timestamp,ax,ay,az,gx,gy,gz,orient_label,motion_label
19075.64,-0.647,0.141,0.734,-6.96,2.59,2.35,4,6
19075.656,-0.668,0.129,0.754,-4.55,-0.27,1.95,4,6
19075.656,-0.648,0.138,0.735,-1.13,-2.75,1.77,4,6
19075.671,-0.631,0.153,0.709,1.28,-3.2,1.56,4,6
19075.671,-0.617,0.146,0.699,1.4,-1.07,1.37,4,6
19075.687,-0.609,0.117,0.709,0.79,2.75,1.59,4,6
19075.703,-0.628,0.125,0.728,1.16,6.5,1.56,4,6
19075.703,-0.643,0.131,0.739,1.37,7.72,0.67,4,6
19075.718,-0.653,0.137,0.744,0.73,7.45,-0.27,4,6
19075.734,-0.666,0.143,0.764,0.06,6.65,-0.85,4,6
19075.734,-0.683,0.155,0.772,-0.18,4.46,-1.04,4,6
19075.75,-0.676,0.159,0.766,-0.95,0.95,-0.34,4,6
19075.75,-0.654,0.152,0.744,-1.53,-1.89,0.31,4,6
19075.765,-0.632,0.139,0.721,-1.4,-2.17,0.95,4,6
19075.781,-0.617,0.13,0.705,-1.53,-0.37,1.04,4,6
19075.781,-0.608,0.121,0.696,-1.89,3.02,0.49,4,6
19075.796,-0.604,0.114,0.704,-2.9,6.71,-0.06,4,6
19075.828,-0.622,0.125,0.721,-5.04,11.47,-2.53,4,6
19075.828,-0.637,0.13,0.742,-3.88,12.48,-4.58,4,6
19075.843,-0.676,0.146,0.767,-0.52,12.12,-6.32,4,6
19075.843,-0.71,0.162,0.785,2.96,7.84,-6.53,4,6
19075.859,-0.699,0.177,0.777,4.67,1.07,-4.73,4,6
19075.875,-0.67,0.192,0.746,4.24,-4.43,-2.66,4,6
19075.875,-0.636,0.193,0.71,2.23,-6.16,-0.4,4,6
19075.89,-0.613,0.189,0.689,-0.73,-4.06,1.53,4,6
19075.89,-0.612,0.186,0.689,-2.9,0.34,2.69,4,6
19075.906,-0.628,0.177,0.697,-3.33,4.85,2.84,4,6
19075.921,-0.642,0.17,0.704,-1.98,8.42,2.62,4,6
19075.921,-0.65,0.169,0.707,0.4,10.96,2.23,4,6
19075.937,-0.656,0.171,0.714,2.75,12.67,1.19,4,6
19075.953,-0.668,0.178,0.73,4.55,13.21,0.43,4,6
19075.968,-0.688,0.196,0.752,4.67,11.87,0.09,4,6
19075.968,-0.705,0.199,0.767,4.15,8.27,0.52,4,6
19075.984,-0.685,0.198,0.745,2.17,-1.98,4.58,4,6
19076.0,-0.657,0.185,0.712,-0.37,-4.09,6.62,4,6
19076.015,-0.634,0.166,0.693,-2.62,-3.33,8.42,4,6
19076.015,-0.627,0.148,0.689,-3.54,-0.4,9.28,4,6
19076.031,-0.631,0.141,0.696,-3.88,2.84,9.49,4,6
19076.031,-0.647,0.136,0.711,-4.09,5.04,8.24,4,6
19076.046,-0.656,0.122,0.724,-2.17,5.52,6.23,4,6
19076.062,-0.669,0.123,0.737,1.13,5.13,3.78,4,6
19076.062,-0.687,0.129,0.736,4.55,4.09,1.46,4,6
19076.078,-0.692,0.136,0.73,6.04,2.26,0.43,4,6
19076.093,-0.679,0.147,0.731,5.1,0.34,0.61,4,6
19076.109,-0.677,0.155,0.73,2.01,-1.13,1.34,4,6
19076.109,-0.67,0.145,0.725,-1.68,-2.01,1.59,4,6
19076.125,-0.658,0.125,0.72,-2.96,-2.35,1.16,4,6
19076.125,-0.653,0.103,0.714,-0.58,-1.37,-0.61,4,6
19076.14,-0.651,0.088,0.702,3.94,0.27,-4.18,4,6
19076.156,-0.652,0.045,0.708,16.21,3.78,-17.49,4,6
19076.171,-0.668,0.051,0.712,24.26,5.8,-25.61,4,6
19076.171,-0.686,0.067,0.716,31.25,6.68,-32.38,4,6
19076.187,-0.692,0.084,0.713,35.4,6.29,-36.41,4,6
19076.203,-0.7,0.12,0.714,36.32,6.41,-38.27,4,6
19076.203,-0.715,0.154,0.713,33.08,5.19,-38.39,4,6
19076.218,-0.709,0.176,0.706,26.37,2.29,-36.87,4,6
19076.234,-0.692,0.192,0.708,18.59,0.03,-34.79,4,6
19076.234,-0.675,0.183,0.704,13.89,-1.19,-32.01,4,6
19076.25,-0.671,0.186,0.698,12.18,-0.76,-28.32,4,6
19076.265,-0.673,0.191,0.682,12.42,1.4,-23.99,4,6
19076.265,-0.664,0.196,0.675,11.93,3.81,-18.98,4,6
19076.281,-0.653,0.201,0.674,9.25,5.95,-14.07,4,6
19076.281,-0.648,0.199,0.679,5.4,7.97,-10.19,4,6
19076.296,-0.646,0.196,0.684,2.5,9.46,-7.35,4,6
19076.312,-0.651,0.202,0.694,0.4,10.35,-4.94,4,6
19076.328,-0.669,0.216,0.717,-3.91,9.16,-1.89,4,6
19076.343,-0.678,0.207,0.721,-5.43,6.23,-0.58,4,6
19076.343,-0.685,0.193,0.718,-5.04,3.14,0.55,4,6
19076.359,-0.688,0.181,0.708,-2.84,0.37,2.01,4,6
19076.375,-0.679,0.177,0.693,-1.13,-2.01,3.81,4,6
19076.375,-0.67,0.168,0.672,-0.73,-2.69,4.43,4,6
19076.39,-0.669,0.146,0.653,-0.85,-1.13,4.03,4,6
19076.406,-0.683,0.121,0.649,-0.34,2.47,3.11,4,6
19076.406,-0.699,0.089,0.643,2.2,6.56,1.28,4,6
19076.421,-0.716,0.059,0.633,7.02,11.02,-1.4,4,6
19076.421,-0.732,0.037,0.617,11.93,15.32,-5.07,4,6
19076.437,-0.751,0.02,0.61,15.75,19.62,-8.88,4,6
19076.453,-0.775,0.022,0.611,18.74,23.35,-11.05,4,6
19076.453,-0.789,0.043,0.617,20.17,25.36,-10.77,4,6
19076.468,-0.778,0.066,0.641,18.68,25.82,-8.58,4,6
19076.484,-0.756,0.073,0.657,15.32,24.32,-5.04,4,6
19076.5,-0.689,0.086,0.661,6.71,19.9,2.56,4,6
19076.515,-0.674,0.094,0.669,1.46,18.19,4.97,4,6
19076.515,-0.674,0.096,0.677,-3.17,15.75,5.37,4,6
19076.531,-0.695,0.096,0.678,-5.89,13.95,4.55,4,6
19076.531,-0.723,0.106,0.674,-6.84,11.72,3.05,4,6
19076.546,-0.738,0.121,0.666,-6.59,8.24,0.67,4,6
19076.562,-0.731,0.138,0.658,-5.62,4.27,-2.29,4,6
19076.562,-0.724,0.15,0.654,-2.9,1.28,-5.58,4,6
19076.578,-0.72,0.162,0.65,2.56,0.0,-8.33,4,6
19076.593,-0.704,0.186,0.645,9.43,0.4,-9.92,4,6
19076.593,-0.694,0.217,0.643,15.81,5.86,-10.28,4,6
19076.609,-0.691,0.241,0.649,14.5,9.03,-10.62,4,6
19076.625,-0.688,0.25,0.669,12.12,12.09,-11.02,4,6
19076.625,-0.696,0.255,0.695,9.55,13.34,-10.86,4,6
19076.64,-0.746,0.273,0.749,6.84,11.47,-9.83,4,6
19076.64,-0.747,0.275,0.755,4.27,6.93,-7.66,4,6
19076.671,-0.705,0.275,0.716,1.25,-1.8,-2.01,4,6
19076.687,-0.698,0.269,0.693,-1.04,-3.3,1.04,4,6
19076.687,-0.687,0.249,0.676,-4.06,-3.81,4.52,4,6
19076.703,-0.681,0.225,0.663,-5.62,-3.45,7.45,4,6
19076.703,-0.693,0.204,0.658,-4.7,-2.35,8.97,4,6
19076.718,-0.714,0.191,0.66,-2.84,-1.83,9.49,4,6
19076.734,-0.73,0.187,0.65,-1.43,-2.59,9.67,4,6
19076.734,-0.731,0.182,0.643,-1.04,-3.66,10.25,4,6
19076.75,-0.734,0.164,0.633,-0.52,-4.06,11.02,4,6
19076.765,-0.739,0.145,0.625,-0.15,-3.63,11.29,4,6
19076.765,-0.74,0.14,0.613,0.79,-2.01,11.2,4,6
19076.781,-0.74,0.132,0.602,1.98,0.92,10.56,4,6
19076.781,-0.746,0.117,0.608,3.11,4.43,9.28,4,6
19076.796,-0.772,0.116,0.622,4.94,7.78,7.05,4,6
19076.812,-0.796,0.127,0.644,6.59,8.33,4.46,4,6
19076.828,-0.787,0.123,0.668,7.29,5.31,1.95,4,6
19076.828,-0.789,0.13,0.687,9.16,1.8,-0.98,4,6
19076.843,-0.792,0.143,0.691,11.63,-2.23,-3.36,4,6
19076.843,-0.775,0.156,0.683,12.21,-7.17,-4.21,4,6
19076.859,-0.741,0.167,0.667,11.17,-11.05,-3.94,4,6
19076.875,-0.711,0.179,0.645,9.52,-11.87,-3.45,4,6
19076.89,-0.694,0.177,0.63,7.2,-9.89,-3.05,4,6
19076.89,-0.686,0.169,0.628,5.52,-6.1,-2.35,4,6
19076.89,-0.691,0.176,0.628,5.1,-1.4,-1.19,4,6
19076.906,-0.705,0.179,0.636,5.43,2.66,-0.03,4,6
19076.921,-0.72,0.181,0.642,6.07,5.07,0.67,4,6
19076.921,-0.737,0.19,0.655,5.89,5.22,0.95,4,6
19076.937,-0.748,0.198,0.667,5.1,2.99,1.46,4,6
19076.953,-0.741,0.202,0.672,3.45,-1.46,2.87,4,6
19076.953,-0.719,0.201,0.657,1.25,-5.58,4.3,4,6
19076.968,-0.698,0.187,0.634,-1.28,-7.11,5.28,4,6
19076.984,-0.692,0.182,0.622,-3.45,-5.98,6.29,4,6
19076.984,-0.704,0.182,0.617,-5.34,-3.97,7.42,4,6
19077.0,-0.719,0.179,0.617,-7.97,-2.32,8.24,4,6
19077.015,-0.727,0.179,0.619,-11.14,-1.71,9.34,4,6
19077.015,-0.728,0.177,0.619,-14.07,-1.43,10.59,4,6
19077.031,-0.726,0.174,0.62,-15.41,-0.95,11.54,4,6
19077.031,-0.724,0.166,0.609,-15.29,-0.18,12.42,4,6
19077.046,-0.721,0.164,0.601,-14.16,1.43,13.4,4,6
19077.062,-0.711,0.163,0.595,-12.57,3.81,14.22,4,6
19077.078,-0.699,0.148,0.595,-10.47,7.2,14.19,4,6
19077.078,-0.722,0.143,0.607,-7.72,10.74,12.97,4,6
19077.093,-0.752,0.154,0.619,-6.01,11.96,11.63,4,6
19077.093,-0.758,0.162,0.624,-5.8,10.47,10.93,4,6
19077.109,-0.756,0.168,0.618,-6.47,8.67,10.19,4,6
19077.125,-0.759,0.175,0.621,-8.64,7.35,9.74,4,6
19077.125,-0.76,0.176,0.619,-10.86,6.23,9.8,4,6
19077.14,-0.755,0.189,0.615,-13.18,5.31,11.05,4,6
19077.14,-0.738,0.197,0.605,-15.84,5.19,13.18,4,6
19077.156,-0.716,0.188,0.598,-18.49,6.68,15.29,4,6
19077.171,-0.704,0.175,0.596,-20.11,9.64,16.72,4,6
19077.171,-0.703,0.171,0.603,-20.48,13.46,17.58,4,6
19077.187,-0.711,0.158,0.62,-19.96,16.39,17.06,4,6
19077.203,-0.735,0.162,0.644,-18.22,17.46,15.17,4,6
19077.218,-0.751,0.181,0.668,-16.57,15.59,13.09,4,6
19077.218,-0.753,0.195,0.682,-15.29,11.72,11.11,4,6
19077.234,-0.751,0.215,0.674,-14.83,7.2,9.89,4,6
19077.234,-0.738,0.239,0.664,-15.93,3.66,10.01,4,6
19077.25,-0.725,0.25,0.661,-18.59,2.14,11.29,4,6
19077.265,-0.72,0.258,0.662,-21.85,2.29,13.09,4,6
19077.265,-0.719,0.257,0.662,-23.83,3.42,15.17,4,6
19077.281,-0.727,0.24,0.661,-23.41,4.79,17.4,4,6
19077.296,-0.735,0.218,0.654,-20.78,5.83,18.83,4,6
19077.296,-0.736,0.202,0.651,-17.09,6.29,18.4,4,6
19077.312,-0.755,0.197,0.654,-12.45,6.16,16.24,4,6
19077.312,-0.772,0.205,0.665,-9.16,4.12,13.25,4,6
19077.328,-0.775,0.219,0.672,-7.17,0.21,9.95,4,6
19077.343,-0.772,0.225,0.679,-3.97,-3.63,6.71,4,6
19077.343,-0.78,0.235,0.683,0.15,-7.02,4.73,4,6
19077.359,-0.756,0.229,0.679,4.09,-10.07,3.48,4,6
19077.375,-0.728,0.217,0.667,9.19,-11.38,1.59,4,6
19077.375,-0.723,0.219,0.652,14.22,-11.08,0.06,4,6
19077.39,-0.723,0.223,0.644,17.55,-9.95,-0.95,4,6
19077.406,-0.727,0.231,0.637,18.62,-8.67,-1.46,4,6
19077.406,-0.738,0.233,0.627,17.82,-7.72,-0.73,4,6
19077.421,-0.75,0.239,0.62,14.89,-8.06,1.43,4,6
19077.421,-0.747,0.241,0.612,10.68,-9.06,4.67,4,6
19077.437,-0.726,0.236,0.584,6.2,-9.7,8.27,4,6
19077.453,-0.709,0.236,0.56,1.13,-8.33,11.87,4,6
19077.453,-0.688,0.239,0.533,-3.48,-4.3,15.84,4,6
19077.468,-0.678,0.238,0.512,-7.97,2.2,20.33,4,6
19077.484,-0.677,0.212,0.504,-10.65,11.02,25.39,4,6
19077.484,-0.692,0.183,0.492,-10.9,21.42,31.07,4,6
19077.5,-0.713,0.184,0.488,-10.59,31.83,35.43,4,6
19077.515,-0.793,0.152,0.561,-14.34,43.28,35.28,4,6
19077.531,-0.809,0.13,0.593,-16.51,41.38,31.71,4,6
19077.531,-0.8,0.122,0.607,-17.58,36.77,26.83,4,6
19077.546,-0.79,0.109,0.612,-16.94,32.35,21.09,4,6
19077.562,-0.777,0.092,0.605,-14.89,28.9,15.72,4,6
19077.562,-0.759,0.08,0.592,-12.21,27.71,11.66,4,6
19077.578,-0.752,0.086,0.591,-9.55,28.57,8.06,4,6
19077.593,-0.763,0.093,0.603,-5.07,29.88,3.45,4,6
19077.593,-0.772,0.092,0.622,-2.38,28.53,2.04,4,6
19077.609,-0.779,0.099,0.644,0.34,25.61,0.79,4,6
19077.625,-0.784,0.125,0.667,1.53,20.87,-0.31,4,6
19077.625,-0.766,0.134,0.663,2.08,15.32,-2.08,4,6
19077.64,-0.735,0.144,0.654,3.17,10.68,-4.88,4,6
19077.64,-0.717,0.155,0.64,5.92,8.33,-8.91,4,6
19077.656,-0.708,0.165,0.63,9.83,7.72,-13.15,4,6
19077.671,-0.708,0.182,0.621,13.86,8.51,-16.69,4,6
19077.687,-0.732,0.227,0.61,20.54,12.09,-22.43,4,6
19077.703,-0.753,0.254,0.611,20.97,12.51,-24.17,4,6
19077.718,-0.768,0.276,0.615,19.65,11.47,-24.72,4,6
19077.718,-0.788,0.298,0.618,17.18,9.06,-23.83,4,6
19077.734,-0.805,0.31,0.614,13.82,4.73,-21.58,4,6
19077.734,-0.792,0.307,0.594,9.61,-0.67,-18.25,4,6
19077.75,-0.777,0.3,0.567,6.04,-3.45,-15.17,4,6
19077.765,-0.762,0.286,0.547,3.48,-3.08,-12.27,4,6
19077.765,-0.758,0.278,0.531,2.96,-0.58,-9.74,4,6
19077.781,-0.764,0.284,0.518,3.23,3.39,-7.6,4,6
19077.781,-0.795,0.294,0.531,0.89,6.29,-5.43,4,6
19077.796,-0.821,0.303,0.558,-4.64,5.28,-2.26,4,6
19077.812,-0.839,0.322,0.569,-12.24,0.73,1.25,4,6
19077.812,-0.836,0.331,0.572,-20.42,-6.2,5.86,4,6
19077.828,-0.822,0.325,0.569,-28.53,-12.79,11.23,4,6
19077.843,-0.8,0.303,0.557,-34.06,-17.0,17.12,4,6
19077.859,-0.734,0.271,0.496,-33.85,-14.74,29.73,4,6
19077.875,-0.72,0.238,0.485,-31.19,-8.76,33.51,4,6
19077.875,-0.725,0.202,0.479,-27.83,-2.59,34.3,4,6
19077.89,-0.736,0.194,0.479,-25.12,2.99,32.65,4,6
19077.89,-0.757,0.186,0.484,-23.16,7.6,29.27,4,6
19077.906,-0.795,0.176,0.499,-22.06,10.74,24.99,4,6
19077.921,-0.836,0.179,0.526,-21.58,10.93,21.18,4,6
19077.921,-0.85,0.19,0.544,-22.25,8.18,19.35,4,6
19077.937,-0.846,0.192,0.554,-24.75,5.07,19.53,4,6
19077.953,-0.832,0.173,0.562,-28.9,2.9,20.29,4,6
19077.968,-0.811,0.154,0.56,-32.14,2.41,21.67,4,6
19077.968,-0.791,0.135,0.557,-32.35,3.85,22.55,4,6
19077.984,-0.772,0.124,0.554,-30.95,6.35,21.88,4,6
19077.984,-0.758,0.11,0.554,-28.63,8.88,18.8,4,6
19078.0,-0.761,0.099,0.569,-24.51,11.35,13.61,4,6
19078.015,-0.777,0.113,0.597,-18.62,12.57,8.03,4,6
19078.031,-0.802,0.162,0.622,-8.36,7.45,-2.53,4,6
19078.031,-0.79,0.193,0.621,-5.46,3.63,-5.68,4,6
19078.046,-0.777,0.219,0.618,-3.39,1.07,-7.17,4,6
19078.062,-0.755,0.232,0.616,-2.59,-0.15,-6.71,4,6
19078.078,-0.748,0.239,0.622,-3.17,0.52,-4.73,4,6
19078.078,-0.749,0.245,0.632,-4.46,1.19,-2.47,4,6
19078.093,-0.748,0.248,0.642,-5.98,0.34,-0.85,4,6
19078.093,-0.746,0.246,0.65,-6.44,-1.16,-0.64,4,6
19078.109,-0.759,0.245,0.657,-4.88,-3.23,-1.34,4,6
19078.125,-0.773,0.244,0.658,-1.71,-6.41,-1.92,4,6
19078.125,-0.772,0.25,0.643,1.07,-10.28,-1.77,4,6
19078.14,-0.762,0.248,0.625,2.69,-13.64,-1.28,4,6
19078.156,-0.753,0.24,0.606,3.57,-15.2,-0.21,4,6
19078.156,-0.752,0.233,0.583,3.78,-14.98,1.19,4,6
19078.171,-0.756,0.233,0.57,3.11,-13.67,2.78,4,6
19078.171,-0.768,0.234,0.569,2.04,-12.27,4.21,4,6
19078.203,-0.776,0.219,0.562,0.82,-11.41,6.9,4,6
19078.203,-0.78,0.216,0.559,1.34,-10.68,7.57,4,6
19078.218,-0.789,0.213,0.544,2.69,-9.37,8.42,4,6
19078.234,-0.787,0.22,0.527,2.72,-6.93,9.89,4,6
19078.234,-0.786,0.227,0.527,1.22,-3.63,11.47,4,6
19078.25,-0.796,0.23,0.519,-1.28,-0.12,12.79,4,6
19078.265,-0.796,0.241,0.51,-4.85,3.23,15.05,4,6
19078.265,-0.788,0.253,0.502,-10.22,6.2,17.09,4,6
19078.281,-0.782,0.255,0.506,-15.93,9.46,18.34,4,6
19078.281,-0.78,0.255,0.523,-19.78,12.27,19.5,4,6
19078.296,-0.789,0.258,0.544,-20.81,14.25,20.6,4,6
19078.312,-0.794,0.257,0.564,-19.81,14.65,22.0,4,6
19078.312,-0.785,0.246,0.57,-17.03,13.89,23.53,4,6
19078.328,-0.773,0.245,0.558,-13.67,13.31,24.63,4,6
19078.343,-0.752,0.244,0.547,-11.26,13.55,25.03,4,6
19078.359,-0.734,0.236,0.536,-10.16,15.66,25.24,4,6
19078.375,-0.732,0.246,0.542,-10.83,22.52,25.21,4,6
19078.375,-0.747,0.259,0.56,-10.41,25.06,25.39,4,6
19078.39,-0.765,0.285,0.573,-9.98,25.97,26.52,4,6
19078.406,-0.783,0.308,0.582,-10.38,25.54,28.66,4,6
19078.406,-0.793,0.315,0.581,-10.77,24.48,32.62,4,6
19078.421,-0.797,0.345,0.56,-11.41,23.68,39.06,4,6
19078.437,-0.798,0.401,0.536,-15.99,24.48,47.52,4,6
19078.437,-0.8,0.422,0.504,-26.37,25.97,56.95,4,6
19078.453,-0.787,0.438,0.487,-41.84,28.05,66.32,4,6
19078.453,-0.791,0.447,0.471,-59.39,31.13,74.5,4,6
19078.468,-0.787,0.439,0.461,-76.78,33.75,82.92,4,6
19078.484,-0.779,0.435,0.466,-92.17,36.71,90.52,4,6
19078.484,-0.772,0.423,0.476,-103.67,39.4,97.29,4,6
19078.5,-0.763,0.41,0.49,-110.02,41.44,103.09,4,6
19078.515,-0.755,0.396,0.505,-110.45,43.0,107.76,4,6
19078.515,-0.75,0.393,0.521,-107.03,44.13,111.58,4,6
19078.531,-0.754,0.389,0.534,-101.81,44.98,113.86,4,6
19078.531,-0.742,0.373,0.53,-95.52,44.8,114.08,4,6
19078.546,-0.72,0.375,0.522,-90.03,44.77,112.4,4,6
19078.562,-0.705,0.375,0.52,-85.51,44.89,108.4,4,6
19078.578,-0.695,0.368,0.527,-74.13,45.01,98.51,4,6
19078.578,-0.687,0.374,0.538,-66.19,45.66,93.91,4,6
19078.593,-0.679,0.385,0.55,-56.61,46.14,88.75,4,6
19078.593,-0.685,0.366,0.542,-45.99,47.46,82.95,4,6
19078.609,-0.701,0.364,0.536,-35.13,49.1,76.27,4,6
19078.625,-0.717,0.372,0.53,-25.42,49.9,68.97,4,6
19078.625,-0.728,0.379,0.534,-18.25,48.71,61.92,4,6
19078.64,-0.744,0.397,0.545,-13.86,45.08,55.51,4,6
19078.656,-0.749,0.428,0.549,-12.02,38.85,51.18,4,6
19078.656,-0.73,0.446,0.536,-13.03,31.5,49.1,4,6
19078.671,-0.709,0.456,0.526,-15.2,27.19,47.91,4,6
19078.671,-0.711,0.457,0.518,-14.74,27.86,47.09,4,6
19078.687,-0.734,0.453,0.496,-10.62,31.34,46.39,4,6
19078.703,-0.761,0.462,0.479,-5.77,34.06,46.3,4,6
19078.703,-0.773,0.475,0.476,-0.58,34.73,46.91,4,6
19078.718,-0.772,0.49,0.458,3.97,34.21,47.09,4,6
19078.734,-0.773,0.512,0.447,6.62,33.45,46.78,4,6
19078.75,-0.776,0.533,0.434,7.39,31.25,46.21,4,6
19078.75,-0.771,0.552,0.429,5.4,27.65,46.3,4,6
19078.765,-0.762,0.559,0.428,2.47,23.77,47.64,4,6
19078.765,-0.77,0.559,0.419,0.15,22.4,49.78,4,6
19078.781,-0.786,0.546,0.406,-0.85,23.19,51.85,4,6
19078.781,-0.799,0.543,0.391,-1.59,23.56,54.17,4,6
19078.796,-0.802,0.545,0.379,-2.47,22.98,56.55,4,6
19078.812,-0.81,0.545,0.378,-4.21,20.94,58.14,4,6
19078.828,-0.817,0.555,0.383,-7.6,17.0,59.82,4,6
19078.828,-0.815,0.567,0.384,-12.57,11.29,61.62,4,6
19078.843,-0.803,0.562,0.376,-18.16,4.67,63.51,4,6
19078.843,-0.793,0.558,0.376,-23.29,-0.43,65.83,4,6
19078.859,-0.799,0.576,0.378,-27.07,-2.9,68.61,4,6
19078.875,-0.814,0.587,0.376,-30.7,-5.49,71.72,4,6
19078.875,-0.805,0.581,0.372,-34.82,-8.55,75.62,4,6
19078.89,-0.788,0.579,0.366,-38.39,-9.64,79.32,4,6
19078.89,-0.778,0.575,0.361,-41.41,-8.97,81.91,4,6
19078.906,-0.767,0.564,0.353,-44.13,-7.39,83.07,4,6
19078.921,-0.763,0.558,0.352,-45.56,-5.34,83.83,4,6
19078.921,-0.758,0.557,0.348,-45.96,-3.81,84.75,4,6
19078.937,-0.738,0.555,0.345,-46.14,-2.66,85.85,4,6
19078.953,-0.721,0.559,0.349,-45.32,-0.24,86.64,4,6
19078.953,-0.711,0.565,0.356,-43.15,2.96,87.47,4,6
19078.968,-0.698,0.566,0.359,-40.83,5.86,88.66,4,6
19078.984,-0.683,0.564,0.362,-39.25,9.03,89.21,4,6
19078.984,-0.678,0.56,0.37,-38.18,12.57,88.93,4,6
19079.0,-0.676,0.555,0.375,-36.84,16.39,88.41,4,6
19079.015,-0.667,0.553,0.38,-36.1,20.11,87.86,4,6
19079.015,-0.656,0.548,0.382,-35.71,23.99,86.67,4,6
19079.031,-0.63,0.542,0.4,-36.44,30.43,83.16,4,6
19079.046,-0.623,0.552,0.417,-35.52,33.3,81.48,4,6
19079.062,-0.625,0.561,0.428,-34.09,36.01,80.69,4,6
19079.062,-0.62,0.571,0.439,-33.97,37.39,80.97,4,6
19079.078,-0.607,0.583,0.452,-35.37,38.24,81.42,4,6
19079.093,-0.593,0.588,0.465,-38.85,39.0,80.63,4,6
19079.093,-0.582,0.597,0.484,-43.82,40.1,79.01,4,6
19079.109,-0.584,0.621,0.509,-51.82,39.95,76.75,4,6
19079.125,-0.584,0.626,0.534,-62.23,36.56,74.5,4,6
19079.125,-0.57,0.609,0.553,-70.31,31.46,73.4,4,6
19079.14,-0.557,0.593,0.572,-73.98,27.86,73.52,4,6
19079.156,-0.539,0.579,0.58,-73.55,26.31,74.4,4,6
19079.156,-0.523,0.584,0.591,-70.22,26.31,74.07,4,6
19079.171,-0.527,0.588,0.605,-65.89,25.94,72.63,4,6
19079.171,-0.529,0.589,0.621,-62.32,25.06,71.35,4,6
19079.187,-0.536,0.605,0.639,-59.91,23.44,70.38,4,6
19079.218,-0.545,0.62,0.641,-59.6,16.75,69.95,4,6
19079.218,-0.542,0.603,0.639,-61.22,12.88,70.22,4,6
19079.234,-0.529,0.576,0.636,-60.21,9.52,70.01,4,6
19079.234,-0.509,0.555,0.634,-55.12,7.57,68.67,4,6
19079.25,-0.49,0.532,0.626,-46.36,7.17,65.58,4,6
19079.265,-0.48,0.516,0.623,-35.92,8.03,60.55,4,6
19079.265,-0.479,0.513,0.625,-25.09,9.46,53.96,4,6
19079.281,-0.487,0.52,0.631,-15.08,10.56,46.72,4,6
19079.281,-0.498,0.529,0.64,-7.14,10.62,39.74,4,6
19079.296,-0.514,0.535,0.646,-1.65,9.37,33.3,4,6
19079.312,-0.524,0.553,0.656,1.25,6.62,28.35,4,6
19079.312,-0.523,0.566,0.667,1.86,2.23,25.03,4,6
19079.328,-0.507,0.558,0.663,1.98,-3.11,22.98,4,6
19079.343,-0.487,0.554,0.656,2.9,-6.99,21.55,4,6
19079.343,-0.472,0.555,0.645,4.09,-9.06,20.72,4,6
19079.359,-0.447,0.559,0.631,5.28,-9.67,20.33,4,6
19079.375,-0.418,0.563,0.615,5.49,-5.43,18.71,4,6
19079.39,-0.42,0.562,0.616,4.39,-2.41,17.58,4,6
19079.406,-0.429,0.57,0.623,2.99,-0.03,16.45,4,6
19079.406,-0.439,0.576,0.639,0.64,0.06,15.59,4,6
19079.421,-0.431,0.575,0.649,-1.86,-2.01,14.62,4,6
19079.421,-0.419,0.567,0.651,-3.02,-4.76,13.15,4,6
19079.437,-0.407,0.559,0.653,-2.93,-7.42,11.29,4,6
19079.453,-0.397,0.565,0.655,-1.68,-9.89,9.37,4,6
19079.453,-0.392,0.572,0.655,0.15,-12.21,8.24,4,6
19079.468,-0.389,0.583,0.655,0.85,-14.4,7.48,4,6
19079.484,-0.383,0.589,0.649,0.85,-16.79,7.17,4,6
19079.484,-0.374,0.595,0.64,-0.06,-18.83,7.69,4,6
19079.5,-0.374,0.605,0.629,-2.14,-19.81,8.67,4,6
19079.515,-0.379,0.604,0.615,-5.22,-20.23,10.22,4,6
19079.515,-0.38,0.603,0.605,-9.22,-20.91,11.93,4,6
19079.531,-0.379,0.61,0.598,-13.64,-21.0,13.58,4,6
19079.546,-0.367,0.583,0.593,-25.09,-18.74,13.86,4,6
19079.562,-0.359,0.589,0.608,-24.9,-17.46,13.64,4,6
19079.578,-0.359,0.596,0.614,-26.03,-16.42,13.18,4,6
19079.578,-0.346,0.609,0.618,-27.16,-15.93,12.05,4,6
19079.593,-0.353,0.599,0.653,-26.28,-16.42,10.47,4,6
19079.593,-0.355,0.595,0.662,-23.01,-17.52,8.36,4,6
19079.609,-0.356,0.599,0.669,-18.34,-19.38,5.71,4,6
19079.625,-0.341,0.599,0.669,-12.67,-21.49,3.33,4,6
19079.625,-0.322,0.606,0.672,-6.53,-22.92,0.67,4,6
19079.64,-0.303,0.62,0.672,-0.61,-23.41,-2.59,4,6
19079.656,-0.29,0.637,0.673,3.88,-23.29,-5.68,4,6
19079.656,-0.282,0.652,0.674,6.47,-23.53,-8.09,4,6
19079.671,-0.266,0.655,0.676,8.79,-24.96,-9.86,4,6
19079.671,-0.243,0.652,0.684,13.58,-26.67,-12.3,4,6
19079.687,-0.232,0.655,0.695,21.76,-28.11,-16.57,4,6
19079.703,-0.221,0.664,0.71,32.26,-29.69,-21.64,4,6
19079.718,-0.209,0.678,0.731,44.5,-31.1,-27.07,4,6
19079.718,-0.214,0.706,0.75,58.47,-32.17,-32.69,4,6
19079.734,-0.231,0.732,0.755,72.85,-32.96,-36.5,4,6
19079.734,-0.257,0.752,0.757,83.35,-33.78,-38.03,4,6
19079.75,-0.288,0.78,0.766,88.44,-35.22,-39.0,4,6
19079.765,-0.329,0.783,0.753,91.77,-38.45,-39.86,4,6
19079.765,-0.355,0.8,0.747,91.25,-42.54,-39.74,4,6
19079.781,-0.366,0.822,0.733,86.12,-47.61,-39.09,4,6
19079.796,-0.366,0.799,0.694,80.54,-52.74,-37.11,4,6
19079.796,-0.352,0.765,0.645,75.99,-56.06,-31.56,4,6
19079.812,-0.308,0.748,0.607,71.44,-56.28,-23.07,4,6
19079.812,-0.258,0.747,0.577,65.52,-53.07,-14.31,4,6
19079.828,-0.229,0.749,0.557,55.85,-48.46,-6.84,4,6
19079.843,-0.216,0.742,0.555,40.5,-45.26,-0.27,4,6
19079.843,-0.208,0.717,0.568,23.9,-44.34,5.98,4,6
19079.859,-0.203,0.711,0.591,10.65,-44.95,12.42,4,6
19079.875,-0.206,0.711,0.61,1.22,-46.75,18.86,4,6
19079.875,-0.198,0.698,0.626,-5.49,-49.41,26.06,4,6
19079.89,-0.199,0.684,0.629,-9.28,-51.0,33.11,4,6
19079.906,-0.203,0.665,0.627,-11.81,-51.79,39.28,4,6
19079.906,-0.209,0.646,0.63,-13.67,-53.04,43.95,4,6
19079.921,-0.215,0.633,0.628,-15.14,-54.81,46.97,4,6
19079.937,-0.209,0.625,0.613,-17.09,-58.38,48.74,4,6
19079.937,-0.197,0.61,0.588,-19.47,-63.33,49.07,4,6
19079.953,-0.166,0.589,0.563,-21.52,-68.06,48.13,4,6
19079.968,-0.13,0.586,0.541,-22.06,-70.35,45.99,4,6
19079.968,-0.117,0.602,0.534,-21.85,-70.44,43.21,4,6
19079.984,-0.107,0.624,0.54,-20.69,-69.8,40.59,4,6
19079.984,-0.1,0.671,0.55,-17.88,-69.03,38.58,4,6
19080.0,-0.09,0.716,0.559,-14.31,-69.0,38.36,4,6
19080.015,-0.063,0.769,0.57,-13.06,-69.61,39.52,4,6
19080.015,-0.063,0.799,0.565,-13.79,-70.22,42.05,4,6
19080.031,-0.053,0.806,0.552,-17.24,-71.11,46.72,4,6
19080.046,-0.057,0.81,0.575,-20.81,-72.51,55.39,4,6
19080.062,-0.056,0.809,0.577,-17.15,-74.13,59.76,4,6
19080.062,-0.039,0.813,0.561,-13.95,-75.44,64.0,4,6
19080.078,-0.013,0.823,0.562,-13.43,-75.53,67.29,4,6
19080.093,0.014,0.822,0.568,-14.31,-75.08,69.46,4,6
19080.093,0.026,0.82,0.56,-16.14,-74.5,71.08,4,6
19080.109,0.037,0.813,0.553,-18.28,-74.07,72.76,4,6
19080.125,0.055,0.808,0.559,-19.38,-74.34,73.85,4,6
19080.125,0.063,0.805,0.556,-18.92,-74.31,73.61,4,6
19080.14,0.072,0.793,0.553,-17.46,-74.4,73.55,4,6
19080.156,0.076,0.798,0.549,-15.99,-74.56,73.49,4,6
19080.156,0.07,0.798,0.54,-15.29,-74.31,73.27,4,6
19080.171,0.057,0.791,0.536,-15.72,-73.09,73.58,4,6
19080.171,0.05,0.786,0.517,-17.61,-71.05,75.41,4,6
19080.187,0.051,0.782,0.501,-22.25,-68.58,78.55,4,6
19080.203,0.077,0.759,0.485,-28.2,-65.16,82.34,4,6
19080.218,0.202,0.728,0.501,-36.77,-53.8,86.06,4,6
19080.234,0.267,0.732,0.536,-35.77,-44.5,82.25,4,6
19080.25,0.306,0.759,0.591,-32.11,-34.03,74.68,4,6
19080.25,0.325,0.792,0.652,-27.01,-24.9,64.49,4,6
19080.265,0.324,0.823,0.701,-20.26,-18.16,53.96,4,6
19080.265,0.313,0.852,0.727,-13.03,-14.77,46.02,4,6
19080.281,0.307,0.873,0.733,-6.78,-14.4,41.35,4,6
19080.281,0.307,0.89,0.723,-3.39,-15.81,38.88,4,6
19080.296,0.3,0.877,0.708,-3.23,-18.22,38.09,4,6
19080.312,0.313,0.842,0.686,-5.49,-21.03,38.24,4,6
19080.312,0.323,0.797,0.664,-7.81,-21.39,38.48,4,6
19080.328,0.316,0.745,0.64,-9.03,-19.26,37.42,4,6
19080.343,0.307,0.698,0.615,-9.19,-16.3,35.19,4,6
19080.343,0.293,0.66,0.6,-8.7,-12.48,31.86,4,6
19080.359,0.273,0.643,0.598,-7.84,-8.45,27.86,4,6
19080.375,0.26,0.626,0.588,-6.44,-5.55,24.02,4,6
19080.375,0.258,0.631,0.591,-4.94,-3.75,20.2,4,6
19080.39,0.214,0.602,0.619,-2.17,-2.81,18.4,4,6
19080.406,0.238,0.653,0.646,4.36,-4.43,16.85,4,6
19080.406,0.245,0.695,0.625,12.15,-5.07,11.47,4,6
19080.421,0.229,0.683,0.62,9.64,-3.94,9.31,4,6
19080.421,0.242,0.682,0.642,3.78,-5.46,9.49,4,6
19080.437,0.247,0.684,0.641,4.49,-6.2,8.58,4,6
19080.453,0.235,0.674,0.633,5.31,-6.07,7.48,4,6
19080.453,0.253,0.669,0.639,4.97,-6.13,6.68,4,6
19080.468,0.255,0.672,0.636,6.96,-4.09,3.6,4,6
19080.484,0.253,0.676,0.631,9.28,-0.95,0.18,4,6
19080.484,0.232,0.68,0.64,9.89,2.38,-2.14,4,6
19080.5,0.214,0.677,0.664,10.01,4.03,-1.83,4,6
19080.515,0.209,0.696,0.686,11.29,3.81,-0.89,4,6
19080.515,0.214,0.711,0.683,11.75,3.02,-0.43,4,6
19080.531,0.224,0.697,0.681,7.87,0.67,0.12,4,6
19080.531,0.246,0.687,0.687,1.4,-3.36,1.46,4,6
19080.562,0.258,0.62,0.679,1.19,-3.57,7.54,4,6
19080.562,0.252,0.592,0.648,0.55,-3.48,6.41,4,6
19080.578,0.265,0.566,0.658,-2.56,-4.52,6.35,4,6
19080.593,0.258,0.568,0.655,-2.29,-4.82,4.3,4,6
19080.593,0.259,0.552,0.656,-1.07,-6.74,1.43,4,6
19080.609,0.274,0.551,0.65,1.16,-9.74,-1.53,4,6
19080.625,0.303,0.569,0.647,4.21,-11.87,-5.16,4,6
19080.625,0.465,0.681,0.717,2.5,-14.98,-6.65,4,6
19080.64,0.78,0.949,0.893,-5.34,-13.52,-8.15,4,6
19080.656,0.815,1.098,1.035,-11.05,-2.29,-12.51,4,6
19080.656,0.289,0.836,1.034,-4.24,5.1,-14.19,4,6
19080.671,0.05,0.615,0.912,7.08,-16.14,-2.9,4,6
19080.671,0.212,0.603,0.765,9.37,-46.97,5.04,4,6
19080.687,0.278,0.506,0.633,3.3,-59.36,-0.34,4,6
19080.703,0.338,0.466,0.564,-1.31,-63.26,-8.94,4,6
19080.718,0.401,0.494,0.548,5.28,-58.35,-17.06,4,6
19080.734,0.399,0.619,0.579,24.63,-34.61,-27.25,4,6
19080.734,0.378,0.658,0.594,27.47,-28.2,-28.38,4,6
19080.75,0.362,0.726,0.611,27.44,-25.85,-28.35,4,6
19080.765,0.352,0.774,0.606,26.43,-26.52,-25.76,4,6
19080.765,0.344,0.809,0.58,20.84,-29.3,-20.08,4,6
19080.781,0.356,0.811,0.545,11.93,-32.75,-13.31,4,6
19080.796,0.392,0.804,0.512,2.29,-34.39,-9.06,4,6
19080.796,0.397,0.773,0.486,-6.04,-32.01,-8.09,4,6
19080.812,0.398,0.734,0.474,-11.96,-26.95,-6.71,4,6
19080.812,0.402,0.706,0.469,-13.58,-19.96,-4.18,4,6
19080.828,0.44,0.711,0.479,-13.58,-12.88,0.4,4,6
19080.843,0.464,0.733,0.495,-14.37,-4.61,3.97,4,6
19080.843,0.436,0.727,0.531,-16.6,4.12,6.29,4,6
19080.859,0.415,0.707,0.579,-18.22,9.13,9.7,4,6
19080.875,0.404,0.703,0.602,-17.46,11.84,12.18,4,6
19080.875,0.38,0.689,0.61,-17.33,12.3,13.18,4,6
19080.89,0.379,0.653,0.618,-21.52,7.57,8.45,4,6
19080.906,0.374,0.641,0.619,-24.38,5.95,4.49,4,6
19080.921,0.383,0.635,0.63,-26.98,3.11,1.92,4,6
19080.921,0.399,0.643,0.637,-26.89,1.1,-0.03,4,6
19080.937,0.396,0.643,0.649,-23.74,1.01,-1.13,4,6
19080.953,0.384,0.638,0.661,-19.65,1.86,-1.19,4,6
19080.953,0.376,0.636,0.657,-15.47,2.04,-1.16,4,6
19080.968,0.358,0.634,0.648,-12.79,2.17,-1.65,4,6
19080.984,0.35,0.631,0.655,-11.81,1.98,-1.68,4,6
19080.984,0.367,0.645,0.663,-11.29,1.53,-0.89,4,6
19081.0,0.375,0.651,0.668,-10.9,1.37,-0.03,4,6
19081.015,0.381,0.651,0.668,-10.47,0.76,0.82,4,6
19081.015,0.386,0.649,0.67,-9.89,0.15,1.34,4,6
19081.031,0.388,0.64,0.665,-9.89,0.24,1.34,4,6
19081.031,0.394,0.637,0.635,-9.98,0.58,0.76,4,6
19081.046,0.391,0.634,0.612,-10.44,1.22,-0.37,4,6
19081.078,0.407,0.676,0.64,-16.51,2.59,-6.99,4,6
19081.078,0.36,0.667,0.659,-19.62,2.32,-10.77,4,6
19081.093,0.343,0.67,0.696,-23.56,-3.17,-11.78,4,6
19081.093,0.351,0.662,0.711,-24.72,-9.74,-10.59,4,6
19081.109,0.349,0.65,0.695,-22.55,-13.49,-7.51,4,6
19081.125,0.356,0.642,0.668,-19.07,-14.83,-2.32,4,6
19081.125,0.374,0.652,0.646,-15.96,-13.79,2.2,4,6
19081.14,0.372,0.652,0.63,-13.76,-10.5,4.97,4,6
19081.14,0.374,0.648,0.616,-14.65,-7.87,7.23,4,6
19081.156,0.383,0.642,0.611,-16.6,-5.01,9.77,4,6
19081.171,0.39,0.633,0.62,-16.72,-1.8,12.39,4,6
19081.171,0.391,0.628,0.636,-14.13,1.46,15.32,4,6
19081.187,0.396,0.625,0.642,-10.96,4.55,18.43,4,6
19081.203,0.398,0.617,0.648,-9.25,6.99,20.6,4,6
19081.203,0.406,0.609,0.663,-7.66,9.22,21.03,4,6
19081.218,0.399,0.603,0.668,-4.33,11.41,20.75,4,6
19081.234,0.391,0.63,0.669,1.46,13.55,22.46,4,6
19081.25,0.379,0.641,0.666,1.43,14.1,23.83,4,6
19081.265,0.371,0.649,0.681,-1.04,12.54,25.33,4,6
19081.265,0.373,0.639,0.684,-3.57,10.19,27.16,4,6
19081.281,0.376,0.632,0.67,-5.68,8.97,29.18,4,6
19081.281,0.387,0.625,0.658,-8.55,8.82,30.88,4,6
19081.296,0.398,0.613,0.659,-12.09,9.06,32.65,4,6
19081.312,0.408,0.593,0.673,-13.18,10.1,34.64,4,6
19081.328,0.416,0.577,0.664,-10.32,13.12,37.11,4,6
19081.328,0.423,0.57,0.642,-4.06,18.07,39.67,4,6
19081.343,0.431,0.582,0.65,0.18,22.74,40.8,4,6
19081.343,0.42,0.578,0.652,1.31,27.38,40.22,4,6
19081.359,0.406,0.573,0.668,-0.79,30.09,40.01,4,6
19081.375,0.413,0.575,0.688,-2.62,30.79,39.98,4,6
19081.375,0.419,0.581,0.713,-2.53,30.85,40.53,4,6
19081.39,0.417,0.584,0.723,-1.01,30.67,41.57,4,6
19081.406,0.364,0.545,0.705,-2.78,31.46,38.67,4,6
19081.421,0.399,0.513,0.714,-7.26,25.67,38.67,4,6
19081.421,0.44,0.526,0.712,-8.03,22.1,34.61,4,6
19081.437,0.437,0.514,0.706,-11.08,22.03,30.0,4,6
19081.453,0.434,0.504,0.721,-15.29,21.24,25.73,4,6
19081.453,0.45,0.49,0.715,-15.69,21.06,20.23,4,6
19081.468,0.446,0.506,0.736,-18.16,20.94,14.22,4,6
19081.484,0.417,0.499,0.773,-23.74,18.68,9.55,4,6
19081.484,0.414,0.49,0.79,-26.95,13.58,5.55,4,6
19081.5,0.4,0.469,0.789,-26.4,8.24,4.12,4,6
19081.515,0.429,0.461,0.775,-23.96,3.81,4.97,4,6
19081.515,0.424,0.451,0.75,-17.61,4.27,1.01,4,6
19081.531,0.424,0.436,0.735,-14.07,5.04,-1.43,4,6
19081.531,0.42,0.438,0.736,-10.44,6.56,-4.18,4,6
19081.546,0.439,0.461,0.746,-8.82,8.03,-8.67,4,6
19081.562,0.399,0.461,0.769,-7.87,7.23,-10.74,4,6
19081.578,0.4,0.493,0.739,-1.37,7.45,-14.19,4,6
19081.593,0.406,0.495,0.722,-0.61,8.94,-13.76,4,6
19081.593,0.409,0.508,0.71,0.18,11.2,-13.37,4,6
19081.609,0.424,0.527,0.694,1.34,14.83,-12.97,4,6
19081.625,0.412,0.545,0.695,0.89,18.16,-13.28,4,6
19081.625,0.389,0.524,0.702,-0.37,21.09,-10.77,4,6
19081.64,0.418,0.552,0.694,-0.58,23.07,-8.39,4,6
19081.656,0.405,0.561,0.672,-3.27,26.52,-10.41,4,6
19081.656,0.374,0.529,0.69,-11.23,29.42,-11.08,4,6
19081.671,0.363,0.59,0.757,-19.23,28.29,-11.9,4,6
19081.671,0.32,0.591,0.835,-24.66,24.35,-10.47,4,6
19081.687,0.307,0.595,0.861,-28.72,16.51,-6.26,4,6
19081.703,0.316,0.545,0.841,-28.6,9.7,-1.31,4,6
19081.718,0.349,0.505,0.8,-25.88,6.5,-0.06,4,6
19081.718,0.328,0.462,0.77,-23.99,6.84,-1.46,4,6
19081.734,0.363,0.456,0.752,-24.99,7.02,-1.37,4,6
19081.75,0.256,0.563,0.865,-25.39,17.27,-10.04,4,6
19081.765,0.294,0.589,0.93,-39.31,4.61,-4.43,4,6
19081.765,0.331,0.463,0.866,-33.27,-5.46,-1.71,4,6
19081.781,0.354,0.448,0.823,-23.87,-6.5,-0.18,4,6
19081.781,0.345,0.446,0.819,-13.37,-4.49,1.25,4,6
19081.796,0.339,0.454,0.807,-6.62,-3.11,3.54,4,6
19081.812,0.345,0.458,0.791,-4.7,-2.84,4.55,4,6
19081.828,0.358,0.441,0.79,-5.37,-2.62,3.05,4,6
19081.828,0.359,0.447,0.8,-4.49,-1.74,0.92,4,6
19081.843,0.346,0.479,0.822,-2.14,-1.53,-0.27,4,6
19081.843,0.341,0.512,0.848,0.27,-3.63,-0.46,4,6
19081.859,0.346,0.504,0.852,0.95,-7.45,0.67,4,6
19081.875,0.33,0.496,0.835,0.37,-11.66,2.38,4,6
19081.875,0.303,0.506,0.841,-1.98,-16.05,5.43,4,6
19081.89,0.344,0.527,0.786,-7.08,-22.92,9.95,4,6
19081.906,0.396,0.386,0.71,0.37,-19.53,12.39,4,6
19081.921,0.391,0.491,0.751,-2.59,-9.8,14.07,4,6
19081.937,0.389,0.449,0.774,-3.78,-7.39,13.89,4,6
19081.937,0.396,0.46,0.764,-3.48,-4.85,12.57,4,6
19081.953,0.39,0.461,0.759,-2.93,-2.2,11.23,4,6
19081.953,0.382,0.462,0.786,-4.7,-0.43,10.8,4,6
19081.968,0.381,0.466,0.81,-5.8,-0.49,11.32,4,6
19081.984,0.383,0.461,0.818,-5.55,-1.59,11.93,4,6
19081.984,0.382,0.453,0.821,-4.67,-2.5,12.36,4,6
19082.0,0.383,0.443,0.812,-3.08,-3.2,12.21,4,6
19082.015,0.389,0.44,0.804,-1.62,-3.72,10.86,4,6
19082.015,0.392,0.438,0.802,0.06,-3.39,9.74,4,6
19082.031,0.393,0.439,0.787,2.66,-2.11,9.4,4,6
19082.031,0.388,0.443,0.776,5.31,-0.09,9.58,4,6
19082.046,0.395,0.449,0.771,7.05,1.8,9.86,4,6
19082.062,0.399,0.449,0.757,7.17,3.78,9.74,4,6
19082.078,0.394,0.438,0.749,5.52,5.89,9.22,4,6
19082.093,0.412,0.436,0.76,2.38,9.55,6.47,4,6
19082.093,0.413,0.448,0.774,1.92,12.6,4.52,4,6
19082.109,0.395,0.454,0.803,1.46,15.05,2.81,4,6
19082.125,0.369,0.46,0.832,1.95,15.05,2.47,4,6
19082.125,0.357,0.462,0.844,2.96,12.3,3.51,4,6
19082.14,0.356,0.468,0.846,3.88,9.03,4.24,4,6
19082.156,0.355,0.463,0.841,4.76,6.1,4.7,4,6
19082.156,0.355,0.465,0.831,5.86,3.39,5.55,4,6
19082.171,0.36,0.463,0.808,7.05,1.5,6.01,4,6
19082.171,0.371,0.46,0.782,6.47,0.7,5.19,4,6
19082.187,0.379,0.449,0.766,2.75,0.67,3.54,4,6
19082.203,0.389,0.436,0.76,-1.37,0.89,1.77,4,6
19082.218,0.403,0.426,0.761,-3.02,2.01,0.37,4,6
19082.218,0.422,0.434,0.763,-2.32,5.04,-1.77,4,6
19082.234,0.398,0.432,0.778,-1.04,9.46,-3.97,4,6
19082.234,0.384,0.446,0.811,0.76,10.77,-4.88,4,6
19082.25,0.362,0.476,0.842,2.35,10.16,-4.12,4,6
19082.265,0.341,0.485,0.856,1.62,7.08,-2.99,4,6
19082.265,0.336,0.48,0.85,0.15,2.5,-2.47,4,6
19082.281,0.348,0.466,0.825,-0.43,-1.31,-2.14,4,6
19082.281,0.36,0.453,0.798,-0.27,-2.66,-2.53,4,6
19082.296,0.365,0.447,0.781,-0.27,-2.08,-2.99,4,6
19082.312,0.371,0.452,0.785,-0.49,-1.04,-3.42,4,6
19082.312,0.373,0.455,0.796,-0.55,0.03,-3.72,4,6
19082.328,0.382,0.46,0.808,-0.27,0.31,-4.24,4,6
19082.343,0.377,0.464,0.808,0.49,1.04,-5.4,4,6
19082.343,0.359,0.448,0.805,0.49,0.64,-6.1,4,6
19082.359,0.368,0.446,0.806,0.7,-0.79,-6.62,4,6
19082.375,0.371,0.454,0.802,1.43,-0.89,-6.9,4,6
19082.375,0.367,0.459,0.808,1.65,-1.1,-7.05,4,6
19082.39,0.36,0.459,0.813,2.44,-1.4,-6.81,4,6
19082.39,0.355,0.465,0.813,3.17,-2.29,-6.44,4,6
19082.406,0.355,0.47,0.808,3.57,-3.27,-5.77,4,6
19082.421,0.355,0.473,0.8,3.23,-4.03,-5.1,4,6
19082.437,0.355,0.473,0.795,2.9,-4.09,-4.52,4,6
19082.437,0.355,0.479,0.787,1.98,-4.09,-4.15,4,6
19082.453,0.355,0.477,0.791,0.67,-3.75,-3.23,4,6
19082.453,0.365,0.481,0.792,0.27,-3.39,-2.5,4,6
19082.468,0.358,0.478,0.794,0.06,-3.08,-1.86,4,6
19082.484,0.359,0.478,0.804,0.15,-3.17,-0.98,4,6
19082.484,0.358,0.484,0.804,0.98,-3.27,-0.09,4,6
19082.5,0.358,0.481,0.8,0.61,-4.03,1.71,4,6
19082.515,0.359,0.472,0.797,0.52,-4.33,2.53,4,6
19082.515,0.361,0.476,0.796,0.06,-4.64,3.39,4,6
19082.531,0.364,0.475,0.796,-0.61,-5.04,3.6,4,6
19082.531,0.369,0.471,0.791,-1.22,-5.28,4.12,4,6
19082.546,0.368,0.472,0.794,-1.89,-5.28,4.55,4,6
19082.562,0.364,0.47,0.8,-2.32,-5.52,5.07,4,6
19082.562,0.364,0.475,0.806,-2.53,-6.16,5.77,4,6
19082.578,0.362,0.476,0.804,-2.69,-6.93,6.74,4,6
19082.593,0.356,0.474,0.809,-4.61,-8.18,7.29,4,6
19082.593,0.369,0.464,0.82,-6.59,-10.32,7.29,4,6
19082.609,0.376,0.469,0.811,-5.16,-11.47,8.24,4,6
19082.625,0.377,0.466,0.794,-4.36,-12.24,8.33,4,6
19082.625,0.38,0.459,0.795,-5.16,-12.6,8.33,4,6
19082.64,0.39,0.451,0.79,-5.4,-12.85,8.42,4,6
19082.656,0.398,0.439,0.773,-4.79,-11.78,7.87,4,6
19082.656,0.411,0.432,0.757,-4.24,-9.92,6.9,4,6
19082.671,0.415,0.423,0.747,-3.69,-6.84,5.37,4,6
19082.671,0.425,0.415,0.735,-3.91,-3.66,3.33,4,6
19082.687,0.424,0.409,0.729,-4.88,-0.15,0.67,4,6
19082.703,0.423,0.407,0.735,-5.83,3.14,-1.83,4,6
19082.703,0.442,0.431,0.753,-5.31,6.56,-4.64,4,6
19082.718,0.418,0.438,0.768,-4.06,11.35,-7.32,4,6
19082.734,0.397,0.438,0.784,-3.54,13.67,-8.33,4,6
19082.734,0.393,0.443,0.794,-2.93,13.98,-8.64,4,6
19082.75,0.393,0.445,0.79,-2.75,14.34,-8.94,4,6
19082.765,0.396,0.435,0.784,-3.11,15.5,-9.92,4,6
19082.781,0.37,0.418,0.767,-2.41,20.63,-14.01,4,6
19082.781,0.353,0.429,0.791,-5.74,19.5,-15.69,4,6
19082.796,0.361,0.425,0.807,-10.56,16.27,-17.61,4,6
19082.812,0.368,0.399,0.786,-13.67,14.22,-21.39,4,6
19082.828,0.386,0.381,0.774,-15.96,14.1,-25.54,4,6
19082.828,0.365,0.383,0.827,-14.47,16.97,-29.85,4,6
19082.843,0.34,0.429,0.924,-9.52,16.97,-30.58,4,6
19082.843,0.386,0.424,0.912,3.36,15.81,-27.95,4,6
19082.859,0.227,0.482,0.985,15.08,15.96,-26.76,4,6
19082.875,0.257,0.613,1.01,7.66,1.28,-19.62,4,6
19082.875,0.298,0.479,0.872,14.83,-9.0,-15.59,4,6
19082.89,0.314,0.48,0.763,14.8,-9.16,-14.1,4,6
19082.906,0.308,0.483,0.704,13.55,-4.91,-11.75,4,6
19082.906,0.317,0.505,0.709,10.13,-0.43,-8.48,4,6
19082.921,0.311,0.566,0.762,2.69,2.56,-5.49,4,6
19082.921,0.298,0.576,0.823,-4.7,2.5,-1.34,4,6
19082.937,0.308,0.568,0.866,-7.39,-0.34,3.75,4,6
19082.953,0.318,0.555,0.854,-4.67,-1.8,7.29,4,6
19082.953,0.278,0.5,0.829,-3.48,-2.56,11.2,4,6
19082.968,0.323,0.495,0.83,-4.3,-6.47,15.41,4,6
19082.984,0.32,0.495,0.817,-3.75,-6.87,17.03,4,6
19082.984,0.323,0.474,0.817,-5.55,-8.39,18.01,4,6
19083.0,0.33,0.453,0.824,-8.03,-10.5,18.1,4,6
19083.015,0.333,0.456,0.836,-8.3,-12.7,17.61,4,6
19083.015,0.333,0.457,0.844,-7.69,-14.83,17.82,4,6
19083.031,0.308,0.475,0.896,-8.61,-18.16,19.41,4,6
19083.046,0.365,0.506,0.846,-12.3,-25.48,22.74,4,6
19083.046,0.377,0.334,0.744,-1.28,-21.61,22.98,4,6
19083.062,0.348,0.438,0.788,-3.54,-18.22,22.71,4,6
19083.078,0.369,0.44,0.831,-7.08,-18.8,23.01,4,6
19083.078,0.357,0.386,0.837,-6.1,-19.1,20.75,4,6
19083.093,0.368,0.407,0.844,-1.65,-20.57,21.18,4,6
19083.093,0.384,0.393,0.828,1.62,-21.7,19.87,4,6
19083.109,0.393,0.389,0.808,3.78,-21.33,17.27,4,6
19083.125,0.415,0.392,0.789,5.25,-20.94,15.32,4,6
19083.125,0.441,0.397,0.77,6.53,-18.62,12.57,4,6
19083.14,0.45,0.399,0.744,6.68,-14.8,9.28,4,6
19083.14,0.451,0.394,0.727,5.68,-11.02,5.98,4,6
19083.156,0.455,0.397,0.727,5.52,-7.05,2.47,4,6
19083.171,0.439,0.404,0.728,6.41,-2.01,-0.95,4,6
19083.187,0.412,0.401,0.731,6.47,2.11,-3.23,4,6
19083.187,0.423,0.42,0.751,5.8,4.73,-4.73,4,6
19083.203,0.422,0.452,0.791,5.68,8.91,-7.29,4,6
19083.203,0.375,0.46,0.827,6.56,11.54,-8.51,4,6
19083.218,0.365,0.474,0.846,6.74,8.67,-5.95,4,6
19083.234,0.362,0.478,0.851,6.01,4.0,-3.11,4,6
19083.234,0.369,0.48,0.846,4.27,-0.73,-2.01,4,6
19083.25,0.374,0.468,0.817,2.32,-4.03,-1.86,4,6
19083.265,0.385,0.452,0.79,-0.55,-6.32,-1.8,4,6
19083.265,0.393,0.433,0.769,-3.2,-6.99,-2.04,4,6
19083.281,0.421,0.42,0.742,-3.23,-2.93,-3.3,4,6
19083.296,0.429,0.426,0.75,-2.69,1.04,-4.58,4,6
19083.312,0.421,0.439,0.783,-1.43,5.46,-5.62,4,6
19083.312,0.398,0.452,0.821,0.92,7.54,-5.25,4,6
19083.328,0.389,0.458,0.839,4.09,6.74,-3.51,4,6
19083.343,0.37,0.46,0.834,6.13,4.79,-2.04,4,6
19083.343,0.37,0.459,0.821,6.29,1.43,-1.8,4,6
19083.359,0.366,0.45,0.808,3.94,-1.16,-2.29,4,6
19083.375,0.368,0.438,0.794,1.4,-2.53,-3.63,4,6
19083.375,0.379,0.432,0.79,0.34,-2.53,-4.67,4,6
19083.39,0.402,0.445,0.801,0.79,-1.4,-5.74,4,6
19083.406,0.376,0.452,0.826,3.02,0.7,-6.62,4,6
19083.406,0.373,0.451,0.842,5.16,-1.28,-5.22,4,6
19083.421,0.361,0.457,0.842,6.84,-4.33,-4.46,4,6
19083.421,0.369,0.451,0.837,6.84,-7.84,-3.85,4,6
19083.437,0.376,0.452,0.813,6.01,-10.47,-4.21,4,6
19083.453,0.382,0.446,0.784,5.58,-11.6,-3.33,4,6
19083.468,0.397,0.454,0.769,5.86,-10.68,-2.93,4,6
19083.484,0.41,0.466,0.751,6.47,-8.97,-3.11,4,6
19083.484,0.409,0.468,0.739,4.15,-3.78,-3.94,4,6
19083.5,0.408,0.458,0.734,1.98,-1.59,-4.27,4,6
19083.515,0.417,0.464,0.731,0.89,1.34,-4.7,4,6
19083.515,0.414,0.465,0.748,0.09,4.0,-4.91,4,6
19083.531,0.408,0.473,0.771,0.03,6.41,-4.97,4,6
19083.546,0.387,0.483,0.803,0.64,7.57,-4.97,4,6
19083.546,0.373,0.486,0.819,1.34,6.23,-4.03,4,6
19083.562,0.366,0.48,0.819,1.1,3.72,-2.84,4,6
19083.562,0.362,0.466,0.811,0.24,1.46,-2.75,4,6
19083.578,0.37,0.454,0.796,-0.76,-0.18,-2.84,4,6
19083.593,0.376,0.454,0.793,-1.19,-0.79,-3.23,4,6
19083.593,0.38,0.453,0.792,-0.49,-0.55,-3.17,4,6
19083.609,0.384,0.455,0.787,0.58,-0.24,-3.2,4,6
19083.625,0.384,0.456,0.785,1.37,-0.06,-3.66,4,6
19083.625,0.384,0.46,0.788,1.62,0.09,-4.24,4,6
19083.64,0.379,0.467,0.799,2.04,0.06,-4.3,4,6
19083.64,0.378,0.477,0.802,2.56,-0.34,-4.0,4,6
19083.656,0.378,0.479,0.798,2.72,-1.31,-3.42,4,6
19083.671,0.378,0.472,0.787,2.47,-2.35,-2.84,4,6
19083.671,0.383,0.463,0.774,1.65,-2.84,-2.53,4,6
19083.687,0.396,0.461,0.76,0.7,-2.04,-2.47,4,6
19083.703,0.402,0.456,0.751,0.21,0.0,-2.84,4,6
19083.703,0.394,0.454,0.761,0.27,2.53,-3.36,4,6
19083.718,0.386,0.467,0.797,1.8,4.03,-3.78,4,6
19083.734,0.379,0.491,0.825,4.06,3.94,-3.27,4,6
19083.734,0.367,0.501,0.831,5.28,2.14,-2.2,4,6
19083.75,0.363,0.494,0.817,4.61,-1.07,-1.34,4,6
19083.765,0.369,0.485,0.79,2.75,-3.63,-1.5,4,6
19083.765,0.368,0.462,0.764,0.37,-4.61,-1.92,4,6
19083.781,0.385,0.451,0.755,-0.7,-4.39,-1.98,4,6
19083.781,0.391,0.464,0.759,0.37,-1.98,-2.14,4,6
19083.796,0.386,0.477,0.775,1.16,0.34,-1.71,4,6
19083.812,0.371,0.487,0.801,1.77,0.92,-1.34,4,6
19083.812,0.366,0.49,0.814,2.14,-0.24,-0.52,4,6
19083.828,0.364,0.488,0.809,1.71,-1.68,0.03,4,6
19083.843,0.371,0.475,0.794,0.52,-3.02,-0.18,4,6
19083.843,0.369,0.461,0.781,-0.73,-3.72,-0.61,4,6
19083.859,0.375,0.462,0.785,-0.98,-4.18,-0.46,4,6
19083.875,0.383,0.469,0.783,0.0,-4.21,-0.15,4,6
19083.875,0.385,0.473,0.784,0.52,-4.0,-0.24,4,6
19083.89,0.387,0.474,0.785,0.73,-3.91,-0.7,4,6
19083.906,0.386,0.471,0.781,0.95,-4.06,-1.25,4,6
19083.906,0.386,0.47,0.779,0.7,-4.06,-1.62,4,6
19083.921,0.382,0.477,0.791,0.79,-3.57,-1.74,4,6
19083.937,0.377,0.489,0.799,1.8,-3.39,-1.16,4,6
19083.937,0.376,0.494,0.795,2.5,-4.33,0.43,4,6
19083.953,0.378,0.489,0.787,2.44,-5.22,1.56,4,6
19083.953,0.376,0.48,0.778,1.86,-5.68,1.86,4,6
19083.968,0.381,0.472,0.769,1.19,-5.55,1.92,4,6
19083.984,0.388,0.465,0.761,0.4,-4.76,2.04,4,6
19084.0,0.397,0.457,0.756,-0.15,-3.39,1.83,4,6
19084.0,0.406,0.458,0.756,-0.12,-1.43,0.89,4,6
19084.015,0.404,0.459,0.76,0.43,0.92,-0.27,4,6
19084.015,0.397,0.46,0.775,0.76,2.41,-1.28,4,6
19084.031,0.39,0.478,0.797,1.89,2.81,-1.37,4,6
19084.046,0.388,0.491,0.807,3.23,1.95,-0.82,4,6
19084.046,0.379,0.501,0.816,3.48,0.27,-0.03,4,6
19084.062,0.373,0.498,0.811,3.85,-1.92,0.76,4,6
19084.078,0.37,0.49,0.793,3.85,-3.72,1.4,4,6
19084.078,0.371,0.479,0.773,2.99,-4.79,1.34,4,6
19084.093,0.372,0.466,0.759,1.5,-4.94,1.46,4,6
19084.093,0.391,0.465,0.754,0.52,-4.33,1.8,4,6
19084.109,0.401,0.466,0.752,0.4,-2.53,1.43,4,6
19084.125,0.403,0.467,0.754,0.03,-0.46,0.55,4,6
19084.125,0.4,0.468,0.768,-0.15,1.1,-0.27,4,6
19084.14,0.395,0.473,0.781,0.03,1.53,-0.7,4,6
19084.156,0.389,0.479,0.795,0.49,1.07,-0.76,4,6
19084.156,0.384,0.48,0.802,0.92,0.03,-0.82,4,6
19084.171,0.382,0.476,0.792,1.1,-1.19,-1.22,4,6
19084.171,0.384,0.467,0.779,0.73,-2.26,-2.17,4,6
19084.187,0.385,0.469,0.776,0.09,-2.5,-3.17,4,6
19084.203,0.386,0.477,0.777,-0.15,-2.14,-3.57,4,6
19084.203,0.387,0.48,0.778,0.37,-1.8,-3.42,4,6
19084.218,0.387,0.479,0.773,1.16,-1.43,-3.11,4,6
19084.234,0.386,0.482,0.768,1.46,-0.98,-3.08,4,6
19084.234,0.388,0.487,0.772,0.95,-0.55,-3.2,4,6
19084.25,0.387,0.49,0.779,0.76,-0.24,-3.02,4,6
19084.265,0.376,0.49,0.788,1.19,-0.37,-2.44,4,6
19084.265,0.38,0.492,0.792,1.8,-1.07,-1.34,4,6
19084.281,0.375,0.495,0.786,2.01,-1.5,-0.4,4,6
19084.296,0.377,0.495,0.781,1.4,-2.14,0.24,4,6
19084.296,0.38,0.492,0.775,0.21,-2.41,0.76,4,6
19084.312,0.382,0.485,0.765,-0.67,-2.35,1.5,4,6
19084.312,0.388,0.478,0.759,-1.34,-2.04,1.92,4,6
19084.328,0.401,0.478,0.758,-1.77,-1.28,1.98,4,6
19084.343,0.401,0.473,0.755,-1.95,0.18,1.71,4,6
19084.343,0.4,0.472,0.75,-2.23,1.4,1.53,4,6
19084.359,0.403,0.465,0.748,-2.41,2.75,1.19,4,6
19084.375,0.413,0.475,0.754,-2.56,4.46,0.37,4,6
19084.375,0.402,0.476,0.755,-2.5,7.69,-0.92,4,6
19084.39,0.398,0.466,0.754,-2.47,10.41,-1.71,4,6
19084.39,0.395,0.472,0.744,-1.5,13.03,-2.26,4,6
19084.406,0.386,0.472,0.74,-1.37,15.2,-3.05,4,6
19084.421,0.386,0.472,0.752,-3.36,16.94,-3.97,4,6
19084.437,0.38,0.474,0.782,-6.16,17.91,-5.62,4,6
19084.437,0.383,0.488,0.814,-10.35,17.52,-8.12,4,6
19084.453,0.352,0.436,0.807,-13.12,16.48,-11.08,4,6
19084.453,0.375,0.407,0.802,-13.31,12.94,-12.88,4,6
19084.468,0.384,0.407,0.776,-11.17,14.37,-21.61,4,6
19084.484,0.387,0.403,0.749,-14.28,17.58,-29.36,4,6
19084.484,0.453,0.356,0.683,-12.42,28.99,-40.77,4,6
19084.5,0.358,0.305,0.723,-29.08,23.32,-44.71,4,6
19084.515,0.333,0.44,0.973,-25.15,13.61,-45.41,4,6
19084.515,0.275,0.512,1.088,-11.87,4.91,-42.76,4,6
19084.531,0.277,0.564,1.06,12.27,-5.86,-30.58,4,6
19084.546,0.274,0.533,0.908,35.16,-10.35,-19.23,4,6
19084.546,0.259,0.501,0.789,42.7,-10.07,-14.56,4,6
19084.562,0.252,0.489,0.724,39.19,-9.64,-13.34,4,6
19084.578,0.269,0.539,0.707,33.02,-9.86,-11.44,4,6
19084.578,0.3,0.593,0.735,26.03,-8.85,-7.23,4,6
19084.593,0.309,0.622,0.767,20.63,-6.01,-2.08,4,6
19084.593,0.289,0.614,0.785,17.52,-4.09,3.48,4,6
19084.609,0.282,0.601,0.79,13.89,-5.68,9.0,4,6
19084.625,0.285,0.582,0.793,8.58,-8.51,13.58,4,6
19084.625,0.293,0.568,0.809,2.44,-11.84,17.64,4,6
19084.64,0.307,0.542,0.821,-0.76,-14.86,21.58,4,6
19084.656,0.3,0.515,0.838,-0.89,-17.27,25.24,4,6
19084.656,0.304,0.564,0.833,-4.76,-23.44,28.63,4,6
19084.671,0.401,0.399,0.714,1.01,-24.29,29.6,4,6
19084.687,0.355,0.465,0.719,-2.32,-18.71,25.64,4,6
19084.687,0.406,0.444,0.775,-14.34,-20.05,19.65,4,6
19084.703,0.397,0.381,0.757,-5.95,-17.67,14.1,4,6
19084.718,0.428,0.454,0.728,4.06,-14.77,14.5,4,6
19084.718,0.453,0.465,0.713,7.63,-9.92,10.9,4,6
19084.734,0.416,0.474,0.724,9.89,-3.48,6.62,4,6
19084.734,0.408,0.49,0.721,10.1,-1.37,4.64,4,6
19084.75,0.413,0.499,0.714,7.6,0.06,2.99,4,6
19084.765,0.394,0.504,0.736,3.97,2.2,0.37,4,6
19084.765,0.363,0.511,0.784,1.71,2.41,-1.31,4,6
19084.781,0.363,0.536,0.81,0.79,0.52,-0.95,4,6
19084.781,0.346,0.544,0.827,-1.46,-1.92,0.24,4,6
19084.796,0.326,0.533,0.845,-5.01,-6.35,1.5,4,6
19084.812,0.335,0.52,0.839,-6.62,-11.81,3.48,4,6
19084.812,0.344,0.505,0.811,-6.84,-15.23,5.01,4,6
19084.828,0.345,0.465,0.777,-6.93,-17.24,6.1,4,6
19084.843,0.375,0.45,0.755,-5.65,-17.79,5.8,4,6
19084.843,0.394,0.442,0.732,-2.84,-14.74,3.81,4,6
19084.859,0.41,0.434,0.714,-1.07,-10.25,1.1,4,6
19084.875,0.422,0.434,0.704,0.49,-5.25,-1.83,4,6
19084.875,0.43,0.45,0.716,1.98,-0.15,-4.82,4,6
19084.89,0.424,0.474,0.745,3.75,3.94,-7.6,4,6
19084.906,0.403,0.502,0.793,6.1,5.95,-8.55,4,6
19084.906,0.38,0.537,0.837,9.58,4.79,-7.02,4,6
19084.921,0.361,0.551,0.835,11.78,0.43,-4.12,4,6
19084.921,0.353,0.545,0.808,9.74,-5.52,-1.95,4,6
19084.937,0.366,0.519,0.779,4.73,-10.47,-1.8,4,6
19084.953,0.379,0.496,0.747,0.64,-12.33,-2.17,4,6
19084.953,0.391,0.475,0.726,-1.28,-11.26,-2.26,4,6
19084.968,0.406,0.462,0.708,-1.13,-7.9,-2.99,4,6
19084.984,0.415,0.458,0.699,0.27,-3.02,-4.85,4,6
19084.984,0.416,0.468,0.711,1.5,2.08,-7.14,4,6
19085.0,0.4,0.487,0.747,2.69,6.44,-9.16,4,6
19085.015,0.384,0.506,0.792,4.61,7.87,-9.58,4,6
19085.015,0.368,0.522,0.829,7.26,6.26,-8.73,4,6
19085.031,0.351,0.533,0.844,9.92,2.26,-7.66,4,6
19085.046,0.338,0.53,0.836,11.35,-2.69,-6.59,4,6
19085.046,0.341,0.521,0.814,10.68,-7.84,-5.77,4,6
19085.062,0.35,0.504,0.784,8.85,-12.15,-5.34,4,6
19085.062,0.373,0.495,0.754,7.6,-14.53,-5.49,4,6
19085.078,0.394,0.491,0.737,7.23,-13.89,-6.5,4,6
19085.093,0.398,0.49,0.728,8.27,-11.41,-8.03,4,6
19085.109,0.397,0.497,0.733,10.68,-8.82,-8.76,4,6
19085.109,0.398,0.515,0.748,13.25,-6.78,-8.7,4,6
19085.125,0.406,0.537,0.768,14.5,-6.1,-7.81,4,6
19085.125,0.389,0.537,0.785,15.32,-6.38,-7.45,4,6
19085.14,0.376,0.523,0.801,16.69,-8.85,-6.44,4,6
19085.156,0.367,0.515,0.81,19.1,-12.79,-5.4,4,6
19085.156,0.375,0.507,0.813,22.58,-17.3,-5.1,4,6
19085.171,0.381,0.497,0.808,25.42,-21.94,-6.38,4,6
19085.171,0.385,0.482,0.798,27.86,-26.83,-9.52,4,6
19085.187,0.394,0.467,0.785,30.4,-31.8,-13.25,4,6
19085.203,0.424,0.454,0.763,33.48,-36.23,-17.58,4,6
19085.203,0.45,0.44,0.735,36.71,-37.87,-23.68,4,6
19085.218,0.458,0.404,0.721,40.77,-36.26,-30.37,4,6
19085.234,0.481,0.365,0.707,47.49,-32.38,-37.29,4,6
19085.234,0.492,0.35,0.715,57.56,-28.84,-47.79,4,6
19085.25,0.467,0.349,0.728,70.35,-25.06,-59.94,4,6
19085.265,0.43,0.367,0.743,82.43,-23.65,-71.96,4,6
19085.265,0.392,0.399,0.759,93.3,-24.99,-83.68,4,6
19085.281,0.355,0.47,0.771,102.24,-28.44,-93.91,4,6
19085.296,0.314,0.556,0.786,108.8,-34.64,-102.15,4,6
19085.296,0.273,0.633,0.792,113.38,-43.43,-107.73,4,6
19085.312,0.211,0.703,0.785,116.61,-53.99,-110.66,4,6
19085.312,0.212,0.77,0.759,117.16,-69.73,-107.91,4,6
19085.328,0.303,0.903,0.722,117.77,-79.87,-106.57,4,6
19085.343,0.338,1.037,0.701,115.21,-82.64,-106.88,4,6
19085.343,0.43,1.198,0.735,104.25,-84.75,-105.08,4,6
19085.359,0.547,1.418,0.798,91.74,-82.34,-106.66,4,6
19085.375,0.523,1.545,0.822,89.54,-79.04,-105.66,4,6
19085.375,0.442,1.627,0.819,94.49,-78.77,-100.19,4,6
19085.39,0.403,1.619,0.775,96.04,-84.11,-79.41,4,6
19085.406,0.418,1.638,0.707,90.3,-93.11,-52.1,4,6
19085.406,0.48,1.621,0.613,77.82,-100.5,-24.41,4,6
19085.421,0.533,1.535,0.528,61.4,-103.34,0.89,4,6
19085.421,0.57,1.432,0.477,45.41,-102.33,22.16,4,6
19085.437,0.608,1.324,0.443,35.31,-98.97,39.83,4,6
19085.453,0.648,1.236,0.431,31.5,-94.94,53.04,4,6
19085.453,0.682,1.198,0.436,40.35,-87.22,60.37,4,6
19085.468,0.669,1.137,0.457,48.59,-87.37,62.26,4,6
19085.484,0.656,1.079,0.475,60.12,-92.32,65.28,4,6
19085.5,0.722,0.986,0.419,74.34,-97.84,69.46,4,6
19085.5,0.742,0.94,0.372,86.83,-99.98,71.44,4,6
19085.515,0.761,0.822,0.311,96.9,-99.8,77.55,4,6
19085.515,0.847,0.782,0.249,110.35,-97.69,83.07,4,6
19085.531,0.906,0.801,0.195,129.61,-91.65,81.79,4,6
19085.546,0.923,0.81,0.141,145.45,-81.45,76.78,4,6
19085.546,0.89,0.781,0.119,152.56,-73.21,70.44,4,6
19085.562,0.862,0.76,0.102,155.16,-69.19,62.78,4,6
19085.562,0.808,0.78,0.071,153.87,-69.86,54.81,4,6
19085.578,0.772,0.791,0.061,147.83,-74.28,48.34,4,6
19085.593,0.718,0.772,0.059,142.83,-82.31,40.77,4,6
19085.609,0.676,0.729,0.047,142.83,-92.44,34.15,4,6
19085.609,0.677,0.717,-0.009,149.51,-100.89,26.83,4,6
19085.625,0.642,0.679,-0.085,158.36,-106.91,19.65,4,6
19085.625,0.61,0.631,-0.147,165.56,-110.6,13.34,4,6
19085.64,0.564,0.615,-0.235,170.32,-112.92,6.47,4,6
19085.656,0.516,0.635,-0.312,166.36,-113.62,0.31,4,6
19085.656,0.477,0.652,-0.329,153.81,-111.85,-3.42,4,6
19085.671,0.451,0.67,-0.328,140.6,-111.48,-8.03,4,6
19085.671,0.362,0.655,-0.313,131.47,-110.93,-13.55,4,6
19085.687,0.285,0.628,-0.31,127.41,-114.05,-15.47,4,6
19085.703,0.202,0.61,-0.334,126.07,-120.12,-14.56,4,6
19085.703,0.259,0.59,-0.383,120.91,-126.77,-10.77,4,6
19085.718,0.198,0.548,-0.455,109.2,-129.52,-10.77,4,6
19085.734,0.254,0.466,-0.541,90.03,-131.93,-7.87,4,6
19085.734,0.257,0.46,-0.642,68.33,-127.41,-11.75,4,6
19085.75,0.225,0.387,-0.709,43.21,-118.2,-22.95,4,6
19085.765,0.247,0.311,-0.761,19.71,-106.2,-36.62,4,6
19085.765,0.311,0.296,-0.782,2.26,-90.46,-54.26,4,6
19085.781,0.345,0.3,-0.748,-8.39,-69.31,-76.24,4,6
19085.796,0.323,0.324,-0.699,-14.44,-44.5,-97.84,4,6
19085.796,0.337,0.403,-0.63,-20.42,-22.1,-116.31,4,6
19085.812,0.334,0.501,-0.534,-27.01,-1.92,-131.44,4,6
19085.812,0.341,0.584,-0.411,-36.44,12.18,-143.74,4,6
19085.828,0.34,0.69,-0.289,-50.08,16.14,-153.84,4,6
19085.843,0.297,0.781,-0.182,-67.75,14.95,-159.49,4,6
19085.843,0.322,0.846,-0.073,-86.79,9.22,-163.0,4,6
19085.859,0.275,0.983,0.027,-99.89,3.54,-167.06,4,6
19085.875,0.167,1.072,0.143,-105.69,-5.86,-166.45,4,6
19085.875,0.108,1.139,0.207,-105.08,-19.29,-161.57,4,6
19085.89,0.032,1.25,0.187,-102.27,-33.11,-155.43,4,6
19085.906,-0.037,1.328,0.162,-101.47,-45.32,-143.41,4,6
19085.906,-0.089,1.393,0.125,-101.78,-54.48,-122.5,4,6
19085.921,-0.202,1.419,0.128,-99.8,-60.7,-92.07,4,6
19085.937,-0.256,1.371,0.102,-94.58,-67.96,-52.49,4,6
19085.937,-0.239,1.352,0.045,-94.42,-73.18,-10.74,4,6
19085.953,-0.19,1.33,-0.008,-98.51,-71.5,27.95,4,6
19085.953,-0.125,1.273,-0.054,-102.57,-65.37,55.33,4,6
19085.968,-0.089,1.175,-0.06,-105.01,-55.6,72.73,4,6
19085.984,-0.077,1.051,-0.023,-100.41,-45.26,82.92,4,6
19085.984,-0.077,0.934,0.034,-84.75,-36.13,87.59,4,6
19086.0,-0.125,0.849,0.074,-62.17,-31.74,90.64,4,6
19086.015,-0.199,0.781,0.098,-41.14,-36.07,93.78,4,6
19086.031,-0.247,0.69,0.073,-29.02,-48.49,96.62,4,6
19086.031,-0.233,0.607,-0.005,-28.5,-64.52,99.37,4,6
19086.046,-0.19,0.538,-0.109,-31.86,-78.1,100.22,4,6
19086.046,-0.089,0.481,-0.221,-35.37,-82.89,99.67,4,6
19086.062,0.034,0.473,-0.321,-39.98,-77.76,95.68,4,6
19086.062,0.109,0.502,-0.385,-46.3,-62.96,88.05,4,6
19086.078,0.171,0.534,-0.407,-55.54,-43.03,80.2,4,6
19086.093,0.185,0.583,-0.383,-65.98,-23.71,72.51,4,6
19086.093,0.206,0.6,-0.33,-71.93,-7.54,66.1,4,6
19086.109,0.216,0.637,-0.272,-72.36,7.29,61.49,4,6
19086.125,0.19,0.667,-0.199,-70.04,19.96,57.95,4,6
19086.125,0.227,0.674,-0.135,-67.6,28.81,56.52,4,6
19086.14,0.245,0.703,-0.085,-67.17,36.01,54.6,4,6
19086.156,0.24,0.708,-0.042,-68.7,41.72,55.21,4,6
19086.156,0.286,0.73,0.017,-72.76,44.16,58.14,4,6
19086.171,0.314,0.729,0.054,-76.66,44.62,61.07,4,6
19086.187,0.316,0.698,0.078,-80.11,42.18,63.17,4,6
19086.187,0.332,0.679,0.099,-82.06,37.35,63.54,4,6
19086.203,0.316,0.672,0.127,-81.64,29.69,60.06,4,6
19086.203,0.334,0.655,0.154,-80.02,19.87,54.99,4,6
19086.218,0.335,0.652,0.172,-73.58,10.71,46.33,4,6
19086.234,0.34,0.636,0.173,-59.21,2.99,34.21,4,6
19086.234,0.341,0.634,0.169,-41.9,-3.39,24.23,4,6
19086.25,0.379,0.652,0.144,-23.47,-9.19,15.41,4,6
19086.265,0.428,0.691,0.109,-6.5,-11.75,5.65,4,6
19086.265,0.439,0.74,0.068,5.43,-10.35,-4.52,4,6
19086.281,0.418,0.781,0.05,11.08,-7.6,-14.56,4,6
19086.281,0.403,0.805,0.049,12.12,-5.86,-21.45,4,6
19086.296,0.394,0.848,0.056,11.23,-3.81,-24.57,4,6
19086.312,0.363,0.869,0.071,6.9,-2.66,-23.59,4,6
19086.328,0.347,0.865,0.086,1.07,-3.85,-19.26,4,6
19086.328,0.343,0.855,0.084,-3.2,-6.93,-13.79,4,6
19086.343,0.347,0.848,0.07,-4.82,-10.77,-8.7,4,6
19086.343,0.365,0.831,0.042,-4.03,-13.55,-5.01,4,6
19086.359,0.41,0.803,0.004,-1.83,-14.28,-2.47,4,6
19086.375,0.446,0.789,-0.037,0.52,-11.54,-1.25,4,6
19086.375,0.473,0.796,-0.072,1.31,-7.08,-1.89,4,6
19086.39,0.495,0.805,-0.077,-0.49,-1.98,-4.64,4,6
19086.39,0.497,0.818,-0.054,-3.08,3.66,-8.61,4,6
19086.406,0.479,0.847,-0.012,-3.6,8.67,-11.87,4,6
19086.421,0.454,0.887,0.042,-2.93,11.11,-13.12,4,6
19086.421,0.44,0.923,0.089,-2.93,9.16,-13.21,4,6
19086.437,0.402,0.951,0.12,-3.78,-3.33,-5.46,4,6
19086.453,0.395,0.952,0.124,-6.38,-9.55,0.85,4,6
19086.453,0.414,0.942,0.103,-9.64,-12.45,5.25,4,6
19086.468,0.429,0.925,0.073,-11.78,-12.82,6.56,4,6
19086.484,0.451,0.88,0.03,-12.12,-11.29,6.35,4,6
19086.484,0.454,0.865,0.03,-10.16,-8.39,4.79,4,6
19086.5,0.432,0.855,0.038,-5.19,-4.85,1.86,4,6
19086.515,0.401,0.848,0.051,0.52,-2.47,-0.92,4,6
19086.515,0.368,0.86,0.069,4.55,-2.29,-3.66,4,6
19086.531,0.329,0.865,0.076,7.84,-5.22,-5.62,4,6
19086.531,0.309,0.891,0.079,9.31,-9.7,-5.77,4,6
19086.546,0.328,0.906,0.062,6.71,-15.29,-4.12,4,6
19086.562,0.348,0.91,0.027,1.62,-18.68,-2.17,4,6
19086.578,0.364,0.896,-0.007,-3.66,-17.76,0.03,4,6
19086.578,0.376,0.891,-0.038,-8.09,-14.1,2.5,4,6
19086.593,0.384,0.887,-0.056,-11.02,-8.91,4.24,4,6
19086.593,0.39,0.871,-0.055,-12.73,-2.59,4.76,4,6
19086.609,0.383,0.868,-0.03,-12.63,4.15,3.2,4,6
19086.625,0.373,0.867,0.005,-10.35,9.4,0.79,4,6
19086.625,0.371,0.87,0.048,-6.99,11.75,-1.22,4,6
19086.64,0.378,0.881,0.08,-3.42,10.74,-3.27,4,6
19086.64,0.39,0.896,0.095,-0.09,7.32,-5.25,4,6
19086.656,0.42,0.915,0.104,1.04,2.93,-6.29,4,6
19086.671,0.437,0.931,0.101,0.0,-0.06,-6.26,4,6
19086.671,0.454,0.939,0.095,-1.28,-1.16,-5.43,4,6
19086.687,0.443,0.947,0.096,-2.14,-0.55,-4.36,4,6
19086.703,0.415,0.948,0.106,-2.38,-0.4,-3.45,4,6
19086.718,0.401,0.941,0.111,-0.82,-1.77,-2.96,4,6
19086.718,0.38,0.939,0.109,2.84,-3.85,-3.27,4,6
19086.734,0.384,0.944,0.102,6.1,-6.32,-3.54,4,6
19086.75,0.387,0.955,0.09,8.3,-7.32,-4.61,4,6
19086.765,0.379,0.956,0.086,8.48,-7.17,-4.85,4,6
19086.781,0.389,0.953,0.089,8.06,-7.2,-4.3,4,6
19086.796,0.368,0.957,0.089,8.94,-4.24,-3.51,4,6
19086.812,0.359,0.976,0.098,8.76,0.4,-3.6,4,6
19086.828,0.361,1.017,0.1,7.54,3.23,-5.71,4,6
19086.828,0.377,1.05,0.086,8.27,4.24,-9.64,4,6
19086.828,0.401,1.083,0.059,14.62,5.49,-12.91,4,6
19086.828,0.42,1.155,0.054,28.87,8.18,-13.86,4,6
19086.843,0.429,1.207,0.029,50.02,12.12,-13.03,4,6
19086.843,0.441,1.243,0.01,71.38,17.0,-9.09,4,6
19086.843,0.481,1.269,-0.006,89.14,25.03,-1.65,4,6
19086.859,0.509,1.29,-0.013,102.24,36.1,7.29,4,6
19086.875,0.536,1.299,-0.018,107.64,49.65,16.82,4,6
19086.875,0.544,1.295,-0.004,103.0,63.51,25.03,4,6
19086.89,0.526,1.269,0.035,90.18,72.88,31.95,4,6
19086.906,0.513,1.227,0.09,71.9,72.73,35.31,4,6
19086.906,0.513,1.174,0.134,55.24,64.7,32.59,4,6
19086.921,0.521,1.116,0.186,46.94,53.29,26.34,4,6
19086.921,0.526,1.06,0.216,50.29,39.03,18.43,4,6
19086.937,0.563,1.025,0.2,60.49,24.66,11.51,4,6
19086.953,0.616,1.0,0.185,69.67,15.32,7.81,4,6
19086.953,0.596,0.968,0.167,75.41,9.67,5.92,4,6
19086.968,0.558,0.968,0.127,72.97,1.1,6.16,4,6
19086.984,0.543,1.001,0.085,62.32,-10.8,6.44,4,6
19086.984,0.543,1.011,0.056,48.89,-23.07,7.54,4,6
19087.0,0.551,1.011,0.005,36.26,-34.7,10.47,4,6
19087.015,0.57,0.989,-0.037,25.3,-44.19,16.94,4,6
19087.015,0.601,0.888,-0.074,18.77,-49.07,24.11,4,6
19087.031,0.618,0.775,-0.117,16.54,-48.59,31.8,4,6
19087.046,0.595,0.731,-0.181,9.95,-44.74,39.37,4,6
19087.046,0.577,0.718,-0.258,-5.19,-39.43,40.28,4,6
19087.062,0.59,0.686,-0.287,-25.03,-32.29,36.74,4,6
19087.062,0.59,0.654,-0.304,-41.41,-21.3,30.85,4,6
19087.078,0.568,0.637,-0.349,-54.69,-3.08,26.64,4,6
19087.093,0.564,0.603,-0.309,-65.46,19.93,31.83,4,6
19087.093,0.595,0.57,-0.217,-69.73,40.68,45.26,4,6
19087.109,0.642,0.55,-0.145,-63.26,59.24,50.54,4,6
19087.125,0.645,0.54,-0.079,-49.35,79.29,43.55,4,6
19087.125,0.579,0.571,0.036,-29.21,97.69,26.25,4,6
19087.14,0.43,0.608,0.133,-7.05,104.68,2.69,4,6
19087.156,0.272,0.718,0.202,-4.21,87.77,-20.75,4,6
19087.156,0.248,0.8,0.189,-14.65,53.29,-36.29,4,6
19087.171,0.259,0.845,0.129,-26.12,20.91,-43.4,4,6
19087.171,0.271,0.87,0.088,-33.39,-2.17,-44.86,4,6
19087.187,0.274,0.885,0.057,-34.61,-21.64,-44.28,4,6
19087.203,0.255,0.894,-0.009,-25.97,-37.93,-43.31,4,6
19087.218,0.216,0.885,-0.091,-8.61,-51.82,-41.51,4,6
19087.218,0.186,0.893,-0.178,10.44,-67.57,-41.29,4,6
19087.234,0.185,0.949,-0.254,27.77,-83.25,-43.49,4,6
19087.234,0.204,0.978,-0.267,44.37,-94.67,-44.74,4,6
19087.25,0.226,0.955,-0.262,60.21,-100.28,-42.3,4,6
19087.265,0.24,0.935,-0.262,74.5,-99.89,-35.13,4,6
19087.265,0.22,0.908,-0.249,83.13,-95.98,-25.03,4,6
19087.281,0.183,0.867,-0.237,82.16,-93.72,-16.21,4,6
19087.296,0.159,0.824,-0.261,66.59,-96.19,-8.97,4,6
19087.296,0.187,0.786,-0.271,39.89,-101.05,-1.71,4,6
19087.312,0.229,0.75,-0.317,16.45,-102.45,4.09,4,6
19087.312,0.278,0.714,-0.349,2.38,-97.66,8.61,4,6
19087.328,0.293,0.693,-0.381,-1.5,-86.4,13.25,4,6
19087.343,0.288,0.7,-0.385,-4.24,-73.31,16.75,4,6
19087.343,0.297,0.701,-0.374,-7.75,-62.5,18.31,4,6
19087.359,0.305,0.693,-0.359,-10.9,-52.43,18.4,4,6
19087.375,0.298,0.687,-0.311,-13.49,-43.12,17.98,4,6
19087.375,0.315,0.677,-0.249,-12.97,-35.28,19.38,4,6
19087.39,0.331,0.666,-0.199,-5.89,-27.71,21.3,4,6
19087.406,0.367,0.655,-0.187,6.44,-20.84,22.61,4,6
19087.406,0.411,0.665,-0.203,19.53,-13.43,21.12,4,6
19087.421,0.407,0.687,-0.191,33.39,-1.1,5.92,4,6
19087.437,0.373,0.705,-0.166,32.47,-2.75,-3.27,4,6
19087.437,0.369,0.723,-0.145,25.36,-5.89,-11.41,4,6
19087.453,0.356,0.76,-0.118,17.09,-11.14,-17.15,4,6
19087.453,0.296,0.773,-0.113,12.63,-18.95,-19.44,4,6
19087.468,0.306,0.791,-0.122,8.94,-26.7,-19.14,4,6
19087.484,0.319,0.807,-0.145,7.51,-31.92,-17.79,4,6
19087.484,0.326,0.814,-0.171,7.23,-34.49,-17.21,4,6
19087.5,0.34,0.838,-0.181,6.41,-35.68,-16.39,4,6
19087.515,0.345,0.868,-0.176,6.38,-36.9,-15.96,4,6
19087.515,0.329,0.868,-0.187,8.94,-39.0,-16.75,4,6
19087.531,0.32,0.863,-0.206,10.77,-42.6,-17.15,4,6
19087.546,0.333,0.864,-0.228,11.72,-46.51,-17.43,4,6
19087.546,0.346,0.855,-0.266,11.96,-47.94,-18.19,4,6
19087.562,0.35,0.858,-0.303,10.13,-46.66,-20.11,4,6
19087.562,0.385,0.879,-0.341,6.96,-44.07,-23.1,4,6
19087.578,0.412,0.903,-0.368,4.94,-38.73,-27.47,4,6
19087.593,0.415,0.92,-0.368,6.78,-31.8,-32.32,4,6
19087.609,0.395,0.941,-0.365,12.91,-24.23,-36.32,4,6
19087.609,0.381,0.955,-0.385,21.0,-17.27,-38.58,4,6
19087.625,0.371,0.964,-0.415,27.89,-8.85,-39.25,4,6
19087.625,0.375,0.983,-0.434,31.25,1.89,-38.3,4,6
19087.64,0.361,1.01,-0.427,30.67,13.34,-36.62,4,6
19087.656,0.334,1.03,-0.407,26.86,22.71,-33.91,4,6
19087.656,0.313,1.053,-0.377,18.89,28.5,-29.66,4,6
19087.671,0.296,1.062,-0.336,10.86,31.59,-24.23,4,6
19087.671,0.284,1.053,-0.319,5.95,32.11,-17.82,4,6
19087.687,0.292,1.04,-0.332,3.2,31.31,-10.74,4,6
19087.703,0.307,1.033,-0.339,2.01,32.44,-4.52,4,6
19087.703,0.294,1.027,-0.341,2.11,35.52,0.82,4,6
19087.718,0.289,1.007,-0.333,1.86,37.97,6.78,4,6
19087.734,0.296,1.0,-0.335,2.11,40.07,12.79,4,6
19087.734,0.305,0.99,-0.335,2.87,42.88,17.88,4,6
19087.75,0.321,0.984,-0.303,4.52,45.84,22.46,4,6
19087.765,0.306,0.995,-0.25,8.27,47.79,26.61,4,6
19087.765,0.295,0.999,-0.205,11.11,45.9,32.69,4,6
19087.781,0.297,0.992,-0.174,10.13,39.4,40.38,4,6
19087.796,0.323,0.987,-0.165,4.67,30.4,48.49,4,6
19087.796,0.352,0.969,-0.174,-4.88,20.6,54.51,4,6
19087.812,0.375,0.918,-0.202,-15.56,12.48,58.17,4,6
19087.812,0.407,0.856,-0.24,-23.59,8.33,60.06,4,6
19087.828,0.441,0.804,-0.272,-27.86,9.25,59.76,4,6
19087.843,0.46,0.762,-0.292,-29.76,13.95,56.76,4,6
19087.843,0.461,0.739,-0.258,-27.65,20.17,52.52,4,6
19087.859,0.438,0.725,-0.217,-21.27,24.84,48.89,4,6
19087.875,0.422,0.721,-0.183,-15.17,25.73,45.35,4,6
19087.875,0.415,0.728,-0.162,-12.7,23.13,41.08,4,6
19087.89,0.417,0.723,-0.15,-14.13,18.46,36.62,4,6
19087.906,0.433,0.716,-0.14,-16.14,12.91,31.83,4,6
19087.906,0.45,0.711,-0.129,-16.94,7.81,27.16,4,6
19087.921,0.455,0.712,-0.123,-15.87,3.23,22.83,4,6
19087.921,0.46,0.71,-0.141,-14.01,-0.31,18.59,4,6
19087.937,0.471,0.697,-0.178,-12.79,-2.17,14.44,4,6
19087.953,0.475,0.679,-0.209,-11.2,-2.11,9.89,4,6
19087.968,0.484,0.674,-0.224,-7.69,-0.64,5.34,4,6
19087.968,0.484,0.683,-0.233,-2.01,3.14,1.1,4,6
19087.984,0.479,0.708,-0.229,3.39,8.06,-1.77,4,6
19087.984,0.456,0.752,-0.188,7.14,12.02,-3.42,4,6
19088.0,0.424,0.778,-0.161,8.67,11.84,-3.94,4,6
19088.015,0.413,0.787,-0.156,5.46,7.97,-2.56,4,6
19088.015,0.413,0.79,-0.156,-0.37,4.09,-0.37,4,6
19088.031,0.415,0.782,-0.172,-7.02,0.79,1.71,4,6
19088.046,0.426,0.765,-0.197,-14.95,-1.1,4.21,4,6
19088.046,0.455,0.748,-0.214,-21.27,-0.4,6.23,4,6
19088.062,0.469,0.732,-0.229,-23.35,3.36,6.38,4,6
19088.062,0.467,0.72,-0.236,-22.49,8.61,4.97,4,6
19088.078,0.455,0.719,-0.227,-19.93,13.58,2.32,4,6
19088.093,0.435,0.733,-0.203,-16.33,17.33,-1.1,4,6
19088.093,0.417,0.75,-0.171,-12.09,17.98,-4.27,4,6
19088.109,0.402,0.77,-0.15,-7.93,15.93,-6.5,4,6
19088.125,0.398,0.785,-0.14,-5.83,11.84,-7.39,4,6
19088.125,0.412,0.801,-0.135,-5.86,7.51,-7.02,4,6
19088.14,0.423,0.801,-0.143,-7.11,4.39,-6.16,4,6
19088.156,0.437,0.794,-0.161,-9.03,3.27,-5.71,4,6
19088.156,0.435,0.792,-0.175,-10.53,3.78,-6.74,4,6
19088.171,0.422,0.776,-0.183,-10.93,5.04,-8.42,4,6
19088.171,0.426,0.765,-0.191,-10.99,6.2,-10.28,4,6
19088.187,0.43,0.777,-0.182,-9.7,8.3,-13.06,4,6
19088.203,0.44,0.801,-0.165,-6.96,9.7,-15.78,4,6
19088.218,0.432,0.826,-0.137,-4.36,10.1,-17.94,4,6
19088.218,0.421,0.834,-0.122,-3.45,8.76,-18.07,4,6
19088.234,0.43,0.842,-0.114,-5.49,5.83,-16.63,4,6
19088.234,0.443,0.839,-0.118,-8.3,3.51,-15.35,4,6
19088.25,0.448,0.826,-0.132,-11.66,2.35,-14.4,4,6
19088.265,0.453,0.81,-0.136,-14.89,2.93,-13.21,4,6
19088.265,0.453,0.806,-0.139,-16.45,4.76,-12.6,4,6
19088.281,0.436,0.805,-0.14,-15.75,7.45,-13.31,4,6
19088.296,0.406,0.804,-0.132,-13.95,9.0,-14.34,4,6
19088.296,0.388,0.806,-0.132,-13.21,9.28,-13.64,4,6
19088.312,0.373,0.811,-0.132,-14.71,8.91,-12.6,4,6
19088.328,0.351,0.801,-0.131,-17.79,8.24,-11.93,4,6
19088.328,0.333,0.785,-0.124,-21.12,6.59,-11.02,4,6
19088.343,0.322,0.769,-0.116,-22.64,4.39,-10.56,4,6
19088.343,0.334,0.759,-0.115,-23.53,2.69,-10.25,4,6
19088.359,0.356,0.759,-0.114,-24.05,1.68,-10.86,4,6
19088.375,0.36,0.758,-0.108,-23.26,2.5,-12.39,4,6
19088.375,0.355,0.759,-0.096,-22.31,3.6,-14.25,4,6
19088.39,0.347,0.766,-0.078,-21.27,2.81,-16.17,4,6
19088.406,0.34,0.769,-0.065,-18.71,-0.52,-18.16,4,6
19088.406,0.367,0.771,-0.059,-12.73,-8.06,-21.97,4,6
19088.421,0.366,0.781,-0.065,-10.56,-10.77,-23.83,4,6
19088.421,0.373,0.787,-0.064,-9.61,-12.7,-25.39,4,6
19088.437,0.377,0.802,-0.086,-9.92,-13.92,-27.28,4,6
19088.453,0.384,0.806,-0.092,-10.16,-15.08,-29.94,4,6
19088.453,0.392,0.812,-0.11,-9.19,-15.26,-33.02,4,6
19088.468,0.408,0.829,-0.12,-8.51,-14.53,-35.86,4,6
19088.484,0.404,0.855,-0.126,-7.32,-12.12,-39.67,4,6
19088.484,0.383,0.879,-0.132,-6.23,-8.82,-42.18,4,6
19088.5,0.369,0.909,-0.123,-6.62,-5.8,-42.6,4,6
19088.515,0.354,0.936,-0.115,-7.54,-3.88,-41.81,4,6
19088.515,0.351,0.951,-0.114,-9.16,-2.29,-39.16,4,6
19088.531,0.364,0.959,-0.117,-12.51,-0.64,-34.79,4,6
19088.546,0.375,0.971,-0.111,-18.34,1.59,-30.18,4,6
19088.546,0.357,0.982,-0.104,-24.75,4.49,-25.76,4,6
19088.562,0.342,0.986,-0.105,-31.77,8.0,-19.87,4,6
19088.562,0.348,0.999,-0.11,-40.31,11.14,-12.7,4,6
19088.578,0.35,1.0,-0.108,-49.5,15.14,-5.49,4,6
19088.593,0.366,0.981,-0.098,-56.25,19.38,-0.18,4,6
19088.593,0.379,0.957,-0.083,-59.6,24.6,3.3,4,6
19088.609,0.373,0.939,-0.059,-59.66,30.82,4.97,4,6
19088.625,0.364,0.923,-0.029,-56.86,36.59,5.52,4,6
19088.625,0.351,0.915,0.005,-52.31,42.15,5.49,4,6
19088.64,0.324,0.928,0.032,-47.27,47.12,5.37,4,6
19088.656,0.303,0.933,0.058,-45.23,49.23,6.35,4,6
19088.656,0.302,0.936,0.094,-47.88,47.43,7.81,4,6
19088.671,0.298,0.934,0.121,-52.1,44.47,8.61,4,6
19088.671,0.283,0.922,0.152,-56.37,40.77,9.25,4,6
19088.687,0.281,0.894,0.175,-59.42,35.86,9.28,4,6
19088.703,0.285,0.88,0.181,-61.07,30.06,8.48,4,6
19088.703,0.301,0.866,0.18,-62.04,23.41,6.29,4,6
19088.718,0.321,0.85,0.185,-61.95,16.63,2.29,4,6
19088.734,0.334,0.837,0.178,-58.38,11.84,-3.36,4,6
19088.75,0.324,0.828,0.163,-51.58,10.25,-9.43,4,6
19088.75,0.31,0.826,0.152,-44.13,9.22,-14.98,4,6
19088.765,0.313,0.823,0.145,-37.45,8.88,-20.42,4,6
19088.765,0.319,0.832,0.151,-29.6,10.13,-25.36,4,6
19088.781,0.297,0.862,0.161,-21.0,12.97,-29.91,4,6
19088.781,0.254,0.899,0.177,-14.8,13.92,-32.93,4,6
19088.796,0.216,0.926,0.186,-14.07,10.59,-32.53,4,6
19088.812,0.22,0.943,0.182,-19.07,4.52,-30.06,4,6
19088.828,0.246,0.943,0.174,-25.88,-0.55,-27.74,4,6
19088.828,0.259,0.919,0.164,-31.83,-2.59,-26.52,4,6
19088.843,0.254,0.893,0.15,-35.71,-1.53,-26.06,4,6
19088.843,0.234,0.87,0.145,-36.19,1.98,-25.82,4,6
19088.859,0.211,0.846,0.146,-34.94,5.8,-24.78,4,6
19088.875,0.213,0.861,0.15,-33.17,8.85,-24.35,4,6
19088.875,0.201,0.867,0.155,-31.68,12.05,-25.39,4,6
19088.89,0.194,0.869,0.171,-32.23,13.67,-26.06,4,6
19088.906,0.185,0.887,0.192,-32.81,13.73,-26.86,4,6
19088.906,0.172,0.9,0.214,-33.36,11.84,-26.73,4,6
19088.921,0.178,0.919,0.224,-34.67,7.54,-25.24,4,6
19088.921,0.171,0.941,0.23,-38.24,1.92,-21.88,4,6
19088.937,0.192,0.948,0.252,-44.19,-4.33,-16.21,4,6
19088.953,0.23,0.924,0.256,-48.04,-7.2,-10.44,4,6
19088.968,0.256,0.882,0.229,-48.52,-5.1,-5.37,4,6
19088.968,0.283,0.839,0.213,-47.12,0.67,-0.06,4,6
19088.984,0.277,0.813,0.188,-44.65,9.37,2.66,4,6
19088.984,0.274,0.793,0.164,-44.92,17.94,2.59,4,6
19089.0,0.246,0.796,0.191,-47.27,27.22,0.03,4,6
19089.015,0.182,0.808,0.241,-47.27,36.71,-3.05,4,6
19089.015,0.107,0.816,0.291,-47.09,42.02,-4.61,4,6
19089.031,0.041,0.843,0.351,-47.82,42.88,-4.73,4,6
19089.046,-0.008,0.859,0.409,-48.89,39.61,-3.33,4,6
19089.046,-0.014,0.84,0.429,-52.0,32.07,-0.64,4,6
19089.062,0.012,0.824,0.432,-57.8,23.87,1.83,4,6
19089.062,0.055,0.8,0.435,-62.44,19.35,1.59,4,6
19089.078,0.084,0.771,0.42,-65.74,18.07,-1.77,4,6
19089.093,0.11,0.748,0.41,-67.9,18.34,-7.42,4,6
19089.093,0.135,0.742,0.417,-67.23,18.89,-15.38,4,6
19089.109,0.155,0.764,0.424,-62.78,19.29,-24.69,4,6
19089.125,0.172,0.803,0.442,-56.76,18.52,-34.0,4,6
19089.125,0.174,0.843,0.469,-49.56,17.94,-43.15,4,6
19089.14,0.155,0.891,0.496,-40.31,16.97,-52.16,4,6
19089.156,0.119,0.919,0.51,-29.3,13.25,-61.01,4,6
19089.156,0.078,0.943,0.499,-16.97,7.02,-68.79,4,6
19089.171,0.047,0.95,0.471,-5.1,-0.24,-73.24,4,6
19089.171,0.05,0.953,0.445,4.33,-8.36,-74.89,4,6
19089.187,0.069,0.978,0.412,10.32,-13.34,-74.74,4,6
19089.203,0.082,1.001,0.38,10.83,-13.52,-73.06,4,6
19089.203,0.084,1.015,0.357,5.68,-9.55,-69.89,4,6
19089.218,0.108,1.028,0.341,-1.5,-2.69,-65.58,4,6
19089.234,0.123,1.059,0.352,-9.09,6.74,-61.34,4,6
19089.25,0.118,1.073,0.384,-14.92,14.86,-57.62,4,6
19089.25,0.104,1.082,0.431,-16.66,19.96,-54.23,4,6
19089.265,0.074,1.094,0.44,-13.67,22.31,-51.24,4,6
19089.265,0.057,1.112,0.436,-12.42,21.03,-47.36,4,6
19089.281,0.059,1.119,0.439,-14.47,17.61,-43.73,4,6
19089.296,0.057,1.112,0.425,-18.68,14.62,-40.56,4,6
19089.296,0.065,1.101,0.414,-25.51,12.82,-36.77,4,6
19089.312,0.079,1.073,0.413,-31.71,12.73,-32.59,4,6
19089.328,0.085,1.042,0.424,-33.72,15.75,-29.33,4,6
19089.328,0.064,1.01,0.429,-31.31,20.48,-27.1,4,6
19089.343,0.037,0.986,0.443,-27.47,23.83,-24.57,4,6
19089.343,0.016,0.961,0.458,-24.38,24.84,-22.13,4,6
19089.359,0.005,0.945,0.477,-22.77,24.6,-20.14,4,6
19089.375,0.003,0.927,0.485,-22.19,23.68,-19.14,4,6
19089.375,0.007,0.901,0.495,-23.47,22.55,-18.86,4,6
19089.39,0.007,0.875,0.501,-25.36,20.78,-19.59,4,6
19089.406,0.018,0.862,0.506,-26.03,20.02,-21.39,4,6
19089.406,0.026,0.852,0.522,-24.9,19.9,-24.93,4,6
19089.421,0.01,0.84,0.536,-22.19,18.49,-28.81,4,6
19089.437,-0.052,0.851,0.553,-18.04,14.37,-32.96,4,6
19089.437,-0.073,0.849,0.536,-13.25,7.97,-37.02,4,6
19089.453,-0.071,0.864,0.516,-8.94,1.95,-39.34,4,6
19089.453,-0.066,0.876,0.489,-5.01,-1.31,-40.74,4,6
19089.468,-0.085,0.881,0.474,-2.17,-1.22,-42.39,4,6
19089.484,-0.108,0.873,0.46,-0.37,-0.73,-44.34,4,6
19089.484,-0.112,0.876,0.46,0.67,-0.43,-45.14,4,6
19089.5,-0.117,0.89,0.468,1.53,1.65,-44.59,4,6
19089.515,-0.129,0.899,0.474,1.56,4.91,-43.67,4,6
19089.515,-0.143,0.911,0.487,0.12,8.39,-42.09,4,6
19089.531,-0.165,0.91,0.492,-2.62,10.28,-39.8,4,6
19089.546,-0.17,0.909,0.499,-7.17,9.49,-36.59,4,6
19089.546,-0.168,0.896,0.494,-11.99,7.87,-34.12,4,6
19089.562,-0.165,0.868,0.49,-15.99,7.29,-32.75,4,6
19089.562,-0.16,0.838,0.494,-16.94,8.79,-31.98,4,6
19089.578,-0.161,0.828,0.501,-15.66,11.47,-31.4,4,6
19089.593,-0.171,0.825,0.51,-14.22,14.62,-31.16,4,6
19089.609,-0.185,0.826,0.527,-13.7,17.12,-30.88,4,6
19089.609,-0.195,0.826,0.541,-14.19,18.04,-30.18,4,6
19089.625,-0.199,0.819,0.55,-15.38,17.06,-29.76,4,6
19089.625,-0.191,0.817,0.552,-17.91,14.92,-29.11,4,6
19089.64,-0.185,0.809,0.563,-20.97,12.6,-29.21,4,6
19089.656,-0.189,0.784,0.569,-21.97,10.56,-30.82,4,6
19089.656,-0.2,0.762,0.576,-20.78,8.94,-32.53,4,6
19089.671,-0.213,0.752,0.573,-17.7,8.06,-33.94,4,6
19089.687,-0.222,0.748,0.571,-14.8,7.17,-35.4,4,6
19089.687,-0.223,0.748,0.582,-14.01,6.74,-36.77,4,6
19089.703,-0.216,0.751,0.593,-14.65,6.93,-38.12,4,6
19089.703,-0.211,0.774,0.615,-16.05,7.51,-38.97,4,6
19089.718,-0.221,0.794,0.635,-17.88,8.15,-39.03,4,6
19089.734,-0.24,0.818,0.652,-20.29,7.51,-38.58,4,6
19089.734,-0.251,0.821,0.652,-22.06,4.12,-38.15,4,6
19089.75,-0.248,0.808,0.644,-22.4,-1.01,-37.81,4,6
19089.765,-0.237,0.793,0.634,-20.54,-5.83,-37.97,4,6
19089.765,-0.226,0.791,0.616,-17.06,-8.0,-37.9,4,6
19089.781,-0.223,0.791,0.593,-14.19,-7.72,-37.9,4,6
19089.796,-0.216,0.789,0.581,-14.22,-6.62,-37.63,4,6
19089.796,-0.21,0.786,0.578,-15.05,-4.06,-37.63,4,6
19089.812,-0.216,0.782,0.582,-14.53,-0.85,-38.21,4,6
19089.828,-0.24,0.783,0.594,-11.81,1.07,-39.34,4,6
19089.828,-0.264,0.796,0.608,-8.48,0.64,-39.89,4,6
19089.843,-0.274,0.812,0.618,-5.13,-2.44,-40.31,4,6
19089.843,-0.279,0.824,0.616,-1.77,-6.93,-40.41,4,6
19089.859,-0.292,0.832,0.611,0.64,-11.29,-39.92,4,6
19089.875,-0.306,0.836,0.592,1.34,-16.3,-38.79,4,6
19089.875,-0.308,0.841,0.563,-0.46,-20.51,-37.08,4,6
19089.89,-0.303,0.831,0.532,-2.84,-21.97,-35.22,4,6
19089.89,-0.307,0.833,0.506,-5.28,-20.2,-33.33,4,6
19089.906,-0.312,0.832,0.485,-8.3,-16.97,-31.62,4,6
19089.921,-0.32,0.83,0.483,-10.65,-12.97,-30.21,4,6
19089.921,-0.323,0.828,0.492,-11.26,-10.13,-28.63,4,6
19089.937,-0.311,0.829,0.507,-11.05,-8.7,-27.22,4,6
19089.953,-0.312,0.831,0.535,-10.28,-8.03,-27.19,4,6
19089.953,-0.317,0.822,0.561,-8.15,-7.35,-27.01,4,6
19089.968,-0.324,0.812,0.571,-5.07,-6.84,-26.34,4,6
19089.984,-0.321,0.806,0.565,-3.33,-6.87,-25.57,4,6
19089.984,-0.309,0.79,0.555,-3.36,-6.53,-25.03,4,6
19090.0,-0.292,0.776,0.553,-4.82,-5.22,-25.06,4,6
19090.015,-0.285,0.768,0.56,-5.74,-2.96,-25.88,4,6
19090.015,-0.291,0.763,0.572,-6.04,0.06,-26.34,4,6
19090.031,-0.308,0.761,0.592,-5.16,2.11,-26.58,4,6
19090.046,-0.325,0.763,0.607,-3.11,2.26,-26.46,4,6
19090.046,-0.339,0.764,0.616,-0.61,0.82,-26.22,4,6
19090.062,-0.341,0.765,0.62,0.79,-2.2,-25.94,4,6
19090.062,-0.332,0.761,0.61,0.4,-5.65,-26.06,4,6
19090.078,-0.326,0.756,0.602,-0.55,-7.08,-27.25,4,6
19090.093,-0.321,0.74,0.593,0.06,-6.68,-28.08,4,6
19090.093,-0.323,0.736,0.587,2.14,-5.37,-28.72,4,6
19090.109,-0.326,0.739,0.591,3.66,-3.33,-28.72,4,6
19090.125,-0.334,0.733,0.591,4.94,-0.4,-28.08,4,6
19090.125,-0.346,0.731,0.587,5.55,2.62,-26.22,4,6
19090.14,-0.356,0.734,0.593,3.54,4.15,-23.74,4,6
19090.156,-0.362,0.725,0.596,-1.01,4.7,-21.27,4,6
19090.156,-0.372,0.72,0.599,-5.98,5.52,-18.68,4,6
19090.171,-0.368,0.714,0.598,-10.99,6.23,-15.78,4,6
19090.171,-0.353,0.706,0.598,-17.06,7.29,-13.03,4,6
19090.187,-0.352,0.692,0.607,-22.03,9.64,-10.71,4,6
19090.203,-0.361,0.672,0.614,-24.9,11.57,-8.67,4,6
19090.203,-0.362,0.662,0.626,-25.85,13.25,-7.48,4,6
19090.218,-0.378,0.646,0.619,-25.64,15.17,-7.87,4,6
19090.234,-0.393,0.631,0.615,-26.95,14.37,-8.45,4,6
19090.25,-0.387,0.624,0.61,-28.75,13.37,-8.82,4,6
19090.25,-0.385,0.63,0.606,-30.76,12.85,-9.28,4,6
19090.265,-0.382,0.631,0.611,-32.84,13.34,-9.37,4,6
19090.265,-0.386,0.623,0.62,-33.42,15.14,-9.0,4,6
19090.281,-0.407,0.609,0.624,-32.47,17.61,-8.03,4,6
19090.296,-0.419,0.598,0.627,-33.27,19.5,-6.78,4,6
19090.296,-0.428,0.587,0.639,-36.04,20.94,-6.65,4,6
19090.312,-0.439,0.57,0.652,-38.48,21.85,-6.9,4,6
19090.312,-0.446,0.564,0.668,-39.46,21.45,-7.11,4,6
19090.328,-0.443,0.554,0.673,-38.36,19.53,-8.3,4,6
19090.343,-0.442,0.548,0.675,-36.13,16.6,-11.08,4,6
19090.343,-0.436,0.54,0.676,-33.17,13.49,-15.14,4,6
19090.359,-0.434,0.536,0.678,-29.15,11.54,-19.44,4,6
19090.375,-0.444,0.533,0.682,-24.51,10.35,-23.47,4,6
19090.375,-0.455,0.541,0.682,-19.59,7.57,-28.05,4,6
19090.39,-0.46,0.559,0.68,-21.42,6.5,-29.6,4,6
19090.39,-0.458,0.571,0.673,-23.93,5.89,-31.53,4,6
19090.406,-0.473,0.584,0.665,-24.35,5.58,-32.69,4,6
19090.421,-0.478,0.59,0.663,-22.16,5.55,-32.38,4,6
19090.437,-0.48,0.599,0.652,-18.49,6.35,-31.53,4,6
19090.437,-0.484,0.604,0.641,-16.36,7.29,-30.34,4,6
19090.453,-0.485,0.603,0.626,-16.94,8.33,-28.41,4,6
19090.453,-0.48,0.589,0.62,-19.59,9.8,-25.7,4,6
19090.468,-0.478,0.577,0.617,-22.61,12.73,-23.04,4,6
19090.484,-0.489,0.56,0.618,-24.35,16.48,-20.33,4,6
19090.484,-0.495,0.552,0.62,-25.24,19.9,-17.49,4,6
19090.5,-0.503,0.554,0.625,-25.54,23.26,-15.72,4,6
19090.515,-0.518,0.542,0.629,-25.54,26.25,-14.56,4,6
19090.515,-0.531,0.541,0.636,-27.16,28.99,-13.0,4,6
19090.531,-0.545,0.544,0.652,-29.18,30.88,-12.24,4,6
19090.546,-0.562,0.529,0.672,-29.54,31.1,-12.18,4,6
19090.546,-0.571,0.522,0.687,-28.2,29.6,-12.24,4,6
19090.562,-0.574,0.523,0.691,-25.97,26.67,-13.43,4,6
19090.562,-0.579,0.513,0.69,-23.35,23.59,-15.69,4,6
19090.578,-0.588,0.511,0.688,-20.17,21.24,-17.91,4,6
19090.593,-0.588,0.517,0.681,-17.4,20.94,-19.75,4,6
19090.593,-0.587,0.523,0.677,-16.27,22.03,-22.31,4,6
19090.609,-0.594,0.524,0.677,-15.32,23.47,-26.06,4,6
19090.625,-0.615,0.538,0.683,-13.89,24.23,-29.85,4,6
19090.625,-0.635,0.545,0.683,-12.97,22.28,-32.41,4,6
19090.64,-0.633,0.536,0.676,-12.05,17.98,-33.85,4,6
19090.64,-0.612,0.54,0.667,-10.1,15.84,-34.79,4,6
19090.656,-0.603,0.542,0.647,-8.76,16.66,-35.77,4,6
19090.671,-0.591,0.533,0.624,-8.7,16.79,-36.1,4,6
19090.687,-0.565,0.532,0.617,-8.94,18.92,-35.25,4,6
19090.687,-0.543,0.524,0.611,-7.97,24.87,-34.64,4,6
19090.703,-0.549,0.495,0.613,-6.81,26.86,-34.21,4,6
19090.703,-0.536,0.466,0.624,-2.62,29.6,-35.8,4,6
19090.718,-0.553,0.448,0.627,5.65,33.14,-39.92,4,6
19090.734,-0.568,0.445,0.635,14.19,34.64,-44.65,4,6
19090.734,-0.593,0.459,0.645,21.58,34.73,-48.28,4,6
19090.75,-0.629,0.504,0.66,26.8,32.11,-49.84,4,6
19090.765,-0.651,0.543,0.693,28.93,25.15,-49.35,4,6
19090.765,-0.662,0.554,0.707,30.43,13.64,-48.62,4,6
19090.781,-0.661,0.562,0.704,29.76,0.09,-48.28,4,6
19090.781,-0.648,0.532,0.686,28.35,-11.87,-48.46,4,6
19090.796,-0.632,0.502,0.66,27.74,-19.68,-48.86,4,6
19090.812,-0.61,0.495,0.619,27.22,-23.19,-49.65,4,6
19090.812,-0.593,0.494,0.585,25.7,-23.04,-51.03,4,6
19090.828,-0.587,0.496,0.575,23.44,-20.72,-52.28,4,6
19090.843,-0.593,0.492,0.582,22.16,-17.94,-53.74,4,6
19090.859,-0.595,0.477,0.603,23.65,-16.72,-55.51,4,6
19090.859,-0.605,0.483,0.614,29.36,-16.79,-57.62,4,6
19090.875,-0.607,0.515,0.616,35.8,-17.37,-58.14,4,6
19090.875,-0.6,0.541,0.604,38.73,-17.43,-56.95,4,6
19090.89,-0.593,0.534,0.591,36.71,-17.24,-55.88,4,6
19090.906,-0.58,0.517,0.578,32.04,-16.75,-55.33,4,6
19090.906,-0.577,0.513,0.567,26.86,-15.05,-54.72,4,6
19090.921,-0.59,0.512,0.559,21.79,-11.87,-53.62,4,6
19090.937,-0.604,0.501,0.557,16.69,-8.42,-51.36,4,6
19090.937,-0.614,0.49,0.567,11.84,-4.76,-48.71,4,6
19090.953,-0.639,0.486,0.591,8.76,-0.95,-47.09,4,6
19090.953,-0.675,0.487,0.608,6.16,1.01,-45.5,4,6
19090.968,-0.718,0.511,0.635,-1.4,-0.89,-43.73,4,6
19090.984,-0.759,0.539,0.653,-16.11,-9.86,-42.63,4,6
19090.984,-0.772,0.536,0.655,-36.1,-25.18,-41.14,4,6
19091.0,-0.753,0.508,0.663,-55.64,-41.35,-38.76,4,6
19091.015,-0.721,0.455,0.663,-70.8,-55.02,-36.47,4,6
19091.015,-0.682,0.386,0.662,-79.38,-63.54,-33.51,4,6
19091.031,-0.645,0.328,0.634,-80.78,-65.07,-29.54,4,6
19091.031,-0.612,0.294,0.627,-78.98,-59.33,-25.76,4,6
19091.046,-0.607,0.251,0.628,-74.89,-49.71,-24.51,4,6
19091.062,-0.631,0.219,0.624,-70.56,-40.19,-25.73,4,6
19091.062,-0.646,0.179,0.634,-63.78,-31.37,-26.31,4,6
19091.078,-0.647,0.177,0.648,-52.92,-24.9,-26.83,4,6
19091.093,-0.649,0.195,0.652,-39.7,-20.33,-27.01,4,6
19091.109,-0.658,0.214,0.661,-27.77,-16.11,-26.92,4,6
19091.109,-0.662,0.228,0.661,-18.07,-12.94,-27.77,4,6
19091.125,-0.666,0.235,0.653,-11.14,-10.19,-28.87,4,6
19091.125,-0.667,0.232,0.653,-6.78,-6.87,-28.23,4,6
19091.14,-0.668,0.24,0.651,-4.97,-2.41,-25.57,4,6
19091.156,-0.673,0.243,0.656,-5.71,1.68,-23.13,4,6
19091.156,-0.676,0.244,0.657,-8.18,4.67,-20.84,4,6
19091.171,-0.68,0.246,0.668,-10.96,7.32,-19.04,4,6
19091.171,-0.687,0.233,0.678,-11.14,9.16,-18.95,4,6
19091.187,-0.682,0.215,0.68,-7.66,10.71,-18.56,4,6
19091.203,-0.681,0.22,0.681,-2.93,12.85,-17.94,4,6
19091.203,-0.689,0.231,0.681,0.73,15.02,-18.22,4,6
19091.218,-0.694,0.249,0.691,1.19,16.85,-18.4,4,6
19091.234,-0.709,0.278,0.702,-1.37,17.43,-19.75,4,6
19091.234,-0.725,0.296,0.714,-4.12,14.59,-22.03,4,6
19091.25,-0.722,0.309,0.715,-4.36,8.76,-23.53,4,6
19091.25,-0.691,0.325,0.699,-1.53,2.17,-23.38,4,6
19091.265,-0.661,0.349,0.671,2.38,-2.66,-21.64,4,6
19091.281,-0.657,0.382,0.638,4.55,-5.04,-20.02,4,6
19091.281,-0.649,0.373,0.615,5.55,-5.52,-18.62,4,6
19091.296,-0.65,0.362,0.599,6.2,-3.42,-16.14,4,6
19091.312,-0.65,0.351,0.582,7.97,-0.58,-13.25,4,6
19091.312,-0.633,0.345,0.574,9.77,2.96,-9.74,4,6
19091.328,-0.63,0.359,0.57,10.1,8.3,-5.22,4,6
19091.343,-0.636,0.365,0.583,7.54,14.34,-0.58,4,6
19091.343,-0.634,0.35,0.606,3.23,20.29,5.31,4,6
19091.359,-0.649,0.331,0.63,-4.85,30.49,19.44,4,6
19091.375,-0.669,0.308,0.656,-10.28,34.49,27.95,4,6
19091.375,-0.682,0.289,0.674,-19.1,37.97,37.35,4,6
19091.39,-0.69,0.271,0.692,-30.37,40.59,46.33,4,6
19091.406,-0.741,0.211,0.732,-42.18,40.47,54.6,4,6
19091.406,-0.754,0.163,0.751,-52.86,37.26,60.7,4,6
19091.421,-0.751,0.09,0.767,-58.23,31.4,62.78,4,6
19091.421,-0.74,0.029,0.767,-56.12,24.38,60.27,4,6
19091.437,-0.715,-0.009,0.756,-48.92,18.16,54.26,4,6
19091.453,-0.692,-0.021,0.738,-39.89,13.64,45.87,4,6
19091.453,-0.673,-0.02,0.715,-31.19,10.71,36.23,4,6
19091.468,-0.663,0.012,0.7,-25.15,9.89,26.92,4,6
19091.484,-0.668,0.04,0.693,-21.67,10.19,18.4,4,6
19091.484,-0.673,0.057,0.698,-19.1,11.23,11.9,4,6
19091.5,-0.691,0.076,0.705,-16.51,13.28,7.45,4,6
19091.515,-0.711,0.091,0.71,-13.25,14.01,4.49,4,6
19091.515,-0.72,0.114,0.717,-10.96,12.79,3.39,4,6
19091.531,-0.726,0.134,0.714,-9.03,10.32,2.53,4,6
19091.546,-0.722,0.15,0.711,-7.57,7.08,2.08,4,6
19091.546,-0.715,0.164,0.707,-6.26,4.55,1.68,4,6
19091.562,-0.718,0.173,0.691,-4.3,3.27,0.92,4,6
19091.562,-0.719,0.179,0.674,-2.23,2.56,-0.15,4,6
19091.578,-0.714,0.182,0.662,-0.95,2.93,-1.19,4,6
19091.593,-0.713,0.188,0.653,-1.07,4.33,-2.14,4,6
19091.609,-0.711,0.195,0.647,-2.44,5.58,-3.2,4,6
19091.609,-0.701,0.201,0.647,-4.85,6.71,-4.03,4,6
19091.625,-0.714,0.207,0.648,-6.59,7.75,-5.19,4,6
19091.625,-0.723,0.205,0.648,-6.26,6.9,-6.47,4,6
19091.64,-0.718,0.202,0.645,-3.78,5.25,-7.75,4,6
19091.656,-0.727,0.209,0.638,-0.89,4.33,-8.7,4,6
19091.656,-0.737,0.222,0.629,0.24,2.72,-9.37,4,6
19091.671,-0.723,0.222,0.621,-0.49,0.89,-9.28,4,6
