timestamp,ax,ay,az,gx,gy,gz,orient_label,motion_label
19091.687,-0.717,0.216,0.614,-1.43,1.1,-9.74,4,6
19091.687,-0.722,0.206,0.616,-1.53,2.75,-11.05,4,6
19091.703,-0.726,0.19,0.616,-0.12,4.46,-12.97,4,6
19091.703,-0.736,0.181,0.618,2.99,6.23,-15.75,4,6
19091.718,-0.746,0.168,0.627,7.87,7.81,-18.4,4,6
19091.734,-0.763,0.175,0.634,13.52,9.58,-20.14,4,6
19091.75,-0.791,0.187,0.647,19.78,9.49,-21.52,4,6
19091.75,-0.799,0.197,0.653,25.33,6.59,-21.36,4,6
19091.765,-0.802,0.218,0.655,29.05,2.78,-20.08,4,6
19091.765,-0.816,0.223,0.646,31.95,-1.4,-17.85,4,6
19091.781,-0.814,0.22,0.616,32.99,-6.38,-14.47,4,6
19091.781,-0.795,0.213,0.585,32.26,-10.13,-10.99,4,6
19091.796,-0.782,0.207,0.547,29.76,-11.08,-7.66,4,6
19091.812,-0.764,0.197,0.512,24.84,-9.31,-4.52,4,6
19091.812,-0.746,0.185,0.5,19.23,-4.97,-1.01,4,6
19091.828,-0.733,0.184,0.514,13.34,1.68,2.56,4,6
19091.843,-0.738,0.175,0.534,8.48,7.35,4.7,4,6
19091.843,-0.742,0.172,0.557,5.01,10.47,6.07,4,6
19091.859,-0.74,0.177,0.577,2.75,11.05,6.84,4,6
19091.875,-0.732,0.179,0.597,2.04,9.31,7.08,4,6
19091.875,-0.721,0.187,0.613,3.57,6.87,6.81,4,6
19091.89,-0.717,0.203,0.624,6.87,4.33,5.62,4,6
19091.906,-0.702,0.211,0.621,10.65,2.2,4.58,4,6
19091.906,-0.667,0.22,0.611,12.12,1.95,5.31,4,6
19091.921,-0.651,0.244,0.615,10.19,4.61,5.98,4,6
19091.921,-0.645,0.246,0.627,7.05,7.57,5.68,4,6
19091.937,-0.644,0.247,0.642,3.88,10.28,5.1,4,6
19091.953,-0.667,0.259,0.66,2.14,13.15,3.54,4,6
19091.968,-0.699,0.254,0.678,2.38,14.1,1.56,4,6
19091.968,-0.714,0.239,0.697,5.34,12.54,0.21,4,6
19091.984,-0.716,0.248,0.707,9.55,10.22,-0.12,4,6
19091.984,-0.726,0.277,0.712,12.18,7.2,-1.04,4,6
19092.0,-0.71,0.284,0.709,12.48,3.17,-1.65,4,6
19092.015,-0.683,0.3,0.707,11.54,0.34,-1.13,4,6
19092.031,-0.679,0.328,0.694,10.07,-0.58,2.04,4,6
19092.031,-0.687,0.326,0.691,9.06,0.06,4.52,4,6
19092.046,-0.699,0.325,0.686,7.63,0.46,7.23,4,6
19092.062,-0.711,0.32,0.679,6.1,-0.06,9.7,4,6
19092.062,-0.716,0.317,0.667,4.55,-1.5,12.45,4,6
19092.078,-0.709,0.316,0.65,3.97,-3.17,15.78,4,6
19092.093,-0.701,0.325,0.631,4.06,-3.81,18.46,4,6
19092.093,-0.699,0.332,0.619,4.58,-4.18,20.72,4,6
19092.109,-0.685,0.341,0.607,6.1,-5.25,22.68,4,6
19092.125,-0.664,0.36,0.595,9.95,-6.1,23.56,4,6
19092.125,-0.656,0.387,0.585,16.08,-6.35,23.1,4,6
19092.14,-0.667,0.424,0.58,23.87,-5.83,22.55,4,6
19092.14,-0.683,0.454,0.573,32.38,-4.88,23.04,4,6
19092.156,-0.699,0.488,0.56,40.5,-3.39,24.93,4,6
19092.171,-0.713,0.529,0.544,47.76,-1.95,28.41,4,6
19092.187,-0.73,0.583,0.523,52.77,-0.64,33.75,4,6
19092.203,-0.798,0.782,0.466,48.49,2.47,54.14,4,6
19092.203,-0.777,0.874,0.454,34.15,3.36,70.56,4,6
19092.218,-0.753,0.906,0.453,17.06,6.59,86.09,4,6
19092.234,-0.766,0.913,0.446,3.02,13.52,101.11,4,6
19092.234,-0.784,0.906,0.441,-8.33,21.55,117.16,4,6
19092.25,-0.794,0.878,0.432,-15.69,29.73,132.54,4,6
19092.265,-0.808,0.871,0.412,-19.62,37.35,146.03,4,6
19092.281,-0.831,0.892,0.392,-23.01,43.18,157.29,4,6
19092.281,-0.855,0.904,0.368,-29.54,46.69,168.03,4,6
19092.296,-0.855,0.904,0.351,-40.53,48.37,179.54,4,6
19092.296,-0.835,0.897,0.343,-54.32,49.59,191.66,4,6
19092.312,-0.808,0.875,0.341,-67.9,52.06,203.04,4,6
19092.312,-0.78,0.836,0.34,-78.98,56.4,213.26,4,6
19092.328,-0.751,0.778,0.351,-85.63,62.14,220.86,4,6
19092.343,-0.73,0.714,0.372,-77.61,73.98,224.83,4,6
19092.343,-0.72,0.671,0.402,-66.68,77.55,222.85,4,6
19092.359,-0.708,0.642,0.428,-55.54,77.73,219.21,4,6
19092.375,-0.701,0.627,0.443,-47.52,74.95,215.06,4,6
19092.375,-0.653,0.626,0.42,-44.22,70.22,211.68,4,6
19092.39,-0.619,0.631,0.419,-45.2,64.88,208.14,4,6
19092.406,-0.598,0.626,0.433,-47.33,58.75,204.44,4,6
19092.406,-0.565,0.586,0.438,-46.91,50.36,200.93,4,6
19092.421,-0.521,0.56,0.434,-43.64,41.81,198.4,4,6
19092.437,-0.488,0.537,0.414,-38.42,35.22,196.14,4,6
19092.437,-0.465,0.488,0.4,-32.69,29.24,193.82,4,6
19092.453,-0.437,0.443,0.386,-24.9,23.56,191.05,4,6
19092.453,-0.409,0.426,0.369,-16.48,20.69,188.12,4,6
19092.468,-0.407,0.43,0.364,-10.47,18.28,185.52,4,6
19092.484,-0.392,0.466,0.365,-6.96,17.58,182.23,4,6
19092.484,-0.395,0.512,0.387,-7.23,20.63,178.56,4,6
19092.5,-0.432,0.555,0.425,-10.83,23.71,173.16,4,6
19092.515,-0.492,0.572,0.459,-16.85,23.74,168.83,4,6
19092.531,-0.568,0.587,0.522,-34.52,1.28,174.17,4,6
19092.546,-0.538,0.587,0.517,-42.63,-12.54,178.35,4,6
19092.546,-0.468,0.579,0.487,-51.58,-22.49,181.16,4,6
19092.562,-0.406,0.565,0.467,-61.37,-26.25,180.64,4,6
19092.562,-0.355,0.555,0.463,-68.7,-24.32,177.19,4,6
19092.578,-0.321,0.547,0.476,-71.32,-18.46,171.94,4,6
19092.593,-0.292,0.555,0.5,-68.67,-8.76,163.88,4,6
19092.593,-0.288,0.594,0.514,-62.72,4.15,152.32,4,6
19092.609,-0.32,0.647,0.543,-62.04,14.37,139.16,4,6
19092.625,-0.362,0.692,0.61,-69.06,16.24,125.95,4,6
19092.625,-0.408,0.713,0.709,-78.37,9.28,115.7,4,6
19092.64,-0.403,0.677,0.795,-84.32,-7.17,110.2,4,6
19092.656,-0.343,0.647,0.855,-81.27,-26.22,109.23,4,6
19092.656,-0.258,0.609,0.864,-66.26,-38.82,110.97,4,6
19092.671,-0.189,0.58,0.832,-46.05,-41.9,112.46,4,6
19092.671,-0.149,0.594,0.78,-32.5,-37.87,110.97,4,6
19092.703,-0.123,0.593,0.754,-38.12,-23.38,96.41,4,6
19092.703,-0.131,0.559,0.769,-46.54,-19.84,85.48,4,6
19092.718,-0.132,0.53,0.798,-49.56,-20.6,75.11,4,6
19092.734,-0.13,0.527,0.83,-44.92,-23.77,66.13,4,6
19092.734,-0.099,0.53,0.842,-35.52,-27.8,59.36,4,6
19092.75,-0.053,0.559,0.849,-25.33,-30.06,54.26,4,6
19092.765,-0.024,0.59,0.852,-15.96,-29.54,50.66,4,6
19092.765,-0.001,0.597,0.839,-8.42,-27.53,49.01,4,6
19092.781,0.02,0.609,0.815,-5.04,-23.77,49.29,4,6
19092.796,0.06,0.606,0.801,-7.11,-18.77,50.2,4,6
19092.796,0.099,0.595,0.8,-13.86,-13.09,50.08,4,6
19092.812,0.1,0.589,0.811,-23.53,-7.66,47.18,4,6
19092.828,0.102,0.553,0.83,-31.43,-5.01,42.97,4,6
19092.828,0.122,0.525,0.856,-33.69,-4.3,38.73,4,6
19092.843,0.128,0.514,0.863,-27.41,-2.81,34.15,4,6
19092.843,0.126,0.505,0.851,-14.89,-1.8,28.11,4,6
19092.859,0.141,0.516,0.824,-4.27,-1.19,21.24,4,6
19092.875,0.157,0.548,0.8,-0.67,0.64,14.25,4,6
19092.875,0.171,0.581,0.797,-2.04,3.6,9.03,4,6
19092.89,0.185,0.606,0.819,-5.8,6.44,6.47,4,6
19092.906,0.194,0.617,0.851,-9.03,7.78,5.43,4,6
19092.906,0.214,0.621,0.891,-9.77,7.2,4.85,4,6
19092.921,0.207,0.643,0.939,-7.54,5.19,2.17,4,6
19092.921,0.219,0.718,0.967,-1.74,-0.37,-3.63,4,6
19092.937,0.257,0.755,0.935,8.24,-6.32,-10.35,4,6
19092.953,0.245,0.75,0.868,18.86,-8.27,-16.69,4,6
19092.953,0.215,0.762,0.805,21.52,-8.58,-19.32,4,6
19092.968,0.19,0.73,0.743,19.78,-7.93,-18.07,4,6
19092.984,0.164,0.692,0.691,17.46,-6.62,-14.44,4,6
19093.0,0.155,0.685,0.643,13.46,-5.34,-8.88,4,6
19093.0,0.18,0.652,0.623,6.93,-3.91,-2.66,4,6
19093.015,0.181,0.619,0.65,-4.09,-1.77,-0.31,4,6
19093.015,0.17,0.6,0.675,-10.32,-0.98,0.24,4,6
19093.031,0.203,0.603,0.711,-8.45,-0.37,-0.27,4,6
19093.046,0.225,0.642,0.739,-9.16,-0.21,-1.43,4,6
19093.062,0.232,0.653,0.761,-7.93,0.73,-2.26,4,6
19093.062,0.235,0.662,0.782,-6.13,1.22,-2.84,4,6
19093.078,0.227,0.668,0.787,-1.65,0.95,-2.5,4,6
19093.093,0.207,0.658,0.775,2.78,0.55,-1.53,4,6
19093.093,0.199,0.638,0.767,3.54,-0.52,-0.95,4,6
19093.109,0.193,0.637,0.752,2.41,-2.14,-0.24,4,6
19093.125,0.194,0.638,0.721,0.79,-3.17,1.22,4,6
19093.125,0.215,0.602,0.694,-1.22,-2.29,2.47,4,6
19093.14,0.206,0.593,0.716,-6.35,-0.76,1.07,4,6
19093.156,0.211,0.576,0.708,-4.09,-0.09,1.4,4,6
19093.156,0.234,0.579,0.686,4.33,2.75,2.78,4,6
19093.171,0.256,0.588,0.685,8.21,7.32,1.53,4,6
19093.171,0.258,0.597,0.698,8.3,12.18,-2.08,4,6
19093.187,0.243,0.604,0.712,10.44,16.51,-5.31,4,6
19093.203,0.17,0.657,0.755,5.98,17.21,-10.01,4,6
19093.218,0.182,0.652,0.748,2.62,12.67,-10.47,4,6
19093.234,0.184,0.632,0.749,-1.4,9.49,-12.45,4,6
19093.234,0.178,0.633,0.751,-6.04,7.35,-14.74,4,6
19093.25,0.184,0.608,0.775,-8.58,5.71,-16.08,4,6
19093.265,0.18,0.615,0.825,-9.67,4.0,-17.94,4,6
19093.265,0.193,0.631,0.824,-7.78,-0.24,-19.68,4,6
19093.281,0.216,0.549,0.761,-1.28,-2.53,-22.92,4,6
19093.281,0.105,0.612,0.785,-0.46,-3.27,-27.38,4,6
19093.296,0.132,0.736,0.814,-2.69,-9.8,-23.26,4,6
19093.312,0.129,0.694,0.746,8.76,-15.05,-15.72,4,6
19093.312,0.122,0.706,0.688,12.05,-16.11,-8.27,4,6
19093.328,0.117,0.718,0.678,10.01,-16.51,5.43,4,6
19093.343,0.099,0.684,0.668,8.21,-18.46,12.05,4,6
19093.343,0.111,0.684,0.667,3.63,-20.63,17.46,4,6
19093.359,0.174,0.672,0.706,0.0,-21.15,21.36,4,6
19093.375,0.219,0.719,0.75,-2.56,-21.21,29.79,4,6
19093.39,0.283,0.586,0.709,0.0,-18.25,30.06,4,6
19093.406,0.224,0.596,0.723,1.37,-13.15,25.39,4,6
19093.406,0.237,0.604,0.741,4.09,-12.02,24.84,4,6
19093.421,0.23,0.594,0.733,6.78,-11.96,23.04,4,6
19093.421,0.248,0.613,0.693,7.54,-11.41,21.67,4,6
19093.437,0.267,0.597,0.671,6.68,-8.79,19.38,4,6
19093.453,0.254,0.612,0.661,1.74,-4.7,14.95,4,6
19093.468,0.254,0.605,0.669,-2.38,-2.11,11.54,4,6
19093.468,0.266,0.601,0.672,-5.07,0.03,8.76,4,6
19093.484,0.28,0.609,0.678,-5.19,3.48,6.2,4,6
19093.484,0.27,0.621,0.698,-2.9,7.69,4.06,4,6
19093.5,0.249,0.636,0.723,-0.34,10.19,3.02,4,6
19093.515,0.229,0.651,0.747,1.28,9.7,3.11,4,6
19093.515,0.204,0.667,0.754,1.43,6.93,3.72,4,6
19093.531,0.202,0.676,0.756,-2.08,2.29,4.67,4,6
19093.546,0.234,0.662,0.72,-10.83,-4.85,5.31,4,6
19093.562,0.241,0.645,0.697,-12.09,-4.03,6.07,4,6
19093.562,0.248,0.636,0.674,-13.09,-0.89,7.23,4,6
19093.578,0.249,0.633,0.668,-14.47,3.02,8.39,4,6
19093.593,0.244,0.627,0.675,-15.9,7.23,9.06,4,6
19093.593,0.237,0.628,0.689,-17.21,10.62,9.25,4,6
19093.609,0.232,0.627,0.71,-19.2,12.33,9.22,4,6
19093.625,0.226,0.634,0.734,-21.61,12.6,8.94,4,6
19093.625,0.218,0.642,0.757,-24.14,11.32,9.09,4,6
19093.64,0.222,0.636,0.768,-26.34,8.91,9.77,4,6
19093.656,0.232,0.622,0.746,-29.57,6.41,9.4,4,6
19093.656,0.257,0.585,0.701,-32.78,5.8,7.66,4,6
19093.671,0.285,0.542,0.676,-36.23,8.97,4.33,4,6
19093.671,0.311,0.505,0.652,-38.27,15.93,-1.04,4,6
19093.687,0.341,0.469,0.649,-36.77,26.8,-8.03,4,6
19093.703,0.345,0.422,0.64,-31.37,41.11,-17.52,4,6
19093.718,0.189,0.515,0.826,-35.92,60.61,-37.63,4,6
19093.734,0.141,0.647,1.015,-50.29,54.99,-40.22,4,6
19093.75,-0.013,0.797,1.216,-44.04,38.09,-39.0,4,6
19093.75,-0.087,0.823,1.179,-31.62,9.95,-20.84,4,6
19093.765,0.095,0.552,0.927,-5.95,-18.19,7.05,4,6
19093.765,0.147,0.501,0.746,5.07,-22.4,11.02,4,6
19093.781,0.102,0.522,0.745,7.08,-19.1,7.75,4,6
19093.796,0.104,0.506,0.762,4.85,-21.94,7.97,4,6
19093.796,0.143,0.559,0.764,-5.68,-25.85,9.55,4,6
19093.812,0.151,0.643,0.805,-19.71,-28.35,10.25,4,6
19093.828,0.253,0.643,0.695,-25.21,-28.81,14.56,4,6
19093.828,0.315,0.409,0.838,-28.17,-21.49,13.28,4,6
19093.843,0.208,0.539,0.873,-26.95,-19.17,7.6,4,6
19093.843,0.248,0.491,0.789,1.59,-16.21,15.17,4,6
19093.859,0.275,0.488,0.762,11.66,-12.18,15.96,4,6
19093.875,0.255,0.526,0.754,11.69,-6.38,13.34,4,6
19093.89,0.212,0.516,0.784,10.01,-1.01,7.75,4,6
19093.906,0.211,0.547,0.819,5.4,-2.53,5.1,4,6
19093.906,0.208,0.552,0.836,3.72,-5.89,3.2,4,6
19093.921,0.215,0.559,0.848,2.66,-10.22,2.2,4,6
19093.937,0.222,0.56,0.844,1.53,-14.1,1.77,4,6
19093.937,0.223,0.54,0.81,0.64,-17.0,0.76,4,6
19093.953,0.251,0.529,0.764,-0.89,-18.1,0.12,4,6
19093.953,0.272,0.521,0.727,-1.77,-15.59,-0.98,4,6
19093.968,0.289,0.498,0.701,0.31,-9.06,-3.33,4,6
19093.984,0.297,0.493,0.682,3.42,-0.12,-7.08,4,6
19093.984,0.296,0.489,0.683,7.26,9.55,-11.99,4,6
19094.0,0.295,0.505,0.685,7.39,18.56,-17.18,4,6
19094.015,0.308,0.501,0.689,4.94,27.04,-22.37,4,6
19094.015,0.311,0.489,0.681,4.27,37.29,-28.14,4,6
19094.031,0.286,0.473,0.665,4.33,49.1,-34.27,4,6
19094.046,0.195,0.521,0.763,-1.5,56.34,-39.83,4,6
19094.062,0.017,0.813,1.095,-25.91,32.9,-32.14,4,6
19094.062,-0.119,0.803,1.034,-14.22,8.91,-16.82,4,6
19094.078,0.046,0.771,0.917,-15.99,-11.47,3.63,4,6
19094.093,0.154,0.539,0.749,-10.01,-18.52,13.76,4,6
19094.093,0.127,0.471,0.702,-10.32,-13.4,12.54,4,6
19094.109,0.146,0.508,0.776,-13.18,-9.8,13.7,4,6
19094.125,0.161,0.524,0.837,-14.8,-9.64,13.98,4,6
19094.125,0.161,0.527,0.885,-15.53,-11.41,13.82,4,6
19094.14,0.131,0.519,0.92,-11.2,-15.63,14.62,4,6
19094.156,0.204,0.524,0.866,-6.78,-21.36,16.3,4,6
19094.156,0.224,0.425,0.816,5.01,-22.13,15.38,4,6
19094.171,0.185,0.467,0.811,7.42,-20.26,11.96,4,6
19094.187,0.21,0.522,0.823,6.81,-20.39,10.71,4,6
19094.187,0.217,0.516,0.819,9.31,-20.02,9.64,4,6
19094.203,0.219,0.523,0.809,10.65,-19.32,8.42,4,6
19094.203,0.22,0.525,0.786,15.32,-18.46,7.57,4,6
19094.234,0.244,0.565,0.769,11.84,-15.99,5.52,4,6
19094.234,0.249,0.535,0.748,11.35,-13.92,4.03,4,6
19094.25,0.255,0.541,0.755,10.19,-11.2,3.42,4,6
19094.265,0.258,0.551,0.752,10.41,-7.93,3.33,4,6
19094.265,0.25,0.552,0.756,10.99,-4.67,2.66,4,6
19094.281,0.237,0.559,0.768,10.59,-2.32,1.68,4,6
19094.296,0.222,0.559,0.774,8.94,-1.46,0.73,4,6
19094.296,0.223,0.557,0.779,6.35,-1.71,-0.06,4,6
19094.312,0.228,0.554,0.776,3.11,-0.67,-1.1,4,6
19094.312,0.232,0.549,0.77,2.72,0.7,-1.5,4,6
19094.328,0.228,0.543,0.771,1.86,1.22,-1.8,4,6
19094.343,0.219,0.552,0.79,0.67,0.61,-2.11,4,6
19094.359,0.221,0.554,0.81,0.15,-0.34,-2.44,4,6
19094.359,0.214,0.553,0.812,1.62,-0.67,-2.32,4,6
19094.375,0.21,0.555,0.813,4.52,-0.98,-1.56,4,6
19094.375,0.209,0.563,0.813,7.23,-1.68,-0.76,4,6
19094.406,0.207,0.553,0.798,9.55,-4.09,0.64,4,6
19094.406,0.211,0.555,0.796,8.67,-5.16,0.58,4,6
19094.421,0.215,0.56,0.784,7.35,-6.38,-0.06,4,6
19094.437,0.226,0.567,0.763,5.8,-6.96,-0.24,4,6
19094.437,0.237,0.575,0.747,3.45,-6.16,-0.18,4,6
19094.453,0.247,0.578,0.74,0.79,-4.33,-0.06,4,6
19094.453,0.249,0.579,0.727,-1.34,-1.95,-0.24,4,6
19094.468,0.245,0.584,0.727,-4.15,0.89,-0.49,4,6
19094.484,0.242,0.586,0.744,-8.15,3.2,-0.67,4,6
19094.484,0.231,0.587,0.776,-11.72,4.76,-0.76,4,6
19094.5,0.211,0.578,0.805,-12.79,5.07,-0.24,4,6
19094.515,0.183,0.586,0.833,-13.06,2.99,1.25,4,6
19094.515,0.173,0.603,0.868,-15.29,-2.59,3.97,4,6
19094.531,0.181,0.597,0.877,-20.08,-10.28,6.78,4,6
19094.546,0.196,0.559,0.84,-23.22,-17.18,8.36,4,6
19094.546,0.222,0.518,0.801,-22.1,-20.57,9.28,4,6
19094.562,0.256,0.495,0.742,-9.09,-14.34,8.39,4,6
19094.578,0.274,0.487,0.72,-4.43,-8.36,6.38,4,6
19094.593,0.28,0.493,0.735,-2.5,-1.71,3.51,4,6
19094.593,0.269,0.511,0.776,-2.01,3.23,1.31,4,6
19094.609,0.245,0.533,0.827,-1.16,4.82,-0.24,4,6
19094.625,0.212,0.558,0.874,-0.15,2.47,-0.95,4,6
19094.625,0.204,0.563,0.885,-1.19,-3.91,-1.07,4,6
19094.64,0.21,0.536,0.854,-0.76,-10.25,-1.16,4,6
19094.656,0.22,0.516,0.818,1.04,-13.37,-0.46,4,6
19094.656,0.24,0.515,0.787,2.99,-13.89,0.82,4,6
19094.671,0.258,0.506,0.767,5.43,-12.27,1.5,4,6
19094.687,0.269,0.495,0.755,7.72,-8.88,0.73,4,6
19094.687,0.268,0.496,0.752,9.34,-5.13,-1.19,4,6
19094.703,0.262,0.508,0.76,10.01,-1.92,-3.88,4,6
19094.703,0.263,0.518,0.769,9.25,-0.27,-7.11,4,6
19094.718,0.266,0.525,0.777,8.55,0.82,-10.35,4,6
19094.734,0.243,0.554,0.803,8.79,1.83,-12.82,4,6
19094.75,0.228,0.581,0.815,8.58,0.46,-12.91,4,6
19094.75,0.227,0.596,0.819,7.35,-2.32,-11.69,4,6
19094.765,0.215,0.598,0.804,8.24,-4.24,-9.77,4,6
19094.765,0.218,0.59,0.779,8.91,-5.46,-6.65,4,6
19094.781,0.234,0.586,0.756,7.63,-5.4,-3.78,4,6
19094.796,0.247,0.577,0.737,5.28,-3.91,-2.23,4,6
19094.796,0.263,0.568,0.733,1.56,-1.31,-1.74,4,6
19094.812,0.278,0.55,0.734,-1.59,1.59,-2.04,4,6
19094.812,0.284,0.532,0.74,-2.53,4.55,-3.45,4,6
19094.828,0.279,0.527,0.752,-1.71,7.72,-5.86,4,6
19094.843,0.271,0.532,0.777,-1.56,9.74,-8.55,4,6
19094.843,0.254,0.542,0.821,-1.71,9.8,-11.05,4,6
19094.859,0.231,0.545,0.843,0.03,7.9,-12.45,4,6
19094.875,0.209,0.547,0.855,2.78,4.7,-12.45,4,6
19094.89,0.194,0.55,0.849,5.92,1.37,-11.69,4,6
19094.89,0.19,0.554,0.831,8.18,-1.46,-10.1,4,6
19094.89,0.188,0.56,0.807,8.61,-3.36,-8.55,4,6
19094.906,0.192,0.563,0.782,7.29,-4.39,-7.32,4,6
19094.921,0.2,0.559,0.756,6.04,-4.06,-6.32,4,6
19094.921,0.211,0.553,0.738,4.67,-2.62,-5.83,4,6
19094.937,0.22,0.557,0.738,3.17,-0.27,-6.01,4,6
19094.953,0.225,0.561,0.746,2.41,2.26,-6.41,4,6
19094.953,0.225,0.574,0.762,1.46,4.21,-7.05,4,6
19094.968,0.204,0.59,0.804,1.16,4.64,-7.57,4,6
19094.984,0.187,0.609,0.828,1.86,1.95,-6.81,4,6
19094.984,0.189,0.619,0.834,1.25,-3.78,-5.34,4,6
19095.0,0.196,0.612,0.808,0.92,-8.94,-3.97,4,6
19095.015,0.207,0.59,0.776,0.09,-11.78,-2.75,4,6
19095.031,0.222,0.586,0.751,-0.15,-12.45,-1.13,4,6
19095.031,0.236,0.582,0.737,-0.98,-11.14,0.27,4,6
19095.031,0.249,0.573,0.734,-2.66,-8.85,1.01,4,6
19095.046,0.258,0.563,0.739,-4.3,-6.07,0.61,4,6
19095.062,0.257,0.554,0.754,-5.46,-3.42,-0.7,4,6
19095.062,0.239,0.566,0.773,-5.89,-1.59,-2.29,4,6
19095.078,0.222,0.577,0.792,-7.05,-1.83,-3.23,4,6
19095.093,0.208,0.589,0.82,-8.36,-3.88,-3.57,4,6
19095.093,0.19,0.592,0.825,-8.91,-6.74,-2.84,4,6
19095.109,0.194,0.58,0.815,-9.34,-10.07,-1.04,4,6
19095.125,0.207,0.561,0.792,-8.97,-12.02,0.37,4,6
19095.125,0.219,0.542,0.768,-7.93,-11.66,1.25,4,6
19095.14,0.227,0.532,0.759,-6.74,-9.37,1.95,4,6
19095.156,0.239,0.528,0.761,-5.49,-6.5,1.95,4,6
19095.156,0.248,0.526,0.76,-4.15,-3.66,1.37,4,6
19095.171,0.253,0.52,0.764,-3.14,-1.07,-0.09,4,6
19095.171,0.248,0.522,0.78,-1.92,1.01,-2.2,4,6
19095.187,0.247,0.526,0.794,-0.64,1.86,-4.3,4,6
19095.203,0.251,0.522,0.795,0.79,1.62,-6.65,4,6
19095.203,0.252,0.527,0.797,2.72,1.65,-8.91,4,6
19095.218,0.241,0.537,0.803,4.82,2.04,-10.41,4,6
19095.234,0.225,0.554,0.802,7.39,2.2,-10.74,4,6
19095.234,0.22,0.567,0.791,9.13,1.28,-10.04,4,6
19095.25,0.217,0.582,0.777,9.67,0.61,-9.0,4,6
19095.265,0.217,0.593,0.763,8.24,0.89,-8.27,4,6
19095.265,0.218,0.578,0.753,6.47,1.89,-7.23,4,6
19095.281,0.214,0.577,0.766,4.24,2.99,-6.65,4,6
19095.296,0.217,0.58,0.78,0.43,2.53,-6.13,4,6
19095.296,0.221,0.569,0.783,-0.31,1.86,-6.9,4,6
19095.312,0.222,0.555,0.784,-0.03,1.83,-7.87,4,6
19095.312,0.222,0.555,0.785,0.09,2.35,-8.03,4,6
19095.328,0.222,0.566,0.769,-0.09,3.02,-7.87,4,6
19095.343,0.219,0.564,0.771,-0.27,4.49,-7.97,4,6
19095.343,0.213,0.559,0.776,-0.27,5.83,-8.24,4,6
19095.359,0.209,0.562,0.789,0.03,6.35,-8.79,4,6
19095.375,0.2,0.566,0.812,1.13,6.04,-9.58,4,6
19095.375,0.186,0.569,0.836,3.97,4.18,-9.74,4,6
19095.39,0.177,0.562,0.86,7.48,0.24,-9.28,4,6
19095.39,0.179,0.547,0.855,12.05,-3.85,-8.85,4,6
19095.406,0.172,0.552,0.845,17.15,-6.44,-8.18,4,6
19095.437,0.139,0.624,0.843,29.05,-10.83,-0.89,4,6
19095.437,0.155,0.643,0.812,32.14,-14.25,4.88,4,6
19095.453,0.172,0.632,0.79,32.53,-15.84,9.92,4,6
19095.453,0.185,0.623,0.778,32.11,-16.6,13.82,4,6
19095.468,0.2,0.624,0.791,31.37,-16.79,16.94,4,6
19095.484,0.19,0.627,0.841,33.05,-18.07,19.53,4,6
19095.484,0.177,0.612,0.911,37.39,-23.9,22.0,4,6
19095.5,0.195,0.628,0.949,41.51,-34.21,24.78,4,6
19095.515,0.205,0.639,0.951,49.75,-43.03,29.05,4,6
19095.515,0.177,0.662,0.957,58.69,-51.24,34.3,4,6
19095.531,0.188,0.667,0.885,65.61,-61.43,40.56,4,6
19095.531,0.241,0.675,0.787,69.03,-68.7,45.78,4,6
19095.546,0.297,0.657,0.724,73.27,-70.77,46.48,4,6
19095.562,0.365,0.627,0.673,78.37,-67.87,42.42,4,6
19095.562,0.424,0.657,0.672,78.07,-61.22,35.46,4,6
19095.578,0.526,0.734,0.676,73.61,-51.06,26.25,4,6
19095.609,0.566,0.954,0.949,15.47,-16.3,31.37,4,6
19095.609,0.519,0.84,1.009,15.56,-11.99,36.5,4,6
19095.625,0.535,0.919,1.069,17.0,-19.71,50.02,4,6
19095.625,0.608,0.945,1.076,18.25,-33.11,58.96,4,6
19095.64,0.713,0.91,1.07,17.37,-47.7,58.26,4,6
19095.656,0.804,0.855,1.039,18.83,-61.46,50.75,4,6
19095.656,0.887,0.82,1.001,25.57,-73.58,37.72,4,6
19095.671,0.933,0.782,0.966,35.68,-83.25,23.9,4,6
19095.687,0.973,0.761,0.928,48.01,-91.34,12.09,4,6
19095.687,1.008,0.759,0.864,60.34,-95.49,2.29,4,6
19095.703,1.023,0.776,0.8,69.46,-94.94,-5.46,4,6
19095.703,1.017,0.798,0.764,74.98,-91.86,-12.12,4,6
19095.718,1.009,0.788,0.725,79.07,-89.08,-18.59,4,6
19095.734,0.979,0.771,0.691,84.96,-87.44,-27.07,4,6
19095.734,0.914,0.784,0.658,95.49,-87.53,-38.94,4,6
19095.75,0.806,0.798,0.609,110.05,-91.43,-50.84,4,6
19095.765,0.829,0.866,0.571,125.1,-97.6,-60.4,4,6
19095.765,0.654,0.857,0.503,142.46,-95.52,-65.71,4,6
19095.781,0.642,0.824,0.409,158.33,-99.95,-60.52,4,6
19095.796,0.661,0.946,0.348,168.58,-98.09,-62.53,4,6
19095.796,0.578,0.938,0.277,169.1,-92.59,-61.25,4,6
19095.812,0.535,0.882,0.231,159.92,-91.86,-54.17,4,6
19095.812,0.507,0.902,0.203,150.06,-91.01,-49.01,4,6
19095.828,0.463,0.944,0.148,139.84,-87.68,-39.0,4,6
19095.843,0.458,0.992,0.102,119.57,-82.25,-26.34,4,6
19095.843,0.444,1.003,0.092,92.56,-75.9,-17.79,4,6
19095.859,0.408,0.934,0.087,68.0,-68.58,-10.19,4,6
19095.875,0.371,0.855,0.098,51.15,-62.78,-4.24,4,6
19095.875,0.326,0.792,0.127,46.21,-60.55,-0.12,4,6
19095.89,0.286,0.699,0.115,50.75,-58.32,1.04,4,6
19095.906,0.242,0.626,0.087,55.42,-58.05,-2.35,4,6
19095.906,0.196,0.569,0.052,57.65,-60.52,-8.73,4,6
19095.921,0.175,0.522,0.006,57.99,-63.78,-15.87,4,6
19095.921,0.172,0.502,-0.055,55.91,-65.34,-25.88,4,6
19095.937,0.158,0.479,-0.111,49.9,-64.67,-38.39,4,6
19095.953,0.157,0.433,-0.151,39.64,-62.32,-49.75,4,6
19095.953,0.188,0.402,-0.164,28.47,-57.8,-58.81,4,6
19095.968,0.232,0.404,-0.148,20.26,-48.71,-64.91,4,6
19095.984,0.253,0.429,-0.086,14.4,-36.1,-69.09,4,6
19095.984,0.238,0.451,0.014,12.45,-25.03,-70.44,4,6
19096.0,0.215,0.488,0.118,16.51,-18.22,-67.42,4,6
19096.015,0.181,0.584,0.202,21.82,-15.41,-59.66,4,6
19096.015,0.2,0.7,0.238,19.26,-18.68,-50.45,4,6
19096.031,0.195,0.799,0.272,2.44,-25.24,-42.05,4,6
19096.046,0.211,0.848,0.309,-22.16,-34.49,-32.75,4,6
19096.046,0.268,0.876,0.323,-44.13,-44.19,-26.73,4,6
19096.062,0.303,0.913,0.329,-59.51,-50.48,-22.86,4,6
19096.062,0.323,0.935,0.347,-66.93,-54.41,-18.83,4,6
19096.078,0.316,0.958,0.346,-66.26,-57.31,-15.87,4,6
19096.093,0.327,0.993,0.302,-59.08,-62.78,-8.09,4,6
19096.109,0.334,1.02,0.297,-57.13,-61.86,-9.49,4,6
19096.125,0.297,1.012,0.296,-56.79,-58.11,-13.12,4,6
19096.125,0.304,1.047,0.306,-59.3,-54.54,-18.52,4,6
19096.14,0.258,1.041,0.304,-61.07,-52.55,-25.76,4,6
19096.156,0.215,1.013,0.301,-65.4,-50.23,-32.87,4,6
19096.156,0.196,1.005,0.306,-70.31,-46.91,-40.53,4,6
19096.171,0.164,0.99,0.345,-64.42,-42.76,-49.87,4,6
19096.171,0.089,0.96,0.345,-42.51,-41.41,-58.93,4,6
19096.187,0.038,0.924,0.33,-12.67,-43.67,-62.41,4,6
19096.203,0.04,0.898,0.293,23.35,-47.27,-60.18,4,6
19096.203,0.081,0.951,0.202,59.72,-49.13,-54.41,4,6
19096.218,0.126,0.987,0.1,82.31,-46.63,-44.98,4,6
19096.234,0.115,0.969,0.015,85.54,-41.87,-34.7,4,6
19096.25,0.132,0.97,-0.016,71.78,-38.67,-22.49,4,6
19096.25,0.123,0.973,-0.021,52.03,-36.13,-15.02,4,6
19096.265,0.091,0.915,0.01,14.07,-38.91,-2.96,4,6
19096.281,0.087,0.871,0.045,4.79,-52.95,8.18,4,6
19096.281,0.077,0.857,0.043,10.07,-59.42,13.7,4,6
19096.296,0.1,0.877,0.015,13.0,-62.26,18.49,4,6
19096.312,0.167,0.881,-0.101,11.99,-60.06,22.13,4,6
19096.312,0.196,0.878,-0.127,8.42,-52.34,25.7,4,6
19096.328,0.204,0.872,-0.126,4.82,-41.81,30.06,4,6
19096.343,0.184,0.866,-0.115,1.83,-30.12,32.9,4,6
19096.343,0.133,0.856,-0.088,-4.3,-21.49,36.29,4,6
19096.359,0.099,0.867,-0.046,-12.21,-18.77,39.34,4,6
19096.375,0.086,0.862,-0.025,-18.43,-22.19,42.33,4,6
19096.375,0.112,0.86,-0.019,-22.92,-28.87,46.3,4,6
19096.39,0.165,0.862,-0.024,-26.06,-34.64,50.26,4,6
19096.406,0.219,0.837,-0.046,-28.72,-36.35,54.02,4,6
19096.406,0.3,0.837,-0.073,-32.35,-32.9,57.37,4,6
19096.421,0.336,0.861,-0.089,-38.24,-25.21,57.59,4,6
19096.421,0.319,0.823,-0.083,-45.17,-17.12,55.94,4,6
19096.437,0.337,0.794,-0.04,-47.82,-12.21,52.46,4,6
19096.453,0.327,0.785,-0.005,-41.05,-6.84,46.75,4,6
19096.453,0.308,0.782,0.012,-32.29,-3.36,42.45,4,6
19096.468,0.315,0.807,0.024,-28.05,-3.72,39.89,4,6
19096.484,0.322,0.827,0.032,-28.32,-5.62,38.0,4,6
19096.484,0.341,0.849,0.046,-31.28,-8.39,36.16,4,6
19096.5,0.348,0.867,0.066,-33.33,-10.47,34.03,4,6
19096.515,0.363,0.857,0.055,-33.81,-12.42,33.45,4,6
19096.515,0.399,0.839,0.045,-33.39,-13.43,34.21,4,6
19096.531,0.411,0.829,0.033,-30.98,-11.69,34.09,4,6
19096.546,0.408,0.824,0.016,-28.38,-8.12,32.84,4,6
19096.546,0.404,0.818,0.014,-26.89,-4.46,30.82,4,6
19096.562,0.395,0.797,0.02,-24.38,-1.71,27.83,4,6
19096.578,0.394,0.791,0.035,-19.47,-0.21,25.21,4,6
19096.578,0.401,0.81,0.042,-13.46,0.0,22.71,4,6
19096.593,0.4,0.817,0.035,-8.51,0.98,20.72,4,6
19096.593,0.414,0.827,0.03,-6.35,2.41,20.05,4,6
19096.609,0.436,0.85,0.021,-7.78,4.61,20.39,4,6
19096.625,0.443,0.869,0.023,-12.24,8.12,20.14,4,6
19096.625,0.456,0.867,0.035,-17.27,11.87,19.59,4,6
19096.64,0.457,0.859,0.061,-20.02,16.3,20.23,4,6
19096.656,0.433,0.845,0.091,-19.93,20.02,21.94,4,6
19096.656,0.413,0.829,0.102,-19.59,20.45,24.14,4,6
19096.671,0.417,0.839,0.111,-21.12,18.68,25.51,4,6
19096.687,0.412,0.843,0.13,-22.86,15.87,25.06,4,6
19096.687,0.417,0.823,0.144,-23.99,12.33,24.51,4,6
19096.703,0.446,0.809,0.148,-23.93,9.55,24.6,4,6
19096.703,0.474,0.807,0.141,-21.94,9.16,25.21,4,6
19096.718,0.469,0.807,0.141,-20.02,9.49,25.06,4,6
19096.734,0.471,0.807,0.135,-21.21,9.03,25.03,4,6
19096.734,0.484,0.801,0.137,-24.57,8.18,24.32,4,6
19096.75,0.501,0.78,0.143,-25.67,8.55,23.32,4,6
19096.765,0.511,0.772,0.15,-22.34,9.52,22.03,4,6
19096.765,0.535,0.771,0.152,-16.66,10.59,20.94,4,6
19096.781,0.549,0.784,0.152,-11.44,12.27,18.07,4,6
19096.781,0.545,0.789,0.16,-7.39,14.16,13.92,4,6
19096.796,0.511,0.808,0.18,-4.58,15.44,10.8,4,6
19096.812,0.483,0.809,0.195,-2.87,14.62,10.96,4,6
19096.812,0.48,0.815,0.194,-4.0,11.66,12.73,4,6
19096.828,0.491,0.814,0.194,-7.14,8.79,14.71,4,6
19096.843,0.518,0.809,0.197,-10.62,7.2,15.93,4,6
19096.843,0.529,0.789,0.205,-11.54,8.06,16.85,4,6
19096.859,0.548,0.774,0.216,-9.83,9.55,18.1,4,6
19096.875,0.543,0.783,0.215,-5.83,11.32,17.88,4,6
19096.875,0.523,0.785,0.223,-3.27,11.72,16.69,4,6
19096.89,0.532,0.795,0.232,-4.33,9.4,15.78,4,6
19096.906,0.531,0.794,0.236,-5.43,7.11,14.59,4,6
19096.906,0.527,0.781,0.241,-6.84,4.12,14.16,4,6
19096.921,0.525,0.773,0.251,-7.57,0.55,14.28,4,6
19096.921,0.534,0.755,0.251,-6.71,-2.78,14.59,4,6
19096.937,0.552,0.737,0.243,-5.1,-5.49,14.4,4,6
19096.953,0.563,0.724,0.235,-3.88,-6.81,13.46,4,6
19096.953,0.565,0.717,0.241,-3.54,-7.35,11.29,4,6
19096.968,0.546,0.701,0.241,-2.53,-7.87,7.9,4,6
19096.984,0.546,0.701,0.24,-1.95,-9.34,4.06,4,6
19096.984,0.554,0.707,0.231,-1.28,-10.8,-0.37,4,6
19097.0,0.541,0.699,0.224,-1.34,-11.63,-3.48,4,6
19097.015,0.544,0.707,0.222,-1.22,-13.28,-5.01,4,6
19097.015,0.539,0.723,0.215,0.37,-14.37,-6.78,4,6
19097.031,0.519,0.724,0.205,1.62,-15.29,-7.9,4,6
19097.046,0.523,0.737,0.207,1.37,-17.3,-8.12,4,6
19097.046,0.535,0.749,0.219,1.16,-18.65,-7.26,4,6
19097.062,0.541,0.763,0.216,1.53,-19.87,-6.32,4,6
19097.062,0.555,0.776,0.204,1.01,-21.0,-6.23,4,6
19097.078,0.565,0.788,0.198,-1.62,-21.36,-6.62,4,6
19097.093,0.571,0.787,0.198,-4.06,-20.97,-7.6,4,6
19097.109,0.59,0.783,0.197,-4.43,-20.02,-9.09,4,6
19097.109,0.61,0.787,0.191,-2.72,-17.43,-11.69,4,6
19097.125,0.601,0.795,0.196,0.06,-13.28,-15.53,4,6
19097.125,0.566,0.799,0.218,3.05,-10.04,-18.65,4,6
19097.14,0.537,0.815,0.246,5.34,-8.73,-19.62,4,6
19097.156,0.52,0.849,0.272,6.99,-10.13,-20.33,4,6
19097.156,0.504,0.87,0.277,7.87,-13.55,-20.63,4,6
19097.171,0.521,0.881,0.272,7.02,-17.94,-19.35,4,6
19097.171,0.529,0.878,0.25,6.38,-20.33,-17.82,4,6
19097.187,0.55,0.872,0.231,5.1,-20.75,-15.29,4,6
19097.203,0.553,0.886,0.231,4.18,-19.9,-14.68,4,6
19097.203,0.545,0.873,0.233,5.01,-19.41,-14.92,4,6
19097.218,0.55,0.904,0.236,6.26,-20.81,-17.37,4,6
19097.234,0.533,0.905,0.237,8.76,-22.61,-21.03,4,6
19097.25,0.516,0.909,0.232,11.6,-25.36,-23.9,4,6
19097.25,0.504,0.915,0.217,13.28,-28.57,-24.93,4,6
19097.265,0.51,0.913,0.213,15.23,-35.62,-30.67,4,6
19097.265,0.51,0.902,0.199,15.93,-39.61,-35.4,4,6
19097.281,0.473,0.884,0.194,17.52,-46.3,-41.57,4,6
19097.296,0.468,0.865,0.199,23.04,-54.35,-51.33,4,6
19097.296,0.479,0.837,0.171,33.14,-60.91,-61.31,4,6
19097.312,0.485,0.841,0.131,45.9,-63.88,-70.41,4,6
19097.328,0.497,0.852,0.091,59.21,-64.33,-78.92,4,6
19097.328,0.516,0.877,0.056,70.96,-61.16,-84.84,4,6
19097.343,0.52,0.945,0.031,78.16,-55.12,-86.46,4,6
19097.343,0.514,1.012,0.032,79.78,-49.13,-85.82,4,6
19097.359,0.485,1.047,0.02,77.18,-44.22,-82.58,4,6
19097.375,0.408,1.059,0.022,70.89,-40.44,-76.63,4,6
19097.375,0.355,1.033,0.023,67.02,-38.88,-66.56,4,6
19097.39,0.35,1.039,-0.009,66.87,-39.09,-56.18,4,6
19097.406,0.307,1.038,-0.055,65.55,-37.93,-46.11,4,6
19097.406,0.377,1.026,-0.094,60.15,-35.83,-36.04,4,6
19097.421,0.576,1.148,-0.169,50.9,-32.23,-39.77,4,6
19097.437,0.329,1.099,-0.219,32.93,-19.62,-49.41,4,6
19097.437,0.277,0.963,-0.151,5.71,-8.18,-35.95,4,6
19097.453,0.38,1.072,-0.083,-6.99,-5.49,-23.83,4,6
19097.453,0.324,1.051,-0.061,-5.92,-2.78,-12.73,4,6
19097.468,0.335,0.96,-0.032,-8.58,-3.33,0.52,4,6
19097.484,0.386,0.989,-0.012,-10.59,-4.82,9.03,4,6
19097.484,0.382,0.977,-0.01,-10.1,-4.55,13.18,4,6
19097.5,0.374,0.91,0.011,-12.85,-3.85,18.37,4,6
19097.515,0.367,0.903,0.02,-14.53,-5.28,21.0,4,6
19097.515,0.336,0.861,0.013,-13.15,-8.3,20.45,4,6
19097.531,0.353,0.816,0.002,-7.45,-12.39,17.82,4,6
19097.546,0.383,0.81,-0.049,3.97,-14.8,12.09,4,6
19097.546,0.37,0.797,-0.117,14.56,-13.76,7.11,4,6
19097.562,0.377,0.795,-0.169,18.65,-10.74,6.74,4,6
19097.562,0.385,0.83,-0.221,16.08,-4.82,9.83,4,6
19097.578,0.366,0.871,-0.242,6.62,1.37,13.25,4,6
19097.593,0.352,0.883,-0.215,-7.05,5.68,15.96,4,6
19097.609,0.359,0.878,-0.162,-18.49,7.08,18.92,4,6
19097.609,0.42,0.873,-0.11,-21.55,7.72,22.03,4,6
19097.625,0.431,0.87,-0.077,-16.57,9.43,22.37,4,6
19097.625,0.455,0.847,-0.052,-9.67,8.97,19.29,4,6
19097.64,0.493,0.843,-0.038,-1.56,7.2,10.71,4,6
19097.656,0.504,0.861,-0.037,9.28,5.28,-2.38,4,6
19097.656,0.5,0.89,-0.034,19.96,3.66,-16.27,4,6
19097.671,0.486,0.942,-0.035,28.53,2.29,-26.7,4,6
19097.671,0.481,1.01,-0.036,33.94,1.22,-31.86,4,6
19097.687,0.448,1.082,-0.033,33.94,0.06,-32.84,4,6
19097.703,0.409,1.128,-0.019,29.08,-1.77,-29.73,4,6
19097.703,0.362,1.154,-0.004,22.64,-3.14,-22.49,4,6
19097.718,0.319,1.16,0.003,16.33,-4.79,-12.3,4,6
19097.734,0.269,1.137,0.008,10.07,-6.5,-0.89,4,6
19097.734,0.235,1.111,0.013,3.88,-9.13,7.66,4,6
19097.75,0.193,1.098,-0.002,-1.19,-12.21,11.02,4,6
19097.765,0.172,1.073,-0.035,-5.74,-17.09,13.09,4,6
19097.765,0.161,1.085,-0.041,-8.94,-23.9,15.38,4,6
19097.781,0.123,1.122,-0.019,-6.59,-32.17,15.23,4,6
19097.796,0.114,1.171,-0.002,2.01,-43.12,10.9,4,6
19097.796,0.129,1.219,-0.015,17.67,-54.23,3.57,4,6
19097.812,0.188,1.256,-0.07,34.36,-63.63,-2.81,4,6
19097.812,0.269,1.309,-0.128,47.06,-67.81,-8.0,4,6
19097.828,0.279,1.314,-0.185,49.65,-70.8,-8.79,4,6
19097.843,0.324,1.288,-0.233,43.37,-75.47,-5.1,4,6
19097.859,0.375,1.232,-0.27,34.94,-77.33,1.16,4,6
19097.859,0.425,1.147,-0.319,27.44,-73.12,9.98,4,6
19097.875,0.465,1.081,-0.352,18.98,-64.67,21.27,4,6
19097.875,0.496,1.023,-0.343,11.69,-53.19,32.99,4,6
19097.89,0.507,0.953,-0.293,7.39,-39.92,44.07,4,6
19097.906,0.488,0.89,-0.227,7.97,-27.07,51.45,4,6
19097.906,0.453,0.828,-0.182,13.31,-16.85,54.78,4,6
19097.921,0.404,0.781,-0.177,19.68,-9.25,55.42,4,6
19097.921,0.374,0.732,-0.186,22.06,-3.05,55.15,4,6
19097.937,0.361,0.693,-0.206,18.59,1.25,52.37,4,6
19097.953,0.349,0.656,-0.236,12.21,4.94,46.27,4,6
19097.953,0.342,0.653,-0.256,3.51,9.31,37.84,4,6
19097.968,0.316,0.638,-0.244,-5.25,14.1,26.64,4,6
19097.984,0.303,0.575,-0.209,-7.05,17.79,15.56,4,6
19097.984,0.312,0.584,-0.191,-0.12,22.95,6.16,4,6
19098.0,0.307,0.631,-0.171,10.96,31.04,-3.78,4,6
19098.015,0.265,0.589,-0.157,18.95,35.55,-9.0,4,6
19098.015,0.287,0.578,-0.138,18.89,33.81,-4.58,4,6
19098.031,0.321,0.631,-0.124,16.48,35.49,0.55,4,6
19098.046,0.331,0.632,-0.115,10.47,38.0,6.93,4,6
19098.046,0.334,0.576,-0.084,-1.07,38.94,16.24,4,6
19098.062,0.347,0.533,-0.067,-10.74,40.74,24.14,4,6
19098.062,0.341,0.485,-0.073,-14.68,41.69,28.84,4,6
19098.078,0.348,0.463,-0.065,-16.39,41.38,31.4,4,6
19098.093,0.326,0.451,-0.06,-18.13,39.92,29.91,4,6
19098.093,0.35,0.436,-0.061,-22.06,34.36,28.81,4,6
19098.109,0.412,0.48,-0.041,-26.64,29.11,25.67,4,6
19098.125,0.434,0.524,-0.047,-26.09,26.58,18.07,4,6
19098.125,0.431,0.54,-0.044,-25.45,24.54,12.36,4,6
19098.14,0.411,0.546,-0.017,-25.27,21.12,8.97,4,6
19098.156,0.423,0.566,-0.003,-22.46,17.0,6.35,4,6
19098.156,0.433,0.597,-0.005,-19.38,12.67,1.62,4,6
19098.171,0.448,0.598,0.007,-15.59,7.51,-5.68,4,6
19098.171,0.46,0.599,0.014,-8.03,2.9,-13.43,4,6
19098.187,0.471,0.637,0.012,1.01,-1.16,-20.45,4,6
19098.203,0.478,0.673,-0.02,9.52,-4.73,-26.86,4,6
19098.203,0.483,0.724,-0.063,14.65,-7.05,-32.44,4,6
19098.218,0.487,0.775,-0.091,16.27,-8.21,-37.87,4,6
19098.234,0.495,0.814,-0.098,17.24,-7.69,-43.31,4,6
19098.234,0.461,0.85,-0.078,21.55,-5.43,-48.19,4,6
19098.25,0.405,0.861,-0.034,47.4,-9.67,-48.83,4,6
19098.265,0.361,0.869,0.009,64.88,-17.37,-45.2,4,6
19098.265,0.339,0.902,0.02,79.35,-27.38,-40.44,4,6
19098.281,0.362,0.97,-0.101,85.82,-36.9,-33.23,4,6
19098.296,0.396,1.001,-0.168,80.42,-42.39,-23.87,4,6
19098.296,0.42,1.002,-0.214,67.84,-44.74,-13.98,4,6
19098.312,0.438,0.971,-0.264,53.47,-44.83,-4.36,4,6
19098.312,0.456,0.951,-0.262,38.58,-42.54,5.04,4,6
19098.328,0.462,0.934,-0.258,26.52,-39.77,12.05,4,6
19098.343,0.47,0.907,-0.272,15.75,-36.84,17.12,4,6
19098.359,0.489,0.895,-0.285,5.1,-33.94,20.66,4,6
19098.359,0.503,0.886,-0.293,-2.93,-30.18,20.72,4,6
19098.375,0.49,0.872,-0.296,-7.66,-25.12,18.92,4,6
19098.375,0.476,0.847,-0.301,-10.04,-20.08,17.03,4,6
19098.39,0.475,0.823,-0.316,-10.99,-14.47,15.96,4,6
19098.39,0.47,0.837,-0.316,-12.57,-7.78,15.32,4,6
19098.406,0.467,0.844,-0.31,-15.02,-1.43,14.62,4,6
19098.421,0.467,0.856,-0.276,-18.8,3.39,13.06,4,6
19098.437,0.445,0.863,-0.248,-20.72,6.87,10.16,4,6
19098.437,0.417,0.866,-0.233,-21.42,7.93,7.69,4,6
19098.453,0.404,0.861,-0.22,-20.17,6.78,6.07,4,6
19098.453,0.399,0.849,-0.22,-17.33,5.04,4.43,4,6
19098.468,0.407,0.852,-0.232,-15.56,4.3,4.12,4,6
19098.484,0.418,0.856,-0.237,-17.4,4.82,4.39,4,6
19098.484,0.419,0.845,-0.234,-20.6,6.04,3.91,4,6
19098.5,0.406,0.833,-0.229,-24.05,7.93,3.2,4,6
19098.515,0.399,0.826,-0.22,-26.4,8.94,2.84,4,6
19098.515,0.404,0.825,-0.21,-26.4,8.88,1.86,4,6
19098.531,0.41,0.814,-0.2,-25.15,9.31,0.64,4,6
19098.546,0.419,0.807,-0.187,-22.77,9.55,-0.7,4,6
19098.546,0.413,0.809,-0.173,-19.78,10.35,-2.08,4,6
19098.562,0.405,0.819,-0.15,-17.64,9.55,-3.14,4,6
19098.562,0.393,0.835,-0.133,-16.02,6.93,-4.24,4,6
19098.578,0.387,0.848,-0.137,-14.62,3.48,-4.79,4,6
19098.593,0.378,0.848,-0.154,-14.62,0.34,-3.54,4,6
19098.593,0.376,0.848,-0.168,-16.63,-2.23,-1.8,4,6
19098.609,0.381,0.844,-0.177,-19.2,-3.54,-0.79,4,6
19098.625,0.39,0.838,-0.187,-21.09,-3.57,-1.19,4,6
19098.625,0.384,0.839,-0.183,-21.52,-2.69,-2.14,4,6
19098.64,0.383,0.832,-0.193,-20.48,-1.8,-2.87,4,6
19098.64,0.391,0.841,-0.183,-20.63,-0.98,-3.42,4,6
19098.656,0.412,0.842,-0.155,-20.33,-0.52,-3.72,4,6
19098.671,0.417,0.846,-0.136,-19.84,0.61,-4.43,4,6
19098.671,0.413,0.845,-0.125,-19.1,2.11,-4.76,4,6
19098.687,0.411,0.837,-0.107,-17.82,2.38,-4.61,4,6
19098.703,0.417,0.829,-0.096,-15.87,2.32,-3.66,4,6
19098.703,0.426,0.822,-0.099,-13.06,2.87,-2.87,4,6
19098.718,0.431,0.83,-0.102,-10.83,4.18,-2.26,4,6
19098.734,0.435,0.833,-0.104,-10.41,5.49,-1.83,4,6
19098.734,0.442,0.832,-0.1,-12.21,6.41,-1.89,4,6
19098.75,0.437,0.828,-0.095,-15.17,7.51,-2.56,4,6
19098.765,0.431,0.819,-0.081,-18.31,8.21,-2.56,4,6
19098.765,0.427,0.802,-0.063,-19.62,8.58,-2.35,4,6
19098.781,0.411,0.792,-0.05,-19.59,8.91,-2.35,4,6
19098.796,0.398,0.781,-0.041,-19.07,7.45,-2.69,4,6
19098.796,0.402,0.773,-0.034,-19.07,4.58,-3.33,4,6
19098.812,0.414,0.771,-0.031,-19.44,2.08,-4.52,4,6
19098.812,0.417,0.772,-0.038,-18.92,0.24,-5.92,4,6
19098.828,0.416,0.774,-0.038,-18.71,-0.95,-7.26,4,6
19098.843,0.416,0.774,-0.044,-20.02,-1.25,-8.64,4,6
19098.859,0.396,0.767,-0.055,-21.42,-0.31,-9.43,4,6
19098.859,0.38,0.764,-0.058,-23.35,0.12,-9.7,4,6
19098.875,0.385,0.762,-0.058,-25.27,-0.15,-10.07,4,6
19098.875,0.387,0.765,-0.06,-26.09,-0.06,-11.6,4,6
19098.89,0.379,0.773,-0.043,-25.45,-0.31,-13.86,4,6
19098.906,0.369,0.785,-0.029,-23.62,-0.95,-16.45,4,6
19098.906,0.351,0.791,-0.03,-20.72,-1.43,-18.34,4,6
19098.921,0.34,0.794,-0.04,-19.29,-2.08,-18.62,4,6
19098.921,0.34,0.799,-0.06,-20.91,-2.2,-17.88,4,6
19098.937,0.343,0.807,-0.07,-24.72,-1.53,-17.33,4,6
19098.953,0.357,0.805,-0.065,-28.35,-0.49,-17.58,4,6
19098.953,0.364,0.806,-0.059,-30.55,1.74,-18.01,4,6
19098.968,0.354,0.808,-0.044,-30.37,4.55,-18.19,4,6
19098.984,0.342,0.809,-0.031,-29.88,6.71,-17.15,4,6
19098.984,0.32,0.82,-0.023,-31.13,7.9,-15.44,4,6
19099.0,0.3,0.823,-0.009,-34.0,7.63,-14.01,4,6
19099.015,0.299,0.82,0.008,-37.93,6.26,-12.67,4,6
19099.015,0.299,0.827,0.017,-41.54,4.73,-11.32,4,6
19099.031,0.314,0.829,0.028,-43.76,2.93,-10.8,4,6
19099.046,0.32,0.815,0.03,-43.73,3.08,-10.65,4,6
19099.046,0.314,0.793,0.028,-41.99,4.58,-10.62,4,6
19099.062,0.306,0.774,0.02,-39.74,6.13,-12.02,4,6
19099.062,0.318,0.782,0.021,-38.67,7.42,-15.05,4,6
19099.078,0.323,0.803,0.045,-37.42,8.67,-21.33,4,6
19099.093,0.3,0.814,0.069,-34.91,9.52,-27.89,4,6
19099.093,0.295,0.826,0.089,-31.4,9.61,-31.74,4,6
19099.109,0.276,0.824,0.103,-26.95,10.04,-32.07,4,6
19099.125,0.266,0.824,0.11,-24.17,9.46,-29.36,4,6
19099.14,0.297,0.855,0.117,-24.35,7.42,-26.4,4,6
19099.14,0.314,0.883,0.133,-27.04,6.81,-26.22,4,6
19099.156,0.299,0.875,0.145,-29.66,6.99,-29.21,4,6
19099.156,0.269,0.859,0.153,-30.73,6.1,-31.77,4,6
19099.171,0.264,0.861,0.161,-28.17,4.09,-33.11,4,6
19099.187,0.25,0.87,0.164,-22.37,2.26,-33.36,4,6
19099.187,0.267,0.867,0.144,-16.48,-0.73,-32.35,4,6
19099.203,0.307,0.911,0.129,-12.97,-2.69,-31.77,4,6
19099.203,0.31,0.956,0.126,-11.57,-2.01,-33.85,4,6
19099.218,0.26,0.948,0.115,-13.15,0.98,-35.8,4,6
19099.234,0.201,0.917,0.117,-21.76,6.04,-28.57,4,6
19099.234,0.148,0.885,0.126,-26.92,5.77,-21.52,4,6
19099.25,0.17,0.866,0.114,-34.7,4.36,-16.72,4,6
19099.265,0.24,0.885,0.114,-41.57,4.18,-18.92,4,6
19099.265,0.262,0.926,0.159,-44.4,6.1,-24.6,4,6
19099.281,0.22,0.919,0.18,-43.73,7.9,-27.1,4,6
19099.296,0.184,0.907,0.205,-39.06,7.75,-26.0,4,6
19099.296,0.188,0.883,0.2,-32.96,6.65,-22.28,4,6
19099.312,0.205,0.885,0.192,-32.65,6.74,-18.37,4,6
19099.328,0.208,0.883,0.191,-38.7,8.21,-15.05,4,6
19099.328,0.226,0.896,0.197,-49.32,8.76,-12.67,4,6
19099.343,0.217,0.899,0.229,-58.35,9.25,-13.58,4,6
19099.343,0.173,0.894,0.25,-62.84,10.13,-15.81,4,6
19099.359,0.146,0.877,0.257,-64.85,9.09,-16.79,4,6
19099.375,0.137,0.829,0.256,-63.81,7.9,-15.69,4,6
19099.375,0.157,0.802,0.253,-60.58,7.9,-14.13,4,6
19099.39,0.176,0.808,0.23,-58.32,10.53,-14.07,4,6
19099.406,0.194,0.829,0.229,-62.23,12.94,-14.89,4,6
19099.406,0.206,0.858,0.272,-70.01,14.62,-17.85,4,6
19099.421,0.196,0.86,0.302,-75.23,16.11,-22.86,4,6
19099.421,0.187,0.838,0.362,-76.27,15.72,-29.66,4,6
19099.437,0.156,0.811,0.407,-69.73,15.96,-36.1,4,6
19099.453,0.103,0.808,0.423,-58.9,16.94,-39.0,4,6
19099.453,0.074,0.834,0.41,-50.69,16.85,-37.97,4,6
19099.468,0.091,0.894,0.393,-50.81,14.59,-36.56,4,6
19099.484,0.104,0.962,0.408,-56.55,11.57,-37.81,4,6
19099.484,0.077,0.981,0.417,-61.25,10.07,-40.59,4,6
19099.5,0.044,0.964,0.417,-62.62,9.58,-39.86,4,6
19099.515,0.028,0.926,0.422,-60.79,9.64,-36.29,4,6
19099.515,0.024,0.881,0.412,-56.15,10.68,-32.5,4,6
19099.531,0.057,0.872,0.398,-53.5,11.41,-29.18,4,6
19099.531,0.11,0.9,0.411,-54.05,12.05,-30.12,4,6
19099.546,0.13,0.918,0.432,-55.02,14.13,-35.98,4,6
19099.562,0.1,0.912,0.461,-53.68,16.72,-43.06,4,6
19099.578,0.048,0.903,0.498,-48.68,18.77,-48.1,4,6
19099.578,-0.002,0.875,0.518,-41.57,19.35,-49.84,4,6
19099.593,-0.022,0.872,0.508,-37.51,18.19,-49.13,4,6
19099.593,0.011,0.896,0.519,-39.0,13.95,-48.95,4,6
19099.609,0.04,0.942,0.527,-42.15,9.19,-51.39,4,6
19099.625,0.062,0.975,0.534,-43.37,5.13,-55.85,4,6
19099.625,0.042,0.985,0.532,-39.09,4.61,-58.9,4,6
19099.64,0.009,0.977,0.509,-31.59,6.29,-57.68,4,6
19099.656,-0.014,0.964,0.501,-26.37,8.94,-53.16,4,6
19099.656,-0.031,0.944,0.494,-25.15,12.63,-47.64,4,6
19099.671,-0.018,0.94,0.489,-30.7,16.08,-41.6,4,6
19099.671,0.005,0.966,0.519,-42.66,17.12,-37.97,4,6
19099.687,0.005,0.958,0.563,-50.72,17.18,-37.69,4,6
19099.703,-0.023,0.942,0.587,-52.06,17.58,-37.81,4,6
19099.703,-0.056,0.918,0.603,-49.5,17.09,-36.59,4,6
19099.718,-0.083,0.878,0.597,-45.2,15.93,-34.09,4,6
19099.734,-0.083,0.856,0.596,-42.36,15.59,-30.61,4,6
19099.734,-0.082,0.831,0.587,-42.79,16.05,-27.95,4,6
19099.75,-0.054,0.788,0.584,-46.88,17.09,-26.58,4,6
19099.765,-0.034,0.763,0.596,-52.74,19.75,-26.18,4,6
19099.765,-0.029,0.738,0.621,-56.0,21.3,-27.53,4,6
19099.781,-0.026,0.724,0.64,-54.45,21.67,-31.34,4,6
19099.781,-0.027,0.726,0.665,-50.72,20.84,-36.38,4,6
19099.796,-0.043,0.724,0.696,-45.72,19.62,-41.99,4,6
19099.812,-0.073,0.734,0.708,-40.35,17.91,-46.91,4,6
19099.828,-0.096,0.761,0.727,-38.48,15.02,-49.53,4,6
19099.828,-0.113,0.789,0.737,-40.89,10.83,-51.18,4,6
19099.843,-0.143,0.803,0.732,-43.98,6.59,-53.22,4,6
19099.843,-0.164,0.802,0.714,-45.35,3.02,-55.18,4,6
19099.859,-0.196,0.786,0.697,-43.52,1.5,-56.49,4,6
19099.875,-0.207,0.774,0.658,-39.58,1.62,-56.55,4,6
19099.875,-0.172,0.787,0.639,-37.72,2.17,-56.12,4,6
19099.89,-0.161,0.809,0.646,-37.9,4.94,-56.7,4,6
19099.906,-0.167,0.813,0.655,-39.19,8.15,-57.53,4,6
19099.906,-0.186,0.82,0.674,-40.13,11.44,-57.01,4,6
19099.921,-0.215,0.83,0.702,-40.47,13.34,-55.06,4,6
19099.921,-0.256,0.826,0.714,-39.25,13.49,-51.97,4,6
19099.937,-0.267,0.815,0.703,-39.03,11.87,-46.57,4,6
19099.953,-0.233,0.816,0.695,-42.12,9.89,-41.14,4,6
19099.968,-0.225,0.783,0.701,-46.6,11.02,-38.7,4,6
19099.968,-0.237,0.742,0.702,-49.75,13.95,-36.77,4,6
19099.984,-0.245,0.741,0.705,-50.29,15.56,-34.39,4,6
19099.984,-0.231,0.753,0.706,-49.38,15.66,-33.6,4,6
19100.0,-0.242,0.75,0.699,-47.46,16.91,-35.65,4,6
19100.015,-0.259,0.746,0.701,-45.01,17.67,-37.35,4,6
19100.015,-0.279,0.762,0.717,-42.24,17.52,-38.24,4,6
19100.031,-0.3,0.751,0.732,-40.62,16.91,-37.39,4,6
19100.046,-0.301,0.715,0.741,-40.65,15.38,-35.77,4,6
19100.046,-0.297,0.696,0.741,-40.35,15.11,-33.88,4,6
19100.062,-0.288,0.682,0.723,-41.44,16.66,-31.89,4,6
19100.062,-0.284,0.663,0.728,-44.1,18.98,-31.31,4,6
19100.078,-0.291,0.64,0.748,-45.01,21.3,-31.98,4,6
19100.093,-0.298,0.615,0.744,-43.64,24.14,-32.56,4,6
19100.093,-0.324,0.597,0.758,-42.48,27.74,-32.32,4,6
19100.109,-0.361,0.578,0.78,-41.57,31.01,-30.64,4,6
19100.125,-0.395,0.561,0.805,-42.05,32.35,-27.74,4,6
19100.125,-0.397,0.535,0.814,-44.37,31.13,-23.56,4,6
19100.14,-0.373,0.517,0.824,-48.28,28.41,-20.05,4,6
19100.156,-0.331,0.482,0.831,-52.13,26.61,-18.68,4,6
19100.156,-0.308,0.443,0.842,-54.29,26.83,-19.68,4,6
19100.171,-0.31,0.428,0.854,-53.93,27.1,-23.22,4,6
19100.187,-0.31,0.432,0.867,-53.16,25.36,-28.44,4,6
19100.187,-0.324,0.448,0.876,-53.07,22.74,-34.27,4,6
19100.203,-0.324,0.445,0.869,-51.97,18.8,-39.89,4,6
19100.203,-0.305,0.452,0.857,-45.69,13.89,-49.59,4,6
19100.218,-0.309,0.475,0.861,-41.96,12.88,-51.97,4,6
19100.234,-0.323,0.498,0.858,-41.11,11.93,-51.85,4,6
19100.25,-0.328,0.527,0.85,-43.18,11.11,-50.42,4,6
19100.25,-0.326,0.555,0.861,-45.9,11.02,-49.01,4,6
19100.265,-0.346,0.554,0.877,-46.42,11.17,-47.46,4,6
19100.265,-0.372,0.551,0.888,-45.75,10.28,-45.17,4,6
19100.281,-0.396,0.541,0.895,-44.31,8.36,-42.85,4,6
19100.296,-0.409,0.533,0.892,-42.57,6.56,-40.86,4,6
19100.296,-0.424,0.522,0.882,-41.69,5.68,-39.46,4,6
19100.312,-0.432,0.505,0.881,-41.57,5.34,-38.67,4,6
19100.328,-0.438,0.485,0.868,-41.81,5.95,-38.51,4,6
19100.328,-0.457,0.459,0.86,-41.63,7.29,-39.98,4,6
19100.343,-0.466,0.44,0.866,-39.49,8.58,-41.99,4,6
19100.343,-0.467,0.436,0.868,-34.76,9.58,-44.28,4,6
19100.359,-0.476,0.443,0.868,-29.24,10.22,-47.36,4,6
19100.375,-0.486,0.445,0.864,-24.57,9.4,-50.75,4,6
19100.375,-0.495,0.452,0.853,-20.11,7.78,-54.02,4,6
19100.39,-0.516,0.468,0.826,-15.5,6.23,-56.73,4,6
19100.406,-0.526,0.479,0.794,-11.57,4.79,-59.33,4,6
19100.406,-0.524,0.473,0.761,-7.39,4.36,-62.56,4,6
19100.421,-0.529,0.471,0.72,-1.22,6.74,-66.96,4,6
19100.421,-0.525,0.476,0.687,5.55,11.99,-70.71,4,6
19100.437,-0.491,0.479,0.674,9.06,20.45,-69.8,4,6
19100.453,-0.505,0.505,0.69,8.09,31.71,-64.97,4,6
19100.453,-0.533,0.526,0.738,3.6,40.83,-57.22,4,6
19100.468,-0.554,0.53,0.795,-3.51,45.35,-46.6,4,6
19100.484,-0.572,0.523,0.828,-9.92,46.42,-35.07,4,6
19100.484,-0.57,0.494,0.843,-15.81,45.47,-23.83,4,6
19100.5,-0.564,0.45,0.825,-19.87,43.49,-15.93,4,6
19100.515,-0.556,0.385,0.799,-21.18,41.96,-11.29,4,6
19100.515,-0.549,0.343,0.771,-18.4,43.37,-10.04,4,6
19100.531,-0.547,0.308,0.735,-12.91,46.33,-12.09,4,6
19100.546,-0.532,0.258,0.716,-7.14,49.68,-13.92,4,6
19100.546,-0.521,0.251,0.706,-2.66,53.5,-14.65,4,6
19100.562,-0.49,0.273,0.707,-1.83,58.66,-16.94,4,6
19100.562,-0.522,0.277,0.749,-5.25,66.32,-18.68,4,6
19100.578,-0.609,0.327,0.845,-10.53,69.09,-22.4,4,6
19100.593,-0.682,0.34,0.927,-14.31,61.28,-25.42,4,6
19100.609,-0.712,0.336,0.942,-13.79,44.98,-27.92,4,6
19100.609,-0.673,0.31,0.896,-8.97,28.38,-26.76,4,6
19100.625,-0.614,0.32,0.823,-2.9,18.22,-25.18,4,6
19100.625,-0.544,0.307,0.744,-0.18,15.17,-23.04,4,6
19100.64,-0.517,0.303,0.703,-3.81,18.56,-20.54,4,6
19100.656,-0.537,0.299,0.711,-10.38,25.39,-18.92,4,6
19100.656,-0.581,0.272,0.74,-15.14,30.27,-19.62,4,6
19100.671,-0.625,0.263,0.769,-15.66,30.55,-21.21,4,6
19100.687,-0.645,0.261,0.785,-13.55,27.16,-23.41,4,6
19100.687,-0.636,0.251,0.781,-11.32,22.55,-25.85,4,6
19100.703,-0.642,0.255,0.774,-9.77,18.8,-28.47,4,6
19100.703,-0.635,0.257,0.766,-8.61,15.35,-30.3,4,6
19100.718,-0.607,0.254,0.753,-7.63,13.18,-30.43,4,6
19100.734,-0.6,0.271,0.742,-7.48,13.21,-29.88,4,6
19100.734,-0.608,0.273,0.738,-8.82,13.52,-29.73,4,6
19100.75,-0.621,0.264,0.745,-10.25,13.21,-30.95,4,6
19100.765,-0.642,0.263,0.749,-9.31,12.48,-32.53,4,6
19100.765,-0.656,0.264,0.748,-7.2,10.35,-32.9,4,6
19100.781,-0.662,0.265,0.736,-6.01,7.02,-32.17,4,6
19100.781,-0.645,0.268,0.714,-7.23,3.66,-31.53,4,6
19100.796,-0.628,0.271,0.702,-10.53,2.26,-30.27,4,6
19100.812,-0.646,0.277,0.695,-14.68,2.96,-28.53,4,6
19100.828,-0.655,0.267,0.695,-18.22,3.6,-26.61,4,6
19100.828,-0.663,0.272,0.699,-19.65,4.03,-25.3,4,6
19100.843,-0.671,0.277,0.711,-18.98,3.63,-25.21,4,6
19100.843,-0.675,0.26,0.719,-16.11,2.32,-26.0,4,6
19100.859,-0.679,0.261,0.709,-11.29,0.64,-26.46,4,6
19100.875,-0.678,0.282,0.695,-7.63,-1.01,-26.76,4,6
19100.875,-0.674,0.292,0.677,-6.35,-2.08,-27.04,4,6
19100.89,-0.665,0.299,0.664,-6.47,-2.56,-26.28,4,6
19100.89,-0.659,0.318,0.653,-7.05,-1.74,-24.32,4,6
19100.906,-0.656,0.337,0.634,-8.42,-0.12,-21.42,4,6
19100.921,-0.656,0.359,0.617,-10.99,2.26,-16.91,4,6
19100.937,-0.659,0.379,0.606,-13.95,5.52,-11.05,4,6
19100.937,-0.658,0.38,0.617,-16.45,9.19,-4.79,4,6
19100.953,-0.664,0.358,0.63,-16.79,12.36,1.16,4,6
19100.953,-0.663,0.331,0.641,-15.47,15.05,6.23,4,6
19100.968,-0.67,0.303,0.654,-13.92,16.66,9.58,4,6
19100.984,-0.678,0.277,0.666,-12.33,16.57,10.99,4,6
19100.984,-0.671,0.253,0.679,-11.29,15.14,11.72,4,6
19101.0,-0.68,0.255,0.694,-11.78,13.12,11.96,4,6
19101.015,-0.672,0.243,0.698,-12.33,10.44,11.29,4,6
19101.015,-0.657,0.221,0.694,-11.41,8.0,9.28,4,6
19101.031,-0.649,0.201,0.689,-7.42,7.26,7.2,4,6
19101.046,-0.645,0.188,0.68,-1.13,7.51,5.62,4,6
19101.046,-0.645,0.182,0.68,5.13,8.51,4.64,4,6
19101.062,-0.657,0.191,0.684,8.91,9.4,3.85,4,6
19101.062,-0.663,0.192,0.693,8.94,9.03,3.42,4,6
19101.078,-0.67,0.191,0.699,6.38,8.06,3.23,4,6
19101.093,-0.676,0.188,0.704,3.6,6.78,3.08,4,6
19101.093,-0.672,0.185,0.703,2.2,5.62,2.81,4,6
19101.109,-0.665,0.19,0.69,2.44,5.58,2.32,4,6
19101.125,-0.652,0.18,0.685,4.03,6.35,1.77,4,6
19101.125,-0.63,0.163,0.692,7.23,8.15,1.77,4,6
19101.14,-0.629,0.155,0.699,10.68,11.69,2.04,4,6
19101.156,-0.636,0.159,0.708,12.12,14.59,2.47,4,6
19101.156,-0.643,0.141,0.722,13.0,17.73,2.75,4,6
19101.171,-0.669,0.151,0.734,12.63,20.45,3.69,4,6
19101.187,-0.711,0.176,0.762,10.47,19.81,5.52,4,6
19101.187,-0.729,0.187,0.79,8.36,16.82,7.05,4,6
19101.203,-0.761,0.187,0.79,0.79,5.01,10.71,4,6
19101.218,-0.757,0.178,0.774,-3.39,-1.22,12.85,4,6
19101.218,-0.737,0.152,0.748,-5.07,-4.85,14.56,4,6
19101.234,-0.676,0.095,0.683,-4.24,-4.76,15.47,4,6
19101.234,-0.671,0.09,0.665,-2.87,-1.46,14.44,4,6
19101.25,-0.684,0.081,0.67,-2.11,2.47,11.99,4,6
19101.265,-0.705,0.077,0.687,-1.46,5.04,9.43,4,6
19101.265,-0.729,0.088,0.713,-0.52,5.55,6.65,4,6
19101.281,-0.752,0.091,0.729,0.61,3.14,4.91,4,6
19101.281,-0.746,0.098,0.728,0.18,-1.53,4.91,4,6
19101.296,-0.727,0.107,0.714,-2.04,-6.13,5.01,4,6
19101.312,-0.715,0.107,0.703,-4.73,-9.03,4.21,4,6
19101.312,-0.698,0.097,0.688,-6.44,-10.13,3.72,4,6
19101.328,-0.69,0.085,0.676,-6.13,-9.03,3.2,4,6
19101.343,-0.703,0.085,0.672,-4.27,-7.02,2.38,4,6
19101.343,-0.711,0.09,0.669,-3.05,-5.68,1.43,4,6
19101.359,-0.713,0.091,0.674,-3.11,-5.04,0.27,4,6
19101.375,-0.713,0.087,0.672,-2.32,-4.73,-1.19,4,6
19101.375,-0.701,0.094,0.668,-0.46,-4.36,-3.17,4,6
19101.39,-0.698,0.112,0.667,1.65,-3.39,-5.58,4,6
19101.406,-0.713,0.127,0.675,3.94,-2.23,-8.15,4,6
19101.406,-0.73,0.152,0.681,5.1,-2.41,-9.49,4,6
19101.421,-0.715,0.173,0.678,4.36,-3.66,-9.0,4,6
19101.421,-0.69,0.175,0.671,2.5,-3.85,-7.63,4,6
19101.437,-0.686,0.179,0.67,0.79,-2.59,-6.41,4,6
19101.453,-0.694,0.185,0.672,0.37,-1.07,-5.01,4,6
19101.453,-0.696,0.2,0.67,0.43,-0.06,-3.08,4,6
19101.468,-0.694,0.214,0.665,-0.12,0.46,-0.52,4,6
19101.484,-0.694,0.219,0.654,-1.4,1.31,2.2,4,6
19101.5,-0.703,0.229,0.645,-3.45,3.14,5.55,4,6
19101.5,-0.705,0.245,0.638,-6.47,5.16,9.86,4,6
19101.515,-0.692,0.25,0.631,-10.13,7.48,14.77,4,6
19101.515,-0.688,0.243,0.634,-14.56,10.47,19.78,4,6
19101.531,-0.701,0.228,0.653,-18.28,13.34,23.68,4,6
19101.546,-0.709,0.207,0.668,-19.59,14.74,25.85,4,6
19101.546,-0.713,0.176,0.678,-17.98,14.68,26.58,4,6
19101.562,-0.719,0.14,0.683,-13.28,12.91,26.52,4,6
19101.562,-0.694,0.151,0.682,-6.9,11.84,24.87,4,6
19101.578,-0.697,0.162,0.67,-2.99,12.97,20.87,4,6
19101.593,-0.699,0.163,0.667,-4.55,12.82,17.09,4,6
19101.593,-0.701,0.169,0.668,-6.87,11.84,14.89,4,6
19101.609,-0.709,0.186,0.671,-8.64,10.83,14.28,4,6
19101.625,-0.71,0.179,0.673,-9.92,9.37,14.77,4,6
19101.64,-0.713,0.168,0.675,-10.25,7.97,15.02,4,6
19101.64,-0.713,0.158,0.676,-9.03,6.01,14.77,4,6
19101.656,-0.711,0.151,0.674,-7.39,4.46,14.25,4,6
19101.656,-0.709,0.143,0.669,-5.77,3.45,13.7,4,6
19101.671,-0.704,0.138,0.666,-4.52,2.62,13.03,4,6
19101.671,-0.701,0.131,0.665,-3.39,2.96,12.05,4,6
19101.687,-0.712,0.124,0.669,-2.69,3.48,10.41,4,6
19101.703,-0.715,0.128,0.67,-1.74,3.3,9.03,4,6
19101.703,-0.714,0.129,0.672,-1.28,2.81,8.06,4,6
19101.718,-0.712,0.129,0.674,-1.46,2.53,7.2,4,6
19101.734,-0.714,0.128,0.685,-1.59,2.2,5.95,4,6
19101.734,-0.73,0.13,0.696,-1.77,1.37,4.76,4,6
19101.75,-0.731,0.135,0.698,-2.29,-0.98,3.42,4,6
19101.765,-0.722,0.13,0.694,-2.23,-3.42,2.01,4,6
19101.765,-0.718,0.131,0.68,-1.01,-4.55,0.95,4,6
19101.781,-0.709,0.145,0.669,0.4,-4.61,0.15,4,6
19101.781,-0.706,0.149,0.659,0.95,-3.54,-0.67,4,6
19101.796,-0.71,0.155,0.651,0.4,-2.2,-1.4,4,6
19101.812,-0.707,0.162,0.657,-0.85,-1.43,-1.5,4,6
19101.812,-0.702,0.164,0.668,-2.29,-1.13,-1.07,4,6
19101.828,-0.703,0.172,0.674,-2.87,-0.89,-0.82,4,6
19101.843,-0.704,0.179,0.681,-2.56,-1.1,-0.85,4,6
19101.843,-0.703,0.18,0.686,-1.89,-1.59,-1.28,4,6
19101.859,-0.705,0.184,0.688,-0.95,-2.2,-1.74,4,6
19101.875,-0.705,0.187,0.68,0.46,-2.72,-1.86,4,6
19101.875,-0.697,0.194,0.675,1.22,-3.17,-1.16,4,6
19101.89,-0.695,0.199,0.669,0.98,-2.93,-0.15,4,6
19101.906,-0.696,0.197,0.658,0.43,-2.2,0.76,4,6
19101.906,-0.693,0.195,0.658,0.43,-0.98,1.5,4,6
19101.921,-0.7,0.189,0.66,2.75,0.73,1.98,4,6
19101.921,-0.703,0.185,0.662,6.04,2.26,2.93,4,6
19101.937,-0.704,0.183,0.666,9.98,3.45,3.66,4,6
19101.953,-0.722,0.183,0.673,13.86,3.66,4.61,4,6
19101.953,-0.716,0.201,0.683,15.47,1.62,6.71,4,6
19101.968,-0.716,0.23,0.684,14.19,0.0,5.77,4,6
19101.984,-0.717,0.209,0.688,9.55,-2.81,4.67,4,6
19101.984,-0.712,0.193,0.689,4.61,-5.74,4.94,4,6
19102.0,-0.704,0.169,0.679,2.69,-7.81,5.01,4,6
19102.015,-0.699,0.154,0.666,2.38,-9.19,4.24,4,6
19102.015,-0.69,0.144,0.662,2.72,-9.95,2.56,4,6
19102.031,-0.691,0.134,0.657,3.91,-9.77,0.21,4,6
19102.046,-0.696,0.137,0.658,5.46,-9.4,-2.56,4,6
19102.046,-0.699,0.139,0.657,6.68,-9.34,-5.46,4,6
19102.062,-0.705,0.15,0.661,6.5,-9.25,-7.17,4,6
19102.062,-0.71,0.152,0.672,5.58,-9.74,-8.3,4,6
19102.078,-0.712,0.151,0.677,4.82,-11.05,-9.22,4,6
19102.093,-0.708,0.153,0.68,5.01,-12.48,-10.35,4,6
19102.093,-0.699,0.155,0.678,6.04,-13.61,-11.26,4,6
19102.109,-0.697,0.156,0.673,6.87,-13.98,-12.09,4,6
19102.125,-0.699,0.166,0.665,6.93,-13.55,-12.82,4,6
19102.125,-0.701,0.18,0.665,5.83,-13.34,-13.0,4,6
19102.14,-0.703,0.19,0.661,4.43,-13.0,-12.51,4,6
19102.156,-0.706,0.206,0.659,3.85,-12.42,-11.02,4,6
19102.156,-0.709,0.225,0.658,4.52,-11.78,-7.69,4,6
19102.171,-0.714,0.261,0.67,5.71,-11.35,-2.29,4,6
19102.171,-0.719,0.28,0.673,3.42,-12.27,10.86,4,6
19102.187,-0.718,0.282,0.675,-0.7,-12.7,16.82,4,6
19102.203,-0.714,0.273,0.667,-5.49,-12.91,20.91,4,6
19102.218,-0.708,0.254,0.664,-9.95,-13.09,22.8,4,6
19102.218,-0.685,0.216,0.663,-12.97,-12.67,22.49,4,6
19102.234,-0.682,0.198,0.657,-14.13,-11.72,20.08,4,6
19102.234,-0.674,0.181,0.65,-12.82,-10.68,16.48,4,6
19102.25,-0.657,0.171,0.644,-10.01,-8.3,12.42,4,6
19102.265,-0.639,0.156,0.649,-6.35,-5.1,8.61,4,6
19102.265,-0.635,0.156,0.658,-1.83,-1.37,5.13,4,6
19102.281,-0.644,0.175,0.674,2.41,1.95,1.62,4,6
19102.281,-0.66,0.192,0.691,5.83,3.54,-1.53,4,6
19102.296,-0.67,0.211,0.699,7.75,3.14,-3.2,4,6
