timestamp,ax,ay,az,gx,gy,gz,orient_label,motion_label
19039.515,0.513,0.869,0.137,11.66,-6.65,-25.82,4,6
19039.515,0.533,0.895,0.119,17.58,-7.35,-30.12,4,6
19039.531,0.537,0.908,0.101,24.2,-5.98,-32.11,4,6
19039.531,0.541,0.917,0.085,29.57,-3.42,-31.01,4,6
19039.546,0.545,0.932,0.078,30.46,0.27,-26.89,4,6
19039.562,0.539,0.94,0.076,26.43,4.61,-20.45,4,6
19039.562,0.531,0.939,0.092,17.18,8.24,-11.69,4,6
19039.578,0.514,0.93,0.119,4.67,10.07,-1.4,4,6
19039.593,0.492,0.897,0.156,-6.93,9.55,8.79,4,6
19039.593,0.488,0.846,0.182,-13.82,6.32,16.39,4,6
19039.609,0.504,0.829,0.177,-15.87,2.47,20.33,4,6
19039.625,0.522,0.809,0.164,-15.84,-0.37,21.85,4,6
19039.625,0.541,0.783,0.149,-13.64,-1.59,21.49,4,6
19039.64,0.551,0.765,0.134,-9.58,-0.34,19.47,4,6
19039.64,0.561,0.752,0.133,-5.95,2.35,17.58,4,6
19039.656,0.559,0.755,0.145,-4.06,5.4,15.05,4,6
19039.671,0.545,0.749,0.17,-4.09,7.66,12.57,4,6
19039.671,0.527,0.742,0.193,-5.86,7.63,10.74,4,6
19039.687,0.518,0.737,0.2,-6.74,5.25,9.22,4,6
19039.703,0.519,0.729,0.194,-6.32,1.95,7.78,4,6
19039.703,0.522,0.729,0.176,-5.74,-0.52,5.65,4,6
19039.718,0.529,0.738,0.155,-5.1,-1.62,3.6,4,6
19039.734,0.539,0.759,0.144,-4.82,-1.5,1.95,4,6
19039.734,0.542,0.775,0.139,-3.63,-0.4,0.24,4,6
19039.75,0.53,0.788,0.14,-1.28,1.5,-0.06,4,6
19039.765,0.512,0.801,0.131,0.46,3.6,1.71,4,6
19039.765,0.503,0.801,0.124,0.52,5.58,5.01,4,6
19039.781,0.485,0.788,0.125,0.61,7.87,7.87,4,6
19039.781,0.459,0.771,0.133,2.72,10.99,9.61,4,6
19039.796,0.441,0.743,0.15,6.81,13.79,10.32,4,6
19039.812,0.44,0.724,0.173,13.12,16.27,10.04,4,6
19039.828,0.415,0.723,0.2,21.79,19.23,8.21,4,6
19039.828,0.354,0.711,0.21,31.5,21.21,6.62,4,6
19039.843,0.282,0.698,0.196,39.37,21.06,7.32,4,6
19039.859,0.186,0.698,0.075,46.48,17.52,17.43,4,6
19039.875,0.174,0.721,-0.006,43.37,18.68,27.31,4,6
19039.875,0.174,0.735,-0.065,36.53,25.18,40.56,4,6
19039.89,0.2,0.726,-0.105,29.24,37.78,56.64,4,6
19039.906,0.188,0.729,-0.115,22.22,56.89,73.52,4,6
19039.906,0.134,0.712,-0.107,17.88,80.66,90.67,4,6
19039.921,0.063,0.678,-0.074,15.14,106.54,106.54,4,6
19039.921,-0.018,0.645,-0.032,12.24,133.12,119.3,4,6
19039.937,-0.105,0.599,0.022,9.52,159.49,128.54,4,6
19039.953,-0.204,0.523,0.073,7.26,181.98,135.53,4,6
19039.953,-0.258,0.464,0.134,2.62,197.24,142.16,4,6
19039.968,-0.311,0.429,0.182,-2.66,203.53,145.51,4,6
19039.984,-0.322,0.382,0.203,-10.47,202.12,149.08,4,6
19039.984,-0.303,0.334,0.225,-21.24,198.95,149.63,4,6
19040.0,-0.258,0.27,0.256,-29.73,197.97,147.34,4,6
19040.0,-0.2,0.207,0.27,-32.2,202.55,140.45,4,6
19040.015,-0.135,0.149,0.26,-30.46,211.49,130.19,4,6
19040.031,-0.05,0.1,0.234,-27.53,220.47,119.21,4,6
19040.031,0.021,0.08,0.201,-25.61,227.94,109.5,4,6
19040.046,0.087,0.066,0.198,-25.42,237.4,101.47,4,6
19040.062,0.152,0.078,0.214,-25.3,249.15,90.98,4,6
19040.078,0.156,0.086,0.243,-25.61,262.98,79.35,4,6
19040.078,0.175,0.092,0.311,-29.27,276.44,69.31,4,6
19040.093,0.187,0.106,0.378,-36.13,283.97,57.47,4,6
19040.093,0.199,0.111,0.44,-45.96,283.24,44.1,4,6
19040.109,0.211,0.095,0.511,-56.55,275.12,32.2,4,6
19040.125,0.228,0.084,0.57,-60.91,264.5,21.27,4,6
19040.125,0.264,0.072,0.623,-57.34,255.32,12.02,4,6
19040.14,0.309,0.085,0.693,-46.54,250.92,2.47,4,6
19040.14,0.322,0.128,0.768,-29.57,251.84,-10.44,4,6
19040.156,0.292,0.158,0.821,-10.32,253.27,-24.93,4,6
19040.171,0.251,0.189,0.859,6.07,248.94,-37.32,4,6
19040.171,0.228,0.233,0.92,20.14,240.27,-48.65,4,6
19040.187,0.207,0.268,0.974,37.26,230.9,-64.03,4,6
19040.203,0.17,0.309,1.018,76.66,209.14,-105.47,4,6
19040.218,0.126,0.372,1.085,94.36,197.21,-123.84,4,6
19040.218,0.108,0.47,1.18,111.21,184.21,-138.92,4,6
19040.234,0.041,0.794,1.297,124.61,168.34,-150.0,4,6
19040.234,0.003,0.99,1.311,128.94,149.36,-154.15,4,6
19040.25,-0.018,1.154,1.314,122.53,129.76,-151.01,4,6
19040.265,-0.01,1.256,1.306,108.58,111.58,-141.45,4,6
19040.265,0.016,1.327,1.292,89.05,99.25,-124.33,4,6
19040.281,0.039,1.39,1.283,61.19,93.51,-100.99,4,6
19040.281,0.05,1.411,1.3,24.29,92.2,-72.88,4,6
19040.296,0.03,1.393,1.333,-19.56,91.56,-42.6,4,6
19040.312,-0.006,1.324,1.34,-65.95,84.78,-12.67,4,6
19040.312,-0.012,1.2,1.32,-110.69,70.1,16.79,4,6
19040.328,0.01,1.069,1.295,-148.01,54.26,43.46,4,6
19040.343,0.046,0.936,1.28,-172.4,42.15,63.63,4,6
19040.359,0.117,0.725,1.286,-175.88,33.88,84.38,4,6
19040.375,0.126,0.663,1.305,-160.59,37.6,89.18,4,6
19040.375,0.11,0.646,1.344,-143.47,42.51,92.01,4,6
19040.39,0.084,0.643,1.389,-130.89,44.8,94.09,4,6
19040.406,0.078,0.617,1.438,-122.78,40.74,95.13,4,6
19040.406,0.082,0.571,1.47,-111.76,31.46,95.46,4,6
19040.421,0.094,0.509,1.468,-96.9,19.41,94.79,4,6
19040.421,0.138,0.456,1.45,-79.56,7.29,93.2,4,6
19040.437,0.154,0.422,1.407,-62.04,-2.41,90.43,4,6
19040.453,0.14,0.376,1.35,-48.28,-10.68,86.34,4,6
19040.453,0.128,0.329,1.3,-39.03,-17.15,82.43,4,6
19040.468,0.114,0.311,1.249,-32.96,-21.61,80.51,4,6
19040.484,0.104,0.3,1.201,-29.45,-25.21,79.38,4,6
19040.484,0.094,0.283,1.15,-26.76,-28.38,77.76,4,6
19040.5,0.117,0.276,1.107,-26.09,-29.97,75.5,4,6
19040.515,0.138,0.261,1.066,-24.84,-28.14,71.32,4,6
19040.515,0.139,0.24,1.022,-23.29,-22.8,65.68,4,6
19040.531,0.133,0.216,0.985,-20.08,-15.35,59.66,4,6
19040.531,0.119,0.239,0.958,-15.26,-7.17,54.69,4,6
19040.546,0.124,0.301,0.931,-8.61,1.59,53.25,4,6
19040.562,0.073,0.277,0.949,-2.2,11.2,53.62,4,6
19040.578,0.093,0.274,1.015,-7.05,15.99,54.69,4,6
19040.578,0.129,0.216,1.012,-2.75,23.77,55.06,4,6
19040.593,0.123,0.213,1.008,8.03,33.69,52.52,4,6
19040.593,0.124,0.294,1.024,20.08,42.85,50.33,4,6
19040.609,0.035,0.359,1.057,27.95,47.88,44.59,4,6
19040.625,-0.042,0.422,1.099,26.83,44.89,38.33,4,6
19040.625,-0.116,0.44,1.118,28.35,34.61,36.13,4,6
19040.64,-0.166,0.462,1.091,28.78,16.82,38.27,4,6
19040.64,-0.116,0.527,0.987,22.06,-1.83,46.94,4,6
19040.656,-0.128,0.595,1.048,8.0,-12.57,59.14,4,6
19040.671,-0.183,0.577,1.107,4.52,-24.81,77.82,4,6
19040.671,0.067,0.496,1.025,-1.62,-41.35,100.86,4,6
19040.687,0.113,0.495,0.953,-13.12,-40.62,102.73,4,6
19040.703,0.125,0.483,0.96,-19.5,-32.93,100.19,4,6
19040.703,0.143,0.446,1.003,-21.18,-28.93,99.92,4,6
19040.718,0.133,0.447,1.03,-20.14,-26.98,95.95,4,6
19040.734,0.134,0.454,1.038,-18.52,-29.57,89.36,4,6
19040.75,0.148,0.441,1.016,-16.33,-33.69,83.62,4,6
19040.75,0.183,0.434,0.951,-13.92,-36.13,79.93,4,6
19040.75,0.212,0.409,0.891,-10.16,-33.66,77.33,4,6
19040.765,0.225,0.4,0.855,-4.94,-26.83,77.24,4,6
19040.781,0.229,0.414,0.843,-3.63,-17.64,79.13,4,6
19040.781,0.234,0.406,0.87,-6.2,-7.54,81.73,4,6
19040.796,0.252,0.405,0.919,-8.67,2.08,84.93,4,6
19040.812,0.241,0.419,0.993,-11.81,8.67,86.61,4,6
19040.812,0.213,0.408,1.048,-16.27,9.86,85.67,4,6
19040.828,0.194,0.385,1.059,-22.28,5.55,82.58,4,6
19040.843,0.182,0.347,1.049,-25.06,-1.8,77.67,4,6
19040.843,0.213,0.304,1.025,-20.97,-9.58,71.9,4,6
19040.859,0.227,0.31,0.969,-10.19,-14.1,63.3,4,6
19040.875,0.228,0.335,0.925,1.1,-15.47,54.48,4,6
19040.875,0.211,0.377,0.887,11.23,-12.51,46.57,4,6
19040.89,0.184,0.419,0.852,18.16,-8.58,43.49,4,6
19040.89,0.166,0.461,0.833,16.79,-4.27,45.29,4,6
19040.906,0.162,0.494,0.807,9.58,2.5,51.0,4,6
19040.921,0.149,0.483,0.816,5.31,14.53,58.75,4,6
19040.921,0.158,0.538,0.833,8.36,22.68,63.54,4,6
19040.937,0.141,0.512,0.852,8.36,30.3,64.58,4,6
19040.953,0.128,0.45,0.881,3.17,34.46,63.81,4,6
19040.953,0.165,0.403,0.933,-1.43,34.64,57.92,4,6
19040.968,0.148,0.354,0.966,2.56,33.66,48.25,4,6
19040.984,0.09,0.31,0.945,11.17,30.03,40.04,4,6
19040.984,0.065,0.287,0.909,16.48,23.41,35.74,4,6
19041.0,0.059,0.26,0.879,16.17,16.72,31.16,4,6
19041.015,0.077,0.246,0.878,12.18,11.6,25.48,4,6
19041.015,0.097,0.213,0.899,8.45,7.32,20.6,4,6
19041.031,0.162,0.228,0.959,5.77,2.69,18.19,4,6
19041.031,0.213,0.282,1.019,7.66,0.15,15.29,4,6
19041.046,0.241,0.316,1.048,11.29,-1.1,11.08,4,6
19041.062,0.222,0.346,1.029,12.36,-2.62,5.25,4,6
19041.062,0.208,0.38,0.975,14.19,-5.4,1.71,4,6
19041.078,0.206,0.378,0.904,15.9,-8.09,-0.46,4,6
19041.093,0.224,0.391,0.86,12.88,-7.48,-1.71,4,6
19041.093,0.219,0.397,0.852,6.9,-4.58,-2.17,4,6
19041.109,0.218,0.366,0.867,1.59,-2.01,-0.79,4,6
19041.125,0.222,0.353,0.885,-0.61,-0.03,0.55,4,6
19041.125,0.223,0.347,0.897,-1.34,2.26,0.46,4,6
19041.14,0.204,0.363,0.922,-0.27,4.36,1.4,4,6
19041.14,0.186,0.375,0.928,0.95,4.18,2.93,4,6
19041.156,0.184,0.37,0.914,-0.67,2.35,3.39,4,6
19041.171,0.191,0.367,0.897,-2.87,0.95,3.66,4,6
19041.171,0.199,0.359,0.889,-7.84,3.05,3.6,4,6
19041.187,0.219,0.348,0.868,-9.77,7.42,2.14,4,6
19041.203,0.246,0.308,0.876,-5.46,13.06,-0.73,4,6
19041.203,0.237,0.288,0.91,0.37,16.11,-4.55,4,6
19041.218,0.17,0.343,0.935,1.4,14.95,-6.71,4,6
19041.234,0.181,0.348,0.934,-1.37,11.41,-9.06,4,6
19041.234,0.171,0.35,0.929,-1.83,9.06,-11.29,4,6
19041.25,0.167,0.347,0.915,-0.31,7.87,-11.11,4,6
19041.265,0.162,0.35,0.91,-1.37,7.54,-10.16,4,6
19041.265,0.147,0.36,0.915,-3.66,7.2,-8.91,4,6
19041.281,0.153,0.369,0.935,-7.02,5.1,-8.12,4,6
19041.281,0.156,0.356,0.97,-8.91,2.35,-7.51,4,6
19041.296,0.151,0.356,0.954,-7.81,-0.4,-5.49,4,6
19041.312,0.165,0.34,0.924,-6.78,-2.99,-3.72,4,6
19041.312,0.194,0.32,0.89,-6.1,-2.96,-3.45,4,6
19041.328,0.211,0.32,0.886,-5.62,1.34,-3.78,4,6
19041.343,0.19,0.321,0.896,-4.33,6.81,-4.67,4,6
19041.343,0.169,0.332,0.907,-3.48,9.74,-4.76,4,6
19041.359,0.167,0.336,0.924,-3.51,9.67,-4.21,4,6
19041.375,0.159,0.328,0.963,-2.59,7.11,-3.08,4,6
19041.39,0.163,0.318,0.964,-0.64,4.76,-3.33,4,6
19041.39,0.146,0.322,0.944,1.62,2.84,-4.33,4,6
19041.406,0.143,0.328,0.934,3.27,1.22,-4.33,4,6
19041.421,0.143,0.349,0.943,3.48,-0.21,-4.33,4,6
19041.421,0.136,0.369,0.955,4.15,-1.68,-3.3,4,6
19041.437,0.15,0.369,0.923,3.97,-3.75,-1.95,4,6
19041.453,0.175,0.351,0.9,1.07,-4.39,-1.95,4,6
19041.453,0.186,0.34,0.891,1.77,-1.46,-1.53,4,6
19041.468,0.179,0.315,0.896,2.38,2.23,-1.77,4,6
19041.484,0.177,0.289,0.918,0.64,3.66,-3.94,4,6
19041.484,0.177,0.282,0.94,2.08,5.04,-6.04,4,6
19041.5,0.173,0.288,0.927,6.32,6.74,-8.0,4,6
19041.5,0.157,0.315,0.903,8.61,7.78,-9.8,4,6
19041.515,0.142,0.349,0.904,8.15,8.39,-10.28,4,6
19041.531,0.129,0.394,0.951,6.01,8.15,-9.46,4,6
19041.546,0.137,0.42,0.927,0.85,0.21,-1.13,4,6
19041.562,0.174,0.375,0.906,-3.57,-1.92,-0.37,4,6
19041.562,0.186,0.323,0.922,-6.62,-0.95,-2.78,4,6
19041.578,0.207,0.256,0.954,-3.57,0.76,-6.07,4,6
19041.593,0.183,0.246,0.991,4.03,2.66,-10.77,4,6
19041.593,0.155,0.225,0.987,16.11,2.26,-13.15,4,6
19041.609,0.137,0.234,0.935,25.76,1.86,-15.96,4,6
19041.625,0.118,0.316,0.898,33.66,6.23,-17.4,4,6
19041.625,0.099,0.415,0.881,38.09,9.89,-15.78,4,6
19041.64,0.064,0.468,0.874,35.49,9.31,-11.29,4,6
19041.64,0.057,0.534,0.879,24.29,4.49,-4.88,4,6
19041.656,0.069,0.522,0.92,10.96,-4.91,1.22,4,6
19041.671,0.094,0.475,0.905,2.38,-11.11,6.2,4,6
19041.671,0.148,0.414,0.845,-4.12,-11.69,11.75,4,6
19041.687,0.165,0.339,0.863,-10.99,-8.39,11.6,4,6
19041.703,0.159,0.31,0.927,-9.34,-5.04,10.44,4,6
19041.718,0.178,0.295,0.949,0.61,-7.14,5.19,4,6
19041.734,0.181,0.327,0.916,5.28,-8.85,1.59,4,6
19041.734,0.164,0.386,0.872,7.48,-8.58,-0.73,4,6
19041.75,0.158,0.442,0.852,3.88,-8.15,-0.92,4,6
19041.75,0.156,0.461,0.854,-2.53,-6.47,0.76,4,6
19041.765,0.155,0.437,0.854,-8.61,-3.45,3.02,4,6
19041.781,0.147,0.401,0.889,-13.89,-0.89,4.0,4,6
19041.781,0.136,0.375,0.918,-17.21,-0.95,4.12,4,6
19041.796,0.142,0.36,0.935,-18.49,-2.5,4.21,4,6
19041.812,0.15,0.341,0.945,-18.16,-4.0,3.81,4,6
19041.812,0.152,0.32,0.956,-16.11,-5.4,3.05,4,6
19041.828,0.154,0.312,0.962,-12.02,-7.35,2.5,4,6
19041.843,0.165,0.309,0.937,-8.0,-9.55,1.83,4,6
19041.843,0.196,0.297,0.914,-5.71,-9.37,0.58,4,6
19041.859,0.206,0.299,0.901,-1.98,-5.65,-1.68,4,6
19041.859,0.195,0.314,0.909,2.87,-0.61,-3.63,4,6
19041.875,0.175,0.335,0.916,6.56,2.38,-5.28,4,6
19041.89,0.164,0.351,0.912,8.45,3.27,-6.56,4,6
19041.89,0.155,0.383,0.902,8.12,3.66,-7.45,4,6
19041.906,0.137,0.42,0.91,5.74,3.51,-7.08,4,6
19041.921,0.113,0.433,0.923,2.78,2.11,-4.46,4,6
19041.921,0.109,0.418,0.914,-1.22,-0.15,-0.67,4,6
19041.937,0.119,0.403,0.921,-4.88,-1.86,2.66,4,6
19041.953,0.129,0.371,0.923,-7.29,-3.33,4.97,4,6
19041.953,0.14,0.351,0.927,-8.64,-4.7,6.29,4,6
19041.968,0.163,0.331,0.919,-8.03,-5.95,6.2,4,6
19041.984,0.181,0.309,0.906,-6.62,-5.46,4.85,4,6
19041.984,0.194,0.296,0.908,-4.0,-3.23,2.9,4,6
19042.0,0.191,0.307,0.929,-1.1,-1.01,0.52,4,6
19042.015,0.187,0.318,0.93,1.62,-0.4,-2.2,4,6
19042.031,0.183,0.333,0.93,4.21,-0.46,-4.46,4,6
19042.031,0.175,0.347,0.923,6.47,-0.46,-5.95,4,6
19042.046,0.162,0.361,0.91,7.17,-0.55,-6.87,4,6
19042.046,0.165,0.378,0.903,6.62,-0.31,-6.53,4,6
19042.062,0.152,0.386,0.903,5.28,0.46,-6.04,4,6
19042.062,0.142,0.389,0.892,2.53,0.24,-4.61,4,6
19042.078,0.158,0.386,0.887,-1.25,-0.06,-3.39,4,6
19042.093,0.153,0.368,0.902,-4.21,0.85,-3.17,4,6
19042.093,0.145,0.358,0.923,-4.94,1.04,-2.62,4,6
19042.109,0.149,0.343,0.927,-4.94,0.34,-2.23,4,6
19042.109,0.153,0.326,0.926,-4.43,-0.09,-2.99,4,6
19042.125,0.152,0.332,0.933,-2.32,-0.03,-3.75,4,6
19042.14,0.151,0.343,0.954,0.52,-0.43,-4.36,4,6
19042.14,0.152,0.346,0.983,4.43,-1.8,-4.88,4,6
19042.156,0.161,0.333,0.975,12.97,-5.07,-7.32,4,6
19042.171,0.192,0.298,0.93,15.75,-3.3,-11.51,4,6
19042.171,0.214,0.299,0.893,18.89,2.11,-14.1,4,6
19042.187,0.201,0.343,0.879,20.05,7.97,-14.34,4,6
19042.203,0.112,0.414,0.885,19.65,11.6,-13.64,4,6
19042.218,0.099,0.431,0.859,18.31,11.84,-9.16,4,6
19042.218,0.088,0.464,0.85,13.15,13.52,-4.43,4,6
19042.234,0.064,0.484,0.857,8.42,15.69,1.65,4,6
19042.234,0.06,0.495,0.871,1.71,14.8,8.3,4,6
19042.25,0.07,0.495,0.898,-9.22,8.61,13.76,4,6
19042.265,0.091,0.444,0.95,-21.0,-0.76,15.96,4,6
19042.265,0.106,0.352,0.961,-25.06,-8.67,16.36,4,6
19042.281,0.183,0.262,0.923,-23.9,-11.75,15.81,4,6
19042.281,0.169,0.252,0.949,-18.28,-8.42,11.87,4,6
19042.296,0.158,0.247,0.949,-11.29,-7.66,8.42,4,6
19042.312,0.168,0.273,0.969,-5.74,-8.73,5.43,4,6
19042.312,0.157,0.331,0.956,1.62,-9.67,3.78,4,6
19042.328,0.151,0.366,0.917,6.16,-11.11,4.21,4,6
19042.343,0.162,0.399,0.885,5.68,-11.35,5.37,4,6
19042.343,0.166,0.407,0.866,2.26,-9.83,6.26,4,6
19042.359,0.171,0.413,0.88,-1.83,-7.72,6.9,4,6
19042.359,0.163,0.397,0.917,-4.55,-5.77,7.93,4,6
19042.375,0.169,0.359,0.936,-4.52,-5.49,8.94,4,6
19042.39,0.178,0.327,0.942,-2.2,-6.23,8.88,4,6
19042.39,0.169,0.317,0.963,1.34,-7.39,7.26,4,6
19042.406,0.152,0.321,0.959,5.04,-9.89,5.43,4,6
19042.421,0.154,0.339,0.935,7.6,-12.12,5.07,4,6
19042.421,0.162,0.35,0.907,8.85,-13.06,4.88,4,6
19042.437,0.162,0.368,0.883,8.94,-12.12,4.61,4,6
19042.453,0.168,0.379,0.866,8.09,-10.22,5.37,4,6
19042.453,0.18,0.384,0.866,5.49,-7.45,6.04,4,6
19042.468,0.187,0.382,0.88,3.6,-4.39,5.86,4,6
19042.484,0.182,0.386,0.906,2.81,-2.08,5.55,4,6
19042.484,0.172,0.376,0.914,2.75,-1.31,5.68,4,6
19042.5,0.175,0.376,0.925,2.56,-1.92,5.68,4,6
19042.5,0.176,0.366,0.928,3.54,-2.59,6.2,4,6
19042.515,0.172,0.36,0.927,4.94,-3.91,6.2,4,6
19042.531,0.17,0.365,0.925,5.62,-6.41,5.86,4,6
19042.531,0.17,0.379,0.917,4.64,-9.09,5.28,4,6
19042.546,0.174,0.395,0.89,2.44,-11.08,5.19,4,6
19042.562,0.192,0.398,0.873,-0.15,-11.14,6.23,4,6
19042.578,0.186,0.375,0.899,-1.16,-7.66,9.28,4,6
19042.593,0.188,0.362,0.927,-2.41,-7.72,9.83,4,6
19042.593,0.184,0.351,0.935,-2.44,-9.13,9.37,4,6
19042.609,0.19,0.353,0.92,-2.08,-10.8,8.94,4,6
19042.609,0.197,0.336,0.901,-1.16,-11.63,8.0,4,6
19042.625,0.209,0.334,0.878,-0.92,-11.17,6.29,4,6
19042.64,0.227,0.335,0.873,-1.34,-9.06,4.18,4,6
19042.656,0.228,0.33,0.89,-0.24,-6.07,1.62,4,6
19042.656,0.22,0.342,0.9,1.5,-3.97,-0.09,4,6
19042.671,0.22,0.353,0.893,2.93,-3.2,-1.5,4,6
19042.671,0.2,0.373,0.914,3.63,-2.62,-2.62,4,6
19042.687,0.181,0.399,0.914,2.5,-3.3,-1.77,4,6
19042.703,0.191,0.404,0.89,0.03,-5.22,0.4,4,6
19042.703,0.198,0.39,0.887,-3.08,-6.32,0.85,4,6
19042.718,0.197,0.387,0.903,-5.28,-6.59,0.98,4,6
19042.734,0.202,0.387,0.901,-6.16,-7.23,1.86,4,6
19042.75,0.196,0.373,0.91,-7.08,-7.45,2.93,4,6
19042.75,0.2,0.379,0.897,-7.42,-7.63,4.27,4,6
19042.765,0.211,0.369,0.897,-8.48,-7.35,5.34,4,6
19042.781,0.199,0.365,0.893,-8.94,-6.32,5.92,4,6
19042.781,0.201,0.367,0.89,-10.62,-6.16,6.99,4,6
19042.796,0.207,0.362,0.894,-12.6,-6.16,7.45,4,6
19042.812,0.209,0.364,0.907,-13.82,-5.71,7.72,4,6
19042.812,0.204,0.38,0.901,-15.47,-5.8,8.42,4,6
19042.828,0.195,0.416,0.9,-18.4,-6.62,10.44,4,6
19042.843,0.177,0.461,0.889,-24.17,-7.72,14.92,4,6
19042.843,0.185,0.47,0.86,-33.69,-9.64,20.45,4,6
19042.859,0.188,0.456,0.842,-43.18,-9.7,25.54,4,6
19042.859,0.19,0.444,0.861,-51.82,-8.61,30.49,4,6
19042.875,0.202,0.402,0.882,-59.88,-8.42,34.67,4,6
19042.89,0.233,0.305,0.917,-62.53,-8.51,37.14,4,6
19042.906,0.257,0.201,0.936,-56.34,-7.84,37.05,4,6
19042.921,0.29,0.126,0.923,-40.59,-2.99,29.51,4,6
19042.921,0.275,0.096,0.958,-34.94,0.18,22.34,4,6
19042.937,0.274,0.119,0.976,-29.02,0.82,15.81,4,6
19042.953,0.271,0.156,0.977,-21.73,0.21,10.04,4,6
19042.953,0.251,0.218,0.958,-16.85,-0.09,6.04,4,6
19042.968,0.249,0.26,0.924,-17.0,-1.16,4.52,4,6
19042.984,0.259,0.259,0.919,-18.37,-1.4,3.94,4,6
19042.984,0.263,0.228,0.927,-17.21,-0.06,3.27,4,6
19043.0,0.274,0.175,0.939,-13.43,2.01,1.86,4,6
19043.015,0.296,0.115,0.953,-7.26,4.24,-1.77,4,6
19043.015,0.299,0.085,1.008,1.89,7.48,-7.17,4,6
19043.031,0.273,0.09,1.038,13.49,8.76,-13.64,4,6
19043.031,0.237,0.125,1.018,24.9,6.1,-19.53,4,6
19043.046,0.236,0.194,0.975,32.87,2.01,-22.86,4,6
19043.062,0.23,0.281,0.92,33.75,-1.13,-25.39,4,6
19043.062,0.204,0.355,0.919,29.79,-1.31,-24.63,4,6
19043.093,0.213,0.32,0.904,23.56,-2.29,-15.84,4,6
19043.093,0.194,0.293,0.913,22.1,-0.18,-12.76,4,6
19043.109,0.188,0.294,0.916,20.97,0.12,-10.9,4,6
19043.109,0.182,0.321,0.909,19.07,0.49,-8.94,4,6
19043.125,0.18,0.358,0.895,15.66,0.85,-5.8,4,6
19043.14,0.2,0.38,0.896,9.19,0.21,-1.8,4,6
19043.14,0.22,0.374,0.92,-1.31,-1.5,4.3,4,6
19043.156,0.222,0.334,0.928,-4.21,-2.78,5.1,4,6
19043.171,0.235,0.289,0.914,-5.58,-3.14,4.33,4,6
19043.171,0.264,0.225,0.869,-5.22,-1.89,2.56,4,6
19043.187,0.245,0.25,0.89,-4.91,2.08,-0.92,4,6
19043.203,0.228,0.285,0.928,-3.23,4.76,-0.67,4,6
19043.203,0.238,0.298,0.956,-3.11,4.3,0.85,4,6
19043.218,0.231,0.303,0.964,-3.63,2.47,1.19,4,6
19043.234,0.232,0.281,0.949,-4.58,-0.09,0.92,4,6
19043.234,0.242,0.261,0.95,-4.18,-2.04,0.06,4,6
19043.25,0.239,0.255,0.948,-2.11,-2.81,-1.59,4,6
19043.25,0.231,0.257,0.941,-0.49,-3.33,-3.05,4,6
19043.265,0.233,0.259,0.93,1.07,-3.51,-4.03,4,6
19043.281,0.235,0.265,0.928,2.81,-3.17,-4.85,4,6
19043.281,0.238,0.265,0.934,3.57,-2.66,-5.77,4,6
19043.296,0.242,0.265,0.923,4.97,-1.89,-6.07,4,6
19043.312,0.247,0.267,0.909,6.99,-0.43,-6.26,4,6
19043.328,0.24,0.27,0.914,8.3,1.74,-6.71,4,6
19043.328,0.231,0.284,0.922,8.67,2.72,-7.35,4,6
19043.343,0.226,0.3,0.92,8.55,2.81,-7.54,4,6
19043.343,0.222,0.306,0.916,7.6,2.72,-7.42,4,6
19043.359,0.217,0.315,0.916,5.92,2.81,-7.32,4,6
19043.359,0.214,0.33,0.92,4.46,2.9,-6.1,4,6
19043.375,0.223,0.332,0.926,2.56,2.62,-4.7,4,6
19043.39,0.213,0.323,0.938,0.0,2.5,-4.67,4,6
19043.406,0.203,0.311,0.951,-1.19,1.46,-3.85,4,6
19043.406,0.2,0.303,0.943,-0.98,-0.49,-2.17,4,6
19043.421,0.212,0.296,0.922,-1.4,-1.86,-0.98,4,6
19043.421,0.22,0.286,0.921,-1.71,-1.92,-0.98,4,6
19043.437,0.218,0.289,0.932,-0.85,-1.65,-0.95,4,6
19043.453,0.215,0.298,0.933,-0.15,-1.86,-0.61,4,6
19043.453,0.219,0.296,0.928,-0.58,-2.59,-0.43,4,6
19043.468,0.226,0.287,0.924,-0.76,-2.9,-0.73,4,6
19043.484,0.227,0.284,0.927,0.18,-2.59,-1.07,4,6
19043.484,0.22,0.285,0.935,1.28,-2.38,-1.19,4,6
19043.5,0.215,0.276,0.936,2.41,-2.56,-1.19,4,6
19043.5,0.222,0.274,0.933,3.42,-3.23,-1.4,4,6
19043.515,0.223,0.279,0.931,4.7,-3.57,-1.86,4,6
19043.531,0.229,0.281,0.931,6.04,-3.57,-2.41,4,6
19043.531,0.237,0.28,0.92,7.32,-3.33,-3.39,4,6
19043.546,0.236,0.288,0.907,7.32,-2.29,-4.82,4,6
19043.562,0.235,0.303,0.92,6.87,-0.82,-5.22,4,6
19043.562,0.228,0.309,0.917,6.47,-0.18,-5.62,4,6
19043.578,0.227,0.32,0.907,5.28,-0.06,-5.4,4,6
19043.593,0.225,0.318,0.907,3.48,0.58,-5.01,4,6
19043.593,0.22,0.322,0.915,1.16,0.61,-5.37,4,6
19043.609,0.218,0.32,0.911,-1.22,-0.09,-5.74,4,6
19043.625,0.225,0.311,0.897,-4.24,-0.76,-6.32,4,6
19043.625,0.238,0.3,0.897,-7.08,-0.27,-7.93,4,6
19043.64,0.234,0.283,0.907,-7.78,2.29,-8.91,4,6
19043.64,0.238,0.265,0.924,-5.92,5.46,-8.67,4,6
19043.656,0.228,0.263,0.949,0.64,8.88,-7.78,4,6
19043.671,0.21,0.272,0.944,8.03,10.59,-6.84,4,6
19043.671,0.208,0.274,0.938,11.99,10.32,-6.99,4,6
19043.687,0.205,0.287,0.931,13.67,9.95,-7.6,4,6
19043.703,0.209,0.297,0.911,13.92,9.86,-8.51,4,6
19043.703,0.217,0.305,0.903,12.57,10.56,-9.61,4,6
19043.718,0.204,0.315,0.911,12.24,12.18,-10.13,4,6
19043.734,0.204,0.32,0.912,13.34,13.82,-8.88,4,6
19043.734,0.206,0.334,0.916,13.4,15.41,-7.69,4,6
19043.75,0.188,0.342,0.919,13.21,16.24,-7.39,4,6
19043.75,0.178,0.342,0.933,13.03,15.66,-6.16,4,6
19043.781,0.135,0.341,1.006,15.59,11.47,-2.23,4,6
19043.781,0.12,0.333,1.026,20.57,6.9,1.62,4,6
19043.796,0.093,0.356,1.004,25.54,0.67,5.34,4,6
19043.812,0.079,0.433,0.997,26.67,-6.26,10.5,4,6
19043.812,0.106,0.408,1.052,26.55,-15.23,14.92,4,6
19043.828,0.077,0.315,1.078,25.64,-28.9,14.31,4,6
19043.843,-0.022,0.33,1.146,25.82,-47.36,13.49,4,6
19043.843,0.089,0.36,1.142,32.47,-68.12,23.16,4,6
19043.859,0.166,0.309,1.067,36.74,-84.17,25.51,4,6
19043.875,0.18,0.304,0.958,37.63,-94.79,20.63,4,6
19043.875,0.223,0.322,0.859,33.23,-101.32,15.72,4,6
19043.89,0.283,0.321,0.81,28.63,-101.05,10.96,4,6
19043.89,0.332,0.33,0.775,26.76,-95.61,6.93,4,6
19043.906,0.372,0.367,0.763,24.78,-87.56,3.69,4,6
19043.921,0.402,0.393,0.744,23.71,-78.89,1.25,4,6
19043.921,0.417,0.386,0.72,21.67,-70.16,-1.19,4,6
19043.937,0.439,0.357,0.702,17.61,-60.82,-4.27,4,6
19043.953,0.468,0.354,0.698,16.08,-49.65,-8.15,4,6
19043.953,0.469,0.368,0.682,18.49,-36.77,-11.72,4,6
19043.968,0.454,0.369,0.673,21.33,-22.98,-14.07,4,6
19043.984,0.422,0.393,0.698,23.62,-10.25,-15.78,4,6
19043.984,0.397,0.454,0.745,23.83,-1.04,-15.41,4,6
19044.0,0.354,0.491,0.777,21.18,4.7,-14.5,4,6
19044.0,0.327,0.513,0.822,18.13,6.38,-12.24,4,6
19044.015,0.306,0.549,0.873,15.69,5.92,-7.02,4,6
19044.031,0.271,0.531,0.881,15.38,2.35,-0.61,4,6
19044.031,0.277,0.511,0.879,13.15,-2.5,6.93,4,6
19044.046,0.28,0.483,0.859,9.86,-6.93,12.73,4,6
19044.062,0.306,0.447,0.838,6.71,-10.38,16.17,4,6
19044.062,0.339,0.429,0.815,4.43,-10.74,18.65,4,6
19044.078,0.376,0.383,0.803,4.49,-8.48,18.86,4,6
19044.093,0.411,0.361,0.791,7.17,-4.21,16.6,4,6
19044.093,0.407,0.365,0.759,11.96,2.59,13.18,4,6
19044.109,0.41,0.379,0.754,16.85,10.62,11.38,4,6
19044.125,0.355,0.405,0.735,16.91,16.48,9.19,4,6
19044.125,0.357,0.444,0.745,-3.57,20.08,6.93,4,6
19044.14,0.39,0.462,0.757,-14.71,23.35,2.81,4,6
19044.156,0.361,0.457,0.77,-22.86,23.56,0.79,4,6
19044.156,0.352,0.443,0.799,-27.92,21.76,-1.65,4,6
19044.171,0.328,0.417,0.865,-30.73,19.87,-4.7,4,6
19044.171,0.256,0.412,0.985,-29.3,14.92,-5.46,4,6
19044.187,0.28,0.364,1.023,-25.15,2.08,-3.51,4,6
19044.203,0.287,0.358,0.967,-21.67,-8.27,-5.49,4,6
19044.203,0.31,0.334,0.865,-18.28,-13.46,-8.97,4,6
19044.218,0.312,0.319,0.812,-18.77,-13.92,-13.12,4,6
19044.234,0.329,0.333,0.8,-20.81,-12.76,-16.66,4,6
19044.234,0.345,0.358,0.822,-23.5,-11.35,-19.84,4,6
19044.25,0.366,0.35,0.843,-24.81,-10.01,-22.46,4,6
19044.25,0.375,0.341,0.855,-21.7,-7.54,-25.12,4,6
19044.265,0.364,0.337,0.86,-14.13,-4.49,-27.28,4,6
19044.281,0.348,0.343,0.86,-6.62,-2.23,-28.84,4,6
19044.281,0.323,0.378,0.865,-2.26,-1.01,-30.24,4,6
19044.296,0.311,0.399,0.862,-2.78,-1.74,-30.95,4,6
19044.312,0.313,0.409,0.862,-7.23,-3.94,-31.56,4,6
19044.312,0.318,0.408,0.868,-10.16,-5.52,-31.43,4,6
19044.328,0.311,0.409,0.863,-10.96,-6.26,-30.67,4,6
19044.343,0.305,0.416,0.84,-13.12,-6.93,-30.37,4,6
19044.343,0.316,0.406,0.833,-15.96,-6.96,-29.3,4,6
19044.359,0.316,0.4,0.851,-14.86,-4.76,-27.22,4,6
19044.359,0.308,0.4,0.862,-11.02,-2.53,-25.42,4,6
19044.375,0.298,0.406,0.861,-8.73,-2.04,-23.77,4,6
19044.39,0.295,0.416,0.874,-7.81,-1.59,-21.18,4,6
19044.406,0.281,0.42,0.88,-7.45,-1.77,-18.59,4,6
19044.406,0.281,0.428,0.876,-9.7,-3.57,-16.48,4,6
19044.421,0.288,0.43,0.878,-11.81,-5.1,-13.89,4,6
19044.421,0.289,0.403,0.877,-11.41,-5.49,-11.14,4,6
19044.437,0.286,0.394,0.871,-8.58,-5.34,-8.88,4,6
19044.453,0.293,0.396,0.856,-7.17,-5.58,-7.6,4,6
19044.453,0.307,0.393,0.851,-8.3,-5.74,-7.39,4,6
19044.468,0.311,0.381,0.851,-9.13,-4.82,-7.66,4,6
19044.468,0.317,0.378,0.852,-9.37,-4.09,-7.97,4,6
19044.484,0.326,0.386,0.855,-9.83,-3.14,-7.66,4,6
19044.5,0.326,0.383,0.859,-9.55,-1.86,-7.2,4,6
19044.5,0.32,0.369,0.863,-8.06,-0.76,-6.38,4,6
19044.515,0.321,0.374,0.873,-6.29,-0.21,-6.13,4,6
19044.531,0.316,0.371,0.869,-5.31,-0.21,-7.26,4,6
19044.531,0.312,0.362,0.869,-5.16,0.0,-8.33,4,6
19044.546,0.31,0.363,0.879,-3.78,0.49,-9.09,4,6
19044.562,0.302,0.368,0.884,-1.95,0.58,-9.95,4,6
19044.562,0.293,0.373,0.889,-0.61,0.55,-10.13,4,6
19044.578,0.294,0.381,0.883,1.16,0.0,-9.16,4,6
19044.593,0.292,0.388,0.87,2.59,-0.4,-8.09,4,6
19044.593,0.285,0.394,0.872,2.99,-0.55,-7.11,4,6
19044.609,0.285,0.401,0.871,3.2,-0.89,-5.28,4,6
19044.625,0.292,0.402,0.866,4.03,-1.28,-3.27,4,6
19044.625,0.293,0.411,0.868,2.47,-1.86,-2.47,4,6
19044.64,0.295,0.404,0.857,-0.03,-2.72,-1.89,4,6
19044.64,0.305,0.389,0.844,-2.56,-3.05,-1.22,4,6
19044.656,0.308,0.379,0.851,-4.64,-2.53,-1.31,4,6
19044.671,0.308,0.38,0.855,-4.94,-1.43,-1.13,4,6
19044.687,0.314,0.385,0.868,-4.55,-0.34,-0.12,4,6
19044.687,0.304,0.374,0.867,-3.94,0.21,-0.27,4,6
19044.703,0.301,0.373,0.863,-4.79,0.4,-0.98,4,6
19044.703,0.308,0.375,0.869,-5.13,0.67,-1.1,4,6
19044.718,0.304,0.374,0.875,-4.55,1.1,-1.95,4,6
19044.734,0.295,0.382,0.884,-4.39,0.7,-2.87,4,6
19044.734,0.291,0.39,0.881,-3.72,-0.09,-2.44,4,6
19044.75,0.296,0.377,0.845,-3.54,-0.4,-1.22,4,6
19044.765,0.306,0.368,0.863,-6.38,0.49,-1.34,4,6
19044.765,0.287,0.381,0.895,-6.41,0.46,-2.26,4,6
19044.781,0.302,0.387,0.883,-4.91,-0.98,-0.46,4,6
19044.796,0.304,0.371,0.863,-4.12,-0.7,0.24,4,6
19044.812,0.301,0.368,0.868,-3.72,-0.18,0.31,4,6
19044.812,0.299,0.37,0.868,-3.3,0.18,0.55,4,6
19044.828,0.299,0.367,0.875,-2.53,0.64,0.67,4,6
19044.843,0.29,0.38,0.888,-1.74,0.79,0.79,4,6
19044.843,0.29,0.38,0.892,-1.19,0.34,1.77,4,6
19044.859,0.289,0.369,0.881,0.03,-0.24,2.62,4,6
19044.859,0.29,0.367,0.871,0.58,-0.52,3.14,4,6
19044.875,0.289,0.369,0.879,-0.24,-0.46,3.02,4,6
19044.89,0.287,0.37,0.892,0.55,-0.4,3.57,4,6
19044.89,0.294,0.372,0.906,3.27,-0.82,5.1,4,6
19044.906,0.295,0.367,0.918,6.78,-1.4,6.23,4,6
19044.921,0.294,0.357,0.934,9.98,-2.62,7.57,4,6
19044.921,0.295,0.341,0.94,13.95,-4.97,8.12,4,6
19044.937,0.304,0.334,0.904,18.95,-7.57,8.03,4,6
19044.953,0.313,0.32,0.874,23.35,-8.82,6.99,4,6
19044.968,0.312,0.381,0.831,29.63,-7.14,5.01,4,6
19044.984,0.327,0.387,0.807,26.09,-6.38,3.66,4,6
19044.984,0.338,0.391,0.794,20.94,-3.88,1.31,4,6
19045.0,0.352,0.378,0.795,17.79,0.03,-0.61,4,6
19045.0,0.347,0.37,0.814,16.75,4.7,-3.02,4,6
19045.015,0.33,0.365,0.848,17.76,7.66,-5.98,4,6
19045.031,0.314,0.377,0.869,19.56,8.18,-8.67,4,6
19045.031,0.297,0.405,0.902,20.51,6.71,-10.74,4,6
19045.046,0.266,0.444,0.927,21.97,2.96,-10.65,4,6
19045.062,0.276,0.45,0.888,23.68,-1.62,-7.14,4,6
19045.062,0.282,0.451,0.843,23.53,-3.54,-4.39,4,6
19045.078,0.278,0.449,0.807,21.52,-3.72,-2.59,4,6
19045.093,0.287,0.46,0.803,16.91,-3.42,-1.07,4,6
19045.093,0.297,0.47,0.808,11.93,-3.17,0.0,4,6
19045.109,0.302,0.469,0.808,7.14,-2.87,0.7,4,6
19045.125,0.307,0.463,0.806,-1.74,-1.77,0.79,4,6
19045.14,0.305,0.455,0.821,-7.48,-0.15,2.59,4,6
19045.156,0.298,0.435,0.838,-9.31,0.15,2.81,4,6
19045.156,0.297,0.431,0.855,-10.19,0.18,3.3,4,6
19045.171,0.3,0.426,0.858,-9.95,-0.09,4.0,4,6
19045.171,0.297,0.419,0.854,-9.52,-0.46,3.97,4,6
19045.187,0.299,0.418,0.854,-9.64,-0.95,4.06,4,6
19045.203,0.304,0.422,0.853,-9.19,-1.19,4.58,4,6
19045.203,0.303,0.421,0.848,-9.16,-1.43,4.7,4,6
19045.218,0.308,0.411,0.848,-9.98,-1.71,4.3,4,6
19045.234,0.314,0.399,0.849,-9.92,-1.59,3.78,4,6
19045.234,0.317,0.39,0.853,-8.7,-1.19,3.17,4,6
19045.25,0.313,0.389,0.867,-6.56,-0.73,2.23,4,6
19045.25,0.31,0.389,0.867,-4.49,-0.98,1.46,4,6
19045.265,0.313,0.39,0.861,-3.85,-1.74,0.46,4,6
19045.281,0.313,0.396,0.85,-3.72,-2.26,-1.28,4,6
19045.281,0.312,0.405,0.851,-3.27,-2.11,-1.8,4,6
19045.296,0.311,0.42,0.854,-2.84,-1.46,-0.95,4,6
19045.312,0.307,0.415,0.851,-2.69,-1.19,-0.06,4,6
19045.312,0.299,0.406,0.85,-3.66,-1.34,-0.06,4,6
19045.328,0.301,0.408,0.855,-5.1,-1.77,-0.24,4,6
19045.343,0.302,0.409,0.86,-5.43,-1.77,0.15,4,6
19045.343,0.298,0.412,0.859,-4.09,-1.19,1.65,4,6
19045.359,0.298,0.407,0.857,-3.11,-1.22,2.53,4,6
19045.375,0.303,0.397,0.856,-3.45,-1.68,2.72,4,6
19045.375,0.309,0.396,0.854,-3.66,-1.86,2.72,4,6
19045.39,0.314,0.394,0.857,-3.63,-1.62,2.41,4,6
19045.39,0.315,0.393,0.863,-3.48,-1.68,1.77,4,6
19045.406,0.313,0.398,0.861,-2.93,-2.11,1.34,4,6
19045.421,0.316,0.398,0.853,-2.62,-2.14,1.56,4,6
19045.421,0.318,0.393,0.852,-2.44,-2.04,1.28,4,6
19045.437,0.316,0.394,0.865,-1.77,-1.95,0.82,4,6
19045.453,0.313,0.391,0.875,-0.06,-1.68,1.04,4,6
19045.453,0.311,0.386,0.869,2.17,-1.89,1.31,4,6
19045.468,0.312,0.383,0.858,3.97,-2.35,0.89,4,6
19045.484,0.313,0.387,0.861,4.85,-2.35,0.21,4,6
19045.484,0.309,0.393,0.861,5.58,-2.35,-0.27,4,6
19045.5,0.31,0.397,0.85,6.1,-2.69,-0.4,4,6
19045.5,0.313,0.404,0.839,5.43,-2.47,-0.82,4,6
19045.515,0.313,0.41,0.838,3.94,-1.68,-1.1,4,6
19045.531,0.308,0.409,0.841,2.66,-0.85,-0.89,4,6
19045.531,0.301,0.409,0.846,1.56,-0.4,-0.52,4,6
19045.546,0.307,0.417,0.855,0.64,-0.52,0.34,4,6
19045.562,0.307,0.418,0.863,-0.24,-0.49,1.07,4,6
19045.562,0.301,0.417,0.858,-0.52,-0.82,1.68,4,6
19045.578,0.308,0.414,0.845,-1.31,-1.68,2.62,4,6
19045.593,0.319,0.409,0.841,-2.62,-2.41,2.87,4,6
19045.593,0.327,0.404,0.841,-3.27,-2.14,2.69,4,6
19045.609,0.335,0.4,0.848,-3.17,-1.59,2.47,4,6
19045.609,0.335,0.395,0.856,-2.69,-0.92,1.86,4,6
19045.625,0.327,0.384,0.852,-1.77,-0.67,0.89,4,6
19045.64,0.32,0.374,0.848,-1.19,-0.85,-0.61,4,6
19045.64,0.316,0.377,0.856,-0.52,-0.49,-2.23,4,6
19045.656,0.307,0.397,0.871,0.31,0.12,-2.93,4,6
19045.671,0.301,0.407,0.88,1.86,0.4,-1.86,4,6
19045.671,0.292,0.405,0.865,3.08,-0.18,-1.1,4,6
19045.687,0.287,0.4,0.844,2.47,-0.89,-1.13,4,6
19045.703,0.292,0.413,0.851,0.46,-1.04,-0.67,4,6
19045.703,0.299,0.425,0.862,-0.76,-0.95,0.61,4,6
19045.718,0.306,0.424,0.855,-1.28,-1.28,2.04,4,6
19045.734,0.315,0.409,0.838,-2.17,-1.89,2.44,4,6
19045.734,0.324,0.402,0.835,-3.36,-1.83,2.32,4,6
19045.75,0.325,0.402,0.846,-3.88,-1.19,1.95,4,6
19045.75,0.326,0.401,0.855,-3.94,-1.04,1.56,4,6
19045.765,0.331,0.396,0.847,-3.88,-1.25,1.1,4,6
19045.781,0.331,0.383,0.845,-3.33,-1.04,0.21,4,6
19045.781,0.323,0.382,0.856,-2.38,-0.46,-0.76,4,6
19045.796,0.322,0.378,0.868,-0.67,-0.15,-0.98,4,6
19045.812,0.318,0.378,0.869,1.43,0.21,-0.73,4,6
19045.828,0.31,0.388,0.872,2.81,-0.46,-2.32,4,6
19045.843,0.303,0.404,0.872,4.0,-0.61,-1.77,4,6
19045.843,0.299,0.419,0.862,4.58,-0.95,-0.49,4,6
19045.859,0.301,0.417,0.84,3.27,-1.37,0.58,4,6
19045.859,0.305,0.414,0.834,0.98,-1.37,0.82,4,6
19045.875,0.307,0.415,0.839,-1.19,-0.79,1.1,4,6
19045.89,0.31,0.408,0.845,-2.81,-0.58,1.4,4,6
19045.906,0.313,0.4,0.853,-3.39,-0.31,1.56,4,6
19045.906,0.313,0.395,0.865,-2.26,-0.06,1.68,4,6
19045.921,0.31,0.389,0.861,-0.76,-0.12,1.43,4,6
19045.921,0.313,0.386,0.852,-0.15,-0.49,1.01,4,6
19045.937,0.318,0.387,0.861,0.61,-0.43,0.37,4,6
19045.953,0.316,0.393,0.867,2.17,-0.27,0.24,4,6
19045.953,0.313,0.397,0.858,3.3,-0.52,0.46,4,6
19045.968,0.316,0.403,0.852,2.96,-1.04,0.15,4,6
19045.984,0.318,0.41,0.85,2.14,-1.22,0.0,4,6
19046.0,0.314,0.406,0.851,0.64,-0.79,0.67,4,6
19046.0,0.309,0.407,0.861,0.37,-0.7,1.37,4,6
19046.015,0.31,0.402,0.862,0.24,-0.92,2.08,4,6
19046.031,0.312,0.391,0.864,0.55,-1.04,2.26,4,6
19046.031,0.311,0.391,0.864,1.59,-0.89,2.35,4,6
19046.046,0.311,0.391,0.863,2.66,-1.28,2.29,4,6
19046.062,0.31,0.39,0.857,2.96,-1.68,1.71,4,6
19046.062,0.315,0.393,0.854,2.72,-1.95,1.07,4,6
19046.078,0.319,0.399,0.857,2.66,-2.2,0.21,4,6
19046.093,0.312,0.411,0.858,3.51,-2.35,0.09,4,6
19046.093,0.312,0.419,0.859,4.21,-2.99,2.11,4,6
19046.109,0.309,0.421,0.859,4.09,-3.51,3.36,4,6
19046.125,0.308,0.428,0.839,2.23,-3.57,4.06,4,6
19046.125,0.314,0.418,0.831,0.43,-2.9,4.3,4,6
19046.14,0.319,0.405,0.841,-0.89,-2.32,4.49,4,6
19046.14,0.326,0.402,0.852,-1.68,-1.95,4.3,4,6
19046.156,0.323,0.395,0.86,-0.95,-1.62,4.09,4,6
19046.171,0.318,0.394,0.859,0.06,-2.01,3.72,4,6
19046.171,0.318,0.397,0.861,0.61,-2.53,3.51,4,6
19046.187,0.317,0.394,0.86,1.13,-2.72,3.6,4,6
19046.203,0.318,0.393,0.852,1.68,-2.66,3.63,4,6
19046.203,0.32,0.398,0.848,1.59,-2.66,3.51,4,6
19046.218,0.324,0.395,0.843,0.89,-2.81,3.05,4,6
19046.218,0.328,0.394,0.841,-0.18,-2.78,2.2,4,6
19046.234,0.33,0.397,0.853,-0.58,-2.47,1.56,4,6
19046.25,0.329,0.396,0.859,0.12,-2.41,1.5,4,6
19046.265,0.324,0.394,0.858,1.22,-2.44,1.43,4,6
19046.265,0.322,0.407,0.854,2.04,-2.66,1.74,4,6
19046.281,0.323,0.41,0.848,2.04,-2.96,2.11,4,6
19046.281,0.323,0.409,0.841,1.62,-3.2,2.5,4,6
19046.296,0.33,0.406,0.837,1.13,-3.3,2.69,4,6
19046.312,0.332,0.399,0.829,0.4,-2.78,2.14,4,6
19046.312,0.336,0.394,0.826,-1.16,-2.08,1.25,4,6
19046.328,0.336,0.39,0.837,-2.2,-1.19,0.21,4,6
19046.343,0.334,0.39,0.85,-1.56,-0.12,-0.61,4,6
19046.343,0.331,0.39,0.853,-0.7,0.18,-1.04,4,6
19046.359,0.324,0.391,0.864,-0.24,-0.03,-1.83,4,6
19046.359,0.32,0.398,0.87,0.43,-0.7,-2.2,4,6
19046.375,0.321,0.4,0.868,1.53,-1.59,-1.74,4,6
19046.39,0.32,0.401,0.855,2.41,-2.14,-1.19,4,6
19046.39,0.324,0.402,0.848,2.17,-2.5,-1.19,4,6
19046.406,0.327,0.405,0.841,1.16,-2.9,-1.8,4,6
19046.421,0.329,0.412,0.834,0.27,-2.81,-1.65,4,6
19046.437,0.333,0.418,0.836,-0.4,-2.01,-0.89,4,6
19046.437,0.332,0.413,0.834,-1.16,-1.31,-0.27,4,6
19046.453,0.331,0.404,0.838,-2.26,-0.82,-0.31,4,6
19046.453,0.336,0.398,0.852,-3.23,-0.79,-0.76,4,6
19046.468,0.339,0.392,0.862,-3.48,-1.16,-2.38,4,6
19046.484,0.326,0.38,0.869,-2.04,-1.65,-3.78,4,6
19046.484,0.323,0.367,0.86,0.49,-2.38,-4.67,4,6
19046.5,0.328,0.37,0.847,1.01,-3.05,-6.74,4,6
19046.515,0.331,0.374,0.842,-0.09,-3.05,-11.63,4,6
19046.531,0.327,0.374,0.837,0.06,-2.66,-13.61,4,6
19046.531,0.328,0.396,0.846,-0.7,-2.66,-15.26,4,6
19046.546,0.328,0.43,0.859,-1.71,-2.66,-15.26,4,6
19046.562,0.32,0.43,0.842,-2.59,-2.17,-13.64,4,6
19046.562,0.31,0.399,0.863,-4.94,-2.5,-12.88,4,6
19046.578,0.311,0.417,0.855,-1.56,-2.99,-10.83,4,6
19046.593,0.329,0.433,0.84,1.31,-1.98,-7.08,4,6
19046.593,0.321,0.429,0.843,1.68,-1.07,-6.29,4,6
19046.609,0.314,0.423,0.841,1.16,-0.85,-5.62,4,6
19046.625,0.317,0.419,0.845,0.37,-1.59,-4.76,4,6
19046.625,0.327,0.419,0.846,0.58,-1.56,-3.91,4,6
19046.64,0.32,0.411,0.846,0.52,-1.01,-3.66,4,6
19046.64,0.319,0.401,0.838,-0.27,-1.16,-4.12,4,6
19046.656,0.323,0.389,0.836,-1.59,-1.31,-4.85,4,6
19046.671,0.323,0.388,0.855,-2.69,-1.01,-6.16,4,6
19046.687,0.323,0.388,0.867,-0.15,-1.22,-8.61,4,6
19046.703,0.315,0.392,0.864,2.84,-1.34,-9.13,4,6
19046.718,0.314,0.396,0.859,4.82,-1.8,-9.52,4,6
19046.718,0.312,0.405,0.857,5.37,-2.04,-9.95,4,6
19046.734,0.312,0.405,0.845,5.98,-1.95,-10.16,4,6
19046.734,0.31,0.401,0.847,5.68,-1.86,-10.68,4,6
19046.75,0.313,0.412,0.85,6.41,-1.8,-10.62,4,6
19046.75,0.313,0.419,0.847,6.99,-1.59,-10.38,4,6
19046.765,0.312,0.43,0.844,7.11,-1.25,-9.89,4,6
19046.781,0.311,0.436,0.841,6.53,-1.34,-9.16,4,6
19046.781,0.314,0.437,0.836,4.73,-2.01,-8.79,4,6
19046.796,0.316,0.443,0.838,3.39,-2.04,-8.12,4,6
19046.812,0.311,0.448,0.841,3.27,-1.77,-7.05,4,6
19046.812,0.308,0.453,0.833,3.14,-1.68,-5.49,4,6
19046.828,0.307,0.45,0.83,2.29,-1.25,-3.81,4,6
19046.843,0.307,0.445,0.829,1.25,-0.89,-2.41,4,6
19046.859,0.305,0.439,0.831,0.06,-0.76,-1.62,4,6
19046.859,0.307,0.432,0.839,-0.85,-0.37,-1.04,4,6
19046.859,0.307,0.425,0.848,-1.31,-0.24,-0.76,4,6
19046.875,0.309,0.418,0.848,-1.37,-0.52,-0.95,4,6
19046.89,0.308,0.412,0.844,-1.22,-0.7,-1.59,4,6
19046.89,0.309,0.414,0.843,-1.07,-0.73,-2.2,4,6
19046.906,0.311,0.414,0.832,-1.4,-0.85,-2.72,4,6
19046.921,0.325,0.4,0.843,-3.51,-0.37,-3.51,4,6
19046.921,0.305,0.407,0.881,-1.92,-0.12,-5.31,4,6
19046.937,0.31,0.424,0.858,2.81,-0.67,-4.21,4,6
19046.953,0.312,0.422,0.838,3.23,-1.16,-4.43,4,6
19046.953,0.301,0.42,0.853,1.22,-1.1,-5.62,4,6
19046.968,0.307,0.426,0.847,1.89,-1.71,-5.16,4,6
19046.984,0.313,0.431,0.842,2.96,-1.74,-4.52,4,6
19046.984,0.304,0.44,0.846,3.88,-1.19,-4.24,4,6
19047.0,0.307,0.443,0.835,3.94,-1.34,-3.27,4,6
19047.0,0.308,0.435,0.827,2.81,-1.16,-3.14,4,6
19047.015,0.301,0.431,0.838,1.77,-0.67,-3.2,4,6
19047.031,0.303,0.436,0.843,1.89,-0.76,-2.5,4,6
19047.031,0.308,0.434,0.842,2.01,-0.61,-2.04,4,6
19047.046,0.302,0.425,0.84,1.89,-0.15,-1.86,4,6
19047.062,0.303,0.423,0.84,1.86,-0.12,-1.77,4,6
19047.078,0.308,0.426,0.84,1.8,-0.15,-1.95,4,6
19047.078,0.31,0.426,0.84,2.01,0.15,-2.93,4,6
19047.093,0.305,0.435,0.845,1.98,-0.15,-2.59,4,6
19047.093,0.306,0.437,0.835,0.92,0.06,-2.9,4,6
19047.109,0.307,0.429,0.829,0.18,0.49,-3.33,4,6
19047.109,0.301,0.44,0.844,-0.18,0.52,-3.11,4,6
19047.125,0.303,0.443,0.845,-0.7,0.18,-3.02,4,6
19047.14,0.302,0.438,0.843,-0.7,0.09,-2.66,4,6
19047.156,0.297,0.437,0.843,0.06,0.12,-2.11,4,6
19047.156,0.298,0.438,0.843,0.4,0.0,-1.43,4,6
19047.171,0.297,0.438,0.85,0.64,-0.27,-1.01,4,6
19047.171,0.297,0.436,0.845,1.07,-0.58,-0.43,4,6
19047.187,0.297,0.434,0.839,0.92,-0.89,-0.34,4,6
19047.203,0.3,0.435,0.838,0.18,-1.16,-0.34,4,6
19047.203,0.301,0.436,0.839,-0.43,-1.31,-0.58,4,6
19047.218,0.302,0.437,0.841,-0.85,-1.46,-0.73,4,6
19047.234,0.303,0.436,0.839,-1.19,-1.56,-0.7,4,6
19047.234,0.303,0.434,0.84,-1.62,-1.59,-0.85,4,6
19047.25,0.303,0.432,0.842,-1.5,-1.5,-0.73,4,6
19047.25,0.304,0.428,0.842,-1.19,-1.28,-0.64,4,6
19047.265,0.302,0.428,0.844,-0.95,-1.13,-0.73,4,6
19047.281,0.299,0.428,0.844,-0.76,-1.16,-0.95,4,6
19047.281,0.301,0.434,0.845,-0.82,-1.22,-1.07,4,6
19047.296,0.3,0.437,0.841,-0.61,-1.25,-0.95,4,6
19047.312,0.297,0.436,0.844,-0.06,-1.16,-0.61,4,6
19047.312,0.296,0.435,0.842,-0.49,-1.25,-0.52,4,6
19047.328,0.3,0.434,0.836,-1.68,-1.65,-0.52,4,6
19047.343,0.304,0.434,0.837,-2.08,-1.53,-0.37,4,6
19047.343,0.302,0.436,0.84,-2.35,-1.37,-0.37,4,6
19047.359,0.303,0.434,0.844,-3.11,-1.5,-0.46,4,6
19047.375,0.305,0.426,0.844,-2.81,-1.4,-0.34,4,6
19047.375,0.305,0.421,0.843,-1.89,-1.01,-0.09,4,6
19047.39,0.306,0.419,0.845,-1.31,-0.73,-0.24,4,6
19047.39,0.306,0.419,0.846,-0.79,-0.7,-0.76,4,6
19047.406,0.305,0.422,0.846,-0.12,-0.7,-0.95,4,6
19047.421,0.306,0.421,0.832,0.03,-0.7,-1.4,4,6
19047.421,0.311,0.418,0.841,-0.76,-0.09,-2.44,4,6
19047.437,0.3,0.433,0.859,0.21,0.0,-3.14,4,6
19047.453,0.305,0.434,0.845,1.16,-0.58,-2.66,4,6
19047.453,0.3,0.434,0.83,0.15,-0.58,-2.96,4,6
19047.468,0.306,0.429,0.816,-1.5,0.06,-3.14,4,6
19047.484,0.3,0.429,0.848,-2.87,1.07,-3.57,4,6
19047.484,0.29,0.447,0.86,-1.4,1.28,-2.59,4,6
19047.5,0.295,0.443,0.855,-0.61,0.43,-1.37,4,6
19047.5,0.292,0.436,0.846,-0.64,-0.18,-0.85,4,6
19047.515,0.29,0.426,0.842,-1.01,-0.61,-0.82,4,6
19047.531,0.298,0.43,0.844,-1.62,-1.04,-0.82,4,6
19047.531,0.302,0.433,0.843,-1.53,-1.04,-0.7,4,6
19047.546,0.302,0.428,0.846,-1.56,-0.95,-0.79,4,6
19047.562,0.302,0.424,0.847,-1.4,-0.85,-0.98,4,6
19047.562,0.3,0.422,0.847,-1.01,-0.85,-1.1,4,6
19047.578,0.301,0.426,0.849,-0.79,-1.1,-1.22,4,6
19047.593,0.301,0.425,0.85,-0.31,-1.07,-1.31,4,6
19047.593,0.299,0.422,0.839,0.15,-0.92,-1.46,4,6
19047.609,0.31,0.418,0.823,-0.12,-0.09,-1.56,4,6
19047.609,0.296,0.428,0.86,-0.4,0.98,-2.32,4,6
19047.625,0.293,0.435,0.857,1.62,0.27,-1.65,4,6
19047.64,0.299,0.432,0.847,1.65,-0.64,-1.46,4,6
19047.64,0.292,0.434,0.841,1.04,-0.58,-1.8,4,6
19047.656,0.292,0.435,0.844,0.24,-0.79,-1.46,4,6
19047.671,0.296,0.44,0.839,0.49,-0.76,-0.55,4,6
19047.671,0.292,0.437,0.841,0.06,-0.46,-0.37,4,6
19047.687,0.292,0.435,0.846,-0.95,-0.55,-0.27,4,6
19047.703,0.295,0.435,0.847,-1.25,-0.61,0.21,4,6
19047.703,0.297,0.429,0.847,-0.95,-0.7,0.67,4,6
19047.718,0.298,0.42,0.847,-0.7,-0.73,0.52,4,6
19047.734,0.3,0.417,0.849,-0.67,-0.95,0.0,4,6
19047.734,0.302,0.416,0.85,-0.12,-0.95,-0.4,4,6
19047.75,0.299,0.422,0.851,1.19,-0.64,-0.46,4,6
19047.75,0.298,0.43,0.85,2.01,-0.7,-0.55,4,6
19047.765,0.299,0.432,0.842,2.17,-1.16,-0.73,4,6
19047.781,0.299,0.433,0.839,2.01,-0.95,-0.67,4,6
19047.781,0.295,0.436,0.844,2.38,-0.52,-0.27,4,6
19047.796,0.292,0.444,0.848,2.78,-0.4,0.43,4,6
19047.812,0.29,0.447,0.847,2.35,-0.43,1.01,4,6
19047.828,0.29,0.444,0.847,1.8,-0.73,1.71,4,6
19047.828,0.286,0.439,0.851,2.2,-0.67,2.72,4,6
19047.843,0.291,0.435,0.851,2.93,-0.64,4.09,4,6
19047.843,0.299,0.429,0.848,3.51,-0.64,5.19,4,6
19047.859,0.294,0.425,0.851,4.49,-0.43,5.4,4,6
19047.875,0.299,0.427,0.853,6.04,-0.27,5.86,4,6
19047.875,0.297,0.434,0.861,8.06,-0.15,6.56,4,6
19047.89,0.294,0.433,0.863,9.95,-0.12,7.63,4,6
19047.906,0.294,0.442,0.854,10.93,-0.52,8.82,4,6
19047.906,0.297,0.44,0.837,12.02,-1.04,9.7,4,6
19047.921,0.3,0.438,0.829,12.48,-0.89,10.41,4,6
19047.921,0.308,0.445,0.834,14.28,0.27,11.84,4,6
19047.937,0.303,0.489,0.823,18.86,2.99,15.32,4,6
19047.953,0.294,0.506,0.803,20.26,5.22,19.9,4,6
19047.953,0.294,0.508,0.8,17.91,6.47,23.77,4,6
19047.968,0.296,0.508,0.802,16.45,8.7,28.14,4,6
19047.984,0.283,0.515,0.8,13.98,9.89,31.04,4,6
19047.984,0.28,0.514,0.787,7.2,8.7,32.87,4,6
19048.0,0.282,0.484,0.786,-1.1,7.66,34.21,4,6
19048.0,0.308,0.443,0.801,-6.96,5.46,36.53,4,6
19048.015,0.349,0.436,0.807,-7.39,7.63,35.04,4,6
19048.031,0.327,0.395,0.833,-7.11,11.66,31.53,4,6
19048.031,0.316,0.373,0.863,-6.5,11.14,28.66,4,6
19048.046,0.329,0.378,0.887,-5.43,8.64,24.99,4,6
19048.062,0.33,0.366,0.895,-3.17,6.62,20.91,4,6
19048.062,0.327,0.359,0.88,4.58,3.57,14.44,4,6
19048.078,0.33,0.368,0.866,7.84,2.99,12.15,4,6
19048.093,0.327,0.379,0.848,9.43,2.72,10.19,4,6
19048.093,0.327,0.4,0.85,10.62,3.23,8.76,4,6
19048.109,0.325,0.415,0.849,12.79,3.88,8.39,4,6
19048.125,0.312,0.428,0.838,14.68,3.6,7.42,4,6
19048.125,0.306,0.451,0.839,13.49,2.32,6.65,4,6
19048.14,0.312,0.457,0.841,11.96,1.5,7.02,4,6
19048.14,0.313,0.469,0.834,12.97,1.83,8.64,4,6
19048.156,0.308,0.488,0.823,15.11,2.93,11.72,4,6
19048.171,0.308,0.51,0.814,16.05,4.3,15.84,4,6
19048.171,0.296,0.527,0.817,14.74,4.88,19.81,4,6
19048.187,0.287,0.547,0.818,10.44,3.27,23.32,4,6
19048.203,0.298,0.538,0.813,5.92,1.1,26.95,4,6
19048.203,0.305,0.505,0.789,4.12,1.43,30.79,4,6
19048.218,0.309,0.477,0.777,1.53,3.02,33.02,4,6
19048.218,0.317,0.442,0.782,-3.48,3.33,32.53,4,6
19048.234,0.335,0.398,0.812,-7.81,4.61,31.71,4,6
19048.25,0.339,0.377,0.841,-8.51,5.28,29.51,4,6
19048.25,0.355,0.377,0.851,-6.78,5.31,27.5,4,6
19048.265,0.362,0.367,0.845,-4.09,6.23,26.0,4,6
19048.281,0.361,0.347,0.836,-3.17,6.07,21.7,4,6
19048.281,0.367,0.334,0.852,-5.68,3.39,13.98,4,6
19048.296,0.371,0.319,0.874,-6.74,1.19,6.53,4,6
19048.312,0.37,0.31,0.869,-4.43,-0.82,-0.7,4,6
19048.312,0.368,0.336,0.866,0.0,-1.83,-7.26,4,6
19048.328,0.356,0.377,0.865,5.8,-2.2,-11.96,4,6
19048.343,0.339,0.416,0.853,10.13,-2.5,-14.19,4,6
19048.343,0.323,0.44,0.835,11.54,-2.81,-14.34,4,6
19048.359,0.313,0.458,0.82,10.47,-2.59,-12.85,4,6
19048.359,0.312,0.474,0.811,8.33,-2.47,-10.5,4,6
19048.375,0.316,0.486,0.805,5.68,-2.2,-7.93,4,6
19048.39,0.319,0.484,0.805,2.53,-2.01,-5.86,4,6
19048.406,0.319,0.475,0.808,-0.85,-1.68,-4.24,4,6
19048.406,0.315,0.475,0.821,-3.81,-1.68,-3.39,4,6
19048.421,0.318,0.482,0.837,-5.77,-2.35,-1.1,4,6
19048.421,0.321,0.465,0.831,-6.41,-2.78,1.56,4,6
19048.437,0.328,0.442,0.819,-7.14,-2.69,3.05,4,6
19048.453,0.335,0.42,0.821,-8.88,-2.9,2.53,4,6
19048.453,0.341,0.4,0.837,-9.89,-3.33,1.19,4,6
19048.468,0.347,0.389,0.847,-8.76,-3.6,-0.55,4,6
19048.484,0.35,0.381,0.849,-6.07,-3.51,-2.72,4,6
19048.484,0.345,0.38,0.847,-2.84,-3.08,-4.85,4,6
19048.5,0.342,0.4,0.845,0.67,-2.11,-5.62,4,6
19048.5,0.327,0.435,0.844,3.54,-1.22,-5.01,4,6
19048.515,0.325,0.461,0.83,4.15,-1.1,-2.99,4,6
19048.531,0.323,0.464,0.819,2.47,-1.1,-1.13,4,6
19048.531,0.319,0.469,0.815,0.03,-1.16,0.34,4,6
19048.546,0.321,0.468,0.819,-2.81,-1.5,1.89,4,6
19048.562,0.325,0.459,0.826,-5.31,-1.59,3.66,4,6
19048.562,0.326,0.446,0.828,-6.68,-1.56,5.16,4,6
19048.578,0.331,0.428,0.827,-7.45,-1.68,6.26,4,6
19048.593,0.339,0.406,0.833,-7.32,-1.01,6.71,4,6
19048.593,0.342,0.387,0.843,-6.01,-0.52,5.65,4,6
19048.609,0.346,0.382,0.852,-3.97,-0.31,4.18,4,6
19048.625,0.349,0.381,0.847,-1.16,-0.24,2.78,4,6
19048.625,0.345,0.392,0.837,1.53,-0.12,1.16,4,6
19048.64,0.338,0.412,0.832,2.72,0.24,-0.12,4,6
19048.64,0.332,0.434,0.839,3.14,0.43,-0.34,4,6
19048.656,0.325,0.452,0.832,3.48,0.43,0.85,4,6
19048.671,0.322,0.453,0.82,2.38,0.46,2.41,4,6
19048.671,0.326,0.447,0.819,-0.21,0.27,3.75,4,6
19048.687,0.334,0.43,0.825,-2.23,0.34,4.33,4,6
19048.703,0.332,0.413,0.834,-2.99,0.79,4.36,4,6
19048.703,0.331,0.405,0.854,-2.5,1.04,4.18,4,6
19048.718,0.325,0.411,0.867,-0.7,1.59,3.63,4,6
19048.734,0.315,0.438,0.862,1.31,1.59,3.66,4,6
19048.734,0.276,0.477,0.894,1.62,-1.04,4.58,4,6
19048.75,0.21,0.506,0.912,0.79,-7.84,8.82,4,6
19048.765,0.208,0.469,1.011,-6.1,-21.42,15.63,4,6
19048.765,0.271,0.409,1.041,-5.25,-42.3,19.41,4,6
19048.781,0.329,0.394,0.934,-2.62,-56.64,20.05,4,6
19048.781,0.35,0.329,0.851,-2.81,-63.11,15.17,4,6
19048.796,0.408,0.293,0.771,-0.95,-62.99,11.02,4,6
19048.812,0.459,0.319,0.714,0.21,-55.27,4.52,4,6
19048.828,0.477,0.358,0.67,2.84,-43.89,-1.37,4,6
19048.828,0.498,0.39,0.671,4.91,-31.98,-4.67,4,6
19048.843,0.509,0.433,0.678,4.67,-20.84,-7.02,4,6
19048.843,0.502,0.432,0.671,3.08,-10.65,-9.06,4,6
19048.859,0.497,0.434,0.687,1.62,-0.67,-10.25,4,6
19048.875,0.465,0.464,0.711,2.04,8.76,-10.07,4,6
19048.875,0.438,0.462,0.727,0.55,16.14,-8.06,4,6
19048.89,0.409,0.45,0.743,-2.78,21.94,-6.26,4,6
19048.89,0.387,0.435,0.766,-4.97,26.28,-4.85,4,6
19048.906,0.37,0.431,0.813,-7.72,28.5,-4.27,4,6
19048.921,0.348,0.434,0.863,-9.49,28.32,-4.03,4,6
19048.937,0.322,0.439,0.892,-8.33,26.03,-1.95,4,6
19048.937,0.297,0.443,0.902,-6.56,21.39,1.1,4,6
19048.953,0.297,0.425,0.905,-6.16,14.53,4.3,4,6
19048.953,0.319,0.397,0.89,-6.93,7.97,5.8,4,6
19048.968,0.35,0.368,0.874,-6.04,4.15,5.68,4,6
19048.984,0.378,0.348,0.857,-3.23,2.66,3.42,4,6
19048.984,0.396,0.34,0.829,-0.67,2.41,-0.92,4,6
19049.0,0.415,0.342,0.804,1.19,3.2,-5.83,4,6
19049.0,0.428,0.351,0.795,2.9,6.04,-10.9,4,6
19049.015,0.426,0.36,0.787,6.68,9.95,-14.77,4,6
19049.031,0.376,0.389,0.87,11.75,13.06,-16.63,4,6
19049.031,0.29,0.443,0.968,17.82,8.24,-15.59,4,6
19049.046,0.333,0.46,0.9,17.67,-7.45,-10.74,4,6
19049.062,0.329,0.454,0.826,14.44,-7.69,-10.44,4,6
19049.062,0.312,0.427,0.772,9.52,-6.74,-8.94,4,6
19049.078,0.329,0.438,0.764,5.25,-4.12,-7.35,4,6
19049.093,0.343,0.484,0.806,0.09,-2.66,-6.38,4,6
19049.093,0.348,0.458,0.792,-4.91,-3.02,-6.13,4,6
19049.109,0.356,0.427,0.778,-8.7,-2.11,-6.68,4,6
19049.125,0.365,0.398,0.775,-10.59,0.18,-7.39,4,6
19049.125,0.383,0.379,0.782,-10.9,3.57,-8.55,4,6
19049.14,0.384,0.37,0.802,-9.49,7.39,-10.9,4,6
19049.14,0.373,0.37,0.81,-7.2,10.1,-14.13,4,6
19049.156,0.37,0.379,0.81,-6.53,11.26,-17.55,4,6
19049.171,0.37,0.394,0.819,-7.02,12.36,-20.69,4,6
19049.171,0.353,0.429,0.845,-5.43,14.01,-22.03,4,6
19049.187,0.328,0.457,0.85,-2.29,14.59,-20.97,4,6
19049.203,0.314,0.47,0.848,-1.65,13.25,-18.68,4,6
19049.203,0.308,0.477,0.843,-2.47,11.47,-16.3,4,6
19049.218,0.3,0.472,0.835,-3.88,10.35,-14.19,4,6
19049.234,0.301,0.456,0.823,-6.81,9.43,-12.51,4,6
19049.234,0.298,0.441,0.823,-9.77,9.52,-11.32,4,6
19049.25,0.299,0.432,0.823,-11.69,9.77,-10.28,4,6
19049.25,0.32,0.421,0.814,-13.89,9.89,-9.83,4,6
19049.265,0.326,0.416,0.818,-16.51,11.6,-11.35,4,6
19049.281,0.313,0.41,0.844,-17.33,13.76,-13.09,4,6
19049.281,0.299,0.417,0.896,-14.19,14.22,-12.6,4,6
19049.296,0.286,0.428,0.915,-7.66,12.91,-10.65,4,6
19049.312,0.278,0.431,0.905,-2.62,9.74,-9.16,4,6
19049.328,0.276,0.426,0.885,-1.65,6.1,-8.82,4,6
19049.328,0.279,0.418,0.875,-1.68,3.45,-8.12,4,6
19049.343,0.29,0.416,0.859,-0.55,1.83,-6.74,4,6
19049.343,0.308,0.422,0.848,-0.43,0.98,-6.01,4,6
19049.359,0.31,0.422,0.838,-1.22,1.07,-6.53,4,6
19049.359,0.313,0.415,0.835,-1.62,1.62,-6.81,4,6
19049.375,0.314,0.422,0.843,-1.01,2.2,-7.42,4,6
19049.39,0.299,0.44,0.852,-0.09,2.53,-7.87,4,6
19049.39,0.292,0.439,0.865,0.31,2.04,-7.02,4,6
19049.406,0.283,0.452,0.881,1.28,0.98,-5.62,4,6
19049.421,0.28,0.449,0.876,2.23,-1.04,-4.24,4,6
19049.421,0.282,0.427,0.859,2.14,-2.47,-3.05,4,6
19049.437,0.287,0.412,0.852,2.47,-2.59,-2.35,4,6
19049.453,0.29,0.407,0.865,3.72,-2.38,-2.01,4,6
19049.453,0.289,0.403,0.866,5.62,-2.72,-2.47,4,6
19049.468,0.283,0.396,0.857,6.9,-3.39,-3.45,4,6
19049.468,0.276,0.411,0.853,7.42,-3.75,-4.97,4,6
19049.484,0.264,0.44,0.861,8.79,-3.6,-4.82,4,6
19049.5,0.252,0.489,0.862,10.32,-3.94,-2.32,4,6
19049.5,0.254,0.518,0.842,8.97,-4.88,1.74,4,6
19049.515,0.262,0.509,0.82,3.94,-6.1,5.95,4,6
19049.531,0.277,0.495,0.819,-2.62,-6.38,10.28,4,6
19049.546,0.291,0.476,0.831,-7.87,-5.77,14.8,4,6
19049.546,0.311,0.448,0.828,-11.08,-5.01,18.34,4,6
19049.562,0.33,0.406,0.823,-11.54,-4.3,18.98,4,6
19049.562,0.337,0.37,0.837,-10.04,-3.02,16.08,4,6
19049.578,0.336,0.352,0.846,-6.59,-1.65,11.44,4,6
19049.593,0.337,0.34,0.848,-2.56,0.09,7.23,4,6
19049.593,0.339,0.346,0.855,1.92,1.5,3.05,4,6
19049.609,0.333,0.374,0.84,5.4,2.59,-0.58,4,6
19049.609,0.336,0.397,0.839,6.07,2.78,-2.84,4,6
19049.625,0.353,0.413,0.836,6.38,3.27,-4.79,4,6
19049.64,0.365,0.417,0.844,5.77,4.76,-7.78,4,6
19049.64,0.321,0.408,0.887,4.76,5.01,-12.63,4,6
19049.656,0.275,0.428,0.914,4.21,1.4,-16.54,4,6
19049.671,0.256,0.457,0.889,3.54,-3.57,-16.3,4,6
19049.671,0.268,0.432,0.825,3.69,-5.1,-14.34,4,6
19049.687,0.26,0.457,0.825,3.45,-2.84,-13.55,4,6
19049.703,0.26,0.463,0.823,5.22,-0.34,-10.68,4,6
19049.703,0.257,0.454,0.809,4.46,2.5,-7.54,4,6
19049.718,0.235,0.447,0.831,4.55,7.97,-2.69,4,6
19049.734,0.211,0.449,0.858,5.04,12.82,3.75,4,6
19049.734,0.215,0.419,0.85,4.49,14.68,10.1,4,6
19049.75,0.263,0.374,0.841,2.62,14.95,14.83,4,6
19049.75,0.306,0.366,0.873,4.73,14.65,15.26,4,6
19049.765,0.31,0.448,0.855,13.73,15.2,14.89,4,6
19049.781,0.29,0.523,0.804,19.38,14.86,17.27,4,6
19049.781,0.294,0.528,0.747,15.5,12.76,20.97,4,6
19049.796,0.306,0.518,0.752,3.91,12.39,21.61,4,6
19049.812,0.296,0.5,0.822,-5.16,12.12,21.61,4,6
19049.828,0.319,0.486,0.872,-10.01,7.11,22.28,4,6
19049.828,0.323,0.461,0.899,-13.12,1.86,20.78,4,6
19049.843,0.318,0.414,0.899,-13.0,-3.78,17.49,4,6
19049.843,0.318,0.38,0.87,-11.41,-9.06,13.64,4,6
19049.859,0.328,0.365,0.846,-9.61,-11.87,9.25,4,6
19049.875,0.324,0.378,0.842,-7.32,-11.6,4.79,4,6
19049.875,0.31,0.387,0.855,-5.77,-10.65,1.13,4,6
19049.89,0.285,0.42,0.876,-5.49,-10.93,-1.1,4,6
19049.89,0.265,0.444,0.877,-6.35,-13.06,-1.56,4,6
19049.906,0.266,0.45,0.872,-9.03,-15.84,-1.5,4,6
19049.921,0.263,0.465,0.878,-11.08,-18.37,-0.92,4,6
19049.921,0.264,0.46,0.895,-11.66,-20.29,1.43,4,6
19049.937,0.245,0.437,0.897,-11.08,-22.52,4.21,4,6
19049.953,0.265,0.4,0.872,-11.87,-25.42,6.53,4,6
19049.953,0.296,0.384,0.86,-12.51,-26.43,6.62,4,6
19049.968,0.306,0.386,0.861,-10.04,-24.96,6.41,4,6
19049.984,0.324,0.414,0.868,-6.78,-23.74,7.9,4,6
19049.984,0.328,0.418,0.853,-4.49,-22.89,10.56,4,6
19050.0,0.349,0.379,0.828,-3.6,-22.16,12.7,4,6
19050.0,0.376,0.366,0.811,-1.8,-19.56,13.28,4,6
19050.015,0.392,0.352,0.801,1.43,-15.2,11.84,4,6
19050.031,0.394,0.346,0.797,3.78,-10.77,9.28,4,6
19050.031,0.396,0.368,0.788,5.58,-2.84,4.33,4,6
19050.046,0.406,0.376,0.782,5.89,1.5,2.08,4,6
19050.062,0.405,0.374,0.799,7.42,4.7,-0.61,4,6
19050.062,0.346,0.384,0.847,8.7,5.86,-2.41,4,6
19050.078,0.339,0.384,0.854,8.67,5.31,-3.39,4,6
19050.093,0.331,0.386,0.863,8.55,4.39,-5.4,4,6
19050.093,0.314,0.404,0.858,9.4,3.48,-7.05,4,6
19050.109,0.312,0.41,0.85,9.37,2.32,-7.39,4,6
19050.125,0.313,0.424,0.841,8.0,0.73,-8.51,4,6
19050.125,0.314,0.459,0.823,5.04,-0.67,-9.4,4,6
19050.14,0.326,0.474,0.814,1.43,-1.74,-8.48,4,6
19050.156,0.328,0.482,0.803,-1.37,-1.43,-5.77,4,6
19050.156,0.335,0.463,0.798,-4.24,-0.31,-2.53,4,6
19050.171,0.342,0.423,0.813,-7.35,0.95,-0.73,4,6
19050.171,0.345,0.381,0.839,-8.82,1.83,-0.7,4,6
19050.187,0.352,0.354,0.859,-6.62,2.38,-1.56,4,6
19050.203,0.352,0.349,0.875,-1.83,2.72,-3.02,4,6
19050.203,0.334,0.38,0.892,3.08,1.95,-5.31,4,6
19050.218,0.315,0.434,0.879,5.55,-0.06,-5.74,4,6
19050.234,0.318,0.463,0.842,4.06,-1.95,-3.57,4,6
19050.234,0.326,0.473,0.811,1.65,-2.62,-1.1,4,6
19050.25,0.327,0.471,0.797,-1.34,-2.11,0.89,4,6
19050.25,0.323,0.479,0.808,-5.77,-0.89,2.84,4,6
19050.265,0.321,0.468,0.822,-10.22,0.0,5.62,4,6
19050.281,0.324,0.439,0.831,-12.67,0.03,7.75,4,6
19050.281,0.328,0.428,0.852,-13.95,-0.55,7.87,4,6
19050.296,0.347,0.403,0.873,-15.23,-1.95,6.74,4,6
19050.312,0.384,0.344,0.849,-16.27,-4.15,3.85,4,6
19050.312,0.43,0.25,0.866,-15.53,-4.67,-3.2,4,6
19050.328,0.384,0.204,0.935,-7.75,-2.17,-13.58,4,6
19050.343,0.361,0.207,0.922,5.49,-2.47,-21.33,4,6
19050.343,0.349,0.294,0.925,16.48,-4.09,-26.34,4,6
19050.359,0.334,0.381,0.872,24.75,-5.13,-28.17,4,6
19050.375,0.308,0.437,0.821,24.29,-4.15,-26.61,4,6
19050.375,0.279,0.496,0.787,23.13,-0.09,-22.49,4,6
19050.39,0.24,0.604,0.788,22.25,4.55,-15.5,4,6
19050.406,0.211,0.692,0.748,15.84,5.8,-4.73,4,6
19050.406,0.226,0.697,0.723,1.95,5.58,6.93,4,6
19050.421,0.248,0.609,0.728,-15.26,3.23,16.02,4,6
19050.421,0.284,0.47,0.805,-30.34,0.06,21.18,4,6
19050.437,0.311,0.349,0.837,-34.27,-1.43,22.16,4,6
19050.453,0.354,0.281,0.861,-32.59,-1.83,19.44,4,6
19050.468,0.351,0.263,0.888,-24.17,-0.58,15.02,4,6
19050.468,0.373,0.311,0.874,-14.98,-1.28,13.18,4,6
19050.484,0.401,0.326,0.865,-11.69,-2.32,10.38,4,6
19050.484,0.404,0.339,0.863,-10.1,-2.87,5.1,4,6
19050.5,0.4,0.329,0.855,-6.96,-3.45,-0.18,4,6
19050.515,0.386,0.337,0.858,-2.75,-3.17,-4.58,4,6
19050.515,0.362,0.348,0.869,1.43,-2.38,-8.39,4,6
19050.531,0.34,0.368,0.88,3.63,-2.93,-11.02,4,6
19050.531,0.315,0.397,0.863,4.46,-4.24,-13.09,4,6
19050.546,0.305,0.428,0.841,3.36,-5.43,-13.25,4,6
19050.562,0.306,0.442,0.827,0.64,-5.58,-11.75,4,6
19050.562,0.305,0.449,0.834,-2.62,-4.91,-9.86,4,6
19050.578,0.305,0.447,0.833,-5.77,-3.72,-7.23,4,6
19050.593,0.316,0.436,0.827,-9.03,-2.47,-4.33,4,6
19050.593,0.323,0.409,0.825,-11.47,-1.04,-2.72,4,6
19050.609,0.32,0.386,0.859,-12.63,0.31,-2.38,4,6
19050.625,0.317,0.378,0.897,-11.6,0.27,-1.92,4,6
19050.625,0.323,0.388,0.901,-8.12,-0.73,0.09,4,6
19050.64,0.336,0.362,0.879,-4.58,-1.56,1.22,4,6
19050.64,0.336,0.336,0.869,-2.17,-1.77,-0.37,4,6
19050.656,0.331,0.335,0.872,1.53,-1.65,-2.69,4,6
19050.671,0.335,0.364,0.868,6.32,-1.77,-4.18,4,6
19050.671,0.341,0.392,0.863,6.93,-2.59,-5.16,4,6
19050.687,0.355,0.395,0.85,5.71,-3.75,-6.35,4,6
19050.703,0.359,0.397,0.825,5.19,-3.97,-7.6,4,6
19050.703,0.366,0.401,0.811,4.55,-3.02,-8.33,4,6
19050.718,0.369,0.407,0.823,3.23,-1.56,-8.67,4,6
19050.734,0.351,0.415,0.842,3.36,-0.24,-8.61,4,6
19050.734,0.33,0.415,0.847,4.06,0.0,-7.57,4,6
19050.75,0.321,0.41,0.859,3.54,-0.46,-7.05,4,6
19050.765,0.313,0.395,0.875,3.48,-1.07,-6.47,4,6
19050.765,0.305,0.372,0.88,4.94,-1.8,-6.23,4,6
19050.781,0.307,0.382,0.868,6.78,-3.08,-6.32,4,6
19050.796,0.318,0.393,0.852,6.71,-4.43,-7.26,4,6
19050.796,0.321,0.398,0.844,4.82,-5.25,-8.79,4,6
19050.812,0.327,0.41,0.845,3.36,-5.28,-9.13,4,6
19050.812,0.335,0.426,0.845,3.36,-4.91,-7.6,4,6
19050.828,0.327,0.436,0.84,4.0,-4.36,-6.07,4,6
19050.843,0.323,0.449,0.829,3.45,-3.94,-3.85,4,6
19050.843,0.325,0.445,0.821,2.32,-3.48,-1.71,4,6
19050.859,0.326,0.441,0.818,1.62,-2.81,-0.15,4,6
19050.875,0.322,0.449,0.839,0.52,-2.14,1.31,4,6
19050.875,0.311,0.441,0.844,-0.76,-1.92,2.75,4,6
19050.89,0.312,0.415,0.837,-1.89,-2.53,3.81,4,6
19050.89,0.325,0.402,0.837,-2.56,-3.2,3.85,4,6
19050.906,0.334,0.405,0.85,-3.2,-3.42,3.14,4,6
19050.921,0.329,0.406,0.856,-2.93,-3.17,3.05,4,6
19050.921,0.333,0.4,0.854,-1.71,-3.3,4.09,4,6
19050.937,0.339,0.404,0.858,-0.52,-3.63,4.73,4,6
19050.953,0.335,0.417,0.859,0.06,-3.6,5.34,4,6
19050.953,0.327,0.42,0.866,0.09,-4.49,5.86,4,6
19050.968,0.327,0.419,0.854,0.43,-5.83,7.29,4,6
19050.984,0.328,0.416,0.842,0.12,-6.74,8.45,4,6
19050.984,0.335,0.421,0.833,-0.46,-6.59,9.31,4,6
19051.0,0.345,0.409,0.827,-1.19,-5.62,10.28,4,6
19051.015,0.348,0.402,0.827,-1.74,-4.3,10.22,4,6
19051.015,0.341,0.4,0.834,-2.56,-2.72,9.98,4,6
19051.031,0.341,0.396,0.834,-2.81,-1.95,10.53,4,6
19051.031,0.347,0.399,0.839,-1.98,-0.76,11.32,4,6
19051.046,0.339,0.41,0.838,-2.26,0.09,12.94,4,6
19051.062,0.343,0.423,0.823,-4.27,0.4,14.5,4,6
19051.078,0.345,0.398,0.815,-6.44,0.98,15.2,4,6
19051.078,0.35,0.376,0.817,-7.87,1.98,14.89,4,6
19051.093,0.36,0.369,0.824,-8.91,3.23,13.95,4,6
19051.093,0.368,0.358,0.839,-9.19,4.64,12.05,4,6
19051.109,0.369,0.35,0.845,-7.69,5.58,9.77,4,6
19051.125,0.367,0.352,0.842,-6.1,6.04,7.66,4,6
19051.125,0.38,0.334,0.828,-5.34,6.84,5.49,4,6
19051.14,0.393,0.307,0.828,-5.28,8.55,1.86,4,6
19051.14,0.392,0.295,0.881,-4.15,10.71,-3.81,4,6
19051.156,0.352,0.303,0.937,1.22,11.14,-9.7,4,6
19051.171,0.352,0.326,0.963,8.03,6.26,-13.67,4,6
19051.171,0.358,0.347,0.969,12.21,-1.13,-19.84,4,6
19051.187,0.32,0.404,0.95,16.24,-6.62,-25.15,4,6
19051.203,0.297,0.42,0.852,18.92,-10.16,-24.08,4,6
19051.203,0.314,0.445,0.749,16.88,-10.1,-19.32,4,6
19051.218,0.32,0.482,0.764,11.29,-6.04,-14.71,4,6
19051.234,0.307,0.485,0.791,7.23,-3.11,-9.13,4,6
19051.234,0.323,0.466,0.779,1.95,-2.44,-4.12,4,6
19051.25,0.311,0.428,0.796,-1.77,1.19,-1.4,4,6
19051.25,0.306,0.402,0.817,-1.59,5.34,0.67,4,6
19051.265,0.317,0.401,0.816,-0.73,8.03,1.65,4,6
19051.281,0.317,0.406,0.82,-2.08,9.25,1.68,4,6
19051.281,0.309,0.425,0.841,-4.36,10.56,1.74,4,6
19051.296,0.329,0.427,0.866,-4.85,9.06,2.5,4,6
19051.312,0.318,0.399,0.885,-2.5,5.98,2.5,4,6
19051.328,0.33,0.357,0.859,0.49,2.44,2.56,4,6
19051.328,0.313,0.366,0.864,-0.03,0.64,-0.31,4,6
19051.343,0.292,0.445,0.833,-0.76,-0.64,0.64,4,6
19051.343,0.341,0.513,0.788,-5.83,-1.92,7.17,4,6
19051.359,0.365,0.488,0.781,-12.97,0.4,12.18,4,6
19051.375,0.356,0.429,0.798,-18.04,3.66,14.07,4,6
19051.375,0.359,0.37,0.853,-20.54,4.82,13.86,4,6
19051.39,0.363,0.33,0.896,-17.91,4.39,12.02,4,6
19051.39,0.361,0.282,0.916,-12.63,3.17,8.51,4,6
19051.406,0.357,0.249,0.924,-6.81,0.82,2.72,4,6
19051.421,0.354,0.255,0.949,0.46,-1.46,-3.97,4,6
19051.421,0.345,0.291,0.945,9.83,-4.46,-9.67,4,6
19051.437,0.342,0.335,0.906,18.34,-6.65,-12.73,4,6
19051.453,0.338,0.359,0.86,23.8,-7.45,-15.02,4,6
19051.453,0.327,0.377,0.828,25.24,-7.48,-17.55,4,6
19051.468,0.323,0.409,0.811,23.59,-7.08,-18.95,4,6
19051.484,0.309,0.463,0.81,19.9,-5.86,-18.62,4,6
19051.484,0.29,0.539,0.812,13.7,-4.46,-15.02,4,6
19051.5,0.292,0.578,0.801,5.83,-4.43,-7.48,4,6
19051.5,0.299,0.561,0.774,-1.56,-3.69,0.67,4,6
19051.515,0.301,0.513,0.778,-9.7,-1.65,7.26,4,6
19051.531,0.312,0.447,0.817,-16.91,0.18,12.12,4,6
19051.531,0.327,0.391,0.855,-19.23,1.1,14.65,4,6
19051.546,0.342,0.352,0.876,-17.09,1.31,14.89,4,6
19051.562,0.35,0.328,0.889,-12.85,0.82,13.06,4,6
19051.562,0.35,0.312,0.899,-8.18,-0.12,9.58,4,6
19051.578,0.352,0.31,0.901,-4.18,-1.62,5.4,4,6
19051.593,0.354,0.331,0.897,0.37,-3.33,1.56,4,6
19051.593,0.352,0.362,0.875,5.19,-4.55,-1.07,4,6
19051.609,0.346,0.394,0.84,8.27,-4.73,-2.14,4,6
19051.625,0.346,0.414,0.817,8.21,-4.18,-1.95,4,6
19051.625,0.342,0.421,0.807,5.52,-2.9,-1.92,4,6
19051.64,0.336,0.42,0.811,2.5,-1.22,-1.16,4,6
19051.64,0.337,0.407,0.825,0.21,0.12,-0.18,4,6
19051.656,0.335,0.39,0.847,-0.89,1.01,0.15,4,6
19051.671,0.332,0.384,0.861,-0.76,1.34,-0.06,4,6
19051.671,0.331,0.383,0.863,-0.06,1.07,-0.58,4,6
19051.687,0.338,0.389,0.866,0.09,0.49,-1.28,4,6
19051.703,0.345,0.393,0.864,1.13,-0.09,-1.98,4,6
19051.703,0.343,0.389,0.859,2.56,-0.09,-2.5,4,6
19051.718,0.331,0.381,0.847,3.39,-0.15,-3.08,4,6
19051.734,0.331,0.374,0.839,3.39,-0.58,-3.69,4,6
19051.734,0.337,0.384,0.845,3.85,-0.85,-4.39,4,6
19051.75,0.333,0.411,0.851,5.37,-0.58,-4.52,4,6
19051.765,0.33,0.416,0.845,6.35,-0.18,-3.42,4,6
19051.765,0.319,0.416,0.835,6.23,0.43,-2.5,4,6
19051.781,0.317,0.424,0.829,5.19,0.73,-1.46,4,6
19051.781,0.318,0.433,0.836,2.96,1.01,-0.15,4,6
19051.796,0.317,0.432,0.851,0.27,0.82,1.22,4,6
19051.812,0.326,0.414,0.853,-1.01,0.06,2.2,4,6
19051.812,0.335,0.393,0.855,-1.04,-0.58,2.23,4,6
19051.828,0.339,0.374,0.856,-0.46,-0.92,0.85,4,6
19051.843,0.341,0.365,0.865,0.61,-1.89,-1.01,4,6
19051.843,0.341,0.375,0.865,2.9,-2.41,-2.41,4,6
19051.859,0.338,0.38,0.852,5.04,-2.5,-3.45,4,6
19051.859,0.332,0.386,0.837,5.89,-2.5,-4.7,4,6
19051.875,0.334,0.405,0.825,6.07,-2.01,-5.22,4,6
19051.89,0.332,0.424,0.823,5.83,-0.95,-5.19,4,6
19051.89,0.321,0.446,0.829,5.04,0.0,-4.43,4,6
19051.906,0.316,0.464,0.831,3.02,0.24,-2.2,4,6
19051.921,0.32,0.459,0.824,0.58,0.37,0.52,4,6
19051.921,0.323,0.445,0.821,-1.86,0.61,2.72,4,6
19051.937,0.326,0.427,0.832,-4.43,0.95,3.94,4,6
19051.953,0.339,0.401,0.843,-6.38,0.58,4.52,4,6
19051.953,0.348,0.376,0.852,-6.56,0.27,3.97,4,6
19051.968,0.349,0.366,0.863,-5.37,0.37,2.62,4,6
19051.984,0.342,0.369,0.871,-2.78,0.4,0.92,4,6
19051.984,0.336,0.375,0.863,-0.34,-0.37,-0.79,4,6
19052.0,0.334,0.383,0.849,2.35,-0.82,-2.93,4,6
19052.0,0.33,0.404,0.849,3.05,0.0,-2.11,4,6
19052.015,0.323,0.429,0.847,2.35,0.12,-0.76,4,6
19052.031,0.317,0.435,0.837,0.34,-0.24,0.37,4,6
19052.031,0.328,0.414,0.83,-1.56,-0.43,0.98,4,6
19052.046,0.335,0.401,0.84,-2.2,-0.12,0.95,4,6
19052.062,0.339,0.39,0.854,-1.95,-0.03,0.34,4,6
19052.062,0.339,0.384,0.856,-0.98,-0.06,-0.61,4,6
19052.078,0.335,0.39,0.857,0.46,-0.4,-1.68,4,6
19052.093,0.332,0.409,0.853,1.19,-0.95,-2.53,4,6
19052.093,0.341,0.42,0.832,0.24,-1.4,-2.78,4,6
19052.109,0.354,0.424,0.842,-2.26,-1.28,-3.3,4,6
19052.125,0.34,0.407,0.853,-4.03,-1.77,-4.67,4,6
19052.125,0.359,0.401,0.849,-6.23,-4.58,-6.84,4,6
19052.14,0.355,0.391,0.857,-8.79,-5.86,-9.74,4,6
19052.14,0.338,0.365,0.871,-7.87,-4.0,-11.93,4,6
19052.156,0.311,0.365,0.881,-3.45,-3.78,-11.81,4,6
19052.171,0.335,0.366,0.851,-0.95,-5.95,-11.17,4,6
19052.171,0.328,0.369,0.835,0.76,-4.58,-12.97,4,6
19052.187,0.3,0.364,0.839,4.97,-0.67,-13.18,4,6
19052.203,0.267,0.409,0.848,9.46,4.06,-10.53,4,6
19052.203,0.266,0.461,0.833,11.63,7.17,-5.13,4,6
19052.218,0.267,0.503,0.825,10.56,8.76,0.37,4,6
19052.234,0.272,0.528,0.82,8.12,9.28,5.89,4,6
19052.234,0.297,0.498,0.808,1.92,6.32,9.77,4,6
19052.25,0.317,0.441,0.837,-5.89,2.56,10.1,4,6
19052.265,0.335,0.382,0.808,-9.03,0.76,9.03,4,6
19052.265,0.35,0.373,0.803,-12.12,1.59,7.2,4,6
19052.281,0.334,0.384,0.847,-11.57,3.6,7.23,4,6
19052.281,0.354,0.39,0.85,-10.41,1.4,8.21,4,6
19052.296,0.372,0.399,0.851,-10.53,0.03,7.11,4,6
19052.312,0.364,0.351,0.849,-10.16,0.18,3.75,4,6
19052.328,0.361,0.316,0.865,-9.16,0.4,-0.43,4,6
19052.328,0.365,0.303,0.882,-4.3,0.0,-4.97,4,6
19052.343,0.355,0.299,0.893,0.92,-0.31,-11.11,4,6
19052.343,0.346,0.306,0.904,6.2,-1.71,-17.76,4,6
19052.359,0.335,0.324,0.886,11.29,-3.23,-23.53,4,6
19052.375,0.326,0.355,0.854,13.46,-3.94,-28.26,4,6
19052.375,0.33,0.388,0.833,13.03,-4.03,-31.77,4,6
19052.39,0.318,0.443,0.82,12.36,-2.56,-33.6,4,6
19052.39,0.291,0.486,0.783,7.93,-0.82,-32.53,4,6
19052.406,0.297,0.416,0.818,-7.69,-0.43,-33.14,4,6
19052.421,0.295,0.369,0.918,-18.86,-3.94,-40.35,4,6
19052.437,0.282,0.396,0.945,-13.92,-7.26,-41.35,4,6
19052.437,0.29,0.405,0.944,-0.46,-10.19,-37.29,4,6
19052.453,0.296,0.428,0.916,17.49,-9.46,-31.19,4,6
19052.453,0.268,0.45,0.862,29.82,-8.21,-25.91,4,6
19052.468,0.26,0.45,0.832,30.06,-8.88,-23.16,4,6
19052.484,0.261,0.478,0.819,23.62,-10.01,-20.91,4,6
19052.484,0.276,0.506,0.808,18.83,-10.77,-17.12,4,6
19052.5,0.288,0.523,0.792,16.3,-10.01,-12.82,4,6
19052.5,0.295,0.541,0.785,12.02,-8.55,-8.24,4,6
19052.515,0.299,0.536,0.777,6.74,-6.96,-3.91,4,6
19052.531,0.302,0.512,0.782,1.16,-5.22,-0.37,4,6
19052.531,0.303,0.491,0.803,-2.04,-2.81,3.14,4,6
19052.546,0.296,0.472,0.825,-3.69,-0.34,6.16,4,6
19052.562,0.295,0.432,0.84,-5.68,-0.15,7.17,4,6
19052.562,0.307,0.4,0.845,-6.93,-1.04,6.04,4,6
19052.578,0.316,0.385,0.846,-5.52,-1.28,3.91,4,6
19052.593,0.319,0.387,0.844,-2.32,-0.37,1.98,4,6
19052.593,0.322,0.409,0.856,0.7,0.58,0.55,4,6
19052.609,0.306,0.431,0.856,3.81,0.98,-0.64,4,6
19052.609,0.302,0.449,0.845,5.49,0.4,-0.67,4,6
19052.625,0.311,0.457,0.841,5.58,-0.18,-0.09,4,6
19052.64,0.301,0.459,0.823,6.01,0.34,0.27,4,6
19052.64,0.298,0.465,0.806,3.69,0.79,0.58,4,6
19052.656,0.306,0.475,0.806,-0.52,0.67,0.58,4,6
19052.671,0.303,0.476,0.798,-4.0,1.28,0.73,4,6
19052.671,0.312,0.465,0.79,-8.82,2.17,0.64,4,6
19052.687,0.332,0.432,0.757,-14.86,4.52,-0.73,4,6
19052.703,0.317,0.411,0.821,-19.32,7.93,-3.78,4,6
19052.703,0.296,0.415,0.86,-17.3,8.82,-4.73,4,6
19052.718,0.302,0.422,0.884,-14.22,7.66,-4.43,4,6
19052.734,0.28,0.428,0.892,-10.77,6.38,-4.58,4,6
19052.734,0.277,0.419,0.88,-9.03,3.39,-4.67,4,6
19052.75,0.286,0.41,0.863,-9.31,0.34,-5.43,4,6
19052.75,0.288,0.415,0.848,-8.7,-0.55,-6.26,4,6
19052.765,0.297,0.422,0.849,-8.18,-0.73,-6.5,4,6
19052.781,0.299,0.425,0.846,-7.39,-0.37,-7.29,4,6
19052.781,0.295,0.431,0.841,-8.15,-0.12,-8.3,4,6
19052.796,0.295,0.433,0.841,-10.86,-0.89,-9.58,4,6
19052.812,0.301,0.42,0.836,-13.46,-1.62,-10.56,4,6
19052.812,0.298,0.421,0.843,-14.71,-1.46,-11.05,4,6
19052.828,0.294,0.415,0.879,-12.54,-0.85,-10.5,4,6
19052.843,0.287,0.431,0.885,-6.78,-0.49,-8.24,4,6
19052.843,0.283,0.435,0.871,-1.5,-0.52,-5.68,4,6
19052.859,0.27,0.417,0.86,0.79,-0.7,-4.36,4,6
19052.875,0.263,0.411,0.858,1.92,-1.25,-3.45,4,6
19052.875,0.281,0.424,0.855,1.8,-2.17,-2.75,4,6
19052.89,0.288,0.424,0.849,0.89,-2.23,-3.05,4,6
19052.89,0.287,0.427,0.85,-0.21,-1.98,-3.42,4,6
19052.906,0.291,0.425,0.838,-0.67,-1.92,-3.48,4,6
19052.921,0.3,0.432,0.849,-1.8,-1.4,-3.33,4,6
19052.937,0.289,0.428,0.855,-1.59,-0.03,-3.08,4,6
19052.937,0.288,0.416,0.844,-1.19,0.31,-2.66,4,6
19052.953,0.291,0.412,0.84,-1.98,0.73,-2.5,4,6
19052.953,0.292,0.417,0.86,-2.81,1.19,-3.23,4,6
19052.968,0.289,0.419,0.872,-2.29,0.7,-3.63,4,6
19052.984,0.282,0.411,0.87,0.06,0.27,-3.36,4,6
19052.984,0.281,0.408,0.858,2.04,-0.64,-3.94,4,6
19053.0,0.283,0.412,0.856,1.46,-0.4,-4.36,4,6
19053.015,0.286,0.423,0.858,2.38,-0.21,-4.0,4,6
19053.015,0.288,0.423,0.839,2.99,0.27,-3.85,4,6
19053.031,0.285,0.432,0.838,1.92,1.01,-4.39,4,6
19053.031,0.282,0.427,0.847,0.34,1.16,-5.1,4,6
19053.046,0.279,0.425,0.853,-0.06,1.19,-5.25,4,6
19053.062,0.273,0.424,0.856,-0.12,0.92,-5.1,4,6
19053.062,0.273,0.428,0.858,-0.79,0.12,-5.01,4,6
19053.078,0.279,0.429,0.861,-1.28,-0.43,-4.7,4,6
19053.093,0.275,0.427,0.863,-1.04,-0.76,-4.33,4,6
19053.093,0.273,0.432,0.857,0.09,-0.76,-3.3,4,6
19053.109,0.277,0.439,0.85,0.79,-0.58,-2.2,4,6
19053.125,0.276,0.441,0.851,-0.03,-0.46,-1.89,4,6
19053.125,0.271,0.434,0.853,-1.07,-0.58,-1.53,4,6
19053.14,0.278,0.423,0.852,-0.76,-0.67,-0.61,4,6
19053.14,0.284,0.417,0.848,-0.64,-0.37,-0.73,4,6
19053.156,0.283,0.408,0.851,-0.64,-0.09,-1.62,4,6
19053.171,0.287,0.409,0.854,0.09,0.37,-2.41,4,6
19053.171,0.29,0.414,0.843,0.76,0.85,-3.48,4,6
19053.187,0.284,0.425,0.843,0.12,1.5,-4.61,4,6
19053.203,0.278,0.439,0.853,0.15,2.2,-4.46,4,6
19053.203,0.266,0.453,0.859,1.31,2.69,-2.96,4,6
19053.218,0.255,0.462,0.865,1.56,2.44,-0.79,4,6
19053.234,0.246,0.456,0.867,0.31,1.37,1.28,4,6
19053.25,0.245,0.442,0.87,-0.58,-0.06,3.23,4,6
19053.25,0.257,0.452,0.871,-1.71,-1.65,5.31,4,6
19053.25,0.26,0.441,0.865,-2.96,-2.81,6.56,4,6
19053.265,0.266,0.42,0.872,-2.93,-3.69,7.66,4,6
19053.281,0.275,0.408,0.875,-1.4,-4.49,8.42,4,6
19053.281,0.293,0.398,0.867,0.37,-5.28,8.21,4,6
19053.296,0.305,0.381,0.861,1.77,-5.31,5.95,4,6
19053.312,0.292,0.375,0.851,3.08,-4.97,2.08,4,6
19053.328,0.283,0.399,0.847,3.63,-4.79,-0.15,4,6
19053.328,0.281,0.444,0.834,3.66,-4.64,-0.24,4,6
19053.343,0.28,0.492,0.809,1.89,-3.85,1.28,4,6
19053.343,0.278,0.512,0.801,-3.36,-2.08,4.09,4,6
19053.359,0.285,0.517,0.809,-10.53,-0.64,7.35,4,6
19053.375,0.29,0.5,0.834,-18.31,-0.31,9.7,4,6
19053.375,0.318,0.45,0.883,-24.26,-0.73,9.98,4,6
19053.39,0.375,0.364,0.943,-26.7,-2.87,5.95,4,6
19053.39,0.377,0.234,1.007,-22.58,-6.9,-6.29,4,6
19053.406,0.342,0.155,0.966,-11.78,-14.28,-23.59,4,6
19053.421,0.347,0.197,0.898,-2.56,-18.95,-36.5,4,6
19053.437,0.32,0.288,0.833,6.71,-17.94,-42.6,4,6
19053.437,0.254,0.396,0.849,16.3,-13.55,-41.6,4,6
19053.453,0.238,0.485,0.831,24.41,-11.05,-33.02,4,6
19053.453,0.236,0.52,0.795,24.32,-7.45,-24.26,4,6
19053.468,0.2,0.497,0.805,22.19,-2.14,-17.0,4,6
19053.484,0.18,0.463,0.815,22.52,3.54,-9.16,4,6
19053.484,0.163,0.471,0.817,26.03,10.19,-1.31,4,6
19053.5,0.138,0.519,0.807,27.71,15.9,7.75,4,6
19053.5,0.167,0.584,0.789,23.62,19.32,19.14,4,6
19053.515,0.228,0.592,0.789,13.98,19.62,28.38,4,6
19053.531,0.274,0.528,0.794,3.3,17.15,32.62,4,6
19053.531,0.319,0.45,0.773,-4.7,14.16,32.26,4,6
19053.546,0.341,0.416,0.796,-9.64,15.53,28.9,4,6
19053.562,0.297,0.419,0.856,-7.42,18.52,26.64,4,6
19053.578,0.252,0.476,0.9,-6.35,16.33,28.81,4,6
19053.578,0.229,0.496,0.969,-6.65,8.15,32.84,4,6
19053.593,0.203,0.499,1.029,-0.73,-2.96,38.33,4,6
19053.593,0.198,0.516,1.004,10.96,-15.11,47.43,4,6
19053.609,0.287,0.489,0.878,20.66,-25.45,58.14,4,6
19053.625,0.338,0.429,0.712,17.88,-26.67,58.63,4,6
19053.625,0.382,0.374,0.627,9.28,-17.85,52.98,4,6
19053.64,0.444,0.375,0.577,0.15,-2.56,46.88,4,6
19053.64,0.475,0.388,0.602,-8.58,17.64,40.1,4,6
19053.656,0.474,0.381,0.63,-11.75,38.12,34.52,4,6
19053.671,0.445,0.383,0.676,-14.13,56.83,28.5,4,6
19053.671,0.377,0.392,0.774,-18.34,70.62,21.61,4,6
19053.687,0.093,0.428,1.133,-25.42,71.29,15.72,4,6
19053.703,0.066,0.225,1.421,-25.97,36.44,19.44,4,6
19053.703,0.345,0.125,1.149,-26.22,-8.79,7.11,4,6
19053.718,0.288,0.124,0.963,-13.76,-14.07,-18.25,4,6
19053.734,0.244,0.208,0.888,9.28,-11.63,-28.32,4,6
19053.734,0.247,0.391,0.892,20.72,-11.05,-26.8,4,6
19053.75,0.251,0.531,0.889,24.84,-11.17,-22.37,4,6
19053.75,0.231,0.589,0.862,19.59,-14.04,-18.07,4,6
19053.765,0.244,0.586,0.829,7.84,-20.87,-14.16,4,6
19053.781,0.258,0.564,0.79,-2.14,-24.26,-8.91,4,6
19053.796,0.281,0.511,0.741,-10.56,-23.44,-1.95,4,6
19053.796,0.331,0.465,0.78,-18.62,-18.31,3.23,4,6
19053.812,0.309,0.399,0.841,-19.65,-10.28,5.62,4,6
19053.812,0.288,0.326,0.88,-16.85,-6.81,6.07,4,6
19053.828,0.3,0.294,0.92,-12.33,-8.15,3.02,4,6
19053.843,0.293,0.309,0.943,-5.4,-10.16,-1.89,4,6
19053.859,0.28,0.344,0.955,1.01,-13.34,-5.74,4,6
19053.859,0.258,0.384,0.942,6.04,-17.76,-7.54,4,6
19053.875,0.254,0.415,0.916,8.27,-23.32,-6.74,4,6
19053.875,0.271,0.42,0.883,7.87,-27.95,-4.88,4,6
19053.89,0.287,0.428,0.847,6.65,-30.12,-3.75,4,6
19053.89,0.305,0.44,0.825,5.92,-30.09,-2.29,4,6
19053.906,0.314,0.43,0.801,6.47,-28.9,-0.89,4,6
19053.921,0.343,0.434,0.786,7.17,-26.49,-0.21,4,6
19053.921,0.379,0.442,0.771,7.32,-22.34,0.21,4,6
19053.937,0.395,0.428,0.765,5.77,-17.27,1.01,4,6
19053.953,0.416,0.405,0.766,2.75,-12.57,2.01,4,6
19053.953,0.433,0.385,0.782,-0.85,-8.85,0.95,4,6
19053.968,0.431,0.384,0.815,-3.23,-6.32,-7.29,4,6
19053.984,0.385,0.387,0.834,-5.04,-8.45,-14.13,4,6
19053.984,0.316,0.428,0.841,-7.17,-11.6,-17.7,4,6
19054.0,0.31,0.465,0.84,-7.54,-10.41,-13.28,4,6
19054.0,0.268,0.465,0.812,-3.36,-4.61,-6.16,4,6
19054.015,0.223,0.482,0.79,-1.65,0.82,2.14,4,6
19054.031,0.212,0.494,0.794,-7.6,2.69,11.44,4,6
19054.031,0.229,0.467,0.821,-18.83,3.05,20.84,4,6
19054.046,0.262,0.443,0.88,-27.07,1.98,28.99,4,6
19054.062,0.317,0.418,0.943,-23.19,-1.68,36.71,4,6
19054.062,0.365,0.391,0.877,-13.82,-5.83,40.96,4,6
19054.078,0.362,0.353,0.8,-13.03,-6.41,37.14,4,6
19054.093,0.382,0.312,0.758,-15.59,-3.54,31.62,4,6
19054.093,0.412,0.285,0.753,-18.86,2.35,25.24,4,6
19054.109,0.438,0.287,0.778,-20.48,9.89,18.46,4,6
19054.125,0.445,0.29,0.8,-20.02,16.57,11.99,4,6
19054.125,0.459,0.306,0.8,-19.38,22.03,6.29,4,6
19054.14,0.454,0.326,0.804,-18.04,27.92,1.77,4,6
19054.156,0.435,0.311,0.819,-15.59,32.81,-2.9,4,6
19054.156,0.409,0.319,0.848,-12.85,36.77,-6.93,4,6
19054.171,0.37,0.328,0.88,-8.91,39.43,-10.68,4,6
19054.171,0.332,0.321,0.909,-5.37,39.0,-14.44,4,6
19054.187,0.295,0.318,0.942,-2.56,36.5,-18.07,4,6
19054.203,0.276,0.317,0.962,0.15,32.81,-20.97,4,6
19054.203,0.243,0.341,0.992,3.11,28.11,-23.1,4,6
19054.218,0.157,0.379,1.079,7.57,19.65,-21.49,4,6
19054.234,0.171,0.363,1.083,11.57,3.11,-15.9,4,6
19054.234,0.211,0.365,0.968,8.27,-12.85,-15.96,4,6
19054.25,0.231,0.373,0.858,1.04,-20.51,-18.25,4,6
19054.265,0.257,0.384,0.807,-8.33,-23.62,-19.68,4,6
19054.265,0.293,0.44,0.822,-15.05,-23.29,-19.56,4,6
19054.281,0.321,0.446,0.849,-13.46,-19.9,-15.14,4,6
19054.281,0.306,0.421,0.873,-5.86,-14.74,-8.48,4,6
19054.296,0.278,0.405,0.895,0.64,-10.41,-2.17,4,6
19054.312,0.266,0.369,0.902,0.64,-12.05,0.09,4,6
19054.312,0.275,0.36,0.913,-2.87,-17.43,-0.46,4,6
19054.328,0.292,0.36,0.918,-4.91,-22.19,-0.76,4,6
19054.343,0.303,0.338,0.908,-5.07,-25.57,-1.43,4,6
19054.343,0.314,0.326,0.893,-3.48,-27.38,-3.39,4,6
19054.359,0.317,0.335,0.879,0.15,-27.16,-4.39,4,6
19054.375,0.306,0.343,0.875,3.23,-26.12,-5.19,4,6
19054.375,0.303,0.36,0.897,4.73,-26.18,-5.4,4,6
19054.39,0.297,0.385,0.908,6.2,-27.25,-4.7,4,6
19054.39,0.301,0.392,0.893,6.56,-29.3,-2.84,4,6
19054.406,0.31,0.388,0.875,5.46,-31.34,-0.82,4,6
19054.421,0.327,0.395,0.859,4.7,-32.93,1.04,4,6
19054.437,0.347,0.388,0.839,3.75,-33.48,3.08,4,6
19054.437,0.363,0.377,0.828,2.44,-32.59,4.46,4,6
19054.453,0.381,0.38,0.816,1.74,-30.88,5.31,4,6
19054.453,0.393,0.378,0.804,2.35,-28.08,6.41,4,6
19054.468,0.421,0.375,0.798,3.72,-23.99,7.78,4,6
19054.484,0.415,0.386,0.792,7.39,-18.83,7.93,4,6
19054.484,0.41,0.408,0.801,10.13,-14.25,9.4,4,6
19054.5,0.395,0.405,0.801,11.2,-10.65,11.23,4,6
19054.5,0.392,0.393,0.801,11.57,-7.35,13.28,4,6
19054.515,0.377,0.386,0.805,12.15,-3.63,14.92,4,6
19054.531,0.367,0.386,0.808,12.36,-0.15,16.54,4,6
19054.531,0.374,0.382,0.831,12.45,1.98,18.68,4,6
19054.546,0.381,0.384,0.831,14.37,4.0,21.24,4,6
19054.562,0.388,0.378,0.827,17.61,7.26,23.83,4,6
19054.562,0.389,0.373,0.837,22.43,10.38,25.94,4,6
19054.578,0.375,0.38,0.829,26.28,13.28,27.65,4,6
19054.593,0.365,0.368,0.85,26.49,13.92,27.62,4,6
19054.593,0.367,0.364,0.862,25.76,13.18,26.89,4,6
19054.609,0.36,0.362,0.851,26.49,12.7,26.25,4,6
19054.625,0.359,0.381,0.851,25.06,10.86,24.69,4,6
19054.625,0.353,0.387,0.845,19.38,6.84,21.55,4,6
19054.64,0.359,0.398,0.859,11.32,1.71,18.19,4,6
19054.64,0.355,0.414,0.886,4.73,-4.64,15.96,4,6
19054.656,0.384,0.37,0.911,0.98,-13.12,15.29,4,6
19054.671,0.4,0.31,0.924,-0.55,-22.95,11.54,4,6
19054.671,0.454,0.238,0.862,1.37,-30.85,5.52,4,6
19054.687,0.497,0.166,0.731,12.45,-28.6,-1.8,4,6
19054.703,0.554,0.178,0.618,21.39,-15.9,-11.75,4,6
19054.718,0.544,0.225,0.547,24.96,5.01,-23.38,4,6
19054.718,0.542,0.265,0.532,21.33,26.83,-34.79,4,6
19054.734,0.532,0.294,0.569,15.41,46.39,-45.96,4,6
19054.734,0.518,0.387,0.652,15.02,65.34,-54.35,4,6
19054.75,0.441,0.487,0.713,18.52,80.48,-58.63,4,6
19054.75,0.341,0.574,0.783,15.72,89.27,-57.01,4,6
19054.765,0.262,0.636,0.857,7.08,88.66,-51.03,4,6
19054.781,0.171,0.672,0.988,-1.43,79.87,-42.82,4,6
19054.781,-0.094,0.774,1.32,-1.28,59.45,-27.83,4,6
19054.796,-0.009,0.652,1.313,6.71,14.59,2.44,4,6
19054.812,0.2,0.476,0.931,-2.75,-21.76,13.4,4,6
19054.812,0.221,0.37,0.787,-8.33,-22.74,10.83,4,6
19054.828,0.235,0.318,0.763,-2.62,-17.67,11.99,4,6
19054.843,0.298,0.404,0.797,-4.24,-14.95,13.58,4,6
19054.843,0.341,0.467,0.843,-6.1,-11.44,13.86,4,6
19054.859,0.32,0.468,0.891,-3.57,-8.24,14.68,4,6
19054.859,0.295,0.479,0.906,0.55,-10.71,15.41,4,6
19054.875,0.281,0.466,0.872,1.65,-15.56,17.4,4,6
19054.89,0.288,0.436,0.833,-0.4,-18.86,20.05,4,6
19054.906,0.316,0.429,0.801,-2.35,-19.5,21.39,4,6
19054.906,0.334,0.416,0.788,-4.64,-17.37,21.21,4,6
19054.921,0.351,0.397,0.793,-6.23,-14.22,20.48,4,6
19054.921,0.379,0.39,0.8,-6.47,-11.29,19.07,4,6
19054.937,0.396,0.382,0.801,-5.16,-8.21,16.66,4,6
19054.953,0.397,0.379,0.806,-3.6,-4.79,14.01,4,6
19054.953,0.389,0.383,0.825,-1.56,-1.59,9.74,4,6
19054.968,0.383,0.387,0.846,-0.61,-1.43,8.06,4,6
19054.968,0.373,0.383,0.844,0.27,-1.16,5.98,4,6
19054.984,0.358,0.354,0.837,1.65,-0.76,3.17,4,6
19055.0,0.349,0.355,0.841,3.81,0.4,0.18,4,6
19055.015,0.339,0.372,0.843,5.22,1.28,-2.87,4,6
19055.015,0.333,0.392,0.845,5.92,1.37,-5.4,4,6
19055.031,0.322,0.417,0.849,7.29,0.92,-6.59,4,6
19055.031,0.314,0.43,0.839,7.57,0.0,-6.44,4,6
19055.046,0.324,0.436,0.833,6.93,-0.52,-5.04,4,6
19055.062,0.328,0.444,0.834,5.37,-0.64,-3.88,4,6
19055.062,0.326,0.46,0.834,2.59,-1.31,-3.14,4,6
19055.078,0.335,0.466,0.823,-0.31,-2.14,-1.4,4,6
19055.093,0.341,0.456,0.806,-3.14,-1.95,0.79,4,6
19055.093,0.349,0.437,0.805,-5.89,-1.13,2.44,4,6
19055.109,0.357,0.421,0.819,-7.29,0.06,3.14,4,6
19055.125,0.357,0.401,0.847,-6.56,0.85,3.23,4,6
19055.125,0.348,0.39,0.86,-4.03,1.01,2.87,4,6
19055.14,0.34,0.379,0.861,-1.65,0.43,1.8,4,6
19055.14,0.334,0.386,0.863,-0.06,-0.92,-0.18,4,6
19055.156,0.33,0.394,0.868,2.69,-2.2,-1.89,4,6
19055.171,0.325,0.4,0.887,5.43,-3.78,-3.11,4,6
19055.171,0.3,0.402,0.928,5.98,-7.84,-4.88,4,6
19055.187,0.29,0.359,0.966,4.97,-15.96,-6.81,4,6
19055.203,0.318,0.28,1.043,5.34,-28.93,-10.96,4,6
19055.203,0.355,0.232,1.018,11.26,-42.18,-18.28,4,6
19055.218,0.378,0.191,0.989,16.05,-51.85,-29.39,4,6
19055.234,0.403,0.153,0.981,21.15,-61.59,-43.95,4,6
19055.234,0.441,0.144,0.982,25.94,-71.38,-60.52,4,6
19055.25,0.457,0.149,0.985,27.89,-81.03,-80.66,4,6
19055.265,0.434,0.185,0.964,28.11,-90.49,-103.09,4,6
19055.265,0.394,0.206,0.965,25.21,-102.57,-124.94,4,6
19055.281,0.349,0.229,0.96,24.48,-115.27,-146.4,4,6
19055.296,0.318,0.268,0.907,28.41,-128.06,-164.86,4,6
19055.296,0.309,0.346,0.832,30.3,-137.82,-181.62,4,6
19055.312,0.315,0.443,0.751,26.4,-141.94,-193.73,4,6
19055.328,0.347,0.535,0.712,11.69,-140.14,-199.35,4,6
19055.328,0.338,0.58,0.676,-7.72,-133.98,-203.16,4,6
19055.343,0.328,0.608,0.619,-24.87,-127.32,-204.02,4,6
19055.359,0.312,0.683,0.613,-36.16,-117.59,-199.13,4,6
19055.359,0.271,0.771,0.61,-34.15,-107.36,-191.02,4,6
19055.375,0.267,0.866,0.584,-37.66,-103.18,-165.56,4,6
19055.375,0.202,0.911,0.615,-56.0,-95.16,-136.72,4,6
19055.39,0.208,0.866,0.59,-63.3,-88.44,-117.65,4,6
19055.406,0.208,0.831,0.556,-74.74,-88.63,-97.48,4,6
19055.406,0.264,0.792,0.556,-88.66,-86.37,-82.89,4,6
19055.421,0.3,0.714,0.558,-95.13,-81.21,-76.17,4,6
19055.421,0.322,0.631,0.548,-92.93,-72.54,-69.83,4,6
19055.437,0.359,0.567,0.532,-83.62,-61.98,-64.88,4,6
19055.453,0.384,0.523,0.533,-66.9,-48.07,-61.46,4,6
19055.468,0.401,0.511,0.568,-42.91,-30.7,-57.44,4,6
19055.468,0.394,0.527,0.572,-14.95,-13.55,-56.22,4,6
19055.484,0.378,0.544,0.533,4.55,1.74,-57.53,4,6
19055.484,0.351,0.547,0.514,7.17,15.69,-60.67,4,6
19055.5,0.316,0.568,0.573,-3.75,27.25,-63.88,4,6
19055.515,0.263,0.585,0.697,-17.27,34.12,-63.78,4,6
19055.515,0.231,0.58,0.809,-26.03,33.45,-59.24,4,6
19055.531,0.234,0.614,0.911,-31.92,27.77,-52.43,4,6
19055.531,0.25,0.661,0.98,-38.58,20.69,-46.78,4,6
19055.546,0.251,0.654,1.017,-45.96,13.4,-43.03,4,6
19055.562,0.211,0.603,1.022,-49.2,4.82,-40.35,4,6
19055.562,0.173,0.532,0.984,-42.85,-5.98,-35.43,4,6
19055.578,0.183,0.492,0.894,-30.52,-15.05,-30.18,4,6
19055.593,0.208,0.478,0.791,-20.36,-19.78,-27.25,4,6
19055.593,0.244,0.477,0.718,-16.14,-19.2,-25.67,4,6
19055.609,0.281,0.498,0.677,-14.95,-13.52,-25.33,4,6
19055.625,0.314,0.487,0.655,-13.21,-4.03,-26.12,4,6
19055.625,0.33,0.478,0.653,-13.25,7.05,-28.9,4,6
19055.64,0.333,0.482,0.68,-14.95,18.22,-33.45,4,6
19055.64,0.308,0.49,0.756,-14.34,26.58,-38.91,4,6
19055.656,0.259,0.526,0.918,-7.32,28.5,-41.84,4,6
19055.671,0.201,0.626,1.041,4.88,20.33,-36.77,4,6
19055.687,0.179,0.684,1.058,13.76,5.4,-25.91,4,6
19055.687,0.171,0.666,0.948,19.93,-9.4,-17.64,4,6
19055.703,0.212,0.602,0.816,19.32,-21.06,-11.78,4,6
19055.703,0.251,0.574,0.7,15.32,-23.68,-7.72,4,6
19055.718,0.266,0.558,0.616,10.01,-16.97,-4.88,4,6
19055.734,0.268,0.531,0.603,2.62,-6.47,-4.21,4,6
19055.734,0.258,0.533,0.659,-4.12,4.06,-5.49,4,6
19055.75,0.236,0.56,0.746,-7.75,11.02,-6.29,4,6
19055.75,0.218,0.586,0.838,-10.16,13.64,-5.52,4,6
19055.765,0.233,0.614,0.91,-11.72,12.09,-5.89,4,6
19055.781,0.215,0.564,0.88,-10.65,6.41,-5.49,4,6
19055.781,0.242,0.441,0.874,-1.77,1.28,-2.14,4,6
19055.796,0.19,0.548,0.905,-0.06,-4.03,-2.5,4,6
19055.812,0.255,0.573,0.856,1.56,-9.89,-2.35,4,6
19055.812,0.231,0.482,0.765,10.22,-11.47,-1.74,4,6
19055.828,0.226,0.503,0.751,8.7,-9.13,-0.37,4,6
19055.843,0.226,0.565,0.756,10.22,-7.11,1.71,4,6
19055.843,0.202,0.594,0.775,13.21,-6.26,3.91,4,6
19055.859,0.183,0.62,0.823,11.9,-9.03,6.71,4,6
19055.859,0.179,0.62,0.844,10.62,-15.81,9.8,4,6
19055.875,0.189,0.62,0.846,7.72,-24.23,11.99,4,6
19055.89,0.199,0.627,0.856,-0.64,-32.99,12.57,4,6
19055.906,0.203,0.662,0.798,-11.41,-41.32,14.07,4,6
19055.906,0.326,0.506,0.745,-16.02,-42.18,18.4,4,6
19055.921,0.262,0.512,0.828,-20.36,-39.55,18.56,4,6
19055.921,0.273,0.55,0.724,-6.07,-38.91,27.22,4,6
19055.937,0.354,0.474,0.656,0.43,-22.52,24.87,4,6
19055.953,0.376,0.492,0.643,-1.19,-12.09,20.26,4,6
19055.953,0.391,0.47,0.641,0.92,0.52,15.11,4,6
19055.968,0.412,0.454,0.62,2.93,13.76,9.98,4,6
19055.984,0.38,0.476,0.66,5.01,24.84,4.36,4,6
19055.984,0.331,0.534,0.737,5.71,31.92,-0.24,4,6
19056.0,0.307,0.589,0.815,2.69,32.26,-1.4,4,6
19056.015,0.29,0.626,0.876,-6.56,27.38,0.52,4,6
19056.015,0.249,0.607,0.908,-15.44,18.95,2.23,4,6
19056.031,0.228,0.561,0.898,-18.37,8.45,2.59,4,6
19056.031,0.248,0.536,0.871,-18.22,-1.56,3.11,4,6
19056.046,0.268,0.516,0.819,-16.36,-7.23,3.14,4,6
19056.062,0.276,0.487,0.761,-13.4,-7.66,2.44,4,6
19056.062,0.287,0.463,0.725,-11.51,-4.49,1.5,4,6
19056.078,0.305,0.466,0.718,-9.58,0.79,0.12,4,6
19056.093,0.309,0.486,0.738,-7.69,6.44,-1.04,4,6
19056.093,0.3,0.505,0.779,-6.1,11.17,-2.08,4,6
19056.109,0.283,0.533,0.834,-4.3,12.85,-2.44,4,6
19056.125,0.271,0.554,0.858,-3.3,10.8,-1.22,4,6
19056.125,0.262,0.553,0.86,-4.15,6.53,0.46,4,6
19056.14,0.256,0.538,0.85,-6.5,1.59,1.19,4,6
19056.14,0.259,0.519,0.833,-9.46,-2.93,0.98,4,6
19056.156,0.27,0.498,0.808,-11.32,-5.43,0.76,4,6
19056.171,0.283,0.478,0.786,-10.8,-5.34,0.89,4,6
19056.187,0.292,0.47,0.772,-7.57,-3.2,0.79,4,6
19056.187,0.299,0.475,0.765,-3.81,-0.31,0.37,4,6
19056.203,0.307,0.481,0.765,-2.04,2.26,-0.82,4,6
19056.203,0.306,0.493,0.775,-1.89,4.58,-2.69,4,6
19056.218,0.303,0.506,0.794,-1.68,6.35,-4.64,4,6
19056.234,0.291,0.521,0.818,-1.19,6.74,-6.13,4,6
19056.234,0.27,0.539,0.85,-0.49,5.34,-6.68,4,6
19056.25,0.245,0.555,0.866,-0.31,2.11,-5.74,4,6
19056.265,0.239,0.557,0.858,-1.68,-2.99,-3.6,4,6
19056.265,0.249,0.537,0.83,-3.39,-7.54,-1.31,4,6
19056.281,0.26,0.517,0.8,-5.16,-9.77,-0.18,4,6
19056.296,0.27,0.498,0.777,-6.56,-9.55,0.46,4,6
19056.296,0.295,0.492,0.763,-7.57,-7.26,0.46,4,6
19056.312,0.288,0.482,0.756,-8.51,-3.48,-0.67,4,6
19056.312,0.3,0.476,0.765,-9.06,-0.58,-0.67,4,6
19056.328,0.31,0.486,0.777,-8.39,2.32,-1.25,4,6
19056.343,0.309,0.496,0.796,-7.54,5.28,-3.08,4,6
19056.343,0.28,0.509,0.835,-6.23,7.42,-4.88,4,6
19056.359,0.245,0.51,0.872,-3.78,5.71,-3.85,4,6
19056.375,0.246,0.518,0.885,-0.92,0.64,-1.4,4,6
19056.375,0.243,0.518,0.872,0.95,-4.36,-0.49,4,6
19056.39,0.244,0.5,0.849,1.46,-8.7,-0.34,4,6
19056.406,0.257,0.49,0.819,1.28,-11.69,0.03,4,6
19056.406,0.279,0.487,0.793,1.53,-12.27,0.37,4,6
19056.421,0.295,0.484,0.773,2.38,-10.68,0.24,4,6
19056.421,0.306,0.489,0.762,2.5,-7.81,-0.24,4,6
19056.437,0.311,0.494,0.761,1.31,-4.52,-1.13,4,6
19056.453,0.315,0.496,0.768,-0.7,-1.86,-2.38,4,6
19056.453,0.312,0.501,0.784,-3.2,0.18,-4.0,4,6
19056.468,0.296,0.516,0.825,-3.97,1.37,-5.07,4,6
19056.484,0.272,0.52,0.851,-2.01,0.76,-4.43,4,6
19056.484,0.256,0.523,0.855,0.09,-1.86,-2.56,4,6
19056.5,0.259,0.514,0.837,1.04,-5.25,-1.34,4,6
19056.515,0.264,0.496,0.808,0.98,-7.35,-1.5,4,6
19056.515,0.272,0.483,0.786,0.18,-7.66,-1.77,4,6
19056.531,0.288,0.482,0.776,0.31,-6.2,-1.8,4,6
19056.546,0.298,0.488,0.775,2.23,-3.48,-1.92,4,6
19056.546,0.297,0.505,0.779,4.24,-0.64,-1.98,4,6
19056.562,0.296,0.513,0.778,4.0,1.25,-2.2,4,6
19056.562,0.294,0.517,0.786,1.89,2.69,-2.75,4,6
19056.578,0.281,0.522,0.806,0.12,3.27,-3.17,4,6
19056.593,0.279,0.526,0.819,-0.98,2.56,-2.47,4,6
19056.593,0.274,0.52,0.82,-1.62,1.68,-1.62,4,6
19056.609,0.272,0.51,0.815,-1.95,0.76,-1.04,4,6
19056.625,0.267,0.504,0.821,-2.14,0.09,-0.7,4,6
19056.625,0.268,0.505,0.83,-1.98,-1.07,-0.18,4,6
19056.64,0.271,0.501,0.83,-1.95,-2.81,-0.15,4,6
19056.64,0.27,0.497,0.828,-1.16,-4.43,-0.52,4,6
19056.656,0.272,0.497,0.819,0.43,-5.55,-0.27,4,6
19056.671,0.278,0.501,0.808,1.8,-6.16,0.09,4,6
19056.671,0.289,0.499,0.797,2.17,-6.1,0.12,4,6
19056.687,0.298,0.499,0.79,2.53,-5.22,-0.12,4,6
19056.703,0.304,0.5,0.781,3.45,-3.51,-0.46,4,6
19056.703,0.313,0.488,0.776,4.76,-1.04,-1.46,4,6
19056.718,0.319,0.476,0.77,6.59,2.01,-3.69,4,6
19056.734,0.34,0.454,0.734,7.48,7.14,-6.74,4,6
19056.734,0.37,0.437,0.739,4.36,16.39,-12.12,4,6
19056.75,0.32,0.428,0.758,3.63,27.19,-18.52,4,6
19056.765,0.232,0.504,0.826,-1.28,30.64,-22.74,4,6
19056.765,0.258,0.568,0.821,-7.14,23.9,-21.97,4,6
19056.781,0.31,0.471,0.799,0.58,22.34,-23.32,4,6
19056.781,0.114,0.618,0.889,-9.16,20.14,-25.79,4,6
19056.796,0.165,0.693,0.942,-17.18,7.78,-15.5,4,6
19056.812,0.173,0.584,0.882,-3.36,-2.59,-4.18,4,6
19056.812,0.189,0.582,0.847,1.68,-6.81,5.01,4,6
19056.828,0.214,0.545,0.806,4.82,-9.4,10.16,4,6
19056.843,0.221,0.511,0.781,4.09,-10.38,11.47,4,6
19056.843,0.228,0.515,0.792,0.27,-11.35,11.29,4,6
19056.859,0.247,0.528,0.811,-4.12,-13.31,11.14,4,6
19056.875,0.242,0.542,0.832,-9.34,-15.87,10.47,4,6
19056.875,0.235,0.53,0.869,-13.7,-19.04,11.02,4,6
19056.89,0.235,0.552,0.841,-13.92,-22.61,14.92,4,6
19056.89,0.299,0.435,0.789,-4.58,-21.09,19.65,4,6
19056.906,0.256,0.433,0.772,1.65,-18.31,18.74,4,6
19056.921,0.286,0.496,0.823,-4.21,-17.0,17.55,4,6
19056.921,0.307,0.457,0.784,4.21,-12.42,14.07,4,6
19056.937,0.32,0.426,0.751,5.19,-8.03,11.47,4,6
19056.953,0.336,0.464,0.759,6.35,-3.6,9.13,4,6
19056.953,0.329,0.488,0.774,5.04,-0.18,7.26,4,6
19056.968,0.319,0.511,0.798,1.8,1.5,5.25,4,6
19056.984,0.308,0.519,0.822,-1.77,1.07,3.45,4,6
19056.984,0.3,0.514,0.83,-5.58,-1.13,1.46,4,6
19057.0,0.3,0.499,0.821,-7.9,-3.11,-0.12,4,6
19057.015,0.299,0.484,0.809,-7.14,-3.69,-1.16,4,6
19057.015,0.292,0.482,0.808,-4.61,-2.99,-1.28,4,6
19057.031,0.293,0.486,0.809,-1.89,-1.92,-0.43,4,6
19057.046,0.288,0.487,0.806,0.92,-1.04,0.67,4,6
19057.046,0.291,0.489,0.802,2.87,-0.46,1.1,4,6
19057.062,0.295,0.489,0.792,3.08,0.03,0.67,4,6
19057.062,0.296,0.489,0.785,2.81,1.16,-0.34,4,6
19057.078,0.29,0.496,0.787,2.32,2.56,-1.19,4,6
19057.093,0.286,0.504,0.795,0.76,3.08,-1.68,4,6
19057.093,0.289,0.512,0.81,-1.5,2.87,-2.14,4,6
19057.109,0.283,0.517,0.832,-2.81,2.29,-2.41,4,6
19057.125,0.272,0.512,0.837,-2.84,0.95,-1.31,4,6
19057.125,0.274,0.505,0.833,-2.84,-1.01,0.61,4,6
19057.14,0.285,0.496,0.82,-2.59,-2.81,1.65,4,6
19057.14,0.29,0.486,0.807,-2.2,-3.33,1.71,4,6
19057.156,0.294,0.477,0.796,-2.08,-2.84,1.28,4,6
19057.171,0.305,0.469,0.787,-1.53,-1.53,0.67,4,6
19057.171,0.307,0.473,0.783,-0.37,0.89,-0.15,4,6
19057.187,0.305,0.478,0.79,0.67,3.23,-1.31,4,6
19057.203,0.303,0.486,0.8,0.67,4.76,-2.11,4,6
19057.203,0.297,0.493,0.811,0.34,5.43,-2.84,4,6
19057.218,0.295,0.5,0.826,0.09,5.04,-3.14,4,6
19057.234,0.289,0.503,0.831,0.43,4.0,-3.48,4,6
19057.234,0.283,0.499,0.827,0.85,2.72,-3.69,4,6
19057.25,0.289,0.49,0.83,1.71,1.74,-3.72,4,6
19057.265,0.296,0.475,0.809,5.46,2.32,-4.21,4,6
19057.265,0.297,0.463,0.779,10.22,4.55,-4.91,4,6
19057.281,0.302,0.472,0.77,10.59,7.35,-6.1,4,6
19057.281,0.297,0.471,0.769,8.55,10.44,-8.48,4,6
19057.296,0.285,0.481,0.798,2.44,12.12,-12.33,4,6
19057.312,0.286,0.502,0.812,-5.95,11.78,-16.05,4,6
19057.328,0.297,0.481,0.807,-8.3,12.12,-17.67,4,6
19057.328,0.324,0.449,0.757,-4.03,15.93,-17.21,4,6
19057.343,0.27,0.4,0.781,6.1,24.6,-16.51,4,6
19057.343,0.152,0.659,0.934,-2.72,23.04,-17.15,4,6
19057.359,0.19,0.714,0.983,-6.62,10.47,-12.09,4,6
19057.375,0.117,0.605,0.935,0.4,-0.7,-6.53,4,6
19057.375,0.164,0.553,0.881,3.42,-12.24,4.49,4,6
19057.39,0.222,0.537,0.811,11.9,-18.13,11.47,4,6
19057.406,0.228,0.531,0.775,10.96,-18.37,13.12,4,6
19057.406,0.232,0.52,0.794,0.98,-19.29,12.79,4,6
19057.421,0.247,0.509,0.816,-6.53,-21.52,12.82,4,6
19057.437,0.237,0.515,0.843,-8.67,-23.35,14.25,4,6
19057.437,0.287,0.54,0.808,-9.37,-26.28,16.82,4,6
19057.453,0.328,0.377,0.741,1.46,-22.28,17.43,4,6
19057.468,0.286,0.461,0.769,-0.24,-18.01,13.37,4,6
19057.468,0.323,0.479,0.775,-2.9,-17.03,11.75,4,6
19057.484,0.336,0.436,0.754,-1.46,-14.19,8.85,4,6
19057.484,0.35,0.438,0.755,0.06,-9.86,5.65,4,6
19057.5,0.344,0.463,0.761,3.39,-5.16,2.5,4,6
19057.515,0.329,0.481,0.774,5.34,-1.01,0.21,4,6
19057.515,0.313,0.505,0.805,4.73,0.95,-1.43,4,6
19057.531,0.299,0.528,0.828,3.42,0.76,-2.17,4,6
19057.531,0.288,0.523,0.83,3.2,-0.27,-1.34,4,6
19057.546,0.282,0.517,0.82,4.24,-1.53,0.0,4,6
19057.562,0.282,0.517,0.804,4.61,-2.38,1.1,4,6
19057.562,0.281,0.517,0.788,2.17,-2.69,1.68,4,6
19057.578,0.283,0.516,0.786,-1.62,-3.11,1.95,4,6
19057.593,0.295,0.506,0.785,-4.73,-2.99,2.08,4,6
19057.609,0.307,0.495,0.778,-5.83,-1.86,1.83,4,6
19057.609,0.307,0.491,0.781,-5.01,0.55,1.8,4,6
19057.609,0.301,0.5,0.804,-3.78,2.56,1.83,4,6
19057.625,0.294,0.509,0.831,-2.66,2.84,2.32,4,6
19057.64,0.283,0.508,0.843,-1.37,1.53,3.11,4,6
19057.64,0.276,0.506,0.846,0.52,-0.76,4.21,4,6
19057.656,0.275,0.502,0.842,1.74,-3.57,5.04,4,6
19057.671,0.277,0.499,0.828,1.31,-6.26,5.31,4,6
19057.687,0.282,0.492,0.812,0.24,-8.03,5.13,4,6
19057.687,0.293,0.486,0.801,-0.85,-8.97,4.82,4,6
19057.703,0.307,0.483,0.789,-1.68,-8.97,4.12,4,6
19057.703,0.318,0.476,0.775,-1.83,-7.54,2.96,4,6
19057.718,0.329,0.475,0.767,-1.5,-5.22,1.8,4,6
19057.734,0.334,0.478,0.768,-0.98,-2.23,0.61,4,6
19057.734,0.329,0.485,0.782,-0.37,0.67,-0.82,4,6
19057.75,0.315,0.503,0.817,0.64,2.41,-1.68,4,6
19057.765,0.296,0.517,0.845,2.41,1.86,-0.73,4,6
19057.765,0.278,0.517,0.856,4.39,-0.52,1.07,4,6
19057.781,0.27,0.511,0.854,5.13,-3.97,2.53,4,6
19057.781,0.273,0.51,0.843,4.21,-8.03,3.42,4,6
19057.796,0.278,0.505,0.828,2.78,-11.38,4.03,4,6
19057.812,0.291,0.497,0.816,1.89,-13.7,5.01,4,6
19057.828,0.304,0.492,0.801,1.83,-14.62,5.65,4,6
19057.828,0.314,0.488,0.787,2.75,-13.98,5.65,4,6
19057.843,0.318,0.487,0.791,4.61,-12.24,5.68,4,6
19057.843,0.318,0.489,0.808,8.39,-10.1,6.68,4,6
19057.859,0.302,0.501,0.825,13.61,-8.45,8.79,4,6
19057.875,0.292,0.509,0.847,18.28,-8.42,11.05,4,6
19057.875,0.277,0.517,0.866,21.0,-10.71,12.48,4,6
19057.89,0.27,0.523,0.877,22.13,-15.08,13.43,4,6
19057.89,0.279,0.531,0.897,22.71,-21.15,14.04,4,6
19057.906,0.289,0.527,0.9,30.76,-32.9,15.29,4,6
19057.921,0.292,0.522,0.884,35.22,-37.45,14.56,4,6
19057.921,0.301,0.522,0.866,39.03,-39.34,12.21,4,6
19057.937,0.312,0.533,0.855,42.57,-38.06,9.83,4,6
19057.953,0.369,0.612,0.851,42.45,-34.09,8.88,4,6
19057.968,0.397,0.658,0.88,36.5,-28.23,7.97,4,6
19057.968,0.389,0.695,0.926,27.41,-23.41,5.89,4,6
19057.984,0.376,0.678,0.959,19.93,-23.35,1.98,4,6
19057.984,0.357,0.684,1.039,28.17,-23.74,-16.42,4,6
19058.0,0.227,0.771,1.087,45.14,-32.41,-32.23,4,6
19058.015,0.159,0.753,1.058,56.73,-46.17,-34.91,4,6
19058.015,0.153,0.8,1.029,64.85,-65.16,-29.51,4,6
19058.031,0.201,0.78,0.926,72.42,-82.61,-21.49,4,6
19058.046,0.286,0.769,0.802,71.35,-93.54,-15.59,4,6
19058.046,0.354,0.746,0.715,63.39,-95.07,-14.22,4,6
19058.062,0.38,0.701,0.67,53.59,-89.51,-15.44,4,6
19058.062,0.365,0.68,0.681,45.38,-81.09,-17.12,4,6
19058.078,0.313,0.672,0.73,42.42,-74.92,-17.49,4,6
19058.093,0.27,0.674,0.776,44.25,-74.5,-14.47,4,6
19058.093,0.245,0.67,0.796,48.71,-79.04,-8.7,4,6
19058.109,0.252,0.655,0.784,52.67,-86.28,-2.35,4,6
19058.125,0.289,0.651,0.769,54.26,-94.33,2.17,4,6
19058.125,0.316,0.62,0.735,54.38,-101.08,3.05,4,6
19058.14,0.417,0.59,0.722,51.67,-107.15,1.8,4,6
19058.14,0.508,0.578,0.737,52.58,-102.97,-4.43,4,6
19058.156,0.536,0.545,0.744,54.6,-96.13,-13.43,4,6
19058.171,0.596,0.528,0.774,53.53,-90.82,-22.68,4,6
19058.171,0.606,0.516,0.812,54.11,-87.59,-34.67,4,6
19058.187,0.625,0.515,0.853,58.08,-91.01,-48.31,4,6
19058.203,0.62,0.534,0.849,68.06,-96.74,-65.83,4,6
19058.218,0.533,0.535,0.808,79.9,-110.02,-85.21,4,6
19058.218,0.537,0.542,0.771,92.29,-130.86,-102.76,4,6
19058.234,0.476,0.537,0.694,111.61,-148.66,-123.84,4,6
19058.234,0.437,0.531,0.57,134.37,-169.56,-144.51,4,6
19058.25,0.395,0.598,0.448,157.72,-189.18,-165.01,4,6
19058.265,0.338,0.656,0.321,177.19,-206.09,-181.65,4,6
19058.265,0.298,0.691,0.185,189.64,-219.52,-192.66,4,6
19058.281,0.268,0.729,0.047,196.54,-227.12,-198.0,4,6
19058.296,0.258,0.738,-0.074,199.32,-229.96,-198.43,4,6
19058.296,0.264,0.725,-0.176,200.57,-226.6,-195.1,4,6
19058.312,0.262,0.725,-0.253,201.42,-216.77,-190.95,4,6
19058.328,0.221,0.716,-0.316,203.62,-202.92,-188.51,4,6
19058.328,0.162,0.696,-0.359,208.04,-189.4,-186.59,4,6
19058.343,0.078,0.785,-0.424,212.29,-176.67,-181.95,4,6
19058.359,0.02,0.928,-0.485,206.98,-164.46,-169.47,4,6
19058.359,-0.005,1.028,-0.52,190.74,-156.44,-152.44,4,6
19058.375,0.001,1.098,-0.58,167.64,-147.1,-130.92,4,6
19058.375,0.028,1.162,-0.623,139.96,-132.85,-104.01,4,6
19058.39,0.082,1.159,-0.643,112.06,-113.53,-73.49,4,6
19058.406,0.148,1.112,-0.65,88.11,-89.75,-42.85,4,6
19058.406,0.198,1.078,-0.651,69.77,-62.17,-15.75,4,6
19058.421,0.227,1.038,-0.624,55.27,-34.61,4.88,4,6
19058.421,0.225,0.987,-0.575,44.47,-9.31,19.1,4,6
19058.437,0.184,0.943,-0.509,36.47,10.44,29.66,4,6
19058.453,0.143,0.902,-0.442,29.39,21.18,37.14,4,6
19058.453,0.134,0.854,-0.38,22.58,22.98,41.72,4,6
19058.468,0.148,0.803,-0.341,18.8,19.75,42.97,4,6
19058.484,0.186,0.748,-0.318,18.95,14.28,40.5,4,6
19058.5,0.24,0.708,-0.3,22.55,8.3,34.12,4,6
19058.5,0.268,0.685,-0.298,29.02,3.23,24.9,4,6
19058.515,0.273,0.67,-0.306,35.89,-1.53,14.65,4,6
19058.515,0.27,0.68,-0.31,42.27,-5.65,5.19,4,6
19058.531,0.259,0.694,-0.307,48.92,-9.0,-2.75,4,6
19058.546,0.238,0.703,-0.311,53.99,-11.96,-8.39,4,6
19058.546,0.208,0.725,-0.33,55.85,-15.23,-11.17,4,6
19058.562,0.178,0.765,-0.359,53.1,-17.79,-10.38,4,6
19058.562,0.156,0.798,-0.383,44.8,-19.1,-6.16,4,6
19058.578,0.146,0.808,-0.404,33.27,-18.92,-0.21,4,6
19058.593,0.137,0.796,-0.423,21.73,-16.66,5.62,4,6
19058.593,0.13,0.775,-0.439,13.82,-12.36,11.32,4,6
19058.609,0.122,0.78,-0.444,8.76,-6.5,16.42,4,6
19058.625,0.107,0.794,-0.431,3.91,-1.68,19.38,4,6
19058.625,0.087,0.802,-0.405,-0.15,0.4,19.71,4,6
19058.64,0.079,0.792,-0.398,-2.38,-0.09,17.73,4,6
19058.64,0.081,0.802,-0.384,-4.15,-1.53,15.2,4,6
19058.656,0.087,0.826,-0.367,-4.73,-3.54,11.99,4,6
19058.671,0.093,0.844,-0.373,-4.52,-5.68,7.81,4,6
19058.671,0.108,0.85,-0.386,-4.21,-7.35,3.3,4,6
19058.687,0.126,0.865,-0.385,-1.5,-7.29,-1.01,4,6
19058.703,0.142,0.877,-0.394,2.56,-4.82,-4.0,4,6
19058.703,0.145,0.882,-0.407,4.97,-0.61,-6.78,4,6
19058.718,0.14,0.9,-0.387,3.81,3.69,-8.73,4,6
19058.734,0.131,0.916,-0.344,1.4,5.92,-9.4,4,6
19058.734,0.123,0.909,-0.324,-0.03,5.74,-8.82,4,6
19058.75,0.119,0.906,-0.318,-1.04,3.94,-8.39,4,6
19058.765,0.127,0.904,-0.311,-2.23,1.74,-7.75,4,6
19058.765,0.14,0.88,-0.308,-3.6,-0.18,-7.32,4,6
19058.781,0.154,0.858,-0.314,-4.91,-1.31,-8.0,4,6
19058.781,0.158,0.866,-0.332,-5.62,-0.55,-10.32,4,6
19058.796,0.162,0.865,-0.346,-6.38,1.53,-13.52,4,6
19058.812,0.149,0.862,-0.336,-6.53,4.36,-16.48,4,6
19058.812,0.134,0.863,-0.319,-6.38,6.32,-17.46,4,6
19058.828,0.137,0.87,-0.304,-6.68,6.99,-16.14,4,6
19058.843,0.126,0.869,-0.301,-7.2,6.93,-15.11,4,6
19058.843,0.113,0.863,-0.299,-10.07,5.71,-14.59,4,6
19058.859,0.117,0.863,-0.295,-14.5,3.11,-14.22,4,6
19058.875,0.131,0.853,-0.295,-18.04,0.43,-14.04,4,6
19058.875,0.145,0.845,-0.296,-18.77,-1.31,-14.77,4,6
19058.89,0.157,0.85,-0.298,-15.38,-4.94,-19.71,4,6
19058.89,0.161,0.86,-0.31,-13.92,-6.68,-23.32,4,6
19058.906,0.157,0.856,-0.326,-10.83,-7.75,-26.67,4,6
19058.921,0.154,0.856,-0.336,-5.71,-8.42,-29.57,4,6
19058.921,0.154,0.929,-0.367,-2.01,-9.22,-32.38,4,6
19058.937,0.155,0.939,-0.384,-0.98,-8.7,-33.6,4,6
19058.953,0.149,0.951,-0.391,0.64,-6.68,-32.29,4,6
19058.953,0.142,0.965,-0.399,2.01,-4.24,-29.27,4,6
19058.968,0.132,0.978,-0.406,-0.24,-2.5,-26.15,4,6
19058.984,0.129,0.965,-0.406,-4.12,-0.92,-22.68,4,6
19058.984,0.13,0.946,-0.408,-6.1,1.04,-18.49,4,6
19059.0,0.133,0.933,-0.414,-6.32,3.3,-14.83,4,6
19059.015,0.141,0.92,-0.409,-6.29,5.65,-11.93,4,6
19059.015,0.142,0.91,-0.403,-6.68,7.93,-9.95,4,6
19059.031,0.145,0.898,-0.398,-7.14,9.8,-8.88,4,6
19059.031,0.147,0.883,-0.392,-6.16,11.23,-8.97,4,6
19059.046,0.156,0.875,-0.383,-4.06,12.88,-9.16,4,6
19059.062,0.153,0.878,-0.38,-1.68,15.05,-10.19,4,6
19059.062,0.148,0.867,-0.377,-0.52,17.46,-11.54,4,6
19059.078,0.123,0.871,-0.369,-0.4,18.68,-13.15,4,6
19059.093,0.089,0.88,-0.346,-0.12,17.61,-13.4,4,6
19059.093,0.085,0.892,-0.326,0.95,13.4,-11.66,4,6
19059.109,0.102,0.905,-0.336,2.78,9.31,-9.43,4,6
19059.109,0.116,0.903,-0.355,4.33,7.26,-7.51,4,6
19059.125,0.135,0.902,-0.366,3.88,6.56,-6.23,4,6
19059.14,0.144,0.901,-0.378,2.99,7.9,-6.1,4,6
19059.14,0.136,0.891,-0.382,2.41,11.02,-6.65,4,6
19059.156,0.123,0.886,-0.377,2.78,13.82,-7.29,4,6
19059.171,0.113,0.89,-0.368,4.39,15.69,-7.57,4,6
19059.171,0.104,0.902,-0.368,6.74,17.21,-7.69,4,6
19059.187,0.095,0.911,-0.371,7.75,18.28,-8.3,4,6
19059.203,0.093,0.92,-0.369,6.38,18.43,-9.06,4,6
19059.203,0.087,0.926,-0.361,4.43,18.59,-9.98,4,6
19059.218,0.077,0.926,-0.356,3.17,18.71,-10.35,4,6
19059.234,0.066,0.93,-0.344,2.26,18.68,-9.55,4,6
19059.234,0.067,0.928,-0.342,1.8,17.94,-8.06,4,6
19059.25,0.07,0.924,-0.343,1.37,17.33,-6.87,4,6
19059.25,0.067,0.917,-0.338,0.73,17.06,-6.26,4,6
19059.265,0.07,0.916,-0.334,0.0,16.48,-5.77,4,6
19059.281,0.077,0.912,-0.338,-0.03,16.14,-5.83,4,6
19059.296,0.083,0.907,-0.343,-0.09,16.6,-7.11,4,6
19059.296,0.082,0.91,-0.338,0.55,17.7,-8.61,4,6
19059.312,0.065,0.917,-0.331,3.14,18.62,-9.19,4,6
19059.312,0.066,0.925,-0.333,5.34,18.59,-8.64,4,6
19059.328,0.075,0.93,-0.338,4.67,18.34,-8.27,4,6
19059.343,0.077,0.926,-0.34,3.17,18.65,-7.87,4,6
19059.359,0.077,0.915,-0.336,2.11,19.26,-6.81,4,6
19059.359,0.088,0.917,-0.332,1.37,19.68,-5.74,4,6
19059.375,0.102,0.916,-0.335,1.04,20.33,-5.77,4,6
19059.375,0.098,0.917,-0.329,0.76,21.58,-7.11,4,6
19059.39,0.077,0.918,-0.319,0.95,22.19,-8.42,4,6
19059.406,0.066,0.924,-0.311,1.43,20.45,-8.76,4,6
19059.406,0.068,0.924,-0.311,1.83,17.61,-8.79,4,6
19059.421,0.072,0.923,-0.316,1.83,15.2,-8.64,4,6
19059.421,0.084,0.922,-0.322,1.5,13.55,-8.73,4,6
19059.437,0.094,0.913,-0.328,1.46,12.85,-8.91,4,6
19059.453,0.094,0.905,-0.328,2.47,13.25,-9.37,4,6
19059.468,0.085,0.91,-0.33,5.43,14.16,-9.06,4,6
19059.468,0.08,0.924,-0.329,7.81,14.53,-7.54,4,6
19059.484,0.08,0.937,-0.332,7.32,13.31,-6.38,4,6
19059.484,0.08,0.937,-0.336,4.27,11.38,-6.44,4,6
19059.5,0.081,0.931,-0.334,1.16,9.52,-6.47,4,6
19059.515,0.079,0.93,-0.326,-0.61,7.69,-5.8,4,6
19059.515,0.084,0.933,-0.327,-1.43,5.65,-4.73,4,6
19059.531,0.079,0.94,-0.322,-1.86,4.03,-3.69,4,6
19059.531,0.066,0.945,-0.301,-0.49,2.29,-2.11,4,6
19059.546,0.053,0.956,-0.285,3.63,-0.85,0.92,4,6
19059.562,0.049,0.98,-0.293,7.66,-5.31,5.16,4,6
19059.562,0.059,0.983,-0.319,9.06,-9.89,9.52,4,6
19059.578,0.075,0.981,-0.344,7.2,-13.28,13.52,4,6
19059.593,0.092,0.975,-0.357,3.81,-15.53,16.48,4,6
19059.593,0.106,0.969,-0.365,-0.15,-16.79,17.94,4,6
19059.609,0.122,0.954,-0.373,-3.42,-16.72,18.56,4,6
19059.625,0.13,0.938,-0.375,-5.25,-15.59,17.94,4,6
19059.625,0.13,0.931,-0.374,-5.62,-13.98,17.15,4,6
19059.64,0.127,0.918,-0.374,-4.79,-11.93,16.85,4,6
19059.656,0.122,0.914,-0.364,-3.2,-10.41,16.6,4,6
19059.656,0.117,0.917,-0.362,-0.43,-9.13,16.6,4,6
19059.671,0.121,0.917,-0.37,1.37,-8.09,16.42,4,6
19059.671,0.124,0.918,-0.371,1.31,-7.42,15.05,4,6
19059.687,0.124,0.918,-0.37,1.22,-7.05,12.45,4,6
19059.703,0.123,0.913,-0.371,1.8,-6.96,9.43,4,6
19059.703,0.121,0.912,-0.367,2.66,-6.56,6.74,4,6
19059.718,0.123,0.914,-0.367,3.69,-6.13,4.52,4,6
19059.734,0.127,0.912,-0.374,4.55,-5.25,2.69,4,6
19059.734,0.131,0.907,-0.378,5.49,-3.08,1.74,4,6
19059.75,0.129,0.911,-0.378,6.81,0.15,1.62,4,6
19059.765,0.125,0.914,-0.381,7.45,3.45,1.56,4,6
19059.765,0.115,0.92,-0.369,6.93,5.89,1.8,4,6
19059.781,0.099,0.934,-0.354,6.23,7.54,2.56,4,6
19059.781,0.082,0.941,-0.342,5.55,6.99,3.85,4,6
19059.796,0.081,0.945,-0.332,4.36,3.91,5.92,4,6
19059.812,0.09,0.944,-0.331,3.91,0.4,8.15,4,6
19059.812,0.104,0.932,-0.345,3.85,-3.05,9.74,4,6
19059.828,0.123,0.929,-0.357,3.78,-5.1,10.71,4,6
19059.843,0.132,0.928,-0.369,4.18,-5.28,10.62,4,6
19059.843,0.133,0.924,-0.375,4.61,-4.88,10.07,4,6
19059.859,0.134,0.925,-0.375,5.52,-4.15,9.25,4,6
19059.875,0.125,0.93,-0.376,7.45,-3.51,8.64,4,6
19059.875,0.122,0.942,-0.38,11.02,-3.69,8.91,4,6
19059.89,0.121,0.954,-0.387,13.09,-4.52,8.73,4,6
19059.906,0.121,0.968,-0.404,15.44,-5.92,8.82,4,6
19059.906,0.122,1.01,-0.429,18.19,-8.55,8.7,4,6
19059.921,0.134,1.025,-0.451,20.97,-12.3,9.16,4,6
19059.921,0.141,1.047,-0.48,22.61,-16.08,10.71,4,6
19059.937,0.159,1.062,-0.506,22.83,-19.68,13.03,4,6
19059.953,0.172,1.072,-0.536,21.67,-23.26,15.93,4,6
19059.953,0.182,1.086,-0.57,20.26,-26.64,20.81,4,6
19059.968,0.209,1.095,-0.608,19.17,-31.68,26.8,4,6
19059.984,0.25,1.114,-0.644,16.94,-37.9,32.29,4,6
19060.0,0.319,1.117,-0.677,15.44,-41.29,37.02,4,6
19060.0,0.394,1.114,-0.695,16.63,-39.64,40.65,4,6
19060.015,0.443,1.105,-0.71,21.85,-33.17,44.95,4,6
19060.015,0.457,1.11,-0.708,26.67,-25.45,50.78,4,6
19060.031,0.467,1.107,-0.69,28.78,-20.72,58.29,4,6
19060.031,0.48,1.085,-0.691,28.14,-18.19,65.65,4,6
19060.046,0.481,1.057,-0.694,24.08,-16.54,72.18,4,6
19060.062,0.48,1.014,-0.694,19.14,-16.88,77.61,4,6
19060.078,0.479,0.96,-0.695,15.47,-18.43,82.95,4,6
19060.078,0.493,0.895,-0.704,16.66,-20.29,88.87,4,6
19060.093,0.528,0.847,-0.724,22.95,-19.44,95.83,4,6
19060.093,0.545,0.821,-0.754,30.24,-14.28,102.39,4,6
19060.109,0.549,0.789,-0.779,33.6,-7.63,106.17,4,6
19060.125,0.556,0.751,-0.797,32.62,0.21,106.48,4,6
19060.125,0.545,0.701,-0.794,31.34,8.85,103.09,4,6
19060.14,0.534,0.627,-0.777,32.32,16.94,99.4,4,6
19060.156,0.527,0.552,-0.762,33.85,25.51,97.66,4,6
19060.156,0.521,0.498,-0.753,32.9,34.73,98.33,4,6
19060.171,0.526,0.433,-0.757,28.26,44.53,100.89,4,6
19060.187,0.533,0.368,-0.751,20.29,56.34,104.46,4,6
19060.187,0.526,0.33,-0.699,12.24,69.34,107.88,4,6
19060.203,0.519,0.293,-0.625,7.14,79.9,109.38,4,6
19060.203,0.505,0.306,-0.568,2.47,87.62,105.66,4,6
19060.218,0.458,0.374,-0.486,-3.85,91.04,93.45,4,6
19060.234,0.422,0.383,-0.426,-12.33,82.25,79.32,4,6
19060.234,0.442,0.413,-0.337,-23.16,65.16,65.68,4,6
19060.25,0.483,0.447,-0.301,-32.35,48.92,52.52,4,6
19060.265,0.521,0.457,-0.303,-39.74,36.23,40.01,4,6
19060.265,0.552,0.467,-0.299,-42.54,27.95,28.41,4,6
19060.281,0.564,0.509,-0.31,-40.04,24.23,18.07,4,6
19060.281,0.564,0.548,-0.336,-37.66,23.19,8.03,4,6
19060.296,0.542,0.598,-0.345,-37.42,22.71,-4.43,4,6
19060.312,0.53,0.67,-0.308,-37.75,19.59,-20.05,4,6
19060.312,0.511,0.732,-0.262,-37.02,14.37,-36.53,4,6
19060.328,0.445,0.788,-0.243,-37.2,6.5,-48.98,4,6
19060.343,0.449,0.837,-0.258,-41.47,-6.41,-55.24,4,6
19060.359,0.462,0.887,-0.279,-49.41,-18.1,-59.08,4,6
19060.359,0.465,0.896,-0.284,-58.14,-27.99,-59.94,4,6
19060.375,0.455,0.875,-0.351,-62.2,-38.39,-59.54,4,6
19060.375,0.487,0.894,-0.454,-60.79,-48.25,-60.06,4,6
19060.39,0.538,0.94,-0.526,-56.37,-50.2,-66.87,4,6
19060.39,0.628,0.967,-0.497,-51.79,-43.0,-77.52,4,6
19060.406,0.671,1.072,-0.399,-42.7,-28.93,-94.42,4,6
19060.421,0.534,1.15,-0.291,-31.07,-13.52,-108.55,4,6
19060.437,0.363,1.201,-0.214,-25.36,-5.68,-109.07,4,6
19060.437,0.228,1.282,-0.121,-28.66,-7.14,-93.81,4,6
19060.453,0.213,1.36,-0.059,-38.36,-16.3,-70.59,4,6
19060.453,0.157,1.374,-0.044,-54.38,-26.73,-48.22,4,6
19060.468,0.093,1.316,-0.051,-74.95,-35.83,-23.1,4,6
19060.484,0.083,1.238,-0.044,-94.85,-38.21,5.19,4,6
19060.484,0.104,1.17,0.025,-104.5,-35.43,27.92,4,6
19060.5,0.041,1.143,0.089,-98.42,-30.76,41.47,4,6
19060.515,0.005,1.127,0.071,-86.86,-27.86,51.91,4,6
19060.515,-0.003,1.123,0.068,-83.74,-27.83,58.35,4,6
19060.531,-0.022,1.042,0.048,-86.06,-27.41,58.53,4,6
19060.546,-0.029,0.966,0.023,-92.41,-26.18,57.1,4,6
19060.546,-0.028,0.911,0.029,-96.16,-25.06,53.68,4,6
19060.562,0.012,0.879,0.03,-93.91,-24.78,44.86,4,6
19060.562,0.016,0.879,0.048,-89.97,-26.89,31.04,4,6
19060.578,0.001,0.834,0.063,-85.06,-30.79,19.56,4,6
19060.593,0.004,0.822,0.068,-79.53,-33.05,14.19,4,6
19060.593,0.006,0.851,0.072,-70.8,-33.39,10.99,4,6
19060.609,0.027,0.874,0.065,-60.12,-36.87,6.93,4,6
19060.625,0.06,0.873,0.016,-51.94,-43.43,2.32,4,6
19060.625,0.107,0.886,-0.018,-46.72,-50.39,-2.29,4,6
19060.64,0.149,0.879,-0.042,-40.22,-54.02,-5.83,4,6
19060.656,0.19,0.86,-0.069,-31.56,-52.71,-7.42,4,6
19060.656,0.225,0.855,-0.12,-22.43,-47.03,-7.23,4,6
19060.671,0.256,0.856,-0.16,-17.21,-37.84,-4.94,4,6
19060.687,0.292,0.859,-0.175,-17.06,-27.83,-2.47,4,6
19060.687,0.315,0.875,-0.163,-21.39,-17.91,-0.58,4,6
19060.703,0.311,0.895,-0.116,-28.57,-10.32,1.25,4,6
19060.703,0.306,0.915,-0.048,-34.67,-6.2,3.94,4,6
19060.718,0.316,0.925,0.001,-36.35,-6.65,8.15,4,6
19060.734,0.358,0.932,0.029,-34.12,-9.83,12.73,4,6
19060.734,0.386,0.936,0.04,-30.09,-13.67,16.42,4,6
19060.75,0.409,0.918,0.033,-27.16,-18.4,18.77,4,6
19060.765,0.424,0.895,0.016,-25.51,-22.34,21.61,4,6
19060.765,0.433,0.9,-0.009,-25.24,-25.42,24.51,4,6
19060.781,0.443,0.916,-0.04,-25.09,-27.8,24.69,4,6
19060.781,0.457,0.946,-0.086,-24.69,-28.35,21.33,4,6
19060.796,0.493,0.981,-0.118,-23.77,-27.16,15.2,4,6
19060.812,0.539,1.001,-0.115,-19.41,-22.83,8.42,4,6
19060.828,0.544,1.016,-0.104,-11.29,-14.89,3.94,4,6
19060.828,0.513,1.031,-0.092,-3.14,-6.99,3.33,4,6
19060.843,0.479,1.043,-0.069,0.55,-1.01,6.56,4,6
19060.843,0.455,1.059,-0.038,-1.16,2.35,11.38,4,6
19060.859,0.422,1.04,-0.014,-8.51,2.93,21.94,4,6
19060.875,0.41,0.991,0.02,-7.42,2.53,24.54,4,6
19060.875,0.389,0.961,0.033,-8.09,-2.23,28.63,4,6
19060.89,0.336,0.898,0.022,-12.02,-9.0,36.23,4,6
19060.89,0.339,0.827,0.015,-12.57,-14.16,39.98,4,6
19060.906,0.353,0.773,0.006,-9.52,-18.07,42.82,4,6
19060.921,0.362,0.737,-0.021,-3.05,-19.47,45.23,4,6
19060.921,0.378,0.721,-0.061,2.78,-18.77,46.63,4,6
19060.937,0.392,0.693,-0.097,3.63,-16.51,46.91,4,6
19060.953,0.407,0.659,-0.117,-0.49,-13.21,46.91,4,6
19060.968,0.415,0.64,-0.116,-6.71,-9.86,45.11,4,6
19060.968,0.424,0.627,-0.1,-11.35,-7.42,41.08,4,6
19060.984,0.412,0.608,-0.068,-12.27,-7.2,35.58,4,6
19060.984,0.411,0.585,-0.047,-8.03,-8.88,30.85,4,6
19061.0,0.416,0.583,-0.044,-1.83,-11.23,26.55,4,6
19061.015,0.412,0.581,-0.058,2.26,-13.03,22.55,4,6
19061.015,0.43,0.564,-0.065,2.5,-14.59,18.86,4,6
19061.031,0.445,0.549,-0.08,1.71,-15.2,14.95,4,6
19061.031,0.473,0.567,-0.083,1.1,-15.05,9.31,4,6
19061.046,0.484,0.589,-0.085,2.59,-14.19,0.79,4,6
19061.062,0.47,0.608,-0.098,7.97,-11.87,-6.81,4,6
19061.062,0.466,0.64,-0.117,14.53,-8.97,-12.36,4,6
19061.078,0.443,0.676,-0.144,17.18,-6.04,-14.89,4,6
19061.093,0.428,0.714,-0.138,13.79,-3.81,-14.92,4,6
19061.093,0.436,0.74,-0.132,8.91,-3.11,-15.38,4,6
19061.109,0.476,0.763,-0.123,5.25,-2.53,-16.39,4,6
19061.125,0.479,0.79,-0.119,5.07,-1.34,-17.82,4,6
19061.125,0.467,0.814,-0.111,6.56,-0.43,-18.59,4,6
19061.14,0.472,0.834,-0.11,7.57,0.73,-16.51,4,6
19061.14,0.459,0.859,-0.113,7.54,1.5,-12.76,4,6
19061.156,0.463,0.869,-0.132,5.92,1.68,-8.36,4,6
19061.171,0.48,0.898,-0.146,1.31,1.95,-4.36,4,6
19061.171,0.508,0.914,-0.158,-2.14,3.23,-1.92,4,6
19061.187,0.527,0.943,-0.173,-3.02,5.74,0.85,4,6
19061.203,0.574,0.977,-0.183,-3.08,9.61,4.03,4,6
19061.203,0.546,0.975,-0.198,-3.66,16.97,7.14,4,6
19061.218,0.551,0.936,-0.177,-9.25,19.26,18.28,4,6
19061.234,0.577,0.952,-0.142,-12.24,22.22,27.65,4,6
19061.234,0.57,0.947,-0.117,-14.89,25.03,34.52,4,6
19061.25,0.566,0.908,-0.073,-21.55,25.24,40.19,4,6
19061.25,0.557,0.879,-0.033,-27.95,23.38,44.86,4,6
19061.265,0.552,0.856,0.004,-32.14,19.17,48.1,4,6
19061.281,0.544,0.8,0.02,-32.2,14.44,49.99,4,6
19061.296,0.545,0.755,0.015,-29.69,9.49,49.9,4,6
19061.296,0.551,0.725,0.012,-25.51,4.67,46.97,4,6
19061.312,0.565,0.692,0.002,-19.26,0.43,41.69,4,6
19061.312,0.566,0.674,-0.004,-12.6,-1.77,34.82,4,6
19061.328,0.549,0.65,-0.012,-4.27,-3.3,26.37,4,6
19061.343,0.528,0.632,-0.025,4.49,-3.69,17.58,4,6
19061.343,0.518,0.62,-0.035,11.81,-3.42,9.0,4,6
19061.359,0.509,0.614,-0.045,17.88,-3.02,0.0,4,6
19061.375,0.492,0.601,-0.061,22.95,-2.72,-8.88,4,6
19061.375,0.49,0.6,-0.064,25.73,-3.36,-17.64,4,6
19061.39,0.476,0.607,-0.079,29.45,-4.82,-26.67,4,6
19061.406,0.503,0.638,-0.1,33.78,-6.04,-34.73,4,6
19061.406,0.525,0.693,-0.11,37.63,-5.19,-43.86,4,6
19061.421,0.534,0.741,-0.112,41.54,-2.5,-53.41,4,6
19061.421,0.516,0.788,-0.102,45.29,1.53,-60.03,4,6
19061.437,0.491,0.833,-0.096,47.3,5.92,-60.52,4,6
19061.453,0.447,0.873,-0.087,43.46,8.48,-55.39,4,6
19061.453,0.438,0.911,-0.057,34.64,7.51,-47.91,4,6
19061.468,0.431,0.915,-0.025,27.44,5.13,-40.25,4,6
19061.484,0.408,0.909,-0.015,23.29,1.01,-31.98,4,6
19061.484,0.415,0.919,-0.021,19.41,-5.52,-25.03,4,6
19061.5,0.431,0.926,-0.052,14.86,-11.81,-19.59,4,6
19061.515,0.429,0.934,-0.083,9.52,-16.54,-16.05,4,6
19061.515,0.431,0.931,-0.115,3.78,-19.23,-12.45,4,6
19061.531,0.43,0.929,-0.147,-1.98,-19.56,-8.42,4,6
19061.531,0.436,0.905,-0.168,-6.04,-19.07,-4.27,4,6
19061.546,0.458,0.878,-0.186,-7.11,-17.06,-0.76,4,6
19061.562,0.466,0.88,-0.194,-4.91,-12.63,0.89,4,6
19061.562,0.467,0.885,-0.199,-2.5,-7.9,0.76,4,6
19061.578,0.481,0.892,-0.197,-2.2,-4.21,-0.03,4,6
19061.593,0.504,0.908,-0.183,-1.59,-0.95,-1.86,4,6
19061.609,0.496,0.905,-0.168,0.09,2.35,-3.33,4,6
19061.609,0.484,0.886,-0.158,1.37,5.04,-2.26,4,6
19061.609,0.462,0.888,-0.148,-0.27,6.78,0.34,4,6
19061.625,0.46,0.898,-0.137,-4.73,6.62,1.62,4,6
19061.64,0.477,0.901,-0.12,-8.58,5.65,-0.34,4,6
19061.656,0.494,0.897,-0.102,-7.42,5.04,-3.88,4,6
19061.656,0.497,0.908,-0.092,-2.08,5.34,-5.86,4,6
19061.671,0.497,0.91,-0.091,2.53,5.89,-5.19,4,6
19061.671,0.473,0.904,-0.095,4.21,6.1,-2.17,4,6
19061.687,0.453,0.89,-0.092,2.11,5.25,3.27,4,6
19061.703,0.452,0.862,-0.106,-2.56,2.72,8.12,4,6
19061.703,0.449,0.813,-0.116,-8.15,0.49,12.7,4,6
19061.718,0.459,0.788,-0.116,-12.27,-1.28,15.63,4,6
19061.734,0.462,0.759,-0.117,-13.37,-1.8,15.9,4,6
19061.734,0.471,0.727,-0.121,-11.51,-1.53,14.86,4,6
19061.75,0.461,0.702,-0.125,-7.75,0.12,13.64,4,6
19061.765,0.46,0.681,-0.128,-5.4,1.71,12.76,4,6
19061.765,0.445,0.675,-0.136,-5.74,2.75,11.14,4,6
19061.781,0.439,0.684,-0.133,-8.64,2.72,8.39,4,6
19061.796,0.445,0.691,-0.121,-10.65,1.98,4.36,4,6
19061.796,0.45,0.702,-0.114,-9.83,1.16,0.0,4,6
19061.812,0.464,0.733,-0.112,-5.95,0.34,-3.81,4,6
19061.812,0.49,0.764,-0.119,-0.46,0.49,-7.45,4,6
19061.828,0.493,0.804,-0.125,3.08,3.05,-9.09,4,6
19061.843,0.484,0.851,-0.124,-1.37,8.27,-7.11,4,6
19061.843,0.469,0.888,-0.116,-6.93,9.52,-4.52,4,6
19061.859,0.456,0.907,-0.107,-11.02,9.98,-0.37,4,6
19061.875,0.46,0.899,-0.107,-13.52,10.65,6.65,4,6
19061.875,0.531,0.878,-0.129,-16.33,11.81,13.55,4,6
19061.89,0.564,0.867,-0.105,-20.29,14.71,18.16,4,6
19061.906,0.578,0.855,-0.058,-23.77,17.52,18.13,4,6
19061.921,0.577,0.821,-0.002,-22.64,19.56,15.35,4,6
19061.921,0.556,0.801,0.042,-16.6,20.42,11.96,4,6
19061.937,0.522,0.789,0.062,-10.16,19.14,8.39,4,6
19061.953,0.496,0.793,0.074,-7.35,14.74,3.3,4,6
19061.968,0.472,0.803,0.079,-7.42,8.15,-3.94,4,6
19061.984,0.482,0.81,0.074,-6.41,-0.21,-13.06,4,6
19061.984,0.486,0.821,0.063,0.49,-7.87,-21.12,4,6
19062.0,0.506,0.862,0.023,11.99,-13.79,-26.92,4,6
19062.015,0.541,0.902,-0.039,20.84,-16.94,-30.76,4,6
19062.031,0.565,0.93,-0.09,22.92,-16.11,-32.62,4,6
19062.031,0.549,0.945,-0.107,20.08,-12.48,-31.98,4,6
19062.046,0.544,0.96,-0.107,14.68,-9.06,-30.15,4,6
19062.062,0.545,0.986,-0.089,10.32,-7.42,-31.01,4,6
19062.062,0.538,1.018,-0.072,9.46,-7.97,-35.16,4,6
19062.078,0.542,1.039,-0.061,11.63,-11.17,-40.25,4,6
19062.093,0.549,1.056,-0.058,16.42,-14.25,-43.64,4,6
19062.093,0.541,1.066,-0.067,20.57,-15.66,-43.06,4,6
19062.109,0.523,1.059,-0.082,21.97,-15.26,-38.3,4,6
19062.109,0.496,1.054,-0.101,19.99,-14.53,-32.44,4,6
19062.125,0.472,1.041,-0.117,16.14,-14.8,-27.31,4,6
19062.125,0.448,1.03,-0.136,13.4,-16.3,-23.47,4,6
19062.14,0.425,0.996,-0.147,15.05,-18.68,-19.71,4,6
19062.14,0.396,0.97,-0.191,25.64,-19.65,-11.54,4,6
19062.14,0.371,0.985,-0.245,39.0,-19.41,0.12,4,6
19062.156,0.353,0.977,-0.307,48.71,-19.07,10.47,4,6
19062.156,0.351,0.971,-0.359,53.16,-16.17,17.24,4,6
19062.171,0.335,0.968,-0.367,54.72,-8.88,22.34,4,6
19062.187,0.349,0.954,-0.354,53.9,-0.61,25.88,4,6
19062.187,0.387,0.972,-0.351,48.25,7.63,25.73,4,6
19062.203,0.4,0.982,-0.295,35.71,17.76,25.48,4,6
19062.218,0.352,0.981,-0.245,23.5,28.57,30.52,4,6
19062.218,0.346,1.0,-0.213,4.21,34.52,42.73,4,6
19062.234,0.379,0.967,-0.126,-18.89,35.98,50.08,4,6
19062.234,0.361,0.848,-0.001,-31.28,32.78,50.75,4,6
19062.25,0.362,0.735,0.062,-26.4,24.66,47.52,4,6
19062.265,0.359,0.714,0.069,-15.44,15.14,43.73,4,6
19062.265,0.373,0.724,0.057,-9.8,7.48,38.45,4,6
19062.281,0.408,0.73,0.042,-14.44,3.08,32.29,4,6
19062.281,0.438,0.751,0.022,-27.19,0.52,27.34,4,6
19062.296,0.506,0.782,-0.001,-44.04,-2.75,25.42,4,6
19062.312,0.549,0.786,0.034,-59.54,-4.79,23.62,4,6
19062.312,0.537,0.732,0.057,-64.7,-7.54,24.45,4,6
19062.328,0.566,0.704,0.061,-63.11,-14.83,25.82,4,6
19062.343,0.586,0.647,0.104,-53.16,-25.51,19.93,4,6
19062.359,0.542,0.52,0.091,-27.01,-37.93,3.81,4,6
19062.359,0.485,0.497,-0.004,1.53,-51.94,-17.0,4,6
19062.375,0.475,0.524,-0.105,17.58,-65.03,-40.56,4,6
19062.375,0.495,0.579,-0.198,23.47,-73.85,-64.0,4,6
19062.39,0.542,0.686,-0.26,25.21,-77.94,-86.46,4,6
19062.39,0.536,0.782,-0.286,30.43,-75.23,-107.39,4,6
19062.406,0.422,0.849,-0.31,42.39,-68.48,-122.26,4,6
19062.421,0.308,0.897,-0.337,54.14,-62.75,-125.92,4,6
19062.421,0.26,0.957,-0.357,61.19,-58.41,-120.27,4,6
19062.437,0.255,1.016,-0.373,63.39,-54.2,-110.72,4,6
19062.453,0.304,1.07,-0.397,58.23,-48.71,-97.84,4,6
19062.468,0.328,1.122,-0.387,46.42,-41.63,-84.29,4,6
19062.468,0.357,1.104,-0.346,39.52,-33.42,-69.7,4,6
19062.484,0.327,1.077,-0.331,38.45,-24.93,-54.35,4,6
19062.484,0.31,1.042,-0.303,32.59,-17.61,-36.84,4,6
19062.5,0.325,1.004,-0.268,23.9,-10.41,-19.81,4,6
19062.515,0.313,0.971,-0.231,12.24,-4.12,-5.1,4,6
19062.515,0.324,0.92,-0.19,1.13,-2.53,5.68,4,6
19062.531,0.332,0.885,-0.15,-1.83,-3.2,10.41,4,6
19062.531,0.304,0.867,-0.124,2.96,-6.71,11.05,4,6
19062.546,0.286,0.872,-0.133,9.06,-14.83,9.77,4,6
19062.562,0.298,0.881,-0.159,11.23,-24.54,7.54,4,6
19062.562,0.335,0.871,-0.203,9.46,-33.27,5.55,4,6
19062.578,0.382,0.868,-0.268,5.46,-38.36,1.8,4,6
19062.593,0.399,0.88,-0.31,1.46,-38.24,-4.46,4,6
19062.593,0.387,0.883,-0.333,1.19,-35.13,-10.68,4,6
19062.609,0.385,0.891,-0.336,3.63,-30.85,-15.11,4,6
19062.625,0.389,0.907,-0.316,8.91,-24.84,-16.51,4,6
19062.625,0.35,0.924,-0.297,14.44,-19.01,-14.16,4,6
19062.64,0.357,0.931,-0.296,14.25,-15.26,-7.78,4,6
19062.656,0.345,0.936,-0.284,8.12,-13.06,-0.98,4,6
19062.656,0.292,0.907,-0.295,3.08,-12.94,3.36,4,6
19062.671,0.303,0.876,-0.309,1.28,-13.86,6.81,4,6
19062.671,0.346,0.842,-0.332,4.0,-11.81,8.24,4,6
19062.687,0.325,0.824,-0.36,6.96,-6.1,7.42,4,6
19062.703,0.327,0.813,-0.366,7.39,0.37,6.65,4,6
19062.703,0.326,0.815,-0.337,7.17,6.65,5.83,4,6
19062.718,0.308,0.819,-0.301,7.51,11.72,4.94,4,6
19062.734,0.296,0.843,-0.27,5.46,13.61,3.78,4,6
19062.734,0.286,0.864,-0.236,2.17,13.0,2.93,4,6
19062.75,0.272,0.869,-0.211,-0.03,10.53,3.78,4,6
19062.765,0.28,0.858,-0.221,-1.31,7.11,6.99,4,6
19062.765,0.299,0.853,-0.245,-2.93,4.91,11.2,4,6
19062.781,0.317,0.847,-0.263,-5.98,4.79,14.89,4,6
19062.796,0.312,0.839,-0.268,-10.68,5.83,16.54,4,6
19062.796,0.308,0.828,-0.254,-13.31,6.56,16.66,4,6
19062.812,0.322,0.83,-0.247,-12.94,6.5,15.87,4,6
19062.812,0.336,0.816,-0.254,-10.16,6.56,14.13,4,6
19062.828,0.349,0.812,-0.249,-3.54,8.27,9.61,4,6
19062.843,0.356,0.814,-0.242,-2.32,9.0,6.74,4,6
19062.843,0.356,0.81,-0.232,-1.25,8.97,3.05,4,6
19062.859,0.34,0.816,-0.21,0.52,8.03,-0.52,4,6
19062.875,0.338,0.826,-0.212,1.22,6.62,-3.39,4,6
19062.875,0.321,0.84,-0.204,1.46,5.37,-5.28,4,6
19062.89,0.308,0.843,-0.205,1.34,3.66,-4.85,4,6
19062.906,0.323,0.852,-0.224,0.27,1.95,-2.38,4,6
19062.906,0.337,0.852,-0.239,-2.32,1.31,0.43,4,6
19062.921,0.349,0.835,-0.241,-6.47,2.5,3.08,4,6
19062.921,0.361,0.832,-0.226,-9.92,4.27,5.65,4,6
19062.937,0.363,0.825,-0.216,-10.99,4.73,6.71,4,6
19062.953,0.366,0.812,-0.214,-12.12,3.97,7.48,4,6
19062.953,0.365,0.796,-0.215,-12.88,3.27,8.73,4,6
19062.968,0.361,0.774,-0.215,-12.6,2.81,9.89,4,6
19062.984,0.363,0.76,-0.218,-12.82,2.14,10.44,4,6
19062.984,0.362,0.747,-0.226,-12.67,1.95,9.19,4,6
19063.0,0.364,0.745,-0.241,-12.18,2.23,7.42,4,6
19063.015,0.362,0.741,-0.255,-12.76,3.54,5.4,4,6
19063.015,0.36,0.738,-0.247,-14.74,5.55,3.23,4,6
19063.031,0.351,0.738,-0.231,-16.24,7.23,1.43,4,6
19063.031,0.336,0.745,-0.215,-17.98,8.12,-0.15,4,6
19063.046,0.327,0.749,-0.189,-20.6,7.2,-1.71,4,6
19063.062,0.321,0.755,-0.168,-23.35,4.97,-3.08,4,6
19063.062,0.323,0.754,-0.156,-24.23,0.95,-4.82,4,6
19063.078,0.334,0.743,-0.159,-22.06,-2.96,-7.35,4,6
19063.093,0.337,0.747,-0.178,-18.4,-5.4,-9.89,4,6
19063.093,0.333,0.757,-0.198,-16.24,-6.16,-11.96,4,6
19063.109,0.319,0.759,-0.209,-16.6,-4.97,-12.85,4,6
19063.125,0.307,0.761,-0.211,-18.65,-2.56,-12.57,4,6
19063.125,0.304,0.766,-0.194,-20.29,-0.12,-11.54,4,6
19063.14,0.297,0.764,-0.171,-20.45,1.98,-11.35,4,6
19063.156,0.279,0.767,-0.155,-21.94,2.56,-12.33,4,6
19063.156,0.273,0.747,-0.151,-23.68,2.35,-12.39,4,6
19063.171,0.271,0.752,-0.147,-26.22,1.19,-12.42,4,6
19063.171,0.302,0.763,-0.134,-29.11,-0.55,-13.55,4,6
19063.187,0.32,0.765,-0.132,-29.69,-1.53,-15.5,4,6
19063.203,0.331,0.772,-0.137,-27.47,-1.86,-18.4,4,6
19063.203,0.32,0.78,-0.136,-23.74,-1.16,-21.79,4,6
19063.218,0.292,0.795,-0.124,-21.0,-0.46,-24.51,4,6
19063.234,0.259,0.809,-0.111,-21.97,-0.46,-25.3,4,6
19063.234,0.247,0.814,-0.104,-26.15,-1.74,-24.11,4,6
19063.25,0.261,0.813,-0.1,-31.28,-3.11,-21.88,4,6
19063.265,0.28,0.813,-0.091,-35.74,-4.43,-20.05,4,6
19063.265,0.289,0.802,-0.085,-36.32,-4.73,-20.6,4,6
19063.281,0.277,0.788,-0.085,-34.0,-3.39,-21.79,4,6
19063.281,0.264,0.784,-0.08,-31.95,-0.76,-22.43,4,6
19063.296,0.234,0.779,-0.068,-33.36,2.75,-21.82,4,6
19063.312,0.214,0.774,-0.041,-38.12,5.13,-19.87,4,6
19063.312,0.211,0.772,-0.024,-43.31,5.55,-17.15,4,6
19063.328,0.22,0.774,-0.018,-47.98,4.39,-15.38,4,6
19063.343,0.222,0.787,-0.019,-49.47,3.69,-15.59,4,6
19063.343,0.194,0.794,-0.026,-48.62,4.67,-16.42,4,6
19063.359,0.186,0.782,-0.028,-48.16,5.86,-15.96,4,6
19063.375,0.201,0.776,-0.016,-49.23,8.03,-13.46,4,6
19063.375,0.209,0.771,0.006,-52.4,10.04,-10.22,4,6
19063.39,0.237,0.787,0.046,-57.37,10.1,-8.18,4,6
19063.406,0.246,0.796,0.08,-60.61,8.73,-9.28,4,6
19063.406,0.225,0.815,0.1,-60.24,6.35,-12.79,4,6
19063.421,0.195,0.833,0.089,-55.91,3.17,-16.54,4,6
19063.421,0.188,0.833,0.062,-52.86,1.37,-17.27,4,6
19063.437,0.198,0.832,0.064,-54.63,3.08,-14.53,4,6
19063.453,0.184,0.82,0.076,-58.35,7.87,-10.16,4,6
19063.453,0.181,0.809,0.088,-65.89,12.24,-4.09,4,6
19063.468,0.196,0.817,0.116,-74.56,14.07,-0.95,4,6
19063.484,0.186,0.813,0.134,-77.61,15.11,-3.3,4,6
19063.484,0.169,0.818,0.15,-76.24,14.44,-8.12,4,6
19063.5,0.171,0.811,0.157,-71.26,12.85,-13.61,4,6
19063.515,0.188,0.805,0.162,-64.52,13.09,-18.13,4,6
19063.515,0.188,0.826,0.158,-61.07,15.75,-21.45,4,6
19063.531,0.193,0.83,0.185,-64.85,18.01,-23.93,4,6
19063.531,0.2,0.855,0.245,-68.73,18.25,-27.47,4,6
19063.546,0.171,0.872,0.279,-65.68,16.54,-34.06,4,6
19063.562,0.131,0.89,0.28,-59.39,13.76,-38.97,4,6
19063.562,0.12,0.92,0.265,-54.51,10.77,-40.96,4,6
19063.578,0.113,0.931,0.247,-53.35,9.8,-40.96,4,6
19063.593,0.14,0.946,0.235,-57.13,10.22,-39.31,4,6
19063.609,0.148,0.952,0.245,-60.7,12.51,-38.85,4,6
19063.609,0.127,0.943,0.265,-60.12,16.14,-38.64,4,6
19063.625,0.1,0.949,0.281,-57.01,17.91,-38.15,4,6
19063.625,0.08,0.958,0.283,-55.7,17.67,-38.33,4,6
19063.64,0.094,0.963,0.291,-57.44,16.85,-39.06,4,6
19063.656,0.11,0.953,0.322,-58.41,16.94,-41.17,4,6
19063.656,0.092,0.954,0.357,-56.0,18.16,-44.53,4,6
19063.671,0.056,0.955,0.37,-51.45,18.04,-47.52,4,6
19063.687,0.031,0.96,0.369,-49.84,16.21,-48.31,4,6
19063.687,0.025,0.962,0.365,-52.71,14.98,-47.82,4,6
19063.703,0.01,0.961,0.362,-57.8,13.95,-47.0,4,6
19063.703,0.039,0.966,0.37,-62.29,11.32,-46.75,4,6
19063.718,0.068,0.976,0.383,-61.46,9.03,-49.13,4,6
19063.734,0.061,0.974,0.388,-55.09,9.31,-52.64,4,6
19063.734,0.038,0.975,0.382,-48.07,10.68,-54.29,4,6
19063.75,0.016,0.977,0.384,-45.96,12.54,-54.11,4,6
19063.765,0.004,0.977,0.404,-49.1,14.13,-53.35,4,6
19063.765,0.008,0.982,0.426,-52.77,14.56,-52.61,4,6
19063.781,0.012,1.004,0.451,-53.25,14.47,-52.83,4,6
19063.796,-0.01,1.033,0.477,-51.58,14.25,-53.44,4,6
19063.796,-0.027,1.042,0.483,-49.93,12.91,-51.73,4,6
19063.812,-0.044,1.041,0.473,-53.07,11.38,-42.91,4,6
19063.812,-0.034,1.034,0.468,-56.28,11.66,-38.15,4,6
19063.828,-0.025,1.008,0.475,-57.59,11.69,-36.62,4,6
19063.843,-0.002,1.012,0.474,-58.02,11.96,-38.58,4,6
19063.843,-0.017,0.996,0.488,-56.43,12.97,-41.29,4,6
19063.859,-0.051,0.988,0.498,-50.78,13.82,-43.24,4,6
19063.875,-0.082,0.997,0.492,-44.98,14.98,-42.36,4,6
19063.875,-0.099,0.985,0.489,-43.67,16.79,-39.52,4,6
19063.89,-0.094,0.978,0.514,-47.27,19.53,-35.52,4,6
19063.89,-0.107,0.976,0.561,-53.07,21.58,-31.01,4,6
19063.906,-0.113,0.976,0.598,-57.13,20.84,-26.92,4,6
19063.921,-0.103,0.987,0.62,-59.3,17.88,-23.35,4,6
19063.921,-0.105,0.975,0.617,-59.51,15.05,-21.85,4,6
19063.937,-0.117,0.942,0.608,-58.23,13.4,-22.0,4,6
19063.953,-0.119,0.912,0.598,-55.67,12.88,-22.37,4,6
19063.968,-0.121,0.897,0.592,-54.66,13.28,-22.37,4,6
19063.968,-0.109,0.892,0.589,-55.36,13.52,-22.71,4,6
19063.984,-0.083,0.897,0.597,-56.34,13.12,-23.93,4,6
19063.984,-0.081,0.898,0.615,-55.48,13.28,-26.58,4,6
19064.0,-0.101,0.894,0.638,-51.79,13.12,-30.24,4,6
19064.015,-0.128,0.88,0.643,-46.48,11.69,-33.02,4,6
