timestamp,ax,ay,az,gx,gy,gz,orient_label,motion_label
19066.875,-0.617,0.187,0.763,-1.53,-6.35,6.35,4,6
19066.875,-0.628,0.189,0.765,0.15,-6.99,7.2,4,6
19066.89,-0.623,0.198,0.769,0.98,-8.48,8.7,4,6
19066.89,-0.606,0.194,0.768,-0.09,-9.89,10.07,4,6
19066.906,-0.601,0.183,0.769,-1.16,-10.44,10.86,4,6
19066.921,-0.598,0.182,0.758,-0.64,-10.35,11.02,4,6
19066.921,-0.591,0.185,0.743,-0.46,-9.95,10.74,4,6
19066.937,-0.584,0.177,0.741,-1.56,-8.79,9.52,4,6
19066.953,-0.582,0.16,0.744,-2.04,-7.42,7.23,4,6
19066.953,-0.59,0.159,0.749,-0.7,-6.13,4.52,4,6
19066.968,-0.595,0.169,0.752,1.4,-5.62,1.86,4,6
19066.984,-0.6,0.177,0.76,2.9,-5.52,0.06,4,6
19066.984,-0.617,0.18,0.781,5.13,-5.86,-1.25,4,6
19067.0,-0.626,0.186,0.813,8.55,-8.27,-1.65,4,6
19067.015,-0.636,0.193,0.855,12.94,-12.36,-1.13,4,6
19067.015,-0.653,0.21,0.9,17.85,-18.56,0.98,4,6
19067.031,-0.666,0.229,0.902,20.75,-28.02,5.55,4,6
19067.046,-0.595,0.228,0.826,18.8,-44.47,17.52,4,6
19067.062,-0.545,0.234,0.777,15.23,-46.69,21.45,4,6
19067.062,-0.495,0.216,0.742,7.75,-44.56,23.22,4,6
19067.078,-0.471,0.186,0.727,0.49,-37.87,22.13,4,6
19067.093,-0.485,0.18,0.749,-0.52,-29.79,19.14,4,6
19067.093,-0.516,0.196,0.786,2.75,-24.38,16.3,4,6
19067.109,-0.539,0.22,0.823,6.32,-23.71,13.98,4,6
19067.125,-0.562,0.245,0.834,10.16,-26.64,13.25,4,6
19067.125,-0.566,0.275,0.833,12.54,-31.71,14.71,4,6
19067.14,-0.552,0.295,0.822,13.09,-37.29,17.27,4,6
19067.14,-0.523,0.301,0.786,12.18,-41.57,20.23,4,6
19067.156,-0.491,0.318,0.754,10.1,-43.06,23.01,4,6
19067.171,-0.472,0.352,0.729,9.37,-41.72,25.15,4,6
19067.171,-0.466,0.416,0.692,9.43,-38.88,27.99,4,6
19067.187,-0.464,0.512,0.648,9.16,-35.4,33.08,4,6
19067.203,-0.465,0.598,0.59,9.09,-30.21,41.63,4,6
19067.218,-0.459,0.672,0.543,9.98,-23.04,51.91,4,6
19067.218,-0.469,0.729,0.503,13.43,-12.36,62.62,4,6
19067.234,-0.479,0.762,0.476,19.87,1.37,73.49,4,6
19067.234,-0.503,0.825,0.448,26.98,17.61,83.93,4,6
19067.25,-0.516,0.886,0.432,31.16,34.58,94.36,4,6
19067.265,-0.519,0.944,0.422,31.62,51.21,103.7,4,6
19067.265,-0.531,0.99,0.409,28.84,68.51,113.22,4,6
19067.281,-0.556,1.028,0.396,25.27,87.07,123.33,4,6
19067.296,-0.588,1.052,0.366,22.46,107.43,134.04,4,6
19067.296,-0.612,1.076,0.344,19.32,128.91,144.84,4,6
19067.312,-0.643,1.109,0.346,16.6,150.79,155.0,4,6
19067.328,-0.703,1.149,0.374,16.82,171.88,164.71,4,6
19067.328,-0.794,1.175,0.405,20.36,188.67,176.0,4,6
19067.343,-0.872,1.216,0.43,24.63,199.62,191.53,4,6
19067.359,-0.943,1.278,0.434,24.9,206.88,211.04,4,6
19067.359,-1.023,1.339,0.464,14.5,208.32,236.79,4,6
19067.375,-1.082,1.428,0.52,-6.96,196.45,262.79,4,6
19067.375,-1.098,1.388,0.519,-36.81,176.52,288.92,4,6
19067.39,-1.049,1.266,0.541,-71.23,154.52,316.63,4,6
19067.406,-0.977,1.084,0.559,-91.89,135.87,339.52,4,6
19067.406,-0.898,0.896,0.554,-93.02,119.48,353.56,4,6
19067.421,-0.805,0.754,0.545,-81.88,107.09,358.93,4,6
19067.421,-0.736,0.633,0.517,-66.84,98.79,357.34,4,6
19067.437,-0.649,0.535,0.507,-52.58,92.9,348.49,4,6
19067.453,-0.577,0.487,0.522,-38.09,90.21,329.75,4,6
19067.453,-0.543,0.459,0.533,-24.72,87.65,306.89,4,6
19067.468,-0.549,0.428,0.527,-17.46,81.94,285.26,4,6
19067.484,-0.516,0.41,0.523,-17.76,71.44,270.21,4,6
19067.484,-0.47,0.386,0.521,-21.61,60.76,257.97,4,6
19067.5,-0.438,0.344,0.502,-27.56,51.06,246.01,4,6
19067.515,-0.398,0.302,0.471,-33.85,43.55,233.59,4,6
19067.515,-0.379,0.26,0.438,-39.37,39.64,221.29,4,6
19067.531,-0.344,0.217,0.419,-43.46,39.06,211.58,4,6
19067.546,-0.321,0.181,0.428,-34.09,46.45,189.18,4,6
19067.562,-0.327,0.225,0.453,-26.46,51.55,177.28,4,6
19067.562,-0.359,0.285,0.495,-23.83,54.02,166.54,4,6
19067.578,-0.398,0.353,0.544,-29.45,52.95,158.94,4,6
19067.593,-0.446,0.409,0.608,-42.05,47.73,154.67,4,6
19067.593,-0.484,0.432,0.677,-57.13,37.2,153.9,4,6
19067.609,-0.478,0.452,0.713,-70.8,23.83,156.07,4,6
19067.625,-0.437,0.478,0.71,-82.67,12.05,158.45,4,6
19067.625,-0.385,0.457,0.696,-93.08,4.79,158.15,4,6
19067.64,-0.335,0.412,0.707,-98.67,2.87,154.21,4,6
19067.656,-0.297,0.387,0.74,-93.81,5.62,146.95,4,6
19067.656,-0.292,0.388,0.785,-79.38,9.61,137.46,4,6
19067.671,-0.322,0.428,0.84,-62.47,11.72,127.69,4,6
19067.671,-0.37,0.479,0.878,-50.94,9.4,119.02,4,6
19067.687,-0.386,0.515,0.904,-48.55,2.41,113.28,4,6
19067.703,-0.377,0.553,0.952,-53.47,-6.47,108.92,4,6
19067.703,-0.346,0.567,0.982,-58.99,-15.5,105.56,4,6
19067.718,-0.273,0.573,0.998,-60.67,-22.95,104.25,4,6
19067.734,-0.179,0.574,1.011,-57.34,-25.73,103.89,4,6
19067.734,-0.097,0.579,1.013,-50.78,-23.93,101.87,4,6
19067.75,-0.052,0.58,1.003,-39.74,-16.82,87.62,4,6
19067.765,-0.029,0.572,1.017,-34.79,-15.84,77.43,4,6
19067.765,-0.02,0.57,1.029,-30.15,-17.91,66.87,4,6
19067.781,0.021,0.527,0.969,-24.93,-21.21,56.31,4,6
19067.781,0.062,0.497,0.916,-19.32,-22.4,44.19,4,6
19067.796,0.094,0.482,0.865,-13.61,-19.75,30.03,4,6
19067.812,0.109,0.496,0.836,-7.02,-13.86,15.75,4,6
19067.812,0.103,0.518,0.833,0.49,-7.45,3.6,4,6
19067.828,0.084,0.551,0.876,8.45,-2.96,-4.7,4,6
19067.843,0.074,0.575,0.899,17.88,-3.02,-8.39,4,6
19067.843,0.102,0.625,0.907,25.82,-6.56,-7.02,4,6
19067.859,0.147,0.68,0.886,29.94,-10.01,-3.75,4,6
19067.875,0.185,0.721,0.848,26.46,-12.05,-0.43,4,6
19067.875,0.22,0.729,0.823,16.94,-12.36,2.93,4,6
19067.89,0.252,0.723,0.817,5.62,-11.14,5.65,4,6
19067.89,0.276,0.694,0.83,-2.35,-9.58,6.53,4,6
19067.906,0.313,0.689,0.843,-3.85,-10.1,5.19,4,6
19067.921,0.362,0.71,0.835,-1.04,-10.59,1.53,4,6
19067.937,0.384,0.695,0.814,2.69,-9.22,-3.78,4,6
19067.937,0.373,0.666,0.781,5.74,-6.47,-8.76,4,6
19067.953,0.357,0.633,0.743,7.81,-2.41,-10.77,4,6
19067.953,0.332,0.614,0.719,7.97,3.54,-11.05,4,6
19067.968,0.299,0.583,0.7,9.19,9.43,-10.86,4,6
19067.984,0.275,0.554,0.683,10.35,14.01,-9.25,4,6
19067.984,0.271,0.549,0.669,8.24,17.67,-8.39,4,6
19068.0,0.269,0.545,0.662,4.67,21.21,-10.25,4,6
19068.0,0.271,0.537,0.658,-0.76,24.14,-14.95,4,6
19068.015,0.282,0.538,0.651,-7.2,27.07,-21.12,4,6
19068.031,0.286,0.542,0.655,-11.84,31.77,-27.59,4,6
19068.031,0.227,0.589,0.739,-13.03,37.08,-32.59,4,6
19068.046,0.137,0.686,0.881,-12.97,36.16,-31.31,4,6
19068.062,0.07,0.756,0.965,-12.76,24.26,-21.97,4,6
19068.062,0.097,0.749,0.92,-10.19,7.29,-7.23,4,6
19068.078,0.195,0.654,0.796,-5.62,-4.46,4.52,4,6
19068.093,0.243,0.541,0.692,-2.29,-3.36,6.07,4,6
19068.093,0.162,0.61,0.703,-9.25,1.34,0.27,4,6
19068.109,0.204,0.626,0.723,-21.39,1.25,-0.82,4,6
19068.125,0.199,0.535,0.737,-23.5,2.38,-1.59,4,6
19068.125,0.218,0.554,0.784,-26.67,4.21,-2.08,4,6
19068.14,0.227,0.577,0.811,-24.66,5.58,-2.38,4,6
19068.14,0.212,0.57,0.819,-22.83,6.41,-3.57,4,6
19068.156,0.201,0.575,0.844,-21.76,5.28,-3.85,4,6
19068.171,0.182,0.602,0.861,-15.56,2.56,-1.83,4,6
19068.171,0.16,0.617,0.879,-5.86,-1.53,2.04,4,6
19068.187,0.13,0.629,0.865,3.3,-6.96,7.48,4,6
19068.203,0.095,0.603,0.834,8.91,-14.16,13.89,4,6
19068.203,0.1,0.577,0.808,9.55,-24.02,20.63,4,6
19068.218,0.148,0.583,0.785,4.55,-33.81,25.18,4,6
19068.234,0.168,0.661,0.78,-6.07,-40.19,26.89,4,6
19068.234,0.334,0.608,0.702,-10.38,-41.78,30.76,4,6
19068.25,0.31,0.528,0.725,-9.92,-32.5,29.76,4,6
19068.265,0.299,0.595,0.709,-13.92,-23.87,28.05,4,6
19068.265,0.33,0.493,0.688,-8.91,-17.76,26.83,4,6
19068.281,0.331,0.471,0.695,-5.71,-9.43,23.29,4,6
19068.296,0.341,0.475,0.724,-0.18,-2.04,19.01,4,6
19068.296,0.319,0.465,0.741,6.04,3.69,13.28,4,6
19068.312,0.306,0.493,0.779,7.48,6.71,8.0,4,6
19068.312,0.291,0.531,0.821,6.44,7.02,3.66,4,6
19068.328,0.265,0.554,0.842,4.0,4.94,0.15,4,6
19068.343,0.243,0.561,0.855,2.14,0.89,-1.83,4,6
19068.343,0.234,0.55,0.825,3.85,-4.03,-2.01,4,6
19068.359,0.251,0.544,0.786,6.41,-7.45,-1.01,4,6
19068.375,0.258,0.551,0.747,8.18,-7.66,-0.61,4,6
19068.375,0.265,0.546,0.717,7.08,-6.23,-0.85,4,6
19068.39,0.281,0.543,0.708,3.17,-3.45,-2.04,4,6
19068.39,0.286,0.552,0.713,-0.03,0.12,-3.81,4,6
19068.406,0.292,0.559,0.729,-1.8,3.3,-5.52,4,6
19068.421,0.292,0.563,0.74,-2.26,6.35,-6.71,4,6
19068.421,0.282,0.571,0.754,-1.8,8.73,-7.51,4,6
19068.437,0.261,0.593,0.793,-1.04,9.34,-7.63,4,6
19068.453,0.24,0.607,0.819,-0.09,7.42,-6.1,4,6
19068.453,0.222,0.604,0.829,0.31,3.63,-3.36,4,6
19068.468,0.219,0.601,0.824,-0.03,-0.95,-0.73,4,6
19068.484,0.223,0.592,0.801,-0.76,-4.85,0.76,4,6
19068.484,0.24,0.568,0.765,-2.62,-7.32,1.31,4,6
19068.5,0.26,0.542,0.734,-5.13,-7.08,1.01,4,6
19068.515,0.276,0.53,0.72,-6.71,-4.3,0.46,4,6
19068.515,0.293,0.525,0.726,-6.78,-0.21,-0.24,4,6
19068.531,0.303,0.522,0.74,-5.04,4.39,-1.34,4,6
19068.531,0.3,0.521,0.746,-1.16,9.13,-2.53,4,6
19068.546,0.3,0.522,0.735,2.69,13.18,-3.91,4,6
19068.562,0.308,0.523,0.712,3.72,17.27,-6.47,4,6
19068.562,0.321,0.509,0.676,2.17,22.89,-10.56,4,6
19068.578,0.335,0.469,0.65,0.89,31.28,-16.48,4,6
19068.593,0.347,0.447,0.621,1.22,43.61,-24.54,4,6
19068.593,0.403,0.517,0.682,-0.03,59.18,-35.19,4,6
19068.609,0.147,0.656,0.821,-14.13,71.14,-50.6,4,6
19068.625,0.056,0.69,1.011,-40.28,56.61,-48.86,4,6
19068.625,-0.068,0.741,1.078,-39.31,30.52,-40.35,4,6
19068.64,0.004,0.799,1.003,-32.11,4.06,-22.22,4,6
19068.64,0.106,0.648,0.829,-16.79,-11.35,-5.95,4,6
19068.656,0.151,0.557,0.721,-17.94,-12.3,0.76,4,6
19068.671,0.139,0.541,0.721,-22.71,-8.51,3.57,4,6
19068.671,0.115,0.542,0.782,-25.33,-5.92,8.61,4,6
19068.687,0.133,0.558,0.847,-29.85,-8.24,12.97,4,6
19068.703,0.159,0.552,0.881,-29.51,-12.18,15.66,4,6
19068.703,0.182,0.506,0.926,-23.53,-15.69,17.7,4,6
19068.718,0.193,0.491,0.926,-15.59,-18.8,18.22,4,6
19068.734,0.145,0.494,0.916,-0.12,-24.87,23.29,4,6
19068.734,0.211,0.496,0.863,12.05,-24.11,22.28,4,6
19068.75,0.234,0.351,0.786,11.54,-20.17,17.33,4,6
19068.765,0.221,0.432,0.782,11.11,-17.98,13.52,4,6
19068.765,0.258,0.453,0.791,15.35,-15.23,8.24,4,6
19068.781,0.263,0.484,0.771,19.96,-12.05,5.43,4,6
19068.781,0.265,0.541,0.779,18.04,-9.74,2.5,4,6
19068.796,0.258,0.571,0.794,14.1,-9.0,0.15,4,6
19068.812,0.256,0.574,0.805,10.62,-9.86,0.03,4,6
19068.812,0.252,0.588,0.804,9.09,-10.99,1.71,4,6
19068.828,0.254,0.585,0.786,9.37,-12.09,3.75,4,6
19068.843,0.246,0.578,0.759,7.72,-12.05,4.46,4,6
19068.843,0.253,0.567,0.742,3.14,-11.2,4.36,4,6
19068.859,0.257,0.548,0.735,-0.73,-8.48,3.78,4,6
19068.875,0.26,0.534,0.738,-1.59,-4.43,3.85,4,6
19068.875,0.263,0.534,0.744,-2.87,-0.61,4.03,4,6
19068.89,0.271,0.525,0.75,-4.58,2.69,3.14,4,6
19068.89,0.28,0.522,0.762,-6.1,5.86,1.89,4,6
19068.906,0.279,0.509,0.768,-5.25,9.0,0.24,4,6
19068.921,0.295,0.492,0.761,-1.89,12.48,-1.1,4,6
19068.921,0.298,0.488,0.741,1.83,17.58,-3.45,4,6
19068.937,0.307,0.464,0.736,5.55,24.26,-7.02,4,6
19068.953,0.27,0.462,0.761,6.65,32.35,-12.3,4,6
19068.953,0.174,0.551,0.916,-7.08,32.78,-19.68,4,6
19068.968,0.192,0.601,0.97,-15.87,22.06,-21.82,4,6
19068.984,0.163,0.416,0.913,2.81,13.67,-19.87,4,6
19068.984,0.079,0.595,0.942,-2.41,5.62,-20.69,4,6
19069.0,0.158,0.648,0.894,0.55,-5.74,-13.73,4,6
19069.015,0.152,0.522,0.812,15.2,-10.13,-5.95,4,6
19069.015,0.159,0.556,0.779,15.78,-9.55,-1.53,4,6
19069.031,0.176,0.589,0.756,15.35,-8.55,1.92,4,6
19069.046,0.181,0.577,0.743,11.81,-8.15,3.3,4,6
19069.046,0.2,0.605,0.758,4.58,-8.61,3.78,4,6
19069.062,0.206,0.618,0.767,-0.21,-8.79,5.43,4,6
19069.062,0.206,0.622,0.795,-4.91,-9.74,7.35,4,6
19069.078,0.189,0.615,0.828,-8.61,-11.96,9.25,4,6
19069.093,0.146,0.594,0.867,-11.26,-16.42,12.15,4,6
19069.109,0.229,0.568,0.827,-14.04,-23.59,16.27,4,6
19069.109,0.257,0.417,0.758,-3.72,-22.83,17.43,4,6
19069.125,0.234,0.483,0.777,-5.16,-19.04,14.04,4,6
19069.125,0.276,0.499,0.814,-7.48,-18.1,11.38,4,6
19069.14,0.294,0.448,0.779,-2.5,-15.84,7.93,4,6
19069.156,0.312,0.43,0.747,4.7,-11.78,4.33,4,6
19069.156,0.308,0.492,0.744,8.48,-5.31,0.27,4,6
19069.171,0.304,0.513,0.747,9.09,-0.27,-3.11,4,6
19069.171,0.299,0.515,0.754,7.93,3.08,-5.89,4,6
19069.187,0.277,0.536,0.768,7.57,6.1,-8.36,4,6
19069.203,0.24,0.57,0.795,6.47,7.54,-10.04,4,6
19069.203,0.208,0.591,0.826,2.9,5.77,-10.04,4,6
19069.218,0.196,0.587,0.84,-0.76,1.65,-8.94,4,6
19069.234,0.193,0.575,0.83,-2.04,-2.01,-7.39,4,6
19069.25,0.2,0.559,0.807,-1.13,-5.74,-1.74,4,6
19069.265,0.211,0.556,0.802,0.12,-6.1,1.1,4,6
19069.265,0.223,0.557,0.788,1.77,-5.98,3.66,4,6
19069.281,0.237,0.559,0.779,1.98,-5.62,5.68,4,6
19069.296,0.254,0.547,0.774,1.1,-4.97,6.23,4,6
19069.296,0.262,0.537,0.769,0.15,-3.78,5.71,4,6
19069.312,0.263,0.53,0.768,-0.37,-2.01,4.61,4,6
19069.312,0.251,0.537,0.796,-0.79,-0.43,2.96,4,6
19069.328,0.231,0.546,0.829,-0.95,-1.28,1.83,4,6
19069.343,0.223,0.541,0.849,-1.34,-4.52,1.46,4,6
19069.343,0.221,0.527,0.849,-0.67,-8.36,1.19,4,6
19069.359,0.221,0.518,0.83,1.4,-11.51,1.31,4,6
19069.375,0.239,0.518,0.811,3.17,-13.7,1.71,4,6
19069.375,0.262,0.512,0.79,5.31,-14.16,1.59,4,6
19069.39,0.269,0.511,0.773,8.3,-12.21,0.82,4,6
19069.39,0.27,0.518,0.77,11.2,-9.52,-0.37,4,6
19069.421,0.26,0.541,0.82,15.14,-7.63,-3.3,4,6
19069.437,0.242,0.549,0.865,18.83,-9.98,-4.3,4,6
19069.437,0.226,0.543,0.903,24.38,-14.8,-4.12,4,6
19069.453,0.216,0.531,0.92,31.1,-21.58,-3.75,4,6
19069.453,0.214,0.516,0.896,37.05,-29.21,-3.48,4,6
19069.468,0.224,0.498,0.853,39.77,-36.29,-3.94,4,6
19069.484,0.25,0.484,0.821,41.41,-41.69,-6.07,4,6
19069.484,0.28,0.479,0.806,44.98,-45.01,-9.8,4,6
19069.5,0.296,0.494,0.792,50.81,-45.59,-13.86,4,6
19069.515,0.294,0.508,0.761,57.1,-44.86,-17.55,4,6
19069.515,0.292,0.518,0.724,60.27,-44.28,-20.84,4,6
19069.531,0.292,0.535,0.7,60.12,-44.16,-25.06,4,6
19069.531,0.296,0.56,0.683,57.8,-44.1,-29.79,4,6
19069.546,0.305,0.587,0.673,53.8,-44.19,-34.27,4,6
19069.562,0.313,0.608,0.663,49.44,-44.22,-38.39,4,6
19069.562,0.311,0.614,0.641,46.45,-44.1,-42.05,4,6
19069.593,0.305,0.651,0.648,44.62,-43.28,-48.83,4,6
19069.609,0.299,0.671,0.635,45.81,-43.73,-51.33,4,6
19069.609,0.286,0.694,0.631,45.41,-43.64,-52.61,4,6
19069.625,0.278,0.706,0.65,44.16,-44.43,-53.04,4,6
19069.625,0.259,0.736,0.684,44.25,-46.42,-52.43,4,6
19069.64,0.231,0.767,0.706,45.9,-50.42,-49.41,4,6
19069.64,0.203,0.811,0.714,45.2,-55.54,-43.4,4,6
19069.656,0.184,0.831,0.685,42.05,-61.49,-34.3,4,6
19069.671,0.185,0.82,0.659,37.93,-68.12,-24.96,4,6
19069.687,0.188,0.801,0.632,36.9,-74.1,-16.94,4,6
19069.687,0.211,0.791,0.605,36.44,-78.28,-9.89,4,6
19069.703,0.233,0.802,0.61,35.92,-79.96,-4.18,4,6
19069.703,0.237,0.81,0.623,37.57,-80.63,1.04,4,6
19069.718,0.206,0.859,0.638,29.63,-88.78,15.02,4,6
19069.734,0.191,0.905,0.66,14.53,-97.17,22.16,4,6
19069.734,0.205,0.905,0.636,-7.48,-104.56,27.16,4,6
19069.75,0.278,0.811,0.514,-32.04,-110.2,29.11,4,6
19069.765,0.399,0.725,0.459,-50.26,-110.02,27.59,4,6
19069.765,0.528,0.647,0.423,-52.52,-102.33,22.1,4,6
19069.781,0.623,0.589,0.399,-39.03,-85.36,12.39,4,6
19069.781,0.638,0.594,0.409,-17.91,-64.49,-1.01,4,6
19069.796,0.604,0.663,0.446,0.95,-44.43,-14.62,4,6
19069.812,0.545,0.734,0.552,7.69,-29.48,-22.98,4,6
19069.812,0.515,0.766,0.629,13.64,-24.48,-25.06,4,6
19069.828,0.525,0.821,0.646,20.17,-24.96,-24.51,4,6
19069.843,0.564,0.849,0.623,23.8,-25.91,-21.88,4,6
19069.843,0.605,0.846,0.602,25.76,-23.93,-19.65,4,6
19069.859,0.625,0.863,0.59,25.79,-19.68,-18.49,4,6
19069.875,0.627,0.866,0.583,25.33,-14.77,-18.01,4,6
19069.875,0.611,0.862,0.584,25.33,-10.19,-17.21,4,6
19069.89,0.597,0.847,0.579,26.37,-7.84,-15.23,4,6
19069.89,0.591,0.847,0.567,27.92,-6.99,-12.79,4,6
19069.906,0.583,0.843,0.565,27.71,-7.48,-9.09,4,6
19069.921,0.611,0.827,0.565,24.93,-9.89,-3.42,4,6
19069.937,0.666,0.805,0.568,21.45,-13.52,3.91,4,6
19069.937,0.75,0.772,0.569,18.13,-17.67,12.94,4,6
19069.953,0.871,0.748,0.565,15.32,-22.34,22.68,4,6
19069.953,0.992,0.743,0.549,12.85,-26.83,31.92,4,6
19069.968,1.083,0.754,0.511,10.62,-30.67,39.12,4,6
19069.984,1.144,0.76,0.479,10.62,-32.59,42.33,4,6
19069.984,1.163,0.766,0.463,15.93,-32.96,43.28,4,6
19070.0,1.132,0.805,0.441,23.5,-32.72,44.43,4,6
19070.015,1.103,0.857,0.414,26.15,-33.57,47.73,4,6
19070.015,1.082,0.887,0.383,21.18,-33.91,52.4,4,6
19070.031,1.042,0.933,0.383,11.23,-33.42,57.1,4,6
19070.031,0.999,0.947,0.403,-1.04,-34.76,61.59,4,6
19070.046,0.953,0.956,0.439,-10.68,-38.67,64.85,4,6
19070.062,0.905,0.97,0.505,-12.12,-44.74,68.33,4,6
19070.062,0.861,0.974,0.558,-3.45,-53.65,72.24,4,6
19070.078,0.841,0.981,0.567,9.49,-64.33,75.44,4,6
19070.093,0.84,0.988,0.545,21.58,-74.65,75.9,4,6
19070.109,0.831,0.973,0.504,31.1,-82.83,72.12,4,6
19070.109,0.816,0.946,0.475,37.11,-89.18,65.19,4,6
19070.125,0.804,0.919,0.46,42.15,-94.12,55.51,4,6
19070.125,0.728,0.84,0.457,52.83,-97.51,43.67,4,6
19070.14,0.783,0.783,0.477,73.0,-101.69,33.23,4,6
19070.156,0.731,0.839,0.424,101.29,-103.06,9.74,4,6
19070.156,0.654,0.78,0.408,121.01,-99.25,-11.84,4,6
19070.171,0.605,0.748,0.403,138.22,-102.3,-31.01,4,6
19070.171,0.542,0.787,0.354,157.99,-106.42,-54.81,4,6
19070.187,0.48,0.77,0.292,173.83,-109.47,-72.39,4,6
19070.203,0.454,0.795,0.254,185.89,-114.23,-89.33,4,6
19070.203,0.429,0.781,0.201,198.19,-116.18,-104.34,4,6
19070.218,0.387,0.757,0.114,207.62,-115.54,-115.33,4,6
19070.234,0.368,0.742,0.036,210.27,-114.05,-122.59,4,6
19070.234,0.346,0.727,-0.034,207.43,-108.58,-124.18,4,6
19070.265,0.327,0.712,-0.13,185.92,-90.91,-115.42,4,6
19070.265,0.316,0.721,-0.188,171.7,-81.48,-105.11,4,6
19070.281,0.27,0.72,-0.239,150.06,-72.27,-91.89,4,6
19070.296,0.287,0.725,-0.21,118.56,-57.95,-69.89,4,6
19070.296,0.301,0.816,-0.171,83.99,-51.97,-48.8,4,6
19070.312,0.308,0.811,-0.13,47.21,-48.92,-21.42,4,6
19070.312,0.315,0.801,-0.122,11.23,-47.61,9.31,4,6
19070.328,0.339,0.81,-0.132,-24.69,-45.81,41.54,4,6
19070.343,0.384,0.798,-0.157,-60.79,-44.31,75.72,4,6
19070.343,0.454,0.796,-0.192,-98.82,-40.56,107.03,4,6
19070.359,0.5,0.748,-0.21,-138.55,-31.53,132.24,4,6
19070.375,0.52,0.675,-0.2,-175.82,-17.64,151.8,4,6
19070.375,0.498,0.62,-0.14,-205.39,-2.23,164.56,4,6
19070.39,0.445,0.594,-0.05,-221.38,11.9,168.0,4,6
19070.406,0.371,0.586,0.071,-223.46,21.58,160.71,4,6
19070.406,0.328,0.601,0.152,-212.35,24.23,141.76,4,6
19070.421,0.341,0.621,0.182,-194.52,21.33,114.14,4,6
19070.437,0.374,0.634,0.203,-175.48,16.88,80.84,4,6
19070.437,0.403,0.671,0.24,-151.07,13.06,43.98,4,6
19070.453,0.44,0.73,0.254,-120.06,10.83,7.48,4,6
19070.468,0.481,0.792,0.256,-89.63,10.16,-25.03,4,6
19070.468,0.491,0.857,0.269,-65.52,10.47,-52.67,4,6
19070.484,0.477,0.939,0.291,-49.81,11.17,-73.79,4,6
19070.484,0.408,1.087,0.268,-42.79,14.16,-83.5,4,6
19070.5,0.412,1.202,0.261,-46.97,16.21,-81.27,4,6
19070.515,0.418,1.325,0.253,-56.49,21.03,-71.5,4,6
19070.515,0.414,1.354,0.289,-63.26,27.19,-52.89,4,6
19070.531,0.391,1.32,0.312,-61.43,29.73,-32.11,4,6
19070.546,0.31,1.234,0.294,-54.57,30.06,-12.12,4,6
19070.546,0.273,1.129,0.271,-49.65,26.98,7.2,4,6
19070.562,0.283,1.046,0.23,-44.47,20.2,19.65,4,6
19070.562,0.272,0.949,0.195,-40.47,14.31,25.61,4,6
19070.578,0.279,0.857,0.236,-36.04,9.4,28.93,4,6
19070.593,0.301,0.79,0.276,-22.68,2.56,30.73,4,6
19070.593,0.319,0.762,0.226,-4.76,-4.27,32.32,4,6
19070.609,0.372,0.759,0.19,5.62,-6.81,34.73,4,6
19070.625,0.4,0.721,0.208,11.2,-6.5,34.73,4,6
19070.625,0.369,0.633,0.214,17.46,-6.74,31.74,4,6
19070.64,0.367,0.561,0.236,24.29,-9.0,29.33,4,6
19070.64,0.38,0.538,0.232,34.18,-13.25,25.88,4,6
19070.656,0.381,0.525,0.212,40.62,-19.2,20.69,4,6
19070.671,0.387,0.495,0.191,40.19,-25.12,14.1,4,6
19070.687,0.429,0.48,0.156,35.95,-29.91,7.32,4,6
19070.687,0.474,0.485,0.132,29.82,-32.5,0.64,4,6
19070.703,0.499,0.456,0.123,28.66,-30.52,-13.31,4,6
19070.718,0.516,0.428,0.132,37.57,-29.3,-18.92,4,6
19070.718,0.525,0.433,0.122,45.84,-27.47,-25.54,4,6
19070.734,0.559,0.479,0.107,46.27,-24.81,-31.1,4,6
19070.734,0.585,0.529,0.114,37.63,-22.43,-34.91,4,6
19070.75,0.607,0.557,0.136,26.0,-20.66,-38.12,4,6
19070.765,0.642,0.557,0.147,18.1,-20.57,-39.28,4,6
19070.765,0.666,0.59,0.138,15.5,-21.12,-37.2,4,6
19070.781,0.659,0.591,0.103,15.56,-22.37,-30.88,4,6
19070.796,0.665,0.591,0.076,13.18,-22.25,-19.47,4,6
19070.796,0.704,0.612,0.047,5.34,-17.09,-6.71,4,6
19070.812,0.773,0.628,0.052,-11.14,-7.32,5.16,4,6
19070.812,0.841,0.637,0.076,-31.37,4.36,14.31,4,6
19070.828,0.854,0.628,0.12,-48.8,13.67,19.93,4,6
19070.843,0.831,0.608,0.183,-58.87,17.61,23.26,4,6
19070.859,0.813,0.603,0.229,-61.16,14.59,24.72,4,6
19070.859,0.777,0.571,0.25,-58.05,4.61,24.23,4,6
19070.875,0.729,0.52,0.254,-50.45,-7.66,23.83,4,6
19070.875,0.691,0.507,0.243,-43.52,-18.4,22.03,4,6
19070.89,0.68,0.502,0.222,-39.77,-28.29,17.3,4,6
19070.906,0.691,0.517,0.198,-38.36,-35.8,9.03,4,6
19070.906,0.689,0.548,0.174,-37.32,-39.8,-3.11,4,6
19070.921,0.648,0.562,0.161,-35.07,-42.48,-17.21,4,6
19070.921,0.594,0.547,0.149,-29.82,-46.94,-31.04,4,6
19070.937,0.534,0.524,0.126,-20.91,-53.9,-44.01,4,6
19070.953,0.516,0.511,0.076,-10.47,-63.51,-55.67,4,6
19070.953,0.514,0.568,0.027,-4.06,-71.5,-69.03,4,6
19070.968,0.477,0.631,0.004,-4.52,-75.96,-84.72,4,6
19070.984,0.437,0.66,-0.006,-7.69,-78.65,-98.36,4,6
19070.984,0.378,0.663,-0.006,-4.24,-77.15,-106.48,4,6
19071.0,0.316,0.698,-0.032,3.33,-71.87,-106.39,4,6
19071.015,0.331,0.755,-0.088,2.04,-68.88,-99.77,4,6
19071.015,0.419,0.825,-0.103,-8.36,-64.73,-93.66,4,6
19071.031,0.471,0.897,-0.065,-20.14,-57.65,-91.53,4,6
19071.031,0.479,0.882,0.006,-23.16,-46.14,-93.39,4,6
19071.046,0.361,0.855,0.055,-11.9,-35.19,-99.15,4,6
19071.062,0.266,0.88,0.102,-0.98,-31.92,-102.66,4,6
19071.078,0.192,0.897,0.12,7.66,-32.9,-101.93,4,6
19071.078,0.152,0.888,0.095,11.78,-36.99,-97.69,4,6
19071.093,0.201,0.913,0.031,6.87,-42.33,-90.58,4,6
19071.093,0.288,0.953,-0.037,-3.63,-42.91,-82.89,4,6
19071.109,0.354,0.965,-0.076,-12.76,-35.89,-77.36,4,6
19071.125,0.366,0.946,-0.09,-14.86,-23.16,-73.95,4,6
19071.125,0.353,0.915,-0.088,-8.21,-8.36,-69.28,4,6
19071.14,0.317,0.884,-0.138,4.09,4.97,-62.62,4,6
19071.156,0.312,0.916,-0.216,10.22,17.52,-57.59,4,6
19071.156,0.333,1.026,-0.191,5.25,30.06,-58.81,4,6
19071.171,0.295,1.063,-0.09,2.78,39.25,-69.37,4,6
19071.171,0.213,1.037,0.0,12.85,44.5,-81.48,4,6
19071.187,0.089,1.041,0.066,34.49,45.08,-86.06,4,6
19071.203,0.003,1.014,0.071,63.08,38.64,-79.32,4,6
19071.203,0.025,0.984,0.0,85.79,28.99,-64.94,4,6
19071.218,0.147,0.996,-0.055,93.54,21.97,-50.57,4,6
19071.234,0.235,1.025,-0.071,94.21,20.81,-41.75,4,6
19071.25,0.234,1.048,-0.11,93.75,23.68,-39.06,4,6
19071.25,0.195,1.039,-0.122,97.84,27.13,-36.35,4,6
19071.265,0.139,1.037,-0.147,110.02,29.73,-32.81,4,6
19071.265,0.109,1.068,-0.191,118.56,30.64,-26.92,4,6
19071.281,0.108,1.03,-0.239,118.96,30.4,-19.5,4,6
19071.281,0.178,1.08,-0.237,105.47,30.34,-11.54,4,6
19071.296,0.233,1.069,-0.222,97.35,36.53,-3.78,4,6
19071.312,0.185,1.041,-0.223,90.67,44.86,1.92,4,6
19071.312,0.157,1.11,-0.174,76.91,51.39,3.57,4,6
19071.328,0.118,1.12,-0.125,59.6,50.9,1.89,4,6
19071.343,0.127,1.086,-0.071,40.68,41.69,1.53,4,6
19071.343,0.159,1.06,-0.05,24.02,29.54,2.96,4,6
19071.359,0.214,1.04,-0.074,7.2,17.67,4.91,4,6
19071.375,0.274,1.012,-0.08,-11.47,10.74,7.45,4,6
19071.375,0.285,0.962,-0.047,-24.08,8.94,8.61,4,6
19071.39,0.289,0.93,-0.007,-24.02,8.45,11.63,4,6
19071.406,0.293,0.937,-0.021,-14.25,6.9,15.29,4,6
19071.406,0.303,0.927,-0.016,-5.04,4.43,15.41,4,6
19071.421,0.315,0.916,0.004,2.41,0.85,12.57,4,6
19071.421,0.323,0.926,0.001,7.72,-3.39,8.51,4,6
19071.437,0.34,0.927,-0.013,10.25,-7.42,4.55,4,6
19071.453,0.356,0.928,-0.017,11.51,-9.22,1.5,4,6
19071.453,0.358,0.937,-0.032,12.15,-10.13,-1.4,4,6
19071.468,0.35,0.951,-0.042,10.77,-10.44,-4.39,4,6
19071.484,0.336,0.953,-0.042,10.44,-10.65,-6.47,4,6
19071.484,0.323,0.963,-0.037,12.02,-10.77,-6.47,4,6
19071.5,0.331,0.974,-0.042,15.11,-11.05,-5.13,4,6
19071.515,0.346,0.989,-0.05,17.79,-10.38,-3.63,4,6
19071.515,0.318,0.984,-0.049,17.85,-9.61,-2.72,4,6
19071.531,0.29,0.972,-0.056,16.05,-10.01,-0.34,4,6
19071.531,0.277,0.963,-0.057,13.67,-11.26,3.48,4,6
19071.546,0.278,0.946,-0.071,11.44,-12.67,8.18,4,6
19071.562,0.285,0.934,-0.094,9.49,-13.43,12.54,4,6
19071.578,0.299,0.922,-0.122,6.5,-12.67,15.87,4,6
19071.578,0.308,0.913,-0.139,2.75,-10.04,17.7,4,6
19071.593,0.311,0.899,-0.14,0.12,-6.41,18.16,4,6
19071.593,0.312,0.882,-0.15,-1.65,-2.2,18.31,4,6
19071.609,0.317,0.878,-0.144,-2.41,2.87,19.2,4,6
19071.625,0.314,0.882,-0.142,-2.9,7.35,19.04,4,6
19071.625,0.308,0.887,-0.117,-5.19,10.44,17.76,4,6
19071.64,0.303,0.893,-0.076,-6.84,11.2,15.56,4,6
19071.656,0.299,0.894,-0.061,-6.07,9.25,13.31,4,6
19071.656,0.319,0.886,-0.067,-3.05,6.1,12.21,4,6
19071.671,0.342,0.877,-0.081,1.01,4.09,11.63,4,6
19071.687,0.354,0.868,-0.098,6.26,4.46,10.13,4,6
19071.687,0.371,0.87,-0.126,5.22,6.26,7.97,4,6
19071.703,0.389,0.866,-0.146,4.39,9.49,4.18,4,6
19071.718,0.376,0.867,-0.141,4.85,10.62,0.7,4,6
19071.718,0.34,0.892,-0.093,8.27,8.88,-0.85,4,6
19071.734,0.343,0.907,-0.109,14.22,6.78,-1.77,4,6
19071.734,0.323,0.935,-0.106,17.49,5.16,-2.66,4,6
19071.75,0.316,0.949,-0.103,15.72,2.11,-2.69,4,6
19071.765,0.321,0.946,-0.111,12.02,-1.1,-1.65,4,6
19071.765,0.317,0.948,-0.126,9.92,-3.2,0.03,4,6
19071.781,0.323,0.949,-0.151,8.64,-4.24,2.5,4,6
19071.781,0.339,0.939,-0.182,6.84,-3.39,4.73,4,6
19071.796,0.336,0.927,-0.203,3.88,-0.49,6.74,4,6
19071.812,0.328,0.917,-0.198,0.61,3.08,8.55,4,6
19071.812,0.316,0.908,-0.179,-2.08,5.4,9.95,4,6
19071.828,0.318,0.897,-0.144,-4.61,5.8,10.93,4,6
19071.843,0.326,0.886,-0.12,-4.58,4.67,11.9,4,6
19071.843,0.33,0.874,-0.115,-1.68,2.78,13.21,4,6
19071.859,0.345,0.871,-0.13,0.34,0.49,14.62,4,6
19071.875,0.353,0.856,-0.152,-0.67,-0.92,15.29,4,6
19071.875,0.351,0.826,-0.162,-1.71,-0.55,16.14,4,6
19071.89,0.348,0.818,-0.184,-0.76,0.61,16.6,4,6
19071.89,0.341,0.819,-0.204,-0.24,2.53,15.66,4,6
19071.906,0.329,0.81,-0.206,-1.77,5.28,13.49,4,6
19071.921,0.32,0.811,-0.199,-2.26,8.33,11.02,4,6
19071.937,0.306,0.819,-0.183,-0.76,11.26,8.42,4,6
19071.937,0.29,0.831,-0.156,-0.43,13.37,6.9,4,6
19071.953,0.276,0.844,-0.13,-3.6,12.97,6.62,4,6
19071.953,0.288,0.841,-0.116,-7.93,10.47,7.48,4,6
19071.968,0.328,0.832,-0.108,-10.1,8.21,8.94,4,6
19071.984,0.367,0.845,-0.105,-9.77,7.29,10.07,4,6
19071.984,0.402,0.86,-0.111,-8.12,7.14,9.64,4,6
19072.0,0.413,0.865,-0.115,-6.26,7.6,7.48,4,6
19072.015,0.414,0.862,-0.114,-4.0,9.03,4.24,4,6
19072.015,0.402,0.877,-0.11,-1.65,10.86,0.58,4,6
19072.031,0.392,0.887,-0.105,-0.4,11.78,-3.02,4,6
19072.031,0.379,0.891,-0.094,0.46,11.75,-5.89,4,6
19072.046,0.37,0.906,-0.084,1.4,10.74,-7.75,4,6
19072.062,0.372,0.923,-0.088,0.79,8.55,-8.82,4,6
19072.062,0.385,0.939,-0.084,-1.19,6.35,-9.03,4,6
19072.078,0.379,0.949,-0.073,-1.43,4.94,-8.7,4,6
19072.093,0.363,0.946,-0.076,1.07,4.06,-7.45,4,6
19072.093,0.349,0.948,-0.087,3.11,3.88,-5.25,4,6
19072.109,0.334,0.945,-0.096,3.05,3.69,-2.41,4,6
19072.125,0.318,0.947,-0.085,0.58,2.84,1.28,4,6
19072.125,0.321,0.928,-0.091,-2.44,0.61,5.01,4,6
19072.14,0.34,0.9,-0.099,-4.64,-1.95,8.3,4,6
19072.14,0.347,0.885,-0.115,-4.21,-3.54,10.59,4,6
19072.156,0.353,0.876,-0.135,-1.53,-3.63,11.84,4,6
19072.171,0.335,0.865,-0.151,0.31,-2.35,11.75,4,6
19072.171,0.326,0.852,-0.168,0.4,-0.46,11.02,4,6
19072.187,0.307,0.848,-0.161,-0.24,2.01,9.77,4,6
19072.203,0.3,0.85,-0.151,0.06,4.58,8.88,4,6
19072.203,0.289,0.862,-0.144,-0.55,7.45,7.78,4,6
19072.218,0.275,0.877,-0.131,-3.2,10.04,6.47,4,6
19072.234,0.247,0.898,-0.113,-7.26,12.18,4.64,4,6
19072.234,0.224,0.91,-0.111,-10.22,11.47,2.11,4,6
19072.25,0.237,0.912,-0.122,-8.76,7.54,-0.61,4,6
19072.265,0.267,0.923,-0.139,-2.14,3.3,-3.33,4,6
19072.265,0.319,0.941,-0.164,4.7,1.07,-5.65,4,6
19072.281,0.355,0.949,-0.181,8.88,1.98,-7.45,4,6
19072.281,0.371,0.952,-0.181,9.37,4.7,-8.18,4,6
19072.296,0.368,0.934,-0.164,7.23,7.45,-7.72,4,6
19072.312,0.371,0.905,-0.135,5.89,8.85,-6.81,4,6
19072.312,0.373,0.909,-0.12,5.95,8.06,-7.02,4,6
19072.328,0.396,0.905,-0.113,6.2,5.04,-9.03,4,6
19072.343,0.412,0.892,-0.11,7.75,2.29,-11.38,4,6
19072.343,0.424,0.894,-0.122,10.96,-0.21,-13.0,4,6
19072.359,0.433,0.904,-0.137,13.86,-2.44,-13.98,4,6
19072.375,0.433,0.905,-0.156,14.59,-3.75,-14.59,4,6
19072.375,0.43,0.9,-0.171,13.95,-4.33,-14.44,4,6
19072.39,0.422,0.896,-0.187,14.1,-4.43,-13.64,4,6
19072.39,0.413,0.893,-0.198,14.04,-4.0,-12.02,4,6
19072.406,0.393,0.891,-0.204,12.7,-3.27,-9.89,4,6
19072.421,0.37,0.869,-0.213,10.07,-2.66,-6.35,4,6
19072.421,0.379,0.848,-0.219,6.29,-1.59,-0.61,4,6
19072.437,0.389,0.833,-0.214,1.13,1.19,5.28,4,6
19072.453,0.376,0.802,-0.198,-5.49,4.79,10.25,4,6
19072.453,0.36,0.767,-0.168,-12.88,7.57,15.23,4,6
19072.468,0.343,0.741,-0.139,-19.44,9.06,18.98,4,6
19072.484,0.311,0.716,-0.116,-24.45,9.09,21.61,4,6
19072.5,0.282,0.688,-0.109,-27.25,7.39,23.38,4,6
19072.5,0.275,0.662,-0.116,-28.6,4.76,23.93,4,6
19072.515,0.277,0.638,-0.123,-29.02,3.08,22.71,4,6
19072.515,0.268,0.622,-0.131,-28.11,2.59,19.44,4,6
19072.531,0.235,0.622,-0.15,-27.31,3.57,15.41,4,6
19072.546,0.181,0.648,-0.174,-31.07,5.1,13.49,4,6
19072.546,0.184,0.678,-0.179,-39.92,5.83,14.59,4,6
19072.562,0.242,0.727,-0.163,-50.48,7.54,16.82,4,6
19072.562,0.28,0.764,-0.132,-58.96,10.59,18.37,4,6
19072.578,0.285,0.782,-0.084,-62.44,13.52,19.93,4,6
19072.593,0.257,0.769,-0.034,-58.9,14.37,20.6,4,6
19072.593,0.242,0.746,-0.019,-50.54,12.12,20.29,4,6
19072.609,0.261,0.736,-0.027,-42.76,7.97,18.95,4,6
19072.625,0.312,0.717,-0.039,-37.35,3.39,15.63,4,6
19072.625,0.374,0.724,-0.056,-33.91,0.67,10.25,4,6
19072.64,0.41,0.73,-0.071,-31.25,1.4,2.66,4,6
19072.64,0.408,0.723,-0.068,-28.78,4.55,-5.16,4,6
19072.656,0.393,0.74,-0.044,-26.49,7.87,-11.23,4,6
19072.671,0.387,0.748,-0.03,-26.25,12.39,-19.96,4,6
19072.671,0.387,0.759,-0.021,-28.5,14.1,-24.23,4,6
19072.687,0.384,0.768,0.004,-29.91,14.86,-28.29,4,6
19072.703,0.382,0.811,0.074,-28.81,14.56,-32.65,4,6
19072.718,0.352,0.833,0.102,-25.48,12.88,-37.6,4,6
19072.718,0.331,0.845,0.119,-20.91,9.06,-42.54,4,6
19072.734,0.309,0.861,0.114,-15.63,3.69,-46.54,4,6
19072.734,0.318,0.883,0.099,-12.24,-1.62,-49.56,4,6
19072.75,0.331,0.902,0.073,-10.71,-5.8,-52.0,4,6
19072.765,0.334,0.925,0.052,-9.83,-7.35,-53.19,4,6
19072.765,0.333,0.949,0.04,-9.09,-5.92,-53.74,4,6
19072.781,0.293,0.954,0.024,-9.13,-2.72,-54.26,4,6
19072.781,0.24,0.941,0.028,-10.65,0.4,-53.35,4,6
19072.796,0.216,0.932,0.032,-11.87,2.44,-51.15,4,6
19072.812,0.234,0.942,0.015,-15.05,3.14,-47.52,4,6
19072.812,0.302,0.991,0.033,-21.94,3.48,-45.44,4,6
19072.828,0.308,1.037,0.074,-27.07,5.22,-47.52,4,6
19072.843,0.267,1.053,0.109,-27.28,6.65,-49.44,4,6
19072.843,0.212,1.062,0.12,-23.44,5.55,-49.56,4,6
19072.859,0.179,1.065,0.115,-18.16,2.11,-47.4,4,6
19072.875,0.18,1.063,0.095,-14.19,-2.17,-43.31,4,6
19072.875,0.226,1.051,0.08,-13.98,-5.68,-38.67,4,6
19072.89,0.249,1.053,0.073,-14.74,-5.83,-36.19,4,6
19072.906,0.239,1.04,0.083,-14.95,-3.72,-34.67,4,6
19072.906,0.202,1.015,0.086,-14.22,-1.04,-32.59,4,6
19072.921,0.174,0.994,0.083,-14.01,0.52,-29.18,4,6
19072.921,0.171,0.97,0.083,-15.72,0.98,-25.85,4,6
19072.937,0.199,0.946,0.068,-19.01,1.71,-22.74,4,6
19072.953,0.246,0.943,0.063,-24.11,3.36,-19.87,4,6
19072.968,0.278,0.945,0.087,-29.6,4.76,-18.31,4,6
19072.968,0.279,0.937,0.116,-30.43,5.95,-19.1,4,6
19072.984,0.237,0.922,0.134,-26.12,7.57,-19.68,4,6
19072.984,0.199,0.911,0.136,-21.12,8.06,-18.01,4,6
19073.0,0.192,0.913,0.141,-20.97,7.51,-14.62,4,6
19073.015,0.193,0.912,0.165,-26.22,7.11,-10.5,4,6
19073.015,0.193,0.9,0.184,-33.42,7.45,-5.25,4,6
19073.031,0.197,0.897,0.201,-41.32,7.26,1.04,4,6
19073.031,0.207,0.898,0.212,-48.37,6.56,6.32,4,6
19073.046,0.207,0.882,0.214,-53.8,6.56,9.19,4,6
19073.062,0.191,0.844,0.22,-55.88,7.48,10.28,4,6
19073.062,0.172,0.807,0.222,-53.99,9.09,10.47,4,6
19073.078,0.159,0.782,0.22,-50.29,11.6,9.28,4,6
19073.093,0.134,0.75,0.234,-47.58,14.31,8.55,4,6
19073.093,0.162,0.727,0.238,-47.7,15.38,10.32,4,6
19073.109,0.226,0.759,0.27,-52.34,16.36,10.77,4,6
19073.125,0.262,0.777,0.317,-58.32,19.29,8.94,4,6
19073.125,0.226,0.798,0.396,-64.76,21.39,5.1,4,6
19073.14,0.152,0.794,0.452,-67.29,18.37,0.76,4,6
19073.156,0.115,0.794,0.449,-66.62,9.92,-2.62,4,6
19073.156,0.148,0.806,0.424,-64.58,-0.89,-6.26,4,6
19073.171,0.203,0.831,0.386,-61.22,-9.25,-11.32,4,6
19073.171,0.232,0.834,0.365,-57.28,-12.48,-17.76,4,6
19073.187,0.235,0.84,0.345,-51.73,-12.36,-24.69,4,6
19073.203,0.194,0.86,0.331,-44.34,-10.8,-33.11,4,6
19073.203,0.134,0.872,0.324,-36.5,-9.13,-42.09,4,6
19073.218,0.083,0.895,0.323,-31.95,-8.97,-50.39,4,6
19073.234,0.053,0.913,0.326,-29.39,-10.65,-56.95,4,6
19073.25,0.064,0.928,0.313,-27.28,-12.76,-59.24,4,6
19073.25,0.094,0.974,0.307,-27.99,-13.79,-57.77,4,6
19073.265,0.094,1.031,0.29,-31.86,-11.93,-53.9,4,6
19073.265,0.093,1.062,0.292,-40.68,-8.88,-48.01,4,6
19073.281,0.086,1.078,0.31,-49.1,-5.58,-42.63,4,6
19073.296,0.064,1.08,0.34,-51.73,-2.62,-39.09,4,6
19073.296,0.024,1.071,0.358,-48.13,-1.1,-37.23,4,6
19073.312,0.014,1.053,0.34,-41.08,-1.25,-35.58,4,6
19073.312,0.036,1.045,0.321,-36.44,-1.28,-33.17,4,6
19073.328,0.043,1.033,0.315,-36.01,0.95,-30.73,4,6
19073.343,0.039,1.014,0.326,-38.58,5.13,-27.95,4,6
19073.343,0.031,1.003,0.345,-41.84,9.52,-24.72,4,6
19073.359,0.003,1.015,0.377,-45.66,13.52,-21.06,4,6
19073.375,-0.02,1.013,0.416,-50.78,15.72,-16.94,4,6
19073.375,-0.034,0.993,0.453,-53.62,16.48,-13.37,4,6
19073.39,-0.061,0.973,0.479,-52.28,15.81,-9.43,4,6
19073.39,-0.067,0.962,0.477,-48.52,12.63,-4.82,4,6
19073.406,-0.04,0.961,0.453,-46.33,9.06,-0.49,4,6
19073.421,0.008,0.96,0.455,-46.6,7.02,1.04,4,6
19073.421,0.006,0.942,0.473,-44.16,7.45,-0.52,4,6
19073.437,-0.018,0.921,0.467,-37.32,8.15,-2.87,4,6
19073.453,-0.024,0.902,0.45,-29.57,8.27,-5.77,4,6
19073.453,-0.006,0.89,0.432,-24.05,8.06,-9.43,4,6
19073.468,0.015,0.893,0.415,-22.25,8.67,-12.73,4,6
19073.484,0.036,0.911,0.437,-25.42,10.32,-15.08,4,6
19073.484,0.044,0.933,0.485,-30.76,12.36,-17.3,4,6
19073.5,0.011,0.948,0.52,-32.99,14.04,-18.04,4,6
19073.515,-0.029,0.949,0.533,-33.78,13.43,-16.14,4,6
19073.515,-0.028,0.942,0.537,-35.22,10.44,-13.09,4,6
19073.531,-0.024,0.922,0.527,-35.43,7.17,-10.13,4,6
19073.531,0.008,0.903,0.509,-34.46,4.55,-7.93,4,6
19073.546,0.041,0.892,0.491,-31.95,4.67,-8.09,4,6
19073.562,0.043,0.879,0.483,-29.18,6.93,-10.28,4,6
19073.578,0.027,0.876,0.499,-27.16,9.34,-13.79,4,6
19073.578,0.018,0.871,0.521,-23.32,11.08,-18.98,4,6
19073.593,-0.016,0.856,0.519,-18.77,11.81,-22.95,4,6
19073.593,-0.014,0.851,0.531,-17.67,10.74,-23.96,4,6
19073.609,-0.003,0.848,0.544,-18.74,9.95,-23.19,4,6
19073.625,-0.01,0.836,0.542,-21.24,9.74,-22.16,4,6
19073.625,-0.001,0.82,0.548,-24.69,10.01,-20.48,4,6
19073.64,0.011,0.817,0.557,-28.29,10.65,-19.01,4,6
19073.656,0.002,0.81,0.559,-32.65,12.09,-18.37,4,6
19073.656,-0.014,0.797,0.557,-33.72,10.68,-17.94,4,6
19073.671,0.014,0.811,0.548,-35.28,11.38,-19.75,4,6
19073.671,0.034,0.827,0.561,-34.97,12.67,-21.91,4,6
19073.687,0.001,0.828,0.615,-31.04,12.94,-24.54,4,6
19073.703,-0.04,0.845,0.627,-24.54,12.02,-27.56,4,6
19073.703,-0.066,0.865,0.635,-19.78,8.91,-30.76,4,6
19073.718,-0.08,0.88,0.625,-16.42,4.7,-32.75,4,6
19073.734,-0.069,0.893,0.613,-14.47,0.95,-31.65,4,6
19073.75,-0.05,0.909,0.596,-14.31,-0.58,-29.33,4,6
19073.75,-0.05,0.918,0.579,-15.5,0.37,-27.68,4,6
19073.765,-0.059,0.92,0.582,-17.15,2.29,-26.03,4,6
19073.765,-0.073,0.907,0.588,-17.0,4.46,-24.63,4,6
19073.781,-0.095,0.892,0.59,-15.14,5.65,-23.13,4,6
19073.781,-0.105,0.891,0.602,-13.43,5.92,-21.0,4,6
19073.796,-0.107,0.879,0.609,-12.76,5.52,-18.25,4,6
19073.812,-0.099,0.864,0.612,-13.28,4.36,-14.28,4,6
19073.812,-0.083,0.868,0.622,-13.92,3.94,-11.05,4,6
19073.828,-0.081,0.853,0.625,-14.22,4.3,-9.31,4,6
19073.843,-0.094,0.836,0.629,-15.2,4.03,-9.0,4,6
19073.843,-0.109,0.81,0.624,-14.62,3.2,-9.46,4,6
19073.859,-0.117,0.784,0.618,-11.54,2.38,-9.7,4,6
19073.875,-0.12,0.763,0.61,-7.63,2.11,-9.74,4,6
19073.875,-0.129,0.744,0.595,-4.24,3.39,-10.19,4,6
19073.89,-0.144,0.721,0.581,-3.02,6.1,-10.38,4,6
19073.89,-0.151,0.697,0.601,-4.88,8.97,-10.74,4,6
19073.906,-0.153,0.68,0.619,-7.14,10.28,-11.66,4,6
19073.921,-0.155,0.666,0.634,-7.66,10.96,-12.57,4,6
19073.921,-0.148,0.654,0.645,-7.81,10.8,-13.61,4,6
19073.937,-0.138,0.647,0.663,-8.33,9.58,-15.87,4,6
19073.953,-0.141,0.64,0.682,-7.39,8.18,-19.68,4,6
19073.953,-0.165,0.633,0.687,-5.43,6.35,-23.71,4,6
19073.968,-0.192,0.631,0.691,-3.88,3.69,-27.07,4,6
19073.984,-0.203,0.622,0.685,-1.74,0.21,-30.0,4,6
19073.984,-0.209,0.633,0.683,0.0,-3.08,-33.33,4,6
19074.0,-0.224,0.638,0.669,1.43,-5.98,-35.83,4,6
19074.015,-0.22,0.638,0.655,0.27,-8.55,-35.58,4,6
19074.015,-0.203,0.638,0.642,-3.02,-9.09,-33.94,4,6
19074.031,-0.189,0.634,0.638,-7.54,-7.29,-31.98,4,6
19074.031,-0.195,0.634,0.651,-12.57,-3.91,-29.76,4,6
19074.046,-0.201,0.645,0.676,-17.7,-0.76,-26.46,4,6
19074.062,-0.199,0.659,0.709,-23.44,0.15,-22.71,4,6
19074.062,-0.194,0.661,0.718,-28.41,-0.98,-19.81,4,6
19074.078,-0.177,0.652,0.706,-33.36,-3.2,-17.61,4,6
19074.093,-0.155,0.641,0.7,-37.69,-5.25,-17.46,4,6
19074.109,-0.136,0.615,0.683,-38.39,-5.62,-19.41,4,6
19074.109,-0.137,0.605,0.676,-36.38,-4.58,-23.38,4,6
19074.125,-0.154,0.618,0.682,-33.23,-2.81,-28.38,4,6
19074.125,-0.171,0.636,0.7,-31.01,-1.71,-32.62,4,6
19074.14,-0.185,0.649,0.71,-30.3,-1.95,-35.74,4,6
19074.156,-0.189,0.664,0.702,-31.1,-2.69,-37.51,4,6
19074.156,-0.193,0.681,0.702,-32.07,-2.66,-38.67,4,6
19074.171,-0.199,0.694,0.703,-33.3,-2.29,-39.31,4,6
19074.171,-0.204,0.715,0.711,-36.68,-2.01,-39.09,4,6
19074.187,-0.207,0.703,0.706,-39.92,-1.95,-38.79,4,6
19074.203,-0.214,0.695,0.698,-41.38,-0.64,-38.61,4,6
19074.203,-0.221,0.696,0.688,-40.22,2.23,-38.18,4,6
19074.218,-0.233,0.703,0.683,-38.64,6.07,-37.81,4,6
19074.234,-0.252,0.718,0.684,-38.09,9.92,-37.54,4,6
19074.234,-0.272,0.723,0.69,-40.01,13.25,-36.29,4,6
19074.25,-0.27,0.72,0.691,-43.12,16.39,-34.42,4,6
19074.265,-0.264,0.712,0.703,-45.26,19.53,-32.84,4,6
19074.265,-0.266,0.691,0.724,-45.01,21.73,-32.62,4,6
19074.281,-0.278,0.695,0.749,-45.01,22.55,-33.6,4,6
19074.281,-0.291,0.689,0.765,-45.2,22.31,-35.0,4,6
19074.296,-0.296,0.676,0.777,-43.92,21.21,-36.9,4,6
19074.312,-0.297,0.671,0.782,-40.56,19.9,-39.25,4,6
19074.328,-0.294,0.678,0.783,-35.65,17.98,-41.41,4,6
19074.328,-0.287,0.687,0.76,-31.13,16.21,-42.18,4,6
19074.343,-0.281,0.695,0.747,-29.48,15.78,-42.12,4,6
19074.343,-0.278,0.684,0.743,-29.39,16.36,-40.83,4,6
19074.359,-0.281,0.678,0.745,-29.73,17.73,-38.51,4,6
19074.375,-0.287,0.682,0.78,-29.97,19.23,-35.28,4,6
19074.375,-0.303,0.683,0.811,-29.82,19.65,-31.34,4,6
19074.39,-0.31,0.678,0.824,-31.07,17.85,-26.22,4,6
19074.406,-0.305,0.662,0.821,-33.75,15.02,-21.09,4,6
19074.406,-0.293,0.633,0.809,-36.41,12.42,-16.69,4,6
19074.421,-0.29,0.612,0.799,-38.24,11.54,-13.55,4,6
19074.421,-0.298,0.591,0.789,-39.55,12.12,-11.32,4,6
19074.437,-0.312,0.572,0.776,-40.35,13.64,-9.77,4,6
19074.453,-0.326,0.546,0.773,-40.77,15.29,-8.79,4,6
19074.453,-0.349,0.534,0.789,-40.86,17.52,-8.24,4,6
19074.468,-0.366,0.532,0.811,-40.16,19.1,-8.09,4,6
19074.484,-0.353,0.574,0.841,-41.11,22.16,-11.96,4,6
19074.5,-0.457,0.498,0.864,-41.02,23.19,-13.12,4,6
19074.5,-0.469,0.453,0.878,-36.9,11.6,-7.75,4,6
19074.515,-0.396,0.521,0.841,-29.33,1.86,-7.14,4,6
19074.515,-0.387,0.526,0.773,-28.32,0.4,-10.16,4,6
19074.531,-0.368,0.495,0.749,-35.95,0.15,-14.44,4,6
19074.546,-0.358,0.465,0.741,-40.44,0.49,-18.28,4,6
19074.546,-0.346,0.47,0.738,-38.61,2.96,-22.55,4,6
19074.562,-0.357,0.46,0.746,-34.18,6.96,-26.64,4,6
19074.562,-0.383,0.463,0.758,-30.34,9.8,-30.12,4,6
19074.578,-0.391,0.475,0.77,-29.3,8.67,-31.77,4,6
19074.593,-0.357,0.499,0.789,-29.94,8.55,-34.97,4,6
19074.593,-0.375,0.472,0.801,-30.61,11.96,-38.48,4,6
19074.609,-0.403,0.455,0.819,-31.07,12.24,-39.22,4,6
19074.625,-0.413,0.461,0.831,-29.42,10.1,-37.93,4,6
19074.625,-0.411,0.473,0.824,-31.74,7.48,-35.37,4,6
19074.64,-0.415,0.476,0.815,-35.46,7.6,-34.42,4,6
19074.656,-0.423,0.466,0.803,-38.61,8.3,-33.17,4,6
19074.656,-0.42,0.452,0.791,-39.0,9.8,-31.34,4,6
19074.671,-0.422,0.419,0.773,-35.19,12.15,-31.13,4,6
19074.671,-0.428,0.441,0.769,-32.14,17.94,-34.0,4,6
19074.687,-0.449,0.407,0.765,-32.2,22.0,-35.31,4,6
19074.703,-0.443,0.417,0.763,-33.78,24.99,-36.77,4,6
19074.718,-0.456,0.392,0.757,-35.34,28.81,-39.74,4,6
19074.718,-0.45,0.379,0.729,-37.14,34.15,-44.01,4,6
19074.734,-0.432,0.416,0.717,-40.16,42.6,-48.92,4,6
19074.734,-0.443,0.407,0.722,-40.77,53.19,-57.16,4,6
19074.75,-0.454,0.409,0.708,-38.36,61.68,-65.07,4,6
19074.765,-0.452,0.448,0.77,-32.47,70.16,-70.8,4,6
19074.765,-0.503,0.485,0.889,-18.13,73.12,-71.63,4,6
19074.781,-0.513,0.524,0.945,1.07,65.37,-65.03,4,6
19074.796,-0.512,0.567,0.996,12.39,55.21,-54.57,4,6
19074.796,-0.488,0.504,1.007,16.3,42.91,-42.45,4,6
19074.812,-0.491,0.422,0.951,11.02,34.82,-28.38,4,6
19074.812,-0.508,0.334,0.861,-2.14,29.08,-16.69,4,6
19074.828,-0.496,0.242,0.781,-13.7,27.25,-11.32,4,6
19074.843,-0.517,0.213,0.709,-20.02,28.81,-11.84,4,6
19074.843,-0.55,0.212,0.672,-23.83,32.47,-16.82,4,6
19074.859,-0.586,0.212,0.71,-22.74,35.95,-23.87,4,6
19074.875,-0.639,0.239,0.78,-12.39,35.19,-28.5,4,6
19074.875,-0.616,0.249,0.866,4.03,28.44,-30.67,4,6
19074.89,-0.605,0.263,0.907,17.82,21.76,-31.89,4,6
19074.906,-0.634,0.251,0.901,22.98,14.77,-32.84,4,6
19074.906,-0.656,0.197,0.88,21.82,5.71,-33.88,4,6
19074.921,-0.646,0.148,0.844,18.8,-3.27,-35.43,4,6
19074.921,-0.62,0.128,0.812,16.17,-9.77,-41.05,4,6
19074.937,-0.595,0.107,0.789,17.4,-13.34,-52.58,4,6
19074.953,-0.558,0.095,0.813,25.24,-16.05,-67.29,4,6
19074.968,-0.567,0.137,0.819,38.58,-18.28,-83.04,4,6
19074.968,-0.609,0.148,0.804,51.18,-21.64,-97.38,4,6
19074.984,-0.627,0.169,0.793,59.57,-26.31,-107.27,4,6
19074.984,-0.645,0.232,0.775,63.75,-31.16,-112.8,4,6
19075.0,-0.648,0.288,0.738,63.81,-35.49,-114.47,4,6
19075.015,-0.625,0.335,0.698,60.0,-38.3,-112.58,4,6
19075.015,-0.597,0.373,0.66,55.24,-37.45,-108.37,4,6
19075.031,-0.589,0.388,0.639,51.55,-32.81,-102.85,4,6
19075.031,-0.584,0.4,0.633,49.23,-26.15,-95.28,4,6
19075.046,-0.579,0.423,0.645,47.36,-18.83,-86.21,4,6
19075.062,-0.587,0.44,0.669,45.47,-11.93,-76.45,4,6
19075.078,-0.59,0.44,0.688,41.32,-7.02,-65.8,4,6
19075.078,-0.608,0.442,0.697,32.62,-3.08,-53.32,4,6
19075.093,-0.641,0.423,0.704,20.39,-0.61,-40.8,4,6
19075.093,-0.659,0.403,0.724,7.32,-0.43,-28.72,4,6
19075.109,-0.648,0.377,0.732,-3.91,-1.98,-18.62,4,6
19075.125,-0.625,0.333,0.728,-9.95,-3.6,-12.42,4,6
19075.125,-0.612,0.296,0.713,-9.98,-3.27,-9.13,4,6
19075.14,-0.609,0.261,0.701,-7.39,-2.08,-7.66,4,6
19075.14,-0.609,0.241,0.68,-4.52,0.24,-6.62,4,6
19075.156,-0.606,0.246,0.683,-4.03,3.33,-4.64,4,6
19075.171,-0.621,0.255,0.704,-4.91,6.13,-3.42,4,6
19075.171,-0.643,0.264,0.725,-5.49,7.29,-2.35,4,6
19075.187,-0.637,0.25,0.74,-5.1,5.74,-1.65,4,6
19075.203,-0.619,0.23,0.751,-2.01,2.66,-2.99,4,6
19075.203,-0.604,0.233,0.749,3.78,-0.43,-6.38,4,6
19075.218,-0.597,0.24,0.738,9.61,-2.72,-9.98,4,6
19075.234,-0.598,0.244,0.725,13.31,-3.88,-12.94,4,6
19075.234,-0.588,0.252,0.705,14.92,-4.18,-14.95,4,6
19075.25,-0.593,0.265,0.69,13.76,-2.23,-16.17,4,6
19075.265,-0.608,0.261,0.697,11.02,1.04,-16.51,4,6
19075.265,-0.606,0.255,0.705,8.67,4.18,-15.63,4,6
19075.281,-0.608,0.252,0.721,6.68,7.32,-13.95,4,6
19075.281,-0.628,0.226,0.751,6.99,9.25,-11.81,4,6
19075.296,-0.637,0.242,0.777,9.77,10.19,-8.94,4,6
19075.312,-0.65,0.258,0.788,11.63,10.04,-5.58,4,6
19075.312,-0.654,0.252,0.778,11.23,7.93,-0.98,4,6
19075.328,-0.629,0.264,0.755,6.65,6.07,4.52,4,6
19075.343,-0.605,0.254,0.736,-2.38,6.26,10.25,4,6
19075.343,-0.58,0.224,0.728,-11.81,8.45,15.56,4,6
19075.359,-0.561,0.187,0.727,-17.06,11.78,19.14,4,6
19075.375,-0.553,0.161,0.725,-18.19,15.99,20.63,4,6
19075.375,-0.571,0.144,0.743,-18.4,20.39,19.68,4,6
19075.39,-0.593,0.119,0.772,-16.97,22.31,17.24,4,6
19075.406,-0.606,0.109,0.792,-14.74,21.91,14.65,4,6
19075.406,-0.625,0.104,0.799,-12.6,19.56,11.11,4,6
19075.421,-0.626,0.11,0.789,-11.9,15.53,8.21,4,6
19075.421,-0.625,0.12,0.78,-13.03,11.35,5.55,4,6
19075.437,-0.632,0.127,0.771,-14.19,7.75,3.27,4,6
19075.453,-0.626,0.127,0.764,-15.2,4.0,2.5,4,6
19075.468,-0.607,0.114,0.752,-15.35,1.83,2.32,4,6
19075.468,-0.601,0.087,0.741,-13.18,2.14,1.86,4,6
19075.484,-0.605,0.074,0.732,-10.04,4.0,1.8,4,6
19075.484,-0.624,0.084,0.735,-8.06,5.92,1.34,4,6
19075.5,-0.638,0.088,0.737,-7.32,6.81,0.34,4,6
19075.515,-0.66,0.102,0.75,-7.54,6.23,-1.65,4,6
19075.515,-0.682,0.113,0.76,-7.17,3.88,-3.69,4,6
19075.531,-0.681,0.12,0.765,-6.13,0.61,-4.46,4,6
19075.531,-0.685,0.132,0.762,-3.78,-1.77,-4.73,4,6
19075.546,-0.676,0.143,0.744,-2.08,-3.42,-4.24,4,6
19075.562,-0.66,0.144,0.738,-2.87,-3.97,-2.99,4,6
19075.562,-0.658,0.138,0.745,-3.69,-3.33,-2.35,4,6
19075.578,-0.653,0.135,0.743,-3.3,-2.87,-1.46,4,6
19075.593,-0.646,0.146,0.742,-3.91,-2.17,-0.12,4,6
19075.609,-0.645,0.158,0.74,-5.49,-1.89,1.04,4,6
19075.609,-0.638,0.161,0.727,-7.75,-1.86,1.95,4,6
19075.625,-0.628,0.152,0.711,-10.22,1.16,3.81,4,6
19075.625,-0.625,0.146,0.715,-8.7,3.02,3.33,4,6
