timestamp,ax,ay,az,gx,gy,gz,orient_label,motion_label
19102.312,-0.684,0.23,0.712,8.09,1.59,-4.0,4,6
19102.328,-0.692,0.237,0.72,7.45,-0.85,-3.85,4,6
19102.328,-0.695,0.237,0.71,5.83,-3.57,-2.32,4,6
19102.343,-0.683,0.229,0.694,3.2,-5.8,0.03,4,6
19102.343,-0.667,0.213,0.686,0.67,-6.07,1.95,4,6
19102.359,-0.666,0.197,0.675,-1.22,-4.55,3.11,4,6
19102.375,-0.658,0.185,0.66,-2.72,-2.59,2.9,4,6
19102.375,-0.658,0.171,0.662,-3.08,0.15,1.25,4,6
19102.39,-0.67,0.156,0.666,-1.53,2.84,-1.5,4,6
19102.406,-0.67,0.166,0.663,0.67,5.1,-4.12,4,6
19102.406,-0.669,0.182,0.671,1.89,7.39,-6.5,4,6
19102.421,-0.696,0.194,0.701,2.84,9.25,-8.39,4,6
19102.421,-0.731,0.212,0.732,3.69,7.97,-8.03,4,6
19102.437,-0.727,0.228,0.737,3.63,2.99,-5.43,4,6
19102.453,-0.695,0.237,0.724,2.53,-2.14,-2.44,4,6
19102.453,-0.665,0.231,0.703,0.7,-4.88,0.24,4,6
19102.468,-0.642,0.221,0.684,-1.83,-5.04,2.08,4,6
19102.484,-0.642,0.198,0.675,-5.34,-1.13,1.13,4,6
19102.5,-0.658,0.195,0.68,-4.82,0.92,-0.61,4,6
19102.515,-0.67,0.198,0.683,-2.9,1.8,-2.93,4,6
19102.515,-0.676,0.207,0.692,-0.92,1.74,-4.76,4,6
19102.531,-0.687,0.218,0.699,1.37,1.19,-5.68,4,6
19102.546,-0.689,0.225,0.7,3.48,-0.09,-5.31,4,6
19102.546,-0.674,0.234,0.688,3.94,-1.56,-4.21,4,6
19102.562,-0.656,0.239,0.677,2.59,-1.74,-3.02,4,6
19102.562,-0.657,0.232,0.673,1.04,-0.12,-2.41,4,6
19102.578,-0.665,0.228,0.673,0.03,1.95,-1.68,4,6
19102.593,-0.671,0.231,0.684,-0.64,3.51,-0.76,4,6
19102.593,-0.686,0.222,0.692,-0.34,4.36,0.18,4,6
19102.609,-0.705,0.216,0.705,0.06,3.6,1.25,4,6
19102.625,-0.703,0.21,0.702,0.7,1.04,2.35,4,6
19102.625,-0.693,0.211,0.695,0.43,-1.31,3.08,4,6
19102.64,-0.689,0.207,0.687,0.06,-2.35,3.2,4,6
19102.656,-0.671,0.204,0.673,-0.64,-1.56,2.62,4,6
19102.671,-0.671,0.199,0.668,-0.09,0.61,2.38,4,6
19102.671,-0.674,0.199,0.668,0.31,3.11,2.41,4,6
19102.687,-0.68,0.198,0.672,-0.27,5.37,2.59,4,6
19102.703,-0.694,0.198,0.678,-1.28,6.5,2.66,4,6
19102.703,-0.698,0.197,0.688,-2.44,5.8,2.87,4,6
19102.718,-0.691,0.188,0.696,-2.9,4.55,3.23,4,6
19102.734,-0.691,0.179,0.697,-1.68,3.81,3.05,4,6
19102.734,-0.691,0.183,0.699,-0.03,3.27,3.05,4,6
19102.75,-0.685,0.19,0.696,0.31,2.32,3.33,4,6
19102.765,-0.674,0.19,0.685,-0.52,1.71,3.39,4,6
19102.765,-0.667,0.193,0.68,-1.77,2.01,3.3,4,6
19102.781,-0.667,0.191,0.676,-2.9,2.9,3.33,4,6
19102.796,-0.671,0.194,0.676,-3.54,3.97,3.63,4,6
19102.796,-0.678,0.197,0.679,-3.97,4.91,4.15,4,6
19102.812,-0.683,0.189,0.686,-4.27,5.43,4.46,4,6
19102.812,-0.694,0.182,0.691,-3.69,5.68,4.67,4,6
19102.828,-0.707,0.191,0.696,-3.2,5.34,5.1,4,6
19102.843,-0.705,0.19,0.698,-3.17,3.27,5.07,4,6
19102.859,-0.69,0.18,0.699,-3.2,1.01,4.67,4,6
19102.859,-0.686,0.176,0.69,-2.23,0.03,3.69,4,6
19102.875,-0.688,0.173,0.686,-0.64,-0.12,2.32,4,6
19102.875,-0.692,0.176,0.684,0.92,-0.43,1.01,4,6
19102.89,-0.686,0.183,0.68,1.77,-0.85,0.18,4,6
19102.906,-0.681,0.188,0.678,1.98,-0.67,-0.58,4,6
19102.906,-0.682,0.185,0.676,1.95,0.12,-1.71,4,6
19102.921,-0.68,0.184,0.677,2.38,0.89,-2.56,4,6
19102.937,-0.687,0.194,0.682,2.9,2.2,-3.05,4,6
19102.937,-0.695,0.195,0.684,3.14,2.62,-3.33,4,6
19102.953,-0.701,0.199,0.688,3.27,2.14,-3.42,4,6
19102.953,-0.705,0.198,0.683,4.27,1.07,-3.57,4,6
19102.968,-0.694,0.205,0.674,4.88,0.06,-3.17,4,6
19102.984,-0.682,0.217,0.671,4.24,0.0,-2.69,4,6
19102.984,-0.682,0.218,0.67,2.47,0.82,-1.86,4,6
19103.0,-0.685,0.226,0.677,0.15,1.31,-1.07,4,6
19103.015,-0.685,0.232,0.685,-1.37,1.1,-0.4,4,6
19103.015,-0.681,0.234,0.685,-1.53,0.03,0.24,4,6
19103.031,-0.673,0.242,0.677,-0.67,-1.22,0.61,4,6
19103.031,-0.664,0.248,0.667,0.89,-1.43,0.03,4,6
19103.046,-0.657,0.256,0.66,2.41,-0.46,-0.61,4,6
19103.062,-0.647,0.269,0.651,4.12,1.46,-1.01,4,6
19103.062,-0.633,0.282,0.636,5.98,4.46,-1.74,4,6
19103.078,-0.614,0.296,0.614,7.69,8.73,-3.05,4,6
19103.093,-0.598,0.304,0.581,9.09,14.53,-6.35,4,6
19103.093,-0.591,0.299,0.565,9.16,22.31,-10.32,4,6
19103.109,-0.597,0.311,0.575,8.03,31.65,-14.8,4,6
19103.125,-0.622,0.319,0.605,10.47,41.14,-18.83,4,6
19103.14,-0.683,0.341,0.67,17.0,48.77,-21.18,4,6
19103.14,-0.756,0.366,0.727,27.5,50.57,-19.59,4,6
19103.156,-0.788,0.388,0.754,39.09,45.81,-13.06,4,6
19103.156,-0.794,0.418,0.764,58.02,27.13,3.63,4,6
19103.171,-0.776,0.431,0.75,62.11,18.31,9.98,4,6
19103.187,-0.733,0.446,0.709,61.98,13.89,14.65,4,6
19103.187,-0.692,0.457,0.659,58.26,15.14,18.71,4,6
19103.203,-0.659,0.47,0.562,51.94,20.63,23.53,4,6
19103.218,-0.664,0.482,0.52,44.28,28.96,29.42,4,6
19103.218,-0.679,0.508,0.487,36.59,38.79,35.43,4,6
19103.234,-0.719,0.528,0.462,30.06,50.33,41.81,4,6
19103.234,-0.785,0.57,0.466,23.56,60.09,48.86,4,6
19103.25,-0.863,0.621,0.501,16.69,64.64,57.74,4,6
19103.265,-0.921,0.648,0.523,10.65,63.08,68.09,4,6
19103.265,-0.945,0.67,0.524,4.15,57.16,79.84,4,6
19103.281,-0.937,0.684,0.503,-2.81,49.53,91.74,4,6
19103.296,-0.913,0.674,0.459,-9.43,43.7,102.33,4,6
19103.296,-0.867,0.656,0.418,-16.14,40.71,110.93,4,6
19103.312,-0.81,0.633,0.386,-20.87,41.47,117.31,4,6
19103.312,-0.767,0.605,0.353,-21.52,46.91,121.43,4,6
19103.328,-0.735,0.589,0.32,-18.77,55.64,124.12,4,6
19103.343,-0.714,0.592,0.304,-14.28,65.83,125.34,4,6
19103.343,-0.711,0.61,0.303,-9.28,75.62,125.16,4,6
19103.359,-0.736,0.641,0.297,-5.13,84.17,125.06,4,6
19103.375,-0.773,0.694,0.301,-3.81,89.91,127.87,4,6
19103.375,-0.776,0.738,0.314,-8.73,90.18,135.41,4,6
19103.39,-0.762,0.775,0.324,-19.56,87.37,145.02,4,6
19103.406,-0.74,0.796,0.325,-33.78,85.18,153.72,4,6
19103.406,-0.709,0.798,0.288,-50.2,84.72,160.47,4,6
19103.421,-0.7,0.795,0.238,-67.45,88.08,165.56,4,6
19103.421,-0.708,0.772,0.206,-81.67,93.45,169.29,4,6
19103.437,-0.714,0.723,0.204,-91.77,96.35,171.12,4,6
19103.453,-0.709,0.681,0.231,-97.02,96.29,170.93,4,6
19103.453,-0.712,0.675,0.278,-95.34,94.55,169.65,4,6
19103.468,-0.733,0.701,0.316,-87.71,91.22,170.23,4,6
19103.484,-0.763,0.749,0.323,-79.93,85.36,175.27,4,6
19103.484,-0.761,0.782,0.314,-78.65,75.93,183.84,4,6
19103.515,-0.705,0.747,0.263,-97.93,48.71,200.75,4,6
19103.515,-0.634,0.682,0.254,-113.96,35.77,206.85,4,6
19103.531,-0.562,0.61,0.263,-127.29,26.83,209.72,4,6
19103.546,-0.513,0.546,0.279,-135.07,22.31,210.24,4,6
19103.546,-0.487,0.488,0.311,-138.74,19.96,208.9,4,6
19103.562,-0.481,0.449,0.362,-137.61,16.05,206.82,4,6
19103.578,-0.498,0.433,0.412,-132.91,8.85,206.0,4,6
19103.578,-0.5,0.429,0.436,-129.09,-2.53,207.53,4,6
19103.593,-0.474,0.429,0.44,-127.9,-18.89,207.89,4,6
19103.609,-0.439,0.416,0.432,-130.19,-36.9,204.66,4,6
19103.609,-0.404,0.387,0.432,-134.25,-54.72,199.26,4,6
19103.625,-0.35,0.363,0.435,-138.1,-68.85,193.79,4,6
19103.64,-0.3,0.34,0.442,-139.47,-76.02,188.27,4,6
19103.64,-0.278,0.317,0.466,-138.43,-75.87,182.32,4,6
19103.656,-0.272,0.314,0.501,-136.57,-71.81,176.4,4,6
19103.656,-0.278,0.334,0.538,-134.71,-66.04,171.0,4,6
19103.671,-0.274,0.308,0.583,-130.89,-58.78,166.75,4,6
19103.687,-0.276,0.293,0.622,-122.26,-53.19,163.0,4,6
19103.687,-0.276,0.288,0.659,-109.01,-52.95,158.27,4,6
19103.703,-0.257,0.284,0.725,-94.0,-51.7,151.98,4,6
19103.703,-0.229,0.322,0.778,-79.93,-46.66,142.09,4,6
19103.718,-0.21,0.355,0.799,-68.7,-40.22,130.19,4,6
19103.734,-0.194,0.391,0.812,-62.47,-31.37,117.65,4,6
19103.734,-0.186,0.444,0.817,-61.07,-20.97,103.15,4,6
19103.75,-0.17,0.466,0.832,-61.77,-10.86,87.25,4,6
19103.765,-0.172,0.51,0.898,-60.3,-2.11,70.71,4,6
19103.781,-0.218,0.539,0.969,-48.92,3.66,56.64,4,6
19103.781,-0.26,0.55,1.018,-29.27,3.54,48.65,4,6
19103.781,-0.28,0.582,1.052,-7.97,-2.41,44.98,4,6
19103.796,-0.285,0.626,1.053,8.45,-12.88,41.57,4,6
19103.812,-0.256,0.667,1.023,14.19,-24.57,37.87,4,6
19103.812,-0.214,0.693,0.998,10.32,-34.03,34.27,4,6
19103.843,-0.147,0.698,0.972,-1.74,-40.28,28.47,4,6
19103.843,-0.138,0.685,0.954,-2.99,-39.58,27.86,4,6
19103.859,-0.129,0.674,0.946,0.03,-38.58,27.8,4,6
19103.875,-0.137,0.668,0.934,7.17,-38.36,27.04,4,6
19103.875,-0.155,0.686,0.919,12.36,-40.56,26.09,4,6
19103.89,-0.145,0.688,0.89,13.03,-45.84,24.66,4,6
19103.906,-0.113,0.669,0.862,10.38,-51.21,21.91,4,6
19103.906,-0.089,0.671,0.838,5.71,-54.41,17.79,4,6
19103.921,-0.066,0.646,0.807,1.5,-56.58,14.04,4,6
19103.921,-0.029,0.61,0.798,-1.8,-57.16,10.93,4,6
19103.937,0.0,0.593,0.787,-1.89,-54.54,8.12,4,6
19103.953,0.033,0.584,0.767,-0.34,-49.65,6.41,4,6
19103.953,0.077,0.591,0.77,-0.7,-43.64,5.22,4,6
19103.968,0.126,0.61,0.778,-3.91,-36.19,4.24,4,6
19103.984,0.175,0.654,0.827,-10.04,-28.05,4.0,4,6
19103.984,0.181,0.707,0.898,-13.67,-20.6,5.74,4,6
19104.015,0.169,0.693,0.996,-16.27,-21.0,14.07,4,6
19104.015,0.149,0.599,0.935,-7.57,-26.73,13.76,4,6
19104.031,0.139,0.567,0.875,-2.17,-33.17,11.38,4,6
19104.046,0.147,0.559,0.797,-0.37,-39.09,9.28,4,6
19104.046,0.172,0.534,0.732,-2.08,-42.05,7.48,4,6
19104.062,0.208,0.521,0.682,-4.46,-40.44,6.26,4,6
19104.062,0.25,0.518,0.642,-4.43,-33.17,6.62,4,6
19104.078,0.274,0.522,0.633,-3.3,-21.24,6.56,4,6
19104.093,0.266,0.521,0.665,1.25,-8.7,6.74,4,6
19104.093,0.246,0.54,0.727,7.02,1.01,8.33,4,6
19104.109,0.226,0.578,0.777,11.17,5.34,10.8,4,6
19104.125,0.235,0.593,0.813,10.13,4.06,12.18,4,6
19104.125,0.261,0.601,0.845,3.51,0.24,11.08,4,6
19104.14,0.275,0.575,0.845,-0.79,-3.94,7.45,4,6
19104.156,0.27,0.545,0.821,2.93,-9.13,0.03,4,6
19104.156,0.256,0.537,0.781,4.18,-10.19,-3.81,4,6
19104.187,0.235,0.577,0.74,-0.79,-12.76,-10.32,4,6
19104.187,0.249,0.587,0.738,-2.62,-12.12,-11.54,4,6
19104.203,0.258,0.584,0.727,-0.15,-7.6,-11.78,4,6
19104.203,0.248,0.598,0.73,3.69,-1.22,-10.68,4,6
19104.218,0.235,0.614,0.747,4.94,3.78,-9.22,4,6
19104.234,0.212,0.617,0.746,3.17,7.26,-8.36,4,6
19104.234,0.194,0.634,0.764,-3.6,9.16,-7.54,4,6
19104.25,0.173,0.649,0.786,-11.81,7.75,-6.53,4,6
19104.265,0.172,0.577,0.768,-15.11,5.52,-6.81,4,6
19104.265,0.103,0.641,0.801,-25.18,-0.15,-7.2,4,6
19104.281,0.187,0.698,0.808,-35.22,-7.11,-0.58,4,6
19104.296,0.216,0.584,0.755,-28.53,-8.21,5.95,4,6
19104.296,0.226,0.554,0.747,-25.73,-4.52,10.01,4,6
19104.312,0.242,0.543,0.768,-20.97,-1.5,13.64,4,6
19104.312,0.233,0.53,0.793,-14.77,0.82,15.14,4,6
19104.328,0.238,0.532,0.833,-11.47,-0.34,15.2,4,6
19104.343,0.234,0.499,0.857,-1.22,-7.75,11.93,4,6
19104.359,0.233,0.518,0.857,4.15,-12.09,10.04,4,6
19104.375,0.202,0.555,0.864,8.27,-16.33,9.8,4,6
19104.375,0.268,0.542,0.801,12.48,-19.44,12.12,4,6
19104.39,0.259,0.457,0.739,20.84,-17.0,12.42,4,6
19104.406,0.263,0.529,0.742,18.4,-13.09,11.66,4,6
19104.406,0.262,0.549,0.779,15.53,-10.62,11.26,4,6
19104.421,0.253,0.54,0.752,13.64,-8.45,10.1,4,6
19104.437,0.255,0.522,0.737,13.46,-6.41,7.97,4,6
19104.437,0.247,0.567,0.756,10.68,-3.23,5.07,4,6
19104.453,0.242,0.577,0.78,9.52,-2.11,3.48,4,6
19104.453,0.228,0.584,0.798,9.28,-2.81,3.63,4,6
19104.468,0.22,0.595,0.804,9.77,-5.01,5.01,4,6
19104.484,0.217,0.61,0.814,10.19,-8.82,6.53,4,6
19104.484,0.224,0.619,0.813,8.97,-13.79,7.54,4,6
19104.5,0.241,0.614,0.787,6.62,-18.74,8.76,4,6
19104.515,0.284,0.578,0.704,3.17,-21.52,11.08,4,6
19104.531,0.308,0.562,0.671,1.89,-17.76,10.77,4,6
19104.546,0.34,0.553,0.65,-0.12,-11.05,9.19,4,6
19104.546,0.365,0.538,0.625,-1.77,-1.65,6.47,4,6
19104.562,0.382,0.522,0.621,-4.18,9.46,3.17,4,6
19104.562,0.381,0.501,0.613,-5.74,21.36,-1.13,4,6
19104.578,0.385,0.475,0.613,-5.65,33.63,-6.38,4,6
19104.593,0.354,0.458,0.614,-6.16,47.33,-14.13,4,6
19104.609,0.239,0.534,0.755,-21.82,55.02,-24.66,4,6
19104.609,0.213,0.67,0.937,-51.94,47.82,-32.32,4,6
19104.625,0.044,0.668,1.035,-56.06,32.14,-35.22,4,6
19104.625,0.056,0.824,1.098,-61.4,5.74,-25.45,4,6
19104.64,0.159,0.67,0.954,-36.87,-13.52,-6.62,4,6
19104.656,0.206,0.538,0.796,-18.92,-18.07,3.6,4,6
19104.656,0.198,0.535,0.744,-13.0,-14.19,7.14,4,6
19104.671,0.178,0.496,0.75,-7.14,-8.79,9.25,4,6
19104.687,0.209,0.528,0.841,-10.74,-9.95,13.25,4,6
19104.703,0.231,0.5,0.856,-7.78,-11.41,14.89,4,6
19104.703,0.235,0.489,0.856,-1.77,-12.18,15.63,4,6
19104.718,0.241,0.478,0.856,4.0,-13.31,15.69,4,6
19104.734,0.228,0.494,0.858,6.81,-15.29,15.05,4,6
19104.734,0.222,0.48,0.851,8.79,-18.34,15.69,4,6
19104.75,0.237,0.519,0.836,7.35,-22.61,16.57,4,6
19104.765,0.319,0.405,0.745,15.53,-21.82,17.58,4,6
19104.765,0.289,0.425,0.72,20.54,-15.44,13.0,4,6
19104.781,0.308,0.514,0.746,17.43,-10.59,10.07,4,6
19104.796,0.299,0.512,0.76,17.82,-8.21,7.05,4,6
19104.796,0.29,0.554,0.749,14.83,-7.08,4.3,4,6
19104.812,0.301,0.559,0.774,7.87,-8.94,0.49,4,6
19104.812,0.304,0.564,0.794,0.7,-11.11,-4.12,4,6
19104.828,0.306,0.546,0.773,0.55,-12.82,-6.65,4,6
19104.843,0.305,0.539,0.747,1.71,-12.94,-7.6,4,6
19104.859,0.312,0.539,0.693,3.85,-4.21,-7.08,4,6
19104.875,0.312,0.541,0.672,3.2,2.5,-7.72,4,6
19104.875,0.309,0.542,0.666,1.1,10.1,-8.76,4,6
19104.89,0.312,0.542,0.679,-2.75,17.33,-9.7,4,6
19104.906,0.318,0.535,0.701,-6.47,24.02,-11.26,4,6
19104.906,0.334,0.514,0.718,-8.82,30.4,-14.1,4,6
19104.921,0.322,0.465,0.716,-9.89,38.45,-19.04,4,6
19104.921,0.236,0.468,0.817,-18.52,43.49,-26.43,4,6
19104.937,0.242,0.589,0.948,-37.72,38.18,-31.4,4,6
19104.953,0.149,0.475,0.969,-28.17,29.02,-33.17,4,6
19104.953,0.066,0.676,1.065,-29.88,13.58,-30.82,4,6
19104.968,0.124,0.656,1.017,-12.33,-3.23,-15.56,4,6
19104.984,0.164,0.516,0.871,7.57,-13.03,-5.46,4,6
19104.984,0.19,0.518,0.782,9.4,-15.02,-1.89,4,6
19105.0,0.197,0.495,0.735,14.77,-11.81,-1.16,4,6
19105.015,0.204,0.512,0.745,17.06,-8.24,-0.76,4,6
19105.031,0.234,0.569,0.792,12.76,-5.49,0.73,4,6
19105.046,0.228,0.566,0.799,12.76,-4.88,1.4,4,6
19105.046,0.228,0.557,0.806,13.06,-5.8,2.26,4,6
19105.062,0.236,0.546,0.817,12.7,-7.6,2.38,4,6
19105.062,0.234,0.542,0.827,12.42,-9.0,2.29,4,6
19105.078,0.229,0.526,0.835,14.1,-10.47,3.05,4,6
19105.093,0.208,0.522,0.839,16.88,-11.78,4.0,4,6
19105.093,0.192,0.535,0.848,19.35,-14.83,4.58,4,6
19105.109,0.206,0.542,0.848,21.06,-19.65,4.7,4,6
19105.125,0.215,0.553,0.819,19.99,-24.32,2.84,4,6
19105.125,0.23,0.608,0.801,22.16,-27.71,4.58,4,6
19105.14,0.301,0.513,0.705,24.08,-21.52,1.13,4,6
19105.156,0.262,0.523,0.672,14.56,-17.46,-0.34,4,6
19105.156,0.293,0.598,0.687,4.46,-15.17,-6.29,4,6
19105.171,0.311,0.53,0.709,5.1,-10.71,-8.67,4,6
19105.171,0.324,0.563,0.719,15.14,-5.19,-6.29,4,6
19105.203,0.249,0.608,0.775,21.85,2.9,-6.62,4,6
19105.203,0.232,0.625,0.8,19.62,0.7,-3.81,4,6
19105.218,0.229,0.638,0.803,14.37,-3.57,-2.56,4,6
19105.234,0.226,0.623,0.79,9.43,-7.72,-1.01,4,6
19105.234,0.235,0.606,0.764,5.68,-10.9,1.34,4,6
19105.25,0.246,0.582,0.726,4.76,-11.6,2.69,4,6
19105.265,0.26,0.568,0.694,5.1,-10.07,2.93,4,6
19105.265,0.279,0.561,0.669,4.61,-6.47,1.37,4,6
19105.281,0.295,0.567,0.667,4.21,-0.92,-1.01,4,6
19105.296,0.295,0.581,0.681,4.21,5.25,-2.23,4,6
19105.296,0.278,0.608,0.733,4.49,9.89,-2.47,4,6
19105.312,0.264,0.624,0.785,5.28,10.5,-2.01,4,6
19105.328,0.244,0.63,0.813,6.23,7.81,-0.92,4,6
19105.328,0.226,0.616,0.823,7.39,3.33,0.4,4,6
19105.343,0.221,0.608,0.82,8.39,-1.95,1.86,4,6
19105.359,0.228,0.601,0.797,8.85,-6.68,3.3,4,6
19105.359,0.246,0.593,0.771,8.45,-9.92,4.36,4,6
19105.375,0.263,0.579,0.762,8.42,-11.23,5.16,4,6
19105.375,0.267,0.568,0.76,11.11,-10.74,5.8,4,6
19105.39,0.275,0.561,0.764,16.48,-9.16,6.1,4,6
19105.406,0.279,0.559,0.775,23.53,-7.02,6.07,4,6
19105.406,0.286,0.568,0.788,31.01,-5.4,6.07,4,6
19105.421,0.296,0.584,0.807,37.48,-5.58,5.77,4,6
19105.421,0.3,0.588,0.82,44.01,-7.45,4.79,4,6
19105.437,0.301,0.597,0.823,49.75,-10.68,2.78,4,6
19105.453,0.336,0.604,0.839,52.8,-15.47,0.49,4,6
19105.468,0.407,0.619,0.851,54.32,-19.17,-2.9,4,6
19105.468,0.483,0.646,0.86,55.85,-17.79,-9.64,4,6
19105.484,0.533,0.662,0.883,57.68,-10.56,-20.2,4,6
19105.484,0.538,0.654,0.925,61.77,0.15,-33.94,4,6
19105.5,0.654,0.694,1.006,69.92,6.38,-45.96,4,6
19105.515,0.725,0.843,1.144,76.78,1.8,-44.95,4,6
19105.515,0.695,0.865,1.141,100.56,8.94,-60.0,4,6
19105.531,0.64,0.788,1.088,126.19,8.15,-67.17,4,6
19105.546,0.579,0.854,1.091,145.33,-1.46,-70.89,4,6
19105.546,0.522,0.885,1.067,164.86,-15.59,-73.67,4,6
19105.562,0.482,0.969,1.043,175.54,-36.01,-72.42,4,6
19105.562,0.509,1.04,1.013,172.34,-62.47,-68.79,4,6
19105.578,0.578,1.065,0.943,161.5,-87.86,-65.22,4,6
19105.593,0.649,1.096,0.88,150.58,-102.94,-61.43,4,6
19105.593,0.667,1.087,0.796,142.43,-108.95,-56.43,4,6
19105.609,0.673,1.094,0.709,135.93,-109.2,-48.49,4,6
19105.625,0.632,1.036,0.636,133.03,-106.57,-34.33,4,6
19105.625,0.732,1.142,0.576,138.83,-102.24,-26.37,4,6
19105.64,0.648,1.156,0.492,146.92,-93.45,-24.63,4,6
19105.656,0.585,1.133,0.444,148.23,-85.45,-18.28,4,6
19105.656,0.494,1.163,0.41,150.79,-88.66,-13.25,4,6
19105.671,0.391,1.151,0.388,158.51,-97.23,-4.06,4,6
19105.687,0.396,1.196,0.331,167.03,-111.61,8.27,4,6
19105.687,0.409,1.28,0.228,171.54,-120.0,18.1,4,6
19105.718,0.436,1.318,0.079,154.33,-128.57,28.99,4,6
19105.718,0.414,1.234,0.03,144.78,-126.96,29.88,4,6
19105.734,0.406,1.093,-0.002,143.65,-122.9,30.76,4,6
19105.75,0.404,0.989,-0.02,154.85,-118.5,24.69,4,6
19105.75,0.377,0.908,-0.051,177.07,-114.11,11.93,4,6
19105.765,0.287,0.829,-0.089,201.03,-112.34,-2.38,4,6
19105.765,0.194,0.786,-0.121,219.03,-115.67,-15.99,4,6
19105.781,0.127,0.763,-0.168,232.55,-118.53,-21.88,4,6
19105.796,0.068,0.725,-0.238,241.74,-121.89,-21.45,4,6
19105.796,0.106,0.655,-0.336,247.6,-127.51,-18.4,4,6
19105.812,0.157,0.587,-0.464,250.13,-131.93,-20.45,4,6
19105.812,0.168,0.504,-0.585,245.03,-127.05,-26.37,4,6
19105.828,0.187,0.473,-0.663,226.63,-114.63,-28.02,4,6
19105.843,0.218,0.507,-0.682,194.16,-99.0,-27.28,4,6
19105.843,0.24,0.566,-0.638,148.17,-80.54,-24.17,4,6
19105.859,0.241,0.607,-0.519,94.76,-60.85,-18.8,4,6
19105.875,0.173,0.593,-0.396,46.88,-44.47,-11.14,4,6
19105.875,0.096,0.606,-0.299,8.55,-35.0,4.03,4,6
19105.89,0.012,0.624,-0.207,-22.86,-31.8,26.86,4,6
19105.906,-0.013,0.706,-0.148,-48.07,-36.16,49.5,4,6
19105.906,-0.098,0.668,-0.15,-70.77,-39.95,68.82,4,6
19105.921,-0.009,0.693,-0.164,-99.25,-49.75,88.63,4,6
19105.937,0.079,0.748,-0.144,-124.27,-50.51,94.33,4,6
19105.937,0.126,0.708,-0.169,-143.07,-47.15,93.69,4,6
19105.953,0.203,0.682,-0.167,-157.57,-41.23,87.44,4,6
19105.953,0.255,0.715,-0.107,-161.35,-30.27,75.87,4,6
19105.968,0.233,0.745,-0.038,-152.44,-20.87,63.17,4,6
19105.984,0.182,0.82,0.061,-137.76,-18.01,52.64,4,6
19106.0,0.149,0.907,0.11,-125.46,-22.34,45.35,4,6
19106.0,0.138,0.95,0.12,-124.64,-31.19,41.6,4,6
19106.015,0.131,0.931,0.104,-131.57,-40.5,41.93,4,6
19106.015,0.123,0.885,0.07,-141.12,-48.25,45.75,4,6
19106.031,0.21,0.787,0.021,-151.74,-52.13,47.7,4,6
19106.046,0.205,0.812,0.074,-148.99,-46.57,40.86,4,6
19106.062,0.116,0.864,0.156,-139.16,-42.02,33.02,4,6
19106.062,0.036,0.887,0.171,-129.58,-43.06,33.2,4,6
19106.078,0.01,0.984,0.207,-127.02,-48.65,36.07,4,6
19106.093,0.035,1.059,0.262,-125.13,-53.99,37.97,4,6
19106.093,0.052,1.122,0.294,-123.84,-65.49,36.53,4,6
19106.109,0.105,1.095,0.295,-117.89,-77.55,31.1,4,6
19106.125,0.177,1.017,0.253,-80.17,-85.06,8.39,4,6
19106.14,0.237,0.946,0.183,-51.61,-79.23,-7.63,4,6
19106.14,0.248,0.873,0.107,-23.5,-68.94,-24.23,4,6
19106.156,0.185,0.752,0.055,3.91,-53.71,-41.02,4,6
19106.156,0.06,0.721,0.045,26.98,-37.84,-52.58,4,6
19106.171,-0.057,0.729,0.065,37.45,-30.0,-54.99,4,6
19106.171,-0.133,0.734,0.066,38.45,-36.59,-53.22,4,6
19106.187,-0.156,0.717,0.031,31.22,-51.97,-47.91,4,6
19106.203,-0.101,0.702,-0.016,18.71,-67.78,-41.14,4,6
19106.218,0.006,0.671,-0.069,7.39,-79.04,-38.85,4,6
19106.218,0.114,0.657,-0.126,2.59,-81.03,-41.93,4,6
19106.234,0.167,0.643,-0.176,6.38,-71.93,-48.04,4,6
19106.234,0.2,0.64,-0.217,14.74,-57.25,-55.06,4,6
19106.25,0.203,0.665,-0.242,22.52,-38.45,-58.99,4,6
19106.265,0.156,0.711,-0.231,26.28,-18.86,-59.3,4,6
19106.265,0.087,0.772,-0.185,23.77,-5.37,-54.54,4,6
19106.281,0.009,0.854,-0.124,15.84,-0.95,-46.78,4,6
19106.296,-0.027,0.92,-0.063,4.64,-4.67,-36.19,4,6
19106.296,-0.02,0.965,-0.031,-6.78,-16.39,-24.45,4,6
19106.312,0.052,0.96,-0.049,-15.69,-28.11,-12.02,4,6
19106.312,0.173,0.945,-0.101,-22.16,-33.2,-0.31,4,6
19106.328,0.259,0.938,-0.158,-26.15,-30.06,8.88,4,6
19106.343,0.329,0.913,-0.173,-29.42,-19.1,16.24,4,6
19106.359,0.355,0.898,-0.154,-30.34,-5.22,18.71,4,6
19106.359,0.337,0.899,-0.097,-28.69,6.53,16.02,4,6
19106.375,0.286,0.898,-0.018,-24.05,13.95,12.88,4,6
19106.375,0.233,0.913,0.036,-17.33,13.12,10.47,4,6
19106.39,0.22,0.916,0.058,-11.14,8.24,12.18,4,6
19106.39,0.222,0.936,0.05,-8.82,-1.01,14.95,4,6
19106.406,0.262,0.954,0.019,-12.21,-9.37,17.55,4,6
19106.421,0.29,0.949,-0.009,-19.53,-11.87,17.85,4,6
19106.421,0.32,0.917,-0.024,-26.86,-9.83,18.74,4,6
19106.437,0.342,0.906,-0.028,-29.69,-6.07,20.72,4,6
19106.453,0.339,0.882,-0.017,-28.29,0.52,24.2,4,6
19106.453,0.366,0.854,0.013,-25.76,6.68,26.09,4,6
19106.468,0.361,0.849,0.054,-23.1,12.15,26.61,4,6
19106.484,0.322,0.836,0.092,-21.45,15.5,26.22,4,6
19106.484,0.294,0.826,0.124,-22.83,11.72,24.6,4,6
19106.5,0.288,0.834,0.141,-24.54,3.78,20.57,4,6
19106.515,0.283,0.845,0.137,-24.05,-4.91,14.1,4,6
19106.515,0.267,0.876,0.128,-22.28,-14.22,5.68,4,6
19106.531,0.273,0.905,0.108,-19.17,-23.99,-2.56,4,6
19106.546,0.29,0.927,0.061,-13.79,-32.32,-8.18,4,6
19106.546,0.332,0.954,0.01,-7.81,-36.23,-10.47,4,6
19106.562,0.372,0.984,-0.031,-1.31,-34.85,-12.67,4,6
19106.578,0.368,1.007,-0.055,5.28,-28.47,-15.08,4,6
19106.578,0.345,1.028,-0.068,9.64,-20.81,-15.75,4,6
19106.593,0.321,1.06,-0.071,11.2,-14.31,-14.62,4,6
19106.593,0.287,1.093,-0.064,10.62,-10.38,-12.21,4,6
19106.609,0.285,1.113,-0.049,6.96,-10.62,-9.4,4,6
19106.625,0.28,1.114,-0.047,2.75,-11.57,-5.62,4,6
19106.625,0.287,1.103,-0.045,-0.76,-10.86,-1.13,4,6
19106.64,0.301,1.097,-0.049,-4.27,-9.61,2.56,4,6
19106.656,0.33,1.082,-0.051,-7.11,-6.44,6.56,4,6
19106.656,0.331,1.069,-0.052,-8.18,-1.86,9.34,4,6
19106.671,0.313,1.045,-0.049,-7.05,2.5,11.66,4,6
19106.687,0.287,1.036,-0.033,-4.3,5.71,13.79,4,6
19106.687,0.267,1.038,-0.023,-1.86,5.25,15.08,4,6
19106.703,0.285,1.054,-0.01,-1.8,3.05,17.18,4,6
19106.703,0.297,1.071,-0.01,-1.98,0.7,18.13,4,6
19106.718,0.324,1.068,0.003,-2.81,-0.95,20.05,4,6
19106.734,0.332,1.065,0.001,-1.95,-1.13,21.76,4,6
19106.734,0.332,1.048,-0.005,-0.7,-0.09,24.54,4,6
19106.75,0.344,1.033,-0.013,-0.89,1.53,27.34,4,6
19106.765,0.344,1.021,-0.017,-2.53,3.33,28.29,4,6
19106.765,0.358,0.997,-0.009,-6.1,4.79,27.74,4,6
19106.781,0.366,0.983,0.006,-8.61,5.62,24.6,4,6
19106.796,0.347,0.966,0.029,-7.02,6.65,20.54,4,6
19106.796,0.313,0.968,0.067,-1.68,6.32,16.91,4,6
19106.812,0.287,0.978,0.082,5.52,1.86,14.74,4,6
19106.812,0.301,0.997,0.071,10.8,-5.74,14.92,4,6
19106.828,0.336,1.006,0.037,12.57,-11.57,15.47,4,6
19106.843,0.377,1.002,0.001,9.55,-12.7,15.93,4,6
19106.859,0.381,0.991,-0.019,5.4,-10.25,15.26,4,6
19106.859,0.386,0.983,-0.02,1.59,-6.71,14.95,4,6
19106.875,0.383,0.977,-0.019,-0.52,-2.2,14.74,4,6
19106.875,0.375,0.964,-0.009,-0.67,3.72,14.31,4,6
19106.89,0.385,0.946,0.006,0.92,7.05,12.63,4,6
19106.906,0.406,0.944,0.008,5.62,7.51,9.34,4,6
19106.906,0.422,0.967,0.013,11.6,6.26,6.23,4,6
19106.921,0.424,0.988,0.018,16.36,4.24,3.72,4,6
19106.921,0.437,1.006,0.021,17.49,1.71,2.38,4,6
19106.937,0.429,1.017,0.028,16.75,0.12,2.59,4,6
19106.953,0.419,1.007,0.033,15.08,-0.21,5.86,4,6
19106.953,0.423,0.997,0.041,11.87,-0.89,11.02,4,6
19106.968,0.422,0.973,0.041,9.19,0.09,15.96,4,6
19106.984,0.404,0.922,0.031,6.44,2.23,19.99,4,6
19106.984,0.375,0.871,0.023,2.9,3.45,23.53,4,6
19107.0,0.356,0.836,0.022,-1.86,4.73,26.46,4,6
19107.015,0.353,0.802,0.02,-8.06,5.46,27.47,4,6
19107.031,0.353,0.769,0.014,-13.64,6.32,26.37,4,6
19107.031,0.361,0.747,0.008,-17.43,7.6,23.87,4,6
19107.031,0.385,0.73,0.018,-19.29,9.46,20.39,4,6
19107.046,0.387,0.726,0.044,-17.03,12.18,15.26,4,6
19107.062,0.374,0.73,0.065,-11.78,14.83,9.61,4,6
19107.078,0.373,0.758,0.093,-7.72,15.2,4.49,4,6
19107.078,0.372,0.791,0.111,-5.01,13.18,-0.12,4,6
19107.093,0.377,0.831,0.141,-3.33,9.7,-4.06,4,6
19107.093,0.386,0.87,0.156,-1.68,-2.04,-6.87,4,6
19107.109,0.404,0.898,0.146,-1.5,-4.79,-5.68,4,6
19107.125,0.44,0.934,0.12,-1.4,-4.67,-5.68,4,6
19107.125,0.465,0.983,0.097,-2.38,-2.47,-5.34,4,6
19107.14,0.495,1.08,0.053,-5.1,0.67,-5.71,4,6
19107.156,0.475,1.103,0.082,-5.65,4.49,-7.35,4,6
19107.156,0.424,1.097,0.132,0.98,7.05,-10.62,4,6
19107.171,0.37,1.093,0.151,14.25,4.43,-13.95,4,6
19107.187,0.32,1.13,0.134,29.15,-2.75,-14.74,4,6
19107.187,0.33,1.21,0.083,37.66,-14.4,-13.98,4,6
19107.203,0.381,1.27,-0.005,37.66,-27.8,-14.44,4,6
19107.203,0.442,1.296,-0.103,34.42,-36.59,-16.27,4,6
19107.218,0.514,1.309,-0.17,32.32,-38.79,-17.43,4,6
19107.234,0.553,1.325,-0.223,34.27,-34.06,-17.98,4,6
19107.234,0.57,1.347,-0.265,37.17,-26.4,-17.0,4,6
19107.25,0.567,1.403,-0.242,36.93,-17.64,-15.59,4,6
19107.265,0.551,1.444,-0.204,36.07,-9.37,-16.17,4,6
19107.265,0.532,1.502,-0.147,36.59,-4.27,-18.07,4,6
19107.281,0.51,1.548,-0.101,41.87,-3.33,-19.44,4,6
19107.296,0.486,1.56,-0.074,50.05,-5.07,-15.63,4,6
19107.296,0.493,1.536,-0.057,57.25,-7.11,-4.21,4,6
19107.312,0.507,1.505,-0.066,58.75,-7.6,12.7,4,6
19107.312,0.551,1.504,-0.063,50.57,-9.28,28.32,4,6
19107.328,0.576,1.449,-0.037,39.55,-10.44,37.78,4,6
19107.343,0.52,1.361,-0.004,32.75,-8.0,47.18,4,6
19107.343,0.444,1.267,0.027,29.66,-6.5,59.54,4,6
19107.359,0.384,1.149,0.041,25.94,-6.01,72.42,4,6
19107.375,0.31,1.012,0.045,18.34,-4.52,83.01,4,6
19107.375,0.242,0.858,0.067,4.58,-2.23,93.33,4,6
19107.39,0.195,0.702,0.091,-14.71,-3.11,101.08,4,6
19107.406,0.177,0.546,0.099,-35.55,-10.22,105.38,4,6
19107.406,0.232,0.453,0.122,-56.67,-22.83,103.58,4,6
19107.421,0.309,0.422,0.141,-68.76,-37.84,86.98,4,6
19107.421,0.355,0.365,0.145,-64.82,-51.06,62.2,4,6
19107.437,0.391,0.245,0.149,-43.95,-63.57,34.0,4,6
19107.453,0.409,0.145,0.098,-1.71,-72.63,5.43,4,6
19107.468,0.362,0.165,-0.022,49.47,-74.01,-17.76,4,6
19107.468,0.291,0.232,-0.18,86.37,-72.39,-33.91,4,6
19107.484,0.223,0.271,-0.302,93.78,-69.12,-40.77,4,6
19107.484,0.192,0.304,-0.378,75.84,-64.97,-39.03,4,6
19107.5,0.242,0.378,-0.425,44.07,-60.88,-32.53,4,6
19107.515,0.293,0.46,-0.418,7.45,-55.21,-26.8,4,6
19107.515,0.29,0.484,-0.383,-24.11,-47.15,-20.48,4,6
19107.531,0.26,0.405,-0.298,-41.41,-39.95,-12.79,4,6
19107.546,0.25,0.337,-0.254,-35.28,-33.17,-6.23,4,6
19107.546,0.233,0.376,-0.251,-15.02,-26.31,-1.83,4,6
19107.562,0.229,0.45,-0.282,4.15,-23.07,-4.09,4,6
19107.562,0.226,0.502,-0.324,9.67,-21.06,-9.61,4,6
19107.578,0.256,0.58,-0.372,2.47,-18.68,-13.89,4,6
19107.593,0.314,0.677,-0.404,-8.58,-13.28,-14.77,4,6
19107.593,0.323,0.771,-0.417,-22.58,-2.17,-7.45,4,6
19107.609,0.306,0.844,-0.406,-44.56,8.18,10.07,4,6
19107.625,0.306,0.823,-0.333,-72.21,13.58,33.02,4,6
19107.625,0.316,0.755,-0.253,-95.22,16.36,55.27,4,6
19107.64,0.303,0.687,-0.171,-111.36,16.08,74.5,4,6
19107.656,0.324,0.586,-0.075,-117.8,10.32,87.56,4,6
19107.656,0.399,0.51,0.0,-109.71,2.66,93.72,4,6
19107.671,0.454,0.497,0.015,-94.58,-3.72,95.43,4,6
19107.671,0.47,0.497,0.003,-82.55,-9.43,93.66,4,6
19107.687,0.47,0.447,-0.026,-75.84,-14.5,88.93,4,6
19107.703,0.491,0.293,-0.043,-67.51,-20.14,74.07,4,6
19107.703,0.535,0.215,-0.07,-46.05,-20.81,48.59,4,6
19107.718,0.526,0.245,-0.092,-21.73,-14.5,15.96,4,6
19107.734,0.515,0.263,-0.107,-0.82,-8.85,-19.59,4,6
19107.734,0.509,0.389,-0.152,12.63,-1.86,-49.65,4,6
19107.75,0.54,0.552,-0.141,14.62,4.82,-71.44,4,6
19107.765,0.503,0.724,-0.104,12.3,10.99,-86.79,4,6
19107.765,0.41,0.859,-0.062,8.55,13.61,-92.32,4,6
19107.781,0.362,0.924,0.002,1.46,10.38,-89.33,4,6
19107.796,0.34,0.958,0.03,-3.6,3.48,-81.97,4,6
19107.796,0.368,0.992,0.01,-7.66,-4.09,-72.45,4,6
19107.812,0.433,1.007,-0.023,-10.38,-8.64,-63.94,4,6
19107.828,0.437,1.015,-0.072,-10.71,-8.39,-58.14,4,6
19107.828,0.431,1.028,-0.104,-6.96,-6.26,-58.14,4,6
19107.843,0.455,1.051,-0.119,1.53,-1.31,-60.76,4,6
19107.843,0.462,1.102,-0.106,12.39,5.98,-65.28,4,6
19107.859,0.461,1.122,-0.085,23.38,10.83,-69.0,4,6
19107.875,0.474,1.135,-0.081,33.14,14.59,-70.01,4,6
19107.875,0.444,1.199,-0.073,37.57,18.1,-66.47,4,6
19107.89,0.412,1.239,-0.062,32.5,18.8,-58.2,4,6
19107.906,0.407,1.25,-0.03,21.03,17.73,-47.03,4,6
19107.906,0.379,1.25,-0.003,10.68,16.14,-35.1,4,6
19107.921,0.351,1.214,0.002,4.88,12.85,-23.38,4,6
19107.937,0.349,1.172,-0.002,4.27,8.82,-13.67,4,6
19107.937,0.368,1.109,-0.024,9.09,6.04,-9.03,4,6
19107.953,0.386,1.047,-0.052,16.21,5.68,-9.86,4,6
19107.953,0.396,0.987,-0.064,24.45,6.93,-13.25,4,6
19107.968,0.411,0.943,-0.072,35.28,9.64,-17.09,4,6
19107.984,0.401,0.917,-0.077,47.0,12.39,-22.61,4,6
19107.984,0.388,0.899,-0.075,55.24,13.52,-28.2,4,6
19108.0,0.365,0.91,-0.059,57.44,12.45,-33.88,4,6
19108.015,0.323,0.92,-0.034,54.17,7.78,-38.54,4,6
19108.015,0.312,0.936,-0.037,46.91,-0.15,-39.06,4,6
19108.031,0.319,0.979,-0.065,35.77,-7.45,-34.27,4,6
19108.046,0.356,1.001,-0.093,22.06,-12.82,-26.25,4,6
19108.046,0.37,1.003,-0.131,10.71,-14.04,-18.8,4,6
19108.062,0.361,0.977,-0.164,3.2,-12.18,-12.79,4,6
19108.062,0.359,0.943,-0.182,1.04,-9.06,-8.12,4,6
19108.078,0.36,0.92,-0.197,9.61,0.03,-3.63,4,6
19108.093,0.354,0.909,-0.199,11.54,4.49,-2.84,4,6
19108.109,0.351,0.903,-0.186,10.1,7.87,-2.66,4,6
19108.109,0.349,0.892,-0.16,8.45,9.67,-3.02,4,6
19108.125,0.326,0.852,-0.112,9.09,9.89,-3.05,4,6
19108.125,0.318,0.833,-0.104,11.2,9.31,-2.87,4,6
19108.14,0.312,0.821,-0.101,13.86,8.18,-2.84,4,6
19108.156,0.318,0.831,-0.107,14.07,6.13,-2.53,4,6
19108.156,0.312,0.858,-0.11,9.86,4.15,-1.46,4,6
19108.171,0.304,0.881,-0.113,2.5,1.62,1.16,4,6
19108.171,0.304,0.908,-0.114,-5.04,-1.53,4.46,4,6
19108.187,0.31,0.908,-0.125,-9.28,-4.15,7.63,4,6
19108.203,0.327,0.895,-0.142,-9.8,-5.46,10.8,4,6
19108.203,0.341,0.888,-0.166,-7.69,-4.7,12.45,4,6
19108.218,0.353,0.884,-0.189,-5.46,-2.08,13.03,4,6
19108.234,0.352,0.881,-0.189,-4.91,1.34,12.6,4,6
19108.234,0.339,0.877,-0.18,-4.24,4.33,11.29,4,6
19108.25,0.327,0.884,-0.16,-3.27,6.13,10.5,4,6
19108.265,0.325,0.885,-0.139,-1.98,6.38,10.32,4,6
19108.265,0.328,0.877,-0.13,-0.92,6.01,10.38,4,6
19108.281,0.343,0.864,-0.128,-0.21,5.74,10.44,4,6
19108.281,0.345,0.861,-0.13,0.03,6.16,9.4,4,6
19108.296,0.34,0.856,-0.126,-0.52,6.99,7.6,4,6
19108.312,0.335,0.858,-0.112,-1.16,7.57,5.28,4,6
19108.312,0.332,0.87,-0.096,-0.27,7.6,2.38,4,6
19108.328,0.317,0.904,-0.095,1.59,7.08,0.64,4,6
19108.343,0.313,0.915,-0.095,2.66,6.13,0.92,4,6
19108.343,0.314,0.92,-0.104,3.08,5.4,2.9,4,6
19108.359,0.313,0.932,-0.106,1.98,5.16,5.68,4,6
19108.375,0.322,0.944,-0.09,-1.37,4.73,8.61,4,6
19108.375,0.327,0.944,-0.086,-5.13,3.94,11.2,4,6
19108.39,0.337,0.934,-0.09,-8.39,2.62,12.82,4,6
19108.406,0.35,0.928,-0.089,-9.8,2.29,13.18,4,6
19108.406,0.35,0.917,-0.086,-9.77,2.96,13.09,4,6
19108.421,0.341,0.903,-0.089,-9.31,3.14,12.73,4,6
19108.437,0.342,0.887,-0.09,-9.52,2.5,11.66,4,6
19108.437,0.348,0.872,-0.09,-9.28,1.59,9.4,4,6
19108.453,0.36,0.871,-0.09,-7.66,0.73,6.71,4,6
19108.453,0.368,0.878,-0.091,-5.28,0.98,3.69,4,6
19108.468,0.364,0.883,-0.091,-2.35,1.68,1.34,4,6
19108.484,0.349,0.881,-0.096,0.0,2.32,0.34,4,6
19108.5,0.359,0.894,-0.096,1.01,2.53,0.21,4,6
19108.5,0.371,0.904,-0.092,1.53,3.11,-0.27,4,6
19108.515,0.364,0.892,-0.091,2.17,3.88,-0.92,4,6
19108.515,0.352,0.888,-0.091,1.77,3.69,-0.7,4,6
19108.531,0.344,0.89,-0.097,-0.27,2.32,0.12,4,6
19108.546,0.348,0.884,-0.103,-3.54,0.49,1.13,4,6
19108.546,0.353,0.876,-0.102,-7.66,-1.07,1.86,4,6
19108.562,0.354,0.861,-0.106,-10.38,-2.08,2.04,4,6
19108.578,0.353,0.847,-0.104,-10.83,-1.86,2.14,4,6
19108.578,0.335,0.835,-0.099,-9.22,-1.65,1.31,4,6
19108.593,0.318,0.83,-0.105,-7.11,-1.98,-0.21,4,6
19108.593,0.313,0.82,-0.109,-6.9,-2.32,-1.62,4,6
19108.609,0.318,0.814,-0.11,-7.69,-2.38,-2.5,4,6
19108.625,0.329,0.815,-0.113,-6.93,-1.95,-3.72,4,6
19108.625,0.327,0.816,-0.126,-5.31,-0.21,-5.22,4,6
19108.64,0.317,0.82,-0.126,-5.37,1.86,-6.23,4,6
19108.656,0.303,0.818,-0.121,-7.11,3.23,-6.53,4,6
19108.656,0.304,0.816,-0.107,-9.28,3.91,-6.29,4,6
19108.671,0.314,0.814,-0.101,-10.22,4.49,-6.5,4,6
19108.687,0.318,0.808,-0.093,-10.16,5.37,-6.99,4,6
19108.687,0.319,0.809,-0.089,-9.83,6.1,-7.87,4,6
19108.703,0.317,0.816,-0.084,-9.43,6.38,-8.67,4,6
19108.718,0.314,0.823,-0.086,-10.07,6.44,-8.85,4,6
19108.718,0.321,0.827,-0.085,-11.99,6.29,-8.27,4,6
19108.734,0.335,0.831,-0.073,-13.95,6.07,-7.42,4,6
19108.734,0.332,0.839,-0.069,-15.66,6.44,-6.74,4,6
19108.75,0.33,0.843,-0.066,-17.88,6.59,-5.98,4,6
19108.765,0.336,0.847,-0.06,-20.33,6.9,-4.67,4,6
19108.765,0.331,0.849,-0.056,-22.68,7.84,-3.2,4,6
19108.781,0.325,0.845,-0.05,-25.09,9.31,-1.62,4,6
19108.781,0.324,0.837,-0.036,-27.86,10.62,-0.4,4,6
19108.796,0.328,0.828,-0.019,-30.27,10.71,-0.31,4,6
19108.812,0.337,0.828,-0.001,-31.07,9.89,-2.23,4,6
19108.828,0.335,0.831,0.016,-30.03,9.03,-5.74,4,6
19108.828,0.321,0.83,0.022,-27.71,7.93,-8.79,4,6
19108.843,0.314,0.83,0.021,-24.57,6.38,-10.56,4,6
19108.843,0.312,0.834,0.021,-22.4,5.4,-11.35,4,6
19108.859,0.305,0.826,0.007,-22.71,5.37,-11.44,4,6
19108.875,0.308,0.825,0.012,-25.45,5.25,-10.38,4,6
19108.875,0.323,0.841,0.031,-28.53,4.46,-9.31,4,6
19108.89,0.338,0.857,0.047,-31.01,2.17,-9.89,4,6
19108.906,0.344,0.866,0.046,-30.95,-0.21,-12.3,4,6
19108.906,0.337,0.873,0.034,-28.66,-1.86,-14.68,4,6
19108.921,0.32,0.877,0.013,-25.18,-3.02,-15.96,4,6
19108.937,0.303,0.874,-0.014,-22.55,-3.39,-15.78,4,6
19108.937,0.307,0.869,-0.041,-22.98,-3.08,-15.87,4,6
19108.953,0.313,0.885,-0.05,-25.94,-1.34,-17.06,4,6
19108.953,0.315,0.897,-0.028,-28.81,1.43,-18.37,4,6
19108.968,0.309,0.899,0.003,-29.27,4.18,-19.14,4,6
19108.984,0.293,0.905,0.03,-28.11,6.56,-18.59,4,6
19108.984,0.271,0.902,0.053,-27.19,7.81,-16.75,4,6
19109.0,0.263,0.889,0.065,-27.83,7.75,-14.59,4,6
19109.015,0.27,0.887,0.078,-30.92,7.17,-13.06,4,6
19109.015,0.27,0.889,0.105,-34.58,5.95,-13.7,4,6
19109.031,0.255,0.879,0.128,-36.62,4.21,-15.63,4,6
19109.046,0.235,0.866,0.139,-35.77,1.71,-17.7,4,6
19109.046,0.218,0.866,0.117,-32.38,-1.01,-19.01,4,6
19109.062,0.218,0.869,0.091,-29.24,-3.11,-19.71,4,6
19109.078,0.223,0.869,0.068,-31.77,-2.66,-22.43,4,6
19109.078,0.24,0.876,0.063,-39.06,-2.01,-24.29,4,6
19109.093,0.237,0.9,0.091,-43.79,-1.71,-25.24,4,6
19109.093,0.25,0.908,0.156,-44.34,-0.67,-24.51,4,6
19109.109,0.24,0.933,0.194,-42.09,-0.03,-20.84,4,6
19109.125,0.225,0.899,0.169,-37.81,-0.43,-15.47,4,6
19109.125,0.217,0.891,0.147,-38.58,-0.4,-10.77,4,6
19109.14,0.229,0.891,0.131,-42.54,0.27,-7.29,4,6
19109.156,0.27,0.887,0.134,-45.35,1.98,-5.71,4,6
19109.156,0.298,0.891,0.144,-42.39,5.8,-7.54,4,6
19109.171,0.28,0.903,0.162,-34.97,11.57,-11.14,4,6
19109.171,0.247,0.912,0.185,-27.5,16.36,-14.04,4,6
19109.187,0.234,0.916,0.202,-23.83,17.64,-14.74,4,6
19109.203,0.227,0.927,0.224,-23.62,16.63,-15.02,4,6
19109.203,0.229,0.93,0.25,-25.51,14.28,-15.08,4,6
19109.218,0.221,0.934,0.282,-29.15,10.9,-15.41,4,6
19109.234,0.194,0.924,0.291,-31.74,7.32,-15.99,4,6
19109.234,0.168,0.907,0.281,-32.29,4.03,-15.23,4,6
19109.25,0.161,0.889,0.252,-31.71,1.16,-12.85,4,6
19109.265,0.211,0.883,0.216,-32.23,-0.67,-10.13,4,6
19109.265,0.257,0.896,0.2,-31.98,0.73,-10.5,4,6
19109.281,0.256,0.904,0.23,-28.78,4.12,-15.2,4,6
19109.296,0.225,0.908,0.262,-22.58,7.02,-21.18,4,6
19109.296,0.18,0.928,0.277,-16.08,8.12,-25.97,4,6
19109.312,0.139,0.935,0.28,-12.85,7.45,-28.35,4,6
19109.312,0.115,0.931,0.276,-14.19,6.1,-27.71,4,6
19109.328,0.136,0.92,0.268,-18.89,4.36,-24.63,4,6
19109.343,0.188,0.926,0.276,-25.67,2.99,-21.21,4,6
19109.343,0.207,0.938,0.293,-31.53,2.44,-20.36,4,6
19109.359,0.197,0.937,0.306,-34.39,2.26,-21.12,4,6
19109.375,0.172,0.931,0.31,-33.85,2.35,-22.43,4,6
19109.375,0.123,0.912,0.315,-30.34,1.68,-23.1,4,6
19109.39,0.1,0.889,0.314,-24.96,0.34,-22.55,4,6
19109.406,0.081,0.865,0.302,-20.2,0.55,-20.94,4,6
19109.406,0.073,0.845,0.286,-19.93,2.17,-17.7,4,6
19109.421,0.085,0.845,0.272,-26.06,4.06,-13.46,4,6
19109.437,0.125,0.854,0.273,-38.45,4.24,-8.55,4,6
19109.437,0.204,0.886,0.311,-51.67,3.54,-5.4,4,6
19109.453,0.222,0.923,0.367,-59.69,4.3,-6.26,4,6
19109.453,0.173,0.912,0.413,-62.32,4.85,-7.93,4,6
19109.468,0.114,0.879,0.443,-57.59,3.3,-8.42,4,6
19109.484,0.062,0.842,0.422,-47.94,-0.15,-8.79,4,6
19109.484,0.061,0.821,0.376,-40.89,-2.96,-9.46,4,6
19109.5,0.085,0.824,0.333,-38.76,-2.62,-11.11,4,6
19109.515,0.128,0.814,0.304,-42.02,0.46,-12.91,4,6
19109.515,0.157,0.82,0.314,-50.78,4.67,-15.32,4,6
19109.531,0.159,0.822,0.357,-58.08,10.65,-17.85,4,6
19109.546,0.115,0.814,0.409,-61.46,16.08,-20.69,4,6
19109.546,0.049,0.793,0.461,-63.33,18.65,-20.94,4,6
19109.562,-0.002,0.779,0.508,-62.69,16.88,-19.84,4,6
19109.562,-0.016,0.774,0.498,-60.34,11.93,-18.52,4,6
19109.578,0.038,0.788,0.485,-61.74,5.16,-18.37,4,6
19109.593,0.095,0.812,0.466,-62.75,0.52,-21.52,4,6
19109.593,0.15,0.823,0.453,-60.73,-1.25,-26.31,4,6
19109.609,0.156,0.832,0.445,-55.76,1.53,-31.77,4,6
19109.625,0.114,0.843,0.439,-50.42,7.32,-36.41,4,6
19109.64,0.058,0.847,0.454,-48.71,12.67,-40.35,4,6
19109.64,-0.003,0.842,0.477,-49.23,15.84,-44.5,4,6
19109.656,-0.015,0.858,0.497,-49.53,15.78,-47.88,4,6
19109.656,0.024,0.897,0.531,-48.59,13.09,-50.75,4,6
19109.671,0.033,0.94,0.54,-44.04,11.17,-54.17,4,6
19109.687,0.028,0.967,0.545,-38.88,9.74,-55.67,4,6
19109.687,-0.009,0.973,0.536,-35.62,9.19,-54.38,4,6
19109.703,-0.064,0.961,0.521,-36.5,8.12,-50.9,4,6
19109.718,-0.088,0.934,0.5,-40.68,6.53,-46.48,4,6
19109.718,-0.069,0.9,0.48,-45.75,5.65,-42.79,4,6
19109.734,-0.01,0.884,0.481,-49.84,6.32,-40.56,4,6
19109.734,0.045,0.892,0.505,-50.78,9.67,-41.02,4,6
19109.75,0.056,0.902,0.55,-48.4,15.53,-43.24,4,6
19109.765,0.018,0.897,0.604,-43.43,20.48,-46.02,4,6
19109.765,-0.045,0.882,0.661,-35.89,21.58,-47.85,4,6
19109.781,-0.109,0.863,0.685,-27.77,18.77,-48.55,4,6
19109.796,-0.131,0.849,0.666,-22.52,13.58,-48.92,4,6
19109.796,-0.09,0.843,0.617,-20.81,8.3,-48.98,4,6
19109.812,-0.043,0.87,0.581,-22.34,6.5,-48.8,4,6
19109.812,-0.032,0.892,0.572,-26.22,8.88,-47.67,4,6
19109.828,-0.044,0.902,0.587,-31.31,12.94,-44.13,4,6
19109.843,-0.077,0.903,0.617,-35.65,16.48,-38.36,4,6
19109.843,-0.112,0.878,0.644,-38.58,18.01,-31.77,4,6
19109.859,-0.144,0.842,0.652,-39.64,17.49,-25.7,4,6
19109.875,-0.13,0.829,0.652,-39.46,14.65,-20.66,4,6
19109.89,-0.086,0.834,0.65,-39.37,11.47,-18.04,4,6
19109.89,-0.055,0.828,0.637,-38.88,10.41,-18.49,4,6
19109.906,-0.038,0.811,0.642,-36.23,11.29,-19.93,4,6
19109.906,-0.048,0.8,0.647,-31.22,13.98,-21.73,4,6
19109.921,-0.09,0.792,0.658,-27.47,16.88,-23.8,4,6
19109.921,-0.143,0.763,0.676,-25.45,18.49,-25.7,4,6
19109.937,-0.181,0.73,0.692,-23.83,18.16,-27.25,4,6
19109.953,-0.209,0.708,0.689,-22.49,17.3,-28.66,4,6
19109.968,-0.217,0.687,0.68,-22.31,15.87,-30.03,4,6
19109.968,-0.19,0.687,0.677,-23.41,14.19,-31.4,4,6
19109.984,-0.168,0.72,0.681,-25.18,13.46,-33.48,4,6
19109.984,-0.161,0.735,0.68,-26.4,12.94,-34.73,4,6
19110.0,-0.151,0.761,0.694,-27.77,11.41,-34.06,4,6
19110.015,-0.148,0.78,0.704,-28.78,9.67,-32.84,4,6
19110.015,-0.164,0.772,0.705,-29.91,8.06,-31.19,4,6
19110.031,-0.177,0.756,0.697,-31.28,6.07,-28.57,4,6
19110.046,-0.177,0.753,0.68,-33.27,4.67,-25.54,4,6
19110.046,-0.173,0.75,0.672,-36.1,6.5,-24.99,4,6
19110.062,-0.178,0.74,0.664,-35.22,8.48,-26.18,4,6
19110.062,-0.187,0.737,0.673,-32.26,10.28,-28.17,4,6
19110.078,-0.202,0.739,0.679,-29.39,11.51,-29.63,4,6
19110.093,-0.229,0.724,0.689,-27.95,12.36,-29.42,4,6
19110.093,-0.22,0.716,0.696,-28.96,12.05,-27.28,4,6
19110.109,-0.205,0.7,0.698,-31.5,11.72,-24.02,4,6
19110.125,-0.195,0.691,0.712,-34.88,11.41,-21.36,4,6
19110.14,-0.19,0.675,0.732,-38.06,11.05,-20.29,4,6
19110.14,-0.189,0.649,0.74,-38.85,10.16,-20.54,4,6
19110.156,-0.187,0.635,0.742,-36.84,9.43,-22.22,4,6
19110.156,-0.178,0.63,0.747,-33.54,8.73,-25.45,4,6
19110.171,-0.176,0.645,0.737,-29.3,9.22,-29.21,4,6
19110.187,-0.185,0.654,0.732,-24.96,10.35,-31.53,4,6
19110.187,-0.194,0.655,0.729,-21.12,11.84,-32.81,4,6
19110.203,-0.218,0.665,0.737,-19.01,13.79,-33.54,4,6
19110.203,-0.252,0.669,0.76,-19.9,14.53,-33.05,4,6
19110.218,-0.27,0.657,0.778,-22.52,12.79,-31.53,4,6
19110.234,-0.273,0.648,0.776,-24.2,10.07,-29.51,4,6
19110.234,-0.265,0.64,0.759,-24.93,7.54,-27.34,4,6
19110.25,-0.258,0.634,0.745,-25.48,6.81,-25.27,4,6
19110.265,-0.266,0.633,0.732,-26.95,8.03,-23.32,4,6
19110.265,-0.284,0.627,0.734,-30.27,9.64,-21.15,4,6
19110.281,-0.286,0.613,0.745,-33.81,10.65,-18.98,4,6
19110.296,-0.289,0.599,0.755,-35.1,11.81,-17.3,4,6
19110.296,-0.302,0.59,0.77,-34.21,12.88,-16.17,4,6
19110.312,-0.323,0.582,0.785,-32.78,12.73,-15.23,4,6
19110.312,-0.322,0.57,0.794,-32.23,10.68,-13.92,4,6
19110.328,-0.312,0.562,0.786,-31.98,8.88,-12.82,4,6
19110.343,-0.304,0.542,0.777,-32.32,8.3,-11.96,4,6
19110.359,-0.3,0.517,0.769,-32.84,9.25,-11.9,4,6
19110.359,-0.298,0.503,0.766,-32.65,10.86,-12.85,4,6
19110.375,-0.303,0.493,0.772,-32.23,12.15,-15.32,4,6
19110.375,-0.309,0.479,0.784,-31.46,12.48,-18.74,4,6
19110.39,-0.311,0.47,0.787,-29.21,12.18,-21.97,4,6
19110.406,-0.322,0.464,0.792,-25.67,12.27,-24.93,4,6
19110.406,-0.344,0.459,0.793,-22.46,12.6,-27.74,4,6
19110.421,-0.369,0.455,0.788,-20.63,12.67,-29.94,4,6
19110.437,-0.381,0.453,0.786,-19.81,11.69,-31.46,4,6
19110.437,-0.382,0.456,0.776,-19.26,10.32,-33.17,4,6
19110.453,-0.374,0.459,0.767,-18.83,8.94,-34.67,4,6
19110.453,-0.366,0.456,0.757,-17.06,8.61,-36.53,4,6
19110.468,-0.373,0.464,0.743,-13.82,9.7,-38.82,4,6
19110.484,-0.387,0.475,0.742,-11.9,10.86,-40.74,4,6
19110.484,-0.397,0.48,0.749,-10.93,12.42,-40.93,4,6
19110.5,-0.406,0.479,0.758,-9.83,14.22,-39.49,4,6
19110.515,-0.413,0.474,0.769,-9.98,16.48,-36.74,4,6
19110.531,-0.426,0.466,0.787,-11.75,18.86,-34.49,4,6
19110.531,-0.44,0.452,0.81,-13.86,20.45,-33.17,4,6
19110.531,-0.453,0.443,0.822,-15.9,20.84,-31.71,4,6
19110.546,-0.457,0.448,0.828,-18.19,20.39,-30.15,4,6
19110.562,-0.45,0.457,0.831,-21.39,18.68,-29.42,4,6
19110.562,-0.433,0.449,0.832,-23.71,16.97,-29.11,4,6
19110.578,-0.419,0.445,0.827,-23.77,16.82,-28.93,4,6
19110.593,-0.41,0.453,0.821,-22.31,17.61,-28.41,4,6
19110.609,-0.412,0.446,0.818,-20.97,18.89,-27.92,4,6
19110.609,-0.424,0.439,0.825,-20.6,20.08,-26.92,4,6
19110.625,-0.438,0.446,0.835,-21.49,20.84,-24.9,4,6
19110.625,-0.439,0.45,0.847,-24.87,20.75,-21.88,4,6
19110.64,-0.438,0.451,0.853,-29.88,20.26,-18.49,4,6
19110.656,-0.432,0.447,0.866,-35.65,19.14,-15.38,4,6
19110.656,-0.42,0.416,0.89,-39.43,17.21,-13.43,4,6
19110.671,-0.409,0.387,0.896,-37.35,15.35,-13.89,4,6
19110.687,-0.401,0.385,0.887,-31.92,14.28,-16.45,4,6
19110.687,-0.394,0.383,0.879,-26.28,13.64,-20.54,4,6
19110.703,-0.386,0.391,0.873,-21.24,13.49,-24.96,4,6
19110.703,-0.372,0.404,0.873,-16.66,13.89,-29.33,4,6
19110.718,-0.359,0.435,0.876,-12.63,15.11,-33.97,4,6
19110.734,-0.377,0.46,0.884,-9.31,18.43,-38.82,4,6
19110.734,-0.44,0.443,0.909,-6.47,19.65,-38.73,4,6
19110.75,-0.462,0.446,0.929,-2.29,13.79,-31.43,4,6
19110.765,-0.431,0.485,0.937,0.73,8.3,-23.35,4,6
19110.765,-0.416,0.5,0.918,-0.09,6.23,-16.72,4,6
19110.781,-0.412,0.479,0.892,-4.09,6.04,-9.4,4,6
19110.781,-0.408,0.451,0.878,-6.26,7.14,-1.95,4,6
19110.796,-0.417,0.4,0.861,-2.69,9.25,4.15,4,6
19110.812,-0.42,0.339,0.836,4.64,12.09,7.93,4,6
19110.812,-0.415,0.327,0.821,12.02,17.88,5.49,4,6
19110.828,-0.445,0.316,0.834,14.31,23.96,-4.21,4,6
19110.843,-0.48,0.285,0.867,11.75,25.06,-20.91,4,6
19110.843,-0.545,0.292,0.905,12.48,21.09,-40.41,4,6
19110.859,-0.584,0.302,0.909,17.76,11.96,-56.46,4,6
19110.875,-0.576,0.329,0.872,25.48,2.72,-66.32,4,6
19110.875,-0.531,0.353,0.81,33.3,-2.93,-68.03,4,6
19110.89,-0.479,0.371,0.766,34.18,-4.79,-62.04,4,6
19110.906,-0.463,0.416,0.754,27.59,-0.92,-53.59,4,6
19110.906,-0.491,0.41,0.757,16.08,4.49,-44.86,4,6
19110.921,-0.523,0.376,0.769,3.6,7.48,-36.41,4,6
19110.921,-0.569,0.359,0.779,-5.46,8.7,-30.58,4,6
19110.937,-0.613,0.329,0.784,-11.54,6.99,-28.57,4,6
19110.953,-0.646,0.313,0.779,-16.72,2.93,-29.79,4,6
19110.953,-0.644,0.305,0.759,-21.24,-2.56,-32.07,4,6
19110.968,-0.628,0.313,0.729,-24.99,-5.28,-34.0,4,6
19110.984,-0.624,0.314,0.711,-30.21,-5.89,-32.99,4,6
19110.984,-0.61,0.33,0.718,-36.93,-5.1,-29.02,4,6
19111.0,-0.607,0.331,0.737,-42.85,-1.98,-24.2,4,6
19111.015,-0.612,0.304,0.766,-46.85,0.34,-20.17,4,6
19111.015,-0.62,0.286,0.786,-47.52,-0.27,-17.79,4,6
19111.031,-0.608,0.272,0.785,-44.25,-3.94,-22.34,4,6
19111.031,-0.591,0.254,0.784,-42.94,-6.07,-28.08,4,6
19111.046,-0.598,0.226,0.787,-40.68,-8.85,-33.97,4,6
19111.062,-0.589,0.223,0.787,-39.09,-10.9,-38.7,4,6
19111.062,-0.589,0.248,0.77,-39.4,-11.99,-41.87,4,6
19111.078,-0.58,0.271,0.759,-41.81,-11.93,-43.43,4,6
19111.093,-0.56,0.275,0.751,-46.21,-10.65,-42.54,4,6
19111.109,-0.54,0.274,0.757,-50.9,-7.23,-39.64,4,6
19111.109,-0.543,0.295,0.76,-55.51,-2.59,-35.28,4,6
19111.125,-0.56,0.3,0.786,-61.68,0.18,-31.37,4,6
19111.125,-0.589,0.282,0.823,-65.77,0.31,-27.92,4,6
19111.14,-0.611,0.251,0.84,-65.71,-1.98,-24.26,4,6
19111.156,-0.597,0.21,0.834,-63.2,-5.83,-20.54,4,6
19111.156,-0.587,0.187,0.811,-58.26,-7.9,-18.83,4,6
19111.171,-0.587,0.169,0.785,-51.79,-7.39,-19.04,4,6
19111.187,-0.582,0.157,0.771,-44.92,-5.37,-21.64,4,6
19111.187,-0.591,0.155,0.772,-37.2,-2.17,-26.67,4,6
19111.203,-0.62,0.162,0.762,-30.52,1.5,-33.14,4,6
19111.203,-0.64,0.171,0.759,-26.55,4.67,-39.06,4,6
19111.218,-0.656,0.175,0.76,-22.74,7.23,-42.51,4,6
19111.234,-0.641,0.174,0.747,-18.71,9.64,-42.15,4,6
19111.25,-0.63,0.166,0.756,-16.88,12.39,-40.41,4,6
19111.25,-0.632,0.164,0.775,-14.56,13.73,-38.91,4,6
19111.265,-0.631,0.178,0.793,-14.44,13.49,-37.35,4,6
19111.265,-0.629,0.195,0.808,-17.76,10.83,-34.55,4,6
19111.281,-0.611,0.194,0.806,-21.52,7.75,-29.21,4,6
19111.296,-0.589,0.177,0.795,-26.0,6.35,-21.73,4,6
19111.296,-0.59,0.147,0.784,-28.6,6.26,-13.98,4,6
19111.312,-0.599,0.127,0.772,-28.2,7.78,-8.12,4,6
19111.312,-0.597,0.105,0.761,-27.1,8.76,-4.49,4,6
19111.328,-0.6,0.085,0.752,-25.64,9.46,-4.09,4,6
19111.343,-0.596,0.072,0.745,-22.25,10.86,-6.04,4,6
19111.343,-0.592,0.062,0.748,-17.61,12.82,-8.91,4,6
19111.359,-0.58,0.055,0.759,-13.73,15.08,-11.54,4,6
19111.375,-0.596,0.066,0.773,-11.72,17.52,-13.28,4,6
19111.39,-0.624,0.075,0.783,-12.3,18.28,-14.59,4,6
19111.39,-0.634,0.072,0.788,-14.4,17.0,-15.05,4,6
19111.406,-0.631,0.052,0.796,-14.1,14.8,-16.21,4,6
19111.406,-0.642,0.044,0.801,-8.27,13.52,-18.8,4,6
19111.421,-0.652,0.032,0.8,1.77,11.51,-21.61,4,6
19111.437,-0.611,0.017,0.782,12.3,9.16,-23.5,4,6
19111.437,-0.567,0.019,0.756,19.07,10.1,-24.6,4,6
19111.453,-0.567,0.022,0.75,20.57,12.82,-25.97,4,6
19111.453,-0.552,0.014,0.762,17.82,14.4,-26.15,4,6
19111.468,-0.551,0.009,0.788,13.31,15.08,-25.76,4,6
19111.484,-0.571,0.017,0.818,10.25,13.7,-25.82,4,6
19111.484,-0.58,0.017,0.839,10.41,9.55,-26.31,4,6
19111.5,-0.578,0.012,0.841,14.62,4.97,-27.65,4,6
19111.515,-0.592,0.02,0.815,21.67,2.04,-29.02,4,6
19111.515,-0.609,0.037,0.771,27.13,0.12,-29.24,4,6
19111.531,-0.602,0.052,0.736,27.92,-0.46,-27.68,4,6
19111.546,-0.603,0.064,0.714,25.48,1.1,-25.85,4,6
19111.546,-0.593,0.057,0.716,21.97,4.36,-23.83,4,6
19111.562,-0.567,0.045,0.746,17.85,8.64,-20.14,4,6
19111.562,-0.578,0.055,0.779,13.67,12.91,-17.09,4,6
19111.578,-0.608,0.051,0.813,10.32,15.02,-15.17,4,6
19111.593,-0.63,0.038,0.852,8.64,13.4,-14.22,4,6
19111.609,-0.63,0.033,0.865,9.67,9.25,-14.04,4,6
19111.609,-0.617,0.03,0.839,11.57,5.1,-13.12,4,6
19111.625,-0.612,0.036,0.808,11.57,2.72,-11.69,4,6
19111.625,-0.624,0.049,0.789,9.58,2.23,-10.13,4,6
19111.64,-0.617,0.05,0.778,5.8,2.32,-7.45,4,6
19111.656,-0.619,0.043,0.771,2.38,3.05,-4.67,4,6
19111.656,-0.615,0.034,0.761,1.86,4.46,-2.47,4,6
19111.671,-0.609,0.031,0.754,3.02,6.81,-1.37,4,6
19111.671,-0.624,0.031,0.758,4.33,9.43,-2.04,4,6
19111.687,-0.632,0.018,0.769,5.25,10.47,-3.05,4,6
19111.703,-0.628,0.005,0.778,5.68,10.25,-4.06,4,6
19111.703,-0.632,-0.007,0.787,7.23,9.55,-5.58,4,6
19111.718,-0.63,-0.011,0.795,8.55,8.33,-6.71,4,6
