timestamp,ax,ay,az,gx,gy,gz,orient_label,motion_label
18310.953,0.085,-0.923,0.375,0.46,-1.28,-4.12,3,2
18310.953,0.064,-0.917,0.371,2.84,0.09,-4.36,3,2
18310.968,0.068,-0.907,0.37,3.2,0.64,-3.02,3,2
18310.984,0.097,-0.912,0.372,1.28,1.4,-1.5,3,2
18311.0,0.099,-0.928,0.375,-0.92,3.69,-0.46,3,2
18311.0,0.095,-0.935,0.393,-2.26,5.31,0.55,3,2
18311.015,0.08,-0.931,0.416,-2.38,5.28,0.92,3,2
18311.015,0.076,-0.93,0.428,-2.62,3.27,0.89,3,2
18311.031,0.087,-0.942,0.424,-2.23,0.31,-0.12,3,2
18311.046,0.099,-0.951,0.415,-0.52,-1.86,-1.86,3,2
18311.046,0.094,-0.94,0.405,1.53,-2.26,-3.6,3,2
18311.062,0.086,-0.931,0.399,2.26,-2.5,-4.21,3,2
18311.062,0.098,-0.929,0.392,0.92,-3.11,-3.97,3,2
18311.078,0.1,-0.93,0.383,-0.21,-2.41,-3.69,3,2
18311.093,0.097,-0.927,0.38,-0.49,-1.04,-2.99,3,2
18311.093,0.105,-0.92,0.372,-0.4,0.43,-2.35,3,2
18311.109,0.104,-0.913,0.382,-0.43,1.89,-2.53,3,2
18311.125,0.079,-0.894,0.416,0.37,2.14,-0.18,3,2
18311.14,0.103,-0.905,0.413,-0.55,0.58,1.8,3,2
18311.14,0.116,-0.93,0.403,-1.86,-0.15,2.04,3,2
18311.156,0.12,-0.947,0.401,-2.26,-0.12,0.76,3,2
18311.171,0.108,-0.949,0.402,-0.79,0.43,-1.31,3,2
18311.171,0.092,-0.937,0.399,0.49,0.34,-2.9,3,2
18311.187,0.078,-0.925,0.406,0.82,-0.31,-3.51,3,2
18311.203,0.083,-0.917,0.399,0.34,-1.34,-3.14,3,2
18311.203,0.086,-0.915,0.394,-0.37,-1.5,-2.38,3,2
18311.218,0.089,-0.913,0.398,-1.16,-1.37,-1.28,3,2
18311.234,0.083,-0.906,0.396,-1.83,-0.76,-0.15,3,2
18311.234,0.083,-0.915,0.397,-2.87,-0.55,1.37,3,2
18311.25,0.103,-0.928,0.394,-3.45,-1.31,1.74,3,2
18311.265,0.114,-0.939,0.39,-2.35,-1.56,0.15,3,2
18311.265,0.104,-0.935,0.389,0.34,-1.46,-2.41,3,2
18311.281,0.089,-0.92,0.392,3.14,-1.46,-4.12,3,2
18311.296,0.093,-0.902,0.38,5.62,-1.62,-3.63,3,2
18311.312,0.098,-0.908,0.376,4.76,-0.43,-2.29,3,2
18311.312,0.104,-0.913,0.385,2.93,1.28,-0.95,3,2
18311.328,0.094,-0.925,0.393,1.07,2.69,-0.18,3,2
18311.343,0.085,-0.933,0.406,-0.64,3.11,0.21,3,2
18311.343,0.083,-0.938,0.414,-1.43,2.62,-0.12,3,2
18311.359,0.08,-0.946,0.417,-0.67,1.89,-1.25,3,2
18311.375,0.088,-0.945,0.415,1.65,0.85,-2.9,3,2
18311.375,0.093,-0.928,0.412,4.06,0.43,-4.3,3,2
18311.39,0.097,-0.919,0.403,4.27,0.31,-5.13,3,2
18311.406,0.096,-0.909,0.4,2.66,0.85,-5.04,3,2
18311.406,0.094,-0.909,0.398,0.95,1.92,-3.97,3,2
18311.421,0.101,-0.914,0.397,-0.27,2.96,-2.69,3,2
18311.437,0.106,-0.918,0.4,-0.61,4.18,-2.04,3,2
18311.437,0.098,-0.92,0.406,0.0,4.97,-2.29,3,2
18311.453,0.092,-0.92,0.416,0.73,4.85,-2.53,3,2
18311.468,0.121,-0.927,0.411,0.7,2.78,-3.57,3,2
18311.484,0.127,-0.93,0.41,0.15,2.62,-4.39,3,2
18311.484,0.129,-0.931,0.413,0.09,2.99,-5.04,3,2
18311.5,0.12,-0.924,0.423,0.55,3.63,-5.34,3,2
18311.515,0.1,-0.914,0.428,0.73,3.51,-4.97,3,2
18311.531,0.091,-0.912,0.431,-0.31,2.17,-3.97,3,2
18311.531,0.089,-0.925,0.434,-1.1,0.34,-3.02,3,2
18311.531,0.102,-0.926,0.421,-0.67,-1.5,-2.75,3,2
18311.546,0.098,-0.923,0.403,0.18,-2.29,-3.66,3,2
18311.562,0.097,-0.918,0.392,0.03,-2.53,-4.12,3,2
18311.562,0.106,-0.916,0.386,-0.31,-2.32,-4.06,3,2
18311.578,0.105,-0.917,0.383,0.09,-0.85,-4.24,3,2
18311.593,0.096,-0.909,0.383,1.01,1.01,-4.15,3,2
18311.593,0.096,-0.904,0.388,1.07,2.72,-2.96,3,2
18311.609,0.106,-0.907,0.399,0.43,3.85,-1.71,3,2
18311.625,0.104,-0.911,0.409,0.61,4.7,-1.16,3,2
18311.625,0.1,-0.91,0.415,1.04,5.07,-0.76,3,2
18311.64,0.113,-0.914,0.414,0.49,4.67,-0.58,3,2
18311.656,0.13,-0.924,0.42,-0.06,4.55,-1.19,3,2
18311.656,0.128,-0.928,0.426,0.73,5.22,-2.17,3,2
18311.671,0.113,-0.924,0.433,1.62,5.71,-2.62,3,2
18311.687,0.107,-0.921,0.44,1.53,4.61,-3.08,3,2
18311.687,0.101,-0.918,0.442,1.1,2.87,-3.81,3,2
18311.703,0.087,-0.916,0.436,1.4,1.59,-3.69,3,2
18311.703,0.081,-0.907,0.424,1.68,0.24,-2.59,3,2
18311.718,0.094,-0.908,0.406,0.34,-0.43,-1.59,3,2
18311.734,0.096,-0.917,0.39,-1.83,0.98,-1.16,3,2
18311.75,0.093,-0.928,0.385,-3.6,3.42,-0.43,3,2
18311.75,0.097,-0.938,0.387,-4.52,6.01,0.12,3,2
18311.765,0.101,-0.939,0.4,-4.58,8.15,-0.43,3,2
18311.765,0.096,-0.935,0.409,-3.75,9.13,-2.01,3,2
18311.781,0.09,-0.928,0.425,-2.99,8.48,-3.36,3,2
18311.796,0.098,-0.913,0.429,-1.8,6.59,-4.18,3,2
18311.796,0.104,-0.902,0.425,-0.55,5.4,-4.7,3,2
18311.812,0.109,-0.894,0.415,0.15,4.79,-4.03,3,2
18311.828,0.122,-0.894,0.405,-1.01,5.77,-2.29,3,2
18311.828,0.123,-0.903,0.397,-1.04,7.6,-2.08,3,2
18311.843,0.111,-0.913,0.396,-0.7,8.85,-2.38,3,2
18311.843,0.1,-0.921,0.396,-0.79,9.52,-3.36,3,2
18311.859,0.082,-0.942,0.401,-1.16,10.04,-4.49,3,2
18311.875,0.079,-0.95,0.408,-0.64,10.68,-5.31,3,2
18311.89,0.077,-0.946,0.417,-0.27,11.23,-5.58,3,2
18311.89,0.077,-0.944,0.42,-0.92,10.96,-5.58,3,2
18311.906,0.089,-0.952,0.425,-2.26,9.7,-5.13,3,2
18311.906,0.108,-0.953,0.423,-2.9,8.36,-5.01,3,2
18311.921,0.122,-0.948,0.417,-2.69,7.26,-5.77,3,2
18311.937,0.129,-0.934,0.414,-2.01,6.53,-6.87,3,2
18311.937,0.13,-0.915,0.412,-1.37,5.77,-8.06,3,2
18311.953,0.133,-0.896,0.407,-0.52,5.01,-8.76,3,2
18311.968,0.124,-0.877,0.404,0.67,4.7,-8.39,3,2
18311.968,0.126,-0.866,0.396,1.56,4.43,-7.26,3,2
18311.984,0.128,-0.864,0.388,1.65,4.39,-6.2,3,2
18311.984,0.124,-0.868,0.385,1.71,4.79,-5.58,3,2
18312.0,0.113,-0.872,0.38,2.47,5.62,-4.94,3,2
18312.015,0.11,-0.875,0.376,3.08,6.47,-4.94,3,2
18312.015,0.109,-0.879,0.38,3.88,7.48,-5.34,3,2
18312.031,0.117,-0.875,0.389,5.55,8.64,-5.49,3,2
18312.046,0.131,-0.859,0.402,7.39,9.8,-6.01,3,2
18312.046,0.126,-0.846,0.417,8.42,11.08,-6.71,3,2
18312.062,0.129,-0.84,0.437,8.21,11.96,-6.35,3,2
18312.078,0.134,-0.842,0.453,7.87,13.06,-5.13,3,2
18312.078,0.137,-0.851,0.469,7.63,14.47,-3.78,3,2
18312.093,0.139,-0.858,0.485,6.59,15.29,-2.75,3,2
18312.093,0.135,-0.877,0.498,5.28,15.32,-2.04,3,2
18312.109,0.132,-0.905,0.504,3.75,15.08,-2.01,3,2
18312.125,0.126,-0.927,0.509,2.47,15.56,-2.69,3,2
18312.125,0.111,-0.95,0.506,0.79,16.6,-3.6,3,2
18312.14,0.102,-0.973,0.504,-1.95,17.76,-4.06,3,2
18312.156,0.092,-0.99,0.501,-4.7,18.43,-5.13,3,2
18312.156,0.074,-1.0,0.495,-6.9,17.98,-7.02,3,2
18312.171,0.076,-1.001,0.487,-8.09,15.66,-9.06,3,2
18312.171,0.098,-0.987,0.462,-7.2,12.82,-11.2,3,2
18312.187,0.121,-0.967,0.428,-5.89,10.41,-13.58,3,2
18312.203,0.137,-0.947,0.411,-5.43,9.0,-15.87,3,2
18312.203,0.14,-0.923,0.399,-4.64,8.45,-17.27,3,2
18312.218,0.131,-0.895,0.391,-3.02,8.3,-17.0,3,2
18312.234,0.118,-0.876,0.382,-2.17,7.54,-15.11,3,2
18312.234,0.117,-0.871,0.372,-2.84,6.23,-12.15,3,2
18312.25,0.122,-0.878,0.363,-4.33,5.28,-8.45,3,2
18312.265,0.128,-0.892,0.349,-5.49,4.91,-4.52,3,2
18312.281,0.134,-0.91,0.337,-6.9,5.22,-0.98,3,2
18312.281,0.142,-0.936,0.335,-8.79,6.29,1.53,3,2
18312.281,0.145,-0.958,0.342,-9.89,7.75,2.78,3,2
18312.296,0.135,-0.972,0.357,-9.55,9.34,2.99,3,2
18312.312,0.118,-0.972,0.372,-8.79,9.83,2.35,3,2
18312.328,0.123,-0.971,0.378,-8.36,5.43,-0.52,3,2
18312.343,0.121,-0.956,0.371,-7.93,3.08,-1.98,3,2
18312.343,0.119,-0.942,0.36,-7.69,0.92,-2.56,3,2
18312.359,0.122,-0.927,0.349,-7.69,-1.01,-2.44,3,2
18312.375,0.126,-0.92,0.336,-7.84,-2.08,-2.01,3,2
18312.375,0.135,-0.919,0.326,-7.87,-2.47,-1.4,3,2
18312.39,0.135,-0.915,0.325,-7.2,-1.89,-1.22,3,2
18312.406,0.128,-0.914,0.328,-6.07,-1.01,-1.65,3,2
18312.406,0.115,-0.913,0.334,-4.46,-0.12,-2.11,3,2
18312.421,0.098,-0.911,0.34,-2.47,0.34,-2.75,3,2
18312.437,0.09,-0.911,0.345,-0.46,0.21,-2.9,3,2
18312.437,0.087,-0.908,0.344,1.43,0.67,-2.59,3,2
18312.453,0.088,-0.913,0.347,3.39,1.46,-1.86,3,2
18312.453,0.098,-0.913,0.351,4.94,2.59,-1.25,3,2
18312.468,0.116,-0.914,0.361,5.34,4.03,-1.07,3,2
18312.484,0.111,-0.916,0.379,5.58,6.29,-1.25,3,2
18312.5,0.122,-0.916,0.415,4.91,10.13,0.85,3,2
18312.515,0.123,-0.925,0.429,3.78,11.78,1.01,3,2
18312.531,0.124,-0.934,0.441,3.57,12.21,0.46,3,2
18312.531,0.122,-0.931,0.442,4.46,11.63,-0.64,3,2
18312.546,0.121,-0.924,0.44,5.01,10.56,-2.44,3,2
18312.546,0.12,-0.915,0.429,4.79,9.34,-3.97,3,2
18312.562,0.125,-0.908,0.419,4.58,8.82,-5.4,3,2
18312.562,0.127,-0.895,0.409,5.86,9.7,-6.93,3,2
18312.578,0.126,-0.876,0.399,7.87,11.38,-8.06,3,2
18312.593,0.124,-0.859,0.405,9.13,13.31,-8.85,3,2
18312.593,0.113,-0.843,0.417,9.67,15.84,-8.97,3,2
18312.609,0.092,-0.837,0.426,9.61,18.86,-6.81,3,2
18312.625,0.09,-0.837,0.434,8.21,21.06,-3.48,3,2
18312.625,0.09,-0.851,0.439,6.23,22.64,-1.34,3,2
18312.64,0.092,-0.877,0.457,4.64,23.41,-0.24,3,2
18312.656,0.099,-0.897,0.463,4.61,23.96,-0.06,3,2
18312.671,0.098,-0.926,0.468,5.98,25.21,-2.41,3,2
18312.687,0.094,-0.934,0.465,5.62,26.09,-3.42,3,2
18312.687,0.096,-0.942,0.468,4.97,26.64,-4.97,3,2
18312.703,0.099,-0.94,0.473,4.82,27.38,-6.87,3,2
18312.703,0.094,-0.937,0.469,4.03,28.2,-8.36,3,2
18312.718,0.09,-0.937,0.465,2.59,28.11,-10.07,3,2
18312.734,0.091,-0.938,0.459,1.59,27.5,-12.57,3,2
18312.734,0.09,-0.933,0.445,2.2,27.56,-14.44,3,2
18312.75,0.092,-0.917,0.44,2.78,28.32,-15.05,3,2
18312.765,0.089,-0.911,0.428,1.25,29.57,-14.71,3,2
18312.765,0.087,-0.913,0.426,-2.44,31.43,-13.18,3,2
18312.781,0.084,-0.92,0.43,-6.35,33.3,-10.96,3,2
18312.796,0.081,-0.931,0.43,-9.7,34.33,-9.13,3,2
18312.796,0.079,-0.94,0.431,-12.42,34.0,-8.48,3,2
18312.812,0.076,-0.939,0.424,-12.82,30.82,-9.89,3,2
18312.828,0.086,-0.934,0.415,-11.54,29.3,-11.54,3,2
18312.843,0.099,-0.927,0.396,-8.97,28.11,-15.44,3,2
18312.843,0.08,-0.91,0.4,-7.69,27.5,-17.33,3,2
18312.859,0.067,-0.907,0.402,-6.56,26.09,-18.01,3,2
18312.875,0.055,-0.912,0.393,-5.31,24.26,-17.7,3,2
18312.875,0.053,-0.925,0.376,-4.82,22.49,-16.39,3,2
18312.89,0.071,-0.945,0.351,-5.86,21.27,-14.59,3,2
18312.906,0.088,-0.968,0.32,-7.17,21.45,-14.22,3,2
18312.906,0.102,-0.983,0.308,-7.39,22.52,-15.47,3,2
18312.921,0.113,-0.98,0.307,-5.55,24.32,-17.3,3,2
18312.921,0.11,-0.951,0.314,-2.5,25.97,-18.8,3,2
18312.937,0.115,-0.927,0.332,-0.18,26.89,-18.77,3,2
18312.953,0.125,-0.901,0.352,0.67,27.68,-16.69,3,2
18312.953,0.131,-0.887,0.365,0.85,27.44,-14.22,3,2
18312.968,0.137,-0.884,0.376,0.52,26.34,-11.81,3,2
18312.984,0.136,-0.883,0.382,0.52,24.75,-9.46,3,2
18312.984,0.132,-0.893,0.38,0.4,23.26,-6.62,3,2
18313.015,0.142,-0.936,0.38,-0.89,19.59,-3.39,3,2
18313.031,0.136,-0.948,0.38,0.64,18.46,-3.75,3,2
18313.031,0.138,-0.953,0.388,1.83,17.33,-4.76,3,2
18313.031,0.127,-0.954,0.398,1.89,16.33,-5.83,3,2
18313.046,0.109,-0.955,0.406,1.62,15.05,-6.26,3,2
18313.062,0.099,-0.952,0.412,1.34,13.03,-5.74,3,2
18313.062,0.091,-0.949,0.406,0.85,10.77,-5.22,3,2
18313.078,0.089,-0.951,0.399,-0.24,8.03,-4.58,3,2
18313.093,0.1,-0.953,0.389,-1.13,5.83,-4.27,3,2
18313.093,0.11,-0.949,0.377,-1.37,4.58,-4.36,3,2
18313.109,0.112,-0.946,0.371,-1.4,4.03,-4.76,3,2
18313.125,0.119,-0.932,0.369,-1.07,3.3,-5.46,3,2
18313.125,0.12,-0.914,0.375,0.09,2.38,-6.47,3,2
18313.14,0.113,-0.894,0.384,2.5,1.59,-6.84,3,2
18313.156,0.108,-0.866,0.385,5.1,0.64,-5.65,3,2
18313.171,0.107,-0.852,0.38,5.95,-0.82,-3.33,3,2
18313.171,0.113,-0.87,0.37,3.3,-2.9,2.9,3,2
18313.187,0.12,-0.894,0.363,2.29,-3.05,5.16,3,2
18313.203,0.122,-0.912,0.362,1.62,-2.62,5.65,3,2
18313.203,0.117,-0.933,0.371,1.46,-1.74,5.07,3,2
18313.218,0.11,-0.942,0.387,2.81,-1.01,4.03,3,2
18313.234,0.096,-0.935,0.405,4.61,-1.19,2.5,3,2
18313.234,0.078,-0.927,0.427,5.34,-2.66,1.37,3,2
18313.25,0.086,-0.925,0.44,5.07,-5.68,1.4,3,2
18313.265,0.104,-0.926,0.439,5.49,-8.33,1.16,3,2
18313.265,0.115,-0.92,0.43,6.01,-9.89,0.95,3,2
18313.281,0.128,-0.917,0.423,5.28,-10.74,0.7,3,2
18313.296,0.136,-0.918,0.423,3.63,-10.8,-0.03,3,2
18313.296,0.133,-0.916,0.428,2.81,-10.22,-0.92,3,2
18313.312,0.124,-0.912,0.434,2.66,-9.64,-1.22,3,2
18313.312,0.119,-0.909,0.438,1.92,-9.83,-1.34,3,2
18313.328,0.114,-0.914,0.443,1.1,-10.5,-1.65,3,2
18313.343,0.102,-0.92,0.441,2.62,-12.57,-3.17,3,2
18313.359,0.101,-0.912,0.439,4.36,-13.52,-4.0,3,2
18313.375,0.105,-0.905,0.427,5.98,-13.95,-4.24,3,2
18313.375,0.109,-0.9,0.417,5.83,-13.28,-3.75,3,2
18313.39,0.108,-0.894,0.417,4.67,-11.35,-2.32,3,2
18313.406,0.113,-0.892,0.419,2.62,-9.0,-0.06,3,2
18313.406,0.108,-0.893,0.428,-0.18,-6.26,1.98,3,2
18313.421,0.097,-0.902,0.438,-1.95,-4.43,3.66,3,2
18313.437,0.093,-0.911,0.448,-2.62,-4.0,4.39,3,2
18313.437,0.094,-0.923,0.448,-1.86,-4.27,3.78,3,2
18313.453,0.095,-0.931,0.444,0.12,-4.7,2.41,3,2
18313.453,0.097,-0.931,0.44,1.98,-4.85,0.89,3,2
18313.468,0.098,-0.932,0.442,3.11,-4.36,-0.52,3,2
18313.484,0.097,-0.926,0.444,3.81,-3.08,-0.98,3,2
18313.484,0.099,-0.914,0.439,3.48,-2.29,-0.73,3,2
18313.5,0.1,-0.912,0.443,1.92,-1.8,-0.85,3,2
18313.515,0.097,-0.912,0.446,1.16,-1.31,-0.95,3,2
18313.531,0.106,-0.907,0.444,0.79,-1.43,-0.55,3,2
18313.546,0.111,-0.9,0.44,-0.4,-0.58,-0.12,3,2
18313.546,0.107,-0.894,0.443,-2.14,0.49,0.52,3,2
18313.562,0.105,-0.902,0.451,-4.49,1.62,2.01,3,2
18313.578,0.101,-0.909,0.463,-5.83,2.2,3.17,3,2
18313.578,0.094,-0.919,0.465,-6.01,1.59,2.56,3,2
18313.593,0.1,-0.929,0.462,-4.73,-0.73,-0.06,3,2
18313.593,0.101,-0.932,0.449,-1.8,-2.75,-3.94,3,2
18313.609,0.104,-0.918,0.435,1.37,-3.78,-7.26,3,2
18313.625,0.112,-0.9,0.421,3.08,-3.75,-9.16,3,2
18313.625,0.116,-0.889,0.411,2.35,-3.27,-9.86,3,2
18313.64,0.118,-0.882,0.412,0.46,-2.38,-10.1,3,2
18313.656,0.115,-0.879,0.415,-0.58,-1.31,-9.74,3,2
18313.656,0.114,-0.87,0.42,-1.56,-1.13,-8.73,3,2
18313.671,0.111,-0.871,0.419,-1.65,-1.1,-7.69,3,2
18313.687,0.124,-0.868,0.413,-1.95,-2.29,-5.07,3,2
18313.703,0.135,-0.879,0.409,-2.35,-2.59,-3.91,3,2
18313.703,0.152,-0.885,0.407,-2.47,-2.44,-3.27,3,2
18313.718,0.153,-0.892,0.405,-2.08,-1.28,-3.54,3,2
18313.734,0.149,-0.904,0.409,-1.43,-0.37,-3.94,3,2
18313.734,0.145,-0.908,0.412,-0.61,0.46,-4.21,3,2
18313.75,0.139,-0.91,0.412,0.0,1.1,-4.46,3,2
18313.765,0.136,-0.915,0.415,0.4,0.79,-4.3,3,2
18313.765,0.135,-0.916,0.411,0.34,0.06,-4.24,3,2
18313.781,0.14,-0.926,0.409,-0.03,-0.79,-4.18,3,2
18313.796,0.149,-0.933,0.409,1.43,-2.5,-6.32,3,2
18313.796,0.15,-0.935,0.409,2.78,-3.48,-7.2,3,2
18313.812,0.148,-0.931,0.41,3.33,-4.73,-7.6,3,2
18313.812,0.155,-0.923,0.411,3.63,-5.98,-7.51,3,2
18313.828,0.166,-0.911,0.403,3.75,-7.35,-6.99,3,2
18313.843,0.171,-0.907,0.395,3.85,-8.33,-6.32,3,2
18313.843,0.17,-0.901,0.386,3.94,-8.7,-4.97,3,2
18313.859,0.166,-0.891,0.377,3.69,-9.06,-3.36,3,2
18313.875,0.16,-0.891,0.374,3.23,-9.34,-1.56,3,2
18313.89,0.155,-0.896,0.368,2.75,-9.43,0.4,3,2
18313.89,0.152,-0.904,0.364,2.41,-9.58,1.95,3,2
18313.89,0.154,-0.915,0.356,2.2,-9.77,2.53,3,2
18313.906,0.156,-0.929,0.345,2.87,-10.28,2.5,3,2
18313.921,0.162,-0.935,0.339,4.18,-10.99,1.68,3,2
18313.937,0.168,-0.933,0.336,5.65,-12.18,-0.15,3,2
18313.937,0.169,-0.925,0.344,7.08,-14.01,-2.2,3,2
18313.953,0.175,-0.913,0.351,8.76,-17.0,-3.6,3,2
18313.953,0.18,-0.897,0.356,10.9,-21.03,-4.76,3,2
18313.968,0.188,-0.883,0.345,13.03,-26.06,-5.46,3,2
18313.984,0.204,-0.877,0.342,14.5,-31.19,-5.46,3,2
18314.0,0.219,-0.87,0.323,15.2,-35.95,-5.8,3,2
18314.0,0.224,-0.872,0.319,15.17,-39.86,-6.26,3,2
18314.015,0.222,-0.876,0.316,15.53,-43.7,-7.11,3,2
18314.015,0.221,-0.882,0.3,16.6,-48.34,-8.97,3,2
18314.031,0.221,-0.887,0.277,17.43,-53.9,-12.09,3,2
18314.046,0.231,-0.901,0.262,18.52,-59.54,-16.27,3,2
18314.046,0.246,-0.907,0.227,21.06,-64.46,-21.49,3,2
18314.062,0.262,-0.903,0.195,22.25,-68.15,-27.83,3,2
18314.078,0.266,-0.903,0.177,22.46,-70.28,-35.37,3,2
18314.078,0.263,-0.892,0.174,23.56,-71.11,-43.0,3,2
18314.093,0.246,-0.878,0.177,27.47,-70.8,-50.05,3,2
18314.093,0.23,-0.865,0.184,34.3,-71.41,-55.79,3,2
18314.109,0.227,-0.853,0.184,42.57,-73.76,-59.08,3,2
18314.125,0.24,-0.839,0.169,50.14,-76.69,-60.91,3,2
18314.125,0.259,-0.851,0.156,54.08,-79.65,-62.04,3,2
18314.14,0.295,-0.837,0.151,55.73,-82.89,-63.11,3,2
18314.156,0.338,-0.833,0.13,57.41,-84.17,-64.42,3,2
18314.156,0.374,-0.837,0.117,57.65,-83.68,-67.26,3,2
18314.171,0.411,-0.836,0.121,57.44,-81.06,-70.83,3,2
18314.187,0.446,-0.83,0.136,58.35,-78.34,-75.62,3,2
18314.203,0.492,-0.826,0.171,64.09,-70.07,-85.36,3,2
18314.203,0.505,-0.826,0.196,68.54,-66.65,-87.92,3,2
18314.218,0.544,-0.814,0.245,75.01,-65.31,-87.74,3,2
18314.234,0.586,-0.798,0.288,81.97,-63.42,-85.02,3,2
18314.25,0.611,-0.783,0.317,87.95,-61.46,-80.39,3,2
18314.25,0.657,-0.766,0.342,91.74,-61.83,-74.4,3,2
18314.265,0.684,-0.748,0.377,93.51,-63.6,-70.38,3,2
18314.265,0.674,-0.734,0.407,92.14,-64.27,-68.48,3,2
18314.281,0.714,-0.694,0.414,88.02,-68.15,-69.58,3,2
18314.296,0.623,-0.683,0.418,84.96,-70.04,-76.82,3,2
18314.296,0.537,-0.718,0.449,82.55,-73.58,-80.23,3,2
18314.312,0.546,-0.697,0.509,85.15,-83.01,-79.26,3,2
18314.328,0.59,-0.643,0.524,97.78,-92.9,-81.09,3,2
18314.328,0.617,-0.625,0.502,111.79,-96.68,-83.04,3,2
18314.343,0.65,-0.602,0.472,120.79,-95.71,-82.71,3,2
18314.359,0.688,-0.584,0.438,126.93,-94.21,-82.67,3,2
18314.359,0.746,-0.577,0.391,131.78,-89.3,-81.91,3,2
18314.375,0.808,-0.534,0.357,133.52,-81.45,-82.55,3,2
18314.375,0.833,-0.511,0.342,130.83,-68.45,-84.11,3,2
18314.39,0.849,-0.49,0.365,124.09,-50.42,-83.86,3,2
18314.406,0.89,-0.44,0.397,117.71,-33.02,-83.35,3,2
18314.406,0.84,-0.41,0.423,113.41,-14.5,-84.23,3,2
18314.421,0.785,-0.412,0.469,106.75,0.67,-82.13,3,2
18314.437,0.75,-0.399,0.535,99.49,8.79,-77.12,3,2
18314.437,0.674,-0.392,0.601,94.58,13.98,-70.25,3,2
18314.453,0.647,-0.39,0.638,89.57,10.96,-63.2,3,2
18314.453,0.648,-0.374,0.652,81.36,4.94,-58.5,3,2
18314.468,0.65,-0.392,0.638,69.92,0.67,-57.16,3,2
18314.484,0.673,-0.423,0.639,56.92,-3.39,-59.27,3,2
18314.484,0.744,-0.425,0.641,49.35,-5.01,-66.26,3,2
18314.5,0.818,-0.405,0.628,51.39,-0.49,-79.32,3,2
18314.515,0.778,-0.386,0.65,58.47,12.39,-93.2,3,2
18314.515,0.746,-0.386,0.671,67.87,24.75,-102.63,3,2
18314.531,0.764,-0.321,0.692,78.62,36.41,-107.91,3,2
18314.546,0.694,-0.277,0.696,89.63,50.26,-111.51,3,2
18314.562,0.637,-0.244,0.702,95.25,57.86,-112.83,3,2
18314.562,0.6,-0.191,0.728,95.16,60.3,-112.4,3,2
18314.578,0.545,-0.156,0.746,92.17,59.27,-111.12,3,2
18314.578,0.545,-0.148,0.746,86.43,52.95,-108.92,3,2
18314.593,0.591,-0.104,0.766,77.15,46.85,-107.94,3,2
18314.593,0.599,-0.077,0.787,68.73,44.07,-109.38,3,2
18314.609,0.632,-0.051,0.795,63.33,42.27,-110.6,3,2
18314.625,0.687,-0.061,0.776,60.18,45.81,-114.51,3,2
18314.625,0.634,-0.01,0.806,53.13,54.81,-122.68,3,2
18314.64,0.609,0.018,0.848,52.71,64.55,-124.67,3,2
18314.656,0.557,0.005,0.848,58.08,71.84,-125.58,3,2
18314.656,0.503,0.018,0.848,62.81,77.06,-123.91,3,2
18314.671,0.481,0.099,0.883,67.9,78.55,-122.04,3,2
18314.687,0.448,0.159,0.907,71.02,74.95,-122.32,3,2
18314.703,0.427,0.337,0.989,63.3,56.46,-120.88,3,2
18314.703,0.374,0.414,1.023,59.42,45.44,-117.86,3,2
18314.718,0.35,0.414,1.026,52.92,32.23,-107.24,3,2
18314.734,0.373,0.43,1.006,45.08,17.03,-95.07,3,2
18314.734,0.407,0.407,0.958,38.97,4.64,-85.94,3,2
18314.75,0.455,0.41,0.91,30.88,-1.5,-81.48,3,2
18314.765,0.495,0.422,0.876,21.73,-0.09,-82.25,3,2
18314.765,0.511,0.411,0.841,13.86,6.04,-87.37,3,2
18314.781,0.518,0.412,0.805,0.0,34.64,-103.21,3,2
18314.796,0.498,0.438,0.807,-1.77,49.41,-111.64,3,2
18314.796,0.417,0.488,0.881,2.38,55.45,-111.51,3,2
18314.812,0.22,0.536,0.97,8.3,51.15,-101.14,3,2
18314.828,0.17,0.599,1.023,17.03,39.12,-84.57,3,2
18314.828,0.148,0.609,1.033,27.77,20.57,-66.53,3,2
18314.843,0.181,0.608,1.007,33.88,-2.01,-51.67,3,2
18314.859,0.238,0.602,0.961,35.65,-22.49,-43.55,3,2
18314.875,0.322,0.533,0.835,32.84,-46.36,-44.04,3,2
18314.875,0.357,0.499,0.768,31.04,-49.78,-45.56,3,2
18314.89,0.406,0.473,0.708,30.79,-47.7,-45.32,3,2
18314.906,0.43,0.439,0.657,32.44,-41.51,-44.62,3,2
18314.906,0.441,0.421,0.63,33.88,-34.21,-43.49,3,2
18314.921,0.437,0.42,0.621,37.02,-27.92,-42.02,3,2
18314.937,0.414,0.409,0.612,41.69,-23.71,-39.74,3,2
18314.937,0.415,0.397,0.605,45.38,-23.41,-36.23,3,2
18314.953,0.514,0.448,0.629,47.82,-22.95,-33.45,3,2
18314.953,1.03,0.953,0.835,30.85,1.28,-28.84,3,2
18314.968,1.19,1.563,1.096,-38.88,72.45,-24.72,3,2
18314.984,0.347,0.912,1.15,-92.84,89.94,-44.95,3,2
18314.984,0.08,0.22,1.159,-99.46,39.83,-33.63,3,2
18315.0,0.315,0.323,1.16,-64.06,-16.69,2.04,3,2
18315.015,0.499,0.491,0.975,-8.85,-49.75,15.26,3,2
18315.015,0.568,0.422,0.77,13.73,-57.8,15.17,3,2
18315.031,0.585,0.342,0.664,7.54,-52.95,8.55,3,2
18315.046,0.562,0.282,0.601,-0.15,-44.62,1.19,3,2
18315.046,0.585,0.23,0.564,-1.46,-35.8,-3.85,3,2
18315.062,0.636,0.24,0.553,0.67,-21.94,-8.45,3,2
18315.062,0.646,0.27,0.552,1.5,-4.55,-14.8,3,2
18315.078,0.648,0.299,0.572,0.27,12.67,-22.28,3,2
18315.093,0.627,0.306,0.582,0.21,28.44,-29.88,3,2
18315.093,0.611,0.32,0.587,0.92,41.29,-36.41,3,2
18315.109,0.597,0.344,0.59,0.31,52.46,-42.88,3,2
18315.125,0.574,0.361,0.598,-3.51,61.95,-50.48,3,2
18315.125,0.547,0.368,0.611,-9.55,69.55,-58.72,3,2
18315.14,0.511,0.375,0.63,-15.84,75.69,-66.81,3,2
18315.156,0.484,0.396,0.663,-22.77,80.29,-73.34,3,2
18315.156,0.468,0.419,0.709,-29.63,83.8,-78.71,3,2
18315.171,0.451,0.45,0.774,-34.88,85.94,-83.77,3,2
18315.187,0.4,0.498,0.841,-37.29,85.63,-87.28,3,2
18315.187,0.35,0.528,0.921,-40.13,79.26,-85.91,3,2
18315.203,0.32,0.553,1.013,-40.65,67.45,-80.69,3,2
18315.203,0.28,0.575,1.068,-34.09,52.1,-73.64,3,2
18315.218,0.244,0.581,1.07,-26.52,33.66,-62.78,3,2
18315.234,0.254,0.548,1.038,-22.55,13.34,-50.45,3,2
18315.25,0.274,0.521,1.015,-20.29,-6.04,-39.49,3,2
18315.25,0.29,0.52,0.977,-18.1,-21.06,-30.12,3,2
18315.265,0.32,0.501,0.913,-17.79,-31.62,-23.29,3,2
18315.265,0.337,0.469,0.834,-19.35,-37.29,-19.23,3,2
18315.281,0.357,0.442,0.758,-22.68,-37.9,-17.24,3,2
18315.296,0.376,0.427,0.704,-29.36,-33.08,-16.79,3,2
18315.296,0.37,0.392,0.668,-38.24,-24.45,-16.91,3,2
18315.312,0.359,0.347,0.658,-44.95,-13.52,-18.22,3,2
18315.328,0.356,0.324,0.666,-47.55,-1.07,-20.72,3,2
18315.328,0.353,0.311,0.682,-47.15,12.88,-22.92,3,2
18315.343,0.355,0.311,0.719,-43.15,27.68,-25.09,3,2
18315.343,0.319,0.335,0.78,-35.89,42.24,-25.88,3,2
18315.359,0.267,0.359,0.862,-27.25,52.06,-22.28,3,2
18315.375,0.236,0.381,0.934,-17.27,55.73,-14.28,3,2
18315.375,0.217,0.409,0.986,-7.11,54.32,-6.62,3,2
18315.39,0.197,0.412,1.006,-0.37,48.25,-0.46,3,2
18315.406,0.204,0.409,1.013,1.8,38.09,3.27,3,2
18315.406,0.208,0.409,1.006,1.4,26.55,4.55,3,2
18315.421,0.207,0.396,0.982,-1.01,14.74,5.49,3,2
18315.421,0.229,0.387,0.95,-4.18,4.55,6.1,3,2
18315.437,0.232,0.378,0.911,-6.84,-2.32,6.47,3,2
18315.453,0.257,0.371,0.876,-8.76,-6.26,7.69,3,2
18315.453,0.272,0.375,0.853,-9.31,-6.56,9.0,3,2
18315.468,0.281,0.377,0.836,-8.94,-4.52,10.5,3,2
18315.484,0.293,0.376,0.826,-8.15,-1.5,12.79,3,2
18315.484,0.308,0.375,0.826,-6.81,2.69,14.92,3,2
18315.5,0.313,0.372,0.825,-5.04,7.29,15.93,3,2
18315.515,0.318,0.367,0.829,-3.72,11.41,15.72,3,2
18315.515,0.322,0.367,0.84,-3.81,14.71,14.8,3,2
18315.531,0.326,0.369,0.855,-4.67,17.0,13.03,3,2
18315.531,0.322,0.361,0.868,-6.04,18.52,10.47,3,2
18315.546,0.32,0.353,0.873,-8.64,18.46,7.51,3,2
18315.562,0.316,0.349,0.879,-11.93,17.85,4.52,3,2
18315.562,0.307,0.351,0.885,-14.74,16.94,2.41,3,2
18315.578,0.307,0.348,0.886,-16.79,15.99,1.5,3,2
18315.593,0.308,0.347,0.887,-17.27,15.78,1.34,3,2
18315.593,0.308,0.349,0.888,-15.69,16.69,1.65,3,2
18315.609,0.309,0.346,0.877,-12.24,18.56,2.35,3,2
18315.625,0.306,0.346,0.865,-9.46,21.06,2.9,3,2
18315.64,0.302,0.343,0.866,-8.12,24.26,3.14,3,2
18315.64,0.291,0.342,0.87,-7.35,27.62,2.69,3,2
18315.64,0.272,0.338,0.888,-6.41,30.06,1.98,3,2
18315.656,0.25,0.335,0.925,-6.2,30.61,1.62,3,2
18315.671,0.236,0.329,0.962,-5.8,27.95,1.16,3,2
18315.671,0.226,0.324,0.989,-5.98,22.74,-0.12,3,2
18315.687,0.22,0.316,0.99,-5.19,16.17,-2.11,3,2
18315.703,0.219,0.302,0.976,-3.69,9.37,-4.91,3,2
18315.703,0.217,0.304,0.959,-2.35,4.36,-7.51,3,2
18315.718,0.221,0.313,0.936,-0.52,0.95,-8.76,3,2
18315.734,0.228,0.326,0.908,1.89,-0.24,-8.55,3,2
18315.734,0.232,0.336,0.885,3.51,0.46,-7.75,3,2
18315.75,0.237,0.341,0.878,4.24,2.66,-6.44,3,2
18315.765,0.249,0.339,0.873,5.77,8.18,-4.55,3,2
18315.765,0.251,0.342,0.869,5.07,11.11,-3.72,3,2
18315.781,0.252,0.344,0.874,5.74,14.1,-3.14,3,2
18315.796,0.254,0.342,0.885,6.74,15.93,-3.33,3,2
18315.796,0.244,0.343,0.908,6.26,16.27,-3.72,3,2
18315.812,0.235,0.349,0.92,5.55,15.63,-4.36,3,2
18315.828,0.225,0.344,0.929,5.55,14.34,-5.34,3,2
18315.828,0.215,0.341,0.928,6.41,12.7,-6.26,3,2
18315.843,0.204,0.356,0.929,6.47,10.65,-7.17,3,2
18315.843,0.196,0.372,0.922,6.01,8.18,-7.42,3,2
18315.859,0.196,0.371,0.911,5.92,6.23,-6.84,3,2
18315.875,0.197,0.381,0.908,4.58,4.94,-5.8,3,2
18315.875,0.198,0.382,0.902,3.23,4.03,-4.7,3,2
18315.89,0.197,0.379,0.896,2.04,3.39,-3.78,3,2
18315.906,0.204,0.38,0.887,0.64,3.05,-2.66,3,2
18315.906,0.217,0.365,0.874,0.09,3.97,-1.68,3,2
18315.921,0.216,0.355,0.881,-2.14,5.95,-1.98,3,2
18315.937,0.199,0.372,0.898,-5.01,7.26,-2.87,3,2
18315.937,0.182,0.382,0.919,-5.98,6.78,-2.81,3,2
18315.953,0.168,0.386,0.943,-7.78,4.39,-1.62,3,2
18315.968,0.16,0.377,0.96,-8.06,0.79,0.37,3,2
18315.968,0.166,0.357,0.958,-6.59,-3.3,2.53,3,2
18315.984,0.184,0.33,0.937,-4.85,-6.71,3.63,3,2
18315.984,0.199,0.315,0.916,-3.94,-8.0,3.57,3,2
18316.0,0.21,0.313,0.907,-3.14,-8.0,2.72,3,2
18316.015,0.215,0.321,0.902,-1.65,-7.14,1.65,3,2
18316.015,0.225,0.331,0.898,0.58,-6.07,1.22,3,2
18316.031,0.231,0.342,0.893,2.32,-4.46,1.1,3,2
18316.046,0.233,0.35,0.889,2.9,-2.59,0.58,3,2
18316.062,0.222,0.353,0.89,2.84,1.37,-0.49,3,2
18316.062,0.217,0.355,0.893,3.3,2.96,-0.7,3,2
18316.078,0.206,0.353,0.899,3.85,4.21,-1.13,3,2
18316.093,0.193,0.356,0.913,2.99,4.49,-1.62,3,2
18316.093,0.189,0.357,0.925,2.44,3.6,-1.8,3,2
18316.109,0.189,0.355,0.929,2.62,1.77,-1.19,3,2
18316.125,0.191,0.358,0.925,2.56,0.18,-0.37,3,2
18316.125,0.192,0.355,0.918,2.99,-1.07,0.52,3,2
18316.14,0.197,0.349,0.912,3.39,-1.71,1.28,3,2
18316.156,0.2,0.348,0.903,3.69,-1.68,1.53,3,2
18316.156,0.199,0.346,0.899,3.72,-1.56,1.65,3,2
18316.171,0.2,0.35,0.902,2.78,-1.62,1.53,3,2
18316.187,0.203,0.358,0.917,1.74,-1.92,1.56,3,2
18316.187,0.208,0.356,0.926,2.53,-2.2,2.08,3,2
18316.203,0.211,0.347,0.919,4.79,-2.41,2.44,3,2
18316.203,0.212,0.347,0.917,5.8,-2.62,2.47,3,2
18316.234,0.209,0.341,0.91,8.61,-3.39,2.04,3,2
18316.234,0.211,0.337,0.897,10.77,-3.72,1.83,3,2
18316.25,0.206,0.359,0.905,10.62,-2.99,1.56,3,2
18316.265,0.192,0.377,0.918,9.37,-2.9,0.55,3,2
18316.265,0.181,0.377,0.916,9.58,-5.19,0.0,3,2
18316.281,0.185,0.376,0.913,10.86,-8.09,0.55,3,2
18316.296,0.184,0.408,0.923,7.08,-10.83,0.76,3,2
18316.296,0.196,0.395,0.916,3.78,-13.73,0.31,3,2
18316.312,0.196,0.373,0.899,3.14,-15.5,-0.15,3,2
18316.328,0.21,0.379,0.893,1.92,-16.82,0.46,3,2
18316.328,0.231,0.381,0.896,1.34,-16.85,1.37,3,2
18316.343,0.248,0.375,0.879,1.89,-14.83,1.98,3,2
18316.343,0.269,0.35,0.834,3.78,-10.71,2.72,3,2
18316.359,0.295,0.352,0.77,1.8,-2.56,3.69,3,2
18316.375,0.333,0.349,0.721,-3.33,10.68,3.94,3,2
18316.39,0.37,0.318,0.719,-6.44,28.66,3.3,3,2
18316.39,0.372,0.276,0.731,-3.57,47.52,0.06,3,2
18316.406,0.31,0.267,0.771,4.27,64.67,-4.73,3,2
18316.406,0.135,0.352,0.974,2.26,70.07,-9.09,3,2
18316.421,0.119,0.559,1.16,-21.09,53.16,-11.78,3,2
18316.437,0.027,0.456,1.149,-13.15,29.45,-13.12,3,2
18316.437,0.027,0.498,1.06,-18.65,4.7,-12.21,3,2
18316.453,0.111,0.43,0.949,-14.01,-9.4,-4.91,3,2
18316.453,0.121,0.333,0.868,-5.86,-11.63,0.21,3,2
18316.468,0.154,0.312,0.854,-1.1,-8.27,3.57,3,2
18316.484,0.165,0.326,0.895,1.19,-5.71,3.11,3,2
18316.5,0.163,0.319,0.935,1.46,-6.81,-0.73,3,2
18316.5,0.165,0.325,0.972,4.3,-10.47,-5.19,3,2
18316.515,0.144,0.364,0.991,6.71,-15.72,-7.97,3,2
18316.515,0.134,0.373,1.003,7.39,-21.94,-7.93,3,2
18316.531,0.101,0.392,0.999,9.13,-28.38,-4.73,3,2
18316.546,0.19,0.376,0.957,13.03,-34.0,1.43,3,2
18316.546,0.193,0.299,0.878,22.4,-33.97,3.05,3,2
18316.562,0.173,0.348,0.93,11.17,-33.02,0.76,3,2
18316.562,0.209,0.403,0.949,4.15,-36.32,1.28,3,2
18316.578,0.21,0.354,0.887,15.02,-36.74,3.97,3,2
18316.593,0.219,0.372,0.87,15.08,-35.28,6.32,3,2
18316.609,0.245,0.409,0.86,13.06,-32.23,8.88,3,2
18316.609,0.261,0.39,0.832,14.95,-27.77,10.71,3,2
18316.625,0.265,0.384,0.816,14.56,-22.46,12.48,3,2
18316.625,0.275,0.396,0.813,12.27,-17.09,14.25,3,2
18316.64,0.288,0.399,0.816,10.04,-11.93,14.37,3,2
18316.656,0.286,0.395,0.822,7.29,-7.2,13.31,3,2
18316.656,0.279,0.386,0.834,3.97,-3.6,11.29,3,2
18316.671,0.276,0.376,0.85,1.04,-1.53,8.03,3,2
18316.687,0.27,0.372,0.863,-1.8,-0.34,3.75,3,2
18316.687,0.264,0.368,0.871,-3.97,-0.31,-0.24,3,2
18316.703,0.261,0.365,0.876,-4.49,0.09,-3.39,3,2
18316.703,0.255,0.365,0.88,-4.0,0.92,-4.85,3,2
18316.718,0.249,0.375,0.882,-2.32,2.23,-4.85,3,2
18316.734,0.252,0.382,0.882,0.27,3.57,-3.88,3,2
18316.734,0.247,0.391,0.883,2.41,4.91,-2.44,3,2
18316.75,0.244,0.398,0.88,2.01,5.74,-0.15,3,2
18316.765,0.244,0.399,0.878,0.21,5.28,0.24,3,2
18316.765,0.246,0.399,0.877,-1.62,4.97,0.46,3,2
18316.781,0.242,0.395,0.888,-2.78,4.39,0.4,3,2
18316.796,0.24,0.393,0.892,-3.6,2.96,0.03,3,2
18316.796,0.244,0.385,0.884,-4.39,1.46,-0.43,3,2
18316.812,0.247,0.377,0.876,-5.31,1.77,-1.19,3,2
18316.812,0.242,0.371,0.876,-5.8,3.42,-2.01,3,2
18316.828,0.232,0.366,0.876,-5.4,5.01,-2.38,3,2
18316.843,0.233,0.366,0.879,-4.21,6.41,-2.04,3,2
18316.859,0.229,0.377,0.893,-3.05,8.03,-1.4,3,2
18316.859,0.222,0.381,0.9,-1.53,8.82,-0.79,3,2
18316.875,0.215,0.38,0.902,-0.24,8.97,-0.12,3,2
18316.875,0.212,0.379,0.9,0.43,8.09,0.7,3,2
18316.89,0.217,0.382,0.9,0.61,7.02,1.59,3,2
18316.906,0.216,0.389,0.901,0.4,6.78,1.95,3,2
18316.906,0.208,0.386,0.91,0.37,5.52,2.01,3,2
18316.921,0.211,0.387,0.908,0.12,3.48,2.14,3,2
18316.937,0.213,0.384,0.903,-0.52,1.5,1.86,3,2
18316.937,0.212,0.38,0.912,-1.77,-0.24,1.19,3,2
18316.953,0.217,0.378,0.916,-3.02,-2.53,0.49,3,2
18316.953,0.221,0.372,0.902,-3.17,-4.52,-0.03,3,2
18316.968,0.23,0.366,0.891,-2.08,-5.01,0.09,3,2
18316.984,0.237,0.366,0.883,-1.28,-4.03,0.43,3,2
18316.984,0.241,0.366,0.88,-0.58,-2.41,0.55,3,2
18317.0,0.241,0.368,0.88,0.18,-0.76,0.46,3,2
18317.015,0.236,0.367,0.881,1.13,0.67,0.18,3,2
18317.015,0.234,0.371,0.887,1.59,1.53,-0.06,3,2
18317.031,0.23,0.378,0.896,1.56,2.08,-0.61,3,2
18317.046,0.224,0.384,0.901,1.62,1.77,-0.79,3,2
18317.046,0.221,0.391,0.901,1.77,0.64,-0.61,3,2
18317.062,0.22,0.389,0.895,1.8,-0.4,-0.37,3,2
18317.078,0.218,0.386,0.89,1.07,-1.25,0.03,3,2
18317.093,0.221,0.386,0.89,-1.01,-2.04,0.46,3,2
18317.093,0.224,0.38,0.889,-1.56,-2.32,0.61,3,2
18317.109,0.225,0.378,0.885,-1.22,-1.83,1.04,3,2
18317.125,0.231,0.373,0.884,0.61,-0.64,1.89,3,2
18317.125,0.24,0.378,0.891,1.71,0.92,2.99,3,2
18317.14,0.249,0.365,0.867,2.69,2.53,3.11,3,2
18317.156,0.279,0.348,0.796,1.74,7.05,3.14,3,2
18317.156,0.328,0.356,0.753,-1.95,18.25,3.36,3,2
18317.171,0.357,0.334,0.741,-2.72,33.54,3.97,3,2
18317.171,0.392,0.298,0.773,0.06,51.03,2.08,3,2
18317.187,0.428,0.258,0.753,12.73,69.46,-4.7,3,2
18317.203,0.339,0.189,0.737,29.57,89.27,-16.82,3,2
18317.218,0.04,0.368,1.04,10.83,91.65,-36.04,3,2
18317.218,-0.12,0.7,1.348,-29.11,61.71,-43.52,3,2
18317.234,-0.107,0.676,1.273,-17.0,17.98,-29.91,3,2
18317.234,0.024,0.437,0.989,-2.35,-14.5,-11.2,3,2
18317.265,0.113,0.281,0.778,-3.27,-12.48,-4.55,3,2
18317.265,0.087,0.303,0.86,4.15,-2.01,-3.33,3,2
18317.281,0.071,0.403,0.949,2.04,-2.01,-1.22,3,2
18317.296,0.096,0.433,0.971,3.72,-7.87,1.8,3,2
18317.296,0.122,0.417,0.971,6.78,-13.49,4.85,3,2
18317.312,0.13,0.395,0.966,8.33,-18.95,5.83,3,2
18317.328,0.13,0.354,0.968,9.77,-23.07,7.08,3,2
18317.328,0.121,0.353,0.97,11.05,-26.95,8.85,3,2
18317.343,0.128,0.374,0.967,12.09,-31.22,11.17,3,2
18317.359,0.11,0.401,0.96,12.7,-35.8,13.03,3,2
18317.359,0.193,0.412,0.912,12.33,-39.89,16.97,3,2
18317.375,0.208,0.348,0.84,19.9,-38.61,17.21,3,2
18317.375,0.173,0.371,0.858,17.18,-34.09,15.59,3,2
18317.39,0.212,0.446,0.874,9.16,-31.31,16.24,3,2
18317.406,0.225,0.432,0.865,7.93,-29.73,16.3,3,2
18317.406,0.224,0.405,0.853,6.04,-28.78,17.0,3,2
18317.437,0.265,0.403,0.825,1.89,-27.16,18.68,3,2
18317.437,0.291,0.418,0.834,-3.02,-22.8,17.33,3,2
18317.453,0.285,0.401,0.831,-6.13,-18.1,14.62,3,2
18317.453,0.279,0.374,0.826,-5.95,-14.59,13.31,3,2
18317.468,0.287,0.366,0.822,-5.62,-11.63,11.63,3,2
18317.484,0.298,0.366,0.827,-6.04,-7.45,8.79,3,2
18317.484,0.294,0.37,0.843,-7.48,-2.11,5.68,3,2
18317.5,0.28,0.358,0.853,-7.14,1.92,2.96,3,2
18317.515,0.283,0.342,0.855,-4.97,5.07,2.23,3,2
18317.515,0.299,0.345,0.858,-1.56,9.8,2.29,3,2
18317.531,0.313,0.344,0.858,3.27,16.42,1.62,3,2
18317.546,0.31,0.323,0.832,8.33,23.13,-0.95,3,2
18317.546,0.323,0.32,0.806,9.46,30.92,-4.88,3,2
18317.562,0.359,0.313,0.755,8.27,41.78,-11.05,3,2
18317.578,0.386,0.287,0.708,6.56,57.41,-19.96,3,2
18317.578,0.352,0.262,0.684,9.25,76.33,-29.73,3,2
18317.593,-0.015,0.64,1.175,-21.36,75.2,-37.97,3,2
18317.609,-0.112,0.718,1.237,-19.07,45.75,-28.69,3,2
18317.625,-0.054,0.643,1.116,-14.65,10.9,-13.03,3,2
18317.625,0.088,0.443,0.877,-15.26,-11.38,-3.45,3,2
18317.64,0.13,0.32,0.759,-17.91,-10.99,-0.67,3,2
18317.656,0.152,0.288,0.815,-16.48,-1.53,2.38,3,2
18317.671,0.127,0.377,0.924,-18.83,2.81,2.47,3,2
18317.671,0.138,0.395,0.983,-18.13,0.89,2.2,3,2
18317.687,0.148,0.352,0.99,-12.54,-3.39,3.14,3,2
18317.687,0.157,0.321,0.974,-4.09,-6.78,3.33,3,2
18317.703,0.155,0.32,0.975,2.32,-9.06,2.93,3,2
18317.718,0.152,0.329,0.968,6.99,-11.2,2.96,3,2
18317.718,0.149,0.334,0.943,12.09,-13.03,3.14,3,2
18317.734,0.148,0.347,0.919,17.85,-14.98,4.09,3,2
18317.734,0.159,0.382,0.912,17.15,-14.65,4.24,3,2
18317.75,0.135,0.411,0.921,14.04,-17.21,5.95,3,2
18317.765,0.17,0.375,0.821,9.61,-20.08,6.38,3,2
18317.781,0.189,0.428,0.853,-1.59,-17.12,6.68,3,2
18317.796,0.192,0.439,0.963,-15.14,-19.38,3.54,3,2
18317.796,0.183,0.423,0.941,-14.68,-25.06,4.43,3,2
18317.812,0.205,0.381,0.893,-6.84,-27.65,9.06,3,2
18317.828,0.221,0.4,0.895,-6.32,-26.61,11.47,3,2
18317.828,0.237,0.383,0.889,-4.52,-24.54,12.3,3,2
18317.843,0.233,0.361,0.871,-3.81,-22.25,11.72,3,2
18317.843,0.243,0.339,0.855,-2.01,-20.23,10.59,3,2
18317.859,0.255,0.337,0.845,-0.79,-16.66,8.61,3,2
18317.875,0.261,0.349,0.851,-1.19,-11.57,5.74,3,2
18317.875,0.257,0.35,0.856,-0.43,-6.47,3.39,3,2
18317.89,0.249,0.352,0.864,1.01,-2.32,1.74,3,2
18317.906,0.245,0.359,0.87,2.04,0.49,0.43,3,2
18317.906,0.237,0.363,0.877,2.59,2.84,-0.89,3,2
18317.921,0.227,0.369,0.887,2.96,4.46,-2.11,3,2
18317.937,0.209,0.39,0.895,2.81,4.43,-2.56,3,2
18317.953,0.203,0.406,0.9,2.72,3.69,-1.89,3,2
18317.953,0.196,0.419,0.907,1.62,2.26,-1.16,3,2
18317.968,0.193,0.418,0.909,-0.27,0.0,0.34,3,2
18317.984,0.195,0.417,0.91,-1.8,-2.69,2.53,3,2
18317.984,0.199,0.414,0.908,-2.84,-5.07,4.67,3,2
18318.0,0.202,0.401,0.904,-3.94,-6.93,6.32,3,2
18318.015,0.204,0.384,0.9,-5.04,-8.61,7.54,3,2
18318.031,0.211,0.382,0.899,-5.65,-10.1,8.24,3,2
18318.031,0.221,0.381,0.899,-6.81,-11.02,8.42,3,2
18318.046,0.227,0.371,0.894,-7.54,-11.38,7.93,3,2
18318.046,0.229,0.362,0.889,-7.23,-11.14,7.75,3,2
18318.062,0.236,0.36,0.882,-6.32,-10.93,7.51,3,2
18318.078,0.247,0.363,0.88,-5.74,-9.86,7.2,3,2
18318.078,0.252,0.367,0.881,-5.34,-8.0,6.93,3,2
18318.093,0.256,0.369,0.878,-4.7,-5.92,6.81,3,2
18318.093,0.254,0.367,0.876,-3.02,-4.03,7.57,3,2
18318.109,0.253,0.369,0.88,-0.61,-2.01,8.76,3,2
18318.125,0.247,0.372,0.887,0.61,-0.09,9.61,3,2
18318.125,0.235,0.368,0.887,0.49,1.59,10.04,3,2
18318.14,0.216,0.364,0.89,0.49,2.5,10.28,3,2
18318.156,0.211,0.371,0.905,0.37,2.29,11.05,3,2
18318.156,0.208,0.404,0.935,-0.61,1.19,12.18,3,2
18318.171,0.194,0.434,0.968,-1.4,-1.25,14.31,3,2
18318.187,0.175,0.448,0.996,-0.43,-5.55,19.5,3,2
18318.187,0.168,0.449,1.018,3.11,-11.38,28.44,3,2
18318.203,0.171,0.456,1.04,9.64,-17.94,39.64,3,2
18318.203,0.189,0.457,1.059,18.49,-23.96,52.28,3,2
18318.218,0.193,0.459,1.068,30.4,-29.18,65.22,3,2
18318.234,0.188,0.427,1.056,45.08,-33.78,79.84,3,2
18318.25,0.212,0.393,1.057,61.43,-38.7,94.76,3,2
18318.25,0.273,0.38,1.066,78.19,-42.27,108.13,3,2
18318.265,0.355,0.335,1.07,93.57,-39.74,121.04,3,2
18318.265,0.391,0.277,1.065,108.4,-35.34,130.07,3,2
18318.281,0.445,0.293,1.046,121.22,-30.95,131.78,3,2
18318.296,0.537,0.402,1.036,119.85,-23.74,126.41,3,2
18318.296,0.558,0.567,1.03,100.01,-20.39,121.25,3,2
18318.312,0.606,0.769,0.967,57.71,-23.62,127.02,3,2
18318.312,0.577,0.86,1.04,-42.15,-23.71,158.42,3,2
18318.328,0.488,0.728,1.069,-147.07,-20.33,159.95,3,2
18318.343,0.564,0.393,1.07,-213.78,-40.71,175.15,3,2
18318.343,0.556,0.24,1.085,-259.5,-55.21,187.08,3,2
18318.359,0.607,0.055,1.022,-277.5,-68.15,195.9,3,2
18318.375,0.671,-0.101,1.017,-273.6,-76.69,198.8,3,2
18318.375,0.665,-0.261,0.996,-249.03,-80.9,195.68,3,2
18318.39,0.659,-0.355,0.953,-215.22,-86.06,189.52,3,2
18318.406,0.649,-0.372,0.886,-178.84,-93.02,181.1,3,2
18318.406,0.632,-0.328,0.775,-149.02,-102.45,169.99,3,2
18318.421,0.626,-0.262,0.636,-132.97,-109.78,160.53,3,2
18318.437,0.582,-0.168,0.541,-129.58,-114.26,152.81,3,2
18318.437,0.523,-0.134,0.414,-133.21,-116.89,151.16,3,2
18318.453,0.5,-0.131,0.287,-145.6,-115.88,157.11,3,2
18318.468,0.496,-0.127,0.248,-160.01,-110.81,165.87,3,2
18318.468,0.491,-0.183,0.22,-169.77,-99.89,177.34,3,2
18318.484,0.497,-0.251,0.215,-180.82,-83.71,193.46,3,2
18318.5,0.546,-0.334,0.199,-188.88,-64.15,209.33,3,2
18318.5,0.614,-0.445,0.188,-189.06,-37.93,221.78,3,2
18318.515,0.57,-0.5,0.216,-182.81,-4.27,228.83,3,2
18318.531,0.544,-0.553,0.249,-171.88,24.32,231.42,3,2
18318.531,0.569,-0.586,0.336,-157.72,45.72,229.07,3,2
18318.546,0.558,-0.612,0.406,-136.11,67.81,220.19,3,2
18318.546,0.545,-0.578,0.511,-114.02,87.44,208.72,3,2
18318.562,0.477,-0.529,0.608,-92.26,102.11,196.97,3,2
18318.578,0.384,-0.494,0.669,-76.42,110.14,187.66,3,2
18318.578,0.339,-0.467,0.727,-66.59,111.09,183.14,3,2
18318.593,0.352,-0.43,0.77,-60.7,108.65,183.87,3,2
18318.593,0.325,-0.433,0.729,-57.28,107.43,182.81,3,2
18318.609,0.329,-0.482,0.712,-63.23,105.29,182.59,3,2
18318.625,0.29,-0.588,0.669,-67.63,107.43,182.5,3,2
18318.625,0.269,-0.661,0.609,-65.86,104.5,171.76,3,2
18318.64,0.312,-0.724,0.612,-57.92,104.62,154.61,3,2
18318.656,0.25,-0.72,0.652,-44.68,109.13,137.79,3,2
18318.656,0.127,-0.679,0.711,-32.81,108.71,121.04,3,2
18318.671,0.03,-0.679,0.714,-29.27,103.92,111.12,3,2
18318.687,-0.05,-0.682,0.693,-33.66,95.71,104.28,3,2
18318.687,-0.038,-0.755,0.677,-40.59,85.88,95.19,3,2
18318.703,0.042,-0.791,0.685,-42.42,81.51,88.38,3,2
18318.718,0.032,-0.786,0.673,-34.49,84.05,76.97,3,2
18318.718,0.067,-0.738,0.705,-29.15,85.18,49.07,3,2
18318.734,0.013,-0.697,0.781,-28.38,80.17,39.34,3,2
18318.734,-0.082,-0.685,0.847,-26.12,70.07,35.62,3,2
18318.75,-0.052,-0.704,0.838,-25.39,60.61,33.36,3,2
18318.765,-0.036,-0.762,0.79,-27.62,53.35,28.41,3,2
18318.765,-0.024,-0.81,0.778,-30.18,47.03,20.33,3,2
18318.781,-0.036,-0.869,0.747,-28.02,41.96,8.3,3,2
18318.796,-0.006,-0.897,0.744,-25.82,37.48,-6.71,3,2
18318.796,0.017,-0.866,0.784,-20.69,34.03,-23.44,3,2
18318.812,0.019,-0.814,0.856,-14.59,27.22,-40.07,3,2
18318.812,0.013,-0.783,0.905,-8.88,16.45,-54.35,3,2
18318.828,0.018,-0.782,0.93,-3.72,2.75,-65.49,3,2
18318.843,-0.008,-0.781,0.914,-0.37,-11.29,-74.53,3,2
18318.843,0.004,-0.78,0.87,-0.85,-27.16,-85.94,3,2
18318.859,0.036,-0.784,0.808,-0.52,-41.9,-102.05,3,2
18318.875,0.052,-0.755,0.742,4.79,-52.28,-119.17,3,2
18318.89,0.08,-0.684,0.686,14.4,-56.76,-129.86,3,2
18318.89,0.106,-0.567,0.637,21.64,-55.21,-128.33,3,2
18318.906,0.1,-0.483,0.61,19.65,-50.87,-115.67,3,2
18318.906,0.094,-0.465,0.598,10.9,-45.5,-94.36,3,2
18318.921,0.111,-0.519,0.592,6.35,-39.37,-69.73,3,2
18318.921,0.098,-0.549,0.557,7.69,-32.2,-47.09,3,2
18318.937,0.107,-0.568,0.524,7.05,-25.73,-30.0,3,2
18318.953,0.136,-0.624,0.506,6.84,-19.1,-18.68,3,2
18318.968,0.118,-0.666,0.494,6.56,-9.7,-8.33,3,2
18318.968,0.088,-0.7,0.49,1.4,0.95,3.39,3,2
18318.984,0.062,-0.744,0.493,-6.96,10.56,13.31,3,2
18318.984,0.062,-0.805,0.51,-14.47,17.94,19.47,3,2
18319.0,0.081,-0.837,0.558,-18.86,24.08,22.34,3,2
18319.015,0.094,-0.85,0.625,-17.64,28.99,22.31,3,2
18319.015,0.065,-0.85,0.685,-11.81,31.37,21.36,3,2
18319.031,0.053,-0.834,0.723,-8.79,28.29,20.66,3,2
18319.046,0.054,-0.865,0.721,-7.26,22.0,18.19,3,2
18319.046,0.065,-0.898,0.704,-5.65,16.08,13.67,3,2
18319.062,0.079,-0.919,0.677,-4.49,12.7,7.54,3,2
18319.062,0.078,-0.925,0.676,-4.24,10.93,-0.06,3,2
18319.078,0.064,-0.917,0.678,-2.84,9.19,-8.21,3,2
18319.093,0.055,-0.89,0.671,-0.46,6.44,-16.14,3,2
18319.109,0.074,-0.867,0.669,3.97,2.75,-22.92,3,2
18319.109,0.103,-0.838,0.652,9.52,0.06,-27.13,3,2
18319.125,0.112,-0.774,0.654,11.51,-0.95,-28.6,3,2
18319.125,0.088,-0.735,0.663,10.74,-1.77,-26.12,3,2
18319.14,0.089,-0.711,0.664,6.93,-3.51,-18.98,3,2
18319.156,0.108,-0.721,0.647,2.81,-4.46,-11.47,3,2
18319.156,0.117,-0.751,0.629,1.1,-3.81,-5.55,3,2
18319.171,0.109,-0.767,0.616,0.15,-1.74,-1.53,3,2
18319.171,0.113,-0.775,0.611,-0.7,-0.15,1.1,3,2
18319.187,0.121,-0.766,0.616,-2.5,1.31,4.15,3,2
18319.203,0.112,-0.748,0.645,-4.91,2.44,7.72,3,2
18319.203,0.093,-0.737,0.669,-6.16,1.89,11.75,3,2
18319.218,0.047,-0.73,0.639,-7.63,-0.21,15.81,3,2
18319.234,0.037,-0.761,0.588,-11.63,-2.53,19.29,3,2
18319.25,0.049,-0.798,0.531,-15.9,-1.5,21.42,3,2
18319.25,0.065,-0.819,0.5,-19.01,3.02,21.42,3,2
18319.265,0.073,-0.834,0.536,-20.75,8.82,20.33,3,2
18319.265,0.091,-0.841,0.598,-18.19,13.61,20.17,3,2
18319.281,0.094,-0.837,0.632,-12.57,15.93,21.0,3,2
18319.296,0.076,-0.816,0.684,-12.97,15.69,21.03,3,2
18319.296,0.072,-0.838,0.721,-14.89,10.93,20.29,3,2
18319.312,0.09,-0.868,0.711,-12.82,4.73,19.32,3,2
18319.328,0.102,-0.879,0.661,-10.47,-0.03,15.63,3,2
18319.328,0.096,-0.89,0.623,-10.25,-1.77,10.5,3,2
18319.343,0.084,-0.9,0.595,-10.47,-1.37,4.85,3,2
18319.343,0.075,-0.877,0.566,-9.22,0.27,-1.1,3,2
18319.359,0.064,-0.84,0.568,-7.81,2.14,-5.46,3,2
18319.375,0.075,-0.808,0.595,-8.73,2.75,-7.78,3,2
18319.375,0.081,-0.801,0.596,-9.37,2.75,-9.55,3,2
18319.39,0.072,-0.79,0.599,-8.64,2.59,-10.07,3,2
18319.406,0.044,-0.764,0.609,-8.27,1.86,-9.13,3,2
18319.406,0.037,-0.752,0.593,-8.21,0.03,-5.65,3,2
18319.421,0.059,-0.745,0.572,-11.35,-1.59,-0.98,3,2
18319.437,0.091,-0.753,0.568,-16.45,-3.02,2.44,3,2
18319.437,0.104,-0.801,0.559,-21.06,-3.97,3.54,3,2
18319.453,0.099,-0.845,0.547,-20.02,-2.93,2.32,3,2
18319.468,0.074,-0.801,0.548,-12.82,1.04,2.81,3,2
18319.468,0.077,-0.826,0.539,-6.71,3.88,4.36,3,2
18319.484,0.067,-0.853,0.501,0.24,7.14,3.81,3,2
18319.484,0.088,-0.806,0.519,0.89,9.98,2.93,3,2
18319.5,0.087,-0.816,0.554,-1.53,13.76,2.81,3,2
18319.515,0.081,-0.818,0.597,-4.52,14.74,3.69,3,2
18319.531,0.087,-0.836,0.611,-8.06,13.52,3.42,3,2
18319.531,0.091,-0.857,0.625,-11.35,11.41,0.89,3,2
18319.546,0.082,-0.867,0.638,-10.28,7.54,-3.33,3,2
18319.546,0.082,-0.863,0.623,-6.35,3.33,-7.23,3,2
18319.562,0.092,-0.851,0.596,-4.15,-0.15,-11.26,3,2
18319.578,0.106,-0.866,0.572,-2.11,-1.65,-15.35,3,2
18319.578,0.113,-0.857,0.545,0.89,-1.37,-18.19,3,2
18319.593,0.108,-0.829,0.533,2.66,0.55,-20.14,3,2
18319.593,0.079,-0.803,0.535,3.51,3.17,-20.72,3,2
18319.609,0.063,-0.783,0.539,3.27,4.55,-18.62,3,2
18319.625,0.08,-0.771,0.542,1.25,4.85,-15.14,3,2
18319.64,0.099,-0.772,0.548,-1.04,5.77,-11.32,3,2
18319.64,0.096,-0.777,0.552,-2.59,7.54,-6.99,3,2
18319.656,0.094,-0.774,0.583,-4.3,8.55,-2.17,3,2
18319.656,0.083,-0.787,0.607,-3.14,8.3,2.23,3,2
18319.671,0.081,-0.809,0.588,-1.65,6.29,5.71,3,2
18319.687,0.102,-0.82,0.561,-2.5,4.43,6.84,3,2
18319.703,0.118,-0.835,0.554,-3.14,4.79,5.07,3,2
18319.703,0.122,-0.844,0.556,2.01,7.9,0.09,3,2
18319.718,0.111,-0.821,0.559,3.14,8.85,-1.19,3,2
18319.718,0.092,-0.796,0.583,3.69,8.73,0.49,3,2
18319.734,0.069,-0.789,0.596,1.83,7.2,4.76,3,2
18319.734,0.088,-0.805,0.589,-1.31,5.46,7.93,3,2
18319.75,0.099,-0.831,0.6,-1.8,4.09,8.7,3,2
18319.765,0.104,-0.834,0.598,1.01,3.27,7.81,3,2
18319.765,0.095,-0.837,0.584,1.53,2.72,5.25,3,2
18319.781,0.092,-0.863,0.576,0.58,2.26,2.17,3,2
18319.796,0.085,-0.869,0.57,0.92,3.11,-0.31,3,2
18319.796,0.072,-0.866,0.571,1.04,4.33,-1.83,3,2
18319.812,0.078,-0.851,0.602,-0.43,3.85,-2.29,3,2
18319.812,0.079,-0.837,0.626,0.12,2.53,-2.29,3,2
18319.828,0.076,-0.831,0.613,1.56,0.52,-1.46,3,2
18319.843,0.074,-0.827,0.584,1.25,-1.71,-1.01,3,2
18319.843,0.071,-0.84,0.555,0.21,-2.84,-1.74,3,2
18319.859,0.074,-0.849,0.531,0.24,-2.26,-2.9,3,2
18319.875,0.07,-0.844,0.525,1.65,-0.12,-3.88,3,2
18319.875,0.065,-0.831,0.527,4.58,2.47,-3.75,3,2
18319.89,0.057,-0.793,0.552,5.01,4.58,-1.77,3,2
18319.906,0.055,-0.782,0.587,1.43,3.81,1.22,3,2
18319.906,0.064,-0.808,0.59,-2.29,1.04,4.61,3,2
18319.921,0.082,-0.832,0.563,-3.51,-0.73,6.16,3,2
18319.937,0.09,-0.843,0.55,-2.35,0.06,5.49,3,2
18319.937,0.083,-0.841,0.55,-1.07,1.59,3.51,3,2
18319.953,0.081,-0.827,0.578,-0.43,2.96,2.01,3,2
18319.953,0.074,-0.813,0.601,0.27,3.27,1.8,3,2
18319.968,0.073,-0.8,0.615,-0.52,2.08,2.69,3,2
18319.984,0.064,-0.799,0.63,-1.53,0.12,3.75,3,2
18319.984,0.051,-0.811,0.612,-1.89,-2.08,6.13,3,2
18320.0,0.062,-0.822,0.579,-3.69,-3.6,8.67,3,2
18320.015,0.079,-0.836,0.549,-4.94,-3.85,9.37,3,2
18320.015,0.085,-0.847,0.531,-4.3,-3.23,8.15,3,2
18320.031,0.072,-0.846,0.529,-3.57,-1.16,7.11,3,2
18320.031,0.058,-0.836,0.535,-4.55,1.16,6.35,3,2
18320.046,0.045,-0.838,0.551,-5.98,2.41,5.68,3,2
18320.062,0.042,-0.846,0.568,-8.3,3.11,5.28,3,2
18320.062,0.047,-0.855,0.596,-10.65,3.42,4.58,3,2
18320.078,0.061,-0.862,0.621,-10.35,3.08,2.9,3,2
18320.093,0.073,-0.861,0.643,-8.91,1.86,0.31,3,2
18320.093,0.074,-0.861,0.664,-7.48,-1.46,-2.99,3,2
18320.109,0.066,-0.862,0.638,-4.85,-6.32,-5.95,3,2
18320.125,0.064,-0.851,0.587,-1.16,-10.28,-7.48,3,2
18320.125,0.056,-0.838,0.534,0.98,-11.78,-8.39,3,2
18320.14,0.054,-0.821,0.493,0.03,-10.96,-8.58,3,2
18320.156,0.059,-0.814,0.469,-0.95,-7.39,-7.26,3,2
18320.156,0.063,-0.806,0.486,-1.59,-2.17,-5.31,3,2
18320.171,0.07,-0.806,0.517,-0.7,2.62,-2.84,3,2
18320.171,0.075,-0.811,0.542,1.86,6.38,-0.61,3,2
18320.187,0.064,-0.807,0.561,5.92,9.19,1.95,3,2
18320.203,0.053,-0.793,0.594,8.76,9.43,4.43,3,2
18320.203,0.048,-0.787,0.605,8.79,7.32,6.62,3,2
18320.218,0.056,-0.8,0.609,5.28,3.75,8.3,3,2
18320.234,0.072,-0.825,0.608,2.53,0.55,8.21,3,2
18320.234,0.077,-0.839,0.598,3.6,-0.82,6.23,3,2
18320.25,0.072,-0.841,0.581,5.34,-1.25,3.54,3,2
18320.265,0.067,-0.843,0.575,4.88,-1.13,1.74,3,2
18320.265,0.059,-0.844,0.576,4.0,-0.49,1.01,3,2
18320.281,0.057,-0.846,0.578,3.17,-0.21,0.85,3,2
18320.296,0.052,-0.85,0.58,3.05,-0.4,0.06,3,2
18320.296,0.038,-0.852,0.579,3.57,-0.58,-0.58,3,2
18320.312,0.025,-0.854,0.584,2.72,-1.43,-0.85,3,2
18320.312,0.032,-0.862,0.597,2.59,-3.2,-1.56,3,2
18320.328,0.042,-0.872,0.582,5.22,-4.73,-1.83,3,2
18320.343,0.058,-0.859,0.567,6.99,-5.58,-2.26,3,2
18320.343,0.061,-0.848,0.559,7.84,-5.71,-4.24,3,2
18320.359,0.04,-0.839,0.556,8.79,-4.85,-5.58,3,2
18320.375,0.032,-0.82,0.549,7.87,-3.57,-4.15,3,2
18320.375,0.04,-0.815,0.55,4.58,-2.01,-1.8,3,2
18320.39,0.048,-0.833,0.559,1.53,-0.4,-0.09,3,2
18320.406,0.064,-0.842,0.574,0.37,1.19,1.04,3,2
18320.406,0.066,-0.831,0.609,0.24,2.47,1.5,3,2
18320.421,0.035,-0.833,0.643,1.71,1.92,2.84,3,2
18320.437,0.043,-0.829,0.639,2.01,-1.89,4.73,3,2
18320.437,0.07,-0.843,0.624,1.31,-5.62,3.36,3,2
18320.453,0.064,-0.871,0.602,3.36,-7.17,0.27,3,2
18320.453,0.061,-0.859,0.579,6.29,-7.02,-2.11,3,2
18320.468,0.052,-0.833,0.58,6.59,-5.95,-4.33,3,2
18320.484,0.04,-0.824,0.584,4.94,-5.16,-4.58,3,2
18320.484,0.054,-0.818,0.588,1.98,-5.34,-3.42,3,2
18320.5,0.064,-0.824,0.597,2.08,-5.19,-3.42,3,2
18320.515,0.063,-0.814,0.603,4.49,-4.82,-2.78,3,2
18320.531,0.069,-0.806,0.598,4.33,-4.91,-2.23,3,2
18320.531,0.083,-0.82,0.596,3.11,-5.31,-3.48,3,2
18320.531,0.087,-0.829,0.596,3.85,-5.25,-6.1,3,2
18320.546,0.078,-0.828,0.594,5.4,-4.82,-9.31,3,2
18320.562,0.066,-0.809,0.599,6.93,-4.64,-11.6,3,2
18320.562,0.067,-0.79,0.608,7.6,-5.58,-12.57,3,2
18320.578,0.077,-0.757,0.599,8.7,-6.59,-12.12,3,2
18320.593,0.079,-0.713,0.591,7.39,-6.35,-9.34,3,2
18320.593,0.062,-0.717,0.608,1.4,-6.29,-4.67,3,2
18320.609,0.059,-0.751,0.614,-4.15,-7.26,0.73,3,2
18320.625,0.09,-0.767,0.593,-5.34,-8.06,6.32,3,2
18320.625,0.096,-0.775,0.582,-4.94,-6.32,10.44,3,2
18320.64,0.092,-0.777,0.593,-4.85,-3.97,13.43,3,2
18320.656,0.079,-0.771,0.618,-5.71,-3.33,15.96,3,2
18320.656,0.053,-0.79,0.623,-6.78,-4.49,18.28,3,2
18320.671,0.056,-0.822,0.614,-8.97,-6.16,20.48,3,2
18320.687,0.063,-0.858,0.593,-9.0,-6.59,20.91,3,2
18320.687,0.069,-0.863,0.587,-3.57,-3.54,18.37,3,2
18320.703,0.063,-0.845,0.621,0.85,-4.03,17.27,3,2
18320.718,0.051,-0.841,0.644,4.03,-5.95,17.49,3,2
18320.718,0.034,-0.823,0.626,1.68,-8.39,17.61,3,2
18320.734,0.052,-0.846,0.621,-1.53,-10.44,17.18,3,2
18320.734,0.057,-0.848,0.619,-1.19,-11.29,15.87,3,2
18320.75,0.053,-0.845,0.629,0.82,-11.6,13.52,3,2
18320.765,0.066,-0.831,0.648,3.23,-12.79,11.26,3,2
18320.765,0.067,-0.81,0.664,4.36,-14.89,9.28,3,2
18320.781,0.057,-0.821,0.674,4.24,-17.91,7.66,3,2
18320.781,0.055,-0.823,0.664,5.37,-21.3,6.65,3,2
18320.796,0.046,-0.829,0.628,5.68,-24.08,5.46,3,2
18320.812,0.052,-0.853,0.59,4.15,-24.96,3.85,3,2
18320.828,0.065,-0.856,0.564,3.91,-23.53,1.59,3,2
18320.828,0.054,-0.838,0.567,3.48,-20.66,-0.82,3,2
18320.843,0.042,-0.819,0.597,2.87,-18.59,-2.17,3,2
18320.843,0.043,-0.802,0.611,3.72,-18.37,-1.59,3,2
18320.859,0.045,-0.784,0.632,4.27,-18.68,-0.27,3,2
18320.875,0.05,-0.778,0.644,6.23,-19.78,2.08,3,2
18320.89,0.069,-0.754,0.645,7.14,-20.94,5.34,3,2
18320.89,0.064,-0.746,0.641,5.71,-21.67,7.84,3,2
18320.906,0.021,-0.757,0.633,3.05,-22.55,10.25,3,2
18320.906,-0.003,-0.796,0.604,-1.53,-23.87,13.89,3,2
18320.921,0.022,-0.851,0.557,-4.12,-24.93,16.14,3,2
18320.937,0.043,-0.887,0.525,-3.08,-21.79,15.78,3,2
18320.937,0.049,-0.878,0.53,-0.37,-16.75,13.49,3,2
18320.953,0.052,-0.85,0.563,1.68,-12.85,10.83,3,2
18320.953,0.038,-0.828,0.601,2.26,-11.17,8.91,3,2
18320.968,0.026,-0.811,0.624,1.5,-12.24,8.42,3,2
18320.984,0.034,-0.8,0.65,1.19,-14.68,8.76,3,2
18320.984,0.038,-0.798,0.654,2.96,-17.15,9.52,3,2
18321.0,0.045,-0.796,0.657,3.05,-18.68,11.66,3,2
18321.015,0.052,-0.819,0.655,1.98,-20.2,12.91,3,2
18321.015,0.07,-0.838,0.652,2.29,-22.22,12.42,3,2
18321.031,0.089,-0.846,0.65,3.91,-23.83,9.61,3,2
18321.046,0.106,-0.846,0.65,7.29,-25.12,5.37,3,2
18321.046,0.115,-0.818,0.664,10.71,-26.46,1.43,3,2
18321.062,0.094,-0.793,0.677,13.67,-27.89,-1.1,3,2
18321.062,0.07,-0.76,0.652,14.16,-30.76,-0.52,3,2
18321.078,0.053,-0.774,0.608,8.88,-33.51,2.69,3,2
18321.093,0.055,-0.819,0.56,2.75,-34.09,7.05,3,2
18321.093,0.069,-0.861,0.528,0.09,-31.62,10.86,3,2
18321.109,0.072,-0.87,0.518,1.89,-26.12,12.45,3,2
18321.125,0.07,-0.843,0.528,4.27,-20.08,12.51,3,2
18321.14,0.063,-0.832,0.582,5.19,-16.6,10.47,3,2
18321.14,0.05,-0.801,0.627,8.79,-16.42,7.78,3,2
18321.156,0.048,-0.763,0.645,10.99,-18.46,7.29,3,2
18321.156,0.085,-0.758,0.651,9.09,-22.19,7.84,3,2
18321.171,0.107,-0.759,0.642,7.78,-24.6,8.39,3,2
18321.187,0.084,-0.775,0.607,6.23,-24.84,9.89,3,2
18321.187,0.079,-0.796,0.591,2.81,-24.05,11.69,3,2
18321.203,0.069,-0.822,0.584,0.46,-22.1,12.6,3,2
18321.203,0.054,-0.83,0.589,-0.95,-19.68,13.46,3,2
18321.218,0.06,-0.836,0.616,-2.01,-19.14,12.85,3,2
18321.234,0.071,-0.845,0.629,0.64,-20.39,10.65,3,2
18321.25,0.089,-0.815,0.637,3.97,-21.39,9.09,3,2
18321.25,0.106,-0.792,0.651,4.49,-22.46,7.87,3,2
18321.265,0.121,-0.775,0.662,3.72,-23.74,7.75,3,2
18321.265,0.105,-0.759,0.661,1.16,-23.83,8.67,3,2
18321.281,0.084,-0.785,0.665,-1.89,-24.72,10.41,3,2
18321.296,0.089,-0.793,0.654,-1.53,-26.49,12.79,3,2
18321.296,0.112,-0.792,0.632,-1.8,-27.86,13.76,3,2
18321.312,0.128,-0.807,0.625,-3.17,-28.44,12.18,3,2
18321.328,0.137,-0.807,0.629,-2.2,-28.35,9.86,3,2
18321.328,0.137,-0.781,0.641,0.18,-28.02,7.9,3,2
18321.343,0.128,-0.766,0.637,1.59,-28.26,7.11,3,2
18321.343,0.127,-0.765,0.623,-0.21,-28.78,8.79,3,2
18321.359,0.114,-0.777,0.608,-4.12,-29.05,10.65,3,2
18321.375,0.107,-0.808,0.603,-7.39,-29.97,11.78,3,2
18321.375,0.118,-0.836,0.583,-6.84,-30.85,11.44,3,2
18321.39,0.145,-0.832,0.567,-3.75,-30.52,9.64,3,2
18321.406,0.154,-0.814,0.582,-0.64,-29.48,6.44,3,2
18321.406,0.149,-0.787,0.598,1.71,-28.99,3.81,3,2
18321.421,0.149,-0.755,0.604,2.04,-29.45,3.63,3,2
18321.437,0.153,-0.743,0.605,0.03,-30.4,5.52,3,2
18321.437,0.136,-0.75,0.594,-1.65,-31.37,8.82,3,2
18321.453,0.13,-0.771,0.559,-2.29,-32.07,13.86,3,2
18321.453,0.135,-0.799,0.527,-4.09,-31.5,18.8,3,2
18321.468,0.139,-0.843,0.502,-5.49,-29.42,21.06,3,2
18321.484,0.142,-0.867,0.494,-4.58,-26.12,20.51,3,2
18321.484,0.142,-0.869,0.499,-2.9,-22.16,17.18,3,2
18321.5,0.141,-0.867,0.517,-1.98,-19.68,12.27,3,2
18321.515,0.134,-0.842,0.549,-0.43,-18.8,7.17,3,2
18321.515,0.12,-0.813,0.562,2.53,-19.38,4.0,3,2
18321.531,0.116,-0.788,0.558,3.6,-20.57,4.36,3,2
18321.546,0.125,-0.781,0.546,2.26,-21.27,6.84,3,2
18321.546,0.14,-0.78,0.541,0.03,-20.48,10.59,3,2
18321.562,0.145,-0.779,0.552,-1.92,-18.52,14.31,3,2
18321.562,0.138,-0.788,0.561,-2.35,-16.6,16.79,3,2
18321.578,0.139,-0.796,0.558,-1.98,-15.84,18.56,3,2
18321.593,0.15,-0.796,0.564,-1.68,-15.38,19.1,3,2
18321.609,0.149,-0.801,0.568,-0.4,-14.89,18.62,3,2
18321.609,0.145,-0.804,0.564,-0.24,-14.74,18.04,3,2
18321.625,0.135,-0.819,0.568,-0.64,-14.8,16.82,3,2
18321.625,0.117,-0.834,0.572,0.73,-15.63,15.59,3,2
18321.64,0.108,-0.835,0.571,3.08,-17.82,14.44,3,2
18321.656,0.114,-0.835,0.556,4.94,-20.02,13.46,3,2
18321.656,0.128,-0.826,0.545,5.16,-20.42,13.03,3,2
18321.671,0.136,-0.818,0.542,4.49,-18.16,14.59,3,2
18321.687,0.141,-0.807,0.54,2.32,-16.02,16.24,3,2
18321.687,0.143,-0.805,0.554,1.01,-13.73,17.64,3,2
18321.703,0.12,-0.817,0.571,1.04,-12.97,19.29,3,2
18321.703,0.1,-0.845,0.571,0.61,-13.73,20.11,3,2
18321.718,0.097,-0.871,0.558,0.06,-14.56,19.14,3,2
18321.734,0.107,-0.896,0.542,0.76,-14.68,16.94,3,2
18321.75,0.116,-0.896,0.534,2.9,-13.21,13.79,3,2
18321.75,0.116,-0.89,0.533,4.64,-10.9,10.77,3,2
18321.765,0.116,-0.88,0.537,4.82,-8.58,8.58,3,2
18321.765,0.113,-0.869,0.556,4.97,-6.84,5.89,3,2
18321.781,0.104,-0.849,0.572,6.47,-5.8,4.06,3,2
18321.796,0.102,-0.829,0.589,7.35,-5.8,3.42,3,2
18321.796,0.1,-0.816,0.612,8.15,-6.87,3.51,3,2
18321.812,0.096,-0.797,0.618,9.19,-9.49,4.36,3,2
18321.812,0.1,-0.785,0.606,8.27,-12.63,5.43,3,2
18321.828,0.106,-0.786,0.588,5.19,-15.35,7.02,3,2
18321.843,0.119,-0.793,0.582,2.23,-17.55,9.19,3,2
18321.843,0.131,-0.798,0.566,1.43,-17.85,11.32,3,2
18321.859,0.144,-0.804,0.562,0.55,-16.82,12.42,3,2
18321.875,0.15,-0.818,0.571,-0.06,-15.23,11.84,3,2
18321.875,0.154,-0.813,0.583,1.28,-13.73,9.98,3,2
18321.89,0.146,-0.804,0.597,3.14,-12.82,7.2,3,2
18321.906,0.135,-0.802,0.604,4.91,-12.63,4.64,3,2
18321.906,0.133,-0.8,0.604,7.08,-13.43,2.75,3,2
18321.921,0.134,-0.788,0.605,9.77,-14.04,2.23,3,2
18321.937,0.122,-0.768,0.612,11.63,-14.89,3.11,3,2
18321.937,0.115,-0.763,0.609,11.08,-17.06,5.01,3,2
18321.953,0.116,-0.766,0.597,8.82,-19.71,7.69,3,2
18321.953,0.128,-0.774,0.585,5.86,-21.42,10.25,3,2
18321.968,0.136,-0.787,0.578,3.85,-21.67,11.81,3,2
18321.984,0.116,-0.794,0.575,3.75,-20.66,13.0,3,2
18321.984,0.113,-0.793,0.581,3.14,-19.62,14.92,3,2
18322.0,0.109,-0.809,0.588,2.04,-19.04,15.69,3,2
18322.015,0.103,-0.825,0.58,1.37,-18.71,15.69,3,2
18322.031,0.112,-0.835,0.572,0.61,-19.38,15.23,3,2
18322.031,0.126,-0.85,0.566,0.27,-19.84,13.15,3,2
18322.046,0.128,-0.852,0.57,1.22,-19.23,10.1,3,2
18322.046,0.119,-0.841,0.585,3.42,-17.76,7.51,3,2
18322.062,0.114,-0.819,0.599,4.43,-17.33,5.95,3,2
18322.078,0.113,-0.806,0.607,3.78,-17.85,5.07,3,2
18322.078,0.115,-0.803,0.608,2.69,-18.28,5.22,3,2
18322.093,0.115,-0.795,0.607,2.75,-18.04,6.2,3,2
18322.093,0.102,-0.789,0.593,3.11,-17.12,7.9,3,2
18322.109,0.101,-0.792,0.583,1.13,-17.06,10.5,3,2
18322.125,0.105,-0.804,0.564,-1.01,-17.21,12.7,3,2
18322.125,0.112,-0.821,0.556,-2.9,-16.39,14.74,3,2
18322.14,0.115,-0.835,0.551,-3.94,-14.83,15.59,3,2
18322.156,0.113,-0.848,0.545,-4.88,-13.43,15.11,3,2
18322.156,0.115,-0.857,0.543,-4.36,-11.87,13.0,3,2
18322.171,0.112,-0.857,0.539,-2.01,-9.95,9.31,3,2
18322.187,0.099,-0.858,0.542,0.49,-8.39,5.46,3,2
18322.187,0.089,-0.848,0.552,3.36,-6.47,3.39,3,2
18322.203,0.076,-0.814,0.553,5.95,-5.65,2.04,3,2
18322.203,0.068,-0.802,0.555,5.4,-6.59,1.53,3,2
18322.218,0.069,-0.795,0.562,2.99,-7.72,2.44,3,2
18322.234,0.075,-0.796,0.561,2.47,-8.18,4.21,3,2
18322.234,0.082,-0.789,0.555,2.26,-7.2,7.05,3,2
18322.25,0.083,-0.789,0.548,0.7,-5.52,9.31,3,2
18322.265,0.087,-0.8,0.547,-1.83,-3.02,10.96,3,2
18322.265,0.091,-0.808,0.553,-4.21,0.49,12.42,3,2
18322.281,0.089,-0.817,0.564,-5.46,4.43,12.82,3,2
18322.296,0.081,-0.825,0.578,-5.95,7.35,11.87,3,2
18322.296,0.065,-0.827,0.59,-5.4,8.18,10.28,3,2
18322.312,0.052,-0.824,0.6,-4.55,6.74,9.4,3,2
18322.312,0.058,-0.824,0.591,-4.0,4.24,8.58,3,2
18322.328,0.059,-0.816,0.59,-3.85,2.32,8.09,3,2
18322.343,0.055,-0.808,0.57,-3.91,1.1,8.67,3,2
18322.343,0.065,-0.804,0.551,-5.52,0.98,10.65,3,2
18322.359,0.075,-0.797,0.53,-7.75,2.99,13.18,3,2
18322.375,0.075,-0.801,0.518,-9.92,6.65,16.17,3,2
18322.39,0.073,-0.812,0.523,-11.93,10.41,18.98,3,2
18322.39,0.067,-0.832,0.532,-13.03,13.43,21.21,3,2
18322.406,0.059,-0.853,0.555,-13.25,14.92,21.91,3,2
18322.406,0.054,-0.872,0.574,-11.93,14.28,20.45,3,2
18322.421,0.051,-0.885,0.584,-9.22,11.78,17.52,3,2
18322.437,0.056,-0.889,0.586,-5.89,8.3,13.64,3,2
18322.437,0.071,-0.888,0.587,-2.32,4.58,9.06,3,2
18322.453,0.079,-0.881,0.585,2.2,1.98,4.76,3,2
18322.453,0.088,-0.86,0.581,6.07,0.37,1.46,3,2
18322.468,0.095,-0.849,0.575,7.9,-0.09,-0.7,3,2
18322.484,0.1,-0.831,0.576,8.45,1.34,-0.49,3,2
18322.5,0.09,-0.817,0.569,7.93,3.66,1.19,3,2
18322.5,0.083,-0.817,0.575,4.85,5.13,2.9,3,2
18322.515,0.074,-0.834,0.586,1.83,5.37,3.88,3,2
18322.515,0.078,-0.857,0.582,1.04,4.61,4.58,3,2
18322.531,0.076,-0.871,0.583,1.53,4.33,4.21,3,2
18322.546,0.078,-0.887,0.585,2.17,3.42,2.75,3,2
18322.546,0.073,-0.888,0.593,1.68,2.56,0.98,3,2
18322.562,0.067,-0.895,0.616,1.01,0.89,-1.71,3,2
18322.578,0.057,-0.897,0.614,2.32,-1.34,-4.18,3,2
18322.578,0.058,-0.877,0.623,4.27,-3.48,-4.94,3,2
18322.593,0.062,-0.872,0.614,6.81,-6.32,-5.95,3,2
18322.593,0.079,-0.863,0.585,6.65,-9.58,-6.56,3,2
18322.609,0.096,-0.861,0.56,2.32,-11.05,-6.99,3,2
18322.625,0.107,-0.868,0.538,-3.14,-11.14,-7.9,3,2
18322.64,0.105,-0.873,0.541,-7.63,-9.13,-7.97,3,2
18322.64,0.09,-0.869,0.558,-9.34,-5.68,-7.14,3,2
18322.656,0.075,-0.852,0.571,-12.94,-3.78,-6.47,3,2
18322.656,0.054,-0.844,0.569,-17.09,-6.32,-6.56,3,2
18322.671,0.06,-0.858,0.568,-19.14,-8.21,-7.42,3,2
18322.687,0.078,-0.863,0.567,-18.59,-9.22,-9.13,3,2
18322.687,0.109,-0.856,0.536,-17.12,-10.62,-11.84,3,2
18322.703,0.117,-0.832,0.534,-13.73,-11.6,-14.8,3,2
18322.703,0.112,-0.802,0.524,-8.55,-12.15,-15.5,3,2
18322.718,0.131,-0.777,0.514,-5.77,-12.39,-13.55,3,2
18322.734,0.148,-0.756,0.498,-6.35,-10.56,-10.77,3,2
18322.734,0.134,-0.741,0.5,-10.22,-6.07,-6.47,3,2
18322.75,0.128,-0.753,0.535,-15.35,-2.32,-1.07,3,2
18322.765,0.103,-0.77,0.556,-17.43,-0.15,4.18,3,2
18322.765,0.083,-0.792,0.568,-17.98,-0.18,9.34,3,2
18322.781,0.111,-0.82,0.585,-18.92,-2.81,12.15,3,2
18322.796,0.109,-0.863,0.577,-16.42,-6.44,10.07,3,2
18322.796,0.109,-0.888,0.559,-10.38,-10.22,6.2,3,2
18322.812,0.129,-0.891,0.54,-3.94,-12.51,1.22,3,2
18322.812,0.125,-0.887,0.511,2.96,-12.24,-4.21,3,2
18322.828,0.12,-0.851,0.497,8.45,-10.13,-7.08,3,2
18322.843,0.106,-0.819,0.495,10.56,-6.59,-8.06,3,2
18322.843,0.081,-0.798,0.493,8.64,-2.35,-6.26,3,2
18322.859,0.075,-0.782,0.519,3.81,0.98,-2.11,3,2
18322.875,0.059,-0.802,0.544,0.15,2.93,2.44,3,2
18322.875,0.049,-0.818,0.552,-0.18,2.44,6.74,3,2
18322.89,0.083,-0.834,0.549,0.73,-0.37,8.55,3,2
18322.906,0.083,-0.867,0.53,2.2,-1.77,7.32,3,2
18322.906,0.085,-0.88,0.523,4.09,-2.44,5.83,3,2
18322.921,0.102,-0.881,0.516,6.07,-2.66,3.72,3,2
18322.937,0.098,-0.889,0.498,7.6,-1.53,1.31,3,2
18322.937,0.099,-0.897,0.485,7.32,0.37,-0.37,3,2
18322.953,0.099,-0.9,0.458,6.07,2.72,-1.65,3,2
18322.953,0.094,-0.91,0.438,2.66,5.07,-2.32,3,2
18322.968,0.082,-0.919,0.448,-0.06,6.32,-3.33,3,2
18322.984,0.052,-0.911,0.459,-0.34,7.11,-4.12,3,2
18323.0,0.044,-0.903,0.468,0.09,6.96,-5.4,3,2
18323.0,0.045,-0.882,0.475,1.01,6.96,-7.23,3,2
18323.015,0.043,-0.864,0.491,2.56,7.39,-8.64,3,2
18323.015,0.039,-0.854,0.499,3.08,7.54,-9.67,3,2
18323.031,0.047,-0.847,0.509,3.42,7.17,-10.56,3,2
18323.046,0.052,-0.841,0.514,4.49,7.23,-10.35,3,2
18323.046,0.07,-0.845,0.51,4.46,6.96,-9.67,3,2
18323.062,0.084,-0.847,0.515,4.12,7.2,-9.0,3,2
18323.062,0.088,-0.84,0.518,3.69,8.79,-8.27,3,2
18323.078,0.097,-0.834,0.53,2.84,9.49,-8.3,3,2
18323.093,0.085,-0.821,0.542,2.78,9.7,-8.24,3,2
18323.093,0.087,-0.818,0.55,2.59,8.67,-7.17,3,2
18323.109,0.113,-0.828,0.551,1.37,7.08,-6.87,3,2
18323.125,0.119,-0.832,0.552,1.71,7.69,-7.17,3,2
18323.125,0.11,-0.821,0.556,1.74,9.83,-5.25,3,2
18323.14,0.123,-0.826,0.566,-1.19,11.17,-2.9,3,2
18323.156,0.126,-0.858,0.581,-3.14,12.3,-2.17,3,2
18323.156,0.117,-0.859,0.59,-2.66,13.7,-1.74,3,2
18323.171,0.11,-0.863,0.59,-2.44,13.92,-2.17,3,2
18323.187,0.097,-0.867,0.598,-3.08,12.82,-3.94,3,2
18323.187,0.079,-0.868,0.606,-3.51,10.65,-5.52,3,2
18323.203,0.081,-0.876,0.598,-3.6,8.09,-7.2,3,2
18323.203,0.087,-0.877,0.583,-3.08,6.32,-8.79,3,2
18323.218,0.091,-0.877,0.575,-2.5,6.04,-10.22,3,2
18323.234,0.084,-0.873,0.564,-2.04,7.26,-10.83,3,2
18323.234,0.077,-0.86,0.557,-3.42,8.85,-10.25,3,2
18323.25,0.073,-0.859,0.552,-5.83,10.13,-10.22,3,2
18323.265,0.066,-0.853,0.544,-7.05,11.54,-10.47,3,2
18323.265,0.063,-0.843,0.534,-6.93,12.82,-10.71,3,2
18323.281,0.058,-0.841,0.52,-6.44,13.79,-11.38,3,2
18323.296,0.047,-0.829,0.515,-5.62,14.89,-11.51,3,2
18323.296,0.054,-0.822,0.51,-5.22,16.14,-10.47,3,2
18323.312,0.057,-0.821,0.508,-6.38,17.61,-8.82,3,2
18323.312,0.049,-0.833,0.513,-8.03,19.26,-7.05,3,2
18323.328,0.055,-0.848,0.496,-8.61,21.06,-5.65,3,2
18323.343,0.058,-0.85,0.494,-8.85,23.35,-5.1,3,2
18323.343,0.045,-0.861,0.479,-9.52,26.64,-5.04,3,2
18323.359,0.05,-0.863,0.471,-10.74,29.91,-4.58,3,2
18323.375,0.043,-0.865,0.458,-12.67,34.12,-4.43,3,2
18323.375,0.042,-0.872,0.452,-14.95,37.87,-5.04,3,2
18323.39,0.046,-0.876,0.469,-15.72,40.22,-6.35,3,2
18323.406,0.042,-0.867,0.485,-12.94,41.6,-7.23,3,2
18323.406,0.058,-0.848,0.507,-10.04,41.81,-7.6,3,2
18323.421,0.065,-0.836,0.517,-8.0,41.75,-7.17,3,2
18323.437,0.088,-0.839,0.546,-6.99,41.26,-5.89,3,2
18323.437,0.108,-0.838,0.57,-5.49,41.14,-3.81,3,2
18323.453,0.119,-0.845,0.59,-5.28,40.31,-1.71,3,2
18323.468,0.13,-0.874,0.604,-5.74,37.08,-1.16,3,2
18323.468,0.137,-0.898,0.603,-4.49,32.04,-2.44,3,2
18323.484,0.145,-0.91,0.599,-2.29,26.55,-5.31,3,2
18323.484,0.144,-0.909,0.581,0.92,21.27,-9.46,3,2
18323.5,0.143,-0.896,0.57,2.66,16.88,-13.09,3,2
18323.515,0.134,-0.888,0.565,3.27,13.61,-16.11,3,2
18323.531,0.111,-0.862,0.55,4.03,11.6,-15.29,3,2
18323.531,0.105,-0.84,0.547,2.41,9.86,-11.44,3,2
18323.546,0.079,-0.838,0.532,-1.16,9.06,-7.84,3,2
18323.546,0.059,-0.859,0.521,-4.73,8.79,-3.78,3,2
18323.562,0.077,-0.877,0.509,-5.86,8.27,-1.56,3,2
18323.562,0.065,-0.89,0.494,-4.46,8.88,-3.63,3,2
18323.578,0.045,-0.886,0.493,-1.98,9.4,-7.2,3,2
18323.593,0.056,-0.87,0.503,1.22,8.18,-10.47,3,2
18323.593,0.058,-0.841,0.496,4.18,7.57,-12.45,3,2
18323.609,0.058,-0.818,0.501,4.88,7.08,-11.63,3,2
18323.625,0.077,-0.808,0.498,3.85,5.77,-9.8,3,2
18323.625,0.066,-0.819,0.489,2.29,5.89,-7.48,3,2
18323.64,0.048,-0.83,0.474,-1.56,6.04,-2.84,3,2
18323.656,0.058,-0.84,0.472,-2.56,6.99,-3.11,3,2
18323.656,0.039,-0.868,0.475,-1.68,6.32,-3.63,3,2
18323.671,0.04,-0.878,0.479,0.12,5.16,-5.43,3,2
18323.671,0.055,-0.914,0.491,1.77,3.48,-8.0,3,2
18323.687,0.067,-0.908,0.494,3.39,1.31,-11.32,3,2
18323.703,0.072,-0.894,0.495,4.88,-1.68,-14.62,3,2
18323.703,0.087,-0.869,0.496,6.84,-3.81,-15.9,3,2
18323.718,0.096,-0.831,0.496,8.24,-3.33,-14.28,3,2
18323.734,0.099,-0.811,0.505,6.62,-1.37,-9.7,3,2
18323.734,0.1,-0.819,0.518,4.09,0.03,-4.03,3,2
18323.75,0.102,-0.836,0.524,0.89,0.24,1.62,3,2
18323.765,0.11,-0.878,0.533,-3.05,-1.25,4.61,3,2
18323.765,0.12,-0.917,0.54,-4.55,-3.85,3.6,3,2
18323.781,0.108,-0.935,0.552,-2.5,-6.81,-0.4,3,2
18323.796,0.088,-0.933,0.558,1.34,-10.28,-5.4,3,2
18323.796,0.08,-0.918,0.553,4.7,-14.22,-10.35,3,2
18323.812,0.07,-0.894,0.544,7.42,-17.15,-13.86,3,2
18323.812,0.052,-0.867,0.52,8.51,-17.82,-13.73,3,2
18323.828,0.062,-0.854,0.5,6.71,-17.06,-10.28,3,2
18323.843,0.078,-0.834,0.485,3.69,-14.59,-7.05,3,2
18323.843,0.044,-0.813,0.481,0.92,-10.83,-3.39,3,2
18323.859,0.046,-0.815,0.489,-1.46,-8.55,1.62,3,2
18323.875,0.093,-0.823,0.498,-2.62,-7.29,4.82,3,2
18323.875,0.094,-0.836,0.503,-2.11,-4.7,5.31,3,2
18323.89,0.078,-0.845,0.522,-1.65,-2.96,5.71,3,2
18323.906,0.084,-0.858,0.535,-1.28,-2.78,5.71,3,2
18323.906,0.092,-0.875,0.546,-0.09,-2.81,4.15,3,2
18323.921,0.086,-0.875,0.553,2.41,-2.66,1.56,3,2
18323.921,0.057,-0.856,0.562,4.12,-2.81,0.21,3,2
18323.937,0.056,-0.848,0.575,3.27,-5.4,1.13,3,2
18323.953,0.082,-0.861,0.566,1.77,-7.87,2.23,3,2
18323.953,0.095,-0.871,0.548,1.95,-7.9,2.9,3,2
18323.968,0.103,-0.869,0.544,2.41,-6.23,3.2,3,2
18323.984,0.099,-0.87,0.552,2.32,-4.12,3.36,3,2
18323.984,0.094,-0.863,0.562,1.1,-2.72,3.88,3,2
18324.0,0.092,-0.857,0.571,-0.55,-2.08,4.33,3,2
18324.015,0.089,-0.868,0.578,-1.43,-2.84,4.06,3,2
18324.015,0.091,-0.855,0.589,-1.53,-4.79,3.11,3,2
18324.031,0.102,-0.853,0.586,-1.28,-6.96,1.98,3,2
18324.046,0.114,-0.849,0.569,-1.37,-8.97,0.4,3,2
18324.046,0.124,-0.843,0.55,-1.07,-9.49,-0.85,3,2
18324.062,0.119,-0.83,0.542,-0.76,-8.48,-1.16,3,2
18324.062,0.116,-0.825,0.542,-1.71,-7.54,-0.46,3,2
18324.078,0.108,-0.826,0.534,-1.8,-6.01,0.21,3,2
18324.093,0.095,-0.819,0.53,-2.2,-4.27,1.01,3,2
18324.093,0.088,-0.823,0.538,-3.75,-4.12,0.73,3,2
18324.109,0.077,-0.823,0.536,-4.03,-4.88,0.12,3,2
18324.125,0.07,-0.818,0.519,-2.84,-4.94,0.92,3,2
18324.14,0.094,-0.817,0.513,-2.9,-4.82,2.32,3,2
18324.14,0.091,-0.815,0.514,-3.81,-3.08,3.3,3,2
18324.156,0.074,-0.816,0.528,-5.13,-1.31,5.49,3,2
18324.156,0.093,-0.834,0.533,-7.51,-1.25,7.35,3,2
18324.171,0.101,-0.86,0.539,-8.61,-1.01,6.71,3,2
18324.171,0.083,-0.873,0.54,-6.1,-1.07,4.24,3,2
18324.187,0.076,-0.866,0.527,-3.48,-2.01,1.59,3,2
18324.203,0.081,-0.866,0.532,-1.95,-2.81,-1.01,3,2
18324.218,0.072,-0.862,0.521,1.62,-2.5,-2.29,3,2
18324.218,0.088,-0.843,0.508,3.48,-1.95,-1.89,3,2
18324.234,0.093,-0.841,0.506,1.68,-0.76,-2.26,3,2
18324.234,0.088,-0.85,0.523,0.03,0.85,-2.59,3,2
18324.25,0.078,-0.848,0.536,1.25,2.66,-1.74,3,2
18324.265,0.078,-0.84,0.54,2.23,3.23,-0.46,3,2
18324.265,0.075,-0.829,0.553,0.61,2.53,0.64,3,2
18324.281,0.074,-0.841,0.556,-1.98,0.98,1.98,3,2
18324.296,0.103,-0.871,0.555,-2.78,-0.58,2.75,3,2
18324.296,0.12,-0.888,0.541,-0.58,-1.04,1.56,3,2
18324.312,0.115,-0.883,0.531,1.98,-0.58,-1.04,3,2
18324.312,0.099,-0.877,0.529,2.66,-0.55,-4.18,3,2
18324.328,0.085,-0.878,0.528,1.98,-1.25,-6.56,3,2
18324.343,0.094,-0.87,0.534,1.92,-1.46,-7.87,3,2
18324.343,0.078,-0.847,0.529,2.99,-0.55,-8.36,3,2
18324.359,0.048,-0.823,0.532,1.92,0.15,-6.44,3,2
18324.375,0.054,-0.819,0.543,-1.13,-0.73,-2.72,3,2
18324.375,0.078,-0.836,0.529,-3.02,-1.5,0.7,3,2
18324.39,0.09,-0.85,0.513,-4.24,-0.7,3.05,3,2
18324.406,0.103,-0.878,0.515,-5.34,0.49,2.96,3,2
18324.406,0.1,-0.893,0.523,-3.54,1.4,0.55,3,2
18324.421,0.089,-0.877,0.527,0.82,1.59,-2.66,3,2
18324.437,0.079,-0.855,0.525,3.75,0.67,-5.68,3,2
18324.437,0.078,-0.843,0.527,3.78,-0.85,-7.6,3,2
18324.453,0.085,-0.84,0.523,3.39,-1.74,-8.12,3,2
18324.453,0.084,-0.84,0.513,3.3,-1.22,-7.08,3,2
18324.468,0.082,-0.837,0.516,1.92,-0.24,-5.46,3,2
18324.484,0.076,-0.845,0.52,-0.49,0.15,-4.18,3,2
18324.484,0.073,-0.858,0.53,-2.53,0.0,-3.11,3,2
18324.5,0.077,-0.866,0.536,-3.36,-0.37,-2.35,3,2
18324.515,0.08,-0.875,0.539,-3.97,-0.12,-2.26,3,2
18324.515,0.091,-0.881,0.545,-4.88,-0.27,-2.32,3,2
18324.531,0.089,-0.895,0.559,-6.71,-0.43,-2.2,3,2
18324.546,0.103,-0.861,0.538,-7.2,-0.12,-1.19,3,2
18324.546,0.129,-0.865,0.532,-8.39,-0.12,0.52,3,2
18324.562,0.128,-0.885,0.539,-10.25,-0.21,-0.85,3,2
18324.562,0.143,-0.887,0.545,-10.47,-1.13,-2.96,3,2
18324.578,0.142,-0.875,0.542,-6.5,-1.1,-4.88,3,2
18324.593,0.138,-0.851,0.529,-3.05,-0.76,-6.1,3,2
18324.593,0.143,-0.844,0.531,-2.5,-0.58,-6.71,3,2
18324.609,0.134,-0.833,0.539,-1.95,0.49,-6.35,3,2
18324.625,0.12,-0.822,0.553,-3.11,0.46,-3.08,3,2
18324.625,0.12,-0.827,0.558,-4.3,-0.61,-2.17,3,2
18324.64,0.122,-0.843,0.555,-4.0,-1.16,-1.59,3,2
18324.656,0.119,-0.849,0.551,-3.72,-1.62,-1.34,3,2
