timestamp,ax,ay,az,gx,gy,gz,orient_label,motion_label
18256.312,0.062,-0.772,0.587,5.28,0.4,-23.13,3,2
18256.312,0.065,-0.753,0.597,5.37,-0.43,-22.64,3,2
18256.328,0.074,-0.738,0.594,5.98,-2.17,-21.7,3,2
18256.343,0.082,-0.735,0.596,6.84,-3.57,-20.11,3,2
18256.359,0.085,-0.736,0.598,7.57,-4.39,-17.64,3,2
18256.359,0.089,-0.739,0.594,8.94,-5.49,-14.98,3,2
18256.375,0.09,-0.741,0.587,9.83,-6.47,-12.73,3,2
18256.375,0.087,-0.748,0.574,9.34,-6.99,-10.35,3,2
18256.39,0.08,-0.752,0.562,7.72,-6.65,-7.84,3,2
18256.406,0.079,-0.76,0.56,6.56,-5.43,-5.37,3,2
18256.406,0.077,-0.758,0.561,5.92,-3.33,-2.11,3,2
18256.421,0.078,-0.76,0.571,3.88,-1.22,1.89,3,2
18256.421,0.094,-0.78,0.588,1.28,-0.18,5.07,3,2
18256.437,0.094,-0.803,0.604,0.95,0.27,6.99,3,2
18256.453,0.076,-0.816,0.608,1.37,0.09,8.51,3,2
18256.453,0.054,-0.836,0.602,0.18,-1.43,9.09,3,2
18256.468,0.054,-0.863,0.581,-0.89,-2.99,9.22,3,2
18256.484,0.086,-0.89,0.56,-1.07,-1.19,8.0,3,2
18256.5,0.092,-0.89,0.571,-0.31,0.85,6.01,3,2
18256.5,0.086,-0.88,0.596,0.95,1.8,3.36,3,2
18256.515,0.077,-0.868,0.623,2.23,1.25,0.4,3,2
18256.531,0.069,-0.863,0.649,3.91,-0.67,-1.83,3,2
18256.531,0.065,-0.858,0.674,5.04,-3.36,-3.36,3,2
18256.546,0.06,-0.869,0.695,5.62,-7.05,-5.34,3,2
18256.562,0.069,-0.892,0.715,6.53,-11.69,-7.87,3,2
18256.562,0.088,-0.917,0.742,8.39,-16.66,-11.57,3,2
18256.578,0.088,-0.947,0.776,10.74,-22.61,-17.43,3,2
18256.593,0.085,-0.977,0.815,13.25,-31.56,-26.58,3,2
18256.593,0.093,-0.988,0.85,17.94,-44.16,-39.92,3,2
18256.609,0.119,-0.972,0.876,26.22,-59.14,-56.09,3,2
18256.625,0.152,-0.931,0.895,37.29,-74.53,-72.91,3,2
18256.625,0.19,-0.861,0.895,50.48,-88.5,-87.8,3,2
18256.64,0.222,-0.789,0.873,63.05,-99.09,-99.55,3,2
18256.656,0.199,-0.616,0.881,80.32,-109.62,-112.13,3,2
18256.671,0.188,-0.556,0.87,87.62,-112.77,-112.86,3,2
18256.671,0.185,-0.525,0.832,92.38,-114.41,-114.26,3,2
18256.687,0.18,-0.48,0.799,107.7,-109.26,-115.94,3,2
18256.703,0.193,-0.435,0.761,116.64,-102.73,-118.44,3,2
18256.703,0.168,-0.407,0.738,127.41,-94.79,-120.64,3,2
18256.718,0.159,-0.372,0.755,142.43,-87.31,-122.75,3,2
18256.734,0.068,-0.269,0.845,160.99,-82.19,-123.66,3,2
18256.734,0.048,-0.227,0.852,180.46,-81.39,-120.88,3,2
18256.75,0.072,-0.178,0.842,197.09,-81.61,-115.91,3,2
18256.765,0.105,-0.133,0.819,210.58,-81.18,-110.45,3,2
18256.765,0.152,-0.12,0.77,221.47,-79.53,-104.53,3,2
18256.781,0.202,-0.097,0.721,227.91,-75.14,-100.31,3,2
18256.796,0.236,-0.072,0.68,231.09,-66.9,-99.12,3,2
18256.796,0.292,-0.065,0.638,234.53,-56.64,-100.04,3,2
18256.828,0.326,-0.05,0.598,243.96,-22.92,-102.36,3,2
18256.828,0.318,-0.043,0.583,244.3,-6.35,-101.63,3,2
18256.843,0.352,-0.016,0.565,239.17,2.69,-99.67,3,2
18256.843,0.413,0.001,0.53,231.94,7.87,-96.8,3,2
18256.859,0.47,0.0,0.498,226.48,16.39,-92.96,3,2
18256.875,0.501,0.025,0.503,224.49,33.33,-86.67,3,2
18256.875,0.521,0.05,0.532,224.31,55.15,-76.11,3,2
18256.89,0.554,0.028,0.569,224.13,80.17,-61.07,3,2
18256.906,0.634,0.016,0.583,221.14,106.48,-45.35,3,2
18256.906,0.633,0.018,0.57,209.2,134.07,-36.19,3,2
18256.921,0.563,-0.006,0.565,180.12,152.38,-31.56,3,2
18256.937,0.489,-0.001,0.652,136.6,151.31,-34.85,3,2
18256.937,0.411,-0.028,0.816,93.3,138.46,-38.39,3,2
18256.953,0.366,-0.047,0.995,61.56,114.29,-36.47,3,2
18256.968,0.38,-0.061,1.148,45.72,83.93,-29.82,3,2
18256.968,0.412,-0.092,1.258,41.44,52.95,-21.18,3,2
18256.984,0.577,-0.196,1.262,51.33,-15.47,-2.04,3,2
18257.0,0.635,-0.235,1.171,56.49,-45.41,0.58,3,2
18257.015,0.697,-0.271,1.099,60.46,-67.38,0.21,3,2
18257.015,0.768,-0.276,1.052,68.24,-78.83,-5.16,3,2
18257.031,0.804,-0.226,1.007,77.61,-75.87,-13.34,3,2
18257.046,0.828,-0.169,0.979,79.99,-63.72,-22.64,3,2
18257.046,0.837,-0.119,0.945,71.23,-48.37,-31.77,3,2
18257.062,0.83,-0.067,0.926,52.52,-31.28,-37.35,3,2
18257.062,0.789,0.012,0.945,27.77,-16.08,-41.08,3,2
18257.078,0.751,0.05,0.971,4.88,-7.35,-43.82,3,2
18257.093,0.677,0.027,0.967,-8.12,-4.06,-45.35,3,2
18257.093,0.592,0.025,0.978,-8.55,-5.01,-45.14,3,2
18257.109,0.566,0.115,1.005,2.81,-9.34,-42.18,3,2
18257.125,0.55,0.177,0.984,22.68,-14.13,-37.81,3,2
18257.125,0.535,0.186,0.939,41.87,-16.6,-32.14,3,2
18257.14,0.561,0.275,0.908,58.47,-13.4,-27.83,3,2
18257.156,0.544,0.358,0.837,69.77,-6.71,-25.39,3,2
18257.156,0.547,0.448,0.783,65.13,-0.52,-21.7,3,2
18257.171,0.565,0.509,0.743,47.67,2.93,-19.2,3,2
18257.171,0.601,0.55,0.722,22.74,7.72,-15.26,3,2
18257.187,0.647,0.583,0.707,-3.54,13.89,-13.03,3,2
18257.203,0.699,0.614,0.709,-26.34,23.62,-13.86,3,2
18257.203,0.756,0.682,0.762,-47.61,40.77,-15.44,3,2
18257.218,0.711,0.692,0.822,-61.98,60.46,-19.71,3,2
18257.234,0.547,0.575,0.863,-66.41,67.66,-19.41,3,2
18257.234,0.447,0.462,0.908,-64.03,56.86,-8.73,3,2
18257.25,0.449,0.399,0.93,-56.31,37.66,3.36,3,2
18257.265,0.461,0.345,0.906,-47.21,20.78,10.35,3,2
18257.265,0.454,0.257,0.856,-40.77,9.52,13.92,3,2
18257.281,0.473,0.194,0.796,-35.13,4.85,12.97,3,2
18257.281,0.488,0.177,0.737,-30.34,8.3,9.22,3,2
18257.296,0.492,0.217,0.71,-30.09,18.34,5.01,3,2
18257.312,0.396,0.266,0.893,-33.69,29.11,-0.24,3,2
18257.328,0.225,0.277,1.271,-32.41,19.29,-0.03,3,2
18257.328,0.345,0.26,1.164,-21.24,-5.62,7.17,3,2
18257.343,0.374,0.281,0.969,-20.84,-12.73,7.87,3,2
18257.343,0.328,0.195,0.909,-20.14,-10.22,9.61,3,2
18257.359,0.375,0.112,0.87,-9.22,-6.81,14.59,3,2
18257.375,0.379,0.122,0.826,11.47,1.86,14.62,3,2
18257.375,0.349,0.214,0.807,29.3,11.32,14.77,3,2
18257.39,0.347,0.319,0.818,34.55,17.7,18.46,3,2
18257.39,0.346,0.378,0.837,30.21,22.64,23.83,3,2
18257.406,0.345,0.387,0.844,23.41,25.42,29.24,3,2
18257.421,0.364,0.36,0.846,17.67,26.46,34.91,3,2
18257.421,0.387,0.332,0.881,15.59,27.89,39.89,3,2
18257.437,0.395,0.296,0.891,18.1,28.23,41.23,3,2
18257.453,0.396,0.278,0.887,20.48,27.22,39.64,3,2
18257.453,0.399,0.261,0.883,20.02,24.9,36.99,3,2
18257.468,0.397,0.25,0.884,17.3,23.96,34.94,3,2
18257.484,0.391,0.25,0.876,15.05,24.38,33.42,3,2
18257.5,0.392,0.238,0.876,13.31,24.9,32.9,3,2
18257.5,0.398,0.224,0.873,11.96,25.82,32.44,3,2
18257.515,0.397,0.213,0.879,12.09,27.38,31.19,3,2
18257.515,0.405,0.207,0.895,13.61,28.75,29.45,3,2
18257.531,0.399,0.193,0.907,16.75,28.6,25.12,3,2
18257.531,0.407,0.213,0.914,18.52,26.28,17.88,3,2
18257.546,0.379,0.247,0.914,17.46,23.99,9.58,3,2
18257.562,0.345,0.244,0.928,13.52,18.25,2.56,3,2
18257.562,0.376,0.242,0.931,10.71,12.54,-0.76,3,2
18257.578,0.369,0.281,0.907,11.47,10.22,-6.84,3,2
18257.593,0.334,0.301,0.888,10.96,8.39,-10.68,3,2
18257.593,0.355,0.319,0.869,9.86,8.0,-9.92,3,2
18257.609,0.351,0.327,0.854,10.9,10.32,-8.24,3,2
18257.625,0.345,0.329,0.854,11.32,12.57,-6.07,3,2
18257.625,0.337,0.333,0.857,10.04,13.7,-4.15,3,2
18257.64,0.339,0.355,0.856,6.71,15.2,-1.65,3,2
18257.64,0.341,0.355,0.857,2.78,15.38,-0.52,3,2
18257.656,0.345,0.336,0.855,-2.96,13.76,-1.16,3,2
18257.671,0.354,0.33,0.835,-10.47,11.81,-2.78,3,2
18257.687,0.364,0.327,0.821,-22.37,16.85,-3.3,3,2
18257.687,0.351,0.297,0.813,-25.09,22.58,-0.95,3,2
18257.703,0.362,0.279,0.803,-26.03,30.46,0.37,3,2
18257.703,0.37,0.25,0.83,-25.64,38.06,-0.31,3,2
18257.718,0.351,0.234,0.864,-25.09,43.82,-2.08,3,2
18257.734,0.334,0.237,0.888,-23.74,47.4,-5.34,3,2
18257.734,0.304,0.236,0.91,-22.89,49.47,-8.88,3,2
18257.75,0.281,0.228,0.93,-23.04,49.87,-10.93,3,2
18257.765,0.258,0.248,0.974,-23.22,48.28,-12.57,3,2
18257.765,0.221,0.28,1.015,-23.13,43.61,-12.42,3,2
18257.781,0.195,0.302,1.047,-24.35,36.32,-8.33,3,2
18257.781,0.184,0.291,1.074,-23.16,27.8,-1.77,3,2
18257.796,0.16,0.282,1.088,-18.37,18.22,4.43,3,2
18257.812,0.154,0.274,1.099,-11.87,8.58,11.08,3,2
18257.828,0.17,0.239,1.08,-4.06,-1.01,14.74,3,2
18257.828,0.168,0.224,1.021,1.46,-8.73,15.29,3,2
18257.843,0.17,0.205,0.97,2.2,-14.53,15.02,3,2
18257.843,0.111,0.21,1.109,-0.55,-23.65,13.67,3,2
18257.859,0.111,0.199,1.209,3.63,-44.68,16.82,3,2
18257.875,0.185,0.215,1.161,4.09,-69.92,20.6,3,2
18257.875,0.236,0.213,1.099,-1.46,-86.92,19.5,3,2
18257.89,0.256,0.168,1.03,-1.4,-97.08,12.63,3,2
18257.89,0.28,0.155,0.984,8.64,-102.57,6.1,3,2
18257.906,0.31,0.17,0.909,24.72,-101.32,3.75,3,2
18257.921,0.358,0.169,0.809,38.06,-93.97,3.78,3,2
18257.921,0.42,0.203,0.765,45.87,-78.37,4.73,3,2
18257.937,0.433,0.237,0.738,52.34,-59.54,5.16,3,2
18257.953,0.426,0.286,0.692,53.93,-45.81,6.32,3,2
18257.968,0.456,0.344,0.678,44.77,-36.68,8.48,3,2
18257.968,0.49,0.37,0.684,25.91,-31.19,6.16,3,2
18257.968,0.513,0.357,0.652,3.42,-26.61,-0.34,3,2
18257.984,0.543,0.309,0.581,-15.11,-17.79,-6.65,3,2
18258.0,0.576,0.258,0.541,-24.51,-1.22,-11.23,3,2
18258.015,0.584,0.258,0.55,-25.03,23.41,-13.03,3,2
18258.015,0.56,0.273,0.582,-19.68,49.75,-13.06,3,2
18258.031,0.524,0.278,0.667,-15.11,73.27,-13.73,3,2
18258.031,0.308,0.339,1.089,-13.95,83.8,-15.08,3,2
18258.046,0.137,0.31,1.334,-8.73,57.92,-9.7,3,2
18258.062,0.348,0.327,1.133,-16.14,21.3,-5.22,3,2
18258.062,0.307,0.266,1.009,-27.31,10.74,-6.99,3,2
18258.078,0.299,0.077,0.926,-18.77,7.6,-7.63,3,2
18258.093,0.341,0.07,0.873,-4.06,10.96,-6.99,3,2
18258.093,0.302,0.14,0.876,7.69,19.07,-10.25,3,2
18258.109,0.286,0.166,0.931,10.62,24.51,-12.33,3,2
18258.125,0.299,0.222,0.99,13.52,24.05,-14.89,3,2
18258.125,0.263,0.313,1.005,21.0,20.78,-16.08,3,2
18258.14,0.26,0.348,0.968,26.09,15.08,-12.7,3,2
18258.156,0.277,0.355,0.941,25.57,9.43,-9.06,3,2
18258.156,0.277,0.357,0.905,22.64,4.79,-5.8,3,2
18258.171,0.296,0.347,0.871,16.82,1.13,-2.38,3,2
18258.171,0.322,0.335,0.845,9.49,-0.34,-0.49,3,2
18258.187,0.333,0.335,0.839,2.96,0.24,0.0,3,2
18258.203,0.334,0.332,0.839,-1.28,1.34,-0.03,3,2
18258.203,0.342,0.331,0.841,-5.34,3.14,-0.06,3,2
18258.218,0.345,0.324,0.852,-8.18,5.95,0.12,3,2
18258.218,0.34,0.304,0.863,-9.64,8.91,0.89,3,2
18258.234,0.337,0.284,0.877,-11.32,10.96,1.1,3,2
18258.25,0.329,0.268,0.897,-12.79,12.36,0.79,3,2
18258.25,0.321,0.255,0.924,-13.21,12.88,0.85,3,2
18258.265,0.322,0.236,0.94,-12.15,11.84,0.52,3,2
18258.281,0.317,0.23,0.949,-10.99,10.19,-0.92,3,2
18258.281,0.307,0.226,0.961,-9.0,8.03,-2.38,3,2
18258.296,0.31,0.225,0.949,-5.46,5.65,-3.51,3,2
18258.312,0.311,0.23,0.931,-1.86,4.97,-4.61,3,2
18258.312,0.305,0.239,0.926,2.23,5.74,-5.25,3,2
18258.328,0.304,0.252,0.921,6.96,6.9,-5.07,3,2
18258.343,0.298,0.27,0.911,10.83,7.48,-5.04,3,2
18258.343,0.295,0.288,0.911,12.02,7.9,-4.76,3,2
18258.359,0.292,0.294,0.91,11.75,7.26,-4.94,3,2
18258.359,0.29,0.304,0.895,9.83,5.77,-5.65,3,2
18258.375,0.293,0.313,0.873,6.41,4.94,-6.56,3,2
18258.39,0.294,0.309,0.868,2.96,5.55,-7.14,3,2
18258.406,0.281,0.312,0.892,-0.03,7.11,-7.08,3,2
18258.406,0.261,0.33,0.928,-0.79,7.9,-5.28,3,2
18258.421,0.258,0.323,0.951,-0.85,6.5,-2.96,3,2
18258.421,0.255,0.298,0.951,-1.4,3.51,-1.74,3,2
18258.437,0.258,0.283,0.955,-2.01,0.46,-0.92,3,2
18258.453,0.266,0.278,0.935,-2.38,-2.81,-0.31,3,2
18258.453,0.289,0.279,0.913,-3.48,-4.67,0.49,3,2
18258.468,0.294,0.293,0.908,-4.73,-5.71,0.79,3,2
18258.484,0.302,0.311,0.907,-7.02,-6.71,1.46,3,2
18258.484,0.32,0.322,0.936,-11.23,-8.21,1.56,3,2
18258.5,0.328,0.313,0.953,-14.56,-10.9,-0.09,3,2
18258.5,0.338,0.308,0.923,-17.27,-14.04,-1.95,3,2
18258.515,0.359,0.291,0.903,-18.74,-13.37,-3.02,3,2
18258.531,0.336,0.249,0.906,-16.39,-9.4,-3.08,3,2
18258.531,0.316,0.214,0.881,-10.28,-4.76,-2.75,3,2
18258.546,0.265,0.202,0.855,-2.26,3.66,-1.59,3,2
18258.562,0.216,0.218,0.864,5.22,13.73,1.31,3,2
18258.562,0.165,0.253,0.873,10.07,21.55,7.35,3,2
18258.578,0.149,0.272,0.796,11.99,26.98,15.53,3,2
18258.593,0.269,0.269,0.903,4.27,27.62,21.33,3,2
18258.593,0.256,0.328,1.085,0.98,15.2,17.3,3,2
18258.609,0.203,0.424,1.027,1.77,-0.85,22.58,3,2
18258.625,0.274,0.401,0.972,-5.68,-15.08,27.99,3,2
18258.625,0.246,0.327,0.986,-15.14,-23.93,26.18,3,2
18258.64,0.226,0.236,1.023,-20.84,-32.81,26.0,3,2
18258.64,0.261,0.131,1.016,-19.14,-42.3,26.7,3,2
18258.656,0.365,0.059,0.903,-19.29,-47.49,8.06,3,2
18258.671,0.458,0.026,0.838,-25.21,-42.27,-14.1,3,2
18258.671,0.511,0.006,0.84,-31.19,-35.46,-38.0,3,2
18258.687,0.512,0.014,0.797,-36.59,-26.31,-58.93,3,2
18258.703,0.486,0.129,0.766,-36.23,-13.7,-73.85,3,2
18258.718,0.415,0.241,0.761,-32.78,3.63,-77.46,3,2
18258.718,0.366,0.33,0.826,-21.88,19.38,-69.4,3,2
18258.734,0.328,0.411,0.917,-4.27,30.03,-56.03,3,2
18258.734,0.268,0.475,1.006,10.8,33.14,-40.71,3,2
18258.75,0.14,0.528,1.176,19.99,23.77,-24.23,3,2
18258.765,0.225,0.406,1.092,21.88,1.01,-6.81,3,2
18258.765,0.288,0.292,0.882,3.27,-14.89,-7.51,3,2
18258.781,0.263,0.245,0.822,-9.25,-13.89,-9.13,3,2
18258.781,0.259,0.2,0.818,-6.5,-7.42,-3.75,3,2
18258.796,0.253,0.257,0.849,-2.75,-0.76,0.92,3,2
18258.812,0.231,0.312,0.912,-5.28,2.17,6.04,3,2
18258.828,0.249,0.314,0.952,-12.3,0.15,11.14,3,2
18258.828,0.275,0.303,0.962,-15.93,-3.39,14.1,3,2
18258.843,0.286,0.273,0.928,-14.47,-5.46,17.0,3,2
18258.843,0.298,0.243,0.903,-11.99,-5.31,19.62,3,2
18258.859,0.301,0.232,0.914,-9.58,-3.11,22.22,3,2
18258.875,0.299,0.223,0.935,-6.99,-1.77,24.63,3,2
18258.875,0.306,0.209,0.952,-3.57,-1.59,27.16,3,2
18258.89,0.315,0.208,0.968,0.21,-1.8,29.57,3,2
18258.89,0.322,0.209,0.976,5.52,-3.36,30.67,3,2
18258.906,0.331,0.2,0.945,9.61,-5.55,30.58,3,2
18258.921,0.351,0.195,0.913,11.66,-5.92,29.27,3,2
18258.937,0.362,0.184,0.88,13.06,-4.49,26.46,3,2
18258.937,0.369,0.177,0.859,12.42,-1.46,22.95,3,2
18258.953,0.373,0.171,0.864,10.9,2.38,19.1,3,2
18258.953,0.373,0.17,0.873,9.55,5.58,14.34,3,2
18258.968,0.362,0.178,0.892,8.03,7.72,8.7,3,2
18258.984,0.346,0.198,0.923,6.99,8.58,3.78,3,2
18258.984,0.323,0.221,0.948,8.48,8.15,0.85,3,2
18259.0,0.301,0.232,0.963,12.36,6.65,0.43,3,2
18259.0,0.29,0.247,0.973,16.72,4.39,2.2,3,2
18259.015,0.28,0.256,0.958,19.56,1.19,3.97,3,2
18259.031,0.281,0.262,0.901,17.98,-1.07,5.37,3,2
18259.046,0.304,0.261,0.882,12.27,-0.76,5.95,3,2
18259.046,0.299,0.246,0.891,8.61,1.13,6.04,3,2
18259.062,0.302,0.256,0.894,6.26,1.62,7.23,3,2
18259.062,0.322,0.27,0.901,2.26,0.98,8.09,3,2
18259.078,0.334,0.266,0.908,-3.08,-0.34,6.99,3,2
18259.093,0.344,0.263,0.908,-8.45,-2.53,4.52,3,2
18259.093,0.337,0.271,0.9,-13.12,-5.04,1.77,3,2
18259.109,0.331,0.279,0.89,-16.39,-6.68,1.07,3,2
18259.109,0.34,0.269,0.885,-18.22,-6.16,3.23,3,2
18259.125,0.35,0.251,0.884,-18.13,-4.09,5.37,3,2
18259.14,0.349,0.218,0.899,-17.61,-1.68,4.94,3,2
18259.14,0.334,0.186,0.925,-16.48,-0.12,3.27,3,2
18259.156,0.331,0.186,0.936,-13.46,0.03,2.14,3,2
18259.171,0.327,0.193,0.939,-9.8,-0.18,0.73,3,2
18259.171,0.318,0.202,0.934,-7.66,-0.52,-0.73,3,2
18259.187,0.306,0.224,0.927,-6.81,-1.71,-1.74,3,2
18259.203,0.296,0.256,0.93,-7.45,-3.08,-0.98,3,2
18259.203,0.288,0.288,0.933,-9.13,-4.58,2.04,3,2
18259.218,0.295,0.281,0.922,-11.66,-6.56,6.04,3,2
18259.234,0.307,0.256,0.907,-15.2,-8.0,8.94,3,2
18259.234,0.316,0.233,0.895,-18.62,-8.33,10.38,3,2
18259.25,0.328,0.214,0.907,-20.84,-7.72,11.11,3,2
18259.25,0.331,0.195,0.914,-21.88,-7.26,10.65,3,2
18259.265,0.334,0.19,0.917,-23.26,-7.45,9.95,3,2
18259.281,0.339,0.192,0.918,-24.41,-7.97,9.67,3,2
18259.296,0.354,0.178,0.919,-24.63,-7.97,9.77,3,2
18259.296,0.358,0.157,0.908,-23.44,-7.17,8.94,3,2
18259.312,0.359,0.155,0.906,-22.43,-5.71,7.9,3,2
18259.312,0.363,0.158,0.909,-22.1,-4.3,7.54,3,2
18259.328,0.364,0.15,0.909,-21.85,-3.63,6.9,3,2
18259.343,0.366,0.131,0.926,-20.6,-2.59,5.98,3,2
18259.359,0.35,0.139,0.949,-17.09,-1.31,5.46,3,2
18259.359,0.358,0.115,0.943,-10.93,-1.98,5.22,3,2
18259.375,0.359,0.099,0.93,-7.57,-1.19,2.9,3,2
18259.39,0.353,0.101,0.935,-3.66,0.67,0.95,3,2
18259.39,0.346,0.119,0.945,-0.52,1.92,-0.73,3,2
18259.406,0.358,0.14,0.954,1.68,2.29,-2.14,3,2
18259.421,0.347,0.137,0.96,5.01,2.75,-4.18,3,2
18259.421,0.334,0.137,0.948,9.58,2.62,-4.79,3,2
18259.437,0.337,0.141,0.927,12.36,2.11,-4.85,3,2
18259.453,0.329,0.153,0.912,12.82,2.01,-6.44,3,2
18259.453,0.316,0.185,0.913,11.63,1.8,-6.59,3,2
18259.468,0.32,0.212,0.91,9.13,0.82,-5.31,3,2
18259.484,0.323,0.223,0.899,5.13,-0.12,-4.12,3,2
18259.484,0.32,0.244,0.898,-0.03,-0.4,-2.69,3,2
18259.5,0.321,0.255,0.9,-5.49,-1.46,-0.31,3,2
18259.515,0.326,0.237,0.903,-11.47,-2.69,1.92,3,2
18259.515,0.33,0.206,0.904,-16.05,-2.78,4.21,3,2
18259.531,0.35,0.122,0.937,-18.71,-1.37,6.07,3,2
18259.546,0.358,0.102,0.983,-17.58,-0.98,4.27,3,2
18259.562,0.347,0.082,0.997,-13.09,-1.68,1.8,3,2
18259.562,0.357,0.07,0.97,-6.41,-3.91,-0.09,3,2
18259.578,0.37,0.063,0.928,0.09,-3.6,-2.41,3,2
18259.593,0.36,0.091,0.928,5.25,-1.28,-5.46,3,2
18259.593,0.34,0.12,0.932,9.89,-0.76,-6.56,3,2
18259.609,0.358,0.156,0.91,10.59,-1.77,-6.81,3,2
18259.609,0.348,0.17,0.905,9.46,-0.46,-7.72,3,2
18259.625,0.343,0.16,0.914,9.95,0.95,-7.9,3,2
18259.64,0.334,0.16,0.921,12.09,2.32,-7.75,3,2
18259.64,0.324,0.158,0.925,18.16,5.95,-8.76,3,2
18259.656,0.305,0.176,0.932,19.59,8.15,-8.03,3,2
18259.671,0.303,0.209,0.94,18.04,6.32,-6.65,3,2
18259.687,0.28,0.241,0.974,16.3,1.04,-5.52,3,2
18259.687,0.316,0.231,0.918,14.28,-4.7,-2.96,3,2
18259.703,0.297,0.193,0.947,9.95,-7.08,0.18,3,2
18259.718,0.283,0.216,0.928,7.2,-10.41,3.3,3,2
18259.734,0.297,0.232,0.924,0.76,-13.67,5.8,3,2
18259.734,0.299,0.208,0.946,-4.15,-16.51,7.23,3,2
18259.75,0.283,0.194,0.949,-5.49,-20.36,8.85,3,2
18259.75,0.362,0.187,0.993,-3.45,-25.03,13.52,3,2
18259.765,0.34,0.169,0.954,-4.85,-27.74,12.21,3,2
18259.781,0.334,0.154,0.952,-5.74,-29.69,11.69,3,2
18259.796,0.366,0.125,0.952,-1.53,-31.89,13.34,3,2
18259.796,0.362,0.149,0.943,3.81,-33.27,13.4,3,2
18259.812,0.394,0.172,0.935,6.59,-34.88,13.64,3,2
18259.812,0.406,0.172,0.915,8.51,-34.15,13.21,3,2
18259.828,0.407,0.159,0.889,10.71,-32.84,12.27,3,2
18259.843,0.426,0.16,0.862,13.25,-30.58,11.9,3,2
18259.843,0.447,0.168,0.831,15.23,-25.91,11.54,3,2
18259.859,0.458,0.177,0.822,16.14,-18.95,10.44,3,2
18259.875,0.462,0.182,0.811,15.93,-6.47,6.1,3,2
18259.89,0.46,0.182,0.803,13.82,0.15,3.3,3,2
18259.89,0.446,0.185,0.804,10.5,6.59,0.18,3,2
18259.906,0.438,0.185,0.809,7.02,12.48,-2.14,3,2
18259.921,0.437,0.183,0.824,3.85,17.27,-4.58,3,2
18259.937,0.43,0.189,0.843,0.52,21.85,-7.72,3,2
18259.937,0.408,0.2,0.857,-3.66,25.03,-10.56,3,2
18259.953,0.387,0.205,0.878,-7.87,26.52,-11.9,3,2
18259.953,0.371,0.212,0.912,-10.16,26.67,-11.38,3,2
18259.968,0.304,0.223,1.021,-9.43,24.14,-9.37,3,2
18259.984,0.296,0.191,1.116,-5.07,11.47,-4.85,3,2
18259.984,0.342,0.158,1.026,-3.72,-2.93,-4.7,3,2
18260.0,0.344,0.12,0.967,-3.2,-8.45,-8.24,3,2
18260.0,0.36,0.094,0.934,1.62,-10.77,-11.35,3,2
18260.015,0.374,0.127,0.895,6.23,-11.14,-14.01,3,2
18260.031,0.371,0.172,0.882,6.87,-10.44,-17.06,3,2
18260.046,0.368,0.243,0.891,-1.59,-9.8,-18.28,3,2
18260.062,0.365,0.254,0.895,-2.99,-8.3,-15.2,3,2
18260.062,0.373,0.246,0.898,-1.98,-7.05,-10.62,3,2
18260.078,0.38,0.233,0.898,-1.71,-6.93,-7.78,3,2
18260.093,0.381,0.219,0.89,-3.57,-7.75,-7.2,3,2
18260.109,0.385,0.204,0.892,-7.32,-8.64,-7.45,3,2
18260.109,0.391,0.183,0.899,-10.5,-9.31,-8.58,3,2
18260.125,0.398,0.172,0.903,-11.08,-9.43,-10.47,3,2
18260.125,0.399,0.167,0.906,-9.13,-8.82,-12.73,3,2
18260.14,0.391,0.161,0.903,-6.16,-8.09,-14.77,3,2
18260.156,0.383,0.166,0.902,-3.33,-6.78,-16.05,3,2
18260.156,0.381,0.176,0.904,0.98,-4.0,-15.11,3,2
18260.171,0.38,0.182,0.912,6.59,-1.28,-13.25,3,2
18260.171,0.369,0.195,0.917,10.96,-0.55,-12.27,3,2
18260.187,0.368,0.207,0.908,11.96,-1.1,-11.44,3,2
18260.203,0.37,0.205,0.899,10.22,-1.68,-11.41,3,2
18260.218,0.365,0.227,0.9,6.32,-3.54,-11.81,3,2
18260.234,0.369,0.233,0.893,4.15,-4.27,-11.41,3,2
18260.234,0.372,0.24,0.887,1.46,-5.01,-10.96,3,2
18260.25,0.372,0.238,0.879,-1.04,-5.37,-10.25,3,2
18260.265,0.375,0.242,0.878,-2.35,-4.33,-7.42,3,2
18260.265,0.385,0.25,0.887,-2.56,-3.14,-3.66,3,2
18260.281,0.395,0.242,0.888,-2.59,-2.72,-1.28,3,2
18260.281,0.396,0.232,0.887,-4.0,-2.93,-0.18,3,2
18260.296,0.397,0.218,0.888,-6.04,-3.33,-0.37,3,2
18260.312,0.394,0.205,0.888,-6.87,-2.81,-0.52,3,2
18260.312,0.395,0.195,0.894,-5.68,-1.62,0.43,3,2
18260.328,0.398,0.184,0.904,-2.9,-0.12,1.07,3,2
18260.343,0.395,0.178,0.916,0.24,0.95,0.43,3,2
18260.343,0.383,0.182,0.925,2.78,0.85,-0.61,3,2
18260.359,0.386,0.182,0.915,4.67,-0.15,-1.74,3,2
18260.375,0.388,0.181,0.909,6.5,-0.18,-3.45,3,2
18260.39,0.374,0.207,0.904,11.08,0.95,-5.83,3,2
18260.39,0.37,0.219,0.903,11.29,0.7,-5.74,3,2
18260.406,0.371,0.223,0.895,10.35,0.27,-5.55,3,2
18260.421,0.37,0.228,0.889,9.03,0.06,-5.71,3,2
18260.421,0.366,0.238,0.891,7.6,0.15,-5.34,3,2
18260.437,0.365,0.25,0.894,6.35,-0.06,-4.18,3,2
18260.453,0.375,0.257,0.888,4.46,-1.37,-2.96,3,2
18260.453,0.383,0.256,0.878,1.89,-2.14,-2.26,3,2
18260.468,0.386,0.25,0.876,-0.52,-2.08,-1.83,3,2
18260.484,0.389,0.243,0.88,-1.92,-1.95,-1.22,3,2
18260.484,0.388,0.236,0.884,-2.69,-1.59,-0.46,3,2
18260.5,0.387,0.227,0.893,-3.3,-1.43,0.03,3,2
18260.5,0.386,0.219,0.901,-3.33,-1.25,0.15,3,2
18260.515,0.383,0.205,0.904,-2.69,-1.1,0.18,3,2
18260.531,0.378,0.199,0.907,-1.43,-0.82,0.24,3,2
18260.531,0.376,0.197,0.906,-0.21,-0.61,0.31,3,2
18260.546,0.38,0.198,0.908,0.52,-0.73,-0.4,3,2
18260.562,0.379,0.204,0.905,0.73,-1.04,-1.25,3,2
18260.562,0.379,0.213,0.9,0.82,-1.53,-1.86,3,2
18260.578,0.382,0.221,0.9,0.7,-1.65,-1.95,3,2
18260.593,0.387,0.224,0.898,1.01,-1.71,-1.65,3,2
18260.593,0.39,0.219,0.895,1.59,-1.65,-2.08,3,2
18260.609,0.387,0.217,0.896,2.01,-1.34,-2.9,3,2
18260.625,0.386,0.218,0.899,3.27,-1.01,-3.08,3,2
18260.625,0.386,0.217,0.895,6.62,0.27,-3.6,3,2
18260.64,0.384,0.214,0.892,7.02,0.31,-4.55,3,2
18260.64,0.379,0.221,0.893,6.56,0.18,-5.01,3,2
18260.656,0.376,0.231,0.89,5.77,0.03,-4.88,3,2
18260.671,0.372,0.244,0.893,4.94,-0.15,-4.67,3,2
18260.671,0.367,0.251,0.894,4.06,-0.52,-4.36,3,2
18260.687,0.369,0.253,0.894,2.75,-0.95,-3.78,3,2
18260.703,0.37,0.253,0.893,1.71,-1.1,-2.75,3,2
18260.718,0.373,0.249,0.89,0.98,-1.43,-1.65,3,2
18260.718,0.373,0.242,0.887,-0.18,-1.71,-0.85,3,2
18260.734,0.38,0.237,0.888,-1.89,-1.86,-0.46,3,2
18260.734,0.383,0.232,0.891,-3.08,-1.86,-0.31,3,2
18260.75,0.385,0.225,0.894,-3.51,-1.68,-0.24,3,2
18260.765,0.383,0.215,0.899,-3.08,-1.56,-0.4,3,2
18260.765,0.387,0.212,0.908,-2.23,-1.62,-0.55,3,2
18260.781,0.386,0.214,0.905,-0.89,-1.37,-0.85,3,2
18260.796,0.386,0.212,0.9,0.55,-1.37,-1.25,3,2
18260.796,0.387,0.216,0.896,2.01,-1.19,-1.68,3,2
18260.812,0.387,0.223,0.893,3.14,-0.73,-1.71,3,2
18260.812,0.389,0.231,0.896,4.0,-0.34,-1.31,3,2
18260.828,0.385,0.239,0.894,4.85,0.0,-1.04,3,2
18260.843,0.385,0.241,0.886,5.25,0.03,-0.46,3,2
18260.843,0.385,0.236,0.887,4.94,0.37,-0.46,3,2
18260.859,0.38,0.233,0.892,4.85,0.82,-1.01,3,2
18260.859,0.374,0.231,0.894,4.64,0.82,-1.89,3,2
18260.875,0.371,0.233,0.895,4.0,0.24,-2.66,3,2
18260.89,0.367,0.237,0.891,3.39,0.06,-3.27,3,2
18260.906,0.366,0.239,0.885,3.2,0.03,-4.12,3,2
18260.921,0.363,0.243,0.885,2.69,0.34,-4.18,3,2
18260.921,0.365,0.249,0.895,1.86,0.34,-3.66,3,2
18260.937,0.364,0.261,0.904,1.8,0.27,-2.53,3,2
18260.953,0.364,0.261,0.898,2.23,-0.27,-1.25,3,2
18260.953,0.372,0.26,0.887,1.5,-1.01,0.0,3,2
18260.968,0.375,0.254,0.885,0.15,-1.19,0.85,3,2
18260.984,0.377,0.248,0.883,-1.1,-1.37,1.5,3,2
18260.984,0.384,0.247,0.883,-2.84,-1.59,1.8,3,2
18261.0,0.386,0.241,0.89,-4.58,-1.74,1.68,3,2
18261.015,0.387,0.231,0.895,-5.22,-1.77,1.59,3,2
18261.015,0.385,0.218,0.898,-4.46,-1.5,1.31,3,2
18261.031,0.388,0.211,0.902,-3.08,-1.04,1.04,3,2
18261.031,0.387,0.211,0.909,-1.25,-0.58,0.61,3,2
18261.046,0.383,0.21,0.909,0.98,-0.4,-0.18,3,2
18261.062,0.384,0.214,0.905,2.78,-0.46,-1.16,3,2
18261.078,0.382,0.238,0.887,5.1,-0.18,-2.08,3,2
18261.093,0.381,0.249,0.883,6.2,0.49,-2.01,3,2
18261.093,0.377,0.255,0.884,6.59,0.76,-2.23,3,2
18261.109,0.367,0.26,0.886,5.37,0.79,-2.29,3,2
18261.125,0.363,0.263,0.888,3.48,0.37,-1.95,3,2
18261.125,0.365,0.259,0.887,2.17,0.12,-1.46,3,2
18261.14,0.362,0.252,0.887,1.01,0.03,-0.55,3,2
18261.14,0.363,0.243,0.894,0.12,0.12,-0.09,3,2
18261.156,0.366,0.235,0.896,0.24,0.21,-0.18,3,2
18261.171,0.365,0.235,0.894,0.64,0.18,-0.15,3,2
18261.171,0.366,0.239,0.899,0.03,0.0,-0.34,3,2
18261.187,0.369,0.243,0.895,-0.34,-0.49,-0.24,3,2
18261.203,0.372,0.245,0.892,0.06,-0.37,0.03,3,2
18261.203,0.374,0.251,0.893,0.49,0.12,0.67,3,2
18261.218,0.375,0.249,0.89,0.49,0.31,0.95,3,2
18261.234,0.374,0.247,0.895,0.12,0.18,1.28,3,2
18261.25,0.371,0.248,0.898,0.21,0.4,2.14,3,2
18261.25,0.368,0.247,0.901,1.19,0.55,3.33,3,2
18261.25,0.365,0.253,0.904,2.17,0.76,4.82,3,2
18261.265,0.362,0.256,0.899,2.41,0.55,6.59,3,2
18261.281,0.348,0.271,0.903,1.4,-0.06,8.27,3,2
18261.281,0.328,0.312,0.935,-0.55,-0.58,11.47,3,2
18261.296,0.285,0.363,1.013,-2.47,-5.71,16.48,3,2
18261.312,0.238,0.379,1.072,-3.91,-18.68,24.72,3,2
18261.312,0.251,0.345,1.164,-7.11,-39.7,33.39,3,2
18261.328,0.291,0.275,1.117,-6.38,-63.75,38.58,3,2
18261.343,0.317,0.219,1.026,-5.04,-80.69,42.48,3,2
18261.343,0.36,0.13,0.976,-2.72,-92.17,41.75,3,2
18261.359,0.409,0.076,0.902,3.69,-98.45,36.99,3,2
18261.375,0.452,0.073,0.833,8.42,-98.73,30.4,3,2
18261.375,0.498,0.09,0.791,10.41,-94.24,23.32,3,2
18261.39,0.519,0.128,0.771,10.41,-86.28,18.01,3,2
18261.406,0.534,0.162,0.76,11.41,-78.13,14.65,3,2
18261.406,0.556,0.203,0.764,14.04,-70.56,13.12,3,2
18261.421,0.564,0.243,0.757,16.88,-63.72,12.15,3,2
18261.421,0.56,0.259,0.757,18.04,-59.69,11.87,3,2
18261.437,0.582,0.243,0.748,18.1,-57.68,11.2,3,2
18261.453,0.604,0.231,0.731,18.68,-54.35,8.42,3,2
18261.453,0.605,0.227,0.702,19.07,-48.13,4.36,3,2
18261.468,0.595,0.21,0.682,18.04,-40.31,0.89,3,2
18261.484,0.593,0.193,0.673,17.03,-32.32,-1.65,3,2
18261.484,0.602,0.203,0.666,15.81,-23.07,-2.56,3,2
18261.5,0.611,0.218,0.664,13.34,-12.91,-3.2,3,2
18261.515,0.608,0.233,0.67,9.77,-3.11,-4.33,3,2
18261.515,0.599,0.25,0.689,6.38,5.16,-4.61,3,2
18261.531,0.593,0.271,0.713,3.45,11.72,-3.91,3,2
18261.546,0.58,0.282,0.735,0.0,16.17,-2.93,3,2
18261.546,0.569,0.277,0.758,-4.39,18.49,-1.83,3,2
18261.562,0.556,0.262,0.778,-7.02,19.41,-0.92,3,2
18261.562,0.549,0.249,0.797,-6.93,19.93,0.12,3,2
18261.578,0.544,0.238,0.813,-4.88,20.72,1.19,3,2
18261.593,0.536,0.221,0.82,-2.08,21.58,1.59,3,2
18261.609,0.533,0.204,0.829,1.1,21.91,1.34,3,2
18261.609,0.527,0.197,0.835,9.8,22.28,-0.37,3,2
18261.625,0.522,0.206,0.84,14.16,21.7,-1.1,3,2
18261.625,0.514,0.224,0.85,16.88,19.5,-2.11,3,2
18261.64,0.505,0.236,0.854,17.27,16.08,-2.84,3,2
18261.656,0.502,0.261,0.847,17.24,12.82,-3.11,3,2
18261.656,0.504,0.262,0.83,17.64,10.35,-2.69,3,2
18261.671,0.508,0.266,0.812,17.82,9.0,-2.08,3,2
18261.671,0.515,0.264,0.794,17.4,8.85,-1.62,3,2
18261.687,0.519,0.266,0.783,16.72,10.22,-1.22,3,2
18261.703,0.522,0.276,0.788,16.08,12.09,-0.76,3,2
18261.703,0.518,0.29,0.791,14.07,14.25,-0.03,3,2
18261.718,0.511,0.283,0.798,11.63,15.69,0.73,3,2
18261.734,0.512,0.285,0.811,9.83,16.14,1.53,3,2
18261.734,0.504,0.282,0.816,7.63,15.63,1.77,3,2
18261.75,0.504,0.274,0.821,4.36,13.7,1.65,3,2
18261.765,0.506,0.267,0.831,1.16,11.81,1.22,3,2
18261.765,0.506,0.256,0.835,-0.18,10.35,0.31,3,2
18261.781,0.507,0.252,0.84,1.04,9.61,-0.34,3,2
18261.781,0.508,0.255,0.843,4.21,9.19,-0.85,3,2
18261.796,0.506,0.26,0.84,8.06,8.61,-1.25,3,2
18261.812,0.502,0.26,0.83,10.9,7.84,-2.23,3,2
18261.828,0.502,0.265,0.827,12.51,7.42,-3.3,3,2
18261.828,0.496,0.271,0.819,13.92,7.63,-3.91,3,2
18261.843,0.491,0.277,0.813,14.98,7.42,-4.3,3,2
18261.843,0.495,0.299,0.812,14.25,6.96,-4.61,3,2
18261.859,0.489,0.318,0.813,12.21,6.23,-5.25,3,2
18261.875,0.477,0.315,0.807,10.13,5.58,-5.52,3,2
18261.875,0.478,0.31,0.802,9.74,5.74,-4.97,3,2
18261.89,0.485,0.309,0.795,11.47,7.57,-4.21,3,2
18261.89,0.487,0.298,0.796,13.89,10.68,-4.15,3,2
18261.906,0.489,0.298,0.802,15.35,13.31,-5.28,3,2
18261.921,0.491,0.31,0.804,14.44,15.9,-6.81,3,2
18261.937,0.472,0.308,0.829,12.24,17.94,-8.15,3,2
18261.937,0.483,0.314,0.858,12.24,17.76,-8.48,3,2
18261.953,0.468,0.336,0.845,13.12,16.27,-8.36,3,2
18261.953,0.45,0.339,0.835,9.46,13.55,-8.18,3,2
18261.968,0.44,0.333,0.851,1.74,7.54,-6.53,3,2
18261.984,0.459,0.334,0.869,-7.9,-0.82,-5.62,3,2
18261.984,0.464,0.322,0.845,-16.85,-7.54,-5.49,3,2
18262.0,0.472,0.324,0.802,-22.8,-9.55,-4.3,3,2
18262.0,0.48,0.3,0.79,-23.22,-7.11,-2.14,3,2
18262.015,0.484,0.289,0.778,-17.88,-2.35,-0.09,3,2
18262.031,0.488,0.287,0.758,-12.85,3.27,1.46,3,2
18262.046,0.487,0.279,0.75,-12.02,9.19,0.06,3,2
18262.046,0.482,0.265,0.761,-14.8,14.56,-2.96,3,2
18262.062,0.473,0.259,0.779,-17.82,18.25,-7.23,3,2
18262.062,0.459,0.273,0.791,-20.33,20.63,-10.62,3,2
18262.078,0.446,0.294,0.833,-22.03,22.61,-12.51,3,2
18262.093,0.375,0.324,0.99,-21.73,18.83,-12.6,3,2
18262.093,0.388,0.32,1.032,-16.85,4.06,-8.15,3,2
18262.109,0.433,0.29,0.941,-17.49,-8.48,-7.23,3,2
18262.125,0.436,0.209,0.867,-17.98,-12.54,-10.13,3,2
18262.125,0.447,0.18,0.825,-13.31,-10.44,-10.04,3,2
18262.14,0.459,0.202,0.824,-6.2,-6.1,-9.74,3,2
18262.156,0.456,0.232,0.842,-1.77,-1.59,-9.83,3,2
18262.156,0.461,0.246,0.848,-1.77,0.52,-10.71,3,2
18262.171,0.465,0.238,0.826,-5.31,0.79,-13.86,3,2
18262.171,0.462,0.236,0.822,-10.16,0.82,-18.31,3,2
18262.187,0.466,0.239,0.811,-12.33,1.95,-21.36,3,2
18262.203,0.462,0.258,0.828,-14.44,3.57,-23.9,3,2
18262.203,0.453,0.277,0.846,-14.74,4.7,-25.54,3,2
18262.218,0.445,0.291,0.856,-13.61,4.97,-25.94,3,2
18262.234,0.438,0.291,0.853,-11.9,4.88,-25.85,3,2
18262.234,0.438,0.291,0.847,-10.47,4.73,-25.33,3,2
18262.25,0.434,0.291,0.84,-9.64,4.7,-24.84,3,2
18262.25,0.435,0.293,0.844,-8.79,5.31,-23.96,3,2
18262.265,0.432,0.312,0.852,-8.39,5.58,-23.68,3,2
18262.281,0.419,0.32,0.858,-10.96,4.18,-23.22,3,2
18262.296,0.426,0.309,0.854,-14.95,2.04,-22.52,3,2
18262.296,0.424,0.295,0.844,-17.82,1.31,-22.31,3,2
18262.312,0.431,0.274,0.845,-19.14,1.83,-21.94,3,2
18262.312,0.432,0.252,0.844,-19.44,3.27,-22.37,3,2
18262.328,0.426,0.24,0.833,-20.78,4.67,-24.6,3,2
18262.343,0.418,0.233,0.83,-23.71,6.65,-26.67,3,2
18262.343,0.419,0.24,0.864,-25.42,8.97,-27.25,3,2
18262.359,0.403,0.271,0.905,-23.32,10.41,-26.73,3,2
18262.375,0.387,0.29,0.919,-18.65,10.19,-23.53,3,2
18262.375,0.386,0.288,0.918,-14.13,9.37,-18.8,3,2
18262.39,0.391,0.283,0.917,-9.61,7.51,-15.05,3,2
18262.39,0.389,0.279,0.9,-5.28,6.35,-12.36,3,2
18262.406,0.391,0.273,0.874,-2.47,5.77,-10.04,3,2
18262.421,0.397,0.271,0.868,-0.89,5.74,-8.27,3,2
18262.421,0.397,0.28,0.875,0.92,6.71,-6.59,3,2
18262.437,0.375,0.298,0.888,3.27,7.63,-4.3,3,2
18262.453,0.353,0.325,0.909,4.79,7.11,0.03,3,2
18262.453,0.341,0.354,0.931,5.25,5.71,5.58,3,2
18262.468,0.31,0.387,0.94,5.16,2.47,12.82,3,2
18262.484,0.299,0.38,0.95,1.68,-3.51,22.19,3,2
18262.484,0.288,0.37,1.057,-2.66,-15.69,29.11,3,2
18262.5,0.307,0.339,1.068,4.03,-30.34,38.85,3,2
18262.515,0.329,0.296,0.997,8.03,-43.92,46.51,3,2
18262.515,0.353,0.244,0.942,10.04,-52.43,50.17,3,2
18262.531,0.399,0.194,0.876,15.69,-54.63,53.25,3,2
18262.531,0.441,0.168,0.814,21.55,-51.24,53.13,3,2
18262.546,0.469,0.161,0.757,26.49,-43.09,51.12,3,2
18262.562,0.504,0.18,0.727,28.47,-32.75,48.98,3,2
18262.562,0.529,0.209,0.723,27.38,-22.4,45.14,3,2
18262.578,0.532,0.239,0.739,23.8,-13.4,40.07,3,2
18262.593,0.536,0.253,0.767,20.17,-6.35,35.95,3,2
18262.593,0.554,0.264,0.788,20.23,3.11,28.75,3,2
18262.609,0.562,0.265,0.761,17.58,7.23,22.83,3,2
18262.625,0.552,0.25,0.742,12.3,11.17,17.09,3,2
18262.625,0.543,0.193,0.741,6.23,15.41,11.11,3,2
18262.64,0.539,0.192,0.755,1.59,20.36,5.16,3,2
18262.656,0.525,0.214,0.784,-0.67,26.12,0.31,3,2
18262.656,0.495,0.233,0.831,-0.73,30.43,-2.96,3,2
18262.671,0.478,0.25,0.866,0.15,31.01,-4.15,3,2
18262.671,0.458,0.26,0.895,0.92,28.78,-5.13,3,2
18262.687,0.443,0.264,0.917,0.98,24.17,-5.98,3,2
18262.703,0.43,0.263,0.921,0.49,18.1,-7.54,3,2
18262.703,0.418,0.251,0.906,-0.37,11.66,-9.22,3,2
18262.718,0.415,0.244,0.888,-2.2,6.07,-10.68,3,2
18262.734,0.421,0.241,0.876,-4.46,1.8,-12.51,3,2
18262.734,0.42,0.252,0.86,-7.39,-0.7,-14.44,3,2
18262.75,0.42,0.256,0.85,-10.28,-1.28,-15.41,3,2
18262.765,0.429,0.262,0.855,-10.65,0.31,-14.28,3,2
18262.765,0.43,0.265,0.857,-7.35,3.36,-11.87,3,2
18262.781,0.43,0.267,0.861,-2.93,5.71,-9.4,3,2
18262.781,0.42,0.282,0.869,0.0,7.2,-7.08,3,2
18262.796,0.411,0.279,0.89,1.13,5.98,-5.01,3,2
18262.812,0.417,0.262,0.906,-0.06,1.5,-4.88,3,2
18262.812,0.421,0.253,0.882,-2.35,-2.96,-6.29,3,2
18262.828,0.434,0.247,0.855,-4.64,-6.04,-8.61,3,2
18262.843,0.442,0.243,0.836,-6.84,-6.59,-11.11,3,2
18262.843,0.444,0.235,0.82,-7.78,-5.25,-13.06,3,2
18262.859,0.444,0.239,0.839,-8.36,-2.93,-14.31,3,2
18262.875,0.438,0.235,0.858,-7.63,-1.5,-15.11,3,2
18262.875,0.449,0.223,0.852,-8.15,-1.01,-16.75,3,2
18262.89,0.449,0.211,0.854,-8.24,0.12,-19.78,3,2
18262.89,0.447,0.211,0.859,-5.71,1.8,-22.0,3,2
18262.906,0.439,0.236,0.866,-2.93,2.9,-23.83,3,2
18262.921,0.434,0.264,0.868,-1.46,3.54,-24.9,3,2
18262.921,0.418,0.296,0.877,-1.83,3.48,-25.21,3,2
18262.937,0.404,0.306,0.877,-2.84,1.98,-23.65,3,2
18262.953,0.401,0.316,0.867,-3.51,0.43,-20.6,3,2
18262.953,0.4,0.32,0.854,-4.0,0.31,-16.45,3,2
18262.968,0.405,0.313,0.843,-4.06,0.7,-12.39,3,2
18262.984,0.4,0.301,0.853,-5.28,1.13,-9.61,3,2
18262.984,0.397,0.298,0.861,-7.17,1.22,-7.48,3,2
18263.0,0.399,0.294,0.864,-9.61,0.7,-5.37,3,2
18263.0,0.41,0.273,0.864,-11.87,-0.31,-4.43,3,2
18263.015,0.418,0.251,0.867,-12.91,-0.49,-4.39,3,2
18263.031,0.418,0.236,0.868,-11.6,0.15,-4.88,3,2
18263.031,0.43,0.231,0.877,-9.61,0.73,-5.86,3,2
18263.046,0.422,0.238,0.895,-7.93,1.37,-7.57,3,2
18263.062,0.41,0.243,0.901,-5.04,1.19,-8.58,3,2
18263.078,0.4,0.253,0.9,-1.19,0.49,-7.87,3,2
18263.093,0.412,0.255,0.886,3.08,-0.09,-6.16,3,2
18263.093,0.416,0.262,0.871,5.83,0.03,-5.65,3,2
18263.093,0.406,0.275,0.864,5.83,0.15,-6.23,3,2
18263.109,0.402,0.29,0.861,3.81,-0.92,-6.44,3,2
18263.125,0.406,0.299,0.855,1.01,-1.95,-5.43,3,2
18263.125,0.41,0.298,0.854,-1.31,-2.14,-4.43,3,2
18263.14,0.412,0.296,0.854,-2.96,-1.89,-2.96,3,2
18263.14,0.413,0.28,0.859,-4.03,-1.46,-1.59,3,2
18263.156,0.41,0.272,0.874,-4.36,-0.85,-0.18,3,2
18263.171,0.413,0.258,0.878,-3.11,-0.34,1.07,3,2
18263.171,0.419,0.24,0.876,-2.08,-0.27,1.1,3,2
18263.187,0.42,0.229,0.877,-0.95,-0.37,-0.31,3,2
18263.203,0.419,0.231,0.877,0.79,0.09,-1.53,3,2
18263.203,0.419,0.243,0.876,2.96,0.7,-2.78,3,2
18263.218,0.412,0.248,0.871,4.21,1.13,-3.75,3,2
18263.234,0.407,0.256,0.866,4.67,0.79,-4.21,3,2
18263.234,0.407,0.277,0.864,4.73,1.16,-3.75,3,2
18263.25,0.406,0.285,0.864,4.85,1.86,-2.66,3,2
18263.25,0.403,0.286,0.866,4.33,1.89,-1.77,3,2
18263.265,0.397,0.293,0.867,2.75,1.22,-1.04,3,2
18263.281,0.399,0.293,0.872,0.52,0.55,0.12,3,2
18263.296,0.398,0.275,0.869,-0.79,-0.34,1.98,3,2
18263.312,0.404,0.267,0.871,-1.46,-0.67,2.44,3,2
18263.312,0.404,0.263,0.869,-2.32,-0.76,2.41,3,2
18263.328,0.411,0.259,0.866,-2.87,-1.13,2.17,3,2
18263.343,0.417,0.257,0.869,-3.33,-1.31,1.92,3,2
18263.343,0.422,0.255,0.877,-3.14,-1.31,1.22,3,2
18263.359,0.421,0.249,0.878,-2.17,-1.5,0.52,3,2
18263.375,0.426,0.242,0.874,-1.07,-1.71,-0.61,3,2
18263.375,0.423,0.239,0.867,0.61,-1.31,-2.08,3,2
18263.39,0.421,0.251,0.865,2.38,-0.4,-3.2,3,2
18263.39,0.415,0.264,0.865,4.09,0.34,-4.09,3,2
18263.406,0.405,0.268,0.864,4.85,0.98,-4.7,3,2
18263.421,0.401,0.277,0.862,4.21,0.82,-5.31,3,2
18263.421,0.393,0.29,0.863,2.08,0.24,-5.55,3,2
18263.437,0.393,0.294,0.861,-0.55,-0.31,-5.16,3,2
18263.453,0.398,0.287,0.86,-3.02,-0.67,-4.7,3,2
18263.468,0.396,0.288,0.876,-3.6,-0.18,-1.13,3,2
18263.484,0.402,0.281,0.876,-2.62,0.12,1.19,3,2
18263.484,0.408,0.265,0.871,-2.5,0.24,2.72,3,2
18263.5,0.415,0.256,0.88,-2.56,-0.15,3.27,3,2
18263.515,0.415,0.256,0.881,-1.89,-0.24,3.48,3,2
18263.515,0.419,0.248,0.871,-1.04,-0.4,3.3,3,2
18263.531,0.422,0.249,0.869,-1.07,-0.37,2.5,3,2
18263.531,0.424,0.25,0.872,-0.82,-0.06,1.37,3,2
18263.546,0.421,0.246,0.878,0.09,0.31,0.46,3,2
18263.562,0.419,0.244,0.882,1.68,0.4,-0.73,3,2
18263.562,0.416,0.24,0.883,3.39,0.34,-2.01,3,2
18263.578,0.412,0.235,0.884,8.55,1.16,-4.0,3,2
18263.593,0.403,0.242,0.88,10.77,1.28,-4.73,3,2
18263.593,0.397,0.256,0.874,11.05,0.89,-5.01,3,2
18263.609,0.397,0.278,0.871,9.55,0.09,-5.68,3,2
18263.625,0.392,0.308,0.851,6.78,-0.76,-5.95,3,2
18263.625,0.397,0.307,0.844,3.05,-1.04,-5.49,3,2
18263.64,0.393,0.299,0.864,-0.61,-1.56,-5.62,3,2
18263.656,0.395,0.3,0.861,-1.07,-2.01,-4.64,3,2
18263.656,0.404,0.295,0.863,-2.41,-2.23,-3.57,3,2
18263.671,0.399,0.282,0.872,-4.39,-2.17,-3.11,3,2
18263.671,0.402,0.271,0.875,-4.76,-2.53,-2.23,3,2
18263.687,0.406,0.268,0.875,-3.78,-2.47,-1.37,3,2
18263.703,0.411,0.26,0.874,-3.02,-2.14,-1.25,3,2
18263.703,0.411,0.259,0.879,-2.56,-2.04,-1.74,3,2
18263.718,0.409,0.265,0.876,-1.43,-2.2,-2.29,3,2
18263.734,0.41,0.268,0.87,-0.31,-2.08,-2.62,3,2
18263.75,0.407,0.269,0.866,0.67,-1.83,-2.84,3,2
18263.75,0.404,0.277,0.866,1.46,-1.16,-2.93,3,2
18263.75,0.402,0.285,0.866,1.86,-0.7,-2.69,3,2
18263.765,0.398,0.282,0.866,1.74,-0.46,-2.2,3,2
18263.781,0.396,0.283,0.867,1.43,-0.49,-1.62,3,2
18263.781,0.398,0.287,0.867,1.19,-0.46,-0.98,3,2
18263.796,0.398,0.284,0.868,1.13,-0.43,-0.27,3,2
18263.812,0.4,0.282,0.867,0.76,-0.43,0.31,3,2
18263.812,0.406,0.289,0.866,0.0,-0.61,0.7,3,2
18263.828,0.407,0.28,0.863,-0.58,-0.43,1.1,3,2
18263.843,0.407,0.269,0.866,-0.82,-0.18,1.37,3,2
18263.843,0.41,0.266,0.873,-0.34,-0.21,1.25,3,2
18263.859,0.407,0.263,0.874,0.49,-0.03,0.98,3,2
18263.875,0.408,0.265,0.877,1.59,0.24,0.92,3,2
18263.875,0.407,0.263,0.875,3.08,0.58,0.7,3,2
18263.89,0.407,0.261,0.872,3.94,0.55,-0.09,3,2
18263.89,0.405,0.265,0.878,4.03,0.34,-1.16,3,2
18263.906,0.401,0.269,0.877,4.52,0.15,-1.65,3,2
18263.921,0.4,0.275,0.875,5.86,0.18,-1.83,3,2
18263.921,0.396,0.284,0.871,6.5,-0.15,-1.8,3,2
18263.937,0.395,0.291,0.865,5.92,-0.46,-1.56,3,2
18263.953,0.398,0.299,0.86,4.64,-0.95,-1.28,3,2
18263.968,0.397,0.299,0.855,3.11,-1.07,-1.22,3,2
18263.968,0.394,0.303,0.86,1.5,-1.01,-0.61,3,2
18263.984,0.4,0.299,0.863,-1.13,-1.4,1.43,3,2
18264.0,0.402,0.284,0.866,-2.01,-1.56,1.98,3,2
18264.015,0.404,0.276,0.871,-2.59,-1.68,2.23,3,2
18264.015,0.405,0.27,0.878,-2.26,-1.56,2.23,3,2
18264.031,0.405,0.264,0.879,-1.25,-1.53,2.08,3,2
18264.046,0.407,0.268,0.876,0.46,-1.34,1.92,3,2
18264.046,0.405,0.278,0.869,1.89,-1.07,1.86,3,2
18264.062,0.406,0.288,0.864,2.17,-0.7,1.8,3,2
18264.062,0.407,0.292,0.864,1.86,-0.52,2.26,3,2
18264.078,0.405,0.289,0.861,1.89,-0.15,2.96,3,2
18264.093,0.407,0.28,0.858,1.43,-0.03,3.2,3,2
18264.093,0.407,0.274,0.862,0.58,-0.09,2.87,3,2
18264.109,0.41,0.269,0.866,0.31,-0.09,2.23,3,2
18264.125,0.409,0.268,0.865,0.85,0.15,1.4,3,2
18264.125,0.407,0.275,0.869,1.13,0.4,0.37,3,2
18264.14,0.398,0.278,0.873,1.13,0.37,-0.31,3,2
18264.156,0.398,0.274,0.87,1.8,0.15,-0.55,3,2
18264.171,0.394,0.277,0.872,2.08,0.37,-0.61,3,2
18264.171,0.394,0.286,0.874,2.11,0.27,-0.12,3,2
18264.187,0.396,0.29,0.872,2.17,-0.09,0.27,3,2
18264.203,0.4,0.291,0.863,1.68,-0.67,0.67,3,2
18264.203,0.408,0.293,0.858,0.34,-1.07,0.85,3,2
18264.218,0.413,0.29,0.86,-0.89,-1.16,0.82,3,2
18264.234,0.417,0.285,0.862,-1.28,-1.1,0.58,3,2
18264.234,0.417,0.279,0.864,-0.98,-1.04,-0.15,3,2
18264.25,0.417,0.272,0.87,-0.76,-1.01,-1.22,3,2
18264.265,0.417,0.266,0.874,-0.27,-1.16,-2.53,3,2
18264.265,0.414,0.262,0.875,1.04,-1.16,-3.88,3,2
18264.281,0.408,0.262,0.874,2.93,-1.1,-5.01,3,2
18264.281,0.403,0.27,0.873,4.52,-0.92,-5.74,3,2
18264.296,0.395,0.285,0.876,5.4,-0.89,-5.89,3,2
18264.312,0.391,0.301,0.873,5.65,-1.13,-5.34,3,2
18264.312,0.39,0.306,0.865,5.37,-1.31,-4.09,3,2
18264.328,0.39,0.307,0.859,4.33,-1.5,-3.05,3,2
18264.343,0.391,0.306,0.854,2.66,-1.65,-2.2,3,2
18264.343,0.393,0.308,0.856,0.24,-1.86,-1.4,3,2
18264.359,0.398,0.305,0.861,-1.92,-1.92,-0.95,3,2
18264.375,0.397,0.294,0.863,-2.75,-1.95,-0.24,3,2
18264.375,0.397,0.288,0.868,-2.96,-1.74,0.49,3,2
18264.39,0.401,0.284,0.869,-2.53,-1.31,1.16,3,2
18264.406,0.402,0.279,0.869,-1.56,-1.04,1.34,3,2
18264.406,0.401,0.281,0.867,-0.76,-0.76,1.43,3,2
18264.421,0.398,0.287,0.868,-0.09,-0.49,1.89,3,2
18264.421,0.398,0.291,0.866,0.37,-0.15,2.41,3,2
18264.437,0.397,0.292,0.863,0.31,0.12,2.96,3,2
18264.453,0.397,0.293,0.864,-0.76,0.06,3.42,3,2
18264.453,0.396,0.289,0.865,-1.65,0.06,3.81,3,2
18264.468,0.398,0.284,0.865,-2.23,0.0,4.09,3,2
18264.484,0.401,0.279,0.866,-2.93,-0.31,3.91,3,2
18264.484,0.404,0.271,0.869,-3.57,-0.34,3.33,3,2
18264.5,0.407,0.267,0.867,-2.84,-0.18,2.53,3,2
18264.5,0.411,0.268,0.873,-1.56,0.12,1.98,3,2
18264.515,0.413,0.272,0.873,-0.34,0.31,1.62,3,2
18264.531,0.411,0.271,0.869,0.52,-0.06,1.01,3,2
18264.531,0.416,0.28,0.866,0.92,-0.15,0.46,3,2
18264.546,0.416,0.283,0.864,1.31,-0.09,-0.06,3,2
18264.562,0.413,0.292,0.862,1.1,-0.37,-0.55,3,2
18264.578,0.411,0.292,0.86,-0.64,-0.89,-1.86,3,2
18264.578,0.403,0.29,0.863,-0.73,-0.82,-1.86,3,2
18264.593,0.397,0.287,0.872,-0.55,-0.92,-1.8,3,2
18264.593,0.387,0.281,0.875,-0.58,-1.34,-1.53,3,2
18264.609,0.39,0.279,0.872,-0.31,-1.68,-1.1,3,2
18264.625,0.394,0.281,0.871,0.0,-1.56,-0.7,3,2
18264.625,0.398,0.283,0.867,0.06,-1.53,-0.43,3,2
18264.64,0.403,0.286,0.865,-0.55,-1.56,-0.27,3,2
18264.64,0.406,0.286,0.862,-1.13,-1.5,-0.24,3,2
18264.656,0.408,0.288,0.861,-1.83,-1.53,-0.34,3,2
18264.671,0.408,0.29,0.864,-3.14,-1.62,-0.55,3,2
18264.671,0.408,0.284,0.866,-4.06,-1.89,-0.64,3,2
18264.687,0.411,0.277,0.869,-4.18,-1.98,-0.49,3,2
18264.703,0.411,0.27,0.869,-3.6,-1.74,-0.67,3,2
18264.703,0.411,0.265,0.874,-2.41,-1.37,-0.85,3,2
18264.734,0.41,0.269,0.868,1.53,-0.58,-1.34,3,2
18264.734,0.408,0.277,0.868,2.53,-0.24,-1.86,3,2
18264.75,0.402,0.286,0.867,2.9,-0.06,-2.2,3,2
18264.75,0.4,0.292,0.868,2.78,-0.03,-2.2,3,2
18264.765,0.395,0.293,0.87,2.2,0.06,-1.89,3,2
18264.781,0.391,0.288,0.872,1.62,0.03,-1.16,3,2
18264.796,0.392,0.274,0.869,1.16,-0.09,-0.58,3,2
18264.796,0.393,0.266,0.871,1.1,-0.06,-0.67,3,2
18264.812,0.392,0.266,0.873,0.82,-0.03,-1.13,3,2
18264.828,0.392,0.273,0.88,0.73,-0.03,-1.56,3,2
18264.828,0.39,0.279,0.876,1.43,-0.12,-1.4,3,2
18264.843,0.396,0.287,0.869,2.04,-0.37,-0.92,3,2
18264.843,0.399,0.294,0.866,1.86,-0.46,-0.64,3,2
18264.859,0.401,0.296,0.861,1.46,-0.52,-0.31,3,2
18264.875,0.406,0.298,0.86,1.83,-0.49,0.18,3,2
18264.875,0.408,0.299,0.862,2.41,-0.09,0.76,3,2
18264.89,0.396,0.294,0.868,2.96,0.55,2.29,3,2
18264.906,0.379,0.292,0.874,3.97,1.8,3.42,3,2
18264.921,0.381,0.305,0.879,4.0,2.53,5.16,3,2
18264.921,0.368,0.32,0.908,2.56,1.07,6.13,3,2
18264.937,0.334,0.334,0.98,2.08,-4.24,7.75,3,2
18264.953,0.31,0.322,0.996,2.38,-14.53,11.87,3,2
18264.953,0.337,0.298,1.103,2.2,-29.42,17.3,3,2
18264.968,0.362,0.242,1.024,10.01,-44.13,18.13,3,2
18264.984,0.367,0.194,0.945,17.43,-52.34,17.82,3,2
18264.984,0.409,0.181,0.915,22.22,-56.86,17.46,3,2
18265.0,0.433,0.199,0.845,27.28,-58.6,13.98,3,2
18265.0,0.455,0.235,0.79,26.12,-57.31,10.07,3,2
18265.015,0.497,0.267,0.753,22.46,-53.71,5.68,3,2
18265.031,0.503,0.287,0.719,18.89,-47.46,1.13,3,2
18265.031,0.518,0.315,0.696,14.28,-40.35,-1.4,3,2
18265.046,0.535,0.344,0.681,10.04,-32.14,-1.86,3,2
18265.062,0.545,0.357,0.677,3.72,-13.46,-0.73,3,2
18265.078,0.543,0.354,0.685,1.92,-3.75,0.95,3,2
18265.093,0.537,0.355,0.693,0.49,5.28,2.5,3,2
18265.093,0.526,0.342,0.706,-2.56,13.09,3.27,3,2
18265.109,0.512,0.325,0.728,-7.2,19.38,3.11,3,2
18265.125,0.501,0.315,0.757,-11.47,24.08,2.38,3,2
18265.125,0.489,0.309,0.793,-14.95,26.52,1.34,3,2
18265.14,0.475,0.3,0.829,-17.73,27.31,-0.03,3,2
18265.14,0.46,0.292,0.863,-18.13,27.04,-0.34,3,2
18265.156,0.451,0.277,0.889,-15.59,25.24,0.09,3,2
18265.171,0.444,0.258,0.902,-11.23,22.61,0.37,3,2
18265.171,0.438,0.256,0.902,-6.56,20.14,0.24,3,2
18265.187,0.435,0.238,0.89,-2.14,18.22,-0.18,3,2
18265.203,0.438,0.24,0.883,1.1,16.48,-1.25,3,2
18265.203,0.433,0.244,0.871,2.69,15.14,-3.27,3,2
18265.218,0.43,0.251,0.861,3.33,14.59,-5.01,3,2
18265.234,0.432,0.288,0.832,5.52,16.57,-6.41,3,2
18265.25,0.424,0.302,0.822,5.43,18.22,-6.32,3,2
18265.25,0.428,0.317,0.813,4.64,19.9,-5.58,3,2
18265.265,0.429,0.315,0.806,3.94,22.22,-4.7,3,2
18265.281,0.437,0.306,0.793,1.86,25.73,-4.79,3,2
18265.281,0.439,0.309,0.792,0.09,29.85,-5.22,3,2
18265.296,0.439,0.301,0.786,0.09,35.07,-5.46,3,2
18265.312,0.434,0.295,0.793,0.15,40.31,-6.32,3,2
18265.312,0.421,0.318,0.816,-1.01,44.25,-7.26,3,2
18265.328,0.397,0.341,0.846,-4.55,46.48,-7.17,3,2
18265.343,0.375,0.346,0.883,-9.77,45.72,-6.23,3,2
18265.343,0.36,0.342,0.918,-14.77,42.09,-4.85,3,2
18265.359,0.346,0.323,0.935,-18.1,36.26,-4.12,3,2
18265.375,0.336,0.289,0.945,-19.87,30.43,-3.91,3,2
18265.375,0.322,0.266,0.966,-20.29,24.6,-3.75,3,2
18265.39,0.302,0.253,1.005,-18.28,18.19,-3.75,3,2
18265.406,0.311,0.225,1.004,-7.45,2.53,-2.11,3,2
18265.421,0.32,0.211,0.968,-0.61,-2.35,-2.29,3,2
18265.421,0.332,0.218,0.935,6.93,-4.46,-1.83,3,2
18265.437,0.343,0.25,0.906,13.79,-4.61,-1.16,3,2
18265.453,0.348,0.291,0.893,17.46,-4.58,-1.01,3,2
18265.453,0.351,0.321,0.886,17.55,-5.37,-0.95,3,2
18265.468,0.354,0.338,0.872,15.84,-6.5,-0.34,3,2
18265.484,0.362,0.347,0.855,13.7,-7.11,1.04,3,2
18265.484,0.364,0.346,0.845,10.53,-7.05,2.26,3,2
18265.5,0.366,0.338,0.839,6.9,-6.01,3.54,3,2
18265.515,0.369,0.325,0.844,3.23,-4.88,4.76,3,2
18265.515,0.369,0.314,0.854,0.03,-4.24,4.97,3,2
18265.531,0.365,0.307,0.865,-3.05,-3.63,4.79,3,2
18265.546,0.357,0.291,0.875,-4.67,-3.08,4.91,3,2
18265.546,0.36,0.283,0.881,-3.78,-1.8,5.74,3,2
18265.562,0.361,0.274,0.881,-2.75,-0.98,5.95,3,2
18265.562,0.362,0.271,0.885,-2.17,-0.61,5.95,3,2
18265.578,0.361,0.279,0.886,-2.23,-0.95,5.89,3,2
18265.593,0.372,0.285,0.889,-2.26,-1.4,5.62,3,2
18265.593,0.381,0.283,0.882,-1.89,-1.8,4.91,3,2
18265.609,0.388,0.283,0.873,-1.37,-1.74,3.85,3,2
18265.625,0.394,0.281,0.868,-1.37,-1.62,2.17,3,2
18265.625,0.394,0.286,0.86,-2.69,-1.34,0.31,3,2
18265.64,0.387,0.29,0.855,-4.91,-0.76,-1.01,3,2
18265.64,0.391,0.29,0.858,-5.71,0.67,-0.58,3,2
18265.656,0.39,0.286,0.868,-5.01,2.69,0.0,3,2
18265.671,0.379,0.281,0.876,-4.55,4.0,-0.67,3,2
18265.671,0.367,0.27,0.878,-5.37,4.3,-1.98,3,2
18265.687,0.365,0.261,0.887,-5.83,4.52,-2.81,3,2
18265.703,0.361,0.254,0.894,-5.25,4.73,-3.75,3,2
18265.703,0.359,0.249,0.896,-4.58,4.61,-5.04,3,2
18265.718,0.355,0.25,0.902,-4.15,4.55,-6.38,3,2
18265.734,0.356,0.248,0.904,-2.47,4.18,-7.39,3,2
18265.734,0.358,0.253,0.902,0.43,4.21,-8.24,3,2
18265.75,0.355,0.258,0.904,3.36,4.64,-9.22,3,2
18265.765,0.352,0.272,0.901,5.92,4.27,-9.83,3,2
18265.765,0.357,0.29,0.888,7.72,3.48,-10.01,3,2
18265.781,0.357,0.305,0.876,7.54,2.72,-10.65,3,2
18265.781,0.349,0.319,0.865,5.89,2.29,-10.83,3,2
18265.796,0.345,0.33,0.851,2.87,2.32,-10.07,3,2
18265.812,0.343,0.34,0.849,-1.62,3.11,-8.24,3,2
18265.812,0.337,0.344,0.861,-6.29,3.63,-6.01,3,2
18265.828,0.336,0.35,0.884,-10.99,2.93,-3.78,3,2
18265.843,0.331,0.341,0.891,-15.35,1.46,-2.11,3,2
18265.843,0.336,0.32,0.917,-18.86,0.21,-0.18,3,2
18265.859,0.342,0.283,0.959,-18.98,-1.89,0.58,3,2
18265.875,0.369,0.238,1.026,-16.94,-3.51,0.12,3,2
18265.875,0.379,0.196,1.119,-10.93,-8.61,-3.3,3,2
18265.89,0.382,0.189,1.036,-0.67,-18.74,-9.0,3,2
18265.89,0.412,0.18,0.83,8.42,-21.85,-12.36,3,2
18265.906,0.402,0.199,0.697,17.98,-13.06,-15.05,3,2
18265.921,0.373,0.232,0.695,29.08,4.94,-10.25,3,2
18265.937,0.343,0.282,0.798,33.72,18.68,-4.24,3,2
18265.937,0.301,0.324,0.849,27.07,23.13,-3.08,3,2
18265.953,0.274,0.394,0.844,9.74,22.28,-2.87,3,2
18265.968,0.293,0.374,0.848,-1.13,22.37,1.86,3,2
18265.968,0.282,0.333,0.872,-2.99,21.52,5.92,3,2
18265.984,0.295,0.32,0.891,-4.43,15.63,8.06,3,2
18266.0,0.312,0.328,0.867,-11.41,8.76,7.23,3,2
18266.0,0.32,0.281,0.782,-20.57,7.66,5.34,3,2
18266.015,0.363,0.184,0.673,-29.21,15.41,4.73,3,2
18266.015,0.464,0.128,0.813,-31.19,30.3,-0.64,3,2
18266.031,0.343,0.24,1.035,-13.73,40.41,-11.87,3,2
18266.046,0.223,0.398,1.103,1.07,34.97,-7.39,3,2
18266.046,0.267,0.42,1.126,1.25,19.59,0.34,3,2
18266.062,0.298,0.34,1.078,-2.23,3.3,2.08,3,2
18266.062,0.321,0.25,1.004,0.15,-9.0,1.74,3,2
18266.078,0.349,0.211,0.92,7.45,-15.96,-1.13,3,2
18266.093,0.342,0.222,0.839,11.69,-15.32,-5.19,3,2
18266.093,0.358,0.23,0.869,12.82,-9.19,-6.99,3,2
18266.109,0.33,0.245,0.901,16.63,-4.73,-8.03,3,2
18266.109,0.322,0.295,0.904,18.59,-5.04,-8.24,3,2
18266.125,0.324,0.328,0.9,16.17,-6.87,-8.0,3,2
18266.14,0.325,0.326,0.896,14.16,-8.03,-8.03,3,2
18266.156,0.318,0.326,0.894,13.46,-8.82,-7.42,3,2
18266.156,0.311,0.342,0.893,12.54,-10.53,-6.59,3,2
18266.171,0.305,0.35,0.874,10.25,-12.24,-5.04,3,2
18266.171,0.312,0.351,0.85,5.68,-12.82,-3.11,3,2
18266.187,0.319,0.355,0.852,0.09,-11.2,-1.04,3,2
18266.203,0.321,0.334,0.866,-4.15,-8.55,1.43,3,2
18266.203,0.316,0.314,0.881,-5.83,-6.68,3.88,3,2
18266.218,0.325,0.302,0.889,-5.49,-5.52,6.29,3,2
18266.234,0.336,0.284,0.898,-4.79,-4.58,6.99,3,2
18266.234,0.339,0.261,0.905,-3.11,-4.09,6.07,3,2
18266.25,0.336,0.261,0.908,-0.79,-4.33,4.3,3,2
18266.265,0.335,0.275,0.912,1.53,-4.58,3.05,3,2
18266.265,0.331,0.28,0.907,3.72,-4.33,2.62,3,2
18266.281,0.326,0.295,0.917,6.59,-4.58,2.62,3,2
18266.296,0.325,0.3,0.913,9.0,-5.34,3.85,3,2
18266.296,0.329,0.283,0.906,10.53,-6.38,4.27,3,2
18266.312,0.335,0.283,0.9,11.35,-6.81,4.49,3,2
18266.312,0.337,0.281,0.888,12.3,-6.9,3.72,3,2
18266.328,0.34,0.29,0.882,12.51,-6.78,3.14,3,2
18266.343,0.344,0.302,0.88,12.3,-6.23,2.75,3,2
18266.359,0.344,0.308,0.885,12.09,-5.95,2.11,3,2
18266.359,0.328,0.334,0.903,11.81,-6.5,2.04,3,2
18266.375,0.322,0.354,0.907,11.2,-8.7,3.69,3,2
18266.375,0.324,0.353,0.906,10.01,-11.38,5.83,3,2
18266.39,0.319,0.355,0.91,9.16,-14.01,7.81,3,2
18266.406,0.316,0.35,0.905,9.16,-16.88,9.31,3,2
18266.406,0.322,0.34,0.889,9.28,-19.44,10.9,3,2
18266.421,0.33,0.333,0.865,9.37,-20.72,12.05,3,2
18266.421,0.344,0.336,0.844,9.7,-20.11,13.06,3,2
18266.437,0.349,0.336,0.832,9.03,-18.25,13.46,3,2
18266.453,0.362,0.338,0.823,7.6,-16.75,14.62,3,2
18266.453,0.387,0.349,0.815,5.43,-13.82,15.56,3,2
18266.468,0.383,0.332,0.809,2.5,-10.32,14.83,3,2
18266.484,0.388,0.315,0.807,-0.85,-6.1,14.53,3,2
18266.484,0.395,0.303,0.818,-2.72,-1.77,13.64,3,2
18266.5,0.394,0.315,0.84,-3.78,1.04,13.37,3,2
18266.515,0.392,0.33,0.872,-5.46,1.04,13.06,3,2
18266.515,0.396,0.333,0.907,-12.02,-3.11,11.08,3,2
18266.531,0.368,0.307,0.881,-19.41,-7.63,9.28,3,2
18266.531,0.371,0.293,0.863,-17.7,-8.3,14.65,3,2
18266.546,0.4,0.275,0.853,-11.51,-3.69,16.39,3,2
18266.562,0.412,0.254,0.837,-7.57,1.77,15.93,3,2
18266.562,0.427,0.226,0.844,-5.49,6.47,12.7,3,2
18266.578,0.436,0.231,0.838,-5.07,10.13,8.27,3,2
18266.593,0.449,0.235,0.834,-4.36,14.28,3.48,3,2
18266.593,0.45,0.233,0.827,-1.56,19.75,-1.46,3,2
18266.609,0.429,0.263,0.822,2.75,25.94,-5.49,3,2
18266.625,0.408,0.286,0.828,5.92,31.13,-8.06,3,2
18266.625,0.394,0.293,0.847,5.92,34.06,-10.07,3,2
18266.64,0.381,0.3,0.872,2.93,34.21,-12.94,3,2
18266.656,0.358,0.314,0.897,-2.32,31.71,-15.75,3,2
18266.656,0.339,0.311,0.925,-7.26,27.19,-18.65,3,2
18266.671,0.333,0.297,0.948,-9.86,20.94,-21.52,3,2
18266.671,0.311,0.283,0.943,-10.56,14.4,-24.72,3,2
18266.687,0.226,0.299,0.988,-11.69,7.54,-28.08,3,2
18266.703,0.244,0.318,1.104,-8.67,-5.22,-24.17,3,2
18266.718,0.277,0.302,1.021,-5.74,-19.78,-22.89,3,2
18266.718,0.264,0.286,0.96,-6.16,-26.37,-23.59,3,2
18266.734,0.291,0.254,0.947,-3.36,-30.3,-22.0,3,2
18266.734,0.299,0.254,0.931,0.18,-32.41,-21.7,3,2
18266.75,0.291,0.271,0.919,1.89,-33.6,-22.16,3,2
18266.765,0.309,0.284,0.92,2.26,-35.58,-21.45,3,2
18266.765,0.326,0.306,0.919,1.77,-37.9,-21.55,3,2
18266.781,0.329,0.324,0.907,0.55,-40.35,-21.91,3,2
18266.781,0.34,0.32,0.892,-2.23,-43.15,-21.7,3,2
18266.796,0.352,0.312,0.865,-5.28,-45.59,-21.45,3,2
18266.812,0.371,0.311,0.841,-7.35,-46.14,-20.63,3,2
18266.812,0.383,0.302,0.831,-7.23,-44.04,-19.23,3,2
18266.828,0.389,0.299,0.819,-5.49,-40.62,-17.24,3,2
18266.843,0.404,0.316,0.811,-2.81,-36.19,-13.67,3,2
18266.843,0.426,0.321,0.826,0.37,-31.62,-10.04,3,2
18266.859,0.445,0.317,0.815,2.23,-28.08,-8.24,3,2
18266.875,0.451,0.325,0.801,1.98,-23.71,-7.81,3,2
18266.875,0.455,0.318,0.796,1.95,-18.34,-7.48,3,2
18266.89,0.45,0.31,0.785,3.72,-12.36,-6.23,3,2
18266.89,0.446,0.318,0.779,7.32,-5.16,-3.08,3,2
18266.906,0.436,0.331,0.794,10.93,2.56,0.79,3,2
18266.921,0.408,0.329,0.805,11.93,8.58,3.48,3,2
18266.921,0.405,0.344,0.824,8.94,11.51,5.49,3,2
18266.937,0.391,0.367,0.844,4.67,11.6,6.59,3,2
18266.953,0.358,0.375,0.856,1.22,11.02,8.79,3,2
18266.953,0.339,0.378,0.86,-1.16,9.16,13.18,3,2
18266.968,0.361,0.376,0.897,-2.59,5.65,19.41,3,2
18266.984,0.36,0.356,0.884,-3.81,2.53,23.13,3,2
18266.984,0.367,0.346,0.871,-4.55,0.82,26.46,3,2
18267.0,0.39,0.317,0.868,-3.33,-0.21,28.78,3,2
18267.015,0.417,0.305,0.867,-0.49,-0.15,28.84,3,2
18267.015,0.428,0.301,0.84,1.74,1.53,27.44,3,2
18267.031,0.428,0.288,0.821,3.6,4.85,26.06,3,2
18267.031,0.429,0.277,0.818,5.58,8.18,24.99,3,2
18267.046,0.437,0.289,0.822,6.99,11.29,24.2,3,2
18267.062,0.446,0.3,0.822,7.42,14.62,23.9,3,2
18267.062,0.445,0.295,0.826,6.32,17.46,22.74,3,2
18267.078,0.446,0.279,0.835,4.58,18.92,20.14,3,2
18267.093,0.453,0.273,0.835,3.45,19.96,16.6,3,2
18267.093,0.457,0.267,0.82,2.96,22.58,12.7,3,2
18267.109,0.447,0.266,0.81,2.53,27.62,9.77,3,2
18267.125,0.411,0.264,0.871,2.93,31.86,7.17,3,2
18267.125,0.321,0.27,1.068,4.61,27.04,5.34,3,2
18267.14,0.35,0.242,1.121,6.93,7.29,3.08,3,2
18267.14,0.366,0.264,1.014,4.06,-9.4,-3.11,3,2
18267.156,0.376,0.225,0.886,4.12,-17.18,-8.12,3,2
18267.171,0.403,0.198,0.784,9.4,-15.23,-10.35,3,2
18267.171,0.405,0.23,0.758,15.5,-4.94,-10.83,3,2
18267.187,0.387,0.306,0.806,17.64,5.52,-8.67,3,2
18267.203,0.379,0.355,0.863,14.62,9.06,-6.38,3,2
18267.203,0.374,0.359,0.883,10.04,7.51,-5.95,3,2
18267.218,0.367,0.36,0.858,4.97,5.4,-4.82,3,2
18267.234,0.388,0.363,0.851,0.06,3.17,-4.27,3,2
18267.234,0.379,0.378,0.84,-6.01,0.82,-6.04,3,2
18267.25,0.358,0.393,0.81,-15.05,-2.38,-7.29,3,2
18267.265,0.368,0.402,0.8,-26.4,-4.27,-5.62,3,2
18267.265,0.375,0.388,0.848,-35.13,-4.67,-3.02,3,2
18267.281,0.364,0.358,0.876,-37.51,-4.88,0.21,3,2
18267.281,0.341,0.327,0.915,-34.79,-5.58,5.16,3,2
18267.296,0.37,0.261,0.907,-28.66,-6.41,10.44,3,2
18267.312,0.383,0.21,0.912,-21.79,-4.46,11.87,3,2
18267.312,0.379,0.158,0.915,-11.99,-2.26,10.13,3,2
18267.328,0.38,0.137,0.915,-2.38,-0.76,7.23,3,2
18267.343,0.401,0.18,0.898,4.15,-0.67,3.57,3,2
18267.343,0.408,0.231,0.888,5.92,-1.31,-0.4,3,2
18267.359,0.414,0.257,0.868,5.13,-2.87,-5.07,3,2
18267.375,0.416,0.296,0.831,2.35,-4.0,-9.19,3,2
18267.375,0.408,0.329,0.794,-3.48,-3.39,-11.69,3,2
18267.39,0.407,0.348,0.785,-12.39,-0.34,-10.59,3,2
18267.39,0.391,0.36,0.849,-18.46,2.53,-6.81,3,2
18267.406,0.375,0.32,0.768,-21.45,4.18,-1.95,3,2
18267.421,0.461,0.28,0.806,-28.38,7.6,0.06,3,2
18267.437,0.443,0.26,0.98,-22.1,11.05,-4.76,3,2
18267.437,0.33,0.269,1.023,-8.73,7.97,-6.93,3,2
18267.453,0.365,0.256,0.94,-2.5,-0.06,-3.6,3,2
18267.453,0.418,0.205,0.881,-3.33,-1.68,-4.61,3,2
18267.468,0.391,0.15,0.892,-2.35,0.0,-10.93,3,2
18267.484,0.355,0.134,0.885,1.37,-0.21,-15.5,3,2
18267.484,0.369,0.164,0.944,2.78,-2.87,-19.26,3,2
18267.5,0.374,0.211,0.977,5.22,-6.56,-22.68,3,2
18267.515,0.367,0.232,0.965,7.2,-11.05,-25.24,3,2
18267.515,0.359,0.23,0.963,13.21,-20.33,-30.98,3,2
18267.531,0.358,0.241,0.95,15.53,-24.78,-34.24,3,2
18267.546,0.361,0.255,0.921,14.95,-27.53,-37.39,3,2
18267.546,0.35,0.273,0.894,12.18,-29.57,-38.61,3,2
18267.562,0.368,0.308,0.856,8.79,-29.85,-38.97,3,2
18267.562,0.391,0.325,0.86,7.51,-28.99,-40.19,3,2
18267.578,0.399,0.322,0.835,6.16,-29.18,-44.01,3,2
18267.593,0.397,0.323,0.821,0.64,-29.39,-49.41,3,2
18267.593,0.395,0.321,0.838,-7.35,-31.5,-55.36,3,2
18267.609,0.392,0.334,0.86,-16.39,-35.19,-61.34,3,2
18267.625,0.386,0.344,0.868,-26.46,-40.56,-65.65,3,2
18267.625,0.381,0.332,0.846,-36.19,-45.14,-67.6,3,2
18267.64,0.383,0.345,0.809,-44.28,-45.72,-66.74,3,2
18267.64,0.392,0.352,0.808,-49.04,-42.15,-61.04,3,2
18267.656,0.406,0.354,0.836,-44.19,-35.16,-51.0,3,2
18267.671,0.411,0.34,0.845,-28.57,-26.22,-39.8,3,2
18267.671,0.417,0.328,0.836,-10.16,-17.82,-29.02,3,2
18267.687,0.423,0.337,0.819,2.41,-11.11,-21.18,3,2
18267.703,0.427,0.342,0.811,6.9,-6.26,-16.88,3,2
18267.703,0.426,0.325,0.807,4.33,-3.45,-15.99,3,2
18267.718,0.422,0.305,0.816,-2.14,-2.53,-17.94,3,2
18267.734,0.419,0.304,0.838,-9.89,-3.94,-21.85,3,2
18267.734,0.421,0.299,0.855,-17.4,-7.05,-26.22,3,2
18267.75,0.42,0.301,0.859,-24.41,-10.19,-30.43,3,2
18267.765,0.416,0.307,0.871,-29.88,-12.27,-32.35,3,2
18267.765,0.416,0.303,0.904,-28.9,-12.67,-30.88,3,2
18267.781,0.415,0.295,0.918,-19.04,-11.72,-27.01,3,2
18267.781,0.412,0.282,0.903,-5.52,-10.04,-20.75,3,2
18267.796,0.425,0.278,0.879,5.98,-7.69,-14.16,3,2
18267.812,0.439,0.265,0.862,14.22,-4.88,-10.86,3,2
18267.812,0.45,0.234,0.85,18.68,-2.23,-11.63,3,2
18267.828,0.455,0.217,0.847,19.9,-0.12,-16.02,3,2
18267.843,0.455,0.209,0.86,19.78,1.19,-23.04,3,2
18267.843,0.45,0.204,0.882,19.26,1.5,-30.88,3,2
18267.859,0.443,0.197,0.908,19.87,0.67,-38.7,3,2
18267.875,0.429,0.197,0.929,22.19,-1.34,-46.21,3,2
18267.875,0.426,0.2,0.935,27.01,-3.94,-52.86,3,2
18267.89,0.421,0.197,0.932,34.91,-5.89,-59.02,3,2
18267.906,0.413,0.208,0.927,45.96,-7.45,-64.85,3,2
18267.906,0.406,0.221,0.928,61.43,-7.9,-70.8,3,2
18267.921,0.391,0.221,0.929,82.61,-7.87,-78.28,3,2
18267.921,0.366,0.234,0.913,104.01,-9.49,-88.63,3,2
18267.937,0.344,0.288,0.911,114.38,-14.1,-100.71,3,2
18267.953,0.318,0.318,0.917,114.51,-22.89,-115.48,3,2
18267.953,0.291,0.333,0.914,106.05,-37.02,-134.34,3,2
18267.968,0.275,0.363,0.892,89.05,-53.35,-153.11,3,2
18267.984,0.277,0.372,0.858,69.43,-69.86,-169.8,3,2
18267.984,0.28,0.394,0.803,51.45,-82.16,-182.29,3,2
18268.0,0.282,0.443,0.727,38.33,-85.18,-187.81,3,2
18268.015,0.338,0.49,0.65,31.28,-80.02,-189.03,3,2
18268.015,0.36,0.549,0.573,29.24,-65.55,-188.36,3,2
18268.031,0.334,0.625,0.561,32.23,-44.16,-181.01,3,2
18268.046,0.288,0.73,0.572,42.39,-22.19,-164.65,3,2
18268.046,0.256,0.824,0.556,53.74,-5.71,-141.27,3,2
18268.062,0.194,0.886,0.539,59.85,5.71,-117.62,3,2
18268.062,0.121,0.933,0.533,56.76,11.63,-96.16,3,2
18268.078,0.099,0.973,0.538,43.76,10.19,-75.62,3,2
18268.093,0.123,1.008,0.527,21.97,6.38,-55.12,3,2
18268.093,0.201,1.041,0.55,-16.6,-1.13,-25.97,3,2
18268.109,0.174,0.94,0.605,-57.89,-6.26,4.03,3,2
18268.125,0.193,0.776,0.617,-65.43,-2.35,18.74,3,2
18268.125,0.217,0.669,0.651,-69.25,4.94,25.12,3,2
18268.14,0.245,0.632,0.667,-70.53,12.21,21.24,3,2
18268.156,0.27,0.574,0.678,-69.06,20.75,11.72,3,2
18268.156,0.261,0.54,0.701,-68.0,28.08,0.18,3,2
18268.171,0.253,0.514,0.727,-64.06,34.67,-8.61,3,2
18268.187,0.206,0.496,0.758,-57.04,38.24,-15.17,3,2
18268.187,0.169,0.489,0.786,-47.55,35.89,-19.01,3,2
18268.203,0.152,0.486,0.799,-36.77,29.36,-18.31,3,2
18268.203,0.143,0.498,0.798,-25.82,21.36,-16.33,3,2
18268.218,0.135,0.517,0.789,-17.46,13.52,-14.68,3,2
18268.234,0.142,0.534,0.772,-13.03,6.78,-14.13,3,2
18268.234,0.137,0.548,0.753,-11.9,1.83,-15.93,3,2
18268.25,0.123,0.556,0.752,-13.25,-1.62,-19.71,3,2
18268.265,0.132,0.59,0.759,-15.05,-2.5,-24.11,3,2
18268.265,0.13,0.633,0.763,-17.06,-0.43,-28.17,3,2
18268.281,0.135,0.653,0.777,-18.52,3.85,-28.6,3,2
18268.281,0.135,0.672,0.798,-17.73,10.04,-26.09,3,2
18268.296,0.109,0.676,0.817,-14.98,14.65,-21.03,3,2
18268.312,0.061,0.665,0.85,-14.34,13.76,-14.47,3,2
18268.312,0.022,0.692,0.902,-23.38,4.24,-9.64,3,2
18268.328,0.056,0.674,0.883,-32.32,-10.65,-6.16,3,2
18268.343,0.085,0.616,0.817,-37.69,-21.97,-4.18,3,2
18268.343,0.118,0.603,0.776,-44.31,-27.07,-1.31,3,2
18268.359,0.153,0.595,0.754,-47.46,-26.7,1.74,3,2
18268.375,0.175,0.548,0.745,-49.01,-23.1,2.93,3,2
18268.375,0.189,0.514,0.767,-54.05,-18.1,2.81,3,2
18268.39,0.193,0.489,0.808,-61.16,-15.02,1.65,3,2
18268.406,0.219,0.459,0.816,-61.13,-11.69,1.62,3,2
18268.406,0.214,0.437,0.828,-57.37,-6.23,2.81,3,2
18268.421,0.219,0.428,0.86,-54.57,-1.92,3.94,3,2
18268.421,0.219,0.406,0.884,-49.07,1.86,4.24,3,2
18268.437,0.196,0.39,0.916,-42.42,3.88,3.63,3,2
18268.453,0.193,0.39,0.946,-34.15,3.23,2.41,3,2
18268.468,0.18,0.394,0.96,-25.82,0.67,0.92,3,2
18268.468,0.163,0.405,0.962,-18.86,-4.12,-0.34,3,2
18268.484,0.158,0.422,0.949,-14.16,-9.7,-1.19,3,2
18268.484,0.16,0.426,0.924,-10.07,-13.86,-2.5,3,2
18268.5,0.16,0.432,0.892,-6.71,-16.69,-3.66,3,2
18268.515,0.165,0.442,0.862,-10.19,-20.23,-5.58,3,2
18268.515,0.173,0.45,0.882,-11.78,-23.47,-7.84,3,2
18268.531,0.182,0.437,0.879,-14.44,-24.54,-7.81,3,2
18268.546,0.205,0.437,0.873,-15.05,-24.93,-8.64,3,2
18268.546,0.213,0.428,0.866,-14.86,-24.99,-9.34,3,2
18268.562,0.222,0.417,0.861,-13.34,-24.51,-9.7,3,2
18268.562,0.226,0.42,0.867,-11.78,-23.62,-10.44,3,2
18268.578,0.235,0.427,0.875,-11.44,-23.22,-10.44,3,2
18268.593,0.237,0.431,0.882,-11.66,-23.44,-10.74,3,2
18268.609,0.244,0.404,0.867,-8.42,-22.83,-11.26,3,2
18268.609,0.258,0.4,0.861,-4.82,-21.03,-12.73,3,2
18268.625,0.258,0.424,0.856,-2.69,-18.8,-13.7,3,2
18268.625,0.261,0.429,0.834,0.31,-15.93,-13.52,3,2
18268.64,0.255,0.416,0.81,3.05,-11.87,-13.37,3,2
18268.656,0.248,0.423,0.805,2.17,-8.51,-14.62,3,2
18268.656,0.245,0.44,0.807,-2.75,-5.37,-16.51,3,2
18268.671,0.236,0.434,0.816,-7.69,-2.35,-18.34,3,2
18268.671,0.227,0.437,0.83,-10.22,0.46,-18.49,3,2
18268.687,0.226,0.449,0.839,-10.56,3.36,-16.88,3,2
18268.703,0.215,0.462,0.861,-8.97,6.5,-14.01,3,2
18268.718,0.191,0.469,0.889,-5.58,8.39,-9.74,3,2
18268.718,0.171,0.471,0.908,-2.78,8.0,-5.16,3,2
18268.734,0.161,0.46,0.917,-1.83,5.13,-1.95,3,2
18268.734,0.163,0.448,0.916,-2.08,0.64,-0.43,3,2
18268.75,0.174,0.442,0.906,-2.75,-4.12,0.64,3,2
18268.765,0.186,0.435,0.892,-2.69,-7.78,1.56,3,2
18268.765,0.197,0.433,0.881,-2.01,-9.34,1.98,3,2
18268.781,0.209,0.424,0.88,-1.01,-9.52,2.01,3,2
18268.781,0.208,0.427,0.879,0.79,-9.61,2.35,3,2
18268.796,0.211,0.435,0.878,1.98,-10.16,3.23,3,2
18268.812,0.214,0.432,0.882,-0.37,-11.96,2.5,3,2
18268.812,0.218,0.44,0.892,-2.23,-13.12,1.74,3,2
18268.828,0.221,0.449,0.881,1.07,-14.31,4.18,3,2
18268.843,0.229,0.468,0.877,3.02,-14.62,7.78,3,2
18268.843,0.223,0.48,0.873,5.19,-14.37,11.87,3,2
18268.859,0.228,0.47,0.865,6.62,-14.37,15.72,3,2
18268.875,0.232,0.47,0.85,6.26,-13.67,18.74,3,2
18268.875,0.24,0.462,0.833,4.97,-12.51,21.52,3,2
18268.89,0.248,0.444,0.822,3.72,-10.71,23.16,3,2
18268.89,0.263,0.433,0.813,2.29,-8.03,23.71,3,2
18268.906,0.278,0.419,0.803,0.82,-4.64,23.32,3,2
18268.921,0.287,0.4,0.804,-0.18,-0.49,21.52,3,2
18268.921,0.297,0.388,0.806,-0.58,3.75,18.43,3,2
18268.937,0.301,0.379,0.809,-0.79,8.45,14.77,3,2
18268.953,0.302,0.371,0.814,-1.22,13.55,11.17,3,2
18268.953,0.305,0.373,0.772,-2.32,19.81,8.21,3,2
18268.968,0.317,0.39,0.76,-5.62,29.39,6.59,3,2
18268.984,0.312,0.404,0.769,-5.31,41.38,5.89,3,2
18268.984,0.284,0.35,0.775,1.04,52.92,4.55,3,2
18269.0,0.175,0.426,0.913,-7.32,56.67,-0.03,3,2
18269.015,0.162,0.563,1.023,-26.58,47.43,-0.43,3,2
18269.015,0.103,0.44,1.018,-20.91,33.81,-4.24,3,2
18269.031,0.038,0.525,1.033,-36.19,12.76,-6.81,3,2
18269.031,0.147,0.479,0.984,-36.87,-5.4,-0.67,3,2
18269.046,0.15,0.424,0.891,-26.76,-14.8,1.19,3,2
18269.062,0.194,0.436,0.863,-24.41,-16.17,5.77,3,2
18269.062,0.215,0.424,0.867,-22.4,-14.19,9.61,3,2
18269.078,0.198,0.372,0.88,-18.52,-11.96,12.12,3,2
18269.093,0.2,0.339,0.91,-13.52,-12.33,12.54,3,2
18269.109,0.231,0.322,0.942,-6.16,-13.64,10.19,3,2
18269.109,0.248,0.29,0.946,0.67,-15.26,5.46,3,2
18269.125,0.237,0.3,0.941,3.72,-17.12,0.49,3,2
18269.125,0.221,0.317,0.961,5.52,-19.68,-2.38,3,2
18269.14,0.226,0.37,0.962,3.72,-24.87,-4.94,3,2
18269.156,0.287,0.305,0.872,16.11,-24.72,-4.18,3,2
18269.156,0.261,0.324,0.81,26.89,-18.59,-3.51,3,2
18269.171,0.264,0.413,0.856,22.55,-11.38,0.85,3,2
18269.171,0.262,0.432,0.849,21.7,-6.93,2.41,3,2
18269.187,0.262,0.382,0.805,25.57,-2.96,2.87,3,2
18269.203,0.256,0.442,0.813,19.87,1.43,4.3,3,2
18269.218,0.262,0.458,0.822,15.14,3.85,5.89,3,2
18269.218,0.25,0.442,0.824,9.49,4.73,5.55,3,2
18269.234,0.247,0.455,0.835,1.01,4.67,4.24,3,2
18269.234,0.247,0.45,0.849,-6.29,4.39,2.96,3,2
18269.25,0.238,0.431,0.869,-10.38,4.24,2.2,3,2
18269.265,0.228,0.424,0.892,-10.62,4.12,2.87,3,2
18269.265,0.223,0.412,0.903,-8.15,3.94,4.58,3,2
18269.281,0.216,0.395,0.9,-4.55,3.39,5.83,3,2
18269.281,0.216,0.384,0.894,-1.86,2.81,5.92,3,2
18269.296,0.218,0.375,0.889,-0.46,2.23,4.61,3,2
18269.312,0.223,0.365,0.889,0.27,1.8,2.66,3,2
18269.312,0.227,0.361,0.893,0.64,1.31,0.61,3,2
18269.328,0.234,0.364,0.897,1.86,0.67,-1.74,3,2
18269.343,0.241,0.373,0.893,3.97,0.03,-4.06,3,2
18269.359,0.244,0.387,0.888,5.19,-0.82,-5.89,3,2
18269.359,0.246,0.4,0.884,5.65,-1.65,-7.11,3,2
18269.375,0.245,0.408,0.876,6.04,-1.92,-7.84,3,2
18269.375,0.244,0.412,0.863,6.59,-1.83,-8.12,3,2
18269.39,0.246,0.425,0.852,6.53,-1.13,-7.75,3,2
18269.406,0.245,0.439,0.846,5.4,0.15,-6.99,3,2
18269.406,0.239,0.439,0.845,3.54,1.56,-6.16,3,2
18269.421,0.237,0.445,0.853,0.55,1.89,-5.55,3,2
18269.421,0.241,0.448,0.865,-3.54,1.16,-5.1,3,2
18269.437,0.239,0.438,0.87,-7.78,-0.12,-4.88,3,2
18269.453,0.24,0.428,0.883,-10.8,-1.59,-4.88,3,2
18269.453,0.241,0.425,0.893,-12.18,-2.96,-4.61,3,2
18269.468,0.237,0.416,0.893,-11.35,-3.6,-3.81,3,2
18269.484,0.236,0.398,0.886,-8.79,-3.27,-2.56,3,2
18269.484,0.239,0.385,0.877,-1.28,0.43,-1.1,3,2
18269.5,0.235,0.368,0.867,1.62,2.5,-1.71,3,2
18269.515,0.234,0.364,0.863,2.62,4.39,-2.96,3,2
18269.515,0.235,0.373,0.863,2.44,6.01,-4.79,3,2
18269.531,0.219,0.383,0.874,2.2,7.29,-5.86,3,2
18269.546,0.21,0.399,0.895,2.56,7.6,-5.92,3,2
18269.546,0.205,0.416,0.905,3.48,7.02,-5.07,3,2
18269.562,0.2,0.412,0.903,4.67,5.98,-3.72,3,2
18269.578,0.195,0.405,0.9,5.92,4.58,-2.32,3,2
18269.578,0.196,0.402,0.896,6.68,2.9,-1.37,3,2
18269.593,0.199,0.412,0.902,5.83,1.16,-1.31,3,2
18269.593,0.2,0.416,0.906,4.97,-1.4,-1.65,3,2
18269.609,0.202,0.411,0.901,5.25,-4.49,-1.5,3,2
18269.625,0.216,0.409,0.893,6.41,-6.9,-1.04,3,2
18269.625,0.231,0.416,0.889,7.48,-7.81,-1.31,3,2
18269.64,0.243,0.412,0.879,9.31,-7.78,-2.26,3,2
18269.656,0.251,0.402,0.868,11.63,-7.26,-3.57,3,2
18269.656,0.256,0.401,0.855,13.28,-6.32,-5.28,3,2
18269.671,0.257,0.409,0.85,13.79,-4.52,-7.29,3,2
18269.671,0.252,0.415,0.845,13.67,-2.23,-9.06,3,2
18269.687,0.24,0.418,0.846,13.73,0.03,-10.1,3,2
18269.703,0.225,0.424,0.849,14.98,2.35,-9.67,3,2
18269.703,0.208,0.443,0.861,15.47,4.21,-8.33,3,2
18269.718,0.192,0.462,0.879,13.95,4.09,-6.65,3,2
18269.734,0.182,0.471,0.892,11.14,1.77,-5.13,3,2
18269.734,0.182,0.47,0.884,8.58,-1.56,-3.78,3,2
18269.75,0.19,0.465,0.87,6.47,-4.36,-2.62,3,2
18269.765,0.202,0.462,0.861,4.61,-5.92,-1.86,3,2
18269.765,0.209,0.462,0.85,3.08,-6.38,-1.25,3,2
18269.781,0.218,0.457,0.837,1.71,-6.13,0.0,3,2
18269.781,0.23,0.457,0.831,0.4,-4.79,0.92,3,2
18269.796,0.233,0.454,0.832,-0.76,-2.66,1.28,3,2
18269.812,0.233,0.448,0.834,-1.59,-0.67,1.92,3,2
18269.812,0.232,0.444,0.839,-1.68,1.16,2.78,3,2
18269.828,0.229,0.44,0.851,-1.68,2.66,3.23,3,2
18269.843,0.222,0.438,0.867,-1.56,3.54,3.11,3,2
18269.843,0.215,0.434,0.877,-1.25,3.42,3.23,3,2
18269.859,0.205,0.426,0.884,-0.73,2.47,3.2,3,2
18269.875,0.198,0.419,0.893,0.15,0.73,2.93,3,2
18269.875,0.199,0.424,0.896,0.64,-1.62,2.47,3,2
18269.89,0.202,0.428,0.887,0.95,-4.12,1.98,3,2
18269.906,0.21,0.424,0.874,1.62,-5.77,1.68,3,2
18269.906,0.221,0.429,0.865,2.26,-6.44,1.71,3,2
18269.921,0.226,0.431,0.851,2.66,-5.46,1.28,3,2
18269.921,0.237,0.425,0.842,2.69,-3.48,0.43,3,2
18269.937,0.236,0.431,0.839,1.74,-1.89,-0.15,3,2
18269.953,0.24,0.434,0.844,0.0,-0.67,-0.85,3,2
18269.953,0.239,0.438,0.846,0.34,0.7,-1.19,3,2
18269.968,0.241,0.45,0.846,1.46,2.56,-0.12,3,2
18269.984,0.237,0.458,0.852,2.29,4.27,0.92,3,2
18269.984,0.227,0.46,0.861,2.96,4.91,1.65,3,2
18270.0,0.223,0.465,0.867,2.44,4.27,2.26,3,2
18270.015,0.219,0.465,0.865,1.46,3.14,2.56,3,2
18270.015,0.22,0.46,0.856,0.21,1.95,2.99,3,2
18270.031,0.223,0.458,0.85,-0.98,1.43,3.48,3,2
18270.031,0.226,0.455,0.848,-2.01,1.74,4.21,3,2
18270.046,0.225,0.453,0.855,-3.23,2.47,4.97,3,2
18270.062,0.225,0.454,0.861,-4.76,2.5,5.25,3,2
18270.078,0.225,0.44,0.859,-5.58,2.23,5.58,3,2
18270.078,0.225,0.429,0.861,-6.2,2.11,5.55,3,2
18270.093,0.227,0.422,0.867,-6.23,2.17,5.13,3,2
18270.093,0.224,0.42,0.874,-5.74,2.2,4.27,3,2
18270.109,0.218,0.412,0.873,-4.85,2.29,3.27,3,2
18270.125,0.213,0.405,0.875,-3.3,2.53,2.41,3,2
18270.125,0.204,0.407,0.883,-1.74,2.78,1.31,3,2
18270.14,0.196,0.407,0.891,0.27,2.17,0.4,3,2
18270.156,0.191,0.413,0.894,1.92,0.76,-0.31,3,2
18270.156,0.19,0.417,0.891,3.11,-1.04,-1.19,3,2
18270.171,0.192,0.422,0.888,4.36,-2.81,-1.5,3,2
18270.171,0.196,0.431,0.882,5.31,-4.43,-1.4,3,2
18270.187,0.205,0.44,0.875,5.86,-6.01,-1.04,3,2
18270.203,0.212,0.442,0.869,5.55,-7.17,-0.85,3,2
18270.218,0.22,0.447,0.868,4.85,-7.97,-0.79,3,2
18270.218,0.23,0.447,0.861,4.27,-8.39,-1.01,3,2
18270.234,0.235,0.439,0.848,4.24,-8.09,-1.59,3,2
18270.234,0.249,0.439,0.844,3.85,-6.99,-2.41,3,2
18270.25,0.249,0.446,0.841,3.36,-5.95,-3.2,3,2
18270.265,0.256,0.452,0.844,2.93,-4.61,-3.33,3,2
18270.265,0.26,0.453,0.847,2.59,-2.99,-3.78,3,2
18270.281,0.263,0.446,0.846,2.35,-1.13,-5.34,3,2
18270.296,0.261,0.444,0.847,2.47,0.95,-7.11,3,2
18270.296,0.246,0.438,0.841,2.38,2.93,-8.3,3,2
18270.312,0.222,0.45,0.863,1.25,4.79,-8.3,3,2
18270.312,0.211,0.48,0.905,0.79,5.19,-6.44,3,2
18270.328,0.216,0.47,0.923,0.03,2.38,-5.65,3,2
18270.343,0.204,0.459,0.901,-2.26,-1.59,-6.23,3,2
18270.343,0.259,0.411,0.839,0.24,-3.11,-5.07,3,2
18270.359,0.183,0.357,0.852,6.78,0.27,-5.8,3,2
18270.375,0.164,0.5,0.93,-6.78,-2.9,-5.86,3,2
18270.375,0.213,0.425,0.871,-2.99,-8.94,-4.61,3,2
18270.39,0.194,0.404,0.8,-0.03,-9.77,-6.32,3,2
18270.406,0.214,0.462,0.792,-2.29,-7.32,-4.91,3,2
18270.406,0.212,0.461,0.789,-1.43,-3.85,-3.08,3,2
18270.421,0.198,0.454,0.82,-3.11,-0.4,-1.16,3,2
18270.437,0.184,0.473,0.86,-5.46,0.52,0.43,3,2
18270.437,0.188,0.461,0.879,-4.06,-0.58,1.8,3,2
18270.453,0.193,0.423,0.891,-0.43,-2.08,2.93,3,2
18270.453,0.202,0.414,0.904,4.18,-3.6,3.54,3,2
18270.468,0.201,0.417,0.917,15.14,-6.96,5.55,3,2
18270.484,0.204,0.415,0.919,19.14,-8.51,7.17,3,2
18270.484,0.2,0.425,0.912,21.91,-10.01,8.58,3,2
18270.5,0.201,0.444,0.896,23.56,-11.93,10.07,3,2
18270.515,0.204,0.526,0.874,18.62,-16.88,12.05,3,2
18270.515,0.275,0.452,0.769,20.57,-18.65,12.82,3,2
18270.531,0.241,0.491,0.745,13.95,-14.62,10.28,3,2
18270.546,0.266,0.552,0.785,1.83,-11.54,11.51,3,2
18270.546,0.268,0.525,0.787,-3.91,-9.86,12.45,3,2
18270.562,0.266,0.519,0.772,-9.7,-7.45,14.04,3,2
18270.562,0.298,0.505,0.763,-15.41,-4.76,15.2,3,2
18270.578,0.298,0.472,0.764,-20.48,-0.46,13.52,3,2
18270.593,0.297,0.449,0.781,-22.8,5.1,13.15,3,2
18270.593,0.295,0.433,0.8,-23.5,10.07,13.28,3,2
18270.609,0.292,0.418,0.821,-22.77,14.5,12.7,3,2
18270.625,0.285,0.407,0.851,-21.12,17.88,11.9,3,2
18270.625,0.271,0.403,0.879,-18.86,19.75,10.47,3,2
18270.64,0.255,0.402,0.9,-15.96,20.17,9.4,3,2
18270.64,0.236,0.401,0.913,-12.15,19.47,8.73,3,2
18270.656,0.219,0.397,0.919,-7.6,18.13,8.51,3,2
18270.671,0.205,0.399,0.918,-4.21,15.32,8.0,3,2
18270.687,0.201,0.406,0.928,-3.97,10.8,6.26,3,2
18270.687,0.196,0.404,0.923,-3.75,6.35,4.67,3,2
18270.703,0.201,0.396,0.905,-2.81,2.99,3.63,3,2
18270.703,0.205,0.391,0.889,-1.62,0.95,3.11,3,2
18270.718,0.208,0.387,0.874,-0.4,0.64,2.59,3,2
18270.734,0.212,0.381,0.869,0.31,1.46,1.68,3,2
18270.734,0.213,0.389,0.876,0.61,2.01,0.46,3,2
18270.75,0.212,0.401,0.885,1.37,1.71,-0.52,3,2
18270.765,0.213,0.416,0.891,2.75,0.95,-1.07,3,2
18270.765,0.215,0.428,0.893,4.09,-0.31,-1.25,3,2
18270.781,0.221,0.431,0.896,5.49,-2.01,-1.43,3,2
18270.781,0.225,0.435,0.893,6.62,-4.06,-1.65,3,2
18270.796,0.233,0.435,0.884,7.6,-6.2,-2.32,3,2
18270.812,0.243,0.433,0.869,7.39,-8.36,-3.91,3,2
18270.812,0.25,0.44,0.858,4.73,-9.95,-5.83,3,2
18270.828,0.257,0.44,0.844,3.02,-10.35,-6.9,3,2
18270.843,0.26,0.44,0.829,2.14,-8.97,-6.87,3,2
18270.843,0.26,0.442,0.819,1.62,-6.23,-6.32,3,2
18270.859,0.259,0.443,0.819,0.98,-2.84,-5.37,3,2
18270.875,0.257,0.444,0.829,-0.49,0.12,-4.46,3,2
18270.875,0.251,0.445,0.836,-2.32,2.35,-3.42,3,2
18270.89,0.244,0.441,0.851,-4.06,4.0,-2.53,3,2
18270.906,0.237,0.435,0.869,-5.22,4.52,-1.8,3,2
18270.906,0.229,0.425,0.886,-5.46,4.12,-1.31,3,2
18270.921,0.224,0.423,0.894,-5.13,2.72,-1.22,3,2
18270.921,0.223,0.419,0.896,-4.82,0.52,-2.14,3,2
18270.937,0.224,0.408,0.888,-3.69,-1.31,-3.48,3,2
18270.953,0.227,0.401,0.879,-1.95,-2.32,-4.58,3,2
18270.953,0.231,0.406,0.871,-0.12,-2.44,-5.46,3,2
18270.968,0.228,0.408,0.862,1.59,-1.56,-6.13,3,2
18270.984,0.226,0.41,0.856,3.11,-0.24,-6.29,3,2
18270.984,0.221,0.415,0.856,4.24,1.19,-5.89,3,2
18271.0,0.215,0.424,0.861,4.46,2.23,-6.07,3,2
18271.0,0.207,0.434,0.871,3.81,2.29,-6.16,3,2
18271.015,0.202,0.435,0.88,2.9,1.34,-6.32,3,2
18271.031,0.199,0.433,0.882,2.47,-0.09,-6.62,3,2
18271.031,0.202,0.438,0.88,1.74,-1.71,-6.71,3,2
18271.046,0.21,0.44,0.878,1.46,-3.11,-6.56,3,2
18271.062,0.214,0.438,0.874,1.71,-4.03,-5.74,3,2
18271.062,0.222,0.439,0.867,2.17,-4.49,-5.1,3,2
18271.078,0.233,0.44,0.86,2.47,-4.7,-4.76,3,2
18271.093,0.235,0.439,0.86,2.78,-4.3,-4.39,3,2
18271.093,0.236,0.44,0.863,2.96,-3.94,-4.27,3,2
18271.109,0.241,0.444,0.868,2.84,-4.52,-4.94,3,2
18271.125,0.236,0.45,0.866,2.23,-5.58,-5.92,3,2
18271.125,0.235,0.446,0.861,0.67,-6.38,-7.05,3,2
18271.14,0.235,0.433,0.854,-1.62,-6.96,-8.42,3,2
18271.14,0.232,0.428,0.856,-5.1,-7.45,-10.41,3,2
18271.156,0.231,0.426,0.856,-5.22,-6.87,-10.28,3,2
18271.171,0.232,0.436,0.848,-3.39,-5.16,-8.15,3,2
18271.171,0.228,0.443,0.853,-1.71,-2.59,-6.04,3,2
18271.187,0.221,0.441,0.86,1.22,-0.12,-3.45,3,2
18271.203,0.216,0.449,0.864,3.51,1.8,-0.52,3,2
18271.203,0.215,0.448,0.87,3.88,2.56,1.37,3,2
18271.218,0.213,0.439,0.871,3.2,1.8,1.98,3,2
18271.234,0.215,0.436,0.868,2.75,0.61,2.08,3,2
18271.234,0.218,0.442,0.862,1.92,-0.18,1.95,3,2
18271.25,0.219,0.439,0.856,1.13,-0.55,1.68,3,2
18271.265,0.219,0.436,0.851,0.55,-0.43,1.53,3,2
18271.265,0.22,0.434,0.854,-0.06,0.34,1.5,3,2
18271.281,0.22,0.432,0.86,-0.67,0.73,0.98,3,2
18271.281,0.218,0.43,0.864,-1.04,0.79,0.34,3,2
18271.296,0.218,0.428,0.868,-0.61,0.85,-0.21,3,2
18271.312,0.219,0.429,0.873,-0.18,0.49,-0.52,3,2
18271.312,0.215,0.427,0.876,0.4,-0.21,-1.13,3,2
18271.328,0.219,0.427,0.878,0.58,-1.43,-2.2,3,2
18271.343,0.225,0.428,0.875,0.89,-2.59,-3.2,3,2
18271.359,0.232,0.429,0.873,1.89,-3.3,-3.97,3,2
18271.359,0.238,0.435,0.866,3.05,-3.48,-4.67,3,2
18271.359,0.243,0.439,0.857,4.12,-3.27,-5.37,3,2
18271.375,0.244,0.448,0.853,5.19,-2.29,-5.25,3,2
18271.39,0.247,0.45,0.851,6.16,-1.13,-5.13,3,2
18271.406,0.244,0.452,0.852,6.96,0.4,-5.22,3,2
18271.406,0.238,0.457,0.855,7.35,1.77,-6.01,3,2
18271.421,0.226,0.459,0.865,6.56,2.62,-7.02,3,2
18271.437,0.214,0.464,0.868,4.43,2.04,-8.03,3,2
18271.437,0.203,0.464,0.876,2.69,0.46,-7.97,3,2
18271.453,0.207,0.461,0.866,2.84,-0.24,-5.74,3,2
18271.453,0.21,0.454,0.844,4.55,2.38,0.43,3,2
18271.468,0.207,0.453,0.824,4.18,5.92,4.58,3,2
18271.484,0.207,0.468,0.808,2.66,10.04,8.67,3,2
18271.484,0.266,0.463,0.743,0.85,15.81,11.93,3,2
18271.5,0.169,0.442,0.816,-1.34,23.38,12.09,3,2
18271.5,0.092,0.615,0.944,-16.82,19.84,15.11,3,2
18271.515,0.212,0.529,0.93,-18.95,8.94,18.71,3,2
18271.531,0.167,0.454,0.868,-22.25,2.78,12.79,3,2
18271.546,0.167,0.416,0.878,-28.02,-1.5,12.76,3,2
18271.546,0.205,0.417,0.887,-24.48,-4.58,14.4,3,2
18271.562,0.198,0.412,0.88,-20.54,-5.43,14.4,3,2
18271.578,0.196,0.409,0.906,-20.39,-6.56,14.44,3,2
18271.578,0.194,0.389,0.918,-15.9,-7.9,14.62,3,2
18271.593,0.193,0.363,0.924,-8.33,-9.46,14.86,3,2
18271.593,0.215,0.355,0.92,-0.43,-10.93,14.25,3,2
18271.609,0.23,0.325,0.913,7.39,-11.66,11.44,3,2
18271.625,0.234,0.31,0.919,13.79,-12.85,6.44,3,2
18271.625,0.238,0.357,0.921,17.33,-15.11,2.17,3,2
18271.64,0.233,0.382,0.93,20.29,-17.64,0.0,3,2
18271.656,0.209,0.417,0.917,16.21,-23.77,-1.86,3,2
18271.656,0.304,0.432,0.826,16.66,-27.07,-1.43,3,2
18271.671,0.287,0.368,0.761,29.6,-19.01,1.16,3,2
18271.687,0.259,0.482,0.787,24.29,-11.84,3.11,3,2
18271.687,0.263,0.545,0.808,19.47,-7.32,9.13,3,2
18271.703,0.292,0.475,0.781,14.77,-5.65,8.51,3,2
18271.703,0.275,0.46,0.762,5.16,-3.97,2.78,3,2
18271.718,0.274,0.506,0.78,-5.31,-0.31,0.73,3,2
18271.734,0.292,0.479,0.798,-10.41,2.59,0.09,3,2
18271.734,0.279,0.438,0.809,-12.97,5.98,-1.65,3,2
18271.75,0.266,0.43,0.844,-13.98,9.06,-1.92,3,2
18271.765,0.254,0.44,0.893,-12.12,10.59,-1.04,3,2
18271.765,0.24,0.424,0.917,-7.02,9.8,0.31,3,2
18271.781,0.228,0.412,0.921,-1.77,7.9,1.31,3,2
18271.781,0.226,0.41,0.917,2.29,5.46,1.5,3,2
18271.796,0.224,0.411,0.903,5.58,2.69,1.43,3,2
18271.812,0.225,0.416,0.875,7.48,0.37,1.37,3,2
18271.812,0.225,0.42,0.85,7.48,-0.21,1.22,3,2
18271.828,0.224,0.421,0.833,5.95,0.64,1.01,3,2
18271.843,0.223,0.425,0.827,4.18,2.29,0.61,3,2
18271.843,0.226,0.43,0.829,2.96,4.58,0.15,3,2
18271.859,0.228,0.435,0.837,1.95,6.56,-0.03,3,2
18271.875,0.224,0.438,0.848,1.56,8.39,0.34,3,2
18271.875,0.223,0.441,0.866,2.14,9.4,0.7,3,2
18271.89,0.222,0.445,0.879,3.23,9.09,0.67,3,2
18271.906,0.216,0.449,0.888,3.6,7.48,0.37,3,2
18271.906,0.21,0.44,0.896,3.6,4.82,-0.24,3,2
18271.921,0.213,0.44,0.908,3.48,0.73,-1.59,3,2
18271.921,0.217,0.451,0.912,2.96,-4.21,-3.39,3,2
18271.937,0.22,0.454,0.895,2.04,-8.94,-4.67,3,2
18271.953,0.23,0.45,0.87,1.74,-12.05,-5.19,3,2
18271.968,0.24,0.449,0.845,1.92,-12.91,-5.04,3,2
18271.968,0.25,0.454,0.828,2.23,-11.87,-4.27,3,2
18271.984,0.258,0.457,0.817,2.2,-9.37,-2.99,3,2
18271.984,0.262,0.459,0.81,1.92,-6.13,-1.68,3,2
18272.0,0.263,0.46,0.809,1.37,-2.84,-0.12,3,2
18272.015,0.263,0.465,0.818,0.0,0.55,1.07,3,2
18272.015,0.251,0.459,0.831,-1.68,3.3,1.56,3,2
18272.031,0.244,0.453,0.846,-3.2,4.64,1.86,3,2
18272.031,0.236,0.447,0.858,-4.12,4.91,2.01,3,2
18272.046,0.233,0.441,0.867,-4.58,4.79,2.35,3,2
18272.062,0.229,0.435,0.873,-4.18,4.49,2.47,3,2
18272.062,0.222,0.429,0.878,-2.5,3.91,2.75,3,2
18272.078,0.221,0.431,0.88,-0.89,2.93,2.87,3,2
18272.093,0.22,0.432,0.875,0.09,1.86,2.59,3,2
18272.093,0.218,0.427,0.87,0.49,1.22,2.14,3,2
18272.109,0.215,0.421,0.868,0.85,0.73,1.59,3,2
18272.125,0.215,0.422,0.87,1.13,0.09,1.07,3,2
18272.125,0.215,0.423,0.873,1.59,-0.4,0.64,3,2
18272.14,0.214,0.423,0.877,2.35,-0.95,0.49,3,2
18272.156,0.216,0.428,0.883,3.75,-1.83,0.34,3,2
18272.156,0.223,0.432,0.885,5.43,-2.99,0.0,3,2
18272.171,0.229,0.433,0.875,7.11,-3.88,-0.64,3,2
18272.187,0.237,0.433,0.862,8.51,-4.49,-1.04,3,2
18272.187,0.244,0.435,0.848,9.43,-4.24,-1.62,3,2
18272.203,0.246,0.441,0.84,9.8,-3.78,-2.44,3,2
18272.203,0.249,0.456,0.838,9.09,-3.54,-3.33,3,2
18272.218,0.249,0.466,0.834,7.51,-3.02,-4.06,3,2
18272.234,0.248,0.468,0.833,5.89,-2.5,-4.49,3,2
18272.234,0.25,0.479,0.833,4.73,-1.83,-4.3,3,2
18272.25,0.252,0.489,0.828,4.03,-1.25,-3.51,3,2
18272.265,0.251,0.493,0.824,3.02,-0.37,-2.17,3,2
18272.265,0.25,0.487,0.822,1.43,0.95,-0.7,3,2
18272.281,0.245,0.477,0.819,-0.43,2.47,0.37,3,2
18272.281,0.24,0.467,0.827,-2.69,3.97,0.92,3,2
18272.296,0.235,0.459,0.843,-4.55,5.01,1.46,3,2
18272.312,0.228,0.456,0.859,-4.97,5.37,2.2,3,2
18272.312,0.223,0.449,0.87,-3.85,5.25,3.14,3,2
18272.328,0.217,0.447,0.876,-2.47,4.94,3.91,3,2
18272.343,0.216,0.443,0.875,-0.82,4.46,4.43,3,2
18272.343,0.218,0.435,0.869,1.01,3.94,4.73,3,2
18272.359,0.219,0.434,0.862,2.59,3.85,5.07,3,2
18272.375,0.221,0.431,0.857,3.94,4.36,5.07,3,2
18272.375,0.222,0.424,0.855,5.04,5.07,4.52,3,2
18272.39,0.222,0.422,0.859,5.74,6.01,3.91,3,2
18272.406,0.218,0.425,0.867,6.26,6.2,2.96,3,2
18272.406,0.214,0.433,0.874,6.26,4.94,1.77,3,2
18272.421,0.213,0.441,0.878,6.07,2.96,0.4,3,2
18272.421,0.207,0.447,0.878,6.01,0.82,-1.07,3,2
18272.437,0.206,0.459,0.874,5.83,-3.39,-2.47,3,2
18272.453,0.207,0.463,0.866,5.71,-4.94,-2.62,3,2
18272.453,0.208,0.47,0.86,5.16,-6.16,-2.41,3,2
18272.468,0.214,0.475,0.853,4.49,-6.99,-1.92,3,2
18272.484,0.227,0.478,0.84,3.72,-7.32,-1.53,3,2
18272.484,0.236,0.477,0.833,2.96,-7.42,-1.16,3,2
18272.5,0.244,0.476,0.83,2.23,-7.11,-1.07,3,2
18272.515,0.249,0.477,0.825,1.13,-6.07,-1.28,3,2
18272.515,0.253,0.48,0.824,-0.12,-5.04,-1.37,3,2
18272.531,0.252,0.48,0.823,-1.68,-4.12,-1.16,3,2
18272.531,0.253,0.48,0.827,-3.14,-2.96,-0.46,3,2
18272.546,0.248,0.474,0.831,-4.33,-1.59,0.18,3,2
18272.562,0.244,0.466,0.834,-5.31,-0.15,0.73,3,2
18272.562,0.239,0.46,0.842,-5.98,1.19,1.28,3,2
18272.578,0.23,0.454,0.848,-5.68,1.98,2.01,3,2
18272.593,0.227,0.448,0.854,-4.7,2.44,2.84,3,2
18272.593,0.226,0.452,0.86,-3.66,2.5,3.2,3,2
18272.609,0.221,0.451,0.864,-2.78,2.47,3.2,3,2
18272.625,0.217,0.449,0.863,-2.01,2.29,3.11,3,2
18272.64,0.217,0.448,0.86,-1.53,1.83,3.14,3,2
18272.64,0.217,0.446,0.855,-0.89,1.43,3.27,3,2
18272.656,0.216,0.445,0.855,-0.73,1.22,3.23,3,2
18272.656,0.219,0.448,0.857,-1.07,1.01,3.05,3,2
18272.671,0.219,0.445,0.859,-1.37,0.89,2.81,3,2
18272.671,0.22,0.444,0.864,-1.07,0.55,2.69,3,2
18272.687,0.223,0.446,0.866,-0.43,0.12,2.69,3,2
18272.703,0.224,0.444,0.864,0.64,-0.46,2.59,3,2
18272.718,0.222,0.442,0.865,1.56,-1.28,2.23,3,2
18272.718,0.222,0.445,0.871,2.08,-2.41,1.43,3,2
18272.734,0.226,0.451,0.87,2.17,-4.03,0.34,3,2
18272.734,0.231,0.451,0.857,2.11,-5.37,-0.73,3,2
18272.75,0.237,0.454,0.85,2.23,-6.01,-1.4,3,2
18272.765,0.244,0.459,0.84,2.75,-5.71,-1.62,3,2
18272.765,0.246,0.465,0.832,2.99,-4.67,-1.65,3,2
18272.781,0.248,0.472,0.829,2.75,-3.39,-1.31,3,2
18272.781,0.248,0.478,0.826,2.2,-2.08,-0.67,3,2
18272.796,0.247,0.479,0.824,1.01,-0.79,0.03,3,2
18272.812,0.243,0.478,0.827,-0.89,0.37,0.55,3,2
18272.812,0.239,0.474,0.836,-2.87,1.13,1.13,3,2
18272.828,0.233,0.471,0.842,-4.82,1.16,1.8,3,2
18272.843,0.232,0.464,0.85,-6.1,1.01,2.62,3,2
18272.843,0.235,0.458,0.855,-7.02,0.82,3.14,3,2
18272.859,0.232,0.453,0.859,-6.99,0.95,3.81,3,2
18272.875,0.23,0.446,0.86,-5.92,0.89,4.58,3,2
18272.875,0.228,0.441,0.861,-4.64,1.31,5.4,3,2
18272.89,0.227,0.438,0.859,-3.2,1.59,5.95,3,2
18272.89,0.227,0.44,0.857,-2.41,1.74,6.04,3,2
18272.906,0.228,0.442,0.863,-2.38,1.68,5.83,3,2
18272.921,0.229,0.442,0.869,-2.47,1.16,5.55,3,2
18272.937,0.228,0.445,0.87,-2.62,0.12,5.1,3,2
18272.937,0.229,0.443,0.874,-2.41,-1.19,4.7,3,2
18272.953,0.232,0.441,0.871,-1.65,-2.41,4.24,3,2
18272.953,0.233,0.442,0.867,-0.76,-3.51,3.72,3,2
18272.968,0.234,0.444,0.866,0.15,-4.12,3.54,3,2
18272.984,0.235,0.448,0.865,1.19,-4.43,3.6,3,2
18272.984,0.232,0.449,0.863,2.66,-4.76,4.09,3,2
18273.0,0.228,0.447,0.861,4.21,-5.07,4.82,3,2
18273.015,0.228,0.443,0.862,5.25,-4.91,5.31,3,2
18273.015,0.223,0.443,0.864,5.74,-5.19,5.37,3,2
18273.031,0.213,0.446,0.871,5.68,-6.35,5.68,3,2
18273.031,0.215,0.452,0.884,5.37,-8.94,7.11,3,2
18273.046,0.225,0.474,0.886,5.46,-11.75,7.51,3,2
18273.062,0.219,0.479,0.885,4.52,-14.65,7.81,3,2
18273.062,0.229,0.486,0.881,3.2,-18.4,9.13,3,2
18273.078,0.241,0.496,0.869,2.04,-22.28,10.59,3,2
18273.093,0.249,0.502,0.861,0.7,-25.76,12.09,3,2
18273.093,0.267,0.511,0.858,-1.13,-28.87,14.34,3,2
18273.109,0.275,0.515,0.868,-2.75,-31.56,17.21,3,2
18273.125,0.282,0.51,0.874,-2.69,-34.46,21.06,3,2
18273.125,0.287,0.498,0.87,-2.47,-37.84,25.15,3,2
18273.14,0.292,0.48,0.852,-2.17,-40.62,28.23,3,2
18273.156,0.294,0.461,0.849,-3.3,-42.51,29.97,3,2
18273.156,0.3,0.441,0.833,-5.71,-44.53,29.66,3,2
18273.171,0.304,0.419,0.833,-9.43,-45.93,28.08,3,2
18273.187,0.303,0.398,0.84,-13.49,-47.27,26.18,3,2
18273.187,0.315,0.375,0.845,-16.39,-48.62,23.41,3,2
18273.203,0.311,0.364,0.839,-17.76,-49.1,19.56,3,2
18273.218,0.312,0.363,0.858,-18.19,-48.77,17.06,3,2
18273.218,0.309,0.341,0.868,-13.95,-49.53,14.86,3,2
18273.234,0.314,0.357,0.876,-9.06,-51.09,13.52,3,2
18273.234,0.317,0.392,0.887,-4.46,-52.37,13.37,3,2
18273.25,0.314,0.401,0.889,0.73,-54.41,14.5,3,2
18273.265,0.318,0.408,0.887,4.88,-57.74,17.43,3,2
18273.265,0.334,0.432,0.876,7.97,-61.92,21.42,3,2
18273.281,0.345,0.451,0.855,10.86,-65.07,24.81,3,2
18273.281,0.336,0.449,0.838,11.96,-67.32,28.72,3,2
18273.296,0.361,0.454,0.818,11.23,-70.25,33.94,3,2
18273.312,0.39,0.459,0.774,8.94,-72.05,37.69,3,2
18273.312,0.416,0.448,0.736,3.72,-71.63,39.61,3,2
18273.328,0.44,0.44,0.711,-3.05,-69.4,39.8,3,2
18273.343,0.459,0.431,0.685,-9.16,-66.41,38.48,3,2
18273.359,0.485,0.413,0.67,-15.11,-62.38,37.66,3,2
18273.359,0.516,0.405,0.666,-19.65,-56.52,36.81,3,2
18273.375,0.538,0.391,0.667,-21.33,-50.29,35.92,3,2
18273.375,0.559,0.366,0.67,-20.33,-44.65,35.83,3,2
18273.39,0.589,0.359,0.683,-17.09,-40.04,36.81,3,2
18273.406,0.617,0.356,0.686,-12.39,-35.68,36.62,3,2
18273.406,0.625,0.346,0.685,-8.48,-30.79,35.65,3,2
18273.421,0.637,0.347,0.687,-5.89,-26.18,34.3,3,2
18273.437,0.64,0.355,0.679,-4.52,-18.4,28.99,3,2
18273.437,0.64,0.347,0.68,-7.26,-14.95,24.05,3,2
18273.453,0.627,0.34,0.689,-11.29,-13.76,19.04,3,2
18273.453,0.597,0.354,0.721,-15.93,-14.65,16.14,3,2
18273.468,0.586,0.361,0.744,-21.09,-16.02,15.05,3,2
18273.484,0.571,0.36,0.782,-24.2,-18.43,16.02,3,2
18273.484,0.554,0.359,0.806,-24.05,-22.19,19.41,3,2
18273.5,0.537,0.348,0.808,-21.36,-26.03,24.99,3,2
18273.515,0.529,0.337,0.8,-17.79,-29.76,30.55,3,2
18273.515,0.511,0.313,0.787,-15.2,-33.72,35.31,3,2
18273.531,0.552,0.312,0.765,-13.49,-36.16,38.94,3,2
18273.546,0.537,0.307,0.741,-12.54,-35.04,38.97,3,2
18273.546,0.525,0.284,0.748,-14.44,-34.42,41.26,3,2
18273.562,0.539,0.285,0.756,-16.08,-35.0,44.62,3,2
18273.562,0.561,0.29,0.757,-15.99,-35.1,47.27,3,2
18273.578,0.576,0.28,0.77,-14.53,-34.36,49.87,3,2
18273.593,0.589,0.27,0.798,-9.58,-34.06,53.59,3,2
18273.593,0.605,0.263,0.822,0.4,-34.55,59.02,3,2
18273.609,0.633,0.255,0.802,13.43,-34.97,65.13,3,2
18273.625,0.66,0.253,0.761,23.47,-34.03,68.48,3,2
18273.625,0.679,0.254,0.727,26.22,-32.01,67.78,3,2
18273.64,0.692,0.264,0.719,22.19,-29.15,63.75,3,2
18273.656,0.68,0.272,0.739,16.02,-24.96,58.57,3,2
18273.656,0.668,0.278,0.744,10.65,-20.97,55.79,3,2
18273.671,0.652,0.272,0.751,8.97,-16.57,52.06,3,2
18273.687,0.635,0.318,0.807,16.14,-9.64,39.77,3,2
18273.687,0.627,0.317,0.794,28.69,-3.17,23.35,3,2
18273.703,0.652,0.388,0.824,44.71,8.88,0.15,3,2
18273.703,0.648,0.485,0.83,52.25,18.71,-3.2,3,2
18273.718,0.568,0.534,0.825,47.76,26.06,-0.58,3,2
18273.734,0.56,0.544,0.843,34.18,20.17,10.65,3,2
18273.734,0.584,0.501,0.834,19.04,9.74,26.15,3,2
18273.75,0.619,0.449,0.808,2.38,-1.68,39.28,3,2
18273.765,0.669,0.369,0.785,-13.25,-12.09,46.42,3,2
18273.781,0.716,0.3,0.775,-23.9,-19.01,46.91,3,2
18273.781,0.723,0.258,0.768,-26.25,-22.92,42.42,3,2
18273.781,0.711,0.211,0.749,-20.75,-26.92,36.81,3,2
18273.796,0.718,0.188,0.731,-9.7,-29.69,32.59,3,2
18273.812,0.719,0.194,0.71,4.61,-29.05,28.5,3,2
18273.812,0.706,0.218,0.697,18.16,-25.91,24.41,3,2
18273.828,0.679,0.237,0.676,28.57,-22.58,22.52,3,2
18273.843,0.667,0.246,0.655,34.12,-20.2,24.26,3,2
18273.859,0.656,0.269,0.648,36.19,-17.12,28.6,3,2
18273.859,0.643,0.268,0.622,35.65,-14.28,34.61,3,2
18273.875,0.653,0.27,0.601,30.4,-11.72,41.96,3,2
18273.875,0.663,0.271,0.598,21.67,-7.45,48.55,3,2
18273.89,0.669,0.25,0.594,13.15,-1.46,53.87,3,2
18273.906,0.664,0.23,0.593,5.58,5.86,58.41,3,2
18273.906,0.656,0.228,0.603,-2.17,12.67,62.9,3,2
18273.921,0.652,0.219,0.622,-7.78,18.89,67.96,3,2
18273.921,0.635,0.2,0.644,-10.32,24.54,73.58,3,2
18273.937,0.611,0.185,0.664,-10.1,29.02,80.84,3,2
18273.953,0.612,0.164,0.654,-8.73,32.56,89.33,3,2
18273.953,0.627,0.156,0.64,-9.74,38.09,97.02,3,2
18273.968,0.635,0.152,0.641,-14.83,46.54,102.57,3,2
18273.984,0.626,0.146,0.643,-23.77,56.4,105.04,3,2
18273.984,0.599,0.129,0.64,-34.94,65.58,107.43,3,2
18274.0,0.567,0.131,0.653,-48.55,73.46,110.54,3,2
18274.015,0.535,0.149,0.683,-63.3,77.58,114.08,3,2
18274.015,0.517,0.112,0.72,-75.11,77.24,118.9,3,2
18274.031,0.512,0.052,0.757,-82.16,76.45,124.42,3,2
18274.031,0.522,-0.026,0.786,-83.01,76.94,129.55,3,2
18274.046,0.546,-0.1,0.802,-78.07,79.96,133.67,3,2
18274.062,0.559,-0.143,0.808,-70.83,87.1,135.9,3,2
18274.062,0.536,-0.19,0.804,-64.27,94.39,135.23,3,2
18274.078,0.529,-0.229,0.805,-60.37,100.28,133.46,3,2
18274.093,0.509,-0.246,0.818,-58.84,106.36,131.5,3,2
18274.093,0.479,-0.286,0.842,-58.6,109.81,129.92,3,2
18274.109,0.465,-0.325,0.874,-59.48,109.68,128.54,3,2
18274.125,0.461,-0.356,0.897,-60.52,107.94,126.8,3,2
18274.125,0.459,-0.387,0.911,-60.85,105.5,124.55,3,2
18274.14,0.462,-0.416,0.935,-61.1,104.28,121.49,3,2
18274.156,0.464,-0.446,0.951,-60.52,105.23,117.74,3,2
18274.156,0.454,-0.472,0.953,-59.11,107.39,112.64,3,2
18274.171,0.439,-0.48,0.96,-57.86,110.97,106.63,3,2
18274.187,0.397,-0.468,0.979,-57.71,111.64,100.34,3,2
18274.187,0.377,-0.481,0.981,-57.25,107.43,97.08,3,2
18274.203,0.346,-0.501,0.976,-55.02,101.35,93.11,3,2
18274.218,0.316,-0.51,0.986,-55.3,90.43,88.96,3,2
18274.218,0.302,-0.54,0.964,-56.95,74.74,86.46,3,2
18274.234,0.31,-0.58,0.911,-58.84,58.26,84.57,3,2
18274.234,0.343,-0.633,0.864,-59.36,44.25,83.07,3,2
18274.25,0.37,-0.686,0.814,-57.13,34.67,80.87,3,2
18274.265,0.39,-0.696,0.756,-55.12,28.78,76.94,3,2
18274.265,0.411,-0.699,0.682,-54.05,26.58,71.78,3,2
18274.281,0.425,-0.723,0.611,-56.03,27.62,65.37,3,2
18274.296,0.434,-0.759,0.579,-57.92,31.59,58.75,3,2
18274.296,0.414,-0.792,0.569,-58.47,36.07,52.58,3,2
18274.312,0.389,-0.83,0.552,-60.43,36.65,47.24,3,2
18274.312,0.379,-0.861,0.532,-64.73,35.07,43.09,3,2
18274.328,0.376,-0.88,0.526,-71.41,32.07,37.26,3,2
18274.343,0.382,-0.907,0.527,-78.34,26.49,29.08,3,2
18274.343,0.397,-0.938,0.523,-83.9,19.87,20.39,3,2
18274.359,0.414,-0.967,0.52,-86.28,15.2,13.52,3,2
18274.375,0.417,-0.988,0.522,-85.73,12.76,8.61,3,2
18274.375,0.42,-1.002,0.527,-84.14,9.58,5.46,3,2
18274.39,0.411,-1.02,0.515,-82.98,5.68,3.57,3,2
18274.39,0.385,-1.009,0.462,-86.25,0.64,1.16,3,2
18274.406,0.392,-1.02,0.427,-97.02,-11.11,-0.95,3,2
18274.421,0.422,-1.053,0.408,-94.52,-12.54,-1.98,3,2
18274.437,0.43,-1.058,0.387,-88.29,-13.25,-4.7,3,2
18274.437,0.431,-1.037,0.367,-81.51,-14.22,-7.54,3,2
18274.453,0.393,-1.015,0.359,-76.48,-15.96,-10.47,3,2
18274.453,0.33,-0.993,0.338,-73.18,-22.92,-14.56,3,2
18274.468,0.297,-0.98,0.307,-70.93,-32.44,-15.63,3,2
18274.484,0.287,-0.942,0.245,-67.42,-40.35,-15.56,3,2
18274.484,0.227,-0.908,0.15,-64.03,-46.3,-16.27,3,2
18274.5,0.337,-0.774,0.057,-62.07,-50.51,-17.49,3,2
18274.515,0.365,-0.641,-0.042,-56.52,-37.78,-23.1,3,2
18274.515,0.358,-0.608,-0.113,-56.95,-15.63,-25.85,3,2
18274.531,0.396,-0.523,-0.096,-71.2,9.49,-24.35,3,2
18274.531,0.397,-0.459,0.0,-92.87,39.77,-21.03,3,2
18274.546,0.355,-0.461,0.121,-116.06,70.35,-15.32,3,2
18274.562,0.3,-0.467,0.308,-133.85,96.71,-5.19,3,2
18274.562,0.2,-0.521,0.553,-137.7,116.73,7.05,3,2
18274.578,0.119,-0.602,0.773,-127.51,124.76,19.93,3,2
18274.593,0.073,-0.638,0.943,-109.53,121.1,33.02,3,2
18274.593,0.046,-0.706,1.015,-87.74,109.68,43.98,3,2
18274.609,0.049,-0.781,1.01,-69.52,95.28,53.47,3,2
18274.625,0.086,-0.792,0.985,-61.28,82.28,60.67,3,2
18274.625,0.109,-0.825,0.939,-61.74,73.76,63.42,3,2
18274.64,0.155,-0.891,0.898,-68.27,69.49,61.31,3,2
18274.656,0.198,-0.9,0.89,-73.52,70.53,53.07,3,2
18274.656,0.155,-0.955,0.9,-71.66,77.27,40.96,3,2
18274.671,0.182,-0.956,1.013,-66.1,82.43,29.3,3,2
18274.671,0.101,-0.893,1.094,-50.02,88.17,16.17,3,2
18274.687,0.021,-0.828,1.175,-38.39,76.54,3.39,3,2
18274.703,-0.01,-0.744,1.289,-34.09,60.98,-2.29,3,2
18274.703,-0.045,-0.718,1.259,-28.57,40.1,-1.89,3,2
18274.718,0.008,-0.699,1.124,-26.76,17.82,1.4,3,2
18274.734,0.047,-0.726,0.948,-25.57,6.41,6.07,3,2
18274.734,0.072,-0.784,0.793,-26.73,1.98,11.41,3,2
18274.75,0.127,-0.797,0.677,-26.43,4.55,13.21,3,2
18274.765,0.101,-0.794,0.562,-20.45,7.57,4.91,3,2
18274.765,0.157,-0.838,0.547,-19.38,11.57,-2.17,3,2
18274.781,0.264,-0.737,0.591,-17.09,23.07,-9.19,3,2
18274.781,0.209,-0.716,0.607,-9.03,42.85,-17.46,3,2
18274.796,0.167,-0.639,0.666,-6.56,54.17,-21.82,3,2
18274.812,0.146,-0.571,0.728,-6.99,58.72,-20.75,3,2
18274.812,0.103,-0.492,0.793,-14.04,59.14,-16.94,3,2
18274.828,0.001,-0.44,0.876,-24.51,52.34,-10.22,3,2
18274.843,-0.126,-0.515,0.898,-33.02,36.99,5.37,3,2
18274.843,-0.186,-0.611,0.824,-38.97,16.6,27.56,3,2
18274.859,-0.197,-0.701,0.682,-40.53,-1.86,48.77,3,2
18274.875,-0.173,-0.819,0.527,-40.44,-15.47,65.37,3,2
18274.875,-0.086,-0.926,0.395,-41.54,-22.43,73.03,3,2
18274.89,-0.018,-0.982,0.299,-40.22,-18.62,70.38,3,2
18274.89,-0.001,-1.026,0.245,-35.95,-6.65,62.41,3,2
18274.906,-0.027,-1.036,0.273,-33.08,7.97,52.52,3,2
18274.921,-0.136,-1.034,0.346,-31.95,19.81,43.98,3,2
18274.937,-0.199,-1.044,0.41,-32.84,23.38,38.85,3,2
18274.937,-0.23,-1.027,0.483,-34.24,21.21,35.83,3,2
18274.953,-0.244,-1.045,0.538,-33.23,14.56,33.6,3,2
18274.953,-0.254,-1.065,0.556,-29.15,5.83,31.31,3,2
18274.968,-0.262,-1.086,0.536,-21.49,-4.55,26.64,3,2
18274.984,-0.276,-1.11,0.473,-14.44,-14.74,19.29,3,2
18274.984,-0.237,-1.116,0.401,-10.56,-23.68,9.86,3,2
18275.0,-0.168,-1.099,0.348,-6.23,-27.56,-1.77,3,2
18275.015,-0.132,-1.092,0.329,-0.95,-24.72,-13.7,3,2
18275.015,-0.129,-1.066,0.366,3.3,-19.2,-24.48,3,2
18275.031,-0.14,-1.05,0.431,7.84,-14.74,-32.75,3,2
18275.031,-0.154,-1.051,0.515,14.98,-14.74,-39.4,3,2
18275.046,-0.149,-1.045,0.595,25.06,-20.23,-46.66,3,2
18275.062,-0.099,-1.022,0.635,37.08,-29.85,-56.76,3,2
18275.062,-0.01,-0.951,0.67,49.68,-41.6,-71.29,3,2
18275.078,0.062,-0.83,0.697,62.23,-51.7,-89.57,3,2
18275.093,0.091,-0.714,0.712,72.6,-60.21,-105.38,3,2
18275.109,0.076,-0.6,0.717,78.13,-67.66,-113.01,3,2
18275.109,-0.012,-0.544,0.703,78.55,-74.56,-110.69,3,2
18275.125,-0.113,-0.565,0.628,73.03,-83.62,-96.07,3,2
18275.125,-0.156,-0.642,0.464,62.53,-94.18,-73.55,3,2
18275.14,-0.051,-0.682,0.295,49.04,-101.54,-53.47,3,2
18275.156,0.113,-0.708,0.18,40.83,-98.33,-41.54,3,2
18275.156,0.24,-0.747,0.119,38.42,-82.89,-34.39,3,2
18275.171,0.292,-0.753,0.142,38.12,-58.41,-28.5,3,2
18275.187,0.279,-0.721,0.248,37.69,-34.55,-21.21,3,2
18275.187,0.21,-0.675,0.381,34.46,-17.06,-10.25,3,2
18275.203,0.141,-0.646,0.506,28.29,-9.86,4.27,3,2
18275.203,0.089,-0.661,0.595,21.15,-11.81,21.33,3,2
18275.218,0.071,-0.713,0.617,15.08,-19.59,39.31,3,2
18275.234,0.119,-0.787,0.603,10.16,-28.81,55.82,3,2
18275.234,0.182,-0.851,0.58,6.07,-34.09,67.9,3,2
18275.25,0.229,-0.897,0.536,3.63,-34.42,73.98,3,2
18275.265,0.249,-0.919,0.523,2.96,-30.3,74.43,3,2
18275.265,0.203,-0.9,0.54,3.2,-24.29,70.74,3,2
18275.281,0.157,-0.868,0.539,3.75,-20.72,67.11,3,2
18275.281,0.137,-0.804,0.535,3.08,-18.28,66.23,3,2
18275.296,0.116,-0.75,0.543,1.4,-14.65,68.45,3,2
18275.312,0.089,-0.717,0.565,-1.59,-10.25,74.77,3,2
18275.312,0.059,-0.707,0.6,-5.86,-6.07,85.27,3,2
18275.328,0.009,-0.711,0.646,-11.2,-4.06,97.81,3,2
18275.343,-0.076,-0.785,0.649,-16.88,-6.38,110.48,3,2
18275.359,-0.127,-0.886,0.594,-25.03,-13.67,121.68,3,2
18275.359,-0.076,-1.005,0.515,-32.23,-23.47,127.84,3,2
18275.375,-0.006,-1.09,0.438,-34.91,-27.22,125.22,3,2
18275.375,0.037,-1.148,0.391,-32.87,-23.5,114.57,3,2
18275.39,0.063,-1.159,0.403,-26.86,-16.02,99.19,3,2
18275.406,0.027,-1.138,0.438,-13.37,-4.39,65.89,3,2
18275.406,-0.041,-1.103,0.477,-10.71,-6.32,55.21,3,2
18275.421,-0.101,-1.065,0.52,-8.21,-12.05,48.89,3,2
18275.437,-0.136,-1.048,0.482,-7.51,-19.44,45.9,3,2
18275.437,-0.099,-1.037,0.435,-9.37,-24.54,41.96,3,2
18275.453,-0.083,-1.053,0.394,-11.02,-25.3,34.76,3,2
18275.453,-0.082,-1.059,0.375,-10.71,-22.43,26.4,3,2
18275.468,-0.081,-1.039,0.363,-8.88,-17.46,17.85,3,2
18275.484,-0.1,-1.025,0.367,-7.32,-11.87,9.67,3,2
18275.484,-0.105,-1.003,0.391,-7.54,-8.06,2.44,3,2
18275.5,-0.102,-0.98,0.431,-6.53,-5.92,-5.74,3,2
18275.5,-0.101,-0.961,0.463,-2.69,-5.31,-14.68,3,2
18275.515,-0.091,-0.933,0.492,1.62,-6.5,-22.77,3,2
18275.531,-0.072,-0.9,0.517,5.74,-9.43,-30.79,3,2
18275.546,-0.043,-0.891,0.523,9.8,-14.19,-38.79,3,2
18275.546,0.004,-0.878,0.522,13.31,-18.49,-46.21,3,2
18275.562,0.04,-0.866,0.511,16.14,-20.97,-53.47,3,2
18275.562,0.042,-0.86,0.497,18.83,-22.52,-60.58,3,2
18275.578,0.024,-0.852,0.48,21.21,-24.35,-66.62,3,2
18275.593,-0.012,-0.835,0.444,23.19,-26.55,-71.96,3,2
18275.593,-0.03,-0.826,0.403,24.84,-29.6,-76.69,3,2
18275.609,-0.025,-0.804,0.361,26.64,-31.04,-79.41,3,2
18275.625,-0.018,-0.792,0.31,28.08,-29.24,-79.47,3,2
18275.625,0.005,-0.769,0.287,26.46,-23.9,-76.3,3,2
18275.64,0.023,-0.744,0.298,23.38,-14.68,-69.49,3,2
18275.656,0.03,-0.73,0.327,18.89,-3.11,-58.44,3,2
18275.656,0.02,-0.718,0.363,11.23,8.09,-44.25,3,2
18275.671,-0.001,-0.717,0.396,0.58,17.27,-28.69,3,2
18275.671,-0.005,-0.746,0.423,-11.23,22.4,-13.92,3,2
18275.687,0.014,-0.786,0.443,-20.48,25.85,-1.65,3,2
18275.703,0.042,-0.829,0.454,-25.18,29.18,7.02,3,2
18275.718,0.078,-0.866,0.47,-25.21,32.93,11.69,3,2
18275.718,0.1,-0.885,0.491,-23.01,37.93,13.28,3,2
18275.734,0.078,-0.91,0.514,-21.21,42.48,12.94,3,2
18275.734,0.052,-0.941,0.543,-21.06,44.28,11.81,3,2
18275.75,0.047,-0.952,0.569,-20.08,42.73,9.22,3,2
18275.765,0.037,-0.967,0.593,-16.88,39.16,4.61,3,2
18275.765,0.05,-0.977,0.618,-12.73,35.34,0.0,3,2
18275.781,0.05,-0.973,0.636,-7.84,31.34,-4.94,3,2
18275.796,0.055,-0.959,0.655,-2.84,27.19,-10.04,3,2
18275.796,0.062,-0.938,0.667,1.65,21.7,-15.23,3,2
18275.812,0.053,-0.922,0.663,5.22,15.93,-19.75,3,2
18275.812,0.046,-0.913,0.652,7.42,9.31,-22.68,3,2
18275.828,0.05,-0.903,0.628,8.51,2.69,-24.35,3,2
18275.843,0.061,-0.893,0.58,9.06,-2.35,-25.18,3,2
18275.843,0.082,-0.883,0.542,8.42,-4.76,-26.15,3,2
18275.859,0.103,-0.868,0.511,8.09,-5.04,-28.57,3,2
18275.875,0.108,-0.854,0.499,9.28,-3.85,-31.89,3,2
18275.875,0.109,-0.838,0.497,11.84,-2.5,-35.07,3,2
18275.89,0.115,-0.811,0.503,15.29,-2.44,-38.06,3,2
18275.906,0.117,-0.79,0.497,18.98,-2.5,-40.44,3,2
18275.906,0.115,-0.763,0.498,22.52,-2.87,-41.93,3,2
18275.921,0.103,-0.738,0.501,25.51,-3.78,-41.51,3,2
18275.921,0.095,-0.716,0.514,27.01,-5.01,-37.81,3,2
18275.937,0.09,-0.706,0.523,27.04,-7.02,-30.49,3,2
18275.953,0.073,-0.718,0.503,25.73,-8.97,-20.23,3,2
18275.953,0.082,-0.739,0.471,21.21,-10.77,-8.39,3,2
18275.968,0.109,-0.749,0.449,14.25,-10.93,1.77,3,2
18275.984,0.114,-0.787,0.439,6.56,-7.54,9.95,3,2
18275.984,0.111,-0.814,0.452,-1.43,-3.42,16.11,3,2
18276.0,0.107,-0.852,0.474,-7.54,0.73,20.05,3,2
18276.015,0.099,-0.884,0.496,-9.95,3.91,22.43,3,2
18276.015,0.095,-0.898,0.516,-8.94,6.47,23.19,3,2
18276.031,0.085,-0.912,0.536,-6.53,8.3,22.13,3,2
18276.046,0.073,-0.919,0.559,-4.73,9.0,20.29,3,2
18276.046,0.059,-0.928,0.582,-2.9,8.21,18.13,3,2
18276.062,0.042,-0.935,0.596,-1.07,5.83,15.93,3,2
18276.078,0.031,-0.944,0.599,0.31,1.68,14.31,3,2
18276.078,0.037,-0.95,0.583,0.21,-3.88,13.31,3,2
18276.093,0.062,-0.934,0.563,-2.38,-8.0,12.39,3,2
18276.093,0.076,-0.944,0.578,-3.42,-9.13,10.47,3,2
18276.109,0.073,-0.981,0.595,3.3,-8.73,9.55,3,2
18276.125,0.063,-0.948,0.584,15.14,-7.93,10.65,3,2
18276.125,0.055,-0.91,0.591,25.27,-8.09,12.67,3,2
18276.14,0.047,-0.909,0.583,29.94,-9.77,13.58,3,2
18276.156,0.05,-0.892,0.559,28.23,-12.45,14.65,3,2
18276.156,0.071,-0.886,0.533,22.74,-13.67,16.02,3,2
18276.171,0.09,-0.894,0.518,15.99,-12.57,16.08,3,2
18276.187,0.104,-0.899,0.518,10.38,-9.61,14.92,3,2
18276.187,0.109,-0.9,0.536,7.63,-5.86,13.61,3,2
18276.203,0.102,-0.898,0.543,8.24,-2.81,11.84,3,2
18276.203,0.093,-0.899,0.541,9.4,-0.89,9.83,3,2
18276.218,0.08,-0.895,0.528,11.02,0.58,7.93,3,2
18276.234,0.066,-0.88,0.51,11.9,2.44,7.2,3,2
18276.234,0.057,-0.881,0.486,10.44,4.06,6.81,3,2
18276.25,0.056,-0.893,0.448,7.51,6.29,6.53,3,2
18276.265,0.052,-0.913,0.416,3.14,9.95,5.77,3,2
18276.265,0.064,-0.913,0.396,-0.82,14.4,2.96,3,2
18276.281,0.069,-0.916,0.38,-3.11,20.05,-2.04,3,2
18276.296,0.063,-0.932,0.368,-4.88,27.19,-8.15,3,2
18276.296,0.045,-0.939,0.358,-6.01,34.18,-15.44,3,2
18276.312,0.028,-0.953,0.343,-6.5,41.38,-22.43,3,2
18276.312,0.044,-0.944,0.33,-8.06,48.52,-29.63,3,2
18276.343,0.085,-0.906,0.368,-11.17,56.58,-37.81,3,2
18276.343,0.111,-0.865,0.445,-15.29,64.85,-46.66,3,2
18276.359,0.115,-0.811,0.531,-19.9,70.77,-54.14,3,2
18276.375,0.094,-0.763,0.62,-23.74,73.85,-56.76,3,2
18276.375,0.054,-0.727,0.728,-25.64,71.23,-54.14,3,2
18276.39,0.018,-0.725,0.792,-18.49,47.33,-38.48,3,2
18276.406,0.021,-0.727,0.799,-12.42,33.66,-28.66,3,2
18276.406,0.036,-0.737,0.774,-7.29,21.12,-21.09,3,2
18276.421,0.079,-0.761,0.707,-5.98,12.18,-18.37,3,2
18276.421,0.133,-0.826,0.566,-7.84,8.12,-19.23,3,2
18276.437,0.147,-0.853,0.536,-9.31,7.57,-21.27,3,2
18276.453,0.125,-0.868,0.536,-6.93,9.83,-22.98,3,2
18276.468,0.096,-0.846,0.566,-2.5,11.44,-22.74,3,2
18276.484,0.065,-0.824,0.591,1.77,10.25,-20.2,3,2
18276.5,0.029,-0.818,0.6,3.05,6.93,-15.38,3,2
18276.515,0.037,-0.817,0.613,1.34,1.5,-9.19,3,2
18276.515,0.046,-0.827,0.609,0.0,-3.66,-3.2,3,2
18276.531,0.037,-0.885,0.541,-1.4,-7.72,0.7,3,2
18276.531,0.052,-0.954,0.482,-6.35,-9.52,0.58,3,2
18276.546,0.05,-0.999,0.461,-8.97,-8.67,-7.11,3,2
18276.562,0.015,-1.062,0.464,-5.16,-5.4,-20.33,3,2
18276.562,0.092,-1.001,0.487,4.09,-8.06,-37.48,3,2
18276.562,0.09,-0.929,0.503,18.92,-8.15,-55.85,3,2
18276.578,0.075,-0.831,0.583,27.19,-10.13,-65.37,3,2
18276.578,0.066,-0.688,0.7,26.43,-17.21,-64.76,3,2
18276.593,0.049,-0.576,0.72,17.27,-29.27,-54.08,3,2
18276.593,0.105,-0.551,0.642,-1.56,-44.8,-36.13,3,2
18276.609,0.217,-0.585,0.534,-22.0,-54.14,-17.88,3,2
18276.609,0.315,-0.663,0.407,-33.69,-52.03,-5.55,3,2
18276.625,0.363,-0.74,0.316,-34.03,-39.28,1.92,3,2
18276.64,0.378,-0.765,0.303,-24.26,-20.81,6.62,3,2
18276.64,0.314,-0.75,0.345,-12.15,-2.69,10.5,3,2
18276.656,0.231,-0.722,0.422,-5.46,9.09,16.05,3,2
18276.656,0.18,-0.719,0.483,-4.91,13.25,22.83,3,2
18276.671,0.172,-0.737,0.506,-8.39,11.29,29.57,3,2
18276.687,0.171,-0.77,0.509,-12.24,8.0,35.19,3,2
18276.687,0.173,-0.808,0.502,-12.63,5.52,38.39,3,2
18276.703,0.176,-0.82,0.504,-10.28,3.27,39.77,3,2
18276.703,0.159,-0.834,0.52,-5.68,0.37,38.67,3,2
18276.718,0.156,-0.869,0.502,-0.21,-2.17,36.26,3,2
18276.734,0.129,-0.874,0.499,4.33,-3.14,33.08,3,2
18276.734,0.086,-0.896,0.481,7.23,-3.39,29.11,3,2
18276.75,0.093,-0.92,0.463,7.14,-3.69,25.45,3,2
18276.765,0.072,-0.921,0.481,8.33,-1.13,20.66,3,2
18276.765,0.025,-0.913,0.477,9.64,1.98,18.56,3,2
18276.781,0.016,-0.914,0.496,6.38,1.59,18.95,3,2
18276.796,0.058,-0.937,0.515,3.33,-0.21,17.43,3,2
18276.796,0.083,-0.948,0.536,3.91,-0.89,14.53,3,2
18276.812,0.087,-0.928,0.557,6.93,-1.77,10.99,3,2
18276.812,0.09,-0.922,0.562,10.16,-3.08,7.84,3,2
18276.828,0.083,-0.907,0.557,11.81,-4.61,6.38,3,2
18276.843,0.078,-0.901,0.523,11.93,-6.04,4.94,3,2
18276.859,0.08,-0.912,0.488,10.22,-5.62,2.59,3,2
18276.859,0.06,-0.91,0.482,8.73,-2.69,-0.15,3,2
18276.875,0.041,-0.888,0.504,8.3,0.79,-0.89,3,2
18276.875,0.056,-0.862,0.52,7.66,2.08,1.46,3,2
18276.89,0.072,-0.842,0.539,6.2,2.56,4.0,3,2
18276.906,0.068,-0.853,0.551,4.36,2.26,7.08,3,2
18276.906,0.08,-0.857,0.566,2.62,0.37,10.5,3,2
18276.921,0.062,-0.887,0.557,2.44,-1.31,11.9,3,2
18276.921,0.06,-0.911,0.543,1.98,-3.14,12.6,3,2
18276.937,0.078,-0.918,0.522,1.89,-5.07,10.65,3,2
18276.953,0.074,-0.924,0.505,2.81,-4.43,8.03,3,2
18276.953,0.066,-0.914,0.497,3.78,-2.59,6.29,3,2
18276.968,0.074,-0.902,0.514,3.54,-1.59,4.73,3,2
18276.984,0.073,-0.898,0.522,2.81,-0.76,3.81,3,2
18276.984,0.061,-0.889,0.532,0.98,-0.15,3.6,3,2
18277.0,0.045,-0.891,0.53,-0.79,0.03,3.88,3,2
18277.015,0.061,-0.899,0.525,-2.2,-1.01,4.03,3,2
18277.015,0.064,-0.897,0.532,-1.5,-1.4,2.53,3,2
18277.031,0.052,-0.888,0.543,1.43,-1.46,2.14,3,2
18277.046,0.058,-0.877,0.536,2.93,-3.33,2.41,3,2
18277.046,0.09,-0.892,0.519,2.62,-5.37,0.49,3,2
18277.062,0.101,-0.905,0.505,3.54,-5.62,-2.5,3,2
18277.062,0.1,-0.888,0.489,4.88,-3.81,-5.37,3,2
18277.078,0.08,-0.855,0.501,5.34,-1.13,-6.71,3,2
18277.093,0.061,-0.836,0.511,4.49,0.58,-4.21,3,2
18277.093,0.071,-0.819,0.518,2.44,1.16,-0.37,3,2
18277.109,0.068,-0.818,0.534,1.22,1.89,2.29,3,2
18277.125,0.036,-0.827,0.53,0.73,2.26,5.77,3,2
18277.125,0.041,-0.844,0.509,-2.08,1.65,8.55,3,2
18277.14,0.075,-0.877,0.507,-3.97,1.56,7.93,3,2
18277.14,0.079,-0.882,0.52,-1.13,3.2,6.56,3,2
18277.156,0.081,-0.862,0.54,1.62,4.27,4.85,3,2
18277.171,0.076,-0.85,0.572,2.23,3.57,2.35,3,2
18277.171,0.059,-0.851,0.592,2.99,1.07,0.92,3,2
18277.187,0.067,-0.844,0.578,3.6,-3.05,-0.67,3,2
18277.203,0.067,-0.849,0.561,3.54,-6.74,-3.63,3,2
18277.218,0.045,-0.853,0.526,3.48,-8.3,-5.92,3,2
18277.218,0.059,-0.855,0.48,2.66,-8.12,-7.42,3,2
18277.234,0.082,-0.861,0.463,2.08,-5.52,-9.34,3,2
18277.234,0.078,-0.86,0.462,2.38,-0.79,-11.05,3,2
18277.25,0.071,-0.855,0.484,1.04,3.17,-12.82,3,2
18277.265,0.065,-0.854,0.529,0.03,5.07,-15.11,3,2
18277.281,0.045,-0.842,0.549,1.65,5.37,-14.65,3,2
18277.281,0.037,-0.813,0.559,2.08,3.81,-11.93,3,2
18277.281,0.045,-0.808,0.553,1.5,0.85,-8.97,3,2
18277.296,0.068,-0.817,0.546,0.67,-2.26,-6.32,3,2
18277.312,0.094,-0.828,0.528,1.13,-3.48,-4.24,3,2
18277.312,0.106,-0.833,0.522,2.17,-2.75,-2.35,3,2
18277.328,0.089,-0.83,0.521,2.38,-1.1,-1.01,3,2
18277.343,0.075,-0.836,0.524,1.13,0.03,0.58,3,2
18277.343,0.086,-0.837,0.531,0.0,0.58,2.41,3,2
18277.359,0.09,-0.825,0.548,1.68,0.55,5.98,3,2
18277.375,0.093,-0.821,0.555,1.77,-0.31,8.82,3,2
18277.375,0.105,-0.818,0.558,0.95,-0.98,10.5,3,2
18277.39,0.1,-0.833,0.563,0.03,-1.31,11.72,3,2
18277.406,0.087,-0.862,0.557,-0.37,-1.89,12.24,3,2
18277.406,0.099,-0.867,0.556,-0.37,-2.2,11.75,3,2
18277.421,0.111,-0.867,0.565,-0.03,-2.26,10.74,3,2
18277.421,0.119,-0.865,0.588,1.37,-2.47,9.0,3,2
18277.437,0.118,-0.853,0.608,3.69,-3.78,7.6,3,2
18277.453,0.118,-0.834,0.618,5.34,-6.44,6.23,3,2
18277.453,0.12,-0.808,0.622,6.29,-9.86,5.13,3,2
18277.468,0.118,-0.793,0.609,7.69,-13.49,4.33,3,2
18277.484,0.111,-0.774,0.595,10.07,-16.48,4.33,3,2
18277.484,0.083,-0.741,0.572,13.31,-18.31,6.16,3,2
18277.5,0.045,-0.712,0.565,13.0,-19.99,11.32,3,2
18277.515,0.031,-0.703,0.564,9.55,-22.0,18.46,3,2
18277.515,0.026,-0.734,0.552,6.13,-23.04,26.25,3,2
18277.531,0.041,-0.785,0.517,3.75,-21.88,33.45,3,2
18277.531,0.085,-0.83,0.496,1.62,-18.62,37.51,3,2
18277.546,0.098,-0.871,0.515,0.21,-13.4,37.63,3,2
18277.562,0.084,-0.884,0.564,1.04,-8.94,35.34,3,2
18277.578,0.075,-0.877,0.631,3.75,-8.15,31.71,3,2
18277.578,0.061,-0.863,0.696,7.02,-11.72,27.83,3,2
18277.593,0.041,-0.852,0.715,10.28,-19.01,24.63,3,2
18277.593,0.02,-0.85,0.69,10.86,-27.71,22.68,3,2
18277.609,0.016,-0.863,0.641,9.8,-34.76,20.84,3,2
18277.625,0.013,-0.878,0.577,10.22,-38.24,19.47,3,2
18277.625,0.021,-0.893,0.518,9.74,-36.74,19.23,3,2
18277.64,0.046,-0.9,0.488,8.55,-32.11,17.64,3,2
18277.656,0.044,-0.905,0.502,8.33,-25.03,15.47,3,2
18277.656,0.009,-0.891,0.533,8.51,-18.25,13.82,3,2
18277.671,0.006,-0.877,0.578,7.48,-15.99,12.91,3,2
18277.671,0.009,-0.869,0.617,6.01,-17.52,11.99,3,2
18277.687,0.011,-0.864,0.637,6.56,-21.61,10.19,3,2
18277.703,0.014,-0.859,0.625,9.49,-26.55,8.39,3,2
18277.718,0.015,-0.849,0.593,11.17,-29.79,7.87,3,2
18277.718,0.017,-0.846,0.554,9.52,-30.15,8.27,3,2
18277.734,0.023,-0.85,0.541,6.41,-27.68,9.16,3,2
18277.734,0.027,-0.843,0.547,3.97,-23.68,10.04,3,2
18277.75,0.018,-0.838,0.557,3.63,-20.54,10.07,3,2
18277.765,-0.004,-0.839,0.563,4.46,-18.56,10.07,3,2
18277.765,-0.032,-0.844,0.547,3.88,-17.09,11.23,3,2
18277.781,-0.034,-0.869,0.519,2.53,-17.3,12.54,3,2
18277.781,-0.012,-0.89,0.498,1.65,-15.96,13.18,3,2
18277.796,0.007,-0.899,0.511,0.95,-12.48,12.67,3,2
18277.812,0.011,-0.9,0.538,0.46,-8.27,10.96,3,2
18277.812,0.006,-0.906,0.569,0.7,-5.52,8.51,3,2
18277.828,-0.002,-0.901,0.607,1.13,-5.37,5.71,3,2
18277.843,-0.014,-0.898,0.625,2.69,-8.55,2.04,3,2
18277.843,-0.011,-0.896,0.619,4.91,-12.82,-0.98,3,2
18277.859,0.014,-0.879,0.614,7.51,-15.93,-3.51,3,2
18277.875,0.038,-0.858,0.607,9.95,-17.46,-6.38,3,2
18277.89,0.052,-0.835,0.619,10.62,-16.94,-7.81,3,2
18277.89,0.065,-0.814,0.635,9.89,-16.69,-7.63,3,2
18277.89,0.065,-0.81,0.641,8.91,-17.0,-6.81,3,2
18277.906,0.047,-0.814,0.628,6.32,-17.64,-5.25,3,2
18277.921,0.064,-0.819,0.616,3.75,-19.99,-4.21,3,2
18277.937,0.079,-0.82,0.603,3.63,-21.27,-4.61,3,2
18277.937,0.087,-0.818,0.585,5.34,-20.23,-5.19,3,2
18277.953,0.082,-0.811,0.579,6.78,-17.88,-5.4,3,2
18277.953,0.067,-0.812,0.586,6.56,-15.38,-4.27,3,2
18277.968,0.07,-0.814,0.6,4.21,-14.19,-1.53,3,2
18277.984,0.094,-0.824,0.614,1.34,-14.01,0.82,3,2
18277.984,0.105,-0.833,0.638,-0.58,-13.73,1.83,3,2
18278.0,0.094,-0.839,0.67,0.37,-13.98,2.01,3,2
18278.015,0.099,-0.816,0.695,2.59,-17.3,1.4,3,2
18278.015,0.099,-0.797,0.693,5.01,-22.55,-1.59,3,2
18278.031,0.089,-0.795,0.661,6.5,-27.53,-4.21,3,2
18278.046,0.081,-0.809,0.601,6.26,-30.67,-4.73,3,2
18278.046,0.082,-0.829,0.543,5.04,-31.37,-3.42,3,2
18278.062,0.105,-0.852,0.499,2.99,-28.93,-1.43,3,2
18278.062,0.124,-0.857,0.486,-0.03,-22.74,-0.49,3,2
18278.078,0.132,-0.861,0.513,-2.69,-15.84,-1.28,3,2
18278.093,0.124,-0.857,0.566,-3.3,-10.9,-3.91,3,2
18278.093,0.112,-0.842,0.6,-1.16,-8.85,-7.63,3,2
18278.109,0.099,-0.812,0.621,1.25,-9.37,-10.1,3,2
18278.125,0.074,-0.784,0.628,3.02,-11.66,-10.35,3,2
18278.125,0.045,-0.771,0.609,2.59,-15.66,-8.0,3,2
18278.14,0.056,-0.788,0.568,-0.24,-21.21,-3.63,3,2
18278.156,0.097,-0.816,0.524,-2.26,-23.68,0.64,3,2
18278.156,0.131,-0.834,0.492,-2.75,-21.0,2.84,3,2
18278.171,0.144,-0.839,0.487,-3.11,-15.38,2.59,3,2
18278.171,0.135,-0.836,0.504,-3.54,-9.55,1.16,3,2
18278.187,0.109,-0.838,0.512,-3.63,-5.92,-0.15,3,2
18278.203,0.094,-0.853,0.518,-3.66,-4.76,-0.7,3,2
18278.203,0.094,-0.86,0.535,-1.71,-5.25,-1.56,3,2
18278.218,0.09,-0.86,0.527,1.92,-5.83,-3.08,3,2
18278.234,0.096,-0.855,0.523,3.6,-6.26,-4.88,3,2
18278.25,0.094,-0.855,0.521,4.55,-6.59,-7.11,3,2
18278.25,0.071,-0.846,0.504,5.49,-6.68,-8.0,3,2
18278.265,0.07,-0.834,0.482,5.31,-6.96,-6.29,3,2
18278.265,0.098,-0.829,0.458,3.23,-6.81,-3.33,3,2
18278.281,0.128,-0.834,0.445,-0.15,-4.43,-1.92,3,2
18278.281,0.147,-0.84,0.454,-2.99,-0.18,-2.35,3,2
18278.296,0.155,-0.839,0.497,-3.88,4.09,-4.52,3,2
18278.312,0.144,-0.824,0.548,-1.37,6.96,-7.23,3,2
18278.312,0.135,-0.8,0.583,2.11,7.2,-8.55,3,2
18278.328,0.146,-0.767,0.629,3.48,4.49,-8.76,3,2
18278.343,0.157,-0.755,0.649,4.33,0.37,-8.67,3,2
18278.343,0.166,-0.745,0.639,3.23,-6.35,-4.06,3,2
18278.359,0.178,-0.744,0.639,2.41,-8.51,-1.04,3,2
18278.375,0.178,-0.746,0.639,1.19,-10.25,2.69,3,2
18278.39,0.184,-0.75,0.62,-1.56,-10.96,5.77,3,2
18278.39,0.204,-0.796,0.595,-3.39,-10.5,6.9,3,2
18278.39,0.205,-0.809,0.59,-3.17,-9.55,5.95,3,2
18278.406,0.208,-0.813,0.601,-1.1,-8.3,3.69,3,2
18278.421,0.205,-0.808,0.607,1.62,-7.14,0.82,3,2
18278.421,0.202,-0.788,0.624,2.96,-6.81,-1.74,3,2
18278.437,0.187,-0.767,0.659,4.36,-6.99,-3.66,3,2
18278.453,0.167,-0.746,0.684,7.02,-8.94,-3.33,3,2
18278.468,0.152,-0.72,0.693,9.0,-12.7,-0.76,3,2
18278.468,0.146,-0.715,0.684,8.3,-17.61,3.78,3,2
18278.484,0.147,-0.734,0.66,5.83,-22.4,8.55,3,2
18278.484,0.148,-0.771,0.612,3.51,-25.45,12.57,3,2
18278.5,0.163,-0.806,0.582,1.19,-26.28,14.68,3,2
18278.515,0.168,-0.832,0.568,0.89,-24.54,14.16,3,2
18278.515,0.164,-0.845,0.569,2.23,-21.61,11.96,3,2
18278.531,0.157,-0.843,0.569,3.72,-18.86,8.73,3,2
18278.546,0.147,-0.834,0.576,4.12,-17.21,4.73,3,2
18278.546,0.145,-0.823,0.589,3.63,-16.97,0.89,3,2
18278.562,0.141,-0.816,0.6,4.46,-17.09,-2.53,3,2
18278.562,0.129,-0.802,0.598,7.48,-17.37,-4.09,3,2
18278.578,0.128,-0.783,0.591,9.83,-17.73,-2.99,3,2
18278.593,0.136,-0.763,0.597,10.35,-17.49,-0.4,3,2
18278.593,0.134,-0.761,0.59,10.28,-16.88,2.84,3,2
18278.609,0.131,-0.758,0.582,8.64,-16.14,6.68,3,2
18278.625,0.127,-0.765,0.594,6.2,-15.9,9.98,3,2
18278.625,0.122,-0.781,0.599,5.46,-16.75,12.39,3,2
18278.64,0.13,-0.787,0.599,5.25,-18.43,14.25,3,2
18278.656,0.151,-0.804,0.591,4.52,-20.26,14.37,3,2
18278.656,0.168,-0.823,0.59,4.15,-21.33,12.15,3,2
18278.671,0.173,-0.832,0.597,5.31,-21.76,9.16,3,2
18278.671,0.175,-0.833,0.6,6.93,-22.74,6.74,3,2
18278.687,0.18,-0.834,0.592,7.75,-23.22,5.1,3,2
18278.703,0.179,-0.837,0.589,8.88,-23.1,4.03,3,2
18278.703,0.183,-0.831,0.575,11.11,-22.95,3.48,3,2
18278.718,0.176,-0.816,0.568,13.7,-22.49,1.98,3,2
18278.734,0.17,-0.804,0.563,15.87,-21.36,-0.24,3,2
18278.734,0.172,-0.784,0.56,17.18,-19.2,-1.16,3,2
18278.75,0.181,-0.763,0.56,17.37,-16.02,-0.12,3,2
18278.765,0.187,-0.746,0.562,16.69,-12.02,2.23,3,2
18278.765,0.173,-0.729,0.574,15.26,-8.39,4.79,3,2
18278.781,0.157,-0.726,0.584,13.58,-6.84,8.21,3,2
18278.781,0.143,-0.724,0.589,12.15,-6.44,12.21,3,2
18278.796,0.127,-0.726,0.593,10.25,-6.87,16.14,3,2
18278.812,0.128,-0.739,0.592,7.02,-8.48,19.41,3,2
18278.828,0.143,-0.765,0.587,4.88,-10.16,21.0,3,2
18278.828,0.159,-0.789,0.583,5.49,-9.37,20.05,3,2
18278.843,0.17,-0.8,0.581,8.7,-6.38,16.82,3,2
18278.843,0.176,-0.802,0.582,12.97,-1.71,12.6,3,2
18278.859,0.183,-0.801,0.568,16.88,3.85,8.42,3,2
18278.875,0.173,-0.786,0.573,18.92,10.68,4.94,3,2
18278.875,0.15,-0.776,0.593,18.86,16.39,2.56,3,2
18278.89,0.106,-0.761,0.632,18.59,19.2,1.95,3,2
18278.906,0.047,-0.757,0.645,19.96,19.14,4.64,3,2
18278.906,0.03,-0.74,0.657,18.28,13.98,10.71,3,2
18278.921,0.049,-0.74,0.651,12.76,6.23,15.9,3,2
18278.921,0.07,-0.775,0.635,6.32,-0.15,18.31,3,2
18278.937,0.093,-0.807,0.626,3.08,-3.57,19.26,3,2
18278.953,0.115,-0.829,0.618,3.81,-3.69,19.65,3,2
18278.953,0.138,-0.846,0.595,6.07,-1.01,18.92,3,2
18278.968,0.151,-0.86,0.584,7.84,4.06,16.88,3,2
18278.984,0.161,-0.868,0.578,8.91,10.19,13.55,3,2
18278.984,0.15,-0.87,0.584,9.74,16.69,9.49,3,2
18279.0,0.132,-0.872,0.6,11.6,22.16,4.94,3,2
18279.015,0.113,-0.853,0.623,14.8,25.3,1.34,3,2
18279.015,0.071,-0.824,0.643,16.17,25.94,-0.52,3,2
18279.031,0.048,-0.81,0.662,14.1,22.0,-1.13,3,2
18279.046,0.039,-0.809,0.673,11.41,14.74,-0.37,3,2
18279.046,0.045,-0.811,0.666,8.85,7.02,1.53,3,2
18279.062,0.073,-0.825,0.644,5.71,0.21,2.99,3,2
18279.062,0.103,-0.848,0.611,2.84,-2.81,2.99,3,2
18279.078,0.124,-0.866,0.592,0.7,-2.17,1.53,3,2
18279.093,0.147,-0.881,0.579,0.24,1.1,-1.28,3,2
18279.093,0.157,-0.895,0.57,2.41,6.9,-4.82,3,2
18279.109,0.182,-0.891,0.562,5.83,14.04,-8.67,3,2
18279.125,0.177,-0.879,0.554,10.71,22.64,-13.67,3,2
18279.125,0.089,-0.866,0.589,16.27,32.84,-18.8,3,2
18279.14,0.043,-0.826,0.66,19.47,31.8,-20.87,3,2
18279.156,0.023,-0.779,0.702,21.73,23.74,-20.91,3,2
18279.156,-0.012,-0.75,0.733,21.09,12.18,-19.38,3,2
18279.171,0.011,-0.737,0.732,17.85,-4.06,-15.87,3,2
18279.187,0.064,-0.73,0.712,13.86,-17.09,-11.99,3,2
18279.187,0.113,-0.742,0.665,9.77,-24.45,-8.82,3,2
18279.203,0.163,-0.758,0.621,4.76,-26.37,-6.29,3,2
18279.203,0.191,-0.766,0.591,0.12,-22.43,-5.25,3,2
18279.218,0.197,-0.77,0.571,-4.09,-15.05,-4.46,3,2
18279.234,0.193,-0.773,0.569,-8.3,-7.23,-3.6,3,2
18279.25,0.176,-0.774,0.596,-11.93,-0.52,-3.17,3,2
18279.25,0.149,-0.774,0.631,-13.61,2.9,-3.17,3,2
18279.265,0.126,-0.771,0.68,-13.31,1.89,-3.63,3,2
18279.265,0.089,-0.771,0.724,-8.7,-3.42,-3.81,3,2
18279.281,0.082,-0.769,0.717,-1.4,-12.24,-2.41,3,2
18279.296,0.119,-0.763,0.696,3.39,-22.25,-0.95,3,2
18279.296,0.158,-0.767,0.671,6.41,-28.38,-1.62,3,2
18279.312,0.189,-0.764,0.64,8.36,-29.73,-3.51,3,2
18279.312,0.21,-0.755,0.611,8.94,-27.16,-5.31,3,2
18279.328,0.214,-0.741,0.597,2.2,-14.77,-7.42,3,2
18279.343,0.197,-0.722,0.61,-1.8,-9.58,-6.2,3,2
18279.343,0.171,-0.711,0.631,-4.76,-7.97,-3.66,3,2
18279.359,0.155,-0.707,0.656,-5.55,-7.81,-0.82,3,2
18279.375,0.141,-0.715,0.698,-4.49,-8.7,1.92,3,2
18279.375,0.134,-0.719,0.72,-0.52,-10.71,5.13,3,2
18279.39,0.143,-0.716,0.718,3.69,-13.46,9.13,3,2
18279.406,0.169,-0.714,0.714,5.16,-16.02,12.54,3,2
18279.406,0.187,-0.721,0.702,5.31,-16.6,13.43,3,2
18279.421,0.192,-0.716,0.693,4.46,-15.87,12.88,3,2
18279.421,0.188,-0.709,0.69,2.62,-14.95,12.39,3,2
18279.437,0.187,-0.706,0.692,-0.46,-14.77,12.05,3,2
18279.453,0.187,-0.709,0.683,-2.87,-14.34,11.99,3,2
18279.453,0.181,-0.709,0.667,-4.52,-12.79,12.45,3,2
18279.468,0.177,-0.712,0.664,-5.8,-10.96,12.82,3,2
18279.484,0.161,-0.713,0.68,-5.01,-9.0,12.79,3,2
18279.484,0.13,-0.713,0.68,-2.23,-8.06,14.53,3,2
18279.5,0.13,-0.714,0.679,-1.43,-10.5,17.4,3,2
18279.515,0.151,-0.73,0.666,-1.95,-13.31,18.74,3,2
18279.515,0.164,-0.748,0.647,-2.29,-14.16,18.1,3,2
18279.531,0.166,-0.754,0.635,-2.81,-13.52,16.42,3,2
18279.531,0.157,-0.755,0.632,-3.51,-12.24,14.77,3,2
18279.546,0.149,-0.76,0.623,-4.85,-10.93,14.16,3,2
18279.562,0.151,-0.764,0.622,-6.68,-10.13,13.95,3,2
18279.578,0.139,-0.771,0.637,-7.05,-8.85,13.21,3,2
18279.578,0.124,-0.78,0.63,-5.46,-7.84,13.03,3,2
18279.593,0.118,-0.774,0.631,-4.79,-7.75,13.43,3,2
18279.593,0.107,-0.773,0.649,-4.85,-8.67,13.37,3,2
18279.609,0.094,-0.781,0.652,-6.26,-11.14,13.31,3,2
18279.625,0.11,-0.793,0.65,-9.77,-15.47,12.94,3,2
18279.625,0.138,-0.82,0.636,-11.81,-18.4,11.38,3,2
18279.64,0.154,-0.839,0.619,-10.99,-18.04,8.64,3,2
18279.656,0.165,-0.844,0.607,-8.42,-15.69,5.04,3,2
18279.656,0.171,-0.836,0.6,-4.67,-11.84,0.92,3,2
18279.671,0.162,-0.82,0.597,-0.95,-6.87,-2.69,3,2
18279.671,0.151,-0.805,0.6,0.89,-2.35,-4.94,3,2
18279.687,0.129,-0.785,0.614,1.07,1.59,-6.32,3,2
18279.703,0.101,-0.768,0.636,0.92,3.39,-6.74,3,2
18279.703,0.083,-0.749,0.656,-0.76,2.38,-5.62,3,2
18279.718,0.076,-0.743,0.673,-3.33,-1.46,-3.94,3,2
18279.734,0.081,-0.755,0.671,-5.07,-6.56,-2.11,3,2
18279.734,0.107,-0.767,0.665,-6.23,-11.14,-0.12,3,2
18279.75,0.138,-0.78,0.651,-6.38,-13.46,0.61,3,2
18279.765,0.146,-0.791,0.626,-5.65,-12.7,-0.18,3,2
18279.765,0.156,-0.797,0.616,-5.04,-10.68,-1.37,3,2
18279.781,0.158,-0.794,0.617,-3.51,-7.48,-2.84,3,2
18279.781,0.139,-0.796,0.614,-1.37,-3.02,-3.72,3,2
18279.796,0.17,-0.792,0.624,-3.48,0.49,-0.58,3,2
18279.812,0.139,-0.776,0.632,-5.71,5.43,0.12,3,2
18279.812,0.121,-0.797,0.645,-8.94,6.35,0.34,3,2
18279.828,0.124,-0.806,0.659,-11.96,5.68,1.56,3,2
18279.843,0.128,-0.82,0.656,-12.12,4.15,1.68,3,2
18279.843,0.124,-0.83,0.648,-10.1,2.11,0.92,3,2
18279.859,0.123,-0.827,0.641,-7.35,-0.03,-0.31,3,2
18279.875,0.128,-0.827,0.625,-4.52,-1.46,-1.59,3,2
18279.875,0.139,-0.82,0.613,-2.41,-1.46,-2.08,3,2
18279.89,0.15,-0.809,0.602,-0.98,0.7,-1.98,3,2
18279.89,0.147,-0.801,0.595,-1.86,4.18,-1.68,3,2
18279.906,0.133,-0.789,0.61,-5.04,6.96,-1.25,3,2
18279.921,0.126,-0.793,0.615,-8.18,9.06,-0.31,3,2
18279.921,0.131,-0.792,0.621,-10.07,9.77,-0.12,3,2
18279.937,0.128,-0.787,0.637,-9.95,10.25,-1.22,3,2
18279.953,0.121,-0.784,0.633,-8.06,10.38,-3.08,3,2
18279.953,0.117,-0.783,0.635,-5.58,10.47,-4.09,3,2
18279.968,0.123,-0.764,0.639,-3.33,10.25,-4.46,3,2
18279.984,0.125,-0.756,0.623,-1.83,10.32,-4.64,3,2
18279.984,0.138,-0.763,0.616,-2.9,10.86,-3.94,3,2
18280.0,0.146,-0.76,0.622,-5.19,12.21,-3.51,3,2
18280.015,0.141,-0.767,0.617,-7.05,13.79,-3.42,3,2
18280.015,0.138,-0.764,0.635,-8.82,14.1,-3.02,3,2
18280.031,0.117,-0.769,0.652,-8.06,13.82,-2.84,3,2
18280.031,0.11,-0.778,0.648,-6.71,11.57,-1.56,3,2
18280.046,0.135,-0.782,0.638,-5.95,8.48,-0.55,3,2
18280.062,0.145,-0.783,0.628,-5.34,6.35,-1.5,3,2
18280.078,0.138,-0.797,0.604,-5.16,4.33,-3.66,3,2
18280.078,0.146,-0.801,0.586,-5.31,1.74,-6.04,3,2
18280.093,0.143,-0.8,0.569,-3.57,1.01,-9.03,3,2
18280.093,0.138,-0.804,0.547,0.73,0.73,-11.87,3,2
18280.109,0.142,-0.793,0.534,6.5,0.52,-14.4,3,2
18280.125,0.139,-0.784,0.511,12.33,2.08,-16.36,3,2
18280.125,0.137,-0.77,0.517,14.65,4.94,-16.66,3,2
18280.14,0.124,-0.76,0.537,13.95,8.48,-14.68,3,2
18280.156,0.11,-0.754,0.553,9.31,9.7,-10.59,3,2
18280.156,0.11,-0.762,0.558,0.98,8.94,-4.91,3,2
18280.171,0.127,-0.783,0.553,-8.27,5.71,-0.61,3,2
18280.187,0.149,-0.819,0.545,-15.32,2.62,1.22,3,2
18280.187,0.162,-0.856,0.544,-18.62,1.34,1.8,3,2
18280.203,0.186,-0.877,0.549,-18.31,0.79,0.89,3,2
18280.203,0.206,-0.896,0.54,-14.62,2.26,-1.04,3,2
18280.218,0.219,-0.894,0.535,-10.99,6.26,-2.96,3,2
18280.234,0.223,-0.885,0.555,-8.85,11.44,-5.04,3,2
18280.234,0.197,-0.869,0.567,-7.72,16.79,-6.81,3,2
18280.25,0.182,-0.856,0.577,-8.91,19.07,-7.17,3,2
18280.265,0.185,-0.847,0.594,-11.63,19.29,-8.27,3,2
18280.265,0.173,-0.855,0.599,-12.18,18.98,-10.93,3,2
18280.281,0.165,-0.86,0.597,-10.25,18.34,-12.76,3,2
18280.296,0.168,-0.836,0.613,-7.23,17.46,-13.64,3,2
18280.296,0.146,-0.818,0.614,-4.0,16.85,-13.58,3,2
18280.312,0.142,-0.808,0.603,-4.15,14.04,-12.15,3,2
18280.312,0.166,-0.806,0.601,-7.45,8.0,-12.97,3,2
18280.328,0.164,-0.809,0.579,-6.96,6.62,-14.44,3,2
18280.343,0.162,-0.81,0.562,-5.77,5.89,-15.41,3,2
18280.359,0.19,-0.788,0.558,-4.73,8.33,-15.47,3,2
18280.359,0.176,-0.777,0.553,-6.04,11.9,-13.86,3,2
18280.375,0.174,-0.773,0.572,-10.19,13.98,-11.57,3,2
18280.375,0.151,-0.78,0.598,-13.25,14.65,-10.47,3,2
18280.39,0.129,-0.793,0.613,-14.01,12.97,-9.0,3,2
18280.406,0.13,-0.79,0.633,-13.7,8.85,-7.08,3,2
18280.406,0.133,-0.797,0.625,-12.27,4.0,-6.84,3,2
18280.421,0.146,-0.805,0.605,-10.65,-0.4,-7.69,3,2
18280.421,0.156,-0.8,0.593,-8.58,-3.6,-9.8,3,2
18280.437,0.143,-0.798,0.582,-5.13,-5.13,-12.94,3,2
18280.453,0.141,-0.787,0.578,-2.23,-6.04,-14.34,3,2
18280.453,0.151,-0.773,0.585,-0.67,-5.65,-13.4,3,2
18280.468,0.142,-0.768,0.579,-1.5,-2.81,-9.92,3,2
18280.484,0.141,-0.769,0.574,-6.35,-1.07,-5.13,3,2
18280.484,0.138,-0.79,0.571,-13.61,-0.06,-1.25,3,2
18280.5,0.134,-0.823,0.569,-20.54,0.79,1.59,3,2
18280.515,0.141,-0.848,0.583,-24.57,0.31,2.5,3,2
18280.515,0.136,-0.873,0.58,-23.87,-0.18,0.89,3,2
18280.531,0.137,-0.879,0.578,-21.27,-1.83,-2.78,3,2
18280.531,0.147,-0.873,0.585,-17.15,-5.01,-8.58,3,2
18280.546,0.147,-0.867,0.566,-11.63,-7.9,-15.23,3,2
18280.562,0.151,-0.845,0.558,-6.07,-10.41,-20.57,3,2
18280.578,0.153,-0.814,0.553,-0.37,-12.12,-24.35,3,2
18280.578,0.143,-0.786,0.533,3.42,-12.39,-25.21,3,2
18280.593,0.166,-0.762,0.529,2.53,-12.6,-22.4,3,2
18280.593,0.184,-0.75,0.53,-1.43,-11.08,-17.82,3,2
18280.609,0.192,-0.761,0.518,-7.75,-8.7,-12.36,3,2
18280.625,0.2,-0.782,0.53,-15.32,-7.51,-7.11,3,2
18280.625,0.195,-0.818,0.536,-20.91,-6.87,-3.3,3,2
18280.64,0.202,-0.849,0.538,-23.32,-7.66,-1.31,3,2
18280.656,0.216,-0.872,0.534,-21.55,-8.79,-2.38,3,2
18280.656,0.21,-0.892,0.518,-16.79,-9.4,-6.07,3,2
18280.671,0.205,-0.887,0.501,-11.32,-10.32,-10.22,3,2
18280.671,0.221,-0.872,0.49,-6.93,-11.23,-14.22,3,2
18280.687,0.225,-0.859,0.495,-3.88,-10.28,-16.85,3,2
18280.703,0.21,-0.849,0.479,-2.23,-7.6,-16.08,3,2
18280.703,0.21,-0.842,0.478,-4.09,-5.43,-12.51,3,2
18280.718,0.213,-0.842,0.492,-7.32,-4.09,-9.03,3,2
18280.734,0.197,-0.856,0.484,-10.04,-2.2,-5.71,3,2
18280.734,0.201,-0.864,0.485,-12.82,-1.8,-2.44,3,2
18280.75,0.209,-0.873,0.48,-14.8,-2.44,-1.74,3,2
18280.765,0.204,-0.886,0.463,-15.59,-3.14,-2.84,3,2
18280.765,0.213,-0.891,0.446,-15.5,-3.97,-4.06,3,2
18280.781,0.254,-0.89,0.438,-14.83,-4.27,-5.62,3,2
18280.796,0.264,-0.879,0.428,-12.82,-2.11,-8.55,3,2
18280.796,0.253,-0.873,0.424,-10.59,0.92,-10.32,3,2
18280.812,0.247,-0.857,0.44,-8.45,3.51,-10.19,3,2
