timestamp,ax,ay,az,gx,gy,gz,orient_label,motion_label
18291.75,0.206,-0.822,0.536,-14.01,13.7,1.43,3,2
18291.765,0.201,-0.835,0.546,-14.59,12.27,1.8,3,2
18291.765,0.175,-0.847,0.543,-13.61,11.41,0.89,3,2
18291.781,0.162,-0.857,0.541,-11.81,9.13,-0.61,3,2
18291.781,0.171,-0.859,0.549,-8.51,6.38,-2.84,3,2
18291.796,0.177,-0.859,0.538,-2.5,4.43,-5.01,3,2
18291.812,0.211,-0.832,0.521,2.9,2.99,-5.98,3,2
18291.812,0.238,-0.814,0.521,5.43,2.75,-6.65,3,2
18291.828,0.252,-0.805,0.518,7.17,2.53,-6.01,3,2
18291.843,0.287,-0.76,0.514,6.26,2.11,-3.72,3,2
18291.843,0.296,-0.745,0.509,2.53,3.72,-2.53,3,2
18291.859,0.273,-0.757,0.515,-2.56,6.13,-1.74,3,2
18291.875,0.241,-0.769,0.532,-6.44,7.81,-0.82,3,2
18291.875,0.206,-0.801,0.546,-6.93,8.36,-0.18,3,2
18291.89,0.159,-0.821,0.561,-4.09,7.48,0.03,3,2
18291.906,0.12,-0.835,0.565,1.04,3.75,0.55,3,2
18291.906,0.117,-0.847,0.561,5.62,-3.11,0.67,3,2
18291.921,0.165,-0.852,0.517,14.4,-15.14,-1.43,3,2
18291.937,0.208,-0.85,0.506,14.8,-16.75,-2.78,3,2
18291.953,0.236,-0.838,0.504,13.4,-14.4,-4.64,3,2
18291.953,0.23,-0.825,0.527,12.73,-9.89,-6.9,3,2
18291.968,0.206,-0.806,0.559,13.0,-5.92,-7.29,3,2
18291.984,0.18,-0.789,0.593,14.19,-4.82,-6.1,3,2
18291.984,0.154,-0.775,0.603,15.75,-6.68,-4.18,3,2
18292.0,0.153,-0.76,0.597,15.2,-10.32,-1.43,3,2
18292.015,0.176,-0.769,0.608,13.43,-13.31,0.85,3,2
18292.031,0.181,-0.794,0.588,14.22,-14.07,2.47,3,2
18292.031,0.2,-0.799,0.564,14.59,-13.06,4.82,3,2
18292.031,0.204,-0.808,0.546,12.94,-10.25,5.71,3,2
18292.046,0.192,-0.828,0.534,9.16,-6.99,6.2,3,2
18292.062,0.208,-0.847,0.533,4.58,-4.76,6.78,3,2
18292.062,0.22,-0.866,0.535,1.28,-1.74,5.92,3,2
18292.078,0.207,-0.873,0.556,0.0,1.4,3.81,3,2
18292.093,0.18,-0.851,0.582,-1.16,4.03,1.5,3,2
18292.109,0.181,-0.845,0.588,-3.66,3.72,-0.64,3,2
18292.125,0.161,-0.846,0.598,-5.13,3.3,-2.99,3,2
18292.125,0.146,-0.839,0.599,-3.6,-1.5,-3.57,3,2
18292.14,0.152,-0.831,0.572,-5.34,-4.15,-4.55,3,2
18292.156,0.184,-0.841,0.538,-7.08,-4.67,-7.42,3,2
18292.156,0.196,-0.851,0.516,-6.84,-4.03,-10.1,3,2
18292.171,0.197,-0.845,0.515,-4.76,-2.87,-11.81,3,2
18292.171,0.188,-0.827,0.506,-1.74,-1.43,-12.12,3,2
18292.187,0.191,-0.802,0.505,-0.52,-0.67,-10.8,3,2
18292.203,0.212,-0.803,0.505,-1.22,-0.82,-9.92,3,2
18292.218,0.239,-0.803,0.511,-1.07,-0.67,-10.04,3,2
18292.218,0.228,-0.789,0.523,1.5,0.82,-10.1,3,2
18292.234,0.208,-0.774,0.534,4.67,2.08,-8.09,3,2
18292.234,0.211,-0.76,0.532,6.53,2.08,-3.97,3,2
18292.25,0.225,-0.76,0.53,6.2,1.92,-0.06,3,2
18292.265,0.233,-0.799,0.541,2.38,3.66,4.15,3,2
18292.281,0.233,-0.816,0.557,2.08,4.36,5.55,3,2
18292.296,0.234,-0.825,0.569,2.5,4.55,5.71,3,2
18292.296,0.214,-0.838,0.573,3.08,4.24,5.25,3,2
18292.312,0.205,-0.845,0.576,2.56,2.53,5.13,3,2
18292.312,0.213,-0.858,0.573,1.56,0.21,4.49,3,2
18292.328,0.214,-0.874,0.555,0.34,-1.68,2.26,3,2
18292.343,0.218,-0.891,0.545,-0.73,-3.14,-1.01,3,2
18292.343,0.228,-0.898,0.535,-0.46,-4.09,-4.91,3,2
18292.359,0.227,-0.896,0.516,0.85,-4.27,-9.49,3,2
18292.375,0.224,-0.897,0.501,2.62,-5.31,-14.65,3,2
18292.375,0.235,-0.896,0.478,4.64,-7.17,-20.14,3,2
18292.39,0.245,-0.887,0.452,6.9,-8.64,-25.85,3,2
18292.406,0.257,-0.878,0.422,9.55,-8.91,-30.64,3,2
18292.406,0.273,-0.875,0.403,11.2,-8.03,-34.3,3,2
18292.421,0.289,-0.869,0.375,10.74,-4.94,-37.32,3,2
18292.437,0.285,-0.87,0.337,8.09,8.58,-40.19,3,2
18292.453,0.265,-0.884,0.331,5.04,16.42,-40.25,3,2
18292.453,0.245,-0.902,0.317,1.53,22.92,-40.04,3,2
18292.468,0.231,-0.919,0.296,-0.37,27.44,-40.83,3,2
18292.484,0.218,-0.939,0.284,0.95,30.88,-42.7,3,2
18292.484,0.209,-0.952,0.277,6.13,31.25,-46.33,3,2
18292.5,0.22,-0.962,0.259,15.96,29.33,-51.45,3,2
18292.515,0.263,-0.958,0.235,28.5,26.67,-58.08,3,2
18292.515,0.297,-0.946,0.206,41.93,23.87,-65.58,3,2
18292.531,0.309,-0.938,0.183,55.39,24.81,-73.03,3,2
18292.546,0.316,-0.914,0.175,67.78,25.76,-79.04,3,2
18292.546,0.357,-0.889,0.174,78.74,25.54,-83.96,3,2
18292.562,0.41,-0.864,0.174,88.63,28.9,-87.53,3,2
18292.562,0.449,-0.832,0.175,96.96,35.1,-89.85,3,2
18292.578,0.482,-0.797,0.197,103.03,45.26,-90.52,3,2
18292.593,0.505,-0.769,0.226,107.82,57.71,-89.69,3,2
18292.609,0.472,-0.698,0.304,114.51,84.32,-85.85,3,2
18292.625,0.451,-0.66,0.354,117.4,92.01,-84.17,3,2
18292.64,0.416,-0.652,0.401,119.54,97.84,-81.36,3,2
18292.64,0.399,-0.619,0.446,119.82,98.39,-78.65,3,2
18292.656,0.384,-0.603,0.498,121.16,95.28,-76.2,3,2
18292.656,0.365,-0.582,0.576,124.18,87.8,-72.91,3,2
18292.671,0.311,-0.559,0.671,130.34,74.59,-67.51,3,2
18292.671,0.243,-0.536,0.788,139.87,49.62,-57.59,3,2
18292.687,0.183,-0.551,0.85,154.12,14.44,-42.7,3,2
18292.703,0.186,-0.545,0.839,166.97,-24.57,-27.77,3,2
18292.703,0.245,-0.507,0.79,172.4,-62.38,-20.94,3,2
18292.718,0.349,-0.49,0.742,167.97,-98.3,-26.61,3,2
18292.734,0.435,-0.492,0.727,157.29,-123.75,-41.47,3,2
18292.734,0.495,-0.498,0.716,149.69,-138.07,-60.24,3,2
18292.75,0.538,-0.498,0.707,149.69,-142.09,-78.13,3,2
18292.765,0.574,-0.495,0.707,156.9,-138.04,-93.26,3,2
18292.765,0.582,-0.444,0.716,166.23,-128.27,-108.34,3,2
18292.781,0.55,-0.361,0.724,167.64,-118.44,-126.07,3,2
18292.796,0.485,-0.266,0.772,161.14,-112.43,-145.27,3,2
18292.796,0.436,-0.143,0.822,154.24,-109.38,-159.15,3,2
18292.812,0.401,-0.0,0.863,147.4,-107.52,-165.14,3,2
18292.812,0.389,0.101,0.887,138.22,-106.33,-163.52,3,2
18292.828,0.426,0.178,0.919,124.85,-105.59,-158.3,3,2
18292.843,0.468,0.234,0.939,109.78,-102.79,-155.31,3,2
18292.843,0.523,0.253,0.926,92.81,-96.62,-155.8,3,2
18292.859,0.6,0.28,0.903,71.81,-84.05,-161.23,3,2
18292.875,0.627,0.266,0.891,50.97,-62.29,-173.83,3,2
18292.89,0.584,0.264,0.955,34.55,-34.85,-189.79,3,2
18292.89,0.447,0.353,1.085,27.86,-9.09,-204.9,3,2
18292.906,0.28,0.394,1.171,31.62,6.01,-213.39,3,2
18292.906,0.117,0.469,1.254,39.77,6.01,-211.22,3,2
18292.921,0.03,0.489,1.243,50.45,-7.29,-199.13,3,2
18292.937,0.119,0.525,1.134,55.67,-44.13,-171.58,3,2
18292.953,0.193,0.513,1.065,54.69,-50.87,-166.84,3,2
18292.953,0.249,0.508,0.986,53.62,-50.14,-168.03,3,2
18292.968,0.266,0.497,0.902,53.29,-37.93,-168.55,3,2
18292.984,0.288,0.488,0.866,51.45,-19.96,-167.64,3,2
18292.984,0.267,0.496,0.849,52.77,-0.85,-168.61,3,2
18293.0,0.234,0.509,0.855,57.34,17.37,-168.83,3,2
18293.015,0.199,0.538,0.897,63.97,30.76,-168.83,3,2
18293.015,0.119,0.568,0.944,71.32,36.96,-165.5,3,2
18293.031,0.069,0.57,0.973,75.93,34.76,-153.72,3,2
18293.046,0.067,0.591,0.976,79.13,25.21,-137.06,3,2
18293.046,0.086,0.626,0.95,79.62,11.6,-119.94,3,2
18293.062,0.121,0.648,0.901,72.15,-4.27,-105.32,3,2
18293.062,0.183,0.645,0.844,58.44,-17.33,-93.08,3,2
18293.078,0.246,0.65,0.787,40.13,-24.9,-85.54,3,2
18293.093,0.293,0.64,0.738,18.62,-27.5,-81.82,3,2
18293.109,0.339,0.632,0.712,-2.32,-23.16,-79.41,3,2
18293.109,0.359,0.629,0.7,-19.87,-13.73,-76.24,3,2
18293.125,0.378,0.616,0.697,-35.49,10.35,-65.95,3,2
18293.125,0.392,0.632,0.696,-36.41,21.58,-57.56,3,2
18293.14,0.323,0.585,0.703,-34.82,29.42,-48.55,3,2
18293.156,0.35,0.627,0.808,-28.69,38.79,-45.96,3,2
18293.156,0.356,0.701,0.856,-22.61,49.68,-51.79,3,2
18293.171,0.342,0.762,0.932,-19.26,62.35,-61.56,3,2
18293.187,0.343,0.845,1.006,-14.1,73.79,-69.37,3,2
18293.187,0.301,0.934,1.041,-8.97,78.95,-73.73,3,2
18293.203,0.178,0.878,1.027,-8.76,70.93,-67.08,3,2
18293.203,0.119,0.764,0.99,-13.46,52.4,-49.23,3,2
18293.218,0.139,0.671,0.943,-21.45,27.56,-31.68,3,2
18293.234,0.215,0.624,0.867,-31.43,2.17,-23.41,3,2
18293.234,0.265,0.553,0.784,-43.37,-16.94,-22.74,3,2
18293.25,0.285,0.494,0.721,-57.56,-26.4,-27.95,3,2
18293.265,0.327,0.468,0.683,-70.93,-29.85,-34.27,3,2
18293.265,0.375,0.459,0.665,-81.91,-27.01,-39.55,3,2
18293.281,0.388,0.461,0.667,-88.23,-17.4,-43.73,3,2
18293.296,0.402,0.441,0.68,-87.83,-5.74,-43.73,3,2
18293.296,0.396,0.42,0.72,-83.07,7.35,-43.06,3,2
18293.312,0.365,0.443,0.798,-73.79,18.98,-42.73,3,2
18293.312,0.345,0.455,0.88,-59.11,25.61,-41.17,3,2
18293.328,0.314,0.462,0.958,-43.43,28.44,-40.16,3,2
18293.343,0.248,0.494,1.042,-27.59,24.26,-34.06,3,2
18293.343,0.212,0.565,1.085,-18.98,11.11,-22.98,3,2
18293.359,0.254,0.538,1.037,-12.02,-3.39,-15.29,3,2
18293.375,0.263,0.442,0.931,-4.88,-12.45,-14.1,3,2
18293.375,0.276,0.379,0.852,-0.15,-14.31,-15.05,3,2
18293.39,0.283,0.388,0.787,5.68,-10.07,-14.56,3,2
18293.406,0.295,0.417,0.749,10.38,-1.56,-13.49,3,2
18293.406,0.281,0.447,0.775,10.74,8.82,-13.37,3,2
18293.421,0.3,0.454,0.757,9.89,17.33,-12.79,3,2
18293.437,0.105,0.603,0.936,-3.94,18.07,-14.8,3,2
18293.453,0.154,0.593,0.926,-3.33,8.94,-3.88,3,2
18293.453,0.126,0.564,0.872,2.04,1.25,2.93,3,2
18293.468,0.139,0.588,0.852,0.7,-3.51,10.16,3,2
18293.484,0.148,0.574,0.836,1.86,-6.07,17.03,3,2
18293.484,0.164,0.516,0.825,4.76,-7.84,22.16,3,2
18293.5,0.192,0.472,0.822,5.28,-9.46,24.17,3,2
18293.515,0.223,0.459,0.825,4.7,-10.77,22.86,3,2
18293.515,0.248,0.441,0.826,3.02,-12.3,20.45,3,2
18293.531,0.257,0.438,0.849,-0.73,-13.61,18.28,3,2
18293.546,0.269,0.435,0.875,-3.08,-15.32,17.21,3,2
18293.546,0.269,0.418,0.903,-1.8,-16.63,16.54,3,2
18293.562,0.209,0.452,0.975,-1.68,-21.85,14.98,3,2
18293.562,0.306,0.443,0.946,2.93,-30.58,15.66,3,2
18293.578,0.286,0.336,0.875,22.83,-31.16,13.06,3,2
18293.593,0.258,0.445,0.896,26.83,-32.84,12.97,3,2
18293.609,0.307,0.467,0.808,26.89,-38.0,16.08,3,2
18293.625,0.304,0.461,0.77,18.74,-38.85,12.18,3,2
18293.625,0.319,0.494,0.741,10.53,-38.03,10.01,3,2
18293.64,0.345,0.484,0.721,4.0,-35.31,7.6,3,2
18293.656,0.369,0.473,0.686,-1.19,-27.99,4.3,3,2
18293.656,0.386,0.455,0.652,-3.3,-17.73,0.79,3,2
18293.671,0.406,0.444,0.632,-4.97,-5.43,-1.98,3,2
18293.671,0.416,0.442,0.635,-6.32,8.91,-4.46,3,2
18293.687,0.407,0.427,0.65,-6.84,24.17,-7.23,3,2
18293.703,0.415,0.414,0.627,-6.16,40.59,-10.65,3,2
18293.703,0.419,0.393,0.605,-4.97,57.34,-15.99,3,2
18293.718,0.405,0.394,0.614,-6.47,74.65,-21.85,3,2
18293.734,0.33,0.399,0.705,-9.92,89.91,-26.89,3,2
18293.734,0.139,0.558,0.955,-30.43,87.92,-29.91,3,2
18293.75,0.048,0.702,1.187,-50.84,66.81,-25.91,3,2
18293.765,0.002,0.752,1.259,-53.22,31.37,-20.87,3,2
18293.781,0.096,0.522,0.999,-21.39,-18.62,-1.95,3,2
18293.796,0.158,0.506,0.908,-7.69,-25.18,7.9,3,2
18293.796,0.193,0.449,0.867,3.85,-24.84,15.78,3,2
18293.812,0.219,0.4,0.847,10.59,-22.25,20.94,3,2
18293.812,0.24,0.37,0.802,12.73,-20.05,22.92,3,2
18293.828,0.259,0.382,0.806,8.88,-18.31,20.78,3,2
18293.843,0.274,0.383,0.844,2.47,-17.94,18.49,3,2
18293.843,0.222,0.431,0.91,-5.28,-20.97,15.72,3,2
18293.859,0.331,0.428,0.857,-2.23,-24.54,15.5,3,2
18293.875,0.301,0.336,0.783,17.15,-19.9,12.91,3,2
18293.875,0.259,0.418,0.89,11.23,-18.04,11.26,3,2
18293.89,0.293,0.474,0.906,10.04,-20.33,12.12,3,2
18293.906,0.273,0.425,0.866,17.12,-23.44,10.1,3,2
18293.906,0.277,0.447,0.855,14.59,-25.15,10.1,3,2
18293.921,0.307,0.464,0.831,12.97,-26.18,9.58,3,2
18293.921,0.319,0.452,0.798,12.94,-24.99,7.2,3,2
18293.953,0.34,0.472,0.725,10.16,-16.33,4.67,3,2
18293.968,0.349,0.47,0.717,7.66,-9.74,3.63,3,2
18293.968,0.345,0.474,0.717,5.8,-2.56,2.38,3,2
18293.984,0.339,0.491,0.735,2.81,3.02,1.62,3,2
18293.984,0.336,0.502,0.763,-2.04,6.5,0.92,3,2
18294.0,0.326,0.498,0.791,-7.26,8.42,0.31,3,2
18294.015,0.312,0.485,0.816,-11.63,8.58,-0.21,3,2
18294.015,0.303,0.464,0.831,-14.19,7.42,-0.95,3,2
18294.031,0.302,0.446,0.847,-16.33,5.98,-2.59,3,2
18294.031,0.309,0.426,0.858,-17.03,5.37,-5.46,3,2
18294.046,0.317,0.398,0.854,-15.11,6.78,-8.24,3,2
18294.062,0.357,0.384,0.821,-11.78,10.65,-9.37,3,2
18294.062,0.402,0.369,0.782,-6.5,19.59,-10.41,3,2
18294.078,0.435,0.345,0.718,2.14,33.05,-11.69,3,2
18294.093,0.428,0.331,0.638,11.14,50.26,-15.96,3,2
18294.093,0.392,0.339,0.628,14.13,82.13,-29.11,3,2
18294.125,0.096,0.593,0.998,-14.1,48.95,-29.54,3,2
18294.125,-0.045,0.699,1.149,-24.23,13.55,-19.68,3,2
18294.14,0.092,0.639,1.004,-19.1,-11.38,-6.35,3,2
18294.156,0.1,0.561,0.881,-16.21,-21.88,2.29,3,2
18294.156,0.17,0.515,0.827,-10.22,-22.61,13.0,3,2
18294.171,0.194,0.457,0.824,-1.5,-19.62,20.26,3,2
18294.187,0.204,0.406,0.832,0.7,-17.94,24.11,3,2
18294.187,0.21,0.357,0.864,-0.85,-18.92,24.14,3,2
18294.203,0.214,0.353,0.912,-3.14,-22.55,21.09,3,2
18294.218,0.194,0.376,0.969,-2.59,-28.02,17.82,3,2
18294.218,0.28,0.413,0.934,0.7,-35.31,15.41,3,2
18294.234,0.297,0.3,0.85,17.18,-34.24,12.21,3,2
18294.234,0.248,0.395,0.883,19.96,-32.35,7.45,3,2
18294.25,0.296,0.448,0.89,22.19,-33.23,10.01,3,2
18294.265,0.296,0.425,0.835,23.8,-34.21,7.2,3,2
18294.265,0.299,0.433,0.795,21.76,-33.75,4.27,3,2
18294.296,0.321,0.462,0.779,12.94,-30.03,-0.18,3,2
18294.296,0.324,0.483,0.756,9.37,-25.85,-1.22,3,2
18294.312,0.343,0.504,0.726,7.69,-20.78,-0.37,3,2
18294.312,0.347,0.511,0.727,5.77,-14.01,0.37,3,2
18294.328,0.337,0.512,0.741,4.91,-7.02,1.71,3,2
18294.343,0.325,0.514,0.769,4.7,-2.08,3.57,3,2
18294.343,0.313,0.518,0.793,2.72,0.61,6.13,3,2
18294.359,0.301,0.503,0.815,0.27,0.95,7.57,3,2
18294.375,0.301,0.482,0.833,-2.62,-0.92,7.69,3,2
18294.39,0.304,0.468,0.829,-5.01,-3.23,7.14,3,2
18294.39,0.313,0.461,0.821,-6.41,-5.01,6.2,3,2
18294.39,0.321,0.447,0.815,-7.75,-5.89,5.13,3,2
18294.406,0.325,0.434,0.804,-8.36,-5.34,3.81,3,2
18294.421,0.329,0.438,0.805,-8.06,-4.12,2.35,3,2
18294.421,0.332,0.446,0.81,-6.87,-2.75,1.37,3,2
18294.437,0.334,0.448,0.814,-5.4,-1.37,1.13,3,2
18294.453,0.329,0.449,0.816,-2.56,1.13,1.53,3,2
18294.468,0.33,0.447,0.81,-1.5,1.98,1.62,3,2
18294.484,0.323,0.449,0.816,-1.04,3.2,1.34,3,2
18294.484,0.308,0.451,0.828,-0.58,3.75,1.1,3,2
18294.5,0.303,0.467,0.837,-1.46,2.84,1.01,3,2
18294.515,0.299,0.464,0.848,-3.14,1.07,0.34,3,2
18294.515,0.296,0.466,0.854,-4.24,-0.98,-1.04,3,2
18294.531,0.297,0.469,0.855,-4.21,-3.23,-1.31,3,2
18294.546,0.297,0.466,0.849,-3.27,-4.82,-0.46,3,2
18294.546,0.298,0.459,0.84,-2.14,-5.65,0.89,3,2
18294.562,0.301,0.454,0.824,-0.73,-5.43,1.8,3,2
18294.562,0.295,0.45,0.809,0.43,-4.43,1.89,3,2
18294.578,0.299,0.447,0.797,0.31,-3.08,1.5,3,2
18294.593,0.304,0.449,0.792,-0.89,-1.28,1.01,3,2
18294.609,0.307,0.452,0.803,-2.32,0.98,0.52,3,2
18294.609,0.305,0.453,0.821,-2.78,2.96,0.85,3,2
18294.625,0.302,0.456,0.838,-2.38,3.6,1.89,3,2
18294.625,0.304,0.46,0.848,-1.34,3.11,2.9,3,2
18294.64,0.297,0.458,0.856,-0.58,2.29,3.17,3,2
18294.656,0.289,0.456,0.867,0.4,0.55,3.48,3,2
18294.656,0.289,0.461,0.867,0.67,-2.59,3.51,3,2
18294.671,0.292,0.458,0.857,0.09,-5.58,3.27,3,2
18294.687,0.298,0.452,0.843,-0.95,-7.66,2.75,3,2
18294.687,0.306,0.445,0.83,-1.43,-9.16,2.96,3,2
18294.703,0.316,0.445,0.816,-1.37,-9.19,3.42,3,2
18294.703,0.327,0.442,0.803,-0.89,-8.09,3.63,3,2
18294.718,0.337,0.438,0.796,-0.27,-5.86,3.81,3,2
18294.734,0.342,0.438,0.792,0.55,-2.93,3.57,3,2
18294.734,0.334,0.432,0.788,1.95,-0.49,3.23,3,2
18294.75,0.347,0.442,0.798,3.36,1.71,3.08,3,2
18294.765,0.355,0.472,0.815,3.3,4.82,1.98,3,2
18294.765,0.338,0.473,0.826,2.41,6.68,0.49,3,2
18294.781,0.303,0.449,0.826,2.5,5.46,0.49,3,2
18294.796,0.313,0.45,0.831,3.08,2.38,2.11,3,2
18294.796,0.337,0.49,0.852,0.49,1.31,3.23,3,2
18294.812,0.319,0.474,0.861,-2.47,0.4,3.14,3,2
18294.812,0.304,0.44,0.86,-2.56,-2.78,4.82,3,2
18294.828,0.312,0.437,0.848,-0.15,-6.68,6.71,3,2
18294.843,0.328,0.438,0.835,1.46,-9.49,6.65,3,2
18294.843,0.343,0.444,0.825,0.82,-9.7,5.07,3,2
18294.859,0.33,0.437,0.812,0.4,-8.88,2.93,3,2
18294.875,0.322,0.42,0.797,1.83,-8.73,2.44,3,2
18294.875,0.341,0.442,0.788,3.72,-7.35,1.71,3,2
18294.89,0.342,0.455,0.781,3.88,-3.66,-0.52,3,2
18294.906,0.329,0.454,0.789,2.04,0.67,-2.9,3,2
18294.906,0.309,0.458,0.803,1.07,3.3,-3.54,3,2
18294.921,0.3,0.467,0.815,0.58,3.69,-2.5,3,2
18294.921,0.301,0.473,0.826,-1.01,3.11,-1.62,3,2
18294.937,0.302,0.47,0.842,-3.51,2.62,-1.25,3,2
18294.953,0.292,0.466,0.858,-4.7,1.28,-0.64,3,2
18294.953,0.291,0.458,0.863,-4.49,-1.43,0.7,3,2
18294.984,0.313,0.439,0.839,-3.88,-5.65,1.68,3,2
18294.984,0.323,0.426,0.825,-3.48,-5.37,0.95,3,2
18295.0,0.331,0.417,0.814,-2.11,-4.24,0.15,3,2
18295.015,0.342,0.412,0.805,0.06,-2.04,-0.76,3,2
18295.015,0.354,0.406,0.801,3.08,1.16,-2.23,3,2
18295.031,0.359,0.41,0.811,4.82,5.52,-4.3,3,2
18295.046,0.368,0.411,0.823,7.17,9.67,-7.23,3,2
18295.046,0.385,0.389,0.811,11.11,13.64,-12.12,3,2
18295.062,0.403,0.376,0.798,15.32,18.65,-17.85,3,2
18295.062,0.416,0.363,0.768,18.98,24.02,-24.23,3,2
18295.078,0.409,0.356,0.74,21.27,30.98,-31.1,3,2
18295.093,0.403,0.364,0.695,23.62,46.78,-45.9,3,2
18295.093,0.36,0.377,0.698,13.25,48.07,-51.36,3,2
18295.109,0.214,0.497,0.844,-0.73,36.56,-46.14,3,2
18295.125,0.104,0.621,0.965,-0.27,23.62,-38.27,3,2
18295.125,0.098,0.723,0.98,-12.33,4.88,-30.0,3,2
18295.14,0.181,0.541,0.763,-0.92,-6.35,-9.28,3,2
18295.156,0.218,0.577,0.751,-2.32,-0.95,1.07,3,2
18295.171,0.214,0.577,0.773,-6.81,2.87,9.06,3,2
18295.187,0.204,0.533,0.803,-11.44,2.56,14.71,3,2
18295.187,0.217,0.536,0.848,-16.39,-0.34,20.17,3,2
18295.203,0.241,0.535,0.882,-18.37,-3.66,23.65,3,2
18295.218,0.245,0.494,0.895,-16.97,-6.29,25.88,3,2
18295.218,0.256,0.444,0.88,-12.88,-8.82,27.56,3,2
18295.234,0.274,0.396,0.871,-6.9,-11.17,27.56,3,2
18295.25,0.29,0.383,0.89,-2.35,-13.0,25.61,3,2
18295.25,0.289,0.399,0.934,-0.49,-15.2,21.42,3,2
18295.265,0.272,0.46,0.971,-1.34,-22.61,17.43,3,2
18295.265,0.38,0.394,0.904,6.26,-28.2,17.7,3,2
18295.281,0.318,0.354,0.883,20.02,-26.34,15.47,3,2
18295.296,0.32,0.458,0.933,26.52,-25.3,18.86,3,2
18295.296,0.347,0.48,0.905,41.87,-24.23,26.34,3,2
18295.312,0.383,0.455,0.897,53.5,-18.77,30.88,3,2
18295.328,0.403,0.479,0.921,61.65,-14.56,33.81,3,2
18295.343,0.439,0.486,0.948,71.11,-11.41,38.36,3,2
18295.343,0.462,0.518,0.963,79.87,-8.45,45.9,3,2
18295.359,0.508,0.582,0.956,83.35,-7.32,55.73,3,2
18295.375,0.569,0.686,0.943,78.43,-4.88,63.39,3,2
18295.375,0.57,0.746,0.936,64.7,-0.92,68.21,3,2
18295.39,0.636,0.815,0.957,43.98,1.98,72.94,3,2
18295.406,0.713,0.953,1.023,4.03,3.97,97.69,3,2
18295.406,0.568,0.948,1.044,-38.24,10.13,110.29,3,2
18295.421,0.698,0.84,1.112,-72.15,-2.69,124.03,3,2
18295.421,0.684,0.851,1.13,-106.45,-4.06,145.73,3,2
18295.437,0.576,0.685,1.11,-144.32,-10.28,162.94,3,2
18295.453,0.597,0.548,1.11,-171.39,-26.25,177.16,3,2
18295.453,0.601,0.443,1.096,-184.0,-40.31,188.33,3,2
18295.468,0.656,0.399,1.033,-186.16,-54.63,191.96,3,2
18295.484,0.614,0.251,0.944,-182.23,-64.64,194.59,3,2
18295.484,0.564,0.118,0.86,-178.2,-76.69,202.15,3,2
18295.5,0.598,0.057,0.789,-173.53,-92.1,211.13,3,2
18295.515,0.619,0.052,0.709,-165.99,-102.27,216.01,3,2
18295.515,0.585,-0.006,0.638,-158.45,-109.1,218.12,3,2
18295.531,0.554,-0.071,0.586,-153.32,-117.34,222.3,3,2
18295.546,0.519,-0.12,0.519,-149.14,-125.49,227.36,3,2
18295.546,0.522,-0.156,0.458,-146.55,-131.57,233.31,3,2
18295.562,0.543,-0.186,0.396,-145.57,-132.54,237.92,3,2
18295.578,0.568,-0.249,0.323,-147.43,-124.45,241.13,3,2
18295.578,0.565,-0.291,0.306,-151.4,-108.89,244.82,3,2
18295.593,0.511,-0.328,0.315,-150.64,-93.02,247.02,3,2
18295.593,0.507,-0.373,0.3,-149.57,-80.26,247.14,3,2
18295.609,0.541,-0.403,0.297,-153.84,-66.74,243.78,3,2
18295.625,0.577,-0.459,0.306,-158.79,-48.13,235.57,3,2
18295.625,0.595,-0.508,0.325,-159.61,-24.23,223.0,3,2
18295.656,0.535,-0.596,0.431,-133.92,21.64,192.18,3,2
18295.656,0.483,-0.579,0.487,-109.47,40.28,176.76,3,2
18295.671,0.462,-0.537,0.517,-83.71,54.08,163.46,3,2
18295.687,0.426,-0.437,0.544,-68.64,66.56,152.32,3,2
18295.687,0.346,-0.386,0.552,-69.86,76.85,142.64,3,2
18295.703,0.335,-0.368,0.597,-85.79,80.45,137.46,3,2
18295.703,0.303,-0.388,0.655,-100.68,82.89,135.69,3,2
18295.718,0.281,-0.452,0.692,-106.85,85.63,138.1,3,2
18295.734,0.321,-0.516,0.714,-107.33,88.56,141.09,3,2
18295.734,0.339,-0.558,0.716,-102.97,94.64,140.39,3,2
18295.75,0.3,-0.581,0.73,-98.45,101.26,134.83,3,2
18295.765,0.275,-0.611,0.744,-95.25,102.76,125.25,3,2
18295.765,0.284,-0.601,0.787,-92.2,101.41,113.74,3,2
18295.781,0.257,-0.551,0.846,-84.11,98.94,101.47,3,2
18295.781,0.252,-0.482,0.886,-76.08,93.02,93.63,3,2
18295.796,0.245,-0.396,0.892,-74.16,85.7,93.3,3,2
18295.812,0.264,-0.356,0.843,-78.98,79.17,102.18,3,2
18295.828,0.265,-0.363,0.776,-91.92,76.72,116.7,3,2
18295.828,0.27,-0.433,0.729,-107.64,75.26,129.18,3,2
18295.843,0.284,-0.545,0.719,-117.28,73.34,136.02,3,2
18295.859,0.275,-0.644,0.744,-112.55,71.9,135.41,3,2
18295.859,0.242,-0.69,0.776,-95.95,67.87,129.49,3,2
18295.875,0.189,-0.739,0.784,-75.26,60.79,121.89,3,2
18295.875,0.131,-0.768,0.752,-57.71,50.97,113.83,3,2
18295.89,0.078,-0.789,0.679,-47.52,38.73,104.13,3,2
18295.906,0.04,-0.848,0.628,-44.53,26.31,92.56,3,2
18295.906,-0.003,-0.904,0.585,-41.14,14.89,78.46,3,2
18295.921,-0.002,-0.943,0.536,-32.26,3.81,63.23,3,2
18295.937,0.01,-0.935,0.484,-20.26,-4.21,49.04,3,2
18295.937,-0.005,-0.913,0.446,-10.86,-8.06,38.21,3,2
18295.953,-0.007,-0.888,0.438,-5.1,-10.62,30.34,3,2
18295.953,-0.02,-0.873,0.421,-2.32,-11.29,26.28,3,2
18295.984,-0.021,-0.893,0.413,-7.69,-10.19,21.79,3,2
18295.984,0.001,-0.922,0.418,-7.84,-8.51,18.68,3,2
18296.0,0.023,-0.924,0.435,-6.1,-5.68,14.68,3,2
18296.015,0.026,-0.918,0.476,-4.64,-3.54,9.67,3,2
18296.015,0.007,-0.926,0.504,-1.89,-2.84,4.21,3,2
18296.031,-0.002,-0.891,0.52,-0.4,-3.85,-0.27,3,2
18296.046,-0.014,-0.873,0.523,-0.92,-7.02,-4.82,3,2
18296.046,-0.025,-0.875,0.516,-1.43,-10.86,-8.58,3,2
18296.062,-0.046,-0.865,0.499,-0.52,-14.13,-11.6,3,2
18296.062,-0.054,-0.873,0.473,2.66,-18.22,-16.08,3,2
18296.078,-0.026,-0.875,0.466,7.78,-17.88,-19.71,3,2
18296.093,-0.023,-0.864,0.435,8.51,-16.17,-21.42,3,2
18296.093,0.004,-0.836,0.444,7.72,-13.49,-22.16,3,2
18296.109,-0.008,-0.8,0.486,7.54,-10.83,-19.65,3,2
18296.125,-0.007,-0.799,0.509,5.19,-9.55,-14.92,3,2
18296.125,-0.006,-0.816,0.494,3.14,-9.19,-11.32,3,2
18296.156,-0.026,-0.877,0.47,-0.52,-8.24,-11.11,3,2
18296.156,-0.007,-0.905,0.468,2.23,-8.0,-13.12,3,2
18296.171,0.03,-0.872,0.48,6.38,-5.46,-13.73,3,2
18296.171,0.021,-0.833,0.503,7.2,-1.37,-13.03,3,2
18296.187,-0.004,-0.829,0.513,5.4,1.28,-9.31,3,2
18296.203,-0.009,-0.836,0.5,0.98,2.96,-3.42,3,2
18296.218,-0.012,-0.865,0.483,-2.78,4.97,0.73,3,2
18296.218,-0.009,-0.892,0.469,-3.36,8.3,4.21,3,2
18296.234,0.026,-0.893,0.476,-2.87,12.36,5.46,3,2
18296.234,0.041,-0.89,0.481,-1.4,17.09,3.97,3,2
18296.25,0.03,-0.882,0.489,-1.83,21.36,3.39,3,2
18296.265,0.036,-0.896,0.486,-5.98,24.05,3.27,3,2
18296.265,0.034,-0.932,0.472,-9.16,25.12,0.49,3,2
18296.281,0.017,-0.961,0.444,-10.04,25.33,-5.74,3,2
18296.296,0.04,-0.96,0.454,-8.21,26.25,-13.89,3,2
18296.296,0.019,-0.923,0.457,-4.55,29.24,-20.63,3,2
18296.312,0.004,-0.883,0.463,-5.43,32.01,-25.09,3,2
18296.328,0.027,-0.839,0.482,-8.58,34.09,-27.07,3,2
18296.328,0.04,-0.784,0.463,-12.39,37.78,-24.84,3,2
18296.343,0.078,-0.76,0.438,-19.71,43.52,-18.52,3,2
18296.343,0.123,-0.75,0.458,-27.07,52.52,-9.4,3,2
18296.359,0.111,-0.736,0.527,-32.69,62.47,1.13,3,2
18296.375,0.087,-0.742,0.667,-35.74,67.14,11.51,3,2
18296.375,0.069,-0.845,0.835,-28.81,61.98,17.33,3,2
18296.39,0.07,-0.853,0.767,-15.59,46.24,18.52,3,2
18296.406,0.081,-0.884,0.718,-19.07,29.73,15.75,3,2
18296.406,0.058,-1.037,0.693,-23.74,17.24,6.62,3,2
18296.421,0.033,-1.074,0.631,-15.53,8.36,-4.79,3,2
18296.421,0.029,-1.004,0.574,-2.04,3.33,-14.95,3,2
18296.437,0.014,-0.93,0.562,6.41,-0.37,-22.98,3,2
18296.453,0.007,-0.896,0.579,11.44,-4.49,-26.06,3,2
18296.468,0.014,-0.864,0.569,13.89,-9.55,-24.63,3,2
18296.468,0.016,-0.865,0.557,12.6,-15.17,-23.07,3,2
18296.484,-0.009,-0.874,0.534,10.83,-20.08,-22.49,3,2
18296.484,0.0,-0.867,0.481,8.88,-23.93,-21.21,3,2
18296.5,0.049,-0.859,0.439,7.45,-24.57,-19.17,3,2
18296.515,0.052,-0.857,0.423,6.29,-20.81,-16.21,3,2
18296.515,0.046,-0.845,0.439,4.03,-16.05,-12.09,3,2
18296.531,0.014,-0.828,0.474,3.94,-13.46,-7.72,3,2
18296.546,-0.03,-0.838,0.466,3.54,-13.37,-2.62,3,2
18296.546,-0.015,-0.842,0.446,1.5,-14.16,2.35,3,2
18296.562,-0.016,-0.853,0.453,1.04,-13.25,6.47,3,2
18296.562,-0.031,-0.886,0.459,2.81,-11.6,10.1,3,2
18296.578,0.004,-0.894,0.426,4.3,-11.32,12.27,3,2
18296.593,0.014,-0.905,0.411,3.08,-10.1,11.63,3,2
18296.609,-0.02,-0.936,0.413,0.43,-7.75,9.55,3,2
18296.609,-0.018,-0.947,0.414,0.34,-5.8,7.29,3,2
18296.625,-0.01,-0.934,0.409,2.87,-3.39,4.67,3,2
18296.625,0.001,-0.918,0.425,3.17,-0.95,3.14,3,2
18296.64,-0.003,-0.913,0.437,1.01,1.01,2.5,3,2
18296.656,-0.013,-0.922,0.446,-1.01,2.04,1.8,3,2
18296.656,-0.026,-0.934,0.454,-0.85,2.41,0.46,3,2
18296.671,-0.025,-0.93,0.446,1.04,2.23,-1.5,3,2
18296.687,-0.001,-0.919,0.441,3.27,2.84,-3.39,3,2
18296.687,0.012,-0.894,0.461,4.21,4.36,-5.34,3,2
18296.703,0.011,-0.875,0.479,4.67,5.19,-6.1,3,2
18296.703,-0.016,-0.877,0.466,4.49,4.91,-4.49,3,2
18296.718,-0.012,-0.91,0.438,2.53,4.76,-3.45,3,2
18296.734,0.032,-0.921,0.428,2.01,5.89,-3.66,3,2
18296.734,0.046,-0.902,0.434,2.81,8.76,-5.62,3,2
18296.75,0.037,-0.878,0.478,2.59,10.9,-7.32,3,2
18296.765,0.028,-0.86,0.514,3.42,10.74,-6.71,3,2
18296.765,0.041,-0.848,0.518,4.27,8.24,-4.82,3,2
18296.781,0.046,-0.854,0.507,4.09,5.98,-2.99,3,2
18296.781,0.033,-0.862,0.481,2.66,4.12,-2.41,3,2
18296.796,0.035,-0.875,0.472,1.53,3.42,-3.2,3,2
18296.812,0.039,-0.869,0.464,3.11,4.43,-3.02,3,2
18296.828,0.055,-0.851,0.477,2.84,5.71,-1.22,3,2
18296.828,0.079,-0.85,0.497,1.46,6.07,0.24,3,2
18296.843,0.073,-0.847,0.504,1.65,6.13,1.56,3,2
18296.843,0.036,-0.856,0.505,1.25,5.8,3.27,3,2
18296.859,0.002,-0.88,0.48,-1.46,5.07,5.31,3,2
18296.875,-0.017,-0.911,0.449,-6.44,5.28,6.68,3,2
18296.875,-0.002,-0.95,0.456,-10.1,6.74,6.74,3,2
18296.89,0.021,-0.961,0.531,-8.79,8.42,5.74,3,2
18296.906,0.044,-0.945,0.536,-3.6,6.29,3.33,3,2
18296.906,0.066,-0.901,0.545,-4.58,2.56,1.04,3,2
18296.921,0.044,-0.92,0.559,-5.71,-1.19,-1.62,3,2
18296.921,0.056,-0.917,0.548,-4.7,-4.97,-3.23,3,2
18296.937,0.062,-0.921,0.534,-1.16,-6.9,-5.34,3,2
18296.953,0.077,-0.913,0.52,1.8,-7.14,-6.59,3,2
18296.953,0.06,-0.897,0.519,3.08,-6.26,-7.9,3,2
18296.968,0.042,-0.901,0.52,3.97,-5.22,-7.72,3,2
18296.984,0.037,-0.902,0.502,3.17,-4.7,-6.71,3,2
18296.984,0.041,-0.912,0.477,1.5,-3.69,-6.56,3,2
18297.0,0.03,-0.9,0.475,1.28,-1.98,-6.13,3,2
18297.015,0.014,-0.878,0.484,0.85,-1.95,-4.36,3,2
18297.015,0.023,-0.872,0.481,-0.82,-3.81,-2.35,3,2
18297.031,0.029,-0.869,0.475,-1.77,-5.68,0.15,3,2
18297.046,0.013,-0.877,0.445,-2.78,-6.81,2.08,3,2
18297.046,0.011,-0.891,0.434,-3.69,-6.41,2.66,3,2
18297.062,-0.007,-0.901,0.435,2.38,-3.02,2.69,3,2
18297.062,-0.014,-0.878,0.418,1.89,-1.5,2.84,3,2
18297.093,0.01,-0.875,0.421,2.44,0.09,3.27,3,2
18297.093,0.019,-0.879,0.439,3.27,1.04,3.88,3,2
18297.093,0.012,-0.877,0.453,3.39,0.7,4.09,3,2
18297.109,-0.005,-0.883,0.454,3.11,-0.34,4.18,3,2
18297.125,-0.013,-0.898,0.433,1.68,-1.25,3.78,3,2
18297.125,0.013,-0.919,0.42,1.19,-0.85,2.29,3,2
18297.14,0.037,-0.904,0.435,3.02,1.65,-0.79,3,2
18297.156,0.026,-0.877,0.483,5.04,4.36,-3.69,3,2
18297.156,0.042,-0.871,0.545,7.78,3.42,-4.55,3,2
18297.171,0.066,-0.841,0.524,10.16,-1.13,-5.22,3,2
18297.171,0.075,-0.859,0.526,8.15,-5.46,-7.14,3,2
18297.187,0.035,-0.889,0.487,8.76,-7.6,-9.4,3,2
18297.203,0.037,-0.881,0.451,8.51,-7.14,-9.58,3,2
18297.203,0.051,-0.885,0.458,6.93,-3.94,-9.89,3,2
18297.218,0.042,-0.878,0.499,7.35,-0.15,-9.4,3,2
18297.234,0.046,-0.87,0.535,9.19,0.67,-8.58,3,2
18297.234,0.057,-0.876,0.578,11.08,-1.56,-8.82,3,2
18297.25,0.045,-0.888,0.595,13.15,-5.98,-9.92,3,2
18297.265,0.057,-0.905,0.576,13.0,-11.63,-11.9,3,2
18297.265,0.075,-0.912,0.558,12.76,-16.14,-15.5,3,2
18297.281,0.07,-0.9,0.538,15.38,-18.19,-18.92,3,2
18297.296,0.07,-0.858,0.532,17.37,-18.68,-19.62,3,2
18297.296,0.05,-0.837,0.522,16.91,-18.31,-17.49,3,2
18297.312,0.028,-0.829,0.508,13.79,-17.64,-13.82,3,2
18297.312,0.025,-0.833,0.511,11.54,-17.0,-10.04,3,2
18297.328,0.0,-0.852,0.48,10.83,-15.41,-6.62,3,2
18297.343,0.01,-0.863,0.447,7.66,-12.3,-4.0,3,2
18297.359,0.058,-0.877,0.452,5.46,-7.75,-2.14,3,2
18297.359,0.085,-0.873,0.488,5.55,-2.44,-1.68,3,2
18297.375,0.098,-0.869,0.558,6.38,0.61,-2.01,3,2
18297.375,0.103,-0.872,0.623,8.82,-1.07,-2.72,3,2
18297.39,0.106,-0.873,0.664,11.02,-6.93,-4.09,3,2
18297.406,0.078,-0.877,0.659,11.84,-15.35,-7.08,3,2
18297.406,0.054,-0.888,0.605,10.9,-23.29,-10.16,3,2
18297.421,0.062,-0.884,0.542,8.55,-27.38,-13.0,3,2
18297.421,0.078,-0.885,0.505,8.03,-25.85,-14.92,3,2
18297.437,0.081,-0.862,0.504,9.16,-20.14,-14.62,3,2
18297.453,0.085,-0.83,0.529,10.28,-14.8,-12.63,3,2
18297.453,0.095,-0.808,0.575,10.5,-12.36,-9.8,3,2
18297.468,0.114,-0.795,0.618,10.71,-13.25,-6.74,3,2
18297.484,0.128,-0.761,0.648,11.6,-16.3,-3.81,3,2
18297.484,0.104,-0.73,0.641,11.84,-20.11,0.55,3,2
18297.5,0.07,-0.742,0.599,7.9,-23.41,7.32,3,2
18297.515,0.078,-0.804,0.549,2.75,-24.26,14.04,3,2
18297.515,0.113,-0.858,0.524,1.4,-21.79,17.7,3,2
18297.531,0.13,-0.88,0.544,3.05,-17.61,17.09,3,2
18297.546,0.126,-0.879,0.599,5.22,-15.72,13.86,3,2
18297.546,0.123,-0.865,0.641,7.75,-17.91,9.61,3,2
18297.562,0.126,-0.844,0.667,10.19,-23.29,5.28,3,2
18297.562,0.091,-0.814,0.648,11.47,-28.66,2.78,3,2
18297.578,0.073,-0.812,0.602,10.04,-32.35,4.12,3,2
18297.593,0.09,-0.823,0.572,7.42,-32.99,7.66,3,2
18297.609,0.105,-0.819,0.549,6.68,-31.25,9.77,3,2
18297.609,0.119,-0.807,0.56,7.75,-28.57,11.17,3,2
18297.625,0.136,-0.792,0.598,8.76,-26.03,12.76,3,2
18297.625,0.122,-0.791,0.641,8.7,-25.27,14.13,3,2
18297.64,0.09,-0.826,0.651,7.48,-27.04,15.5,3,2
18297.656,0.066,-0.883,0.646,5.55,-30.73,16.11,3,2
18297.656,0.074,-0.943,0.633,4.94,-35.34,12.94,3,2
18297.671,0.104,-0.965,0.621,8.21,-40.25,4.91,3,2
18297.671,0.124,-0.922,0.615,14.19,-44.1,-6.04,3,2
18297.687,0.122,-0.833,0.618,19.41,-46.91,-15.2,3,2
18297.703,0.117,-0.751,0.606,21.58,-48.31,-17.37,3,2
18297.703,0.119,-0.689,0.568,18.8,-47.24,-11.08,3,2
18297.718,0.134,-0.685,0.538,11.38,-42.94,1.43,3,2
18297.734,0.13,-0.708,0.535,5.19,-35.86,15.47,3,2
18297.75,0.112,-0.737,0.534,1.31,-28.66,27.71,3,2
18297.75,0.103,-0.794,0.549,-2.5,-23.68,36.04,3,2
18297.765,0.105,-0.848,0.578,-4.39,-21.33,39.12,3,2
18297.765,0.103,-0.877,0.581,-2.93,-21.61,36.62,3,2
18297.781,0.094,-0.883,0.569,-0.37,-23.77,30.7,3,2
18297.796,0.103,-0.872,0.571,2.44,-26.22,23.87,3,2
18297.796,0.093,-0.838,0.563,5.1,-27.01,18.8,3,2
18297.812,0.103,-0.802,0.554,5.77,-26.31,17.94,3,2
18297.812,0.111,-0.771,0.564,3.78,-23.74,20.51,3,2
18297.828,0.107,-0.767,0.582,1.07,-21.39,24.63,3,2
18297.843,0.114,-0.781,0.585,-0.18,-20.02,29.36,3,2
18297.843,0.124,-0.797,0.591,-1.01,-18.77,33.11,3,2
18297.859,0.097,-0.816,0.599,-1.62,-18.19,34.03,3,2
18297.875,0.059,-0.846,0.583,-2.04,-19.56,33.81,3,2
18297.89,0.081,-0.873,0.574,-1.19,-22.74,32.47,3,2
18297.89,0.114,-0.885,0.556,1.71,-23.99,28.72,3,2
18297.906,0.121,-0.874,0.554,3.97,-22.43,23.41,3,2
18297.906,0.115,-0.851,0.579,4.85,-19.99,18.77,3,2
18297.921,0.107,-0.818,0.611,4.46,-18.95,15.87,3,2
18297.937,0.078,-0.794,0.639,3.6,-20.2,14.68,3,2
18297.937,0.055,-0.783,0.641,2.47,-24.38,15.41,3,2
18297.953,0.046,-0.786,0.599,0.27,-30.15,16.63,3,2
18297.953,0.028,-0.812,0.523,-4.15,-34.76,17.49,3,2
18297.968,0.046,-0.841,0.465,-10.56,-36.13,18.16,3,2
18297.984,0.061,-0.845,0.426,-16.91,-33.45,17.21,3,2
18297.984,0.067,-0.858,0.423,-23.87,-28.87,15.08,3,2
18298.0,0.069,-0.865,0.449,-27.65,-24.75,12.45,3,2
18298.015,0.069,-0.862,0.489,-27.22,-23.5,8.76,3,2
18298.015,0.084,-0.852,0.523,-24.57,-24.45,5.89,3,2
18298.031,0.084,-0.872,0.525,-14.47,-25.94,4.88,3,2
18298.046,0.109,-0.844,0.508,1.68,-26.43,6.32,3,2
18298.046,0.126,-0.808,0.489,1.83,-24.6,8.82,3,2
18298.062,0.128,-0.815,0.464,0.4,-21.03,13.09,3,2
18298.078,0.123,-0.832,0.44,-0.27,-16.54,17.91,3,2
18298.078,0.124,-0.861,0.454,0.34,-11.75,21.91,3,2
18298.093,0.122,-0.875,0.458,0.15,-8.3,24.14,3,2
18298.093,0.126,-0.894,0.466,-0.49,-6.32,23.35,3,2
18298.109,0.12,-0.912,0.482,0.09,-5.55,20.05,3,2
18298.125,0.119,-0.915,0.495,1.28,-6.29,15.72,3,2
18298.125,0.102,-0.907,0.51,3.54,-7.66,10.93,3,2
18298.14,0.08,-0.898,0.514,6.29,-9.92,8.27,3,2
18298.14,0.067,-0.88,0.512,7.57,-13.25,8.24,3,2
18298.156,0.063,-0.885,0.484,7.2,-16.24,9.58,3,2
18298.171,0.088,-0.895,0.453,5.8,-17.4,11.93,3,2
18298.187,0.113,-0.898,0.442,4.58,-15.32,13.49,3,2
18298.187,0.125,-0.902,0.453,3.45,-11.57,13.31,3,2
18298.203,0.124,-0.89,0.493,3.39,-8.51,11.38,3,2
18298.203,0.11,-0.871,0.53,4.46,-7.2,9.64,3,2
18298.218,0.119,-0.859,0.552,4.09,-9.22,8.88,3,2
18298.234,0.13,-0.859,0.563,3.72,-12.09,8.55,3,2
18298.25,0.133,-0.865,0.56,4.61,-13.98,8.88,3,2
18298.25,0.144,-0.858,0.555,4.49,-15.26,9.13,3,2
18298.265,0.117,-0.865,0.547,3.14,-15.69,8.76,3,2
18298.265,0.107,-0.889,0.533,1.98,-17.18,9.16,3,2
18298.281,0.126,-0.9,0.52,2.5,-18.65,8.58,3,2
18298.281,0.136,-0.899,0.507,3.81,-18.1,6.07,3,2
18298.296,0.13,-0.886,0.505,4.73,-16.79,3.27,3,2
18298.312,0.123,-0.861,0.531,5.01,-15.56,1.89,3,2
18298.312,0.112,-0.837,0.559,5.25,-16.39,1.59,3,2
18298.328,0.096,-0.832,0.552,5.13,-18.07,2.9,3,2
18298.343,0.088,-0.832,0.55,2.81,-19.65,5.52,3,2
18298.343,0.089,-0.848,0.541,0.95,-21.18,7.6,3,2
18298.359,0.091,-0.867,0.517,1.25,-22.28,8.88,3,2
18298.375,0.115,-0.871,0.508,2.35,-22.61,9.28,3,2
18298.375,0.133,-0.867,0.509,3.91,-22.22,7.66,3,2
18298.39,0.126,-0.861,0.511,4.85,-21.15,5.46,3,2
18298.406,0.123,-0.856,0.506,4.3,-20.29,4.52,3,2
18298.406,0.12,-0.862,0.489,2.84,-18.83,4.7,3,2
18298.421,0.119,-0.871,0.484,0.79,-16.48,5.37,3,2
18298.421,0.107,-0.869,0.492,-0.18,-13.92,6.47,3,2
18298.437,0.083,-0.874,0.495,-0.03,-11.9,7.97,3,2
18298.453,0.075,-0.881,0.503,-1.01,-11.35,9.43,3,2
18298.453,0.072,-0.885,0.535,-0.58,-12.18,9.86,3,2
18298.468,0.068,-0.889,0.549,1.98,-14.28,9.98,3,2
18298.484,0.092,-0.886,0.536,3.08,-17.18,9.55,3,2
18298.484,0.119,-0.885,0.512,3.02,-18.62,7.35,3,2
18298.5,0.122,-0.878,0.497,2.9,-17.67,4.97,3,2
18298.515,0.131,-0.869,0.481,3.02,-15.66,3.51,3,2
18298.515,0.134,-0.858,0.468,2.23,-12.42,2.78,3,2
18298.531,0.12,-0.86,0.468,0.55,-8.51,2.69,3,2
18298.546,0.1,-0.858,0.487,-0.37,-5.28,3.45,3,2
18298.546,0.078,-0.859,0.51,-0.61,-3.75,4.79,3,2
18298.562,0.07,-0.869,0.522,0.15,-4.0,6.1,3,2
18298.578,0.08,-0.864,0.536,1.4,-5.34,6.87,3,2
18298.578,0.088,-0.858,0.546,2.47,-6.47,6.23,3,2
18298.593,0.09,-0.862,0.548,4.09,-7.17,4.97,3,2
18298.593,0.09,-0.85,0.558,5.86,-7.51,4.7,3,2
18298.609,0.093,-0.834,0.566,7.57,-8.03,4.61,3,2
18298.625,0.099,-0.821,0.561,8.03,-8.67,4.73,3,2
18298.625,0.111,-0.821,0.549,7.26,-9.37,5.13,3,2
18298.64,0.116,-0.82,0.54,6.41,-8.88,6.2,3,2
18298.656,0.102,-0.83,0.529,6.56,-7.66,7.84,3,2
18298.656,0.089,-0.838,0.517,7.11,-6.68,9.83,3,2
18298.671,0.081,-0.843,0.498,7.08,-5.77,11.66,3,2
18298.687,0.083,-0.853,0.488,5.34,-4.82,12.24,3,2
18298.687,0.085,-0.861,0.494,3.39,-3.6,11.26,3,2
18298.703,0.075,-0.864,0.499,2.14,-2.17,10.1,3,2
18298.703,0.074,-0.876,0.505,0.7,-0.92,9.19,3,2
18298.718,0.077,-0.887,0.532,1.28,-0.09,8.61,3,2
18298.734,0.076,-0.875,0.548,4.12,0.37,7.81,3,2
18298.734,0.076,-0.857,0.565,5.68,0.12,6.99,3,2
18298.75,0.079,-0.857,0.572,5.28,-1.31,6.62,3,2
18298.765,0.093,-0.853,0.572,3.08,-3.54,7.08,3,2
18298.765,0.109,-0.853,0.568,0.15,-4.7,7.29,3,2
18298.781,0.112,-0.863,0.573,-2.2,-4.7,7.2,3,2
18298.781,0.103,-0.869,0.572,-3.85,-4.58,6.78,3,2
18298.796,0.103,-0.869,0.576,-5.89,-5.22,6.29,3,2
18298.812,0.098,-0.879,0.578,-7.81,-6.01,5.49,3,2
18298.828,0.101,-0.895,0.584,-8.12,-7.2,5.07,3,2
18298.828,0.102,-0.901,0.586,-5.62,-8.06,4.49,3,2
18298.843,0.096,-0.894,0.586,-2.32,-8.88,3.78,3,2
18298.843,0.093,-0.88,0.585,0.09,-10.32,2.96,3,2
18298.859,0.09,-0.864,0.571,1.37,-12.45,1.83,3,2
18298.875,0.097,-0.855,0.545,1.16,-14.56,1.13,3,2
18298.875,0.109,-0.847,0.527,-0.12,-15.63,0.61,3,2
18298.89,0.111,-0.846,0.509,-0.52,-14.86,0.15,3,2
18298.906,0.097,-0.839,0.493,-0.09,-12.91,0.89,3,2
18298.906,0.089,-0.833,0.481,-0.76,-11.17,3.02,3,2
18298.921,0.094,-0.83,0.488,-3.05,-9.83,4.97,3,2
18298.937,0.087,-0.838,0.493,-4.39,-8.27,5.83,3,2
18298.937,0.088,-0.849,0.5,-4.52,-7.97,6.47,3,2
18298.953,0.093,-0.844,0.516,-3.72,-7.78,6.78,3,2
18298.953,0.088,-0.837,0.523,-2.87,-7.17,6.99,3,2
18298.968,0.089,-0.832,0.534,-4.58,-7.2,8.03,3,2
18298.984,0.1,-0.834,0.53,-7.72,-7.51,8.7,3,2
18298.984,0.101,-0.843,0.519,-9.95,-6.65,9.16,3,2
18299.0,0.098,-0.844,0.522,-10.96,-5.28,9.95,3,2
18299.015,0.089,-0.84,0.529,-10.32,-4.85,10.96,3,2
18299.031,0.081,-0.849,0.518,-8.88,-7.69,12.63,3,2
18299.031,0.093,-0.862,0.507,-7.35,-8.03,11.72,3,2
18299.046,0.103,-0.874,0.502,-5.01,-7.48,9.98,3,2
18299.046,0.099,-0.879,0.498,-3.85,-7.48,8.0,3,2
18299.062,0.1,-0.878,0.508,-2.96,-7.51,5.62,3,2
18299.062,0.076,-0.872,0.518,-1.59,-7.45,4.03,3,2
18299.078,0.076,-0.86,0.521,-1.34,-9.03,4.18,3,2
18299.093,0.091,-0.854,0.516,-1.86,-10.83,4.21,3,2
18299.093,0.094,-0.859,0.508,-0.7,-11.44,4.33,3,2
18299.109,0.098,-0.849,0.505,1.56,-11.29,5.13,3,2
18299.125,0.103,-0.833,0.51,3.48,-10.38,6.13,3,2
18299.125,0.1,-0.826,0.509,4.52,-9.74,7.32,3,2
18299.14,0.103,-0.824,0.511,4.27,-9.16,8.76,3,2
18299.156,0.102,-0.828,0.514,3.27,-8.15,10.1,3,2
18299.156,0.093,-0.841,0.518,2.84,-6.9,11.75,3,2
18299.171,0.088,-0.846,0.525,2.38,-5.46,14.22,3,2
18299.171,0.071,-0.847,0.534,1.37,-4.49,15.69,3,2
18299.187,0.051,-0.861,0.546,-0.03,-5.86,16.17,3,2
18299.203,0.054,-0.875,0.548,-0.79,-9.31,16.05,3,2
18299.218,0.066,-0.888,0.529,0.21,-12.15,14.83,3,2
18299.218,0.077,-0.894,0.499,1.83,-13.06,13.21,3,2
18299.234,0.084,-0.894,0.478,1.92,-11.81,12.18,3,2
18299.234,0.078,-0.894,0.47,1.25,-8.76,11.2,3,2
18299.25,0.053,-0.893,0.476,0.82,-5.04,10.44,3,2
18299.265,0.032,-0.886,0.491,0.89,-2.5,10.41,3,2
18299.265,0.02,-0.883,0.496,0.61,-1.77,10.77,3,2
18299.281,0.015,-0.888,0.501,-0.82,-2.14,10.38,3,2
18299.281,0.01,-0.896,0.514,-1.53,-3.36,9.22,3,2
18299.296,0.014,-0.894,0.521,-1.22,-5.01,7.9,3,2
18299.312,0.014,-0.888,0.519,-0.06,-6.71,5.86,3,2
18299.312,0.017,-0.886,0.511,1.31,-8.58,3.91,3,2
18299.328,0.028,-0.877,0.5,2.26,-9.64,2.66,3,2
18299.343,0.034,-0.87,0.485,2.59,-8.94,2.38,3,2
18299.343,0.042,-0.868,0.481,2.14,-6.96,3.05,3,2
18299.359,0.042,-0.863,0.485,0.67,-4.0,4.24,3,2
18299.375,0.04,-0.867,0.486,-1.4,-1.13,5.92,3,2
18299.375,0.031,-0.872,0.494,-3.78,1.28,7.51,3,2
18299.39,0.022,-0.876,0.511,-5.65,2.29,7.97,3,2
18299.406,0.017,-0.89,0.526,-6.38,1.04,7.2,3,2
18299.406,0.024,-0.905,0.516,-5.16,-1.43,5.71,3,2
18299.421,0.047,-0.908,0.507,-3.3,-3.3,3.36,3,2
18299.421,0.054,-0.895,0.492,-1.22,-3.33,-0.27,3,2
18299.437,0.043,-0.89,0.486,-0.55,-2.01,-2.87,3,2
18299.453,0.046,-0.883,0.494,-1.5,0.31,-3.02,3,2
18299.453,0.047,-0.867,0.502,-2.29,1.04,-3.36,3,2
18299.468,0.036,-0.866,0.503,-2.29,2.08,-3.57,3,2
18299.484,0.036,-0.853,0.495,-2.26,2.14,-3.11,3,2
18299.484,0.044,-0.849,0.492,-2.47,0.98,-2.96,3,2
18299.5,0.033,-0.847,0.491,-2.62,1.28,-2.35,3,2
18299.515,0.037,-0.842,0.49,-2.84,0.95,-1.07,3,2
18299.515,0.05,-0.842,0.498,-2.96,0.4,0.03,3,2
18299.531,0.047,-0.842,0.503,-2.69,-0.34,0.37,3,2
18299.531,0.042,-0.852,0.511,-2.29,-1.56,0.79,3,2
18299.546,0.056,-0.86,0.51,-2.69,-3.14,1.59,3,2
18299.562,0.072,-0.866,0.502,-2.38,-4.0,1.04,3,2
18299.562,0.075,-0.871,0.496,-0.76,-3.3,-0.15,3,2
18299.578,0.085,-0.873,0.489,0.31,-2.44,-1.25,3,2
18299.593,0.098,-0.872,0.483,0.18,-0.98,-2.69,3,2
18299.593,0.097,-0.869,0.482,-0.7,1.25,-4.18,3,2
18299.609,0.085,-0.874,0.49,-1.4,3.51,-4.94,3,2
18299.625,0.078,-0.874,0.511,-1.74,4.7,-4.88,3,2
18299.64,0.063,-0.868,0.53,-0.98,4.64,-4.52,3,2
18299.64,0.05,-0.871,0.539,0.03,2.75,-4.06,3,2
18299.64,0.059,-0.873,0.548,-0.21,-0.95,-3.94,3,2
18299.656,0.073,-0.879,0.544,-0.18,-4.36,-5.07,3,2
18299.671,0.078,-0.884,0.529,0.98,-6.1,-5.92,3,2
18299.671,0.082,-0.878,0.521,2.17,-6.38,-5.89,3,2
18299.687,0.09,-0.869,0.507,1.53,-6.04,-5.62,3,2
18299.703,0.082,-0.869,0.497,-0.55,-5.37,-5.74,3,2
18299.703,0.078,-0.876,0.5,-2.01,-4.85,-5.92,3,2
18299.718,0.08,-0.872,0.498,-2.08,-4.0,-6.2,3,2
18299.734,0.071,-0.865,0.49,-1.07,-2.99,-6.35,3,2
18299.734,0.062,-0.864,0.483,-0.4,-2.53,-5.98,3,2
18299.75,0.065,-0.858,0.486,-0.55,-2.53,-5.13,3,2
18299.765,0.061,-0.856,0.482,-0.79,-2.78,-4.52,3,2
18299.765,0.047,-0.865,0.485,-0.12,-3.33,-3.63,3,2
18299.781,0.047,-0.866,0.483,0.7,-4.06,-1.92,3,2
18299.796,0.061,-0.865,0.475,1.43,-4.3,-0.52,3,2
18299.796,0.071,-0.868,0.457,1.25,-3.14,-0.03,3,2
18299.812,0.077,-0.879,0.453,-0.43,-0.64,0.06,3,2
18299.812,0.081,-0.888,0.468,-1.92,2.69,0.03,3,2
18299.828,0.068,-0.892,0.486,-1.89,5.25,-0.24,3,2
18299.843,0.055,-0.9,0.496,-1.04,5.74,0.06,3,2
18299.859,0.06,-0.903,0.501,-0.82,4.52,0.18,3,2
18299.859,0.064,-0.91,0.505,-1.16,3.36,-0.76,3,2
18299.875,0.061,-0.919,0.506,-0.76,2.44,-2.01,3,2
18299.875,0.058,-0.92,0.502,-0.21,1.95,-2.72,3,2
18299.89,0.057,-0.915,0.494,-0.37,2.14,-3.69,3,2
18299.906,0.056,-0.914,0.483,-1.62,2.96,-4.97,3,2
18299.906,0.058,-0.908,0.485,-2.75,4.09,-6.47,3,2
18299.921,0.052,-0.897,0.486,-2.47,5.19,-8.15,3,2
18299.937,0.043,-0.887,0.489,-1.89,5.58,-9.28,3,2
18299.937,0.042,-0.883,0.489,-1.65,5.4,-9.67,3,2
18299.953,0.055,-0.877,0.49,-2.11,5.25,-9.34,3,2
18299.953,0.071,-0.879,0.491,-2.59,5.58,-9.46,3,2
18299.968,0.079,-0.883,0.495,-2.75,6.47,-9.8,3,2
18299.984,0.084,-0.88,0.51,-2.99,7.02,-10.13,3,2
18299.984,0.089,-0.876,0.516,-2.47,6.87,-10.83,3,2
18300.0,0.096,-0.873,0.517,-1.92,6.44,-11.23,3,2
18300.015,0.107,-0.866,0.517,-0.7,6.29,-10.8,3,2
18300.015,0.115,-0.859,0.508,-0.92,7.29,-10.5,3,2
18300.031,0.12,-0.848,0.502,-1.22,9.06,-9.98,3,2
18300.046,0.113,-0.841,0.507,-1.31,10.25,-8.27,3,2
18300.046,0.102,-0.821,0.528,0.24,11.38,-6.41,3,2
18300.062,0.109,-0.816,0.536,1.4,11.38,-3.66,3,2
18300.062,0.119,-0.816,0.54,1.1,11.44,-0.73,3,2
18300.078,0.121,-0.825,0.549,-0.18,10.74,1.77,3,2
18300.093,0.124,-0.839,0.557,-0.92,9.06,3.57,3,2
18300.093,0.128,-0.849,0.553,-0.61,7.69,4.39,3,2
18300.109,0.13,-0.858,0.547,0.55,6.71,3.91,3,2
18300.125,0.13,-0.866,0.537,1.43,5.95,2.72,3,2
18300.14,0.136,-0.866,0.52,1.46,5.71,1.01,3,2
18300.14,0.13,-0.865,0.508,1.07,5.92,-1.13,3,2
18300.156,0.117,-0.867,0.496,1.5,6.13,-3.75,3,2
18300.156,0.105,-0.86,0.484,3.3,5.62,-6.65,3,2
18300.171,0.085,-0.843,0.482,6.44,5.55,-9.03,3,2
18300.187,0.059,-0.828,0.485,10.8,5.37,-8.58,3,2
18300.187,0.045,-0.799,0.482,14.16,4.82,-4.94,3,2
18300.203,0.044,-0.796,0.466,14.74,4.64,0.0,3,2
18300.203,0.05,-0.812,0.458,12.02,5.25,5.04,3,2
18300.218,0.059,-0.846,0.459,9.25,6.68,8.85,3,2
18300.234,0.063,-0.88,0.472,8.7,8.67,11.05,3,2
18300.234,0.064,-0.903,0.484,10.13,10.65,11.41,3,2
18300.25,0.065,-0.924,0.497,11.57,11.41,10.1,3,2
18300.265,0.056,-0.938,0.513,12.39,11.6,7.75,3,2
18300.265,0.052,-0.95,0.526,13.25,10.99,5.65,3,2
18300.281,0.062,-0.955,0.532,13.49,9.77,3.72,3,2
18300.296,0.075,-0.96,0.528,12.91,8.88,1.43,3,2
18300.296,0.092,-0.961,0.535,12.02,9.09,-1.13,3,2
18300.312,0.1,-0.956,0.548,11.29,10.41,-2.87,3,2
18300.312,0.09,-0.938,0.564,10.28,11.9,-4.27,3,2
18300.328,0.071,-0.913,0.587,8.94,12.54,-5.74,3,2
18300.343,0.05,-0.886,0.597,8.3,11.05,-7.26,3,2
18300.343,0.043,-0.863,0.598,8.97,7.72,-8.97,3,2
18300.359,0.041,-0.839,0.584,9.95,4.82,-9.52,3,2
18300.375,0.039,-0.824,0.555,9.86,3.45,-8.64,3,2
18300.375,0.044,-0.814,0.532,7.72,3.81,-6.41,3,2
18300.39,0.045,-0.809,0.515,4.85,5.68,-4.03,3,2
18300.406,0.037,-0.805,0.509,2.32,7.35,-1.92,3,2
18300.406,0.028,-0.818,0.509,0.64,8.06,0.03,3,2
18300.421,0.043,-0.833,0.505,-0.49,7.75,1.46,3,2
18300.437,0.043,-0.849,0.497,-0.09,8.15,1.46,3,2
18300.437,0.026,-0.855,0.501,0.73,9.0,0.55,3,2
18300.453,0.006,-0.863,0.506,1.13,9.61,-0.37,3,2
18300.453,-0.005,-0.872,0.508,-0.09,9.55,-1.01,3,2
18300.468,0.007,-0.875,0.509,-1.65,8.58,-2.14,3,2
18300.484,0.004,-0.88,0.5,-2.47,8.91,-3.36,3,2
18300.484,0.011,-0.886,0.501,-3.39,10.07,-4.24,3,2
18300.5,0.031,-0.88,0.508,-3.91,11.72,-5.04,3,2
18300.515,0.034,-0.875,0.513,-4.27,14.01,-5.71,3,2
18300.515,0.035,-0.879,0.53,-6.38,15.9,-5.74,3,2
18300.531,0.035,-0.888,0.544,-8.88,16.94,-6.04,3,2
18300.546,0.033,-0.896,0.555,-11.02,16.91,-7.02,3,2
18300.546,0.04,-0.896,0.575,-12.12,15.66,-9.67,3,2
18300.562,0.028,-0.903,0.578,-10.19,13.52,-13.58,3,2
18300.578,0.016,-0.889,0.574,-6.99,10.56,-17.43,3,2
18300.578,0.017,-0.877,0.555,-3.45,7.45,-20.48,3,2
18300.593,0.03,-0.865,0.52,-1.86,5.46,-22.25,3,2
18300.593,0.039,-0.857,0.489,-3.23,5.1,-23.26,3,2
18300.609,0.047,-0.864,0.469,-6.23,5.34,-23.77,3,2
18300.625,0.069,-0.874,0.467,-8.33,5.98,-24.81,3,2
18300.625,0.079,-0.867,0.471,-7.6,6.99,-27.56,3,2
18300.64,0.08,-0.849,0.482,-5.62,7.35,-30.79,3,2
18300.656,0.072,-0.817,0.497,-3.36,6.07,-33.78,3,2
18300.656,0.071,-0.784,0.51,-1.68,3.85,-34.58,3,2
18300.671,0.085,-0.755,0.517,-1.56,1.37,-33.08,3,2
18300.687,0.094,-0.731,0.51,-2.29,-0.24,-30.67,3,2
18300.687,0.095,-0.726,0.514,-4.21,-1.19,-27.31,3,2
18300.703,0.096,-0.741,0.509,-5.92,-1.46,-23.22,3,2
18300.703,0.087,-0.765,0.488,-5.92,-0.64,-18.37,3,2
18300.718,0.088,-0.787,0.478,-6.38,1.1,-14.04,3,2
18300.734,0.093,-0.822,0.475,-5.46,2.93,-11.75,3,2
18300.734,0.084,-0.852,0.472,-2.75,5.22,-10.62,3,2
18300.75,0.09,-0.866,0.485,-0.55,7.29,-11.02,3,2
18300.765,0.091,-0.883,0.497,1.77,9.28,-12.7,3,2
18300.765,0.085,-0.881,0.521,4.43,11.11,-13.82,3,2
18300.781,0.078,-0.868,0.537,7.32,11.99,-14.1,3,2
18300.781,0.082,-0.862,0.546,7.69,11.38,-12.67,3,2
18300.796,0.092,-0.873,0.549,6.38,9.77,-10.59,3,2
18300.812,0.117,-0.888,0.553,6.26,7.93,-7.63,3,2
18300.812,0.144,-0.908,0.572,10.86,6.47,-5.07,3,2
18300.828,0.154,-0.878,0.521,20.45,5.62,-2.99,3,2
18300.843,0.179,-0.816,0.489,22.83,4.97,-1.68,3,2
18300.843,0.181,-0.811,0.489,19.04,4.33,-4.67,3,2
18300.859,0.157,-0.816,0.489,14.44,3.81,-8.7,3,2
18300.875,0.136,-0.806,0.504,12.18,2.59,-12.21,3,2
18300.875,0.108,-0.806,0.522,11.84,1.22,-14.71,3,2
18300.89,0.087,-0.817,0.522,11.08,-0.27,-14.8,3,2
18300.906,0.098,-0.854,0.516,9.95,-2.69,-14.31,3,2
18300.906,0.112,-0.893,0.51,9.8,-4.09,-14.65,3,2
18300.921,0.12,-0.923,0.497,11.2,-3.08,-16.27,3,2
18300.921,0.13,-0.927,0.491,11.2,-0.03,-17.15,3,2
18300.937,0.145,-0.942,0.512,10.19,3.6,-19.2,3,2
18300.953,0.137,-0.941,0.524,10.35,7.26,-21.45,3,2
18300.953,0.136,-0.918,0.546,9.19,9.4,-23.38,3,2
18300.968,0.148,-0.903,0.57,7.75,9.77,-25.82,3,2
18300.984,0.149,-0.877,0.565,6.35,10.8,-25.61,3,2
18301.0,0.172,-0.85,0.569,-0.09,14.07,-17.73,3,2
18301.0,0.179,-0.83,0.562,-6.26,15.93,-12.94,3,2
18301.015,0.18,-0.834,0.567,-11.29,15.99,-10.13,3,2
18301.015,0.187,-0.863,0.585,-11.2,15.59,-10.01,3,2
18301.031,0.155,-0.904,0.596,-7.39,14.19,-10.74,3,2
18301.046,0.159,-0.891,0.585,-4.52,11.99,-11.96,3,2
18301.046,0.146,-0.867,0.572,-5.01,10.28,-12.39,3,2
18301.062,0.141,-0.853,0.563,-8.58,8.24,-10.56,3,2
18301.078,0.178,-0.85,0.557,-11.81,5.58,-8.58,3,2
18301.078,0.18,-0.841,0.533,-12.57,5.98,-7.29,3,2
18301.093,0.167,-0.828,0.521,-14.71,6.87,-5.28,3,2
18301.093,0.173,-0.838,0.524,-17.61,6.5,-4.03,3,2
18301.109,0.154,-0.86,0.521,-17.0,7.2,-3.54,3,2
18301.125,0.147,-0.864,0.515,-13.73,7.87,-1.71,3,2
18301.125,0.158,-0.867,0.522,-11.11,7.6,-1.01,3,2
18301.14,0.158,-0.876,0.519,-8.94,6.59,-1.74,3,2
18301.156,0.166,-0.871,0.511,-8.12,5.49,-0.98,3,2
18301.156,0.181,-0.883,0.517,-8.94,4.91,0.76,3,2
18301.171,0.175,-0.884,0.523,-10.38,4.85,3.91,3,2
18301.171,0.177,-0.895,0.535,-13.98,4.58,9.74,3,2
18301.187,0.18,-0.913,0.534,-17.15,4.52,15.84,3,2
18301.203,0.17,-0.918,0.531,-19.68,4.94,21.27,3,2
