timestamp,ax,ay,az,gx,gy,gz,orient_label,motion_label
18281.312,0.213,-0.806,0.523,4.21,-5.1,-2.53,3,2
18281.312,0.213,-0.799,0.524,4.24,-5.07,-0.43,3,2
18281.328,0.208,-0.799,0.517,2.75,-5.28,1.65,3,2
18281.343,0.222,-0.828,0.499,1.74,-4.0,2.96,3,2
18281.343,0.217,-0.837,0.496,1.01,-1.56,3.72,3,2
18281.359,0.219,-0.839,0.498,0.15,1.07,3.91,3,2
18281.375,0.204,-0.843,0.503,0.03,4.03,3.72,3,2
18281.375,0.194,-0.85,0.512,-0.43,6.1,4.15,3,2
18281.39,0.195,-0.855,0.515,-0.92,6.96,3.85,3,2
18281.39,0.186,-0.867,0.513,-1.56,7.42,2.38,3,2
18281.406,0.181,-0.867,0.522,-2.17,6.5,0.61,3,2
18281.421,0.194,-0.865,0.531,-1.62,4.58,-1.56,3,2
18281.421,0.195,-0.86,0.526,-0.15,2.99,-3.39,3,2
18281.437,0.216,-0.851,0.518,0.0,1.16,-4.15,3,2
18281.453,0.25,-0.843,0.508,-1.25,0.52,-5.31,3,2
18281.453,0.252,-0.841,0.497,-3.36,2.04,-6.68,3,2
18281.468,0.248,-0.835,0.501,-5.71,4.18,-7.05,3,2
18281.484,0.221,-0.835,0.498,-6.29,5.34,-7.66,3,2
18281.5,0.221,-0.841,0.481,-5.89,4.21,-8.55,3,2
18281.515,0.216,-0.847,0.473,-5.62,3.33,-10.1,3,2
18281.515,0.217,-0.846,0.472,-4.73,2.23,-10.93,3,2
18281.531,0.21,-0.841,0.463,-3.05,2.53,-10.65,3,2
18281.531,0.204,-0.832,0.46,-1.65,2.53,-9.7,3,2
18281.546,0.202,-0.825,0.464,-1.31,2.01,-8.7,3,2
18281.562,0.216,-0.827,0.464,-1.56,0.95,-7.63,3,2
18281.562,0.228,-0.834,0.465,0.0,0.89,-7.11,3,2
18281.578,0.227,-0.833,0.458,2.96,1.74,-6.16,3,2
18281.593,0.239,-0.826,0.46,4.3,2.41,-4.46,3,2
18281.593,0.27,-0.827,0.47,3.97,2.69,-2.96,3,2
18281.609,0.279,-0.836,0.481,3.45,4.18,-1.98,3,2
18281.625,0.271,-0.848,0.497,3.36,5.71,-0.79,3,2
18281.625,0.269,-0.851,0.513,3.11,6.38,0.98,3,2
18281.64,0.265,-0.854,0.532,2.29,5.92,2.29,3,2
18281.656,0.233,-0.862,0.563,1.16,2.47,3.23,3,2
18281.671,0.225,-0.868,0.561,0.67,-1.01,4.46,3,2
18281.671,0.246,-0.881,0.545,0.0,-4.52,5.25,3,2
18281.687,0.272,-0.891,0.526,0.12,-5.95,4.12,3,2
18281.703,0.274,-0.891,0.511,0.7,-5.4,1.77,3,2
18281.703,0.251,-0.884,0.5,0.52,-3.78,-0.21,3,2
18281.718,0.245,-0.875,0.499,-0.43,-3.08,-1.25,3,2
18281.734,0.24,-0.861,0.497,-0.7,-2.59,-2.44,3,2
18281.734,0.223,-0.853,0.491,-0.73,-2.14,-3.78,3,2
18281.75,0.214,-0.849,0.486,-0.7,-2.53,-4.46,3,2
18281.765,0.222,-0.846,0.472,-0.52,-2.87,-5.13,3,2
18281.765,0.233,-0.844,0.46,0.31,-2.08,-6.5,3,2
18281.781,0.231,-0.838,0.459,1.83,-0.52,-8.21,3,2
18281.781,0.212,-0.825,0.458,3.27,1.22,-8.67,3,2
18281.796,0.212,-0.818,0.463,3.91,1.62,-7.97,3,2
18281.812,0.227,-0.812,0.477,4.24,1.56,-7.81,3,2
18281.828,0.217,-0.811,0.497,9.06,1.1,-6.38,3,2
18281.843,0.232,-0.805,0.496,11.81,0.18,-3.97,3,2
18281.843,0.244,-0.805,0.485,11.87,-0.46,-1.92,3,2
18281.859,0.253,-0.815,0.486,9.13,-0.76,-0.52,3,2
18281.875,0.264,-0.839,0.485,6.81,-0.15,0.34,3,2
18281.89,0.272,-0.857,0.482,6.56,1.46,0.79,3,2
18281.89,0.273,-0.868,0.476,6.84,3.42,0.18,3,2
18281.89,0.276,-0.88,0.477,6.38,4.76,-1.74,3,2
18281.906,0.282,-0.894,0.467,5.58,6.56,-4.52,3,2
18281.921,0.292,-0.912,0.44,5.31,9.09,-8.39,3,2
18281.921,0.303,-0.93,0.415,5.83,12.24,-12.91,3,2
18281.937,0.316,-0.94,0.393,6.59,16.36,-17.98,3,2
18281.953,0.315,-0.943,0.37,7.11,21.42,-23.83,3,2
18281.953,0.29,-0.944,0.357,7.42,26.73,-29.6,3,2
18281.968,0.249,-0.942,0.363,7.78,30.73,-34.82,3,2
18281.984,0.214,-0.943,0.366,8.88,31.98,-38.94,3,2
18281.984,0.19,-0.945,0.348,11.99,31.5,-43.12,3,2
18282.0,0.172,-0.949,0.315,16.97,28.99,-48.1,3,2
18282.015,0.164,-0.949,0.263,23.13,24.84,-54.41,3,2
18282.015,0.172,-0.95,0.206,30.15,19.59,-62.38,3,2
18282.031,0.207,-0.953,0.145,37.66,13.86,-71.23,3,2
18282.046,0.268,-0.945,0.102,46.63,9.67,-79.84,3,2
18282.046,0.324,-0.923,0.076,57.13,8.55,-88.81,3,2
18282.062,0.378,-0.901,0.061,68.61,10.68,-97.69,3,2
18282.078,0.417,-0.867,0.057,80.94,15.32,-105.66,3,2
18282.093,0.446,-0.829,0.072,94.91,20.75,-112.64,3,2
18282.093,0.478,-0.793,0.095,110.17,25.82,-117.77,3,2
18282.109,0.507,-0.737,0.117,125.28,30.73,-120.0,3,2
18282.109,0.567,-0.673,0.145,138.68,36.13,-119.54,3,2
18282.125,0.575,-0.609,0.173,149.82,43.43,-117.77,3,2
18282.14,0.539,-0.564,0.218,156.62,54.81,-113.25,3,2
18282.14,0.549,-0.503,0.27,158.76,59.45,-105.17,3,2
18282.156,0.516,-0.456,0.328,158.67,64.64,-95.16,3,2
18282.171,0.506,-0.331,0.434,140.75,66.47,-72.05,3,2
18282.187,0.472,-0.3,0.51,117.89,63.66,-62.44,3,2
18282.187,0.46,-0.279,0.59,90.37,52.8,-54.29,3,2
18282.203,0.469,-0.31,0.637,65.77,37.84,-48.34,3,2
18282.203,0.477,-0.36,0.659,47.06,25.79,-40.62,3,2
18282.218,0.496,-0.405,0.659,35.37,16.48,-32.99,3,2
18282.234,0.541,-0.457,0.652,29.79,10.56,-27.47,3,2
18282.25,0.608,-0.481,0.647,27.19,10.47,-25.57,3,2
18282.25,0.631,-0.501,0.641,25.79,17.73,-29.54,3,2
18282.265,0.636,-0.529,0.659,24.45,28.05,-37.08,3,2
18282.265,0.639,-0.528,0.717,24.75,39.92,-46.97,3,2
18282.281,0.6,-0.535,0.786,30.61,52.52,-57.59,3,2
18282.296,0.548,-0.566,0.862,54.23,64.39,-69.12,3,2
18282.296,0.512,-0.568,0.95,71.9,64.55,-74.37,3,2
18282.312,0.443,-0.567,1.018,89.51,59.14,-80.6,3,2
18282.328,0.372,-0.586,1.067,106.23,50.14,-87.74,3,2
18282.328,0.333,-0.545,1.067,122.07,43.21,-96.47,3,2
18282.343,0.322,-0.472,1.074,133.09,36.26,-106.2,3,2
18282.359,0.34,-0.384,1.1,136.17,33.05,-116.43,3,2
18282.359,0.317,-0.269,1.133,134.19,33.97,-130.59,3,2
18282.375,0.263,-0.151,1.16,134.19,37.23,-146.49,3,2
18282.375,0.183,-0.083,1.215,139.59,41.75,-156.47,3,2
18282.39,0.078,-0.028,1.293,150.85,42.12,-157.48,3,2
18282.406,0.002,0.019,1.346,166.94,34.39,-150.03,3,2
18282.406,-0.058,0.027,1.352,183.39,18.52,-137.76,3,2
18282.421,-0.085,0.029,1.304,194.92,-3.2,-124.82,3,2
18282.437,-0.064,0.126,1.261,198.22,-25.82,-116.4,3,2
18282.437,-0.043,0.256,1.252,193.91,-46.42,-114.75,3,2
18282.453,-0.028,0.308,1.195,184.06,-63.72,-117.53,3,2
18282.453,-0.021,0.346,1.117,167.58,-74.1,-120.15,3,2
18282.468,-0.015,0.385,1.049,147.16,-77.91,-120.91,3,2
18282.484,0.008,0.393,1.007,126.29,-77.61,-119.69,3,2
18282.5,0.021,0.393,0.969,101.02,-67.11,-112.31,3,2
18282.515,0.037,0.384,0.975,94.24,-60.3,-108.55,3,2
18282.515,0.056,0.392,0.997,93.75,-55.82,-107.58,3,2
18282.531,-0.004,0.359,1.012,100.44,-54.66,-108.68,3,2
18282.546,0.014,0.329,1.026,110.02,-59.6,-106.08,3,2
18282.546,0.028,0.323,1.002,124.21,-68.21,-104.01,3,2
18282.562,0.065,0.313,0.949,139.53,-77.79,-101.5,3,2
18282.578,0.119,0.329,0.882,152.17,-83.96,-99.61,3,2
18282.578,0.173,0.358,0.807,159.67,-84.99,-98.27,3,2
18282.593,0.21,0.4,0.738,160.77,-80.63,-97.69,3,2
18282.593,0.24,0.458,0.683,155.74,-71.5,-95.92,3,2
18282.609,0.254,0.531,0.657,142.28,-60.18,-92.47,3,2
18282.625,0.249,0.59,0.654,119.72,-51.27,-87.74,3,2
18282.625,0.245,0.624,0.678,90.46,-45.14,-80.42,3,2
18282.64,0.228,0.644,0.722,57.28,-42.15,-71.29,3,2
18282.64,0.218,0.652,0.77,23.35,-42.57,-63.57,3,2
18282.656,0.211,0.669,0.807,-9.0,-45.44,-57.59,3,2
18282.671,0.202,0.689,0.821,-36.96,-49.75,-51.48,3,2
18282.671,0.217,0.68,0.814,-59.33,-55.36,-42.88,3,2
18282.687,0.251,0.66,0.795,-74.28,-60.24,-31.83,3,2
18282.703,0.291,0.635,0.76,-82.22,-62.84,-21.12,3,2
18282.703,0.336,0.612,0.724,-85.6,-61.86,-11.96,3,2
18282.718,0.376,0.582,0.69,-85.79,-56.52,-5.25,3,2
18282.734,0.409,0.536,0.672,-82.46,-48.13,-0.73,3,2
18282.734,0.464,0.494,0.67,-74.59,-36.74,1.56,3,2
18282.75,0.528,0.468,0.679,-63.57,-20.6,0.21,3,2
18282.765,0.597,0.467,0.725,-51.12,1.34,-5.77,3,2
18282.765,0.692,0.517,0.829,-36.74,29.76,-16.42,3,2
18282.781,0.78,0.636,0.998,-19.1,63.45,-30.64,3,2
18282.781,0.711,0.742,1.119,-0.18,90.95,-42.63,3,2
18282.796,0.5,0.645,1.136,17.7,89.39,-42.85,3,2
18282.812,0.375,0.542,1.076,34.67,62.87,-31.89,3,2
18282.828,0.312,0.497,1.001,42.09,28.08,-15.47,3,2
18282.828,0.407,0.548,0.907,39.52,-3.14,-3.6,3,2
18282.843,0.45,0.558,0.768,31.31,-22.34,-5.52,3,2
18282.843,0.463,0.518,0.657,14.5,-30.18,-13.15,3,2
18282.859,0.467,0.485,0.603,-3.3,-30.4,-21.33,3,2
18282.875,0.483,0.449,0.586,-12.88,-25.21,-28.44,3,2
18282.875,0.496,0.43,0.573,-14.28,-14.86,-33.97,3,2
18282.89,0.509,0.439,0.565,-11.6,-0.85,-39.34,3,2
18282.906,0.502,0.453,0.548,-9.0,15.72,-45.47,3,2
18282.906,0.466,0.467,0.561,-8.94,32.78,-48.95,3,2
18282.921,0.425,0.518,0.614,-10.77,46.48,-51.61,3,2
18282.921,0.383,0.568,0.695,-12.39,55.51,-52.28,3,2
18282.937,0.347,0.603,0.761,-11.63,62.38,-49.26,3,2
18282.953,0.305,0.603,0.819,-8.3,67.08,-44.1,3,2
18282.953,0.273,0.602,0.856,-1.53,68.94,-39.06,3,2
18282.968,0.241,0.591,0.845,7.66,67.26,-34.97,3,2
18282.984,0.239,0.605,0.827,13.73,63.51,-28.87,3,2
18283.0,0.225,0.622,0.804,13.43,59.33,-22.98,3,2
18283.0,0.207,0.618,0.773,4.79,52.37,-17.7,3,2
18283.0,0.213,0.598,0.752,-10.1,44.13,-15.14,3,2
18283.015,0.188,0.593,0.78,-30.12,35.0,-15.69,3,2
18283.031,0.138,0.639,0.903,-55.48,18.8,-14.8,3,2
18283.031,0.19,0.594,0.96,-67.11,1.37,-8.3,3,2
18283.046,0.212,0.517,0.917,-60.27,-10.1,-3.36,3,2
18283.062,0.254,0.482,0.873,-50.72,-15.14,0.24,3,2
18283.062,0.284,0.458,0.847,-40.25,-14.89,1.43,3,2
18283.078,0.271,0.421,0.839,-31.28,-12.82,0.4,3,2
18283.093,0.264,0.402,0.856,-24.66,-13.58,0.21,3,2
18283.093,0.276,0.427,0.862,-19.9,-16.36,-0.64,3,2
18283.109,0.276,0.446,0.838,-19.32,-19.62,-3.02,3,2
18283.125,0.269,0.409,0.816,-28.17,-23.93,-8.55,3,2
18283.125,0.233,0.395,0.916,-40.65,-34.46,-15.78,3,2
18283.14,0.251,0.429,0.952,-36.99,-43.61,-13.09,3,2
18283.14,0.281,0.424,0.971,-33.85,-51.33,-10.96,3,2
18283.156,0.31,0.445,0.975,-34.0,-55.64,-12.76,3,2
18283.171,0.354,0.389,0.915,-24.29,-54.9,-14.92,3,2
18283.171,0.374,0.329,0.813,-5.58,-48.65,-17.3,3,2
18283.187,0.419,0.358,0.713,13.43,-32.87,-15.26,3,2
18283.203,0.451,0.336,0.629,35.58,-11.29,-11.81,3,2
18283.218,0.467,0.339,0.563,50.9,12.67,-10.8,3,2
18283.218,0.476,0.37,0.517,57.65,38.24,-12.15,3,2
18283.234,0.451,0.412,0.512,58.63,62.32,-14.4,3,2
18283.234,0.411,0.449,0.538,54.72,83.29,-16.24,3,2
18283.25,0.305,0.503,0.653,41.84,95.92,-19.99,3,2
18283.265,0.125,0.708,0.902,3.91,85.91,-24.93,3,2
18283.265,0.054,0.789,1.129,-35.8,25.36,-21.58,3,2
18283.281,0.003,0.866,1.157,-20.17,-3.14,-7.75,3,2
18283.296,0.163,0.625,0.973,-0.82,-11.44,-2.78,3,2
18283.296,0.219,0.512,0.765,4.24,-5.83,2.17,3,2
18283.312,0.232,0.559,0.773,4.82,-0.21,7.17,3,2
18283.312,0.223,0.544,0.82,2.23,1.56,12.45,3,2
18283.343,0.191,0.537,0.88,-11.93,-6.53,20.42,3,2
18283.343,0.164,0.532,0.945,-21.09,-15.84,20.66,3,2
18283.359,0.223,0.543,0.944,-28.5,-28.14,21.12,3,2
18283.375,0.246,0.425,0.873,-16.75,-32.44,21.79,3,2
18283.375,0.218,0.478,0.891,-13.58,-35.13,22.03,3,2
18283.39,0.258,0.545,0.896,-11.99,-38.36,29.39,3,2
18283.406,0.296,0.457,0.834,-9.58,-42.51,30.88,3,2
18283.406,0.303,0.403,0.799,-12.05,-42.12,27.65,3,2
18283.421,0.322,0.417,0.778,-12.42,-39.0,26.67,3,2
18283.437,0.353,0.388,0.749,-10.16,-34.73,24.38,3,2
18283.437,0.378,0.376,0.723,-9.0,-27.28,19.93,3,2
18283.453,0.395,0.378,0.714,-8.48,-17.94,15.23,3,2
18283.453,0.392,0.388,0.737,-8.06,-8.51,10.71,3,2
18283.468,0.379,0.396,0.765,-6.44,-0.43,7.75,3,2
18283.484,0.373,0.413,0.794,-3.97,5.43,6.04,3,2
18283.484,0.363,0.43,0.812,-1.59,9.77,4.64,3,2
18283.515,0.327,0.433,0.847,1.92,13.37,2.29,3,2
18283.515,0.308,0.438,0.866,3.45,11.69,1.16,3,2
18283.531,0.292,0.45,0.871,2.99,7.45,-0.15,3,2
18283.546,0.286,0.466,0.872,-0.85,0.98,-2.99,3,2
18283.546,0.282,0.464,0.872,-6.07,-5.52,-6.35,3,2
18283.562,0.28,0.469,0.862,-9.25,-11.2,-8.39,3,2
18283.578,0.29,0.471,0.847,-10.35,-15.44,-8.3,3,2
18283.578,0.306,0.467,0.829,-9.95,-17.18,-7.57,3,2
18283.593,0.321,0.459,0.803,-7.75,-16.08,-6.93,3,2
18283.593,0.334,0.446,0.782,-4.79,-12.82,-6.04,3,2
18283.609,0.348,0.44,0.774,-2.14,-7.93,-5.68,3,2
18283.625,0.364,0.412,0.758,1.13,-0.98,-6.1,3,2
18283.64,0.371,0.4,0.733,2.38,7.2,-7.54,3,2
18283.64,0.384,0.405,0.716,1.62,16.79,-9.52,3,2
18283.656,0.391,0.395,0.713,0.12,27.83,-12.91,3,2
18283.656,0.395,0.385,0.692,-1.8,39.89,-17.37,3,2
18283.687,0.412,0.37,0.678,-7.72,66.26,-27.47,3,2
18283.687,0.351,0.396,0.678,-8.97,79.84,-33.57,3,2
18283.703,0.163,0.548,0.902,-24.87,81.03,-37.51,3,2
18283.703,0.041,0.772,1.227,-55.02,58.02,-33.27,3,2
18283.718,-0.012,0.804,1.273,-55.42,19.59,-23.35,3,2
18283.734,0.099,0.556,1.066,-37.45,-13.0,-7.14,3,2
18283.734,0.179,0.492,0.849,-27.89,-25.97,2.47,3,2
18283.75,0.233,0.431,0.761,-17.27,-20.91,9.25,3,2
18283.765,0.235,0.339,0.795,-7.93,-12.48,13.15,3,2
18283.765,0.239,0.328,0.866,-3.48,-8.73,14.83,3,2
18283.781,0.256,0.342,0.897,-0.55,-8.94,15.41,3,2
18283.781,0.263,0.343,0.911,0.03,-10.22,15.69,3,2
18283.796,0.276,0.327,0.931,2.2,-11.35,15.99,3,2
18283.812,0.262,0.349,0.955,8.33,-12.79,15.78,3,2
18283.828,0.225,0.415,0.976,14.92,-17.55,17.37,3,2
18283.828,0.328,0.391,0.903,25.57,-22.71,20.57,3,2
18283.843,0.304,0.452,0.872,38.64,-18.49,20.26,3,2
18283.859,0.306,0.494,0.873,36.59,-17.98,22.68,3,2
18283.875,0.302,0.415,0.814,32.78,-19.23,17.7,3,2
18283.875,0.284,0.398,0.77,25.54,-19.96,9.67,3,2
18283.89,0.286,0.447,0.749,17.55,-18.1,4.82,3,2
18283.906,0.303,0.442,0.728,9.64,-14.95,0.24,3,2
18283.906,0.304,0.446,0.714,0.52,-8.7,-3.69,3,2
18283.921,0.311,0.445,0.709,-6.56,-1.28,-6.2,3,2
18283.921,0.313,0.44,0.73,-8.76,6.1,-6.93,3,2
18283.937,0.31,0.465,0.784,-7.26,13.15,-5.49,3,2
18283.953,0.308,0.489,0.842,-3.57,18.13,-3.72,3,2
18283.953,0.286,0.493,0.889,0.55,20.02,-1.5,3,2
18283.968,0.263,0.485,0.907,4.21,17.88,1.34,3,2
18283.984,0.251,0.48,0.913,6.87,13.34,3.6,3,2
18283.984,0.25,0.48,0.912,7.75,7.35,4.67,3,2
18284.0,0.256,0.472,0.898,5.58,0.92,4.94,3,2
18284.015,0.28,0.442,0.845,-1.07,-9.83,4.94,3,2
18284.031,0.302,0.437,0.829,-3.36,-12.36,5.07,3,2
18284.046,0.32,0.435,0.821,-4.91,-12.7,4.88,3,2
18284.046,0.329,0.431,0.817,-5.28,-11.66,4.64,3,2
18284.062,0.337,0.426,0.815,-4.85,-9.92,3.91,3,2
18284.062,0.339,0.422,0.817,-4.12,-7.32,2.53,3,2
18284.078,0.328,0.419,0.816,-2.78,-3.75,0.27,3,2
18284.093,0.314,0.412,0.814,-0.85,-0.18,-2.44,3,2
18284.093,0.296,0.414,0.814,1.25,2.99,-4.79,3,2
18284.109,0.281,0.424,0.825,3.39,5.71,-6.2,3,2
18284.125,0.272,0.443,0.846,5.31,7.02,-6.5,3,2
18284.125,0.26,0.462,0.863,6.78,6.56,-5.68,3,2
18284.14,0.255,0.478,0.878,7.75,4.18,-4.09,3,2
18284.156,0.258,0.488,0.877,8.24,0.49,-2.2,3,2
18284.156,0.261,0.49,0.861,8.0,-2.87,-0.73,3,2
18284.171,0.267,0.485,0.838,6.99,-5.22,0.24,3,2
18284.187,0.27,0.476,0.814,4.73,-6.32,1.04,3,2
18284.187,0.279,0.474,0.803,1.31,-6.5,1.43,3,2
18284.203,0.291,0.472,0.795,-2.96,-6.01,1.8,3,2
18284.203,0.301,0.466,0.8,-7.2,-5.04,2.11,3,2
18284.218,0.313,0.46,0.813,-10.5,-4.15,2.72,3,2
18284.234,0.321,0.455,0.826,-12.15,-3.3,3.27,3,2
18284.234,0.33,0.444,0.835,-12.36,-2.59,3.63,3,2
18284.25,0.335,0.427,0.834,-11.32,-1.68,3.51,3,2
18284.265,0.331,0.408,0.838,-5.4,1.46,0.92,3,2
18284.265,0.328,0.401,0.841,-1.5,3.2,-1.07,3,2
18284.281,0.322,0.397,0.841,2.32,5.1,-2.87,3,2
18284.281,0.298,0.417,0.832,5.13,6.81,-4.46,3,2
18284.296,0.286,0.429,0.83,6.84,8.27,-5.65,3,2
18284.312,0.276,0.445,0.826,7.45,9.4,-5.98,3,2
18284.328,0.269,0.458,0.823,7.51,10.62,-5.58,3,2
18284.328,0.259,0.47,0.83,6.99,11.44,-4.73,3,2
18284.343,0.244,0.483,0.848,5.34,11.23,-3.39,3,2
18284.343,0.237,0.487,0.862,3.69,9.49,-1.56,3,2
18284.359,0.234,0.485,0.867,2.26,6.84,0.34,3,2
18284.375,0.233,0.477,0.869,0.61,3.91,1.65,3,2
18284.375,0.238,0.468,0.869,-1.46,0.37,2.44,3,2
18284.39,0.251,0.46,0.871,-4.12,-3.6,2.9,3,2
18284.406,0.266,0.45,0.863,-6.35,-6.81,2.81,3,2
18284.406,0.281,0.437,0.855,-7.05,-8.76,2.41,3,2
18284.421,0.296,0.43,0.851,-5.4,-9.55,2.04,3,2
18284.421,0.308,0.433,0.844,-2.9,-9.06,1.77,3,2
18284.437,0.316,0.428,0.833,-0.37,-8.06,1.28,3,2
18284.453,0.32,0.426,0.825,1.95,-6.29,0.58,3,2
18284.468,0.317,0.429,0.822,4.03,-4.43,-0.37,3,2
18284.468,0.314,0.436,0.82,5.31,-2.99,-1.28,3,2
18284.484,0.305,0.446,0.821,5.49,-1.74,-2.47,3,2
18284.484,0.296,0.456,0.824,4.27,-1.34,-3.6,3,2
18284.5,0.288,0.463,0.824,1.92,-1.31,-4.58,3,2
18284.515,0.274,0.461,0.821,0.03,-1.01,-5.28,3,2
18284.515,0.269,0.468,0.827,-2.26,-1.31,-5.04,3,2
18284.531,0.268,0.471,0.835,-5.22,-1.95,-4.58,3,2
18284.546,0.266,0.46,0.838,-7.02,-2.2,-4.09,3,2
18284.546,0.265,0.451,0.838,-7.57,-2.14,-3.05,3,2
18284.562,0.276,0.448,0.84,-6.81,-1.62,-1.77,3,2
18284.562,0.284,0.444,0.845,-5.34,-0.55,-0.7,3,2
18284.578,0.29,0.433,0.841,-2.84,0.82,-0.06,3,2
18284.593,0.294,0.421,0.836,-0.18,2.59,0.12,3,2
18284.593,0.301,0.425,0.834,0.95,4.55,-0.31,3,2
18284.609,0.304,0.427,0.83,3.23,6.59,-1.53,3,2
18284.625,0.313,0.432,0.846,5.71,9.25,-3.2,3,2
18284.625,0.332,0.418,0.827,9.83,12.85,-6.2,3,2
18284.64,0.337,0.395,0.793,13.25,18.43,-11.51,3,2
18284.656,0.372,0.401,0.773,14.95,27.25,-15.47,3,2
18284.656,0.352,0.339,0.747,19.59,37.97,-20.26,3,2
18284.671,0.208,0.497,0.879,1.22,36.1,-27.68,3,2
18284.671,0.278,0.544,0.944,-16.02,27.25,-24.17,3,2
18284.687,0.093,0.468,0.983,-4.46,16.24,-25.12,3,2
18284.718,0.236,0.503,0.857,-0.52,-12.54,-13.86,3,2
18284.718,0.211,0.462,0.767,5.34,-10.71,-11.66,3,2
18284.734,0.207,0.48,0.784,5.4,-4.94,-5.62,3,2
18284.734,0.204,0.475,0.816,4.85,-2.53,-0.03,3,2
18284.75,0.195,0.47,0.846,1.56,-3.08,2.5,3,2
18284.765,0.19,0.487,0.881,1.31,-5.22,4.09,3,2
18284.781,0.2,0.489,0.905,4.52,-8.36,7.39,3,2
18284.781,0.205,0.475,0.903,8.58,-11.51,11.26,3,2
18284.796,0.213,0.471,0.886,11.72,-14.4,14.56,3,2
18284.796,0.215,0.464,0.875,12.91,-17.24,16.36,3,2
18284.812,0.204,0.474,0.882,10.8,-21.24,17.12,3,2
18284.812,0.24,0.514,0.846,5.34,-27.65,18.77,3,2
18284.828,0.299,0.408,0.784,9.09,-27.1,19.59,3,2
18284.843,0.261,0.428,0.785,7.14,-23.19,16.17,3,2
18284.843,0.268,0.519,0.845,-1.4,-21.7,16.27,3,2
18284.859,0.295,0.498,0.814,1.04,-23.65,17.4,3,2
18284.875,0.33,0.469,0.799,-11.29,-23.35,13.64,3,2
18284.89,0.347,0.452,0.776,-11.2,-20.97,11.9,3,2
18284.906,0.361,0.432,0.767,-10.65,-16.57,10.01,3,2
18284.906,0.369,0.43,0.758,-9.4,-10.59,8.15,3,2
18284.921,0.374,0.424,0.747,-7.17,-3.6,6.2,3,2
18284.921,0.368,0.417,0.749,-5.62,3.97,3.88,3,2
18284.937,0.358,0.415,0.758,-5.22,10.83,1.46,3,2
18284.953,0.346,0.422,0.779,-5.4,16.42,-1.13,3,2
18284.953,0.323,0.441,0.823,-5.49,20.2,-3.39,3,2
18284.968,0.292,0.456,0.87,-4.33,21.27,-3.97,3,2
18284.984,0.26,0.465,0.906,-1.56,19.68,-3.11,3,2
18284.984,0.237,0.472,0.935,2.14,15.02,-1.34,3,2
18285.0,0.226,0.48,0.954,4.36,7.35,0.37,3,2
18285.015,0.219,0.481,0.948,4.15,-2.01,1.25,3,2
18285.015,0.227,0.469,0.921,3.02,-11.23,1.65,3,2
18285.031,0.24,0.458,0.88,1.22,-18.28,2.38,3,2
18285.046,0.277,0.44,0.816,-2.59,-22.89,3.54,3,2
18285.062,0.295,0.432,0.794,-3.02,-21.06,3.75,3,2
18285.062,0.311,0.428,0.785,-2.41,-17.67,3.63,3,2
18285.078,0.324,0.428,0.783,-0.98,-13.12,3.3,3,2
18285.093,0.336,0.431,0.784,0.76,-8.61,3.17,3,2
18285.093,0.341,0.436,0.791,2.01,-4.33,3.08,3,2
18285.109,0.341,0.439,0.798,2.96,-0.46,2.72,3,2
18285.125,0.33,0.451,0.817,3.97,2.56,2.04,3,2
18285.125,0.314,0.467,0.837,5.31,4.0,2.14,3,2
18285.14,0.303,0.478,0.848,6.2,3.88,3.02,3,2
18285.156,0.293,0.478,0.858,6.65,2.5,4.24,3,2
18285.156,0.288,0.478,0.856,6.62,0.09,5.43,3,2
18285.171,0.287,0.477,0.846,5.95,-2.56,6.65,3,2
18285.171,0.292,0.477,0.833,4.64,-4.7,8.0,3,2
18285.187,0.302,0.475,0.817,2.66,-6.07,9.28,3,2
18285.203,0.307,0.468,0.803,0.58,-6.35,10.41,3,2
18285.218,0.318,0.453,0.804,-2.66,-4.43,11.05,3,2
18285.234,0.314,0.463,0.82,-3.36,-3.57,10.65,3,2
18285.234,0.314,0.461,0.838,-4.3,-5.25,11.23,3,2
18285.25,0.313,0.464,0.86,-3.2,-7.66,12.54,3,2
18285.265,0.307,0.47,0.883,-0.06,-11.08,15.14,3,2
18285.265,0.294,0.473,0.903,4.33,-15.96,19.99,3,2
18285.281,0.306,0.48,0.92,9.22,-21.67,26.06,3,2
18285.296,0.319,0.48,0.908,14.37,-26.61,31.95,3,2
18285.296,0.341,0.475,0.879,19.17,-30.27,37.63,3,2
18285.312,0.353,0.47,0.844,24.08,-31.68,42.85,3,2
18285.328,0.369,0.46,0.807,28.93,-31.19,48.22,3,2
18285.328,0.387,0.442,0.766,33.17,-28.44,52.13,3,2
18285.343,0.414,0.431,0.739,35.04,-23.53,53.38,3,2
18285.343,0.42,0.444,0.753,34.06,-16.66,54.23,3,2
18285.359,0.438,0.438,0.757,33.91,-9.95,57.56,3,2
18285.375,0.438,0.448,0.768,33.3,-1.65,60.55,3,2
18285.39,0.402,0.513,0.817,34.82,14.77,65.95,3,2
18285.406,0.378,0.573,0.843,34.12,19.93,67.2,3,2
18285.406,0.372,0.616,0.868,28.44,22.31,71.14,3,2
18285.421,0.388,0.668,0.891,18.98,27.1,78.4,3,2
18285.421,0.381,0.683,0.908,6.44,34.09,86.95,3,2
18285.437,0.379,0.667,0.938,-9.13,38.82,96.01,3,2
18285.453,0.388,0.649,0.953,-23.16,40.86,103.79,3,2
18285.453,0.48,0.696,0.945,-34.61,40.1,113.25,3,2
18285.468,0.509,0.742,0.978,-70.77,48.31,138.74,3,2
18285.484,0.447,0.698,0.97,-113.5,56.73,141.0,3,2
18285.484,0.448,0.409,0.963,-150.15,52.52,154.0,3,2
18285.5,0.434,0.319,1.002,-193.64,47.03,163.98,3,2
18285.515,0.476,0.237,1.021,-217.72,34.06,164.56,3,2
18285.515,0.512,0.09,1.03,-230.93,21.91,162.97,3,2
18285.531,0.527,-0.021,1.041,-236.67,11.9,161.93,3,2
18285.546,0.544,-0.121,1.039,-232.28,1.83,160.65,3,2
18285.562,0.623,-0.263,1.032,-193.33,-11.54,159.31,3,2
18285.562,0.651,-0.304,1.004,-164.77,-15.72,157.44,3,2
18285.578,0.651,-0.346,0.952,-136.6,-18.83,153.94,3,2
18285.593,0.633,-0.365,0.894,-115.33,-25.03,148.35,3,2
18285.593,0.582,-0.383,0.839,-105.23,-39.46,141.3,3,2
18285.609,0.6,-0.391,0.796,-106.57,-61.22,136.27,3,2
18285.625,0.602,-0.378,0.729,-112.43,-81.39,131.75,3,2
18285.625,0.592,-0.43,0.658,-118.11,-99.52,131.78,3,2
18285.64,0.6,-0.472,0.584,-119.48,-110.72,135.59,3,2
18285.656,0.555,-0.454,0.539,-115.57,-114.51,142.03,3,2
18285.656,0.519,-0.442,0.526,-105.72,-119.08,151.77,3,2
18285.671,0.471,-0.455,0.47,-93.45,-128.33,161.47,3,2
18285.671,0.508,-0.438,0.431,-89.18,-136.63,171.24,3,2
18285.687,0.514,-0.413,0.375,-89.14,-137.21,178.9,3,2
18285.703,0.517,-0.424,0.296,-94.18,-134.19,182.16,3,2
18285.718,0.567,-0.467,0.191,-124.12,-111.36,187.38,3,2
18285.734,0.632,-0.511,0.192,-131.41,-88.44,189.46,3,2
18285.734,0.662,-0.536,0.207,-131.17,-56.7,188.73,3,2
18285.75,0.667,-0.541,0.242,-127.45,-21.91,185.86,3,2
18285.765,0.652,-0.556,0.296,-124.85,11.69,180.73,3,2
18285.765,0.567,-0.598,0.35,-124.21,44.28,174.14,3,2
18285.781,0.502,-0.617,0.429,-126.56,68.76,166.2,3,2
18285.796,0.421,-0.622,0.531,-128.12,85.21,156.47,3,2
18285.796,0.298,-0.66,0.642,-123.87,95.95,146.79,3,2
18285.812,0.276,-0.678,0.72,-113.22,98.27,137.61,3,2
18285.812,0.296,-0.618,0.785,-97.84,97.48,128.57,3,2
18285.828,0.28,-0.568,0.78,-81.24,101.41,119.69,3,2
18285.843,0.262,-0.497,0.772,-76.45,105.11,113.77,3,2
18285.859,0.223,-0.485,0.749,-82.61,109.84,111.85,3,2
18285.859,0.203,-0.486,0.752,-94.09,112.86,112.8,3,2
18285.875,0.203,-0.531,0.769,-96.87,117.89,113.77,3,2
18285.89,0.223,-0.557,0.835,-91.98,124.06,114.57,3,2
18285.89,0.229,-0.57,0.923,-83.8,129.18,113.13,3,2
18285.906,0.178,-0.611,1.017,-79.9,128.36,109.65,3,2
18285.906,0.125,-0.711,1.1,-80.54,117.59,103.06,3,2
18285.921,0.103,-0.82,1.103,-76.72,98.36,91.65,3,2
18285.921,0.1,-0.905,1.051,-68.21,75.14,74.74,3,2
18285.937,0.073,-0.971,0.964,-58.17,52.25,51.64,3,2
18285.953,0.07,-1.023,0.865,-46.82,31.86,26.43,3,2
18285.953,0.057,-1.033,0.746,-35.37,16.66,2.29,3,2
18285.968,0.026,-1.014,0.615,-27.62,6.96,-19.62,3,2
18285.984,0.016,-0.988,0.52,-21.91,1.8,-37.84,3,2
18286.0,-0.007,-0.924,0.441,-15.87,2.11,-50.9,3,2
18286.0,-0.046,-0.817,0.419,-12.05,6.04,-57.71,3,2
18286.015,-0.055,-0.704,0.436,-11.99,10.59,-57.28,3,2
18286.015,-0.013,-0.626,0.44,-14.98,14.62,-47.67,3,2
18286.031,0.05,-0.578,0.46,-19.59,20.75,-31.74,3,2
18286.046,0.069,-0.573,0.469,-23.68,28.14,-14.5,3,2
18286.046,0.061,-0.622,0.467,-28.38,32.59,0.0,3,2
18286.062,0.07,-0.707,0.461,-31.62,33.78,7.9,3,2
18286.062,0.084,-0.791,0.426,-32.14,33.2,8.51,3,2
18286.078,0.146,-0.85,0.425,-31.59,34.55,4.79,3,2
18286.093,0.184,-0.867,0.471,-29.69,38.97,-2.72,3,2
18286.093,0.203,-0.882,0.511,-27.31,42.94,-12.09,3,2
18286.109,0.198,-0.883,0.515,-26.22,44.04,-22.0,3,2
18286.125,0.18,-0.884,0.502,-24.6,42.97,-33.23,3,2
18286.125,0.168,-0.885,0.527,-20.51,40.62,-45.99,3,2
18286.14,0.089,-0.84,0.648,-10.47,37.02,-57.5,3,2
18286.156,-0.037,-0.802,0.73,6.65,29.66,-59.94,3,2
18286.156,-0.061,-0.756,0.696,17.27,16.17,-48.13,3,2
18286.171,0.007,-0.688,0.625,14.74,2.56,-30.34,3,2
18286.171,0.064,-0.742,0.549,4.15,-8.36,-17.37,3,2
18286.187,0.107,-0.864,0.489,-4.49,-14.53,-11.51,3,2
18286.203,0.134,-0.917,0.435,-4.88,-13.64,-11.29,3,2
18286.218,0.17,-0.915,0.449,2.56,-1.92,-19.41,3,2
18286.234,0.148,-0.889,0.501,7.9,2.26,-26.95,3,2
18286.234,0.103,-0.866,0.561,10.93,-2.93,-27.01,3,2
18286.25,0.071,-0.859,0.607,13.55,-11.54,-24.75,3,2
18286.265,0.081,-0.808,0.575,15.08,-20.51,-22.34,3,2
18286.265,0.121,-0.78,0.542,17.24,-27.62,-19.65,3,2
18286.281,0.149,-0.755,0.496,20.17,-31.5,-15.56,3,2
18286.296,0.153,-0.735,0.462,21.12,-31.86,-10.47,3,2
18286.296,0.171,-0.729,0.444,20.02,-30.37,-3.88,3,2
18286.312,0.146,-0.728,0.44,18.28,-26.7,2.87,3,2
18286.312,0.092,-0.757,0.427,15.26,-22.31,10.68,3,2
18286.328,0.058,-0.793,0.407,10.38,-18.13,18.89,3,2
18286.343,0.058,-0.833,0.402,4.55,-14.44,25.88,3,2
18286.343,0.091,-0.88,0.426,-0.15,-11.08,29.91,3,2
18286.359,0.109,-0.916,0.456,0.12,-7.11,31.04,3,2
18286.375,0.104,-0.931,0.485,4.09,-5.04,29.97,3,2
18286.39,0.035,-0.943,0.496,7.42,-9.25,24.75,3,2
18286.406,0.048,-0.946,0.485,6.53,-13.61,21.27,3,2
18286.406,0.061,-0.942,0.473,8.58,-15.56,17.46,3,2
18286.421,0.069,-0.925,0.459,11.14,-15.14,15.08,3,2
18286.421,0.077,-0.891,0.475,11.6,-14.56,14.1,3,2
18286.437,0.054,-0.886,0.467,11.32,-13.61,15.35,3,2
18286.453,0.06,-0.887,0.455,7.32,-12.91,19.01,3,2
18286.453,0.063,-0.906,0.424,4.0,-11.35,22.83,3,2
18286.468,0.086,-0.937,0.397,1.46,-6.71,26.06,3,2
18286.484,0.13,-0.94,0.415,-0.49,0.0,26.95,3,2
18286.5,0.139,-0.944,0.454,0.03,7.39,25.82,3,2
18286.5,0.134,-0.951,0.507,0.82,12.36,23.59,3,2
18286.515,0.115,-0.956,0.547,2.04,13.92,20.29,3,2
18286.515,0.106,-0.947,0.567,3.33,12.09,16.36,3,2
18286.531,0.079,-0.936,0.575,4.55,8.24,11.9,3,2
18286.546,0.087,-0.939,0.554,4.55,3.72,8.7,3,2
18286.562,0.112,-0.912,0.531,4.27,1.22,3.88,3,2
18286.562,0.117,-0.901,0.524,3.97,2.14,3.75,3,2
18286.578,0.142,-0.888,0.52,1.8,3.02,3.85,3,2
18286.593,0.139,-0.887,0.524,1.37,4.21,2.72,3,2
18286.593,0.122,-0.865,0.525,3.51,5.01,2.17,3,2
18286.609,0.128,-0.838,0.522,4.61,4.52,2.87,3,2
18286.625,0.126,-0.822,0.531,5.4,4.33,4.27,3,2
18286.625,0.103,-0.814,0.521,6.53,4.46,7.57,3,2
18286.64,0.095,-0.807,0.5,3.85,4.24,12.36,3,2
18286.64,0.109,-0.839,0.488,-0.79,4.09,15.56,3,2
18286.656,0.12,-0.864,0.483,-3.42,5.89,16.91,3,2
18286.671,0.117,-0.871,0.485,-5.01,8.79,17.24,3,2
18286.687,0.11,-0.885,0.504,-7.6,10.56,16.21,3,2
18286.687,0.103,-0.899,0.52,-8.18,10.53,12.63,3,2
18286.703,0.096,-0.9,0.525,-5.1,9.09,8.51,3,2
18286.703,0.081,-0.888,0.515,-2.47,8.09,5.86,3,2
18286.734,0.089,-0.886,0.528,-2.99,4.85,1.04,3,2
18286.734,0.076,-0.885,0.521,-0.12,3.45,-1.62,3,2
18286.75,0.074,-0.876,0.508,1.56,2.01,-3.23,3,2
18286.765,0.083,-0.877,0.495,1.22,0.92,-4.79,3,2
18286.765,0.1,-0.875,0.486,0.49,0.89,-6.81,3,2
18286.781,0.102,-0.866,0.486,1.01,2.23,-8.58,3,2
18286.781,0.1,-0.855,0.501,2.14,3.85,-9.4,3,2
18286.796,0.096,-0.845,0.504,3.11,4.88,-9.34,3,2
18286.812,0.091,-0.834,0.524,3.3,5.16,-8.97,3,2
18286.828,0.079,-0.825,0.535,3.78,5.13,-7.78,3,2
18286.828,0.066,-0.819,0.525,3.08,4.64,-4.91,3,2
18286.843,0.073,-0.825,0.535,0.34,3.48,-1.74,3,2
18286.843,0.089,-0.848,0.55,-0.46,2.47,0.34,3,2
18286.859,0.11,-0.851,0.544,1.16,1.74,1.25,3,2
18286.875,0.116,-0.848,0.535,2.2,1.22,1.01,3,2
18286.875,0.109,-0.861,0.538,1.28,0.85,0.31,3,2
18286.89,0.1,-0.874,0.535,0.7,0.58,-0.46,3,2
18286.906,0.098,-0.885,0.527,1.07,0.43,-1.77,3,2
18286.906,0.092,-0.887,0.531,1.95,0.52,-3.88,3,2
18286.921,0.074,-0.88,0.539,3.51,0.18,-5.83,3,2
18286.921,0.067,-0.865,0.544,4.67,-1.56,-6.78,3,2
18286.937,0.08,-0.857,0.529,4.82,-4.0,-7.32,3,2
18286.953,0.089,-0.861,0.511,4.21,-5.22,-7.42,3,2
18286.953,0.083,-0.862,0.494,3.88,-4.64,-7.11,3,2
18286.968,0.077,-0.858,0.48,3.39,-3.36,-6.59,3,2
18286.984,0.082,-0.853,0.479,2.44,-2.08,-6.23,3,2
18286.984,0.09,-0.842,0.5,2.59,-1.01,-6.53,3,2
18287.0,0.08,-0.83,0.518,4.49,-0.24,-5.65,3,2
18287.015,0.088,-0.806,0.536,4.03,-0.64,-2.2,3,2
18287.015,0.099,-0.803,0.537,1.83,-1.92,1.07,3,2
18287.031,0.091,-0.828,0.529,0.82,-2.66,4.36,3,2
18287.046,0.093,-0.833,0.509,-0.34,-2.32,7.93,3,2
18287.046,0.091,-0.852,0.506,-1.07,-1.46,9.77,3,2
18287.062,0.088,-0.866,0.514,-0.06,-0.43,11.14,3,2
18287.062,0.088,-0.858,0.53,1.28,0.46,11.93,3,2
18287.078,0.089,-0.862,0.548,1.65,0.37,12.27,3,2
18287.093,0.082,-0.875,0.551,1.25,-0.55,12.82,3,2
18287.093,0.078,-0.893,0.543,0.37,-1.68,12.76,3,2
18287.109,0.066,-0.911,0.532,-0.73,-2.41,11.66,3,2
18287.125,0.06,-0.928,0.529,-1.16,-3.17,9.67,3,2
18287.125,0.062,-0.933,0.521,-0.73,-3.3,7.2,3,2
18287.14,0.058,-0.925,0.526,0.18,-3.23,3.75,3,2
18287.156,0.037,-0.907,0.525,1.16,-3.48,0.58,3,2
18287.156,0.028,-0.88,0.538,1.25,-4.82,-1.19,3,2
18287.171,0.037,-0.866,0.534,1.65,-7.11,-1.68,3,2
18287.171,0.044,-0.855,0.515,2.5,-8.3,-0.67,3,2
18287.187,0.047,-0.857,0.495,2.66,-7.81,1.28,3,2
18287.203,0.056,-0.865,0.486,0.95,-6.38,3.39,3,2
18287.203,0.045,-0.876,0.486,-2.41,-0.52,5.37,3,2
18287.218,0.052,-0.891,0.5,-1.98,1.28,4.88,3,2
18287.234,0.054,-0.875,0.529,-0.92,1.71,4.15,3,2
18287.234,0.037,-0.854,0.554,-1.1,-0.27,4.91,3,2
18287.25,0.045,-0.85,0.549,-2.29,-3.85,5.25,3,2
18287.265,0.048,-0.87,0.525,-2.14,-6.65,5.04,3,2
18287.265,0.042,-0.88,0.492,-0.58,-7.23,5.25,3,2
18287.281,0.051,-0.876,0.466,-0.37,-6.53,4.61,3,2
18287.281,0.059,-0.879,0.458,-0.24,-4.12,3.17,3,2
18287.296,0.072,-0.872,0.468,0.27,-0.52,2.14,3,2
18287.312,0.076,-0.85,0.497,0.52,2.41,0.89,3,2
18287.312,0.064,-0.845,0.526,0.64,4.0,0.06,3,2
18287.328,0.059,-0.842,0.539,0.55,3.54,0.27,3,2
18287.343,0.061,-0.843,0.551,0.12,2.11,0.61,3,2
18287.343,0.049,-0.851,0.55,0.64,0.85,1.01,3,2
18287.359,0.05,-0.855,0.531,0.34,-1.16,1.92,3,2
18287.375,0.075,-0.866,0.504,-1.43,-2.62,1.89,3,2
18287.375,0.09,-0.876,0.494,-1.4,-2.17,0.55,3,2
18287.39,0.094,-0.869,0.489,0.21,0.03,-0.61,3,2
18287.406,0.091,-0.85,0.505,1.43,2.87,-1.95,3,2
18287.406,0.078,-0.835,0.532,2.2,4.76,-3.14,3,2
18287.421,0.072,-0.822,0.55,2.35,4.36,-3.54,3,2
18287.421,0.071,-0.813,0.578,2.75,2.81,-3.81,3,2
18287.437,0.066,-0.814,0.576,4.18,-0.15,-3.36,3,2
18287.453,0.082,-0.816,0.545,3.45,-3.78,-1.83,3,2
18287.453,0.106,-0.831,0.52,1.68,-5.71,-1.65,3,2
18287.468,0.102,-0.848,0.503,2.2,-5.16,-1.98,3,2
18287.484,0.086,-0.843,0.48,3.48,-3.14,-1.74,3,2
18287.5,0.081,-0.844,0.476,2.41,-0.7,-1.37,3,2
18287.5,0.063,-0.853,0.486,1.22,1.98,-0.92,3,2
18287.515,0.058,-0.853,0.494,0.95,4.0,0.31,3,2
18287.515,0.067,-0.853,0.507,1.28,5.01,0.89,3,2
18287.531,0.064,-0.855,0.519,2.14,5.49,1.19,3,2
18287.531,0.058,-0.839,0.542,1.92,4.85,1.56,3,2
18287.546,0.046,-0.842,0.555,1.74,2.9,1.77,3,2
18287.562,0.046,-0.858,0.547,2.2,0.34,2.81,3,2
18287.562,0.061,-0.874,0.517,1.86,-1.28,3.36,3,2
18287.578,0.077,-0.9,0.501,1.13,-0.98,1.68,3,2
18287.593,0.079,-0.909,0.499,3.42,0.95,-1.19,3,2
18287.593,0.073,-0.886,0.499,5.74,3.36,-3.51,3,2
18287.609,0.057,-0.87,0.511,6.26,5.04,-5.1,3,2
18287.625,0.042,-0.863,0.516,6.81,5.92,-5.01,3,2
18287.625,0.04,-0.846,0.526,6.81,5.8,-3.54,3,2
18287.64,0.037,-0.844,0.527,6.16,5.46,-1.98,3,2
18287.656,0.047,-0.846,0.53,4.55,4.97,-0.58,3,2
18287.656,0.064,-0.85,0.54,3.05,4.39,-0.73,3,2
18287.671,0.063,-0.856,0.555,2.69,4.61,-1.53,3,2
18287.671,0.056,-0.851,0.572,2.56,4.82,-1.8,3,2
18287.687,0.063,-0.856,0.586,2.53,3.51,-2.11,3,2
18287.703,0.062,-0.861,0.589,3.33,1.59,-2.56,3,2
18287.718,0.067,-0.863,0.58,3.6,-0.09,-3.08,3,2
18287.718,0.068,-0.867,0.569,3.33,-1.37,-3.88,3,2
18287.734,0.056,-0.872,0.563,3.33,-1.74,-4.64,3,2
18287.734,0.056,-0.869,0.558,3.33,-1.83,-4.64,3,2
18287.75,0.06,-0.866,0.556,3.23,-1.53,-4.55,3,2
18287.765,0.061,-0.863,0.557,3.57,-0.73,-4.21,3,2
18287.765,0.065,-0.859,0.561,3.57,-0.18,-3.39,3,2
18287.781,0.067,-0.857,0.564,2.9,0.09,-3.23,3,2
18287.796,0.059,-0.858,0.559,2.87,-0.27,-3.48,3,2
18287.796,0.054,-0.846,0.558,3.42,-0.76,-3.17,3,2
18287.812,0.051,-0.839,0.564,3.75,-1.65,-2.26,3,2
18287.812,0.046,-0.844,0.558,4.0,-2.78,-0.18,3,2
18287.828,0.057,-0.855,0.541,2.23,-3.91,2.01,3,2
18287.843,0.066,-0.876,0.521,0.37,-3.6,2.56,3,2
18287.843,0.067,-0.887,0.51,-0.09,-1.98,2.08,3,2
18287.859,0.063,-0.877,0.514,0.0,0.31,1.31,3,2
18287.875,0.047,-0.873,0.524,0.09,2.23,0.98,3,2
18287.875,0.045,-0.871,0.54,-0.12,2.47,1.04,3,2
18287.89,0.045,-0.874,0.545,-0.03,1.43,0.55,3,2
18287.906,0.052,-0.878,0.54,0.09,0.0,-0.58,3,2
18287.906,0.06,-0.887,0.534,0.31,-1.16,-2.29,3,2
18287.921,0.073,-0.894,0.517,0.73,-1.53,-3.97,3,2
18287.921,0.083,-0.888,0.51,0.79,-0.67,-5.89,3,2
18287.937,0.078,-0.891,0.496,0.55,0.67,-8.15,3,2
18287.953,0.08,-0.888,0.499,0.24,1.95,-9.98,3,2
18287.953,0.077,-0.873,0.511,1.01,3.23,-11.66,3,2
18287.968,0.067,-0.852,0.518,1.53,4.3,-11.69,3,2
18287.984,0.072,-0.835,0.528,0.37,4.67,-10.16,3,2
18287.984,0.076,-0.837,0.535,-1.5,4.43,-8.61,3,2
18288.0,0.075,-0.85,0.536,-2.72,3.72,-7.35,3,2
18288.015,0.081,-0.858,0.54,-2.5,2.87,-7.17,3,2
18288.015,0.081,-0.863,0.534,-0.95,2.11,-8.09,3,2
18288.031,0.089,-0.851,0.535,0.61,1.62,-9.31,3,2
18288.031,0.092,-0.832,0.536,1.83,1.71,-10.32,3,2
18288.046,0.096,-0.816,0.542,2.41,1.74,-10.53,3,2
18288.062,0.097,-0.801,0.56,3.88,1.07,-10.25,3,2
18288.078,0.092,-0.792,0.555,5.92,-0.18,-8.55,3,2
18288.078,0.102,-0.785,0.545,5.34,-1.37,-5.68,3,2
18288.093,0.109,-0.8,0.543,3.66,-1.43,-3.42,3,2
18288.093,0.103,-0.815,0.541,2.62,-0.34,-1.22,3,2
18288.109,0.107,-0.827,0.542,2.08,1.25,0.92,3,2
18288.125,0.112,-0.834,0.55,2.11,2.78,1.65,3,2
18288.125,0.106,-0.837,0.569,2.84,3.78,2.17,3,2
18288.14,0.104,-0.845,0.588,4.0,3.48,1.95,3,2
18288.156,0.095,-0.847,0.608,6.38,2.01,0.92,3,2
18288.156,0.084,-0.842,0.607,8.94,-0.67,-0.15,3,2
18288.171,0.082,-0.842,0.591,8.73,-4.15,-1.22,3,2
18288.171,0.09,-0.861,0.578,7.39,-7.45,-3.17,3,2
18288.187,0.095,-0.864,0.555,9.31,-8.18,-7.23,3,2
18288.203,0.097,-0.846,0.546,9.22,-6.81,-8.12,3,2
18288.203,0.098,-0.82,0.554,7.81,-5.52,-7.02,3,2
18288.218,0.09,-0.804,0.567,5.01,-4.94,-3.85,3,2
18288.234,0.084,-0.812,0.576,1.65,-5.37,-0.95,3,2
18288.234,0.087,-0.841,0.566,-0.76,-5.95,0.58,3,2
18288.25,0.094,-0.857,0.564,-1.25,-5.89,0.82,3,2
18288.265,0.081,-0.852,0.57,0.85,-5.07,-0.03,3,2
18288.265,0.071,-0.838,0.575,1.74,-4.39,0.15,3,2
18288.281,0.083,-0.842,0.591,0.24,-4.67,1.13,3,2
18288.296,0.075,-0.862,0.6,-0.18,-5.46,1.46,3,2
18288.296,0.064,-0.873,0.59,0.58,-6.41,2.23,3,2
18288.312,0.065,-0.875,0.578,0.21,-7.57,2.53,3,2
18288.312,0.066,-0.89,0.575,-0.4,-8.36,1.59,3,2
18288.328,0.069,-0.895,0.573,-0.61,-8.45,1.19,3,2
18288.343,0.08,-0.896,0.574,-0.31,-8.64,0.58,3,2
18288.343,0.088,-0.901,0.581,0.95,-8.88,-0.4,3,2
18288.359,0.083,-0.895,0.592,1.83,-9.25,-0.06,3,2
18288.375,0.084,-0.896,0.594,0.92,-10.35,0.73,3,2
18288.375,0.075,-0.912,0.595,-0.09,-11.9,1.22,3,2
18288.39,0.043,-0.933,0.566,-1.19,-13.28,1.1,3,2
18288.39,0.051,-0.945,0.525,-3.02,-14.71,-0.52,3,2
18288.406,0.066,-0.941,0.502,-3.02,-14.13,-4.18,3,2
18288.421,0.07,-0.926,0.506,-1.07,-11.66,-8.06,3,2
18288.437,0.077,-0.893,0.528,0.58,-8.94,-11.05,3,2
18288.437,0.079,-0.865,0.549,1.4,-7.17,-12.21,3,2
18288.453,0.077,-0.839,0.572,1.01,-7.14,-11.66,3,2
18288.453,0.088,-0.809,0.592,0.64,-8.88,-10.96,3,2
18288.468,0.107,-0.798,0.598,1.74,-11.35,-9.49,3,2
18288.484,0.106,-0.778,0.591,2.38,-12.42,-6.68,3,2
18288.5,0.103,-0.783,0.574,1.19,-14.16,-4.97,3,2
18288.5,0.105,-0.816,0.567,0.37,-14.04,-3.75,3,2
18288.515,0.115,-0.817,0.558,1.59,-13.21,-3.14,3,2
18288.515,0.122,-0.817,0.549,3.05,-12.21,-4.21,3,2
18288.531,0.125,-0.814,0.568,3.42,-10.28,-5.89,3,2
18288.546,0.123,-0.792,0.61,5.04,-8.82,-6.84,3,2
18288.546,0.121,-0.756,0.638,7.84,-8.24,-5.92,3,2
18288.562,0.112,-0.731,0.671,6.71,-8.55,-2.38,3,2
18288.562,0.115,-0.739,0.687,4.64,-10.59,3.39,3,2
18288.578,0.127,-0.748,0.692,3.85,-13.15,9.92,3,2
18288.593,0.158,-0.761,0.689,3.91,-16.57,14.1,3,2
18288.593,0.178,-0.787,0.681,5.16,-20.84,14.71,3,2
18288.609,0.185,-0.796,0.682,8.21,-24.51,13.15,3,2
18288.625,0.174,-0.776,0.686,12.79,-28.78,9.37,3,2
18288.625,0.165,-0.758,0.676,17.58,-33.75,6.71,3,2
18288.64,0.122,-0.753,0.63,18.74,-37.6,7.05,3,2
18288.656,0.1,-0.788,0.573,15.53,-39.49,9.31,3,2
18288.656,0.121,-0.826,0.536,10.59,-38.33,12.54,3,2
18288.671,0.137,-0.843,0.531,7.17,-33.66,14.31,3,2
18288.671,0.134,-0.85,0.546,5.46,-28.53,14.92,3,2
18288.687,0.14,-0.85,0.575,4.55,-25.12,15.35,3,2
18288.703,0.14,-0.836,0.595,4.33,-24.14,14.07,3,2
18288.703,0.118,-0.821,0.592,4.06,-25.15,11.23,3,2
18288.718,0.09,-0.812,0.558,3.66,-27.8,8.18,3,2
18288.734,0.119,-0.777,0.543,5.31,-30.18,6.81,3,2
18288.734,0.125,-0.729,0.519,7.66,-27.59,8.85,3,2
18288.75,0.133,-0.713,0.501,5.28,-22.4,15.08,3,2
18288.765,0.137,-0.719,0.521,1.01,-16.54,22.8,3,2
18288.765,0.131,-0.736,0.535,-0.95,-11.87,28.93,3,2
18288.781,0.131,-0.763,0.545,-2.69,-9.46,32.65,3,2
18288.796,0.117,-0.809,0.552,-5.65,-8.21,33.54,3,2
18288.796,0.108,-0.845,0.555,-6.93,-8.88,31.56,3,2
18288.812,0.102,-0.863,0.546,-3.85,-11.08,27.04,3,2
18288.812,0.115,-0.852,0.555,1.04,-13.0,21.61,3,2
18288.828,0.111,-0.84,0.577,7.11,-13.64,16.42,3,2
18288.843,0.105,-0.818,0.579,13.95,-14.31,14.1,3,2
18288.859,0.092,-0.813,0.575,17.94,-14.4,14.56,3,2
18288.859,0.086,-0.822,0.556,18.28,-14.74,16.27,3,2
18288.875,0.094,-0.822,0.542,15.41,-14.56,17.33,3,2
18288.875,0.097,-0.828,0.541,11.6,-13.09,17.12,3,2
18288.89,0.106,-0.842,0.56,10.68,-11.99,15.78,3,2
18288.906,0.116,-0.819,0.569,12.97,-10.9,13.79,3,2
18288.906,0.109,-0.799,0.586,12.73,-9.77,11.84,3,2
18288.921,0.095,-0.817,0.613,9.61,-10.16,10.22,3,2
18288.921,0.093,-0.84,0.638,7.84,-11.9,8.82,3,2
18288.937,0.1,-0.844,0.666,8.03,-13.92,6.74,3,2
18288.953,0.092,-0.849,0.69,8.45,-16.21,3.97,3,2
18288.953,0.067,-0.856,0.703,8.51,-20.26,0.0,3,2
18288.968,0.046,-0.862,0.708,9.77,-26.58,-4.55,3,2
18288.984,0.054,-0.866,0.691,12.05,-34.46,-8.64,3,2
18289.0,0.089,-0.866,0.655,14.1,-41.17,-12.67,3,2
18289.0,0.119,-0.846,0.622,16.51,-44.01,-16.27,3,2
18289.015,0.132,-0.819,0.609,17.33,-43.4,-18.16,3,2
18289.015,0.136,-0.795,0.617,17.03,-40.83,-18.07,3,2
18289.031,0.137,-0.772,0.619,16.51,-38.06,-16.36,3,2
18289.046,0.143,-0.745,0.621,14.19,-35.16,-12.94,3,2
18289.046,0.144,-0.739,0.626,9.52,-32.69,-9.25,3,2
18289.062,0.148,-0.749,0.644,5.98,-32.41,-6.84,3,2
18289.062,0.145,-0.761,0.658,6.74,-33.78,-6.01,3,2
18289.078,0.159,-0.75,0.66,10.99,-36.77,-5.83,3,2
18289.093,0.178,-0.737,0.649,15.08,-38.91,-6.16,3,2
18289.093,0.161,-0.731,0.626,16.75,-39.06,-6.59,3,2
18289.109,0.161,-0.728,0.606,15.26,-38.51,-4.64,3,2
18289.125,0.178,-0.722,0.599,12.73,-37.45,-1.1,3,2
18289.125,0.188,-0.728,0.594,10.68,-34.21,2.2,3,2
18289.14,0.193,-0.729,0.585,8.88,-30.27,5.37,3,2
18289.156,0.195,-0.73,0.595,7.78,-26.49,7.9,3,2
18289.156,0.191,-0.727,0.616,8.24,-23.38,9.64,3,2
18289.171,0.183,-0.716,0.621,8.58,-21.42,11.2,3,2
18289.187,0.169,-0.728,0.625,7.9,-22.49,14.8,3,2
18289.187,0.167,-0.733,0.621,8.64,-25.15,15.11,3,2
18289.203,0.186,-0.742,0.597,10.38,-26.31,14.07,3,2
18289.203,0.202,-0.747,0.568,11.84,-24.51,13.64,3,2
18289.218,0.208,-0.745,0.525,12.42,-20.63,14.74,3,2
18289.234,0.212,-0.746,0.516,11.14,-15.72,17.18,3,2
18289.234,0.205,-0.755,0.529,9.0,-10.62,19.56,3,2
18289.25,0.192,-0.767,0.544,7.78,-6.78,21.18,3,2
18289.265,0.193,-0.774,0.551,7.69,-4.46,22.8,3,2
18289.265,0.193,-0.777,0.566,7.69,-2.96,23.65,3,2
18289.281,0.186,-0.786,0.581,8.21,-3.02,23.53,3,2
18289.281,0.191,-0.787,0.572,9.22,-4.61,24.02,3,2
18289.296,0.207,-0.781,0.572,7.97,-5.89,24.32,3,2
18289.312,0.212,-0.79,0.583,5.65,-6.26,23.9,3,2
18289.312,0.211,-0.797,0.597,4.55,-5.74,24.38,3,2
18289.328,0.202,-0.796,0.613,5.01,-4.79,26.15,3,2
18289.343,0.207,-0.798,0.621,5.04,-5.43,27.95,3,2
18289.343,0.21,-0.805,0.632,5.22,-6.07,28.57,3,2
18289.359,0.211,-0.814,0.64,6.23,-7.6,28.26,3,2
18289.375,0.209,-0.814,0.649,8.48,-8.7,27.8,3,2
18289.375,0.205,-0.797,0.646,10.25,-9.74,27.62,3,2
18289.39,0.195,-0.79,0.641,9.13,-11.44,27.53,3,2
18289.406,0.176,-0.809,0.62,6.01,-13.37,28.05,3,2
18289.406,0.177,-0.827,0.6,2.78,-15.2,29.21,3,2
18289.421,0.171,-0.839,0.579,0.76,-15.26,29.91,3,2
18289.437,0.161,-0.85,0.566,-1.46,-13.73,30.24,3,2
18289.437,0.152,-0.86,0.575,-4.15,-11.99,29.73,3,2
18289.453,0.134,-0.864,0.582,-5.58,-9.95,29.11,3,2
18289.453,0.126,-0.858,0.592,-8.12,-8.33,29.02,3,2
18289.468,0.126,-0.872,0.602,-11.23,-8.36,27.07,3,2
18289.484,0.126,-0.883,0.612,-11.75,-10.01,23.59,3,2
18289.484,0.125,-0.879,0.624,-8.85,-11.84,19.26,3,2
18289.5,0.128,-0.866,0.616,-5.04,-14.31,15.23,3,2
18289.515,0.131,-0.857,0.616,-3.08,-16.05,11.81,3,2
18289.515,0.127,-0.85,0.624,-1.01,-17.24,9.31,3,2
18289.531,0.126,-0.817,0.614,0.95,-17.64,8.61,3,2
18289.531,0.127,-0.794,0.614,-0.12,-17.43,8.7,3,2
18289.546,0.117,-0.791,0.615,-1.95,-17.09,9.13,3,2
18289.562,0.117,-0.786,0.612,-2.87,-17.03,10.32,3,2
18289.562,0.128,-0.773,0.613,-4.0,-16.75,11.35,3,2
18289.578,0.123,-0.774,0.61,-5.65,-15.84,11.78,3,2
18289.593,0.121,-0.787,0.61,-7.02,-15.56,12.02,3,2
18289.593,0.125,-0.798,0.6,-7.54,-15.38,11.57,3,2
18289.609,0.129,-0.809,0.594,-7.11,-15.23,10.01,3,2
18289.625,0.133,-0.818,0.594,-4.73,-15.14,7.78,3,2
18289.625,0.132,-0.82,0.588,-1.31,-14.71,5.86,3,2
18289.64,0.138,-0.808,0.58,2.14,-13.67,4.55,3,2
18289.656,0.132,-0.773,0.592,4.58,-11.84,3.94,3,2
18289.656,0.109,-0.749,0.589,4.15,-10.22,6.01,3,2
18289.671,0.108,-0.742,0.596,-1.04,-10.9,10.77,3,2
18289.671,0.114,-0.766,0.603,-7.05,-11.66,15.72,3,2
18289.687,0.13,-0.801,0.6,-11.69,-12.42,19.1,3,2
18289.703,0.143,-0.837,0.594,-14.37,-13.61,19.47,3,2
18289.703,0.143,-0.876,0.588,-14.28,-14.68,16.45,3,2
18289.718,0.141,-0.894,0.58,-10.22,-15.99,11.11,3,2
18289.734,0.142,-0.881,0.558,-4.39,-16.54,5.98,3,2
18289.734,0.132,-0.862,0.555,-0.37,-15.96,1.71,3,2
18289.75,0.135,-0.838,0.552,0.27,-15.41,-0.98,3,2
18289.765,0.122,-0.811,0.576,-0.27,-14.22,-2.47,3,2
18289.765,0.097,-0.79,0.588,-0.18,-13.49,-1.56,3,2
18289.781,0.101,-0.775,0.593,-1.1,-15.14,0.98,3,2
18289.796,0.125,-0.775,0.588,-1.89,-17.55,1.65,3,2
18289.796,0.142,-0.774,0.577,-0.55,-18.59,1.59,3,2
18289.812,0.158,-0.766,0.567,1.53,-17.73,2.35,3,2
18289.812,0.172,-0.752,0.56,1.62,-15.2,4.21,3,2
18289.828,0.16,-0.745,0.565,-0.82,-11.69,6.68,3,2
18289.843,0.147,-0.763,0.573,-4.06,-9.28,9.98,3,2
18289.859,0.145,-0.787,0.567,-5.8,-8.12,13.25,3,2
18289.859,0.147,-0.803,0.561,-5.92,-7.39,14.92,3,2
18289.875,0.145,-0.819,0.556,-5.34,-7.02,14.47,3,2
18289.875,0.145,-0.834,0.548,-5.04,-6.81,12.91,3,2
18289.89,0.143,-0.843,0.557,-4.64,-6.68,10.71,3,2
18289.906,0.135,-0.846,0.574,-2.99,-6.65,8.79,3,2
18289.906,0.127,-0.836,0.59,-1.13,-7.23,7.87,3,2
18289.921,0.121,-0.83,0.604,0.4,-9.16,7.05,3,2
18289.921,0.123,-0.823,0.601,2.81,-11.84,7.2,3,2
18289.937,0.134,-0.808,0.597,4.03,-14.28,8.18,3,2
18289.953,0.148,-0.799,0.587,3.33,-16.33,8.55,3,2
18289.953,0.153,-0.797,0.577,0.76,-16.48,9.25,3,2
18289.968,0.15,-0.801,0.572,-2.35,-15.23,10.25,3,2
18289.984,0.151,-0.808,0.573,-3.97,-14.01,10.71,3,2
18289.984,0.142,-0.808,0.568,-3.14,-12.67,10.5,3,2
18290.0,0.13,-0.817,0.556,-0.58,-12.15,9.7,3,2
18290.015,0.126,-0.811,0.548,2.96,-12.21,9.31,3,2
18290.015,0.123,-0.803,0.537,6.07,-11.63,9.67,3,2
18290.031,0.127,-0.796,0.526,6.41,-9.89,10.9,3,2
18290.031,0.128,-0.793,0.53,4.15,-7.32,12.3,3,2
18290.046,0.118,-0.797,0.536,2.08,-4.18,13.49,3,2
18290.062,0.106,-0.798,0.553,1.1,-1.16,14.77,3,2
18290.062,0.09,-0.794,0.577,1.62,0.4,16.63,3,2
18290.078,0.081,-0.798,0.583,2.69,0.15,19.62,3,2
18290.093,0.094,-0.808,0.584,1.62,-0.89,22.92,3,2
18290.093,0.106,-0.835,0.584,-0.7,-1.77,24.6,3,2
18290.109,0.113,-0.86,0.574,-1.8,-1.71,24.2,3,2
18290.125,0.116,-0.869,0.571,-1.71,-1.13,22.61,3,2
18290.125,0.114,-0.879,0.567,-0.46,-0.24,19.81,3,2
18290.14,0.11,-0.878,0.569,1.4,0.52,16.39,3,2
18290.156,0.096,-0.866,0.582,3.6,0.7,13.28,3,2
18290.156,0.084,-0.852,0.588,4.76,-0.73,10.8,3,2
18290.171,0.076,-0.845,0.589,3.27,-2.56,10.35,3,2
18290.171,0.084,-0.846,0.588,2.5,-3.48,9.25,3,2
18290.187,0.089,-0.853,0.585,3.69,-3.05,7.75,3,2
18290.203,0.103,-0.833,0.573,5.4,-1.68,6.01,3,2
18290.203,0.082,-0.821,0.575,6.16,0.09,4.12,3,2
18290.218,0.063,-0.818,0.576,6.13,1.74,4.43,3,2
18290.234,0.059,-0.81,0.573,5.89,1.8,6.29,3,2
18290.234,0.066,-0.819,0.558,4.7,0.92,8.0,3,2
18290.25,0.072,-0.824,0.549,2.72,-0.24,8.45,3,2
18290.265,0.074,-0.827,0.547,1.01,-1.77,7.45,3,2
18290.265,0.063,-0.835,0.547,-0.15,-2.87,6.32,3,2
18290.281,0.06,-0.84,0.546,-0.4,-2.87,6.44,3,2
18290.281,0.064,-0.834,0.546,0.76,-3.11,6.16,3,2
18290.296,0.075,-0.832,0.544,2.41,-3.66,4.85,3,2
18290.312,0.078,-0.829,0.538,2.96,-3.75,3.45,3,2
18290.312,0.08,-0.832,0.538,2.35,-2.72,2.87,3,2
18290.328,0.078,-0.825,0.549,1.4,-0.82,3.02,3,2
18290.343,0.072,-0.824,0.553,0.55,0.49,3.2,3,2
18290.343,0.074,-0.829,0.566,0.06,1.43,3.54,3,2
18290.359,0.075,-0.824,0.576,0.7,2.38,3.3,3,2
18290.375,0.06,-0.825,0.579,1.62,2.69,2.29,3,2
18290.375,0.061,-0.824,0.592,1.92,1.74,2.32,3,2
18290.39,0.071,-0.82,0.599,2.26,0.85,2.41,3,2
18290.39,0.076,-0.823,0.597,2.75,-0.18,1.77,3,2
18290.406,0.084,-0.821,0.597,3.08,-0.52,1.22,3,2
18290.421,0.093,-0.817,0.597,2.81,-0.06,1.01,3,2
18290.437,0.1,-0.81,0.602,0.79,2.01,1.65,3,2
18290.437,0.095,-0.803,0.607,-2.69,4.94,2.72,3,2
18290.453,0.079,-0.807,0.626,-7.9,7.57,4.49,3,2
18290.453,0.059,-0.815,0.644,-13.15,9.0,6.93,3,2
18290.468,0.046,-0.827,0.656,-17.0,8.45,8.67,3,2
18290.484,0.042,-0.846,0.663,-19.29,5.98,8.82,3,2
18290.5,0.042,-0.868,0.656,-19.32,2.08,6.71,3,2
18290.5,0.044,-0.886,0.654,-16.14,-2.47,3.08,3,2
18290.515,0.044,-0.89,0.631,-9.06,-6.56,-1.37,3,2
18290.515,0.053,-0.863,0.597,-1.65,-8.79,-5.13,3,2
18290.531,0.061,-0.842,0.568,2.84,-9.74,-8.82,3,2
18290.531,0.065,-0.817,0.539,3.69,-9.77,-11.66,3,2
18290.546,0.071,-0.797,0.526,2.04,-8.91,-13.34,3,2
18290.562,0.07,-0.785,0.523,1.07,-6.78,-13.73,3,2
18290.562,0.069,-0.772,0.516,1.4,-4.52,-12.73,3,2
18290.578,0.074,-0.763,0.516,1.43,-2.44,-11.08,3,2
18290.593,0.079,-0.759,0.515,0.58,-0.49,-9.61,3,2
18290.593,0.083,-0.764,0.519,-1.22,0.73,-8.27,3,2
18290.609,0.094,-0.78,0.529,-2.93,1.19,-7.84,3,2
18290.625,0.105,-0.798,0.535,-2.66,2.17,-8.36,3,2
18290.64,0.119,-0.799,0.538,-0.82,3.36,-9.92,3,2
18290.64,0.127,-0.804,0.539,1.71,3.72,-13.28,3,2
18290.656,0.14,-0.804,0.543,3.85,3.02,-17.67,3,2
18290.656,0.15,-0.79,0.556,5.71,2.44,-22.34,3,2
18290.671,0.16,-0.781,0.574,6.87,3.2,-25.27,3,2
18290.671,0.171,-0.773,0.596,6.29,5.65,-25.18,3,2
18290.687,0.162,-0.763,0.613,4.36,7.93,-23.19,3,2
18290.703,0.149,-0.771,0.636,1.71,7.78,-21.21,3,2
18290.703,0.134,-0.784,0.653,0.34,5.62,-19.29,3,2
18290.718,0.108,-0.791,0.663,1.25,2.08,-17.61,3,2
18290.734,0.089,-0.803,0.652,4.88,-3.54,-16.88,3,2
18290.75,0.083,-0.801,0.634,10.25,-9.43,-15.78,3,2
18290.75,0.092,-0.797,0.612,14.1,-13.64,-13.89,3,2
18290.765,0.105,-0.8,0.587,14.44,-16.42,-11.54,3,2
18290.765,0.114,-0.814,0.574,12.12,-17.7,-9.61,3,2
18290.781,0.117,-0.833,0.57,8.48,-17.52,-6.93,3,2
18290.796,0.132,-0.848,0.567,4.58,-17.0,-4.49,3,2
18290.796,0.14,-0.87,0.565,1.98,-16.08,-4.27,3,2
18290.812,0.136,-0.879,0.577,1.4,-14.86,-5.37,3,2
18290.812,0.121,-0.883,0.585,4.33,-14.4,-6.93,3,2
18290.828,0.102,-0.879,0.579,9.4,-15.29,-8.21,3,2
18290.843,0.11,-0.872,0.564,13.46,-17.03,-8.61,3,2
18290.859,0.127,-0.867,0.54,13.92,-17.24,-8.3,3,2
18290.859,0.129,-0.866,0.518,10.86,-15.78,-8.18,3,2
18290.875,0.128,-0.879,0.512,6.65,-13.79,-8.76,3,2
18290.875,0.113,-0.889,0.513,4.91,-11.96,-10.35,3,2
18290.89,0.073,-0.89,0.499,7.11,-12.21,-13.7,3,2
18290.906,0.065,-0.877,0.486,11.54,-14.19,-18.46,3,2
18290.906,0.059,-0.848,0.461,17.98,-17.49,-24.87,3,2
18290.921,0.07,-0.835,0.447,22.74,-17.76,-29.18,3,2
18290.937,0.104,-0.802,0.45,22.46,-11.66,-27.53,3,2
18290.937,0.133,-0.773,0.457,19.68,-3.6,-24.14,3,2
18290.953,0.16,-0.771,0.476,12.79,6.59,-18.31,3,2
18290.953,0.173,-0.769,0.513,1.74,17.52,-12.12,3,2
18290.968,0.164,-0.795,0.561,-10.01,25.51,-8.58,3,2
18290.984,0.146,-0.82,0.619,-18.65,30.34,-8.03,3,2
18290.984,0.132,-0.845,0.669,-20.69,31.22,-10.28,3,2
18291.0,0.126,-0.857,0.708,-16.75,29.33,-13.61,3,2
18291.015,0.137,-0.848,0.727,-9.13,25.06,-17.43,3,2
18291.015,0.158,-0.833,0.723,-1.92,19.59,-21.76,3,2
18291.031,0.173,-0.813,0.726,3.14,14.89,-25.15,3,2
18291.046,0.185,-0.781,0.724,5.31,11.14,-26.58,3,2
18291.046,0.202,-0.76,0.718,5.07,7.35,-25.94,3,2
18291.062,0.216,-0.748,0.707,2.87,6.23,-21.88,3,2
18291.078,0.224,-0.742,0.694,-0.55,6.23,-16.51,3,2
18291.078,0.227,-0.757,0.682,-4.88,5.74,-11.02,3,2
18291.093,0.231,-0.775,0.668,-10.5,5.01,-5.71,3,2
18291.093,0.229,-0.79,0.662,-14.98,3.57,-3.2,3,2
18291.109,0.219,-0.811,0.645,-16.39,1.04,-3.45,3,2
18291.125,0.217,-0.822,0.641,-15.23,-1.77,-5.22,3,2
18291.125,0.207,-0.821,0.633,-10.65,-4.03,-7.63,3,2
18291.14,0.204,-0.808,0.614,-5.46,-6.01,-9.25,3,2
18291.156,0.208,-0.797,0.605,-1.92,-6.47,-8.97,3,2
18291.156,0.206,-0.794,0.591,-3.08,-5.34,-7.66,3,2
18291.171,0.206,-0.792,0.587,-4.61,-3.66,-6.35,3,2
18291.171,0.184,-0.793,0.569,-6.74,-2.62,-4.85,3,2
18291.187,0.164,-0.809,0.574,-7.93,-2.04,-3.81,3,2
18291.203,0.153,-0.823,0.56,-6.74,-2.41,-2.53,3,2
18291.218,0.145,-0.829,0.537,-4.91,-3.63,-2.93,3,2
18291.218,0.144,-0.844,0.518,-4.36,-4.7,-4.39,3,2
18291.234,0.156,-0.855,0.508,-4.88,-4.3,-5.62,3,2
18291.234,0.156,-0.866,0.498,-5.07,-0.82,-7.32,3,2
18291.25,0.16,-0.863,0.494,-4.94,3.02,-8.61,3,2
18291.265,0.167,-0.848,0.501,-5.49,6.81,-9.46,3,2
18291.265,0.17,-0.834,0.514,-6.53,9.37,-10.32,3,2
18291.281,0.178,-0.822,0.525,-6.96,10.07,-11.14,3,2
18291.281,0.19,-0.804,0.545,-6.35,9.92,-11.78,3,2
18291.296,0.203,-0.794,0.56,-4.06,9.37,-12.76,3,2
18291.312,0.218,-0.775,0.559,-0.46,8.58,-12.79,3,2
18291.312,0.246,-0.746,0.555,1.34,8.58,-11.44,3,2
18291.328,0.256,-0.729,0.562,0.85,10.41,-10.16,3,2
18291.343,0.236,-0.728,0.58,-1.22,12.79,-7.35,3,2
18291.343,0.246,-0.728,0.602,-5.77,12.39,-2.69,3,2
18291.359,0.243,-0.746,0.617,-10.04,11.69,0.95,3,2
18291.375,0.22,-0.776,0.62,-11.87,10.56,4.55,3,2
18291.375,0.245,-0.788,0.626,-12.67,7.11,7.35,3,2
18291.39,0.25,-0.809,0.622,-11.02,4.67,6.44,3,2
18291.406,0.24,-0.832,0.609,-6.56,2.75,4.24,3,2
18291.406,0.254,-0.824,0.605,-1.37,0.58,2.08,3,2
18291.421,0.231,-0.811,0.583,3.51,0.18,-1.04,3,2
18291.421,0.22,-0.797,0.568,4.55,-0.34,-2.17,3,2
18291.437,0.244,-0.793,0.563,1.5,-0.55,-1.89,3,2
18291.453,0.243,-0.807,0.55,-2.23,2.01,-2.01,3,2
18291.453,0.235,-0.822,0.547,-5.4,4.82,-2.04,3,2
18291.468,0.228,-0.828,0.558,-7.02,7.08,-3.02,3,2
18291.484,0.185,-0.836,0.57,-4.91,8.67,-4.82,3,2
18291.484,0.158,-0.83,0.585,-1.34,7.11,-5.07,3,2
18291.5,0.165,-0.819,0.584,1.8,3.33,-5.34,3,2
18291.515,0.167,-0.827,0.561,4.21,0.24,-6.59,3,2
18291.515,0.192,-0.828,0.537,5.37,-1.65,-7.57,3,2
18291.531,0.207,-0.828,0.514,5.34,-0.18,-8.85,3,2
18291.546,0.195,-0.836,0.484,4.61,4.18,-9.7,3,2
18291.546,0.193,-0.843,0.472,2.11,8.36,-9.61,3,2
18291.562,0.176,-0.853,0.469,-0.67,12.15,-9.92,3,2
18291.562,0.146,-0.859,0.476,-4.06,15.2,-9.58,3,2
18291.578,0.156,-0.869,0.484,-8.97,16.24,-8.36,3,2
18291.593,0.17,-0.889,0.492,-13.43,18.22,-8.15,3,2
18291.609,0.186,-0.913,0.5,-16.66,22.4,-9.03,3,2
18291.609,0.201,-0.927,0.516,-18.65,28.35,-10.86,3,2
18291.625,0.201,-0.934,0.543,-18.52,34.52,-13.89,3,2
18291.625,0.192,-0.918,0.59,-16.42,38.3,-18.04,3,2
18291.64,0.162,-0.879,0.622,-12.94,39.19,-22.16,3,2
18291.656,0.153,-0.828,0.643,-11.69,36.07,-22.95,3,2
18291.656,0.164,-0.777,0.661,-12.27,29.66,-22.13,3,2
18291.671,0.174,-0.748,0.656,-13.76,22.68,-19.04,3,2
18291.687,0.218,-0.733,0.634,-16.45,16.17,-14.4,3,2
18291.687,0.254,-0.732,0.599,-18.13,12.54,-10.9,3,2
18291.703,0.271,-0.747,0.576,-18.46,11.54,-8.24,3,2
18291.703,0.28,-0.757,0.566,-17.18,11.47,-6.07,3,2
18291.718,0.261,-0.774,0.544,-14.22,12.97,-3.78,3,2
18291.734,0.255,-0.778,0.534,-12.88,13.52,-1.22,3,2
18291.734,0.226,-0.795,0.531,-13.09,14.16,0.15,3,2
