timestamp,ax,ay,az,gx,gy,gz,orient_label,motion_label
16304.312,-0.947,0.027,0.272,0.67,-0.82,0.31,0,0
16304.328,-0.943,0.031,0.274,-0.89,-1.19,-0.06,0,0
16304.328,-0.944,0.027,0.279,-2.08,-1.25,-0.27,0,0
16304.343,-0.944,0.015,0.282,-1.74,-1.13,-0.21,0,0
16304.343,-0.944,0.017,0.28,-0.55,-1.16,-0.4,0,0
16304.359,-0.946,0.024,0.278,0.58,-0.95,-0.7,0,0
16304.375,-0.949,0.025,0.277,0.89,-0.85,-0.31,0,0
16304.375,-0.944,0.028,0.274,0.37,-0.98,0.27,0,0
16304.39,-0.94,0.028,0.275,-0.4,-0.85,0.15,0,0
16304.406,-0.943,0.023,0.276,-1.07,-0.7,-0.06,0,0
16304.406,-0.944,0.022,0.28,-1.34,-0.52,-0.12,0,0
16304.421,-0.943,0.026,0.281,-1.4,-0.64,-0.31,0,0
16304.437,-0.944,0.029,0.284,-1.31,-0.85,-0.49,0,0
16304.437,-0.943,0.035,0.284,-0.95,-0.85,-0.43,0,0
16304.453,-0.946,0.032,0.282,-0.43,-0.79,0.0,0,0
16304.453,-0.949,0.032,0.282,-0.4,-0.95,0.31,0,0
16304.468,-0.949,0.026,0.277,-0.73,-1.43,0.31,0,0
16304.484,-0.944,0.01,0.276,-1.01,-1.62,0.12,0,0
16304.5,-0.939,0.01,0.275,-0.7,-1.07,-0.09,0,0
16304.515,-0.938,0.015,0.274,-0.06,-0.7,-0.37,0,0
16304.515,-0.94,0.021,0.276,0.49,-0.64,-0.64,0,0
16304.531,-0.943,0.027,0.274,0.64,-0.61,-0.43,0,0
16304.546,-0.945,0.035,0.268,0.43,-0.46,-0.34,0,0
16304.546,-0.95,0.042,0.266,-0.09,-0.34,-0.21,0,0
16304.562,-0.95,0.042,0.268,-0.73,-0.37,0.03,0,0
16304.562,-0.947,0.04,0.272,-1.22,-0.24,0.31,0,0
16304.578,-0.947,0.033,0.279,-1.56,-0.43,0.46,0,0
16304.593,-0.946,0.022,0.283,-1.68,-0.61,0.58,0,0
16304.593,-0.944,0.008,0.283,-1.43,-0.7,0.98,0,0
16304.609,-0.94,-0.003,0.281,-0.89,-1.07,0.85,0,0
16304.625,-0.941,-0.002,0.28,-0.24,-1.25,-0.06,0,0
16304.625,-0.945,0.005,0.283,0.64,-1.19,-0.52,0,0
16304.64,-0.946,0.016,0.282,1.56,-1.37,-0.58,0,0
16304.656,-0.946,0.035,0.274,1.74,-1.4,-1.1,0,0
16304.671,-0.943,0.039,0.275,1.5,-1.34,-0.82,0,0
16304.687,-0.941,0.037,0.274,0.79,-0.98,-0.52,0,0
16304.687,-0.938,0.035,0.272,-0.21,-0.58,-0.27,0,0
16304.703,-0.937,0.03,0.277,-1.4,-0.34,-0.15,0,0
16304.703,-0.94,0.025,0.282,-2.11,-0.37,-0.18,0,0
16304.718,-0.943,0.021,0.287,-1.65,-0.52,-0.03,0,0
16304.734,-0.947,0.019,0.287,-0.67,-0.79,-0.06,0,0
16304.734,-0.947,0.019,0.285,0.37,-1.19,0.0,0,0
16304.75,-0.947,0.018,0.276,0.79,-1.46,-0.18,0,0
16304.765,-0.947,0.018,0.273,0.89,-1.65,-0.37,0,0
16304.765,-0.944,0.025,0.266,0.76,-1.62,-0.24,0,0
16304.781,-0.941,0.027,0.265,0.82,-1.59,-0.09,0,0
16304.796,-0.941,0.025,0.267,0.55,-1.59,-0.18,0,0
16304.796,-0.946,0.026,0.268,0.15,-1.5,-0.24,0,0
16304.812,-0.946,0.024,0.27,0.34,-1.43,-0.09,0,0
16304.828,-0.947,0.022,0.271,1.1,-1.13,0.18,0,0
16304.843,-0.948,0.025,0.275,1.07,-0.92,-0.12,0,0
16304.859,-0.946,0.026,0.281,1.07,-0.67,-0.12,0,0
16304.859,-0.948,0.024,0.287,1.22,-0.7,-0.18,0,0
16304.875,-0.948,0.026,0.288,1.1,-1.71,-0.09,0,0
16304.875,-0.944,0.024,0.287,0.64,-2.01,-0.21,0,0
16304.89,-0.941,0.024,0.282,0.49,-1.92,-0.15,0,0
16304.906,-0.941,0.026,0.283,0.52,-1.65,0.03,0,0
16304.906,-0.943,0.028,0.28,0.27,-1.62,0.24,0,0
16304.921,-0.943,0.026,0.281,0.18,-1.71,0.31,0,0
16304.937,-0.945,0.022,0.28,0.21,-1.62,0.43,0,0
16304.937,-0.946,0.019,0.281,0.21,-1.37,0.4,0,0
16304.953,-0.945,0.02,0.279,0.27,-1.34,0.31,0,0
16304.953,-0.944,0.022,0.276,-0.03,-1.62,0.24,0,0
16304.968,-0.943,0.025,0.278,-0.73,-1.74,0.06,0,0
16304.984,-0.943,0.025,0.279,-0.64,-1.28,-0.18,0,0
16305.0,-0.945,0.033,0.277,-0.03,-0.85,0.03,0,0
16305.015,-0.95,0.034,0.279,-0.46,-1.13,0.06,0,0
16305.015,-0.951,0.033,0.28,-1.25,-1.56,0.58,0,0
16305.031,-0.946,0.032,0.28,-1.28,-2.14,1.28,0,0
16305.046,-0.94,0.027,0.276,-1.34,-2.41,1.22,0,0
16305.046,-0.941,0.019,0.28,-1.01,-1.92,0.89,0,0
16305.062,-0.944,0.016,0.281,0.21,-1.25,0.76,0,0
16305.078,-0.942,0.017,0.28,1.62,-1.07,0.76,0,0
16305.078,-0.944,0.018,0.281,2.04,-1.22,0.67,0,0
16305.093,-0.943,0.018,0.278,1.65,-1.43,0.76,0,0
16305.093,-0.938,0.019,0.276,0.67,-1.4,0.43,0,0
16305.109,-0.941,0.022,0.275,0.03,-1.16,0.0,0,0
16305.125,-0.945,0.025,0.277,-0.21,-0.89,0.15,0,0
16305.125,-0.945,0.027,0.278,-0.4,-0.79,0.52,0,0
16305.14,-0.943,0.028,0.276,-0.82,-0.98,0.7,0,0
16305.156,-0.944,0.027,0.278,-1.56,-1.22,0.61,0,0
16305.156,-0.944,0.022,0.279,-1.86,-1.34,0.7,0,0
16305.171,-0.94,0.017,0.277,-1.31,-1.16,0.79,0,0
16305.171,-0.941,0.019,0.282,-0.31,-0.82,0.58,0,0
16305.187,-0.944,0.024,0.282,0.49,-0.67,0.52,0,0
16305.203,-0.943,0.034,0.28,0.7,-0.64,0.55,0,0
16305.203,-0.944,0.032,0.28,0.49,-0.76,0.61,0,0
16305.234,-0.943,0.036,0.282,0.03,-1.1,0.61,0,0
16305.234,-0.943,0.041,0.277,-0.24,-1.07,0.7,0,0
16305.234,-0.943,0.038,0.277,-0.67,-1.04,0.79,0,0
16305.25,-0.942,0.034,0.278,-1.4,-0.85,0.76,0,0
16305.265,-0.945,0.03,0.279,-2.04,-0.58,0.89,0,0
16305.265,-0.941,0.024,0.285,-1.95,-0.52,0.7,0,0
16305.281,-0.944,0.026,0.284,-1.19,-0.37,0.37,0,0
16305.296,-0.946,0.025,0.287,-0.09,-0.55,0.43,0,0
16305.296,-0.942,0.027,0.288,1.22,-0.95,0.4,0,0
16305.312,-0.94,0.036,0.286,2.17,-0.98,0.27,0,0
16305.312,-0.937,0.039,0.284,2.26,-1.25,0.64,0,0
16305.328,-0.937,0.037,0.28,1.8,-1.59,0.92,0,0
16305.343,-0.941,0.034,0.273,0.95,-1.8,0.73,0,0
16305.359,-0.947,0.031,0.272,-0.03,-1.68,0.52,0,0
16305.359,-0.949,0.029,0.274,-0.79,-1.37,0.49,0,0
16305.375,-0.949,0.026,0.277,-0.7,-1.1,0.52,0,0
16305.39,-0.947,0.025,0.28,-0.21,-0.79,0.55,0,0
16305.39,-0.945,0.024,0.282,0.46,-0.55,0.43,0,0
16305.406,-0.945,0.024,0.285,1.16,-0.4,0.18,0,0
16305.406,-0.945,0.029,0.283,1.65,-0.49,0.03,0,0
16305.421,-0.948,0.035,0.281,1.25,-0.79,-0.18,0,0
16305.421,-0.948,0.034,0.279,0.31,-1.25,0.06,0,0
16305.437,-0.945,0.031,0.276,-0.34,-1.4,0.46,0,0
16305.453,-0.944,0.029,0.279,-0.98,-1.43,0.55,0,0
16305.453,-0.944,0.027,0.277,-1.68,-1.43,0.37,0,0
16305.468,-0.941,0.026,0.278,-2.56,-1.31,0.34,0,0
16305.484,-0.94,0.021,0.284,-2.66,-0.98,0.21,0,0
16305.484,-0.938,0.02,0.287,-1.8,-0.79,-0.03,0,0
16305.5,-0.941,0.023,0.29,-0.58,-0.76,-0.27,0,0
16305.515,-0.941,0.027,0.287,-0.03,-0.92,-0.34,0,0
16305.515,-0.946,0.028,0.288,-0.09,-1.25,-0.4,0,0
16305.531,-0.95,0.024,0.287,0.09,-1.56,-0.37,0,0
16305.546,-0.95,0.025,0.284,0.31,-1.95,0.06,0,0
16305.546,-0.946,0.028,0.283,0.4,-2.5,0.12,0,0
16305.562,-0.944,0.029,0.277,0.15,-2.47,-0.24,0,0
16305.562,-0.943,0.028,0.275,0.06,-2.35,-0.21,0,0
16305.578,-0.943,0.028,0.275,0.21,-2.2,0.03,0,0
16305.593,-0.94,0.029,0.272,0.06,-2.14,0.21,0,0
16305.609,-0.938,0.029,0.27,-0.49,-1.92,0.18,0,0
16305.609,-0.943,0.025,0.271,-0.64,-1.71,-0.03,0,0
16305.625,-0.944,0.02,0.273,-0.52,-1.68,0.12,0,0
16305.625,-0.936,0.023,0.272,-0.34,-1.53,-0.03,0,0
16305.64,-0.937,0.026,0.268,-0.43,-1.1,-0.52,0,0
16305.656,-0.942,0.028,0.272,-0.89,-0.55,-0.85,0,0
16305.656,-0.945,0.029,0.276,-1.07,-0.31,-0.76,0,0
16305.671,-0.943,0.03,0.281,-0.92,-0.49,-0.24,0,0
16305.687,-0.939,0.029,0.282,-0.64,-0.73,-0.27,0,0
16305.687,-0.939,0.027,0.283,0.12,-0.95,-0.73,0,0
16305.703,-0.944,0.031,0.284,1.4,-0.76,-0.95,0,0
16305.703,-0.945,0.034,0.282,2.62,-0.64,-0.73,0,0
16305.718,-0.941,0.04,0.279,2.75,-0.82,-0.46,0,0
16305.734,-0.94,0.043,0.274,1.71,-0.92,-0.55,0,0
16305.734,-0.946,0.043,0.274,-0.15,-0.64,-0.58,0,0
16305.75,-0.947,0.039,0.282,-2.29,-0.85,-0.12,0,0
16305.765,-0.94,0.033,0.29,-3.14,-1.22,0.21,0,0
16305.765,-0.938,0.03,0.293,-2.08,-1.13,0.15,0,0
16305.781,-0.941,0.029,0.294,0.09,-0.76,-0.12,0,0
16305.781,-0.945,0.032,0.291,2.2,-0.73,0.12,0,0
16305.796,-0.943,0.036,0.283,2.93,-1.19,0.43,0,0
16305.812,-0.943,0.039,0.275,1.68,-1.68,0.55,0,0
16305.828,-0.946,0.031,0.274,-0.18,-1.92,0.64,0,0
16305.828,-0.943,0.021,0.28,-1.13,-1.83,1.07,0,0
16305.843,-0.936,0.013,0.285,-0.58,-1.53,1.13,0,0
16305.859,-0.94,0.01,0.285,2.08,-1.46,-0.46,0,0
16305.875,-0.937,0.016,0.282,2.08,-1.31,-0.98,0,0
16305.875,-0.943,0.021,0.285,1.86,-1.04,-1.34,0,0
16305.89,-0.948,0.038,0.278,1.46,-0.85,-1.01,0,0
16305.906,-0.947,0.038,0.278,1.01,-0.95,-0.61,0,0
16305.906,-0.95,0.036,0.282,0.55,-0.82,-0.24,0,0
16305.921,-0.952,0.028,0.286,0.61,-0.85,0.49,0,0
16305.921,-0.942,0.02,0.287,0.98,-1.37,1.04,0,0
16305.937,-0.935,0.017,0.282,1.46,-1.89,0.43,0,0
16305.953,-0.939,0.018,0.279,1.59,-1.56,-0.43,0,0
16305.953,-0.938,0.027,0.276,1.53,-1.16,-0.55,0,0
16305.968,-0.937,0.033,0.272,1.28,-0.79,-0.61,0,0
16305.984,-0.941,0.035,0.274,0.82,-0.34,-0.85,0,0
16305.984,-0.949,0.036,0.277,0.55,-0.24,-0.73,0,0
16306.0,-0.947,0.036,0.277,0.03,-0.46,-0.31,0,0
16306.015,-0.939,0.038,0.28,-0.73,-0.76,-0.21,0,0
16306.031,-0.938,0.031,0.288,0.24,0.12,0.0,0,0
16306.046,-0.938,0.03,0.285,1.77,0.15,0.27,0,0
16306.046,-0.939,0.032,0.287,2.5,-0.34,0.06,0,0
16306.062,-0.944,0.032,0.285,2.66,-0.67,-0.06,0,0
16306.078,-0.945,0.027,0.279,2.59,-0.89,-0.12,0,0
16306.078,-0.945,0.023,0.279,2.5,-1.13,-0.31,0,0
16306.093,-0.944,0.021,0.28,2.87,-0.79,-0.61,0,0
16306.093,-0.945,0.024,0.284,3.2,-0.27,-1.01,0,0
16306.109,-0.947,0.029,0.289,3.72,-0.34,-1.04,0,0
16306.125,-0.947,0.035,0.289,3.6,-0.73,-0.85,0,0
16306.14,-0.944,0.038,0.284,3.05,-0.95,-0.58,0,0
16306.14,-0.945,0.039,0.278,1.77,-1.07,-0.49,0,0
16306.14,-0.946,0.041,0.278,0.06,-1.16,-0.37,0,0
16306.156,-0.946,0.036,0.284,-1.04,-1.01,-0.09,0,0
16306.171,-0.945,0.034,0.29,-1.4,-0.58,0.21,0,0
16306.187,-0.946,0.031,0.297,-1.19,-0.43,0.24,0,0
16306.203,-0.942,0.03,0.291,-0.15,-1.53,0.03,0,0
16306.218,-0.938,0.028,0.285,0.24,-2.11,-0.21,0,0
16306.218,-0.935,0.032,0.278,0.79,-2.14,-0.15,0,0
16306.234,-0.936,0.035,0.273,1.4,-1.68,-0.12,0,0
16306.234,-0.938,0.033,0.273,1.53,-1.16,-0.06,0,0
16306.25,-0.944,0.032,0.277,1.25,-1.07,0.09,0,0
16306.265,-0.944,0.032,0.277,0.58,-1.13,0.18,0,0
16306.265,-0.939,0.031,0.276,-0.43,-1.25,0.06,0,0
16306.281,-0.94,0.027,0.279,-0.82,-1.22,-0.31,0,0
16306.296,-0.94,0.029,0.283,-0.49,-1.46,-0.15,0,0
16306.296,-0.938,0.031,0.282,0.64,-1.8,-0.09,0,0
16306.312,-0.939,0.029,0.282,2.2,-1.77,-0.12,0,0
16306.312,-0.945,0.032,0.278,3.42,-1.92,-0.09,0,0
16306.328,-0.947,0.036,0.273,3.57,-1.86,0.0,0,0
16306.343,-0.945,0.036,0.268,2.72,-1.83,0.21,0,0
16306.343,-0.945,0.035,0.272,1.34,-1.62,0.4,0,0
16306.375,-0.946,0.024,0.278,-0.43,-1.13,0.55,0,0
16306.375,-0.945,0.019,0.282,-0.46,-1.01,0.27,0,0
16306.39,-0.948,0.022,0.286,-0.24,-0.92,-0.09,0,0
16306.406,-0.949,0.025,0.289,0.18,-1.04,-0.12,0,0
16306.406,-0.949,0.027,0.289,0.67,-1.37,0.15,0,0
16306.421,-0.944,0.032,0.29,0.52,-1.74,0.18,0,0
16306.437,-0.944,0.027,0.288,0.43,-1.74,0.24,0,0
16306.437,-0.944,0.021,0.288,0.85,-1.46,0.73,0,0
16306.453,-0.94,0.016,0.291,1.56,-1.4,0.76,0,0
16306.453,-0.944,0.018,0.292,2.32,-1.22,0.24,0,0
16306.468,-0.949,0.024,0.298,3.39,-1.28,-0.06,0,0
16306.484,-0.949,0.027,0.296,4.52,-1.8,0.12,0,0
16306.484,-0.946,0.03,0.29,5.13,-2.32,-0.09,0,0
16306.5,-0.943,0.026,0.276,5.86,-2.72,-0.52,0,0
16306.515,-0.954,0.029,0.275,5.98,-2.59,-1.1,0,0
16306.515,-0.952,0.037,0.266,6.13,-2.56,-0.18,0,0
16306.531,-0.94,0.039,0.256,5.04,-2.53,0.85,0,0
16306.546,-0.931,0.032,0.261,2.96,-2.01,0.61,0,0
16306.546,-0.929,0.029,0.263,1.62,-1.04,-0.18,0,0
16306.562,-0.935,0.029,0.272,1.31,-0.12,-0.73,0,0
16306.578,-0.936,0.034,0.286,2.08,0.49,-0.95,0,0
16306.578,-0.94,0.039,0.295,3.23,0.31,-1.1,0,0
16306.593,-0.943,0.048,0.306,4.06,-0.09,-1.1,0,0
16306.593,-0.944,0.051,0.311,5.04,-1.04,-0.67,0,0
16306.609,-0.941,0.051,0.311,5.89,-1.68,-0.4,0,0
16306.625,-0.94,0.046,0.314,6.96,-2.08,-0.15,0,0
16306.625,-0.942,0.039,0.314,8.24,-2.53,-0.06,0,0
16306.64,-0.941,0.035,0.319,9.58,-3.36,-0.12,0,0
16306.656,-0.941,0.032,0.314,11.81,-4.49,-0.49,0,0
16306.671,-0.936,0.038,0.299,13.79,-5.16,-1.07,0,0
16306.671,-0.934,0.052,0.285,14.22,-5.25,-1.56,0,0
16306.671,-0.938,0.062,0.274,12.7,-4.76,-1.95,0,0
16306.687,-0.939,0.063,0.271,9.52,-3.78,-1.71,0,0
16306.703,-0.941,0.06,0.277,5.62,-2.99,-1.22,0,0
16306.703,-0.94,0.059,0.287,2.04,-2.84,-1.16,0,0
16306.718,-0.945,0.054,0.295,-0.09,-2.59,-0.92,0,0
16306.734,-0.95,0.047,0.307,-0.15,-2.47,-0.49,0,0
16306.734,-0.954,0.045,0.309,1.31,-3.05,-0.03,0,0
16306.75,-0.951,0.042,0.306,2.72,-4.0,0.4,0,0
16306.765,-0.947,0.034,0.305,4.3,-5.01,0.67,0,0
16306.765,-0.942,0.031,0.298,5.49,-5.68,0.95,0,0
16306.781,-0.936,0.027,0.288,6.26,-5.95,1.04,0,0
16306.796,-0.937,0.026,0.283,6.01,-5.62,0.85,0,0
16306.796,-0.942,0.023,0.283,5.13,-4.91,0.34,0,0
16306.812,-0.948,0.018,0.288,4.46,-4.24,-0.12,0,0
16306.812,-0.947,0.016,0.291,4.46,-3.85,-0.27,0,0
16306.828,-0.942,0.022,0.294,4.82,-3.69,-0.73,0,0
16306.843,-0.943,0.026,0.3,5.46,-4.09,-1.25,0,0
16306.859,-0.942,0.029,0.304,6.38,-4.58,-0.76,0,0
16306.859,-0.94,0.036,0.306,7.63,-5.13,-0.49,0,0
16306.875,-0.939,0.035,0.305,8.97,-5.49,-0.43,0,0
16306.875,-0.936,0.038,0.297,10.44,-5.8,-0.12,0,0
16306.89,-0.932,0.043,0.289,11.17,-5.83,0.15,0,0
16306.906,-0.93,0.04,0.282,11.11,-5.8,0.24,0,0
16306.906,-0.929,0.038,0.279,10.71,-5.43,0.21,0,0
16306.921,-0.93,0.041,0.275,10.19,-4.82,0.24,0,0
16306.937,-0.929,0.043,0.272,9.61,-4.03,0.27,0,0
16306.937,-0.927,0.042,0.274,8.88,-2.93,0.03,0,0
16306.953,-0.929,0.044,0.278,8.24,-1.74,-0.27,0,0
16306.953,-0.93,0.049,0.285,7.97,-1.04,-0.18,0,0
16306.968,-0.931,0.049,0.292,7.93,-0.64,0.12,0,0
16306.984,-0.932,0.049,0.3,8.3,-0.82,0.52,0,0
16306.984,-0.933,0.045,0.302,8.97,-1.83,0.98,0,0
16307.0,-0.928,0.044,0.293,9.61,-3.02,1.34,0,0
16307.015,-0.925,0.04,0.284,10.47,-3.51,1.5,0,0
16307.015,-0.925,0.042,0.271,11.08,-3.17,1.07,0,0
16307.031,-0.92,0.051,0.257,10.9,-2.26,1.01,0,0
16307.046,-0.918,0.052,0.25,9.58,-0.82,1.13,0,0
16307.046,-0.919,0.052,0.247,7.2,0.89,1.04,0,0
16307.062,-0.919,0.051,0.252,4.67,2.32,0.67,0,0
16307.078,-0.921,0.048,0.265,2.62,3.51,0.43,0,0
16307.078,-0.925,0.051,0.275,1.95,4.46,0.31,0,0
16307.093,-0.928,0.056,0.286,2.2,5.07,0.21,0,0
16307.093,-0.931,0.064,0.296,2.99,5.52,0.31,0,0
16307.109,-0.936,0.071,0.301,3.27,5.34,0.64,0,0
16307.125,-0.938,0.072,0.307,3.23,4.67,1.16,0,0
16307.125,-0.938,0.069,0.31,3.14,3.48,1.68,0,0
16307.14,-0.937,0.064,0.312,3.33,2.17,1.92,0,0
16307.156,-0.934,0.059,0.31,3.94,1.4,1.98,0,0
16307.156,-0.937,0.059,0.305,4.61,1.1,1.86,0,0
16307.171,-0.94,0.059,0.302,5.07,1.1,1.95,0,0
16307.171,-0.941,0.055,0.302,4.97,1.22,1.89,0,0
16307.187,-0.944,0.055,0.301,4.85,1.19,1.62,0,0
16307.203,-0.947,0.057,0.299,5.28,1.1,1.37,0,0
16307.203,-0.947,0.065,0.297,5.19,0.98,1.16,0,0
16307.234,-0.95,0.077,0.295,3.88,0.82,0.98,0,0
16307.234,-0.951,0.076,0.292,3.42,0.58,1.4,0,0
16307.25,-0.945,0.071,0.291,2.87,-0.12,1.8,0,0
16307.265,-0.94,0.073,0.283,2.32,-0.61,1.86,0,0
16307.265,-0.935,0.075,0.279,1.25,-0.79,1.86,0,0
16307.281,-0.936,0.068,0.278,0.73,-0.43,2.17,0,0
16307.296,-0.939,0.069,0.273,-0.09,-0.24,2.47,0,0
16307.296,-0.933,0.064,0.277,-1.62,-0.03,2.5,0,0
16307.312,-0.937,0.057,0.28,-2.56,0.49,2.2,0,0
16307.312,-0.936,0.054,0.285,-2.9,1.01,1.71,0,0
16307.328,-0.939,0.051,0.287,-2.11,1.31,1.13,0,0
16307.343,-0.941,0.055,0.29,-0.95,1.31,0.64,0,0
16307.343,-0.943,0.063,0.293,0.03,1.34,0.24,0,0
16307.359,-0.947,0.064,0.293,0.82,0.89,-0.03,0,0
16307.375,-0.946,0.068,0.291,1.01,0.49,0.0,0,0
16307.39,-0.95,0.071,0.294,1.07,0.49,-0.09,0,0
16307.406,-0.956,0.075,0.304,1.65,0.03,0.0,0,0
16307.406,-0.954,0.074,0.309,2.38,-0.61,0.31,0,0
16307.421,-0.952,0.072,0.306,3.17,-1.22,0.52,0,0
16307.437,-0.953,0.072,0.308,3.81,-2.11,0.4,0,0
16307.437,-0.953,0.069,0.306,4.24,-2.93,0.49,0,0
16307.453,-0.953,0.067,0.301,4.76,-3.66,0.52,0,0
16307.453,-0.953,0.064,0.297,5.25,-4.0,0.61,0,0
16307.468,-0.952,0.062,0.291,5.74,-4.36,0.73,0,0
16307.484,-0.946,0.06,0.286,6.35,-4.67,0.55,0,0
16307.484,-0.943,0.063,0.278,6.93,-4.79,0.27,0,0
16307.5,-0.938,0.066,0.273,6.96,-4.61,0.21,0,0
16307.515,-0.935,0.069,0.271,6.62,-4.24,0.4,0,0
16307.515,-0.931,0.065,0.271,6.32,-4.09,0.58,0,0
16307.531,-0.93,0.063,0.269,6.13,-3.63,0.58,0,0
16307.546,-0.934,0.061,0.27,5.71,-2.96,0.55,0,0
16307.546,-0.937,0.057,0.271,5.28,-2.75,0.58,0,0
16307.562,-0.939,0.059,0.27,4.97,-2.53,0.52,0,0
16307.578,-0.938,0.061,0.271,4.58,-2.14,0.67,0,0
16307.578,-0.937,0.06,0.271,3.81,-1.86,0.67,0,0
16307.593,-0.932,0.06,0.274,3.11,-1.4,0.58,0,0
16307.609,-0.93,0.06,0.277,2.81,-0.85,0.67,0,0
16307.609,-0.931,0.059,0.278,2.75,-0.64,0.67,0,0
16307.625,-0.93,0.063,0.28,2.38,-0.43,0.73,0,0
16307.625,-0.932,0.063,0.283,1.53,0.06,0.55,0,0
16307.64,-0.933,0.061,0.288,0.49,0.55,0.34,0,0
16307.656,-0.933,0.063,0.297,-0.31,1.31,-0.06,0,0
16307.656,-0.935,0.063,0.307,-0.37,1.8,-0.43,0,0
16307.671,-0.938,0.063,0.316,-0.06,1.46,-0.52,0,0
16307.687,-0.935,0.071,0.321,0.43,0.79,-0.49,0,0
16307.687,-0.93,0.075,0.318,0.98,-0.12,-0.67,0,0
16307.703,-0.93,0.075,0.318,1.4,-0.92,-0.73,0,0
16307.703,-0.931,0.08,0.312,1.77,-1.53,-0.43,0,0
16307.718,-0.929,0.081,0.304,1.89,-1.77,-0.24,0,0
16307.734,-0.928,0.081,0.298,1.77,-2.29,-0.49,0,0
16307.734,-0.927,0.084,0.289,1.43,-2.32,-0.79,0,0
16307.75,-0.928,0.091,0.285,0.64,-1.74,-0.73,0,0
16307.765,-0.93,0.1,0.283,-0.92,-1.25,-0.31,0,0
16307.765,-0.929,0.103,0.282,-3.17,-0.79,-0.46,0,0
16307.781,-0.932,0.098,0.289,-4.88,-0.27,-0.24,0,0
16307.796,-0.934,0.093,0.301,-5.31,0.0,0.09,0,0
16307.796,-0.938,0.092,0.306,-4.3,-0.37,0.18,0,0
16307.812,-0.945,0.092,0.306,-2.69,-1.28,0.21,0,0
16307.828,-0.948,0.098,0.302,-1.07,-3.27,0.85,0,0
16307.828,-0.945,0.1,0.293,-1.07,-3.66,1.22,0,0
16307.843,-0.942,0.098,0.285,-1.31,-3.39,1.62,0,0
16307.843,-0.944,0.091,0.279,-1.56,-2.87,2.11,0,0
16307.859,-0.943,0.083,0.277,-1.83,-2.44,2.2,0,0
16307.875,-0.946,0.077,0.28,-2.14,-1.92,1.89,0,0
16307.875,-0.949,0.075,0.284,-2.2,-1.59,1.65,0,0
16307.89,-0.95,0.076,0.284,-2.2,-1.59,1.74,0,0
16307.906,-0.947,0.072,0.285,-1.95,-1.68,1.98,0,0
16307.906,-0.946,0.065,0.288,-1.53,-1.86,2.2,0,0
16307.921,-0.944,0.061,0.288,-0.98,-2.26,2.26,0,0
16307.937,-0.94,0.061,0.285,-0.61,-2.56,2.23,0,0
16307.937,-0.939,0.055,0.283,-0.49,-2.78,1.92,0,0
16307.953,-0.938,0.053,0.279,-0.7,-2.66,1.43,0,0
16307.968,-0.939,0.053,0.283,-0.82,-2.47,1.13,0,0
16307.968,-0.937,0.049,0.278,-0.64,-2.32,0.92,0,0
16307.984,-0.935,0.053,0.283,-0.79,-1.83,0.64,0,0
16307.984,-0.937,0.049,0.284,-0.43,-1.43,0.06,0,0
16308.0,-0.939,0.049,0.284,0.18,-1.19,-0.27,0,0
16308.015,-0.94,0.051,0.284,1.19,-1.16,-0.34,0,0
16308.015,-0.939,0.052,0.28,1.5,-1.19,-0.61,0,0
16308.031,-0.942,0.055,0.279,1.28,-0.89,-1.19,0,0
16308.046,-0.947,0.056,0.284,0.82,-0.61,-1.5,0,0
16308.046,-0.942,0.055,0.284,0.49,-0.37,-1.53,0,0
16308.062,-0.936,0.055,0.289,0.37,-0.06,-1.92,0,0
16308.062,-0.938,0.06,0.29,0.52,0.18,-2.5,0,0
16308.078,-0.944,0.067,0.292,0.61,0.27,-2.53,0,0
16308.093,-0.941,0.073,0.292,0.27,-0.03,-2.26,0,0
16308.093,-0.938,0.077,0.288,-0.55,-0.49,-2.01,0,0
16308.109,-0.937,0.071,0.291,-1.13,-0.64,-1.98,0,0
16308.125,-0.936,0.069,0.29,-1.1,-0.49,-1.68,0,0
16308.14,-0.933,0.068,0.29,-0.37,-0.37,-1.5,0,0
16308.14,-0.928,0.07,0.289,0.4,-0.03,-1.56,0,0
16308.156,-0.93,0.072,0.287,0.92,0.34,-1.77,0,0
16308.156,-0.931,0.076,0.291,0.89,0.76,-1.86,0,0
16308.171,-0.931,0.079,0.294,0.58,0.85,-1.89,0,0
16308.187,-0.932,0.078,0.294,0.27,0.73,-1.89,0,0
16308.187,-0.934,0.082,0.295,0.21,0.43,-1.86,0,0
16308.203,-0.936,0.084,0.296,0.34,0.27,-1.56,0,0
16308.203,-0.933,0.082,0.295,0.24,-0.21,-0.98,0,0
16308.218,-0.933,0.085,0.293,0.43,-0.49,-0.73,0,0
16308.234,-0.934,0.087,0.294,1.04,-0.34,-0.67,0,0
16308.234,-0.937,0.088,0.291,1.37,-0.24,-0.58,0,0
16308.265,-0.931,0.087,0.287,0.27,-0.43,0.15,0,0
16308.265,-0.933,0.083,0.286,-0.64,-0.31,0.43,0,0
16308.281,-0.937,0.076,0.291,-1.25,-0.34,0.73,0,0
16308.296,-0.938,0.07,0.289,-0.79,-0.73,1.16,0,0
16308.296,-0.94,0.066,0.284,0.15,-0.79,1.01,0,0
16308.312,-0.945,0.067,0.285,0.58,-0.37,0.61,0,0
16308.312,-0.946,0.066,0.284,0.4,-0.03,0.67,0,0
16308.328,-0.939,0.065,0.282,0.06,0.15,0.64,0,0
16308.343,-0.936,0.065,0.283,-0.03,0.49,0.43,0,0
16308.359,-0.936,0.062,0.287,0.46,0.95,0.4,0,0
16308.359,-0.939,0.066,0.294,0.73,1.37,0.46,0,0
16308.375,-0.94,0.065,0.3,0.7,1.53,0.55,0,0
16308.375,-0.94,0.062,0.303,0.21,0.92,0.43,0,0
16308.39,-0.939,0.06,0.3,-0.49,-0.06,0.18,0,0
16308.406,-0.937,0.062,0.296,-1.16,-1.13,0.03,0,0
16308.406,-0.933,0.063,0.292,-1.28,-1.5,0.15,0,0
16308.437,-0.935,0.068,0.288,-0.61,-0.06,-0.15,0,0
16308.437,-0.938,0.068,0.291,-0.49,0.15,-0.27,0,0
16308.453,-0.937,0.068,0.297,-0.64,-0.18,-0.31,0,0
16308.453,-0.939,0.067,0.295,-0.61,-0.46,-0.43,0,0
16308.468,-0.94,0.068,0.292,-0.15,-0.98,-0.64,0,0
16308.484,-0.943,0.069,0.288,0.76,-1.53,-0.61,0,0
16308.484,-0.939,0.077,0.282,1.5,-1.95,-0.31,0,0
16308.5,-0.942,0.085,0.274,1.46,-1.83,-0.4,0,0
16308.515,-0.945,0.083,0.27,0.37,-1.83,-0.18,0,0
16308.515,-0.937,0.082,0.269,-1.16,-1.8,0.27,0,0
16308.531,-0.933,0.081,0.272,-1.92,-1.31,0.31,0,0
16308.546,-0.936,0.074,0.279,-1.62,-0.73,0.03,0,0
16308.546,-0.938,0.068,0.286,-0.58,-0.49,0.18,0,0
16308.562,-0.938,0.07,0.288,0.92,-0.61,0.18,0,0
16308.562,-0.937,0.074,0.286,2.14,-1.1,-0.03,0,0
16308.578,-0.939,0.082,0.284,2.62,-1.46,-0.27,0,0
16308.593,-0.937,0.087,0.272,2.38,-1.77,0.34,0,0
16308.609,-0.935,0.084,0.27,1.92,-1.83,0.49,0,0
16308.625,-0.933,0.079,0.269,1.83,-1.43,0.85,0,0
16308.625,-0.934,0.076,0.271,1.71,-0.85,1.16,0,0
16308.64,-0.935,0.072,0.272,1.37,-0.15,1.22,0,0
16308.656,-0.931,0.067,0.276,0.95,0.31,1.16,0,0
16308.656,-0.933,0.064,0.279,0.55,0.79,1.04,0,0
16308.671,-0.938,0.065,0.287,0.37,0.92,0.67,0,0
16308.687,-0.938,0.068,0.29,0.34,0.85,0.49,0,0
16308.687,-0.94,0.072,0.291,0.37,0.67,0.34,0,0
16308.703,-0.94,0.075,0.289,0.12,0.15,0.31,0,0
16308.703,-0.942,0.08,0.287,-0.18,-0.12,0.49,0,0
16308.718,-0.943,0.079,0.287,-0.34,-0.03,1.13,0,0
16308.734,-0.938,0.075,0.289,-0.4,0.24,1.65,0,0
16308.734,-0.941,0.068,0.292,-0.31,0.58,1.59,0,0
16308.75,-0.942,0.062,0.297,0.12,0.58,1.19,0,0
16308.765,-0.94,0.056,0.304,1.04,0.21,0.92,0,0
16308.765,-0.942,0.057,0.308,2.01,-0.4,0.12,0,0
16308.781,-0.948,0.064,0.306,2.84,-0.64,-0.67,0,0
16308.796,-0.949,0.07,0.306,3.54,-0.73,-0.89,0,0
16308.796,-0.95,0.079,0.306,3.81,-1.1,-1.04,0,0
16308.812,-0.951,0.086,0.304,3.51,-1.77,-0.76,0,0
16308.812,-0.954,0.091,0.305,3.11,-2.41,-0.27,0,0
16308.828,-0.956,0.093,0.306,3.33,-3.17,0.24,0,0
16308.843,-0.954,0.087,0.306,4.12,-4.27,1.04,0,0
16308.843,-0.95,0.085,0.3,5.58,-5.28,1.5,0,0
16308.859,-0.947,0.082,0.287,6.84,-5.98,1.68,0,0
16308.875,-0.942,0.082,0.274,7.39,-6.23,1.98,0,0
16308.89,-0.935,0.078,0.262,7.57,-6.1,2.11,0,0
16308.89,-0.93,0.077,0.25,6.81,-5.19,2.14,0,0
16308.906,-0.927,0.078,0.245,4.88,-3.94,2.08,0,0
16308.906,-0.925,0.073,0.247,2.84,-2.84,1.89,0,0
16308.921,-0.925,0.068,0.252,1.04,-1.83,1.71,0,0
16308.937,-0.923,0.061,0.255,0.24,-1.19,1.56,0,0
16308.937,-0.921,0.057,0.262,0.31,-0.55,1.19,0,0
16308.953,-0.921,0.057,0.264,0.58,-0.18,0.55,0,0
16308.968,-0.924,0.06,0.266,0.79,0.31,0.12,0,0
16308.968,-0.926,0.064,0.264,0.82,1.04,-0.15,0,0
16308.984,-0.927,0.07,0.264,0.06,1.74,-0.49,0,0
16308.984,-0.926,0.075,0.27,-1.53,2.41,-0.73,0,0
16309.0,-0.928,0.074,0.278,-3.14,3.05,-1.07,0,0
16309.015,-0.927,0.072,0.287,-4.12,3.42,-1.22,0,0
16309.015,-0.928,0.075,0.297,-4.06,3.6,-1.22,0,0
16309.031,-0.937,0.083,0.32,-3.17,3.36,-1.16,0,0
16309.046,-0.94,0.102,0.325,-2.38,2.14,-0.55,0,0
16309.046,-0.94,0.113,0.33,-2.9,0.92,-0.21,0,0
16309.062,-0.945,0.109,0.333,-3.63,0.15,-0.4,0,0
16309.078,-0.948,0.109,0.327,-4.0,-0.76,-0.27,0,0
16309.078,-0.943,0.105,0.321,-3.66,-1.53,-0.09,0,0
16309.093,-0.94,0.093,0.309,-2.47,-1.92,0.12,0,0
16309.109,-0.939,0.083,0.296,-1.22,-2.26,0.24,0,0
16309.109,-0.939,0.084,0.288,-0.49,-2.35,0.27,0,0
16309.125,-0.936,0.085,0.279,-0.06,-2.17,0.49,0,0
16309.125,-0.936,0.086,0.276,-0.09,-1.65,0.89,0,0
16309.14,-0.936,0.084,0.276,-0.34,-1.31,1.01,0,0
16309.156,-0.939,0.082,0.277,-0.55,-1.01,0.82,0,0
16309.156,-0.945,0.084,0.277,-0.76,-1.1,0.61,0,0
16309.171,-0.949,0.085,0.277,-1.19,-1.5,0.7,0,0
16309.187,-0.944,0.081,0.274,-1.98,-2.14,1.13,0,0
16309.187,-0.939,0.074,0.272,-2.53,-2.44,1.22,0,0
16309.203,-0.937,0.067,0.271,-2.17,-2.11,1.1,0,0
16309.203,-0.938,0.065,0.271,-1.53,-1.37,0.76,0,0
16309.218,-0.942,0.067,0.273,-1.07,-0.73,0.43,0,0
16309.234,-0.946,0.069,0.279,-0.73,-0.37,0.31,0,0
16309.234,-0.947,0.068,0.285,-0.49,-0.31,0.15,0,0
16309.25,-0.947,0.063,0.284,-0.58,-0.58,0.15,0,0
16309.265,-0.942,0.061,0.285,-0.43,-0.98,-0.03,0,0
16309.265,-0.942,0.059,0.283,0.4,-1.16,-0.61,0,0
16309.281,-0.946,0.064,0.281,1.31,-1.1,-0.85,0,0
16309.296,-0.946,0.069,0.274,1.59,-1.13,-0.64,0,0
16309.296,-0.938,0.07,0.271,0.89,-1.1,-0.52,0,0
16309.312,-0.933,0.069,0.274,-0.4,-0.7,-0.76,0,0
16309.312,-0.936,0.071,0.281,-1.04,-0.27,-0.98,0,0
16309.328,-0.937,0.074,0.288,-0.95,-0.06,-0.85,0,0
16309.343,-0.935,0.07,0.292,-0.24,-0.09,-0.64,0,0
16309.343,-0.936,0.073,0.293,0.92,-0.43,-0.76,0,0
16309.359,-0.941,0.079,0.288,1.8,-0.95,-0.85,0,0
16309.375,-0.941,0.084,0.278,1.62,-1.04,-0.61,0,0
16309.375,-0.936,0.084,0.274,0.43,-0.85,-0.67,0,0
16309.39,-0.933,0.084,0.278,-1.43,-0.31,-0.89,0,0
16309.406,-0.936,0.083,0.291,-2.66,0.55,-1.16,0,0
16309.406,-0.936,0.084,0.302,-2.96,0.89,-1.25,0,0
16309.421,-0.936,0.087,0.313,-2.47,0.7,-1.19,0,0
16309.437,-0.933,0.092,0.313,-1.4,0.24,-1.28,0,0
16309.437,-0.932,0.097,0.307,-0.24,-0.52,-1.25,0,0
16309.453,-0.932,0.096,0.289,0.89,-1.62,-0.58,0,0
16309.468,-0.93,0.094,0.281,0.4,-1.77,-0.27,0,0
16309.484,-0.931,0.088,0.277,-0.21,-1.5,-0.31,0,0
16309.484,-0.934,0.077,0.273,-0.73,-1.13,-0.21,0,0
16309.5,-0.936,0.07,0.277,-1.25,-1.04,-0.21,0,0
16309.515,-0.935,0.068,0.279,-1.01,-1.13,-0.31,0,0
16309.515,-0.937,0.07,0.278,-0.24,-1.04,-0.34,0,0
16309.531,-0.938,0.074,0.277,1.13,-0.85,-0.43,0,0
16309.546,-0.939,0.078,0.276,1.95,-0.76,-0.43,0,0
16309.546,-0.942,0.082,0.274,1.74,-0.73,-0.21,0,0
16309.562,-0.944,0.081,0.275,0.98,-0.55,-0.03,0,0
16309.562,-0.947,0.075,0.278,-0.09,-0.34,0.06,0,0
16309.578,-0.949,0.068,0.282,-0.98,-0.12,0.12,0,0
16309.593,-0.949,0.068,0.285,-1.37,-0.09,0.03,0,0
16309.593,-0.942,0.063,0.288,-1.01,-0.18,0.03,0,0
16309.609,-0.939,0.065,0.29,-0.31,-0.06,-0.18,0,0
16309.64,-0.938,0.071,0.295,0.76,-0.24,0.03,0,0
16309.64,-0.935,0.072,0.29,0.43,-0.89,0.18,0,0
16309.64,-0.938,0.07,0.284,0.09,-1.19,0.03,0,0
16309.656,-0.941,0.068,0.281,0.52,-1.1,-0.09,0,0
16309.671,-0.94,0.07,0.277,1.16,-1.19,0.06,0,0
16309.671,-0.94,0.077,0.273,1.34,-1.04,-0.15,0,0
16309.687,-0.945,0.083,0.28,1.25,-0.15,-0.37,0,0
16309.703,-0.948,0.083,0.287,0.76,0.37,-0.12,0,0
16309.718,-0.947,0.079,0.296,0.37,0.0,-0.09,0,0
16309.718,-0.944,0.078,0.297,0.55,-0.95,-0.27,0,0
16309.734,-0.941,0.078,0.292,1.04,-1.68,-0.34,0,0
16309.734,-0.94,0.078,0.282,1.71,-2.14,-0.24,0,0
16309.75,-0.936,0.077,0.269,2.04,-2.04,-0.15,0,0
16309.765,-0.937,0.077,0.265,1.62,-1.53,-0.49,0,0
16309.765,-0.94,0.078,0.266,0.85,-1.01,-0.46,0,0
16309.781,-0.935,0.082,0.271,0.03,-0.64,-0.09,0,0
16309.796,-0.939,0.075,0.282,-0.21,-0.82,0.15,0,0
16309.812,-0.937,0.076,0.285,0.79,-1.28,0.12,0,0
16309.812,-0.937,0.075,0.285,1.98,-1.46,0.03,0,0
16309.828,-0.928,0.082,0.275,2.62,-1.65,0.0,0,0
16309.843,-0.926,0.083,0.271,2.5,-1.71,0.06,0,0
16309.843,-0.924,0.083,0.271,1.89,-1.4,0.24,0,0
16309.859,-0.928,0.082,0.273,1.43,-0.85,0.09,0,0
16309.875,-0.932,0.084,0.279,1.31,-0.46,0.09,0,0
16309.875,-0.933,0.083,0.281,1.1,-0.34,0.24,0,0
16309.89,-0.934,0.083,0.286,0.58,-0.46,0.09,0,0
16309.906,-0.939,0.081,0.291,0.43,-0.55,-0.06,0,0
16309.906,-0.94,0.081,0.29,0.4,-0.64,0.21,0,0
16309.921,-0.94,0.083,0.287,0.31,-0.76,0.18,0,0
16309.937,-0.944,0.081,0.288,-0.34,-0.61,0.24,0,0
16309.937,-0.944,0.08,0.292,-0.89,-0.61,0.27,0,0
16309.953,-0.942,0.078,0.296,-0.85,-0.34,0.37,0,0
16309.968,-0.945,0.076,0.303,-0.09,-0.34,0.21,0,0
16309.984,-0.945,0.075,0.302,0.27,-0.7,0.24,0,0
16309.984,-0.944,0.075,0.298,0.31,-1.01,0.37,0,0
16310.0,-0.942,0.072,0.294,0.21,-1.5,0.46,0,0
16310.015,-0.943,0.071,0.293,0.37,-1.8,0.46,0,0
16310.015,-0.943,0.07,0.286,1.22,-2.11,0.52,0,0
16310.031,-0.945,0.073,0.281,2.11,-2.14,0.55,0,0
16310.046,-0.948,0.077,0.274,2.87,-2.41,0.37,0,0
16310.046,-0.951,0.084,0.267,2.69,-2.38,0.34,0,0
16310.062,-0.95,0.084,0.264,1.65,-2.23,0.34,0,0
16310.062,-0.947,0.082,0.266,0.73,-2.17,0.49,0,0
16310.078,-0.945,0.08,0.266,0.18,-1.92,0.49,0,0
16310.093,-0.94,0.072,0.268,0.43,-1.89,0.55,0,0
16310.093,-0.938,0.074,0.271,1.46,-1.74,0.76,0,0
16310.109,-0.936,0.074,0.267,2.5,-1.65,1.01,0,0
16310.125,-0.935,0.073,0.267,2.81,-1.46,0.98,0,0
16310.125,-0.933,0.075,0.268,2.29,-1.46,0.58,0,0
16310.14,-0.936,0.077,0.266,1.31,-1.13,0.46,0,0
16310.156,-0.935,0.078,0.27,0.24,-0.73,0.49,0,0
16310.171,-0.93,0.08,0.279,-0.61,-0.58,0.58,0,0
16310.171,-0.93,0.083,0.287,-1.07,-0.18,0.24,0,0
16310.171,-0.931,0.086,0.297,-1.31,0.03,0.15,0,0
16310.187,-0.929,0.089,0.306,-1.59,-0.09,0.27,0,0
16310.203,-0.928,0.089,0.311,-1.68,-0.55,0.4,0,0
16310.203,-0.928,0.086,0.317,-1.25,-0.73,0.12,0,0
16310.218,-0.93,0.086,0.312,-0.49,-1.19,-0.03,0,0
16310.234,-0.929,0.093,0.303,0.4,-1.59,-0.12,0,0
16310.25,-0.929,0.098,0.295,0.98,-1.53,-0.31,0,0
16310.25,-0.932,0.103,0.284,0.92,-1.37,-0.34,0,0
16310.265,-0.932,0.105,0.278,0.06,-1.19,-0.34,0,0
16310.265,-0.935,0.099,0.275,-1.01,-1.01,-0.03,0,0
16310.281,-0.937,0.091,0.276,-2.11,-0.82,0.09,0,0
16310.296,-0.936,0.085,0.276,-2.84,-0.7,0.09,0,0
16310.296,-0.94,0.076,0.284,-2.66,-0.67,-0.03,0,0
16310.312,-0.94,0.071,0.284,-1.71,-1.01,-0.09,0,0
16310.312,-0.937,0.078,0.28,-1.22,-0.98,-0.24,0,0
16310.328,-0.94,0.083,0.279,-1.16,-0.46,-0.58,0,0
16310.343,-0.945,0.085,0.282,-1.83,-0.12,-0.58,0,0
16310.343,-0.947,0.085,0.289,-2.99,-0.15,-0.31,0,0
16310.359,-0.947,0.083,0.292,-3.57,-0.43,-0.34,0,0
16310.375,-0.948,0.081,0.294,-3.17,-0.55,-0.18,0,0
16310.375,-0.953,0.079,0.298,-2.08,-0.52,0.27,0,0
16310.39,-0.953,0.082,0.294,-1.04,-0.76,0.79,0,0
16310.406,-0.952,0.08,0.29,-0.4,-1.43,1.43,0,0
16310.406,-0.946,0.072,0.278,-0.09,-2.01,1.65,0,0
16310.421,-0.939,0.069,0.266,0.03,-2.29,1.68,0,0
16310.437,-0.93,0.066,0.259,-0.37,-2.01,1.46,0,0
16310.437,-0.925,0.064,0.26,-1.34,-1.07,0.85,0,0
16310.453,-0.928,0.061,0.268,-2.35,0.15,0.15,0,0
16310.468,-0.936,0.063,0.276,-2.93,0.89,-0.46,0,0
16310.468,-0.942,0.066,0.278,-2.9,0.58,-0.61,0,0
16310.484,-0.94,0.07,0.278,-2.56,-0.31,-0.61,0,0
16310.484,-0.937,0.076,0.272,-2.11,-0.92,-0.7,0,0
16310.5,-0.935,0.083,0.269,-2.44,-0.49,-0.7,0,0
16310.515,-0.936,0.09,0.274,-3.45,0.46,-0.67,0,0
16310.515,-0.941,0.09,0.283,-4.73,1.19,-0.55,0,0
16310.531,-0.944,0.089,0.295,-5.37,1.13,-0.27,0,0
16310.546,-0.94,0.087,0.302,-5.4,0.46,-0.31,0,0
16310.546,-0.938,0.086,0.304,-4.49,-0.09,-0.4,0,0
16310.562,-0.94,0.088,0.301,-3.2,-0.06,-0.61,0,0
16310.578,-0.943,0.089,0.299,-2.38,-0.09,-0.7,0,0
16310.578,-0.945,0.091,0.296,-2.41,-0.31,-0.55,0,0
16310.593,-0.945,0.087,0.292,-2.9,-0.64,-0.58,0,0
16310.593,-0.941,0.082,0.289,-3.36,-0.61,-0.49,0,0
16310.609,-0.94,0.077,0.287,-3.3,-0.37,-0.43,0,0
16310.625,-0.942,0.073,0.284,-2.72,-0.37,-0.58,0,0
16310.625,-0.944,0.074,0.281,-2.38,-0.06,-0.67,0,0
16310.64,-0.944,0.074,0.282,-2.5,-0.15,-0.67,0,0
16310.656,-0.943,0.072,0.281,-2.69,-0.58,-0.37,0,0
16310.656,-0.942,0.068,0.283,-2.59,-0.92,-0.43,0,0
16310.671,-0.943,0.064,0.282,-1.53,-1.07,-0.4,0,0
16310.687,-0.944,0.064,0.278,-0.4,-1.25,-0.24,0,0
16310.687,-0.941,0.064,0.274,0.27,-1.4,-0.24,0,0
16310.703,-0.935,0.067,0.268,0.21,-1.65,-0.46,0,0
16310.703,-0.936,0.065,0.266,-0.55,-1.77,-0.82,0,0
16310.718,-0.935,0.064,0.265,-1.37,-1.74,-1.07,0,0
16310.734,-0.932,0.065,0.261,-1.74,-1.25,-1.13,0,0
16310.734,-0.93,0.065,0.26,-1.77,-0.43,-1.37,0,0
16310.75,-0.936,0.07,0.263,-1.92,0.55,-1.56,0,0
16310.765,-0.941,0.072,0.274,-1.89,1.34,-1.4,0,0
16310.765,-0.939,0.075,0.283,-2.44,0.76,-0.82,0,0
16310.781,-0.942,0.078,0.287,-2.69,-0.09,-0.79,0,0
16310.796,-0.941,0.075,0.291,-2.75,-0.76,-0.7,0,0
16310.796,-0.934,0.073,0.287,-2.69,-0.92,-0.67,0,0
16310.812,-0.932,0.08,0.279,-2.75,-0.73,-0.7,0,0
16310.828,-0.934,0.084,0.281,-3.57,-0.06,-0.52,0,0
16310.828,-0.936,0.083,0.287,-4.49,0.55,-0.4,0,0
16310.843,-0.94,0.084,0.295,-4.82,0.98,-0.27,0,0
16310.843,-0.942,0.081,0.306,-4.46,1.07,-0.21,0,0
16310.859,-0.944,0.08,0.311,-3.69,0.67,-0.43,0,0
16310.875,-0.944,0.081,0.308,-2.78,-0.12,-0.37,0,0
16310.875,-0.943,0.079,0.304,-1.89,-0.82,-0.37,0,0
16310.89,-0.944,0.076,0.295,-0.92,-1.25,-0.43,0,0
16310.906,-0.943,0.073,0.287,0.21,-1.5,-0.46,0,0
16310.906,-0.946,0.071,0.276,0.7,-1.74,-0.55,0,0
16310.921,-0.948,0.07,0.273,0.64,-1.86,-0.7,0,0
16310.937,-0.95,0.065,0.269,0.49,-1.77,-0.73,0,0
16310.937,-0.951,0.063,0.269,0.73,-1.86,-0.7,0,0
16310.953,-0.949,0.063,0.27,1.34,-1.68,-0.76,0,0
16310.953,-0.948,0.062,0.268,2.17,-1.53,-0.95,0,0
16310.968,-0.947,0.065,0.269,2.66,-1.37,-0.95,0,0
16310.984,-0.945,0.066,0.271,2.81,-1.28,-1.01,0,0
16311.0,-0.943,0.064,0.272,2.62,-1.46,-0.82,0,0
16311.015,-0.946,0.06,0.273,2.99,-1.53,-0.55,0,0
16311.015,-0.946,0.06,0.272,3.23,-1.74,-0.52,0,0
16311.031,-0.941,0.059,0.271,3.05,-2.11,-0.4,0,0
16311.046,-0.938,0.055,0.271,2.59,-1.74,-0.55,0,0
16311.046,-0.937,0.054,0.274,2.35,-1.16,-0.7,0,0
16311.062,-0.94,0.057,0.276,2.72,-0.67,-0.79,0,0
16311.078,-0.939,0.057,0.28,3.02,-0.49,-0.85,0,0
16311.078,-0.94,0.06,0.285,3.05,-0.61,-0.95,0,0
16311.093,-0.94,0.063,0.291,2.96,-0.79,-1.28,0,0
16311.093,-0.939,0.066,0.293,3.2,-0.92,-1.46,0,0
16311.109,-0.936,0.07,0.293,3.3,-1.34,-1.46,0,0
16311.125,-0.932,0.073,0.289,3.45,-1.59,-1.31,0,0
16311.125,-0.934,0.074,0.288,3.69,-1.43,-1.25,0,0
16311.14,-0.938,0.075,0.288,3.75,-1.28,-1.01,0,0
16311.156,-0.939,0.073,0.29,3.85,-1.25,-0.7,0,0
16311.171,-0.943,0.077,0.29,4.3,-1.1,-0.95,0,0
16311.187,-0.947,0.078,0.294,4.3,-0.67,-1.07,0,0
16311.187,-0.944,0.084,0.293,4.21,-0.61,-0.95,0,0
16311.203,-0.94,0.087,0.292,3.81,-0.98,-0.82,0,0
16311.203,-0.936,0.09,0.292,3.14,-1.43,-0.61,0,0
16311.218,-0.933,0.091,0.288,2.5,-1.65,0.06,0,0
16311.234,-0.929,0.089,0.285,1.77,-1.86,0.64,0,0
16311.234,-0.926,0.089,0.281,0.89,-1.98,0.95,0,0
16311.25,-0.928,0.087,0.28,-0.09,-1.95,1.19,0,0
16311.265,-0.93,0.086,0.28,-1.07,-1.53,1.65,0,0
16311.265,-0.928,0.084,0.282,-1.98,-1.74,1.89,0,0
16311.281,-0.927,0.08,0.283,-2.66,-1.83,1.71,0,0
16311.296,-0.927,0.077,0.282,-2.75,-1.5,1.62,0,0
16311.296,-0.926,0.078,0.282,-2.2,-1.22,1.71,0,0
16311.312,-0.928,0.076,0.283,-1.77,-0.85,1.56,0,0
16311.312,-0.933,0.075,0.287,-1.43,-0.79,1.5,0,0
16311.343,-0.936,0.075,0.286,-0.43,-1.25,1.62,0,0
16311.343,-0.938,0.078,0.284,-0.15,-1.74,1.59,0,0
16311.359,-0.94,0.081,0.28,-0.64,-1.98,1.56,0,0
16311.375,-0.939,0.079,0.274,-1.37,-2.14,1.98,0,0
16311.375,-0.936,0.076,0.272,-1.89,-1.8,2.2,0,0
16311.39,-0.937,0.073,0.271,-1.98,-1.31,2.26,0,0
16311.406,-0.94,0.074,0.269,-1.92,-0.85,2.17,0,0
16311.406,-0.943,0.076,0.268,-2.11,-0.67,2.23,0,0
16311.421,-0.943,0.078,0.27,-2.99,-0.61,2.23,0,0
16311.437,-0.942,0.076,0.27,-4.12,-0.43,2.26,0,0
16311.437,-0.942,0.082,0.268,-5.4,-0.18,2.26,0,0
16311.453,-0.949,0.081,0.27,-6.74,0.18,2.41,0,0
16311.453,-0.951,0.081,0.27,-8.0,0.55,2.69,0,0
16311.468,-0.952,0.084,0.271,-9.16,0.89,2.96,0,0
16311.484,-0.954,0.092,0.267,-10.47,0.95,3.2,0,0
16311.484,-0.956,0.101,0.254,-13.37,0.95,3.66,0,0
16311.5,-0.956,0.122,0.233,-19.65,1.16,4.18,0,0
16311.515,-0.956,0.141,0.216,-30.06,2.17,4.61,0,0
16311.515,-0.96,0.148,0.217,-43.58,4.0,5.65,0,0
16311.531,-0.959,0.126,0.242,-56.18,5.77,7.84,0,0
16311.546,-0.958,0.084,0.283,-63.2,6.53,9.64,0,0
16311.546,-0.953,0.041,0.324,-62.38,6.07,10.56,0,0
16311.562,-0.948,0.014,0.354,-54.87,4.64,10.62,0,0
16311.578,-0.942,-0.005,0.365,-44.28,2.44,9.77,0,0
16311.578,-0.929,-0.02,0.361,-31.77,0.15,7.9,0,0
16311.593,-0.923,-0.013,0.347,-18.71,-0.98,5.68,0,0
16311.609,-0.924,0.014,0.324,-7.69,-1.01,3.36,0,0
16311.609,-0.93,0.037,0.301,-1.1,-0.64,1.65,0,0
16311.625,-0.935,0.058,0.284,0.95,-0.27,1.31,0,0
16311.64,-0.935,0.072,0.274,-1.01,-0.43,1.04,0,0
16311.64,-0.938,0.072,0.277,-4.7,-0.82,0.85,0,0
16311.656,-0.94,0.06,0.291,-6.93,-1.19,1.25,0,0
16311.656,-0.935,0.041,0.303,-5.07,-1.62,1.37,0,0
16311.671,-0.931,0.038,0.305,0.49,-1.95,0.67,0,0
16311.687,-0.938,0.045,0.296,7.6,-2.08,-0.12,0,0
16311.687,-0.939,0.066,0.279,13.18,-2.2,-0.61,0,0
16311.703,-0.938,0.083,0.258,14.92,-2.59,-0.79,0,0
16311.703,-0.936,0.104,0.232,12.05,-2.29,-0.73,0,0
16311.718,-0.94,0.123,0.217,5.13,-1.37,-0.34,0,0
16311.734,-0.945,0.122,0.22,-3.69,0.15,0.61,0,0
16311.734,-0.942,0.112,0.23,-11.81,1.71,2.2,0,0
16311.75,-0.939,0.093,0.251,-17.09,2.9,3.42,0,0
16311.765,-0.936,0.074,0.273,-17.98,3.05,4.09,0,0
16311.765,-0.932,0.062,0.286,-15.69,2.56,3.6,0,0
16311.781,-0.929,0.051,0.292,-12.67,2.35,2.9,0,0
16311.796,-0.939,0.064,0.284,-9.95,2.44,2.26,0,0
16311.796,-0.947,0.071,0.275,-8.88,2.41,1.77,0,0
16311.812,-0.949,0.085,0.268,-10.35,2.38,1.46,0,0
16311.828,-0.952,0.089,0.267,-13.31,2.17,1.34,0,0
16311.828,-0.953,0.087,0.27,-16.39,1.95,1.46,0,0
16311.843,-0.949,0.084,0.274,-18.49,2.11,1.43,0,0
16311.843,-0.949,0.082,0.277,-18.92,2.44,1.77,0,0
16311.859,-0.945,0.084,0.279,-18.34,3.23,2.38,0,0
16311.875,-0.945,0.088,0.279,-18.13,3.42,2.93,0,0
16311.89,-0.944,0.084,0.282,-19.04,3.48,2.99,0,0
16311.89,-0.947,0.073,0.291,-19.68,3.33,3.17,0,0
16311.906,-0.947,0.062,0.299,-19.01,2.87,3.51,0,0
16311.906,-0.947,0.051,0.307,-17.15,2.11,3.51,0,0
16311.921,-0.944,0.038,0.308,-14.31,1.01,3.33,0,0
16311.937,-0.936,0.041,0.299,-11.08,0.31,3.05,0,0
16311.937,-0.933,0.048,0.288,-8.82,0.0,2.56,0,0
16311.953,-0.932,0.052,0.275,-8.42,0.34,1.95,0,0
16311.953,-0.931,0.056,0.276,-9.16,1.01,1.68,0,0
16311.968,-0.937,0.047,0.287,-8.73,1.74,1.4,0,0
16311.984,-0.94,0.041,0.291,-6.9,2.26,1.46,0,0
16311.984,-0.939,0.041,0.292,-4.82,1.83,1.62,0,0
16312.0,-0.935,0.044,0.292,-3.54,1.13,1.01,0,0
16312.015,-0.933,0.049,0.288,-2.62,0.73,0.21,0,0
16312.031,-0.934,0.048,0.286,-1.86,0.03,-0.24,0,0
16312.031,-0.931,0.051,0.284,-1.46,-0.58,-0.52,0,0
16312.046,-0.936,0.048,0.281,-1.19,-1.04,-0.79,0,0
16312.046,-0.942,0.05,0.275,-0.67,-1.74,-0.92,0,0
16312.062,-0.942,0.058,0.269,-0.06,-2.17,-0.85,0,0
16312.078,-0.94,0.058,0.261,-0.43,-2.11,-0.95,0,0
16312.078,-0.939,0.059,0.255,-0.76,-1.34,-0.95,0,0
16312.093,-0.94,0.059,0.256,-0.82,-0.27,-1.01,0,0
16312.093,-0.939,0.06,0.253,-1.16,0.18,-1.1,0,0
16312.109,-0.938,0.064,0.253,-1.98,0.82,-1.28,0,0
16312.125,-0.942,0.064,0.255,-2.53,1.89,-1.46,0,0
16312.125,-0.946,0.073,0.262,-3.05,2.81,-1.43,0,0
16312.14,-0.953,0.074,0.273,-3.48,2.93,-1.13,0,0
16312.156,-0.959,0.073,0.28,-3.75,2.38,-1.01,0,0
16312.156,-0.957,0.069,0.283,-3.42,1.43,-0.82,0,0
16312.171,-0.954,0.066,0.28,-2.35,0.49,-0.55,0,0
16312.187,-0.949,0.063,0.275,-0.79,-0.09,-0.24,0,0
16312.187,-0.947,0.059,0.271,0.89,-0.27,-0.18,0,0
16312.203,-0.944,0.058,0.261,2.47,-0.15,-0.4,0,0
16312.203,-0.941,0.067,0.256,2.69,0.4,-0.4,0,0
16312.218,-0.943,0.068,0.257,1.34,1.04,-0.31,0,0
16312.234,-0.942,0.066,0.26,-0.52,1.56,-0.15,0,0
16312.25,-0.944,0.062,0.267,-2.08,1.74,-0.06,0,0
16312.25,-0.947,0.052,0.275,-2.5,1.62,0.12,0,0
16312.265,-0.945,0.047,0.275,-1.56,1.22,0.09,0,0
16312.265,-0.941,0.044,0.273,0.12,0.92,-0.27,0,0
16312.281,-0.939,0.046,0.266,1.01,0.61,-0.67,0,0
16312.296,-0.935,0.047,0.26,1.13,0.49,-0.79,0,0
16312.296,-0.932,0.047,0.255,0.67,1.04,-0.92,0,0
16312.312,-0.935,0.051,0.256,-0.24,1.92,-1.04,0,0
16312.328,-0.938,0.049,0.261,-0.49,2.41,-1.22,0,0
16312.328,-0.938,0.048,0.263,-0.49,2.56,-1.34,0,0
16312.343,-0.94,0.044,0.267,0.09,2.44,-1.62,0,0
16312.343,-0.944,0.041,0.267,1.53,2.38,-1.86,0,0
16312.359,-0.944,0.042,0.262,2.81,2.14,-2.41,0,0
16312.375,-0.947,0.047,0.256,3.27,2.23,-2.99,0,0
16312.375,-0.947,0.052,0.249,2.56,2.38,-3.23,0,0
16312.39,-0.946,0.057,0.249,0.82,2.99,-3.63,0,0
16312.406,-0.945,0.054,0.259,-0.27,3.78,-3.88,0,0
16312.406,-0.945,0.051,0.268,0.03,4.18,-3.72,0,0
16312.421,-0.947,0.048,0.267,1.4,3.91,-3.66,0,0
16312.437,-0.944,0.049,0.265,3.08,3.45,-3.81,0,0
16312.437,-0.942,0.051,0.261,3.94,2.93,-4.12,0,0
16312.453,-0.937,0.044,0.259,4.09,2.66,-4.21,0,0
16312.468,-0.93,0.039,0.262,4.73,3.08,-4.33,0,0
16312.468,-0.931,0.039,0.263,5.68,3.6,-4.73,0,0
16312.484,-0.935,0.044,0.257,5.55,3.81,-5.04,0,0
16312.484,-0.934,0.043,0.259,4.73,3.66,-5.31,0,0
16312.5,-0.935,0.043,0.254,3.97,3.57,-5.37,0,0
16312.515,-0.939,0.047,0.249,3.48,3.42,-4.97,0,0
16312.515,-0.948,0.048,0.245,2.87,3.36,-4.85,0,0
16312.531,-0.955,0.039,0.244,2.35,3.6,-4.55,0,0
16312.546,-0.955,0.033,0.246,1.74,4.12,-4.39,0,0
16312.546,-0.957,0.029,0.252,1.31,4.52,-5.07,0,0
16312.562,-0.963,0.023,0.261,1.89,4.52,-5.62,0,0
16312.578,-0.969,0.023,0.268,3.72,3.78,-5.71,0,0
16312.578,-0.965,0.028,0.263,5.95,2.59,-5.28,0,0
16312.593,-0.966,0.038,0.255,6.74,1.62,-5.37,0,0
16312.593,-0.97,0.034,0.246,6.74,1.16,-5.52,0,0
16312.609,-0.975,0.03,0.236,6.35,1.22,-5.43,0,0
16312.625,-0.977,0.029,0.231,5.74,1.65,-5.37,0,0
16312.625,-0.98,0.027,0.235,5.52,2.78,-5.58,0,0
16312.64,-0.979,0.028,0.241,6.01,3.97,-6.04,0,0
16312.656,-0.985,0.038,0.254,7.69,4.76,-6.5,0,0
16312.656,-0.988,0.051,0.266,10.01,4.52,-6.56,0,0
16312.671,-0.983,0.064,0.266,12.6,3.54,-6.16,0,0
16312.687,-0.973,0.075,0.263,15.23,3.57,-5.4,0,0
16312.687,-0.972,0.086,0.257,16.88,4.61,-5.07,0,0
16312.703,-0.981,0.096,0.252,16.6,5.46,-5.04,0,0
16312.703,-0.987,0.108,0.257,14.47,5.98,-4.03,0,0
16312.718,-0.995,0.113,0.261,10.99,5.58,-2.47,0,0
16312.734,-0.992,0.104,0.272,7.05,4.24,-0.92,0,0
16312.734,-0.992,0.092,0.288,5.4,1.71,2.11,0,0
16312.75,-0.994,0.081,0.294,6.96,0.43,3.2,0,0
16312.765,-0.995,0.073,0.288,8.18,-0.43,3.75,0,0
16312.765,-0.998,0.072,0.279,9.09,-0.82,4.12,0,0
16312.781,-1.013,0.068,0.258,8.82,-1.1,4.55,0,0
16312.796,-1.017,0.062,0.245,8.09,-1.43,5.01,0,0
16312.796,-1.016,0.048,0.239,7.66,-1.83,5.31,0,0
16312.812,-1.008,0.04,0.229,7.97,-1.86,5.16,0,0
16312.828,-1.0,0.038,0.224,8.42,-0.98,4.61,0,0
16312.828,-1.002,0.039,0.227,8.91,0.46,3.97,0,0
16312.843,-0.999,0.04,0.234,8.85,1.28,3.23,0,0
16312.859,-0.996,0.035,0.243,8.94,1.22,2.59,0,0
16312.859,-0.997,0.034,0.253,9.95,0.55,1.86,0,0
16312.875,-1.0,0.042,0.243,11.75,-0.34,1.01,0,0
16312.875,-1.002,0.057,0.23,12.6,-0.89,0.49,0,0
16312.89,-0.994,0.063,0.213,12.36,-1.07,0.55,0,0
16312.906,-0.98,0.072,0.195,11.05,-0.49,0.92,0,0
16312.906,-0.974,0.073,0.181,8.76,0.37,1.31,0,0
16312.921,-0.967,0.072,0.179,5.71,2.11,1.98,0,0
16312.921,-0.967,0.07,0.185,2.66,4.52,2.62,0,0
16312.937,-0.968,0.057,0.204,0.0,6.2,2.78,0,0
16312.953,-0.964,0.044,0.227,-1.16,7.48,3.05,0,0
16312.968,-0.956,0.028,0.253,0.31,7.45,2.78,0,0
16312.968,-0.943,0.016,0.26,3.88,6.23,1.89,0,0
16312.984,-0.934,0.035,0.242,6.68,4.67,0.55,0,0
16312.984,-0.927,0.068,0.215,4.73,2.72,-0.79,0,0
16313.0,-0.864,0.083,0.191,-2.35,0.79,-2.14,0,0
16313.015,-0.863,0.102,0.173,-14.92,-3.91,-9.06,0,0
16313.015,-0.831,-0.002,0.193,-26.18,-3.75,-15.66,0,0
16313.031,-0.872,-0.029,0.189,-30.95,-2.75,-23.07,0,0
16313.046,-0.902,-0.059,0.167,-31.53,-0.76,-26.98,0,0
16313.046,-0.904,-0.081,0.174,-33.63,0.24,-31.22,0,0
16313.062,-0.952,-0.076,0.165,-35.28,2.08,-33.72,0,0
16313.078,-0.973,-0.076,0.159,-39.31,2.47,-34.09,0,0
16313.078,-0.973,-0.07,0.161,-44.04,3.69,-33.02,0,0
16313.093,-0.958,-0.051,0.148,-50.23,6.84,-32.56,0,0
16313.093,-0.974,-0.112,0.183,-59.48,9.8,-35.04,0,0
16313.109,-0.99,-0.136,0.191,-70.47,10.74,-38.94,0,0
16313.125,-0.966,-0.12,0.225,-80.23,9.46,-39.37,0,0
16313.125,-0.954,-0.169,0.238,-84.81,6.04,-40.38,0,0
16313.14,-0.937,-0.187,0.258,-84.11,1.53,-41.63,0,0
16313.156,-0.914,-0.158,0.25,-76.6,-3.08,-41.75,0,0
16313.156,-0.881,-0.104,0.2,-63.81,-6.44,-39.61,0,0
16313.171,-0.824,-0.039,0.187,-49.84,-7.35,-35.04,0,0
16313.187,-0.836,-0.011,0.177,-28.35,-4.33,-30.7,0,0
16313.187,-0.859,0.058,0.109,-7.2,0.73,-22.98,0,0
16313.203,-0.827,0.07,0.135,4.91,4.85,-15.41,0,0
16313.218,-0.891,0.016,0.142,18.95,11.14,-8.64,0,0
16313.218,-0.865,-0.018,0.168,27.8,13.09,-3.08,0,0
16313.234,-0.9,-0.028,0.188,35.58,16.27,-1.4,0,0
16313.234,-0.916,-0.025,0.194,41.26,16.88,-0.34,0,0
16313.25,-0.914,0.0,0.191,42.85,13.86,1.01,0,0
16313.265,-0.899,-0.007,0.197,42.73,11.41,2.47,0,0
16313.281,-0.778,-0.197,0.39,51.03,14.34,2.75,0,0
16313.281,-0.975,-0.315,0.252,95.65,33.14,12.48,0,0
16313.296,-0.881,0.097,0.139,111.27,14.31,10.68,0,0
16313.296,-0.804,-0.004,0.104,103.52,8.67,4.0,0,0
16313.312,-0.926,0.054,0.16,79.29,6.74,-4.21,0,0
16313.312,-0.937,0.029,0.145,61.01,3.14,-4.97,0,0
16313.328,-0.965,0.021,0.136,42.3,3.39,-1.1,0,0
16313.343,-0.952,0.057,0.164,24.78,4.79,2.87,0,0
16313.343,-0.989,-0.009,0.189,13.55,5.89,4.94,0,0
16313.359,-0.98,-0.037,0.232,5.25,5.52,6.93,0,0
16313.375,-0.993,-0.033,0.26,2.41,4.03,6.59,0,0
16313.375,-1.0,-0.049,0.264,2.11,1.98,6.62,0,0
16313.39,-1.0,-0.067,0.271,2.17,-0.31,6.65,0,0
16313.406,-1.0,-0.088,0.276,4.39,-1.56,6.62,0,0
16313.406,-1.0,-0.067,0.264,8.97,-2.75,6.84,0,0
16313.421,-0.982,-0.054,0.251,12.88,-3.63,7.32,0,0
16313.437,-0.97,-0.043,0.235,13.58,-4.18,6.81,0,0
16313.437,-0.968,-0.034,0.229,11.29,-4.39,6.38,0,0
16313.453,-0.967,-0.054,0.23,8.33,-5.43,6.53,0,0
16313.453,-0.963,-0.07,0.216,6.01,-6.16,7.02,0,0
16313.468,-0.954,-0.073,0.2,5.07,-6.44,7.02,0,0
16313.484,-0.956,-0.06,0.202,5.62,-6.62,6.93,0,0
16313.484,-0.966,-0.036,0.183,8.7,-6.81,4.73,0,0
16313.5,-0.98,-0.023,0.172,9.95,-6.68,4.3,0,0
16313.515,-0.983,-0.024,0.174,9.74,-7.42,6.81,0,0
16313.515,-0.965,-0.025,0.171,10.56,-7.32,10.59,0,0
16313.531,-0.946,-0.017,0.17,11.11,-6.62,13.15,0,0
16313.546,-0.936,-0.019,0.163,10.56,-5.95,13.09,0,0
16313.546,-0.954,-0.024,0.167,8.27,-5.19,11.35,0,0
16313.562,-0.97,-0.021,0.168,4.03,-5.43,8.67,0,0
16313.578,-0.971,-0.013,0.175,-2.29,-5.83,6.04,0,0
16313.578,-0.992,-0.01,0.194,-8.21,-4.91,3.63,0,0
16313.593,-1.011,-0.021,0.211,-11.47,-3.85,2.66,0,0
16313.593,-0.993,-0.003,0.231,-12.51,-3.02,2.59,0,0
16313.609,-0.983,0.01,0.249,-10.9,-2.75,1.95,0,0
16313.625,-0.988,0.0,0.258,-7.78,-3.14,1.37,0,0
16313.625,-0.978,0.017,0.267,-4.88,-4.46,1.65,0,0
16313.64,-0.973,0.029,0.26,-2.08,-6.23,2.26,0,0
16313.656,-0.965,0.021,0.248,0.89,-8.3,3.69,0,0
16313.656,-0.959,0.02,0.227,3.45,-9.95,5.19,0,0
16313.671,-0.954,0.014,0.206,4.73,-11.47,6.1,0,0
16313.687,-0.951,0.01,0.191,4.76,-11.44,6.59,0,0
16313.687,-0.954,0.007,0.18,4.15,-10.25,7.23,0,0
16313.703,-0.962,-0.007,0.18,3.02,-8.79,7.69,0,0
16313.703,-0.975,-0.019,0.186,1.83,-7.54,7.54,0,0
16313.718,-0.989,-0.027,0.199,1.4,-6.5,7.2,0,0
16313.734,-1.0,-0.034,0.21,4.88,-5.71,5.28,0,0
16313.734,-1.009,-0.034,0.217,7.29,-5.62,4.18,0,0
16313.75,-1.009,-0.027,0.223,8.97,-5.62,3.02,0,0
16313.765,-0.999,-0.011,0.219,9.19,-5.46,2.2,0,0
16313.765,-0.99,0.001,0.218,8.58,-5.71,1.95,0,0
16313.781,-0.986,0.018,0.211,8.09,-5.86,2.29,0,0
16313.796,-0.983,0.024,0.204,6.71,-6.04,3.02,0,0
16313.796,-0.975,0.023,0.201,4.24,-6.78,3.97,0,0
16313.812,-0.968,0.014,0.2,2.23,-7.29,4.58,0,0
16313.828,-0.969,0.004,0.202,1.07,-6.87,4.39,0,0
16313.828,-0.971,-0.002,0.204,0.76,-5.98,3.81,0,0
16313.843,-0.976,0.008,0.206,1.5,-5.25,3.42,0,0
16313.859,-0.975,0.016,0.206,1.92,-4.67,3.42,0,0
16313.859,-0.968,0.02,0.211,1.77,-4.33,3.36,0,0
16313.875,-0.966,0.023,0.219,2.35,-3.81,3.36,0,0
16313.875,-0.963,0.025,0.216,3.17,-3.2,3.66,0,0
16313.89,-0.958,0.033,0.214,2.2,-2.47,3.88,0,0
16313.906,-0.96,0.027,0.217,-1.25,-1.89,3.42,0,0
16313.906,-0.96,0.018,0.226,-5.77,-1.68,2.62,0,0
16313.921,-0.967,0.021,0.238,-8.51,-1.83,1.89,0,0
16313.937,-0.971,0.01,0.245,-7.9,-2.35,1.37,0,0
16313.937,-0.973,0.007,0.245,-5.49,-2.99,0.92,0,0
16313.953,-0.975,0.012,0.24,-2.26,-3.51,0.37,0,0
16313.953,-0.975,0.019,0.231,0.55,-3.6,-0.09,0,0
16313.968,-0.976,0.028,0.226,1.89,-3.11,-0.12,0,0
16313.984,-0.971,0.032,0.227,2.26,-2.26,0.06,0,0
16313.984,-0.967,0.032,0.233,2.78,-1.43,-0.06,0,0
16314.0,-0.964,0.031,0.241,3.97,-1.07,-0.52,0,0
16314.015,-0.962,0.033,0.244,5.92,-1.16,-0.49,0,0
16314.015,-0.963,0.034,0.238,7.26,-1.37,-0.21,0,0
16314.031,-0.963,0.048,0.231,5.19,-1.83,0.21,0,0
16314.046,-0.96,0.046,0.229,0.52,-2.99,0.31,0,0
16314.046,-0.959,0.029,0.233,-3.63,-3.57,0.46,0,0
16314.062,-0.947,0.022,0.24,-4.76,-3.14,0.61,0,0
16314.078,-0.94,0.018,0.245,-2.69,-2.38,0.12,0,0
16314.078,-0.942,0.02,0.25,0.24,-1.34,-0.37,0,0
16314.093,-0.943,0.021,0.256,3.33,-1.01,-0.4,0,0
16314.093,-0.937,0.02,0.251,5.62,-1.5,-0.64,0,0
16314.109,-0.933,0.03,0.247,6.2,-1.83,-1.56,0,0
16314.125,-0.94,0.04,0.239,5.77,-2.01,-2.29,0,0
16314.125,-0.945,0.041,0.235,4.94,-2.26,-2.26,0,0
16314.14,-0.949,0.049,0.229,3.91,-2.11,-2.08,0,0
16314.156,-0.956,0.054,0.227,2.44,-1.89,-1.65,0,0
16314.156,-0.954,0.042,0.226,0.52,-1.8,-0.98,0,0
16314.171,-0.952,0.038,0.225,-1.59,-1.53,-1.01,0,0
16314.187,-0.954,0.037,0.229,-3.14,-1.28,-1.65,0,0
16314.187,-0.955,0.041,0.228,-3.81,-0.64,-1.56,0,0
16314.203,-0.955,0.047,0.229,-4.24,0.0,-1.04,0,0
16314.203,-0.954,0.041,0.231,-4.43,-0.03,-0.98,0,0
16314.218,-0.952,0.035,0.236,-4.06,0.03,-0.73,0,0
16314.234,-0.954,0.029,0.241,-2.96,0.21,-0.27,0,0
16314.234,-0.954,0.018,0.24,-1.86,0.03,0.0,0,0
16314.25,-0.952,0.013,0.239,-1.56,-0.21,-0.15,0,0
16314.265,-0.948,0.007,0.236,-1.46,0.12,-0.52,0,0
16314.265,-0.95,0.002,0.236,-1.65,0.73,-1.04,0,0
16314.281,-0.959,0.0,0.236,-1.62,1.04,-1.89,0,0
16314.296,-0.96,-0.005,0.245,-1.65,1.04,-2.53,0,0
16314.296,-0.958,-0.019,0.247,-1.25,1.04,-3.23,0,0
16314.312,-0.954,-0.022,0.25,-0.27,1.1,-4.15,0,0
16314.312,-0.953,-0.016,0.25,1.46,1.31,-5.28,0,0
16314.328,-0.955,0.002,0.248,3.45,1.53,-6.29,0,0
16314.343,-0.959,0.016,0.245,4.73,1.5,-6.68,0,0
16314.343,-0.962,0.024,0.244,5.34,1.25,-6.32,0,0
16314.359,-0.962,0.035,0.239,5.83,1.1,-5.25,0,0
16314.375,-0.962,0.039,0.238,6.2,0.73,-3.85,0,0
16314.39,-0.964,0.03,0.239,6.41,0.37,-2.53,0,0
16314.39,-0.962,0.014,0.239,6.68,0.03,-1.22,0,0
16314.406,-0.956,0.001,0.236,7.2,-0.18,-0.37,0,0
16314.406,-0.952,-0.013,0.229,7.84,-0.21,-0.49,0,0
16314.421,-0.949,-0.018,0.226,7.54,0.03,-0.92,0,0
16314.437,-0.952,-0.021,0.223,6.81,0.03,-1.43,0,0
16314.437,-0.954,-0.026,0.221,5.49,-0.15,-1.77,0,0
16314.453,-0.951,-0.036,0.222,4.12,-0.31,-2.14,0,0
16314.468,-0.948,-0.039,0.223,4.09,0.03,-2.56,0,0
16314.468,-0.947,-0.041,0.225,5.68,0.7,-2.87,0,0
16314.484,-0.949,-0.037,0.219,8.21,1.19,-2.93,0,0
16314.484,-0.948,-0.033,0.217,10.41,1.22,-2.84,0,0
16314.5,-0.948,-0.039,0.212,11.47,0.98,-3.39,0,0
16314.515,-0.952,-0.034,0.212,10.86,1.19,-4.49,0,0
16314.531,-0.958,-0.031,0.211,9.92,1.71,-5.22,0,0
16314.531,-0.966,-0.025,0.211,8.24,2.35,-5.65,0,0
16314.546,-0.967,-0.022,0.214,5.92,2.62,-5.92,0,0
16314.546,-0.968,-0.014,0.216,3.3,2.44,-6.62,0,0
16314.562,-0.971,-0.007,0.217,1.68,2.23,-7.14,0,0
16314.578,-0.972,-0.004,0.219,1.8,2.23,-6.71,0,0
16314.578,-0.969,-0.002,0.22,3.57,2.99,-5.43,0,0
16314.593,-0.964,0.01,0.215,5.19,3.27,-4.21,0,0
16314.609,-0.963,0.01,0.211,5.55,3.11,-3.97,0,0
16314.609,-0.967,0.007,0.211,4.33,2.81,-3.94,0,0
16314.625,-0.966,0.004,0.21,3.51,2.44,-3.66,0,0
16314.625,-0.967,-0.001,0.206,3.3,2.53,-2.75,0,0
16314.64,-0.96,-0.001,0.208,2.96,2.81,-2.35,0,0
16314.656,-0.959,-0.008,0.208,2.44,3.2,-2.72,0,0
16314.656,-0.959,-0.009,0.213,2.2,3.72,-3.02,0,0
16314.671,-0.959,-0.007,0.219,2.69,3.85,-3.54,0,0
16314.687,-0.96,-0.002,0.228,3.39,3.51,-3.94,0,0
16314.687,-0.964,0.009,0.23,4.24,3.02,-4.18,0,0
16314.703,-0.97,0.018,0.231,5.34,2.53,-3.75,0,0
16314.703,-0.97,0.023,0.231,8.09,1.28,-1.31,0,0
16314.718,-0.973,0.022,0.228,8.79,0.76,0.18,0,0
16314.734,-0.972,0.019,0.226,9.43,0.24,1.28,0,0
16314.734,-0.963,-0.002,0.218,9.61,-0.09,1.65,0,0
16314.75,-0.963,-0.004,0.217,9.25,0.03,1.34,0,0
16314.765,-0.965,-0.004,0.221,9.06,0.15,1.4,0,0
16314.765,-0.963,0.004,0.219,9.13,-0.15,1.71,0,0
16314.781,-0.963,0.011,0.216,9.31,-0.27,1.74,0,0
16314.796,-0.97,0.019,0.218,9.03,-0.24,2.08,0,0
16314.796,-0.973,0.023,0.219,8.42,-0.18,2.93,0,0
16314.812,-0.976,0.026,0.215,7.05,-0.31,4.09,0,0
16314.828,-0.983,0.028,0.221,4.12,-0.76,5.07,0,0
16314.828,-0.98,0.019,0.234,1.19,-1.46,6.2,0,0
16314.843,-0.97,0.007,0.238,-0.58,-2.2,7.23,0,0
16314.843,-0.968,-0.003,0.245,-0.76,-2.87,7.45,0,0
16314.859,-0.969,-0.011,0.245,0.52,-3.54,8.0,0,0
16314.875,-0.966,-0.023,0.241,2.08,-4.33,8.82,0,0
16314.875,-0.965,-0.033,0.241,3.81,-5.07,8.97,0,0
16314.89,-0.962,-0.043,0.24,5.62,-5.86,8.18,0,0
16314.906,-0.958,-0.049,0.236,7.75,-5.95,6.99,0,0
16314.906,-0.95,-0.049,0.233,9.95,-5.71,5.89,0,0
16314.921,-0.949,-0.035,0.225,11.2,-5.62,4.33,0,0
16314.937,-0.949,-0.018,0.218,10.41,-5.68,2.66,0,0
16314.937,-0.945,-0.011,0.215,8.85,-5.95,1.8,0,0
16314.953,-0.938,-0.001,0.212,7.6,-5.92,1.31,0,0
16314.953,-0.932,0.006,0.213,6.87,-5.86,1.31,0,0
16314.968,-0.926,0.004,0.214,6.53,-6.04,1.25,0,0
16314.984,-0.927,0.006,0.213,5.86,-6.41,0.85,0,0
16314.984,-0.93,0.006,0.213,5.16,-6.53,0.64,0,0
16315.0,-0.935,0.011,0.214,4.43,-5.98,0.43,0,0
16315.015,-0.942,0.016,0.214,3.33,-5.28,-0.03,0,0
16315.015,-0.946,0.018,0.217,1.53,-4.82,-0.46,0,0
16315.031,-0.951,0.022,0.229,0.27,-4.36,-0.76,0,0
16315.046,-0.961,0.02,0.236,0.37,-4.09,-1.04,0,0
16315.046,-0.967,0.03,0.242,1.16,-4.64,-0.82,0,0
16315.062,-0.975,0.033,0.241,2.08,-6.01,-0.49,0,0
16315.062,-0.978,0.026,0.233,3.51,-7.35,-0.21,0,0
16315.078,-0.977,0.025,0.226,6.1,-7.93,0.0,0,0
16315.093,-0.979,0.018,0.218,9.92,-7.57,0.06,0,0
16315.109,-0.973,0.015,0.206,13.12,-7.08,0.03,0,0
16315.109,-0.968,0.02,0.192,14.5,-6.59,-0.82,0,0
16315.125,-0.965,0.028,0.183,13.92,-5.83,-1.89,0,0
16315.125,-0.963,0.031,0.178,12.05,-4.7,-2.26,0,0
16315.14,-0.96,0.032,0.182,10.04,-3.54,-1.98,0,0
16315.156,-0.955,0.031,0.188,9.09,-2.44,-1.59,0,0
16315.156,-0.951,0.027,0.197,9.28,-1.4,-1.1,0,0
16315.171,-0.951,0.024,0.201,10.04,-0.92,-0.49,0,0
16315.187,-0.95,0.027,0.201,10.1,-0.73,-0.09,0,0
16315.187,-0.947,0.027,0.201,9.28,-1.16,0.27,0,0
16315.203,-0.941,0.021,0.198,7.75,-1.77,0.7,0,0
16315.203,-0.935,0.014,0.196,6.81,-1.4,0.73,0,0
16315.218,-0.93,0.008,0.197,6.9,-0.67,0.85,0,0
16315.234,-0.925,0.008,0.2,8.06,0.21,0.95,0,0
16315.234,-0.925,0.002,0.204,10.1,1.07,1.04,0,0
16315.25,-0.929,-0.012,0.209,12.51,1.74,1.25,0,0
16315.265,-0.924,-0.021,0.205,14.13,2.08,1.25,0,0
16315.265,-0.92,-0.013,0.197,12.33,2.35,-0.46,0,0
16315.281,-0.929,-0.005,0.197,7.32,3.42,-3.27,0,0
16315.296,-0.943,0.007,0.209,1.34,5.4,-4.88,0,0
16315.296,-0.961,0.011,0.225,-3.45,6.68,-5.43,0,0
16315.312,-0.98,0.02,0.24,-6.9,6.84,-5.83,0,0
16315.312,-0.994,0.023,0.251,-9.52,5.95,-6.29,0,0
16315.328,-1.001,0.02,0.257,-11.2,4.43,-6.35,0,0
16315.343,-0.996,0.021,0.26,-11.57,3.14,-6.32,0,0
16315.343,-0.997,0.026,0.258,-10.68,2.56,-6.47,0,0
16315.359,-0.997,0.034,0.262,-9.43,2.62,-6.68,0,0
16315.375,-0.999,0.035,0.264,-7.35,2.69,-6.81,0,0
16315.39,-1.004,0.035,0.274,-4.67,2.66,-6.16,0,0
16315.39,-1.004,0.037,0.279,-1.68,1.89,-5.22,0,0
16315.406,-0.999,0.033,0.282,1.13,0.55,-4.39,0,0
16315.406,-0.994,0.027,0.281,3.3,-1.37,-4.0,0,0
16315.421,-0.982,0.028,0.271,4.82,-3.33,-4.21,0,0
16315.437,-0.974,0.034,0.255,5.04,-4.88,-4.33,0,0
16315.437,-0.962,0.041,0.25,4.3,-5.62,-3.85,0,0
16315.453,-0.948,0.039,0.245,3.94,-5.65,-2.75,0,0
16315.453,-0.938,0.037,0.241,4.15,-5.52,-1.65,0,0
16315.468,-0.931,0.03,0.244,5.28,-5.83,-0.85,0,0
16315.484,-0.928,0.01,0.245,7.32,-6.5,-0.4,0,0
16315.484,-0.928,-0.003,0.241,10.28,-7.29,-0.43,0,0
16315.5,-0.926,-0.02,0.233,14.07,-7.81,-0.7,0,0
16315.515,-0.926,-0.019,0.218,16.39,-7.6,-1.4,0,0
16315.531,-0.928,-0.006,0.202,15.44,-7.11,-2.96,0,0
16315.531,-0.932,0.009,0.197,11.9,-6.38,-4.36,0,0
16315.546,-0.934,0.021,0.202,8.03,-5.13,-4.82,0,0
16315.546,-0.938,0.026,0.206,5.68,-3.85,-4.58,0,0
16315.562,-0.946,0.035,0.211,4.46,-2.9,-4.12,0,0
16315.578,-0.954,0.043,0.218,4.21,-2.44,-3.17,0,0
16315.578,-0.965,0.047,0.218,4.52,-1.89,-1.01,0,0
16315.593,-0.962,0.051,0.215,5.49,-0.89,2.35,0,0
16315.593,-0.954,0.046,0.207,6.01,0.21,4.18,0,0
16315.609,-0.958,0.044,0.213,4.76,0.7,3.2,0,0
16315.625,-0.971,0.038,0.219,3.27,0.67,2.41,0,0
16315.625,-0.965,0.04,0.214,1.5,0.76,3.54,0,0
16315.64,-0.952,0.039,0.211,-1.59,0.52,4.21,0,0
16315.656,-0.951,0.022,0.224,-5.86,0.73,3.69,0,0
16315.671,-0.955,0.004,0.235,-9.25,0.55,3.23,0,0
16315.671,-0.954,-0.007,0.243,-10.93,-0.18,2.9,0,0
16315.687,-0.95,-0.02,0.25,-10.35,-0.7,2.11,0,0
16315.687,-0.948,-0.011,0.255,-3.2,0.43,1.74,0,0
16315.703,-0.951,-0.001,0.255,1.16,1.01,2.14,0,0
16315.718,-0.962,0.005,0.253,4.46,0.82,2.87,0,0
16315.718,-0.969,0.006,0.254,6.84,-0.27,2.96,0,0
16315.734,-0.968,0.007,0.238,7.2,-2.01,2.35,0,0
16315.734,-0.973,0.006,0.232,5.46,-3.66,1.25,0,0
16315.75,-0.977,0.002,0.229,3.54,-5.07,0.24,0,0
16315.765,-0.973,0.003,0.224,2.75,-5.83,-0.18,0,0
16315.765,-0.972,0.007,0.222,3.39,-5.95,-0.18,0,0
16315.781,-0.97,0.006,0.219,4.76,-5.71,-0.03,0,0
16315.796,-0.972,0.005,0.22,6.32,-4.79,0.31,0,0
16315.796,-0.973,0.003,0.221,7.66,-3.57,1.22,0,0
16315.812,-0.966,-0.005,0.222,8.36,-3.08,2.01,0,0
16315.812,-0.958,-0.004,0.221,8.18,-2.9,1.53,0,0
16315.828,-0.957,0.005,0.218,6.84,-2.38,0.79,0,0
16315.843,-0.958,0.013,0.219,4.7,-1.8,0.67,0,0
16315.843,-0.953,0.014,0.222,2.29,-1.34,1.01,0,0
16315.859,-0.954,0.007,0.229,-0.03,-0.98,1.01,0,0
16315.875,-0.953,-0.003,0.241,-1.5,-0.92,1.13,0,0
16315.89,-0.948,-0.01,0.248,-1.16,-1.07,1.07,0,0
16315.89,-0.946,-0.014,0.251,0.4,-0.89,0.49,0,0
16315.906,-0.947,-0.011,0.254,2.69,-0.98,0.0,0,0
16315.906,-0.948,-0.006,0.256,5.16,-1.4,-0.64,0,0
16315.921,-0.948,-0.0,0.253,8.03,-1.53,-0.92,0,0
16315.937,-0.949,0.004,0.252,10.96,-1.56,-0.98,0,0
16315.937,-0.948,0.0,0.25,13.52,-1.83,-0.7,0,0
16315.953,-0.94,-0.002,0.243,15.14,-2.04,-0.73,0,0
16315.953,-0.938,0.013,0.234,15.47,-1.83,-1.8,0,0
16315.968,-0.945,0.032,0.226,13.09,-1.5,-2.93,0,0
16315.984,-0.949,0.049,0.219,8.7,-1.16,-2.9,0,0
16315.984,-0.951,0.06,0.216,3.08,-1.01,-2.38,0,0
16316.0,-0.957,0.055,0.223,-1.74,-1.07,-1.65,0,0
16316.015,-0.958,0.043,0.232,-4.33,-1.46,-0.46,0,0
16316.031,-0.957,0.028,0.234,-4.33,-1.83,0.49,0,0
16316.031,-0.953,0.019,0.233,-2.87,-2.2,0.89,0,0
16316.046,-0.952,0.016,0.232,-0.89,-1.92,0.67,0,0
16316.046,-0.956,0.014,0.233,1.31,-0.92,0.37,0,0
16316.062,-0.958,0.016,0.231,2.81,-0.21,0.24,0,0
16316.078,-0.955,0.02,0.232,2.84,0.18,-0.06,0,0
16316.078,-0.954,0.02,0.235,2.14,0.58,-0.43,0,0
16316.093,-0.957,0.026,0.239,0.92,0.95,-0.85,0,0
16316.109,-0.959,0.031,0.244,-0.37,0.79,-0.76,0,0
16316.109,-0.96,0.031,0.251,-1.16,0.24,-0.49,0,0
16316.125,-0.961,0.033,0.249,-1.28,-0.67,0.03,0,0
16316.125,-0.962,0.036,0.246,-1.65,-1.25,0.7,0,0
16316.14,-0.963,0.03,0.245,-1.8,-1.8,1.37,0,0
16316.156,-0.961,0.018,0.243,-1.43,-2.26,1.98,0,0
16316.156,-0.959,0.01,0.244,-0.49,-2.26,1.95,0,0
16316.171,-0.96,0.009,0.241,1.28,-2.08,1.56,0,0
16316.187,-0.961,0.005,0.233,2.78,-1.89,1.4,0,0
16316.187,-0.957,0.008,0.228,2.81,-1.46,1.28,0,0
16316.203,-0.952,0.012,0.227,1.34,-1.53,0.61,0,0
16316.203,-0.949,0.012,0.231,-0.52,-1.53,-0.03,0,0
16316.218,-0.95,0.013,0.233,-1.68,-0.92,-0.27,0,0
16316.234,-0.952,0.015,0.239,-1.77,-0.34,-0.31,0,0
16316.234,-0.953,0.018,0.243,-0.98,-0.24,-0.24,0,0
16316.25,-0.955,0.02,0.244,-0.15,-0.37,0.06,0,0
16316.265,-0.957,0.019,0.243,0.18,-0.76,0.52,0,0
16316.265,-0.952,0.019,0.237,0.12,-1.31,0.82,0,0
16316.281,-0.949,0.022,0.232,-0.7,-1.46,0.92,0,0
16316.296,-0.951,0.022,0.233,-2.29,-1.34,0.82,0,0
16316.296,-0.955,0.013,0.235,-3.33,-1.22,0.43,0,0
16316.312,-0.959,0.012,0.235,-3.45,-0.85,0.18,0,0
16316.328,-0.96,0.016,0.237,-2.87,-0.7,-0.18,0,0
16316.328,-0.965,0.018,0.238,-1.86,-0.43,-0.79,0,0
16316.343,-0.968,0.02,0.244,-1.04,-0.34,-0.92,0,0
16316.343,-0.961,0.02,0.246,-0.15,-0.73,-0.79,0,0
16316.359,-0.955,0.023,0.245,0.67,-1.16,-1.22,0,0
16316.375,-0.957,0.03,0.242,1.56,-1.31,-1.59,0,0
16316.375,-0.956,0.038,0.236,2.08,-1.25,-0.98,0,0
16316.39,-0.955,0.041,0.231,1.68,-1.34,-0.37,0,0
16316.406,-0.958,0.043,0.226,-0.15,-1.56,-0.15,0,0
16316.406,-0.958,0.038,0.225,-2.72,-1.89,0.21,0,0
16316.421,-0.953,0.023,0.224,-4.79,-2.08,0.55,0,0
16316.437,-0.947,0.018,0.226,-5.89,-1.62,0.27,0,0
16316.437,-0.946,0.016,0.229,-5.37,-0.79,-0.43,0,0
16316.453,-0.947,0.015,0.234,-3.57,0.12,-0.76,0,0
16316.453,-0.949,0.02,0.237,-1.31,0.61,-0.76,0,0
16316.468,-0.951,0.027,0.24,0.43,0.73,-0.46,0,0
16316.484,-0.95,0.026,0.243,1.46,0.27,-0.46,0,0
16316.484,-0.952,0.026,0.244,1.77,-0.49,-0.67,0,0
16316.5,-0.952,0.031,0.24,1.56,-1.25,-0.37,0,0
16316.515,-0.951,0.034,0.237,1.4,-1.53,-0.24,0,0
16316.515,-0.954,0.037,0.236,1.07,-1.37,-0.06,0,0
16316.531,-0.957,0.039,0.231,0.0,-1.31,0.49,0,0
16316.546,-0.954,0.034,0.228,-1.37,-1.31,1.01,0,0
16316.562,-0.951,0.023,0.233,-2.5,-1.25,1.37,0,0
16316.562,-0.946,0.013,0.235,-2.9,-1.31,1.22,0,0
16316.562,-0.948,0.009,0.24,-2.08,-1.25,0.31,0,0
16316.578,-0.955,0.014,0.238,-0.18,-0.92,-0.43,0,0
16316.593,-0.957,0.025,0.233,1.74,-0.7,-0.58,0,0
16316.593,-0.961,0.035,0.228,2.29,-0.67,-0.67,0,0
16316.609,-0.963,0.037,0.23,1.5,-0.49,-0.27,0,0
16316.625,-0.964,0.036,0.235,0.43,-0.55,0.46,0,0
16316.625,-0.962,0.03,0.238,-0.7,-0.76,0.76,0,0
16316.64,-0.961,0.022,0.245,-1.77,-1.34,0.73,0,0
16316.656,-0.958,0.017,0.247,-1.8,-1.83,0.64,0,0
16316.656,-0.955,0.015,0.244,-0.73,-2.04,0.55,0,0
16316.671,-0.953,0.021,0.24,0.67,-1.83,0.58,0,0
16316.687,-0.95,0.027,0.235,-0.31,-1.19,0.55,0,0
16316.687,-0.957,0.031,0.233,-2.59,-1.34,0.89,0,0
16316.703,-0.96,0.028,0.238,-4.03,-2.08,1.13,0,0
16316.718,-0.956,0.012,0.246,-3.42,-2.5,0.95,0,0
16316.718,-0.957,0.008,0.247,-1.53,-2.69,0.92,0,0
16316.734,-0.953,0.006,0.242,1.07,-2.81,1.01,0,0
16316.734,-0.95,0.007,0.232,3.17,-2.62,0.61,0,0
16316.75,-0.952,0.018,0.225,3.23,-2.04,-0.06,0,0
16316.765,-0.954,0.03,0.222,1.46,-1.65,-0.18,0,0
16316.781,-0.952,0.032,0.225,-1.1,-1.31,-0.12,0,0
16316.781,-0.953,0.025,0.231,-2.69,-0.73,0.15,0,0
16316.796,-0.955,0.023,0.236,-2.75,-0.27,0.58,0,0
16316.796,-0.954,0.021,0.242,-1.71,-0.52,0.89,0,0
16316.812,-0.957,0.016,0.243,-0.76,-1.07,0.82,0,0
16316.828,-0.959,0.02,0.238,-0.61,-1.71,0.58,0,0
16316.828,-0.955,0.019,0.236,-0.7,-2.38,0.24,0,0
16316.843,-0.952,0.009,0.233,-0.82,-2.23,0.18,0,0
16316.859,-0.954,0.017,0.23,-1.04,-1.71,-0.18,0,0
16316.859,-0.955,0.023,0.235,-1.31,-1.13,-0.76,0,0
16316.875,-0.961,0.027,0.24,-1.65,-0.95,-1.07,0,0
16316.875,-0.964,0.028,0.24,-2.01,-0.92,-0.79,0,0
16316.89,-0.961,0.03,0.24,-1.98,-1.37,-0.18,0,0
16316.906,-0.955,0.03,0.238,-1.83,-1.77,-0.09,0,0
16316.906,-0.958,0.031,0.237,-1.19,-1.65,0.0,0,0
16316.921,-0.959,0.032,0.238,-0.34,-1.4,0.85,0,0
16316.937,-0.951,0.03,0.235,0.06,-1.68,1.59,0,0
16316.937,-0.947,0.027,0.234,-1.04,-1.68,1.22,0,0
16316.953,-0.952,0.022,0.238,-2.32,-1.46,0.52,0,0
16316.968,-0.954,0.015,0.242,-2.59,-1.37,0.55,0,0
16316.968,-0.949,0.011,0.246,-1.98,-1.53,0.67,0,0
16316.984,-0.95,0.005,0.245,-0.95,-1.4,0.09,0,0
16316.984,-0.954,0.008,0.246,0.03,-1.4,-0.4,0,0
16317.0,-0.953,0.019,0.241,0.15,-1.65,-0.79,0,0
16317.015,-0.952,0.027,0.237,-0.82,-1.89,-1.04,0,0
16317.015,-0.953,0.03,0.238,-2.01,-1.34,-0.95,0,0
16317.031,-0.954,0.027,0.241,-2.32,-0.95,-0.55,0,0
16317.046,-0.953,0.027,0.243,-1.8,-0.98,-0.15,0,0
16317.046,-0.957,0.023,0.244,-1.13,-1.31,-0.03,0,0
16317.062,-0.959,0.021,0.243,-0.79,-1.65,0.09,0,0
16317.078,-0.958,0.024,0.242,-0.95,-1.8,0.34,0,0
16317.093,-0.954,0.022,0.241,-1.4,-1.86,0.46,0,0
16317.093,-0.947,0.021,0.242,-1.62,-1.62,0.24,0,0
16317.093,-0.95,0.016,0.247,-1.07,-1.1,-0.09,0,0
16317.109,-0.957,0.018,0.248,0.09,-1.1,-0.12,0,0
16317.125,-0.961,0.023,0.245,0.4,-1.71,-0.06,0,0
16317.125,-0.962,0.027,0.239,-0.24,-2.26,-0.06,0,0
16317.14,-0.957,0.025,0.233,-1.31,-2.59,0.12,0,0
16317.156,-0.955,0.024,0.236,-2.11,-2.17,0.18,0,0
16317.156,-0.951,0.027,0.239,-2.32,-1.34,0.18,0,0
16317.171,-0.954,0.027,0.242,-2.08,-0.7,0.12,0,0
16317.187,-0.957,0.021,0.25,-1.16,-0.46,0.21,0,0
16317.187,-0.957,0.018,0.248,-0.15,-0.85,0.73,0,0
16317.203,-0.952,0.022,0.244,-0.27,-1.5,1.04,0,0
16317.203,-0.947,0.024,0.24,-1.34,-2.32,0.61,0,0
16317.218,-0.948,0.019,0.238,-2.47,-2.41,0.18,0,0
16317.234,-0.949,0.016,0.237,-2.84,-2.04,0.15,0,0
16317.234,-0.953,0.014,0.24,-2.47,-1.86,0.24,0,0
16317.25,-0.951,0.016,0.242,-1.95,-1.5,0.03,0,0
16317.265,-0.952,0.018,0.24,-1.89,-1.25,-0.31,0,0
16317.265,-0.954,0.02,0.243,-2.41,-0.89,-0.7,0,0
16317.281,-0.953,0.022,0.249,-2.44,-0.58,-0.7,0,0
16317.296,-0.954,0.026,0.25,-1.77,-0.4,-0.64,0,0
16317.296,-0.957,0.029,0.252,-1.01,-0.55,-0.37,0,0
16317.312,-0.956,0.028,0.252,-0.43,-0.76,0.18,0,0
16317.312,-0.953,0.028,0.252,-0.27,-1.28,0.52,0,0
16317.328,-0.953,0.021,0.248,-0.82,-2.08,0.55,0,0
16317.343,-0.953,0.02,0.247,-1.74,-2.47,0.31,0,0
16317.343,-0.95,0.017,0.246,-1.92,-2.69,0.03,0,0
