timestamp,ax,ay,az,gx,gy,gz,orient_label,motion_label
16327.062,-0.953,0.076,0.24,0.27,-0.85,-0.09,0,0
16327.078,-0.949,0.073,0.24,0.12,-0.85,-0.18,0,0
16327.093,-0.947,0.073,0.24,-0.15,-0.85,-0.55,0,0
16327.109,-0.951,0.075,0.244,-0.43,-0.73,-0.95,0,0
16327.109,-0.952,0.074,0.246,-0.34,-0.67,-0.95,0,0
16327.125,-0.949,0.077,0.246,0.37,-0.82,-0.55,0,0
16327.125,-0.953,0.082,0.245,1.31,-0.92,-0.34,0,0
16327.14,-0.952,0.086,0.244,2.01,-1.13,0.21,0,0
16327.156,-0.953,0.086,0.239,2.2,-1.34,0.7,0,0
16327.156,-0.953,0.083,0.236,1.5,-1.56,1.01,0,0
16327.171,-0.948,0.074,0.235,0.49,-1.71,1.16,0,0
16327.187,-0.947,0.07,0.234,-0.18,-1.4,0.89,0,0
16327.187,-0.949,0.069,0.238,-0.58,-0.92,0.4,0,0
16327.203,-0.952,0.07,0.242,-0.55,-0.52,0.24,0,0
16327.203,-0.949,0.068,0.243,-0.37,-0.7,0.31,0,0
16327.218,-0.946,0.068,0.245,-0.24,-1.04,-0.24,0,0
16327.234,-0.951,0.072,0.246,0.15,-0.98,-0.7,0,0
16327.25,-0.952,0.079,0.237,0.49,-1.34,-0.12,0,0
16327.265,-0.951,0.077,0.237,-0.31,-1.31,-0.18,0,0
16327.265,-0.954,0.076,0.241,-0.7,-1.01,-0.15,0,0
16327.281,-0.956,0.074,0.245,-0.4,-0.98,0.49,0,0
16327.296,-0.95,0.068,0.245,0.0,-1.37,0.92,0,0
16327.296,-0.949,0.065,0.243,0.4,-1.8,0.55,0,0
16327.312,-0.951,0.067,0.24,0.73,-1.59,0.21,0,0
16327.312,-0.951,0.066,0.237,0.76,-1.16,0.4,0,0
16327.328,-0.947,0.069,0.237,0.21,-0.89,0.21,0,0
16327.343,-0.951,0.073,0.241,-0.67,-0.67,-0.15,0,0
16327.343,-0.956,0.069,0.245,-1.01,-0.64,0.0,0,0
16327.359,-0.953,0.071,0.246,-0.4,-0.85,0.12,0,0
16327.375,-0.952,0.074,0.245,0.52,-1.25,-0.15,0,0
16327.375,-0.952,0.075,0.242,0.37,-1.46,-0.27,0,0
16327.39,-0.95,0.076,0.239,-0.27,-1.68,-0.21,0,0
16327.406,-0.947,0.069,0.24,-0.7,-1.74,-0.03,0,0
16327.421,-0.948,0.062,0.245,0.49,-1.31,-0.27,0,0
16327.421,-0.955,0.063,0.246,1.95,-1.25,-0.61,0,0
16327.437,-0.955,0.069,0.243,3.05,-1.62,-0.7,0,0
16327.453,-0.954,0.078,0.236,3.08,-1.89,-1.04,0,0
16327.453,-0.952,0.083,0.234,2.17,-2.01,-1.16,0,0
16327.468,-0.952,0.082,0.234,1.07,-1.92,-1.01,0,0
16327.484,-0.949,0.076,0.238,0.4,-1.65,-0.7,0,0
16327.484,-0.948,0.073,0.242,0.82,-1.01,-0.34,0,0
16327.5,-0.951,0.069,0.247,1.77,-0.76,-0.15,0,0
16327.515,-0.955,0.064,0.249,2.26,-1.01,-0.37,0,0
16327.515,-0.96,0.064,0.248,2.32,-1.83,-1.1,0,0
16327.531,-0.96,0.062,0.234,2.78,-2.53,-1.31,0,0
16327.546,-0.951,0.065,0.227,3.02,-2.66,-1.28,0,0
16327.546,-0.943,0.069,0.222,2.81,-2.41,-1.86,0,0
16327.562,-0.94,0.073,0.226,2.01,-1.59,-2.17,0,0
16327.562,-0.942,0.073,0.226,1.25,-0.24,-1.62,0,0
16327.593,-0.948,0.064,0.255,1.04,1.07,-0.58,0,0
16327.593,-0.956,0.062,0.267,2.32,0.55,-0.52,0,0
16327.609,-0.959,0.053,0.271,4.46,-0.58,0.06,0,0
16327.625,-0.958,0.053,0.265,6.71,-2.41,0.34,0,0
16327.64,-0.949,0.052,0.257,9.06,-3.63,0.4,0,0
16327.64,-0.939,0.048,0.248,10.62,-4.15,-0.15,0,0
16327.656,-0.936,0.04,0.241,12.54,-4.36,-1.31,0,0
16327.656,-0.931,0.045,0.235,13.98,-3.23,-1.95,0,0
16327.671,-0.937,0.054,0.231,13.67,-1.34,-2.75,0,0
16327.687,-0.945,0.068,0.233,10.99,-0.06,-3.72,0,0
16327.687,-0.953,0.076,0.239,6.56,0.67,-4.24,0,0
16327.703,-0.958,0.07,0.247,2.32,0.85,-4.61,0,0
16327.703,-0.96,0.069,0.257,-0.09,1.07,-5.19,0,0
16327.718,-0.964,0.077,0.265,-0.4,1.13,-5.77,0,0
16327.734,-0.97,0.09,0.27,-0.03,0.85,-5.86,0,0
16327.734,-0.976,0.095,0.274,-0.06,-0.12,-5.34,0,0
16327.765,-0.965,0.087,0.274,0.21,-2.99,-3.78,0,0
16327.781,-0.958,0.081,0.27,0.85,-4.24,-3.45,0,0
16327.781,-0.952,0.078,0.264,2.53,-4.91,-3.2,0,0
16327.796,-0.95,0.077,0.255,4.33,-5.46,-2.96,0,0
16327.796,-0.945,0.082,0.246,4.82,-5.92,-2.87,0,0
16327.812,-0.945,0.086,0.236,3.78,-6.29,-2.75,0,0
16327.812,-0.946,0.083,0.233,1.89,-6.2,-2.66,0,0
16327.828,-0.945,0.078,0.235,0.61,-5.68,-2.72,0,0
16327.843,-0.949,0.076,0.24,0.37,-4.94,-2.29,0,0
16327.843,-0.95,0.078,0.245,0.67,-4.43,-1.8,0,0
16327.859,-0.951,0.077,0.247,1.01,-4.36,-1.89,0,0
16327.875,-0.955,0.074,0.249,1.34,-4.88,-1.89,0,0
16327.875,-0.958,0.073,0.249,1.95,-5.52,-1.59,0,0
16327.89,-0.954,0.069,0.247,2.96,-6.01,-1.34,0,0
16327.906,-0.95,0.07,0.243,4.36,-6.16,-1.56,0,0
16327.906,-0.953,0.074,0.24,5.8,-6.01,-1.62,0,0
16327.921,-0.954,0.076,0.239,7.08,-6.01,-1.31,0,0
16327.937,-0.949,0.078,0.232,8.21,-5.95,-0.76,0,0
16327.937,-0.944,0.078,0.226,8.7,-5.55,-0.61,0,0
16327.953,-0.948,0.078,0.227,8.82,-5.01,-0.43,0,0
16327.953,-0.948,0.076,0.231,9.06,-4.15,0.27,0,0
16327.968,-0.941,0.079,0.232,9.06,-3.39,1.22,0,0
16327.984,-0.94,0.073,0.24,8.91,-3.17,1.37,0,0
16328.0,-0.945,0.068,0.252,8.73,-3.14,1.16,0,0
16328.0,-0.948,0.067,0.259,9.34,-3.2,1.19,0,0
16328.015,-0.949,0.062,0.263,10.74,-3.48,1.13,0,0
16328.015,-0.949,0.062,0.267,12.3,-3.81,1.04,0,0
16328.031,-0.948,0.061,0.267,14.04,-3.81,0.82,0,0
16328.046,-0.948,0.059,0.266,15.26,-3.97,0.73,0,0
16328.046,-0.942,0.063,0.258,16.3,-4.36,0.4,0,0
16328.062,-0.936,0.067,0.254,16.72,-4.73,0.15,0,0
16328.078,-0.935,0.068,0.248,16.79,-4.82,0.06,0,0
16328.078,-0.934,0.072,0.237,16.39,-4.43,0.34,0,0
16328.093,-0.931,0.076,0.231,15.41,-3.63,0.61,0,0
16328.093,-0.932,0.074,0.234,13.64,-2.66,0.64,0,0
16328.109,-0.934,0.07,0.235,11.78,-1.86,0.61,0,0
16328.125,-0.932,0.065,0.242,10.19,-1.37,0.7,0,0
16328.125,-0.929,0.065,0.246,9.49,-0.7,0.55,0,0
16328.14,-0.934,0.068,0.244,9.37,0.09,0.37,0,0
16328.156,-0.942,0.07,0.249,9.06,0.82,0.24,0,0
16328.156,-0.947,0.071,0.251,8.55,1.19,0.21,0,0
16328.171,-0.946,0.075,0.246,7.63,1.22,0.49,0,0
16328.187,-0.944,0.076,0.241,6.38,1.04,0.55,0,0
16328.187,-0.937,0.077,0.239,5.13,1.31,0.52,0,0
16328.203,-0.935,0.076,0.236,3.97,2.14,0.7,0,0
16328.218,-0.936,0.067,0.238,3.2,3.05,1.01,0,0
16328.218,-0.939,0.062,0.245,2.47,4.27,0.82,0,0
16328.234,-0.941,0.061,0.251,1.34,5.31,0.09,0,0
16328.234,-0.948,0.066,0.258,0.06,5.71,-0.73,0,0
16328.25,-0.949,0.07,0.266,-1.25,5.55,-1.46,0,0
16328.265,-0.95,0.074,0.274,-2.04,5.31,-1.77,0,0
16328.265,-0.949,0.082,0.277,-1.71,4.76,-1.5,0,0
16328.281,-0.948,0.086,0.276,-1.04,3.75,-1.07,0,0
16328.296,-0.95,0.089,0.272,-0.24,2.99,-0.52,0,0
16328.296,-0.949,0.087,0.267,-0.37,2.35,0.12,0,0
16328.312,-0.948,0.083,0.263,-1.4,1.65,0.18,0,0
16328.328,-0.946,0.08,0.265,-2.35,1.77,-0.21,0,0
16328.328,-0.949,0.076,0.269,-2.56,2.2,-0.64,0,0
16328.343,-0.95,0.07,0.272,-2.08,2.14,-0.82,0,0
16328.359,-0.947,0.075,0.275,-1.01,1.71,-1.16,0,0
16328.359,-0.948,0.078,0.274,0.4,1.01,-1.68,0,0
16328.375,-0.955,0.081,0.272,1.65,0.49,-1.92,0,0
16328.375,-0.955,0.084,0.266,2.5,-0.46,-1.74,0,0
16328.39,-0.954,0.089,0.258,2.81,-1.37,-1.46,0,0
16328.406,-0.954,0.093,0.253,2.56,-1.92,-1.37,0,0
16328.421,-0.957,0.092,0.249,1.89,-2.23,-1.46,0,0
16328.421,-0.956,0.092,0.245,1.13,-2.66,-1.31,0,0
16328.421,-0.955,0.094,0.241,0.98,-2.62,-1.22,0,0
16328.437,-0.957,0.093,0.24,1.8,-2.47,-1.07,0,0
16328.453,-0.955,0.094,0.239,2.41,-2.5,-0.98,0,0
16328.468,-0.952,0.094,0.233,2.87,-2.5,-0.76,0,0
16328.468,-0.951,0.09,0.228,3.23,-2.56,-0.4,0,0
16328.484,-0.95,0.09,0.229,3.2,-2.26,-0.58,0,0
16328.5,-0.95,0.091,0.226,3.05,-2.11,-0.89,0,0
16328.5,-0.955,0.092,0.224,3.05,-2.17,-0.79,0,0
16328.515,-0.95,0.092,0.217,3.23,-1.95,-0.64,0,0
16328.515,-0.95,0.1,0.214,2.69,-1.53,-0.92,0,0
16328.531,-0.954,0.1,0.215,1.68,-1.13,-0.82,0,0
16328.546,-0.954,0.098,0.215,0.58,-0.92,-0.37,0,0
16328.546,-0.95,0.099,0.216,-0.18,-0.7,0.12,0,0
16328.562,-0.954,0.096,0.223,-0.79,-0.12,0.27,0,0
16328.578,-0.96,0.09,0.23,-1.07,0.37,0.31,0,0
16328.578,-0.962,0.089,0.237,-0.67,0.64,0.61,0,0
16328.593,-0.963,0.088,0.243,0.34,0.7,0.89,0,0
16328.593,-0.965,0.084,0.245,1.28,0.27,1.1,0,0
16328.625,-0.96,0.084,0.236,2.44,-1.25,1.71,0,0
16328.625,-0.959,0.077,0.236,2.62,-1.19,1.89,0,0
16328.64,-0.958,0.071,0.239,2.41,-0.79,1.62,0,0
16328.656,-0.957,0.067,0.245,1.86,-0.46,1.5,0,0
16328.656,-0.956,0.06,0.258,1.83,0.06,1.1,0,0
16328.671,-0.957,0.055,0.273,2.66,0.0,0.43,0,0
16328.687,-0.959,0.053,0.279,4.3,-0.92,-0.27,0,0
16328.687,-0.96,0.056,0.279,6.99,-2.35,-0.98,0,0
16328.703,-0.96,0.063,0.271,9.55,-4.0,-1.34,0,0
16328.718,-0.959,0.073,0.26,10.99,-5.31,-1.37,0,0
16328.718,-0.954,0.081,0.246,10.86,-6.29,-1.43,0,0
16328.734,-0.954,0.081,0.237,9.55,-6.53,-1.31,0,0
16328.734,-0.952,0.075,0.229,8.12,-6.32,-1.13,0,0
16328.75,-0.945,0.07,0.227,7.23,-5.71,-0.92,0,0
16328.765,-0.942,0.066,0.229,7.08,-4.82,-1.1,0,0
16328.765,-0.943,0.068,0.231,7.45,-3.72,-1.68,0,0
16328.796,-0.946,0.078,0.241,8.88,-2.87,-1.89,0,0
16328.796,-0.942,0.085,0.239,9.16,-3.08,-1.62,0,0
16328.812,-0.942,0.09,0.234,9.16,-3.3,-1.34,0,0
16328.812,-0.938,0.089,0.228,8.42,-3.91,-1.01,0,0
16328.828,-0.929,0.087,0.219,7.02,-4.24,-0.49,0,0
16328.843,-0.927,0.082,0.214,5.74,-3.6,-0.55,0,0
16328.843,-0.924,0.078,0.211,4.85,-2.53,-0.52,0,0
16328.859,-0.923,0.073,0.211,4.24,-1.04,-0.58,0,0
16328.875,-0.922,0.074,0.217,3.63,0.37,-0.79,0,0
16328.875,-0.923,0.082,0.221,2.69,1.56,-1.5,0,0
16328.89,-0.932,0.084,0.229,1.65,2.72,-2.14,0,0
16328.906,-0.939,0.088,0.237,0.85,3.33,-2.26,0,0
16328.906,-0.937,0.094,0.243,0.06,3.48,-2.01,0,0
16328.921,-0.94,0.1,0.251,-0.24,3.54,-1.86,0,0
16328.937,-0.947,0.104,0.257,-0.76,3.42,-1.43,0,0
16328.937,-0.947,0.105,0.264,-1.4,2.96,-0.73,0,0
16328.953,-0.953,0.095,0.271,-1.46,1.95,0.03,0,0
16328.968,-0.953,0.092,0.271,-1.1,1.46,0.21,0,0
16328.984,-0.949,0.091,0.268,-0.37,1.07,0.37,0,0
16328.984,-0.945,0.091,0.265,0.4,0.95,0.34,0,0
16329.0,-0.944,0.094,0.266,0.85,0.89,0.09,0,0
16329.015,-0.946,0.097,0.264,1.22,0.85,0.09,0,0
16329.015,-0.95,0.099,0.266,1.37,0.73,0.4,0,0
16329.031,-0.949,0.099,0.269,1.16,0.12,0.52,0,0
16329.046,-0.954,0.099,0.268,0.95,-0.27,0.24,0,0
16329.046,-0.959,0.1,0.273,1.1,-0.67,0.34,0,0
16329.062,-0.959,0.101,0.272,1.65,-1.13,0.58,0,0
16329.078,-0.959,0.104,0.269,2.04,-1.71,0.82,0,0
16329.078,-0.959,0.105,0.263,2.11,-2.47,1.01,0,0
16329.093,-0.955,0.102,0.257,2.26,-3.23,1.34,0,0
16329.093,-0.95,0.098,0.251,2.47,-3.63,2.08,0,0
16329.109,-0.947,0.098,0.247,2.81,-3.75,2.2,0,0
16329.125,-0.946,0.097,0.244,2.99,-3.45,2.14,0,0
16329.125,-0.946,0.097,0.244,3.02,-3.08,2.35,0,0
16329.14,-0.945,0.093,0.245,3.57,-3.08,2.56,0,0
16329.156,-0.944,0.092,0.243,4.09,-3.54,2.78,0,0
16329.171,-0.942,0.09,0.238,4.55,-3.94,2.9,0,0
16329.171,-0.942,0.086,0.229,5.16,-4.06,2.87,0,0
16329.187,-0.936,0.079,0.219,5.4,-4.21,3.02,0,0
16329.187,-0.929,0.081,0.212,4.85,-3.63,2.81,0,0
16329.203,-0.932,0.078,0.207,3.78,-2.59,2.14,0,0
16329.203,-0.937,0.079,0.209,2.23,-1.4,1.4,0,0
16329.218,-0.937,0.084,0.213,0.61,-0.31,1.22,0,0
16329.234,-0.936,0.088,0.217,-0.76,0.52,1.01,0,0
16329.234,-0.939,0.089,0.221,-1.56,1.22,0.67,0,0
16329.25,-0.945,0.093,0.23,-1.83,1.98,0.43,0,0
16329.265,-0.949,0.102,0.236,-1.77,2.38,0.58,0,0
16329.265,-0.952,0.106,0.24,-1.83,2.29,0.76,0,0
16329.281,-0.959,0.107,0.243,-2.35,1.95,1.22,0,0
16329.296,-0.959,0.105,0.248,-3.02,1.37,1.77,0,0
16329.296,-0.953,0.104,0.247,-3.88,0.79,2.14,0,0
16329.312,-0.949,0.099,0.247,-4.58,0.67,1.92,0,0
16329.328,-0.952,0.089,0.256,-4.21,0.89,1.74,0,0
16329.328,-0.95,0.085,0.259,-3.08,0.79,1.71,0,0
16329.343,-0.947,0.09,0.256,-1.8,0.55,1.59,0,0
16329.343,-0.946,0.096,0.259,-0.67,0.24,1.16,0,0
16329.359,-0.952,0.097,0.254,0.12,0.0,0.79,0,0
16329.375,-0.955,0.103,0.253,0.37,-0.43,0.95,0,0
16329.39,-0.953,0.109,0.251,0.0,-0.95,0.98,0,0
16329.39,-0.952,0.107,0.247,-0.37,-1.25,0.73,0,0
16329.406,-0.958,0.104,0.25,-0.24,-1.13,0.67,0,0
16329.406,-0.959,0.103,0.25,0.46,-1.31,1.07,0,0
16329.421,-0.955,0.102,0.248,0.98,-1.5,1.28,0,0
16329.437,-0.953,0.105,0.246,1.13,-1.59,1.25,0,0
16329.437,-0.955,0.105,0.244,1.22,-1.34,1.19,0,0
16329.453,-0.957,0.101,0.239,0.89,-1.34,1.19,0,0
16329.468,-0.956,0.101,0.242,0.58,-1.77,1.56,0,0
16329.484,-0.952,0.098,0.242,1.46,-1.65,1.77,0,0
16329.484,-0.954,0.093,0.241,1.71,-1.74,1.77,0,0
16329.5,-0.948,0.095,0.24,1.68,-1.86,1.71,0,0
16329.515,-0.948,0.093,0.236,1.31,-1.65,1.43,0,0
16329.515,-0.949,0.089,0.239,1.13,-1.4,1.1,0,0
16329.531,-0.945,0.09,0.239,1.19,-1.1,0.92,0,0
16329.546,-0.944,0.088,0.237,1.5,-1.04,0.82,0,0
16329.546,-0.943,0.087,0.236,1.77,-1.25,0.67,0,0
16329.562,-0.944,0.089,0.232,2.2,-1.28,0.79,0,0
16329.578,-0.944,0.089,0.233,2.72,-0.98,0.82,0,0
16329.578,-0.946,0.089,0.233,3.11,-0.55,0.64,0,0
16329.593,-0.945,0.094,0.231,3.23,-0.21,0.73,0,0
16329.593,-0.944,0.095,0.233,2.9,0.0,0.76,0,0
16329.609,-0.947,0.092,0.235,2.35,0.06,0.73,0,0
16329.625,-0.946,0.093,0.236,1.4,-0.09,0.92,0,0
16329.625,-0.943,0.09,0.241,0.98,-0.03,0.79,0,0
16329.656,-0.944,0.09,0.239,0.92,0.0,0.21,0,0
16329.656,-0.948,0.087,0.242,1.13,0.34,-0.24,0,0
16329.671,-0.949,0.089,0.244,1.56,0.37,-0.24,0,0
16329.687,-0.946,0.092,0.242,1.71,0.27,-0.37,0,0
16329.687,-0.951,0.088,0.246,1.43,0.21,-0.61,0,0
16329.703,-0.948,0.09,0.245,1.4,0.37,-0.82,0,0
16329.703,-0.943,0.093,0.242,1.71,0.37,-1.01,0,0
16329.718,-0.942,0.095,0.25,2.08,0.49,-1.31,0,0
16329.734,-0.949,0.1,0.251,2.62,0.52,-1.22,0,0
16329.734,-0.953,0.101,0.248,3.2,0.21,-0.82,0,0
16329.75,-0.954,0.103,0.243,3.27,-0.37,-0.4,0,0
16329.765,-0.955,0.1,0.238,3.14,-0.95,-0.15,0,0
16329.765,-0.952,0.096,0.232,2.69,-1.31,0.15,0,0
16329.781,-0.945,0.092,0.226,2.01,-0.85,0.21,0,0
16329.796,-0.945,0.09,0.227,1.34,-0.03,-0.15,0,0
16329.796,-0.95,0.088,0.235,0.7,0.73,-0.73,0,0
16329.828,-0.953,0.093,0.248,0.21,1.1,-1.1,0,0
16329.828,-0.955,0.093,0.252,0.64,0.76,-1.19,0,0
16329.843,-0.955,0.096,0.255,1.4,0.18,-1.31,0,0
16329.843,-0.953,0.1,0.253,2.47,-0.55,-1.19,0,0
16329.859,-0.954,0.103,0.251,3.42,-1.04,-1.13,0,0
16329.875,-0.953,0.105,0.244,3.75,-1.46,-0.92,0,0
16329.875,-0.946,0.104,0.239,3.3,-1.98,-0.58,0,0
16329.89,-0.942,0.101,0.238,3.02,-2.01,-0.37,0,0
16329.906,-0.941,0.095,0.24,2.99,-1.65,-0.4,0,0
16329.921,-0.94,0.09,0.24,3.17,-1.34,-0.43,0,0
16329.921,-0.943,0.093,0.238,3.72,-1.16,-0.43,0,0
16329.921,-0.946,0.094,0.239,4.06,-1.37,-0.73,0,0
16329.937,-0.946,0.095,0.235,3.94,-1.77,-0.95,0,0
16329.953,-0.945,0.099,0.228,3.63,-2.29,-0.98,0,0
16329.953,-0.944,0.101,0.222,2.99,-2.32,-1.13,0,0
16329.968,-0.939,0.101,0.218,2.29,-1.86,-1.34,0,0
16329.984,-0.934,0.104,0.213,1.56,-1.19,-1.5,0,0
16330.0,-0.932,0.109,0.213,0.92,-0.24,-1.59,0,0
16330.0,-0.934,0.109,0.215,0.34,0.64,-1.28,0,0
16330.015,-0.933,0.109,0.218,0.0,1.31,-0.95,0,0
16330.015,-0.932,0.109,0.22,-0.24,1.43,-0.7,0,0
16330.031,-0.938,0.106,0.224,-0.03,1.77,-0.46,0,0
16330.046,-0.939,0.105,0.224,0.09,2.08,-0.58,0,0
16330.046,-0.946,0.112,0.23,-0.49,2.38,-0.85,0,0
16330.062,-0.951,0.113,0.235,-1.5,2.56,-0.89,0,0
16330.078,-0.957,0.111,0.24,-2.32,2.53,-0.92,0,0
16330.078,-0.959,0.114,0.247,-2.72,2.2,-1.1,0,0
16330.093,-0.963,0.114,0.251,-2.5,1.92,-1.19,0,0
16330.093,-0.965,0.116,0.253,-1.83,1.56,-1.07,0,0
16330.109,-0.968,0.118,0.254,-0.89,1.1,-0.82,0,0
16330.125,-0.969,0.122,0.254,-0.27,0.7,-0.58,0,0
16330.125,-0.969,0.122,0.256,0.09,0.12,-0.24,0,0
16330.14,-0.967,0.121,0.261,0.4,-0.58,0.31,0,0
16330.156,-0.967,0.119,0.264,1.31,-1.22,0.49,0,0
16330.156,-0.97,0.115,0.264,2.59,-1.92,0.67,0,0
16330.171,-0.968,0.114,0.26,3.81,-3.05,1.19,0,0
16330.187,-0.965,0.11,0.253,5.1,-4.33,1.68,0,0
16330.187,-0.956,0.107,0.246,6.04,-5.13,1.89,0,0
16330.203,-0.954,0.103,0.234,6.78,-5.65,2.08,0,0
16330.218,-0.953,0.098,0.225,7.2,-5.89,2.08,0,0
16330.218,-0.95,0.096,0.214,7.32,-5.74,2.04,0,0
16330.234,-0.947,0.098,0.204,6.9,-5.37,1.98,0,0
16330.234,-0.942,0.095,0.201,6.41,-4.82,1.89,0,0
16330.25,-0.943,0.092,0.197,5.89,-3.6,1.59,0,0
16330.265,-0.939,0.09,0.201,5.16,-2.26,1.5,0,0
16330.281,-0.937,0.085,0.208,4.7,-1.25,1.37,0,0
16330.281,-0.936,0.087,0.214,4.39,-0.49,0.89,0,0
16330.296,-0.938,0.093,0.221,4.0,0.03,0.73,0,0
16330.296,-0.94,0.095,0.226,3.17,0.09,0.55,0,0
16330.312,-0.937,0.096,0.227,2.2,-0.12,0.58,0,0
16330.312,-0.937,0.095,0.228,1.19,-0.49,0.43,0,0
16330.328,-0.936,0.091,0.224,0.92,-0.73,0.03,0,0
16330.343,-0.935,0.088,0.221,1.25,-0.61,-0.03,0,0
16330.359,-0.934,0.09,0.214,1.59,-0.34,-0.24,0,0
16330.359,-0.934,0.095,0.208,1.34,0.34,-0.76,0,0
16330.375,-0.934,0.099,0.207,0.61,1.22,-1.25,0,0
16330.375,-0.941,0.1,0.214,0.18,2.01,-1.53,0,0
16330.39,-0.944,0.105,0.218,-0.34,2.53,-1.77,0,0
16330.406,-0.944,0.11,0.224,-0.89,2.96,-1.71,0,0
16330.406,-0.946,0.109,0.23,-1.46,3.27,-1.74,0,0
16330.421,-0.946,0.113,0.232,-2.14,3.14,-1.83,0,0
16330.437,-0.946,0.116,0.231,-2.78,2.66,-1.62,0,0
16330.437,-0.944,0.11,0.234,-2.99,2.66,-1.74,0,0
16330.453,-0.944,0.111,0.231,-2.78,2.93,-1.95,0,0
16330.453,-0.949,0.117,0.232,-2.5,3.27,-2.14,0,0
16330.468,-0.952,0.118,0.236,-2.41,3.6,-2.14,0,0
16330.484,-0.955,0.127,0.247,-2.17,3.54,-1.92,0,0
16330.484,-0.955,0.127,0.254,-1.62,3.42,-1.56,0,0
16330.515,-0.963,0.122,0.267,1.16,2.17,-0.43,0,0
16330.515,-0.966,0.115,0.266,2.78,0.95,0.37,0,0
16330.531,-0.967,0.113,0.258,4.06,-0.55,1.01,0,0
16330.546,-0.963,0.11,0.251,4.67,-1.74,1.34,0,0
16330.546,-0.965,0.101,0.241,5.04,-2.44,1.68,0,0
16330.562,-0.973,0.092,0.227,5.4,-2.99,1.95,0,0
16330.578,-0.968,0.08,0.22,5.65,-3.23,1.46,0,0
16330.578,-0.964,0.082,0.217,5.49,-2.53,0.58,0,0
16330.593,-0.963,0.079,0.218,4.7,-1.46,-0.24,0,0
16330.609,-0.961,0.08,0.225,3.57,-1.04,-1.01,0,0
16330.609,-0.96,0.081,0.233,2.96,-0.95,-1.74,0,0
16330.625,-0.958,0.085,0.235,3.51,-1.22,-2.69,0,0
16330.625,-0.958,0.091,0.238,4.97,-1.83,-3.08,0,0
16330.64,-0.954,0.101,0.23,6.62,-2.38,-3.02,0,0
16330.656,-0.952,0.109,0.224,7.69,-2.56,-2.78,0,0
16330.656,-0.952,0.11,0.218,7.69,-2.66,-2.23,0,0
16330.687,-0.95,0.109,0.21,5.04,-2.35,-1.28,0,0
16330.687,-0.95,0.102,0.209,3.45,-1.74,-0.76,0,0
16330.703,-0.947,0.098,0.211,2.2,-0.98,-0.58,0,0
16330.703,-0.946,0.093,0.216,1.31,-0.24,-0.61,0,0
16330.718,-0.946,0.085,0.225,0.7,0.18,-0.82,0,0
16330.734,-0.945,0.084,0.229,0.58,0.24,-1.28,0,0
16330.75,-0.942,0.085,0.228,0.64,0.09,-1.92,0,0
16330.75,-0.939,0.085,0.233,0.58,-0.09,-2.53,0,0
16330.765,-0.936,0.091,0.232,0.61,-0.18,-3.02,0,0
16330.765,-0.936,0.097,0.232,0.95,0.0,-3.42,0,0
16330.781,-0.939,0.101,0.235,0.95,0.06,-3.69,0,0
16330.796,-0.941,0.106,0.234,0.79,-0.21,-3.6,0,0
16330.796,-0.945,0.108,0.236,0.7,-0.37,-3.51,0,0
16330.812,-0.945,0.108,0.239,0.58,-0.49,-3.51,0,0
16330.828,-0.944,0.106,0.242,0.27,-0.43,-3.63,0,0
16330.828,-0.946,0.101,0.247,-0.03,-0.37,-4.09,0,0
16330.843,-0.948,0.102,0.267,-1.62,-1.62,-7.48,0,0
16330.859,-0.973,0.099,0.268,0.18,-2.62,-8.39,0,0
16330.875,-0.968,0.117,0.261,2.29,-2.72,-4.79,0,0
16330.875,-0.95,0.123,0.257,3.63,-3.11,-2.29,0,0
16330.89,-0.955,0.109,0.25,3.94,-3.81,-2.56,0,0
16330.906,-0.961,0.113,0.247,3.36,-4.33,-2.93,0,0
16330.906,-0.963,0.116,0.246,3.14,-4.49,-2.53,0,0
16330.921,-0.961,0.114,0.24,3.45,-4.43,-1.77,0,0
16330.921,-0.964,0.114,0.234,3.11,-4.24,-1.25,0,0
16330.937,-0.965,0.115,0.23,2.11,-4.27,-0.85,0,0
16330.953,-0.962,0.114,0.227,1.13,-4.27,-0.52,0,0
16330.968,-0.958,0.111,0.221,0.58,-4.15,-0.15,0,0
16330.968,-0.954,0.111,0.217,0.0,-3.88,0.0,0,0
16330.984,-0.951,0.114,0.212,-0.64,-3.23,0.27,0,0
16330.984,-0.951,0.116,0.207,-1.62,-2.5,0.89,0,0
16331.0,-0.952,0.121,0.205,-3.14,-2.01,1.77,0,0
16331.015,-0.953,0.109,0.209,-6.71,-1.37,2.96,0,0
16331.031,-0.953,0.103,0.212,-7.93,-1.5,3.17,0,0
16331.046,-0.952,0.099,0.209,-8.82,-1.34,3.39,0,0
16331.046,-0.95,0.102,0.205,-10.41,-1.37,3.51,0,0
16331.062,-0.947,0.1,0.201,-12.79,-1.04,3.54,0,0
16331.078,-0.944,0.095,0.198,-15.59,-0.43,3.42,0,0
16331.078,-0.941,0.101,0.196,-18.71,-0.03,3.39,0,0
16331.093,-0.937,0.102,0.196,-21.67,0.31,3.42,0,0
16331.109,-0.94,0.097,0.196,-24.32,0.79,3.78,0,0
16331.109,-0.936,0.104,0.197,-27.16,1.16,4.24,0,0
16331.125,-0.934,0.097,0.202,-30.0,1.37,4.33,0,0
16331.125,-0.939,0.094,0.209,-32.35,1.98,4.39,0,0
16331.14,-0.944,0.097,0.215,-34.03,2.81,4.61,0,0
16331.156,-0.948,0.102,0.217,-35.58,3.02,4.97,0,0
16331.171,-0.952,0.111,0.218,-38.39,2.72,5.34,0,0
16331.171,-0.956,0.121,0.217,-42.6,1.98,5.58,0,0
16331.187,-0.954,0.107,0.223,-49.87,1.65,6.62,0,0
16331.203,-0.953,0.097,0.231,-50.57,1.95,7.17,0,0
16331.218,-0.952,0.085,0.243,-47.7,2.5,7.39,0,0
16331.218,-0.953,0.08,0.245,-42.85,2.9,7.51,0,0
16331.234,-0.95,0.08,0.252,-37.32,3.11,6.99,0,0
16331.234,-0.95,0.084,0.268,-31.07,2.96,5.8,0,0
16331.25,-0.962,0.083,0.268,-23.8,2.72,5.25,0,0
16331.265,-0.968,0.092,0.256,-17.46,1.95,5.62,0,0
16331.281,-0.958,0.105,0.245,-13.52,1.07,6.01,0,0
16331.281,-0.964,0.093,0.248,-11.11,0.49,5.74,0,0
16331.296,-0.968,0.083,0.235,-9.16,-0.49,5.43,0,0
16331.296,-0.963,0.116,0.229,-8.94,-0.49,6.26,0,0
16331.312,-0.945,0.137,0.216,-10.68,-0.03,7.93,0,0
16331.312,-0.936,0.118,0.218,-15.41,-0.21,7.84,0,0
16331.328,-0.96,0.096,0.219,-18.31,0.31,6.62,0,0
16331.343,-0.961,0.097,0.227,-19.23,0.21,7.84,0,0
16331.359,-0.945,0.078,0.229,-15.84,-0.37,7.14,0,0
16331.375,-0.95,0.074,0.228,-12.48,0.34,6.1,0,0
16331.375,-0.953,0.083,0.231,-9.37,1.22,5.74,0,0
16331.39,-0.953,0.09,0.234,-7.35,1.04,5.4,0,0
16331.406,-0.954,0.091,0.235,-5.98,0.64,4.94,0,0
16331.406,-0.953,0.088,0.24,-4.58,0.0,4.94,0,0
16331.421,-0.95,0.079,0.232,-3.11,-0.73,5.37,0,0
16331.437,-0.94,0.055,0.243,-4.15,-3.36,1.53,0,0
16331.437,-0.944,0.025,0.242,-4.58,-3.63,-0.18,0,0
16331.453,-0.945,0.027,0.247,-3.3,-3.23,-0.85,0,0
16331.453,-0.946,0.028,0.243,-1.95,-2.44,-1.43,0,0
16331.468,-0.95,0.042,0.247,-1.16,-2.04,-2.08,0,0
16331.484,-0.954,0.057,0.252,-0.67,-1.86,-1.98,0,0
16331.484,-0.953,0.071,0.255,-0.27,-1.83,-1.31,0,0
16331.5,-0.953,0.078,0.256,-0.4,-1.74,-0.92,0,0
16331.515,-0.958,0.085,0.255,-1.1,-1.65,-0.55,0,0
16331.515,-0.961,0.09,0.256,-2.2,-1.89,-0.03,0,0
16331.531,-0.961,0.093,0.255,-3.27,-2.53,0.55,0,0
16331.546,-0.96,0.09,0.251,-3.81,-2.69,1.19,0,0
16331.546,-0.95,0.084,0.249,-3.54,-2.35,1.8,0,0
16331.562,-0.946,0.076,0.243,-2.23,-1.83,2.04,0,0
16331.578,-0.944,0.072,0.242,-1.19,-1.65,1.83,0,0
16331.578,-0.942,0.076,0.242,-1.01,-1.8,1.19,0,0
16331.593,-0.939,0.082,0.24,-1.25,-1.86,0.4,0,0
16331.593,-0.94,0.087,0.241,-1.19,-1.62,-0.43,0,0
16331.609,-0.937,0.089,0.242,-0.73,-1.4,-1.4,0,0
16331.625,-0.943,0.092,0.252,-0.12,-1.4,-2.41,0,0
16331.64,-0.946,0.094,0.255,0.73,-2.26,-2.99,0,0
16331.64,-0.944,0.1,0.255,1.04,-2.99,-2.96,0,0
16331.656,-0.945,0.102,0.257,1.65,-3.63,-2.84,0,0
16331.656,-0.946,0.1,0.25,2.38,-4.46,-2.75,0,0
16331.671,-0.943,0.104,0.242,3.14,-5.34,-2.47,0,0
16331.687,-0.941,0.106,0.236,4.24,-5.58,-2.41,0,0
16331.687,-0.944,0.109,0.234,5.43,-5.19,-2.04,0,0
16331.703,-0.945,0.112,0.232,6.38,-4.64,-1.43,0,0
16331.718,-0.947,0.11,0.224,6.44,-4.43,-1.07,0,0
16331.718,-0.946,0.106,0.225,5.49,-4.18,-1.01,0,0
16331.734,-0.946,0.103,0.225,4.91,-3.23,-1.13,0,0
16331.734,-0.947,0.105,0.23,4.33,-2.35,-1.28,0,0
16331.75,-0.948,0.112,0.233,3.69,-1.83,-1.16,0,0
16331.765,-0.951,0.12,0.236,3.14,-1.68,-0.85,0,0
16331.765,-0.952,0.125,0.237,2.35,-1.86,0.06,0,0
16331.781,-0.951,0.128,0.239,1.31,-2.14,1.16,0,0
16331.796,-0.949,0.117,0.244,0.61,-2.66,2.23,0,0
16331.796,-0.944,0.095,0.238,0.55,-3.2,3.05,0,0
16331.812,-0.94,0.084,0.236,1.04,-3.23,2.81,0,0
16331.828,-0.942,0.08,0.234,1.74,-2.41,2.04,0,0
16331.828,-0.945,0.086,0.231,2.35,-1.37,1.62,0,0
16331.843,-0.943,0.095,0.236,1.89,-0.61,1.28,0,0
16331.859,-0.947,0.1,0.238,0.52,-0.09,0.79,0,0
16331.859,-0.949,0.104,0.244,-1.1,-0.03,0.46,0,0
16331.875,-0.954,0.103,0.255,-1.98,-0.18,0.49,0,0
16331.875,-0.957,0.103,0.261,-1.74,-0.43,0.98,0,0
16331.89,-0.955,0.098,0.258,-0.89,-1.22,1.56,0,0
16331.906,-0.953,0.092,0.257,0.09,-1.92,1.98,0,0
16331.906,-0.947,0.087,0.252,1.13,-2.35,1.92,0,0
16331.921,-0.944,0.089,0.244,1.53,-2.56,1.46,0,0
16331.937,-0.945,0.093,0.24,1.1,-2.11,0.85,0,0
16331.937,-0.947,0.094,0.239,0.21,-1.46,0.82,0,0
16331.953,-0.946,0.096,0.241,-0.67,-1.01,0.92,0,0
16331.953,-0.946,0.098,0.253,-1.62,-0.24,1.01,0,0
16331.968,-0.948,0.095,0.261,-1.95,0.03,1.22,0,0
16331.984,-0.946,0.089,0.266,-1.83,-0.24,1.22,0,0
16332.0,-0.945,0.079,0.27,-1.83,-1.31,1.1,0,0
16332.0,-0.94,0.079,0.267,-1.53,-2.53,0.61,0,0
16332.015,-0.934,0.079,0.259,-0.67,-3.02,0.12,0,0
16332.015,-0.934,0.083,0.251,0.15,-3.17,-0.12,0,0
16332.031,-0.934,0.088,0.245,0.89,-3.05,-0.18,0,0
16332.046,-0.938,0.092,0.242,1.13,-2.66,-0.24,0,0
16332.046,-0.942,0.092,0.243,0.95,-2.23,-0.27,0,0
16332.062,-0.947,0.092,0.245,0.64,-1.98,0.0,0,0
16332.078,-0.949,0.093,0.246,0.64,-1.62,0.12,0,0
16332.078,-0.95,0.093,0.253,0.7,-1.16,0.0,0,0
16332.093,-0.956,0.093,0.254,0.61,-1.04,-0.18,0,0
16332.093,-0.948,0.091,0.255,0.12,-1.4,-0.15,0,0
16332.109,-0.946,0.09,0.254,-0.15,-1.95,-0.46,0,0
16332.125,-0.949,0.091,0.256,-0.34,-2.26,-0.98,0,0
16332.125,-0.949,0.085,0.261,0.0,-2.29,-1.01,0,0
16332.14,-0.942,0.084,0.253,0.85,-2.59,-0.82,0,0
16332.156,-0.94,0.091,0.249,1.1,-2.5,-1.34,0,0
16332.171,-0.946,0.096,0.25,1.43,-2.35,-2.04,0,0
16332.171,-0.951,0.101,0.249,1.62,-1.98,-1.92,0,0
16332.187,-0.951,0.106,0.247,1.86,-1.34,-1.59,0,0
16332.187,-0.951,0.106,0.255,2.17,-1.22,-1.31,0,0
16332.203,-0.95,0.108,0.257,3.08,-0.85,-0.95,0,0
16332.203,-0.953,0.109,0.26,4.0,-0.82,-0.37,0,0
16332.218,-0.952,0.106,0.258,4.52,-1.43,0.18,0,0
16332.234,-0.95,0.103,0.256,4.91,-2.41,0.49,0,0
16332.234,-0.945,0.098,0.247,4.94,-3.23,0.89,0,0
16332.25,-0.939,0.096,0.237,4.52,-3.6,1.19,0,0
16332.265,-0.938,0.094,0.234,4.36,-3.08,1.25,0,0
16332.265,-0.941,0.09,0.232,4.12,-2.01,1.1,0,0
16332.281,-0.941,0.093,0.237,3.36,-0.89,1.13,0,0
16332.296,-0.943,0.099,0.242,2.41,-0.06,1.19,0,0
16332.296,-0.943,0.097,0.247,1.19,0.03,1.16,0,0
16332.312,-0.945,0.093,0.252,-0.03,-0.09,0.92,0,0
16332.328,-0.944,0.092,0.253,-0.85,-0.31,1.07,0,0
16332.328,-0.942,0.09,0.25,-1.25,-0.55,1.5,0,0
16332.343,-0.943,0.088,0.248,-1.65,-0.73,1.25,0,0
16332.343,-0.943,0.085,0.249,-2.56,-0.64,0.82,0,0
16332.359,-0.944,0.085,0.246,-3.42,-0.7,0.58,0,0
16332.375,-0.941,0.084,0.248,-4.15,-0.7,0.34,0,0
16332.39,-0.94,0.089,0.246,-4.15,0.03,0.12,0,0
16332.39,-0.939,0.101,0.245,-4.15,1.46,0.37,0,0
16332.406,-0.941,0.112,0.248,-5.07,2.23,0.43,0,0
16332.406,-0.946,0.115,0.263,-8.39,2.32,0.37,0,0
16332.421,-0.955,0.114,0.28,-9.09,1.31,0.95,0,0
16332.437,-0.958,0.108,0.291,-8.55,-0.24,1.31,0,0
16332.437,-0.956,0.093,0.295,-7.45,-2.26,0.85,0,0
16332.453,-0.95,0.093,0.283,-6.32,-4.06,-0.34,0,0
16332.468,-0.952,0.104,0.271,-5.43,-5.01,-1.16,0,0
16332.468,-0.955,0.116,0.262,-5.07,-4.94,-1.19,0,0
16332.484,-0.958,0.125,0.266,-5.4,-4.03,-0.98,0,0
16332.484,-0.969,0.133,0.274,-6.2,-2.93,-0.64,0,0
16332.5,-0.973,0.136,0.288,-7.63,-3.08,0.0,0,0
16332.515,-0.976,0.14,0.3,-9.4,-4.18,0.82,0,0
16332.515,-0.976,0.135,0.308,-10.44,-5.89,2.17,0,0
16332.531,-0.971,0.114,0.309,-10.35,-8.55,3.6,0,0
16332.546,-0.963,0.1,0.299,-9.13,-11.41,4.33,0,0
16332.546,-0.956,0.089,0.279,-6.78,-13.18,4.52,0,0
16332.562,-0.946,0.068,0.257,-4.09,-13.64,4.49,0,0
16332.578,-0.931,0.064,0.235,-2.81,-12.51,3.88,0,0
16332.578,-0.919,0.065,0.234,-2.38,-10.47,2.35,0,0
16332.593,-0.927,0.062,0.231,-1.98,-8.18,0.46,0,0
16332.593,-0.925,0.074,0.229,-3.69,-6.84,-1.01,0,0
16332.609,-0.923,0.087,0.234,-6.5,-5.65,-2.53,0,0
16332.625,-0.933,0.085,0.244,-8.79,-4.15,-3.51,0,0
16332.625,-0.94,0.088,0.253,-9.95,-3.57,-3.69,0,0
16332.64,-0.943,0.087,0.26,-9.89,-3.85,-3.63,0,0
16332.656,-0.946,0.097,0.257,-10.01,-4.52,-3.66,0,0
16332.656,-0.943,0.095,0.256,-10.38,-5.04,-3.51,0,0
16332.671,-0.945,0.081,0.255,-9.98,-5.19,-3.6,0,0
16332.687,-0.942,0.078,0.254,-8.7,-4.55,-3.63,0,0
16332.687,-0.942,0.07,0.255,-6.13,-3.78,-3.54,0,0
16332.703,-0.938,0.06,0.258,-3.27,-3.27,-3.48,0,0
16332.718,-0.933,0.057,0.258,-1.22,-3.27,-4.24,0,0
16332.718,-0.93,0.063,0.248,-0.46,-3.54,-5.1,0,0
16332.734,-0.927,0.068,0.239,-0.73,-3.69,-5.74,0,0
16332.734,-0.922,0.07,0.234,-1.31,-3.42,-6.23,0,0
16332.75,-0.921,0.07,0.235,-1.71,-2.87,-6.62,0,0
16332.765,-0.921,0.071,0.243,-1.98,-2.2,-7.11,0,0
16332.765,-0.924,0.077,0.251,-2.14,-1.86,-7.57,0,0
16332.781,-0.93,0.08,0.254,-1.89,-1.59,-7.48,0,0
16332.796,-0.932,0.089,0.256,-1.77,-1.74,-7.2,0,0
16332.796,-0.932,0.097,0.261,-1.59,-2.35,-7.05,0,0
16332.812,-0.937,0.095,0.262,-0.92,-2.78,-6.41,0,0
16332.828,-0.943,0.099,0.261,0.4,-2.99,-5.31,0,0
16332.828,-0.946,0.102,0.262,2.17,-3.3,-4.52,0,0
16332.843,-0.952,0.101,0.256,3.72,-3.54,-3.78,0,0
16332.843,-0.948,0.093,0.257,4.67,-3.69,-3.2,0,0
16332.859,-0.941,0.085,0.257,5.25,-3.51,-3.23,0,0
16332.875,-0.942,0.084,0.257,5.68,-2.84,-3.57,0,0
16332.89,-0.941,0.094,0.259,5.8,-1.77,-3.91,0,0
16332.89,-0.94,0.107,0.257,5.43,-0.64,-3.94,0,0
16332.906,-0.937,0.12,0.26,4.61,0.0,-3.72,0,0
16332.906,-0.934,0.135,0.268,3.57,0.7,-2.78,0,0
16332.921,-0.935,0.148,0.277,2.9,1.4,-1.16,0,0
16332.937,-0.941,0.142,0.284,2.72,1.5,0.98,0,0
16332.937,-0.944,0.137,0.287,1.83,0.7,3.42,0,0
16332.953,-0.941,0.13,0.286,0.09,-0.55,5.4,0,0
16332.968,-0.935,0.113,0.283,-2.23,-1.8,6.99,0,0
16332.968,-0.931,0.092,0.285,-4.03,-2.41,8.24,0,0
16332.984,-0.928,0.077,0.282,-4.79,-2.29,8.79,0,0
16332.984,-0.934,0.064,0.285,-4.97,-1.92,8.79,0,0
16333.0,-0.937,0.047,0.286,-4.21,-1.71,8.79,0,0
16333.015,-0.933,0.039,0.289,-3.11,-1.28,8.73,0,0
16333.015,-0.93,0.033,0.295,-2.14,-0.37,8.06,0,0
16333.031,-0.931,0.023,0.3,-1.89,0.31,6.81,0,0
16333.046,-0.928,0.023,0.303,-2.38,0.67,5.01,0,0
16333.046,-0.929,0.037,0.304,-3.51,1.01,2.96,0,0
16333.062,-0.93,0.05,0.311,-4.73,1.22,1.34,0,0
16333.078,-0.938,0.061,0.317,-4.97,1.19,1.01,0,0
16333.078,-0.942,0.071,0.323,-4.36,0.73,1.31,0,0
16333.093,-0.943,0.074,0.323,-3.63,-0.21,1.59,0,0
16333.093,-0.946,0.076,0.32,-3.02,-1.28,2.11,0,0
16333.109,-0.948,0.073,0.315,-2.75,-2.44,2.78,0,0
16333.125,-0.942,0.065,0.311,-3.23,-3.27,3.17,0,0
16333.125,-0.937,0.057,0.307,-3.69,-3.69,3.23,0,0
16333.14,-0.932,0.048,0.305,-4.12,-3.75,2.96,0,0
16333.156,-0.928,0.042,0.304,-3.88,-3.54,2.38,0,0
16333.156,-0.928,0.044,0.303,-3.27,-3.05,1.74,0,0
16333.171,-0.927,0.048,0.301,-3.02,-3.08,0.82,0,0
16333.187,-0.933,0.057,0.3,-3.02,-3.02,-0.31,0,0
16333.187,-0.938,0.057,0.302,-2.99,-3.02,-0.73,0,0
16333.203,-0.934,0.064,0.302,-2.56,-3.17,-0.73,0,0
16333.203,-0.936,0.073,0.301,-1.86,-3.72,-1.07,0,0
16333.218,-0.942,0.078,0.298,-1.16,-4.33,-1.56,0,0
16333.234,-0.945,0.086,0.296,-0.43,-4.76,-1.34,0,0
16333.234,-0.943,0.09,0.29,0.12,-5.25,-0.76,0,0
16333.25,-0.944,0.09,0.282,0.18,-5.43,-0.85,0,0
16333.265,-0.942,0.092,0.28,-0.37,-5.1,-1.04,0,0
16333.265,-0.945,0.096,0.274,-1.43,-4.61,-1.19,0,0
16333.281,-0.944,0.095,0.276,-2.72,-4.18,-1.4,0,0
16333.296,-0.945,0.092,0.278,-3.23,-3.63,-1.28,0,0
16333.296,-0.946,0.097,0.278,-2.66,-3.17,-1.19,0,0
16333.312,-0.948,0.102,0.277,-1.95,-2.87,-1.1,0,0
16333.328,-0.949,0.107,0.272,-1.53,-2.69,-0.7,0,0
16333.328,-0.947,0.11,0.27,-2.26,-3.23,-0.43,0,0
16333.343,-0.947,0.117,0.265,-3.14,-3.08,-0.03,0,0
16333.343,-0.947,0.116,0.265,-3.63,-2.47,1.01,0,0
16333.359,-0.941,0.107,0.266,-3.91,-2.11,1.95,0,0
16333.375,-0.934,0.104,0.27,-4.33,-1.95,1.95,0,0
16333.375,-0.935,0.099,0.273,-4.46,-1.34,1.34,0,0
16333.39,-0.936,0.094,0.275,-3.85,-0.67,1.83,0,0
16333.406,-0.929,0.093,0.279,-3.6,-0.43,1.83,0,0
16333.421,-0.925,0.094,0.277,-4.03,-0.37,1.77,0,0
16333.421,-0.925,0.098,0.277,-4.46,-0.52,2.2,0,0
16333.437,-0.921,0.094,0.284,-4.39,-0.31,2.5,0,0
16333.437,-0.926,0.087,0.288,-3.57,-0.15,2.5,0,0
16333.453,-0.933,0.083,0.29,-2.9,-0.46,2.62,0,0
16333.453,-0.932,0.08,0.29,-2.26,-0.92,2.81,0,0
16333.468,-0.932,0.074,0.288,-1.56,-1.13,2.44,0,0
16333.484,-0.935,0.075,0.286,-1.07,-1.1,1.92,0,0
16333.484,-0.938,0.078,0.289,-0.55,-0.92,1.43,0,0
16333.5,-0.946,0.081,0.292,0.12,-0.82,1.13,0,0
16333.515,-0.949,0.083,0.291,0.73,-0.95,1.07,0,0
16333.515,-0.948,0.09,0.292,1.22,-1.19,1.16,0,0
16333.531,-0.951,0.095,0.289,1.59,-1.28,1.16,0,0
16333.546,-0.947,0.095,0.288,1.89,-1.31,1.46,0,0
16333.546,-0.939,0.1,0.285,2.14,-1.37,2.14,0,0
16333.562,-0.933,0.1,0.283,2.11,-1.56,2.53,0,0
16333.578,-0.936,0.095,0.281,1.62,-1.5,2.62,0,0
16333.578,-0.935,0.096,0.276,1.25,-1.53,3.14,0,0
16333.593,-0.929,0.092,0.276,1.25,-1.28,3.63,0,0
16333.593,-0.929,0.087,0.279,1.4,-0.7,3.75,0,0
16333.609,-0.938,0.087,0.284,1.59,-0.03,3.66,0,0
16333.625,-0.942,0.087,0.287,1.74,0.06,3.66,0,0
16333.64,-0.943,0.088,0.292,2.11,-0.21,3.69,0,0
16333.64,-0.938,0.088,0.286,2.5,-0.85,3.81,0,0
16333.656,-0.934,0.093,0.281,2.35,-1.01,4.3,0,0
16333.656,-0.937,0.093,0.28,1.8,-0.89,4.55,0,0
16333.671,-0.943,0.088,0.278,0.55,-1.89,4.3,0,0
16333.687,-0.936,0.077,0.276,-1.01,-2.99,3.51,0,0
16333.687,-0.937,0.078,0.267,-1.98,-3.3,1.89,0,0
16333.703,-0.944,0.079,0.267,-2.14,-2.66,0.43,0,0
16333.718,-0.955,0.087,0.283,-2.41,-2.29,0.34,0,0
16333.718,-0.952,0.108,0.288,-2.96,-3.66,1.46,0,0
16333.734,-0.957,0.119,0.301,-4.64,-5.8,2.41,0,0
16333.734,-0.957,0.111,0.297,-7.17,-8.45,3.14,0,0
16333.75,-0.939,0.124,0.299,-10.01,-9.31,4.88,0,0
16333.765,-0.929,0.107,0.298,-11.26,-9.46,5.13,0,0
16333.765,-0.928,0.115,0.296,-11.14,-7.54,5.22,0,0
16333.781,-0.921,0.106,0.29,-11.84,-5.58,5.86,0,0
16333.796,-0.909,0.095,0.296,-12.36,-2.56,5.37,0,0
16333.796,-0.903,0.088,0.303,-11.72,0.89,4.36,0,0
16333.812,-0.917,0.08,0.325,-10.13,3.17,3.42,0,0
16333.828,-0.922,0.076,0.336,-8.06,3.36,3.42,0,0
16333.828,-0.926,0.068,0.345,-5.77,2.17,3.23,0,0
16333.843,-0.93,0.063,0.346,-2.87,0.61,3.02,0,0
16333.843,-0.927,0.068,0.339,-0.27,-1.28,2.78,0,0
16333.859,-0.927,0.069,0.33,1.62,-2.47,2.17,0,0
16333.875,-0.926,0.075,0.32,1.77,-3.23,1.5,0,0
16333.875,-0.92,0.077,0.312,1.46,-3.3,1.07,0,0
16333.89,-0.919,0.083,0.305,1.16,-2.47,0.85,0,0
16333.906,-0.921,0.09,0.304,1.16,-1.28,0.27,0,0
16333.906,-0.924,0.092,0.303,1.34,-0.58,0.0,0,0
16333.921,-0.927,0.097,0.302,1.92,-0.46,-0.09,0,0
16333.937,-0.928,0.098,0.299,2.2,-0.58,-0.09,0,0
16333.937,-0.931,0.094,0.295,1.95,-1.07,0.0,0,0
16333.953,-0.926,0.089,0.294,0.92,-1.98,-0.18,0,0
16333.953,-0.923,0.086,0.296,-0.7,-2.59,-0.92,0,0
16333.968,-0.924,0.08,0.302,-1.89,-2.99,-1.92,0,0
16333.984,-0.928,0.081,0.305,-2.11,-2.9,-2.35,0,0
16334.0,-0.933,0.079,0.314,-1.74,-2.96,-2.59,0,0
16334.0,-0.931,0.081,0.312,-0.73,-3.85,-3.11,0,0
16334.015,-0.927,0.084,0.31,0.73,-4.61,-3.88,0,0
16334.015,-0.93,0.086,0.308,2.11,-5.19,-4.24,0,0
16334.031,-0.927,0.096,0.296,3.36,-5.1,-4.0,0,0
16334.046,-0.922,0.105,0.287,3.54,-4.49,-3.63,0,0
16334.046,-0.933,0.107,0.283,3.14,-3.17,-3.75,0,0
16334.062,-0.938,0.112,0.281,2.2,-1.83,-3.39,0,0
16334.078,-0.939,0.115,0.284,1.1,-0.64,-2.78,0,0
16334.078,-0.944,0.114,0.287,0.12,0.37,-2.35,0,0
16334.093,-0.946,0.106,0.293,-0.64,0.89,-2.17,0,0
16334.093,-0.947,0.106,0.296,-0.92,0.82,-1.86,0,0
16334.109,-0.944,0.106,0.295,-0.85,0.85,-1.46,0,0
16334.125,-0.944,0.109,0.295,-0.21,1.37,-1.22,0,0
16334.125,-0.943,0.108,0.296,0.61,1.56,-1.07,0,0
16334.14,-0.94,0.106,0.293,0.49,1.07,-0.89,0,0
16334.156,-0.934,0.103,0.294,-0.21,0.67,-0.76,0,0
16334.156,-0.928,0.095,0.294,-0.46,0.58,-0.7,0,0
16334.171,-0.925,0.087,0.292,-0.58,0.98,-0.55,0,0
16334.187,-0.923,0.084,0.29,-0.46,1.34,-0.27,0,0
16334.187,-0.923,0.088,0.289,-0.03,1.77,-0.61,0,0
16334.203,-0.926,0.089,0.294,0.31,1.71,-1.01,0,0
16334.203,-0.931,0.09,0.292,0.79,1.43,-1.13,0,0
16334.218,-0.932,0.1,0.292,1.31,1.59,-0.7,0,0
16334.234,-0.937,0.096,0.29,2.56,1.98,-0.27,0,0
16334.234,-0.94,0.104,0.282,3.91,2.44,0.58,0,0
16334.25,-0.938,0.106,0.291,4.49,2.81,1.4,0,0
16334.265,-0.939,0.11,0.284,5.52,3.33,2.38,0,0
16334.265,-0.942,0.109,0.295,5.89,3.97,4.18,0,0
16334.281,-0.933,0.101,0.275,6.84,4.03,5.52,0,0
16334.296,-0.922,0.116,0.269,5.13,3.2,5.71,0,0
16334.296,-0.933,0.085,0.276,4.27,2.08,3.85,0,0
16334.312,-0.937,0.091,0.271,4.03,1.68,2.29,0,0
16334.312,-0.93,0.108,0.267,3.75,2.08,2.29,0,0
16334.328,-0.93,0.117,0.264,3.6,3.42,2.32,0,0
16334.343,-0.927,0.117,0.264,3.63,5.34,2.72,0,0
16334.343,-0.929,0.114,0.276,2.53,6.29,2.96,0,0
16334.359,-0.928,0.111,0.282,1.4,5.92,2.29,0,0
16334.375,-0.933,0.108,0.291,0.52,5.43,1.56,0,0
16334.375,-0.931,0.11,0.298,-1.13,2.62,-0.06,0,0
16334.39,-0.935,0.115,0.299,-1.89,0.95,-0.76,0,0
16334.406,-0.938,0.109,0.3,-2.26,-0.43,-0.67,0,0
16334.406,-0.941,0.107,0.297,-1.01,-1.59,0.09,0,0
16334.421,-0.936,0.1,0.289,-0.27,-2.69,0.06,0,0
16334.437,-0.931,0.103,0.284,-1.1,-3.17,-0.52,0,0
16334.437,-0.925,0.099,0.28,-1.53,-2.53,-0.52,0,0
16334.453,-0.925,0.101,0.282,-0.98,-1.16,-0.31,0,0
16334.453,-0.927,0.102,0.287,-0.58,0.09,-0.37,0,0
16334.468,-0.931,0.104,0.293,-0.37,0.92,-0.55,0,0
16334.484,-0.937,0.105,0.297,-0.03,1.37,0.06,0,0
16334.484,-0.938,0.105,0.3,0.15,1.71,0.52,0,0
16334.5,-0.944,0.104,0.303,-0.18,2.08,0.95,0,0
16334.515,-0.943,0.103,0.305,-0.61,1.86,1.22,0,0
16334.531,-0.94,0.101,0.307,-1.22,0.73,1.37,0,0
16334.531,-0.938,0.097,0.309,-1.28,-0.31,1.19,0,0
16334.546,-0.936,0.091,0.305,-0.31,-0.98,1.28,0,0
16334.546,-0.936,0.091,0.298,1.1,-1.25,1.5,0,0
16334.562,-0.935,0.102,0.283,2.11,-0.92,1.62,0,0
16334.578,-0.934,0.11,0.271,1.89,-0.46,1.62,0,0
16334.578,-0.939,0.109,0.267,-0.09,-0.03,0.98,0,0
16334.593,-0.943,0.114,0.268,-3.17,0.06,0.49,0,0
16334.593,-0.941,0.111,0.269,-5.83,0.52,0.34,0,0
16334.609,-0.943,0.104,0.275,-7.48,1.22,0.73,0,0
16334.625,-0.943,0.093,0.284,-7.97,1.56,1.07,0,0
16334.625,-0.943,0.088,0.288,-7.54,1.8,1.34,0,0
16334.64,-0.943,0.086,0.295,-6.53,1.62,1.16,0,0
16334.656,-0.943,0.083,0.298,-6.07,0.37,0.43,0,0
16334.656,-0.941,0.084,0.299,-5.95,-0.64,-0.21,0,0
16334.671,-0.937,0.085,0.301,-4.82,-0.92,-0.49,0,0
16334.687,-0.937,0.089,0.297,-2.96,-0.92,-0.46,0,0
16334.687,-0.934,0.09,0.297,-1.37,-1.01,-0.43,0,0
16334.703,-0.934,0.092,0.297,-0.67,-1.07,-0.27,0,0
16334.703,-0.932,0.093,0.294,-0.21,-1.25,-0.06,0,0
16334.718,-0.932,0.092,0.293,0.15,-1.22,-0.34,0,0
16334.734,-0.931,0.092,0.296,0.34,-1.16,-0.64,0,0
16334.75,-0.934,0.091,0.298,0.49,-1.34,-0.76,0,0
16334.75,-0.936,0.093,0.297,0.7,-1.59,-0.82,0,0
16334.765,-0.934,0.094,0.293,1.22,-1.65,-0.67,0,0
16334.765,-0.933,0.092,0.29,2.04,-1.98,-0.37,0,0
16334.781,-0.933,0.096,0.283,2.41,-2.29,-0.73,0,0
16334.796,-0.938,0.096,0.28,2.17,-2.59,-1.19,0,0
16334.796,-0.939,0.095,0.277,1.5,-2.84,-1.59,0,0
16334.812,-0.936,0.103,0.274,0.85,-2.56,-1.77,0,0
16334.828,-0.937,0.105,0.272,0.76,-1.83,-1.8,0,0
16334.828,-0.944,0.107,0.274,0.4,-1.28,-1.74,0,0
16334.843,-0.943,0.104,0.276,-0.09,-1.19,-1.22,0,0
16334.843,-0.934,0.096,0.279,-0.18,-1.31,-0.95,0,0
16334.859,-0.931,0.093,0.278,0.4,-1.01,-1.19,0,0
16334.875,-0.932,0.093,0.278,1.5,-0.82,-1.1,0,0
16334.875,-0.931,0.093,0.277,2.2,-1.01,-1.25,0,0
16334.89,-0.93,0.092,0.273,2.11,-1.68,-1.8,0,0
16334.906,-0.929,0.089,0.267,1.71,-2.08,-2.32,0,0
16334.906,-0.928,0.094,0.26,1.19,-1.83,-2.56,0,0
16334.921,-0.926,0.1,0.26,0.18,-1.04,-2.93,0,0
16334.937,-0.93,0.104,0.258,-0.95,0.06,-3.2,0,0
16334.937,-0.93,0.11,0.261,-1.98,0.98,-3.05,0,0
16334.953,-0.934,0.105,0.266,-2.78,1.4,-2.93,0,0
16334.968,-0.934,0.108,0.269,-3.6,1.46,-2.66,0,0
16334.968,-0.936,0.106,0.271,-4.49,1.16,-2.44,0,0
16334.984,-0.945,0.104,0.269,-5.58,1.07,-2.2,0,0
16334.984,-0.946,0.107,0.269,-7.42,0.76,-1.59,0,0
16335.0,-0.941,0.104,0.27,-8.91,0.06,-1.31,0,0
16335.015,-0.939,0.104,0.276,-9.4,0.31,-1.04,0,0
16335.015,-0.938,0.1,0.281,-9.0,1.01,-0.85,0,0
16335.031,-0.935,0.088,0.296,-7.05,1.92,-0.27,0,0
16335.046,-0.934,0.083,0.293,-4.0,2.69,0.58,0,0
16335.046,-0.932,0.089,0.294,-1.22,3.23,1.22,0,0
16335.062,-0.934,0.085,0.292,1.13,2.78,0.64,0,0
16335.078,-0.945,0.099,0.286,3.05,2.23,0.4,0,0
16335.078,-0.941,0.103,0.276,4.3,2.26,1.5,0,0
16335.093,-0.932,0.104,0.272,3.45,1.65,0.82,0,0
16335.093,-0.945,0.098,0.28,1.28,1.13,-0.98,0,0
16335.109,-0.942,0.096,0.284,0.58,1.28,-0.64,0,0
16335.125,-0.937,0.093,0.286,1.37,1.28,-0.37,0,0
16335.125,-0.94,0.089,0.293,1.95,0.95,-0.85,0,0
16335.14,-0.946,0.091,0.294,2.99,0.4,-1.07,0,0
16335.156,-0.942,0.107,0.283,3.48,-0.43,-0.58,0,0
16335.156,-0.939,0.105,0.275,2.75,-0.58,-0.76,0,0
16335.171,-0.939,0.096,0.279,1.68,-0.4,-0.89,0,0
16335.187,-0.938,0.094,0.282,1.98,0.06,-0.79,0,0
16335.187,-0.937,0.095,0.285,2.53,0.15,-0.95,0,0
16335.203,-0.935,0.093,0.29,2.23,-0.18,-1.31,0,0
16335.218,-0.935,0.095,0.291,1.92,-0.76,-1.43,0,0
16335.218,-0.933,0.095,0.289,1.98,-1.34,-1.16,0,0
16335.234,-0.933,0.093,0.288,2.66,-1.5,-1.01,0,0
16335.234,-0.936,0.095,0.287,3.36,-1.8,-0.79,0,0
16335.25,-0.935,0.1,0.276,3.36,-2.2,-0.67,0,0
16335.265,-0.936,0.107,0.267,2.11,-2.29,-0.67,0,0
16335.281,-0.937,0.11,0.263,0.34,-1.65,-0.55,0,0
16335.281,-0.939,0.104,0.265,-1.13,-0.85,-0.46,0,0
16335.296,-0.943,0.102,0.269,-1.68,-0.24,-0.64,0,0
16335.296,-0.938,0.103,0.273,-1.25,0.09,-0.49,0,0
16335.312,-0.938,0.101,0.277,-0.4,0.06,-0.24,0,0
16335.328,-0.938,0.092,0.281,0.55,-0.27,-0.09,0,0
16335.328,-0.939,0.084,0.28,1.53,-0.98,-0.06,0,0
16335.343,-0.937,0.077,0.279,2.08,-1.71,-0.58,0,0
16335.359,-0.936,0.086,0.274,1.95,-1.62,-1.19,0,0
16335.359,-0.935,0.096,0.271,-0.82,-0.18,-1.62,0,0
16335.375,-0.94,0.097,0.273,-1.8,0.34,-1.37,0,0
16335.375,-0.941,0.103,0.275,-2.56,0.15,-0.92,0,0
16335.39,-0.946,0.101,0.273,-4.49,-0.09,-0.49,0,0
16335.406,-0.944,0.099,0.278,-6.47,-0.49,-0.21,0,0
16335.406,-0.942,0.088,0.279,-7.57,-0.79,0.15,0,0
16335.421,-0.941,0.087,0.285,-7.93,-1.1,0.15,0,0
16335.437,-0.939,0.083,0.289,-6.78,-1.4,-0.15,0,0
16335.437,-0.946,0.084,0.292,-5.1,-1.68,-0.4,0,0
16335.453,-0.951,0.08,0.294,-2.84,-2.04,-0.34,0,0
16335.453,-0.951,0.073,0.293,-0.58,-2.62,0.27,0,0
16335.468,-0.95,0.064,0.289,1.74,-3.17,0.89,0,0
16335.484,-0.946,0.064,0.281,3.27,-3.69,1.07,0,0
16335.484,-0.94,0.067,0.273,3.81,-3.69,0.55,0,0
16335.5,-0.936,0.07,0.266,3.23,-3.39,-0.12,0,0
16335.515,-0.934,0.078,0.266,1.95,-2.53,-0.67,0,0
16335.515,-0.934,0.087,0.265,0.55,-1.62,-0.61,0,0
16335.531,-0.938,0.09,0.268,-0.98,-1.22,-0.61,0,0
16335.546,-0.94,0.088,0.274,-1.95,-1.07,-0.18,0,0
16335.546,-0.937,0.087,0.279,-2.17,-1.28,0.67,0,0
16335.562,-0.936,0.077,0.281,-1.53,-1.89,0.7,0,0
16335.578,-0.934,0.073,0.281,-0.79,-2.56,0.43,0,0
16335.578,-0.934,0.078,0.283,0.24,-2.93,0.18,0,0
16335.593,-0.937,0.083,0.28,1.1,-3.48,-0.12,0,0
16335.593,-0.936,0.093,0.277,1.62,-4.06,-0.37,0,0
16335.609,-0.938,0.098,0.278,1.46,-4.49,-0.24,0,0
16335.625,-0.939,0.096,0.278,1.43,-4.64,0.09,0,0
16335.625,-0.937,0.094,0.281,2.01,-4.73,0.31,0,0
16335.64,-0.937,0.1,0.28,2.56,-4.61,0.58,0,0
16335.656,-0.936,0.099,0.281,3.02,-4.52,0.52,0,0
16335.656,-0.942,0.098,0.281,3.48,-4.55,0.55,0,0
16335.671,-0.937,0.108,0.27,3.42,-4.76,0.98,0,0
16335.671,-0.934,0.113,0.268,2.53,-4.43,0.67,0,0
16335.687,-0.941,0.111,0.263,1.34,-3.72,0.18,0,0
16335.703,-0.942,0.115,0.263,-0.18,-2.56,0.27,0,0
16335.718,-0.943,0.112,0.265,-1.5,-1.5,0.73,0,0
16335.718,-0.942,0.108,0.271,-3.05,-0.85,1.1,0,0
16335.734,-0.945,0.11,0.279,-3.88,-0.43,1.65,0,0
16335.734,-0.945,0.102,0.289,-3.97,-0.67,2.59,0,0
16335.75,-0.939,0.094,0.294,-3.54,-1.46,3.08,0,0
16335.765,-0.934,0.09,0.295,-2.93,-2.38,2.99,0,0
16335.765,-0.932,0.088,0.295,-1.89,-2.78,2.87,0,0
16335.781,-0.931,0.09,0.296,-0.37,-2.69,2.9,0,0
16335.796,-0.932,0.087,0.295,1.1,-2.81,2.93,0,0
16335.796,-0.928,0.093,0.288,2.26,-2.38,2.69,0,0
16335.812,-0.931,0.098,0.286,2.5,-1.89,2.72,0,0
16335.812,-0.93,0.084,0.288,1.46,-1.95,2.69,0,0
16335.828,-0.923,0.073,0.289,0.58,-2.35,2.11,0,0
16335.843,-0.921,0.07,0.291,0.64,-2.32,1.16,0,0
16335.859,-0.926,0.071,0.288,1.4,-1.74,0.24,0,0
16335.859,-0.932,0.076,0.285,2.14,-1.22,-0.58,0,0
16335.875,-0.938,0.088,0.286,2.14,-1.13,-1.43,0,0
16335.875,-0.942,0.096,0.284,1.25,-1.22,-1.8,0,0
16335.89,-0.94,0.095,0.285,0.06,-1.16,-1.8,0,0
16335.906,-0.942,0.092,0.287,-0.4,-0.98,-1.83,0,0
16335.906,-0.937,0.097,0.288,0.27,-0.76,-1.37,0,0
16335.921,-0.938,0.091,0.294,1.37,-0.85,-1.19,0,0
16335.937,-0.943,0.096,0.292,2.35,-0.92,-0.98,0,0
16335.937,-0.944,0.107,0.297,2.59,-1.34,-0.79,0,0
16335.953,-0.949,0.103,0.298,2.32,-2.14,-0.85,0,0
16335.968,-0.951,0.109,0.292,1.56,-2.99,-0.58,0,0
16335.968,-0.943,0.11,0.287,0.64,-3.94,-0.31,0,0
16335.984,-0.94,0.103,0.282,-0.46,-4.33,-0.4,0,0
16335.984,-0.936,0.098,0.278,-1.59,-4.3,-0.49,0,0
16336.0,-0.932,0.09,0.277,-1.86,-4.03,-0.52,0,0
16336.015,-0.928,0.085,0.28,-1.37,-3.48,-0.89,0,0
16336.031,-0.927,0.091,0.279,-0.34,-2.96,-1.5,0,0
16336.031,-0.933,0.099,0.279,0.64,-2.41,-1.74,0,0
16336.046,-0.936,0.108,0.281,1.22,-1.5,-1.19,0,0
16336.046,-0.937,0.119,0.285,1.28,-0.79,-0.46,0,0
16336.062,-0.944,0.12,0.288,0.55,-0.55,0.18,0,0
16336.062,-0.943,0.121,0.292,-0.89,-0.79,1.04,0,0
16336.078,-0.94,0.113,0.296,-1.83,-1.1,1.4,0,0
16336.093,-0.936,0.103,0.299,-2.32,-1.71,1.8,0,0
16336.109,-0.931,0.094,0.299,-2.26,-2.26,1.65,0,0
16336.109,-0.925,0.092,0.292,-1.77,-2.04,1.4,0,0
16336.125,-0.922,0.092,0.288,-1.16,-1.25,1.01,0,0
16336.125,-0.923,0.093,0.29,-0.89,-0.24,0.64,0,0
16336.14,-0.929,0.089,0.299,-0.79,0.52,0.46,0,0
16336.156,-0.931,0.088,0.3,-0.79,0.95,0.49,0,0
16336.156,-0.931,0.088,0.305,-0.64,1.01,0.12,0,0
16336.171,-0.935,0.083,0.31,0.09,0.85,-0.06,0,0
16336.187,-0.939,0.087,0.305,0.92,0.61,-0.12,0,0
16336.187,-0.938,0.094,0.301,0.85,0.09,-0.06,0,0
16336.203,-0.936,0.095,0.298,0.15,-0.73,-0.31,0,0
16336.203,-0.939,0.1,0.298,-0.82,-1.13,-0.61,0,0
16336.218,-0.945,0.098,0.303,-1.04,-1.28,-0.27,0,0
16336.234,-0.943,0.096,0.302,-0.58,-1.74,0.7,0,0
16336.234,-0.935,0.098,0.297,-0.37,-2.11,1.01,0,0
16336.25,-0.934,0.094,0.296,-0.67,-2.04,0.79,0,0
16336.265,-0.935,0.085,0.296,-0.61,-1.98,0.64,0,0
16336.265,-0.933,0.085,0.293,-0.18,-2.01,0.34,0,0
16336.281,-0.93,0.084,0.295,0.15,-1.8,-0.43,0,0
16336.296,-0.931,0.081,0.298,0.89,-1.43,-1.19,0,0
16336.296,-0.932,0.086,0.3,1.95,-1.34,-1.31,0,0
16336.312,-0.928,0.095,0.296,3.11,-1.59,-1.28,0,0
16336.328,-0.925,0.101,0.293,3.39,-2.14,-1.43,0,0
16336.328,-0.93,0.106,0.291,2.78,-2.41,-1.8,0,0
16336.343,-0.931,0.116,0.292,2.26,-2.81,-0.34,0,0
16336.343,-0.93,0.118,0.288,1.56,-3.2,0.03,0,0
16336.359,-0.93,0.117,0.284,0.82,-3.51,0.24,0,0
16336.375,-0.934,0.111,0.287,0.85,-3.42,0.82,0,0
16336.375,-0.932,0.098,0.282,1.22,-3.02,1.13,0,0
16336.39,-0.928,0.095,0.281,1.68,-2.5,0.61,0,0
16336.406,-0.933,0.099,0.282,1.74,-1.95,-0.34,0,0
16336.406,-0.938,0.105,0.282,1.65,-1.53,-1.1,0,0
16336.421,-0.938,0.114,0.287,1.43,-1.4,-1.04,0,0
16336.437,-0.94,0.118,0.291,1.74,-1.43,-0.85,0,0
16336.437,-0.941,0.12,0.294,2.56,-1.5,-0.43,0,0
16336.453,-0.941,0.12,0.295,4.39,-1.68,0.55,0,0
16336.468,-0.943,0.12,0.291,6.41,-2.04,1.5,0,0
16336.468,-0.941,0.118,0.29,7.84,-2.26,2.23,0,0
16336.484,-0.938,0.11,0.289,8.39,-2.41,2.72,0,0
16336.484,-0.931,0.11,0.28,7.93,-2.41,2.75,0,0
16336.5,-0.929,0.11,0.276,5.89,-2.14,2.44,0,0
16336.515,-0.929,0.107,0.278,3.14,-1.4,2.35,0,0
16336.515,-0.927,0.104,0.28,0.89,-0.64,2.93,0,0
16336.531,-0.927,0.097,0.286,-1.25,-0.4,2.99,0,0
16336.546,-0.928,0.09,0.295,-2.9,-0.64,2.41,0,0
16336.562,-0.928,0.085,0.298,-3.54,-0.82,2.17,0,0
16336.562,-0.931,0.075,0.304,-2.93,-0.95,2.11,0,0
16336.562,-0.931,0.069,0.308,-1.74,-0.95,1.86,0,0
16336.578,-0.93,0.071,0.305,0.12,-0.89,1.4,0,0
16336.593,-0.928,0.074,0.301,1.74,-0.92,0.82,0,0
16336.593,-0.929,0.08,0.3,2.96,-0.61,0.27,0,0
16336.609,-0.93,0.091,0.296,3.17,-0.31,-0.18,0,0
16336.625,-0.931,0.101,0.294,1.98,-0.24,-0.4,0,0
16336.64,-0.93,0.101,0.297,0.31,-0.67,-0.09,0,0
16336.64,-0.931,0.095,0.297,-1.01,-0.92,-0.03,0,0
16336.656,-0.935,0.091,0.296,-1.5,-0.82,-0.15,0,0
16336.656,-0.938,0.086,0.295,-1.5,-0.85,-0.31,0,0
16336.671,-0.936,0.086,0.295,-1.46,-0.49,-0.76,0,0
16336.687,-0.934,0.089,0.298,-1.19,-0.15,-1.59,0,0
16336.687,-0.935,0.094,0.301,-0.64,0.09,-2.04,0,0
16336.703,-0.937,0.106,0.302,0.18,0.15,-1.92,0,0
16336.703,-0.936,0.118,0.3,0.7,-0.15,-1.74,0,0
16336.718,-0.939,0.126,0.298,0.46,-0.76,-1.34,0,0
16336.734,-0.939,0.125,0.299,-0.98,-1.4,-0.46,0,0
16336.734,-0.935,0.113,0.295,-2.29,-1.86,0.27,0,0
16336.75,-0.932,0.103,0.294,-2.96,-1.74,0.4,0,0
16336.765,-0.935,0.095,0.298,-2.35,-1.31,0.06,0,0
16336.765,-0.932,0.093,0.293,-1.25,-0.7,0.03,0,0
16336.781,-0.928,0.098,0.292,-0.7,-0.31,-0.37,0,0
16336.796,-0.927,0.104,0.292,-0.46,0.12,-1.04,0,0
16336.796,-0.932,0.106,0.295,-0.55,0.7,-0.95,0,0
16336.812,-0.933,0.109,0.301,-0.76,0.52,-0.55,0,0
16336.828,-0.934,0.114,0.304,-1.19,-0.64,-0.43,0,0
16336.828,-0.938,0.111,0.304,-1.43,-1.46,-0.18,0,0
16336.843,-0.942,0.106,0.301,-1.1,-2.32,0.58,0,0
16336.859,-0.939,0.101,0.296,-0.7,-3.36,1.16,0,0
16336.859,-0.934,0.098,0.292,-0.73,-3.6,0.98,0,0
16336.875,-0.931,0.094,0.288,-1.13,-2.93,0.43,0,0
