timestamp,ax,ay,az,gx,gy,gz,orient_label,motion_label
17144.593,-0.925,0.192,0.222,0.7,-1.89,1.59,2,1
17144.593,-0.932,0.189,0.218,0.27,-2.04,1.83,2,1
17144.609,-0.936,0.178,0.219,-0.64,-2.01,1.62,2,1
17144.625,-0.935,0.173,0.223,-0.7,-1.62,1.01,2,1
17144.625,-0.938,0.177,0.224,-0.27,-1.25,0.24,2,1
17144.64,-0.942,0.181,0.229,-0.4,-1.22,0.12,2,1
17144.656,-0.943,0.18,0.236,-0.79,-1.46,0.37,2,1
17144.671,-0.946,0.175,0.241,-0.67,-1.98,0.76,2,1
17144.671,-0.943,0.173,0.241,0.06,-2.32,0.67,2,1
17144.687,-0.934,0.174,0.238,0.34,-2.69,0.64,2,1
17144.687,-0.926,0.178,0.236,-0.03,-3.45,1.19,2,1
17144.703,-0.928,0.166,0.23,-0.12,-3.97,1.74,2,1
17144.703,-0.931,0.162,0.218,0.55,-3.78,1.28,2,1
17144.718,-0.937,0.16,0.212,0.31,-3.05,-0.43,2,1
17144.734,-0.942,0.157,0.216,-0.76,-2.38,-2.93,2,1
17144.75,-0.947,0.16,0.226,-1.19,-2.11,-5.16,2,1
17144.75,-0.945,0.165,0.228,-0.98,-2.38,-6.35,2,1
17144.765,-0.941,0.175,0.236,-1.1,-3.11,-4.09,2,1
17144.781,-0.94,0.177,0.232,-0.52,-3.33,-2.96,2,1
17144.796,-0.959,0.181,0.228,0.09,-2.84,-1.92,2,1
17144.796,-0.969,0.175,0.226,0.24,-2.04,-0.79,2,1
17144.812,-0.956,0.174,0.233,0.43,-1.16,0.76,2,1
17144.812,-0.944,0.166,0.242,1.4,-0.46,2.53,2,1
17144.828,-0.946,0.16,0.243,2.44,-0.34,3.91,2,1
17144.843,-0.945,0.169,0.24,2.96,-0.82,4.49,2,1
17144.843,-0.937,0.172,0.236,2.5,-1.83,4.09,2,1
17144.859,-0.937,0.166,0.234,1.56,-2.62,2.75,2,1
17144.875,-0.936,0.169,0.227,0.7,-3.14,0.55,2,1
17144.875,-0.938,0.167,0.222,-0.4,-3.54,-1.5,2,1
17144.89,-0.94,0.161,0.23,-1.74,-3.57,-2.53,2,1
17144.906,-0.939,0.158,0.232,-2.01,-3.45,-3.45,2,1
17144.906,-0.937,0.172,0.23,-1.37,-3.63,-3.69,2,1
17144.921,-0.934,0.186,0.23,-2.59,-4.55,-1.83,2,1
17144.937,-0.941,0.18,0.231,-2.11,-4.61,0.76,2,1
17144.953,-0.943,0.173,0.229,-1.25,-3.57,2.81,2,1
17144.968,-0.942,0.158,0.239,0.15,-2.72,4.67,2,1
17144.968,-0.942,0.15,0.239,1.5,-2.38,5.77,2,1
17144.984,-0.941,0.142,0.229,2.04,-2.72,5.86,2,1
17144.984,-0.942,0.145,0.22,1.34,-3.02,4.49,2,1
17145.0,-0.945,0.141,0.223,-0.03,-2.96,2.17,2,1
17145.015,-0.944,0.135,0.231,-0.52,-2.84,0.46,2,1
17145.015,-0.948,0.128,0.238,0.52,-2.62,0.82,2,1
17145.031,-0.953,0.114,0.239,2.93,-2.23,3.23,2,1
17145.046,-0.953,0.11,0.233,6.1,-2.2,5.98,2,1
17145.046,-0.95,0.124,0.219,8.76,-3.45,7.45,2,1
17145.062,-0.926,0.14,0.207,9.22,-5.19,7.14,2,1
17145.078,-0.909,0.148,0.202,8.48,-5.74,5.04,2,1
17145.078,-0.918,0.158,0.2,7.17,-5.71,1.71,2,1
17145.093,-0.926,0.178,0.196,5.43,-6.44,-2.26,2,1
17145.109,-0.962,0.193,0.192,1.53,-10.13,-10.56,2,1
17145.125,-0.97,0.207,0.209,-0.61,-11.75,-13.03,2,1
17145.125,-0.969,0.208,0.22,-2.14,-13.09,-12.7,2,1
17145.14,-0.961,0.214,0.225,-1.22,-13.34,-9.43,2,1
17145.156,-0.952,0.231,0.222,0.73,-12.57,-4.43,2,1
17145.171,-0.935,0.238,0.229,1.65,-10.47,1.71,2,1
17145.171,-0.931,0.251,0.233,2.93,-7.23,6.96,2,1
17145.187,-0.936,0.252,0.237,3.66,-4.82,11.02,2,1
17145.187,-0.944,0.24,0.241,3.14,-3.94,14.4,2,1
17145.203,-0.951,0.223,0.24,2.56,-3.54,16.39,2,1
17145.218,-0.954,0.201,0.245,1.53,-2.99,17.03,2,1
17145.218,-0.952,0.181,0.254,0.98,-2.26,15.81,2,1
17145.234,-0.956,0.175,0.261,1.28,-2.08,13.18,2,1
17145.234,-0.954,0.178,0.263,0.55,-3.17,9.61,2,1
17145.25,-0.936,0.183,0.27,-0.98,-5.04,5.74,2,1
17145.265,-0.925,0.188,0.273,-2.41,-7.17,2.11,2,1
17145.281,-0.962,0.18,0.267,-4.06,-10.04,-3.97,2,1
17145.296,-0.981,0.163,0.264,-3.81,-11.08,-5.25,2,1
17145.296,-0.986,0.171,0.261,-2.53,-11.47,-6.01,2,1
17145.312,-0.96,0.185,0.26,-2.23,-11.29,-6.59,2,1
17145.328,-0.934,0.192,0.269,-2.38,-10.28,-6.9,2,1
17145.328,-0.912,0.206,0.277,-1.71,-8.94,-6.44,2,1
17145.343,-0.912,0.218,0.285,-1.1,-7.63,-5.28,2,1
17145.359,-0.932,0.211,0.294,-1.31,-6.93,-3.57,2,1
17145.359,-0.946,0.194,0.297,-1.01,-7.26,-0.76,2,1
17145.375,-0.951,0.185,0.295,0.09,-8.12,1.37,2,1
17145.375,-0.957,0.184,0.292,0.55,-8.85,1.95,2,1
17145.39,-0.94,0.183,0.294,0.03,-9.31,1.98,2,1
17145.406,-0.921,0.187,0.291,-0.34,-9.89,1.31,2,1
17145.406,-0.913,0.195,0.286,-1.04,-10.22,0.31,2,1
17145.421,-0.905,0.202,0.278,-2.32,-10.8,-0.18,2,1
17145.437,-0.902,0.192,0.275,-3.17,-11.69,-0.55,2,1
17145.453,-0.911,0.202,0.259,-2.84,-11.78,-2.08,2,1
17145.468,-0.919,0.206,0.266,-3.08,-10.77,-3.36,2,1
17145.468,-0.926,0.212,0.274,-3.91,-10.07,-4.85,2,1
17145.484,-0.939,0.211,0.282,-4.79,-9.77,-5.34,2,1
17145.484,-0.945,0.204,0.287,-5.01,-10.04,-3.91,2,1
17145.5,-0.935,0.194,0.288,-4.18,-10.13,-0.82,2,1
17145.515,-0.92,0.19,0.285,-2.2,-10.04,2.23,2,1
17145.515,-0.904,0.2,0.273,-0.46,-9.58,4.55,2,1
17145.531,-0.894,0.207,0.268,-0.24,-8.61,6.2,2,1
17145.546,-0.898,0.201,0.27,-0.52,-7.57,6.01,2,1
17145.546,-0.907,0.194,0.271,-0.73,-6.78,3.69,2,1
17145.562,-0.904,0.2,0.282,-1.53,-5.8,0.79,2,1
17145.578,-0.901,0.207,0.298,-2.53,-4.61,-2.08,2,1
17145.578,-0.898,0.208,0.319,-3.27,-3.85,-4.0,2,1
17145.593,-0.898,0.215,0.338,-4.03,-4.09,-4.79,2,1
17145.593,-0.91,0.214,0.353,-5.01,-4.88,-5.22,2,1
17145.625,-0.918,0.185,0.358,-7.23,-6.99,-4.43,2,1
17145.64,-0.91,0.161,0.356,-7.32,-7.08,-3.36,2,1
17145.64,-0.896,0.144,0.356,-5.83,-6.07,-2.44,2,1
17145.656,-0.888,0.141,0.35,-4.52,-4.58,-2.59,2,1
17145.656,-0.878,0.138,0.355,-4.82,-3.54,-3.66,2,1
17145.671,-0.872,0.142,0.364,-5.83,-3.23,-5.28,2,1
17145.687,-0.878,0.139,0.37,-7.2,-3.51,-6.87,2,1
17145.687,-0.89,0.136,0.369,-8.36,-3.66,-8.3,2,1
17145.703,-0.918,0.141,0.365,-9.06,-3.91,-10.38,2,1
17145.718,-0.935,0.146,0.36,-10.25,-4.67,-12.21,2,1
17145.718,-0.921,0.161,0.362,-11.72,-5.52,-13.73,2,1
17145.734,-0.913,0.168,0.363,-13.25,-5.52,-15.08,2,1
17145.734,-0.914,0.167,0.371,-14.56,-5.49,-14.47,2,1
17145.75,-0.918,0.165,0.379,-14.83,-5.4,-11.96,2,1
17145.765,-0.929,0.131,0.393,-13.82,-4.7,-6.16,2,1
17145.765,-0.919,0.107,0.397,-10.16,-3.57,2.66,2,1
17145.796,-0.893,0.065,0.382,2.44,1.34,18.8,2,1
17145.796,-0.878,0.078,0.371,7.08,3.72,22.1,2,1
17145.812,-0.867,0.101,0.368,7.81,5.1,20.91,2,1
17145.828,-0.873,0.085,0.382,7.17,5.43,17.03,2,1
17145.828,-0.884,0.077,0.39,8.36,4.18,12.94,2,1
17145.843,-0.884,0.092,0.385,10.38,1.43,9.19,2,1
17145.859,-0.872,0.105,0.371,11.6,-2.69,6.2,2,1
17145.859,-0.856,0.122,0.34,13.06,-6.71,3.6,2,1
17145.875,-0.854,0.149,0.305,14.37,-9.22,0.37,2,1
17145.875,-0.862,0.183,0.28,14.16,-9.16,-4.82,2,1
17145.89,-0.878,0.216,0.277,12.79,-6.68,-12.09,2,1
17145.906,-0.899,0.244,0.294,10.62,-3.69,-19.56,2,1
17145.906,-0.923,0.267,0.327,6.01,-2.38,-26.49,2,1
17145.921,-0.937,0.296,0.352,3.94,-4.79,-24.78,2,1
17145.937,-0.959,0.314,0.355,1.25,-8.79,-19.99,2,1
17145.937,-0.973,0.312,0.308,-1.25,-12.12,-13.58,2,1
17145.968,-0.948,0.254,0.259,-5.92,-12.15,1.53,2,1
17145.968,-0.915,0.214,0.254,-4.27,-8.48,9.49,2,1
17145.984,-0.903,0.179,0.249,-1.34,-2.93,16.14,2,1
17145.984,-0.902,0.161,0.26,0.61,2.81,20.63,2,1
17146.0,-0.902,0.146,0.282,1.37,7.35,23.1,2,1
17146.015,-0.901,0.129,0.31,1.4,9.58,23.32,2,1
17146.015,-0.898,0.114,0.337,0.73,9.19,22.19,2,1
17146.031,-0.888,0.105,0.356,0.21,6.56,20.23,2,1
17146.046,-0.875,0.102,0.362,0.31,3.17,16.97,2,1
17146.046,-0.865,0.102,0.356,0.03,-0.12,12.7,2,1
17146.062,-0.856,0.103,0.346,-0.43,-3.02,8.12,2,1
17146.078,-0.84,0.105,0.329,-0.61,-5.8,4.09,2,1
17146.078,-0.816,0.12,0.305,-0.52,-7.81,0.82,2,1
17146.093,-0.803,0.132,0.276,-0.52,-8.61,-2.72,2,1
17146.109,-0.795,0.14,0.254,-0.76,-7.81,-5.58,2,1
17146.109,-0.797,0.157,0.241,-0.67,-5.65,-8.21,2,1
17146.125,-0.821,0.174,0.256,-0.55,0.85,-11.02,2,1
17146.14,-0.835,0.183,0.274,0.27,3.27,-9.98,2,1
17146.156,-0.854,0.193,0.282,1.5,4.55,-7.45,2,1
17146.156,-0.869,0.2,0.286,2.14,4.76,-2.93,2,1
17146.171,-0.884,0.198,0.282,3.3,4.64,1.34,2,1
17146.187,-0.897,0.201,0.267,4.76,4.55,3.94,2,1
17146.187,-0.903,0.203,0.254,5.49,4.91,4.76,2,1
17146.203,-0.906,0.203,0.247,4.88,5.68,3.85,2,1
17146.203,-0.912,0.196,0.248,4.09,6.65,2.26,2,1
17146.218,-0.919,0.21,0.256,3.57,7.54,0.18,2,1
17146.234,-0.939,0.222,0.264,2.44,7.87,-2.17,2,1
17146.234,-0.963,0.224,0.277,0.4,6.71,-4.33,2,1
17146.25,-0.976,0.225,0.285,-1.28,4.43,-6.29,2,1
17146.265,-0.986,0.23,0.286,-2.87,1.68,-7.66,2,1
17146.265,-0.992,0.226,0.285,-4.24,-0.61,-7.75,2,1
17146.281,-0.991,0.213,0.286,-4.94,-1.62,-6.01,2,1
17146.296,-0.987,0.207,0.283,-4.82,-1.4,-3.42,2,1
17146.296,-0.979,0.206,0.285,-4.09,-0.55,-0.34,2,1
17146.312,-0.977,0.195,0.286,-3.14,0.79,2.56,2,1
17146.328,-0.968,0.182,0.287,-3.02,2.2,4.76,2,1
17146.328,-0.964,0.166,0.302,-2.66,3.91,5.83,2,1
17146.343,-0.983,0.145,0.32,-1.8,5.55,5.49,2,1
17146.359,-0.986,0.136,0.334,-1.07,5.86,4.79,2,1
17146.359,-0.983,0.134,0.352,-0.7,5.04,3.39,2,1
17146.375,-0.978,0.13,0.365,-0.55,3.45,1.68,2,1
17146.375,-0.984,0.135,0.364,-0.15,1.04,-0.55,2,1
17146.39,-0.989,0.139,0.361,-0.95,-2.14,-2.66,2,1
17146.406,-0.988,0.146,0.348,-2.11,-5.71,-5.07,2,1
17146.406,-0.981,0.154,0.332,-3.02,-7.93,-7.63,2,1
17146.421,-0.977,0.151,0.326,-3.94,-8.85,-8.36,2,1
17146.437,-0.962,0.159,0.325,-3.05,-8.85,-7.35,2,1
17146.437,-0.952,0.172,0.32,-1.16,-7.87,-5.71,2,1
17146.453,-0.959,0.175,0.316,-0.03,-6.59,-3.66,2,1
17146.453,-0.955,0.172,0.318,0.4,-5.58,-0.82,2,1
17146.468,-0.949,0.172,0.324,1.5,-5.01,1.56,2,1
17146.484,-0.944,0.178,0.324,2.14,-4.73,2.81,2,1
17146.484,-0.934,0.167,0.326,1.62,-4.88,3.85,2,1
17146.5,-0.924,0.153,0.333,1.89,-4.91,4.67,2,1
17146.515,-0.92,0.151,0.329,2.53,-5.43,4.58,2,1
17146.515,-0.916,0.152,0.32,2.47,-6.5,3.97,2,1
17146.531,-0.903,0.157,0.313,1.95,-7.11,3.33,2,1
17146.546,-0.89,0.156,0.306,0.95,-7.17,2.62,2,1
17146.562,-0.886,0.152,0.306,0.43,-6.96,1.5,2,1
17146.562,-0.884,0.158,0.305,0.92,-6.59,0.89,2,1
17146.578,-0.883,0.162,0.303,1.5,-5.65,1.13,2,1
17146.578,-0.882,0.161,0.307,2.32,-4.39,2.23,2,1
17146.593,-0.882,0.163,0.308,3.88,-3.27,3.6,2,1
17146.593,-0.873,0.166,0.305,5.34,-3.48,4.7,2,1
17146.609,-0.867,0.179,0.296,6.23,-3.72,4.3,2,1
17146.625,-0.876,0.178,0.286,5.46,-4.09,2.53,2,1
17146.625,-0.885,0.169,0.286,4.73,-4.76,-0.21,2,1
17146.64,-0.906,0.178,0.288,4.7,-4.73,-4.33,2,1
17146.656,-0.94,0.192,0.289,3.39,-4.58,-8.79,2,1
17146.656,-0.964,0.202,0.3,1.43,-5.01,-12.3,2,1
17146.671,-0.979,0.21,0.315,0.12,-5.77,-14.31,2,1
17146.687,-0.976,0.207,0.327,0.64,-6.68,-13.95,2,1
17146.687,-0.971,0.215,0.338,2.93,-7.11,-10.96,2,1
17146.703,-0.966,0.229,0.317,5.34,-7.11,-6.53,2,1
17146.703,-0.951,0.228,0.314,5.46,-6.59,-0.76,2,1
17146.718,-0.93,0.209,0.326,4.85,-5.74,4.06,2,1
17146.734,-0.916,0.194,0.329,4.85,-4.88,6.07,2,1
17146.734,-0.909,0.193,0.327,4.97,-4.0,6.5,2,1
17146.75,-0.902,0.195,0.332,3.66,-3.42,6.5,2,1
17146.765,-0.905,0.185,0.344,1.46,-3.42,5.77,2,1
17146.765,-0.906,0.172,0.357,0.06,-4.0,4.7,2,1
17146.781,-0.897,0.167,0.361,-0.52,-5.01,3.75,2,1
17146.796,-0.892,0.159,0.361,-0.76,-6.41,2.75,2,1
17146.796,-0.881,0.157,0.355,-0.73,-7.54,1.86,2,1
17146.812,-0.867,0.161,0.348,-0.58,-7.93,1.01,2,1
17146.828,-0.867,0.163,0.348,-0.58,-7.63,-0.03,2,1
17146.828,-0.868,0.165,0.345,-0.73,-7.72,-1.04,2,1
17146.843,-0.864,0.168,0.342,-0.95,-7.81,-2.41,2,1
17146.843,-0.863,0.175,0.339,-1.31,-7.75,-4.09,2,1
17146.859,-0.869,0.178,0.34,-1.68,-7.57,-5.43,2,1
17146.875,-0.868,0.179,0.34,-1.8,-7.51,-6.35,2,1
17146.875,-0.869,0.176,0.338,-1.65,-7.08,-6.23,2,1
17146.89,-0.867,0.178,0.334,-1.4,-5.25,-2.62,2,1
17146.906,-0.865,0.184,0.334,-0.82,-3.42,-0.37,2,1
17146.921,-0.867,0.182,0.334,-0.03,-1.71,2.2,2,1
17146.921,-0.867,0.183,0.339,0.95,0.15,4.52,2,1
17146.921,-0.876,0.183,0.351,1.89,1.71,6.53,2,1
17146.937,-0.878,0.178,0.356,2.41,2.44,8.06,2,1
17146.953,-0.883,0.175,0.357,2.81,2.66,8.82,2,1
17146.968,-0.887,0.173,0.355,2.41,2.08,8.67,2,1
17146.968,-0.889,0.166,0.354,1.31,1.13,8.24,2,1
17147.0,-0.89,0.16,0.35,0.27,0.15,5.34,2,1
17147.0,-0.891,0.16,0.354,0.03,0.0,3.57,2,1
17147.015,-0.894,0.164,0.355,-0.27,-0.27,2.23,2,1
17147.015,-0.897,0.167,0.351,-0.4,-0.7,1.13,2,1
17147.031,-0.89,0.167,0.352,-0.82,-1.04,0.43,2,1
17147.046,-0.89,0.16,0.349,-0.82,-1.4,0.0,2,1
17147.046,-0.893,0.162,0.346,-0.52,-1.46,-0.27,2,1
17147.062,-0.893,0.162,0.345,-0.18,-1.19,-0.61,2,1
17147.078,-0.896,0.155,0.347,0.0,-0.82,-1.25,2,1
17147.078,-0.899,0.155,0.346,0.37,-0.76,-1.83,2,1
17147.093,-0.907,0.161,0.347,0.95,-0.85,-2.5,2,1
17147.093,-0.914,0.161,0.349,1.28,-1.07,-3.45,2,1
17147.109,-0.912,0.171,0.351,1.4,-1.22,-4.58,2,1
17147.125,-0.913,0.182,0.355,1.25,-1.31,-5.49,2,1
17147.125,-0.908,0.187,0.356,1.04,-1.74,-5.83,2,1
17147.14,-0.9,0.196,0.352,1.43,-2.35,-5.19,2,1
17147.156,-0.88,0.197,0.337,2.26,-3.14,-1.86,2,1
17147.171,-0.872,0.194,0.325,3.11,-2.47,-0.46,2,1
17147.187,-0.875,0.196,0.316,3.3,-1.04,0.4,2,1
17147.187,-0.88,0.195,0.316,3.02,0.31,0.67,2,1
17147.203,-0.885,0.194,0.314,2.84,1.31,0.52,2,1
17147.218,-0.888,0.194,0.31,2.66,1.65,0.4,2,1
17147.218,-0.89,0.197,0.302,2.11,1.4,0.76,2,1
17147.234,-0.895,0.194,0.293,1.77,0.89,1.07,2,1
17147.234,-0.901,0.188,0.287,1.56,0.92,1.22,2,1
17147.25,-0.905,0.184,0.284,1.53,1.28,1.01,2,1
17147.265,-0.909,0.177,0.281,1.46,1.8,0.52,2,1
17147.265,-0.918,0.176,0.288,1.25,2.66,-0.58,2,1
17147.281,-0.933,0.174,0.291,0.64,3.02,-2.26,2,1
17147.296,-0.944,0.172,0.3,-0.03,3.45,-4.06,2,1
17147.296,-0.948,0.179,0.311,-0.95,3.42,-5.34,2,1
17147.312,-0.949,0.168,0.322,-2.53,3.51,-5.74,2,1
17147.328,-0.945,0.133,0.353,-1.28,3.78,-3.27,2,1
17147.343,-0.938,0.129,0.362,0.55,3.72,-1.68,2,1
17147.343,-0.938,0.118,0.368,1.77,3.27,-1.01,2,1
17147.359,-0.931,0.119,0.367,2.72,1.92,-0.82,2,1
17147.375,-0.919,0.126,0.363,2.41,0.58,-1.77,2,1
17147.375,-0.917,0.121,0.365,1.07,-0.4,-4.12,2,1
17147.39,-0.927,0.12,0.37,0.27,-1.25,-7.84,2,1
17147.406,-0.932,0.127,0.369,-0.43,-2.32,-11.69,2,1
17147.406,-0.938,0.137,0.371,-1.34,-3.39,-14.77,2,1
17147.421,-0.943,0.145,0.375,-2.17,-4.49,-16.42,2,1
17147.437,-0.944,0.149,0.377,-2.53,-5.52,-16.17,2,1
17147.437,-0.938,0.148,0.376,-1.74,-6.47,-14.68,2,1
17147.453,-0.93,0.151,0.369,-0.27,-6.84,-12.67,2,1
17147.453,-0.928,0.158,0.359,0.98,-6.5,-10.71,2,1
17147.468,-0.93,0.163,0.361,1.53,-5.37,-8.82,2,1
17147.484,-0.931,0.163,0.367,1.83,-4.09,-7.66,2,1
17147.5,-0.93,0.168,0.378,2.14,-3.11,-7.48,2,1
17147.5,-0.93,0.182,0.385,2.01,-3.45,-7.57,2,1
17147.515,-0.919,0.188,0.382,0.89,-4.88,-6.71,2,1
17147.515,-0.907,0.187,0.375,-0.37,-6.56,-4.97,2,1
17147.531,-0.897,0.174,0.366,-0.73,-7.9,-2.99,2,1
17147.546,-0.887,0.167,0.349,0.21,-8.51,-0.73,2,1
17147.546,-0.878,0.168,0.328,1.5,-8.12,1.5,2,1
17147.562,-0.87,0.167,0.316,1.74,-7.14,3.08,2,1
17147.578,-0.864,0.169,0.311,1.46,-5.55,3.88,2,1
17147.578,-0.86,0.178,0.309,0.95,-3.6,3.6,2,1
17147.593,-0.861,0.177,0.318,-0.09,-1.83,2.84,2,1
17147.593,-0.869,0.178,0.333,-1.01,-0.55,1.16,2,1
17147.609,-0.883,0.175,0.348,-1.34,0.18,-0.73,2,1
17147.625,-0.892,0.172,0.36,-1.16,0.06,-1.1,2,1
17147.625,-0.896,0.167,0.367,-0.43,-0.58,-0.15,2,1
17147.64,-0.897,0.164,0.366,1.04,-2.14,1.37,2,1
17147.656,-0.891,0.176,0.349,2.2,-4.03,2.78,2,1
17147.656,-0.879,0.189,0.326,1.83,-5.43,3.27,2,1
17147.671,-0.872,0.195,0.31,-0.09,-5.68,2.96,2,1
17147.687,-0.865,0.191,0.31,-1.86,-4.52,2.17,2,1
17147.687,-0.867,0.191,0.317,-1.92,-2.04,1.59,2,1
17147.703,-0.878,0.193,0.329,-0.89,0.95,1.25,2,1
17147.718,-0.894,0.194,0.346,0.21,3.27,1.74,2,1
17147.718,-0.906,0.203,0.361,1.07,3.51,2.9,2,1
17147.734,-0.909,0.211,0.36,1.22,1.92,4.33,2,1
17147.734,-0.91,0.215,0.348,0.21,-0.55,5.8,2,1
17147.75,-0.902,0.213,0.332,-1.16,-3.14,6.78,2,1
17147.765,-0.905,0.202,0.317,-2.35,-4.43,6.84,2,1
17147.765,-0.908,0.19,0.305,-3.2,-4.18,5.8,2,1
17147.781,-0.91,0.189,0.299,-3.66,-2.72,4.46,2,1
17147.796,-0.912,0.187,0.306,-4.12,-0.7,3.94,2,1
17147.812,-0.91,0.181,0.317,-4.64,1.1,4.36,2,1
17147.812,-0.911,0.176,0.327,-4.06,2.14,5.37,2,1
17147.828,-0.915,0.175,0.331,-3.63,2.29,6.13,2,1
17147.828,-0.914,0.166,0.341,-4.43,2.14,6.47,2,1
17147.843,-0.91,0.154,0.354,-5.13,2.08,5.92,2,1
17147.843,-0.904,0.146,0.361,-5.22,2.08,4.7,2,1
17147.859,-0.906,0.144,0.367,-4.85,1.83,3.69,2,1
17147.875,-0.917,0.143,0.37,-4.12,-0.4,2.69,2,1
17147.875,-0.923,0.139,0.369,-3.6,-2.01,1.22,2,1
17147.89,-0.92,0.14,0.363,-3.36,-3.05,-0.61,2,1
17147.906,-0.913,0.142,0.356,-3.39,-2.99,-2.53,2,1
17147.906,-0.909,0.143,0.37,-2.93,-2.26,-4.06,2,1
17147.921,-0.912,0.145,0.38,-1.37,-1.37,-4.55,2,1
17147.937,-0.913,0.164,0.384,0.55,-1.28,-3.57,2,1
17147.937,-0.915,0.176,0.377,1.77,-2.08,-2.08,2,1
17147.953,-0.918,0.181,0.373,1.98,-3.85,-1.1,2,1
17147.968,-0.919,0.187,0.358,2.11,-5.77,-0.98,2,1
17147.968,-0.912,0.196,0.337,1.8,-6.5,-1.13,2,1
17147.984,-0.905,0.201,0.323,0.79,-6.56,-1.16,2,1
17147.984,-0.907,0.2,0.318,-0.34,-5.86,-1.65,2,1
17148.0,-0.904,0.198,0.315,-0.98,-4.82,-1.98,2,1
17148.015,-0.9,0.193,0.317,-1.25,-3.33,-1.13,2,1
17148.031,-0.902,0.186,0.32,-1.07,-1.62,1.01,2,1
17148.031,-0.904,0.171,0.325,-0.55,-0.24,3.94,2,1
17148.046,-0.9,0.157,0.334,0.24,0.73,6.32,2,1
17148.046,-0.901,0.145,0.341,1.04,1.68,7.45,2,1
17148.062,-0.901,0.139,0.347,1.37,2.38,7.75,2,1
17148.078,-0.903,0.13,0.356,1.13,2.23,7.17,2,1
17148.078,-0.901,0.126,0.363,0.85,1.5,6.04,2,1
17148.093,-0.894,0.12,0.365,0.89,0.46,4.55,2,1
17148.109,-0.893,0.118,0.357,1.56,-0.89,2.84,2,1
17148.109,-0.896,0.128,0.347,2.11,-1.86,0.64,2,1
17148.125,-0.899,0.135,0.343,1.4,-2.44,-1.5,2,1
17148.125,-0.898,0.134,0.339,0.49,-2.69,-3.72,2,1
17148.14,-0.901,0.139,0.341,0.98,-2.23,-5.58,2,1
17148.156,-0.902,0.153,0.338,1.46,-1.59,-6.9,2,1
17148.156,-0.904,0.165,0.339,1.04,-1.1,-7.66,2,1
17148.171,-0.915,0.167,0.349,0.12,-0.89,-7.81,2,1
17148.187,-0.92,0.17,0.348,-0.12,-2.01,-6.93,2,1
17148.203,-0.918,0.164,0.344,-0.37,-2.56,-5.83,2,1
17148.218,-0.913,0.157,0.338,-0.61,-2.66,-4.43,2,1
17148.218,-0.906,0.152,0.337,-0.21,-2.2,-3.08,2,1
17148.234,-0.916,0.152,0.339,0.31,-1.13,-2.81,2,1
17148.234,-0.921,0.149,0.344,0.15,0.0,-2.9,2,1
17148.25,-0.924,0.148,0.355,0.12,0.61,-2.99,2,1
17148.265,-0.932,0.143,0.367,0.27,0.95,-3.39,2,1
17148.265,-0.937,0.143,0.371,0.55,0.52,-3.51,2,1
17148.281,-0.938,0.144,0.371,0.64,-0.49,-2.84,2,1
17148.296,-0.938,0.139,0.375,0.52,-1.62,-2.72,2,1
17148.296,-0.942,0.135,0.373,0.55,-2.53,-3.02,2,1
17148.312,-0.941,0.139,0.372,0.89,-3.3,-3.23,2,1
17148.328,-0.932,0.144,0.365,1.5,-4.27,-3.2,2,1
17148.328,-0.925,0.151,0.358,1.28,-5.16,-3.51,2,1
17148.343,-0.92,0.149,0.356,0.18,-5.65,-3.91,2,1
17148.359,-0.919,0.137,0.363,0.85,-5.04,-4.61,2,1
17148.375,-0.923,0.14,0.364,1.25,-4.79,-5.25,2,1
17148.375,-0.918,0.141,0.368,1.01,-4.88,-4.88,2,1
17148.39,-0.911,0.136,0.371,1.01,-5.19,-4.52,2,1
17148.406,-0.913,0.133,0.371,1.46,-5.77,-4.85,2,1
17148.406,-0.908,0.143,0.366,1.98,-6.01,-5.74,2,1
17148.421,-0.903,0.155,0.364,1.4,-6.23,-6.87,2,1
17148.437,-0.897,0.153,0.366,0.09,-6.41,-7.66,2,1
17148.437,-0.896,0.149,0.368,-0.06,-6.35,-7.75,2,1
17148.453,-0.894,0.149,0.369,1.28,-5.83,-7.26,2,1
17148.453,-0.902,0.148,0.366,3.02,-5.37,-6.07,2,1
17148.468,-0.901,0.155,0.364,3.88,-5.28,-4.7,2,1
17148.484,-0.897,0.159,0.364,4.15,-5.52,-3.94,2,1
17148.484,-0.895,0.16,0.359,4.36,-5.74,-3.57,2,1
17148.5,-0.89,0.168,0.35,4.39,-5.95,-3.27,2,1
17148.515,-0.881,0.172,0.344,3.78,-6.23,-3.14,2,1
17148.531,-0.867,0.164,0.332,2.69,-5.95,-2.84,2,1
17148.546,-0.866,0.161,0.329,2.62,-4.55,-2.32,2,1
17148.546,-0.868,0.162,0.328,2.32,-2.62,-1.98,2,1
17148.562,-0.87,0.151,0.34,1.83,-0.95,-1.8,2,1
17148.578,-0.872,0.141,0.344,1.43,-0.09,-2.47,2,1
17148.578,-0.876,0.139,0.347,0.61,-0.24,-4.21,2,1
17148.593,-0.88,0.133,0.35,-1.77,-1.53,-7.17,2,1
17148.609,-0.878,0.119,0.353,-4.64,-2.99,-10.77,2,1
17148.609,-0.874,0.109,0.355,-6.93,-3.94,-14.47,2,1
17148.625,-0.873,0.094,0.361,-8.94,-4.09,-18.19,2,1
17148.625,-0.885,0.083,0.371,-9.89,-3.39,-21.49,2,1
17148.64,-0.894,0.079,0.382,-9.55,-2.5,-23.62,2,1
17148.656,-0.899,0.075,0.396,-9.34,-2.04,-25.12,2,1
17148.656,-0.913,0.074,0.41,-9.19,-2.66,-26.89,2,1
17148.671,-0.92,0.083,0.417,-8.27,-4.24,-28.17,2,1
17148.687,-0.925,0.096,0.412,-7.87,-6.2,-28.38,2,1
17148.703,-0.933,0.112,0.393,-7.84,-9.28,-26.46,2,1
17148.718,-0.932,0.115,0.384,-7.48,-9.4,-24.2,2,1
17148.718,-0.931,0.12,0.381,-6.38,-8.3,-21.49,2,1
17148.734,-0.927,0.119,0.383,-4.09,-6.01,-17.37,2,1
17148.734,-0.925,0.124,0.395,-0.98,-3.11,-12.24,2,1
17148.75,-0.922,0.129,0.403,2.32,-0.98,-6.74,2,1
17148.765,-0.924,0.138,0.403,4.76,-0.31,-1.92,2,1
17148.765,-0.922,0.143,0.397,5.49,-1.01,1.5,2,1
17148.781,-0.916,0.146,0.387,4.67,-2.72,3.42,2,1
17148.796,-0.905,0.142,0.377,3.6,-4.36,4.21,2,1
17148.796,-0.89,0.136,0.368,3.08,-5.19,4.79,2,1
17148.812,-0.878,0.132,0.36,2.84,-4.91,5.13,2,1
17148.828,-0.868,0.134,0.353,2.59,-3.63,4.85,2,1
17148.828,-0.868,0.131,0.354,1.95,-2.11,4.43,2,1
17148.843,-0.877,0.126,0.359,1.07,-0.98,4.15,2,1
17148.843,-0.883,0.127,0.36,0.61,-0.67,3.85,2,1
17148.875,-0.887,0.126,0.363,-1.59,-0.89,2.78,2,1
17148.89,-0.885,0.125,0.365,-2.26,-1.16,2.75,2,1
17148.89,-0.883,0.119,0.359,-3.42,-1.43,3.05,2,1
17148.906,-0.88,0.111,0.361,-4.46,-1.37,3.3,2,1
17148.906,-0.885,0.1,0.363,-4.82,-0.98,3.3,2,1
17148.921,-0.882,0.088,0.365,-4.55,-0.27,3.27,2,1
17148.937,-0.879,0.093,0.366,-4.49,0.46,2.9,2,1
17148.937,-0.88,0.089,0.37,-5.68,1.1,1.98,2,1
17148.953,-0.876,0.075,0.378,-7.26,2.23,1.01,2,1
17148.968,-0.876,0.066,0.39,-7.97,3.42,0.03,2,1
17148.968,-0.895,0.063,0.403,-8.03,3.94,-1.4,2,1
17148.984,-0.913,0.061,0.41,-8.45,2.9,-2.93,2,1
17149.0,-0.924,0.055,0.41,-9.8,0.58,-4.33,2,1
17149.0,-0.936,0.047,0.405,-11.05,-2.26,-5.65,2,1
17149.015,-0.94,0.04,0.393,-11.23,-4.85,-6.41,2,1
17149.031,-0.933,0.042,0.38,-10.47,-6.44,-6.41,2,1
17149.031,-0.924,0.04,0.369,-9.0,-6.44,-5.62,2,1
17149.046,-0.917,0.043,0.366,-6.5,-4.97,-4.73,2,1
17149.046,-0.907,0.055,0.367,-4.03,-2.41,-4.3,2,1
17149.062,-0.897,0.072,0.376,-2.5,0.34,-4.06,2,1
17149.078,-0.894,0.085,0.394,-1.83,2.38,-3.91,2,1
17149.078,-0.904,0.096,0.413,-1.22,2.78,-3.91,2,1
17149.093,-0.903,0.104,0.426,-0.82,1.68,-2.96,2,1
17149.109,-0.894,0.101,0.432,0.0,0.0,-1.1,2,1
17149.109,-0.884,0.097,0.426,1.46,-1.77,0.64,2,1
17149.125,-0.879,0.1,0.409,2.41,-3.42,1.56,2,1
17149.125,-0.881,0.108,0.389,1.95,-4.7,0.98,2,1
17149.14,-0.89,0.116,0.373,0.12,-5.25,-1.19,2,1
17149.156,-0.903,0.118,0.367,-1.83,-5.58,-4.0,2,1
17149.156,-0.908,0.121,0.37,-2.9,-5.13,-6.41,2,1
17149.171,-0.909,0.129,0.375,-2.75,-3.81,-7.54,2,1
17149.187,-0.913,0.141,0.381,-2.47,-2.41,-7.14,2,1
17149.187,-0.919,0.144,0.385,-2.66,-1.71,-5.4,2,1
17149.203,-0.926,0.143,0.39,-2.69,-1.74,-2.62,2,1
17149.218,-0.924,0.139,0.387,-2.29,-2.26,0.89,2,1
17149.218,-0.921,0.13,0.376,-2.11,-3.05,4.61,2,1
17149.234,-0.913,0.118,0.367,-1.8,-3.45,8.12,2,1
17149.25,-0.893,0.107,0.36,-1.71,-2.5,10.65,2,1
17149.25,-0.883,0.091,0.357,-1.86,-0.67,11.9,2,1
17149.265,-0.885,0.079,0.361,-2.32,1.1,11.84,2,1
17149.265,-0.891,0.073,0.361,-2.62,1.98,10.96,2,1
17149.281,-0.899,0.067,0.363,-3.75,2.26,9.43,2,1
17149.296,-0.904,0.055,0.365,-5.25,1.89,8.06,2,1
17149.296,-0.905,0.042,0.373,-6.29,1.59,7.17,2,1
17149.312,-0.903,0.023,0.383,-6.26,1.92,6.41,2,1
17149.328,-0.908,0.008,0.396,-4.91,2.69,5.37,2,1
17149.328,-0.916,0.003,0.406,-2.78,3.2,4.12,2,1
17149.343,-0.923,0.009,0.411,-0.73,2.84,3.14,2,1
17149.343,-0.925,0.012,0.405,-0.03,1.25,1.98,2,1
17149.359,-0.93,0.013,0.404,0.03,-1.07,0.21,2,1
17149.375,-0.928,0.017,0.392,0.03,-3.54,-1.8,2,1
17149.375,-0.923,0.022,0.382,0.18,-5.34,-3.75,2,1
17149.39,-0.918,0.03,0.374,0.43,-6.07,-5.43,2,1
17149.406,-0.907,0.041,0.367,0.76,-5.86,-6.84,2,1
17149.406,-0.893,0.051,0.365,1.37,-4.7,-7.29,2,1
17149.421,-0.895,0.052,0.368,3.02,-2.99,-6.5,2,1
17149.437,-0.905,0.064,0.366,4.46,-1.68,-5.49,2,1
17149.437,-0.907,0.077,0.366,4.91,-0.89,-5.04,2,1
17149.453,-0.912,0.079,0.366,4.55,-0.64,-4.49,2,1
17149.468,-0.91,0.077,0.368,3.88,-0.67,-4.15,2,1
17149.468,-0.9,0.079,0.371,3.45,-0.7,-3.91,2,1
17149.484,-0.905,0.073,0.379,3.14,-0.24,-3.54,2,1
17149.484,-0.906,0.068,0.385,3.33,0.12,-3.23,2,1
17149.5,-0.907,0.065,0.388,3.85,0.09,-3.45,2,1
17149.515,-0.917,0.065,0.391,3.75,-0.24,-3.97,2,1
17149.515,-0.924,0.068,0.394,2.99,-0.92,-4.49,2,1
17149.531,-0.93,0.069,0.394,2.47,-1.68,-5.34,2,1
17149.546,-0.93,0.069,0.392,2.01,-2.32,-6.07,2,1
17149.546,-0.927,0.073,0.39,2.01,-2.78,-6.47,2,1
17149.562,-0.926,0.08,0.392,2.41,-2.72,-6.68,2,1
17149.578,-0.924,0.083,0.395,2.66,-2.38,-5.95,2,1
17149.578,-0.921,0.083,0.401,3.39,-1.83,-4.3,2,1
17149.593,-0.917,0.086,0.402,4.33,-1.46,-2.69,2,1
17149.609,-0.917,0.088,0.402,5.04,-1.34,-1.28,2,1
17149.609,-0.918,0.087,0.403,5.34,-1.71,-0.43,2,1
17149.625,-0.921,0.084,0.397,5.25,-2.66,-0.64,2,1
17149.625,-0.918,0.09,0.391,4.49,-4.0,-1.89,2,1
17149.64,-0.916,0.099,0.384,2.72,-5.58,-3.57,2,1
17149.656,-0.913,0.095,0.378,0.85,-6.65,-4.85,2,1
17149.656,-0.91,0.086,0.38,-0.24,-6.62,-5.13,2,1
17149.671,-0.906,0.085,0.38,0.27,-5.86,-4.82,2,1
17149.687,-0.91,0.086,0.376,1.22,-5.1,-3.91,2,1
17149.687,-0.909,0.09,0.374,1.65,-4.61,-2.38,2,1
17149.703,-0.899,0.089,0.376,1.04,-4.15,-1.04,2,1
17149.703,-0.9,0.078,0.383,0.67,-3.39,-0.55,2,1
17149.734,-0.895,0.078,0.39,1.31,-2.59,-0.55,2,1
17149.734,-0.895,0.077,0.392,1.43,-2.75,-0.49,2,1
17149.75,-0.89,0.079,0.392,1.04,-2.93,-0.67,2,1
17149.765,-0.882,0.078,0.389,0.7,-3.11,-1.1,2,1
17149.765,-0.878,0.075,0.391,0.64,-3.14,-1.65,2,1
17149.781,-0.869,0.078,0.388,1.19,-2.84,-2.47,2,1
17149.796,-0.861,0.081,0.383,1.43,-2.44,-3.6,2,1
17149.796,-0.857,0.087,0.379,1.25,-1.86,-5.22,2,1
17149.812,-0.856,0.094,0.375,0.52,-1.62,-7.17,2,1
17149.828,-0.856,0.094,0.371,-0.64,-1.4,-9.31,2,1
17149.828,-0.852,0.093,0.368,-1.74,-1.16,-11.29,2,1
17149.843,-0.849,0.103,0.359,-4.15,0.21,-13.37,2,1
17149.843,-0.856,0.107,0.358,-5.1,1.19,-13.09,2,1
17149.859,-0.867,0.11,0.356,-6.13,2.04,-12.24,2,1
17149.875,-0.877,0.112,0.354,-7.2,3.23,-10.35,2,1
17149.875,-0.901,0.096,0.373,-7.42,4.79,-6.68,2,1
17149.906,-0.911,0.079,0.384,-3.45,7.48,3.78,2,1
17149.906,-0.915,0.066,0.392,-1.34,8.15,8.45,2,1
17149.921,-0.922,0.06,0.397,-0.82,7.51,11.47,2,1
17149.921,-0.931,0.049,0.4,-1.07,5.95,12.6,2,1
17149.937,-0.93,0.044,0.402,-2.56,4.0,12.42,2,1
17149.953,-0.925,0.036,0.405,-3.57,2.56,11.41,2,1
17149.968,-0.921,0.028,0.406,-3.45,1.19,10.35,2,1
17149.968,-0.914,0.03,0.407,-3.2,0.24,9.83,2,1
17149.984,-0.913,0.028,0.404,-2.56,-0.49,9.13,2,1
17149.984,-0.915,0.022,0.402,-1.74,-0.98,8.33,2,1
17150.0,-0.911,0.022,0.399,-0.89,-1.16,7.08,2,1
17150.015,-0.908,0.024,0.392,-0.43,-0.92,4.73,2,1
17150.015,-0.908,0.029,0.388,-0.12,-0.49,1.28,2,1
17150.031,-0.901,0.038,0.395,-0.31,-0.4,-1.98,2,1
17150.046,-0.898,0.049,0.402,-0.73,-0.89,-5.34,2,1
17150.046,-0.902,0.062,0.4,-1.4,-1.89,-8.24,2,1
17150.078,-0.895,0.076,0.388,-3.11,-4.18,-11.17,2,1
17150.078,-0.893,0.079,0.377,-2.81,-4.3,-10.77,2,1
17150.093,-0.897,0.086,0.366,-2.17,-3.6,-10.5,2,1
17150.109,-0.899,0.098,0.362,-2.17,-2.26,-10.35,2,1
17150.109,-0.898,0.109,0.368,-2.72,-0.67,-9.67,2,1
17150.125,-0.896,0.113,0.373,-3.27,0.34,-8.51,2,1
17150.125,-0.902,0.119,0.378,-3.36,0.55,-6.68,2,1
17150.14,-0.907,0.124,0.377,-3.51,0.09,-4.3,2,1
17150.156,-0.907,0.125,0.374,-4.76,-0.73,-1.16,2,1
17150.156,-0.895,0.115,0.379,-5.98,-1.5,2.99,2,1
17150.171,-0.887,0.094,0.376,-5.77,-1.5,7.6,2,1
17150.187,-0.888,0.081,0.372,-4.24,-0.61,11.69,2,1
17150.187,-0.886,0.07,0.368,-2.84,0.49,14.77,2,1
17150.203,-0.883,0.068,0.36,-2.81,1.56,16.39,2,1
17150.218,-0.887,0.066,0.355,-4.3,2.23,16.63,2,1
17150.218,-0.885,0.053,0.358,-6.29,2.96,16.51,2,1
17150.234,-0.881,0.028,0.369,-5.37,6.47,14.89,2,1
17150.25,-0.885,0.021,0.385,-4.12,8.36,14.31,2,1
17150.265,-0.895,0.021,0.403,-2.41,9.52,14.13,2,1
17150.281,-0.909,0.027,0.413,-1.22,9.16,13.31,2,1
17150.281,-0.923,0.034,0.419,-1.22,7.17,12.24,2,1
17150.296,-0.929,0.038,0.415,-2.17,4.0,10.47,2,1
17150.296,-0.929,0.032,0.402,-3.57,0.76,8.24,2,1
17150.312,-0.924,0.032,0.389,-4.39,-1.65,5.43,2,1
17150.328,-0.924,0.038,0.378,-4.18,-2.69,2.81,2,1
17150.328,-0.924,0.045,0.37,-4.06,-3.14,0.82,2,1
17150.343,-0.926,0.049,0.366,-3.69,-2.84,-0.09,2,1
17150.359,-0.929,0.057,0.369,-2.66,-1.89,-0.46,2,1
17150.359,-0.93,0.061,0.371,-1.8,-0.92,-0.67,2,1
17150.375,-0.931,0.064,0.375,-1.62,-0.34,-0.21,2,1
17150.375,-0.931,0.071,0.38,-1.13,-0.46,0.79,2,1
17150.39,-0.928,0.077,0.381,-0.55,-1.16,2.08,2,1
17150.406,-0.927,0.07,0.374,-0.31,-2.66,3.3,2,1
17150.421,-0.922,0.068,0.366,-0.4,-3.05,3.2,2,1
17150.437,-0.919,0.07,0.363,-0.73,-2.81,1.98,2,1
17150.437,-0.92,0.068,0.362,-1.22,-2.17,0.64,2,1
17150.453,-0.922,0.068,0.363,-1.59,-1.5,-0.58,2,1
17150.453,-0.927,0.071,0.372,-1.68,-0.92,-1.22,2,1
17150.468,-0.927,0.068,0.381,-1.25,0.06,-1.19,2,1
17150.484,-0.93,0.071,0.389,-0.34,0.67,-0.61,2,1
17150.484,-0.935,0.075,0.401,0.46,0.46,0.4,2,1
17150.5,-0.937,0.078,0.405,0.98,-0.27,1.37,2,1
17150.515,-0.937,0.082,0.404,0.92,-1.95,2.38,2,1
17150.515,-0.931,0.078,0.404,0.21,-3.54,3.3,2,1
17150.531,-0.925,0.072,0.394,0.09,-5.04,3.91,2,1
17150.546,-0.918,0.072,0.381,0.21,-5.77,3.94,2,1
17150.546,-0.914,0.078,0.375,-0.27,-5.58,3.42,2,1
17150.562,-0.912,0.068,0.38,-0.92,-4.49,3.05,2,1
17150.578,-0.906,0.064,0.393,2.11,-2.08,3.81,2,1
17150.593,-0.908,0.075,0.394,3.45,-1.46,4.21,2,1
17150.609,-0.906,0.083,0.398,3.66,-1.83,4.67,2,1
17150.609,-0.901,0.087,0.396,3.3,-2.78,4.94,2,1
17150.625,-0.894,0.084,0.393,3.33,-3.78,5.01,2,1
17150.625,-0.885,0.084,0.394,3.42,-4.91,4.91,2,1
17150.64,-0.879,0.081,0.387,3.02,-5.52,4.36,2,1
17150.656,-0.872,0.064,0.387,3.66,-4.85,3.63,2,1
17150.671,-0.865,0.064,0.387,5.46,-3.42,3.72,2,1
17150.671,-0.859,0.07,0.387,7.84,-1.65,4.39,2,1
17150.671,-0.868,0.085,0.383,9.52,-0.7,4.09,2,1
17150.687,-0.869,0.103,0.379,8.79,-0.95,2.69,2,1
17150.703,-0.87,0.11,0.375,6.1,-2.2,0.52,2,1
17150.703,-0.87,0.113,0.375,3.27,-3.91,-2.26,2,1
17150.718,-0.865,0.115,0.37,1.22,-4.97,-4.43,2,1
17150.734,-0.86,0.118,0.367,0.31,-4.88,-5.25,2,1
17150.75,-0.861,0.114,0.365,0.37,-3.75,-4.73,2,1
17150.75,-0.864,0.11,0.366,1.37,-1.95,-3.23,2,1
17150.765,-0.863,0.111,0.368,2.81,0.12,-1.19,2,1
17150.765,-0.878,0.109,0.369,3.69,1.86,0.73,2,1
17150.781,-0.895,0.109,0.375,3.94,2.62,2.08,2,1
17150.796,-0.902,0.112,0.374,3.39,2.5,3.05,2,1
17150.796,-0.904,0.109,0.375,2.01,2.17,3.2,2,1
17150.812,-0.902,0.097,0.377,1.07,1.68,2.87,2,1
17150.828,-0.9,0.089,0.38,0.76,1.53,0.79,2,1
17150.828,-0.903,0.089,0.376,-0.03,1.5,-0.15,2,1
17150.843,-0.907,0.088,0.378,-0.61,1.46,-0.24,2,1
17150.843,-0.91,0.083,0.386,-0.27,1.56,-0.03,2,1
17150.859,-0.924,0.083,0.391,0.21,1.53,0.18,2,1
17150.875,-0.929,0.083,0.391,0.67,1.13,0.4,2,1
17150.875,-0.931,0.084,0.389,1.04,0.55,0.49,2,1
17150.89,-0.933,0.095,0.382,1.13,-0.31,0.37,2,1
17150.906,-0.931,0.104,0.376,0.24,-1.16,0.7,2,1
17150.906,-0.927,0.107,0.367,-0.67,-2.11,1.16,2,1
17150.921,-0.925,0.105,0.36,-1.13,-2.66,1.4,2,1
17150.937,-0.918,0.104,0.351,-1.46,-2.81,1.46,2,1
17150.937,-0.91,0.104,0.345,-2.41,-2.26,1.5,2,1
17150.953,-0.907,0.099,0.345,-3.36,-1.25,1.28,2,1
17150.968,-0.911,0.087,0.349,-3.63,-0.46,1.01,2,1
17150.968,-0.913,0.081,0.354,-3.78,0.27,-0.06,2,1
17150.984,-0.911,0.086,0.363,-4.3,0.92,-2.01,2,1
17150.984,-0.912,0.087,0.374,-5.62,1.1,-4.03,2,1
17151.0,-0.914,0.076,0.4,-6.35,1.04,-5.07,2,1
17151.015,-0.921,0.075,0.401,-5.74,0.52,-5.58,2,1
17151.015,-0.931,0.067,0.407,-4.39,0.09,-5.62,2,1
17151.031,-0.932,0.073,0.413,-3.36,-0.92,-4.7,2,1
17151.046,-0.924,0.08,0.414,-2.66,-1.92,-3.11,2,1
17151.046,-0.926,0.076,0.418,-2.04,-2.59,-1.56,2,1
17151.062,-0.924,0.073,0.417,-0.95,-3.2,-0.34,2,1
17151.078,-0.921,0.075,0.414,0.34,-3.54,0.43,2,1
17151.078,-0.921,0.077,0.412,1.5,-3.81,0.7,2,1
17151.093,-0.917,0.077,0.411,2.38,-4.06,1.34,2,1
17151.109,-0.908,0.078,0.404,2.9,-4.46,1.83,2,1
17151.109,-0.904,0.076,0.401,3.45,-5.04,1.95,2,1
17151.125,-0.897,0.075,0.397,3.88,-5.13,1.74,2,1
17151.125,-0.895,0.077,0.39,4.27,-4.82,1.5,2,1
17151.14,-0.893,0.088,0.385,4.55,-4.67,0.4,2,1
17151.156,-0.895,0.103,0.381,3.72,-4.82,-1.22,2,1
17151.156,-0.898,0.111,0.38,2.01,-5.34,-2.78,2,1
17151.171,-0.894,0.112,0.377,0.37,-5.89,-3.39,2,1
17151.187,-0.885,0.114,0.376,-0.31,-5.74,-3.08,2,1
17151.187,-0.885,0.114,0.379,0.34,-4.64,-2.08,2,1
17151.203,-0.89,0.118,0.377,1.62,-3.3,-0.95,2,1
17151.203,-0.894,0.12,0.378,2.08,-2.32,0.43,2,1
17151.218,-0.899,0.115,0.384,1.83,-1.8,1.68,2,1
17151.234,-0.898,0.113,0.387,1.31,-1.8,2.66,2,1
17151.234,-0.897,0.11,0.388,0.67,-1.92,2.87,2,1
17151.25,-0.902,0.1,0.393,0.18,-2.04,3.08,2,1
17151.281,-0.894,0.1,0.395,0.7,-2.62,3.36,2,1
17151.281,-0.896,0.102,0.391,0.7,-2.59,3.27,2,1
17151.296,-0.892,0.099,0.393,0.0,-2.62,3.27,2,1
17151.296,-0.887,0.097,0.395,-0.09,-2.66,3.54,2,1
17151.312,-0.886,0.092,0.395,0.55,-2.41,3.72,2,1
17151.328,-0.886,0.096,0.393,1.13,-2.32,3.54,2,1
17151.328,-0.889,0.096,0.396,0.89,-2.44,3.05,2,1
17151.343,-0.893,0.092,0.396,0.27,-2.75,2.75,2,1
17151.343,-0.89,0.094,0.39,-0.34,-3.02,2.66,2,1
17151.359,-0.892,0.097,0.385,-0.73,-2.93,2.35,2,1
17151.375,-0.893,0.098,0.383,-0.98,-2.35,2.23,2,1
17151.375,-0.89,0.097,0.388,-1.13,-1.65,2.35,2,1
17151.39,-0.89,0.088,0.394,-0.24,-0.89,3.02,2,1
17151.406,-0.894,0.093,0.394,1.01,-0.43,3.69,2,1
17151.406,-0.901,0.105,0.387,1.59,-0.73,3.6,2,1
17151.421,-0.908,0.109,0.385,0.34,-1.56,3.08,2,1
17151.437,-0.915,0.108,0.382,-2.99,-3.11,1.83,2,1
17151.453,-0.919,0.11,0.383,-3.69,-3.33,2.01,2,1
17151.453,-0.914,0.108,0.384,-3.33,-2.84,4.0,2,1
17151.468,-0.913,0.106,0.382,-1.89,-1.8,6.9,2,1
17151.484,-0.916,0.105,0.372,-0.89,-0.98,9.34,2,1
17151.5,-0.924,0.106,0.364,-0.92,-0.82,10.96,2,1
17151.5,-0.932,0.104,0.36,-1.92,-1.13,11.6,2,1
17151.515,-0.934,0.1,0.365,-3.33,-1.65,11.96,2,1
17151.515,-0.924,0.089,0.372,-4.21,-1.5,12.27,2,1
17151.531,-0.915,0.08,0.375,-4.06,-1.1,12.24,2,1
17151.546,-0.913,0.079,0.37,-3.91,-1.04,11.41,2,1
17151.546,-0.913,0.085,0.362,-5.01,-1.86,9.95,2,1
17151.562,-0.914,0.097,0.358,-7.72,-2.99,8.03,2,1
17151.562,-0.922,0.094,0.351,-10.41,-4.18,5.8,2,1
17151.578,-0.929,0.095,0.355,-12.63,-5.28,2.96,2,1
17151.593,-0.943,0.101,0.349,-14.1,-6.13,0.85,2,1
17151.609,-0.958,0.15,0.331,-17.49,-8.12,1.25,2,1
17151.625,-0.957,0.147,0.332,-19.41,-8.55,3.69,2,1
17151.625,-0.951,0.122,0.342,-19.71,-6.84,8.39,2,1
17151.64,-0.935,0.092,0.355,-18.43,-3.45,14.71,2,1
17151.656,-0.929,0.081,0.354,-15.05,-0.15,20.69,2,1
17151.671,-0.932,0.093,0.348,-11.44,2.56,24.57,2,1
17151.671,-0.927,0.103,0.337,-10.8,3.69,26.73,2,1
17151.687,-0.912,0.111,0.321,-13.21,3.6,26.22,2,1
17151.687,-0.894,0.112,0.308,-17.4,3.57,23.8,2,1
17151.703,-0.885,0.119,0.295,-22.77,3.42,18.86,2,1
17151.718,-0.878,0.123,0.29,-28.57,3.23,11.9,2,1
17151.718,-0.876,0.113,0.296,-33.42,3.72,5.25,2,1
17151.734,-0.881,0.112,0.304,-35.98,4.58,-0.27,2,1
17151.734,-0.884,0.119,0.306,-37.14,5.49,-4.43,2,1
17151.75,-0.887,0.134,0.303,-38.12,6.84,-6.84,2,1
17151.765,-0.91,0.162,0.296,-39.77,8.24,-7.6,2,1
17151.781,-0.92,0.159,0.32,-42.7,13.46,-0.15,2,1
17151.796,-0.927,0.153,0.324,-40.31,17.7,7.14,2,1
17151.796,-0.935,0.151,0.314,-36.01,21.76,15.23,2,1
17151.812,-0.939,0.152,0.298,-31.01,26.03,29.66,2,1
17151.828,-0.945,0.166,0.273,-32.93,25.88,34.3,2,1
17151.828,-0.939,0.177,0.244,-37.35,25.18,36.68,2,1
17151.843,-0.909,0.153,0.213,-42.12,25.7,36.62,2,1
17151.859,-0.904,0.13,0.215,-45.63,28.32,36.19,2,1
17151.859,-0.899,0.105,0.22,-46.39,32.87,37.11,2,1
17151.875,-0.892,0.11,0.213,-44.19,37.84,37.51,2,1
17151.875,-0.901,0.123,0.2,-42.05,42.12,37.08,2,1
17151.89,-0.916,0.121,0.199,-41.72,45.56,36.71,2,1
17151.906,-0.925,0.127,0.196,-42.73,47.55,36.47,2,1
17151.906,-0.937,0.133,0.188,-44.28,48.1,35.92,2,1
17151.921,-0.936,0.104,0.204,-45.35,49.71,36.59,2,1
17151.937,-0.93,0.082,0.225,-43.79,51.88,37.57,2,1
17151.953,-0.944,0.101,0.224,-38.73,51.39,34.94,2,1
17151.968,-0.939,0.117,0.232,-38.33,47.91,33.66,2,1
17151.968,-0.937,0.149,0.222,-39.4,40.65,32.2,2,1
17151.984,-0.925,0.165,0.226,-41.54,31.04,31.16,2,1
17151.984,-0.912,0.188,0.247,-43.67,19.59,30.52,2,1
17152.0,-0.907,0.239,0.255,-46.69,4.36,30.98,2,1
17152.015,-0.895,0.261,0.259,-50.26,-13.7,33.42,2,1
17152.015,-0.892,0.248,0.26,-52.64,-30.85,37.45,2,1
17152.031,-0.889,0.209,0.258,-52.55,-43.92,43.31,2,1
17152.046,-0.882,0.174,0.248,-47.7,-52.37,49.96,2,1
17152.062,-0.869,0.138,0.222,-38.21,-56.55,55.94,2,1
17152.062,-0.859,0.13,0.181,-26.92,-56.89,58.35,2,1
17152.078,-0.856,0.149,0.13,-17.49,-53.93,57.65,2,1
17152.078,-0.849,0.156,0.087,-10.53,-46.54,55.48,2,1
17152.093,-0.846,0.173,0.067,-6.5,-34.46,52.55,2,1
17152.109,-0.853,0.186,0.064,-5.16,-18.01,49.93,2,1
17152.109,-0.873,0.173,0.102,-4.91,3.94,49.56,2,1
17152.125,-0.878,0.152,0.167,-3.97,28.23,51.42,2,1
17152.125,-0.896,0.136,0.217,-0.67,51.48,53.16,2,1
17152.14,-0.914,0.13,0.257,5.77,72.05,53.53,2,1
17152.156,-0.917,0.146,0.287,13.18,86.86,50.54,2,1
17152.156,-0.918,0.182,0.3,18.62,95.13,42.82,2,1
17152.171,-0.923,0.232,0.305,19.17,97.2,32.26,2,1
17152.187,-0.931,0.268,0.305,15.05,94.42,21.79,2,1
17152.187,-0.934,0.309,0.301,8.61,88.47,12.12,2,1
17152.203,-0.94,0.34,0.29,0.76,80.51,4.33,2,1
17152.218,-0.945,0.334,0.281,-6.01,74.1,-1.1,2,1
17152.218,-0.943,0.331,0.291,-10.22,70.99,-5.07,2,1
17152.234,-0.951,0.349,0.303,-11.99,68.91,-7.69,2,1
17152.25,-0.979,0.341,0.3,-11.29,67.69,-8.15,2,1
17152.25,-1.008,0.32,0.307,-7.93,70.41,-5.22,2,1
17152.265,-1.023,0.312,0.333,-2.96,74.16,1.04,2,1
17152.265,-1.031,0.311,0.339,4.3,75.59,7.35,2,1
17152.281,-1.034,0.314,0.325,12.15,74.53,12.54,2,1
17152.296,-1.023,0.308,0.315,19.1,70.44,16.54,2,1
17152.296,-1.004,0.297,0.291,24.84,64.39,19.35,2,1
17152.312,-0.988,0.3,0.254,27.99,58.35,19.71,2,1
17152.328,-0.971,0.319,0.22,27.01,52.83,16.11,2,1
17152.328,-0.957,0.331,0.2,21.61,47.3,9.8,2,1
17152.343,-0.956,0.329,0.184,14.04,40.86,2.08,2,1
17152.343,-0.955,0.34,0.165,5.43,33.66,-6.47,2,1
17152.359,-0.951,0.347,0.155,-2.72,26.8,-14.19,2,1
17152.375,-0.956,0.34,0.147,-9.31,20.97,-20.05,2,1
17152.39,-0.957,0.343,0.139,-14.25,16.02,-23.77,2,1
17152.39,-0.949,0.341,0.137,-16.82,12.48,-26.03,2,1
17152.406,-0.953,0.334,0.131,-16.94,10.83,-26.55,2,1
17152.406,-0.954,0.325,0.13,-14.86,10.71,-24.84,2,1
17152.421,-0.959,0.318,0.129,-10.44,11.6,-22.06,2,1
17152.437,-0.961,0.31,0.123,-4.76,13.31,-19.17,2,1
17152.437,-0.96,0.311,0.127,0.15,15.78,-16.24,2,1
17152.453,-0.959,0.309,0.129,4.12,18.4,-13.12,2,1
17152.468,-0.957,0.277,0.134,8.73,21.21,-9.31,2,1
17152.468,-0.945,0.268,0.15,12.21,22.43,-5.25,2,1
17152.484,-0.94,0.262,0.148,15.53,22.92,-1.89,2,1
17152.484,-0.944,0.246,0.146,17.82,22.92,1.13,2,1
17152.5,-0.947,0.232,0.153,19.29,22.31,4.33,2,1
17152.515,-0.956,0.234,0.163,20.72,20.69,6.01,2,1
17152.515,-0.957,0.227,0.159,20.94,18.16,6.26,2,1
17152.531,-0.955,0.219,0.163,19.29,15.2,6.16,2,1
17152.546,-0.948,0.208,0.166,17.4,12.18,5.65,2,1
17152.546,-0.949,0.197,0.167,16.48,10.16,5.28,2,1
17152.562,-0.953,0.186,0.171,16.45,8.0,4.55,2,1
17152.578,-0.961,0.18,0.169,17.43,5.52,2.62,2,1
17152.578,-0.97,0.191,0.162,18.19,3.27,-1.34,2,1
17152.593,-0.979,0.203,0.15,17.3,0.43,-6.59,2,1
17152.609,-0.987,0.219,0.14,14.25,-2.53,-12.7,2,1
17152.609,-0.989,0.229,0.138,9.92,-4.85,-18.89,2,1
17152.625,-1.001,0.228,0.133,5.04,-6.5,-24.99,2,1
17152.625,-1.007,0.222,0.129,0.98,-7.29,-30.24,2,1
17152.64,-1.013,0.217,0.132,-1.59,-7.14,-34.21,2,1
17152.656,-1.011,0.218,0.133,-2.56,-6.07,-36.81,2,1
17152.656,-1.004,0.22,0.143,-2.04,-5.07,-36.87,2,1
17152.671,-1.0,0.225,0.158,0.06,-4.67,-32.59,2,1
17152.687,-1.007,0.235,0.172,3.17,-5.13,-25.36,2,1
17152.687,-1.007,0.238,0.177,6.99,-7.08,-17.46,2,1
17152.703,-1.01,0.245,0.184,10.65,-10.16,-10.99,2,1
17152.718,-1.014,0.261,0.181,13.03,-14.53,-7.14,2,1
17152.718,-1.011,0.267,0.169,12.85,-20.23,-5.71,2,1
17152.734,-1.015,0.267,0.151,10.19,-26.92,-6.13,2,1
17152.734,-1.018,0.265,0.132,6.32,-33.39,-7.32,2,1
17152.75,-0.997,0.268,0.12,1.62,-38.85,-9.52,2,1
17152.765,-0.96,0.266,0.107,-3.81,-43.15,-11.66,2,1
17152.781,-0.955,0.247,0.087,-8.12,-45.69,-12.42,2,1
17152.781,-0.947,0.229,0.073,-10.44,-46.66,-11.54,2,1
17152.796,-0.946,0.223,0.06,-9.64,-43.06,-10.04,2,1
17152.796,-0.96,0.215,0.036,-8.67,-39.09,-10.8,2,1
17152.812,-0.981,0.207,0.014,-10.16,-34.79,-13.12,2,1
17152.828,-0.996,0.212,0.006,-12.91,-30.79,-17.18,2,1
17152.828,-1.019,0.175,0.016,-16.75,-28.57,-23.44,2,1
17152.843,-1.03,0.164,0.023,-21.82,-28.53,-30.15,2,1
17152.859,-1.052,0.161,0.019,-27.5,-29.73,-37.63,2,1
17152.859,-1.092,0.171,0.037,-34.09,-31.92,-44.43,2,1
17152.875,-1.124,0.154,0.081,-40.19,-35.52,-48.1,2,1
17152.875,-1.14,0.116,0.138,-42.94,-40.01,-47.94,2,1
17152.89,-1.13,0.048,0.201,-40.28,-46.54,-44.68,2,1
17152.906,-1.075,-0.028,0.264,-30.55,-54.99,-38.97,2,1
17152.906,-0.987,-0.086,0.303,-14.83,-65.25,-32.14,2,1
17152.921,-0.929,-0.116,0.305,2.56,-76.48,-25.94,2,1
17152.937,-0.917,-0.111,0.299,18.19,-88.44,-21.27,2,1
17152.953,-0.883,-0.085,0.32,29.11,-100.53,-18.62,2,1
17152.953,-0.831,-0.036,0.318,34.3,-113.07,-17.15,2,1
17152.968,-0.785,0.006,0.302,35.19,-126.68,-15.02,2,1
17152.968,-0.705,0.038,0.276,35.71,-136.81,-10.25,2,1
17152.984,-0.589,0.079,0.24,37.54,-142.49,-3.17,2,1
17152.984,-0.526,0.107,0.179,43.58,-140.39,3.54,2,1
17153.0,-0.455,0.13,0.12,49.56,-129.52,10.86,2,1
17153.015,-0.414,0.16,0.078,54.45,-110.26,17.67,2,1
17153.015,-0.422,0.162,0.05,60.67,-82.46,24.26,2,1
17153.031,-0.454,0.186,0.054,65.95,-49.71,29.39,2,1
17153.046,-0.483,0.229,0.088,68.09,-14.86,33.3,2,1
17153.062,-0.543,0.255,0.142,68.91,19.17,37.02,2,1
17153.062,-0.631,0.286,0.214,69.92,47.82,39.0,2,1
17153.078,-0.703,0.329,0.289,69.37,67.78,38.3,2,1
17153.078,-0.781,0.368,0.355,65.25,78.4,35.71,2,1
17153.093,-0.878,0.394,0.409,57.8,80.14,32.26,2,1
17153.109,-0.957,0.4,0.469,49.2,75.44,31.71,2,1
17153.109,-1.051,0.386,0.499,43.58,65.89,33.33,2,1
17153.125,-1.159,0.374,0.496,42.15,53.19,34.33,2,1
17153.14,-1.256,0.365,0.473,41.6,38.94,33.33,2,1
17153.14,-1.314,0.366,0.443,39.43,25.36,29.51,2,1
17153.156,-1.314,0.379,0.407,35.4,12.91,24.57,2,1
17153.156,-1.274,0.396,0.378,30.06,2.26,20.72,2,1
17153.171,-1.2,0.408,0.359,25.18,-5.68,20.05,2,1
17153.187,-1.103,0.411,0.332,22.03,-11.23,21.61,2,1
17153.187,-1.01,0.415,0.3,20.81,-14.47,23.22,2,1
17153.203,-0.946,0.407,0.268,19.71,-14.95,23.74,2,1
17153.218,-0.912,0.391,0.236,18.92,-13.89,21.55,2,1
17153.218,-0.888,0.381,0.224,17.12,-11.51,17.85,2,1
17153.234,-0.891,0.374,0.217,13.18,-7.75,13.43,2,1
17153.234,-0.907,0.355,0.234,7.78,-2.44,10.35,2,1
17153.25,-0.923,0.33,0.269,3.57,3.48,10.04,2,1
17153.265,-0.932,0.313,0.301,2.23,8.36,10.83,2,1
17153.265,-0.94,0.313,0.325,3.33,11.23,11.47,2,1
17153.281,-0.954,0.322,0.345,4.49,10.83,11.29,2,1
17153.296,-0.961,0.326,0.361,3.88,7.69,10.28,2,1
17153.296,-0.968,0.319,0.362,2.01,2.47,8.73,2,1
17153.312,-0.96,0.3,0.357,-0.21,-2.75,7.57,2,1
17153.328,-0.941,0.294,0.337,-1.59,-7.51,5.65,2,1
17153.328,-0.909,0.294,0.316,-3.51,-10.86,3.27,2,1
17153.343,-0.882,0.288,0.294,-5.49,-12.7,0.0,2,1
17153.343,-0.866,0.282,0.281,-7.02,-12.7,-3.75,2,1
17153.359,-0.851,0.283,0.274,-8.64,-11.84,-7.35,2,1
17153.375,-0.847,0.284,0.269,-9.7,-10.86,-11.11,2,1
17153.39,-0.841,0.277,0.276,-10.8,-9.58,-14.4,2,1
17153.39,-0.838,0.268,0.292,-11.41,-8.73,-17.49,2,1
17153.406,-0.834,0.271,0.297,-11.29,-8.73,-20.36,2,1
17153.406,-0.839,0.273,0.305,-11.69,-9.06,-22.13,2,1
17153.421,-0.85,0.259,0.312,-11.96,-9.52,-22.49,2,1
17153.437,-0.849,0.25,0.313,-11.14,-9.98,-21.67,2,1
17153.437,-0.843,0.241,0.311,-10.1,-9.83,-20.29,2,1
17153.453,-0.844,0.23,0.308,-9.22,-8.85,-18.56,2,1
17153.468,-0.84,0.226,0.3,-8.33,-7.51,-16.79,2,1
17153.468,-0.851,0.23,0.285,-7.05,-6.35,-16.45,2,1
17153.484,-0.855,0.239,0.279,-6.71,-5.13,-16.79,2,1
17153.484,-0.865,0.244,0.276,-7.32,-4.49,-17.98,2,1
17153.5,-0.881,0.244,0.284,-7.75,-3.63,-19.26,2,1
17153.515,-0.884,0.241,0.303,-7.78,-3.2,-19.44,2,1
17153.515,-0.889,0.239,0.318,-6.78,-3.66,-18.65,2,1
17153.531,-0.906,0.253,0.314,-5.49,-5.28,-17.58,2,1
17153.546,-0.916,0.269,0.306,-6.13,-7.97,-16.48,2,1
17153.546,-0.917,0.263,0.301,-7.63,-10.28,-14.5,2,1
17153.562,-0.916,0.257,0.287,-7.45,-11.6,-12.24,2,1
17153.578,-0.908,0.264,0.272,-7.32,-11.99,-9.74,2,1
17153.578,-0.891,0.261,0.268,-8.12,-10.74,-5.98,2,1
17153.593,-0.881,0.262,0.259,-6.71,-8.27,-2.04,2,1
17153.593,-0.868,0.27,0.256,-5.31,-5.89,0.92,2,1
17153.609,-0.866,0.265,0.263,-5.46,-3.66,3.08,2,1
17153.625,-0.864,0.249,0.275,-4.91,-1.56,5.25,2,1
17153.625,-0.859,0.242,0.282,-3.3,0.46,7.08,2,1
17153.64,-0.861,0.235,0.282,-2.26,1.98,8.09,2,1
17153.656,-0.876,0.225,0.292,-1.74,2.66,8.58,2,1
17153.656,-0.894,0.226,0.301,-1.28,2.75,8.79,2,1
17153.671,-0.913,0.222,0.303,-1.34,2.41,8.3,2,1
17153.687,-0.923,0.211,0.313,-1.43,1.86,6.99,2,1
17153.687,-0.925,0.211,0.318,-0.82,0.85,5.55,2,1
17153.703,-0.923,0.214,0.323,-0.12,-0.52,4.64,2,1
17153.718,-0.922,0.223,0.318,0.7,-2.04,3.91,2,1
17153.718,-0.911,0.239,0.304,1.13,-3.72,2.47,2,1
17153.734,-0.897,0.249,0.293,0.34,-5.16,0.67,2,1
17153.75,-0.884,0.259,0.285,-0.92,-6.47,-1.4,2,1
17153.75,-0.881,0.257,0.283,-1.5,-6.71,-3.02,2,1
17153.765,-0.879,0.253,0.278,-1.25,-5.86,-3.54,2,1
17153.765,-0.888,0.252,0.274,0.46,-2.2,-3.11,2,1
17153.781,-0.899,0.25,0.282,1.16,-0.79,-2.35,2,1
17153.796,-0.905,0.248,0.297,1.62,-0.12,-1.1,2,1
17153.796,-0.908,0.244,0.313,1.8,-0.58,0.79,2,1
17153.812,-0.902,0.267,0.313,1.4,-2.38,1.98,2,1
17153.828,-0.906,0.262,0.306,0.73,-4.55,2.62,2,1
17153.828,-0.907,0.256,0.295,0.58,-6.35,2.2,2,1
17153.843,-0.91,0.258,0.284,0.76,-7.02,0.76,2,1
17153.843,-0.918,0.252,0.286,0.55,-6.2,-0.61,2,1
17153.859,-0.919,0.254,0.286,0.7,-4.88,-1.53,2,1
17153.875,-0.921,0.261,0.291,0.49,-3.75,-1.77,2,1
17153.875,-0.924,0.26,0.307,-0.27,-2.84,-1.25,2,1
17153.89,-0.92,0.256,0.317,-0.52,-2.56,-0.46,2,1
17153.906,-0.915,0.258,0.323,0.24,-3.17,-0.15,2,1
17153.906,-0.91,0.264,0.324,0.49,-4.49,-0.46,2,1
17153.921,-0.902,0.258,0.323,-0.09,-5.37,-0.12,2,1
17153.937,-0.893,0.253,0.323,-0.24,-5.46,1.25,2,1
17153.937,-0.886,0.255,0.312,0.37,-5.74,1.77,2,1
17153.953,-0.873,0.253,0.306,-0.09,-6.07,1.25,2,1
17153.968,-0.867,0.247,0.307,-0.85,-5.65,0.58,2,1
17153.968,-0.871,0.246,0.297,-0.21,-4.97,-0.4,2,1
17153.984,-0.873,0.246,0.295,-0.37,-4.24,-1.68,2,1
17154.0,-0.878,0.246,0.294,-1.43,-3.6,-2.66,2,1
17154.0,-0.883,0.247,0.296,-2.29,-2.93,-3.02,2,1
17154.015,-0.888,0.239,0.308,-2.66,-1.83,-2.2,2,1
17154.015,-0.892,0.237,0.31,-1.8,-0.85,-0.67,2,1
17154.031,-0.897,0.243,0.313,-0.73,-0.49,0.85,2,1
17154.046,-0.899,0.239,0.318,-0.15,-0.15,2.81,2,1
17154.046,-0.905,0.233,0.316,1.16,0.12,4.61,2,1
17154.062,-0.905,0.242,0.309,2.14,-0.21,4.82,2,1
17154.078,-0.911,0.247,0.31,1.34,-0.82,3.48,2,1
17154.078,-0.912,0.244,0.317,0.37,-1.71,2.23,2,1
17154.093,-0.907,0.243,0.32,0.4,-2.66,1.31,2,1
17154.093,-0.902,0.248,0.319,0.4,-3.51,0.7,2,1
17154.109,-0.895,0.253,0.318,0.09,-4.06,0.52,2,1
17154.125,-0.888,0.251,0.314,0.37,-4.36,0.89,2,1
17154.125,-0.881,0.249,0.305,1.13,-3.81,1.22,2,1
17154.14,-0.883,0.251,0.298,1.65,-2.75,1.37,2,1
17154.156,-0.888,0.252,0.297,1.86,-1.28,1.25,2,1
17154.156,-0.89,0.252,0.302,1.77,-0.03,0.79,2,1
17154.171,-0.893,0.256,0.308,1.74,0.55,0.09,2,1
17154.187,-0.896,0.256,0.318,1.59,0.46,-0.46,2,1
17154.187,-0.897,0.256,0.323,1.37,-0.18,-0.73,2,1
17154.203,-0.896,0.259,0.322,1.43,-0.95,-0.89,2,1
17154.218,-0.897,0.258,0.322,1.25,-1.59,-0.58,2,1
17154.218,-0.901,0.254,0.313,1.34,-1.83,0.09,2,1
17154.234,-0.905,0.257,0.306,1.53,-2.23,0.34,2,1
17154.234,-0.905,0.26,0.307,1.01,-2.35,0.27,2,1
17154.25,-0.898,0.261,0.306,0.64,-2.29,0.15,2,1
17154.265,-0.89,0.258,0.309,0.76,-2.2,0.27,2,1
17154.281,-0.882,0.252,0.314,0.82,-1.92,0.82,2,1
17154.281,-0.881,0.251,0.312,1.34,-1.74,1.28,2,1
17154.296,-0.882,0.255,0.31,1.71,-1.68,0.82,2,1
17154.296,-0.886,0.249,0.309,1.4,-1.59,0.09,2,1
17154.312,-0.887,0.242,0.312,1.04,-1.28,-0.4,2,1
17154.328,-0.889,0.243,0.313,1.31,-0.89,-0.46,2,1
17154.328,-0.888,0.249,0.315,1.28,-0.89,-0.52,2,1
17154.343,-0.893,0.248,0.319,1.22,-0.79,-0.06,2,1
17154.359,-0.898,0.254,0.314,1.56,-1.04,0.31,2,1
17154.359,-0.901,0.261,0.311,1.53,-1.59,0.31,2,1
17154.375,-0.905,0.26,0.31,0.82,-1.95,0.24,2,1
17154.375,-0.905,0.258,0.311,0.67,-1.98,0.55,2,1
17154.39,-0.901,0.26,0.312,1.04,-1.74,0.61,2,1
17154.406,-0.901,0.265,0.311,1.04,-1.74,0.52,2,1
17154.406,-0.897,0.264,0.314,0.79,-1.89,0.55,2,1
17154.421,-0.888,0.261,0.316,0.24,-1.74,0.85,2,1
17154.437,-0.884,0.254,0.318,0.4,-1.59,1.59,2,1
17154.437,-0.885,0.245,0.321,1.16,-1.4,2.41,2,1
17154.453,-0.887,0.242,0.316,1.71,-1.19,2.87,2,1
17154.453,-0.894,0.245,0.31,1.95,-1.04,2.66,2,1
17154.468,-0.903,0.25,0.309,1.53,-0.89,1.46,2,1
17154.484,-0.905,0.249,0.315,0.4,-1.19,-0.09,2,1
17154.484,-0.905,0.247,0.324,-0.15,-1.74,-1.34,2,1
17154.5,-0.904,0.253,0.327,0.15,-2.78,-2.01,2,1
17154.515,-0.902,0.26,0.327,0.46,-3.85,-2.08,2,1
17154.515,-0.9,0.261,0.32,0.46,-4.76,-1.8,2,1
17154.531,-0.898,0.266,0.312,0.43,-5.31,-1.28,2,1
17154.546,-0.895,0.265,0.304,0.21,-5.25,-0.64,2,1
17154.546,-0.892,0.266,0.298,-0.06,-4.46,-0.12,2,1
17154.562,-0.893,0.26,0.301,0.27,-3.23,0.12,2,1
17154.578,-0.889,0.259,0.304,0.55,-2.01,0.24,2,1
17154.578,-0.885,0.263,0.309,0.79,-0.85,0.37,2,1
17154.593,-0.888,0.267,0.312,0.79,-0.55,0.55,2,1
17154.593,-0.886,0.266,0.316,-0.09,-0.82,0.92,2,1
17154.609,-0.884,0.259,0.312,-0.31,-0.95,1.13,2,1
17154.625,-0.885,0.258,0.308,0.24,-0.7,0.98,2,1
17154.625,-0.891,0.262,0.305,0.55,-0.4,0.31,2,1
17154.64,-0.9,0.267,0.302,0.55,-0.27,-0.76,2,1
17154.656,-0.908,0.267,0.305,-0.12,-0.49,-1.68,2,1
17154.656,-0.914,0.261,0.309,-0.73,-0.52,-1.8,2,1
17154.671,-0.915,0.259,0.312,-0.52,-0.43,-0.95,2,1
17154.687,-0.908,0.255,0.316,0.43,-0.34,0.58,2,1
17154.687,-0.9,0.256,0.316,1.5,-0.34,1.8,2,1
17154.703,-0.893,0.252,0.312,2.78,-0.61,2.62,2,1
17154.718,-0.893,0.253,0.304,3.51,-0.89,2.47,2,1
17154.734,-0.888,0.258,0.297,3.36,-1.53,1.04,2,1
17154.734,-0.891,0.254,0.293,2.59,-1.71,-1.46,2,1
17154.75,-0.899,0.253,0.291,1.74,-1.31,-4.06,2,1
17154.765,-0.904,0.256,0.29,1.4,-0.52,-5.8,2,1
17154.781,-0.907,0.262,0.293,1.28,1.62,-6.78,2,1
17154.796,-0.911,0.267,0.304,1.71,2.23,-5.62,2,1
17154.796,-0.912,0.273,0.311,2.2,1.8,-4.0,2,1
17154.796,-0.909,0.281,0.317,2.01,0.98,-2.35,2,1
17154.796,-0.901,0.273,0.317,1.68,0.4,-0.46,2,1
17154.812,-0.888,0.271,0.311,1.68,-0.15,1.1,2,1
17154.828,-0.881,0.265,0.309,1.89,-0.24,2.26,2,1
17154.828,-0.884,0.261,0.304,2.01,0.12,2.87,2,1
17154.843,-0.89,0.254,0.306,2.14,0.21,3.08,2,1
17154.859,-0.895,0.252,0.313,1.83,0.12,3.05,2,1
17154.859,-0.894,0.25,0.319,1.19,-0.24,3.02,2,1
17154.875,-0.888,0.249,0.329,0.76,-0.79,2.93,2,1
17154.875,-0.88,0.246,0.335,0.82,-1.43,3.23,2,1
17154.89,-0.873,0.246,0.33,1.16,-2.2,3.63,2,1
17154.906,-0.867,0.247,0.326,1.77,-2.84,4.18,2,1
17154.906,-0.862,0.245,0.312,2.04,-3.14,4.3,2,1
17154.921,-0.862,0.243,0.305,1.89,-2.35,4.09,2,1
17154.937,-0.865,0.243,0.303,1.62,-0.73,3.63,2,1
17154.937,-0.873,0.249,0.303,1.31,1.1,2.75,2,1
17154.953,-0.876,0.252,0.314,1.1,2.59,1.89,2,1
17154.968,-0.885,0.256,0.325,1.34,3.66,1.16,2,1
17154.968,-0.893,0.261,0.332,1.65,3.54,0.76,2,1
17154.984,-0.899,0.267,0.334,1.68,2.66,0.52,2,1
17154.984,-0.906,0.273,0.329,1.43,1.43,0.31,2,1
17155.0,-0.907,0.278,0.321,0.43,-0.34,-0.46,2,1
17155.015,-0.91,0.283,0.311,-0.49,-1.8,-1.25,2,1
17155.031,-0.915,0.289,0.3,-1.77,-2.38,-1.62,2,1
17155.031,-0.928,0.296,0.296,-3.14,-2.01,-0.64,2,1
17155.046,-0.935,0.301,0.295,-3.94,-0.7,2.32,2,1
17155.046,-0.934,0.316,0.289,-4.15,0.92,6.84,2,1
17155.062,-0.923,0.322,0.292,-4.43,1.8,11.41,2,1
17155.078,-0.906,0.324,0.297,-3.6,2.47,14.71,2,1
17155.078,-0.894,0.316,0.291,-1.92,3.57,16.51,2,1
17155.093,-0.885,0.296,0.286,-0.34,4.64,16.85,2,1
17155.109,-0.879,0.276,0.291,1.1,6.1,15.78,2,1
17155.109,-0.884,0.266,0.294,1.59,7.23,13.64,2,1
17155.125,-0.899,0.254,0.308,0.82,7.75,11.11,2,1
17155.125,-0.906,0.247,0.308,-0.43,7.45,8.55,2,1
17155.14,-0.917,0.23,0.328,-0.15,7.2,6.32,2,1
17155.156,-0.922,0.231,0.331,-0.52,6.44,4.91,2,1
17155.156,-0.919,0.234,0.343,0.31,5.4,4.06,2,1
17155.171,-0.911,0.241,0.348,0.79,3.54,3.39,2,1
17155.187,-0.894,0.253,0.344,1.22,1.34,2.62,2,1
17155.187,-0.88,0.255,0.342,1.56,-1.1,1.46,2,1
17155.203,-0.867,0.256,0.339,1.68,-3.39,-0.15,2,1
17155.218,-0.845,0.263,0.328,1.56,-5.31,-2.29,2,1
17155.218,-0.835,0.268,0.317,0.61,-6.65,-4.67,2,1
17155.234,-0.833,0.265,0.311,-0.64,-6.96,-6.44,2,1
17155.234,-0.829,0.268,0.302,-1.65,-6.44,-6.84,2,1
17155.25,-0.834,0.264,0.301,-1.74,-4.64,-5.31,2,1
17155.265,-0.838,0.26,0.3,-1.28,-1.86,-2.66,2,1
17155.265,-0.85,0.256,0.302,-0.09,1.25,0.73,2,1
17155.281,-0.86,0.257,0.31,0.98,4.33,4.18,2,1
17155.296,-0.867,0.262,0.316,2.14,6.29,6.78,2,1
17155.312,-0.874,0.271,0.323,2.53,6.84,7.51,2,1
17155.312,-0.881,0.277,0.326,1.59,5.95,6.62,2,1
17155.328,-0.892,0.275,0.325,0.21,4.52,4.94,2,1
17155.328,-0.901,0.271,0.327,-0.82,3.2,3.23,2,1
17155.343,-0.906,0.266,0.329,-1.43,2.32,2.35,2,1
17155.359,-0.909,0.266,0.326,-1.37,1.98,1.95,2,1
17155.359,-0.909,0.268,0.33,-1.37,1.98,1.92,2,1
17155.375,-0.9,0.27,0.334,-1.92,2.11,2.59,2,1
17155.39,-0.889,0.27,0.34,-2.08,2.53,3.57,2,1
17155.39,-0.879,0.267,0.346,-2.32,3.17,4.58,2,1
17155.406,-0.868,0.274,0.354,-2.96,3.75,4.97,2,1
17155.406,-0.868,0.279,0.37,-4.18,4.03,4.49,2,1
17155.421,-0.873,0.284,0.383,-6.2,3.63,3.54,2,1
17155.437,-0.877,0.291,0.392,-9.03,2.11,2.75,2,1
17155.437,-0.885,0.28,0.409,-11.63,0.61,3.39,2,1
17155.453,-0.888,0.274,0.411,-13.15,-0.7,5.34,2,1
17155.468,-0.889,0.279,0.403,-13.92,-1.56,7.45,2,1
17155.468,-0.891,0.285,0.395,-14.83,-1.77,9.16,2,1
17155.484,-0.879,0.282,0.384,-16.42,-1.34,10.44,2,1
17155.484,-0.866,0.272,0.378,-17.91,0.43,10.99,2,1
17155.5,-0.85,0.27,0.378,-18.4,3.27,10.86,2,1
17155.515,-0.842,0.276,0.382,-18.92,6.04,9.67,2,1
17155.515,-0.842,0.279,0.386,-19.87,8.45,8.33,2,1
17155.531,-0.843,0.284,0.394,-22.0,10.25,6.59,2,1
17155.546,-0.841,0.287,0.406,-24.93,11.26,4.55,2,1
17155.562,-0.828,0.298,0.419,-28.6,11.32,2.66,2,1
17155.562,-0.813,0.301,0.428,-32.38,11.11,1.56,2,1
17155.578,-0.802,0.296,0.434,-35.49,11.23,2.01,2,1
17155.578,-0.797,0.288,0.434,-37.51,11.93,3.14,2,1
17155.593,-0.807,0.283,0.425,-38.67,12.97,4.64,2,1
17155.609,-0.821,0.287,0.415,-39.58,13.86,5.71,2,1
17155.609,-0.837,0.287,0.404,-41.11,15.02,6.2,2,1
17155.625,-0.85,0.299,0.395,-43.34,15.93,6.62,2,1
17155.625,-0.858,0.309,0.39,-45.99,16.39,6.65,2,1
17155.64,-0.873,0.312,0.393,-48.62,16.63,5.98,2,1
17155.656,-0.885,0.319,0.403,-51.7,16.17,4.94,2,1
17155.656,-0.889,0.327,0.418,-55.02,15.05,4.55,2,1
17155.671,-0.885,0.32,0.437,-57.59,13.64,6.5,2,1
17155.687,-0.87,0.305,0.449,-57.95,12.15,11.26,2,1
17155.703,-0.848,0.291,0.446,-55.94,10.83,18.01,2,1
17155.703,-0.831,0.28,0.428,-52.74,9.77,25.73,2,1
17155.718,-0.827,0.273,0.398,-49.29,9.61,32.65,2,1
17155.718,-0.819,0.27,0.372,-47.27,11.2,37.6,2,1
17155.734,-0.809,0.268,0.356,-46.57,14.04,39.8,2,1
17155.75,-0.804,0.273,0.353,-47.09,21.06,37.26,2,1
17155.75,-0.807,0.276,0.364,-47.18,23.16,34.06,2,1
17155.765,-0.82,0.279,0.378,-46.66,23.53,30.64,2,1
17155.765,-0.828,0.278,0.397,-45.99,22.1,27.5,2,1
17155.781,-0.834,0.302,0.4,-46.11,19.81,24.75,2,1
17155.796,-0.845,0.318,0.392,-46.63,17.09,22.74,2,1
17155.796,-0.846,0.322,0.387,-47.21,14.98,21.73,2,1
17155.812,-0.844,0.319,0.379,-46.21,13.86,21.94,2,1
17155.828,-0.852,0.321,0.37,-43.28,14.07,22.95,2,1
17155.828,-0.857,0.324,0.366,-39.83,15.78,24.11,2,1
17155.843,-0.858,0.322,0.367,-35.62,18.13,25.39,2,1
17155.859,-0.858,0.323,0.371,-31.4,19.96,26.31,2,1
17155.859,-0.862,0.323,0.372,-27.89,20.69,25.76,2,1
17155.875,-0.864,0.318,0.366,-25.64,19.62,23.1,2,1
17155.875,-0.865,0.316,0.367,-24.9,17.21,18.77,2,1
17155.89,-0.867,0.316,0.363,-24.81,13.92,13.28,2,1
17155.906,-0.858,0.314,0.351,-24.35,10.1,7.87,2,1
17155.906,-0.855,0.31,0.337,-22.74,7.2,2.69,2,1
17155.921,-0.862,0.317,0.313,-20.29,5.22,-2.5,2,1
17155.937,-0.869,0.331,0.295,-18.86,3.91,-7.42,2,1
17155.937,-0.871,0.344,0.28,-18.46,3.42,-11.08,2,1
17155.953,-0.879,0.358,0.274,-17.55,4.09,-13.43,2,1
17155.953,-0.882,0.359,0.276,-15.63,5.83,-14.53,2,1
17155.968,-0.889,0.359,0.276,-12.54,7.69,-14.8,2,1
17155.984,-0.9,0.359,0.282,-9.13,8.55,-14.37,2,1
17155.984,-0.91,0.355,0.284,-6.16,8.21,-13.4,2,1
17156.0,-0.914,0.355,0.269,-4.46,7.02,-11.57,2,1
17156.015,-0.915,0.353,0.263,-3.51,5.8,-9.06,2,1
17156.015,-0.924,0.355,0.249,-2.11,4.97,-6.59,2,1
17156.031,-0.936,0.353,0.24,-0.46,4.46,-4.97,2,1
17156.046,-0.933,0.344,0.244,0.95,3.66,-4.67,2,1
17156.046,-0.929,0.331,0.243,2.66,3.11,-4.91,2,1
17156.062,-0.929,0.319,0.245,3.97,2.62,-5.74,2,1
17156.078,-0.923,0.302,0.25,4.85,2.2,-6.74,2,1
17156.078,-0.927,0.298,0.253,5.52,2.32,-7.6,2,1
17156.093,-0.934,0.305,0.251,6.53,1.95,-7.87,2,1
17156.093,-0.946,0.312,0.255,7.35,1.22,-7.48,2,1
17156.109,-0.952,0.317,0.254,7.87,0.09,-6.35,2,1
17156.125,-0.954,0.324,0.242,9.03,-1.04,-4.21,2,1
17156.125,-0.944,0.318,0.252,11.32,-2.2,-1.74,2,1
17156.14,-0.94,0.312,0.244,14.01,-3.27,0.09,2,1
17156.156,-0.933,0.307,0.232,15.93,-4.52,1.07,2,1
17156.156,-0.924,0.302,0.223,16.33,-6.71,0.4,2,1
17156.171,-0.923,0.291,0.215,15.69,-9.4,-2.87,2,1
17156.187,-0.915,0.272,0.204,14.74,-12.18,-9.43,2,1
17156.187,-0.907,0.263,0.2,14.4,-15.63,-18.25,2,1
17156.203,-0.903,0.266,0.191,13.52,-19.56,-28.78,2,1
17156.218,-0.904,0.267,0.195,11.14,-23.29,-39.67,2,1
17156.218,-0.906,0.273,0.193,9.0,-27.34,-50.2,2,1
17156.234,-0.92,0.271,0.182,7.9,-31.13,-58.93,2,1
17156.25,-0.936,0.282,0.171,5.65,-32.53,-63.57,2,1
17156.25,-0.937,0.292,0.17,2.38,-30.98,-64.82,2,1
17156.265,-0.941,0.277,0.175,-1.34,-27.74,-63.2,2,1
17156.265,-0.936,0.246,0.199,-2.11,-24.41,-57.47,2,1
17156.281,-0.942,0.237,0.211,2.01,-17.7,-51.94,2,1
17156.296,-0.965,0.239,0.218,4.55,-11.63,-45.29,2,1
17156.296,-0.978,0.224,0.232,5.62,-8.91,-36.19,2,1
17156.312,-0.97,0.24,0.242,7.32,-6.23,-26.43,2,1
17156.328,-0.955,0.257,0.242,8.67,-4.09,-16.57,2,1
17156.328,-0.943,0.254,0.24,10.47,-1.98,-8.03,2,1
17156.343,-0.933,0.236,0.241,12.82,0.0,0.09,2,1
17156.343,-0.919,0.213,0.245,15.59,2.29,7.63,2,1
17156.359,-0.919,0.196,0.245,18.89,5.55,11.38,2,1
17156.375,-0.927,0.177,0.253,21.3,8.27,12.33,2,1
17156.375,-0.926,0.17,0.269,21.67,8.64,11.66,2,1
17156.39,-0.925,0.164,0.281,20.94,7.54,9.52,2,1
17156.406,-0.932,0.151,0.299,19.47,5.31,6.53,2,1
17156.406,-0.932,0.146,0.313,18.31,2.08,3.27,2,1
17156.421,-0.929,0.143,0.316,17.91,-0.82,0.49,2,1
17156.437,-0.917,0.145,0.313,17.55,-3.33,-0.58,2,1
17156.437,-0.898,0.159,0.307,18.13,-5.07,-0.49,2,1
17156.453,-0.886,0.177,0.298,19.99,-5.58,0.37,2,1
17156.468,-0.875,0.19,0.284,22.06,-5.62,1.74,2,1
17156.468,-0.863,0.198,0.269,23.87,-5.37,2.84,2,1
17156.484,-0.856,0.203,0.261,25.09,-4.94,2.93,2,1
17156.484,-0.85,0.21,0.24,25.39,-4.3,2.78,2,1
17156.5,-0.855,0.213,0.241,24.75,-2.59,2.08,2,1
17156.515,-0.863,0.211,0.247,23.8,-0.79,1.31,2,1
17156.515,-0.879,0.203,0.261,24.57,0.64,0.49,2,1
17156.531,-0.896,0.202,0.272,26.76,1.5,0.79,2,1
17156.546,-0.905,0.227,0.275,29.15,1.56,2.38,2,1
17156.546,-0.903,0.268,0.282,29.08,-0.09,5.77,2,1
17156.562,-0.905,0.294,0.288,27.83,-3.33,10.22,2,1
17156.578,-0.905,0.294,0.296,26.61,-7.26,15.26,2,1
17156.578,-0.898,0.282,0.301,26.46,-10.62,19.96,2,1
17156.593,-0.904,0.271,0.287,27.95,-12.42,23.99,2,1
17156.609,-0.911,0.254,0.272,30.37,-12.24,27.83,2,1
17156.609,-0.902,0.26,0.249,31.98,-10.74,30.73,2,1
17156.625,-0.893,0.273,0.222,31.62,-7.14,31.65,2,1
17156.625,-0.881,0.266,0.207,29.33,-3.54,30.67,2,1
17156.64,-0.868,0.254,0.203,27.59,-0.73,27.83,2,1
17156.656,-0.861,0.261,0.204,26.58,1.46,23.77,2,1
17156.656,-0.852,0.277,0.2,24.05,3.02,18.65,2,1
17156.671,-0.848,0.282,0.203,20.11,4.46,13.12,2,1
17156.687,-0.846,0.268,0.213,16.33,5.43,7.69,2,1
17156.687,-0.845,0.263,0.22,13.73,6.62,2.9,2,1
17156.703,-0.851,0.271,0.221,12.42,8.06,-1.37,2,1
17156.718,-0.862,0.281,0.224,11.44,9.67,-4.58,2,1
17156.718,-0.873,0.287,0.24,9.83,11.23,-5.95,2,1
17156.734,-0.879,0.285,0.254,11.2,11.02,-4.58,2,1
17156.734,-0.883,0.262,0.261,13.31,10.8,-3.39,2,1
17156.75,-0.877,0.27,0.27,15.35,10.41,-4.76,2,1
17156.765,-0.914,0.264,0.264,15.02,7.26,-3.51,2,1
17156.765,-0.913,0.3,0.257,16.42,3.51,-7.39,2,1
17156.781,-0.934,0.302,0.253,14.89,1.34,-12.05,2,1
17156.796,-0.929,0.299,0.276,9.49,-2.29,-15.32,2,1
17156.796,-0.921,0.294,0.3,7.23,-4.85,-17.3,2,1
17156.812,-0.907,0.279,0.307,7.97,-7.9,-15.87,2,1
17156.828,-0.89,0.287,0.307,10.86,-10.62,-11.99,2,1
17156.828,-0.878,0.287,0.287,15.14,-12.67,-7.02,2,1
17156.843,-0.863,0.289,0.261,18.62,-14.86,-1.43,2,1
17156.843,-0.855,0.297,0.23,20.26,-15.53,1.68,2,1
17156.859,-0.861,0.285,0.206,19.65,-14.89,2.26,2,1
17156.875,-0.877,0.283,0.182,18.46,-13.43,0.27,2,1
17156.875,-0.895,0.287,0.163,16.36,-11.96,-3.14,2,1
17156.89,-0.899,0.294,0.162,13.73,-10.56,-7.39,2,1
17156.906,-0.904,0.309,0.158,11.08,-8.64,-12.24,2,1
17156.921,-0.904,0.313,0.161,7.14,-7.29,-16.27,2,1
17156.921,-0.902,0.315,0.176,3.85,-6.01,-17.94,2,1
17156.937,-0.915,0.298,0.188,3.57,-4.36,-16.42,2,1
17156.937,-0.916,0.285,0.201,5.55,-2.08,-12.02,2,1
17156.953,-0.926,0.28,0.206,9.0,1.19,-7.84,2,1
17156.968,-0.939,0.258,0.224,12.33,5.25,-3.81,2,1
17156.968,-0.94,0.246,0.243,15.23,9.16,-0.03,2,1
17156.984,-0.945,0.25,0.249,17.27,11.35,1.59,2,1
17156.984,-0.955,0.251,0.262,16.63,11.23,0.67,2,1
17157.0,-0.958,0.252,0.27,14.86,8.33,-2.32,2,1
17157.015,-0.959,0.253,0.264,12.27,3.57,-6.96,2,1
17157.031,-0.955,0.229,0.266,8.97,-1.22,-11.35,2,1
17157.031,-0.947,0.207,0.274,7.63,-4.3,-13.49,2,1
17157.046,-0.94,0.207,0.262,8.85,-5.92,-13.92,2,1
17157.046,-0.94,0.201,0.254,10.65,-6.29,-13.73,2,1
17157.062,-0.948,0.198,0.247,12.45,-5.65,-13.18,2,1
17157.078,-0.954,0.2,0.247,14.13,-4.7,-12.24,2,1
17157.078,-0.947,0.197,0.252,16.21,-4.06,-10.35,2,1
17157.093,-0.94,0.199,0.252,18.89,-3.51,-8.03,2,1
17157.109,-0.944,0.212,0.249,21.39,-4.24,-6.32,2,1
17157.109,-0.957,0.238,0.232,22.71,-6.59,-6.32,2,1
17157.125,-0.964,0.271,0.215,20.72,-10.28,-7.08,2,1
17157.14,-0.976,0.297,0.21,16.36,-13.31,-8.45,2,1
17157.14,-0.965,0.295,0.219,12.3,-14.65,-8.48,2,1
17157.156,-0.945,0.297,0.225,11.14,-13.15,-6.87,2,1
17157.156,-0.949,0.286,0.228,13.64,-9.67,-3.14,2,1
17157.171,-0.954,0.281,0.236,17.49,-5.19,1.95,2,1
17157.187,-0.978,0.291,0.24,21.21,-1.43,6.16,2,1
17157.187,-1.002,0.289,0.252,23.65,0.89,9.55,2,1
17157.203,-1.009,0.295,0.265,24.99,1.98,11.54,2,1
17157.218,-1.017,0.295,0.275,25.09,1.53,11.38,2,1
17157.218,-1.021,0.281,0.292,23.71,-0.76,10.32,2,1
17157.234,-1.017,0.275,0.302,23.07,-4.52,9.22,2,1
17157.234,-1.013,0.274,0.293,23.32,-8.94,8.15,2,1
17157.25,-0.989,0.266,0.285,22.98,-13.43,8.58,2,1
17157.265,-0.961,0.268,0.268,23.71,-16.85,9.09,2,1
17157.265,-0.948,0.277,0.242,24.96,-19.26,7.6,2,1
17157.281,-0.934,0.286,0.218,24.02,-20.66,5.1,2,1
17157.296,-0.913,0.295,0.214,21.79,-20.45,1.16,2,1
17157.296,-0.912,0.292,0.211,20.08,-18.07,-3.27,2,1
17157.312,-0.921,0.286,0.22,19.96,-15.44,-7.72,2,1
17157.328,-0.925,0.311,0.222,19.84,-13.98,-11.99,2,1
17157.328,-0.929,0.326,0.228,18.1,-13.89,-15.75,2,1
17157.343,-0.925,0.327,0.238,14.92,-14.77,-17.79,2,1
17157.359,-0.922,0.334,0.245,12.76,-16.21,-18.95,2,1
17157.359,-0.931,0.332,0.251,11.81,-17.64,-19.75,2,1
17157.375,-0.927,0.317,0.252,11.05,-18.89,-18.8,2,1
17157.375,-0.921,0.307,0.262,11.51,-19.38,-15.99,2,1
17157.39,-0.912,0.3,0.248,13.21,-18.8,-12.51,2,1
17157.406,-0.893,0.3,0.244,14.98,-17.18,-8.79,2,1
17157.421,-0.884,0.305,0.243,16.39,-15.81,-6.2,2,1
17157.421,-0.883,0.306,0.23,16.24,-14.68,-5.04,2,1
17157.437,-0.879,0.299,0.226,15.14,-14.22,-5.16,2,1
17157.437,-0.858,0.289,0.237,13.18,-13.55,-5.65,2,1
17157.453,-0.852,0.282,0.241,12.27,-11.99,-6.1,2,1
17157.468,-0.861,0.281,0.248,12.7,-10.47,-6.74,2,1
17157.468,-0.867,0.294,0.25,12.27,-10.47,-7.78,2,1
17157.484,-0.875,0.299,0.252,10.35,-11.63,-9.25,2,1
17157.484,-0.881,0.288,0.257,8.15,-13.12,-10.47,2,1
17157.5,-0.887,0.276,0.261,7.29,-14.68,-11.81,2,1
17157.515,-0.888,0.266,0.259,7.84,-16.14,-12.63,2,1
17157.515,-0.886,0.274,0.255,7.6,-16.94,-12.6,2,1
17157.531,-0.876,0.265,0.254,7.14,-16.75,-10.44,2,1
17157.546,-0.882,0.25,0.259,9.03,-15.63,-7.26,2,1
17157.562,-0.884,0.25,0.25,12.94,-14.53,-4.06,2,1
17157.562,-0.876,0.257,0.232,15.69,-13.49,-1.83,2,1
17157.578,-0.874,0.252,0.223,16.45,-11.2,-1.22,2,1
17157.578,-0.882,0.243,0.234,15.56,-9.0,-2.81,2,1
17157.593,-0.865,0.236,0.252,14.77,-7.32,-4.85,2,1
17157.609,-0.881,0.24,0.265,14.86,-5.46,-7.63,2,1
17157.609,-0.905,0.245,0.271,14.77,-5.28,-11.17,2,1
17157.625,-0.894,0.25,0.271,12.3,-6.87,-14.31,2,1
17157.625,-0.889,0.248,0.272,9.64,-7.97,-16.88,2,1
17157.64,-0.896,0.238,0.28,8.91,-8.06,-17.73,2,1
17157.656,-0.9,0.244,0.279,9.34,-7.81,-18.46,2,1
17157.671,-0.902,0.25,0.273,9.7,-8.0,-18.25,2,1
17157.671,-0.908,0.253,0.277,10.22,-7.81,-18.16,2,1
17157.687,-0.916,0.255,0.276,10.13,-7.72,-18.49,2,1
17157.687,-0.915,0.258,0.273,9.16,-8.48,-18.34,2,1
17157.703,-0.915,0.26,0.266,8.48,-9.34,-18.16,2,1
17157.718,-0.901,0.248,0.25,7.69,-10.22,-15.99,2,1
17157.718,-0.891,0.239,0.242,9.28,-9.25,-13.4,2,1
17157.734,-0.87,0.264,0.264,10.19,-8.51,-10.77,2,1
17157.734,-0.861,0.261,0.296,8.33,-8.73,-8.21,2,1
17157.75,-0.865,0.24,0.297,6.44,-10.19,-6.16,2,1
17157.765,-0.88,0.235,0.28,5.58,-10.38,-7.05,2,1
17157.781,-0.899,0.229,0.263,3.48,-9.55,-9.55,2,1
17157.781,-0.905,0.234,0.265,-0.55,-8.7,-12.05,2,1
17157.796,-0.881,0.236,0.276,-4.0,-8.03,-13.7,2,1
17157.796,-0.856,0.236,0.267,-4.58,-7.2,-14.22,2,1
17157.812,-0.848,0.242,0.259,-4.03,-5.4,-13.4,2,1
17157.828,-0.859,0.229,0.267,-3.66,-3.14,-11.6,2,1
17157.828,-0.883,0.214,0.277,-2.87,-0.95,-10.68,2,1
17157.843,-0.904,0.211,0.286,-1.98,1.07,-11.2,2,1
17157.843,-0.925,0.22,0.3,-2.62,2.41,-12.05,2,1
17157.859,-0.931,0.214,0.317,-3.39,2.75,-12.05,2,1
17157.875,-0.928,0.208,0.329,-3.14,2.29,-10.59,2,1
17157.875,-0.934,0.201,0.339,-1.56,1.37,-8.03,2,1
17157.89,-0.931,0.194,0.34,0.55,0.06,-4.85,2,1
17157.906,-0.925,0.188,0.335,2.35,-1.28,-2.26,2,1
17157.906,-0.937,0.182,0.324,3.66,-2.23,-1.07,2,1
17157.921,-0.945,0.191,0.318,3.63,-2.81,-1.74,2,1
17157.937,-0.95,0.2,0.315,2.38,-3.05,-4.09,2,1
17157.937,-0.948,0.192,0.317,0.46,-3.33,-6.26,2,1
17157.953,-0.936,0.195,0.323,0.31,-3.66,-7.84,2,1
17157.968,-0.931,0.202,0.319,1.98,-3.57,-7.57,2,1
17157.968,-0.917,0.214,0.311,3.11,-3.14,-6.01,2,1
17157.984,-0.909,0.217,0.312,3.66,-2.53,-4.73,2,1
17157.984,-0.916,0.205,0.316,4.49,-1.86,-4.09,2,1
17158.0,-0.908,0.2,0.325,5.22,-1.8,-3.48,2,1
17158.015,-0.903,0.209,0.323,6.13,-1.8,-3.36,2,1
17158.015,-0.928,0.212,0.32,5.98,-1.71,-3.69,2,1
17158.031,-0.934,0.21,0.327,3.91,-2.53,-4.39,2,1
17158.046,-0.93,0.206,0.328,1.8,-3.91,-6.16,2,1
17158.046,-0.918,0.205,0.324,0.55,-5.4,-7.78,2,1
17158.062,-0.919,0.205,0.324,-0.06,-6.47,-8.7,2,1
17158.078,-0.918,0.2,0.322,-0.21,-7.02,-8.7,2,1
17158.078,-0.915,0.192,0.322,0.03,-6.9,-7.84,2,1
17158.093,-0.915,0.193,0.324,0.67,-6.71,-6.74,2,1
17158.109,-0.924,0.196,0.328,1.46,-6.44,-6.35,2,1
17158.109,-0.925,0.196,0.332,1.59,-6.9,-6.35,2,1
17158.125,-0.916,0.205,0.338,1.16,-8.3,-6.23,2,1
17158.125,-0.898,0.22,0.336,0.27,-10.83,-6.04,2,1
17158.14,-0.883,0.224,0.327,-1.92,-13.92,-5.98,2,1
17158.156,-0.885,0.211,0.332,-4.12,-15.81,-5.37,2,1
17158.156,-0.882,0.201,0.342,-5.04,-17.46,-4.49,2,1
17158.171,-0.881,0.192,0.339,-5.55,-18.62,-5.01,2,1
17158.187,-0.891,0.176,0.327,-5.77,-18.28,-5.62,2,1
17158.187,-0.89,0.177,0.318,-6.41,-16.88,-5.98,2,1
17158.203,-0.883,0.168,0.302,-5.89,-13.86,-5.77,2,1
17158.203,-0.879,0.151,0.293,-3.57,-8.61,-5.65,2,1
17158.218,-0.878,0.152,0.302,-0.55,-2.99,-5.62,2,1
17158.234,-0.894,0.163,0.318,2.38,1.95,-5.77,2,1
17158.25,-0.912,0.174,0.337,3.88,5.1,-6.1,2,1
17158.25,-0.924,0.179,0.362,3.39,5.86,-6.07,2,1
17158.265,-0.933,0.172,0.386,3.02,4.73,-5.37,2,1
17158.265,-0.935,0.172,0.395,3.75,2.23,-4.18,2,1
17158.281,-0.929,0.18,0.389,4.79,-1.07,-3.3,2,1
17158.296,-0.931,0.182,0.373,4.79,-4.15,-3.17,2,1
17158.296,-0.919,0.182,0.355,3.17,-7.05,-3.54,2,1
17158.312,-0.906,0.179,0.34,1.71,-8.73,-4.39,2,1
17158.328,-0.89,0.177,0.325,1.46,-8.79,-5.01,2,1
17158.328,-0.875,0.182,0.311,1.31,-7.97,-4.94,2,1
17158.343,-0.869,0.186,0.308,1.68,-5.77,-4.73,2,1
17158.343,-0.873,0.186,0.307,2.87,-2.35,-4.24,2,1
17158.359,-0.881,0.194,0.308,3.94,1.01,-3.63,2,1
17158.375,-0.902,0.205,0.321,4.46,3.33,-3.81,2,1
17158.375,-0.917,0.208,0.338,3.85,4.12,-3.88,2,1
17158.39,-0.919,0.209,0.349,2.87,3.17,-3.72,2,1
17158.406,-0.916,0.21,0.354,1.98,1.5,-2.69,2,1
17158.406,-0.908,0.207,0.354,1.19,-0.52,-1.1,2,1
17158.421,-0.91,0.199,0.347,1.22,-2.08,0.61,2,1
17158.437,-0.901,0.191,0.341,1.65,-3.14,2.23,2,1
17158.437,-0.887,0.19,0.328,2.17,-3.88,2.84,2,1
17158.453,-0.887,0.188,0.317,2.29,-3.3,2.59,2,1
17158.468,-0.885,0.193,0.317,1.31,-2.29,1.77,2,1
17158.468,-0.885,0.208,0.321,-0.37,-1.43,0.34,2,1
17158.484,-0.896,0.206,0.323,-1.5,-0.03,-0.98,2,1
17158.484,-0.904,0.199,0.33,-2.14,1.28,-0.98,2,1
17158.5,-0.912,0.202,0.338,-1.65,1.95,-0.34,2,1
17158.515,-0.912,0.203,0.339,-1.04,2.23,0.98,2,1
17158.515,-0.913,0.2,0.346,-0.18,2.14,2.56,2,1
17158.531,-0.921,0.201,0.35,-0.09,1.43,3.63,2,1
17158.546,-0.929,0.197,0.354,-0.31,0.46,3.91,2,1
17158.546,-0.926,0.195,0.35,-0.43,-0.85,3.6,2,1
17158.562,-0.915,0.19,0.346,-0.67,-2.14,3.33,2,1
17158.578,-0.908,0.182,0.345,-1.19,-3.17,3.11,2,1
17158.578,-0.908,0.179,0.342,-1.22,-3.85,2.84,2,1
17158.593,-0.909,0.178,0.334,-0.52,-3.91,3.08,2,1
17158.593,-0.907,0.178,0.329,0.09,-3.3,3.54,2,1
17158.609,-0.903,0.183,0.323,0.58,-2.47,3.23,2,1
17158.625,-0.9,0.196,0.327,0.58,-1.59,2.11,2,1
17158.625,-0.892,0.205,0.331,0.12,-1.13,1.19,2,1
17158.64,-0.896,0.207,0.335,-1.04,-1.19,0.18,2,1
17158.656,-0.907,0.203,0.343,-2.29,-1.62,-0.37,2,1
17158.656,-0.906,0.204,0.344,-2.96,-1.8,0.15,2,1
17158.671,-0.899,0.199,0.348,-2.93,-1.86,1.59,2,1
17158.687,-0.894,0.192,0.352,-2.11,-1.86,3.11,2,1
17158.687,-0.887,0.197,0.346,-0.95,-2.32,3.72,2,1
17158.703,-0.892,0.206,0.338,-2.56,-2.96,3.2,2,1
17158.718,-0.89,0.2,0.338,-3.69,-2.87,2.81,2,1
17158.718,-0.89,0.175,0.345,-2.69,-2.26,3.05,2,1
17158.734,-0.892,0.167,0.344,-0.7,-1.65,3.75,2,1
17158.734,-0.895,0.168,0.346,0.95,-0.98,3.66,2,1
17158.75,-0.903,0.177,0.346,1.07,-0.95,2.69,2,1
17158.765,-0.897,0.182,0.338,-0.09,-1.65,1.28,2,1
17158.781,-0.897,0.187,0.334,-1.34,-1.8,-0.89,2,1
17158.781,-0.902,0.179,0.346,-1.86,-1.83,-2.75,2,1
17158.796,-0.905,0.187,0.349,-2.35,-2.41,-4.33,2,1
17158.796,-0.91,0.19,0.34,-1.8,-2.35,-4.49,2,1
17158.812,-0.91,0.19,0.342,-1.8,-1.98,-2.53,2,1
17158.828,-0.909,0.19,0.344,-0.7,-1.4,-0.27,2,1
17158.828,-0.913,0.182,0.34,1.19,-0.82,1.22,2,1
17158.843,-0.918,0.193,0.335,2.26,-0.98,1.59,2,1
17158.859,-0.914,0.208,0.324,1.71,-1.98,1.59,2,1
17158.859,-0.906,0.204,0.323,-0.09,-3.17,2.23,2,1
17158.875,-0.906,0.192,0.323,-0.95,-4.0,3.66,2,1
17158.875,-0.904,0.193,0.316,0.34,-3.78,5.25,2,1
17158.89,-0.909,0.202,0.311,1.83,-2.26,6.01,2,1
17158.906,-0.902,0.2,0.312,1.8,-0.58,5.62,2,1
17158.906,-0.891,0.201,0.323,1.04,0.76,4.3,2,1
17158.921,-0.891,0.2,0.339,0.76,1.83,3.6,2,1
17158.937,-0.889,0.2,0.352,0.73,2.17,3.91,2,1
17158.937,-0.888,0.206,0.359,0.82,1.74,4.39,2,1
17158.953,-0.892,0.208,0.36,0.34,0.55,4.76,2,1
17158.968,-0.894,0.208,0.36,-0.85,-1.1,4.7,2,1
17158.968,-0.899,0.211,0.361,-2.29,-2.62,4.06,2,1
17158.984,-0.901,0.206,0.357,-3.36,-3.39,3.48,2,1
17159.0,-0.896,0.194,0.355,-3.75,-3.72,3.3,2,1
17159.0,-0.895,0.188,0.351,-3.08,-3.27,3.14,2,1
17159.015,-0.907,0.185,0.35,-2.38,-2.11,2.2,2,1
17159.015,-0.91,0.178,0.354,-2.08,-0.95,1.71,2,1
17159.031,-0.903,0.18,0.362,-1.56,-0.24,1.68,2,1
17159.046,-0.905,0.184,0.365,-0.89,-0.18,1.37,2,1
17159.046,-0.907,0.184,0.367,-0.82,-0.92,0.82,2,1
17159.062,-0.906,0.184,0.369,-1.16,-1.65,-0.12,2,1
17159.078,-0.911,0.181,0.369,-1.62,-2.26,-1.46,2,1
17159.078,-0.916,0.186,0.366,-2.17,-2.87,-2.9,2,1
17159.093,-0.919,0.198,0.364,-2.35,-3.69,-3.57,2,1
17159.093,-0.911,0.204,0.36,-2.81,-4.49,-3.88,2,1
17159.109,-0.918,0.202,0.361,-3.02,-4.85,-3.2,2,1
17159.125,-0.921,0.196,0.362,-2.23,-4.88,-1.1,2,1
17159.125,-0.907,0.196,0.36,-0.76,-4.49,1.28,2,1
17159.14,-0.903,0.195,0.354,1.19,-3.94,2.81,2,1
17159.156,-0.899,0.2,0.349,1.77,-3.91,3.33,2,1
17159.156,-0.888,0.2,0.348,1.34,-4.18,3.45,2,1
17159.171,-0.886,0.196,0.347,1.16,-4.0,2.87,2,1
17159.187,-0.883,0.196,0.344,0.85,-3.81,1.8,2,1
17159.187,-0.881,0.198,0.344,0.09,-3.75,0.24,2,1
17159.203,-0.881,0.196,0.346,-0.58,-3.66,-1.07,2,1
17159.218,-0.887,0.196,0.354,-1.13,-3.39,-1.92,2,1
17159.218,-0.889,0.203,0.356,-1.01,-3.08,-2.17,2,1
17159.234,-0.887,0.213,0.354,-0.67,-2.78,-1.65,2,1
17159.234,-0.883,0.218,0.35,-0.85,-2.75,-0.89,2,1
17159.25,-0.875,0.215,0.347,-1.16,-2.87,-0.31,2,1
17159.265,-0.874,0.211,0.344,-0.82,-2.38,0.09,2,1
17159.265,-0.878,0.206,0.341,-0.4,-1.56,1.01,2,1
17159.281,-0.875,0.202,0.337,0.12,-0.79,1.65,2,1
17159.296,-0.873,0.195,0.336,0.37,0.03,1.8,2,1
17159.312,-0.874,0.188,0.333,0.31,0.95,1.43,2,1
17159.312,-0.873,0.189,0.331,0.73,1.8,0.52,2,1
17159.328,-0.87,0.186,0.332,1.13,2.78,-0.49,2,1
17159.328,-0.874,0.19,0.332,1.19,3.57,-1.77,2,1
17159.343,-0.874,0.196,0.333,1.01,3.85,-2.99,2,1
17159.343,-0.874,0.2,0.335,0.27,4.06,-3.57,2,1
17159.359,-0.885,0.2,0.342,-0.24,4.21,-3.33,2,1
17159.375,-0.894,0.195,0.355,-0.15,4.15,-2.87,2,1
17159.375,-0.907,0.194,0.365,0.4,3.97,-2.5,2,1
17159.39,-0.909,0.192,0.363,1.31,3.48,-2.23,2,1
17159.406,-0.909,0.202,0.369,1.4,2.29,-2.32,2,1
17159.406,-0.912,0.213,0.366,0.03,0.24,-2.81,2,1
17159.421,-0.916,0.208,0.363,-1.89,-1.71,-3.3,2,1
17159.437,-0.908,0.201,0.365,-3.3,-3.17,-3.48,2,1
17159.437,-0.9,0.189,0.361,-3.33,-4.03,-2.87,2,1
17159.453,-0.902,0.187,0.352,-2.08,-4.03,-1.5,2,1
17159.468,-0.9,0.189,0.347,-0.85,-3.11,0.55,2,1
17159.468,-0.898,0.183,0.345,0.15,-1.86,2.29,2,1
17159.484,-0.898,0.18,0.351,1.16,-0.89,3.2,2,1
17159.484,-0.897,0.185,0.355,1.86,-0.58,3.17,2,1
17159.5,-0.9,0.196,0.35,1.62,-0.46,2.78,2,1
17159.515,-0.9,0.198,0.353,0.64,-0.49,2.53,2,1
17159.531,-0.897,0.193,0.358,0.09,-0.7,2.17,2,1
17159.531,-0.902,0.184,0.361,0.24,-1.01,1.46,2,1
17159.546,-0.902,0.189,0.356,0.61,-1.74,0.7,2,1
17159.546,-0.889,0.192,0.354,0.49,-2.29,0.27,2,1
17159.562,-0.895,0.187,0.352,0.37,-2.35,-0.4,2,1
17159.578,-0.899,0.186,0.348,0.4,-2.35,-1.37,2,1
17159.578,-0.902,0.197,0.344,-0.12,-2.2,-2.75,2,1
17159.593,-0.907,0.199,0.351,-0.85,-1.68,-3.81,2,1
17159.609,-0.907,0.195,0.356,-1.04,-1.25,-4.52,2,1
17159.609,-0.913,0.194,0.362,-0.46,-1.1,-4.21,2,1
17159.625,-0.915,0.194,0.365,0.7,-1.1,-2.75,2,1
17159.625,-0.909,0.201,0.361,1.77,-1.25,-1.25,2,1
17159.64,-0.908,0.2,0.358,1.77,-1.62,-0.46,2,1
17159.656,-0.912,0.198,0.359,1.28,-2.17,-0.49,2,1
17159.656,-0.908,0.199,0.36,1.19,-2.84,-0.61,2,1
17159.671,-0.892,0.201,0.357,1.1,-3.45,-0.7,2,1
17159.687,-0.893,0.197,0.351,0.73,-3.6,-0.64,2,1
17159.687,-0.893,0.197,0.351,0.31,-3.51,-1.22,2,1
