timestamp,ax,ay,az,gx,gy,gz,orient_label,motion_label
17179.796,-0.945,0.169,0.199,0.06,-4.39,-4.21,2,1
17179.812,-0.943,0.167,0.199,-1.28,-3.42,-3.75,2,1
17179.812,-0.941,0.166,0.206,-1.25,-2.01,-2.75,2,1
17179.812,-0.941,0.167,0.212,0.24,-0.98,-1.71,2,1
17179.828,-0.953,0.172,0.216,1.31,-0.52,-0.79,2,1
17179.843,-0.96,0.178,0.219,1.56,-0.37,-0.61,2,1
17179.859,-0.96,0.185,0.218,0.95,-0.61,-0.82,2,1
17179.859,-0.968,0.191,0.217,0.4,-1.4,-1.22,2,1
17179.875,-0.973,0.194,0.216,-0.92,-2.5,-1.74,2,1
17179.89,-0.969,0.191,0.218,-2.2,-3.6,-1.46,2,1
17179.89,-0.956,0.18,0.22,-2.14,-3.94,0.43,2,1
17179.906,-0.943,0.172,0.219,-0.34,-3.54,3.48,2,1
17179.906,-0.932,0.169,0.209,1.89,-2.84,6.26,2,1
17179.921,-0.924,0.162,0.196,2.99,-2.35,7.45,2,1
17179.937,-0.931,0.171,0.186,2.35,-1.95,6.35,2,1
17179.937,-0.944,0.178,0.188,0.37,-1.53,4.21,2,1
17179.953,-0.947,0.166,0.199,-1.28,-1.19,2.35,2,1
17179.968,-0.938,0.179,0.21,0.79,-0.73,1.65,2,1
17179.984,-0.928,0.188,0.212,1.25,-1.04,2.56,2,1
17179.984,-0.924,0.185,0.211,1.01,-1.74,2.72,2,1
17180.0,-0.921,0.189,0.209,-0.03,-2.53,2.14,2,1
17180.015,-0.927,0.188,0.203,-1.19,-3.17,1.04,2,1
17180.015,-0.943,0.178,0.203,-2.29,-3.27,-0.27,2,1
17180.031,-0.955,0.17,0.215,-3.27,-2.96,-0.52,2,1
17180.046,-0.958,0.168,0.222,-2.44,-2.84,0.21,2,1
17180.046,-0.956,0.172,0.21,-1.25,-3.33,1.1,2,1
17180.062,-0.953,0.174,0.196,-1.19,-3.88,1.68,2,1
17180.078,-0.948,0.179,0.193,-2.2,-4.09,2.08,2,1
17180.078,-0.956,0.175,0.188,-3.2,-4.03,2.69,2,1
17180.093,-0.975,0.177,0.181,-3.66,-3.57,3.42,2,1
17180.109,-0.997,0.179,0.185,-4.0,-3.33,4.49,2,1
17180.109,-1.027,0.172,0.19,-4.58,-3.42,5.65,2,1
17180.125,-1.044,0.169,0.201,-5.22,-4.0,7.11,2,1
17180.14,-1.065,0.181,0.205,-8.12,-9.43,9.83,2,1
17180.156,-1.071,0.185,0.192,-10.8,-14.5,11.35,2,1
17180.171,-1.076,0.183,0.172,-13.95,-20.17,13.03,2,1
17180.171,-1.068,0.179,0.142,-17.3,-26.4,15.11,2,1
17180.187,-1.031,0.183,0.11,-20.08,-33.08,18.07,2,1
17180.187,-0.931,0.184,0.097,-22.13,-37.87,22.98,2,1
17180.203,-0.81,0.187,0.097,-21.7,-38.09,30.95,2,1
17180.218,-0.75,0.195,0.113,-17.55,-32.84,40.47,2,1
17180.218,-0.777,0.209,0.127,-11.6,-25.51,49.47,2,1
17180.234,-0.837,0.225,0.143,-8.36,-20.94,56.79,2,1
17180.234,-0.897,0.246,0.155,-10.04,-20.72,62.72,2,1
17180.25,-0.957,0.256,0.159,-14.95,-24.29,66.41,2,1
17180.265,-1.0,0.266,0.155,-23.22,-31.77,68.48,2,1
17180.265,-0.994,0.279,0.161,-35.22,-41.81,71.35,2,1
17180.281,-0.974,0.3,0.158,-48.04,-52.4,74.77,2,1
17180.296,-0.983,0.303,0.142,-58.32,-62.44,77.27,2,1
17180.296,-0.98,0.3,0.132,-67.17,-72.12,78.62,2,1
17180.312,-0.965,0.314,0.121,-76.08,-80.69,79.5,2,1
17180.328,-0.969,0.324,0.109,-84.57,-89.3,80.17,2,1
17180.328,-0.968,0.32,0.091,-97.08,-105.81,83.9,2,1
17180.343,-0.957,0.309,0.087,-96.71,-114.26,84.26,2,1
17180.343,-0.975,0.29,0.07,-103.21,-125.28,85.54,2,1
17180.359,-0.994,0.291,0.08,-110.32,-135.59,88.87,2,1
17180.375,-0.987,0.236,0.104,-113.01,-144.41,90.85,2,1
17180.375,-0.954,0.211,0.138,-113.56,-152.93,92.38,2,1
17180.39,-0.918,0.213,0.17,-111.27,-160.68,93.02,2,1
17180.406,-0.903,0.209,0.203,-106.05,-167.21,92.5,2,1
17180.406,-0.892,0.189,0.233,-98.76,-172.28,93.42,2,1
17180.421,-0.863,0.147,0.275,-89.57,-174.87,92.68,2,1
17180.437,-0.765,0.117,0.325,-79.32,-172.77,88.81,2,1
17180.437,-0.673,0.083,0.369,-68.09,-166.51,85.48,2,1
17180.453,-0.631,0.088,0.409,-57.1,-157.72,80.08,2,1
17180.468,-0.603,0.105,0.452,-48.34,-151.34,77.49,2,1
17180.468,-0.555,0.129,0.484,-40.13,-147.13,77.3,2,1
17180.484,-0.509,0.152,0.509,-33.85,-143.71,75.78,2,1
17180.5,-0.472,0.165,0.543,-30.12,-140.51,73.37,2,1
17180.5,-0.469,0.171,0.589,-26.34,-137.18,70.59,2,1
17180.515,-0.46,0.166,0.642,-21.91,-133.61,68.06,2,1
17180.515,-0.412,0.157,0.692,-16.75,-129.43,64.39,2,1
17180.531,-0.343,0.153,0.725,-11.96,-125.61,59.66,2,1
17180.546,-0.308,0.168,0.751,-6.35,-122.07,52.64,2,1
17180.546,-0.298,0.19,0.765,-1.65,-120.98,45.9,2,1
17180.562,-0.259,0.21,0.787,0.24,-123.36,41.14,2,1
17180.578,-0.192,0.217,0.81,2.32,-125.55,36.5,2,1
17180.578,-0.16,0.214,0.819,5.95,-127.35,29.54,2,1
17180.593,-0.098,0.261,0.832,10.22,-127.72,19.9,2,1
17180.609,-0.035,0.282,0.849,13.98,-125.34,9.83,2,1
17180.609,-0.007,0.269,0.862,16.39,-121.77,2.59,2,1
17180.625,0.015,0.275,0.879,19.17,-120.7,-2.75,2,1
17180.64,0.107,0.321,0.901,33.17,-120.09,-11.14,2,1
17180.656,0.127,0.371,0.901,38.64,-122.99,-16.63,2,1
17180.656,0.162,0.411,0.911,40.01,-124.09,-22.49,2,1
17180.671,0.171,0.403,0.938,35.86,-123.6,-27.28,2,1
17180.687,0.19,0.411,0.989,28.26,-120.91,-31.59,2,1
17180.687,0.212,0.39,1.04,22.25,-118.35,-35.49,2,1
17180.703,0.227,0.404,1.076,18.89,-119.97,-41.72,2,1
17180.718,0.214,0.413,1.086,17.76,-124.45,-45.63,2,1
17180.718,0.206,0.392,1.081,20.75,-132.33,-47.4,2,1
17180.734,0.204,0.419,1.08,27.25,-138.83,-48.46,2,1
17180.75,0.18,0.419,1.067,34.64,-145.3,-49.13,2,1
17180.75,0.193,0.442,1.062,38.61,-150.46,-49.04,2,1
17180.765,0.237,0.499,1.049,38.21,-152.59,-49.56,2,1
17180.765,0.257,0.525,1.029,33.05,-151.98,-51.79,2,1
17180.781,0.249,0.496,1.03,25.48,-149.82,-51.97,2,1
17180.796,0.263,0.471,1.06,21.36,-145.57,-49.1,2,1
17180.796,0.261,0.435,1.085,23.77,-142.58,-44.47,2,1
17180.812,0.242,0.421,1.105,30.52,-141.97,-39.8,2,1
17180.828,0.25,0.404,1.104,40.47,-144.05,-35.4,2,1
17180.828,0.258,0.441,1.068,50.29,-145.7,-35.98,2,1
17180.843,0.218,0.45,1.013,54.93,-149.51,-37.14,2,1
17180.859,0.208,0.518,0.972,52.22,-152.78,-38.51,2,1
17180.859,0.194,0.614,0.94,44.34,-155.67,-40.8,2,1
17180.875,0.209,0.695,0.918,33.91,-156.9,-41.87,2,1
17180.89,0.245,0.738,0.884,22.31,-152.5,-39.61,2,1
17180.89,0.264,0.73,0.863,13.73,-142.61,-36.16,2,1
17180.906,0.309,0.719,0.867,10.41,-129.98,-29.73,2,1
17180.906,0.35,0.709,0.853,13.55,-116.28,-22.83,2,1
17180.921,0.372,0.67,0.821,18.86,-103.06,-17.88,2,1
17180.937,0.399,0.648,0.804,24.32,-90.03,-14.07,2,1
17180.937,0.414,0.633,0.787,31.74,-77.33,-11.41,2,1
17180.953,0.439,0.623,0.775,39.09,-65.34,-9.37,2,1
17180.968,0.457,0.623,0.76,45.78,-53.07,-8.67,2,1
17180.968,0.455,0.627,0.734,51.64,-41.44,-9.37,2,1
17180.984,0.449,0.635,0.706,53.35,-30.34,-9.95,2,1
17180.984,0.446,0.657,0.68,50.11,-18.59,-11.02,2,1
17181.0,0.443,0.663,0.653,42.42,-6.16,-13.4,2,1
17181.015,0.426,0.674,0.638,30.82,6.99,-16.88,2,1
17181.015,0.374,0.693,0.646,17.91,17.85,-19.68,2,1
17181.031,0.313,0.695,0.666,6.2,23.16,-19.62,2,1
17181.046,0.251,0.685,0.698,-2.32,23.59,-15.2,2,1
17181.062,0.205,0.664,0.718,-5.71,20.05,-8.18,2,1
17181.062,0.189,0.643,0.729,-4.79,14.74,-1.62,2,1
17181.078,0.188,0.623,0.734,-1.1,10.32,1.56,2,1
17181.078,0.176,0.614,0.733,3.2,8.21,0.76,2,1
17181.093,0.163,0.622,0.731,5.89,8.33,-2.35,2,1
17181.109,0.146,0.639,0.729,6.78,10.01,-6.16,2,1
17181.109,0.129,0.651,0.723,4.91,11.47,-9.03,2,1
17181.125,0.123,0.653,0.714,0.43,11.93,-9.98,2,1
17181.125,0.119,0.653,0.717,-5.68,12.02,-10.13,2,1
17181.14,0.109,0.639,0.726,-11.38,10.59,-9.52,2,1
17181.156,0.117,0.619,0.731,-14.56,8.15,-8.33,2,1
17181.156,0.131,0.6,0.742,-16.6,6.71,-6.81,2,1
17181.171,0.144,0.587,0.751,-17.85,6.2,-6.71,2,1
17181.187,0.151,0.561,0.758,-17.98,6.32,-8.09,2,1
17181.187,0.16,0.533,0.774,-18.01,5.86,-10.59,2,1
17181.203,0.166,0.53,0.784,-16.57,3.69,-13.95,2,1
17181.218,0.178,0.516,0.781,-13.58,0.46,-16.08,2,1
17181.218,0.194,0.51,0.79,-10.5,-2.5,-17.4,2,1
17181.234,0.203,0.508,0.794,-6.16,-5.25,-18.4,2,1
17181.234,0.214,0.504,0.792,-0.82,-7.32,-19.14,2,1
17181.25,0.228,0.507,0.794,3.97,-7.78,-19.53,2,1
17181.265,0.233,0.537,0.807,8.15,-6.53,-20.17,2,1
17181.281,0.218,0.57,0.822,9.58,-6.01,-21.15,2,1
17181.281,0.228,0.608,0.838,8.36,-6.26,-21.91,2,1
17181.296,0.239,0.665,0.865,3.66,-4.33,-22.98,2,1
17181.296,0.255,0.704,0.899,-1.71,-1.71,-24.75,2,1
17181.312,0.254,0.704,0.927,-4.3,0.34,-27.8,2,1
17181.328,0.234,0.684,0.924,1.22,-4.52,-28.02,2,1
17181.343,0.213,0.657,0.897,9.31,-10.77,-25.85,2,1
17181.343,0.197,0.644,0.851,16.14,-15.11,-21.88,2,1
17181.359,0.229,0.589,0.711,17.09,-15.05,-20.02,2,1
17181.359,0.23,0.563,0.666,13.34,-11.9,-20.45,2,1
17181.375,0.232,0.553,0.64,8.55,-7.08,-21.79,2,1
17181.39,0.228,0.554,0.63,3.78,-1.89,-23.01,2,1
17181.39,0.214,0.576,0.643,0.15,3.05,-23.29,2,1
17181.406,0.187,0.629,0.676,-2.32,7.48,-21.94,2,1
17181.406,0.158,0.685,0.728,-5.98,8.91,-18.77,2,1
17181.421,0.134,0.735,0.787,-11.6,6.59,-14.22,2,1
17181.437,0.123,0.74,0.82,-15.26,1.92,-8.27,2,1
17181.437,0.141,0.706,0.821,-16.66,-3.14,-1.77,2,1
17181.453,0.159,0.669,0.802,-18.43,-6.47,2.08,2,1
17181.468,0.181,0.61,0.77,-17.7,-7.11,3.48,2,1
17181.468,0.196,0.57,0.75,-15.59,-5.62,4.0,2,1
17181.484,0.199,0.564,0.741,-14.53,-3.57,3.51,2,1
17181.5,0.196,0.557,0.745,-14.77,-2.29,2.62,2,1
17181.5,0.195,0.554,0.767,-16.36,-2.38,1.13,2,1
17181.515,0.191,0.57,0.8,-18.07,-3.78,-1.01,2,1
17181.531,0.181,0.59,0.819,-17.82,-5.71,-1.53,2,1
17181.531,0.184,0.594,0.818,-16.17,-7.42,-0.27,2,1
17181.546,0.186,0.583,0.814,-14.19,-7.97,1.25,2,1
17181.562,0.185,0.564,0.805,-11.96,-7.87,2.9,2,1
17181.562,0.183,0.556,0.799,-10.13,-7.75,3.97,2,1
17181.578,0.189,0.546,0.778,-10.22,-7.78,4.24,2,1
17181.578,0.18,0.528,0.842,-18.52,-11.66,-0.15,2,1
17181.593,0.19,0.532,0.833,-19.84,-18.07,-3.69,2,1
17181.609,0.19,0.556,0.808,-15.84,-20.08,-3.45,2,1
17181.609,0.2,0.565,0.831,-16.69,-22.31,-3.91,2,1
17181.625,0.206,0.558,0.818,-13.79,-23.74,-3.17,2,1
17181.625,0.215,0.566,0.799,-11.2,-23.56,-2.01,2,1
17181.64,0.222,0.561,0.789,-7.87,-22.37,-0.46,2,1
17181.656,0.228,0.552,0.771,-3.27,-19.47,1.5,2,1
17181.656,0.236,0.545,0.754,0.18,-16.36,2.66,2,1
17181.671,0.242,0.549,0.749,2.66,-12.91,3.45,2,1
17181.687,0.253,0.556,0.745,4.36,-9.16,5.1,2,1
17181.687,0.261,0.559,0.746,4.18,-4.97,6.1,2,1
17181.703,0.255,0.548,0.747,2.84,-2.04,5.07,2,1
17181.718,0.251,0.546,0.756,1.77,-1.56,2.9,2,1
17181.734,0.254,0.572,0.765,-0.64,-1.04,1.13,2,1
17181.734,0.247,0.574,0.771,-4.12,-0.09,-0.95,2,1
17181.734,0.235,0.551,0.772,-6.44,0.46,-2.66,2,1
17181.75,0.227,0.549,0.774,-7.29,0.52,-3.33,2,1
17181.765,0.237,0.553,0.781,-8.27,0.24,-3.88,2,1
17181.765,0.231,0.555,0.786,-9.83,1.1,-4.52,2,1
17181.781,0.221,0.552,0.78,-10.9,0.98,-5.1,2,1
17181.796,0.23,0.548,0.775,-11.57,0.58,-4.61,2,1
17181.796,0.232,0.558,0.768,-13.18,1.43,-4.33,2,1
17181.812,0.238,0.561,0.751,-16.97,3.51,-5.22,2,1
17181.828,0.23,0.569,0.748,-23.22,6.01,-6.35,2,1
17181.828,0.226,0.56,0.738,-27.1,9.0,-5.43,2,1
17181.843,0.226,0.551,0.727,-29.42,12.51,-3.48,2,1
17181.859,0.291,0.521,0.636,-29.51,19.9,-2.14,2,1
17181.859,0.233,0.461,0.749,-30.3,33.39,-5.43,2,1
17181.875,0.042,0.705,0.97,-42.94,28.66,-5.4,2,1
17181.875,0.102,0.694,1.0,-42.82,12.21,5.65,2,1
17181.89,0.15,0.57,0.918,-35.55,-2.5,12.21,2,1
17181.906,0.213,0.501,0.844,-31.19,-8.45,14.16,2,1
17181.906,0.213,0.48,0.839,-24.26,-7.54,14.07,2,1
17181.921,0.194,0.454,0.859,-16.69,-7.32,14.07,2,1
17181.937,0.203,0.434,0.884,-13.06,-9.77,13.55,2,1
17181.953,0.205,0.442,0.902,-12.39,-13.0,10.96,2,1
17181.953,0.222,0.423,0.902,-10.9,-16.05,8.48,2,1
17181.968,0.237,0.409,0.879,-5.86,-16.91,6.47,2,1
17181.968,0.218,0.393,0.896,0.82,-15.32,5.55,2,1
17181.984,0.215,0.485,0.903,3.2,-17.06,4.94,2,1
17182.0,0.313,0.386,0.819,16.54,-14.83,7.57,2,1
17182.0,0.231,0.388,0.807,25.7,-7.63,5.77,2,1
17182.015,0.248,0.485,0.851,24.11,-5.52,6.5,2,1
17182.015,0.236,0.48,0.845,30.0,-5.13,6.32,2,1
17182.031,0.219,0.498,0.834,31.43,-5.31,6.2,2,1
17182.046,0.226,0.531,0.829,30.06,-7.11,5.68,2,1
17182.062,0.219,0.541,0.813,30.18,-9.0,5.43,2,1
17182.062,0.222,0.555,0.805,26.61,-10.86,6.38,2,1
17182.078,0.236,0.555,0.78,23.44,-12.73,6.13,2,1
17182.078,0.234,0.559,0.761,20.05,-12.76,5.62,2,1
17182.093,0.249,0.559,0.754,14.37,-12.97,5.55,2,1
17182.109,0.266,0.551,0.742,9.77,-11.99,4.97,2,1
17182.109,0.276,0.542,0.727,6.2,-9.22,4.15,2,1
17182.125,0.284,0.538,0.724,2.84,-4.88,3.23,2,1
17182.125,0.288,0.533,0.728,-0.58,-0.24,2.17,2,1
17182.14,0.292,0.52,0.727,-3.88,3.78,0.76,2,1
17182.156,0.294,0.519,0.735,-7.6,7.54,-1.68,2,1
17182.171,0.297,0.512,0.735,-10.07,12.7,-4.79,2,1
17182.171,0.29,0.504,0.748,-11.84,17.4,-6.78,2,1
17182.187,0.259,0.521,0.796,-13.37,20.42,-7.63,2,1
17182.187,0.225,0.56,0.86,-17.85,18.56,-7.08,2,1
17182.203,0.222,0.546,0.879,-20.08,13.73,-7.6,2,1
17182.218,0.198,0.53,0.873,-19.93,8.27,-8.94,2,1
17182.218,0.209,0.535,0.85,-19.1,3.3,-7.97,2,1
17182.234,0.228,0.513,0.804,-16.48,1.8,-6.01,2,1
17182.234,0.23,0.501,0.774,-16.39,4.3,-4.12,2,1
17182.25,0.238,0.503,0.768,-18.22,8.15,-2.26,2,1
17182.265,0.251,0.512,0.723,-18.83,13.31,-1.37,2,1
17182.281,0.312,0.398,0.702,-13.92,24.72,-1.53,2,1
17182.281,0.112,0.516,0.849,-23.04,29.54,-6.5,2,1
17182.296,0.147,0.647,0.97,-36.56,19.23,-4.55,2,1
17182.296,0.154,0.532,0.951,-22.25,-0.18,2.38,2,1
17182.312,0.165,0.523,0.901,-18.43,-3.66,5.34,2,1
17182.328,0.222,0.496,0.859,-13.0,-2.29,5.34,2,1
17182.328,0.189,0.461,0.877,-9.98,-2.5,6.87,2,1
17182.343,0.201,0.464,0.906,-7.69,-5.65,7.9,2,1
17182.359,0.2,0.45,0.92,-4.12,-9.22,8.0,2,1
17182.359,0.206,0.446,0.94,0.18,-13.15,7.93,2,1
17182.375,0.209,0.436,0.934,7.08,-16.79,8.09,2,1
17182.39,0.219,0.424,0.915,14.95,-19.59,8.76,2,1
17182.39,0.203,0.42,0.91,20.97,-22.03,7.97,2,1
17182.406,0.23,0.497,0.876,19.78,-27.83,5.89,2,1
17182.406,0.318,0.383,0.756,29.45,-26.03,5.68,2,1
17182.421,0.247,0.421,0.74,29.82,-18.65,2.14,2,1
17182.437,0.287,0.509,0.765,22.28,-13.86,2.04,2,1
17182.437,0.28,0.489,0.754,22.55,-9.13,0.34,2,1
17182.453,0.266,0.501,0.754,18.95,-4.85,-0.64,2,1
17182.468,0.276,0.525,0.766,13.21,-1.98,-1.92,2,1
17182.468,0.263,0.531,0.773,11.63,0.49,-2.78,2,1
17182.484,0.259,0.542,0.778,9.77,3.17,-1.4,2,1
17182.5,0.248,0.545,0.785,7.11,4.58,-1.22,2,1
17182.5,0.235,0.545,0.801,3.78,5.01,-0.82,2,1
17182.515,0.228,0.546,0.813,0.73,3.85,-0.4,2,1
17182.515,0.226,0.537,0.818,-1.74,2.14,0.06,2,1
17182.531,0.229,0.529,0.82,-3.2,0.67,0.76,2,1
17182.546,0.228,0.521,0.817,-3.6,-0.12,1.56,2,1
17182.546,0.232,0.511,0.819,-4.64,-1.04,1.89,2,1
17182.562,0.235,0.503,0.817,-5.77,-1.71,1.56,2,1
17182.578,0.244,0.495,0.809,-5.31,-1.86,1.68,2,1
17182.578,0.255,0.499,0.806,-5.13,-1.1,1.65,2,1
17182.593,0.256,0.495,0.808,-5.1,0.37,0.95,2,1
17182.609,0.252,0.497,0.815,-4.61,1.56,0.52,2,1
17182.609,0.246,0.502,0.821,-4.12,2.26,0.46,2,1
17182.625,0.243,0.501,0.824,-3.94,2.32,0.34,2,1
17182.625,0.244,0.496,0.824,-3.97,1.95,0.31,2,1
17182.64,0.247,0.49,0.819,-3.85,1.98,0.03,2,1
17182.656,0.249,0.484,0.819,-3.6,2.69,-0.27,2,1
17182.656,0.254,0.482,0.828,-3.66,3.02,-0.98,2,1
17182.687,0.249,0.472,0.827,-1.4,4.15,-3.88,2,1
17182.687,0.246,0.486,0.83,-1.62,4.46,-5.34,2,1
17182.703,0.243,0.486,0.825,-0.27,5.1,-6.13,2,1
17182.718,0.237,0.482,0.793,0.73,6.13,-6.47,2,1
17182.718,0.242,0.502,0.776,-2.53,8.3,-7.11,2,1
17182.734,0.248,0.512,0.774,-6.74,11.57,-7.75,2,1
17182.734,0.232,0.504,0.762,-9.58,15.02,-8.03,2,1
17182.75,0.26,0.522,0.718,-12.3,18.68,-9.09,2,1
17182.765,0.297,0.406,0.713,-10.01,28.87,-10.74,2,1
17182.781,0.099,0.568,0.86,-24.38,31.04,-16.33,2,1
17182.781,0.154,0.648,0.937,-35.92,20.2,-13.82,2,1
17182.796,0.134,0.563,0.93,-29.36,10.62,-9.67,2,1
17182.796,0.152,0.574,0.919,-27.13,1.5,-2.81,2,1
17182.812,0.198,0.521,0.879,-22.68,-3.42,3.11,2,1
17182.828,0.183,0.466,0.872,-16.39,-3.51,5.52,2,1
17182.828,0.184,0.424,0.896,-11.63,-4.0,7.97,2,1
17182.859,0.203,0.411,0.925,-1.43,-8.33,8.45,2,1
17182.859,0.207,0.409,0.932,4.58,-10.99,7.78,2,1
17182.875,0.211,0.411,0.928,11.44,-13.55,6.62,2,1
17182.89,0.218,0.413,0.914,18.71,-15.59,5.34,2,1
17182.89,0.218,0.422,0.895,25.33,-17.21,3.78,2,1
17182.906,0.196,0.438,0.891,29.02,-18.77,2.41,2,1
17182.906,0.23,0.512,0.855,27.5,-22.92,1.74,2,1
17182.921,0.287,0.401,0.762,37.29,-19.9,2.56,2,1
17182.937,0.221,0.464,0.765,35.04,-13.46,0.55,2,1
17182.937,0.253,0.525,0.786,28.9,-10.65,0.67,2,1
17182.953,0.234,0.516,0.778,27.56,-8.21,-0.27,2,1
17182.968,0.233,0.53,0.775,22.64,-6.81,0.12,2,1
17182.968,0.249,0.553,0.772,17.06,-5.8,0.31,2,1
17182.984,0.24,0.551,0.767,13.58,-4.0,0.09,2,1
17183.0,0.242,0.544,0.776,8.73,-2.59,0.55,2,1
17183.0,0.242,0.549,0.791,6.44,-1.86,1.19,2,1
17183.015,0.239,0.539,0.806,4.18,-1.31,4.76,2,1
17183.031,0.237,0.522,0.812,2.32,-1.77,4.12,2,1
17183.046,0.243,0.513,0.808,1.68,-2.38,3.63,2,1
17183.062,0.246,0.51,0.794,1.46,-2.32,3.3,2,1
17183.062,0.253,0.504,0.786,0.24,-1.37,2.75,2,1
17183.078,0.257,0.506,0.787,-1.28,0.12,1.53,2,1
17183.078,0.248,0.516,0.802,-1.83,1.68,0.64,2,1
17183.093,0.237,0.522,0.82,-2.01,2.17,0.67,2,1
17183.109,0.231,0.52,0.832,-1.89,1.31,0.64,2,1
17183.109,0.231,0.518,0.829,-1.86,-0.06,0.03,2,1
17183.125,0.229,0.512,0.822,-1.98,-1.4,-0.52,2,1
17183.14,0.232,0.507,0.815,-2.04,-2.23,-0.52,2,1
17183.14,0.238,0.507,0.809,-2.41,-2.38,-0.4,2,1
17183.156,0.233,0.514,0.814,-2.66,-2.04,-0.52,2,1
17183.156,0.23,0.521,0.82,-2.17,-2.08,0.18,2,1
17183.171,0.233,0.521,0.821,-1.68,-2.41,1.13,2,1
17183.187,0.24,0.511,0.812,-1.95,-3.14,1.28,2,1
17183.203,0.244,0.507,0.808,-2.04,-3.17,1.13,2,1
17183.218,0.247,0.508,0.806,-2.35,-2.69,1.01,2,1
17183.218,0.247,0.511,0.809,-2.44,-1.98,0.92,2,1
17183.234,0.245,0.511,0.813,-2.41,-1.43,0.95,2,1
17183.234,0.245,0.511,0.818,-2.14,-1.1,1.16,2,1
17183.25,0.243,0.51,0.818,-1.83,-0.95,1.22,2,1
17183.265,0.241,0.506,0.816,-1.68,-1.04,1.1,2,1
17183.265,0.243,0.502,0.816,-1.53,-1.04,1.1,2,1
17183.281,0.244,0.5,0.818,-1.16,-0.79,0.67,2,1
17183.296,0.241,0.5,0.824,-0.52,-0.92,0.46,2,1
17183.296,0.238,0.502,0.823,-0.06,-1.16,0.46,2,1
17183.312,0.243,0.502,0.821,0.31,-1.22,0.21,2,1
17183.328,0.243,0.506,0.814,0.7,-0.95,-0.03,2,1
17183.328,0.241,0.508,0.811,0.89,-0.7,0.0,2,1
17183.343,0.241,0.514,0.815,0.67,-0.85,0.06,2,1
17183.359,0.237,0.519,0.82,0.52,-0.98,-0.06,2,1
17183.359,0.232,0.519,0.823,0.7,-1.34,0.31,2,1
17183.375,0.234,0.516,0.823,0.82,-2.14,0.85,2,1
17183.375,0.234,0.512,0.817,0.79,-2.75,1.13,2,1
17183.39,0.234,0.507,0.816,0.64,-3.14,1.31,2,1
17183.406,0.235,0.513,0.815,0.06,-3.63,1.43,2,1
17183.406,0.24,0.515,0.815,-1.22,-4.43,1.25,2,1
17183.421,0.245,0.514,0.809,-2.38,-4.97,1.01,2,1
17183.437,0.253,0.511,0.803,-3.02,-4.79,1.04,2,1
17183.437,0.259,0.506,0.798,-3.11,-3.81,1.25,2,1
17183.453,0.258,0.502,0.799,-3.14,-2.38,1.16,2,1
17183.468,0.261,0.5,0.803,-3.51,-0.92,0.76,2,1
17183.468,0.26,0.496,0.811,-3.78,0.21,0.12,2,1
17183.484,0.251,0.496,0.824,-3.05,1.01,-0.34,2,1
17183.5,0.25,0.504,0.832,-2.11,0.89,-0.34,2,1
17183.5,0.256,0.513,0.827,-1.62,-0.27,-0.98,2,1
17183.515,0.26,0.515,0.812,-1.5,-1.07,-1.74,2,1
17183.515,0.26,0.511,0.797,-1.65,-0.67,-1.77,2,1
17183.531,0.256,0.511,0.792,-1.74,0.76,-1.22,2,1
17183.546,0.249,0.514,0.8,-1.86,2.26,-0.24,2,1
17183.546,0.245,0.51,0.811,-2.17,3.36,0.55,2,1
17183.562,0.243,0.504,0.82,-2.41,3.97,1.1,2,1
17183.578,0.243,0.498,0.82,-2.29,4.0,1.22,2,1
17183.593,0.254,0.487,0.814,-1.5,4.52,0.76,2,1
17183.593,0.254,0.481,0.811,-0.98,5.55,0.09,2,1
17183.593,0.26,0.481,0.81,-0.95,6.78,-1.22,2,1
17183.609,0.259,0.472,0.806,-0.18,8.76,-2.9,2,1
17183.625,0.247,0.469,0.809,0.64,11.08,-4.73,2,1
17183.625,0.223,0.484,0.838,-0.58,12.12,-6.65,2,1
17183.64,0.211,0.494,0.856,-0.61,10.86,-7.51,2,1
17183.656,0.205,0.497,0.864,0.55,8.51,-7.63,2,1
17183.656,0.207,0.501,0.866,0.67,5.49,-8.12,2,1
17183.671,0.216,0.499,0.842,1.1,2.9,-9.06,2,1
17183.687,0.22,0.492,0.801,0.49,2.11,-9.95,2,1
17183.687,0.234,0.491,0.778,-1.89,4.27,-10.19,2,1
17183.718,0.322,0.466,0.693,0.34,15.29,-9.13,2,1
17183.718,0.196,0.452,0.781,-0.95,25.21,-12.09,2,1
17183.734,0.144,0.673,0.936,-16.66,19.75,-13.86,2,1
17183.734,0.153,0.608,0.951,-9.86,8.88,-10.5,2,1
17183.75,0.12,0.591,0.91,-5.25,-0.52,-6.1,2,1
17183.765,0.169,0.572,0.885,-2.84,-7.51,0.21,2,1
17183.781,0.165,0.52,0.876,2.11,-10.47,3.78,2,1
17183.781,0.169,0.48,0.871,5.37,-12.85,7.32,2,1
17183.796,0.202,0.46,0.871,6.68,-16.27,8.55,2,1
17183.796,0.212,0.44,0.885,8.79,-18.28,7.54,2,1
17183.812,0.237,0.443,0.891,13.43,-19.9,6.65,2,1
17183.828,0.256,0.445,0.891,19.47,-21.39,4.46,2,1
17183.828,0.223,0.457,0.912,24.35,-23.96,2.62,2,1
17183.843,0.292,0.476,0.866,29.21,-27.83,1.89,2,1
17183.859,0.292,0.36,0.799,44.86,-21.85,-0.15,2,1
17183.859,0.245,0.456,0.833,47.46,-15.59,-2.84,2,1
17183.875,0.203,0.503,0.856,60.88,-10.22,-2.87,2,1
17183.89,0.173,0.546,0.869,66.23,-9.09,0.03,2,1
17183.906,0.142,0.581,0.889,71.23,-10.25,2.35,2,1
17183.906,0.09,0.634,0.911,75.23,-12.88,5.55,2,1
17183.921,0.055,0.691,0.924,78.59,-15.99,13.64,2,1
17183.937,0.033,0.75,0.926,78.59,-17.88,21.88,2,1
17183.937,0.049,0.805,0.927,74.04,-17.76,28.29,2,1
17183.953,0.063,0.886,0.939,64.73,-13.18,30.7,2,1
17183.968,-0.03,0.891,0.914,53.16,-1.5,24.38,2,1
17183.968,0.018,0.891,0.966,36.35,22.71,3.23,2,1
17183.984,0.009,0.793,0.999,20.51,31.89,-3.11,2,1
17183.984,-0.057,0.837,1.041,24.81,39.67,-4.91,2,1
17184.0,-0.015,0.889,1.053,38.36,42.15,1.07,2,1
17184.015,-0.013,0.851,1.001,54.35,44.59,9.7,2,1
17184.015,-0.003,0.821,0.94,64.52,47.91,17.64,2,1
17184.031,-0.003,0.821,0.881,70.28,56.25,24.96,2,1
17184.046,0.004,0.824,0.834,72.05,68.76,28.35,2,1
17184.062,-0.013,0.808,0.765,69.4,85.73,26.7,2,1
17184.062,-0.024,0.787,0.692,61.19,106.85,23.41,2,1
17184.078,-0.061,0.77,0.625,48.19,132.11,19.47,2,1
17184.078,-0.136,0.787,0.56,30.98,161.72,13.73,2,1
17184.093,-0.197,0.817,0.498,7.29,194.62,5.13,2,1
17184.109,-0.238,0.806,0.439,-25.45,227.97,-2.5,2,1
17184.109,-0.299,0.77,0.404,-65.43,260.63,-6.71,2,1
17184.125,-0.354,0.715,0.383,-107.09,288.34,-6.87,2,1
17184.14,-0.4,0.643,0.372,-144.6,308.6,-2.26,2,1
17184.14,-0.445,0.58,0.391,-173.5,322.7,3.57,2,1
17184.156,-0.437,0.494,0.439,-192.08,328.87,9.4,2,1
17184.171,-0.368,0.385,0.51,-198.31,329.91,17.18,2,1
17184.171,-0.311,0.306,0.584,-188.88,328.78,25.61,2,1
17184.187,-0.279,0.254,0.634,-165.38,326.03,34.21,2,1
17184.187,-0.253,0.211,0.668,-133.98,321.54,42.18,2,1
17184.203,-0.241,0.199,0.703,-98.73,318.0,47.15,2,1
17184.218,-0.255,0.22,0.727,-63.3,314.92,47.52,2,1
17184.218,-0.264,0.24,0.74,-31.74,311.35,43.79,2,1
17184.234,-0.291,0.273,0.733,-8.39,308.27,36.62,2,1
17184.234,-0.331,0.327,0.724,4.64,305.03,27.25,2,1
17184.25,-0.361,0.36,0.703,8.55,299.57,17.7,2,1
17184.265,-0.395,0.383,0.67,-1.89,291.09,0.85,2,1
17184.281,-0.447,0.403,0.658,-10.38,286.72,-6.99,2,1
17184.281,-0.511,0.396,0.652,-17.79,281.93,-15.78,2,1
17184.296,-0.554,0.386,0.673,-22.77,276.01,-25.33,2,1
17184.312,-0.641,0.363,0.75,-24.45,267.46,-34.91,2,1
17184.312,-0.681,0.351,0.805,-21.88,255.93,-42.24,2,1
17184.328,-0.716,0.352,0.85,-15.69,240.06,-47.73,2,1
17184.328,-0.749,0.405,0.88,-10.1,217.9,-53.56,2,1
17184.343,-0.759,0.444,0.873,-5.55,191.2,-57.99,2,1
17184.359,-0.766,0.434,0.84,-3.17,163.24,-57.62,2,1
17184.359,-0.773,0.427,0.803,-3.66,137.7,-54.38,2,1
17184.39,-0.868,0.362,0.725,2.84,94.0,-47.55,2,1
17184.39,-0.895,0.323,0.687,10.01,81.06,-43.73,2,1
17184.406,-0.904,0.317,0.652,18.62,70.01,-44.56,2,1
17184.406,-0.898,0.316,0.6,28.05,61.43,-48.52,2,1
17184.421,-0.892,0.309,0.528,36.44,57.34,-52.19,2,1
17184.437,-0.88,0.313,0.487,40.35,55.42,-54.93,2,1
17184.437,-0.872,0.322,0.467,41.84,55.82,-54.11,2,1
17184.453,-0.889,0.335,0.456,43.58,56.95,-50.78,2,1
17184.468,-0.913,0.333,0.459,45.29,56.58,-46.88,2,1
17184.468,-0.917,0.335,0.477,45.87,53.87,-42.85,2,1
17184.484,-0.919,0.316,0.49,47.76,49.35,-37.87,2,1
17184.484,-0.923,0.292,0.491,51.42,43.18,-31.98,2,1
17184.5,-0.923,0.296,0.492,56.4,34.97,-26.4,2,1
17184.515,-0.919,0.294,0.479,63.11,25.91,-20.94,2,1
17184.515,-0.917,0.278,0.452,69.83,16.36,-15.44,2,1
17184.531,-0.914,0.265,0.425,76.54,7.45,-11.05,2,1
17184.546,-0.864,0.296,0.338,88.2,-5.49,-9.64,2,1
17184.562,-0.857,0.329,0.289,89.66,-10.19,-11.87,2,1
17184.578,-0.841,0.373,0.258,88.11,-14.92,-15.5,2,1
17184.578,-0.815,0.427,0.236,83.47,-19.41,-19.84,2,1
17184.593,-0.8,0.45,0.238,77.24,-22.34,-22.43,2,1
17184.609,-0.802,0.464,0.242,71.84,-24.48,-23.26,2,1
17184.609,-0.801,0.5,0.249,65.98,-27.31,-22.28,2,1
17184.625,-0.774,0.523,0.27,59.97,-30.24,-19.75,2,1
17184.64,-0.745,0.549,0.266,55.3,-32.81,-17.3,2,1
17184.64,-0.739,0.554,0.273,49.99,-32.41,-12.73,2,1
17184.656,-0.717,0.542,0.284,44.83,-30.24,-5.1,2,1
17184.656,-0.707,0.546,0.286,42.21,-26.25,3.6,2,1
17184.671,-0.695,0.526,0.288,41.26,-20.39,11.72,2,1
17184.687,-0.685,0.527,0.291,39.16,-14.4,17.79,2,1
17184.687,-0.691,0.537,0.294,35.1,-9.19,22.46,2,1
17184.703,-0.698,0.531,0.299,30.24,-4.76,26.55,2,1
17184.718,-0.708,0.531,0.305,24.23,-1.37,31.04,2,1
17184.718,-0.723,0.512,0.307,18.77,0.76,35.98,2,1
17184.734,-0.739,0.494,0.311,14.8,1.65,39.77,2,1
17184.734,-0.75,0.468,0.313,12.39,1.68,41.75,2,1
17184.75,-0.761,0.439,0.302,11.47,1.98,42.73,2,1
17184.765,-0.772,0.413,0.285,12.36,3.36,43.55,2,1
17184.765,-0.783,0.408,0.275,12.57,5.58,44.19,2,1
17184.781,-0.785,0.404,0.267,11.99,8.15,44.74,2,1
17184.796,-0.78,0.391,0.252,12.12,11.35,44.74,2,1
17184.812,-0.771,0.381,0.247,13.0,14.77,44.07,2,1
17184.812,-0.749,0.38,0.244,14.37,17.58,42.88,2,1
17184.828,-0.718,0.392,0.237,14.95,19.93,42.36,2,1
17184.828,-0.685,0.408,0.221,15.5,22.13,42.09,2,1
17184.843,-0.657,0.428,0.204,16.17,24.72,42.79,2,1
17184.843,-0.644,0.438,0.193,17.0,27.59,43.49,2,1
17184.859,-0.637,0.443,0.178,18.31,30.76,43.34,2,1
17184.875,-0.663,0.451,0.152,19.65,33.66,40.8,2,1
17184.89,-0.709,0.45,0.128,20.45,36.62,35.19,2,1
17184.89,-0.761,0.442,0.108,19.01,39.77,27.74,2,1
17184.906,-0.818,0.435,0.106,14.47,41.84,18.19,2,1
17184.906,-0.864,0.417,0.127,9.0,42.42,7.42,2,1
17184.921,-0.908,0.398,0.163,3.94,41.47,-2.5,2,1
17184.937,-0.947,0.4,0.204,1.01,38.36,-9.52,2,1
17184.937,-0.963,0.412,0.24,0.85,32.04,-12.94,2,1
17184.953,-0.957,0.43,0.259,2.69,22.92,-13.67,2,1
17184.968,-0.957,0.452,0.247,5.8,11.87,-13.15,2,1
17184.968,-0.964,0.472,0.224,9.67,0.12,-13.52,2,1
17184.984,-0.967,0.488,0.193,11.54,-11.02,-15.59,2,1
17185.0,-0.957,0.5,0.169,10.9,-20.39,-18.46,2,1
17185.0,-0.936,0.492,0.155,8.79,-27.28,-20.87,2,1
17185.015,-0.911,0.483,0.153,7.39,-31.56,-21.73,2,1
17185.015,-0.88,0.481,0.149,7.81,-33.94,-20.45,2,1
17185.031,-0.843,0.469,0.139,9.61,-35.49,-18.04,2,1
17185.046,-0.817,0.456,0.128,11.26,-35.22,-14.92,2,1
17185.046,-0.8,0.447,0.12,12.82,-33.23,-11.81,2,1
17185.062,-0.782,0.449,0.118,13.43,-29.91,-9.67,2,1
17185.078,-0.766,0.458,0.121,13.12,-24.87,-8.88,2,1
17185.078,-0.763,0.465,0.133,12.88,-19.65,-9.46,2,1
17185.093,-0.76,0.475,0.153,12.85,-14.95,-10.68,2,1
17185.109,-0.771,0.49,0.167,12.94,-11.38,-12.3,2,1
17185.109,-0.785,0.493,0.179,12.85,-8.91,-13.64,2,1
17185.125,-0.8,0.501,0.186,12.33,-6.74,-13.95,2,1
17185.125,-0.814,0.511,0.19,11.29,-4.91,-13.43,2,1
17185.14,-0.828,0.519,0.191,9.61,-4.06,-12.67,2,1
17185.156,-0.835,0.517,0.191,7.66,-3.54,-11.57,2,1
17185.156,-0.841,0.514,0.188,6.07,-2.69,-10.65,2,1
17185.171,-0.848,0.513,0.187,4.7,-1.25,-9.7,2,1
17185.187,-0.854,0.519,0.176,2.9,-0.46,-9.58,2,1
17185.187,-0.863,0.522,0.164,0.73,0.49,-10.07,2,1
17185.203,-0.872,0.517,0.16,-1.68,1.83,-10.8,2,1
17185.218,-0.875,0.515,0.164,-4.0,3.05,-11.32,2,1
17185.218,-0.875,0.512,0.171,-6.23,4.18,-11.44,2,1
17185.234,-0.872,0.512,0.178,-7.72,5.16,-10.9,2,1
17185.234,-0.87,0.509,0.185,-8.85,5.19,-9.86,2,1
17185.25,-0.862,0.511,0.186,-10.77,3.85,-5.07,2,1
17185.265,-0.848,0.512,0.178,-11.63,3.75,-2.14,2,1
17185.265,-0.834,0.508,0.172,-12.39,4.39,0.55,2,1
17185.281,-0.824,0.487,0.171,-12.94,5.31,2.9,2,1
17185.296,-0.83,0.48,0.167,-13.18,5.43,3.78,2,1
17185.296,-0.835,0.468,0.165,-13.67,4.58,3.45,2,1
17185.312,-0.84,0.452,0.166,-14.71,3.75,3.17,2,1
17185.328,-0.838,0.439,0.164,-15.2,2.93,3.63,2,1
17185.328,-0.832,0.426,0.164,-14.89,2.04,4.27,2,1
17185.343,-0.825,0.411,0.163,-14.07,1.62,5.1,2,1
17185.359,-0.818,0.405,0.15,-12.15,1.71,5.37,2,1
17185.359,-0.811,0.409,0.135,-10.19,2.9,4.43,2,1
17185.375,-0.81,0.418,0.127,-9.83,4.03,2.62,2,1
17185.375,-0.816,0.421,0.129,-10.04,5.62,0.06,2,1
17185.39,-0.829,0.428,0.132,-10.47,6.68,-2.35,2,1
17185.406,-0.838,0.442,0.142,-11.05,6.87,-4.18,2,1
17185.421,-0.848,0.449,0.151,-11.29,6.68,-5.55,2,1
17185.421,-0.847,0.452,0.156,-11.05,5.19,-6.56,2,1
17185.437,-0.841,0.458,0.153,-10.56,2.78,-7.45,2,1
17185.437,-0.845,0.46,0.138,-10.38,0.46,-9.03,2,1
17185.453,-0.85,0.458,0.127,-11.02,-1.65,-10.96,2,1
17185.468,-0.864,0.449,0.118,-11.72,-3.23,-12.36,2,1
17185.468,-0.875,0.433,0.112,-11.75,-4.03,-12.63,2,1
17185.484,-0.885,0.411,0.114,-10.32,-3.72,-12.36,2,1
17185.484,-0.894,0.396,0.117,-7.54,-2.78,-11.23,2,1
17185.5,-0.899,0.391,0.12,-4.03,-1.77,-10.28,2,1
17185.515,-0.893,0.394,0.118,-0.76,-0.89,-9.06,2,1
17185.531,-0.888,0.411,0.118,1.22,-0.49,-7.81,2,1
17185.531,-0.884,0.422,0.12,1.89,-1.01,-6.99,2,1
17185.546,-0.877,0.427,0.125,1.77,-1.86,-6.71,2,1
17185.546,-0.873,0.432,0.13,1.71,-2.72,-6.96,2,1
17185.562,-0.879,0.436,0.136,1.98,-3.48,-7.69,2,1
17185.578,-0.888,0.431,0.14,2.26,-4.0,-8.15,2,1
17185.578,-0.895,0.438,0.142,2.56,-4.24,-8.39,2,1
17185.593,-0.902,0.445,0.146,2.14,-4.46,-8.0,2,1
17185.609,-0.904,0.439,0.157,0.95,-4.12,-6.07,2,1
17185.609,-0.898,0.433,0.17,1.22,-3.3,-2.47,2,1
17185.625,-0.885,0.434,0.182,2.93,-1.89,1.59,2,1
17185.625,-0.872,0.436,0.188,4.82,-0.79,4.73,2,1
17185.64,-0.864,0.451,0.187,6.01,-0.73,6.44,2,1
17185.656,-0.855,0.471,0.179,4.67,-1.68,5.8,2,1
17185.656,-0.855,0.472,0.18,1.13,-2.81,3.88,2,1
17185.671,-0.862,0.471,0.189,-3.3,-3.6,1.83,2,1
17185.687,-0.867,0.461,0.199,-6.2,-3.85,0.79,2,1
17185.687,-0.87,0.452,0.208,-6.87,-3.45,0.52,2,1
17185.703,-0.88,0.451,0.21,-6.65,-2.81,0.79,2,1
17185.718,-0.89,0.451,0.212,-6.59,-2.01,1.89,2,1
17185.718,-0.887,0.454,0.215,-7.17,-1.13,3.94,2,1
17185.734,-0.877,0.456,0.22,-7.93,-0.15,5.71,2,1
17185.75,-0.865,0.454,0.228,-9.0,0.73,6.93,2,1
17185.75,-0.86,0.452,0.235,-9.7,1.16,7.78,2,1
17185.765,-0.847,0.459,0.239,-10.28,1.04,7.75,2,1
17185.765,-0.832,0.459,0.243,-11.96,0.92,7.14,2,1
17185.781,-0.819,0.456,0.25,-14.19,0.61,6.65,2,1
17185.796,-0.805,0.449,0.255,-15.99,-0.24,6.26,2,1
17185.796,-0.791,0.434,0.259,-17.46,-1.31,5.77,2,1
17185.812,-0.782,0.416,0.265,-18.13,-2.44,5.34,2,1
17185.828,-0.78,0.393,0.267,-17.94,-3.2,4.97,2,1
17185.828,-0.781,0.375,0.269,-17.4,-3.72,4.88,2,1
17185.843,-0.779,0.357,0.274,-16.21,-4.0,4.49,2,1
17185.843,-0.783,0.347,0.272,-14.04,-4.15,2.93,2,1
17185.859,-0.79,0.356,0.251,-12.36,-4.0,-0.03,2,1
17185.875,-0.805,0.367,0.228,-12.88,-3.45,-4.97,2,1
17185.875,-0.815,0.379,0.215,-15.2,-2.23,-11.17,2,1
17185.89,-0.822,0.395,0.211,-18.83,-0.67,-18.1,2,1
17185.906,-0.826,0.4,0.214,-22.77,1.1,-25.21,2,1
17185.921,-0.84,0.406,0.223,-26.09,3.08,-31.07,2,1
17185.921,-0.854,0.419,0.238,-27.8,4.94,-35.4,2,1
17185.937,-0.869,0.429,0.247,-28.75,6.01,-38.09,2,1
17185.937,-0.886,0.439,0.256,-29.69,6.38,-38.94,2,1
17185.953,-0.9,0.444,0.263,-30.52,6.41,-37.6,2,1
17185.968,-0.909,0.449,0.261,-30.82,5.89,-34.49,2,1
17185.968,-0.918,0.453,0.259,-30.85,5.52,-30.09,2,1
17185.984,-0.928,0.456,0.248,-31.01,5.46,-25.09,2,1
17185.984,-0.937,0.46,0.241,-31.8,5.8,-19.32,2,1
17186.0,-0.934,0.459,0.239,-32.53,6.16,-13.52,2,1
17186.015,-0.933,0.462,0.229,-33.17,6.78,-8.51,2,1
17186.015,-0.926,0.461,0.225,-34.06,7.35,-4.43,2,1
17186.031,-0.92,0.451,0.231,-35.31,8.03,-0.85,2,1
17186.046,-0.91,0.442,0.23,-36.35,8.3,2.38,2,1
17186.046,-0.898,0.432,0.228,-36.93,7.45,4.64,2,1
17186.062,-0.888,0.424,0.221,-37.78,5.92,5.65,2,1
17186.078,-0.883,0.415,0.214,-39.49,4.94,5.95,2,1
17186.078,-0.889,0.405,0.211,-41.44,4.58,6.56,2,1
17186.093,-0.893,0.396,0.21,-42.6,4.73,7.39,2,1
17186.109,-0.897,0.385,0.211,-42.76,5.77,8.0,2,1
17186.109,-0.897,0.382,0.217,-42.6,6.93,8.58,2,1
17186.125,-0.892,0.382,0.223,-41.81,7.9,9.31,2,1
17186.14,-0.892,0.377,0.227,-40.86,8.55,10.22,2,1
17186.14,-0.895,0.372,0.237,-40.01,8.85,11.63,2,1
17186.156,-0.895,0.365,0.241,-38.85,8.18,13.12,2,1
17186.156,-0.904,0.361,0.237,-37.81,7.11,14.04,2,1
17186.171,-0.9,0.36,0.232,-37.02,5.58,14.31,2,1
17186.187,-0.892,0.351,0.23,-36.53,4.24,14.44,2,1
17186.187,-0.884,0.351,0.227,-36.1,3.54,14.47,2,1
17186.203,-0.869,0.345,0.228,-35.58,3.23,14.74,2,1
17186.218,-0.858,0.332,0.226,-34.39,3.72,15.35,2,1
17186.218,-0.851,0.325,0.228,-32.47,4.67,15.81,2,1
17186.234,-0.849,0.319,0.222,-28.66,6.38,14.62,2,1
17186.234,-0.852,0.323,0.213,-28.2,6.74,12.51,2,1
17186.25,-0.849,0.328,0.215,-28.2,6.65,10.25,2,1
17186.265,-0.844,0.323,0.215,-27.8,6.81,8.36,2,1
17186.281,-0.846,0.33,0.214,-27.04,7.69,6.87,2,1
17186.281,-0.856,0.333,0.219,-25.97,8.82,5.98,2,1
17186.296,-0.863,0.338,0.227,-24.75,9.52,5.43,2,1
17186.296,-0.873,0.344,0.238,-23.8,9.83,5.13,2,1
17186.312,-0.877,0.346,0.249,-22.71,8.94,5.13,2,1
17186.328,-0.871,0.344,0.252,-21.33,7.35,5.58,2,1
17186.328,-0.87,0.342,0.25,-19.84,5.92,6.56,2,1
17186.343,-0.874,0.343,0.244,-18.04,4.61,8.03,2,1
17186.343,-0.875,0.351,0.235,-16.54,3.66,9.34,2,1
17186.359,-0.868,0.357,0.228,-15.87,3.3,10.22,2,1
17186.375,-0.861,0.361,0.228,-15.32,3.66,10.68,2,1
17186.39,-0.854,0.364,0.234,-14.47,4.58,10.8,2,1
17186.39,-0.851,0.369,0.236,-13.86,5.74,10.74,2,1
17186.406,-0.842,0.376,0.246,-13.43,6.93,11.05,2,1
17186.406,-0.842,0.383,0.25,-13.09,7.81,11.63,2,1
17186.421,-0.842,0.386,0.253,-12.6,8.3,13.03,2,1
17186.437,-0.84,0.393,0.246,-11.78,8.3,14.65,2,1
17186.437,-0.843,0.403,0.235,-11.44,7.87,15.66,2,1
17186.453,-0.844,0.404,0.231,-11.93,7.75,15.96,2,1
17186.468,-0.847,0.408,0.225,-12.54,8.3,15.56,2,1
17186.468,-0.853,0.415,0.219,-13.03,9.16,14.28,2,1
17186.484,-0.854,0.42,0.222,-13.98,10.22,12.3,2,1
17186.484,-0.86,0.423,0.231,-15.17,11.26,9.98,2,1
17186.5,-0.862,0.424,0.24,-16.36,12.09,7.32,2,1
17186.515,-0.861,0.424,0.247,-17.37,12.33,5.22,2,1
17186.531,-0.868,0.425,0.255,-18.16,11.99,3.57,2,1
17186.531,-0.87,0.427,0.258,-18.86,11.2,2.69,2,1
17186.546,-0.868,0.425,0.255,-19.26,10.25,2.26,2,1
17186.546,-0.866,0.42,0.251,-19.26,9.22,2.38,2,1
17186.562,-0.865,0.418,0.241,-18.92,8.55,2.84,2,1
17186.578,-0.862,0.412,0.235,-18.95,9.06,3.23,2,1
17186.578,-0.862,0.404,0.226,-18.71,10.13,3.33,2,1
17186.593,-0.866,0.398,0.217,-18.04,11.66,3.02,2,1
17186.593,-0.866,0.394,0.215,-17.94,13.73,1.89,2,1
17186.609,-0.869,0.394,0.219,-18.19,15.66,0.31,2,1
17186.625,-0.872,0.391,0.225,-18.1,17.03,-1.28,2,1
17186.625,-0.872,0.388,0.238,-18.13,17.64,-3.05,2,1
17186.64,-0.871,0.379,0.249,-18.13,17.21,-4.85,2,1
17186.656,-0.869,0.366,0.253,-17.3,16.3,-6.44,2,1
17186.656,-0.868,0.364,0.247,-16.33,14.8,-7.9,2,1
17186.671,-0.873,0.367,0.238,-16.11,12.82,-9.22,2,1
17186.687,-0.877,0.368,0.233,-16.75,11.11,-10.35,2,1
17186.687,-0.879,0.364,0.229,-17.09,9.89,-11.32,2,1
17186.703,-0.875,0.365,0.223,-17.18,9.0,-12.3,2,1
17186.718,-0.874,0.366,0.221,-16.88,8.82,-13.0,2,1
17186.718,-0.867,0.367,0.223,-16.17,9.13,-13.15,2,1
17186.734,-0.869,0.365,0.224,-14.86,9.8,-12.73,2,1
17186.734,-0.876,0.361,0.224,-13.52,10.65,-12.27,2,1
17186.75,-0.886,0.363,0.228,-13.03,11.08,-11.81,2,1
17186.765,-0.897,0.362,0.232,-13.12,11.17,-10.99,2,1
17186.781,-0.907,0.352,0.237,-12.85,11.05,-9.52,2,1
17186.781,-0.903,0.344,0.25,-11.96,10.9,-7.78,2,1
17186.796,-0.903,0.336,0.255,-10.56,10.41,-5.89,2,1
17186.796,-0.898,0.327,0.249,-8.21,8.94,-3.42,2,1
17186.812,-0.897,0.346,0.243,-5.74,9.49,-2.96,2,1
17186.828,-0.91,0.337,0.245,-5.8,9.13,-2.5,2,1
17186.828,-0.911,0.316,0.252,-5.86,6.53,-1.74,2,1
17186.843,-0.903,0.314,0.25,-3.85,5.22,-1.37,2,1
17186.859,-0.894,0.313,0.242,-1.92,4.0,-2.11,2,1
17186.859,-0.891,0.301,0.241,-0.79,2.78,-3.6,2,1
17186.875,-0.893,0.287,0.244,0.55,1.4,-5.43,2,1
17186.89,-0.886,0.267,0.25,1.8,-0.12,-7.9,2,1
17186.89,-0.874,0.255,0.26,2.78,-1.04,-11.05,2,1
17186.906,-0.868,0.261,0.259,2.93,-1.8,-13.92,2,1
17186.906,-0.862,0.279,0.241,2.81,-3.2,-15.26,2,1
17186.921,-0.868,0.304,0.223,3.42,-3.14,-14.95,2,1
17186.937,-0.881,0.325,0.207,3.91,-1.95,-12.85,2,1
17186.937,-0.894,0.333,0.191,5.1,0.31,-9.74,2,1
17186.953,-0.905,0.333,0.176,8.18,3.72,-6.56,2,1
17186.968,-0.907,0.34,0.163,11.72,7.87,-4.12,2,1
17186.968,-0.912,0.344,0.162,14.59,12.15,-2.26,2,1
17186.984,-0.924,0.333,0.167,16.79,15.69,-0.43,2,1
17187.0,-0.929,0.327,0.179,18.13,18.19,1.59,2,1
17187.0,-0.932,0.333,0.192,19.04,18.77,3.14,2,1
17187.015,-0.927,0.339,0.196,19.65,17.18,4.0,2,1
17187.015,-0.929,0.341,0.192,19.81,14.59,3.78,2,1
17187.031,-0.928,0.341,0.19,19.26,11.14,2.99,2,1
17187.046,-0.927,0.347,0.171,18.37,7.14,1.65,2,1
17187.062,-0.927,0.352,0.152,16.75,3.39,-0.27,2,1
17187.062,-0.917,0.338,0.149,15.47,1.04,-2.04,2,1
17187.078,-0.906,0.346,0.138,14.98,-0.03,-3.63,2,1
17187.078,-0.9,0.373,0.119,13.73,-0.46,-4.79,2,1
17187.093,-0.893,0.381,0.113,11.38,-0.27,-5.13,2,1
17187.109,-0.893,0.384,0.12,9.77,1.19,-5.07,2,1
17187.109,-0.884,0.389,0.13,9.89,2.9,-4.21,2,1
17187.125,-0.888,0.383,0.128,11.08,4.94,-3.6,2,1
17187.125,-0.901,0.359,0.14,11.23,6.56,-3.3,2,1
17187.14,-0.901,0.34,0.161,11.38,7.51,-3.08,2,1
17187.156,-0.891,0.324,0.178,12.02,7.6,-3.91,2,1
17187.156,-0.895,0.315,0.19,12.42,6.59,-5.68,2,1
17187.171,-0.904,0.33,0.182,11.6,4.27,-8.27,2,1
17187.187,-0.915,0.354,0.154,7.72,0.58,-11.2,2,1
17187.187,-0.924,0.39,0.13,0.7,-3.36,-14.19,2,1
17187.203,-0.926,0.4,0.12,-7.51,-6.93,-16.42,2,1
17187.218,-0.927,0.398,0.107,-22.58,-9.49,-17.43,2,1
17187.218,-0.918,0.367,0.126,-21.76,-6.99,-16.6,2,1
17187.234,-0.909,0.315,0.159,-13.58,-2.81,-15.69,2,1
17187.25,-0.92,0.27,0.177,-3.72,1.5,-14.89,2,1
17187.25,-0.934,0.254,0.183,2.9,5.37,-14.98,2,1
17187.265,-0.947,0.256,0.184,6.84,6.84,-16.63,2,1
17187.265,-0.946,0.276,0.189,6.93,4.94,-18.19,2,1
17187.281,-0.935,0.299,0.195,7.14,1.56,-18.8,2,1
17187.296,-0.935,0.307,0.202,10.07,-2.5,-20.02,2,1
17187.296,-0.939,0.305,0.201,13.28,-6.59,-18.49,2,1
17187.312,-0.928,0.31,0.181,15.11,-10.74,-14.13,2,1
17187.328,-0.914,0.299,0.172,15.26,-12.67,-10.16,2,1
17187.328,-0.921,0.261,0.173,16.51,-13.03,-6.93,2,1
17187.343,-0.929,0.249,0.159,19.71,-12.18,-4.43,2,1
17187.359,-0.935,0.245,0.146,23.29,-9.92,-1.98,2,1
17187.359,-0.932,0.257,0.126,26.34,-7.35,-0.55,2,1
17187.375,-0.935,0.293,0.123,26.58,-5.04,-0.67,2,1
17187.39,-0.937,0.301,0.13,25.76,-4.3,-0.03,2,1
17187.39,-0.928,0.315,0.14,25.42,-4.73,1.5,2,1
17187.406,-0.92,0.329,0.147,25.88,-5.68,3.66,2,1
17187.406,-0.917,0.323,0.149,26.49,-7.17,6.62,2,1
17187.421,-0.923,0.318,0.149,27.68,-8.73,9.03,2,1
17187.437,-0.924,0.301,0.154,28.93,-10.68,10.38,2,1
17187.437,-0.92,0.29,0.147,30.06,-12.7,10.38,2,1
17187.453,-0.919,0.281,0.135,30.76,-13.64,8.64,2,1
17187.468,-0.923,0.265,0.131,31.71,-13.15,6.53,2,1
17187.468,-0.913,0.265,0.136,33.17,-11.11,5.04,2,1
17187.484,-0.898,0.276,0.141,34.55,-8.09,5.22,2,1
17187.484,-0.886,0.278,0.148,36.19,-5.31,6.68,2,1
17187.5,-0.873,0.277,0.155,38.58,-2.96,8.36,2,1
17187.515,-0.869,0.273,0.162,40.5,-1.34,10.01,2,1
17187.515,-0.864,0.25,0.167,42.51,-1.37,13.92,2,1
17187.531,-0.883,0.257,0.156,47.0,-1.83,13.0,2,1
17187.546,-0.887,0.263,0.141,48.68,-2.08,11.87,2,1
17187.546,-0.881,0.283,0.115,46.78,-4.43,9.0,2,1
17187.562,-0.874,0.309,0.095,42.7,-6.78,4.27,2,1
17187.578,-0.873,0.309,0.087,39.03,-8.58,0.15,2,1
17187.578,-0.873,0.314,0.088,37.72,-9.83,-3.3,2,1
17187.593,-0.876,0.327,0.086,37.9,-10.01,-5.49,2,1
17187.593,-0.883,0.331,0.083,38.48,-9.43,-5.28,2,1
17187.609,-0.876,0.344,0.078,39.03,-8.88,-4.76,2,1
17187.625,-0.882,0.356,0.075,39.06,-7.97,-4.09,2,1
17187.625,-0.888,0.353,0.08,39.06,-6.99,-2.14,2,1
17187.64,-0.893,0.368,0.081,39.95,-5.83,0.43,2,1
17187.656,-0.904,0.379,0.073,40.62,-4.58,3.63,2,1
17187.656,-0.886,0.388,0.074,40.04,-3.36,8.0,2,1
17187.671,-0.892,0.364,0.077,37.54,-0.92,11.93,2,1
17187.687,-0.881,0.368,0.086,35.68,1.5,15.96,2,1
17187.687,-0.882,0.365,0.093,37.45,2.17,17.06,2,1
17187.703,-0.884,0.373,0.091,37.39,2.01,16.42,2,1
17187.703,-0.888,0.393,0.076,34.3,0.76,13.73,2,1
17187.718,-0.894,0.389,0.071,29.36,-0.92,10.44,2,1
17187.734,-0.896,0.37,0.087,25.06,-2.47,6.9,2,1
17187.75,-0.889,0.358,0.095,22.98,-3.85,1.92,2,1
17187.75,-0.888,0.359,0.087,21.76,-4.79,-3.51,2,1
17187.765,-0.889,0.373,0.08,19.56,-5.34,-8.39,2,1
17187.765,-0.892,0.376,0.089,16.11,-4.94,-12.33,2,1
17187.781,-0.903,0.359,0.109,13.31,-4.27,-16.02,2,1
17187.796,-0.922,0.352,0.122,13.15,-4.49,-20.11,2,1
17187.796,-0.932,0.354,0.132,14.1,-5.65,-23.19,2,1
17187.812,-0.938,0.352,0.141,13.58,-7.78,-24.87,2,1
17187.828,-0.942,0.352,0.148,12.82,-11.26,-26.12,2,1
17187.828,-0.929,0.355,0.14,12.09,-15.32,-26.06,2,1
17187.843,-0.931,0.361,0.118,11.11,-19.29,-24.96,2,1
17187.859,-0.937,0.356,0.103,9.77,-22.68,-23.26,2,1
17187.859,-0.937,0.36,0.09,9.61,-24.29,-21.61,2,1
17187.875,-0.943,0.359,0.081,10.47,-23.99,-20.02,2,1
17187.89,-0.936,0.352,0.082,11.51,-21.73,-18.68,2,1
17187.89,-0.922,0.34,0.082,13.79,-19.38,-16.57,2,1
17187.906,-0.901,0.343,0.082,16.51,-18.01,-14.68,2,1
17187.906,-0.89,0.363,0.073,17.64,-17.37,-15.08,2,1
17187.921,-0.893,0.386,0.061,14.92,-17.3,-16.79,2,1
17187.937,-0.885,0.392,0.064,8.97,-17.64,-19.23,2,1
17187.937,-0.892,0.377,0.072,3.94,-18.16,-21.18,2,1
17187.953,-0.898,0.369,0.083,1.68,-17.94,-22.0,2,1
17187.968,-0.886,0.35,0.099,1.5,-16.3,-20.45,2,1
17187.968,-0.872,0.326,0.098,3.3,-14.04,-16.91,2,1
17187.984,-0.888,0.317,0.083,6.04,-12.45,-13.34,2,1
17187.984,-0.908,0.313,0.072,7.02,-11.6,-10.47,2,1
17188.0,-0.928,0.309,0.063,5.74,-11.69,-9.49,2,1
17188.015,-0.95,0.296,0.072,4.12,-11.11,-11.14,2,1
17188.031,-0.967,0.289,0.083,3.23,-9.22,-14.86,2,1
17188.031,-0.978,0.293,0.091,2.66,-6.9,-20.36,2,1
17188.046,-0.984,0.288,0.106,1.5,-5.1,-25.82,2,1
17188.046,-0.976,0.284,0.128,0.49,-4.06,-29.79,2,1
17188.062,-0.98,0.294,0.133,0.24,-4.58,-32.41,2,1
17188.078,-0.984,0.309,0.119,-0.76,-7.57,-32.26,2,1
17188.078,-0.975,0.306,0.115,-3.36,-9.61,-30.06,2,1
17188.093,-0.973,0.283,0.122,-4.94,-10.65,-25.67,2,1
17188.109,-0.967,0.263,0.128,-2.2,-10.07,-19.53,2,1
17188.109,-0.956,0.245,0.135,3.69,-7.08,-12.02,2,1
17188.125,-0.964,0.24,0.137,9.55,-3.63,-5.58,2,1
17188.14,-0.975,0.243,0.136,12.88,-1.89,-1.28,2,1
17188.14,-0.988,0.25,0.129,13.15,-1.56,-0.09,2,1
17188.156,-1.007,0.247,0.13,10.77,-3.2,-1.07,2,1
17188.156,-1.002,0.234,0.138,7.78,-5.65,-3.51,2,1
17188.171,-1.001,0.214,0.154,6.38,-6.35,-6.9,2,1
17188.187,-1.024,0.208,0.153,7.63,-6.71,-10.59,2,1
17188.187,-1.054,0.231,0.139,8.64,-7.26,-15.41,2,1
17188.203,-1.062,0.242,0.128,1.89,-11.69,-22.83,2,1
17188.203,-1.056,0.246,0.13,0.92,-12.42,-23.41,2,1
17188.218,-1.033,0.241,0.142,3.17,-11.57,-20.57,2,1
17188.234,-1.009,0.235,0.171,7.11,-9.4,-15.32,2,1
17188.25,-1.033,0.246,0.166,10.83,-8.39,-10.8,2,1
17188.25,-1.051,0.261,0.16,10.93,-9.13,-8.48,2,1
17188.265,-1.051,0.256,0.172,7.66,-10.32,-6.47,2,1
17188.265,-1.033,0.237,0.188,5.86,-11.63,-4.88,2,1
17188.281,-1.023,0.219,0.191,7.05,-12.91,-3.27,2,1
17188.296,-1.01,0.214,0.187,9.22,-13.7,-1.65,2,1
17188.312,-0.991,0.212,0.179,10.68,-14.83,-0.7,2,1
17188.312,-0.991,0.215,0.168,10.77,-15.78,-1.98,2,1
17188.328,-0.985,0.214,0.168,9.28,-16.6,-3.88,2,1
17188.328,-0.978,0.201,0.181,8.09,-16.91,-5.46,2,1
17188.343,-0.98,0.184,0.191,9.28,-16.54,-6.62,2,1
17188.359,-0.976,0.181,0.19,12.63,-17.24,-7.05,2,1
17188.359,-0.976,0.203,0.18,14.98,-18.98,-8.3,2,1
17188.375,-0.971,0.206,0.173,14.31,-21.3,-9.37,2,1
17188.375,-0.935,0.188,0.178,13.25,-23.87,-8.55,2,1
17188.39,-0.897,0.162,0.192,16.6,-24.66,-5.86,2,1
17188.406,-0.872,0.135,0.194,24.02,-23.32,-0.52,2,1
17188.406,-0.841,0.132,0.181,31.98,-21.42,6.1,2,1
17188.421,-0.822,0.146,0.171,37.26,-18.98,10.71,2,1
17188.437,-0.84,0.139,0.172,40.22,-16.54,11.02,2,1
17188.453,-0.87,0.166,0.16,41.47,-16.21,5.62,2,1
17188.453,-0.881,0.21,0.138,37.9,-18.1,-3.54,2,1
17188.468,-0.865,0.235,0.134,30.49,-20.02,-12.39,2,1
17188.468,-0.855,0.224,0.146,25.73,-20.6,-17.98,2,1
17188.484,-0.875,0.196,0.167,27.01,-18.62,-19.2,2,1
17188.5,-0.877,0.2,0.17,32.65,-15.84,-16.85,2,1
17188.5,-0.905,0.227,0.16,37.51,-13.18,-14.77,2,1
17188.515,-0.942,0.253,0.16,36.96,-12.15,-14.74,2,1
17188.515,-0.941,0.27,0.173,32.07,-13.58,-16.79,2,1
17188.531,-0.932,0.262,0.188,27.44,-15.87,-17.61,2,1
17188.546,-0.91,0.256,0.186,26.86,-17.98,-15.87,2,1
17188.546,-0.888,0.271,0.162,27.25,-18.8,-13.28,2,1
17188.562,-0.909,0.265,0.144,25.64,-18.22,-11.32,2,1
17188.578,-0.905,0.248,0.129,23.59,-16.57,-9.61,2,1
17188.578,-0.898,0.262,0.121,22.34,-13.52,-10.01,2,1
17188.593,-0.915,0.259,0.124,20.39,-9.89,-10.65,2,1
17188.609,-0.935,0.263,0.14,17.52,-6.84,-12.39,2,1
17188.609,-0.96,0.275,0.159,14.19,-4.64,-14.68,2,1
17188.625,-0.976,0.277,0.179,10.65,-4.24,-15.05,2,1
17188.625,-0.969,0.267,0.2,8.51,-4.97,-13.61,2,1
17188.64,-0.974,0.253,0.214,8.15,-5.37,-10.96,2,1
17188.656,-0.97,0.249,0.21,7.84,-6.78,-8.58,2,1
17188.656,-0.974,0.241,0.206,6.38,-8.06,-8.51,2,1
17188.671,-0.988,0.236,0.206,3.42,-9.34,-11.93,2,1
17188.687,-0.975,0.224,0.214,-1.53,-11.47,-17.24,2,1
17188.687,-0.965,0.2,0.228,-5.95,-13.31,-21.67,2,1
17188.703,-0.947,0.175,0.239,-6.84,-15.47,-23.41,2,1
17188.718,-0.917,0.183,0.23,-5.25,-17.33,-23.8,2,1
17188.718,-0.885,0.199,0.213,-5.16,-19.32,-24.6,2,1
17188.734,-0.873,0.204,0.205,-8.0,-21.52,-27.07,2,1
17188.75,-0.871,0.202,0.197,-11.9,-23.29,-31.25,2,1
17188.75,-0.869,0.2,0.184,-15.63,-23.53,-36.01,2,1
17188.765,-0.865,0.193,0.18,-18.28,-22.06,-38.85,2,1
17188.765,-0.866,0.191,0.179,-19.04,-18.95,-39.52,2,1
17188.781,-0.878,0.189,0.185,-18.01,-15.14,-37.39,2,1
17188.796,-0.889,0.178,0.198,-15.47,-11.11,-32.23,2,1
17188.812,-0.898,0.189,0.212,-12.67,-7.54,-26.0,2,1
17188.812,-0.918,0.186,0.227,-10.8,-4.85,-20.26,2,1
17188.828,-0.924,0.182,0.251,-10.44,-3.27,-15.99,2,1
17188.828,-0.922,0.178,0.268,-11.02,-2.9,-12.48,2,1
17188.843,-0.917,0.165,0.278,-11.44,-3.6,-8.24,2,1
17188.859,-0.91,0.152,0.283,-11.51,-4.43,-3.17,2,1
17188.859,-0.926,0.132,0.282,-10.71,-5.1,1.62,2,1
17188.875,-0.948,0.121,0.278,-8.61,-4.36,5.4,2,1
17188.875,-0.969,0.112,0.278,-7.14,-2.32,7.6,2,1
17188.89,-0.98,0.098,0.293,-5.83,0.31,10.74,2,1
17188.906,-0.977,0.096,0.315,-3.17,2.5,14.8,2,1
17188.906,-0.975,0.095,0.327,0.21,3.91,19.26,2,1
17188.921,-0.98,0.104,0.333,3.78,3.69,23.01,2,1
17188.937,-0.985,0.112,0.327,5.49,1.59,24.63,2,1
17188.937,-0.982,0.103,0.317,4.91,-1.22,24.02,2,1
17188.953,-0.969,0.096,0.313,3.63,-4.12,21.67,2,1
17188.968,-0.961,0.1,0.296,2.56,-6.96,18.22,2,1
17188.968,-0.946,0.112,0.282,1.16,-9.06,14.98,2,1
17188.984,-0.93,0.129,0.264,-0.06,-9.83,12.48,2,1
17188.984,-0.917,0.14,0.248,-0.64,-9.13,10.56,2,1
17189.0,-0.907,0.149,0.244,-0.49,-7.29,8.97,2,1
17189.015,-0.904,0.156,0.246,0.21,-4.88,7.45,2,1
17189.015,-0.904,0.161,0.252,0.76,-2.2,6.47,2,1
17189.031,-0.911,0.166,0.264,0.92,-0.31,6.32,2,1
17189.046,-0.912,0.168,0.281,0.58,0.18,6.53,2,1
17189.046,-0.916,0.158,0.292,0.52,-0.15,7.63,2,1
17189.062,-0.915,0.158,0.301,1.31,-1.13,9.09,2,1
17189.078,-0.92,0.159,0.294,1.95,-2.38,9.31,2,1
17189.078,-0.927,0.158,0.282,1.37,-4.27,8.73,2,1
17189.093,-0.909,0.147,0.282,0.12,-6.2,8.45,2,1
17189.109,-0.906,0.139,0.274,0.61,-6.68,7.57,2,1
17189.109,-0.903,0.149,0.257,1.56,-6.53,5.34,2,1
17189.125,-0.893,0.153,0.245,0.95,-5.95,2.44,2,1
17189.125,-0.889,0.16,0.249,-0.73,-4.46,-1.95,2,1
17189.14,-0.891,0.164,0.252,-2.59,-3.42,-5.83,2,1
17189.156,-0.894,0.175,0.256,-3.69,-2.56,-7.93,2,1
17189.156,-0.896,0.175,0.26,-4.21,-2.2,-8.42,2,1
17189.171,-0.908,0.175,0.26,-4.03,-2.23,-7.87,2,1
17189.187,-0.92,0.168,0.266,-2.41,-2.29,-5.74,2,1
17189.203,-0.927,0.159,0.268,-1.59,-1.25,-4.27,2,1
17189.203,-0.93,0.158,0.268,-0.92,-0.09,-3.08,2,1
17189.203,-0.942,0.147,0.279,0.31,0.58,-2.59,2,1
17189.218,-0.952,0.157,0.293,1.22,0.43,-2.04,2,1
17189.234,-0.949,0.163,0.297,1.19,-0.52,-1.46,2,1
17189.234,-0.94,0.154,0.299,1.01,-2.23,-1.34,2,1
17189.25,-0.931,0.152,0.291,1.13,-4.64,-1.8,2,1
17189.265,-0.927,0.157,0.277,1.28,-6.56,-1.98,2,1
17189.281,-0.918,0.161,0.258,0.49,-7.2,-1.4,2,1
17189.281,-0.908,0.151,0.245,0.43,-6.47,-1.1,2,1
17189.296,-0.908,0.143,0.247,1.37,-4.39,-1.56,2,1
17189.296,-0.902,0.159,0.253,2.59,-2.32,-2.56,2,1
17189.312,-0.896,0.183,0.258,3.33,-0.92,-3.85,2,1
17189.328,-0.902,0.184,0.27,2.5,-0.61,-4.73,2,1
17189.328,-0.901,0.178,0.28,1.68,-1.56,-5.07,2,1
17189.343,-0.897,0.181,0.279,2.08,-2.9,-5.71,2,1
17189.359,-0.903,0.183,0.269,1.43,-3.72,-6.47,2,1
17189.359,-0.911,0.173,0.266,-0.24,-4.18,-6.68,2,1
17189.375,-0.907,0.165,0.271,-0.73,-3.36,-6.1,2,1
17189.375,-0.913,0.172,0.269,0.98,-1.83,-5.31,2,1
17189.39,-0.922,0.187,0.264,1.43,-0.67,-4.91,2,1
17189.406,-0.926,0.187,0.272,-0.12,-0.18,-4.73,2,1
17189.406,-0.932,0.193,0.276,-1.28,-0.24,-4.82,2,1
17189.421,-0.939,0.187,0.282,-2.11,-0.31,-4.0,2,1
17189.437,-0.943,0.171,0.291,-2.01,-0.24,-1.62,2,1
17189.437,-0.947,0.171,0.291,0.09,0.06,1.25,2,1
17189.453,-0.95,0.17,0.291,1.4,0.64,3.51,2,1
17189.468,-0.947,0.161,0.298,1.56,0.82,4.82,2,1
17189.468,-0.939,0.158,0.295,1.8,0.21,4.88,2,1
17189.484,-0.93,0.163,0.289,1.71,-0.49,4.15,2,1
17189.5,-0.931,0.167,0.288,0.76,-1.25,2.78,2,1
17189.5,-0.935,0.158,0.291,-0.58,-2.01,1.07,2,1
17189.515,-0.939,0.153,0.292,-1.07,-2.56,-1.01,2,1
17189.515,-0.941,0.159,0.286,-1.19,-2.84,-2.35,2,1
17189.531,-0.933,0.164,0.284,-2.26,-2.93,-2.32,2,1
17189.546,-0.929,0.155,0.286,-3.27,-2.59,-2.14,2,1
17189.546,-0.931,0.154,0.287,-2.81,-2.35,-2.38,2,1
