timestamp,ax,ay,az,gx,gy,gz,orient_label,motion_label
17159.703,-0.892,0.199,0.347,-0.37,-3.23,-1.43,2,1
17159.703,-0.886,0.21,0.338,-0.85,-2.93,-1.34,2,1
17159.718,-0.887,0.209,0.343,-1.34,-2.26,-1.04,2,1
17159.734,-0.889,0.205,0.347,-1.13,-1.46,0.03,2,1
17159.734,-0.885,0.203,0.351,0.03,-0.76,1.68,2,1
17159.75,-0.888,0.205,0.351,1.19,-0.4,2.69,2,1
17159.765,-0.893,0.206,0.347,1.13,-0.67,2.81,2,1
17159.765,-0.887,0.205,0.347,0.12,-1.13,2.69,2,1
17159.781,-0.885,0.204,0.344,-0.64,-1.4,2.41,2,1
17159.796,-0.886,0.209,0.341,-1.04,-1.43,2.81,2,1
17159.796,-0.89,0.214,0.338,-0.64,-1.04,4.27,2,1
17159.812,-0.894,0.217,0.337,0.76,0.03,7.39,2,1
17159.828,-0.89,0.213,0.334,3.17,1.65,11.38,2,1
17159.828,-0.896,0.218,0.331,5.92,3.39,14.77,2,1
17159.843,-0.892,0.229,0.331,7.39,4.64,17.33,2,1
17159.843,-0.889,0.236,0.332,7.2,5.62,18.98,2,1
17159.859,-0.885,0.232,0.339,6.26,6.2,19.87,2,1
17159.89,-0.876,0.226,0.345,4.58,5.34,18.92,2,1
17159.89,-0.872,0.225,0.342,3.54,4.24,17.64,2,1
17159.906,-0.872,0.224,0.339,2.01,3.3,15.81,2,1
17159.906,-0.873,0.213,0.344,0.0,2.53,13.34,2,1
17159.921,-0.879,0.203,0.352,-1.25,1.83,10.41,2,1
17159.937,-0.883,0.198,0.352,-1.37,1.28,7.63,2,1
17159.937,-0.88,0.197,0.354,-1.5,0.76,4.97,2,1
17159.953,-0.885,0.2,0.35,-2.14,0.09,2.11,2,1
17159.953,-0.889,0.203,0.35,-3.36,-0.61,-0.12,2,1
17159.968,-0.887,0.205,0.351,-4.06,-1.19,-1.68,2,1
17159.984,-0.896,0.199,0.349,-3.85,-1.43,-2.53,2,1
17159.984,-0.904,0.201,0.343,-3.14,-1.56,-2.99,2,1
17160.0,-0.912,0.213,0.34,-2.5,-1.46,-3.48,2,1
17160.015,-0.918,0.214,0.337,-2.35,-1.04,-3.17,2,1
17160.031,-0.922,0.216,0.336,-2.26,-0.89,-2.26,2,1
17160.031,-0.923,0.219,0.34,-1.98,-0.85,-1.34,2,1
17160.046,-0.932,0.215,0.341,-1.95,-1.53,-0.34,2,1
17160.062,-0.936,0.221,0.341,-2.17,-2.38,-0.27,2,1
17160.078,-0.939,0.226,0.333,-3.08,-3.33,-0.49,2,1
17160.078,-0.95,0.222,0.329,-4.82,-4.06,-0.31,2,1
17160.093,-0.953,0.218,0.328,-6.04,-4.73,0.76,2,1
17160.093,-0.958,0.215,0.327,-6.16,-4.88,2.04,2,1
17160.109,-0.968,0.208,0.327,-5.71,-4.52,3.91,2,1
17160.125,-0.967,0.203,0.329,-5.1,-4.15,6.32,2,1
17160.125,-0.967,0.212,0.322,-4.7,-4.03,8.45,2,1
17160.14,-0.969,0.215,0.313,-5.07,-4.55,10.68,2,1
17160.156,-0.969,0.222,0.302,-6.29,-5.86,13.25,2,1
17160.171,-0.971,0.231,0.283,-8.51,-8.03,15.47,2,1
17160.171,-0.955,0.237,0.268,-11.99,-10.62,17.61,2,1
17160.187,-0.92,0.245,0.261,-15.99,-12.15,19.53,2,1
17160.187,-0.898,0.243,0.247,-19.35,-11.96,20.33,2,1
17160.203,-0.88,0.257,0.236,-22.92,-11.02,19.71,2,1
17160.218,-0.877,0.267,0.219,-34.12,-9.83,17.94,2,1
17160.234,-0.884,0.269,0.201,-40.47,-11.51,17.37,2,1
17160.234,-0.887,0.27,0.191,-46.78,-14.31,16.39,2,1
17160.25,-0.874,0.253,0.187,-53.35,-17.94,16.05,2,1
17160.265,-0.847,0.253,0.162,-59.42,-20.29,16.85,2,1
17160.265,-0.828,0.249,0.176,-63.6,-20.2,17.61,2,1
17160.281,-0.812,0.241,0.19,-66.56,-20.11,19.14,2,1
17160.296,-0.812,0.237,0.191,-68.58,-20.81,21.09,2,1
17160.296,-0.823,0.225,0.183,-69.89,-21.91,23.65,2,1
17160.312,-0.837,0.204,0.177,-69.83,-22.68,26.7,2,1
17160.328,-0.842,0.192,0.177,-68.7,-22.52,29.54,2,1
17160.328,-0.856,0.179,0.19,-67.48,-21.52,31.95,2,1
17160.343,-0.868,0.148,0.218,-66.44,-20.78,33.57,2,1
17160.359,-0.866,0.128,0.224,-65.37,-20.29,33.81,2,1
17160.359,-0.871,0.12,0.23,-65.83,-20.45,32.65,2,1
17160.375,-0.871,0.112,0.244,-67.17,-22.1,31.28,2,1
17160.39,-0.867,0.111,0.246,-68.06,-24.84,29.57,2,1
17160.39,-0.866,0.12,0.267,-69.43,-28.32,27.41,2,1
17160.406,-0.847,0.137,0.294,-71.38,-33.72,25.97,2,1
17160.421,-0.808,0.141,0.32,-72.91,-39.16,25.33,2,1
17160.421,-0.786,0.134,0.357,-73.95,-44.04,25.48,2,1
17160.437,-0.779,0.11,0.376,-74.16,-49.84,26.92,2,1
17160.437,-0.765,0.095,0.4,-72.85,-56.46,28.6,2,1
17160.453,-0.755,0.09,0.41,-68.97,-62.23,29.05,2,1
17160.468,-0.75,0.086,0.426,-64.73,-66.9,28.02,2,1
17160.468,-0.713,0.071,0.484,-60.46,-70.01,24.75,2,1
17160.484,-0.72,0.063,0.491,-55.97,-74.74,18.92,2,1
17160.5,-0.754,0.095,0.515,-58.6,-83.59,14.59,2,1
17160.5,-0.757,0.094,0.559,-62.2,-95.89,12.6,2,1
17160.515,-0.744,0.091,0.577,-62.32,-108.52,10.28,2,1
17160.531,-0.721,0.086,0.6,-62.32,-121.34,7.2,2,1
17160.531,-0.646,0.062,0.631,-63.81,-133.85,5.07,2,1
17160.546,-0.598,0.068,0.663,-64.03,-141.94,0.27,2,1
17160.546,-0.603,0.065,0.671,-62.38,-149.88,-5.28,2,1
17160.562,-0.599,0.041,0.684,-60.12,-157.99,-10.19,2,1
17160.578,-0.594,0.029,0.719,-56.61,-164.46,-14.65,2,1
17160.578,-0.594,0.017,0.747,-50.57,-171.61,-17.0,2,1
17160.593,-0.577,-0.002,0.763,-41.17,-179.57,-18.04,2,1
17160.609,-0.525,-0.01,0.779,-29.88,-187.6,-17.55,2,1
17160.609,-0.468,-0.001,0.791,-17.67,-195.38,-15.69,2,1
17160.625,-0.446,0.012,0.802,-3.63,-202.06,-14.98,2,1
17160.64,-0.441,-0.004,0.815,12.27,-206.88,-13.43,2,1
17160.64,-0.403,-0.018,0.821,29.3,-208.26,-11.47,2,1
17160.656,-0.372,-0.003,0.83,44.68,-204.14,-10.44,2,1
17160.656,-0.34,0.042,0.843,66.38,-190.95,-14.31,2,1
17160.671,-0.306,0.073,0.84,67.84,-183.17,-18.68,2,1
17160.687,-0.304,0.091,0.829,64.12,-172.61,-21.61,2,1
17160.687,-0.23,0.184,0.892,62.23,-156.07,-27.62,2,1
17160.703,-0.235,0.185,0.93,59.05,-140.72,-32.32,2,1
17160.718,-0.175,0.25,1.047,48.86,-115.05,-36.71,2,1
17160.734,-0.147,0.279,1.087,49.75,-106.78,-37.11,2,1
17160.75,-0.15,0.278,1.103,54.63,-102.76,-35.92,2,1
17160.75,-0.115,0.266,1.122,63.3,-98.21,-32.56,2,1
17160.765,-0.108,0.285,1.135,73.49,-90.64,-30.0,2,1
17160.765,-0.096,0.308,1.134,81.94,-84.08,-28.81,2,1
17160.781,-0.066,0.333,1.14,86.76,-76.75,-26.7,2,1
17160.796,-0.066,0.378,1.145,90.33,-70.35,-25.79,2,1
17160.796,-0.067,0.399,1.138,91.49,-68.67,-24.2,2,1
17160.812,-0.035,0.43,1.138,89.02,-70.31,-21.3,2,1
17160.828,-0.022,0.454,1.118,85.6,-73.37,-20.29,2,1
17160.828,-0.011,0.441,1.08,81.0,-78.25,-19.53,2,1
17160.843,0.028,0.456,1.042,75.35,-83.01,-19.17,2,1
17160.859,0.047,0.472,0.998,69.03,-84.87,-19.56,2,1
17160.859,0.066,0.457,0.974,61.71,-82.61,-18.28,2,1
17160.875,0.084,0.449,0.979,54.29,-75.38,-15.59,2,1
17160.875,0.079,0.436,0.997,49.56,-66.16,-14.62,2,1
17160.89,0.09,0.416,1.011,47.09,-59.14,-14.77,2,1
17160.906,0.1,0.432,1.024,46.08,-54.6,-15.63,2,1
17160.906,0.111,0.437,1.02,44.98,-52.95,-16.36,2,1
17160.921,0.131,0.445,1.005,41.72,-53.96,-16.85,2,1
17160.937,0.119,0.438,0.972,37.39,-56.43,-17.3,2,1
17160.953,0.111,0.433,0.942,33.81,-58.26,-17.12,2,1
17160.953,0.103,0.423,0.91,31.62,-59.08,-16.79,2,1
17160.953,0.096,0.413,0.883,31.25,-58.11,-16.66,2,1
17160.968,0.102,0.403,0.864,32.93,-54.35,-17.09,2,1
17160.984,0.113,0.403,0.849,35.86,-47.58,-18.95,2,1
17160.984,0.113,0.417,0.834,38.09,-38.33,-21.36,2,1
17161.0,0.122,0.445,0.824,38.06,-29.18,-23.56,2,1
17161.015,0.116,0.472,0.816,35.22,-21.49,-25.36,2,1
17161.031,0.093,0.475,0.82,30.85,-15.56,-25.18,2,1
17161.031,0.07,0.473,0.83,26.37,-12.54,-23.62,2,1
17161.046,0.052,0.483,0.839,21.49,-12.12,-22.46,2,1
17161.046,0.03,0.497,0.841,16.05,-13.06,-22.92,2,1
17161.062,0.011,0.511,0.845,8.97,-13.86,-24.87,2,1
17161.078,-0.008,0.532,0.859,-0.49,-14.44,-28.32,2,1
17161.078,-0.03,0.547,0.87,-11.14,-15.72,-31.5,2,1
17161.093,-0.053,0.562,0.89,-20.91,-16.63,-32.59,2,1
17161.109,-0.069,0.571,0.914,-27.22,-17.27,-30.37,2,1
17161.109,-0.09,0.56,0.934,-28.32,-17.43,-25.36,2,1
17161.125,-0.095,0.546,0.944,-23.53,-17.03,-19.29,2,1
17161.125,-0.085,0.534,0.942,-15.14,-16.11,-12.7,2,1
17161.14,-0.078,0.53,0.933,-5.22,-14.22,-6.65,2,1
17161.156,-0.059,0.539,0.918,4.67,-11.23,-1.28,2,1
17161.156,-0.048,0.548,0.896,12.73,-6.47,3.05,2,1
17161.171,-0.065,0.525,0.906,16.85,-1.1,6.93,2,1
17161.187,-0.103,0.556,0.964,13.09,-0.89,10.07,2,1
17161.187,-0.077,0.557,0.999,6.74,-8.03,14.04,2,1
17161.203,-0.05,0.484,0.991,3.6,-15.35,14.47,2,1
17161.218,0.012,0.435,0.962,-5.95,-22.61,2.9,2,1
17161.234,-0.0,0.412,0.946,-10.44,-23.83,-5.34,2,1
17161.234,0.007,0.425,0.949,-14.07,-24.87,-9.74,2,1
17161.25,0.037,0.443,0.893,-15.14,-24.87,-12.45,2,1
17161.265,0.034,0.354,0.88,-12.51,-18.07,-15.78,2,1
17161.265,-0.091,0.494,0.958,-16.39,-16.94,-17.91,2,1
17161.281,-0.0,0.494,0.957,-16.82,-22.16,-9.61,2,1
17161.296,-0.015,0.409,0.9,-9.55,-22.22,-6.35,2,1
17161.296,-0.0,0.435,0.888,-6.71,-19.44,-5.01,2,1
17161.312,-0.006,0.459,0.911,-1.59,-14.86,-3.88,2,1
17161.328,-0.052,0.479,0.918,2.78,-11.78,-2.01,2,1
17161.328,-0.05,0.486,0.923,2.78,-11.05,1.92,2,1
17161.343,-0.029,0.481,0.923,2.14,-11.32,4.15,2,1
17161.359,-0.036,0.45,0.913,3.54,-11.08,4.85,2,1
17161.359,-0.035,0.456,0.921,5.43,-11.81,5.89,2,1
17161.375,-0.04,0.46,0.928,8.09,-15.23,8.24,2,1
17161.39,0.008,0.441,0.893,14.74,-24.32,13.55,2,1
17161.406,0.005,0.447,0.914,13.64,-27.22,14.01,2,1
17161.406,0.063,0.464,0.884,8.33,-32.26,14.01,2,1
17161.421,0.121,0.329,0.838,16.11,-26.76,13.58,2,1
17161.437,0.053,0.389,0.812,27.89,-16.27,11.81,2,1
17161.437,0.107,0.443,0.825,37.29,-10.96,13.03,2,1
17161.453,0.106,0.46,0.851,35.49,-9.31,9.92,2,1
17161.468,0.076,0.477,0.845,31.5,-9.74,8.88,2,1
17161.468,0.095,0.491,0.836,25.3,-13.7,9.8,2,1
17161.484,0.097,0.498,0.847,14.68,-18.83,9.86,2,1
17161.5,0.105,0.481,0.85,3.94,-23.99,9.83,2,1
17161.5,0.124,0.462,0.856,-4.64,-28.41,8.39,2,1
17161.515,0.14,0.434,0.857,-10.04,-31.56,5.98,2,1
17161.515,0.156,0.422,0.854,-12.45,-32.44,3.78,2,1
17161.531,0.165,0.415,0.851,-12.21,-31.04,1.74,2,1
17161.546,0.179,0.403,0.85,-10.13,-28.44,0.37,2,1
17161.562,0.162,0.414,0.867,-2.11,-19.87,-0.7,2,1
17161.578,0.157,0.412,0.872,2.93,-16.3,-0.37,2,1
17161.578,0.159,0.42,0.871,7.78,-12.82,-0.64,2,1
17161.593,0.15,0.424,0.864,11.05,-9.31,-1.89,2,1
17161.609,0.145,0.426,0.861,11.87,-6.59,-3.88,2,1
17161.609,0.143,0.441,0.861,11.2,-4.52,-6.81,2,1
17161.625,0.134,0.458,0.858,9.92,-3.36,-9.8,2,1
17161.625,0.125,0.463,0.857,7.72,-2.9,-11.17,2,1
17161.64,0.129,0.474,0.857,3.54,-2.29,-10.68,2,1
17161.656,0.123,0.488,0.86,3.08,-2.41,-9.22,2,1
17161.671,0.115,0.484,0.864,3.39,-3.48,-6.84,2,1
17161.671,0.103,0.48,0.876,4.39,-5.77,-4.67,2,1
17161.687,0.109,0.489,0.883,4.88,-8.51,-4.21,2,1
17161.687,0.107,0.482,0.876,4.12,-10.19,-4.97,2,1
17161.703,0.125,0.481,0.875,2.14,-11.14,-5.77,2,1
17161.718,0.137,0.486,0.869,0.61,-10.56,-7.84,2,1
17161.734,0.131,0.477,0.869,-4.27,-8.27,-10.93,2,1
17161.734,0.136,0.484,0.879,-5.65,-7.26,-11.2,2,1
17161.75,0.134,0.478,0.879,-5.58,-5.89,-10.8,2,1
17161.765,0.133,0.465,0.883,-5.77,-5.13,-10.28,2,1
17161.765,0.134,0.477,0.889,-6.04,-5.55,-10.1,2,1
17161.781,0.161,0.473,0.838,-3.85,-4.79,-10.38,2,1
17161.796,0.214,0.372,0.791,2.23,2.96,-12.82,2,1
17161.796,0.017,0.48,0.92,3.39,8.12,-16.33,2,1
17161.812,0.088,0.59,0.987,1.04,-1.83,-7.66,2,1
17161.828,0.102,0.522,0.932,4.18,-8.55,-2.56,2,1
17161.828,0.098,0.512,0.892,1.04,-10.19,-0.12,2,1
17161.843,0.12,0.495,0.882,1.77,-8.21,2.78,2,1
17161.859,0.105,0.491,0.865,6.96,-3.97,3.57,2,1
17161.859,0.101,0.485,0.859,10.5,-1.1,4.06,2,1
17161.875,0.1,0.488,0.863,12.73,-0.73,2.96,2,1
17161.875,0.095,0.479,0.863,15.08,-2.08,1.4,2,1
17161.906,0.106,0.507,0.828,16.75,-6.38,1.68,2,1
17161.921,0.121,0.501,0.813,14.8,-7.02,3.39,2,1
17161.921,0.122,0.506,0.813,11.14,-5.71,4.85,2,1
17161.937,0.12,0.509,0.822,7.05,-3.75,6.44,2,1
17161.937,0.077,0.522,0.881,2.29,-3.3,7.69,2,1
17161.953,0.135,0.537,0.864,-3.33,-7.93,11.35,2,1
17161.968,0.183,0.42,0.792,-1.1,-5.86,9.98,2,1
17161.968,0.132,0.459,0.811,-2.04,-0.49,6.5,2,1
17161.984,0.163,0.471,0.831,0.06,1.71,6.32,2,1
17161.984,0.149,0.466,0.816,3.27,3.57,4.27,2,1
17162.0,0.151,0.48,0.812,1.59,5.07,3.17,2,1
17162.015,0.142,0.494,0.842,-1.53,6.26,2.78,2,1
17162.015,0.13,0.485,0.856,-4.03,5.1,2.29,2,1
17162.031,0.135,0.487,0.865,-6.59,3.02,2.81,2,1
17162.046,0.135,0.489,0.874,-7.72,1.16,2.44,2,1
17162.062,0.134,0.48,0.88,-7.17,-0.15,1.89,2,1
17162.062,0.135,0.478,0.882,-5.55,-1.28,1.25,2,1
17162.078,0.139,0.477,0.877,-3.05,-1.4,0.64,2,1
17162.078,0.141,0.481,0.871,-0.61,-0.73,-0.18,2,1
17162.093,0.14,0.487,0.866,0.95,0.15,-0.52,2,1
17162.109,0.143,0.491,0.862,1.74,0.92,-0.43,2,1
17162.109,0.144,0.495,0.86,1.31,1.77,-0.64,2,1
17162.125,0.142,0.499,0.857,0.52,2.69,-0.98,2,1
17162.125,0.139,0.499,0.859,-0.58,3.27,-1.19,2,1
17162.14,0.141,0.501,0.862,-1.71,3.57,-1.01,2,1
17162.156,0.14,0.496,0.86,-2.17,3.85,-0.58,2,1
17162.156,0.14,0.49,0.857,-2.32,3.85,-0.06,2,1
17162.171,0.144,0.482,0.854,-2.2,3.69,0.15,2,1
17162.187,0.147,0.474,0.846,-2.35,3.66,-0.24,2,1
17162.187,0.146,0.465,0.842,-2.29,3.94,-0.95,2,1
17162.203,0.142,0.459,0.84,-2.81,4.24,-1.92,2,1
17162.203,0.14,0.452,0.838,-3.69,4.61,-3.14,2,1
17162.218,0.133,0.45,0.839,-5.98,4.97,-4.52,2,1
17162.234,0.134,0.455,0.841,-8.67,5.68,-5.68,2,1
17162.234,0.136,0.445,0.831,-9.98,7.9,-6.99,2,1
17162.25,0.138,0.439,0.823,-10.44,11.78,-8.73,2,1
17162.265,0.183,0.431,0.751,-9.06,19.17,-10.96,2,1
17162.265,0.183,0.334,0.777,-3.69,36.04,-16.02,2,1
17162.281,-0.027,0.563,0.969,-9.43,40.65,-21.55,2,1
17162.296,-0.006,0.688,1.091,-11.57,29.36,-10.77,2,1
17162.296,-0.004,0.6,1.031,-4.46,13.89,1.16,2,1
17162.312,0.079,0.508,0.916,-7.69,3.08,8.42,2,1
17162.328,0.121,0.445,0.893,-8.18,4.12,6.93,2,1
17162.328,0.089,0.428,0.891,-0.15,8.42,2.08,2,1
17162.343,0.073,0.466,0.893,6.93,9.77,1.68,2,1
17162.359,0.071,0.495,0.896,10.04,6.81,2.53,2,1
17162.359,0.073,0.478,0.885,11.63,1.86,2.96,2,1
17162.375,0.077,0.469,0.874,11.78,-2.56,2.78,2,1
17162.39,0.085,0.471,0.86,11.05,-5.31,2.72,2,1
17162.39,0.093,0.48,0.851,9.95,-6.62,2.56,2,1
17162.406,0.061,0.506,0.88,7.69,-7.32,3.17,2,1
17162.406,0.115,0.536,0.85,4.18,-10.56,6.47,2,1
17162.421,0.149,0.415,0.782,5.89,-5.83,5.31,2,1
17162.437,0.092,0.465,0.819,3.02,0.95,1.28,2,1
17162.437,0.124,0.476,0.836,3.33,3.81,1.16,2,1
17162.453,0.095,0.473,0.827,2.56,5.62,-1.43,2,1
17162.453,0.092,0.489,0.847,-0.61,5.83,-1.65,2,1
17162.468,0.094,0.491,0.857,-2.56,4.27,-1.01,2,1
17162.484,0.079,0.485,0.858,-4.06,2.44,-0.31,2,1
17162.484,0.088,0.48,0.863,-5.83,0.46,0.82,2,1
17162.5,0.087,0.481,0.875,-6.41,-1.25,0.79,2,1
17162.515,0.083,0.471,0.879,-5.68,-3.02,1.5,2,1
17162.531,0.085,0.47,0.879,-4.52,-4.73,2.08,2,1
17162.531,0.089,0.467,0.877,-3.33,-6.01,2.2,2,1
17162.546,0.095,0.467,0.872,-2.47,-6.87,1.59,2,1
17162.546,0.096,0.468,0.867,-1.46,-6.78,1.16,2,1
17162.562,0.098,0.47,0.861,-0.73,-6.16,0.79,2,1
17162.578,0.102,0.473,0.855,-0.4,-5.07,0.4,2,1
17162.593,0.091,0.482,0.859,-0.4,-2.04,-0.34,2,1
17162.609,0.09,0.487,0.865,-0.46,-1.43,-0.09,2,1
17162.609,0.089,0.487,0.867,-0.24,-1.53,0.43,2,1
17162.625,0.088,0.488,0.869,0.34,-1.71,0.82,2,1
17162.625,0.088,0.493,0.871,-0.21,-2.47,0.98,2,1
17162.64,0.084,0.497,0.868,-0.37,-2.84,1.53,2,1
17162.656,0.085,0.492,0.865,-0.4,-3.02,2.99,2,1
17162.656,0.102,0.477,0.857,-0.37,-1.92,3.91,2,1
17162.671,0.11,0.469,0.855,-0.31,-0.12,3.81,2,1
17162.687,0.118,0.456,0.854,-0.31,2.04,3.14,2,1
17162.687,0.124,0.454,0.854,-0.06,4.43,2.41,2,1
17162.703,0.126,0.454,0.852,0.49,6.78,1.5,2,1
17162.703,0.117,0.459,0.852,0.61,8.67,0.34,2,1
17162.718,0.108,0.462,0.858,0.21,9.52,-0.15,2,1
17162.734,0.104,0.459,0.861,-0.15,10.01,0.27,2,1
17162.734,0.111,0.458,0.866,-0.49,9.95,1.04,2,1
17162.765,0.107,0.468,0.871,0.18,9.25,0.92,2,1
17162.765,0.09,0.464,0.875,-0.27,8.24,1.04,2,1
17162.781,0.092,0.469,0.88,-1.43,6.44,1.68,2,1
17162.796,0.08,0.475,0.879,-1.95,5.04,1.25,2,1
17162.796,0.065,0.49,0.879,-3.78,4.12,0.27,2,1
17162.812,0.052,0.503,0.886,-7.05,3.81,-1.13,2,1
17162.828,0.028,0.522,0.902,-10.5,4.61,-1.83,2,1
17162.828,0.006,0.538,0.918,-13.58,5.19,-1.28,2,1
17162.843,-0.03,0.559,0.944,-15.66,5.89,0.73,2,1
17162.843,-0.078,0.599,0.983,-17.24,7.17,2.87,2,1
17162.859,-0.122,0.638,1.031,-19.44,8.09,4.85,2,1
17162.875,-0.169,0.668,1.076,-22.37,8.45,6.65,2,1
17162.89,-0.177,0.701,1.107,-25.57,7.39,8.45,2,1
17162.89,-0.171,0.694,1.122,-26.52,3.91,11.29,2,1
17162.906,-0.155,0.661,1.116,-23.13,-0.92,15.96,2,1
17162.906,-0.127,0.639,1.099,-14.83,-4.82,21.27,2,1
17162.937,-0.072,0.594,1.048,8.15,-6.41,32.81,2,1
17162.937,-0.065,0.59,1.017,19.35,-2.26,37.75,2,1
17162.953,-0.054,0.592,0.988,28.47,4.82,42.33,2,1
17162.968,-0.053,0.583,0.958,35.68,13.98,47.0,2,1
17162.968,-0.048,0.579,0.929,40.86,24.99,52.19,2,1
17162.984,-0.037,0.565,0.89,43.95,37.97,57.95,2,1
17162.984,-0.034,0.552,0.853,43.98,54.32,63.78,2,1
17163.0,-0.024,0.537,0.813,40.62,74.13,69.28,2,1
17163.015,-0.012,0.513,0.751,33.54,96.8,73.61,2,1
17163.031,-0.012,0.491,0.725,22.92,122.5,77.0,2,1
17163.031,-0.009,0.449,0.682,13.98,149.97,79.65,2,1
17163.046,-0.037,0.418,0.643,4.52,179.27,81.7,2,1
17163.062,-0.077,0.402,0.614,-5.31,209.6,81.85,2,1
17163.062,-0.115,0.382,0.598,-15.53,239.48,79.38,2,1
17163.078,-0.171,0.352,0.586,-23.83,268.68,74.4,2,1
17163.078,-0.242,0.323,0.57,-30.21,296.21,67.63,2,1
17163.093,-0.359,0.311,0.557,-38.18,343.15,50.57,2,1
17163.109,-0.42,0.299,0.537,-38.06,361.22,43.21,2,1
17163.125,-0.471,0.302,0.517,-36.07,375.68,36.01,2,1
17163.125,-0.517,0.333,0.507,-34.0,386.09,28.57,2,1
17163.14,-0.566,0.362,0.506,-31.95,392.65,21.97,2,1
17163.156,-0.618,0.38,0.512,-30.64,394.3,16.63,2,1
17163.171,-0.677,0.396,0.515,-31.53,390.18,14.47,2,1
17163.171,-0.726,0.415,0.523,-34.64,381.73,14.86,2,1
17163.187,-0.769,0.422,0.546,-40.01,370.46,17.67,2,1
17163.203,-0.818,0.414,0.582,-45.44,356.27,21.88,2,1
17163.203,-0.842,0.401,0.622,-47.7,339.06,24.48,2,1
17163.218,-0.864,0.391,0.666,-46.21,319.5,25.42,2,1
17163.218,-0.898,0.4,0.7,-43.58,295.63,25.88,2,1
17163.234,-0.912,0.403,0.716,-40.77,267.4,27.28,2,1
17163.25,-0.922,0.405,0.727,-37.42,236.7,30.73,2,1
17163.25,-0.927,0.396,0.739,-32.62,203.83,36.01,2,1
17163.265,-0.914,0.397,0.719,-26.15,170.57,39.49,2,1
17163.265,-0.911,0.412,0.661,-19.01,139.26,39.7,2,1
17163.281,-0.891,0.394,0.611,-13.21,112.55,39.64,2,1
17163.296,-0.886,0.38,0.571,-7.35,92.29,37.45,2,1
17163.312,-0.889,0.349,0.526,-0.85,74.89,34.85,2,1
17163.312,-0.883,0.329,0.489,7.78,63.81,30.4,2,1
17163.328,-0.898,0.344,0.433,17.98,57.31,22.77,2,1
17163.328,-0.907,0.353,0.383,25.09,53.9,12.3,2,1
17163.343,-0.9,0.365,0.35,28.26,54.66,1.1,2,1
17163.359,-0.9,0.389,0.326,29.85,58.72,-10.28,2,1
17163.359,-0.901,0.426,0.297,30.49,64.06,-22.22,2,1
17163.375,-0.892,0.448,0.277,27.59,72.18,-31.53,2,1
17163.39,-0.885,0.477,0.273,23.16,80.54,-37.66,2,1
17163.39,-0.885,0.493,0.263,21.64,87.83,-42.97,2,1
17163.406,-0.892,0.501,0.252,21.39,94.3,-46.51,2,1
17163.406,-0.889,0.539,0.264,20.84,99.31,-48.22,2,1
17163.421,-0.879,0.556,0.29,22.31,101.75,-48.28,2,1
17163.437,-0.877,0.558,0.308,25.12,100.92,-46.85,2,1
17163.437,-0.871,0.591,0.315,27.04,95.77,-45.2,2,1
17163.453,-0.855,0.611,0.324,27.65,88.05,-42.12,2,1
17163.468,-0.853,0.601,0.329,27.62,80.54,-36.26,2,1
17163.468,-0.853,0.58,0.334,27.86,72.54,-28.5,2,1
17163.484,-0.845,0.557,0.335,30.37,63.66,-20.91,2,1
17163.5,-0.834,0.543,0.322,33.81,53.8,-15.41,2,1
17163.5,-0.822,0.527,0.299,36.07,43.86,-12.12,2,1
17163.515,-0.814,0.517,0.281,36.07,35.1,-10.44,2,1
17163.515,-0.808,0.5,0.261,34.24,28.11,-9.92,2,1
17163.531,-0.807,0.485,0.237,31.98,21.67,-10.8,2,1
17163.546,-0.809,0.47,0.214,29.02,16.17,-12.54,2,1
17163.546,-0.817,0.445,0.203,25.09,12.05,-14.5,2,1
17163.562,-0.819,0.42,0.205,21.3,8.82,-16.42,2,1
17163.578,-0.814,0.405,0.206,17.91,5.52,-18.95,2,1
17163.578,-0.812,0.399,0.21,15.23,2.41,-22.4,2,1
17163.593,-0.816,0.391,0.203,14.19,-2.96,-30.61,2,1
17163.609,-0.813,0.393,0.204,16.17,-6.44,-37.84,2,1
17163.625,-0.818,0.359,0.188,13.18,-8.7,-41.63,2,1
17163.64,-0.84,0.36,0.195,10.5,-10.04,-42.36,2,1
17163.64,-0.853,0.35,0.215,9.52,-10.9,-40.5,2,1
17163.656,-0.881,0.302,0.256,9.74,-12.48,-36.5,2,1
17163.656,-0.904,0.267,0.266,12.39,-14.8,-30.92,2,1
17163.671,-0.929,0.235,0.282,16.27,-16.79,-24.26,2,1
17163.687,-0.952,0.199,0.288,21.21,-18.98,-17.46,2,1
17163.687,-0.96,0.176,0.29,25.18,-21.97,-11.6,2,1
17163.703,-0.95,0.178,0.301,29.05,-25.15,-8.21,2,1
17163.718,-0.938,0.167,0.287,32.96,-28.84,-7.23,2,1
17163.718,-0.922,0.158,0.279,33.2,-34.09,-7.87,2,1
17163.734,-0.848,0.163,0.278,33.45,-40.35,-8.67,2,1
17163.734,-0.82,0.187,0.245,34.36,-47.03,-11.14,2,1
17163.75,-0.803,0.194,0.222,32.62,-52.19,-13.09,2,1
17163.765,-0.776,0.192,0.21,29.36,-56.31,-16.82,2,1
17163.781,-0.776,0.198,0.204,30.46,-55.42,-19.17,2,1
17163.796,-0.779,0.214,0.207,33.02,-53.16,-21.97,2,1
17163.796,-0.77,0.235,0.213,35.86,-50.48,-24.57,2,1
17163.812,-0.772,0.244,0.21,38.48,-47.7,-25.82,2,1
17163.828,-0.785,0.256,0.208,40.56,-45.17,-27.28,2,1
17163.828,-0.788,0.291,0.214,40.44,-43.52,-28.02,2,1
17163.843,-0.771,0.324,0.222,37.54,-41.05,-27.19,2,1
17163.843,-0.757,0.338,0.218,33.45,-37.87,-24.63,2,1
17163.859,-0.743,0.328,0.215,31.07,-34.21,-20.08,2,1
17163.875,-0.725,0.327,0.209,32.53,-29.57,-13.43,2,1
17163.89,-0.729,0.347,0.19,35.28,-24.93,-7.08,2,1
17163.89,-0.75,0.363,0.173,36.84,-19.5,-2.44,2,1
17163.906,-0.776,0.361,0.164,37.08,-13.21,0.64,2,1
17163.906,-0.813,0.351,0.159,36.1,-6.81,1.71,2,1
17163.921,-0.846,0.353,0.17,34.09,-0.82,0.31,2,1
17163.953,-0.91,0.37,0.199,27.44,6.96,-6.35,2,1
17163.953,-0.938,0.378,0.218,22.77,8.79,-8.18,2,1
17163.968,-0.964,0.379,0.239,18.43,9.46,-7.84,2,1
17163.968,-0.975,0.377,0.274,15.35,8.39,-5.74,2,1
17163.984,-0.977,0.372,0.292,14.56,5.83,-2.17,2,1
17164.0,-0.972,0.376,0.288,14.37,2.01,1.71,2,1
17164.0,-0.961,0.375,0.284,14.34,-2.5,5.04,2,1
17164.015,-0.948,0.373,0.278,15.2,-6.35,7.84,2,1
17164.015,-0.939,0.374,0.256,15.56,-10.04,9.13,2,1
17164.031,-0.922,0.371,0.234,14.62,-13.18,9.0,2,1
17164.046,-0.91,0.361,0.214,13.61,-15.17,7.39,2,1
17164.046,-0.904,0.355,0.19,12.02,-15.84,4.97,2,1
17164.062,-0.901,0.353,0.176,9.52,-15.11,2.56,2,1
17164.078,-0.897,0.349,0.176,6.47,-12.85,0.73,2,1
17164.078,-0.894,0.344,0.184,3.78,-9.92,-0.03,2,1
17164.093,-0.893,0.34,0.195,2.35,-6.93,1.01,2,1
17164.109,-0.889,0.349,0.217,0.27,-3.2,6.59,2,1
17164.125,-0.89,0.342,0.225,0.0,-2.14,10.16,2,1
17164.125,-0.888,0.336,0.233,0.15,-2.08,12.97,2,1
17164.14,-0.88,0.332,0.234,0.4,-2.11,14.44,2,1
17164.156,-0.875,0.328,0.231,0.43,-2.14,15.08,2,1
17164.156,-0.868,0.328,0.227,-0.82,-2.59,14.95,2,1
17164.171,-0.862,0.313,0.228,-1.43,-2.47,14.92,2,1
17164.187,-0.855,0.289,0.219,0.0,-2.2,14.77,2,1
17164.187,-0.855,0.277,0.212,2.08,-1.07,13.49,2,1
17164.203,-0.868,0.277,0.208,3.63,0.31,10.93,2,1
17164.218,-0.879,0.276,0.211,3.39,1.19,8.03,2,1
17164.218,-0.887,0.276,0.217,2.41,2.5,5.52,2,1
17164.234,-0.889,0.271,0.229,2.26,3.33,3.57,2,1
17164.234,-0.889,0.27,0.229,3.45,3.6,1.89,2,1
17164.25,-0.888,0.294,0.23,4.91,2.96,1.31,2,1
17164.265,-0.888,0.307,0.223,6.87,1.74,1.19,2,1
17164.281,-0.881,0.343,0.186,8.58,-3.63,-2.35,2,1
17164.296,-0.881,0.362,0.169,6.81,-6.01,-6.1,2,1
17164.296,-0.878,0.371,0.161,3.91,-7.6,-10.38,2,1
17164.312,-0.878,0.372,0.163,1.07,-8.0,-14.01,2,1
17164.312,-0.883,0.373,0.167,-0.82,-7.14,-16.14,2,1
17164.328,-0.891,0.372,0.169,-1.89,-6.26,-16.85,2,1
17164.343,-0.908,0.372,0.171,-2.14,-5.34,-16.24,2,1
17164.359,-0.921,0.378,0.173,-2.17,-4.73,-14.22,2,1
17164.359,-0.932,0.378,0.181,-1.98,-4.15,-10.71,2,1
17164.375,-0.936,0.37,0.186,-1.19,-3.6,-6.26,2,1
17164.375,-0.931,0.374,0.184,-0.37,-3.78,-1.92,2,1
17164.39,-0.916,0.368,0.187,0.43,-3.66,1.53,2,1
17164.406,-0.9,0.363,0.189,1.07,-3.36,3.42,2,1
17164.406,-0.887,0.367,0.187,1.4,-3.6,3.88,2,1
17164.421,-0.882,0.364,0.185,0.79,-4.39,3.33,2,1
17164.437,-0.887,0.354,0.185,-0.46,-4.82,2.35,2,1
17164.453,-0.895,0.33,0.19,-1.19,-4.7,1.22,2,1
17164.468,-0.896,0.314,0.202,-0.27,-4.0,1.8,2,1
17164.468,-0.898,0.3,0.206,1.28,-2.96,2.62,2,1
17164.484,-0.9,0.3,0.209,2.81,-2.14,3.02,2,1
17164.484,-0.901,0.303,0.207,3.88,-1.65,2.66,2,1
17164.5,-0.897,0.31,0.207,3.94,-1.53,1.5,2,1
17164.515,-0.9,0.322,0.204,3.23,-1.71,-0.43,2,1
17164.515,-0.907,0.335,0.204,2.14,-2.26,-1.95,2,1
17164.531,-0.909,0.342,0.207,1.28,-2.96,-2.29,2,1
17164.546,-0.908,0.336,0.21,1.89,-3.2,-1.71,2,1
17164.546,-0.905,0.33,0.209,3.6,-3.02,-0.79,2,1
17164.562,-0.906,0.327,0.207,5.95,-2.56,0.21,2,1
17164.578,-0.905,0.332,0.206,7.57,-1.59,1.53,2,1
17164.578,-0.903,0.335,0.205,8.33,-0.58,2.78,2,1
17164.593,-0.904,0.329,0.203,9.03,1.22,4.91,2,1
17164.593,-0.912,0.328,0.202,9.92,1.4,4.82,2,1
17164.609,-0.918,0.325,0.2,10.38,1.19,3.75,2,1
17164.625,-0.923,0.324,0.202,10.74,0.49,1.95,2,1
17164.625,-0.911,0.34,0.195,10.86,-1.07,-0.46,2,1
17164.64,-0.9,0.352,0.188,10.13,-2.66,-2.87,2,1
17164.656,-0.883,0.362,0.181,8.91,-4.43,-5.07,2,1
17164.656,-0.872,0.374,0.163,8.12,-6.13,-6.99,2,1
17164.671,-0.866,0.378,0.148,7.39,-6.47,-8.18,2,1
17164.687,-0.864,0.381,0.139,6.87,-4.97,-8.7,2,1
17164.687,-0.865,0.384,0.136,6.5,-2.41,-8.7,2,1
17164.703,-0.866,0.385,0.139,6.56,0.24,-8.3,2,1
17164.718,-0.875,0.381,0.141,7.14,2.69,-7.51,2,1
17164.718,-0.885,0.379,0.155,6.81,5.19,-5.8,2,1
17164.734,-0.897,0.37,0.175,6.5,7.05,-3.23,2,1
17164.734,-0.908,0.362,0.186,6.87,7.75,-0.43,2,1
17164.75,-0.91,0.36,0.195,7.17,7.42,1.74,2,1
17164.765,-0.914,0.356,0.204,6.93,6.2,3.48,2,1
17164.765,-0.91,0.347,0.212,6.56,4.49,4.91,2,1
17164.781,-0.906,0.341,0.21,6.44,2.72,5.92,2,1
17164.796,-0.905,0.34,0.205,6.01,0.64,5.92,2,1
17164.796,-0.905,0.341,0.207,4.58,-1.25,5.8,2,1
17164.812,-0.897,0.337,0.209,3.14,-3.11,5.13,2,1
17164.828,-0.889,0.33,0.215,2.32,-4.36,4.39,2,1
17164.828,-0.886,0.323,0.214,2.2,-4.91,3.75,2,1
17164.843,-0.881,0.32,0.213,2.59,-5.19,3.97,2,1
17164.843,-0.875,0.316,0.213,3.42,-4.97,4.52,2,1
17164.859,-0.871,0.321,0.205,4.43,-4.43,4.52,2,1
17164.875,-0.868,0.331,0.198,4.52,-4.27,3.05,2,1
17164.89,-0.871,0.333,0.192,3.36,-4.03,0.58,2,1
17164.89,-0.876,0.339,0.186,1.5,-3.57,-2.32,2,1
17164.906,-0.883,0.346,0.186,-0.43,-2.5,-4.7,2,1
17164.906,-0.887,0.348,0.192,-1.83,-1.37,-6.13,2,1
17164.921,-0.891,0.348,0.197,-1.98,-0.76,-6.44,2,1
17164.937,-0.89,0.35,0.199,-1.16,-0.43,-6.07,2,1
17164.937,-0.893,0.356,0.195,-0.79,-0.21,-5.25,2,1
17164.953,-0.897,0.36,0.19,-1.53,0.09,-3.88,2,1
17164.953,-0.9,0.364,0.188,-2.75,0.43,-2.23,2,1
17164.968,-0.898,0.363,0.189,-4.18,0.85,-0.37,2,1
17164.984,-0.901,0.352,0.19,-4.49,1.86,1.34,2,1
17164.984,-0.904,0.346,0.187,-3.69,3.42,3.05,2,1
17165.0,-0.901,0.355,0.184,-2.72,4.61,4.67,2,1
17165.015,-0.899,0.361,0.185,-2.59,5.52,5.77,2,1
17165.015,-0.896,0.354,0.19,-3.08,6.13,6.78,2,1
17165.031,-0.894,0.346,0.197,-3.78,6.62,7.54,2,1
17165.046,-0.895,0.343,0.204,-4.39,6.93,7.69,2,1
17165.046,-0.895,0.337,0.211,-4.97,6.71,6.96,2,1
17165.062,-0.89,0.337,0.215,-5.62,6.2,5.52,2,1
17165.078,-0.891,0.337,0.213,-6.35,5.46,3.69,2,1
17165.078,-0.896,0.342,0.206,-7.72,4.12,1.62,2,1
17165.093,-0.897,0.351,0.203,-9.92,2.96,-0.24,2,1
17165.109,-0.9,0.355,0.197,-12.02,2.17,-1.4,2,1
17165.109,-0.897,0.35,0.197,-13.21,2.29,-0.73,2,1
17165.125,-0.892,0.347,0.2,-12.79,3.33,1.04,2,1
17165.125,-0.888,0.354,0.192,-11.2,4.43,2.87,2,1
17165.14,-0.887,0.365,0.184,-10.35,5.65,4.43,2,1
17165.156,-0.89,0.374,0.176,-10.5,6.68,5.19,2,1
17165.171,-0.892,0.375,0.169,-11.72,7.17,5.1,2,1
17165.171,-0.89,0.374,0.171,-13.43,7.05,4.46,2,1
17165.187,-0.89,0.368,0.17,-14.4,7.08,3.97,2,1
17165.187,-0.894,0.365,0.17,-15.05,7.29,3.72,2,1
17165.203,-0.897,0.362,0.17,-15.5,7.54,4.12,2,1
17165.218,-0.9,0.356,0.17,-15.63,8.45,5.28,2,1
17165.218,-0.905,0.347,0.171,-14.74,9.95,7.2,2,1
17165.234,-0.905,0.336,0.179,-13.46,11.2,9.25,2,1
17165.234,-0.902,0.327,0.188,-11.84,11.96,11.05,2,1
17165.25,-0.898,0.324,0.196,-10.25,12.21,12.67,2,1
17165.265,-0.891,0.317,0.201,-8.97,11.96,13.79,2,1
17165.265,-0.886,0.301,0.205,-8.03,11.14,15.35,2,1
17165.281,-0.878,0.279,0.213,-6.96,10.53,17.24,2,1
17165.296,-0.859,0.26,0.216,-4.85,11.14,19.29,2,1
17165.296,-0.843,0.243,0.219,-1.74,12.94,21.49,2,1
17165.312,-0.825,0.244,0.225,1.28,15.26,23.01,2,1
17165.328,-0.814,0.258,0.23,2.96,17.27,22.89,2,1
17165.328,-0.815,0.275,0.233,3.27,18.89,21.49,2,1
17165.343,-0.824,0.301,0.235,2.66,19.44,18.68,2,1
17165.359,-0.839,0.324,0.239,1.1,19.1,15.05,2,1
17165.359,-0.851,0.344,0.242,-0.73,18.16,10.71,2,1
17165.375,-0.865,0.364,0.247,-2.47,16.91,6.26,2,1
17165.375,-0.879,0.385,0.248,-4.52,15.29,1.89,2,1
17165.39,-0.892,0.405,0.245,-7.14,13.4,-1.56,2,1
17165.406,-0.905,0.419,0.246,-10.32,11.69,-3.81,2,1
17165.421,-0.917,0.414,0.247,-12.7,10.74,-4.52,2,1
17165.421,-0.925,0.407,0.254,-13.52,11.11,-3.48,2,1
17165.437,-0.923,0.411,0.252,-13.18,12.02,-1.07,2,1
17165.437,-0.915,0.417,0.232,-11.78,13.31,1.59,2,1
17165.453,-0.904,0.429,0.222,-11.14,14.44,3.36,2,1
17165.468,-0.887,0.452,0.215,-12.09,14.68,3.36,2,1
17165.468,-0.875,0.464,0.203,-14.62,14.74,2.08,2,1
17165.484,-0.866,0.466,0.2,-18.49,14.83,0.24,2,1
17165.484,-0.869,0.47,0.201,-22.22,14.86,-1.8,2,1
17165.5,-0.878,0.473,0.203,-25.57,15.08,-3.57,2,1
17165.515,-0.89,0.469,0.21,-28.44,15.53,-4.52,2,1
17165.515,-0.904,0.456,0.21,-30.21,15.93,-4.76,2,1
17165.531,-0.92,0.44,0.212,-31.04,16.08,-4.0,2,1
17165.546,-0.934,0.427,0.212,-31.28,15.81,-2.9,2,1
17165.562,-0.945,0.417,0.213,-31.68,15.29,-1.53,2,1
17165.562,-0.953,0.403,0.213,-32.41,14.68,0.64,2,1
17165.578,-0.951,0.39,0.214,-32.81,14.34,2.87,2,1
17165.578,-0.939,0.395,0.21,-33.57,12.51,4.39,2,1
17165.593,-0.916,0.4,0.206,-34.09,11.47,3.97,2,1
17165.609,-0.894,0.404,0.199,-34.7,11.41,3.27,2,1
17165.609,-0.867,0.394,0.193,-35.19,11.84,2.38,2,1
17165.625,-0.865,0.384,0.192,-34.55,12.48,1.37,2,1
17165.625,-0.868,0.386,0.188,-34.21,12.82,0.37,2,1
17165.64,-0.874,0.39,0.187,-34.73,12.7,-0.43,2,1
17165.656,-0.879,0.39,0.183,-35.68,12.21,-0.34,2,1
17165.656,-0.887,0.387,0.183,-36.23,11.57,0.46,2,1
17165.671,-0.893,0.376,0.191,-35.89,11.11,2.14,2,1
17165.687,-0.896,0.37,0.197,-34.55,10.47,3.85,2,1
17165.687,-0.893,0.374,0.196,-32.65,9.74,5.31,2,1
17165.703,-0.885,0.377,0.202,-31.62,9.22,6.26,2,1
17165.703,-0.878,0.367,0.205,-30.58,9.13,7.14,2,1
17165.718,-0.869,0.364,0.207,-28.75,8.91,8.09,2,1
17165.734,-0.865,0.369,0.202,-27.16,7.72,7.93,2,1
17165.734,-0.872,0.37,0.196,-26.06,5.8,6.29,2,1
17165.75,-0.869,0.375,0.191,-26.43,3.45,3.94,2,1
17165.765,-0.863,0.381,0.187,-28.02,0.95,2.11,2,1
17165.765,-0.849,0.377,0.189,-28.87,-0.98,1.5,2,1
17165.781,-0.837,0.375,0.177,-27.8,-1.31,1.37,2,1
17165.796,-0.844,0.371,0.174,-25.57,-0.4,0.82,2,1
17165.796,-0.856,0.365,0.183,-23.16,1.19,-0.12,2,1
17165.812,-0.858,0.367,0.184,-20.94,2.75,-1.04,2,1
17165.828,-0.86,0.377,0.187,-19.87,3.72,-1.71,2,1
17165.828,-0.864,0.389,0.196,-20.23,4.43,-1.62,2,1
17165.843,-0.867,0.392,0.198,-19.71,4.39,-0.61,2,1
17165.859,-0.867,0.393,0.196,-17.43,3.72,1.1,2,1
17165.859,-0.867,0.401,0.191,-14.8,3.2,2.81,2,1
17165.875,-0.873,0.402,0.177,-12.39,2.44,4.33,2,1
17165.875,-0.873,0.386,0.165,-10.01,1.43,6.35,2,1
17165.89,-0.869,0.375,0.155,-7.14,0.49,7.48,2,1
17165.906,-0.868,0.367,0.143,-4.49,0.49,6.71,2,1
17165.906,-0.871,0.373,0.132,-3.72,1.13,4.09,2,1
17165.921,-0.879,0.385,0.139,-4.49,2.78,0.4,2,1
17165.937,-0.895,0.415,0.171,-5.62,3.91,-2.75,2,1
17165.953,-0.907,0.47,0.215,-7.84,1.5,-3.81,2,1
17165.953,-0.923,0.52,0.272,-10.65,-6.32,-1.22,2,1
17165.968,-0.95,0.556,0.314,-11.84,-19.99,4.85,2,1
17165.968,-0.967,0.568,0.299,-11.87,-38.21,13.79,2,1
17165.984,-0.972,0.566,0.264,-11.72,-56.06,23.44,2,1
17166.0,-0.975,0.561,0.216,-11.81,-69.43,32.23,2,1
17166.0,-0.96,0.537,0.167,-13.15,-75.47,39.64,2,1
17166.015,-0.933,0.502,0.11,-13.73,-74.56,44.53,2,1
17166.015,-0.918,0.458,0.069,-13.46,-66.56,46.48,2,1
17166.031,-0.897,0.401,0.076,-11.51,-53.32,43.09,2,1
17166.046,-0.873,0.349,0.105,-6.87,-38.48,34.24,2,1
17166.046,-0.872,0.344,0.111,-2.69,-24.57,20.69,2,1
17166.062,-0.886,0.395,0.12,-5.22,-14.16,6.78,2,1
17166.078,-0.876,0.398,0.167,-11.29,-8.64,-1.83,2,1
17166.093,-0.867,0.395,0.219,-13.67,-4.52,-7.57,2,1
17166.093,-0.867,0.441,0.257,-13.46,-2.5,-13.31,2,1
17166.109,-0.888,0.432,0.272,-14.22,-5.98,-13.46,2,1
17166.109,-0.881,0.41,0.274,-12.91,-11.05,-8.7,2,1
17166.125,-0.861,0.411,0.265,-7.9,-13.55,-4.3,2,1
17166.14,-0.847,0.371,0.242,-3.14,-14.65,0.15,2,1
17166.14,-0.825,0.341,0.224,0.82,-12.85,2.87,2,1
17166.156,-0.821,0.311,0.204,5.46,-8.03,2.47,2,1
17166.156,-0.823,0.289,0.191,8.91,-2.96,0.95,2,1
17166.171,-0.815,0.295,0.181,11.47,3.02,-2.32,2,1
17166.187,-0.819,0.313,0.177,13.09,9.55,-8.24,2,1
17166.187,-0.82,0.311,0.172,12.02,13.15,-13.49,2,1
17166.203,-0.816,0.327,0.18,10.77,15.59,-18.07,2,1
17166.203,-0.819,0.345,0.184,11.44,17.49,-23.26,2,1
17166.218,-0.828,0.339,0.191,12.54,17.82,-27.44,2,1
17166.234,-0.835,0.338,0.194,14.16,17.24,-29.66,2,1
17166.234,-0.837,0.35,0.187,16.05,16.02,-30.95,2,1
17166.25,-0.845,0.356,0.185,16.79,14.16,-31.83,2,1
17166.265,-0.862,0.344,0.177,17.79,11.69,-32.81,2,1
17166.281,-0.881,0.334,0.167,19.56,9.46,-32.72,2,1
17166.281,-0.883,0.336,0.169,21.06,9.25,-32.26,2,1
17166.296,-0.884,0.32,0.176,21.85,9.31,-30.34,2,1
17166.296,-0.879,0.307,0.18,23.87,9.49,-27.86,2,1
17166.312,-0.883,0.302,0.185,26.18,10.07,-25.61,2,1
17166.328,-0.881,0.295,0.198,27.99,9.86,-22.49,2,1
17166.328,-0.891,0.317,0.196,30.58,8.61,-21.09,2,1
17166.343,-0.902,0.326,0.187,31.56,4.73,-19.14,2,1
17166.359,-0.898,0.347,0.179,31.31,-0.79,-16.27,2,1
17166.359,-0.887,0.375,0.16,30.88,-5.28,-14.22,2,1
17166.375,-0.887,0.373,0.141,28.66,-8.97,-12.85,2,1
17166.375,-0.886,0.348,0.122,26.76,-12.12,-11.44,2,1
17166.39,-0.872,0.328,0.101,28.41,-13.43,-9.67,2,1
17166.406,-0.866,0.336,0.078,31.34,-11.87,-10.5,2,1
17166.421,-0.886,0.327,0.072,31.71,-7.9,-12.15,2,1
17166.421,-0.903,0.301,0.097,31.13,-3.66,-12.73,2,1
17166.437,-0.911,0.286,0.129,32.96,0.0,-12.63,2,1
17166.437,-0.917,0.282,0.157,36.29,2.26,-12.21,2,1
17166.453,-0.925,0.308,0.168,39.09,1.86,-12.12,2,1
17166.468,-0.923,0.343,0.156,38.85,-2.11,-11.41,2,1
17166.468,-0.902,0.378,0.144,35.28,-7.93,-10.19,2,1
17166.484,-0.859,0.402,0.124,30.79,-14.71,-9.52,2,1
17166.484,-0.884,0.4,0.098,26.7,-18.95,-10.53,2,1
17166.5,-0.867,0.359,0.104,22.55,-21.7,-5.31,2,1
17166.515,-0.877,0.333,0.099,25.64,-22.52,-2.14,2,1
17166.515,-0.887,0.299,0.096,31.65,-18.22,1.19,2,1
17166.531,-0.886,0.3,0.093,35.37,-12.45,3.97,2,1
17166.546,-0.891,0.312,0.094,36.65,-7.72,5.01,2,1
17166.562,-0.897,0.325,0.115,35.31,-6.13,3.2,2,1
17166.562,-0.901,0.359,0.132,26.64,-16.79,-5.58,2,1
17166.578,-0.919,0.369,0.14,22.1,-24.54,-6.23,2,1
17166.578,-0.912,0.352,0.159,20.81,-28.96,-5.13,2,1
17166.593,-0.892,0.346,0.161,21.18,-30.43,-4.24,2,1
17166.609,-0.855,0.353,0.125,21.45,-29.69,-4.0,2,1
17166.609,-0.846,0.378,0.094,20.75,-26.61,-5.49,2,1
17166.625,-0.849,0.387,0.066,18.34,-21.61,-8.48,2,1
17166.625,-0.853,0.375,0.065,13.73,-14.28,-10.83,2,1
17166.64,-0.857,0.345,0.094,10.41,-6.47,-10.74,2,1
17166.656,-0.854,0.312,0.125,13.37,1.71,-8.42,2,1
17166.656,-0.858,0.307,0.143,21.21,9.7,-5.58,2,1
17166.671,-0.873,0.326,0.141,27.95,14.98,-3.88,2,1
17166.687,-0.908,0.353,0.127,29.54,16.42,-5.74,2,1
17166.687,-0.941,0.365,0.124,25.88,15.17,-11.69,2,1
17166.703,-0.968,0.36,0.131,19.68,11.57,-20.42,2,1
17166.718,-0.99,0.347,0.146,15.05,7.9,-29.79,2,1
17166.718,-1.013,0.341,0.161,13.52,5.22,-37.78,2,1
17166.734,-1.028,0.353,0.176,13.61,3.17,-42.48,2,1
17166.75,-1.04,0.364,0.184,14.04,0.76,-43.15,2,1
17166.75,-1.044,0.378,0.172,14.4,-3.63,-40.77,2,1
17166.765,-1.042,0.384,0.156,14.1,-8.88,-36.74,2,1
17166.765,-1.036,0.356,0.151,13.76,-11.81,-31.74,2,1
17166.781,-1.039,0.323,0.155,15.72,-11.81,-25.94,2,1
17166.796,-1.039,0.296,0.166,19.96,-9.86,-20.72,2,1
17166.796,-1.041,0.291,0.165,24.08,-9.8,-15.93,2,1
17166.812,-1.038,0.328,0.144,25.64,-12.88,-13.31,2,1
17166.828,-1.02,0.359,0.124,21.15,-17.3,-13.76,2,1
17166.828,-1.003,0.353,0.121,13.64,-20.39,-16.05,2,1
17166.843,-1.0,0.317,0.137,8.85,-21.33,-17.24,2,1
17166.843,-1.0,0.275,0.159,9.98,-20.29,-15.41,2,1
17166.859,-0.994,0.259,0.174,16.69,-17.64,-9.64,2,1
17166.875,-0.992,0.289,0.173,23.65,-14.89,-3.6,2,1
17166.875,-0.992,0.296,0.177,26.92,-14.53,1.59,2,1
17166.89,-0.977,0.299,0.182,26.8,-16.54,5.92,2,1
17166.906,-0.959,0.285,0.195,26.06,-19.56,8.88,2,1
17166.906,-0.94,0.262,0.206,26.8,-21.94,11.26,2,1
17166.921,-0.928,0.256,0.201,28.75,-25.64,12.48,2,1
17166.937,-0.922,0.263,0.182,29.08,-30.98,12.12,2,1
17166.937,-0.907,0.27,0.162,25.76,-37.29,10.74,2,1
17166.953,-0.884,0.276,0.159,20.48,-42.73,9.64,2,1
17166.968,-0.869,0.244,0.174,17.27,-44.43,9.13,2,1
17166.968,-0.886,0.198,0.188,20.33,-42.54,9.03,2,1
17166.984,-0.898,0.196,0.18,27.59,-38.54,9.19,2,1
17166.984,-0.907,0.21,0.166,33.63,-34.27,7.9,2,1
17167.0,-0.916,0.234,0.147,35.92,-30.88,4.27,2,1
17167.015,-0.923,0.266,0.142,33.36,-29.63,-2.44,2,1
17167.015,-0.924,0.283,0.152,28.2,-29.45,-10.83,2,1
17167.031,-0.926,0.279,0.168,24.2,-29.63,-18.16,2,1
17167.046,-0.921,0.273,0.176,23.87,-30.49,-21.7,2,1
17167.062,-0.913,0.308,0.161,25.7,-31.53,-22.52,2,1
17167.062,-0.91,0.33,0.135,25.76,-32.23,-21.64,2,1
17167.078,-0.916,0.34,0.118,23.83,-32.62,-20.11,2,1
17167.078,-0.905,0.341,0.112,22.4,-31.16,-18.77,2,1
17167.093,-0.885,0.337,0.113,21.3,-28.29,-16.11,2,1
17167.109,-0.854,0.329,0.113,21.79,-23.77,-11.6,2,1
17167.109,-0.835,0.326,0.114,24.48,-17.3,-6.53,2,1
17167.125,-0.825,0.327,0.107,27.25,-10.68,-4.76,2,1
17167.125,-0.834,0.347,0.093,26.7,-4.88,-6.68,2,1
17167.14,-0.847,0.323,0.122,22.61,0.73,-7.69,2,1
17167.156,-0.859,0.278,0.18,19.93,5.83,-7.9,2,1
17167.156,-0.876,0.268,0.218,21.06,7.84,-9.28,2,1
17167.171,-0.896,0.286,0.228,21.76,7.35,-11.29,2,1
17167.187,-0.884,0.288,0.236,18.65,4.12,-13.64,2,1
17167.187,-0.894,0.291,0.234,13.49,-0.18,-18.49,2,1
17167.203,-0.911,0.275,0.228,8.76,-4.12,-24.41,2,1
17167.203,-0.931,0.262,0.23,5.25,-6.84,-28.75,2,1
17167.218,-0.949,0.247,0.232,2.96,-8.33,-30.88,2,1
17167.234,-0.948,0.234,0.238,1.92,-8.45,-31.74,2,1
17167.234,-0.94,0.23,0.223,2.66,-8.3,-32.75,2,1
17167.25,-0.899,0.228,0.219,2.26,-7.66,-33.02,2,1
17167.265,-0.856,0.209,0.226,3.36,-6.71,-33.45,2,1
17167.265,-0.824,0.222,0.212,6.56,-5.71,-35.46,2,1
17167.281,-0.803,0.257,0.187,5.98,-5.92,-41.02,2,1
17167.296,-0.814,0.268,0.164,-0.7,-7.78,-48.22,2,1
17167.312,-0.843,0.271,0.15,-9.34,-8.67,-56.64,2,1
17167.312,-0.852,0.248,0.163,-16.69,-7.72,-63.17,2,1
17167.328,-0.851,0.219,0.177,-18.19,-5.07,-65.19,2,1
17167.328,-0.869,0.204,0.177,-13.89,0.09,-64.27,2,1
17167.343,-0.879,0.2,0.177,-10.65,5.01,-60.37,2,1
17167.359,-0.899,0.203,0.189,-10.38,9.31,-56.22,2,1
17167.359,-0.938,0.184,0.209,-10.22,12.7,-53.53,2,1
17167.375,-0.949,0.162,0.231,-10.19,14.4,-50.94,2,1
17167.375,-0.958,0.182,0.256,-9.83,16.08,-49.5,2,1
17167.39,-0.994,0.158,0.283,-8.12,15.99,-42.57,2,1
17167.406,-1.034,0.118,0.304,-5.95,13.86,-33.17,2,1
17167.406,-1.042,0.11,0.31,-2.04,10.9,-26.0,2,1
17167.421,-1.043,0.099,0.301,1.74,7.57,-19.78,2,1
17167.437,-1.021,0.092,0.296,3.39,4.64,-14.5,2,1
17167.437,-0.999,0.097,0.279,4.24,2.32,-11.47,2,1
17167.453,-0.971,0.098,0.266,3.78,0.43,-8.97,2,1
17167.468,-0.967,0.103,0.26,3.97,-0.31,-8.0,2,1
17167.468,-0.957,0.108,0.252,4.79,-0.52,-8.88,2,1
17167.484,-0.95,0.105,0.24,4.21,-0.37,-11.14,2,1
17167.484,-0.968,0.099,0.231,3.2,-0.18,-12.82,2,1
17167.5,-0.973,0.107,0.232,1.62,-0.34,-14.19,2,1
17167.515,-0.974,0.111,0.229,0.52,-0.85,-16.75,2,1
17167.515,-0.968,0.117,0.226,-0.61,-1.37,-17.64,2,1
17167.531,-0.965,0.117,0.225,-0.98,-1.28,-15.84,2,1
17167.546,-0.973,0.112,0.227,0.67,1.71,-8.39,2,1
17167.546,-0.995,0.123,0.231,2.08,3.81,-2.93,2,1
17167.562,-1.009,0.115,0.245,3.57,4.88,1.4,2,1
17167.578,-1.013,0.131,0.239,2.41,4.88,3.97,2,1
17167.578,-1.039,0.105,0.265,1.5,3.81,6.32,2,1
17167.593,-1.032,0.091,0.267,2.59,1.98,8.06,2,1
17167.593,-1.024,0.093,0.259,3.97,-0.43,8.39,2,1
17167.609,-1.0,0.092,0.252,3.48,-2.93,7.66,2,1
17167.625,-0.961,0.092,0.239,2.35,-5.1,6.81,2,1
17167.625,-0.942,0.099,0.221,2.47,-6.5,5.28,2,1
17167.64,-0.954,0.1,0.212,2.04,-7.14,3.39,2,1
17167.656,-0.954,0.097,0.214,0.7,-7.26,1.74,2,1
17167.671,-0.94,0.102,0.21,0.31,-6.84,-0.46,2,1
17167.671,-0.929,0.102,0.206,1.19,-5.34,-2.11,2,1
17167.671,-0.922,0.113,0.208,1.59,-3.54,-2.04,2,1
17167.687,-0.914,0.137,0.207,1.46,-1.89,-1.46,2,1
17167.703,-0.907,0.162,0.205,1.56,-0.27,-0.79,2,1
17167.718,-0.905,0.163,0.209,0.0,0.61,0.92,2,1
17167.718,-0.917,0.155,0.226,-1.37,1.31,2.35,2,1
17167.734,-0.926,0.141,0.238,-0.15,1.31,3.23,2,1
17167.734,-0.932,0.133,0.235,0.24,0.73,3.3,2,1
17167.75,-0.938,0.123,0.237,-0.92,0.12,2.66,2,1
17167.765,-0.937,0.098,0.254,-1.62,-0.34,1.95,2,1
17167.765,-0.943,0.095,0.259,-0.58,-1.16,1.31,2,1
17167.781,-0.944,0.118,0.244,0.43,-2.04,1.19,2,1
17167.796,-0.93,0.125,0.234,-0.61,-2.56,1.98,2,1
17167.796,-0.913,0.114,0.235,-1.22,-2.53,2.84,2,1
17167.812,-0.912,0.114,0.234,0.31,-2.01,4.39,2,1
17167.828,-0.927,0.125,0.234,2.72,-0.82,6.04,2,1
17167.828,-0.937,0.128,0.237,3.75,0.31,7.9,2,1
17167.843,-0.947,0.122,0.251,4.15,0.95,9.77,2,1
17167.843,-0.942,0.123,0.256,5.4,0.98,11.84,2,1
17167.859,-0.934,0.12,0.251,5.83,0.67,13.34,2,1
17167.875,-0.922,0.104,0.246,4.46,-0.06,12.57,2,1
17167.89,-0.918,0.087,0.239,3.02,-0.89,8.73,2,1
17167.89,-0.927,0.083,0.23,2.04,-1.01,3.91,2,1
17167.906,-0.946,0.086,0.229,0.95,-1.19,-0.21,2,1
17167.906,-0.958,0.083,0.236,-0.03,-1.71,-3.48,2,1
17167.921,-0.953,0.093,0.233,1.01,-2.11,-5.62,2,1
17167.937,-0.943,0.12,0.222,2.9,-2.53,-6.41,2,1
17167.937,-0.954,0.148,0.217,2.78,-2.78,-7.35,2,1
17167.953,-0.965,0.145,0.227,1.62,-2.69,-8.33,2,1
17167.968,-0.967,0.151,0.231,1.92,-2.59,-9.55,2,1
17167.968,-0.964,0.163,0.23,2.01,-2.75,-10.07,2,1
17167.984,-0.959,0.165,0.23,0.64,-3.2,-9.43,2,1
17167.984,-0.95,0.152,0.233,-0.06,-3.57,-7.66,2,1
17168.0,-0.954,0.151,0.231,1.16,-3.39,-5.71,2,1
17168.015,-0.96,0.16,0.218,1.92,-3.33,-4.39,2,1
17168.031,-0.968,0.166,0.218,0.27,-2.99,-3.39,2,1
17168.031,-0.983,0.151,0.231,-0.67,-2.14,-1.86,2,1
17168.046,-0.995,0.143,0.24,0.79,-1.71,0.46,2,1
17168.046,-0.993,0.153,0.244,2.59,-1.83,2.96,2,1
17168.062,-0.98,0.156,0.246,3.39,-2.04,5.46,2,1
17168.078,-0.959,0.145,0.248,3.54,-2.38,8.36,2,1
17168.078,-0.944,0.138,0.247,4.27,-2.72,10.59,2,1
17168.093,-0.938,0.138,0.242,4.27,-2.9,11.35,2,1
17168.109,-0.937,0.125,0.241,3.3,-3.17,10.56,2,1
17168.109,-0.935,0.112,0.238,2.14,-3.75,8.36,2,1
17168.125,-0.928,0.12,0.23,0.7,-4.21,5.28,2,1
17168.125,-0.923,0.112,0.226,-0.52,-4.24,2.35,2,1
17168.14,-0.922,0.095,0.229,-0.95,-3.72,0.0,2,1
17168.156,-0.921,0.1,0.232,0.12,-2.87,-1.46,2,1
17168.156,-0.928,0.119,0.232,1.46,-1.68,-2.99,2,1
17168.171,-0.929,0.126,0.236,1.16,-1.1,-4.67,2,1
17168.187,-0.929,0.132,0.244,-0.09,-1.16,-6.68,2,1
17168.187,-0.943,0.137,0.253,-0.79,-1.46,-8.15,2,1
17168.203,-0.953,0.134,0.258,-1.01,-2.5,-8.18,2,1
17168.218,-0.962,0.13,0.262,-0.61,-3.23,-6.41,2,1
17168.218,-0.969,0.128,0.256,0.24,-3.88,-3.81,2,1
17168.234,-0.958,0.121,0.251,0.95,-4.73,-1.68,2,1
17168.25,-0.949,0.123,0.242,1.59,-4.94,-0.37,2,1
17168.25,-0.941,0.126,0.232,1.65,-4.97,0.58,2,1
17168.265,-0.93,0.124,0.228,1.19,-4.61,1.65,2,1
17168.265,-0.929,0.131,0.226,1.68,-3.69,2.23,2,1
17168.281,-0.936,0.135,0.228,1.92,-2.78,2.75,2,1
17168.296,-0.945,0.134,0.233,2.08,-1.95,4.09,2,1
17168.296,-0.95,0.138,0.239,3.42,-1.1,7.05,2,1
17168.312,-0.949,0.145,0.247,5.07,-0.43,10.07,2,1
17168.328,-0.951,0.134,0.251,6.29,-0.24,12.33,2,1
17168.328,-0.95,0.124,0.262,7.78,-0.92,13.86,2,1
17168.343,-0.947,0.118,0.264,9.0,-2.23,13.79,2,1
17168.343,-0.939,0.108,0.248,8.85,-3.17,12.76,2,1
17168.359,-0.928,0.107,0.234,8.79,-3.17,11.08,2,1
17168.375,-0.925,0.098,0.229,8.48,-1.95,8.15,2,1
17168.375,-0.921,0.102,0.221,8.7,-0.55,3.39,2,1
17168.39,-0.924,0.119,0.218,8.36,1.01,-1.95,2,1
17168.406,-0.929,0.122,0.227,7.26,2.66,-6.07,2,1
17168.406,-0.927,0.133,0.237,6.99,3.72,-8.45,2,1
17168.421,-0.942,0.147,0.259,7.42,4.0,-8.39,2,1
17168.437,-0.97,0.166,0.272,7.48,2.62,-6.81,2,1
17168.437,-0.985,0.166,0.262,7.35,0.34,-5.01,2,1
17168.453,-0.975,0.17,0.25,5.86,-2.01,-2.99,2,1
17168.468,-0.956,0.168,0.242,3.94,-3.72,-1.74,2,1
17168.468,-0.946,0.155,0.225,2.44,-4.3,-1.4,2,1
17168.484,-0.946,0.146,0.212,2.23,-3.39,-1.74,2,1
17168.484,-0.938,0.136,0.211,2.84,-1.43,-1.8,2,1
17168.5,-0.935,0.145,0.212,2.96,0.76,-1.98,2,1
17168.515,-0.943,0.151,0.221,3.05,2.47,-2.9,2,1
17168.531,-0.94,0.147,0.229,2.29,3.27,-3.72,2,1
17168.531,-0.934,0.157,0.235,-0.73,1.86,-3.69,2,1
17168.546,-0.926,0.169,0.235,-1.92,0.79,-2.35,2,1
17168.546,-0.926,0.167,0.243,-2.66,-1.28,-0.82,2,1
17168.562,-0.928,0.167,0.233,-3.72,-3.51,0.12,2,1
17168.578,-0.926,0.164,0.213,-5.31,-4.46,0.46,2,1
17168.578,-0.923,0.151,0.202,-7.08,-3.54,0.64,2,1
17168.593,-0.92,0.136,0.199,-8.06,-0.98,0.27,2,1
17168.609,-0.915,0.125,0.199,-7.66,2.78,-0.12,2,1
17168.609,-0.92,0.121,0.212,-6.29,6.87,-0.85,2,1
17168.625,-0.922,0.119,0.231,-4.82,9.55,-1.74,2,1
17168.625,-0.923,0.131,0.24,-4.73,10.1,-2.78,2,1
17168.64,-0.932,0.138,0.244,-6.47,8.82,-4.64,2,1
17168.656,-0.938,0.128,0.246,-8.88,6.65,-6.32,2,1
17168.656,-0.939,0.126,0.246,-10.04,4.58,-8.15,2,1
17168.671,-0.95,0.115,0.25,-9.77,3.14,-9.49,2,1
17168.687,-0.957,0.115,0.25,-9.09,2.14,-9.4,2,1
17168.687,-0.964,0.126,0.243,-7.84,1.43,-8.48,2,1
17168.703,-0.964,0.128,0.245,-7.45,0.58,-7.05,2,1
17168.718,-0.956,0.125,0.252,-7.14,-0.7,-5.62,2,1
17168.718,-0.956,0.132,0.247,-5.28,-1.74,-4.27,2,1
17168.734,-0.959,0.136,0.231,-3.94,-2.08,-3.17,2,1
17168.75,-0.957,0.134,0.224,-3.78,-1.65,-1.8,2,1
17168.75,-0.958,0.13,0.227,-2.66,-0.4,-0.37,2,1
17168.765,-0.963,0.129,0.236,-0.95,0.18,0.55,2,1
17168.765,-0.967,0.136,0.237,0.49,0.06,1.5,2,1
17168.781,-0.964,0.136,0.242,0.58,-0.61,3.27,2,1
17168.796,-0.954,0.131,0.25,0.37,-1.92,5.43,2,1
17168.796,-0.951,0.13,0.243,1.1,-2.99,6.93,2,1
17168.812,-0.953,0.131,0.23,1.46,-3.72,7.78,2,1
17168.828,-0.956,0.134,0.224,1.07,-3.66,7.78,2,1
17168.828,-0.947,0.134,0.223,0.4,-3.08,6.5,2,1
17168.843,-0.939,0.131,0.226,0.37,-2.69,5.52,2,1
17168.843,-0.935,0.138,0.228,0.24,-2.38,5.4,2,1
17168.859,-0.939,0.141,0.234,0.12,-1.98,5.74,2,1
17168.875,-0.949,0.135,0.237,0.76,-1.68,6.04,2,1
17168.875,-0.951,0.13,0.233,1.53,-1.71,5.89,2,1
17168.89,-0.942,0.139,0.229,1.28,-1.92,5.43,2,1
17168.906,-0.936,0.139,0.23,-0.03,-2.08,4.43,2,1
17168.906,-0.929,0.123,0.236,-1.13,-2.26,2.87,2,1
17168.921,-0.926,0.127,0.235,-0.92,-2.53,1.07,2,1
17168.937,-0.926,0.139,0.232,-0.82,-2.87,-0.03,2,1
17168.937,-0.939,0.142,0.232,-1.04,-2.9,-0.76,2,1
17168.953,-0.944,0.136,0.235,-1.37,-2.53,-1.16,2,1
17168.968,-0.944,0.137,0.239,-1.19,-2.47,-0.79,2,1
17168.968,-0.948,0.14,0.244,0.09,-2.66,0.92,2,1
17168.984,-0.948,0.145,0.238,0.89,-3.02,2.84,2,1
17168.984,-0.938,0.146,0.227,1.22,-2.9,4.91,2,1
17169.0,-0.93,0.142,0.224,1.19,-1.89,7.08,2,1
17169.015,-0.939,0.144,0.226,1.34,-0.46,7.84,2,1
17169.015,-0.935,0.141,0.227,2.08,0.4,7.02,2,1
17169.031,-0.93,0.138,0.224,2.04,0.79,5.46,2,1
17169.046,-0.928,0.137,0.227,1.53,0.61,4.12,2,1
17169.062,-0.928,0.134,0.228,1.65,0.34,2.99,2,1
17169.062,-0.935,0.144,0.218,1.95,0.52,2.41,2,1
17169.078,-0.934,0.152,0.21,1.92,1.13,2.59,2,1
17169.078,-0.928,0.157,0.21,1.65,2.08,2.75,2,1
17169.093,-0.93,0.16,0.207,1.28,3.11,2.11,2,1
17169.109,-0.939,0.149,0.209,0.34,4.39,1.46,2,1
17169.109,-0.947,0.137,0.212,-0.06,5.95,1.31,2,1
17169.125,-0.954,0.134,0.229,0.46,7.17,1.04,2,1
17169.125,-0.969,0.128,0.242,1.25,7.57,0.27,2,1
17169.14,-0.977,0.139,0.248,1.1,6.44,-0.52,2,1
17169.156,-0.975,0.144,0.252,0.21,4.3,-1.1,2,1
17169.156,-0.975,0.141,0.253,-0.49,1.65,-1.4,2,1
17169.171,-0.969,0.143,0.239,-0.46,-0.73,-1.43,2,1
17169.187,-0.963,0.153,0.224,-0.92,-2.01,-1.37,2,1
17169.187,-0.962,0.154,0.22,-1.5,-1.74,-1.16,2,1
17169.203,-0.965,0.15,0.223,-1.53,-0.61,-0.61,2,1
17169.218,-0.97,0.15,0.229,-0.55,0.55,0.12,2,1
17169.218,-0.974,0.152,0.233,0.58,1.01,0.73,2,1
17169.234,-0.973,0.158,0.232,0.58,0.67,1.25,2,1
17169.234,-0.967,0.155,0.236,-0.18,0.06,2.44,2,1
17169.25,-0.961,0.151,0.243,-0.34,-0.82,3.94,2,1
17169.265,-0.964,0.15,0.239,0.03,-1.59,4.79,2,1
17169.281,-0.96,0.143,0.236,0.0,-2.66,4.85,2,1
17169.281,-0.951,0.138,0.231,-0.18,-3.54,4.3,2,1
17169.296,-0.943,0.14,0.224,-0.24,-4.03,3.66,2,1
17169.296,-0.948,0.146,0.221,-0.34,-4.09,3.23,2,1
17169.312,-0.957,0.151,0.217,-0.82,-3.97,2.87,2,1
17169.328,-0.959,0.152,0.217,-1.13,-3.42,2.84,2,1
17169.328,-0.957,0.15,0.224,-0.73,-2.47,3.33,2,1
17169.343,-0.955,0.14,0.232,0.21,-1.89,3.85,2,1
17169.359,-0.955,0.136,0.241,1.65,-1.77,4.21,2,1
17169.359,-0.954,0.147,0.24,2.41,-2.41,3.97,2,1
17169.375,-0.952,0.148,0.235,1.37,-3.94,2.96,2,1
17169.375,-0.943,0.142,0.234,-0.34,-5.07,2.01,2,1
17169.39,-0.943,0.154,0.229,-0.52,-5.55,1.46,2,1
17169.406,-0.948,0.163,0.226,-0.18,-5.52,1.43,2,1
17169.406,-0.948,0.168,0.223,-0.4,-5.31,2.29,2,1
17169.421,-0.947,0.166,0.225,-0.15,-4.61,4.3,2,1
17169.437,-0.949,0.176,0.225,1.71,-3.66,7.57,2,1
17169.437,-0.945,0.187,0.225,3.81,-2.78,12.18,2,1
17169.453,-0.944,0.196,0.222,5.34,-1.56,16.97,2,1
17169.468,-0.938,0.196,0.217,6.62,0.03,21.24,2,1
17169.468,-0.922,0.186,0.218,7.51,1.8,24.6,2,1
17169.484,-0.916,0.173,0.221,9.19,3.57,25.27,2,1
17169.484,-0.91,0.17,0.222,9.28,3.72,22.74,2,1
17169.5,-0.896,0.16,0.225,6.96,2.44,17.7,2,1
17169.515,-0.892,0.155,0.213,-0.82,-0.55,2.56,2,1
17169.515,-0.894,0.163,0.215,-4.55,-1.65,-3.33,2,1
17169.531,-0.896,0.16,0.227,-4.97,-1.56,-6.74,2,1
17169.546,-0.91,0.156,0.229,-3.48,-1.25,-7.84,2,1
17169.562,-0.934,0.185,0.232,-2.59,-0.89,-6.53,2,1
17169.562,-0.931,0.18,0.24,-1.4,-0.49,-3.91,2,1
