timestamp,ax,ay,az,gx,gy,gz,orient_label,motion_label
17106.906,-0.399,-0.213,-0.876,-2.9,-1.19,-2.5,2,1
17106.906,-0.399,-0.22,-0.876,-1.56,-1.92,-1.01,2,1
17106.921,-0.395,-0.22,-0.884,-0.12,-2.66,0.24,2,1
17106.937,-0.385,-0.221,-0.893,0.52,-3.17,1.16,2,1
17106.937,-0.378,-0.227,-0.9,0.7,-3.54,1.37,2,1
17106.953,-0.378,-0.224,-0.902,0.73,-3.48,0.46,2,1
17106.953,-0.38,-0.222,-0.9,0.03,-3.51,-0.58,2,1
17106.968,-0.38,-0.217,-0.905,-1.22,-3.54,-1.95,2,1
17106.984,-0.386,-0.219,-0.903,-2.47,-3.57,-3.14,2,1
17106.984,-0.389,-0.225,-0.901,-2.84,-3.54,-3.85,2,1
17107.0,-0.385,-0.223,-0.901,-2.14,-3.05,-4.12,2,1
17107.015,-0.389,-0.216,-0.899,-1.46,-2.69,-4.15,2,1
17107.015,-0.387,-0.214,-0.897,-1.19,-2.59,-3.75,2,1
17107.031,-0.388,-0.205,-0.902,-1.4,-2.84,-3.48,2,1
17107.046,-0.386,-0.203,-0.902,-1.92,-3.05,-2.84,2,1
17107.046,-0.385,-0.213,-0.896,-2.08,-2.84,-2.11,2,1
17107.062,-0.39,-0.224,-0.896,-0.76,-2.41,-1.34,2,1
17107.078,-0.389,-0.224,-0.897,0.46,-1.98,-0.67,2,1
17107.078,-0.39,-0.217,-0.899,0.52,-1.68,-0.49,2,1
17107.093,-0.39,-0.221,-0.894,-0.46,-1.89,-1.04,2,1
17107.093,-0.388,-0.224,-0.893,-1.01,-2.29,-1.68,2,1
17107.109,-0.39,-0.216,-0.892,-1.1,-2.62,-2.53,2,1
17107.125,-0.395,-0.214,-0.886,-1.22,-3.02,-3.14,2,1
17107.125,-0.398,-0.22,-0.884,-1.16,-3.75,-2.81,2,1
17107.14,-0.398,-0.218,-0.892,-1.01,-4.49,-2.56,2,1
17107.156,-0.396,-0.214,-0.9,-1.25,-4.73,-2.35,2,1
17107.156,-0.392,-0.212,-0.904,-1.4,-4.12,-1.95,2,1
17107.171,-0.395,-0.212,-0.902,-1.46,-3.2,-1.65,2,1
17107.171,-0.397,-0.226,-0.891,-0.82,-2.69,-0.92,2,1
17107.187,-0.399,-0.218,-0.892,0.76,-2.17,-0.15,2,1
17107.203,-0.402,-0.214,-0.897,1.71,-2.17,0.34,2,1
17107.203,-0.398,-0.222,-0.89,1.28,-2.44,0.92,2,1
17107.218,-0.396,-0.221,-0.895,1.25,-2.99,0.89,2,1
17107.234,-0.394,-0.215,-0.902,1.65,-3.27,0.79,2,1
17107.234,-0.389,-0.21,-0.902,1.71,-3.05,1.37,2,1
17107.25,-0.394,-0.208,-0.898,1.65,-2.84,1.65,2,1
17107.265,-0.399,-0.215,-0.898,1.5,-2.81,2.32,2,1
17107.265,-0.396,-0.215,-0.901,1.95,-2.62,3.17,2,1
17107.281,-0.392,-0.211,-0.909,2.29,-2.23,3.78,2,1
17107.296,-0.389,-0.22,-0.906,2.38,-1.34,3.94,2,1
17107.296,-0.389,-0.223,-0.905,2.84,-0.7,4.21,2,1
17107.312,-0.386,-0.218,-0.902,2.69,-0.31,4.15,2,1
17107.312,-0.384,-0.227,-0.891,2.2,-0.37,3.45,2,1
17107.328,-0.394,-0.226,-0.882,1.92,-1.01,2.38,2,1
17107.343,-0.393,-0.235,-0.884,1.86,-1.8,2.11,2,1
17107.343,-0.388,-0.236,-0.893,2.29,-2.23,1.86,2,1
17107.359,-0.388,-0.234,-0.906,2.62,-2.04,0.98,2,1
17107.375,-0.384,-0.234,-0.902,1.74,-1.1,-0.24,2,1
17107.375,-0.383,-0.232,-0.889,1.65,-0.64,-1.28,2,1
17107.39,-0.386,-0.222,-0.882,1.86,-0.82,-1.86,2,1
17107.406,-0.388,-0.213,-0.877,1.43,-1.77,-2.38,2,1
17107.406,-0.392,-0.211,-0.872,0.76,-3.02,-2.17,2,1
17107.421,-0.398,-0.21,-0.87,0.64,-4.03,-1.37,2,1
17107.421,-0.407,-0.214,-0.871,1.1,-4.7,-0.21,2,1
17107.437,-0.415,-0.219,-0.871,2.35,-5.46,1.62,2,1
17107.453,-0.422,-0.218,-0.87,3.78,-6.29,3.72,2,1
17107.453,-0.429,-0.213,-0.872,4.64,-7.39,5.49,2,1
17107.468,-0.436,-0.214,-0.864,5.13,-8.64,7.54,2,1
17107.484,-0.444,-0.219,-0.845,5.77,-10.59,10.28,2,1
17107.484,-0.467,-0.219,-0.845,7.17,-12.27,14.1,2,1
17107.5,-0.493,-0.228,-0.816,11.41,-12.73,20.11,2,1
17107.515,-0.5,-0.223,-0.777,15.29,-14.74,28.44,2,1
17107.515,-0.517,-0.237,-0.759,20.17,-18.34,35.46,2,1
17107.531,-0.547,-0.255,-0.741,24.29,-23.32,41.6,2,1
17107.546,-0.544,-0.282,-0.715,29.11,-30.67,46.24,2,1
17107.546,-0.583,-0.275,-0.686,30.46,-55.51,44.62,2,1
17107.562,-0.62,-0.276,-0.682,29.82,-68.42,42.85,2,1
17107.578,-0.672,-0.267,-0.67,31.1,-80.75,45.32,2,1
17107.578,-0.713,-0.206,-0.641,32.65,-93.54,49.56,2,1
17107.593,-0.73,-0.172,-0.636,35.37,-106.17,58.02,2,1
17107.593,-0.733,-0.132,-0.629,37.57,-118.84,69.19,2,1
17107.609,-0.746,-0.099,-0.632,39.55,-131.26,81.45,2,1
17107.625,-0.758,-0.085,-0.639,41.75,-143.44,92.99,2,1
17107.64,-0.792,-0.062,-0.626,44.68,-154.27,102.33,2,1
17107.64,-0.8,-0.083,-0.625,49.62,-163.95,110.39,2,1
17107.656,-0.842,-0.104,-0.614,54.75,-172.98,113.8,2,1
17107.656,-0.884,-0.099,-0.577,60.06,-181.55,115.67,2,1
17107.671,-0.936,-0.081,-0.572,66.77,-190.04,115.88,2,1
17107.687,-0.979,-0.077,-0.582,69.06,-198.31,116.79,2,1
17107.687,-1.007,-0.062,-0.601,64.52,-205.97,117.19,2,1
17107.703,-1.041,-0.055,-0.62,54.6,-211.46,116.4,2,1
17107.718,-1.055,-0.043,-0.638,41.99,-214.21,115.3,2,1
17107.718,-1.072,-0.004,-0.662,26.89,-213.05,114.29,2,1
17107.734,-1.058,0.005,-0.67,7.97,-208.56,113.32,2,1
17107.75,-1.037,0.041,-0.582,-11.54,-191.87,102.51,2,1
17107.765,-1.047,0.045,-0.542,-6.81,-178.26,100.34,2,1
17107.765,-1.014,0.08,-0.501,-1.04,-166.84,100.07,2,1
17107.781,-1.02,0.125,-0.484,5.89,-158.88,99.31,2,1
17107.796,-1.051,0.131,-0.453,12.36,-153.72,100.74,2,1
17107.796,-1.056,0.147,-0.396,15.72,-152.9,103.76,2,1
17107.812,-1.106,0.185,-0.322,19.23,-156.16,108.65,2,1
17107.828,-1.153,0.22,-0.281,24.05,-162.72,119.69,2,1
17107.828,-1.188,0.233,-0.287,28.08,-169.23,135.32,2,1
17107.843,-1.197,0.226,-0.277,31.1,-174.69,152.13,2,1
17107.843,-1.185,0.239,-0.235,36.47,-180.7,165.11,2,1
17107.859,-1.178,0.239,-0.215,44.8,-185.25,173.56,2,1
17107.875,-1.173,0.25,-0.197,51.7,-188.51,178.69,2,1
17107.875,-1.2,0.292,-0.169,56.31,-193.24,182.71,2,1
17107.89,-1.224,0.327,-0.147,58.69,-200.32,189.98,2,1
17107.906,-1.241,0.345,-0.111,57.71,-211.92,198.74,2,1
17107.906,-1.253,0.338,-0.099,56.92,-226.94,207.53,2,1
17107.921,-1.244,0.325,-0.113,54.57,-241.49,215.0,2,1
17107.937,-1.201,0.328,-0.132,46.17,-253.7,217.6,2,1
17107.937,-1.128,0.324,-0.141,33.2,-261.39,212.53,2,1
17107.953,-1.047,0.315,-0.164,16.91,-261.79,200.35,2,1
17107.968,-0.96,0.316,-0.166,-4.0,-254.22,183.63,2,1
17107.968,-0.888,0.344,-0.14,-27.8,-240.55,164.92,2,1
17107.984,-0.839,0.371,-0.11,-52.06,-224.43,146.92,2,1
17108.0,-0.801,0.403,-0.063,-76.05,-207.8,131.63,2,1
17108.0,-0.784,0.409,0.002,-97.14,-193.0,122.17,2,1
17108.015,-0.783,0.387,0.052,-109.74,-182.44,118.23,2,1
17108.031,-0.773,0.403,0.099,-115.3,-174.44,117.83,2,1
17108.031,-0.764,0.41,0.165,-115.73,-168.86,119.79,2,1
17108.046,-0.726,0.368,0.184,-112.31,-166.75,123.08,2,1
17108.046,-0.658,0.347,0.189,-108.55,-162.42,125.71,2,1
17108.062,-0.595,0.367,0.189,-106.97,-153.08,124.76,2,1
17108.078,-0.56,0.376,0.203,-108.74,-140.2,121.19,2,1
17108.078,-0.559,0.421,0.244,-115.02,-125.46,118.02,2,1
17108.093,-0.589,0.436,0.303,-121.62,-115.21,117.07,2,1
17108.109,-0.618,0.404,0.377,-123.42,-112.06,120.82,2,1
17108.109,-0.615,0.385,0.44,-118.78,-112.4,128.27,2,1
17108.125,-0.609,0.36,0.481,-107.18,-112.4,135.26,2,1
17108.14,-0.557,0.314,0.473,-94.09,-108.49,141.48,2,1
17108.14,-0.49,0.313,0.473,-86.55,-99.77,142.74,2,1
17108.156,-0.45,0.32,0.489,-83.86,-88.96,137.79,2,1
17108.156,-0.441,0.308,0.523,-83.93,-77.82,130.74,2,1
17108.171,-0.436,0.296,0.574,-85.09,-69.37,123.63,2,1
17108.187,-0.436,0.278,0.619,-84.08,-64.7,117.86,2,1
17108.187,-0.418,0.246,0.653,-79.44,-63.75,112.22,2,1
17108.203,-0.365,0.242,0.683,-72.51,-62.41,105.69,2,1
17108.203,-0.331,0.242,0.699,-63.3,-58.32,96.99,2,1
17108.218,-0.308,0.226,0.7,-53.96,-53.07,87.31,2,1
17108.234,-0.288,0.234,0.697,-45.9,-46.33,78.65,2,1
17108.25,-0.296,0.258,0.694,-38.85,-40.16,70.41,2,1
17108.25,-0.3,0.28,0.684,-34.67,-36.53,64.21,2,1
17108.265,-0.277,0.342,0.682,-36.29,-33.72,60.06,2,1
17108.265,-0.272,0.421,0.708,-43.52,-29.97,56.4,2,1
17108.281,-0.303,0.477,0.768,-55.36,-27.65,54.29,2,1
17108.296,-0.323,0.476,0.824,-66.71,-28.72,56.18,2,1
17108.296,-0.321,0.461,0.862,-75.69,-31.95,61.37,2,1
17108.312,-0.302,0.433,0.878,-79.87,-37.23,65.8,2,1
17108.328,-0.271,0.398,0.884,-80.11,-43.12,67.23,2,1
17108.328,-0.246,0.367,0.87,-78.74,-48.62,65.19,2,1
17108.343,-0.219,0.339,0.857,-76.27,-53.22,60.12,2,1
17108.343,-0.205,0.314,0.841,-69.98,-55.73,53.5,2,1
17108.359,-0.197,0.317,0.839,-60.27,-55.97,47.27,2,1
17108.375,-0.195,0.338,0.833,-49.9,-55.12,42.54,2,1
17108.375,-0.183,0.36,0.827,-41.32,-52.92,39.83,2,1
17108.39,-0.177,0.38,0.829,-33.85,-49.2,39.31,2,1
17108.406,-0.155,0.429,0.843,-27.62,-42.24,41.69,2,1
17108.421,-0.154,0.433,0.86,-28.87,-40.53,42.76,2,1
17108.437,-0.152,0.422,0.879,-31.22,-40.38,44.68,2,1
17108.437,-0.158,0.426,0.902,-34.67,-42.6,46.08,2,1
17108.453,-0.145,0.414,0.914,-38.76,-46.66,46.82,2,1
17108.453,-0.116,0.391,0.922,-41.44,-49.13,47.55,2,1
17108.468,-0.115,0.368,0.93,-39.25,-49.56,47.52,2,1
17108.484,-0.105,0.355,0.948,-31.98,-49.35,48.22,2,1
17108.484,-0.096,0.377,0.971,-23.1,-49.62,49.47,2,1
17108.5,-0.078,0.389,0.966,-15.26,-51.03,49.9,2,1
17108.515,-0.052,0.406,0.95,-12.24,-52.06,49.47,2,1
17108.531,-0.02,0.418,0.935,-13.98,-52.16,47.21,2,1
17108.531,0.008,0.421,0.921,-24.84,-47.7,40.53,2,1
17108.546,0.025,0.422,0.94,-28.41,-44.77,37.93,2,1
17108.546,0.05,0.422,0.974,-24.66,-42.12,36.9,2,1
17108.562,0.04,0.416,1.103,-11.87,-43.98,37.54,2,1
17108.578,0.107,0.483,1.034,-13.4,-47.98,41.23,2,1
17108.578,0.177,0.479,1.028,-18.52,-45.78,39.43,2,1
17108.593,0.159,0.432,1.01,-16.3,-39.25,37.23,2,1
17108.609,0.179,0.398,0.982,-16.08,-33.97,37.39,2,1
17108.609,0.163,0.395,0.987,-15.66,-29.15,35.58,2,1
17108.625,0.15,0.383,0.983,-12.12,-25.57,34.24,2,1
17108.625,0.157,0.372,0.979,-10.16,-24.14,32.53,2,1
17108.64,0.155,0.378,0.948,-8.12,-23.22,29.79,2,1
17108.656,0.163,0.377,0.899,-4.03,-21.15,27.77,2,1
17108.656,0.181,0.384,0.862,-0.55,-16.39,25.82,2,1
17108.671,0.176,0.409,0.854,1.8,-9.34,23.9,2,1
17108.687,0.169,0.423,0.864,3.02,-2.78,23.32,2,1
17108.687,0.155,0.438,0.899,2.44,2.69,24.69,2,1
17108.703,0.151,0.453,0.925,1.65,6.38,28.02,2,1
17108.703,0.149,0.448,0.928,-0.46,8.76,32.41,2,1
17108.718,0.145,0.424,0.925,-3.54,10.41,36.5,2,1
17108.734,0.148,0.396,0.927,-7.26,11.14,39.0,2,1
17108.75,0.144,0.368,0.932,-10.35,10.93,38.85,2,1
17108.75,0.149,0.341,0.94,-11.11,10.59,37.51,2,1
17108.765,0.149,0.324,0.945,-8.48,10.96,35.71,2,1
17108.765,0.149,0.318,0.948,-2.72,12.57,35.31,2,1
17108.781,0.142,0.328,0.944,2.56,14.47,35.55,2,1
17108.796,0.132,0.337,0.949,2.75,14.65,35.1,2,1
17108.796,0.131,0.322,0.946,-0.24,13.06,34.46,2,1
17108.812,0.127,0.304,0.937,-4.67,11.6,33.39,2,1
17108.812,0.125,0.276,0.939,-8.76,10.35,31.5,2,1
17108.828,0.134,0.255,0.943,-10.83,8.94,28.23,2,1
17108.843,0.13,0.253,0.946,-10.28,8.82,24.9,2,1
17108.859,0.129,0.253,0.966,-8.0,9.06,22.8,2,1
17108.859,0.109,0.269,0.992,-3.63,8.64,21.55,2,1
17108.875,0.113,0.29,0.987,2.38,7.35,21.85,2,1
17108.875,0.109,0.311,0.979,5.98,6.16,22.68,2,1
17108.89,0.103,0.333,0.957,6.62,4.46,22.83,2,1
17108.906,0.107,0.33,0.94,5.92,3.48,23.41,2,1
17108.906,0.107,0.329,0.918,4.94,3.63,23.65,2,1
17108.921,0.104,0.348,0.91,4.33,4.91,24.32,2,1
17108.921,0.1,0.344,0.904,3.78,5.71,24.87,2,1
17108.937,0.098,0.325,0.906,2.38,6.16,25.18,2,1
17108.953,0.1,0.315,0.892,3.91,7.93,26.89,2,1
17108.953,0.1,0.342,0.902,7.35,11.54,30.67,2,1
17108.968,0.087,0.335,0.917,10.1,14.19,33.88,2,1
17108.984,0.08,0.305,0.916,11.29,14.4,35.77,2,1
17109.0,0.095,0.322,0.92,12.27,14.95,37.57,2,1
17109.0,0.106,0.336,0.934,13.86,15.93,37.81,2,1
17109.015,0.102,0.323,0.936,13.86,15.72,35.55,2,1
17109.015,0.099,0.327,0.952,10.86,13.61,31.95,2,1
17109.031,0.103,0.323,0.959,7.78,10.56,28.11,2,1
17109.046,0.113,0.314,0.952,5.28,7.9,24.35,2,1
17109.046,0.132,0.313,0.941,3.27,6.13,20.54,2,1
17109.062,0.144,0.309,0.932,1.89,5.89,16.91,2,1
17109.062,0.151,0.309,0.946,1.92,7.48,13.61,2,1
17109.078,0.097,0.314,0.975,3.75,7.9,11.14,2,1
17109.093,0.115,0.359,0.975,-0.27,2.87,10.47,2,1
17109.093,0.123,0.322,0.955,-2.11,0.34,10.07,2,1
17109.109,0.106,0.308,0.958,-0.73,0.06,9.86,2,1
17109.125,0.108,0.337,0.969,2.62,-0.12,12.18,2,1
17109.125,0.109,0.348,0.948,8.82,-0.24,15.66,2,1
17109.14,0.115,0.364,0.91,12.09,0.49,18.71,2,1
17109.156,0.119,0.365,0.883,10.19,1.4,19.56,2,1
17109.156,0.124,0.355,0.876,5.4,2.38,18.65,2,1
17109.171,0.126,0.34,0.886,1.13,3.45,17.15,2,1
17109.171,0.129,0.323,0.904,-0.37,4.55,14.92,2,1
17109.187,0.131,0.315,0.909,0.76,5.28,12.39,2,1
17109.203,0.14,0.312,0.906,1.92,5.58,9.77,2,1
17109.218,0.15,0.308,0.904,1.68,6.16,6.16,2,1
17109.218,0.152,0.302,0.906,0.61,7.29,2.32,2,1
17109.234,0.15,0.304,0.935,-0.15,8.33,-0.7,2,1
17109.234,0.134,0.312,0.96,0.31,7.54,-2.62,2,1
17109.265,0.149,0.325,0.956,3.54,3.97,-1.83,2,1
17109.265,0.161,0.338,0.943,3.94,3.2,-1.5,2,1
17109.281,0.162,0.34,0.935,2.38,2.9,-2.35,2,1
17109.296,0.16,0.343,0.931,-0.55,2.44,-3.6,2,1
17109.296,0.152,0.341,0.923,-3.3,1.65,-4.43,2,1
17109.312,0.16,0.337,0.922,-5.28,1.22,-4.88,2,1
17109.312,0.171,0.336,0.925,-5.58,1.74,-6.07,2,1
17109.328,0.166,0.326,0.925,-4.64,2.53,-8.61,2,1
17109.343,0.169,0.321,0.937,-2.38,3.75,-10.65,2,1
17109.343,0.165,0.336,0.949,1.46,5.49,-11.32,2,1
17109.359,0.155,0.345,0.944,5.16,6.5,-11.81,2,1
17109.375,0.154,0.347,0.94,6.04,6.68,-12.36,2,1
17109.375,0.136,0.36,0.945,5.43,6.62,-13.49,2,1
17109.39,0.116,0.361,0.936,4.94,5.28,-13.43,2,1
17109.406,0.111,0.356,0.927,3.36,3.66,-11.87,2,1
17109.406,0.116,0.363,0.914,1.98,2.81,-10.35,2,1
17109.421,0.09,0.368,0.917,-2.08,2.5,-8.09,2,1
17109.437,0.103,0.364,0.916,-5.71,1.1,-6.26,2,1
17109.453,0.113,0.348,0.927,-8.91,-0.18,-5.22,2,1
17109.453,0.099,0.316,0.922,-10.32,-1.04,-5.22,2,1
17109.468,0.117,0.288,0.879,-12.91,-2.84,-8.06,2,1
17109.484,0.141,0.286,0.858,-16.51,-3.2,-13.95,2,1
17109.484,0.104,0.288,0.934,-15.75,-1.56,-18.95,2,1
17109.5,0.1,0.284,0.973,-8.82,-3.69,-22.37,2,1
17109.515,0.127,0.355,0.986,5.52,-6.5,-22.86,2,1
17109.515,0.12,0.397,0.995,7.42,-4.06,-16.75,2,1
17109.531,0.157,0.416,0.96,3.05,1.71,-8.61,2,1
17109.546,0.145,0.449,0.964,-3.97,6.38,1.16,2,1
17109.546,0.125,0.386,0.981,-13.21,10.16,8.33,2,1
17109.562,0.076,0.357,1.0,-20.81,12.42,11.78,2,1
17109.562,0.047,0.355,1.011,-21.97,10.44,13.86,2,1
17109.578,0.048,0.317,0.98,-17.76,5.16,13.67,2,1
17109.593,0.049,0.25,0.865,-9.52,4.21,2.5,2,1
17109.609,0.016,0.226,0.863,-0.95,5.58,-3.97,2,1
17109.625,0.027,0.265,0.84,5.31,5.01,-7.69,2,1
17109.625,0.042,0.308,0.838,7.87,6.29,-9.09,2,1
17109.64,0.038,0.333,0.865,7.81,8.58,-8.27,2,1
17109.656,0.028,0.357,0.899,6.23,9.09,-5.07,2,1
17109.656,0.035,0.354,0.921,3.6,7.48,-0.15,2,1
17109.671,0.05,0.341,0.937,1.01,5.19,4.58,2,1
17109.671,0.066,0.321,0.939,0.58,3.63,8.64,2,1
17109.687,0.085,0.305,0.936,0.98,2.87,10.65,2,1
17109.703,0.09,0.296,0.95,1.89,2.72,10.35,2,1
17109.703,0.091,0.302,0.963,5.55,1.98,9.0,2,1
17109.718,0.092,0.318,0.959,10.71,1.01,8.45,2,1
17109.734,0.088,0.334,0.951,14.68,0.12,7.9,2,1
17109.734,0.091,0.339,0.935,16.08,-1.19,7.48,2,1
17109.75,0.097,0.347,0.923,15.14,-2.26,7.11,2,1
17109.765,0.104,0.351,0.908,12.6,-2.84,6.65,2,1
17109.765,0.105,0.346,0.908,9.09,-2.56,6.01,2,1
17109.781,0.109,0.34,0.915,6.2,-2.2,5.28,2,1
17109.781,0.11,0.337,0.92,4.55,-1.86,4.33,2,1
17109.796,0.112,0.333,0.921,3.27,-1.62,3.54,2,1
17109.812,0.129,0.323,0.933,2.04,-1.13,2.78,2,1
17109.812,0.142,0.31,0.963,2.93,-0.03,1.19,2,1
17109.828,0.116,0.32,0.958,4.82,0.18,-0.37,2,1
17109.843,0.113,0.35,0.971,5.46,-0.76,0.49,2,1
17109.843,0.111,0.357,0.98,7.57,-1.86,1.31,2,1
17109.859,0.095,0.347,0.959,8.76,-3.72,2.38,2,1
17109.875,0.101,0.342,0.942,7.29,-5.86,3.36,2,1
17109.875,0.098,0.347,0.927,6.38,-6.47,3.57,2,1
17109.89,0.102,0.341,0.902,6.47,-5.71,3.81,2,1
17109.906,0.102,0.346,0.891,5.92,-4.09,3.66,2,1
17109.906,0.098,0.351,0.891,3.94,-2.26,2.53,2,1
17109.921,0.098,0.351,0.899,2.38,-1.16,0.95,2,1
17109.937,0.099,0.35,0.91,1.77,-0.4,0.06,2,1
17109.937,0.096,0.353,0.93,1.74,-0.06,-0.31,2,1
17109.953,0.097,0.36,0.935,2.81,-0.58,-0.4,2,1
17109.953,0.103,0.362,0.921,3.08,-1.19,0.09,2,1
17109.968,0.11,0.359,0.916,2.08,-1.34,0.27,2,1
17109.984,0.112,0.354,0.913,1.46,-1.22,0.27,2,1
17109.984,0.112,0.348,0.912,1.68,-0.76,0.4,2,1
17110.0,0.115,0.346,0.912,2.04,-0.31,0.64,2,1
17110.015,0.122,0.349,0.915,2.14,0.4,0.61,2,1
17110.015,0.122,0.356,0.928,2.44,0.98,0.46,2,1
17110.031,0.118,0.359,0.936,2.62,1.13,0.52,2,1
17110.031,0.116,0.366,0.942,1.46,0.73,0.89,2,1
17110.046,0.102,0.367,0.966,-0.06,-0.31,1.07,2,1
17110.062,0.093,0.361,0.957,0.18,-2.99,1.83,2,1
17110.062,0.109,0.358,0.941,0.52,-5.19,3.23,2,1
17110.078,0.119,0.356,0.945,0.82,-6.07,3.05,2,1
17110.093,0.09,0.365,0.948,1.89,-7.29,1.95,2,1
17110.093,0.101,0.368,0.913,3.36,-8.3,2.2,2,1
17110.125,0.103,0.387,0.898,0.49,-7.26,0.67,2,1
17110.125,0.103,0.391,0.885,-1.65,-6.04,0.15,2,1
17110.14,0.105,0.386,0.878,-3.94,-3.85,0.12,2,1
17110.156,0.107,0.372,0.879,-5.98,-1.04,0.18,2,1
17110.156,0.111,0.357,0.884,-7.69,1.4,0.18,2,1
17110.171,0.118,0.342,0.913,-9.77,3.45,-0.34,2,1
17110.171,0.11,0.32,0.945,-9.83,4.58,-0.89,2,1
17110.187,0.101,0.305,0.967,-6.59,4.46,-0.82,2,1
17110.203,0.101,0.319,0.964,-2.47,3.66,0.55,2,1
17110.218,0.111,0.322,0.94,-0.43,3.05,1.98,2,1
17110.218,0.116,0.317,0.922,-1.86,2.99,2.5,2,1
17110.234,0.116,0.319,0.924,-5.04,3.23,2.08,2,1
17110.234,0.105,0.321,0.929,-7.11,3.45,1.4,2,1
17110.25,0.099,0.319,0.926,-6.65,3.11,1.37,2,1
17110.265,0.106,0.321,0.916,-4.73,3.17,1.4,2,1
17110.265,0.107,0.329,0.907,-2.59,4.06,0.85,2,1
17110.296,0.098,0.34,0.902,-1.92,5.92,0.31,2,1
17110.296,0.107,0.344,0.897,-4.33,6.38,0.21,2,1
17110.312,0.115,0.341,0.921,-7.05,7.35,-0.73,2,1
17110.312,0.108,0.331,0.933,-7.63,8.12,-2.01,2,1
17110.328,0.115,0.33,0.937,-8.3,7.9,-3.17,2,1
17110.343,0.122,0.328,0.959,-8.24,8.18,-4.52,2,1
17110.343,0.108,0.321,0.977,-5.89,8.3,-5.58,2,1
17110.359,0.113,0.319,0.958,-5.1,6.84,-5.86,2,1
17110.375,0.13,0.337,0.976,-8.0,5.92,-6.9,2,1
17110.375,0.089,0.335,0.986,-7.2,4.85,-7.11,2,1
17110.39,0.117,0.313,0.932,-6.81,1.92,-5.49,2,1
17110.39,0.11,0.331,0.937,-8.39,1.89,-4.46,2,1
17110.406,0.066,0.308,0.91,-7.29,0.7,-3.63,2,1
17110.421,0.063,0.304,0.894,-6.78,-3.3,-2.04,2,1
17110.421,0.077,0.313,0.895,-5.52,-6.01,-0.67,2,1
17110.437,0.099,0.329,0.916,-3.33,-5.62,0.58,2,1
17110.453,0.103,0.356,0.966,-1.89,-3.3,2.04,2,1
17110.468,0.116,0.38,1.019,-2.44,-1.53,3.51,2,1
17110.468,0.13,0.395,1.058,-5.92,0.37,4.55,2,1
17110.484,0.127,0.394,1.084,-10.01,2.29,4.39,2,1
17110.484,0.1,0.377,1.079,-13.25,2.66,3.11,2,1
17110.5,0.105,0.345,1.067,-15.32,-2.99,-4.27,2,1
17110.515,0.09,0.315,1.023,-11.02,-3.75,-8.85,2,1
17110.531,0.109,0.281,0.936,-2.96,-2.2,-13.28,2,1
17110.531,-0.09,0.314,0.914,9.55,-5.98,-11.2,2,1
17110.531,-0.053,0.346,0.892,16.14,-13.89,-6.29,2,1
17110.546,0.048,0.353,0.835,12.42,-18.49,-2.99,2,1
17110.562,0.082,0.34,0.794,0.06,-16.33,-2.75,2,1
17110.562,0.132,0.291,0.759,-8.94,-8.94,-1.62,2,1
17110.578,0.166,0.261,0.711,-12.27,3.88,-1.16,2,1
17110.593,0.165,0.241,0.704,-13.7,20.11,-3.36,2,1
17110.593,0.14,0.22,0.716,-13.82,36.23,-7.63,2,1
17110.609,0.079,0.219,0.783,-13.12,49.99,-12.57,2,1
17110.625,-0.205,0.291,1.166,-6.93,52.77,-14.71,2,1
17110.625,-0.15,0.225,1.322,10.56,21.94,-2.72,2,1
17110.64,0.133,0.299,1.024,3.81,-13.12,-0.98,2,1
17110.656,0.203,0.383,0.952,-8.48,-15.11,-5.55,2,1
17110.656,0.174,0.271,0.922,0.31,-5.68,-3.39,2,1
17110.671,0.151,0.303,0.887,6.99,1.83,0.12,2,1
17110.687,0.112,0.362,0.915,2.23,5.37,0.12,2,1
17110.687,0.106,0.332,0.948,-3.81,4.73,0.03,2,1
17110.703,0.113,0.305,0.945,-5.83,2.78,-0.4,2,1
17110.703,0.123,0.308,0.934,-4.58,2.41,-0.58,2,1
17110.718,0.108,0.303,0.943,-1.74,2.9,-2.01,2,1
17110.734,0.095,0.303,0.953,1.37,2.56,-3.23,2,1
17110.734,0.092,0.306,0.968,3.11,1.43,-3.45,2,1
17110.75,0.087,0.309,0.981,2.81,-0.21,-3.2,2,1
17110.765,0.093,0.306,0.955,1.53,-2.14,-3.02,2,1
17110.765,0.112,0.304,0.944,-0.64,-1.71,-3.08,2,1
17110.781,0.097,0.3,0.951,-1.19,0.09,-4.0,2,1
17110.796,0.084,0.298,0.954,-1.07,0.58,-4.58,2,1
17110.796,0.081,0.298,0.955,-0.98,0.18,-4.97,2,1
17110.812,0.074,0.303,0.964,-0.18,-0.37,-5.62,2,1
17110.812,0.07,0.31,0.971,1.53,-1.22,-6.01,2,1
17110.828,0.069,0.313,0.966,3.23,-2.17,-5.77,2,1
17110.843,0.066,0.314,0.957,4.18,-2.32,-4.67,2,1
17110.843,0.064,0.313,0.952,4.15,-2.2,-3.66,2,1
17110.859,0.062,0.313,0.946,3.54,-1.86,-3.39,2,1
17110.875,0.055,0.312,0.942,3.17,-1.4,-2.87,2,1
17110.875,0.051,0.315,0.947,2.59,-1.13,-2.59,2,1
17110.89,0.042,0.324,0.951,2.17,-1.25,-2.87,2,1
17110.906,0.042,0.321,0.941,2.35,-1.71,-2.59,2,1
17110.906,0.051,0.319,0.933,2.23,-1.43,-2.01,2,1
17110.921,0.05,0.32,0.937,2.35,-0.34,-2.01,2,1
17110.921,0.041,0.316,0.94,2.81,0.4,-1.86,2,1
17110.937,0.035,0.313,0.936,2.66,-0.09,-1.68,2,1
17110.953,0.039,0.313,0.931,1.83,-0.95,-1.92,2,1
17110.953,0.039,0.312,0.93,2.35,-1.13,-2.53,2,1
17110.968,0.033,0.32,0.935,4.18,-0.79,-2.69,2,1
17110.984,0.028,0.34,0.944,5.71,-0.27,-2.26,2,1
17111.0,0.021,0.354,0.946,5.95,-0.18,-1.37,2,1
17111.0,0.024,0.355,0.943,4.7,-0.55,-0.09,2,1
17111.015,0.024,0.348,0.94,2.72,-0.55,0.61,2,1
17111.015,0.027,0.338,0.936,1.04,-0.18,0.98,2,1
17111.031,0.031,0.326,0.932,0.46,0.49,0.92,2,1
17111.046,0.031,0.314,0.936,1.37,1.56,0.15,2,1
17111.046,0.024,0.305,0.939,4.27,2.96,-0.4,2,1
17111.062,0.012,0.318,0.953,6.99,4.24,-0.09,2,1
17111.062,0.006,0.328,0.971,8.91,4.3,0.95,2,1
17111.078,-0.003,0.316,0.99,10.74,3.36,2.38,2,1
17111.093,-0.014,0.3,1.004,14.37,1.62,5.1,2,1
17111.093,-0.035,0.308,1.009,19.2,-1.68,8.18,2,1
17111.109,-0.055,0.335,1.026,23.35,-8.03,9.22,2,1
17111.125,-0.054,0.343,1.016,25.51,-17.0,8.21,2,1
17111.125,-0.018,0.337,1.054,24.35,-27.47,6.5,2,1
17111.156,0.075,0.379,0.923,18.49,-37.78,2.9,2,1
17111.156,0.084,0.358,0.892,16.08,-33.85,2.75,2,1
17111.171,0.073,0.348,0.888,13.46,-29.18,2.96,2,1
17111.171,0.06,0.354,0.894,10.13,-26.18,3.39,2,1
17111.203,0.053,0.347,0.902,7.11,-25.21,4.27,2,1
17111.203,0.058,0.341,0.91,5.43,-25.33,4.73,2,1
17111.203,0.082,0.339,0.902,5.74,-25.24,4.85,2,1
17111.218,0.102,0.335,0.881,6.96,-23.26,4.43,2,1
17111.234,0.115,0.345,0.857,7.14,-19.35,3.91,2,1
17111.234,0.122,0.354,0.851,4.73,-14.47,2.96,2,1
17111.25,0.124,0.346,0.848,1.68,-9.8,1.92,2,1
17111.265,0.126,0.344,0.845,-0.79,-5.16,0.73,2,1
17111.265,0.125,0.348,0.858,-0.79,-0.61,-0.4,2,1
17111.281,0.116,0.336,0.857,2.2,3.75,-0.95,2,1
17111.296,0.109,0.338,0.862,6.07,8.06,-0.18,2,1
17111.296,0.119,0.353,0.856,9.95,12.18,1.74,2,1
17111.312,0.132,0.347,0.855,12.18,20.72,3.91,2,1
17111.328,0.131,0.353,0.859,11.63,25.12,4.43,2,1
17111.343,0.125,0.357,0.875,10.59,29.02,4.33,2,1
17111.343,0.107,0.358,0.902,8.39,30.61,3.17,2,1
17111.359,0.098,0.357,0.922,5.52,29.39,2.04,2,1
17111.375,0.102,0.355,0.925,2.2,26.8,0.4,2,1
17111.375,0.115,0.35,0.923,-1.01,24.57,-1.98,2,1
17111.39,0.109,0.369,0.946,-3.3,24.48,-4.15,2,1
17111.406,0.094,0.384,1.006,0.34,24.26,-3.48,2,1
17111.406,0.149,0.41,1.018,3.57,20.48,0.12,2,1
17111.421,0.151,0.441,1.006,-0.46,16.54,0.37,2,1
17111.421,0.13,0.426,1.014,-5.83,13.12,-0.55,2,1
17111.437,0.123,0.405,0.977,-9.89,8.27,-0.21,2,1
17111.453,0.161,0.375,0.935,-14.4,5.4,-2.81,2,1
17111.468,0.146,0.354,0.956,-15.93,6.04,-8.7,2,1
17111.468,0.135,0.332,0.935,-13.4,5.55,-15.26,2,1
17111.484,0.098,0.352,0.94,-4.15,5.28,-29.36,2,1
17111.5,0.078,0.397,0.923,-3.11,5.4,-27.5,2,1
17111.515,0.054,0.443,0.897,-7.17,5.07,-22.1,2,1
17111.515,0.035,0.447,0.878,-15.11,4.61,-15.41,2,1
17111.531,0.032,0.417,0.869,-24.08,3.69,-8.88,2,1
17111.546,0.039,0.383,0.874,-31.43,3.45,-4.43,2,1
17111.546,0.027,0.336,0.885,-33.05,4.09,-1.04,2,1
17111.562,0.024,0.306,0.886,-31.98,3.72,1.46,2,1
17111.578,0.031,0.281,0.899,-31.5,2.26,0.64,2,1
17111.578,0.033,0.266,0.923,-28.53,0.24,-1.46,2,1
17111.593,0.025,0.253,0.946,-22.98,-3.02,-2.81,2,1
17111.593,0.041,0.239,0.966,-17.58,-7.42,-4.03,2,1
17111.609,0.068,0.246,0.99,-11.32,-11.11,-5.13,2,1
17111.625,0.104,0.255,0.981,-4.79,-12.36,-5.98,2,1
17111.64,0.126,0.265,0.99,-1.07,-10.8,-8.36,2,1
17111.64,0.123,0.282,1.003,1.98,-8.03,-10.8,2,1
17111.656,0.126,0.316,0.981,4.24,-1.92,-13.37,2,1
17111.671,0.107,0.33,0.977,2.93,0.61,-14.1,2,1
17111.671,0.09,0.343,0.958,0.03,0.82,-14.59,2,1
17111.687,0.073,0.343,0.938,-3.94,0.43,-14.56,2,1
17111.703,0.066,0.336,0.927,-7.97,0.21,-14.1,2,1
17111.703,0.056,0.324,0.933,-10.22,0.12,-12.97,2,1
17111.718,0.045,0.307,0.936,-10.16,0.12,-11.57,2,1
17111.734,0.046,0.305,0.945,-10.01,-0.21,-10.68,2,1
17111.75,0.044,0.301,0.95,-9.98,-0.95,-10.5,2,1
17111.75,0.038,0.291,0.941,-9.22,-1.86,-10.04,2,1
17111.765,0.038,0.28,0.929,-8.85,-2.08,-9.55,2,1
17111.765,0.036,0.281,0.934,-9.06,-2.11,-10.13,2,1
17111.781,0.028,0.284,0.94,-7.39,-1.62,-10.65,2,1
17111.796,0.02,0.294,0.945,-4.3,-1.1,-10.28,2,1
17111.796,0.014,0.311,0.948,-1.98,-0.76,-9.28,2,1
17111.812,0.008,0.323,0.942,-1.89,-1.07,-8.24,2,1
17111.828,0.009,0.33,0.941,-5.95,-1.86,-5.58,2,1
17111.843,0.002,0.321,0.948,-5.95,-1.5,-3.45,2,1
17111.843,0.003,0.32,0.955,-5.16,-1.5,-1.68,2,1
17111.859,0.003,0.319,0.949,-4.43,-1.65,-1.01,2,1
17111.875,0.001,0.314,0.953,-4.91,-1.43,-0.73,2,1
17111.875,0.01,0.268,0.983,-3.63,-1.25,-0.7,2,1
17111.89,-0.004,0.285,0.914,-1.25,-1.34,-1.43,2,1
17111.906,-0.013,0.374,0.895,-6.23,-1.19,0.24,2,1
17111.906,-0.017,0.327,0.951,-8.09,0.06,2.62,2,1
17111.921,-0.011,0.288,0.953,-5.74,-0.58,4.27,2,1
17111.921,0.009,0.305,0.917,-5.28,-2.01,3.75,2,1
17111.937,0.02,0.314,0.917,-5.25,-0.12,2.04,2,1
17111.953,0.018,0.304,0.95,-3.14,3.39,1.53,2,1
17111.953,0.007,0.317,0.979,0.15,5.19,1.62,2,1
17111.968,0.003,0.322,0.986,2.17,4.76,2.04,2,1
17111.984,0.01,0.315,0.973,1.77,3.08,2.17,2,1
17111.984,0.015,0.308,0.958,-0.09,1.77,1.68,2,1
17112.0,0.014,0.3,0.95,-1.5,1.19,1.77,2,1
17112.015,0.009,0.297,0.951,-2.35,0.98,2.14,2,1
17112.015,0.003,0.298,0.954,-2.72,0.31,2.5,2,1
17112.031,0.001,0.295,0.956,-3.17,-0.92,2.96,2,1
17112.031,0.005,0.294,0.948,-3.72,-1.86,3.33,2,1
17112.046,0.012,0.304,0.936,-4.64,-1.98,3.3,2,1
17112.062,0.01,0.308,0.939,-4.76,-1.01,2.99,2,1
17112.062,0.009,0.307,0.939,-3.54,-0.31,3.6,2,1
17112.078,0.017,0.307,0.939,-2.26,0.31,4.76,2,1
17112.093,0.024,0.3,0.934,-1.71,1.04,5.68,2,1
17112.109,0.025,0.292,0.938,-3.48,1.8,6.56,2,1
17112.109,0.026,0.276,0.951,-6.68,1.92,6.99,2,1
17112.125,0.033,0.258,0.966,-8.3,1.89,7.2,2,1
17112.125,0.035,0.247,0.972,-7.63,2.35,7.69,2,1
17112.14,0.038,0.24,0.97,-7.11,2.14,7.2,2,1
17112.156,0.037,0.24,0.967,-6.87,2.01,5.74,2,1
17112.156,0.04,0.248,0.969,-6.2,2.35,4.94,2,1
17112.171,0.041,0.253,0.97,-5.46,2.47,4.46,2,1
17112.187,0.038,0.257,0.973,-4.52,2.44,3.88,2,1
17112.187,0.037,0.268,0.966,-3.2,2.29,3.63,2,1
17112.203,0.035,0.281,0.968,-2.5,2.66,3.78,2,1
17112.203,0.034,0.281,0.963,-2.87,2.78,3.97,2,1
17112.218,0.028,0.276,0.962,-3.91,2.84,3.88,2,1
17112.234,0.022,0.273,0.961,-4.33,2.99,4.09,2,1
17112.234,0.016,0.269,0.95,-4.58,2.84,4.61,2,1
17112.25,0.016,0.262,0.94,-4.88,2.2,4.21,2,1
17112.265,0.02,0.264,0.936,-4.55,1.74,3.11,2,1
17112.265,0.019,0.277,0.939,-3.2,2.26,2.75,2,1
17112.281,0.015,0.289,0.941,-2.08,2.53,3.54,2,1
17112.296,0.021,0.294,0.937,-2.26,2.23,4.46,2,1
17112.296,0.027,0.298,0.946,-3.57,2.44,5.34,2,1
17112.312,0.023,0.288,0.958,-4.39,2.04,6.59,2,1
17112.312,0.03,0.28,0.957,-4.97,0.79,7.84,2,1
17112.328,0.036,0.267,0.959,-5.34,-0.18,8.45,2,1
17112.343,0.042,0.25,0.963,-4.49,-2.26,8.79,2,1
17112.359,0.041,0.243,0.966,-4.03,-2.96,8.39,2,1
17112.375,0.041,0.234,0.963,-3.75,-3.57,8.21,2,1
17112.375,0.048,0.234,0.962,-3.57,-4.24,7.6,2,1
17112.39,0.047,0.236,0.971,-2.35,-4.33,6.99,2,1
17112.406,0.046,0.246,0.979,-0.12,-4.12,6.59,2,1
17112.406,0.055,0.262,0.971,1.37,-4.06,6.47,2,1
17112.421,0.053,0.28,0.97,1.46,-3.3,5.77,2,1
17112.421,0.044,0.297,0.973,0.7,-2.72,5.31,2,1
17112.437,0.042,0.31,0.968,-0.46,-2.44,5.55,2,1
17112.453,0.038,0.309,0.967,-1.53,-1.98,5.8,2,1
17112.453,0.035,0.302,0.965,-2.11,-0.31,4.39,2,1
17112.468,0.033,0.294,0.972,-0.67,0.76,3.42,2,1
17112.484,0.028,0.282,0.974,1.19,1.43,2.35,2,1
17112.484,0.021,0.281,0.965,2.38,1.59,1.46,2,1
17112.5,0.007,0.284,0.937,2.56,1.83,1.19,2,1
17112.515,0.008,0.278,0.931,-0.46,1.83,2.01,2,1
17112.531,0.018,0.27,0.945,-1.86,2.38,3.05,2,1
17112.546,0.027,0.26,0.955,-2.08,3.17,3.51,2,1
17112.546,0.029,0.258,0.963,-2.01,4.15,3.33,2,1
17112.562,0.033,0.256,0.964,-1.74,4.55,2.78,2,1
17112.562,0.034,0.261,0.969,-1.43,4.82,2.35,2,1
17112.578,0.025,0.267,0.975,-1.46,5.43,2.56,2,1
17112.593,0.022,0.261,0.975,-1.98,5.46,3.08,2,1
17112.593,0.023,0.263,0.975,-3.33,5.4,3.2,2,1
17112.609,0.017,0.262,0.976,-3.81,5.4,2.78,2,1
17112.625,0.015,0.262,0.965,-3.33,5.1,2.2,2,1
17112.64,0.015,0.265,0.955,-2.2,4.52,1.25,2,1
17112.64,0.012,0.272,0.951,-0.34,4.09,-0.31,2,1
17112.656,0.008,0.285,0.943,2.38,3.94,-1.89,2,1
17112.656,0.002,0.298,0.934,3.88,3.48,-3.02,2,1
17112.671,-0.002,0.305,0.927,3.81,2.99,-3.45,2,1
17112.671,0.004,0.303,0.932,2.99,3.17,-3.08,2,1
17112.687,0.003,0.296,0.946,2.29,4.46,-1.98,2,1
17112.703,0.008,0.287,0.958,0.58,5.62,-0.7,2,1
17112.718,0.017,0.274,0.97,-1.8,6.41,-0.31,2,1
17112.718,0.028,0.262,0.979,-3.17,7.26,-0.67,2,1
17112.734,0.038,0.258,0.992,-3.14,8.12,-1.62,2,1
17112.734,0.042,0.258,1.007,-2.32,8.51,-2.84,2,1
17112.75,0.052,0.264,1.01,-1.13,8.09,-4.12,2,1
17112.765,0.061,0.271,1.005,-0.12,7.84,-5.74,2,1
17112.765,0.058,0.284,0.993,-0.03,7.87,-7.32,2,1
17112.781,0.049,0.3,0.984,-1.1,7.93,-8.33,2,1
17112.796,0.036,0.306,0.972,-2.75,8.15,-8.36,2,1
17112.796,0.028,0.3,0.953,-4.85,7.66,-7.29,2,1
17112.812,0.021,0.284,0.941,-6.96,7.66,-5.62,2,1
17112.812,0.004,0.263,0.935,-8.42,7.9,-4.24,2,1
17112.828,-0.009,0.246,0.926,-10.13,7.29,-3.27,2,1
17112.843,-0.021,0.229,0.929,-11.63,6.04,-2.96,2,1
17112.859,-0.03,0.219,0.933,-11.54,4.39,-2.81,2,1
17112.859,-0.046,0.221,0.941,-9.86,3.11,-1.98,2,1
17112.875,-0.045,0.228,0.929,-8.51,1.22,-0.61,2,1
17112.875,-0.041,0.239,0.924,-8.27,0.4,0.46,2,1
17112.89,-0.042,0.245,0.929,-8.3,0.64,2.5,2,1
17112.906,-0.048,0.25,0.948,-9.55,1.56,5.19,2,1
17112.906,-0.04,0.243,0.957,-11.57,1.89,8.27,2,1
17112.921,-0.021,0.231,0.965,-14.13,2.26,10.86,2,1
17112.937,-0.022,0.219,0.977,-15.75,3.14,11.99,2,1
17112.937,-0.017,0.205,0.974,-16.51,3.33,12.39,2,1
17112.953,-0.005,0.198,0.971,-15.72,3.6,12.12,2,1
17112.953,-0.007,0.199,0.97,-13.49,4.06,10.99,2,1
17112.968,-0.001,0.21,0.958,-11.9,4.03,10.01,2,1
17112.984,-0.001,0.225,0.954,-11.99,4.76,9.64,2,1
17112.984,-0.004,0.227,0.97,-12.57,6.04,9.92,2,1
17113.0,0.004,0.236,0.978,-14.01,6.71,11.02,2,1
17113.015,0.027,0.234,1.008,-16.02,6.99,11.96,2,1
17113.031,0.033,0.223,1.033,-16.91,6.93,11.66,2,1
17113.031,0.035,0.214,1.028,-17.61,5.62,10.38,2,1
17113.046,0.053,0.202,1.019,-17.67,4.85,9.77,2,1
17113.046,0.051,0.183,1.012,-15.35,5.65,9.03,2,1
17113.062,0.044,0.167,1.012,-12.02,6.32,8.36,2,1
17113.078,0.032,0.162,1.009,-8.76,6.26,6.96,2,1
17113.078,0.023,0.161,1.0,-5.71,5.07,5.4,2,1
17113.093,0.02,0.168,0.988,-3.11,4.03,3.97,2,1
17113.093,0.011,0.196,0.979,-1.83,3.81,3.23,2,1
17113.109,-0.007,0.221,0.98,-2.38,3.45,3.85,2,1
17113.125,-0.02,0.224,0.974,-4.88,1.8,5.31,2,1
17113.125,-0.013,0.215,0.97,-7.9,-0.24,6.41,2,1
17113.14,-0.017,0.193,0.967,-9.0,-1.4,6.41,2,1
17113.156,-0.036,0.178,0.965,-7.81,-1.89,5.31,2,1
17113.156,-0.044,0.171,0.96,-5.07,-2.56,3.27,2,1
17113.171,-0.043,0.177,0.96,-1.53,-3.23,0.89,2,1
17113.171,-0.042,0.192,0.954,2.2,-3.33,-1.04,2,1
17113.187,-0.047,0.222,0.948,4.61,-2.99,-1.71,2,1
17113.203,-0.051,0.24,0.941,4.46,-3.17,-1.13,2,1
17113.218,-0.045,0.242,0.944,2.47,-3.48,-0.03,2,1
17113.218,-0.038,0.234,0.949,0.61,-3.51,0.98,2,1
17113.234,-0.035,0.224,0.962,-1.25,-3.14,1.59,2,1
17113.234,-0.033,0.205,0.974,-2.23,-2.59,1.5,2,1
17113.25,-0.027,0.194,0.98,-1.77,-2.04,0.52,2,1
17113.265,-0.023,0.194,0.988,-0.61,-1.34,-0.58,2,1
17113.265,-0.018,0.194,0.984,0.73,-1.16,-1.28,2,1
17113.281,-0.019,0.2,0.978,0.7,-1.13,-2.04,2,1
17113.296,-0.022,0.2,0.974,-0.37,-1.28,-2.26,2,1
17113.296,-0.019,0.203,0.969,-1.98,-1.43,-1.59,2,1
17113.312,-0.021,0.202,0.972,-4.43,-1.07,-0.52,2,1
17113.312,-0.023,0.188,0.979,-5.89,-0.61,0.24,2,1
17113.328,-0.02,0.182,0.983,-5.86,-0.21,0.55,2,1
17113.343,-0.013,0.178,0.981,-4.61,0.46,0.21,2,1
17113.343,-0.014,0.181,0.99,-3.39,1.5,-0.24,2,1
17113.359,-0.01,0.188,0.985,-2.5,1.62,-0.34,2,1
17113.375,-0.002,0.199,0.983,-2.69,1.8,-0.21,2,1
17113.375,0.0,0.207,0.982,-3.88,2.14,0.34,2,1
17113.39,0.0,0.205,0.982,-5.58,2.08,1.34,2,1
17113.406,-0.002,0.206,0.98,-7.32,1.74,2.47,2,1
17113.406,0.002,0.197,0.978,-8.33,1.19,3.2,2,1
17113.421,0.002,0.191,0.982,-8.39,0.85,3.11,2,1
17113.437,-0.002,0.181,0.991,-7.35,0.61,2.72,2,1
17113.437,-0.003,0.178,0.989,-5.46,0.27,2.23,2,1
17113.453,-0.01,0.183,0.989,-3.54,-0.21,1.1,2,1
17113.453,-0.007,0.187,0.985,-4.09,0.12,1.19,2,1
17113.468,-0.002,0.188,0.987,-5.13,0.92,1.59,2,1
17113.484,-0.014,0.176,0.998,-6.2,0.98,2.17,2,1
17113.484,-0.019,0.166,0.99,-6.1,0.95,2.2,2,1
17113.5,-0.017,0.159,0.984,-5.37,1.16,1.59,2,1
17113.515,-0.023,0.164,0.981,-4.61,1.59,1.13,2,1
17113.515,-0.032,0.168,0.976,-3.72,1.83,0.79,2,1
17113.531,-0.034,0.176,0.971,-2.96,1.74,0.61,2,1
17113.546,-0.039,0.187,0.962,-2.75,1.95,0.89,2,1
17113.562,-0.038,0.188,0.964,-3.39,1.95,1.22,2,1
17113.562,-0.032,0.183,0.969,-3.88,1.59,1.77,2,1
17113.578,-0.026,0.177,0.979,-4.36,1.22,2.14,2,1
17113.593,-0.018,0.165,0.985,-4.39,0.85,1.92,2,1
17113.609,-0.014,0.159,0.989,-3.42,0.18,1.13,2,1
17113.609,-0.011,0.16,0.984,-1.65,-0.37,0.12,2,1
17113.625,-0.011,0.167,0.983,-0.03,-0.61,-0.92,2,1
17113.625,-0.017,0.178,0.989,0.89,-0.52,-1.43,2,1
17113.64,-0.02,0.178,0.991,1.07,-0.76,-1.46,2,1
17113.656,-0.021,0.177,0.985,0.31,-1.01,-1.07,2,1
17113.656,-0.017,0.168,0.981,-0.92,-1.1,-0.4,2,1
17113.671,-0.015,0.166,0.986,-2.23,-0.95,0.03,2,1
17113.687,-0.018,0.164,0.988,-3.3,-1.19,0.06,2,1
17113.687,-0.003,0.166,0.989,-3.6,-1.56,-0.49,2,1
17113.703,0.004,0.167,0.993,-2.41,-1.22,-1.31,2,1
17113.718,0.0,0.189,0.996,0.12,0.31,-3.75,2,1
17113.734,-0.0,0.204,1.005,-0.09,1.74,-4.21,2,1
17113.734,-0.0,0.211,1.027,-0.31,3.39,-3.66,2,1
17113.75,0.002,0.202,1.038,-0.43,5.37,-2.75,2,1
17113.765,-0.006,0.186,1.041,-0.85,7.08,-1.8,2,1
17113.765,-0.019,0.158,1.031,-1.83,7.2,-1.62,2,1
17113.781,-0.047,0.144,1.064,-1.46,5.89,-2.11,2,1
17113.796,-0.108,0.128,1.095,5.22,-0.95,-1.68,2,1
17113.796,-0.067,0.097,1.006,13.92,-12.02,0.46,2,1
17113.812,-0.106,0.114,0.979,20.29,-18.37,1.37,2,1
17113.812,-0.115,0.131,0.953,25.61,-25.97,2.29,2,1
17113.828,-0.112,0.184,0.942,26.4,-33.2,2.99,2,1
17113.843,-0.103,0.229,0.968,22.43,-40.35,3.78,2,1
17113.843,-0.066,0.236,0.975,15.75,-48.59,5.16,2,1
17113.859,0.03,0.228,0.929,7.29,-53.19,4.58,2,1
17113.875,0.107,0.211,0.882,-0.52,-48.28,1.53,2,1
17113.89,0.117,0.174,0.913,-0.4,-19.2,-4.21,2,1
17113.906,0.086,0.177,0.922,4.79,-6.68,-5.86,2,1
17113.906,0.069,0.214,0.963,7.84,1.65,-6.78,2,1
17113.921,0.045,0.224,0.993,9.8,4.97,-8.09,2,1
17113.937,0.021,0.225,1.016,10.35,4.49,-9.06,2,1
17113.937,0.006,0.235,1.039,11.84,1.83,-8.64,2,1
17113.953,-0.01,0.242,1.047,14.86,-2.35,-7.11,2,1
17113.953,-0.011,0.255,1.041,17.06,-7.81,-4.52,2,1
17113.968,0.016,0.262,1.019,17.0,-13.18,-1.92,2,1
17113.984,0.039,0.265,0.993,14.86,-16.33,-0.46,2,1
17113.984,0.055,0.257,0.97,12.76,-17.15,-0.09,2,1
17114.0,0.065,0.24,0.949,11.69,-15.84,-0.61,2,1
17114.015,0.064,0.225,0.938,12.09,-12.97,-1.46,2,1
17114.015,0.061,0.214,0.936,13.95,-10.28,-2.81,2,1
17114.031,0.057,0.213,0.93,16.57,-8.03,-4.36,2,1
17114.031,0.054,0.215,0.926,19.01,-5.95,-5.71,2,1
17114.062,0.032,0.221,0.939,19.71,-2.84,-7.78,2,1
17114.062,0.013,0.222,0.945,19.23,-2.9,-7.75,2,1
17114.078,0.012,0.234,0.946,18.31,-4.58,-6.59,2,1
17114.093,0.022,0.251,0.938,17.06,-6.13,-4.52,2,1
17114.093,0.033,0.249,0.924,14.4,-6.56,-2.5,2,1
17114.109,0.039,0.244,0.917,10.99,-6.07,-1.04,2,1
17114.125,0.048,0.236,0.917,7.75,-4.61,-0.61,2,1
17114.125,0.051,0.227,0.918,5.49,-2.75,-1.43,2,1
17114.14,0.051,0.219,0.926,4.88,-0.79,-2.62,2,1
17114.156,0.05,0.211,0.933,6.29,1.01,-4.0,2,1
17114.156,0.042,0.212,0.935,8.67,2.29,-5.19,2,1
17114.171,0.04,0.216,0.936,10.22,2.96,-6.23,2,1
17114.171,0.046,0.228,0.937,10.19,3.45,-7.29,2,1
17114.187,0.047,0.236,0.94,8.97,4.27,-8.36,2,1
17114.203,0.043,0.236,0.948,7.39,5.01,-9.06,2,1
17114.203,0.042,0.24,0.959,6.23,5.28,-9.34,2,1
17114.218,0.035,0.25,0.98,5.49,5.31,-9.25,2,1
17114.234,0.024,0.255,0.999,6.01,4.43,-8.82,2,1
17114.234,0.019,0.261,1.003,7.26,2.72,-7.63,2,1
17114.25,0.028,0.276,0.997,8.64,0.52,-5.77,2,1
17114.265,0.042,0.277,0.984,9.03,-1.04,-4.67,2,1
17114.265,0.052,0.278,0.963,8.39,-0.85,-4.39,2,1
17114.281,0.056,0.276,0.951,8.15,0.73,-4.21,2,1
17114.296,0.052,0.271,0.943,8.58,3.02,-3.97,2,1
17114.296,0.05,0.272,0.934,8.7,5.31,-3.91,2,1
17114.312,0.051,0.266,0.928,8.36,7.69,-4.52,2,1
17114.328,0.049,0.256,0.932,7.81,10.32,-5.83,2,1
17114.328,0.034,0.258,0.925,7.6,12.79,-7.45,2,1
17114.343,0.013,0.26,0.937,7.11,14.56,-8.06,2,1
17114.343,-0.008,0.26,0.947,6.56,14.47,-8.36,2,1
17114.359,-0.017,0.261,0.959,5.07,13.06,-8.58,2,1
17114.375,-0.017,0.257,0.968,3.51,11.51,-8.64,2,1
17114.375,-0.015,0.252,0.973,2.41,9.95,-9.19,2,1
17114.39,-0.01,0.25,0.964,2.59,9.03,-9.43,2,1
17114.406,-0.01,0.252,0.955,3.42,9.58,-9.67,2,1
17114.406,-0.013,0.256,0.959,3.78,10.68,-10.28,2,1
17114.421,-0.042,0.263,0.974,3.94,10.99,-10.71,2,1
17114.421,-0.061,0.284,1.041,5.86,2.62,-5.89,2,1
17114.437,-0.025,0.291,1.026,2.84,-0.67,-4.97,2,1
17114.453,0.005,0.308,1.003,1.19,-0.37,-4.76,2,1
17114.453,0.017,0.299,0.993,1.01,0.98,-4.24,2,1
17114.468,0.007,0.296,0.984,0.37,1.98,-4.0,2,1
17114.484,-0.004,0.289,0.992,-0.03,1.98,-4.03,2,1
17114.484,-0.008,0.278,0.984,0.21,0.82,-4.12,2,1
17114.5,-0.003,0.27,0.971,0.55,-0.55,-4.82,2,1
17114.515,-0.003,0.265,0.967,1.25,-1.01,-6.29,2,1
17114.515,-0.009,0.264,0.963,2.26,-1.4,-7.6,2,1
17114.531,-0.007,0.267,0.954,3.05,-2.01,-8.64,2,1
17114.546,-0.005,0.273,0.946,3.69,-2.2,-9.25,2,1
17114.546,-0.01,0.281,0.945,4.03,-1.83,-9.61,2,1
17114.562,-0.017,0.285,0.947,4.0,-1.71,-9.46,2,1
17114.578,-0.013,0.29,0.942,3.78,-2.11,-8.73,2,1
17114.578,-0.008,0.296,0.945,3.33,-1.83,-7.93,2,1
17114.593,-0.011,0.293,0.944,2.96,-1.25,-7.14,2,1
17114.593,-0.013,0.292,0.948,2.26,-0.92,-5.89,2,1
17114.609,-0.015,0.292,0.957,1.98,-0.79,-4.79,2,1
17114.625,-0.012,0.288,0.959,1.74,-1.19,-3.88,2,1
17114.625,-0.011,0.283,0.957,1.04,-1.92,-3.27,2,1
17114.64,-0.01,0.277,0.955,0.03,-2.75,-3.42,2,1
17114.656,-0.001,0.272,0.948,-0.24,-3.48,-4.09,2,1
17114.656,0.004,0.273,0.947,0.79,-3.2,-4.7,2,1
17114.671,0.005,0.277,0.946,2.9,-2.26,-5.04,2,1
17114.687,0.004,0.288,0.945,4.97,-1.5,-4.88,2,1
17114.687,0.005,0.3,0.943,5.92,-0.98,-4.52,2,1
17114.703,0.006,0.311,0.946,5.95,-0.55,-4.24,2,1
17114.703,0.005,0.318,0.947,5.28,-0.34,-3.63,2,1
17114.718,0.001,0.318,0.949,4.21,0.0,-3.02,2,1
17114.734,-0.001,0.323,0.959,3.27,-0.12,-2.35,2,1
17114.734,0.001,0.324,0.955,3.08,-0.55,-1.71,2,1
17114.75,0.001,0.317,0.946,3.02,-1.22,-1.25,2,1
17114.765,-0.001,0.309,0.94,2.87,-1.74,-1.59,2,1
17114.765,0.002,0.307,0.94,3.14,-2.08,-1.98,2,1
17114.781,-0.002,0.299,0.94,4.18,-1.98,-2.17,2,1
17114.796,-0.003,0.298,0.942,4.7,-2.23,-2.23,2,1
17114.796,-0.004,0.302,0.946,4.7,-2.47,-2.26,2,1
17114.812,-0.005,0.299,0.947,4.55,-2.62,-2.26,2,1
17114.812,-0.004,0.301,0.945,4.46,-2.75,-1.77,2,1
17114.828,-0.005,0.298,0.946,4.33,-2.62,-1.4,2,1
17114.843,-0.011,0.297,0.949,4.27,-2.38,-1.07,2,1
17114.843,-0.012,0.297,0.952,4.09,-2.56,-0.67,2,1
17114.859,-0.008,0.304,0.953,3.2,-2.96,-0.64,2,1
17114.875,-0.007,0.303,0.951,2.35,-2.84,-0.61,2,1
17114.875,-0.008,0.297,0.955,2.2,-2.41,-0.67,2,1
17114.89,-0.009,0.298,0.956,2.44,-1.98,-0.98,2,1
17114.906,-0.014,0.302,0.956,2.84,-1.71,-1.43,2,1
17114.906,-0.014,0.304,0.956,3.11,-1.68,-1.77,2,1
17114.921,-0.014,0.308,0.952,3.54,-1.43,-1.92,2,1
17114.921,-0.017,0.308,0.944,3.94,-1.1,-2.11,2,1
17114.937,-0.016,0.307,0.946,4.24,-0.34,-2.29,2,1
17114.953,-0.022,0.31,0.948,4.33,0.73,-2.53,2,1
17114.953,-0.026,0.317,0.949,3.75,1.16,-2.41,2,1
17114.968,-0.023,0.318,0.946,2.87,1.25,-2.23,2,1
17114.984,-0.024,0.31,0.944,2.32,1.89,-2.14,2,1
17114.984,-0.024,0.305,0.942,2.35,2.99,-2.44,2,1
17115.0,-0.024,0.303,0.938,2.66,4.12,-2.93,2,1
17115.015,-0.027,0.304,0.943,2.81,5.04,-3.45,2,1
17115.015,-0.024,0.309,0.948,2.9,5.68,-3.69,2,1
17115.031,-0.029,0.312,0.948,2.81,6.13,-3.66,2,1
17115.046,-0.034,0.308,0.95,2.72,6.16,-3.05,2,1
17115.046,-0.034,0.304,0.949,2.44,5.8,-1.8,2,1
17115.062,-0.033,0.3,0.943,1.86,5.31,-0.67,2,1
17115.062,-0.029,0.293,0.933,1.65,4.94,0.0,2,1
17115.078,-0.028,0.288,0.933,1.86,4.91,0.24,2,1
17115.093,-0.031,0.284,0.931,2.56,4.64,0.21,2,1
17115.109,-0.03,0.287,0.925,3.6,4.06,0.03,2,1
17115.109,-0.027,0.296,0.927,4.64,3.69,-0.15,2,1
17115.125,-0.027,0.299,0.927,5.49,3.2,0.06,2,1
17115.125,-0.021,0.307,0.928,5.74,2.35,0.67,2,1
17115.14,-0.016,0.309,0.93,5.68,1.46,1.31,2,1
17115.156,-0.012,0.311,0.931,5.43,0.52,1.8,2,1
17115.156,-0.012,0.316,0.935,4.76,-0.43,2.14,2,1
17115.171,-0.012,0.316,0.94,4.61,-1.46,2.44,2,1
17115.187,-0.012,0.319,0.948,4.82,-2.59,2.78,2,1
17115.187,-0.014,0.319,0.953,5.55,-3.85,3.23,2,1
17115.203,-0.008,0.322,0.952,6.41,-5.1,3.54,2,1
17115.203,-0.005,0.324,0.947,6.56,-6.2,3.27,2,1
17115.218,-0.004,0.328,0.945,6.16,-7.14,2.75,2,1
17115.234,0.002,0.334,0.945,6.04,-7.78,2.29,2,1
17115.234,0.005,0.333,0.941,6.53,-8.06,1.65,2,1
17115.25,0.003,0.332,0.942,7.23,-8.12,1.04,2,1
17115.265,0.004,0.336,0.944,7.84,-8.45,0.67,2,1
17115.265,0.006,0.339,0.943,8.27,-9.0,0.31,2,1
17115.281,0.012,0.337,0.945,8.45,-9.43,0.15,2,1
17115.281,0.014,0.334,0.95,8.39,-9.06,0.18,2,1
17115.296,0.011,0.331,0.954,8.0,-8.61,0.15,2,1
17115.312,0.013,0.325,0.958,7.05,-8.58,0.15,2,1
17115.312,0.011,0.316,0.958,6.5,-8.79,0.03,2,1
17115.328,0.01,0.317,0.947,6.87,-8.97,-0.43,2,1
17115.343,0.013,0.322,0.934,7.66,-9.16,-0.85,2,1
17115.343,0.009,0.32,0.917,8.85,-9.19,-1.19,2,1
17115.359,0.001,0.323,0.903,10.32,-9.43,-0.95,2,1
17115.375,0.004,0.333,0.892,11.41,-10.13,0.06,2,1
17115.375,0.009,0.347,0.886,10.65,-10.62,1.19,2,1
17115.39,0.012,0.359,0.894,8.82,-10.71,2.44,2,1
17115.406,0.021,0.369,0.905,6.65,-10.74,4.06,2,1
17115.406,0.025,0.374,0.917,4.94,-10.5,5.62,2,1
17115.421,0.021,0.372,0.935,4.49,-9.92,7.29,2,1
17115.437,0.025,0.371,0.946,5.49,-9.19,6.87,2,1
17115.437,0.018,0.374,0.959,6.68,-8.73,6.2,2,1
17115.453,0.014,0.375,0.953,7.14,-8.21,5.52,2,1
17115.453,0.002,0.375,0.948,7.51,-7.57,4.82,2,1
17115.468,-0.005,0.369,0.937,7.66,-7.63,4.43,2,1
17115.484,-0.007,0.371,0.923,7.05,-7.57,4.61,2,1
17115.484,-0.008,0.374,0.923,5.4,-7.05,4.49,2,1
17115.5,-0.009,0.375,0.923,3.75,-6.62,4.24,2,1
17115.515,-0.008,0.368,0.928,2.2,-5.89,4.67,2,1
17115.515,-0.012,0.361,0.934,0.89,-4.64,5.49,2,1
17115.531,-0.007,0.357,0.941,-0.73,-3.6,6.41,2,1
17115.531,-0.006,0.345,0.958,-2.56,-2.84,6.35,2,1
17115.546,-0.004,0.322,0.966,-3.33,-2.9,5.28,2,1
17115.562,0.004,0.322,0.957,-2.78,-3.33,3.57,2,1
17115.562,0.015,0.317,0.942,-1.19,-3.14,1.59,2,1
17115.578,0.014,0.323,0.945,1.22,-2.17,-0.67,2,1
17115.593,0.009,0.337,0.94,4.88,-1.74,-2.29,2,1
17115.609,0.01,0.351,0.925,7.75,-1.86,-3.14,2,1
17115.609,0.008,0.373,0.916,8.27,-1.77,-3.2,2,1
17115.625,0.015,0.381,0.904,7.63,-1.74,-2.35,2,1
17115.625,0.018,0.383,0.896,5.95,-1.5,-0.82,2,1
17115.64,0.015,0.385,0.899,3.88,-1.1,0.7,2,1
17115.656,0.01,0.381,0.909,2.11,-1.28,1.83,2,1
17115.656,0.019,0.372,0.915,1.28,-1.98,3.02,2,1
17115.671,0.028,0.372,0.927,1.07,-2.01,3.63,2,1
17115.687,0.034,0.369,0.94,1.5,-1.95,3.48,2,1
17115.687,0.039,0.364,0.941,2.26,-1.86,3.05,2,1
17115.703,0.044,0.362,0.935,2.5,-1.89,2.56,2,1
17115.703,0.044,0.36,0.93,2.56,-1.71,1.98,2,1
17115.718,0.04,0.36,0.928,2.66,-1.56,1.34,2,1
17115.734,0.04,0.362,0.924,3.23,-1.77,1.25,2,1
17115.734,0.038,0.366,0.923,3.75,-1.71,1.5,2,1
17115.75,0.038,0.371,0.924,3.97,-1.04,1.59,2,1
17115.765,0.036,0.367,0.929,3.51,-0.43,1.8,2,1
17115.765,0.031,0.372,0.935,3.17,-0.37,1.89,2,1
17115.781,0.029,0.371,0.929,3.42,-1.01,1.98,2,1
17115.796,0.032,0.368,0.907,3.45,-1.95,1.74,2,1
17115.796,0.038,0.369,0.9,2.93,-1.83,1.25,2,1
17115.812,0.04,0.371,0.902,2.9,-0.89,0.7,2,1
17115.812,0.034,0.368,0.9,3.27,-0.12,0.18,2,1
17115.828,0.024,0.378,0.913,3.17,0.24,0.12,2,1
17115.843,0.02,0.382,0.913,2.99,0.24,0.58,2,1
17115.843,0.017,0.384,0.916,2.41,-0.21,1.13,2,1
17115.859,0.017,0.386,0.918,2.01,-0.7,1.74,2,1
17115.875,0.019,0.384,0.913,1.92,-1.37,2.69,2,1
17115.875,0.026,0.381,0.911,1.74,-1.8,3.57,2,1
17115.89,0.03,0.377,0.907,1.83,-1.92,4.43,2,1
17115.906,0.035,0.369,0.904,1.59,-2.23,5.1,2,1
17115.906,0.038,0.367,0.902,1.16,-2.56,5.22,2,1
17115.921,0.04,0.367,0.904,0.95,-2.72,5.25,2,1
17115.921,0.042,0.362,0.907,0.92,-2.53,5.52,2,1
17115.937,0.042,0.365,0.911,0.4,-2.11,6.23,2,1
17115.953,0.042,0.366,0.921,-0.55,-1.83,7.14,2,1
17115.953,0.044,0.364,0.927,-1.59,-2.11,7.97,2,1
17115.968,0.048,0.361,0.931,-2.78,-2.62,8.15,2,1
17115.984,0.055,0.352,0.937,-3.6,-3.17,7.51,2,1
17115.984,0.054,0.347,0.939,-2.9,-3.57,6.13,2,1
17116.0,0.052,0.347,0.943,-1.07,-3.6,4.39,2,1
17116.015,0.049,0.352,0.945,1.28,-3.85,2.56,2,1
17116.015,0.053,0.37,0.946,3.6,-4.27,1.5,2,1
17116.031,0.056,0.384,0.938,4.88,-4.06,1.22,2,1
17116.046,0.056,0.385,0.928,4.73,-3.88,1.4,2,1
17116.046,0.053,0.382,0.923,3.91,-3.75,1.68,2,1
17116.062,0.051,0.381,0.919,2.59,-4.21,1.65,2,1
17116.062,0.054,0.377,0.916,1.62,-4.52,1.43,2,1
17116.078,0.054,0.377,0.914,1.68,-4.15,0.92,2,1
17116.093,0.047,0.377,0.919,2.17,-3.23,1.04,2,1
17116.093,0.044,0.377,0.922,2.23,-2.96,1.16,2,1
17116.109,0.049,0.376,0.925,1.86,-2.96,1.07,2,1
17116.125,0.048,0.373,0.929,1.92,-2.41,0.89,2,1
17116.14,0.044,0.371,0.935,2.53,-2.2,0.82,2,1
17116.14,0.043,0.373,0.933,3.33,-2.53,0.73,2,1
17116.156,0.041,0.371,0.927,3.97,-3.2,0.4,2,1
17116.156,0.045,0.374,0.923,4.64,-3.69,0.55,2,1
17116.171,0.048,0.376,0.914,5.62,-3.66,0.7,2,1
17116.187,0.052,0.375,0.909,5.95,-3.42,0.58,2,1
17116.187,0.058,0.381,0.912,5.4,-3.05,0.4,2,1
17116.203,0.059,0.383,0.914,4.85,-2.93,0.4,2,1
17116.218,0.058,0.382,0.917,4.3,-2.62,0.61,2,1
17116.218,0.062,0.386,0.917,3.81,-2.26,0.92,2,1
17116.234,0.061,0.386,0.914,3.57,-1.77,1.07,2,1
17116.234,0.054,0.38,0.916,3.3,-1.16,1.07,2,1
17116.25,0.048,0.383,0.923,2.5,-0.61,1.04,2,1
17116.265,0.044,0.382,0.921,1.43,-0.21,1.13,2,1
17116.265,0.042,0.372,0.916,1.04,-0.15,0.89,2,1
17116.281,0.044,0.367,0.921,1.37,-0.06,0.27,2,1
17116.296,0.044,0.375,0.92,2.69,-0.18,-0.89,2,1
17116.296,0.038,0.385,0.919,4.58,-0.52,-2.08,2,1
17116.312,0.039,0.396,0.911,5.86,-1.07,-2.56,2,1
17116.328,0.043,0.409,0.904,6.13,-1.65,-2.56,2,1
17116.328,0.042,0.419,0.9,5.65,-1.77,-2.29,2,1
17116.343,0.041,0.416,0.893,5.25,-1.65,-1.25,2,1
17116.343,0.04,0.411,0.893,4.61,-1.28,-0.03,2,1
17116.359,0.033,0.405,0.893,4.0,-1.16,0.92,2,1
17116.375,0.041,0.393,0.897,3.51,-1.53,1.5,2,1
17116.375,0.044,0.389,0.905,3.17,-2.08,1.71,2,1
17116.39,0.049,0.387,0.903,3.42,-2.5,2.01,2,1
17116.406,0.056,0.386,0.905,4.09,-2.69,2.35,2,1
17116.406,0.056,0.381,0.906,4.24,-2.81,2.47,2,1
17116.421,0.055,0.379,0.906,3.63,-3.27,2.69,2,1
17116.437,0.059,0.388,0.912,3.08,-3.72,2.47,2,1
17116.437,0.059,0.387,0.913,3.2,-3.75,2.38,2,1
17116.453,0.06,0.389,0.914,3.48,-3.6,2.26,2,1
17116.453,0.06,0.394,0.914,3.69,-3.3,2.01,2,1
17116.468,0.056,0.394,0.915,3.94,-2.81,1.46,2,1
17116.484,0.053,0.402,0.92,3.88,-2.62,0.64,2,1
17116.484,0.055,0.406,0.925,4.18,-2.56,0.03,2,1
17116.5,0.054,0.407,0.922,5.04,-2.56,-0.46,2,1
17116.515,0.058,0.41,0.918,5.52,-2.56,-1.1,2,1
17116.515,0.055,0.414,0.91,5.92,-2.29,-1.74,2,1
17116.531,0.053,0.416,0.899,5.71,-1.83,-2.23,2,1
17116.546,0.049,0.417,0.901,5.1,-1.71,-2.56,2,1
17116.546,0.044,0.421,0.893,5.01,-1.56,-2.96,2,1
17116.562,0.044,0.422,0.89,4.88,-1.43,-3.05,2,1
17116.578,0.047,0.426,0.892,5.28,-0.73,-2.62,2,1
17116.578,0.046,0.429,0.898,5.55,0.4,-2.01,2,1
17116.593,0.045,0.422,0.903,5.16,1.4,-1.16,2,1
17116.593,0.043,0.417,0.912,4.67,2.04,-0.34,2,1
17116.609,0.039,0.409,0.912,4.33,2.11,0.4,2,1
17116.625,0.042,0.395,0.909,4.06,1.83,0.7,2,1
17116.625,0.042,0.393,0.904,3.91,1.98,0.89,2,1
17116.64,0.039,0.393,0.902,3.94,2.32,0.89,2,1
17116.656,0.038,0.391,0.902,4.06,2.81,0.85,2,1
17116.656,0.038,0.39,0.901,3.94,3.33,0.82,2,1
17116.671,0.039,0.39,0.898,3.08,3.45,1.13,2,1
17116.687,0.043,0.39,0.897,1.86,3.48,1.43,2,1
17116.687,0.043,0.389,0.898,0.89,3.85,1.59,2,1
17116.703,0.045,0.392,0.903,0.21,4.18,1.89,2,1
17116.703,0.051,0.393,0.904,0.03,4.12,2.08,2,1
17116.718,0.052,0.398,0.907,0.43,4.3,2.14,2,1
17116.734,0.049,0.407,0.911,1.07,4.27,2.23,2,1
17116.734,0.052,0.412,0.907,1.4,3.97,2.78,2,1
17116.75,0.053,0.413,0.906,1.46,3.57,3.2,2,1
17116.765,0.057,0.411,0.907,1.56,3.48,3.2,2,1
17116.765,0.055,0.416,0.903,1.68,3.57,3.17,2,1
17116.781,0.046,0.423,0.9,1.16,3.36,2.96,2,1
17116.796,0.043,0.42,0.897,0.15,2.66,2.99,2,1
17116.796,0.047,0.416,0.892,-0.64,1.92,2.84,2,1
17116.812,0.049,0.412,0.892,-0.37,1.71,2.35,2,1
17116.812,0.049,0.416,0.896,0.73,1.43,2.08,2,1
17116.828,0.049,0.423,0.896,1.56,1.28,1.95,2,1
17116.843,0.051,0.43,0.898,1.34,0.82,1.95,2,1
17116.843,0.051,0.435,0.9,0.82,0.52,1.92,2,1
17116.859,0.053,0.429,0.899,0.43,0.27,1.98,2,1
17116.875,0.056,0.422,0.901,0.27,0.37,2.01,2,1
17116.89,0.051,0.417,0.902,0.98,0.46,1.8,2,1
17116.89,0.047,0.417,0.899,1.56,-0.09,1.77,2,1
17116.906,0.049,0.42,0.895,1.37,-0.58,1.62,2,1
17116.906,0.048,0.416,0.894,0.95,-1.34,1.4,2,1
17116.921,0.046,0.412,0.892,0.7,-1.8,1.25,2,1
17116.921,0.047,0.41,0.895,0.73,-1.89,1.16,2,1
17116.937,0.044,0.413,0.9,1.31,-2.08,0.89,2,1
17116.953,0.046,0.416,0.901,2.14,-2.56,0.49,2,1
17116.968,0.046,0.414,0.901,2.69,-2.69,0.03,2,1
17116.968,0.044,0.409,0.902,3.39,-2.75,-0.27,2,1
17116.984,0.043,0.409,0.902,4.39,-2.75,-0.24,2,1
17116.984,0.048,0.411,0.899,5.31,-2.78,-0.21,2,1
17117.0,0.052,0.412,0.899,5.92,-2.56,-0.52,2,1
17117.015,0.052,0.414,0.904,6.5,-2.29,-1.25,2,1
17117.015,0.049,0.42,0.903,6.93,-2.17,-1.62,2,1
17117.031,0.048,0.434,0.9,6.56,-2.14,-1.59,2,1
17117.046,0.046,0.448,0.895,4.7,-2.17,-0.92,2,1
17117.046,0.045,0.448,0.891,1.92,-1.92,0.37,2,1
17117.062,0.045,0.439,0.895,-0.67,-1.28,1.77,2,1
17117.062,0.044,0.428,0.897,-2.26,-0.82,2.59,2,1
17117.078,0.042,0.415,0.898,-2.66,-0.49,2.41,2,1
17117.093,0.042,0.406,0.898,-1.74,-0.24,1.59,2,1
17117.093,0.04,0.404,0.896,0.06,-0.03,0.58,2,1
17117.109,0.042,0.411,0.894,1.65,0.12,-0.37,2,1
17117.125,0.042,0.42,0.891,2.53,0.09,-0.95,2,1
17117.125,0.04,0.426,0.89,2.66,0.24,-0.79,2,1
17117.14,0.039,0.436,0.89,1.71,0.03,0.09,2,1
17117.156,0.044,0.443,0.89,-0.18,-0.15,1.19,2,1
17117.156,0.046,0.439,0.89,-2.47,-0.18,2.11,2,1
17117.171,0.052,0.43,0.894,-4.24,-0.67,2.66,2,1
17117.187,0.056,0.423,0.899,-4.97,-0.89,2.66,2,1
17117.187,0.056,0.418,0.904,-4.46,-1.04,2.04,2,1
17117.203,0.057,0.412,0.906,-3.14,-1.19,1.22,2,1
17117.203,0.055,0.416,0.905,-1.86,-1.5,0.27,2,1
17117.218,0.057,0.421,0.902,-1.22,-2.26,-0.76,2,1
17117.234,0.059,0.428,0.897,-0.98,-2.84,-1.46,2,1
17117.234,0.057,0.434,0.892,-1.01,-2.78,-1.31,2,1
17117.25,0.055,0.436,0.893,-1.65,-2.72,-1.01,2,1
17117.265,0.051,0.44,0.894,-2.38,-2.41,-0.52,2,1
17117.265,0.051,0.435,0.894,-2.93,-2.23,0.15,2,1
17117.281,0.055,0.43,0.896,-3.54,-1.89,0.82,2,1
17117.296,0.053,0.421,0.9,-3.27,-1.5,1.28,2,1
17117.296,0.052,0.412,0.902,-2.87,-1.83,1.19,2,1
17117.312,0.054,0.403,0.899,-2.32,-2.11,0.79,2,1
17117.312,0.057,0.406,0.897,-1.37,-2.32,0.15,2,1
17117.328,0.06,0.402,0.899,-0.12,-2.23,-0.55,2,1
17117.343,0.054,0.403,0.9,1.07,-1.92,-0.95,2,1
17117.343,0.053,0.407,0.901,2.23,-1.95,-0.79,2,1
17117.359,0.049,0.414,0.9,2.23,-2.11,-0.85,2,1
17117.375,0.045,0.422,0.896,1.01,-2.47,-0.37,2,1
17117.375,0.048,0.424,0.892,-0.92,-2.08,1.16,2,1
17117.39,0.047,0.42,0.892,-0.89,-1.5,1.8,2,1
17117.406,0.042,0.413,0.897,-1.07,-1.71,1.98,2,1
17117.406,0.04,0.411,0.901,-1.53,-2.11,1.4,2,1
17117.421,0.04,0.416,0.896,-1.77,-2.62,0.82,2,1
17117.437,0.044,0.42,0.889,-1.53,-2.59,0.82,2,1
17117.437,0.044,0.429,0.888,-1.25,-1.89,1.04,2,1
17117.453,0.037,0.432,0.894,-1.83,-1.34,1.65,2,1
17117.468,0.048,0.43,0.896,-2.56,-1.25,2.62,2,1
17117.468,0.058,0.424,0.906,-2.41,-1.28,3.14,2,1
17117.484,0.067,0.409,0.901,-0.06,-0.82,3.14,2,1
17117.5,0.067,0.407,0.903,3.17,0.37,2.44,2,1
17117.5,0.067,0.404,0.905,6.29,1.19,1.22,2,1
17117.515,0.064,0.412,0.905,7.69,1.59,-0.43,2,1
17117.515,0.064,0.425,0.904,6.96,1.65,-1.71,2,1
17117.531,0.07,0.435,0.9,5.49,1.89,-1.92,2,1
17117.546,0.073,0.442,0.897,3.11,2.47,-1.46,2,1
17117.546,0.064,0.439,0.896,0.61,3.23,-1.04,2,1
17117.562,0.062,0.433,0.903,-1.62,3.39,-0.21,2,1
17117.562,0.063,0.427,0.909,-2.9,3.2,0.27,2,1
17117.578,0.058,0.416,0.905,-3.11,3.08,0.37,2,1
17117.593,0.051,0.404,0.901,-2.81,2.59,-0.06,2,1
17117.593,0.052,0.399,0.902,-1.89,2.08,-0.79,2,1
17117.609,0.045,0.399,0.899,-0.89,1.37,-1.53,2,1
17117.625,0.042,0.401,0.897,-0.46,0.7,-2.01,2,1
17117.625,0.035,0.408,0.896,-0.34,-0.37,-2.17,2,1
17117.64,0.037,0.412,0.891,-0.82,-2.11,-2.08,2,1
17117.656,0.042,0.415,0.88,-1.25,-3.2,-1.5,2,1
17117.656,0.044,0.419,0.876,-1.16,-3.48,-0.43,2,1
17117.671,0.044,0.423,0.886,-0.92,-3.33,0.85,2,1
17117.671,0.042,0.427,0.889,-1.25,-2.96,1.89,2,1
17117.687,0.043,0.417,0.882,-2.53,-3.02,2.59,2,1
17117.703,0.058,0.415,0.849,-5.98,-2.47,2.66,2,1
17117.718,0.085,0.423,0.852,-10.99,1.19,2.14,2,1
17117.718,0.072,0.433,0.908,-14.16,6.35,2.53,2,1
17117.734,0.047,0.431,0.931,-15.59,7.75,4.46,2,1
17117.734,0.044,0.417,0.931,-18.71,6.56,5.86,2,1
17117.75,0.043,0.394,0.931,-22.86,4.33,4.88,2,1
17117.765,0.044,0.366,0.927,-24.38,2.35,3.02,2,1
17117.781,0.058,0.347,0.91,-21.55,2.84,0.61,2,1
17117.781,0.006,0.364,0.948,-13.76,4.3,-2.14,2,1
17117.796,0.008,0.369,0.932,-3.08,2.56,-2.78,2,1
17117.796,0.025,0.412,0.917,2.5,0.89,-3.42,2,1
17117.812,0.037,0.42,0.921,6.13,0.67,-2.75,2,1
17117.812,0.036,0.414,0.927,8.3,1.65,-0.98,2,1
17117.828,0.041,0.412,0.924,8.7,2.01,1.04,2,1
17117.843,0.056,0.397,0.932,7.93,2.23,2.69,2,1
17117.843,0.066,0.391,0.94,5.92,2.9,2.66,2,1
17117.859,0.074,0.389,0.958,2.84,4.58,2.26,2,1
17117.875,0.068,0.386,0.974,0.18,6.26,1.34,2,1
17117.875,0.054,0.378,0.981,-0.92,6.62,0.15,2,1
17117.89,0.049,0.373,0.976,-0.27,5.49,-1.59,2,1
17117.906,0.043,0.36,0.965,3.69,3.54,-4.0,2,1
17117.906,0.033,0.348,0.955,10.5,1.19,-6.78,2,1
17117.921,0.003,0.367,0.964,18.68,-1.71,-9.25,2,1
17117.921,0.039,0.364,0.905,25.03,-6.35,-11.26,2,1
17117.937,0.004,0.415,0.934,26.31,-8.24,-13.98,2,1
17117.953,-0.017,0.415,0.952,30.27,-13.49,-13.67,2,1
17117.968,-0.013,0.42,0.942,31.86,-21.12,-12.48,2,1
17117.968,-0.018,0.444,0.939,29.39,-29.15,-11.29,2,1
17117.984,-0.0,0.455,0.935,25.7,-36.71,-9.13,2,1
17117.984,0.0,0.474,0.937,21.97,-43.58,-7.08,2,1
17118.0,-0.067,0.524,0.98,21.61,-50.97,-3.11,2,1
17118.015,-0.008,0.568,0.938,27.16,-61.56,9.19,2,1
17118.015,0.083,0.548,0.868,17.94,-69.95,15.9,2,1
17118.031,0.131,0.515,0.845,-0.67,-74.8,12.05,2,1
17118.046,0.207,0.46,0.788,-13.58,-74.07,8.94,2,1
17118.062,0.259,0.42,0.747,-21.24,-64.91,3.05,2,1
17118.062,0.262,0.382,0.75,-22.28,-50.2,-3.69,2,1
17118.078,0.235,0.362,0.764,-15.53,-34.58,-7.72,2,1
17118.078,0.213,0.371,0.773,-4.7,-20.57,-8.85,2,1
17118.093,0.206,0.391,0.776,5.07,-9.03,-9.22,2,1
17118.109,0.189,0.412,0.772,9.28,-0.12,-11.9,2,1
17118.109,0.175,0.428,0.776,7.57,6.59,-15.47,2,1
17118.125,0.157,0.43,0.78,5.55,12.63,-17.58,2,1
17118.125,0.123,0.413,0.769,7.35,19.07,-16.75,2,1
17118.14,0.092,0.41,0.755,12.51,25.88,-13.58,2,1
17118.156,0.073,0.428,0.743,16.42,32.56,-9.58,2,1
17118.156,0.064,0.444,0.722,14.34,38.54,-6.81,2,1
17118.171,0.06,0.428,0.71,7.54,44.28,-6.01,2,1
17118.187,0.061,0.408,0.708,-0.67,51.06,-7.08,2,1
17118.187,0.046,0.396,0.721,-7.72,58.53,-10.41,2,1
17118.203,0.029,0.375,0.74,-14.47,65.43,-15.93,2,1
17118.203,-0.006,0.377,0.819,-21.21,71.69,-22.31,2,1
17118.218,-0.095,0.372,0.933,-20.75,73.37,-27.8,2,1
17118.234,-0.178,0.384,1.055,-10.74,65.92,-27.5,2,1
17118.25,-0.391,0.524,1.266,3.39,47.27,-20.39,2,1
17118.25,-0.274,0.559,1.362,23.93,12.85,2.32,2,1
17118.265,0.001,0.577,1.031,21.49,-19.14,11.29,2,1
17118.265,0.021,0.64,0.934,-1.46,-21.42,4.82,2,1
17118.281,0.013,0.533,0.943,-7.17,-14.37,2.53,2,1
17118.296,-0.023,0.5,0.903,-3.14,-7.84,4.43,2,1
17118.296,-0.052,0.5,0.913,-2.11,-5.37,4.7,2,1
17118.312,-0.059,0.48,0.958,0.64,-7.54,5.46,2,1
17118.312,-0.052,0.473,0.948,9.19,-11.2,8.33,2,1
17118.328,-0.021,0.473,0.911,17.61,-14.04,11.78,2,1
17118.343,0.006,0.471,0.866,23.68,-13.61,13.89,2,1
17118.359,0.029,0.483,0.824,26.8,-10.22,15.56,2,1
17118.359,0.054,0.49,0.788,25.57,-5.31,16.14,2,1
17118.375,0.057,0.482,0.788,10.96,3.57,15.59,2,1
17118.375,0.052,0.47,0.816,3.3,4.09,15.93,2,1
17118.39,0.055,0.451,0.843,-2.75,2.72,16.33,2,1
17118.406,0.101,0.399,0.876,-6.81,1.22,15.29,2,1
17118.406,0.127,0.383,0.887,-7.6,0.06,11.99,2,1
17118.421,0.144,0.375,0.892,-5.28,-0.46,7.08,2,1
17118.421,0.158,0.369,0.899,-0.95,-0.27,1.53,2,1
17118.437,0.164,0.386,0.905,3.08,0.27,-3.72,2,1
17118.453,0.162,0.409,0.902,6.44,0.79,-7.66,2,1
17118.453,0.155,0.432,0.897,7.2,1.01,-9.7,2,1
17118.468,0.151,0.452,0.901,5.1,0.43,-10.13,2,1
17118.484,0.144,0.461,0.89,2.87,-0.15,-9.13,2,1
17118.484,0.14,0.459,0.881,0.46,0.24,-6.93,2,1
17118.5,0.131,0.451,0.887,-1.62,1.07,-5.37,2,1
17118.515,0.11,0.446,0.893,-3.17,0.37,-5.07,2,1
17118.515,0.099,0.444,0.901,-3.78,-1.89,-4.91,2,1
17118.531,0.099,0.441,0.886,-3.72,-4.46,-4.7,2,1
17118.546,0.095,0.435,0.867,-3.6,-6.04,-4.94,2,1
17118.546,0.109,0.424,0.843,-3.88,-6.01,-5.22,2,1
17118.562,0.103,0.424,0.857,-5.46,-4.67,-6.78,2,1
17118.562,0.086,0.42,0.863,-5.8,-3.88,-7.97,2,1
17118.578,0.089,0.43,0.87,-6.74,-3.81,-8.39,2,1
17118.593,0.086,0.443,0.881,-7.02,-3.39,-9.06,2,1
17118.593,0.066,0.454,0.899,-5.74,-3.27,-9.31,2,1
17118.609,0.06,0.459,0.901,-3.81,-3.91,-8.39,2,1
17118.625,0.057,0.472,0.898,-2.14,-4.52,-6.5,2,1
17118.625,0.056,0.477,0.893,-0.61,-4.73,-4.58,2,1
17118.64,0.048,0.482,0.891,-0.03,-4.43,-3.23,2,1
17118.656,0.035,0.482,0.886,-0.31,-4.46,-2.2,2,1
17118.656,0.035,0.478,0.879,-1.62,-5.04,-1.37,2,1
17118.671,0.032,0.476,0.877,-2.78,-5.46,-1.68,2,1
17118.687,0.025,0.461,0.871,-2.23,-5.4,-2.29,2,1
17118.687,0.021,0.457,0.872,-0.67,-5.07,-3.11,2,1
17118.703,0.016,0.465,0.878,1.22,-4.55,-4.39,2,1
17118.703,0.009,0.468,0.876,3.42,-3.94,-5.49,2,1
17118.718,0.005,0.478,0.876,4.94,-3.66,-6.04,2,1
17118.734,0.002,0.489,0.874,5.86,-3.36,-5.62,2,1
17118.734,0.005,0.488,0.864,5.71,-3.14,-4.36,2,1
17118.75,0.005,0.489,0.86,3.08,-3.11,-2.81,2,1
17118.765,0.003,0.485,0.866,-0.18,-2.96,-1.77,2,1
17118.781,0.002,0.474,0.867,-1.95,-2.84,-0.58,2,1
17118.781,0.0,0.466,0.871,-2.87,-2.35,1.19,2,1
17118.796,0.001,0.455,0.875,-3.39,-1.92,2.53,2,1
17118.796,0.007,0.444,0.876,-3.78,-1.77,2.78,2,1
17118.812,0.014,0.433,0.877,-3.85,-1.83,2.04,2,1
17118.812,0.019,0.432,0.883,-2.87,-1.46,0.85,2,1
17118.828,0.023,0.435,0.887,-0.79,-1.01,-0.24,2,1
17118.843,0.027,0.438,0.887,1.31,-0.12,-0.95,2,1
17118.843,0.029,0.446,0.889,2.17,0.7,-1.37,2,1
17118.859,0.027,0.453,0.887,1.83,0.98,-1.37,2,1
17118.875,0.034,0.456,0.88,0.06,0.64,-1.04,2,1
17118.875,0.043,0.458,0.881,-2.23,0.73,-0.67,2,1
17118.89,0.042,0.46,0.892,-3.78,1.28,-0.46,2,1
17118.906,0.044,0.464,0.895,-4.88,1.34,-0.15,2,1
17118.906,0.047,0.463,0.886,-6.38,1.04,0.09,2,1
17118.921,0.056,0.464,0.877,-9.16,1.13,-0.03,2,1
17118.921,0.068,0.464,0.875,-11.93,2.5,-0.12,2,1
17118.937,0.061,0.449,0.877,-13.76,4.82,-0.7,2,1
17118.953,0.052,0.438,0.86,-16.82,5.89,-3.63,2,1
17118.953,0.073,0.45,0.915,-23.19,4.82,-7.42,2,1
17118.968,0.072,0.458,0.955,-27.89,2.47,-9.22,2,1
17118.984,0.069,0.452,0.932,-32.5,-0.34,-10.25,2,1
17118.984,0.028,0.473,0.946,-34.55,-0.98,-12.24,2,1
17119.0,0.04,0.444,0.9,-29.66,-1.34,-11.87,2,1
17119.015,0.046,0.454,0.848,-24.84,1.28,-11.17,2,1
17119.015,0.034,0.463,0.84,-20.33,6.44,-9.37,2,1
17119.031,0.025,0.464,0.854,-18.22,10.5,-6.32,2,1
17119.046,0.03,0.474,0.862,-20.84,13.43,-3.08,2,1
17119.046,0.043,0.474,0.891,-27.99,17.58,-0.46,2,1
17119.062,0.049,0.449,0.95,-34.85,22.25,1.43,2,1
17119.078,0.05,0.438,0.999,-40.04,26.58,1.92,2,1
17119.078,0.047,0.43,1.042,-42.45,30.49,0.06,2,1
17119.093,0.0,0.372,1.08,-36.59,32.17,-5.25,2,1
17119.093,-0.073,0.334,1.126,-19.23,26.61,-11.35,2,1
17119.109,-0.085,0.285,1.041,9.52,13.31,-15.84,2,1
17119.125,-0.063,0.279,0.928,32.11,2.29,-22.77,2,1
17119.125,-0.136,0.355,0.929,49.41,-3.97,-29.18,2,1
17119.14,-0.172,0.433,0.925,62.69,-13.4,-26.15,2,1
17119.156,-0.086,0.564,0.829,64.3,-22.58,-10.93,2,1
17119.156,0.01,0.627,0.749,45.2,-25.12,7.69,2,1
17119.171,0.036,0.583,0.751,17.98,-21.58,21.67,2,1
17119.171,0.049,0.501,0.762,-2.11,-16.14,33.51,2,1
17119.187,0.082,0.417,0.766,-11.44,-10.04,41.6,2,1
17119.203,0.113,0.345,0.771,-11.93,-2.23,43.61,2,1
17119.218,0.127,0.298,0.782,-5.92,6.9,40.47,2,1
17119.218,0.121,0.269,0.783,2.9,15.5,33.23,2,1
17119.234,0.101,0.256,0.787,10.41,22.43,23.8,2,1
17119.234,0.062,0.264,0.807,16.72,26.95,13.67,2,1
17119.25,0.025,0.277,0.833,21.36,27.38,4.82,2,1
17119.265,0.011,0.305,0.858,23.13,23.74,-2.08,2,1
17119.265,0.001,0.348,0.876,22.43,19.59,-6.29,2,1
17119.281,-0.01,0.386,0.885,19.41,15.29,-7.17,2,1
17119.296,-0.004,0.412,0.901,15.08,11.72,-6.29,2,1
17119.296,-0.006,0.433,0.919,10.22,9.37,-4.58,2,1
17119.312,-0.006,0.44,0.939,5.55,7.51,-2.93,2,1
17119.312,-0.006,0.445,0.962,3.02,6.04,-1.62,2,1
17119.328,-0.011,0.442,0.969,3.17,4.58,-1.16,2,1
17119.343,-0.01,0.432,0.973,4.21,3.27,-1.74,2,1
17119.343,-0.008,0.427,0.961,9.16,2.78,-4.82,2,1
17119.359,-0.0,0.426,0.932,10.16,4.79,-6.71,2,1
17119.375,-0.004,0.418,0.904,9.83,7.75,-8.94,2,1
17119.375,-0.014,0.403,0.898,8.91,10.1,-11.63,2,1
17119.39,-0.043,0.402,0.897,6.99,10.19,-14.77,2,1
17119.406,-0.063,0.397,0.908,5.74,9.4,-17.61,2,1
17119.406,-0.073,0.397,0.923,5.98,7.78,-19.38,2,1
17119.421,-0.072,0.407,0.928,6.65,5.16,-20.91,2,1
17119.437,-0.094,0.423,0.933,6.78,2.47,-22.43,2,1
17119.437,-0.122,0.462,0.964,8.55,-0.43,-20.84,2,1
17119.453,-0.081,0.488,0.957,11.63,-4.36,-14.25,2,1
17119.453,-0.07,0.504,0.916,7.84,-7.35,-11.05,2,1
17119.468,-0.067,0.491,0.912,-0.73,-8.94,-10.32,2,1
17119.484,-0.055,0.459,0.905,-7.11,-9.89,-9.8,2,1
17119.5,-0.049,0.437,0.892,-9.8,-10.1,-10.04,2,1
17119.5,-0.046,0.417,0.884,-10.41,-9.98,-10.93,2,1
17119.515,-0.047,0.409,0.889,-8.91,-9.4,-12.05,2,1
17119.515,-0.047,0.405,0.888,-5.28,-8.15,-13.15,2,1
17119.531,-0.047,0.413,0.884,-1.74,-7.6,-13.46,2,1
17119.546,-0.042,0.422,0.889,1.01,-7.35,-13.67,2,1
17119.546,-0.039,0.437,0.882,2.69,-7.2,-14.47,2,1
17119.562,-0.041,0.456,0.877,2.29,-7.69,-14.68,2,1
17119.562,-0.031,0.462,0.877,0.89,-8.18,-14.16,2,1
17119.578,-0.028,0.466,0.872,-0.58,-8.06,-13.43,2,1
17119.593,-0.027,0.47,0.87,-2.35,-7.54,-12.63,2,1
17119.609,-0.032,0.464,0.872,-4.73,-7.63,-12.12,2,1
17119.609,-0.029,0.456,0.874,-7.02,-8.36,-12.12,2,1
17119.625,-0.022,0.451,0.875,-7.97,-9.16,-12.57,2,1
17119.625,-0.017,0.445,0.874,-7.48,-9.77,-13.31,2,1
17119.64,-0.011,0.444,0.873,-5.77,-9.86,-14.1,2,1
17119.656,-0.012,0.449,0.875,-3.36,-9.52,-14.5,2,1
17119.656,-0.011,0.453,0.873,-1.43,-9.19,-14.5,2,1
17119.671,-0.007,0.46,0.87,-0.49,-8.88,-14.44,2,1
17119.671,-0.002,0.471,0.871,-0.76,-8.15,-14.1,2,1
17119.687,0.001,0.478,0.871,-1.34,-7.45,-13.4,2,1
17119.703,0.003,0.479,0.871,-2.01,-6.74,-12.36,2,1
17119.718,0.004,0.476,0.876,-2.41,-6.07,-11.41,2,1
17119.718,0.003,0.471,0.882,-2.01,-5.43,-10.47,2,1
17119.734,0.004,0.468,0.884,-1.56,-4.94,-9.46,2,1
17119.734,0.002,0.462,0.886,-1.16,-4.79,-8.79,2,1
17119.75,0.001,0.451,0.889,-0.67,-4.64,-8.73,2,1
17119.765,-0.005,0.446,0.892,-0.12,-4.58,-8.88,2,1
17119.765,-0.014,0.448,0.899,0.67,-4.79,-9.83,2,1
17119.781,-0.016,0.452,0.899,0.98,-5.86,-11.14,2,1
17119.781,-0.015,0.452,0.891,1.46,-6.9,-12.09,2,1
17119.796,-0.013,0.448,0.881,2.23,-6.87,-12.48,2,1
17119.812,-0.011,0.446,0.873,3.3,-6.1,-12.36,2,1
17119.812,-0.012,0.448,0.869,4.36,-4.82,-12.12,2,1
17119.828,-0.017,0.449,0.869,5.1,-3.33,-11.54,2,1
17119.843,-0.025,0.445,0.877,5.25,-2.53,-10.83,2,1
17119.843,-0.029,0.452,0.882,4.76,-2.44,-10.41,2,1
17119.859,-0.031,0.46,0.877,4.15,-2.72,-9.77,2,1
17119.875,-0.032,0.459,0.877,3.27,-2.9,-8.88,2,1
17119.875,-0.032,0.461,0.881,2.17,-2.72,-8.36,2,1
17119.89,-0.031,0.46,0.872,1.83,-2.84,-7.57,2,1
17119.906,-0.026,0.458,0.872,1.92,-2.78,-6.78,2,1
17119.906,-0.024,0.458,0.881,2.32,-2.87,-6.81,2,1
17119.921,-0.02,0.463,0.893,3.45,-3.23,-7.66,2,1
17119.921,-0.018,0.469,0.91,6.2,-3.72,-8.67,2,1
17119.937,-0.019,0.472,0.926,10.19,-4.58,-9.49,2,1
17119.953,-0.026,0.483,0.943,15.81,-5.04,-10.35,2,1
17119.953,-0.041,0.491,0.952,22.1,-5.62,-11.87,2,1
17119.968,-0.055,0.493,0.96,28.08,-7.84,-14.16,2,1
17119.984,-0.068,0.503,0.942,33.94,-10.9,-17.64,2,1
17119.984,-0.086,0.509,1.036,36.29,-16.05,-22.92,2,1
17120.0,-0.082,0.515,1.025,43.92,-25.39,-26.12,2,1
17120.015,-0.064,0.567,0.952,48.31,-33.08,-26.18,2,1
17120.015,-0.058,0.554,0.929,49.75,-37.17,-27.34,2,1
17120.031,-0.042,0.547,0.89,48.68,-40.44,-28.53,2,1
17120.046,-0.025,0.549,0.84,44.71,-42.51,-30.12,2,1
17120.046,-0.016,0.528,0.815,40.41,-41.99,-32.07,2,1
17120.062,-0.019,0.511,0.801,37.57,-40.44,-32.9,2,1
17120.062,-0.014,0.498,0.789,36.35,-38.97,-33.63,2,1
17120.078,-0.01,0.489,0.788,35.98,-37.23,-35.04,2,1
17120.093,-0.009,0.493,0.794,35.65,-35.95,-36.96,2,1
17120.093,-0.004,0.492,0.797,36.19,-34.79,-39.58,2,1
17120.109,-0.003,0.491,0.8,36.9,-33.75,-43.03,2,1
17120.125,-0.01,0.505,0.822,37.9,-33.48,-46.91,2,1
17120.14,-0.02,0.515,0.836,40.1,-33.91,-50.45,2,1
17120.14,-0.023,0.544,0.844,42.66,-35.37,-52.43,2,1
17120.156,-0.018,0.568,0.837,45.96,-37.11,-53.04,2,1
17120.156,-0.018,0.58,0.824,47.88,-38.61,-53.9,2,1
17120.171,-0.019,0.597,0.813,47.73,-39.64,-54.35,2,1
17120.171,-0.025,0.611,0.802,47.3,-40.68,-54.6,2,1
17120.187,-0.029,0.625,0.787,46.45,-41.57,-54.48,2,1
17120.203,-0.03,0.641,0.779,45.44,-41.93,-54.69,2,1
17120.218,-0.03,0.663,0.779,44.83,-41.47,-55.36,2,1
17120.218,-0.028,0.688,0.779,45.08,-40.01,-55.88,2,1
17120.234,-0.029,0.711,0.778,46.11,-37.23,-55.18,2,1
17120.234,-0.033,0.735,0.776,47.27,-33.54,-53.35,2,1
17120.25,-0.043,0.756,0.778,47.3,-29.42,-50.39,2,1
17120.265,-0.05,0.773,0.778,45.72,-25.7,-46.51,2,1
17120.265,-0.058,0.788,0.778,42.09,-22.46,-41.66,2,1
17120.281,-0.063,0.784,0.779,36.9,-19.96,-36.32,2,1
17120.296,-0.064,0.773,0.785,31.56,-17.94,-30.67,2,1
17120.296,-0.062,0.754,0.793,27.53,-16.3,-25.24,2,1
17120.312,-0.06,0.727,0.8,25.45,-14.65,-21.03,2,1
17120.312,-0.057,0.702,0.797,25.39,-13.31,-17.91,2,1
17120.328,-0.047,0.686,0.787,26.73,-11.2,-15.29,2,1
17120.343,-0.032,0.68,0.771,26.92,-8.58,-15.08,2,1
17120.343,-0.022,0.683,0.763,26.25,-5.01,-14.01,2,1
17120.359,-0.02,0.704,0.763,24.6,-1.22,-11.81,2,1
17120.375,-0.034,0.722,0.779,21.97,2.29,-8.73,2,1
17120.39,-0.048,0.72,0.797,19.07,4.36,-4.97,2,1
17120.39,-0.053,0.712,0.807,16.11,4.94,-1.28,2,1
17120.406,-0.054,0.7,0.809,13.43,4.64,2.14,2,1
17120.406,-0.056,0.679,0.807,11.35,3.94,5.31,2,1
17120.421,-0.06,0.663,0.807,9.22,3.27,7.69,2,1
17120.437,-0.062,0.647,0.805,7.32,1.77,9.34,2,1
17120.437,-0.056,0.63,0.795,5.8,-0.18,10.35,2,1
17120.453,-0.046,0.618,0.781,5.16,-1.22,11.32,2,1
17120.453,-0.042,0.606,0.763,4.61,-1.22,12.18,2,1
17120.468,-0.04,0.592,0.747,3.6,-0.43,12.91,2,1
17120.484,-0.042,0.575,0.733,2.69,0.64,13.79,2,1
17120.484,-0.047,0.556,0.72,1.65,1.68,14.62,2,1
17120.5,-0.054,0.531,0.702,0.43,2.11,15.41,2,1
17120.515,-0.055,0.504,0.681,-1.07,1.34,16.17,2,1
17120.515,-0.051,0.484,0.66,-3.17,0.27,16.21,2,1
17120.531,-0.049,0.461,0.637,-5.95,-1.01,15.05,2,1
17120.546,-0.039,0.438,0.62,-8.91,-2.14,13.0,2,1
17120.546,-0.023,0.427,0.604,-11.08,-2.08,9.98,2,1
17120.562,-0.024,0.418,0.596,-12.15,-0.67,5.98,2,1
17120.562,-0.031,0.421,0.601,-12.39,1.07,2.01,2,1
17120.578,-0.029,0.435,0.606,-12.33,1.74,-1.71,2,1
17120.593,-0.025,0.451,0.603,-12.39,2.41,-5.31,2,1
17120.593,-0.019,0.468,0.602,-12.63,3.69,-8.48,2,1
17120.609,-0.017,0.489,0.608,-13.49,5.25,-11.54,2,1
17120.625,-0.025,0.508,0.624,-13.79,7.08,-14.1,2,1
17120.625,-0.034,0.526,0.638,-13.73,8.24,-15.96,2,1
17120.64,-0.037,0.55,0.652,-14.01,8.45,-17.43,2,1
17120.656,-0.039,0.576,0.669,-14.71,8.09,-18.98,2,1
17120.656,-0.034,0.599,0.681,-15.72,7.57,-20.72,2,1
17120.671,-0.035,0.618,0.69,-16.14,7.48,-22.37,2,1
17120.671,-0.044,0.642,0.696,-15.14,7.69,-24.14,2,1
17120.687,-0.049,0.664,0.701,-12.7,8.15,-26.06,2,1
17120.703,-0.055,0.688,0.708,-9.09,9.03,-27.53,2,1
17120.718,-0.063,0.721,0.712,-5.04,10.25,-28.2,2,1
17120.718,-0.071,0.754,0.714,-2.38,10.56,-28.05,2,1
17120.734,-0.079,0.778,0.72,-1.8,9.95,-26.86,2,1
17120.734,-0.087,0.788,0.719,-2.14,8.97,-24.35,2,1
17120.75,-0.087,0.788,0.716,-2.59,7.84,-20.69,2,1
17120.765,-0.081,0.789,0.712,-3.2,7.05,-16.45,2,1
17120.781,-0.072,0.791,0.708,-4.61,7.11,-12.45,2,1
17120.781,-0.07,0.784,0.708,-6.65,7.45,-9.09,2,1
17120.796,-0.067,0.771,0.716,-8.7,8.12,-6.1,2,1
17120.796,-0.063,0.756,0.729,-9.34,9.34,-4.03,2,1
17120.812,-0.066,0.742,0.741,-8.55,10.41,-2.84,2,1
17120.812,-0.07,0.728,0.749,-6.56,10.65,-2.26,2,1
17120.828,-0.072,0.713,0.754,-3.66,10.28,-2.17,2,1
17120.843,-0.072,0.701,0.751,-0.58,9.55,-2.44,2,1
17120.843,-0.067,0.691,0.741,2.41,9.13,-3.39,2,1
17120.859,-0.065,0.687,0.73,5.22,9.09,-4.88,2,1
17120.875,-0.067,0.678,0.722,8.24,9.77,-6.53,2,1
17120.875,-0.08,0.669,0.715,10.96,10.5,-8.76,2,1
17120.89,-0.088,0.681,0.719,12.09,10.07,-11.05,2,1
17120.906,-0.088,0.701,0.718,11.29,8.64,-13.46,2,1
17120.906,-0.092,0.695,0.71,9.77,6.93,-15.69,2,1
17120.921,-0.096,0.68,0.697,8.39,5.71,-17.21,2,1
17120.937,-0.094,0.677,0.691,8.09,4.67,-17.91,2,1
17120.937,-0.092,0.669,0.675,9.34,4.0,-18.59,2,1
17120.953,-0.096,0.659,0.659,10.96,3.6,-19.41,2,1
17120.953,-0.096,0.653,0.648,12.73,3.6,-20.02,2,1
17120.968,-0.096,0.653,0.636,15.08,4.61,-20.54,2,1
17120.984,-0.095,0.657,0.619,16.66,6.32,-20.51,2,1
17120.984,-0.093,0.658,0.608,17.06,8.51,-19.93,2,1
17121.0,-0.095,0.664,0.601,16.97,11.41,-19.14,2,1
17121.015,-0.099,0.668,0.595,16.33,14.77,-18.04,2,1
17121.015,-0.115,0.666,0.596,15.32,18.01,-16.85,2,1
17121.031,-0.14,0.656,0.604,13.73,19.93,-15.96,2,1
17121.046,-0.165,0.647,0.619,10.83,19.47,-15.59,2,1
17121.046,-0.182,0.644,0.64,7.42,16.05,-15.23,2,1
17121.062,-0.182,0.647,0.642,3.63,11.02,-14.92,2,1
17121.062,-0.171,0.652,0.64,0.27,7.42,-14.01,2,1
17121.078,-0.149,0.657,0.636,-1.92,6.23,-12.21,2,1
17121.093,-0.126,0.669,0.62,-2.04,7.57,-9.92,2,1
17121.093,-0.118,0.672,0.605,-1.8,11.35,-7.9,2,1
17121.109,-0.12,0.662,0.593,-3.08,15.66,-6.68,2,1
17121.125,-0.122,0.642,0.585,-4.67,19.99,-6.1,2,1
17121.125,-0.127,0.616,0.581,-5.1,24.63,-5.98,2,1
17121.14,-0.143,0.582,0.581,-4.03,28.66,-7.26,2,1
17121.156,-0.168,0.554,0.599,-0.58,31.25,-9.8,2,1
17121.156,-0.178,0.534,0.622,5.74,31.59,-13.58,2,1
17121.171,-0.186,0.573,0.633,12.39,32.35,-18.22,2,1
17121.171,-0.202,0.634,0.642,14.28,33.3,-22.46,2,1
17121.203,-0.21,0.652,0.65,11.69,32.32,-25.76,2,1
17121.203,-0.219,0.674,0.657,7.29,31.56,-26.43,2,1
17121.203,-0.229,0.697,0.661,2.29,31.5,-24.45,2,1
17121.218,-0.244,0.678,0.669,-3.72,31.28,-20.84,2,1
17121.234,-0.25,0.651,0.652,-10.96,31.25,-15.9,2,1
17121.234,-0.227,0.649,0.637,-16.51,32.59,-9.98,2,1
17121.25,-0.224,0.611,0.626,-19.29,36.38,-6.38,2,1
17121.265,-0.231,0.554,0.621,-20.11,41.23,-5.8,2,1
17121.265,-0.228,0.516,0.629,-18.07,46.02,-7.66,2,1
17121.281,-0.23,0.473,0.642,-12.12,50.05,-13.06,2,1
17121.296,-0.229,0.427,0.663,-0.92,53.68,-21.85,2,1
17121.296,-0.268,0.463,0.663,13.64,57.65,-32.01,2,1
17121.312,-0.287,0.537,0.658,24.29,58.93,-40.07,2,1
17121.328,-0.306,0.574,0.651,26.98,55.09,-48.86,2,1
17121.328,-0.335,0.608,0.644,22.89,51.42,-47.7,2,1
17121.343,-0.328,0.642,0.637,18.37,48.37,-46.21,2,1
17121.343,-0.327,0.601,0.595,13.25,46.42,-42.73,2,1
17121.359,-0.319,0.561,0.58,10.04,45.99,-40.31,2,1
17121.375,-0.315,0.505,0.558,10.96,47.43,-40.01,2,1
17121.375,-0.305,0.469,0.539,15.78,50.94,-41.66,2,1
17121.39,-0.302,0.44,0.52,24.05,56.86,-45.2,2,1
17121.406,-0.309,0.416,0.503,34.12,64.61,-50.08,2,1
17121.406,-0.329,0.41,0.494,45.17,73.12,-55.54,2,1
17121.421,-0.359,0.406,0.494,56.95,80.78,-61.95,2,1
17121.437,-0.396,0.408,0.505,68.79,85.88,-68.64,2,1
17121.437,-0.433,0.424,0.523,80.87,88.08,-74.83,2,1
17121.453,-0.462,0.427,0.53,93.54,86.03,-80.84,2,1
17121.453,-0.474,0.442,0.522,105.35,81.48,-86.25,2,1
17121.468,-0.481,0.476,0.498,114.44,76.39,-92.65,2,1
17121.484,-0.488,0.488,0.461,120.58,70.86,-99.92,2,1
17121.484,-0.495,0.487,0.418,123.51,66.04,-105.81,2,1
17121.5,-0.497,0.496,0.377,123.6,63.33,-109.59,2,1
17121.515,-0.496,0.522,0.348,121.31,64.09,-112.25,2,1
17121.515,-0.513,0.568,0.326,117.5,67.75,-115.76,2,1
17121.531,-0.532,0.593,0.316,113.1,72.76,-119.75,2,1
17121.546,-0.571,0.633,0.326,110.11,78.37,-123.72,2,1
17121.546,-0.623,0.648,0.342,111.0,82.43,-125.0,2,1
17121.562,-0.658,0.694,0.349,116.61,83.96,-125.06,2,1
17121.578,-0.713,0.722,0.356,125.43,82.46,-124.27,2,1
17121.578,-0.749,0.753,0.354,134.4,77.46,-120.06,2,1
17121.593,-0.755,0.775,0.338,143.1,70.47,-111.79,2,1
17121.609,-0.754,0.803,0.311,149.45,63.57,-100.99,2,1
17121.609,-0.756,0.846,0.282,150.88,57.41,-89.94,2,1
17121.625,-0.791,0.917,0.25,143.99,51.45,-78.13,2,1
17121.625,-0.824,1.033,0.196,122.17,44.53,-60.46,2,1
17121.64,-0.838,1.118,0.149,82.43,35.16,-37.39,2,1
17121.656,-0.847,1.135,0.136,31.71,25.27,-13.37,2,1
17121.656,-0.877,1.104,0.121,-22.58,12.33,9.06,2,1
17121.671,-0.834,0.991,0.158,-73.95,9.13,32.41,2,1
17121.687,-0.85,0.944,0.182,-114.02,3.17,50.51,2,1
17121.687,-0.83,0.853,0.219,-138.25,-1.13,62.56,2,1
17121.703,-0.85,0.752,0.245,-148.29,-6.2,68.88,2,1
17121.718,-0.821,0.683,0.278,-146.03,-9.13,71.9,2,1
17121.718,-0.8,0.64,0.29,-133.52,-9.37,71.17,2,1
17121.734,-0.778,0.635,0.303,-116.64,-5.74,69.06,2,1
17121.734,-0.789,0.694,0.289,-101.17,-4.79,66.5,2,1
17121.75,-0.781,0.733,0.268,-93.2,-6.68,64.82,2,1
17121.765,-0.758,0.742,0.254,-92.68,-7.93,64.76,2,1
17121.765,-0.741,0.752,0.244,-96.62,-7.66,65.83,2,1
17121.781,-0.738,0.75,0.239,-102.21,-8.24,66.59,2,1
17121.796,-0.732,0.719,0.235,-106.91,-9.46,67.26,2,1
17121.796,-0.721,0.685,0.238,-108.28,-9.8,66.93,2,1
17121.812,-0.707,0.664,0.233,-105.38,-8.79,65.25,2,1
17121.812,-0.702,0.669,0.219,-100.74,-6.78,64.27,2,1
17121.828,-0.684,0.683,0.199,-97.87,-4.21,64.67,2,1
17121.843,-0.668,0.685,0.186,-98.27,-0.85,65.74,2,1
17121.859,-0.658,0.684,0.18,-101.44,3.66,67.11,2,1
17121.859,-0.655,0.682,0.183,-106.33,8.94,68.64,2,1
17121.875,-0.657,0.678,0.194,-112.19,14.19,70.41,2,1
17121.89,-0.679,0.673,0.213,-118.02,19.29,72.12,2,1
17121.89,-0.701,0.66,0.246,-121.95,24.29,73.95,2,1
17121.906,-0.717,0.639,0.28,-122.9,28.78,75.62,2,1
17121.906,-0.728,0.63,0.31,-120.98,32.26,75.81,2,1
17121.921,-0.736,0.609,0.347,-115.51,34.76,75.05,2,1
17121.937,-0.736,0.594,0.379,-106.42,36.47,74.83,2,1
17121.937,-0.734,0.596,0.407,-95.49,38.0,74.34,2,1
17121.953,-0.73,0.598,0.425,-84.57,39.22,74.31,2,1
17121.968,-0.736,0.608,0.441,-75.93,39.31,74.01,2,1
17121.968,-0.749,0.619,0.469,-69.83,37.23,74.95,2,1
17121.984,-0.742,0.595,0.521,-64.82,32.81,77.15,2,1
17121.984,-0.788,0.59,0.514,-59.76,25.57,78.8,2,1
17122.0,-0.774,0.642,0.54,-61.46,13.89,82.8,2,1
17122.015,-0.767,0.607,0.573,-62.93,0.03,84.48,2,1
17122.015,-0.773,0.563,0.608,-64.49,-13.95,86.61,2,1
17122.031,-0.761,0.534,0.644,-64.49,-29.33,88.32,2,1
17122.046,-0.724,0.497,0.684,-60.73,-46.39,87.44,2,1
17122.046,-0.666,0.48,0.708,-52.86,-64.7,83.44,2,1
17122.062,-0.593,0.472,0.735,-44.1,-79.99,76.82,2,1
17122.062,-0.475,0.489,0.765,-34.42,-85.3,70.86,2,1
17122.078,-0.402,0.561,0.775,-27.71,-82.67,61.22,2,1
17122.093,-0.358,0.555,0.752,-24.38,-73.06,52.52,2,1
17122.093,-0.316,0.566,0.753,-24.02,-60.61,46.94,2,1
17122.109,-0.3,0.582,0.777,-23.22,-47.73,44.59,2,1
17122.125,-0.179,0.583,0.881,-27.07,-35.4,48.83,2,1
17122.125,-0.068,0.533,1.096,-40.31,-23.22,48.74,2,1
17122.14,-0.028,0.452,1.314,-51.82,-9.58,41.9,2,1
17122.156,-0.079,0.397,1.392,-51.27,1.62,29.91,2,1
17122.156,-0.266,0.419,1.255,-33.33,1.8,20.63,2,1
17122.171,-0.423,0.422,1.0,-7.93,-15.2,21.24,2,1
17122.187,-0.448,0.425,0.859,10.44,-43.12,29.66,2,1
17122.187,-0.401,0.532,0.757,31.25,-67.32,34.94,2,1
17122.203,-0.369,0.612,0.611,47.94,-83.1,26.92,2,1
17122.203,-0.424,0.682,0.457,46.02,-88.47,15.29,2,1
17122.218,-0.488,0.797,0.39,28.63,-84.38,6.41,2,1
17122.234,-0.553,0.911,0.412,7.23,-73.76,-0.4,2,1
17122.25,-0.64,0.97,0.461,-10.41,-60.09,-0.98,2,1
17122.25,-0.708,1.003,0.521,-22.19,-50.84,5.65,2,1
17122.265,-0.765,1.027,0.593,-26.49,-44.86,17.76,2,1
17122.265,-0.775,1.005,0.631,-24.99,-45.17,33.3,2,1
17122.281,-0.745,0.951,0.649,-24.96,-54.02,48.25,2,1
17122.296,-0.667,0.908,0.632,-25.82,-66.07,62.44,2,1
17122.296,-0.559,0.887,0.641,-27.38,-81.12,71.41,2,1
17122.312,-0.484,0.876,0.662,-27.38,-83.93,69.73,2,1
17122.328,-0.33,0.84,0.692,-25.82,-79.9,68.73,2,1
17122.328,-0.2,0.884,0.74,-35.49,-68.18,75.5,2,1
17122.343,-0.179,0.984,0.851,-59.08,-59.94,84.41,2,1
17122.343,-0.275,0.758,0.926,-80.87,-48.43,104.71,2,1
17122.359,-0.323,0.591,0.949,-97.45,-42.6,129.73,2,1
17122.375,-0.259,0.478,0.967,-110.93,-38.0,146.43,2,1
17122.375,-0.221,0.4,1.006,-123.57,-27.07,146.28,2,1
17122.39,-0.206,0.325,1.113,-132.02,-10.13,130.38,2,1
17122.406,-0.231,0.238,1.313,-129.43,9.52,103.31,2,1
17122.406,-0.354,0.171,1.496,-114.6,18.92,71.05,2,1
17122.421,-0.478,0.161,1.592,-90.12,4.97,36.26,2,1
17122.437,-0.489,0.192,1.615,-59.6,-26.67,5.25,2,1
17122.437,-0.371,0.259,1.546,-30.46,-67.66,-18.13,2,1
17122.453,-0.18,0.37,1.408,-8.09,-106.91,-35.4,2,1
17122.453,0.039,0.485,1.264,7.35,-130.25,-43.15,2,1
17122.468,0.221,0.573,1.133,12.24,-134.77,-39.4,2,1
17122.484,0.35,0.615,1.046,1.46,-125.03,-25.73,2,1
17122.484,0.419,0.559,1.015,-18.37,-106.23,-6.41,2,1
17122.5,0.412,0.464,1.024,-39.77,-86.92,11.6,2,1
17122.515,0.372,0.375,1.051,-58.96,-73.0,24.17,2,1
17122.531,0.339,0.3,1.088,-75.01,-65.86,30.67,2,1
17122.531,0.295,0.242,1.123,-85.48,-63.54,31.98,2,1
17122.546,0.224,0.216,1.121,-87.8,-65.1,29.18,2,1
17122.546,0.14,0.2,1.098,-83.1,-69.34,22.1,2,1
17122.562,0.054,0.169,1.052,-74.01,-75.41,12.7,2,1
17122.578,-0.018,0.143,0.987,-61.95,-82.58,3.23,2,1
17122.578,-0.08,0.157,0.908,-49.5,-88.35,-6.56,2,1
17122.593,-0.12,0.182,0.825,-39.4,-92.62,-17.52,2,1
17122.609,-0.146,0.211,0.742,-33.75,-95.61,-29.21,2,1
17122.609,-0.155,0.259,0.672,-31.59,-94.42,-41.08,2,1
17122.625,-0.174,0.298,0.61,-30.95,-89.11,-53.53,2,1
17122.625,-0.204,0.325,0.565,-30.37,-83.96,-66.19,2,1
17122.64,-0.209,0.356,0.548,-27.68,-79.38,-76.6,2,1
17122.656,-0.221,0.365,0.519,-21.61,-74.65,-81.73,2,1
17122.656,-0.209,0.375,0.481,-14.74,-70.96,-81.06,2,1
17122.671,-0.169,0.405,0.451,-8.21,-67.02,-80.14,2,1
17122.687,-0.139,0.392,0.429,-3.17,-62.04,-78.37,2,1
17122.687,-0.107,0.392,0.431,0.37,-55.24,-75.72,2,1
17122.703,-0.078,0.393,0.431,5.22,-47.64,-74.74,2,1
17122.703,-0.049,0.377,0.436,11.02,-40.16,-75.17,2,1
17122.718,-0.001,0.376,0.446,17.94,-32.47,-76.6,2,1
17122.734,0.039,0.4,0.453,27.01,-24.26,-80.23,2,1
17122.734,0.052,0.417,0.468,36.59,-15.17,-84.14,2,1
17122.75,0.057,0.419,0.495,43.98,-6.59,-83.65,2,1
17122.765,0.076,0.431,0.527,49.87,1.62,-77.52,2,1
17122.781,0.094,0.442,0.549,54.66,8.73,-69.8,2,1
17122.781,0.107,0.459,0.555,56.03,13.7,-61.92,2,1
17122.796,0.102,0.484,0.563,51.39,15.56,-55.76,2,1
17122.796,0.087,0.491,0.572,41.9,13.61,-53.41,2,1
17122.812,0.081,0.496,0.584,29.51,8.73,-54.2,2,1
17122.828,0.071,0.497,0.595,16.69,2.9,-57.5,2,1
17122.828,0.052,0.483,0.605,5.37,-3.3,-61.86,2,1
17122.843,0.033,0.471,0.61,-2.9,-10.47,-66.26,2,1
17122.843,0.017,0.47,0.61,-6.38,-17.79,-70.5,2,1
17122.859,0.02,0.462,0.6,-4.76,-23.47,-73.76,2,1
17122.875,0.026,0.454,0.588,0.76,-25.7,-74.92,2,1
17122.875,0.017,0.454,0.569,10.22,-24.96,-75.62,2,1
17122.89,0.026,0.455,0.545,21.45,-23.29,-76.78,2,1
17122.906,0.046,0.474,0.516,33.08,-20.51,-78.95,2,1
17122.906,0.044,0.501,0.491,43.52,-16.45,-82.09,2,1
17122.921,0.027,0.539,0.465,50.84,-11.81,-85.57,2,1
17122.937,0.009,0.592,0.447,53.83,-6.99,-88.35,2,1
17122.937,0.004,0.654,0.435,51.06,-1.68,-89.36,2,1
17122.953,-0.014,0.7,0.432,42.51,3.69,-88.56,2,1
17122.968,-0.039,0.724,0.44,30.82,8.12,-87.04,2,1
17122.968,-0.051,0.732,0.455,18.77,11.11,-84.26,2,1
17122.984,-0.048,0.721,0.47,8.58,13.21,-80.57,2,1
17123.0,-0.047,0.697,0.484,2.35,15.02,-78.1,2,1
17123.0,-0.041,0.675,0.492,-0.09,16.91,-77.79,2,1
17123.015,-0.019,0.672,0.492,0.92,19.17,-79.32,2,1
17123.015,-0.009,0.687,0.489,4.33,22.49,-81.21,2,1
17123.031,-0.02,0.707,0.485,8.33,27.19,-81.91,2,1
17123.046,-0.031,0.725,0.485,11.84,32.53,-81.18,2,1
17123.046,-0.043,0.744,0.49,14.31,38.45,-79.53,2,1
17123.062,-0.067,0.764,0.501,15.66,44.95,-76.85,2,1
17123.078,-0.083,0.762,0.523,16.39,50.66,-72.66,2,1
17123.078,-0.088,0.744,0.538,17.37,55.02,-68.24,2,1
17123.093,-0.093,0.735,0.549,19.41,58.29,-65.25,2,1
17123.093,-0.097,0.731,0.555,21.73,60.27,-64.24,2,1
17123.109,-0.107,0.732,0.555,23.44,61.89,-64.52,2,1
17123.125,-0.117,0.738,0.554,23.8,63.39,-65.22,2,1
17123.125,-0.12,0.754,0.551,22.28,64.97,-65.77,2,1
17123.14,-0.123,0.772,0.558,18.83,67.78,-65.89,2,1
17123.156,-0.127,0.791,0.57,13.31,72.54,-65.03,2,1
17123.156,-0.138,0.809,0.589,6.13,78.52,-63.88,2,1
17123.171,-0.153,0.83,0.615,-1.68,84.96,-63.11,2,1
17123.171,-0.179,0.848,0.649,-9.16,91.34,-62.35,2,1
17123.187,-0.202,0.862,0.687,-15.69,96.71,-59.97,2,1
17123.203,-0.221,0.868,0.724,-20.6,101.02,-56.0,2,1
17123.203,-0.247,0.862,0.762,-23.59,103.21,-51.52,2,1
17123.218,-0.262,0.854,0.787,-24.87,102.94,-46.57,2,1
17123.234,-0.276,0.838,0.807,-24.63,101.41,-41.11,2,1
17123.25,-0.281,0.803,0.818,-23.32,98.61,-37.05,2,1
17123.25,-0.287,0.758,0.836,-21.85,94.15,-35.83,2,1
17123.265,-0.304,0.713,0.859,-22.03,86.49,-40.07,2,1
17123.265,-0.335,0.691,0.894,-26.12,72.7,-50.97,2,1
17123.281,-0.37,0.708,0.921,-45.44,35.16,-71.93,2,1
17123.296,-0.404,0.746,0.922,-59.05,19.5,-72.18,2,1
17123.296,-0.419,0.776,0.906,-74.8,9.83,-64.36,2,1
17123.312,-0.412,0.78,0.886,-88.47,6.53,-53.96,2,1
17123.328,-0.395,0.681,0.874,-96.53,7.63,-44.8,2,1
17123.328,-0.391,0.6,0.892,-96.22,10.53,-38.64,2,1
17123.343,-0.396,0.524,0.913,-86.52,13.76,-36.01,2,1
17123.343,-0.403,0.474,0.928,-69.15,17.0,-36.44,2,1
17123.359,-0.416,0.458,0.943,-47.7,20.91,-38.15,2,1
17123.375,-0.433,0.459,0.953,-24.6,24.38,-39.28,2,1
17123.375,-0.44,0.487,0.953,-1.95,29.88,-39.77,2,1
17123.39,-0.461,0.53,0.95,16.72,36.32,-39.52,2,1
17123.406,-0.483,0.549,0.951,28.87,40.19,-38.3,2,1
17123.406,-0.493,0.558,0.955,35.25,42.39,-35.43,2,1
17123.421,-0.501,0.582,0.957,38.79,43.21,-31.43,2,1
17123.437,-0.501,0.592,0.961,39.86,43.55,-27.1,2,1
17123.437,-0.511,0.59,0.96,37.87,42.18,-23.32,2,1
17123.453,-0.518,0.585,0.957,34.18,38.21,-20.75,2,1
17123.453,-0.525,0.572,0.951,29.91,33.08,-18.49,2,1
17123.468,-0.532,0.555,0.94,25.73,27.44,-15.84,2,1
17123.484,-0.531,0.538,0.93,22.37,22.49,-12.48,2,1
17123.484,-0.526,0.53,0.923,20.11,19.1,-9.19,2,1
17123.5,-0.524,0.519,0.917,18.49,17.24,-7.32,2,1
17123.515,-0.527,0.506,0.914,17.3,16.05,-7.11,2,1
17123.515,-0.533,0.503,0.914,17.58,15.23,-7.2,2,1
17123.531,-0.541,0.511,0.922,19.2,14.68,-6.5,2,1
17123.546,-0.548,0.522,0.93,21.61,14.31,-5.13,2,1
17123.546,-0.552,0.526,0.938,24.14,13.28,-3.54,2,1
17123.562,-0.561,0.531,0.945,26.49,11.17,-1.56,2,1
17123.578,-0.569,0.54,0.943,28.17,8.39,0.52,2,1
17123.578,-0.574,0.541,0.935,28.75,4.7,2.62,2,1
17123.593,-0.575,0.534,0.929,28.08,0.06,4.64,2,1
17123.593,-0.573,0.531,0.921,26.18,-5.04,5.83,2,1
17123.609,-0.566,0.534,0.91,23.22,-10.1,6.29,2,1
17123.625,-0.558,0.537,0.898,19.17,-14.07,6.68,2,1
17123.64,-0.555,0.535,0.887,14.92,-16.82,7.54,2,1
17123.64,-0.554,0.524,0.878,11.17,-19.41,8.79,2,1
17123.656,-0.548,0.514,0.87,9.0,-22.28,9.74,2,1
17123.656,-0.542,0.51,0.861,8.97,-24.93,10.56,2,1
17123.671,-0.534,0.502,0.853,10.59,-27.34,11.26,2,1
17123.687,-0.525,0.5,0.838,13.34,-29.91,12.05,2,1
17123.687,-0.515,0.507,0.822,16.42,-31.8,12.48,2,1
17123.703,-0.517,0.515,0.81,19.17,-33.02,13.31,2,1
17123.703,-0.519,0.514,0.799,21.15,-34.88,14.68,2,1
17123.718,-0.511,0.521,0.79,22.1,-38.06,15.35,2,1
17123.734,-0.505,0.535,0.774,22.0,-41.41,15.08,2,1
17123.734,-0.503,0.542,0.754,21.18,-44.1,14.71,2,1
17123.75,-0.502,0.546,0.738,19.78,-46.14,14.98,2,1
17123.765,-0.495,0.554,0.725,18.52,-47.79,15.81,2,1
17123.765,-0.488,0.566,0.715,17.7,-48.92,17.03,2,1
17123.781,-0.487,0.566,0.704,17.49,-49.75,18.71,2,1
17123.796,-0.486,0.565,0.698,18.31,-50.9,20.69,2,1
17123.796,-0.478,0.562,0.692,19.84,-52.64,22.74,2,1
17123.812,-0.473,0.559,0.685,21.55,-54.45,24.35,2,1
17123.812,-0.468,0.555,0.682,23.35,-56.64,25.06,2,1
17123.828,-0.467,0.555,0.677,25.06,-59.02,25.21,2,1
17123.843,-0.464,0.556,0.667,26.12,-61.83,25.03,2,1
17123.843,-0.453,0.559,0.653,26.7,-64.58,24.26,2,1
17123.859,-0.444,0.571,0.645,26.8,-65.98,23.32,2,1
17123.875,-0.436,0.577,0.63,26.46,-66.13,22.98,2,1
17123.89,-0.427,0.585,0.626,25.57,-64.55,23.59,2,1
17123.89,-0.422,0.593,0.633,24.81,-62.38,24.02,2,1
17123.906,-0.418,0.606,0.634,23.71,-60.43,24.2,2,1
17123.906,-0.416,0.618,0.642,22.58,-58.17,24.72,2,1
17123.921,-0.409,0.615,0.646,22.16,-56.37,25.48,2,1
17123.937,-0.401,0.617,0.653,22.25,-54.81,26.64,2,1
17123.937,-0.394,0.614,0.653,22.89,-53.53,27.8,2,1
17123.953,-0.384,0.602,0.645,23.8,-52.1,28.96,2,1
17123.968,-0.381,0.595,0.638,24.45,-50.29,29.39,2,1
17123.968,-0.38,0.583,0.627,24.57,-48.43,29.36,2,1
17123.984,-0.371,0.575,0.616,24.02,-45.81,29.51,2,1
17123.984,-0.368,0.573,0.603,22.55,-41.69,30.0,2,1
17124.0,-0.366,0.558,0.592,20.42,-37.57,30.95,2,1
17124.015,-0.361,0.55,0.588,17.76,-33.75,31.74,2,1
17124.015,-0.361,0.551,0.586,14.68,-29.76,32.2,2,1
17124.031,-0.367,0.54,0.588,11.69,-25.94,32.72,2,1
17124.046,-0.371,0.54,0.602,8.51,-22.92,33.94,2,1
17124.046,-0.369,0.553,0.621,4.97,-20.81,34.58,2,1
17124.062,-0.369,0.555,0.637,1.86,-19.35,34.64,2,1
17124.062,-0.373,0.557,0.659,-0.76,-17.52,34.67,2,1
17124.078,-0.374,0.559,0.682,-2.56,-16.51,34.55,2,1
17124.093,-0.37,0.562,0.7,-4.06,-15.96,33.75,2,1
17124.093,-0.368,0.572,0.711,-5.74,-14.95,32.69,2,1
17124.109,-0.368,0.574,0.726,-7.39,-13.61,31.8,2,1
17124.125,-0.364,0.564,0.742,-9.16,-12.21,31.86,2,1
17124.14,-0.355,0.548,0.755,-10.68,-11.38,32.2,2,1
17124.14,-0.342,0.533,0.769,-11.81,-11.57,31.62,2,1
17124.156,-0.328,0.525,0.78,-12.57,-12.33,29.91,2,1
17124.156,-0.317,0.514,0.786,-12.67,-13.79,27.99,2,1
17124.171,-0.302,0.502,0.794,-12.09,-15.93,26.43,2,1
17124.171,-0.285,0.503,0.802,-10.44,-19.01,24.75,2,1
17124.187,-0.265,0.504,0.797,-7.87,-22.28,22.58,2,1
17124.203,-0.247,0.505,0.789,-4.61,-24.45,20.17,2,1
17124.203,-0.234,0.51,0.78,-0.79,-25.57,17.21,2,1
17124.218,-0.226,0.514,0.771,3.54,-26.64,14.28,2,1
17124.234,-0.214,0.52,0.755,8.48,-27.92,11.47,2,1
17124.234,-0.196,0.535,0.731,13.03,-29.54,9.06,2,1
17124.25,-0.173,0.555,0.706,15.84,-30.55,6.78,2,1
17124.265,-0.161,0.569,0.689,17.03,-30.88,4.36,2,1
17124.281,-0.153,0.595,0.68,19.23,-31.37,4.06,2,1
17124.281,-0.139,0.619,0.677,21.27,-30.98,6.38,2,1
17124.296,-0.117,0.644,0.674,23.01,-30.09,8.55,2,1
17124.296,-0.07,0.684,0.677,24.96,-29.27,9.95,2,1
17124.312,-0.043,0.702,0.673,26.92,-27.59,10.59,2,1
17124.328,-0.023,0.717,0.671,29.08,-25.09,10.62,2,1
17124.328,-0.004,0.732,0.669,30.7,-22.37,11.35,2,1
17124.343,0.018,0.762,0.669,30.4,-19.47,13.4,2,1
17124.359,0.041,0.797,0.668,27.34,-16.69,15.59,2,1
17124.359,0.062,0.829,0.667,20.97,-13.95,18.16,2,1
17124.375,0.073,0.868,0.677,10.9,-10.56,21.58,2,1
17124.375,0.079,0.9,0.699,-1.4,-7.11,25.61,2,1
17124.39,0.072,0.914,0.729,-13.43,-4.55,30.27,2,1
17124.406,0.071,0.925,0.756,-23.68,-3.11,35.89,2,1
17124.406,0.072,0.934,0.787,-31.8,-2.66,41.02,2,1
17124.421,0.074,0.911,0.813,-35.65,-3.05,45.11,2,1
17124.437,0.079,0.887,0.837,-34.21,-3.6,48.46,2,1
17124.437,0.078,0.865,0.85,-27.65,-3.94,51.12,2,1
17124.453,0.075,0.853,0.855,-17.94,-4.33,53.47,2,1
17124.453,0.08,0.864,0.856,-8.21,-4.3,55.12,2,1
17124.468,0.081,0.879,0.85,-0.03,-3.57,55.27,2,1
17124.484,0.063,0.9,0.84,5.4,-2.38,55.73,2,1
17124.484,0.044,0.899,0.823,8.24,-1.65,58.35,2,1
17124.5,0.041,0.871,0.801,9.19,-1.46,63.2,2,1
17124.515,0.044,0.854,0.784,8.33,-1.59,68.27,2,1
17124.515,0.046,0.834,0.763,6.41,-2.38,71.9,2,1
17124.531,0.05,0.795,0.748,3.88,-4.03,74.62,2,1
17124.546,0.048,0.765,0.739,0.89,-5.98,76.45,2,1
17124.546,0.047,0.769,0.739,-2.96,-7.97,77.24,2,1
17124.562,0.036,0.789,0.741,-7.93,-10.01,76.82,2,1
17124.578,0.015,0.79,0.752,-13.82,-13.28,76.39,2,1
17124.578,-0.011,0.778,0.758,-18.59,-17.67,78.07,2,1
17124.593,-0.018,0.752,0.753,-21.27,-23.13,81.88,2,1
17124.609,-0.009,0.715,0.746,-21.73,-28.35,85.09,2,1
17124.609,-0.001,0.688,0.74,-20.57,-32.01,85.82,2,1
17124.625,0.009,0.652,0.728,-17.03,-34.42,84.35,2,1
17124.625,0.012,0.617,0.715,-11.14,-35.62,83.13,2,1
17124.64,0.017,0.593,0.7,-3.72,-36.07,82.06,2,1
17124.656,0.024,0.573,0.685,4.43,-36.35,81.0,2,1
17124.656,0.03,0.57,0.668,11.9,-36.13,80.02,2,1
17124.671,0.034,0.569,0.654,17.94,-35.46,78.59,2,1
17124.687,0.028,0.569,0.644,22.4,-35.07,77.52,2,1
17124.687,0.022,0.582,0.631,24.96,-35.46,77.27,2,1
17124.703,0.028,0.582,0.612,25.39,-36.26,77.21,2,1
17124.703,0.039,0.57,0.594,23.29,-37.35,76.3,2,1
17124.718,0.052,0.558,0.57,20.45,-37.72,74.13,2,1
17124.734,0.066,0.544,0.559,17.4,-36.47,71.32,2,1
17124.734,0.072,0.523,0.556,14.92,-34.27,67.84,2,1
17124.75,0.073,0.501,0.551,13.0,-31.92,64.09,2,1
17124.765,0.074,0.475,0.546,12.57,-29.85,60.64,2,1
17124.765,0.083,0.45,0.538,13.12,-28.26,57.01,2,1
17124.781,0.097,0.435,0.532,13.76,-26.86,52.49,2,1
17124.796,0.115,0.431,0.525,14.31,-24.93,46.57,2,1
17124.796,0.123,0.437,0.523,14.77,-22.19,39.52,2,1
17124.812,0.127,0.45,0.527,15.08,-19.14,33.08,2,1
17124.812,0.146,0.465,0.534,14.62,-16.02,27.86,2,1
17124.828,0.169,0.475,0.538,13.18,-12.82,23.41,2,1
17124.843,0.192,0.481,0.541,11.23,-9.43,18.92,2,1
17124.843,0.21,0.484,0.553,9.46,-6.81,14.62,2,1
17124.859,0.226,0.482,0.567,8.91,-5.13,11.66,2,1
17124.875,0.25,0.487,0.572,9.28,-4.12,9.16,2,1
17124.875,0.278,0.485,0.577,10.16,-3.69,5.62,2,1
17124.89,0.304,0.48,0.584,11.72,-2.99,1.16,2,1
17124.906,0.327,0.496,0.586,13.52,-0.95,-3.54,2,1
17124.906,0.345,0.509,0.593,14.34,2.23,-8.33,2,1
17124.921,0.347,0.526,0.607,13.98,6.04,-12.54,2,1
17124.921,0.343,0.547,0.623,12.88,9.31,-15.84,2,1
17124.937,0.341,0.581,0.643,10.96,12.3,-18.65,2,1
17124.953,0.343,0.636,0.663,7.87,15.59,-22.19,2,1
17124.953,0.31,0.705,0.697,3.17,18.59,-26.58,2,1
17124.968,0.251,0.732,0.735,-1.25,19.07,-26.83,2,1
17124.984,0.272,0.807,0.769,-5.16,15.99,-24.38,2,1
17124.984,0.238,0.785,0.78,-9.16,14.13,-17.73,2,1
17125.0,0.263,0.767,0.794,-13.82,10.28,-10.38,2,1
17125.015,0.298,0.763,0.792,-14.01,6.71,-6.99,2,1
17125.015,0.309,0.707,0.775,-13.25,3.42,-6.56,2,1
17125.031,0.336,0.665,0.765,-12.36,0.67,-5.52,2,1
17125.046,0.359,0.65,0.751,-9.46,-0.55,-5.98,2,1
17125.046,0.367,0.62,0.739,-6.5,-0.4,-6.32,2,1
17125.062,0.378,0.61,0.73,-4.49,0.31,-5.65,2,1
17125.078,0.381,0.621,0.725,-2.99,1.53,-5.46,2,1
17125.078,0.386,0.624,0.73,-3.91,2.44,-4.15,2,1
17125.093,0.386,0.631,0.738,-7.26,3.57,-2.47,2,1
17125.093,0.389,0.632,0.744,-11.99,4.46,-0.85,2,1
17125.109,0.384,0.648,0.757,-17.67,4.91,-0.76,2,1
17125.125,0.372,0.644,0.764,-23.99,4.21,-1.34,2,1
17125.14,0.369,0.635,0.781,-30.4,2.44,-0.82,2,1
17125.14,0.361,0.631,0.797,-35.25,0.15,-0.09,2,1
17125.156,0.367,0.614,0.807,-39.03,-2.59,0.95,2,1
17125.156,0.373,0.598,0.817,-41.6,-5.37,1.31,2,1
17125.171,0.382,0.579,0.819,-42.76,-8.03,0.31,2,1
17125.187,0.38,0.557,0.814,-41.99,-10.22,-1.43,2,1
17125.187,0.387,0.545,0.808,-39.67,-12.24,-2.93,2,1
17125.203,0.397,0.545,0.802,-36.84,-13.06,-4.24,2,1
17125.203,0.402,0.54,0.79,-34.09,-13.0,-5.8,2,1
17125.218,0.398,0.532,0.785,-31.43,-12.63,-6.99,2,1
17125.234,0.401,0.533,0.777,-28.72,-12.45,-7.42,2,1
17125.234,0.394,0.537,0.768,-26.4,-12.57,-7.87,2,1
17125.25,0.394,0.544,0.763,-23.32,-14.19,-7.42,2,1
17125.265,0.388,0.552,0.758,-22.68,-15.93,-7.45,2,1
17125.265,0.392,0.571,0.755,-21.97,-17.91,-7.63,2,1
17125.281,0.388,0.583,0.749,-21.42,-20.23,-7.29,2,1
17125.296,0.395,0.594,0.728,-20.39,-22.64,-6.32,2,1
17125.296,0.411,0.599,0.711,-18.59,-24.87,-5.49,2,1
17125.312,0.428,0.6,0.686,-16.17,-26.15,-5.1,2,1
17125.328,0.446,0.616,0.666,-13.76,-26.03,-5.4,2,1
17125.328,0.45,0.632,0.651,-11.93,-24.75,-5.8,2,1
17125.343,0.461,0.647,0.635,-10.44,-23.62,-5.37,2,1
17125.343,0.476,0.668,0.62,-8.64,-22.64,-4.03,2,1
17125.359,0.495,0.691,0.606,-6.81,-21.39,-2.5,2,1
17125.375,0.505,0.708,0.592,-5.31,-19.29,-0.31,2,1
17125.39,0.511,0.727,0.582,-4.55,-16.97,2.41,2,1
17125.39,0.519,0.747,0.575,-4.12,-14.68,5.95,2,1
17125.406,0.53,0.761,0.568,-3.91,-12.09,10.25,2,1
17125.406,0.536,0.773,0.569,-4.12,-8.48,14.92,2,1
17125.421,0.524,0.787,0.571,-5.1,-4.88,19.04,2,1
17125.437,0.517,0.781,0.575,-6.41,-1.98,24.23,2,1
17125.437,0.501,0.77,0.584,-7.54,0.0,29.97,2,1
17125.453,0.488,0.751,0.587,-7.97,1.28,35.74,2,1
17125.453,0.487,0.724,0.591,-7.66,2.38,41.08,2,1
17125.468,0.483,0.683,0.589,-6.65,3.39,45.01,2,1
17125.484,0.477,0.642,0.589,-4.55,4.39,48.07,2,1
17125.5,0.474,0.604,0.587,-1.77,5.34,50.26,2,1
17125.5,0.472,0.567,0.579,1.19,6.47,51.45,2,1
17125.515,0.467,0.537,0.57,3.88,7.81,52.06,2,1
17125.515,0.461,0.509,0.559,5.92,9.61,52.1,2,1
17125.531,0.458,0.489,0.551,6.56,12.02,51.7,2,1
17125.546,0.45,0.466,0.548,5.89,15.63,50.69,2,1
17125.562,0.437,0.453,0.552,3.88,20.02,49.23,2,1
17125.562,0.425,0.45,0.571,0.58,25.15,47.85,2,1
17125.562,0.404,0.452,0.599,-3.63,30.37,46.39,2,1
17125.578,0.374,0.462,0.637,-8.55,34.91,45.35,2,1
17125.593,0.341,0.465,0.678,-13.95,37.32,45.41,2,1
17125.593,0.317,0.455,0.717,-18.8,37.6,46.39,2,1
17125.609,0.297,0.444,0.754,-21.79,35.77,46.82,2,1
17125.625,0.282,0.425,0.776,-22.22,32.04,46.36,2,1
17125.64,0.277,0.416,0.789,-20.91,28.35,44.86,2,1
17125.64,0.268,0.4,0.796,-18.01,25.61,42.48,2,1
17125.656,0.258,0.389,0.807,-14.1,23.93,39.92,2,1
17125.656,0.246,0.387,0.816,-9.95,22.86,37.51,2,1
17125.671,0.236,0.382,0.826,-5.71,21.67,35.71,2,1
17125.687,0.23,0.378,0.824,-1.59,20.14,33.97,2,1
17125.687,0.22,0.384,0.825,1.5,18.86,31.74,2,1
17125.703,0.209,0.401,0.83,2.81,17.98,29.02,2,1
17125.703,0.196,0.404,0.833,2.41,17.4,26.28,2,1
17125.718,0.189,0.411,0.838,1.16,16.75,23.96,2,1
17125.734,0.186,0.416,0.842,-0.21,15.78,22.34,2,1
17125.734,0.186,0.418,0.851,-1.46,14.53,20.69,2,1
17125.75,0.187,0.409,0.85,-1.31,12.91,19.14,2,1
17125.765,0.197,0.384,0.84,0.27,11.72,17.67,2,1
17125.781,0.207,0.377,0.842,1.92,11.29,15.75,2,1
17125.781,0.21,0.391,0.845,3.75,11.51,13.86,2,1
17125.796,0.22,0.398,0.849,5.37,11.44,12.42,2,1
17125.796,0.235,0.401,0.852,6.38,11.26,10.93,2,1
17125.812,0.253,0.406,0.846,6.96,11.23,9.25,2,1
17125.828,0.261,0.42,0.83,7.66,12.09,6.84,2,1
17125.828,0.258,0.438,0.836,8.55,14.13,5.62,2,1
17125.843,0.258,0.453,0.856,9.58,15.2,6.44,2,1
17125.843,0.267,0.471,0.844,8.88,13.86,6.99,2,1
17125.859,0.27,0.485,0.853,6.84,13.09,7.54,2,1
17125.875,0.276,0.48,0.874,5.4,10.93,7.54,2,1
17125.89,0.28,0.47,0.866,4.46,7.08,6.65,2,1
17125.89,0.29,0.476,0.849,2.72,3.02,5.68,2,1
17125.906,0.312,0.466,0.83,2.84,0.06,4.91,2,1
17125.906,0.332,0.454,0.818,3.3,-1.16,2.81,2,1
17125.921,0.352,0.443,0.793,4.12,-0.09,-0.18,2,1
17125.937,0.358,0.458,0.758,5.19,3.66,-3.02,2,1
17125.937,0.363,0.471,0.751,6.93,9.8,-5.19,2,1
17125.953,0.351,0.477,0.749,8.79,16.72,-6.32,2,1
17125.953,0.332,0.491,0.769,10.19,22.49,-6.1,2,1
17125.968,0.324,0.501,0.773,10.9,26.09,-5.28,2,1
17125.984,0.312,0.513,0.793,8.67,26.67,-4.61,2,1
17125.984,0.311,0.515,0.808,5.04,24.54,-3.6,2,1
17126.0,0.326,0.521,0.806,-1.1,21.45,-2.75,2,1
17126.015,0.328,0.519,0.812,-9.4,18.74,-2.56,2,1
17126.015,0.331,0.516,0.817,-18.92,16.57,-2.72,2,1
17126.031,0.335,0.512,0.822,-28.63,15.69,-2.59,2,1
17126.046,0.334,0.486,0.834,-36.38,16.24,-2.9,2,1
17126.046,0.311,0.475,0.921,-40.68,17.33,-3.33,2,1
17126.062,0.264,0.456,1.055,-32.75,14.16,-0.15,2,1
17126.062,0.326,0.417,1.029,-16.85,3.97,4.09,2,1
17126.078,0.373,0.443,0.95,-7.26,-2.9,1.56,2,1
17126.093,0.36,0.431,0.915,-1.62,-2.69,-2.72,2,1
17126.093,0.358,0.412,0.879,3.97,0.15,-4.64,2,1
17126.109,0.365,0.433,0.85,7.51,3.85,-4.79,2,1
17126.125,0.345,0.446,0.832,4.24,5.31,-5.77,2,1
17126.125,0.338,0.463,0.831,-5.19,4.0,-6.87,2,1
17126.14,0.334,0.462,0.827,-15.96,1.74,-7.97,2,1
17126.156,0.325,0.438,0.828,-26.06,-1.4,-9.06,2,1
17126.156,0.329,0.411,0.83,-33.02,-4.06,-9.34,2,1
17126.171,0.343,0.389,0.833,-35.25,-5.4,-9.52,2,1
17126.187,0.35,0.366,0.847,-32.2,-4.85,-10.41,2,1
17126.187,0.344,0.356,0.859,-24.78,-3.33,-11.26,2,1
17126.203,0.338,0.357,0.871,-15.02,-2.14,-11.35,2,1
17126.203,0.333,0.367,0.875,-5.16,-1.71,-11.47,2,1
17126.218,0.328,0.386,0.866,2.11,-2.2,-11.38,2,1
17126.234,0.333,0.408,0.849,5.55,-3.33,-11.14,2,1
17126.234,0.334,0.424,0.833,0.12,-7.32,-12.05,2,1
17126.25,0.338,0.442,0.821,-5.46,-8.79,-12.48,2,1
17126.265,0.339,0.452,0.814,-9.55,-9.43,-12.6,2,1
17126.265,0.335,0.436,0.818,-10.9,-9.7,-11.63,2,1
17126.281,0.335,0.429,0.821,-8.7,-9.86,-9.92,2,1
17126.296,0.341,0.421,0.815,-3.17,-9.55,-8.03,2,1
17126.296,0.343,0.424,0.806,2.72,-8.39,-6.53,2,1
17126.312,0.349,0.431,0.796,7.26,-7.39,-5.31,2,1
17126.312,0.355,0.437,0.79,9.8,-6.9,-5.16,2,1
17126.328,0.352,0.447,0.792,10.19,-6.96,-5.74,2,1
17126.343,0.348,0.459,0.793,9.22,-7.26,-6.23,2,1
17126.343,0.343,0.47,0.802,7.48,-7.78,-6.13,2,1
17126.359,0.34,0.477,0.812,6.2,-8.61,-5.58,2,1
17126.375,0.334,0.485,0.815,5.74,-9.46,-4.73,2,1
17126.375,0.339,0.497,0.814,6.01,-9.61,-3.39,2,1
17126.39,0.346,0.499,0.812,6.53,-9.0,-2.26,2,1
17126.406,0.348,0.501,0.808,6.65,-8.7,-1.46,2,1
17126.406,0.355,0.503,0.8,5.98,-8.55,-0.76,2,1
17126.421,0.37,0.5,0.794,5.19,-8.39,-0.18,2,1
17126.437,0.37,0.493,0.787,4.7,-7.75,-0.4,2,1
17126.437,0.359,0.492,0.785,3.88,-7.08,-0.52,2,1
17126.453,0.355,0.497,0.786,3.54,-6.59,0.03,2,1
17126.453,0.347,0.495,0.796,3.6,-5.46,0.64,2,1
17126.468,0.33,0.497,0.812,3.85,-4.49,1.95,2,1
17126.484,0.322,0.492,0.825,4.21,-4.49,3.63,2,1
17126.484,0.313,0.489,0.845,5.1,-4.82,5.46,2,1
17126.5,0.292,0.494,0.866,7.93,-4.7,8.09,2,1
17126.515,0.278,0.486,0.881,13.12,-5.86,11.72,2,1
17126.515,0.272,0.477,0.896,20.36,-10.71,14.77,2,1
17126.531,0.26,0.489,0.921,28.11,-20.51,16.51,2,1
17126.546,0.258,0.486,0.894,36.99,-32.96,17.91,2,1
17126.546,0.317,0.484,0.882,43.82,-42.45,20.97,2,1
17126.562,0.351,0.472,0.852,47.76,-48.34,20.29,2,1
17126.562,0.378,0.474,0.815,48.92,-49.5,18.1,2,1
17126.578,0.407,0.47,0.782,48.62,-45.81,16.33,2,1
17126.593,0.417,0.456,0.756,47.85,-38.91,13.79,2,1
17126.593,0.411,0.443,0.74,46.66,-31.1,10.65,2,1
17126.609,0.413,0.447,0.74,44.89,-24.69,7.69,2,1
17126.625,0.407,0.448,0.741,44.68,-20.75,4.82,2,1
17126.625,0.39,0.463,0.744,44.65,-18.62,1.89,2,1
17126.64,0.377,0.487,0.749,44.34,-17.94,0.09,2,1
17126.656,0.375,0.506,0.754,43.89,-18.04,-0.55,2,1
17126.656,0.38,0.505,0.747,43.76,-17.76,-1.07,2,1
17126.671,0.383,0.503,0.726,44.16,-16.82,-2.32,2,1
17126.687,0.385,0.528,0.719,43.4,-14.71,-4.0,2,1
17126.687,0.376,0.55,0.725,42.21,-12.36,-5.83,2,1
17126.703,0.367,0.56,0.728,40.96,-10.38,-6.47,2,1
17126.718,0.362,0.57,0.73,39.86,-9.03,-5.98,2,1
17126.718,0.362,0.588,0.741,39.61,-8.09,-5.52,2,1
17126.734,0.357,0.601,0.75,40.13,-7.32,-4.85,2,1
17126.75,0.352,0.604,0.754,41.41,-7.23,-3.75,2,1
17126.75,0.347,0.614,0.756,43.12,-7.39,-1.77,2,1
17126.765,0.35,0.627,0.753,44.86,-7.45,1.04,2,1
17126.765,0.359,0.633,0.746,46.3,-7.14,3.02,2,1
17126.781,0.365,0.638,0.741,47.33,-5.55,3.39,2,1
17126.796,0.37,0.644,0.732,48.22,-3.11,2.75,2,1
17126.796,0.373,0.648,0.722,48.8,0.46,1.74,2,1
17126.812,0.373,0.648,0.713,49.47,4.15,0.73,2,1
17126.812,0.37,0.652,0.701,50.48,7.6,-0.27,2,1
17126.828,0.369,0.649,0.685,51.39,11.08,-1.4,2,1
17126.843,0.371,0.628,0.659,53.93,14.86,-2.44,2,1
17126.859,0.371,0.617,0.649,57.62,18.65,-2.66,2,1
17126.859,0.365,0.604,0.619,62.04,21.21,-2.38,2,1
17126.875,0.379,0.609,0.595,63.63,23.44,-2.2,2,1
17126.875,0.392,0.607,0.571,62.59,26.49,-3.72,2,1
17126.89,0.391,0.581,0.553,59.91,29.88,-5.92,2,1
17126.906,0.396,0.58,0.543,55.94,33.66,-7.78,2,1
17126.906,0.391,0.585,0.533,50.33,37.78,-9.0,2,1
17126.921,0.392,0.582,0.529,42.88,41.41,-9.83,2,1
17126.937,0.392,0.58,0.533,34.79,44.8,-11.23,2,1
17126.937,0.39,0.573,0.535,26.61,48.22,-13.18,2,1
17126.953,0.392,0.559,0.537,18.56,51.36,-15.2,2,1
17126.953,0.39,0.551,0.544,11.47,54.2,-17.4,2,1
17126.968,0.394,0.552,0.558,6.44,57.04,-20.66,2,1
17126.984,0.382,0.556,0.564,3.33,60.37,-24.63,2,1
17127.0,0.375,0.567,0.573,1.13,64.03,-28.17,2,1
17127.0,0.361,0.586,0.585,0.98,68.24,-31.4,2,1
17127.015,0.334,0.599,0.598,2.14,71.84,-33.17,2,1
17127.015,0.323,0.609,0.607,3.75,74.01,-33.45,2,1
17127.031,0.312,0.621,0.615,5.71,75.5,-33.2,2,1
17127.046,0.292,0.64,0.626,7.69,75.2,-33.42,2,1
17127.046,0.279,0.648,0.631,9.86,72.88,-34.0,2,1
17127.062,0.273,0.658,0.63,11.69,70.53,-34.79,2,1
17127.078,0.262,0.671,0.626,12.76,68.76,-35.49,2,1
17127.078,0.253,0.676,0.624,13.64,67.57,-35.77,2,1
17127.093,0.247,0.681,0.631,14.04,66.81,-35.49,2,1
17127.093,0.244,0.68,0.629,14.01,66.07,-35.0,2,1
17127.109,0.234,0.668,0.622,13.98,65.46,-35.04,2,1
17127.125,0.226,0.655,0.62,14.25,65.55,-36.01,2,1
17127.125,0.218,0.659,0.608,14.89,66.87,-38.61,2,1
17127.14,0.205,0.658,0.59,15.81,69.95,-41.14,2,1
17127.156,0.183,0.663,0.584,15.23,74.19,-44.04,2,1
17127.171,0.16,0.669,0.585,12.05,78.98,-47.55,2,1
17127.171,0.142,0.657,0.591,7.75,84.75,-51.85,2,1
17127.187,0.117,0.638,0.597,3.33,91.22,-57.34,2,1
17127.187,0.088,0.627,0.594,-0.98,97.9,-63.08,2,1
17127.203,0.066,0.628,0.608,-4.43,105.11,-68.51,2,1
17127.203,0.042,0.623,0.615,-6.41,111.88,-73.73,2,1
17127.218,0.012,0.621,0.617,-8.24,122.17,-83.86,2,1
17127.234,-0.017,0.613,0.634,-7.81,124.3,-88.78,2,1
17127.25,-0.045,0.594,0.647,-6.13,125.16,-94.06,2,1
17127.25,-0.101,0.619,0.659,-4.39,124.79,-98.12,2,1
17127.265,-0.129,0.638,0.662,-2.75,122.65,-101.75,2,1
17127.265,-0.152,0.657,0.654,-1.71,118.72,-106.48,2,1
17127.281,-0.175,0.666,0.645,-1.74,114.26,-111.42,2,1
17127.296,-0.211,0.704,0.66,-2.5,109.47,-114.54,2,1
17127.296,-0.242,0.742,0.678,-5.34,101.57,-114.9,2,1
17127.312,-0.259,0.743,0.692,-10.22,90.21,-113.77,2,1
17127.328,-0.272,0.709,0.703,-14.31,77.76,-111.42,2,1
17127.328,-0.28,0.674,0.707,-15.53,65.68,-108.71,2,1
17127.343,-0.3,0.679,0.716,-14.01,54.69,-106.3,2,1
17127.359,-0.313,0.692,0.719,-11.66,44.28,-102.85,2,1
17127.359,-0.329,0.689,0.714,-10.59,33.11,-97.81,2,1
17127.375,-0.347,0.692,0.701,-10.44,22.37,-93.39,2,1
17127.375,-0.348,0.683,0.686,-10.68,13.15,-90.06,2,1
17127.39,-0.35,0.664,0.673,-11.08,6.38,-86.83,2,1
17127.406,-0.359,0.65,0.662,-10.96,2.35,-83.71,2,1
17127.406,-0.366,0.627,0.652,-10.22,0.03,-80.72,2,1
17127.421,-0.366,0.592,0.65,-8.45,0.34,-77.58,2,1
17127.437,-0.359,0.559,0.65,-4.91,2.35,-75.32,2,1
17127.437,-0.351,0.516,0.647,0.31,4.33,-73.43,2,1
17127.453,-0.352,0.468,0.632,6.44,6.5,-71.84,2,1
17127.453,-0.351,0.448,0.61,12.94,9.52,-73.18,2,1
17127.468,-0.342,0.418,0.587,17.94,13.37,-77.21,2,1
17127.484,-0.352,0.387,0.566,20.36,18.16,-82.58,2,1
17127.484,-0.389,0.415,0.565,21.15,23.74,-88.9,2,1
17127.5,-0.435,0.457,0.566,19.23,28.29,-94.61,2,1
17127.515,-0.46,0.453,0.563,14.65,31.31,-98.94,2,1
17127.531,-0.475,0.433,0.578,12.02,34.06,-100.86,2,1
17127.531,-0.484,0.423,0.6,13.89,35.86,-99.58,2,1
17127.546,-0.481,0.386,0.619,20.33,35.43,-94.42,2,1
17127.546,-0.479,0.325,0.62,32.56,33.69,-86.58,2,1
17127.562,-0.468,0.274,0.602,49.13,31.77,-78.13,2,1
17127.578,-0.441,0.217,0.575,68.64,31.22,-70.31,2,1
17127.578,-0.428,0.155,0.547,88.47,32.23,-62.87,2,1
17127.593,-0.422,0.102,0.52,107.76,34.76,-55.54,2,1
17127.609,-0.429,0.061,0.485,126.13,38.42,-48.01,2,1
17127.609,-0.496,0.075,0.448,141.27,41.69,-42.6,2,1
17127.625,-0.574,0.175,0.404,148.41,43.18,-46.21,2,1
17127.64,-0.594,0.273,0.363,143.5,39.37,-58.69,2,1
17127.64,-0.642,0.317,0.335,129.7,31.83,-71.6,2,1
17127.656,-0.696,0.383,0.327,109.81,21.42,-84.26,2,1
17127.656,-0.709,0.421,0.322,88.99,8.0,-93.91,2,1
17127.671,-0.737,0.404,0.294,74.98,-3.78,-99.0,2,1
17127.671,-0.801,0.431,0.261,68.61,-11.66,-104.77,2,1
17127.687,-0.812,0.481,0.214,64.52,-17.18,-114.38,2,1
17127.703,-0.837,0.501,0.167,57.56,-19.41,-125.13,2,1
17127.718,-0.883,0.512,0.131,47.64,-16.91,-134.8,2,1
17127.718,-0.906,0.539,0.1,37.54,-10.1,-144.02,2,1
17127.734,-0.949,0.557,0.065,28.05,0.24,-152.53,2,1
17127.734,-1.048,0.649,0.036,17.94,15.66,-161.93,2,1
17127.75,-1.076,0.746,0.016,4.33,32.14,-172.67,2,1
17127.765,-1.092,0.772,0.036,-9.89,48.77,-179.54,2,1
17127.765,-1.111,0.783,0.078,-22.77,63.72,-178.78,2,1
17127.781,-1.085,0.755,0.118,-29.3,73.82,-171.3,2,1
17127.796,-1.048,0.695,0.151,-25.21,81.24,-158.21,2,1
17127.796,-1.016,0.661,0.176,-12.48,85.45,-141.06,2,1
17127.812,-0.988,0.643,0.169,4.58,86.06,-120.88,2,1
17127.828,-1.008,0.629,0.153,20.81,85.42,-100.77,2,1
17127.828,-0.99,0.626,0.14,32.81,83.93,-84.17,2,1
17127.843,-0.966,0.586,0.126,39.7,82.16,-70.07,2,1
17127.843,-0.964,0.535,0.12,43.24,81.94,-57.86,2,1
17127.859,-0.944,0.483,0.114,46.54,83.71,-48.04,2,1
17127.875,-0.922,0.43,0.106,51.0,86.76,-41.08,2,1
17127.875,-0.917,0.395,0.102,55.94,90.21,-36.29,2,1
17127.89,-0.914,0.388,0.096,60.82,92.87,-33.63,2,1
17127.906,-0.928,0.398,0.079,64.12,94.7,-32.84,2,1
17127.906,-0.939,0.412,0.068,63.05,94.42,-33.6,2,1
17127.921,-0.95,0.417,0.054,58.66,92.41,-34.94,2,1
17127.937,-0.964,0.404,0.044,52.74,90.55,-36.13,2,1
17127.937,-0.979,0.394,0.041,46.85,89.51,-38.36,2,1
17127.953,-0.984,0.397,0.045,40.65,87.86,-41.47,2,1
17127.953,-0.986,0.378,0.051,34.0,84.96,-44.16,2,1
17127.968,-0.981,0.349,0.052,28.72,81.15,-45.84,2,1
17127.984,-0.976,0.32,0.045,26.73,77.3,-46.02,2,1
17127.984,-0.977,0.297,0.039,26.86,74.47,-44.16,2,1
17128.0,-0.988,0.291,0.04,28.05,72.15,-41.08,2,1
17128.015,-1.028,0.31,0.045,29.76,69.95,-37.48,2,1
17128.031,-1.055,0.334,0.053,29.02,65.31,-35.46,2,1
17128.031,-1.058,0.342,0.052,25.12,57.16,-34.88,2,1
17128.046,-1.064,0.347,0.052,19.5,47.18,-33.51,2,1
17128.046,-1.064,0.349,0.051,14.28,36.16,-30.43,2,1
17128.062,-1.065,0.345,0.04,10.22,25.24,-26.03,2,1
17128.078,-1.068,0.325,0.037,7.39,15.93,-19.99,2,1
17128.078,-1.061,0.293,0.032,7.2,9.0,-13.25,2,1
17128.093,-1.05,0.254,0.023,11.35,6.47,-6.99,2,1
17128.093,-1.035,0.21,0.015,19.07,8.36,-2.32,2,1
17128.109,-1.02,0.183,0.01,29.3,12.18,1.16,2,1
17128.125,-1.005,0.161,0.002,41.26,16.33,3.78,2,1
17128.125,-0.994,0.147,-0.015,53.56,19.96,5.4,2,1
17128.14,-0.995,0.143,-0.033,64.42,23.44,5.89,2,1
17128.156,-1.012,0.135,-0.045,72.7,27.01,5.25,2,1
17128.156,-1.029,0.12,-0.039,77.0,30.88,3.91,2,1
17128.171,-1.033,0.111,-0.037,78.25,34.73,1.25,2,1
17128.171,-1.037,0.109,-0.048,78.1,38.06,-3.48,2,1
17128.187,-1.039,0.113,-0.061,76.27,39.77,-9.67,2,1
17128.203,-1.039,0.123,-0.069,65.43,36.38,-25.15,2,1
17128.203,-1.04,0.137,-0.082,56.43,31.77,-33.45,2,1
17128.218,-1.053,0.15,-0.104,44.34,27.01,-40.74,2,1
17128.234,-1.067,0.166,-0.126,29.69,24.38,-47.49,2,1
17128.25,-1.093,0.177,-0.162,13.52,24.02,-54.11,2,1
17128.25,-1.121,0.191,-0.169,-4.12,26.73,-60.82,2,1
17128.265,-1.132,0.151,-0.146,-21.61,34.33,-63.69,2,1
17128.265,-1.127,0.125,-0.11,-33.66,43.49,-66.07,2,1
17128.281,-1.117,0.103,-0.094,-36.35,48.43,-70.68,2,1
17128.296,-1.119,0.077,-0.079,-34.42,51.27,-73.55,2,1
17128.296,-1.116,0.09,-0.066,-30.27,51.36,-74.19,2,1
17128.312,-1.104,0.108,-0.079,-23.44,48.4,-73.15,2,1
17128.328,-1.096,0.12,-0.104,-17.21,45.66,-69.61,2,1
17128.328,-1.09,0.136,-0.116,-13.25,42.12,-64.18,2,1
17128.343,-1.085,0.145,-0.131,-10.22,36.99,-58.63,2,1
17128.343,-1.09,0.142,-0.14,-9.43,32.69,-52.31,2,1
17128.359,-1.096,0.136,-0.13,-9.92,29.02,-44.86,2,1
17128.375,-1.092,0.134,-0.125,-10.19,24.41,-37.29,2,1
17128.375,-1.09,0.124,-0.116,-11.44,19.84,-29.3,2,1
17128.39,-1.08,0.104,-0.096,-12.54,15.17,-21.7,2,1
17128.406,-1.076,0.074,-0.081,-11.51,9.49,-15.84,2,1
17128.406,-1.072,0.045,-0.075,-7.93,5.34,-11.05,2,1
17128.421,-1.058,0.038,-0.093,-1.83,2.2,-8.0,2,1
17128.437,-1.046,0.035,-0.125,4.21,1.98,-5.68,2,1
17128.437,-1.035,0.044,-0.132,7.69,3.14,-3.27,2,1
17128.453,-1.01,0.052,-0.148,10.8,3.94,-1.77,2,1
17128.468,-1.005,0.058,-0.171,13.21,6.13,-0.76,2,1
17128.468,-1.002,0.061,-0.176,13.28,6.9,0.43,2,1
17128.484,-0.993,0.062,-0.177,12.57,6.47,1.53,2,1
17128.484,-0.986,0.051,-0.183,11.78,5.92,2.56,2,1
17128.5,-0.979,0.046,-0.184,10.5,5.71,3.97,2,1
17128.515,-0.978,0.041,-0.185,9.64,3.97,4.82,2,1
17128.515,-0.975,0.029,-0.181,8.82,2.84,5.46,2,1
17128.531,-0.977,0.019,-0.143,8.94,1.77,5.74,2,1
17128.546,-0.986,-0.011,-0.129,12.67,0.92,5.74,2,1
17128.546,-0.999,-0.001,-0.153,15.35,-1.01,6.59,2,1
17128.562,-0.984,0.019,-0.154,16.27,-2.62,7.81,2,1
17128.578,-0.983,0.011,-0.166,16.36,-3.66,7.72,2,1
17128.578,-0.978,0.01,-0.176,13.4,-4.43,7.39,2,1
17128.593,-0.972,0.009,-0.172,9.43,-4.46,6.62,2,1
17128.609,-0.971,-0.005,-0.173,6.26,-3.88,4.94,2,1
17128.609,-0.972,-0.013,-0.171,3.72,-3.51,3.39,2,1
17128.625,-0.964,-0.01,-0.166,1.71,-3.97,1.56,2,1
17128.625,-0.963,-0.003,-0.171,0.21,-5.07,-0.76,2,1
17128.64,-0.959,0.003,-0.179,-1.22,-6.01,-2.35,2,1
17128.656,-0.96,0.013,-0.187,-2.87,-6.93,-3.23,2,1
17128.656,-0.959,0.008,-0.192,-4.39,-7.48,-3.33,2,1
17128.671,-0.962,0.007,-0.196,-5.01,-7.63,-3.08,2,1
17128.687,-0.955,0.013,-0.213,-5.86,-8.91,-3.88,2,1
17128.687,-0.947,0.01,-0.218,-9.46,-9.25,-4.85,2,1
17128.703,-0.955,0.003,-0.214,-13.25,-9.8,-6.38,2,1
17128.718,-0.959,-0.004,-0.206,-14.44,-8.85,-7.32,2,1
17128.718,-0.958,-0.003,-0.202,-14.04,-7.6,-7.26,2,1
17128.734,-0.958,-0.003,-0.204,-12.45,-6.04,-6.99,2,1
17128.75,-0.96,-0.005,-0.217,-10.41,-3.78,-6.59,2,1
17128.75,-0.961,-0.007,-0.222,-9.09,-1.01,-5.92,2,1
17128.765,-0.959,-0.009,-0.225,-7.69,1.04,-5.4,2,1
17128.765,-0.962,-0.009,-0.222,-6.59,2.44,-5.04,2,1
17128.781,-0.962,-0.01,-0.224,-6.1,3.69,-4.82,2,1
17128.796,-0.96,-0.011,-0.23,-5.92,5.4,-4.97,2,1
17128.796,-0.961,-0.005,-0.23,-6.16,6.87,-5.4,2,1
17128.812,-0.959,-0.006,-0.222,-6.96,7.35,-5.98,2,1
17128.828,-0.96,-0.011,-0.219,-7.6,7.78,-6.29,2,1
17128.828,-0.967,-0.014,-0.221,-7.63,7.97,-6.2,2,1
17128.843,-0.97,-0.014,-0.221,-7.45,7.87,-6.04,2,1
17128.843,-0.97,-0.013,-0.217,-7.08,7.45,-5.71,2,1
17128.859,-0.971,-0.017,-0.213,-7.11,6.5,-5.1,2,1
17128.875,-0.969,-0.022,-0.213,-6.9,5.55,-4.27,2,1
17128.875,-0.964,-0.024,-0.21,-6.78,4.12,-3.66,2,1
17128.89,-0.961,-0.027,-0.209,-6.56,2.56,-3.11,2,1
17128.906,-0.96,-0.031,-0.209,-5.77,0.98,-2.35,2,1
17128.906,-0.954,-0.037,-0.218,-3.97,0.0,-2.08,2,1
17128.921,-0.954,-0.029,-0.227,-2.29,-0.21,-2.08,2,1
17128.921,-0.956,-0.028,-0.231,-1.53,0.18,-2.04,2,1
17128.937,-0.954,-0.032,-0.23,-1.56,1.04,-1.43,2,1
17128.953,-0.954,-0.025,-0.233,-1.28,1.46,-2.14,2,1
17128.953,-0.955,-0.037,-0.232,-1.01,1.83,-2.2,2,1
17128.968,-0.955,-0.031,-0.23,-0.79,3.42,-1.34,2,1
17128.984,-0.955,-0.027,-0.23,0.15,4.27,-1.25,2,1
17128.984,-0.952,-0.036,-0.23,1.22,6.13,-0.49,2,1
17129.0,-0.955,-0.035,-0.229,2.11,7.51,0.0,2,1
17129.015,-0.955,-0.034,-0.227,3.6,7.84,-0.18,2,1
17129.015,-0.959,-0.034,-0.223,4.76,8.03,-0.52,2,1
17129.031,-0.961,-0.031,-0.224,5.25,7.66,-0.67,2,1
17129.046,-0.962,-0.026,-0.226,4.97,7.02,-1.16,2,1
17129.046,-0.962,-0.029,-0.226,4.0,6.44,-1.16,2,1
17129.062,-0.957,-0.026,-0.22,3.57,5.55,-1.04,2,1
17129.062,-0.961,-0.02,-0.223,3.94,4.52,-1.59,2,1
17129.078,-0.966,-0.017,-0.224,4.06,3.14,-1.71,2,1
17129.093,-0.968,-0.013,-0.22,3.75,1.68,-1.68,2,1
17129.093,-0.97,-0.008,-0.217,3.39,0.09,-1.46,2,1
17129.109,-0.972,0.003,-0.217,2.72,-1.98,-1.25,2,1
17129.125,-0.979,0.003,-0.221,1.65,-3.88,-0.52,2,1
17129.125,-0.973,-0.005,-0.219,0.89,-4.67,1.37,2,1
17129.14,-0.966,-0.005,-0.221,0.67,-5.52,2.96,2,1
17129.156,-0.969,-0.013,-0.23,0.31,-6.41,4.06,2,1
17129.156,-0.958,-0.022,-0.233,-0.73,-6.59,5.31,2,1
17129.171,-0.948,-0.019,-0.231,-1.13,-6.68,5.07,2,1
17129.187,-0.949,-0.034,-0.232,-0.82,-6.2,4.12,2,1
17129.187,-0.949,-0.045,-0.232,0.82,-5.16,2.47,2,1
17129.203,-0.946,-0.05,-0.233,2.11,-4.27,1.5,2,1
17129.203,-0.949,-0.052,-0.234,2.99,-3.6,0.34,2,1
17129.218,-0.955,-0.041,-0.239,3.78,-3.05,-0.92,2,1
17129.234,-0.957,-0.034,-0.242,3.94,-2.32,-1.4,2,1
17129.234,-0.951,-0.036,-0.234,4.15,-1.19,-0.79,2,1
17129.25,-0.952,-0.032,-0.224,5.77,-0.4,-0.98,2,1
17129.265,-0.956,-0.041,-0.224,8.0,0.31,-1.01,2,1
17129.281,-0.957,-0.035,-0.225,9.7,0.92,-0.76,2,1
17129.281,-0.957,-0.025,-0.233,10.77,0.92,-0.85,2,1
17129.296,-0.958,-0.021,-0.237,10.22,1.43,-1.04,2,1
17129.296,-0.951,-0.012,-0.255,7.97,1.59,-1.4,2,1
17129.312,-0.934,-0.019,-0.264,1.74,1.31,-2.59,2,1
17129.328,-0.928,-0.043,-0.248,-4.21,1.8,-5.13,2,1
17129.328,-0.937,-0.06,-0.239,-5.77,2.47,-7.6,2,1
17129.343,-0.931,-0.06,-0.239,-4.58,2.5,-8.82,2,1
17129.359,-0.935,-0.041,-0.244,-3.36,2.35,-10.65,2,1
17129.359,-0.94,-0.049,-0.242,-4.06,1.74,-11.69,2,1
17129.375,-0.943,-0.042,-0.237,-5.77,1.16,-12.88,2,1
17129.375,-0.946,-0.045,-0.237,-6.9,-0.27,-13.92,2,1
17129.39,-0.949,-0.043,-0.24,-7.39,-0.73,-14.28,2,1
17129.406,-0.949,-0.04,-0.241,-7.32,-0.95,-14.16,2,1
17129.406,-0.946,-0.041,-0.239,-6.78,-0.67,-14.22,2,1
17129.421,-0.951,-0.051,-0.239,-5.37,-0.21,-13.46,2,1
17129.437,-0.952,-0.045,-0.237,-3.17,0.09,-12.85,2,1
17129.437,-0.953,-0.047,-0.233,-1.37,-0.21,-12.73,2,1
17129.453,-0.955,-0.052,-0.231,-0.7,-1.04,-12.76,2,1
17129.468,-0.954,-0.049,-0.227,-0.92,-2.17,-13.12,2,1
17129.468,-0.957,-0.048,-0.23,-1.16,-2.35,-13.25,2,1
17129.484,-0.956,-0.05,-0.232,-1.43,-2.78,-13.06,2,1
17129.484,-0.958,-0.052,-0.234,-1.86,-2.84,-12.94,2,1
17129.5,-0.955,-0.053,-0.238,-2.35,-1.77,-12.27,2,1
17129.515,-0.956,-0.051,-0.246,-1.86,0.61,-12.05,2,1
17129.515,-0.965,-0.053,-0.244,-0.98,2.78,-12.76,2,1
17129.531,-0.964,-0.057,-0.234,-0.7,3.97,-13.12,2,1
17129.546,-0.965,-0.059,-0.23,-0.34,4.91,-12.94,2,1
17129.546,-0.963,-0.062,-0.224,0.52,5.25,-12.42,2,1
17129.562,-0.961,-0.071,-0.22,1.83,5.25,-11.54,2,1
17129.578,-0.962,-0.071,-0.223,3.05,4.61,-11.05,2,1
17129.578,-0.963,-0.066,-0.225,3.54,3.91,-11.14,2,1
17129.593,-0.968,-0.057,-0.228,2.96,3.3,-11.08,2,1
17129.593,-0.968,-0.054,-0.232,1.74,2.69,-10.68,2,1
17129.609,-0.969,-0.06,-0.231,0.82,2.59,-9.89,2,1
17129.625,-0.966,-0.066,-0.228,0.98,2.44,-8.88,2,1
17129.625,-0.965,-0.07,-0.227,1.95,2.11,-8.18,2,1
17129.64,-0.97,-0.065,-0.228,3.23,1.37,-7.32,2,1
17129.656,-0.969,-0.067,-0.229,4.21,1.07,-5.98,2,1
17129.656,-0.968,-0.068,-0.232,4.97,1.1,-4.7,2,1
17129.671,-0.965,-0.063,-0.235,4.88,1.13,-3.78,2,1
17129.687,-0.967,-0.059,-0.236,4.33,1.1,-3.42,2,1
17129.687,-0.968,-0.054,-0.236,3.78,1.01,-3.33,2,1
17129.703,-0.97,-0.051,-0.235,3.11,0.46,-3.08,2,1
17129.718,-0.97,-0.047,-0.239,2.01,-0.12,-2.66,2,1
17129.718,-0.968,-0.048,-0.241,0.61,-0.21,-1.92,2,1
17129.734,-0.968,-0.055,-0.239,-0.61,-0.24,-1.01,2,1
17129.734,-0.967,-0.058,-0.237,-1.19,-0.09,-0.09,2,1
17129.75,-0.964,-0.061,-0.235,-1.07,0.09,0.7,2,1
17129.765,-0.961,-0.064,-0.235,-0.61,0.12,1.22,2,1
17129.765,-0.957,-0.07,-0.239,0.06,0.58,1.74,2,1
17129.781,-0.956,-0.069,-0.238,0.61,1.28,2.17,2,1
17129.796,-0.952,-0.075,-0.235,1.31,1.68,2.66,2,1
17129.796,-0.953,-0.083,-0.236,2.11,2.2,3.17,2,1
17129.812,-0.953,-0.09,-0.233,3.3,1.89,3.51,2,1
17129.812,-0.952,-0.087,-0.231,4.55,1.56,3.3,2,1
17129.828,-0.951,-0.078,-0.234,4.85,0.85,2.9,2,1
17129.843,-0.948,-0.072,-0.236,3.85,0.52,2.69,2,1
17129.843,-0.948,-0.075,-0.233,2.17,0.03,2.14,2,1
17129.859,-0.949,-0.084,-0.231,0.98,-0.7,1.56,2,1
17129.875,-0.949,-0.087,-0.24,0.43,-1.43,1.34,2,1
17129.875,-0.948,-0.083,-0.246,0.18,-1.86,0.98,2,1
17129.89,-0.951,-0.081,-0.25,0.12,-2.56,0.67,2,1
17129.906,-0.951,-0.082,-0.251,0.03,-2.69,0.43,2,1
17129.906,-0.955,-0.087,-0.25,-0.24,-2.35,0.15,2,1
17129.921,-0.952,-0.089,-0.252,-0.34,-2.14,-0.03,2,1
17129.937,-0.953,-0.085,-0.247,-0.24,-1.62,-0.64,2,1
17129.937,-0.952,-0.086,-0.243,-0.15,-1.4,-1.25,2,1
17129.953,-0.955,-0.087,-0.244,0.0,-1.04,-1.34,2,1
17129.953,-0.956,-0.082,-0.244,-0.64,-0.52,-1.1,2,1
17129.968,-0.954,-0.079,-0.244,-1.4,-0.15,-0.58,2,1
17129.984,-0.953,-0.08,-0.24,-1.53,0.21,-0.43,2,1
17129.984,-0.952,-0.089,-0.234,-1.04,0.37,-0.37,2,1
17130.0,-0.955,-0.092,-0.232,0.0,0.06,-0.4,2,1
17130.015,-0.956,-0.084,-0.241,1.4,-0.76,-0.64,2,1
17130.015,-0.953,-0.075,-0.247,1.92,-0.55,-0.4,2,1
17130.031,-0.956,-0.072,-0.247,0.98,-0.03,-0.06,2,1
17130.046,-0.953,-0.078,-0.245,-0.24,-0.06,0.27,2,1
17130.046,-0.951,-0.087,-0.241,-0.15,-0.06,0.43,2,1
17130.062,-0.954,-0.087,-0.243,0.61,0.03,0.46,2,1
17130.078,-0.953,-0.086,-0.245,1.5,-0.15,0.49,2,1
17130.078,-0.948,-0.081,-0.244,1.89,0.03,0.79,2,1
17130.093,-0.952,-0.085,-0.245,1.62,-0.43,1.1,2,1
17130.109,-0.949,-0.088,-0.245,1.1,-0.73,1.25,2,1
17130.109,-0.952,-0.087,-0.245,0.49,-1.13,0.95,2,1
17130.125,-0.95,-0.088,-0.247,-0.03,-1.62,0.61,2,1
17130.125,-0.952,-0.086,-0.247,-0.49,-1.83,0.34,2,1
17130.14,-0.95,-0.093,-0.248,-0.82,-2.17,0.27,2,1
17130.156,-0.951,-0.099,-0.249,-0.43,-1.83,0.46,2,1
17130.171,-0.949,-0.098,-0.253,0.58,-1.59,0.37,2,1
17130.171,-0.949,-0.092,-0.256,1.37,-0.31,-0.18,2,1
17130.187,-0.953,-0.084,-0.258,0.89,0.06,-0.49,2,1
17130.187,-0.955,-0.078,-0.256,-0.21,0.37,-0.64,2,1
17130.203,-0.952,-0.076,-0.252,-1.28,0.67,-0.73,2,1
17130.203,-0.954,-0.076,-0.245,-2.04,0.37,-0.82,2,1
17130.218,-0.954,-0.087,-0.237,-2.41,0.12,-0.58,2,1
17130.234,-0.956,-0.098,-0.23,-1.86,0.24,0.03,2,1
17130.25,-0.955,-0.1,-0.234,-0.24,-0.06,0.73,2,1
17130.25,-0.953,-0.094,-0.238,1.31,-0.27,0.92,2,1
17130.265,-0.955,-0.092,-0.242,2.08,-0.21,0.67,2,1
17130.265,-0.958,-0.087,-0.248,1.92,-0.09,0.09,2,1
17130.281,-0.959,-0.081,-0.252,0.85,0.03,-0.52,2,1
17130.296,-0.957,-0.08,-0.252,-0.37,0.12,-0.64,2,1
17130.296,-0.958,-0.079,-0.251,-1.19,0.52,-0.52,2,1
17130.312,-0.959,-0.08,-0.245,-1.43,0.79,-0.37,2,1
17130.312,-0.958,-0.083,-0.245,-1.07,0.98,0.06,2,1
17130.328,-0.96,-0.084,-0.242,-0.76,1.16,0.52,2,1
17130.343,-0.96,-0.084,-0.239,-0.52,0.92,1.01,2,1
17130.343,-0.962,-0.084,-0.238,-0.12,0.21,1.43,2,1
17130.359,-0.963,-0.087,-0.236,0.06,-0.64,1.83,2,1
17130.375,-0.964,-0.083,-0.239,0.15,-1.22,2.04,2,1
17130.375,-0.962,-0.08,-0.245,-0.12,-1.01,1.68,2,1
17130.39,-0.965,-0.076,-0.246,-1.04,-0.18,1.25,2,1
17130.406,-0.966,-0.078,-0.249,-2.26,0.52,0.76,2,1
17130.406,-0.958,-0.08,-0.253,-3.3,1.56,0.76,2,1
17130.421,-0.955,-0.085,-0.25,-3.85,3.08,1.01,2,1
17130.421,-0.956,-0.09,-0.249,-3.42,4.09,1.01,2,1
17130.437,-0.959,-0.087,-0.246,-2.72,4.61,0.95,2,1
17130.453,-0.96,-0.085,-0.24,-2.32,4.7,1.01,2,1
17130.468,-0.964,-0.083,-0.239,-2.29,4.15,1.1,2,1
17130.468,-0.968,-0.079,-0.238,-2.99,3.2,0.82,2,1
17130.484,-0.969,-0.076,-0.238,-4.21,2.01,0.31,2,1
17130.484,-0.967,-0.077,-0.236,-5.55,1.01,-0.31,2,1
17130.5,-0.963,-0.081,-0.239,-6.65,0.24,-0.85,2,1
17130.515,-0.963,-0.079,-0.237,-7.35,-0.37,-1.5,2,1
17130.515,-0.961,-0.074,-0.242,-8.18,-1.34,-2.17,2,1
17130.531,-0.955,-0.068,-0.242,-9.49,-2.14,-2.41,2,1
17130.546,-0.954,-0.072,-0.244,-10.83,-2.11,-2.47,2,1
17130.546,-0.955,-0.077,-0.248,-11.2,-1.74,-2.04,2,1
17130.562,-0.953,-0.075,-0.254,-10.38,-1.53,-1.5,2,1
17130.578,-0.948,-0.07,-0.26,-8.64,-1.01,-1.07,2,1
17130.578,-0.957,-0.061,-0.262,-6.93,-0.27,-0.89,2,1
17130.593,-0.964,-0.048,-0.258,-6.07,0.03,-0.52,2,1
17130.593,-0.964,-0.043,-0.252,-6.23,0.34,-0.21,2,1
17130.609,-0.962,-0.046,-0.241,-6.65,0.67,0.31,2,1
17130.625,-0.959,-0.058,-0.231,-6.47,0.92,1.37,2,1
17130.625,-0.954,-0.072,-0.218,-4.36,0.7,2.5,2,1
17130.64,-0.961,-0.086,-0.209,-0.21,-0.15,3.91,2,1
17130.656,-0.961,-0.101,-0.202,5.4,-1.74,5.62,2,1
17130.656,-0.95,-0.109,-0.204,12.57,-2.99,7.02,2,1
17130.671,-0.945,-0.102,-0.217,20.45,-3.42,7.63,2,1
17130.687,-0.939,-0.089,-0.227,26.25,-3.11,8.18,2,1
17130.687,-0.939,-0.079,-0.241,29.15,-1.83,8.94,2,1
17130.703,-0.937,-0.068,-0.25,29.57,-0.34,8.88,2,1
17130.703,-0.938,-0.055,-0.262,28.14,1.04,7.29,2,1
17130.718,-0.947,-0.037,-0.273,24.96,3.48,4.61,2,1
17130.734,-0.959,-0.021,-0.272,20.33,6.2,1.34,2,1
17130.734,-0.978,-0.009,-0.265,15.11,8.3,-1.74,2,1
17130.75,-0.996,-0.001,-0.254,10.13,9.37,-3.63,2,1
17130.765,-1.007,-0.004,-0.247,6.2,9.7,-5.22,2,1
17130.765,-1.005,-0.012,-0.245,4.73,9.86,-6.5,2,1
17130.781,-1.006,-0.023,-0.256,7.05,10.93,-7.87,2,1
17130.796,-0.992,-0.029,-0.277,12.3,13.86,-8.94,2,1
17130.796,-0.992,-0.022,-0.289,16.66,18.74,-7.23,2,1
17130.812,-0.998,-0.014,-0.295,18.62,24.35,-3.72,2,1
17130.812,-1.001,-0.018,-0.292,17.73,29.45,0.15,2,1
17130.828,-1.007,-0.025,-0.296,15.02,33.63,3.17,2,1
17130.843,-1.014,-0.03,-0.287,11.23,37.23,4.97,2,1
17130.843,-1.012,-0.038,-0.275,7.29,39.25,5.37,2,1
17130.859,-1.013,-0.039,-0.269,2.23,39.74,4.7,2,1
17130.875,-1.017,-0.043,-0.267,-3.05,38.73,2.93,2,1
17130.875,-1.016,-0.063,-0.267,-7.72,36.56,0.55,2,1
17130.89,-1.012,-0.083,-0.289,-10.13,35.1,-3.05,2,1
17130.906,-1.0,-0.081,-0.32,-11.2,37.08,-6.9,2,1
17130.906,-1.002,-0.078,-0.337,-13.52,41.93,-10.44,2,1
17130.921,-0.999,-0.085,-0.345,-15.44,47.24,-14.4,2,1
17130.937,-1.001,-0.088,-0.346,-17.33,52.28,-17.98,2,1
17130.937,-1.001,-0.09,-0.354,-18.28,56.03,-21.91,2,1
17130.953,-1.005,-0.078,-0.36,-20.39,58.75,-24.66,2,1
17130.968,-1.016,-0.08,-0.374,-24.26,60.18,-27.22,2,1
17130.968,-1.012,-0.094,-0.385,-27.34,60.88,-29.94,2,1
17130.984,-1.005,-0.091,-0.39,-28.9,61.19,-31.5,2,1
17130.984,-1.001,-0.089,-0.394,-29.97,60.21,-32.59,2,1
17131.0,-0.998,-0.097,-0.418,-30.85,57.83,-33.72,2,1
17131.015,-0.991,-0.108,-0.457,-30.98,55.73,-35.34,2,1
17131.031,-0.981,-0.102,-0.486,-32.01,55.91,-36.81,2,1
17131.031,-0.98,-0.094,-0.509,-36.41,57.74,-38.0,2,1
17131.046,-0.972,-0.096,-0.519,-42.27,59.18,-38.76,2,1
17131.046,-0.966,-0.092,-0.495,-46.66,59.05,-38.54,2,1
17131.062,-0.969,-0.094,-0.478,-49.29,55.45,-37.66,2,1
17131.078,-0.959,-0.105,-0.457,-50.63,49.59,-36.44,2,1
17131.078,-0.954,-0.091,-0.436,-51.76,42.57,-34.7,2,1
17131.093,-0.958,-0.088,-0.437,-51.79,33.14,-33.14,2,1
17131.109,-0.95,-0.085,-0.451,-51.61,23.1,-31.56,2,1
17131.109,-0.947,-0.081,-0.475,-51.82,13.49,-30.85,2,1
17131.125,-0.935,-0.074,-0.483,-53.04,5.22,-30.55,2,1
