timestamp,ax,ay,az,gx,gy,gz,orient_label,motion_label
17169.578,-0.931,0.184,0.237,0.06,-0.37,-1.31,2,1
17169.578,-0.939,0.19,0.233,0.61,-0.18,0.7,2,1
17169.593,-0.938,0.188,0.232,0.03,-0.18,2.38,2,1
17169.593,-0.931,0.18,0.232,-0.49,0.12,3.14,2,1
17169.609,-0.928,0.166,0.232,0.15,0.46,3.05,2,1
17169.625,-0.928,0.16,0.234,0.95,0.24,2.66,2,1
17169.64,-0.926,0.163,0.234,1.28,-0.06,1.86,2,1
17169.64,-0.932,0.168,0.231,0.4,-0.76,-0.06,2,1
17169.656,-0.94,0.176,0.231,-1.83,-2.08,-2.69,2,1
17169.656,-0.946,0.178,0.236,-3.66,-2.93,-4.52,2,1
17169.671,-0.944,0.177,0.235,-3.3,-3.3,-5.19,2,1
17169.687,-0.945,0.187,0.228,-2.08,-3.3,-5.25,2,1
17169.687,-0.943,0.199,0.229,-2.04,-2.81,-4.49,2,1
17169.703,-0.945,0.2,0.23,-2.26,-2.2,-3.45,2,1
17169.703,-0.946,0.202,0.236,-1.56,-1.46,-1.92,2,1
17169.718,-0.948,0.206,0.238,-0.58,-1.13,0.43,2,1
17169.734,-0.947,0.208,0.236,-0.24,-1.34,3.17,2,1
17169.75,-0.931,0.167,0.236,-0.27,-1.62,6.87,2,1
17169.765,-0.92,0.164,0.226,0.95,-1.34,7.11,2,1
17169.765,-0.916,0.169,0.22,0.95,-1.01,5.4,2,1
17169.781,-0.916,0.176,0.219,-0.46,-1.04,2.5,2,1
17169.796,-0.927,0.178,0.224,-2.26,-1.13,-0.61,2,1
17169.796,-0.936,0.177,0.234,-3.2,-1.07,-2.17,2,1
17169.812,-0.945,0.184,0.24,-2.44,-0.82,-2.35,2,1
17169.828,-0.948,0.192,0.236,-1.46,-1.13,-1.77,2,1
17169.828,-0.947,0.191,0.236,-1.5,-1.77,-0.21,2,1
17169.843,-0.942,0.187,0.232,-1.77,-2.53,1.43,2,1
17169.859,-0.937,0.185,0.224,-1.92,-3.27,2.53,2,1
17169.859,-0.937,0.187,0.213,-2.78,-3.66,3.23,2,1
17169.875,-0.938,0.189,0.208,-3.81,-3.72,3.6,2,1
17169.875,-0.94,0.188,0.204,-4.64,-3.54,3.66,2,1
17169.89,-0.942,0.188,0.204,-5.37,-3.51,4.43,2,1
17169.906,-0.944,0.182,0.202,-5.46,-3.48,6.5,2,1
17169.921,-0.975,0.176,0.202,-4.82,-3.72,12.67,2,1
17169.937,-0.988,0.171,0.207,-4.21,-5.1,16.14,2,1
17169.937,-0.997,0.183,0.2,-3.2,-7.39,19.1,2,1
17169.953,-1.008,0.189,0.191,-3.88,-10.35,22.4,2,1
17169.968,-0.998,0.185,0.195,-5.28,-13.28,26.64,2,1
17169.968,-0.958,0.194,0.198,-5.19,-14.53,30.46,2,1
17169.984,-0.942,0.212,0.191,-5.19,-14.37,34.3,2,1
17170.0,-0.935,0.225,0.178,-6.2,-14.89,38.67,2,1
17170.0,-0.927,0.241,0.164,-8.06,-16.02,42.97,2,1
17170.015,-0.932,0.261,0.149,-11.11,-17.18,46.48,2,1
17170.031,-0.947,0.287,0.127,-15.66,-18.65,49.44,2,1
17170.031,-0.951,0.306,0.113,-21.79,-19.93,52.22,2,1
17170.046,-0.945,0.316,0.118,-28.44,-21.36,55.15,2,1
17170.046,-0.931,0.298,0.121,-33.54,-23.29,57.1,2,1
17170.062,-0.926,0.276,0.13,-37.63,-24.35,57.56,2,1
17170.078,-0.925,0.282,0.122,-42.42,-25.06,55.64,2,1
17170.093,-0.913,0.248,0.152,-54.93,-22.4,54.32,2,1
17170.109,-0.913,0.223,0.17,-55.79,-21.06,55.45,2,1
17170.109,-0.903,0.235,0.165,-54.81,-20.6,55.54,2,1
17170.125,-0.904,0.242,0.15,-54.23,-20.87,54.41,2,1
17170.125,-0.913,0.247,0.135,-55.6,-22.25,51.06,2,1
17170.14,-0.93,0.256,0.125,-61.22,-26.76,44.68,2,1
17170.156,-0.952,0.272,0.125,-71.63,-33.72,36.04,2,1
17170.156,-0.975,0.278,0.12,-82.92,-41.99,26.15,2,1
17170.171,-1.008,0.279,0.126,-95.34,-50.2,16.88,2,1
17170.187,-1.013,0.266,0.156,-106.23,-57.59,9.83,2,1
17170.187,-1.023,0.241,0.17,-112.77,-63.66,5.65,2,1
17170.203,-1.084,0.218,0.174,-115.67,-69.55,3.27,2,1
17170.218,-1.113,0.187,0.203,-115.79,-75.62,2.14,2,1
17170.218,-1.062,0.164,0.243,-114.96,-82.86,2.14,2,1
17170.234,-0.972,0.165,0.267,-113.5,-90.52,3.27,2,1
17170.234,-0.857,0.167,0.282,-110.08,-94.94,7.32,2,1
17170.25,-0.795,0.156,0.291,-102.94,-95.95,13.09,2,1
17170.265,-0.782,0.136,0.283,-92.68,-96.87,20.2,2,1
17170.265,-0.768,0.126,0.283,-81.64,-96.93,27.86,2,1
17170.281,-0.725,0.124,0.293,-71.87,-96.38,35.62,2,1
17170.296,-0.703,0.128,0.306,-63.72,-96.22,42.85,2,1
17170.312,-0.661,0.143,0.32,-57.71,-96.07,49.78,2,1
17170.312,-0.607,0.157,0.343,-54.84,-94.61,55.27,2,1
17170.328,-0.567,0.161,0.363,-54.2,-91.62,59.18,2,1
17170.328,-0.54,0.148,0.372,-54.6,-87.74,61.68,2,1
17170.343,-0.509,0.126,0.395,-53.74,-83.1,63.51,2,1
17170.359,-0.497,0.105,0.426,-48.89,-76.63,63.39,2,1
17170.359,-0.528,0.082,0.454,-41.14,-69.83,61.16,2,1
17170.375,-0.544,0.066,0.498,-34.18,-63.69,59.72,2,1
17170.39,-0.545,0.048,0.542,-27.38,-57.99,58.93,2,1
17170.39,-0.56,0.051,0.577,-18.37,-53.07,54.63,2,1
17170.406,-0.532,0.065,0.612,-10.38,-48.74,48.59,2,1
17170.421,-0.535,0.127,0.704,2.69,-42.15,36.23,2,1
17170.437,-0.563,0.145,0.761,8.3,-45.32,32.78,2,1
17170.437,-0.574,0.151,0.826,11.41,-54.17,33.33,2,1
17170.453,-0.574,0.155,0.879,15.66,-67.69,35.46,2,1
17170.468,-0.534,0.153,0.912,23.07,-83.9,36.5,2,1
17170.468,-0.499,0.153,0.917,30.3,-100.41,35.74,2,1
17170.484,-0.503,0.162,0.897,36.13,-116.73,31.46,2,1
17170.5,-0.511,0.164,0.87,45.53,-139.5,15.47,2,1
17170.5,-0.511,0.175,0.873,47.94,-145.63,7.69,2,1
17170.515,-0.483,0.19,0.883,49.23,-148.81,0.4,2,1
17170.515,-0.427,0.21,0.89,50.72,-150.12,-7.81,2,1
17170.531,-0.313,0.276,0.868,53.13,-149.33,-16.3,2,1
17170.546,-0.3,0.286,0.868,55.42,-148.84,-22.1,2,1
17170.546,-0.289,0.31,0.886,59.21,-150.0,-24.72,2,1
17170.562,-0.273,0.348,0.898,64.97,-150.67,-26.58,2,1
17170.578,-0.242,0.373,0.91,70.38,-152.93,-30.03,2,1
17170.593,-0.114,0.5,0.899,72.33,-147.8,-41.38,2,1
17170.609,-0.123,0.541,0.921,65.8,-141.09,-44.77,2,1
17170.609,-0.147,0.539,0.967,57.19,-136.2,-43.09,2,1
17170.625,-0.15,0.534,1.012,51.94,-134.46,-37.97,2,1
17170.625,-0.166,0.522,1.048,53.74,-136.48,-32.29,2,1
17170.64,-0.147,0.515,1.058,60.98,-143.22,-28.99,2,1
17170.656,-0.078,0.551,1.039,67.6,-149.57,-27.68,2,1
17170.656,-0.049,0.608,1.017,69.12,-151.22,-28.5,2,1
17170.671,-0.048,0.6,0.985,67.69,-150.18,-30.34,2,1
17170.687,-0.007,0.584,0.972,60.7,-147.28,-30.18,2,1
17170.687,0.013,0.605,0.965,52.58,-142.86,-31.59,2,1
17170.703,0.007,0.562,0.955,45.9,-138.86,-30.95,2,1
17170.718,0.037,0.536,0.959,41.08,-133.82,-27.83,2,1
17170.718,0.07,0.543,0.952,41.75,-129.8,-26.73,2,1
17170.734,0.089,0.538,0.922,46.3,-127.05,-27.1,2,1
17170.75,0.098,0.541,0.897,50.57,-124.09,-27.89,2,1
17170.75,0.093,0.541,0.882,53.07,-120.52,-29.02,2,1
17170.765,0.087,0.555,0.884,52.83,-116.98,-29.54,2,1
17170.765,0.079,0.579,0.882,51.03,-113.16,-30.82,2,1
17170.781,0.061,0.591,0.895,46.02,-110.35,-32.84,2,1
17170.796,0.063,0.608,0.897,36.47,-109.01,-33.48,2,1
17170.796,0.079,0.637,0.874,25.64,-108.8,-37.54,2,1
17170.812,0.044,0.659,0.857,14.37,-105.56,-44.92,2,1
17170.828,0.029,0.67,0.837,0.61,-103.43,-48.71,2,1
17170.828,0.039,0.718,0.823,-13.31,-100.83,-49.68,2,1
17170.843,-0.002,0.739,0.817,-24.23,-95.16,-50.29,2,1
17170.859,0.006,0.689,0.837,-34.97,-90.7,-45.69,2,1
17170.859,0.05,0.671,0.863,-39.09,-79.99,-41.63,2,1
17170.875,-0.001,0.597,0.861,-30.98,-67.14,-38.09,2,1
17170.875,0.023,0.619,0.897,-24.05,-60.09,-34.42,2,1
17170.89,0.035,0.611,0.898,-15.41,-55.18,-31.62,2,1
17170.906,0.027,0.567,0.869,-8.45,-50.97,-29.82,2,1
17170.921,0.042,0.57,0.843,-6.01,-42.15,-28.02,2,1
17170.937,0.032,0.551,0.837,-6.96,-36.56,-25.97,2,1
17170.937,0.03,0.551,0.829,-8.45,-29.66,-23.87,2,1
17170.953,0.025,0.561,0.827,-9.19,-22.31,-20.66,2,1
17170.968,0.042,0.569,0.824,-8.0,-13.55,-17.3,2,1
17170.968,-0.001,0.529,0.814,-6.47,-4.39,-14.04,2,1
17170.984,-0.004,0.541,0.835,-7.54,3.54,-9.49,2,1
17170.984,-0.014,0.534,0.847,-8.55,7.75,-5.13,2,1
17171.0,-0.018,0.521,0.86,-10.35,9.58,-3.14,2,1
17171.015,-0.009,0.519,0.878,-13.55,9.89,-2.81,2,1
17171.015,-0.027,0.512,0.89,-18.1,8.48,-4.27,2,1
17171.031,-0.02,0.511,0.908,-23.04,5.34,-5.4,2,1
17171.046,-0.017,0.494,0.925,-24.93,1.22,-5.46,2,1
17171.046,-0.009,0.474,0.933,-23.53,-3.6,-5.01,2,1
17171.062,0.001,0.465,0.926,-19.65,-7.45,-4.43,2,1
17171.078,0.015,0.456,0.917,-14.92,-8.82,-3.23,2,1
17171.093,0.026,0.453,0.906,-7.93,-5.83,-3.39,2,1
17171.093,0.011,0.468,0.908,-7.02,-3.27,-3.85,2,1
17171.109,0.009,0.459,0.932,-7.2,-2.62,-3.72,2,1
17171.125,0.008,0.459,0.959,-6.93,-3.81,-5.01,2,1
17171.125,0.011,0.459,0.971,-5.43,-6.26,-6.81,2,1
17171.14,0.02,0.469,0.968,-2.56,-8.91,-8.7,2,1
17171.156,0.018,0.476,0.951,1.77,-11.69,-9.64,2,1
17171.156,0.038,0.486,0.931,6.41,-14.13,-9.03,2,1
17171.171,0.05,0.513,0.901,10.86,-15.5,-8.39,2,1
17171.187,0.046,0.511,0.866,13.61,-16.08,-7.54,2,1
17171.187,0.057,0.512,0.848,14.44,-15.17,-5.62,2,1
17171.203,0.075,0.522,0.836,14.86,-12.54,-3.69,2,1
17171.218,0.079,0.518,0.824,14.01,-8.45,-2.84,2,1
17171.218,0.079,0.516,0.825,11.02,-3.66,-2.17,2,1
17171.234,0.068,0.522,0.84,9.46,1.43,-0.18,2,1
17171.25,0.062,0.526,0.855,8.94,5.43,2.35,2,1
17171.265,0.055,0.527,0.874,6.44,7.14,5.34,2,1
17171.265,0.05,0.506,0.887,5.4,4.97,4.97,2,1
17171.281,0.045,0.501,0.897,5.01,1.5,2.78,2,1
17171.296,0.047,0.507,0.889,4.7,-3.27,0.82,2,1
17171.296,0.05,0.506,0.871,4.0,-7.42,-0.37,2,1
17171.312,0.068,0.503,0.856,3.17,-9.83,0.09,2,1
17171.328,0.083,0.501,0.838,2.99,-10.25,0.76,2,1
17171.328,0.088,0.494,0.826,2.75,-9.34,1.22,2,1
17171.343,0.092,0.496,0.816,1.4,-8.18,1.25,2,1
17171.359,0.094,0.486,0.801,-0.34,-7.29,0.18,2,1
17171.359,0.097,0.483,0.799,-0.79,-5.92,0.34,2,1
17171.375,0.106,0.491,0.8,-1.34,-3.94,0.31,2,1
17171.39,0.088,0.485,0.807,-3.02,-2.23,-0.27,2,1
17171.39,0.091,0.478,0.815,-4.64,-0.43,-0.15,2,1
17171.406,0.073,0.489,0.829,-7.39,0.21,-1.74,2,1
17171.406,0.06,0.489,0.837,-12.57,-0.58,-2.17,2,1
17171.421,0.069,0.49,0.821,-15.9,-0.46,-1.86,2,1
17171.437,0.117,0.407,0.791,-10.86,5.04,-2.29,2,1
17171.437,-0.024,0.469,0.877,-12.27,9.19,-5.22,2,1
17171.453,-0.036,0.623,0.968,-20.94,2.44,-1.71,2,1
17171.468,-0.009,0.537,0.959,-18.95,-5.19,2.69,2,1
17171.468,-0.018,0.494,0.934,-17.7,-10.28,4.76,2,1
17171.484,0.045,0.471,0.924,-4.03,-11.96,5.95,2,1
17171.5,0.05,0.44,0.899,6.78,-10.04,5.25,2,1
17171.5,0.05,0.422,0.894,16.85,-9.55,5.01,2,1
17171.515,0.07,0.455,0.88,23.65,-10.16,3.69,2,1
17171.531,0.078,0.471,0.866,25.91,-11.47,2.32,2,1
17171.531,0.076,0.484,0.849,24.57,-12.76,1.43,2,1
17171.546,0.067,0.496,0.856,20.29,-14.19,0.92,2,1
17171.562,0.03,0.545,0.886,11.81,-18.62,0.37,2,1
17171.562,0.124,0.523,0.839,5.95,-23.87,2.01,2,1
17171.578,0.109,0.425,0.791,10.25,-19.23,0.27,2,1
17171.578,0.101,0.488,0.813,8.03,-15.41,-1.31,2,1
17171.593,0.132,0.498,0.821,9.89,-12.3,-1.25,2,1
17171.609,0.102,0.492,0.819,14.04,-8.18,-2.2,2,1
17171.609,0.098,0.533,0.787,19.9,-3.94,1.53,2,1
17171.625,0.122,0.518,0.787,20.36,0.24,0.61,2,1
17171.625,0.087,0.547,0.822,10.86,1.89,-4.09,2,1
17171.64,0.075,0.56,0.822,5.71,2.59,-3.23,2,1
17171.656,0.078,0.549,0.823,-0.95,2.53,-2.62,2,1
17171.656,0.074,0.548,0.85,-10.22,1.74,-2.41,2,1
17171.671,0.076,0.515,0.862,-14.25,0.76,-1.53,2,1
17171.687,0.081,0.492,0.865,-14.25,-0.06,-0.58,2,1
17171.687,0.09,0.481,0.873,-11.44,-0.03,-0.18,2,1
17171.703,0.087,0.48,0.871,-6.9,0.24,-0.61,2,1
17171.718,0.092,0.472,0.859,-1.07,1.37,-0.24,2,1
17171.718,0.095,0.484,0.862,1.34,2.26,-0.09,2,1
17171.734,0.101,0.493,0.855,2.41,2.47,-0.03,2,1
17171.75,0.109,0.489,0.847,2.84,3.11,0.09,2,1
17171.75,0.111,0.499,0.853,1.04,3.42,0.03,2,1
17171.765,0.112,0.498,0.856,-1.19,2.75,-0.12,2,1
17171.765,0.116,0.492,0.856,-2.69,2.17,-0.21,2,1
17171.781,0.122,0.494,0.854,-3.85,1.92,-0.27,2,1
17171.796,0.12,0.498,0.86,-4.73,1.71,-0.58,2,1
17171.796,0.113,0.498,0.864,-5.07,1.71,-0.67,2,1
17171.812,0.112,0.498,0.867,-5.01,1.71,-0.7,2,1
17171.828,0.108,0.497,0.87,-4.97,1.53,-0.67,2,1
17171.828,0.097,0.496,0.873,-4.52,1.25,-0.52,2,1
17171.843,0.095,0.493,0.872,-3.48,0.64,-0.21,2,1
17171.859,0.095,0.484,0.868,-2.44,0.15,-0.09,2,1
17171.859,0.096,0.48,0.865,-1.59,-0.18,-0.27,2,1
17171.875,0.095,0.479,0.856,-0.58,-0.4,-0.73,2,1
17171.875,0.089,0.474,0.846,0.03,-0.46,-1.22,2,1
17171.89,0.091,0.471,0.842,0.21,-0.34,-1.62,2,1
17171.906,0.093,0.472,0.837,0.24,0.03,-2.11,2,1
17171.906,0.094,0.469,0.824,-0.06,0.31,-2.62,2,1
17171.921,0.093,0.456,0.819,-0.46,1.22,-3.85,2,1
17171.937,0.089,0.456,0.828,-2.01,1.68,-5.16,2,1
17171.937,0.091,0.459,0.835,-3.69,1.83,-5.65,2,1
17171.953,0.081,0.47,0.845,-4.0,2.96,-5.8,2,1
17171.968,0.095,0.488,0.822,-5.13,3.78,-5.86,2,1
17171.968,0.124,0.392,0.815,-1.77,9.03,-6.96,2,1
17171.984,-0.037,0.522,0.915,-5.31,10.5,-9.34,2,1
17171.984,0.011,0.631,0.987,-11.93,0.49,-3.33,2,1
17172.0,0.018,0.531,0.941,-7.51,-7.11,0.49,2,1
17172.015,0.037,0.51,0.907,-8.79,-11.17,1.62,2,1
17172.031,0.079,0.499,0.909,-7.11,-11.29,1.5,2,1
17172.031,0.062,0.475,0.887,2.75,-7.9,0.18,2,1
17172.046,0.063,0.487,0.88,13.15,-4.67,0.89,2,1
17172.046,0.068,0.506,0.883,20.48,-3.11,1.59,2,1
17172.062,0.064,0.513,0.879,23.65,-3.66,1.77,2,1
17172.078,0.068,0.527,0.862,24.02,-5.46,2.08,2,1
17172.078,0.078,0.528,0.841,22.03,-6.96,2.75,2,1
17172.093,0.087,0.528,0.826,18.4,-7.32,2.9,2,1
17172.109,0.066,0.532,0.841,13.03,-7.69,2.26,2,1
17172.125,0.148,0.486,0.79,4.85,-10.62,4.73,2,1
17172.125,0.088,0.472,0.778,5.86,-4.64,0.92,2,1
17172.14,0.108,0.528,0.807,3.17,-1.1,1.28,2,1
17172.156,0.103,0.511,0.813,5.62,1.59,1.25,2,1
17172.156,0.085,0.511,0.815,5.55,3.02,1.65,2,1
17172.171,0.095,0.522,0.825,2.75,2.32,2.23,2,1
17172.187,0.09,0.517,0.827,0.79,1.07,1.59,2,1
17172.187,0.084,0.511,0.83,-1.04,0.06,1.53,2,1
17172.203,0.09,0.514,0.829,-2.53,-0.98,1.13,2,1
17172.218,0.09,0.509,0.835,-3.17,-1.25,0.82,2,1
17172.218,0.086,0.507,0.854,-3.42,-1.28,0.73,2,1
17172.234,0.081,0.528,0.841,-0.58,-0.98,1.71,2,1
17172.234,0.1,0.493,0.826,4.67,1.1,3.23,2,1
17172.25,0.095,0.513,0.855,1.65,1.56,1.19,2,1
17172.265,0.091,0.517,0.851,2.04,1.4,0.76,2,1
17172.265,0.098,0.497,0.825,4.18,1.77,1.53,2,1
17172.296,0.094,0.515,0.84,-2.23,0.79,-0.64,2,1
17172.312,0.093,0.502,0.839,-3.05,0.58,-0.37,2,1
17172.312,0.098,0.5,0.84,-4.21,0.27,-0.4,2,1
17172.328,0.097,0.497,0.843,-4.7,0.58,-0.64,2,1
17172.328,0.092,0.489,0.847,-3.78,1.34,-0.64,2,1
17172.343,0.094,0.484,0.847,-2.35,1.65,-0.67,2,1
17172.359,0.096,0.483,0.845,-1.46,1.53,-1.28,2,1
17172.359,0.095,0.482,0.842,-0.55,1.65,-2.2,2,1
17172.375,0.095,0.486,0.84,-1.04,1.83,-3.02,2,1
17172.39,0.093,0.492,0.84,-2.32,2.14,-3.39,2,1
17172.39,0.095,0.498,0.844,-4.03,2.5,-3.72,2,1
17172.406,0.099,0.491,0.843,-5.89,3.45,-3.97,2,1
17172.406,0.095,0.479,0.845,-7.57,4.73,-4.82,2,1
17172.421,0.093,0.473,0.85,-8.3,6.59,-5.86,2,1
17172.437,0.1,0.485,0.84,-7.2,9.67,-6.99,2,1
17172.437,0.14,0.448,0.806,-2.11,15.9,-8.21,2,1
17172.453,0.006,0.485,0.892,0.61,22.25,-10.99,2,1
17172.468,-0.031,0.663,0.973,-6.56,3.05,0.21,2,1
17172.468,0.022,0.586,0.957,-5.74,-3.45,2.2,2,1
17172.484,0.009,0.537,0.918,-4.18,-6.56,4.64,2,1
17172.5,0.055,0.517,0.897,3.51,-4.94,3.81,2,1
17172.5,0.047,0.506,0.856,11.81,-1.59,3.3,2,1
17172.515,0.05,0.534,0.856,16.97,0.46,3.6,2,1
17172.515,0.041,0.537,0.854,19.29,0.82,3.72,2,1
17172.531,0.043,0.538,0.852,19.1,-0.09,4.46,2,1
17172.546,0.031,0.546,0.861,16.66,-2.04,5.04,2,1
17172.546,0.017,0.596,0.876,10.86,-7.2,6.5,2,1
17172.562,0.114,0.515,0.815,8.67,-10.25,8.42,2,1
17172.578,0.064,0.459,0.783,10.19,-5.77,4.0,2,1
17172.578,0.084,0.535,0.812,5.58,-3.78,2.87,2,1
17172.593,0.09,0.523,0.82,5.89,-2.04,2.53,2,1
17172.609,0.073,0.518,0.8,6.01,-0.43,2.26,2,1
17172.609,0.087,0.507,0.799,7.78,1.5,3.94,2,1
17172.625,0.071,0.541,0.826,6.26,2.26,4.33,2,1
17172.625,0.077,0.527,0.825,5.46,1.31,5.07,2,1
17172.64,0.08,0.519,0.818,3.91,0.73,5.13,2,1
17172.656,0.08,0.526,0.827,1.25,0.27,4.52,2,1
17172.656,0.074,0.521,0.838,-1.4,-0.64,3.39,2,1
17172.671,0.07,0.515,0.847,-3.91,-2.14,2.66,2,1
17172.687,0.076,0.513,0.85,-5.07,-3.45,2.69,2,1
17172.687,0.072,0.511,0.854,-4.76,-4.12,2.78,2,1
17172.703,0.064,0.516,0.864,-3.54,-3.78,2.56,2,1
17172.718,0.05,0.524,0.872,-1.8,-3.17,2.2,2,1
17172.718,0.036,0.539,0.881,0.21,-1.86,2.23,2,1
17172.734,0.025,0.551,0.891,2.56,-0.24,2.66,2,1
17172.734,0.01,0.557,0.903,4.88,0.89,3.81,2,1
17172.75,-0.008,0.57,0.917,7.66,1.59,5.19,2,1
17172.765,-0.032,0.585,0.933,11.51,2.35,6.29,2,1
17172.765,-0.047,0.61,0.948,15.81,3.69,7.39,2,1
17172.781,-0.058,0.631,0.957,20.29,4.91,8.97,2,1
17172.796,-0.069,0.645,0.962,24.69,5.46,11.2,2,1
17172.796,-0.076,0.664,0.962,29.39,6.35,14.1,2,1
17172.812,-0.085,0.675,0.959,33.66,7.93,17.21,2,1
17172.828,-0.093,0.676,0.958,37.57,10.41,20.78,2,1
17172.828,-0.114,0.671,0.951,41.93,13.15,25.03,2,1
17172.843,-0.127,0.671,0.94,46.57,15.56,29.05,2,1
17172.843,-0.152,0.668,0.928,51.45,18.25,33.23,2,1
17172.859,-0.174,0.661,0.915,56.64,20.72,37.23,2,1
17172.875,-0.174,0.652,0.895,61.31,23.22,41.63,2,1
17172.875,-0.167,0.638,0.869,65.83,25.85,45.69,2,1
17172.89,-0.168,0.625,0.842,70.8,30.24,49.26,2,1
17172.906,-0.175,0.641,0.828,74.77,37.87,51.21,2,1
17172.921,-0.185,0.66,0.818,76.75,46.6,51.97,2,1
17172.921,-0.188,0.667,0.803,76.54,54.66,53.16,2,1
17172.937,-0.191,0.672,0.797,74.07,61.4,55.6,2,1
17172.937,-0.191,0.677,0.786,70.22,64.97,58.78,2,1
17172.953,-0.183,0.677,0.774,65.13,66.62,61.86,2,1
17172.968,-0.166,0.667,0.758,58.9,67.2,64.39,2,1
17172.968,-0.155,0.649,0.739,51.97,67.05,66.13,2,1
17172.984,-0.152,0.652,0.726,44.25,67.84,65.71,2,1
17173.0,-0.119,0.632,0.716,36.04,69.09,64.52,2,1
17173.0,-0.097,0.606,0.701,27.44,71.2,61.65,2,1
17173.015,-0.071,0.587,0.682,19.26,74.28,58.02,2,1
17173.015,-0.04,0.573,0.656,11.96,79.2,53.77,2,1
17173.031,-0.015,0.559,0.63,4.12,86.49,48.16,2,1
17173.046,-0.014,0.549,0.609,-4.61,96.26,40.93,2,1
17173.046,-0.005,0.534,0.593,-14.77,107.09,33.3,2,1
17173.062,0.003,0.519,0.588,-25.67,119.05,25.09,2,1
17173.078,0.001,0.514,0.599,-36.01,130.89,15.29,2,1
17173.078,-0.008,0.499,0.604,-45.53,139.77,6.81,2,1
17173.093,-0.01,0.496,0.622,-53.35,146.24,-1.01,2,1
17173.109,-0.007,0.486,0.636,-58.08,150.91,-7.69,2,1
17173.109,-0.031,0.485,0.634,-59.88,153.9,-13.7,2,1
17173.125,-0.035,0.493,0.644,-59.27,156.41,-19.99,2,1
17173.125,-0.033,0.477,0.647,-56.55,159.46,-25.88,2,1
17173.14,-0.059,0.466,0.647,-53.62,163.55,-31.4,2,1
17173.156,-0.076,0.476,0.653,-50.02,169.65,-38.33,2,1
17173.156,-0.094,0.466,0.651,-45.59,177.83,-45.41,2,1
17173.171,-0.131,0.461,0.644,-41.14,188.57,-52.34,2,1
17173.187,-0.157,0.46,0.638,-37.54,201.45,-59.54,2,1
17173.187,-0.193,0.452,0.62,-34.46,215.77,-67.6,2,1
17173.203,-0.236,0.448,0.615,-31.56,230.87,-76.2,2,1
17173.218,-0.28,0.439,0.616,-27.92,244.76,-84.9,2,1
17173.218,-0.326,0.444,0.615,-24.23,255.87,-94.49,2,1
17173.234,-0.382,0.468,0.625,-21.85,263.47,-103.79,2,1
17173.25,-0.435,0.485,0.647,-21.15,267.04,-111.7,2,1
17173.25,-0.489,0.492,0.68,-22.13,266.21,-117.68,2,1
17173.265,-0.544,0.498,0.72,-22.98,262.03,-121.68,2,1
17173.281,-0.603,0.505,0.761,-21.15,254.52,-123.87,2,1
17173.281,-0.661,0.506,0.807,-16.33,243.08,-123.94,2,1
17173.296,-0.73,0.517,0.871,-9.16,227.09,-120.49,2,1
17173.312,-0.864,0.591,0.944,-1.43,175.33,-102.42,2,1
17173.328,-0.927,0.624,0.952,-4.91,141.45,-87.62,2,1
17173.328,-0.962,0.624,0.935,-10.13,106.54,-69.19,2,1
17173.343,-0.97,0.595,0.89,-15.11,73.24,-49.04,2,1
17173.359,-0.961,0.544,0.843,-16.63,45.01,-29.24,2,1
17173.359,-0.949,0.496,0.766,-13.15,23.62,-13.06,2,1
17173.375,-0.929,0.466,0.673,-7.39,10.38,-1.86,2,1
17173.375,-0.901,0.449,0.592,-1.92,4.82,3.05,2,1
17173.39,-0.867,0.436,0.527,2.99,6.65,3.02,2,1
17173.406,-0.852,0.431,0.477,6.71,13.64,0.85,2,1
17173.406,-0.836,0.432,0.461,9.67,22.95,-1.89,2,1
17173.421,-0.831,0.446,0.454,11.84,31.8,-4.27,2,1
17173.437,-0.833,0.464,0.458,12.94,39.86,-4.24,2,1
17173.437,-0.838,0.468,0.464,17.12,50.23,5.04,2,1
17173.453,-0.849,0.485,0.48,18.86,51.52,13.21,2,1
17173.468,-0.844,0.509,0.506,20.87,49.81,22.71,2,1
17173.468,-0.837,0.518,0.527,23.13,46.02,32.65,2,1
17173.484,-0.825,0.534,0.538,25.42,40.31,41.78,2,1
17173.5,-0.802,0.528,0.532,27.28,33.36,48.95,2,1
17173.5,-0.782,0.523,0.509,28.41,26.09,53.65,2,1
17173.515,-0.756,0.513,0.482,28.44,18.86,55.09,2,1
17173.515,-0.733,0.491,0.449,27.99,13.15,53.5,2,1
17173.531,-0.719,0.481,0.427,26.4,9.67,50.39,2,1
17173.546,-0.703,0.465,0.412,25.36,7.54,46.6,2,1
17173.546,-0.687,0.455,0.407,24.45,6.2,41.44,2,1
17173.562,-0.671,0.447,0.409,23.87,5.62,35.62,2,1
17173.578,-0.673,0.449,0.398,23.59,4.64,29.51,2,1
17173.578,-0.681,0.46,0.404,22.31,3.6,24.69,2,1
17173.593,-0.681,0.465,0.419,21.36,2.29,21.3,2,1
17173.609,-0.683,0.467,0.429,21.64,0.46,19.07,2,1
17173.609,-0.648,0.491,0.429,22.52,-2.41,17.7,2,1
17173.625,-0.645,0.521,0.414,22.74,-6.13,14.86,2,1
17173.625,-0.644,0.508,0.427,22.89,-7.23,13.98,2,1
17173.64,-0.628,0.512,0.422,23.01,-9.03,14.16,2,1
17173.656,-0.616,0.531,0.408,23.16,-11.05,13.98,2,1
17173.656,-0.595,0.533,0.4,22.1,-11.57,14.47,2,1
17173.671,-0.58,0.528,0.394,20.91,-11.72,15.29,2,1
17173.687,-0.561,0.52,0.39,20.78,-10.96,15.63,2,1
17173.687,-0.548,0.509,0.385,20.94,-9.58,15.17,2,1
17173.703,-0.541,0.513,0.385,20.63,-7.69,13.49,2,1
17173.718,-0.531,0.506,0.374,20.36,-5.31,10.96,2,1
17173.718,-0.535,0.496,0.37,19.75,-2.56,7.87,2,1
17173.734,-0.548,0.487,0.374,19.93,0.09,3.94,2,1
17173.734,-0.565,0.482,0.377,20.48,2.08,-0.61,2,1
17173.75,-0.581,0.48,0.386,20.14,3.63,-5.43,2,1
17173.765,-0.592,0.472,0.4,19.23,5.13,-10.16,2,1
17173.781,-0.609,0.458,0.41,19.17,6.13,-14.5,2,1
17173.781,-0.618,0.456,0.424,19.17,5.89,-18.71,2,1
17173.796,-0.627,0.442,0.429,20.75,4.7,-22.74,2,1
17173.796,-0.638,0.435,0.443,23.96,2.96,-26.18,2,1
17173.812,-0.651,0.43,0.436,28.11,1.22,-29.11,2,1
17173.828,-0.655,0.425,0.425,31.37,-0.21,-32.14,2,1
17173.828,-0.662,0.428,0.403,34.0,-0.95,-34.88,2,1
17173.843,-0.662,0.43,0.379,35.98,-0.4,-35.92,2,1
17173.843,-0.655,0.441,0.361,36.29,0.85,-35.34,2,1
17173.859,-0.649,0.439,0.336,37.45,3.36,-33.51,2,1
17173.875,-0.647,0.447,0.314,38.27,6.53,-30.88,2,1
17173.875,-0.644,0.465,0.305,37.93,9.55,-28.38,2,1
17173.89,-0.646,0.47,0.298,38.39,13.18,-26.61,2,1
17173.906,-0.657,0.478,0.295,37.17,16.69,-26.22,2,1
17173.906,-0.67,0.477,0.282,36.26,20.48,-26.34,2,1
17173.921,-0.68,0.486,0.268,34.55,24.81,-27.8,2,1
17173.937,-0.702,0.505,0.245,33.2,29.45,-31.4,2,1
17173.953,-0.729,0.529,0.21,31.98,35.0,-36.04,2,1
17173.953,-0.747,0.55,0.195,27.8,40.5,-40.71,2,1
17173.953,-0.777,0.567,0.193,22.68,46.39,-43.06,2,1
17173.968,-0.802,0.58,0.209,18.59,51.97,-41.72,2,1
17173.984,-0.825,0.589,0.237,16.02,55.24,-36.93,2,1
17174.0,-0.851,0.58,0.257,15.17,55.48,-30.15,2,1
17174.0,-0.891,0.569,0.264,15.44,52.83,-23.87,2,1
17174.015,-0.913,0.557,0.263,14.74,47.67,-19.17,2,1
17174.031,-0.933,0.546,0.255,10.9,40.86,-16.88,2,1
17174.031,-0.941,0.545,0.25,4.03,32.81,-17.18,2,1
17174.046,-0.932,0.522,0.25,-3.3,25.61,-18.19,2,1
17174.046,-0.92,0.49,0.256,-8.97,19.29,-18.8,2,1
17174.062,-0.904,0.473,0.254,-10.77,13.31,-19.35,2,1
17174.078,-0.878,0.469,0.248,-11.29,8.0,-19.53,2,1
17174.078,-0.863,0.477,0.235,-11.99,3.05,-20.08,2,1
17174.093,-0.863,0.491,0.219,-13.0,-1.83,-21.42,2,1
17174.109,-0.853,0.492,0.206,-15.26,-5.74,-22.31,2,1
17174.109,-0.844,0.486,0.199,-18.25,-8.88,-21.55,2,1
17174.125,-0.834,0.494,0.198,-21.88,-11.26,-18.98,2,1
17174.125,-0.825,0.491,0.203,-24.75,-12.94,-15.11,2,1
17174.156,-0.806,0.47,0.21,-23.96,-15.87,-2.47,2,1
17174.171,-0.794,0.46,0.199,-21.64,-16.69,5.62,2,1
17174.171,-0.785,0.448,0.196,-20.97,-16.63,13.58,2,1
17174.187,-0.779,0.432,0.195,-20.36,-15.72,20.14,2,1
17174.187,-0.777,0.41,0.19,-18.92,-13.92,25.15,2,1
17174.203,-0.788,0.398,0.191,-17.46,-11.63,27.59,2,1
17174.218,-0.796,0.393,0.188,-16.48,-8.91,26.67,2,1
17174.218,-0.807,0.405,0.204,-17.58,-6.71,23.29,2,1
17174.234,-0.827,0.415,0.226,-18.37,-5.31,18.8,2,1
17174.234,-0.837,0.404,0.239,-16.24,-4.79,14.89,2,1
17174.25,-0.841,0.413,0.251,-14.47,-5.43,11.72,2,1
17174.265,-0.84,0.44,0.263,-13.7,-6.74,9.22,2,1
17174.265,-0.84,0.45,0.27,-12.97,-7.69,7.75,2,1
17174.281,-0.849,0.443,0.263,-11.63,-9.06,7.29,2,1
17174.296,-0.852,0.439,0.259,-10.53,-9.7,7.48,2,1
17174.296,-0.844,0.446,0.257,-8.64,-9.16,8.09,2,1
17174.328,-0.832,0.462,0.232,-5.86,-7.9,5.31,2,1
17174.328,-0.825,0.462,0.23,-6.01,-7.05,2.2,2,1
17174.343,-0.819,0.465,0.231,-6.04,-6.1,-0.89,2,1
17174.359,-0.825,0.472,0.232,-5.1,-5.31,-4.33,2,1
17174.359,-0.83,0.474,0.237,-4.61,-4.61,-7.63,2,1
17174.375,-0.834,0.475,0.245,-4.43,-3.94,-9.77,2,1
17174.39,-0.833,0.476,0.257,-4.3,-3.57,-10.59,2,1
17174.39,-0.825,0.48,0.268,-4.06,-4.12,-10.22,2,1
17174.406,-0.824,0.479,0.27,-3.51,-5.28,-8.85,2,1
17174.406,-0.821,0.473,0.267,-2.9,-6.59,-6.38,2,1
17174.421,-0.82,0.467,0.26,-2.01,-7.48,-3.81,2,1
17174.437,-0.826,0.467,0.247,-0.58,-7.2,-1.16,2,1
17174.437,-0.83,0.463,0.241,-0.58,-5.89,-1.4,2,1
17174.453,-0.833,0.46,0.237,-0.37,-4.12,-2.23,2,1
17174.468,-0.84,0.445,0.24,-0.06,-2.53,-3.48,2,1
17174.468,-0.844,0.451,0.245,0.27,-1.07,-4.79,2,1
17174.484,-0.849,0.467,0.262,-0.37,0.24,-6.53,2,1
17174.5,-0.848,0.466,0.269,-1.07,0.15,-6.47,2,1
17174.515,-0.844,0.463,0.274,-1.43,-1.01,-6.16,2,1
17174.515,-0.846,0.46,0.278,-1.46,-2.44,-5.25,2,1
17174.531,-0.847,0.458,0.279,-1.34,-3.75,-3.78,2,1
17174.546,-0.847,0.456,0.275,-1.53,-4.85,-1.98,2,1
17174.546,-0.852,0.453,0.276,-1.89,-5.52,-0.12,2,1
17174.562,-0.857,0.446,0.278,-2.47,-5.68,1.83,2,1
17174.578,-0.86,0.433,0.279,-2.96,-5.04,4.03,2,1
17174.578,-0.865,0.422,0.293,-2.78,-4.03,6.04,2,1
17174.593,-0.869,0.41,0.309,-2.08,-3.75,7.57,2,1
17174.609,-0.868,0.401,0.314,-1.07,-4.7,8.48,2,1
17174.609,-0.86,0.399,0.318,-0.46,-6.47,8.33,2,1
17174.625,-0.862,0.405,0.316,0.12,-8.97,7.23,2,1
17174.625,-0.856,0.415,0.312,-0.21,-12.33,5.13,2,1
17174.64,-0.837,0.424,0.303,-1.68,-15.93,2.26,2,1
17174.656,-0.796,0.431,0.281,-3.11,-20.42,-4.03,2,1
17174.671,-0.773,0.437,0.266,-2.56,-20.78,-7.39,2,1
17174.687,-0.762,0.452,0.253,-2.26,-20.2,-10.19,2,1
17174.687,-0.756,0.459,0.245,-2.04,-18.4,-11.63,2,1
17174.703,-0.758,0.467,0.235,-1.59,-15.78,-12.36,2,1
17174.718,-0.76,0.479,0.227,-1.43,-12.85,-12.97,2,1
17174.718,-0.763,0.484,0.226,-2.01,-9.49,-13.28,2,1
17174.734,-0.772,0.49,0.228,-2.41,-5.52,-13.0,2,1
17174.734,-0.782,0.495,0.23,-2.38,-1.19,-11.72,2,1
17174.75,-0.793,0.495,0.239,-1.8,2.59,-9.64,2,1
17174.765,-0.803,0.496,0.249,-1.07,5.74,-7.66,2,1
17174.765,-0.814,0.495,0.251,-0.21,8.0,-5.89,2,1
17174.781,-0.833,0.495,0.257,0.24,9.22,-3.75,2,1
17174.796,-0.85,0.498,0.265,0.0,9.55,-2.32,2,1
17174.796,-0.86,0.495,0.271,-0.92,9.09,-0.89,2,1
17174.812,-0.863,0.483,0.279,-1.92,8.21,0.55,2,1
17174.828,-0.863,0.477,0.285,-2.47,6.81,1.92,2,1
17174.828,-0.862,0.471,0.286,-2.66,4.79,3.11,2,1
17174.843,-0.862,0.461,0.284,-2.87,2.81,4.06,2,1
17174.859,-0.857,0.453,0.281,-3.27,1.19,4.82,2,1
17174.859,-0.85,0.448,0.274,-3.57,0.31,5.31,2,1
17174.875,-0.84,0.441,0.271,-3.94,-0.21,5.62,2,1
17174.875,-0.832,0.433,0.27,-3.81,-0.27,5.37,2,1
17174.89,-0.822,0.434,0.264,-3.27,-0.15,5.07,2,1
17174.906,-0.816,0.435,0.262,-2.62,0.24,4.39,2,1
17174.906,-0.817,0.434,0.26,-1.83,0.61,3.42,2,1
17174.921,-0.817,0.433,0.258,-1.4,1.07,2.23,2,1
17174.937,-0.822,0.429,0.255,-1.22,1.53,0.76,2,1
17174.937,-0.822,0.43,0.262,-1.56,2.5,-0.37,2,1
17174.953,-0.824,0.428,0.269,-1.28,3.33,-0.89,2,1
17174.968,-0.829,0.426,0.273,-0.31,3.6,-1.31,2,1
17174.968,-0.83,0.428,0.273,0.52,3.42,-1.68,2,1
17174.984,-0.836,0.439,0.272,0.82,2.93,-1.92,2,1
17175.0,-0.841,0.44,0.277,0.27,3.02,-1.53,2,1
17175.0,-0.84,0.435,0.284,0.34,3.11,-1.01,2,1
17175.015,-0.837,0.436,0.287,1.34,2.69,-0.67,2,1
17175.015,-0.835,0.436,0.292,2.29,2.32,-0.46,2,1
17175.031,-0.836,0.439,0.294,2.66,1.5,-0.43,2,1
17175.046,-0.838,0.444,0.295,2.32,0.27,-0.06,2,1
17175.046,-0.84,0.44,0.298,1.43,-0.79,0.52,2,1
17175.062,-0.844,0.429,0.3,0.27,-1.46,1.13,2,1
17175.078,-0.849,0.417,0.306,-0.12,-1.68,1.89,2,1
17175.093,-0.849,0.406,0.312,0.0,-1.4,3.02,2,1
17175.093,-0.847,0.404,0.318,0.34,-0.89,5.01,2,1
17175.093,-0.837,0.4,0.326,1.31,-0.64,7.26,2,1
17175.109,-0.826,0.398,0.323,2.9,-1.16,8.7,2,1
17175.125,-0.812,0.405,0.318,4.21,-2.2,9.03,2,1
17175.125,-0.8,0.421,0.313,4.3,-3.72,8.3,2,1
17175.14,-0.782,0.431,0.299,4.0,-5.28,6.96,2,1
17175.156,-0.767,0.44,0.285,3.51,-6.16,5.31,2,1
17175.171,-0.755,0.452,0.271,2.9,-6.41,2.99,2,1
17175.171,-0.752,0.461,0.256,2.35,-5.52,-0.12,2,1
17175.187,-0.758,0.47,0.244,1.34,-3.78,-3.48,2,1
17175.187,-0.773,0.48,0.238,0.18,-1.22,-6.38,2,1
17175.203,-0.787,0.488,0.236,-1.19,1.86,-8.55,2,1
17175.218,-0.803,0.492,0.24,-2.47,5.04,-9.7,2,1
17175.218,-0.818,0.49,0.252,-3.42,7.84,-9.89,2,1
17175.234,-0.831,0.485,0.268,-3.97,10.01,-9.34,2,1
17175.234,-0.846,0.481,0.286,-3.6,11.2,-7.57,2,1
17175.25,-0.856,0.48,0.296,-2.5,11.32,-4.79,2,1
17175.265,-0.862,0.474,0.3,-1.98,10.5,-1.71,2,1
17175.265,-0.867,0.47,0.297,-1.74,9.16,1.59,2,1
17175.281,-0.867,0.466,0.292,-1.56,7.39,4.06,2,1
17175.296,-0.861,0.46,0.285,-1.71,5.65,5.43,2,1
17175.312,-0.853,0.458,0.281,-2.35,4.12,5.89,2,1
17175.312,-0.847,0.453,0.277,-3.02,3.3,5.92,2,1
17175.328,-0.837,0.444,0.271,-3.33,2.78,5.77,2,1
17175.328,-0.828,0.442,0.265,-3.63,2.32,5.04,2,1
17175.343,-0.823,0.443,0.261,-3.91,2.26,4.06,2,1
17175.359,-0.818,0.44,0.253,-4.27,2.23,3.23,2,1
17175.359,-0.814,0.433,0.251,-4.24,2.32,2.69,2,1
17175.375,-0.813,0.424,0.249,-3.69,2.99,2.2,2,1
17175.375,-0.81,0.417,0.247,-2.47,4.03,1.95,2,1
17175.39,-0.811,0.415,0.245,-0.98,5.28,1.77,2,1
17175.406,-0.818,0.416,0.244,0.34,6.32,1.31,2,1
17175.406,-0.825,0.419,0.242,0.85,7.78,-1.22,2,1
17175.421,-0.828,0.424,0.239,0.18,7.93,-2.99,2,1
17175.437,-0.832,0.43,0.239,-0.27,8.21,-4.58,2,1
17175.437,-0.84,0.43,0.239,-0.49,8.48,-5.98,2,1
17175.453,-0.856,0.443,0.241,-0.34,8.91,-7.02,2,1
17175.453,-0.861,0.449,0.245,-0.09,9.0,-7.9,2,1
17175.468,-0.866,0.454,0.252,-0.37,8.55,-8.67,2,1
17175.484,-0.866,0.459,0.261,-0.79,7.57,-8.85,2,1
17175.484,-0.863,0.458,0.265,-0.55,6.44,-7.75,2,1
17175.5,-0.859,0.461,0.265,-0.06,5.07,-5.95,2,1
17175.515,-0.855,0.462,0.261,0.4,4.03,-3.69,2,1
17175.531,-0.855,0.464,0.262,0.55,3.14,-1.65,2,1
17175.531,-0.848,0.467,0.264,0.12,2.59,0.34,2,1
17175.546,-0.837,0.465,0.264,-0.61,2.62,1.98,2,1
17175.546,-0.835,0.459,0.268,-1.65,2.62,3.23,2,1
17175.562,-0.832,0.451,0.28,-2.47,2.9,4.33,2,1
17175.578,-0.827,0.445,0.288,-2.81,3.11,5.28,2,1
17175.578,-0.823,0.439,0.296,-2.96,3.45,5.71,2,1
17175.593,-0.819,0.433,0.307,-3.17,3.75,5.8,2,1
17175.609,-0.812,0.428,0.315,-3.36,4.09,5.89,2,1
17175.609,-0.804,0.427,0.317,-3.36,4.43,6.2,2,1
17175.625,-0.792,0.421,0.321,-4.0,5.13,6.84,2,1
17175.625,-0.78,0.414,0.32,-4.67,6.13,7.51,2,1
17175.64,-0.768,0.409,0.319,-5.04,7.32,8.09,2,1
17175.656,-0.763,0.407,0.317,-5.68,8.58,8.27,2,1
17175.656,-0.761,0.406,0.317,-6.41,9.86,7.57,2,1
17175.671,-0.762,0.413,0.313,-7.75,10.93,5.95,2,1
17175.687,-0.769,0.429,0.313,-10.38,11.96,3.81,2,1
17175.687,-0.777,0.44,0.324,-13.43,12.63,1.62,2,1
17175.703,-0.785,0.451,0.33,-16.66,12.7,-0.58,2,1
17175.718,-0.798,0.464,0.337,-20.02,12.3,-2.29,2,1
17175.718,-0.813,0.473,0.344,-22.64,11.75,-2.99,2,1
17175.734,-0.824,0.475,0.348,-24.63,11.08,-2.01,2,1
17175.734,-0.834,0.472,0.342,-25.36,10.47,0.46,2,1
17175.75,-0.836,0.477,0.33,-25.03,9.98,3.81,2,1
17175.765,-0.835,0.472,0.32,-24.48,10.53,7.48,2,1
17175.781,-0.833,0.465,0.305,-23.93,11.9,10.44,2,1
17175.781,-0.835,0.465,0.292,-23.83,13.98,12.48,2,1
17175.796,-0.836,0.459,0.291,-24.72,16.63,13.28,2,1
17175.796,-0.838,0.456,0.296,-25.51,19.17,13.06,2,1
17175.812,-0.833,0.464,0.301,-25.85,20.69,11.9,2,1
17175.828,-0.823,0.469,0.307,-26.73,21.12,10.38,2,1
17175.828,-0.823,0.475,0.31,-28.02,20.33,9.19,2,1
17175.843,-0.822,0.475,0.305,-29.63,18.62,8.36,2,1
17175.859,-0.82,0.47,0.296,-30.79,16.79,8.06,2,1
17175.859,-0.825,0.47,0.282,-31.59,15.32,7.97,2,1
17175.875,-0.83,0.465,0.271,-32.17,14.83,7.66,2,1
17175.875,-0.832,0.461,0.267,-32.47,15.26,7.72,2,1
17175.89,-0.836,0.461,0.266,-32.56,16.24,7.93,2,1
17175.906,-0.838,0.457,0.27,-32.38,17.37,8.3,2,1
17175.906,-0.834,0.449,0.271,-31.71,18.43,8.76,2,1
17175.921,-0.832,0.447,0.273,-30.58,19.38,9.55,2,1
17175.937,-0.832,0.45,0.271,-29.45,19.9,10.1,2,1
17175.953,-0.835,0.451,0.267,-28.99,19.68,10.1,2,1
17175.953,-0.839,0.453,0.266,-29.08,19.01,9.4,2,1
17175.968,-0.839,0.456,0.266,-29.88,18.31,7.87,2,1
17175.968,-0.845,0.461,0.271,-31.19,17.43,5.8,2,1
17175.984,-0.858,0.461,0.285,-32.38,16.11,3.78,2,1
17176.0,-0.865,0.454,0.305,-33.02,14.37,1.86,2,1
17176.0,-0.864,0.446,0.329,-33.14,11.84,0.76,2,1
17176.015,-0.864,0.441,0.343,-32.5,7.97,0.79,2,1
17176.015,-0.853,0.438,0.348,-31.68,2.9,2.44,2,1
17176.031,-0.84,0.436,0.339,-30.73,-2.44,5.52,2,1
17176.046,-0.834,0.437,0.324,-29.15,-7.35,9.61,2,1
17176.062,-0.828,0.438,0.305,-27.25,-11.47,13.31,2,1
17176.062,-0.82,0.432,0.285,-25.27,-14.34,15.63,2,1
17176.078,-0.817,0.431,0.27,-23.68,-16.72,16.21,2,1
17176.078,-0.819,0.432,0.26,-22.61,-18.25,14.86,2,1
17176.093,-0.826,0.438,0.251,-22.83,-19.01,11.9,2,1
17176.109,-0.824,0.448,0.252,-25.09,-19.32,8.03,2,1
17176.109,-0.815,0.448,0.255,-27.53,-18.37,4.46,2,1
17176.125,-0.803,0.456,0.257,-29.36,-16.54,1.68,2,1
17176.14,-0.794,0.466,0.256,-30.4,-14.16,0.27,2,1
17176.14,-0.794,0.472,0.259,-29.88,-10.71,-0.27,2,1
17176.156,-0.798,0.488,0.265,-28.99,-6.65,-0.18,2,1
17176.156,-0.803,0.504,0.27,-28.75,-3.11,0.4,2,1
17176.171,-0.791,0.507,0.282,-28.38,-0.55,2.41,2,1
17176.187,-0.782,0.508,0.285,-26.95,1.31,5.52,2,1
17176.187,-0.783,0.518,0.278,-25.12,2.78,8.79,2,1
17176.203,-0.778,0.511,0.266,-23.9,3.85,11.14,2,1
17176.203,-0.781,0.508,0.251,-23.77,5.4,11.84,2,1
17176.218,-0.784,0.502,0.246,-24.69,8.21,11.69,2,1
17176.234,-0.783,0.488,0.247,-25.61,11.9,10.35,2,1
17176.234,-0.777,0.48,0.253,-26.06,16.48,7.66,2,1
17176.25,-0.772,0.472,0.265,-25.85,20.97,4.33,2,1
17176.265,-0.78,0.464,0.277,-25.18,24.35,1.25,2,1
17176.265,-0.786,0.462,0.287,-24.63,26.0,-0.67,2,1
17176.281,-0.798,0.472,0.294,-24.81,26.03,-1.5,2,1
17176.296,-0.812,0.475,0.295,-25.7,24.51,-1.53,2,1
17176.296,-0.821,0.473,0.292,-26.58,21.82,-1.13,2,1
17176.312,-0.823,0.463,0.285,-26.98,19.07,-1.01,2,1
17176.328,-0.832,0.448,0.276,-26.76,17.3,-1.46,2,1
17176.343,-0.835,0.431,0.268,-26.06,17.0,-2.69,2,1
17176.343,-0.844,0.417,0.263,-24.93,17.88,-4.61,2,1
17176.359,-0.849,0.407,0.264,-23.99,19.68,-7.02,2,1
17176.359,-0.854,0.401,0.274,-23.62,21.39,-9.46,2,1
17176.375,-0.856,0.402,0.283,-22.95,22.19,-11.2,2,1
17176.39,-0.862,0.415,0.294,-22.37,22.03,-12.18,2,1
17176.39,-0.877,0.425,0.301,-21.24,17.58,-11.08,2,1
17176.406,-0.888,0.427,0.307,-20.78,14.53,-9.34,2,1
17176.406,-0.894,0.43,0.308,-20.2,11.51,-6.81,2,1
17176.421,-0.89,0.427,0.307,-19.14,9.16,-3.78,2,1
17176.437,-0.887,0.404,0.299,-17.18,7.69,-0.89,2,1
17176.437,-0.877,0.402,0.29,-14.92,6.78,1.74,2,1
17176.453,-0.872,0.401,0.278,-12.67,6.07,3.81,2,1
17176.468,-0.861,0.392,0.274,-10.59,5.68,5.1,2,1
17176.468,-0.854,0.383,0.265,-9.37,5.58,5.52,2,1
17176.484,-0.851,0.372,0.261,-8.27,5.98,5.01,2,1
17176.484,-0.85,0.373,0.267,-7.32,6.9,4.21,2,1
17176.5,-0.85,0.382,0.27,-6.35,7.66,3.23,2,1
17176.515,-0.85,0.389,0.274,-5.25,7.72,2.26,2,1
17176.515,-0.852,0.39,0.282,-4.03,6.87,1.19,2,1
17176.531,-0.855,0.388,0.281,-2.59,5.46,0.18,2,1
17176.546,-0.86,0.389,0.275,-1.25,4.03,-0.4,2,1
17176.546,-0.869,0.383,0.27,-0.46,3.57,-0.64,2,1
17176.562,-0.877,0.372,0.266,-0.18,4.55,-0.24,2,1
17176.578,-0.88,0.37,0.266,0.0,6.47,1.13,2,1
17176.578,-0.885,0.372,0.268,1.68,8.55,2.44,2,1
17176.593,-0.889,0.373,0.263,4.52,10.41,3.57,2,1
17176.609,-0.894,0.386,0.261,6.53,11.38,4.58,2,1
17176.609,-0.892,0.394,0.261,7.42,10.93,4.91,2,1
17176.625,-0.88,0.389,0.262,7.6,9.8,4.58,2,1
17176.625,-0.869,0.386,0.261,8.18,8.36,4.03,2,1
17176.64,-0.862,0.395,0.255,8.18,6.68,2.9,2,1
17176.656,-0.853,0.41,0.244,7.2,4.76,1.1,2,1
17176.656,-0.842,0.422,0.231,5.55,2.69,-1.16,2,1
17176.671,-0.836,0.42,0.22,4.36,1.25,-3.48,2,1
17176.687,-0.837,0.407,0.212,4.33,1.68,-5.13,2,1
17176.687,-0.836,0.399,0.213,4.85,4.18,-6.07,2,1
17176.703,-0.84,0.397,0.217,5.65,7.42,-6.65,2,1
17176.718,-0.85,0.388,0.23,6.93,11.23,-6.81,2,1
17176.718,-0.856,0.384,0.247,8.45,14.28,-6.35,2,1
17176.734,-0.862,0.397,0.251,9.4,15.69,-5.74,2,1
17176.734,-0.857,0.416,0.253,8.91,15.59,-5.16,2,1
17176.75,-0.852,0.424,0.261,8.03,14.4,-4.94,2,1
17176.765,-0.859,0.427,0.26,7.9,12.27,-4.03,2,1
17176.765,-0.857,0.428,0.259,8.51,9.25,-2.26,2,1
17176.781,-0.852,0.423,0.249,9.13,6.5,-0.18,2,1
17176.796,-0.844,0.418,0.232,9.67,4.43,1.53,2,1
17176.796,-0.843,0.413,0.228,8.97,2.96,1.43,2,1
17176.812,-0.834,0.384,0.223,8.67,1.22,1.62,2,1
17176.828,-0.839,0.387,0.215,9.28,1.59,-0.58,2,1
17176.828,-0.846,0.389,0.211,8.33,2.01,-3.51,2,1
17176.843,-0.846,0.381,0.213,7.42,1.59,-5.31,2,1
17176.843,-0.841,0.384,0.216,7.87,1.89,-5.77,2,1
17176.859,-0.83,0.39,0.214,8.12,2.2,-5.65,2,1
17176.875,-0.825,0.391,0.216,8.39,2.81,-5.65,2,1
17176.875,-0.828,0.395,0.215,9.03,3.17,-5.01,2,1
17176.89,-0.833,0.399,0.209,10.32,3.02,-3.94,2,1
17176.906,-0.855,0.402,0.205,11.87,3.27,-3.36,2,1
17176.906,-0.883,0.4,0.211,12.39,2.93,-3.36,2,1
17176.921,-0.904,0.391,0.22,12.21,1.62,-3.66,2,1
17176.937,-0.922,0.388,0.235,12.02,-0.15,-4.82,2,1
17176.937,-0.934,0.388,0.245,11.93,-2.81,-6.23,2,1
17176.953,-0.948,0.394,0.24,11.96,-6.62,-7.05,2,1
17176.968,-0.955,0.406,0.231,11.72,-10.96,-7.57,2,1
17176.968,-0.954,0.411,0.216,11.84,-14.83,-8.03,2,1
17176.984,-0.948,0.411,0.202,12.15,-17.76,-8.36,2,1
17176.984,-0.93,0.414,0.194,12.18,-19.71,-8.36,2,1
17177.0,-0.911,0.403,0.193,12.73,-20.51,-7.81,2,1
17177.015,-0.899,0.396,0.188,14.1,-20.66,-7.6,2,1
17177.015,-0.897,0.406,0.18,14.68,-21.18,-8.12,2,1
17177.031,-0.9,0.425,0.169,12.94,-22.37,-8.97,2,1
17177.046,-0.895,0.435,0.153,9.22,-23.47,-9.55,2,1
17177.046,-0.886,0.424,0.143,6.35,-22.49,-9.19,2,1
17177.062,-0.875,0.404,0.138,6.5,-19.17,-8.24,2,1
17177.078,-0.862,0.392,0.139,8.79,-14.01,-6.71,2,1
17177.078,-0.85,0.391,0.141,11.78,-8.09,-5.13,2,1
17177.093,-0.845,0.393,0.151,13.98,-2.41,-3.91,2,1
17177.109,-0.843,0.396,0.158,15.08,2.17,-3.11,2,1
17177.109,-0.841,0.388,0.17,14.65,5.62,-2.47,2,1
17177.125,-0.84,0.38,0.188,13.15,7.54,-2.66,2,1
17177.125,-0.843,0.376,0.204,11.41,7.57,-4.09,2,1
17177.14,-0.841,0.373,0.21,10.22,6.07,-5.01,2,1
17177.156,-0.831,0.39,0.206,9.28,3.81,-5.31,2,1
17177.156,-0.819,0.395,0.197,8.18,1.43,-5.34,2,1
17177.171,-0.811,0.377,0.192,6.81,-0.03,-5.22,2,1
17177.187,-0.811,0.356,0.186,6.9,0.09,-5.19,2,1
17177.187,-0.819,0.344,0.18,8.73,1.59,-6.01,2,1
17177.203,-0.828,0.344,0.173,11.44,3.81,-7.29,2,1
17177.218,-0.84,0.366,0.172,12.3,5.92,-10.16,2,1
17177.218,-0.847,0.371,0.179,10.93,6.71,-12.27,2,1
17177.234,-0.849,0.372,0.194,8.85,6.65,-13.12,2,1
17177.25,-0.832,0.368,0.213,7.39,6.65,-12.33,2,1
17177.25,-0.824,0.355,0.227,7.51,6.35,-10.53,2,1
17177.265,-0.833,0.338,0.232,10.22,6.26,-8.7,2,1
17177.265,-0.842,0.349,0.224,13.58,5.8,-6.68,2,1
17177.281,-0.85,0.367,0.213,15.17,4.88,-5.25,2,1
17177.296,-0.86,0.375,0.202,14.71,3.94,-5.92,2,1
17177.312,-0.855,0.35,0.207,12.18,2.96,-4.61,2,1
17177.312,-0.863,0.338,0.214,11.84,2.04,-5.43,2,1
17177.328,-0.876,0.321,0.214,13.52,1.71,-7.39,2,1
17177.328,-0.893,0.323,0.214,14.34,1.53,-9.52,2,1
17177.343,-0.892,0.338,0.212,13.89,1.4,-10.74,2,1
17177.359,-0.891,0.357,0.21,12.36,1.1,-11.72,2,1
17177.359,-0.881,0.375,0.213,10.86,0.37,-12.7,2,1
17177.375,-0.881,0.368,0.216,11.08,-0.55,-12.6,2,1
17177.375,-0.868,0.372,0.216,16.24,-0.21,-8.12,2,1
17177.39,-0.866,0.367,0.211,18.34,0.85,-6.07,2,1
17177.406,-0.882,0.365,0.205,19.62,0.98,-4.88,2,1
17177.421,-0.905,0.378,0.193,19.93,0.31,-5.49,2,1
17177.421,-0.91,0.396,0.177,18.83,-1.43,-7.48,2,1
17177.437,-0.912,0.399,0.179,16.27,-3.63,-10.83,2,1
17177.437,-0.913,0.376,0.186,15.59,-4.97,-13.49,2,1
17177.453,-0.91,0.36,0.195,17.49,-4.88,-14.47,2,1
17177.468,-0.911,0.346,0.208,20.94,-4.3,-14.34,2,1
17177.468,-0.905,0.34,0.212,24.35,-4.21,-12.88,2,1
17177.484,-0.894,0.352,0.208,26.4,-5.55,-10.44,2,1
17177.484,-0.883,0.356,0.201,27.59,-8.51,-9.0,2,1
17177.5,-0.853,0.35,0.191,27.68,-12.39,-8.48,2,1
17177.515,-0.827,0.338,0.179,27.92,-15.78,-9.7,2,1
17177.515,-0.812,0.305,0.17,29.6,-17.61,-10.93,2,1
17177.531,-0.807,0.284,0.16,32.75,-17.7,-13.28,2,1
17177.546,-0.84,0.271,0.155,35.98,-17.61,-18.31,2,1
17177.562,-0.855,0.273,0.14,36.74,-18.16,-25.12,2,1
17177.562,-0.868,0.306,0.114,34.12,-19.32,-32.96,2,1
17177.578,-0.89,0.335,0.094,28.93,-20.48,-41.66,2,1
17177.578,-0.911,0.333,0.094,22.55,-20.63,-49.2,2,1
17177.593,-0.929,0.331,0.108,17.76,-19.41,-53.74,2,1
17177.609,-0.934,0.32,0.127,16.63,-16.72,-54.14,2,1
17177.609,-0.937,0.296,0.145,19.1,-12.88,-51.45,2,1
17177.625,-0.954,0.298,0.159,24.17,-9.34,-47.55,2,1
17177.64,-0.973,0.307,0.166,28.29,-7.48,-43.06,2,1
17177.64,-0.992,0.319,0.168,28.87,-8.15,-39.58,2,1
17177.656,-1.001,0.318,0.164,27.71,-10.65,-36.68,2,1
17177.656,-0.996,0.315,0.15,25.39,-13.98,-34.79,2,1
17177.671,-0.988,0.305,0.137,22.46,-17.18,-34.21,2,1
17177.687,-0.967,0.284,0.129,20.72,-18.43,-33.17,2,1
17177.687,-0.945,0.285,0.118,20.14,-17.98,-32.11,2,1
17177.703,-0.938,0.289,0.097,19.99,-15.2,-31.46,2,1
17177.718,-0.934,0.292,0.083,19.32,-9.67,-30.06,2,1
17177.718,-0.943,0.297,0.086,18.49,-4.09,-27.8,2,1
17177.734,-0.947,0.297,0.11,18.65,1.74,-24.54,2,1
17177.734,-0.945,0.31,0.126,18.95,5.28,-21.18,2,1
17177.75,-0.946,0.325,0.131,18.83,6.53,-17.88,2,1
17177.765,-0.944,0.327,0.142,17.18,8.48,-14.4,2,1
17177.765,-0.94,0.329,0.145,13.64,8.67,-11.66,2,1
17177.781,-0.931,0.344,0.158,8.7,9.22,-8.76,2,1
17177.796,-0.914,0.311,0.177,5.77,10.93,-4.64,2,1
17177.796,-0.92,0.264,0.193,6.62,13.61,-0.15,2,1
17177.812,-0.929,0.246,0.203,9.67,15.84,4.0,2,1
17177.828,-0.959,0.26,0.199,11.81,15.44,6.26,2,1
17177.828,-0.977,0.259,0.189,11.93,13.67,6.26,2,1
17177.843,-0.976,0.27,0.181,8.73,10.38,3.42,2,1
17177.859,-0.966,0.286,0.171,3.36,5.95,-1.13,2,1
17177.859,-0.949,0.299,0.17,-2.01,2.01,-6.2,2,1
17177.875,-0.941,0.307,0.172,-5.43,-0.31,-10.13,2,1
17177.89,-0.921,0.302,0.188,-7.39,-0.76,-10.28,2,1
17177.89,-0.911,0.283,0.2,-6.47,-0.7,-6.47,2,1
17177.906,-0.905,0.257,0.197,-2.47,-1.13,0.64,2,1
17177.906,-0.897,0.261,0.169,2.23,-1.71,8.03,2,1
17177.921,-0.879,0.255,0.13,4.18,-1.92,13.76,2,1
17177.937,-0.866,0.234,0.096,3.85,-0.52,16.82,2,1
17177.937,-0.877,0.216,0.087,3.51,3.63,14.47,2,1
17177.953,-0.897,0.205,0.091,3.57,8.51,8.21,2,1
17177.953,-0.912,0.204,0.118,2.35,13.09,0.61,2,1
17177.968,-0.93,0.21,0.154,1.01,15.59,-6.68,2,1
17177.984,-0.961,0.217,0.181,0.12,15.14,-13.03,2,1
17178.0,-0.986,0.223,0.192,-0.89,11.26,-17.46,2,1
17178.0,-1.0,0.226,0.199,-2.17,5.83,-19.47,2,1
17178.015,-1.012,0.219,0.196,-2.66,0.15,-19.23,2,1
17178.015,-1.003,0.18,0.195,-1.83,-3.72,-15.72,2,1
17178.031,-0.972,0.15,0.19,1.8,-5.86,-9.8,2,1
17178.046,-0.97,0.146,0.153,7.84,-8.09,-5.07,2,1
17178.046,-0.973,0.141,0.113,12.18,-10.04,-2.5,2,1
17178.062,-0.979,0.147,0.082,12.63,-12.12,-3.75,2,1
17178.078,-0.99,0.15,0.061,10.86,-13.98,-8.85,2,1
17178.078,-0.983,0.154,0.054,9.03,-14.56,-16.14,2,1
17178.093,-0.965,0.171,0.057,7.72,-13.34,-23.29,2,1
17178.109,-0.984,0.185,0.075,8.64,-10.5,-27.8,2,1
17178.109,-1.001,0.197,0.11,12.09,-6.44,-27.31,2,1
17178.125,-1.009,0.215,0.138,16.33,-3.33,-23.83,2,1
17178.125,-1.013,0.229,0.155,20.6,-2.26,-17.76,2,1
17178.14,-0.994,0.212,0.156,25.64,-2.9,-9.34,2,1
17178.156,-0.972,0.224,0.139,30.76,-5.58,-3.33,2,1
17178.171,-0.989,0.228,0.093,33.02,-8.88,-1.28,2,1
17178.171,-0.989,0.205,0.074,30.85,-10.38,-1.95,2,1
17178.187,-0.979,0.201,0.085,27.19,-9.98,-5.92,2,1
17178.187,-0.972,0.186,0.1,24.72,-9.37,-10.99,2,1
17178.203,-0.961,0.208,0.097,23.38,-9.03,-15.05,2,1
17178.218,-0.943,0.238,0.09,21.67,-9.06,-18.34,2,1
17178.218,-0.938,0.241,0.093,18.8,-9.25,-20.14,2,1
17178.234,-0.942,0.231,0.107,16.42,-9.19,-18.59,2,1
17178.25,-0.945,0.229,0.119,17.24,-8.67,-14.83,2,1
17178.25,-0.95,0.215,0.119,20.05,-7.23,-10.8,2,1
17178.265,-0.95,0.213,0.113,22.74,-5.22,-7.87,2,1
17178.265,-0.951,0.198,0.112,24.08,-3.2,-7.05,2,1
17178.281,-0.957,0.191,0.122,24.2,-1.8,-6.32,2,1
17178.296,-0.954,0.2,0.135,23.87,-1.28,-5.71,2,1
17178.296,-0.965,0.219,0.153,22.86,-1.65,-6.5,2,1
17178.312,-0.961,0.225,0.165,20.6,-3.63,-7.05,2,1
17178.328,-0.937,0.225,0.182,18.13,-6.16,-5.4,2,1
17178.328,-0.936,0.211,0.179,19.47,-7.54,-3.17,2,1
17178.343,-0.937,0.206,0.154,22.0,-8.27,-1.43,2,1
17178.359,-0.913,0.206,0.126,21.55,-9.0,-1.16,2,1
17178.359,-0.904,0.198,0.121,15.38,-6.62,-5.95,2,1
17178.375,-0.912,0.209,0.124,11.63,-5.16,-10.93,2,1
17178.375,-0.926,0.213,0.137,8.58,-4.03,-15.23,2,1
17178.39,-0.951,0.212,0.164,7.6,-4.03,-17.58,2,1
17178.406,-0.96,0.201,0.179,7.05,-4.88,-16.91,2,1
17178.406,-0.934,0.19,0.181,6.47,-5.89,-13.82,2,1
17178.421,-0.929,0.167,0.191,6.87,-5.89,-10.04,2,1
17178.437,-0.961,0.135,0.194,9.13,-5.19,-6.87,2,1
17178.437,-0.986,0.127,0.18,11.9,-4.97,-5.68,2,1
17178.453,-0.991,0.138,0.166,13.46,-4.61,-5.83,2,1
17178.468,-0.998,0.167,0.158,12.97,-4.06,-7.26,2,1
17178.468,-1.004,0.184,0.156,10.32,-4.64,-9.98,2,1
17178.484,-0.994,0.195,0.16,7.45,-5.86,-12.39,2,1
17178.5,-0.981,0.207,0.169,6.16,-6.68,-14.98,2,1
17178.5,-0.959,0.192,0.174,8.27,-6.74,-10.96,2,1
17178.515,-0.957,0.186,0.168,11.69,-6.13,-4.21,2,1
17178.515,-0.95,0.176,0.166,14.13,-5.19,-0.03,2,1
17178.531,-0.928,0.156,0.163,14.83,-4.88,4.21,2,1
17178.546,-0.921,0.152,0.155,15.75,-4.73,6.81,2,1
17178.546,-0.936,0.171,0.135,15.38,-4.27,6.01,2,1
17178.562,-0.931,0.186,0.116,12.02,-4.55,2.35,2,1
17178.578,-0.909,0.189,0.112,7.87,-4.49,-2.47,2,1
17178.578,-0.917,0.191,0.113,5.58,-2.96,-7.32,2,1
17178.593,-0.951,0.196,0.128,4.85,-1.89,-10.62,2,1
17178.609,-0.954,0.206,0.145,3.45,-1.83,-11.17,2,1
17178.609,-0.954,0.197,0.153,2.11,-2.72,-11.44,2,1
17178.625,-0.944,0.173,0.155,1.56,-4.33,-9.77,2,1
17178.625,-0.932,0.166,0.166,2.23,-5.74,-6.1,2,1
17178.64,-0.968,0.164,0.17,3.63,-6.26,-3.14,2,1
17178.656,-0.982,0.155,0.17,4.03,-6.04,-1.86,2,1
17178.656,-0.958,0.162,0.168,3.85,-5.86,-2.04,2,1
17178.671,-0.947,0.174,0.159,3.97,-5.65,-2.9,2,1
17178.687,-0.937,0.187,0.158,2.69,-5.31,-3.72,2,1
17178.687,-0.942,0.189,0.161,0.98,-4.85,-4.7,2,1
17178.703,-0.953,0.185,0.161,-0.06,-4.67,-5.52,2,1
17178.718,-0.956,0.197,0.162,-0.89,-4.97,-5.62,2,1
17178.718,-0.972,0.197,0.152,-1.86,-5.49,-5.65,2,1
17178.734,-0.972,0.198,0.154,-3.23,-5.71,-4.46,2,1
17178.734,-0.974,0.19,0.177,-3.66,-4.85,-2.38,2,1
17178.75,-0.999,0.188,0.195,-1.34,-3.6,-0.58,2,1
17178.765,-1.001,0.192,0.203,0.61,-3.42,0.61,2,1
17178.765,-0.983,0.184,0.21,0.79,-4.64,1.86,2,1
17178.781,-0.959,0.169,0.208,0.79,-6.65,3.81,2,1
17178.796,-0.94,0.165,0.193,1.28,-8.27,5.49,2,1
17178.796,-0.935,0.153,0.178,1.13,-8.91,5.43,2,1
17178.812,-0.949,0.151,0.169,0.18,-8.58,3.2,2,1
17178.828,-0.936,0.159,0.16,-1.68,-8.61,-0.95,2,1
17178.828,-0.916,0.156,0.166,-3.48,-7.45,-5.65,2,1
17178.843,-0.928,0.162,0.184,-3.88,-5.43,-9.28,2,1
17178.843,-0.967,0.163,0.205,-4.03,-4.03,-11.11,2,1
17178.859,-0.987,0.162,0.218,-4.12,-4.46,-11.14,2,1
17178.875,-0.971,0.165,0.227,-3.45,-5.43,-9.7,2,1
17178.875,-0.967,0.17,0.225,-1.68,-5.89,-7.51,2,1
17178.89,-0.973,0.169,0.209,-0.64,-6.53,-5.31,2,1
17178.906,-0.96,0.173,0.203,-1.37,-7.26,-2.62,2,1
17178.906,-0.949,0.167,0.2,-1.56,-6.9,-0.85,2,1
17178.921,-0.956,0.153,0.201,-0.49,-5.83,0.82,2,1
17178.937,-0.954,0.16,0.196,1.4,-4.49,2.99,2,1
17178.937,-0.937,0.166,0.188,2.2,-3.39,3.75,2,1
17178.953,-0.926,0.166,0.187,1.28,-2.17,4.3,2,1
17178.968,-0.919,0.163,0.194,0.12,-1.46,4.12,2,1
17178.968,-0.918,0.155,0.2,-0.37,-1.37,3.6,2,1
17178.984,-0.919,0.152,0.203,-0.49,-1.59,2.75,2,1
17178.984,-0.923,0.132,0.202,-0.49,-1.8,1.86,2,1
17179.0,-0.937,0.138,0.195,0.64,-1.95,0.55,2,1
17179.015,-0.937,0.153,0.19,0.31,-2.41,-1.68,2,1
17179.015,-0.938,0.152,0.193,-1.31,-3.11,-3.94,2,1
17179.031,-0.93,0.163,0.193,-2.04,-3.63,-5.04,2,1
17179.046,-0.924,0.177,0.191,-1.95,-3.57,-4.64,2,1
17179.062,-0.922,0.166,0.196,-1.46,-2.78,-2.32,2,1
17179.062,-0.916,0.163,0.197,0.4,-1.22,1.28,2,1
17179.078,-0.93,0.17,0.192,2.59,0.67,3.63,2,1
17179.078,-0.948,0.163,0.196,2.29,1.98,3.69,2,1
17179.093,-0.955,0.143,0.217,0.43,2.29,2.87,2,1
17179.109,-0.954,0.121,0.239,-0.03,1.95,1.86,2,1
17179.109,-0.953,0.115,0.242,0.82,0.76,1.56,2,1
17179.125,-0.954,0.125,0.232,1.98,-1.01,2.69,2,1
17179.14,-0.941,0.13,0.211,2.41,-2.93,3.94,2,1
17179.14,-0.925,0.129,0.199,2.11,-3.75,4.12,2,1
17179.156,-0.939,0.13,0.185,2.59,-3.14,2.87,2,1
17179.156,-0.967,0.142,0.176,3.45,-1.77,1.16,2,1
17179.171,-0.974,0.155,0.184,3.54,-0.12,-0.79,2,1
17179.187,-0.99,0.169,0.196,3.69,1.07,-2.69,2,1
17179.187,-0.994,0.181,0.209,2.93,0.79,-3.85,2,1
17179.203,-0.985,0.191,0.221,2.29,-0.73,-4.09,2,1
17179.218,-0.984,0.196,0.212,2.26,-2.99,-3.78,2,1
17179.218,-0.983,0.188,0.198,1.5,-5.28,-3.14,2,1
17179.234,-0.977,0.185,0.181,0.79,-6.62,-2.32,2,1
17179.234,-0.966,0.181,0.173,0.76,-6.38,-0.79,2,1
17179.25,-0.983,0.183,0.172,1.71,-5.01,0.46,2,1
17179.265,-0.975,0.191,0.178,1.95,-3.88,1.31,2,1
17179.265,-0.951,0.199,0.186,1.77,-3.48,1.95,2,1
17179.281,-0.931,0.201,0.187,1.59,-3.63,2.59,2,1
17179.296,-0.905,0.196,0.183,0.61,-4.58,3.66,2,1
17179.296,-0.892,0.179,0.179,0.06,-4.76,5.01,2,1
17179.312,-0.907,0.17,0.168,0.55,-4.09,6.07,2,1
17179.328,-0.924,0.171,0.165,0.52,-2.96,6.04,2,1
17179.328,-0.931,0.171,0.174,-0.18,-1.62,4.7,2,1
17179.343,-0.934,0.181,0.188,-0.82,-0.7,3.2,2,1
17179.359,-0.932,0.188,0.203,-0.79,-0.64,2.14,2,1
17179.359,-0.944,0.18,0.212,0.24,-1.1,2.9,2,1
17179.375,-0.948,0.179,0.214,0.82,-1.37,3.75,2,1
17179.375,-0.928,0.183,0.206,0.82,-1.71,4.61,2,1
17179.39,-0.917,0.181,0.203,0.49,-2.04,4.91,2,1
17179.406,-0.923,0.179,0.195,0.12,-2.26,3.75,2,1
17179.406,-0.927,0.188,0.186,-1.01,-2.32,1.65,2,1
17179.421,-0.935,0.18,0.191,-2.17,-1.92,0.18,2,1
17179.437,-0.941,0.166,0.203,-1.92,-1.37,-0.18,2,1
17179.437,-0.937,0.17,0.204,-0.73,-0.82,-0.06,2,1
17179.453,-0.942,0.179,0.203,-0.15,-0.79,0.09,2,1
17179.453,-0.944,0.178,0.205,-0.92,-1.59,0.27,2,1
17179.468,-0.944,0.173,0.204,-1.46,-2.56,0.43,2,1
17179.484,-0.954,0.172,0.201,-0.95,-2.78,0.7,2,1
17179.484,-0.954,0.176,0.199,-0.27,-2.47,1.53,2,1
17179.5,-0.943,0.18,0.196,-0.03,-2.08,1.92,2,1
17179.515,-0.936,0.183,0.194,-0.46,-1.95,1.95,2,1
17179.515,-0.926,0.183,0.199,-0.95,-1.8,2.32,2,1
17179.531,-0.929,0.179,0.198,-0.34,-1.5,3.27,2,1
17179.546,-0.937,0.183,0.195,0.0,-1.1,4.21,2,1
17179.546,-0.945,0.176,0.195,-0.46,-0.52,4.06,2,1
17179.562,-0.956,0.151,0.201,-0.46,-0.15,2.99,2,1
17179.578,-0.948,0.154,0.206,0.31,0.0,1.8,2,1
17179.593,-0.947,0.172,0.203,0.4,-0.09,0.27,2,1
17179.593,-0.95,0.177,0.206,-0.82,-0.4,-0.27,2,1
17179.609,-0.944,0.17,0.219,-2.26,-1.13,-0.43,2,1
17179.609,-0.948,0.177,0.216,-0.98,-1.56,-0.67,2,1
17179.625,-0.96,0.192,0.206,0.15,-1.59,-1.04,2,1
17179.625,-0.959,0.19,0.207,-0.82,-1.19,-1.28,2,1
17179.64,-0.965,0.175,0.211,-0.49,-0.46,-1.13,2,1
17179.656,-0.962,0.183,0.208,1.01,-0.09,-0.4,2,1
17179.656,-0.953,0.191,0.209,1.16,-0.49,0.49,2,1
17179.671,-0.945,0.185,0.212,0.49,-1.62,1.37,2,1
17179.687,-0.931,0.183,0.211,0.03,-2.78,1.8,2,1
17179.687,-0.929,0.189,0.202,-0.12,-3.42,1.4,2,1
17179.703,-0.927,0.187,0.19,-0.76,-3.81,0.34,2,1
17179.718,-0.936,0.181,0.191,-1.37,-3.08,-0.73,2,1
17179.718,-0.941,0.18,0.198,-1.13,-2.32,-1.8,2,1
17179.734,-0.943,0.185,0.204,-0.43,-2.04,-2.47,2,1
17179.734,-0.944,0.192,0.206,-0.21,-2.41,-2.5,2,1
17179.75,-0.932,0.197,0.208,-0.31,-3.23,-2.5,2,1
17179.765,-0.927,0.185,0.211,-0.49,-4.15,-3.02,2,1
17179.765,-0.937,0.175,0.21,-0.21,-4.52,-3.3,2,1
17179.781,-0.94,0.164,0.208,0.31,-4.67,-3.54,2,1
