timestamp,ax,ay,az,gx,gy,gz,orient_label,motion_label
15705.187,-0.926,-0.305,-0.125,-11.02,2.38,-0.34,0,4
15705.203,-0.93,-0.324,-0.124,-8.67,3.27,-0.03,0,4
15705.203,-0.927,-0.32,-0.124,-2.93,7.35,-0.76,0,4
15705.218,-0.926,-0.3,-0.137,-3.2,10.32,-1.07,0,4
15705.218,-0.929,-0.269,-0.154,-5.92,13.15,-1.16,0,4
15705.234,-0.931,-0.244,-0.155,-9.4,14.86,-0.67,0,4
15705.25,-0.94,-0.258,-0.151,-13.18,15.2,0.52,0,4
15705.25,-0.937,-0.282,-0.131,-15.08,14.98,2.47,0,4
15705.265,-0.929,-0.288,-0.113,-13.95,14.74,3.85,0,4
15705.281,-0.927,-0.289,-0.103,-9.89,14.65,3.63,0,4
15705.281,-0.93,-0.278,-0.096,-5.16,14.37,2.47,0,4
15705.296,-0.929,-0.25,-0.1,-1.4,13.09,1.19,0,4
15705.312,-0.923,-0.229,-0.123,1.68,12.76,-0.21,0,4
15705.312,-0.93,-0.201,-0.142,1.89,14.07,-1.16,0,4
15705.328,-0.936,-0.189,-0.139,0.52,15.44,-0.85,0,4
15705.343,-0.941,-0.195,-0.17,-0.92,15.41,0.55,0,4
15705.343,-0.949,-0.201,-0.193,-2.23,17.49,3.97,0,4
15705.359,-0.959,-0.216,-0.191,-2.38,19.17,8.61,0,4
15705.359,-0.957,-0.227,-0.179,-2.69,18.13,13.61,0,4
15705.375,-0.957,-0.241,-0.169,-4.64,14.16,17.61,0,4
15705.39,-0.953,-0.266,-0.158,-8.21,8.27,20.84,0,4
15705.39,-0.941,-0.287,-0.145,-12.05,2.26,22.06,0,4
15705.406,-0.932,-0.312,-0.143,-15.17,-3.2,21.33,0,4
15705.421,-0.93,-0.331,-0.141,-18.07,-7.54,19.59,0,4
15705.421,-0.926,-0.323,-0.138,-21.27,-11.11,16.33,0,4
15705.437,-0.926,-0.301,-0.138,-26.09,-14.89,11.63,0,4
15705.437,-0.94,-0.297,-0.128,-31.86,-18.22,6.99,0,4
15705.453,-0.949,-0.309,-0.108,-35.22,-20.63,4.76,0,4
15705.468,-0.947,-0.322,-0.097,-34.27,-22.61,5.34,0,4
15705.468,-0.94,-0.339,-0.089,-27.83,-23.68,8.21,0,4
15705.484,-0.937,-0.346,-0.085,-17.88,-23.77,11.54,0,4
15705.5,-0.935,-0.339,-0.086,-7.08,-23.04,13.58,0,4
15705.5,-0.94,-0.318,-0.093,1.71,-21.85,13.86,0,4
15705.515,-0.952,-0.296,-0.097,6.56,-21.24,13.34,0,4
15705.531,-0.962,-0.288,-0.099,7.45,-21.61,12.91,0,4
15705.531,-0.969,-0.286,-0.101,6.01,-23.04,13.15,0,4
15705.546,-0.969,-0.287,-0.106,4.0,-25.33,13.79,0,4
15705.546,-0.966,-0.295,-0.104,2.66,-28.17,14.07,0,4
15705.562,-0.965,-0.3,-0.103,2.5,-30.82,13.98,0,4
15705.578,-0.965,-0.294,-0.103,3.08,-32.38,13.12,0,4
15705.578,-0.962,-0.284,-0.109,4.0,-32.75,11.57,0,4
15705.593,-0.96,-0.273,-0.115,4.52,-32.26,9.95,0,4
15705.609,-0.959,-0.26,-0.123,4.36,-30.98,8.88,0,4
15705.609,-0.953,-0.238,-0.131,3.17,-29.11,7.9,0,4
15705.625,-0.954,-0.223,-0.136,0.43,-27.56,6.9,0,4
15705.64,-0.955,-0.207,-0.14,-4.0,-26.43,5.74,0,4
15705.656,-0.958,-0.192,-0.137,-10.22,-25.18,4.52,0,4
15705.656,-0.959,-0.184,-0.136,-16.94,-23.96,3.17,0,4
15705.671,-0.956,-0.161,-0.135,-25.15,-23.19,1.71,0,4
15705.671,-0.957,-0.137,-0.127,-35.52,-22.89,-0.52,0,4
15705.687,-0.97,-0.15,-0.114,-45.81,-23.22,-2.35,0,4
15705.703,-0.98,-0.171,-0.094,-53.77,-23.8,-2.69,0,4
15705.703,-0.984,-0.177,-0.073,-57.5,-23.83,-2.56,0,4
15705.718,-0.988,-0.186,-0.057,-56.18,-23.5,-2.14,0,4
15705.718,-0.995,-0.188,-0.035,-51.64,-22.4,-0.89,0,4
15705.734,-0.996,-0.191,-0.014,-44.65,-21.36,1.28,0,4
15705.75,-1.004,-0.183,-0.011,-36.01,-19.96,3.78,0,4
15705.765,-1.008,-0.187,0.001,-26.46,-19.01,8.42,0,4
15705.765,-1.006,-0.208,0.005,-15.78,-19.07,14.4,0,4
15705.781,-1.004,-0.215,0.011,-4.21,-19.32,20.26,0,4
15705.781,-1.001,-0.222,0.013,6.99,-19.32,24.99,0,4
15705.796,-0.997,-0.218,0.009,15.5,-19.9,27.89,0,4
15705.812,-0.993,-0.195,0.002,20.45,-21.09,28.47,0,4
15705.812,-0.998,-0.17,-0.004,22.0,-22.28,27.01,0,4
15705.828,-1.008,-0.143,-0.008,20.45,-23.71,24.72,0,4
15705.828,-1.015,-0.106,-0.015,16.51,-24.66,22.13,0,4
15705.843,-1.022,-0.07,-0.017,10.8,-25.27,19.35,0,4
15705.859,-1.054,-0.021,-0.003,-1.1,-25.3,17.27,0,4
15705.875,-1.071,-0.035,0.01,-4.88,-25.85,21.15,0,4
15705.89,-1.09,-0.045,0.021,-5.58,-27.04,27.95,0,4
15705.89,-1.099,-0.045,0.039,-1.13,-27.68,36.1,0,4
15705.906,-1.093,-0.057,0.053,7.78,-27.47,44.34,0,4
15705.921,-1.095,-0.063,0.063,17.27,-26.83,51.3,0,4
15705.921,-1.099,-0.049,0.078,25.54,-26.76,56.89,0,4
15705.937,-1.105,-0.039,0.105,32.75,-27.65,60.98,0,4
15705.953,-1.11,-0.036,0.123,38.03,-30.46,62.84,0,4
15705.953,-1.107,-0.027,0.133,41.93,-34.82,63.63,0,4
15705.968,-1.098,-0.016,0.142,45.5,-39.55,64.36,0,4
15705.968,-1.087,-0.005,0.151,48.83,-44.47,66.07,0,4
15705.984,-1.092,0.0,0.15,52.83,-49.81,68.82,0,4
15706.0,-1.101,0.007,0.144,56.98,-55.15,72.51,0,4
15706.0,-1.096,0.016,0.142,60.67,-60.06,77.0,0,4
15706.015,-1.095,0.023,0.135,65.43,-63.33,81.85,0,4
15706.031,-1.08,0.062,0.139,73.64,-67.08,93.14,0,4
15706.046,-1.072,0.081,0.141,76.39,-67.87,98.42,0,4
15706.062,-1.066,0.112,0.149,77.7,-68.64,104.01,0,4
15706.062,-1.075,0.142,0.169,79.17,-70.1,108.71,0,4
15706.078,-1.085,0.151,0.178,79.96,-72.85,112.77,0,4
15706.078,-1.091,0.167,0.188,79.04,-76.24,116.49,0,4
15706.093,-1.093,0.198,0.194,76.97,-79.41,119.3,0,4
15706.109,-1.077,0.216,0.195,73.4,-82.71,120.15,0,4
15706.109,-1.063,0.23,0.189,69.61,-85.51,118.47,0,4
15706.125,-1.052,0.26,0.18,65.03,-87.1,114.93,0,4
15706.14,-1.051,0.288,0.174,60.7,-87.59,111.24,0,4
15706.14,-1.05,0.309,0.162,57.04,-86.31,108.68,0,4
15706.156,-1.05,0.34,0.162,54.05,-83.19,108.1,0,4
15706.171,-1.045,0.366,0.165,52.49,-79.41,109.44,0,4
15706.171,-1.026,0.371,0.163,51.61,-75.32,112.52,0,4
15706.187,-0.999,0.378,0.161,49.1,-64.46,116.98,0,4
15706.187,-0.976,0.393,0.166,47.09,-58.84,117.01,0,4
15706.203,-0.961,0.399,0.166,43.79,-52.83,115.88,0,4
15706.218,-0.946,0.404,0.162,39.89,-46.97,114.63,0,4
15706.218,-0.895,0.403,0.153,35.28,-41.51,113.1,0,4
15706.234,-0.864,0.399,0.152,30.98,-35.55,110.32,0,4
15706.25,-0.847,0.406,0.152,26.43,-29.79,107.0,0,4
15706.265,-0.839,0.425,0.162,20.48,-25.27,103.85,0,4
15706.265,-0.828,0.435,0.175,14.47,-22.55,102.18,0,4
15706.281,-0.824,0.445,0.185,9.37,-20.66,100.96,0,4
15706.281,-0.826,0.466,0.204,5.13,-19.35,99.73,0,4
15706.296,-0.814,0.47,0.217,1.77,-20.02,98.45,0,4
15706.312,-0.803,0.47,0.224,-0.67,-21.91,96.62,0,4
15706.312,-0.796,0.472,0.232,-1.53,-24.29,95.25,0,4
15706.328,-0.788,0.482,0.239,-1.28,-26.86,93.69,0,4
15706.328,-0.773,0.493,0.25,-0.27,-29.21,91.59,0,4
15706.343,-0.752,0.501,0.253,1.77,-31.13,88.78,0,4
15706.359,-0.739,0.522,0.259,3.14,-31.83,85.76,0,4
15706.375,-0.738,0.539,0.263,4.52,-32.01,84.2,0,4
15706.375,-0.729,0.534,0.252,5.34,-32.29,83.96,0,4
15706.39,-0.718,0.548,0.26,5.52,-31.25,83.56,0,4
15706.39,-0.722,0.569,0.275,6.32,-30.46,82.74,0,4
15706.406,-0.725,0.573,0.279,7.66,-31.56,82.13,0,4
15706.421,-0.713,0.583,0.279,8.58,-33.54,82.4,0,4
15706.421,-0.685,0.6,0.276,8.12,-35.31,82.28,0,4
15706.437,-0.652,0.607,0.278,6.01,-36.13,80.36,0,4
15706.437,-0.641,0.615,0.281,3.39,-34.85,77.43,0,4
15706.453,-0.636,0.619,0.288,1.74,-32.44,75.29,0,4
15706.468,-0.62,0.619,0.295,1.34,-29.76,73.73,0,4
15706.468,-0.61,0.638,0.31,2.01,-26.61,72.51,0,4
15706.484,-0.606,0.654,0.319,3.75,-24.14,72.33,0,4
15706.5,-0.602,0.677,0.33,5.55,-22.03,73.34,0,4
15706.5,-0.602,0.702,0.338,6.9,-21.03,75.08,0,4
15706.515,-0.599,0.726,0.349,6.78,-21.0,76.88,0,4
15706.531,-0.591,0.757,0.354,4.7,-21.94,78.43,0,4
15706.531,-0.571,0.777,0.355,0.27,-23.56,78.95,0,4
15706.546,-0.554,0.785,0.365,-6.44,-25.09,78.92,0,4
15706.546,-0.554,0.819,0.386,-12.91,-26.8,77.82,0,4
15706.562,-0.562,0.864,0.403,-16.82,-29.36,77.43,0,4
15706.578,-0.573,0.911,0.414,-19.44,-32.87,78.65,0,4
15706.593,-0.597,0.983,0.426,-21.85,-37.08,81.12,0,4
15706.593,-0.612,1.055,0.436,-24.05,-43.43,85.88,0,4
15706.609,-0.61,1.107,0.433,-27.07,-50.48,95.34,0,4
15706.609,-0.59,1.138,0.438,-31.1,-56.52,108.31,0,4
15706.625,-0.526,1.125,0.417,-35.74,-61.04,121.34,0,4
15706.64,-0.462,1.124,0.405,-42.91,-62.04,130.71,0,4
15706.64,-0.415,1.129,0.395,-51.3,-60.55,134.37,0,4
15706.656,-0.394,1.132,0.385,-60.21,-57.99,135.01,0,4
15706.671,-0.382,1.146,0.38,-68.85,-55.76,137.12,0,4
15706.687,-0.338,1.15,0.379,-76.51,-54.54,141.03,0,4
15706.687,-0.293,1.146,0.383,-81.51,-52.58,145.21,0,4
15706.703,-0.218,1.141,0.393,-80.51,-45.44,150.33,0,4
15706.718,-0.151,1.098,0.402,-73.09,-39.19,155.89,0,4
15706.718,-0.094,1.065,0.401,-60.85,-30.27,161.78,0,4
15706.734,-0.055,1.033,0.384,-46.45,-20.66,165.29,0,4
15706.75,-0.034,0.996,0.37,-34.88,-11.81,167.39,0,4
15706.765,-0.001,0.963,0.36,-26.61,-4.33,168.83,0,4
15706.765,0.011,0.97,0.378,-20.36,2.01,168.25,0,4
15706.781,0.013,0.961,0.385,-12.54,6.74,166.36,0,4
15706.781,0.028,0.955,0.392,-5.8,10.99,166.45,0,4
15706.796,0.033,0.949,0.39,-0.18,14.65,167.64,0,4
15706.812,0.049,0.896,0.381,4.36,16.48,170.45,0,4
15706.812,0.075,0.88,0.375,5.49,18.07,172.92,0,4
15706.828,0.092,0.852,0.374,5.01,20.02,171.82,0,4
15706.828,0.112,0.808,0.37,3.97,22.22,168.58,0,4
15706.843,0.12,0.783,0.37,2.17,25.12,165.96,0,4
15706.859,0.129,0.745,0.374,1.53,28.14,164.74,0,4
15706.875,0.148,0.729,0.397,0.85,35.77,162.76,0,4
15706.89,0.157,0.718,0.409,-0.82,40.13,160.8,0,4
15706.906,0.164,0.72,0.424,-4.82,44.83,159.28,0,4
15706.906,0.159,0.711,0.441,-11.35,48.89,157.29,0,4
15706.921,0.156,0.671,0.461,-19.32,51.0,155.22,0,4
15706.921,0.149,0.641,0.485,-28.17,51.15,153.87,0,4
15706.937,0.152,0.592,0.491,-35.55,48.62,152.96,0,4
15706.953,0.161,0.529,0.503,-42.21,45.08,151.86,0,4
15706.953,0.17,0.475,0.531,-47.55,40.38,151.52,0,4
15706.968,0.186,0.41,0.545,-49.84,34.36,150.91,0,4
15706.984,0.213,0.349,0.558,-51.18,28.23,148.32,0,4
15706.984,0.245,0.295,0.567,-52.06,21.79,142.67,0,4
15707.0,0.284,0.241,0.567,-52.58,15.56,132.54,0,4
15707.0,0.329,0.214,0.564,-53.53,11.29,118.53,0,4
15707.015,0.358,0.23,0.566,-55.51,11.66,101.05,0,4
15707.031,0.363,0.241,0.567,-58.44,16.6,81.7,0,4
15707.046,0.305,0.274,0.604,-60.03,34.76,50.84,0,4
15707.062,0.27,0.292,0.629,-57.99,43.34,42.82,0,4
15707.062,0.239,0.288,0.645,-54.38,49.13,37.29,0,4
15707.078,0.208,0.296,0.664,-49.96,51.55,31.95,0,4
15707.078,0.188,0.283,0.666,-44.77,49.9,27.41,0,4
15707.093,0.178,0.253,0.654,-39.12,45.26,23.68,0,4
15707.109,0.186,0.227,0.638,-33.63,39.03,19.9,0,4
15707.109,0.208,0.205,0.611,-29.57,33.69,14.59,0,4
15707.125,0.225,0.208,0.595,-28.5,32.5,7.48,0,4
15707.14,0.223,0.257,0.61,-30.27,36.53,-0.95,0,4
15707.14,0.212,0.32,0.633,-34.64,44.25,-9.86,0,4
15707.156,0.173,0.367,0.673,-39.7,54.08,-16.63,0,4
15707.171,0.11,0.391,0.73,-41.93,63.02,-18.62,0,4
15707.171,0.077,0.388,0.789,-34.61,65.49,-12.51,0,4
15707.187,0.08,0.373,0.826,-27.13,60.4,-11.66,0,4
15707.187,0.104,0.389,0.845,-20.26,54.6,-15.05,0,4
15707.203,0.133,0.442,0.839,-15.99,50.11,-21.15,0,4
15707.218,0.133,0.491,0.847,-14.71,47.64,-26.52,0,4
15707.218,0.125,0.512,0.844,-14.19,44.59,-28.93,0,4
15707.234,0.114,0.533,0.852,-13.4,41.66,-26.83,0,4
15707.25,0.099,0.575,0.879,-11.69,39.43,-20.91,0,4
15707.265,0.087,0.592,0.907,-10.35,36.77,-13.95,0,4
15707.265,0.086,0.585,0.931,-9.8,32.69,-8.61,0,4
15707.281,0.104,0.569,0.942,-9.28,26.58,-6.32,0,4
15707.281,0.132,0.541,0.927,-8.18,18.37,-7.17,0,4
15707.296,0.156,0.505,0.901,-6.32,9.46,-9.13,0,4
15707.312,0.188,0.474,0.868,-3.23,1.65,-11.26,0,4
15707.312,0.221,0.447,0.831,0.61,-2.84,-14.1,0,4
15707.328,0.239,0.448,0.799,4.09,-3.05,-17.76,0,4
15707.343,0.231,0.482,0.787,7.29,1.16,-22.58,0,4
15707.343,0.216,0.517,0.789,10.65,7.63,-26.12,0,4
15707.359,0.184,0.549,0.804,15.26,13.73,-26.18,0,4
15707.359,0.163,0.573,0.827,20.45,17.24,-23.01,0,4
15707.375,0.155,0.585,0.823,25.03,17.3,-19.07,0,4
15707.39,0.152,0.59,0.808,27.38,15.26,-16.42,0,4
15707.39,0.165,0.598,0.793,26.95,13.34,-15.84,0,4
15707.406,0.173,0.6,0.769,25.15,11.93,-17.73,0,4
15707.421,0.179,0.611,0.748,21.97,11.81,-19.81,0,4
15707.421,0.175,0.631,0.737,16.97,13.37,-20.97,0,4
15707.437,0.168,0.636,0.745,10.9,15.81,-20.69,0,4
15707.437,0.154,0.634,0.76,7.57,19.47,-19.44,0,4
15707.453,0.127,0.651,0.781,4.85,22.25,-17.94,0,4
15707.468,0.119,0.659,0.801,2.08,22.0,-15.11,0,4
15707.468,0.119,0.653,0.808,1.89,19.75,-11.11,0,4
15707.484,0.131,0.641,0.805,3.36,16.6,-7.39,0,4
15707.5,0.152,0.621,0.799,5.07,13.55,-5.31,0,4
15707.5,0.161,0.604,0.792,5.49,11.29,-5.34,0,4
15707.515,0.175,0.612,0.784,2.96,9.37,-7.02,0,4
15707.531,0.191,0.615,0.771,-0.98,8.36,-9.28,0,4
15707.531,0.15,0.572,0.766,-5.77,8.21,-9.31,0,4
15707.562,0.214,0.618,0.763,-11.17,11.81,-11.66,0,4
15707.562,0.179,0.585,0.78,-15.93,13.89,-14.34,0,4
15707.578,0.173,0.599,0.814,-22.92,13.06,-14.59,0,4
15707.578,0.176,0.586,0.825,-26.73,10.56,-13.7,0,4
15707.593,0.204,0.551,0.827,-26.67,8.64,-11.69,0,4
15707.609,0.205,0.537,0.822,-24.32,8.15,-11.75,0,4
15707.625,0.206,0.523,0.82,-21.15,8.06,-12.12,0,4
15707.625,0.208,0.509,0.815,-16.33,8.48,-12.76,0,4
15707.64,0.2,0.506,0.806,-10.44,9.55,-13.82,0,4
15707.64,0.193,0.499,0.791,-5.1,10.32,-14.56,0,4
15707.656,0.192,0.513,0.772,-2.53,11.41,-14.8,0,4
15707.671,0.244,0.529,0.723,-2.35,14.68,-15.72,0,4
15707.671,0.176,0.459,0.787,-5.62,20.02,-20.33,0,4
15707.687,0.117,0.587,0.859,-10.25,16.21,-19.96,0,4
15707.687,0.132,0.599,0.907,-6.32,9.43,-13.49,0,4
15707.703,0.085,0.622,0.906,-2.2,2.01,-8.45,0,4
15707.718,0.081,0.635,0.893,-1.74,-3.54,-3.39,0,4
15707.718,0.093,0.63,0.875,-1.31,-6.04,-0.06,0,4
15707.734,0.102,0.623,0.861,0.61,-4.73,1.25,0,4
15707.75,0.084,0.651,0.858,1.16,-2.93,2.14,0,4
15707.75,0.081,0.696,0.847,-0.21,-2.14,5.16,0,4
15707.765,0.065,0.69,0.844,-1.92,-3.39,10.13,0,4
15707.781,0.081,0.659,0.803,-4.18,-6.41,15.75,0,4
15707.781,0.131,0.624,0.732,-3.39,-6.56,18.77,0,4
15707.796,0.131,0.559,0.782,-5.1,-5.16,18.71,0,4
15707.812,0.127,0.66,0.771,-13.86,-11.72,19.23,0,4
15707.812,0.209,0.516,0.725,-9.64,-10.22,19.71,0,4
15707.828,0.115,0.536,0.773,-11.93,-9.92,17.76,0,4
15707.828,0.158,0.595,0.783,-8.0,-11.6,24.54,0,4
15707.843,0.188,0.563,0.768,-0.67,-10.04,26.52,0,4
15707.859,0.181,0.541,0.757,1.25,-7.29,26.52,0,4
15707.859,0.188,0.549,0.764,2.38,-3.27,27.41,0,4
15707.875,0.196,0.544,0.761,3.85,0.58,27.62,0,4
15707.906,0.21,0.517,0.77,-1.16,6.53,26.67,0,4
15707.906,0.219,0.501,0.78,-2.78,9.03,25.24,0,4
15707.921,0.232,0.478,0.79,-2.96,11.41,22.95,0,4
15707.921,0.234,0.464,0.807,-3.36,12.79,19.96,0,4
15707.937,0.23,0.459,0.823,-3.27,12.36,16.94,0,4
15707.937,0.231,0.453,0.832,-2.08,10.86,14.86,0,4
15707.953,0.239,0.443,0.834,-0.4,9.28,13.12,0,4
15707.968,0.244,0.437,0.828,1.56,7.81,10.16,0,4
15707.968,0.242,0.446,0.822,2.69,7.54,7.14,0,4
15707.984,0.238,0.454,0.823,2.78,8.58,4.67,0,4
15708.0,0.228,0.457,0.829,2.26,9.7,3.17,0,4
15708.0,0.219,0.461,0.834,1.56,10.28,2.17,0,4
15708.015,0.212,0.47,0.839,0.43,10.13,1.19,0,4
15708.031,0.203,0.477,0.839,-1.28,8.76,0.49,0,4
15708.031,0.201,0.485,0.84,-3.05,6.81,0.21,0,4
15708.046,0.202,0.482,0.839,-4.21,4.79,-0.15,0,4
15708.062,0.204,0.485,0.837,-4.61,2.72,-1.1,0,4
15708.078,0.2,0.488,0.837,-3.66,2.81,-1.25,0,4
15708.078,0.195,0.497,0.838,-1.92,3.6,-0.92,0,4
15708.093,0.194,0.505,0.838,0.76,4.58,0.27,0,4
15708.109,0.192,0.516,0.837,3.23,6.01,1.53,0,4
15708.109,0.186,0.526,0.838,4.64,7.57,2.56,0,4
15708.125,0.183,0.528,0.839,4.15,8.61,3.14,0,4
15708.14,0.184,0.521,0.835,2.78,8.97,2.72,0,4
15708.14,0.182,0.512,0.839,1.68,9.13,1.59,0,4
15708.156,0.176,0.511,0.842,-1.74,8.27,-2.17,0,4
15708.171,0.17,0.513,0.844,-3.94,7.81,-3.08,0,4
15708.171,0.168,0.518,0.845,-4.3,8.18,-3.05,0,4
15708.187,0.158,0.514,0.846,-3.85,9.16,-2.87,0,4
15708.187,0.157,0.514,0.84,-2.66,10.8,-2.32,0,4
15708.203,0.157,0.519,0.832,-0.34,12.94,-2.14,0,4
15708.218,0.16,0.517,0.824,1.95,14.83,-2.08,0,4
15708.218,0.155,0.526,0.823,2.59,15.99,-2.69,0,4
15708.234,0.15,0.538,0.824,0.98,15.93,-3.57,0,4
15708.25,0.147,0.546,0.81,-2.04,15.32,-4.0,0,4
15708.25,0.14,0.558,0.789,-5.25,15.69,-3.51,0,4
15708.265,0.135,0.571,0.78,-7.63,17.49,-2.23,0,4
15708.281,0.133,0.571,0.772,-9.09,20.05,-0.27,0,4
15708.281,0.124,0.558,0.773,-10.32,22.64,2.32,0,4
15708.296,0.139,0.563,0.781,-10.19,25.06,4.97,0,4
15708.312,0.123,0.576,0.786,-8.51,27.16,4.21,0,4
15708.312,0.109,0.556,0.799,-8.27,28.41,4.46,0,4
15708.328,0.098,0.555,0.803,-8.48,28.26,4.64,0,4
15708.328,0.096,0.554,0.802,-8.42,27.07,5.4,0,4
15708.343,0.105,0.552,0.81,-8.09,25.76,5.58,0,4
15708.359,0.104,0.548,0.806,-7.87,24.78,4.79,0,4
15708.359,0.102,0.553,0.797,-9.74,25.09,5.1,0,4
15708.375,0.102,0.565,0.8,-12.7,27.22,6.32,0,4
15708.39,0.086,0.558,0.818,-15.5,30.18,7.35,0,4
15708.39,0.067,0.538,0.844,-17.76,31.95,9.0,0,4
15708.406,0.063,0.529,0.871,-18.77,31.95,10.25,0,4
15708.421,0.065,0.521,0.885,-18.52,29.88,10.5,0,4
15708.421,0.064,0.507,0.897,-18.13,26.4,9.98,0,4
15708.437,0.054,0.491,0.896,-18.65,21.67,9.16,0,4
15708.453,0.058,0.475,0.895,-20.54,16.11,8.27,0,4
15708.453,0.075,0.476,0.879,-24.93,10.22,4.61,0,4
15708.468,0.072,0.448,0.832,-32.26,5.83,-1.01,0,4
15708.468,0.084,0.428,0.772,-41.63,6.44,-6.38,0,4
15708.484,0.092,0.417,0.703,-52.61,11.9,-12.97,0,4
15708.5,0.107,0.37,0.65,-64.46,21.88,-19.07,0,4
15708.5,0.095,0.349,0.685,-72.63,36.71,-25.36,0,4
15708.515,-0.025,0.366,0.877,-68.15,47.49,-27.22,0,4
15708.531,0.005,0.302,1.008,-53.9,45.05,-22.43,0,4
15708.531,-0.284,0.516,1.333,-38.42,33.66,-17.98,0,4
15708.546,-0.156,0.353,1.257,-16.85,3.33,0.0,0,4
15708.562,-0.055,0.389,1.017,-26.25,-19.2,0.43,0,4
15708.562,-0.088,0.357,0.956,-34.49,-13.25,0.7,0,4
15708.578,-0.063,0.234,0.95,-28.9,-0.09,3.05,0,4
15708.578,-0.071,0.216,0.951,-18.65,13.37,2.69,0,4
15708.593,-0.107,0.245,0.971,-4.46,22.89,2.29,0,4
15708.609,-0.149,0.254,0.981,10.56,25.79,3.36,0,4
15708.625,-0.175,0.289,1.011,21.76,21.45,4.52,0,4
15708.625,-0.232,0.341,1.067,32.23,8.36,3.45,0,4
15708.64,-0.172,0.341,1.122,41.57,-12.42,5.98,0,4
15708.64,-0.122,0.321,0.941,32.81,-39.98,-3.39,0,4
15708.656,-0.169,0.408,0.908,16.05,-55.21,-13.03,0,4
15708.671,-0.07,0.328,0.921,8.48,-66.44,-11.08,0,4
15708.687,0.001,0.291,0.866,0.79,-76.6,-14.22,0,4
15708.687,0.062,0.277,0.807,-6.2,-79.81,-20.42,0,4
15708.687,0.102,0.269,0.781,-9.95,-76.05,-29.02,0,4
15708.703,0.13,0.293,0.788,-13.25,-69.8,-38.24,0,4
15708.718,0.15,0.296,0.784,-14.83,-63.2,-47.52,0,4
15708.734,0.156,0.34,0.786,-20.11,-58.57,-58.11,0,4
15708.734,0.193,0.382,0.783,-26.86,-54.54,-64.09,0,4
15708.75,0.194,0.406,0.792,-29.21,-49.29,-66.29,0,4
15708.75,0.198,0.44,0.813,-29.18,-44.16,-64.21,0,4
15708.765,0.2,0.453,0.84,-25.48,-39.61,-59.6,0,4
15708.781,0.173,0.503,0.895,-17.24,-36.56,-50.94,0,4
15708.781,0.171,0.572,0.928,-6.41,-36.07,-37.81,0,4
15708.796,0.223,0.56,0.932,0.67,-38.18,-26.98,0,4
15708.812,0.25,0.543,0.92,3.17,-39.31,-20.57,0,4
15708.812,0.263,0.534,0.897,5.31,-37.05,-18.31,0,4
15708.828,0.26,0.528,0.887,8.06,-31.86,-16.27,0,4
15708.828,0.254,0.53,0.884,9.16,-25.7,-13.37,0,4
15708.843,0.251,0.531,0.885,9.06,-19.01,-10.53,0,4
15708.859,0.236,0.525,0.888,9.8,-12.45,-7.05,0,4
15708.859,0.222,0.505,0.898,12.21,-6.56,-2.5,0,4
15708.875,0.209,0.49,0.923,15.93,-2.38,0.76,0,4
15708.89,0.201,0.473,0.93,21.36,-1.04,1.31,0,4
15708.906,0.193,0.462,0.918,26.03,-1.95,0.06,0,4
15708.906,0.186,0.468,0.906,26.37,-3.85,-1.56,0,4
15708.921,0.183,0.458,0.888,22.92,-6.1,-2.87,0,4
15708.921,0.179,0.433,0.875,17.37,-8.48,-4.12,0,4
15708.937,0.183,0.405,0.881,10.5,-11.05,-5.19,0,4
15708.953,0.177,0.387,0.865,10.86,-11.6,-5.19,0,4
15708.953,0.174,0.378,0.864,16.57,-9.37,-4.36,0,4
15708.968,0.161,0.389,0.878,23.5,-5.71,-2.93,0,4
15708.968,0.15,0.407,0.885,28.17,-3.88,-1.56,0,4
15708.984,0.153,0.426,0.886,29.66,-2.72,-1.46,0,4
15709.0,0.151,0.445,0.892,29.08,-1.74,-2.9,0,4
15709.0,0.188,0.462,0.845,29.85,-0.18,-4.06,0,4
15709.015,0.115,0.381,0.845,32.35,3.45,-6.38,0,4
15709.031,0.084,0.562,0.925,21.09,-1.56,-6.81,0,4
15709.031,0.156,0.542,0.895,18.56,-7.23,-2.87,0,4
15709.046,0.073,0.499,0.867,18.01,-9.64,-2.38,0,4
15709.062,0.118,0.499,0.877,15.78,-12.24,1.92,0,4
15709.062,0.108,0.527,0.892,20.57,-13.73,4.73,0,4
15709.078,0.079,0.496,0.891,29.42,-17.64,8.58,0,4
15709.093,0.103,0.489,0.88,36.29,-25.82,11.96,0,4
15709.093,0.121,0.501,0.856,39.49,-33.94,13.49,0,4
15709.109,0.109,0.496,0.858,36.41,-40.96,12.76,0,4
15709.109,0.118,0.556,0.854,26.83,-48.92,12.88,0,4
15709.125,0.244,0.47,0.777,23.13,-50.87,12.54,0,4
15709.14,0.184,0.42,0.758,4.79,-43.7,1.25,0,4
15709.14,0.209,0.511,0.831,7.57,-41.6,1.31,0,4
15709.156,0.23,0.505,0.817,12.91,-37.6,2.78,0,4
15709.171,0.22,0.496,0.795,15.02,-33.39,4.76,0,4
15709.171,0.249,0.532,0.788,17.18,-28.96,5.28,0,4
15709.187,0.258,0.533,0.783,18.04,-24.6,5.55,0,4
15709.203,0.264,0.539,0.77,16.54,-20.6,4.46,0,4
15709.203,0.27,0.545,0.755,12.3,-16.51,2.66,0,4
15709.218,0.276,0.532,0.741,7.63,-11.81,1.01,0,4
15709.218,0.282,0.524,0.731,3.23,-6.84,-0.73,0,4
15709.234,0.287,0.52,0.727,-0.61,-0.73,-2.84,0,4
15709.25,0.281,0.522,0.744,-2.66,5.74,-4.49,0,4
15709.25,0.267,0.526,0.771,-2.81,10.04,-5.37,0,4
15709.265,0.24,0.533,0.798,-2.78,11.2,-4.82,0,4
15709.281,0.218,0.548,0.82,-2.75,10.38,-3.42,0,4
15709.281,0.206,0.557,0.84,-3.11,8.27,-2.17,0,4
15709.296,0.2,0.553,0.851,-3.91,5.8,-1.28,0,4
15709.312,0.194,0.548,0.85,-5.16,3.45,-0.92,0,4
15709.312,0.191,0.537,0.844,-6.53,1.1,-0.24,0,4
15709.328,0.195,0.522,0.834,-7.23,-1.07,0.82,0,4
15709.328,0.201,0.513,0.824,-7.63,-2.72,1.86,0,4
15709.343,0.206,0.51,0.818,-8.36,-3.54,2.32,0,4
15709.359,0.209,0.5,0.818,-8.94,-3.78,2.66,0,4
15709.359,0.215,0.493,0.825,-9.46,-4.24,2.84,0,4
15709.375,0.223,0.491,0.834,-9.46,-4.88,2.41,0,4
15709.39,0.23,0.488,0.83,-8.03,-5.16,1.59,0,4
15709.39,0.237,0.488,0.827,-6.59,-5.01,0.46,0,4
15709.406,0.244,0.487,0.824,-5.19,-4.52,-0.73,0,4
15709.421,0.248,0.491,0.818,-3.51,-3.14,-1.68,0,4
15709.437,0.238,0.508,0.814,-1.28,-0.4,-3.33,0,4
15709.437,0.232,0.511,0.818,-0.92,0.37,-3.23,0,4
15709.453,0.221,0.518,0.822,-0.73,0.95,-2.62,0,4
15709.468,0.219,0.522,0.827,-0.89,1.13,-2.04,0,4
15709.468,0.215,0.519,0.827,-1.34,0.85,-1.28,0,4
15709.484,0.213,0.517,0.826,-2.17,0.18,-0.67,0,4
15709.5,0.216,0.518,0.829,-3.42,-0.85,0.09,0,4
15709.5,0.212,0.515,0.83,-4.36,-2.17,0.58,0,4
15709.515,0.216,0.509,0.829,-5.19,-3.45,1.1,0,4
15709.531,0.225,0.501,0.828,-5.46,-4.3,1.5,0,4
15709.531,0.235,0.496,0.821,-4.97,-3.94,1.43,0,4
15709.546,0.237,0.491,0.818,-4.0,-2.32,1.1,0,4
15709.562,0.236,0.483,0.816,-3.05,-0.58,0.49,0,4
15709.562,0.24,0.478,0.812,-2.04,0.95,-0.06,0,4
15709.578,0.24,0.48,0.81,-0.89,2.62,-0.7,0,4
15709.578,0.239,0.483,0.811,0.27,4.27,-1.56,0,4
15709.609,0.239,0.494,0.816,0.31,6.59,-3.36,0,4
15709.625,0.229,0.5,0.819,-0.55,6.99,-4.55,0,4
15709.625,0.227,0.506,0.819,-1.13,7.02,-5.07,0,4
15709.64,0.216,0.509,0.827,-2.35,6.81,-5.25,0,4
15709.64,0.207,0.514,0.836,-4.15,6.07,-5.22,0,4
15709.656,0.198,0.511,0.839,-5.58,4.43,-5.16,0,4
15709.671,0.193,0.508,0.851,-7.9,2.41,-5.1,0,4
15709.671,0.193,0.501,0.857,-9.7,0.06,-4.91,0,4
15709.687,0.196,0.495,0.87,-11.54,-2.35,-5.04,0,4
15709.703,0.206,0.499,0.859,-14.31,-5.1,-5.8,0,4
15709.703,0.219,0.501,0.84,-16.72,-6.26,-6.93,0,4
15709.718,0.248,0.499,0.778,-20.02,-5.8,-8.94,0,4
15709.718,0.303,0.403,0.738,-19.84,1.86,-10.99,0,4
15709.734,0.131,0.485,0.866,-24.48,7.2,-14.19,0,4
15709.75,0.187,0.572,0.928,-26.73,1.77,-9.7,0,4
15709.75,0.169,0.512,0.899,-14.04,-2.11,-5.95,0,4
15709.765,0.153,0.508,0.881,-6.13,-5.68,-1.16,0,4
15709.781,0.189,0.505,0.848,-0.52,-8.55,3.36,0,4
15709.781,0.188,0.471,0.831,3.72,-8.67,5.49,0,4
15709.796,0.195,0.45,0.84,3.78,-9.06,7.05,0,4
15709.812,0.21,0.457,0.849,3.11,-10.86,6.62,0,4
15709.812,0.219,0.455,0.85,3.33,-12.94,4.91,0,4
15709.828,0.226,0.461,0.851,4.03,-13.58,3.97,0,4
15709.828,0.234,0.465,0.856,7.23,-12.42,4.06,0,4
15709.843,0.229,0.46,0.86,11.23,-11.14,4.58,0,4
15709.859,0.231,0.463,0.854,14.31,-10.13,5.13,0,4
15709.875,0.235,0.47,0.841,16.69,-8.85,5.07,0,4
15709.875,0.236,0.47,0.825,18.28,-7.14,4.91,0,4
15709.89,0.223,0.48,0.831,17.64,-5.8,4.58,0,4
15709.89,0.195,0.539,0.85,13.89,-6.9,4.24,0,4
15709.906,0.287,0.497,0.793,13.92,-8.06,4.67,0,4
15709.921,0.224,0.46,0.748,16.24,-3.05,3.42,0,4
15709.921,0.236,0.529,0.79,9.22,0.15,4.82,0,4
15709.937,0.25,0.52,0.801,6.87,1.83,5.46,0,4
15709.953,0.232,0.504,0.802,4.43,3.08,5.13,0,4
15709.953,0.248,0.516,0.817,0.73,2.84,4.67,0,4
15709.968,0.241,0.514,0.818,-0.73,2.9,3.27,0,4
15709.968,0.233,0.503,0.823,-1.95,2.81,2.26,0,4
15709.984,0.227,0.501,0.832,-3.05,1.92,1.71,0,4
15710.0,0.224,0.5,0.832,-3.11,0.64,1.62,0,4
15710.0,0.225,0.497,0.834,-4.0,-0.73,1.53,0,4
15710.015,0.23,0.493,0.834,-4.49,-1.83,1.13,0,4
15710.031,0.225,0.491,0.832,-3.78,-2.29,1.25,0,4
15710.031,0.229,0.49,0.827,-2.47,-2.17,1.71,0,4
15710.046,0.232,0.488,0.846,-3.08,-2.08,1.56,0,4
15710.062,0.23,0.487,0.844,-1.86,-2.72,1.4,0,4
15710.062,0.227,0.484,0.839,0.4,-2.99,1.71,0,4
15710.078,0.229,0.493,0.838,1.25,-3.63,2.04,0,4
15710.093,0.234,0.49,0.838,1.98,-4.15,2.26,0,4
15710.093,0.235,0.488,0.834,2.69,-4.55,2.35,0,4
15710.109,0.235,0.492,0.832,3.05,-4.94,2.5,0,4
15710.125,0.238,0.497,0.825,2.23,-5.8,2.59,0,4
15710.14,0.239,0.502,0.825,1.43,-5.71,2.35,0,4
15710.14,0.235,0.501,0.824,0.46,-6.53,2.26,0,4
15710.156,0.234,0.506,0.829,-0.34,-7.66,2.32,0,4
15710.171,0.24,0.502,0.824,-0.64,-8.39,2.75,0,4
15710.171,0.247,0.501,0.818,-0.73,-8.61,3.14,0,4
15710.187,0.251,0.499,0.813,-0.92,-8.39,3.3,0,4
15710.187,0.254,0.493,0.81,-1.16,-7.66,3.27,0,4
15710.203,0.253,0.488,0.815,-1.62,-6.81,3.08,0,4
15710.218,0.255,0.488,0.822,-1.71,-6.47,2.75,0,4
15710.218,0.257,0.49,0.829,-1.71,-6.68,2.17,0,4
15710.234,0.256,0.49,0.828,-1.43,-6.93,1.71,0,4
15710.25,0.258,0.489,0.826,-0.98,-6.81,1.28,0,4
15710.25,0.26,0.491,0.819,-0.49,-6.59,0.89,0,4
15710.265,0.262,0.493,0.812,-0.58,-6.26,0.4,0,4
15710.281,0.263,0.492,0.81,-0.85,-5.8,-0.09,0,4
15710.296,0.261,0.495,0.803,-1.98,-4.52,-0.92,0,4
15710.312,0.261,0.5,0.802,-3.51,-3.6,-1.43,0,4
15710.312,0.266,0.486,0.801,-5.25,-2.01,-1.74,0,4
15710.328,0.266,0.471,0.797,-6.78,-0.21,-2.11,0,4
15710.328,0.273,0.466,0.811,-7.9,1.43,-2.38,0,4
15710.343,0.288,0.472,0.817,-8.15,3.14,-2.26,0,4
15710.359,0.297,0.448,0.805,-5.1,5.92,-3.11,0,4
15710.359,0.291,0.443,0.799,-2.66,9.7,-5.34,0,4
15710.375,0.28,0.464,0.82,-1.53,13.25,-7.81,0,4
15710.39,0.227,0.475,0.876,-2.81,13.15,-11.05,0,4
15710.39,0.211,0.52,0.937,-10.77,5.65,-14.4,0,4
15710.406,0.239,0.496,0.888,-8.36,-2.29,-15.96,0,4
15710.421,0.239,0.503,0.82,-2.66,-4.79,-15.69,0,4
15710.421,0.311,0.484,0.728,4.18,0.03,-12.57,0,4
15710.437,0.173,0.475,0.807,4.67,6.9,-10.62,0,4
15710.453,0.172,0.619,0.882,-6.23,1.95,-7.51,0,4
15710.453,0.201,0.557,0.851,-6.84,-3.45,-4.46,0,4
15710.468,0.174,0.528,0.824,-8.24,-5.55,-0.89,0,4
15710.468,0.218,0.504,0.816,-11.29,-7.02,2.78,0,4
15710.484,0.224,0.474,0.804,-11.93,-5.92,4.18,0,4
15710.5,0.23,0.456,0.817,-13.37,-4.03,5.43,0,4
15710.5,0.231,0.452,0.845,-14.56,-3.45,5.77,0,4
15710.515,0.234,0.448,0.865,-13.4,-3.97,5.52,0,4
15710.531,0.234,0.447,0.885,-9.92,-4.52,5.83,0,4
15710.531,0.235,0.448,0.9,-4.18,-5.28,5.89,0,4
15710.546,0.235,0.44,0.9,2.29,-6.04,6.35,0,4
15710.562,0.244,0.437,0.887,8.7,-6.93,6.53,0,4
15710.562,0.244,0.437,0.87,14.83,-7.2,6.2,0,4
15710.578,0.238,0.439,0.867,19.32,-7.42,5.86,0,4
15710.578,0.209,0.499,0.88,20.17,-9.74,5.37,0,4
15710.593,0.299,0.493,0.824,22.19,-12.09,6.44,0,4
15710.609,0.251,0.441,0.78,26.76,-7.93,5.62,0,4
15710.609,0.253,0.521,0.82,22.4,-5.4,7.26,0,4
15710.625,0.27,0.522,0.831,21.42,-4.55,8.73,0,4
15710.64,0.246,0.511,0.839,18.22,-5.04,8.58,0,4
15710.64,0.272,0.501,0.817,18.07,-6.38,8.76,0,4
15710.656,0.265,0.521,0.819,18.59,-4.46,7.75,0,4
15710.671,0.267,0.529,0.822,16.17,-3.78,7.02,0,4
15710.671,0.265,0.515,0.805,14.16,-3.08,6.16,0,4
15710.687,0.265,0.531,0.805,11.29,-2.53,6.07,0,4
15710.687,0.271,0.537,0.813,9.16,-1.4,7.08,0,4
15710.703,0.268,0.542,0.821,7.11,0.52,7.93,0,4
15710.718,0.259,0.558,0.832,4.73,4.88,7.9,0,4
15710.718,0.252,0.58,0.88,-0.61,11.51,8.03,0,4
15710.734,0.213,0.593,0.915,-5.46,16.72,10.04,0,4
15710.75,0.198,0.643,0.976,-11.11,21.06,12.67,0,4
15710.765,0.16,0.692,1.053,-16.69,24.45,16.57,0,4
15710.765,0.128,0.754,1.168,-23.68,26.43,21.55,0,4
15710.781,0.096,0.83,1.306,-31.71,27.86,24.9,0,4
15710.781,0.06,0.881,1.472,-37.26,27.92,26.18,0,4
15710.796,0.021,0.909,1.639,-36.68,24.02,26.83,0,4
15710.812,0.008,0.948,1.764,-28.96,14.65,27.1,0,4
15710.812,0.032,0.962,1.841,-15.11,1.89,29.63,0,4
15710.828,0.065,0.957,1.875,2.62,-12.48,35.58,0,4
15710.828,0.12,0.93,1.869,23.29,-28.75,43.28,0,4
15710.843,0.173,0.904,1.835,44.86,-43.89,52.34,0,4
15710.859,0.221,0.9,1.783,62.72,-55.24,61.25,0,4
15710.859,0.245,0.925,1.722,73.34,-62.41,69.46,0,4
15710.875,0.256,0.966,1.669,72.45,-67.2,77.67,0,4
15710.89,0.259,0.981,1.635,60.46,-72.02,86.67,0,4
15710.89,0.251,0.965,1.625,40.5,-79.9,96.99,0,4
15710.906,0.242,0.944,1.617,19.07,-91.8,107.52,0,4
15710.921,0.242,0.908,1.59,-0.06,-106.75,115.57,0,4
15710.921,0.251,0.842,1.554,-16.94,-125.95,121.98,0,4
15710.937,0.28,0.779,1.503,-30.0,-147.28,128.57,0,4
15710.937,0.332,0.743,1.435,-38.79,-167.46,134.07,0,4
15710.953,0.411,0.714,1.352,-44.19,-184.85,137.97,0,4
15710.968,0.51,0.689,1.253,-48.07,-200.02,141.24,0,4
15710.984,0.568,0.677,1.142,-49.5,-213.02,144.29,0,4
15710.984,0.567,0.633,1.04,-47.52,-223.88,148.81,0,4
15711.0,0.548,0.585,0.937,-43.18,-234.63,154.27,0,4
15711.015,0.521,0.543,0.821,-35.0,-244.54,158.67,0,4
15711.015,0.499,0.525,0.696,-24.51,-253.18,160.92,0,4
15711.031,0.502,0.518,0.556,-13.46,-260.6,161.35,0,4
15711.031,0.514,0.534,0.414,-2.01,-267.25,159.31,0,4
15711.046,0.531,0.496,0.263,12.12,-273.48,157.14,0,4
15711.062,0.551,0.371,0.129,30.27,-279.0,157.48,0,4
15711.062,0.548,0.252,0.01,53.99,-280.8,159.28,0,4
15711.078,0.567,0.177,-0.111,79.62,-278.97,158.79,0,4
15711.078,0.606,0.129,-0.232,101.41,-276.01,153.26,0,4
15711.093,0.621,0.067,-0.361,120.7,-268.81,144.93,0,4
15711.109,0.658,0.015,-0.481,132.82,-232.61,133.52,0,4
15711.109,0.718,0.014,-0.566,116.86,-202.46,130.86,0,4
15711.125,0.818,0.026,-0.629,85.12,-163.4,126.29,0,4
15711.156,0.919,0.054,-0.626,-5.77,-73.76,104.31,0,4
15711.156,0.858,0.021,-0.554,-52.43,-35.92,88.5,0,4
15711.171,0.783,-0.035,-0.459,-90.91,-7.26,74.01,0,4
15711.171,0.729,-0.073,-0.371,-118.02,8.64,61.43,0,4
15711.187,0.699,-0.093,-0.294,-132.42,14.98,51.52,0,4
15711.203,0.687,-0.101,-0.229,-137.36,16.3,44.86,0,4
15711.203,0.683,-0.095,-0.17,-138.89,15.35,40.35,0,4
15711.218,0.678,-0.084,-0.127,-139.84,12.85,37.08,0,4
15711.218,0.672,-0.086,-0.103,-139.59,9.58,34.24,0,4
15711.234,0.664,-0.076,-0.093,-137.82,5.58,31.31,0,4
15711.25,0.644,-0.048,-0.086,-133.98,3.05,27.68,0,4
15711.25,0.648,-0.033,-0.071,-131.93,4.49,25.27,0,4
15711.265,0.652,-0.021,-0.048,-134.25,10.01,23.96,0,4
15711.281,0.656,-0.028,-0.036,-136.75,14.47,21.73,0,4
15711.281,0.629,-0.04,-0.029,-136.42,15.78,18.92,0,4
15711.296,0.581,-0.049,-0.026,-130.16,16.57,16.21,0,4
15711.312,0.551,-0.064,-0.022,-120.33,14.1,13.73,0,4
15711.312,0.537,-0.061,-0.023,-106.63,9.43,11.51,0,4
15711.328,0.541,-0.049,-0.071,-89.33,1.31,9.89,0,4
15711.328,0.555,-0.037,-0.098,-71.2,-3.36,12.02,0,4
15711.343,0.554,-0.024,-0.096,-59.21,-1.77,17.27,0,4
15711.359,0.576,-0.027,-0.105,-56.83,1.95,22.95,0,4
15711.359,0.577,-0.032,-0.118,-60.55,4.67,26.28,0,4
15711.375,0.557,-0.036,-0.122,-64.0,3.78,25.73,0,4
15711.39,0.554,-0.039,-0.116,-67.75,-0.43,23.68,0,4
15711.39,0.564,-0.025,-0.124,-72.85,-6.01,21.49,0,4
15711.406,0.546,-0.006,-0.153,-76.05,-13.0,18.95,0,4
15711.421,0.519,0.011,-0.158,-77.88,-17.0,18.95,0,4
15711.437,0.574,0.031,-0.145,-84.75,-16.6,24.57,0,4
15711.437,0.599,0.049,-0.122,-96.84,-12.27,34.06,0,4
15711.453,0.582,0.018,-0.09,-108.37,-7.9,43.12,0,4
15711.453,0.579,-0.045,-0.057,-118.44,-8.67,51.45,0,4
15711.468,0.591,-0.097,-0.023,-124.82,-15.2,57.41,0,4
15711.484,0.609,-0.149,-0.008,-125.98,-25.12,61.49,0,4
15711.484,0.611,-0.206,-0.013,-121.19,-36.23,64.79,0,4
15711.5,0.626,-0.233,-0.019,-112.8,-47.06,68.24,0,4
15711.5,0.656,-0.248,-0.031,-104.37,-55.36,72.63,0,4
15711.515,0.689,-0.29,-0.05,-96.68,-60.95,78.89,0,4
15711.531,0.713,-0.314,-0.07,-88.87,-65.98,85.3,0,4
15711.531,0.735,-0.354,-0.105,-80.87,-71.96,90.88,0,4
15711.546,0.731,-0.419,-0.141,-75.32,-77.76,98.3,0,4
15711.562,0.723,-0.463,-0.175,-68.54,-81.0,104.65,0,4
15711.562,0.777,-0.491,-0.19,-64.97,-82.31,107.79,0,4
15711.578,0.762,-0.547,-0.207,-66.87,-82.74,108.43,0,4
15711.593,0.876,-0.508,-0.234,-71.29,-82.77,106.66,0,4
15711.593,0.809,-0.502,-0.28,-75.78,-78.83,94.3,0,4
15711.609,0.803,-0.639,-0.286,-85.12,-71.75,91.59,0,4
15711.609,0.842,-0.622,-0.255,-93.05,-65.92,87.19,0,4
15711.625,0.85,-0.663,-0.243,-88.53,-57.19,78.86,0,4
15711.64,0.82,-0.783,-0.226,-68.85,-40.93,66.04,0,4
15711.656,0.79,-0.81,-0.225,-51.7,-36.01,56.98,0,4
15711.671,0.77,-0.837,-0.246,-33.02,-33.94,47.06,0,4
15711.671,0.769,-0.812,-0.271,-16.82,-32.56,38.3,0,4
15711.687,0.775,-0.764,-0.292,-3.94,-29.6,29.57,0,4
15711.703,0.791,-0.732,-0.312,4.64,-25.61,21.18,0,4
15711.703,0.796,-0.695,-0.329,8.61,-21.03,14.71,0,4
15711.718,0.817,-0.654,-0.339,10.07,-15.02,9.7,0,4
15711.718,0.831,-0.635,-0.338,10.41,-7.54,6.47,0,4
15711.734,0.824,-0.627,-0.329,10.8,-0.27,4.94,0,4
15711.75,0.815,-0.618,-0.317,11.84,4.79,3.81,0,4
15711.75,0.829,-0.639,-0.316,13.58,5.98,4.24,0,4
15711.765,0.837,-0.653,-0.321,14.28,6.1,6.96,0,4
15711.781,0.848,-0.647,-0.328,12.02,5.28,8.7,0,4
15711.781,0.859,-0.654,-0.33,5.8,2.75,8.24,0,4
15711.796,0.867,-0.643,-0.325,-3.08,0.03,5.71,0,4
15711.812,0.876,-0.589,-0.293,-22.74,0.06,-4.06,0,4
15711.828,0.878,-0.577,-0.276,-28.81,2.17,-7.93,0,4
15711.828,0.864,-0.558,-0.264,-29.45,4.49,-9.98,0,4
15711.843,0.865,-0.547,-0.245,-26.43,7.48,-9.31,0,4
15711.859,0.87,-0.531,-0.238,-22.06,9.19,-9.06,0,4
15711.859,0.876,-0.53,-0.236,-18.56,10.32,-9.28,0,4
15711.875,0.881,-0.513,-0.219,-17.58,12.54,-10.04,0,4
15711.89,0.873,-0.497,-0.202,-17.27,14.59,-12.82,0,4
15711.89,0.859,-0.492,-0.186,-17.0,15.32,-15.72,0,4
15711.906,0.861,-0.48,-0.171,-14.86,14.16,-18.46,0,4
15711.921,0.852,-0.468,-0.172,-10.96,11.93,-20.75,0,4
15711.921,0.855,-0.458,-0.183,-7.23,8.7,-22.13,0,4
15711.937,0.864,-0.442,-0.19,-5.62,6.23,-21.49,0,4
15711.953,0.879,-0.414,-0.198,-6.32,4.94,-20.48,0,4
15711.953,0.878,-0.398,-0.2,-8.39,4.58,-20.66,0,4
15711.968,0.873,-0.39,-0.196,-9.8,4.79,-21.09,0,4
15711.984,0.872,-0.378,-0.191,-6.53,4.79,-18.86,0,4
15712.0,0.874,-0.374,-0.193,-4.21,4.73,-16.45,0,4
15712.0,0.867,-0.37,-0.192,-3.6,5.16,-14.37,0,4
15712.015,0.866,-0.369,-0.186,-4.58,5.22,-13.31,0,4
15712.031,0.864,-0.38,-0.183,-5.71,3.97,-12.7,0,4
15712.031,0.871,-0.376,-0.187,-5.28,1.68,-12.7,0,4
15712.046,0.878,-0.366,-0.188,-3.51,-0.12,-13.25,0,4
15712.062,0.878,-0.36,-0.201,-1.04,-1.28,-13.49,0,4
15712.062,0.882,-0.344,-0.211,1.04,-1.56,-13.09,0,4
15712.078,0.883,-0.323,-0.214,1.95,-0.21,-12.6,0,4
15712.078,0.873,-0.318,-0.216,1.83,4.36,-10.9,0,4
15712.093,0.866,-0.301,-0.205,2.69,5.52,-10.56,0,4
15712.109,0.86,-0.293,-0.194,4.24,6.01,-9.03,0,4
15712.109,0.856,-0.293,-0.191,6.29,5.68,-6.04,0,4
15712.125,0.858,-0.288,-0.188,7.48,4.36,-2.96,0,4
15712.14,0.858,-0.295,-0.197,6.71,2.47,0.49,0,4
15712.156,0.869,-0.295,-0.203,0.4,-1.1,5.62,0,4
15712.171,0.872,-0.299,-0.199,-3.51,-1.65,7.51,0,4
15712.171,0.871,-0.304,-0.19,-5.89,-0.92,9.06,0,4
15712.187,0.872,-0.323,-0.187,-4.79,-0.12,10.53,0,4
15712.203,0.871,-0.346,-0.189,-0.58,0.37,12.76,0,4
15712.203,0.874,-0.353,-0.198,3.88,0.31,14.77,0,4
15712.218,0.877,-0.351,-0.211,6.2,0.58,15.29,0,4
15712.234,0.876,-0.346,-0.219,5.4,1.37,15.14,0,4
15712.234,0.873,-0.345,-0.217,2.84,2.72,15.66,0,4
15712.25,0.878,-0.355,-0.206,0.4,4.12,16.94,0,4
15712.25,0.879,-0.367,-0.199,-0.98,5.46,19.1,0,4
15712.265,0.877,-0.377,-0.193,-1.98,6.04,21.52,0,4
15712.281,0.879,-0.387,-0.182,-3.36,5.74,23.38,0,4
15712.281,0.889,-0.389,-0.177,-5.71,5.34,24.87,0,4
15712.296,0.893,-0.397,-0.166,-8.7,5.43,26.22,0,4
15712.312,0.893,-0.43,-0.157,-10.83,4.91,27.59,0,4
15712.328,0.903,-0.503,-0.148,-9.61,1.01,30.58,0,4
15712.328,0.909,-0.527,-0.151,-7.48,-1.74,29.79,0,4
15712.343,0.919,-0.54,-0.162,-5.28,-4.18,26.28,0,4
15712.359,0.922,-0.552,-0.174,-2.99,-5.43,21.91,0,4
15712.375,0.921,-0.547,-0.178,-0.95,-5.01,17.4,0,4
15712.375,0.922,-0.538,-0.188,1.5,-3.85,12.36,0,4
15712.39,0.922,-0.532,-0.189,4.09,-1.83,8.24,0,4
15712.39,0.907,-0.524,-0.189,7.32,0.95,5.55,0,4
15712.406,0.893,-0.518,-0.19,10.9,2.75,3.72,0,4
15712.421,0.884,-0.508,-0.192,14.25,3.36,2.17,0,4
15712.421,0.882,-0.501,-0.199,16.66,3.27,0.76,0,4
15712.437,0.877,-0.494,-0.2,17.88,3.39,-0.09,0,4
15712.453,0.878,-0.482,-0.2,17.3,3.08,-0.55,0,4
15712.453,0.879,-0.469,-0.197,14.25,3.08,-0.49,0,4
15712.468,0.873,-0.464,-0.192,10.04,3.02,-0.37,0,4
15712.468,0.861,-0.466,-0.183,5.86,1.71,-0.09,0,4
15712.484,0.854,-0.475,-0.182,3.51,-1.04,0.27,0,4
15712.5,0.862,-0.469,-0.187,2.41,-3.85,1.01,0,4
15712.5,0.867,-0.464,-0.193,1.68,-5.13,1.37,0,4
15712.515,0.873,-0.462,-0.201,1.5,-5.07,0.89,0,4
15712.531,0.875,-0.461,-0.205,2.01,-3.97,0.64,0,4
15712.531,0.875,-0.456,-0.206,3.23,-2.44,0.7,0,4
15712.546,0.869,-0.451,-0.206,4.24,-0.98,0.82,0,4
15712.562,0.864,-0.448,-0.206,4.73,0.09,0.89,0,4
15712.562,0.863,-0.447,-0.204,5.1,0.73,1.1,0,4
15712.578,0.863,-0.441,-0.202,5.77,1.22,1.43,0,4
15712.578,0.873,-0.445,-0.204,6.23,1.37,1.65,0,4
15712.593,0.876,-0.449,-0.209,6.59,1.74,2.44,0,4
15712.609,0.884,-0.449,-0.205,6.71,2.08,2.75,0,4
15712.609,0.885,-0.442,-0.198,5.68,3.3,2.66,0,4
15712.625,0.875,-0.439,-0.185,4.33,4.39,2.04,0,4
15712.64,0.864,-0.438,-0.174,3.39,4.73,1.53,0,4
15712.656,0.868,-0.447,-0.167,4.03,4.0,1.43,0,4
15712.656,0.874,-0.449,-0.164,6.38,3.54,1.71,0,4
15712.656,0.881,-0.445,-0.165,9.13,3.66,2.23,0,4
15712.671,0.885,-0.455,-0.166,11.26,4.15,3.2,0,4
15712.687,0.879,-0.455,-0.158,11.93,4.49,4.15,0,4
15712.687,0.871,-0.456,-0.154,11.78,3.94,4.39,0,4
15712.703,0.864,-0.462,-0.155,11.54,2.14,4.24,0,4
15712.718,0.863,-0.46,-0.157,11.32,0.46,4.27,0,4
15712.718,0.871,-0.455,-0.165,10.86,-0.58,3.94,0,4
15712.734,0.875,-0.466,-0.171,9.74,-0.52,3.94,0,4
15712.75,0.872,-0.48,-0.173,8.51,0.31,4.82,0,4
15712.75,0.873,-0.496,-0.174,8.94,1.16,5.71,0,4
15712.765,0.876,-0.508,-0.164,9.67,2.14,5.89,0,4
15712.781,0.87,-0.512,-0.158,11.17,2.9,4.76,0,4
15712.781,0.867,-0.516,-0.157,14.1,3.66,2.78,0,4
15712.796,0.868,-0.518,-0.15,18.56,4.82,1.01,0,4
15712.812,0.866,-0.513,-0.152,23.35,6.13,-1.34,0,4
15712.812,0.863,-0.504,-0.154,27.13,6.53,-3.97,0,4
15712.828,0.865,-0.496,-0.155,29.51,6.41,-5.89,0,4
15712.828,0.862,-0.49,-0.162,29.66,6.32,-6.59,0,4
15712.843,0.859,-0.483,-0.168,27.16,5.83,-6.59,0,4
15712.859,0.862,-0.475,-0.166,22.71,5.13,-5.77,0,4
15712.859,0.868,-0.471,-0.161,17.24,4.82,-4.52,0,4
15712.875,0.861,-0.471,-0.151,11.57,4.76,-3.2,0,4
15712.89,0.851,-0.473,-0.139,6.93,4.55,-2.08,0,4
15712.906,0.854,-0.483,-0.131,3.94,2.9,-1.1,0,4
15712.906,0.852,-0.484,-0.13,2.5,1.07,-0.31,0,4
15712.921,0.85,-0.482,-0.13,2.08,-0.49,0.0,0,4
15712.921,0.852,-0.48,-0.14,2.04,-1.43,-0.03,0,4
15712.937,0.857,-0.472,-0.146,1.92,-1.46,0.06,0,4
15712.937,0.86,-0.471,-0.151,1.01,-0.64,1.22,0,4
15712.953,0.861,-0.475,-0.155,-1.07,0.58,3.63,0,4
15712.968,0.866,-0.489,-0.155,-4.64,1.1,6.99,0,4
15712.968,0.864,-0.517,-0.157,-10.01,0.79,11.41,0,4
15712.984,0.866,-0.54,-0.157,-16.66,0.06,15.53,0,4
15713.0,0.872,-0.557,-0.155,-23.59,-0.95,18.07,0,4
15713.0,0.879,-0.579,-0.145,-30.34,-1.62,19.1,0,4
15713.015,0.872,-0.6,-0.133,-35.4,-1.43,19.29,0,4
15713.031,0.874,-0.619,-0.119,-38.64,-1.4,19.01,0,4
15713.031,0.872,-0.641,-0.11,-39.98,-1.71,18.1,0,4
15713.046,0.872,-0.658,-0.107,-39.09,-2.17,16.51,0,4
15713.062,0.876,-0.665,-0.106,-35.95,-2.53,13.67,0,4
15713.062,0.884,-0.666,-0.111,-25.12,-0.49,4.97,0,4
15713.078,0.888,-0.659,-0.117,-18.52,1.92,-0.76,0,4
15713.078,0.884,-0.646,-0.12,-11.87,4.52,-6.68,0,4
15713.093,0.879,-0.629,-0.119,-5.89,6.41,-12.3,0,4
15713.109,0.856,-0.589,-0.118,-1.25,6.84,-16.6,0,4
15713.125,0.846,-0.569,-0.126,1.43,5.95,-19.1,0,4
15713.125,0.845,-0.553,-0.138,1.71,4.03,-20.14,0,4
15713.14,0.849,-0.533,-0.146,-0.46,2.01,-20.42,0,4
15713.14,0.849,-0.525,-0.148,-4.85,0.67,-20.54,0,4
15713.156,0.842,-0.515,-0.147,-10.16,-0.73,-20.94,0,4
15713.171,0.842,-0.508,-0.143,-14.59,-2.93,-21.58,0,4
15713.171,0.841,-0.502,-0.147,-16.85,-5.37,-21.94,0,4
15713.187,0.85,-0.491,-0.153,-17.06,-6.68,-22.31,0,4
15713.203,0.863,-0.481,-0.162,-16.27,-6.53,-22.52,0,4
15713.203,0.863,-0.478,-0.172,-14.92,-5.1,-22.0,0,4
15713.218,0.862,-0.473,-0.182,-13.46,-3.81,-21.36,0,4
15713.218,0.861,-0.465,-0.185,-12.97,-2.81,-20.66,0,4
15713.234,0.859,-0.462,-0.185,-13.52,-2.01,-20.11,0,4
15713.25,0.854,-0.46,-0.181,-14.86,-1.31,-19.5,0,4
15713.25,0.847,-0.456,-0.183,-16.05,-1.25,-19.9,0,4
15713.265,0.844,-0.45,-0.18,-16.24,-1.46,-21.03,0,4
15713.281,0.836,-0.435,-0.181,-14.56,-1.1,-22.61,0,4
15713.281,0.837,-0.409,-0.182,-11.66,-0.09,-24.05,0,4
15713.296,0.839,-0.383,-0.179,-8.24,2.2,-24.69,0,4
15713.312,0.839,-0.372,-0.177,-3.94,4.67,-25.27,0,4
15713.312,0.844,-0.357,-0.181,1.95,6.62,-25.03,0,4
15713.328,0.849,-0.338,-0.19,7.05,8.45,-22.83,0,4
15713.328,0.853,-0.338,-0.198,10.56,9.74,-19.29,0,4
15713.343,0.862,-0.355,-0.21,11.2,10.96,-13.67,0,4
15713.359,0.871,-0.373,-0.215,7.39,12.3,-7.48,0,4
15713.359,0.88,-0.39,-0.212,-1.01,12.79,-2.72,0,4
15713.375,0.879,-0.413,-0.204,-12.7,12.09,0.49,0,4
15713.39,0.882,-0.428,-0.194,-24.99,9.83,1.89,0,4
15713.39,0.898,-0.436,-0.182,-36.26,6.53,1.62,0,4
15713.406,0.905,-0.452,-0.175,-43.92,3.69,-0.4,0,4
15713.421,0.914,-0.459,-0.167,-46.17,2.23,-3.05,0,4
15713.421,0.924,-0.453,-0.153,-43.64,2.9,-5.83,0,4
15713.437,0.925,-0.45,-0.143,-37.45,5.55,-8.61,0,4
15713.453,0.917,-0.446,-0.135,-28.78,8.64,-11.2,0,4
15713.453,0.915,-0.441,-0.129,-18.52,10.77,-14.4,0,4
15713.468,0.914,-0.449,-0.128,-7.54,11.96,-18.28,0,4
15713.468,0.907,-0.454,-0.134,4.27,12.57,-22.1,0,4
15713.484,0.917,-0.446,-0.141,14.31,13.28,-25.15,0,4
15713.5,0.922,-0.436,-0.146,21.24,14.59,-27.99,0,4
15713.5,0.927,-0.418,-0.153,24.35,16.24,-30.12,0,4
15713.515,0.927,-0.397,-0.153,23.53,17.76,-30.79,0,4
15713.531,0.922,-0.384,-0.151,20.23,18.22,-31.37,0,4
15713.531,0.915,-0.38,-0.152,16.05,17.49,-31.71,0,4
15713.546,0.911,-0.368,-0.15,11.11,16.3,-31.22,0,4
15713.562,0.906,-0.358,-0.151,6.1,14.92,-30.49,0,4
15713.562,0.905,-0.349,-0.153,1.83,13.7,-29.6,0,4
15713.578,0.904,-0.332,-0.151,-1.62,12.94,-28.69,0,4
15713.593,0.916,-0.313,-0.146,-5.25,12.67,-27.5,0,4
15713.593,0.91,-0.303,-0.14,-8.39,13.86,-25.64,0,4
15713.609,0.903,-0.303,-0.134,-10.13,15.2,-23.07,0,4
15713.609,0.907,-0.308,-0.135,-11.26,15.2,-19.84,0,4
15713.625,0.914,-0.312,-0.135,-12.12,14.62,-16.11,0,4
15713.64,0.919,-0.314,-0.136,-14.07,13.79,-12.88,0,4
15713.64,0.928,-0.34,-0.146,-17.43,12.54,-9.98,0,4
15713.656,0.927,-0.362,-0.151,-22.13,11.23,-7.26,0,4
15713.671,0.931,-0.371,-0.155,-27.28,9.31,-6.81,0,4
15713.671,0.938,-0.378,-0.159,-32.07,7.81,-8.58,0,4
15713.687,0.935,-0.377,-0.155,-35.58,7.87,-10.93,0,4
15713.703,0.932,-0.374,-0.15,-36.87,8.97,-12.82,0,4
15713.703,0.926,-0.373,-0.144,-35.77,10.86,-14.28,0,4
15713.718,0.921,-0.375,-0.137,-32.87,13.06,-15.32,0,4
15713.718,0.919,-0.373,-0.134,-30.06,14.83,-16.11,0,4
15713.734,0.928,-0.367,-0.131,-28.75,16.21,-17.24,0,4
15713.75,0.931,-0.371,-0.132,-29.08,17.4,-18.59,0,4
15713.765,0.932,-0.375,-0.128,-30.73,17.7,-19.62,0,4
15713.765,0.932,-0.367,-0.115,-33.36,17.82,-20.81,0,4
15713.781,0.928,-0.363,-0.108,-35.74,17.67,-22.61,0,4
15713.781,0.928,-0.36,-0.098,-37.84,16.57,-24.48,0,4
15713.796,0.927,-0.361,-0.089,-39.16,15.38,-25.82,0,4
15713.812,0.937,-0.358,-0.079,-39.64,14.13,-26.58,0,4
15713.812,0.94,-0.361,-0.076,-39.58,13.4,-27.25,0,4
15713.828,0.934,-0.368,-0.082,-38.67,12.15,-28.05,0,4
15713.828,0.936,-0.367,-0.085,-38.15,10.41,-28.9,0,4
15713.843,0.933,-0.367,-0.091,-38.24,8.85,-30.09,0,4
15713.859,0.925,-0.359,-0.104,-38.97,7.69,-31.68,0,4
15713.859,0.92,-0.355,-0.11,-40.77,6.5,-33.3,0,4
15713.875,0.918,-0.349,-0.115,-43.34,5.25,-34.73,0,4
15713.89,0.911,-0.343,-0.128,-45.99,4.15,-35.98,0,4
15713.89,0.91,-0.337,-0.137,-48.34,3.3,-37.48,0,4
15713.906,0.916,-0.327,-0.151,-50.48,2.59,-38.91,0,4
15713.921,0.915,-0.313,-0.161,-52.1,2.93,-40.53,0,4
15713.921,0.907,-0.297,-0.172,-53.47,4.43,-41.96,0,4
15713.937,0.906,-0.286,-0.176,-54.6,6.26,-43.55,0,4
15713.937,0.904,-0.273,-0.18,-55.12,8.51,-44.68,0,4
15713.953,0.899,-0.265,-0.178,-54.96,11.26,-45.84,0,4
15713.968,0.902,-0.255,-0.166,-53.93,14.47,-47.67,0,4
15713.968,0.901,-0.243,-0.156,-52.25,18.25,-49.41,0,4
15713.984,0.894,-0.236,-0.148,-49.62,21.27,-51.06,0,4
15714.0,0.89,-0.221,-0.142,-47.0,23.07,-52.4,0,4
15714.0,0.892,-0.203,-0.143,-45.35,23.83,-53.8,0,4
15714.015,0.894,-0.188,-0.146,-45.38,23.96,-55.24,0,4
15714.031,0.884,-0.165,-0.151,-46.57,24.35,-56.49,0,4
15714.031,0.88,-0.145,-0.15,-48.95,25.15,-57.83,0,4
15714.046,0.879,-0.13,-0.146,-51.42,26.67,-59.39,0,4
15714.062,0.877,-0.108,-0.139,-53.38,32.69,-61.16,0,4
15714.062,0.874,-0.065,-0.133,-57.8,36.77,-59.39,0,4
15714.078,0.875,-0.004,-0.121,-67.02,40.16,-55.6,0,4
15714.078,0.822,0.135,-0.052,-80.11,40.28,-49.17,0,4
15714.093,0.764,0.173,0.007,-92.87,33.6,-37.48,0,4
15714.109,0.752,0.156,0.062,-101.57,20.08,-21.09,0,4
15714.109,0.774,0.117,0.086,-103.76,3.54,-5.89,0,4
15714.125,0.833,0.066,0.087,-99.15,-10.47,4.94,0,4
15714.14,0.881,0.002,0.061,-90.46,-18.56,9.43,0,4
15714.14,0.915,-0.062,0.007,-78.92,-21.06,7.26,0,4
15714.156,0.934,-0.113,-0.033,-65.19,-18.62,0.95,0,4
15714.171,0.961,-0.137,-0.076,-50.9,-13.64,-7.72,0,4
15714.171,0.971,-0.124,-0.125,-39.67,-6.62,-17.76,0,4
15714.187,0.96,-0.09,-0.156,-33.48,1.74,-27.34,0,4
15714.203,0.955,-0.057,-0.177,-33.14,9.61,-33.78,0,4
15714.203,0.954,-0.021,-0.191,-37.78,17.24,-36.9,0,4
15714.218,0.936,0.018,-0.181,-45.29,24.26,-38.03,0,4
15714.218,0.912,0.034,-0.152,-52.86,28.9,-37.17,0,4
15714.234,0.887,0.039,-0.121,-58.78,31.04,-34.67,0,4
15714.25,0.88,0.043,-0.096,-62.32,32.23,-31.37,0,4
15714.25,0.873,0.038,-0.077,-64.21,33.27,-29.3,0,4
15714.265,0.879,0.038,-0.074,-65.31,33.66,-29.02,0,4
15714.281,0.896,0.044,-0.079,-67.2,34.82,-29.39,0,4
15714.281,0.907,0.047,-0.073,-69.95,38.3,-30.43,0,4
15714.296,0.918,0.048,-0.067,-73.37,44.22,-31.95,0,4
15714.312,0.93,0.046,-0.058,-77.24,51.48,-33.81,0,4
15714.312,0.936,0.044,-0.036,-80.14,59.85,-35.37,0,4
15714.328,0.934,0.047,-0.004,-81.39,68.51,-37.05,0,4
15714.328,0.918,0.054,0.026,-80.87,75.41,-38.0,0,4
15714.343,0.904,0.074,0.069,-79.53,80.29,-37.84,0,4
15714.359,0.887,0.095,0.118,-77.85,83.62,-36.96,0,4
15714.375,0.887,0.099,0.152,-76.33,85.21,-34.88,0,4
15714.375,0.876,0.11,0.188,-74.86,85.6,-33.63,0,4
15714.39,0.872,0.109,0.211,-72.39,82.4,-33.97,0,4
15714.39,0.871,0.113,0.222,-70.35,76.91,-34.76,0,4
15714.406,0.874,0.129,0.24,-68.42,70.86,-37.05,0,4
15714.421,0.881,0.137,0.258,-65.98,66.35,-40.07,0,4
15714.421,0.875,0.149,0.264,-63.33,64.52,-42.94,0,4
15714.437,0.869,0.155,0.281,-60.15,63.57,-46.02,0,4
15714.453,0.878,0.155,0.288,-55.57,61.49,-48.59,0,4
15714.453,0.881,0.16,0.278,-49.71,59.21,-49.9,0,4
15714.468,0.872,0.176,0.281,-44.95,58.47,-50.69,0,4
15714.468,0.874,0.192,0.291,-41.99,58.35,-51.36,0,4
15714.484,0.869,0.209,0.298,-40.8,58.72,-51.97,0,4
15714.5,0.864,0.228,0.31,-40.28,58.41,-52.1,0,4
15714.515,0.846,0.243,0.316,-39.83,57.59,-51.73,0,4
15714.515,0.84,0.256,0.323,-40.8,56.4,-49.87,0,4
15714.531,0.83,0.275,0.336,-44.43,55.85,-46.97,0,4
15714.531,0.813,0.284,0.347,-49.81,55.73,-44.1,0,4
15714.546,0.798,0.279,0.368,-55.27,54.72,-41.9,0,4
15714.562,0.799,0.264,0.384,-58.78,53.04,-39.52,0,4
15714.562,0.81,0.25,0.385,-59.18,50.42,-37.66,0,4
15714.578,0.813,0.238,0.384,-57.5,48.25,-36.59,0,4
15714.578,0.811,0.23,0.39,-55.6,47.98,-35.98,0,4
15714.593,0.817,0.226,0.405,-54.29,49.65,-36.1,0,4
15714.609,0.817,0.225,0.431,-52.92,52.89,-36.96,0,4
15714.609,0.807,0.222,0.461,-50.48,56.46,-37.54,0,4
15714.625,0.799,0.218,0.488,-46.85,58.6,-37.9,0,4
15714.64,0.789,0.221,0.512,-43.28,57.8,-39.25,0,4
15714.656,0.768,0.24,0.528,-40.86,54.26,-41.69,0,4
15714.656,0.755,0.265,0.553,-40.16,49.56,-44.01,0,4
15714.671,0.723,0.279,0.577,-38.91,45.38,-45.63,0,4
15714.671,0.689,0.283,0.592,-34.18,40.96,-47.21,0,4
15714.687,0.666,0.295,0.6,-26.28,35.22,-48.77,0,4
15714.703,0.66,0.306,0.601,-15.9,27.59,-50.48,0,4
15714.703,0.666,0.322,0.586,-2.5,18.95,-51.24,0,4
15714.718,0.686,0.361,0.548,9.22,10.74,-48.98,0,4
15714.718,0.708,0.395,0.502,14.04,4.39,-43.98,0,4
15714.734,0.714,0.415,0.459,11.38,0.27,-38.15,0,4
15714.75,0.741,0.42,0.425,2.56,-0.82,-32.23,0,4
15714.765,0.756,0.402,0.398,-11.23,2.66,-26.7,0,4
15714.765,0.754,0.369,0.396,-26.28,7.75,-22.74,0,4
15714.781,0.755,0.324,0.407,-36.74,12.94,-21.0,0,4
15714.781,0.732,0.282,0.424,-39.67,17.27,-20.36,0,4
15714.796,0.724,0.268,0.433,-36.44,19.07,-20.91,0,4
15714.812,0.74,0.271,0.44,-31.37,20.57,-21.36,0,4
15714.812,0.751,0.279,0.453,-26.8,24.75,-21.09,0,4
15714.828,0.762,0.285,0.464,-24.6,30.3,-20.69,0,4
15714.843,0.747,0.281,0.478,-24.41,35.92,-21.94,0,4
15714.843,0.725,0.264,0.476,-25.12,39.92,-23.83,0,4
15714.859,0.733,0.266,0.455,-27.31,40.28,-25.79,0,4
15714.859,0.744,0.289,0.449,-31.16,42.12,-26.76,0,4
15714.875,0.751,0.303,0.47,-36.68,47.21,-27.28,0,4
15714.89,0.742,0.304,0.509,-42.63,54.99,-27.28,0,4
15714.906,0.708,0.293,0.553,-45.75,62.96,-27.62,0,4
15714.906,0.674,0.267,0.585,-44.53,68.24,-28.26,0,4
15714.921,0.658,0.271,0.588,-40.25,68.79,-29.33,0,4
15714.921,0.65,0.297,0.584,-35.8,66.87,-30.27,0,4
15714.937,0.642,0.326,0.594,-34.42,66.56,-30.67,0,4
15714.953,0.626,0.333,0.62,-35.83,68.45,-30.67,0,4
15714.953,0.595,0.32,0.65,-37.48,70.59,-29.69,0,4
15714.968,0.571,0.308,0.684,-37.75,71.75,-27.65,0,4
15714.968,0.559,0.282,0.703,-35.92,70.68,-27.56,0,4
15714.984,0.577,0.258,0.694,-34.06,67.6,-28.11,0,4
15715.0,0.581,0.246,0.678,-31.83,64.15,-30.03,0,4
15715.0,0.595,0.245,0.672,-30.24,62.29,-33.05,0,4
15715.015,0.602,0.248,0.681,-29.45,63.23,-36.44,0,4
15715.031,0.574,0.219,0.706,-27.01,67.05,-39.43,0,4
15715.031,0.521,0.192,0.739,-15.5,71.63,-48.77,0,4
15715.046,0.523,0.175,0.756,-8.94,69.15,-55.57,0,4
15715.046,0.549,0.191,0.728,-3.54,66.59,-62.23,0,4
15715.062,0.56,0.226,0.69,-0.64,67.11,-67.66,0,4
15715.078,0.492,0.291,0.694,-0.09,71.78,-71.84,0,4
15715.093,0.412,0.304,0.717,0.46,77.06,-75.01,0,4
15715.093,0.36,0.317,0.739,2.66,78.1,-76.48,0,4
15715.109,0.378,0.353,0.745,3.91,76.97,-75.62,0,4
15715.109,0.391,0.393,0.749,0.61,77.55,-72.82,0,4
15715.125,0.363,0.41,0.749,-6.07,77.7,-70.04,0,4
15715.14,0.325,0.409,0.761,-14.68,77.0,-67.32,0,4
15715.14,0.286,0.401,0.781,-23.19,75.62,-64.7,0,4
15715.156,0.259,0.378,0.806,-29.18,73.76,-62.32,0,4
15715.171,0.262,0.354,0.817,-32.2,71.54,-59.66,0,4
15715.171,0.304,0.355,0.827,-35.28,69.73,-57.16,0,4
15715.187,0.307,0.349,0.861,-38.97,71.08,-55.45,0,4
15715.203,0.272,0.319,0.886,-42.54,72.91,-55.06,0,4
15715.203,0.232,0.307,0.894,-44.83,71.35,-57.04,0,4
15715.218,0.196,0.302,0.882,-43.31,67.38,-60.67,0,4
15715.218,0.186,0.31,0.856,-38.54,63.3,-63.84,0,4
15715.234,0.206,0.343,0.843,-32.29,61.22,-64.79,0,4
15715.25,0.244,0.373,0.85,-26.98,62.75,-63.02,0,4
15715.25,0.274,0.397,0.885,-25.94,68.54,-58.11,0,4
15715.265,0.247,0.392,0.958,-27.13,76.24,-53.62,0,4
15715.281,0.196,0.345,1.029,-26.31,79.81,-52.37,0,4
15715.281,0.136,0.291,1.092,-20.29,77.15,-55.18,0,4
15715.296,0.106,0.255,1.115,-7.6,68.39,-64.58,0,4
15715.312,0.126,0.26,1.075,9.34,55.02,-78.8,0,4
15715.312,0.206,0.308,1.033,28.99,43.52,-93.69,0,4
15715.328,0.251,0.403,1.004,48.55,43.67,-103.43,0,4
15715.343,0.208,0.523,0.963,60.58,53.25,-105.01,0,4
15715.343,0.137,0.6,0.921,60.0,63.17,-101.23,0,4
15715.359,0.042,0.639,0.902,49.5,69.19,-94.97,0,4
15715.359,-0.025,0.658,0.896,34.3,69.0,-86.79,0,4
15715.375,-0.052,0.643,0.882,18.43,64.85,-77.43,0,4
15715.39,-0.058,0.614,0.85,3.97,59.18,-66.62,0,4
15715.39,-0.039,0.593,0.837,-8.42,54.14,-57.74,0,4
15715.406,-0.026,0.557,0.842,-16.88,53.8,-52.13,0,4
15715.421,-0.018,0.532,0.841,-22.28,56.83,-47.91,0,4
15715.421,-0.038,0.515,0.849,-24.81,61.37,-43.73,0,4
15715.437,-0.064,0.489,0.867,-24.96,65.1,-40.25,0,4
15715.453,-0.056,0.482,0.879,-24.84,67.6,-37.42,0,4
15715.453,-0.068,0.482,0.887,-25.42,70.5,-35.65,0,4
15715.468,-0.094,0.477,0.894,-27.92,71.84,-34.42,0,4
15715.468,-0.12,0.472,0.904,-31.34,71.69,-33.66,0,4
15715.484,-0.13,0.461,0.906,-35.07,70.83,-32.5,0,4
15715.5,-0.128,0.449,0.903,-38.36,69.12,-30.7,0,4
15715.5,-0.131,0.44,0.906,-40.89,68.51,-29.6,0,4
15715.515,-0.127,0.442,0.901,-44.31,68.54,-28.5,0,4
15715.531,-0.125,0.447,0.901,-50.14,69.34,-26.22,0,4
15715.546,-0.132,0.441,0.911,-57.16,71.08,-23.1,0,4
15715.546,-0.138,0.427,0.926,-64.67,73.06,-19.9,0,4
15715.562,-0.16,0.399,0.945,-70.74,75.2,-17.21,0,4
15715.562,-0.194,0.362,0.962,-73.34,76.45,-15.81,0,4
15715.578,-0.219,0.318,0.981,-71.26,76.11,-15.66,0,4
15715.578,-0.194,0.303,1.003,-66.41,75.14,-16.14,0,4
15715.593,-0.168,0.296,1.012,-61.4,75.53,-16.33,0,4
15715.609,-0.19,0.291,1.015,-58.08,77.21,-16.82,0,4
15715.609,-0.213,0.282,1.019,-57.22,77.18,-17.79,0,4
15715.625,-0.224,0.279,1.03,-58.78,75.81,-17.52,0,4
15715.64,-0.219,0.284,1.045,-62.84,74.89,-15.35,0,4
15715.64,-0.197,0.28,1.064,-68.88,74.74,-13.09,0,4
15715.656,-0.201,0.249,1.083,-74.53,74.62,-11.26,0,4
15715.671,-0.241,0.216,1.103,-77.3,73.67,-10.59,0,4
15715.671,-0.259,0.185,1.117,-76.48,70.71,-11.57,0,4
15715.687,-0.284,0.166,1.111,-72.08,68.12,-13.18,0,4
15715.687,-0.31,0.156,1.093,-64.79,66.41,-14.62,0,4
15715.703,-0.329,0.15,1.073,-56.67,65.52,-16.27,0,4
15715.718,-0.353,0.148,1.054,-48.4,65.52,-17.76,0,4
15715.734,-0.361,0.149,1.03,-41.54,65.28,-19.47,0,4
15715.734,-0.372,0.148,1.007,-36.44,64.91,-21.21,0,4
15715.75,-0.396,0.156,0.981,-33.17,65.1,-22.61,0,4
15715.75,-0.4,0.171,0.96,-35.0,65.77,-22.0,0,4
15715.765,-0.395,0.173,0.944,-41.02,66.53,-19.93,0,4
15715.781,-0.377,0.183,0.944,-49.56,67.17,-17.3,0,4
15715.781,-0.379,0.184,0.953,-57.47,68.03,-15.5,0,4
15715.796,-0.389,0.174,0.961,-63.11,69.19,-13.15,0,4
15715.812,-0.402,0.166,0.973,-66.62,70.77,-10.53,0,4
15715.812,-0.455,0.144,0.986,-67.14,72.6,-9.28,0,4
15715.828,-0.493,0.118,0.995,-64.21,73.27,-9.06,0,4
15715.828,-0.515,0.105,0.996,-58.84,73.09,-8.03,0,4
15715.843,-0.546,0.103,0.984,-51.36,72.91,-6.74,0,4
15715.859,-0.54,0.104,0.969,-45.23,72.6,-3.91,0,4
15715.859,-0.529,0.092,0.95,-42.51,73.31,-0.06,0,4
15715.875,-0.518,0.054,0.926,-41.38,74.4,3.02,0,4
15715.89,-0.513,0.038,0.911,-40.86,76.11,4.76,0,4
15715.89,-0.519,0.02,0.896,-39.67,77.91,5.43,0,4
15715.906,-0.523,0.002,0.881,-38.88,80.05,6.16,0,4
15715.921,-0.551,-0.011,0.869,-39.06,82.86,6.44,0,4
15715.921,-0.575,-0.023,0.864,-40.35,85.18,5.28,0,4
15715.937,-0.586,-0.027,0.869,-43.49,86.64,3.05,0,4
15715.953,-0.605,-0.034,0.875,-45.78,87.74,0.98,0,4
15715.953,-0.619,-0.042,0.886,-46.54,88.08,0.09,0,4
15715.968,-0.634,-0.055,0.902,-45.11,86.79,-0.52,0,4
15715.968,-0.647,-0.056,0.905,-42.02,83.1,-1.62,0,4
15715.984,-0.66,-0.051,0.895,-38.58,76.75,-3.72,0,4
15716.0,-0.654,-0.057,0.879,-35.46,69.34,-5.71,0,4
15716.0,-0.62,-0.041,0.858,-34.0,64.3,-6.53,0,4
15716.015,-0.615,-0.029,0.834,-37.72,65.68,-7.45,0,4
15716.031,-0.633,-0.04,0.821,-39.86,69.06,-8.03,0,4
15716.031,-0.655,-0.045,0.823,-39.4,71.75,-8.0,0,4
15716.046,-0.68,-0.061,0.831,-35.46,73.98,-6.93,0,4
15716.062,-0.697,-0.09,0.834,-29.85,75.69,-6.56,0,4
15716.062,-0.704,-0.097,0.84,-22.4,76.2,-8.06,0,4
15716.078,-0.73,-0.082,0.852,-14.04,74.95,-9.86,0,4
15716.078,-0.747,-0.059,0.845,-7.02,70.65,-10.35,0,4
15716.093,-0.747,-0.042,0.819,-3.69,64.94,-9.31,0,4
15716.109,-0.723,-0.015,0.8,-5.19,61.8,-7.45,0,4
15716.125,-0.71,0.0,0.797,-10.68,60.98,-6.04,0,4
15716.125,-0.71,-0.009,0.797,-17.82,60.82,-4.27,0,4
15716.14,-0.715,-0.024,0.802,-24.45,60.61,-2.11,0,4
15716.14,-0.729,-0.053,0.801,-27.95,59.21,-0.73,0,4
15716.156,-0.746,-0.074,0.796,-28.6,56.43,-0.52,0,4
15716.171,-0.77,-0.08,0.785,-27.04,53.68,-1.46,0,4
15716.171,-0.8,-0.079,0.765,-25.27,51.7,-2.32,0,4
15716.187,-0.821,-0.089,0.746,-24.69,50.75,-2.32,0,4
15716.203,-0.818,-0.109,0.723,-24.41,50.63,-1.71,0,4
15716.203,-0.81,-0.122,0.692,-23.53,51.58,-1.04,0,4
15716.218,-0.804,-0.126,0.665,-22.86,53.59,-0.61,0,4
15716.234,-0.798,-0.138,0.649,-22.68,56.46,-0.52,0,4
15716.234,-0.81,-0.14,0.642,-22.25,59.33,-0.67,0,4
15716.25,-0.832,-0.156,0.634,-20.84,60.85,0.06,0,4
15716.25,-0.835,-0.165,0.625,-19.41,61.53,1.74,0,4
15716.265,-0.825,-0.166,0.62,-18.71,62.96,3.08,0,4
15716.281,-0.829,-0.179,0.62,-17.94,64.3,3.6,0,4
15716.281,-0.841,-0.188,0.61,-16.69,63.94,3.69,0,4
15716.296,-0.839,-0.187,0.591,-14.56,62.56,3.63,0,4
15716.312,-0.851,-0.187,0.573,-11.96,61.04,3.45,0,4
15716.312,-0.86,-0.178,0.555,-10.38,58.93,3.02,0,4
15716.328,-0.876,-0.167,0.535,-9.8,56.92,2.01,0,4
15716.328,-0.88,-0.171,0.516,-9.98,55.42,1.95,0,4
15716.343,-0.873,-0.17,0.494,-11.66,55.18,2.87,0,4
15716.359,-0.871,-0.177,0.471,-13.79,55.79,3.23,0,4
15716.359,-0.867,-0.192,0.446,-15.93,57.07,3.05,0,4
15716.375,-0.857,-0.201,0.426,-17.37,58.99,2.35,0,4
15716.39,-0.85,-0.209,0.409,-17.73,62.14,1.4,0,4
15716.39,-0.857,-0.219,0.392,-16.82,65.77,-0.31,0,4
15716.406,-0.881,-0.221,0.37,-14.1,69.12,-3.2,0,4
15716.421,-0.891,-0.208,0.363,-11.6,72.88,-5.65,0,4
15716.421,-0.883,-0.193,0.375,-10.32,78.19,-6.81,0,4
15716.437,-0.893,-0.199,0.381,-8.64,84.05,-8.45,0,4
15716.437,-0.911,-0.21,0.381,-6.78,89.02,-10.41,0,4
15716.453,-0.918,-0.207,0.374,-4.7,93.75,-11.9,0,4
15716.468,-0.928,-0.195,0.364,-3.45,97.45,-13.43,0,4
15716.468,-0.947,-0.197,0.361,-3.14,98.7,-15.11,0,4
15716.484,-0.969,-0.198,0.353,-3.08,97.9,-16.21,0,4
15716.5,-0.987,-0.188,0.345,-4.73,95.28,-16.72,0,4
15716.5,-0.991,-0.177,0.338,-8.33,90.03,-16.88,0,4
15716.515,-0.998,-0.176,0.333,-11.63,83.01,-17.03,0,4
15716.531,-1.0,-0.176,0.328,-14.22,74.86,-17.12,0,4
15716.531,-0.996,-0.183,0.323,-15.35,65.98,-16.75,0,4
15716.546,-0.997,-0.189,0.306,-14.89,57.83,-16.14,0,4
15716.562,-0.992,-0.18,0.291,-14.31,50.94,-15.47,0,4
15716.562,-0.982,-0.177,0.277,-13.7,46.05,-14.89,0,4
15716.578,-0.989,-0.177,0.262,-13.34,42.94,-14.37,0,4
15716.593,-0.992,-0.183,0.247,-13.76,41.08,-12.63,0,4
15716.593,-0.987,-0.173,0.225,-15.63,40.53,-9.8,0,4
15716.609,-0.98,-0.153,0.203,-19.41,40.38,-7.26,0,4
15716.609,-0.974,-0.15,0.193,-24.45,40.16,-5.89,0,4
15716.625,-0.977,-0.146,0.186,-29.33,40.99,-5.34,0,4
15716.64,-0.976,-0.132,0.181,-34.27,43.79,-4.39,0,4
15716.64,-0.981,-0.127,0.185,-38.67,49.96,-1.83,0,4
15716.656,-0.992,-0.154,0.187,-40.35,58.23,3.69,0,4
15716.671,-0.991,-0.167,0.176,-40.71,66.9,11.26,0,4
15716.671,-0.988,-0.168,0.162,-39.8,76.75,18.89,0,4
15716.687,-0.998,-0.179,0.151,-39.12,87.98,26.34,0,4
15716.687,-1.009,-0.191,0.142,-41.47,97.66,32.75,0,4
15716.703,-1.012,-0.213,0.138,-45.72,104.37,36.13,0,4
15716.718,-0.998,-0.256,0.149,-47.3,108.62,35.16,0,4
15716.734,-0.987,-0.291,0.167,-44.77,110.39,28.6,0,4
15716.734,-0.994,-0.298,0.175,-37.78,109.26,19.68,0,4
15716.75,-1.018,-0.293,0.182,-28.66,104.59,11.38,0,4
15716.75,-1.033,-0.281,0.174,-17.55,95.8,4.15,0,4
15716.765,-1.038,-0.242,0.143,-6.99,84.14,-1.92,0,4
15716.781,-1.039,-0.188,0.111,-0.49,72.82,-6.1,0,4
15716.781,-1.035,-0.147,0.073,0.61,61.53,-8.03,0,4
15716.796,-1.026,-0.114,0.018,-2.78,50.45,-9.06,0,4
15716.812,-1.01,-0.073,-0.039,-11.41,42.51,-9.37,0,4
15716.812,-1.001,-0.056,-0.071,-22.0,38.73,-9.22,0,4
15716.828,-0.995,-0.07,-0.082,-31.68,37.02,-8.94,0,4
15716.843,-0.992,-0.083,-0.08,-39.12,37.42,-8.64,0,4
15716.843,-0.998,-0.111,-0.072,-42.79,38.33,-8.7,0,4
15716.859,-0.999,-0.151,-0.066,-42.33,38.18,-8.45,0,4
15716.859,-1.006,-0.182,-0.061,-37.84,37.42,-7.78,0,4
15716.875,-1.009,-0.207,-0.075,-29.97,36.41,-6.68,0,4
15716.89,-0.993,-0.203,-0.089,-22.25,36.65,-5.31,0,4
15716.906,-0.99,-0.195,-0.09,-13.89,38.73,-4.15,0,4
15716.906,-0.999,-0.201,-0.093,-7.42,39.83,-2.81,0,4
15716.921,-0.993,-0.218,-0.099,-5.25,38.15,-1.43,0,4
15716.921,-0.983,-0.246,-0.109,-5.13,35.89,-1.28,0,4
15716.937,-0.979,-0.273,-0.12,-5.55,34.58,-3.05,0,4
15716.953,-0.969,-0.275,-0.146,-7.48,33.27,-6.78,0,4
15716.953,-0.962,-0.253,-0.171,-12.42,33.3,-11.63,0,4
15716.968,-0.961,-0.254,-0.174,-19.04,34.97,-16.02,0,4
15716.968,-0.965,-0.27,-0.182,-25.67,36.13,-20.05,0,4
15716.984,-0.947,-0.269,-0.191,-30.43,37.23,-23.22,0,4
15717.0,-0.931,-0.261,-0.198,-32.62,39.28,-25.27,0,4
15717.015,-0.929,-0.264,-0.207,-31.22,47.33,-27.56,0,4
15717.015,-0.919,-0.254,-0.217,-30.49,53.29,-28.99,0,4
15717.031,-0.91,-0.218,-0.221,-32.32,59.14,-30.09,0,4
15717.031,-0.929,-0.212,-0.198,-35.25,62.56,-30.03,0,4
15717.046,-0.932,-0.246,-0.192,-37.08,62.78,-27.92,0,4
15717.062,-0.941,-0.278,-0.193,-36.65,61.31,-24.99,0,4
15717.062,-0.932,-0.319,-0.193,-31.04,59.57,-22.34,0,4
15717.078,-0.93,-0.332,-0.232,-22.46,57.92,-19.93,0,4
15717.078,-0.923,-0.296,-0.258,-15.38,58.17,-19.23,0,4
15717.093,-0.908,-0.274,-0.288,-8.33,59.91,-19.56,0,4
15717.109,-0.913,-0.271,-0.319,-3.2,62.32,-19.35,0,4
15717.109,-0.915,-0.268,-0.344,-0.15,65.13,-18.65,0,4
15717.125,-0.911,-0.259,-0.359,0.24,67.14,-17.21,0,4
15717.14,-0.91,-0.259,-0.35,-0.67,68.15,-15.69,0,4
15717.14,-0.908,-0.26,-0.348,-1.65,66.99,-14.59,0,4
15717.156,-0.907,-0.247,-0.342,-3.75,63.57,-14.44,0,4
15717.171,-0.898,-0.258,-0.334,-5.22,58.32,-14.74,0,4
15717.171,-0.894,-0.279,-0.36,-6.04,51.97,-14.65,0,4
15717.187,-0.883,-0.27,-0.38,-7.08,47.79,-14.74,0,4
15717.187,-0.854,-0.261,-0.365,-4.33,47.61,-15.23,0,4
15717.203,-0.85,-0.269,-0.37,1.1,48.22,-16.75,0,4
15717.218,-0.862,-0.261,-0.39,5.52,49.04,-21.06,0,4
15717.234,-0.845,-0.262,-0.391,9.61,50.9,-25.79,0,4
15717.234,-0.843,-0.275,-0.396,13.4,53.65,-28.99,0,4
15717.25,-0.842,-0.285,-0.417,16.69,56.15,-29.69,0,4
15717.25,-0.834,-0.272,-0.428,18.31,58.26,-28.5,0,4
15717.265,-0.822,-0.264,-0.421,18.62,58.87,-27.19,0,4
15717.281,-0.825,-0.272,-0.412,17.21,56.0,-26.83,0,4
15717.281,-0.838,-0.284,-0.403,15.69,50.23,-26.55,0,4
15717.296,-0.845,-0.293,-0.395,14.98,42.27,-25.57,0,4
15717.312,-0.842,-0.282,-0.376,15.02,32.32,-24.72,0,4
15717.312,-0.845,-0.279,-0.38,15.47,20.48,-23.93,0,4
15717.328,-0.855,-0.271,-0.41,14.56,8.82,-22.74,0,4
15717.328,-0.859,-0.239,-0.448,10.28,-0.52,-20.51,0,4
15717.343,-0.843,-0.228,-0.469,5.04,-6.53,-17.3,0,4
