timestamp,ax,ay,az,gx,gy,gz,orient_label,motion_label
15652.906,0.09,0.432,0.952,1.04,-3.78,-0.46,0,4
15652.921,0.094,0.426,0.945,0.7,-5.22,-0.18,0,4
15652.937,0.1,0.419,0.936,0.89,-5.71,-0.24,0,4
15652.937,0.1,0.415,0.934,1.31,-5.86,-0.52,0,4
15652.953,0.102,0.411,0.927,1.77,-6.32,0.46,0,4
15652.968,0.107,0.402,0.925,2.66,-7.51,1.86,0,4
15652.968,0.1,0.4,0.924,4.06,-9.64,2.9,0,4
15652.984,0.113,0.403,0.917,5.25,-11.99,4.33,0,4
15653.0,0.121,0.402,0.906,5.1,-13.52,4.52,0,4
15653.0,0.124,0.402,0.894,3.72,-13.61,3.63,0,4
15653.015,0.135,0.396,0.89,2.08,-12.57,3.14,0,4
15653.031,0.137,0.393,0.889,0.79,-10.8,3.05,0,4
15653.031,0.143,0.386,0.895,0.21,-8.61,3.08,0,4
15653.046,0.141,0.38,0.897,1.07,-6.9,3.02,0,4
15653.062,0.142,0.376,0.896,2.72,-5.83,3.05,0,4
15653.062,0.144,0.375,0.895,4.46,-5.22,3.05,0,4
15653.078,0.147,0.378,0.892,6.1,-4.52,2.81,0,4
15653.093,0.14,0.384,0.886,6.59,-4.18,2.29,0,4
15653.093,0.135,0.389,0.886,5.71,-3.91,2.08,0,4
15653.109,0.128,0.39,0.886,4.39,-3.6,2.29,0,4
15653.109,0.122,0.396,0.891,0.76,-3.54,2.38,0,4
15653.125,0.117,0.402,0.897,-0.58,-3.54,2.2,0,4
15653.14,0.121,0.397,0.899,-1.46,-2.9,1.53,0,4
15653.14,0.123,0.392,0.9,-1.46,-2.14,0.98,0,4
15653.156,0.121,0.401,0.906,-0.95,-1.68,0.95,0,4
15653.171,0.118,0.403,0.904,0.03,-1.62,1.53,0,4
15653.171,0.12,0.399,0.901,1.01,-1.74,2.38,0,4
15653.187,0.126,0.396,0.897,1.74,-2.01,2.93,0,4
15653.187,0.126,0.402,0.897,1.92,-1.89,3.05,0,4
15653.203,0.129,0.402,0.895,1.59,-2.01,2.93,0,4
15653.218,0.135,0.393,0.89,0.98,-2.01,2.72,0,4
15653.218,0.137,0.391,0.891,0.27,-1.74,2.23,0,4
15653.234,0.137,0.392,0.893,-0.09,-1.07,1.68,0,4
15653.25,0.136,0.388,0.892,0.09,-0.37,1.16,0,4
15653.265,0.13,0.397,0.899,1.16,0.98,0.92,0,4
15653.281,0.131,0.4,0.905,1.62,1.28,1.07,0,4
15653.281,0.134,0.403,0.907,1.5,1.8,0.85,0,4
15653.296,0.135,0.404,0.911,1.25,2.66,0.64,0,4
15653.296,0.13,0.409,0.921,1.19,3.14,0.55,0,4
15653.312,0.129,0.412,0.923,1.8,2.93,0.79,0,4
15653.328,0.128,0.411,0.918,2.41,2.47,0.79,0,4
15653.328,0.128,0.413,0.915,2.78,2.14,0.76,0,4
15653.343,0.125,0.422,0.916,2.87,1.89,0.89,0,4
15653.359,0.122,0.435,0.917,2.38,1.56,1.19,0,4
15653.359,0.124,0.439,0.923,2.08,0.79,1.92,0,4
15653.375,0.128,0.439,0.927,3.05,-0.21,2.84,0,4
15653.39,0.136,0.449,0.923,5.07,-1.56,4.09,0,4
15653.39,0.146,0.454,0.917,7.11,-2.56,5.25,0,4
15653.406,0.159,0.452,0.907,9.22,-2.56,6.62,0,4
15653.406,0.176,0.453,0.901,11.26,-1.46,8.15,0,4
15653.437,0.193,0.457,0.889,15.63,1.86,10.25,0,4
15653.437,0.194,0.467,0.88,15.96,2.9,10.8,0,4
15653.453,0.197,0.48,0.879,14.59,3.6,11.29,0,4
15653.468,0.193,0.489,0.876,11.35,3.63,11.96,0,4
15653.468,0.194,0.494,0.866,7.02,3.75,12.45,0,4
15653.484,0.19,0.483,0.86,2.14,4.97,13.15,0,4
15653.5,0.188,0.47,0.875,-1.46,7.32,14.07,0,4
15653.5,0.182,0.459,0.882,-2.75,10.16,15.47,0,4
15653.515,0.177,0.442,0.888,-1.5,12.73,16.91,0,4
15653.531,0.173,0.435,0.897,1.8,15.38,18.83,0,4
15653.531,0.17,0.431,0.908,6.01,17.4,21.06,0,4
15653.546,0.167,0.426,0.916,10.41,18.71,22.34,0,4
15653.562,0.166,0.424,0.93,14.4,19.29,22.8,0,4
15653.562,0.166,0.421,0.934,18.04,18.37,22.89,0,4
15653.578,0.163,0.435,0.916,19.96,16.11,22.06,0,4
15653.593,0.159,0.441,0.902,19.75,13.7,21.27,0,4
15653.593,0.158,0.437,0.887,17.73,11.23,20.57,0,4
15653.609,0.158,0.438,0.874,13.09,9.06,19.99,0,4
15653.609,0.167,0.426,0.864,7.97,7.39,18.83,0,4
15653.625,0.163,0.412,0.868,3.63,6.87,17.24,0,4
15653.64,0.158,0.402,0.873,1.83,7.45,15.9,0,4
15653.64,0.157,0.387,0.865,4.06,8.58,15.23,0,4
15653.656,0.155,0.381,0.86,8.64,10.71,14.68,0,4
15653.656,0.152,0.377,0.852,14.98,13.12,14.1,0,4
15653.671,0.154,0.369,0.828,21.97,16.05,13.82,0,4
15653.687,0.158,0.376,0.805,27.59,19.5,13.64,0,4
15653.703,0.155,0.394,0.794,30.4,23.8,12.24,0,4
15653.703,0.136,0.415,0.79,30.24,28.75,9.13,0,4
15653.718,0.122,0.459,0.775,25.36,34.18,4.91,0,4
15653.718,0.1,0.49,0.767,17.61,40.89,1.65,0,4
15653.734,0.073,0.503,0.765,8.42,47.55,-0.58,0,4
15653.75,0.049,0.518,0.778,-2.53,52.25,-0.76,0,4
15653.75,0.021,0.511,0.805,-12.6,53.96,0.73,0,4
15653.765,0.007,0.492,0.843,-19.75,52.31,2.53,0,4
15653.765,0.002,0.482,0.87,-22.95,48.1,3.72,0,4
15653.781,0.003,0.467,0.886,-22.68,41.78,4.94,0,4
15653.796,0.007,0.449,0.886,-19.65,35.16,5.92,0,4
15653.796,0.003,0.446,0.895,-14.47,29.88,7.05,0,4
15653.812,0.013,0.448,0.892,-9.67,25.09,8.42,0,4
15653.828,0.014,0.461,0.894,-9.16,21.03,9.43,0,4
15653.828,-0.008,0.466,0.901,-11.2,18.25,9.4,0,4
15653.843,-0.018,0.46,0.912,-14.5,16.85,9.46,0,4
15653.859,-0.012,0.442,0.92,-16.08,16.42,10.38,0,4
15653.859,-0.011,0.41,0.91,-14.07,16.91,10.86,0,4
15653.875,-0.004,0.418,0.925,-14.5,16.36,9.64,0,4
15653.89,0.009,0.412,0.92,-14.16,14.65,8.76,0,4
15653.89,0.001,0.372,0.885,-13.09,13.4,6.84,0,4
15653.906,0.02,0.367,0.862,-15.63,13.18,4.55,0,4
15653.906,0.029,0.364,0.827,-21.03,14.5,2.75,0,4
15653.921,0.043,0.329,0.818,-25.64,18.07,1.71,0,4
15653.937,0.074,0.282,0.797,-27.83,23.32,-2.29,0,4
15653.937,0.09,0.252,0.748,-29.3,32.78,-11.72,0,4
15653.953,0.062,0.245,0.683,-32.23,47.76,-24.6,0,4
15653.968,-0.052,0.294,0.681,-38.33,67.02,-40.71,0,4
15653.968,-0.377,0.535,1.161,-38.7,80.81,-47.18,0,4
15653.984,-0.687,0.727,1.694,-16.48,55.64,-22.43,0,4
15654.0,-0.392,0.444,1.362,-8.18,-6.74,3.02,0,4
15654.0,-0.281,0.514,0.97,-39.52,-39.46,-4.12,0,4
15654.015,-0.245,0.496,0.939,-52.67,-31.8,-1.01,0,4
15654.031,-0.173,0.265,0.917,-41.99,-16.85,5.07,0,4
15654.031,-0.162,0.182,0.86,-26.06,-2.81,3.2,0,4
15654.046,-0.206,0.221,0.857,-8.36,8.58,0.55,0,4
15654.046,-0.256,0.342,0.932,-0.06,8.82,3.51,0,4
15654.062,-0.118,0.247,0.923,-4.97,-4.36,5.13,0,4
15654.078,-0.264,0.276,0.889,-23.47,-19.71,-13.18,0,4
15654.078,-0.229,0.27,0.96,-34.58,-32.87,-13.61,0,4
15654.093,-0.143,0.226,0.936,-46.85,-55.36,-19.59,0,4
15654.109,-0.099,0.177,0.912,-49.47,-58.29,-26.18,0,4
15654.109,-0.053,0.163,0.92,-42.94,-58.32,-31.43,0,4
15654.125,0.037,0.145,0.942,-30.52,-56.92,-37.14,0,4
15654.14,0.079,0.173,0.937,-17.76,-55.7,-43.64,0,4
15654.14,0.114,0.22,0.907,-10.19,-54.48,-49.1,0,4
15654.156,0.139,0.28,0.892,-7.48,-51.27,-52.37,0,4
15654.156,0.156,0.327,0.883,-7.84,-46.39,-53.04,0,4
15654.171,0.174,0.349,0.878,-11.02,-41.14,-52.61,0,4
15654.187,0.183,0.345,0.89,-15.66,-35.52,-51.64,0,4
15654.187,0.177,0.357,0.888,-20.08,-29.51,-49.99,0,4
15654.203,0.179,0.376,0.875,-22.16,-22.55,-45.35,0,4
15654.218,0.188,0.372,0.86,-21.0,-14.04,-38.54,0,4
15654.218,0.188,0.372,0.842,-16.72,-4.43,-30.18,0,4
15654.234,0.201,0.378,0.836,-9.19,6.13,-21.24,0,4
15654.25,0.202,0.366,0.832,1.92,17.24,-12.33,0,4
15654.25,0.167,0.374,0.856,13.61,26.4,-1.89,0,4
15654.265,0.137,0.415,0.864,21.94,30.76,9.8,0,4
15654.281,0.104,0.383,0.925,23.93,31.34,16.6,0,4
15654.281,0.066,0.36,0.972,22.61,29.66,16.66,0,4
15654.296,0.051,0.31,0.997,24.63,28.35,10.96,0,4
15654.296,-0.037,0.433,1.071,13.28,19.38,-0.09,0,4
15654.312,-0.003,0.482,1.095,-9.09,0.89,-3.91,0,4
15654.328,-0.021,0.368,1.074,-14.37,-12.51,-5.22,0,4
15654.328,-0.0,0.347,1.062,-14.28,-23.56,-2.32,0,4
15654.343,0.042,0.321,1.021,-5.34,-30.03,2.53,0,4
15654.359,0.039,0.29,0.995,6.68,-30.76,6.1,0,4
15654.359,0.037,0.28,0.998,16.94,-28.2,7.97,0,4
15654.375,0.027,0.303,1.015,25.57,-24.6,7.57,0,4
15654.39,0.015,0.331,1.019,29.82,-23.44,6.38,0,4
15654.39,0.02,0.347,1.024,28.9,-26.98,5.52,0,4
15654.406,0.027,0.357,1.022,25.27,-33.85,5.65,0,4
15654.406,0.016,0.362,1.038,20.17,-42.94,5.22,0,4
15654.421,0.063,0.379,1.003,12.3,-53.93,6.38,0,4
15654.437,0.107,0.251,0.917,20.17,-55.82,7.72,0,4
15654.437,0.078,0.326,0.923,22.89,-54.05,8.64,0,4
15654.453,0.133,0.389,0.916,22.13,-54.38,14.5,0,4
15654.468,0.17,0.315,0.884,23.71,-51.73,16.14,0,4
15654.468,0.172,0.278,0.87,25.45,-45.38,15.08,0,4
15654.484,0.181,0.296,0.863,27.68,-37.39,12.97,0,4
15654.5,0.183,0.305,0.866,29.45,-28.66,10.22,0,4
15654.5,0.169,0.315,0.877,28.5,-21.39,7.63,0,4
15654.515,0.157,0.326,0.885,26.34,-17.4,5.43,0,4
15654.531,0.143,0.324,0.89,25.27,-15.63,3.3,0,4
15654.531,0.135,0.329,0.901,24.35,-16.63,1.74,0,4
15654.546,0.141,0.349,0.916,22.77,-18.98,0.61,0,4
15654.546,0.146,0.354,0.917,20.48,-22.28,-0.58,0,4
15654.562,0.155,0.356,0.902,18.01,-24.08,-1.89,0,4
15654.578,0.166,0.355,0.893,16.02,-22.16,-3.48,0,4
15654.578,0.169,0.364,0.9,14.8,-17.79,-5.62,0,4
15654.593,0.167,0.373,0.906,15.14,-13.18,-6.71,0,4
15654.609,0.161,0.378,0.911,17.33,-8.82,-6.65,0,4
15654.609,0.156,0.372,0.914,21.91,-5.13,-5.77,0,4
15654.625,0.155,0.375,0.916,28.63,-2.29,-5.01,0,4
15654.64,0.153,0.385,0.906,35.71,0.18,-4.36,0,4
15654.64,0.147,0.394,0.899,41.96,2.2,-3.63,0,4
15654.656,0.142,0.401,0.899,46.51,2.72,-2.9,0,4
15654.671,0.135,0.42,0.893,48.92,1.86,-1.74,0,4
15654.671,0.125,0.448,0.88,47.43,-0.15,-0.67,0,4
15654.687,0.125,0.465,0.871,40.86,-2.96,-1.25,0,4
15654.687,0.127,0.483,0.861,31.25,-6.01,-2.84,0,4
15654.703,0.134,0.488,0.856,21.91,-8.7,-4.88,0,4
15654.718,0.143,0.48,0.848,15.14,-10.5,-6.16,0,4
15654.718,0.153,0.471,0.84,11.57,-10.96,-6.71,0,4
15654.734,0.158,0.466,0.84,11.23,-10.41,-6.93,0,4
15654.75,0.163,0.458,0.842,13.18,-9.52,-6.26,0,4
15654.75,0.164,0.459,0.84,15.69,-8.0,-4.94,0,4
15654.765,0.16,0.472,0.842,15.72,-6.62,-3.72,0,4
15654.765,0.163,0.488,0.847,12.36,-6.32,-3.3,0,4
15654.781,0.16,0.496,0.847,7.05,-6.47,-4.03,0,4
15654.796,0.155,0.507,0.855,1.46,-7.02,-5.25,0,4
15654.796,0.154,0.506,0.859,-3.08,-7.81,-5.89,0,4
15654.812,0.154,0.497,0.863,-5.16,-8.21,-5.52,0,4
15654.828,0.151,0.493,0.863,-4.88,-8.21,-4.39,0,4
15654.843,0.15,0.484,0.861,-3.6,-7.72,-2.62,0,4
15654.843,0.156,0.471,0.862,-2.32,-7.26,-0.61,0,4
15654.859,0.16,0.46,0.865,-1.46,-6.9,0.76,0,4
15654.859,0.161,0.458,0.871,-0.76,-6.62,1.62,0,4
15654.875,0.16,0.455,0.871,-0.18,-6.71,1.89,0,4
15654.875,0.161,0.452,0.867,-0.34,-6.87,1.74,0,4
15654.89,0.162,0.454,0.867,-0.7,-6.78,1.13,0,4
15654.906,0.159,0.458,0.868,-1.25,-7.05,0.64,0,4
15654.906,0.162,0.462,0.867,-1.8,-7.9,0.43,0,4
15654.921,0.167,0.46,0.861,-2.26,-8.24,0.64,0,4
15654.937,0.175,0.459,0.862,-2.93,-8.03,0.55,0,4
15654.953,0.176,0.459,0.868,-3.05,-7.32,0.27,0,4
15654.953,0.175,0.453,0.87,-2.23,-6.65,0.34,0,4
15654.968,0.179,0.447,0.868,-0.67,-5.95,0.64,0,4
15654.968,0.181,0.448,0.864,1.07,-5.22,0.7,0,4
15654.984,0.185,0.451,0.857,2.01,-4.67,0.21,0,4
15655.0,0.188,0.455,0.85,2.04,-3.88,-0.73,0,4
15655.0,0.182,0.454,0.848,1.68,-2.81,-1.8,0,4
15655.015,0.18,0.454,0.851,1.25,-2.38,-2.29,0,4
15655.031,0.177,0.462,0.859,0.61,-2.69,-2.17,0,4
15655.031,0.175,0.471,0.867,-0.46,-3.57,-2.08,0,4
15655.046,0.177,0.471,0.864,-1.04,-4.3,-2.23,0,4
15655.062,0.179,0.472,0.872,-1.34,-4.27,-2.11,0,4
15655.062,0.183,0.463,0.878,-0.58,-3.91,-2.08,0,4
15655.078,0.179,0.457,0.867,1.56,-3.05,-2.17,0,4
15655.078,0.173,0.456,0.857,1.34,-2.29,-1.98,0,4
15655.093,0.183,0.459,0.844,0.46,-0.67,-2.38,0,4
15655.109,0.183,0.46,0.833,-0.52,1.07,-2.53,0,4
15655.109,0.176,0.47,0.843,-1.77,2.01,-2.41,0,4
15655.125,0.17,0.478,0.859,-2.87,2.14,-2.01,0,4
15655.14,0.168,0.478,0.871,-3.39,1.19,-0.95,0,4
15655.156,0.17,0.466,0.866,-3.2,0.7,-0.49,0,4
15655.156,0.175,0.459,0.864,-3.08,0.52,-0.09,0,4
15655.171,0.178,0.453,0.862,-2.62,0.61,-0.12,0,4
15655.187,0.177,0.456,0.857,-2.59,1.01,-0.37,0,4
15655.187,0.18,0.456,0.85,-3.05,1.25,-0.58,0,4
15655.203,0.183,0.459,0.847,-4.27,1.83,-0.92,0,4
15655.218,0.181,0.463,0.846,-5.68,3.02,-1.5,0,4
15655.218,0.177,0.467,0.851,-7.2,4.09,-1.74,0,4
15655.234,0.174,0.465,0.855,-8.48,4.73,-1.5,0,4
15655.25,0.166,0.462,0.86,-8.94,5.34,-0.92,0,4
15655.25,0.162,0.459,0.868,-9.8,5.31,-0.49,0,4
15655.265,0.155,0.457,0.876,-10.86,4.64,-0.55,0,4
15655.281,0.147,0.454,0.877,-11.93,3.54,-0.92,0,4
15655.281,0.149,0.451,0.882,-13.09,1.53,-0.98,0,4
15655.296,0.151,0.457,0.88,-14.62,-0.55,-1.34,0,4
15655.312,0.162,0.451,0.871,-17.0,-3.57,-1.25,0,4
15655.328,0.171,0.447,0.871,-17.18,-3.78,-0.67,0,4
15655.343,0.175,0.433,0.873,-16.39,-2.87,-0.31,0,4
15655.343,0.178,0.416,0.88,-14.74,-1.56,-0.21,0,4
15655.359,0.173,0.4,0.898,-12.24,-0.46,-0.31,0,4
15655.359,0.168,0.39,0.911,-9.37,-0.37,-0.79,0,4
15655.375,0.164,0.386,0.917,-6.1,-1.19,-1.56,0,4
15655.39,0.16,0.386,0.927,-2.47,-2.35,-2.2,0,4
15655.39,0.161,0.388,0.925,0.98,-4.15,-3.11,0,4
15655.406,0.162,0.394,0.912,3.75,-6.35,-4.09,0,4
15655.421,0.167,0.412,0.898,4.85,-7.84,-5.28,0,4
15655.421,0.174,0.415,0.883,5.25,-8.48,-6.47,0,4
15655.437,0.174,0.42,0.877,5.68,-8.21,-6.96,0,4
15655.437,0.173,0.425,0.868,6.32,-7.57,-7.2,0,4
15655.453,0.166,0.43,0.862,6.59,-6.26,-7.2,0,4
15655.468,0.166,0.441,0.868,6.74,-4.79,-6.41,0,4
15655.468,0.162,0.46,0.873,5.89,-4.03,-6.65,0,4
15655.484,0.156,0.469,0.879,3.51,-4.94,-7.05,0,4
15655.5,0.155,0.476,0.87,2.66,-6.5,-5.8,0,4
15655.5,0.164,0.472,0.857,1.13,-7.32,-4.49,0,4
15655.515,0.169,0.461,0.861,-2.17,-7.6,-4.33,0,4
15655.531,0.175,0.435,0.869,-2.69,-7.35,-3.75,0,4
15655.531,0.182,0.425,0.869,0.09,-5.77,-2.08,0,4
15655.546,0.191,0.41,0.875,2.56,-3.57,-0.76,0,4
15655.546,0.195,0.382,0.884,4.7,-1.62,-1.59,0,4
15655.562,0.186,0.379,0.893,7.9,0.0,-2.75,0,4
15655.578,0.175,0.394,0.909,10.1,-0.03,-4.49,0,4
15655.578,0.172,0.399,0.924,12.05,-1.62,-5.74,0,4
15655.593,0.156,0.43,0.915,13.73,-3.6,-6.01,0,4
15655.609,0.16,0.451,0.899,15.02,-5.16,-4.94,0,4
15655.609,0.155,0.434,0.918,14.83,-6.29,-4.55,0,4
15655.625,0.154,0.456,0.879,13.92,-7.9,-3.6,0,4
15655.64,0.205,0.462,0.785,14.62,-7.02,-1.95,0,4
15655.64,0.241,0.388,0.761,17.82,2.96,-0.98,0,4
15655.656,0.117,0.458,0.851,16.48,12.18,-1.28,0,4
15655.671,0.179,0.514,0.897,13.89,11.69,0.4,0,4
15655.671,0.14,0.494,0.882,18.68,9.34,-1.25,0,4
15655.687,0.103,0.522,0.878,17.61,5.16,-1.46,0,4
15655.703,0.133,0.545,0.864,14.8,-1.13,-1.31,0,4
15655.703,0.151,0.531,0.849,12.54,-6.53,-1.46,0,4
15655.718,0.162,0.537,0.859,9.64,-10.8,0.27,0,4
15655.718,0.166,0.529,0.854,8.45,-14.74,3.2,0,4
15655.734,0.178,0.496,0.853,8.7,-16.97,5.95,0,4
15655.75,0.199,0.465,0.869,7.9,-18.31,6.96,0,4
15655.75,0.205,0.43,0.875,8.79,-18.1,5.77,0,4
15655.765,0.188,0.432,0.868,10.8,-17.21,4.15,0,4
15655.781,0.183,0.434,0.854,11.35,-18.07,2.29,0,4
15655.781,0.191,0.446,0.849,10.38,-19.38,0.79,0,4
15655.796,0.165,0.47,0.868,8.58,-20.57,0.58,0,4
15655.796,0.172,0.516,0.865,4.27,-23.87,1.74,0,4
15655.812,0.231,0.429,0.792,9.98,-22.13,1.59,0,4
15655.843,0.188,0.514,0.813,14.44,-11.51,2.75,0,4
15655.843,0.171,0.534,0.819,13.34,-9.77,4.06,0,4
15655.859,0.168,0.543,0.828,8.36,-10.68,6.38,0,4
15655.859,0.206,0.55,0.832,1.43,-13.34,6.81,0,4
15655.875,0.21,0.532,0.839,-3.91,-15.96,4.76,0,4
15655.89,0.211,0.516,0.83,-4.76,-17.46,5.62,0,4
15655.89,0.233,0.492,0.818,-5.19,-17.61,5.98,0,4
15655.906,0.239,0.463,0.817,-5.95,-15.96,5.34,0,4
15655.906,0.253,0.447,0.82,-5.01,-13.86,4.21,0,4
15655.921,0.26,0.439,0.822,-3.66,-11.47,2.29,0,4
15655.937,0.259,0.441,0.819,-2.62,-8.88,-0.03,0,4
15655.937,0.261,0.453,0.819,-2.14,-6.87,-2.38,0,4
15655.953,0.254,0.469,0.821,-1.65,-4.94,-4.33,0,4
15655.968,0.235,0.483,0.831,-2.01,-3.45,-5.65,0,4
15655.968,0.229,0.489,0.84,-1.92,-2.53,-6.38,0,4
15655.984,0.212,0.499,0.849,-1.4,-2.56,-6.32,0,4
15656.015,0.194,0.516,0.853,1.56,-3.2,-2.26,0,4
15656.015,0.202,0.515,0.847,2.75,-3.88,0.37,0,4
15656.031,0.211,0.494,0.837,2.5,-4.27,1.89,0,4
15656.031,0.226,0.467,0.831,1.89,-4.36,2.5,0,4
15656.046,0.24,0.456,0.824,2.01,-4.15,2.26,0,4
15656.046,0.252,0.454,0.819,3.51,-1.13,-0.79,0,4
15656.062,0.258,0.455,0.818,5.04,1.46,-2.56,0,4
15656.078,0.249,0.464,0.82,6.13,3.3,-3.94,0,4
15656.078,0.233,0.479,0.823,6.32,4.3,-4.39,0,4
15656.093,0.209,0.5,0.828,6.62,5.01,-3.3,0,4
15656.109,0.206,0.512,0.829,7.08,5.89,-1.13,0,4
15656.125,0.204,0.507,0.84,7.66,6.56,1.19,0,4
15656.125,0.211,0.486,0.847,8.88,6.16,3.23,0,4
15656.14,0.229,0.477,0.858,11.08,6.16,3.6,0,4
15656.14,0.218,0.453,0.859,14.07,6.9,2.44,0,4
15656.156,0.224,0.443,0.862,17.15,6.44,0.61,0,4
15656.171,0.216,0.452,0.851,27.59,6.78,-1.95,0,4
15656.187,0.222,0.476,0.841,33.36,8.3,-0.92,0,4
15656.203,0.223,0.489,0.827,40.25,11.9,1.8,0,4
15656.203,0.235,0.498,0.813,48.16,17.18,5.58,0,4
15656.218,0.237,0.506,0.809,54.35,22.06,7.66,0,4
15656.218,0.24,0.502,0.817,58.2,24.75,6.29,0,4
15656.234,0.226,0.5,0.834,60.64,23.93,1.31,0,4
15656.25,0.203,0.506,0.854,59.39,19.14,-5.28,0,4
15656.25,0.175,0.527,0.853,55.6,10.96,-11.75,0,4
15656.265,0.163,0.553,0.829,53.35,1.92,-16.97,0,4
15656.281,0.149,0.584,0.797,50.97,-5.34,-19.62,0,4
15656.281,0.144,0.638,0.765,45.56,-11.17,-20.63,0,4
15656.296,0.141,0.672,0.741,37.81,-15.29,-20.66,0,4
15656.312,0.134,0.677,0.73,29.54,-17.67,-18.46,0,4
15656.312,0.141,0.688,0.714,22.43,-19.14,-14.71,0,4
15656.328,0.155,0.693,0.713,15.87,-19.53,-10.07,0,4
15656.343,0.175,0.692,0.731,6.71,-20.08,-0.49,0,4
15656.359,0.186,0.684,0.746,2.53,-21.88,2.96,0,4
15656.359,0.183,0.663,0.761,-1.07,-24.87,5.25,0,4
15656.375,0.196,0.632,0.759,-3.94,-28.63,6.84,0,4
15656.39,0.217,0.599,0.746,-5.04,-31.22,7.17,0,4
15656.39,0.24,0.58,0.747,-5.28,-31.04,5.8,0,4
15656.406,0.245,0.559,0.757,-3.78,-28.96,5.19,0,4
15656.406,0.263,0.573,0.766,1.25,-26.4,4.82,0,4
15656.421,0.261,0.579,0.782,8.27,-22.31,4.33,0,4
15656.437,0.251,0.569,0.8,16.05,-18.8,4.27,0,4
15656.437,0.24,0.548,0.813,24.72,-16.05,5.1,0,4
15656.453,0.249,0.531,0.837,34.42,-13.21,6.01,0,4
15656.468,0.262,0.526,0.848,45.5,-12.02,5.16,0,4
15656.468,0.273,0.546,0.839,55.76,-11.99,1.34,0,4
15656.484,0.251,0.581,0.831,64.24,-11.54,-4.09,0,4
15656.5,0.199,0.618,0.832,70.68,-10.77,-8.76,0,4
15656.5,0.149,0.685,0.849,76.48,-9.83,-13.25,0,4
15656.515,0.109,0.767,0.874,82.8,-8.18,-15.72,0,4
15656.515,0.073,0.885,0.905,87.8,-3.3,-17.73,0,4
15656.531,0.075,1.022,0.96,86.92,1.83,-12.85,0,4
15656.546,0.05,1.101,1.014,78.31,3.36,0.21,0,4
15656.546,0.073,1.193,1.074,67.29,1.1,10.04,0,4
15656.562,0.076,1.257,1.116,53.22,-5.62,18.01,0,4
15656.578,0.074,1.232,1.145,34.3,-18.98,22.74,0,4
15656.578,0.11,1.219,1.161,12.39,-34.94,28.2,0,4
15656.593,0.149,1.217,1.158,-7.11,-48.83,33.97,0,4
15656.609,0.249,1.175,1.164,-23.19,-57.71,43.12,0,4
15656.609,0.287,1.096,1.163,-33.05,-61.22,51.0,0,4
15656.625,0.312,1.04,1.174,-35.68,-61.49,55.85,0,4
15656.64,0.341,1.058,1.2,-30.37,-59.08,55.91,0,4
15656.64,0.29,1.048,1.22,-18.68,-56.12,55.54,0,4
15656.656,0.296,1.048,1.237,-3.57,-58.05,60.67,0,4
15656.671,0.345,1.089,1.211,15.66,-63.97,65.4,0,4
15656.671,0.355,1.078,1.157,33.85,-70.53,69.31,0,4
15656.687,0.395,1.1,1.092,47.7,-77.91,71.63,0,4
15656.703,0.429,1.116,1.019,57.37,-83.13,73.98,0,4
15656.703,0.445,1.109,0.94,61.4,-87.07,79.04,0,4
15656.718,0.479,1.097,0.863,60.09,-90.18,85.82,0,4
15656.718,0.535,1.08,0.796,54.08,-92.32,92.84,0,4
15656.734,0.572,1.06,0.735,45.32,-93.57,97.57,0,4
15656.75,0.572,1.04,0.678,35.16,-95.13,100.59,0,4
15656.75,0.578,1.025,0.623,24.93,-98.27,102.6,0,4
15656.765,0.572,0.997,0.559,16.57,-102.85,103.89,0,4
15656.781,0.57,0.956,0.486,10.83,-107.64,104.68,0,4
15656.781,0.586,0.89,0.417,8.73,-110.69,105.29,0,4
15656.796,0.614,0.821,0.349,10.77,-111.09,104.83,0,4
15656.796,0.64,0.757,0.282,15.53,-107.55,103.34,0,4
15656.812,0.671,0.682,0.231,19.75,-100.38,101.05,0,4
15656.828,0.712,0.612,0.188,21.09,-91.25,99.0,0,4
15656.828,0.741,0.56,0.14,20.57,-82.0,96.74,0,4
15656.859,0.803,0.516,0.057,12.63,-69.58,90.91,0,4
15656.875,0.828,0.52,0.022,-0.79,-66.23,88.69,0,4
15656.875,0.83,0.539,-0.002,-23.22,-62.69,87.71,0,4
15656.89,0.809,0.56,0.002,-55.24,-58.6,87.71,0,4
15656.89,0.794,0.551,0.04,-93.69,-56.12,89.54,0,4
15656.906,0.796,0.504,0.099,-131.69,-57.74,92.32,0,4
15656.921,0.791,0.469,0.13,-162.85,-63.97,96.19,0,4
15656.921,0.768,0.436,0.137,-184.55,-71.14,102.85,0,4
15656.937,0.752,0.391,0.156,-198.98,-78.31,111.15,0,4
15656.953,0.766,0.335,0.191,-207.46,-86.15,117.71,0,4
15656.953,0.763,0.264,0.201,-208.2,-93.3,119.39,0,4
15656.968,0.747,0.223,0.208,-203.01,-98.27,116.49,0,4
15656.968,0.734,0.217,0.223,-195.41,-98.03,109.96,0,4
15656.984,0.708,0.204,0.243,-187.23,-92.87,100.34,0,4
15657.0,0.704,0.208,0.245,-179.82,-85.15,89.48,0,4
15657.0,0.679,0.218,0.252,-173.41,-71.41,79.84,0,4
15657.031,0.636,0.192,0.283,-166.3,-41.81,64.52,0,4
15657.031,0.583,0.169,0.332,-159.64,-27.99,56.73,0,4
15657.046,0.512,0.152,0.409,-127.02,-19.75,39.89,0,4
15657.062,0.452,0.126,0.45,-99.83,-27.89,32.44,0,4
15657.062,0.416,0.141,0.444,-72.54,-38.51,26.46,0,4
15657.078,0.403,0.149,0.355,-49.93,-51.18,20.51,0,4
15657.078,0.41,0.144,0.257,-32.2,-63.02,15.29,0,4
15657.093,0.451,0.123,0.181,-19.44,-70.86,12.33,0,4
15657.109,0.506,0.117,0.118,-11.78,-73.37,11.23,0,4
15657.125,0.534,0.092,0.024,-8.03,-70.89,10.96,0,4
15657.125,0.568,0.099,-0.019,-10.59,-62.01,12.67,0,4
15657.14,0.58,0.107,0.007,-18.68,-49.5,14.59,0,4
15657.14,0.613,0.073,0.065,-33.23,-43.67,15.44,0,4
15657.156,0.64,0.017,0.097,-48.62,-43.7,15.5,0,4
15657.171,0.649,-0.014,0.107,-59.66,-47.09,16.08,0,4
15657.171,0.662,-0.027,0.105,-66.87,-55.36,15.17,0,4
15657.187,0.683,-0.038,0.091,-72.05,-65.1,11.81,0,4
15657.187,0.733,-0.041,0.073,-74.59,-71.14,8.3,0,4
15657.203,0.787,-0.031,0.065,-76.36,-70.04,9.16,0,4
15657.218,0.797,-0.003,0.07,-78.8,-63.6,12.73,0,4
15657.218,0.829,-0.017,0.083,-80.42,-57.99,14.47,0,4
15657.234,0.874,-0.016,0.11,-79.41,-50.81,14.22,0,4
15657.25,0.877,-0.011,0.152,-77.3,-41.32,14.77,0,4
15657.25,0.89,-0.034,0.2,-75.35,-34.64,16.97,0,4
15657.265,0.896,-0.058,0.229,-72.6,-31.5,19.78,0,4
15657.265,0.909,-0.05,0.249,-70.71,-31.28,20.14,0,4
15657.281,0.927,-0.057,0.256,-69.77,-31.5,18.01,0,4
15657.296,0.903,-0.066,0.252,-67.63,-30.79,15.63,0,4
15657.312,0.905,-0.092,0.215,-62.38,-31.95,14.74,0,4
15657.312,0.931,-0.078,0.194,-59.27,-30.98,17.79,0,4
15657.328,0.912,-0.043,0.209,-60.43,-26.37,20.2,0,4
15657.328,0.885,-0.046,0.219,-62.5,-24.05,18.89,0,4
15657.343,0.859,-0.027,0.265,-61.89,-23.93,18.4,0,4
15657.359,0.822,-0.002,0.316,-54.69,-25.36,21.06,0,4
15657.359,0.804,0.021,0.357,-42.21,-29.21,27.19,0,4
15657.375,0.758,0.042,0.397,-27.04,-35.28,35.89,0,4
15657.39,0.768,0.02,0.384,-10.99,-46.14,45.41,0,4
15657.39,0.811,-0.002,0.341,2.17,-56.58,56.4,0,4
15657.406,0.792,-0.037,0.305,10.9,-63.42,66.35,0,4
15657.406,0.83,-0.065,0.254,14.89,-71.5,71.5,0,4
15657.421,0.851,-0.045,0.169,16.05,-77.27,69.67,0,4
15657.437,0.851,-0.048,0.104,13.43,-78.71,66.87,0,4
15657.453,0.863,-0.054,0.087,10.01,-79.38,65.28,0,4
15657.453,0.88,-0.086,0.088,10.47,-79.65,67.6,0,4
15657.468,0.864,-0.138,0.092,14.92,-79.78,75.99,0,4
15657.468,0.865,-0.191,0.078,20.78,-80.97,88.53,0,4
15657.484,0.895,-0.216,0.051,24.23,-82.61,99.8,0,4
15657.5,0.917,-0.267,-0.007,22.95,-82.4,107.21,0,4
15657.5,0.944,-0.311,-0.078,13.82,-81.15,110.05,0,4
15657.515,0.969,-0.345,-0.12,-1.31,-79.01,107.67,0,4
15657.531,0.974,-0.382,-0.129,-16.82,-77.33,99.83,0,4
15657.531,0.976,-0.435,-0.139,-28.72,-76.02,89.75,0,4
15657.546,0.988,-0.446,-0.123,-34.73,-72.63,80.57,0,4
15657.562,0.978,-0.45,-0.11,-30.67,-67.29,71.35,0,4
15657.562,0.989,-0.46,-0.107,-21.36,-62.26,62.99,0,4
15657.578,0.982,-0.445,-0.101,-12.54,-56.37,54.66,0,4
15657.578,0.948,-0.435,-0.094,-4.94,-52.55,44.68,0,4
15657.593,0.963,-0.434,-0.121,1.31,-51.42,34.88,0,4
15657.609,0.963,-0.401,-0.148,5.65,-50.17,25.94,0,4
15657.609,0.959,-0.38,-0.161,7.39,-47.52,18.4,0,4
15657.625,0.958,-0.365,-0.166,6.74,-44.22,11.57,0,4
15657.64,0.96,-0.36,-0.187,6.41,-40.04,5.13,0,4
15657.64,0.955,-0.361,-0.202,6.87,-33.08,0.09,0,4
15657.656,0.934,-0.342,-0.2,8.85,-24.48,-3.6,0,4
15657.671,0.926,-0.307,-0.193,11.23,-17.46,-5.86,0,4
15657.671,0.918,-0.286,-0.185,12.91,-11.72,-7.48,0,4
15657.687,0.891,-0.275,-0.171,18.07,-6.16,-9.89,0,4
15657.703,0.889,-0.262,-0.167,20.2,-5.89,-8.64,0,4
15657.718,0.867,-0.24,-0.143,21.3,-5.46,-5.65,0,4
15657.734,0.842,-0.234,-0.131,22.0,-7.81,-1.22,0,4
15657.734,0.821,-0.223,-0.124,20.23,-12.45,4.06,0,4
15657.75,0.796,-0.241,-0.128,17.12,-17.76,8.94,0,4
15657.75,0.787,-0.291,-0.172,14.92,-24.26,12.45,0,4
15657.765,0.815,-0.311,-0.222,14.53,-29.57,14.74,0,4
15657.781,0.845,-0.331,-0.266,14.25,-30.7,15.59,0,4
15657.781,0.858,-0.344,-0.31,12.33,-28.41,15.96,0,4
15657.796,0.867,-0.333,-0.347,9.8,-23.77,16.21,0,4
15657.796,0.871,-0.332,-0.345,8.82,-16.36,16.97,0,4
15657.812,0.85,-0.338,-0.302,7.78,-7.66,18.71,0,4
15657.828,0.821,-0.36,-0.271,8.55,-0.64,20.54,0,4
15657.843,0.816,-0.399,-0.253,12.76,4.06,22.61,0,4
15657.843,0.803,-0.413,-0.23,17.12,7.6,24.66,0,4
15657.859,0.793,-0.449,-0.209,20.45,6.32,26.22,0,4
15657.875,0.796,-0.453,-0.207,17.98,4.64,27.92,0,4
15657.89,0.79,-0.47,-0.208,11.9,3.75,29.18,0,4
15657.89,0.795,-0.497,-0.212,3.78,2.99,30.46,0,4
15657.906,0.812,-0.516,-0.203,-4.49,3.45,32.23,0,4
15657.906,0.827,-0.537,-0.193,-12.3,5.55,33.88,0,4
15657.921,0.838,-0.563,-0.183,-18.22,8.33,35.43,0,4
15657.937,0.853,-0.577,-0.157,-22.25,10.56,35.8,0,4
15657.937,0.869,-0.597,-0.131,-23.8,12.85,34.58,0,4
15657.953,0.87,-0.606,-0.098,-23.8,14.47,31.95,0,4
15657.968,0.862,-0.619,-0.062,-22.4,14.86,28.6,0,4
15657.968,0.859,-0.638,-0.047,-20.11,12.97,26.12,0,4
15657.984,0.864,-0.636,-0.039,-17.64,9.52,23.83,0,4
15658.0,0.87,-0.632,-0.039,-14.98,5.71,19.84,0,4
15658.015,0.876,-0.627,-0.049,-11.78,2.01,14.56,0,4
15658.015,0.88,-0.624,-0.064,-6.96,-0.95,9.25,0,4
15658.031,0.89,-0.594,-0.112,6.99,-3.05,-2.11,0,4
15658.046,0.885,-0.563,-0.134,6.59,-1.77,-5.4,0,4
15658.046,0.872,-0.54,-0.144,4.52,-0.64,-8.55,0,4
15658.062,0.858,-0.491,-0.148,3.02,0.15,-10.86,0,4
15658.078,0.856,-0.475,-0.14,2.2,1.37,-12.21,0,4
15658.078,0.85,-0.472,-0.136,2.29,2.23,-11.84,0,4
15658.093,0.851,-0.467,-0.127,1.46,2.08,-9.03,0,4
15658.109,0.856,-0.465,-0.126,-1.1,1.56,-5.58,0,4
15658.109,0.86,-0.469,-0.129,-4.79,0.18,-3.54,0,4
15658.125,0.861,-0.472,-0.131,-8.7,-1.62,-2.87,0,4
15658.14,0.877,-0.464,-0.126,-11.78,-3.17,-2.96,0,4
15658.14,0.889,-0.457,-0.124,-13.55,-3.05,-3.08,0,4
15658.156,0.902,-0.453,-0.118,-14.31,-1.8,-2.69,0,4
15658.156,0.903,-0.463,-0.114,-13.73,0.21,-1.98,0,4
15658.171,0.901,-0.469,-0.104,-11.84,1.74,-1.8,0,4
15658.187,0.897,-0.467,-0.093,-9.09,1.56,-2.72,0,4
15658.203,0.895,-0.445,-0.082,-2.53,-1.4,-6.93,0,4
15658.218,0.899,-0.424,-0.081,0.92,-3.36,-8.64,0,4
15658.218,0.901,-0.408,-0.079,3.69,-5.13,-9.0,0,4
15658.234,0.897,-0.392,-0.085,5.98,-6.78,-7.48,0,4
15658.25,0.894,-0.376,-0.089,6.47,-8.12,-5.22,0,4
15658.25,0.892,-0.373,-0.096,5.19,-9.86,-3.6,0,4
15658.265,0.899,-0.364,-0.103,2.87,-12.02,-2.47,0,4
15658.281,0.9,-0.358,-0.108,0.24,-13.03,-1.59,0,4
15658.281,0.898,-0.362,-0.118,-1.37,-13.25,-0.82,0,4
15658.296,0.907,-0.376,-0.129,-1.25,-12.79,0.0,0,4
15658.296,0.912,-0.38,-0.138,0.06,-10.71,0.73,0,4
15658.312,0.899,-0.376,-0.146,1.86,-8.3,0.4,0,4
15658.328,0.886,-0.373,-0.152,2.96,-6.81,-0.49,0,4
15658.328,0.889,-0.368,-0.156,3.66,-5.71,-1.34,0,4
15658.343,0.89,-0.356,-0.159,4.94,-3.94,-1.01,0,4
15658.359,0.889,-0.347,-0.161,6.74,-1.74,0.76,0,4
15658.375,0.887,-0.354,-0.167,6.44,2.11,7.9,0,4
15658.39,0.876,-0.363,-0.161,3.63,2.93,10.41,0,4
15658.39,0.88,-0.37,-0.156,1.22,2.47,11.63,0,4
15658.406,0.884,-0.364,-0.148,-1.07,2.62,12.76,0,4
15658.406,0.877,-0.371,-0.14,-3.27,3.66,13.89,0,4
15658.421,0.873,-0.385,-0.128,-4.67,3.54,15.5,0,4
15658.437,0.871,-0.401,-0.125,-5.22,2.08,17.4,0,4
15658.453,0.874,-0.423,-0.124,-5.46,0.34,18.89,0,4
15658.453,0.876,-0.443,-0.13,-4.76,-1.04,19.32,0,4
15658.468,0.879,-0.445,-0.13,-3.42,-1.65,18.86,0,4
15658.468,0.882,-0.446,-0.133,-2.08,-1.56,17.67,0,4
15658.484,0.889,-0.441,-0.136,-1.53,-1.01,16.42,0,4
15658.5,0.889,-0.457,-0.14,-1.86,-0.06,16.05,0,4
15658.5,0.886,-0.475,-0.129,-2.11,1.28,17.09,0,4
15658.515,0.884,-0.484,-0.118,-1.37,1.59,17.52,0,4
15658.531,0.88,-0.494,-0.128,1.53,1.8,17.4,0,4
15658.546,0.871,-0.49,-0.139,4.27,2.35,16.02,0,4
15658.546,0.869,-0.498,-0.152,3.94,2.84,14.83,0,4
15658.562,0.873,-0.496,-0.159,1.56,3.02,15.02,0,4
15658.578,0.872,-0.499,-0.158,-3.45,3.97,16.63,0,4
15658.578,0.867,-0.499,-0.155,-11.08,4.21,18.52,0,4
15658.593,0.86,-0.504,-0.148,-19.47,3.3,20.08,0,4
15658.609,0.858,-0.528,-0.134,-25.67,1.83,20.51,0,4
15658.609,0.858,-0.532,-0.129,-27.74,0.24,19.9,0,4
15658.625,0.866,-0.532,-0.124,-27.44,-0.55,18.92,0,4
15658.64,0.869,-0.545,-0.119,-25.36,-0.55,17.12,0,4
15658.64,0.873,-0.547,-0.115,-21.7,0.15,15.26,0,4
15658.656,0.873,-0.552,-0.114,-18.1,1.16,13.76,0,4
15658.671,0.874,-0.561,-0.113,-14.59,1.31,11.32,0,4
15658.671,0.873,-0.566,-0.118,-10.35,0.95,7.87,0,4
15658.687,0.875,-0.565,-0.12,-5.46,0.95,3.72,0,4
15658.687,0.874,-0.547,-0.12,-0.98,1.53,-0.24,0,4
15658.718,0.87,-0.507,-0.124,3.54,3.57,-4.15,0,4
15658.718,0.86,-0.494,-0.121,2.87,3.63,-4.67,0,4
15658.734,0.855,-0.484,-0.117,1.01,2.32,-4.49,0,4
15658.75,0.855,-0.483,-0.116,-0.27,0.24,-4.27,0,4
15658.75,0.856,-0.478,-0.118,-0.4,-1.22,-3.72,0,4
15658.765,0.858,-0.475,-0.122,-0.03,-2.23,-2.96,0,4
15658.765,0.861,-0.477,-0.131,0.03,-2.84,-1.98,0,4
15658.781,0.863,-0.483,-0.14,0.31,-3.3,-0.89,0,4
15658.796,0.863,-0.49,-0.149,0.67,-3.23,-0.27,0,4
15658.796,0.866,-0.489,-0.16,0.76,-3.14,-0.46,0,4
15658.812,0.869,-0.488,-0.16,0.37,-2.32,-1.1,0,4
15658.828,0.865,-0.489,-0.159,0.58,-0.98,-1.74,0,4
15658.828,0.863,-0.486,-0.155,1.46,0.09,-1.77,0,4
15658.843,0.866,-0.481,-0.153,2.2,0.98,-1.37,0,4
15658.859,0.862,-0.485,-0.146,2.23,1.86,-1.04,0,4
15658.859,0.856,-0.489,-0.143,2.17,2.29,-0.95,0,4
15658.875,0.851,-0.486,-0.141,1.92,1.95,-0.82,0,4
15658.89,0.852,-0.483,-0.14,1.8,1.04,-0.64,0,4
15658.89,0.854,-0.476,-0.145,1.1,0.46,-0.37,0,4
15658.906,0.853,-0.476,-0.143,0.12,0.4,0.27,0,4
15658.906,0.852,-0.482,-0.142,-0.64,0.15,1.13,0,4
15658.921,0.864,-0.488,-0.146,-0.98,0.0,1.95,0,4
15658.937,0.868,-0.491,-0.142,-1.31,0.46,2.41,0,4
15658.937,0.865,-0.498,-0.14,-1.59,1.22,2.38,0,4
15658.953,0.865,-0.497,-0.132,-1.74,1.46,2.23,0,4
15658.968,0.87,-0.491,-0.128,-2.04,1.5,1.86,0,4
15658.968,0.865,-0.485,-0.12,-1.86,1.28,1.5,0,4
15658.984,0.856,-0.478,-0.112,-0.61,0.24,1.53,0,4
15659.0,0.861,-0.478,-0.113,1.65,-1.46,1.98,0,4
15659.0,0.871,-0.478,-0.12,4.82,-1.89,3.14,0,4
15659.015,0.875,-0.478,-0.132,4.91,-0.58,3.3,0,4
15659.031,0.871,-0.475,-0.136,3.97,0.7,3.23,0,4
15659.031,0.856,-0.473,-0.133,2.47,0.92,3.39,0,4
15659.046,0.849,-0.463,-0.115,1.74,0.27,4.0,0,4
15659.062,0.855,-0.464,-0.113,2.66,-0.27,4.97,0,4
15659.062,0.858,-0.461,-0.119,4.91,-0.49,6.2,0,4
15659.078,0.863,-0.46,-0.126,7.05,-0.09,7.45,0,4
15659.078,0.86,-0.454,-0.126,7.51,0.7,8.45,0,4
15659.093,0.857,-0.45,-0.125,6.44,0.89,9.4,0,4
15659.109,0.856,-0.456,-0.122,4.27,0.76,10.5,0,4
15659.109,0.85,-0.461,-0.117,2.44,0.52,11.57,0,4
15659.125,0.845,-0.465,-0.109,2.56,-0.24,12.24,0,4
15659.14,0.841,-0.458,-0.103,4.43,-1.37,12.51,0,4
15659.14,0.836,-0.443,-0.099,7.66,-2.32,13.25,0,4
15659.156,0.822,-0.421,-0.1,10.9,-3.23,15.05,0,4
15659.156,0.817,-0.408,-0.089,13.4,-4.88,17.46,0,4
15659.171,0.81,-0.4,-0.082,15.75,-6.81,21.0,0,4
15659.187,0.785,-0.376,-0.074,17.61,-9.06,26.22,0,4
15659.187,0.756,-0.353,-0.052,18.56,-13.67,32.38,0,4
15659.203,0.756,-0.338,-0.041,17.82,-20.69,39.74,0,4
15659.218,0.729,-0.298,-0.036,16.45,-27.59,47.64,0,4
15659.218,0.697,-0.292,-0.053,14.31,-34.79,56.06,0,4
15659.234,0.741,-0.274,-0.061,10.83,-41.11,64.97,0,4
15659.25,0.761,-0.222,-0.097,8.45,-45.38,68.79,0,4
15659.265,0.723,-0.226,-0.127,6.38,-45.26,69.61,0,4
15659.265,0.688,-0.23,-0.111,6.9,-44.68,71.69,0,4
15659.265,0.654,-0.211,-0.086,13.76,-43.79,75.26,0,4
15659.281,0.634,-0.195,-0.11,24.08,-44.37,80.45,0,4
15659.296,0.626,-0.216,-0.148,31.31,-44.4,88.81,0,4
15659.312,0.645,-0.268,-0.185,32.9,-43.92,100.74,0,4
15659.312,0.658,-0.349,-0.276,27.8,-43.0,114.72,0,4
15659.328,0.645,-0.427,-0.347,13.55,-38.94,131.78,0,4
15659.328,0.654,-0.498,-0.387,-5.28,-33.57,145.18,0,4
15659.343,0.685,-0.578,-0.403,-23.59,-28.41,150.43,0,4
15659.359,0.698,-0.713,-0.393,-36.53,-22.34,148.93,0,4
15659.359,0.7,-0.822,-0.363,-38.58,-12.79,144.69,0,4
15659.375,0.695,-0.884,-0.322,-28.96,-2.41,136.05,0,4
15659.39,0.688,-0.987,-0.299,-12.09,5.92,124.94,0,4
15659.39,0.683,-1.057,-0.29,5.77,14.83,115.45,0,4
15659.406,0.672,-1.073,-0.284,20.29,25.03,105.08,0,4
15659.406,0.658,-1.087,-0.261,28.23,34.3,92.29,0,4
15659.421,0.62,-1.086,-0.214,30.0,41.26,77.91,0,4
15659.437,0.585,-1.089,-0.159,29.39,42.73,63.66,0,4
15659.437,0.521,-1.125,-0.109,28.32,38.79,52.55,0,4
15659.453,0.51,-1.14,-0.059,27.65,33.17,48.01,0,4
15659.468,0.498,-1.117,-0.039,29.42,25.18,42.48,0,4
15659.468,0.481,-1.108,-0.04,29.45,16.3,35.1,0,4
15659.484,0.473,-1.097,-0.021,25.7,11.51,30.61,0,4
15659.5,0.452,-1.084,-0.005,22.19,7.9,26.7,0,4
15659.5,0.436,-1.087,-0.005,20.45,5.04,23.41,0,4
15659.515,0.428,-1.075,-0.009,19.99,3.45,21.36,0,4
15659.531,0.434,-1.051,-0.012,20.2,2.32,19.32,0,4
15659.531,0.441,-1.051,-0.015,19.56,1.31,17.06,0,4
15659.546,0.441,-1.046,-0.013,18.43,0.95,15.84,0,4
15659.546,0.441,-1.02,-0.007,18.34,-0.67,13.92,0,4
15659.562,0.461,-0.989,0.001,18.8,-3.57,11.05,0,4
15659.578,0.474,-0.965,0.018,19.84,-6.1,9.22,0,4
15659.593,0.484,-0.923,0.036,23.19,-9.7,7.48,0,4
15659.593,0.497,-0.87,0.036,28.66,-15.72,3.78,0,4
15659.609,0.513,-0.82,0.02,35.58,-22.64,-2.26,0,4
15659.609,0.535,-0.779,-0.012,43.92,-28.63,-9.86,0,4
15659.625,0.551,-0.756,-0.058,51.82,-31.43,-15.5,0,4
15659.64,0.562,-0.758,-0.113,57.65,-29.88,-15.26,0,4
15659.64,0.561,-0.727,-0.154,60.06,-24.41,-10.59,0,4
15659.656,0.568,-0.694,-0.18,57.47,-16.85,-4.39,0,4
15659.671,0.56,-0.667,-0.177,47.49,-8.55,3.02,0,4
15659.671,0.53,-0.672,-0.151,34.21,-1.8,11.6,0,4
15659.687,0.505,-0.694,-0.102,21.7,2.23,22.4,0,4
15659.687,0.47,-0.698,-0.064,13.34,3.17,32.75,0,4
15659.703,0.455,-0.724,-0.051,8.61,0.85,40.13,0,4
15659.718,0.464,-0.759,-0.041,5.1,-2.96,45.72,0,4
15659.734,0.482,-0.838,-0.049,2.29,-6.29,54.6,0,4
15659.75,0.487,-0.878,-0.058,0.61,-5.13,58.6,0,4
15659.75,0.488,-0.898,-0.053,-1.77,-2.84,60.06,0,4
15659.765,0.475,-0.922,-0.041,-3.6,-0.79,57.77,0,4
15659.781,0.453,-0.936,-0.021,-3.48,0.4,52.86,0,4
15659.781,0.424,-0.959,-0.002,1.16,0.4,45.96,0,4
15659.796,0.412,-1.004,0.0,10.93,-1.8,39.67,0,4
15659.796,0.397,-1.001,0.001,23.13,-2.96,35.83,0,4
15659.812,0.388,-0.967,-0.009,33.66,-4.39,32.44,0,4
15659.828,0.396,-0.927,-0.019,36.53,-5.8,29.79,0,4
15659.828,0.387,-0.902,-0.017,33.08,-5.95,27.86,0,4
15659.843,0.363,-0.901,0.003,28.75,-6.07,26.89,0,4
15659.859,0.341,-0.906,0.016,27.89,-7.32,28.11,0,4
15659.859,0.335,-0.893,0.017,28.72,-9.0,30.73,0,4
15659.875,0.337,-0.88,0.008,29.05,-10.35,32.04,0,4
15659.89,0.349,-0.884,-0.008,27.44,-10.74,32.38,0,4
15659.906,0.353,-0.932,-0.017,22.4,-8.48,36.84,0,4
15659.921,0.357,-0.962,-0.041,19.07,-8.06,40.96,0,4
15659.921,0.359,-0.975,-0.038,13.86,-7.17,44.74,0,4
15659.937,0.368,-0.992,-0.038,8.06,-7.29,45.38,0,4
15659.937,0.361,-1.002,-0.037,3.51,-6.9,42.85,0,4
15659.953,0.344,-1.015,-0.022,2.14,-6.2,38.06,0,4
15659.968,0.315,-1.022,-0.018,3.3,-6.16,31.98,0,4
15659.984,0.3,-1.04,-0.024,4.21,-7.42,25.42,0,4
15659.984,0.306,-1.063,-0.019,5.46,-8.27,20.02,0,4
15660.0,0.317,-1.072,-0.019,7.72,-2.78,19.29,0,4
15660.0,0.308,-1.068,-0.008,8.27,0.89,19.75,0,4
15660.015,0.297,-1.068,-0.002,7.84,3.78,20.54,0,4
15660.031,0.272,-1.073,0.022,7.42,6.1,20.33,0,4
15660.031,0.281,-1.075,0.029,8.0,7.2,19.35,0,4
15660.046,0.271,-1.08,0.038,8.64,8.76,18.34,0,4
15660.046,0.279,-1.088,0.04,8.09,9.7,18.04,0,4
15660.062,0.286,-1.097,0.042,5.13,10.77,18.8,0,4
15660.078,0.288,-1.105,0.048,1.01,11.72,19.26,0,4
15660.093,0.291,-1.118,0.05,-3.39,11.72,18.65,0,4
15660.093,0.283,-1.126,0.062,-6.32,11.47,16.08,0,4
15660.109,0.284,-1.132,0.071,-6.38,10.28,12.12,0,4
15660.109,0.288,-1.125,0.068,-4.24,8.55,8.12,0,4
15660.125,0.307,-1.106,0.065,-1.25,7.29,3.78,0,4
15660.14,0.309,-1.084,0.067,1.62,7.39,-1.16,0,4
15660.14,0.3,-1.061,0.07,4.3,7.35,-5.71,0,4
15660.156,0.313,-1.038,0.068,5.71,6.53,-8.42,0,4
15660.156,0.314,-1.008,0.073,5.8,6.26,-10.28,0,4
15660.171,0.316,-0.996,0.079,5.68,5.49,-12.09,0,4
15660.187,0.314,-0.982,0.085,5.58,4.36,-12.94,0,4
15660.203,0.309,-0.965,0.087,5.83,2.59,-13.64,0,4
15660.203,0.309,-0.959,0.082,6.47,0.06,-14.59,0,4
15660.218,0.311,-0.947,0.07,7.32,-2.23,-15.08,0,4
15660.218,0.309,-0.928,0.066,8.0,-3.33,-15.17,0,4
15660.234,0.315,-0.916,0.062,8.27,-4.27,-14.65,0,4
15660.25,0.32,-0.905,0.052,7.35,-4.7,-13.03,0,4
15660.25,0.316,-0.901,0.046,5.55,-4.33,-10.71,0,4
15660.265,0.312,-0.901,0.034,3.33,-3.78,-8.03,0,4
15660.281,0.314,-0.906,0.028,0.85,-3.3,-5.13,0,4
15660.281,0.32,-0.913,0.022,-1.28,-2.53,-2.08,0,4
15660.296,0.324,-0.915,0.023,-3.33,-1.16,0.49,0,4
15660.296,0.323,-0.919,0.027,-5.34,0.46,2.29,0,4
15660.312,0.324,-0.932,0.032,-6.53,1.74,3.42,0,4
15660.328,0.327,-0.937,0.035,-7.2,2.87,4.46,0,4
15660.328,0.321,-0.935,0.044,-7.32,3.78,4.76,0,4
15660.343,0.317,-0.936,0.05,-7.02,3.39,3.91,0,4
15660.359,0.313,-0.94,0.054,-6.32,2.93,2.78,0,4
15660.359,0.31,-0.951,0.055,-4.24,2.29,2.29,0,4
15660.375,0.307,-0.956,0.05,-1.95,2.04,2.81,0,4
15660.39,0.306,-0.956,0.043,-1.1,1.95,3.66,0,4
15660.39,0.309,-0.962,0.035,-2.62,1.4,4.46,0,4
15660.406,0.309,-0.975,0.032,-4.88,1.16,4.82,0,4
15660.406,0.313,-0.985,0.03,-6.26,1.8,4.61,0,4
15660.421,0.317,-0.991,0.03,-6.23,3.14,3.91,0,4
15660.437,0.311,-0.996,0.03,-5.4,4.61,2.75,0,4
15660.437,0.307,-0.997,0.033,-4.06,5.37,1.46,0,4
15660.453,0.308,-0.996,0.035,-2.75,5.62,0.09,0,4
15660.468,0.3,-0.994,0.039,-1.68,5.13,-1.43,0,4
15660.468,0.29,-0.991,0.039,-0.7,4.0,-3.08,0,4
15660.484,0.291,-0.981,0.042,0.0,2.35,-4.18,0,4
15660.5,0.293,-0.97,0.042,0.24,1.01,-4.88,0,4
15660.5,0.291,-0.959,0.039,0.31,-0.12,-5.43,0,4
15660.515,0.298,-0.95,0.038,0.18,-0.95,-5.68,0,4
15660.531,0.302,-0.949,0.036,0.09,-0.82,-5.22,0,4
15660.531,0.302,-0.944,0.028,-0.37,-0.15,-4.15,0,4
15660.546,0.304,-0.944,0.023,-1.28,0.37,-3.14,0,4
15660.546,0.308,-0.95,0.025,-2.29,0.73,-2.59,0,4
15660.562,0.307,-0.951,0.026,-2.72,0.92,-2.08,0,4
15660.578,0.31,-0.95,0.028,-2.35,0.37,-2.17,0,4
15660.578,0.315,-0.95,0.026,-1.65,-0.15,-2.44,0,4
15660.593,0.319,-0.949,0.022,-0.89,-0.15,-2.32,0,4
15660.609,0.32,-0.946,0.019,-0.37,0.52,-2.11,0,4
15660.609,0.323,-0.946,0.014,-0.61,1.28,-1.77,0,4
15660.625,0.323,-0.942,0.018,-1.89,2.5,-0.85,0,4
15660.64,0.324,-0.947,0.029,-3.08,3.54,-0.31,0,4
15660.64,0.318,-0.948,0.041,-3.45,4.27,0.09,0,4
15660.656,0.314,-0.952,0.048,-2.66,4.3,0.06,0,4
15660.656,0.312,-0.957,0.048,-1.65,3.39,0.43,0,4
15660.671,0.313,-0.952,0.046,-0.92,2.47,0.52,0,4
15660.687,0.325,-0.956,0.04,-1.43,1.92,0.27,0,4
15660.687,0.324,-0.959,0.046,-3.02,2.04,0.67,0,4
15660.703,0.327,-0.963,0.053,-3.69,1.74,1.01,0,4
15660.718,0.327,-0.967,0.056,-3.39,1.04,0.61,0,4
15660.718,0.321,-0.968,0.056,-2.11,0.03,-0.61,0,4
15660.734,0.315,-0.968,0.052,-0.21,-1.25,-1.95,0,4
15660.75,0.323,-0.969,0.042,1.62,-2.11,-2.69,0,4
15660.75,0.325,-0.974,0.024,1.98,-2.01,-1.92,0,4
15660.765,0.325,-0.981,0.017,0.03,-1.8,-0.06,0,4
15660.781,0.322,-1.001,0.015,-3.57,-1.74,1.37,0,4
15660.781,0.322,-1.028,0.012,-7.69,-2.2,2.32,0,4
15660.796,0.321,-1.041,0.018,-10.65,-2.59,2.01,0,4
15660.812,0.317,-1.052,0.021,-11.2,-2.41,-0.27,0,4
15660.812,0.315,-1.05,0.022,-9.83,-1.71,-3.48,0,4
15660.828,0.318,-1.035,0.027,-6.87,-0.85,-6.56,0,4
15660.828,0.32,-1.018,0.033,-3.75,0.27,-9.37,0,4
15660.843,0.312,-0.995,0.038,-1.62,1.5,-11.11,0,4
15660.859,0.308,-0.985,0.051,-1.1,1.59,-11.78,0,4
15660.859,0.307,-0.985,0.053,-1.37,0.7,-11.81,0,4
15660.875,0.309,-0.982,0.05,-2.44,-0.18,-11.32,0,4
15660.89,0.314,-0.988,0.046,-4.88,-1.74,-10.68,0,4
15660.89,0.317,-0.999,0.038,-7.9,-3.85,-9.77,0,4
15660.906,0.327,-1.009,0.026,-10.96,-5.89,-9.09,0,4
15660.906,0.334,-1.026,0.012,-13.55,-6.41,-9.22,0,4
15660.921,0.338,-1.047,0.007,-15.5,-5.01,-10.13,0,4
15660.937,0.339,-1.062,0.016,-16.72,-2.81,-11.51,0,4
15660.937,0.327,-1.074,0.026,-17.55,-0.18,-13.28,0,4
15660.953,0.319,-1.087,0.036,-18.37,0.58,-15.59,0,4
15660.968,0.317,-1.087,0.044,-18.77,-0.43,-18.86,0,4
15660.968,0.302,-1.085,0.049,-17.0,-6.35,-27.34,0,4
15660.984,0.294,-1.086,0.043,-17.7,-9.8,-28.93,0,4
15661.0,0.308,-1.08,0.023,-21.0,-11.35,-28.63,0,4
15661.0,0.336,-1.079,-0.025,-27.56,-11.14,-26.61,0,4
15661.015,0.359,-1.091,-0.027,-35.95,-9.22,-23.65,0,4
15661.031,0.361,-1.111,-0.016,-43.4,-6.2,-22.22,0,4
15661.031,0.361,-1.138,0.01,-46.85,-4.33,-24.26,0,4
15661.046,0.369,-1.164,0.031,-44.83,-4.09,-29.66,0,4
15661.046,0.37,-1.169,0.032,-37.81,-4.33,-37.54,0,4
15661.062,0.377,-1.152,0.031,-28.72,-5.04,-47.21,0,4
15661.078,0.387,-1.128,0.028,-19.87,-5.98,-57.44,0,4
15661.078,0.387,-1.094,0.012,-12.7,-6.44,-65.65,0,4
15661.093,0.398,-1.054,0.006,-8.82,-6.53,-70.93,0,4
15661.109,0.411,-1.013,-0.003,-8.79,-6.65,-72.88,0,4
15661.109,0.419,-0.976,-0.007,-12.7,-7.14,-72.36,0,4
15661.125,0.432,-0.945,-0.012,-18.71,-7.93,-71.08,0,4
15661.14,0.433,-0.905,-0.02,-25.54,-8.94,-69.77,0,4
15661.14,0.434,-0.884,-0.032,-31.59,-11.05,-68.79,0,4
15661.156,0.45,-0.886,-0.035,-35.04,-13.28,-67.96,0,4
15661.171,0.471,-0.88,-0.039,-33.97,-13.82,-67.75,0,4
15661.171,0.483,-0.877,-0.056,-29.18,-12.88,-68.12,0,4
15661.187,0.5,-0.867,-0.067,-25.61,-11.44,-68.06,0,4
15661.187,0.504,-0.85,-0.079,-24.54,-9.61,-68.06,0,4
15661.203,0.51,-0.844,-0.086,-26.28,-8.51,-67.81,0,4
15661.218,0.518,-0.833,-0.083,-29.6,-7.75,-67.05,0,4
15661.218,0.524,-0.843,-0.089,-31.77,-7.2,-66.38,0,4
15661.234,0.543,-0.852,-0.096,-32.29,-6.84,-65.98,0,4
15661.25,0.568,-0.847,-0.105,-31.46,-5.74,-66.71,0,4
15661.25,0.578,-0.839,-0.113,-30.49,-3.75,-68.54,0,4
15661.265,0.584,-0.832,-0.113,-29.85,-1.46,-70.16,0,4
15661.281,0.587,-0.809,-0.103,-29.15,1.25,-71.72,0,4
15661.281,0.581,-0.792,-0.095,-28.26,3.33,-73.18,0,4
15661.296,0.56,-0.783,-0.081,-26.73,3.6,-72.82,0,4
15661.296,0.539,-0.763,-0.076,-25.73,0.34,-70.71,0,4
15661.312,0.548,-0.727,-0.101,-27.53,-5.52,-67.84,0,4
15661.328,0.559,-0.704,-0.114,-32.93,-11.54,-65.19,0,4
15661.328,0.572,-0.686,-0.123,-39.77,-17.33,-63.54,0,4
15661.343,0.595,-0.681,-0.151,-45.17,-21.15,-61.89,0,4
15661.359,0.611,-0.683,-0.17,-48.13,-21.18,-58.53,0,4
15661.359,0.624,-0.684,-0.184,-48.34,-19.14,-55.3,0,4
15661.375,0.632,-0.685,-0.201,-46.39,-15.26,-52.55,0,4
15661.39,0.632,-0.674,-0.207,-44.59,-10.77,-50.57,0,4
15661.406,0.631,-0.684,-0.206,-42.79,-7.57,-49.84,0,4
15661.406,0.641,-0.694,-0.21,-40.96,-5.46,-48.37,0,4
15661.406,0.648,-0.685,-0.22,-40.25,-3.94,-46.82,0,4
15661.421,0.648,-0.674,-0.226,-42.54,-3.11,-45.63,0,4
15661.437,0.653,-0.661,-0.219,-48.13,-3.6,-45.44,0,4
15661.437,0.656,-0.661,-0.213,-53.16,-4.94,-46.6,0,4
15661.453,0.658,-0.652,-0.209,-55.18,-5.89,-47.4,0,4
15661.468,0.669,-0.635,-0.21,-53.9,-6.59,-47.61,0,4
15661.468,0.68,-0.624,-0.22,-50.33,-7.17,-47.7,0,4
15661.484,0.688,-0.611,-0.226,-46.05,-7.29,-47.09,0,4
15661.5,0.688,-0.6,-0.24,-41.72,-6.87,-46.33,0,4
15661.5,0.69,-0.588,-0.255,-38.61,-6.35,-45.32,0,4
15661.515,0.693,-0.583,-0.269,-37.87,-5.65,-44.04,0,4
15661.531,0.691,-0.585,-0.284,-39.31,-4.91,-42.33,0,4
15661.531,0.695,-0.594,-0.309,-42.21,-4.06,-39.55,0,4
15661.546,0.707,-0.593,-0.326,-47.15,-2.56,-35.52,0,4
15661.562,0.725,-0.596,-0.323,-53.87,-0.73,-31.68,0,4
15661.562,0.728,-0.606,-0.31,-60.95,1.16,-29.21,0,4
15661.578,0.723,-0.605,-0.298,-65.65,1.37,-29.3,0,4
15661.578,0.717,-0.605,-0.284,-66.23,0.12,-31.89,0,4
15661.593,0.717,-0.605,-0.284,-62.35,-1.95,-36.1,0,4
15661.609,0.732,-0.6,-0.297,-55.94,-4.21,-40.07,0,4
15661.609,0.745,-0.584,-0.316,-47.88,-5.43,-44.28,0,4
15661.625,0.741,-0.565,-0.343,-39.98,-5.46,-48.65,0,4
15661.64,0.735,-0.545,-0.361,-34.52,-5.16,-51.52,0,4
15661.64,0.736,-0.532,-0.373,-31.4,-4.61,-53.25,0,4
15661.656,0.733,-0.525,-0.382,-30.12,-3.51,-54.51,0,4
15661.656,0.729,-0.527,-0.395,-30.46,-1.56,-54.66,0,4
15661.671,0.737,-0.517,-0.406,-31.83,0.49,-54.78,0,4
15661.687,0.752,-0.5,-0.404,-33.88,2.78,-55.85,0,4
15661.687,0.765,-0.476,-0.391,-36.56,5.43,-56.79,0,4
15661.703,0.768,-0.446,-0.365,-39.34,7.45,-57.28,0,4
15661.718,0.766,-0.423,-0.327,-40.31,7.39,-57.31,0,4
15661.718,0.763,-0.404,-0.299,-39.06,5.52,-57.59,0,4
15661.734,0.769,-0.385,-0.287,-36.19,2.23,-57.59,0,4
15661.75,0.779,-0.367,-0.292,-33.42,-0.85,-56.64,0,4
15661.75,0.797,-0.351,-0.31,-33.02,-3.45,-54.93,0,4
15661.765,0.812,-0.34,-0.324,-35.25,-5.22,-53.47,0,4
15661.765,0.823,-0.328,-0.331,-39.16,-6.1,-52.61,0,4
15661.781,0.832,-0.315,-0.337,-43.09,-6.96,-52.06,0,4
15661.796,0.843,-0.317,-0.341,-45.11,-7.84,-51.39,0,4
15661.812,0.842,-0.314,-0.349,-44.5,-7.72,-50.2,0,4
15661.812,0.845,-0.304,-0.353,-42.76,-6.84,-48.68,0,4
15661.828,0.838,-0.289,-0.357,-41.14,-5.58,-48.01,0,4
15661.828,0.827,-0.284,-0.36,-39.67,-5.19,-48.28,0,4
15661.843,0.817,-0.278,-0.355,-38.15,-6.16,-48.22,0,4
15661.859,0.822,-0.258,-0.36,-36.04,-8.33,-47.88,0,4
15661.859,0.839,-0.234,-0.362,-35.16,-9.98,-47.15,0,4
15661.875,0.846,-0.214,-0.363,-35.34,-10.62,-46.3,0,4
15661.89,0.854,-0.206,-0.364,-36.07,-10.56,-44.68,0,4
15661.89,0.854,-0.208,-0.362,-37.6,-9.49,-42.51,0,4
15661.906,0.845,-0.209,-0.368,-38.73,-8.79,-41.38,0,4
15661.921,0.84,-0.215,-0.374,-38.7,-9.28,-41.84,0,4
15661.921,0.834,-0.219,-0.383,-35.4,-9.8,-44.1,0,4
15661.937,0.829,-0.212,-0.401,-29.6,-10.74,-47.79,0,4
15661.937,0.818,-0.195,-0.422,-23.62,-11.81,-51.12,0,4
15661.953,0.811,-0.177,-0.448,-17.76,-12.45,-53.59,0,4
15661.968,0.808,-0.158,-0.475,-19.26,-11.51,-53.01,0,4
15661.968,0.812,-0.156,-0.496,-22.74,-9.77,-52.31,0,4
15661.984,0.821,-0.157,-0.515,-26.73,-7.26,-52.03,0,4
15662.0,0.824,-0.162,-0.525,-29.08,-3.75,-52.89,0,4
15662.0,0.834,-0.161,-0.522,-29.18,0.06,-54.69,0,4
15662.015,0.849,-0.152,-0.521,-27.83,4.7,-57.04,0,4
15662.031,0.849,-0.138,-0.507,-24.96,10.35,-60.46,0,4
15662.031,0.825,-0.123,-0.48,-20.17,14.04,-64.7,0,4
15662.046,0.807,-0.11,-0.474,-14.56,15.84,-66.9,0,4
15662.046,0.8,-0.074,-0.452,-9.92,17.18,-65.8,0,4
15662.062,0.791,-0.042,-0.442,-8.18,16.66,-63.42,0,4
15662.078,0.789,-0.01,-0.436,-13.0,14.28,-60.24,0,4
15662.078,0.799,0.022,-0.432,-22.71,11.23,-56.67,0,4
15662.093,0.807,0.03,-0.422,-34.15,8.48,-52.58,0,4
15662.109,0.814,0.021,-0.413,-44.4,5.71,-48.31,0,4
15662.109,0.829,0.006,-0.407,-51.12,2.87,-45.29,0,4
15662.125,0.83,-0.004,-0.403,-53.56,0.76,-44.47,0,4
15662.14,0.833,-0.007,-0.402,-52.1,-1.5,-45.38,0,4
15662.14,0.841,0.002,-0.404,-48.34,-3.36,-46.72,0,4
15662.156,0.844,0.011,-0.409,-42.85,-3.45,-47.91,0,4
15662.171,0.845,0.025,-0.42,-36.84,-3.05,-49.23,0,4
15662.171,0.848,0.039,-0.433,-31.5,-2.01,-50.51,0,4
15662.187,0.845,0.062,-0.442,-28.44,-0.43,-51.52,0,4
15662.187,0.842,0.08,-0.448,-27.44,1.4,-52.92,0,4
15662.203,0.841,0.093,-0.447,-27.62,2.53,-54.48,0,4
15662.218,0.827,0.113,-0.437,-27.5,3.69,-55.33,0,4
15662.218,0.823,0.13,-0.426,-27.07,4.0,-55.12,0,4
15662.234,0.82,0.156,-0.421,-27.16,3.42,-54.2,0,4
15662.25,0.817,0.179,-0.421,-27.89,2.44,-53.04,0,4
15662.25,0.819,0.196,-0.416,-29.08,1.01,-51.67,0,4
15662.265,0.823,0.205,-0.409,-29.6,-0.03,-49.81,0,4
15662.265,0.819,0.208,-0.409,-29.05,0.06,-47.36,0,4
15662.281,0.809,0.21,-0.422,-27.59,0.55,-44.74,0,4
15662.296,0.81,0.21,-0.434,-26.22,0.06,-42.21,0,4
15662.296,0.814,0.212,-0.448,-26.15,0.46,-39.55,0,4
15662.312,0.815,0.22,-0.461,-28.38,2.04,-36.44,0,4
15662.328,0.823,0.231,-0.469,-33.48,4.27,-33.36,0,4
15662.328,0.826,0.24,-0.465,-41.38,7.02,-29.82,0,4
15662.343,0.824,0.238,-0.451,-50.39,9.52,-26.8,0,4
15662.359,0.828,0.231,-0.434,-57.16,11.38,-24.87,0,4
15662.359,0.82,0.226,-0.417,-59.66,13.55,-23.35,0,4
15662.375,0.812,0.219,-0.411,-58.78,15.14,-22.46,0,4
15662.39,0.803,0.221,-0.407,-57.07,15.99,-22.64,0,4
15662.39,0.802,0.224,-0.411,-55.33,15.9,-23.87,0,4
15662.406,0.802,0.227,-0.408,-53.65,15.72,-25.7,0,4
15662.421,0.799,0.233,-0.409,-51.18,16.24,-27.44,0,4
15662.421,0.804,0.245,-0.409,-48.95,16.82,-28.53,0,4
15662.437,0.808,0.258,-0.401,-48.04,18.43,-28.93,0,4
15662.437,0.81,0.263,-0.394,-48.16,20.63,-28.99,0,4
15662.453,0.819,0.268,-0.379,-49.71,22.95,-28.78,0,4
15662.468,0.813,0.273,-0.352,-52.31,25.3,-29.02,0,4
15662.468,0.812,0.253,-0.326,-53.01,26.64,-29.94,0,4
15662.484,0.815,0.237,-0.295,-51.33,27.07,-30.18,0,4
15662.5,0.821,0.227,-0.27,-46.85,26.49,-30.79,0,4
15662.5,0.813,0.226,-0.262,-42.33,25.33,-32.47,0,4
15662.515,0.8,0.227,-0.258,-39.49,23.53,-35.55,0,4
15662.531,0.803,0.232,-0.254,-38.36,20.84,-38.94,0,4
15662.531,0.824,0.253,-0.247,-39.55,18.98,-41.57,0,4
15662.546,0.818,0.27,-0.245,-41.96,19.07,-43.79,0,4
15662.546,0.814,0.291,-0.24,-45.99,18.37,-45.9,0,4
15662.562,0.803,0.311,-0.23,-51.09,17.55,-47.36,0,4
15662.578,0.803,0.334,-0.226,-57.25,16.36,-48.28,0,4
15662.578,0.788,0.348,-0.213,-63.11,15.5,-48.89,0,4
15662.593,0.768,0.353,-0.204,-65.89,14.98,-48.8,0,4
15662.609,0.746,0.352,-0.199,-65.34,14.4,-48.34,0,4
15662.609,0.729,0.339,-0.198,-61.68,12.3,-48.4,0,4
15662.625,0.759,0.357,-0.208,-57.22,9.31,-48.01,0,4
15662.64,0.782,0.4,-0.215,-55.73,9.37,-48.19,0,4
15662.64,0.793,0.429,-0.217,-59.08,11.32,-49.26,0,4
15662.656,0.79,0.447,-0.203,-66.26,14.47,-49.65,0,4
15662.671,0.77,0.453,-0.171,-72.39,18.01,-49.75,0,4
15662.671,0.753,0.424,-0.132,-72.97,20.42,-50.14,0,4
15662.687,0.735,0.408,-0.101,-67.08,22.28,-50.26,0,4
15662.703,0.745,0.421,-0.088,-58.35,22.31,-51.0,0,4
15662.703,0.761,0.453,-0.083,-51.79,21.7,-53.59,0,4
15662.718,0.749,0.485,-0.077,-48.74,21.91,-57.53,0,4
15662.718,0.73,0.506,-0.076,-48.74,21.06,-60.79,0,4
15662.734,0.705,0.505,-0.065,-48.68,19.2,-62.07,0,4
15662.75,0.688,0.501,-0.058,-45.72,17.0,-62.35,0,4
15662.75,0.703,0.519,-0.065,-41.41,14.53,-62.78,0,4
15662.765,0.701,0.542,-0.073,-38.64,13.73,-64.21,0,4
15662.781,0.703,0.563,-0.079,-37.72,14.13,-66.44,0,4
15662.781,0.7,0.59,-0.089,-37.81,15.26,-68.36,0,4
15662.796,0.679,0.616,-0.084,-38.7,17.06,-70.1,0,4
15662.796,0.668,0.639,-0.078,-39.12,18.62,-71.26,0,4
15662.812,0.657,0.661,-0.067,-38.58,20.2,-71.66,0,4
15662.828,0.635,0.694,-0.074,-37.6,21.39,-71.14,0,4
15662.843,0.62,0.719,-0.058,-37.39,21.45,-69.31,0,4
15662.843,0.635,0.74,-0.052,-37.32,20.05,-68.21,0,4
15662.859,0.622,0.76,-0.039,-37.26,20.84,-66.96,0,4
15662.859,0.601,0.742,-0.031,-33.6,21.18,-66.59,0,4
15662.875,0.591,0.738,-0.026,-26.95,19.9,-66.23,0,4
15662.89,0.551,0.717,-0.023,-16.94,19.35,-66.16,0,4
15662.89,0.573,0.708,-0.051,-6.71,17.52,-66.23,0,4
15662.906,0.6,0.757,-0.071,-4.09,17.76,-66.07,0,4
15662.906,0.601,0.77,-0.088,-7.42,21.24,-67.35,0,4
15662.921,0.6,0.796,-0.077,-15.93,25.3,-68.0,0,4
15662.937,0.565,0.792,-0.044,-24.6,34.39,-66.19,0,4
15662.937,0.531,0.763,-0.013,-22.8,34.94,-63.88,0,4
15662.953,0.521,0.752,0.033,-17.58,32.5,-62.01,0,4
15662.968,0.543,0.726,0.05,-14.59,28.17,-61.13,0,4
15662.968,0.547,0.812,0.059,-15.2,23.93,-63.42,0,4
15662.984,0.509,0.858,0.07,-18.8,20.14,-66.71,0,4
15663.0,0.467,0.887,0.08,-23.13,16.27,-67.26,0,4
15663.0,0.436,0.871,0.081,-24.99,11.75,-64.52,0,4
15663.015,0.419,0.807,0.064,-21.49,6.16,-60.88,0,4
15663.031,0.468,0.758,0.027,-13.21,1.1,-58.63,0,4
15663.031,0.525,0.767,0.005,-5.98,1.43,-59.27,0,4
15663.046,0.526,0.785,-0.001,-2.44,7.48,-63.54,0,4
15663.046,0.474,0.796,0.013,-2.9,14.53,-67.93,0,4
15663.062,0.44,0.8,0.026,-3.63,18.34,-70.31,0,4
15663.078,0.409,0.83,0.024,-5.25,18.59,-69.7,0,4
15663.078,0.351,0.837,0.034,-8.94,15.47,-68.39,0,4
15663.093,0.376,0.853,0.037,-13.7,9.98,-66.87,0,4
15663.109,0.403,0.891,0.046,-20.97,8.64,-64.49,0,4
15663.109,0.388,0.877,0.041,-28.44,10.38,-62.41,0,4
15663.125,0.373,0.871,0.053,-34.97,11.51,-60.7,0,4
15663.14,0.343,0.849,0.068,-36.5,12.54,-60.4,0,4
15663.14,0.334,0.808,0.075,-32.81,12.73,-59.79,0,4
15663.156,0.358,0.783,0.072,-24.81,13.55,-58.93,0,4
15663.156,0.391,0.812,0.074,-18.37,16.24,-59.6,0,4
15663.171,0.399,0.856,0.088,-18.25,20.42,-62.59,0,4
15663.187,0.359,0.891,0.121,-23.87,24.84,-65.19,0,4
15663.203,0.294,0.9,0.157,-29.45,27.01,-66.44,0,4
15663.203,0.232,0.868,0.186,-30.4,25.51,-66.19,0,4
15663.218,0.179,0.778,0.192,-22.64,19.81,-65.61,0,4
15663.218,0.187,0.718,0.131,-7.45,11.38,-65.31,0,4
15663.234,0.249,0.736,0.074,5.83,4.64,-67.26,0,4
15663.25,0.3,0.777,0.057,13.52,4.36,-73.7,0,4
15663.25,0.309,0.852,0.055,12.57,10.96,-79.53,0,4
15663.265,0.264,0.913,0.08,4.79,20.48,-82.06,0,4
15663.281,0.203,0.908,0.132,-3.6,27.1,-81.06,0,4
15663.281,0.172,0.876,0.15,-8.45,27.25,-78.13,0,4
15663.296,0.177,0.874,0.134,-10.07,23.44,-75.35,0,4
15663.312,0.203,0.916,0.117,-11.6,18.98,-75.78,0,4
15663.312,0.16,0.986,0.119,-15.69,18.71,-78.71,0,4
15663.328,0.092,1.004,0.121,-21.18,19.14,-79.9,0,4
15663.328,0.043,1.006,0.131,-26.15,18.1,-76.75,0,4
15663.343,0.005,0.998,0.138,-28.17,16.69,-70.47,0,4
15663.359,0.046,0.977,0.138,-28.14,14.25,-64.55,0,4
15663.359,0.125,0.965,0.137,-29.11,13.37,-61.56,0,4
15663.375,0.15,0.932,0.127,-30.06,16.08,-61.53,0,4
15663.39,0.135,0.942,0.144,-33.14,19.26,-63.72,0,4
15663.39,0.084,0.966,0.163,-35.43,23.01,-68.0,0,4
15663.406,0.038,1.013,0.185,-37.63,26.03,-71.32,0,4
15663.406,-0.021,1.028,0.222,-38.27,27.59,-72.24,0,4
15663.421,-0.048,1.013,0.247,-34.7,25.76,-70.77,0,4
15663.437,-0.013,1.031,0.269,-29.85,22.64,-67.96,0,4
15663.453,0.013,1.028,0.266,-25.42,20.94,-66.16,0,4
15663.453,0.037,1.039,0.251,-26.37,19.41,-64.58,0,4
15663.468,0.012,1.04,0.257,-31.16,19.26,-64.27,0,4
15663.468,-0.037,1.023,0.265,-35.68,19.2,-64.82,0,4
15663.484,-0.093,0.992,0.275,-37.51,17.58,-64.61,0,4
15663.5,-0.119,0.951,0.272,-34.06,14.1,-63.39,0,4
15663.5,-0.097,0.947,0.267,-29.11,11.23,-61.92,0,4
15663.515,-0.054,0.948,0.256,-24.26,11.69,-61.83,0,4
15663.531,0.02,0.994,0.256,-24.81,15.23,-62.11,0,4
15663.531,-0.006,1.004,0.268,-30.3,21.09,-63.17,0,4
15663.546,-0.05,0.992,0.29,-36.99,23.35,-63.57,0,4
15663.546,-0.069,1.021,0.312,-43.64,22.19,-63.3,0,4
15663.562,-0.13,1.024,0.326,-47.85,19.65,-63.72,0,4
15663.578,-0.175,1.004,0.333,-46.97,14.95,-64.12,0,4
15663.593,-0.158,1.025,0.339,-42.18,10.41,-63.63,0,4
15663.593,-0.117,1.044,0.343,-35.34,9.64,-63.57,0,4
15663.609,-0.072,1.071,0.345,-30.3,12.51,-63.75,0,4
15663.609,-0.114,1.089,0.339,-28.32,16.88,-64.18,0,4
15663.625,-0.162,1.084,0.331,-28.66,18.19,-62.78,0,4
15663.64,-0.192,1.1,0.332,-31.77,17.79,-58.84,0,4
15663.64,-0.223,1.073,0.319,-35.4,17.0,-53.62,0,4
15663.656,-0.244,1.021,0.31,-39.19,16.08,-47.94,0,4
15663.656,-0.235,0.97,0.305,-41.6,15.14,-44.1,0,4
15663.671,-0.184,0.944,0.308,-43.52,15.59,-43.0,0,4
15663.687,-0.189,0.917,0.319,-44.43,19.07,-43.79,0,4
15663.687,-0.227,0.884,0.338,-43.21,22.58,-45.23,0,4
15663.703,-0.251,0.881,0.359,-41.81,24.69,-45.93,0,4
15663.718,-0.285,0.877,0.372,-40.56,25.24,-46.69,0,4
15663.718,-0.294,0.866,0.375,-39.55,23.62,-47.12,0,4
15663.734,-0.296,0.866,0.376,-39.52,21.33,-47.7,0,4
15663.75,-0.264,0.882,0.371,-41.2,19.2,-48.31,0,4
15663.75,-0.254,0.914,0.372,-46.45,18.92,-48.68,0,4
15663.765,-0.283,0.916,0.369,-53.56,19.5,-48.71,0,4
15663.781,-0.306,0.909,0.377,-61.74,19.5,-47.33,0,4
15663.781,-0.349,0.884,0.38,-67.6,19.32,-45.35,0,4
15663.796,-0.394,0.837,0.378,-69.25,17.94,-43.73,0,4
15663.812,-0.37,0.816,0.372,-66.5,16.11,-42.91,0,4
15663.812,-0.322,0.842,0.375,-62.69,18.07,-43.34,0,4
15663.828,-0.3,0.863,0.387,-60.4,23.53,-44.5,0,4
15663.828,-0.309,0.847,0.402,-59.51,29.42,-45.29,0,4
15663.843,-0.333,0.844,0.427,-58.63,33.6,-45.05,0,4
15663.859,-0.366,0.839,0.439,-57.47,34.76,-44.16,0,4
15663.859,-0.404,0.841,0.445,-57.01,33.08,-43.89,0,4
15663.875,-0.415,0.859,0.449,-58.05,30.64,-44.04,0,4
15663.89,-0.441,0.855,0.453,-59.88,29.08,-43.52,0,4
15663.89,-0.456,0.85,0.454,-61.16,27.59,-41.44,0,4
15663.906,-0.436,0.866,0.449,-64.33,26.52,-38.18,0,4
15663.921,-0.436,0.84,0.443,-68.58,27.5,-34.7,0,4
15663.921,-0.439,0.809,0.444,-75.44,30.82,-29.6,0,4
15663.937,-0.443,0.774,0.449,-77.7,32.47,-28.69,0,4
15663.937,-0.434,0.752,0.447,-81.33,35.74,-28.38,0,4
15663.953,-0.441,0.749,0.474,-84.72,39.64,-29.54,0,4
15663.968,-0.467,0.739,0.503,-85.76,42.51,-30.15,0,4
15663.968,-0.473,0.752,0.532,-84.9,44.95,-29.82,0,4
15663.984,-0.457,0.763,0.563,-83.25,46.57,-29.11,0,4
15664.0,-0.441,0.766,0.59,-80.72,47.24,-28.11,0,4
15664.0,-0.429,0.765,0.607,-77.91,47.43,-26.55,0,4
15664.015,-0.427,0.761,0.62,-75.44,46.88,-25.15,0,4
15664.031,-0.433,0.772,0.627,-74.13,46.42,-24.26,0,4
15664.031,-0.44,0.772,0.639,-74.01,45.17,-23.04,0,4
15664.046,-0.451,0.782,0.636,-75.32,44.28,-21.18,0,4
15664.062,-0.505,0.755,0.638,-76.88,44.43,-18.04,0,4
15664.062,-0.548,0.719,0.644,-76.66,43.7,-15.72,0,4
15664.078,-0.543,0.69,0.644,-74.59,42.7,-13.92,0,4
15664.078,-0.566,0.652,0.637,-68.88,42.97,-12.67,0,4
15664.093,-0.561,0.609,0.629,-60.88,43.24,-11.96,0,4
15664.109,-0.544,0.58,0.626,-53.41,44.37,-11.9,0,4
15664.109,-0.539,0.572,0.617,-47.15,46.54,-12.85,0,4
15664.125,-0.541,0.571,0.611,-44.92,48.74,-14.16,0,4
15664.14,-0.565,0.555,0.616,-45.5,50.05,-15.5,0,4
15664.14,-0.603,0.548,0.617,-47.33,49.84,-16.05,0,4
15664.156,-0.626,0.554,0.614,-50.54,47.15,-16.72,0,4
15664.156,-0.641,0.57,0.61,-54.6,44.68,-17.27,0,4
15664.171,-0.631,0.606,0.608,-61.68,43.86,-17.06,0,4
15664.187,-0.652,0.591,0.608,-69.03,44.19,-15.59,0,4
15664.187,-0.65,0.549,0.612,-74.37,43.98,-12.09,0,4
15664.203,-0.615,0.501,0.624,-75.47,43.28,-8.64,0,4
15664.218,-0.596,0.444,0.628,-71.02,44.13,-6.93,0,4
15664.218,-0.59,0.42,0.624,-64.85,46.21,-7.39,0,4
15664.234,-0.589,0.418,0.622,-59.3,48.62,-10.32,0,4
15664.25,-0.582,0.442,0.634,-56.92,52.34,-14.13,0,4
15664.265,-0.611,0.466,0.644,-57.56,56.0,-17.0,0,4
15664.265,-0.649,0.474,0.659,-59.48,56.98,-18.04,0,4
15664.281,-0.65,0.494,0.672,-62.04,54.96,-16.72,0,4
15664.281,-0.65,0.492,0.678,-64.67,51.88,-14.31,0,4
15664.296,-0.669,0.463,0.677,-66.32,48.86,-11.38,0,4
15664.312,-0.662,0.439,0.676,-67.72,45.72,-9.19,0,4
15664.312,-0.663,0.402,0.659,-67.96,43.37,-8.18,0,4
15664.328,-0.659,0.377,0.635,-66.99,42.15,-7.35,0,4
15664.328,-0.642,0.372,0.615,-66.81,42.57,-7.39,0,4
15664.343,-0.662,0.361,0.587,-68.18,44.59,-8.33,0,4
15664.359,-0.687,0.366,0.564,-71.96,46.17,-9.09,0,4
15664.375,-0.69,0.368,0.562,-77.94,47.7,-8.39,0,4
15664.375,-0.691,0.339,0.568,-83.65,50.78,-6.16,0,4
15664.39,-0.701,0.312,0.57,-88.35,54.29,-4.03,0,4
15664.39,-0.714,0.27,0.577,-90.98,57.22,-2.9,0,4
15664.406,-0.729,0.233,0.58,-91.25,59.18,-2.75,0,4
15664.421,-0.74,0.226,0.578,-90.03,59.63,-4.43,0,4
15664.421,-0.74,0.242,0.578,-89.69,59.69,-7.2,0,4
15664.437,-0.755,0.27,0.569,-90.79,59.76,-9.86,0,4
15664.437,-0.767,0.302,0.559,-93.48,59.88,-10.62,0,4
15664.453,-0.767,0.324,0.554,-98.82,60.27,-9.0,0,4
15664.468,-0.782,0.324,0.546,-104.68,60.52,-6.56,0,4
15664.484,-0.794,0.316,0.532,-109.96,61.04,-3.2,0,4
15664.484,-0.8,0.318,0.507,-116.31,62.84,1.53,0,4
15664.5,-0.806,0.298,0.489,-124.76,65.4,6.29,0,4
15664.5,-0.812,0.273,0.488,-133.15,68.36,9.43,0,4
15664.515,-0.828,0.251,0.497,-139.35,71.23,11.54,0,4
15664.531,-0.841,0.193,0.525,-141.09,75.11,13.86,0,4
15664.531,-0.855,0.142,0.562,-138.07,80.63,16.72,0,4
15664.546,-0.855,0.107,0.593,-130.53,84.14,17.79,0,4
15664.562,-0.852,0.081,0.609,-120.3,86.12,15.9,0,4
15664.562,-0.876,0.077,0.615,-109.81,86.79,12.36,0,4
15664.578,-0.899,0.102,0.615,-100.99,84.35,9.46,0,4
15664.578,-0.917,0.132,0.606,-96.26,80.32,8.67,0,4
15664.593,-0.916,0.133,0.617,-95.92,76.17,10.25,0,4
15664.609,-0.908,0.112,0.64,-96.35,73.92,13.06,0,4
15664.609,-0.925,0.099,0.65,-96.41,70.99,15.23,0,4
15664.625,-0.917,0.075,0.645,-96.84,65.61,16.27,0,4
15664.64,-0.902,0.055,0.638,-96.04,60.98,16.69,0,4
15664.64,-0.9,0.047,0.632,-92.81,57.04,16.51,0,4
15664.656,-0.888,0.038,0.627,-87.62,53.25,15.96,0,4
15664.671,-0.875,0.034,0.633,-80.39,50.05,15.81,0,4
15664.671,-0.898,0.031,0.642,-69.4,48.8,17.15,0,4
15664.687,-0.93,0.054,0.646,-58.14,46.66,20.26,0,4
15664.687,-0.927,0.069,0.641,-50.26,42.66,23.32,0,4
15664.703,-0.911,0.081,0.619,-46.42,38.76,24.26,0,4
15664.718,-0.889,0.084,0.604,-46.72,34.88,23.32,0,4
15664.718,-0.882,0.073,0.597,-47.76,32.69,22.52,0,4
15664.734,-0.879,0.074,0.593,-47.88,31.46,22.28,0,4
15664.75,-0.871,0.07,0.593,-47.12,29.97,22.13,0,4
15664.765,-0.878,0.055,0.584,-44.86,28.38,22.13,0,4
15664.765,-0.897,0.055,0.571,-41.99,25.97,21.91,0,4
15664.781,-0.92,0.064,0.556,-39.06,22.22,20.97,0,4
15664.781,-0.905,0.066,0.544,-38.3,19.38,20.42,0,4
15664.796,-0.884,0.066,0.527,-40.53,19.04,20.08,0,4
15664.796,-0.879,0.052,0.506,-42.36,19.04,18.59,0,4
15664.812,-0.869,0.034,0.501,-41.96,18.92,17.27,0,4
15664.828,-0.861,0.016,0.495,-38.58,19.68,16.48,0,4
15664.828,-0.859,0.016,0.476,-32.93,21.15,15.32,0,4
15664.843,-0.878,0.029,0.453,-27.25,22.83,13.7,0,4
15664.859,-0.905,0.045,0.439,-23.13,24.02,12.24,0,4
15664.859,-0.91,0.056,0.417,-21.15,24.51,11.35,0,4
15664.875,-0.92,0.068,0.39,-21.0,24.93,10.47,0,4
15664.89,-0.931,0.088,0.356,-22.71,24.87,9.74,0,4
15664.89,-0.929,0.112,0.328,-27.62,24.99,10.25,0,4
15664.906,-0.933,0.12,0.306,-42.33,27.25,13.76,0,4
15664.906,-0.942,0.116,0.293,-49.2,29.02,15.56,0,4
15664.921,-0.95,0.096,0.289,-53.93,31.01,17.18,0,4
15664.937,-0.954,0.068,0.29,-55.76,33.2,18.52,0,4
15664.953,-0.946,0.034,0.295,-55.64,35.98,19.47,0,4
15664.953,-0.94,0.023,0.298,-54.63,38.97,19.78,0,4
15664.968,-0.939,0.014,0.3,-52.46,41.38,19.41,0,4
15664.968,-0.942,0.013,0.3,-50.42,42.97,18.95,0,4
15664.984,-0.943,0.006,0.303,-49.62,43.73,18.56,0,4
15665.0,-0.934,-0.005,0.306,-49.99,43.73,17.85,0,4
15665.0,-0.928,-0.002,0.32,-51.15,43.15,16.72,0,4
15665.015,-0.939,-0.003,0.335,-51.21,43.0,14.77,0,4
15665.031,-0.949,-0.003,0.349,-49.41,43.34,13.15,0,4
15665.031,-0.951,-0.013,0.363,-44.37,43.92,12.15,0,4
15665.046,-0.948,-0.024,0.371,-35.89,44.65,11.69,0,4
15665.046,-0.939,-0.032,0.371,-24.41,44.92,10.44,0,4
15665.062,-0.934,-0.036,0.365,-11.08,45.17,8.27,0,4
15665.078,-0.927,-0.022,0.35,0.89,46.14,5.89,0,4
15665.078,-0.936,0.014,0.327,9.16,48.43,2.96,0,4
15665.093,-0.955,0.039,0.312,12.73,50.97,0.52,0,4
15665.109,-0.957,0.044,0.3,12.6,53.8,-0.64,0,4
15665.109,-0.959,0.048,0.287,11.44,56.89,-1.16,0,4
15665.125,-0.957,0.046,0.266,10.41,59.91,-2.59,0,4
15665.14,-0.955,0.041,0.245,9.16,63.14,-4.49,0,4
15665.14,-0.974,0.044,0.235,8.45,66.9,-6.65,0,4
15665.156,-1.009,0.071,0.238,7.6,69.58,-7.9,0,4
15665.171,-1.019,0.089,0.241,4.03,70.71,-6.44,0,4
15665.171,-1.018,0.1,0.248,-2.29,72.24,-2.93,0,4
15665.187,-1.01,0.104,0.254,-11.63,73.49,0.31,0,4
15665.187,-0.998,0.089,0.26,-22.25,73.21,1.34,0,4
15665.203,-0.997,0.077,0.257,-32.93,71.47,0.82,0,4
15665.218,-1.0,0.074,0.25,-44.68,67.87,-0.46,0,4
15665.234,-0.996,0.078,0.234,-57.25,63.63,-2.72,0,4
15665.234,-1.005,0.089,0.211,-70.19,60.0,-5.31,0,4
15665.25,-1.031,0.097,0.196,-82.28,58.75,-7.78,0,4
15665.25,-1.041,0.073,0.201,-92.2,58.87,-9.13,0,4
