timestamp,ax,ay,az,gx,gy,gz,orient_label,motion_label
15665.265,-1.033,0.026,0.205,-97.6,56.55,-9.09,0,4
15665.281,-1.025,-0.02,0.196,-96.84,53.59,-8.27,0,4
15665.281,-1.018,-0.046,0.194,-92.35,51.0,-7.35,0,4
15665.296,-1.007,-0.053,0.197,-86.06,47.21,-7.05,0,4
15665.296,-1.006,-0.044,0.188,-79.47,42.18,-8.15,0,4
15665.312,-1.014,-0.042,0.192,-72.15,38.0,-9.86,0,4
15665.328,-0.935,-0.184,0.437,-57.71,35.74,-12.88,0,4
15665.343,-1.068,-0.445,0.556,-4.39,37.6,-20.26,0,4
15665.343,-1.142,-0.269,0.306,43.67,27.13,-13.61,0,4
15665.359,-1.05,0.011,0.114,49.9,4.21,-8.73,0,4
15665.359,-0.993,0.005,0.044,34.39,-8.33,-7.6,0,4
15665.375,-0.991,-0.037,0.07,11.6,-14.8,-8.55,0,4
15665.39,-0.979,-0.069,0.068,4.43,-18.92,-10.62,0,4
15665.406,-0.96,-0.084,0.038,10.56,-16.69,-10.44,0,4
15665.406,-0.95,-0.066,0.013,20.11,-10.56,-8.88,0,4
15665.406,-0.945,-0.035,-0.005,31.04,-3.48,-9.25,0,4
15665.421,-0.94,-0.008,-0.028,41.02,3.48,-9.98,0,4
15665.437,-0.955,0.005,-0.045,47.85,11.47,-9.37,0,4
15665.437,-0.972,0.015,-0.059,49.41,18.4,-8.15,0,4
15665.453,-0.972,0.022,-0.073,41.9,21.73,-6.62,0,4
15665.468,-0.967,-0.017,-0.041,27.28,21.76,-7.05,0,4
15665.468,-0.974,-0.087,0.017,13.43,20.72,-9.55,0,4
15665.484,-0.987,-0.144,0.092,6.65,18.74,-12.63,0,4
15665.5,-0.992,-0.167,0.125,11.69,16.17,-14.92,0,4
15665.5,-1.003,-0.125,0.109,21.94,13.46,-14.98,0,4
15665.515,-1.002,-0.061,0.063,28.96,10.44,-13.89,0,4
15665.531,-1.0,-0.016,0.029,29.36,8.45,-13.31,0,4
15665.531,-0.997,0.001,0.018,26.49,7.66,-13.34,0,4
15665.546,-0.995,0.007,0.011,25.7,7.54,-13.67,0,4
15665.546,-0.993,0.03,-0.003,27.16,7.87,-13.34,0,4
15665.562,-0.985,0.053,-0.015,26.46,8.51,-11.69,0,4
15665.578,-0.976,0.065,-0.006,23.13,9.74,-9.83,0,4
15665.578,-0.976,0.063,0.014,19.75,11.69,-8.61,0,4
15665.593,-0.981,0.055,0.027,17.52,13.76,-7.81,0,4
15665.609,-0.983,0.061,0.037,14.77,14.4,-6.93,0,4
15665.609,-0.991,0.063,0.045,10.9,13.7,-5.95,0,4
15665.625,-0.998,0.054,0.062,6.62,11.57,-4.0,0,4
15665.64,-1.006,0.034,0.073,3.2,8.09,-1.59,0,4
15665.64,-1.01,0.017,0.07,0.61,3.33,1.13,0,4
15665.656,-1.006,0.01,0.063,-2.44,-1.86,3.39,0,4
15665.656,-0.999,-0.002,0.05,-5.49,-6.23,5.07,0,4
15665.671,-0.992,-0.007,0.035,-8.51,-10.04,5.74,0,4
15665.687,-0.987,-0.011,0.016,-10.28,-12.51,5.25,0,4
15665.687,-0.987,-0.012,0.002,-11.08,-13.49,4.49,0,4
15665.703,-0.987,-0.016,-0.003,-10.71,-13.76,4.09,0,4
15665.718,-0.984,-0.023,-0.013,-8.88,-12.88,3.63,0,4
15665.718,-0.979,-0.031,-0.023,-7.23,-11.87,3.33,0,4
15665.734,-0.97,-0.034,-0.026,-6.1,-9.7,2.93,0,4
15665.75,-0.97,-0.036,-0.022,-5.34,-6.71,2.26,0,4
15665.75,-0.971,-0.034,-0.018,-5.25,-3.63,1.71,0,4
15665.765,-0.97,-0.027,-0.008,-5.52,-1.46,1.13,0,4
15665.781,-0.98,-0.024,0.003,-5.65,-0.15,0.55,0,4
15665.781,-0.985,-0.027,0.015,-5.98,-0.37,0.64,0,4
15665.796,-0.986,-0.031,0.03,-6.07,-1.31,1.01,0,4
15665.812,-0.994,-0.042,0.04,-5.16,-2.14,1.43,0,4
15665.812,-0.989,-0.047,0.036,-3.45,-3.57,1.74,0,4
15665.828,-0.981,-0.032,0.024,-2.75,-4.85,1.37,0,4
15665.828,-0.98,-0.026,0.023,-3.2,-5.95,0.61,0,4
15665.843,-0.98,-0.018,0.023,-3.91,-6.23,0.21,0,4
15665.859,-0.983,-0.004,0.022,-4.79,-5.83,0.06,0,4
15665.859,-0.99,-0.002,0.026,-5.28,-5.19,0.18,0,4
15665.875,-0.986,0.001,0.04,-5.68,-4.24,0.55,0,4
15665.89,-0.977,0.004,0.045,-5.37,-2.66,1.46,0,4
15665.89,-0.978,-0.001,0.052,-5.65,-2.38,2.59,0,4
15665.906,-0.973,-0.001,0.061,-6.04,-2.56,3.63,0,4
15665.921,-0.971,0.009,0.071,-6.96,-3.33,3.94,0,4
15665.921,-0.998,0.008,0.082,-8.06,-5.01,4.0,0,4
15665.937,-1.003,0.006,0.08,-8.61,-7.78,4.27,0,4
15665.937,-1.006,0.003,0.082,-7.69,-10.96,4.39,0,4
15665.953,-1.017,-0.008,0.079,-4.7,-13.82,4.46,0,4
15665.968,-1.006,-0.023,0.086,-0.46,-15.81,5.58,0,4
15665.968,-0.998,-0.024,0.08,5.28,-16.6,6.56,0,4
15665.984,-0.995,-0.031,0.067,11.75,-16.21,7.32,0,4
15666.0,-0.988,-0.036,0.06,18.8,-14.92,8.15,0,4
15666.0,-0.979,-0.022,0.049,25.85,-13.31,8.58,0,4
15666.015,-0.969,-0.005,0.034,31.83,-11.81,8.61,0,4
15666.031,-0.966,0.007,0.025,36.65,-10.07,8.12,0,4
15666.031,-0.965,0.028,0.013,40.28,-8.03,7.81,0,4
15666.046,-0.966,0.042,0.013,42.73,-5.65,8.12,0,4
15666.062,-0.973,0.017,0.022,45.26,-2.75,9.95,0,4
15666.062,-0.966,-0.006,0.024,48.31,0.06,12.51,0,4
15666.078,-0.955,0.0,0.013,50.81,2.01,13.34,0,4
15666.078,-0.958,0.005,0.005,50.9,3.02,12.12,0,4
15666.093,-0.965,0.019,-0.003,47.73,2.75,10.16,0,4
15666.109,-0.97,0.043,-0.018,42.76,1.74,8.03,0,4
15666.125,-0.977,0.064,-0.033,36.77,0.61,5.89,0,4
15666.125,-0.976,0.08,-0.044,30.85,-0.64,4.43,0,4
15666.14,-0.978,0.097,-0.046,25.67,-0.89,4.06,0,4
15666.14,-0.986,0.099,-0.046,21.39,0.12,5.43,0,4
15666.156,-0.988,0.089,-0.038,17.85,1.59,7.97,0,4
15666.156,-0.981,0.082,-0.035,15.59,3.45,9.95,0,4
15666.171,-0.985,0.083,-0.031,13.86,5.62,10.86,0,4
15666.187,-0.988,0.077,-0.023,11.84,7.54,11.11,0,4
15666.187,-0.99,0.073,-0.011,9.52,8.91,11.23,0,4
15666.203,-0.99,0.063,-0.003,7.42,9.61,11.54,0,4
15666.218,-0.989,0.059,-0.003,5.65,9.46,11.63,0,4
15666.218,-0.985,0.059,-0.003,4.15,9.0,11.41,0,4
15666.234,-0.982,0.053,-0.002,3.08,8.82,11.26,0,4
15666.25,-0.979,0.049,-0.002,2.35,8.85,11.29,0,4
15666.25,-0.979,0.043,-0.001,2.29,8.97,11.44,0,4
15666.265,-0.984,0.042,0.001,3.23,9.4,11.51,0,4
15666.281,-0.984,0.043,0.005,4.33,10.19,11.93,0,4
15666.296,-0.994,0.057,0.017,6.47,11.2,12.3,0,4
15666.296,-1.002,0.045,0.023,7.57,11.02,12.76,0,4
15666.312,-0.999,0.025,0.028,8.27,10.59,13.79,0,4
15666.328,-0.991,0.012,0.034,9.46,9.61,13.98,0,4
15666.328,-0.985,0.005,0.037,11.26,8.76,12.73,0,4
15666.343,-0.986,0.011,0.033,13.0,7.9,10.86,0,4
15666.359,-0.992,0.026,0.031,13.67,6.99,9.19,0,4
15666.359,-0.995,0.032,0.031,13.7,6.23,8.33,0,4
15666.375,-0.995,0.031,0.028,13.46,5.58,8.15,0,4
15666.39,-0.998,0.038,0.021,13.52,4.55,7.57,0,4
15666.39,-1.002,0.044,0.018,13.95,3.57,6.65,0,4
15666.406,-1.001,0.04,0.022,14.92,3.36,6.74,0,4
15666.406,-0.998,0.037,0.022,16.42,3.72,7.63,0,4
15666.421,-0.992,0.039,0.018,17.73,4.06,7.97,0,4
15666.437,-0.986,0.04,0.017,18.4,4.58,7.69,0,4
15666.437,-0.986,0.045,0.017,18.25,4.7,6.93,0,4
15666.468,-0.986,0.063,0.011,15.44,4.03,5.46,0,4
15666.468,-0.98,0.046,0.015,13.0,4.03,5.65,0,4
15666.484,-0.974,0.031,0.017,11.2,3.75,5.74,0,4
15666.5,-0.971,0.025,0.013,10.04,3.23,4.61,0,4
15666.5,-0.971,0.026,0.016,8.94,2.62,2.9,0,4
15666.515,-0.974,0.03,0.016,7.78,2.23,1.31,0,4
15666.515,-0.977,0.039,0.011,6.47,2.04,-0.18,0,4
15666.531,-0.98,0.042,0.01,5.13,1.95,-1.71,0,4
15666.546,-0.984,0.04,0.01,3.94,1.8,-3.14,0,4
15666.546,-0.985,0.047,0.008,2.96,1.53,-4.21,0,4
15666.562,-0.983,0.058,0.006,2.17,0.98,-5.49,0,4
15666.578,-0.986,0.061,0.005,2.01,0.31,-6.56,0,4
15666.578,-0.986,0.062,0.001,2.08,-0.49,-6.9,0,4
15666.593,-0.983,0.07,-0.004,2.17,-1.1,-6.81,0,4
15666.609,-0.981,0.075,-0.009,2.04,-1.28,-6.87,0,4
15666.609,-0.982,0.075,-0.011,1.74,-1.43,-7.08,0,4
15666.64,-0.984,0.067,-0.013,1.04,-1.04,-7.48,0,4
15666.64,-0.984,0.067,-0.018,0.64,-1.16,-7.9,0,4
15666.656,-0.985,0.067,-0.019,0.09,-1.37,-8.36,0,4
15666.671,-0.984,0.07,-0.022,-0.55,-1.34,-8.64,0,4
15666.671,-0.985,0.074,-0.024,-1.1,-1.19,-8.79,0,4
15666.687,-0.983,0.074,-0.023,-1.68,-0.92,-8.7,0,4
15666.687,-0.984,0.071,-0.022,-2.04,-0.61,-8.51,0,4
15666.703,-0.985,0.072,-0.023,-2.01,-0.52,-8.24,0,4
15666.718,-0.982,0.073,-0.022,-2.08,-0.46,-7.81,0,4
15666.718,-0.981,0.075,-0.022,-2.32,-0.37,-7.35,0,4
15666.734,-0.981,0.075,-0.025,-2.38,-0.37,-7.11,0,4
15666.75,-0.985,0.076,-0.023,-2.59,-0.43,-6.84,0,4
15666.75,-0.983,0.075,-0.024,-3.14,-0.52,-6.47,0,4
15666.765,-0.982,0.075,-0.024,-3.48,-0.67,-6.01,0,4
15666.781,-0.982,0.077,-0.026,-3.45,-1.07,-5.65,0,4
15666.781,-0.985,0.078,-0.027,-3.63,-1.37,-5.37,0,4
15666.796,-0.977,0.076,-0.028,-4.06,-1.04,-3.36,0,4
15666.812,-0.975,0.068,-0.024,-3.78,-0.37,-2.26,0,4
15666.828,-0.977,0.062,-0.024,-2.99,-0.12,-2.01,0,4
15666.828,-0.981,0.062,-0.027,-2.38,-0.34,-2.2,0,4
15666.843,-0.983,0.066,-0.025,-1.92,-0.46,-2.11,0,4
15666.859,-0.982,0.068,-0.028,-1.77,-0.73,-1.98,0,4
15666.859,-0.98,0.072,-0.03,-2.17,-0.95,-2.11,0,4
15666.875,-0.979,0.077,-0.033,-3.51,-1.07,-2.14,0,4
15666.89,-0.982,0.078,-0.032,-3.88,-0.85,-1.56,0,4
15666.89,-0.979,0.077,-0.032,-3.94,-0.52,-1.04,0,4
15666.906,-0.977,0.082,-0.037,-3.78,-0.09,-0.85,0,4
15666.906,-0.983,0.087,-0.033,-4.0,0.46,-0.27,0,4
15666.921,-0.985,0.09,-0.033,-4.24,0.98,0.46,0,4
15666.937,-0.982,0.09,-0.03,-4.7,1.4,1.13,0,4
15666.937,-0.985,0.087,-0.029,-5.19,1.62,1.5,0,4
15666.953,-0.99,0.09,-0.025,-5.8,1.56,1.92,0,4
15666.968,-0.986,0.083,-0.02,-6.23,1.19,2.93,0,4
15666.968,-0.98,0.075,-0.017,-6.59,0.85,3.97,0,4
15666.984,-0.978,0.067,-0.016,-6.35,0.67,4.33,0,4
15667.0,-0.979,0.061,-0.012,-6.26,0.18,4.09,0,4
15667.0,-0.982,0.058,-0.009,-5.62,-0.21,3.81,0,4
15667.015,-0.982,0.059,-0.014,-4.64,-0.58,3.66,0,4
15667.015,-0.986,0.061,-0.015,-3.94,-0.89,3.75,0,4
15667.031,-0.988,0.062,-0.017,-3.57,-0.95,3.85,0,4
15667.046,-0.984,0.065,-0.02,-3.51,-1.04,4.03,0,4
15667.046,-0.979,0.059,-0.02,-3.42,-0.55,4.36,0,4
15667.062,-0.982,0.056,-0.02,-3.33,0.09,4.49,0,4
15667.078,-0.983,0.058,-0.018,-3.36,0.37,4.27,0,4
15667.078,-0.986,0.06,-0.015,-3.6,0.49,3.91,0,4
15667.093,-0.986,0.059,-0.013,-4.12,0.58,3.75,0,4
15667.109,-0.987,0.055,-0.011,-4.79,0.61,3.97,0,4
15667.109,-0.988,0.047,-0.01,-5.1,0.34,4.27,0,4
15667.125,-0.989,0.041,-0.014,-5.01,0.03,4.36,0,4
15667.14,-0.987,0.039,-0.023,-4.88,-0.49,4.03,0,4
15667.14,-0.983,0.042,-0.037,-5.83,-0.89,3.39,0,4
15667.156,-0.979,0.046,-0.044,-8.73,-0.64,2.5,0,4
15667.156,-0.975,0.045,-0.048,-13.28,0.49,1.5,0,4
15667.171,-0.977,0.048,-0.044,-18.74,2.11,0.0,0,4
15667.187,-0.981,0.049,-0.033,-23.9,3.69,-1.4,0,4
15667.203,-0.985,0.046,-0.013,-27.5,4.58,-2.14,0,4
15667.203,-0.991,0.042,0.003,-28.38,4.58,-2.5,0,4
15667.218,-0.994,0.043,0.016,-27.01,3.78,-2.04,0,4
15667.218,-0.99,0.046,0.022,-24.17,2.5,-1.22,0,4
15667.234,-0.983,0.043,0.028,-20.39,1.1,-0.15,0,4
15667.25,-0.982,0.035,0.031,-15.69,-0.09,0.73,0,4
15667.25,-0.98,0.037,0.029,-10.9,-1.53,1.5,0,4
15667.265,-0.978,0.042,0.021,-6.23,-2.72,2.29,0,4
15667.281,-0.981,0.044,0.011,-2.32,-3.48,3.02,0,4
15667.312,-0.981,0.051,0.001,0.52,-3.94,3.69,0,4
15667.312,-0.976,0.052,-0.007,2.66,-3.85,4.06,0,4
15667.312,-0.976,0.052,-0.012,4.61,-3.72,4.03,0,4
15667.312,-0.976,0.057,-0.018,6.29,-3.75,3.63,0,4
15667.328,-0.977,0.067,-0.022,7.32,-3.85,3.17,0,4
15667.328,-0.977,0.073,-0.026,7.63,-3.91,3.08,0,4
15667.343,-0.981,0.079,-0.028,7.2,-3.81,3.14,0,4
15667.359,-0.98,0.083,-0.032,6.71,-3.66,3.45,0,4
15667.359,-0.98,0.083,-0.029,6.29,-3.36,3.88,0,4
15667.375,-0.982,0.08,-0.026,6.62,-2.99,4.43,0,4
15667.39,-0.983,0.078,-0.024,7.51,-2.69,4.85,0,4
15667.39,-0.987,0.081,-0.022,8.55,-2.56,4.85,0,4
15667.406,-0.989,0.087,-0.019,9.52,-2.56,4.91,0,4
15667.406,-0.987,0.096,-0.018,9.52,-2.53,4.88,0,4
15667.421,-0.99,0.102,-0.015,8.97,-2.96,4.88,0,4
15667.437,-0.996,0.105,-0.014,8.36,-3.63,4.97,0,4
15667.437,-0.998,0.116,-0.01,7.66,-4.58,5.52,0,4
15667.453,-1.001,0.124,-0.007,7.2,-5.34,6.56,0,4
15667.468,-1.002,0.133,-0.002,6.93,-6.13,8.18,0,4
15667.468,-1.006,0.134,0.006,6.81,-7.2,9.67,0,4
15667.5,-1.003,0.127,0.014,8.03,-10.25,12.54,0,4
15667.5,-0.998,0.117,0.014,9.4,-11.57,13.82,0,4
15667.515,-0.989,0.115,0.012,11.11,-12.36,14.37,0,4
15667.531,-0.986,0.116,0.009,12.48,-12.73,14.37,0,4
15667.531,-0.98,0.121,0.01,12.94,-12.88,14.25,0,4
15667.546,-0.98,0.124,0.004,12.45,-12.91,14.04,0,4
15667.546,-0.974,0.124,0.0,11.26,-12.51,14.16,0,4
15667.562,-0.966,0.124,0.001,9.98,-11.44,14.31,0,4
15667.578,-0.967,0.124,0.002,8.94,-9.67,14.13,0,4
15667.578,-0.967,0.121,0.001,7.78,-8.06,13.98,0,4
15667.593,-0.965,0.116,0.004,7.05,-6.47,13.76,0,4
15667.609,-0.966,0.107,0.007,6.99,-4.88,13.67,0,4
15667.609,-0.964,0.102,0.01,7.2,-3.94,13.52,0,4
15667.625,-0.963,0.105,0.009,7.42,-2.99,13.12,0,4
15667.64,-0.96,0.105,0.009,7.42,-2.26,12.67,0,4
15667.64,-0.965,0.106,0.012,7.02,-1.92,12.18,0,4
15667.671,-0.969,0.109,0.009,6.32,-2.78,11.41,0,4
15667.671,-0.968,0.108,0.006,6.04,-3.51,10.96,0,4
15667.687,-0.969,0.107,0.002,6.26,-4.03,10.68,0,4
15667.687,-0.963,0.103,-0.002,6.81,-4.15,10.47,0,4
15667.703,-0.957,0.099,-0.009,7.54,-3.78,10.22,0,4
15667.718,-0.955,0.102,-0.012,7.81,-2.99,9.49,0,4
15667.718,-0.95,0.103,-0.015,7.63,-2.26,8.55,0,4
15667.734,-0.951,0.106,-0.017,7.05,-1.74,7.6,0,4
15667.75,-0.955,0.109,-0.02,5.86,-1.22,6.78,0,4
15667.765,-0.957,0.115,-0.021,4.43,-0.95,5.74,0,4
15667.765,-0.96,0.118,-0.019,3.33,-0.82,4.94,0,4
15667.765,-0.962,0.117,-0.019,2.93,-0.76,4.61,0,4
15667.781,-0.961,0.12,-0.021,2.72,-0.58,4.43,0,4
15667.796,-0.961,0.121,-0.023,2.66,-0.43,4.39,0,4
15667.796,-0.961,0.12,-0.025,2.44,-0.27,4.18,0,4
15667.812,-0.959,0.12,-0.024,2.14,0.18,4.12,0,4
15667.828,-0.961,0.116,-0.025,0.79,1.59,3.57,0,4
15667.843,-0.962,0.113,-0.021,-0.27,2.41,2.69,0,4
15667.859,-0.966,0.114,-0.019,-2.38,3.02,0.55,0,4
15667.875,-0.97,0.118,-0.017,-3.3,2.66,-0.21,0,4
15667.875,-0.971,0.121,-0.024,-4.36,2.38,-0.95,0,4
15667.89,-0.972,0.125,-0.029,-6.13,2.47,-1.5,0,4
15667.89,-0.965,0.13,-0.037,-8.67,3.36,-1.92,0,4
15667.906,-0.962,0.13,-0.035,-11.47,4.82,-2.66,0,4
15667.906,-0.964,0.13,-0.024,-14.47,6.29,-3.72,0,4
15667.921,-0.97,0.13,-0.01,-17.15,7.48,-4.85,0,4
15667.937,-0.977,0.133,0.003,-18.8,7.84,-5.49,0,4
15667.937,-0.98,0.14,0.014,-19.99,7.6,-5.52,0,4
15667.953,-0.978,0.144,0.025,-20.51,6.87,-5.13,0,4
15667.968,-0.976,0.135,0.028,-19.93,5.74,-4.76,0,4
15667.968,-0.976,0.138,0.033,-18.92,4.3,-4.52,0,4
15667.984,-0.971,0.141,0.033,-16.66,3.08,-3.88,0,4
15668.0,-0.974,0.141,0.031,-10.74,2.44,-2.87,0,4
15668.015,-0.981,0.142,0.036,-7.39,2.01,-2.5,0,4
15668.031,-0.983,0.15,0.027,-4.43,1.77,-2.08,0,4
15668.031,-0.981,0.157,0.032,-1.74,2.41,-1.34,0,4
15668.046,-0.987,0.154,0.035,1.31,2.32,-0.7,0,4
15668.046,-0.986,0.161,0.031,3.27,1.92,-0.06,0,4
15668.062,-0.986,0.168,0.028,3.45,1.19,0.34,0,4
15668.078,-0.989,0.165,0.023,2.23,0.12,0.61,0,4
15668.078,-0.988,0.161,0.024,0.27,-0.92,0.89,0,4
15668.093,-0.989,0.158,0.023,-1.68,-1.98,1.01,0,4
15668.109,-0.987,0.152,0.021,-3.11,-2.9,0.95,0,4
15668.109,-0.988,0.148,0.021,-3.45,-3.42,1.13,0,4
15668.125,-0.988,0.146,0.017,-2.99,-3.85,1.43,0,4
15668.14,-0.983,0.145,0.014,-1.98,-4.06,1.25,0,4
15668.14,-0.979,0.148,0.01,-0.34,-3.75,1.34,0,4
15668.156,-0.975,0.15,0.005,0.76,-3.23,1.86,0,4
15668.156,-0.973,0.151,0.001,1.28,-2.75,2.2,0,4
15668.171,-0.978,0.151,-0.0,1.25,-2.47,2.23,0,4
15668.187,-0.978,0.146,0.002,0.92,-2.59,2.2,0,4
15668.187,-0.981,0.145,0.002,0.55,-2.99,2.26,0,4
15668.203,-0.982,0.147,0.002,0.43,-3.48,2.44,0,4
15668.218,-0.983,0.144,0.003,0.43,-3.91,2.62,0,4
15668.218,-0.98,0.143,0.001,0.73,-4.43,2.87,0,4
15668.234,-0.98,0.144,0.0,1.28,-4.64,3.2,0,4
15668.25,-0.981,0.144,0.0,1.98,-4.73,3.45,0,4
15668.25,-0.978,0.146,0.0,2.72,-5.04,3.94,0,4
15668.265,-0.974,0.147,-0.003,3.17,-4.91,4.21,0,4
15668.281,-0.973,0.144,-0.006,3.57,-4.64,4.64,0,4
15668.281,-0.974,0.141,-0.008,3.91,-4.43,4.97,0,4
15668.296,-0.972,0.142,-0.01,3.81,-3.97,5.07,0,4
15668.296,-0.97,0.146,-0.012,3.17,-3.63,4.82,0,4
15668.312,-0.975,0.151,-0.012,1.89,-3.3,4.52,0,4
15668.328,-0.979,0.15,-0.008,0.06,-3.08,4.36,0,4
15668.328,-0.976,0.153,-0.004,-1.4,-3.08,4.36,0,4
15668.343,-0.978,0.155,0.002,-2.44,-3.23,4.58,0,4
15668.359,-0.981,0.157,0.01,-2.84,-3.75,5.25,0,4
15668.359,-0.983,0.16,0.016,-2.59,-4.58,6.13,0,4
15668.375,-0.984,0.163,0.019,-2.17,-5.55,6.99,0,4
15668.39,-0.984,0.168,0.02,-2.04,-6.44,7.75,0,4
15668.39,-0.981,0.168,0.021,-2.17,-7.42,8.15,0,4
15668.406,-0.982,0.167,0.019,-1.68,-8.03,8.64,0,4
15668.406,-0.978,0.172,0.014,-1.04,-8.3,9.28,0,4
15668.421,-0.973,0.175,0.012,-0.06,-8.09,9.8,0,4
15668.437,-0.973,0.18,0.007,0.43,-7.54,10.38,0,4
15668.453,-0.975,0.181,0.004,0.89,-6.96,10.83,0,4
15668.453,-0.97,0.18,0.005,0.85,-6.62,11.32,0,4
15668.468,-0.964,0.176,0.007,1.04,-6.35,11.84,0,4
15668.468,-0.961,0.17,0.003,1.74,-5.68,12.15,0,4
15668.484,-0.955,0.17,0.0,2.23,-4.73,11.87,0,4
15668.5,-0.951,0.168,-0.0,2.62,-3.94,11.69,0,4
15668.5,-0.949,0.169,0.002,2.38,-2.93,11.38,0,4
15668.515,-0.951,0.168,0.004,1.71,-2.35,10.86,0,4
15668.531,-0.951,0.165,0.008,1.04,-2.17,10.22,0,4
15668.531,-0.949,0.164,0.008,0.52,-2.08,9.37,0,4
15668.546,-0.949,0.162,0.006,0.12,-2.01,8.12,0,4
15668.546,-0.947,0.16,0.009,0.12,-1.92,7.11,0,4
15668.562,-0.944,0.159,0.009,0.34,-1.74,6.23,0,4
15668.578,-0.941,0.161,0.008,0.7,-1.77,5.28,0,4
15668.578,-0.937,0.161,0.008,0.89,-1.74,4.58,0,4
15668.593,-0.938,0.161,0.006,0.79,-1.5,3.63,0,4
15668.609,-0.942,0.163,0.008,0.7,-1.4,2.62,0,4
15668.609,-0.951,0.167,0.008,0.58,-1.4,1.65,0,4
15668.625,-0.958,0.173,0.007,0.31,-1.62,1.01,0,4
15668.64,-0.961,0.177,0.008,0.03,-2.08,0.79,0,4
15668.64,-0.964,0.185,0.011,-0.31,-2.9,0.76,0,4
15668.656,-0.958,0.177,-0.003,1.22,-2.62,1.13,0,4
15668.656,-0.968,0.186,0.002,1.53,-2.35,1.1,0,4
15668.671,-0.962,0.2,0.004,1.37,-2.56,1.68,0,4
15668.687,-0.975,0.197,0.007,0.58,-1.77,2.38,0,4
15668.703,-0.974,0.202,0.014,-0.85,-1.8,2.75,0,4
15668.718,-0.981,0.198,0.023,-1.56,-1.56,2.93,0,4
15668.718,-0.987,0.203,0.031,-2.5,-1.71,3.39,0,4
15668.734,-0.996,0.22,0.04,-4.03,-2.23,3.91,0,4
15668.75,-1.0,0.232,0.052,-5.55,-3.27,4.76,0,4
15668.75,-1.005,0.246,0.065,-7.02,-4.55,6.53,0,4
15668.765,-1.006,0.252,0.083,-7.6,-7.05,9.06,0,4
15668.781,-1.008,0.261,0.098,-7.63,-10.96,11.63,0,4
15668.781,-0.997,0.266,0.103,-6.16,-15.14,14.28,0,4
15668.796,-0.998,0.253,0.105,-3.45,-18.71,16.36,0,4
15668.812,-0.99,0.262,0.103,-0.67,-21.58,18.56,0,4
15668.812,-0.983,0.269,0.089,3.05,-22.92,20.78,0,4
15668.828,-0.975,0.257,0.094,6.07,-23.53,22.55,0,4
15668.828,-0.97,0.259,0.069,9.37,-21.45,23.53,0,4
15668.843,-0.973,0.259,0.085,10.65,-21.76,23.56,0,4
15668.875,-0.959,0.262,0.053,8.3,-18.62,24.69,0,4
15668.875,-0.943,0.239,0.059,8.06,-17.61,24.45,0,4
15668.89,-0.936,0.24,0.055,7.08,-15.56,24.41,0,4
15668.89,-0.932,0.232,0.053,6.44,-13.52,23.65,0,4
15668.906,-0.928,0.219,0.052,6.35,-11.84,22.16,0,4
15668.906,-0.923,0.217,0.047,6.38,-10.65,20.48,0,4
15668.921,-0.92,0.215,0.045,6.13,-9.25,18.59,0,4
15668.937,-0.916,0.21,0.046,5.49,-7.75,16.66,0,4
15668.937,-0.913,0.207,0.046,4.58,-6.65,14.89,0,4
15668.953,-0.914,0.206,0.045,3.42,-5.55,13.09,0,4
15668.968,-0.909,0.203,0.046,2.08,-4.67,10.93,0,4
15668.968,-0.904,0.201,0.047,0.61,-4.09,8.7,0,4
15668.984,-0.904,0.199,0.049,-0.49,-3.72,6.53,0,4
15669.0,-0.909,0.2,0.051,-1.5,-3.57,4.36,0,4
15669.0,-0.909,0.201,0.052,-2.32,-3.57,2.81,0,4
15669.015,-0.909,0.2,0.053,-3.08,-3.36,1.31,0,4
15669.031,-0.92,0.205,0.057,-3.48,-2.84,-2.23,0,4
15669.046,-0.922,0.208,0.055,-3.08,-2.81,-3.97,0,4
15669.046,-0.923,0.215,0.056,-2.66,-2.53,-5.4,0,4
15669.062,-0.927,0.222,0.052,-2.04,-2.29,-6.53,0,4
15669.078,-0.931,0.227,0.051,-1.83,-1.92,-7.02,0,4
15669.078,-0.934,0.232,0.049,-1.83,-1.59,-7.35,0,4
15669.093,-0.936,0.234,0.047,-2.04,-1.16,-7.75,0,4
15669.109,-0.943,0.235,0.049,-2.66,-0.82,-8.24,0,4
15669.109,-0.947,0.236,0.05,-3.36,-0.64,-8.88,0,4
15669.125,-0.947,0.237,0.051,-4.3,-0.34,-9.34,0,4
15669.14,-0.948,0.24,0.052,-5.01,-0.03,-9.58,0,4
15669.14,-0.95,0.241,0.054,-5.37,0.4,-9.61,0,4
15669.156,-0.951,0.238,0.059,-5.4,0.79,-9.58,0,4
15669.156,-0.951,0.238,0.063,-5.1,1.25,-9.74,0,4
15669.171,-0.954,0.238,0.065,-4.49,1.5,-9.67,0,4
15669.187,-0.954,0.238,0.069,-3.94,1.53,-9.55,0,4
15669.187,-0.954,0.237,0.073,-3.3,1.43,-9.64,0,4
15669.203,-0.957,0.238,0.071,-2.59,1.19,-9.55,0,4
15669.218,-0.959,0.242,0.073,-2.08,1.07,-9.31,0,4
15669.234,-0.96,0.242,0.074,-1.92,1.01,-9.09,0,4
15669.234,-0.958,0.245,0.075,-2.08,1.1,-8.94,0,4
15669.25,-0.959,0.248,0.075,-2.17,1.19,-8.91,0,4
15669.25,-0.959,0.25,0.079,-2.14,1.56,-8.73,0,4
15669.265,-0.96,0.252,0.079,-2.11,1.71,-8.48,0,4
15669.281,-0.962,0.251,0.083,-2.01,1.89,-7.66,0,4
15669.281,-0.963,0.25,0.086,-1.92,1.86,-7.05,0,4
15669.296,-0.96,0.251,0.09,-1.68,1.77,-6.84,0,4
15669.296,-0.961,0.253,0.093,-1.62,1.56,-6.81,0,4
15669.312,-0.959,0.252,0.092,-1.43,1.25,-6.71,0,4
15669.328,-0.956,0.254,0.092,-1.04,0.98,-6.35,0,4
15669.343,-0.954,0.254,0.091,-0.61,0.89,-6.04,0,4
15669.343,-0.95,0.256,0.093,-0.4,0.67,-5.71,0,4
15669.359,-0.951,0.256,0.094,-0.34,0.34,-5.37,0,4
15669.359,-0.951,0.255,0.095,-0.46,0.0,-5.07,0,4
15669.375,-0.948,0.254,0.096,-0.46,-0.49,-4.97,0,4
15669.39,-0.95,0.255,0.095,-0.21,-0.85,-4.85,0,4
15669.39,-0.951,0.256,0.098,0.09,-1.28,-4.64,0,4
15669.406,-0.951,0.262,0.098,0.55,-1.59,-4.06,0,4
15669.406,-0.958,0.262,0.097,0.82,-1.86,-3.33,0,4
15669.421,-0.962,0.256,0.096,1.95,-2.53,-2.44,0,4
15669.437,-0.962,0.257,0.088,3.48,-3.33,-1.37,0,4
15669.453,-0.961,0.257,0.079,4.64,-3.97,-0.18,0,4
15669.453,-0.959,0.254,0.068,5.25,-4.27,1.04,0,4
15669.468,-0.951,0.252,0.057,4.94,-4.03,2.11,0,4
15669.468,-0.946,0.245,0.048,3.85,-3.39,2.93,0,4
15669.484,-0.944,0.239,0.045,2.32,-2.14,3.23,0,4
15669.5,-0.942,0.23,0.044,0.34,-0.92,3.17,0,4
15669.5,-0.941,0.221,0.042,-1.5,-0.12,3.27,0,4
15669.515,-0.937,0.213,0.043,-3.05,0.37,3.08,0,4
15669.531,-0.937,0.206,0.045,-4.24,0.55,2.59,0,4
15669.531,-0.936,0.2,0.044,-4.79,0.73,1.8,0,4
15669.546,-0.934,0.198,0.045,-5.58,0.98,0.82,0,4
15669.546,-0.933,0.195,0.044,-6.5,1.07,-0.21,0,4
15669.562,-0.93,0.194,0.044,-7.48,1.34,-1.53,0,4
15669.578,-0.928,0.193,0.042,-8.61,1.74,-3.14,0,4
15669.578,-0.926,0.194,0.046,-9.95,2.08,-4.43,0,4
15669.593,-0.93,0.201,0.046,-11.57,2.47,-5.71,0,4
15669.609,-0.934,0.198,0.047,-12.51,3.2,-6.71,0,4
15669.609,-0.946,0.208,0.054,-14.1,3.54,-7.81,0,4
15669.625,-0.948,0.206,0.057,-14.77,3.6,-8.58,0,4
15669.64,-0.952,0.207,0.06,-15.02,3.63,-9.09,0,4
15669.64,-0.954,0.216,0.063,-14.77,3.66,-9.16,0,4
15669.656,-0.953,0.217,0.062,-14.13,3.6,-9.13,0,4
15669.656,-0.954,0.222,0.061,-13.46,3.6,-8.76,0,4
15669.671,-0.954,0.224,0.061,-13.31,3.69,-8.3,0,4
15669.687,-0.958,0.221,0.063,-13.37,3.85,-8.0,0,4
15669.687,-0.964,0.22,0.065,-13.46,4.15,-7.78,0,4
15669.703,-0.966,0.217,0.069,-13.52,4.03,-7.45,0,4
15669.718,-0.967,0.214,0.076,-13.37,3.57,-7.2,0,4
15669.734,-0.966,0.215,0.079,-13.12,3.3,-7.26,0,4
15669.75,-0.968,0.219,0.082,-12.57,2.96,-7.42,0,4
15669.75,-0.97,0.22,0.082,-11.84,2.5,-7.17,0,4
15669.765,-0.972,0.222,0.083,-10.99,1.92,-6.9,0,4
15669.781,-0.974,0.223,0.082,-9.8,1.25,-6.26,0,4
15669.781,-0.973,0.223,0.081,-8.55,0.79,-5.31,0,4
15669.796,-0.973,0.224,0.078,-7.23,0.43,-4.52,0,4
15669.796,-0.97,0.223,0.076,-6.1,-0.03,-3.94,0,4
15669.812,-0.969,0.223,0.074,-5.13,-0.21,-3.3,0,4
15669.828,-0.971,0.227,0.075,-3.72,-0.18,-2.14,0,4
15669.828,-0.975,0.226,0.075,-3.27,-0.52,-1.34,0,4
15669.843,-0.978,0.225,0.074,-2.72,-0.79,-0.61,0,4
15669.859,-0.98,0.228,0.065,-2.08,-0.79,0.21,0,4
15669.859,-0.98,0.228,0.064,-1.46,-0.61,1.22,0,4
15669.875,-0.981,0.226,0.063,-0.98,-0.58,2.38,0,4
15669.906,-0.982,0.22,0.062,-0.12,-0.55,4.12,0,4
15669.906,-0.981,0.219,0.065,-0.18,-0.46,4.73,0,4
15669.906,-0.979,0.217,0.066,-0.76,-0.49,5.25,0,4
15669.921,-0.977,0.214,0.068,-1.25,-0.43,5.83,0,4
15669.937,-0.973,0.209,0.072,-1.34,-0.24,6.29,0,4
15669.937,-0.97,0.207,0.074,-1.1,-0.15,6.62,0,4
15669.953,-0.965,0.205,0.073,-0.43,0.06,7.02,0,4
15669.968,-0.963,0.201,0.076,0.18,0.4,7.35,0,4
15669.968,-0.962,0.201,0.078,0.67,0.7,7.57,0,4
15669.984,-0.961,0.194,0.079,1.28,0.79,7.9,0,4
15670.0,-0.96,0.193,0.079,1.53,0.85,7.9,0,4
15670.015,-0.957,0.192,0.078,1.43,0.67,7.75,0,4
15670.015,-0.953,0.189,0.079,1.22,0.4,7.39,0,4
15670.015,-0.948,0.187,0.079,0.95,0.24,7.08,0,4
15670.031,-0.941,0.186,0.075,0.55,0.21,6.78,0,4
15670.046,-0.935,0.183,0.072,-0.18,0.37,6.35,0,4
15670.062,-0.934,0.175,0.077,-1.8,0.85,4.36,0,4
15670.078,-0.934,0.174,0.078,-2.72,1.04,3.33,0,4
15670.078,-0.933,0.172,0.082,-3.42,1.01,2.26,0,4
15670.093,-0.934,0.17,0.085,-3.88,0.82,0.98,0,4
15670.109,-0.936,0.169,0.087,-4.15,0.67,-0.4,0,4
15670.125,-0.934,0.171,0.09,-4.15,0.31,-1.5,0,4
15670.125,-0.936,0.173,0.091,-3.97,-0.21,-2.72,0,4
15670.14,-0.939,0.177,0.091,-3.66,-0.76,-3.81,0,4
15670.14,-0.94,0.182,0.088,-3.6,-1.25,-4.76,0,4
15670.156,-0.944,0.187,0.086,-3.63,-1.74,-5.52,0,4
15670.156,-0.95,0.191,0.082,-3.66,-2.32,-6.1,0,4
15670.171,-0.951,0.196,0.079,-3.57,-2.62,-6.38,0,4
15670.187,-0.954,0.201,0.078,-3.54,-2.84,-6.32,0,4
15670.187,-0.956,0.203,0.076,-3.45,-2.99,-6.41,0,4
15670.203,-0.959,0.204,0.073,-3.3,-3.02,-6.44,0,4
15670.218,-0.961,0.206,0.069,-3.08,-2.99,-6.2,0,4
15670.218,-0.964,0.209,0.067,-2.78,-2.9,-5.77,0,4
15670.234,-0.967,0.209,0.069,-2.47,-2.78,-5.25,0,4
15670.25,-0.967,0.21,0.069,-2.11,-2.93,-4.67,0,4
15670.25,-0.966,0.21,0.067,-1.74,-3.05,-4.09,0,4
15670.265,-0.967,0.209,0.067,-1.22,-3.14,-3.6,0,4
15670.281,-0.967,0.211,0.063,-0.95,-3.2,-3.17,0,4
15670.281,-0.963,0.212,0.06,-0.89,-2.96,-2.69,0,4
15670.296,-0.964,0.211,0.06,-1.16,-2.66,-2.17,0,4
15670.312,-0.963,0.207,0.061,-1.28,-2.04,-1.92,0,4
15670.312,-0.962,0.207,0.061,-1.53,-1.89,-1.77,0,4
15670.328,-0.959,0.206,0.062,-1.77,-1.77,-1.4,0,4
15670.328,-0.956,0.204,0.065,-2.01,-1.8,-1.07,0,4
15670.343,-0.955,0.201,0.067,-1.89,-1.86,-0.89,0,4
15670.359,-0.953,0.199,0.067,-1.56,-2.17,-0.67,0,4
15670.359,-0.953,0.197,0.063,-0.95,-2.26,-0.67,0,4
15670.375,-0.953,0.193,0.058,-0.18,-2.14,-0.76,0,4
15670.39,-0.948,0.194,0.058,0.58,-1.89,-0.76,0,4
15670.39,-0.945,0.196,0.054,0.92,-1.28,-0.64,0,4
15670.406,-0.945,0.199,0.051,0.64,-0.43,-0.58,0,4
15670.421,-0.947,0.199,0.056,0.0,0.21,-0.76,0,4
15670.421,-0.953,0.198,0.056,-0.58,0.49,-0.89,0,4
15670.437,-0.954,0.196,0.06,-0.89,0.27,-0.98,0,4
15670.437,-0.954,0.194,0.059,-0.7,0.03,-1.04,0,4
15670.453,-0.957,0.193,0.057,-0.12,-0.18,-1.07,0,4
15670.468,-0.958,0.195,0.056,0.43,-0.12,-1.13,0,4
15670.468,-0.954,0.197,0.054,0.7,0.18,-1.16,0,4
15670.484,-0.954,0.2,0.05,0.95,0.49,-1.13,0,4
15670.5,-0.955,0.202,0.051,0.64,0.92,-1.07,0,4
15670.5,-0.954,0.204,0.049,0.0,1.43,-1.07,0,4
15670.515,-0.956,0.204,0.052,-0.52,2.04,-1.04,0,4
15670.531,-0.957,0.204,0.054,-0.61,2.5,-0.7,0,4
15670.531,-0.957,0.203,0.059,-0.46,3.02,-0.27,0,4
15670.546,-0.959,0.202,0.061,-0.24,3.42,0.06,0,4
15670.546,-0.961,0.202,0.061,0.31,3.6,0.31,0,4
15670.562,-0.962,0.205,0.062,0.73,3.54,0.61,0,4
15670.578,-0.961,0.206,0.063,0.79,3.51,0.79,0,4
15670.578,-0.962,0.203,0.064,0.95,3.39,1.07,0,4
15670.593,-0.962,0.202,0.063,0.95,3.36,1.56,0,4
15670.609,-0.963,0.198,0.064,0.95,3.33,1.74,0,4
15670.609,-0.961,0.197,0.064,1.25,3.54,1.98,0,4
15670.625,-0.963,0.196,0.066,1.71,3.66,1.98,0,4
15670.64,-0.965,0.194,0.066,1.95,3.54,2.26,0,4
15670.656,-0.964,0.193,0.068,2.01,3.33,2.5,0,4
15670.656,-0.961,0.193,0.067,2.04,2.9,2.53,0,4
15670.656,-0.957,0.193,0.064,1.8,2.66,2.53,0,4
15670.671,-0.957,0.195,0.065,1.53,2.96,2.62,0,4
15670.687,-0.959,0.192,0.068,1.4,3.14,2.72,0,4
15670.687,-0.956,0.189,0.068,1.46,3.17,2.81,0,4
15670.703,-0.955,0.189,0.069,1.65,2.96,2.59,0,4
15670.718,-0.957,0.188,0.07,1.8,2.75,2.23,0,4
15670.718,-0.957,0.186,0.067,1.89,2.32,2.04,0,4
15670.734,-0.957,0.183,0.065,2.08,1.86,1.92,0,4
15670.765,-0.959,0.177,0.06,2.01,1.77,1.22,0,4
15670.765,-0.954,0.179,0.056,2.01,1.77,0.61,0,4
15670.781,-0.951,0.177,0.053,1.89,1.8,0.12,0,4
15670.781,-0.948,0.177,0.049,1.77,1.95,-0.43,0,4
15670.796,-0.948,0.178,0.052,1.43,2.32,-1.04,0,4
15670.796,-0.949,0.181,0.059,1.59,3.94,-2.69,0,4
15670.812,-0.955,0.184,0.067,3.11,4.3,-3.17,0,4
15670.828,-0.963,0.19,0.076,5.43,4.39,-3.3,0,4
15670.828,-0.979,0.206,0.083,7.75,3.69,-3.05,0,4
15670.843,-0.979,0.215,0.078,9.37,2.78,-2.66,0,4
15670.859,-0.98,0.22,0.07,9.98,1.86,-2.14,0,4
15670.859,-0.98,0.224,0.064,9.46,0.92,-1.56,0,4
15670.875,-0.975,0.22,0.056,8.12,0.4,-1.37,0,4
15670.89,-0.971,0.218,0.051,6.5,0.27,-1.13,0,4
15670.89,-0.966,0.215,0.051,4.88,0.61,-0.76,0,4
15670.906,-0.964,0.212,0.05,3.42,1.16,-0.76,0,4
15670.921,-0.964,0.212,0.052,1.71,1.77,-1.13,0,4
15670.921,-0.963,0.207,0.058,-0.21,2.11,-1.59,0,4
15670.937,-0.964,0.204,0.062,-1.8,2.08,-2.11,0,4
15670.937,-0.965,0.204,0.063,-2.99,1.71,-2.59,0,4
15670.953,-0.962,0.203,0.066,-3.54,0.92,-2.56,0,4
15670.968,-0.961,0.204,0.066,-3.36,-0.06,-2.38,0,4
15670.968,-0.962,0.202,0.065,-2.84,-1.13,-1.98,0,4
15670.984,-0.962,0.199,0.063,-2.08,-2.29,-1.65,0,4
15671.0,-0.957,0.198,0.061,-1.13,-3.36,-1.13,0,4
15671.0,-0.954,0.196,0.056,0.12,-3.91,-0.67,0,4
15671.015,-0.957,0.191,0.052,1.46,-4.18,-0.46,0,4
15671.031,-0.96,0.19,0.044,2.81,-4.24,-0.15,0,4
15671.031,-0.961,0.191,0.041,3.88,-3.85,0.18,0,4
15671.046,-0.964,0.189,0.039,5.16,-3.23,0.24,0,4
15671.062,-0.967,0.188,0.037,6.41,-2.59,0.12,0,4
15671.062,-0.97,0.189,0.038,7.6,-2.32,0.24,0,4
15671.078,-0.975,0.19,0.037,8.73,-2.41,0.64,0,4
15671.078,-0.978,0.19,0.034,9.61,-2.5,1.1,0,4
15671.093,-0.979,0.19,0.032,10.35,-2.78,1.56,0,4
15671.109,-0.976,0.191,0.028,10.77,-3.05,1.98,0,4
15671.109,-0.972,0.188,0.023,10.65,-3.2,1.92,0,4
15671.125,-0.966,0.184,0.019,10.19,-3.14,2.08,0,4
15671.14,-0.96,0.183,0.017,9.77,-2.99,2.01,0,4
15671.14,-0.955,0.179,0.015,9.34,-2.5,1.68,0,4
15671.156,-0.951,0.176,0.017,8.7,-1.59,1.31,0,4
15671.171,-0.949,0.177,0.02,8.03,-0.61,0.89,0,4
15671.171,-0.945,0.177,0.025,7.45,0.34,0.55,0,4
15671.187,-0.944,0.178,0.032,7.08,1.31,-0.09,0,4
15671.187,-0.944,0.181,0.037,7.02,1.98,-0.76,0,4
15671.203,-0.949,0.183,0.041,7.17,2.29,-1.25,0,4
15671.218,-0.95,0.185,0.045,7.45,1.95,-1.8,0,4
15671.218,-0.951,0.187,0.046,7.78,1.59,-2.29,0,4
15671.234,-0.954,0.192,0.043,7.84,1.31,-2.72,0,4
15671.25,-0.956,0.196,0.043,7.39,1.22,-3.39,0,4
15671.25,-0.959,0.2,0.039,7.17,1.07,-3.91,0,4
15671.281,-0.955,0.209,0.031,5.71,1.01,-5.04,0,4
15671.281,-0.956,0.215,0.031,4.33,1.25,-5.58,0,4
15671.296,-0.958,0.22,0.03,2.66,2.01,-6.1,0,4
15671.296,-0.96,0.228,0.032,0.95,2.87,-6.81,0,4
15671.312,-0.961,0.235,0.037,-0.98,3.42,-7.23,0,4
15671.328,-0.966,0.239,0.047,-2.47,3.69,-7.26,0,4
15671.328,-0.971,0.243,0.052,-3.78,3.57,-7.08,0,4
15671.343,-0.97,0.248,0.056,-4.73,2.9,-6.59,0,4
15671.359,-0.971,0.252,0.056,-5.52,1.92,-6.04,0,4
15671.359,-0.972,0.252,0.057,-6.07,0.73,-5.22,0,4
15671.375,-0.975,0.249,0.061,-6.65,-0.37,-4.06,0,4
15671.39,-0.976,0.241,0.058,-6.96,-1.34,-2.9,0,4
15671.39,-0.979,0.233,0.06,-6.56,-2.35,-1.56,0,4
15671.406,-0.979,0.223,0.053,-5.25,-3.3,-0.43,0,4
15671.406,-0.982,0.215,0.06,-2.75,-3.75,0.7,0,4
15671.421,-0.988,0.204,0.07,0.34,-4.67,1.59,0,4
15671.437,-0.978,0.208,0.049,6.13,-4.94,4.3,0,4
15671.453,-0.987,0.206,0.053,6.26,-5.8,5.04,0,4
15671.468,-0.976,0.198,0.041,7.14,-6.84,6.16,0,4
15671.468,-0.981,0.187,0.037,8.06,-7.32,7.05,0,4
15671.484,-0.975,0.179,0.03,8.76,-8.12,7.72,0,4
15671.5,-0.969,0.17,0.022,10.25,-8.06,8.03,0,4
15671.5,-0.968,0.165,0.013,11.41,-7.17,8.21,0,4
15671.515,-0.963,0.159,0.01,12.15,-6.16,7.9,0,4
15671.531,-0.96,0.155,0.008,12.88,-4.94,7.23,0,4
15671.531,-0.954,0.156,0.004,12.97,-4.06,6.68,0,4
15671.546,-0.947,0.157,0.002,12.21,-3.48,5.86,0,4
15671.546,-0.946,0.156,0.004,10.71,-2.96,4.91,0,4
15671.562,-0.945,0.154,0.007,8.91,-2.75,4.0,0,4
15671.578,-0.943,0.152,0.009,7.17,-2.47,2.96,0,4
15671.578,-0.942,0.149,0.009,5.83,-2.11,1.98,0,4
15671.593,-0.941,0.148,0.014,4.88,-1.59,0.7,0,4
15671.609,-0.938,0.153,0.018,4.24,-0.31,-2.11,0,4
15671.625,-0.935,0.16,0.021,3.91,0.18,-3.3,0,4
15671.64,-0.936,0.164,0.025,3.54,0.82,-4.7,0,4
15671.64,-0.935,0.169,0.029,2.78,1.34,-5.92,0,4
15671.656,-0.94,0.177,0.037,1.86,1.77,-7.11,0,4
15671.671,-0.948,0.187,0.042,0.95,2.01,-8.18,0,4
15671.671,-0.953,0.194,0.047,0.37,1.92,-8.91,0,4
15671.687,-0.958,0.201,0.05,0.12,1.53,-9.13,0,4
15671.687,-0.96,0.207,0.052,0.24,1.04,-9.0,0,4
15671.703,-0.961,0.212,0.049,0.64,0.49,-8.45,0,4
15671.718,-0.962,0.217,0.044,1.13,0.12,-7.93,0,4
15671.718,-0.963,0.219,0.037,1.31,0.15,-7.39,0,4
15671.734,-0.96,0.223,0.034,1.25,0.37,-6.74,0,4
15671.75,-0.957,0.224,0.032,0.58,0.95,-6.38,0,4
15671.75,-0.954,0.224,0.032,-0.37,1.68,-6.26,0,4
15671.765,-0.956,0.224,0.035,-1.62,2.2,-6.13,0,4
15671.781,-0.96,0.227,0.043,-2.72,2.53,-6.13,0,4
15671.781,-0.964,0.226,0.049,-3.48,2.04,-5.16,0,4
15671.796,-0.965,0.225,0.056,-2.87,1.01,-4.61,0,4
15671.796,-0.97,0.223,0.056,-1.92,-0.15,-3.72,0,4
15671.812,-0.972,0.222,0.05,-0.98,-1.25,-2.78,0,4
15671.828,-0.973,0.217,0.032,-0.31,-1.86,-1.8,0,4
15671.828,-0.972,0.212,0.027,-0.24,-1.77,-1.07,0,4
15671.843,-0.972,0.205,0.019,-0.76,-1.4,-0.82,0,4
15671.859,-0.968,0.2,0.014,-1.46,-0.92,-0.61,0,4
15671.859,-0.965,0.196,0.009,-2.11,-0.55,-0.49,0,4
15671.875,-0.963,0.193,0.009,-2.87,-0.06,-0.43,0,4
15671.89,-0.964,0.19,0.009,-3.78,0.61,-0.4,0,4
15671.89,-0.964,0.186,0.011,-4.7,1.37,-0.61,0,4
15671.906,-0.965,0.183,0.014,-5.49,1.8,-0.92,0,4
15671.906,-0.967,0.181,0.019,-6.23,1.86,-0.92,0,4
15671.921,-0.968,0.178,0.022,-6.65,1.71,-1.01,0,4
15671.937,-0.973,0.174,0.025,-6.87,1.5,-1.28,0,4
15671.937,-0.975,0.172,0.028,-7.05,1.25,-1.65,0,4
15671.953,-0.975,0.171,0.03,-6.93,0.82,-1.83,0,4
15671.968,-0.974,0.174,0.032,-6.47,0.55,-1.89,0,4
15671.968,-0.971,0.173,0.035,-5.77,0.4,-1.89,0,4
15671.984,-0.972,0.175,0.037,-4.94,0.43,-1.71,0,4
15672.0,-0.973,0.176,0.036,-4.18,0.52,-1.56,0,4
15672.0,-0.974,0.178,0.041,-3.45,0.34,-1.22,0,4
15672.015,-0.975,0.183,0.042,-2.78,0.06,-0.82,0,4
15672.015,-0.978,0.183,0.045,-2.26,-0.37,-0.37,0,4
15672.031,-0.981,0.179,0.044,-1.68,-1.01,0.27,0,4
15672.046,-0.981,0.177,0.043,-0.73,-1.56,0.67,0,4
15672.046,-0.981,0.177,0.04,0.27,-2.01,1.22,0,4
15672.062,-0.98,0.176,0.039,1.28,-2.5,1.86,0,4
15672.078,-0.974,0.174,0.035,2.04,-2.53,2.32,0,4
15672.078,-0.968,0.173,0.03,2.23,-2.44,2.69,0,4
15672.093,-0.969,0.169,0.03,2.14,-2.04,3.02,0,4
15672.109,-0.97,0.164,0.028,1.98,-1.83,3.02,0,4
15672.109,-0.971,0.16,0.028,1.71,-1.83,2.62,0,4
15672.14,-0.966,0.162,0.031,2.04,-1.65,1.89,0,4
15672.14,-0.964,0.164,0.032,1.92,-1.13,1.74,0,4
15672.156,-0.962,0.162,0.033,1.65,-0.89,1.37,0,4
15672.156,-0.96,0.163,0.035,1.01,-0.89,0.89,0,4
15672.171,-0.958,0.165,0.037,0.21,-1.1,0.21,0,4
15672.187,-0.959,0.164,0.04,-0.37,-1.43,-0.34,0,4
15672.203,-0.959,0.165,0.04,-0.89,-1.56,-0.76,0,4
15672.203,-0.959,0.167,0.043,-1.43,-1.46,-1.13,0,4
15672.218,-0.956,0.169,0.048,-1.71,-1.16,-1.46,0,4
15672.218,-0.956,0.171,0.051,-1.71,-1.1,-1.98,0,4
15672.234,-0.959,0.176,0.05,-1.5,-1.04,-2.62,0,4
15672.25,-0.96,0.182,0.052,-1.34,-1.22,-2.96,0,4
15672.25,-0.961,0.187,0.049,-1.16,-1.53,-2.93,0,4
15672.265,-0.962,0.189,0.046,-1.13,-1.62,-2.62,0,4
15672.281,-0.963,0.193,0.047,-1.4,-1.5,-2.41,0,4
15672.281,-0.964,0.195,0.047,-1.65,-1.31,-2.23,0,4
15672.312,-0.969,0.191,0.044,-1.92,-1.56,-1.65,0,4
15672.312,-0.968,0.191,0.045,-1.95,-1.89,-1.28,0,4
15672.328,-0.966,0.189,0.041,-1.71,-2.2,-1.01,0,4
15672.328,-0.968,0.189,0.04,-1.86,-2.35,-0.73,0,4
15672.343,-0.966,0.188,0.043,-1.71,-2.35,-0.49,0,4
15672.359,-0.964,0.187,0.039,-1.53,-2.41,-0.43,0,4
15672.359,-0.964,0.185,0.036,-1.28,-2.47,-0.24,0,4
15672.375,-0.964,0.182,0.038,-1.22,-2.26,0.18,0,4
15672.39,-0.963,0.181,0.037,-0.79,-2.23,0.37,0,4
15672.39,-0.964,0.178,0.034,-0.12,-2.2,0.27,0,4
15672.406,-0.967,0.179,0.031,0.34,-2.01,0.43,0,4
15672.421,-0.964,0.181,0.03,0.18,-2.11,0.64,0,4
15672.421,-0.961,0.179,0.027,-0.06,-2.11,0.61,0,4
15672.437,-0.962,0.177,0.027,-0.37,-2.08,0.55,0,4
15672.437,-0.96,0.174,0.027,-0.7,-1.92,0.46,0,4
15672.453,-0.96,0.175,0.028,-0.85,-1.77,0.21,0,4
15672.468,-0.962,0.177,0.03,-0.61,-1.46,-0.06,0,4
15672.484,-0.96,0.177,0.029,-0.4,-1.43,-0.15,0,4
15672.5,-0.961,0.177,0.027,-0.21,-1.28,-0.06,0,4
15672.5,-0.961,0.177,0.026,-0.12,-1.1,0.06,0,4
15672.515,-0.96,0.177,0.028,-0.31,-1.01,0.12,0,4
15672.531,-0.961,0.176,0.027,-0.61,-0.92,0.21,0,4
15672.531,-0.96,0.174,0.027,-0.76,-0.92,0.18,0,4
15672.546,-0.962,0.173,0.03,-0.73,-0.79,-0.06,0,4
15672.546,-0.961,0.175,0.03,-0.79,-0.52,-0.27,0,4
15672.562,-0.96,0.177,0.032,-0.89,-0.31,-0.49,0,4
15672.578,-0.962,0.179,0.032,-0.67,-0.21,-0.49,0,4
15672.578,-0.963,0.179,0.031,-0.55,-0.06,-0.4,0,4
15672.593,-0.963,0.179,0.032,-0.58,0.06,-0.43,0,4
15672.609,-0.962,0.181,0.032,-0.61,0.09,-0.52,0,4
15672.609,-0.963,0.183,0.033,-0.76,0.18,-0.4,0,4
15672.625,-0.966,0.184,0.037,-1.13,0.31,-0.49,0,4
15672.64,-0.967,0.185,0.039,-1.53,0.34,-0.58,0,4
15672.64,-0.965,0.184,0.04,-1.68,0.15,-0.34,0,4
15672.656,-0.966,0.182,0.042,-1.77,0.18,-0.24,0,4
15672.656,-0.965,0.183,0.043,-1.62,0.15,-0.21,0,4
15672.671,-0.965,0.182,0.043,-1.22,0.06,-0.09,0,4
15672.687,-0.963,0.182,0.044,-1.16,0.03,-0.12,0,4
15672.687,-0.965,0.181,0.043,-1.01,-0.09,-0.21,0,4
15672.703,-0.969,0.183,0.043,-0.92,0.09,-0.09,0,4
15672.718,-0.966,0.184,0.044,-1.16,0.12,-0.06,0,4
15672.718,-0.965,0.183,0.045,-1.31,0.03,-0.18,0,4
15672.734,-0.967,0.18,0.047,-1.43,-0.09,-0.21,0,4
15672.75,-0.966,0.183,0.048,-1.53,-0.27,-0.12,0,4
15672.75,-0.963,0.183,0.047,-1.43,-0.55,0.03,0,4
15672.765,-0.963,0.182,0.045,-0.98,-0.79,0.03,0,4
15672.781,-0.966,0.179,0.045,-0.79,-0.82,0.15,0,4
15672.781,-0.967,0.179,0.043,-0.89,-0.89,0.31,0,4
15672.796,-0.964,0.179,0.041,-0.98,-0.82,0.37,0,4
15672.796,-0.966,0.175,0.039,-1.13,-0.89,0.09,0,4
15672.812,-0.966,0.175,0.036,-1.34,-1.01,-0.15,0,4
15672.828,-0.965,0.176,0.035,-1.5,-0.92,-0.24,0,4
15672.828,-0.967,0.175,0.035,-1.59,-0.82,-0.46,0,4
15672.843,-0.967,0.175,0.033,-1.65,-0.82,-0.61,0,4
15672.859,-0.964,0.176,0.034,-1.77,-0.76,-0.79,0,4
15672.859,-0.964,0.177,0.032,-1.8,-0.79,-0.89,0,4
15672.875,-0.963,0.177,0.031,-1.59,-0.61,-0.79,0,4
15672.89,-0.959,0.179,0.031,-1.5,-0.27,-0.67,0,4
15672.89,-0.957,0.182,0.033,-1.59,0.18,-0.82,0,4
15672.906,-0.958,0.186,0.037,-1.86,0.49,-0.92,0,4
15672.921,-0.96,0.188,0.041,-2.38,0.34,-1.01,0,4
15672.921,-0.961,0.19,0.043,-2.84,0.03,-0.85,0,4
15672.937,-0.964,0.189,0.045,-2.69,-0.43,-0.61,0,4
15672.953,-0.963,0.187,0.047,-1.95,-0.82,-0.24,0,4
15672.953,-0.962,0.185,0.047,-0.76,-1.19,0.4,0,4
15672.968,-0.96,0.188,0.045,0.76,-1.37,0.73,0,4
15672.968,-0.96,0.19,0.043,2.08,-1.28,0.92,0,4
15672.984,-0.965,0.194,0.046,3.2,-1.22,1.28,0,4
15673.0,-0.967,0.198,0.048,4.3,-1.22,1.89,0,4
15673.0,-0.972,0.201,0.046,5.31,-1.4,2.9,0,4
15673.015,-0.977,0.201,0.046,6.23,-1.62,3.88,0,4
15673.031,-0.985,0.201,0.042,7.23,-2.11,4.67,0,4
15673.031,-0.99,0.2,0.039,8.27,-2.59,5.86,0,4
15673.046,-0.992,0.195,0.034,9.25,-2.87,7.05,0,4
15673.062,-0.992,0.191,0.03,10.1,-2.75,8.15,0,4
15673.062,-0.993,0.185,0.025,10.56,-2.32,8.85,0,4
15673.078,-0.991,0.178,0.022,10.38,-1.77,9.37,0,4
15673.078,-0.986,0.169,0.023,9.58,-1.22,9.61,0,4
15673.093,-0.979,0.165,0.024,8.51,-0.89,9.49,0,4
15673.109,-0.969,0.158,0.023,7.08,-0.67,9.13,0,4
15673.109,-0.959,0.151,0.022,5.58,-0.03,8.67,0,4
15673.125,-0.947,0.146,0.025,4.03,0.52,7.78,0,4
15673.14,-0.942,0.142,0.029,2.29,1.22,6.29,0,4
15673.156,-0.938,0.138,0.034,0.37,1.8,4.49,0,4
15673.156,-0.933,0.14,0.044,-4.3,2.17,0.95,0,4
15673.171,-0.934,0.135,0.051,-6.13,1.8,-0.79,0,4
15673.187,-0.934,0.133,0.052,-7.23,1.31,-2.69,0,4
15673.187,-0.933,0.135,0.053,-7.54,0.67,-4.49,0,4
15673.203,-0.933,0.137,0.051,-7.57,0.27,-6.23,0,4
15673.218,-0.934,0.145,0.048,-7.45,0.09,-7.78,0,4
15673.218,-0.934,0.153,0.048,-7.81,0.21,-9.28,0,4
15673.234,-0.936,0.159,0.051,-8.48,0.27,-10.96,0,4
15673.25,-0.942,0.165,0.058,-9.19,0.0,-12.3,0,4
15673.25,-0.949,0.171,0.066,-9.55,-0.55,-13.34,0,4
15673.265,-0.959,0.181,0.07,-9.22,-1.4,-14.25,0,4
15673.281,-0.973,0.191,0.066,-8.18,-2.62,-14.8,0,4
15673.281,-0.985,0.209,0.057,-6.71,-3.88,-14.59,0,4
15673.296,-0.997,0.228,0.044,-5.34,-4.97,-13.73,0,4
15673.312,-1.0,0.239,0.028,-4.67,-5.58,-12.33,0,4
15673.312,-1.001,0.243,0.017,-4.12,-5.46,-10.35,0,4
15673.328,-0.994,0.234,-0.001,-4.3,-3.45,-5.83,0,4
15673.343,-0.987,0.227,-0.004,-5.13,-2.29,-4.12,0,4
15673.359,-0.976,0.218,-0.002,-6.78,-1.25,-2.84,0,4
15673.359,-0.973,0.207,0.0,-9.09,-0.21,-2.53,0,4
15673.375,-0.971,0.199,0.008,-11.44,0.64,-2.66,0,4
15673.39,-0.97,0.197,0.017,-13.09,1.37,-3.11,0,4
15673.39,-0.973,0.193,0.027,-13.86,1.95,-3.36,0,4
15673.406,-0.973,0.19,0.037,-13.4,2.23,-3.54,0,4
15673.421,-0.975,0.187,0.044,-11.81,2.2,-3.66,0,4
15673.421,-0.975,0.187,0.047,-9.77,2.17,-3.88,0,4
15673.437,-0.979,0.193,0.049,-7.66,1.68,-4.27,0,4
15673.437,-0.98,0.2,0.045,-5.89,0.98,-3.6,0,4
15673.453,-0.975,0.203,0.034,-4.73,0.09,-2.01,0,4
15673.468,-0.973,0.207,0.045,-3.54,-0.15,-0.43,0,4
15673.468,-0.97,0.193,0.042,-1.04,-1.07,0.52,0,4
15673.484,-0.971,0.198,0.034,-0.67,-2.26,0.73,0,4
15673.5,-0.976,0.18,0.024,2.2,-2.59,3.3,0,4
15673.515,-0.973,0.192,0.032,3.05,-3.02,4.43,0,4
15673.531,-0.972,0.185,0.024,5.04,-3.05,5.07,0,4
15673.531,-0.979,0.179,0.016,5.95,-3.2,5.55,0,4
15673.546,-0.975,0.177,0.011,6.41,-3.08,6.26,0,4
15673.546,-0.976,0.175,0.009,6.41,-2.66,6.38,0,4
15673.562,-0.974,0.17,0.006,6.16,-2.2,6.44,0,4
15673.578,-0.973,0.169,0.005,5.68,-1.77,6.59,0,4
15673.578,-0.971,0.165,0.008,5.25,-1.13,6.56,0,4
15673.593,-0.969,0.162,0.01,4.61,-0.55,6.47,0,4
15673.609,-0.972,0.158,0.013,4.12,0.03,6.53,0,4
15673.609,-0.97,0.157,0.017,3.63,0.58,6.62,0,4
15673.625,-0.975,0.156,0.021,3.63,1.07,6.96,0,4
15673.64,-0.975,0.158,0.024,3.14,1.28,7.42,0,4
15673.64,-0.967,0.152,0.028,2.17,0.79,7.69,0,4
15673.656,-0.964,0.145,0.029,2.2,0.43,7.51,0,4
15673.671,-0.959,0.144,0.028,2.69,0.37,7.23,0,4
15673.671,-0.954,0.141,0.028,3.02,0.43,6.84,0,4
15673.687,-0.949,0.14,0.029,3.54,0.85,6.41,0,4
15673.687,-0.942,0.14,0.029,3.81,1.37,5.98,0,4
15673.703,-0.942,0.136,0.029,3.48,1.95,5.01,0,4
15673.718,-0.94,0.136,0.033,2.56,2.5,4.0,0,4
15673.718,-0.939,0.136,0.035,1.28,3.02,2.93,0,4
15673.734,-0.943,0.136,0.039,-0.43,3.42,1.68,0,4
15673.75,-0.946,0.139,0.043,-2.44,3.36,0.34,0,4
15673.75,-0.947,0.139,0.046,-5.89,1.89,-1.95,0,4
15673.765,-0.948,0.138,0.051,-6.71,0.7,-2.47,0,4
15673.781,-0.946,0.142,0.052,-7.32,-0.15,-3.27,0,4
15673.781,-0.944,0.136,0.055,-7.11,-0.7,-4.3,0,4
15673.796,-0.943,0.141,0.057,-6.93,-0.95,-5.62,0,4
15673.796,-0.948,0.143,0.056,-6.74,-1.07,-7.17,0,4
15673.812,-0.949,0.149,0.063,-7.05,-1.22,-8.45,0,4
15673.828,-0.956,0.15,0.069,-6.62,-1.53,-9.86,0,4
15673.843,-0.961,0.151,0.074,-5.58,-1.95,-10.96,0,4
15673.843,-0.965,0.166,0.082,-3.97,-1.92,-11.6,0,4
15673.859,-0.974,0.178,0.093,-0.61,-1.4,-11.78,0,4
15673.859,-0.985,0.192,0.099,3.66,-0.95,-11.11,0,4
15673.875,-0.991,0.207,0.097,7.39,-0.82,-9.83,0,4
15673.89,-0.998,0.218,0.092,9.34,-1.46,-8.18,0,4
15673.89,-0.998,0.229,0.086,9.22,-2.96,-6.5,0,4
15673.906,-0.995,0.232,0.077,7.54,-4.76,-5.22,0,4
15673.921,-0.991,0.231,0.069,4.85,-6.5,-4.36,0,4
15673.921,-0.984,0.224,0.064,2.35,-8.03,-3.45,0,4
15673.937,-0.973,0.212,0.064,0.82,-8.88,-2.56,0,4
15673.937,-0.965,0.199,0.064,0.76,-9.25,-1.8,0,4
15673.953,-0.949,0.189,0.066,2.35,-9.64,-1.5,0,4
15673.968,-0.939,0.186,0.061,5.07,-9.74,-1.53,0,4
15673.968,-0.933,0.192,0.054,7.66,-9.92,-1.74,0,4
15673.984,-0.941,0.2,0.048,9.13,-10.01,-2.01,0,4
15674.0,-0.967,0.211,0.048,9.46,-10.16,-2.32,0,4
15674.0,-0.993,0.219,0.052,8.79,-10.35,-2.75,0,4
15674.015,-0.999,0.225,0.059,8.12,-11.14,-2.84,0,4
15674.031,-1.003,0.231,0.061,8.94,-12.48,-2.44,0,4
15674.031,-1.006,0.234,0.059,11.57,-14.44,-1.56,0,4
15674.046,-1.011,0.244,0.059,15.5,-16.85,0.09,0,4
15674.046,-1.018,0.256,0.056,19.84,-19.17,2.66,0,4
15674.062,-1.017,0.262,0.05,23.56,-21.64,5.71,0,4
15674.078,-1.015,0.266,0.036,26.8,-23.93,9.06,0,4
15674.078,-1.019,0.272,0.028,28.2,-25.12,12.54,0,4
15674.093,-1.025,0.27,0.027,28.26,-26.0,16.42,0,4
15674.109,-1.02,0.266,0.029,26.83,-26.7,20.36,0,4
15674.109,-1.013,0.272,0.051,24.38,-27.5,23.71,0,4
15674.125,-1.009,0.247,0.028,22.37,-29.66,26.25,0,4
15674.14,-1.001,0.262,0.059,17.33,-30.61,27.83,0,4
15674.14,-0.981,0.241,0.071,14.34,-32.44,28.69,0,4
15674.156,-0.983,0.235,0.073,11.29,-34.27,28.41,0,4
15674.171,-0.98,0.24,0.079,9.16,-33.88,29.02,0,4
15674.171,-0.971,0.24,0.093,8.15,-33.78,29.82,0,4
15674.187,-0.974,0.23,0.109,7.97,-33.48,30.03,0,4
15674.187,-0.969,0.238,0.106,6.01,-33.23,29.97,0,4
15674.203,-0.953,0.239,0.11,5.8,-31.71,30.7,0,4
15674.218,-0.951,0.219,0.115,7.14,-28.75,31.34,0,4
15674.218,-0.941,0.226,0.113,7.63,-25.82,31.68,0,4
15674.234,-0.92,0.222,0.118,8.67,-21.94,31.98,0,4
15674.25,-0.92,0.219,0.118,9.98,-18.46,31.04,0,4
15674.25,-0.918,0.219,0.116,10.65,-14.71,30.85,0,4
15674.265,-0.908,0.211,0.121,11.23,-11.38,30.67,0,4
15674.281,-0.906,0.207,0.116,12.39,-8.12,30.03,0,4
15674.296,-0.903,0.204,0.111,13.28,-4.73,29.27,0,4
15674.296,-0.891,0.197,0.109,12.94,-1.8,27.71,0,4
15674.296,-0.901,0.204,0.116,10.47,0.79,24.57,0,4
15674.312,-0.902,0.213,0.136,8.73,2.32,22.77,0,4
15674.328,-0.898,0.225,0.143,6.38,2.72,20.81,0,4
15674.328,-0.905,0.227,0.152,4.0,1.5,18.1,0,4
15674.343,-0.895,0.231,0.158,3.17,0.06,16.39,0,4
15674.359,-0.891,0.245,0.167,1.62,-1.92,13.76,0,4
15674.359,-0.887,0.248,0.158,1.01,-4.18,11.41,0,4
15674.375,-0.888,0.249,0.145,1.68,-4.94,9.55,0,4
15674.39,-0.883,0.257,0.14,1.77,-5.31,7.93,0,4
15674.39,-0.889,0.261,0.136,2.32,-5.22,6.5,0,4
15674.406,-0.893,0.265,0.129,2.23,-4.55,5.65,0,4
15674.421,-0.894,0.266,0.126,1.65,-3.42,5.22,0,4
15674.421,-0.898,0.269,0.126,1.28,-1.98,4.76,0,4
15674.437,-0.911,0.273,0.13,0.79,-0.76,4.58,0,4
15674.437,-0.919,0.279,0.132,0.18,-0.61,4.09,0,4
15674.453,-0.925,0.285,0.141,-0.27,-1.59,4.21,0,4
15674.468,-0.926,0.286,0.138,0.21,-2.87,4.49,0,4
15674.468,-0.929,0.289,0.135,0.21,-3.81,4.15,0,4
15674.484,-0.934,0.288,0.138,0.67,-4.55,4.12,0,4
15674.5,-0.939,0.295,0.137,2.17,-4.76,4.18,0,4
15674.5,-0.943,0.298,0.137,4.09,-4.91,4.39,0,4
15674.515,-0.946,0.301,0.142,6.44,-5.71,4.79,0,4
15674.531,-0.945,0.301,0.135,9.22,-6.68,5.28,0,4
15674.531,-0.948,0.304,0.134,11.2,-7.48,5.22,0,4
15674.546,-0.949,0.307,0.132,12.3,-8.42,4.94,0,4
15674.562,-0.945,0.31,0.124,12.57,-9.43,4.49,0,4
15674.562,-0.947,0.314,0.118,12.24,-9.92,4.12,0,4
15674.578,-0.944,0.324,0.119,10.96,-9.98,4.27,0,4
15674.578,-0.943,0.335,0.119,9.25,-9.58,4.85,0,4
15674.593,-0.948,0.34,0.12,7.63,-8.94,5.83,0,4
15674.609,-0.955,0.343,0.131,7.26,-8.21,7.63,0,4
15674.609,-0.96,0.349,0.15,7.63,-8.42,9.92,0,4
15674.625,-0.958,0.349,0.157,9.16,-9.89,11.69,0,4
15674.64,-0.961,0.355,0.167,11.6,-11.69,12.79,0,4
15674.64,-0.965,0.367,0.177,14.68,-14.1,13.58,0,4
15674.656,-0.968,0.389,0.181,16.48,-16.82,14.92,0,4
15674.656,-0.966,0.413,0.174,18.22,-18.19,16.97,0,4
15674.671,-0.971,0.425,0.168,19.84,-18.19,19.17,0,4
15674.687,-0.98,0.468,0.194,18.89,-18.34,21.52,0,4
15674.687,-0.988,0.472,0.207,19.96,-19.62,25.06,0,4
15674.703,-0.994,0.492,0.21,20.48,-21.94,29.21,0,4
15674.718,-0.995,0.51,0.238,21.39,-24.48,33.57,0,4
15674.718,-1.011,0.528,0.255,24.08,-26.37,37.05,0,4
15674.734,-1.027,0.577,0.273,29.3,-30.73,48.04,0,4
15674.75,-1.031,0.612,0.296,33.85,-32.84,52.22,0,4
15674.75,-1.026,0.646,0.299,37.35,-35.31,55.79,0,4
15674.765,-1.04,0.647,0.313,40.71,-37.78,60.98,0,4
15674.781,-1.016,0.673,0.289,44.5,-40.1,66.47,0,4
15674.781,-1.002,0.651,0.276,48.07,-41.87,71.05,0,4
15674.796,-0.985,0.658,0.273,49.41,-43.52,75.05,0,4
15674.796,-0.963,0.656,0.263,49.53,-46.39,77.18,0,4
15674.812,-0.943,0.655,0.237,46.75,-49.5,77.3,0,4
15674.828,-0.924,0.679,0.234,40.22,-51.61,76.27,0,4
15674.828,-0.904,0.694,0.248,31.53,-52.06,73.89,0,4
15674.843,-0.898,0.724,0.242,21.24,-51.58,68.94,0,4
15674.859,-0.905,0.763,0.232,10.07,-48.65,62.99,0,4
15674.859,-0.925,0.794,0.25,-0.61,-43.49,57.92,0,4
15674.875,-0.931,0.854,0.221,-8.73,-37.9,53.07,0,4
15674.89,-0.952,0.849,0.208,-21.15,-32.01,46.42,0,4
15674.89,-1.047,0.838,0.26,-34.88,-31.13,38.3,0,4
15674.906,-1.061,0.857,0.323,-46.69,-32.47,41.29,0,4
15674.921,-1.027,0.899,0.412,-51.7,-36.04,41.75,0,4
15674.921,-1.018,0.884,0.44,-45.96,-38.54,39.22,0,4
15674.937,-1.046,0.839,0.386,-41.72,-37.05,36.38,0,4
15674.937,-1.038,0.811,0.378,-41.81,-32.38,34.64,0,4
15674.953,-1.008,0.762,0.382,-37.23,-27.28,35.22,0,4
15674.968,-0.99,0.725,0.361,-30.82,-22.34,36.01,0,4
15674.984,-1.017,0.74,0.358,-25.33,-14.56,35.83,0,4
15674.984,-1.041,0.766,0.355,-20.54,-7.78,35.8,0,4
15675.0,-1.064,0.816,0.372,-17.06,-2.62,40.38,0,4
15675.0,-1.129,0.881,0.428,-12.18,-0.03,52.83,0,4
15675.015,-1.188,0.89,0.451,-2.78,-2.69,73.43,0,4
15675.031,-1.115,0.939,0.435,12.42,-8.09,97.81,0,4
15675.031,-1.135,0.953,0.327,29.82,-8.24,121.83,0,4
15675.046,-1.028,0.874,0.289,34.09,-4.91,145.97,0,4
15675.046,-1.005,0.85,0.303,33.66,-1.92,157.05,0,4
15675.062,-0.951,0.798,0.283,35.98,2.2,169.47,0,4
15675.078,-0.844,0.691,0.218,32.23,1.95,173.56,0,4
15675.078,-0.746,0.532,0.193,18.77,-0.79,167.36,0,4
15675.093,-0.735,0.5,0.186,2.38,-1.34,155.37,0,4
15675.109,-0.75,0.503,0.12,-11.78,-0.76,138.46,0,4
15675.109,-0.706,0.495,0.104,-29.76,-0.06,121.07,0,4
15675.125,-0.725,0.549,0.109,-47.98,2.96,107.67,0,4
15675.14,-0.758,0.6,0.095,-65.4,4.15,104.37,0,4
15675.14,-0.709,0.628,0.113,-81.91,4.73,108.52,0,4
15675.156,-0.664,0.619,0.114,-92.29,6.53,117.47,0,4
15675.171,-0.693,0.611,0.107,-97.57,10.99,129.0,0,4
15675.171,-0.704,0.611,0.13,-100.56,17.61,136.33,0,4
15675.187,-0.664,0.58,0.161,-100.01,23.93,139.96,0,4
15675.187,-0.68,0.559,0.177,-90.46,33.02,142.03,0,4
15675.203,-0.651,0.615,0.235,-70.71,47.91,143.71,0,4
15675.218,-0.594,0.705,0.306,-43.28,63.91,150.21,0,4
15675.218,-0.612,0.826,0.313,-10.65,77.82,161.99,0,4
15675.234,-0.623,0.909,0.29,25.7,90.61,177.98,0,4
15675.25,-0.631,0.969,0.295,66.16,108.01,195.84,0,4
15675.25,-0.621,1.032,0.29,108.1,127.11,212.71,0,4
15675.265,-0.561,1.095,0.245,145.12,144.93,229.04,0,4
15675.281,-0.493,1.163,0.22,170.51,162.6,246.16,0,4
15675.281,-0.423,1.234,0.216,182.71,176.64,264.78,0,4
15675.296,-0.373,1.304,0.198,182.93,185.58,282.45,0,4
15675.312,-0.352,1.355,0.163,169.93,189.25,295.97,0,4
15675.312,-0.357,1.425,0.167,143.31,183.75,304.76,0,4
15675.328,-0.339,1.503,0.188,108.83,165.38,311.53,0,4
15675.328,-0.322,1.512,0.194,66.29,135.17,318.64,0,4
15675.343,-0.302,1.46,0.2,17.12,95.25,324.14,0,4
15675.359,-0.236,1.359,0.172,-32.5,52.28,327.89,0,4
15675.359,-0.148,1.248,0.14,-81.42,13.18,329.26,0,4
15675.375,-0.07,1.143,0.133,-127.9,-19.93,326.98,0,4
15675.39,0.009,1.022,0.13,-169.19,-49.13,320.93,0,4
15675.39,0.102,0.887,0.121,-202.55,-72.48,311.23,0,4
15675.406,0.168,0.811,0.118,-224.71,-91.13,298.07,0,4
15675.421,0.233,0.761,0.11,-234.47,-107.88,285.47,0,4
15675.421,0.296,0.701,0.101,-234.93,-123.08,275.28,0,4
15675.437,0.373,0.657,0.092,-230.9,-135.72,268.93,0,4
15675.453,0.462,0.63,0.068,-224.28,-144.29,266.67,0,4
15675.453,0.538,0.577,0.032,-216.07,-146.28,265.79,0,4
15675.468,0.604,0.523,0.037,-210.15,-143.04,265.24,0,4
15675.484,0.721,0.479,0.042,-203.53,-137.67,263.22,0,4
15675.484,0.592,0.389,-0.003,-195.2,-132.21,259.25,0,4
15675.5,0.854,0.27,0.033,-184.91,-115.42,270.94,0,4
15675.515,0.864,0.401,0.003,-177.1,-108.19,257.88,0,4
15675.515,0.85,0.259,-0.045,-178.26,-103.24,247.32,0,4
15675.531,0.9,0.152,-0.045,-187.63,-93.66,239.84,0,4
15675.531,0.9,0.146,-0.023,-196.36,-83.35,228.71,0,4
15675.546,0.923,0.099,-0.003,-204.32,-77.27,213.48,0,4
15675.546,0.922,0.043,-0.003,-215.95,-77.7,196.78,0,4
15675.562,0.897,-0.018,0.008,-226.11,-77.82,181.77,0,4
15675.578,0.874,-0.069,0.034,-232.46,-77.88,167.27,0,4
15675.578,0.872,-0.113,0.048,-235.42,-81.88,153.17,0,4
15675.593,0.857,-0.145,0.063,-234.2,-86.73,140.2,0,4
15675.609,0.877,-0.147,0.087,-229.62,-92.65,128.48,0,4
15675.609,0.869,-0.131,0.092,-223.43,-99.12,115.6,0,4
15675.625,0.853,-0.168,0.075,-219.64,-104.74,105.01,0,4
15675.64,0.883,-0.154,0.095,-216.59,-104.8,96.44,0,4
15675.64,0.894,-0.105,0.092,-214.48,-104.4,85.12,0,4
15675.656,0.914,-0.106,0.073,-213.66,-101.17,73.64,0,4
15675.671,0.919,-0.12,0.078,-218.09,-93.33,65.49,0,4
15675.671,0.874,-0.148,0.121,-223.94,-85.02,58.84,0,4
15675.687,0.825,-0.217,0.166,-225.07,-80.26,51.27,0,4
15675.687,0.844,-0.239,0.2,-221.23,-79.87,43.0,0,4
15675.703,0.841,-0.205,0.231,-209.75,-79.5,30.4,0,4
15675.718,0.814,-0.244,0.233,-178.2,-79.32,9.92,0,4
15675.718,0.803,-0.309,0.24,-163.0,-77.49,6.01,0,4
15675.734,0.815,-0.282,0.26,-148.14,-75.44,0.0,0,4
15675.75,0.805,-0.253,0.245,-137.33,-74.5,-7.2,0,4
15675.75,0.765,-0.23,0.178,-129.22,-75.96,-15.96,0,4
15675.765,0.765,-0.192,0.132,-120.21,-82.52,-25.57,0,4
15675.781,0.722,-0.137,0.068,-108.25,-91.04,-31.46,0,4
15675.781,0.705,-0.082,0.002,-98.73,-93.87,-30.73,0,4
15675.796,0.723,-0.039,-0.011,-101.6,-92.47,-25.7,0,4
15675.812,0.726,-0.011,-0.022,-110.08,-89.94,-19.99,0,4
15675.812,0.714,-0.011,-0.056,-116.67,-88.08,-15.72,0,4
15675.828,0.684,-0.024,-0.113,-120.18,-87.83,-13.25,0,4
15675.828,0.648,-0.033,-0.151,-121.59,-84.48,-10.19,0,4
15675.843,0.668,0.008,-0.147,-123.48,-73.64,-9.31,0,4
15675.859,0.717,0.045,-0.084,-127.84,-54.14,-11.05,0,4
15675.859,0.714,0.049,-0.024,-135.01,-32.35,-14.34,0,4
15675.875,0.663,0.018,0.025,-136.94,-14.4,-15.84,0,4
15675.89,0.644,-0.026,0.07,-128.18,-5.77,-14.5,0,4
15675.89,0.62,-0.047,0.074,-108.49,-7.63,-12.79,0,4
15675.906,0.565,-0.061,0.044,-81.18,-9.95,-12.42,0,4
15675.906,0.577,-0.038,0.051,-53.68,-7.02,-13.52,0,4
15675.921,0.664,0.025,0.053,-30.18,-0.52,-15.81,0,4
15675.937,0.687,0.068,0.028,-14.59,7.54,-19.04,0,4
15675.953,0.677,0.084,-0.002,-7.69,14.13,-22.31,0,4
15675.953,0.639,0.088,-0.024,-8.7,17.37,-23.87,0,4
15675.968,0.62,0.085,-0.033,-14.68,15.02,-24.05,0,4
15675.968,0.585,0.112,-0.019,-21.97,8.94,-26.64,0,4
15675.984,0.616,0.168,0.042,-30.21,0.03,-32.32,0,4
15676.0,0.66,0.177,0.094,-37.02,-9.13,-36.01,0,4
15676.015,0.672,0.141,0.091,-37.14,-19.35,-31.74,0,4
15676.015,0.67,0.156,0.101,-29.85,-27.89,-23.44,0,4
15676.031,0.671,0.126,0.064,-14.62,-36.9,-16.69,0,4
15676.031,0.697,0.131,0.003,3.45,-45.53,-10.38,0,4
15676.046,0.698,0.18,-0.04,21.24,-49.2,-5.86,0,4
15676.062,0.715,0.2,-0.097,37.6,-52.16,-2.96,0,4
15676.062,0.727,0.236,-0.162,48.68,-51.94,1.28,0,4
15676.078,0.714,0.264,-0.183,55.64,-46.69,7.57,0,4
15676.078,0.717,0.253,-0.206,61.34,-42.54,16.05,0,4
15676.093,0.71,0.247,-0.25,63.14,-38.33,27.62,0,4
15676.109,0.703,0.23,-0.253,61.04,-34.15,41.29,0,4
15676.109,0.709,0.17,-0.292,52.64,-34.09,55.39,0,4
15676.125,0.707,0.163,-0.335,33.08,-36.1,66.59,0,4
15676.14,0.716,0.148,-0.347,8.18,-38.3,73.27,0,4
15676.14,0.729,0.098,-0.35,-19.44,-41.05,79.68,0,4
15676.156,0.74,0.073,-0.318,-45.35,-43.37,86.25,0,4
15676.156,0.758,0.02,-0.269,-58.53,-43.09,93.84,0,4
15676.171,0.795,-0.049,-0.224,-59.21,-40.41,105.96,0,4
15676.187,0.806,-0.113,-0.196,-50.42,-35.28,121.68,0,4
15676.203,0.811,-0.209,-0.167,-33.75,-31.68,136.17,0,4
15676.203,0.834,-0.332,-0.152,-13.46,-34.24,151.28,0,4
15676.218,0.834,-0.425,-0.16,6.84,-39.7,165.53,0,4
15676.218,0.855,-0.502,-0.19,22.34,-46.42,175.51,0,4
15676.234,0.927,-0.567,-0.229,25.67,-51.67,180.18,0,4
15676.25,0.963,-0.6,-0.255,21.94,-52.25,175.82,0,4
15676.25,0.984,-0.662,-0.258,20.17,-49.41,166.78,0,4
15676.265,1.018,-0.732,-0.241,23.53,-44.59,156.16,0,4
15676.281,1.012,-0.77,-0.226,36.01,-37.6,141.39,0,4
15676.281,1.004,-0.822,-0.224,51.45,-30.03,126.5,0,4
15676.296,0.975,-0.857,-0.229,62.04,-24.2,112.13,0,4
15676.296,0.954,-0.853,-0.231,69.89,-21.49,94.67,0,4
15676.312,0.953,-0.877,-0.243,74.59,-18.83,78.28,0,4
15676.328,0.944,-0.877,-0.254,73.24,-14.95,64.52,0,4
15676.328,0.921,-0.854,-0.259,68.73,-11.35,49.47,0,4
15676.343,0.898,-0.853,-0.264,64.3,-10.35,32.41,0,4
15676.359,0.881,-0.824,-0.259,62.2,-10.25,16.14,0,4
15676.359,0.84,-0.781,-0.246,65.43,-8.88,0.46,0,4
15676.375,0.798,-0.728,-0.252,72.6,-6.1,-13.28,0,4
15676.39,0.779,-0.635,-0.261,78.89,-3.75,-24.08,0,4
15676.39,0.768,-0.544,-0.262,82.83,0.24,-31.5,0,4
15676.406,0.749,-0.476,-0.25,81.79,4.12,-33.91,0,4
15676.421,0.707,-0.397,-0.229,74.56,6.13,-30.52,0,4
15676.421,0.637,-0.319,-0.213,60.82,1.65,-23.59,0,4
15676.437,0.575,-0.246,-0.181,38.73,-11.54,-14.28,0,4
15676.437,0.524,-0.173,-0.17,10.01,-30.46,-1.83,0,4
15676.453,0.546,-0.123,-0.173,-21.64,-51.09,15.72,0,4
15676.468,0.584,-0.118,-0.186,-50.36,-67.81,34.12,0,4
15676.468,0.615,-0.174,-0.191,-68.82,-79.44,51.06,0,4
15676.484,0.668,-0.301,-0.215,-70.56,-85.15,69.06,0,4
15676.5,0.684,-0.404,-0.221,-55.09,-82.28,85.3,0,4
15676.5,0.697,-0.503,-0.255,-28.17,-79.32,97.38,0,4
15676.515,0.718,-0.638,-0.333,-2.5,-76.39,111.55,0,4
15676.531,0.727,-0.669,-0.397,9.86,-72.6,119.51,0,4
15676.531,0.73,-0.703,-0.451,12.48,-69.06,116.64,0,4
15676.546,0.774,-0.71,-0.478,8.36,-65.77,105.56,0,4
15676.546,0.826,-0.663,-0.483,2.04,-59.11,86.76,0,4
15676.562,0.831,-0.63,-0.469,-0.95,-47.3,63.81,0,4
15676.578,0.788,-0.587,-0.432,4.18,-32.53,41.51,0,4
15676.578,0.735,-0.513,-0.378,19.62,-15.14,23.56,0,4
15676.593,0.647,-0.438,-0.306,43.46,2.14,9.8,0,4
15676.609,0.555,-0.365,-0.248,70.5,14.31,0.0,0,4
15676.609,0.478,-0.289,-0.207,96.01,20.23,-2.66,0,4
15676.625,0.427,-0.227,-0.184,118.02,21.06,0.82,0,4
15676.64,0.409,-0.244,-0.213,133.43,14.86,13.15,0,4
15676.64,0.43,-0.344,-0.297,138.49,3.6,40.35,0,4
15676.656,0.457,-0.395,-0.358,131.05,-5.19,74.04,0,4
15676.671,0.474,-0.449,-0.393,109.47,-13.79,100.13,0,4
15676.671,0.489,-0.552,-0.434,76.11,-23.74,116.12,0,4
15676.687,0.498,-0.635,-0.445,39.92,-31.53,122.9,0,4
15676.687,0.524,-0.743,-0.414,12.33,-37.66,121.31,0,4
15676.703,0.561,-0.95,-0.395,2.08,-46.14,115.09,0,4
15676.718,0.582,-1.099,-0.403,16.66,-42.45,111.24,0,4
15676.718,0.594,-1.162,-0.421,31.98,-35.65,100.53,0,4
15676.734,0.606,-1.208,-0.462,39.49,-26.28,85.33,0,4
15676.75,0.594,-1.191,-0.458,41.44,-15.2,67.45,0,4
15676.75,0.578,-1.205,-0.449,40.47,-3.94,50.14,0,4
15676.765,0.569,-1.175,-0.416,37.97,8.67,36.13,0,4
15676.781,0.546,-1.151,-0.376,36.47,22.68,25.73,0,4
15676.781,0.52,-1.134,-0.333,33.6,34.73,20.81,0,4
15676.796,0.495,-1.097,-0.282,29.79,45.01,18.95,0,4
15676.812,0.468,-1.071,-0.239,26.09,52.28,16.27,0,4
15676.812,0.461,-1.053,-0.193,22.1,57.1,13.82,0,4
15676.828,0.452,-1.025,-0.133,19.41,59.76,11.6,0,4
15676.828,0.446,-1.034,-0.089,17.73,57.28,10.56,0,4
15676.843,0.455,-1.041,-0.082,14.34,49.41,12.67,0,4
15676.859,0.473,-1.025,-0.077,9.4,41.81,16.14,0,4
15676.875,0.497,-1.022,-0.071,2.87,34.36,16.63,0,4
15676.875,0.518,-1.017,-0.074,-3.66,27.92,13.58,0,4
15676.89,0.532,-1.007,-0.076,-6.16,23.93,8.88,0,4
15676.89,0.547,-1.002,-0.075,-3.51,21.52,4.85,0,4
15676.906,0.567,-0.994,-0.08,1.53,20.94,2.69,0,4
15676.906,0.568,-0.982,-0.077,6.65,20.91,1.13,0,4
15676.921,0.569,-0.97,-0.091,9.77,19.78,-1.22,0,4
15676.937,0.573,-0.95,-0.095,10.83,18.92,-4.67,0,4
15676.937,0.577,-0.926,-0.102,11.69,18.31,-9.7,0,4
15676.953,0.574,-0.896,-0.103,12.51,19.23,-14.59,0,4
15676.968,0.545,-0.892,-0.097,14.25,21.61,-18.89,0,4
15676.968,0.546,-0.883,-0.091,16.3,22.71,-20.6,0,4
15676.984,0.544,-0.869,-0.086,17.3,22.0,-19.29,0,4
15677.0,0.539,-0.871,-0.082,15.72,20.6,-15.81,0,4
15677.0,0.547,-0.869,-0.084,12.15,17.27,-12.24,0,4
15677.015,0.537,-0.876,-0.087,7.08,13.67,-9.0,0,4
15677.031,0.54,-0.874,-0.09,2.04,9.83,-7.57,0,4
15677.031,0.565,-0.885,-0.096,-1.77,6.41,-7.72,0,4
15677.046,0.582,-0.896,-0.097,-3.27,5.98,-7.42,0,4
15677.046,0.599,-0.892,-0.097,-3.08,7.2,-7.17,0,4
15677.062,0.608,-0.885,-0.092,-3.17,9.28,-7.51,0,4
15677.078,0.606,-0.88,-0.085,-4.49,11.08,-8.85,0,4
15677.078,0.605,-0.88,-0.073,-6.23,11.54,-10.8,0,4
15677.093,0.604,-0.875,-0.064,-6.44,11.72,-12.63,0,4
15677.109,0.613,-0.864,-0.055,-5.58,11.69,-13.92,0,4
15677.125,0.61,-0.849,-0.045,-4.55,12.3,-14.89,0,4
15677.125,0.629,-0.835,-0.034,-4.46,12.57,-15.2,0,4
15677.14,0.63,-0.824,-0.017,-5.43,12.94,-14.68,0,4
15677.14,0.616,-0.818,-0.002,-6.62,11.99,-14.07,0,4
15677.156,0.602,-0.818,0.002,-7.17,8.42,-14.01,0,4
15677.171,0.592,-0.829,0.0,-6.84,3.63,-14.1,0,4
15677.171,0.6,-0.818,0.002,-5.19,-0.82,-14.19,0,4
15677.187,0.604,-0.803,-0.016,-1.92,-4.33,-15.44,0,4
15677.203,0.602,-0.79,-0.03,1.4,-6.59,-16.6,0,4
15677.203,0.595,-0.773,-0.039,4.79,-8.09,-17.7,0,4
15677.218,0.594,-0.768,-0.056,8.03,-9.34,-17.46,0,4
15677.218,0.589,-0.763,-0.074,10.44,-10.1,-15.59,0,4
15677.234,0.589,-0.752,-0.093,11.51,-11.05,-13.31,0,4
15677.25,0.59,-0.738,-0.113,10.59,-11.66,-12.18,0,4
15677.25,0.583,-0.729,-0.129,8.36,-11.84,-11.69,0,4
15677.265,0.586,-0.723,-0.143,6.1,-12.02,-11.2,0,4
15677.281,0.594,-0.722,-0.149,4.03,-11.17,-9.8,0,4
15677.281,0.588,-0.72,-0.149,2.32,-8.94,-7.2,0,4
15677.296,0.584,-0.718,-0.143,0.55,-6.99,-4.73,0,4
15677.312,0.573,-0.729,-0.143,-1.34,-5.46,-2.04,0,4
15677.312,0.568,-0.732,-0.135,-2.69,-5.1,0.34,0,4
15677.328,0.567,-0.741,-0.131,-2.87,-5.16,1.62,0,4
15677.328,0.568,-0.751,-0.141,-1.89,-5.34,2.53,0,4
15677.343,0.574,-0.751,-0.148,0.03,-4.76,3.85,0,4
15677.359,0.574,-0.754,-0.156,1.98,-3.48,4.82,0,4
15677.359,0.57,-0.767,-0.167,2.04,-2.38,6.04,0,4
15677.375,0.569,-0.781,-0.173,-0.18,-1.71,7.84,0,4
15677.39,0.574,-0.795,-0.175,-3.27,-1.43,9.46,0,4
15677.39,0.587,-0.809,-0.174,-6.13,-1.1,10.01,0,4
15677.406,0.598,-0.822,-0.171,-8.27,0.4,9.16,0,4
15677.421,0.603,-0.833,-0.162,-8.58,2.78,7.78,0,4
15677.421,0.598,-0.84,-0.15,-6.93,5.13,6.16,0,4
15677.437,0.595,-0.847,-0.141,-4.36,6.5,4.21,0,4
15677.437,0.584,-0.846,-0.133,-2.23,7.05,2.44,0,4
15677.453,0.582,-0.837,-0.125,-0.58,6.26,-0.03,0,4
15677.468,0.582,-0.831,-0.126,0.95,4.97,-2.75,0,4
15677.468,0.581,-0.821,-0.127,2.9,4.46,-4.58,0,4
15677.484,0.582,-0.801,-0.121,4.3,4.52,-5.19,0,4
15677.5,0.585,-0.788,-0.119,4.67,4.73,-4.67,0,4
15677.5,0.582,-0.784,-0.12,3.63,5.13,-2.96,0,4
15677.515,0.582,-0.787,-0.117,1.37,5.04,-0.15,0,4
15677.531,0.584,-0.792,-0.117,-1.62,4.58,2.26,0,4
15677.531,0.586,-0.799,-0.114,-4.61,3.94,3.39,0,4
15677.546,0.595,-0.804,-0.106,-6.47,3.3,3.2,0,4
15677.546,0.597,-0.807,-0.097,-6.5,3.81,2.23,0,4
15677.562,0.599,-0.81,-0.094,-4.94,4.27,1.59,0,4
15677.578,0.602,-0.814,-0.094,-3.11,4.06,1.59,0,4
15677.578,0.607,-0.817,-0.1,-2.01,3.02,2.29,0,4
15677.593,0.608,-0.815,-0.102,-2.38,2.38,2.62,0,4
15677.609,0.604,-0.817,-0.101,-3.72,2.01,1.89,0,4
15677.609,0.604,-0.819,-0.1,-4.88,1.8,0.79,0,4
15677.625,0.599,-0.817,-0.098,-4.46,2.01,-0.24,0,4
15677.64,0.597,-0.816,-0.103,-2.56,2.47,-0.95,0,4
15677.656,0.598,-0.819,-0.11,-0.15,2.93,-0.95,0,4
15677.656,0.593,-0.818,-0.118,1.53,2.96,-0.46,0,4
15677.656,0.593,-0.819,-0.124,1.62,2.2,0.03,0,4
15677.671,0.599,-0.823,-0.138,0.27,0.89,0.18,0,4
15677.687,0.597,-0.814,-0.141,-4.76,1.22,-0.79,0,4
15677.687,0.597,-0.817,-0.127,-5.28,1.89,-1.34,0,4
15677.703,0.602,-0.808,-0.133,-4.79,3.94,-0.92,0,4
15677.718,0.605,-0.813,-0.125,-4.09,5.65,0.03,0,4
15677.718,0.602,-0.808,-0.124,-3.97,6.71,0.31,0,4
15677.734,0.597,-0.807,-0.115,-4.58,6.93,-0.43,0,4
15677.75,0.595,-0.801,-0.111,-4.82,6.47,-1.65,0,4
15677.75,0.594,-0.796,-0.107,-4.55,6.38,-2.44,0,4
15677.765,0.592,-0.789,-0.099,-4.03,6.35,-2.84,0,4
15677.765,0.597,-0.785,-0.099,-3.78,5.62,-2.5,0,4
15677.781,0.6,-0.785,-0.096,-4.09,4.7,-1.56,0,4
15677.796,0.6,-0.779,-0.093,-4.73,4.09,-0.82,0,4
15677.796,0.6,-0.78,-0.091,-5.4,3.33,-0.58,0,4
15677.812,0.597,-0.784,-0.088,-5.46,2.56,-0.4,0,4
15677.828,0.601,-0.784,-0.086,-4.43,1.95,-0.31,0,4
15677.828,0.604,-0.785,-0.088,-2.44,1.71,-0.31,0,4
15677.843,0.604,-0.79,-0.093,-0.52,1.34,0.06,0,4
15677.859,0.605,-0.791,-0.095,0.52,0.31,1.01,0,4
15677.859,0.603,-0.792,-0.104,0.46,-0.76,1.13,0,4
15677.875,0.602,-0.797,-0.105,-0.43,-1.53,0.67,0,4
15677.89,0.601,-0.796,-0.106,-0.85,-2.08,0.15,0,4
15677.89,0.599,-0.796,-0.107,-0.21,-2.04,-0.03,0,4
15677.906,0.596,-0.796,-0.11,1.04,-1.46,0.15,0,4
15677.921,0.597,-0.795,-0.111,2.2,-0.73,0.4,0,4
15677.921,0.597,-0.791,-0.114,2.41,-0.06,0.67,0,4
15677.937,0.591,-0.789,-0.111,1.53,0.12,0.92,0,4
15677.937,0.589,-0.792,-0.105,0.52,-0.27,0.85,0,4
15677.953,0.581,-0.794,-0.103,0.15,-0.64,1.19,0,4
15677.968,0.584,-0.795,-0.106,0.52,-1.4,1.8,0,4
15677.984,0.591,-0.796,-0.11,0.64,-1.98,2.47,0,4
15678.0,0.589,-0.801,-0.117,0.58,-2.38,3.11,0,4
15678.0,0.587,-0.799,-0.117,-0.82,-3.17,3.69,0,4
15678.015,0.595,-0.813,-0.126,-1.8,-3.27,4.15,0,4
15678.031,0.597,-0.813,-0.12,-3.05,-3.02,4.36,0,4
15678.031,0.602,-0.817,-0.118,-3.45,-2.23,4.36,0,4
15678.046,0.595,-0.826,-0.115,-2.87,-1.07,3.81,0,4
15678.062,0.594,-0.826,-0.11,-1.8,-0.7,3.05,0,4
15678.062,0.593,-0.827,-0.111,-0.12,-0.49,2.11,0,4
15678.078,0.588,-0.824,-0.111,1.56,-0.58,0.85,0,4
15678.093,0.593,-0.82,-0.116,3.11,-0.89,-0.18,0,4
15678.109,0.591,-0.815,-0.12,4.21,-0.46,-0.73,0,4
15678.109,0.586,-0.807,-0.124,5.07,-0.06,-1.28,0,4
15678.109,0.587,-0.802,-0.123,4.58,0.55,-1.25,0,4
15678.109,0.581,-0.797,-0.118,3.2,1.19,-0.58,0,4
15678.125,0.58,-0.8,-0.115,1.65,1.07,0.58,0,4
15678.14,0.582,-0.81,-0.113,0.12,0.55,1.95,0,4
15678.14,0.584,-0.814,-0.111,-1.25,-0.58,2.62,0,4
15678.156,0.584,-0.818,-0.112,-2.11,-1.65,2.17,0,4
15678.171,0.583,-0.815,-0.113,-2.11,-2.38,0.85,0,4
15678.171,0.583,-0.808,-0.11,-0.76,-2.59,-0.64,0,4
15678.187,0.584,-0.799,-0.112,1.16,-1.92,-1.56,0,4
15678.187,0.588,-0.795,-0.116,2.75,-0.89,-1.28,0,4
15678.203,0.585,-0.795,-0.115,3.11,0.03,0.09,0,4
15678.218,0.584,-0.8,-0.113,1.89,-0.43,1.68,0,4
15678.218,0.581,-0.807,-0.112,-0.31,-1.65,2.04,0,4
15678.234,0.581,-0.813,-0.112,-1.71,-3.2,1.37,0,4
15678.25,0.584,-0.814,-0.116,-1.34,-4.36,0.21,0,4
15678.25,0.589,-0.807,-0.122,0.64,-4.49,-0.82,0,4
15678.265,0.591,-0.796,-0.127,2.84,-3.42,-1.37,0,4
15678.281,0.586,-0.789,-0.13,3.3,-2.44,-1.16,0,4
15678.281,0.584,-0.793,-0.136,1.22,-2.29,-0.06,0,4
15678.296,0.583,-0.799,-0.135,-2.26,-2.59,1.16,0,4
15678.296,0.582,-0.805,-0.131,-5.89,-3.36,1.31,0,4
15678.312,0.581,-0.815,-0.124,-8.03,-3.63,0.4,0,4
15678.328,0.579,-0.812,-0.121,-8.91,-3.69,-1.1,0,4
15678.328,0.574,-0.807,-0.118,-9.64,-4.58,-3.02,0,4
15678.343,0.568,-0.803,-0.116,-11.02,-6.29,-4.58,0,4
15678.359,0.574,-0.807,-0.12,-12.45,-8.97,-5.65,0,4
15678.359,0.578,-0.809,-0.126,-13.15,-10.93,-5.8,0,4
15678.375,0.581,-0.809,-0.135,-13.4,-11.84,-5.13,0,4
15678.39,0.586,-0.81,-0.138,-13.09,-11.38,-4.09,0,4
15678.39,0.583,-0.814,-0.144,-12.39,-10.19,-3.11,0,4
15678.406,0.579,-0.817,-0.148,-10.96,-9.03,-2.26,0,4
15678.421,0.581,-0.818,-0.154,-9.13,-8.12,-1.4,0,4
15678.421,0.586,-0.821,-0.165,-7.23,-7.23,-0.43,0,4
15678.437,0.593,-0.821,-0.174,-5.86,-5.89,0.79,0,4
15678.437,0.597,-0.824,-0.179,-5.25,-4.03,1.34,0,4
15678.453,0.59,-0.829,-0.179,-5.1,-2.08,1.43,0,4
15678.468,0.586,-0.828,-0.183,-4.61,-0.82,0.92,0,4
15678.468,0.582,-0.828,-0.182,-3.48,0.67,-0.58,0,4
15678.484,0.583,-0.823,-0.177,-2.23,1.71,-2.35,0,4
15678.5,0.588,-0.813,-0.178,-0.89,2.75,-3.33,0,4
15678.5,0.592,-0.798,-0.174,-0.7,4.03,-3.91,0,4
15678.515,0.596,-0.792,-0.169,-1.43,5.92,-4.06,0,4
15678.531,0.595,-0.792,-0.163,-2.44,7.87,-3.2,0,4
15678.531,0.595,-0.791,-0.147,-3.39,9.25,-1.74,0,4
15678.546,0.594,-0.797,-0.136,-4.33,9.61,-0.7,0,4
15678.562,0.593,-0.803,-0.127,-5.04,9.19,0.31,0,4
15678.562,0.594,-0.813,-0.121,-5.37,8.06,0.79,0,4
15678.578,0.597,-0.818,-0.12,-5.34,6.62,0.76,0,4
15678.578,0.599,-0.817,-0.116,-5.55,5.07,0.0,0,4
15678.593,0.6,-0.82,-0.115,-6.13,3.57,-1.43,0,4
15678.609,0.602,-0.824,-0.115,-6.29,2.32,-2.69,0,4
15678.609,0.606,-0.83,-0.119,-5.77,1.5,-2.87,0,4
15678.625,0.61,-0.841,-0.126,-5.19,0.61,-2.38,0,4
15678.64,0.612,-0.857,-0.135,-4.73,-0.24,-1.71,0,4
15678.64,0.62,-0.866,-0.146,-5.43,-1.04,-1.43,0,4
15678.656,0.627,-0.873,-0.149,-7.51,-1.5,-1.95,0,4
15678.671,0.633,-0.88,-0.151,-12.94,-0.82,-4.64,0,4
15678.671,0.634,-0.882,-0.146,-14.56,-0.49,-7.05,0,4
15678.687,0.632,-0.884,-0.138,-15.17,0.24,-9.31,0,4
15678.687,0.633,-0.884,-0.127,-14.62,0.89,-11.6,0,4
15678.703,0.621,-0.882,-0.107,-12.88,0.92,-13.7,0,4
15678.718,0.613,-0.875,-0.101,-10.53,0.09,-15.99,0,4
15678.734,0.613,-0.872,-0.103,-7.9,-1.8,-18.25,0,4
15678.734,0.609,-0.859,-0.113,-5.52,-3.78,-19.65,0,4
15678.75,0.605,-0.817,-0.132,-4.82,-5.25,-19.9,0,4
15678.75,0.603,-0.771,-0.144,-8.61,-6.74,-18.49,0,4
15678.765,0.596,-0.745,-0.154,-16.97,-8.91,-15.17,0,4
15678.781,0.591,-0.729,-0.165,-27.8,-11.84,-10.77,0,4
15678.781,0.585,-0.736,-0.18,-38.91,-15.63,-5.19,0,4
15678.796,0.591,-0.742,-0.193,-49.32,-19.87,0.76,0,4
15678.796,0.602,-0.758,-0.21,-57.56,-23.01,5.25,0,4
15678.812,0.611,-0.783,-0.223,-63.36,-24.14,8.36,0,4
15678.828,0.615,-0.808,-0.229,-65.83,-23.13,9.86,0,4
15678.828,0.617,-0.836,-0.237,-64.82,-21.21,9.31,0,4
15678.843,0.623,-0.862,-0.237,-61.68,-18.83,7.69,0,4
15678.859,0.631,-0.879,-0.245,-57.1,-15.81,5.19,0,4
15678.859,0.638,-0.893,-0.257,-51.3,-11.84,1.13,0,4
15678.875,0.644,-0.907,-0.255,-45.2,-8.0,-3.91,0,4
15678.89,0.645,-0.915,-0.255,-38.73,-4.39,-9.95,0,4
15678.89,0.64,-0.917,-0.258,-32.53,-1.4,-16.36,0,4
15678.906,0.634,-0.921,-0.269,-27.41,0.18,-22.22,0,4
15678.921,0.636,-0.909,-0.271,-23.68,1.31,-26.55,0,4
15678.921,0.631,-0.892,-0.278,-21.52,2.38,-29.91,0,4
15678.937,0.623,-0.876,-0.285,-23.22,2.69,-32.38,0,4
15678.937,0.619,-0.863,-0.286,-26.83,2.93,-33.75,0,4
15678.953,0.622,-0.844,-0.282,-31.01,3.02,-34.88,0,4
15678.968,0.616,-0.827,-0.278,-34.27,3.51,-36.38,0,4
15678.984,0.612,-0.817,-0.267,-35.46,3.78,-38.3,0,4
15678.984,0.606,-0.814,-0.26,-33.94,3.85,-40.1,0,4
15679.0,0.604,-0.819,-0.271,-30.03,3.27,-40.96,0,4
15679.0,0.612,-0.804,-0.284,-25.67,2.56,-41.26,0,4
15679.015,0.625,-0.788,-0.298,-23.07,2.66,-42.39,0,4
15679.031,0.631,-0.769,-0.307,-22.86,3.75,-43.92,0,4
15679.031,0.632,-0.747,-0.315,-23.32,5.34,-45.84,0,4
15679.046,0.635,-0.737,-0.323,-23.38,6.71,-47.15,0,4
15679.046,0.637,-0.72,-0.327,-22.71,8.64,-47.43,0,4
15679.062,0.636,-0.703,-0.33,-21.55,11.11,-47.43,0,4
15679.078,0.641,-0.683,-0.334,-20.42,13.28,-47.85,0,4
15679.093,0.642,-0.66,-0.333,-19.17,15.47,-49.04,0,4
15679.093,0.639,-0.638,-0.333,-17.67,17.4,-50.45,0,4
15679.109,0.636,-0.61,-0.329,-15.87,18.74,-51.85,0,4
15679.109,0.632,-0.592,-0.326,-14.07,18.83,-53.41,0,4
15679.125,0.637,-0.59,-0.334,-12.6,17.27,-54.35,0,4
15679.14,0.642,-0.58,-0.342,-11.9,15.53,-53.96,0,4
15679.14,0.656,-0.56,-0.352,-13.03,13.67,-53.38,0,4
15679.156,0.677,-0.549,-0.368,-16.45,11.75,-53.13,0,4
15679.171,0.692,-0.538,-0.374,-22.0,11.08,-52.16,0,4
15679.171,0.698,-0.53,-0.37,-27.95,11.26,-51.03,0,4
15679.187,0.7,-0.535,-0.366,-32.47,12.12,-49.04,0,4
15679.187,0.706,-0.533,-0.362,-35.0,13.21,-46.48,0,4
15679.203,0.714,-0.532,-0.356,-36.5,14.22,-43.95,0,4
15679.218,0.717,-0.534,-0.357,-37.48,14.65,-41.51,0,4
15679.234,0.732,-0.523,-0.357,-38.97,14.98,-40.16,0,4
15679.234,0.751,-0.512,-0.345,-41.26,15.84,-39.92,0,4
15679.25,0.763,-0.508,-0.333,-43.37,17.24,-39.98,0,4
15679.25,0.762,-0.51,-0.322,-43.92,18.65,-39.64,0,4
15679.265,0.757,-0.515,-0.313,-43.0,19.2,-38.94,0,4
15679.281,0.761,-0.509,-0.315,-41.99,18.37,-38.64,0,4
15679.281,0.765,-0.503,-0.32,-41.96,17.24,-39.0,0,4
15679.296,0.777,-0.49,-0.311,-43.76,17.06,-39.16,0,4
15679.312,0.792,-0.478,-0.307,-45.01,17.24,-39.4,0,4
15679.312,0.795,-0.47,-0.299,-45.08,17.94,-38.76,0,4
15679.328,0.796,-0.465,-0.292,-43.89,18.56,-37.93,0,4
15679.328,0.789,-0.476,-0.294,-42.21,18.59,-36.32,0,4
15679.343,0.79,-0.471,-0.293,-41.32,18.04,-34.46,0,4
15679.359,0.796,-0.469,-0.296,-40.62,16.63,-33.69,0,4
15679.375,0.802,-0.469,-0.299,-40.68,14.74,-33.57,0,4
15679.375,0.813,-0.466,-0.301,-40.74,13.03,-33.78,0,4
15679.39,0.822,-0.463,-0.305,-39.8,12.21,-33.88,0,4
15679.39,0.817,-0.458,-0.312,-38.3,12.3,-33.81,0,4
15679.406,0.801,-0.436,-0.318,-37.57,12.15,-33.69,0,4
15679.421,0.787,-0.395,-0.33,-38.45,11.23,-33.05,0,4
15679.421,0.786,-0.354,-0.344,-43.06,9.34,-31.34,0,4
15679.437,0.789,-0.324,-0.36,-49.62,7.11,-29.73,0,4
15679.437,0.794,-0.302,-0.364,-56.25,5.28,-27.86,0,4
15679.453,0.804,-0.287,-0.363,-61.13,4.94,-25.03,0,4
15679.468,0.809,-0.278,-0.361,-62.78,6.01,-21.88,0,4
15679.484,0.805,-0.289,-0.359,-61.04,7.29,-18.13,0,4
15679.484,0.797,-0.304,-0.365,-57.01,8.48,-13.55,0,4
15679.5,0.798,-0.312,-0.375,-52.83,8.64,-10.22,0,4
15679.5,0.805,-0.312,-0.376,-50.33,8.12,-9.46,0,4
15679.515,0.813,-0.326,-0.381,-49.5,7.63,-10.38,0,4
15679.531,0.821,-0.345,-0.389,-49.29,7.6,-10.44,0,4
15679.531,0.836,-0.342,-0.391,-48.83,7.9,-11.14,0,4
15679.546,0.852,-0.338,-0.391,-48.46,9.22,-13.46,0,4
15679.546,0.865,-0.329,-0.382,-47.61,11.63,-16.6,0,4
15679.562,0.866,-0.325,-0.369,-44.89,14.4,-19.75,0,4
15679.578,0.87,-0.319,-0.356,-40.19,16.66,-22.37,0,4
15679.593,0.87,-0.317,-0.349,-33.97,18.16,-24.63,0,4
15679.593,0.872,-0.312,-0.349,-28.29,18.77,-26.55,0,4
15679.609,0.876,-0.297,-0.35,-24.41,18.74,-28.84,0,4
15679.609,0.877,-0.284,-0.351,-22.13,18.34,-31.56,0,4
15679.625,0.881,-0.268,-0.357,-21.24,17.67,-33.6,0,4
15679.64,0.884,-0.256,-0.356,-20.97,17.33,-34.82,0,4
15679.64,0.887,-0.249,-0.353,-21.7,17.18,-34.88,0,4
15679.656,0.895,-0.239,-0.359,-23.01,17.27,-34.61,0,4
15679.671,0.897,-0.224,-0.355,-24.84,17.46,-34.7,0,4
15679.671,0.897,-0.217,-0.348,-26.58,17.98,-34.85,0,4
15679.687,0.895,-0.195,-0.33,-27.07,18.37,-35.22,0,4
15679.687,0.902,-0.189,-0.32,-26.61,18.71,-35.4,0,4
15679.703,0.907,-0.177,-0.308,-25.12,19.32,-34.85,0,4
15679.718,0.908,-0.174,-0.297,-22.86,20.26,-33.94,0,4
15679.734,0.908,-0.171,-0.287,-20.97,20.51,-32.5,0,4
15679.734,0.9,-0.163,-0.282,-20.08,19.87,-30.34,0,4
15679.75,0.889,-0.161,-0.285,-20.6,17.61,-28.05,0,4
15679.75,0.884,-0.159,-0.294,-22.58,13.49,-26.25,0,4
15679.765,0.891,-0.159,-0.308,-25.85,8.82,-24.9,0,4
15679.781,0.901,-0.173,-0.323,-29.97,5.04,-22.68,0,4
15679.781,0.907,-0.186,-0.344,-34.27,2.72,-19.78,0,4
15679.796,0.916,-0.195,-0.357,-38.85,1.62,-17.82,0,4
15679.796,0.914,-0.203,-0.37,-43.46,2.17,-17.52,0,4
15679.812,0.916,-0.195,-0.374,-47.49,3.05,-18.77,0,4
15679.828,0.919,-0.196,-0.371,-49.75,4.21,-20.87,0,4
15679.843,0.916,-0.192,-0.37,-49.53,6.47,-22.89,0,4
15679.843,0.913,-0.186,-0.368,-47.46,9.43,-24.69,0,4
15679.859,0.909,-0.177,-0.365,-44.34,12.76,-26.7,0,4
15679.859,0.905,-0.161,-0.362,-41.23,15.75,-28.93,0,4
15679.875,0.898,-0.146,-0.353,-39.28,18.62,-29.91,0,4
15679.89,0.885,-0.127,-0.348,-39.31,21.12,-30.24,0,4
15679.89,0.88,-0.112,-0.344,-41.54,22.43,-30.18,0,4
15679.906,0.879,-0.094,-0.334,-44.98,22.89,-30.03,0,4
15679.921,0.883,-0.08,-0.323,-48.98,23.04,-29.18,0,4
15679.921,0.885,-0.07,-0.316,-53.04,23.53,-27.83,0,4
15679.937,0.89,-0.062,-0.311,-56.25,24.26,-26.4,0,4
15679.937,0.895,-0.06,-0.305,-58.9,24.75,-24.99,0,4
15679.953,0.891,-0.064,-0.3,-60.67,25.64,-23.41,0,4
15679.968,0.884,-0.062,-0.3,-61.89,26.34,-22.1,0,4
15679.984,0.889,-0.058,-0.294,-62.93,26.73,-21.06,0,4
15679.984,0.896,-0.054,-0.287,-64.24,27.38,-20.14,0,4
15680.0,0.909,-0.045,-0.285,-66.23,28.23,-19.47,0,4
15680.0,0.912,-0.039,-0.277,-68.58,29.54,-19.01,0,4
15680.015,0.907,-0.035,-0.265,-70.19,31.22,-19.23,0,4
15680.031,0.905,-0.032,-0.255,-70.8,32.69,-19.96,0,4
15680.031,0.905,-0.022,-0.257,-70.16,33.42,-21.06,0,4
15680.046,0.899,-0.016,-0.253,-69.95,34.33,-21.49,0,4
15680.062,0.897,-0.006,-0.249,-69.8,34.88,-20.87,0,4
15680.062,0.899,0.005,-0.239,-69.98,35.8,-19.1,0,4
15680.078,0.899,0.015,-0.231,-70.86,37.23,-17.09,0,4
15680.078,0.902,0.016,-0.226,-72.7,38.18,-15.35,0,4
15680.093,0.901,0.012,-0.22,-75.11,38.88,-13.86,0,4
15680.109,0.892,-0.003,-0.213,-77.33,39.25,-12.39,0,4
15680.109,0.898,-0.02,-0.212,-79.5,38.82,-10.65,0,4
15680.125,0.895,-0.031,-0.21,-81.06,38.42,-9.49,0,4
15680.14,0.895,-0.038,-0.212,-82.64,37.93,-9.52,0,4
15680.14,0.9,-0.045,-0.214,-84.02,37.9,-10.19,0,4
15680.156,0.893,-0.047,-0.212,-85.45,39.46,-11.6,0,4
15680.171,0.893,-0.051,-0.208,-86.7,41.26,-13.4,0,4
15680.171,0.892,-0.046,-0.202,-87.04,43.76,-15.56,0,4
15680.187,0.887,-0.041,-0.194,-86.73,47.24,-17.94,0,4
15680.187,0.872,-0.035,-0.192,-86.52,51.09,-19.9,0,4
15680.203,0.861,-0.018,-0.188,-86.46,54.72,-22.03,0,4
15680.218,0.841,-0.01,-0.179,-86.52,58.02,-24.14,0,4
15680.218,0.842,0.006,-0.16,-86.89,60.58,-24.93,0,4
15680.234,0.84,0.033,-0.139,-86.79,63.88,-24.96,0,4
15680.25,0.84,0.041,-0.121,-86.55,67.54,-24.75,0,4
15680.25,0.84,0.052,-0.092,-86.4,71.5,-24.45,0,4
15680.265,0.837,0.054,-0.071,-85.73,74.59,-25.12,0,4
15680.281,0.841,0.057,-0.057,-84.9,76.6,-26.34,0,4
15680.281,0.829,0.067,-0.037,-83.68,78.46,-28.26,0,4
15680.296,0.835,0.073,-0.02,-82.22,79.2,-30.43,0,4
15680.312,0.832,0.092,0.001,-80.97,80.57,-32.14,0,4
15680.312,0.832,0.104,0.021,-80.08,81.64,-33.11,0,4
15680.328,0.82,0.119,0.037,-79.04,81.88,-33.48,0,4
15680.328,0.821,0.129,0.051,-78.95,81.55,-32.01,0,4
15680.343,0.818,0.146,0.071,-80.72,82.13,-29.27,0,4
15680.359,0.799,0.161,0.088,-83.44,82.43,-27.71,0,4
15680.375,0.792,0.166,0.112,-86.55,82.25,-26.64,0,4
15680.375,0.796,0.177,0.144,-88.38,82.0,-25.57,0,4
15680.39,0.803,0.188,0.17,-88.84,81.88,-24.54,0,4
15680.39,0.797,0.188,0.19,-87.28,82.46,-23.9,0,4
15680.406,0.796,0.183,0.216,-82.89,82.4,-24.54,0,4
15680.421,0.819,0.179,0.25,-76.24,83.35,-25.21,0,4
15680.421,0.828,0.175,0.291,-66.68,88.41,-25.64,0,4
15680.437,0.839,0.152,0.328,-52.98,95.13,-26.0,0,4
15680.453,0.83,0.111,0.36,-34.36,102.82,-26.8,0,4
15680.453,0.834,0.084,0.373,-10.32,108.77,-29.42,0,4
15680.468,0.815,0.063,0.353,15.78,113.16,-34.64,0,4
15680.468,0.781,0.078,0.33,38.7,115.51,-42.3,0,4
15680.484,0.764,0.116,0.317,55.79,115.91,-51.94,0,4
15680.5,0.753,0.153,0.315,67.14,115.39,-62.2,0,4
15680.5,0.728,0.212,0.327,71.84,114.35,-70.41,0,4
15680.515,0.716,0.263,0.332,68.82,111.18,-75.32,0,4
15680.531,0.71,0.303,0.332,57.71,107.27,-76.39,0,4
15680.531,0.675,0.33,0.346,41.96,104.31,-75.75,0,4
15680.546,0.64,0.36,0.349,24.93,99.55,-75.38,0,4
15680.562,0.613,0.396,0.356,6.5,92.56,-73.43,0,4
15680.562,0.588,0.406,0.365,-11.05,85.6,-69.86,0,4
15680.578,0.611,0.415,0.376,-27.16,80.17,-64.21,0,4
15680.593,0.608,0.417,0.41,-41.26,79.2,-57.95,0,4
15680.593,0.61,0.399,0.437,-50.81,79.38,-52.95,0,4
15680.609,0.618,0.371,0.433,-57.22,80.29,-48.55,0,4
15680.609,0.607,0.368,0.445,-61.62,82.46,-46.02,0,4
15680.625,0.611,0.372,0.456,-64.97,84.75,-45.96,0,4
15680.64,0.582,0.396,0.479,-74.22,92.65,-48.16,0,4
15680.64,0.549,0.394,0.517,-77.3,95.68,-45.81,0,4
15680.656,0.534,0.39,0.563,-77.58,96.19,-42.85,0,4
15680.671,0.481,0.344,0.596,-75.11,94.39,-41.69,0,4
15680.671,0.428,0.334,0.607,-69.95,91.1,-43.86,0,4
15680.687,0.419,0.333,0.602,-62.5,85.79,-48.34,0,4
15680.687,0.402,0.36,0.619,-54.54,82.92,-51.61,0,4
15680.703,0.373,0.358,0.622,-43.34,81.76,-52.92,0,4
15680.718,0.366,0.357,0.596,-31.07,79.68,-52.16,0,4
15680.734,0.373,0.368,0.586,-19.07,79.04,-49.41,0,4
15680.734,0.452,0.385,0.58,-12.63,82.49,-44.95,0,4
15680.75,0.475,0.419,0.594,-17.15,93.6,-40.1,0,4
15680.75,0.459,0.396,0.616,-27.59,104.89,-38.48,0,4
15680.765,0.41,0.367,0.674,-38.48,113.38,-38.18,0,4
15680.781,0.34,0.338,0.739,-42.82,118.66,-39.28,0,4
15680.781,0.329,0.305,0.797,-40.86,120.0,-40.96,0,4
15680.796,0.323,0.304,0.837,-35.92,119.69,-41.41,0,4
15680.812,0.29,0.305,0.851,-30.55,116.86,-41.2,0,4
15680.812,0.306,0.31,0.868,-26.37,112.95,-42.02,0,4
15680.828,0.319,0.333,0.876,-25.85,109.62,-43.18,0,4
15680.828,0.286,0.338,0.885,-27.65,107.33,-46.17,0,4
15680.843,0.228,0.337,0.91,-29.33,105.53,-49.23,0,4
15680.859,0.182,0.334,0.912,-28.53,101.99,-51.3,0,4
15680.859,0.196,0.335,0.908,-27.04,97.14,-51.88,0,4
15680.875,0.225,0.35,0.902,-26.55,94.42,-51.91,0,4
15680.89,0.255,0.369,0.87,-27.99,93.66,-51.85,0,4
15680.906,0.24,0.408,0.87,-36.07,96.22,-50.84,0,4
15680.906,0.184,0.42,0.904,-48.16,100.99,-50.26,0,4
15680.906,0.128,0.399,0.938,-58.9,104.16,-49.2,0,4
15680.921,0.083,0.372,0.972,-63.54,104.43,-47.18,0,4
15680.937,0.081,0.347,0.976,-62.23,100.96,-45.23,0,4
15680.937,0.111,0.357,0.976,-60.61,98.27,-43.49,0,4
15680.953,0.083,0.355,0.976,-58.99,99.09,-42.73,0,4
15680.968,0.039,0.356,0.974,-58.23,99.15,-43.0,0,4
15680.968,0.002,0.359,0.988,-56.61,98.36,-42.51,0,4
15680.984,-0.005,0.334,1.01,-53.13,98.36,-39.49,0,4
15681.0,-0.051,0.304,1.003,-47.73,97.14,-36.47,0,4
15681.0,-0.068,0.259,0.957,-39.06,90.91,-36.93,0,4
15681.015,-0.084,0.253,0.915,-29.39,84.84,-39.74,0,4
15681.031,-0.073,0.296,0.87,-21.58,81.45,-43.73,0,4
15681.031,0.004,0.36,0.847,-23.47,84.2,-43.79,0,4
15681.046,-0.014,0.403,0.857,-33.33,94.85,-40.5,0,4
15681.046,-0.058,0.397,0.892,-46.54,105.26,-35.13,0,4
15681.062,-0.115,0.367,0.947,-58.69,111.42,-28.63,0,4
15681.078,-0.227,0.308,0.978,-62.99,111.3,-24.29,0,4
15681.078,-0.305,0.261,0.972,-59.6,103.03,-22.61,0,4
15681.093,-0.284,0.251,0.949,-53.35,90.58,-22.89,0,4
15681.109,-0.185,0.289,0.896,-51.76,85.18,-21.52,0,4
15681.125,-0.17,0.32,0.871,-58.78,90.3,-19.1,0,4
15681.125,-0.203,0.278,0.881,-66.62,97.42,-16.51,0,4
15681.14,-0.266,0.252,0.889,-71.9,102.88,-11.99,0,4
15681.14,-0.338,0.228,0.88,-74.13,103.98,-8.36,0,4
15681.156,-0.437,0.194,0.863,-72.54,99.58,-7.69,0,4
15681.171,-0.489,0.172,0.843,-64.46,92.47,-8.36,0,4
15681.171,-0.416,0.177,0.813,-54.17,87.34,-5.86,0,4
15681.187,-0.32,0.197,0.785,-48.52,89.51,0.31,0,4
15681.187,-0.304,0.192,0.807,-49.29,101.5,7.78,0,4
15681.203,-0.329,0.129,0.857,-54.05,116.76,15.14,0,4
15681.218,-0.388,0.058,0.902,-59.45,128.42,20.54,0,4
15681.218,-0.481,-0.002,0.944,-61.92,132.39,21.45,0,4
15681.234,-0.536,-0.022,0.988,-62.32,129.03,17.46,0,4
15681.25,-0.555,-0.017,1.03,-61.92,123.84,11.38,0,4
15681.265,-0.583,-0.021,1.056,-59.76,118.53,6.41,0,4
15681.265,-0.633,-0.036,1.05,-52.19,111.97,3.3,0,4
15681.281,-0.612,-0.045,1.034,-38.97,106.3,2.32,0,4
15681.281,-0.55,-0.038,1.038,-26.4,106.42,3.69,0,4
15681.296,-0.538,-0.051,1.033,-16.02,111.55,3.94,0,4
15681.312,-0.546,-0.047,1.007,-10.9,115.91,1.22,0,4
15681.312,-0.584,-0.015,0.989,-10.77,117.74,-3.88,0,4
15681.328,-0.596,0.033,0.983,-15.87,117.65,-8.82,0,4
15681.328,-0.538,0.095,0.998,-30.0,120.18,-8.67,0,4
15681.343,-0.553,0.127,1.034,-48.92,127.38,-5.43,0,4
15681.359,-0.621,0.095,1.079,-64.79,132.15,-2.56,0,4
15681.359,-0.701,0.034,1.118,-70.8,130.16,0.31,0,4
15681.375,-0.756,-0.015,1.134,-66.53,121.28,3.6,0,4
15681.39,-0.792,-0.04,1.118,-54.32,107.61,5.01,0,4
15681.406,-0.765,-0.03,1.07,-39.52,95.13,4.52,0,4
15681.406,-0.708,0.009,1.035,-30.85,91.46,5.34,0,4
15681.421,-0.707,0.025,0.994,-27.53,92.44,5.86,0,4
15681.421,-0.662,0.052,0.967,-28.17,94.49,7.39,0,4
15681.437,-0.656,0.087,0.993,-33.42,100.25,10.74,0,4
15681.453,-0.695,0.067,1.026,-38.76,105.11,13.95,0,4
15681.453,-0.734,0.044,1.062,-40.65,105.78,16.94,0,4
15681.468,-0.778,0.025,1.084,-37.69,101.81,20.05,0,4
15681.468,-0.814,0.007,1.079,-32.44,93.26,22.06,0,4
15681.484,-0.816,-0.008,1.05,-27.16,83.29,24.51,0,4
15681.5,-0.801,-0.029,1.018,-22.58,74.86,26.95,0,4
15681.5,-0.783,-0.057,0.978,-18.89,68.76,28.5,0,4
15681.515,-0.778,-0.081,0.935,-15.66,64.27,28.47,0,4
15681.531,-0.79,-0.093,0.895,-12.6,60.73,27.13,0,4
15681.531,-0.794,-0.088,0.863,-9.25,58.5,25.33,0,4
15681.546,-0.774,-0.071,0.849,-8.55,59.6,25.15,0,4
15681.562,-0.766,-0.065,0.837,-9.86,62.53,24.9,0,4
15681.562,-0.771,-0.062,0.848,-11.81,65.13,25.24,0,4
15681.578,-0.778,-0.057,0.868,-13.28,66.38,26.03,0,4
15681.578,-0.787,-0.064,0.888,-13.43,65.61,27.01,0,4
15681.593,-0.819,-0.062,0.9,-12.27,62.62,27.34,0,4
15681.609,-0.842,-0.061,0.905,-10.9,58.05,26.73,0,4
15681.609,-0.848,-0.061,0.903,-7.48,48.1,23.87,0,4
15681.625,-0.848,-0.064,0.891,-3.6,43.76,22.06,0,4
15681.64,-0.853,-0.065,0.872,2.93,38.94,20.14,0,4
15681.64,-0.853,-0.079,0.842,11.47,35.0,18.62,0,4
15681.656,-0.836,-0.06,0.768,20.2,32.99,16.72,0,4
15681.656,-0.808,-0.039,0.734,26.43,32.78,14.59,0,4
15681.671,-0.791,-0.015,0.714,27.8,36.32,13.43,0,4
15681.687,-0.802,0.002,0.703,26.15,41.66,12.51,0,4
15681.703,-0.812,0.011,0.695,22.34,45.72,12.42,0,4
15681.703,-0.818,0.006,0.689,16.79,48.4,13.58,0,4
15681.718,-0.827,-0.002,0.68,11.11,49.44,13.82,0,4
15681.718,-0.846,0.004,0.668,5.65,48.74,13.37,0,4
15681.734,-0.865,0.007,0.655,0.55,46.72,12.21,0,4
15681.75,-0.873,0.02,0.639,-3.54,44.71,10.62,0,4
15681.75,-0.855,0.039,0.627,-6.9,44.13,9.28,0,4
15681.765,-0.843,0.045,0.62,-9.49,46.6,9.16,0,4
15681.781,-0.845,0.03,0.618,-10.13,51.03,10.22,0,4
15681.781,-0.852,0.011,0.619,-8.09,54.75,11.35,0,4
15681.796,-0.859,-0.003,0.618,-3.78,57.07,11.6,0,4
15681.812,-0.87,-0.005,0.614,1.31,59.02,10.77,0,4
15681.812,-0.885,0.001,0.605,6.32,59.85,9.37,0,4
15681.828,-0.906,0.013,0.597,10.35,59.94,7.9,0,4
15681.828,-0.909,0.028,0.582,12.73,59.72,7.08,0,4
15681.843,-0.901,0.062,0.571,11.32,60.43,7.51,0,4
15681.859,-0.901,0.104,0.554,4.73,61.83,9.46,0,4
15681.875,-0.893,0.137,0.551,-7.51,63.57,13.09,0,4
15681.875,-0.878,0.141,0.573,-23.47,66.07,17.73,0,4
15681.89,-0.86,0.112,0.595,-38.48,69.52,21.88,0,4
15681.89,-0.85,0.085,0.61,-49.53,73.52,24.57,0,4
15681.906,-0.845,0.07,0.621,-57.47,77.61,25.33,0,4
15681.921,-0.849,0.045,0.638,-62.59,82.0,23.44,0,4
15681.921,-0.861,0.027,0.645,-63.33,86.64,18.98,0,4
15681.937,-0.878,0.016,0.636,-60.82,90.58,13.37,0,4
15681.937,-0.894,-0.002,0.627,-55.48,93.33,7.63,0,4
15681.953,-0.902,-0.012,0.599,-47.18,95.31,2.75,0,4
15681.968,-0.905,-0.005,0.577,-38.51,96.74,-1.65,0,4
15681.968,-0.92,0.003,0.553,-30.43,98.09,-5.65,0,4
15681.984,-0.946,0.007,0.507,-24.14,98.73,-7.63,0,4
15682.0,-0.973,0.018,0.471,-19.71,99.4,-7.26,0,4
15682.0,-1.022,0.019,0.454,-18.19,97.08,-5.16,0,4
15682.015,-1.038,-0.022,0.422,-18.59,90.67,-1.5,0,4
15682.031,-1.03,-0.056,0.398,-18.56,81.58,1.68,0,4
15682.031,-1.014,-0.077,0.376,-16.3,69.61,2.53,0,4
15682.046,-0.994,-0.118,0.339,-11.81,56.25,1.59,0,4
15682.046,-0.987,-0.133,0.314,-5.74,44.68,-0.52,0,4
15682.062,-0.977,-0.131,0.286,2.81,35.37,-3.3,0,4
15682.078,-0.962,-0.11,0.241,11.6,28.69,-6.5,0,4
15682.093,-0.95,-0.084,0.194,19.17,25.61,-9.13,0,4
15682.093,-0.943,-0.062,0.144,23.77,25.18,-10.38,0,4
15682.109,-0.937,-0.031,0.095,23.56,25.45,-10.93,0,4
15682.109,-0.936,-0.012,0.059,17.37,26.64,-11.35,0,4
15682.125,-0.941,-0.003,0.043,5.74,29.36,-12.3,0,4
15682.14,-0.955,0.008,0.055,-8.51,32.99,-13.76,0,4
15682.14,-0.978,-0.005,0.075,-22.06,35.74,-13.37,0,4
15682.156,-0.979,-0.027,0.088,-33.6,37.84,-9.64,0,4
15682.171,-0.966,-0.039,0.114,-41.41,38.88,-5.71,0,4
15682.171,-0.959,-0.087,0.134,-43.55,38.21,-4.21,0,4
15682.187,-0.954,-0.12,0.16,-40.5,37.05,-4.85,0,4
15682.203,-0.954,-0.118,0.168,-32.75,35.95,-7.17,0,4
15682.203,-0.976,-0.101,0.163,-22.95,35.62,-10.07,0,4
15682.218,-0.991,-0.088,0.163,-14.71,35.74,-11.38,0,4
15682.218,-1.0,-0.081,0.173,-8.03,36.29,-11.32,0,4
15682.234,-1.013,-0.087,0.171,-1.34,37.54,-10.47,0,4
15682.25,-1.021,-0.107,0.168,4.24,38.7,-9.09,0,4
15682.265,-1.013,-0.124,0.166,9.7,39.46,-8.48,0,4
15682.265,-1.018,-0.105,0.158,14.47,39.16,-9.64,0,4
15682.281,-1.025,-0.075,0.14,15.53,37.51,-11.9,0,4
15682.281,-1.033,-0.04,0.147,11.87,36.65,-14.28,0,4
15682.296,-1.041,-0.029,0.166,6.56,35.98,-15.93,0,4
15682.312,-1.044,-0.061,0.199,2.78,35.16,-16.27,0,4
15682.312,-1.034,-0.092,0.224,4.76,33.66,-15.26,0,4
15682.328,-1.021,-0.099,0.236,11.99,28.96,-14.22,0,4
15682.328,-1.008,-0.101,0.238,21.06,20.51,-14.31,0,4
15682.343,-1.001,-0.077,0.234,29.24,11.14,-14.8,0,4
15682.359,-1.002,-0.035,0.213,34.46,2.35,-15.38,0,4
15682.359,-1.003,0.005,0.178,34.94,-4.82,-15.32,0,4
15682.375,-1.0,0.054,0.142,30.61,-10.41,-15.66,0,4
15682.39,-1.006,0.081,0.101,22.46,-14.95,-15.56,0,4
15682.39,-1.01,0.085,0.06,11.6,-18.34,-12.42,0,4
15682.406,-0.978,0.089,0.032,0.92,-20.78,-7.14,0,4
15682.421,-0.959,0.074,0.006,-7.26,-21.58,-2.93,0,4
15682.421,-0.95,0.054,-0.011,-12.67,-20.72,-0.46,0,4
15682.437,-0.938,0.048,-0.031,-16.17,-17.61,0.7,0,4
15682.437,-0.946,0.06,-0.038,-17.03,-11.35,2.38,0,4
15682.453,-0.943,0.04,-0.043,-13.18,-3.66,6.1,0,4
15682.468,-0.94,0.007,-0.037,-6.23,4.55,9.37,0,4
15682.468,-0.937,0.0,-0.021,1.74,12.76,11.08,0,4
15682.484,-0.951,-0.007,-0.011,7.78,20.42,11.75,0,4
15682.5,-0.967,-0.009,-0.013,8.45,26.92,12.45,0,4
15682.5,-0.965,-0.001,-0.005,1.43,31.01,12.24,0,4
15682.515,-0.97,-0.009,0.016,-9.7,33.33,10.22,0,4
15682.531,-0.98,-0.041,0.033,-21.06,33.97,7.66,0,4
15682.531,-0.99,-0.068,0.053,-29.02,34.42,6.07,0,4
15682.546,-0.988,-0.095,0.056,-30.64,35.34,6.68,0,4
15682.546,-0.976,-0.118,0.054,-27.13,36.59,8.18,0,4
15682.562,-0.966,-0.118,0.041,-20.36,39.12,8.3,0,4
15682.578,-0.969,-0.101,0.01,-14.04,43.09,6.87,0,4
15682.578,-0.97,-0.098,-0.013,-10.62,47.79,5.22,0,4
15682.593,-0.974,-0.092,-0.041,-6.62,61.56,2.26,0,4
15682.609,-0.978,-0.092,-0.058,-6.84,67.96,0.18,0,4
15682.609,-0.987,-0.081,-0.057,-5.22,74.77,-0.64,0,4
15682.625,-0.994,-0.11,-0.013,6.13,81.88,-1.77,0,4
15682.64,-1.059,-0.323,0.139,30.64,84.66,-2.2,0,4
15682.64,-1.056,-0.241,0.09,49.26,77.64,-0.31,0,4
15682.656,-1.042,-0.155,0.051,54.69,66.23,0.09,0,4
15682.671,-1.043,-0.129,0.039,48.46,53.87,-0.55,0,4
15682.671,-1.032,-0.122,0.044,36.44,40.77,-0.31,0,4
15682.687,-1.019,-0.127,0.035,25.61,27.62,-0.98,0,4
15682.687,-1.009,-0.11,0.022,18.31,15.72,-3.78,0,4
15682.703,-1.0,-0.079,-0.007,15.05,6.13,-7.2,0,4
15682.718,-1.004,-0.034,-0.054,12.97,-1.28,-10.53,0,4
15682.734,-1.009,0.03,-0.094,9.34,-5.8,-11.57,0,4
15682.734,-0.993,0.058,-0.107,3.88,-7.66,-9.03,0,4
15682.75,-0.985,0.05,-0.12,2.17,-6.62,-5.19,0,4
15682.75,-0.971,0.038,-0.116,4.0,-4.76,-1.65,0,4
15682.765,-0.949,0.04,-0.115,6.9,-3.63,0.89,0,4
15682.781,-0.95,0.047,-0.118,7.78,-3.17,2.29,0,4
15682.781,-0.954,0.034,-0.103,5.07,-3.72,3.3,0,4
15682.796,-0.963,0.013,-0.084,1.28,-5.13,4.03,0,4
15682.796,-0.974,0.0,-0.07,-2.11,-7.45,4.58,0,4
15682.812,-0.987,-0.01,-0.065,-4.49,-10.77,4.7,0,4
15682.828,-0.992,-0.022,-0.066,-6.29,-14.28,4.67,0,4
15682.828,-1.005,-0.042,-0.077,-7.6,-17.55,5.04,0,4
15682.843,-1.004,-0.061,-0.094,-8.88,-19.96,5.55,0,4
15682.859,-0.981,-0.061,-0.104,-9.55,-20.78,5.49,0,4
15682.859,-0.971,-0.056,-0.114,-9.22,-20.05,4.73,0,4
15682.875,-0.96,-0.057,-0.124,-8.06,-17.03,3.94,0,4
15682.89,-0.95,-0.048,-0.119,-7.05,-12.48,3.02,0,4
15682.89,-0.952,-0.056,-0.103,-6.07,-7.63,2.04,0,4
15682.906,-0.966,-0.082,-0.085,-4.67,-3.33,1.37,0,4
15682.906,-0.97,-0.091,-0.068,-2.56,-0.98,1.01,0,4
15682.921,-0.98,-0.087,-0.062,-0.55,-0.67,0.18,0,4
15682.937,-0.998,-0.088,-0.056,0.21,-1.25,-0.58,0,4
15682.937,-0.995,-0.081,-0.059,0.27,-3.3,-0.92,0,4
