timestamp,ax,ay,az,gx,gy,gz,orient_label,motion_label
15472.953,-0.111,-1.01,-0.103,-6.5,-11.32,25.57,0,3
15472.953,-0.104,-1.029,-0.094,-2.5,-5.49,27.13,0,3
15472.968,-0.104,-1.06,-0.089,0.18,-0.95,25.91,0,3
15472.984,-0.111,-1.075,-0.086,-0.09,1.92,22.98,0,3
15472.984,-0.12,-1.071,-0.081,-2.72,3.08,19.56,0,3
15473.0,-0.134,-1.067,-0.073,-6.13,3.36,16.3,0,3
15473.015,-0.158,-1.051,-0.061,-9.16,2.75,14.74,0,3
15473.015,-0.172,-1.058,-0.053,-10.93,0.55,15.11,0,3
15473.031,-0.167,-1.08,-0.047,-11.32,-2.38,16.3,0,3
15473.046,-0.159,-1.087,-0.039,-9.89,-4.79,16.24,0,3
15473.046,-0.16,-1.093,-0.04,-6.47,-6.13,13.92,0,3
15473.062,-0.167,-1.084,-0.044,-1.89,-6.38,10.62,0,3
15473.062,-0.165,-1.056,-0.047,2.08,-5.46,7.6,0,3
15473.078,-0.164,-1.03,-0.051,4.67,-3.85,4.82,0,3
15473.093,-0.167,-0.998,-0.058,5.62,-1.68,2.56,0,3
15473.093,-0.18,-0.974,-0.059,4.27,0.46,1.53,0,3
15473.109,-0.195,-0.976,-0.054,2.59,0.79,1.74,0,3
15473.125,-0.204,-0.975,-0.046,1.89,-0.37,3.54,0,3
15473.14,-0.202,-0.984,-0.043,2.38,-3.08,5.4,0,3
15473.14,-0.192,-0.992,-0.05,3.75,-6.1,6.16,0,3
15473.14,-0.189,-0.992,-0.065,3.54,-8.42,6.32,0,3
15473.156,-0.181,-1.008,-0.075,1.86,-9.8,6.59,0,3
15473.171,-0.17,-1.021,-0.082,-0.06,-9.52,6.78,0,3
15473.171,-0.163,-1.041,-0.087,-1.43,-8.06,6.44,0,3
15473.187,-0.159,-1.056,-0.085,-2.23,-6.2,5.1,0,3
15473.203,-0.157,-1.065,-0.083,-1.68,-4.3,2.44,0,3
15473.203,-0.164,-1.07,-0.088,-0.4,-2.87,-0.18,0,3
15473.218,-0.166,-1.065,-0.089,0.46,-2.2,-2.29,0,3
15473.234,-0.166,-1.052,-0.092,1.07,-1.16,-4.52,0,3
15473.25,-0.168,-1.04,-0.087,1.77,0.52,-6.35,0,3
15473.25,-0.177,-1.033,-0.075,4.76,2.17,-7.97,0,3
15473.25,-0.184,-1.013,-0.07,4.21,1.16,-8.21,0,3
15473.265,-0.19,-0.997,-0.074,1.71,-0.4,-8.06,0,3
15473.281,-0.187,-0.998,-0.074,-0.55,-1.5,-7.93,0,3
15473.296,-0.178,-1.005,-0.062,-0.52,-2.66,-8.3,0,3
15473.312,-0.185,-1.02,-0.055,1.8,-2.44,-8.64,0,3
15473.312,-0.191,-1.046,-0.048,5.19,-2.14,-8.67,0,3
15473.328,-0.184,-1.077,-0.047,8.61,-2.17,-8.91,0,3
15473.343,-0.182,-1.116,-0.047,11.17,-2.72,-10.22,0,3
15473.343,-0.182,-1.154,-0.048,14.22,-3.57,-13.06,0,3
15473.359,-0.177,-1.159,-0.046,16.51,-3.75,-16.57,0,3
15473.375,-0.189,-1.157,-0.046,16.51,-3.72,-20.78,0,3
15473.375,-0.202,-1.164,-0.039,14.71,-3.97,-24.99,0,3
15473.39,-0.217,-1.185,-0.024,12.91,-4.12,-28.41,0,3
15473.406,-0.235,-1.229,-0.012,13.0,-4.03,-31.01,0,3
15473.406,-0.248,-1.278,-0.004,15.17,-5.22,-34.0,0,3
15473.421,-0.259,-1.327,-0.008,19.84,-8.24,-38.51,0,3
15473.421,-0.281,-1.369,-0.028,25.45,-12.27,-43.82,0,3
15473.437,-0.296,-1.405,-0.047,30.15,-16.11,-48.71,0,3
15473.453,-0.291,-1.451,-0.052,34.36,-19.5,-53.68,0,3
15473.453,-0.264,-1.503,-0.003,44.22,-20.14,-63.11,0,3
15473.468,-0.242,-1.544,0.077,68.91,-15.38,-82.4,0,3
15473.484,-0.252,-1.619,0.147,110.97,-6.93,-106.6,0,3
15473.484,-0.3,-1.546,0.165,162.66,5.04,-126.1,0,3
15473.5,-0.334,-1.385,0.147,201.39,15.56,-140.23,0,3
15473.515,-0.365,-1.199,0.071,211.43,22.49,-149.66,0,3
15473.515,-0.378,-0.944,0.027,178.66,26.06,-146.76,0,3
15473.531,-0.391,-0.844,0.06,115.39,22.83,-139.19,0,3
15473.546,-0.377,-0.887,0.13,48.77,14.07,-129.31,0,3
15473.546,-0.334,-0.955,0.201,-1.37,4.15,-117.62,0,3
15473.562,-0.277,-1.062,0.272,-26.18,-5.22,-108.04,0,3
15473.578,-0.222,-1.133,0.32,-25.36,-13.15,-104.43,0,3
15473.578,-0.179,-1.185,0.322,-4.33,-19.17,-106.42,0,3
15473.593,-0.149,-1.216,0.308,26.61,-22.8,-111.61,0,3
15473.593,-0.112,-1.212,0.291,61.4,-23.62,-120.85,0,3
15473.609,-0.08,-1.199,0.258,97.35,-21.79,-132.94,0,3
15473.625,-0.058,-1.066,0.143,150.79,-10.38,-151.19,0,3
15473.64,-0.049,-0.91,0.073,150.52,-3.78,-155.43,0,3
15473.656,-0.029,-0.766,0.023,121.62,0.92,-155.46,0,3
15473.656,-0.019,-0.707,0.04,74.34,3.81,-153.97,0,3
15473.671,-0.004,-0.693,0.095,26.73,4.64,-152.87,0,3
15473.671,0.014,-0.704,0.14,-8.97,3.48,-151.19,0,3
15473.687,0.036,-0.734,0.178,-28.29,1.43,-147.68,0,3
15473.703,0.068,-0.763,0.213,-31.37,-2.17,-142.95,0,3
15473.703,0.1,-0.782,0.224,-20.87,-6.59,-138.34,0,3
15473.718,0.136,-0.796,0.196,-1.98,-10.35,-134.31,0,3
15473.734,0.165,-0.798,0.15,20.11,-12.05,-131.57,0,3
15473.75,0.185,-0.788,0.098,40.31,-12.02,-130.1,0,3
15473.75,0.21,-0.756,0.047,52.43,-10.99,-129.43,0,3
15473.765,0.235,-0.716,-0.004,53.53,-8.18,-129.76,0,3
15473.765,0.264,-0.68,-0.021,43.67,-3.05,-130.07,0,3
15473.781,0.284,-0.661,-0.003,26.49,3.36,-131.14,0,3
15473.796,0.29,-0.662,0.075,-1.5,13.12,-137.39,0,3
15473.812,0.283,-0.669,0.114,-3.33,14.53,-140.2,0,3
15473.812,0.28,-0.67,0.138,3.02,12.79,-141.58,0,3
15473.828,0.289,-0.647,0.139,14.77,7.23,-142.4,0,3
15473.843,0.299,-0.603,0.119,28.32,0.61,-143.89,0,3
15473.843,0.316,-0.564,0.093,41.26,-5.74,-145.91,0,3
15473.859,0.317,-0.518,0.071,53.22,-9.37,-147.71,0,3
15473.875,0.322,-0.465,0.048,63.26,-11.41,-149.66,0,3
15473.875,0.341,-0.41,0.029,71.02,-13.28,-152.26,0,3
15473.89,0.365,-0.341,0.002,76.24,-15.44,-155.22,0,3
15473.89,0.393,-0.271,-0.032,77.64,-18.16,-157.41,0,3
15473.906,0.405,-0.208,-0.05,74.59,-18.98,-158.12,0,3
15473.921,0.388,-0.158,-0.054,69.58,-17.94,-157.72,0,3
15473.921,0.371,-0.13,-0.049,65.37,-16.82,-156.77,0,3
15473.937,0.383,-0.11,-0.044,63.2,-16.85,-154.55,0,3
15473.953,0.441,-0.096,-0.066,63.88,-21.06,-150.79,0,3
15473.968,0.504,-0.061,-0.11,66.87,-26.83,-146.21,0,3
15473.968,0.57,-0.02,-0.146,69.77,-29.57,-141.36,0,3
15473.984,0.626,0.014,-0.178,70.65,-29.66,-137.3,0,3
15473.984,0.653,0.05,-0.19,68.36,-23.71,-132.6,0,3
15474.0,0.651,0.069,-0.168,62.59,-12.48,-127.45,0,3
15474.015,0.632,0.078,-0.129,56.18,1.71,-123.23,0,3
15474.015,0.637,0.087,-0.096,51.73,15.17,-120.73,0,3
15474.031,0.661,0.105,-0.078,50.02,22.55,-118.93,0,3
15474.046,0.67,0.142,-0.074,50.29,29.08,-115.36,0,3
15474.046,0.665,0.171,-0.041,50.51,37.48,-110.02,0,3
15474.062,0.661,0.176,0.014,50.87,45.29,-105.01,0,3
15474.062,0.648,0.175,0.071,51.64,54.2,-100.34,0,3
15474.078,0.643,0.157,0.143,52.55,62.32,-96.35,0,3
15474.093,0.676,0.141,0.204,56.67,65.46,-95.65,0,3
15474.093,0.712,0.133,0.22,66.32,62.87,-98.03,0,3
15474.109,0.724,0.126,0.194,80.17,56.06,-101.08,0,3
15474.125,0.71,0.128,0.175,95.8,49.5,-102.42,0,3
15474.14,0.691,0.153,0.171,110.05,44.47,-103.37,0,3
15474.14,0.706,0.192,0.168,118.44,42.97,-104.89,0,3
15474.156,0.732,0.226,0.175,118.66,45.08,-105.96,0,3
15474.156,0.794,0.251,0.192,113.41,47.4,-107.64,0,3
15474.171,0.853,0.282,0.188,107.3,47.46,-111.09,0,3
15474.171,0.868,0.306,0.183,103.79,47.21,-114.9,0,3
15474.187,0.863,0.33,0.187,101.87,45.05,-118.56,0,3
15474.203,0.866,0.357,0.203,99.0,43.18,-120.58,0,3
15474.203,0.849,0.375,0.242,94.39,44.04,-120.55,0,3
15474.218,0.85,0.379,0.286,88.84,45.87,-120.06,0,3
15474.234,0.905,0.386,0.328,80.69,51.7,-121.34,0,3
15474.25,0.932,0.407,0.368,77.76,55.24,-123.14,0,3
15474.25,0.941,0.441,0.399,74.04,52.95,-127.02,0,3
15474.265,0.942,0.49,0.407,71.14,47.27,-131.11,0,3
15474.265,0.935,0.558,0.408,67.2,42.54,-132.45,0,3
15474.281,0.929,0.589,0.432,61.56,41.47,-131.11,0,3
15474.296,0.924,0.6,0.531,48.65,56.03,-128.79,0,3
15474.312,0.904,0.6,0.577,47.61,67.17,-130.86,0,3
15474.328,0.872,0.66,0.626,50.57,77.64,-135.47,0,3
15474.328,0.839,0.771,0.676,53.56,85.27,-141.54,0,3
15474.343,0.79,0.917,0.716,52.64,89.66,-146.64,0,3
15474.343,0.702,1.008,0.748,45.32,91.1,-145.94,0,3
15474.359,0.643,1.04,0.806,32.07,89.18,-137.85,0,3
15474.375,0.609,1.059,0.869,16.97,86.49,-123.94,0,3
15474.375,0.571,1.045,0.923,3.57,82.86,-111.18,0,3
15474.39,0.542,0.977,0.977,-5.62,79.07,-101.17,0,3
15474.406,0.586,0.917,0.998,-11.81,71.87,-91.8,0,3
15474.406,0.6,0.917,1.0,-19.99,61.71,-89.33,0,3
15474.421,0.594,0.879,1.0,-24.93,53.01,-87.5,0,3
15474.437,0.586,0.899,0.999,-27.59,44.8,-87.83,0,3
15474.437,0.591,0.94,0.983,-30.92,38.94,-88.84,0,3
15474.453,0.575,0.903,0.966,-34.18,37.93,-86.09,0,3
15474.468,0.538,0.876,0.946,-24.57,43.58,-72.15,0,3
15474.484,0.496,0.852,0.927,-11.63,47.0,-64.79,0,3
15474.484,0.461,0.85,0.907,2.47,50.51,-58.6,0,3
15474.5,0.432,0.88,0.905,12.97,56.15,-52.22,0,3
15474.515,0.421,0.887,0.933,14.13,63.33,-44.37,0,3
15474.515,0.399,0.856,0.967,8.12,70.04,-36.16,0,3
15474.531,0.37,0.826,1.005,-0.98,72.08,-29.79,0,3
15474.546,0.357,0.808,1.034,-10.04,68.06,-27.56,0,3
15474.546,0.341,0.806,1.045,-17.24,59.66,-29.18,0,3
15474.562,0.306,0.814,1.033,-21.58,48.68,-31.22,0,3
15474.562,0.275,0.844,0.995,-22.83,36.65,-31.28,0,3
15474.578,0.272,0.864,0.948,-21.91,26.4,-28.17,0,3
15474.593,0.278,0.841,0.907,-20.33,21.21,-21.7,0,3
15474.609,0.322,0.825,0.884,-19.68,21.58,-12.73,0,3
15474.609,0.324,0.785,0.873,-18.86,26.46,-6.2,0,3
15474.625,0.322,0.732,0.862,-18.77,31.5,-2.72,0,3
15474.64,0.29,0.663,0.855,-22.95,34.3,-0.89,0,3
15474.656,0.291,0.65,0.842,-24.63,32.17,-2.38,0,3
15474.656,0.278,0.646,0.831,-28.08,29.79,-4.7,0,3
15474.671,0.264,0.64,0.834,-33.05,27.19,-5.83,0,3
15474.671,0.255,0.637,0.839,-36.5,25.21,-5.46,0,3
15474.687,0.248,0.614,0.847,-38.06,23.96,-3.48,0,3
15474.703,0.249,0.583,0.856,-35.71,22.86,-1.37,0,3
15474.718,0.258,0.559,0.854,-28.26,22.31,-1.01,0,3
15474.718,0.263,0.537,0.838,-17.4,22.64,-1.53,0,3
15474.734,0.271,0.539,0.807,-5.95,23.16,-2.75,0,3
15474.734,0.265,0.553,0.769,2.59,23.87,-4.61,0,3
15474.75,0.258,0.568,0.738,4.79,25.12,-6.35,0,3
15474.765,0.253,0.578,0.72,0.12,26.55,-8.7,0,3
15474.765,0.246,0.578,0.708,-8.94,28.53,-10.56,0,3
15474.781,0.241,0.584,0.713,-21.3,31.65,-12.21,0,3
15474.796,0.245,0.591,0.731,-34.42,35.19,-14.77,0,3
15474.812,0.197,0.566,0.794,-46.02,36.74,-15.44,0,3
15474.828,0.198,0.549,0.826,-43.95,33.94,-12.02,0,3
15474.828,0.196,0.517,0.844,-36.35,29.3,-8.42,0,3
15474.843,0.22,0.494,0.843,-26.49,22.98,-5.55,0,3
15474.843,0.244,0.477,0.818,-16.08,16.94,-4.3,0,3
15474.859,0.261,0.466,0.784,-6.99,13.12,-4.7,0,3
15474.875,0.268,0.467,0.754,-1.65,12.82,-6.26,0,3
15474.875,0.26,0.489,0.738,-1.43,15.96,-8.24,0,3
15474.89,0.245,0.51,0.739,-5.92,21.36,-10.28,0,3
15474.906,0.218,0.536,0.755,-13.67,26.28,-11.78,0,3
15474.906,0.187,0.558,0.778,-22.49,29.48,-12.7,0,3
15474.921,0.171,0.556,0.805,-29.51,30.09,-12.02,0,3
15474.937,0.159,0.54,0.827,-32.69,28.78,-10.86,0,3
15474.937,0.152,0.512,0.837,-31.53,26.15,-9.31,0,3
15474.953,0.153,0.488,0.839,-26.37,23.22,-8.18,0,3
15474.953,0.159,0.471,0.835,-18.65,21.27,-7.48,0,3
15474.968,0.159,0.471,0.832,-10.65,20.2,-7.2,0,3
15474.984,0.165,0.473,0.82,-3.66,20.14,-7.29,0,3
15474.984,0.162,0.486,0.815,0.21,21.42,-7.66,0,3
15475.0,0.151,0.504,0.813,0.52,23.56,-9.19,0,3
15475.015,0.142,0.517,0.818,-2.17,25.12,-10.77,0,3
15475.015,0.125,0.531,0.829,-6.93,25.48,-11.69,0,3
15475.031,0.109,0.541,0.842,-11.81,23.96,-11.87,0,3
15475.046,0.097,0.538,0.859,-15.26,21.15,-10.71,0,3
15475.046,0.086,0.528,0.875,-16.3,18.1,-8.21,0,3
15475.062,0.085,0.514,0.887,-14.89,14.71,-6.1,0,3
15475.062,0.094,0.497,0.89,-11.35,11.35,-4.88,0,3
15475.078,0.104,0.492,0.887,-7.05,9.28,-4.55,0,3
15475.093,0.115,0.497,0.881,-2.84,8.64,-5.58,0,3
15475.093,0.112,0.517,0.87,-0.12,8.73,-6.9,0,3
15475.109,0.104,0.54,0.863,-0.09,8.73,-7.54,0,3
15475.125,0.089,0.568,0.856,-2.29,8.51,-8.58,0,3
15475.125,0.067,0.536,0.865,-7.63,7.05,-6.13,0,3
15475.156,0.104,0.551,0.876,-11.32,2.44,-2.69,0,3
15475.156,0.09,0.533,0.876,-10.41,1.74,-2.78,0,3
15475.171,0.09,0.508,0.886,-9.92,0.31,-1.56,0,3
15475.171,0.105,0.503,0.888,-6.5,-1.22,-0.52,0,3
15475.187,0.089,0.481,0.884,-1.59,-2.41,0.7,0,3
15475.203,0.108,0.489,0.89,0.95,-4.21,1.68,0,3
15475.203,0.114,0.491,0.878,3.39,-5.19,0.46,0,3
15475.218,0.1,0.49,0.859,1.77,-6.56,-1.98,0,3
15475.234,0.101,0.502,0.843,-0.4,-6.96,-2.44,0,3
15475.234,0.099,0.501,0.834,-1.77,-7.9,-2.04,0,3
15475.25,0.111,0.471,0.833,-1.01,-9.4,-1.46,0,3
15475.265,0.118,0.457,0.839,2.23,-10.68,-1.65,0,3
15475.265,0.115,0.443,0.844,6.87,-12.54,-2.35,0,3
15475.281,0.106,0.448,0.845,11.66,-15.41,-3.42,0,3
15475.281,0.103,0.465,0.844,14.28,-19.68,-4.09,0,3
15475.296,0.107,0.494,0.842,11.38,-25.15,-4.46,0,3
15475.328,0.131,0.496,0.837,-1.31,-34.39,-4.39,0,3
15475.328,0.142,0.49,0.842,-5.83,-34.49,-3.88,0,3
15475.343,0.15,0.479,0.851,-6.23,-31.53,-3.05,0,3
15475.343,0.151,0.478,0.861,-3.57,-27.01,-2.66,0,3
15475.359,0.156,0.489,0.871,0.85,-22.1,-2.44,0,3
15475.375,0.157,0.509,0.871,5.52,-18.04,-3.11,0,3
15475.375,0.153,0.525,0.872,8.79,-15.5,-3.78,0,3
15475.39,0.161,0.54,0.87,9.7,-13.92,-3.51,0,3
15475.406,0.163,0.545,0.863,8.61,-12.48,-3.3,0,3
15475.406,0.17,0.539,0.856,6.81,-10.38,-2.69,0,3
15475.421,0.176,0.531,0.85,4.97,-7.6,-2.17,0,3
15475.421,0.183,0.532,0.845,2.81,-4.49,-2.62,0,3
15475.437,0.182,0.529,0.843,0.37,-1.28,-3.54,0,3
15475.453,0.179,0.527,0.845,-2.23,1.56,-4.61,0,3
15475.453,0.177,0.52,0.845,-4.15,3.75,-5.86,0,3
15475.468,0.172,0.517,0.842,-4.33,5.34,-7.08,0,3
15475.5,0.153,0.528,0.845,-0.4,7.02,-8.36,0,3
15475.5,0.155,0.537,0.843,2.69,6.68,-7.93,0,3
15475.515,0.152,0.542,0.841,5.98,6.04,-6.74,0,3
15475.515,0.148,0.55,0.834,8.88,5.52,-5.13,0,3
15475.531,0.147,0.56,0.824,10.13,5.13,-3.36,0,3
15475.546,0.144,0.554,0.818,9.98,4.94,-2.53,0,3
15475.546,0.14,0.549,0.815,8.42,4.85,-2.14,0,3
15475.562,0.142,0.551,0.812,5.68,4.76,-2.26,0,3
15475.562,0.137,0.553,0.813,1.68,4.58,-2.53,0,3
15475.578,0.135,0.548,0.817,-2.56,3.51,-2.44,0,3
15475.593,0.131,0.539,0.82,-5.83,1.89,-2.11,0,3
15475.593,0.131,0.522,0.82,-6.81,0.15,-1.65,0,3
15475.609,0.132,0.506,0.824,-5.77,-0.95,-1.22,0,3
15475.625,0.13,0.496,0.825,-3.36,-1.71,-1.13,0,3
15475.625,0.135,0.487,0.821,-0.34,-2.32,-1.04,0,3
15475.64,0.14,0.481,0.819,1.59,-2.78,-0.76,0,3
15475.656,0.141,0.472,0.82,2.29,-3.2,-1.28,0,3
15475.656,0.144,0.471,0.826,2.11,-3.75,-2.11,0,3
15475.671,0.146,0.467,0.836,1.37,-4.97,-3.05,0,3
15475.671,0.141,0.455,0.852,0.76,-7.39,-3.88,0,3
15475.687,0.14,0.451,0.864,1.04,-11.57,-4.67,0,3
15475.703,0.137,0.455,0.87,1.71,-16.97,-6.29,0,3
15475.703,0.145,0.467,0.874,1.68,-22.86,-8.58,0,3
15475.718,0.155,0.478,0.879,1.16,-27.47,-10.96,0,3
15475.734,0.157,0.485,0.882,1.01,-29.02,-13.52,0,3
15475.734,0.164,0.502,0.886,1.43,-28.41,-15.29,0,3
15475.75,0.167,0.514,0.886,3.27,-26.58,-16.02,0,3
15475.765,0.163,0.518,0.887,6.26,-24.51,-16.3,0,3
15475.765,0.162,0.526,0.89,9.16,-23.59,-16.6,0,3
15475.781,0.163,0.539,0.885,12.27,-24.05,-16.97,0,3
15475.796,0.162,0.549,0.878,14.47,-25.61,-17.0,0,3
15475.796,0.161,0.551,0.861,15.78,-27.89,-16.51,0,3
15475.812,0.167,0.556,0.841,15.38,-30.18,-15.93,0,3
15475.812,0.178,0.565,0.822,13.0,-32.23,-15.59,0,3
15475.828,0.184,0.57,0.797,9.19,-33.23,-15.38,0,3
15475.843,0.198,0.567,0.776,4.18,-33.45,-15.14,0,3
15475.843,0.211,0.566,0.76,0.03,-32.62,-14.71,0,3
15475.859,0.213,0.558,0.748,-2.26,-29.79,-14.25,0,3
15475.875,0.221,0.556,0.746,-2.29,-25.57,-13.79,0,3
15475.875,0.217,0.558,0.747,-0.4,-20.94,-13.37,0,3
15475.89,0.216,0.561,0.745,2.93,-16.27,-12.27,0,3
15475.906,0.219,0.571,0.74,6.5,-11.35,-10.32,0,3
15475.906,0.217,0.588,0.736,9.64,-5.58,-8.39,0,3
15475.921,0.207,0.602,0.734,10.8,0.21,-6.16,0,3
15475.937,0.2,0.608,0.736,9.89,5.25,-3.88,0,3
15475.937,0.194,0.616,0.734,7.23,8.97,-1.46,0,3
15475.953,0.188,0.62,0.742,3.14,11.47,0.58,0,3
15475.953,0.18,0.61,0.756,-1.77,12.48,2.2,0,3
15475.968,0.176,0.597,0.771,-6.26,11.99,3.51,0,3
15475.984,0.175,0.581,0.783,-9.4,10.9,4.67,0,3
15475.984,0.171,0.566,0.797,-10.93,9.95,5.28,0,3
15476.0,0.172,0.554,0.808,-10.77,9.03,5.04,0,3
15476.015,0.182,0.545,0.809,-9.52,8.03,4.52,0,3
15476.015,0.182,0.544,0.808,-8.36,7.2,4.21,0,3
15476.031,0.182,0.543,0.807,-7.51,6.99,3.72,0,3
15476.031,0.184,0.543,0.812,-7.11,7.14,3.78,0,3
15476.046,0.183,0.538,0.817,-6.68,7.57,3.97,0,3
15476.062,0.184,0.533,0.823,-6.41,7.75,4.0,0,3
15476.062,0.184,0.528,0.825,-6.07,7.54,3.81,0,3
15476.078,0.184,0.519,0.829,-5.31,6.93,2.96,0,3
15476.093,0.185,0.518,0.828,-4.15,5.98,1.86,0,3
15476.093,0.186,0.52,0.826,-3.17,5.19,0.79,0,3
15476.109,0.189,0.525,0.824,-2.14,4.64,0.34,0,3
15476.125,0.184,0.528,0.815,-1.01,4.76,-0.03,0,3
15476.125,0.184,0.534,0.809,-0.21,5.58,0.12,0,3
15476.14,0.182,0.538,0.806,0.21,6.41,0.61,0,3
15476.14,0.171,0.543,0.802,0.43,7.02,1.01,0,3
15476.156,0.169,0.544,0.807,-0.73,7.11,0.95,0,3
15476.171,0.164,0.546,0.809,-4.09,5.92,0.67,0,3
15476.187,0.165,0.538,0.814,-5.22,5.62,0.76,0,3
15476.203,0.165,0.531,0.814,-5.92,6.26,0.89,0,3
15476.203,0.171,0.528,0.813,-6.47,7.11,0.76,0,3
15476.218,0.172,0.522,0.819,-6.41,7.6,0.4,0,3
15476.234,0.167,0.518,0.823,-6.13,7.57,0.37,0,3
15476.234,0.166,0.524,0.842,-6.1,6.81,0.27,0,3
15476.25,0.163,0.525,0.845,-6.01,5.71,0.0,0,3
15476.265,0.154,0.529,0.844,-5.62,4.64,0.24,0,3
15476.265,0.154,0.528,0.843,-5.49,3.48,0.55,0,3
15476.281,0.148,0.521,0.836,-5.74,2.35,0.73,0,3
15476.296,0.149,0.519,0.829,-7.14,1.13,0.34,0,3
15476.296,0.156,0.505,0.827,-8.64,0.55,-0.12,0,3
15476.312,0.16,0.496,0.832,-9.46,0.82,-0.76,0,3
15476.312,0.167,0.49,0.834,-9.64,1.43,-2.72,0,3
15476.328,0.179,0.485,0.811,-9.46,3.14,-5.37,0,3
15476.343,0.207,0.485,0.714,-9.58,16.27,-12.79,0,3
15476.359,0.104,0.54,0.779,-10.93,27.99,-15.99,0,3
15476.375,0.077,0.518,0.919,-7.97,29.85,-8.97,0,3
15476.375,0.157,0.523,0.888,-14.65,21.58,-11.38,0,3
15476.39,-0.018,0.613,1.02,-15.53,16.6,-13.82,0,3
15476.39,0.067,0.498,0.964,-9.92,3.33,-7.05,0,3
15476.406,0.121,0.542,0.871,-13.89,-5.28,-5.4,0,3
15476.421,0.115,0.514,0.832,-9.03,-3.3,-0.89,0,3
15476.437,0.116,0.463,0.81,-3.11,-0.21,4.85,0,3
15476.437,0.117,0.445,0.805,-0.85,2.35,7.54,0,3
15476.453,0.102,0.459,0.82,-1.8,1.74,7.02,0,3
15476.453,0.102,0.494,0.822,-4.88,-2.9,5.13,0,3
15476.468,0.1,0.529,0.822,-10.71,-8.03,3.88,0,3
15476.484,0.101,0.542,0.842,-17.61,-11.84,4.06,0,3
15476.484,0.107,0.545,0.858,-22.0,-13.76,5.89,0,3
15476.5,0.083,0.566,0.917,-22.46,-14.5,8.79,0,3
15476.515,0.149,0.502,0.892,-18.01,-16.11,14.28,0,3
15476.515,0.191,0.491,0.845,-19.2,-15.2,12.02,0,3
15476.531,0.151,0.473,0.859,-14.83,-9.09,10.19,0,3
15476.546,0.171,0.417,0.888,-9.77,-7.02,8.91,0,3
15476.546,0.184,0.436,0.886,-6.07,-8.27,6.47,0,3
15476.562,0.192,0.439,0.856,-0.92,-6.96,6.07,0,3
15476.562,0.184,0.426,0.851,3.91,-4.79,3.97,0,3
15476.578,0.187,0.43,0.838,7.93,-3.63,2.29,0,3
15476.593,0.18,0.445,0.818,10.35,-2.5,0.85,0,3
15476.593,0.177,0.452,0.809,10.71,-1.34,-0.03,0,3
15476.609,0.17,0.461,0.811,9.4,-0.43,-0.64,0,3
15476.625,0.165,0.468,0.811,6.99,-0.03,-1.28,0,3
15476.64,0.165,0.482,0.821,4.43,0.0,-1.65,0,3
15476.64,0.154,0.494,0.835,2.72,-0.37,-2.01,0,3
15476.656,0.149,0.499,0.844,1.37,-1.68,-1.68,0,3
15476.656,0.153,0.505,0.85,0.67,-2.69,-1.31,0,3
15476.671,0.156,0.511,0.854,0.52,-2.87,-1.07,0,3
15476.671,0.162,0.508,0.854,0.31,-1.92,-0.98,0,3
15476.687,0.163,0.506,0.853,0.24,-0.49,-0.85,0,3
15476.703,0.162,0.503,0.853,0.4,1.04,-0.73,0,3
15476.703,0.158,0.495,0.854,0.89,2.35,-0.43,0,3
15476.718,0.149,0.486,0.854,2.17,2.84,0.03,0,3
15476.734,0.147,0.485,0.857,3.48,2.14,0.52,0,3
15476.75,0.144,0.492,0.854,4.18,0.61,0.76,0,3
15476.75,0.145,0.495,0.842,3.11,-0.7,0.61,0,3
15476.765,0.146,0.494,0.836,0.92,-1.77,0.15,0,3
15476.765,0.146,0.496,0.835,-1.28,-1.92,0.0,0,3
15476.781,0.148,0.494,0.84,-2.69,-1.13,0.34,0,3
15476.781,0.146,0.489,0.852,-3.23,-0.12,1.1,0,3
15476.796,0.146,0.489,0.865,-2.81,-0.18,1.8,0,3
15476.812,0.148,0.49,0.874,-2.11,-1.13,2.23,0,3
15476.812,0.153,0.491,0.876,-1.65,-2.56,2.41,0,3
15476.828,0.155,0.486,0.872,-1.37,-3.81,2.38,0,3
15476.843,0.158,0.482,0.866,-1.01,-4.73,2.23,0,3
15476.859,0.163,0.477,0.858,-0.12,-5.07,1.83,0,3
15476.875,0.164,0.474,0.846,2.08,-4.39,0.85,0,3
15476.875,0.163,0.477,0.841,2.69,-3.66,0.18,0,3
15476.89,0.157,0.481,0.837,2.96,-2.69,-0.55,0,3
15476.906,0.156,0.487,0.835,2.9,-1.95,-0.34,0,3
15476.906,0.155,0.498,0.838,2.56,-1.68,0.0,0,3
15476.921,0.152,0.506,0.839,1.83,-1.74,0.27,0,3
15476.937,0.153,0.508,0.841,1.01,-1.98,0.85,0,3
15476.937,0.16,0.508,0.842,0.37,-2.17,1.71,0,3
15476.953,0.164,0.507,0.841,0.09,-2.01,2.41,0,3
15476.953,0.168,0.504,0.837,-0.43,-1.1,2.69,0,3
15476.968,0.17,0.496,0.834,-0.58,0.06,2.9,0,3
15476.984,0.167,0.49,0.83,0.0,0.98,3.14,0,3
15476.984,0.165,0.484,0.831,0.4,2.01,3.3,0,3
15477.0,0.164,0.481,0.837,0.67,2.96,3.27,0,3
15477.015,0.166,0.485,0.846,0.98,3.45,3.3,0,3
15477.015,0.172,0.493,0.849,0.79,3.42,3.17,0,3
15477.046,0.183,0.496,0.858,1.4,4.03,2.53,0,3
15477.046,0.189,0.507,0.862,4.52,5.49,2.44,0,3
15477.062,0.205,0.534,0.86,10.41,7.39,3.88,0,3
15477.062,0.235,0.566,0.843,17.58,9.67,7.84,0,3
15477.078,0.275,0.609,0.823,24.63,13.0,13.76,0,3
15477.093,0.312,0.651,0.804,30.34,17.3,19.32,0,3
15477.093,0.314,0.684,0.787,33.69,22.1,22.89,0,3
15477.109,0.299,0.701,0.776,32.81,27.25,25.03,0,3
15477.125,0.28,0.726,0.778,26.18,31.68,27.34,0,3
15477.125,0.26,0.731,0.784,14.68,35.07,30.0,0,3
15477.14,0.246,0.71,0.805,1.04,37.93,33.23,0,3
15477.156,0.229,0.672,0.832,-11.08,40.96,37.39,0,3
15477.156,0.216,0.622,0.859,-18.37,43.15,41.08,0,3
15477.171,0.206,0.563,0.877,-19.44,44.74,43.46,0,3
15477.171,0.195,0.527,0.879,-10.22,47.12,43.21,0,3
15477.187,0.186,0.499,0.88,-3.14,47.06,40.47,0,3
15477.218,0.157,0.459,0.85,3.66,43.18,33.75,0,3
15477.218,0.125,0.476,0.824,0.06,38.94,29.82,0,3
15477.234,0.109,0.464,0.811,-6.5,34.06,26.25,0,3
15477.234,0.108,0.449,0.797,-14.47,29.33,23.74,0,3
15477.25,0.111,0.428,0.785,-21.7,26.22,21.85,0,3
15477.265,0.107,0.406,0.782,-27.19,24.87,20.2,0,3
15477.281,0.09,0.391,0.791,-31.04,24.54,17.46,0,3
15477.281,0.064,0.383,0.809,-33.91,24.51,14.01,0,3
15477.296,0.044,0.376,0.832,-35.31,24.08,11.14,0,3
15477.296,0.031,0.369,0.844,-34.94,23.1,10.1,0,3
15477.312,0.025,0.357,0.848,-32.69,22.16,10.62,0,3
15477.312,0.022,0.351,0.853,-28.32,22.1,11.75,0,3
15477.328,0.014,0.355,0.835,-22.71,23.32,13.34,0,3
15477.343,0.01,0.37,0.826,-16.63,25.48,15.63,0,3
15477.343,0.009,0.373,0.83,-9.22,28.9,17.03,0,3
15477.359,-0.001,0.368,0.828,-2.75,31.83,15.75,0,3
15477.375,0.004,0.383,0.811,-0.89,30.76,8.64,0,3
15477.39,0.004,0.391,0.798,-3.78,29.42,5.8,0,3
15477.406,-0.001,0.403,0.782,-7.66,30.03,5.71,0,3
15477.406,0.005,0.42,0.777,-10.99,32.81,8.91,0,3
15477.421,0.019,0.407,0.79,-12.33,36.44,11.78,0,3
15477.437,0.028,0.381,0.825,-12.12,39.61,10.35,0,3
15477.437,0.035,0.359,0.831,-12.42,40.56,4.21,0,3
15477.453,0.028,0.361,0.8,-14.47,41.51,-3.85,0,3
15477.468,0.02,0.356,0.798,-18.31,45.78,-10.86,0,3
15477.468,-0.129,0.412,0.954,-22.86,49.56,-16.6,0,3
15477.484,-0.279,0.44,1.409,-18.92,36.26,-14.89,0,3
15477.484,-0.364,0.483,1.612,-3.14,-4.06,-4.82,0,3
15477.5,-0.128,0.385,1.216,-3.33,-47.0,-1.16,0,3
15477.515,-0.026,0.396,1.008,-15.56,-47.27,-6.56,0,3
15477.515,-0.01,0.278,1.007,-2.75,-19.5,-6.04,0,3
15477.531,-0.041,0.24,0.988,20.17,4.21,-6.1,0,3
15477.546,-0.131,0.309,1.053,55.02,21.45,-8.45,0,3
15477.562,-0.215,0.358,1.126,61.25,11.2,-9.03,0,3
15477.562,-0.214,0.392,1.102,62.07,-8.55,-7.2,0,3
15477.578,-0.173,0.348,1.021,40.35,-28.02,-13.09,0,3
15477.593,-0.289,0.385,1.092,20.02,-41.78,-20.91,0,3
15477.609,-0.202,0.34,1.041,13.4,-57.89,-14.19,0,3
15477.609,-0.17,0.301,0.99,12.7,-69.52,-16.08,0,3
15477.625,-0.099,0.288,0.968,19.29,-78.62,-22.13,0,3
15477.625,-0.064,0.325,0.893,32.47,-84.72,-29.6,0,3
15477.64,-0.042,0.381,0.808,44.89,-86.06,-33.57,0,3
15477.656,-0.014,0.445,0.755,51.18,-84.02,-33.36,0,3
15477.656,0.014,0.511,0.722,50.05,-81.64,-31.28,0,3
15477.671,0.046,0.533,0.674,42.05,-80.42,-30.15,0,3
15477.687,0.09,0.552,0.663,30.0,-79.41,-29.27,0,3
15477.687,0.131,0.581,0.651,17.3,-79.01,-28.84,0,3
15477.703,0.16,0.593,0.667,4.88,-80.02,-28.38,0,3
15477.718,0.189,0.661,0.738,-6.93,-86.86,-22.22,0,3
15477.734,0.241,0.659,0.725,-6.04,-90.85,-16.39,0,3
15477.734,0.296,0.659,0.675,-2.44,-88.99,-9.74,0,3
15477.75,0.33,0.674,0.63,3.54,-80.57,-4.0,0,3
15477.765,0.362,0.688,0.6,10.56,-68.09,0.98,0,3
15477.765,0.393,0.699,0.576,16.63,-52.46,6.41,0,3
15477.781,0.405,0.705,0.563,19.35,-35.83,11.35,0,3
15477.796,0.413,0.714,0.564,17.52,-19.56,15.11,0,3
15477.796,0.417,0.709,0.564,12.05,-3.66,17.49,0,3
15477.812,0.418,0.671,0.58,4.21,12.33,19.5,0,3
15477.812,0.408,0.651,0.607,-4.18,27.31,20.45,0,3
15477.828,0.389,0.612,0.631,-7.02,41.11,20.51,0,3
15477.843,0.347,0.561,0.657,-6.68,51.94,19.59,0,3
15477.843,0.316,0.544,0.687,-6.99,58.35,18.52,0,3
15477.859,0.298,0.521,0.7,-9.49,60.3,15.9,0,3
15477.875,0.28,0.494,0.723,-17.46,58.87,10.77,0,3
15477.89,0.257,0.445,0.668,-38.15,61.86,-1.62,0,3
15477.906,0.239,0.403,0.66,-47.24,73.49,-6.38,0,3
15477.906,0.187,0.348,0.716,-54.05,88.99,-10.53,0,3
15477.921,0.032,0.428,0.979,-67.02,94.3,-14.98,0,3
15477.921,-0.035,0.565,1.221,-88.02,75.69,-16.79,0,3
15477.937,-0.02,0.575,1.276,-94.0,49.9,-13.31,0,3
15477.953,-0.086,0.45,1.323,-83.99,28.78,-6.47,0,3
15477.953,-0.076,0.428,1.349,-71.05,4.18,0.58,0,3
15477.968,0.001,0.393,1.263,-41.35,-13.79,4.15,0,3
15477.984,0.007,0.375,1.164,-3.66,-19.78,4.88,0,3
15477.984,0.021,0.4,1.077,28.29,-21.12,6.26,0,3
15478.0,0.037,0.428,0.973,52.0,-19.84,7.66,0,3
15478.015,0.048,0.467,0.89,63.57,-17.64,7.93,0,3
15478.015,0.062,0.496,0.829,62.26,-16.63,7.2,0,3
15478.031,0.071,0.504,0.781,49.26,-17.88,5.68,0,3
15478.046,0.044,0.53,0.797,28.6,-21.7,3.91,0,3
15478.062,0.127,0.398,0.711,3.05,-28.02,3.27,0,3
15478.062,0.094,0.461,0.78,-3.33,-25.64,1.65,0,3
15478.078,0.163,0.498,0.804,-6.13,-25.21,2.96,0,3
15478.093,0.159,0.421,0.781,-1.62,-20.66,1.89,0,3
15478.093,0.152,0.417,0.788,2.01,-14.56,1.46,0,3
15478.109,0.161,0.446,0.798,5.95,-8.39,2.04,0,3
15478.125,0.155,0.467,0.806,6.96,-2.78,1.92,0,3
15478.125,0.149,0.468,0.828,4.52,0.76,1.8,0,3
15478.14,0.138,0.478,0.854,0.7,2.11,1.89,0,3
15478.156,0.127,0.477,0.88,-3.48,0.55,2.2,0,3
15478.156,0.136,0.468,0.895,-6.93,-3.45,2.14,0,3
15478.171,0.148,0.467,0.891,-8.12,-10.22,1.13,0,3
15478.187,0.153,0.458,0.886,-6.26,-11.51,1.25,0,3
15478.187,0.155,0.454,0.886,-3.72,-12.51,2.47,0,3
15478.203,0.156,0.455,0.875,-1.59,-13.15,3.48,0,3
15478.203,0.159,0.443,0.865,0.49,-13.4,3.57,0,3
15478.234,0.17,0.442,0.836,2.23,-12.67,2.62,0,3
15478.234,0.172,0.441,0.821,1.04,-12.09,1.74,0,3
15478.25,0.175,0.435,0.802,-0.79,-11.54,0.49,0,3
15478.265,0.181,0.433,0.786,-2.32,-10.07,-0.61,0,3
15478.265,0.185,0.43,0.769,-2.75,-7.6,-1.34,0,3
15478.281,0.189,0.423,0.753,-2.17,-4.09,-1.83,0,3
15478.281,0.197,0.415,0.737,-1.43,0.76,-2.11,0,3
15478.296,0.2,0.401,0.721,-1.59,6.44,-2.69,0,3
15478.312,0.201,0.385,0.711,-4.24,12.18,-4.21,0,3
15478.312,0.207,0.372,0.703,-8.36,18.43,-6.44,0,3
15478.328,0.222,0.34,0.699,-10.93,26.25,-9.46,0,3
15478.343,0.231,0.309,0.688,-9.16,37.11,-13.46,0,3
15478.343,0.244,0.277,0.67,-4.67,52.52,-19.29,0,3
15478.359,0.162,0.326,0.72,-3.02,71.44,-28.99,0,3
15478.375,-0.084,0.54,1.016,-14.22,79.47,-35.37,0,3
15478.375,-0.215,0.771,1.386,-47.94,55.15,-26.52,0,3
15478.39,-0.112,0.711,1.457,-69.55,14.37,-11.81,0,3
15478.406,-0.051,0.472,1.348,-58.32,-11.93,-2.44,0,3
15478.406,0.035,0.401,1.213,-26.55,-20.14,2.26,0,3
15478.421,0.104,0.395,1.077,12.7,-15.11,1.98,0,3
15478.437,0.078,0.418,0.989,45.35,-5.07,-1.28,0,3
15478.437,0.065,0.467,0.915,63.91,0.31,-3.36,0,3
15478.453,0.058,0.53,0.845,65.34,0.34,-3.39,0,3
15478.453,0.051,0.587,0.805,50.48,-1.95,-1.01,0,3
15478.468,0.064,0.578,0.802,29.08,-5.71,2.9,0,3
15478.484,0.057,0.557,0.836,11.66,-9.89,6.23,0,3
15478.484,0.125,0.551,0.814,0.89,-14.95,9.98,0,3
15478.5,0.126,0.434,0.779,1.53,-13.46,8.12,0,3
15478.515,0.116,0.479,0.812,-4.85,-12.88,3.91,0,3
15478.515,0.121,0.479,0.836,-8.0,-12.76,3.33,0,3
15478.531,0.095,0.467,0.834,-4.3,-11.72,7.35,0,3
15478.546,0.13,0.465,0.833,-1.83,-11.41,10.96,0,3
15478.546,0.13,0.46,0.838,-2.47,-11.05,10.62,0,3
15478.562,0.133,0.452,0.846,-3.81,-10.68,9.74,0,3
15478.562,0.148,0.444,0.846,-4.73,-10.01,9.03,0,3
15478.578,0.148,0.441,0.852,-5.62,-8.3,7.75,0,3
15478.593,0.149,0.44,0.858,-6.65,-6.38,6.2,0,3
15478.593,0.155,0.443,0.864,-7.32,-4.55,4.79,0,3
15478.609,0.142,0.454,0.876,-7.48,-3.11,3.54,0,3
15478.625,0.135,0.451,0.881,-7.42,-3.08,3.27,0,3
15478.625,0.137,0.442,0.883,-6.62,-3.72,3.14,0,3
15478.64,0.137,0.44,0.883,-5.22,-4.12,2.99,0,3
15478.656,0.136,0.44,0.881,-3.81,-3.85,2.5,0,3
15478.656,0.132,0.435,0.877,-2.93,-3.48,1.98,0,3
15478.671,0.136,0.429,0.872,-2.08,-3.42,1.5,0,3
15478.671,0.14,0.43,0.87,-1.16,-3.05,0.85,0,3
15478.687,0.133,0.437,0.869,0.03,-2.32,0.03,0,3
15478.703,0.126,0.443,0.866,1.22,-2.32,-0.43,0,3
15478.703,0.124,0.453,0.865,1.89,-2.9,-0.24,0,3
15478.718,0.127,0.463,0.86,1.01,-3.72,-0.06,0,3
15478.734,0.13,0.463,0.854,-0.85,-4.46,-0.15,0,3
15478.734,0.13,0.459,0.849,-2.66,-4.64,-0.12,0,3
15478.75,0.13,0.454,0.85,-3.54,-4.39,0.18,0,3
15478.765,0.133,0.446,0.854,-3.17,-3.66,0.46,0,3
15478.765,0.13,0.444,0.855,-2.26,-2.66,0.52,0,3
15478.781,0.132,0.443,0.858,-1.95,-1.83,0.43,0,3
15478.796,0.133,0.437,0.859,-1.8,-1.59,0.06,0,3
15478.796,0.13,0.443,0.86,-1.77,-1.92,-0.18,0,3
15478.812,0.13,0.449,0.861,-2.32,-2.5,-0.46,0,3
15478.828,0.13,0.446,0.86,-2.96,-3.05,-0.73,0,3
15478.828,0.131,0.443,0.856,-2.93,-2.96,-1.01,0,3
15478.843,0.13,0.444,0.851,-2.75,-2.35,-1.28,0,3
15478.843,0.128,0.445,0.85,-2.17,-1.37,-1.25,0,3
15478.859,0.129,0.445,0.846,-2.17,-0.52,-1.19,0,3
15478.875,0.133,0.445,0.848,-2.56,0.0,-1.1,0,3
15478.875,0.13,0.449,0.854,-2.96,0.58,-1.25,0,3
15478.89,0.124,0.45,0.855,-3.33,0.7,-0.92,0,3
15478.906,0.126,0.445,0.858,-3.88,0.15,-0.52,0,3
15478.921,0.131,0.446,0.859,-4.61,-1.56,-0.31,0,3
15478.921,0.132,0.438,0.857,-4.76,-2.23,-0.27,0,3
15478.937,0.137,0.44,0.852,-4.76,-2.5,-0.21,0,3
15478.953,0.139,0.439,0.849,-5.31,-1.98,-0.31,0,3
15478.968,0.134,0.437,0.851,-5.65,-0.76,-0.46,0,3
15478.968,0.137,0.432,0.857,-6.01,0.49,-0.82,0,3
15478.984,0.132,0.432,0.862,-5.52,1.74,-1.16,0,3
15478.984,0.119,0.44,0.865,-4.67,2.38,-1.13,0,3
15479.0,0.116,0.444,0.868,-4.27,2.59,-1.16,0,3
15479.015,0.11,0.449,0.868,-5.28,2.62,-0.79,0,3
15479.015,0.105,0.453,0.868,-8.7,2.2,-0.52,0,3
15479.031,0.109,0.443,0.875,-12.94,0.82,-0.58,0,3
15479.046,0.122,0.43,0.882,-15.59,-0.73,-0.61,0,3
15479.046,0.128,0.418,0.888,-14.8,-1.5,-0.46,0,3
15479.062,0.135,0.404,0.894,-11.08,-1.34,-0.27,0,3
15479.078,0.138,0.395,0.896,-5.34,-0.46,-0.76,0,3
15479.093,0.146,0.396,0.878,5.01,2.56,-1.5,0,3
15479.093,0.145,0.4,0.868,6.74,4.0,-1.89,0,3
15479.109,0.148,0.41,0.864,5.31,4.55,-2.35,0,3
15479.125,0.149,0.411,0.864,1.25,4.27,-3.72,0,3
15479.125,0.147,0.407,0.866,-2.81,3.91,-4.76,0,3
15479.14,0.144,0.395,0.866,-5.65,3.72,-5.58,0,3
15479.156,0.146,0.381,0.873,-4.58,4.61,-7.11,0,3
15479.156,0.156,0.363,0.881,0.98,6.81,-7.97,0,3
15479.171,0.176,0.333,0.863,11.63,12.85,-10.86,0,3
15479.171,0.096,0.301,0.801,24.6,23.62,-14.4,0,3
15479.187,0.009,0.528,1.012,14.95,23.68,-13.58,0,3
15479.203,0.048,0.564,1.091,0.03,13.92,-10.44,0,3
15479.218,-0.097,0.582,1.165,-14.68,2.59,-10.9,0,3
15479.218,0.023,0.597,1.181,-29.66,-10.35,-6.59,0,3
15479.234,-0.006,0.457,1.121,-17.67,-11.66,-3.81,0,3
15479.234,-0.005,0.455,1.063,4.64,-7.26,1.16,0,3
15479.265,-0.045,0.477,0.963,49.75,-0.4,2.78,0,3
15479.265,-0.071,0.55,0.942,52.34,-2.17,1.74,0,3
15479.281,-0.114,0.659,0.944,40.86,-6.23,3.72,0,3
15479.296,-0.078,0.623,0.894,17.43,-10.32,7.6,0,3
15479.296,-0.1,0.495,0.954,-10.32,-11.99,1.34,0,3
15479.312,-0.19,0.591,1.05,-27.65,-15.38,5.37,0,3
15479.328,-0.16,0.504,1.049,-21.24,-18.25,15.66,0,3
15479.328,-0.18,0.403,1.054,-11.93,-19.96,17.15,0,3
15479.343,-0.243,0.429,1.061,1.53,-20.29,16.33,0,3
15479.343,-0.259,0.413,1.033,19.23,-20.66,17.7,0,3
15479.359,-0.283,0.396,0.999,32.5,-22.37,18.49,0,3
15479.375,-0.309,0.41,0.956,42.21,-24.69,19.78,0,3
15479.375,-0.312,0.429,0.913,46.78,-27.31,21.42,0,3
15479.39,-0.315,0.425,0.875,46.02,-30.79,21.58,0,3
15479.406,-0.316,0.426,0.837,42.76,-34.12,20.6,0,3
15479.406,-0.309,0.435,0.799,38.21,-37.05,19.07,0,3
15479.437,-0.308,0.465,0.737,27.83,-43.7,15.59,0,3
15479.437,-0.295,0.455,0.715,25.73,-48.1,14.22,0,3
15479.453,-0.281,0.457,0.682,28.35,-51.88,13.67,0,3
15479.453,-0.257,0.456,0.638,34.09,-55.39,13.31,0,3
15479.468,-0.224,0.466,0.594,41.2,-58.53,13.89,0,3
15479.484,-0.171,0.458,0.539,46.51,-61.19,14.68,0,3
15479.484,-0.084,0.37,0.473,51.76,-64.76,14.59,0,3
15479.5,-0.012,0.315,0.409,60.49,-65.95,14.68,0,3
15479.515,0.051,0.297,0.358,69.22,-65.16,13.18,0,3
15479.515,0.11,0.251,0.332,77.09,-65.07,8.73,0,3
15479.531,0.168,0.223,0.283,85.06,-63.48,3.72,0,3
15479.546,0.213,0.23,0.251,89.94,-56.61,-2.96,0,3
15479.546,0.268,0.196,0.226,92.65,-47.85,-12.88,0,3
15479.562,0.303,0.185,0.216,95.34,-37.35,-24.69,0,3
15479.578,0.326,0.195,0.208,98.42,-25.03,-36.68,0,3
15479.578,0.346,0.189,0.209,101.02,-12.27,-49.26,0,3
15479.593,0.385,0.205,0.184,103.95,18.1,-71.69,0,3
15479.609,0.379,0.238,0.208,101.08,36.5,-84.6,0,3
15479.625,0.337,0.246,0.238,97.08,52.92,-97.69,0,3
15479.625,0.308,0.245,0.293,91.46,66.38,-108.25,0,3
15479.64,0.295,0.237,0.339,85.33,78.22,-114.63,0,3
15479.656,0.277,0.28,0.386,77.46,90.49,-122.17,0,3
15479.656,0.265,0.323,0.415,68.39,102.6,-134.98,0,3
15479.671,0.234,0.417,0.437,55.48,116.89,-154.06,0,3
15479.687,0.158,0.533,0.498,39.43,131.87,-178.04,0,3
15479.687,0.053,0.556,0.551,28.53,142.4,-196.94,0,3
15479.703,-0.002,0.527,0.552,25.12,148.23,-201.54,0,3
15479.703,-0.008,0.536,0.502,28.08,155.1,-196.26,0,3
15479.718,-0.026,0.52,0.455,36.16,164.4,-189.95,0,3
15479.734,-0.058,0.443,0.422,49.01,174.63,-183.97,0,3
15479.734,-0.062,0.374,0.39,60.43,186.59,-178.66,0,3
15479.75,-0.04,0.34,0.358,63.6,204.69,-178.81,0,3
15479.765,-0.094,0.399,0.36,57.77,232.15,-194.56,0,3
15479.781,-0.256,0.49,0.383,51.76,263.19,-227.24,0,3
15479.781,-0.453,0.537,0.406,48.86,293.07,-262.55,0,3
15479.796,-0.651,0.587,0.434,48.13,315.32,-289.83,0,3
15479.796,-0.813,0.633,0.473,52.83,325.91,-302.87,0,3
15479.812,-0.966,0.729,0.547,61.19,318.43,-295.6,0,3
15479.812,-1.018,0.729,0.566,66.16,288.74,-269.11,0,3
15479.828,-1.058,0.76,0.574,66.56,250.4,-239.23,0,3
15479.843,-1.1,0.832,0.558,66.44,210.15,-216.5,0,3
15479.843,-1.109,0.788,0.515,72.6,169.07,-206.7,0,3
15479.859,-1.104,0.735,0.478,86.03,133.85,-201.73,0,3
15479.875,-1.104,0.709,0.471,110.57,107.79,-195.78,0,3
15479.875,-1.065,0.608,0.471,156.38,86.43,-188.45,0,3
15479.89,-1.157,0.556,0.227,208.78,67.14,-179.69,0,3
15479.906,-1.139,0.552,0.095,241.52,56.4,-162.76,0,3
15479.906,-1.169,0.531,0.016,269.2,53.19,-151.34,0,3
15479.937,-1.397,0.716,-0.22,295.82,57.19,-146.12,0,3
15479.937,-1.444,0.898,-0.285,277.5,58.44,-144.9,0,3
15479.953,-1.424,0.936,-0.282,243.05,58.41,-139.71,0,3
15479.953,-1.388,0.88,-0.236,205.6,56.83,-130.83,0,3
15479.968,-1.357,0.795,-0.205,174.17,52.4,-120.79,0,3
15479.984,-1.321,0.72,-0.192,146.98,42.05,-114.08,0,3
15479.984,-1.276,0.665,-0.189,121.34,27.74,-111.42,0,3
15480.0,-1.237,0.613,-0.186,98.12,13.55,-111.27,0,3
15480.015,-1.213,0.558,-0.186,77.27,0.12,-112.16,0,3
15480.015,-1.195,0.513,-0.19,57.01,-11.72,-111.97,0,3
15480.031,-1.17,0.475,-0.193,37.63,-20.63,-110.69,0,3
15480.046,-1.15,0.438,-0.2,20.26,-25.33,-109.41,0,3
15480.046,-1.141,0.403,-0.203,5.37,-26.28,-107.97,0,3
15480.062,-1.134,0.371,-0.2,-6.81,-25.03,-107.39,0,3
15480.062,-1.129,0.336,-0.194,-15.66,-22.1,-107.55,0,3
15480.078,-1.154,0.306,-0.188,-20.45,-18.07,-108.49,0,3
15480.093,-1.152,0.257,-0.15,-22.25,-6.16,-105.04,0,3
15480.109,-1.158,0.271,-0.141,-19.68,0.21,-105.66,0,3
15480.125,-1.17,0.244,-0.133,-18.56,6.04,-105.2,0,3
15480.125,-1.17,0.256,-0.123,-22.71,12.51,-100.62,0,3
15480.14,-1.159,0.271,-0.115,-25.94,12.82,-95.68,0,3
15480.156,-1.152,0.267,-0.108,-28.29,11.26,-88.38,0,3
15480.156,-1.144,0.254,-0.097,-28.63,8.42,-79.44,0,3
15480.171,-1.112,0.213,-0.082,-27.5,5.89,-69.64,0,3
15480.171,-1.104,0.185,-0.076,-25.21,4.15,-60.34,0,3
15480.187,-1.103,0.158,-0.073,-21.73,2.47,-52.16,0,3
15480.203,-1.093,0.133,-0.067,-18.07,1.46,-44.47,0,3
15480.203,-1.076,0.113,-0.063,-14.62,0.89,-37.11,0,3
15480.218,-1.058,0.096,-0.061,-10.59,0.55,-30.85,0,3
15480.234,-1.047,0.068,-0.062,-5.86,0.06,-25.33,0,3
15480.234,-1.034,0.045,-0.065,-0.58,-0.95,-20.14,0,3
15480.25,-1.023,0.03,-0.072,4.97,-2.01,-15.56,0,3
15480.265,-1.022,0.016,-0.079,10.19,-2.81,-11.54,0,3
15480.265,-1.026,0.002,-0.083,15.08,-3.51,-7.9,0,3
15480.281,-1.02,-0.012,-0.088,19.59,-3.11,-5.19,0,3
15480.296,-1.013,-0.022,-0.091,23.1,-1.77,-3.88,0,3
15480.296,-1.009,-0.027,-0.093,25.67,0.15,-3.36,0,3
15480.312,-1.005,-0.03,-0.093,27.25,2.2,-3.27,0,3
15480.328,-1.004,-0.027,-0.094,27.56,4.06,-3.51,0,3
15480.328,-1.004,-0.028,-0.094,27.04,5.43,-3.81,0,3
15480.343,-1.003,-0.026,-0.093,25.45,6.23,-4.46,0,3
15480.343,-1.0,-0.024,-0.093,22.86,6.96,-4.97,0,3
15480.359,-0.998,-0.029,-0.09,20.02,7.39,-5.31,0,3
15480.375,-1.001,-0.034,-0.087,17.0,6.96,-5.77,0,3
15480.375,-1.004,-0.033,-0.083,13.61,5.95,-6.32,0,3
15480.39,-1.007,-0.029,-0.083,9.89,4.73,-6.93,0,3
15480.406,-1.012,-0.025,-0.084,5.55,2.93,-7.23,0,3
15480.406,-1.012,-0.021,-0.084,0.92,1.22,-7.42,0,3
15480.421,-1.012,-0.021,-0.085,-3.27,-0.43,-6.93,0,3
15480.437,-1.009,-0.027,-0.081,-6.53,-1.62,-5.8,0,3
15480.437,-1.008,-0.029,-0.076,-8.76,-2.41,-4.7,0,3
15480.453,-1.007,-0.031,-0.074,-9.58,-2.56,-3.33,0,3
15480.453,-1.008,-0.038,-0.074,-9.16,-1.92,-1.31,0,3
15480.468,-1.001,-0.047,-0.055,-7.08,-0.79,0.82,0,3
15480.484,-1.006,-0.062,-0.047,-2.5,-0.58,2.66,0,3
15480.484,-1.006,-0.068,-0.052,2.53,-0.82,4.76,0,3
15480.5,-0.995,-0.074,-0.052,6.47,-0.85,6.87,0,3
15480.515,-0.991,-0.084,-0.059,8.97,-1.28,8.09,0,3
15480.515,-0.985,-0.09,-0.064,9.16,-2.14,8.36,0,3
15480.531,-0.979,-0.095,-0.063,8.45,-3.02,7.75,0,3
15480.531,-0.973,-0.096,-0.067,8.51,-3.63,6.59,0,3
15480.546,-0.971,-0.094,-0.075,8.67,-3.81,5.46,0,3
15480.562,-0.969,-0.091,-0.078,8.3,-3.85,4.27,0,3
15480.562,-0.968,-0.097,-0.075,7.81,-3.91,3.48,0,3
15480.578,-0.973,-0.102,-0.076,7.66,-3.75,2.75,0,3
15480.593,-0.976,-0.09,-0.082,7.42,-3.63,1.8,0,3
15480.593,-0.976,-0.081,-0.088,6.26,-3.57,0.4,0,3
15480.609,-0.978,-0.068,-0.089,3.72,-3.54,-0.89,0,3
15480.625,-0.978,-0.061,-0.093,1.1,-3.78,-1.31,0,3
15480.64,-0.978,-0.068,-0.095,-0.95,-4.03,-0.85,0,3
15480.64,-0.974,-0.077,-0.09,-2.2,-4.15,0.21,0,3
15480.64,-0.973,-0.093,-0.083,-1.59,-4.21,1.13,0,3
15480.656,-0.977,-0.105,-0.08,0.49,-4.15,1.65,0,3
15480.671,-0.974,-0.102,-0.079,3.3,-3.94,1.43,0,3
15480.671,-0.978,-0.095,-0.082,5.46,-3.81,0.67,0,3
15480.687,-0.984,-0.09,-0.086,6.5,-4.0,0.09,0,3
15480.703,-0.987,-0.084,-0.09,6.74,-4.3,0.12,0,3
15480.703,-0.989,-0.083,-0.09,6.44,-4.55,0.37,0,3
15480.718,-0.986,-0.09,-0.091,5.98,-4.7,0.95,0,3
15480.734,-0.98,-0.098,-0.087,6.1,-4.7,1.37,0,3
15480.75,-0.975,-0.107,-0.09,7.17,-3.97,1.46,0,3
15480.75,-0.973,-0.109,-0.088,8.27,-2.78,0.89,0,3
15480.765,-0.965,-0.101,-0.087,8.79,-1.86,0.0,0,3
15480.765,-0.967,-0.093,-0.088,8.88,-0.7,-1.22,0,3
15480.781,-0.968,-0.093,-0.086,8.18,-0.06,-2.11,0,3
15480.796,-0.969,-0.097,-0.084,7.02,0.31,-2.44,0,3
15480.796,-0.966,-0.1,-0.076,5.98,0.73,-2.69,0,3
15480.812,-0.969,-0.111,-0.069,5.71,1.19,-3.14,0,3
15480.812,-0.969,-0.11,-0.067,6.29,1.31,-3.91,0,3
15480.828,-0.973,-0.102,-0.065,6.99,1.1,-5.04,0,3
15480.843,-0.981,-0.097,-0.065,7.57,0.37,-5.8,0,3
15480.859,-0.982,-0.09,-0.067,7.93,-0.92,-5.62,0,3
15480.859,-0.979,-0.085,-0.071,7.84,-1.92,-5.25,0,3
15480.875,-0.98,-0.086,-0.077,7.45,-2.66,-5.28,0,3
15480.875,-0.978,-0.085,-0.08,7.02,-2.87,-5.01,0,3
15480.89,-0.973,-0.082,-0.082,6.13,-2.56,-4.91,0,3
15480.906,-0.974,-0.08,-0.083,5.25,-1.86,-5.01,0,3
15480.906,-0.977,-0.081,-0.083,4.21,-1.22,-5.16,0,3
15480.921,-0.976,-0.08,-0.082,3.33,-1.1,-5.19,0,3
15480.937,-0.981,-0.082,-0.081,2.96,-1.07,-4.91,0,3
15480.937,-0.984,-0.089,-0.078,3.17,-0.98,-4.33,0,3
15480.953,-0.982,-0.092,-0.076,4.0,-1.07,-4.03,0,3
15480.953,-0.982,-0.093,-0.076,5.22,-0.76,-4.0,0,3
15480.968,-0.984,-0.091,-0.08,6.62,-0.52,-4.03,0,3
15480.984,-0.983,-0.076,-0.081,7.81,-0.37,-4.43,0,3
15480.984,-0.983,-0.07,-0.084,8.15,-0.46,-4.7,0,3
15481.0,-0.986,-0.066,-0.087,7.39,-0.61,-4.21,0,3
15481.015,-0.984,-0.059,-0.089,6.2,-0.52,-3.48,0,3
15481.015,-0.981,-0.059,-0.09,5.07,-0.27,-2.59,0,3
15481.031,-0.981,-0.066,-0.086,4.09,0.09,-1.92,0,3
15481.046,-0.98,-0.076,-0.081,3.72,0.31,-1.13,0,3
15481.046,-0.98,-0.081,-0.076,4.15,0.43,-0.61,0,3
15481.062,-0.981,-0.087,-0.072,4.97,0.4,-0.21,0,3
15481.062,-0.979,-0.096,-0.07,6.56,0.27,0.4,0,3
15481.078,-0.977,-0.107,-0.068,8.73,0.27,1.07,0,3
15481.093,-0.977,-0.118,-0.068,10.93,0.55,1.59,0,3
15481.093,-0.976,-0.122,-0.067,13.18,0.95,1.65,0,3
15481.109,-0.977,-0.124,-0.067,16.85,1.77,0.64,0,3
15481.125,-0.981,-0.127,-0.067,18.01,1.98,0.31,0,3
15481.125,-0.984,-0.129,-0.063,19.29,1.71,0.43,0,3
15481.14,-0.99,-0.136,-0.048,21.33,1.16,1.37,0,3
15481.156,-1.005,-0.192,0.006,25.7,0.79,3.51,0,3
15481.156,-1.004,-0.231,0.048,33.94,0.85,6.41,0,3
15481.171,-1.003,-0.283,0.086,46.63,0.82,9.89,0,3
15481.171,-1.001,-0.311,0.11,62.78,-0.89,12.79,0,3
15481.187,-1.0,-0.317,0.126,80.57,-4.06,14.89,0,3
15481.203,-1.0,-0.313,0.148,96.04,-9.19,16.54,0,3
15481.218,-1.0,-0.303,0.158,108.62,-14.86,17.67,0,3
15481.218,-1.002,-0.277,0.161,117.86,-19.32,18.16,0,3
15481.234,-1.0,-0.248,0.172,122.68,-23.83,17.91,0,3
15481.234,-1.008,-0.245,0.187,126.56,-26.95,17.37,0,3
15481.25,-1.017,-0.236,0.202,130.47,-29.91,17.52,0,3
15481.265,-1.025,-0.218,0.228,136.39,-33.6,18.49,0,3
15481.265,-1.04,-0.209,0.26,147.5,-36.5,21.45,0,3
15481.281,-1.057,-0.199,0.28,162.97,-37.66,26.0,0,3
15481.296,-1.077,-0.171,0.287,179.85,-38.39,30.85,0,3
15481.296,-1.091,-0.14,0.294,196.91,-40.44,35.34,0,3
15481.312,-1.099,-0.109,0.29,212.99,-43.18,38.82,0,3
15481.312,-1.098,-0.069,0.281,225.75,-46.11,41.41,0,3
15481.328,-1.101,-0.041,0.269,235.85,-48.8,43.06,0,3
15481.343,-1.105,-0.012,0.249,243.2,-51.52,44.68,0,3
15481.343,-1.105,0.025,0.225,246.35,-55.12,45.84,0,3
15481.359,-1.108,0.06,0.203,245.55,-58.41,47.24,0,3
15481.375,-1.106,0.101,0.185,239.57,-61.62,49.35,0,3
15481.375,-1.093,0.133,0.169,228.71,-64.7,50.87,0,3
15481.39,-1.085,0.14,0.164,215.12,-66.41,52.03,0,3
15481.406,-1.084,0.141,0.173,201.39,-67.54,53.04,0,3
15481.406,-1.081,0.142,0.181,188.57,-69.06,53.99,0,3
15481.421,-1.071,0.147,0.189,176.76,-70.44,55.15,0,3
15481.437,-1.067,0.165,0.192,167.88,-71.17,55.64,0,3
15481.437,-1.071,0.211,0.197,160.44,-70.62,55.21,0,3
15481.453,-1.089,0.264,0.201,152.07,-69.34,54.41,0,3
15481.453,-1.101,0.301,0.21,141.67,-68.42,54.78,0,3
15481.468,-1.113,0.323,0.23,131.63,-67.6,57.71,0,3
15481.484,-1.121,0.336,0.257,122.32,-67.45,62.29,0,3
15481.5,-1.112,0.334,0.282,113.59,-68.79,66.53,0,3
15481.5,-1.101,0.34,0.298,105.26,-71.5,68.7,0,3
15481.515,-1.099,0.343,0.312,97.48,-74.4,69.34,0,3
15481.515,-1.102,0.337,0.319,89.72,-75.9,70.74,0,3
15481.531,-1.103,0.337,0.325,81.06,-78.77,72.48,0,3
15481.546,-1.1,0.332,0.322,74.19,-82.43,73.03,0,3
15481.546,-1.094,0.336,0.317,69.4,-85.76,72.6,0,3
15481.562,-1.095,0.362,0.316,64.97,-88.41,71.75,0,3
15481.562,-1.09,0.37,0.315,61.1,-90.21,71.23,0,3
15481.578,-1.088,0.38,0.32,58.11,-90.76,71.44,0,3
15481.593,-1.074,0.396,0.321,56.31,-91.4,71.99,0,3
15481.593,-1.05,0.402,0.321,55.39,-91.01,72.51,0,3
15481.609,-1.043,0.412,0.323,55.33,-88.38,73.7,0,3
15481.625,-1.031,0.419,0.326,56.73,-85.36,75.93,0,3
15481.64,-1.021,0.433,0.328,57.41,-83.22,77.94,0,3
15481.64,-1.016,0.453,0.324,56.49,-82.77,78.83,0,3
15481.656,-1.007,0.456,0.312,54.41,-84.08,78.92,0,3
15481.656,-1.009,0.47,0.292,51.94,-85.6,79.29,0,3
15481.671,-0.996,0.483,0.271,49.01,-86.15,80.17,0,3
15481.687,-0.976,0.487,0.252,44.83,-85.57,80.94,0,3
15481.687,-0.963,0.487,0.231,41.14,-84.02,81.94,0,3
15481.703,-0.943,0.491,0.214,38.67,-80.48,83.83,0,3
15481.703,-0.922,0.492,0.213,37.48,-76.08,86.43,0,3
15481.718,-0.91,0.487,0.215,38.18,-70.99,88.9,0,3
15481.734,-0.907,0.491,0.219,38.76,-66.62,91.1,0,3
15481.734,-0.889,0.489,0.229,38.21,-63.2,92.65,0,3
15481.75,-0.861,0.454,0.25,36.44,-58.69,94.09,0,3
15481.765,-0.839,0.44,0.273,33.23,-54.35,94.21,0,3
15481.781,-0.814,0.432,0.294,30.61,-51.55,91.83,0,3
15481.781,-0.795,0.422,0.313,29.18,-49.13,87.65,0,3
15481.796,-0.782,0.449,0.334,27.65,-47.09,82.71,0,3
15481.796,-0.776,0.485,0.34,26.73,-45.99,77.85,0,3
15481.812,-0.772,0.515,0.34,26.55,-45.05,74.22,0,3
15481.828,-0.754,0.543,0.341,27.44,-44.19,72.42,0,3
15481.828,-0.743,0.559,0.351,28.99,-42.85,71.69,0,3
15481.843,-0.732,0.553,0.363,31.62,-41.17,72.15,0,3
15481.843,-0.723,0.564,0.371,34.97,-39.92,72.7,0,3
15481.859,-0.717,0.577,0.378,37.87,-39.25,71.99,0,3
15481.875,-0.708,0.598,0.382,38.79,-39.12,69.98,0,3
15481.875,-0.697,0.631,0.381,37.57,-38.91,67.57,0,3
15481.89,-0.675,0.662,0.386,34.21,-38.97,65.49,0,3
15481.906,-0.655,0.689,0.394,29.66,-39.19,63.88,0,3
15481.906,-0.649,0.703,0.407,25.33,-39.55,62.9,0,3
15481.921,-0.653,0.708,0.419,21.79,-40.35,62.59,0,3
15481.921,-0.668,0.706,0.42,19.81,-41.81,63.02,0,3
15481.937,-0.667,0.703,0.419,20.42,-43.92,63.54,0,3
15481.953,-0.671,0.706,0.421,23.16,-45.72,63.72,0,3
15481.968,-0.653,0.709,0.419,26.15,-47.79,63.81,0,3
15481.968,-0.609,0.715,0.411,28.02,-49.53,63.72,0,3
15481.984,-0.57,0.716,0.403,29.24,-50.36,63.72,0,3
15481.984,-0.544,0.713,0.4,30.18,-49.68,63.36,0,3
15482.0,-0.534,0.716,0.402,31.16,-48.65,62.32,0,3
15482.015,-0.53,0.73,0.392,32.56,-48.65,61.01,0,3
15482.015,-0.516,0.753,0.377,33.14,-49.44,60.85,0,3
15482.031,-0.497,0.784,0.366,32.26,-49.26,61.46,0,3
15482.046,-0.475,0.808,0.362,29.91,-48.31,61.74,0,3
15482.046,-0.468,0.813,0.358,27.74,-46.36,62.2,0,3
15482.062,-0.463,0.819,0.359,25.48,-44.01,63.51,0,3
15482.062,-0.446,0.814,0.366,23.38,-41.96,64.85,0,3
15482.078,-0.441,0.809,0.365,21.64,-40.07,66.16,0,3
15482.093,-0.435,0.826,0.359,17.88,-40.83,68.18,0,3
15482.109,-0.42,0.839,0.351,2.62,-44.1,72.6,0,3
15482.109,-0.4,0.848,0.346,-6.23,-45.17,73.46,0,3
15482.125,-0.371,0.848,0.348,-12.79,-44.13,73.46,0,3
15482.125,-0.335,0.799,0.379,-15.53,-41.72,73.0,0,3
15482.14,-0.318,0.788,0.389,-14.01,-39.06,71.81,0,3
15482.156,-0.3,0.801,0.389,-8.94,-35.68,70.01,0,3
15482.156,-0.291,0.85,0.374,-1.83,-31.46,68.82,0,3
15482.171,-0.282,0.923,0.359,5.98,-25.7,69.15,0,3
15482.171,-0.294,0.954,0.352,14.92,-18.28,72.39,0,3
15482.187,-0.295,0.96,0.361,23.47,-12.42,78.4,0,3
15482.203,-0.281,0.949,0.368,29.63,-9.83,83.77,0,3
15482.218,-0.264,0.934,0.373,31.53,-9.25,86.89,0,3
15482.218,-0.255,0.932,0.37,27.41,-11.29,88.08,0,3
15482.234,-0.238,0.917,0.366,18.65,-14.59,88.23,0,3
15482.234,-0.211,0.893,0.374,8.55,-16.75,88.17,0,3
15482.25,-0.183,0.867,0.384,-0.24,-18.31,86.79,0,3
15482.265,-0.16,0.847,0.393,-5.43,-19.5,82.77,0,3
15482.265,-0.157,0.832,0.401,-4.82,-20.08,77.7,0,3
15482.281,-0.158,0.836,0.404,1.07,-20.75,73.79,0,3
15482.281,-0.144,0.866,0.406,9.49,-21.15,71.17,0,3
15482.296,-0.142,0.879,0.402,18.28,-20.87,68.94,0,3
15482.312,-0.132,0.888,0.398,24.72,-21.27,67.75,0,3
15482.312,-0.117,0.906,0.39,29.3,-22.52,66.74,0,3
15482.328,-0.12,0.903,0.384,31.04,-24.48,66.81,0,3
15482.343,-0.114,0.924,0.361,28.47,-28.47,67.63,0,3
15482.343,-0.099,0.948,0.326,21.18,-33.51,68.42,0,3
15482.359,-0.082,0.975,0.29,9.55,-37.9,69.4,0,3
15482.375,-0.048,0.983,0.27,-5.77,-39.86,70.56,0,3
15482.375,-0.013,0.966,0.277,-19.78,-38.0,71.44,0,3
15482.39,0.004,0.932,0.305,-27.95,-32.62,72.05,0,3
15482.406,0.01,0.9,0.336,-28.57,-26.61,71.9,0,3
15482.406,0.01,0.887,0.362,-21.58,-21.73,71.11,0,3
15482.421,0.02,0.888,0.385,-10.22,-18.56,70.13,0,3
15482.421,0.021,0.904,0.389,2.01,-17.27,69.4,0,3
15482.437,0.014,0.914,0.387,12.91,-17.58,69.12,0,3
15482.453,0.021,0.914,0.383,21.24,-19.23,70.13,0,3
15482.468,0.037,0.921,0.373,25.54,-21.12,71.87,0,3
15482.468,0.04,0.925,0.352,25.42,-23.68,72.97,0,3
15482.484,0.066,0.922,0.335,21.85,-26.55,73.61,0,3
15482.484,0.093,0.912,0.325,17.61,-27.74,74.31,0,3
15482.5,0.109,0.907,0.316,14.83,-27.28,74.68,0,3
15482.515,0.129,0.893,0.31,13.46,-25.42,74.8,0,3
15482.515,0.135,0.886,0.309,13.18,-22.86,74.65,0,3
15482.531,0.132,0.882,0.303,14.31,-21.09,74.53,0,3
15482.546,0.139,0.902,0.284,15.38,-20.39,74.86,0,3
15482.546,0.145,0.936,0.271,14.07,-19.47,76.05,0,3
15482.562,0.151,0.969,0.251,10.47,-17.85,78.01,0,3
15482.578,0.162,0.976,0.242,3.81,-16.14,81.33,0,3
15482.578,0.193,0.906,0.253,-3.02,-13.31,85.36,0,3
15482.593,0.227,0.833,0.277,-8.55,-10.28,88.96,0,3
15482.593,0.26,0.755,0.297,-11.05,-8.85,88.96,0,3
15482.609,0.277,0.725,0.314,-11.69,-9.61,84.84,0,3
15482.625,0.287,0.743,0.318,-11.23,-11.57,78.86,0,3
15482.625,0.291,0.784,0.313,-10.01,-12.88,73.67,0,3
15482.64,0.282,0.826,0.306,-7.17,-12.97,71.44,0,3
15482.656,0.283,0.856,0.3,-3.63,-12.51,71.87,0,3
15482.656,0.292,0.842,0.3,-0.03,-11.96,74.31,0,3
15482.671,0.314,0.81,0.302,3.45,-11.93,76.94,0,3
15482.687,0.336,0.781,0.302,7.39,-12.18,77.94,0,3
15482.687,0.352,0.754,0.293,11.02,-12.88,77.64,0,3
15482.703,0.368,0.735,0.284,13.15,-14.01,76.11,0,3
15482.703,0.395,0.714,0.272,14.98,-15.23,73.55,0,3
15482.718,0.404,0.719,0.25,15.87,-15.29,71.2,0,3
15482.734,0.398,0.72,0.233,15.2,-15.02,68.88,0,3
15482.734,0.41,0.715,0.222,13.21,-14.56,66.96,0,3
15482.75,0.435,0.719,0.22,10.74,-13.31,65.37,0,3
15482.765,0.451,0.711,0.231,9.52,-11.08,63.91,0,3
15482.781,0.454,0.702,0.244,11.14,-8.48,62.38,0,3
15482.781,0.47,0.718,0.243,14.16,-7.17,60.88,0,3
15482.796,0.464,0.758,0.238,15.11,-6.65,59.91,0,3
15482.796,0.463,0.763,0.237,13.03,-7.14,59.69,0,3
15482.812,0.473,0.761,0.234,10.35,-8.3,60.03,0,3
15482.828,0.48,0.758,0.235,9.03,-8.7,60.4,0,3
15482.828,0.495,0.75,0.236,9.25,-8.67,60.4,0,3
15482.843,0.524,0.754,0.232,10.93,-8.09,60.24,0,3
15482.843,0.54,0.774,0.225,11.69,-6.16,60.49,0,3
15482.859,0.536,0.772,0.226,10.35,-3.97,60.91,0,3
15482.875,0.537,0.761,0.23,8.64,-1.92,61.34,0,3
15482.875,0.547,0.743,0.237,7.69,0.24,61.71,0,3
15482.89,0.558,0.724,0.246,8.18,2.66,61.65,0,3
15482.89,0.569,0.721,0.254,9.89,4.64,61.22,0,3
15482.906,0.57,0.727,0.256,10.53,5.71,61.04,0,3
15482.921,0.558,0.745,0.256,8.73,5.8,61.07,0,3
15482.921,0.558,0.752,0.259,4.55,4.73,61.8,0,3
15482.937,0.564,0.744,0.261,0.52,2.84,63.26,0,3
15482.953,0.58,0.725,0.264,-2.11,1.1,64.49,0,3
15482.953,0.59,0.687,0.259,-2.72,-0.12,65.16,0,3
15482.968,0.589,0.652,0.247,-0.52,-0.98,65.55,0,3
15482.984,0.582,0.623,0.235,4.73,-1.86,65.4,0,3
15482.984,0.594,0.605,0.216,11.84,-2.2,65.55,0,3
15483.0,0.612,0.618,0.2,17.37,-0.4,66.9,0,3
15483.015,0.632,0.646,0.185,17.27,2.96,67.87,0,3
15483.015,0.644,0.665,0.179,10.41,6.68,67.69,0,3
15483.031,0.658,0.663,0.197,0.31,10.32,66.9,0,3
15483.046,0.659,0.652,0.231,-9.25,13.95,66.44,0,3
15483.046,0.655,0.637,0.268,-15.75,17.0,66.47,0,3
15483.062,0.663,0.597,0.3,-18.8,17.7,67.32,0,3
15483.078,0.66,0.564,0.326,-17.27,16.33,68.12,0,3
15483.078,0.658,0.545,0.339,-7.2,10.25,68.27,0,3
15483.093,0.685,0.542,0.343,-5.71,8.03,66.74,0,3
15483.093,0.693,0.552,0.342,-6.23,6.29,65.1,0,3
15483.109,0.687,0.564,0.344,-7.6,4.73,64.55,0,3
15483.125,0.651,0.578,0.341,-8.12,3.54,64.42,0,3
15483.125,0.67,0.585,0.334,-7.42,2.01,65.25,0,3
15483.14,0.7,0.573,0.33,-6.47,1.8,68.06,0,3
15483.156,0.68,0.53,0.318,-2.87,1.83,71.17,0,3
15483.156,0.704,0.499,0.308,3.2,-0.12,73.76,0,3
15483.171,0.701,0.492,0.296,10.35,-0.58,74.74,0,3
15483.171,0.669,0.504,0.285,17.52,0.06,74.43,0,3
15483.187,0.673,0.537,0.271,21.7,1.46,74.5,0,3
15483.203,0.705,0.54,0.276,21.09,4.33,75.69,0,3
15483.218,0.729,0.495,0.292,18.71,8.09,77.82,0,3
15483.218,0.773,0.425,0.313,17.37,10.62,80.23,0,3
15483.234,0.807,0.363,0.329,18.34,11.99,81.09,0,3
15483.234,0.798,0.347,0.333,21.55,12.33,78.98,0,3
15483.25,0.764,0.39,0.313,21.09,10.99,77.24,0,3
15483.265,0.734,0.409,0.301,12.36,8.03,77.94,0,3
15483.265,0.76,0.38,0.297,0.06,5.07,79.93,0,3
15483.281,0.794,0.338,0.304,-10.59,5.07,81.06,0,3
15483.281,0.806,0.287,0.322,-15.29,7.26,79.41,0,3
15483.296,0.827,0.237,0.345,-13.7,10.01,77.3,0,3
15483.312,0.857,0.191,0.359,-7.87,11.81,75.47,0,3
15483.328,0.855,0.173,0.361,0.46,12.7,72.42,0,3
15483.328,0.841,0.18,0.357,7.93,12.97,67.93,0,3
15483.343,0.835,0.208,0.363,12.57,13.55,64.21,0,3
15483.343,0.815,0.202,0.375,14.89,15.23,62.47,0,3
15483.359,0.824,0.172,0.396,15.72,15.87,62.38,0,3
15483.375,0.824,0.151,0.415,16.36,14.92,61.83,0,3
15483.375,0.834,0.128,0.422,15.75,11.47,59.91,0,3
15483.39,0.855,0.117,0.416,13.61,5.62,57.19,0,3
15483.406,0.849,0.136,0.401,12.91,0.64,54.11,0,3
15483.406,0.833,0.162,0.381,12.42,-2.41,52.16,0,3
15483.421,0.819,0.17,0.37,11.75,-3.75,52.19,0,3
15483.437,0.821,0.158,0.363,11.93,-4.03,54.2,0,3
15483.437,0.83,0.121,0.354,12.36,-3.75,57.19,0,3
15483.453,0.829,0.08,0.348,13.4,-3.85,57.77,0,3
15483.453,0.819,0.046,0.335,15.56,-4.82,55.48,0,3
15483.468,0.83,0.026,0.319,18.22,-6.23,52.67,0,3
15483.484,0.842,0.037,0.297,21.73,-6.84,51.03,0,3
15483.5,0.865,0.065,0.27,23.32,-6.5,50.02,0,3
15483.5,0.874,0.081,0.254,20.23,-4.18,49.41,0,3
15483.515,0.885,0.08,0.267,13.67,-0.64,48.65,0,3
15483.515,0.895,0.074,0.292,5.4,2.47,48.01,0,3
15483.531,0.897,0.059,0.328,-1.92,4.21,47.24,0,3
15483.546,0.894,0.05,0.361,-6.5,3.88,46.36,0,3
15483.546,0.894,0.059,0.381,-8.15,1.8,45.53,0,3
15483.562,0.9,0.072,0.393,-8.3,-0.46,44.59,0,3
15483.562,0.912,0.057,0.396,-6.93,-1.98,43.82,0,3
15483.578,0.917,0.045,0.396,-4.49,-2.87,43.64,0,3
15483.593,0.91,0.052,0.395,-1.74,-4.09,42.57,0,3
15483.593,0.915,0.054,0.394,1.01,-5.34,40.86,0,3
15483.609,0.922,0.06,0.392,3.48,-5.8,39.8,0,3
15483.625,0.922,0.067,0.387,6.26,-6.01,39.03,0,3
15483.64,0.931,0.055,0.382,8.33,-6.07,39.37,0,3
15483.64,0.939,0.041,0.375,8.18,-6.87,40.56,0,3
15483.656,0.936,0.045,0.368,7.69,-8.64,40.16,0,3
15483.656,0.934,0.053,0.364,6.62,-10.77,38.58,0,3
15483.671,0.922,0.067,0.371,6.65,-11.96,37.35,0,3
15483.687,0.914,0.088,0.371,9.06,-12.7,37.17,0,3
15483.687,0.92,0.07,0.364,11.51,-13.61,38.18,0,3
15483.703,0.934,0.05,0.351,13.34,-14.56,39.61,0,3
15483.703,0.952,0.034,0.336,13.95,-15.99,39.98,0,3
15483.718,0.961,0.027,0.316,12.91,-16.72,39.77,0,3
15483.734,0.959,0.037,0.305,9.92,-16.45,39.28,0,3
15483.75,0.956,0.04,0.298,6.78,-15.78,38.42,0,3
15483.75,0.952,0.038,0.293,4.67,-15.17,38.33,0,3
15483.765,0.932,0.032,0.292,4.58,-14.04,38.7,0,3
15483.765,0.926,0.012,0.289,6.04,-13.64,39.4,0,3
15483.781,0.937,-0.016,0.286,7.78,-13.89,40.19,0,3
15483.796,0.951,-0.031,0.278,10.38,-13.73,39.61,0,3
15483.796,0.954,-0.032,0.263,13.12,-13.34,38.15,0,3
15483.812,0.952,-0.03,0.254,15.14,-12.33,37.05,0,3
15483.812,0.953,-0.024,0.247,17.12,-11.38,36.35,0,3
15483.828,0.947,-0.022,0.234,19.56,-10.22,35.68,0,3
15483.843,0.952,-0.028,0.215,19.23,-8.7,36.53,0,3
15483.859,0.958,-0.043,0.213,14.07,-6.99,37.69,0,3
15483.859,0.949,-0.047,0.213,5.92,-5.4,37.32,0,3
15483.875,0.946,-0.048,0.226,-3.05,-4.64,35.8,0,3
15483.875,0.946,-0.045,0.245,-9.06,-4.43,34.36,0,3
15483.89,0.945,-0.037,0.256,-10.16,-4.06,34.24,0,3
15483.906,0.947,-0.045,0.261,-7.72,-2.93,36.07,0,3
15483.906,0.939,-0.05,0.269,-3.75,-1.65,37.97,0,3
15483.921,0.921,-0.062,0.277,0.09,-0.89,38.7,0,3
15483.937,0.925,-0.076,0.281,1.92,-1.34,39.46,0,3
15483.937,0.915,-0.07,0.287,1.46,-2.23,40.22,0,3
15483.953,0.913,-0.082,0.286,-0.37,-4.0,40.25,0,3
15483.953,0.92,-0.093,0.291,-2.59,-5.65,40.19,0,3
15483.968,0.922,-0.089,0.287,-3.57,-6.62,40.25,0,3
15483.984,0.926,-0.106,0.285,-3.17,-6.74,40.86,0,3
15484.0,0.939,-0.138,0.281,-1.77,-6.59,42.21,0,3
15484.0,0.945,-0.156,0.275,-0.15,-6.68,42.73,0,3
15484.015,0.936,-0.167,0.273,0.55,-6.99,42.39,0,3
15484.015,0.931,-0.174,0.278,1.65,-6.93,41.6,0,3
15484.031,0.927,-0.166,0.278,3.2,-6.16,40.77,0,3
15484.046,0.923,-0.16,0.279,3.97,-5.31,40.28,0,3
15484.046,0.916,-0.165,0.28,3.78,-5.22,40.41,0,3
15484.062,0.906,-0.171,0.279,1.5,-7.54,41.29,0,3
15484.078,0.905,-0.183,0.277,0.73,-9.64,41.78,0,3
15484.078,0.913,-0.188,0.275,1.34,-10.62,41.81,0,3
15484.093,0.914,-0.181,0.273,1.62,-10.41,42.39,0,3
15484.093,0.92,-0.214,0.27,1.19,-9.89,43.4,0,3
15484.109,0.92,-0.23,0.272,1.01,-9.31,43.67,0,3
15484.125,0.921,-0.247,0.27,0.89,-9.22,43.15,0,3
15484.125,0.922,-0.258,0.274,1.34,-9.86,42.27,0,3
15484.14,0.913,-0.25,0.275,3.57,-10.35,41.05,0,3
15484.156,0.904,-0.253,0.271,6.5,-10.68,40.38,0,3
15484.156,0.898,-0.236,0.266,8.27,-10.35,41.23,0,3
15484.171,0.903,-0.237,0.262,7.63,-10.77,42.63,0,3
15484.187,0.912,-0.264,0.259,5.68,-11.9,43.64,0,3
15484.187,0.913,-0.283,0.259,4.27,-13.25,44.04,0,3
15484.203,0.912,-0.297,0.266,4.82,-14.1,43.31,0,3
15484.203,0.906,-0.298,0.274,7.23,-14.22,42.3,0,3
15484.218,0.886,-0.291,0.281,9.16,-13.73,41.51,0,3
15484.234,0.867,-0.295,0.294,9.52,-13.89,40.71,0,3
15484.234,0.856,-0.313,0.303,9.67,-15.44,40.56,0,3
15484.25,0.866,-0.345,0.312,11.2,-17.67,41.11,0,3
15484.265,0.869,-0.377,0.326,14.77,-19.17,41.11,0,3
15484.265,0.867,-0.396,0.337,20.63,-19.93,40.1,0,3
15484.281,0.871,-0.404,0.345,28.35,-20.87,38.7,0,3
15484.296,0.867,-0.383,0.347,37.05,-22.1,37.17,0,3
15484.296,0.853,-0.348,0.329,44.04,-24.54,36.77,0,3
15484.312,0.838,-0.336,0.29,45.47,-28.78,38.64,0,3
15484.312,0.852,-0.347,0.242,39.49,-34.64,42.3,0,3
15484.328,0.884,-0.361,0.199,29.02,-39.34,44.13,0,3
15484.343,0.897,-0.386,0.158,17.49,-41.57,43.67,0,3
15484.359,0.903,-0.401,0.126,6.62,-41.54,43.06,0,3
15484.359,0.91,-0.413,0.115,0.21,-39.19,41.6,0,3
15484.375,0.902,-0.412,0.106,0.15,-34.42,39.7,0,3
15484.375,0.89,-0.395,0.099,5.22,-29.3,38.67,0,3
15484.39,0.89,-0.398,0.089,12.94,-24.87,39.16,0,3
15484.406,0.896,-0.396,0.085,20.87,-20.66,40.16,0,3
15484.406,0.894,-0.384,0.075,28.35,-17.33,40.19,0,3
15484.421,0.889,-0.386,0.06,32.47,-14.68,40.56,0,3
15484.437,0.893,-0.364,0.052,31.25,-11.99,41.02,0,3
15484.437,0.884,-0.335,0.049,24.6,-9.25,40.96,0,3
15484.453,0.87,-0.328,0.056,13.61,-6.41,41.23,0,3
15484.453,0.87,-0.359,0.082,2.87,-3.91,42.54,0,3
15484.468,0.883,-0.425,0.109,-2.26,-2.14,45.14,0,3
15484.484,0.892,-0.485,0.129,-0.76,-0.73,46.3,0,3
15484.484,0.894,-0.519,0.146,5.07,0.27,44.83,0,3
15484.5,0.881,-0.513,0.155,11.93,1.34,42.24,0,3
15484.515,0.866,-0.484,0.147,16.02,1.65,40.31,0,3
15484.515,0.854,-0.45,0.133,14.65,1.74,39.7,0,3
15484.531,0.846,-0.443,0.129,9.16,1.8,40.25,0,3
15484.546,0.852,-0.457,0.14,3.3,1.98,41.05,0,3
15484.546,0.847,-0.472,0.149,0.95,2.59,41.69,0,3
15484.562,0.839,-0.481,0.155,1.62,2.96,41.93,0,3
15484.562,0.828,-0.483,0.162,4.18,3.02,41.6,0,3
15484.578,0.808,-0.478,0.169,7.66,2.96,41.17,0,3
15484.593,0.799,-0.476,0.167,10.74,2.72,41.93,0,3
15484.593,0.799,-0.482,0.163,11.93,2.29,43.03,0,3
15484.609,0.804,-0.501,0.154,11.78,1.65,43.58,0,3
15484.625,0.818,-0.516,0.151,9.92,1.83,43.55,0,3
15484.625,0.82,-0.517,0.154,8.73,3.97,42.85,0,3
15484.64,0.797,-0.522,0.16,8.79,7.08,42.57,0,3
15484.656,0.783,-0.526,0.177,8.55,9.49,42.76,0,3
15484.656,0.769,-0.521,0.195,7.69,11.2,43.18,0,3
15484.671,0.766,-0.545,0.204,5.89,10.77,44.16,0,3
15484.671,0.768,-0.56,0.207,3.81,9.03,44.8,0,3
15484.687,0.772,-0.573,0.209,2.23,6.87,44.74,0,3
15484.703,0.77,-0.596,0.215,2.26,5.55,44.25,0,3
15484.703,0.772,-0.603,0.218,3.51,5.68,43.86,0,3
15484.718,0.77,-0.611,0.22,5.4,6.1,43.55,0,3
15484.734,0.761,-0.625,0.223,7.75,6.44,43.31,0,3
15484.734,0.759,-0.635,0.226,9.64,6.53,43.03,0,3
15484.75,0.749,-0.635,0.226,11.54,6.68,42.21,0,3
15484.765,0.743,-0.634,0.229,13.15,7.48,41.11,0,3
15484.765,0.734,-0.639,0.236,13.98,8.64,40.86,0,3
15484.781,0.733,-0.636,0.237,14.04,9.03,41.29,0,3
15484.796,0.73,-0.626,0.24,12.73,8.73,41.11,0,3
15484.796,0.72,-0.631,0.242,10.25,7.2,40.62,0,3
15484.812,0.707,-0.62,0.249,7.72,5.74,40.5,0,3
15484.812,0.686,-0.611,0.255,6.62,4.21,40.1,0,3
15484.828,0.683,-0.616,0.258,7.17,2.84,40.28,0,3
15484.843,0.692,-0.627,0.259,9.22,2.47,41.75,0,3
15484.843,0.697,-0.653,0.26,12.18,3.11,42.76,0,3
15484.859,0.702,-0.682,0.258,14.44,4.3,42.54,0,3
15484.875,0.705,-0.714,0.259,15.75,4.91,41.44,0,3
15484.875,0.711,-0.742,0.256,17.3,4.91,40.38,0,3
15484.89,0.712,-0.747,0.247,18.71,4.76,39.0,0,3
15484.906,0.71,-0.745,0.24,19.2,4.88,36.96,0,3
15484.906,0.701,-0.742,0.245,19.14,6.41,35.07,0,3
15484.921,0.686,-0.745,0.256,19.14,8.39,33.75,0,3
15484.921,0.678,-0.757,0.27,19.93,9.89,32.87,0,3
15484.937,0.674,-0.748,0.289,21.82,11.17,31.5,0,3
15484.953,0.659,-0.739,0.301,23.74,11.72,30.03,0,3
15484.953,0.65,-0.734,0.312,24.02,11.6,29.24,0,3
15484.968,0.648,-0.735,0.318,22.22,11.08,29.02,0,3
15484.984,0.642,-0.731,0.326,18.68,10.68,28.5,0,3
15484.984,0.63,-0.724,0.334,13.34,9.4,27.68,0,3
15485.0,0.617,-0.731,0.351,7.6,7.42,26.37,0,3
15485.015,0.612,-0.743,0.364,3.78,5.52,25.54,0,3
15485.015,0.617,-0.766,0.372,3.14,3.81,25.61,0,3
15485.031,0.613,-0.789,0.37,4.85,2.81,25.67,0,3
15485.046,0.61,-0.8,0.369,7.51,2.01,25.24,0,3
15485.046,0.605,-0.805,0.367,10.53,0.73,22.71,0,3
15485.062,0.599,-0.813,0.365,10.47,-0.09,21.27,0,3
15485.062,0.594,-0.82,0.362,11.38,-1.71,19.71,0,3
15485.078,0.595,-0.831,0.34,13.34,-3.39,18.59,0,3
15485.093,0.597,-0.823,0.318,14.62,-4.39,17.58,0,3
15485.093,0.589,-0.806,0.305,13.89,-4.82,16.33,0,3
15485.109,0.577,-0.801,0.293,11.75,-5.31,15.11,0,3
15485.125,0.57,-0.801,0.288,8.51,-5.31,14.53,0,3
15485.125,0.573,-0.814,0.283,6.99,-4.49,14.1,0,3
15485.14,0.582,-0.821,0.274,7.42,-2.81,13.49,0,3
15485.156,0.589,-0.828,0.268,7.14,-0.27,11.99,0,3
15485.156,0.591,-0.836,0.271,4.76,2.32,9.83,0,3
15485.171,0.592,-0.842,0.284,1.98,4.43,7.72,0,3
15485.171,0.589,-0.843,0.302,0.92,5.89,5.92,0,3
15485.187,0.58,-0.831,0.318,2.14,6.99,4.3,0,3
15485.203,0.578,-0.823,0.33,5.28,7.42,3.14,0,3
15485.203,0.575,-0.804,0.328,8.55,7.08,2.72,0,3
15485.218,0.581,-0.788,0.319,9.46,5.89,2.47,0,3
15485.234,0.591,-0.784,0.311,7.32,4.0,2.26,0,3
15485.234,0.602,-0.783,0.309,4.21,2.56,1.77,0,3
15485.25,0.606,-0.78,0.311,0.92,1.71,0.82,0,3
15485.265,0.603,-0.781,0.318,-1.71,1.43,-0.46,0,3
15485.265,0.601,-0.77,0.325,-2.2,1.34,-1.65,0,3
15485.281,0.597,-0.757,0.328,-0.34,1.8,-2.72,0,3
15485.281,0.589,-0.735,0.332,2.78,3.05,-3.42,0,3
15485.296,0.591,-0.712,0.332,4.61,4.64,-3.69,0,3
15485.312,0.592,-0.703,0.337,4.52,5.92,-3.17,0,3
15485.312,0.597,-0.705,0.352,3.36,6.29,-2.08,0,3
15485.328,0.604,-0.719,0.361,2.84,5.52,-1.34,0,3
15485.343,0.613,-0.721,0.365,3.42,4.43,-1.16,0,3
15485.343,0.617,-0.711,0.365,4.91,3.69,-1.22,0,3
15485.359,0.613,-0.692,0.361,5.46,3.42,-1.25,0,3
