timestamp,ax,ay,az,gx,gy,gz,orient_label,motion_label
15485.375,0.614,-0.691,0.357,3.14,3.36,-1.01,0,3
15485.375,0.615,-0.701,0.367,-0.31,3.33,-0.61,0,3
15485.39,0.618,-0.705,0.381,-1.13,2.93,-0.09,0,3
15485.406,0.624,-0.705,0.391,0.52,2.32,0.67,0,3
15485.406,0.627,-0.71,0.39,3.51,1.5,0.76,0,3
15485.421,0.628,-0.699,0.391,6.71,0.85,0.61,0,3
15485.421,0.626,-0.682,0.388,8.73,1.04,0.55,0,3
15485.437,0.623,-0.674,0.389,8.94,0.92,1.04,0,3
15485.453,0.624,-0.671,0.387,7.23,0.15,2.01,0,3
15485.453,0.633,-0.68,0.385,4.06,-1.34,3.05,0,3
15485.468,0.639,-0.686,0.389,1.43,-2.47,3.57,0,3
15485.484,0.631,-0.684,0.394,0.85,-3.27,3.69,0,3
15485.484,0.625,-0.681,0.393,2.17,-3.85,4.27,0,3
15485.5,0.626,-0.684,0.391,4.27,-4.27,5.07,0,3
15485.515,0.625,-0.686,0.385,5.58,-4.85,5.98,0,3
15485.515,0.627,-0.705,0.383,5.83,-5.22,6.68,0,3
15485.531,0.63,-0.722,0.377,5.55,-5.8,6.99,0,3
15485.546,0.621,-0.723,0.359,5.34,-7.51,5.58,0,3
15485.562,0.617,-0.723,0.352,4.88,-8.39,5.31,0,3
15485.562,0.62,-0.728,0.339,4.7,-8.58,5.43,0,3
15485.578,0.617,-0.732,0.326,4.0,-8.12,5.37,0,3
15485.593,0.615,-0.738,0.322,2.99,-7.14,4.73,0,3
15485.593,0.613,-0.741,0.326,2.38,-5.13,4.09,0,3
15485.609,0.604,-0.739,0.328,2.17,-2.81,4.0,0,3
15485.625,0.595,-0.738,0.33,1.22,-1.28,3.88,0,3
15485.625,0.591,-0.739,0.331,0.12,-0.55,3.51,0,3
15485.64,0.587,-0.739,0.33,-1.01,-0.31,3.33,0,3
15485.656,0.583,-0.739,0.333,-1.43,0.09,3.45,0,3
15485.656,0.579,-0.745,0.334,-1.46,0.76,3.85,0,3
15485.671,0.58,-0.75,0.335,-1.25,1.19,4.03,0,3
15485.687,0.577,-0.754,0.343,-0.92,1.4,3.97,0,3
15485.687,0.578,-0.758,0.344,-0.49,1.01,3.66,0,3
15485.703,0.581,-0.758,0.345,-0.27,0.76,3.2,0,3
15485.703,0.582,-0.76,0.339,-0.76,0.76,2.62,0,3
15485.718,0.582,-0.768,0.34,-1.68,1.04,2.26,0,3
15485.734,0.586,-0.777,0.341,-2.32,1.31,1.77,0,3
15485.734,0.591,-0.784,0.343,-2.9,1.59,1.01,0,3
15485.75,0.584,-0.787,0.348,-2.23,2.11,0.0,0,3
15485.765,0.582,-0.784,0.346,-0.4,1.83,-0.73,0,3
15485.765,0.582,-0.776,0.346,1.19,1.68,-1.34,0,3
15485.781,0.578,-0.778,0.343,2.04,1.65,-1.65,0,3
15485.796,0.579,-0.783,0.342,1.98,1.98,-1.86,0,3
15485.796,0.58,-0.785,0.339,1.46,2.38,-2.47,0,3
15485.812,0.579,-0.789,0.337,0.03,2.5,-3.45,0,3
15485.812,0.575,-0.792,0.337,-1.4,2.23,-4.76,0,3
15485.828,0.574,-0.79,0.339,-1.71,1.77,-5.83,0,3
15485.843,0.576,-0.789,0.336,-0.67,1.34,-6.68,0,3
15485.843,0.576,-0.792,0.329,1.01,1.28,-7.11,0,3
15485.859,0.576,-0.793,0.326,1.98,1.8,-7.66,0,3
15485.875,0.571,-0.799,0.321,1.65,2.26,-8.7,0,3
15485.875,0.561,-0.803,0.326,0.58,2.26,-10.44,0,3
15485.89,0.554,-0.803,0.329,0.24,1.59,-12.18,0,3
15485.906,0.549,-0.798,0.324,1.25,0.79,-13.79,0,3
15485.906,0.547,-0.783,0.315,2.72,0.0,-14.74,0,3
15485.921,0.545,-0.775,0.304,4.12,-0.82,-14.98,0,3
15485.937,0.534,-0.777,0.291,5.34,-1.31,-14.77,0,3
15485.937,0.53,-0.788,0.28,5.28,-1.65,-14.25,0,3
15485.953,0.527,-0.814,0.27,3.54,-2.17,-14.1,0,3
15485.953,0.52,-0.851,0.252,2.53,-2.41,-15.05,0,3
15485.968,0.518,-0.871,0.234,1.86,-2.08,-16.36,0,3
15485.984,0.516,-0.892,0.213,2.04,-1.43,-18.04,0,3
15485.984,0.517,-0.904,0.192,2.59,0.0,-20.33,0,3
15486.0,0.517,-0.898,0.171,3.88,1.98,-23.32,0,3
15486.015,0.507,-0.886,0.157,5.92,4.67,-26.89,0,3
15486.015,0.496,-0.864,0.154,9.8,8.55,-30.76,0,3
15486.031,0.472,-0.821,0.155,20.2,16.82,-37.05,0,3
15486.046,0.445,-0.777,0.155,24.26,19.84,-39.03,0,3
15486.046,0.421,-0.73,0.157,26.49,22.4,-39.7,0,3
15486.062,0.397,-0.649,0.173,27.13,24.08,-39.89,0,3
15486.078,0.399,-0.639,0.187,27.92,24.81,-38.85,0,3
15486.078,0.416,-0.673,0.207,29.88,24.17,-35.62,0,3
15486.093,0.444,-0.717,0.217,33.6,22.49,-31.62,0,3
15486.093,0.463,-0.727,0.215,38.33,20.36,-29.94,0,3
15486.109,0.467,-0.729,0.213,42.39,18.92,-32.2,0,3
15486.125,0.461,-0.704,0.215,44.83,18.16,-36.47,0,3
15486.14,0.448,-0.662,0.221,47.09,17.98,-41.02,0,3
15486.14,0.439,-0.609,0.228,49.84,18.65,-44.77,0,3
15486.156,0.44,-0.552,0.238,53.22,19.35,-47.79,0,3
15486.156,0.434,-0.491,0.242,56.76,21.0,-49.53,0,3
15486.171,0.426,-0.436,0.253,59.02,22.64,-49.56,0,3
15486.187,0.421,-0.4,0.264,61.01,24.45,-48.31,0,3
15486.187,0.407,-0.378,0.281,61.59,26.86,-45.41,0,3
15486.203,0.401,-0.367,0.306,61.37,28.6,-41.9,0,3
15486.203,0.405,-0.356,0.319,61.46,29.85,-38.82,0,3
15486.218,0.416,-0.333,0.33,61.8,32.11,-37.08,0,3
15486.234,0.427,-0.307,0.35,61.43,35.37,-36.38,0,3
15486.234,0.421,-0.283,0.373,60.95,39.16,-36.04,0,3
15486.25,0.414,-0.267,0.396,61.19,42.21,-35.37,0,3
15486.265,0.415,-0.251,0.412,62.44,44.92,-34.03,0,3
15486.265,0.417,-0.234,0.428,64.39,47.03,-31.68,0,3
15486.281,0.422,-0.215,0.438,66.84,47.94,-28.72,0,3
15486.296,0.425,-0.198,0.446,69.7,48.34,-24.93,0,3
15486.296,0.426,-0.177,0.453,71.41,50.14,-21.24,0,3
15486.312,0.415,-0.164,0.465,70.62,53.44,-17.61,0,3
15486.328,0.403,-0.157,0.492,68.27,58.08,-14.44,0,3
15486.328,0.41,-0.155,0.51,65.92,61.65,-12.82,0,3
15486.343,0.4,-0.158,0.529,64.46,64.42,-11.72,0,3
15486.343,0.381,-0.169,0.545,65.19,66.62,-10.74,0,3
15486.359,0.373,-0.171,0.553,67.87,67.72,-10.1,0,3
15486.375,0.39,-0.178,0.561,72.36,68.3,-9.34,0,3
15486.375,0.422,-0.162,0.567,77.12,67.63,-10.1,0,3
15486.406,0.413,-0.108,0.583,86.18,70.35,-9.46,0,3
15486.406,0.4,-0.099,0.596,90.52,72.94,-9.55,0,3
15486.421,0.424,-0.104,0.61,92.78,74.19,-9.25,0,3
15486.437,0.438,-0.09,0.619,94.49,74.07,-9.13,0,3
15486.437,0.422,-0.091,0.625,97.08,73.98,-8.85,0,3
15486.453,0.401,-0.098,0.639,99.89,73.58,-9.16,0,3
15486.453,0.385,-0.1,0.664,102.66,73.21,-9.31,0,3
15486.468,0.384,-0.113,0.7,105.08,75.66,-10.22,0,3
15486.484,0.451,-0.129,0.756,106.72,80.75,-13.06,0,3
15486.484,0.549,-0.113,0.791,108.71,84.26,-19.01,0,3
15486.5,0.541,-0.11,0.775,114.05,85.21,-25.51,0,3
15486.515,0.496,-0.138,0.777,123.26,83.86,-29.36,0,3
15486.531,0.502,-0.137,0.79,136.17,77.61,-31.1,0,3
15486.531,0.492,-0.123,0.786,151.62,70.77,-32.56,0,3
15486.546,0.444,-0.1,0.795,164.16,68.24,-34.46,0,3
15486.546,0.434,-0.069,0.826,169.26,70.04,-38.45,0,3
15486.562,0.506,0.008,0.921,163.95,80.29,-54.08,0,3
15486.578,0.534,0.048,0.939,158.42,80.9,-65.43,0,3
15486.593,0.486,0.037,0.939,158.7,76.48,-74.71,0,3
15486.609,0.433,0.033,0.951,165.38,65.25,-79.35,0,3
15486.609,0.417,0.086,0.963,174.44,51.24,-81.51,0,3
15486.625,0.37,0.148,0.967,178.69,41.05,-84.81,0,3
15486.625,0.334,0.186,0.994,176.03,33.94,-90.58,0,3
15486.64,0.326,0.213,1.027,171.03,28.29,-99.89,0,3
15486.656,0.346,0.243,1.035,168.1,22.95,-110.54,0,3
15486.656,0.387,0.328,1.001,169.38,15.66,-121.56,0,3
15486.671,0.387,0.407,0.947,174.84,7.69,-129.06,0,3
15486.671,0.348,0.447,0.885,182.59,-1.83,-131.5,0,3
15486.687,0.295,0.503,0.833,191.35,-9.95,-129.58,0,3
15486.703,0.259,0.551,0.798,196.05,-10.77,-125.0,0,3
15486.718,0.237,0.579,0.783,191.69,-3.88,-121.71,0,3
15486.718,0.247,0.612,0.789,177.01,9.49,-122.47,0,3
15486.734,0.207,0.709,0.826,125.58,36.81,-143.77,0,3
15486.75,0.179,0.802,0.865,93.48,44.01,-160.16,0,3
15486.765,0.14,0.904,0.891,63.33,42.09,-173.8,0,3
15486.765,0.109,0.987,0.888,36.99,29.73,-180.09,0,3
15486.781,0.089,1.039,0.85,13.18,10.8,-177.68,0,3
15486.796,0.105,1.079,0.8,-9.06,-7.45,-168.31,0,3
15486.796,0.115,1.054,0.769,-27.1,-14.04,-152.99,0,3
15486.812,0.127,0.957,0.781,-40.56,-5.58,-133.95,0,3
15486.812,0.154,0.856,0.819,-49.53,15.78,-115.54,0,3
15486.828,0.164,0.794,0.849,-53.8,44.4,-102.82,0,3
15486.843,0.121,0.764,0.855,-56.0,74.83,-97.69,0,3
15486.843,0.044,0.737,0.871,-58.38,100.59,-95.98,0,3
15486.859,-0.062,0.805,0.897,-63.33,119.33,-95.83,0,3
15486.875,-0.179,0.882,0.917,-71.41,127.72,-95.34,0,3
15486.89,-0.303,0.865,0.922,-80.97,128.24,-88.53,0,3
15486.89,-0.38,0.794,0.991,-92.62,129.49,-73.49,0,3
15486.906,-0.383,0.721,1.116,-100.04,137.39,-56.73,0,3
15486.906,-0.377,0.651,1.231,-98.42,149.45,-46.85,0,3
15486.921,-0.389,0.529,1.295,-85.06,157.02,-43.89,0,3
15486.937,-0.398,0.433,1.335,-61.46,157.63,-42.97,0,3
15486.937,-0.41,0.408,1.335,-28.66,150.52,-43.18,0,3
15486.953,-0.422,0.438,1.276,7.69,135.78,-44.62,0,3
15486.968,-0.454,0.55,1.192,39.37,117.1,-45.5,0,3
15486.968,-0.48,0.68,1.109,60.88,101.23,-42.24,0,3
15486.984,-0.476,0.745,1.046,70.22,91.83,-36.56,0,3
15486.984,-0.449,0.737,1.012,72.42,89.45,-30.37,0,3
15487.0,-0.423,0.743,0.99,72.42,91.74,-26.22,0,3
15487.015,-0.418,0.752,0.971,72.05,95.92,-26.18,0,3
15487.015,-0.415,0.722,0.961,72.05,94.58,-26.06,0,3
15487.031,-0.4,0.688,0.955,75.53,90.21,-26.52,0,3
15487.046,-0.387,0.665,0.94,82.95,83.86,-26.76,0,3
15487.046,-0.358,0.655,0.869,92.75,76.91,-26.03,0,3
15487.078,-0.355,0.649,0.793,118.26,64.73,-22.92,0,3
15487.078,-0.341,0.652,0.762,131.05,64.64,-19.44,0,3
15487.093,-0.346,0.661,0.74,142.16,68.36,-15.93,0,3
15487.093,-0.358,0.676,0.713,153.11,73.15,-13.89,0,3
15487.109,-0.354,0.691,0.681,162.21,77.85,-13.18,0,3
15487.125,-0.355,0.703,0.648,168.03,81.73,-14.37,0,3
15487.14,-0.365,0.72,0.616,170.75,84.26,-17.49,0,3
15487.14,-0.381,0.753,0.591,169.19,85.3,-20.78,0,3
15487.156,-0.402,0.78,0.572,161.26,83.22,-22.4,0,3
15487.156,-0.429,0.801,0.558,148.69,76.97,-21.79,0,3
15487.171,-0.445,0.816,0.555,134.71,67.05,-19.35,0,3
15487.187,-0.445,0.818,0.556,120.85,54.23,-16.14,0,3
15487.187,-0.435,0.799,0.558,108.28,39.77,-13.34,0,3
15487.203,-0.424,0.778,0.546,98.39,25.24,-12.73,0,3
15487.218,-0.418,0.782,0.528,90.7,12.76,-15.02,0,3
15487.218,-0.41,0.796,0.508,84.48,2.9,-18.8,0,3
15487.234,-0.568,0.92,0.649,82.22,-10.16,-25.42,0,3
15487.25,-0.589,0.937,0.753,101.93,-25.18,-9.31,0,3
15487.265,-0.358,0.861,0.59,109.04,-47.43,1.43,0,3
15487.265,-0.461,0.903,0.514,107.06,-51.64,-9.58,0,3
15487.281,-0.405,0.832,0.453,114.99,-46.69,-9.52,0,3
15487.296,-0.339,0.827,0.341,116.0,-39.03,-12.42,0,3
15487.296,-0.393,0.89,0.307,112.22,-23.71,-17.06,0,3
15487.312,-0.42,0.901,0.302,109.47,-12.27,-15.38,0,3
15487.328,-0.414,0.902,0.308,104.4,-8.61,-9.95,0,3
15487.328,-0.427,0.917,0.324,100.77,-10.74,-5.28,0,3
15487.343,-0.397,0.883,0.301,99.25,-17.85,-2.32,0,3
15487.343,-0.379,0.851,0.275,98.12,-24.84,-2.53,0,3
15487.359,-0.361,0.823,0.249,99.34,-29.82,-3.3,0,3
15487.375,-0.341,0.806,0.221,101.29,-33.45,-4.27,0,3
15487.375,-0.329,0.806,0.193,103.64,-35.37,-5.77,0,3
15487.39,-0.319,0.809,0.169,105.01,-35.52,-7.2,0,3
15487.406,-0.314,0.808,0.15,104.22,-34.49,-8.39,0,3
15487.406,-0.317,0.809,0.136,101.6,-33.27,-10.44,0,3
15487.421,-0.326,0.823,0.126,97.14,-32.9,-13.25,0,3
15487.437,-0.342,0.842,0.118,90.73,-34.52,-15.9,0,3
15487.437,-0.357,0.864,0.106,81.24,-38.64,-18.98,0,3
15487.453,-0.381,0.89,0.095,68.15,-44.74,-23.62,0,3
15487.453,-0.397,0.91,0.059,51.42,-51.64,-28.66,0,3
15487.468,-0.415,0.935,0.043,31.28,-57.65,-33.63,0,3
15487.484,-0.435,0.945,0.02,10.47,-62.04,-38.0,0,3
15487.484,-0.453,0.96,0.026,-11.11,-64.67,-41.23,0,3
15487.5,-0.478,0.957,0.047,-26.86,-64.64,-43.09,0,3
15487.515,-0.489,0.931,0.061,-34.36,-62.11,-42.73,0,3
15487.515,-0.488,0.901,0.086,-34.61,-55.6,-40.25,0,3
15487.531,-0.488,0.871,0.107,-28.29,-46.48,-36.1,0,3
15487.546,-0.491,0.852,0.115,-18.04,-35.65,-31.37,0,3
15487.546,-0.493,0.843,0.122,-6.59,-22.86,-27.04,0,3
15487.562,-0.501,0.848,0.132,3.75,-9.22,-23.26,0,3
15487.562,-0.522,0.869,0.14,9.8,4.39,-19.62,0,3
15487.578,-0.549,0.893,0.147,10.04,15.59,-16.42,0,3
15487.593,-0.581,0.908,0.161,5.43,23.59,-14.34,0,3
15487.593,-0.604,0.911,0.177,-2.47,27.86,-12.91,0,3
15487.609,-0.662,0.909,0.224,-10.86,29.54,-11.29,0,3
15487.625,-0.675,0.85,0.477,-7.48,32.62,-2.93,0,3
15487.625,-0.714,0.79,0.595,22.0,24.2,-0.89,0,3
15487.64,-0.785,0.746,0.595,44.86,4.91,-4.43,0,3
15487.656,-0.723,0.742,0.61,42.57,-24.81,-10.8,0,3
15487.656,-0.688,0.77,0.533,21.42,-56.4,-23.1,0,3
15487.671,-0.668,0.73,0.413,1.04,-72.54,-28.26,0,3
15487.687,-0.647,0.699,0.333,0.18,-69.98,-22.34,0,3
15487.687,-0.652,0.729,0.267,17.88,-58.63,-10.25,0,3
15487.703,-0.584,0.739,0.199,40.01,-43.55,4.24,0,3
15487.703,-0.537,0.752,0.154,50.02,-29.63,6.04,0,3
15487.718,-0.541,0.744,0.109,55.88,-17.18,-2.2,0,3
15487.734,-0.578,0.762,0.055,57.68,-7.45,-11.29,0,3
15487.734,-0.596,0.811,0.049,52.49,-1.95,-15.47,0,3
15487.75,-0.605,0.827,0.073,46.05,-0.34,-16.24,0,3
15487.765,-0.619,0.81,0.085,40.25,-3.2,-15.69,0,3
15487.765,-0.626,0.812,0.06,33.11,-9.98,-15.11,0,3
15487.781,-0.609,0.833,0.029,23.26,-16.54,-13.67,0,3
15487.796,-0.587,0.838,0.017,10.9,-19.84,-11.69,0,3
15487.796,-0.572,0.824,0.025,-1.65,-20.14,-10.35,0,3
15487.812,-0.561,0.801,0.03,-11.38,-18.46,-9.43,0,3
15487.812,-0.55,0.779,0.041,-17.21,-15.2,-8.73,0,3
15487.828,-0.545,0.767,0.055,-19.41,-10.96,-8.97,0,3
15487.843,-0.55,0.759,0.069,-18.46,-6.99,-9.95,0,3
15487.843,-0.552,0.752,0.083,-15.32,-3.85,-10.8,0,3
15487.859,-0.554,0.752,0.092,-11.05,-1.77,-11.14,0,3
15487.875,-0.557,0.756,0.099,-6.78,-0.43,-10.93,0,3
15487.875,-0.565,0.759,0.122,-2.5,0.46,-9.92,0,3
15487.89,-0.57,0.759,0.159,3.88,0.95,-8.88,0,3
15487.906,-0.567,0.766,0.173,12.73,0.4,-8.88,0,3
15487.906,-0.566,0.772,0.166,20.51,-0.67,-9.03,0,3
15487.921,-0.569,0.787,0.158,24.81,-1.74,-9.13,0,3
15487.921,-0.566,0.804,0.15,25.21,-2.81,-9.37,0,3
15487.937,-0.565,0.815,0.151,23.44,-3.39,-9.49,0,3
15487.953,-0.565,0.818,0.15,21.88,-3.3,-8.76,0,3
15487.953,-0.564,0.829,0.148,21.03,-2.96,-7.6,0,3
15487.968,-0.558,0.836,0.143,20.42,-2.84,-6.71,0,3
15487.984,-0.555,0.84,0.129,19.32,-2.9,-6.65,0,3
15487.984,-0.56,0.844,0.118,12.24,-3.11,-6.84,0,3
15488.0,-0.555,0.849,0.117,8.33,-3.42,-6.44,0,3
15488.015,-0.554,0.846,0.122,5.92,-3.97,-5.55,0,3
15488.015,-0.556,0.834,0.126,5.25,-4.61,-4.61,0,3
15488.031,-0.554,0.824,0.13,6.13,-5.65,-3.81,0,3
15488.046,-0.552,0.815,0.124,7.48,-6.29,-3.23,0,3
15488.046,-0.552,0.819,0.12,8.18,-6.65,-3.08,0,3
15488.062,-0.552,0.828,0.118,8.85,-6.71,-3.14,0,3
15488.062,-0.554,0.827,0.114,8.97,-6.47,-2.59,0,3
15488.078,-0.555,0.829,0.115,8.21,-5.89,-1.65,0,3
15488.093,-0.552,0.826,0.117,7.35,-5.55,-0.49,0,3
15488.093,-0.551,0.823,0.125,6.65,-5.16,0.37,0,3
15488.109,-0.554,0.819,0.128,6.68,-4.85,1.13,0,3
15488.125,-0.559,0.82,0.132,6.81,-4.49,1.59,0,3
15488.125,-0.56,0.825,0.135,6.93,-4.18,2.29,0,3
15488.14,-0.554,0.827,0.139,6.47,-3.69,2.96,0,3
15488.156,-0.555,0.829,0.146,4.94,-2.69,3.23,0,3
15488.156,-0.557,0.831,0.159,3.02,-2.11,3.85,0,3
15488.171,-0.553,0.827,0.162,0.58,-2.29,4.46,0,3
15488.171,-0.546,0.818,0.161,-2.29,-2.72,4.24,0,3
15488.187,-0.547,0.811,0.161,-4.82,-3.45,3.6,0,3
15488.203,-0.547,0.807,0.158,-6.74,-4.36,2.9,0,3
15488.203,-0.549,0.81,0.161,-7.6,-5.58,2.53,0,3
15488.218,-0.553,0.815,0.162,-7.11,-7.42,3.02,0,3
15488.234,-0.547,0.825,0.15,-6.68,-10.1,3.91,0,3
15488.234,-0.548,0.83,0.137,-8.15,-12.45,4.15,0,3
15488.25,-0.551,0.831,0.14,-10.07,-14.34,4.55,0,3
15488.265,-0.546,0.835,0.142,-10.32,-15.5,5.22,0,3
15488.265,-0.542,0.831,0.15,-7.35,-15.47,5.34,0,3
15488.281,-0.542,0.829,0.157,0.09,-13.7,4.82,0,3
15488.296,-0.539,0.838,0.165,10.41,-10.77,4.82,0,3
15488.296,-0.535,0.847,0.171,22.89,-6.68,5.22,0,3
15488.312,-0.536,0.864,0.162,34.15,-2.62,6.32,0,3
15488.312,-0.541,0.883,0.153,40.65,-0.15,7.9,0,3
15488.328,-0.546,0.911,0.143,40.5,-0.34,9.37,0,3
15488.343,-0.549,0.94,0.13,34.15,-3.36,11.29,0,3
15488.343,-0.545,0.953,0.115,22.86,-8.36,14.04,0,3
15488.359,-0.541,0.954,0.105,7.54,-14.16,16.63,0,3
15488.375,-0.529,0.947,0.11,-8.3,-19.81,18.43,0,3
15488.375,-0.517,0.93,0.118,-21.52,-24.57,19.32,0,3
15488.39,-0.509,0.917,0.126,-30.64,-27.71,19.93,0,3
15488.406,-0.5,0.914,0.137,-36.59,-29.85,21.06,0,3
15488.406,-0.49,0.901,0.144,-39.49,-31.16,22.55,0,3
15488.421,-0.488,0.893,0.151,-40.28,-31.62,24.05,0,3
15488.421,-0.487,0.9,0.159,-39.74,-30.85,25.76,0,3
15488.437,-0.484,0.898,0.163,-38.36,-29.97,27.16,0,3
15488.453,-0.482,0.891,0.169,-36.47,-29.45,28.72,0,3
15488.453,-0.477,0.886,0.174,-34.36,-29.6,30.4,0,3
15488.468,-0.466,0.875,0.176,-32.32,-29.69,31.86,0,3
15488.484,-0.459,0.872,0.178,-30.95,-29.39,33.14,0,3
15488.5,-0.457,0.874,0.177,-30.64,-29.39,34.21,0,3
15488.5,-0.45,0.871,0.18,-31.89,-30.06,34.79,0,3
15488.515,-0.445,0.872,0.184,-34.61,-31.1,34.88,0,3
15488.515,-0.439,0.872,0.189,-37.97,-32.69,35.13,0,3
15488.531,-0.43,0.865,0.187,-41.78,-34.49,35.95,0,3
15488.546,-0.42,0.864,0.19,-45.63,-35.86,36.99,0,3
15488.546,-0.406,0.861,0.197,-49.56,-36.13,37.05,0,3
15488.562,-0.397,0.852,0.203,-52.55,-35.55,36.62,0,3
15488.562,-0.393,0.849,0.217,-53.99,-34.06,36.5,0,3
15488.578,-0.383,0.853,0.234,-54.57,-32.14,36.81,0,3
15488.593,-0.378,0.842,0.247,-53.65,-30.37,37.11,0,3
15488.593,-0.375,0.832,0.261,-51.58,-28.96,37.29,0,3
15488.609,-0.37,0.836,0.277,-49.17,-28.17,37.32,0,3
15488.625,-0.363,0.846,0.287,-47.09,-26.95,37.6,0,3
15488.64,-0.359,0.854,0.302,-45.84,-25.48,36.99,0,3
15488.64,-0.348,0.844,0.31,-44.53,-24.11,36.32,0,3
15488.656,-0.347,0.845,0.328,-43.61,-22.4,35.43,0,3
15488.656,-0.347,0.839,0.343,-41.9,-21.27,35.22,0,3
15488.671,-0.347,0.822,0.355,-39.0,-21.27,35.8,0,3
15488.687,-0.34,0.82,0.364,-35.58,-22.0,36.44,0,3
15488.687,-0.334,0.822,0.366,-32.53,-22.68,35.86,0,3
15488.703,-0.333,0.808,0.371,-29.69,-22.77,35.1,0,3
15488.703,-0.332,0.809,0.375,-27.41,-22.13,34.55,0,3
15488.718,-0.326,0.8,0.374,-26.06,-20.97,33.81,0,3
15488.734,-0.323,0.778,0.376,-24.63,-19.29,33.63,0,3
15488.734,-0.312,0.763,0.378,-23.62,-16.97,33.48,0,3
15488.765,-0.316,0.767,0.382,-22.61,-12.05,30.09,0,3
15488.765,-0.327,0.782,0.383,-24.38,-10.99,28.41,0,3
15488.781,-0.327,0.788,0.392,-28.6,-10.96,27.99,0,3
15488.796,-0.332,0.783,0.401,-33.81,-11.38,28.02,0,3
15488.796,-0.334,0.777,0.411,-38.36,-12.05,28.08,0,3
15488.812,-0.332,0.762,0.426,-41.38,-12.97,28.32,0,3
15488.828,-0.333,0.745,0.435,-42.39,-13.55,27.92,0,3
15488.828,-0.334,0.737,0.439,-41.41,-13.4,26.09,0,3
15488.843,-0.331,0.725,0.441,-38.54,-12.48,23.87,0,3
15488.843,-0.331,0.719,0.442,-34.55,-10.56,21.49,0,3
15488.859,-0.337,0.722,0.445,-29.66,-7.81,19.04,0,3
15488.875,-0.34,0.725,0.447,-23.74,-4.76,17.15,0,3
15488.875,-0.343,0.741,0.449,-17.85,-1.77,15.38,0,3
15488.89,-0.345,0.754,0.455,-12.6,0.98,13.43,0,3
15488.906,-0.354,0.766,0.458,-7.87,2.9,11.6,0,3
15488.906,-0.366,0.797,0.456,-3.94,3.69,10.32,0,3
15488.937,-0.39,0.851,0.453,-2.96,1.34,9.98,0,3
15488.937,-0.391,0.867,0.453,-4.91,-1.04,11.11,0,3
15488.953,-0.389,0.868,0.45,-6.93,-3.51,13.09,0,3
15488.953,-0.38,0.864,0.444,-8.73,-5.52,15.41,0,3
15488.968,-0.362,0.854,0.441,-9.58,-6.01,17.0,0,3
15488.984,-0.339,0.843,0.444,-9.22,-1.95,17.88,0,3
15488.984,-0.326,0.833,0.446,-7.97,1.1,17.43,0,3
15489.0,-0.319,0.831,0.455,-6.1,3.57,16.6,0,3
15489.015,-0.311,0.832,0.479,-3.85,4.43,15.84,0,3
15489.031,-0.313,0.842,0.488,-1.5,4.18,15.41,0,3
15489.031,-0.311,0.848,0.493,0.7,2.59,15.87,0,3
15489.046,-0.302,0.863,0.495,1.8,-0.06,16.79,0,3
15489.046,-0.295,0.881,0.494,1.34,-2.84,17.55,0,3
15489.062,-0.282,0.894,0.495,-0.49,-5.28,18.43,0,3
15489.062,-0.267,0.904,0.5,-3.36,-7.26,19.44,0,3
15489.078,-0.252,0.91,0.508,-6.74,-8.09,20.78,0,3
15489.109,-0.229,0.916,0.537,-10.62,-7.14,25.51,0,3
15489.109,-0.214,0.92,0.548,-11.14,-5.92,27.8,0,3
15489.125,-0.208,0.924,0.564,-10.53,-4.61,29.39,0,3
15489.125,-0.212,0.933,0.581,-8.67,-4.36,31.07,0,3
15489.14,-0.221,0.948,0.593,-6.04,-6.07,33.63,0,3
15489.156,-0.215,0.958,0.6,-4.39,-8.64,37.17,0,3
15489.156,-0.208,0.977,0.602,-4.55,-11.05,40.77,0,3
15489.171,-0.196,0.992,0.607,-6.65,-12.42,43.73,0,3
15489.171,-0.189,1.01,0.616,-10.28,-13.03,46.17,0,3
15489.187,-0.191,1.03,0.631,-14.34,-13.31,48.8,0,3
15489.203,-0.203,1.059,0.656,-18.43,-13.86,52.46,0,3
15489.218,-0.21,1.061,0.671,-21.15,-16.02,58.05,0,3
15489.218,-0.197,1.048,0.671,-22.52,-19.53,65.65,0,3
15489.234,-0.18,1.058,0.672,-23.93,-23.26,72.27,0,3
15489.234,-0.177,1.07,0.677,-26.03,-27.71,76.36,0,3
15489.25,-0.174,1.079,0.688,-29.11,-32.93,79.68,0,3
15489.265,-0.156,1.065,0.679,-35.25,-44.1,90.61,0,3
15489.281,-0.117,1.037,0.665,-38.67,-47.58,96.8,0,3
15489.296,-0.078,1.004,0.657,-41.63,-49.17,100.1,0,3
15489.296,-0.047,0.947,0.649,-42.88,-49.53,100.83,0,3
15489.312,-0.017,0.901,0.645,-42.79,-48.62,100.89,0,3
15489.312,0.002,0.86,0.636,-40.99,-47.3,99.83,0,3
15489.328,0.02,0.811,0.623,-37.9,-45.96,98.09,0,3
15489.343,0.038,0.775,0.618,-34.39,-44.62,96.01,0,3
15489.359,0.046,0.744,0.616,-30.46,-43.61,93.08,0,3
15489.359,0.063,0.723,0.615,-26.34,-43.52,90.18,0,3
15489.375,0.082,0.713,0.598,-21.82,-43.61,87.5,0,3
15489.375,0.094,0.701,0.582,-18.62,-43.49,84.54,0,3
15489.39,0.115,0.681,0.567,-17.09,-43.34,80.94,0,3
15489.406,0.13,0.67,0.552,-16.66,-42.54,77.58,0,3
15489.406,0.14,0.661,0.535,-17.18,-41.66,74.37,0,3
15489.421,0.151,0.643,0.519,-18.77,-40.62,71.75,0,3
15489.437,0.166,0.656,0.505,-24.87,-38.82,66.9,0,3
15489.453,0.172,0.645,0.5,-28.41,-38.48,65.13,0,3
15489.453,0.186,0.626,0.495,-31.53,-38.3,64.67,0,3
15489.468,0.208,0.602,0.484,-33.45,-38.58,64.12,0,3
15489.484,0.233,0.576,0.472,-33.94,-38.64,62.81,0,3
15489.5,0.259,0.556,0.464,-33.33,-37.6,60.0,0,3
15489.5,0.278,0.541,0.453,-32.32,-34.58,56.61,0,3
15489.515,0.294,0.515,0.442,-31.04,-30.46,53.65,0,3
15489.515,0.311,0.489,0.433,-29.54,-26.15,51.03,0,3
15489.531,0.323,0.481,0.428,-27.34,-22.0,47.12,0,3
15489.546,0.332,0.467,0.425,-24.6,-18.19,41.84,0,3
15489.546,0.337,0.458,0.423,-21.03,-14.62,35.92,0,3
15489.562,0.329,0.479,0.427,-16.91,-10.74,30.46,0,3
15489.562,0.324,0.517,0.434,-13.61,-6.65,26.15,0,3
15489.578,0.315,0.567,0.441,-12.79,-2.72,22.83,0,3
15489.593,0.306,0.628,0.445,-14.86,2.17,20.17,0,3
15489.593,0.298,0.69,0.453,-21.39,8.24,16.79,0,3
15489.609,0.295,0.701,0.463,-30.73,14.56,12.12,0,3
15489.625,0.293,0.689,0.478,-40.13,20.97,7.26,0,3
15489.625,0.279,0.671,0.505,-47.18,26.4,3.88,0,3
15489.64,0.274,0.618,0.531,-50.36,29.57,4.46,0,3
15489.656,0.273,0.551,0.555,-49.23,31.22,8.45,0,3
15489.656,0.28,0.505,0.587,-44.07,32.75,12.73,0,3
15489.671,0.293,0.477,0.61,-37.11,34.42,13.55,0,3
15489.687,0.304,0.473,0.621,-31.95,36.56,9.28,0,3
15489.687,0.294,0.507,0.639,-31.07,38.82,0.73,0,3
15489.703,0.292,0.5,0.636,-32.99,39.03,-9.8,0,3
15489.703,0.275,0.49,0.629,-39.43,39.46,-20.08,0,3
15489.718,0.25,0.515,0.641,-49.5,39.64,-28.53,0,3
15489.734,0.213,0.532,0.659,-59.69,38.39,-32.01,0,3
15489.734,0.187,0.532,0.678,-68.76,35.19,-28.32,0,3
15489.75,0.199,0.502,0.705,-74.53,30.4,-22.68,0,3
15489.765,0.211,0.484,0.737,-72.18,26.73,-20.91,0,3
15489.765,0.211,0.485,0.768,-61.59,24.96,-22.68,0,3
15489.781,0.225,0.453,0.78,-43.67,24.54,-24.23,0,3
15489.796,0.228,0.417,0.778,-21.36,25.94,-24.23,0,3
15489.796,0.235,0.412,0.771,2.75,28.9,-23.74,0,3
15489.812,0.245,0.403,0.742,26.12,31.83,-24.72,0,3
15489.812,0.247,0.409,0.7,44.59,34.3,-27.07,0,3
15489.828,0.226,0.459,0.653,55.3,37.63,-28.96,0,3
15489.843,0.178,0.576,0.616,53.16,42.63,-33.17,0,3
15489.843,0.128,0.704,0.607,37.42,48.49,-38.61,0,3
15489.859,0.061,0.795,0.627,11.26,53.01,-41.26,0,3
15489.875,0.015,0.828,0.663,-21.24,53.65,-40.65,0,3
15489.875,0.022,0.776,0.707,-50.63,51.27,-37.39,0,3
15489.89,0.039,0.709,0.745,-68.3,48.07,-33.91,0,3
15489.906,0.057,0.651,0.773,-72.39,44.04,-30.7,0,3
15489.906,0.061,0.622,0.787,-63.75,40.59,-26.95,0,3
15489.921,0.032,0.654,0.804,-47.0,40.5,-23.77,0,3
15489.937,0.008,0.664,0.823,-28.78,41.2,-19.93,0,3
15489.937,-0.009,0.652,0.826,-12.67,41.05,-13.7,0,3
15489.953,-0.024,0.661,0.807,0.55,40.93,-6.29,0,3
15489.953,-0.022,0.653,0.791,13.73,41.2,2.69,0,3
15489.968,-0.015,0.652,0.772,10.1,43.55,1.22,0,3
15489.984,-0.015,0.673,0.75,-1.22,46.02,-3.02,0,3
15489.984,-0.023,0.675,0.731,-17.49,48.95,-7.72,0,3
15490.0,-0.067,0.693,0.744,-34.0,50.78,-11.2,0,3
15490.015,-0.078,0.675,0.771,-46.72,50.75,-11.38,0,3
15490.015,-0.066,0.636,0.802,-52.13,48.22,-9.34,0,3
15490.031,-0.046,0.592,0.821,-49.07,43.98,-6.26,0,3
15490.046,-0.02,0.547,0.823,-38.39,39.89,-2.69,0,3
15490.046,-0.005,0.518,0.812,-23.32,37.72,0.03,0,3
15490.062,-0.01,0.53,0.798,-7.97,37.32,1.01,0,3
15490.062,-0.021,0.557,0.768,3.11,38.3,0.24,0,3
15490.078,-0.05,0.574,0.729,5.86,41.2,-1.53,0,3
15490.093,-0.076,0.6,0.72,-1.59,45.75,-3.66,0,3
15490.093,-0.099,0.632,0.736,-16.66,50.08,-5.77,0,3
15490.109,-0.115,0.623,0.761,-35.77,51.42,-8.3,0,3
15490.125,-0.125,0.587,0.789,-54.35,49.84,-11.11,0,3
15490.125,-0.135,0.559,0.827,-66.81,46.33,-13.0,0,3
15490.14,-0.146,0.54,0.866,-71.66,41.32,-13.67,0,3
15490.156,-0.159,0.516,0.894,-70.16,35.49,-12.54,0,3
15490.156,-0.165,0.493,0.918,-63.66,29.3,-9.86,0,3
15490.171,-0.17,0.477,0.933,-54.14,23.5,-6.59,0,3
15490.187,-0.166,0.448,0.941,-42.27,17.67,-3.39,0,3
15490.187,-0.15,0.43,0.942,-29.63,12.18,-0.61,0,3
15490.203,-0.141,0.427,0.929,-17.0,8.03,1.83,0,3
15490.203,-0.141,0.419,0.913,-6.2,5.4,3.85,0,3
15490.218,-0.132,0.412,0.898,1.22,3.78,4.88,0,3
15490.234,-0.128,0.422,0.885,4.85,2.99,4.09,0,3
15490.234,-0.127,0.444,0.875,4.64,2.47,2.14,0,3
15490.25,-0.121,0.455,0.87,0.76,1.4,0.15,0,3
15490.265,-0.121,0.461,0.873,-4.49,-0.12,-1.37,0,3
15490.265,-0.123,0.463,0.875,-9.28,-2.01,-2.17,0,3
15490.281,-0.113,0.461,0.88,-13.03,-4.76,-2.62,0,3
15490.296,-0.115,0.467,0.886,-14.68,-6.74,-3.88,0,3
15490.296,-0.143,0.457,0.895,-15.41,-8.12,-3.88,0,3
15490.312,-0.152,0.47,0.906,-16.27,-9.77,-3.33,0,3
15490.328,-0.16,0.486,0.913,-15.96,-11.23,-3.6,0,3
15490.328,-0.179,0.497,0.92,-16.27,-12.42,-3.94,0,3
15490.343,-0.173,0.498,0.93,-17.09,-14.5,-3.72,0,3
15490.343,-0.172,0.482,0.929,-16.14,-17.03,-2.53,0,3
15490.359,-0.174,0.481,0.924,-14.07,-19.1,-1.5,0,3
15490.375,-0.165,0.484,0.918,-12.09,-21.18,-1.53,0,3
15490.375,-0.161,0.476,0.906,-9.89,-23.04,-1.37,0,3
15490.39,-0.158,0.475,0.893,-7.75,-24.84,-0.34,0,3
15490.406,-0.141,0.461,0.877,-5.46,-26.76,1.22,0,3
15490.406,-0.136,0.439,0.857,-2.32,-28.17,2.99,0,3
15490.421,-0.136,0.436,0.838,0.37,-28.38,3.48,0,3
15490.421,-0.108,0.415,0.828,1.62,-27.71,2.69,0,3
15490.437,-0.097,0.391,0.825,1.4,-25.39,0.58,0,3
15490.453,-0.099,0.4,0.832,-1.1,-22.06,-3.69,0,3
15490.453,-0.087,0.401,0.841,-6.74,-19.78,-8.18,0,3
15490.468,-0.085,0.39,0.852,-14.1,-19.14,-12.05,0,3
15490.484,-0.091,0.377,0.86,-21.52,-20.11,-15.78,0,3
15490.484,-0.083,0.362,0.873,-28.99,-22.58,-20.05,0,3
15490.5,-0.064,0.342,0.886,-35.52,-26.37,-24.54,0,3
15490.515,-0.039,0.323,0.889,-39.74,-29.97,-28.23,0,3
15490.515,0.005,0.311,0.886,-41.02,-31.25,-31.25,0,3
15490.531,0.036,0.309,0.892,-39.58,-29.97,-34.55,0,3
15490.546,0.049,0.303,0.895,-35.89,-27.95,-37.26,0,3
15490.546,0.052,0.31,0.899,-31.37,-26.34,-38.85,0,3
15490.562,0.052,0.318,0.904,-26.73,-24.9,-39.25,0,3
15490.578,0.046,0.328,0.911,-23.19,-24.35,-39.4,0,3
15490.578,0.046,0.349,0.912,-21.36,-24.32,-39.95,0,3
15490.593,0.046,0.364,0.915,-21.85,-23.74,-40.44,0,3
15490.593,0.051,0.358,0.923,-23.38,-22.89,-40.71,0,3
15490.609,0.058,0.347,0.932,-23.71,-21.94,-40.86,0,3
15490.625,0.069,0.356,0.94,-23.35,-20.81,-41.14,0,3
15490.625,0.081,0.354,0.944,-21.88,-19.96,-41.38,0,3
15490.64,0.085,0.353,0.937,-18.86,-19.07,-40.99,0,3
15490.656,0.085,0.366,0.93,-14.71,-17.79,-40.01,0,3
15490.656,0.083,0.381,0.93,-10.1,-15.81,-38.48,0,3
15490.671,0.068,0.402,0.929,-5.49,-12.97,-35.86,0,3
15490.687,0.063,0.412,0.933,-1.71,-10.41,-31.65,0,3
15490.687,0.067,0.407,0.943,2.2,-9.0,-26.49,0,3
15490.703,0.07,0.407,0.95,6.74,-8.64,-21.55,0,3
15490.703,0.081,0.41,0.946,10.8,-8.64,-17.58,0,3
15490.718,0.084,0.407,0.93,14.19,-8.27,-14.77,0,3
15490.734,0.079,0.411,0.913,15.9,-6.84,-12.45,0,3
15490.734,0.08,0.418,0.899,14.71,-4.52,-11.14,0,3
15490.75,0.078,0.417,0.888,11.47,-1.74,-10.19,0,3
15490.765,0.073,0.414,0.884,7.45,1.16,-9.06,0,3
15490.765,0.062,0.419,0.894,3.69,4.15,-7.84,0,3
15490.796,0.028,0.448,0.94,1.95,6.93,-1.31,0,3
15490.796,0.031,0.439,0.953,4.49,6.84,2.78,0,3
15490.812,0.027,0.445,0.963,6.84,6.26,5.22,0,3
15490.812,0.028,0.444,0.964,8.15,5.01,5.95,0,3
15490.828,0.021,0.442,0.959,7.97,3.39,5.22,0,3
15490.843,0.013,0.445,0.953,5.58,1.43,4.43,0,3
15490.843,0.003,0.443,0.944,1.62,0.24,4.49,0,3
15490.859,-0.001,0.43,0.938,-3.51,0.0,4.79,0,3
15490.875,-0.006,0.42,0.941,-8.18,0.15,4.55,0,3
15490.875,-0.012,0.412,0.942,-10.44,0.64,4.24,0,3
15490.89,-0.007,0.397,0.946,-10.32,0.79,4.79,0,3
15490.906,0.001,0.378,0.942,-7.45,0.18,6.1,0,3
15490.906,0.011,0.363,0.939,-2.84,-0.95,7.45,0,3
15490.921,0.015,0.363,0.944,-0.58,-3.17,7.87,0,3
15490.937,0.021,0.36,0.92,1.59,-5.68,7.63,0,3
15490.937,0.026,0.36,0.913,1.89,-9.19,6.62,0,3
15490.953,0.03,0.364,0.905,-0.18,-10.96,5.43,0,3
15490.953,0.03,0.366,0.894,-2.17,-12.39,4.24,0,3
15490.968,0.033,0.364,0.884,-4.15,-13.43,3.17,0,3
15490.984,0.045,0.356,0.873,-4.27,-13.28,2.35,0,3
15490.984,0.058,0.336,0.857,-1.04,-11.05,1.4,0,3
15491.0,0.069,0.333,0.813,4.64,-5.83,0.06,0,3
15491.015,0.07,0.312,0.757,13.82,5.28,-1.4,0,3
15491.015,-0.006,0.345,0.83,14.98,17.55,-3.14,0,3
15491.031,-0.01,0.504,0.938,-4.88,17.24,-1.95,0,3
15491.046,-0.011,0.343,0.967,-12.05,17.64,-1.34,0,3
15491.046,-0.148,0.476,1.112,-28.87,11.26,-5.04,0,3
15491.062,-0.023,0.49,1.163,-43.86,-1.77,-2.72,0,3
15491.062,-0.052,0.332,1.123,-35.71,-6.07,-3.48,0,3
15491.078,-0.029,0.322,1.076,-22.55,-6.04,-2.35,0,3
15491.093,0.007,0.341,1.033,-3.11,-0.4,1.16,0,3
15491.093,-0.01,0.336,0.989,15.35,7.2,3.78,0,3
15491.109,-0.006,0.358,0.959,26.15,12.18,5.98,0,3
15491.125,0.006,0.385,0.93,29.73,13.98,6.65,0,3
15491.14,0.005,0.381,0.905,26.15,12.57,5.55,0,3
15491.14,0.01,0.388,0.901,15.87,8.18,4.12,0,3
15491.156,-0.011,0.424,0.924,3.57,1.56,3.14,0,3
15491.156,0.05,0.442,0.932,-6.93,-8.06,4.33,0,3
15491.171,0.031,0.37,0.848,5.98,-8.3,11.35,0,3
15491.187,-0.001,0.441,0.854,14.4,-6.41,14.86,0,3
15491.187,0.06,0.442,0.88,11.84,-7.63,15.14,0,3
15491.203,0.027,0.41,0.871,9.77,-8.58,14.83,0,3
15491.203,0.023,0.407,0.855,8.7,-8.42,15.9,0,3
15491.218,0.034,0.414,0.853,5.37,-7.02,16.79,0,3
15491.234,0.038,0.402,0.869,-1.22,-6.1,15.53,0,3
15491.234,0.036,0.387,0.885,-6.81,-5.74,13.55,0,3
15491.25,0.034,0.387,0.89,-9.46,-4.39,11.87,0,3
15491.265,0.034,0.385,0.895,-9.98,-2.32,11.17,0,3
15491.265,0.031,0.375,0.909,-8.61,0.12,11.23,0,3
15491.281,0.027,0.36,0.919,-5.37,2.59,12.15,0,3
15491.296,0.024,0.356,0.925,-0.49,4.64,13.06,0,3
15491.312,0.014,0.344,0.925,10.59,7.11,15.32,0,3
15491.312,0.018,0.349,0.913,13.73,7.39,15.84,0,3
15491.328,0.022,0.347,0.9,14.13,6.68,14.89,0,3
15491.343,0.022,0.341,0.893,11.9,5.71,13.79,0,3
15491.343,0.025,0.335,0.888,8.0,5.01,12.73,0,3
15491.359,0.033,0.323,0.89,4.18,4.94,11.69,0,3
15491.375,0.037,0.305,0.895,1.8,5.34,10.8,0,3
15491.375,0.043,0.293,0.896,0.76,6.5,9.31,0,3
15491.39,0.048,0.288,0.897,1.25,7.84,6.99,0,3
15491.406,0.047,0.289,0.896,2.87,9.37,4.91,0,3
15491.406,0.043,0.299,0.891,4.27,11.23,3.45,0,3
15491.421,0.033,0.313,0.889,5.52,13.55,2.44,0,3
15491.421,0.014,0.335,0.892,6.81,16.91,2.01,0,3
15491.437,0.002,0.353,0.893,6.99,20.97,1.68,0,3
15491.453,-0.014,0.363,0.898,4.67,24.29,1.34,0,3
15491.453,-0.02,0.366,0.907,1.07,25.61,0.4,0,3
15491.484,-0.039,0.369,0.923,-5.01,23.53,-2.75,0,3
15491.5,-0.044,0.371,0.929,-6.53,21.36,-4.03,0,3
15491.5,-0.051,0.378,0.937,-6.53,19.07,-5.01,0,3
15491.515,-0.058,0.38,0.946,-4.61,16.6,-6.04,0,3
15491.515,-0.063,0.382,0.948,-1.53,14.04,-6.44,0,3
15491.531,-0.065,0.388,0.941,1.71,11.51,-6.13,0,3
15491.546,-0.068,0.402,0.935,4.61,9.16,-4.85,0,3
15491.546,-0.067,0.417,0.922,6.2,7.11,-3.14,0,3
15491.562,-0.059,0.417,0.904,5.89,5.49,-1.86,0,3
15491.578,-0.063,0.416,0.893,5.13,5.34,-1.5,0,3
15491.578,-0.069,0.432,0.889,4.43,6.2,-1.56,0,3
15491.593,-0.065,0.44,0.887,2.29,6.29,-2.04,0,3
15491.593,-0.061,0.432,0.887,-0.82,5.46,-2.87,0,3
15491.609,-0.064,0.434,0.883,-3.45,4.73,-3.27,0,3
15491.625,-0.065,0.439,0.886,-5.52,4.43,-3.2,0,3
15491.625,-0.065,0.441,0.892,-6.62,4.67,-2.72,0,3
15491.656,-0.065,0.432,0.902,-3.75,6.13,0.7,0,3
15491.656,-0.058,0.43,0.901,-1.28,6.59,3.14,0,3
15491.671,-0.051,0.425,0.898,0.76,6.65,5.13,0,3
15491.687,-0.052,0.426,0.899,2.11,7.32,6.38,0,3
15491.687,-0.049,0.432,0.897,1.4,8.36,7.02,0,3
15491.703,-0.05,0.434,0.897,-0.46,9.09,7.72,0,3
15491.703,-0.053,0.44,0.898,-2.35,9.77,8.7,0,3
15491.718,-0.049,0.44,0.901,-4.12,10.38,9.52,0,3
15491.734,-0.048,0.434,0.91,-5.58,10.1,9.49,0,3
15491.734,-0.048,0.432,0.918,-6.5,9.06,9.83,0,3
15491.75,-0.046,0.413,0.914,-6.99,7.87,10.71,0,3
15491.765,-0.042,0.401,0.906,-6.07,7.14,12.48,0,3
15491.781,-0.031,0.395,0.897,-3.33,7.2,14.07,0,3
15491.781,-0.035,0.39,0.898,0.58,7.45,14.74,0,3
15491.796,-0.041,0.392,0.898,5.16,5.62,14.89,0,3
15491.796,-0.043,0.395,0.896,7.66,1.31,14.74,0,3
15491.812,-0.043,0.387,0.888,6.96,-4.09,13.89,0,3
15491.812,-0.04,0.376,0.866,2.29,-9.77,12.6,0,3
15491.828,-0.029,0.339,0.823,-4.58,-12.91,11.23,0,3
15491.843,-0.008,0.308,0.778,-11.72,-10.86,9.77,0,3
15491.843,0.002,0.285,0.745,-15.32,-3.27,8.51,0,3
15491.859,-0.019,0.267,0.714,-15.75,9.13,6.16,0,3
15491.875,-0.045,0.292,0.702,-16.36,25.45,2.44,0,3
15491.875,-0.067,0.283,0.695,-16.14,44.04,-0.76,0,3
15491.89,-0.125,0.264,0.719,-16.08,63.3,-4.79,0,3
15491.906,-0.303,0.361,0.923,-16.66,78.16,-6.5,0,3
15491.906,-0.465,0.401,1.447,-10.8,71.08,0.21,0,3
15491.921,-0.543,0.383,1.596,-1.34,29.85,10.5,0,3
15491.921,-0.354,0.322,1.35,-23.59,-30.06,7.08,0,3
15491.937,-0.306,0.259,1.113,-18.83,-14.13,2.44,0,3
15491.953,-0.262,0.212,1.076,-2.23,8.03,0.76,0,3
15491.953,-0.297,0.259,1.155,14.71,20.14,0.95,0,3
15491.968,-0.245,0.243,1.238,32.04,19.32,5.43,0,3
15491.984,-0.265,0.239,1.106,41.23,5.74,-0.52,0,3
15491.984,-0.332,0.354,1.135,44.92,-7.9,-3.45,0,3
15492.0,-0.258,0.337,1.106,46.51,-28.84,-0.49,0,3
15492.015,-0.215,0.363,1.031,34.12,-51.91,-2.38,0,3
15492.015,-0.179,0.342,0.959,17.46,-69.92,-7.6,0,3
15492.031,-0.153,0.297,0.895,7.35,-80.32,-13.46,0,3
15492.046,-0.105,0.288,0.832,3.85,-84.44,-19.41,0,3
15492.046,-0.058,0.313,0.781,3.11,-83.04,-23.65,0,3
15492.062,-0.015,0.344,0.741,5.22,-78.37,-24.93,0,3
15492.062,0.032,0.371,0.699,9.77,-72.05,-24.14,0,3
15492.078,0.067,0.412,0.644,14.04,-64.12,-22.64,0,3
15492.093,0.093,0.447,0.611,15.47,-55.09,-20.94,0,3
15492.093,0.119,0.477,0.589,13.79,-45.69,-20.05,0,3
15492.109,0.151,0.507,0.577,8.21,-36.29,-20.29,0,3
15492.125,0.171,0.512,0.568,-0.21,-27.25,-20.87,0,3
15492.125,0.183,0.51,0.57,-10.99,-18.46,-21.94,0,3
15492.14,0.198,0.503,0.582,-22.28,-10.1,-24.6,0,3
15492.156,0.211,0.482,0.603,-33.33,-2.08,-28.08,0,3
15492.156,0.213,0.453,0.619,-41.26,4.94,-30.95,0,3
15492.171,0.206,0.417,0.628,-45.08,11.93,-33.36,0,3
15492.187,0.198,0.391,0.641,-46.02,21.21,-33.23,0,3
15492.187,0.175,0.366,0.66,-43.0,32.93,-29.57,0,3
15492.203,0.152,0.334,0.698,-33.88,46.91,-24.17,0,3
15492.203,0.094,0.311,0.769,-20.17,61.25,-18.04,0,3
15492.218,-0.073,0.354,0.975,-9.64,69.49,-13.58,0,3
15492.234,-0.273,0.601,1.353,-28.32,51.09,-7.75,0,3
15492.25,-0.248,0.658,1.513,-57.8,9.58,-0.37,0,3
15492.25,-0.219,0.368,1.458,-63.08,-21.67,0.12,0,3
15492.265,-0.182,0.315,1.4,-53.5,-36.5,-1.5,0,3
15492.265,-0.062,0.297,1.286,-28.69,-36.23,0.15,0,3
15492.281,-0.057,0.259,1.191,0.34,-24.05,-0.24,0,3
15492.296,-0.066,0.292,1.154,28.87,-9.77,1.83,0,3
15492.296,-0.052,0.352,1.112,52.34,-1.4,5.86,0,3
15492.312,-0.052,0.396,1.062,61.95,-1.98,8.36,0,3
15492.328,-0.038,0.421,0.98,46.85,-19.53,9.8,0,3
15492.343,0.001,0.474,0.949,27.01,-33.63,9.28,0,3
15492.343,0.045,0.356,0.849,17.88,-40.35,8.24,0,3
15492.359,-0.016,0.389,0.844,10.13,-40.38,5.89,0,3
15492.375,0.029,0.462,0.872,-2.53,-41.99,8.48,0,3
15492.375,0.061,0.371,0.858,-8.33,-41.05,8.85,0,3
15492.39,0.058,0.323,0.842,-9.74,-36.65,6.78,0,3
15492.406,0.064,0.343,0.841,-6.71,-30.3,5.13,0,3
15492.406,0.059,0.348,0.834,-1.34,-23.77,5.04,0,3
15492.421,0.059,0.34,0.823,2.32,-18.19,5.22,0,3
15492.437,0.067,0.342,0.817,4.33,-13.37,4.64,0,3
15492.437,0.064,0.352,0.808,5.1,-8.79,3.3,0,3
15492.453,0.059,0.342,0.797,4.33,-4.39,1.8,0,3
15492.468,0.056,0.337,0.788,2.41,-0.58,0.24,0,3
15492.468,0.056,0.337,0.778,0.34,3.05,-1.34,0,3
15492.484,0.054,0.332,0.768,-2.29,6.2,-3.11,0,3
15492.484,0.051,0.327,0.768,-5.34,8.97,-4.24,0,3
15492.5,0.052,0.319,0.768,-7.14,11.84,-4.36,0,3
15492.515,0.071,0.3,0.748,-6.53,16.94,-3.97,0,3
15492.515,0.085,0.262,0.717,-3.48,26.06,-5.22,0,3
15492.531,0.079,0.255,0.715,-0.89,38.91,-8.3,0,3
15492.546,0.069,0.28,0.72,1.92,53.32,-11.75,0,3
15492.546,0.036,0.28,0.758,5.65,68.18,-14.92,0,3
15492.562,-0.11,0.319,0.904,4.09,76.36,-17.0,0,3
15492.562,-0.308,0.513,1.246,-23.01,59.45,-15.32,0,3
15492.578,-0.3,0.666,1.467,-62.5,15.78,-7.11,0,3
15492.593,-0.211,0.393,1.42,-68.18,-21.45,-1.07,0,3
15492.609,-0.195,0.251,1.322,-47.06,-38.12,-0.24,0,3
15492.609,-0.068,0.265,1.2,-14.25,-38.58,2.17,0,3
15492.625,-0.045,0.256,1.075,22.52,-25.03,3.57,0,3
15492.625,-0.052,0.282,1.009,50.69,-7.26,5.34,0,3
15492.64,-0.044,0.362,0.967,66.26,6.44,7.11,0,3
15492.656,-0.049,0.414,0.927,66.96,13.28,7.72,0,3
15492.671,-0.047,0.426,0.901,53.59,13.09,7.48,0,3
15492.671,-0.046,0.432,0.903,32.53,6.9,6.1,0,3
15492.671,-0.058,0.438,0.923,11.81,-2.66,4.85,0,3
15492.687,0.0,0.445,0.907,-6.71,-14.07,4.91,0,3
15492.703,0.014,0.307,0.845,-5.58,-15.69,4.0,0,3
15492.703,-0.022,0.372,0.878,-5.52,-14.47,2.11,0,3
15492.718,0.029,0.404,0.889,-5.13,-14.65,2.93,0,3
15492.734,0.007,0.351,0.885,-0.7,-13.06,4.21,0,3
15492.734,0.012,0.362,0.883,1.92,-11.66,6.74,0,3
15492.75,0.027,0.362,0.883,4.36,-9.77,7.87,0,3
15492.765,0.02,0.358,0.892,4.67,-7.84,7.14,0,3
15492.765,0.011,0.37,0.898,3.2,-6.13,5.13,0,3
15492.781,0.006,0.382,0.903,0.15,-5.46,2.17,0,3
15492.796,-0.001,0.39,0.906,-3.45,-5.19,-0.46,0,3
15492.796,-0.005,0.397,0.912,-6.59,-5.31,-2.17,0,3
15492.812,-0.009,0.395,0.914,-8.06,-6.32,-2.62,0,3
15492.812,-0.009,0.389,0.917,-7.42,-7.23,-1.89,0,3
15492.828,-0.011,0.384,0.914,-4.97,-7.51,-0.58,0,3
15492.843,-0.008,0.377,0.905,-1.13,-6.99,0.64,0,3
15492.843,-0.011,0.375,0.897,2.75,-5.34,1.34,0,3
15492.859,-0.013,0.377,0.893,5.31,-2.99,1.68,0,3
15492.875,-0.009,0.379,0.889,6.29,-1.04,1.74,0,3
15492.875,0.003,0.382,0.885,5.46,-0.24,1.25,0,3
15492.89,0.011,0.386,0.882,3.42,-0.12,0.21,0,3
15492.906,0.006,0.388,0.885,0.89,0.12,-0.61,0,3
15492.906,-0.002,0.389,0.894,-2.01,0.0,-0.03,0,3
15492.921,-0.004,0.381,0.902,-1.46,-0.09,0.43,0,3
15492.937,0.001,0.374,0.909,-0.15,0.31,0.55,0,3
15492.937,0.007,0.369,0.914,1.8,0.95,0.7,0,3
15492.953,0.01,0.369,0.914,3.63,1.77,0.89,0,3
15492.953,0.01,0.374,0.914,4.82,2.41,0.95,0,3
15492.968,0.002,0.376,0.914,5.28,2.9,1.01,0,3
15492.984,-0.003,0.371,0.914,5.25,2.66,1.46,0,3
15492.984,-0.005,0.363,0.912,4.97,1.83,1.59,0,3
15493.0,-0.007,0.355,0.913,4.64,0.61,1.37,0,3
15493.015,-0.008,0.336,0.919,6.5,-0.61,0.89,0,3
15493.031,-0.031,0.36,0.928,7.69,0.34,0.12,0,3
15493.046,-0.052,0.389,0.94,7.05,1.65,-1.22,0,3
15493.046,-0.083,0.409,0.956,4.88,2.08,-2.04,0,3
15493.062,-0.111,0.423,0.973,2.2,1.22,-1.5,0,3
15493.062,-0.151,0.44,0.995,0.21,-0.06,-0.4,0,3
15493.078,-0.228,0.47,1.026,0.09,-0.55,0.82,0,3
15493.093,-0.292,0.496,1.057,1.95,-0.21,2.69,0,3
15493.093,-0.342,0.522,1.097,6.93,1.43,5.98,0,3
15493.109,-0.404,0.56,1.137,16.14,4.3,11.2,0,3
15493.125,-0.458,0.592,1.166,28.96,7.17,18.22,0,3
15493.14,-0.494,0.615,1.185,45.35,10.53,26.22,0,3
15493.14,-0.528,0.62,1.182,65.55,14.07,34.42,0,3
15493.156,-0.557,0.619,1.144,88.2,15.9,43.21,0,3
15493.156,-0.566,0.617,1.071,110.84,14.5,52.71,0,3
15493.171,-0.555,0.615,0.979,132.36,11.69,61.56,0,3
15493.187,-0.457,0.561,0.722,165.11,8.12,76.88,0,3
15493.203,-0.409,0.544,0.579,176.03,10.74,83.59,0,3
15493.203,-0.349,0.528,0.468,182.41,17.67,88.47,0,3
15493.218,-0.277,0.483,0.373,184.67,26.58,92.68,0,3
15493.234,-0.2,0.421,0.285,183.48,37.72,96.41,0,3
15493.234,-0.142,0.395,0.211,178.32,53.29,97.17,0,3
15493.25,-0.094,0.371,0.163,169.47,73.79,93.72,0,3
15493.265,-0.05,0.336,0.16,156.16,97.29,87.19,0,3
15493.265,-0.034,0.291,0.171,141.88,119.3,78.65,0,3
15493.281,-0.011,0.25,0.183,130.25,139.74,66.26,0,3
15493.296,0.04,0.191,0.188,123.97,159.28,53.65,0,3
15493.296,0.064,0.154,0.186,123.51,178.53,40.44,0,3
15493.312,0.094,0.12,0.178,130.47,197.15,25.12,0,3
15493.328,0.12,0.086,0.166,143.77,215.98,9.46,0,3
15493.328,0.117,0.073,0.157,159.67,233.8,-5.52,0,3
15493.343,0.078,0.065,0.159,174.57,248.79,-20.17,0,3
15493.359,-0.014,0.088,0.237,189.0,280.37,-53.8,0,3
15493.375,-0.082,0.116,0.295,188.67,289.28,-73.79,0,3
15493.375,-0.15,0.137,0.361,182.74,287.76,-89.69,0,3
15493.39,-0.192,0.122,0.446,174.17,274.61,-99.73,0,3
15493.406,-0.23,0.097,0.503,169.29,251.44,-107.7,0,3
15493.406,-0.268,0.097,0.529,169.84,220.25,-116.28,0,3
15493.421,-0.363,0.141,0.55,174.08,184.7,-127.48,0,3
15493.437,-0.478,0.249,0.572,176.95,147.19,-141.12,0,3
15493.437,-0.537,0.344,0.566,173.07,103.98,-155.77,0,3
15493.453,-0.586,0.4,0.549,163.34,57.62,-168.83,0,3
15493.468,-0.611,0.419,0.514,153.87,12.6,-177.04,0,3
15493.468,-0.612,0.4,0.463,149.66,-27.71,-179.75,0,3
15493.484,-0.617,0.358,0.397,151.55,-62.14,-178.14,0,3
15493.484,-0.644,0.34,0.325,158.79,-91.74,-174.84,0,3
15493.5,-0.684,0.369,0.252,165.99,-120.3,-172.77,0,3
15493.515,-0.733,0.43,0.173,166.3,-151.62,-174.69,0,3
15493.515,-0.818,0.508,0.072,161.17,-184.24,-182.93,0,3
15493.531,-0.893,0.587,-0.04,153.11,-214.27,-197.06,0,3
15493.546,-0.939,0.662,-0.135,144.02,-235.6,-212.65,0,3
15493.546,-0.982,0.673,-0.213,140.9,-244.67,-223.98,0,3
15493.562,-0.996,0.663,-0.291,144.87,-237.04,-225.44,0,3
15493.562,-0.937,0.674,-0.309,148.96,-208.56,-215.43,0,3
15493.578,-0.91,0.659,-0.3,152.41,-168.0,-205.82,0,3
15493.593,-0.912,0.611,-0.308,154.39,-124.06,-205.18,0,3
15493.593,-0.951,0.589,-0.316,150.3,-80.32,-212.96,0,3
15493.609,-1.038,0.622,-0.315,143.22,-41.9,-229.59,0,3
15493.625,-1.112,0.637,-0.304,141.09,-12.63,-247.84,0,3
15493.625,-1.235,0.673,-0.294,146.43,8.67,-261.7,0,3
15493.64,-1.353,0.746,-0.304,155.64,19.84,-268.5,0,3
15493.656,-1.38,0.789,-0.326,163.12,20.63,-265.36,0,3
15493.656,-1.376,0.795,-0.33,163.49,16.91,-252.72,0,3
15493.671,-1.372,0.765,-0.318,156.25,10.44,-232.76,0,3
15493.687,-1.388,0.716,-0.311,144.63,2.04,-209.78,0,3
15493.687,-1.416,0.678,-0.314,130.41,-6.62,-186.96,0,3
15493.703,-1.406,0.632,-0.319,113.32,-15.75,-165.81,0,3
15493.718,-1.375,0.555,-0.295,96.8,-21.76,-148.05,0,3
15493.718,-1.363,0.461,-0.261,83.68,-24.99,-135.14,0,3
15493.734,-1.363,0.366,-0.235,74.83,-26.64,-127.69,0,3
15493.734,-1.365,0.288,-0.219,70.89,-25.36,-124.36,0,3
15493.75,-1.382,0.248,-0.207,70.8,-21.27,-124.67,0,3
15493.765,-1.407,0.234,-0.197,72.73,-16.14,-127.29,0,3
15493.781,-1.443,0.247,-0.189,73.76,-11.87,-131.32,0,3
15493.781,-1.452,0.26,-0.185,72.88,-7.81,-135.01,0,3
15493.781,-1.472,0.316,-0.189,66.38,-5.4,-138.8,0,3
15493.796,-1.482,0.369,-0.182,53.9,-2.11,-139.44,0,3
15493.812,-1.477,0.408,-0.159,37.17,0.58,-137.27,0,3
15493.828,-1.458,0.433,-0.136,19.38,1.89,-131.38,0,3
15493.828,-1.433,0.46,-0.112,5.1,2.14,-124.79,0,3
15493.843,-1.403,0.456,-0.095,-3.51,0.03,-117.13,0,3
15493.843,-1.373,0.456,-0.091,-7.14,-1.34,-107.12,0,3
15493.859,-1.342,0.474,-0.076,-7.97,-1.13,-94.91,0,3
15493.875,-1.312,0.475,-0.063,-6.9,0.43,-80.63,0,3
15493.89,-1.291,0.463,-0.062,-5.34,3.3,-64.3,0,3
15493.89,-1.27,0.453,-0.059,-4.0,12.48,-28.66,0,3
15493.906,-1.233,0.417,-0.047,-3.08,17.61,-10.93,0,3
15493.906,-1.197,0.355,-0.033,-0.79,22.49,5.37,0,3
15493.921,-1.17,0.294,-0.02,2.69,27.13,19.44,0,3
15493.937,-1.105,0.155,0.018,7.2,31.62,30.7,0,3
15493.937,-1.088,0.096,0.03,11.9,35.95,39.0,0,3
15493.953,-1.07,0.057,0.045,15.99,39.43,44.07,0,3
15493.953,-1.053,0.023,0.052,19.1,41.9,46.02,0,3
15493.968,-1.043,-0.01,0.055,21.09,43.43,45.78,0,3
15493.984,-1.036,-0.028,0.057,21.24,43.24,43.61,0,3
15494.0,-1.025,-0.035,0.056,20.08,40.68,39.61,0,3
15494.0,-1.021,-0.042,0.045,18.65,36.71,34.85,0,3
15494.015,-1.017,-0.043,0.034,16.42,31.77,30.37,0,3
15494.015,-1.013,-0.029,0.026,13.21,26.22,26.09,0,3
15494.031,-1.011,-0.039,0.017,9.64,20.48,22.64,0,3
15494.046,-1.015,-0.051,0.008,5.68,15.5,20.97,0,3
15494.046,-1.012,-0.051,-0.001,2.2,10.74,19.71,0,3
15494.062,-1.007,-0.054,-0.013,-0.76,6.44,18.01,0,3
15494.062,-1.004,-0.058,-0.019,-3.69,2.44,16.17,0,3
15494.078,-1.003,-0.069,-0.02,-5.77,-0.89,15.23,0,3
15494.093,-0.998,-0.096,-0.021,-6.23,-3.11,15.29,0,3
15494.093,-0.997,-0.117,-0.028,-5.46,-4.58,16.02,0,3
15494.109,-0.998,-0.127,-0.036,-3.36,-5.43,15.99,0,3
15494.125,-0.997,-0.129,-0.042,-0.82,-6.01,14.89,0,3
15494.125,-0.988,-0.121,-0.049,0.79,-6.44,13.12,0,3
15494.14,-0.994,-0.114,-0.059,1.4,-6.71,10.44,0,3
15494.156,-0.984,-0.132,-0.059,0.82,-6.56,9.98,0,3
15494.156,-0.979,-0.122,-0.055,1.22,-6.9,9.49,0,3
15494.171,-0.978,-0.126,-0.068,3.54,-7.97,7.69,0,3
15494.187,-0.974,-0.127,-0.074,4.85,-7.87,7.54,0,3
15494.187,-0.973,-0.107,-0.079,5.77,-7.32,7.05,0,3
15494.203,-0.97,-0.115,-0.088,6.99,-6.23,6.74,0,3
15494.218,-0.979,-0.116,-0.09,7.17,-4.49,6.74,0,3
15494.218,-0.975,-0.106,-0.089,7.17,-3.36,5.65,0,3
15494.234,-0.983,-0.109,-0.09,7.32,-2.26,3.63,0,3
15494.234,-0.987,-0.104,-0.089,7.17,-1.53,2.01,0,3
15494.25,-0.98,-0.083,-0.089,7.29,-1.74,0.49,0,3
15494.265,-0.982,-0.079,-0.093,7.63,-2.38,-1.01,0,3
15494.265,-0.981,-0.078,-0.095,7.2,-2.96,-1.04,0,3
15494.281,-0.977,-0.06,-0.095,6.81,-3.69,-0.92,0,3
15494.296,-0.976,-0.059,-0.098,6.81,-4.3,-1.34,0,3
15494.296,-0.977,-0.067,-0.098,6.5,-4.15,-0.98,0,3
15494.312,-0.979,-0.068,-0.096,6.81,-3.45,-0.64,0,3
15494.328,-0.976,-0.075,-0.094,7.69,-2.62,-0.52,0,3
15494.328,-0.974,-0.069,-0.095,8.7,-1.71,-0.7,0,3
15494.343,-0.969,-0.059,-0.099,9.7,-1.37,-2.32,0,3
15494.343,-0.967,-0.06,-0.099,9.74,-0.92,-3.48,0,3
15494.359,-0.968,-0.046,-0.1,9.58,-1.28,-4.64,0,3
15494.375,-0.966,-0.046,-0.104,9.55,-1.92,-5.8,0,3
15494.375,-0.969,-0.032,-0.107,8.67,-2.04,-6.32,0,3
15494.39,-0.972,-0.018,-0.109,6.74,-2.2,-6.68,0,3
15494.406,-0.982,-0.017,-0.108,4.43,-2.38,-6.44,0,3
15494.406,-0.989,-0.015,-0.108,2.9,-2.5,-5.37,0,3
15494.421,-0.986,-0.018,-0.106,2.17,-2.32,-4.03,0,3
15494.437,-0.986,-0.029,-0.104,2.56,-1.98,-2.62,0,3
15494.437,-0.983,-0.036,-0.106,4.39,-1.46,-1.68,0,3
15494.453,-0.977,-0.038,-0.107,6.65,-0.92,-1.4,0,3
15494.453,-0.977,-0.036,-0.109,8.7,-0.46,-1.77,0,3
15494.468,-0.979,-0.033,-0.11,9.89,-0.12,-2.01,0,3
15494.484,-0.978,-0.031,-0.11,10.04,0.03,-1.71,0,3
15494.484,-0.98,-0.03,-0.114,9.37,-0.09,-1.13,0,3
15494.5,-0.981,-0.027,-0.118,8.0,0.21,-0.79,0,3
15494.515,-0.98,-0.026,-0.116,6.32,0.82,-0.58,0,3
15494.515,-0.979,-0.022,-0.116,5.07,1.31,-0.64,0,3
15494.531,-0.977,-0.024,-0.115,4.36,1.89,-0.67,0,3
15494.531,-0.976,-0.028,-0.114,3.48,2.96,-0.18,0,3
15494.546,-0.976,-0.021,-0.112,2.96,3.63,0.12,0,3
15494.562,-0.974,-0.019,-0.111,2.41,4.27,0.12,0,3
15494.562,-0.978,-0.015,-0.107,1.56,4.82,0.06,0,3
15494.578,-0.98,-0.011,-0.105,0.58,5.16,0.06,0,3
15494.593,-0.978,-0.008,-0.099,-0.21,5.31,0.67,0,3
15494.609,-0.983,-0.014,-0.098,-0.15,5.28,1.74,0,3
15494.609,-0.979,-0.024,-0.093,0.61,5.68,3.42,0,3
15494.625,-0.98,-0.028,-0.091,2.32,5.98,4.43,0,3
15494.64,-0.982,-0.035,-0.087,4.43,6.35,4.94,0,3
15494.64,-0.984,-0.038,-0.085,6.41,6.13,4.43,0,3
15494.656,-0.986,-0.039,-0.085,8.27,6.1,4.06,0,3
15494.656,-0.986,-0.038,-0.089,9.52,5.4,3.66,0,3
15494.671,-0.982,-0.035,-0.091,10.53,4.55,3.36,0,3
15494.687,-0.979,-0.037,-0.095,10.86,4.15,3.17,0,3
15494.687,-0.976,-0.03,-0.095,10.71,4.21,3.17,0,3
15494.703,-0.97,-0.027,-0.099,10.62,4.43,2.99,0,3
15494.718,-0.97,-0.027,-0.099,10.38,5.31,2.87,0,3
15494.718,-0.972,-0.026,-0.097,10.38,6.2,2.87,0,3
15494.734,-0.978,-0.031,-0.089,11.26,7.39,3.78,0,3
15494.734,-0.978,-0.043,-0.072,14.62,8.79,5.28,0,3
15494.75,-0.979,-0.06,-0.06,21.58,10.28,7.42,0,3
15494.765,-0.978,-0.072,-0.053,31.37,11.69,9.49,0,3
15494.765,-0.981,-0.079,-0.048,43.18,13.15,11.02,0,3
15494.781,-0.983,-0.074,-0.052,54.87,14.37,12.24,0,3
15494.796,-0.984,-0.065,-0.061,65.37,15.41,13.21,0,3
15494.796,-0.992,-0.068,-0.058,75.78,16.82,14.47,0,3
15494.812,-0.996,-0.076,-0.054,87.25,19.38,17.24,0,3
15494.828,-0.993,-0.07,-0.06,98.79,21.61,21.06,0,3
15494.828,-0.989,-0.071,-0.075,109.5,23.47,23.96,0,3
15494.843,-0.99,-0.072,-0.076,117.31,24.69,26.37,0,3
15494.843,-0.989,-0.069,-0.075,122.5,25.54,28.05,0,3
15494.859,-0.987,-0.072,-0.073,126.13,25.91,28.9,0,3
15494.875,-0.986,-0.077,-0.056,138.68,28.14,30.92,0,3
15494.875,-0.991,-0.094,-0.042,149.72,30.15,32.78,0,3
15494.89,-0.993,-0.087,-0.039,159.83,30.79,33.57,0,3
15494.906,-0.987,-0.066,-0.054,164.56,29.88,33.33,0,3
15494.906,-1.008,-0.007,-0.097,161.2,26.31,33.08,0,3
15494.921,-1.008,0.027,-0.117,150.0,20.02,32.17,0,3
15494.937,-1.012,0.039,-0.133,132.27,12.33,30.43,0,3
15494.937,-1.007,0.039,-0.141,110.42,3.69,28.32,0,3
15494.953,-0.991,0.033,-0.142,88.17,-4.79,25.39,0,3
15494.953,-0.982,0.01,-0.136,69.37,-11.66,21.76,0,3
15494.968,-0.98,-0.015,-0.125,55.48,-16.72,18.07,0,3
15494.984,-0.982,-0.033,-0.119,47.12,-20.23,14.44,0,3
15494.984,-0.982,-0.041,-0.113,43.49,-22.28,11.63,0,3
15495.0,-0.985,-0.04,-0.108,43.34,-23.32,9.64,0,3
15495.015,-0.987,-0.032,-0.115,45.26,-24.14,8.58,0,3
15495.015,-0.985,-0.018,-0.126,47.03,-24.66,8.55,0,3
15495.031,-0.988,0.005,-0.133,47.33,-24.9,8.61,0,3
15495.046,-0.991,0.013,-0.139,46.02,-26.34,9.06,0,3
15495.046,-0.994,0.018,-0.138,44.1,-27.99,9.86,0,3
15495.062,-0.993,0.015,-0.142,41.9,-30.79,10.77,0,3
15495.062,-0.998,0.011,-0.145,40.68,-33.72,11.81,0,3
15495.078,-0.998,0.009,-0.141,40.53,-36.84,12.91,0,3
15495.093,-0.994,0.012,-0.143,41.47,-38.91,14.28,0,3
15495.109,-0.986,0.011,-0.141,43.31,-39.8,16.33,0,3
15495.109,-0.983,0.006,-0.129,46.6,-38.91,18.8,0,3
15495.125,-0.979,0.005,-0.118,50.69,-37.69,21.27,0,3
15495.125,-0.969,0.004,-0.111,54.63,-36.16,22.95,0,3
15495.14,-0.967,0.008,-0.099,57.86,-33.85,23.59,0,3
15495.156,-0.972,0.015,-0.088,60.18,-31.31,23.77,0,3
15495.156,-0.971,0.033,-0.082,60.95,-29.21,23.62,0,3
15495.171,-0.971,0.039,-0.073,61.34,-27.04,23.29,0,3
15495.187,-0.982,0.046,-0.062,61.43,-24.57,23.32,0,3
15495.187,-0.996,0.069,-0.046,60.24,-23.16,24.45,0,3
15495.203,-1.012,0.079,-0.024,58.29,-23.38,26.34,0,3
15495.203,-1.03,0.078,0.008,56.49,-24.99,29.24,0,3
15495.218,-1.033,0.066,0.041,55.6,-27.95,32.96,0,3
15495.234,-1.03,0.045,0.071,57.56,-30.64,36.87,0,3
15495.25,-1.032,0.05,0.09,61.92,-32.53,38.64,0,3
15495.25,-1.029,0.058,0.095,66.65,-35.65,38.61,0,3
15495.265,-1.042,0.089,0.092,69.19,-39.19,37.39,0,3
15495.265,-1.064,0.136,0.079,67.45,-45.2,36.71,0,3
15495.281,-1.076,0.181,0.076,60.64,-51.55,37.45,0,3
15495.296,-1.093,0.198,0.084,51.97,-56.86,39.98,0,3
15495.296,-1.092,0.183,0.108,43.7,-61.22,44.98,0,3
15495.312,-1.078,0.153,0.138,38.12,-63.72,50.39,0,3
15495.328,-1.062,0.111,0.162,36.56,-65.31,54.08,0,3
15495.328,-1.055,0.088,0.189,38.94,-66.44,54.87,0,3
15495.343,-1.067,0.094,0.216,43.06,-68.27,54.32,0,3
15495.343,-1.067,0.127,0.23,45.32,-71.2,54.51,0,3
15495.359,-1.053,0.163,0.241,44.4,-75.35,54.48,0,3
15495.375,-1.046,0.186,0.252,43.43,-80.17,53.93,0,3
15495.375,-1.05,0.217,0.251,43.55,-85.82,53.77,0,3
15495.39,-1.054,0.235,0.24,44.77,-92.2,54.05,0,3
15495.406,-1.048,0.235,0.234,47.09,-96.8,54.87,0,3
15495.406,-1.032,0.25,0.227,50.02,-99.58,54.93,0,3
15495.421,-1.01,0.268,0.212,53.77,-100.89,53.35,0,3
15495.437,-0.993,0.28,0.193,57.34,-100.07,51.39,0,3
15495.437,-0.976,0.301,0.183,60.7,-96.9,49.47,0,3
15495.453,-0.965,0.321,0.182,64.7,-91.25,47.7,0,3
15495.453,-0.968,0.336,0.185,68.33,-85.02,46.51,0,3
15495.468,-0.986,0.347,0.198,71.84,-79.44,45.59,0,3
15495.484,-0.995,0.361,0.211,74.62,-74.56,46.17,0,3
15495.484,-0.987,0.387,0.221,74.31,-71.69,47.15,0,3
15495.5,-0.976,0.417,0.228,73.15,-69.92,45.9,0,3
15495.515,-0.976,0.446,0.239,71.69,-68.58,44.1,0,3
15495.515,-0.962,0.453,0.258,69.19,-66.5,43.7,0,3
15495.531,-0.95,0.444,0.273,67.2,-63.33,44.47,0,3
15495.546,-0.943,0.427,0.281,68.09,-59.51,45.01,0,3
15495.546,-0.94,0.422,0.291,69.73,-56.4,44.92,0,3
15495.562,-0.944,0.423,0.29,71.41,-54.99,44.43,0,3
15495.578,-0.945,0.417,0.293,72.48,-53.9,44.37,0,3
15495.578,-0.947,0.418,0.289,72.05,-52.77,44.8,0,3
15495.593,-0.951,0.433,0.29,70.16,-52.52,44.47,0,3
15495.593,-0.958,0.446,0.292,67.93,-53.65,43.58,0,3
15495.609,-0.966,0.472,0.29,65.28,-55.42,44.22,0,3
15495.625,-0.954,0.5,0.291,61.4,-57.74,45.41,0,3
15495.625,-0.944,0.507,0.294,57.74,-59.36,46.11,0,3
15495.64,-0.944,0.515,0.293,55.57,-60.06,47.09,0,3
15495.656,-0.936,0.51,0.297,54.93,-60.09,49.53,0,3
15495.656,-0.918,0.5,0.303,55.02,-59.3,51.88,0,3
15495.671,-0.915,0.503,0.301,56.4,-58.75,53.04,0,3
15495.671,-0.911,0.503,0.289,57.41,-59.27,53.47,0,3
15495.687,-0.91,0.511,0.28,57.37,-59.88,54.02,0,3
15495.703,-0.913,0.523,0.272,56.86,-60.12,54.45,0,3
15495.718,-0.895,0.533,0.27,55.18,-59.14,55.21,0,3
15495.718,-0.879,0.537,0.272,52.67,-56.25,56.15,0,3
15495.734,-0.871,0.539,0.276,49.84,-53.16,56.25,0,3
15495.734,-0.852,0.546,0.288,47.36,-50.84,55.18,0,3
15495.75,-0.855,0.57,0.304,46.24,-49.47,53.62,0,3
15495.765,-0.861,0.606,0.308,45.66,-49.26,53.25,0,3
15495.765,-0.847,0.649,0.307,43.4,-50.26,54.23,0,3
15495.781,-0.835,0.68,0.303,40.71,-51.24,56.0,0,3
15495.796,-0.827,0.689,0.298,38.39,-51.82,58.72,0,3
15495.796,-0.822,0.685,0.299,37.23,-51.27,61.89,0,3
15495.812,-0.838,0.682,0.297,37.66,-50.42,64.58,0,3
15495.828,-0.833,0.687,0.291,38.09,-49.53,66.1,0,3
15495.828,-0.814,0.703,0.291,36.35,-47.64,67.48,0,3
15495.843,-0.81,0.71,0.298,33.85,-45.38,68.91,0,3
15495.843,-0.792,0.706,0.303,31.74,-43.64,71.2,0,3
15495.859,-0.773,0.704,0.314,31.31,-40.5,74.62,0,3
15495.875,-0.771,0.7,0.327,33.75,-40.16,75.2,0,3
15495.875,-0.777,0.68,0.333,36.96,-40.56,75.96,0,3
15495.89,-0.77,0.678,0.339,39.67,-41.38,76.82,0,3
15495.906,-0.749,0.675,0.343,39.89,-41.66,76.94,0,3
15495.906,-0.72,0.661,0.353,38.03,-40.56,76.14,0,3
15495.921,-0.695,0.651,0.36,34.3,-39.34,74.98,0,3
15495.937,-0.687,0.647,0.365,29.79,-38.97,73.37,0,3
15495.937,-0.675,0.643,0.379,25.39,-39.22,71.96,0,3
15495.953,-0.66,0.646,0.397,21.67,-40.59,71.57,0,3
15495.953,-0.637,0.658,0.403,19.47,-43.98,70.83,0,3
15495.968,-0.604,0.666,0.402,19.96,-48.4,69.55,0,3
15495.984,-0.591,0.692,0.393,22.46,-51.85,68.27,0,3
15495.984,-0.569,0.727,0.379,25.97,-54.23,67.14,0,3
15496.0,-0.547,0.759,0.363,29.36,-54.6,66.53,0,3
15496.015,-0.532,0.785,0.342,31.31,-52.98,66.47,0,3
15496.015,-0.533,0.805,0.321,31.95,-50.81,66.29,0,3
15496.031,-0.53,0.823,0.302,32.2,-49.75,66.32,0,3
15496.046,-0.523,0.856,0.283,32.17,-49.62,66.47,0,3
15496.046,-0.52,0.894,0.264,32.35,-49.71,67.57,0,3
15496.062,-0.511,0.924,0.248,31.89,-50.17,69.58,0,3
15496.062,-0.507,0.939,0.235,31.19,-50.11,72.42,0,3
15496.078,-0.492,0.926,0.231,31.46,-48.86,76.2,0,3
15496.093,-0.472,0.917,0.227,32.35,-46.54,78.95,0,3
15496.093,-0.46,0.914,0.216,33.45,-44.31,80.11,0,3
15496.109,-0.434,0.905,0.205,33.39,-42.02,80.66,0,3
15496.125,-0.415,0.903,0.198,31.4,-39.12,80.87,0,3
15496.125,-0.406,0.907,0.185,28.26,-36.71,80.26,0,3
15496.14,-0.396,0.916,0.176,22.95,-35.1,79.56,0,3
15496.156,-0.393,0.928,0.177,15.84,-33.66,79.29,0,3
15496.156,-0.386,0.924,0.188,9.92,-33.2,78.98,0,3
15496.171,-0.365,0.916,0.193,7.23,-32.75,79.56,0,3
15496.187,-0.349,0.909,0.203,6.78,-32.07,81.24,0,3
15496.187,-0.343,0.902,0.209,9.34,-31.68,82.28,0,3
15496.203,-0.334,0.916,0.212,12.6,-30.85,82.31,0,3
15496.203,-0.313,0.931,0.21,14.22,-29.45,81.76,0,3
15496.218,-0.294,0.939,0.211,13.37,-27.59,81.42,0,3
15496.234,-0.279,0.943,0.211,10.93,-26.22,81.55,0,3
15496.25,-0.264,0.952,0.198,7.35,-26.64,81.3,0,3
15496.25,-0.242,0.962,0.192,2.2,-27.8,80.78,0,3
15496.265,-0.225,0.959,0.205,-1.4,-28.17,80.69,0,3
15496.265,-0.202,0.968,0.213,-2.11,-27.71,81.45,0,3
15496.281,-0.178,0.961,0.225,-1.53,-25.73,81.7,0,3
15496.296,-0.14,0.959,0.237,1.8,-21.97,81.0,0,3
15496.296,-0.148,0.952,0.238,6.81,-17.46,77.94,0,3
15496.312,-0.129,0.959,0.254,10.53,-13.58,75.81,0,3
15496.312,-0.123,0.973,0.257,15.23,-9.77,73.27,0,3
15496.328,-0.138,0.954,0.255,18.71,-8.18,72.6,0,3
15496.343,-0.135,0.964,0.258,21.33,-9.31,74.5,0,3
15496.343,-0.123,0.966,0.253,24.11,-10.8,76.05,0,3
15496.359,-0.102,0.961,0.253,24.63,-12.76,76.75,0,3
15496.375,-0.083,0.96,0.244,23.65,-14.16,75.87,0,3
15496.375,-0.061,0.954,0.237,21.7,-14.8,75.14,0,3
15496.39,-0.041,0.951,0.231,18.8,-15.44,74.83,0,3
15496.406,-0.035,0.947,0.219,16.51,-16.24,73.61,0,3
15496.406,-0.022,0.947,0.215,13.31,-16.69,72.76,0,3
15496.421,-0.004,0.959,0.209,9.34,-16.05,72.54,0,3
15496.437,0.007,0.965,0.203,5.34,-14.28,72.73,0,3
15496.437,0.013,0.965,0.212,2.01,-12.36,72.73,0,3
15496.453,0.028,0.976,0.226,-0.73,-10.99,72.3,0,3
15496.468,0.037,0.975,0.237,-2.11,-10.47,72.33,0,3
15496.468,0.06,0.963,0.255,-1.13,-10.32,73.0,0,3
15496.484,0.084,0.964,0.269,1.5,-9.95,72.85,0,3
15496.484,0.089,0.965,0.278,5.04,-9.25,71.44,0,3
15496.5,0.078,0.979,0.276,8.0,-9.06,70.07,0,3
15496.515,0.08,1.006,0.27,8.88,-10.04,69.77,0,3
15496.531,0.085,1.02,0.264,7.72,-11.57,70.44,0,3
15496.531,0.085,1.023,0.259,5.19,-13.25,72.57,0,3
15496.546,0.09,1.012,0.254,3.33,-15.81,75.05,0,3
15496.546,0.097,0.984,0.247,3.17,-18.56,77.3,0,3
15496.562,0.11,0.96,0.242,5.22,-21.09,78.59,0,3
15496.578,0.131,0.941,0.23,9.46,-22.71,79.23,0,3
15496.578,0.152,0.923,0.213,15.23,-22.71,80.11,0,3
15496.593,0.162,0.914,0.201,21.12,-21.7,80.69,0,3
15496.593,0.174,0.908,0.191,25.94,-20.42,80.48,0,3
15496.609,0.192,0.907,0.177,28.29,-18.98,80.26,0,3
15496.625,0.211,0.912,0.17,27.8,-16.57,80.9,0,3
15496.64,0.227,0.913,0.169,23.74,-14.56,81.58,0,3
15496.64,0.236,0.901,0.169,17.37,-14.07,82.06,0,3
15496.656,0.242,0.898,0.174,10.32,-14.65,82.19,0,3
15496.656,0.248,0.885,0.178,4.39,-16.54,82.06,0,3
15496.671,0.253,0.88,0.184,0.46,-18.49,82.22,0,3
15496.687,0.256,0.868,0.188,-0.24,-19.87,82.55,0,3
15496.687,0.272,0.85,0.183,2.44,-20.69,83.5,0,3
15496.703,0.271,0.822,0.179,8.91,-20.08,84.63,0,3
15496.703,0.276,0.778,0.165,18.65,-19.96,84.96,0,3
15496.718,0.31,0.762,0.144,28.69,-20.2,84.6,0,3
15496.734,0.348,0.752,0.119,37.32,-19.07,83.99,0,3
15496.734,0.368,0.752,0.095,42.66,-16.6,83.47,0,3
15496.75,0.386,0.766,0.074,42.57,-14.59,82.55,0,3
15496.765,0.407,0.796,0.056,36.01,-12.97,81.55,0,3
15496.765,0.406,0.831,0.044,23.01,-11.81,81.18,0,3
15496.781,0.402,0.829,0.048,6.35,-11.14,82.64,0,3
15496.796,0.396,0.812,0.06,-7.66,-10.83,84.11,0,3
15496.796,0.409,0.789,0.081,-15.14,-10.32,86.12,0,3
15496.812,0.431,0.767,0.105,-14.8,-9.67,88.35,0,3
15496.812,0.442,0.744,0.112,-6.84,-8.82,90.09,0,3
15496.828,0.46,0.727,0.109,5.1,-7.9,91.22,0,3
15496.843,0.492,0.716,0.095,25.18,-1.43,93.05,0,3
15496.843,0.526,0.705,0.085,27.89,3.11,92.81,0,3
15496.859,0.551,0.693,0.074,24.78,6.47,91.16,0,3
15496.875,0.553,0.696,0.066,16.57,8.0,89.08,0,3
15496.875,0.543,0.702,0.072,5.28,7.69,88.17,0,3
15496.89,0.562,0.699,0.086,-6.26,6.96,88.11,0,3
15496.906,0.586,0.673,0.107,-15.05,6.74,88.72,0,3
15496.906,0.615,0.629,0.125,-18.95,6.53,90.09,0,3
15496.921,0.641,0.593,0.135,-18.89,5.62,90.73,0,3
15496.921,0.656,0.571,0.147,-16.79,5.04,89.39,0,3
15496.937,0.658,0.563,0.155,-14.65,4.52,86.09,0,3
15496.953,0.663,0.556,0.168,-12.54,4.76,82.28,0,3
15496.968,0.661,0.566,0.172,-10.22,5.89,78.37,0,3
15496.968,0.658,0.557,0.173,-7.93,6.29,75.78,0,3
15496.984,0.658,0.538,0.169,-4.36,5.31,75.32,0,3
15496.984,0.668,0.523,0.164,-0.55,2.99,76.11,0,3
15497.0,0.681,0.5,0.164,1.86,-0.09,76.45,0,3
15497.015,0.692,0.482,0.155,3.42,-2.84,75.08,0,3
15497.015,0.693,0.474,0.143,3.72,-4.82,72.94,0,3
15497.031,0.695,0.465,0.132,2.44,-5.92,70.96,0,3
15497.046,0.717,0.448,0.116,1.19,-6.87,69.43,0,3
15497.046,0.735,0.429,0.109,0.15,-6.44,68.54,0,3
15497.062,0.748,0.422,0.106,-0.73,-4.43,67.66,0,3
15497.062,0.735,0.431,0.106,-0.85,-1.4,66.44,0,3
15497.078,0.728,0.435,0.115,-1.13,0.76,65.8,0,3
15497.093,0.751,0.441,0.126,-1.74,1.43,65.61,0,3
15497.093,0.774,0.446,0.138,-1.77,2.29,65.52,0,3
15497.109,0.768,0.439,0.158,-1.31,3.85,65.89,0,3
15497.125,0.771,0.417,0.165,-0.64,4.06,66.35,0,3
15497.125,0.773,0.398,0.165,0.34,3.51,66.07,0,3
15497.14,0.772,0.394,0.168,0.82,2.11,65.28,0,3
15497.156,0.786,0.383,0.159,1.92,0.37,64.88,0,3
15497.156,0.795,0.386,0.15,2.99,-0.58,65.1,0,3
15497.171,0.794,0.39,0.14,4.36,-0.7,64.49,0,3
15497.187,0.802,0.375,0.135,5.86,0.27,64.24,0,3
15497.187,0.808,0.353,0.135,8.36,2.59,64.67,0,3
15497.203,0.825,0.325,0.127,11.99,4.12,64.67,0,3
15497.203,0.834,0.314,0.124,14.89,5.43,64.15,0,3
15497.218,0.833,0.315,0.115,15.78,5.8,62.69,0,3
15497.234,0.828,0.329,0.112,14.34,5.92,61.68,0,3
15497.234,0.847,0.334,0.115,11.05,5.8,61.46,0,3
15497.25,0.845,0.348,0.122,6.93,6.29,61.65,0,3
15497.265,0.839,0.343,0.127,3.75,6.81,62.04,0,3
15497.265,0.845,0.338,0.137,1.65,6.96,63.2,0,3
15497.281,0.842,0.326,0.142,1.89,6.81,64.18,0,3
15497.296,0.846,0.297,0.14,2.93,6.32,65.98,0,3
15497.296,0.861,0.289,0.13,2.93,5.07,67.81,0,3
15497.312,0.879,0.29,0.123,2.01,4.39,68.3,0,3
15497.328,0.884,0.288,0.121,0.03,5.16,68.18,0,3
15497.328,0.892,0.282,0.122,-1.68,6.53,68.3,0,3
15497.343,0.912,0.259,0.13,-2.66,8.76,68.85,0,3
15497.343,0.933,0.22,0.143,-2.23,12.39,69.61,0,3
15497.359,0.946,0.186,0.163,-1.1,15.17,68.97,0,3
15497.375,0.952,0.157,0.184,0.64,16.27,66.56,0,3
15497.375,0.961,0.135,0.207,3.14,15.56,63.81,0,3
15497.39,0.954,0.12,0.222,7.48,13.28,61.56,0,3
15497.406,0.927,0.125,0.229,12.82,9.7,59.57,0,3
15497.406,0.934,0.121,0.222,17.76,4.85,57.56,0,3
15497.421,0.963,0.12,0.209,20.66,1.59,56.61,0,3
15497.437,0.984,0.124,0.198,20.63,0.89,55.85,0,3
15497.437,0.996,0.133,0.188,16.57,1.4,54.45,0,3
15497.453,0.987,0.132,0.191,9.28,1.71,53.04,0,3
15497.453,0.974,0.115,0.205,2.32,0.98,51.97,0,3
15497.468,0.975,0.1,0.215,-1.1,-0.58,50.57,0,3
15497.484,0.961,0.082,0.229,-0.21,-2.14,48.95,0,3
15497.484,0.962,0.057,0.237,4.09,-4.24,47.67,0,3
15497.5,0.976,0.042,0.235,9.8,-6.56,46.6,0,3
15497.515,0.983,0.029,0.232,16.05,-8.24,44.65,0,3
15497.531,0.988,0.026,0.226,22.98,-9.46,42.54,0,3
15497.531,0.987,0.061,0.206,27.99,-10.04,40.59,0,3
15497.546,0.97,0.103,0.182,28.81,-9.77,38.88,0,3
15497.546,0.938,0.135,0.172,24.93,-8.85,38.39,0,3
15497.562,0.943,0.157,0.176,18.28,-7.81,39.74,0,3
15497.578,0.933,0.15,0.186,10.71,-5.86,42.79,0,3
15497.578,0.934,0.135,0.196,3.36,-5.19,45.99,0,3
15497.593,0.946,0.101,0.207,-4.27,-6.78,48.92,0,3
15497.593,0.952,0.047,0.226,-8.51,-9.19,50.33,0,3
15497.609,0.954,0.001,0.239,-5.86,-11.23,50.48,0,3
15497.625,0.952,-0.026,0.241,2.29,-12.3,49.04,0,3
15497.625,0.952,-0.029,0.24,12.42,-12.63,46.6,0,3
15497.64,0.96,-0.008,0.227,21.09,-11.9,45.17,0,3
15497.656,0.951,0.018,0.214,25.27,-10.62,45.23,0,3
15497.656,0.929,0.025,0.212,24.9,-9.92,46.05,0,3
15497.671,0.912,0.023,0.21,22.22,-10.93,47.76,0,3
15497.687,0.909,0.014,0.21,19.65,-13.49,49.13,0,3
15497.687,0.914,0.004,0.2,17.98,-16.39,50.02,0,3
15497.703,0.919,0.004,0.185,15.87,-18.77,51.24,0,3
15497.703,0.93,-0.008,0.17,12.21,-20.36,52.1,0,3
15497.718,0.932,-0.019,0.163,8.45,-20.87,52.34,0,3
15497.734,0.922,-0.03,0.16,6.96,-21.0,52.71,0,3
15497.75,0.913,-0.053,0.152,9.25,-21.36,53.44,0,3
15497.75,0.898,-0.065,0.131,13.52,-21.73,54.63,0,3
15497.765,0.913,-0.08,0.109,17.43,-23.19,55.18,0,3
15497.765,0.929,-0.078,0.082,19.65,-24.38,55.3,0,3
15497.781,0.939,-0.069,0.064,18.43,-25.79,54.54,0,3
15497.796,0.958,-0.074,0.052,14.83,-27.31,54.14,0,3
15497.796,0.957,-0.076,0.048,11.11,-26.89,54.57,0,3
15497.812,0.941,-0.094,0.046,9.52,-24.6,55.51,0,3
15497.828,0.931,-0.123,0.046,10.22,-18.8,58.17,0,3
15497.828,0.946,-0.147,0.05,12.24,-16.24,58.29,0,3
15497.843,0.944,-0.164,0.051,14.86,-14.34,57.19,0,3
15497.843,0.939,-0.169,0.049,17.76,-12.51,56.12,0,3
15497.859,0.931,-0.165,0.041,21.3,-10.9,56.7,0,3
15497.875,0.932,-0.173,0.036,23.99,-9.06,58.44,0,3
15497.875,0.936,-0.197,0.028,24.69,-7.45,59.6,0,3
15497.89,0.951,-0.21,0.03,22.92,-5.83,59.69,0,3
15497.906,0.955,-0.216,0.04,19.44,-3.75,59.18,0,3
15497.906,0.932,-0.228,0.053,15.26,-1.89,57.99,0,3
15497.921,0.917,-0.242,0.064,12.33,-1.65,56.58,0,3
15497.937,0.904,-0.251,0.069,11.29,-1.71,56.12,0,3
15497.937,0.911,-0.278,0.071,13.21,-1.28,56.18,0,3
15497.953,0.92,-0.296,0.07,16.79,0.15,57.13,0,3
15497.953,0.927,-0.298,0.074,18.28,1.77,57.53,0,3
15497.968,0.929,-0.3,0.083,16.88,2.53,57.01,0,3
15497.984,0.904,-0.294,0.097,12.97,2.35,56.92,0,3
15497.984,0.893,-0.309,0.099,8.33,0.15,57.41,0,3
15498.0,0.889,-0.332,0.09,4.03,-3.42,58.17,0,3
15498.015,0.904,-0.371,0.071,2.35,-6.78,57.99,0,3
15498.015,0.934,-0.409,0.055,3.23,-8.24,56.83,0,3
15498.031,0.943,-0.426,0.047,6.07,-6.62,55.02,0,3
15498.046,0.935,-0.432,0.052,10.19,-2.78,52.43,0,3
15498.046,0.917,-0.426,0.065,14.74,1.07,49.5,0,3
15498.062,0.886,-0.399,0.079,19.32,4.43,46.51,0,3
15498.078,0.869,-0.372,0.094,22.43,6.96,45.32,0,3
15498.078,0.872,-0.372,0.109,22.68,7.97,46.21,0,3
15498.093,0.873,-0.377,0.114,21.82,7.05,47.4,0,3
15498.093,0.863,-0.38,0.11,20.36,5.01,48.4,0,3
15498.109,0.848,-0.401,0.112,18.04,2.44,49.07,0,3
15498.125,0.844,-0.411,0.108,16.48,0.03,49.29,0,3
15498.14,0.855,-0.416,0.1,14.71,-1.28,50.2,0,3
15498.14,0.86,-0.443,0.093,11.96,-1.34,51.09,0,3
15498.156,0.87,-0.46,0.092,10.22,-0.06,51.15,0,3
15498.156,0.861,-0.467,0.097,8.48,2.38,51.39,0,3
15498.171,0.853,-0.494,0.101,6.87,3.91,51.06,0,3
15498.187,0.866,-0.525,0.11,6.71,4.46,50.08,0,3
15498.187,0.872,-0.542,0.122,8.85,4.82,48.55,0,3
15498.203,0.845,-0.547,0.129,12.94,5.22,45.87,0,3
15498.218,0.836,-0.545,0.128,17.52,5.16,42.76,0,3
15498.218,0.836,-0.515,0.13,21.03,5.74,40.53,0,3
15498.234,0.833,-0.492,0.135,21.58,6.87,39.7,0,3
15498.234,0.816,-0.489,0.145,18.95,6.99,40.59,0,3
15498.25,0.809,-0.506,0.155,14.16,5.31,42.66,0,3
15498.265,0.819,-0.533,0.16,8.91,2.78,44.22,0,3
15498.265,0.817,-0.546,0.162,4.79,0.34,44.22,0,3
15498.281,0.817,-0.56,0.161,1.04,-2.17,43.55,0,3
15498.296,0.818,-0.575,0.165,-0.24,-3.78,42.57,0,3
15498.296,0.828,-0.586,0.168,1.43,-3.75,42.09,0,3
15498.312,0.832,-0.598,0.174,4.21,-2.72,41.54,0,3
15498.328,0.828,-0.607,0.176,7.26,-2.14,39.86,0,3
15498.328,0.821,-0.595,0.175,9.67,-2.04,37.72,0,3
15498.343,0.802,-0.572,0.17,10.59,-2.69,36.01,0,3
15498.343,0.789,-0.554,0.164,9.8,-3.75,35.37,0,3
15498.359,0.776,-0.535,0.161,7.54,-4.73,35.68,0,3
15498.375,0.766,-0.537,0.157,4.64,-5.8,36.56,0,3
15498.375,0.769,-0.561,0.157,1.98,-6.74,37.97,0,3
15498.39,0.776,-0.58,0.156,-0.15,-7.08,39.22,0,3
15498.406,0.783,-0.597,0.159,-2.44,-6.53,39.67,0,3
15498.406,0.775,-0.615,0.167,-3.57,-5.52,39.28,0,3
15498.421,0.768,-0.617,0.172,-3.39,-4.85,38.3,0,3
15498.421,0.755,-0.6,0.173,-4.09,-4.52,36.84,0,3
15498.437,0.739,-0.572,0.17,-8.76,-4.91,35.95,0,3
15498.453,0.732,-0.568,0.166,-19.01,-6.78,36.59,0,3
15498.468,0.738,-0.579,0.172,-32.59,-9.77,38.06,0,3
15498.468,0.735,-0.618,0.185,-42.73,-12.21,39.0,0,3
15498.484,0.737,-0.676,0.207,-44.16,-13.67,39.37,0,3
15498.484,0.731,-0.727,0.221,-35.37,-14.62,38.94,0,3
15498.5,0.738,-0.755,0.215,-19.62,-15.99,37.45,0,3
15498.515,0.737,-0.751,0.198,-3.72,-16.97,35.68,0,3
15498.515,0.735,-0.741,0.172,7.87,-17.58,33.27,0,3
15498.531,0.735,-0.72,0.137,11.6,-18.1,31.98,0,3
15498.546,0.735,-0.714,0.122,6.44,-18.43,31.19,0,3
15498.546,0.724,-0.719,0.113,-1.83,-19.44,30.27,0,3
15498.562,0.712,-0.713,0.112,-9.37,-20.97,29.88,0,3
15498.578,0.704,-0.734,0.114,-13.86,-22.64,29.88,0,3
15498.578,0.698,-0.753,0.118,-13.73,-24.11,29.76,0,3
15498.593,0.696,-0.755,0.118,-8.85,-24.69,28.66,0,3
15498.593,0.7,-0.753,0.115,-2.11,-24.6,27.1,0,3
15498.609,0.7,-0.747,0.103,4.36,-23.9,25.97,0,3
15498.625,0.699,-0.737,0.092,8.7,-23.13,25.7,0,3
15498.64,0.693,-0.742,0.079,10.41,-23.16,25.15,0,3
15498.64,0.685,-0.739,0.064,8.73,-23.5,24.2,0,3
15498.656,0.688,-0.74,0.049,5.77,-23.5,23.44,0,3
15498.656,0.687,-0.738,0.048,2.32,-22.06,22.74,0,3
15498.671,0.674,-0.737,0.054,0.06,-20.84,21.42,0,3
15498.687,0.668,-0.745,0.06,1.07,-20.63,20.51,0,3
15498.687,0.671,-0.748,0.058,5.28,-21.03,20.14,0,3
15498.703,0.669,-0.723,0.044,9.74,-21.27,20.51,0,3
15498.703,0.66,-0.715,0.027,11.84,-21.12,20.97,0,3
15498.718,0.66,-0.708,0.017,12.27,-20.63,21.33,0,3
15498.734,0.661,-0.693,0.014,11.32,-18.56,22.34,0,3
15498.75,0.655,-0.694,0.018,7.51,-16.05,23.62,0,3
15498.75,0.652,-0.713,0.023,1.8,-15.17,24.93,0,3
15498.765,0.658,-0.742,0.03,-3.51,-15.69,25.79,0,3
15498.765,0.661,-0.758,0.032,-5.65,-16.21,25.76,0,3
15498.781,0.657,-0.764,0.032,-4.03,-16.33,25.3,0,3
15498.796,0.653,-0.752,0.031,-0.52,-15.99,24.72,0,3
15498.796,0.642,-0.739,0.024,5.71,-14.92,25.51,0,3
15498.812,0.642,-0.746,0.021,7.23,-14.56,26.52,0,3
15498.812,0.648,-0.758,0.015,8.79,-13.43,26.7,0,3
15498.828,0.652,-0.768,0.013,9.98,-12.15,26.18,0,3
15498.843,0.649,-0.751,0.004,9.61,-10.74,25.57,0,3
15498.843,0.637,-0.736,0.002,6.96,-9.58,24.72,0,3
15498.859,0.624,-0.727,0.003,3.69,-9.16,23.93,0,3
15498.875,0.624,-0.723,0.01,2.11,-8.58,24.32,0,3
15498.875,0.62,-0.722,0.014,2.53,-7.54,25.79,0,3
15498.89,0.615,-0.733,0.019,4.76,-6.84,26.92,0,3
15498.906,0.614,-0.753,0.018,8.09,-6.81,28.11,0,3
15498.906,0.625,-0.765,0.019,10.38,-7.42,29.33,0,3
15498.921,0.628,-0.768,0.013,10.8,-7.9,29.33,0,3
15498.921,0.627,-0.768,0.009,9.77,-7.54,28.47,0,3
15498.937,0.625,-0.77,0.004,7.69,-6.47,28.14,0,3
15498.953,0.625,-0.779,0.007,5.58,-5.01,28.5,0,3
15498.953,0.626,-0.792,0.009,4.85,-3.08,28.57,0,3
15498.968,0.633,-0.8,0.014,5.77,-0.98,28.08,0,3
15498.984,0.635,-0.794,0.01,7.6,1.28,27.01,0,3
15498.984,0.632,-0.767,0.006,8.55,3.97,25.82,0,3
15499.0,0.612,-0.743,0.01,7.39,6.38,25.42,0,3
15499.015,0.591,-0.744,0.016,5.07,6.56,26.4,0,3
15499.015,0.579,-0.753,0.022,3.48,4.61,28.66,0,3
15499.031,0.582,-0.771,0.025,3.02,2.72,31.65,0,3
15499.046,0.591,-0.803,0.029,2.81,1.53,33.69,0,3
15499.046,0.599,-0.832,0.031,3.33,1.4,33.81,0,3
15499.062,0.597,-0.841,0.04,4.55,2.53,32.44,0,3
15499.078,0.59,-0.838,0.047,6.41,4.7,30.88,0,3
15499.078,0.577,-0.838,0.053,7.84,6.84,30.06,0,3
15499.093,0.565,-0.851,0.059,8.24,8.55,29.63,0,3
15499.093,0.56,-0.858,0.062,6.74,9.7,29.15,0,3
15499.109,0.55,-0.871,0.072,4.52,10.04,28.08,0,3
15499.125,0.546,-0.892,0.088,2.72,9.67,27.38,0,3
15499.125,0.547,-0.905,0.098,2.26,8.94,27.1,0,3
15499.14,0.535,-0.899,0.105,2.81,8.03,26.49,0,3
15499.156,0.53,-0.907,0.114,4.06,6.29,25.76,0,3
15499.156,0.521,-0.913,0.114,5.89,4.24,25.39,0,3
15499.171,0.522,-0.915,0.107,6.99,2.2,24.78,0,3
15499.171,0.523,-0.916,0.101,6.74,0.82,23.32,0,3
15499.187,0.52,-0.923,0.102,5.92,0.43,21.52,0,3
15499.203,0.521,-0.919,0.104,5.86,0.89,19.71,0,3
15499.203,0.513,-0.908,0.112,6.44,1.28,18.43,0,3
15499.218,0.506,-0.906,0.116,7.2,0.58,18.01,0,3
15499.234,0.509,-0.903,0.118,7.14,-0.95,18.16,0,3
15499.234,0.502,-0.892,0.119,7.51,-2.84,17.27,0,3
15499.25,0.5,-0.882,0.115,8.91,-4.79,16.02,0,3
15499.265,0.505,-0.871,0.108,10.38,-5.95,15.84,0,3
15499.265,0.511,-0.867,0.104,11.96,-6.68,15.99,0,3
15499.281,0.524,-0.877,0.102,13.92,-7.81,15.47,0,3
15499.296,0.528,-0.87,0.096,17.09,-9.43,14.28,0,3
15499.296,0.527,-0.86,0.08,20.63,-11.14,13.21,0,3
15499.312,0.514,-0.834,0.054,23.71,-12.21,12.88,0,3
15499.312,0.524,-0.801,0.031,23.96,-11.26,13.34,0,3
15499.328,0.52,-0.786,0.024,19.78,-7.63,14.5,0,3
15499.343,0.517,-0.796,0.037,13.82,-3.2,16.33,0,3
15499.343,0.51,-0.826,0.062,8.3,-0.34,18.68,0,3
15499.359,0.504,-0.862,0.084,4.82,0.34,20.42,0,3
15499.375,0.494,-0.887,0.096,4.67,-0.7,20.54,0,3
15499.375,0.488,-0.89,0.098,7.05,-2.41,19.62,0,3
15499.39,0.481,-0.875,0.099,10.13,-2.66,18.52,0,3
15499.406,0.465,-0.856,0.098,12.3,-1.68,18.37,0,3
15499.406,0.457,-0.85,0.101,12.33,-0.52,19.32,0,3
15499.421,0.456,-0.854,0.106,11.05,0.06,20.26,0,3
15499.437,0.451,-0.867,0.11,9.19,0.55,20.94,0,3
15499.437,0.442,-0.882,0.114,7.54,0.92,21.06,0,3
15499.453,0.439,-0.886,0.114,6.38,1.16,21.18,0,3
15499.453,0.434,-0.896,0.111,4.15,1.43,21.52,0,3
15499.468,0.433,-0.919,0.123,1.89,1.98,21.91,0,3
15499.484,0.426,-0.939,0.134,1.5,2.69,21.64,0,3
15499.484,0.422,-0.962,0.141,3.48,3.39,20.87,0,3
15499.5,0.417,-0.974,0.15,6.68,3.51,20.08,0,3
15499.515,0.415,-0.975,0.142,9.13,3.2,19.1,0,3
15499.515,0.412,-0.962,0.131,7.87,2.59,18.31,0,3
15499.531,0.411,-0.962,0.131,4.49,1.19,16.85,0,3
15499.546,0.41,-0.959,0.134,2.5,0.37,15.17,0,3
15499.546,0.404,-0.953,0.14,2.72,0.49,14.74,0,3
15499.562,0.394,-0.947,0.14,4.43,0.43,14.71,0,3
15499.562,0.392,-0.938,0.131,5.95,-0.37,14.37,0,3
15499.578,0.396,-0.942,0.124,5.46,-0.55,14.56,0,3
