timestamp,ax,ay,az,gx,gy,gz,orient_label,motion_label
15422.046,0.242,0.322,0.893,5.19,-4.3,-0.24,0,3
15422.062,0.241,0.328,0.885,5.34,-3.97,-1.28,0,3
15422.062,0.234,0.335,0.887,5.49,-2.75,-1.95,0,3
15422.078,0.233,0.345,0.894,4.73,-1.19,-2.5,0,3
15422.093,0.227,0.357,0.9,4.09,0.15,-2.81,0,3
15422.093,0.218,0.367,0.909,3.97,1.04,-2.78,0,3
15422.109,0.212,0.373,0.917,4.3,1.46,-2.11,0,3
15422.125,0.208,0.374,0.919,4.73,1.8,-1.46,0,3
15422.125,0.206,0.381,0.92,5.31,1.86,-1.01,0,3
15422.14,0.203,0.386,0.916,5.77,1.46,-0.61,0,3
15422.156,0.2,0.385,0.91,5.07,0.98,0.46,0,3
15422.156,0.2,0.38,0.904,4.27,1.53,0.76,0,3
15422.171,0.198,0.376,0.9,3.57,2.23,0.98,0,3
15422.187,0.189,0.377,0.9,3.11,2.35,1.1,0,3
15422.187,0.183,0.381,0.901,2.32,2.08,1.25,0,3
15422.203,0.175,0.386,0.907,1.19,2.01,1.46,0,3
15422.203,0.17,0.388,0.912,-0.12,1.37,1.77,0,3
15422.218,0.172,0.384,0.914,-1.04,0.15,2.04,0,3
15422.234,0.17,0.381,0.914,-1.34,-1.22,2.41,0,3
15422.234,0.174,0.374,0.915,-1.37,-2.01,3.14,0,3
15422.25,0.177,0.363,0.918,-0.67,-2.2,3.66,0,3
15422.265,0.18,0.354,0.922,0.64,-2.26,4.24,0,3
15422.265,0.186,0.349,0.921,2.59,-2.5,4.43,0,3
15422.281,0.19,0.341,0.917,4.46,-2.47,4.27,0,3
15422.296,0.188,0.344,0.917,5.58,-2.01,3.45,0,3
15422.296,0.189,0.358,0.918,4.64,-2.2,2.41,0,3
15422.312,0.19,0.363,0.922,2.23,-3.08,1.04,0,3
15422.312,0.187,0.373,0.926,-0.12,-4.21,0.09,0,3
15422.328,0.186,0.375,0.93,-1.07,-5.4,-0.18,0,3
15422.343,0.185,0.37,0.928,-0.18,-6.23,0.37,0,3
15422.343,0.185,0.37,0.925,1.98,-6.71,1.43,0,3
15422.359,0.186,0.376,0.921,4.15,-7.29,2.66,0,3
15422.375,0.187,0.373,0.914,5.89,-7.97,3.94,0,3
15422.375,0.192,0.366,0.908,6.71,-8.39,4.67,0,3
15422.406,0.205,0.37,0.896,7.08,-8.15,4.49,0,3
15422.406,0.211,0.369,0.889,6.41,-7.39,3.75,0,3
15422.421,0.213,0.377,0.887,5.55,-6.38,2.78,0,3
15422.421,0.212,0.385,0.887,4.55,-5.31,2.23,0,3
15422.437,0.212,0.384,0.885,3.57,-4.61,2.26,0,3
15422.453,0.211,0.389,0.885,2.62,-3.85,2.17,0,3
15422.453,0.213,0.392,0.884,1.43,-2.87,2.2,0,3
15422.468,0.214,0.39,0.887,0.52,-1.92,2.2,0,3
15422.484,0.215,0.395,0.889,0.4,-0.27,2.17,0,3
15422.484,0.215,0.406,0.895,1.22,1.77,2.44,0,3
15422.5,0.212,0.41,0.9,2.84,3.42,3.08,0,3
15422.5,0.215,0.416,0.902,4.64,4.3,4.27,0,3
15422.515,0.218,0.428,0.9,6.16,4.67,5.68,0,3
15422.531,0.218,0.43,0.897,6.68,4.82,7.05,0,3
15422.531,0.217,0.432,0.89,6.1,5.01,8.15,0,3
15422.546,0.216,0.437,0.891,4.49,5.19,9.16,0,3
15422.562,0.214,0.435,0.893,2.53,5.46,10.04,0,3
15422.562,0.211,0.432,0.894,0.76,5.49,11.2,0,3
15422.578,0.212,0.428,0.895,-0.24,5.62,12.39,0,3
15422.593,0.209,0.422,0.897,-0.82,5.89,13.31,0,3
15422.593,0.208,0.412,0.9,-1.13,6.29,14.1,0,3
15422.609,0.214,0.401,0.901,-0.43,6.96,14.5,0,3
15422.609,0.211,0.391,0.901,0.64,7.54,15.17,0,3
15422.625,0.212,0.386,0.9,2.14,8.15,15.81,0,3
15422.64,0.219,0.381,0.897,3.69,8.64,16.42,0,3
15422.64,0.219,0.375,0.895,4.85,9.22,16.91,0,3
15422.656,0.223,0.374,0.897,5.74,9.74,17.0,0,3
15422.671,0.22,0.379,0.899,5.68,10.44,16.42,0,3
15422.671,0.217,0.384,0.898,4.3,10.47,15.9,0,3
15422.687,0.216,0.384,0.903,1.74,9.58,15.53,0,3
15422.703,0.216,0.381,0.911,-0.82,8.06,15.14,0,3
15422.703,0.221,0.375,0.914,-2.66,6.29,14.8,0,3
15422.718,0.224,0.367,0.914,-3.3,4.88,14.37,0,3
15422.734,0.227,0.361,0.915,-2.5,3.85,13.95,0,3
15422.734,0.233,0.357,0.912,-0.21,2.96,13.76,0,3
15422.75,0.241,0.355,0.907,2.9,2.87,13.7,0,3
15422.75,0.243,0.356,0.9,6.41,4.03,13.52,0,3
15422.765,0.243,0.364,0.898,9.92,5.77,13.34,0,3
15422.781,0.236,0.374,0.9,12.24,7.54,13.06,0,3
15422.781,0.231,0.386,0.902,13.09,8.88,13.06,0,3
15422.796,0.227,0.395,0.902,12.54,8.7,13.0,0,3
15422.812,0.221,0.401,0.901,10.83,7.39,13.0,0,3
15422.812,0.221,0.402,0.898,8.09,5.62,12.73,0,3
15422.828,0.223,0.393,0.894,4.85,3.48,12.39,0,3
15422.843,0.227,0.38,0.891,1.86,1.53,11.84,0,3
15422.843,0.228,0.372,0.887,0.34,0.92,11.26,0,3
15422.859,0.228,0.362,0.889,0.4,1.74,10.5,0,3
15422.875,0.231,0.35,0.893,2.11,3.14,10.16,0,3
15422.89,0.236,0.341,0.891,5.89,5.1,10.28,0,3
15422.89,0.241,0.337,0.885,11.32,7.26,10.1,0,3
15422.89,0.243,0.336,0.873,17.12,9.31,9.83,0,3
15422.921,0.231,0.372,0.849,20.51,12.02,6.96,0,3
15422.921,0.221,0.383,0.842,16.21,12.67,5.13,0,3
15422.937,0.208,0.386,0.844,9.19,12.73,3.48,0,3
15422.953,0.196,0.382,0.85,1.86,12.54,2.41,0,3
15422.953,0.187,0.377,0.864,-4.06,12.51,1.74,0,3
15422.968,0.182,0.373,0.874,-7.69,12.88,0.82,0,3
15422.984,0.183,0.373,0.883,-8.67,13.7,-0.46,0,3
15422.984,0.179,0.374,0.886,-7.63,14.8,-1.83,0,3
15423.0,0.175,0.375,0.886,-6.2,16.11,-2.66,0,3
15423.015,0.164,0.385,0.89,-4.82,17.58,-3.27,0,3
15423.015,0.161,0.395,0.895,-3.6,19.04,-3.2,0,3
15423.031,0.155,0.412,0.897,-2.81,19.99,-2.9,0,3
15423.031,0.149,0.419,0.9,-2.5,20.78,-2.2,0,3
15423.046,0.145,0.429,0.904,-2.17,21.24,-1.4,0,3
15423.062,0.143,0.43,0.896,-1.22,21.58,-0.7,0,3
15423.062,0.138,0.426,0.886,-0.89,21.82,0.4,0,3
15423.093,0.145,0.424,0.87,-3.63,21.58,1.28,0,3
15423.093,0.149,0.422,0.861,-7.08,21.82,0.95,0,3
15423.109,0.151,0.419,0.857,-10.9,22.61,0.7,0,3
15423.125,0.144,0.416,0.865,-13.89,23.56,1.31,0,3
15423.125,0.133,0.408,0.869,-14.25,24.96,7.75,0,3
15423.14,0.136,0.397,0.863,-11.96,26.67,10.96,0,3
15423.156,0.137,0.384,0.864,-8.45,28.29,13.03,0,3
15423.156,0.13,0.352,0.864,-4.61,29.15,13.4,0,3
15423.171,0.122,0.351,0.863,-2.01,29.15,12.18,0,3
15423.171,0.103,0.364,0.855,-2.35,29.3,10.56,0,3
15423.187,0.093,0.366,0.854,-6.1,29.82,9.28,0,3
15423.203,0.082,0.366,0.861,-11.47,30.95,7.97,0,3
15423.218,0.06,0.368,0.869,-17.03,33.42,7.14,0,3
15423.218,0.054,0.349,0.88,-21.15,36.07,7.63,0,3
15423.234,0.047,0.324,0.892,-22.34,38.36,8.51,0,3
15423.234,0.048,0.3,0.904,-20.69,39.86,8.27,0,3
15423.265,0.053,0.269,0.897,-14.37,38.33,2.81,0,3
15423.265,0.046,0.251,0.877,-10.22,37.2,-0.12,0,3
15423.281,0.048,0.248,0.854,-6.74,36.96,-2.72,0,3
15423.281,0.047,0.254,0.834,-5.19,39.34,-6.23,0,3
15423.296,0.039,0.253,0.798,-7.35,46.17,-12.02,0,3
15423.312,-0.003,0.275,0.761,-12.82,60.09,-20.45,0,3
15423.312,-0.221,0.416,0.978,-18.86,76.72,-24.66,0,3
15423.328,-0.427,0.521,1.511,-15.87,68.76,-12.33,0,3
15423.343,-0.455,0.445,1.569,-13.64,23.87,5.16,0,3
15423.343,-0.233,0.288,1.283,-31.25,-22.34,8.3,0,3
15423.359,-0.12,0.29,1.081,-41.38,-35.22,3.88,0,3
15423.375,-0.115,0.234,0.971,-24.38,-22.4,3.42,0,3
15423.375,-0.12,0.178,0.937,-3.72,-6.9,2.84,0,3
15423.39,-0.184,0.207,0.937,12.57,1.68,0.4,0,3
15423.39,-0.224,0.317,1.008,24.54,0.67,1.43,0,3
15423.406,-0.145,0.275,1.006,27.44,-10.62,1.83,0,3
15423.421,-0.208,0.33,0.968,3.27,-36.35,-13.31,0,3
15423.437,-0.109,0.259,0.975,-8.91,-51.21,-13.4,0,3
15423.453,-0.074,0.26,0.935,-25.45,-66.47,-21.21,0,3
15423.453,-0.015,0.238,0.917,-34.94,-73.24,-28.78,0,3
15423.468,0.036,0.213,0.901,-36.35,-74.16,-36.99,0,3
15423.484,0.097,0.221,0.904,-36.35,-71.96,-42.51,0,3
15423.484,0.135,0.208,0.907,-32.47,-68.24,-47.15,0,3
15423.5,0.155,0.22,0.887,-24.05,-62.62,-51.21,0,3
15423.515,0.172,0.262,0.872,-19.17,-55.85,-53.16,0,3
15423.515,0.193,0.271,0.866,-16.66,-47.88,-54.35,0,3
15423.531,0.213,0.284,0.862,-15.47,-40.41,-54.72,0,3
15423.546,0.234,0.305,0.861,-15.29,-33.54,-54.75,0,3
15423.546,0.253,0.326,0.859,-15.02,-26.98,-53.59,0,3
15423.562,0.271,0.339,0.858,-13.06,-20.54,-50.51,0,3
15423.562,0.271,0.334,0.866,-9.09,-14.62,-45.93,0,3
15423.578,0.269,0.335,0.87,-3.17,-10.8,-40.16,0,3
15423.593,0.265,0.314,0.867,13.92,-7.29,-28.72,0,3
15423.609,0.261,0.32,0.863,19.68,-5.92,-24.35,0,3
15423.609,0.262,0.31,0.84,23.71,-4.06,-21.39,0,3
15423.625,0.251,0.284,0.788,26.73,0.18,-19.14,0,3
15423.64,0.228,0.294,0.767,27.31,7.97,-17.33,0,3
15423.656,0.202,0.31,0.751,27.04,18.65,-15.78,0,3
15423.656,0.097,0.34,0.827,24.08,30.03,-14.47,0,3
15423.671,-0.026,0.54,1.014,1.65,26.67,-8.33,0,3
15423.671,0.043,0.479,1.06,-16.33,14.68,0.4,0,3
15423.687,-0.131,0.485,1.168,-26.0,5.37,0.73,0,3
15423.703,-0.059,0.546,1.246,-38.24,-12.54,11.69,0,3
15423.718,0.009,0.387,1.147,-26.95,-23.59,16.33,0,3
15423.718,0.033,0.315,1.074,-14.28,-25.88,14.92,0,3
15423.734,0.075,0.308,1.043,4.33,-21.3,11.96,0,3
15423.734,0.064,0.321,1.024,23.8,-16.51,8.67,0,3
15423.75,0.062,0.334,1.003,36.01,-15.56,9.0,0,3
15423.765,0.099,0.339,0.918,38.82,-22.71,11.32,0,3
15423.781,0.105,0.337,0.902,34.79,-24.6,10.53,0,3
15423.781,0.118,0.346,0.9,29.02,-26.52,9.0,0,3
15423.796,0.089,0.354,0.929,21.52,-29.6,6.74,0,3
15423.812,0.146,0.397,0.891,10.71,-35.16,6.81,0,3
15423.828,0.196,0.235,0.825,16.24,-29.21,6.16,0,3
15423.828,0.115,0.336,0.905,8.36,-24.14,3.97,0,3
15423.843,0.173,0.378,0.912,3.39,-23.77,4.91,0,3
15423.843,0.162,0.307,0.889,4.58,-20.72,3.85,0,3
15423.859,0.173,0.302,0.893,2.9,-16.17,3.2,0,3
15423.875,0.175,0.33,0.902,2.72,-11.17,2.01,0,3
15423.875,0.171,0.326,0.906,3.6,-6.23,1.01,0,3
15423.89,0.167,0.322,0.908,3.11,-1.86,-0.21,0,3
15423.906,0.169,0.333,0.913,1.68,1.92,-1.37,0,3
15423.906,0.167,0.338,0.914,0.0,4.97,-2.93,0,3
15423.921,0.161,0.332,0.912,-1.28,7.51,-3.81,0,3
15423.937,0.154,0.341,0.92,-3.3,9.8,-4.76,0,3
15423.953,0.145,0.341,0.927,-4.27,9.25,-4.3,0,3
15423.953,0.141,0.34,0.931,-4.94,7.32,-3.27,0,3
15423.968,0.137,0.34,0.934,-4.79,5.19,-2.29,0,3
15423.984,0.136,0.339,0.934,-4.43,3.51,-1.4,0,3
15423.984,0.137,0.339,0.935,-3.94,2.66,-1.07,0,3
15424.0,0.136,0.345,0.938,-3.23,2.56,-1.1,0,3
15424.0,0.14,0.346,0.936,-2.35,2.66,-1.25,0,3
15424.015,0.141,0.346,0.934,-1.56,2.9,-0.79,0,3
15424.031,0.14,0.347,0.937,-0.85,3.57,-0.89,0,3
15424.031,0.142,0.348,0.935,-0.43,3.88,-1.28,0,3
15424.046,0.143,0.346,0.927,-0.12,3.66,-1.31,0,3
15424.062,0.143,0.341,0.924,0.85,3.75,-1.16,0,3
15424.062,0.14,0.344,0.923,2.11,4.03,-0.82,0,3
15424.078,0.136,0.351,0.925,2.38,4.06,-0.49,0,3
15424.093,0.132,0.353,0.925,1.46,3.85,-0.7,0,3
15424.093,0.123,0.356,0.928,0.06,3.51,-1.16,0,3
15424.109,0.116,0.359,0.936,-4.03,0.89,-1.56,0,3
15424.125,0.114,0.353,0.935,-4.73,-0.43,-1.34,0,3
15424.125,0.114,0.344,0.934,-4.36,-1.5,-1.16,0,3
15424.14,0.111,0.342,0.936,-3.54,-1.95,-0.98,0,3
15424.14,0.113,0.333,0.932,-2.56,-2.08,-0.73,0,3
15424.156,0.116,0.333,0.929,-1.5,-2.2,-0.64,0,3
15424.171,0.12,0.334,0.924,-0.82,-2.11,-0.64,0,3
15424.171,0.125,0.335,0.92,-0.7,-2.01,-0.67,0,3
15424.187,0.13,0.33,0.914,-0.82,-2.14,-0.76,0,3
15424.203,0.133,0.331,0.908,-1.25,-2.44,-0.92,0,3
15424.203,0.132,0.329,0.909,-1.86,-2.93,-1.22,0,3
15424.218,0.131,0.319,0.91,-2.29,-3.63,-1.31,0,3
15424.234,0.128,0.312,0.919,-1.95,-4.39,-0.79,0,3
15424.234,0.127,0.318,0.917,0.18,-4.7,-0.09,0,3
15424.25,0.126,0.33,0.917,1.71,-4.21,-0.52,0,3
15424.25,0.125,0.34,0.923,0.4,-3.63,-1.43,0,3
15424.265,0.129,0.343,0.928,-1.74,-3.36,-2.38,0,3
15424.281,0.125,0.347,0.93,-3.97,-3.08,-3.42,0,3
15424.281,0.12,0.352,0.934,-6.07,-2.53,-3.6,0,3
15424.296,0.118,0.341,0.94,-6.65,-1.77,-2.69,0,3
15424.312,0.116,0.336,0.948,-5.4,-0.92,-1.4,0,3
15424.328,0.116,0.338,0.954,-2.96,-0.34,-0.24,0,3
15424.328,0.119,0.335,0.957,0.0,0.21,0.46,0,3
15424.343,0.115,0.337,0.954,2.14,0.31,0.52,0,3
15424.343,0.114,0.344,0.949,3.14,-0.24,0.64,0,3
15424.359,0.118,0.349,0.946,2.47,-1.86,0.49,0,3
15424.359,0.124,0.35,0.939,0.61,-3.85,0.03,0,3
15424.375,0.128,0.343,0.934,-1.74,-5.74,-0.15,0,3
15424.39,0.13,0.338,0.934,-3.42,-6.78,-0.12,0,3
15424.39,0.136,0.336,0.933,-4.0,-7.17,0.0,0,3
15424.406,0.142,0.326,0.928,-3.51,-7.29,-0.09,0,3
15424.421,0.148,0.321,0.925,-2.14,-7.2,0.0,0,3
15424.437,0.154,0.317,0.919,0.15,-6.35,0.18,0,3
15424.437,0.154,0.317,0.904,3.05,-4.73,0.24,0,3
15424.453,0.154,0.327,0.887,4.61,-0.31,-0.24,0,3
15424.468,0.151,0.333,0.887,3.6,1.43,-0.15,0,3
15424.484,0.16,0.321,0.874,3.27,2.9,0.06,0,3
15424.484,0.158,0.307,0.87,3.54,5.13,-1.16,0,3
15424.5,0.165,0.31,0.879,3.78,8.42,-1.74,0,3
15424.515,0.176,0.281,0.852,6.38,12.6,-2.78,0,3
15424.515,0.173,0.254,0.815,11.38,19.56,-5.62,0,3
15424.531,0.134,0.281,0.816,16.69,28.57,-7.84,0,3
15424.531,0.03,0.389,0.953,13.46,31.62,-7.81,0,3
15424.546,0.023,0.495,1.106,-9.4,13.89,-3.54,0,3
15424.562,0.089,0.381,1.023,-20.78,-7.87,-2.81,0,3
15424.562,0.097,0.255,0.96,-20.78,-14.31,-4.24,0,3
15424.578,0.042,0.376,1.037,-22.4,-16.11,-3.85,0,3
15424.593,0.136,0.336,1.016,-15.84,-19.75,-0.27,0,3
15424.593,0.101,0.284,0.966,-3.6,-16.27,-0.12,0,3
15424.609,0.133,0.326,0.959,3.36,-10.28,0.64,0,3
15424.625,0.113,0.34,0.938,12.57,0.34,-0.03,0,3
15424.64,0.119,0.361,0.923,12.33,1.89,0.92,0,3
15424.64,0.114,0.364,0.909,10.93,2.81,1.43,0,3
15424.656,0.107,0.368,0.91,9.03,3.94,0.95,0,3
15424.671,0.099,0.379,0.916,7.57,3.97,0.31,0,3
15424.687,0.095,0.381,0.928,5.4,2.26,0.49,0,3
15424.687,0.069,0.386,0.956,1.68,-0.92,1.4,0,3
15424.703,0.103,0.413,0.974,-6.04,-7.42,4.15,0,3
15424.703,0.147,0.294,0.9,-0.92,-8.76,5.4,0,3
15424.718,0.102,0.318,0.9,3.02,-4.49,4.46,0,3
15424.734,0.135,0.356,0.926,3.81,-2.11,5.58,0,3
15424.734,0.118,0.333,0.924,6.29,-1.8,5.34,0,3
15424.75,0.116,0.347,0.909,7.45,-2.41,6.68,0,3
15424.765,0.131,0.358,0.915,6.68,-2.93,7.2,0,3
15424.765,0.137,0.35,0.914,2.66,-4.58,6.47,0,3
15424.781,0.138,0.337,0.899,-0.49,-5.34,5.22,0,3
15424.796,0.145,0.326,0.907,-4.21,-3.02,3.33,0,3
15424.812,0.144,0.32,0.91,-4.94,-0.76,2.2,0,3
15424.812,0.143,0.316,0.912,-4.27,1.16,1.1,0,3
15424.828,0.136,0.319,0.915,-2.72,3.33,0.34,0,3
15424.843,0.13,0.325,0.922,-0.92,5.04,0.31,0,3
15424.843,0.126,0.328,0.932,0.82,5.4,0.67,0,3
15424.859,0.127,0.332,0.935,1.68,3.88,1.13,0,3
15424.875,0.132,0.331,0.928,2.01,1.62,1.28,0,3
15424.875,0.135,0.326,0.919,2.41,0.09,0.85,0,3
15424.89,0.132,0.331,0.916,2.72,0.64,0.4,0,3
15424.89,0.125,0.343,0.918,1.83,1.53,0.03,0,3
15424.906,0.124,0.341,0.921,0.37,1.28,-0.64,0,3
15424.921,0.124,0.347,0.926,-0.95,0.58,-1.07,0,3
15424.921,0.124,0.352,0.934,-2.38,-0.03,-1.28,0,3
15424.937,0.122,0.343,0.935,-2.99,-0.34,-1.19,0,3
15424.953,0.122,0.34,0.937,-2.32,-0.73,-0.73,0,3
15424.953,0.126,0.343,0.939,-0.98,-0.92,-0.18,0,3
15424.968,0.126,0.343,0.938,0.24,-0.95,0.12,0,3
15424.984,0.126,0.341,0.934,1.1,-0.67,0.24,0,3
15425.0,0.123,0.342,0.936,1.89,-0.58,0.43,0,3
15425.0,0.123,0.348,0.937,2.38,-1.04,0.61,0,3
15425.0,0.124,0.349,0.933,2.11,-1.53,0.52,0,3
15425.015,0.126,0.342,0.929,2.14,-1.71,0.49,0,3
15425.031,0.126,0.341,0.925,2.5,-1.74,0.58,0,3
15425.031,0.123,0.344,0.922,3.05,-1.43,0.76,0,3
15425.046,0.119,0.348,0.919,2.93,-0.92,0.7,0,3
15425.062,0.121,0.347,0.912,1.86,-0.7,0.27,0,3
15425.062,0.121,0.344,0.911,0.31,-0.7,0.06,0,3
15425.078,0.119,0.344,0.917,-1.34,-0.58,0.09,0,3
15425.093,0.121,0.342,0.92,-2.11,-0.12,-0.03,0,3
15425.093,0.121,0.337,0.924,-0.95,0.21,0.31,0,3
15425.109,0.12,0.337,0.929,0.46,0.21,0.73,0,3
15425.125,0.122,0.336,0.933,1.5,0.03,0.98,0,3
15425.125,0.125,0.335,0.928,1.98,-0.15,0.85,0,3
15425.14,0.125,0.334,0.924,3.45,0.03,0.24,0,3
15425.156,0.124,0.337,0.924,4.21,0.7,0.09,0,3
15425.171,0.124,0.34,0.919,5.01,1.53,-0.09,0,3
15425.171,0.121,0.35,0.919,4.7,2.26,-0.58,0,3
15425.187,0.121,0.354,0.918,3.39,2.53,-0.98,0,3
15425.203,0.12,0.353,0.916,2.2,2.44,-1.01,0,3
15425.203,0.118,0.355,0.913,1.19,2.26,-0.82,0,3
15425.218,0.115,0.351,0.918,0.46,2.04,-0.55,0,3
15425.234,0.112,0.347,0.923,0.37,1.37,-0.52,0,3
15425.234,0.109,0.35,0.923,0.82,0.49,-0.49,0,3
15425.25,0.11,0.352,0.926,1.01,-0.15,-0.43,0,3
15425.265,0.11,0.35,0.927,1.07,-0.64,-0.43,0,3
15425.265,0.115,0.353,0.927,1.01,-0.76,-0.49,0,3
15425.281,0.118,0.353,0.928,0.49,-0.31,-0.61,0,3
15425.281,0.12,0.35,0.928,0.0,0.03,-0.92,0,3
15425.296,0.122,0.348,0.928,0.0,0.15,-1.04,0,3
15425.312,0.119,0.346,0.927,1.5,0.0,-1.04,0,3
15425.328,0.119,0.347,0.927,2.2,-0.12,-0.79,0,3
15425.343,0.122,0.349,0.927,2.84,0.18,-0.67,0,3
15425.343,0.12,0.356,0.928,3.14,0.46,-0.67,0,3
15425.359,0.116,0.362,0.927,2.5,0.73,-0.82,0,3
15425.375,0.112,0.366,0.934,1.31,0.73,-0.92,0,3
15425.375,0.107,0.367,0.939,0.03,0.06,-0.85,0,3
15425.39,0.106,0.365,0.94,-0.58,-1.04,-0.46,0,3
15425.406,0.109,0.36,0.939,-0.52,-1.86,-0.09,0,3
15425.406,0.11,0.356,0.934,0.06,-2.56,0.31,0,3
15425.421,0.114,0.354,0.926,0.82,-2.81,0.7,0,3
15425.421,0.118,0.352,0.922,1.22,-2.59,1.19,0,3
15425.437,0.119,0.352,0.919,1.13,-2.08,1.31,0,3
15425.453,0.12,0.347,0.918,0.55,-1.71,1.01,0,3
15425.453,0.124,0.339,0.918,0.15,-1.53,0.89,0,3
15425.468,0.126,0.338,0.916,0.58,-1.25,0.82,0,3
15425.484,0.13,0.337,0.913,1.37,-0.76,0.43,0,3
15425.484,0.128,0.338,0.911,2.11,-0.27,-0.09,0,3
15425.5,0.123,0.341,0.914,2.53,0.12,-0.52,0,3
15425.515,0.118,0.352,0.917,2.78,0.34,-0.58,0,3
15425.515,0.116,0.356,0.92,2.59,0.09,-0.52,0,3
15425.531,0.11,0.36,0.922,1.98,-0.06,-0.55,0,3
15425.531,0.105,0.367,0.927,1.04,-0.18,-0.58,0,3
15425.546,0.103,0.369,0.93,0.06,-0.98,-0.27,0,3
15425.562,0.104,0.362,0.933,-0.52,-2.01,0.0,0,3
15425.562,0.113,0.358,0.93,0.0,-2.81,0.34,0,3
15425.578,0.118,0.355,0.925,1.31,-2.99,0.43,0,3
15425.593,0.121,0.357,0.917,2.62,-2.62,0.7,0,3
15425.593,0.123,0.354,0.912,3.39,-1.95,1.04,0,3
15425.609,0.128,0.351,0.911,3.27,-1.28,0.95,0,3
15425.625,0.128,0.349,0.909,2.96,-0.82,0.58,0,3
15425.625,0.127,0.342,0.912,3.42,-0.52,0.15,0,3
15425.64,0.126,0.345,0.912,4.24,-0.24,0.03,0,3
15425.64,0.123,0.354,0.912,4.79,-0.06,-0.34,0,3
15425.671,0.114,0.37,0.913,3.05,0.09,-1.01,0,3
15425.671,0.106,0.373,0.917,1.13,-0.52,-1.1,0,3
15425.687,0.106,0.376,0.926,-0.37,-1.4,-1.04,0,3
15425.703,0.109,0.375,0.928,-1.19,-2.08,-0.76,0,3
15425.703,0.11,0.368,0.93,-0.98,-2.2,-0.15,0,3
15425.718,0.114,0.364,0.928,0.21,-1.89,0.37,0,3
15425.734,0.119,0.361,0.925,1.34,-1.37,0.79,0,3
15425.734,0.121,0.355,0.923,1.98,-1.04,0.82,0,3
15425.75,0.123,0.353,0.923,2.11,-0.82,0.55,0,3
15425.75,0.119,0.352,0.92,1.92,-1.19,0.24,0,3
15425.765,0.119,0.353,0.919,1.5,-1.62,-0.12,0,3
15425.781,0.119,0.358,0.919,0.79,-1.92,-0.64,0,3
15425.781,0.113,0.365,0.922,0.37,-1.92,-1.04,0,3
15425.796,0.103,0.368,0.924,0.0,-1.68,-1.68,0,3
15425.812,0.098,0.378,0.931,-0.85,-1.28,-1.62,0,3
15425.812,0.097,0.383,0.937,-1.37,-1.07,-1.4,0,3
15425.843,0.094,0.385,0.945,-2.38,-3.27,0.03,0,3
15425.843,0.099,0.384,0.942,-2.9,-4.79,0.52,0,3
15425.859,0.105,0.374,0.942,-3.39,-6.41,0.98,0,3
15425.859,0.109,0.367,0.94,-3.72,-7.72,1.25,0,3
15425.875,0.113,0.365,0.946,-3.45,-8.51,1.25,0,3
15425.89,0.114,0.36,0.948,-2.29,-9.58,1.46,0,3
15425.89,0.118,0.355,0.953,-0.31,-10.8,2.11,0,3
15425.906,0.117,0.355,0.951,2.41,-12.15,2.66,0,3
15425.921,0.122,0.357,0.951,5.55,-13.73,3.3,0,3
15425.937,0.129,0.362,0.942,7.87,-15.69,3.97,0,3
15425.937,0.137,0.368,0.927,8.58,-17.49,3.91,0,3
15425.953,0.143,0.374,0.912,7.48,-18.13,3.42,0,3
15425.953,0.148,0.374,0.905,5.43,-18.52,2.96,0,3
15425.968,0.155,0.371,0.897,2.81,-18.59,2.59,0,3
15425.984,0.16,0.365,0.891,0.49,-18.04,2.17,0,3
15425.984,0.164,0.361,0.886,-1.46,-16.48,1.19,0,3
15426.0,0.17,0.362,0.881,-3.23,-14.1,-0.09,0,3
15426.015,0.171,0.361,0.877,-5.31,-11.84,-1.59,0,3
15426.015,0.168,0.356,0.875,-7.17,-9.7,-2.59,0,3
15426.031,0.168,0.347,0.876,-8.21,-8.36,-2.93,0,3
15426.031,0.169,0.338,0.877,-7.84,-7.39,-2.69,0,3
15426.046,0.164,0.337,0.89,-6.29,-7.08,-2.56,0,3
15426.062,0.156,0.341,0.899,-3.88,-8.0,-1.71,0,3
15426.062,0.155,0.347,0.903,-1.68,-10.16,-0.61,0,3
15426.078,0.166,0.355,0.902,1.31,-14.07,1.01,0,3
15426.093,0.183,0.359,0.893,1.92,-15.47,1.4,0,3
15426.109,0.19,0.354,0.884,2.84,-15.96,1.95,0,3
15426.109,0.201,0.334,0.855,3.11,-14.28,1.68,0,3
15426.125,0.197,0.35,0.857,1.83,-10.86,0.58,0,3
15426.125,0.196,0.348,0.861,-0.24,-6.81,-0.37,0,3
15426.14,0.192,0.338,0.87,-2.01,-2.66,-1.13,0,3
15426.14,0.186,0.328,0.885,-1.71,0.95,-1.31,0,3
15426.156,0.185,0.317,0.895,1.34,4.3,-1.37,0,3
15426.171,0.184,0.306,0.903,6.59,7.63,-1.98,0,3
15426.171,0.173,0.31,0.908,13.55,10.8,-2.81,0,3
15426.187,0.148,0.352,0.906,18.22,12.51,-3.27,0,3
15426.203,0.145,0.389,0.904,16.11,10.96,-3.6,0,3
15426.203,0.139,0.402,0.902,8.79,7.87,-4.36,0,3
15426.218,0.133,0.415,0.907,-1.62,4.82,-4.73,0,3
15426.234,0.138,0.417,0.922,-11.2,2.11,-5.28,0,3
15426.234,0.129,0.406,0.947,-16.69,0.18,-5.25,0,3
15426.25,0.114,0.402,0.973,-17.4,-1.25,-3.97,0,3
15426.265,0.102,0.411,0.99,-14.65,-3.72,-1.77,0,3
15426.265,0.106,0.407,0.991,-11.32,-7.45,0.31,0,3
15426.281,0.116,0.399,0.983,-9.89,-11.02,1.53,0,3
15426.281,0.128,0.389,0.967,-10.01,-14.28,2.32,0,3
15426.296,0.138,0.37,0.945,-10.25,-16.6,2.75,0,3
15426.312,0.149,0.354,0.93,-10.04,-17.46,2.99,0,3
15426.312,0.152,0.352,0.931,-8.64,-16.85,2.9,0,3
15426.328,0.152,0.35,0.933,-7.14,-16.33,2.59,0,3
15426.343,0.154,0.338,0.924,-4.7,-16.42,1.86,0,3
15426.343,0.157,0.332,0.912,-1.46,-16.21,1.5,0,3
15426.359,0.167,0.335,0.903,2.08,-15.56,1.19,0,3
15426.375,0.174,0.342,0.891,4.27,-14.62,0.06,0,3
15426.375,0.182,0.35,0.876,4.49,-13.67,-1.04,0,3
15426.39,0.183,0.362,0.871,2.99,-11.96,-1.56,0,3
15426.406,0.181,0.371,0.875,-0.27,-10.44,-1.62,0,3
15426.406,0.187,0.368,0.88,-4.88,-9.89,-1.19,0,3
15426.421,0.19,0.357,0.887,-8.76,-9.09,-0.92,0,3
15426.421,0.193,0.34,0.897,-10.44,-8.06,-0.98,0,3
15426.437,0.195,0.327,0.906,-10.04,-6.9,-1.07,0,3
15426.453,0.195,0.324,0.911,-7.93,-4.64,-1.62,0,3
15426.453,0.201,0.319,0.916,-4.67,-1.95,-2.5,0,3
15426.468,0.201,0.315,0.923,-0.34,1.01,-2.69,0,3
15426.484,0.203,0.314,0.926,4.39,3.6,-2.87,0,3
15426.484,0.209,0.318,0.928,7.97,6.04,-3.23,0,3
15426.5,0.214,0.292,0.907,12.24,9.13,-4.7,0,3
15426.515,0.188,0.273,0.905,17.3,12.79,-8.06,0,3
15426.515,0.169,0.353,0.993,11.29,11.78,-9.55,0,3
15426.531,0.204,0.353,0.976,6.16,7.26,-7.54,0,3
15426.531,0.227,0.308,0.906,6.07,7.39,-7.63,0,3
15426.546,0.271,0.243,0.887,11.26,15.63,-8.03,0,3
15426.562,0.117,0.367,0.991,14.01,21.33,-8.82,0,3
15426.578,0.144,0.449,1.05,11.29,14.22,-4.18,0,3
15426.578,0.128,0.39,1.044,16.57,4.15,-1.34,0,3
15426.593,0.096,0.407,1.012,20.91,-3.97,2.08,0,3
15426.593,0.114,0.399,0.966,27.83,-7.72,4.12,0,3
15426.609,0.1,0.37,0.928,34.94,-6.84,5.34,0,3
15426.625,0.081,0.39,0.925,39.74,-4.06,6.01,0,3
15426.625,0.041,0.428,0.942,43.12,-1.74,6.29,0,3
15426.64,-0.013,0.412,0.993,43.43,-1.68,7.29,0,3
15426.64,0.003,0.494,0.988,34.0,-7.54,7.97,0,3
15426.656,0.006,0.456,0.947,31.59,-5.43,10.28,0,3
15426.671,-0.091,0.495,1.016,25.57,-3.57,12.45,0,3
15426.671,-0.043,0.527,1.052,14.44,-10.62,17.15,0,3
15426.703,-0.011,0.393,1.036,1.83,-30.61,15.17,0,3
15426.703,0.021,0.382,1.011,2.84,-41.17,11.54,0,3
15426.718,0.051,0.373,0.971,6.32,-49.44,6.84,0,3
15426.734,0.073,0.358,0.923,10.62,-53.25,2.17,0,3
15426.734,0.092,0.357,0.884,15.56,-52.64,-1.37,0,3
15426.75,0.102,0.375,0.864,19.87,-48.59,-3.05,0,3
15426.765,0.107,0.386,0.853,23.71,-43.18,-3.23,0,3
15426.765,0.117,0.395,0.853,26.98,-37.6,-3.54,0,3
15426.781,0.108,0.426,0.87,30.46,-32.07,-4.49,0,3
15426.781,0.095,0.445,0.891,34.49,-28.05,-4.06,0,3
15426.796,0.092,0.449,0.908,39.31,-26.55,-1.71,0,3
15426.812,0.089,0.451,0.918,44.98,-27.86,1.77,0,3
15426.828,0.086,0.47,0.928,50.97,-30.76,4.58,0,3
15426.828,0.086,0.473,0.927,57.71,-33.88,6.87,0,3
15426.843,0.098,0.464,0.914,64.03,-36.81,8.82,0,3
15426.843,0.123,0.456,0.888,69.83,-38.39,9.61,0,3
15426.875,0.16,0.457,0.837,79.01,-34.88,6.5,0,3
15426.875,0.173,0.452,0.824,79.93,-31.01,3.6,0,3
15426.89,0.168,0.44,0.815,80.17,-27.28,1.92,0,3
15426.906,0.173,0.43,0.815,80.94,-24.66,1.74,0,3
15426.906,0.199,0.402,0.821,82.61,-23.16,2.01,0,3
15426.921,0.215,0.371,0.825,84.84,-22.74,1.59,0,3
15426.937,0.216,0.369,0.844,87.56,-23.56,-0.64,0,3
15426.937,0.225,0.358,0.863,91.37,-27.62,-3.85,0,3
15426.953,0.247,0.329,0.868,96.41,-34.91,-6.26,0,3
15426.953,0.28,0.326,0.852,101.35,-42.76,-9.64,0,3
15426.968,0.319,0.32,0.816,105.14,-49.84,-15.59,0,3
15426.984,0.347,0.316,0.77,106.33,-55.94,-23.87,0,3
15426.984,0.366,0.337,0.734,104.43,-60.76,-32.44,0,3
15427.0,0.383,0.356,0.698,100.34,-64.55,-39.77,0,3
15427.015,0.387,0.381,0.662,93.97,-67.08,-46.51,0,3
15427.015,0.371,0.436,0.659,86.03,-69.19,-52.74,0,3
15427.031,0.348,0.5,0.615,72.36,-80.87,-58.93,0,3
15427.046,0.352,0.528,0.585,66.19,-87.71,-60.27,0,3
15427.062,0.365,0.544,0.549,57.8,-99.34,-63.14,0,3
15427.078,0.392,0.548,0.504,53.77,-102.91,-64.64,0,3
15427.078,0.426,0.547,0.463,51.64,-104.31,-67.29,0,3
15427.093,0.45,0.541,0.413,51.33,-103.12,-71.14,0,3
15427.093,0.465,0.582,0.329,51.42,-99.06,-75.53,0,3
15427.109,0.445,0.645,0.304,49.9,-92.72,-79.59,0,3
15427.125,0.411,0.753,0.285,44.77,-84.41,-84.9,0,3
15427.125,0.376,0.882,0.263,34.76,-74.25,-93.05,0,3
15427.14,0.351,0.97,0.252,21.0,-62.53,-101.9,0,3
15427.156,0.298,1.043,0.271,6.53,-50.63,-106.17,0,3
15427.156,0.222,1.098,0.311,-3.69,-42.45,-101.47,0,3
15427.171,0.175,1.103,0.334,-7.48,-40.93,-86.28,0,3
15427.171,0.185,1.058,0.315,-6.99,-43.76,-65.37,0,3
15427.187,0.236,1.007,0.29,-4.85,-46.05,-45.59,0,3
15427.203,0.297,0.925,0.258,-2.35,-46.72,-32.38,0,3
15427.203,0.338,0.844,0.225,-2.29,-45.26,-26.58,0,3
15427.234,0.353,0.803,0.203,-5.25,-41.63,-27.22,0,3
15427.25,0.361,0.743,0.195,-8.18,-37.57,-31.59,0,3
15427.25,0.368,0.668,0.188,-9.28,-32.75,-35.74,0,3
15427.25,0.376,0.609,0.191,-8.48,-26.7,-38.51,0,3
15427.25,0.371,0.555,0.192,-4.3,-19.23,-41.6,0,3
15427.265,0.359,0.496,0.186,2.01,-11.72,-45.32,0,3
15427.281,0.347,0.426,0.172,10.32,-5.46,-49.71,0,3
15427.281,0.338,0.365,0.146,19.23,-0.31,-54.51,0,3
15427.296,0.331,0.309,0.105,27.56,5.4,-60.58,0,3
15427.312,0.314,0.262,0.073,32.99,12.24,-69.19,0,3
15427.312,0.274,0.292,0.058,34.82,22.46,-81.0,0,3
15427.328,0.191,0.459,0.082,29.88,38.73,-99.19,0,3
15427.343,0.088,0.576,0.128,19.65,56.15,-123.39,0,3
15427.343,-0.006,0.57,0.201,12.36,70.25,-140.26,0,3
15427.359,-0.117,0.603,0.304,17.33,79.1,-142.55,0,3
15427.375,-0.182,0.581,0.343,37.2,80.11,-133.12,0,3
15427.375,-0.196,0.575,0.347,62.26,78.55,-118.5,0,3
15427.39,-0.188,0.61,0.337,87.95,77.52,-109.35,0,3
15427.39,-0.191,0.654,0.306,108.86,78.25,-111.7,0,3
15427.406,-0.208,0.668,0.285,121.65,78.95,-124.88,0,3
15427.421,-0.21,0.615,0.257,133.24,79.01,-142.25,0,3
15427.421,-0.236,0.63,0.228,147.19,82.0,-158.7,0,3
15427.437,-0.277,0.671,0.184,164.34,88.38,-177.56,0,3
15427.453,-0.32,0.688,0.139,183.14,96.96,-198.22,0,3
15427.453,-0.423,0.798,0.114,201.64,106.97,-214.27,0,3
15427.468,-0.521,0.913,0.093,217.41,112.37,-223.46,0,3
15427.484,-0.589,0.983,0.049,226.91,111.91,-224.95,0,3
15427.484,-0.652,1.059,-0.006,228.49,108.46,-220.53,0,3
15427.5,-0.686,1.103,-0.047,223.09,101.5,-216.13,0,3
15427.515,-0.701,1.103,-0.083,214.15,91.31,-212.93,0,3
15427.515,-0.724,1.099,-0.116,205.11,79.5,-210.27,0,3
15427.546,-0.686,1.002,-0.165,195.29,56.46,-197.97,0,3
15427.546,-0.671,0.955,-0.205,197.73,47.85,-186.74,0,3
15427.562,-0.663,0.909,-0.24,202.8,41.35,-174.38,0,3
15427.578,-0.656,0.884,-0.268,207.19,36.47,-162.45,0,3
15427.578,-0.637,0.844,-0.297,207.19,32.23,-151.19,0,3
15427.593,-0.647,0.818,-0.308,202.0,29.42,-143.41,0,3
15427.593,-0.662,0.807,-0.327,191.66,26.03,-138.86,0,3
15427.609,-0.725,0.791,-0.341,176.12,21.42,-137.67,0,3
15427.625,-0.84,0.811,-0.336,158.76,13.67,-141.61,0,3
15427.625,-0.918,0.855,-0.337,141.48,-2.23,-145.85,0,3
15427.64,-0.927,0.863,-0.35,122.14,-24.29,-143.71,0,3
15427.64,-0.904,0.86,-0.36,100.01,-46.45,-133.73,0,3
15427.656,-0.876,0.835,-0.362,77.67,-65.58,-119.27,0,3
15427.671,-0.853,0.787,-0.362,56.79,-79.84,-104.92,0,3
15427.687,-0.806,0.725,-0.355,37.9,-87.8,-92.99,0,3
15427.687,-0.767,0.653,-0.335,22.58,-89.57,-83.59,0,3
15427.703,-0.737,0.575,-0.303,12.91,-86.0,-77.43,0,3
15427.703,-0.724,0.505,-0.281,8.58,-78.62,-73.89,0,3
15427.718,-0.774,0.449,-0.265,6.84,-70.28,-73.89,0,3
15427.734,-0.87,0.421,-0.259,7.9,-65.31,-81.91,0,3
15427.734,-0.971,0.421,-0.275,10.1,-66.81,-95.19,0,3
15427.75,-1.048,0.47,-0.301,10.65,-74.19,-109.68,0,3
15427.75,-1.059,0.539,-0.333,6.35,-84.35,-120.37,0,3
15427.765,-1.063,0.604,-0.364,-5.28,-93.33,-123.75,0,3
15427.781,-1.058,0.639,-0.378,-23.29,-99.46,-119.36,0,3
15427.781,-1.05,0.632,-0.374,-44.04,-102.45,-109.56,0,3
15427.796,-1.033,0.586,-0.352,-63.6,-102.51,-97.51,0,3
15427.812,-1.003,0.517,-0.313,-76.48,-97.69,-85.7,0,3
15427.828,-0.975,0.438,-0.266,-80.14,-87.01,-74.56,0,3
15427.828,-0.949,0.365,-0.214,-75.53,-73.18,-65.1,0,3
15427.843,-0.934,0.291,-0.175,-63.42,-59.14,-58.99,0,3
15427.843,-0.92,0.224,-0.151,-46.66,-45.72,-55.36,0,3
15427.875,-0.94,0.168,-0.136,-12.36,-24.84,-57.77,0,3
15427.875,-0.963,0.178,-0.146,0.12,-18.31,-62.32,0,3
15427.89,-0.993,0.216,-0.168,7.11,-14.83,-67.51,0,3
15427.906,-1.025,0.263,-0.193,7.69,-13.79,-73.27,0,3
15427.906,-1.053,0.297,-0.211,1.89,-14.65,-78.89,0,3
15427.921,-1.068,0.337,-0.241,-10.56,-16.36,-81.67,0,3
15427.921,-1.064,0.402,-0.275,-29.21,-17.33,-79.56,0,3
15427.937,-1.054,0.468,-0.297,-53.1,-16.69,-74.25,0,3
15427.953,-1.06,0.497,-0.306,-80.54,-13.76,-68.33,0,3
15427.953,-1.088,0.49,-0.305,-111.21,-11.26,-63.81,0,3
15427.968,-1.106,0.475,-0.283,-143.1,-11.72,-61.43,0,3
15427.984,-1.124,0.475,-0.252,-171.76,-16.17,-60.0,0,3
15427.984,-1.131,0.478,-0.226,-194.71,-23.26,-57.22,0,3
15428.0,-1.123,0.481,-0.2,-212.81,-30.98,-53.13,0,3
15428.015,-1.131,0.475,-0.167,-224.77,-37.35,-49.23,0,3
15428.015,-1.14,0.456,-0.132,-229.38,-40.44,-44.04,0,3
15428.031,-1.088,0.399,-0.04,-200.96,-31.31,-17.85,0,3
15428.046,-1.073,0.366,-0.008,-178.66,-23.65,-7.11,0,3
15428.062,-1.073,0.326,0.014,-155.28,-16.11,3.02,0,3
15428.062,-1.042,0.304,0.027,-133.46,-8.18,9.7,0,3
15428.078,-0.977,0.282,0.063,-111.91,2.2,12.18,0,3
15428.093,-0.986,0.267,0.074,-92.07,13.98,13.86,0,3
15428.093,-0.988,0.273,0.089,-75.72,24.66,15.41,0,3
15428.109,-0.994,0.262,0.101,-61.77,33.6,16.36,0,3
15428.125,-1.001,0.242,0.106,-49.87,40.83,18.07,0,3
15428.125,-1.005,0.235,0.115,-40.47,45.29,19.78,0,3
15428.14,-1.005,0.227,0.119,-33.51,47.0,20.14,0,3
15428.156,-0.996,0.214,0.118,-29.79,46.39,19.5,0,3
15428.156,-0.983,0.213,0.121,-29.05,43.55,17.55,0,3
15428.171,-0.978,0.21,0.119,-29.3,39.12,14.34,0,3
15428.171,-0.971,0.205,0.121,-30.21,34.21,11.05,0,3
15428.187,-0.955,0.203,0.126,-31.07,29.05,7.69,0,3
15428.203,-0.945,0.203,0.129,-31.19,23.93,3.85,0,3
15428.203,-0.948,0.198,0.131,-29.6,19.01,0.27,0,3
15428.218,-0.947,0.199,0.133,-27.13,14.22,-2.56,0,3
15428.234,-0.947,0.203,0.134,-23.87,9.55,-4.61,0,3
15428.234,-0.951,0.202,0.13,-19.62,5.37,-6.23,0,3
15428.25,-0.954,0.202,0.122,-15.44,1.53,-7.72,0,3
15428.265,-0.957,0.207,0.113,-11.6,-1.92,-9.58,0,3
15428.265,-0.959,0.22,0.102,-8.21,-4.82,-11.66,0,3
15428.281,-0.961,0.236,0.09,-6.23,-6.93,-13.31,0,3
15428.281,-0.969,0.248,0.077,-5.49,-8.55,-14.01,0,3
15428.296,-0.97,0.252,0.063,-5.55,-9.98,-13.43,0,3
15428.312,-0.962,0.258,0.057,-6.38,-10.65,-11.99,0,3
15428.312,-0.96,0.261,0.051,-7.08,-10.44,-10.9,0,3
15428.328,-0.967,0.254,0.048,-7.29,-9.98,-10.65,0,3
15428.343,-0.976,0.245,0.045,-6.56,-9.52,-10.44,0,3
15428.343,-0.981,0.242,0.042,-4.91,-9.19,-9.95,0,3
15428.359,-0.982,0.243,0.038,-2.96,-8.97,-9.43,0,3
15428.375,-0.982,0.246,0.032,-1.01,-9.0,-9.13,0,3
15428.375,-0.978,0.249,0.027,0.49,-8.94,-8.79,0,3
15428.39,-0.971,0.251,0.022,1.28,-8.94,-8.3,0,3
15428.39,-0.965,0.252,0.016,2.04,-8.85,-7.54,0,3
15428.406,-0.961,0.249,0.012,2.93,-8.76,-6.44,0,3
15428.421,-0.954,0.246,0.009,4.12,-8.7,-5.19,0,3
15428.421,-0.944,0.244,0.005,5.52,-8.36,-4.18,0,3
15428.437,-0.936,0.241,-0.001,6.38,-7.6,-3.81,0,3
15428.453,-0.928,0.243,-0.003,6.5,-7.05,-4.18,0,3
15428.453,-0.925,0.245,-0.007,5.77,-6.93,-4.79,0,3
15428.468,-0.932,0.242,-0.014,4.39,-7.35,-5.16,0,3
15428.484,-0.935,0.24,-0.019,2.01,-7.97,-4.94,0,3
15428.484,-0.933,0.241,-0.023,-1.28,-8.64,-4.09,0,3
15428.5,-0.931,0.236,-0.028,-4.76,-9.09,-3.39,0,3
15428.515,-0.926,0.226,-0.026,-8.0,-8.64,-3.02,0,3
15428.515,-0.918,0.217,-0.024,-10.71,-7.63,-3.33,0,3
15428.531,-0.914,0.208,-0.024,-12.39,-5.95,-4.27,0,3
15428.531,-0.916,0.205,-0.018,-13.03,-3.63,-5.19,0,3
15428.546,-0.923,0.202,-0.015,-12.94,-1.1,-5.74,0,3
15428.562,-0.928,0.201,-0.009,-12.54,1.56,-5.4,0,3
15428.562,-0.929,0.202,-0.006,-11.69,3.94,-4.82,0,3
15428.578,-0.933,0.201,0.001,-10.99,5.98,-4.27,0,3
15428.593,-0.939,0.197,0.005,-10.68,7.23,-3.85,0,3
15428.593,-0.947,0.195,0.007,-11.2,7.63,-3.39,0,3
15428.609,-0.955,0.193,0.011,-11.9,7.11,-2.84,0,3
15428.625,-0.96,0.191,0.013,-13.18,6.04,-2.35,0,3
15428.625,-0.964,0.187,0.012,-14.92,5.28,-1.83,0,3
15428.64,-0.969,0.183,0.016,-16.97,4.91,-1.37,0,3
15428.64,-0.972,0.177,0.021,-18.92,5.22,-0.95,0,3
15428.656,-0.976,0.165,0.028,-20.29,5.65,-0.34,0,3
15428.671,-0.98,0.152,0.032,-20.69,6.07,0.49,0,3
15428.687,-0.985,0.141,0.039,-20.08,6.65,0.79,0,3
15428.687,-0.991,0.131,0.043,-18.31,7.29,0.61,0,3
15428.703,-0.997,0.125,0.046,-16.27,7.9,0.37,0,3
15428.703,-0.999,0.127,0.049,-14.53,8.39,0.03,0,3
15428.718,-0.998,0.13,0.052,-13.73,8.88,-0.58,0,3
15428.734,-0.998,0.134,0.053,-13.98,9.19,-1.22,0,3
15428.734,-0.998,0.135,0.06,-14.68,9.37,-1.62,0,3
15428.75,-0.995,0.131,0.064,-15.5,9.4,-1.71,0,3
15428.765,-0.989,0.13,0.071,-16.24,9.13,-1.59,0,3
15428.765,-0.983,0.129,0.079,-16.54,8.79,-1.68,0,3
15428.781,-0.98,0.123,0.081,-16.3,8.24,-1.71,0,3
15428.781,-0.978,0.118,0.087,-15.44,7.35,-1.46,0,3
15428.796,-0.973,0.113,0.091,-14.13,6.44,-1.22,0,3
15428.812,-0.97,0.109,0.091,-12.39,5.55,-1.43,0,3
15428.812,-0.972,0.107,0.088,-10.28,4.24,-1.98,0,3
15428.828,-0.976,0.108,0.087,-8.55,2.93,-2.75,0,3
15428.843,-0.976,0.112,0.083,-6.87,1.56,-3.3,0,3
15428.843,-0.979,0.114,0.078,-5.62,0.09,-3.78,0,3
15428.859,-0.983,0.118,0.071,-4.94,-1.56,-4.09,0,3
15428.859,-0.986,0.12,0.063,-4.7,-3.36,-4.33,0,3
15428.89,-0.986,0.121,0.047,-4.64,-6.32,-4.21,0,3
15428.89,-0.988,0.12,0.043,-4.43,-7.02,-3.97,0,3
15428.906,-0.981,0.123,0.038,-4.15,-7.32,-3.85,0,3
15428.921,-0.974,0.125,0.031,-3.54,-7.02,-3.97,0,3
15428.921,-0.972,0.123,0.028,-2.9,-6.41,-4.06,0,3
15428.937,-0.973,0.123,0.027,-1.8,-5.65,-4.03,0,3
15428.953,-0.972,0.123,0.026,-0.52,-5.04,-3.57,0,3
15428.953,-0.971,0.122,0.022,0.98,-4.21,-3.14,0,3
15428.968,-0.97,0.127,0.018,2.47,-3.36,-2.78,0,3
15428.984,-0.971,0.13,0.016,3.39,-2.56,-2.72,0,3
15428.984,-0.972,0.134,0.013,3.6,-1.74,-3.02,0,3
15429.0,-0.973,0.138,0.01,3.3,-1.28,-3.11,0,3
15429.015,-0.974,0.142,0.012,2.56,-1.04,-2.99,0,3
15429.015,-0.977,0.146,0.014,1.86,-0.85,-2.84,0,3
15429.031,-0.977,0.147,0.015,0.85,-0.4,-1.83,0,3
15429.031,-0.981,0.149,0.013,0.95,0.06,-1.01,0,3
15429.062,-0.987,0.145,0.017,2.26,1.07,0.82,0,3
15429.062,-0.986,0.143,0.02,3.42,1.34,1.22,0,3
15429.078,-0.985,0.142,0.019,4.58,1.5,1.53,0,3
15429.093,-0.986,0.146,0.019,5.43,1.8,1.65,0,3
15429.093,-0.988,0.151,0.018,5.68,2.11,1.31,0,3
15429.109,-0.992,0.155,0.019,5.25,2.2,1.04,0,3
15429.125,-0.996,0.156,0.014,4.46,1.95,1.07,0,3
15429.125,-1.006,0.159,0.012,3.54,1.4,1.19,0,3
15429.14,-1.014,0.157,0.013,2.84,0.73,1.53,0,3
15429.156,-1.022,0.156,0.01,2.53,-0.03,2.04,0,3
15429.156,-1.028,0.15,0.002,2.99,-0.7,2.56,0,3
15429.171,-1.026,0.145,-0.004,4.0,-1.71,3.33,0,3
15429.171,-1.013,0.143,-0.013,5.34,-2.5,3.88,0,3
15429.187,-0.994,0.142,-0.026,6.59,-2.56,3.78,0,3
15429.203,-0.972,0.15,-0.033,6.93,-1.34,2.78,0,3
15429.203,-0.952,0.158,-0.034,6.16,1.5,1.31,0,3
15429.218,-0.934,0.166,-0.03,4.18,5.22,0.18,0,3
15429.234,-0.914,0.177,-0.021,0.64,9.13,-0.73,0,3
15429.234,-0.901,0.185,-0.01,-4.73,12.82,-1.86,0,3
15429.25,-0.904,0.18,0.016,-11.32,16.63,-3.08,0,3
15429.265,-0.909,0.177,0.055,-17.61,19.84,-4.91,0,3
15429.265,-0.928,0.223,0.095,-22.71,21.42,-6.93,0,3
15429.281,-0.933,0.208,0.08,-20.05,23.22,-7.23,0,3
15429.281,-0.971,0.166,0.118,-22.74,22.28,-6.74,0,3
15429.296,-0.987,0.218,0.149,-23.99,18.59,-3.85,0,3
15429.312,-0.994,0.215,0.131,-19.38,13.67,-2.53,0,3
15429.312,-1.03,0.173,0.13,-16.33,9.28,-0.82,0,3
15429.328,-1.036,0.206,0.125,-14.44,2.81,1.37,0,3
15429.343,-1.028,0.19,0.126,-13.34,-5.71,3.08,0,3
15429.343,-1.046,0.196,0.113,-14.56,-13.92,4.06,0,3
15429.359,-1.049,0.201,0.091,-13.49,-21.82,6.29,0,3
15429.375,-1.041,0.188,0.074,-12.39,-28.23,9.22,0,3
15429.375,-1.039,0.198,0.06,-12.15,-32.72,10.77,0,3
15429.39,-1.015,0.178,0.03,-9.06,-33.48,14.77,0,3
15429.406,-0.988,0.173,0.026,-6.53,-29.79,18.65,0,3
15429.421,-0.952,0.178,0.028,-0.95,-24.54,20.63,0,3
15429.437,-0.94,0.166,0.028,6.68,-17.15,21.49,0,3
15429.437,-0.926,0.156,0.032,13.86,-10.13,22.28,0,3
15429.453,-0.91,0.159,0.03,20.23,-4.58,22.68,0,3
15429.453,-0.903,0.164,0.025,25.12,-0.73,22.86,0,3
15429.468,-0.899,0.164,0.018,27.5,0.85,23.26,0,3
15429.484,-0.891,0.162,0.009,27.59,1.01,24.08,0,3
15429.5,-0.89,0.164,0.006,25.79,0.21,24.38,0,3
15429.5,-0.893,0.152,-0.0,22.31,-1.16,23.87,0,3
15429.5,-0.896,0.142,-0.004,18.01,-2.26,22.89,0,3
15429.515,-0.89,0.134,-0.003,14.01,-2.96,21.55,0,3
15429.531,-0.886,0.121,-0.007,11.41,-3.36,20.11,0,3
15429.546,-0.879,0.11,-0.008,10.19,-3.78,18.49,0,3
15429.546,-0.876,0.107,-0.015,10.28,-4.12,16.51,0,3
15429.562,-0.878,0.107,-0.022,11.14,-4.27,14.5,0,3
15429.562,-0.878,0.108,-0.03,11.35,-3.94,12.36,0,3
15429.578,-0.888,0.113,-0.035,10.5,-2.93,10.04,0,3
15429.593,-0.911,0.116,-0.037,8.67,-1.4,7.9,0,3
15429.593,-0.933,0.118,-0.033,6.38,-0.27,5.83,0,3
15429.609,-0.938,0.123,-0.029,4.67,0.55,4.52,0,3
15429.625,-0.932,0.13,-0.021,4.12,1.77,3.69,0,3
15429.625,-0.919,0.141,-0.013,4.64,3.08,2.84,0,3
15429.64,-0.908,0.156,-0.004,6.13,4.61,2.17,0,3
15429.64,-0.899,0.166,0.007,8.73,6.44,2.29,0,3
15429.656,-0.889,0.178,0.018,12.42,8.45,2.14,0,3
15429.671,-0.885,0.198,0.026,17.73,11.08,1.77,0,3
15429.671,-0.892,0.21,0.035,25.15,14.31,1.5,0,3
15429.687,-0.898,0.218,0.04,34.7,17.49,1.83,0,3
15429.703,-0.907,0.229,0.04,47.06,20.75,2.59,0,3
15429.703,-0.92,0.242,0.033,60.46,23.9,4.0,0,3
15429.718,-0.937,0.258,0.02,73.24,25.91,5.55,0,3
15429.734,-0.956,0.274,0.001,83.83,26.49,7.02,0,3
15429.734,-0.97,0.291,-0.023,90.33,25.3,8.42,0,3
15429.75,-0.98,0.306,-0.046,92.01,22.55,9.34,0,3
15429.75,-0.987,0.319,-0.067,88.84,18.74,9.83,0,3
15429.765,-0.986,0.327,-0.082,81.24,14.86,9.92,0,3
15429.781,-0.984,0.331,-0.096,70.62,11.51,9.16,0,3
15429.781,-0.988,0.325,-0.098,58.69,8.91,8.27,0,3
15429.796,-0.988,0.313,-0.099,47.7,6.07,7.26,0,3
15429.812,-0.988,0.301,-0.095,39.16,2.9,6.23,0,3
15429.828,-0.985,0.287,-0.094,33.48,0.4,5.83,0,3
15429.828,-0.974,0.282,-0.092,29.88,-0.79,5.65,0,3
15429.843,-0.965,0.271,-0.088,27.86,-0.95,5.25,0,3
15429.843,-0.96,0.27,-0.088,26.03,-0.49,4.46,0,3
15429.859,-0.952,0.267,-0.085,23.9,0.67,3.85,0,3
15429.875,-0.951,0.254,-0.08,21.67,2.29,3.33,0,3
15429.875,-0.95,0.241,-0.07,19.84,3.39,2.93,0,3
15429.89,-0.936,0.229,-0.061,18.71,3.69,2.04,0,3
15429.906,-0.928,0.216,-0.057,18.04,3.75,0.7,0,3
15429.906,-0.924,0.208,-0.051,18.22,3.33,-0.98,0,3
15429.921,-0.918,0.188,-0.048,19.01,2.96,-2.01,0,3
15429.921,-0.907,0.189,-0.042,19.75,2.99,-3.81,0,3
15429.937,-0.91,0.196,-0.039,20.11,3.11,-7.75,0,3
15429.953,-0.92,0.191,-0.037,18.77,3.27,-11.84,0,3
15429.968,-0.93,0.199,-0.031,15.32,3.2,-15.66,0,3
15429.968,-0.94,0.208,-0.022,10.74,2.59,-19.59,0,3
15429.984,-0.946,0.214,-0.016,5.37,1.31,-23.5,0,3
15429.984,-0.957,0.228,-0.005,-0.34,-1.04,-27.04,0,3
15430.0,-0.968,0.246,0.005,-6.62,-4.06,-29.66,0,3
15430.015,-0.985,0.255,0.013,-17.27,-11.87,-32.59,0,3
15430.015,-0.994,0.254,0.017,-20.17,-15.5,-33.57,0,3
15430.031,-0.99,0.26,0.018,-21.33,-18.01,-34.55,0,3
15430.031,-0.997,0.269,0.013,-21.24,-19.41,-35.28,0,3
15430.046,-1.003,0.273,0.009,-20.51,-19.71,-35.71,0,3
15430.062,-1.014,0.278,0.006,-19.56,-19.07,-35.62,0,3
15430.078,-1.031,0.28,0.006,-18.65,-18.07,-34.94,0,3
15430.078,-1.054,0.274,0.005,-17.7,-17.33,-33.88,0,3
15430.093,-1.072,0.27,0.004,-16.91,-17.64,-32.32,0,3
15430.093,-1.078,0.271,0.004,-16.48,-18.83,-30.7,0,3
15430.109,-1.087,0.276,-0.0,-16.51,-20.36,-29.15,0,3
15430.125,-1.105,0.271,-0.007,-17.15,-21.97,-27.04,0,3
15430.125,-1.123,0.261,-0.008,-17.58,-23.22,-24.41,0,3
15430.14,-1.139,0.249,-0.008,-17.27,-24.17,-21.85,0,3
15430.14,-1.145,0.221,-0.01,-15.59,-24.93,-18.74,0,3
15430.156,-1.155,0.189,-0.012,-11.78,-24.99,-15.63,0,3
15430.171,-1.164,0.159,-0.02,-6.16,-25.3,-13.0,0,3
15430.187,-1.181,0.134,-0.034,0.21,-25.88,-11.11,0,3
15430.187,-1.199,0.112,-0.042,5.92,-26.12,-9.58,0,3
15430.203,-1.204,0.101,-0.055,9.31,-25.85,-8.67,0,3
15430.203,-1.197,0.092,-0.066,10.47,-25.51,-8.91,0,3
15430.218,-1.19,0.081,-0.072,10.01,-24.87,-9.92,0,3
15430.234,-1.177,0.07,-0.074,9.0,-24.05,-10.93,0,3
15430.234,-1.155,0.062,-0.071,8.24,-23.04,-11.47,0,3
15430.25,-1.128,0.056,-0.068,7.87,-21.97,-11.66,0,3
15430.265,-1.102,0.053,-0.065,8.0,-20.78,-12.18,0,3
15430.265,-1.078,0.052,-0.064,8.33,-19.96,-12.67,0,3
15430.281,-1.058,0.056,-0.065,7.93,-19.81,-13.09,0,3
15430.296,-1.047,0.052,-0.062,6.9,-19.56,-13.86,0,3
15430.296,-1.037,0.047,-0.06,4.97,-19.26,-15.26,0,3
15430.312,-1.02,0.053,-0.057,1.62,-18.07,-17.79,0,3
15430.312,-0.998,0.064,-0.05,-3.02,-15.66,-21.06,0,3
15430.328,-0.993,0.076,-0.046,-8.39,-12.73,-24.87,0,3
15430.343,-0.99,0.087,-0.04,-14.22,-10.32,-27.89,0,3
15430.343,-0.989,0.093,-0.036,-19.78,-8.82,-29.36,0,3
15430.359,-0.989,0.102,-0.034,-24.54,-8.24,-28.93,0,3
15430.375,-0.991,0.104,-0.032,-28.26,-8.48,-27.04,0,3
15430.375,-0.995,0.101,-0.029,-30.37,-9.25,-24.35,0,3
15430.39,-0.998,0.096,-0.025,-31.19,-9.46,-21.76,0,3
15430.406,-1.003,0.09,-0.018,-31.16,-9.16,-19.1,0,3
15430.406,-1.007,0.081,-0.013,-30.12,-8.15,-15.9,0,3
15430.421,-1.005,0.071,-0.008,-28.84,-6.9,-12.94,0,3
15430.421,-0.998,0.055,-0.003,-27.44,-5.65,-10.53,0,3
15430.437,-1.007,0.044,0.002,-25.88,-4.06,-8.73,0,3
15430.453,-1.022,0.041,0.005,-24.48,-2.96,-7.39,0,3
15430.453,-1.045,0.042,0.01,-23.56,-2.5,-6.16,0,3
15430.468,-1.069,0.043,0.015,-23.38,-3.02,-4.88,0,3
15430.484,-1.092,0.037,0.012,-23.74,-4.52,-3.45,0,3
15430.484,-1.106,0.026,0.016,-24.48,-6.23,-1.68,0,3
15430.5,-1.101,0.016,0.021,-24.14,-7.2,-0.27,0,3
15430.515,-1.101,0.024,0.022,-22.22,-7.2,-1.83,0,3
15430.515,-1.116,0.012,0.017,-19.71,-6.53,-3.97,0,3
15430.531,-1.123,0.005,0.014,-17.52,-5.43,-3.72,0,3
15430.546,-1.116,0.019,0.004,-14.37,-4.36,-3.48,0,3
15430.546,-1.11,0.026,-0.004,-10.74,-3.02,-4.0,0,3
15430.562,-1.102,0.034,-0.008,-8.58,-1.22,-3.66,0,3
15430.562,-1.092,0.042,-0.01,-7.87,0.98,-2.59,0,3
15430.578,-1.084,0.041,-0.007,-8.21,3.3,-0.76,0,3
15430.593,-1.072,0.035,-0.001,-9.4,5.52,1.4,0,3
15430.593,-1.061,0.031,0.01,-11.41,7.6,3.39,0,3
15430.609,-1.049,0.025,0.021,-14.19,9.37,5.01,0,3
15430.625,-1.04,0.025,0.032,-17.52,10.35,6.16,0,3
15430.625,-1.04,0.03,0.041,-21.36,9.92,7.02,0,3
15430.64,-1.048,0.024,0.048,-25.88,7.87,8.06,0,3
15430.64,-1.059,0.009,0.052,-30.37,5.28,9.0,0,3
15430.656,-1.047,-0.013,0.059,-34.24,3.08,9.19,0,3
15430.671,-1.032,-0.029,0.063,-35.92,2.29,8.48,0,3
15430.671,-1.023,-0.046,0.064,-35.0,2.69,7.11,0,3
15430.687,-1.01,-0.053,0.063,-32.35,3.91,5.34,0,3
15430.703,-0.999,-0.056,0.062,-28.96,5.92,3.69,0,3
15430.703,-0.992,-0.052,0.062,-25.91,8.33,1.83,0,3
15430.718,-0.982,-0.043,0.062,-24.14,11.41,-0.24,0,3
15430.734,-0.994,-0.035,0.067,-23.83,14.92,-2.99,0,3
15430.734,-1.008,-0.028,0.08,-25.15,17.21,-6.04,0,3
15430.75,-1.013,-0.021,0.099,-27.1,16.79,-8.36,0,3
15430.765,-1.012,-0.011,0.113,-28.99,13.58,-9.46,0,3
15430.765,-0.994,-0.006,0.119,-31.56,8.03,-9.52,0,3
15430.781,-0.965,-0.0,0.125,-34.61,1.74,-9.83,0,3
15430.781,-0.936,-0.005,0.128,-37.26,-3.81,-10.77,0,3
15430.796,-0.917,-0.009,0.125,-38.36,-7.35,-11.96,0,3
15430.812,-0.901,-0.005,0.124,-38.54,-9.09,-12.82,0,3
15430.812,-0.889,-0.003,0.124,-37.84,-9.13,-12.88,0,3
15430.828,-0.877,-0.002,0.125,-36.65,-7.14,-11.81,0,3
15430.843,-0.86,-0.008,0.13,-34.97,-4.18,-9.98,0,3
15430.843,-0.845,-0.017,0.133,-31.77,-0.92,-8.3,0,3
15430.859,-0.83,-0.021,0.133,-27.41,2.17,-7.29,0,3
15430.875,-0.809,-0.022,0.136,-21.76,4.46,-6.93,0,3
15430.875,-0.799,-0.02,0.137,-15.72,6.41,-7.2,0,3
15430.89,-0.805,-0.012,0.135,-10.28,7.9,-7.45,0,3
15430.906,-0.817,0.0,0.137,-6.74,8.79,-7.66,0,3
15430.906,-0.83,0.013,0.141,-5.31,8.85,-7.63,0,3
15430.921,-0.843,0.019,0.144,-5.83,8.06,-7.26,0,3
15430.921,-0.85,0.021,0.146,-7.81,6.1,-6.81,0,3
15430.937,-0.853,0.017,0.143,-9.52,3.51,-6.53,0,3
15430.953,-0.855,0.014,0.142,-10.13,0.85,-6.74,0,3
15430.953,-0.85,0.015,0.139,-9.64,-1.46,-7.39,0,3
15430.968,-0.847,0.017,0.129,-7.63,-2.96,-7.97,0,3
15430.984,-0.85,0.024,0.121,-4.67,-3.42,-8.45,0,3
15430.984,-0.851,0.033,0.116,2.69,-2.78,-8.09,0,3
15431.0,-0.846,0.04,0.107,6.53,-2.17,-6.96,0,3
15431.015,-0.844,0.049,0.099,10.19,-1.65,-5.31,0,3
15431.015,-0.836,0.06,0.09,13.37,-1.13,-3.3,0,3
15431.031,-0.845,0.066,0.071,15.66,-0.49,-1.74,0,3
15431.031,-0.853,0.064,0.064,16.48,-0.15,-0.46,0,3
15431.046,-0.856,0.062,0.057,15.69,-0.09,0.43,0,3
15431.062,-0.863,0.059,0.053,14.13,-0.4,0.92,0,3
15431.062,-0.868,0.053,0.047,11.9,-1.13,1.1,0,3
15431.078,-0.865,0.042,0.038,9.61,-2.41,1.5,0,3
15431.093,-0.869,0.03,0.025,7.42,-3.69,2.08,0,3
15431.093,-0.87,0.021,0.014,5.4,-4.64,2.23,0,3
15431.109,-0.866,0.015,0.0,3.42,-5.13,2.2,0,3
15431.125,-0.875,0.009,-0.007,1.25,-4.88,1.77,0,3
15431.125,-0.886,0.003,-0.014,-1.13,-3.91,1.13,0,3
15431.14,-0.893,-0.001,-0.02,-3.57,-2.66,0.43,0,3
15431.14,-0.911,-0.007,-0.021,-6.23,-1.13,-0.89,0,3
15431.156,-0.928,-0.013,-0.018,-8.79,0.37,-2.26,0,3
15431.171,-0.95,-0.014,-0.016,-10.99,1.25,-3.6,0,3
15431.187,-0.978,-0.014,-0.01,-12.27,1.8,-5.1,0,3
15431.187,-1.0,-0.015,-0.003,-12.94,1.53,-5.92,0,3
15431.203,-1.015,-0.016,0.001,-12.88,0.46,-6.2,0,3
15431.203,-1.027,-0.021,-0.001,-11.57,-1.13,-6.62,0,3
15431.218,-1.036,-0.025,-0.005,-9.49,-2.69,-7.05,0,3
15431.234,-1.046,-0.023,-0.01,-6.93,-3.81,-7.48,0,3
15431.234,-1.054,-0.02,-0.017,-4.73,-4.18,-8.06,0,3
15431.25,-1.059,-0.014,-0.028,-3.14,-3.69,-8.82,0,3
15431.265,-1.064,-0.01,-0.031,-2.47,-2.72,-9.37,0,3
15431.265,-1.064,-0.009,-0.032,-2.5,-1.13,-9.58,0,3
15431.281,-1.061,-0.006,-0.027,-2.96,0.92,-9.74,0,3
15431.281,-1.056,-0.006,-0.024,-3.23,3.08,-9.83,0,3
15431.296,-1.045,-0.005,-0.021,-3.42,5.19,-9.86,0,3
15431.312,-1.031,-0.001,-0.016,-4.0,6.99,-10.25,0,3
15431.312,-1.02,0.006,-0.012,-5.01,8.85,-10.77,0,3
15431.328,-1.015,0.01,-0.005,-6.44,10.62,-11.02,0,3
15431.343,-1.008,0.011,0.006,-8.15,12.18,-10.71,0,3
15431.343,-1.001,0.009,0.013,-9.83,13.64,-10.25,0,3
15431.359,-0.999,0.006,0.022,-11.2,14.37,-9.8,0,3
15431.359,-0.993,0.001,0.031,-12.18,14.77,-9.37,0,3
15431.375,-0.985,-0.003,0.038,-12.85,15.17,-8.85,0,3
15431.39,-0.981,-0.007,0.039,-13.25,15.14,-8.39,0,3
15431.39,-0.975,-0.012,0.04,-13.15,14.86,-8.09,0,3
15431.406,-0.966,-0.017,0.042,-12.6,14.53,-7.75,0,3
15431.421,-0.963,-0.021,0.04,-12.02,14.13,-7.42,0,3
15431.421,-0.958,-0.024,0.042,-11.2,13.67,-6.9,0,3
15431.437,-0.95,-0.024,0.043,-10.5,13.4,-6.68,0,3
15431.453,-0.944,-0.027,0.04,-9.8,13.06,-6.78,0,3
15431.453,-0.941,-0.028,0.039,-9.03,12.6,-6.84,0,3
15431.468,-0.943,-0.031,0.039,-8.3,12.05,-6.99,0,3
15431.484,-0.95,-0.034,0.039,-7.81,11.35,-7.14,0,3
15431.484,-0.959,-0.035,0.035,-7.6,10.47,-7.42,0,3
15431.5,-0.967,-0.035,0.036,-8.0,9.58,-7.9,0,3
15431.5,-0.977,-0.033,0.034,-8.64,8.7,-8.51,0,3
15431.515,-0.984,-0.029,0.033,-9.49,7.97,-9.16,0,3
15431.531,-0.986,-0.025,0.032,-10.41,7.45,-9.46,0,3
15431.531,-0.987,-0.022,0.033,-10.99,7.11,-9.34,0,3
15431.546,-0.987,-0.024,0.033,-10.99,6.62,-8.7,0,3
15431.562,-0.981,-0.024,0.031,-9.67,5.55,-7.72,0,3
15431.562,-0.976,-0.021,0.029,-7.75,4.24,-6.16,0,3
15431.578,-0.972,-0.018,0.026,-5.34,3.08,-4.18,0,3
15431.593,-0.97,-0.02,0.022,-3.2,1.89,-2.14,0,3
15431.593,-0.962,-0.017,0.017,-1.28,0.95,-0.46,0,3
15431.609,-0.961,-0.014,0.009,-0.12,0.21,0.82,0,3
15431.625,-0.958,-0.014,0.004,-0.18,-0.73,2.2,0,3
15431.625,-0.953,-0.015,0.001,-1.22,-1.5,3.39,0,3
15431.64,-0.951,-0.017,-0.001,-2.81,-2.26,4.39,0,3
15431.64,-0.946,-0.022,0.0,-4.49,-2.96,5.49,0,3
15431.656,-0.942,-0.029,0.003,-5.49,-3.54,6.5,0,3
15431.671,-0.933,-0.041,0.005,-5.19,-4.03,7.66,0,3
15431.671,-0.923,-0.052,0.005,-3.51,-4.85,8.91,0,3
15431.687,-0.917,-0.062,-0.002,-0.85,-5.62,9.64,0,3
15431.703,-0.912,-0.073,-0.012,2.01,-6.29,9.98,0,3
15431.703,-0.916,-0.08,-0.027,4.64,-6.9,10.01,0,3
15431.718,-0.921,-0.088,-0.035,6.81,-7.14,9.86,0,3
15431.734,-0.926,-0.095,-0.044,8.55,-6.78,9.55,0,3
15431.734,-0.927,-0.101,-0.051,9.43,-6.1,8.94,0,3
15431.75,-0.919,-0.104,-0.054,9.74,-4.82,7.87,0,3
15431.765,-0.908,-0.107,-0.056,9.67,-3.36,6.81,0,3
15431.765,-0.903,-0.111,-0.055,9.19,-2.08,5.4,0,3
15431.781,-0.895,-0.111,-0.055,8.58,-1.25,3.94,0,3
15431.781,-0.894,-0.108,-0.056,8.0,-0.67,2.14,0,3
15431.796,-0.895,-0.1,-0.052,6.84,-0.06,0.43,0,3
15431.812,-0.9,-0.091,-0.047,5.07,0.31,-0.92,0,3
15431.812,-0.912,-0.084,-0.04,3.08,0.58,-2.23,0,3
15431.828,-0.923,-0.083,-0.031,0.95,0.82,-3.05,0,3
15431.843,-0.928,-0.081,-0.025,-1.1,0.7,-3.81,0,3
15431.843,-0.934,-0.079,-0.018,-2.35,0.49,-4.85,0,3
15431.859,-0.941,-0.075,-0.013,-3.11,0.09,-6.01,0,3
15431.875,-0.945,-0.069,-0.013,-3.63,-0.49,-6.96,0,3
15431.875,-0.948,-0.06,-0.014,-4.09,-1.04,-7.57,0,3
15431.89,-0.953,-0.053,-0.019,-4.27,-1.43,-7.63,0,3
15431.89,-0.956,-0.049,-0.024,-4.76,-1.43,-7.29,0,3
15431.906,-0.961,-0.048,-0.027,-5.55,-1.28,-6.87,0,3
15431.921,-0.969,-0.05,-0.028,-6.53,-0.92,-6.41,0,3
15431.921,-0.978,-0.054,-0.027,-7.75,-0.34,-6.29,0,3
15431.937,-0.984,-0.057,-0.025,-9.03,0.27,-6.44,0,3
15431.953,-0.991,-0.059,-0.024,-10.44,0.64,-6.84,0,3
15431.953,-1.0,-0.057,-0.021,-11.93,0.92,-7.48,0,3
15431.968,-1.006,-0.052,-0.014,-15.87,1.1,-8.3,0,3
15431.984,-1.012,-0.045,-0.007,-17.88,1.16,-8.36,0,3
15431.984,-1.006,-0.039,0.004,-19.04,1.22,-7.9,0,3
15432.0,-0.995,-0.037,0.014,-18.31,0.79,-6.53,0,3
15432.0,-0.969,-0.055,0.023,-15.53,0.0,-4.61,0,3
15432.015,-0.949,-0.065,0.021,-11.23,-0.89,-2.99,0,3
15432.031,-0.928,-0.071,0.017,-6.41,-1.19,-1.86,0,3
15432.031,-0.906,-0.073,0.011,-2.04,-0.37,-1.5,0,3
15432.046,-0.879,-0.071,0.009,0.7,1.25,-1.43,0,3
15432.062,-0.858,-0.063,0.006,1.43,2.75,-1.77,0,3
15432.062,-0.848,-0.052,0.012,0.24,3.51,-1.68,0,3
15432.078,-0.845,-0.042,0.02,-1.95,3.33,-1.07,0,3
15432.093,-0.84,-0.038,0.033,-4.73,2.26,0.09,0,3
15432.093,-0.832,-0.035,0.042,-7.11,0.37,1.53,0,3
15432.109,-0.815,-0.033,0.047,-8.7,-1.89,2.38,0,3
15432.125,-0.799,-0.047,0.046,-9.0,-4.09,2.87,0,3
15432.125,-0.788,-0.067,0.04,-7.75,-5.68,4.18,0,3
15432.14,-0.786,-0.077,0.035,-5.49,-6.78,4.91,0,3
15432.156,-0.789,-0.084,0.025,-3.66,-7.17,4.52,0,3
15432.156,-0.797,-0.086,0.021,-3.42,-6.93,3.17,0,3
15432.171,-0.8,-0.073,0.019,-4.76,-6.16,1.19,0,3
15432.171,-0.807,-0.056,0.025,-7.66,-4.7,-0.76,0,3
15432.187,-0.81,-0.039,0.034,-11.32,-3.17,-2.26,0,3
15432.203,-0.799,-0.017,0.044,-14.89,-2.26,-2.47,0,3
15432.203,-0.78,0.012,0.049,-17.7,-2.5,-1.77,0,3
15432.218,-0.769,0.033,0.05,-19.44,-4.0,-0.43,0,3
15432.234,-0.774,0.037,0.05,-19.47,-6.78,1.89,0,3
15432.234,-0.791,0.003,0.047,-16.33,-10.77,6.56,0,3
15432.25,-0.825,-0.045,0.037,-9.61,-14.92,13.09,0,3
15432.265,-0.876,-0.084,0.025,-0.06,-18.8,18.19,0,3
15432.265,-0.936,-0.118,0.011,9.61,-22.13,19.47,0,3
15432.281,-0.993,-0.143,-0.014,16.85,-24.45,17.79,0,3
15432.281,-1.033,-0.144,-0.037,20.08,-26.43,15.2,0,3
15432.296,-1.046,-0.142,-0.06,18.43,-28.38,11.6,0,3
15432.312,-1.058,-0.137,-0.077,12.73,-29.36,7.17,0,3
15432.312,-1.06,-0.117,-0.091,4.09,-29.76,2.72,0,3
15432.328,-1.042,-0.084,-0.1,-6.93,-29.57,-1.65,0,3
15432.343,-1.012,-0.057,-0.102,-19.65,-27.77,-6.07,0,3
15432.359,-0.986,-0.041,-0.101,-32.5,-24.38,-10.04,0,3
15432.359,-0.972,-0.031,-0.091,-43.43,-20.23,-13.15,0,3
15432.375,-0.955,-0.035,-0.074,-50.81,-15.63,-14.89,0,3
15432.375,-0.953,-0.045,-0.06,-54.57,-10.56,-14.92,0,3
15432.39,-0.961,-0.052,-0.048,-54.87,-5.8,-14.86,0,3
15432.406,-0.969,-0.056,-0.039,-52.19,-2.01,-15.08,0,3
15432.406,-0.983,-0.058,-0.034,-48.07,1.5,-15.29,0,3
15432.421,-0.993,-0.051,-0.032,-44.25,4.64,-14.95,0,3
15432.421,-1.002,-0.043,-0.032,-41.75,7.32,-13.95,0,3
15432.437,-1.011,-0.041,-0.029,-41.72,9.61,-12.6,0,3
15432.453,-1.019,-0.044,-0.017,-43.86,11.29,-11.23,0,3
15432.468,-1.03,-0.05,0.002,-46.85,12.45,-10.13,0,3
15432.468,-1.041,-0.065,0.021,-49.68,12.88,-9.0,0,3
15432.484,-1.037,-0.082,0.038,-51.24,11.9,-8.36,0,3
15432.484,-1.031,-0.093,0.045,-51.21,10.07,-7.97,0,3
15432.5,-1.019,-0.098,0.05,-49.53,7.26,-8.06,0,3
15432.515,-1.01,-0.101,0.05,-45.96,3.69,-8.79,0,3
15432.515,-1.008,-0.092,0.049,-41.05,0.34,-9.52,0,3
15432.531,-1.019,-0.071,0.053,-35.34,-2.29,-9.25,0,3
15432.531,-1.052,-0.041,0.063,-30.03,-4.18,-7.05,0,3
15432.546,-1.091,-0.008,0.083,-26.06,-6.26,-2.29,0,3
15432.562,-1.119,0.014,0.101,-23.44,-9.46,4.61,0,3
15432.562,-1.129,0.015,0.117,-21.06,-12.91,11.32,0,3
15432.578,-1.142,0.008,0.128,-18.01,-16.39,15.78,0,3
15432.593,-1.148,0.001,0.14,-13.92,-20.14,18.34,0,3
15432.593,-1.149,0.002,0.148,-8.03,-24.14,19.59,0,3
15432.609,-1.137,0.014,0.143,-1.37,-27.62,19.84,0,3
15432.625,-1.116,0.038,0.136,5.01,-29.63,19.17,0,3
15432.625,-1.099,0.06,0.124,11.29,-29.97,18.25,0,3
15432.64,-1.093,0.079,0.11,15.44,-29.02,18.59,0,3
15432.656,-1.093,0.095,0.1,17.21,-27.13,20.66,0,3
15432.656,-1.09,0.093,0.091,17.7,-25.09,23.9,0,3
15432.671,-1.08,0.087,0.08,17.24,-22.98,27.22,0,3
15432.671,-1.071,0.081,0.079,15.93,-20.57,29.54,0,3
15432.687,-1.056,0.083,0.077,13.31,-17.91,31.1,0,3
15432.703,-1.034,0.085,0.072,9.43,-15.17,32.07,0,3
15432.703,-1.014,0.091,0.069,4.39,-12.39,32.69,0,3
15432.718,-0.993,0.097,0.067,-1.46,-9.43,33.33,0,3
15432.734,-0.978,0.098,0.072,-7.45,-6.78,34.15,0,3
15432.734,-0.976,0.091,0.078,-12.67,-4.33,35.37,0,3
15432.75,-0.979,0.077,0.087,-16.21,-2.72,36.84,0,3
15432.765,-0.984,0.062,0.098,-17.94,-1.77,38.15,0,3
15432.765,-0.985,0.052,0.105,-18.25,-1.71,38.82,0,3
15432.781,-0.975,0.053,0.107,-18.28,-2.01,38.97,0,3
15432.781,-0.959,0.063,0.107,-18.52,-2.01,38.61,0,3
15432.796,-0.936,0.079,0.107,-19.81,-1.59,38.12,0,3
15432.812,-0.918,0.09,0.106,-21.82,-0.73,37.87,0,3
15432.812,-0.913,0.094,0.11,-23.44,0.46,38.09,0,3
15432.828,-0.925,0.088,0.121,-23.74,1.65,39.16,0,3
15432.843,-0.941,0.075,0.136,-22.55,2.66,40.59,0,3
15432.843,-0.959,0.053,0.15,-19.38,2.41,42.09,0,3
15432.859,-0.969,0.028,0.151,-13.46,0.12,42.94,0,3
15432.875,-0.974,0.015,0.145,-5.1,-3.91,43.49,0,3
15432.875,-0.972,0.008,0.131,4.43,-8.79,43.92,0,3
15432.89,-0.953,0.012,0.106,13.25,-13.7,44.22,0,3
15432.89,-0.922,0.028,0.079,19.65,-17.88,44.16,0,3
15432.906,-0.899,0.047,0.052,23.1,-20.45,43.61,0,3
15432.921,-0.883,0.06,0.033,23.41,-21.42,42.85,0,3
15432.921,-0.879,0.069,0.022,21.58,-21.09,42.42,0,3
15432.937,-0.88,0.073,0.02,18.89,-19.65,42.73,0,3
15432.953,-0.879,0.068,0.023,16.17,-17.94,43.55,0,3
15432.953,-0.88,0.059,0.031,11.63,-13.28,43.24,0,3
15432.968,-0.875,0.056,0.042,9.8,-10.9,41.32,0,3
15432.984,-0.879,0.056,0.057,8.12,-9.4,38.82,0,3
15432.984,-0.881,0.065,0.093,6.35,-9.22,36.41,0,3
15433.0,-0.872,0.081,0.105,4.88,-10.25,34.33,0,3
15433.015,-0.875,0.09,0.116,3.54,-12.12,32.59,0,3
15433.015,-0.877,0.086,0.124,2.66,-14.34,31.25,0,3
15433.031,-0.878,0.083,0.131,2.56,-16.79,29.76,0,3
15433.031,-0.877,0.08,0.135,2.84,-18.95,27.62,0,3
15433.046,-0.867,0.083,0.139,3.11,-20.33,24.9,0,3
15433.062,-0.863,0.092,0.144,3.45,-20.42,21.21,0,3
15433.062,-0.866,0.104,0.151,3.6,-19.2,17.18,0,3
15433.078,-0.867,0.12,0.16,3.51,-17.43,13.82,0,3
15433.093,-0.878,0.135,0.173,3.36,-15.44,11.38,0,3
15433.093,-0.888,0.147,0.191,3.88,-13.7,9.67,0,3
15433.109,-0.893,0.156,0.206,5.31,-12.97,8.85,0,3
15433.125,-0.912,0.16,0.218,8.09,-13.06,8.58,0,3
15433.125,-0.934,0.166,0.226,11.78,-14.34,8.58,0,3
15433.14,-0.959,0.173,0.234,15.32,-16.27,8.73,0,3
15433.156,-0.983,0.173,0.238,18.07,-18.37,9.06,0,3
15433.156,-1.009,0.173,0.24,19.44,-20.51,8.88,0,3
15433.171,-1.044,0.18,0.244,19.56,-22.34,7.81,0,3
15433.171,-1.075,0.196,0.247,18.22,-24.51,6.32,0,3
15433.187,-1.105,0.215,0.25,15.17,-26.49,5.01,0,3
15433.203,-1.165,0.226,0.255,12.09,-28.05,4.12,0,3
15433.218,-1.252,0.223,0.251,10.38,-30.4,3.91,0,3
15433.218,-1.351,0.203,0.24,11.66,-34.27,4.64,0,3
15433.234,-1.486,0.163,0.22,17.43,-39.34,5.71,0,3
15433.234,-1.644,0.114,0.188,27.5,-45.47,6.35,0,3
15433.25,-1.781,0.08,0.153,39.95,-51.12,6.81,0,3
15433.265,-1.925,0.071,0.113,51.94,-54.81,6.44,0,3
15433.265,-2.047,0.06,0.074,61.46,-57.71,5.04,0,3
15433.281,-2.089,0.067,0.041,66.29,-59.66,3.72,0,3
15433.281,-1.985,0.125,0.018,65.46,-58.75,2.5,0,3
15433.296,-1.797,0.172,-0.004,60.52,-52.55,2.81,0,3
15433.312,-1.54,0.222,-0.01,54.29,-40.31,6.65,0,3
15433.312,-1.257,0.322,0.008,49.44,-23.26,9.7,0,3
15433.328,-1.032,0.354,0.027,47.43,-2.72,12.91,0,3
15433.343,-0.862,0.354,0.059,45.69,21.21,19.41,0,3
15433.343,-0.718,0.392,0.111,43.4,45.26,26.46,0,3
15433.359,-0.627,0.418,0.171,40.77,67.66,31.34,0,3
15433.375,-0.574,0.433,0.222,35.86,85.33,34.49,0,3
15433.375,-0.527,0.46,0.267,27.44,96.77,37.39,0,3
15433.39,-0.499,0.464,0.301,16.94,100.86,39.19,0,3
15433.39,-0.478,0.442,0.314,5.74,97.96,38.39,0,3
15433.406,-0.457,0.428,0.32,-6.04,89.14,34.3,0,3
15433.421,-0.458,0.415,0.313,-17.21,76.27,27.68,0,3
15433.437,-0.479,0.39,0.308,-26.98,60.79,21.09,0,3
15433.437,-0.507,0.36,0.296,-34.03,43.95,15.93,0,3
15433.453,-0.551,0.313,0.271,-36.16,25.42,13.0,0,3
15433.453,-0.602,0.259,0.241,-32.11,5.71,12.21,0,3
15433.468,-0.655,0.212,0.204,-22.77,-13.49,12.39,0,3
15433.484,-0.714,0.171,0.156,-9.46,-30.88,12.18,0,3
15433.484,-0.772,0.145,0.097,5.58,-45.11,10.35,0,3
15433.5,-0.833,0.132,0.039,19.71,-55.42,6.2,0,3
15433.515,-0.89,0.126,-0.02,31.5,-62.75,-0.09,0,3
15433.515,-0.946,0.133,-0.077,40.65,-67.78,-7.81,0,3
15433.531,-1.012,0.148,-0.125,47.52,-70.86,-15.99,0,3
15433.531,-1.058,0.178,-0.163,52.0,-72.27,-23.44,0,3
15433.546,-1.077,0.22,-0.188,54.26,-71.63,-29.02,0,3
15433.562,-1.067,0.268,-0.203,53.9,-67.29,-32.29,0,3
15433.562,-1.053,0.31,-0.204,50.39,-57.59,-33.48,0,3
15433.578,-1.017,0.341,-0.198,42.54,-43.28,-33.75,0,3
15433.593,-0.952,0.375,-0.18,30.64,-25.82,-33.48,0,3
15433.593,-0.885,0.402,-0.15,17.18,-5.92,-33.23,0,3
15433.609,-0.837,0.418,-0.102,4.18,15.2,-32.47,0,3
15433.625,-0.808,0.427,-0.051,-6.96,35.4,-30.12,0,3
15433.625,-0.795,0.426,0.007,-15.41,52.61,-27.19,0,3
15433.64,-0.792,0.414,0.061,-20.78,66.44,-23.83,0,3
15433.64,-0.803,0.397,0.108,-23.83,77.18,-19.87,0,3
15433.656,-0.808,0.37,0.153,-25.12,84.32,-16.02,0,3
15433.671,-0.809,0.342,0.19,-24.6,87.31,-13.03,0,3
15433.687,-0.802,0.315,0.207,-22.68,86.7,-11.84,0,3
15433.687,-0.804,0.289,0.217,-19.38,83.1,-12.51,0,3
15433.703,-0.813,0.257,0.222,-14.86,76.24,-14.56,0,3
15433.703,-0.832,0.233,0.221,-9.74,66.35,-17.7,0,3
15433.718,-0.855,0.219,0.212,-5.37,54.51,-21.0,0,3
15433.734,-0.883,0.215,0.194,-2.69,41.81,-24.78,0,3
15433.734,-0.915,0.21,0.179,-2.38,29.66,-28.66,0,3
15433.75,-0.948,0.201,0.164,-3.94,17.73,-32.11,0,3
15433.75,-0.984,0.196,0.149,-6.5,6.04,-34.46,0,3
15433.765,-1.011,0.195,0.136,-10.04,-5.13,-35.34,0,3
15433.781,-1.019,0.192,0.119,-13.43,-14.68,-35.37,0,3
15433.796,-1.025,0.19,0.11,-16.02,-21.27,-35.86,0,3
15433.796,-1.025,0.198,0.102,-18.59,-25.57,-37.48,0,3
15433.812,-1.021,0.213,0.097,-20.84,-26.95,-40.04,0,3
15433.812,-1.016,0.233,0.094,-23.16,-25.79,-42.12,0,3
15433.828,-1.001,0.251,0.099,-25.09,-22.83,-42.94,0,3
15433.843,-0.985,0.268,0.107,-26.46,-18.89,-42.48,0,3
15433.843,-0.977,0.274,0.12,-26.34,-14.37,-40.93,0,3
15433.859,-0.974,0.266,0.138,-23.68,-10.1,-38.58,0,3
15433.875,-0.971,0.26,0.155,-18.43,-6.35,-35.92,0,3
15433.875,-0.973,0.258,0.165,-11.75,-3.11,-33.51,0,3
15433.89,-0.97,0.257,0.177,-5.37,-0.61,-31.5,0,3
15433.89,-0.969,0.256,0.186,-0.12,1.37,-29.57,0,3
15433.906,-0.989,0.249,0.187,4.21,2.44,-27.65,0,3
15433.921,-1.001,0.247,0.187,6.78,1.28,-25.7,0,3
15433.921,-1.015,0.246,0.178,7.54,-1.68,-24.08,0,3
15433.937,-1.029,0.24,0.163,2.81,-11.26,-21.61,0,3
15433.953,-1.035,0.24,0.148,-2.38,-16.48,-20.48,0,3
15433.968,-1.033,0.237,0.131,-7.97,-20.78,-18.86,0,3
15433.968,-1.027,0.223,0.119,-13.37,-23.71,-17.24,0,3
15433.984,-1.013,0.195,0.102,-17.55,-25.09,-16.05,0,3
15433.984,-1.007,0.18,0.096,-21.24,-24.78,-15.14,0,3
15434.0,-1.003,0.168,0.093,-24.14,-23.65,-14.44,0,3
15434.015,-1.009,0.148,0.089,-25.79,-22.55,-13.37,0,3
15434.015,-1.008,0.129,0.084,-25.51,-21.67,-11.93,0,3
15434.031,-1.005,0.12,0.078,-23.41,-20.72,-10.28,0,3
15434.031,-1.005,0.109,0.071,-19.78,-19.56,-8.76,0,3
15434.046,-0.998,0.098,0.067,-15.63,-18.04,-6.53,0,3
15434.062,-0.982,0.093,0.058,-11.26,-15.96,-4.15,0,3
15434.062,-0.963,0.086,0.048,-6.9,-13.55,-2.2,0,3
15434.078,-0.951,0.079,0.041,-3.08,-11.08,-1.1,0,3
15434.093,-0.949,0.077,0.033,0.15,-8.73,-0.89,0,3
15434.093,-0.939,0.077,0.025,1.77,-6.47,-1.31,0,3
15434.109,-0.926,0.087,0.02,1.5,-4.09,-2.56,0,3
15434.125,-0.918,0.09,0.019,-0.55,-1.43,-4.52,0,3
15434.125,-0.915,0.09,0.024,-3.66,1.53,-6.23,0,3
15434.14,-0.918,0.088,0.032,-7.17,4.15,-7.45,0,3
15434.156,-0.924,0.085,0.046,-9.86,5.95,-8.36,0,3
15434.156,-0.929,0.082,0.061,-11.54,7.23,-9.55,0,3
15434.171,-0.926,0.088,0.075,-12.67,8.3,-11.02,0,3
15434.171,-0.934,0.1,0.088,-13.64,9.22,-12.6,0,3
15434.187,-0.954,0.104,0.105,-13.98,9.55,-13.82,0,3
15434.203,-0.979,0.102,0.118,-13.21,8.51,-13.86,0,3
15434.218,-0.991,0.099,0.131,-10.96,6.53,-12.6,0,3
15434.218,-1.003,0.095,0.138,-6.81,4.0,-11.11,0,3
15434.234,-1.015,0.084,0.136,-0.98,0.98,-9.49,0,3
15434.234,-1.02,0.078,0.13,5.46,-1.62,-7.93,0,3
15434.25,-1.02,0.078,0.12,11.75,-3.17,-6.71,0,3
15434.265,-1.014,0.081,0.111,16.97,-3.2,-6.16,0,3
15434.265,-1.005,0.086,0.104,20.33,-1.83,-6.01,0,3
15434.281,-0.993,0.095,0.102,21.49,1.28,-6.2,0,3
15434.296,-0.986,0.104,0.108,20.94,5.31,-6.9,0,3
15434.296,-0.985,0.11,0.117,18.95,9.31,-7.93,0,3
15434.312,-0.991,0.112,0.129,16.6,12.05,-8.33,0,3
15434.312,-0.988,0.114,0.141,14.62,13.34,-7.81,0,3
15434.328,-0.978,0.118,0.154,13.4,13.34,-6.78,0,3
15434.343,-0.963,0.106,0.157,13.82,11.96,-5.55,0,3
15434.343,-0.945,0.105,0.156,15.35,9.92,-4.15,0,3
15434.359,-0.942,0.106,0.151,17.33,8.06,-2.93,0,3
15434.375,-0.946,0.098,0.142,19.01,5.8,-1.62,0,3
15434.375,-0.947,0.093,0.136,19.44,3.97,-0.18,0,3
15434.39,-0.962,0.085,0.128,18.92,2.41,0.67,0,3
15434.39,-0.977,0.059,0.115,18.28,0.52,1.16,0,3
15434.406,-0.979,0.041,0.108,17.79,-1.25,1.46,0,3
15434.421,-0.976,0.027,0.099,18.46,-2.26,0.76,0,3
15434.437,-0.981,0.01,0.086,20.02,-2.23,-0.46,0,3
15434.437,-0.977,0.007,0.076,21.64,-1.4,-2.17,0,3
15434.453,-0.964,0.014,0.066,22.55,0.27,-4.73,0,3
15434.453,-0.965,0.026,0.056,22.1,2.5,-7.72,0,3
15434.468,-0.971,0.03,0.05,20.63,4.18,-10.32,0,3
15434.484,-0.97,0.04,0.047,18.22,4.7,-12.21,0,3
15434.484,-0.976,0.047,0.041,15.5,4.21,-13.46,0,3
15434.5,-0.989,0.046,0.031,12.48,3.14,-14.34,0,3
15434.515,-0.991,0.053,0.031,8.7,1.98,-15.69,0,3
15434.515,-0.982,0.064,0.031,3.72,1.56,-17.58,0,3
15434.531,-0.976,0.07,0.033,-1.92,2.11,-19.29,0,3
15434.546,-0.972,0.071,0.043,-7.23,3.14,-20.11,0,3
15434.546,-0.974,0.063,0.058,-10.71,4.09,-19.99,0,3
15434.562,-0.982,0.052,0.068,-11.54,4.24,-19.26,0,3
15434.578,-0.977,0.045,0.072,-10.25,3.48,-18.25,0,3
15434.578,-0.97,0.044,0.073,-7.42,2.59,-17.79,0,3
15434.593,-0.967,0.043,0.069,-4.18,2.56,-17.24,0,3
15434.593,-0.973,0.038,0.064,-1.19,3.42,-16.54,0,3
15434.609,-0.978,0.036,0.062,0.98,4.49,-15.75,0,3
15434.625,-0.989,0.039,0.057,1.83,5.71,-15.44,0,3
15434.625,-1.003,0.04,0.055,1.46,6.62,-15.75,0,3
15434.64,-1.006,0.042,0.054,-0.27,6.44,-15.72,0,3
15434.656,-0.999,0.047,0.05,-2.84,5.86,-15.38,0,3
15434.656,-0.998,0.048,0.044,-5.92,5.07,-14.83,0,3
15434.671,-0.999,0.044,0.043,-9.09,4.85,-14.1,0,3
15434.671,-0.995,0.041,0.047,-12.15,5.19,-13.52,0,3
15434.687,-0.993,0.038,0.058,-14.4,6.13,-13.03,0,3
15434.703,-0.997,0.034,0.07,-15.41,7.02,-12.36,0,3
15434.703,-0.994,0.032,0.083,-15.41,7.78,-11.29,0,3
15434.718,-0.991,0.034,0.093,-14.77,7.75,-10.28,0,3
15434.734,-0.992,0.031,0.1,-13.34,6.87,-9.34,0,3
15434.734,-0.991,0.028,0.1,-11.23,5.25,-7.97,0,3
15434.75,-0.976,0.028,0.098,-9.03,3.51,-6.78,0,3
15434.765,-0.973,0.026,0.092,-7.02,2.5,-5.86,0,3
15434.765,-0.978,0.028,0.088,-5.52,1.86,-5.34,0,3
15434.781,-0.979,0.029,0.08,-5.01,1.4,-4.82,0,3
15434.796,-0.972,0.03,0.075,-5.46,0.92,-4.15,0,3
15434.796,-0.964,0.033,0.073,-6.65,0.73,-3.51,0,3
15434.812,-0.968,0.029,0.07,-8.27,0.79,-2.99,0,3
15434.812,-0.978,0.02,0.069,-9.55,0.43,-2.47,0,3
15434.828,-0.985,0.015,0.071,-10.22,-0.37,-2.14,0,3
15434.843,-0.986,0.013,0.078,-10.25,-0.43,-1.68,0,3
15434.843,-0.99,0.006,0.084,-8.91,0.24,-0.89,0,3
15434.859,-1.0,-0.002,0.094,-5.83,1.07,0.21,0,3
15434.875,-1.005,-0.008,0.099,-1.56,1.04,1.43,0,3
15434.875,-1.009,-0.006,0.096,3.33,0.18,2.38,0,3
15434.89,-1.012,0.002,0.09,7.84,-1.13,3.14,0,3
15434.89,-1.012,0.01,0.081,11.14,-2.53,3.69,0,3
15434.906,-1.012,0.015,0.066,12.73,-3.54,4.12,0,3
15434.921,-1.014,0.019,0.053,11.72,-4.46,4.67,0,3
15434.921,-1.013,0.025,0.043,9.92,-4.3,4.85,0,3
15434.937,-1.015,0.026,0.037,7.78,-3.97,5.16,0,3
15434.953,-1.019,0.021,0.038,5.89,-3.88,5.55,0,3
15434.953,-1.008,0.016,0.039,4.85,-3.85,5.74,0,3
15434.968,-1.008,0.014,0.037,4.76,-3.81,6.01,0,3
15434.984,-1.011,0.01,0.036,5.58,-3.75,6.62,0,3
15434.984,-1.004,0.002,0.033,7.11,-3.69,7.66,0,3
15435.0,-0.994,-0.005,0.031,9.13,-3.17,8.64,0,3
15435.015,-0.984,-0.01,0.026,11.02,-2.32,9.06,0,3
15435.015,-0.974,-0.012,0.02,12.48,-1.43,8.79,0,3
15435.031,-0.969,-0.008,0.017,12.97,-0.52,8.3,0,3
15435.046,-0.962,-0.003,0.013,12.3,0.31,7.87,0,3
15435.046,-0.956,0.005,0.01,10.41,1.01,7.29,0,3
15435.062,-0.955,0.013,0.013,7.39,1.74,6.53,0,3
15435.062,-0.954,0.016,0.021,4.09,2.23,6.13,0,3
15435.078,-0.951,0.017,0.028,1.1,2.32,6.23,0,3
15435.093,-0.954,0.009,0.037,-0.79,1.98,6.35,0,3
15435.093,-0.961,-0.001,0.044,-1.1,0.98,6.62,0,3
15435.109,-0.966,-0.008,0.049,-0.34,-0.52,7.05,0,3
15435.125,-0.968,-0.016,0.047,1.37,-2.04,7.35,0,3
15435.125,-0.968,-0.018,0.039,3.42,-3.45,7.42,0,3
15435.14,-0.976,-0.021,0.03,5.19,-4.33,7.08,0,3
15435.156,-0.985,-0.025,0.018,6.71,-4.73,6.84,0,3
15435.156,-0.989,-0.028,0.007,7.87,-4.49,6.59,0,3
15435.171,-0.992,-0.028,-0.002,8.61,-3.48,6.1,0,3
15435.171,-0.99,-0.029,-0.006,8.73,-1.74,5.13,0,3
15435.187,-0.991,-0.025,-0.006,8.15,0.46,3.94,0,3
15435.203,-0.994,-0.018,-0.007,7.29,2.11,2.69,0,3
15435.203,-0.99,-0.007,-0.005,5.98,3.48,1.83,0,3
15435.218,-0.986,0.003,0.002,4.24,4.49,1.37,0,3
15435.234,-0.984,0.009,0.009,2.41,5.01,1.34,0,3
15435.234,-0.985,0.011,0.016,0.76,5.16,1.59,0,3
15435.25,-0.988,0.012,0.02,-0.61,4.76,1.8,0,3
15435.265,-0.992,0.012,0.029,-1.98,4.18,2.01,0,3
15435.265,-0.993,0.01,0.036,-3.36,3.36,2.11,0,3
15435.281,-0.992,0.007,0.04,-4.55,2.66,2.23,0,3
15435.281,-0.988,0.004,0.045,-5.46,2.04,2.17,0,3
15435.296,-0.986,0.006,0.045,-6.1,1.5,1.31,0,3
15435.312,-0.977,0.004,0.044,-6.56,1.34,0.95,0,3
15435.312,-0.974,0.015,0.045,-6.71,1.43,0.61,0,3
15435.328,-0.968,0.015,0.038,-6.29,0.92,-0.09,0,3
15435.343,-0.968,0.017,0.038,-6.65,2.11,0.31,0,3
15435.343,-0.968,0.026,0.045,-7.75,3.08,0.85,0,3
15435.359,-0.969,0.026,0.05,-9.06,3.39,0.73,0,3
15435.375,-0.974,0.03,0.057,-10.9,3.69,0.49,0,3
15435.375,-0.977,0.033,0.063,-12.67,2.87,0.27,0,3
15435.39,-0.986,0.034,0.07,-13.98,2.14,0.18,0,3
15435.39,-0.992,0.033,0.074,-14.53,0.92,0.52,0,3
15435.406,-0.99,0.034,0.079,-14.56,-0.34,1.16,0,3
15435.421,-0.988,0.038,0.082,-14.16,-1.1,1.86,0,3
15435.421,-0.99,0.033,0.08,-12.21,-1.43,2.81,0,3
15435.437,-0.991,0.03,0.082,-9.98,-1.5,3.88,0,3
15435.453,-0.989,0.029,0.082,-7.23,-1.25,4.67,0,3
15435.468,-0.991,0.03,0.08,-4.06,-0.52,5.28,0,3
15435.468,-0.991,0.03,0.079,-1.16,0.24,5.65,0,3
15435.484,-0.997,0.029,0.076,1.37,1.13,5.92,0,3
15435.484,-0.999,0.036,0.077,3.14,1.77,6.16,0,3
15435.5,-1.0,0.041,0.073,4.03,1.83,6.32,0,3
15435.5,-1.001,0.043,0.068,4.12,1.59,6.44,0,3
15435.515,-0.995,0.046,0.067,3.69,1.25,6.38,0,3
15435.531,-0.991,0.051,0.067,2.87,1.07,6.35,0,3
15435.531,-0.991,0.052,0.069,1.8,0.98,6.26,0,3
15435.546,-0.992,0.051,0.07,0.58,0.58,6.13,0,3
15435.562,-0.99,0.05,0.07,-0.58,-0.06,6.01,0,3
15435.578,-0.989,0.052,0.068,-1.5,-0.73,5.98,0,3
15435.578,-0.985,0.053,0.065,-2.26,-1.46,5.98,0,3
15435.593,-0.981,0.053,0.066,-3.33,-1.8,5.65,0,3
15435.593,-0.983,0.052,0.063,-4.12,-1.83,5.65,0,3
15435.609,-0.98,0.049,0.063,-4.85,-1.83,5.83,0,3
15435.625,-0.98,0.045,0.065,-5.4,-1.74,5.83,0,3
15435.625,-0.981,0.042,0.067,-5.31,-1.68,5.77,0,3
15435.64,-0.979,0.04,0.068,-4.88,-1.59,5.46,0,3
15435.64,-0.979,0.039,0.069,-4.12,-1.65,5.13,0,3
15435.656,-0.979,0.039,0.069,-3.14,-1.8,4.88,0,3
15435.671,-0.978,0.041,0.066,-2.08,-1.86,4.76,0,3
15435.687,-0.979,0.042,0.065,-1.4,-1.8,4.7,0,3
15435.687,-0.978,0.043,0.064,-0.7,-1.95,4.7,0,3
15435.703,-0.979,0.042,0.06,-0.03,-2.01,4.58,0,3
15435.703,-0.978,0.043,0.058,0.7,-1.89,4.43,0,3
15435.718,-0.975,0.044,0.055,1.53,-1.83,4.27,0,3
15435.734,-0.977,0.045,0.055,2.04,-1.86,4.06,0,3
15435.734,-0.978,0.044,0.049,2.53,-1.71,4.15,0,3
15435.75,-0.978,0.044,0.048,2.72,-1.74,4.12,0,3
15435.765,-0.978,0.043,0.045,2.75,-1.95,4.0,0,3
15435.765,-0.976,0.041,0.04,2.62,-2.04,3.66,0,3
15435.781,-0.975,0.039,0.038,2.44,-1.95,3.3,0,3
15435.781,-0.973,0.041,0.036,2.14,-1.89,2.78,0,3
15435.796,-0.969,0.042,0.033,1.46,-1.77,2.14,0,3
15435.812,-0.968,0.043,0.034,0.58,-1.5,1.46,0,3
15435.812,-0.971,0.043,0.035,0.06,-1.4,0.95,0,3
15435.828,-0.972,0.045,0.037,-0.18,-1.46,0.49,0,3
15435.843,-0.972,0.047,0.035,-0.49,-1.62,0.03,0,3
15435.843,-0.97,0.045,0.034,-0.31,-1.83,-0.09,0,3
15435.859,-0.971,0.043,0.031,0.12,-1.83,-0.18,0,3
15435.875,-0.969,0.044,0.029,0.79,-1.92,-0.24,0,3
15435.875,-0.97,0.047,0.026,1.19,-1.74,-0.55,0,3
15435.89,-0.972,0.05,0.024,1.43,-1.5,-0.85,0,3
15435.89,-0.974,0.052,0.023,1.01,-0.79,-0.85,0,3
15435.906,-0.973,0.052,0.023,0.98,-0.34,-0.98,0,3
15435.921,-0.975,0.05,0.025,1.37,0.12,-0.98,0,3
15435.921,-0.977,0.045,0.025,1.98,0.37,-1.04,0,3
15435.937,-0.979,0.047,0.028,2.72,0.52,-1.22,0,3
15435.953,-0.979,0.048,0.028,3.11,0.79,-1.56,0,3
15435.953,-0.979,0.047,0.031,3.27,1.01,-1.86,0,3
15435.968,-0.977,0.051,0.029,3.36,1.16,-2.14,0,3
15435.984,-0.978,0.054,0.029,3.23,1.25,-2.62,0,3
15435.984,-0.979,0.058,0.029,2.69,1.19,-3.05,0,3
15436.0,-0.979,0.06,0.028,2.17,1.25,-3.02,0,3
15436.015,-0.98,0.061,0.032,1.77,1.34,-2.93,0,3
15436.015,-0.979,0.061,0.033,1.56,1.46,-2.72,0,3
15436.031,-0.978,0.061,0.036,1.62,1.68,-2.75,0,3
15436.031,-0.977,0.062,0.038,1.71,1.95,-2.93,0,3
15436.046,-0.979,0.064,0.039,1.86,2.17,-3.05,0,3
15436.062,-0.981,0.067,0.039,2.04,2.23,-3.05,0,3
15436.062,-0.98,0.068,0.041,1.98,1.92,-2.96,0,3
15436.078,-0.983,0.067,0.042,1.98,1.74,-2.81,0,3
15436.093,-0.985,0.068,0.042,1.95,1.89,-2.53,0,3
15436.109,-0.983,0.068,0.043,2.2,1.86,-2.5,0,3
15436.109,-0.982,0.068,0.043,2.29,1.89,-2.59,0,3
15436.125,-0.981,0.072,0.044,2.2,1.95,-2.62,0,3
15436.125,-0.982,0.074,0.047,1.92,1.89,-2.59,0,3
15436.14,-0.983,0.074,0.047,1.31,1.53,-2.56,0,3
15436.14,-0.985,0.07,0.048,0.7,1.34,-2.53,0,3
15436.156,-0.987,0.071,0.049,0.4,1.25,-2.53,0,3
15436.171,-0.985,0.075,0.049,0.31,0.95,-2.53,0,3
15436.171,-0.99,0.072,0.051,0.46,0.58,-2.29,0,3
15436.187,-0.99,0.069,0.05,0.64,0.12,-1.98,0,3
15436.203,-0.988,0.071,0.048,0.67,-0.18,-1.74,0,3
15436.218,-0.987,0.073,0.046,0.43,-0.09,-1.86,0,3
15436.218,-0.987,0.074,0.049,0.09,0.0,-1.92,0,3
15436.234,-0.991,0.072,0.051,0.12,0.06,-1.74,0,3
15436.234,-0.993,0.068,0.051,0.64,-0.31,-1.31,0,3
15436.25,-0.993,0.068,0.05,1.28,-0.7,-0.98,0,3
15436.265,-0.993,0.069,0.046,2.08,-1.07,-0.76,0,3
15436.265,-0.991,0.072,0.044,2.59,-1.25,-0.55,0,3
15436.281,-0.992,0.073,0.042,2.81,-1.22,-0.31,0,3
15436.281,-0.993,0.075,0.043,2.72,-1.07,0.03,0,3
15436.296,-0.99,0.074,0.042,2.75,-1.19,0.58,0,3
15436.312,-0.988,0.073,0.043,2.75,-1.37,1.01,0,3
15436.328,-0.987,0.07,0.043,2.59,-1.62,1.37,0,3
15436.328,-0.986,0.067,0.041,2.47,-2.04,1.59,0,3
15436.343,-0.983,0.065,0.039,2.44,-2.53,1.53,0,3
15436.343,-0.982,0.063,0.037,2.23,-2.81,1.53,0,3
15436.359,-0.981,0.062,0.035,1.68,-2.9,1.46,0,3
15436.375,-0.979,0.06,0.036,1.37,-2.96,1.53,0,3
15436.375,-0.98,0.059,0.035,1.28,-2.84,1.34,0,3
15436.39,-0.981,0.06,0.032,1.28,-2.72,1.25,0,3
15436.406,-0.98,0.06,0.03,1.77,-2.69,1.22,0,3
15436.406,-0.977,0.06,0.03,2.11,-2.44,1.19,0,3
15436.421,-0.976,0.059,0.026,2.32,-2.04,1.34,0,3
15436.421,-0.979,0.058,0.024,2.59,-1.71,1.37,0,3
15436.437,-0.981,0.059,0.026,2.44,-1.56,1.31,0,3
15436.453,-0.982,0.061,0.024,2.11,-1.59,1.19,0,3
15436.453,-0.984,0.06,0.025,1.68,-1.74,1.13,0,3
15436.468,-0.983,0.061,0.023,1.04,-1.95,1.22,0,3
15436.484,-0.982,0.058,0.022,0.64,-2.01,1.37,0,3
15436.484,-0.979,0.055,0.022,0.49,-2.11,1.65,0,3
15436.5,-0.977,0.053,0.023,0.64,-1.74,1.77,0,3
15436.515,-0.98,0.054,0.023,0.92,-1.34,1.8,0,3
15436.515,-0.981,0.057,0.024,1.31,-1.1,2.01,0,3
15436.531,-0.979,0.053,0.026,1.59,-1.01,2.04,0,3
15436.546,-0.98,0.047,0.026,1.68,-0.82,2.32,0,3
15436.546,-0.983,0.047,0.03,1.92,-0.85,2.41,0,3
15436.562,-0.985,0.038,0.025,2.69,-1.4,2.11,0,3
15436.562,-0.985,0.041,0.025,3.3,-0.95,2.04,0,3
15436.578,-0.986,0.045,0.027,3.66,-0.58,1.95,0,3
15436.593,-0.986,0.04,0.025,3.88,-0.27,1.77,0,3
15436.593,-0.989,0.042,0.026,3.54,-0.15,1.37,0,3
15436.609,-0.988,0.044,0.027,2.96,-0.21,0.89,0,3
15436.625,-0.995,0.047,0.03,2.32,-0.31,0.27,0,3
15436.625,-0.998,0.048,0.032,1.89,-0.7,-0.15,0,3
15436.64,-1.0,0.05,0.031,1.65,-1.07,-0.24,0,3
15436.656,-1.003,0.052,0.031,1.43,-1.56,-0.21,0,3
15436.656,-1.003,0.054,0.032,1.1,-1.74,-0.21,0,3
15436.671,-1.007,0.056,0.034,0.61,-1.86,-0.27,0,3
15436.671,-1.008,0.057,0.035,0.03,-2.11,-0.37,0,3
15436.687,-1.01,0.059,0.038,-0.64,-2.35,-0.18,0,3
15436.703,-1.009,0.058,0.043,-1.04,-2.62,-0.03,0,3
15436.703,-1.008,0.054,0.047,-1.04,-3.05,0.34,0,3
15436.718,-1.009,0.055,0.049,-0.61,-3.48,0.7,0,3
15436.734,-1.008,0.055,0.052,-0.06,-3.75,0.82,0,3
15436.75,-1.01,0.055,0.057,0.58,-4.21,1.19,0,3
15436.75,-1.01,0.052,0.057,1.22,-4.85,1.34,0,3
15436.765,-1.011,0.053,0.059,1.74,-5.77,1.71,0,3
15436.765,-1.009,0.053,0.059,1.95,-6.9,2.08,0,3
15436.781,-1.008,0.052,0.057,2.17,-8.24,2.38,0,3
15436.781,-1.0,0.053,0.056,2.2,-9.55,2.69,0,3
15436.796,-0.994,0.055,0.054,2.01,-10.77,2.93,0,3
15436.812,-0.99,0.055,0.052,2.01,-11.99,3.33,0,3
15436.812,-0.987,0.052,0.05,1.77,-12.91,3.72,0,3
15436.828,-0.984,0.046,0.047,1.89,-13.58,4.15,0,3
15436.843,-0.987,0.037,0.047,2.56,-14.22,4.61,0,3
15436.843,-0.989,0.031,0.048,3.63,-15.14,4.76,0,3
15436.859,-0.984,0.03,0.047,4.58,-15.84,4.52,0,3
15436.875,-0.985,0.031,0.046,5.13,-16.24,3.94,0,3
15436.875,-0.983,0.03,0.044,5.49,-16.72,3.39,0,3
15436.89,-0.979,0.032,0.041,6.68,-18.46,2.62,0,3
15436.906,-0.976,0.033,0.039,7.2,-19.23,2.14,0,3
15436.906,-0.982,0.035,0.038,7.48,-19.81,1.77,0,3
15436.921,-0.99,0.039,0.036,7.72,-20.23,1.53,0,3
15436.921,-0.989,0.041,0.034,8.12,-20.81,1.31,0,3
15436.937,-0.986,0.046,0.027,8.45,-21.58,1.19,0,3
15436.953,-0.975,0.052,0.016,9.03,-22.52,1.37,0,3
15436.953,-0.962,0.058,0.007,9.46,-22.58,1.83,0,3
15436.968,-0.955,0.063,0.001,9.43,-21.12,2.35,0,3
15436.984,-0.955,0.063,-0.001,9.22,-18.37,2.81,0,3
15436.984,-0.96,0.061,0.005,8.73,-14.98,2.78,0,3
15437.0,-0.963,0.057,0.013,8.73,-11.72,2.84,0,3
15437.0,-0.955,0.058,0.024,9.25,-9.06,2.99,0,3
15437.015,-0.943,0.059,0.031,10.16,-6.96,3.14,0,3
15437.031,-0.932,0.06,0.037,10.65,-5.43,3.42,0,3
15437.031,-0.918,0.059,0.044,10.68,-3.97,3.3,0,3
15437.046,-0.907,0.059,0.048,10.07,-2.66,3.02,0,3
15437.062,-0.898,0.057,0.054,8.73,-1.4,1.98,0,3
15437.062,-0.895,0.056,0.062,6.87,-0.09,0.52,0,3
15437.078,-0.893,0.054,0.071,4.88,0.98,-0.92,0,3
15437.093,-0.895,0.056,0.08,3.14,1.95,-2.26,0,3
15437.093,-0.894,0.06,0.086,1.98,2.62,-3.57,0,3
15437.109,-0.897,0.062,0.093,1.34,3.27,-4.52,0,3
15437.125,-0.899,0.063,0.097,1.56,3.69,-4.91,0,3
15437.125,-0.901,0.064,0.096,2.72,3.88,-5.1,0,3
15437.14,-0.906,0.067,0.093,4.46,4.0,-4.85,0,3
15437.156,-0.916,0.067,0.088,6.56,4.3,-4.43,0,3
15437.156,-0.927,0.063,0.082,8.51,4.58,-3.97,0,3
15437.171,-0.932,0.063,0.079,9.86,5.13,-3.6,0,3
15437.171,-0.935,0.065,0.074,10.53,5.92,-3.85,0,3
15437.187,-0.938,0.065,0.07,10.19,7.17,-4.36,0,3
15437.203,-0.941,0.067,0.071,8.79,9.0,-5.22,0,3
15437.203,-0.947,0.062,0.074,6.99,10.74,-6.16,0,3
15437.218,-0.948,0.058,0.077,5.62,12.12,-7.11,0,3
15437.234,-0.949,0.058,0.081,4.58,13.49,-8.18,0,3
15437.234,-0.96,0.055,0.082,4.18,14.56,-9.55,0,3
15437.25,-0.975,0.049,0.086,4.43,15.11,-10.41,0,3
15437.265,-0.984,0.051,0.088,5.19,14.74,-10.99,0,3
15437.265,-0.996,0.059,0.088,5.92,13.76,-11.38,0,3
15437.281,-1.001,0.064,0.085,6.16,11.9,-11.51,0,3
15437.281,-0.992,0.07,0.08,6.07,9.55,-11.35,0,3
15437.296,-0.981,0.075,0.072,5.71,7.48,-11.35,0,3
15437.312,-0.968,0.078,0.064,5.19,6.38,-11.75,0,3
15437.312,-0.954,0.081,0.058,5.04,6.56,-12.21,0,3
15437.328,-0.951,0.082,0.057,5.34,7.93,-13.09,0,3
15437.343,-0.959,0.079,0.055,5.92,9.37,-14.07,0,3
15437.343,-0.97,0.077,0.053,6.87,10.32,-14.71,0,3
15437.359,-0.973,0.081,0.052,7.81,10.5,-15.11,0,3
15437.375,-0.97,0.094,0.045,7.75,9.86,-15.47,0,3
15437.375,-0.977,0.106,0.041,6.01,8.94,-15.99,0,3
15437.39,-0.99,0.114,0.04,2.75,7.66,-16.3,0,3
15437.39,-0.995,0.12,0.045,-1.31,5.58,-16.08,0,3
15437.406,-1.0,0.128,0.051,-4.88,3.72,-15.56,0,3
15437.421,-1.01,0.128,0.056,-7.17,2.32,-14.4,0,3
15437.421,-1.02,0.124,0.06,-7.54,1.07,-12.54,0,3
15437.437,-1.031,0.12,0.061,-5.98,0.15,-9.89,0,3
15437.453,-1.042,0.118,0.058,-3.51,-0.52,-6.96,0,3
15437.453,-1.052,0.11,0.059,-0.61,-0.76,-4.03,0,3
15437.468,-1.064,0.1,0.058,2.47,0.0,-1.1,0,3
15437.484,-1.066,0.093,0.06,5.43,1.74,1.16,0,3
15437.484,-1.062,0.083,0.064,8.42,4.12,2.47,0,3
15437.5,-1.062,0.079,0.074,11.17,7.23,3.39,0,3
15437.515,-1.062,0.076,0.09,13.46,10.62,3.94,0,3
15437.515,-1.066,0.064,0.107,16.36,13.37,4.33,0,3
15437.531,-1.069,0.052,0.121,20.26,15.11,4.79,0,3
15437.546,-1.069,0.047,0.129,25.27,15.84,4.97,0,3
15437.546,-1.065,0.053,0.128,30.24,15.32,4.79,0,3
15437.562,-1.057,0.065,0.119,33.57,14.1,4.36,0,3
15437.562,-1.049,0.084,0.107,34.03,12.79,3.48,0,3
15437.578,-1.041,0.103,0.096,31.19,11.63,3.02,0,3
15437.593,-1.029,0.121,0.089,25.36,10.65,2.62,0,3
15437.609,-1.016,0.132,0.089,18.04,9.52,2.5,0,3
15437.609,-1.009,0.134,0.09,10.68,8.58,3.36,0,3
15437.625,-1.001,0.126,0.101,4.94,7.45,5.55,0,3
15437.625,-0.995,0.11,0.111,1.83,5.98,8.36,0,3
15437.64,-0.989,0.091,0.122,1.71,4.21,11.17,0,3
15437.656,-0.989,0.065,0.129,5.34,2.69,14.16,0,3
15437.656,-0.987,0.038,0.128,11.78,1.5,17.27,0,3
15437.671,-0.975,0.015,0.12,19.62,0.58,20.26,0,3
15437.687,-0.959,-0.011,0.099,26.49,0.46,21.73,0,3
15437.687,-0.951,-0.038,0.096,27.28,-0.89,18.62,0,3
15437.703,-0.949,-0.037,0.089,23.83,-3.85,13.79,0,3
15437.703,-0.944,-0.033,0.077,19.75,-6.04,11.66,0,3
15437.718,-0.941,-0.042,0.064,18.77,-6.81,10.99,0,3
15437.734,-0.934,-0.042,0.062,21.94,-5.95,11.41,0,3
15437.734,-0.932,-0.029,0.057,29.05,-4.18,11.78,0,3
15437.75,-0.94,-0.01,0.046,37.35,-2.44,11.54,0,3
15437.765,-0.951,0.004,0.034,44.04,-1.43,10.96,0,3
15437.765,-0.956,0.025,0.024,47.21,-1.95,10.41,0,3
15437.781,-0.96,0.043,0.019,45.41,-4.3,8.73,0,3
15437.796,-0.972,0.051,-0.004,39.58,-7.48,6.23,0,3
15437.796,-0.984,0.061,-0.009,30.4,-10.35,4.91,0,3
15437.812,-0.987,0.055,-0.012,21.12,-13.67,3.94,0,3
15437.812,-0.987,0.044,-0.019,13.7,-16.39,2.9,0,3
15437.828,-0.985,0.038,-0.019,8.91,-18.16,1.5,0,3
15437.843,-0.983,0.029,-0.014,7.35,-18.68,0.15,0,3
15437.843,-0.985,0.024,-0.018,8.88,-17.85,-0.7,0,3
15437.859,-0.978,0.036,-0.025,11.63,-16.02,-0.76,0,3
15437.875,-0.969,0.051,-0.034,15.66,-10.07,-1.4,0,3
15437.875,-0.965,0.067,-0.043,14.47,-7.05,-1.31,0,3
15437.89,-0.96,0.087,-0.044,11.35,-4.7,-0.7,0,3
15437.89,-0.959,0.101,-0.038,7.32,-3.11,0.18,0,3
15437.906,-0.962,0.092,-0.018,3.2,-2.11,0.95,0,3
15437.921,-0.964,0.075,0.001,0.27,-1.46,1.28,0,3
15437.921,-0.969,0.062,0.018,-0.37,-1.28,1.4,0,3
15437.937,-0.969,0.057,0.031,0.76,-1.77,1.37,0,3
15437.953,-0.967,0.056,0.036,2.56,-3.17,1.13,0,3
15437.953,-0.964,0.061,0.038,3.97,-5.22,0.98,0,3
15437.968,-0.96,0.066,0.031,4.33,-6.96,0.37,0,3
15437.984,-0.959,0.069,0.021,3.57,-8.12,-0.73,0,3
15437.984,-0.96,0.077,0.015,2.2,-8.64,-2.2,0,3
15438.0,-0.963,0.085,0.012,0.15,-8.76,-3.63,0,3
15438.015,-0.976,0.09,0.011,-2.5,-8.45,-4.58,0,3
15438.015,-0.99,0.094,0.013,-5.49,-7.81,-4.91,0,3
15438.031,-0.997,0.092,0.018,-8.42,-6.93,-4.97,0,3
15438.031,-1.005,0.09,0.027,-11.08,-5.98,-4.76,0,3
15438.046,-1.009,0.088,0.033,-13.0,-5.25,-4.36,0,3
15438.062,-1.01,0.084,0.038,-14.59,-4.82,-3.94,0,3
15438.062,-1.007,0.082,0.037,-16.08,-4.3,-3.69,0,3
15438.078,-1.004,0.085,0.036,-18.07,-4.06,-3.91,0,3
15438.093,-0.998,0.086,0.039,-20.54,-3.91,-4.46,0,3
15438.093,-0.994,0.088,0.043,-23.47,-3.72,-5.22,0,3
15438.109,-0.989,0.092,0.047,-26.86,-3.63,-6.1,0,3
15438.125,-0.986,0.099,0.052,-30.88,-3.69,-7.14,0,3
15438.125,-0.983,0.102,0.053,-35.37,-3.88,-8.09,0,3
15438.14,-0.98,0.102,0.059,-39.74,-4.24,-8.61,0,3
15438.14,-0.982,0.102,0.067,-43.61,-5.04,-8.88,0,3
15438.156,-0.979,0.1,0.074,-46.54,-6.01,-8.88,0,3
15438.171,-0.978,0.097,0.078,-48.46,-7.02,-8.7,0,3
15438.171,-0.979,0.092,0.082,-49.29,-8.09,-8.12,0,3
15438.187,-0.978,0.086,0.081,-48.77,-9.13,-7.11,0,3
15438.203,-0.978,0.081,0.082,-47.27,-9.7,-5.92,0,3
15438.203,-0.98,0.073,0.081,-44.89,-9.92,-4.55,0,3
15438.218,-0.982,0.061,0.078,-41.78,-9.64,-3.02,0,3
15438.234,-0.985,0.047,0.078,-37.66,-9.06,-1.65,0,3
15438.234,-0.982,0.039,0.075,-32.87,-7.93,-0.58,0,3
15438.25,-0.977,0.033,0.077,-27.34,-6.5,0.31,0,3
15438.265,-0.975,0.028,0.077,-21.42,-4.7,0.79,0,3
15438.265,-0.977,0.025,0.076,-15.5,-2.72,1.13,0,3
15438.281,-0.977,0.024,0.073,-9.64,-0.82,1.46,0,3
15438.281,-0.979,0.027,0.071,-4.43,0.79,1.74,0,3
15438.296,-0.983,0.031,0.064,-0.52,1.98,1.8,0,3
15438.312,-0.982,0.036,0.058,1.65,2.56,1.83,0,3
15438.312,-0.982,0.041,0.054,2.17,2.72,1.62,0,3
15438.328,-0.982,0.043,0.052,1.19,2.81,1.19,0,3
15438.343,-0.981,0.042,0.053,-0.61,2.84,0.98,0,3
15438.343,-0.979,0.039,0.055,-2.59,2.93,0.58,0,3
15438.359,-0.98,0.037,0.058,-3.85,2.9,0.18,0,3
15438.375,-0.979,0.034,0.064,-4.39,2.78,-0.24,0,3
15438.39,-0.979,0.029,0.07,-3.72,2.5,-0.18,0,3
15438.406,-0.977,0.024,0.069,-1.8,2.01,0.24,0,3
15438.421,-0.974,0.022,0.068,0.85,1.86,0.58,0,3
15438.421,-0.973,0.024,0.064,3.48,1.86,0.73,0,3
15438.437,-0.972,0.025,0.058,5.43,1.98,0.82,0,3
15438.453,-0.973,0.028,0.054,6.74,2.44,0.67,0,3
15438.453,-0.974,0.03,0.054,7.57,3.11,0.49,0,3
15438.468,-0.971,0.029,0.054,8.18,3.85,0.43,0,3
15438.484,-0.974,0.031,0.058,8.88,4.55,0.43,0,3
15438.484,-0.977,0.028,0.061,9.86,5.19,0.37,0,3
15438.5,-0.977,0.023,0.068,11.78,5.52,0.55,0,3
15438.515,-0.978,0.016,0.071,15.38,6.04,0.85,0,3
15438.515,-0.982,0.017,0.071,19.59,6.38,1.19,0,3
15438.531,-0.981,0.02,0.066,23.77,6.71,1.07,0,3
15438.546,-0.981,0.03,0.06,27.07,7.26,1.01,0,3
15438.546,-0.98,0.042,0.061,28.84,8.03,0.92,0,3
15438.562,-0.984,0.047,0.06,29.57,8.39,1.01,0,3
15438.562,-0.986,0.05,0.058,29.3,8.03,1.46,0,3
15438.578,-0.986,0.051,0.059,29.05,7.2,2.04,0,3
15438.578,-0.986,0.053,0.056,28.5,6.07,2.53,0,3
15438.593,-0.983,0.053,0.052,27.68,5.04,3.11,0,3
15438.593,-0.981,0.05,0.051,26.73,4.09,3.36,0,3
15438.593,-0.977,0.047,0.051,26.0,3.51,3.48,0,3
15438.609,-0.974,0.041,0.054,26.0,3.33,3.54,0,3
15438.625,-0.97,0.041,0.056,26.25,3.72,3.42,0,3
15438.625,-0.967,0.04,0.061,26.95,4.0,2.99,0,3
15438.64,-0.969,0.037,0.063,28.47,3.97,2.47,0,3
15438.64,-0.972,0.037,0.066,31.37,4.12,2.53,0,3
15438.656,-0.976,0.038,0.066,35.55,4.36,2.99,0,3
15438.671,-0.977,0.04,0.06,40.28,4.55,3.36,0,3
15438.671,-0.978,0.05,0.049,44.1,4.61,3.42,0,3
15438.687,-0.977,0.062,0.036,45.93,4.24,3.02,0,3
15438.703,-0.977,0.069,0.024,45.26,3.75,2.47,0,3
15438.718,-0.978,0.078,0.012,42.21,3.02,1.77,0,3
15438.718,-0.98,0.087,0.005,36.84,1.95,0.7,0,3
15438.734,-0.981,0.085,-0.001,30.52,0.98,-0.73,0,3
15438.734,-0.982,0.09,-0.004,23.87,0.31,-2.11,0,3
15438.75,-0.983,0.098,-0.005,17.09,-0.31,-3.45,0,3
15438.765,-0.99,0.099,-0.008,10.38,-1.31,-4.94,0,3
15438.765,-0.992,0.102,-0.01,3.78,-2.78,-5.58,0,3
15438.781,-0.99,0.104,-0.009,-2.35,-4.43,-5.95,0,3
15438.796,-0.99,0.095,-0.01,-6.99,-5.86,-6.01,0,3
15438.796,-0.992,0.089,-0.007,-9.83,-6.44,-5.98,0,3
15438.812,-0.993,0.085,0.001,-10.62,-6.32,-5.95,0,3
15438.812,-0.995,0.083,0.005,-9.43,-5.34,-5.86,0,3
15438.828,-0.996,0.088,0.008,-7.08,-4.0,-4.97,0,3
15438.843,-0.999,0.086,0.013,-3.69,-2.81,-3.75,0,3
15438.843,-1.005,0.088,0.016,4.0,-0.61,0.34,0,3
15438.859,-1.003,0.089,0.015,7.93,-0.06,2.62,0,3
15438.875,-0.998,0.081,0.017,11.32,0.64,4.43,0,3
15438.875,-0.994,0.074,0.016,13.86,1.83,5.71,0,3
15438.89,-0.988,0.059,0.027,15.69,3.14,6.53,0,3
15438.89,-0.987,0.049,0.037,17.06,3.94,6.96,0,3
15438.906,-0.987,0.039,0.047,19.26,4.58,7.17,0,3
15438.921,-0.982,0.037,0.057,21.64,5.04,7.63,0,3
15438.921,-0.976,0.03,0.059,24.38,5.1,7.69,0,3
15438.937,-0.973,0.033,0.058,26.8,4.79,7.2,0,3
15438.953,-0.973,0.036,0.052,28.29,4.27,6.59,0,3
15438.968,-0.976,0.043,0.042,28.2,3.3,5.74,0,3
15438.968,-0.979,0.053,0.036,26.58,1.89,4.58,0,3
15438.984,-0.979,0.062,0.026,23.19,0.31,3.42,0,3
15438.984,-0.976,0.073,0.017,18.16,-1.34,2.29,0,3
15439.0,-0.976,0.08,0.008,11.81,-3.02,0.76,0,3
15439.015,-0.976,0.084,0.005,4.52,-4.88,-0.58,0,3
15439.015,-0.975,0.079,0.005,-2.14,-6.5,-1.59,0,3
15439.031,-0.973,0.076,0.007,-6.84,-7.42,-2.56,0,3
15439.031,-0.972,0.076,0.006,-9.49,-7.54,-3.39,0,3
15439.046,-0.976,0.079,0.008,-10.16,-7.23,-3.88,0,3
15439.062,-0.992,0.078,0.018,-8.7,-6.35,-3.51,0,3
15439.062,-0.996,0.071,0.029,-4.97,-5.1,-1.59,0,3
15439.078,-0.992,0.065,0.036,0.24,-3.51,0.82,0,3
15439.093,-0.993,0.057,0.041,6.47,-2.26,2.41,0,3
15439.093,-0.988,0.056,0.039,12.18,-1.37,3.27,0,3
15439.109,-0.991,0.055,0.037,16.57,-0.49,3.57,0,3
15439.125,-0.991,0.058,0.036,19.01,0.27,3.78,0,3
15439.125,-0.99,0.054,0.045,21.3,1.25,4.03,0,3
15439.14,-0.99,0.047,0.063,25.73,2.96,4.91,0,3
15439.156,-0.99,0.036,0.083,32.53,5.31,7.02,0,3
15439.156,-0.986,0.024,0.097,42.15,7.17,9.19,0,3
15439.171,-0.985,0.018,0.108,52.83,8.76,10.8,0,3
15439.171,-0.985,0.017,0.112,62.75,10.07,11.93,0,3
15439.187,-0.99,0.023,0.12,70.99,10.65,12.54,0,3
15439.203,-0.994,0.024,0.134,77.91,10.68,13.12,0,3
15439.203,-0.997,0.032,0.139,83.71,9.92,13.86,0,3
15439.218,-0.999,0.045,0.15,88.41,8.09,14.37,0,3
15439.234,-1.005,0.047,0.154,91.68,5.52,14.25,0,3
15439.234,-1.013,0.046,0.152,94.58,2.56,14.01,0,3
15439.25,-1.018,0.053,0.146,96.84,-0.55,13.64,0,3
15439.265,-1.02,0.063,0.141,98.79,-3.54,13.09,0,3
15439.265,-1.025,0.073,0.132,100.34,-6.1,13.28,0,3
15439.281,-1.022,0.084,0.122,101.23,-8.55,13.73,0,3
15439.296,-1.02,0.092,0.11,101.26,-10.9,14.28,0,3
15439.296,-1.016,0.103,0.103,99.34,-13.34,14.22,0,3
15439.312,-1.009,0.115,0.093,96.41,-16.14,13.49,0,3
15439.312,-1.009,0.119,0.08,92.81,-18.59,12.54,0,3
15439.328,-1.006,0.123,0.074,88.35,-20.63,11.75,0,3
15439.343,-1.003,0.117,0.072,85.33,-22.61,11.11,0,3
15439.359,-0.996,0.106,0.064,84.32,-24.14,10.96,0,3
15439.359,-0.991,0.107,0.055,85.06,-24.23,10.8,0,3
15439.375,-0.994,0.105,0.049,87.28,-23.53,10.01,0,3
15439.375,-0.993,0.114,0.042,90.12,-23.04,9.37,0,3
15439.39,-0.996,0.125,0.04,92.26,-22.61,9.31,0,3
15439.406,-1.0,0.13,0.038,94.27,-22.52,9.77,0,3
15439.406,-1.0,0.141,0.037,95.74,-23.22,10.32,0,3
15439.421,-1.009,0.152,0.036,97.35,-24.08,11.57,0,3
15439.421,-1.01,0.167,0.032,98.42,-25.39,13.52,0,3
15439.437,-1.002,0.179,0.031,98.91,-27.28,15.17,0,3
15439.453,-0.994,0.183,0.031,99.46,-28.5,16.91,0,3
15439.453,-0.993,0.182,0.04,101.57,-28.14,18.98,0,3
15439.468,-0.994,0.171,0.053,106.3,-26.03,21.52,0,3
15439.484,-0.99,0.165,0.056,112.64,-23.47,23.87,0,3
15439.5,-0.986,0.17,0.059,119.72,-20.94,25.51,0,3
15439.5,-0.994,0.172,0.07,126.47,-17.67,26.64,0,3
15439.515,-1.002,0.183,0.07,131.5,-15.32,27.71,0,3
15439.515,-1.001,0.201,0.065,134.13,-14.77,27.77,0,3
15439.531,-1.015,0.221,0.065,134.04,-15.32,27.16,0,3
15439.546,-1.024,0.254,0.063,131.08,-17.43,27.34,0,3
15439.546,-1.02,0.287,0.066,125.06,-20.51,28.9,0,3
15439.562,-1.024,0.314,0.072,116.18,-24.14,30.95,0,3
15439.578,-1.031,0.338,0.08,104.92,-27.68,32.75,0,3
15439.578,-1.031,0.35,0.091,92.56,-30.67,34.03,0,3
15439.593,-1.044,0.355,0.102,81.09,-33.08,34.46,0,3
15439.593,-1.046,0.351,0.111,71.78,-36.01,34.73,0,3
15439.609,-1.047,0.341,0.114,66.53,-39.37,35.22,0,3
15439.625,-1.05,0.35,0.111,64.06,-42.27,36.38,0,3
15439.625,-1.046,0.349,0.124,63.42,-44.19,38.03,0,3
15439.64,-1.045,0.339,0.121,65.86,-45.81,39.61,0,3
15439.656,-1.04,0.351,0.113,68.79,-46.57,41.17,0,3
15439.656,-1.033,0.37,0.11,69.61,-46.54,41.81,0,3
15439.671,-1.042,0.386,0.108,68.39,-45.87,41.93,0,3
15439.671,-1.052,0.397,0.107,66.1,-44.86,42.73,0,3
15439.687,-1.054,0.407,0.114,63.11,-44.1,44.34,0,3
15439.703,-1.063,0.423,0.128,60.18,-43.52,45.9,0,3
15439.718,-1.064,0.431,0.148,57.95,-43.61,47.52,0,3
15439.718,-1.061,0.436,0.163,56.67,-44.28,50.08,0,3
15439.734,-1.058,0.431,0.18,56.55,-45.56,53.01,0,3
15439.734,-1.059,0.436,0.193,57.01,-47.18,56.09,0,3
15439.75,-1.053,0.442,0.195,57.74,-50.14,59.05,0,3
15439.765,-1.05,0.453,0.193,57.44,-53.93,62.01,0,3
15439.765,-1.037,0.468,0.188,55.3,-57.37,64.52,0,3
15439.781,-1.024,0.48,0.181,51.03,-59.6,66.68,0,3
15439.781,-1.01,0.489,0.179,44.13,-60.58,68.42,0,3
15439.796,-0.993,0.473,0.181,36.65,-60.21,70.13,0,3
15439.812,-0.985,0.45,0.184,30.15,-58.41,71.99,0,3
15439.812,-0.974,0.422,0.192,26.06,-56.28,73.03,0,3
15439.828,-0.967,0.383,0.198,24.9,-54.48,73.27,0,3
15439.843,-0.977,0.349,0.202,29.6,-52.83,71.78,0,3
15439.859,-0.985,0.328,0.202,33.88,-54.48,70.56,0,3
15439.859,-0.982,0.302,0.185,37.9,-56.4,68.67,0,3
15439.875,-0.942,0.308,0.127,41.2,-57.86,65.22,0,3
15439.875,-0.916,0.328,0.102,42.82,-57.83,60.37,0,3
15439.89,-0.896,0.36,0.078,42.09,-55.85,54.78,0,3
15439.906,-0.89,0.381,0.054,40.13,-52.37,49.29,0,3
15439.906,-0.882,0.408,0.042,37.17,-48.1,44.77,0,3
15439.921,-0.875,0.432,0.043,34.55,-43.7,41.38,0,3
15439.921,-0.885,0.456,0.054,32.41,-39.8,39.31,0,3
15439.937,-0.893,0.492,0.068,29.85,-38.39,38.85,0,3
15439.953,-0.894,0.515,0.08,27.77,-40.19,39.49,0,3
15439.953,-0.893,0.549,0.088,26.0,-43.55,40.99,0,3
15439.968,-0.89,0.579,0.091,23.87,-47.94,43.0,0,3
15439.984,-0.884,0.591,0.087,22.37,-52.74,45.05,0,3
15439.984,-0.874,0.596,0.079,22.34,-56.58,47.0,0,3
15440.0,-0.858,0.605,0.064,23.35,-58.66,48.8,0,3
15440.015,-0.845,0.614,0.046,24.32,-58.78,49.93,0,3
15440.015,-0.824,0.624,0.029,24.66,-56.83,50.51,0,3
15440.031,-0.808,0.635,0.02,24.63,-52.06,50.97,0,3
15440.046,-0.798,0.629,0.015,25.42,-45.59,51.91,0,3
15440.046,-0.792,0.629,0.016,26.95,-38.0,53.59,0,3
15440.062,-0.784,0.641,0.026,28.17,-29.69,55.21,0,3
15440.062,-0.778,0.65,0.046,28.5,-21.3,56.22,0,3
15440.078,-0.779,0.665,0.07,27.31,-14.71,56.34,0,3
15440.093,-0.771,0.675,0.099,24.45,-10.5,55.85,0,3
15440.093,-0.768,0.69,0.126,21.09,-8.15,55.64,0,3
15440.109,-0.759,0.713,0.158,16.54,-7.39,55.7,0,3
15440.125,-0.756,0.714,0.19,12.7,-7.87,55.82,0,3
15440.125,-0.764,0.707,0.211,10.83,-9.46,56.18,0,3
15440.14,-0.757,0.708,0.225,10.9,-12.85,56.86,0,3
15440.156,-0.742,0.711,0.229,12.7,-15.93,56.92,0,3
15440.156,-0.734,0.714,0.224,15.29,-18.16,57.01,0,3
15440.171,-0.724,0.726,0.221,17.98,-19.81,57.19,0,3
15440.171,-0.722,0.729,0.212,20.78,-20.94,57.8,0,3
15440.187,-0.723,0.73,0.197,23.19,-21.76,58.96,0,3
15440.203,-0.707,0.742,0.183,23.9,-22.28,60.12,0,3
15440.203,-0.692,0.747,0.174,22.58,-22.52,60.27,0,3
15440.218,-0.681,0.747,0.168,20.66,-22.34,59.66,0,3
15440.234,-0.666,0.748,0.167,19.2,-21.73,59.21,0,3
15440.25,-0.659,0.753,0.171,18.62,-20.72,59.11,0,3
15440.25,-0.661,0.761,0.174,18.1,-19.65,59.11,0,3
15440.25,-0.658,0.777,0.178,16.33,-19.71,59.11,0,3
15440.265,-0.648,0.784,0.177,13.55,-20.75,58.63,0,3
15440.281,-0.641,0.791,0.179,11.2,-22.13,58.5,0,3
15440.296,-0.636,0.789,0.18,10.83,-23.41,58.96,0,3
15440.296,-0.624,0.782,0.181,12.39,-23.9,59.94,0,3
15440.312,-0.603,0.784,0.181,15.35,-22.77,60.58,0,3
15440.312,-0.588,0.786,0.177,18.59,-20.78,60.21,0,3
15440.328,-0.579,0.803,0.172,21.03,-18.77,59.42,0,3
15440.343,-0.573,0.825,0.164,21.55,-17.18,58.63,0,3
15440.343,-0.574,0.848,0.16,19.56,-15.78,57.89,0,3
15440.359,-0.581,0.864,0.159,15.78,-15.41,57.56,0,3
15440.375,-0.583,0.866,0.159,12.02,-16.21,58.44,0,3
15440.375,-0.576,0.874,0.161,8.36,-17.21,60.18,0,3
15440.39,-0.561,0.874,0.162,4.3,-18.34,61.46,0,3
15440.39,-0.545,0.873,0.17,1.04,-19.2,61.74,0,3
15440.406,-0.529,0.877,0.191,0.12,-18.92,61.46,0,3
15440.421,-0.526,0.882,0.204,3.42,-17.43,61.65,0,3
15440.421,-0.515,0.902,0.213,7.9,-15.53,62.87,0,3
15440.437,-0.508,0.905,0.214,12.54,-14.13,64.58,0,3
15440.453,-0.498,0.901,0.208,16.66,-13.67,66.44,0,3
15440.453,-0.476,0.901,0.199,19.2,-13.49,67.9,0,3
15440.468,-0.457,0.902,0.192,19.14,-12.88,68.39,0,3
15440.484,-0.454,0.907,0.187,15.69,-12.7,68.09,0,3
15440.5,-0.455,0.908,0.18,9.77,-14.31,67.48,0,3
15440.5,-0.455,0.903,0.172,2.17,-17.61,67.38,0,3
15440.5,-0.439,0.895,0.17,-5.71,-21.06,67.11,0,3
15440.515,-0.419,0.879,0.172,-11.29,-23.35,66.16,0,3
15440.531,-0.407,0.866,0.175,-13.21,-23.8,65.37,0,3
15440.546,-0.385,0.846,0.187,-11.11,-22.89,65.25,0,3
15440.546,-0.372,0.826,0.19,-4.3,-21.21,64.76,0,3
15440.562,-0.356,0.823,0.185,5.89,-19.9,64.06,0,3
15440.562,-0.342,0.833,0.17,16.08,-18.31,63.36,0,3
15440.578,-0.33,0.849,0.159,22.89,-15.81,62.99,0,3
15440.593,-0.314,0.866,0.154,25.09,-13.4,61.71,0,3
15440.593,-0.307,0.885,0.143,23.71,-12.39,59.51,0,3
15440.609,-0.305,0.904,0.137,20.36,-12.88,57.5,0,3
15440.625,-0.302,0.919,0.143,15.56,-13.89,56.43,0,3
15440.625,-0.305,0.919,0.145,11.05,-16.02,56.31,0,3
15440.64,-0.295,0.917,0.142,8.42,-19.01,57.31,0,3
15440.64,-0.267,0.924,0.139,6.93,-21.09,58.47,0,3
15440.656,-0.243,0.92,0.131,6.93,-21.79,58.47,0,3
15440.671,-0.235,0.92,0.132,8.33,-21.76,58.17,0,3
15440.671,-0.225,0.937,0.128,10.86,-21.39,58.5,0,3
15440.687,-0.227,0.949,0.123,13.4,-20.08,58.32,0,3
15440.703,-0.224,0.948,0.117,15.14,-18.74,59.11,0,3
15440.703,-0.205,0.967,0.111,16.21,-18.1,59.18,0,3
15440.718,-0.183,0.982,0.106,15.84,-16.85,59.42,0,3
15440.734,-0.188,1.0,0.1,13.58,-15.66,59.79,0,3
15440.75,-0.187,1.007,0.098,10.44,-15.2,60.0,0,3
15440.75,-0.18,1.005,0.099,7.45,-14.77,61.22,0,3
15440.765,-0.181,0.99,0.099,6.07,-14.74,62.9,0,3
15440.765,-0.159,0.966,0.103,6.38,-14.4,64.85,0,3
15440.781,-0.136,0.945,0.102,8.21,-13.0,66.35,0,3
15440.781,-0.119,0.927,0.104,11.63,-11.14,66.68,0,3
15440.796,-0.104,0.915,0.106,15.63,-9.28,66.5,0,3
15440.812,-0.093,0.913,0.102,19.23,-7.54,66.23,0,3
15440.812,-0.084,0.926,0.104,21.15,-4.7,64.49,0,3
15440.828,-0.072,0.934,0.107,19.17,-3.91,63.33,0,3
15440.843,-0.063,0.943,0.111,16.57,-4.67,61.98,0,3
15440.843,-0.046,0.957,0.11,14.07,-7.11,61.25,0,3
15440.859,-0.042,0.971,0.104,11.47,-9.89,61.13,0,3
15440.875,-0.041,0.985,0.101,8.97,-12.15,61.31,0,3
15440.875,-0.022,1.0,0.095,6.13,-13.52,62.14,0,3
15440.89,-0.002,1.002,0.093,2.87,-13.55,62.75,0,3
15440.89,-0.002,0.986,0.092,0.95,-13.0,63.05,0,3
15440.906,0.008,0.985,0.097,0.76,-12.7,63.36,0,3
15440.921,0.022,0.985,0.099,2.23,-11.9,63.48,0,3
15440.921,0.035,0.979,0.1,5.13,-10.62,63.94,0,3
15440.937,0.04,0.973,0.098,9.28,-9.34,64.49,0,3
15440.953,0.052,0.969,0.091,13.89,-8.39,65.37,0,3
15440.953,0.064,0.966,0.085,17.79,-7.97,66.84,0,3
15440.968,0.092,0.966,0.076,19.5,-7.72,68.36,0,3
15440.984,0.114,0.97,0.068,18.28,-7.11,68.73,0,3
15440.984,0.119,0.976,0.064,14.71,-6.35,68.12,0,3
15441.0,0.108,0.976,0.057,9.4,-6.65,67.69,0,3
15441.015,0.106,0.97,0.054,3.27,-8.58,67.78,0,3
15441.015,0.117,0.95,0.053,-2.14,-10.56,68.48,0,3
15441.031,0.14,0.918,0.051,-5.19,-11.87,69.58,0,3
15441.046,0.166,0.881,0.05,-5.07,-12.36,70.13,0,3
15441.046,0.19,0.86,0.05,-1.83,-11.63,69.67,0,3
15441.062,0.213,0.852,0.047,3.45,-9.61,68.54,0,3
15441.062,0.222,0.859,0.042,9.19,-6.78,67.11,0,3
15441.078,0.221,0.866,0.038,13.92,-3.54,66.04,0,3
15441.093,0.237,0.863,0.04,16.42,-0.79,65.92,0,3
15441.109,0.261,0.86,0.043,17.27,1.19,65.68,0,3
15441.109,0.262,0.857,0.04,17.24,1.86,64.21,0,3
15441.125,0.257,0.856,0.034,16.94,0.79,62.53,0,3
15441.125,0.27,0.863,0.036,15.72,-0.82,61.8,0,3
15441.14,0.282,0.864,0.032,13.92,-2.53,61.19,0,3
15441.156,0.302,0.862,0.024,12.18,-3.66,60.49,0,3
15441.156,0.311,0.859,0.017,10.99,-4.12,59.88,0,3
15441.171,0.329,0.859,0.016,10.25,-4.33,59.54,0,3
15441.171,0.333,0.846,0.01,10.41,-4.61,59.39,0,3
15441.187,0.338,0.837,0.003,12.02,-4.91,60.0,0,3
15441.203,0.358,0.839,-0.006,13.73,-4.21,60.06,0,3
15441.203,0.374,0.848,-0.012,13.89,-1.86,59.3,0,3
15441.218,0.372,0.849,-0.014,13.0,0.95,58.6,0,3
15441.234,0.381,0.84,-0.017,11.75,2.29,58.78,0,3
15441.234,0.386,0.832,-0.023,10.62,2.56,59.48,0,3
15441.25,0.388,0.829,-0.028,8.94,2.41,59.94,0,3
15441.265,0.397,0.824,-0.029,6.26,2.26,60.09,0,3
15441.265,0.418,0.809,-0.026,3.2,2.11,60.15,0,3
15441.281,0.429,0.799,-0.026,0.95,2.35,60.0,0,3
15441.281,0.436,0.792,-0.023,-0.52,3.05,59.97,0,3
15441.296,0.472,0.795,-0.013,-1.83,4.7,60.12,0,3
15441.312,0.478,0.795,-0.003,-3.2,7.57,59.76,0,3
15441.312,0.475,0.793,0.014,-4.15,10.07,59.33,0,3
15441.328,0.484,0.802,0.034,-5.4,11.17,58.9,0,3
15441.343,0.469,0.794,0.042,-5.71,11.05,58.6,0,3
15441.359,0.485,0.784,0.053,-5.86,10.07,59.18,0,3
15441.359,0.49,0.782,0.059,-5.55,9.43,59.3,0,3
15441.375,0.501,0.777,0.059,-4.55,8.85,58.78,0,3
15441.375,0.512,0.776,0.06,-4.21,8.36,58.66,0,3
15441.39,0.506,0.775,0.055,-4.64,7.78,58.53,0,3
15441.406,0.519,0.779,0.048,-6.1,6.32,58.17,0,3
15441.406,0.527,0.786,0.039,-9.37,4.76,58.17,0,3
15441.421,0.531,0.777,0.038,-13.52,3.42,58.02,0,3
15441.421,0.526,0.761,0.04,-16.08,2.38,57.8,0,3
15441.437,0.545,0.756,0.05,-16.17,2.56,57.86,0,3
15441.453,0.554,0.746,0.058,-14.28,3.48,57.71,0,3
15441.453,0.561,0.726,0.068,-9.77,4.58,57.77,0,3
15441.468,0.562,0.715,0.076,-3.11,5.92,58.26,0,3
15441.484,0.576,0.719,0.078,4.21,7.2,57.86,0,3
15441.484,0.577,0.725,0.072,10.74,8.33,56.95,0,3
15441.5,0.577,0.735,0.06,15.44,8.85,56.64,0,3
15441.515,0.585,0.75,0.051,17.49,8.97,57.22,0,3
15441.515,0.586,0.755,0.039,17.33,9.0,57.71,0,3
15441.531,0.591,0.744,0.028,15.96,8.06,58.72,0,3
15441.546,0.602,0.733,0.024,14.77,7.54,60.03,0,3
15441.546,0.622,0.718,0.018,14.62,8.03,61.16,0,3
15441.562,0.64,0.706,0.016,15.14,9.86,61.92,0,3
15441.562,0.645,0.696,0.021,16.08,12.73,62.41,0,3
15441.578,0.639,0.689,0.028,17.21,15.47,62.93,0,3
15441.593,0.641,0.679,0.04,18.1,17.73,63.69,0,3
15441.593,0.641,0.674,0.053,17.82,19.44,63.97,0,3
15441.609,0.648,0.662,0.063,17.58,19.84,63.54,0,3
15441.625,0.657,0.661,0.078,17.64,19.75,63.36,0,3
15441.625,0.643,0.661,0.09,18.74,19.44,63.45,0,3
15441.64,0.648,0.654,0.093,20.29,18.1,64.15,0,3
15441.656,0.658,0.648,0.082,21.82,16.08,65.34,0,3
15441.656,0.659,0.643,0.06,22.13,13.7,66.5,0,3
15441.671,0.681,0.634,0.041,20.26,11.14,67.2,0,3
15441.671,0.699,0.631,0.029,17.21,10.62,67.66,0,3
15441.687,0.714,0.627,0.025,13.18,12.18,67.84,0,3
15441.703,0.703,0.602,0.027,10.32,14.77,68.48,0,3
15441.703,0.708,0.571,0.037,10.1,16.75,69.34,0,3
15441.718,0.728,0.558,0.044,11.63,18.25,69.95,0,3
15441.734,0.71,0.537,0.045,14.62,20.08,69.95,0,3
15441.734,0.708,0.527,0.044,17.79,20.63,69.98,0,3
15441.75,0.725,0.541,0.045,19.53,20.81,70.25,0,3
15441.765,0.731,0.543,0.049,19.99,21.76,71.02,0,3
15441.765,0.729,0.543,0.06,19.29,22.52,72.21,0,3
15441.781,0.751,0.53,0.072,18.59,22.68,73.4,0,3
15441.781,0.764,0.507,0.083,17.82,23.87,74.98,0,3
15441.796,0.754,0.485,0.092,17.94,25.15,76.3,0,3
15441.812,0.776,0.465,0.097,17.91,25.48,76.78,0,3
15441.812,0.768,0.439,0.1,18.46,25.54,76.72,0,3
15441.828,0.765,0.411,0.107,20.02,25.39,76.27,0,3
15441.843,0.813,0.386,0.123,22.13,25.67,75.87,0,3
15441.843,0.81,0.37,0.125,24.69,27.19,75.66,0,3
15441.859,0.799,0.339,0.13,28.81,27.77,75.44,0,3
15441.875,0.806,0.326,0.132,32.93,27.1,75.41,0,3
15441.875,0.811,0.314,0.124,36.87,25.73,74.62,0,3
15441.89,0.824,0.313,0.118,39.03,24.99,73.73,0,3
15441.89,0.836,0.309,0.115,38.03,25.51,72.85,0,3
15441.906,0.84,0.301,0.119,35.55,26.52,71.35,0,3
15441.921,0.852,0.3,0.127,32.47,27.53,69.8,0,3
15441.937,0.844,0.285,0.133,29.97,28.02,69.06,0,3
15441.937,0.83,0.265,0.133,28.75,26.7,68.58,0,3
15441.953,0.824,0.249,0.121,29.36,23.96,68.51,0,3
15441.953,0.83,0.236,0.108,30.27,21.15,69.19,0,3
15441.968,0.849,0.236,0.102,29.82,20.69,69.7,0,3
15441.984,0.871,0.226,0.102,27.65,22.83,69.95,0,3
15441.984,0.882,0.206,0.116,24.32,27.13,70.25,0,3
15442.0,0.882,0.193,0.138,21.55,31.4,69.61,0,3
15442.015,0.885,0.186,0.156,19.53,34.39,68.64,0,3
15442.015,0.873,0.178,0.174,17.15,36.16,68.09,0,3
15442.031,0.867,0.172,0.187,14.19,35.58,67.93,0,3
15442.031,0.866,0.167,0.198,10.22,33.05,68.21,0,3
15442.046,0.871,0.153,0.206,5.16,29.57,68.73,0,3
15442.062,0.902,0.143,0.217,-0.67,26.28,69.64,0,3
15442.078,0.913,0.125,0.227,-6.41,24.69,70.44,0,3
15442.078,0.891,0.064,0.242,-10.99,23.53,71.41,0,3
15442.093,0.923,0.045,0.262,-13.7,21.67,71.11,0,3
15442.093,0.903,0.004,0.264,-12.39,20.02,68.82,0,3
15442.109,0.917,-0.022,0.263,-9.16,16.72,65.4,0,3
15442.125,0.934,-0.01,0.257,-3.75,13.49,61.95,0,3
15442.125,0.929,0.01,0.247,2.32,11.69,58.38,0,3
15442.14,0.937,0.03,0.235,6.62,11.57,55.91,0,3
15442.14,0.934,0.042,0.23,8.48,13.25,54.84,0,3
15442.156,0.929,0.044,0.235,9.34,14.98,53.99,0,3
15442.171,0.917,0.031,0.249,10.07,16.11,52.83,0,3
15442.187,0.902,0.004,0.262,11.26,15.38,51.45,0,3
15442.187,0.903,0.002,0.276,12.88,11.6,49.07,0,3
15442.203,0.903,0.018,0.273,14.07,6.1,46.27,0,3
15442.203,0.912,0.034,0.257,13.92,0.61,44.5,0,3
15442.218,0.907,0.036,0.24,12.12,-2.38,44.5,0,3
15442.234,0.902,0.027,0.217,9.4,-3.91,46.08,0,3
15442.25,0.919,0.021,0.196,7.39,-4.58,48.37,0,3
15442.25,0.93,0.005,0.173,6.44,-2.99,50.9,0,3
15442.265,0.931,-0.019,0.168,6.62,0.12,53.5,0,3
15442.265,0.935,-0.029,0.16,7.66,2.66,54.57,0,3
15442.281,0.924,-0.047,0.158,9.34,5.86,55.27,0,3
15442.296,0.92,-0.048,0.153,10.93,8.24,55.33,0,3
15442.296,0.937,-0.032,0.146,10.99,10.96,54.57,0,3
15442.312,0.935,-0.024,0.139,8.64,14.31,54.17,0,3
15442.312,0.921,-0.026,0.133,4.43,16.63,54.51,0,3
15442.328,0.92,-0.036,0.14,-0.61,17.82,55.67,0,3
15442.343,0.921,-0.053,0.15,-6.16,18.65,57.44,0,3
15442.343,0.907,-0.061,0.161,-11.29,19.17,58.41,0,3
15442.359,0.899,-0.064,0.173,-17.06,18.34,59.08,0,3
15442.375,0.897,-0.081,0.185,-23.38,17.12,60.37,0,3
15442.375,0.896,-0.1,0.196,-30.34,16.3,61.98,0,3
15442.39,0.889,-0.133,0.206,-36.99,15.81,62.99,0,3
15442.406,0.881,-0.17,0.218,-41.54,14.95,63.23,0,3
15442.406,0.882,-0.197,0.231,-43.43,13.49,62.93,0,3
15442.421,0.88,-0.214,0.239,-42.3,11.41,62.14,0,3
15442.421,0.881,-0.232,0.241,-38.45,9.61,61.31,0,3
15442.437,0.896,-0.241,0.243,-34.27,8.91,61.22,0,3
15442.453,0.905,-0.252,0.244,-30.4,10.38,60.95,0,3
15442.468,0.888,-0.271,0.243,-26.37,13.0,60.7,0,3
15442.468,0.874,-0.268,0.247,-22.98,15.53,60.52,0,3
15442.484,0.866,-0.283,0.257,-20.48,18.07,60.27,0,3
15442.484,0.857,-0.302,0.267,-18.43,20.14,61.1,0,3
15442.5,0.858,-0.304,0.274,-15.99,20.72,61.59,0,3
15442.515,0.856,-0.331,0.269,-12.36,19.87,61.83,0,3
15442.515,0.854,-0.329,0.266,-9.34,18.4,62.72,0,3
15442.531,0.861,-0.32,0.262,-7.9,17.7,63.72,0,3
15442.531,0.857,-0.321,0.25,-8.48,17.82,65.13,0,3
15442.546,0.82,-0.324,0.251,-9.19,18.71,67.69,0,3
15442.562,0.802,-0.367,0.26,-8.55,19.47,71.44,0,3
15442.562,0.799,-0.398,0.265,-5.89,19.1,75.41,0,3
15442.578,0.79,-0.43,0.272,0.43,18.31,77.76,0,3
15442.593,0.815,-0.49,0.269,9.09,17.91,80.36,0,3
15442.593,0.835,-0.504,0.263,17.33,18.89,82.95,0,3
15442.609,0.851,-0.518,0.257,24.51,21.36,82.46,0,3
15442.625,0.86,-0.537,0.245,30.21,24.75,80.23,0,3
15442.625,0.835,-0.512,0.243,33.63,29.08,77.46,0,3
15442.64,0.829,-0.507,0.249,34.88,32.32,73.58,0,3
15442.656,0.814,-0.527,0.263,33.72,35.16,71.35,0,3
15442.656,0.817,-0.558,0.288,31.56,37.93,70.31,0,3
15442.671,0.834,-0.597,0.308,29.42,39.8,69.98,0,3
15442.671,0.824,-0.584,0.327,26.61,40.07,67.32,0,3
15442.687,0.848,-0.566,0.343,21.73,39.12,60.79,0,3
15442.703,0.831,-0.543,0.35,13.7,37.39,53.35,0,3
15442.718,0.784,-0.495,0.35,4.64,33.94,46.42,0,3
15442.718,0.78,-0.501,0.356,-4.76,29.91,43.67,0,3
15442.734,0.766,-0.537,0.369,-12.67,27.25,46.39,0,3
15442.734,0.752,-0.572,0.392,-15.32,26.43,49.56,0,3
15442.75,0.741,-0.594,0.401,-13.95,25.09,50.02,0,3
15442.765,0.747,-0.637,0.412,-11.2,24.26,49.96,0,3
15442.765,0.761,-0.669,0.424,-7.39,23.83,49.9,0,3
15442.781,0.771,-0.675,0.418,1.95,22.64,44.07,0,3
15442.781,0.761,-0.678,0.402,5.13,22.52,39.61,0,3
15442.796,0.736,-0.658,0.392,6.53,23.19,36.1,0,3
15442.812,0.737,-0.642,0.385,5.62,24.66,35.68,0,3
15442.828,0.767,-0.685,0.396,2.96,27.01,37.29,0,3
15442.828,0.761,-0.707,0.418,0.31,28.93,37.45,0,3
15442.843,0.748,-0.749,0.453,-2.14,31.22,35.43,0,3
15442.843,0.718,-0.765,0.478,-4.18,31.25,31.37,0,3
15442.859,0.717,-0.762,0.495,-3.88,29.02,26.43,0,3
15442.875,0.716,-0.724,0.487,-2.47,24.54,21.36,0,3
15442.875,0.709,-0.679,0.469,-0.24,19.38,16.88,0,3
15442.89,0.719,-0.659,0.457,0.27,16.05,15.32,0,3
15442.89,0.736,-0.652,0.453,-1.65,14.98,15.87,0,3
15442.906,0.726,-0.656,0.465,-4.09,16.33,17.0,0,3
15442.921,0.697,-0.661,0.479,-5.98,16.82,17.09,0,3
15442.937,0.678,-0.653,0.49,-7.08,15.78,15.75,0,3
15442.937,0.67,-0.618,0.484,-8.15,12.51,14.25,0,3
15442.953,0.683,-0.587,0.471,-10.9,8.76,14.83,0,3
15442.953,0.674,-0.58,0.485,-15.9,8.15,17.4,0,3
15442.968,0.652,-0.564,0.496,-22.68,7.32,18.25,0,3
15442.984,0.652,-0.576,0.498,-28.44,4.76,17.24,0,3
15443.0,0.66,-0.599,0.504,-31.92,2.41,17.18,0,3
15443.0,0.675,-0.593,0.495,-31.98,-0.55,16.97,0,3
15443.015,0.694,-0.575,0.464,-29.39,-2.99,16.27,0,3
15443.015,0.698,-0.549,0.447,-27.01,-2.93,17.18,0,3
15443.031,0.671,-0.508,0.435,-25.73,-1.19,18.4,0,3
15443.046,0.632,-0.484,0.428,-24.41,0.06,19.38,0,3
15443.046,0.614,-0.47,0.427,-23.44,1.1,22.0,0,3
15443.062,0.604,-0.429,0.422,-21.91,0.43,24.02,0,3
15443.062,0.599,-0.379,0.392,-18.31,-1.77,25.24,0,3
15443.078,0.586,-0.32,0.356,-14.25,-2.75,27.25,0,3
15443.093,0.567,-0.276,0.335,-9.25,-1.37,30.92,0,3
15443.093,0.541,-0.296,0.338,-0.21,2.75,37.48,0,3
15443.109,0.513,-0.344,0.37,19.35,9.03,44.68,0,3
15443.125,0.514,-0.382,0.39,52.28,16.79,50.9,0,3
15443.125,0.51,-0.399,0.366,91.62,26.95,58.08,0,3
15443.14,0.527,-0.401,0.337,126.13,39.19,66.87,0,3
15443.156,0.544,-0.432,0.306,149.91,53.53,77.79,0,3
15443.156,0.529,-0.438,0.296,157.81,67.51,87.37,0,3
15443.171,0.517,-0.456,0.308,148.44,78.19,91.59,0,3
15443.171,0.478,-0.455,0.326,123.84,84.63,90.98,0,3
15443.187,0.456,-0.463,0.362,88.69,85.48,86.92,0,3
15443.203,0.466,-0.563,0.417,49.29,84.17,84.81,0,3
15443.203,0.422,-0.661,0.475,13.49,82.67,86.18,0,3
15443.218,0.418,-0.752,0.543,-12.18,78.46,85.82,0,3
15443.234,0.444,-0.881,0.621,-28.41,75.62,85.06,0,3
15443.234,0.428,-0.974,0.702,-36.13,72.7,82.8,0,3
15443.25,0.402,-0.998,0.749,-35.0,66.56,76.51,0,3
15443.265,0.388,-0.992,0.772,-30.15,57.59,69.22,0,3
15443.265,0.373,-0.922,0.759,-24.05,46.57,61.74,0,3
15443.281,0.324,-0.84,0.718,-18.43,35.86,57.13,0,3
15443.296,0.291,-0.738,0.677,-17.21,24.6,56.49,0,3
15443.296,0.347,-0.747,0.657,-20.78,14.95,60.3,0,3
15443.312,0.359,-0.859,0.656,-27.19,11.93,69.95,0,3
15443.312,0.323,-0.894,0.655,-30.67,9.09,74.25,0,3
15443.328,0.351,-0.924,0.644,-30.12,4.27,69.7,0,3
