timestamp,ax,ay,az,gx,gy,gz,orient_label,motion_label
15443.343,0.342,-0.941,0.624,-29.3,2.04,62.87,0,3
15443.359,0.324,-0.906,0.598,-27.95,0.67,56.58,0,3
15443.359,0.329,-0.847,0.561,-26.4,0.0,50.9,0,3
15443.375,0.304,-0.768,0.535,-27.19,1.4,46.39,0,3
15443.375,0.267,-0.695,0.517,-30.18,2.23,44.53,0,3
15443.39,0.256,-0.648,0.505,-35.25,2.87,46.69,0,3
15443.406,0.225,-0.622,0.495,-40.71,3.75,50.39,0,3
15443.406,0.199,-0.606,0.494,-45.17,4.36,54.11,0,3
15443.421,0.199,-0.582,0.492,-48.22,3.6,57.99,0,3
15443.421,0.262,-0.677,0.501,-47.94,4.43,63.91,0,3
15443.437,0.304,-0.873,0.528,-42.85,10.1,76.48,0,3
15443.453,0.263,-0.994,0.552,-28.81,16.21,85.67,0,3
15443.468,0.272,-1.05,0.549,-9.03,19.07,85.06,0,3
15443.468,0.272,-1.026,0.538,8.27,22.52,76.42,0,3
15443.484,0.243,-0.97,0.512,18.89,26.09,64.67,0,3
15443.484,0.229,-0.898,0.496,18.59,27.86,54.23,0,3
15443.5,0.221,-0.849,0.496,9.09,29.02,48.52,0,3
15443.515,0.227,-0.867,0.521,-5.19,31.22,48.07,0,3
15443.515,0.201,-0.951,0.558,-17.52,33.54,51.88,0,3
15443.531,0.174,-1.011,0.592,-23.16,32.9,53.41,0,3
15443.531,0.168,-1.031,0.608,-22.74,29.02,49.23,0,3
15443.546,0.169,-1.024,0.605,-19.32,24.69,43.37,0,3
15443.562,0.158,-0.986,0.594,-15.11,21.06,39.55,0,3
15443.562,0.143,-0.944,0.58,-11.23,18.01,38.0,0,3
15443.578,0.141,-0.927,0.578,-9.16,15.32,38.12,0,3
15443.593,0.159,-0.957,0.591,-6.65,13.55,40.22,0,3
15443.593,0.166,-1.041,0.606,-1.4,13.43,43.49,0,3
15443.609,0.154,-1.071,0.611,5.71,13.37,42.7,0,3
15443.625,0.151,-1.058,0.609,11.99,12.48,37.11,0,3
15443.625,0.13,-1.027,0.598,15.17,11.44,30.67,0,3
15443.64,0.116,-0.984,0.589,14.89,10.04,26.03,0,3
15443.656,0.117,-0.927,0.577,11.08,8.21,22.55,0,3
15443.656,0.133,-0.914,0.576,5.19,6.96,20.23,0,3
15443.671,0.13,-0.931,0.582,-0.31,6.74,20.17,0,3
15443.671,0.108,-0.946,0.587,-2.29,6.41,19.75,0,3
15443.687,0.107,-0.953,0.586,-1.89,5.4,17.64,0,3
15443.703,0.115,-0.963,0.585,-1.13,5.74,15.47,0,3
15443.703,0.125,-0.975,0.589,-0.52,7.72,13.92,0,3
15443.718,0.126,-0.978,0.6,-0.15,10.38,12.42,0,3
15443.734,0.122,-0.981,0.614,0.24,11.99,10.25,0,3
15443.75,0.115,-0.991,0.631,1.4,11.6,7.42,0,3
15443.75,0.106,-0.981,0.639,3.72,9.16,4.24,0,3
15443.75,0.106,-0.973,0.637,6.9,5.95,1.46,0,3
15443.765,0.1,-0.966,0.631,14.71,3.2,-0.85,0,3
15443.781,0.1,-0.957,0.629,17.73,3.78,-1.95,0,3
15443.781,0.095,-0.944,0.629,19.38,3.97,-3.3,0,3
15443.796,0.091,-0.922,0.63,19.1,3.42,-4.39,0,3
15443.812,0.097,-0.93,0.631,17.06,2.17,-5.07,0,3
15443.828,0.101,-0.949,0.631,14.89,0.67,-5.8,0,3
15443.828,0.107,-0.95,0.627,13.64,-0.52,-7.6,0,3
15443.843,0.103,-0.947,0.623,13.0,-1.83,-10.35,0,3
15443.859,0.099,-0.934,0.618,9.92,-4.58,-14.86,0,3
15443.875,0.101,-0.939,0.618,7.11,-6.53,-16.21,0,3
15443.875,0.108,-0.957,0.62,4.7,-8.27,-17.46,0,3
15443.89,0.115,-0.974,0.622,3.88,-9.52,-18.89,0,3
15443.89,0.126,-0.993,0.624,4.67,-10.07,-20.78,0,3
15443.906,0.136,-1.02,0.63,6.35,-9.86,-22.43,0,3
15443.921,0.137,-1.054,0.636,9.34,-9.22,-24.2,0,3
15443.921,0.147,-1.099,0.65,13.43,-8.58,-26.64,0,3
15443.937,0.164,-1.144,0.664,18.59,-7.45,-30.0,0,3
15443.953,0.164,-1.176,0.677,24.51,-5.86,-34.55,0,3
15443.953,0.164,-1.198,0.689,29.76,-4.94,-40.35,0,3
15443.968,0.156,-1.187,0.694,32.99,-5.4,-47.73,0,3
15443.984,0.144,-1.153,0.696,33.51,-7.23,-56.52,0,3
15443.984,0.138,-1.137,0.702,31.22,-9.8,-64.09,0,3
15444.0,0.133,-1.137,0.713,27.22,-12.51,-68.88,0,3
15444.015,0.134,-1.162,0.727,24.08,-15.38,-71.72,0,3
15444.015,0.131,-1.196,0.737,22.22,-17.7,-74.5,0,3
15444.031,0.12,-1.219,0.747,22.13,-19.53,-79.04,0,3
15444.031,0.114,-1.241,0.753,23.65,-21.21,-85.39,0,3
15444.046,0.118,-1.258,0.755,26.61,-22.74,-91.92,0,3
15444.062,0.105,-1.241,0.748,30.18,-24.51,-98.82,0,3
15444.062,0.087,-1.192,0.726,33.63,-28.11,-107.82,0,3
15444.078,0.072,-1.131,0.695,35.92,-32.01,-116.86,0,3
15444.093,0.062,-1.054,0.665,35.52,-35.83,-124.61,0,3
15444.109,0.057,-0.98,0.651,33.27,-39.61,-129.76,0,3
15444.109,0.043,-0.936,0.637,29.6,-44.07,-130.44,0,3
15444.125,0.04,-0.925,0.638,24.96,-48.89,-129.18,0,3
15444.125,0.044,-0.964,0.647,21.21,-52.64,-127.51,0,3
15444.14,0.021,-0.987,0.645,21.09,-55.88,-127.26,0,3
15444.156,0.017,-0.95,0.619,24.78,-61.62,-131.81,0,3
15444.156,0.022,-0.901,0.565,29.54,-68.61,-138.86,0,3
15444.171,0.038,-0.824,0.501,31.43,-73.06,-143.77,0,3
15444.187,0.108,-0.729,0.43,28.72,-75.14,-146.37,0,3
15444.187,0.147,-0.667,0.357,23.01,-73.18,-146.49,0,3
15444.203,0.153,-0.634,0.308,14.83,-66.68,-144.14,0,3
15444.203,0.201,-0.617,0.308,4.24,-56.73,-141.33,0,3
15444.218,0.221,-0.622,0.324,-4.67,-44.22,-138.46,0,3
15444.234,0.25,-0.628,0.356,-10.28,-32.44,-137.0,0,3
15444.234,0.289,-0.646,0.394,-11.38,-22.68,-136.72,0,3
15444.25,0.313,-0.629,0.416,-7.32,-16.3,-137.24,0,3
15444.265,0.383,-0.541,0.409,-1.31,-15.38,-139.29,0,3
15444.265,0.447,-0.444,0.395,1.04,-14.62,-139.44,0,3
15444.281,0.459,-0.393,0.406,-2.72,-10.86,-135.5,0,3
15444.296,0.436,-0.384,0.437,-9.31,-7.14,-128.21,0,3
15444.296,0.42,-0.403,0.472,-14.19,-6.04,-119.97,0,3
15444.312,0.432,-0.439,0.5,-15.23,-7.17,-112.52,0,3
15444.312,0.453,-0.448,0.516,-12.6,-9.46,-107.85,0,3
15444.328,0.487,-0.456,0.515,-7.69,-11.87,-105.75,0,3
15444.343,0.502,-0.458,0.497,-1.4,-13.09,-103.82,0,3
15444.359,0.606,-0.421,0.424,10.65,-15.96,-100.53,0,3
15444.375,0.599,-0.4,0.388,13.55,-13.82,-98.06,0,3
15444.375,0.578,-0.382,0.373,14.28,-9.86,-96.32,0,3
15444.39,0.565,-0.355,0.372,13.09,-5.49,-94.94,0,3
15444.406,0.547,-0.328,0.374,11.75,-1.83,-93.11,0,3
15444.406,0.551,-0.311,0.38,11.14,1.1,-90.64,0,3
15444.421,0.575,-0.312,0.391,10.74,3.88,-87.44,0,3
15444.421,0.593,-0.345,0.404,12.05,6.9,-83.47,0,3
15444.437,0.595,-0.366,0.412,16.17,8.76,-80.69,0,3
15444.453,0.593,-0.367,0.398,21.7,8.3,-79.71,0,3
15444.453,0.597,-0.349,0.38,25.79,6.38,-80.51,0,3
15444.468,0.605,-0.306,0.361,26.86,5.13,-82.16,0,3
15444.484,0.592,-0.272,0.342,24.51,4.73,-83.1,0,3
15444.484,0.593,-0.259,0.335,20.33,4.73,-82.52,0,3
15444.5,0.613,-0.265,0.329,16.97,6.35,-80.69,0,3
15444.515,0.628,-0.275,0.327,14.95,10.13,-78.89,0,3
15444.531,0.624,-0.242,0.321,13.73,17.79,-81.0,0,3
15444.546,0.601,-0.205,0.313,11.93,20.36,-82.58,0,3
15444.546,0.567,-0.157,0.307,7.54,21.61,-82.71,0,3
15444.562,0.533,-0.107,0.304,0.98,21.55,-82.0,0,3
15444.562,0.514,-0.047,0.302,-6.53,21.42,-81.58,0,3
15444.578,0.486,0.028,0.301,-15.17,22.46,-81.0,0,3
15444.593,0.44,0.1,0.302,-22.68,23.87,-79.17,0,3
15444.593,0.402,0.158,0.3,-27.74,24.38,-75.26,0,3
15444.609,0.365,0.211,0.296,-30.18,24.48,-68.0,0,3
15444.625,0.338,0.241,0.294,-28.72,24.81,-56.92,0,3
15444.625,0.324,0.232,0.289,-22.77,24.96,-43.4,0,3
15444.64,0.344,0.193,0.276,-13.46,26.52,-28.08,0,3
15444.64,0.359,0.169,0.268,-3.42,31.4,-13.67,0,3
15444.656,0.339,0.166,0.266,6.56,38.54,-3.78,0,3
15444.671,0.317,0.169,0.278,14.74,45.96,1.68,0,3
15444.687,0.301,0.188,0.295,19.75,52.03,4.27,0,3
15444.703,0.322,0.233,0.31,25.21,54.81,10.74,0,3
15444.703,0.325,0.252,0.327,27.77,54.29,15.17,0,3
15444.718,0.345,0.253,0.33,32.5,52.22,19.32,0,3
15444.734,0.352,0.261,0.337,40.47,51.15,23.93,0,3
15444.734,0.348,0.269,0.352,50.57,51.97,28.02,0,3
15444.75,0.374,0.282,0.366,67.9,61.77,34.24,0,3
15444.765,0.419,0.305,0.385,72.7,68.48,36.35,0,3
15444.765,0.466,0.304,0.403,76.63,73.76,39.06,0,3
15444.781,0.515,0.297,0.418,81.3,77.61,41.05,0,3
15444.781,0.511,0.279,0.475,87.34,81.33,41.26,0,3
15444.796,0.517,0.284,0.519,94.15,83.41,39.46,0,3
15444.812,0.491,0.322,0.566,102.08,84.54,37.63,0,3
15444.828,0.497,0.338,0.599,107.97,84.38,38.0,0,3
15444.828,0.556,0.352,0.619,109.87,81.21,39.55,0,3
15444.843,0.599,0.362,0.616,109.38,76.54,41.81,0,3
15444.843,0.622,0.363,0.623,104.98,72.57,44.5,0,3
15444.875,0.641,0.346,0.662,85.15,69.03,42.57,0,3
15444.875,0.632,0.353,0.704,73.34,69.0,38.64,0,3
15444.89,0.638,0.34,0.769,61.43,70.93,34.79,0,3
15444.906,0.686,0.355,0.83,49.99,69.06,29.85,0,3
15444.906,0.699,0.34,0.847,41.17,63.72,26.28,0,3
15444.921,0.713,0.266,0.885,35.95,61.07,26.95,0,3
15444.921,0.732,0.197,0.944,36.04,57.71,27.07,0,3
15444.937,0.745,0.134,0.999,42.73,52.28,24.05,0,3
15444.953,0.741,0.064,1.04,56.15,45.56,17.33,0,3
15444.968,0.759,0.0,1.042,73.12,34.24,8.09,0,3
15444.968,0.842,0.024,1.033,85.94,22.61,-2.66,0,3
15444.984,0.845,0.006,1.027,95.68,12.63,-15.53,0,3
15444.984,0.852,-0.031,1.007,104.13,1.43,-28.41,0,3
15445.0,0.878,0.007,0.98,107.88,-9.28,-39.28,0,3
15445.015,0.897,-0.004,0.939,112.58,-19.62,-50.08,0,3
15445.015,0.903,0.009,0.881,120.21,-31.71,-62.17,0,3
15445.031,0.881,0.051,0.789,141.21,-47.82,-83.29,0,3
15445.046,0.881,0.08,0.753,146.09,-50.57,-93.78,0,3
15445.062,0.869,0.116,0.714,149.02,-49.78,-106.33,0,3
15445.062,0.92,0.219,0.683,145.76,-45.99,-118.2,0,3
15445.078,0.945,0.393,0.661,133.7,-40.5,-129.25,0,3
15445.093,0.904,0.496,0.641,118.29,-34.18,-137.58,0,3
15445.093,0.834,0.595,0.655,97.78,-28.08,-142.77,0,3
15445.109,0.755,0.769,0.724,73.21,-20.36,-147.56,0,3
15445.125,0.678,0.897,0.799,46.75,-13.73,-151.49,0,3
15445.125,0.62,0.912,0.871,22.74,-11.05,-151.28,0,3
15445.14,0.602,0.931,0.929,7.45,-12.57,-145.05,0,3
15445.156,0.596,0.967,0.948,5.25,-15.96,-134.89,0,3
15445.156,0.593,1.013,0.949,11.23,-16.69,-123.39,0,3
15445.171,0.591,1.079,0.976,16.3,-9.25,-112.77,0,3
15445.171,0.599,1.079,1.006,18.74,3.81,-101.99,0,3
15445.187,0.583,1.081,1.04,19.9,21.18,-90.58,0,3
15445.203,0.535,1.087,1.095,21.58,40.44,-80.32,0,3
15445.218,0.473,1.027,1.147,27.41,54.78,-68.0,0,3
15445.218,0.4,0.982,1.188,36.68,63.26,-52.74,0,3
15445.234,0.338,0.989,1.233,45.14,64.97,-38.85,0,3
15445.234,0.274,0.956,1.282,49.29,59.18,-28.41,0,3
15445.25,0.239,0.923,1.312,45.63,46.75,-22.16,0,3
15445.265,0.229,0.877,1.316,35.68,29.3,-19.38,0,3
15445.265,0.224,0.821,1.296,20.97,8.88,-20.94,0,3
15445.281,0.237,0.782,1.265,2.87,-10.53,-23.19,0,3
15445.281,0.252,0.764,1.223,-15.56,-25.91,-24.05,0,3
15445.296,0.258,0.739,1.182,-33.42,-35.58,-22.8,0,3
15445.312,0.275,0.681,1.144,-47.94,-40.53,-19.17,0,3
15445.312,0.3,0.599,1.103,-55.45,-41.54,-13.06,0,3
15445.328,0.324,0.522,1.05,-53.32,-39.83,-6.71,0,3
15445.343,0.345,0.466,0.988,-44.71,-35.43,-2.56,0,3
15445.343,0.363,0.422,0.929,-34.12,-29.24,-1.01,0,3
15445.359,0.374,0.395,0.877,-25.15,-21.0,-3.33,0,3
15445.375,0.372,0.416,0.836,-21.03,-10.86,-8.7,0,3
15445.375,0.351,0.443,0.816,-23.62,1.98,-14.16,0,3
15445.39,0.34,0.456,0.825,-31.89,15.05,-18.4,0,3
15445.406,0.298,0.464,0.843,-41.29,24.72,-20.63,0,3
15445.406,0.255,0.456,0.858,-46.97,29.24,-20.97,0,3
15445.421,0.241,0.444,0.864,-47.98,29.45,-19.68,0,3
15445.421,0.247,0.433,0.853,-44.95,28.84,-18.71,0,3
15445.437,0.258,0.429,0.825,-38.7,30.37,-19.38,0,3
15445.453,0.273,0.444,0.789,-31.43,35.04,-21.21,0,3
15445.453,0.28,0.478,0.745,-26.15,42.27,-24.9,0,3
15445.468,0.28,0.518,0.698,-23.53,50.51,-29.36,0,3
15445.484,0.269,0.553,0.67,-23.8,60.34,-31.43,0,3
15445.484,0.235,0.58,0.675,-27.86,69.67,-28.96,0,3
15445.5,0.199,0.584,0.69,-33.3,75.23,-22.06,0,3
15445.515,0.175,0.592,0.726,-37.42,76.54,-12.91,0,3
15445.515,0.162,0.594,0.753,-38.97,74.65,-3.27,0,3
15445.531,0.145,0.557,0.791,-36.41,69.46,14.89,0,3
15445.546,0.155,0.539,0.794,-33.45,68.33,17.7,0,3
15445.562,0.16,0.51,0.804,-30.27,68.76,16.08,0,3
15445.578,0.153,0.496,0.821,-27.47,69.37,13.0,0,3
15445.578,0.144,0.474,0.829,-25.91,69.37,10.65,0,3
15445.593,0.14,0.467,0.849,-26.86,69.09,10.13,0,3
15445.593,0.128,0.462,0.874,-28.05,67.23,9.83,0,3
15445.609,0.124,0.442,0.891,-29.02,63.42,10.32,0,3
15445.625,0.118,0.427,0.906,-29.91,58.66,10.53,0,3
15445.625,0.113,0.411,0.929,-29.54,53.07,9.37,0,3
15445.64,0.1,0.392,0.937,-28.47,46.36,7.84,0,3
15445.656,0.094,0.382,0.936,-27.92,39.28,5.71,0,3
15445.656,0.095,0.371,0.925,-26.95,32.93,2.96,0,3
15445.671,0.101,0.373,0.91,-25.18,29.3,0.09,0,3
15445.671,0.111,0.39,0.905,-22.98,28.66,-2.66,0,3
15445.687,0.113,0.4,0.906,-19.87,29.51,-4.03,0,3
15445.703,0.095,0.399,0.921,-13.15,33.11,-1.59,0,3
15445.718,0.076,0.416,0.947,-8.97,34.42,-1.01,0,3
15445.734,0.048,0.435,0.965,-6.96,28.63,-0.15,0,3
15445.734,0.04,0.45,0.973,-8.36,22.06,0.64,0,3
15445.75,0.039,0.457,0.976,-10.9,14.8,1.19,0,3
15445.765,0.047,0.458,0.976,-13.82,8.27,1.19,0,3
15445.765,0.047,0.436,1.001,-17.27,2.32,1.56,0,3
15445.781,0.056,0.424,1.022,-20.94,-3.63,1.83,0,3
15445.796,0.069,0.4,1.027,-22.71,-7.66,1.53,0,3
15445.796,0.078,0.378,1.024,-21.85,-8.82,0.09,0,3
15445.812,0.088,0.364,1.008,-18.52,-8.42,-1.62,0,3
15445.812,0.091,0.361,0.994,-12.48,-6.68,-2.72,0,3
15445.828,0.087,0.368,0.981,-5.07,-5.28,-4.06,0,3
15445.843,0.086,0.387,0.967,1.68,-5.22,-4.76,0,3
15445.843,0.065,0.415,0.918,7.45,-4.55,-5.34,0,3
15445.859,0.112,0.376,0.843,14.37,-0.7,-2.66,0,3
15445.875,0.085,0.402,0.877,14.25,4.0,-3.3,0,3
15445.875,0.061,0.495,0.89,3.63,3.54,-3.78,0,3
15445.89,0.061,0.421,0.873,-3.17,1.98,-0.09,0,3
15445.906,0.098,0.408,0.884,-11.78,-0.34,2.41,0,3
15445.906,0.102,0.392,0.887,-15.81,-0.18,1.95,0,3
15445.921,0.108,0.359,0.899,-15.93,0.92,0.98,0,3
15445.921,0.11,0.37,0.916,-13.49,3.45,-0.27,0,3
15445.937,0.092,0.367,0.929,-11.11,5.49,-0.61,0,3
15445.953,0.09,0.367,0.945,-11.11,6.32,0.03,0,3
15445.953,0.086,0.368,0.966,-11.11,6.2,0.73,0,3
15445.968,0.097,0.348,0.966,-10.56,3.88,0.73,0,3
15445.984,0.106,0.349,0.947,-8.67,1.83,-0.46,0,3
15445.984,0.116,0.349,0.933,-5.86,2.2,-1.71,0,3
15446.0,0.11,0.353,0.91,-4.43,4.09,-2.47,0,3
15446.015,0.103,0.383,0.892,-4.55,6.41,-1.1,0,3
15446.015,0.12,0.383,0.887,-5.77,9.49,1.31,0,3
15446.031,0.119,0.348,0.896,-9.52,11.78,1.56,0,3
15446.031,0.106,0.345,0.912,-14.44,12.6,0.18,0,3
15446.046,0.095,0.34,0.931,-16.85,12.42,-0.89,0,3
15446.062,0.088,0.326,0.945,-17.37,10.99,-1.53,0,3
15446.062,0.091,0.332,0.952,-15.17,9.16,-1.56,0,3
15446.078,0.091,0.345,0.953,-9.8,7.87,-1.31,0,3
15446.093,0.089,0.348,0.938,-3.3,7.48,-1.01,0,3
15446.093,0.08,0.357,0.932,1.62,7.48,-1.4,0,3
15446.109,0.07,0.37,0.924,3.3,7.45,-1.68,0,3
15446.125,0.059,0.376,0.924,0.61,6.74,-1.1,0,3
15446.125,0.051,0.382,0.926,-4.64,5.1,-0.31,0,3
15446.14,0.049,0.382,0.915,-9.4,2.81,0.61,0,3
15446.156,0.051,0.365,0.91,-12.15,1.04,1.28,0,3
15446.156,0.058,0.355,0.907,-12.76,0.27,1.25,0,3
15446.171,0.065,0.356,0.902,-11.69,0.34,0.85,0,3
15446.171,0.07,0.356,0.901,-10.1,1.28,0.49,0,3
15446.187,0.061,0.364,0.909,-9.19,2.44,0.37,0,3
15446.203,0.052,0.362,0.926,-9.22,2.17,1.16,0,3
15446.203,0.073,0.341,0.89,-10.25,0.82,2.08,0,3
15446.234,-0.018,0.332,0.966,-11.54,12.85,-0.46,0,3
15446.234,-0.003,0.354,1.061,-10.96,3.85,4.15,0,3
15446.25,0.077,0.346,0.974,-17.15,-9.37,4.82,0,3
15446.265,0.078,0.288,0.934,-17.4,-9.13,2.69,0,3
15446.265,0.085,0.272,0.945,-10.32,-3.94,1.83,0,3
15446.281,0.079,0.301,0.949,-3.11,0.27,1.68,0,3
15446.296,0.063,0.313,0.967,-0.31,2.72,1.83,0,3
15446.296,0.058,0.312,0.988,-0.06,3.54,2.35,0,3
15446.312,0.057,0.309,0.987,-0.58,2.87,2.72,0,3
15446.312,0.048,0.32,0.988,0.06,2.11,3.57,0,3
15446.328,0.042,0.323,0.992,1.95,0.31,5.16,0,3
15446.343,0.045,0.325,0.993,3.81,-2.78,6.13,0,3
15446.343,0.041,0.335,0.998,5.52,-6.41,5.62,0,3
15446.359,0.006,0.361,1.025,7.69,-11.54,5.74,0,3
15446.375,0.106,0.335,0.933,6.35,-18.89,7.42,0,3
15446.375,0.104,0.318,0.875,4.7,-14.71,4.58,0,3
15446.406,0.099,0.308,0.929,-4.03,-9.74,-2.66,0,3
15446.406,0.097,0.322,0.917,-6.04,-10.32,0.21,0,3
15446.421,0.107,0.308,0.927,-4.18,-9.98,3.2,0,3
15446.421,0.124,0.291,0.928,-0.46,-9.95,3.23,0,3
15446.437,0.122,0.313,0.921,3.97,-9.25,1.31,0,3
15446.453,0.127,0.336,0.909,7.81,-8.06,0.0,0,3
15446.453,0.127,0.353,0.896,8.58,-6.32,-0.31,0,3
15446.468,0.119,0.365,0.9,6.93,-4.33,0.43,0,3
15446.484,0.118,0.374,0.903,4.49,-2.99,1.31,0,3
15446.484,0.12,0.375,0.904,1.59,-2.01,1.95,0,3
15446.5,0.117,0.374,0.909,-0.67,-1.5,2.41,0,3
15446.515,0.118,0.372,0.912,-1.77,-1.22,2.75,0,3
15446.515,0.112,0.366,0.911,-1.86,-0.58,3.2,0,3
15446.531,0.108,0.356,0.914,-1.8,0.4,3.75,0,3
15446.531,0.11,0.348,0.912,-1.74,1.74,4.36,0,3
15446.546,0.11,0.341,0.912,-1.68,3.42,4.33,0,3
15446.562,0.107,0.339,0.916,-2.08,4.97,3.66,0,3
15446.562,0.099,0.34,0.918,-2.81,6.47,2.69,0,3
15446.578,0.093,0.34,0.924,-4.0,7.75,1.95,0,3
15446.593,0.086,0.337,0.932,-5.28,8.42,1.62,0,3
15446.593,0.082,0.339,0.939,-6.59,8.0,1.65,0,3
15446.609,0.078,0.332,0.941,-7.29,7.26,1.98,0,3
15446.625,0.078,0.33,0.948,-7.51,6.16,2.23,0,3
15446.625,0.079,0.33,0.949,-7.14,4.76,2.53,0,3
15446.64,0.08,0.32,0.951,-6.26,3.54,3.14,0,3
15446.64,0.088,0.312,0.95,-5.22,2.53,3.75,0,3
15446.656,0.093,0.317,0.945,-4.24,1.98,3.66,0,3
15446.671,0.093,0.316,0.94,-3.94,1.46,2.87,0,3
15446.671,0.095,0.313,0.93,-3.94,0.85,1.89,0,3
15446.687,0.093,0.319,0.928,-4.21,1.04,1.1,0,3
15446.703,0.087,0.321,0.929,-4.76,1.74,0.52,0,3
15446.703,0.079,0.313,0.934,-5.01,2.38,0.7,0,3
15446.718,0.071,0.314,0.94,-4.76,2.96,0.24,0,3
15446.734,0.069,0.319,0.943,-4.33,3.23,-0.15,0,3
15446.734,0.065,0.317,0.944,-3.57,3.57,-0.34,0,3
15446.75,0.067,0.314,0.938,-2.75,3.94,-0.55,0,3
15446.75,0.073,0.312,0.932,-1.74,4.52,-0.58,0,3
15446.765,0.073,0.313,0.927,-1.31,4.79,-0.58,0,3
15446.781,0.068,0.314,0.925,-1.56,4.64,-0.67,0,3
15446.781,0.063,0.319,0.928,-2.11,4.61,-0.49,0,3
15446.796,0.059,0.323,0.93,-3.36,4.49,-0.15,0,3
15446.812,0.059,0.325,0.931,-4.88,4.3,0.03,0,3
15446.812,0.058,0.325,0.933,-6.07,4.67,0.37,0,3
15446.828,0.064,0.321,0.934,-6.68,5.28,0.55,0,3
15446.843,0.064,0.318,0.938,-6.29,6.29,0.67,0,3
15446.843,0.064,0.31,0.94,-4.91,7.35,1.13,0,3
15446.859,0.061,0.303,0.946,-3.08,8.0,1.53,0,3
15446.875,0.058,0.305,0.951,-1.22,7.78,1.83,0,3
15446.875,0.057,0.304,0.951,-0.21,6.93,2.04,0,3
15446.89,0.059,0.301,0.949,-0.34,5.83,2.23,0,3
15446.89,0.062,0.297,0.947,-1.16,4.79,2.2,0,3
15446.921,0.068,0.291,0.945,-3.45,3.39,0.82,0,3
15446.937,0.063,0.291,0.949,-4.39,3.23,-0.27,0,3
15446.937,0.058,0.286,0.952,-5.1,3.3,-1.04,0,3
15446.953,0.054,0.286,0.961,-5.34,3.39,-1.53,0,3
15446.953,0.051,0.287,0.971,-4.73,2.93,-1.92,0,3
15446.968,0.048,0.289,0.973,-3.39,1.71,-2.01,0,3
15446.984,0.053,0.292,0.97,-1.74,-0.06,-2.26,0,3
15446.984,0.062,0.295,0.965,-0.09,-1.5,-2.5,0,3
15447.0,0.067,0.3,0.958,1.43,-2.26,-2.66,0,3
15447.015,0.067,0.304,0.953,2.56,-2.53,-2.56,0,3
15447.015,0.063,0.309,0.96,2.96,-2.93,-2.04,0,3
15447.031,0.06,0.32,0.969,2.75,-3.81,-1.07,0,3
15447.046,0.059,0.323,0.977,2.38,-5.62,-0.03,0,3
15447.046,0.068,0.317,0.98,2.14,-7.63,0.89,0,3
15447.062,0.085,0.313,0.977,2.78,-8.67,1.28,0,3
15447.062,0.104,0.304,0.968,4.49,-8.27,0.92,0,3
15447.093,0.116,0.287,0.968,8.73,-4.03,0.21,0,3
15447.093,0.126,0.292,0.975,10.04,-1.59,-0.31,0,3
15447.109,0.134,0.297,0.981,11.11,0.27,-1.22,0,3
15447.125,0.142,0.299,0.982,12.67,1.43,-1.89,0,3
15447.125,0.155,0.312,0.982,14.8,1.98,-2.01,0,3
15447.14,0.159,0.335,0.973,18.46,2.75,-1.34,0,3
15447.14,0.154,0.349,0.959,22.89,3.72,-0.34,0,3
15447.156,0.146,0.366,0.944,26.7,5.19,1.43,0,3
15447.171,0.14,0.391,0.935,27.53,6.68,3.23,0,3
15447.171,0.135,0.418,0.918,23.99,6.68,4.39,0,3
15447.187,0.13,0.426,0.9,16.63,5.55,5.65,0,3
15447.203,0.123,0.425,0.895,6.78,4.21,7.11,0,3
15447.218,0.124,0.407,0.891,-1.43,4.09,9.19,0,3
15447.218,0.116,0.377,0.885,-5.74,5.98,11.72,0,3
15447.234,0.111,0.357,0.88,-6.44,9.83,14.65,0,3
15447.234,0.107,0.342,0.882,-3.51,14.98,18.07,0,3
15447.25,0.094,0.327,0.875,3.45,21.33,22.03,0,3
15447.265,0.082,0.339,0.86,10.56,27.8,25.94,0,3
15447.265,0.072,0.358,0.859,15.72,33.97,28.35,0,3
15447.281,0.052,0.372,0.862,16.97,39.52,29.05,0,3
15447.281,0.031,0.38,0.874,13.09,42.21,27.99,0,3
15447.296,0.016,0.389,0.899,7.63,41.99,26.06,0,3
15447.312,0.002,0.391,0.91,3.6,39.03,24.11,0,3
15447.312,-0.002,0.388,0.91,0.24,33.45,22.86,0,3
15447.328,-0.004,0.381,0.9,-2.17,27.5,22.71,0,3
15447.343,-0.0,0.382,0.879,-4.03,23.1,24.41,0,3
15447.343,0.006,0.37,0.86,-5.58,21.97,27.99,0,3
15447.359,0.004,0.363,0.856,-6.13,23.87,31.68,0,3
15447.375,0.0,0.355,0.871,-3.3,28.23,34.85,0,3
15447.375,-0.006,0.336,0.881,2.72,33.48,36.59,0,3
15447.39,-0.002,0.316,0.895,8.64,37.48,35.16,0,3
15447.406,-0.009,0.323,0.906,13.28,37.97,29.24,0,3
15447.406,-0.021,0.346,0.901,15.44,35.25,23.07,0,3
15447.421,-0.035,0.356,0.894,13.79,30.88,19.75,0,3
15447.437,-0.049,0.361,0.89,8.61,26.37,19.17,0,3
15447.437,-0.063,0.37,0.894,1.4,22.77,19.99,0,3
15447.453,-0.064,0.363,0.902,-4.61,19.35,21.58,0,3
15447.453,-0.057,0.334,0.913,-7.2,16.33,22.03,0,3
15447.468,-0.056,0.301,0.913,-6.65,13.52,20.39,0,3
15447.484,-0.052,0.292,0.907,-5.46,10.35,16.97,0,3
15447.484,-0.055,0.288,0.888,-5.13,8.24,13.86,0,3
15447.5,-0.064,0.28,0.87,-6.68,7.75,12.6,0,3
15447.515,-0.055,0.269,0.868,-8.45,8.73,12.15,0,3
15447.515,-0.057,0.269,0.877,-9.98,10.83,9.22,0,3
15447.531,-0.122,0.281,0.989,-15.26,10.56,4.39,0,3
15447.531,-0.155,0.24,1.102,-24.6,-0.98,-0.52,0,3
15447.546,-0.284,0.4,1.262,-34.06,-19.04,-1.04,0,3
15447.562,-0.21,0.264,1.28,-30.43,-41.26,17.82,0,3
15447.562,-0.024,0.201,1.085,-32.07,-56.55,18.74,0,3
15447.578,-0.029,0.235,1.02,-28.66,-44.77,13.95,0,3
15447.593,-0.023,0.136,1.016,-11.23,-25.06,11.93,0,3
15447.593,-0.04,0.137,1.011,7.93,-5.55,9.16,0,3
15447.609,-0.098,0.175,1.042,26.25,12.57,6.13,0,3
15447.625,-0.157,0.183,1.098,42.21,24.32,6.04,0,3
15447.625,-0.199,0.225,1.156,52.06,29.08,5.13,0,3
15447.64,-0.274,0.27,1.232,58.78,27.13,2.75,0,3
15447.656,-0.335,0.339,1.354,63.94,13.58,3.05,0,3
15447.656,-0.224,0.285,1.263,62.87,-13.76,-0.37,0,3
15447.671,-0.402,0.382,1.18,47.03,-39.64,-13.76,0,3
15447.671,-0.282,0.321,1.192,41.44,-62.35,-8.91,0,3
15447.687,-0.203,0.311,1.068,33.54,-85.63,-7.51,0,3
15447.703,-0.146,0.276,0.962,28.69,-101.2,-10.99,0,3
15447.703,-0.062,0.243,0.878,34.39,-96.9,-11.02,0,3
15447.718,0.038,0.256,0.796,40.04,-88.02,-14.1,0,3
15447.734,0.16,0.327,0.667,44.07,-76.57,-17.7,0,3
15447.734,0.196,0.394,0.634,45.75,-63.88,-20.51,0,3
15447.75,0.208,0.461,0.605,44.1,-52.16,-21.58,0,3
15447.765,0.216,0.532,0.58,38.7,-41.14,-19.53,0,3
15447.765,0.229,0.591,0.569,29.05,-30.58,-16.21,0,3
15447.781,0.234,0.612,0.577,16.75,-20.66,-13.82,0,3
15447.781,0.229,0.617,0.601,5.04,-11.05,-11.32,0,3
15447.796,0.221,0.618,0.646,-4.61,-3.14,-9.06,0,3
15447.812,0.22,0.612,0.693,-10.32,1.56,-7.11,0,3
15447.812,0.223,0.601,0.717,-11.11,3.81,-4.97,0,3
15447.828,0.217,0.595,0.73,-9.49,4.55,-3.14,0,3
15447.843,0.205,0.598,0.748,-6.74,3.6,-0.7,0,3
15447.843,0.198,0.594,0.754,-4.03,1.98,2.53,0,3
15447.859,0.2,0.592,0.749,-2.78,1.28,5.55,0,3
15447.875,0.206,0.579,0.745,-3.72,1.86,7.84,0,3
15447.875,0.204,0.56,0.742,-6.26,3.91,9.13,0,3
15447.89,0.201,0.548,0.739,-9.31,6.99,9.98,0,3
15447.906,0.195,0.526,0.743,-12.12,11.2,10.9,0,3
15447.906,0.187,0.5,0.759,-13.58,16.27,12.63,0,3
15447.921,0.175,0.483,0.779,-12.94,21.12,13.55,0,3
15447.921,0.157,0.455,0.801,-11.66,25.27,12.91,0,3
15447.937,0.144,0.436,0.818,-11.02,27.68,11.66,0,3
15447.953,0.137,0.418,0.828,-11.23,28.5,9.98,0,3
15447.953,0.129,0.394,0.825,-12.24,28.29,7.6,0,3
15447.968,0.122,0.378,0.812,-13.95,28.17,5.37,0,3
15447.984,0.118,0.361,0.798,-17.52,28.35,2.29,0,3
15447.984,0.123,0.345,0.798,-25.91,28.2,-3.6,0,3
15448.0,0.131,0.318,0.787,-36.96,29.27,-10.96,0,3
15448.015,0.117,0.275,0.803,-47.91,32.59,-17.98,0,3
15448.015,0.023,0.256,0.953,-59.82,34.52,-25.48,0,3
15448.031,-0.035,0.436,1.168,-81.06,21.7,-28.32,0,3
15448.031,-0.083,0.395,1.265,-88.53,4.21,-25.36,0,3
15448.046,-0.097,0.372,1.324,-87.92,-15.26,-19.32,0,3
15448.062,-0.018,0.294,1.283,-69.4,-26.34,-11.78,0,3
15448.078,-0.001,0.248,1.232,-36.29,-24.51,-6.47,0,3
15448.078,0.018,0.263,1.202,-0.7,-16.36,-4.0,0,3
15448.093,0.011,0.299,1.159,31.68,-7.39,-3.27,0,3
15448.093,-0.006,0.351,1.109,53.74,-1.37,-2.32,0,3
15448.109,-0.011,0.411,1.056,62.99,0.0,-0.61,0,3
15448.125,0.002,0.438,1.001,62.62,-2.26,1.74,0,3
15448.125,0.016,0.429,0.947,56.58,-5.83,2.99,0,3
15448.14,0.031,0.454,0.888,45.29,-9.86,4.03,0,3
15448.156,0.041,0.454,0.874,32.01,-13.86,5.71,0,3
15448.156,0.056,0.485,0.88,14.53,-21.03,5.98,0,3
15448.171,0.125,0.363,0.8,6.99,-23.32,6.26,0,3
15448.171,0.063,0.336,0.828,4.55,-19.23,3.66,0,3
15448.187,0.091,0.448,0.861,1.19,-19.41,6.35,0,3
15448.203,0.114,0.386,0.836,2.87,-17.67,7.78,0,3
15448.203,0.121,0.336,0.825,-0.09,-14.28,5.74,0,3
15448.218,0.12,0.367,0.835,-3.08,-9.55,3.08,0,3
15448.234,0.115,0.376,0.847,-3.91,-4.64,1.77,0,3
15448.234,0.117,0.36,0.859,-5.01,-1.07,0.95,0,3
15448.25,0.113,0.355,0.874,-5.89,1.62,-0.58,0,3
15448.265,0.108,0.355,0.889,-5.49,3.02,-1.8,0,3
15448.265,0.106,0.356,0.895,-4.49,2.75,-2.5,0,3
15448.281,0.105,0.36,0.896,-3.94,1.5,-3.17,0,3
15448.281,0.107,0.364,0.89,-4.21,0.21,-3.97,0,3
15448.296,0.106,0.367,0.886,-5.19,-0.46,-4.55,0,3
15448.312,0.098,0.37,0.883,-6.29,-0.7,-4.7,0,3
15448.328,0.097,0.375,0.887,-7.78,-0.55,-4.67,0,3
15448.328,0.101,0.377,0.895,-9.46,-0.21,-4.64,0,3
15448.343,0.101,0.37,0.9,-10.22,0.46,-4.18,0,3
15448.343,0.097,0.363,0.906,-9.64,0.79,-3.78,0,3
15448.359,0.094,0.359,0.91,-7.57,0.73,-3.91,0,3
15448.375,0.095,0.365,0.909,-5.37,0.4,-4.21,0,3
15448.375,0.09,0.368,0.906,-3.6,0.18,-4.55,0,3
15448.39,0.083,0.372,0.901,-2.47,0.0,-4.61,0,3
15448.39,0.08,0.381,0.899,-2.44,-0.12,-4.39,0,3
15448.406,0.075,0.392,0.902,-3.36,0.24,-4.24,0,3
15448.421,0.07,0.398,0.907,-5.16,0.79,-4.24,0,3
15448.437,0.065,0.402,0.919,-7.14,1.22,-4.27,0,3
15448.437,0.061,0.398,0.934,-8.39,1.1,-3.88,0,3
15448.453,0.065,0.387,0.946,-7.9,-0.92,-2.56,0,3
15448.468,0.067,0.376,0.944,-6.53,-1.65,-2.32,0,3
15448.484,0.063,0.373,0.944,-5.04,-2.11,-2.26,0,3
15448.484,0.061,0.373,0.942,-4.55,-2.66,-2.35,0,3
15448.5,0.066,0.366,0.938,-4.3,-3.63,-2.56,0,3
15448.515,0.065,0.361,0.934,-4.09,-4.91,-2.56,0,3
15448.515,0.069,0.365,0.932,-4.27,-6.07,-2.87,0,3
15448.531,0.074,0.357,0.928,-4.36,-6.87,-3.33,0,3
15448.531,0.08,0.344,0.923,-3.91,-6.96,-3.45,0,3
15448.546,0.088,0.334,0.922,-2.38,-5.86,-3.36,0,3
15448.562,0.091,0.329,0.925,0.18,-3.39,-3.45,0,3
15448.562,0.09,0.327,0.933,3.45,-0.73,-4.03,0,3
15448.578,0.082,0.336,0.939,6.78,0.7,-4.36,0,3
15448.593,0.08,0.355,0.941,8.73,0.21,-4.73,0,3
15448.593,0.074,0.377,0.937,7.93,-1.43,-4.94,0,3
15448.609,0.068,0.39,0.937,4.24,-4.0,-4.94,0,3
15448.625,0.065,0.395,0.941,-5.46,-9.0,-4.61,0,3
15448.64,0.065,0.386,0.941,-8.18,-9.83,-4.15,0,3
15448.64,0.064,0.379,0.944,-8.48,-9.19,-3.63,0,3
15448.656,0.063,0.375,0.946,-6.56,-7.87,-3.14,0,3
15448.671,0.067,0.373,0.944,-3.54,-6.68,-2.53,0,3
15448.671,0.072,0.373,0.937,3.3,-5.4,-0.76,0,3
15448.687,0.07,0.373,0.928,4.82,-5.98,-0.4,0,3
15448.703,0.073,0.378,0.919,4.55,-7.23,-0.61,0,3
15448.703,0.079,0.38,0.906,3.27,-8.33,-0.95,0,3
15448.718,0.089,0.372,0.878,1.65,-8.85,-1.1,0,3
15448.734,0.098,0.365,0.861,0.15,-8.82,-1.53,0,3
15448.734,0.107,0.355,0.85,-0.52,-7.93,-2.14,0,3
15448.75,0.117,0.343,0.836,0.4,-6.32,-2.35,0,3
15448.765,0.123,0.334,0.819,2.56,-4.18,-2.14,0,3
15448.765,0.142,0.334,0.795,4.79,-1.89,-1.92,0,3
15448.781,0.172,0.301,0.749,9.92,3.33,-2.56,0,3
15448.781,0.185,0.257,0.706,17.43,13.49,-5.74,0,3
15448.796,0.191,0.249,0.688,23.83,26.7,-9.89,0,3
15448.812,0.184,0.233,0.681,28.35,41.57,-13.89,0,3
15448.828,0.054,0.279,0.818,23.59,52.74,-18.71,0,3
15448.828,-0.066,0.477,1.147,-10.19,43.34,-20.81,0,3
15448.843,-0.125,0.603,1.317,-47.58,15.84,-19.84,0,3
15448.843,-0.056,0.459,1.331,-62.93,-7.84,-16.36,0,3
15448.859,-0.044,0.302,1.285,-50.14,-16.33,-11.9,0,3
15448.875,0.01,0.297,1.233,-18.59,-13.73,-6.62,0,3
15448.875,0.022,0.316,1.154,26.31,-2.9,-2.01,0,3
15448.89,0.003,0.374,1.077,64.06,8.03,1.37,0,3
15448.89,-0.003,0.461,0.998,84.38,13.12,2.62,0,3
15448.906,-0.012,0.524,0.917,85.94,12.48,3.94,0,3
15448.921,-0.009,0.539,0.856,70.99,7.6,5.43,0,3
15448.921,0.003,0.549,0.827,45.87,-0.21,6.44,0,3
15448.937,-0.001,0.535,0.833,20.63,-8.79,6.96,0,3
15448.953,0.053,0.527,0.82,-1.16,-17.06,8.88,0,3
15448.968,0.051,0.415,0.845,-19.1,-19.29,4.7,0,3
15448.984,0.07,0.406,0.859,-16.17,-19.17,5.43,0,3
15448.984,0.052,0.419,0.87,-9.37,-18.49,10.19,0,3
15449.0,0.082,0.393,0.852,-3.36,-17.76,12.45,0,3
15449.0,0.079,0.37,0.848,0.76,-14.92,10.93,0,3
15449.015,0.073,0.396,0.859,2.96,-11.81,9.16,0,3
15449.031,0.071,0.407,0.858,3.45,-9.58,8.3,0,3
15449.031,0.066,0.407,0.859,0.82,-7.66,6.78,0,3
15449.046,0.066,0.408,0.867,-3.05,-5.55,4.82,0,3
15449.062,0.058,0.414,0.883,-5.65,-3.48,3.36,0,3
15449.062,0.046,0.42,0.898,-6.81,-2.56,2.84,0,3
15449.078,0.044,0.414,0.909,-6.68,-2.66,3.02,0,3
15449.093,0.04,0.417,0.917,-5.01,-3.2,3.33,0,3
15449.093,0.041,0.416,0.921,-2.44,-3.81,3.72,0,3
15449.109,0.052,0.408,0.92,0.64,-4.49,4.15,0,3
15449.125,0.063,0.403,0.911,3.88,-5.1,4.49,0,3
15449.125,0.071,0.408,0.904,6.35,-5.77,4.7,0,3
15449.14,0.072,0.42,0.899,7.02,-6.07,4.36,0,3
15449.156,0.071,0.42,0.896,6.01,-6.16,4.33,0,3
15449.156,0.07,0.419,0.897,4.85,-6.04,4.43,0,3
15449.171,0.072,0.415,0.902,4.27,-5.65,4.39,0,3
15449.171,0.067,0.414,0.907,4.55,-5.58,4.33,0,3
15449.187,0.074,0.417,0.91,4.82,-6.68,3.85,0,3
15449.203,0.089,0.417,0.906,4.88,-8.73,3.57,0,3
15449.203,0.094,0.416,0.896,5.28,-10.5,3.42,0,3
15449.218,0.093,0.423,0.89,5.1,-11.6,3.36,0,3
15449.234,0.094,0.432,0.887,4.03,-11.81,3.23,0,3
15449.234,0.102,0.424,0.884,2.78,-11.51,3.27,0,3
15449.25,0.109,0.417,0.882,2.56,-10.47,3.63,0,3
15449.265,0.119,0.412,0.883,3.54,-9.13,3.88,0,3
15449.265,0.127,0.412,0.877,4.94,-7.84,4.15,0,3
15449.281,0.126,0.411,0.873,6.32,-6.29,4.09,0,3
15449.281,0.12,0.423,0.875,6.62,-4.39,3.78,0,3
15449.296,0.113,0.428,0.88,5.62,-2.5,3.51,0,3
15449.312,0.106,0.425,0.889,3.75,-0.95,3.39,0,3
15449.312,0.086,0.433,0.906,2.29,-0.52,3.54,0,3
15449.328,0.067,0.435,0.921,1.25,-1.56,3.91,0,3
15449.343,0.059,0.424,0.934,0.98,-3.97,4.67,0,3
15449.343,0.062,0.415,0.934,2.08,-7.02,5.1,0,3
15449.359,0.054,0.418,0.929,4.12,-9.43,4.7,0,3
15449.375,0.035,0.435,0.928,5.68,-10.59,3.75,0,3
15449.375,0.017,0.437,0.927,6.41,-11.17,3.48,0,3
15449.39,-0.006,0.443,0.935,7.23,-11.41,4.15,0,3
15449.39,-0.039,0.455,0.949,8.27,-11.69,4.58,0,3
15449.406,-0.078,0.461,0.972,9.19,-11.69,5.1,0,3
15449.421,-0.131,0.467,0.999,9.95,-11.57,6.01,0,3
15449.421,-0.189,0.478,1.03,10.68,-11.63,6.9,0,3
15449.437,-0.237,0.492,1.063,11.41,-12.48,7.14,0,3
15449.453,-0.275,0.499,1.084,12.3,-15.93,7.05,0,3
15449.453,-0.289,0.494,1.086,14.74,-22.83,7.39,0,3
15449.468,-0.289,0.488,1.065,19.71,-31.89,8.58,0,3
15449.484,-0.241,0.474,0.976,32.04,-49.26,11.08,0,3
15449.5,-0.198,0.446,0.916,37.93,-54.41,11.63,0,3
15449.515,-0.156,0.428,0.857,44.31,-56.7,11.87,0,3
15449.515,-0.117,0.408,0.801,50.72,-56.25,12.27,0,3
15449.531,-0.09,0.389,0.754,57.53,-53.77,12.7,0,3
15449.546,-0.063,0.374,0.715,64.27,-50.72,12.48,0,3
15449.546,-0.033,0.375,0.686,70.04,-46.57,11.69,0,3
15449.562,0.007,0.375,0.662,73.43,-42.33,10.59,0,3
15449.562,0.056,0.357,0.646,74.59,-38.7,9.31,0,3
15449.578,0.077,0.361,0.64,75.29,-34.91,7.2,0,3
15449.593,0.098,0.369,0.632,74.74,-32.35,3.81,0,3
15449.609,0.128,0.364,0.626,73.03,-31.13,-0.79,0,3
15449.609,0.144,0.369,0.622,71.41,-30.61,-5.28,0,3
15449.625,0.167,0.366,0.618,69.28,-31.43,-9.55,0,3
15449.625,0.189,0.35,0.612,68.51,-33.14,-13.4,0,3
15449.64,0.207,0.348,0.607,69.55,-34.36,-17.49,0,3
15449.656,0.255,0.311,0.568,80.63,-34.03,-33.81,0,3
15449.671,0.279,0.328,0.549,82.31,-31.62,-43.03,0,3
15449.671,0.279,0.366,0.535,81.24,-28.5,-52.13,0,3
15449.687,0.287,0.375,0.534,79.17,-25.54,-58.6,0,3
15449.703,0.286,0.388,0.527,77.67,-23.77,-64.09,0,3
15449.703,0.272,0.404,0.526,77.39,-23.87,-69.55,0,3
15449.718,0.26,0.428,0.511,78.92,-25.91,-74.71,0,3
15449.734,0.258,0.454,0.493,80.08,-29.33,-80.48,0,3
15449.734,0.256,0.483,0.473,79.78,-33.17,-86.98,0,3
15449.75,0.259,0.481,0.439,79.23,-37.29,-93.02,0,3
15449.765,0.283,0.452,0.404,79.04,-39.89,-97.35,0,3
15449.765,0.301,0.434,0.373,79.74,-39.58,-100.74,0,3
15449.781,0.305,0.406,0.343,81.67,-36.81,-105.17,0,3
15449.796,0.317,0.389,0.315,82.86,-30.88,-111.55,0,3
15449.796,0.309,0.406,0.298,81.88,-21.55,-121.8,0,3
15449.812,0.279,0.44,0.303,77.85,-10.35,-135.56,0,3
15449.812,0.218,0.46,0.313,72.18,1.22,-149.24,0,3
15449.828,0.216,0.465,0.329,66.38,11.96,-157.81,0,3
15449.843,0.163,0.498,0.352,64.3,22.06,-163.3,0,3
15449.843,0.11,0.51,0.389,67.05,29.97,-165.93,0,3
15449.859,0.062,0.557,0.418,68.45,33.6,-166.63,0,3
15449.875,0.015,0.639,0.447,68.73,34.27,-169.13,0,3
15449.875,-0.032,0.703,0.452,68.7,32.62,-169.56,0,3
15449.89,-0.07,0.767,0.438,63.57,29.88,-166.02,0,3
15449.906,-0.066,0.785,0.412,54.93,27.59,-163.03,0,3
15449.906,-0.064,0.756,0.368,45.87,28.38,-160.47,0,3
15449.921,-0.056,0.703,0.305,36.35,33.11,-156.93,0,3
15449.921,-0.029,0.652,0.249,26.49,42.63,-155.34,0,3
15449.937,-0.052,0.645,0.211,18.19,58.17,-159.55,0,3
15449.953,-0.151,0.711,0.173,13.46,80.69,-164.62,0,3
15449.953,-0.262,0.828,0.156,7.78,106.08,-165.68,0,3
15449.968,-0.334,0.876,0.17,2.99,127.81,-164.1,0,3
15449.984,-0.411,0.896,0.197,1.4,146.46,-162.63,0,3
15449.984,-0.486,0.89,0.216,1.16,159.34,-163.18,0,3
15450.0,-0.521,0.846,0.205,0.58,166.69,-164.65,0,3
15450.0,-0.553,0.816,0.202,0.12,173.07,-169.99,0,3
15450.015,-0.589,0.767,0.213,0.46,178.5,-180.09,0,3
15450.031,-0.659,0.767,0.23,0.61,182.2,-191.44,0,3
15450.031,-0.76,0.778,0.24,-0.24,181.86,-198.22,0,3
15450.046,-0.814,0.742,0.247,-1.37,176.79,-196.72,0,3
15450.062,-0.923,0.814,0.274,-1.31,171.12,-190.37,0,3
15450.078,-1.038,0.913,0.287,0.79,161.72,-177.59,0,3
15450.078,-1.085,0.923,0.29,1.5,149.51,-156.96,0,3
15450.093,-1.131,0.991,0.301,1.4,140.45,-138.49,0,3
15450.093,-1.16,1.069,0.317,3.48,134.01,-129.46,0,3
15450.109,-1.135,0.999,0.341,9.43,126.87,-125.68,0,3
15450.125,-1.122,0.909,0.351,19.75,119.54,-121.28,0,3
15450.125,-1.117,0.877,0.332,34.94,112.09,-114.66,0,3
15450.14,-1.092,0.84,0.307,52.22,104.77,-103.37,0,3
15450.156,-1.024,0.708,0.262,84.38,86.52,-82.71,0,3
15450.171,-0.988,0.628,0.237,100.13,75.11,-75.78,0,3
15450.171,-0.971,0.541,0.193,118.38,63.97,-71.87,0,3
15450.187,-0.987,0.522,0.139,139.77,56.73,-67.66,0,3
15450.203,-1.0,0.562,0.087,160.59,52.06,-60.88,0,3
15450.203,-0.987,0.582,0.037,180.09,48.31,-55.97,0,3
15450.218,-0.981,0.557,-0.014,200.32,47.21,-52.25,0,3
15450.234,-0.986,0.546,-0.074,217.47,47.24,-48.95,0,3
15450.234,-0.977,0.553,-0.132,228.0,46.82,-46.6,0,3
15450.25,-0.973,0.569,-0.197,231.85,47.52,-45.84,0,3
15450.265,-0.965,0.547,-0.234,232.06,50.02,-43.64,0,3
15450.265,-0.962,0.517,-0.255,230.96,52.92,-40.99,0,3
15450.281,-0.961,0.512,-0.291,227.76,55.7,-39.09,0,3
15450.296,-0.96,0.514,-0.314,218.27,56.89,-38.48,0,3
15450.296,-0.966,0.504,-0.343,200.69,54.75,-40.62,0,3
15450.312,-0.971,0.522,-0.367,176.43,50.05,-44.83,0,3
15450.312,-0.981,0.529,-0.381,146.86,43.0,-50.87,0,3
15450.328,-0.993,0.54,-0.397,112.67,34.0,-58.44,0,3
15450.343,-0.981,0.54,-0.395,74.98,23.47,-65.83,0,3
15450.343,-0.974,0.536,-0.392,36.81,12.88,-74.59,0,3
15450.359,-0.967,0.526,-0.389,0.06,3.05,-83.25,0,3
15450.375,-0.957,0.505,-0.371,-33.88,-5.37,-91.31,0,3
15450.375,-0.959,0.484,-0.362,-63.51,-12.3,-99.52,0,3
15450.39,-0.961,0.464,-0.35,-88.72,-17.76,-107.76,0,3
15450.406,-0.966,0.428,-0.328,-108.65,-21.15,-114.41,0,3
15450.406,-0.977,0.405,-0.306,-121.68,-21.76,-117.5,0,3
15450.421,-0.988,0.389,-0.275,-126.83,-19.07,-116.52,0,3
15450.421,-0.997,0.352,-0.226,-123.63,-14.77,-112.67,0,3
15450.437,-1.008,0.323,-0.187,-113.56,-11.44,-107.7,0,3
15450.453,-1.027,0.315,-0.155,-99.95,-9.77,-102.79,0,3
15450.453,-1.039,0.307,-0.134,-85.67,-9.37,-97.57,0,3
15450.468,-1.079,0.281,-0.059,-74.1,-10.47,-91.95,0,3
15450.484,-1.422,1.125,0.45,21.7,-47.46,24.87,0,3
15450.5,-0.802,0.656,0.168,62.41,-75.81,80.08,0,3
15450.515,-1.034,0.169,0.037,74.16,-82.22,52.55,0,3
15450.515,-0.933,0.049,-0.141,90.55,-82.03,32.5,0,3
15450.531,-0.792,0.115,-0.306,105.35,-71.6,10.71,0,3
15450.531,-0.908,0.162,-0.292,96.93,-58.78,-17.49,0,3
15450.546,-0.966,0.111,-0.29,73.55,-51.15,-34.42,0,3
15450.562,-0.984,0.243,-0.322,37.93,-45.2,-32.29,0,3
15450.562,-0.945,0.375,-0.344,2.23,-31.43,-20.23,0,3
15450.578,-0.896,0.303,-0.297,-30.12,-14.77,-16.85,0,3
15450.593,-0.91,0.198,-0.214,-55.21,-1.01,-21.61,0,3
15450.593,-0.921,0.145,-0.152,-67.54,7.08,-30.09,0,3
15450.609,-0.927,0.128,-0.11,-68.76,11.93,-40.07,0,3
15450.625,-0.95,0.121,-0.066,-62.41,14.89,-46.85,0,3
15450.64,-0.976,0.119,-0.032,-53.13,13.86,-49.99,0,3
15450.64,-0.999,0.132,-0.018,-44.83,8.79,-51.0,0,3
15450.656,-1.014,0.162,-0.025,-39.86,-17.21,-47.49,0,3
15450.671,-1.026,0.169,-0.039,-44.22,-25.76,-44.13,0,3
15450.687,-1.008,0.162,-0.051,-47.98,-32.41,-40.35,0,3
15450.687,-1.003,0.142,-0.055,-48.01,-37.69,-37.05,0,3
15450.703,-0.989,0.12,-0.063,-45.23,-39.67,-33.08,0,3
15450.718,-0.983,0.117,-0.067,-40.44,-38.67,-29.57,0,3
15450.718,-0.976,0.107,-0.069,-33.66,-36.35,-27.01,0,3
15450.734,-0.981,0.113,-0.073,-26.58,-32.2,-24.69,0,3
15450.734,-0.984,0.124,-0.077,-20.2,-27.34,-22.0,0,3
15450.75,-0.983,0.124,-0.076,-14.92,-22.28,-19.53,0,3
15450.765,-0.988,0.122,-0.074,-10.47,-18.04,-17.18,0,3
15450.765,-0.992,0.118,-0.077,-6.78,-14.53,-15.69,0,3
15450.781,-0.993,0.123,-0.078,-4.12,-11.54,-14.83,0,3
15450.796,-0.989,0.127,-0.076,-2.78,-9.06,-13.58,0,3
15450.796,-0.984,0.132,-0.072,-2.5,-6.99,-12.09,0,3
15450.812,-0.984,0.128,-0.067,-2.81,-5.22,-10.56,0,3
15450.812,-0.981,0.112,-0.06,-3.72,-4.21,-8.97,0,3
15450.828,-0.978,0.098,-0.057,-4.73,-4.09,-7.57,0,3
15450.843,-0.974,0.087,-0.052,-5.46,-4.43,-7.32,0,3
15450.843,-0.97,0.077,-0.05,-5.92,-4.52,-8.24,0,3
15450.859,-0.971,0.075,-0.05,-6.62,-4.36,-9.25,0,3
15450.875,-0.974,0.084,-0.048,-7.84,-4.94,-10.25,0,3
15450.875,-0.973,0.087,-0.05,-9.4,-5.83,-11.29,0,3
15450.89,-0.976,0.088,-0.052,-11.23,-6.78,-12.12,0,3
15450.906,-0.975,0.086,-0.052,-13.12,-7.78,-12.27,0,3
15450.906,-0.974,0.08,-0.056,-14.25,-8.36,-11.75,0,3
15450.921,-0.977,0.075,-0.061,-15.05,-8.21,-10.68,0,3
15450.937,-0.972,0.071,-0.064,-14.77,-7.17,-9.28,0,3
15450.937,-0.971,0.065,-0.063,-13.4,-5.52,-8.73,0,3
15450.953,-0.974,0.06,-0.062,-11.29,-3.81,-8.94,0,3
15450.953,-0.98,0.064,-0.057,-9.55,-2.41,-9.22,0,3
15450.968,-0.982,0.068,-0.056,-8.36,-1.83,-9.16,0,3
15450.984,-0.988,0.068,-0.054,-7.51,-1.46,-8.91,0,3
15450.984,-0.992,0.072,-0.049,-7.17,-1.13,-8.39,0,3
15451.0,-0.992,0.065,-0.048,-6.93,-1.28,-7.63,0,3
15451.015,-0.995,0.056,-0.045,-5.89,-1.53,-6.13,0,3
15451.015,-0.993,0.054,-0.043,-3.94,-1.31,-4.3,0,3
15451.031,-0.991,0.054,-0.042,-1.56,-1.16,-3.33,0,3
15451.046,-0.994,0.051,-0.045,0.61,-1.04,-2.62,0,3
15451.046,-0.994,0.052,-0.046,1.8,-0.89,-2.17,0,3
15451.062,-0.987,0.051,-0.051,2.2,-0.79,-1.62,0,3
15451.062,-0.984,0.055,-0.05,1.8,-0.37,-1.04,0,3
15451.078,-0.984,0.05,-0.048,0.76,0.43,-0.61,0,3
15451.093,-0.981,0.046,-0.042,-0.24,1.07,-0.34,0,3
15451.093,-0.982,0.039,-0.039,-0.79,1.59,-0.21,0,3
15451.109,-0.981,0.033,-0.034,-0.55,2.01,0.27,0,3
15451.125,-0.979,0.029,-0.028,0.73,1.92,0.61,0,3
15451.125,-0.98,0.026,-0.026,2.32,1.98,0.7,0,3
15451.14,-0.981,0.029,-0.024,3.72,2.04,0.76,0,3
15451.14,-0.981,0.028,-0.023,4.85,1.98,0.85,0,3
15451.156,-0.985,0.025,-0.023,6.41,1.83,0.76,0,3
15451.171,-0.986,0.029,-0.023,7.97,1.56,0.85,0,3
15451.171,-0.985,0.031,-0.026,9.06,1.4,1.04,0,3
15451.187,-0.982,0.034,-0.029,9.89,1.59,1.07,0,3
15451.203,-0.982,0.033,-0.031,10.68,1.77,1.04,0,3
15451.203,-0.982,0.029,-0.034,11.41,2.11,1.37,0,3
15451.218,-0.98,0.031,-0.037,11.69,2.41,1.53,0,3
15451.234,-0.977,0.032,-0.036,11.72,2.75,1.37,0,3
15451.234,-0.98,0.022,-0.033,11.81,2.78,1.07,0,3
15451.25,-0.984,0.018,-0.03,11.93,2.96,0.85,0,3
15451.265,-0.984,0.023,-0.028,11.96,3.14,0.4,0,3
15451.265,-0.984,0.025,-0.028,11.78,3.08,-0.43,0,3
15451.281,-0.988,0.027,-0.029,11.2,2.9,-1.1,0,3
15451.281,-0.986,0.03,-0.03,10.83,2.29,-1.31,0,3
15451.296,-0.981,0.033,-0.032,10.47,1.65,-1.46,0,3
15451.312,-0.981,0.032,-0.035,10.68,1.43,-1.68,0,3
15451.312,-0.979,0.032,-0.036,11.6,1.25,-1.68,0,3
15451.328,-0.98,0.037,-0.038,12.45,1.59,-1.4,0,3
15451.343,-0.98,0.042,-0.041,12.76,2.17,-1.5,0,3
15451.343,-0.981,0.039,-0.042,12.18,2.59,-1.59,0,3
15451.359,-0.982,0.039,-0.043,10.68,2.87,-1.71,0,3
15451.375,-0.98,0.039,-0.042,8.85,2.59,-2.14,0,3
15451.39,-0.982,0.038,-0.04,7.14,2.2,-2.66,0,3
15451.39,-0.986,0.036,-0.04,5.68,1.77,-2.96,0,3
15451.39,-0.984,0.037,-0.044,4.27,1.01,-3.39,0,3
15451.406,-0.985,0.04,-0.046,2.9,0.31,-3.75,0,3
15451.421,-0.986,0.04,-0.044,1.59,-0.31,-3.97,0,3
15451.421,-0.986,0.04,-0.046,0.24,-1.07,-3.88,0,3
15451.437,-0.983,0.043,-0.047,-0.98,-1.56,-3.57,0,3
15451.453,-0.983,0.047,-0.046,-1.8,-1.95,-3.27,0,3
15451.453,-0.983,0.042,-0.046,-2.04,-2.44,-2.87,0,3
15451.468,-0.982,0.032,-0.047,-1.71,-2.72,-2.29,0,3
15451.484,-0.984,0.026,-0.047,-0.64,-2.66,-2.01,0,3
15451.5,-0.983,0.025,-0.047,0.89,-2.17,-2.14,0,3
15451.5,-0.978,0.03,-0.048,2.35,-1.71,-2.41,0,3
15451.5,-0.976,0.037,-0.052,3.36,-1.07,-2.66,0,3
15451.515,-0.98,0.04,-0.055,3.88,-0.52,-2.56,0,3
15451.531,-0.987,0.041,-0.058,3.63,-0.37,-2.32,0,3
15451.531,-0.985,0.045,-0.06,3.11,-0.21,-1.8,0,3
15451.546,-0.984,0.044,-0.061,2.56,-0.18,-1.31,0,3
15451.562,-0.987,0.046,-0.063,1.89,-0.06,-1.31,0,3
15451.578,-0.991,0.043,-0.062,1.01,0.4,-1.4,0,3
15451.578,-0.989,0.039,-0.055,0.0,0.82,-1.53,0,3
15451.593,-0.985,0.045,-0.054,-1.1,0.76,-1.56,0,3
15451.609,-0.985,0.048,-0.051,-1.8,0.55,-1.43,0,3
15451.609,-0.982,0.041,-0.048,-2.32,0.09,-1.19,0,3
15451.625,-0.982,0.037,-0.045,-2.32,-0.46,-0.85,0,3
15451.625,-0.983,0.034,-0.043,-0.46,-0.55,-0.49,0,3
15451.64,-0.984,0.03,-0.042,0.98,-0.4,-0.52,0,3
15451.656,-0.985,0.033,-0.043,2.2,-0.18,-0.49,0,3
15451.656,-0.983,0.036,-0.047,2.87,-0.03,0.03,0,3
15451.671,-0.977,0.04,-0.053,3.08,0.12,0.64,0,3
15451.687,-0.977,0.041,-0.053,2.78,0.31,0.46,0,3
15451.687,-0.981,0.037,-0.052,2.08,0.55,0.4,0,3
15451.703,-0.98,0.037,-0.05,1.34,0.58,0.43,0,3
15451.703,-0.984,0.034,-0.05,1.04,0.55,0.55,0,3
15451.718,-0.986,0.028,-0.051,1.07,0.4,0.95,0,3
15451.734,-0.984,0.029,-0.051,1.25,0.06,1.01,0,3
15451.734,-0.985,0.027,-0.051,1.77,-0.12,1.04,0,3
15451.75,-0.986,0.021,-0.051,2.41,-0.09,1.31,0,3
15451.765,-0.982,0.023,-0.053,3.02,-0.09,1.53,0,3
15451.765,-0.975,0.02,-0.053,3.57,0.09,1.46,0,3
15451.781,-0.976,0.023,-0.056,3.72,0.49,1.13,0,3
15451.781,-0.979,0.028,-0.056,3.51,0.79,0.7,0,3
15451.796,-0.979,0.029,-0.058,2.87,0.79,0.37,0,3
15451.812,-0.982,0.03,-0.057,2.01,0.89,0.15,0,3
15451.812,-0.981,0.028,-0.055,1.53,0.67,0.18,0,3
15451.828,-0.982,0.026,-0.053,1.68,0.58,0.24,0,3
15451.843,-0.979,0.026,-0.052,2.29,0.34,0.61,0,3
15451.843,-0.978,0.025,-0.053,3.14,0.15,0.85,0,3
15451.859,-0.979,0.023,-0.055,3.91,0.12,1.1,0,3
15451.875,-0.978,0.022,-0.057,4.55,0.21,1.56,0,3
15451.875,-0.978,0.022,-0.055,5.13,0.49,1.77,0,3
15451.89,-0.981,0.022,-0.053,6.35,0.92,1.8,0,3
15451.906,-0.983,0.022,-0.055,7.57,1.13,1.92,0,3
15451.921,-0.983,0.024,-0.055,8.67,1.28,2.41,0,3
15451.937,-0.983,0.025,-0.056,9.74,1.46,2.93,0,3
15451.937,-0.981,0.025,-0.058,10.83,1.71,2.87,0,3
15451.937,-0.982,0.026,-0.056,11.93,1.86,2.81,0,3
15451.953,-0.985,0.026,-0.056,12.94,1.89,2.69,0,3
15451.953,-0.988,0.027,-0.058,14.07,1.74,2.84,0,3
15451.968,-0.99,0.031,-0.057,14.89,1.62,3.27,0,3
15451.984,-0.991,0.029,-0.056,15.5,1.68,3.57,0,3
15451.984,-0.994,0.025,-0.052,16.27,1.83,3.78,0,3
15452.0,-0.992,0.027,-0.049,17.18,1.77,4.09,0,3
15452.015,-0.991,0.029,-0.042,18.43,1.62,4.33,0,3
15452.015,-0.992,0.03,-0.03,20.42,1.4,4.82,0,3
15452.031,-0.989,0.029,-0.02,23.01,1.13,5.89,0,3
15452.046,-0.982,0.029,-0.012,26.4,0.49,7.42,0,3
15452.046,-0.979,0.031,-0.012,30.15,-0.61,9.28,0,3
15452.062,-0.974,0.035,-0.016,33.78,-2.14,11.17,0,3
15452.078,-0.971,0.033,-0.021,37.39,-3.45,12.54,0,3
15452.078,-0.97,0.03,-0.031,40.44,-4.3,13.76,0,3
15452.093,-0.963,0.026,-0.041,43.0,-4.79,14.37,0,3
15452.093,-0.964,0.022,-0.053,45.11,-4.94,14.25,0,3
15452.109,-0.965,0.025,-0.065,46.17,-4.58,13.89,0,3
15452.125,-0.961,0.021,-0.071,45.93,-3.72,13.46,0,3
15452.14,-0.959,0.016,-0.073,44.77,-2.38,12.51,0,3
15452.14,-0.956,0.009,-0.071,43.37,-0.76,11.05,0,3
15452.156,-0.957,0.009,-0.064,42.21,0.98,9.28,0,3
15452.156,-0.96,0.01,-0.054,41.26,2.23,7.32,0,3
15452.171,-0.964,0.017,-0.047,40.19,2.59,5.46,0,3
15452.171,-0.965,0.022,-0.038,39.0,2.26,3.97,0,3
15452.187,-0.971,0.017,-0.034,38.03,1.22,2.96,0,3
15452.203,-0.976,0.013,-0.028,37.14,-0.55,2.41,0,3
15452.203,-0.975,0.006,-0.021,36.41,-2.72,2.04,0,3
15452.218,-0.978,-0.012,-0.013,35.83,-4.24,1.98,0,3
15452.234,-0.975,-0.037,-0.004,35.49,-5.34,1.74,0,3
15452.234,-0.973,-0.062,0.004,35.43,-6.13,0.61,0,3
15452.25,-0.97,-0.082,0.006,35.43,-6.65,-2.01,0,3
15452.265,-0.97,-0.092,0.007,35.25,-6.84,-6.26,0,3
15452.265,-0.971,-0.082,0.007,34.82,-6.96,-11.6,0,3
15452.281,-0.965,-0.061,0.004,33.42,-7.26,-17.3,0,3
15452.281,-0.968,-0.042,0.001,30.3,-8.15,-22.86,0,3
15452.296,-0.977,-0.025,0.003,26.25,-9.25,-27.74,0,3
15452.312,-0.985,-0.001,-0.0,21.52,-11.02,-31.34,0,3
15452.328,-0.992,0.02,0.002,15.81,-13.98,-33.3,0,3
15452.328,-1.002,0.033,0.002,10.22,-17.09,-33.6,0,3
15452.343,-1.0,0.046,0.009,5.1,-20.11,-32.9,0,3
15452.343,-1.01,0.047,0.022,1.74,-22.71,-30.95,0,3
15452.359,-1.02,0.037,0.041,1.04,-24.72,-27.99,0,3
15452.375,-1.019,0.02,0.051,4.15,-26.98,-24.35,0,3
15452.375,-1.023,0.001,0.052,11.9,-29.33,-21.18,0,3
15452.39,-1.026,-0.001,0.046,22.55,-30.98,-18.07,0,3
15452.406,-1.026,0.01,0.032,34.03,-32.2,-14.74,0,3
15452.406,-1.025,0.024,0.018,44.43,-32.93,-10.96,0,3
15452.421,-1.029,0.025,0.001,53.35,-32.72,-6.68,0,3
15452.437,-1.033,0.025,-0.011,59.82,-31.4,-2.14,0,3
15452.437,-1.033,0.024,-0.018,63.72,-29.45,1.5,0,3
15452.453,-1.028,0.022,-0.017,65.52,-27.31,4.03,0,3
15452.453,-1.018,0.018,-0.01,65.8,-25.42,5.58,0,3
15452.468,-1.01,0.005,0.0,65.43,-23.19,7.02,0,3
15452.484,-1.002,0.0,0.019,64.33,-20.54,7.75,0,3
15452.5,-0.995,-0.005,0.048,63.63,-18.31,7.9,0,3
15452.5,-1.001,-0.008,0.079,64.15,-16.63,8.91,0,3
15452.515,-1.003,0.007,0.108,64.18,-15.78,9.28,0,3
15452.515,-1.012,0.014,0.124,64.15,-15.99,8.21,0,3
15452.531,-1.033,0.026,0.132,63.42,-17.55,6.68,0,3
15452.546,-1.048,0.038,0.137,61.74,-20.26,5.62,0,3
15452.546,-1.059,0.043,0.129,59.72,-23.53,5.28,0,3
15452.562,-1.056,0.049,0.121,57.1,-26.7,5.62,0,3
15452.562,-1.046,0.04,0.123,54.2,-28.44,6.1,0,3
15452.578,-1.041,0.034,0.131,51.0,-28.47,6.78,0,3
15452.593,-1.028,0.028,0.152,47.03,-27.53,6.62,0,3
15452.609,-1.022,0.019,0.169,43.34,-25.67,5.22,0,3
15452.609,-1.026,0.026,0.191,36.62,-24.69,-0.24,0,3
15452.625,-1.03,0.041,0.206,33.97,-26.95,-1.92,0,3
15452.625,-1.038,0.056,0.22,32.14,-29.45,-2.04,0,3
15452.64,-1.061,0.078,0.233,29.66,-33.05,-1.65,0,3
15452.656,-1.089,0.101,0.229,26.43,-36.77,-1.28,0,3
15452.656,-1.094,0.108,0.229,22.37,-40.13,-0.27,0,3
15452.671,-1.083,0.106,0.234,18.16,-43.31,1.22,0,3
15452.671,-1.082,0.108,0.238,15.14,-45.17,2.75,0,3
15452.687,-1.077,0.123,0.244,11.93,-46.94,3.39,0,3
15452.703,-1.083,0.144,0.241,7.32,-48.46,3.23,0,3
15452.703,-1.094,0.165,0.238,-0.34,-49.9,2.41,0,3
15452.718,-1.094,0.174,0.239,-10.93,-52.55,1.46,0,3
15452.734,-1.092,0.171,0.257,-21.79,-55.82,0.92,0,3
15452.734,-1.099,0.146,0.285,-28.93,-58.93,1.8,0,3
15452.75,-1.101,0.122,0.314,-31.13,-61.4,3.85,0,3
15452.765,-1.107,0.104,0.336,-29.02,-63.23,5.74,0,3
15452.765,-1.116,0.09,0.351,-24.38,-64.27,7.32,0,3
15452.781,-1.108,0.086,0.363,-19.23,-64.46,8.36,0,3
15452.796,-1.108,0.076,0.373,-12.48,-64.09,9.19,0,3
15452.796,-1.104,0.077,0.376,-5.04,-63.63,10.25,0,3
15452.812,-1.108,0.1,0.383,1.22,-63.17,11.38,0,3
15452.812,-1.118,0.11,0.391,5.34,-63.42,12.12,0,3
15452.828,-1.134,0.111,0.402,7.17,-64.36,13.37,0,3
15452.843,-1.131,0.124,0.416,6.96,-65.98,14.71,0,3
15452.843,-1.127,0.115,0.426,6.9,-68.39,15.66,0,3
15452.859,-1.129,0.112,0.433,6.96,-70.56,17.0,0,3
15452.875,-1.112,0.112,0.444,7.14,-72.73,17.98,0,3
15452.875,-1.107,0.107,0.441,8.64,-74.8,18.71,0,3
15452.89,-1.112,0.108,0.435,11.96,-77.03,20.39,0,3
15452.906,-1.105,0.101,0.43,16.66,-79.1,22.8,0,3
15452.906,-1.1,0.093,0.421,22.89,-80.2,25.67,0,3
15452.921,-1.101,0.091,0.409,28.72,-80.45,27.89,0,3
15452.921,-1.099,0.087,0.396,33.36,-80.45,29.18,0,3
15452.937,-1.083,0.085,0.383,36.99,-80.63,30.3,0,3
15452.953,-1.068,0.099,0.377,40.25,-79.84,31.53,0,3
15452.953,-1.048,0.117,0.377,42.36,-78.07,32.17,0,3
15452.968,-1.042,0.114,0.385,44.77,-76.57,33.17,0,3
15452.984,-1.048,0.11,0.391,49.23,-75.41,35.04,0,3
15453.0,-1.032,0.111,0.393,55.18,-74.71,37.63,0,3
15453.0,-1.02,0.116,0.386,62.65,-73.92,39.67,0,3
15453.015,-1.007,0.138,0.378,70.96,-71.93,41.32,0,3
15453.015,-0.995,0.17,0.372,77.97,-69.49,43.0,0,3
15453.031,-0.988,0.188,0.371,83.41,-66.96,45.47,0,3
15453.046,-0.983,0.204,0.379,87.95,-64.12,48.86,0,3
15453.046,-0.977,0.217,0.383,91.4,-61.31,53.16,0,3
15453.062,-0.966,0.228,0.394,92.62,-59.33,56.95,0,3
15453.062,-0.955,0.23,0.399,91.07,-58.05,59.63,0,3
15453.078,-0.941,0.238,0.402,86.0,-57.83,61.13,0,3
15453.093,-0.928,0.231,0.412,78.92,-58.29,61.16,0,3
15453.093,-0.922,0.22,0.426,71.69,-58.75,60.4,0,3
15453.109,-0.911,0.222,0.445,65.13,-58.96,59.11,0,3
15453.125,-0.897,0.226,0.463,59.97,-59.02,56.7,0,3
15453.14,-0.878,0.23,0.477,55.36,-58.84,54.45,0,3
15453.14,-0.862,0.246,0.497,50.78,-58.44,52.31,0,3
15453.156,-0.862,0.262,0.507,46.02,-58.99,49.93,0,3
15453.156,-0.861,0.283,0.511,40.22,-60.76,47.3,0,3
15453.171,-0.855,0.299,0.513,33.66,-63.36,45.08,0,3
15453.187,-0.852,0.312,0.516,28.05,-66.26,43.4,0,3
15453.187,-0.839,0.327,0.518,24.9,-68.82,42.94,0,3
15453.203,-0.834,0.327,0.523,25.18,-70.71,43.98,0,3
15453.203,-0.818,0.315,0.526,28.57,-71.17,46.21,0,3
15453.218,-0.79,0.315,0.528,32.75,-69.89,47.58,0,3
15453.234,-0.776,0.325,0.523,36.84,-67.57,47.49,0,3
15453.234,-0.766,0.344,0.516,39.03,-65.83,46.45,0,3
15453.25,-0.762,0.367,0.516,38.88,-64.64,45.41,0,3
15453.265,-0.764,0.382,0.516,37.2,-63.97,44.86,0,3
15453.265,-0.755,0.393,0.523,35.65,-63.39,45.14,0,3
15453.281,-0.735,0.404,0.538,34.82,-62.62,45.32,0,3
15453.281,-0.726,0.403,0.539,36.59,-61.92,45.11,0,3
15453.296,-0.71,0.428,0.535,38.09,-61.49,44.98,0,3
15453.312,-0.697,0.454,0.531,36.77,-61.07,44.19,0,3
15453.328,-0.694,0.47,0.531,32.96,-60.46,43.03,0,3
15453.328,-0.689,0.469,0.54,27.86,-59.54,42.36,0,3
15453.343,-0.676,0.473,0.553,25.09,-59.02,42.05,0,3
15453.343,-0.675,0.452,0.567,25.39,-57.83,41.87,0,3
15453.359,-0.653,0.443,0.589,27.59,-57.22,43.7,0,3
15453.375,-0.634,0.477,0.593,33.14,-55.57,42.3,0,3
15453.375,-0.634,0.472,0.587,36.68,-54.6,42.12,0,3
15453.39,-0.625,0.492,0.591,38.61,-54.35,44.01,0,3
15453.406,-0.618,0.532,0.591,41.54,-54.38,44.74,0,3
15453.406,-0.628,0.544,0.578,42.91,-55.09,44.77,0,3
15453.421,-0.619,0.564,0.57,41.05,-56.25,45.84,0,3
15453.421,-0.597,0.581,0.553,36.07,-57.8,47.24,0,3
15453.437,-0.575,0.579,0.539,27.71,-59.82,47.94,0,3
15453.453,-0.555,0.561,0.542,18.19,-62.01,47.03,0,3
15453.468,-0.541,0.541,0.547,11.35,-62.5,45.05,0,3
15453.468,-0.529,0.543,0.551,7.17,-61.34,42.76,0,3
15453.484,-0.521,0.536,0.565,5.95,-59.14,40.59,0,3
15453.484,-0.504,0.531,0.59,7.05,-55.82,39.55,0,3
15453.5,-0.49,0.537,0.606,11.44,-52.64,38.88,0,3
15453.515,-0.488,0.566,0.617,18.4,-50.72,38.36,0,3
15453.515,-0.49,0.595,0.624,25.85,-50.48,39.25,0,3
15453.531,-0.492,0.629,0.623,31.65,-50.97,41.72,0,3
15453.546,-0.483,0.652,0.619,34.49,-51.94,44.22,0,3
15453.546,-0.47,0.657,0.615,35.22,-53.41,45.96,0,3
15453.562,-0.456,0.66,0.611,35.46,-54.23,47.18,0,3
15453.562,-0.438,0.669,0.606,35.25,-53.53,47.58,0,3
15453.578,-0.429,0.674,0.602,34.64,-52.06,47.24,0,3
15453.593,-0.422,0.673,0.608,34.24,-50.36,47.91,0,3
15453.593,-0.4,0.672,0.62,34.85,-48.16,49.59,0,3
15453.609,-0.397,0.684,0.628,35.83,-47.88,49.81,0,3
15453.625,-0.397,0.687,0.632,36.71,-47.94,50.78,0,3
15453.625,-0.374,0.683,0.63,38.27,-49.2,51.88,0,3
15453.64,-0.353,0.69,0.622,39.34,-51.0,52.8,0,3
15453.656,-0.346,0.694,0.612,40.56,-52.89,53.35,0,3
15453.656,-0.344,0.708,0.6,41.2,-54.66,53.71,0,3
15453.671,-0.328,0.714,0.589,40.13,-56.49,54.26,0,3
15453.671,-0.309,0.717,0.586,38.76,-57.37,54.87,0,3
15453.687,-0.293,0.727,0.579,37.84,-57.56,55.21,0,3
15453.703,-0.275,0.731,0.578,36.71,-57.22,55.54,0,3
15453.718,-0.267,0.721,0.566,37.05,-57.47,55.76,0,3
15453.718,-0.255,0.721,0.557,39.25,-58.11,56.03,0,3
15453.734,-0.24,0.731,0.552,42.54,-58.47,56.79,0,3
15453.734,-0.231,0.746,0.54,46.69,-58.78,58.11,0,3
15453.75,-0.213,0.755,0.518,50.81,-59.05,60.64,0,3
15453.765,-0.184,0.764,0.499,53.16,-57.8,63.14,0,3
15453.765,-0.166,0.772,0.489,52.1,-55.06,64.27,0,3
15453.781,-0.151,0.779,0.481,47.67,-52.1,63.69,0,3
15453.796,-0.133,0.785,0.481,40.74,-49.53,61.28,0,3
15453.796,-0.122,0.777,0.479,34.33,-47.79,58.6,0,3
15453.812,-0.111,0.767,0.478,30.09,-46.78,56.92,0,3
15453.812,-0.097,0.767,0.483,28.63,-44.74,55.79,0,3
15453.828,-0.086,0.777,0.493,28.32,-42.12,54.96,0,3
15453.843,-0.084,0.786,0.497,29.18,-40.77,54.63,0,3
15453.859,-0.081,0.796,0.498,29.66,-40.62,55.15,0,3
15453.859,-0.06,0.803,0.499,29.33,-41.63,55.97,0,3
15453.875,-0.043,0.806,0.495,29.82,-43.03,56.12,0,3
15453.875,-0.042,0.809,0.483,31.31,-43.76,55.6,0,3
15453.89,-0.03,0.81,0.462,32.75,-44.04,55.15,0,3
15453.906,-0.013,0.814,0.442,32.14,-43.24,55.06,0,3
15453.906,0.001,0.811,0.425,29.69,-42.3,55.15,0,3
15453.921,0.004,0.808,0.408,26.06,-42.6,55.21,0,3
15453.921,0.018,0.809,0.392,22.06,-43.73,55.7,0,3
15453.937,0.044,0.803,0.39,18.16,-43.95,56.37,0,3
15453.953,0.074,0.785,0.398,15.78,-42.51,56.43,0,3
15453.953,0.099,0.782,0.403,15.63,-39.43,55.42,0,3
15453.968,0.111,0.803,0.407,16.66,-35.65,53.07,0,3
15453.984,0.104,0.834,0.403,17.21,-32.62,50.08,0,3
15454.0,0.092,0.885,0.39,15.11,-31.56,48.07,0,3
15454.0,0.092,0.934,0.383,8.82,-31.53,47.36,0,3
15454.015,0.094,0.941,0.389,1.22,-31.77,48.55,0,3
15454.015,0.1,0.918,0.4,-3.39,-32.23,52.03,0,3
15454.031,0.12,0.879,0.412,-3.75,-32.87,56.67,0,3
15454.046,0.147,0.846,0.414,-0.82,-32.53,60.24,0,3
15454.046,0.163,0.828,0.416,3.39,-30.55,61.8,0,3
15454.062,0.166,0.798,0.407,8.91,-28.26,61.77,0,3
15454.062,0.192,0.788,0.408,13.86,-25.61,60.91,0,3
15454.078,0.223,0.777,0.406,17.98,-22.16,59.21,0,3
15454.093,0.239,0.777,0.399,20.75,-18.19,56.92,0,3
15454.109,0.251,0.798,0.391,20.63,-15.11,53.59,0,3
15454.109,0.247,0.833,0.386,17.12,-13.28,49.1,0,3
15454.125,0.227,0.855,0.384,12.09,-13.06,45.08,0,3
15454.125,0.222,0.872,0.388,7.51,-14.34,43.89,0,3
15454.14,0.219,0.886,0.391,5.31,-16.36,45.87,0,3
15454.156,0.233,0.888,0.399,5.22,-18.52,50.23,0,3
15454.156,0.245,0.884,0.41,5.98,-20.26,54.84,0,3
15454.171,0.255,0.871,0.412,7.23,-22.03,58.17,0,3
15454.171,0.268,0.85,0.412,8.61,-23.26,59.97,0,3
15454.187,0.281,0.837,0.415,8.7,-23.93,60.52,0,3
15454.203,0.288,0.804,0.405,9.25,-24.84,60.34,0,3
15454.218,0.306,0.774,0.397,10.5,-26.03,60.55,0,3
15454.218,0.337,0.756,0.389,12.76,-26.34,60.12,0,3
15454.234,0.357,0.764,0.375,15.02,-24.9,58.29,0,3
15454.234,0.357,0.778,0.365,16.27,-22.61,55.73,0,3
15454.25,0.35,0.788,0.361,16.63,-21.09,54.6,0,3
15454.265,0.341,0.814,0.366,17.0,-20.39,54.87,0,3
15454.265,0.351,0.822,0.371,17.12,-20.2,56.58,0,3
15454.281,0.365,0.811,0.375,17.61,-20.84,58.75,0,3
15454.296,0.384,0.798,0.377,19.5,-21.94,60.43,0,3
15454.296,0.387,0.791,0.372,21.49,-23.04,61.8,0,3
15454.312,0.396,0.774,0.362,22.61,-24.45,62.93,0,3
15454.312,0.413,0.756,0.354,22.49,-25.39,63.57,0,3
15454.328,0.428,0.737,0.343,22.34,-25.91,63.48,0,3
15454.343,0.434,0.722,0.338,23.22,-26.37,63.08,0,3
15454.359,0.442,0.71,0.325,25.82,-26.95,62.72,0,3
15454.359,0.459,0.727,0.306,27.92,-26.76,62.07,0,3
15454.375,0.462,0.735,0.287,28.17,-26.34,61.65,0,3
15454.375,0.484,0.746,0.272,26.0,-25.64,61.8,0,3
15454.39,0.486,0.756,0.267,22.22,-23.77,61.89,0,3
15454.406,0.492,0.748,0.267,18.92,-21.97,62.23,0,3
15454.406,0.491,0.752,0.268,15.96,-21.36,62.81,0,3
15454.421,0.49,0.751,0.268,14.34,-22.46,63.94,0,3
15454.437,0.501,0.754,0.264,12.6,-24.41,65.61,0,3
15454.437,0.511,0.75,0.252,10.59,-26.4,67.72,0,3
15454.453,0.527,0.734,0.241,7.9,-28.02,69.52,0,3
15454.453,0.536,0.705,0.224,4.67,-29.3,71.02,0,3
15454.468,0.548,0.681,0.207,2.41,-29.36,71.81,0,3
15454.484,0.576,0.656,0.218,2.29,-26.25,71.63,0,3
15454.484,0.598,0.61,0.223,5.01,-20.69,70.47,0,3
15454.5,0.615,0.572,0.221,10.99,-14.53,68.85,0,3
15454.515,0.64,0.564,0.229,18.8,-7.23,66.84,0,3
15454.515,0.645,0.569,0.229,26.15,0.12,63.84,0,3
15454.531,0.648,0.586,0.233,28.69,6.07,60.7,0,3
15454.546,0.642,0.605,0.246,26.8,10.77,58.17,0,3
15454.546,0.639,0.611,0.261,21.73,12.42,56.58,0,3
15454.562,0.641,0.609,0.274,14.56,10.96,56.18,0,3
15454.562,0.644,0.612,0.292,6.26,7.14,55.7,0,3
15454.578,0.644,0.607,0.311,-7.97,-3.78,52.89,0,3
15454.593,0.656,0.599,0.324,-11.99,-8.73,51.64,0,3
15454.593,0.674,0.59,0.332,-10.8,-12.33,50.72,0,3
15454.609,0.69,0.563,0.333,-5.58,-14.28,51.03,0,3
15454.625,0.704,0.56,0.324,2.44,-14.77,51.27,0,3
15454.625,0.697,0.571,0.308,11.17,-14.19,51.03,0,3
15454.64,0.7,0.572,0.284,17.94,-13.82,51.27,0,3
15454.656,0.705,0.578,0.267,21.52,-12.91,51.97,0,3
15454.656,0.711,0.574,0.255,22.28,-12.12,52.58,0,3
15454.671,0.714,0.563,0.246,22.34,-11.26,53.16,0,3
15454.671,0.722,0.559,0.246,22.77,-10.32,53.74,0,3
15454.687,0.729,0.547,0.241,23.32,-9.09,53.93,0,3
15454.703,0.733,0.531,0.238,23.62,-7.9,53.93,0,3
15454.703,0.739,0.529,0.24,22.71,-6.71,53.56,0,3
15454.718,0.737,0.52,0.239,21.58,-6.44,52.86,0,3
15454.734,0.722,0.521,0.237,20.6,-7.54,52.89,0,3
15454.734,0.717,0.524,0.225,19.41,-10.35,53.96,0,3
15454.75,0.718,0.52,0.211,17.61,-12.79,55.33,0,3
15454.765,0.717,0.512,0.2,15.56,-15.08,56.46,0,3
15454.765,0.73,0.514,0.181,13.79,-17.37,57.31,0,3
15454.781,0.759,0.514,0.172,11.69,-17.4,58.6,0,3
15454.781,0.766,0.503,0.167,10.32,-16.02,59.63,0,3
15454.796,0.773,0.479,0.165,11.17,-14.04,61.1,0,3
15454.812,0.781,0.454,0.162,14.68,-12.82,62.96,0,3
15454.812,0.796,0.442,0.159,19.78,-11.44,64.18,0,3
15454.828,0.812,0.434,0.159,24.81,-8.48,64.88,0,3
15454.843,0.819,0.427,0.155,27.28,-4.55,64.55,0,3
15454.843,0.82,0.417,0.154,27.28,-1.83,62.93,0,3
15454.859,0.819,0.424,0.16,25.76,-0.4,60.52,0,3
15454.875,0.816,0.44,0.159,23.22,0.89,58.17,0,3
15454.875,0.828,0.45,0.172,18.77,2.75,57.41,0,3
15454.89,0.83,0.433,0.183,14.1,4.27,57.8,0,3
15454.906,0.84,0.405,0.193,12.51,4.97,58.87,0,3
15454.906,0.853,0.387,0.213,13.06,5.92,59.82,0,3
15454.921,0.864,0.361,0.222,14.4,7.08,59.51,0,3
15454.937,0.859,0.338,0.232,15.72,8.51,58.81,0,3
15454.937,0.86,0.327,0.245,16.33,9.09,57.65,0,3
15454.953,0.857,0.32,0.254,16.08,8.73,55.54,0,3
15454.953,0.855,0.316,0.26,15.44,7.57,53.5,0,3
15454.968,0.857,0.312,0.262,15.47,5.68,52.06,0,3
15454.984,0.858,0.305,0.256,16.27,3.11,51.7,0,3
15455.0,0.862,0.3,0.245,17.7,0.09,51.94,0,3
15455.0,0.865,0.293,0.236,20.02,-2.59,52.06,0,3
15455.015,0.86,0.294,0.225,22.43,-4.58,52.34,0,3
15455.015,0.859,0.294,0.211,24.23,-6.1,52.83,0,3
15455.031,0.877,0.289,0.198,24.87,-6.53,53.77,0,3
15455.046,0.892,0.282,0.184,24.2,-6.07,54.54,0,3
15455.046,0.89,0.272,0.165,23.5,-5.28,54.72,0,3
15455.062,0.874,0.26,0.144,23.26,-5.22,54.75,0,3
15455.062,0.862,0.253,0.12,23.35,-6.87,55.39,0,3
15455.078,0.856,0.251,0.099,22.61,-8.61,56.79,0,3
15455.093,0.877,0.239,0.091,20.05,-7.87,58.87,0,3
15455.109,0.898,0.236,0.094,15.14,-4.0,60.21,0,3
15455.109,0.903,0.231,0.102,8.27,0.67,60.03,0,3
15455.125,0.912,0.216,0.121,0.92,4.24,59.27,0,3
15455.125,0.899,0.208,0.153,-4.55,6.62,58.6,0,3
15455.14,0.887,0.207,0.181,-7.14,7.32,58.29,0,3
15455.156,0.881,0.202,0.21,-6.81,6.87,58.84,0,3
15455.156,0.882,0.195,0.229,-2.47,5.86,60.4,0,3
15455.171,0.892,0.176,0.244,5.16,5.1,62.9,0,3
15455.187,0.896,0.136,0.254,14.1,4.73,65.86,0,3
15455.187,0.91,0.095,0.257,23.38,4.0,67.84,0,3
15455.203,0.926,0.08,0.26,31.22,3.63,67.75,0,3
15455.203,0.917,0.078,0.257,36.5,2.84,65.03,0,3
15455.218,0.94,0.116,0.249,38.3,1.34,61.56,0,3
15455.234,0.934,0.15,0.228,38.0,1.13,58.38,0,3
15455.25,0.931,0.15,0.219,35.04,0.58,58.2,0,3
15455.25,0.94,0.136,0.216,31.65,0.18,60.34,0,3
15455.265,0.932,0.117,0.217,30.06,0.34,62.78,0,3
15455.265,0.929,0.102,0.219,29.42,0.61,64.09,0,3
15455.281,0.921,0.099,0.221,27.31,0.73,64.82,0,3
15455.296,0.92,0.096,0.224,23.5,0.4,64.91,0,3
15455.296,0.918,0.093,0.231,18.49,0.21,65.1,0,3
15455.312,0.906,0.062,0.236,14.13,-0.7,65.8,0,3
15455.312,0.901,0.034,0.241,11.84,-2.17,66.62,0,3
15455.328,0.902,0.015,0.243,12.18,-4.03,67.38,0,3
15455.343,0.91,-0.005,0.239,15.56,-5.46,67.9,0,3
15455.359,0.923,-0.002,0.239,20.17,-5.86,68.67,0,3
15455.359,0.92,0.012,0.231,25.61,-5.95,69.34,0,3
15455.375,0.908,0.027,0.215,30.3,-5.86,70.35,0,3
15455.375,0.893,0.037,0.204,32.59,-6.1,72.51,0,3
15455.39,0.885,0.012,0.193,33.33,-6.01,76.69,0,3
15455.406,0.884,-0.023,0.184,31.59,-6.07,81.94,0,3
15455.406,0.893,-0.065,0.176,29.08,-6.59,85.6,0,3
15455.421,0.892,-0.107,0.173,25.97,-6.78,87.68,0,3
15455.421,0.893,-0.128,0.176,23.19,-7.02,87.86,0,3
15455.437,0.895,-0.127,0.169,21.45,-7.26,86.06,0,3
15455.453,0.869,-0.108,0.16,20.54,-6.68,83.9,0,3
15455.453,0.85,-0.069,0.159,19.78,-6.13,82.86,0,3
15455.468,0.832,-0.064,0.161,19.35,-6.1,84.78,0,3
15455.484,0.829,-0.165,0.159,19.59,-5.37,91.86,0,3
15455.484,0.858,-0.238,0.167,20.26,-4.76,99.58,0,3
15455.5,0.875,-0.266,0.16,21.94,-5.01,100.13,0,3
15455.515,0.887,-0.286,0.152,22.58,-4.12,95.86,0,3
15455.515,0.882,-0.27,0.151,21.21,-1.34,91.04,0,3
15455.531,0.866,-0.225,0.16,17.88,1.8,86.25,0,3
15455.531,0.849,-0.19,0.167,13.15,4.58,83.71,0,3
15455.546,0.817,-0.199,0.19,9.46,7.17,84.75,0,3
15455.562,0.805,-0.276,0.209,12.39,9.58,95.65,0,3
15455.562,0.825,-0.349,0.228,18.13,10.32,96.65,0,3
15455.578,0.843,-0.389,0.24,22.74,11.47,94.36,0,3
15455.593,0.842,-0.42,0.242,23.8,12.51,91.53,0,3
15455.593,0.843,-0.409,0.253,22.55,13.15,88.08,0,3
15455.609,0.837,-0.43,0.256,20.33,13.34,86.15,0,3
15455.625,0.824,-0.399,0.253,18.04,12.97,84.78,0,3
15455.64,0.808,-0.408,0.252,16.11,12.21,83.65,0,3
15455.64,0.795,-0.457,0.255,14.19,11.96,85.45,0,3
15455.656,0.79,-0.443,0.263,12.63,12.88,87.53,0,3
15455.656,0.772,-0.432,0.265,11.51,14.37,86.83,0,3
15455.671,0.738,-0.419,0.27,10.07,14.56,85.09,0,3
15455.687,0.729,-0.437,0.281,9.77,12.63,85.09,0,3
15455.687,0.745,-0.527,0.276,11.44,10.16,89.85,0,3
15455.703,0.748,-0.546,0.263,13.79,8.3,94.58,0,3
15455.703,0.751,-0.523,0.241,14.71,7.63,93.33,0,3
15455.718,0.723,-0.502,0.231,10.65,7.81,89.91,0,3
15455.734,0.689,-0.454,0.233,3.81,8.33,87.19,0,3
15455.734,0.657,-0.422,0.235,-3.81,9.31,86.73,0,3
15455.75,0.647,-0.461,0.245,-11.75,9.52,90.43,0,3
15455.765,0.63,-0.518,0.25,-16.51,8.94,97.08,0,3
15455.765,0.626,-0.544,0.256,-16.66,6.99,101.84,0,3
15455.781,0.629,-0.565,0.255,-14.98,4.88,102.82,0,3
15455.796,0.619,-0.573,0.254,-13.25,4.27,101.99,0,3
15455.796,0.599,-0.575,0.254,-11.23,5.43,102.54,0,3
15455.812,0.617,-0.635,0.27,-9.83,7.35,105.47,0,3
15455.812,0.624,-0.709,0.287,-8.03,9.55,108.92,0,3
15455.828,0.623,-0.714,0.309,-3.88,10.13,107.7,0,3
15455.843,0.625,-0.754,0.322,2.35,8.48,103.43,0,3
15455.843,0.599,-0.761,0.318,9.83,4.55,99.4,0,3
15455.859,0.582,-0.694,0.303,17.49,-0.85,94.09,0,3
15455.875,0.591,-0.705,0.264,22.92,-5.92,91.07,0,3
15455.875,0.587,-0.703,0.235,23.96,-7.11,93.23,0,3
15455.89,0.57,-0.687,0.222,21.64,-5.46,95.89,0,3
15455.906,0.55,-0.719,0.221,15.87,-2.99,98.54,0,3
15455.906,0.516,-0.706,0.244,7.93,-0.46,99.64,0,3
15455.921,0.478,-0.724,0.273,2.66,-0.49,98.36,0,3
15455.921,0.465,-0.786,0.289,1.86,-4.67,99.03,0,3
15455.937,0.475,-0.849,0.301,5.19,-8.85,102.63,0,3
15455.953,0.507,-0.935,0.303,10.35,-9.98,106.48,0,3
15455.968,0.528,-1.0,0.298,13.79,-6.41,108.46,0,3
15455.968,0.511,-1.015,0.3,14.44,1.13,105.35,0,3
15455.984,0.474,-1.014,0.315,11.14,7.72,97.2,0,3
15455.984,0.439,-0.994,0.329,5.8,10.47,86.12,0,3
15456.0,0.387,-0.924,0.342,1.13,10.74,74.43,0,3
15456.015,0.337,-0.865,0.354,-1.95,9.28,65.92,0,3
15456.015,0.328,-0.874,0.374,-3.94,8.09,66.04,0,3
15456.031,0.297,-0.868,0.4,-4.09,5.62,72.73,0,3
15456.031,0.289,-0.881,0.404,0.15,0.34,78.98,0,3
15456.046,0.295,-0.922,0.388,5.98,-6.35,83.9,0,3
15456.062,0.278,-0.898,0.361,10.1,-13.58,85.39,0,3
15456.062,0.242,-0.853,0.312,11.29,-21.64,82.77,0,3
15456.078,0.198,-0.826,0.25,7.57,-29.33,80.9,0,3
15456.093,0.226,-0.794,0.21,-0.7,-33.27,82.03,0,3
15456.093,0.262,-0.787,0.189,-12.27,-30.12,86.09,0,3
15456.109,0.253,-0.801,0.192,-22.95,-23.74,89.45,0,3
15456.125,0.259,-0.873,0.207,-28.5,-18.46,92.62,0,3
15456.125,0.251,-0.913,0.233,-26.03,-14.86,95.28,0,3
15456.14,0.247,-0.926,0.234,-15.26,-13.79,94.76,0,3
15456.14,0.228,-0.902,0.224,-2.93,-13.58,93.72,0,3
15456.156,0.187,-0.878,0.203,7.66,-13.79,92.29,0,3
15456.171,0.206,-0.94,0.174,12.7,-14.22,95.95,0,3
15456.187,0.224,-0.936,0.177,10.1,-11.78,102.88,0,3
15456.187,0.19,-0.956,0.167,3.97,-10.1,104.46,0,3
15456.203,0.177,-1.024,0.154,-6.41,-11.08,104.19,0,3
15456.203,0.168,-1.021,0.163,-17.98,-12.15,101.23,0,3
15456.218,0.12,-1.009,0.165,-25.15,-13.18,93.23,0,3
15456.234,0.089,-1.043,0.156,-28.84,-14.22,87.86,0,3
15456.234,0.079,-1.06,0.163,-29.27,-13.18,87.95,0,3
15456.25,0.096,-1.089,0.173,-24.72,-9.43,89.6,0,3
15456.265,0.099,-1.145,0.182,-17.52,-2.99,91.62,0,3
15456.265,0.084,-1.172,0.195,-9.22,2.47,90.76,0,3
15456.281,0.087,-1.163,0.207,-1.04,5.37,85.3,0,3
15456.296,0.064,-1.133,0.207,5.1,7.11,77.64,0,3
15456.296,0.041,-1.096,0.204,6.84,6.78,69.89,0,3
15456.312,0.023,-1.053,0.206,4.0,5.71,64.76,0,3
15456.312,-0.014,-1.006,0.213,-0.58,4.09,61.13,0,3
15456.328,-0.028,-1.039,0.212,-5.01,0.52,60.15,0,3
15456.343,-0.035,-1.088,0.222,-6.68,-1.5,64.88,0,3
15456.343,-0.047,-1.086,0.239,-2.78,-1.8,69.25,0,3
15456.359,-0.031,-1.09,0.245,4.94,-1.31,69.64,0,3
15456.375,-0.039,-1.059,0.249,13.49,1.19,67.11,0,3
15456.375,-0.06,-1.036,0.246,20.94,3.3,64.09,0,3
15456.39,-0.054,-1.079,0.224,24.69,3.88,65.52,0,3
15456.39,-0.055,-1.118,0.202,23.56,4.94,70.25,0,3
15456.406,-0.036,-1.162,0.197,18.65,5.65,71.23,0,3
15456.421,-0.022,-1.239,0.197,12.63,7.63,68.79,0,3
15456.421,-0.012,-1.257,0.224,7.51,11.84,63.94,0,3
15456.437,-0.036,-1.252,0.255,6.74,16.14,54.48,0,3
15456.453,-0.07,-1.243,0.267,9.43,18.1,44.1,0,3
15456.453,-0.085,-1.177,0.28,13.43,19.17,36.1,0,3
15456.468,-0.127,-1.092,0.297,18.59,18.98,30.18,0,3
15456.484,-0.153,-1.043,0.287,23.16,16.11,27.47,0,3
15456.484,-0.151,-1.048,0.272,22.98,11.87,30.55,0,3
15456.5,-0.113,-1.1,0.271,20.05,9.03,38.12,0,3
15456.515,-0.108,-1.127,0.278,17.85,8.18,41.84,0,3
15456.515,-0.067,-1.156,0.28,15.26,7.66,38.73,0,3
15456.531,-0.075,-1.13,0.294,11.02,9.06,31.53,0,3
15456.531,-0.134,-1.099,0.3,7.11,7.29,14.53,0,3
15456.546,-0.144,-1.057,0.297,5.55,5.92,11.2,0,3
15456.562,-0.175,-1.004,0.28,3.57,5.01,12.24,0,3
15456.562,-0.184,-1.012,0.273,0.21,6.16,16.14,0,3
15456.578,-0.144,-0.996,0.304,-0.03,9.34,17.73,0,3
15456.593,-0.149,-0.979,0.308,2.41,10.8,16.17,0,3
15456.609,-0.16,-0.945,0.312,4.49,10.59,14.1,0,3
15456.609,-0.187,-0.922,0.307,6.26,8.67,13.76,0,3
15456.625,-0.189,-0.887,0.292,5.98,5.01,15.26,0,3
15456.625,-0.166,-0.897,0.282,2.14,1.98,18.46,0,3
15456.64,-0.163,-0.911,0.292,-4.73,0.61,22.13,0,3
15456.656,-0.134,-0.925,0.308,-9.52,-0.67,22.61,0,3
15456.656,-0.14,-0.951,0.322,-10.41,-1.43,20.97,0,3
15456.671,-0.16,-0.951,0.328,-6.68,-2.66,18.62,0,3
15456.671,-0.178,-0.951,0.315,-0.4,-4.27,16.72,0,3
15456.687,-0.185,-0.956,0.292,5.16,-5.25,16.88,0,3
15456.703,-0.174,-0.965,0.273,7.81,-4.0,19.38,0,3
15456.703,-0.179,-0.975,0.265,7.14,-0.55,22.43,0,3
15456.718,-0.168,-0.986,0.274,3.42,2.9,23.93,0,3
15456.734,-0.172,-1.005,0.293,-1.31,5.37,23.44,0,3
15456.75,-0.198,-1.014,0.313,-4.09,5.4,21.18,0,3
15456.75,-0.196,-1.004,0.318,-4.67,2.5,18.19,0,3
15456.765,-0.213,-1.01,0.313,-2.84,-0.4,16.54,0,3
15456.765,-0.207,-1.002,0.312,-0.03,-2.35,16.79,0,3
15456.781,-0.208,-0.989,0.308,2.9,-2.72,16.94,0,3
15456.781,-0.21,-0.984,0.311,5.8,-2.04,16.05,0,3
15456.796,-0.214,-0.979,0.317,8.61,-1.25,14.95,0,3
15456.812,-0.214,-0.977,0.323,11.9,-0.73,14.83,0,3
15456.828,-0.227,-0.955,0.318,15.32,-0.61,14.4,0,3
15456.828,-0.237,-0.935,0.304,16.79,-1.92,13.52,0,3
15456.843,-0.242,-0.913,0.291,15.32,-3.78,13.37,0,3
15456.843,-0.232,-0.905,0.277,10.19,-5.74,15.11,0,3
15456.859,-0.209,-0.919,0.282,3.2,-7.23,17.12,0,3
15456.875,-0.213,-0.922,0.299,-0.89,-7.78,17.76,0,3
15456.875,-0.231,-0.922,0.301,-0.15,-8.73,17.85,0,3
15456.89,-0.231,-0.895,0.297,3.05,-9.55,18.43,0,3
