timestamp,ax,ay,az,gx,gy,gz,orient_label,motion_label
18983.125,0.249,0.935,0.0,-2.81,-6.96,2.96,4,5
18983.14,0.248,0.926,-0.012,-1.98,-6.93,1.28,4,5
18983.14,0.24,0.922,-0.02,-0.43,-6.53,0.09,4,5
18983.156,0.231,0.918,-0.02,0.67,-6.23,-0.89,4,5
18983.171,0.227,0.932,-0.032,0.79,-5.83,-2.32,4,5
18983.171,0.225,0.935,-0.029,1.01,-5.01,-3.85,4,5
18983.187,0.223,0.942,-0.03,1.71,-4.33,-4.64,4,5
18983.203,0.226,0.948,-0.025,2.41,-3.63,-4.36,4,5
18983.203,0.224,0.951,-0.02,2.23,-3.08,-3.72,4,5
18983.218,0.218,0.956,-0.012,0.82,-3.57,-2.96,4,5
18983.218,0.219,0.954,-0.007,-1.25,-4.94,-2.56,4,5
18983.234,0.22,0.943,-0.005,-2.59,-6.35,-2.41,4,5
18983.25,0.212,0.933,-0.014,-1.98,-7.32,-2.62,4,5
18983.25,0.213,0.931,-0.032,-0.52,-7.9,-2.9,4,5
18983.265,0.22,0.938,-0.048,0.31,-7.54,-3.57,4,5
18983.281,0.227,0.944,-0.057,-0.18,-6.23,-4.09,4,5
18983.296,0.227,0.945,-0.062,-0.89,-3.75,-4.3,4,5
18983.296,0.211,0.948,-0.042,-0.55,0.61,-4.46,4,5
18983.312,0.2,0.958,-0.033,0.73,1.46,-4.03,4,5
18983.328,0.195,0.968,-0.021,1.16,0.89,-3.42,4,5
18983.343,0.198,0.966,-0.02,0.7,-0.52,-2.41,4,5
18983.343,0.208,0.975,-0.016,-0.64,-2.29,-1.22,4,5
18983.359,0.208,0.97,-0.02,-2.08,-3.6,-0.31,4,5
18983.359,0.218,0.965,-0.027,-3.54,-4.36,0.52,4,5
18983.375,0.23,0.964,-0.031,-4.18,-4.21,1.37,4,5
18983.39,0.229,0.959,-0.035,-3.91,-3.17,1.83,4,5
18983.39,0.234,0.953,-0.039,-3.78,-1.56,2.32,4,5
18983.406,0.239,0.949,-0.03,-3.81,0.37,2.75,4,5
18983.421,0.232,0.935,-0.018,-3.3,2.04,2.35,4,5
18983.421,0.218,0.929,-0.013,-2.78,2.23,1.28,4,5
18983.437,0.206,0.93,-0.008,-2.41,0.73,-0.21,4,5
18983.437,0.195,0.933,-0.014,-1.31,-1.25,-2.11,4,5
18983.453,0.193,0.945,-0.024,-0.09,-2.81,-3.69,4,5
18983.468,0.169,0.978,-0.057,2.47,-4.0,-4.24,4,5
18983.484,0.147,0.994,-0.082,2.69,-3.23,-1.83,4,5
18983.5,0.11,1.025,-0.11,1.65,-1.95,2.96,4,5
18983.515,0.061,1.063,-0.16,-1.37,-0.85,10.38,4,5
18983.515,0.055,1.095,-0.205,-6.13,-0.21,20.02,4,5
18983.531,0.039,1.123,-0.235,-8.12,3.3,30.43,4,5
18983.531,0.007,1.131,-0.276,-4.7,8.58,40.71,4,5
18983.546,-0.019,1.14,-0.329,1.77,16.21,51.52,4,5
18983.562,-0.072,1.149,-0.38,10.32,27.25,62.35,4,5
18983.562,-0.137,1.153,-0.438,19.5,41.32,74.89,4,5
18983.578,-0.21,1.179,-0.483,24.93,59.82,90.82,4,5
18983.593,-0.301,1.183,-0.494,25.09,81.82,111.36,4,5
18983.593,-0.392,1.191,-0.483,21.03,106.91,137.88,4,5
18983.609,-0.441,1.199,-0.451,14.62,133.46,169.71,4,5
18983.609,-0.462,1.194,-0.396,9.03,159.7,203.04,4,5
18983.625,-0.502,1.203,-0.32,5.62,188.39,234.29,4,5
18983.64,-0.672,1.181,-0.114,1.28,250.4,289.47,4,5
18983.656,-0.781,1.143,-0.035,-1.98,280.86,316.45,4,5
18983.671,-0.873,1.109,0.068,-8.64,309.79,344.28,4,5
18983.671,-0.975,1.077,0.172,-15.23,333.11,370.28,4,5
18983.687,-1.05,0.991,0.245,-20.17,349.13,394.94,4,5
18983.703,-1.062,0.861,0.315,-24.63,358.71,416.09,4,5
18983.703,-1.04,0.717,0.391,-24.48,362.62,427.41,4,5
18983.718,-1.006,0.575,0.466,-13.55,361.06,426.07,4,5
18983.734,-0.934,0.478,0.527,8.55,361.43,411.18,4,5
18983.734,-0.815,0.425,0.561,34.85,359.6,386.82,4,5
18983.75,-0.709,0.373,0.579,61.43,354.17,354.84,4,5
18983.765,-0.61,0.328,0.561,88.84,348.83,319.25,4,5
18983.765,-0.507,0.314,0.527,112.77,344.68,283.97,4,5
18983.781,-0.413,0.304,0.483,132.73,342.91,251.01,4,5
18983.796,-0.326,0.302,0.46,148.01,342.48,221.11,4,5
18983.796,-0.264,0.322,0.469,161.29,342.66,197.12,4,5
18983.812,-0.222,0.345,0.448,172.37,346.14,181.55,4,5
18983.828,-0.172,0.387,0.449,174.81,352.82,172.43,4,5
18983.828,-0.098,0.409,0.469,170.87,362.01,166.81,4,5
18983.843,-0.061,0.404,0.511,164.01,377.33,164.8,4,5
18983.843,-0.059,0.405,0.565,155.74,394.45,162.76,4,5
18983.859,-0.09,0.409,0.635,143.56,407.42,165.87,4,5
18983.875,-0.186,0.434,0.708,125.46,417.4,173.56,4,5
18983.875,-0.356,0.461,0.791,95.65,424.45,185.55,4,5
18983.89,-0.49,0.475,0.913,52.49,417.46,198.28,4,5
18983.906,-0.57,0.427,1.032,5.52,394.88,212.2,4,5
18983.906,-0.619,0.329,1.123,-36.62,364.82,230.32,4,5
18983.921,-0.636,0.204,1.197,-70.41,332.16,252.45,4,5
18983.937,-0.584,0.046,1.272,-95.0,298.04,278.7,4,5
18983.937,-0.533,-0.076,1.362,-110.05,265.05,302.5,4,5
18983.953,-0.585,-0.197,1.448,-113.59,233.5,314.89,4,5
18983.953,-0.638,-0.37,1.565,-106.72,195.59,316.05,4,5
18983.968,-0.693,-0.639,1.858,-46.11,89.63,290.96,4,5
18983.984,-0.659,-0.682,1.955,2.11,21.12,266.67,4,5
18984.0,-0.594,-0.701,1.938,56.25,-52.52,238.26,4,5
18984.0,-0.372,-0.659,1.788,102.36,-119.57,213.51,4,5
18984.015,0.018,-0.524,1.65,131.44,-155.92,186.93,4,5
18984.031,0.352,-0.352,1.598,148.87,-146.86,150.7,4,5
18984.031,0.466,-0.206,1.619,156.99,-107.7,110.78,4,5
18984.046,0.415,-0.135,1.668,151.98,-56.06,88.53,4,5
18984.062,0.277,-0.043,1.707,131.6,-21.06,82.77,4,5
18984.062,0.164,0.017,1.729,101.78,-4.52,91.49,4,5
18984.078,0.097,0.0,1.682,64.42,-2.81,104.86,4,5
18984.093,0.085,-0.102,1.582,23.5,-7.84,115.02,4,5
18984.093,0.129,-0.219,1.45,-9.37,-10.41,117.98,4,5
18984.109,0.239,-0.296,1.339,-24.87,-4.33,113.01,4,5
18984.109,0.328,-0.332,1.271,-10.86,37.57,79.2,4,5
18984.125,0.395,-0.319,1.264,7.57,66.65,55.24,4,5
18984.14,0.373,-0.251,1.297,28.11,93.94,31.83,4,5
18984.14,-0.036,-0.014,1.595,35.98,106.08,13.28,4,5
18984.156,-0.219,0.12,1.792,21.67,92.78,-2.72,4,5
18984.171,-0.333,0.156,1.897,2.66,55.88,-17.61,4,5
18984.171,-0.304,0.148,1.86,-4.97,8.03,-27.16,4,5
18984.187,-0.125,0.16,1.716,3.08,-31.8,-32.17,4,5
18984.203,0.05,0.22,1.514,20.42,-49.96,-36.87,4,5
18984.203,0.118,0.298,1.374,35.28,-48.34,-41.75,4,5
18984.218,0.089,0.445,1.298,43.79,-38.27,-42.02,4,5
18984.218,0.026,0.615,1.272,44.56,-28.47,-34.55,4,5
18984.234,-0.053,0.688,1.246,32.87,-26.22,-23.5,4,5
18984.25,-0.083,0.65,1.182,7.29,-32.04,-12.12,4,5
18984.265,-0.04,0.576,1.128,-21.39,-40.13,-1.22,4,5
18984.265,0.027,0.482,1.078,-37.14,-44.65,5.92,4,5
18984.281,0.053,0.444,1.028,-34.55,-42.97,10.19,4,5
18984.281,0.094,0.42,0.975,-21.91,-37.69,16.42,4,5
18984.296,0.16,0.373,0.915,-6.65,-28.78,21.82,4,5
18984.312,0.183,0.398,0.897,1.95,-15.5,21.39,4,5
18984.312,0.177,0.44,0.905,0.43,-2.41,19.53,4,5
18984.328,0.156,0.438,0.955,-5.95,7.17,20.17,4,5
18984.343,0.133,0.42,1.019,-9.22,11.05,22.37,4,5
18984.343,0.132,0.41,1.037,-7.66,8.97,26.52,4,5
18984.359,0.169,0.395,1.005,-5.98,4.52,29.85,4,5
18984.375,0.157,0.399,1.063,-7.45,2.14,30.21,4,5
18984.375,0.015,0.445,1.322,-4.43,-7.93,34.21,4,5
18984.39,0.292,0.351,1.322,4.09,-35.07,49.35,4,5
18984.39,0.429,0.361,1.119,4.82,-46.21,47.09,4,5
18984.406,0.445,0.358,1.005,3.54,-39.43,41.29,4,5
18984.421,0.469,0.34,0.99,2.59,-28.75,42.18,4,5
18984.421,0.455,0.325,1.008,2.38,-17.03,44.5,4,5
18984.437,0.401,0.319,1.016,2.01,-9.31,48.59,4,5
18984.453,0.37,0.289,1.014,-1.95,-6.93,53.74,4,5
18984.453,0.371,0.244,0.996,-3.48,-5.07,58.96,4,5
18984.468,0.382,0.234,0.973,2.47,-1.74,65.0,4,5
18984.468,0.38,0.203,0.939,11.41,3.05,68.91,4,5
18984.484,0.4,0.163,0.939,17.58,10.25,71.78,4,5
18984.5,0.398,0.138,0.969,24.2,17.76,72.45,4,5
18984.515,0.373,0.122,1.011,33.3,22.71,69.06,4,5
18984.515,0.363,0.16,1.064,41.87,24.66,64.15,4,5
18984.531,0.335,0.243,1.08,48.37,22.31,58.08,4,5
18984.531,0.325,0.304,1.043,49.96,15.99,51.82,4,5
18984.546,0.321,0.357,0.993,46.33,10.53,47.55,4,5
18984.562,0.307,0.394,0.93,35.83,6.93,45.93,4,5
18984.562,0.31,0.37,0.869,21.82,5.68,47.0,4,5
18984.578,0.319,0.31,0.802,16.36,7.78,48.07,4,5
18984.593,0.317,0.288,0.77,18.65,13.73,47.79,4,5
18984.593,0.288,0.251,0.756,24.48,19.81,44.22,4,5
18984.609,0.288,0.239,0.772,30.18,24.81,40.07,4,5
18984.609,0.3,0.253,0.828,34.94,28.84,36.29,4,5
18984.625,0.307,0.267,0.878,36.81,30.76,31.89,4,5
18984.64,0.303,0.302,0.919,31.16,31.19,26.64,4,5
18984.64,0.284,0.319,0.964,19.81,28.96,20.39,4,5
18984.656,0.282,0.296,0.985,10.93,22.19,15.11,4,5
18984.671,0.329,0.236,0.924,6.99,15.99,11.08,4,5
18984.671,0.424,0.218,0.88,9.92,18.16,6.32,4,5
18984.687,0.428,0.251,0.873,22.55,29.39,0.61,4,5
18984.687,0.377,0.298,0.885,33.11,41.26,-1.8,4,5
18984.703,0.326,0.337,0.903,37.75,49.13,-1.25,4,5
18984.718,0.282,0.348,0.92,38.73,51.73,-0.27,4,5
18984.718,0.238,0.359,0.925,37.54,50.33,0.49,4,5
18984.734,0.222,0.389,0.94,32.5,45.5,2.99,4,5
18984.75,0.225,0.387,0.923,27.28,39.12,6.44,4,5
18984.75,0.222,0.384,0.904,24.08,33.94,9.46,4,5
18984.765,0.216,0.393,0.893,22.19,30.64,12.76,4,5
18984.781,0.197,0.402,0.875,18.4,28.29,17.3,4,5
18984.781,0.181,0.363,0.887,9.22,25.21,20.6,4,5
18984.796,0.15,0.302,0.929,0.31,19.41,20.08,4,5
18984.812,0.148,0.239,0.948,-1.07,9.64,15.81,4,5
18984.812,0.134,0.218,0.938,3.17,-0.92,8.09,4,5
18984.828,0.11,0.236,0.901,5.77,-11.17,-1.25,4,5
18984.828,0.104,0.32,0.819,2.44,-18.89,-9.28,4,5
18984.843,0.132,0.412,0.787,-1.77,-19.9,-12.02,4,5
18984.859,0.117,0.45,0.836,-2.81,-15.29,-9.28,4,5
18984.875,0.093,0.441,0.908,-3.81,-14.44,-2.17,4,5
18984.875,0.102,0.422,0.947,-12.6,-19.5,5.65,4,5
18984.89,0.13,0.359,0.975,-25.45,-27.07,10.44,4,5
18984.89,0.174,0.279,0.975,-32.81,-33.48,12.39,4,5
18984.906,0.217,0.239,0.975,-33.02,-36.56,11.72,4,5
18984.921,0.267,0.233,0.97,-28.81,-36.13,10.25,4,5
18984.921,0.317,0.24,0.971,-23.83,-32.56,7.57,4,5
18984.937,0.328,0.264,0.991,-19.78,-27.83,2.2,4,5
18984.953,0.299,0.291,0.983,-16.75,-25.54,-4.03,4,5
18984.953,0.273,0.285,0.963,-16.97,-27.28,-9.55,4,5
18984.968,0.266,0.271,0.951,-16.85,-30.34,-14.25,4,5
18984.984,0.283,0.292,0.87,-14.71,-31.04,-16.54,4,5
18985.0,0.297,0.28,0.858,-14.13,-27.1,-15.81,4,5
18985.015,0.302,0.273,0.86,-11.08,-23.1,-15.26,4,5
18985.015,0.315,0.285,0.866,-8.0,-19.2,-13.25,4,5
18985.031,0.335,0.302,0.881,-5.1,-14.89,-10.65,4,5
18985.046,0.346,0.302,0.88,-2.04,-11.23,-9.31,4,5
18985.046,0.353,0.318,0.879,0.31,-7.93,-8.39,4,5
18985.062,0.337,0.349,0.887,2.99,-4.33,-7.35,4,5
18985.062,0.304,0.366,0.883,5.65,-1.86,-4.76,4,5
18985.078,0.255,0.342,0.88,4.91,-0.85,-2.01,4,5
18985.078,0.24,0.311,0.886,0.64,-1.83,0.79,4,5
18985.093,0.262,0.297,0.898,-4.03,-3.23,5.22,4,5
18985.109,0.285,0.268,0.91,-4.06,-2.81,5.22,4,5
18985.125,0.317,0.241,0.906,-2.47,-0.82,3.45,4,5
18985.125,0.346,0.226,0.911,0.73,2.53,0.31,4,5
18985.14,0.355,0.228,0.929,1.4,5.65,-3.51,4,5
18985.14,0.355,0.228,0.949,2.14,7.05,-8.0,4,5
18985.156,0.333,0.251,0.934,6.13,7.69,-12.02,4,5
18985.171,0.312,0.276,0.895,10.04,8.3,-14.5,4,5
18985.171,0.283,0.296,0.873,11.57,11.44,-15.59,4,5
18985.187,0.254,0.356,0.883,10.59,16.54,-15.08,4,5
18985.187,0.227,0.406,0.907,7.6,14.68,-12.7,4,5
18985.203,0.197,0.42,0.934,2.75,9.46,-8.24,4,5
18985.218,0.199,0.391,0.929,-3.23,1.22,-2.08,4,5
18985.218,0.222,0.358,0.883,-8.3,-5.65,3.33,4,5
18985.234,0.266,0.329,0.875,-11.47,-6.96,7.05,4,5
18985.25,0.289,0.289,0.888,-11.2,-5.31,8.27,4,5
18985.25,0.314,0.278,0.914,-10.99,-3.6,7.48,4,5
18985.265,0.329,0.254,0.928,-8.64,-2.32,4.52,4,5
18985.281,0.324,0.233,0.937,-4.7,-1.56,-0.18,4,5
18985.281,0.315,0.242,0.927,-1.5,-1.43,-4.58,4,5
18985.296,0.33,0.236,0.916,2.01,-1.13,-7.97,4,5
18985.312,0.315,0.247,0.921,6.41,0.76,-11.41,4,5
18985.312,0.29,0.265,0.912,9.52,1.71,-13.73,4,5
18985.328,0.287,0.286,0.901,8.88,1.5,-15.53,4,5
18985.343,0.299,0.301,0.894,8.48,1.25,-16.36,4,5
18985.343,0.297,0.331,0.888,8.51,2.69,-15.56,4,5
18985.359,0.288,0.347,0.897,7.39,4.33,-14.1,4,5
18985.375,0.262,0.342,0.904,6.26,5.16,-12.54,4,5
18985.375,0.247,0.329,0.901,4.91,4.49,-10.32,4,5
18985.39,0.231,0.314,0.914,3.14,2.81,-8.36,4,5
18985.39,0.233,0.316,0.903,2.69,0.31,-5.58,4,5
18985.406,0.24,0.308,0.893,1.95,-1.46,-2.99,4,5
18985.421,0.261,0.297,0.897,1.5,-2.11,-1.1,4,5
18985.437,0.281,0.293,0.903,2.38,-1.62,-0.89,4,5
18985.437,0.28,0.295,0.925,4.0,-0.61,-2.99,4,5
18985.453,0.284,0.307,0.937,5.28,-0.92,-5.58,4,5
18985.453,0.292,0.319,0.919,5.74,-1.77,-8.73,4,5
18985.468,0.282,0.337,0.903,5.28,-0.79,-10.71,4,5
18985.484,0.259,0.333,0.905,4.64,0.46,-10.99,4,5
18985.484,0.258,0.319,0.904,4.12,0.0,-9.34,4,5
18985.5,0.255,0.314,0.914,3.69,-0.7,-7.51,4,5
18985.5,0.243,0.313,0.92,4.3,-2.23,-5.8,4,5
18985.515,0.254,0.327,0.916,2.81,-5.83,-4.58,4,5
18985.531,0.291,0.331,0.91,0.73,-8.61,-4.43,4,5
18985.531,0.303,0.332,0.89,-0.58,-8.39,-4.82,4,5
18985.546,0.32,0.314,0.885,-1.53,-6.68,-5.89,4,5
18985.562,0.306,0.287,0.904,0.27,-3.08,-8.18,4,5
18985.562,0.278,0.281,0.906,3.88,-0.34,-10.32,4,5
18985.578,0.262,0.295,0.903,6.13,1.07,-12.24,4,5
18985.578,0.258,0.318,0.88,7.42,2.2,-13.12,4,5
18985.593,0.231,0.353,0.914,7.35,3.81,-12.79,4,5
18985.609,0.237,0.35,0.933,7.97,1.59,-11.17,4,5
18985.609,0.268,0.358,0.931,7.26,-1.37,-9.95,4,5
18985.625,0.258,0.339,0.961,7.97,-3.81,-9.55,4,5
18985.64,0.261,0.323,0.916,9.7,-8.33,-9.19,4,5
18985.64,0.274,0.327,0.88,9.46,-9.55,-9.22,4,5
18985.656,0.234,0.339,0.888,9.46,-7.02,-9.4,4,5
18985.671,0.19,0.389,0.909,10.28,-4.12,-6.65,4,5
18985.671,0.152,0.464,0.929,12.67,-4.03,0.89,4,5
18985.687,0.122,0.498,0.887,13.76,-7.84,13.95,4,5
18985.703,0.111,0.495,0.799,1.83,-15.63,27.22,4,5
18985.703,0.166,0.412,0.767,-19.75,-25.73,35.86,4,5
18985.718,0.274,0.291,0.79,-35.04,-30.82,38.15,4,5
18985.718,0.384,0.226,0.844,-36.26,-29.15,33.88,4,5
18985.734,0.4,0.238,0.943,-29.76,-22.92,24.84,4,5
18985.75,0.421,0.261,0.983,-25.21,-19.81,17.3,4,5
18985.75,0.437,0.254,0.952,-23.01,-17.18,11.75,4,5
18985.765,0.4,0.23,0.914,-17.03,-12.36,7.11,4,5
18985.781,0.361,0.214,0.89,-9.19,-8.3,3.69,4,5
18985.796,0.326,0.237,0.895,-2.47,-6.26,1.1,4,5
18985.796,0.306,0.268,0.902,2.2,-6.47,0.34,4,5
18985.796,0.299,0.289,0.903,5.31,-7.23,1.22,4,5
18985.812,0.291,0.332,0.91,6.71,-8.0,2.87,4,5
18985.828,0.274,0.367,0.9,4.49,-9.83,4.33,4,5
18985.828,0.287,0.372,0.869,-0.15,-12.09,7.17,4,5
18985.843,0.318,0.365,0.877,-5.4,-11.57,10.07,4,5
18985.859,0.329,0.342,0.909,-7.35,-9.86,12.12,4,5
18985.859,0.323,0.298,0.905,-8.12,-9.61,12.21,4,5
18985.875,0.325,0.262,0.907,-8.03,-9.7,10.77,4,5
18985.89,0.331,0.259,0.926,-6.53,-9.77,8.76,4,5
18985.906,0.32,0.276,0.928,-3.48,-10.65,7.26,4,5
18985.906,0.305,0.291,0.91,-1.28,-12.3,6.93,4,5
18985.921,0.298,0.318,0.913,-1.83,-14.4,7.66,4,5
18985.921,0.273,0.363,0.929,-3.2,-18.31,10.32,4,5
18985.937,0.262,0.384,0.915,-6.78,-25.33,15.87,4,5
18985.953,0.272,0.381,0.863,-13.25,-32.14,22.25,4,5
18985.953,0.325,0.349,0.813,-20.54,-35.31,27.86,4,5
18985.968,0.406,0.303,0.817,-25.67,-32.2,30.79,4,5
18985.968,0.432,0.251,0.848,-24.87,-24.9,29.91,4,5
18985.984,0.426,0.2,0.882,-21.39,-18.71,26.46,4,5
18986.0,0.405,0.193,0.919,-18.46,-15.75,20.66,4,5
18986.0,0.378,0.194,0.933,-15.84,-16.79,14.95,4,5
18986.015,0.38,0.196,0.906,-13.73,-19.65,11.78,4,5
18986.031,0.394,0.216,0.872,-11.87,-19.68,9.55,4,5
18986.031,0.398,0.233,0.858,-10.56,-16.94,7.75,4,5
18986.046,0.411,0.239,0.857,-10.53,-13.43,6.9,4,5
18986.046,0.425,0.234,0.851,-9.61,-9.61,6.26,4,5
18986.062,0.441,0.209,0.842,-7.42,-4.76,4.61,4,5
18986.078,0.444,0.201,0.889,-3.33,0.61,1.01,4,5
18986.078,0.387,0.235,0.96,3.63,-2.01,-3.3,4,5
18986.093,0.348,0.243,0.91,1.34,-4.49,-2.72,4,5
18986.109,0.363,0.251,0.849,0.03,-2.99,-1.98,4,5
18986.125,0.404,0.249,0.878,0.31,-0.61,-1.68,4,5
18986.125,0.408,0.235,0.87,0.34,1.22,-2.17,4,5
18986.14,0.406,0.219,0.862,0.37,3.39,-3.97,4,5
18986.14,0.409,0.213,0.883,1.86,5.98,-5.77,4,5
18986.156,0.389,0.236,0.92,5.31,7.69,-7.11,4,5
18986.171,0.368,0.251,0.922,7.2,5.89,-7.29,4,5
18986.187,0.375,0.29,0.893,4.15,0.98,-6.53,4,5
18986.187,0.375,0.312,0.891,2.32,-0.37,-5.07,4,5
18986.203,0.367,0.316,0.864,-0.24,-1.4,-2.5,4,5
18986.218,0.36,0.308,0.859,-3.75,-1.59,0.43,4,5
18986.234,0.363,0.291,0.88,-6.87,-1.5,3.42,4,5
18986.25,0.376,0.268,0.914,-8.03,-2.01,5.98,4,5
18986.25,0.379,0.251,0.914,-7.75,-3.57,6.81,4,5
18986.265,0.374,0.232,0.896,-7.39,-5.19,6.29,4,5
18986.265,0.358,0.236,0.913,-6.56,-6.41,5.46,4,5
18986.281,0.329,0.276,0.928,-5.55,-8.97,6.87,4,5
18986.281,0.313,0.314,0.912,-7.32,-13.18,11.26,4,5
18986.296,0.311,0.345,0.878,-12.3,-17.98,17.27,4,5
18986.312,0.351,0.317,0.878,-19.1,-21.18,23.62,4,5
18986.328,0.385,0.291,0.834,-19.56,-21.97,27.56,4,5
18986.328,0.43,0.251,0.799,-26.76,-21.36,29.21,4,5
18986.343,0.442,0.173,0.865,-33.54,-16.82,27.16,4,5
18986.359,0.505,0.083,0.892,-22.68,-13.76,17.82,4,5
18986.359,0.527,0.057,0.92,-17.64,-10.32,8.82,4,5
18986.375,0.52,0.072,0.933,-11.9,-7.39,-2.44,4,5
18986.39,0.515,0.045,0.923,-4.15,-5.98,-13.58,4,5
18986.39,0.521,0.024,0.889,3.78,-4.09,-25.42,4,5
18986.406,0.512,0.051,0.908,12.57,2.53,-38.24,4,5
18986.421,0.454,0.111,0.878,24.11,9.43,-47.46,4,5
18986.421,0.399,0.229,0.933,29.97,15.02,-51.21,4,5
18986.437,0.283,0.353,0.907,34.0,15.32,-48.13,4,5
18986.453,0.256,0.402,0.848,29.02,11.87,-35.16,4,5
18986.453,0.228,0.416,0.767,20.97,10.9,-20.78,4,5
18986.468,0.242,0.43,0.794,12.02,12.85,-7.05,4,5
18986.468,0.271,0.428,0.833,6.32,12.79,4.82,4,5
18986.484,0.315,0.422,0.833,-0.24,9.86,15.87,4,5
18986.5,0.326,0.329,0.871,-10.83,5.31,23.16,4,5
18986.5,0.397,0.167,0.872,-16.63,-2.81,26.34,4,5
18986.515,0.402,0.087,0.912,-17.49,-7.63,21.76,4,5
18986.531,0.389,0.013,1.02,-15.47,-13.09,15.59,4,5
18986.546,0.382,-0.105,1.14,-12.57,-24.29,5.13,4,5
18986.546,0.449,0.056,1.112,6.96,-38.91,-3.3,4,5
18986.562,0.472,0.24,0.892,21.0,-46.08,-6.1,4,5
18986.562,0.459,0.325,0.756,18.28,-39.92,-7.42,4,5
18986.578,0.479,0.373,0.713,12.36,-28.63,-4.76,4,5
18986.593,0.488,0.402,0.723,9.28,-15.5,-0.85,4,5
18986.593,0.493,0.41,0.754,5.83,-4.64,4.12,4,5
18986.609,0.471,0.351,0.793,1.01,2.38,7.75,4,5
18986.609,0.423,0.296,0.83,-4.3,5.46,8.3,4,5
18986.625,0.393,0.249,0.877,-9.58,4.06,8.09,4,5
18986.64,0.391,0.2,0.93,-13.03,-0.89,7.05,4,5
18986.64,0.399,0.171,0.957,-14.68,-8.03,4.36,4,5
18986.656,0.407,0.155,0.93,-15.47,-14.34,0.31,4,5
18986.671,0.456,0.166,0.88,-15.29,-17.18,-2.35,4,5
18986.671,0.499,0.142,0.835,-12.33,-14.25,-4.91,4,5
18986.703,0.537,0.157,0.78,-1.53,6.38,-15.99,4,5
18986.703,0.447,0.208,0.905,5.74,16.54,-20.75,4,5
18986.718,0.368,0.231,0.971,12.15,13.34,-21.06,4,5
18986.718,0.438,0.254,0.855,11.23,6.59,-21.18,4,5
18986.734,0.405,0.299,0.869,6.65,9.58,-23.19,4,5
18986.75,0.346,0.29,0.905,6.65,9.77,-18.62,4,5
18986.765,0.349,0.281,0.876,3.66,4.61,-10.44,4,5
18986.765,0.376,0.277,0.846,-1.5,0.92,-4.55,4,5
18986.781,0.416,0.265,0.852,-5.65,-0.03,-1.77,4,5
18986.781,0.43,0.239,0.856,-6.74,0.89,-1.83,4,5
18986.796,0.429,0.223,0.866,-5.43,2.72,-3.75,4,5
18986.812,0.428,0.212,0.878,-4.15,4.39,-6.74,4,5
18986.812,0.435,0.2,0.881,-3.33,5.83,-10.62,4,5
18986.828,0.429,0.212,0.904,-1.53,7.02,-14.31,4,5
18986.843,0.401,0.233,0.924,2.14,6.99,-15.81,4,5
18986.843,0.374,0.265,0.913,4.97,4.67,-13.73,4,5
18986.859,0.384,0.296,0.863,3.08,-1.07,-5.74,4,5
18986.875,0.395,0.288,0.848,0.55,-1.92,-2.53,4,5
18986.89,0.408,0.268,0.866,-1.68,-1.34,-0.76,4,5
18986.906,0.415,0.253,0.878,-1.89,-0.7,-0.43,4,5
18986.906,0.411,0.241,0.876,-1.68,0.06,-1.19,4,5
18986.921,0.411,0.232,0.876,-1.65,0.95,-2.29,4,5
18986.921,0.412,0.23,0.888,-1.1,1.92,-2.75,4,5
18986.937,0.408,0.234,0.902,0.31,2.26,-2.93,4,5
18986.937,0.398,0.231,0.894,1.86,1.71,-2.78,4,5
18986.953,0.39,0.232,0.896,3.3,1.16,-2.41,4,5
18986.968,0.384,0.238,0.902,5.62,0.34,-1.89,4,5
18986.984,0.381,0.232,0.9,8.55,-0.03,-0.82,4,5
18986.984,0.365,0.235,0.917,12.79,1.16,0.18,4,5
18987.0,0.349,0.266,0.999,19.14,1.59,1.98,4,5
18987.0,0.315,0.253,0.977,28.11,-5.37,3.91,4,5
18987.015,0.311,0.217,1.041,28.72,-16.57,5.49,4,5
18987.031,0.403,0.163,0.993,45.56,-50.2,8.64,4,5
18987.046,0.453,0.164,0.871,48.31,-56.89,2.53,4,5
18987.062,0.52,0.189,0.798,52.25,-53.93,-4.03,4,5
18987.062,0.514,0.231,0.765,66.23,-37.48,-15.08,4,5
18987.078,0.476,0.309,0.754,67.69,-34.61,-14.16,4,5
18987.093,0.437,0.385,0.751,60.91,-33.63,-10.62,4,5
18987.093,0.463,0.443,0.736,50.2,-29.6,-6.44,4,5
18987.109,0.438,0.486,0.696,37.69,-24.45,0.46,4,5
18987.125,0.456,0.441,0.653,23.77,-19.07,7.17,4,5
18987.125,0.491,0.407,0.663,9.83,-10.86,12.6,4,5
18987.14,0.52,0.346,0.713,2.17,-0.37,14.89,4,5
18987.14,0.523,0.318,0.736,-0.18,8.39,12.42,4,5
18987.156,0.499,0.315,0.759,-0.82,14.62,7.69,4,5
18987.171,0.468,0.314,0.79,-3.08,17.21,2.99,4,5
18987.171,0.458,0.308,0.821,-8.0,15.81,-1.16,4,5
18987.187,0.462,0.301,0.843,-12.39,12.48,-5.28,4,5
18987.203,0.481,0.278,0.854,-10.35,6.07,-10.5,4,5
18987.218,0.483,0.284,0.841,-6.07,5.04,-13.06,4,5
18987.234,0.465,0.3,0.812,-3.85,4.97,-16.39,4,5
18987.234,0.442,0.307,0.793,-5.65,5.13,-19.65,4,5
18987.25,0.435,0.318,0.797,-10.16,5.07,-21.97,4,5
18987.25,0.436,0.335,0.797,-15.75,4.73,-23.99,4,5
18987.265,0.442,0.346,0.793,-21.45,4.58,-25.73,4,5
18987.281,0.442,0.343,0.79,-26.64,5.28,-27.16,4,5
18987.281,0.426,0.356,0.846,-29.21,6.56,-27.1,4,5
18987.296,0.405,0.38,0.923,-24.81,4.82,-24.32,4,5
18987.312,0.388,0.4,0.943,-17.61,-0.76,-18.92,4,5
18987.312,0.366,0.377,0.905,-15.78,-8.27,-14.98,4,5
18987.328,0.397,0.291,0.827,-21.55,-14.68,-15.08,4,5
18987.343,0.435,0.252,0.818,-28.75,-17.52,-19.71,4,5
18987.343,0.454,0.257,0.816,-29.63,-17.3,-24.87,4,5
18987.375,0.469,0.233,0.811,-30.61,-17.4,-32.07,4,5
18987.375,0.512,0.249,0.817,-29.08,-13.03,-44.62,4,5
18987.39,0.498,0.287,0.832,-24.32,-7.48,-48.16,4,5
18987.39,0.464,0.302,0.849,-18.8,-2.84,-50.08,4,5
18987.406,0.428,0.3,0.861,-14.71,-1.13,-51.24,4,5
18987.421,0.404,0.323,0.861,-11.87,-1.22,-50.9,4,5
18987.421,0.388,0.34,0.854,-10.35,-1.89,-49.5,4,5
18987.437,0.383,0.355,0.855,-10.1,-3.27,-47.43,4,5
18987.453,0.376,0.381,0.852,-8.51,-3.91,-42.66,4,5
18987.453,0.375,0.383,0.833,-8.21,-3.69,-36.5,4,5
18987.468,0.385,0.378,0.837,-10.5,-3.33,-30.85,4,5
18987.468,0.39,0.371,0.846,-11.54,-2.38,-25.57,4,5
18987.484,0.396,0.366,0.849,-10.83,-1.4,-20.54,4,5
18987.5,0.405,0.356,0.855,-9.74,-0.85,-16.39,4,5
18987.5,0.406,0.334,0.862,-8.06,-0.4,-13.89,4,5
18987.515,0.396,0.324,0.86,-6.68,-0.85,-13.12,4,5
18987.531,0.401,0.316,0.854,-5.83,-2.23,-13.06,4,5
18987.546,0.424,0.317,0.848,-4.39,-2.53,-14.86,4,5
18987.562,0.423,0.311,0.851,-2.96,-1.25,-15.93,4,5
18987.562,0.416,0.308,0.852,-0.92,0.15,-16.08,4,5
18987.578,0.41,0.317,0.854,0.98,1.1,-15.38,4,5
18987.578,0.404,0.317,0.851,2.75,1.74,-14.83,4,5
18987.593,0.401,0.323,0.854,3.85,1.83,-14.62,4,5
18987.609,0.393,0.344,0.865,5.04,2.11,-14.04,4,5
18987.609,0.372,0.367,0.879,6.47,1.71,-12.48,4,5
18987.625,0.359,0.374,0.862,6.65,-0.31,-9.67,4,5
18987.64,0.365,0.371,0.835,5.25,-2.41,-6.38,4,5
18987.64,0.371,0.375,0.822,2.26,-2.84,-3.39,4,5
18987.656,0.386,0.37,0.817,-1.56,-2.59,-0.64,4,5
18987.671,0.412,0.357,0.829,-4.06,-1.59,1.77,4,5
18987.671,0.42,0.333,0.847,-4.43,0.15,2.84,4,5
18987.687,0.405,0.314,0.864,-3.36,1.04,1.95,4,5
18987.703,0.404,0.312,0.874,-1.46,0.43,1.22,4,5
18987.718,0.402,0.323,0.873,2.84,-1.56,-1.31,4,5
18987.718,0.39,0.338,0.868,6.1,-2.56,-1.37,4,5
18987.734,0.387,0.339,0.847,7.69,-3.02,-0.27,4,5
18987.75,0.394,0.337,0.833,7.23,-2.84,0.55,4,5
18987.75,0.396,0.349,0.832,6.65,-1.92,1.65,4,5
18987.765,0.393,0.362,0.84,6.78,-0.43,3.17,4,5
18987.781,0.391,0.359,0.847,6.99,0.64,4.97,4,5
18987.796,0.388,0.355,0.851,6.32,0.37,6.07,4,5
18987.796,0.391,0.34,0.848,4.27,-1.22,5.8,4,5
18987.812,0.406,0.332,0.847,3.08,-2.59,5.46,4,5
18987.812,0.418,0.327,0.843,3.6,-2.47,4.79,4,5
18987.828,0.417,0.325,0.841,5.13,-1.4,3.57,4,5
18987.843,0.41,0.331,0.854,6.5,-0.7,2.56,4,5
18987.843,0.399,0.342,0.867,8.09,-1.25,2.14,4,5
18987.859,0.39,0.35,0.86,9.64,-2.62,2.47,4,5
18987.859,0.391,0.349,0.844,10.32,-4.24,2.99,4,5
18987.89,0.41,0.357,0.823,7.81,-5.25,4.46,4,5
18987.89,0.421,0.356,0.811,6.13,-3.97,4.79,4,5
18987.906,0.423,0.354,0.81,4.43,-2.01,4.3,4,5
18987.921,0.422,0.347,0.817,2.87,-0.09,3.51,4,5
18987.921,0.415,0.347,0.84,2.08,0.95,2.5,4,5
18987.937,0.402,0.355,0.856,2.78,0.7,1.98,4,5
18987.953,0.395,0.351,0.855,3.69,-0.82,2.2,4,5
18987.953,0.4,0.345,0.844,3.45,-2.32,2.53,4,5
18987.968,0.407,0.35,0.832,3.63,-2.84,2.62,4,5
18987.968,0.414,0.353,0.827,3.48,-2.32,2.62,4,5
18987.984,0.412,0.357,0.823,3.14,-1.56,2.35,4,5
18988.0,0.411,0.365,0.836,2.29,-0.76,2.32,4,5
18988.015,0.408,0.361,0.852,2.69,-0.98,2.41,4,5
18988.015,0.402,0.36,0.856,3.91,-1.8,3.23,4,5
18988.031,0.4,0.347,0.849,5.13,-2.9,3.94,4,5
18988.031,0.41,0.351,0.837,5.58,-3.78,4.7,4,5
18988.046,0.416,0.343,0.821,4.18,-3.39,3.42,4,5
18988.062,0.421,0.335,0.815,2.62,-2.17,2.29,4,5
18988.062,0.432,0.344,0.81,1.62,-0.82,0.55,4,5
18988.078,0.43,0.345,0.819,1.56,-0.12,-0.4,4,5
18988.078,0.414,0.373,0.821,0.64,0.67,-0.52,4,5
18988.093,0.399,0.368,0.845,-0.98,0.67,-0.58,4,5
18988.109,0.387,0.381,0.857,-1.59,-0.67,0.55,4,5
18988.109,0.391,0.373,0.836,-1.86,-2.69,2.59,4,5
18988.125,0.407,0.356,0.823,-2.84,-3.94,3.75,4,5
18988.14,0.411,0.357,0.843,-3.27,-4.0,3.88,4,5
18988.14,0.412,0.366,0.845,-2.01,-4.03,4.46,4,5
18988.156,0.419,0.35,0.824,-1.16,-4.0,5.1,4,5
18988.171,0.425,0.339,0.811,-1.56,-3.33,4.58,4,5
18988.171,0.433,0.335,0.814,-2.47,-2.01,3.54,4,5
18988.187,0.432,0.339,0.823,-3.17,-0.43,2.2,4,5
18988.187,0.43,0.342,0.831,-3.51,0.27,0.98,4,5
18988.203,0.429,0.344,0.836,-3.36,0.27,-0.09,4,5
18988.218,0.42,0.344,0.844,-2.66,0.24,-1.25,4,5
18988.234,0.409,0.349,0.85,-1.5,0.0,-1.28,4,5
18988.234,0.409,0.348,0.838,-0.73,-0.82,-0.18,4,5
18988.25,0.418,0.341,0.829,-1.5,-1.56,0.24,4,5
18988.25,0.422,0.344,0.836,-1.95,-1.4,0.12,4,5
18988.265,0.418,0.347,0.844,-0.92,-0.92,0.34,4,5
18988.281,0.417,0.343,0.834,0.27,-0.95,0.46,4,5
18988.281,0.417,0.339,0.827,0.03,-0.85,-0.03,4,5
18988.296,0.414,0.351,0.839,-0.95,-0.67,-0.61,4,5
18988.312,0.408,0.358,0.84,-0.7,-0.73,-0.24,4,5
18988.312,0.41,0.348,0.834,-0.18,-0.89,0.64,4,5
18988.328,0.418,0.344,0.831,-0.18,-0.7,0.95,4,5
18988.328,0.417,0.346,0.836,-0.21,-0.37,0.98,4,5
18988.343,0.411,0.35,0.843,0.06,-0.21,1.07,4,5
18988.359,0.406,0.352,0.843,0.34,-0.85,1.56,4,5
18988.359,0.407,0.361,0.842,0.27,-1.62,2.44,4,5
18988.375,0.409,0.36,0.845,0.27,-2.26,3.45,4,5
18988.39,0.398,0.367,0.855,0.37,-3.11,4.55,4,5
18988.406,0.413,0.355,0.828,0.67,-5.8,8.61,4,5
18988.421,0.429,0.356,0.818,-0.49,-6.23,9.0,4,5
18988.421,0.436,0.357,0.793,-1.19,-4.76,9.25,4,5
18988.437,0.447,0.324,0.805,-3.33,-2.5,8.61,4,5
18988.453,0.452,0.314,0.818,-3.97,-0.4,6.93,4,5
18988.453,0.453,0.292,0.833,-3.75,0.85,4.0,4,5
18988.468,0.449,0.293,0.846,-2.62,1.25,0.49,4,5
18988.468,0.442,0.297,0.845,-0.82,1.28,-2.87,4,5
18988.484,0.434,0.318,0.836,1.37,1.28,-5.28,4,5
18988.5,0.422,0.347,0.84,3.2,1.5,-6.23,4,5
18988.5,0.405,0.368,0.835,3.63,1.34,-5.92,4,5
18988.515,0.393,0.38,0.829,2.04,0.92,-4.39,4,5
18988.531,0.398,0.381,0.823,-0.52,0.34,-1.86,4,5
18988.546,0.406,0.369,0.813,-2.84,0.27,0.58,4,5
18988.546,0.419,0.357,0.827,-5.04,0.76,2.11,4,5
18988.546,0.426,0.343,0.846,-6.29,1.19,2.93,4,5
18988.578,0.42,0.311,0.851,-3.48,1.04,1.28,4,5
18988.578,0.422,0.317,0.854,-1.5,-0.06,0.31,4,5
18988.593,0.424,0.329,0.853,-0.18,-0.95,-0.49,4,5
18988.609,0.425,0.335,0.84,0.98,-1.4,-1.19,4,5
18988.609,0.422,0.339,0.826,1.13,-1.5,-1.74,4,5
18988.625,0.417,0.35,0.829,0.89,-1.16,-1.8,4,5
18988.64,0.415,0.361,0.835,0.21,-0.92,-1.25,4,5
18988.64,0.416,0.358,0.827,-0.52,-0.76,-0.37,4,5
18988.656,0.416,0.343,0.823,-1.71,-0.43,0.15,4,5
18988.671,0.422,0.334,0.834,-3.02,-0.12,0.34,4,5
18988.671,0.432,0.325,0.842,-2.78,-0.12,0.37,4,5
18988.687,0.433,0.319,0.847,-1.4,0.21,-0.37,4,5
18988.687,0.427,0.311,0.843,0.21,0.55,-1.95,4,5
18988.703,0.423,0.318,0.842,1.65,0.67,-3.48,4,5
18988.718,0.418,0.333,0.853,3.14,0.64,-4.3,4,5
18988.718,0.403,0.344,0.864,4.85,0.0,-4.52,4,5
18988.734,0.375,0.358,0.868,6.65,-0.82,-3.72,4,5
18988.75,0.35,0.385,0.873,7.78,-1.89,-1.04,4,5
18988.765,0.332,0.418,0.886,7.14,-5.65,3.48,4,5
18988.765,0.309,0.439,0.917,5.19,-12.67,9.98,4,5
18988.781,0.312,0.422,0.918,2.93,-23.16,17.64,4,5
18988.781,0.367,0.381,0.904,1.77,-33.75,24.84,4,5
18988.796,0.432,0.298,0.83,0.31,-41.29,27.1,4,5
18988.812,0.474,0.25,0.763,-0.7,-41.23,24.02,4,5
18988.812,0.542,0.228,0.739,1.16,-35.25,19.96,4,5
18988.828,0.579,0.266,0.731,3.75,-24.87,13.55,4,5
18988.843,0.585,0.301,0.732,6.74,-13.64,6.93,4,5
18988.843,0.571,0.315,0.745,9.0,-4.12,1.68,4,5
18988.859,0.538,0.333,0.758,10.59,3.63,-1.89,4,5
18988.875,0.501,0.34,0.779,11.6,9.64,-4.0,4,5
18988.875,0.467,0.336,0.787,11.26,13.12,-5.37,4,5
18988.89,0.451,0.348,0.806,9.49,14.71,-6.1,4,5
18988.89,0.439,0.358,0.827,7.51,15.17,-5.95,4,5
18988.906,0.43,0.348,0.832,7.48,14.62,-5.58,4,5
18988.921,0.437,0.343,0.825,9.19,13.58,-5.13,4,5
18988.921,0.447,0.354,0.816,9.8,13.95,-4.67,4,5
18988.937,0.449,0.352,0.811,9.19,15.96,-4.79,4,5
18988.937,0.451,0.34,0.807,9.52,18.62,-4.33,4,5
18988.953,0.454,0.327,0.812,12.18,21.67,-3.48,4,5
18988.968,0.451,0.329,0.809,15.53,25.61,-3.66,4,5
18988.984,0.439,0.336,0.812,16.57,28.93,-5.13,4,5
18988.984,0.426,0.347,0.825,14.95,29.97,-8.09,4,5
18989.0,0.423,0.35,0.839,13.18,29.11,-11.32,4,5
18989.0,0.433,0.355,0.838,13.21,27.41,-14.4,4,5
18989.015,0.383,0.367,0.858,13.52,26.64,-16.75,4,5
18989.031,0.345,0.351,0.958,15.69,20.63,-15.23,4,5
18989.031,0.377,0.323,0.937,23.93,1.8,-17.98,4,5
18989.046,0.377,0.35,0.881,25.21,-2.41,-18.98,4,5
18989.062,0.384,0.4,0.836,22.37,-6.13,-19.65,4,5
18989.062,0.372,0.457,0.791,18.28,-7.87,-19.07,4,5
18989.078,0.357,0.472,0.786,13.12,-9.16,-17.03,4,5
18989.078,0.361,0.475,0.785,7.42,-11.02,-13.46,4,5
18989.093,0.377,0.467,0.781,2.62,-11.14,-9.74,4,5
18989.109,0.391,0.443,0.775,-0.15,-9.37,-6.47,4,5
18989.125,0.396,0.428,0.786,-2.04,-6.65,-3.6,4,5
18989.125,0.394,0.416,0.818,-3.91,-4.64,-1.98,4,5
18989.14,0.391,0.394,0.833,-4.3,-4.76,-2.01,4,5
18989.14,0.395,0.394,0.827,-3.45,-5.49,-2.56,4,5
18989.156,0.399,0.402,0.83,-2.75,-6.1,-3.33,4,5
18989.171,0.401,0.407,0.826,-2.72,-6.93,-4.12,4,5
18989.171,0.402,0.421,0.82,-3.42,-8.09,-4.67,4,5
18989.187,0.402,0.415,0.797,-5.89,-9.58,-4.76,4,5
18989.187,0.44,0.41,0.777,-10.9,-9.4,-4.58,4,5
18989.203,0.479,0.394,0.787,-15.96,-7.51,-6.44,4,5
18989.218,0.441,0.378,0.825,-17.88,-3.69,-10.93,4,5
18989.218,0.38,0.4,0.87,-18.8,-4.55,-13.43,4,5
18989.234,0.383,0.408,0.85,-25.48,-10.5,-15.2,4,5
18989.25,0.432,0.396,0.821,-36.13,-17.46,-20.75,4,5
18989.25,0.508,0.335,0.821,-38.76,-20.29,-26.8,4,5
18989.265,0.554,0.263,0.851,-23.68,-15.47,-31.25,4,5
18989.281,0.469,0.281,0.907,3.69,-2.44,-31.16,4,5
18989.296,0.36,0.266,0.865,27.34,5.98,-26.31,4,5
18989.296,0.304,0.295,0.82,34.76,9.43,-22.55,4,5
18989.312,0.254,0.395,0.788,36.87,13.98,-19.1,4,5
18989.312,0.201,0.514,0.755,37.54,16.85,-12.05,4,5
18989.328,0.214,0.638,0.737,31.83,15.69,0.73,4,5
18989.328,0.264,0.698,0.707,16.3,12.05,16.14,4,5
18989.343,0.317,0.666,0.692,-5.77,9.13,30.06,4,5
18989.359,0.382,0.524,0.706,-22.06,10.77,39.46,4,5
18989.375,0.377,0.402,0.795,-27.5,14.1,42.18,4,5
18989.375,0.387,0.33,0.853,-25.54,10.96,43.37,4,5
18989.39,0.406,0.266,0.894,-25.27,5.37,40.38,4,5
18989.39,0.421,0.237,0.93,-22.58,-1.83,34.61,4,5
18989.406,0.464,0.23,0.914,-15.23,-9.4,28.29,4,5
18989.421,0.528,0.234,0.845,-7.84,-13.15,20.05,4,5
18989.421,0.595,0.239,0.834,-2.96,-10.44,8.45,4,5
18989.437,0.554,0.255,0.887,6.32,-3.08,-6.35,4,5
18989.437,0.45,0.292,0.877,19.35,1.95,-18.8,4,5
18989.453,0.384,0.355,0.851,25.7,1.19,-25.57,4,5
18989.468,0.359,0.427,0.835,25.39,-2.04,-27.56,4,5
18989.468,0.336,0.494,0.814,19.93,-5.95,-25.45,4,5
18989.484,0.332,0.496,0.771,11.75,-8.85,-19.96,4,5
18989.5,0.341,0.487,0.759,3.88,-9.22,-12.91,4,5
18989.5,0.367,0.482,0.773,-2.5,-8.76,-5.86,4,5
18989.515,0.388,0.466,0.794,-7.29,-7.26,-0.46,4,5
18989.531,0.384,0.43,0.822,-9.74,-5.58,2.69,4,5
18989.531,0.379,0.387,0.85,-9.8,-6.13,3.51,4,5
18989.546,0.378,0.376,0.872,-7.69,-9.46,3.45,4,5
18989.562,0.39,0.377,0.887,-4.79,-13.76,3.39,4,5
18989.562,0.378,0.37,0.921,-1.4,-18.4,2.35,4,5
18989.578,0.368,0.345,0.895,2.08,-25.03,0.67,4,5
18989.593,0.401,0.349,0.864,3.05,-31.98,-1.19,4,5
18989.593,0.417,0.358,0.843,4.03,-35.74,-3.85,4,5
18989.609,0.424,0.378,0.821,4.61,-37.87,-6.5,4,5
18989.609,0.429,0.392,0.804,4.58,-39.19,-8.94,4,5
18989.625,0.433,0.403,0.794,4.21,-40.19,-10.62,4,5
18989.64,0.442,0.438,0.801,3.42,-40.31,-10.32,4,5
18989.656,0.426,0.442,0.807,2.72,-40.71,-9.52,4,5
18989.656,0.393,0.423,0.791,-0.21,-43.31,-8.45,4,5
18989.671,0.419,0.39,0.764,-5.22,-46.88,-5.86,4,5
18989.671,0.471,0.369,0.731,-7.35,-46.54,-5.58,4,5
18989.687,0.51,0.389,0.697,-5.8,-39.34,-6.47,4,5
18989.703,0.507,0.411,0.711,-4.15,-28.53,-7.54,4,5
18989.703,0.489,0.45,0.78,-1.83,-21.24,-5.74,4,5
18989.718,0.474,0.437,0.824,1.1,-20.36,-2.99,4,5
18989.718,0.443,0.409,0.825,1.95,-22.8,-3.17,4,5
18989.734,0.458,0.38,0.784,3.3,-25.64,-3.54,4,5
18989.75,0.517,0.335,0.715,4.97,-26.0,-4.24,4,5
18989.75,0.547,0.34,0.638,7.57,-20.02,-7.11,4,5
18989.765,0.582,0.347,0.634,10.01,-8.51,-7.69,4,5
18989.781,0.612,0.361,0.653,14.65,8.88,-9.16,4,5
18989.781,0.58,0.374,0.679,24.6,30.0,-8.94,4,5
18989.796,0.542,0.386,0.705,36.77,47.24,-8.39,4,5
18989.812,0.582,0.422,0.72,47.4,59.27,-5.22,4,5
18989.812,0.568,0.378,0.734,56.0,73.67,1.62,4,5
18989.828,0.522,0.364,0.712,60.76,87.83,-3.94,4,5
18989.828,0.506,0.368,0.731,58.72,97.17,-11.26,4,5
18989.843,0.484,0.346,0.746,55.3,101.78,-20.75,4,5
18989.859,0.428,0.34,0.776,52.13,104.04,-32.44,4,5
18989.859,0.393,0.368,0.822,47.79,100.19,-44.25,4,5
18989.875,0.322,0.43,0.853,44.89,90.7,-55.51,4,5
18989.89,0.206,0.537,0.911,40.16,77.18,-61.43,4,5
18989.906,-0.054,0.69,1.142,35.25,49.44,-59.24,4,5
18989.906,0.076,0.694,1.118,35.98,-6.07,-40.38,4,5
18989.921,0.204,0.653,0.805,21.45,-49.44,-36.59,4,5
18989.921,0.251,0.586,0.726,9.67,-58.2,-30.98,4,5
18989.937,0.31,0.523,0.716,7.39,-57.41,-20.84,4,5
18989.953,0.348,0.552,0.669,3.42,-55.64,-18.92,4,5
18989.953,0.405,0.6,0.662,0.64,-46.11,-15.47,4,5
18989.968,0.394,0.578,0.683,1.65,-34.03,-13.64,4,5
18989.984,0.364,0.59,0.719,0.18,-27.04,-13.46,4,5
18989.984,0.337,0.582,0.739,-3.51,-25.12,-12.27,4,5
18990.0,0.324,0.538,0.754,-9.13,-26.8,-11.32,4,5
18990.0,0.329,0.513,0.787,-13.25,-30.37,-10.25,4,5
18990.015,0.337,0.531,0.793,-15.63,-37.11,-8.55,4,5
18990.031,0.327,0.529,0.784,-17.7,-41.54,-7.78,4,5
18990.031,0.332,0.498,0.77,-16.6,-43.64,-5.65,4,5
18990.046,0.373,0.486,0.756,-12.3,-40.41,-3.3,4,5
18990.062,0.439,0.494,0.704,-9.49,-34.36,-3.3,4,5
18990.062,0.463,0.489,0.705,-7.6,-27.13,-4.61,4,5
18990.078,0.473,0.505,0.688,-4.24,-18.59,-6.16,4,5
18990.078,0.444,0.524,0.69,-0.89,-8.27,-6.99,4,5
18990.109,0.356,0.566,0.757,2.11,4.0,-1.83,4,5
18990.109,0.316,0.574,0.814,2.81,2.78,3.05,4,5
18990.125,0.27,0.562,0.866,4.39,-3.48,9.86,4,5
18990.14,0.268,0.523,0.901,7.48,-14.71,17.79,4,5
18990.156,0.365,0.479,0.914,15.14,-27.31,26.06,4,5
18990.156,0.443,0.387,0.864,20.84,-37.14,23.22,4,5
18990.171,0.505,0.302,0.832,26.09,-42.12,10.71,4,5
18990.171,0.585,0.248,0.809,37.63,-41.78,-5.95,4,5
18990.187,0.586,0.251,0.812,48.71,-38.21,-30.61,4,5
18990.203,0.558,0.273,0.847,54.69,-36.87,-58.35,4,5
18990.203,0.486,0.308,0.891,58.08,-40.74,-86.03,4,5
18990.218,0.379,0.383,0.929,58.75,-50.54,-110.02,4,5
18990.234,0.325,0.488,0.921,54.14,-67.72,-125.92,4,5
18990.234,0.306,0.537,0.86,35.46,-88.32,-131.26,4,5
18990.25,0.316,0.537,0.79,4.49,-101.63,-132.42,4,5
18990.265,0.379,0.492,0.718,-27.89,-102.51,-128.21,4,5
18990.281,0.446,0.416,0.707,-60.37,-85.6,-119.33,4,5
18990.281,0.419,0.41,0.735,-37.2,-73.67,-113.68,4,5
18990.296,0.408,0.536,0.69,2.78,-65.8,-104.37,4,5
18990.312,0.41,0.691,0.612,28.81,-62.35,-95.37,4,5
18990.312,0.402,0.801,0.549,31.34,-59.3,-91.34,4,5
18990.328,0.384,0.868,0.535,16.36,-56.55,-87.68,4,5
18990.343,0.362,0.881,0.521,0.37,-54.75,-82.06,4,5
18990.343,0.361,0.865,0.497,-8.48,-53.01,-75.59,4,5
18990.359,0.377,0.862,0.479,-15.38,-51.39,-65.77,4,5
18990.359,0.396,0.843,0.449,-22.98,-47.06,-56.12,4,5
18990.375,0.405,0.78,0.434,-29.54,-39.83,-48.55,4,5
18990.39,0.398,0.749,0.464,-31.16,-31.37,-41.38,4,5
18990.39,0.388,0.728,0.495,-22.4,-24.41,-34.79,4,5
18990.406,0.373,0.716,0.495,-9.43,-20.33,-29.24,4,5
18990.421,0.358,0.753,0.478,-2.99,-18.19,-24.23,4,5
18990.421,0.35,0.78,0.464,-3.63,-16.36,-19.99,4,5
18990.437,0.346,0.771,0.452,-9.06,-14.59,-16.27,4,5
18990.453,0.352,0.755,0.434,-15.05,-12.27,-13.06,4,5
18990.453,0.35,0.743,0.43,-18.19,-7.78,-11.08,4,5
18990.468,0.341,0.747,0.438,-18.8,-1.28,-9.0,4,5
18990.468,0.325,0.761,0.464,-18.43,5.28,-5.77,4,5
18990.484,0.31,0.752,0.492,-19.53,10.16,-1.56,4,5
18990.5,0.303,0.734,0.519,-23.99,13.4,3.63,4,5
18990.5,0.303,0.726,0.555,-29.36,16.3,10.07,4,5
18990.515,0.306,0.699,0.577,-33.85,18.83,16.14,4,5
18990.531,0.314,0.662,0.583,-39.31,21.82,19.96,4,5
18990.531,0.321,0.643,0.605,-46.97,25.48,21.09,4,5
18990.546,0.305,0.619,0.638,-54.78,29.45,19.14,4,5
18990.562,0.286,0.587,0.676,-62.59,32.62,14.74,4,5
18990.562,0.282,0.564,0.73,-69.09,34.94,8.3,4,5
18990.578,0.28,0.555,0.782,-71.44,37.51,-1.68,4,5
18990.593,0.277,0.55,0.842,-69.8,40.53,-12.85,4,5
18990.593,0.239,0.56,0.911,-63.66,42.02,-21.03,4,5
18990.609,0.171,0.555,0.957,-53.56,38.51,-23.59,4,5
18990.609,0.144,0.545,0.966,-43.89,29.45,-21.03,4,5
18990.625,0.148,0.537,0.923,-37.29,18.65,-16.82,4,5
18990.64,0.177,0.505,0.876,-34.0,8.79,-13.61,4,5
18990.64,0.21,0.5,0.852,-30.3,1.86,-11.05,4,5
18990.656,0.236,0.525,0.82,-23.8,-2.35,-7.63,4,5
18990.671,0.269,0.52,0.798,-18.43,-4.61,-5.4,4,5
18990.671,0.3,0.51,0.785,-13.67,-5.07,-4.49,4,5
18990.687,0.313,0.516,0.765,-7.29,-4.0,-5.13,4,5
18990.703,0.322,0.516,0.761,-0.06,-2.38,-7.05,4,5
18990.703,0.32,0.549,0.757,4.18,-1.83,-8.76,4,5
18990.718,0.326,0.57,0.745,2.5,-2.01,-8.97,4,5
18990.718,0.337,0.564,0.745,-2.87,-1.46,-8.94,4,5
18990.734,0.342,0.568,0.753,-5.22,-0.46,-7.66,4,5
18990.75,0.341,0.558,0.759,-3.02,0.49,-5.34,4,5
18990.75,0.346,0.542,0.743,1.13,2.04,-3.85,4,5
18990.765,0.352,0.536,0.715,5.13,4.67,-4.09,4,5
18990.781,0.349,0.54,0.703,7.63,8.73,-5.65,4,5
18990.781,0.339,0.554,0.701,8.33,12.94,-7.48,4,5
18990.796,0.334,0.562,0.693,7.57,17.21,-8.67,4,5
18990.812,0.312,0.559,0.691,5.83,21.82,-9.86,4,5
18990.812,0.299,0.578,0.707,2.26,25.85,-10.41,4,5
18990.828,0.287,0.577,0.72,-3.05,28.72,-12.94,4,5
18990.843,0.26,0.564,0.765,-11.87,29.3,-17.06,4,5
18990.843,0.236,0.6,0.825,-23.1,26.22,-20.2,4,5
18990.859,0.235,0.565,0.844,-23.99,22.43,-20.02,4,5
18990.875,0.235,0.551,0.843,-18.71,20.02,-17.06,4,5
18990.875,0.289,0.562,0.896,-9.46,22.55,-16.24,4,5
18990.89,0.082,0.642,0.946,-6.84,20.63,-17.49,4,5
18990.89,0.105,0.657,0.963,-17.61,3.54,-9.16,4,5
18990.906,0.158,0.568,0.889,-4.85,-10.53,2.81,4,5
18990.921,0.181,0.553,0.821,7.2,-16.33,9.09,4,5
18990.921,0.216,0.551,0.773,13.7,-19.01,11.78,4,5
18990.937,0.223,0.539,0.748,17.52,-18.1,12.54,4,5
18990.953,0.192,0.582,0.754,17.18,-17.24,12.94,4,5
18990.953,0.183,0.629,0.794,12.76,-20.05,16.42,4,5
18990.968,0.206,0.649,0.851,4.61,-26.64,19.87,4,5
18990.984,0.198,0.683,0.902,-7.45,-37.51,22.83,4,5
18990.984,0.254,0.666,0.821,-16.79,-46.27,28.41,4,5
18991.0,0.253,0.507,0.791,-13.34,-46.69,34.0,4,5
18991.015,0.27,0.563,0.792,-3.72,-49.26,46.24,4,5
18991.015,0.327,0.48,0.67,7.97,-40.74,44.4,4,5
18991.031,0.37,0.432,0.593,11.78,-27.74,40.53,4,5
18991.031,0.483,0.431,0.551,14.83,-12.24,33.17,4,5
18991.046,0.482,0.387,0.539,15.35,4.09,21.58,4,5
18991.062,0.452,0.414,0.586,17.4,20.39,9.95,4,5
18991.062,0.405,0.487,0.682,17.79,31.95,-0.24,4,5
18991.078,0.364,0.591,0.814,10.16,33.75,-7.75,4,5
18991.093,0.312,0.653,0.951,-1.46,24.84,-10.38,4,5
18991.093,0.264,0.636,1.005,-10.62,8.33,-8.73,4,5
18991.109,0.268,0.575,0.96,-11.87,-9.06,-5.98,4,5
18991.109,0.308,0.521,0.869,-5.98,-22.46,-3.08,4,5
18991.125,0.317,0.49,0.77,0.06,-27.74,-2.04,4,5
18991.14,0.332,0.467,0.679,3.54,-25.91,-3.72,4,5
18991.14,0.354,0.459,0.628,3.48,-19.68,-7.26,4,5
18991.156,0.371,0.454,0.613,2.99,-10.47,-12.12,4,5
18991.171,0.387,0.472,0.626,4.0,-0.09,-16.97,4,5
18991.171,0.383,0.508,0.659,6.84,10.32,-20.51,4,5
18991.187,0.354,0.542,0.714,10.5,18.4,-23.53,4,5
18991.203,0.319,0.581,0.762,11.57,21.67,-25.48,4,5
18991.203,0.298,0.624,0.813,8.58,19.65,-24.99,4,5
18991.218,0.272,0.649,0.853,6.32,14.31,-22.52,4,5
18991.234,0.249,0.635,0.847,7.14,7.45,-17.88,4,5
18991.234,0.247,0.627,0.817,8.48,1.04,-12.15,4,5
18991.25,0.258,0.612,0.768,8.82,-3.05,-7.6,4,5
18991.265,0.271,0.584,0.717,6.44,-4.21,-4.7,4,5
18991.265,0.291,0.57,0.694,2.17,-2.78,-3.36,4,5
18991.281,0.311,0.567,0.696,-1.31,0.43,-3.02,4,5
18991.281,0.321,0.567,0.704,-2.5,4.3,-2.96,4,5
18991.296,0.323,0.563,0.715,-3.66,7.72,-3.72,4,5
18991.312,0.318,0.567,0.746,-4.67,10.04,-5.16,4,5
18991.312,0.304,0.589,0.774,-4.58,10.86,-6.1,4,5
18991.328,0.288,0.602,0.8,-4.55,9.74,-5.01,4,5
18991.343,0.273,0.601,0.818,-4.58,6.56,-2.81,4,5
18991.343,0.259,0.59,0.815,-2.29,2.72,-0.46,4,5
18991.359,0.256,0.572,0.786,0.31,-0.73,1.71,4,5
18991.359,0.269,0.558,0.754,0.43,-3.02,3.17,4,5
18991.375,0.286,0.553,0.734,-1.46,-2.9,3.45,4,5
18991.39,0.299,0.544,0.731,-2.72,-1.31,3.2,4,5
18991.39,0.308,0.542,0.736,-2.62,0.85,2.75,4,5
18991.406,0.313,0.548,0.738,-1.71,2.99,1.89,4,5
18991.421,0.312,0.555,0.75,-0.82,4.91,0.58,4,5
18991.421,0.298,0.571,0.767,-1.13,5.46,-1.01,4,5
18991.437,0.288,0.581,0.781,-2.56,4.36,-1.56,4,5
18991.453,0.281,0.575,0.783,-3.54,2.66,-1.37,4,5
18991.453,0.277,0.566,0.77,-3.85,0.98,-1.07,4,5
18991.468,0.284,0.555,0.751,-3.66,0.15,-0.89,4,5
18991.484,0.292,0.551,0.737,-4.18,0.55,-1.34,4,5
18991.484,0.299,0.549,0.736,-4.91,1.98,-2.14,4,5
18991.5,0.299,0.548,0.74,-5.22,3.81,-3.08,4,5
18991.5,0.296,0.557,0.753,-5.07,5.28,-3.75,4,5
18991.515,0.292,0.567,0.767,-4.88,5.77,-4.03,4,5
18991.531,0.287,0.568,0.771,-5.31,5.43,-4.36,4,5
18991.531,0.28,0.577,0.791,-6.35,4.64,-4.94,4,5
18991.546,0.263,0.586,0.808,-6.99,3.23,-5.07,4,5
18991.562,0.247,0.581,0.81,-7.14,0.21,-3.02,4,5
18991.562,0.26,0.57,0.801,-4.76,-2.72,0.4,4,5
18991.578,0.263,0.559,0.78,-1.65,-3.91,2.23,4,5
18991.593,0.267,0.55,0.76,-0.76,-4.33,2.99,4,5
18991.593,0.283,0.537,0.741,-1.04,-3.94,3.6,4,5
18991.609,0.295,0.532,0.74,-2.72,-2.11,2.84,4,5
18991.625,0.3,0.538,0.756,-3.51,-0.15,1.43,4,5
18991.625,0.29,0.545,0.779,-2.17,1.13,0.4,4,5
18991.64,0.278,0.559,0.8,-1.71,0.31,-0.31,4,5
18991.64,0.274,0.563,0.805,-2.5,-2.01,-0.76,4,5
18991.656,0.268,0.559,0.804,-2.87,-4.3,-0.92,4,5
18991.671,0.267,0.553,0.794,-2.11,-6.47,-0.12,4,5
18991.671,0.276,0.558,0.787,-0.64,-7.87,1.25,4,5
18991.687,0.282,0.551,0.767,0.76,-8.24,2.08,4,5
18991.703,0.287,0.546,0.746,0.85,-7.81,2.26,4,5
18991.703,0.298,0.544,0.74,-0.55,-6.93,1.89,4,5
18991.718,0.312,0.546,0.737,-1.77,-5.19,1.07,4,5
18991.718,0.31,0.548,0.739,-2.01,-2.9,0.09,4,5
18991.734,0.3,0.551,0.751,-1.98,-0.89,-0.61,4,5
18991.75,0.303,0.56,0.767,-2.01,0.03,-0.73,4,5
18991.75,0.29,0.553,0.776,-1.62,-0.21,-1.1,4,5
18991.765,0.299,0.543,0.775,-1.13,-1.25,-1.04,4,5
18991.781,0.3,0.53,0.774,0.0,-1.1,-1.89,4,5
18991.781,0.303,0.517,0.767,1.8,-0.12,-3.02,4,5
18991.796,0.324,0.495,0.742,5.37,2.56,-4.76,4,5
18991.812,0.333,0.483,0.74,9.95,7.14,-7.51,4,5
18991.812,0.343,0.468,0.732,16.54,12.6,-10.96,4,5
18991.828,0.338,0.447,0.733,23.1,18.52,-15.26,4,5
18991.843,0.284,0.482,0.771,26.86,23.13,-19.14,4,5
18991.843,0.252,0.606,0.844,19.2,21.58,-21.33,4,5
18991.859,0.319,0.597,0.815,19.1,16.82,-21.18,4,5
18991.859,0.241,0.568,0.82,27.53,18.8,-24.87,4,5
18991.875,0.08,0.707,0.845,14.28,9.86,-25.27,4,5
18991.89,0.196,0.667,0.813,14.98,-4.36,-14.5,4,5
18991.89,0.208,0.666,0.759,18.34,-10.41,-7.84,4,5
18991.906,0.222,0.671,0.725,14.86,-11.84,-4.09,4,5
18991.921,0.225,0.629,0.709,13.09,-10.1,0.24,4,5
18991.921,0.214,0.626,0.716,10.8,-8.85,3.72,4,5
18991.937,0.226,0.647,0.734,5.25,-9.77,6.29,4,5
18991.953,0.235,0.638,0.76,-0.31,-11.32,8.27,4,5
18991.953,0.23,0.621,0.774,-2.14,-12.91,10.53,4,5
18991.968,0.23,0.615,0.779,-3.69,-15.69,12.85,4,5
18991.984,0.224,0.634,0.791,-8.0,-19.84,14.59,4,5
18991.984,0.301,0.621,0.75,-6.04,-21.18,15.75,4,5
18992.0,0.307,0.491,0.68,-10.96,-17.33,12.15,4,5
18992.0,0.284,0.551,0.715,-13.15,-15.35,11.66,4,5
18992.015,0.317,0.579,0.73,-11.29,-12.67,10.74,4,5
18992.031,0.351,0.514,0.705,-9.7,-8.91,7.87,4,5
18992.031,0.347,0.535,0.716,-6.74,-4.12,5.04,4,5
18992.046,0.338,0.55,0.733,-3.63,-0.27,3.02,4,5
18992.062,0.331,0.55,0.733,-1.25,2.11,1.53,4,5
18992.062,0.331,0.545,0.721,0.58,4.06,-0.34,4,5
18992.078,0.313,0.552,0.724,1.71,6.26,-2.96,4,5
18992.093,0.283,0.579,0.754,1.74,7.72,-4.94,4,5
18992.093,0.275,0.6,0.782,-0.52,6.56,-5.01,4,5
18992.109,0.271,0.606,0.788,-1.22,4.33,-4.12,4,5
18992.109,0.27,0.584,0.764,0.4,2.53,-2.84,4,5
18992.125,0.275,0.563,0.734,1.34,2.11,-1.77,4,5
18992.14,0.283,0.568,0.729,0.31,3.33,-1.16,4,5
18992.14,0.272,0.578,0.747,-0.92,5.49,-0.82,4,5
18992.156,0.26,0.599,0.784,-1.95,5.95,0.73,4,5
18992.171,0.251,0.619,0.809,-2.14,3.69,2.96,4,5
18992.171,0.251,0.613,0.802,-1.92,-0.34,5.1,4,5
18992.187,0.255,0.592,0.786,-3.6,-4.3,6.53,4,5
18992.203,0.266,0.573,0.769,-5.86,-7.39,7.11,4,5
18992.203,0.291,0.557,0.749,-6.65,-9.06,7.23,4,5
18992.218,0.31,0.543,0.732,-5.71,-8.48,6.68,4,5
18992.234,0.32,0.536,0.72,-3.85,-6.04,5.04,4,5
18992.234,0.328,0.535,0.709,-2.62,-2.87,3.02,4,5
18992.25,0.338,0.536,0.703,-2.32,0.64,0.89,4,5
18992.25,0.34,0.543,0.706,-2.53,4.73,-1.59,4,5
18992.265,0.324,0.559,0.733,-2.81,8.45,-4.18,4,5
18992.281,0.303,0.58,0.766,-3.05,10.07,-5.4,4,5
18992.281,0.283,0.586,0.785,-3.23,9.43,-5.31,4,5
18992.296,0.273,0.579,0.791,-3.33,7.72,-4.55,4,5
18992.312,0.26,0.572,0.793,-2.9,5.74,-3.97,4,5
18992.312,0.255,0.559,0.797,-1.37,3.6,-2.9,4,5
18992.328,0.25,0.562,0.786,0.85,1.71,-1.71,4,5
18992.328,0.264,0.554,0.76,4.15,0.37,-0.52,4,5
18992.343,0.279,0.553,0.748,3.97,0.55,-0.95,4,5
18992.359,0.27,0.563,0.747,2.84,1.53,-2.62,4,5
18992.359,0.271,0.572,0.756,2.62,1.77,-2.47,4,5
18992.375,0.277,0.582,0.76,2.69,1.46,-1.37,4,5
18992.39,0.282,0.596,0.772,1.25,1.22,-0.34,4,5
18992.39,0.268,0.596,0.78,-0.4,0.52,0.27,4,5
18992.406,0.273,0.584,0.782,-1.83,-1.53,1.53,4,5
18992.421,0.279,0.565,0.77,-2.2,-3.27,2.26,4,5
18992.421,0.294,0.552,0.763,-1.92,-3.72,2.44,4,5
18992.437,0.295,0.55,0.757,-1.07,-3.11,1.77,4,5
18992.453,0.292,0.54,0.748,-0.12,-2.56,0.24,4,5
18992.453,0.294,0.542,0.746,0.12,-2.08,-1.65,4,5
18992.468,0.295,0.555,0.75,1.1,-1.13,-3.2,4,5
18992.468,0.282,0.571,0.75,1.98,0.12,-4.24,4,5
18992.484,0.265,0.58,0.756,2.35,0.64,-4.76,4,5
18992.5,0.267,0.594,0.768,1.83,-0.03,-4.27,4,5
18992.5,0.258,0.609,0.77,0.7,-0.82,-2.99,4,5
18992.515,0.253,0.602,0.769,-0.73,-2.08,-1.16,4,5
18992.531,0.262,0.585,0.759,-2.41,-3.27,0.52,4,5
18992.531,0.267,0.581,0.758,-4.09,-3.78,1.68,4,5
18992.546,0.271,0.576,0.768,-5.89,-3.57,2.87,4,5
18992.562,0.26,0.577,0.782,-6.74,-3.54,3.72,4,5
18992.562,0.268,0.574,0.792,-7.26,-5.34,4.88,4,5
18992.578,0.27,0.565,0.792,-7.63,-7.57,5.46,4,5
18992.593,0.273,0.563,0.789,-8.82,-9.7,5.77,4,5
18992.593,0.278,0.553,0.794,-9.61,-11.9,5.98,4,5
18992.609,0.286,0.55,0.792,-8.61,-13.79,6.04,4,5
18992.609,0.296,0.535,0.769,-4.15,-15.14,6.32,4,5
18992.625,0.309,0.538,0.749,-2.47,-15.29,5.28,4,5
18992.64,0.314,0.534,0.736,-1.74,-14.01,3.69,4,5
18992.64,0.309,0.526,0.729,0.37,-11.84,2.26,4,5
18992.656,0.303,0.545,0.734,2.78,-9.7,1.65,4,5
18992.671,0.288,0.577,0.761,3.75,-9.16,1.37,4,5
18992.687,0.285,0.591,0.785,1.74,-11.35,2.2,4,5
18992.687,0.289,0.592,0.793,-3.05,-14.83,3.08,4,5
18992.703,0.297,0.574,0.801,-6.96,-18.71,3.54,4,5
18992.703,0.304,0.549,0.78,-7.78,-21.03,3.63,4,5
18992.718,0.327,0.528,0.749,-7.39,-20.72,3.23,4,5
18992.734,0.341,0.516,0.715,-4.79,-17.55,1.62,4,5
18992.734,0.356,0.508,0.682,-1.1,-11.99,-0.18,4,5
18992.75,0.374,0.511,0.664,1.8,-4.7,-1.89,4,5
18992.75,0.383,0.516,0.657,3.51,2.99,-4.12,4,5
18992.765,0.39,0.526,0.659,3.23,11.05,-6.59,4,5
18992.781,0.39,0.513,0.654,4.21,18.95,-9.67,4,5
18992.781,0.392,0.506,0.649,6.1,27.19,-13.28,4,5
18992.796,0.387,0.502,0.663,8.0,36.93,-17.64,4,5
18992.812,0.382,0.492,0.675,10.9,46.69,-22.98,4,5
18992.812,0.324,0.484,0.704,16.54,56.37,-28.14,4,5
18992.828,0.157,0.593,0.898,6.32,55.27,-33.39,4,5
18992.843,0.203,0.739,1.033,-11.14,39.34,-33.97,4,5
18992.843,0.085,0.675,1.026,7.75,23.93,-25.79,4,5
18992.859,0.075,0.785,0.989,5.52,6.04,-19.93,4,5
18992.875,0.12,0.623,0.847,15.35,-9.7,-4.09,4,5
18992.875,0.205,0.507,0.725,20.29,-17.49,6.81,4,5
18992.89,0.251,0.55,0.659,17.27,-15.87,7.6,4,5
18992.89,0.258,0.572,0.673,12.91,-9.34,7.51,4,5
18992.906,0.248,0.595,0.743,7.39,-5.37,7.84,4,5
18992.921,0.236,0.626,0.787,4.33,-5.95,8.09,4,5
18992.921,0.24,0.631,0.81,2.5,-10.13,9.34,4,5
18992.937,0.252,0.626,0.813,0.12,-15.5,10.83,4,5
18992.953,0.243,0.611,0.81,-1.92,-20.39,11.9,4,5
18992.953,0.212,0.62,0.817,-4.76,-25.76,13.64,4,5
18992.968,0.308,0.583,0.759,3.57,-28.84,17.49,4,5
18992.984,0.287,0.481,0.694,-2.9,-26.06,14.89,4,5
18992.984,0.277,0.582,0.729,-5.58,-25.91,15.35,4,5
18993.0,0.315,0.595,0.724,-6.32,-23.59,14.28,4,5
18993.0,0.358,0.514,0.659,-5.37,-18.8,10.74,4,5
18993.015,0.38,0.535,0.655,-2.66,-11.17,8.27,4,5
18993.031,0.394,0.54,0.648,-0.15,-2.99,6.26,4,5
18993.031,0.383,0.541,0.651,-0.06,4.94,3.45,4,5
18993.046,0.354,0.561,0.696,-0.95,11.66,0.09,4,5
18993.062,0.303,0.589,0.756,-1.56,14.89,-2.2,4,5
18993.062,0.281,0.609,0.806,-4.76,12.39,-2.38,4,5
18993.078,0.277,0.603,0.813,-7.48,7.69,-1.86,4,5
18993.093,0.261,0.566,0.791,-6.81,4.24,-1.8,4,5
18993.093,0.253,0.558,0.78,-5.86,1.8,-0.67,4,5
18993.109,0.263,0.566,0.783,-6.59,-0.76,1.07,4,5
18993.125,0.289,0.558,0.782,-8.06,-2.9,2.26,4,5
18993.125,0.296,0.538,0.772,-6.16,-3.27,2.66,4,5
18993.14,0.307,0.527,0.755,-2.66,-2.9,2.84,4,5
18993.14,0.325,0.533,0.734,-0.21,-2.01,2.38,4,5
18993.156,0.339,0.535,0.721,0.61,0.18,0.73,4,5
18993.171,0.336,0.531,0.713,0.98,3.45,-1.98,4,5
18993.171,0.333,0.537,0.714,1.77,6.59,-4.27,4,5
18993.187,0.324,0.556,0.734,3.27,10.04,-5.71,4,5
18993.203,0.293,0.591,0.781,4.73,11.84,-6.44,4,5
18993.203,0.262,0.625,0.812,4.36,9.55,-5.49,4,5
18993.218,0.245,0.622,0.815,1.77,4.27,-3.78,4,5
18993.218,0.249,0.595,0.794,-0.76,-1.16,-2.14,4,5
18993.234,0.265,0.572,0.762,-1.86,-4.61,-0.64,4,5
18993.25,0.282,0.557,0.742,-2.14,-4.91,0.61,4,5
18993.25,0.293,0.552,0.736,-2.01,-3.36,1.43,4,5
18993.265,0.303,0.553,0.741,-1.68,-1.46,1.8,4,5
18993.281,0.311,0.554,0.749,-1.43,0.03,1.37,4,5
18993.281,0.309,0.558,0.754,-0.61,1.25,0.73,4,5
18993.296,0.302,0.561,0.761,0.18,2.01,0.18,4,5
18993.312,0.29,0.568,0.772,0.82,1.8,-0.21,4,5
18993.312,0.281,0.575,0.782,0.73,0.43,-0.27,4,5
18993.328,0.279,0.575,0.785,-0.03,-1.8,0.03,4,5
18993.343,0.28,0.566,0.776,-0.12,-4.0,0.12,4,5
18993.343,0.287,0.562,0.761,0.31,-5.22,0.46,4,5
18993.359,0.298,0.559,0.746,0.67,-5.25,0.64,4,5
18993.359,0.303,0.554,0.735,0.64,-4.52,0.34,4,5
18993.375,0.312,0.551,0.723,0.82,-2.87,-0.24,4,5
18993.39,0.328,0.555,0.726,1.07,-0.43,-0.82,4,5
18993.39,0.312,0.56,0.732,2.17,2.9,-2.08,4,5
18993.406,0.297,0.566,0.746,3.33,4.94,-2.2,4,5
18993.421,0.285,0.586,0.78,3.23,5.28,-1.83,4,5
18993.421,0.274,0.598,0.798,2.84,3.57,-1.13,4,5
18993.437,0.258,0.588,0.801,2.44,0.31,0.06,4,5
18993.453,0.261,0.575,0.791,1.65,-3.48,1.22,4,5
18993.453,0.274,0.566,0.771,1.19,-6.16,2.17,4,5
18993.468,0.283,0.558,0.754,1.01,-6.96,2.62,4,5
18993.468,0.298,0.553,0.743,0.61,-6.84,2.78,4,5
18993.484,0.306,0.548,0.729,1.01,-5.86,2.23,4,5
18993.5,0.323,0.556,0.725,1.04,-4.0,1.62,4,5
18993.5,0.323,0.563,0.732,0.55,-1.4,0.46,4,5
18993.515,0.309,0.569,0.748,0.55,0.58,-0.64,4,5
18993.531,0.294,0.582,0.768,0.4,0.7,-0.79,4,5
18993.531,0.288,0.585,0.782,0.18,-0.73,-0.27,4,5
18993.546,0.275,0.583,0.79,0.64,-2.5,0.18,4,5
18993.562,0.266,0.579,0.786,1.56,-5.01,1.19,4,5
18993.578,0.273,0.576,0.774,1.77,-7.51,2.66,4,5
18993.578,0.286,0.565,0.753,1.86,-9.0,3.33,4,5
18993.578,0.302,0.554,0.734,2.04,-8.73,3.48,4,5
18993.593,0.313,0.555,0.725,2.04,-7.2,2.99,4,5
18993.609,0.327,0.556,0.718,1.95,-5.25,2.53,4,5
18993.609,0.339,0.555,0.713,1.68,-2.59,1.53,4,5
18993.625,0.34,0.555,0.713,1.22,0.27,0.0,4,5
18993.64,0.331,0.559,0.728,1.01,2.84,-1.71,4,5
18993.64,0.313,0.57,0.752,1.37,4.3,-2.93,4,5
18993.656,0.294,0.582,0.779,1.68,4.43,-2.99,4,5
18993.671,0.275,0.59,0.801,1.46,2.2,-2.66,4,5
18993.671,0.262,0.584,0.798,1.53,-1.59,-1.98,4,5
18993.687,0.265,0.575,0.786,1.5,-5.31,-0.73,4,5
18993.703,0.284,0.567,0.764,1.56,-7.6,0.4,4,5
18993.703,0.297,0.56,0.738,2.32,-8.0,0.89,4,5
18993.718,0.307,0.553,0.719,3.39,-6.68,0.98,4,5
18993.734,0.318,0.551,0.706,3.97,-4.55,0.61,4,5
18993.734,0.339,0.563,0.709,3.54,-1.83,-0.58,4,5
18993.75,0.336,0.568,0.717,3.05,1.56,-2.75,4,5
18993.75,0.319,0.565,0.726,3.51,4.15,-4.12,4,5
18993.765,0.304,0.575,0.744,4.49,5.13,-4.06,4,5
18993.781,0.306,0.596,0.765,5.16,4.97,-3.05,4,5
18993.796,0.293,0.608,0.783,5.37,4.3,-2.08,4,5
18993.796,0.274,0.6,0.782,5.19,2.29,-1.04,4,5
18993.812,0.264,0.584,0.774,4.64,-0.82,0.09,4,5
18993.812,0.277,0.573,0.757,3.81,-4.12,1.34,4,5
18993.828,0.301,0.575,0.745,2.14,-5.31,1.56,4,5
18993.843,0.303,0.566,0.735,1.65,-4.52,0.79,4,5
18993.843,0.303,0.559,0.724,2.23,-3.36,0.12,4,5
18993.859,0.312,0.562,0.718,2.96,-2.01,-0.12,4,5
18993.875,0.318,0.57,0.723,2.99,0.06,-1.07,4,5
18993.875,0.304,0.578,0.748,2.81,1.98,-2.5,4,5
18993.89,0.285,0.586,0.769,3.75,2.01,-2.78,4,5
18993.89,0.278,0.596,0.783,5.25,0.09,-1.56,4,5
18993.906,0.283,0.602,0.777,6.01,-2.81,-0.06,4,5
18993.921,0.283,0.593,0.762,5.89,-5.34,0.43,4,5
18993.921,0.286,0.578,0.752,5.8,-7.02,0.76,4,5
18993.937,0.3,0.573,0.738,5.83,-8.06,1.19,4,5
18993.953,0.314,0.572,0.726,5.83,-7.66,1.13,4,5
18993.953,0.322,0.57,0.718,6.53,-4.15,-1.16,4,5
18993.968,0.322,0.563,0.713,7.29,-1.92,-2.47,4,5
18993.968,0.321,0.564,0.711,8.12,0.03,-3.54,4,5
18993.984,0.32,0.587,0.736,9.16,1.86,-4.15,4,5
18994.0,0.297,0.593,0.751,11.05,3.02,-4.21,4,5
18994.015,0.277,0.609,0.769,12.02,1.77,-3.57,4,5
18994.015,0.275,0.621,0.774,11.78,-1.43,-2.41,4,5
18994.031,0.276,0.617,0.761,11.26,-4.88,-1.74,4,5
18994.031,0.275,0.606,0.747,10.25,-7.78,-1.13,4,5
18994.046,0.286,0.595,0.727,9.34,-9.52,-0.61,4,5
18994.062,0.3,0.591,0.709,8.88,-9.77,-0.27,4,5
18994.062,0.313,0.591,0.7,8.51,-8.76,-0.27,4,5
18994.078,0.319,0.598,0.698,8.18,-6.9,-0.98,4,5
18994.078,0.314,0.604,0.706,8.42,-4.94,-1.43,4,5
18994.093,0.31,0.614,0.724,8.88,-4.15,-1.19,4,5
18994.109,0.299,0.627,0.742,9.22,-4.49,-0.34,4,5
18994.109,0.289,0.637,0.756,9.46,-6.47,0.98,4,5
18994.125,0.28,0.64,0.76,9.7,-9.52,2.96,4,5
18994.14,0.283,0.633,0.749,9.92,-12.76,5.49,4,5
18994.156,0.294,0.619,0.73,10.19,-14.86,7.6,4,5
18994.156,0.304,0.602,0.71,9.98,-15.72,8.12,4,5
18994.171,0.316,0.59,0.692,10.35,-15.17,8.12,4,5
18994.171,0.328,0.581,0.681,11.17,-13.31,7.66,4,5
18994.187,0.34,0.583,0.679,12.67,-10.41,6.81,4,5
18994.203,0.342,0.585,0.683,14.56,-7.42,5.68,4,5
18994.203,0.336,0.588,0.687,16.08,-4.88,4.18,4,5
18994.218,0.333,0.597,0.692,16.97,-3.48,2.5,4,5
18994.218,0.335,0.607,0.709,17.24,-3.72,1.28,4,5
18994.234,0.33,0.62,0.727,18.52,-4.18,0.89,4,5
18994.25,0.325,0.626,0.732,21.09,-5.43,1.65,4,5
18994.265,0.33,0.618,0.714,22.34,-7.32,2.17,4,5
18994.265,0.326,0.608,0.693,21.94,-8.51,1.37,4,5
18994.281,0.335,0.606,0.674,21.18,-9.0,0.49,4,5
18994.281,0.353,0.601,0.665,20.78,-8.61,-0.98,4,5
18994.296,0.363,0.597,0.644,21.55,-6.26,-3.45,4,5
18994.312,0.366,0.594,0.618,22.8,-2.23,-6.32,4,5
18994.312,0.369,0.603,0.624,24.29,2.44,-8.82,4,5
18994.328,0.35,0.634,0.635,26.89,6.56,-10.99,4,5
18994.328,0.328,0.657,0.64,28.02,8.76,-12.42,4,5
18994.343,0.315,0.694,0.668,25.88,8.58,-12.57,4,5
18994.359,0.3,0.719,0.685,23.22,6.32,-10.99,4,5
18994.375,0.281,0.738,0.69,20.57,3.2,-7.9,4,5
18994.375,0.276,0.748,0.701,16.72,-0.61,-4.06,4,5
18994.39,0.271,0.745,0.709,13.58,-4.88,-0.52,4,5
18994.39,0.264,0.74,0.702,11.02,-9.61,3.11,4,5
18994.406,0.281,0.728,0.697,7.69,-13.76,7.2,4,5
18994.421,0.306,0.715,0.679,5.49,-15.5,10.41,4,5
18994.421,0.324,0.713,0.679,4.94,-14.13,12.36,4,5
18994.437,0.333,0.724,0.704,6.84,-11.29,13.76,4,5
18994.453,0.329,0.738,0.718,9.77,-8.39,14.5,4,5
18994.453,0.317,0.755,0.73,10.71,-4.27,12.7,4,5
18994.468,0.312,0.794,0.768,9.4,-2.53,9.52,4,5
18994.484,0.319,0.828,0.788,7.05,-4.15,8.24,4,5
18994.484,0.303,0.776,0.729,4.21,-3.88,5.74,4,5
18994.5,0.274,0.773,0.793,9.61,7.84,-14.28,4,5
18994.5,0.17,0.81,0.846,21.45,4.0,-24.9,4,5
18994.515,0.129,0.776,0.813,32.84,0.18,-28.26,4,5
18994.531,0.112,0.782,0.766,39.64,-6.29,-27.31,4,5
18994.531,0.123,0.784,0.722,42.15,-11.32,-22.98,4,5
18994.546,0.156,0.805,0.691,38.0,-13.43,-20.36,4,5
18994.562,0.154,0.808,0.681,29.91,-12.15,-20.02,4,5
18994.578,0.141,0.789,0.694,21.67,-11.11,-18.37,4,5
18994.578,0.159,0.775,0.715,17.55,-11.41,-15.87,4,5
18994.593,0.162,0.754,0.703,18.89,-11.54,-14.59,4,5
18994.593,0.153,0.73,0.677,21.09,-11.66,-14.44,4,5
18994.609,0.165,0.713,0.664,22.0,-12.48,-15.23,4,5
18994.625,0.172,0.705,0.641,22.64,-13.06,-17.85,4,5
18994.625,0.163,0.694,0.625,23.59,-13.15,-21.64,4,5
18994.64,0.157,0.697,0.64,26.12,-13.61,-24.99,4,5
18994.656,0.143,0.705,0.647,31.89,-15.14,-27.62,4,5
18994.656,0.132,0.712,0.628,36.77,-18.13,-28.57,4,5
18994.671,0.14,0.711,0.6,37.87,-22.25,-28.47,4,5
18994.671,0.17,0.71,0.563,36.99,-25.48,-28.02,4,5
18994.687,0.199,0.702,0.525,34.76,-26.4,-27.99,4,5
18994.703,0.23,0.685,0.489,31.98,-24.66,-28.78,4,5
18994.703,0.248,0.677,0.473,30.55,-20.39,-30.06,4,5
18994.718,0.248,0.671,0.466,31.37,-14.53,-31.86,4,5
18994.734,0.223,0.669,0.474,32.93,-9.16,-33.3,4,5
18994.734,0.201,0.676,0.49,32.81,-6.53,-34.06,4,5
18994.75,0.197,0.69,0.503,29.73,-6.81,-34.79,4,5
18994.75,0.197,0.705,0.516,25.51,-9.37,-35.77,4,5
18994.765,0.206,0.703,0.514,23.26,-13.34,-36.41,4,5
18994.781,0.218,0.719,0.529,21.82,-17.33,-37.63,4,5
18994.781,0.221,0.728,0.519,22.43,-20.6,-39.52,4,5
18994.796,0.216,0.728,0.51,22.52,-23.38,-40.96,4,5
18994.812,0.213,0.713,0.491,21.85,-25.97,-42.88,4,5
18994.828,0.22,0.706,0.468,20.94,-27.07,-45.63,4,5
18994.828,0.217,0.716,0.455,20.02,-26.28,-49.53,4,5
18994.843,0.224,0.714,0.418,17.52,-24.02,-54.08,4,5
18994.843,0.241,0.686,0.371,16.48,-20.97,-58.05,4,5
18994.859,0.238,0.675,0.371,17.15,-15.93,-62.04,4,5
18994.875,0.23,0.669,0.359,17.21,-11.81,-66.87,4,5
18994.875,0.224,0.65,0.361,17.46,-8.45,-72.08,4,5
18994.89,0.208,0.626,0.368,20.08,-5.25,-77.46,4,5
18994.906,0.196,0.617,0.361,23.59,-3.02,-81.55,4,5
18994.906,0.187,0.63,0.35,23.96,-1.16,-84.54,4,5
18994.921,0.171,0.644,0.344,20.81,1.28,-86.98,4,5
18994.921,0.156,0.66,0.34,13.03,3.57,-87.71,4,5
18994.937,0.158,0.675,0.336,-4.97,9.8,-87.25,4,5
18994.953,0.164,0.683,0.336,-11.69,15.2,-87.83,4,5
18994.953,0.167,0.696,0.369,-16.14,20.72,-90.03,4,5
18994.968,0.188,0.728,0.413,-15.02,25.76,-93.81,4,5
18994.984,0.155,0.778,0.485,-10.32,28.32,-98.64,4,5
18994.984,0.114,0.773,0.514,-2.62,26.76,-103.27,4,5
18995.0,0.081,0.758,0.519,7.11,21.3,-107.61,4,5
18995.0,0.054,0.733,0.506,15.69,14.1,-113.41,4,5
18995.015,0.017,0.689,0.465,22.8,7.75,-120.76,4,5
18995.031,0.001,0.649,0.402,25.39,3.66,-129.55,4,5
18995.031,0.015,0.665,0.322,22.92,5.16,-139.84,4,5
18995.046,0.028,0.729,0.256,13.15,14.65,-149.66,4,5
18995.062,0.024,0.753,0.198,-2.5,30.3,-157.32,4,5
18995.078,0.009,0.728,0.165,-19.56,51.82,-162.57,4,5
18995.078,-0.046,0.696,0.168,-31.92,77.12,-166.97,4,5
18995.093,-0.131,0.668,0.204,-35.65,102.15,-168.52,4,5
18995.093,-0.21,0.618,0.233,-35.77,122.9,-168.71,4,5
18995.109,-0.261,0.56,0.253,-36.1,139.65,-169.93,4,5
18995.109,-0.315,0.506,0.282,-32.35,152.9,-172.64,4,5
18995.125,-0.397,0.451,0.3,-21.79,163.3,-177.89,4,5
18995.14,-0.502,0.42,0.339,-10.65,167.3,-183.97,4,5
18995.14,-0.568,0.44,0.426,1.25,160.89,-191.47,4,5
18995.156,-0.612,0.461,0.484,20.36,152.32,-200.81,4,5
18995.171,-0.706,0.49,0.495,41.81,141.24,-212.47,4,5
18995.171,-0.818,0.514,0.535,60.82,121.22,-224.92,4,5
18995.187,-0.898,0.544,0.607,78.77,91.98,-231.15,4,5
18995.203,-0.913,0.598,0.606,97.14,56.22,-228.98,4,5
18995.203,-0.816,0.674,0.513,112.25,27.71,-225.47,4,5
18995.218,-0.749,0.749,0.438,117.5,12.91,-225.47,4,5
18995.234,-0.727,0.761,0.372,109.32,4.27,-219.55,4,5
18995.234,-0.706,0.751,0.336,93.11,1.62,-205.18,4,5
18995.25,-0.712,0.751,0.304,78.52,7.57,-192.02,4,5
18995.265,-0.769,0.751,0.288,61.68,16.24,-179.54,4,5
18995.265,-0.847,0.733,0.328,40.04,21.12,-164.86,4,5
18995.281,-0.937,0.711,0.412,22.16,17.91,-150.36,4,5
18995.281,-1.011,0.686,0.464,13.0,6.32,-134.74,4,5
18995.296,-1.041,0.666,0.479,9.13,-10.71,-117.25,4,5
18995.312,-1.035,0.663,0.478,7.63,-28.93,-101.44,4,5
18995.312,-1.019,0.644,0.476,6.81,-44.04,-89.79,4,5
18995.328,-1.013,0.603,0.448,4.36,-56.49,-82.67,4,5
18995.343,-1.005,0.578,0.417,-0.85,-66.35,-79.17,4,5
18995.343,-0.988,0.559,0.396,-3.94,-72.57,-77.09,4,5
18995.359,-0.988,0.537,0.387,-3.11,-75.23,-77.15,4,5
18995.359,-1.003,0.524,0.391,-0.92,-76.27,-78.86,4,5
18995.375,-1.011,0.527,0.406,-0.31,-77.94,-82.0,4,5
18995.39,-1.012,0.542,0.431,-2.11,-81.42,-86.34,4,5
18995.39,-0.993,0.547,0.448,-5.04,-86.64,-90.64,4,5
18995.406,-0.962,0.541,0.462,-8.55,-90.95,-94.33,4,5
18995.421,-0.927,0.526,0.511,-8.06,-92.72,-97.96,4,5
18995.421,-0.914,0.522,0.563,5.49,-93.05,-103.43,4,5
18995.437,-0.928,0.53,0.597,28.11,-94.88,-110.97,4,5
18995.453,-0.955,0.544,0.624,47.21,-99.8,-119.08,4,5
18995.453,-0.98,0.551,0.632,60.52,-110.66,-126.44,4,5
18995.468,-0.965,0.526,0.61,72.6,-123.91,-130.34,4,5
18995.484,-0.944,0.504,0.566,85.18,-132.69,-130.95,4,5
18995.484,-0.931,0.501,0.514,92.96,-135.69,-129.09,4,5
18995.5,-0.91,0.509,0.466,92.14,-134.77,-125.03,4,5
18995.5,-0.877,0.49,0.432,84.99,-129.67,-117.44,4,5
18995.515,-0.847,0.456,0.42,75.62,-120.46,-108.1,4,5
18995.531,-0.839,0.43,0.42,67.26,-109.1,-97.17,4,5
18995.531,-0.841,0.418,0.428,58.29,-99.43,-85.85,4,5
18995.546,-0.839,0.4,0.443,46.24,-92.47,-74.37,4,5
18995.562,-0.816,0.381,0.453,31.34,-86.06,-62.72,4,5
18995.578,-0.803,0.364,0.467,13.21,-79.59,-51.06,4,5
18995.578,-0.792,0.326,0.486,-3.02,-73.4,-39.77,4,5
18995.593,-0.773,0.295,0.499,-14.83,-66.41,-29.08,4,5
18995.593,-0.766,0.268,0.514,-24.6,-58.81,-19.53,4,5
18995.609,-0.756,0.228,0.522,-31.71,-51.76,-11.57,4,5
18995.609,-0.744,0.201,0.525,-37.39,-44.83,-5.8,4,5
18995.625,-0.753,0.17,0.538,-41.6,-37.05,-3.2,4,5
18995.64,-0.788,0.137,0.563,-43.49,-30.43,-2.14,4,5
18995.64,-0.8,0.119,0.575,-43.4,-26.95,-1.16,4,5
18995.656,-0.8,0.111,0.591,-42.79,-24.38,-1.89,4,5
18995.671,-0.781,0.082,0.578,-40.83,-22.71,-3.51,4,5
18995.671,-0.741,0.065,0.549,-38.51,-18.59,-5.95,4,5
18995.687,-0.738,0.057,0.52,-38.42,-12.45,-8.39,4,5
18995.703,-0.733,0.046,0.485,-42.63,-4.58,-9.95,4,5
18995.703,-0.721,0.052,0.463,-52.03,4.64,-11.17,4,5
18995.718,-0.702,0.049,0.451,-60.82,16.14,-12.57,4,5
18995.734,-0.715,0.073,0.457,-69.31,30.76,-14.28,4,5
18995.734,-0.765,0.102,0.496,-78.46,44.19,-15.26,4,5
18995.75,-0.854,0.091,0.565,-86.79,52.74,-13.25,4,5
18995.75,-0.937,0.073,0.651,-95.25,51.79,-7.75,4,5
18995.765,-0.954,0.048,0.755,-104.46,40.8,-1.59,4,5
18995.781,-0.944,0.017,0.817,-109.23,25.64,4.12,4,5
18995.796,-0.927,-0.042,0.822,-105.78,9.25,7.9,4,5
18995.796,-0.905,-0.083,0.8,-95.98,-5.46,9.67,4,5
18995.812,-0.875,-0.098,0.755,-82.89,-16.14,9.22,4,5
18995.812,-0.857,-0.103,0.703,-69.86,-22.37,5.86,4,5
18995.828,-0.846,-0.104,0.689,-58.57,-26.49,-0.73,4,5
18995.843,-0.838,-0.112,0.687,-48.16,-30.12,-9.22,4,5
18995.843,-0.85,-0.105,0.704,-40.62,-34.67,-17.06,4,5
18995.859,-0.858,-0.095,0.731,-33.75,-43.43,-23.96,4,5
18995.875,-0.852,-0.084,0.737,-26.7,-53.68,-29.88,4,5
18995.875,-0.83,-0.067,0.721,-21.52,-62.69,-34.7,4,5
18995.89,-0.799,-0.057,0.696,-17.27,-66.99,-39.31,4,5
18995.89,-0.782,-0.049,0.689,-11.02,-65.28,-43.46,4,5
18995.906,-0.79,-0.056,0.673,-1.31,-62.2,-46.54,4,5
18995.921,-0.777,-0.03,0.649,4.58,-59.33,-46.94,4,5
18995.921,-0.751,0.011,0.695,6.47,-56.46,-48.62,4,5
18995.937,-0.738,0.013,0.754,10.38,-59.21,-50.63,4,5
18995.953,-0.742,0.025,0.777,14.07,-63.88,-55.39,4,5
18995.953,-0.692,0.037,0.748,22.13,-67.96,-62.23,4,5
18995.968,-0.666,0.046,0.706,34.94,-70.59,-68.24,4,5
18995.984,-0.631,0.057,0.659,46.69,-70.77,-73.46,4,5
18995.984,-0.605,0.076,0.625,53.22,-67.69,-77.43,4,5
18996.0,-0.587,0.079,0.618,57.71,-61.86,-80.6,4,5
18996.015,-0.586,0.068,0.617,62.9,-54.87,-82.8,4,5
18996.015,-0.591,0.066,0.614,67.26,-47.76,-83.71,4,5
18996.031,-0.588,0.061,0.616,69.98,-40.93,-84.08,4,5
18996.031,-0.584,0.074,0.641,70.47,-34.61,-82.8,4,5
18996.046,-0.576,0.095,0.659,71.44,-28.69,-80.6,4,5
18996.062,-0.563,0.108,0.672,71.17,-23.13,-77.94,4,5
18996.062,-0.565,0.136,0.687,68.12,-17.79,-74.86,4,5
18996.078,-0.57,0.158,0.705,65.4,-13.09,-70.77,4,5
18996.093,-0.569,0.167,0.716,63.6,-9.16,-66.01,4,5
18996.093,-0.567,0.181,0.72,61.04,-5.4,-60.88,4,5
18996.109,-0.558,0.184,0.727,57.89,-1.19,-54.9,4,5
18996.125,-0.539,0.176,0.727,54.78,4.7,-47.46,4,5
18996.125,-0.532,0.175,0.726,49.38,12.36,-38.82,4,5
18996.14,-0.539,0.183,0.756,41.26,19.84,-29.36,4,5
18996.14,-0.576,0.171,0.805,31.89,26.67,-20.02,4,5
18996.156,-0.555,0.161,0.868,23.93,26.76,-5.89,4,5
18996.171,-0.544,0.169,0.871,21.45,28.5,0.34,4,5
18996.187,-0.553,0.144,0.876,14.31,26.22,5.4,4,5
18996.187,-0.552,0.111,0.854,8.7,19.9,11.05,4,5
18996.203,-0.532,0.085,0.813,6.44,17.24,15.47,4,5
18996.203,-0.49,0.055,0.784,3.6,17.0,20.78,4,5
18996.218,-0.436,0.053,0.767,1.04,19.75,25.18,4,5
18996.234,-0.421,0.057,0.743,-3.33,25.3,26.67,4,5
18996.234,-0.415,0.049,0.742,-12.7,30.76,27.31,4,5
18996.25,-0.406,0.033,0.778,-22.13,35.34,26.28,4,5
18996.265,-0.398,0.029,0.818,-26.89,38.73,23.99,4,5
18996.265,-0.396,0.063,0.867,-28.26,40.44,21.18,4,5
18996.281,-0.433,0.076,0.912,-27.68,39.0,18.19,4,5
18996.281,-0.513,0.066,0.938,-26.95,35.68,17.46,4,5
18996.296,-0.608,0.082,0.931,-26.55,29.94,21.27,4,5
18996.312,-0.652,0.084,0.879,-28.99,21.27,29.82,4,5
18996.312,-0.624,0.05,0.84,-35.28,12.73,37.93,4,5
18996.328,-0.578,-0.001,0.833,-37.81,8.03,41.81,4,5
18996.343,-0.579,-0.057,0.817,-30.52,6.81,39.74,4,5
18996.343,-0.605,-0.099,0.794,-16.79,5.86,33.11,4,5
18996.359,-0.621,-0.125,0.775,0.34,3.69,24.32,4,5
18996.359,-0.629,-0.131,0.759,15.32,1.77,16.11,4,5
18996.375,-0.636,-0.111,0.74,21.94,-0.4,8.36,4,5
18996.39,-0.635,-0.093,0.741,20.26,-2.14,2.35,4,5
18996.406,-0.637,-0.082,0.752,15.59,-2.99,-1.13,4,5
18996.406,-0.644,-0.064,0.758,11.6,-3.66,-2.44,4,5
18996.421,-0.657,-0.049,0.759,8.88,-4.79,-1.83,4,5
18996.421,-0.668,-0.052,0.738,6.35,-6.53,-0.49,4,5
18996.437,-0.662,-0.063,0.71,2.53,-7.75,1.19,4,5
18996.453,-0.66,-0.07,0.693,-1.68,-7.23,1.83,4,5
18996.453,-0.66,-0.075,0.692,-4.09,-5.55,0.79,4,5
18996.468,-0.663,-0.078,0.704,-4.43,-3.66,-0.61,4,5
18996.484,-0.667,-0.071,0.72,-3.81,-2.47,-2.32,4,5
18996.484,-0.689,-0.043,0.747,-3.17,-2.23,-5.16,4,5
18996.5,-0.713,-0.026,0.779,-1.13,-3.75,-8.36,4,5
18996.5,-0.728,-0.019,0.797,3.78,-6.87,-10.41,4,5
18996.515,-0.726,-0.005,0.785,10.99,-10.19,-11.41,4,5
18996.531,-0.722,0.007,0.761,17.15,-11.29,-11.99,4,5
18996.531,-0.71,-0.003,0.744,21.0,-9.74,-11.41,4,5
18996.546,-0.695,-0.012,0.73,24.26,-5.86,-10.35,4,5
18996.562,-0.692,-0.0,0.727,26.34,-0.09,-9.0,4,5
18996.562,-0.697,0.005,0.728,25.15,5.22,-7.11,4,5
18996.578,-0.702,0.009,0.737,20.72,9.31,-4.33,4,5
18996.578,-0.714,0.029,0.764,14.65,11.81,-0.7,4,5
18996.593,-0.715,0.037,0.789,7.54,11.51,4.49,4,5
18996.609,-0.703,0.033,0.799,0.03,9.0,10.5,4,5
18996.609,-0.684,0.035,0.799,-5.95,6.65,16.42,4,5
18996.625,-0.67,0.042,0.788,-11.54,5.07,22.03,4,5
18996.64,-0.659,0.027,0.776,-17.67,4.06,26.95,4,5
18996.64,-0.653,-0.004,0.77,-22.68,4.36,30.98,4,5
18996.656,-0.65,-0.04,0.768,-24.32,5.34,33.81,4,5
18996.671,-0.639,-0.073,0.763,-22.71,6.35,34.12,4,5
18996.687,-0.635,-0.089,0.761,-19.29,7.72,30.64,4,5
18996.687,-0.641,-0.1,0.76,-14.4,9.28,24.35,4,5
18996.687,-0.652,-0.099,0.769,-9.31,9.86,17.49,4,5
18996.703,-0.67,-0.079,0.784,-5.19,9.0,10.74,4,5
18996.718,-0.678,-0.061,0.795,-2.2,6.01,5.77,4,5
18996.734,-0.67,-0.042,0.793,0.12,2.62,3.69,4,5
18996.75,-0.657,-0.015,0.783,1.16,0.06,3.94,4,5
18996.75,-0.644,-0.008,0.77,-0.18,-1.07,5.83,4,5
18996.765,-0.634,0.003,0.756,-3.63,-0.15,8.67,4,5
18996.765,-0.634,0.009,0.744,-8.61,2.26,11.47,4,5
18996.781,-0.64,0.002,0.751,-14.47,3.75,13.64,4,5
18996.796,-0.658,-0.014,0.768,-18.65,4.24,14.89,4,5
18996.812,-0.672,-0.039,0.786,-19.23,2.96,15.59,4,5
18996.812,-0.679,-0.045,0.795,-15.75,0.21,15.02,4,5
18996.828,-0.681,-0.04,0.794,-10.86,-4.12,12.97,4,5
18996.843,-0.67,-0.039,0.788,-5.89,-8.42,11.26,4,5
18996.843,-0.656,-0.03,0.772,-1.8,-10.93,10.07,4,5
18996.859,-0.646,-0.02,0.761,0.58,-11.99,8.85,4,5
18996.875,-0.645,-0.005,0.756,1.19,-12.09,7.48,4,5
18996.875,-0.645,0.004,0.751,0.64,-11.78,6.35,4,5
18996.875,-0.647,0.005,0.752,-0.15,-11.23,5.8,4,5
18996.89,-0.661,0.003,0.768,0.82,-10.77,5.4,4,5
18996.906,-0.671,0.021,0.774,2.99,-10.99,5.13,4,5
18996.906,-0.683,0.042,0.791,4.21,-14.25,3.42,4,5
18996.921,-0.705,0.05,0.812,6.29,-16.79,3.33,4,5
18996.921,-0.721,0.063,0.826,9.19,-19.62,4.67,4,5
18996.937,-0.724,0.078,0.834,10.5,-21.82,6.47,4,5
18996.953,-0.74,0.103,0.849,8.36,-23.22,7.63,4,5
18996.953,-0.758,0.12,0.867,3.88,-25.67,8.85,4,5
18996.968,-0.776,0.124,0.888,0.92,-29.11,10.28,4,5
18996.968,-0.792,0.128,0.913,3.33,-32.2,12.3,4,5
18996.984,-0.798,0.149,0.928,9.74,-34.97,15.26,4,5
18997.0,-0.8,0.172,0.946,13.49,-38.97,19.32,4,5
18997.015,-0.789,0.163,0.978,13.52,-43.95,24.57,4,5
18997.015,-0.776,0.134,0.992,11.41,-49.56,30.88,4,5
18997.031,-0.714,0.093,0.958,8.64,-53.56,38.79,4,5
18997.031,-0.649,0.063,0.902,4.94,-52.8,45.56,4,5
18997.046,-0.606,0.03,0.866,0.79,-48.55,50.2,4,5
18997.062,-0.566,-0.006,0.842,-1.71,-42.76,52.16,4,5
18997.062,-0.542,-0.021,0.837,-4.03,-36.99,49.59,4,5
18997.078,-0.523,-0.028,0.837,-3.54,-31.56,41.75,4,5
18997.093,-0.507,-0.038,0.823,2.62,-26.8,30.52,4,5
18997.093,-0.493,-0.042,0.795,13.31,-22.0,16.82,4,5
18997.109,-0.488,-0.035,0.758,25.06,-15.72,2.08,4,5
18997.109,-0.485,-0.02,0.726,35.89,-7.42,-12.42,4,5
18997.125,-0.495,0.01,0.709,44.56,2.66,-24.08,4,5
18997.14,-0.532,0.061,0.728,48.13,12.3,-32.59,4,5
18997.156,-0.583,0.115,0.775,46.75,18.01,-38.21,4,5
18997.156,-0.628,0.165,0.834,43.86,17.12,-39.4,4,5
18997.171,-0.65,0.194,0.876,41.17,9.06,-36.84,4,5
18997.171,-0.644,0.202,0.882,38.15,-4.0,-31.95,4,5
18997.187,-0.607,0.199,0.837,35.19,-16.66,-26.06,4,5
18997.203,-0.562,0.167,0.764,33.81,-24.78,-21.24,4,5
18997.203,-0.527,0.141,0.686,34.36,-26.73,-17.21,4,5
18997.218,-0.503,0.133,0.63,33.88,-23.04,-15.02,4,5
18997.234,-0.493,0.117,0.602,32.53,-15.87,-14.25,4,5
18997.234,-0.501,0.122,0.591,30.49,-7.39,-14.1,4,5
18997.25,-0.513,0.137,0.606,28.05,-0.09,-13.95,4,5
18997.25,-0.519,0.143,0.645,26.18,4.58,-13.34,4,5
18997.265,-0.53,0.154,0.672,24.72,6.44,-11.75,4,5
18997.281,-0.523,0.147,0.687,23.44,5.89,-10.16,4,5
18997.281,-0.515,0.124,0.691,23.26,4.55,-8.03,4,5
18997.296,-0.516,0.106,0.688,22.83,4.36,-5.22,4,5
18997.312,-0.516,0.082,0.684,19.84,5.46,-0.85,4,5
18997.312,-0.515,0.059,0.684,13.03,8.06,4.55,4,5
18997.328,-0.549,0.057,0.687,3.94,12.33,9.95,4,5
18997.343,-0.584,0.044,0.712,-6.1,15.32,15.02,4,5
18997.343,-0.605,0.047,0.737,-14.95,15.2,17.61,4,5
18997.359,-0.631,0.044,0.752,-20.84,12.02,16.69,4,5
18997.359,-0.621,0.033,0.778,-21.61,7.2,14.86,4,5
18997.375,-0.585,0.03,0.777,-16.14,1.77,12.76,4,5
18997.39,-0.537,0.048,0.758,-7.87,-2.35,10.16,4,5
18997.39,-0.498,0.075,0.749,-0.98,-3.42,6.5,4,5
18997.406,-0.482,0.105,0.735,3.69,-2.2,3.11,4,5
18997.421,-0.469,0.129,0.72,5.77,1.13,1.4,4,5
18997.421,-0.463,0.145,0.72,4.64,5.83,0.09,4,5
18997.437,-0.466,0.165,0.74,3.14,10.04,-2.08,4,5
18997.453,-0.47,0.181,0.768,4.12,12.57,-4.43,4,5
18997.453,-0.484,0.207,0.787,4.03,14.44,-6.71,4,5
18997.468,-0.5,0.223,0.821,-0.15,15.11,-8.64,4,5
18997.484,-0.529,0.221,0.858,-5.31,14.1,-9.77,4,5
18997.484,-0.549,0.202,0.892,-7.66,11.26,-9.19,4,5
18997.5,-0.55,0.193,0.913,-5.4,6.84,-6.93,4,5
18997.5,-0.537,0.171,0.904,-0.09,1.43,-4.43,4,5
18997.515,-0.522,0.154,0.885,3.91,-3.36,-2.53,4,5
18997.531,-0.515,0.123,0.861,5.62,-6.84,-1.92,4,5
18997.531,-0.507,0.099,0.843,7.02,-9.34,-3.33,4,5
18997.546,-0.524,0.096,0.821,10.25,-10.62,-6.5,4,5
18997.562,-0.547,0.096,0.81,13.18,-11.66,-10.22,4,5
18997.578,-0.557,0.105,0.802,16.11,-13.21,-13.76,4,5
18997.578,-0.567,0.116,0.782,21.42,-14.13,-16.27,4,5
18997.593,-0.566,0.139,0.756,26.15,-13.34,-15.66,4,5
18997.593,-0.561,0.162,0.731,25.67,-10.9,-13.64,4,5
18997.609,-0.564,0.172,0.728,22.16,-7.26,-10.83,4,5
18997.609,-0.578,0.184,0.739,17.79,-3.51,-6.35,4,5
18997.625,-0.571,0.197,0.755,10.56,-0.95,-0.31,4,5
18997.64,-0.556,0.202,0.782,2.56,0.95,5.58,4,5
18997.64,-0.554,0.197,0.804,-3.97,1.25,10.56,4,5
18997.656,-0.555,0.174,0.826,-8.97,-1.01,13.03,4,5
18997.671,-0.552,0.141,0.831,-7.54,-5.01,13.12,4,5
18997.671,-0.529,0.138,0.81,-1.46,-9.49,11.23,4,5
18997.687,-0.51,0.149,0.78,4.24,-12.36,7.57,4,5
18997.703,-0.501,0.156,0.76,6.62,-12.09,4.49,4,5
18997.703,-0.501,0.184,0.765,6.1,-9.37,3.11,4,5
18997.718,-0.523,0.193,0.791,5.25,-5.68,3.05,4,5
18997.734,-0.557,0.205,0.818,3.75,-2.32,5.83,4,5
18997.734,-0.574,0.226,0.839,0.09,-1.77,9.95,4,5
18997.75,-0.581,0.216,0.843,-3.85,-3.91,13.21,4,5
18997.75,-0.576,0.199,0.839,-5.31,-7.11,15.32,4,5
18997.765,-0.558,0.204,0.834,-2.69,-10.01,15.93,4,5
18997.781,-0.556,0.212,0.824,2.2,-11.87,15.44,4,5
18997.781,-0.537,0.215,0.807,5.28,-12.73,15.63,4,5
18997.796,-0.514,0.22,0.801,6.1,-12.18,15.87,4,5
18997.812,-0.498,0.22,0.804,6.84,-10.53,16.36,4,5
18997.812,-0.484,0.223,0.819,8.0,-9.09,17.06,4,5
18997.828,-0.48,0.225,0.823,8.82,-9.13,16.94,4,5
18997.843,-0.486,0.223,0.828,9.8,-10.74,14.77,4,5
18997.843,-0.494,0.239,0.841,12.48,-14.25,11.38,4,5
18997.859,-0.518,0.279,0.851,17.33,-19.01,7.11,4,5
18997.859,-0.559,0.313,0.835,23.01,-22.52,2.9,4,5
18997.875,-0.586,0.337,0.809,26.86,-24.35,1.04,4,5
18997.89,-0.598,0.37,0.778,22.37,-24.69,7.45,4,5
18997.89,-0.579,0.394,0.763,15.96,-21.64,11.57,4,5
18997.906,-0.552,0.411,0.764,12.97,-18.07,14.92,4,5
18997.921,-0.563,0.385,0.762,13.46,-17.0,18.43,4,5
18997.921,-0.522,0.365,0.748,16.6,-16.69,19.99,4,5
18997.937,-0.514,0.37,0.74,20.33,-16.91,18.25,4,5
18997.953,-0.511,0.377,0.731,24.54,-18.04,14.44,4,5
18997.968,-0.501,0.394,0.736,30.06,-19.17,9.22,4,5
18997.968,-0.504,0.424,0.735,38.3,-20.08,2.53,4,5
18997.984,-0.52,0.471,0.725,46.72,-20.75,-3.33,4,5
18997.984,-0.526,0.508,0.72,53.35,-21.06,-5.98,4,5
18998.0,-0.514,0.545,0.707,59.02,-20.51,-5.52,4,5
18998.015,-0.503,0.583,0.695,62.65,-17.88,-2.26,4,5
18998.015,-0.496,0.619,0.683,62.04,-13.21,4.03,4,5
18998.031,-0.505,0.653,0.685,56.67,-7.66,11.75,4,5
18998.031,-0.523,0.668,0.704,50.94,-2.29,20.66,4,5
18998.046,-0.541,0.676,0.73,47.46,1.77,30.09,4,5
18998.062,-0.561,0.674,0.753,48.28,3.33,38.85,4,5
18998.062,-0.574,0.659,0.739,53.53,2.69,46.27,4,5
18998.078,-0.58,0.657,0.713,58.57,1.89,51.64,4,5
18998.093,-0.584,0.647,0.689,60.3,2.04,56.37,4,5
18998.093,-0.586,0.63,0.669,57.8,4.58,61.71,4,5
18998.109,-0.564,0.628,0.67,52.43,9.0,68.54,4,5
18998.109,-0.552,0.649,0.694,44.83,16.63,77.79,4,5
18998.125,-0.582,0.658,0.742,34.33,24.54,88.26,4,5
18998.14,-0.596,0.665,0.802,24.54,28.47,100.53,4,5
18998.156,-0.602,0.655,0.833,17.79,27.95,113.01,4,5
18998.156,-0.589,0.624,0.832,12.33,24.75,122.68,4,5
18998.171,-0.565,0.579,0.812,8.61,21.18,128.73,4,5
18998.187,-0.534,0.537,0.792,8.3,19.01,131.2,4,5
18998.187,-0.506,0.502,0.771,11.38,18.43,129.58,4,5
18998.203,-0.481,0.476,0.771,15.41,19.5,124.61,4,5
18998.203,-0.47,0.475,0.782,19.2,21.79,117.83,4,5
18998.218,-0.478,0.483,0.804,22.19,24.23,109.68,4,5
18998.234,-0.489,0.478,0.83,24.9,24.17,101.9,4,5
18998.234,-0.484,0.491,0.853,29.36,21.24,95.13,4,5
18998.25,-0.475,0.516,0.866,37.26,16.69,89.94,4,5
18998.265,-0.462,0.534,0.855,44.43,10.96,85.73,4,5
18998.265,-0.446,0.556,0.839,45.93,5.83,80.84,4,5
18998.281,-0.435,0.558,0.816,47.0,2.5,76.39,4,5
18998.281,-0.422,0.567,0.776,48.52,1.1,72.94,4,5
18998.296,-0.402,0.579,0.741,48.92,2.47,70.44,4,5
18998.312,-0.385,0.601,0.717,47.09,6.56,68.42,4,5
18998.312,-0.391,0.631,0.716,43.34,11.32,66.74,4,5
18998.328,-0.414,0.653,0.738,39.19,14.16,66.47,4,5
18998.343,-0.424,0.659,0.755,35.62,14.56,68.18,4,5
18998.343,-0.414,0.66,0.769,34.12,13.52,70.62,4,5
18998.359,-0.397,0.663,0.772,34.49,11.75,72.08,4,5
18998.359,-0.377,0.661,0.761,33.78,9.09,71.2,4,5
18998.375,-0.359,0.65,0.746,33.11,6.59,68.54,4,5
18998.39,-0.342,0.647,0.737,35.0,4.88,65.65,4,5
18998.39,-0.326,0.666,0.723,37.05,3.78,62.78,4,5
18998.406,-0.31,0.685,0.724,37.11,2.99,59.39,4,5
18998.421,-0.3,0.72,0.734,37.57,2.32,55.76,4,5
18998.421,-0.309,0.749,0.741,39.58,1.31,51.79,4,5
18998.437,-0.333,0.766,0.752,43.09,-0.89,48.4,4,5
18998.453,-0.339,0.779,0.738,48.62,-5.31,45.72,4,5
18998.453,-0.328,0.787,0.7,54.66,-10.32,43.49,4,5
18998.468,-0.298,0.789,0.658,58.78,-13.49,42.21,4,5
18998.484,-0.268,0.791,0.627,60.3,-13.49,40.83,4,5
18998.484,-0.253,0.797,0.617,60.88,-10.32,39.95,4,5
18998.5,-0.254,0.817,0.617,60.64,-6.2,40.35,4,5
18998.515,-0.253,0.834,0.625,58.9,-2.66,42.02,4,5
18998.515,-0.267,0.851,0.643,55.94,-0.64,44.53,4,5
18998.531,-0.268,0.853,0.658,53.01,-0.89,47.85,4,5
18998.531,-0.259,0.848,0.662,51.48,-2.69,51.06,4,5
18998.546,-0.237,0.841,0.649,51.39,-4.88,52.95,4,5
18998.562,-0.217,0.84,0.635,50.84,-6.56,53.53,4,5
18998.578,-0.195,0.838,0.627,50.45,-7.11,53.1,4,5
18998.578,-0.192,0.843,0.621,51.27,-5.92,52.16,4,5
18998.578,-0.2,0.849,0.603,52.34,-4.49,51.73,4,5
18998.593,-0.196,0.858,0.599,51.21,-3.3,52.34,4,5
18998.609,-0.195,0.855,0.599,49.56,-2.17,53.13,4,5
18998.625,-0.2,0.848,0.6,48.13,-1.56,54.35,4,5
18998.625,-0.191,0.847,0.613,46.27,-2.62,56.09,4,5
18998.64,-0.172,0.844,0.611,43.34,-5.22,57.22,4,5
18998.64,-0.152,0.826,0.61,40.62,-7.6,57.56,4,5
18998.656,-0.164,0.775,0.59,40.62,-9.58,58.41,4,5
18998.671,-0.095,0.831,0.583,43.61,-9.55,58.17,4,5
18998.671,-0.209,0.704,0.525,47.55,-11.81,60.12,4,5
18998.687,-0.077,0.834,0.504,46.51,-14.77,55.91,4,5
18998.703,-0.093,0.786,0.505,40.41,-9.58,49.62,4,5
18998.703,-0.112,0.751,0.531,36.32,-4.55,47.18,4,5
18998.718,-0.109,0.785,0.55,36.44,-4.0,46.11,4,5
18998.734,-0.103,0.793,0.558,36.9,-4.55,45.59,4,5
18998.734,-0.114,0.787,0.551,36.93,-6.93,46.51,4,5
18998.75,-0.112,0.791,0.53,36.93,-10.62,47.88,4,5
18998.765,-0.096,0.781,0.501,35.71,-13.34,49.01,4,5
18998.765,-0.083,0.764,0.481,33.57,-15.2,49.17,4,5
18998.781,-0.062,0.758,0.462,32.38,-15.72,49.1,4,5
18998.796,-0.032,0.751,0.444,31.59,-14.95,47.7,4,5
18998.796,-0.011,0.75,0.435,31.62,-13.03,44.47,4,5
18998.812,0.0,0.76,0.428,32.69,-10.59,40.74,4,5
18998.812,-0.005,0.772,0.43,32.72,-8.79,36.29,4,5
18998.828,-0.014,0.778,0.443,33.05,-8.45,32.53,4,5
18998.843,-0.019,0.798,0.449,34.21,-9.37,29.97,4,5
18998.843,-0.015,0.82,0.445,34.09,-11.96,27.62,4,5
18998.859,0.001,0.827,0.445,33.27,-15.66,25.7,4,5
18998.875,0.022,0.833,0.432,34.0,-19.38,23.93,4,5
18998.875,0.037,0.851,0.407,34.79,-23.38,19.93,4,5
18998.89,0.043,0.865,0.38,34.79,-23.41,18.19,4,5
18998.89,0.04,0.869,0.363,36.16,-22.52,17.4,4,5
18998.906,0.048,0.893,0.322,36.99,-20.94,17.52,4,5
18998.921,0.056,0.905,0.311,36.16,-18.52,17.94,4,5
18998.921,0.052,0.909,0.314,33.94,-16.24,20.08,4,5
18998.937,0.056,0.909,0.311,32.04,-14.89,23.44,4,5
18998.953,0.058,0.911,0.302,31.04,-13.34,27.1,4,5
18998.953,0.057,0.918,0.284,28.69,-11.96,30.88,4,5
18998.968,0.073,0.908,0.274,23.87,-10.74,34.73,4,5
18998.984,0.07,0.901,0.281,18.74,-8.64,38.79,4,5
18998.984,0.061,0.895,0.287,15.66,-6.26,43.67,4,5
18999.0,0.07,0.9,0.286,13.0,-4.67,49.41,4,5
18999.0,0.08,0.913,0.295,8.64,-4.49,54.72,4,5
18999.015,0.08,0.904,0.316,5.46,-6.32,59.54,4,5
18999.031,0.088,0.897,0.303,4.64,-9.77,64.79,4,5
18999.031,0.125,0.889,0.265,1.59,-14.4,68.58,4,5
18999.046,0.173,0.859,0.233,-0.49,-17.88,69.03,4,5
18999.062,0.215,0.838,0.202,0.98,-18.74,65.4,4,5
18999.062,0.238,0.83,0.183,4.39,-16.45,58.5,4,5
18999.078,0.239,0.829,0.181,8.03,-12.05,50.75,4,5
18999.093,0.23,0.843,0.191,10.53,-7.32,43.37,4,5
18999.093,0.216,0.871,0.234,11.44,-3.54,37.05,4,5
18999.109,0.193,0.89,0.269,12.54,-2.96,32.14,4,5
18999.109,0.195,0.913,0.296,12.88,-5.86,28.96,4,5
18999.125,0.206,0.928,0.301,14.68,-9.77,27.1,4,5
18999.14,0.216,0.935,0.299,17.21,-13.34,24.81,4,5
18999.156,0.225,0.936,0.288,19.68,-16.27,23.1,4,5
18999.156,0.243,0.941,0.263,21.85,-18.43,21.39,4,5
18999.171,0.26,0.94,0.24,23.29,-19.56,19.07,4,5
18999.171,0.273,0.928,0.221,24.11,-19.1,16.02,4,5
18999.187,0.293,0.921,0.206,26.7,-17.73,12.45,4,5
18999.203,0.301,0.928,0.198,30.37,-15.66,8.51,4,5
18999.203,0.3,0.945,0.205,33.75,-13.43,4.18,4,5
18999.218,0.296,0.955,0.207,35.68,-12.51,0.73,4,5
18999.234,0.305,0.971,0.214,35.68,-12.82,-1.13,4,5
18999.234,0.3,0.984,0.223,35.43,-13.46,-1.98,4,5
18999.25,0.293,0.992,0.227,34.88,-14.89,-2.04,4,5
18999.25,0.291,0.991,0.23,34.73,-16.6,-1.43,4,5
18999.265,0.296,0.997,0.235,36.32,-18.62,-0.12,4,5
18999.281,0.298,1.006,0.227,39.77,-20.48,0.76,4,5
18999.281,0.282,1.012,0.213,41.57,-22.0,1.98,4,5
18999.296,0.276,1.012,0.197,41.69,-23.16,3.88,4,5
18999.312,0.262,1.003,0.182,40.28,-23.53,6.65,4,5
18999.312,0.267,0.992,0.161,38.51,-23.22,9.89,4,5
18999.328,0.27,0.979,0.138,36.84,-21.85,12.45,4,5
18999.343,0.28,0.97,0.125,35.28,-19.04,14.8,4,5
18999.343,0.285,0.97,0.119,33.36,-15.99,16.27,4,5
18999.359,0.28,0.964,0.118,31.74,-12.91,16.94,4,5
18999.375,0.269,0.955,0.121,30.03,-10.59,17.43,4,5
18999.375,0.268,0.944,0.123,28.75,-9.83,17.82,4,5
18999.39,0.276,0.926,0.124,28.9,-9.64,17.76,4,5
18999.39,0.282,0.923,0.13,30.37,-9.0,17.0,4,5
18999.406,0.275,0.924,0.13,32.41,-8.82,15.87,4,5
18999.421,0.278,0.924,0.123,32.87,-9.67,15.69,4,5
18999.421,0.292,0.923,0.107,31.77,-10.62,15.93,4,5
18999.437,0.301,0.919,0.11,29.82,-10.38,16.33,4,5
18999.453,0.282,0.917,0.12,28.9,-10.56,17.24,4,5
18999.453,0.279,0.912,0.115,28.99,-12.39,20.33,4,5
18999.468,0.286,0.906,0.097,28.57,-14.28,23.59,4,5
18999.484,0.295,0.897,0.073,25.73,-15.2,25.15,4,5
18999.484,0.293,0.874,0.057,21.52,-14.71,25.09,4,5
18999.5,0.29,0.848,0.046,19.2,-13.73,24.57,4,5
18999.5,0.291,0.832,0.021,19.29,-13.21,23.99,4,5
18999.515,0.307,0.829,0.009,18.86,-11.72,23.53,4,5
18999.531,0.309,0.828,0.014,18.98,-9.28,21.97,4,5
18999.546,0.287,0.827,0.039,20.33,-7.26,21.03,4,5
18999.546,0.282,0.838,0.048,21.97,-7.17,21.03,4,5
18999.562,0.285,0.846,0.045,23.65,-8.03,21.45,4,5
18999.562,0.283,0.838,0.031,23.53,-9.0,22.0,4,5
18999.578,0.287,0.834,0.019,21.33,-9.52,22.89,4,5
18999.593,0.288,0.826,0.014,18.49,-9.22,23.8,4,5
18999.593,0.301,0.819,0.012,16.05,-8.45,24.69,4,5
18999.609,0.313,0.821,0.005,14.77,-7.14,25.03,4,5
18999.609,0.32,0.821,0.001,13.12,-5.4,24.81,4,5
18999.625,0.324,0.82,-0.001,11.41,-4.21,24.02,4,5
18999.64,0.338,0.823,0.011,11.66,-3.72,23.04,4,5
18999.64,0.349,0.829,0.012,14.22,-3.45,21.85,4,5
18999.656,0.354,0.83,0.004,15.96,-3.42,20.29,4,5
18999.671,0.347,0.825,0.002,15.87,-3.02,18.62,4,5
18999.687,0.343,0.82,-0.003,15.72,-2.96,17.49,4,5
18999.687,0.352,0.819,-0.015,15.69,-2.93,16.66,4,5
18999.703,0.356,0.826,-0.027,14.71,-2.47,15.44,4,5
18999.703,0.35,0.834,-0.024,13.67,-2.41,14.01,4,5
18999.718,0.36,0.833,-0.022,15.05,-3.08,13.31,4,5
18999.734,0.37,0.841,-0.031,17.61,-2.81,13.52,4,5
18999.734,0.373,0.843,-0.047,18.89,-2.26,13.79,4,5
18999.75,0.385,0.841,-0.05,18.1,-1.68,14.25,4,5
18999.75,0.382,0.83,-0.042,16.69,-0.03,14.47,4,5
18999.765,0.379,0.82,-0.039,15.66,0.82,14.59,4,5
18999.781,0.394,0.813,-0.048,15.29,0.73,14.68,4,5
18999.781,0.413,0.81,-0.05,14.68,0.58,14.71,4,5
18999.796,0.422,0.808,-0.057,14.28,0.76,13.58,4,5
18999.812,0.424,0.805,-0.059,14.01,1.22,12.21,4,5
18999.812,0.43,0.808,-0.056,14.01,1.56,11.29,4,5
18999.828,0.432,0.818,-0.049,14.77,1.86,10.25,4,5
18999.843,0.424,0.816,-0.045,15.44,2.29,9.52,4,5
18999.843,0.416,0.822,-0.04,14.71,2.69,9.43,4,5
18999.859,0.415,0.822,-0.034,9.28,1.13,11.05,4,5
18999.859,0.42,0.815,-0.028,7.93,0.03,11.84,4,5
18999.875,0.427,0.817,-0.026,8.0,-1.19,11.69,4,5
18999.89,0.43,0.82,-0.031,7.23,-2.01,10.99,4,5
18999.89,0.429,0.807,-0.043,6.23,-3.02,10.41,4,5
18999.906,0.437,0.795,-0.053,5.43,-3.27,10.19,4,5
18999.921,0.451,0.783,-0.062,4.21,-2.66,9.98,4,5
18999.921,0.459,0.782,-0.055,3.78,-1.56,8.7,4,5
18999.937,0.459,0.785,-0.047,5.1,-0.52,5.62,4,5
18999.953,0.444,0.793,-0.047,7.39,-0.09,2.01,4,5
18999.953,0.423,0.809,-0.044,9.4,-0.64,-1.1,4,5
18999.968,0.405,0.822,-0.043,11.08,-1.89,-2.87,4,5
18999.984,0.402,0.821,-0.056,11.51,-3.81,-3.48,4,5
18999.984,0.406,0.821,-0.072,10.8,-5.25,-4.18,4,5
19000.0,0.4,0.817,-0.086,10.41,-5.83,-5.74,4,5
19000.015,0.396,0.812,-0.102,11.02,-5.74,-7.93,4,5
19000.015,0.402,0.815,-0.112,12.67,-5.4,-11.23,4,5
19000.031,0.414,0.824,-0.113,15.38,-5.31,-15.63,4,5
19000.031,0.423,0.831,-0.111,19.38,-5.55,-20.45,4,5
19000.046,0.425,0.834,-0.105,24.57,-5.37,-24.84,4,5
19000.062,0.417,0.849,-0.108,28.6,-5.04,-28.11,4,5
19000.062,0.413,0.862,-0.11,29.3,-5.46,-30.37,4,5
19000.078,0.415,0.873,-0.105,27.71,-6.13,-31.53,4,5
19000.093,0.414,0.887,-0.096,25.76,-6.74,-31.34,4,5
19000.093,0.422,0.898,-0.101,24.29,-8.06,-29.63,4,5
19000.109,0.434,0.912,-0.109,23.32,-9.34,-26.89,4,5
19000.109,0.435,0.921,-0.127,22.31,-9.58,-23.35,4,5
19000.125,0.431,0.919,-0.145,19.59,-8.61,-19.04,4,5
19000.14,0.424,0.915,-0.152,15.29,-7.26,-14.19,4,5
19000.156,0.428,0.914,-0.156,11.69,-5.68,-9.31,4,5
19000.156,0.449,0.922,-0.161,9.4,-4.27,-5.16,4,5
19000.171,0.455,0.922,-0.162,7.63,-2.78,-2.2,4,5
19000.171,0.452,0.914,-0.158,6.23,-0.82,0.4,4,5
19000.187,0.444,0.91,-0.16,5.1,1.04,3.72,4,5
19000.203,0.439,0.901,-0.16,2.84,2.69,7.29,4,5
19000.203,0.436,0.887,-0.142,-0.31,3.94,10.38,4,5
19000.218,0.438,0.881,-0.129,-2.2,4.15,12.27,4,5
19000.234,0.438,0.88,-0.117,-1.83,3.33,12.63,4,5
19000.234,0.44,0.875,-0.115,-0.15,1.74,12.15,4,5
19000.25,0.447,0.873,-0.123,1.1,-0.09,11.26,4,5
19000.25,0.451,0.865,-0.139,1.95,-0.92,10.5,4,5
19000.265,0.455,0.865,-0.149,1.71,-0.7,9.64,4,5
19000.281,0.442,0.857,-0.149,1.22,0.95,8.85,4,5
19000.281,0.426,0.854,-0.152,0.52,2.41,8.51,4,5
19000.296,0.411,0.854,-0.147,-1.13,3.54,8.36,4,5
19000.312,0.406,0.852,-0.137,-2.93,4.06,9.09,4,5
19000.312,0.408,0.86,-0.126,-4.7,3.57,10.38,4,5
19000.328,0.402,0.861,-0.119,-7.63,2.56,11.99,4,5
19000.343,0.406,0.857,-0.117,-10.65,0.76,14.01,4,5
19000.343,0.419,0.848,-0.121,-12.57,-0.85,16.02,4,5
19000.359,0.423,0.833,-0.128,-13.15,-1.62,17.58,4,5
19000.359,0.424,0.822,-0.138,-12.85,-1.46,18.49,4,5
19000.375,0.429,0.807,-0.144,-11.75,-0.4,18.8,4,5
19000.39,0.437,0.797,-0.146,-8.85,1.43,18.37,4,5
19000.39,0.441,0.794,-0.147,-5.28,3.63,16.94,4,5
19000.406,0.443,0.802,-0.14,-3.69,5.95,14.53,4,5
19000.421,0.433,0.815,-0.122,-4.61,7.11,11.6,4,5
19000.421,0.419,0.814,-0.104,-5.89,6.68,8.79,4,5
19000.437,0.415,0.812,-0.09,-6.04,5.19,6.35,4,5
19000.453,0.411,0.818,-0.084,-5.46,3.51,4.61,4,5
19000.453,0.408,0.818,-0.084,-5.31,2.14,3.51,4,5
19000.468,0.405,0.818,-0.092,-6.13,1.46,2.56,4,5
19000.468,0.409,0.817,-0.093,-7.93,1.25,1.8,4,5
19000.484,0.417,0.817,-0.096,-8.48,1.16,0.67,4,5
19000.5,0.433,0.824,-0.106,-7.66,1.07,-1.43,4,5
19000.5,0.447,0.836,-0.111,-7.32,1.22,-4.43,4,5
19000.515,0.444,0.842,-0.109,-6.29,1.22,-8.0,4,5
19000.531,0.442,0.854,-0.102,-4.24,0.34,-10.77,4,5
19000.531,0.438,0.874,-0.098,-1.95,-0.95,-11.87,4,5
19000.546,0.438,0.884,-0.097,-0.43,-2.75,-11.69,4,5
19000.562,0.441,0.892,-0.104,-0.21,-4.27,-11.11,4,5
19000.562,0.451,0.904,-0.113,-1.5,-5.37,-10.25,4,5
19000.578,0.458,0.912,-0.115,-3.81,-5.65,-9.46,4,5
19000.593,0.46,0.916,-0.113,-5.74,-5.34,-9.0,4,5
19000.593,0.45,0.913,-0.113,-5.68,-4.82,-8.51,4,5
19000.609,0.45,0.909,-0.119,-4.3,-4.64,-8.06,4,5
19000.609,0.448,0.903,-0.124,-2.11,-4.33,-8.55,4,5
19000.625,0.445,0.899,-0.13,0.09,-4.27,-9.74,4,5
19000.64,0.45,0.893,-0.132,1.16,-4.73,-10.8,4,5
19000.656,0.451,0.881,-0.132,2.17,-4.76,-11.35,4,5
19000.656,0.451,0.887,-0.139,3.66,-5.25,-11.78,4,5
19000.671,0.444,0.884,-0.148,4.46,-5.49,-11.87,4,5
19000.671,0.437,0.883,-0.148,3.57,-5.52,-11.26,4,5
19000.687,0.427,0.888,-0.152,2.66,-5.31,-10.53,4,5
19000.703,0.419,0.882,-0.16,1.65,-5.25,-9.25,4,5
19000.703,0.426,0.885,-0.156,0.03,-4.88,-7.66,4,5
19000.718,0.428,0.883,-0.16,0.24,-4.03,-6.29,4,5
19000.734,0.432,0.89,-0.161,0.73,-2.81,-4.36,4,5
19000.734,0.431,0.9,-0.157,0.03,-1.62,-2.5,4,5
19000.75,0.429,0.897,-0.146,-1.65,-0.31,-0.06,4,5
19000.75,0.427,0.895,-0.14,-4.3,0.73,2.93,4,5
19000.765,0.438,0.88,-0.142,-7.54,1.04,5.89,4,5
19000.781,0.445,0.855,-0.143,-9.55,1.89,8.0,4,5
19000.781,0.44,0.847,-0.143,-10.35,3.51,9.09,4,5
19000.796,0.43,0.844,-0.141,-11.14,5.16,9.43,4,5
19000.812,0.431,0.841,-0.135,-12.15,6.35,9.58,4,5
19000.812,0.432,0.845,-0.123,-12.57,7.63,9.52,4,5
19000.828,0.425,0.846,-0.103,-12.21,8.61,9.28,4,5
19000.843,0.424,0.845,-0.082,-12.12,8.33,9.16,4,5
19000.843,0.436,0.845,-0.077,-11.96,4.88,7.81,4,5
19000.859,0.448,0.848,-0.065,-10.25,2.69,5.68,4,5
19000.875,0.449,0.845,-0.057,-7.39,0.49,3.69,4,5
19000.875,0.453,0.85,-0.066,-5.13,-0.95,2.11,4,5
19000.89,0.447,0.855,-0.075,-4.91,-1.62,0.52,4,5
19000.89,0.44,0.85,-0.077,-5.49,-1.74,-0.61,4,5
19000.906,0.443,0.856,-0.088,-5.65,-1.8,-0.79,4,5
19000.921,0.449,0.86,-0.098,-6.07,-1.13,-1.16,4,5
19000.937,0.455,0.864,-0.098,-6.65,-0.24,-2.35,4,5
19000.937,0.45,0.872,-0.094,-5.65,0.67,-3.63,4,5
19000.953,0.442,0.884,-0.083,-3.42,1.31,-4.64,4,5
19000.953,0.43,0.903,-0.074,-2.08,0.92,-5.16,4,5
19000.968,0.43,0.91,-0.071,-1.89,-0.61,-4.82,4,5
19000.984,0.423,0.92,-0.069,-2.5,-2.17,-4.06,4,5
19000.984,0.426,0.916,-0.071,-3.48,-3.45,-2.32,4,5
19001.0,0.43,0.917,-0.081,-4.55,-4.46,-0.43,4,5
19001.015,0.428,0.909,-0.091,-5.13,-4.94,0.7,4,5
19001.015,0.439,0.907,-0.097,-5.65,-5.01,0.92,4,5
19001.031,0.438,0.903,-0.101,-5.07,-4.55,0.4,4,5
19001.031,0.435,0.9,-0.105,-2.99,-3.48,-0.43,4,5
19001.046,0.433,0.907,-0.107,-1.5,-2.29,-0.82,4,5
19001.062,0.424,0.908,-0.104,-1.31,-1.1,-0.73,4,5
19001.062,0.419,0.906,-0.095,-2.35,-0.12,-0.06,4,5
19001.078,0.415,0.909,-0.083,-3.17,0.27,0.73,4,5
19001.093,0.412,0.905,-0.074,-3.72,-0.31,1.34,4,5
19001.093,0.42,0.9,-0.066,-3.51,-2.01,1.74,4,5
19001.109,0.433,0.897,-0.072,-1.59,-3.57,1.53,4,5
19001.125,0.433,0.898,-0.084,0.24,-4.3,0.73,4,5
19001.125,0.428,0.9,-0.087,0.49,-4.49,-0.12,4,5
19001.14,0.422,0.897,-0.088,0.43,-4.24,-0.55,4,5
19001.14,0.421,0.894,-0.093,0.46,-3.75,-0.37,4,5
19001.156,0.425,0.897,-0.09,0.43,-2.62,-0.09,4,5
19001.171,0.417,0.897,-0.085,0.06,-1.59,0.12,4,5
19001.171,0.407,0.889,-0.083,-0.31,-1.19,0.4,4,5
19001.187,0.408,0.887,-0.079,-0.43,-1.5,0.58,4,5
19001.203,0.413,0.886,-0.082,-0.18,-2.17,0.82,4,5
19001.203,0.417,0.886,-0.081,-0.24,-2.81,0.92,4,5
19001.218,0.419,0.877,-0.084,-0.27,-3.2,0.85,4,5
19001.234,0.419,0.879,-0.089,0.15,-2.69,0.82,4,5
19001.234,0.412,0.881,-0.095,0.21,-1.71,0.7,4,5
19001.25,0.402,0.882,-0.089,-0.4,-0.92,0.79,4,5
19001.25,0.397,0.882,-0.084,-1.07,-0.7,1.22,4,5
19001.265,0.403,0.874,-0.085,-1.71,-0.7,1.77,4,5
19001.281,0.414,0.87,-0.091,-2.32,-0.27,1.95,4,5
19001.281,0.42,0.871,-0.09,-3.36,0.4,2.04,4,5
19001.296,0.425,0.872,-0.084,-4.18,1.25,2.2,4,5
19001.312,0.422,0.875,-0.079,-4.61,1.62,2.23,4,5
19001.312,0.424,0.878,-0.072,-4.76,1.01,2.38,4,5
19001.328,0.43,0.877,-0.071,-4.21,-0.18,2.53,4,5
19001.343,0.438,0.872,-0.078,-3.05,-1.13,2.59,4,5
19001.343,0.437,0.87,-0.084,-2.38,-1.07,2.66,4,5
19001.359,0.44,0.861,-0.094,-2.93,-0.92,2.96,4,5
19001.359,0.45,0.858,-0.098,-3.88,-0.34,3.42,4,5
19001.375,0.459,0.858,-0.091,-4.73,0.79,3.2,4,5
19001.39,0.451,0.857,-0.08,-5.04,1.95,2.17,4,5
19001.39,0.441,0.857,-0.071,-4.97,1.95,1.28,4,5
19001.406,0.442,0.854,-0.066,-4.43,1.19,0.58,4,5
19001.421,0.448,0.854,-0.069,-2.93,0.46,-0.21,4,5
19001.421,0.452,0.859,-0.074,-1.65,-0.46,-1.53,4,5
19001.437,0.457,0.862,-0.072,-0.95,-0.85,-2.87,4,5
19001.453,0.455,0.871,-0.066,-0.06,-1.4,-3.97,4,5
19001.453,0.453,0.882,-0.067,1.25,-2.11,-4.3,4,5
19001.468,0.442,0.892,-0.067,1.83,-2.81,-3.94,4,5
19001.468,0.437,0.896,-0.071,1.13,-3.97,-2.9,4,5
19001.484,0.441,0.892,-0.083,0.15,-4.94,-1.28,4,5
19001.5,0.447,0.884,-0.096,-1.01,-4.58,0.27,4,5
19001.5,0.451,0.872,-0.102,-2.01,-3.11,1.62,4,5
19001.515,0.454,0.862,-0.1,-2.5,-0.92,2.78,4,5
19001.531,0.447,0.856,-0.091,-3.17,1.4,3.36,4,5
19001.531,0.435,0.851,-0.072,-4.3,2.59,3.08,4,5
19001.546,0.428,0.842,-0.059,-4.67,2.2,2.47,4,5
19001.562,0.429,0.84,-0.054,-4.0,1.19,1.89,4,5
19001.562,0.426,0.843,-0.054,-3.45,0.46,1.25,4,5
19001.578,0.424,0.844,-0.054,-4.06,-0.82,0.58,4,5
19001.593,0.429,0.841,-0.055,-5.01,-1.89,0.15,4,5
19001.593,0.432,0.845,-0.056,-5.31,-2.35,-0.24,4,5
19001.609,0.433,0.849,-0.057,-5.04,-2.81,-1.01,4,5
19001.609,0.432,0.849,-0.061,-3.81,-3.33,-1.86,4,5
19001.625,0.423,0.854,-0.066,-2.78,-3.39,-2.69,4,5
19001.64,0.418,0.86,-0.075,-2.62,-3.42,-3.42,4,5
19001.64,0.419,0.866,-0.076,-3.05,-3.14,-4.24,4,5
19001.656,0.412,0.871,-0.077,-2.99,-2.32,-5.04,4,5
19001.671,0.412,0.879,-0.075,-2.84,-1.95,-5.37,4,5
19001.671,0.419,0.893,-0.071,-3.11,-1.65,-5.58,4,5
19001.687,0.435,0.904,-0.068,-3.81,-1.95,-5.95,4,5
19001.703,0.444,0.91,-0.06,-4.15,-2.66,-6.68,4,5
19001.703,0.449,0.914,-0.055,-2.9,-3.81,-7.78,4,5
