timestamp,ax,ay,az,gx,gy,gz,orient_label,motion_label
19001.718,0.454,0.92,-0.062,-0.09,-4.61,-9.0,4,5
19001.718,0.449,0.928,-0.07,1.71,-4.49,-9.86,4,5
19001.734,0.44,0.931,-0.073,2.01,-4.67,-10.93,4,5
19001.75,0.436,0.928,-0.072,2.47,-5.19,-11.84,4,5
19001.765,0.438,0.935,-0.068,4.39,-5.65,-12.3,4,5
19001.765,0.43,0.944,-0.071,6.74,-6.1,-12.24,4,5
19001.781,0.422,0.946,-0.075,7.75,-6.23,-10.96,4,5
19001.781,0.422,0.949,-0.081,6.62,-5.62,-8.67,4,5
19001.796,0.421,0.954,-0.084,4.03,-5.07,-5.8,4,5
19001.812,0.426,0.957,-0.075,0.34,-4.76,-2.56,4,5
19001.828,0.428,0.954,-0.065,-1.8,-4.67,0.09,4,5
19001.828,0.422,0.945,-0.07,-1.5,-3.51,4.82,4,5
19001.843,0.413,0.931,-0.082,-2.81,-3.11,6.29,4,5
19001.843,0.416,0.914,-0.084,-3.51,-2.78,6.78,4,5
19001.859,0.42,0.899,-0.08,-2.96,-2.23,6.35,4,5
19001.859,0.42,0.888,-0.065,-1.95,-2.04,5.68,4,5
19001.875,0.421,0.89,-0.061,-1.16,-2.29,4.91,4,5
19001.906,0.422,0.888,-0.052,-0.27,-3.66,3.75,4,5
19001.906,0.422,0.886,-0.055,0.31,-4.76,3.27,4,5
19001.921,0.423,0.891,-0.051,0.15,-5.49,2.59,4,5
19001.921,0.417,0.892,-0.052,0.43,-5.83,1.43,4,5
19001.937,0.406,0.891,-0.065,1.5,-6.23,0.37,4,5
19001.953,0.409,0.885,-0.078,1.89,-6.38,0.79,4,5
19001.953,0.415,0.885,-0.091,1.46,-5.92,2.14,4,5
19001.968,0.418,0.878,-0.101,0.58,-4.24,3.05,4,5
19001.968,0.418,0.868,-0.099,-0.52,-1.95,3.69,4,5
19001.984,0.415,0.87,-0.086,-1.07,0.15,4.27,4,5
19002.0,0.409,0.87,-0.073,-1.62,1.13,4.91,4,5
19002.0,0.41,0.865,-0.057,-2.04,0.89,6.01,4,5
19002.015,0.407,0.86,-0.053,-1.95,0.18,6.9,4,5
19002.031,0.402,0.844,-0.057,-1.86,-0.43,8.03,4,5
19002.031,0.405,0.837,-0.062,-2.01,-0.31,9.19,4,5
19002.046,0.402,0.821,-0.072,-3.02,0.82,10.47,4,5
19002.062,0.394,0.788,-0.067,-5.58,4.58,12.6,4,5
19002.078,0.381,0.762,-0.064,-5.1,6.87,13.28,4,5
19002.093,0.374,0.75,-0.062,-4.7,9.16,14.34,4,5
19002.093,0.362,0.728,-0.057,-5.01,11.99,15.11,4,5
19002.109,0.354,0.707,-0.053,-5.58,15.17,15.72,4,5
19002.109,0.338,0.688,-0.048,-5.19,18.49,15.44,4,5
19002.125,0.312,0.659,-0.043,-3.51,21.94,15.11,4,5
19002.14,0.279,0.645,-0.04,-0.31,24.35,14.37,4,5
19002.156,0.243,0.632,-0.044,4.39,25.76,12.94,4,5
19002.156,0.21,0.613,-0.054,9.61,27.31,11.35,4,5
19002.171,0.187,0.6,-0.073,15.63,30.34,9.28,4,5
19002.171,0.172,0.591,-0.085,21.97,36.1,6.96,4,5
19002.187,0.169,0.602,-0.086,28.32,44.8,4.61,4,5
19002.203,0.15,0.615,-0.076,34.0,55.73,2.04,4,5
19002.203,0.122,0.611,-0.07,38.06,66.71,2.2,4,5
19002.218,0.121,0.629,-0.083,38.64,76.3,6.53,4,5
19002.234,0.193,0.697,-0.024,25.33,97.51,21.49,4,5
19002.25,0.201,0.724,0.042,15.53,110.6,29.42,4,5
19002.25,0.161,0.732,0.112,5.95,124.06,38.0,4,5
19002.265,0.089,0.72,0.184,-2.38,136.11,47.98,4,5
19002.281,0.024,0.704,0.228,-9.31,144.38,58.78,4,5
19002.281,-0.023,0.662,0.223,-17.24,148.38,68.7,4,5
19002.296,-0.028,0.595,0.205,-26.83,150.82,77.39,4,5
19002.312,-0.007,0.539,0.178,-35.74,155.16,82.98,4,5
19002.328,0.004,0.509,0.152,-42.66,162.57,85.39,4,5
19002.328,0.011,0.479,0.144,-48.25,171.64,85.12,4,5
19002.343,0.003,0.447,0.131,-56.95,179.72,82.4,4,5
19002.343,0.017,0.421,0.139,-71.17,187.05,79.32,4,5
19002.359,0.04,0.396,0.179,-85.48,195.68,72.7,4,5
19002.359,0.056,0.343,0.229,-93.72,204.41,63.2,4,5
19002.375,0.064,0.294,0.269,-92.41,211.74,51.42,4,5
19002.39,0.054,0.276,0.312,-83.5,213.75,41.11,4,5
19002.39,0.006,0.305,0.359,-71.05,212.32,33.72,4,5
19002.406,0.031,0.328,0.365,-60.85,204.78,29.6,4,5
19002.421,0.068,0.344,0.315,-56.67,194.4,22.71,4,5
19002.421,0.128,0.362,0.295,-61.65,188.45,14.44,4,5
19002.437,0.242,0.365,0.299,-69.58,187.78,2.96,4,5
19002.453,0.329,0.367,0.3,-74.65,193.64,-11.78,4,5
19002.453,0.379,0.376,0.289,-76.91,204.72,-27.71,4,5
19002.468,0.406,0.365,0.288,-77.7,218.27,-42.54,4,5
19002.484,0.412,0.365,0.314,-77.55,233.62,-57.22,4,5
19002.484,0.368,0.387,0.364,-75.14,249.82,-73.61,4,5
19002.5,0.308,0.404,0.4,-71.75,261.12,-90.37,4,5
19002.5,0.274,0.426,0.459,-70.13,269.42,-106.48,4,5
19002.515,0.242,0.494,0.59,-69.95,275.64,-123.23,4,5
19002.531,0.205,0.609,0.724,-68.97,276.16,-138.1,4,5
19002.531,0.162,0.703,0.836,-63.57,269.05,-147.92,4,5
19002.546,0.135,0.779,0.915,-56.43,257.15,-150.43,4,5
19002.562,0.117,0.873,0.982,-52.13,244.18,-148.11,4,5
19002.562,0.071,0.96,1.032,-47.43,231.67,-145.82,4,5
19002.578,0.028,1.036,1.092,-42.63,218.36,-144.66,4,5
19002.593,0.01,1.113,1.162,-37.87,204.2,-143.44,4,5
19002.609,-0.009,1.209,1.233,-34.21,189.21,-141.09,4,5
19002.609,-0.027,1.278,1.302,-34.06,174.47,-133.49,4,5
19002.609,-0.045,1.306,1.341,-39.16,156.65,-119.88,4,5
19002.625,-0.059,1.301,1.331,-47.49,135.5,-102.11,4,5
19002.64,-0.065,1.286,1.31,-55.88,115.02,-82.25,4,5
19002.656,-0.06,1.267,1.279,-62.78,96.26,-63.78,4,5
19002.656,-0.047,1.213,1.236,-67.69,80.48,-48.62,4,5
19002.671,-0.046,1.151,1.185,-69.49,70.93,-36.62,4,5
19002.671,-0.07,1.077,1.133,-68.42,67.54,-26.7,4,5
19002.687,-0.114,1.005,1.098,-65.77,67.66,-19.14,4,5
19002.703,-0.159,0.98,1.08,-63.48,69.73,-13.03,4,5
19002.703,-0.207,0.965,1.082,-64.12,72.3,-8.03,4,5
19002.718,-0.244,0.953,1.122,-67.45,72.42,-3.27,4,5
19002.734,-0.252,0.895,1.199,-73.34,61.83,7.81,4,5
19002.75,-0.223,0.86,1.211,-73.18,56.0,14.37,4,5
19002.75,-0.213,0.811,1.219,-71.02,52.67,19.71,4,5
19002.765,-0.231,0.754,1.222,-64.94,50.63,24.69,4,5
19002.781,-0.253,0.714,1.212,-57.37,48.16,30.49,4,5
19002.781,-0.28,0.694,1.193,-52.71,44.56,36.53,4,5
19002.796,-0.307,0.681,1.176,-54.23,39.52,41.84,4,5
19002.812,-0.328,0.666,1.176,-70.77,22.83,51.15,4,5
19002.812,-0.34,0.637,1.17,-77.46,12.91,55.02,4,5
19002.828,-0.329,0.587,1.158,-78.89,5.68,56.89,4,5
19002.843,-0.307,0.556,1.135,-71.75,1.65,56.7,4,5
19002.843,-0.306,0.47,1.088,-57.07,-0.58,54.6,4,5
19002.859,-0.304,0.438,1.07,-40.04,-1.95,51.0,4,5
19002.875,-0.304,0.421,1.048,-24.96,-3.3,45.87,4,5
19002.875,-0.312,0.416,1.022,-14.92,-5.55,39.77,4,5
19002.89,-0.321,0.406,0.998,-9.8,-8.94,33.14,4,5
19002.906,-0.322,0.382,0.935,-7.48,-18.34,20.17,4,5
19002.921,-0.3,0.374,0.894,-5.89,-20.51,15.08,4,5
19002.921,-0.266,0.364,0.851,-2.04,-19.32,10.77,4,5
19002.937,-0.257,0.37,0.816,2.99,-14.37,6.13,4,5
19002.953,-0.268,0.388,0.799,7.45,-7.84,1.19,4,5
19002.953,-0.271,0.41,0.798,8.58,-2.04,-3.17,4,5
19002.968,-0.28,0.432,0.804,6.41,2.47,-7.48,4,5
19002.968,-0.29,0.447,0.813,2.69,5.92,-10.68,4,5
19002.984,-0.296,0.463,0.824,0.15,8.73,-11.63,4,5
19003.0,-0.295,0.461,0.834,-0.79,10.62,-10.53,4,5
19003.0,-0.307,0.462,0.85,-2.32,11.29,-8.45,4,5
19003.015,-0.309,0.453,0.856,-4.36,10.59,-5.92,4,5
19003.031,-0.3,0.445,0.851,-6.07,10.44,-3.88,4,5
19003.031,-0.294,0.428,0.839,-6.23,11.78,-2.9,4,5
19003.046,-0.303,0.422,0.84,-4.06,14.31,-2.35,4,5
19003.062,-0.32,0.434,0.848,0.03,15.9,-2.32,4,5
19003.078,-0.323,0.442,0.85,4.58,13.89,-4.88,4,5
19003.093,-0.326,0.454,0.858,4.76,12.27,-7.63,4,5
19003.093,-0.346,0.465,0.873,6.47,10.32,-9.95,4,5
19003.109,-0.375,0.482,0.894,9.55,6.71,-10.53,4,5
19003.109,-0.392,0.495,0.904,12.3,1.04,-9.06,4,5
19003.125,-0.393,0.515,0.898,11.93,-5.49,-7.02,4,5
19003.14,-0.384,0.524,0.884,7.72,-12.21,-5.4,4,5
19003.14,-0.366,0.512,0.857,1.65,-17.98,-4.43,4,5
19003.156,-0.345,0.493,0.829,-3.57,-21.12,-3.72,4,5
19003.171,-0.319,0.477,0.804,-6.07,-21.3,-3.36,4,5
19003.171,-0.297,0.459,0.784,-5.68,-18.49,-3.48,4,5
19003.187,-0.282,0.448,0.764,-2.93,-13.06,-4.18,4,5
19003.203,-0.282,0.447,0.757,-0.18,-6.38,-5.43,4,5
19003.203,-0.298,0.458,0.766,0.34,-0.46,-7.11,4,5
19003.218,-0.341,0.505,0.792,0.34,3.14,-7.2,4,5
19003.218,-0.372,0.545,0.827,0.76,3.33,-3.3,4,5
19003.25,-0.367,0.586,0.844,-5.55,-5.4,9.46,4,5
19003.265,-0.341,0.572,0.829,-11.23,-9.7,14.28,4,5
19003.265,-0.325,0.538,0.819,-15.11,-11.72,17.09,4,5
19003.281,-0.304,0.507,0.813,-16.08,-11.38,18.74,4,5
19003.281,-0.289,0.486,0.811,-15.81,-9.74,18.56,4,5
19003.296,-0.289,0.471,0.833,-14.4,-7.23,17.0,4,5
19003.312,-0.313,0.47,0.864,-10.74,-6.29,15.08,4,5
19003.312,-0.308,0.453,0.871,-5.34,-8.79,14.07,4,5
19003.328,-0.283,0.446,0.86,-1.4,-10.77,12.05,4,5
19003.343,-0.266,0.449,0.844,1.71,-10.25,9.19,4,5
19003.343,-0.258,0.439,0.832,5.4,-8.09,6.5,4,5
19003.359,-0.262,0.426,0.833,10.1,-5.46,4.49,4,5
19003.375,-0.267,0.43,0.846,16.79,-3.17,4.0,4,5
19003.375,-0.279,0.436,0.869,26.22,-1.5,4.58,4,5
19003.39,-0.25,0.415,0.849,38.51,-1.62,6.96,4,5
19003.39,-0.238,0.415,0.805,49.93,1.1,8.42,4,5
19003.421,-0.27,0.592,0.939,30.67,-10.13,5.19,4,5
19003.421,-0.207,0.532,0.892,26.95,-16.17,5.28,4,5
19003.437,-0.227,0.555,0.853,21.91,-16.42,3.17,4,5
19003.453,-0.219,0.598,0.818,15.35,-13.09,4.12,4,5
19003.453,-0.249,0.599,0.824,11.17,-8.79,5.13,4,5
19003.468,-0.319,0.565,0.844,11.2,-8.12,5.62,4,5
19003.484,-0.346,0.515,0.831,14.19,-13.37,7.69,4,5
19003.484,-0.326,0.488,0.805,18.07,-20.02,9.52,4,5
19003.5,-0.297,0.494,0.768,21.55,-24.63,8.76,4,5
19003.5,-0.289,0.517,0.744,22.13,-25.67,6.99,4,5
19003.515,-0.259,0.576,0.719,17.52,-25.03,6.84,4,5
19003.531,-0.139,0.535,0.679,17.52,-18.19,10.5,4,5
19003.531,-0.207,0.52,0.698,22.31,-6.78,10.1,4,5
19003.546,-0.237,0.588,0.778,17.7,0.0,13.67,4,5
19003.562,-0.225,0.609,0.793,13.18,1.83,18.56,4,5
19003.578,-0.246,0.549,0.777,11.32,1.19,19.87,4,5
19003.578,-0.259,0.545,0.776,5.74,-1.43,17.73,4,5
19003.593,-0.229,0.551,0.768,-0.52,-5.62,14.68,4,5
19003.593,-0.2,0.533,0.763,-4.43,-8.39,9.8,4,5
19003.609,-0.185,0.498,0.748,-3.3,-8.55,4.88,4,5
19003.625,-0.166,0.485,0.726,2.32,-6.07,1.25,4,5
19003.625,-0.147,0.508,0.72,9.52,-1.28,-1.16,4,5
19003.64,-0.147,0.518,0.721,17.94,4.73,-3.14,4,5
19003.64,-0.171,0.525,0.722,25.21,10.74,-4.76,4,5
19003.656,-0.225,0.552,0.74,29.18,14.53,-5.92,4,5
19003.671,-0.262,0.581,0.766,27.13,13.06,-5.55,4,5
19003.687,-0.259,0.6,0.794,17.7,6.87,-4.12,4,5
19003.687,-0.242,0.59,0.804,6.74,-0.37,-2.62,4,5
19003.703,-0.216,0.557,0.792,-1.22,-5.95,-0.18,4,5
19003.703,-0.187,0.531,0.773,-5.95,-8.12,1.83,4,5
19003.718,-0.178,0.504,0.756,-5.74,-7.23,2.47,4,5
19003.734,-0.182,0.473,0.742,-1.25,-4.67,1.77,4,5
19003.734,-0.187,0.459,0.734,5.49,-1.25,-0.06,4,5
19003.75,-0.172,0.41,0.682,23.04,7.63,-9.95,4,5
19003.765,-0.164,0.379,0.647,33.3,15.29,-19.07,4,5
19003.781,-0.208,0.357,0.634,46.3,25.3,-30.37,4,5
19003.781,-0.327,0.499,0.747,51.0,30.52,-40.62,4,5
19003.796,-0.343,0.726,0.878,51.52,16.27,-30.06,4,5
19003.812,-0.608,0.911,1.057,36.77,-12.76,-2.93,4,5
19003.812,-0.558,1.069,1.142,25.54,-38.91,22.49,4,5
19003.828,-0.193,0.709,0.804,12.36,-40.53,27.8,4,5
19003.843,-0.229,0.631,0.767,6.01,-33.75,26.18,4,5
19003.859,-0.278,0.605,0.763,5.04,-31.34,24.78,4,5
19003.859,-0.302,0.568,0.773,1.01,-33.14,22.46,4,5
19003.875,-0.273,0.61,0.759,-9.37,-38.97,18.25,4,5
19003.875,-0.201,0.598,0.701,-7.26,-39.83,18.89,4,5
19003.89,-0.252,0.612,0.672,2.53,-36.23,22.34,4,5
19003.89,-0.15,0.666,0.694,-7.29,-33.17,26.0,4,5
19003.906,-0.112,0.611,0.654,-15.69,-28.87,22.83,4,5
19003.921,-0.125,0.542,0.651,-16.79,-20.66,18.8,4,5
19003.937,-0.113,0.529,0.65,-12.45,-12.7,16.45,4,5
19003.937,-0.1,0.534,0.635,-6.78,-5.01,13.67,4,5
19003.953,-0.094,0.524,0.631,-2.93,2.53,9.31,4,5
19003.953,-0.107,0.519,0.629,-1.16,9.83,2.93,4,5
19003.968,-0.138,0.523,0.651,-1.8,15.87,-3.91,4,5
19003.984,-0.177,0.522,0.688,-3.05,18.62,-9.64,4,5
19003.984,-0.202,0.497,0.717,-3.08,17.94,-13.58,4,5
19004.0,-0.202,0.472,0.727,-0.27,16.3,-16.66,4,5
19004.0,-0.184,0.469,0.715,6.47,15.53,-19.71,4,5
19004.015,-0.161,0.459,0.675,15.81,17.88,-23.83,4,5
19004.031,-0.138,0.458,0.642,23.1,24.45,-30.52,4,5
19004.031,-0.126,0.471,0.612,27.68,34.88,-40.44,4,5
19004.046,-0.158,0.455,0.598,32.59,48.62,-52.28,4,5
19004.062,-0.352,0.586,0.691,35.95,58.84,-60.85,4,5
19004.062,-0.455,0.877,0.914,31.43,57.92,-51.24,4,5
19004.078,-0.608,1.131,1.064,25.85,40.56,-27.62,4,5
19004.093,-0.432,1.112,1.04,3.39,9.74,6.35,4,5
19004.093,-0.239,0.847,0.84,-21.79,-10.53,21.33,4,5
19004.109,-0.205,0.641,0.775,-32.93,-8.15,22.22,4,5
19004.125,-0.239,0.549,0.763,-26.0,-2.11,19.2,4,5
19004.125,-0.279,0.535,0.76,-12.97,-0.03,15.02,4,5
19004.14,-0.306,0.517,0.773,-4.21,-1.46,9.98,4,5
19004.14,-0.308,0.523,0.772,-0.58,-5.83,5.1,4,5
19004.156,-0.302,0.561,0.763,1.19,-10.13,2.47,4,5
19004.171,-0.351,0.628,0.776,-0.34,-14.71,2.32,4,5
19004.187,-0.242,0.601,0.748,-5.86,-20.6,8.3,4,5
19004.187,-0.241,0.528,0.68,-4.39,-19.47,8.67,4,5
19004.203,-0.269,0.583,0.705,-5.77,-14.8,8.51,4,5
19004.203,-0.214,0.582,0.705,-6.53,-13.34,10.62,4,5
19004.218,-0.191,0.564,0.68,-7.75,-10.47,9.89,4,5
19004.234,-0.183,0.558,0.672,-8.73,-4.39,8.3,4,5
19004.234,-0.196,0.568,0.68,-9.22,1.43,6.01,4,5
19004.25,-0.204,0.565,0.693,-9.77,5.13,3.69,4,5
19004.25,-0.215,0.562,0.719,-9.61,7.02,0.98,4,5
19004.265,-0.243,0.568,0.747,-7.48,7.35,-1.65,4,5
19004.281,-0.257,0.581,0.777,-5.04,4.43,-2.44,4,5
19004.281,-0.249,0.6,0.789,-4.18,-1.04,-1.77,4,5
19004.296,-0.227,0.608,0.78,-4.09,-5.71,-0.98,4,5
19004.312,-0.212,0.606,0.763,-4.7,-8.36,0.12,4,5
19004.312,-0.199,0.602,0.744,-5.74,-8.88,1.04,4,5
19004.328,-0.198,0.596,0.73,-6.81,-7.81,1.01,4,5
19004.343,-0.196,0.585,0.722,-8.12,-5.98,0.31,4,5
19004.343,-0.193,0.574,0.717,-8.97,-3.72,-0.85,4,5
19004.359,-0.208,0.575,0.725,-8.67,-1.4,-2.78,4,5
19004.359,-0.223,0.577,0.742,-8.61,-0.61,-4.64,4,5
19004.375,-0.222,0.574,0.754,-8.12,-1.31,-5.74,4,5
19004.39,-0.238,0.589,0.765,-5.31,-1.86,-6.2,4,5
19004.39,-0.254,0.599,0.766,-2.14,-3.33,-5.25,4,5
19004.406,-0.244,0.609,0.759,-1.22,-5.46,-3.23,4,5
19004.421,-0.233,0.614,0.745,-1.4,-5.95,-1.8,4,5
19004.421,-0.234,0.607,0.736,-1.98,-4.97,-1.04,4,5
19004.437,-0.237,0.601,0.737,-3.3,-3.78,-0.43,4,5
19004.453,-0.237,0.602,0.739,-5.01,-3.2,-0.21,4,5
19004.453,-0.238,0.595,0.743,-6.07,-2.87,-0.82,4,5
19004.468,-0.236,0.588,0.745,-6.81,-2.53,-1.92,4,5
19004.484,-0.236,0.586,0.745,-6.26,-2.23,-3.02,4,5
19004.484,-0.241,0.584,0.75,-4.18,-1.83,-4.21,4,5
19004.5,-0.251,0.593,0.762,-2.08,-1.71,-4.94,4,5
19004.5,-0.257,0.602,0.772,-1.01,-3.23,-4.79,4,5
19004.515,-0.25,0.6,0.775,-1.28,-5.37,-4.03,4,5
19004.531,-0.231,0.595,0.768,-1.74,-7.17,-3.05,4,5
19004.546,-0.216,0.59,0.757,-2.04,-7.39,-2.56,4,5
19004.546,-0.212,0.579,0.747,-1.74,-6.07,-2.93,4,5
19004.562,-0.215,0.569,0.745,-1.56,-4.58,-3.39,4,5
19004.562,-0.214,0.56,0.746,-1.92,-3.48,-4.15,4,5
19004.578,-0.219,0.562,0.751,-1.5,-2.41,-5.13,4,5
19004.593,-0.228,0.571,0.757,-0.58,-1.62,-5.92,4,5
19004.593,-0.233,0.58,0.771,0.43,-1.53,-6.13,4,5
19004.609,-0.23,0.576,0.772,1.4,-2.04,-5.98,4,5
19004.625,-0.223,0.576,0.764,2.53,-2.14,-5.77,4,5
19004.625,-0.223,0.578,0.762,3.17,-1.4,-6.23,4,5
19004.64,-0.225,0.573,0.761,2.41,-0.76,-7.39,4,5
19004.64,-0.229,0.564,0.762,1.13,-0.24,-8.42,4,5
19004.656,-0.231,0.553,0.762,1.53,0.43,-8.97,4,5
19004.671,-0.231,0.536,0.767,5.07,1.1,-9.03,4,5
19004.671,-0.229,0.519,0.771,11.35,2.04,-9.06,4,5
19004.687,-0.232,0.513,0.77,19.81,4.15,-10.16,4,5
19004.703,-0.261,0.491,0.785,32.53,6.47,-10.32,4,5
19004.703,-0.25,0.456,0.781,51.58,8.12,-9.89,4,5
19004.718,-0.227,0.383,0.779,80.54,12.24,-12.12,4,5
19004.734,-0.39,0.533,0.87,103.46,14.86,-21.55,4,5
19004.734,-0.379,0.783,0.908,108.58,9.28,-23.96,4,5
19004.75,-0.379,0.865,0.869,109.5,2.87,-20.08,4,5
19004.75,-0.349,0.895,0.78,95.46,-1.04,-15.47,4,5
19004.765,-0.342,0.94,0.707,72.97,4.18,-11.69,4,5
19004.781,-0.468,0.919,0.695,34.21,17.73,0.64,4,5
19004.781,-0.54,0.909,0.741,16.11,14.95,5.49,4,5
19004.796,-0.761,0.896,0.798,-6.29,-6.23,14.16,4,5
19004.812,-0.837,0.875,0.844,-17.43,-29.51,23.56,4,5
19004.828,-0.766,0.73,0.797,-21.79,-45.26,29.57,4,5
19004.828,-0.691,0.664,0.778,-19.99,-52.8,34.0,4,5
19004.843,-0.663,0.565,0.733,-4.03,-51.09,34.33,4,5
19004.843,-0.653,0.513,0.696,11.66,-44.62,30.55,4,5
19004.859,-0.641,0.485,0.684,25.3,-37.35,24.2,4,5
19004.875,-0.662,0.441,0.68,38.88,-31.83,14.25,4,5
19004.875,-0.669,0.381,0.651,50.42,-29.45,3.11,4,5
19004.89,-0.65,0.347,0.639,59.69,-30.12,-8.39,4,5
19004.89,-0.628,0.306,0.618,70.59,-32.72,-19.96,4,5
19004.906,-0.619,0.274,0.611,80.9,-37.48,-32.01,4,5
19004.921,-0.599,0.253,0.586,90.49,-43.73,-42.24,4,5
19004.921,-0.567,0.245,0.556,95.28,-49.56,-50.54,4,5
19004.937,-0.531,0.23,0.544,90.82,-55.33,-57.19,4,5
19004.953,-0.402,0.253,0.53,79.04,-61.71,-64.36,4,5
19004.953,-0.34,0.242,0.498,68.03,-59.05,-77.46,4,5
19004.968,-0.341,0.192,0.473,56.92,-52.98,-92.93,4,5
19004.984,-0.352,0.172,0.487,46.97,-50.39,-108.55,4,5
19004.984,-0.353,0.17,0.515,43.86,-51.42,-124.76,4,5
19005.0,-0.37,0.153,0.539,48.49,-54.96,-141.58,4,5
19005.0,-0.407,0.173,0.569,59.3,-61.04,-157.66,4,5
19005.015,-0.462,0.233,0.574,73.0,-71.2,-171.0,4,5
19005.031,-0.469,0.346,0.537,80.9,-84.99,-181.83,4,5
19005.031,-0.449,0.497,0.501,76.3,-95.0,-194.83,4,5
19005.046,-0.508,0.702,0.527,53.16,-96.68,-213.69,4,5
19005.062,-0.673,0.711,0.547,11.14,-128.42,-213.29,4,5
19005.062,-0.552,0.701,0.612,-18.28,-157.72,-203.83,4,5
19005.078,-0.496,0.756,0.608,-23.16,-163.76,-204.81,4,5
19005.093,-0.539,0.778,0.597,-19.44,-167.33,-202.03,4,5
19005.109,-0.642,0.727,0.487,-7.72,-189.46,-192.33,4,5
19005.125,-0.595,0.779,0.431,-11.17,-189.34,-193.7,4,5
19005.125,-0.567,0.809,0.376,-19.44,-184.79,-207.31,4,5
19005.14,-0.542,0.754,0.392,-33.27,-181.52,-219.98,4,5
19005.156,-0.499,0.692,0.409,-40.53,-175.82,-239.2,4,5
19005.156,-0.492,0.633,0.423,-38.24,-169.29,-260.26,4,5
19005.171,-0.535,0.668,0.412,-23.5,-155.95,-273.29,4,5
19005.187,-0.537,0.732,0.402,-11.29,-137.94,-276.86,4,5
19005.187,-0.537,0.765,0.402,-10.83,-121.83,-274.94,4,5
19005.203,-0.547,0.753,0.426,-13.79,-103.52,-269.81,4,5
19005.203,-0.583,0.721,0.469,-14.8,-84.08,-261.21,4,5
19005.218,-0.587,0.717,0.487,-16.63,-65.16,-250.77,4,5
19005.234,-0.597,0.726,0.535,-21.91,-47.15,-240.15,4,5
19005.234,-0.592,0.7,0.598,-25.57,-32.44,-228.37,4,5
19005.25,-0.588,0.703,0.637,-26.34,-18.86,-216.16,4,5
19005.25,-0.601,0.71,0.672,-28.75,-6.38,-204.32,4,5
19005.265,-0.623,0.709,0.725,-34.76,3.42,-192.02,4,5
19005.281,-0.646,0.716,0.789,-39.25,9.58,-178.84,4,5
19005.281,-0.66,0.711,0.826,-40.19,12.05,-165.17,4,5
19005.296,-0.66,0.716,0.849,-42.48,11.72,-151.59,4,5
19005.312,-0.646,0.725,0.869,-46.24,10.22,-138.37,4,5
19005.328,-0.616,0.694,0.856,-47.06,8.09,-126.74,4,5
19005.328,-0.586,0.646,0.824,-44.22,8.97,-117.53,4,5
19005.343,-0.57,0.587,0.778,-37.84,14.95,-110.26,4,5
19005.343,-0.556,0.521,0.726,-30.73,25.24,-103.15,4,5
19005.359,-0.562,0.46,0.689,-26.18,40.28,-98.03,4,5
19005.359,-0.594,0.433,0.676,-26.09,57.92,-96.9,4,5
19005.375,-0.691,0.49,0.757,-28.69,69.67,-98.3,4,5
19005.39,-0.76,0.554,0.868,-25.06,64.82,-97.35,4,5
19005.39,-0.789,0.653,0.932,-19.38,50.02,-98.91,4,5
19005.406,-0.78,0.677,0.956,-18.01,30.46,-93.97,4,5
19005.421,-0.672,0.624,0.901,-15.78,11.69,-77.97,4,5
19005.421,-0.559,0.603,0.805,-7.17,4.03,-53.41,4,5
19005.437,-0.459,0.553,0.714,0.24,8.21,-26.0,4,5
19005.453,-0.403,0.449,0.633,-1.16,21.94,-2.04,4,5
19005.453,-0.406,0.342,0.585,-8.33,40.99,13.0,4,5
19005.468,-0.472,0.235,0.584,-11.96,60.82,20.29,4,5
19005.484,-0.599,0.183,0.638,-10.47,76.27,24.29,4,5
19005.484,-0.727,0.154,0.73,-7.54,80.23,26.37,4,5
19005.5,-0.807,0.127,0.824,-4.43,69.61,24.96,4,5
19005.5,-0.826,0.1,0.861,1.04,50.14,19.04,4,5
19005.515,-0.828,0.059,0.847,8.55,30.43,12.51,4,5
19005.531,-0.811,0.017,0.806,18.07,12.94,8.3,4,5
19005.531,-0.747,-0.006,0.74,28.99,1.5,6.23,4,5
19005.546,-0.682,-0.003,0.678,37.42,-0.79,3.33,4,5
19005.562,-0.656,0.003,0.639,39.92,2.9,-0.92,4,5
19005.562,-0.646,0.027,0.632,35.89,8.82,-5.1,4,5
19005.578,-0.65,0.048,0.656,28.69,15.87,-8.36,4,5
19005.593,-0.688,0.083,0.72,20.97,20.57,-9.52,4,5
19005.593,-0.718,0.103,0.782,15.02,19.23,-7.97,4,5
19005.609,-0.739,0.125,0.837,11.75,12.88,-4.43,4,5
19005.609,-0.739,0.129,0.876,14.01,2.93,0.31,4,5
19005.625,-0.724,0.133,0.899,19.41,-7.9,5.86,4,5
19005.64,-0.726,0.15,0.908,23.19,-17.91,11.32,4,5
19005.64,-0.725,0.172,0.92,24.54,-28.17,16.82,4,5
19005.656,-0.695,0.171,0.895,23.41,-37.81,22.55,4,5
19005.671,-0.68,0.19,0.882,17.61,-44.31,27.74,4,5
19005.687,-0.684,0.205,0.874,12.67,-49.26,32.35,4,5
19005.687,-0.677,0.218,0.856,9.09,-55.15,38.51,4,5
19005.703,-0.67,0.242,0.847,5.55,-60.58,45.75,4,5
19005.703,-0.65,0.269,0.824,2.5,-65.43,53.68,4,5
19005.718,-0.603,0.246,0.78,-2.17,-69.92,60.4,4,5
19005.734,-0.528,0.17,0.724,-6.9,-71.87,62.01,4,5
19005.734,-0.462,0.114,0.665,-7.93,-67.87,56.61,4,5
19005.75,-0.439,0.09,0.617,-5.04,-58.69,46.02,4,5
19005.75,-0.439,0.079,0.579,5.89,-35.49,20.81,4,5
19005.765,-0.442,0.086,0.555,9.89,-24.23,7.66,4,5
19005.781,-0.463,0.096,0.55,15.63,-13.67,-2.87,4,5
19005.781,-0.506,0.114,0.563,22.46,-4.97,-8.58,4,5
19005.796,-0.62,0.171,0.632,27.8,0.85,-9.74,4,5
19005.812,-0.663,0.169,0.648,27.47,4.03,-7.17,4,5
19005.812,-0.69,0.187,0.684,24.2,5.52,-2.81,4,5
19005.828,-0.713,0.215,0.72,22.43,5.46,3.27,4,5
19005.843,-0.704,0.222,0.718,17.52,3.91,10.38,4,5
19005.843,-0.676,0.229,0.707,7.08,4.73,16.82,4,5
19005.859,-0.663,0.218,0.698,-4.49,8.21,21.64,4,5
19005.859,-0.648,0.197,0.71,-12.05,12.21,25.18,4,5
19005.875,-0.619,0.183,0.726,-13.37,15.75,27.25,4,5
19005.89,-0.592,0.189,0.743,-11.63,19.53,27.92,4,5
19005.89,-0.586,0.213,0.775,-9.98,22.68,27.53,4,5
19005.906,-0.589,0.233,0.809,-7.93,23.16,26.18,4,5
19005.921,-0.582,0.246,0.824,-6.78,20.78,25.57,4,5
19005.921,-0.578,0.27,0.844,-7.35,17.55,25.97,4,5
19005.937,-0.58,0.293,0.861,-9.4,13.58,27.62,4,5
19005.953,-0.568,0.301,0.855,-11.44,8.3,30.88,4,5
19005.953,-0.55,0.315,0.84,-11.75,4.39,35.04,4,5
19005.968,-0.549,0.32,0.81,-12.21,3.02,39.09,4,5
19005.984,-0.544,0.321,0.783,-13.49,3.05,41.99,4,5
19005.984,-0.548,0.315,0.76,-13.58,4.36,44.31,4,5
19006.0,-0.555,0.318,0.763,-14.74,6.41,47.3,4,5
19006.0,-0.562,0.321,0.774,-15.38,6.84,48.98,4,5
19006.015,-0.561,0.312,0.791,-15.17,5.62,49.62,4,5
19006.031,-0.555,0.309,0.819,-14.13,3.08,50.36,4,5
19006.046,-0.547,0.312,0.835,-11.29,-1.43,50.29,4,5
19006.046,-0.534,0.296,0.835,-7.69,-6.23,49.07,4,5
19006.062,-0.533,0.295,0.837,-4.24,-9.89,46.3,4,5
19006.078,-0.539,0.305,0.829,-1.13,-13.58,42.48,4,5
19006.078,-0.555,0.338,0.821,-1.25,-16.05,39.89,4,5
19006.093,-0.568,0.359,0.812,-4.43,-17.33,38.82,4,5
19006.093,-0.573,0.365,0.804,-6.41,-17.98,38.48,4,5
19006.109,-0.574,0.371,0.793,-5.22,-18.46,38.42,4,5
19006.125,-0.598,0.393,0.793,-2.84,-19.17,37.97,4,5
19006.125,-0.623,0.394,0.788,-0.4,-21.88,37.35,4,5
19006.14,-0.617,0.374,0.774,2.59,-26.46,37.42,4,5
19006.156,-0.598,0.353,0.748,6.74,-30.73,37.45,4,5
19006.156,-0.576,0.335,0.717,9.58,-33.6,36.5,4,5
19006.171,-0.548,0.312,0.693,11.75,-34.27,34.67,4,5
19006.171,-0.522,0.293,0.692,14.83,-32.93,32.62,4,5
19006.187,-0.496,0.293,0.699,20.75,-30.92,29.48,4,5
19006.203,-0.478,0.31,0.716,29.08,-28.23,24.78,4,5
19006.203,-0.484,0.331,0.742,37.87,-25.54,18.62,4,5
19006.218,-0.51,0.36,0.777,46.21,-24.48,12.3,4,5
19006.234,-0.53,0.38,0.809,52.86,-25.06,7.72,4,5
19006.234,-0.539,0.412,0.826,57.68,-27.22,5.25,4,5
19006.25,-0.538,0.447,0.827,60.3,-29.57,4.12,4,5
19006.25,-0.538,0.469,0.825,60.21,-31.13,4.21,4,5
19006.265,-0.531,0.486,0.819,58.08,-31.34,6.84,4,5
19006.281,-0.514,0.495,0.811,54.93,-30.27,10.41,4,5
19006.296,-0.492,0.487,0.794,52.34,-28.02,13.73,4,5
19006.296,-0.484,0.485,0.78,50.6,-23.77,16.14,4,5
19006.312,-0.486,0.485,0.772,48.59,-19.29,18.22,4,5
19006.312,-0.492,0.487,0.776,45.69,-16.33,19.9,4,5
19006.328,-0.479,0.498,0.768,43.46,-14.77,21.61,4,5
19006.343,-0.461,0.517,0.773,42.54,-13.28,23.71,4,5
19006.343,-0.459,0.54,0.774,43.52,-11.51,26.31,4,5
19006.359,-0.441,0.558,0.757,43.12,-9.4,30.64,4,5
19006.375,-0.423,0.577,0.748,40.71,-5.62,35.77,4,5
19006.375,-0.433,0.581,0.751,37.84,-0.03,41.57,4,5
19006.39,-0.435,0.57,0.759,33.05,6.2,48.55,4,5
19006.39,-0.447,0.558,0.778,26.8,11.38,54.29,4,5
19006.406,-0.475,0.542,0.803,22.71,14.34,58.23,4,5
19006.421,-0.499,0.519,0.841,20.57,15.69,61.86,4,5
19006.421,-0.521,0.501,0.868,20.81,13.28,64.64,4,5
19006.437,-0.532,0.494,0.866,22.8,6.84,63.84,4,5
19006.453,-0.523,0.494,0.857,23.04,-1.59,60.46,4,5
19006.468,-0.507,0.459,0.838,21.55,-9.43,55.57,4,5
19006.468,-0.429,0.442,0.807,22.1,-14.92,50.11,4,5
19006.484,-0.414,0.437,0.767,27.34,-14.68,43.28,4,5
19006.484,-0.422,0.445,0.737,32.17,-12.88,38.61,4,5
19006.5,-0.42,0.483,0.721,33.17,-11.26,36.5,4,5
19006.5,-0.426,0.517,0.71,31.19,-9.06,36.29,4,5
19006.515,-0.424,0.542,0.728,27.41,-6.71,38.3,4,5
19006.531,-0.433,0.549,0.751,24.66,-4.39,41.6,4,5
19006.531,-0.438,0.542,0.755,23.19,-3.39,44.28,4,5
19006.546,-0.44,0.559,0.766,20.72,-4.3,46.08,4,5
19006.562,-0.443,0.533,0.758,20.69,-7.42,46.54,4,5
19006.562,-0.426,0.504,0.73,22.46,-10.74,45.41,4,5
19006.578,-0.392,0.503,0.702,23.65,-12.18,43.67,4,5
19006.593,-0.377,0.511,0.694,24.17,-11.32,41.02,4,5
19006.593,-0.378,0.513,0.695,23.53,-9.37,38.24,4,5
19006.609,-0.385,0.525,0.705,22.49,-7.26,36.99,4,5
19006.609,-0.386,0.532,0.707,21.85,-6.01,36.62,4,5
19006.625,-0.385,0.544,0.715,21.73,-5.37,35.86,4,5
19006.64,-0.386,0.552,0.719,22.89,-5.71,34.21,4,5
19006.64,-0.376,0.559,0.71,24.51,-6.81,32.87,4,5
19006.656,-0.362,0.566,0.706,25.39,-7.84,31.46,4,5
19006.671,-0.349,0.568,0.695,26.52,-8.12,29.79,4,5
19006.671,-0.337,0.582,0.689,25.79,-7.57,29.11,4,5
19006.687,-0.318,0.578,0.695,24.48,-7.23,27.99,4,5
19006.703,-0.306,0.582,0.707,25.18,-6.26,26.12,4,5
19006.703,-0.313,0.6,0.709,27.38,-5.71,24.38,4,5
19006.718,-0.313,0.607,0.713,28.5,-6.35,22.8,4,5
19006.734,-0.32,0.621,0.72,29.11,-7.54,20.94,4,5
19006.734,-0.317,0.64,0.711,30.09,-9.95,20.2,4,5
19006.75,-0.29,0.657,0.698,29.36,-14.34,20.23,4,5
19006.75,-0.265,0.671,0.68,29.85,-13.49,19.81,4,5
19006.765,-0.251,0.677,0.667,31.37,-10.44,20.05,4,5
19006.781,-0.262,0.695,0.648,30.61,-7.08,21.06,4,5
19006.781,-0.272,0.704,0.661,27.28,-4.03,22.55,4,5
19006.796,-0.284,0.721,0.693,23.53,-3.11,23.99,4,5
19006.812,-0.267,0.714,0.705,22.19,-5.34,25.3,4,5
19006.828,-0.244,0.712,0.695,23.53,-7.32,26.18,4,5
19006.828,-0.239,0.728,0.687,24.26,-8.58,26.37,4,5
19006.843,-0.237,0.73,0.691,23.96,-10.01,26.0,4,5
19006.843,-0.239,0.721,0.687,23.93,-11.17,25.94,4,5
19006.859,-0.228,0.716,0.681,24.78,-12.57,25.91,4,5
19006.859,-0.216,0.723,0.668,26.86,-13.92,25.3,4,5
19006.875,-0.205,0.737,0.646,28.44,-14.74,24.45,4,5
19006.89,-0.191,0.754,0.629,28.29,-14.5,24.26,4,5
19006.906,-0.173,0.775,0.626,26.95,-13.18,24.99,4,5
19006.906,-0.184,0.803,0.637,24.9,-10.86,26.98,4,5
19006.921,-0.203,0.803,0.647,21.97,-9.16,30.46,4,5
19006.921,-0.212,0.798,0.664,18.77,-9.31,34.88,4,5
19006.937,-0.209,0.778,0.669,17.43,-10.74,38.45,4,5
19006.953,-0.198,0.748,0.67,18.16,-12.57,40.1,4,5
19006.953,-0.183,0.729,0.667,19.9,-13.98,39.67,4,5
19006.968,-0.178,0.721,0.66,22.13,-14.65,37.6,4,5
19006.984,-0.174,0.714,0.65,24.45,-14.83,35.1,4,5
19006.984,-0.17,0.725,0.656,26.22,-15.11,32.35,4,5
19007.0,-0.178,0.745,0.653,27.83,-15.87,29.27,4,5
19007.0,-0.172,0.748,0.651,29.39,-18.16,26.43,4,5
19007.015,-0.162,0.752,0.64,32.01,-20.36,23.87,4,5
19007.031,-0.15,0.766,0.614,34.55,-21.58,21.97,4,5
19007.031,-0.144,0.784,0.596,34.36,-21.85,20.45,4,5
19007.046,-0.141,0.793,0.579,32.5,-21.24,19.2,4,5
19007.062,-0.143,0.798,0.571,30.37,-20.08,18.89,4,5
19007.078,-0.155,0.801,0.563,29.6,-18.83,19.56,4,5
19007.078,-0.127,0.795,0.572,29.18,-17.33,23.53,4,5
19007.093,-0.158,0.807,0.545,31.1,-15.47,24.14,4,5
19007.093,-0.109,0.807,0.542,29.3,-17.7,26.31,4,5
19007.109,-0.086,0.845,0.551,24.69,-14.74,24.81,4,5
19007.125,-0.112,0.797,0.567,22.25,-10.1,24.81,4,5
19007.125,-0.109,0.807,0.569,21.58,-8.55,25.03,4,5
19007.14,-0.103,0.824,0.559,22.0,-6.84,25.27,4,5
19007.156,-0.108,0.805,0.562,22.03,-5.83,25.3,4,5
19007.156,-0.087,0.807,0.555,22.83,-5.52,25.24,4,5
19007.171,-0.076,0.807,0.542,23.99,-4.06,24.99,4,5
19007.171,-0.083,0.799,0.542,24.2,-2.62,25.03,4,5
19007.187,-0.083,0.804,0.553,24.32,-2.32,23.9,4,5
19007.203,-0.09,0.818,0.576,25.48,-3.75,21.79,4,5
19007.203,-0.093,0.825,0.586,27.89,-7.26,19.93,4,5
19007.218,-0.082,0.833,0.57,29.88,-11.57,18.46,4,5
19007.234,-0.063,0.842,0.55,30.76,-14.83,17.06,4,5
19007.234,-0.063,0.841,0.533,31.16,-16.51,15.05,4,5
19007.25,-0.065,0.833,0.506,31.01,-17.3,13.15,4,5
19007.25,-0.059,0.833,0.487,30.76,-17.15,11.44,4,5
19007.265,-0.045,0.843,0.473,31.62,-16.08,8.7,4,5
19007.281,-0.049,0.86,0.468,32.65,-13.82,5.8,4,5
19007.281,-0.06,0.887,0.484,32.72,-12.21,4.67,4,5
19007.296,-0.066,0.894,0.503,33.33,-11.99,5.19,4,5
19007.312,-0.074,0.909,0.5,33.75,-12.45,8.03,4,5
19007.312,-0.086,0.917,0.503,32.44,-13.06,12.21,4,5
19007.328,-0.077,0.901,0.483,29.33,-15.17,16.79,4,5
19007.343,-0.071,0.893,0.443,25.12,-17.27,20.72,4,5
19007.343,-0.043,0.88,0.436,21.42,-17.61,23.5,4,5
19007.359,-0.029,0.871,0.428,20.36,-15.66,24.6,4,5
19007.375,-0.033,0.867,0.427,21.49,-12.73,24.99,4,5
19007.375,-0.042,0.87,0.433,23.07,-10.53,24.87,4,5
19007.39,-0.043,0.874,0.443,23.77,-9.55,25.18,4,5
19007.39,-0.046,0.877,0.453,23.68,-9.22,25.39,4,5
19007.406,-0.045,0.874,0.452,23.41,-10.13,25.45,4,5
19007.421,-0.035,0.871,0.436,23.71,-11.66,24.9,4,5
19007.421,-0.026,0.872,0.408,23.93,-12.88,24.11,4,5
19007.437,-0.009,0.882,0.397,22.98,-13.4,24.08,4,5
19007.453,0.005,0.889,0.387,21.42,-12.91,23.77,4,5
19007.453,0.018,0.893,0.39,19.5,-11.75,23.9,4,5
19007.468,0.02,0.895,0.399,18.19,-10.04,24.54,4,5
19007.484,0.015,0.901,0.401,17.85,-8.85,24.78,4,5
19007.484,0.016,0.913,0.412,17.64,-8.48,24.78,4,5
19007.5,0.016,0.907,0.417,17.94,-9.31,25.12,4,5
19007.5,0.045,0.909,0.419,18.71,-11.44,25.64,4,5
19007.515,0.058,0.926,0.417,20.91,-12.45,25.24,4,5
19007.531,0.055,0.921,0.406,23.19,-12.12,24.57,4,5
19007.546,0.043,0.916,0.4,23.5,-12.05,24.02,4,5
19007.546,0.043,0.914,0.391,22.92,-12.91,22.95,4,5
19007.562,0.052,0.916,0.377,22.43,-13.4,21.09,4,5
19007.562,0.059,0.917,0.378,21.82,-13.55,19.53,4,5
19007.578,0.077,0.92,0.378,21.49,-14.13,18.71,4,5
19007.593,0.09,0.934,0.38,21.67,-14.1,18.86,4,5
19007.593,0.086,0.941,0.384,22.31,-13.98,20.17,4,5
19007.609,0.081,0.947,0.382,22.25,-14.71,22.22,4,5
19007.625,0.074,0.946,0.383,20.33,-16.45,23.96,4,5
19007.625,0.079,0.949,0.397,18.22,-18.98,25.03,4,5
19007.64,0.101,0.945,0.407,17.12,-22.37,25.18,4,5
19007.64,0.119,0.935,0.393,16.17,-25.3,23.93,4,5
19007.656,0.12,0.926,0.385,16.27,-26.52,22.22,4,5
19007.671,0.12,0.918,0.371,16.39,-26.92,21.09,4,5
19007.671,0.13,0.919,0.365,15.56,-27.77,20.26,4,5
19007.687,0.142,0.898,0.356,17.15,-27.53,18.86,4,5
19007.703,0.148,0.896,0.348,20.72,-26.15,16.27,4,5
19007.703,0.152,0.91,0.33,24.84,-25.24,14.1,4,5
19007.718,0.15,0.925,0.317,27.38,-23.8,12.09,4,5
19007.734,0.151,0.931,0.306,28.72,-19.44,9.86,4,5
19007.734,0.172,0.935,0.286,29.11,-15.41,8.67,4,5
19007.75,0.164,0.945,0.274,29.69,-11.47,8.64,4,5
19007.75,0.159,0.955,0.278,27.99,-9.4,9.77,4,5
19007.765,0.158,0.983,0.326,26.98,-8.67,11.87,4,5
19007.781,0.149,0.985,0.329,27.47,-8.64,15.23,4,5
19007.796,0.141,1.001,0.323,27.25,-8.79,19.75,4,5
19007.796,0.136,1.003,0.322,24.02,-10.44,24.81,4,5
19007.812,0.162,0.969,0.317,20.02,-12.85,28.44,4,5
19007.812,0.177,0.944,0.306,19.41,-14.65,29.73,4,5
19007.828,0.189,0.946,0.306,21.52,-14.98,30.58,4,5
19007.843,0.195,0.947,0.292,23.26,-14.53,31.74,4,5
19007.843,0.184,0.929,0.288,21.88,-13.61,31.89,4,5
19007.859,0.183,0.906,0.294,19.53,-12.54,32.32,4,5
19007.875,0.191,0.888,0.296,18.71,-11.72,32.62,4,5
19007.875,0.198,0.858,0.3,20.02,-10.5,30.95,4,5
19007.89,0.225,0.846,0.307,23.01,-10.74,27.53,4,5
19007.89,0.233,0.856,0.329,26.83,-11.57,23.29,4,5
19007.906,0.235,0.861,0.349,30.4,-13.58,19.62,4,5
19007.921,0.232,0.874,0.357,31.53,-17.24,16.82,4,5
19007.921,0.23,0.872,0.345,30.73,-20.66,15.53,4,5
19007.937,0.223,0.875,0.322,28.08,-23.32,15.93,4,5
19007.953,0.219,0.878,0.299,24.38,-24.08,16.57,4,5
19007.953,0.21,0.878,0.281,20.02,-25.09,17.0,4,5
19007.968,0.213,0.893,0.28,16.33,-26.22,16.79,4,5
19007.984,0.211,0.893,0.259,15.35,-27.83,16.08,4,5
19007.984,0.212,0.897,0.229,15.78,-29.6,15.2,4,5
19008.0,0.222,0.908,0.209,16.75,-31.16,13.61,4,5
19008.0,0.231,0.903,0.197,18.52,-32.01,11.47,4,5
19008.015,0.234,0.892,0.178,23.38,-31.13,9.43,4,5
19008.031,0.234,0.906,0.162,28.72,-28.78,8.67,4,5
19008.031,0.237,0.922,0.148,30.34,-26.15,9.28,4,5
19008.046,0.251,0.943,0.151,27.68,-24.51,10.9,4,5
19008.062,0.25,0.955,0.153,24.32,-23.32,12.24,4,5
19008.078,0.254,0.957,0.154,20.72,-22.37,13.76,4,5
19008.078,0.25,0.959,0.151,17.88,-22.19,15.2,4,5
19008.093,0.257,0.957,0.153,16.51,-23.07,16.66,4,5
19008.093,0.26,0.948,0.146,16.33,-24.35,17.64,4,5
19008.109,0.277,0.929,0.13,16.42,-25.64,18.19,4,5
19008.109,0.295,0.932,0.115,17.88,-26.49,18.49,4,5
19008.125,0.304,0.92,0.102,20.51,-25.64,18.28,4,5
19008.14,0.308,0.919,0.103,21.52,-23.62,16.94,4,5
19008.156,0.304,0.918,0.1,21.58,-21.82,15.05,4,5
19008.156,0.299,0.927,0.112,21.06,-20.42,13.89,4,5
19008.171,0.293,0.945,0.119,19.14,-20.33,13.67,4,5
19008.171,0.294,0.936,0.111,16.24,-21.39,14.44,4,5
19008.187,0.286,0.931,0.122,11.93,-22.58,15.81,4,5
19008.203,0.291,0.928,0.134,8.97,-24.93,18.43,4,5
19008.203,0.303,0.925,0.132,8.64,-27.77,21.64,4,5
19008.218,0.3,0.928,0.12,9.03,-29.24,23.59,4,5
19008.234,0.304,0.913,0.109,8.85,-30.21,25.27,4,5
19008.234,0.318,0.904,0.08,7.57,-30.34,25.57,4,5
19008.25,0.321,0.9,0.057,4.97,-29.54,24.75,4,5
19008.25,0.362,0.901,0.027,4.0,-27.62,22.83,4,5
19008.265,0.378,0.903,0.011,3.91,-23.35,19.01,4,5
19008.281,0.402,0.915,0.023,5.62,-17.73,14.68,4,5
19008.296,0.385,0.911,0.024,10.41,-11.87,8.24,4,5
19008.296,0.364,0.894,0.035,14.44,-6.56,2.72,4,5
19008.312,0.36,0.896,0.042,18.86,-2.78,-3.11,4,5
19008.312,0.348,0.91,0.047,24.02,0.92,-9.46,4,5
19008.328,0.319,0.931,0.051,26.37,4.06,-14.8,4,5
19008.343,0.291,0.953,0.07,25.06,5.1,-18.56,4,5
19008.343,0.26,0.949,0.095,23.87,4.52,-19.84,4,5
19008.359,0.25,0.952,0.1,22.37,2.5,-18.65,4,5
19008.375,0.242,0.963,0.086,19.32,-0.61,-15.81,4,5
19008.375,0.257,0.967,0.078,14.89,-3.88,-12.7,4,5
19008.39,0.26,0.964,0.079,11.72,-5.68,-10.5,4,5
19008.39,0.248,0.943,0.067,13.67,-7.05,-8.03,4,5
19008.406,0.246,0.953,0.052,18.98,-8.12,-4.27,4,5
19008.421,0.246,0.967,0.032,23.29,-9.22,-0.34,4,5
19008.421,0.241,0.965,0.017,23.59,-10.22,3.45,4,5
19008.437,0.241,0.962,0.007,20.63,-10.68,7.29,4,5
19008.453,0.232,0.96,0.004,16.54,-10.96,11.41,4,5
19008.453,0.237,0.949,0.004,13.0,-10.93,16.27,4,5
19008.468,0.24,0.918,-0.007,11.87,-9.98,21.09,4,5
19008.484,0.246,0.899,-0.03,11.17,-8.42,26.49,4,5
19008.484,0.25,0.89,-0.043,8.15,-5.92,32.23,4,5
19008.5,0.267,0.869,-0.042,1.65,-3.69,37.72,4,5
19008.5,0.285,0.864,-0.019,-4.52,-2.01,41.32,4,5
19008.515,0.299,0.845,-0.007,-6.5,-1.37,42.85,4,5
19008.531,0.318,0.846,0.005,-6.44,-2.29,41.9,4,5
19008.546,0.334,0.848,0.023,-5.55,-4.24,38.27,4,5
19008.546,0.346,0.83,0.03,-1.8,-6.41,33.78,4,5
19008.562,0.345,0.805,0.018,5.74,-7.39,29.76,4,5
19008.562,0.344,0.801,-0.003,12.36,-7.42,26.55,4,5
19008.578,0.336,0.805,-0.016,14.22,-6.93,23.9,4,5
19008.593,0.361,0.812,-0.009,11.75,-7.63,21.52,4,5
19008.593,0.394,0.816,-0.004,10.22,-8.7,18.77,4,5
19008.609,0.425,0.83,-0.002,10.56,-8.76,16.05,4,5
19008.609,0.429,0.848,-0.005,12.82,-7.78,13.12,4,5
19008.625,0.419,0.851,-0.013,15.26,-7.23,10.8,4,5
19008.64,0.433,0.854,-0.035,17.27,-7.45,9.25,4,5
19008.64,0.477,0.864,-0.052,19.84,-7.57,7.78,4,5
19008.656,0.504,0.877,-0.058,22.71,-6.35,5.49,4,5
19008.671,0.528,0.887,-0.066,24.17,-4.3,3.85,4,5
19008.671,0.519,0.909,-0.047,24.32,-0.52,1.8,4,5
19008.687,0.451,0.904,-0.009,24.9,3.36,0.37,4,5
19008.703,0.383,0.882,0.019,24.51,4.0,2.14,4,5
19008.703,0.344,0.87,0.024,22.16,1.4,6.53,4,5
19008.718,0.361,0.874,0.03,13.12,-9.55,10.99,4,5
19008.734,0.402,0.865,0.037,14.1,-12.45,8.79,4,5
19008.734,0.415,0.839,0.042,20.45,-13.28,5.95,4,5
19008.75,0.373,0.813,-0.026,24.6,-14.37,3.69,4,5
19008.765,0.385,0.817,-0.051,26.09,-15.69,0.76,4,5
19008.765,0.404,0.815,-0.077,27.41,-16.05,-3.45,4,5
19008.781,0.423,0.826,-0.088,29.39,-14.62,-8.09,4,5
19008.781,0.42,0.838,-0.08,32.93,-11.47,-12.33,4,5
19008.796,0.399,0.849,-0.086,35.98,-9.0,-14.62,4,5
19008.812,0.397,0.871,-0.091,35.71,-8.39,-15.11,4,5
19008.812,0.392,0.882,-0.089,34.03,-8.45,-15.93,4,5
19008.828,0.382,0.882,-0.08,33.36,-8.51,-16.94,4,5
19008.843,0.366,0.879,-0.086,34.39,-8.27,-16.82,4,5
19008.843,0.343,0.883,-0.095,35.46,-8.09,-15.47,4,5
19008.859,0.317,0.875,-0.11,34.76,-7.97,-13.03,4,5
19008.859,0.323,0.872,-0.144,29.97,-8.36,-8.73,4,5
19008.875,0.358,0.871,-0.158,23.32,-8.48,-4.97,4,5
19008.89,0.376,0.852,-0.156,18.98,-6.23,-2.59,4,5
19008.906,0.373,0.849,-0.147,16.82,-3.45,-1.68,4,5
19008.906,0.358,0.854,-0.146,16.97,-1.62,-1.19,4,5
19008.921,0.343,0.851,-0.145,15.93,-0.67,-0.43,4,5
19008.921,0.336,0.854,-0.134,13.06,-0.43,0.34,4,5
19008.937,0.314,0.848,-0.143,10.22,-0.49,1.65,4,5
19008.953,0.326,0.838,-0.142,6.23,-1.34,4.55,4,5
19008.968,0.343,0.828,-0.145,3.48,-1.98,7.72,4,5
19008.968,0.368,0.819,-0.149,3.54,-1.53,10.5,4,5
19008.984,0.364,0.813,-0.162,3.97,0.15,12.54,4,5
19008.984,0.369,0.809,-0.153,1.74,1.04,13.43,4,5
19009.0,0.364,0.794,-0.137,-0.76,1.8,13.25,4,5
19009.0,0.346,0.776,-0.141,-2.04,2.29,13.28,4,5
19009.015,0.357,0.776,-0.134,-2.66,1.22,13.43,4,5
19009.031,0.37,0.783,-0.142,-1.31,0.4,11.93,4,5
19009.031,0.374,0.774,-0.156,0.0,0.89,9.77,4,5
19009.046,0.375,0.768,-0.171,1.22,2.35,8.0,4,5
19009.062,0.389,0.774,-0.182,2.5,4.33,6.04,4,5
19009.062,0.394,0.782,-0.18,2.5,7.02,3.17,4,5
19009.078,0.38,0.803,-0.154,0.79,8.73,0.21,4,5
19009.093,0.376,0.811,-0.137,-0.31,7.87,-1.68,4,5
19009.093,0.392,0.823,-0.138,0.85,5.89,-3.02,4,5
19009.109,0.41,0.853,-0.134,2.08,3.78,-4.49,4,5
19009.109,0.416,0.878,-0.13,1.68,1.43,-6.16,4,5
19009.125,0.425,0.87,-0.133,2.08,-0.46,-6.84,4,5
19009.14,0.439,0.877,-0.137,4.46,-0.98,-6.01,4,5
19009.14,0.43,0.891,-0.161,6.56,-0.18,-5.43,4,5
19009.156,0.433,0.895,-0.165,5.46,1.01,-5.31,4,5
19009.171,0.413,0.899,-0.156,4.0,3.14,-6.32,4,5
19009.171,0.38,0.887,-0.147,3.75,5.1,-6.26,4,5
19009.187,0.386,0.889,-0.15,4.15,5.4,-5.22,4,5
19009.203,0.39,0.894,-0.154,4.3,5.86,-4.33,4,5
19009.203,0.395,0.888,-0.15,3.54,6.01,-3.45,4,5
19009.218,0.401,0.885,-0.147,1.86,6.01,-1.83,4,5
19009.234,0.409,0.883,-0.139,-0.52,6.04,-0.24,4,5
19009.234,0.415,0.881,-0.132,-2.5,5.43,0.27,4,5
19009.25,0.41,0.866,-0.127,-3.48,4.49,0.52,4,5
19009.25,0.412,0.869,-0.133,-4.15,3.48,0.43,4,5
19009.265,0.41,0.868,-0.147,-4.85,2.56,-0.18,4,5
19009.281,0.427,0.867,-0.153,-6.78,1.95,-1.22,4,5
19009.281,0.437,0.868,-0.14,-8.0,2.78,-3.23,4,5
19009.296,0.418,0.852,-0.123,-5.71,4.7,-5.07,4,5
19009.312,0.394,0.848,-0.115,1.25,6.1,-4.36,4,5
19009.328,0.38,0.876,-0.127,7.75,6.2,-2.53,4,5
19009.328,0.383,0.895,-0.153,7.14,4.18,-0.92,4,5
19009.343,0.398,0.891,-0.155,1.31,2.04,0.06,4,5
19009.343,0.413,0.888,-0.146,-2.04,0.7,0.49,4,5
19009.359,0.433,0.892,-0.141,-0.82,0.49,0.43,4,5
19009.359,0.438,0.9,-0.143,1.86,1.37,0.03,4,5
19009.375,0.417,0.905,-0.15,3.27,2.66,-0.37,4,5
19009.39,0.4,0.892,-0.148,2.38,3.63,-0.61,4,5
19009.39,0.384,0.883,-0.143,0.58,4.49,-0.27,4,5
19009.406,0.38,0.871,-0.145,-1.19,4.79,1.19,4,5
19009.421,0.389,0.871,-0.149,-2.93,4.09,3.27,4,5
19009.421,0.419,0.881,-0.147,-4.24,3.17,4.27,4,5
19009.437,0.446,0.887,-0.132,-5.62,3.23,3.63,4,5
19009.453,0.443,0.887,-0.12,-5.83,4.09,1.98,4,5
19009.453,0.422,0.888,-0.106,-4.97,4.24,0.67,4,5
19009.468,0.4,0.892,-0.096,-4.36,3.05,0.34,4,5
19009.484,0.386,0.882,-0.103,-4.15,0.67,0.82,4,5
19009.484,0.395,0.877,-0.114,-4.06,-1.43,1.89,4,5
19009.5,0.406,0.88,-0.125,-3.57,-2.84,2.9,4,5
19009.5,0.414,0.879,-0.133,-3.45,-3.39,3.2,4,5
19009.515,0.428,0.879,-0.13,-3.54,-3.66,3.11,4,5
19009.531,0.436,0.883,-0.128,-3.02,-3.3,2.17,4,5
19009.546,0.426,0.878,-0.13,-1.92,-2.2,1.04,4,5
19009.546,0.416,0.873,-0.137,-0.67,-1.4,0.43,4,5
19009.562,0.407,0.876,-0.147,0.4,-0.55,0.18,4,5
19009.562,0.407,0.884,-0.152,-0.15,-0.09,0.18,4,5
19009.578,0.416,0.889,-0.155,-1.95,0.43,0.55,4,5
19009.593,0.422,0.901,-0.157,-4.52,1.46,1.01,4,5
19009.593,0.422,0.919,-0.145,-8.0,2.81,2.04,4,5
19009.609,0.42,0.933,-0.132,-11.96,3.51,3.54,4,5
19009.609,0.416,0.941,-0.121,-16.24,3.27,5.58,4,5
19009.625,0.412,0.935,-0.111,-19.71,2.62,8.33,4,5
19009.64,0.421,0.925,-0.113,-22.43,1.59,11.57,4,5
19009.64,0.43,0.911,-0.106,-24.2,1.25,15.38,4,5
19009.656,0.433,0.892,-0.101,-24.32,1.74,19.75,4,5
19009.671,0.439,0.873,-0.103,-23.07,2.08,24.35,4,5
19009.671,0.448,0.873,-0.103,-21.85,2.69,27.62,4,5
19009.687,0.46,0.857,-0.099,-21.76,3.02,28.32,4,5
19009.703,0.463,0.833,-0.088,-19.75,3.85,24.6,4,5
19009.703,0.461,0.813,-0.075,-15.2,3.27,21.21,4,5
19009.718,0.464,0.803,-0.063,-10.93,1.98,16.54,4,5
19009.718,0.476,0.803,-0.056,-7.39,0.58,11.02,4,5
19009.734,0.468,0.799,-0.053,-4.39,-1.22,5.8,4,5
19009.75,0.464,0.805,-0.055,-1.22,-2.81,1.74,4,5
19009.75,0.46,0.817,-0.055,1.46,-3.85,-0.92,4,5
19009.765,0.47,0.828,-0.065,3.27,-4.76,-2.17,4,5
19009.781,0.483,0.847,-0.068,3.63,-5.46,-3.23,4,5
19009.781,0.471,0.848,-0.075,3.51,-5.46,-4.49,4,5
19009.796,0.457,0.845,-0.086,3.66,-5.13,-4.88,4,5
19009.812,0.444,0.849,-0.099,4.33,-4.46,-4.7,4,5
19009.812,0.438,0.851,-0.114,4.39,-3.94,-4.12,4,5
19009.828,0.446,0.854,-0.12,3.14,-3.3,-3.69,4,5
19009.843,0.458,0.857,-0.124,2.08,-2.04,-3.45,4,5
19009.843,0.455,0.861,-0.117,1.65,-0.37,-3.11,4,5
19009.859,0.449,0.864,-0.106,1.28,1.04,-2.23,4,5
19009.859,0.448,0.866,-0.098,0.43,1.62,-0.98,4,5
19009.875,0.443,0.855,-0.094,-0.21,1.65,0.82,4,5
19009.89,0.452,0.847,-0.088,-0.15,1.19,3.14,4,5
19009.89,0.458,0.841,-0.092,0.37,1.34,4.76,4,5
19009.906,0.458,0.825,-0.102,-0.03,1.71,5.86,4,5
19009.921,0.463,0.817,-0.108,-1.19,2.01,6.74,4,5
19009.937,0.473,0.82,-0.112,-2.62,2.2,7.26,4,5
19009.937,0.484,0.822,-0.115,-4.21,2.69,7.45,4,5
19009.953,0.492,0.822,-0.119,-4.79,4.06,7.51,4,5
19009.953,0.504,0.818,-0.13,-4.15,5.92,8.55,4,5
19009.968,0.518,0.834,-0.124,-4.15,8.06,10.59,4,5
19009.984,0.525,0.841,-0.096,-4.94,10.65,12.76,4,5
19009.984,0.527,0.846,-0.066,-6.99,14.37,15.59,4,5
19010.0,0.508,0.854,-0.039,-10.83,17.43,18.83,4,5
19010.0,0.481,0.847,-0.028,-15.69,18.25,21.52,4,5
19010.015,0.446,0.832,-0.017,-20.66,17.58,23.47,4,5
19010.031,0.425,0.819,-0.008,-24.6,15.47,25.06,4,5
19010.031,0.419,0.8,-0.007,-27.41,12.24,25.18,4,5
19010.046,0.426,0.78,-0.019,-28.66,8.7,24.35,4,5
19010.062,0.45,0.779,-0.028,-27.83,5.65,22.61,4,5
19010.062,0.479,0.78,-0.042,-25.97,3.45,19.5,4,5
19010.078,0.51,0.784,-0.045,-24.35,2.96,15.69,4,5
19010.093,0.515,0.784,-0.028,-22.19,3.57,11.44,4,5
19010.093,0.524,0.792,-0.003,-19.26,3.48,6.99,4,5
19010.109,0.522,0.796,0.012,-13.76,2.81,1.62,4,5
19010.109,0.508,0.799,0.014,-4.76,1.77,-4.09,4,5
19010.125,0.499,0.831,0.002,3.75,-0.4,-9.64,4,5
19010.14,0.498,0.869,-0.008,8.67,-3.42,-14.95,4,5
19010.156,0.496,0.887,-0.023,9.43,-6.23,-19.01,4,5
19010.156,0.494,0.881,-0.045,9.77,-7.75,-21.91,4,5
19010.171,0.483,0.885,-0.072,11.57,-6.96,-22.8,4,5
19010.171,0.471,0.905,-0.1,12.05,-4.94,-20.91,4,5
19010.187,0.481,0.926,-0.126,9.28,-2.47,-17.82,4,5
19010.203,0.478,0.962,-0.113,2.87,0.12,-14.59,4,5
19010.203,0.47,0.979,-0.068,-5.31,2.2,-10.86,4,5
19010.218,0.459,0.979,-0.033,-11.08,2.5,-6.87,4,5
19010.234,0.456,0.969,-0.0,-10.41,1.46,-2.04,4,5
19010.234,0.441,0.968,0.009,-5.86,-0.37,1.89,4,5
19010.25,0.431,0.957,-0.015,-2.66,-3.33,4.15,4,5
19010.25,0.448,0.94,-0.045,-2.11,-6.07,5.55,4,5
19010.265,0.475,0.935,-0.06,-2.11,-7.26,6.04,4,5
19010.281,0.484,0.919,-0.079,-0.92,-6.1,5.89,4,5
19010.281,0.488,0.902,-0.075,0.95,-3.36,6.41,4,5
19010.296,0.473,0.89,-0.067,3.54,0.0,6.65,4,5
19010.312,0.448,0.881,-0.065,5.01,2.23,6.38,4,5
19010.312,0.43,0.868,-0.063,3.91,2.87,5.92,4,5
19010.328,0.435,0.851,-0.055,2.9,1.5,5.68,4,5
19010.343,0.455,0.847,-0.052,3.91,-0.67,5.58,4,5
19010.343,0.476,0.855,-0.055,5.8,-1.95,5.34,4,5
