timestamp,ax,ay,az,gx,gy,gz,orient_label,motion_label
19018.828,0.451,0.833,0.135,3.75,-3.11,-6.01,4,5
19018.843,0.465,0.842,0.126,2.62,-3.72,-7.32,4,5
19018.843,0.462,0.85,0.12,1.89,-3.05,-8.21,4,5
19018.859,0.457,0.856,0.123,1.43,-1.89,-7.63,4,5
19018.875,0.448,0.867,0.124,1.4,-0.46,-6.23,4,5
19018.875,0.433,0.876,0.129,0.03,-0.03,-4.64,4,5
19018.89,0.42,0.874,0.136,-1.98,-0.4,-3.6,4,5
19018.906,0.417,0.869,0.138,-3.27,-1.34,-2.66,4,5
19018.906,0.426,0.868,0.137,-2.56,-2.62,-1.98,4,5
19018.921,0.436,0.877,0.13,-0.76,-3.33,-1.62,4,5
19018.921,0.447,0.881,0.122,-0.4,-3.51,-1.1,4,5
19018.937,0.45,0.878,0.128,-1.34,-2.9,-0.21,4,5
19018.953,0.446,0.877,0.133,-2.23,-1.98,0.89,4,5
19018.953,0.447,0.873,0.137,-2.41,-1.5,1.95,4,5
19018.968,0.458,0.873,0.134,-2.41,-0.95,2.59,4,5
19018.984,0.481,0.877,0.135,-2.69,-0.12,2.72,4,5
19018.984,0.493,0.882,0.142,-2.04,1.19,1.89,4,5
19019.0,0.474,0.888,0.177,1.4,2.78,0.27,4,5
19019.015,0.471,0.891,0.183,2.11,1.56,0.37,4,5
19019.031,0.477,0.896,0.184,0.95,-0.37,0.49,4,5
19019.031,0.475,0.888,0.179,-0.15,-1.92,0.7,4,5
19019.046,0.471,0.88,0.171,-0.85,-3.45,1.37,4,5
19019.062,0.477,0.88,0.165,-0.92,-4.3,2.53,4,5
19019.062,0.483,0.88,0.154,-1.34,-4.27,3.14,4,5
19019.078,0.481,0.868,0.149,-1.4,-3.81,3.75,4,5
19019.093,0.474,0.862,0.147,-1.16,-2.99,4.58,4,5
19019.093,0.472,0.854,0.147,-1.28,-2.47,5.55,4,5
19019.109,0.472,0.838,0.158,-1.56,-2.35,6.13,4,5
19019.125,0.47,0.822,0.163,-0.55,-2.41,6.2,4,5
19019.125,0.466,0.808,0.162,1.46,-2.38,5.8,4,5
19019.14,0.462,0.791,0.157,3.94,-2.69,5.28,4,5
19019.14,0.453,0.778,0.142,6.23,-2.56,4.79,4,5
19019.156,0.44,0.755,0.129,8.24,-1.34,4.67,4,5
19019.171,0.389,0.71,0.103,13.61,3.81,6.62,4,5
19019.187,0.368,0.695,0.095,15.53,7.29,8.48,4,5
19019.203,0.345,0.674,0.086,17.15,11.02,10.59,4,5
19019.203,0.325,0.651,0.078,19.35,14.47,13.09,4,5
19019.218,0.318,0.637,0.065,23.19,17.88,15.53,4,5
19019.234,0.304,0.636,0.056,28.72,22.31,17.49,4,5
19019.234,0.279,0.634,0.034,34.7,28.87,19.84,4,5
19019.25,0.242,0.642,0.028,38.06,37.48,24.6,4,5
19019.25,0.211,0.641,0.032,38.73,47.61,32.29,4,5
19019.265,0.178,0.642,0.027,36.96,59.14,41.99,4,5
19019.281,0.149,0.635,0.028,32.26,72.51,53.56,4,5
19019.281,0.107,0.617,0.039,24.78,87.92,65.07,4,5
19019.296,0.053,0.599,0.051,15.5,104.1,75.9,4,5
19019.312,0.003,0.556,0.066,6.07,120.4,86.43,4,5
19019.312,-0.036,0.513,0.083,-2.32,136.17,95.55,4,5
19019.328,-0.088,0.482,0.109,-11.2,150.33,101.9,4,5
19019.343,-0.138,0.389,0.192,-28.57,166.33,115.33,4,5
19019.359,-0.159,0.366,0.263,-35.65,172.52,118.96,4,5
19019.375,-0.195,0.325,0.322,-41.54,177.01,118.87,4,5
19019.375,-0.195,0.285,0.358,-46.66,177.31,115.88,4,5
19019.39,-0.159,0.258,0.386,-51.58,175.27,111.15,4,5
19019.39,-0.074,0.221,0.385,-56.25,170.87,105.04,4,5
19019.406,0.027,0.204,0.365,-58.47,165.38,98.09,4,5
19019.421,0.115,0.196,0.339,-56.34,164.43,90.82,4,5
19019.421,0.171,0.212,0.323,-53.29,170.2,81.73,4,5
19019.437,0.208,0.209,0.331,-51.52,180.27,70.07,4,5
19019.453,0.227,0.198,0.361,-48.68,192.21,55.15,4,5
19019.453,0.25,0.195,0.388,-42.33,202.0,38.06,4,5
19019.468,0.295,0.199,0.385,-33.88,208.2,19.5,4,5
19019.484,0.275,0.233,0.363,-28.53,212.44,-0.61,4,5
19019.484,0.26,0.259,0.35,-27.95,213.23,-17.55,4,5
19019.5,0.269,0.292,0.37,-30.61,212.2,-32.5,4,5
19019.515,0.269,0.31,0.413,-33.17,212.84,-44.95,4,5
19019.515,0.306,0.308,0.471,-31.25,216.22,-56.49,4,5
19019.531,0.326,0.339,0.533,-25.7,225.32,-70.74,4,5
19019.531,0.246,0.354,0.581,-12.02,233.71,-106.27,4,5
19019.546,0.148,0.351,0.612,-7.08,220.28,-123.23,4,5
19019.562,0.128,0.398,0.655,3.42,200.63,-143.35,4,5
19019.562,0.136,0.578,0.779,18.92,185.89,-165.47,4,5
19019.578,0.103,0.656,0.808,33.27,176.34,-182.1,4,5
19019.593,0.088,0.748,0.86,43.06,168.77,-193.76,4,5
19019.593,0.065,0.861,0.917,51.52,165.5,-202.61,4,5
19019.609,0.016,1.028,0.945,60.64,166.05,-209.08,4,5
19019.625,-0.055,1.199,0.958,65.65,165.81,-212.84,4,5
19019.625,-0.125,1.323,0.972,61.53,162.02,-211.98,4,5
19019.64,-0.194,1.431,1.001,49.56,156.07,-206.37,4,5
19019.64,-0.243,1.491,1.053,33.85,148.96,-194.95,4,5
19019.656,-0.251,1.491,1.132,18.28,139.44,-179.02,4,5
19019.671,-0.256,1.487,1.231,4.79,116.95,-144.99,4,5
19019.687,-0.282,1.496,1.22,-1.04,101.9,-129.76,4,5
19019.703,-0.288,1.477,1.172,-10.9,84.23,-112.74,4,5
19019.718,-0.283,1.462,1.111,-24.84,68.36,-93.45,4,5
19019.718,-0.26,1.442,1.064,-41.29,55.91,-74.28,4,5
19019.734,-0.221,1.38,1.016,-57.31,49.17,-56.34,4,5
19019.734,-0.179,1.284,0.993,-73.49,48.01,-40.13,4,5
19019.75,-0.129,1.173,1.024,-87.22,52.28,-24.6,4,5
19019.75,-0.122,1.089,1.074,-95.92,59.21,-11.41,4,5
19019.765,-0.16,1.032,1.109,-101.26,62.44,-2.08,4,5
19019.781,-0.204,0.968,1.123,-104.86,58.08,3.81,4,5
19019.796,-0.231,0.9,1.113,-106.72,47.91,7.08,4,5
19019.796,-0.225,0.84,1.079,-105.93,36.29,8.12,4,5
19019.812,-0.214,0.799,1.035,-100.8,26.89,7.32,4,5
19019.812,-0.21,0.76,0.985,-90.95,21.58,7.26,4,5
19019.828,-0.224,0.728,0.921,-77.88,19.99,8.64,4,5
19019.843,-0.283,0.725,0.834,-54.66,21.73,15.53,4,5
19019.859,-0.309,0.714,0.816,-49.07,20.78,19.96,4,5
19019.875,-0.309,0.689,0.828,-45.87,19.75,25.42,4,5
19019.875,-0.301,0.641,0.832,-41.41,20.69,33.02,4,5
19019.89,-0.322,0.613,0.854,-40.62,21.03,40.41,4,5
19019.89,-0.345,0.586,0.879,-43.4,18.22,46.11,4,5
19019.906,-0.354,0.547,0.883,-47.4,12.97,50.51,4,5
19019.921,-0.355,0.509,0.872,-53.53,6.13,52.49,4,5
19019.921,-0.344,0.492,0.858,-59.24,0.03,51.58,4,5
19019.937,-0.335,0.48,0.843,-60.3,-3.81,47.12,4,5
19019.953,-0.337,0.445,0.82,-55.51,-5.07,39.52,4,5
19019.968,-0.355,0.437,0.818,-46.45,-4.27,30.4,4,5
19019.968,-0.375,0.451,0.833,-34.33,-3.94,21.06,4,5
19019.984,-0.372,0.45,0.862,-20.36,-5.07,13.34,4,5
19019.984,-0.361,0.451,0.892,-7.29,-6.13,7.69,4,5
19020.0,-0.368,0.486,0.913,0.49,-6.9,4.3,4,5
19020.015,-0.4,0.56,0.949,-3.39,-10.96,3.33,4,5
19020.031,-0.413,0.567,0.965,-12.02,-15.72,4.55,4,5
19020.031,-0.414,0.564,0.964,-20.2,-20.94,6.29,4,5
19020.046,-0.4,0.554,0.944,-26.4,-24.78,7.9,4,5
19020.062,-0.381,0.54,0.918,-30.18,-26.22,8.45,4,5
19020.062,-0.364,0.522,0.892,-31.4,-24.81,6.74,4,5
19020.078,-0.355,0.506,0.876,-30.34,-21.67,3.42,4,5
19020.093,-0.352,0.485,0.854,-25.61,-18.28,-0.76,4,5
19020.093,-0.346,0.477,0.83,-17.91,-14.07,-4.55,4,5
19020.109,-0.336,0.492,0.818,-10.19,-8.94,-7.97,4,5
19020.125,-0.332,0.499,0.827,-1.1,-3.42,-11.2,4,5
19020.125,-0.334,0.496,0.825,9.67,2.26,-12.3,4,5
19020.14,-0.341,0.522,0.823,17.79,6.96,-10.8,4,5
19020.14,-0.351,0.554,0.833,21.09,9.7,-8.85,4,5
19020.156,-0.383,0.569,0.856,19.62,8.97,-6.5,4,5
19020.171,-0.403,0.58,0.869,12.6,4.0,-2.66,4,5
19020.187,-0.361,0.574,0.847,-9.22,-9.98,7.51,4,5
19020.203,-0.33,0.551,0.823,-17.91,-12.7,12.39,4,5
19020.203,-0.306,0.526,0.802,-23.04,-11.02,16.02,4,5
19020.218,-0.3,0.506,0.792,-25.39,-6.99,18.19,4,5
19020.234,-0.302,0.492,0.795,-26.12,-2.9,18.71,4,5
19020.234,-0.312,0.475,0.81,-25.79,-0.31,17.4,4,5
19020.25,-0.327,0.463,0.841,-24.57,-0.61,14.95,4,5
19020.265,-0.339,0.46,0.855,-21.85,-4.12,12.63,4,5
19020.265,-0.316,0.452,0.843,-18.65,-7.84,11.02,4,5
19020.281,-0.302,0.457,0.821,-15.66,-9.28,8.76,4,5
19020.281,-0.286,0.455,0.789,-12.45,-8.73,6.74,4,5
19020.296,-0.27,0.459,0.768,-10.07,-5.62,5.28,4,5
19020.312,-0.259,0.464,0.75,-8.03,0.12,4.76,4,5
19020.312,-0.253,0.467,0.73,-6.01,7.42,5.65,4,5
19020.328,-0.261,0.481,0.729,-4.76,15.14,6.81,4,5
19020.343,-0.296,0.481,0.741,-4.73,21.06,6.96,4,5
19020.343,-0.329,0.471,0.759,-7.97,23.5,6.62,4,5
19020.359,-0.341,0.473,0.787,-14.1,22.92,6.16,4,5
19020.375,-0.348,0.467,0.808,-18.04,20.72,5.07,4,5
19020.375,-0.347,0.459,0.815,-18.8,18.68,4.73,4,5
19020.39,-0.334,0.457,0.813,-16.75,17.55,5.46,4,5
19020.406,-0.327,0.461,0.807,-12.7,18.07,5.95,4,5
19020.406,-0.329,0.459,0.8,-8.27,20.26,5.58,4,5
19020.421,-0.33,0.448,0.788,-4.12,23.47,4.06,4,5
19020.437,-0.337,0.45,0.785,-0.43,27.01,1.86,4,5
19020.437,-0.337,0.444,0.782,3.69,30.55,-1.16,4,5
19020.453,-0.335,0.428,0.775,7.66,35.34,-5.1,4,5
19020.453,-0.332,0.406,0.749,11.08,40.96,-9.34,4,5
19020.468,-0.342,0.387,0.722,15.14,46.82,-14.01,4,5
19020.484,-0.449,0.44,0.779,18.59,49.87,-19.04,4,5
19020.484,-0.565,0.532,0.908,15.17,43.15,-18.4,4,5
19020.5,-0.702,0.68,1.021,9.37,20.57,-11.41,4,5
19020.515,-0.567,0.633,0.98,2.81,-6.99,4.18,4,5
19020.515,-0.418,0.546,0.832,-0.46,-17.76,8.82,4,5
19020.531,-0.345,0.457,0.761,8.06,-8.85,3.42,4,5
19020.546,-0.369,0.429,0.783,19.75,-3.05,0.09,4,5
19020.546,-0.425,0.459,0.828,26.73,-3.48,0.21,4,5
19020.562,-0.426,0.484,0.84,26.7,-7.14,1.98,4,5
19020.562,-0.399,0.47,0.818,23.16,-10.53,3.36,4,5
19020.578,-0.396,0.469,0.788,18.25,-13.49,3.66,4,5
19020.593,-0.396,0.46,0.765,12.94,-16.05,3.42,4,5
19020.593,-0.388,0.47,0.752,8.58,-18.01,3.02,4,5
19020.609,-0.387,0.496,0.75,5.58,-18.83,3.36,4,5
19020.625,-0.43,0.538,0.772,1.28,-20.51,4.67,4,5
19020.625,-0.362,0.523,0.737,-6.99,-24.57,9.03,4,5
19020.64,-0.267,0.491,0.692,-11.81,-21.79,11.78,4,5
19020.64,-0.352,0.529,0.765,-13.82,-15.41,13.46,4,5
19020.656,-0.326,0.538,0.789,-22.0,-16.27,17.94,4,5
19020.671,-0.281,0.484,0.778,-26.06,-17.4,18.98,4,5
19020.687,-0.3,0.462,0.776,-25.82,-15.05,18.19,4,5
19020.687,-0.297,0.458,0.792,-25.76,-13.79,17.61,4,5
19020.703,-0.298,0.447,0.814,-24.66,-15.14,15.75,4,5
19020.703,-0.295,0.434,0.821,-22.06,-17.58,13.61,4,5
19020.718,-0.277,0.421,0.81,-19.41,-19.23,10.93,4,5
19020.734,-0.251,0.394,0.787,-14.89,-18.25,7.57,4,5
19020.734,-0.228,0.37,0.759,-6.84,-13.55,4.33,4,5
19020.75,-0.21,0.373,0.733,3.2,-5.04,1.22,4,5
19020.75,-0.206,0.38,0.705,13.73,6.01,-2.78,4,5
19020.765,-0.22,0.373,0.68,23.59,17.88,-7.45,4,5
19020.781,-0.238,0.375,0.666,31.62,29.94,-11.96,4,5
19020.781,-0.247,0.4,0.662,36.99,42.18,-16.45,4,5
19020.796,-0.264,0.419,0.631,39.7,54.41,-22.52,4,5
19020.812,-0.362,0.483,0.686,35.8,64.64,-29.21,4,5
19020.828,-0.564,0.702,0.928,14.07,63.26,-30.27,4,5
19020.828,-0.685,0.896,1.109,-14.19,39.25,-14.62,4,5
19020.843,-0.521,0.782,1.042,-36.87,8.0,9.46,4,5
19020.843,-0.376,0.569,0.896,-43.82,-4.67,21.33,4,5
19020.859,-0.321,0.437,0.85,-40.71,-1.8,21.06,4,5
19020.875,-0.362,0.378,0.862,-28.29,2.81,13.79,4,5
19020.875,-0.409,0.337,0.883,-10.71,2.29,6.16,4,5
19020.89,-0.425,0.357,0.885,4.0,-2.99,0.24,4,5
19020.89,-0.416,0.399,0.866,13.15,-10.35,-3.85,4,5
19020.906,-0.402,0.439,0.839,18.19,-16.97,-5.49,4,5
19020.921,-0.401,0.48,0.81,19.35,-22.06,-5.37,4,5
19020.921,-0.409,0.534,0.807,14.56,-26.73,-3.3,4,5
19020.937,-0.39,0.546,0.781,4.58,-32.41,1.19,4,5
19020.953,-0.278,0.515,0.711,-6.81,-32.96,5.95,4,5
19020.953,-0.311,0.509,0.76,-14.16,-26.89,7.9,4,5
19020.968,-0.313,0.507,0.78,-21.27,-24.08,10.8,4,5
19020.984,-0.271,0.472,0.75,-23.07,-20.75,13.46,4,5
19020.984,-0.287,0.44,0.737,-20.29,-14.07,13.67,4,5
19021.0,-0.301,0.434,0.763,-16.08,-8.39,13.18,4,5
19021.015,-0.311,0.432,0.781,-10.65,-5.4,11.38,4,5
19021.015,-0.309,0.437,0.792,-6.74,-4.12,8.82,4,5
19021.031,-0.314,0.434,0.806,-2.84,-3.85,5.52,4,5
19021.031,-0.32,0.427,0.811,0.64,-4.58,2.38,4,5
19021.046,-0.307,0.434,0.805,3.05,-5.49,-0.03,4,5
19021.062,-0.304,0.444,0.799,5.83,-5.43,-1.89,4,5
19021.062,-0.303,0.454,0.786,6.65,-4.85,-2.78,4,5
19021.078,-0.293,0.458,0.771,4.88,-3.57,-3.02,4,5
19021.093,-0.303,0.457,0.772,2.78,-1.19,-3.05,4,5
19021.093,-0.335,0.464,0.791,0.37,0.06,-2.66,4,5
19021.109,-0.334,0.464,0.799,-3.3,-1.46,-1.07,4,5
19021.125,-0.314,0.444,0.786,-4.67,-2.96,-0.21,4,5
19021.125,-0.305,0.418,0.768,-1.16,-2.01,0.03,4,5
19021.14,-0.3,0.4,0.746,5.86,1.13,0.58,4,5
19021.156,-0.293,0.406,0.722,15.26,6.62,1.4,4,5
19021.156,-0.289,0.426,0.699,24.48,14.13,1.28,4,5
19021.171,-0.284,0.424,0.688,30.06,22.43,-0.46,4,5
19021.171,-0.261,0.401,0.665,32.29,32.44,-4.43,4,5
19021.187,-0.231,0.363,0.62,35.37,43.4,-10.83,4,5
19021.203,-0.276,0.347,0.546,44.1,59.33,-19.1,4,5
19021.203,-0.472,0.431,0.69,46.97,73.21,-27.77,4,5
19021.218,-0.705,0.711,1.083,27.53,63.81,-26.73,4,5
19021.234,-0.604,0.78,1.143,9.28,26.83,-9.83,4,5
19021.234,-0.438,0.721,0.97,-6.16,-6.16,3.85,4,5
19021.25,-0.312,0.563,0.827,-16.05,-10.25,10.71,4,5
19021.25,-0.284,0.488,0.825,-22.22,-4.24,9.34,4,5
19021.265,-0.338,0.45,0.832,-15.2,2.84,4.67,4,5
19021.281,-0.394,0.441,0.854,-5.92,4.61,0.95,4,5
19021.281,-0.401,0.436,0.857,1.28,0.61,-1.43,4,5
19021.296,-0.391,0.426,0.842,9.16,-4.55,-3.94,4,5
19021.312,-0.386,0.443,0.818,17.4,-8.85,-5.95,4,5
19021.312,-0.394,0.477,0.795,23.44,-12.33,-7.17,4,5
19021.328,-0.398,0.516,0.774,24.84,-16.36,-6.71,4,5
19021.343,-0.378,0.538,0.75,21.52,-19.62,-4.85,4,5
19021.343,-0.392,0.579,0.745,14.28,-21.12,-2.5,4,5
19021.359,-0.391,0.626,0.752,4.43,-22.77,4.64,4,5
19021.375,-0.265,0.529,0.676,-5.46,-22.61,11.05,4,5
19021.375,-0.328,0.441,0.682,-10.77,-14.31,5.8,4,5
19021.39,-0.401,0.457,0.742,-12.79,-10.13,2.5,4,5
19021.406,-0.353,0.487,0.755,-10.13,-12.09,5.8,4,5
19021.406,-0.347,0.482,0.757,-7.63,-12.7,4.09,4,5
19021.421,-0.366,0.476,0.769,-4.55,-12.57,2.5,4,5
19021.421,-0.362,0.492,0.777,-2.9,-14.1,2.32,4,5
19021.437,-0.334,0.51,0.78,-4.55,-16.05,2.14,4,5
19021.453,-0.319,0.505,0.771,-5.01,-15.96,1.62,4,5
19021.468,-0.311,0.501,0.754,-4.15,-13.55,1.28,4,5
19021.468,-0.296,0.503,0.745,-2.84,-9.77,1.22,4,5
19021.468,-0.302,0.51,0.738,-1.07,-4.91,0.95,4,5
19021.484,-0.313,0.513,0.739,-0.7,-0.46,0.61,4,5
19021.5,-0.328,0.512,0.758,-1.62,2.59,0.46,4,5
19021.515,-0.354,0.513,0.785,-3.51,0.7,0.34,4,5
19021.515,-0.359,0.51,0.805,-4.3,-2.56,0.85,4,5
19021.531,-0.345,0.51,0.811,-3.81,-4.67,1.37,4,5
19021.546,-0.328,0.498,0.793,-2.9,-5.22,1.77,4,5
19021.546,-0.314,0.492,0.784,-3.51,-4.97,2.32,4,5
19021.562,-0.298,0.492,0.773,-3.69,-3.36,2.44,4,5
19021.562,-0.3,0.482,0.765,-3.05,-0.27,1.95,4,5
19021.578,-0.313,0.478,0.77,-2.17,2.81,1.46,4,5
19021.593,-0.327,0.482,0.782,-1.1,4.15,0.89,4,5
19021.593,-0.332,0.486,0.792,-0.76,4.03,0.21,4,5
19021.609,-0.339,0.486,0.794,-0.24,3.14,-0.31,4,5
19021.625,-0.352,0.485,0.801,0.61,1.89,-0.37,4,5
19021.625,-0.356,0.496,0.808,0.46,-0.27,0.31,4,5
19021.64,-0.355,0.509,0.811,-1.25,-3.08,1.19,4,5
19021.64,-0.351,0.503,0.806,-3.81,-5.65,2.29,4,5
19021.656,-0.34,0.496,0.8,-6.74,-7.57,3.23,4,5
19021.671,-0.325,0.489,0.796,-8.97,-8.36,3.6,4,5
19021.671,-0.312,0.475,0.789,-9.28,-7.48,3.23,4,5
19021.687,-0.311,0.459,0.784,-7.66,-5.25,2.44,4,5
19021.703,-0.311,0.449,0.783,-4.55,-2.47,1.34,4,5
19021.703,-0.32,0.443,0.784,-0.43,-0.06,-0.37,4,5
19021.718,-0.342,0.443,0.795,3.23,1.13,-2.47,4,5
19021.718,-0.361,0.45,0.815,5.16,-0.12,-4.39,4,5
19021.734,-0.365,0.455,0.828,5.74,-3.45,-6.13,4,5
19021.75,-0.353,0.455,0.825,6.5,-7.23,-7.6,4,5
19021.765,-0.337,0.459,0.818,8.36,-9.37,-9.16,4,5
19021.765,-0.342,0.479,0.814,10.68,-9.55,-9.8,4,5
19021.781,-0.347,0.495,0.809,10.71,-10.16,-9.06,4,5
19021.781,-0.341,0.502,0.806,8.36,-11.05,-7.42,4,5
19021.796,-0.347,0.508,0.809,4.85,-11.63,-5.71,4,5
19021.812,-0.35,0.506,0.812,1.04,-13.09,-3.97,4,5
19021.828,-0.346,0.498,0.813,-2.26,-15.08,-2.35,4,5
19021.828,-0.337,0.485,0.804,-3.91,-16.51,-1.74,4,5
19021.843,-0.337,0.477,0.797,-4.3,-17.43,-2.17,4,5
19021.843,-0.323,0.469,0.788,-3.39,-18.04,-2.96,4,5
19021.859,-0.305,0.456,0.772,-1.25,-17.4,-4.36,4,5
19021.875,-0.299,0.454,0.762,1.92,-14.89,-6.01,4,5
19021.875,-0.302,0.456,0.756,4.7,-11.41,-7.97,4,5
19021.89,-0.316,0.469,0.759,6.13,-8.61,-9.61,4,5
19021.89,-0.332,0.487,0.773,5.55,-7.05,-10.38,4,5
19021.906,-0.346,0.501,0.786,3.81,-7.02,-9.64,4,5
19021.921,-0.35,0.511,0.797,0.92,-8.55,-7.45,4,5
19021.921,-0.347,0.522,0.806,-2.44,-10.56,-4.36,4,5
19021.937,-0.354,0.525,0.802,-6.13,-12.54,-1.19,4,5
19021.953,-0.344,0.52,0.801,-10.62,-15.26,2.11,4,5
19021.953,-0.32,0.51,0.793,-14.59,-16.94,4.64,4,5
19021.968,-0.301,0.489,0.78,-16.33,-16.24,5.86,4,5
19021.984,-0.295,0.477,0.773,-15.41,-13.61,6.41,4,5
19021.984,-0.287,0.471,0.774,-12.51,-10.53,6.44,4,5
19022.0,-0.28,0.461,0.771,-9.31,-6.9,5.13,4,5
19022.0,-0.287,0.451,0.778,-5.8,-3.05,2.56,4,5
19022.015,-0.3,0.45,0.796,-2.69,-0.76,-0.09,4,5
19022.031,-0.304,0.454,0.809,-0.4,-0.37,-2.14,4,5
19022.031,-0.299,0.457,0.814,1.22,-0.7,-3.72,4,5
19022.046,-0.305,0.46,0.808,2.62,-0.61,-5.22,4,5
19022.062,-0.323,0.472,0.817,3.27,-1.1,-5.83,4,5
19022.062,-0.328,0.488,0.822,2.38,-3.45,-5.22,4,5
19022.078,-0.308,0.492,0.817,0.21,-6.16,-3.88,4,5
19022.093,-0.287,0.484,0.804,-1.77,-6.81,-3.17,4,5
19022.093,-0.269,0.467,0.782,-1.56,-5.04,-2.87,4,5
19022.109,-0.269,0.454,0.771,0.76,-1.04,-3.17,4,5
19022.109,-0.301,0.454,0.78,3.6,2.38,-4.58,4,5
19022.125,-0.323,0.457,0.799,4.67,2.44,-6.01,4,5
19022.14,-0.313,0.453,0.799,4.88,0.24,-7.66,4,5
19022.14,-0.315,0.442,0.796,6.53,-1.04,-9.7,4,5
19022.156,-0.318,0.439,0.805,9.34,-1.83,-11.26,4,5
19022.171,-0.321,0.458,0.811,12.27,-2.5,-12.15,4,5
19022.171,-0.324,0.469,0.81,13.46,-3.69,-12.54,4,5
19022.187,-0.313,0.472,0.801,12.51,-4.7,-12.45,4,5
19022.203,-0.3,0.472,0.786,11.14,-4.15,-12.48,4,5
19022.203,-0.302,0.478,0.778,10.22,-1.95,-12.63,4,5
19022.218,-0.323,0.494,0.786,8.97,0.21,-12.67,4,5
19022.234,-0.328,0.502,0.795,6.2,0.61,-11.84,4,5
19022.234,-0.331,0.507,0.808,2.9,0.15,-11.02,4,5
19022.25,-0.351,0.499,0.825,1.4,-1.56,-10.25,4,5
19022.25,-0.344,0.494,0.828,1.13,-4.73,-8.82,4,5
19022.265,-0.321,0.489,0.813,2.29,-6.93,-7.63,4,5
19022.281,-0.309,0.489,0.798,4.36,-6.35,-7.2,4,5
19022.281,-0.304,0.48,0.795,6.41,-4.52,-6.93,4,5
19022.296,-0.302,0.469,0.782,9.92,-1.77,-6.1,4,5
19022.312,-0.303,0.489,0.781,14.56,1.83,-4.64,4,5
19022.328,-0.32,0.52,0.778,17.49,5.34,-3.27,4,5
19022.328,-0.337,0.539,0.784,14.13,6.78,-1.43,4,5
19022.343,-0.326,0.539,0.783,7.35,6.38,0.37,4,5
19022.343,-0.321,0.522,0.782,1.77,6.41,1.46,4,5
19022.359,-0.329,0.502,0.776,-1.13,6.9,2.17,4,5
19022.359,-0.322,0.496,0.774,-2.78,7.11,2.9,4,5
19022.375,-0.308,0.478,0.768,-2.62,8.18,2.32,4,5
19022.39,-0.304,0.456,0.761,-0.89,10.65,0.85,4,5
19022.39,-0.299,0.441,0.76,2.53,14.19,-0.98,4,5
19022.406,-0.29,0.425,0.732,9.49,19.2,-2.66,4,5
19022.421,-0.298,0.446,0.695,15.66,26.15,-4.73,4,5
19022.421,-0.35,0.539,0.821,10.83,29.91,-6.26,4,5
19022.437,-0.356,0.549,0.89,3.42,24.45,-4.79,4,5
19022.453,-0.269,0.483,0.812,-2.35,18.8,-2.62,4,5
19022.453,-0.27,0.504,0.811,-2.93,24.45,-5.22,4,5
19022.468,-0.457,0.598,0.957,0.95,27.95,-5.49,4,5
19022.484,-0.441,0.601,0.982,-0.06,13.06,1.43,4,5
19022.484,-0.387,0.57,0.913,-2.59,-7.87,5.98,4,5
19022.5,-0.358,0.514,0.849,-0.46,-10.01,4.79,4,5
19022.5,-0.351,0.47,0.801,4.21,-9.67,2.66,4,5
19022.515,-0.39,0.473,0.768,7.17,-9.43,0.7,4,5
19022.531,-0.431,0.519,0.795,7.63,-11.72,0.52,4,5
19022.531,-0.445,0.554,0.803,4.82,-18.34,3.66,4,5
19022.546,-0.316,0.51,0.711,-0.31,-22.61,7.6,4,5
19022.562,-0.335,0.508,0.716,-0.31,-16.36,5.58,4,5
19022.562,-0.405,0.522,0.79,-0.92,-11.87,5.71,4,5
19022.578,-0.358,0.547,0.786,-6.07,-15.26,8.3,4,5
19022.593,-0.341,0.521,0.76,-5.19,-13.82,9.89,4,5
19022.593,-0.364,0.519,0.77,-4.67,-10.53,10.77,4,5
19022.609,-0.372,0.527,0.781,-4.27,-9.13,11.41,4,5
19022.625,-0.374,0.521,0.783,-4.76,-9.28,11.51,4,5
19022.625,-0.37,0.514,0.787,-5.4,-9.16,10.99,4,5
19022.64,-0.38,0.5,0.791,-3.75,-8.64,10.28,4,5
19022.64,-0.376,0.496,0.791,-1.22,-8.51,9.8,4,5
19022.656,-0.369,0.494,0.793,1.71,-7.11,8.73,4,5
19022.671,-0.392,0.482,0.799,5.52,-4.27,6.96,4,5
19022.671,-0.427,0.481,0.809,9.13,-2.62,5.62,4,5
19022.687,-0.447,0.493,0.819,10.86,-3.51,4.82,4,5
19022.703,-0.459,0.489,0.82,12.02,-6.32,3.81,4,5
19022.703,-0.459,0.482,0.816,13.18,-9.4,3.05,4,5
19022.718,-0.448,0.479,0.796,15.75,-11.9,3.08,4,5
19022.734,-0.441,0.479,0.75,21.0,-11.32,3.91,4,5
19022.75,-0.46,0.479,0.753,21.73,-9.52,4.61,4,5
19022.75,-0.473,0.47,0.762,22.03,-7.63,5.43,4,5
19022.765,-0.491,0.466,0.777,22.4,-6.13,6.41,4,5
19022.781,-0.523,0.464,0.805,25.73,-6.41,7.57,4,5
19022.781,-0.557,0.468,0.839,32.17,-9.64,9.67,4,5
19022.796,-0.563,0.467,0.825,38.73,-15.9,12.48,4,5
19022.812,-0.55,0.479,0.813,42.51,-22.86,15.17,4,5
19022.812,-0.538,0.486,0.797,44.98,-29.6,17.0,4,5
19022.828,-0.503,0.482,0.77,45.5,-34.42,18.34,4,5
19022.843,-0.481,0.486,0.765,45.11,-35.74,18.37,4,5
19022.843,-0.474,0.472,0.764,46.3,-35.22,18.04,4,5
19022.859,-0.472,0.466,0.775,49.44,-35.86,17.82,4,5
19022.875,-0.455,0.444,0.739,54.63,-37.81,17.85,4,5
19022.875,-0.427,0.451,0.717,57.56,-39.0,17.49,4,5
19022.89,-0.391,0.435,0.676,59.69,-39.03,15.05,4,5
19022.89,-0.341,0.425,0.642,58.29,-36.93,9.92,4,5
19022.906,-0.347,0.426,0.648,55.67,-33.17,1.31,4,5
19022.921,-0.352,0.381,0.621,54.29,-31.16,-7.32,4,5
19022.921,-0.248,0.406,0.614,50.33,-30.21,-17.12,4,5
19022.937,-0.263,0.402,0.611,49.87,-24.02,-32.32,4,5
19022.953,-0.258,0.362,0.609,49.75,-18.95,-47.12,4,5
19022.968,-0.25,0.371,0.618,50.81,-15.08,-61.22,4,5
19022.968,-0.249,0.39,0.614,55.18,-10.93,-74.22,4,5
19022.984,-0.261,0.413,0.634,59.24,-7.11,-85.91,4,5
19022.984,-0.29,0.42,0.642,64.15,-4.39,-95.74,4,5
19023.0,-0.318,0.427,0.635,67.6,-3.63,-102.82,4,5
19023.0,-0.292,0.451,0.637,69.28,-5.01,-108.52,4,5
19023.015,-0.305,0.459,0.63,72.63,-4.7,-116.86,4,5
19023.031,-0.339,0.448,0.611,75.96,-4.91,-125.58,4,5
19023.046,-0.352,0.445,0.607,77.88,-7.72,-134.37,4,5
19023.046,-0.356,0.438,0.598,79.84,-11.47,-145.3,4,5
19023.062,-0.367,0.434,0.594,82.67,-14.47,-159.03,4,5
19023.062,-0.404,0.406,0.587,87.16,-17.06,-174.5,4,5
19023.078,-0.449,0.38,0.584,94.09,-21.06,-190.34,4,5
19023.093,-0.493,0.362,0.568,105.04,-25.79,-205.76,4,5
19023.093,-0.546,0.411,0.554,115.7,-28.99,-223.3,4,5
19023.109,-0.665,0.354,0.539,120.73,-46.85,-231.7,4,5
19023.125,-0.635,0.333,0.559,130.53,-65.71,-233.83,4,5
19023.125,-0.613,0.412,0.513,151.28,-68.97,-246.53,4,5
19023.14,-0.707,0.42,0.467,162.69,-72.27,-258.55,4,5
19023.14,-0.822,0.356,0.464,160.56,-93.54,-258.06,4,5
19023.156,-0.766,0.438,0.465,163.98,-109.47,-261.06,4,5
19023.171,-0.783,0.508,0.419,167.61,-111.82,-271.71,4,5
19023.171,-0.867,0.467,0.383,154.85,-126.16,-272.68,4,5
19023.187,-0.857,0.495,0.41,139.68,-139.68,-273.51,4,5
19023.203,-0.88,0.511,0.412,133.34,-145.09,-270.82,4,5
19023.203,-0.883,0.545,0.396,128.39,-148.08,-262.37,4,5
19023.218,-0.867,0.605,0.398,121.25,-146.55,-254.49,4,5
19023.234,-0.931,0.641,0.413,96.96,-137.76,-235.91,4,5
19023.25,-0.962,0.671,0.426,82.19,-134.01,-223.0,4,5
19023.25,-0.982,0.698,0.438,65.74,-130.44,-208.84,4,5
19023.265,-0.969,0.706,0.446,49.1,-125.61,-194.77,4,5
19023.281,-0.968,0.717,0.447,34.39,-116.06,-182.35,4,5
19023.281,-0.962,0.717,0.448,20.94,-106.36,-169.38,4,5
19023.296,-0.928,0.732,0.457,7.93,-95.98,-154.82,4,5
19023.312,-0.922,0.74,0.464,-4.39,-82.46,-142.92,4,5
19023.328,-0.918,0.688,0.482,-17.79,-73.12,-130.77,4,5
19023.328,-0.869,0.626,0.488,-25.61,-64.24,-120.79,4,5
19023.343,-0.829,0.602,0.469,-28.29,-52.37,-113.77,4,5
19023.343,-0.819,0.607,0.459,-34.06,-39.74,-107.24,4,5
19023.359,-0.8,0.624,0.462,-45.47,-26.83,-100.31,4,5
19023.375,-0.778,0.631,0.475,-59.69,-13.55,-94.79,4,5
19023.375,-0.764,0.6,0.504,-70.22,-0.73,-90.49,4,5
19023.39,-0.787,0.553,0.569,-70.56,9.43,-85.27,4,5
19023.39,-0.827,0.513,0.625,-60.67,15.2,-76.97,4,5
19023.406,-0.85,0.477,0.623,-45.69,16.88,-63.78,4,5
19023.421,-0.846,0.472,0.578,-33.88,17.09,-48.04,4,5
19023.437,-0.808,0.448,0.552,-31.34,16.54,-33.85,4,5
19023.437,-0.77,0.393,0.532,-35.65,17.43,-24.29,4,5
19023.453,-0.745,0.344,0.529,-41.6,20.63,-19.26,4,5
19023.453,-0.73,0.287,0.538,-43.82,25.94,-17.73,4,5
19023.468,-0.719,0.23,0.541,-37.26,36.56,-20.6,4,5
19023.484,-0.705,0.196,0.548,-29.48,41.87,-24.17,4,5
19023.484,-0.722,0.178,0.572,-19.2,44.5,-27.13,4,5
19023.5,-0.759,0.168,0.596,-9.43,44.37,-29.18,4,5
19023.515,-0.797,0.178,0.621,-1.71,39.25,-30.27,4,5
19023.515,-0.761,0.192,0.629,2.62,36.68,-31.28,4,5
19023.531,-0.783,0.198,0.635,2.75,32.35,-31.04,4,5
19023.531,-0.778,0.164,0.635,3.08,26.12,-30.7,4,5
19023.546,-0.776,0.153,0.626,5.28,21.91,-30.3,4,5
19023.578,-0.735,0.128,0.574,10.93,14.68,-32.38,4,5
19023.578,-0.728,0.118,0.55,15.38,15.08,-35.16,4,5
19023.593,-0.73,0.13,0.535,20.2,17.88,-37.78,4,5
19023.593,-0.725,0.139,0.521,22.71,20.51,-38.82,4,5
19023.609,-0.728,0.158,0.516,23.04,24.81,-39.43,4,5
19023.625,-0.766,0.181,0.534,22.31,29.79,-39.19,4,5
19023.625,-0.802,0.206,0.56,19.1,30.88,-35.52,4,5
19023.64,-0.797,0.224,0.568,12.88,28.87,-29.66,4,5
19023.656,-0.789,0.227,0.58,2.62,27.1,-23.41,4,5
19023.656,-0.766,0.201,0.574,-9.83,25.97,-16.88,4,5
19023.671,-0.742,0.162,0.569,-19.93,27.04,-10.86,4,5
19023.671,-0.739,0.139,0.563,-25.7,30.95,-5.4,4,5
19023.687,-0.738,0.119,0.563,-28.14,36.19,-0.43,4,5
19023.703,-0.747,0.1,0.568,-29.05,41.26,2.81,4,5
19023.703,-0.766,0.064,0.574,-27.19,44.86,3.66,4,5
19023.718,-0.801,0.043,0.575,-20.72,47.03,2.72,4,5
19023.734,-0.871,0.051,0.597,-8.33,43.28,-2.2,4,5
19023.75,-0.904,0.07,0.616,-7.48,35.77,-4.88,4,5
19023.75,-0.913,0.068,0.622,-8.06,24.87,-5.4,4,5
19023.765,-0.889,0.061,0.611,-8.15,14.28,-3.69,4,5
19023.781,-0.851,0.047,0.593,-6.5,7.29,-1.56,4,5
19023.781,-0.827,0.027,0.574,-2.78,4.36,-0.34,4,5
19023.796,-0.814,0.015,0.553,2.53,4.15,0.09,4,5
19023.812,-0.807,0.007,0.532,7.14,5.95,-0.03,4,5
19023.812,-0.805,-0.005,0.507,10.19,8.82,-0.82,4,5
19023.828,-0.8,-0.016,0.487,11.75,12.51,-1.31,4,5
19023.843,-0.814,-0.006,0.487,11.17,16.66,-2.2,4,5
19023.843,-0.822,0.007,0.487,8.45,19.96,-4.12,4,5
19023.859,-0.876,0.019,0.507,5.98,22.61,-6.29,4,5
19023.859,-0.934,0.035,0.552,4.76,19.56,-6.35,4,5
19023.875,-0.941,0.047,0.571,4.97,10.25,-4.3,4,5
19023.89,-0.908,0.045,0.568,5.98,0.34,-0.98,4,5
19023.89,-0.876,0.047,0.545,7.2,-5.49,2.26,4,5
19023.906,-0.841,0.045,0.519,6.44,-7.69,5.74,4,5
19023.921,-0.817,0.035,0.503,3.02,-6.29,8.76,4,5
19023.937,-0.812,0.02,0.496,-0.98,-2.66,9.77,4,5
19023.937,-0.825,0.004,0.502,-3.48,0.64,8.91,4,5
19023.953,-0.843,-0.012,0.508,-2.53,2.32,7.02,4,5
19023.953,-0.857,-0.016,0.512,1.74,2.62,4.61,4,5
19023.968,-0.863,-0.003,0.513,7.14,1.1,2.47,4,5
19023.984,-0.864,0.008,0.51,11.26,-2.01,0.43,4,5
19023.984,-0.858,0.026,0.512,13.34,-5.19,-1.34,4,5
19024.0,-0.855,0.047,0.521,13.58,-7.81,-2.35,4,5
19024.015,-0.855,0.061,0.526,11.72,-10.99,-2.53,4,5
19024.015,-0.844,0.064,0.522,9.49,-13.52,-2.17,4,5
19024.031,-0.831,0.054,0.518,8.27,-14.37,-1.13,4,5
19024.046,-0.818,0.04,0.505,8.64,-13.76,-0.03,4,5
19024.046,-0.799,0.024,0.488,10.41,-11.9,0.89,4,5
19024.062,-0.802,0.017,0.485,12.7,-9.22,0.24,4,5
19024.062,-0.815,0.016,0.49,15.41,-7.78,-2.01,4,5
19024.078,-0.823,0.031,0.501,17.49,-8.3,-4.85,4,5
19024.093,-0.837,0.052,0.517,19.23,-9.86,-7.08,4,5
19024.093,-0.855,0.07,0.524,21.0,-12.85,-7.35,4,5
19024.109,-0.852,0.09,0.526,21.09,-17.03,-5.92,4,5
19024.125,-0.83,0.093,0.525,18.89,-20.81,-3.3,4,5
19024.125,-0.817,0.093,0.52,15.93,-22.31,-0.49,4,5
19024.14,-0.815,0.092,0.521,13.31,-21.91,2.29,4,5
19024.156,-0.817,0.087,0.531,10.32,-21.61,4.21,4,5
19024.156,-0.827,0.077,0.539,8.03,-21.91,5.71,4,5
19024.171,-0.84,0.068,0.546,7.17,-22.95,6.68,4,5
19024.171,-0.845,0.069,0.553,6.47,-24.84,7.11,4,5
19024.187,-0.853,0.071,0.565,5.4,-27.74,7.2,4,5
19024.203,-0.85,0.059,0.571,4.67,-31.28,7.63,4,5
19024.203,-0.83,0.048,0.576,4.73,-34.09,9.06,4,5
19024.218,-0.817,0.04,0.572,5.89,-34.64,10.32,4,5
19024.234,-0.809,0.034,0.57,6.62,-33.6,11.08,4,5
19024.234,-0.798,0.021,0.58,6.93,-32.41,11.57,4,5
19024.25,-0.793,0.02,0.597,7.08,-30.88,12.24,4,5
19024.265,-0.809,0.031,0.62,6.5,-30.21,12.33,4,5
19024.265,-0.826,0.035,0.644,5.22,-32.01,12.48,4,5
19024.281,-0.834,0.032,0.668,4.3,-35.74,13.12,4,5
19024.281,-0.822,0.018,0.671,4.58,-40.31,14.16,4,5
19024.296,-0.802,0.009,0.681,6.32,-44.07,14.92,4,5
19024.312,-0.787,-0.011,0.696,10.56,-47.58,15.56,4,5
19024.312,-0.79,-0.005,0.662,18.04,-49.71,17.06,4,5
19024.328,-0.789,0.063,0.668,25.76,-49.17,22.19,4,5
19024.343,-0.797,0.081,0.689,37.29,-47.73,31.92,4,5
19024.359,-0.785,0.107,0.677,48.1,-45.35,44.86,4,5
19024.359,-0.794,0.204,0.635,48.59,-41.9,57.07,4,5
19024.375,-0.795,0.268,0.618,31.71,-39.64,65.49,4,5
19024.375,-0.817,0.233,0.662,4.76,-39.34,69.06,4,5
19024.39,-0.866,0.162,0.708,-18.77,-43.76,71.38,4,5
19024.39,-0.858,0.114,0.753,-35.19,-53.65,73.37,4,5
19024.406,-0.799,0.039,0.767,-40.01,-63.91,72.18,4,5
19024.421,-0.757,-0.031,0.752,-31.59,-71.11,66.32,4,5
19024.437,-0.728,-0.028,0.721,-18.28,-75.32,57.34,4,5
19024.437,-0.707,-0.021,0.679,-5.8,-76.82,47.06,4,5
19024.453,-0.723,-0.01,0.648,2.9,-76.54,36.56,4,5
19024.453,-0.73,0.01,0.662,12.27,-81.39,21.0,4,5
19024.468,-0.724,0.034,0.678,16.6,-85.6,15.72,4,5
19024.484,-0.71,0.059,0.665,15.32,-87.74,13.25,4,5
19024.484,-0.668,0.142,0.669,8.33,-88.35,12.27,4,5
19024.5,-0.637,0.128,0.658,-0.24,-87.65,11.75,4,5
19024.515,-0.594,0.11,0.645,-6.38,-83.01,12.7,4,5
19024.515,-0.558,0.127,0.633,-8.61,-74.62,13.67,4,5
19024.531,-0.54,0.125,0.606,-8.76,-63.78,12.94,4,5
19024.531,-0.546,0.144,0.613,-10.22,-51.64,10.1,4,5
19024.546,-0.574,0.16,0.648,-12.27,-40.68,6.87,4,5
19024.562,-0.615,0.165,0.676,-14.47,-32.81,4.0,4,5
19024.562,-0.597,0.155,0.694,-15.81,-28.87,2.23,4,5
19024.578,-0.559,0.155,0.679,-14.59,-24.26,0.67,4,5
19024.593,-0.535,0.163,0.643,-13.7,-17.24,-1.71,4,5
19024.593,-0.512,0.16,0.617,-13.76,-7.51,-4.52,4,5
19024.609,-0.492,0.159,0.606,-13.49,4.46,-7.93,4,5
19024.625,-0.506,0.16,0.614,-12.3,17.64,-11.41,4,5
19024.625,-0.544,0.182,0.651,-7.9,29.69,-13.15,4,5
19024.64,-0.605,0.219,0.71,-1.95,37.84,-13.89,4,5
19024.64,-0.674,0.29,0.796,-0.89,38.36,-13.15,4,5
19024.656,-0.685,0.308,0.861,-3.11,29.51,-8.7,4,5
19024.671,-0.648,0.295,0.868,-5.22,18.31,-2.08,4,5
19024.671,-0.61,0.318,0.85,-5.04,10.22,4.97,4,5
19024.687,-0.578,0.315,0.815,-6.5,5.07,11.44,4,5
19024.703,-0.541,0.297,0.787,-11.44,2.99,16.45,4,5
19024.718,-0.528,0.278,0.755,-14.74,4.91,19.17,4,5
19024.718,-0.526,0.261,0.732,-14.4,8.88,19.71,4,5
19024.734,-0.521,0.256,0.728,-11.17,13.25,18.43,4,5
19024.734,-0.529,0.277,0.749,-7.14,17.12,14.8,4,5
19024.75,-0.567,0.309,0.785,-5.62,18.13,9.34,4,5
19024.765,-0.593,0.313,0.82,-4.58,14.28,4.3,4,5
19024.765,-0.58,0.317,0.827,-1.1,8.73,2.14,4,5
19024.781,-0.55,0.322,0.808,2.66,5.31,1.83,4,5
19024.781,-0.52,0.315,0.795,5.52,5.19,2.5,4,5
19024.796,-0.504,0.308,0.79,8.67,7.66,3.81,4,5
19024.812,-0.496,0.309,0.786,11.02,11.41,5.98,4,5
19024.812,-0.51,0.305,0.786,9.67,15.63,8.12,4,5
19024.828,-0.547,0.294,0.804,5.92,18.16,9.98,4,5
19024.843,-0.571,0.282,0.824,3.66,17.7,12.79,4,5
19024.843,-0.589,0.286,0.833,2.53,15.38,15.96,4,5
19024.859,-0.611,0.287,0.843,-0.18,11.26,19.01,4,5
19024.875,-0.614,0.277,0.84,-4.55,4.97,23.07,4,5
19024.875,-0.586,0.246,0.81,-6.68,-0.34,27.31,4,5
19024.89,-0.561,0.222,0.765,-7.14,-1.53,30.34,4,5
19024.89,-0.544,0.203,0.736,-9.06,0.89,31.04,4,5
19024.906,-0.537,0.183,0.734,-11.6,5.22,30.03,4,5
19024.921,-0.544,0.161,0.749,-12.48,9.55,27.41,4,5
19024.937,-0.577,0.165,0.78,-10.47,12.97,23.16,4,5
19024.937,-0.602,0.163,0.815,-6.1,12.88,18.59,4,5
19024.953,-0.622,0.164,0.839,-0.61,9.64,13.58,4,5
19024.953,-0.638,0.172,0.845,6.07,4.43,8.36,4,5
19024.968,-0.622,0.178,0.828,11.66,-1.34,4.49,4,5
19024.984,-0.592,0.185,0.792,15.05,-4.58,1.59,4,5
19024.984,-0.575,0.196,0.774,16.88,-4.09,-0.27,4,5
19025.0,-0.568,0.201,0.771,17.15,-2.08,-1.31,4,5
19025.015,-0.581,0.209,0.782,17.24,0.0,-1.86,4,5
19025.015,-0.589,0.21,0.793,19.35,0.92,-1.74,4,5
19025.031,-0.593,0.214,0.791,22.58,0.7,-1.37,4,5
19025.046,-0.597,0.222,0.774,24.14,-0.31,-1.19,4,5
19025.046,-0.583,0.227,0.755,22.68,-1.46,-0.82,4,5
19025.062,-0.584,0.231,0.75,17.98,-1.77,-0.64,4,5
19025.062,-0.572,0.228,0.759,11.69,-2.08,-0.24,4,5
19025.078,-0.559,0.227,0.77,7.45,-2.23,0.55,4,5
19025.093,-0.57,0.236,0.774,6.78,-1.89,0.58,4,5
19025.093,-0.588,0.248,0.766,7.84,-2.11,0.31,4,5
19025.109,-0.599,0.266,0.751,8.15,-3.05,0.61,4,5
19025.125,-0.604,0.274,0.737,6.93,-3.54,1.59,4,5
19025.125,-0.606,0.273,0.726,5.58,-2.93,3.27,4,5
19025.14,-0.599,0.277,0.732,4.15,-1.71,5.46,4,5
19025.14,-0.603,0.276,0.749,3.08,-0.7,7.39,4,5
19025.156,-0.612,0.277,0.757,2.17,-0.89,8.61,4,5
19025.171,-0.604,0.277,0.757,0.76,-2.87,9.37,4,5
19025.171,-0.589,0.268,0.743,-0.31,-4.76,9.16,4,5
19025.187,-0.58,0.27,0.738,-0.82,-5.4,8.06,4,5
19025.203,-0.579,0.275,0.747,-0.95,-5.34,7.42,4,5
19025.203,-0.587,0.28,0.757,0.27,-5.43,7.42,4,5
19025.218,-0.599,0.286,0.758,2.29,-6.81,7.54,4,5
19025.234,-0.598,0.287,0.747,3.91,-9.03,7.29,4,5
19025.234,-0.592,0.278,0.732,5.4,-10.59,6.38,4,5
19025.25,-0.591,0.282,0.724,7.69,-10.56,5.01,4,5
19025.265,-0.6,0.296,0.729,10.19,-10.13,4.18,4,5
19025.265,-0.604,0.31,0.749,11.81,-10.86,4.52,4,5
19025.281,-0.609,0.332,0.774,14.68,-12.63,5.62,4,5
19025.281,-0.612,0.349,0.771,17.12,-15.96,7.69,4,5
19025.296,-0.59,0.355,0.761,17.55,-19.68,10.65,4,5
19025.312,-0.563,0.351,0.752,18.13,-21.97,12.88,4,5
19025.312,-0.52,0.351,0.75,18.68,-23.65,14.53,4,5
19025.328,-0.502,0.381,0.746,19.68,-22.83,14.77,4,5
19025.343,-0.525,0.421,0.751,18.46,-20.33,15.14,4,5
19025.343,-0.561,0.444,0.769,14.95,-18.68,16.48,4,5
19025.359,-0.573,0.449,0.756,11.41,-19.1,19.1,4,5
19025.375,-0.569,0.452,0.738,8.73,-19.38,22.49,4,5
19025.375,-0.551,0.439,0.708,6.87,-18.62,26.06,4,5
19025.39,-0.521,0.436,0.691,5.4,-16.36,28.87,4,5
19025.39,-0.499,0.424,0.674,5.16,-12.36,30.7,4,5
19025.406,-0.487,0.415,0.675,4.21,-7.54,31.92,4,5
19025.421,-0.497,0.413,0.681,3.27,-2.72,31.92,4,5
19025.421,-0.5,0.404,0.691,1.43,0.52,30.92,4,5
19025.437,-0.488,0.389,0.696,-0.03,4.12,26.0,4,5
19025.453,-0.488,0.372,0.705,2.69,5.19,22.68,4,5
19025.453,-0.501,0.368,0.733,7.97,4.27,19.59,4,5
19025.468,-0.523,0.38,0.751,13.34,1.13,18.01,4,5
19025.484,-0.548,0.434,0.764,16.79,-3.81,18.16,4,5
19025.484,-0.522,0.436,0.749,17.67,-9.4,19.59,4,5
19025.5,-0.505,0.438,0.726,18.46,-12.51,20.94,4,5
19025.5,-0.491,0.437,0.698,20.05,-12.73,21.91,4,5
19025.515,-0.481,0.454,0.689,20.97,-10.62,23.13,4,5
19025.531,-0.504,0.474,0.69,21.0,-6.35,23.93,4,5
19025.531,-0.527,0.477,0.689,20.08,-2.32,25.39,4,5
19025.546,-0.547,0.496,0.703,17.64,0.64,28.29,4,5
19025.562,-0.568,0.516,0.731,14.74,1.43,31.46,4,5
19025.562,-0.576,0.519,0.743,12.15,-0.03,35.4,4,5
19025.578,-0.564,0.506,0.746,9.83,-2.96,40.1,4,5
19025.593,-0.529,0.486,0.737,8.79,-5.71,43.7,4,5
19025.593,-0.498,0.469,0.716,7.69,-6.5,45.9,4,5
19025.609,-0.49,0.449,0.712,6.32,-5.25,46.66,4,5
19025.609,-0.482,0.436,0.72,7.45,-3.6,46.21,4,5
19025.625,-0.483,0.447,0.734,11.47,-2.08,44.19,4,5
19025.64,-0.496,0.453,0.738,16.08,-1.22,41.78,4,5
19025.64,-0.504,0.454,0.728,18.83,-0.67,40.16,4,5
19025.656,-0.494,0.462,0.727,19.65,0.09,39.67,4,5
19025.671,-0.489,0.459,0.732,20.54,1.13,38.94,4,5
19025.687,-0.481,0.463,0.744,21.33,1.89,37.81,4,5
19025.687,-0.483,0.47,0.754,22.55,1.65,35.37,4,5
19025.703,-0.49,0.477,0.766,23.35,0.12,32.17,4,5
19025.703,-0.492,0.472,0.769,24.81,-2.5,27.77,4,5
19025.718,-0.49,0.466,0.769,27.89,-5.31,22.43,4,5
19025.734,-0.486,0.463,0.749,33.14,-7.78,16.51,4,5
19025.734,-0.482,0.481,0.73,39.22,-9.06,10.71,4,5
19025.75,-0.501,0.52,0.721,44.16,-9.22,5.8,4,5
19025.75,-0.531,0.554,0.718,46.24,-10.19,4.33,4,5
19025.765,-0.54,0.598,0.705,46.08,-13.34,7.14,4,5
19025.781,-0.521,0.648,0.673,43.82,-15.08,13.28,4,5
19025.781,-0.506,0.698,0.625,37.45,-13.21,21.76,4,5
19025.796,-0.482,0.701,0.591,26.09,-8.7,32.47,4,5
19025.812,-0.458,0.646,0.597,14.1,-2.62,42.05,4,5
19025.812,-0.467,0.613,0.614,8.79,5.07,48.86,4,5
19025.828,-0.49,0.589,0.638,9.64,10.71,52.98,4,5
19025.843,-0.492,0.597,0.671,13.49,12.79,56.03,4,5
19025.843,-0.464,0.63,0.695,19.32,12.48,57.47,4,5
19025.859,-0.477,0.63,0.705,24.87,12.76,57.68,4,5
19025.875,-0.467,0.633,0.709,27.31,11.02,58.78,4,5
19025.875,-0.456,0.643,0.72,28.02,9.52,60.64,4,5
19025.89,-0.458,0.618,0.726,26.7,8.55,62.65,4,5
19025.89,-0.46,0.596,0.736,24.11,7.08,63.54,4,5
19025.906,-0.46,0.58,0.737,22.64,3.48,60.73,4,5
19025.921,-0.46,0.576,0.728,22.28,-1.28,54.84,4,5
19025.921,-0.445,0.576,0.718,22.86,-6.41,48.8,4,5
19025.937,-0.425,0.585,0.706,25.97,-10.19,43.09,4,5
19025.953,-0.416,0.606,0.679,30.64,-11.54,39.4,4,5
19025.968,-0.394,0.633,0.664,33.94,-11.2,37.63,4,5
19025.968,-0.388,0.659,0.659,34.76,-8.7,36.71,4,5
19025.984,-0.402,0.668,0.67,33.36,-6.5,36.23,4,5
19025.984,-0.412,0.67,0.676,31.16,-5.01,36.93,4,5
19026.0,-0.405,0.664,0.68,28.72,-5.37,38.12,4,5
19026.0,-0.393,0.662,0.687,27.34,-5.95,39.03,4,5
19026.015,-0.391,0.669,0.687,26.67,-6.41,39.55,4,5
19026.031,-0.38,0.676,0.685,25.61,-7.63,40.59,4,5
19026.031,-0.359,0.676,0.679,24.87,-8.45,41.96,4,5
19026.046,-0.35,0.682,0.686,24.69,-7.84,43.21,4,5
19026.062,-0.341,0.689,0.683,25.09,-7.05,44.56,4,5
19026.062,-0.33,0.69,0.669,24.69,-6.44,45.72,4,5
19026.078,-0.312,0.688,0.659,23.22,-5.25,46.33,4,5
19026.093,-0.291,0.679,0.65,21.7,-2.26,45.99,4,5
19026.093,-0.288,0.67,0.648,20.45,2.14,44.98,4,5
19026.109,-0.29,0.672,0.662,20.29,6.01,43.43,4,5
19026.109,-0.303,0.679,0.687,21.24,8.0,41.69,4,5
19026.125,-0.315,0.691,0.703,22.68,6.68,39.89,4,5
19026.14,-0.316,0.71,0.715,23.74,3.02,38.12,4,5
19026.156,-0.317,0.717,0.715,24.87,-1.86,36.07,4,5
19026.156,-0.305,0.711,0.702,25.73,-6.84,34.09,4,5
19026.171,-0.29,0.708,0.674,26.34,-10.47,32.29,4,5
19026.171,-0.272,0.706,0.653,26.86,-11.51,31.04,4,5
19026.187,-0.258,0.703,0.626,27.44,-11.29,29.66,4,5
19026.203,-0.239,0.701,0.612,27.25,-10.16,28.87,4,5
19026.203,-0.23,0.708,0.601,27.56,-7.81,28.02,4,5
19026.218,-0.225,0.726,0.612,28.69,-5.77,27.1,4,5
19026.234,-0.222,0.75,0.627,29.63,-5.4,26.52,4,5
19026.234,-0.22,0.778,0.635,29.66,-6.35,26.0,4,5
19026.25,-0.224,0.793,0.645,29.3,-7.87,25.73,4,5
19026.25,-0.22,0.801,0.642,29.15,-9.95,26.34,4,5
19026.265,-0.205,0.809,0.637,29.45,-11.51,27.56,4,5
19026.281,-0.198,0.814,0.622,29.6,-12.21,27.95,4,5
19026.281,-0.189,0.815,0.62,27.25,-12.57,28.96,4,5
19026.296,-0.175,0.816,0.619,25.03,-11.81,30.58,4,5
19026.312,-0.165,0.834,0.614,23.74,-10.01,32.47,4,5
19026.328,-0.174,0.875,0.614,21.64,-9.09,34.64,4,5
19026.328,-0.174,0.897,0.628,16.36,-10.8,39.49,4,5
19026.343,-0.157,0.919,0.635,10.16,-12.85,46.21,4,5
19026.343,-0.14,0.909,0.626,4.79,-13.7,53.77,4,5
19026.359,-0.128,0.887,0.622,-0.52,-13.25,60.95,4,5
19026.375,-0.127,0.863,0.615,-4.7,-11.69,67.11,4,5
19026.375,-0.129,0.85,0.606,-7.87,-9.98,71.69,4,5
19026.39,-0.129,0.839,0.602,-9.55,-8.97,74.1,4,5
19026.406,-0.123,0.829,0.593,-9.83,-9.16,74.68,4,5
19026.406,-0.108,0.824,0.592,-9.25,-10.04,73.82,4,5
19026.421,-0.095,0.799,0.597,2.35,-13.34,65.55,4,5
19026.421,-0.086,0.775,0.592,10.44,-14.89,58.81,4,5
19026.437,-0.072,0.769,0.588,18.04,-16.33,50.87,4,5
19026.453,-0.069,0.764,0.585,23.74,-17.58,43.49,4,5
19026.468,-0.062,0.79,0.597,26.31,-18.83,37.17,4,5
19026.468,-0.067,0.809,0.621,27.38,-20.29,32.38,4,5
19026.484,-0.075,0.822,0.626,28.38,-23.07,29.94,4,5
19026.484,-0.091,0.808,0.612,28.17,-26.52,31.65,4,5
19026.5,-0.016,0.884,0.618,27.34,-28.38,34.21,4,5
19026.5,-0.108,0.793,0.565,26.18,-34.52,39.58,4,5
19026.515,0.044,0.896,0.558,22.28,-39.03,37.54,4,5
19026.531,0.007,0.87,0.523,18.37,-34.67,32.23,4,5
19026.546,-0.03,0.793,0.53,13.76,-32.62,29.79,4,5
19026.546,-0.016,0.821,0.523,16.54,-32.65,27.68,4,5
19026.562,-0.039,0.822,0.499,21.03,-30.7,25.12,4,5
19026.562,-0.034,0.809,0.49,21.52,-29.21,23.29,4,5
19026.578,-0.041,0.836,0.496,21.85,-28.38,20.45,4,5
19026.593,-0.049,0.841,0.501,22.98,-28.81,19.56,4,5
19026.593,-0.043,0.855,0.5,23.96,-30.67,19.93,4,5
19026.609,-0.019,0.869,0.485,25.06,-31.98,20.6,4,5
19026.625,-0.001,0.867,0.468,25.67,-31.46,21.39,4,5
19026.625,0.006,0.869,0.461,27.38,-29.24,22.46,4,5
19026.64,0.015,0.871,0.453,29.82,-26.22,24.05,4,5
19026.64,0.019,0.865,0.44,31.31,-23.5,24.41,4,5
19026.656,0.018,0.856,0.438,31.37,-20.75,23.87,4,5
19026.671,0.026,0.864,0.457,31.4,-19.17,23.68,4,5
19026.671,0.016,0.864,0.471,33.57,-19.17,23.5,4,5
19026.687,0.024,0.877,0.468,36.19,-20.29,23.47,4,5
19026.703,0.041,0.898,0.457,37.78,-19.81,23.29,4,5
19026.703,0.033,0.902,0.448,37.97,-19.14,23.9,4,5
19026.718,0.043,0.905,0.434,37.72,-19.17,24.38,4,5
19026.734,0.05,0.907,0.427,37.54,-18.77,24.6,4,5
19026.734,0.053,0.894,0.413,37.45,-18.19,24.32,4,5
19026.75,0.06,0.879,0.386,37.78,-17.4,24.05,4,5
19026.75,0.079,0.885,0.38,37.14,-15.14,23.77,4,5
19026.765,0.084,0.89,0.377,35.92,-14.1,23.22,4,5
19026.781,0.083,0.887,0.386,35.4,-13.46,22.68,4,5
19026.781,0.088,0.899,0.387,35.92,-13.4,22.55,4,5
19026.796,0.108,0.913,0.39,36.29,-14.07,22.89,4,5
19026.812,0.128,0.923,0.391,36.29,-14.59,23.19,4,5
19026.828,0.131,0.923,0.385,35.98,-14.62,23.35,4,5
19026.828,0.136,0.926,0.374,35.07,-15.32,23.83,4,5
19026.843,0.159,0.928,0.37,33.97,-16.45,24.08,4,5
19026.843,0.165,0.93,0.358,32.75,-16.02,23.59,4,5
19026.859,0.166,0.923,0.362,31.1,-15.5,23.16,4,5
19026.859,0.168,0.912,0.362,31.16,-14.56,23.26,4,5
19026.875,0.17,0.925,0.365,32.53,-13.89,23.5,4,5
19026.89,0.174,0.937,0.363,32.93,-14.44,23.47,4,5
19026.906,0.185,0.939,0.358,32.29,-15.5,22.95,4,5
19026.906,0.187,0.934,0.349,31.86,-15.96,22.83,4,5
19026.921,0.188,0.928,0.335,31.01,-15.96,23.35,4,5
19026.921,0.209,0.927,0.332,30.03,-15.75,23.5,4,5
19026.937,0.219,0.937,0.326,30.55,-14.8,23.35,4,5
19026.953,0.22,0.951,0.329,31.04,-14.04,23.1,4,5
19026.953,0.206,0.956,0.327,30.34,-14.37,23.01,4,5
19026.968,0.215,0.951,0.328,28.66,-16.05,24.29,4,5
19026.984,0.228,0.95,0.319,28.69,-16.72,25.91,4,5
19026.984,0.23,0.945,0.304,29.08,-15.81,27.19,4,5
19027.0,0.23,0.947,0.298,27.41,-13.92,28.32,4,5
19027.0,0.227,0.942,0.297,25.39,-12.05,29.48,4,5
19027.015,0.224,0.934,0.289,23.47,-10.59,31.1,4,5
19027.031,0.232,0.938,0.276,21.27,-9.58,32.81,4,5
19027.031,0.245,0.934,0.271,19.32,-8.61,33.48,4,5
19027.046,0.238,0.922,0.264,17.94,-7.35,33.88,4,5
19027.062,0.248,0.927,0.269,17.21,-6.99,34.21,4,5
19027.062,0.273,0.92,0.272,18.37,-6.96,34.27,4,5
19027.078,0.274,0.922,0.283,18.25,-4.21,36.5,4,5
19027.093,0.219,0.919,0.273,19.93,-2.32,36.81,4,5
19027.093,0.22,0.893,0.255,20.48,-5.95,36.71,4,5
19027.109,0.227,0.887,0.248,21.76,-8.3,36.26,4,5
19027.109,0.242,0.868,0.227,24.69,-8.79,35.34,4,5
19027.125,0.267,0.862,0.209,25.15,-9.31,33.63,4,5
19027.14,0.278,0.859,0.222,24.69,-7.45,31.8,4,5
19027.14,0.276,0.851,0.221,23.77,-4.64,30.55,4,5
19027.156,0.287,0.846,0.22,20.36,-3.3,30.61,4,5
19027.171,0.292,0.835,0.225,17.49,-1.37,30.12,4,5
19027.171,0.287,0.831,0.236,16.39,0.12,29.21,4,5
19027.187,0.261,0.834,0.27,18.43,-0.06,27.8,4,5
19027.203,0.252,0.833,0.282,23.47,-3.51,27.59,4,5
19027.203,0.268,0.845,0.264,27.68,-9.0,27.74,4,5
19027.218,0.297,0.847,0.238,28.08,-14.62,26.73,4,5
19027.234,0.317,0.836,0.222,26.95,-18.04,24.78,4,5
19027.234,0.331,0.829,0.194,27.5,-18.13,23.62,4,5
19027.25,0.328,0.823,0.169,28.02,-16.33,22.95,4,5
19027.25,0.344,0.82,0.157,27.34,-14.19,22.16,4,5
19027.265,0.344,0.82,0.151,26.43,-11.47,20.78,4,5
19027.281,0.353,0.821,0.154,26.55,-9.4,19.35,4,5
19027.296,0.356,0.836,0.174,27.28,-7.45,18.34,4,5
19027.296,0.351,0.84,0.172,28.47,-6.38,17.52,4,5
19027.312,0.357,0.832,0.177,28.57,-7.14,17.64,4,5
19027.312,0.364,0.833,0.181,28.84,-7.57,17.58,4,5
19027.328,0.361,0.819,0.161,30.58,-7.45,16.36,4,5
19027.343,0.365,0.809,0.143,32.11,-7.17,14.89,4,5
19027.343,0.377,0.823,0.135,33.94,-7.2,13.15,4,5
19027.359,0.38,0.828,0.118,35.62,-6.26,10.53,4,5
19027.375,0.391,0.83,0.104,34.82,-4.79,8.51,4,5
19027.375,0.397,0.838,0.097,32.72,-2.93,6.35,4,5
19027.39,0.393,0.852,0.097,30.12,-1.5,4.39,4,5
19027.39,0.398,0.889,0.12,28.26,-2.29,2.5,4,5
19027.406,0.385,0.922,0.132,29.57,-8.12,0.21,4,5
19027.421,0.368,0.929,0.142,30.43,-13.82,2.69,4,5
19027.421,0.379,0.943,0.143,30.37,-17.76,6.41,4,5
19027.437,0.401,0.936,0.09,28.32,-19.71,9.98,4,5
19027.453,0.416,0.93,0.083,25.15,-21.27,11.69,4,5
19027.453,0.399,0.899,0.057,24.17,-20.08,11.99,4,5
19027.468,0.39,0.885,0.044,23.8,-18.19,12.12,4,5
19027.484,0.385,0.882,0.035,24.05,-17.21,11.75,4,5
19027.484,0.399,0.869,0.026,23.65,-17.55,10.53,4,5
19027.5,0.408,0.864,0.028,23.22,-16.82,8.51,4,5
19027.515,0.417,0.857,0.037,23.77,-15.2,6.71,4,5
19027.515,0.405,0.852,0.048,26.22,-13.34,5.95,4,5
19027.531,0.381,0.852,0.031,27.25,-11.66,6.81,4,5
19027.531,0.375,0.859,0.033,23.13,-11.96,8.42,4,5
19027.546,0.386,0.86,0.019,17.88,-13.09,9.8,4,5
19027.562,0.408,0.858,0.018,14.1,-15.14,10.41,4,5
19027.578,0.404,0.858,0.016,12.88,-14.77,10.68,4,5
19027.578,0.385,0.837,-0.002,14.01,-12.88,12.33,4,5
19027.593,0.392,0.832,-0.01,13.7,-11.72,15.41,4,5
19027.593,0.382,0.827,-0.019,12.48,-9.92,17.67,4,5
19027.609,0.383,0.816,-0.032,10.22,-7.81,19.87,4,5
19027.609,0.391,0.816,-0.023,7.66,-6.68,21.06,4,5
19027.625,0.405,0.812,-0.021,7.45,-5.98,20.36,4,5
19027.64,0.415,0.807,-0.026,8.15,-5.43,19.44,4,5
19027.64,0.414,0.812,-0.02,9.16,-3.51,18.46,4,5
19027.656,0.394,0.812,-0.002,9.8,-1.74,17.73,4,5
19027.671,0.392,0.798,-0.004,9.52,-2.44,17.73,4,5
19027.671,0.416,0.807,-0.002,8.55,-5.37,17.52,4,5
19027.687,0.449,0.816,-0.002,9.0,-8.15,15.87,4,5
19027.703,0.461,0.824,-0.006,10.59,-9.92,13.25,4,5
19027.703,0.452,0.839,-0.02,12.36,-10.04,11.35,4,5
19027.718,0.439,0.848,-0.035,11.93,-9.55,10.74,4,5
19027.734,0.446,0.844,-0.062,10.28,-9.46,10.86,4,5
19027.734,0.477,0.846,-0.062,8.36,-9.25,10.65,4,5
19027.75,0.478,0.845,-0.077,9.25,-6.38,10.16,4,5
19027.765,0.484,0.853,-0.085,10.9,-3.75,9.74,4,5
19027.765,0.493,0.874,-0.079,12.7,-1.07,8.51,4,5
19027.781,0.486,0.904,-0.061,14.13,1.43,6.99,4,5
19027.781,0.476,0.927,-0.047,15.59,1.56,5.77,4,5
19027.796,0.487,0.96,-0.021,16.11,-1.56,5.16,4,5
19027.812,0.479,0.97,-0.026,18.86,-4.39,4.76,4,5
19027.812,0.489,0.975,-0.032,20.87,-7.42,6.35,4,5
19027.828,0.477,0.976,-0.047,21.88,-9.43,8.27,4,5
19027.843,0.458,0.947,-0.072,20.48,-9.89,11.63,4,5
19027.843,0.445,0.916,-0.098,16.51,-9.22,16.48,4,5
19027.859,0.476,0.892,-0.133,10.35,-8.09,21.58,4,5
19027.875,0.52,0.872,-0.124,5.16,-6.62,22.92,4,5
19027.875,0.531,0.857,-0.122,5.04,-2.78,21.64,4,5
19027.89,0.534,0.859,-0.098,6.13,0.27,20.2,4,5
19027.89,0.503,0.852,-0.077,9.74,3.33,18.43,4,5
19027.906,0.464,0.838,-0.075,12.82,5.28,18.43,4,5
19027.921,0.465,0.837,-0.058,12.42,3.45,20.42,4,5
19027.921,0.505,0.851,-0.047,11.47,0.34,22.34,4,5
19027.937,0.524,0.862,-0.036,12.12,-1.95,22.16,4,5
19027.953,0.504,0.849,-0.039,13.79,-3.05,21.39,4,5
19027.953,0.482,0.828,-0.052,14.25,-4.49,22.52,4,5
19027.968,0.494,0.809,-0.084,12.7,-6.1,24.66,4,5
19027.984,0.528,0.797,-0.095,8.61,-7.54,24.84,4,5
19027.984,0.538,0.769,-0.085,6.99,-6.62,22.37,4,5
19028.0,0.526,0.73,-0.075,10.77,-3.57,20.17,4,5
19028.0,0.51,0.718,-0.074,15.75,-0.61,18.77,4,5
19028.015,0.487,0.707,-0.079,17.37,1.37,16.63,4,5
19028.031,0.483,0.696,-0.074,14.28,1.37,14.37,4,5
19028.031,0.478,0.692,-0.072,9.98,0.18,12.48,4,5
19028.046,0.49,0.688,-0.074,6.87,-1.16,11.72,4,5
19028.062,0.502,0.705,-0.067,5.16,-2.11,11.38,4,5
19028.078,0.489,0.709,-0.065,4.79,-1.77,11.54,4,5
19028.093,0.466,0.691,-0.065,4.39,-1.5,13.0,4,5
19028.093,0.445,0.67,-0.083,3.14,-0.49,16.54,4,5
19028.093,0.437,0.664,-0.1,-0.58,0.27,20.05,4,5
19028.109,0.446,0.645,-0.116,-5.04,0.15,21.49,4,5
19028.125,0.468,0.637,-0.13,-9.37,0.98,20.87,4,5
19028.125,0.501,0.639,-0.126,-11.84,2.75,18.74,4,5
19028.14,0.51,0.641,-0.107,-11.93,6.26,16.42,4,5
19028.156,0.493,0.641,-0.098,-11.11,9.7,14.98,4,5
19028.156,0.496,0.655,-0.086,-12.6,9.83,13.55,4,5
19028.171,0.508,0.673,-0.067,-14.31,7.87,10.1,4,5
19028.171,0.504,0.673,-0.045,-12.73,5.55,5.19,4,5
19028.187,0.489,0.67,-0.04,-6.9,2.04,0.31,4,5
19028.203,0.489,0.69,-0.049,-1.07,-2.17,-3.48,4,5
19028.203,0.491,0.713,-0.08,1.68,-5.83,-6.81,4,5
19028.218,0.518,0.727,-0.103,0.24,-9.43,-9.4,4,5
19028.234,0.548,0.742,-0.109,-1.4,-10.77,-11.99,4,5
19028.234,0.563,0.757,-0.117,0.21,-9.58,-15.23,4,5
19028.25,0.558,0.777,-0.119,4.33,-7.48,-18.56,4,5
19028.265,0.537,0.792,-0.121,9.03,-5.8,-21.85,4,5
19028.265,0.524,0.794,-0.128,11.84,-4.33,-23.29,4,5
19028.281,0.529,0.813,-0.136,10.77,-4.06,-23.44,4,5
19028.281,0.552,0.843,-0.117,7.08,-3.91,-23.87,4,5
19028.296,0.545,0.855,-0.106,5.46,-3.2,-24.81,4,5
19028.312,0.549,0.864,-0.096,6.44,-3.48,-23.96,4,5
19028.328,0.535,0.88,-0.099,9.09,-3.85,-22.25,4,5
19028.328,0.524,0.88,-0.116,11.23,-4.43,-20.36,4,5
19028.343,0.527,0.874,-0.134,11.54,-4.88,-18.46,4,5
19028.343,0.53,0.865,-0.151,11.08,-3.66,-16.45,4,5
19028.359,0.55,0.864,-0.161,10.47,-1.62,-15.11,4,5
19028.375,0.563,0.875,-0.153,11.17,1.37,-14.68,4,5
19028.375,0.564,0.88,-0.143,12.02,4.67,-14.5,4,5
19028.39,0.546,0.891,-0.12,8.61,7.69,-10.53,4,5
19028.39,0.53,0.9,-0.106,4.46,6.35,-6.93,4,5
19028.406,0.516,0.907,-0.088,0.67,4.0,-2.47,4,5
19028.421,0.501,0.892,-0.08,-2.47,0.49,2.35,4,5
19028.437,0.535,0.855,-0.11,-4.85,-2.35,5.13,4,5
19028.437,0.559,0.84,-0.123,-5.77,-3.78,5.43,4,5
19028.453,0.566,0.836,-0.129,-4.97,-3.14,3.97,4,5
19028.453,0.55,0.833,-0.132,-3.42,-1.65,1.59,4,5
19028.468,0.552,0.83,-0.124,-2.99,-0.67,-0.18,4,5
19028.484,0.54,0.83,-0.113,-1.5,0.67,-1.68,4,5
19028.484,0.525,0.822,-0.11,1.28,2.29,-1.68,4,5
19028.5,0.53,0.84,-0.106,3.05,2.87,-0.49,4,5
19028.5,0.528,0.856,-0.101,3.66,2.69,-0.09,4,5
19028.515,0.53,0.856,-0.098,2.56,1.83,0.18,4,5
19028.531,0.527,0.859,-0.087,1.68,1.04,0.85,4,5
19028.531,0.514,0.853,-0.085,2.26,0.82,2.9,4,5
19028.546,0.52,0.845,-0.097,1.74,-0.27,5.25,4,5
19028.562,0.526,0.825,-0.118,0.18,-0.85,6.01,4,5
19028.562,0.533,0.812,-0.126,-1.5,-0.61,5.16,4,5
19028.578,0.538,0.811,-0.121,-1.56,0.12,2.99,4,5
19028.593,0.538,0.807,-0.12,0.0,1.71,1.01,4,5
19028.593,0.532,0.813,-0.114,2.14,3.45,-0.61,4,5
19028.609,0.523,0.822,-0.106,3.94,3.81,-1.95,4,5
19028.609,0.509,0.833,-0.093,4.58,3.57,-2.56,4,5
19028.625,0.501,0.841,-0.085,4.15,1.77,-1.86,4,5
19028.64,0.507,0.843,-0.089,2.69,-0.76,-0.18,4,5
19028.656,0.513,0.837,-0.095,0.89,-2.69,1.71,4,5
19028.656,0.526,0.83,-0.109,-1.83,-3.6,3.72,4,5
19028.671,0.546,0.827,-0.115,-4.64,-3.81,4.39,4,5
19028.671,0.543,0.81,-0.116,-5.77,-2.5,3.81,4,5
19028.687,0.534,0.795,-0.119,-4.33,-0.73,3.81,4,5
19028.703,0.536,0.799,-0.125,-2.5,0.61,3.88,4,5
19028.703,0.535,0.795,-0.127,-1.95,2.32,2.93,4,5
19028.718,0.533,0.796,-0.117,-2.01,3.94,1.65,4,5
19028.734,0.526,0.807,-0.096,-1.25,4.97,0.12,4,5
19028.734,0.514,0.816,-0.082,1.1,4.49,-1.19,4,5
19028.75,0.524,0.834,-0.077,1.8,1.68,-1.31,4,5
19028.75,0.532,0.836,-0.081,0.73,-1.16,-1.28,4,5
19028.765,0.526,0.826,-0.089,-0.4,-2.2,-0.7,4,5
19028.781,0.521,0.822,-0.104,-1.04,-2.01,0.89,4,5
19028.781,0.533,0.822,-0.116,-2.62,-2.11,2.53,4,5
19028.796,0.54,0.821,-0.121,-4.15,-2.01,2.32,4,5
19028.812,0.54,0.809,-0.12,-3.39,-1.31,0.95,4,5
19028.812,0.54,0.807,-0.115,-0.98,-0.7,0.21,4,5
19028.828,0.543,0.815,-0.116,0.89,0.55,-0.03,4,5
19028.843,0.536,0.816,-0.114,1.13,1.89,-0.7,4,5
19028.843,0.525,0.81,-0.105,0.27,2.84,-1.56,4,5
19028.859,0.518,0.818,-0.091,0.31,2.69,-1.71,4,5
19028.875,0.515,0.83,-0.086,0.76,1.34,-1.65,4,5
19028.875,0.517,0.838,-0.087,1.01,-1.04,-1.98,4,5
