timestamp,ax,ay,az,gx,gy,gz,orient_label,motion_label
17627.359,-0.288,-0.32,-0.922,3.33,-2.38,0.89,2,6
17627.359,-0.286,-0.319,-0.918,-1.1,-3.57,-4.0,2,6
17627.375,-0.279,-0.33,-0.909,-4.58,-4.58,-7.42,2,6
17627.375,-0.279,-0.343,-0.908,-4.24,-4.61,-9.19,2,6
17627.39,-0.279,-0.33,-0.917,-2.08,-3.91,-9.0,2,6
17627.406,-0.28,-0.313,-0.916,-0.95,-2.59,-7.48,2,6
17627.406,-0.282,-0.306,-0.908,-0.55,-1.07,-5.16,2,6
17627.421,-0.282,-0.308,-0.902,0.76,-0.03,-2.53,2,6
17627.437,-0.284,-0.3,-0.896,2.32,0.4,0.24,2,6
17627.437,-0.284,-0.288,-0.898,3.27,0.43,2.29,2,6
17627.453,-0.278,-0.297,-0.899,3.3,0.27,3.39,2,6
17627.468,-0.283,-0.307,-0.906,2.87,0.21,3.11,2,6
17627.468,-0.281,-0.307,-0.912,2.01,-0.12,2.84,2,6
17627.484,-0.278,-0.321,-0.908,0.67,-0.24,2.17,2,6
17627.5,-0.286,-0.33,-0.909,0.46,0.12,0.82,2,6
17627.5,-0.285,-0.313,-0.912,0.27,0.31,-0.92,2,6
17627.515,-0.29,-0.303,-0.91,-0.61,0.4,-2.99,2,6
17627.531,-0.294,-0.299,-0.902,-2.66,0.7,-4.21,2,6
17627.546,-0.297,-0.3,-0.898,-1.8,1.31,-3.17,2,6
17627.546,-0.296,-0.305,-0.893,0.27,2.11,-1.04,2,6
17627.562,-0.298,-0.308,-0.888,2.32,2.5,0.98,2,6
17627.578,-0.308,-0.317,-0.881,2.96,2.41,2.29,2,6
17627.578,-0.31,-0.317,-0.882,2.93,1.71,2.53,2,6
17627.593,-0.312,-0.324,-0.877,2.08,0.98,2.01,2,6
17627.609,-0.314,-0.339,-0.872,2.01,0.24,1.56,2,6
17627.609,-0.321,-0.334,-0.875,2.78,-0.27,1.34,2,6
17627.625,-0.323,-0.319,-0.877,2.29,-1.13,1.13,2,6
17627.625,-0.323,-0.322,-0.873,1.07,-2.08,1.25,2,6
17627.64,-0.329,-0.327,-0.865,0.92,-3.33,1.95,2,6
17627.656,-0.337,-0.311,-0.855,0.98,-5.13,2.75,2,6
17627.656,-0.352,-0.308,-0.84,0.61,-7.08,4.09,2,6
17627.671,-0.368,-0.33,-0.806,1.68,-9.55,7.14,2,6
17627.687,-0.388,-0.348,-0.753,4.15,-13.46,11.05,2,6
17627.703,-0.458,-0.391,-0.631,11.54,-27.86,19.56,2,6
17627.718,-0.504,-0.403,-0.588,20.23,-38.64,27.77,2,6
17627.718,-0.567,-0.388,-0.565,28.78,-51.55,38.51,2,6
17627.734,-0.629,-0.377,-0.522,37.08,-67.14,51.45,2,6
17627.75,-0.67,-0.362,-0.514,46.88,-84.75,64.94,2,6
17627.75,-0.708,-0.321,-0.501,57.59,-103.58,76.27,2,6
17627.765,-0.751,-0.268,-0.491,68.0,-124.45,85.7,2,6
17627.781,-0.81,-0.216,-0.498,75.84,-146.43,93.94,2,6
17627.781,-0.877,-0.168,-0.511,79.87,-168.13,101.5,2,6
17627.796,-0.951,-0.114,-0.528,79.68,-188.57,109.13,2,6
17627.796,-1.041,-0.094,-0.528,75.56,-207.07,119.33,2,6
17627.812,-1.119,-0.101,-0.534,71.38,-224.1,130.89,2,6
17627.828,-1.175,-0.112,-0.546,66.56,-238.87,140.9,2,6
17627.828,-1.223,-0.136,-0.553,63.72,-248.91,146.92,2,6
17627.843,-1.258,-0.141,-0.565,65.07,-252.94,150.15,2,6
17627.859,-1.265,-0.11,-0.603,66.9,-252.94,151.92,2,6
17627.859,-1.293,-0.056,-0.647,65.65,-250.19,151.62,2,6
17627.875,-1.338,-0.003,-0.684,60.7,-245.58,152.59,2,6
17627.89,-1.372,0.059,-0.707,51.09,-241.43,156.41,2,6
17627.89,-1.386,0.11,-0.7,38.24,-237.46,162.42,2,6
17627.906,-1.374,0.162,-0.649,24.48,-232.8,169.35,2,6
17627.921,-1.324,0.201,-0.589,16.97,-231.03,177.71,2,6
17627.921,-1.342,0.158,-0.589,26.03,-232.7,185.34,2,6
17627.937,-1.366,0.148,-0.566,41.44,-235.72,196.23,2,6
17627.937,-1.356,0.162,-0.535,61.13,-238.29,211.8,2,6
17627.953,-1.361,0.176,-0.542,84.72,-236.15,230.14,2,6
17627.968,-1.341,0.211,-0.548,116.58,-214.51,270.64,2,6
17627.968,-1.299,0.242,-0.538,126.19,-196.81,285.01,2,6
17627.984,-1.269,0.251,-0.508,132.51,-177.92,294.32,2,6
17628.0,-1.237,0.258,-0.468,134.59,-162.02,297.34,2,6
17628.0,-1.128,0.24,-0.39,131.23,-149.91,293.92,2,6
17628.015,-1.078,0.258,-0.344,119.48,-141.79,286.45,2,6
17628.015,-1.042,0.318,-0.302,99.34,-139.29,275.86,2,6
17628.031,-1.024,0.37,-0.282,68.03,-144.47,264.38,2,6
17628.046,-1.005,0.395,-0.253,24.66,-157.93,254.07,2,6
17628.046,-0.969,0.385,-0.215,-23.13,-176.73,242.71,2,6
17628.062,-0.916,0.359,-0.184,-71.08,-195.5,230.08,2,6
17628.078,-0.852,0.319,-0.165,-115.36,-210.46,217.81,2,6
17628.078,-0.788,0.253,-0.145,-149.94,-219.06,205.42,2,6
17628.093,-0.737,0.195,-0.107,-173.83,-222.51,192.75,2,6
17628.109,-0.675,0.149,-0.068,-189.7,-223.06,179.88,2,6
17628.109,-0.628,0.127,-0.027,-199.13,-220.47,166.2,2,6
17628.125,-0.595,0.135,0.036,-202.46,-215.95,154.36,2,6
17628.14,-0.582,0.135,0.099,-198.98,-211.62,144.54,2,6
17628.14,-0.589,0.144,0.142,-192.66,-208.59,136.81,2,6
17628.156,-0.563,0.157,0.185,-185.74,-204.69,131.17,2,6
17628.171,-0.538,0.153,0.214,-176.49,-196.91,126.1,2,6
17628.171,-0.526,0.141,0.245,-164.89,-186.01,121.01,2,6
17628.187,-0.484,0.154,0.326,-145.21,-162.18,106.36,2,6
17628.203,-0.473,0.149,0.374,-140.29,-149.24,98.03,2,6
17628.218,-0.485,0.153,0.417,-136.72,-135.96,91.22,2,6
17628.218,-0.485,0.162,0.456,-133.58,-124.36,85.54,2,6
17628.234,-0.479,0.185,0.503,-131.6,-113.22,79.26,2,6
17628.25,-0.49,0.2,0.545,-127.87,-101.5,73.03,2,6
17628.25,-0.509,0.216,0.593,-122.5,-88.93,67.38,2,6
17628.265,-0.531,0.241,0.661,-115.63,-76.39,62.96,2,6
17628.281,-0.559,0.261,0.722,-108.07,-65.03,58.93,2,6
17628.281,-0.579,0.28,0.781,-103.12,-55.64,54.87,2,6
17628.296,-0.576,0.303,0.832,-97.99,-46.42,50.87,2,6
17628.296,-0.597,0.33,0.856,-89.36,-39.0,45.01,2,6
17628.312,-0.619,0.33,0.872,-76.66,-34.06,39.67,2,6
17628.328,-0.614,0.347,0.889,-62.17,-31.5,37.2,2,6
17628.328,-0.595,0.354,0.887,-47.64,-28.87,36.41,2,6
17628.343,-0.579,0.339,0.871,-35.89,-26.61,34.42,2,6
17628.359,-0.551,0.324,0.848,-27.47,-24.17,32.78,2,6
17628.359,-0.525,0.309,0.828,-21.79,-20.54,32.38,2,6
17628.375,-0.499,0.298,0.816,-18.86,-17.52,32.23,2,6
17628.375,-0.461,0.276,0.807,-17.61,-15.53,32.38,2,6
17628.39,-0.434,0.261,0.806,-17.61,-12.67,32.14,2,6
17628.406,-0.423,0.262,0.814,-19.14,-9.77,30.58,2,6
17628.406,-0.411,0.255,0.827,-21.15,-8.85,27.34,2,6
17628.421,-0.396,0.245,0.829,-23.62,-8.85,22.0,2,6
17628.437,-0.391,0.258,0.839,-25.67,-8.61,15.32,2,6
17628.453,-0.396,0.265,0.846,-25.42,-8.36,8.82,2,6
17628.453,-0.397,0.264,0.852,-22.52,-7.93,3.3,2,6
17628.468,-0.403,0.275,0.858,-18.1,-6.84,-1.01,2,6
17628.468,-0.404,0.281,0.871,-12.7,-6.41,-3.91,2,6
17628.484,-0.397,0.294,0.888,-6.32,-6.23,-5.04,2,6
17628.5,-0.386,0.312,0.892,-0.55,-6.35,-4.73,2,6
17628.5,-0.386,0.332,0.892,2.17,-7.2,-4.46,2,6
17628.515,-0.386,0.349,0.9,1.8,-8.97,-5.16,2,6
17628.515,-0.385,0.37,0.902,-1.68,-11.66,-6.65,2,6
17628.531,-0.388,0.377,0.893,-7.26,-15.72,-9.03,2,6
17628.546,-0.39,0.374,0.889,-11.51,-19.65,-10.93,2,6
17628.546,-0.385,0.375,0.88,-13.06,-22.1,-11.57,2,6
17628.562,-0.375,0.377,0.866,-11.81,-22.55,-11.75,2,6
17628.578,-0.373,0.387,0.861,-9.49,-21.45,-11.84,2,6
17628.578,-0.365,0.395,0.859,-6.84,-19.68,-11.02,2,6
17628.593,-0.357,0.403,0.865,-4.7,-17.76,-9.74,2,6
17628.609,-0.363,0.415,0.876,-3.66,-16.6,-7.78,2,6
17628.625,-0.362,0.425,0.879,-4.94,-16.79,-5.34,2,6
17628.625,-0.35,0.43,0.88,-8.3,-17.61,-3.11,2,6
17628.625,-0.341,0.418,0.878,-12.88,-18.04,-1.89,2,6
17628.64,-0.334,0.406,0.886,-17.27,-18.8,-1.28,2,6
17628.656,-0.328,0.386,0.888,-19.78,-19.56,-0.79,2,6
17628.671,-0.325,0.365,0.888,-20.36,-20.81,-0.7,2,6
17628.671,-0.3,0.354,0.88,-19.32,-21.58,-0.89,2,6
17628.687,-0.265,0.327,0.832,-12.48,-15.44,-2.41,2,6
17628.703,-0.254,0.317,0.819,-7.75,-9.43,-3.11,2,6
17628.718,-0.244,0.302,0.807,-2.08,-2.26,-4.18,2,6
17628.718,-0.235,0.294,0.786,3.75,6.07,-5.83,2,6
17628.734,-0.23,0.285,0.766,9.64,14.92,-6.99,2,6
17628.75,-0.247,0.261,0.778,15.78,23.71,-7.35,2,6
17628.75,-0.282,0.269,0.808,25.51,31.13,-5.68,2,6
17628.765,-0.383,0.338,0.845,34.91,35.0,-2.11,2,6
17628.781,-0.443,0.457,0.889,29.48,28.29,1.65,2,6
17628.781,-0.413,0.484,0.925,18.59,16.6,6.23,2,6
17628.796,-0.544,0.595,0.958,5.83,4.24,10.32,2,6
17628.796,-0.444,0.651,0.991,-15.32,-12.97,23.77,2,6
17628.812,-0.338,0.564,0.898,-32.23,-25.88,28.84,2,6
17628.828,-0.241,0.474,0.826,-45.08,-25.09,27.8,2,6
17628.828,-0.208,0.396,0.845,-46.94,-14.68,25.45,2,6
17628.843,-0.232,0.37,0.913,-40.16,-4.15,20.29,2,6
17628.875,-0.289,0.365,1.04,-15.87,-0.34,11.44,2,6
17628.875,-0.295,0.339,1.053,-2.29,-7.75,8.39,2,6
17628.89,-0.27,0.344,1.013,8.79,-17.3,5.37,2,6
17628.89,-0.267,0.374,0.976,13.61,-24.51,2.66,2,6
17628.906,-0.251,0.406,0.951,11.11,-31.13,0.55,2,6
17628.921,-0.261,0.447,0.925,5.89,-35.65,0.27,2,6
17628.921,-0.136,0.431,0.866,0.03,-37.48,4.0,2,6
17628.937,-0.157,0.35,0.793,0.15,-29.63,1.25,2,6
17628.937,-0.207,0.374,0.831,0.98,-20.05,0.98,2,6
17628.953,-0.204,0.393,0.89,3.75,-19.29,1.74,2,6
17628.968,-0.208,0.385,0.882,6.16,-19.78,3.57,2,6
17628.984,-0.204,0.374,0.855,5.31,-20.14,4.39,2,6
17628.984,-0.169,0.363,0.838,4.55,-19.71,4.73,2,6
17629.0,-0.176,0.359,0.826,2.9,-18.52,4.85,2,6
17629.0,-0.177,0.34,0.814,0.46,-17.4,4.73,2,6
17629.015,-0.162,0.307,0.799,-2.84,-15.41,3.33,2,6
17629.031,-0.117,0.252,0.728,0.12,0.55,-2.53,2,6
17629.046,-0.103,0.222,0.68,9.52,16.69,-6.68,2,6
17629.046,-0.117,0.222,0.65,18.89,35.83,-13.37,2,6
17629.062,-0.239,0.247,0.685,23.77,54.05,-22.8,2,6
17629.078,-0.353,0.478,0.941,8.12,57.04,-29.11,2,6
17629.093,-0.568,0.566,1.187,7.17,46.14,-21.94,2,6
17629.093,-0.534,0.636,1.292,0.49,11.78,-2.35,2,6
17629.109,-0.223,0.592,1.085,-18.4,-21.27,10.93,2,6
17629.109,-0.156,0.442,0.924,-22.28,-20.63,12.21,2,6
17629.125,-0.185,0.344,0.935,-19.75,-8.73,13.15,2,6
17629.14,-0.222,0.314,0.96,-11.17,-1.89,10.35,2,6
17629.14,-0.263,0.309,0.97,-3.17,-1.4,4.94,2,6
17629.156,-0.282,0.323,0.977,2.99,-4.88,1.1,2,6
17629.156,-0.277,0.351,0.969,8.0,-9.67,-0.03,2,6
17629.171,-0.26,0.363,0.953,10.68,-13.61,0.52,2,6
17629.187,-0.284,0.398,0.96,9.58,-16.57,2.14,2,6
17629.203,-0.184,0.363,0.847,1.68,-18.22,4.67,2,6
17629.218,-0.247,0.357,0.857,5.1,-10.86,7.17,2,6
17629.218,-0.231,0.407,0.908,0.82,-11.78,9.58,2,6
17629.234,-0.191,0.401,0.881,-4.03,-14.37,9.37,2,6
17629.25,-0.199,0.379,0.869,-9.86,-14.04,6.56,2,6
17629.25,-0.204,0.363,0.885,-10.65,-13.03,5.07,2,6
17629.265,-0.183,0.358,0.884,-8.51,-12.27,4.49,2,6
17629.265,-0.176,0.353,0.876,-3.66,-10.25,3.66,2,6
17629.281,-0.176,0.35,0.865,1.1,-7.97,2.72,2,6
17629.296,-0.167,0.358,0.856,3.6,-6.1,1.62,2,6
17629.312,-0.161,0.354,0.843,4.97,-3.48,0.31,2,6
17629.312,-0.166,0.354,0.835,5.37,-0.67,-0.79,2,6
17629.328,-0.172,0.353,0.83,4.85,2.17,-1.65,2,6
17629.328,-0.181,0.351,0.828,3.78,4.52,-2.59,2,6
17629.343,-0.201,0.349,0.836,3.42,6.29,-3.05,2,6
17629.359,-0.212,0.352,0.844,3.39,6.53,-2.81,2,6
17629.375,-0.204,0.355,0.839,1.74,5.28,-3.39,2,6
17629.39,-0.208,0.356,0.841,2.29,6.13,-3.72,2,6
17629.39,-0.209,0.358,0.836,3.23,7.66,-3.3,2,6
17629.406,-0.208,0.362,0.835,3.51,9.55,-2.5,2,6
17629.406,-0.214,0.362,0.834,3.51,11.93,-2.35,2,6
17629.421,-0.225,0.362,0.834,3.23,14.44,-2.5,2,6
17629.437,-0.231,0.362,0.837,2.5,16.08,-2.87,2,6
17629.453,-0.231,0.354,0.834,2.17,17.43,-3.81,2,6
17629.453,-0.246,0.352,0.827,2.47,19.56,-5.22,2,6
17629.468,-0.323,0.384,0.864,1.07,20.29,-6.26,2,6
17629.468,-0.337,0.467,1.002,-7.84,12.24,-2.5,2,6
17629.484,-0.248,0.422,0.936,-11.54,1.56,3.91,2,6
17629.5,-0.203,0.388,0.859,-15.53,0.89,7.02,2,6
17629.5,-0.099,0.302,0.806,-16.6,8.0,6.04,2,6
17629.515,-0.253,0.29,0.862,-6.23,23.71,0.15,2,6
17629.515,-0.358,0.385,1.032,-0.24,25.64,1.5,2,6
17629.531,-0.282,0.448,1.073,-2.01,12.67,2.08,2,6
17629.546,-0.298,0.426,1.046,0.58,4.09,0.76,2,6
17629.562,-0.264,0.413,1.017,1.56,-1.62,3.27,2,6
17629.562,-0.214,0.393,0.972,4.91,-3.2,4.24,2,6
17629.578,-0.231,0.376,0.944,8.85,-0.15,2.32,2,6
17629.578,-0.264,0.391,0.949,11.87,1.86,0.4,2,6
17629.593,-0.286,0.409,0.934,13.03,1.04,-0.15,2,6
17629.609,-0.305,0.422,0.911,11.93,-1.68,0.37,2,6
17629.609,-0.313,0.423,0.905,9.16,-5.31,1.98,2,6
17629.625,-0.342,0.434,0.932,5.22,-9.74,3.57,2,6
17629.64,-0.36,0.454,0.975,1.53,-17.3,7.66,2,6
17629.64,-0.245,0.403,0.893,-2.69,-24.78,11.23,2,6
17629.656,-0.326,0.347,0.893,-2.17,-22.68,8.03,2,6
17629.656,-0.297,0.395,0.958,-3.11,-25.27,9.67,2,6
17629.671,-0.238,0.416,0.921,-0.76,-27.13,12.36,2,6
17629.687,-0.249,0.387,0.885,0.98,-24.05,12.21,2,6
17629.687,-0.247,0.376,0.888,1.62,-19.35,12.48,2,6
17629.703,-0.25,0.366,0.88,4.82,-14.74,11.99,2,6
17629.718,-0.258,0.353,0.874,8.39,-10.13,10.41,2,6
17629.718,-0.283,0.355,0.878,12.73,-5.25,7.6,2,6
17629.734,-0.308,0.356,0.89,16.57,-1.83,5.04,2,6
17629.75,-0.328,0.361,0.903,18.92,-0.31,2.53,2,6
17629.75,-0.352,0.374,0.916,20.63,0.34,0.67,2,6
17629.765,-0.376,0.383,0.924,21.7,0.12,0.12,2,6
17629.765,-0.387,0.386,0.925,21.55,-0.73,0.4,2,6
17629.781,-0.391,0.391,0.92,21.52,-1.07,0.55,2,6
17629.796,-0.4,0.386,0.91,23.04,-0.12,0.24,2,6
17629.796,-0.398,0.383,0.895,25.97,1.8,-0.09,2,6
17629.812,-0.397,0.39,0.871,29.85,4.91,-0.64,2,6
17629.828,-0.4,0.395,0.849,35.16,8.91,-1.1,2,6
17629.828,-0.402,0.396,0.828,41.2,14.56,-1.37,2,6
17629.843,-0.409,0.407,0.809,46.66,21.24,-1.13,2,6
17629.859,-0.429,0.424,0.79,50.69,27.68,-0.64,2,6
17629.859,-0.454,0.439,0.793,50.42,31.56,-0.43,2,6
17629.875,-0.454,0.452,0.791,46.33,32.56,0.24,2,6
17629.89,-0.443,0.457,0.78,39.92,33.27,1.19,2,6
17629.89,-0.427,0.455,0.771,33.27,35.89,2.01,2,6
17629.906,-0.415,0.444,0.769,28.05,40.83,2.9,2,6
17629.906,-0.401,0.422,0.756,26.76,47.58,4.09,2,6
17629.921,-0.382,0.394,0.714,30.24,57.13,5.98,2,6
17629.937,-0.378,0.38,0.693,43.64,81.91,7.63,2,6
17629.953,-0.417,0.378,0.673,48.59,89.33,8.88,2,6
17629.953,-0.472,0.358,0.667,46.42,90.06,8.64,2,6
17629.968,-0.462,0.396,0.696,40.65,87.71,3.17,2,6
17629.968,-0.447,0.421,0.701,33.39,85.15,-2.23,2,6
17629.984,-0.436,0.406,0.687,26.7,83.8,-6.01,2,6
17630.0,-0.409,0.4,0.674,20.75,83.93,-9.28,2,6
17630.0,-0.368,0.38,0.638,18.65,87.59,-11.35,2,6
17630.015,-0.336,0.358,0.6,19.41,96.38,-13.21,2,6
17630.031,-0.3,0.336,0.552,21.67,109.78,-15.84,2,6
17630.031,-0.271,0.32,0.503,25.79,127.9,-20.78,2,6
17630.046,-0.286,0.318,0.443,32.87,175.39,-39.0,2,6
17630.062,-0.35,0.328,0.46,29.82,193.85,-54.05,2,6
17630.078,-0.45,0.347,0.53,24.29,209.08,-71.23,2,6
17630.078,-0.547,0.347,0.575,18.95,215.12,-85.91,2,6
17630.093,-0.618,0.349,0.593,13.52,208.5,-95.25,2,6
17630.109,-0.641,0.349,0.607,11.23,197.09,-99.09,2,6
17630.109,-0.638,0.349,0.592,12.63,184.3,-100.71,2,6
17630.125,-0.616,0.355,0.563,14.8,173.19,-102.42,2,6
17630.14,-0.59,0.376,0.517,16.36,168.13,-103.82,2,6
17630.14,-0.583,0.391,0.436,17.76,170.96,-103.92,2,6
17630.156,-0.577,0.387,0.353,17.37,181.07,-103.98,2,6
17630.171,-0.572,0.383,0.292,14.34,198.68,-104.59,2,6
17630.171,-0.605,0.38,0.209,12.24,223.24,-106.3,2,6
17630.187,-0.673,0.38,0.169,11.05,250.86,-109.59,2,6
17630.203,-0.77,0.38,0.192,12.24,275.25,-112.95,2,6
17630.203,-0.862,0.362,0.199,14.95,292.21,-114.57,2,6
17630.218,-0.96,0.323,0.236,35.25,301.98,-118.53,2,6
17630.234,-0.985,0.334,0.223,49.93,296.91,-120.88,2,6
17630.25,-0.994,0.336,0.2,63.14,285.56,-121.31,2,6
17630.25,-0.965,0.329,0.159,73.82,272.01,-121.01,2,6
17630.265,-0.933,0.33,0.044,82.25,263.68,-119.48,2,6
17630.281,-0.954,0.337,-0.062,83.35,260.2,-116.67,2,6
17630.281,-0.965,0.333,-0.13,75.05,255.13,-113.01,2,6
17630.296,-0.944,0.311,-0.171,63.36,251.69,-110.02,2,6
17630.296,-0.944,0.255,-0.198,54.78,251.29,-112.0,2,6
17630.312,-0.962,0.213,-0.231,48.77,249.55,-116.73,2,6
17630.328,-0.975,0.2,-0.271,42.63,247.41,-120.4,2,6
17630.328,-1.014,0.21,-0.28,34.42,242.74,-125.0,2,6
17630.343,-1.047,0.208,-0.267,23.35,230.96,-128.42,2,6
17630.359,-1.059,0.189,-0.236,13.64,213.6,-128.27,2,6
17630.359,-1.062,0.166,-0.232,8.76,194.28,-125.06,2,6
17630.375,-1.072,0.165,-0.258,6.96,176.58,-118.47,2,6
17630.375,-1.079,0.173,-0.289,5.86,159.67,-109.53,2,6
17630.39,-1.061,0.171,-0.31,4.67,143.07,-99.73,2,6
17630.406,-1.076,0.161,-0.322,5.52,128.12,-90.33,2,6
17630.421,-1.121,0.161,-0.323,10.07,114.9,-81.82,2,6
17630.421,-1.14,0.166,-0.348,15.84,101.63,-74.43,2,6
17630.437,-1.147,0.174,-0.401,20.63,90.85,-67.54,2,6
17630.437,-1.155,0.187,-0.458,22.34,84.84,-59.39,2,6
17630.453,-1.154,0.202,-0.501,20.69,81.85,-50.94,2,6
17630.468,-1.145,0.2,-0.538,18.71,82.0,-43.06,2,6
17630.468,-1.157,0.204,-0.565,18.07,86.73,-36.35,2,6
17630.484,-1.174,0.216,-0.557,17.03,91.07,-30.49,2,6
17630.5,-1.173,0.231,-0.542,14.98,91.74,-24.87,2,6
17630.5,-1.17,0.238,-0.539,12.05,90.15,-18.83,2,6
17630.515,-1.147,0.241,-0.546,8.06,87.86,-11.51,2,6
17630.515,-1.111,0.233,-0.532,4.33,84.2,-2.75,2,6
17630.531,-1.1,0.203,-0.513,5.98,78.4,5.34,2,6
17630.546,-1.037,0.17,-0.519,11.51,63.3,24.05,2,6
17630.562,-1.013,0.158,-0.539,11.72,57.19,33.11,2,6
17630.578,-0.984,0.131,-0.548,12.18,52.4,41.41,2,6
17630.593,-0.94,0.092,-0.567,13.4,49.13,48.49,2,6
17630.593,-0.914,0.054,-0.581,15.41,48.22,53.07,2,6
17630.609,-0.877,0.019,-0.593,18.07,49.53,56.58,2,6
17630.609,-0.845,-0.011,-0.617,21.88,54.35,57.65,2,6
17630.625,-0.818,-0.025,-0.64,24.17,61.07,56.43,2,6
17630.64,-0.808,-0.055,-0.624,20.08,66.93,50.36,2,6
17630.64,-0.821,-0.11,-0.54,9.16,66.47,34.85,2,6
17630.656,-0.865,-0.068,-0.425,-2.9,60.0,17.76,2,6
17630.656,-0.879,-0.013,-0.422,-5.01,52.25,9.98,2,6
17630.671,-0.903,0.001,-0.469,1.01,47.67,6.53,2,6
17630.687,-0.988,0.038,-0.466,5.52,43.18,6.04,2,6
17630.687,-1.146,0.024,-0.423,12.63,39.95,8.64,2,6
17630.703,-1.329,-0.002,-0.356,20.14,32.04,9.7,2,6
17630.718,-1.62,0.101,-0.374,24.45,-6.93,3.81,2,6
17630.734,-1.675,0.185,-0.462,12.51,-38.42,-0.79,2,6
17630.75,-1.694,0.288,-0.571,-6.47,-70.96,-4.97,2,6
17630.75,-1.695,0.374,-0.682,-27.38,-102.21,-7.14,2,6
17630.765,-1.667,0.429,-0.757,-46.63,-129.15,-5.31,2,6
17630.781,-1.65,0.448,-0.817,-59.76,-150.03,2.14,2,6
17630.781,-1.65,0.425,-0.845,-65.77,-162.51,14.65,2,6
17630.796,-1.684,0.375,-0.843,-65.22,-167.79,31.71,2,6
17630.812,-1.722,0.315,-0.851,-57.77,-166.94,52.55,2,6
17630.812,-1.748,0.285,-0.856,-46.63,-163.85,74.68,2,6
17630.828,-1.763,0.26,-0.859,-34.24,-160.47,96.19,2,6
17630.843,-1.754,0.269,-0.854,-27.28,-158.42,114.44,2,6
17630.843,-1.703,0.259,-0.851,-25.33,-158.94,127.54,2,6
17630.859,-1.64,0.257,-0.85,-27.65,-160.16,135.87,2,6
17630.859,-1.572,0.277,-0.837,-34.97,-162.14,140.6,2,6
17630.875,-1.486,0.278,-0.796,-46.11,-166.08,140.17,2,6
17630.89,-1.425,0.299,-0.764,-60.15,-172.25,134.53,2,6
17630.89,-1.392,0.363,-0.774,-76.57,-179.14,126.41,2,6
17630.906,-1.359,0.445,-0.786,-97.35,-185.86,116.55,2,6
17630.906,-1.311,0.477,-0.781,-135.35,-190.74,99.95,2,6
17630.921,-1.222,0.453,-0.744,-145.42,-188.39,96.07,2,6
17630.937,-1.137,0.384,-0.677,-145.51,-183.02,94.09,2,6
17630.937,-1.048,0.297,-0.593,-139.74,-175.76,92.04,2,6
17630.953,-0.887,0.241,-0.487,-134.8,-167.58,89.24,2,6
17630.968,-0.823,0.264,-0.447,-132.57,-159.73,86.18,2,6
17630.968,-0.769,0.259,-0.375,-129.89,-152.56,83.56,2,6
17630.984,-0.746,0.219,-0.299,-122.56,-147.74,78.98,2,6
17631.0,-0.624,0.136,-0.196,-110.2,-143.65,77.91,2,6
17631.0,-0.561,0.157,-0.166,-93.57,-145.45,57.99,2,6
17631.015,-0.481,0.134,-0.139,-88.38,-148.14,30.79,2,6
17631.031,-0.524,0.064,-0.102,-95.55,-146.28,9.37,2,6
17631.031,-0.532,0.059,-0.104,-97.17,-154.94,-11.72,2,6
17631.062,-0.538,0.161,-0.205,-90.79,-157.99,-41.14,2,6
17631.062,-0.466,0.23,-0.243,-87.16,-155.03,-45.96,2,6
17631.078,-0.512,0.383,-0.313,-79.93,-152.32,-60.3,2,6
17631.078,-0.473,0.392,-0.324,-80.36,-147.68,-68.79,2,6
17631.093,-0.56,0.388,-0.304,-82.52,-125.55,-69.55,2,6
17631.109,-0.597,0.257,-0.273,-80.32,-122.1,-57.5,2,6
17631.109,-0.525,0.254,-0.242,-63.78,-111.21,-48.19,2,6
17631.125,-0.595,0.291,-0.202,-44.68,-85.06,-51.48,2,6
17631.14,-0.695,0.172,-0.164,-37.78,-85.51,-48.71,2,6
17631.14,-0.67,0.155,-0.112,-29.51,-82.0,-43.79,2,6
17631.156,-0.756,0.125,-0.053,-19.35,-73.09,-36.35,2,6
17631.156,-0.769,0.115,0.042,-9.03,-81.3,-29.6,2,6
17631.171,-0.731,0.146,0.102,7.97,-87.1,-25.76,2,6
17631.187,-0.746,0.193,0.136,20.91,-93.75,-22.68,2,6
17631.187,-0.755,0.228,0.197,27.22,-110.75,-17.24,2,6
17631.203,-0.746,0.248,0.232,32.35,-131.35,-9.16,2,6
17631.218,-0.746,0.252,0.208,35.25,-153.72,-1.22,2,6
17631.218,-0.737,0.243,0.176,32.01,-175.39,6.47,2,6
17631.234,-0.732,0.201,0.132,24.32,-192.48,13.49,2,6
17631.25,-0.731,0.176,0.086,12.33,-203.38,18.13,2,6
17631.25,-0.76,0.137,0.058,-2.53,-206.67,18.65,2,6
17631.265,-0.757,0.075,0.048,-17.61,-200.63,13.21,2,6
17631.281,-0.715,0.02,-0.023,-30.49,-180.27,0.46,2,6
17631.281,-0.652,0.018,-0.105,-45.47,-143.56,-18.59,2,6
17631.296,-0.631,0.057,-0.18,-61.1,-98.73,-41.66,2,6
17631.296,-0.601,0.04,-0.212,-73.92,-51.24,-61.46,2,6
17631.312,-0.54,0.016,-0.172,-80.75,-1.37,-72.85,2,6
17631.328,-0.545,0.041,-0.104,-74.8,47.58,-78.43,2,6
17631.343,-0.605,0.057,-0.05,-57.44,90.46,-81.36,2,6
17631.343,-0.688,0.067,-0.0,-36.1,126.22,-84.96,2,6
17631.359,-0.755,0.089,0.069,-17.76,152.81,-89.88,2,6
17631.359,-0.798,0.11,0.124,-5.95,168.86,-95.61,2,6
17631.39,-0.944,0.191,0.268,-5.37,179.97,-114.08,2,6
17631.39,-1.002,0.222,0.375,-11.44,175.33,-127.02,2,6
17631.406,-1.046,0.227,0.484,-15.23,161.99,-137.46,2,6
17631.406,-1.023,0.182,0.618,-16.05,141.0,-137.03,2,6
17631.421,-0.983,0.181,0.714,-11.08,114.66,-123.2,2,6
17631.437,-0.957,0.206,0.739,-0.55,84.69,-97.08,2,6
17631.437,-0.961,0.189,0.75,10.74,52.4,-66.32,2,6
17631.453,-0.963,0.191,0.707,19.9,18.86,-38.33,2,6
17631.468,-0.942,0.229,0.596,20.75,-12.24,-16.3,2,6
17631.484,-0.892,0.222,0.493,9.74,-35.58,-0.31,2,6
17631.484,-0.846,0.112,0.431,-4.67,-48.71,10.32,2,6
17631.5,-0.816,-0.004,0.368,-10.74,-52.03,18.89,2,6
17631.5,-0.789,-0.061,0.305,-4.21,-46.02,25.42,2,6
17631.515,-0.762,-0.088,0.249,9.92,-32.29,29.39,2,6
17631.531,-0.744,-0.075,0.224,21.33,-14.34,31.59,2,6
17631.531,-0.735,-0.04,0.234,26.46,2.81,32.26,2,6
17631.546,-0.775,-0.021,0.277,28.63,17.98,28.96,2,6
17631.562,-0.82,0.009,0.341,27.77,28.17,20.81,2,6
17631.562,-0.84,0.051,0.391,21.36,30.03,11.08,2,6
17631.578,-0.85,0.063,0.452,11.51,25.67,2.29,2,6
17631.578,-0.85,0.032,0.497,3.36,16.63,-3.63,2,6
17631.593,-0.833,-0.019,0.496,-1.1,4.61,-5.1,2,6
17631.609,-0.827,-0.058,0.459,-1.28,-5.62,-3.78,2,6
17631.625,-0.837,-0.072,0.411,-1.95,-12.33,-4.46,2,6
17631.625,-0.846,-0.091,0.376,-6.47,-15.99,-10.47,2,6
17631.64,-0.848,-0.124,0.352,-12.54,-15.99,-21.12,2,6
17631.64,-0.858,-0.139,0.357,-16.21,-12.21,-33.63,2,6
17631.656,-0.875,-0.138,0.379,-16.45,-8.18,-44.62,2,6
17631.656,-0.89,-0.137,0.413,-14.95,-5.58,-50.87,2,6
17631.671,-0.891,-0.112,0.439,-12.51,-4.64,-52.13,2,6
17631.687,-0.902,-0.094,0.446,-10.86,-6.78,-50.45,2,6
17631.687,-0.97,-0.069,0.451,-10.83,-10.83,-48.86,2,6
17631.703,-1.011,-0.055,0.473,-13.21,-15.14,-48.16,2,6
17631.718,-0.989,-0.06,0.489,-15.99,-19.53,-47.49,2,6
17631.718,-0.953,-0.068,0.482,-15.2,-22.55,-43.79,2,6
17631.734,-0.891,-0.079,0.465,-11.32,-23.19,-35.0,2,6
17631.75,-0.843,-0.07,0.422,-5.83,-21.09,-23.65,2,6
17631.75,-0.854,-0.059,0.37,-1.86,-17.03,-13.03,2,6
17631.765,-0.887,-0.074,0.351,-1.28,-10.9,-7.26,2,6
17631.765,-0.912,-0.093,0.347,-1.4,-3.72,-5.71,2,6
17631.781,-0.919,-0.08,0.347,-0.67,2.23,-5.19,2,6
17631.796,-0.933,-0.083,0.378,-1.13,6.2,-3.66,2,6
17631.812,-0.989,-0.119,0.402,1.16,7.6,-1.13,2,6
17631.812,-1.04,-0.115,0.398,5.04,5.86,1.68,2,6
17631.828,-1.067,-0.111,0.395,6.53,1.71,4.0,2,6
17631.828,-1.021,-0.13,0.418,6.44,-3.27,7.48,2,6
17631.843,-0.936,-0.117,0.446,8.18,-6.84,8.7,2,6
17631.859,-0.91,-0.065,0.462,9.92,-8.03,5.37,2,6
17631.859,-0.908,-0.022,0.491,6.84,-9.89,0.24,2,6
17631.875,-0.918,-0.009,0.517,1.46,-13.18,-4.85,2,6
17631.89,-0.953,0.005,0.527,-1.5,-15.93,-8.79,2,6
17631.89,-1.008,0.023,0.526,-2.23,-18.86,-11.78,2,6
17631.906,-1.044,0.027,0.546,-1.92,-21.97,-8.15,2,6
17631.906,-1.055,0.024,0.576,1.68,-23.56,-0.24,2,6
17631.921,-1.044,0.015,0.604,8.3,-25.48,9.0,2,6
17631.937,-1.03,0.073,0.59,13.46,-28.38,16.39,2,6
17631.937,-1.01,0.088,0.563,13.61,-32.17,20.6,2,6
17631.953,-0.983,0.091,0.554,11.11,-35.07,20.54,2,6
17631.968,-0.943,0.078,0.556,8.33,-36.84,18.65,2,6
17631.984,-0.874,0.074,0.556,6.04,-38.21,17.85,2,6
17631.984,-0.793,0.075,0.554,5.43,-38.91,19.65,2,6
17631.984,-0.732,0.1,0.559,5.74,-37.9,22.74,2,6
17632.0,-0.732,0.109,0.561,5.25,-35.86,25.33,2,6
17632.015,-0.752,0.099,0.566,3.11,-34.79,27.92,2,6
17632.031,-0.753,0.097,0.568,1.46,-35.0,30.18,2,6
17632.031,-0.756,0.083,0.567,0.24,-35.92,31.74,2,6
17632.046,-0.741,0.062,0.567,-0.67,-37.2,33.75,2,6
17632.046,-0.703,0.042,0.562,-0.79,-38.18,35.92,2,6
17632.062,-0.673,0.051,0.549,-0.37,-38.15,37.69,2,6
17632.078,-0.649,0.071,0.532,-2.01,-38.45,39.16,2,6
17632.078,-0.642,0.044,0.526,-4.7,-39.67,40.22,2,6
17632.093,-0.624,0.019,0.514,-3.66,-40.44,40.22,2,6
17632.109,-0.61,0.033,0.485,-0.15,-39.34,38.54,2,6
17632.109,-0.607,0.05,0.458,2.26,-36.07,34.91,2,6
17632.125,-0.605,0.063,0.449,1.59,-31.8,29.45,2,6
17632.14,-0.595,0.076,0.456,-0.46,-27.34,22.46,2,6
17632.14,-0.591,0.096,0.467,-2.38,-23.5,14.89,2,6
17632.156,-0.578,0.107,0.482,-4.85,-19.87,8.64,2,6
17632.156,-0.589,0.095,0.502,-6.99,-16.45,4.0,2,6
17632.171,-0.612,0.073,0.528,-7.69,-13.98,2.62,2,6
17632.187,-0.632,0.062,0.549,-7.08,-13.12,3.05,2,6
17632.187,-0.653,0.061,0.554,-5.92,-12.97,3.57,2,6
17632.203,-0.669,0.058,0.556,-5.28,-12.12,4.03,2,6
17632.218,-0.678,0.06,0.552,-4.55,-10.25,5.01,2,6
17632.218,-0.696,0.073,0.549,-3.75,-7.6,6.23,2,6
17632.234,-0.709,0.073,0.557,-3.39,-5.28,8.51,2,6
17632.25,-0.703,0.065,0.568,-2.35,-3.11,11.14,2,6
17632.25,-0.699,0.056,0.578,-0.46,-0.24,13.52,2,6
17632.265,-0.709,0.046,0.589,1.89,2.2,16.14,2,6
17632.265,-0.714,0.05,0.59,3.72,2.93,17.46,2,6
17632.281,-0.713,0.047,0.59,2.53,2.35,16.33,2,6
17632.296,-0.716,0.03,0.592,-0.15,1.01,13.18,2,6
17632.296,-0.712,0.017,0.596,-1.83,-0.82,9.19,2,6
17632.312,-0.705,0.008,0.597,-2.75,-2.29,5.58,2,6
17632.328,-0.7,0.007,0.589,-3.14,-3.23,2.84,2,6
17632.328,-0.7,-0.004,0.583,-3.11,-3.27,1.01,2,6
17632.343,-0.704,-0.012,0.582,-2.44,-2.2,-0.21,2,6
17632.359,-0.702,-0.005,0.583,-0.76,-0.21,-1.4,2,6
17632.375,-0.705,0.007,0.581,0.7,1.71,-2.93,2,6
17632.375,-0.709,0.015,0.588,0.34,3.2,-4.88,2,6
17632.375,-0.718,0.018,0.6,0.31,4.0,-6.53,2,6
17632.39,-0.714,0.033,0.601,1.16,3.69,-7.17,2,6
17632.406,-0.718,0.046,0.596,2.08,3.02,-7.48,2,6
17632.406,-0.729,0.046,0.588,2.04,2.44,-7.69,2,6
17632.421,-0.725,0.042,0.582,1.28,2.44,-7.66,2,6
17632.437,-0.731,0.044,0.574,0.79,2.84,-8.39,2,6
17632.453,-0.738,0.047,0.574,0.43,3.27,-9.22,2,6
17632.453,-0.738,0.056,0.569,0.61,3.57,-10.04,2,6
17632.468,-0.734,0.059,0.562,0.06,3.91,-10.93,2,6
17632.468,-0.731,0.06,0.562,-0.49,4.61,-11.32,2,6
17632.484,-0.73,0.062,0.563,-0.49,5.07,-11.02,2,6
17632.5,-0.728,0.064,0.554,-0.49,5.49,-10.38,2,6
17632.5,-0.739,0.062,0.553,-0.46,6.1,-9.58,2,6
17632.515,-0.751,0.059,0.554,-0.43,6.71,-8.88,2,6
17632.515,-0.761,0.063,0.553,-0.4,7.23,-8.61,2,6
17632.531,-0.776,0.062,0.553,-0.67,7.57,-8.48,2,6
17632.546,-0.779,0.06,0.555,-1.16,7.97,-8.18,2,6
17632.546,-0.773,0.055,0.561,-1.28,8.51,-7.39,2,6
17632.562,-0.774,0.043,0.566,-1.19,9.19,-6.26,2,6
17632.578,-0.774,0.041,0.569,-0.79,9.55,-5.74,2,6
17632.578,-0.773,0.031,0.571,-0.7,9.4,-5.58,2,6
17632.593,-0.782,0.033,0.571,-1.1,8.64,-6.99,2,6
17632.609,-0.784,0.04,0.565,-1.98,7.39,-9.37,2,6
17632.609,-0.787,0.043,0.559,-3.88,5.86,-12.24,2,6
17632.625,-0.79,0.042,0.555,-5.89,4.18,-15.02,2,6
17632.64,-0.786,0.044,0.55,-7.48,2.53,-16.39,2,6
17632.64,-0.771,0.041,0.54,-8.94,1.4,-16.88,2,6
17632.656,-0.754,0.029,0.535,-9.37,1.43,-16.36,2,6
17632.656,-0.737,0.028,0.529,-7.63,2.84,-15.29,2,6
17632.671,-0.728,0.032,0.513,-5.58,5.1,-13.34,2,6
17632.687,-0.719,0.042,0.506,-4.39,7.48,-10.83,2,6
17632.687,-0.71,0.047,0.505,-3.94,10.01,-8.61,2,6
17632.703,-0.706,0.034,0.506,-4.15,12.33,-6.13,2,6
17632.718,-0.702,0.021,0.506,-2.99,14.4,-3.63,2,6
17632.718,-0.694,0.019,0.502,-0.34,16.69,-1.22,2,6
17632.734,-0.674,0.019,0.496,0.95,18.83,0.79,2,6
17632.75,-0.654,0.006,0.498,0.92,20.42,1.31,2,6
17632.75,-0.639,-0.003,0.5,1.34,22.25,0.61,2,6
17632.765,-0.643,0.001,0.496,2.08,23.9,-0.61,2,6
17632.765,-0.653,-0.002,0.496,1.86,25.54,-2.47,2,6
17632.781,-0.665,-0.007,0.493,0.79,27.1,-3.75,2,6
17632.796,-0.672,-0.009,0.489,0.61,28.44,-4.03,2,6
17632.796,-0.679,-0.011,0.484,1.68,29.76,-3.69,2,6
17632.812,-0.684,-0.003,0.479,2.53,30.92,-3.23,2,6
17632.828,-0.679,0.006,0.474,2.99,31.89,-2.17,2,6
17632.828,-0.673,0.012,0.464,3.81,32.69,-0.95,2,6
17632.843,-0.671,0.01,0.44,4.64,33.36,-0.43,2,6
17632.859,-0.66,0.012,0.422,4.36,34.3,-1.65,2,6
17632.859,-0.663,0.018,0.404,3.57,35.89,-4.39,2,6
17632.875,-0.678,0.011,0.401,1.8,37.78,-7.23,2,6
17632.89,-0.674,-0.001,0.407,1.1,40.93,-10.04,2,6
17632.89,-0.669,0.001,0.395,1.74,42.54,-9.43,2,6
17632.906,-0.666,0.005,0.378,1.77,44.47,-8.33,2,6
17632.906,-0.677,0.006,0.366,2.14,46.36,-7.35,2,6
17632.921,-0.689,-0.008,0.338,3.2,48.68,-7.02,2,6
17632.937,-0.687,0.0,0.328,4.09,51.55,-7.2,2,6
17632.937,-0.685,0.007,0.326,4.0,54.32,-7.14,2,6
17632.953,-0.687,0.01,0.327,3.36,56.61,-6.65,2,6
17632.968,-0.692,0.008,0.325,2.81,58.05,-5.86,2,6
17632.968,-0.713,-0.001,0.312,2.84,59.11,-4.55,2,6
17632.984,-0.747,-0.012,0.292,3.48,59.97,-3.2,2,6
17633.0,-0.769,-0.022,0.276,4.06,61.07,-1.92,2,6
17633.0,-0.794,-0.035,0.265,5.13,62.65,-2.44,2,6
17633.015,-0.807,-0.044,0.252,6.1,63.91,-4.73,2,6
17633.015,-0.785,-0.04,0.243,6.62,64.67,-7.51,2,6
17633.031,-0.761,-0.035,0.237,6.65,65.16,-10.47,2,6
17633.046,-0.749,-0.026,0.219,6.13,65.03,-12.94,2,6
17633.046,-0.738,-0.026,0.194,5.37,64.64,-14.19,2,6
17633.062,-0.745,-0.035,0.158,5.07,64.52,-14.65,2,6
17633.078,-0.763,-0.044,0.118,5.83,65.86,-16.36,2,6
17633.078,-0.811,-0.038,0.076,5.77,68.76,-21.21,2,6
17633.093,-0.874,-0.027,0.055,3.54,73.03,-29.39,2,6
17633.109,-0.917,-0.021,0.072,-0.27,76.94,-37.35,2,6
17633.109,-0.96,-0.01,0.101,-2.93,80.17,-44.68,2,6
17633.125,-0.994,0.001,0.132,-4.73,81.58,-48.52,2,6
17633.14,-1.0,0.011,0.159,-6.44,79.04,-45.29,2,6
17633.14,-1.012,0.022,0.152,-5.92,73.95,-37.84,2,6
17633.156,-1.034,0.021,0.126,-5.65,69.12,-30.0,2,6
17633.156,-1.054,-0.015,0.098,-6.53,66.29,-23.96,2,6
17633.171,-1.061,-0.039,0.066,-8.18,65.37,-20.66,2,6
17633.187,-1.051,-0.051,0.043,-9.19,66.65,-18.95,2,6
17633.187,-1.033,-0.067,0.024,-8.12,69.55,-17.88,2,6
17633.203,-1.007,-0.051,0.01,-7.08,73.24,-17.49,2,6
17633.218,-0.979,-0.051,0.004,-7.75,76.6,-16.48,2,6
17633.218,-0.96,-0.068,-0.003,-8.85,78.86,-14.37,2,6
17633.234,-0.976,-0.081,-0.016,-8.33,80.66,-11.51,2,6
17633.25,-0.998,-0.084,-0.021,-7.39,82.4,-8.36,2,6
17633.25,-1.025,-0.108,-0.02,-6.59,84.2,-5.22,2,6
17633.265,-1.059,-0.133,-0.011,-4.52,86.64,-3.05,2,6
17633.281,-1.095,-0.134,0.015,-1.71,89.42,-2.87,2,6
17633.281,-1.125,-0.126,0.035,0.61,91.04,-5.01,2,6
17633.296,-1.111,-0.112,0.033,0.64,89.08,-7.2,2,6
17633.296,-1.089,-0.102,0.013,-0.92,84.17,-7.6,2,6
17633.312,-1.076,-0.115,-0.025,-2.53,78.07,-6.23,2,6
17633.328,-1.025,-0.137,-0.073,-2.44,72.63,-2.72,2,6
17633.328,-1.01,-0.149,-0.115,0.76,71.11,-0.03,2,6
17633.343,-1.036,-0.143,-0.146,4.27,73.15,-0.98,2,6
17633.359,-1.026,-0.125,-0.171,4.06,74.89,-5.25,2,6
17633.359,-1.024,-0.114,-0.17,1.19,76.85,-9.74,2,6
17633.375,-1.023,-0.127,-0.152,-1.13,77.58,-10.83,2,6
17633.39,-1.008,-0.152,-0.162,0.52,76.45,-7.6,2,6
17633.39,-0.987,-0.158,-0.201,6.26,75.17,-1.98,2,6
17633.406,-0.963,-0.139,-0.244,10.9,74.59,1.71,2,6
17633.406,-0.983,-0.133,-0.268,11.08,76.08,0.21,2,6
17633.421,-1.008,-0.136,-0.263,7.66,78.59,-5.04,2,6
17633.437,-1.015,-0.129,-0.244,4.12,80.23,-11.26,2,6
17633.437,-1.02,-0.132,-0.23,1.89,80.42,-14.25,2,6
17633.453,-1.007,-0.142,-0.229,1.43,78.74,-12.45,2,6
17633.468,-0.979,-0.167,-0.265,3.23,75.38,-7.51,2,6
17633.468,-0.95,-0.189,-0.339,6.16,71.02,-1.68,2,6
17633.484,-0.941,-0.192,-0.413,8.67,68.15,1.92,2,6
17633.5,-0.907,-0.192,-0.468,8.45,68.06,-0.24,2,6
17633.5,-0.946,-0.168,-0.494,5.74,72.36,-9.95,2,6
17633.515,-0.983,-0.16,-0.48,0.46,77.0,-21.49,2,6
17633.515,-0.957,-0.162,-0.456,-3.57,78.8,-29.6,2,6
17633.531,-0.942,-0.15,-0.455,-2.9,79.47,-35.34,2,6
17633.546,-0.919,-0.116,-0.472,-2.29,78.28,-39.64,2,6
17633.562,-0.876,-0.093,-0.489,-5.55,76.45,-43.34,2,6
17633.562,-0.871,-0.103,-0.485,-11.29,76.94,-46.42,2,6
17633.578,-0.899,-0.135,-0.448,-16.3,78.77,-46.63,2,6
17633.578,-0.945,-0.188,-0.417,-16.11,79.84,-41.84,2,6
17633.593,-0.949,-0.214,-0.43,-10.47,78.49,-32.69,2,6
17633.609,-0.921,-0.221,-0.486,-4.12,75.72,-22.16,2,6
17633.609,-0.907,-0.24,-0.56,-0.06,72.94,-13.25,2,6
17633.625,-0.87,-0.247,-0.626,2.78,71.72,-8.24,2,6
17633.64,-0.88,-0.234,-0.664,5.46,75.35,-10.35,2,6
17633.64,-0.931,-0.203,-0.674,4.39,81.94,-19.84,2,6
17633.656,-0.965,-0.172,-0.639,-1.86,87.25,-31.1,2,6
17633.656,-1.007,-0.179,-0.57,-7.14,90.09,-38.91,2,6
17633.671,-1.028,-0.176,-0.523,-8.12,87.8,-41.17,2,6
17633.687,-1.006,-0.159,-0.499,-7.29,82.16,-37.17,2,6
17633.703,-1.025,-0.155,-0.482,-4.58,79.07,-28.84,2,6
17633.703,-1.055,-0.181,-0.495,1.8,72.73,-21.03,2,6
17633.718,-1.066,-0.162,-0.51,5.52,69.12,-13.95,2,6
17633.718,-1.044,-0.147,-0.526,4.3,64.76,-8.94,2,6
17633.734,-1.029,-0.166,-0.554,1.07,60.4,-5.46,2,6
17633.75,-0.992,-0.188,-0.588,-0.61,57.95,-3.27,2,6
17633.75,-0.975,-0.206,-0.616,-0.89,58.26,-4.0,2,6
17633.765,-1.011,-0.218,-0.635,-0.7,62.26,-7.45,2,6
17633.765,-1.025,-0.227,-0.631,-2.53,66.16,-11.57,2,6
17633.781,-1.002,-0.224,-0.61,-5.37,68.39,-15.84,2,6
17633.796,-0.996,-0.222,-0.587,-6.16,69.28,-17.88,2,6
17633.796,-0.963,-0.213,-0.572,-5.01,68.06,-16.17,2,6
17633.812,-0.954,-0.196,-0.565,-2.99,66.74,-13.4,2,6
17633.828,-0.963,-0.2,-0.564,-1.46,65.71,-11.02,2,6
17633.828,-0.991,-0.201,-0.564,-1.01,64.49,-9.25,2,6
17633.843,-1.025,-0.217,-0.556,-0.67,63.02,-8.7,2,6
17633.859,-1.019,-0.221,-0.553,0.09,59.69,-7.29,2,6
17633.859,-0.99,-0.222,-0.563,2.26,55.6,-4.18,2,6
17633.875,-0.952,-0.214,-0.592,6.16,49.04,1.5,2,6
17633.875,-0.914,-0.2,-0.631,5.43,47.3,1.98,2,6
17633.89,-0.878,-0.21,-0.658,5.8,46.39,1.62,2,6
17633.906,-0.777,-0.194,-0.713,5.62,45.72,1.25,2,6
17633.906,-0.734,-0.177,-0.729,3.69,46.27,0.95,2,6
17633.921,-0.747,-0.188,-0.724,2.11,47.85,0.31,2,6
17633.937,-0.76,-0.21,-0.721,1.5,48.16,-0.27,2,6
17633.937,-0.755,-0.208,-0.73,2.01,47.55,-0.34,2,6
17633.953,-0.741,-0.216,-0.737,2.26,47.12,-0.37,2,6
17633.968,-0.729,-0.22,-0.744,3.05,47.24,-0.34,2,6
17633.968,-0.703,-0.212,-0.754,4.3,47.4,-0.12,2,6
17633.984,-0.681,-0.214,-0.76,5.1,47.85,0.18,2,6
17634.0,-0.673,-0.209,-0.758,5.65,48.89,-0.09,2,6
17634.0,-0.672,-0.214,-0.75,5.4,49.71,-1.16,2,6
17634.015,-0.67,-0.229,-0.747,4.91,49.26,-3.51,2,6
17634.031,-0.66,-0.232,-0.759,3.17,47.15,-6.93,2,6
17634.031,-0.651,-0.242,-0.771,-1.07,44.65,-11.44,2,6
17634.046,-0.649,-0.259,-0.771,-4.15,43.03,-14.95,2,6
17634.046,-0.644,-0.28,-0.775,-4.27,42.21,-16.51,2,6
17634.062,-0.646,-0.276,-0.788,-2.93,42.36,-17.76,2,6
17634.078,-0.659,-0.262,-0.798,-1.95,43.12,-18.98,2,6
17634.078,-0.664,-0.262,-0.795,-2.59,43.58,-20.05,2,6
17634.093,-0.662,-0.259,-0.793,-3.05,43.34,-21.24,2,6
17634.109,-0.65,-0.252,-0.798,-3.23,42.18,-22.4,2,6
17634.125,-0.639,-0.248,-0.801,-4.15,40.83,-23.77,2,6
17634.125,-0.621,-0.26,-0.805,-4.97,39.43,-25.73,2,6
17634.125,-0.602,-0.256,-0.826,-6.38,37.42,-29.05,2,6
17634.14,-0.591,-0.259,-0.832,-9.89,35.4,-33.23,2,6
17634.156,-0.578,-0.281,-0.83,-14.01,33.05,-38.67,2,6
17634.171,-0.576,-0.275,-0.84,-17.94,30.85,-45.56,2,6
17634.171,-0.561,-0.272,-0.846,-23.22,28.11,-53.41,2,6
17634.187,-0.564,-0.273,-0.85,-29.69,25.51,-62.59,2,6
17634.187,-0.574,-0.247,-0.859,-36.62,23.22,-71.11,2,6
17634.203,-0.577,-0.218,-0.861,-44.1,21.58,-76.48,2,6
17634.218,-0.578,-0.214,-0.851,-49.35,21.42,-77.67,2,6
17634.218,-0.595,-0.213,-0.836,-48.62,23.8,-72.97,2,6
17634.234,-0.737,-0.194,-0.76,-40.86,28.66,-60.58,2,6
17634.25,-0.787,-0.356,-0.7,-14.74,47.27,-20.6,2,6
17634.25,-0.611,-0.144,-0.788,3.91,38.94,4.3,2,6
17634.265,-0.741,-0.175,-0.746,9.34,39.0,15.14,2,6
17634.281,-0.725,-0.337,-0.774,24.72,52.37,41.9,2,6
17634.281,-0.794,-0.151,-0.825,31.31,51.12,59.48,2,6
17634.296,-0.676,-0.279,-0.769,29.11,56.43,74.8,2,6
17634.296,-0.452,-0.451,-0.723,23.32,41.08,59.48,2,6
17634.312,-0.667,-0.234,-0.775,28.47,25.82,25.03,2,6
17634.328,-0.802,-0.322,-0.809,32.32,43.73,37.48,2,6
17634.328,-0.508,-0.361,-0.797,16.21,31.71,45.32,2,6
17634.343,-0.46,-0.3,-0.708,9.92,25.51,23.53,2,6
17634.359,-0.712,-0.342,-0.802,20.75,27.47,7.87,2,6
17634.359,-0.587,-0.286,-0.847,19.17,24.81,21.21,2,6
17634.375,-0.461,-0.222,-0.777,16.97,22.19,22.37,2,6
17634.39,-0.573,-0.259,-0.812,19.62,22.92,17.73,2,6
17634.39,-0.559,-0.254,-0.836,22.19,23.01,26.22,2,6
17634.406,-0.503,-0.189,-0.818,25.94,22.4,34.24,2,6
17634.421,-0.522,-0.211,-0.833,31.71,23.22,41.11,2,6
17634.421,-0.494,-0.235,-0.879,40.53,23.65,50.2,2,6
17634.437,-0.456,-0.17,-0.939,47.24,26.09,53.77,2,6
17634.437,-0.494,-0.129,-0.96,42.79,28.96,51.36,2,6
17634.453,-0.434,-0.16,-0.93,34.09,30.58,50.51,2,6
17634.468,-0.437,-0.186,-0.885,31.34,31.28,47.33,2,6
17634.468,-0.444,-0.216,-0.877,33.02,32.17,49.13,2,6
17634.484,-0.419,-0.235,-0.858,33.63,32.11,53.1,2,6
17634.5,-0.439,-0.301,-0.844,36.96,33.05,55.3,2,6
17634.5,-0.443,-0.326,-0.845,43.0,35.34,58.11,2,6
17634.515,-0.433,-0.299,-0.85,47.09,36.19,58.41,2,6
17634.531,-0.437,-0.301,-0.845,47.58,36.87,57.5,2,6
17634.531,-0.409,-0.317,-0.831,46.42,35.74,56.58,2,6
17634.546,-0.433,-0.333,-0.824,47.76,35.43,54.81,2,6
17634.546,-0.419,-0.304,-0.835,49.96,34.36,53.68,2,6
17634.562,-0.425,-0.274,-0.847,49.93,32.44,48.4,2,6
17634.578,-0.449,-0.277,-0.862,46.27,31.71,42.79,2,6
17634.578,-0.435,-0.265,-0.861,39.86,29.42,36.19,2,6
17634.593,-0.433,-0.266,-0.86,34.12,27.1,27.74,2,6
17634.609,-0.422,-0.254,-0.877,28.38,23.1,19.26,2,6
17634.625,-0.452,-0.278,-0.89,22.55,21.12,13.18,2,6
17634.625,-0.425,-0.283,-0.893,18.16,18.98,10.38,2,6
17634.64,-0.442,-0.289,-0.9,18.04,19.1,6.35,2,6
17634.64,-0.434,-0.252,-0.917,15.69,18.86,4.06,2,6
17634.656,-0.415,-0.249,-0.905,11.54,18.37,1.95,2,6
17634.656,-0.418,-0.27,-0.89,8.97,18.25,0.55,2,6
17634.671,-0.416,-0.272,-0.877,8.55,18.37,1.62,2,6
17634.687,-0.418,-0.285,-0.863,10.25,18.77,4.91,2,6
17634.687,-0.419,-0.274,-0.863,12.6,19.23,8.33,2,6
17634.703,-0.419,-0.28,-0.863,13.09,19.53,10.96,2,6
17634.718,-0.429,-0.322,-0.836,13.15,19.78,13.73,2,6
17634.718,-0.384,-0.341,-0.834,17.37,18.68,15.14,2,6
17634.734,-0.366,-0.302,-0.878,18.34,15.41,9.74,2,6
17634.75,-0.35,-0.302,-0.903,8.0,11.11,0.12,2,6
17634.75,-0.349,-0.337,-0.892,-5.58,7.14,-13.06,2,6
17634.765,-0.366,-0.375,-0.885,-12.36,6.07,-25.36,2,6
17634.765,-0.367,-0.364,-0.886,-14.4,6.1,-33.88,2,6
17634.781,-0.381,-0.344,-0.869,-15.35,6.71,-39.43,2,6
17634.796,-0.395,-0.345,-0.856,-14.95,7.48,-41.32,2,6
17634.812,-0.386,-0.316,-0.843,-12.3,7.02,-40.1,2,6
17634.812,-0.395,-0.292,-0.85,-8.21,6.16,-36.65,2,6
17634.828,-0.384,-0.27,-0.867,-5.58,5.13,-30.92,2,6
17634.828,-0.368,-0.259,-0.88,-3.94,4.7,-26.12,2,6
17634.843,-0.354,-0.258,-0.892,-2.14,5.58,-22.25,2,6
17634.859,-0.35,-0.229,-0.907,-1.71,9.58,-15.69,2,6
17634.859,-0.353,-0.227,-0.912,-2.59,11.66,-11.47,2,6
17634.875,-0.354,-0.244,-0.898,-0.49,13.79,-7.35,2,6
17634.875,-0.36,-0.241,-0.897,0.7,15.02,-2.29,2,6
17634.89,-0.358,-0.242,-0.888,0.67,15.38,3.14,2,6
17634.906,-0.36,-0.265,-0.885,2.01,15.32,8.7,2,6
17634.921,-0.35,-0.275,-0.888,4.24,15.32,14.92,2,6
17634.921,-0.34,-0.269,-0.893,6.26,15.59,19.41,2,6
17634.937,-0.342,-0.279,-0.901,7.35,16.33,21.61,2,6
17634.937,-0.332,-0.281,-0.902,7.48,17.49,22.22,2,6
17634.953,-0.33,-0.285,-0.895,6.74,18.4,20.81,2,6
17634.968,-0.329,-0.297,-0.884,4.33,18.28,18.89,2,6
17634.968,-0.329,-0.299,-0.873,1.37,17.27,17.15,2,6
17634.984,-0.337,-0.32,-0.857,-0.24,15.78,16.45,2,6
17635.0,-0.343,-0.335,-0.853,0.21,13.73,16.88,2,6
17635.0,-0.345,-0.328,-0.864,1.37,11.96,16.72,2,6
17635.015,-0.347,-0.323,-0.884,1.89,11.02,15.56,2,6
17635.015,-0.336,-0.317,-0.897,1.07,10.59,13.46,2,6
17635.031,-0.329,-0.319,-0.892,-1.25,10.47,10.22,2,6
17635.046,-0.324,-0.338,-0.883,-2.72,10.07,7.93,2,6
17635.062,-0.309,-0.343,-0.877,-2.01,9.13,6.13,2,6
17635.062,-0.315,-0.33,-0.882,-1.83,8.03,3.3,2,6
17635.078,-0.323,-0.33,-0.884,-4.24,6.53,-0.09,2,6
17635.078,-0.33,-0.332,-0.882,-7.08,5.68,-3.72,2,6
17635.093,-0.335,-0.348,-0.876,-8.36,4.7,-6.47,2,6
17635.109,-0.338,-0.345,-0.871,-7.51,3.33,-7.51,2,6
17635.109,-0.332,-0.332,-0.879,-5.92,1.28,-6.59,2,6
17635.125,-0.317,-0.327,-0.895,-4.73,-1.34,-4.73,2,6
17635.14,-0.293,-0.326,-0.916,-4.18,-3.17,-3.08,2,6
17635.14,-0.278,-0.325,-0.938,-3.97,-3.6,-3.51,2,6
17635.156,-0.265,-0.32,-0.957,-4.18,-3.14,-5.89,2,6
17635.156,-0.266,-0.301,-0.97,-6.1,-1.53,-9.8,2,6
17635.171,-0.273,-0.312,-0.966,-10.07,0.46,-14.01,2,6
17635.187,-0.279,-0.348,-0.937,-11.93,2.66,-16.51,2,6
17635.203,-0.281,-0.341,-0.915,-9.92,4.82,-17.52,2,6
17635.203,-0.278,-0.316,-0.904,-8.12,5.77,-18.01,2,6
17635.218,-0.273,-0.308,-0.887,-8.94,5.13,-17.82,2,6
17635.218,-0.269,-0.31,-0.878,-10.25,3.6,-17.27,2,6
17635.234,-0.268,-0.318,-0.875,-10.68,1.74,-16.75,2,6
17635.25,-0.268,-0.332,-0.88,-9.74,0.61,-15.5,2,6
17635.25,-0.266,-0.326,-0.895,-7.78,0.85,-13.7,2,6
17635.265,-0.268,-0.317,-0.906,-6.71,1.92,-12.12,2,6
17635.265,-0.277,-0.325,-0.909,-6.04,3.81,-10.56,2,6
17635.281,-0.29,-0.336,-0.907,-3.69,6.16,-8.73,2,6
17635.296,-0.301,-0.323,-0.912,-0.98,8.12,-7.48,2,6
17635.296,-0.31,-0.305,-0.908,-0.37,9.06,-6.65,2,6
17635.312,-0.319,-0.306,-0.901,-0.85,8.91,-5.77,2,6
17635.328,-0.322,-0.305,-0.901,-0.95,8.09,-4.33,2,6
17635.328,-0.323,-0.306,-0.895,-0.43,7.29,-2.29,2,6
17635.343,-0.323,-0.307,-0.902,1.28,6.59,-0.24,2,6
17635.359,-0.32,-0.298,-0.915,2.59,6.47,1.22,2,6
17635.359,-0.316,-0.282,-0.919,1.83,6.99,1.68,2,6
17635.375,-0.312,-0.283,-0.911,-0.31,6.9,1.13,2,6
17635.39,-0.314,-0.3,-0.899,-1.04,6.47,1.28,2,6
17635.39,-0.312,-0.307,-0.894,0.49,6.01,3.45,2,6
17635.406,-0.308,-0.312,-0.898,3.02,6.04,6.44,2,6
17635.406,-0.309,-0.313,-0.904,5.19,6.47,9.06,2,6
17635.421,-0.307,-0.305,-0.91,6.35,7.51,10.65,2,6
17635.437,-0.303,-0.306,-0.911,6.81,8.61,11.35,2,6
17635.437,-0.295,-0.299,-0.907,6.35,9.4,11.26,2,6
17635.453,-0.296,-0.304,-0.899,5.55,9.52,10.47,2,6
17635.468,-0.297,-0.319,-0.895,5.83,9.13,11.02,2,6
17635.468,-0.294,-0.322,-0.9,7.78,8.91,12.09,2,6
17635.484,-0.292,-0.322,-0.9,8.91,8.55,12.67,2,6
17635.5,-0.288,-0.317,-0.9,9.13,8.12,12.85,2,6
17635.5,-0.279,-0.315,-0.906,9.03,7.42,11.81,2,6
17635.515,-0.276,-0.316,-0.909,7.75,6.81,10.16,2,6
17635.515,-0.275,-0.324,-0.901,6.74,6.29,8.85,2,6
17635.531,-0.27,-0.318,-0.897,6.16,5.1,7.35,2,6
17635.546,-0.269,-0.306,-0.892,4.67,3.39,5.55,2,6
17635.546,-0.263,-0.315,-0.889,2.32,1.34,3.91,2,6
17635.562,-0.261,-0.317,-0.895,1.1,-0.34,2.72,2,6
17635.578,-0.26,-0.32,-0.901,0.61,-1.28,2.11,2,6
17635.593,-0.26,-0.33,-0.907,0.24,-1.74,1.89,2,6
17635.593,-0.256,-0.33,-0.92,1.07,-1.86,1.25,2,6
17635.609,-0.254,-0.329,-0.933,1.71,-1.43,0.55,2,6
17635.609,-0.251,-0.319,-0.932,1.34,-0.58,-0.21,2,6
17635.625,-0.255,-0.323,-0.922,1.07,0.24,-1.19,2,6
17635.64,-0.262,-0.319,-0.916,1.01,0.31,-2.08,2,6
17635.64,-0.268,-0.31,-0.907,0.61,-0.24,-2.47,2,6
17635.656,-0.271,-0.308,-0.893,-0.12,-1.37,-2.29,2,6
17635.671,-0.269,-0.303,-0.9,-0.64,-2.96,-1.59,2,6
17635.671,-0.262,-0.306,-0.907,-0.79,-3.94,-0.24,2,6
17635.687,-0.265,-0.322,-0.91,0.06,-3.6,1.74,2,6
17635.687,-0.261,-0.327,-0.913,2.01,-2.69,3.11,2,6
17635.703,-0.257,-0.313,-0.917,2.62,-1.59,3.02,2,6
17635.718,-0.258,-0.308,-0.913,1.22,-1.07,2.29,2,6
17635.718,-0.259,-0.315,-0.902,-1.1,-1.53,1.07,2,6
17635.734,-0.263,-0.321,-0.895,-1.89,-2.23,0.0,2,6
17635.75,-0.27,-0.329,-0.892,-0.95,-2.66,0.34,2,6
17635.75,-0.268,-0.328,-0.895,0.4,-2.87,1.68,2,6
17635.765,-0.261,-0.332,-0.901,1.37,-3.05,2.26,2,6
17635.765,-0.258,-0.319,-0.91,1.4,-3.05,1.5,2,6
17635.781,-0.257,-0.304,-0.91,-0.09,-2.62,0.0,2,6
17635.796,-0.264,-0.317,-0.902,-1.71,-2.75,-1.43,2,6
17635.796,-0.265,-0.327,-0.908,-1.92,-3.6,-2.53,2,6
17635.812,-0.261,-0.311,-0.912,-1.83,-4.43,-3.17,2,6
17635.828,-0.262,-0.314,-0.91,-2.41,-4.97,-3.17,2,6
17635.828,-0.266,-0.324,-0.91,-0.46,-4.85,0.27,2,6
17635.843,-0.263,-0.32,-0.917,0.98,-3.57,1.56,2,6
17635.859,-0.259,-0.312,-0.92,2.29,-2.11,2.14,2,6
17635.859,-0.267,-0.319,-0.916,3.05,-1.19,2.41,2,6
17635.875,-0.275,-0.31,-0.911,2.08,-1.65,1.86,2,6
17635.89,-0.27,-0.314,-0.905,0.18,-2.93,1.59,2,6
17635.89,-0.263,-0.328,-0.903,-0.46,-4.06,1.53,2,6
17635.906,-0.263,-0.332,-0.913,-0.21,-5.01,1.31,2,6
17635.906,-0.253,-0.329,-0.918,0.09,-4.85,1.16,2,6
17635.921,-0.258,-0.324,-0.92,0.09,-3.3,0.06,2,6
17635.937,-0.275,-0.325,-0.91,-0.43,-2.08,-0.92,2,6
17635.937,-0.276,-0.32,-0.896,-0.95,-2.17,-1.28,2,6
17635.953,-0.282,-0.328,-0.895,-0.31,-3.02,-1.22,2,6
17635.968,-0.28,-0.329,-0.902,0.92,-4.06,-0.34,2,6
17635.968,-0.267,-0.324,-0.92,1.92,-4.7,0.43,2,6
17635.984,-0.258,-0.322,-0.929,1.5,-4.12,-0.18,2,6
17636.0,-0.253,-0.323,-0.926,0.15,-2.93,-2.08,2,6
17636.0,-0.256,-0.322,-0.922,-0.7,-2.08,-3.85,2,6
17636.015,-0.26,-0.315,-0.917,-1.25,-1.71,-4.82,2,6
17636.031,-0.267,-0.311,-0.908,-2.14,-1.43,-4.94,2,6
17636.031,-0.274,-0.315,-0.897,-2.11,-1.5,-4.18,2,6
17636.046,-0.279,-0.308,-0.902,-0.73,-2.32,-2.87,2,6
17636.046,-0.278,-0.299,-0.909,-0.73,-3.54,-1.68,2,6
17636.062,-0.276,-0.302,-0.917,-2.11,-4.49,-1.4,2,6
17636.078,-0.262,-0.31,-0.92,-3.2,-5.25,-1.59,2,6
17636.078,-0.255,-0.303,-0.922,-3.45,-4.97,-2.41,2,6
17636.093,-0.262,-0.302,-0.924,-3.88,-4.12,-2.9,2,6
17636.109,-0.264,-0.311,-0.915,-4.7,-3.3,-2.23,2,6
17636.109,-0.268,-0.317,-0.908,-4.0,-2.84,-1.62,2,6
17636.125,-0.269,-0.315,-0.903,-2.56,-2.81,-0.89,2,6
17636.125,-0.267,-0.311,-0.901,-1.71,-3.23,-0.06,2,6
17636.14,-0.26,-0.315,-0.899,-1.13,-3.69,1.13,2,6
17636.156,-0.261,-0.318,-0.899,-0.4,-3.97,2.04,2,6
17636.156,-0.261,-0.312,-0.91,-0.21,-4.21,1.92,2,6
17636.171,-0.257,-0.307,-0.915,-0.95,-4.21,0.79,2,6
17636.187,-0.268,-0.312,-0.916,-2.23,-3.97,-0.85,2,6
17636.203,-0.272,-0.313,-0.915,-2.9,-3.81,-2.17,2,6
17636.203,-0.271,-0.316,-0.918,-2.78,-3.85,-3.02,2,6
17636.218,-0.275,-0.327,-0.917,-2.2,-3.23,-3.2,2,6
17636.218,-0.274,-0.321,-0.915,-1.22,-2.69,-2.93,2,6
17636.234,-0.271,-0.316,-0.912,-0.43,-2.44,-2.53,2,6
17636.25,-0.271,-0.302,-0.91,-0.31,-2.47,-2.38,2,6
17636.25,-0.272,-0.29,-0.914,-1.34,-2.96,-2.72,2,6
17636.265,-0.277,-0.297,-0.915,-2.93,-4.03,-2.69,2,6
17636.265,-0.275,-0.321,-0.917,-2.99,-4.46,-2.01,2,6
17636.281,-0.27,-0.312,-0.923,-1.5,-4.03,-1.43,2,6
17636.296,-0.264,-0.302,-0.934,-1.07,-3.23,-1.1,2,6
17636.296,-0.27,-0.325,-0.925,-1.95,-1.98,-0.27,2,6
17636.312,-0.273,-0.342,-0.912,-0.73,-0.27,0.64,2,6
17636.328,-0.273,-0.318,-0.913,0.64,0.92,0.12,2,6
17636.328,-0.276,-0.299,-0.91,-1.1,0.98,-1.68,2,6
17636.343,-0.279,-0.3,-0.901,-4.3,0.12,-4.18,2,6
17636.359,-0.284,-0.319,-0.894,-5.86,-1.19,-6.9,2,6
17636.359,-0.29,-0.316,-0.902,-5.71,-2.35,-8.94,2,6
17636.375,-0.294,-0.306,-0.904,-6.16,-3.27,-9.95,2,6
17636.375,-0.301,-0.327,-0.903,-6.71,-3.75,-9.83,2,6
17636.39,-0.298,-0.323,-0.905,-5.25,-3.91,-9.31,2,6
17636.406,-0.293,-0.302,-0.919,-4.3,-4.03,-9.83,2,6
17636.421,-0.287,-0.295,-0.93,-5.89,-4.49,-10.71,2,6
17636.421,-0.278,-0.301,-0.934,-8.03,-4.67,-11.41,2,6
17636.437,-0.266,-0.297,-0.939,-8.12,-4.46,-11.84,2,6
17636.437,-0.259,-0.295,-0.939,-7.63,-3.69,-12.57,2,6
17636.453,-0.262,-0.297,-0.938,-7.69,-2.56,-13.21,2,6
17636.468,-0.263,-0.301,-0.927,-7.32,-1.53,-12.85,2,6
17636.484,-0.272,-0.326,-0.914,-5.83,-0.12,-10.86,2,6
17636.484,-0.269,-0.325,-0.904,-2.66,0.98,-7.66,2,6
17636.5,-0.265,-0.308,-0.898,0.15,1.46,-5.13,2,6
17636.5,-0.269,-0.311,-0.893,0.89,0.92,-2.99,2,6
17636.515,-0.267,-0.307,-0.902,0.76,-0.31,-1.13,2,6
