timestamp,ax,ay,az,gx,gy,gz,orient_label,motion_label
17598.406,-0.809,0.075,0.551,2.41,-0.18,0.49,2,6
17598.406,-0.811,0.065,0.552,1.74,-0.34,1.37,2,6
17598.421,-0.819,0.062,0.555,2.26,-0.09,1.83,2,6
17598.437,-0.819,0.065,0.552,3.66,0.61,2.87,2,6
17598.437,-0.814,0.074,0.547,4.97,1.59,4.49,2,6
17598.453,-0.816,0.083,0.544,6.99,3.91,8.24,2,6
17598.468,-0.821,0.086,0.549,7.02,4.52,8.39,2,6
17598.468,-0.819,0.081,0.557,6.78,4.79,7.23,2,6
17598.484,-0.823,0.088,0.564,5.86,3.75,5.77,2,6
17598.484,-0.817,0.081,0.567,3.02,1.68,4.06,2,6
17598.5,-0.818,0.074,0.568,-0.03,-1.62,0.64,2,6
17598.515,-0.812,0.066,0.565,-3.27,-4.88,-2.62,2,6
17598.515,-0.798,0.06,0.56,-5.74,-6.9,-4.97,2,6
17598.531,-0.791,0.052,0.554,-6.35,-7.29,-6.99,2,6
17598.546,-0.797,0.051,0.543,-5.89,-6.93,-7.9,2,6
17598.546,-0.801,0.056,0.538,-5.31,-5.58,-7.39,2,6
17598.562,-0.805,0.051,0.539,-4.55,-3.2,-6.13,2,6
17598.578,-0.808,0.054,0.547,0.34,2.26,-2.53,2,6
17598.593,-0.811,0.063,0.55,2.84,4.3,-0.46,2,6
17598.609,-0.815,0.065,0.554,4.36,5.01,0.92,2,6
17598.609,-0.823,0.067,0.561,4.12,4.85,1.16,2,6
17598.625,-0.836,0.061,0.573,2.53,4.18,0.52,2,6
17598.625,-0.845,0.048,0.585,1.56,2.84,-0.03,2,6
17598.64,-0.841,0.049,0.587,1.59,0.73,-0.34,2,6
17598.656,-0.837,0.057,0.578,1.37,-1.8,-0.92,2,6
17598.656,-0.826,0.068,0.562,0.03,-4.33,-1.19,2,6
17598.671,-0.814,0.07,0.551,-2.56,-6.04,-1.07,2,6
17598.687,-0.812,0.063,0.546,-3.91,-6.62,-0.76,2,6
17598.687,-0.811,0.061,0.541,-3.14,-5.95,-0.03,2,6
17598.703,-0.806,0.066,0.541,-1.59,-4.12,0.98,2,6
17598.718,-0.804,0.069,0.544,-0.82,-2.17,2.56,2,6
17598.718,-0.803,0.066,0.552,-0.24,-1.01,4.85,2,6
17598.734,-0.801,0.065,0.561,1.16,-0.61,7.66,2,6
17598.75,-0.802,0.071,0.562,2.99,-1.62,12.54,2,6
17598.765,-0.798,0.07,0.563,1.98,-3.17,14.28,2,6
17598.765,-0.794,0.065,0.561,0.98,-5.19,15.11,2,6
17598.781,-0.787,0.067,0.549,0.27,-7.26,15.78,2,6
17598.796,-0.786,0.077,0.541,-0.58,-8.76,15.87,2,6
17598.812,-0.79,0.085,0.53,-2.04,-10.32,16.42,2,6
17598.812,-0.781,0.103,0.527,-4.52,-11.93,17.55,2,6
17598.828,-0.767,0.125,0.515,-6.9,-13.58,19.59,2,6
17598.828,-0.746,0.153,0.513,-9.16,-14.65,22.61,2,6
17598.843,-0.734,0.179,0.513,-11.08,-14.83,26.86,2,6
17598.859,-0.75,0.194,0.516,-11.63,-13.49,33.2,2,6
17598.859,-0.76,0.206,0.522,-9.55,-11.47,42.57,2,6
17598.875,-0.762,0.217,0.527,-5.68,-9.43,54.66,2,6
17598.875,-0.763,0.223,0.527,-0.37,-7.63,69.06,2,6
17598.89,-0.753,0.229,0.518,5.07,-6.81,84.72,2,6
17598.906,-0.749,0.241,0.508,9.61,-7.26,100.22,2,6
17598.921,-0.714,0.25,0.48,11.72,-14.59,131.05,2,6
17598.937,-0.704,0.255,0.469,10.32,-21.06,144.47,2,6
17598.953,-0.691,0.244,0.438,7.48,-29.42,156.07,2,6
17598.953,-0.679,0.223,0.402,4.03,-38.06,165.44,2,6
17598.968,-0.676,0.197,0.369,0.98,-45.56,171.94,2,6
17598.968,-0.651,0.181,0.338,-2.87,-51.82,175.48,2,6
17598.984,-0.593,0.179,0.317,-6.74,-55.76,175.82,2,6
17599.0,-0.558,0.183,0.297,-10.13,-56.95,172.77,2,6
17599.0,-0.546,0.185,0.274,-13.58,-57.1,168.03,2,6
17599.015,-0.534,0.184,0.258,-17.98,-56.73,162.72,2,6
17599.015,-0.531,0.196,0.245,-23.19,-57.01,157.2,2,6
17599.031,-0.525,0.205,0.234,-28.57,-58.87,152.5,2,6
17599.046,-0.496,0.201,0.229,-33.36,-61.43,148.69,2,6
17599.062,-0.469,0.204,0.228,-37.05,-63.08,145.39,2,6
17599.062,-0.43,0.208,0.234,-40.41,-65.22,142.0,2,6
17599.078,-0.37,0.2,0.249,-40.93,-65.68,138.19,2,6
17599.078,-0.362,0.208,0.246,-37.57,-65.98,133.55,2,6
17599.093,-0.395,0.213,0.236,-32.07,-67.9,128.73,2,6
17599.109,-0.382,0.21,0.238,-27.22,-70.83,125.0,2,6
17599.109,-0.381,0.205,0.237,-23.16,-72.76,123.54,2,6
17599.125,-0.394,0.203,0.235,-18.62,-73.92,122.78,2,6
17599.125,-0.402,0.212,0.24,-13.28,-73.55,119.02,2,6
17599.14,-0.398,0.205,0.257,-7.39,-69.0,116.58,2,6
17599.156,-0.369,0.199,0.279,-0.76,-61.16,114.2,2,6
17599.171,-0.286,0.199,0.308,7.75,-50.94,108.62,2,6
17599.171,-0.25,0.218,0.328,17.67,-37.29,100.34,2,6
17599.187,-0.274,0.223,0.337,26.55,-23.83,92.1,2,6
17599.203,-0.293,0.239,0.362,32.78,-13.06,83.77,2,6
17599.203,-0.281,0.256,0.394,36.62,-5.43,77.79,2,6
17599.218,-0.275,0.271,0.425,41.41,-1.5,71.38,2,6
17599.218,-0.242,0.277,0.458,47.91,-0.18,65.31,2,6
17599.234,-0.195,0.292,0.495,55.42,0.85,59.48,2,6
17599.25,-0.171,0.311,0.523,63.02,1.77,52.67,2,6
17599.25,-0.19,0.315,0.535,69.98,1.83,45.23,2,6
17599.265,-0.211,0.316,0.547,76.51,0.18,36.68,2,6
17599.265,-0.227,0.345,0.556,83.29,-2.41,24.51,2,6
17599.281,-0.237,0.389,0.564,87.8,-7.51,9.7,2,6
17599.296,-0.2,0.47,0.571,86.76,-15.14,-7.66,2,6
17599.296,-0.178,0.549,0.563,78.46,-19.26,-23.87,2,6
17599.312,-0.235,0.636,0.57,61.28,-23.26,-36.26,2,6
17599.328,-0.32,0.72,0.597,40.8,-31.1,-46.63,2,6
17599.343,-0.383,0.769,0.627,22.58,-40.71,-55.39,2,6
17599.343,-0.443,0.82,0.674,6.81,-53.74,-61.92,2,6
17599.359,-0.513,0.866,0.73,-2.84,-72.42,-66.62,2,6
17599.359,-0.511,0.883,0.777,-2.26,-90.98,-67.11,2,6
17599.375,-0.465,0.901,0.779,3.54,-107.64,-63.14,2,6
17599.39,-0.415,0.916,0.763,9.06,-117.98,-57.86,2,6
17599.39,-0.364,0.924,0.75,10.86,-118.23,-54.9,2,6
17599.406,-0.349,0.956,0.772,6.38,-109.81,-53.77,2,6
17599.421,-0.389,1.01,0.872,-19.71,-94.0,-44.37,2,6
17599.437,-0.417,1.043,0.974,-41.75,-92.9,-31.13,2,6
17599.437,-0.445,1.07,1.042,-46.48,-97.57,-24.78,2,6
17599.453,-0.419,1.065,1.056,-50.39,-104.19,-18.34,2,6
17599.468,-0.374,1.044,1.06,-48.4,-102.51,-12.15,2,6
17599.468,-0.268,1.039,1.047,-44.53,-95.07,-5.77,2,6
17599.484,-0.163,0.945,1.056,-44.77,-76.08,9.83,2,6
17599.5,-0.169,0.925,1.066,-44.04,-59.72,22.77,2,6
17599.5,-0.131,0.819,1.074,-41.35,-47.82,33.02,2,6
17599.515,-0.103,0.773,1.12,-41.44,-36.29,41.57,2,6
17599.515,-0.096,0.768,1.137,-42.12,-26.06,45.08,2,6
17599.531,-0.094,0.711,1.144,-47.12,-19.5,46.78,2,6
17599.546,-0.093,0.725,1.175,-55.27,-17.79,47.36,2,6
17599.546,-0.084,0.739,1.197,-60.95,-19.65,47.52,2,6
17599.562,-0.103,0.731,1.242,-61.8,-26.0,48.25,2,6
17599.578,-0.101,0.69,1.256,-57.25,-35.98,53.01,2,6
17599.593,-0.007,0.629,1.176,-51.94,-48.59,72.94,2,6
17599.609,0.038,0.584,1.093,-57.01,-50.94,78.01,2,6
17599.609,0.07,0.54,1.014,-66.01,-45.9,81.21,2,6
17599.625,0.079,0.517,0.989,-76.2,-34.49,85.06,2,6
17599.625,0.059,0.495,1.004,-83.13,-22.31,89.94,2,6
17599.64,0.068,0.458,1.038,-86.79,-13.31,96.07,2,6
17599.656,0.09,0.428,1.103,-86.55,-7.35,99.67,2,6
17599.671,0.104,0.394,1.147,-81.12,-5.31,97.11,2,6
17599.671,0.108,0.337,1.169,-70.59,-5.4,89.21,2,6
17599.687,0.086,0.347,1.203,-58.6,-9.61,77.73,2,6
17599.687,0.096,0.384,1.2,-42.48,-15.53,69.28,2,6
17599.703,0.03,0.382,1.157,-33.39,-22.34,61.98,2,6
17599.718,0.075,0.399,1.115,-40.41,-31.34,57.89,2,6
17599.718,0.11,0.36,1.011,-39.31,-28.69,59.36,2,6
17599.734,0.11,0.314,0.961,-36.93,-16.82,59.69,2,6
17599.75,0.11,0.357,0.999,-45.17,-5.83,54.54,2,6
17599.75,0.089,0.366,1.059,-55.06,1.53,48.55,2,6
17599.765,0.089,0.3,1.111,-54.54,6.96,47.15,2,6
17599.765,0.069,0.28,1.156,-41.75,11.17,46.69,2,6
17599.781,0.038,0.307,1.17,-23.74,10.68,43.64,2,6
17599.796,0.011,0.328,1.152,-7.6,6.32,40.01,2,6
17599.796,0.0,0.36,1.114,-1.34,-1.89,35.98,2,6
17599.812,0.005,0.387,1.071,-3.57,-10.9,31.01,2,6
17599.828,0.02,0.377,0.992,-5.68,-16.69,28.84,2,6
17599.828,0.045,0.376,0.919,-8.0,-17.21,30.61,2,6
17599.843,0.08,0.369,0.887,-11.63,-13.55,33.36,2,6
17599.859,0.077,0.367,0.941,-17.09,-7.87,35.4,2,6
17599.859,-0.046,0.409,1.153,-17.09,-9.92,37.14,2,6
17599.875,-0.002,0.449,1.203,-8.58,-23.07,48.55,2,6
17599.89,0.108,0.452,1.175,-4.15,-34.61,61.59,2,6
17599.89,0.17,0.447,1.092,-4.33,-40.47,64.0,2,6
17599.906,0.2,0.449,1.027,-6.29,-39.64,61.77,2,6
17599.906,0.171,0.433,0.987,-7.05,-34.73,59.6,2,6
17599.921,0.149,0.411,0.962,-8.39,-31.31,58.17,2,6
17599.937,0.144,0.427,0.955,-9.86,-29.51,56.34,2,6
17599.937,0.125,0.425,0.937,-11.08,-28.72,54.78,2,6
17599.953,0.129,0.411,0.918,-12.88,-28.53,55.42,2,6
17599.968,0.147,0.379,0.889,-13.43,-26.95,57.83,2,6
17599.968,0.169,0.366,0.861,-13.37,-22.49,60.7,2,6
17599.984,0.173,0.359,0.86,-13.61,-16.66,62.47,2,6
17599.984,0.171,0.353,0.878,-13.86,-11.51,63.6,2,6
17600.0,0.155,0.357,0.905,-13.12,-7.23,64.73,2,6
17600.015,0.158,0.358,0.935,-12.27,-4.27,65.61,2,6
17600.015,0.161,0.337,0.969,-9.55,0.34,68.48,2,6
17600.031,0.127,0.377,0.966,-3.75,0.4,66.01,2,6
17600.046,0.121,0.313,0.974,-0.92,-0.27,66.56,2,6
17600.046,0.164,0.321,0.95,4.88,-1.53,65.86,2,6
17600.062,0.158,0.371,0.876,15.96,-1.1,57.74,2,6
17600.078,0.144,0.374,0.906,11.26,4.3,52.55,2,6
17600.078,0.163,0.426,0.944,8.88,4.73,49.07,2,6
17600.093,0.153,0.418,0.972,11.02,7.35,46.27,2,6
17600.109,0.163,0.432,0.959,12.36,7.39,42.73,2,6
17600.109,0.17,0.423,0.93,13.49,7.93,37.48,2,6
17600.125,0.171,0.384,0.91,13.21,10.47,33.51,2,6
17600.125,0.184,0.352,0.893,13.12,12.05,29.76,2,6
17600.14,0.19,0.318,0.868,14.92,15.99,27.25,2,6
17600.156,0.185,0.324,0.868,15.38,19.53,24.81,2,6
17600.171,0.155,0.317,0.876,13.46,19.78,20.45,2,6
17600.171,0.155,0.32,0.896,8.58,16.3,17.58,2,6
17600.187,0.174,0.302,0.919,5.37,12.15,14.86,2,6
17600.187,0.199,0.266,0.925,3.36,8.27,11.23,2,6
17600.203,0.21,0.245,0.955,1.53,5.8,7.08,2,6
17600.218,0.195,0.229,0.991,4.15,3.57,2.78,2,6
17600.218,0.175,0.246,1.005,9.67,-0.46,-0.89,2,6
17600.234,0.17,0.302,0.999,12.67,-6.87,-4.85,2,6
17600.234,0.163,0.326,0.951,11.26,-12.82,-8.06,2,6
17600.25,0.179,0.368,0.894,8.24,-14.59,-8.24,2,6
17600.265,0.188,0.396,0.873,7.02,-11.87,-6.44,2,6
17600.281,0.188,0.401,0.884,4.91,-8.76,-4.73,2,6
17600.281,0.182,0.396,0.908,2.23,-6.87,-3.72,2,6
17600.296,0.188,0.387,0.92,0.09,-6.2,-2.72,2,6
17600.296,0.173,0.392,0.931,-2.59,-6.23,-4.0,2,6
17600.312,0.156,0.374,0.928,-3.42,-7.35,-4.0,2,6
17600.328,0.161,0.361,0.913,-3.33,-8.33,-1.46,2,6
17600.328,0.153,0.364,0.931,-3.81,-8.85,0.52,2,6
17600.343,0.171,0.34,0.928,-5.13,-10.16,3.14,2,6
17600.343,0.2,0.322,0.911,-6.5,-10.25,4.18,2,6
17600.359,0.218,0.327,0.916,-5.89,-8.39,3.81,2,6
17600.375,0.233,0.317,0.909,-4.97,-6.81,3.33,2,6
17600.375,0.241,0.323,0.921,-4.67,-5.28,1.62,2,6
17600.39,0.233,0.342,0.929,-3.57,-4.0,-0.27,2,6
17600.406,0.237,0.334,0.904,-3.51,-4.03,-1.16,2,6
17600.406,0.239,0.312,0.9,-3.85,-2.5,-1.77,2,6
17600.421,0.232,0.303,0.907,1.92,2.32,-3.6,2,6
17600.437,0.225,0.299,0.908,3.66,3.72,-5.62,2,6
17600.437,0.225,0.292,0.873,4.43,9.0,-9.03,2,6
17600.453,0.173,0.338,0.944,6.65,17.52,-12.18,2,6
17600.468,0.157,0.338,0.957,9.7,14.25,-10.41,2,6
17600.468,0.151,0.357,0.931,7.51,9.67,-9.86,2,6
17600.484,0.154,0.361,0.924,6.26,7.69,-8.61,2,6
17600.484,0.15,0.389,0.946,4.55,6.62,-6.1,2,6
17600.5,0.143,0.392,0.945,2.5,4.61,-3.42,2,6
17600.515,0.144,0.388,0.936,0.76,2.08,-0.7,2,6
17600.515,0.149,0.382,0.931,-1.16,-0.67,1.68,2,6
17600.531,0.174,0.36,0.909,-3.54,-2.87,3.88,2,6
17600.546,0.21,0.342,0.908,-5.4,-3.33,4.7,2,6
17600.562,0.218,0.332,0.92,-4.49,-2.23,4.55,2,6
17600.562,0.22,0.319,0.914,-2.69,-2.04,3.57,2,6
17600.578,0.216,0.32,0.915,-1.37,-1.68,1.89,2,6
17600.578,0.2,0.327,0.916,0.06,-1.65,0.49,2,6
17600.593,0.191,0.337,0.908,-0.12,-2.23,-0.61,2,6
17600.609,0.174,0.368,0.938,-1.53,-3.3,-1.4,2,6
17600.625,0.165,0.375,0.954,-3.36,-5.31,-1.22,2,6
17600.64,0.15,0.378,0.939,-5.71,-8.21,-1.25,2,6
17600.64,0.157,0.371,0.894,-9.22,-10.62,0.4,2,6
17600.656,0.17,0.358,0.881,-12.94,-10.74,3.33,2,6
17600.656,0.185,0.352,0.897,-15.56,-10.22,5.22,2,6
17600.671,0.205,0.342,0.908,-17.79,-10.53,5.89,2,6
17600.687,0.217,0.326,0.909,-19.07,-10.65,5.74,2,6
17600.687,0.222,0.315,0.912,-18.31,-9.89,5.16,2,6
17600.703,0.228,0.33,0.912,-17.3,-8.58,5.07,2,6
17600.718,0.23,0.321,0.913,-17.18,-6.9,4.91,2,6
17600.718,0.231,0.3,0.93,-16.08,-5.71,3.88,2,6
17600.734,0.223,0.312,0.955,-14.53,-4.94,2.44,2,6
17600.75,0.214,0.313,0.944,-13.82,-6.23,0.79,2,6
17600.75,0.214,0.298,0.931,-13.09,-7.78,-0.15,2,6
17600.765,0.217,0.297,0.926,-11.47,-8.33,-0.34,2,6
17600.781,0.208,0.271,1.007,-16.51,-15.38,-4.49,2,6
17600.796,0.164,0.242,0.992,-16.82,-22.64,-6.65,2,6
17600.796,0.142,0.226,0.906,-20.97,-28.17,-5.74,2,6
17600.812,0.235,0.228,0.935,-26.06,-29.08,-3.05,2,6
17600.828,0.268,0.239,0.946,-18.8,-22.46,-2.62,2,6
17600.828,0.308,0.231,0.944,-8.3,-12.67,-2.35,2,6
17600.843,0.297,0.224,0.943,1.37,-3.97,-7.14,2,6
17600.843,0.248,0.249,0.931,8.15,3.42,-11.57,2,6
17600.859,0.218,0.327,0.882,11.63,8.73,-12.45,2,6
17600.875,0.188,0.36,0.851,8.7,10.35,-12.67,2,6
17600.89,0.132,0.436,0.847,8.82,11.51,-7.93,2,6
17600.89,0.148,0.449,0.794,9.16,10.44,1.13,2,6
17600.906,0.176,0.43,0.774,0.0,6.26,7.05,2,6
17600.906,0.206,0.363,0.825,-10.25,4.3,9.34,2,6
17600.921,0.23,0.281,0.889,-12.02,4.3,9.43,2,6
17600.937,0.254,0.232,0.925,-7.32,4.21,9.8,2,6
17600.953,0.257,0.18,0.999,-0.73,7.02,8.12,2,6
17600.968,0.229,0.19,1.028,4.27,6.07,6.62,2,6
17600.968,0.194,0.226,0.996,9.98,4.12,4.79,2,6
17600.984,0.193,0.281,0.953,11.32,2.01,4.12,2,6
17600.984,0.2,0.33,0.926,9.06,0.79,3.57,2,6
17601.0,0.207,0.353,0.915,6.53,0.82,4.55,2,6
17601.015,0.211,0.367,0.926,2.66,0.46,6.07,2,6
17601.015,0.208,0.353,0.945,-1.37,-1.68,6.9,2,6
17601.031,0.211,0.314,0.948,-3.42,-4.58,7.63,2,6
17601.046,0.21,0.284,0.953,-3.63,-7.08,7.9,2,6
17601.046,0.205,0.272,0.973,-2.29,-9.31,7.63,2,6
17601.062,0.2,0.273,0.965,-0.95,-12.33,7.72,2,6
17601.078,0.178,0.298,0.986,-0.76,-15.59,8.21,2,6
17601.078,0.178,0.309,0.938,0.03,-19.5,10.47,2,6
17601.093,0.211,0.33,0.915,-3.23,-21.3,12.57,2,6
17601.109,0.217,0.331,0.908,-5.31,-20.42,14.19,2,6
17601.125,0.252,0.307,0.897,-6.71,-17.79,18.19,2,6
17601.125,0.284,0.287,0.886,-7.84,-16.02,17.85,2,6
17601.14,0.301,0.258,0.899,-8.15,-12.79,16.27,2,6
17601.156,0.301,0.242,0.906,-6.87,-9.95,13.82,2,6
17601.156,0.311,0.227,0.915,-5.4,-7.9,11.2,2,6
17601.171,0.301,0.218,0.944,-4.21,-6.41,7.02,2,6
17601.187,0.274,0.22,0.955,-1.19,-6.78,3.14,2,6
17601.187,0.263,0.239,0.926,1.92,-8.15,0.7,2,6
17601.203,0.252,0.274,0.907,3.57,-7.9,-0.76,2,6
17601.218,0.243,0.324,0.918,4.09,-6.93,0.24,2,6
17601.218,0.232,0.342,0.909,2.72,-6.78,2.44,2,6
17601.234,0.224,0.346,0.921,-1.01,-7.17,5.31,2,6
17601.234,0.212,0.346,0.964,-3.17,-8.48,8.58,2,6
17601.25,0.208,0.356,0.909,-2.08,-10.41,14.77,2,6
17601.265,0.242,0.321,0.892,-5.52,-11.44,20.2,2,6
17601.281,0.254,0.301,0.918,-7.69,-10.99,22.16,2,6
17601.296,0.288,0.25,0.902,-10.16,-11.87,25.57,2,6
17601.296,0.318,0.216,0.9,-11.05,-10.68,23.59,2,6
17601.312,0.334,0.188,0.901,-9.7,-8.21,19.71,2,6
17601.328,0.351,0.17,0.895,-7.9,-5.19,14.62,2,6
17601.328,0.377,0.15,0.895,-6.47,-1.5,7.9,2,6
17601.343,0.364,0.141,0.924,-3.3,3.17,0.24,2,6
17601.343,0.333,0.179,0.941,3.78,6.53,-5.83,2,6
17601.359,0.296,0.236,0.952,9.95,7.51,-9.55,2,6
17601.375,0.256,0.286,0.946,12.3,6.1,-10.9,2,6
17601.39,0.239,0.324,0.925,11.14,3.51,-9.43,2,6
17601.39,0.243,0.333,0.912,7.75,1.53,-6.59,2,6
17601.406,0.245,0.314,0.908,1.98,-0.61,-1.4,2,6
17601.406,0.257,0.295,0.916,0.18,-1.19,0.15,2,6
17601.421,0.261,0.283,0.926,-0.73,-2.04,0.7,2,6
17601.437,0.263,0.262,0.917,-0.95,-2.23,0.85,2,6
17601.437,0.292,0.249,0.915,-0.43,-1.16,0.31,2,6
17601.453,0.293,0.245,0.917,0.7,0.18,-0.95,2,6
17601.468,0.288,0.242,0.919,1.71,1.31,-2.35,2,6
17601.468,0.285,0.247,0.917,3.02,2.11,-3.72,2,6
17601.484,0.29,0.249,0.912,4.18,3.02,-5.07,2,6
17601.484,0.272,0.27,0.941,5.07,3.85,-6.44,2,6
17601.5,0.242,0.297,0.943,5.65,2.59,-5.58,2,6
17601.515,0.247,0.319,0.924,3.66,-0.06,-3.05,2,6
17601.515,0.245,0.323,0.916,0.89,-1.53,-0.67,2,6
17601.531,0.255,0.31,0.914,-1.46,-3.02,2.35,2,6
17601.546,0.263,0.29,0.936,-4.0,-4.06,4.18,2,6
17601.546,0.275,0.274,0.937,-5.37,-5.74,4.82,2,6
17601.562,0.294,0.251,0.944,-6.74,-7.51,3.75,2,6
17601.578,0.315,0.226,0.935,-6.44,-8.42,1.31,2,6
17601.578,0.342,0.213,0.973,-5.19,-7.81,-2.32,2,6
17601.593,0.317,0.223,0.994,-1.83,-8.45,-8.03,2,6
17601.609,0.307,0.253,0.899,0.64,-11.02,-10.68,2,6
17601.609,0.328,0.26,0.876,-4.33,-9.77,-13.46,2,6
17601.625,0.298,0.273,0.916,-4.85,-5.31,-14.31,2,6
17601.625,0.304,0.26,0.877,-2.66,-1.71,-12.24,2,6
17601.64,0.28,0.27,0.866,-1.04,4.3,-11.08,2,6
17601.656,0.235,0.285,0.893,1.46,10.44,-9.0,2,6
17601.671,0.186,0.31,0.89,2.56,13.37,-6.2,2,6
17601.671,0.146,0.338,0.867,3.88,14.31,-1.28,2,6
17601.687,0.143,0.372,0.871,2.32,13.03,6.01,2,6
17601.687,0.185,0.361,0.891,-4.46,6.56,12.15,2,6
17601.703,0.266,0.282,0.913,-10.16,0.46,15.72,2,6
17601.718,0.33,0.221,0.899,-9.34,-1.28,15.75,2,6
17601.734,0.375,0.211,0.921,-7.81,2.75,12.33,2,6
17601.734,0.279,0.206,0.997,-5.16,5.71,7.14,2,6
17601.734,0.264,0.198,0.972,-0.67,2.11,6.16,2,6
17601.75,0.309,0.218,1.009,2.78,-0.37,6.13,2,6
17601.765,0.251,0.213,1.001,9.8,-2.62,5.1,2,6
17601.765,0.238,0.234,0.941,13.49,-6.29,5.01,2,6
17601.781,0.262,0.267,0.9,13.12,-7.63,6.59,2,6
17601.796,0.284,0.301,0.895,11.02,-7.26,7.45,2,6
17601.796,0.288,0.33,0.889,8.3,-6.74,8.67,2,6
17601.812,0.298,0.331,0.87,4.55,-6.23,10.8,2,6
17601.828,0.31,0.318,0.88,1.19,-5.01,11.6,2,6
17601.843,0.308,0.291,0.889,-1.89,-3.36,11.41,2,6
17601.843,0.317,0.262,0.908,-4.21,-1.53,10.1,2,6
17601.859,0.312,0.248,0.93,-4.03,0.61,7.69,2,6
17601.859,0.309,0.252,0.875,-3.6,1.8,5.68,2,6
17601.875,0.316,0.256,0.849,-6.59,4.79,3.05,2,6
17601.875,0.297,0.247,0.87,-9.34,10.01,-0.85,2,6
17601.89,0.256,0.208,1.026,-8.91,11.35,-3.54,2,6
17601.906,0.309,0.165,0.998,-4.43,4.33,-6.71,2,6
17601.921,0.306,0.211,0.911,-3.78,2.62,-13.67,2,6
17601.921,0.296,0.22,0.906,-1.07,6.01,-15.59,2,6
17601.937,0.293,0.226,0.928,3.78,9.37,-14.34,2,6
17601.937,0.265,0.242,0.911,8.12,9.89,-14.04,2,6
17601.953,0.276,0.257,0.909,8.85,9.83,-13.95,2,6
17601.968,0.251,0.255,0.912,10.1,9.86,-14.77,2,6
17601.968,0.264,0.259,0.925,10.47,8.51,-14.98,2,6
17601.984,0.249,0.271,0.928,10.65,8.09,-15.9,2,6
17601.984,0.238,0.29,0.937,9.83,6.84,-15.5,2,6
17602.0,0.241,0.308,0.936,8.03,5.04,-13.89,2,6
17602.015,0.232,0.314,0.933,5.43,3.42,-12.33,2,6
17602.031,0.233,0.304,0.917,3.02,1.83,-10.35,2,6
17602.031,0.249,0.301,0.907,1.16,1.43,-9.09,2,6
17602.046,0.248,0.296,0.919,0.73,2.72,-8.94,2,6
17602.046,0.243,0.288,0.924,1.62,3.78,-8.48,2,6
17602.062,0.24,0.287,0.939,2.62,4.24,-8.15,2,6
17602.078,0.233,0.289,0.936,3.72,3.97,-7.9,2,6
17602.078,0.235,0.291,0.929,3.23,3.02,-7.39,2,6
17602.093,0.236,0.298,0.931,2.26,2.14,-6.96,2,6
17602.109,0.241,0.303,0.93,1.13,0.92,-5.77,2,6
17602.109,0.246,0.306,0.943,0.73,-0.15,-4.21,2,6
17602.125,0.234,0.304,0.934,1.98,-1.13,-2.32,2,6
17602.125,0.239,0.296,0.899,1.86,-1.56,-0.43,2,6
17602.156,0.257,0.281,0.915,-1.68,1.92,-0.15,2,6
17602.156,0.254,0.265,0.938,-0.43,2.9,-1.31,2,6
17602.171,0.242,0.263,0.949,1.71,2.9,-2.47,2,6
17602.187,0.236,0.277,0.954,3.17,2.23,-2.75,2,6
17602.187,0.22,0.289,0.956,4.85,0.95,-1.92,2,6
17602.203,0.217,0.282,0.949,6.47,-0.61,0.21,2,6
17602.218,0.217,0.282,0.945,7.81,-1.8,2.29,2,6
17602.218,0.211,0.292,0.945,8.97,-2.81,4.3,2,6
17602.234,0.199,0.305,0.955,9.67,-4.27,6.23,2,6
17602.25,0.169,0.318,0.916,10.16,-7.81,8.85,2,6
17602.25,0.187,0.33,0.917,3.63,-10.44,12.85,2,6
17602.265,0.18,0.285,1.165,3.91,-17.4,12.88,2,6
17602.265,0.187,0.294,1.087,19.9,-31.1,16.24,2,6
17602.281,0.236,0.29,0.999,25.03,-40.59,18.92,2,6
17602.296,0.266,0.236,0.957,29.94,-44.1,17.06,2,6
17602.296,0.304,0.257,0.876,33.85,-44.25,16.05,2,6
17602.328,0.341,0.291,0.812,27.59,-36.26,7.75,2,6
17602.328,0.333,0.33,0.825,24.57,-30.52,5.68,2,6
17602.343,0.329,0.36,0.85,22.77,-26.31,5.4,2,6
17602.343,0.329,0.375,0.873,22.03,-23.47,5.58,2,6
17602.359,0.339,0.373,0.865,22.8,-21.52,6.38,2,6
17602.375,0.339,0.363,0.865,24.08,-19.2,7.02,2,6
17602.39,0.338,0.343,0.87,25.91,-13.73,7.51,2,6
17602.39,0.331,0.314,0.845,24.87,-10.41,7.48,2,6
17602.406,0.34,0.319,0.83,22.16,-6.35,6.47,2,6
17602.406,0.338,0.328,0.828,18.89,-3.33,5.13,2,6
17602.421,0.291,0.307,0.844,15.72,-2.41,6.65,2,6
17602.437,0.371,0.387,0.86,12.15,-3.66,8.76,2,6
17602.437,0.349,0.398,0.87,11.32,-2.11,4.36,2,6
17602.453,0.311,0.362,0.876,7.97,-2.66,2.14,2,6
17602.468,0.311,0.36,0.889,6.1,-4.46,2.93,2,6
17602.468,0.321,0.354,0.875,6.68,-5.16,4.21,2,6
17602.484,0.34,0.332,0.864,7.87,-5.16,4.3,2,6
17602.5,0.334,0.336,0.857,8.39,-4.21,2.96,2,6
17602.515,0.341,0.333,0.862,8.61,-3.02,2.26,2,6
17602.515,0.355,0.331,0.875,9.25,-2.84,0.58,2,6
17602.531,0.363,0.34,0.845,10.28,-2.11,-1.43,2,6
17602.546,0.383,0.356,0.808,9.46,0.43,-3.39,2,6
17602.546,0.378,0.347,0.786,6.59,4.94,-7.02,2,6
17602.562,0.37,0.352,0.787,3.02,10.01,-10.01,2,6
17602.578,0.365,0.368,0.799,1.4,15.2,-11.57,2,6
17602.578,0.336,0.39,0.824,-0.4,19.2,-13.18,2,6
17602.593,0.306,0.403,0.85,-2.56,20.17,-13.95,2,6
17602.609,0.265,0.412,0.876,-3.63,19.41,-12.73,2,6
17602.609,0.253,0.417,0.907,-5.8,16.45,-9.52,2,6
17602.625,0.267,0.386,0.928,-9.52,10.71,-7.69,2,6
17602.625,0.277,0.347,0.918,-12.63,4.79,-8.39,2,6
17602.64,0.299,0.313,0.906,-14.16,1.37,-10.01,2,6
17602.656,0.333,0.304,0.872,-11.44,-0.61,-15.78,2,6
17602.671,0.345,0.303,0.842,-11.99,-0.49,-20.87,2,6
17602.687,0.355,0.292,0.833,-15.38,0.09,-28.2,2,6
17602.687,0.35,0.284,0.845,-18.19,1.1,-35.8,2,6
17602.703,0.35,0.273,0.893,-18.59,2.59,-41.81,2,6
17602.718,0.285,0.317,0.978,-10.68,3.78,-45.5,2,6
17602.718,0.237,0.372,0.986,2.38,3.33,-40.38,2,6
17602.734,0.228,0.399,0.949,10.19,0.31,-33.36,2,6
17602.734,0.223,0.403,0.882,11.14,-2.66,-29.69,2,6
17602.75,0.225,0.413,0.835,6.13,-4.09,-27.13,2,6
17602.765,0.237,0.417,0.826,-0.79,-4.43,-24.54,2,6
17602.781,0.247,0.423,0.829,-5.34,-2.87,-21.0,2,6
17602.781,0.26,0.434,0.84,-7.75,-0.92,-16.85,2,6
17602.796,0.264,0.434,0.863,-10.22,1.01,-13.46,2,6
17602.796,0.262,0.407,0.897,-12.63,1.43,-10.83,2,6
17602.812,0.264,0.394,0.909,-12.09,0.98,-7.97,2,6
17602.828,0.261,0.359,0.903,-5.65,1.16,-2.66,2,6
17602.843,0.257,0.355,0.909,-5.83,-0.43,-2.47,2,6
17602.843,0.264,0.354,0.896,-6.78,-3.02,-3.3,2,6
17602.859,0.273,0.353,0.888,-6.81,-3.91,-3.63,2,6
17602.875,0.281,0.359,0.879,-5.46,-3.63,-3.63,2,6
17602.875,0.285,0.36,0.877,-5.65,-3.08,-3.97,2,6
17602.89,0.281,0.354,0.884,-5.92,-2.41,-4.46,2,6
17602.906,0.276,0.355,0.904,-4.97,-1.62,-4.03,2,6
17602.906,0.261,0.37,0.924,-2.72,-1.34,-2.81,2,6
17602.921,0.255,0.365,0.905,0.03,-1.16,-0.18,2,6
17602.937,0.264,0.357,0.891,1.01,-1.16,1.8,2,6
17602.937,0.264,0.354,0.891,-0.15,-1.68,1.86,2,6
17602.953,0.264,0.358,0.89,-1.19,-1.92,1.95,2,6
17602.968,0.277,0.356,0.884,-1.37,-2.17,2.29,2,6
17602.968,0.288,0.354,0.88,-1.56,-2.32,1.56,2,6
17602.984,0.291,0.348,0.874,-1.62,-1.77,0.46,2,6
17602.984,0.292,0.341,0.876,-1.86,-0.89,-0.61,2,6
17603.0,0.284,0.342,0.886,-1.68,-0.09,-1.77,2,6
17603.015,0.277,0.35,0.897,-0.7,0.52,-2.47,2,6
17603.015,0.265,0.353,0.908,0.89,0.61,-2.38,2,6
17603.031,0.257,0.368,0.907,2.44,0.0,-1.59,2,6
17603.046,0.261,0.371,0.883,2.62,-0.85,-0.34,2,6
17603.062,0.27,0.365,0.875,1.8,-0.7,0.95,2,6
17603.062,0.274,0.365,0.881,0.73,-0.24,1.56,2,6
17603.078,0.277,0.362,0.888,-0.55,-0.27,1.53,2,6
17603.078,0.277,0.354,0.891,-1.59,-0.7,1.19,2,6
17603.093,0.277,0.348,0.889,-1.65,-0.95,0.7,2,6
17603.109,0.276,0.341,0.888,-0.98,-0.73,0.43,2,6
17603.109,0.278,0.338,0.896,-0.61,-0.58,0.18,2,6
17603.125,0.283,0.335,0.895,0.09,-0.7,-0.67,2,6
17603.14,0.278,0.343,0.896,1.59,-0.34,-1.65,2,6
17603.14,0.27,0.347,0.897,3.11,0.21,-1.71,2,6
17603.156,0.265,0.352,0.894,3.69,0.24,-1.62,2,6
17603.156,0.27,0.363,0.888,3.48,-0.31,-1.5,2,6
17603.171,0.279,0.365,0.881,3.23,-0.4,-1.62,2,6
17603.187,0.273,0.368,0.881,3.05,0.15,-1.68,2,6
17603.187,0.263,0.374,0.88,2.72,0.43,-0.89,2,6
17603.203,0.266,0.374,0.88,1.68,0.21,-0.03,2,6
17603.203,0.275,0.366,0.877,0.52,-0.21,0.03,2,6
17603.218,0.278,0.357,0.885,-0.52,-0.24,-0.21,2,6
17603.234,0.275,0.347,0.896,-0.7,-0.06,-0.67,2,6
17603.234,0.274,0.348,0.899,0.27,0.15,-0.67,2,6
17603.25,0.271,0.346,0.892,1.43,-0.03,-0.98,2,6
17603.265,0.271,0.349,0.891,1.28,-0.15,-1.59,2,6
17603.265,0.271,0.357,0.889,1.01,-0.21,-1.65,2,6
17603.281,0.27,0.363,0.891,1.46,0.03,-1.25,2,6
17603.296,0.268,0.361,0.892,1.86,0.24,-0.89,2,6
17603.296,0.267,0.362,0.888,2.01,0.03,-0.31,2,6
17603.312,0.27,0.365,0.89,1.89,-0.09,0.21,2,6
17603.328,0.27,0.364,0.887,1.5,-0.43,0.15,2,6
17603.328,0.273,0.368,0.88,0.85,-0.92,0.12,2,6
17603.343,0.277,0.365,0.877,0.15,-1.07,-0.06,2,6
17603.359,0.277,0.362,0.883,-0.24,-0.89,-0.52,2,6
17603.359,0.272,0.361,0.886,-0.03,-0.89,-0.73,2,6
17603.375,0.271,0.361,0.889,0.82,-0.92,-0.79,2,6
17603.375,0.269,0.352,0.892,1.5,-0.79,-0.76,2,6
17603.39,0.268,0.354,0.889,1.89,-0.7,-0.73,2,6
17603.406,0.271,0.361,0.884,1.83,-0.64,-1.16,2,6
17603.406,0.261,0.371,0.885,1.77,-0.37,-1.28,2,6
17603.421,0.26,0.373,0.886,1.1,-0.58,-0.82,2,6
17603.437,0.261,0.369,0.885,-0.43,-1.16,-0.37,2,6
17603.437,0.268,0.36,0.882,-1.86,-1.56,0.06,2,6
17603.453,0.273,0.354,0.889,-2.11,-1.19,0.31,2,6
17603.468,0.271,0.359,0.896,-1.53,-1.13,0.61,2,6
17603.468,0.279,0.354,0.894,-0.92,-1.59,0.64,2,6
17603.484,0.283,0.356,0.889,-0.06,-1.77,0.31,2,6
17603.484,0.285,0.356,0.882,1.1,-1.37,-0.21,2,6
17603.5,0.279,0.356,0.886,1.8,-1.1,-0.89,2,6
17603.515,0.269,0.366,0.882,2.2,-1.71,-1.5,2,6
17603.531,0.271,0.37,0.875,1.8,-1.71,-1.37,2,6
17603.546,0.266,0.369,0.878,0.73,-1.22,-1.13,2,6
17603.546,0.262,0.365,0.883,-0.34,-1.07,-0.67,2,6
17603.562,0.262,0.363,0.891,-1.19,-1.4,-0.49,2,6
17603.578,0.267,0.36,0.889,-1.8,-1.74,-0.58,2,6
17603.593,0.27,0.357,0.888,-1.89,-1.68,-0.43,2,6
17603.593,0.271,0.352,0.892,-1.4,-1.19,-0.34,2,6
17603.593,0.27,0.354,0.899,-0.55,-0.92,-0.34,2,6
17603.609,0.272,0.352,0.891,0.4,-1.07,-0.55,2,6
17603.625,0.276,0.353,0.886,1.07,-1.1,-1.16,2,6
17603.625,0.275,0.365,0.888,1.8,-0.89,-1.56,2,6
17603.64,0.271,0.371,0.883,2.41,-0.55,-1.16,2,6
17603.656,0.27,0.381,0.881,1.59,-0.95,-0.67,2,6
17603.656,0.274,0.379,0.878,0.55,-1.31,-0.21,2,6
17603.671,0.275,0.37,0.878,-0.09,-0.85,0.55,2,6
17603.687,0.273,0.359,0.887,-1.22,-1.62,0.55,2,6
17603.703,0.278,0.358,0.884,-1.46,-2.08,0.27,2,6
17603.718,0.278,0.353,0.884,-1.16,-1.65,-0.27,2,6
17603.718,0.273,0.351,0.891,-0.67,-1.13,-0.64,2,6
17603.734,0.268,0.353,0.899,0.03,-0.76,-0.82,2,6
17603.734,0.266,0.351,0.895,0.92,-0.73,-0.67,2,6
17603.75,0.269,0.352,0.888,1.53,-0.49,-0.55,2,6
17603.765,0.27,0.36,0.892,1.83,-0.4,-0.46,2,6
17603.765,0.268,0.365,0.888,2.14,-0.55,-0.49,2,6
17603.781,0.271,0.372,0.88,2.41,-0.7,-0.31,2,6
17603.796,0.276,0.373,0.876,1.98,-0.67,-0.12,2,6
17603.812,0.275,0.368,0.879,1.4,-0.24,-0.15,2,6
17603.812,0.274,0.368,0.885,0.7,-0.24,-0.03,2,6
17603.828,0.276,0.365,0.882,0.55,-0.37,-0.09,2,6
17603.828,0.278,0.363,0.881,0.4,-0.27,-0.27,2,6
17603.843,0.275,0.367,0.887,0.15,-0.34,-0.61,2,6
17603.859,0.272,0.366,0.882,0.34,-0.52,-0.95,2,6
17603.859,0.271,0.366,0.879,0.06,-0.67,-1.31,2,6
17603.875,0.266,0.364,0.882,-0.06,-0.61,-1.19,2,6
17603.89,0.265,0.362,0.893,-0.31,-0.37,-1.01,2,6
17603.89,0.26,0.356,0.904,-0.27,-0.64,-0.76,2,6
17603.906,0.262,0.359,0.893,0.4,-1.16,-0.24,2,6
17603.906,0.269,0.355,0.888,0.21,-1.19,0.06,2,6
17603.921,0.272,0.359,0.884,-0.03,-0.95,0.03,2,6
17603.937,0.277,0.363,0.885,0.27,-0.7,0.03,2,6
17603.937,0.278,0.362,0.885,0.73,-0.52,-0.09,2,6
17603.953,0.274,0.366,0.885,1.16,-0.43,-0.18,2,6
17603.968,0.273,0.373,0.884,1.59,-0.24,0.21,2,6
17603.968,0.272,0.37,0.881,1.8,-0.27,0.55,2,6
17603.984,0.273,0.369,0.88,1.74,-0.52,0.79,2,6
17603.984,0.276,0.371,0.883,1.92,-0.46,1.07,2,6
17604.0,0.272,0.363,0.884,2.75,-0.12,1.43,2,6
17604.015,0.254,0.36,0.892,2.99,0.15,1.8,2,6
17604.015,0.232,0.369,0.89,2.81,-0.27,2.44,2,6
17604.031,0.215,0.395,0.88,0.92,-2.2,4.33,2,6
17604.046,0.201,0.431,0.88,-2.72,-4.43,7.9,2,6
17604.046,0.165,0.469,0.942,-7.45,-8.33,13.55,2,6
17604.062,0.179,0.444,0.923,-11.02,-14.68,20.48,2,6
17604.078,0.244,0.309,1.04,-17.0,-21.85,21.88,2,6
17604.078,0.259,0.301,1.009,-6.99,-31.1,19.2,2,6
17604.093,0.314,0.309,0.866,3.88,-30.85,24.32,2,6
17604.093,0.371,0.245,0.826,7.29,-26.64,21.64,2,6
17604.109,0.398,0.302,0.795,7.6,-20.63,15.69,2,6
17604.125,0.395,0.298,0.788,8.73,-12.63,10.13,2,6
17604.14,0.39,0.348,0.841,5.43,-8.94,3.94,2,6
17604.14,0.397,0.369,0.821,8.18,-5.25,1.43,2,6
17604.156,0.375,0.377,0.785,9.77,0.09,-0.55,2,6
17604.156,0.354,0.381,0.774,6.07,6.1,-1.56,2,6
17604.171,0.339,0.371,0.789,1.43,11.51,-2.32,2,6
17604.187,0.314,0.382,0.823,-2.62,15.84,-2.9,2,6
17604.187,0.289,0.396,0.875,-5.89,17.64,-2.32,2,6
17604.203,0.267,0.397,0.922,-7.9,15.84,-1.62,2,6
17604.218,0.242,0.39,0.949,-8.79,11.29,-0.49,2,6
17604.218,0.238,0.367,0.955,-8.33,5.55,1.46,2,6
17604.234,0.256,0.337,0.943,-6.41,0.98,3.51,2,6
17604.234,0.275,0.318,0.928,-3.78,-1.37,4.67,2,6
17604.25,0.286,0.306,0.911,-0.18,-1.71,4.88,2,6
17604.265,0.292,0.316,0.9,2.78,-1.19,4.46,2,6
17604.281,0.299,0.326,0.892,4.12,-1.13,2.96,2,6
17604.281,0.306,0.339,0.886,4.76,-1.83,1.22,2,6
17604.296,0.31,0.353,0.872,4.94,-2.38,-0.46,2,6
17604.296,0.307,0.367,0.863,3.66,-2.75,-1.92,2,6
17604.312,0.303,0.377,0.863,1.59,-2.84,-2.87,2,6
17604.328,0.299,0.38,0.867,0.12,-2.62,-2.93,2,6
17604.328,0.295,0.383,0.873,-0.09,-2.01,-1.62,2,6
17604.343,0.294,0.373,0.878,0.18,-1.1,0.31,2,6
17604.359,0.289,0.358,0.881,0.46,0.43,2.99,2,6
17604.359,0.293,0.339,0.895,1.62,0.64,3.33,2,6
17604.375,0.301,0.332,0.897,4.06,1.4,3.54,2,6
17604.375,0.31,0.341,0.89,5.86,2.53,2.87,2,6
17604.39,0.311,0.336,0.853,6.13,3.63,1.59,2,6
17604.406,0.317,0.345,0.85,5.37,5.62,0.37,2,6
17604.406,0.314,0.359,0.85,4.3,8.03,-0.92,2,6
17604.421,0.304,0.365,0.855,3.66,9.89,-1.89,2,6
17604.437,0.298,0.38,0.874,3.23,11.05,-2.14,2,6
17604.437,0.292,0.382,0.878,2.99,11.38,-2.32,2,6
17604.453,0.28,0.381,0.871,1.28,10.68,-2.75,2,6
17604.468,0.286,0.376,0.874,-1.46,9.43,-2.99,2,6
17604.468,0.292,0.371,0.869,-3.51,8.33,-3.66,2,6
17604.484,0.294,0.36,0.871,-5.71,7.75,-4.79,2,6
17604.484,0.281,0.353,0.889,-6.99,7.66,-5.89,2,6
17604.5,0.261,0.349,0.93,-6.47,6.01,-6.35,2,6
17604.515,0.259,0.345,0.94,-5.43,1.62,-6.93,2,6
17604.515,0.261,0.344,0.918,-5.1,-2.59,-8.3,2,6
17604.531,0.268,0.352,0.898,-4.79,-4.94,-9.03,2,6
17604.546,0.265,0.376,0.886,-3.36,-5.22,-7.81,2,6
17604.562,0.255,0.383,0.887,-4.03,-5.34,-6.35,2,6
17604.578,0.25,0.38,0.885,-5.52,-6.13,-4.79,2,6
17604.578,0.25,0.372,0.889,-7.66,-7.11,-3.75,2,6
17604.593,0.253,0.365,0.891,-9.46,-8.21,-2.38,2,6
17604.609,0.262,0.353,0.901,-10.77,-9.46,-1.07,2,6
17604.609,0.281,0.33,0.902,-9.8,-10.1,-0.37,2,6
17604.625,0.296,0.319,0.896,-6.53,-9.34,0.43,2,6
17604.64,0.305,0.321,0.895,-2.5,-7.29,0.92,2,6
17604.64,0.311,0.317,0.887,1.43,-5.28,0.43,2,6
17604.656,0.316,0.321,0.876,4.18,-3.63,-0.46,2,6
17604.656,0.314,0.334,0.871,5.46,-1.65,-1.92,2,6
17604.671,0.306,0.346,0.879,6.23,0.37,-3.02,2,6
17604.687,0.298,0.363,0.888,6.56,1.37,-3.54,2,6
17604.687,0.281,0.372,0.899,6.23,1.34,-4.21,2,6
17604.703,0.279,0.367,0.899,5.16,-0.34,-4.24,2,6
17604.718,0.343,0.34,0.874,-1.37,-2.11,-7.87,2,6
17604.734,0.344,0.297,0.904,-2.9,1.28,-13.28,2,6
17604.734,0.282,0.27,0.958,-0.55,3.66,-18.89,2,6
17604.75,0.266,0.285,1.006,2.14,-0.76,-22.68,2,6
17604.765,0.275,0.308,0.96,7.42,-6.41,-25.51,2,6
17604.781,0.306,0.323,0.899,9.83,-9.8,-28.69,2,6
17604.781,0.329,0.342,0.832,13.43,-7.93,-31.31,2,6
17604.796,0.279,0.394,0.839,19.14,-2.62,-31.37,2,6
17604.796,0.25,0.428,0.787,22.22,0.64,-26.64,2,6
17604.812,0.2,0.472,0.761,15.26,3.97,-19.5,2,6
17604.828,0.165,0.501,0.774,4.58,6.71,-10.99,2,6
17604.828,0.151,0.532,0.77,-5.22,8.21,-1.59,2,6
17604.843,0.156,0.568,0.788,-14.92,9.55,9.95,2,6
17604.859,0.205,0.537,0.815,-27.07,9.74,20.87,2,6
17604.859,0.266,0.427,0.863,-34.18,10.41,27.74,2,6
17604.875,0.287,0.325,0.904,-30.09,13.25,29.63,2,6
17604.89,0.327,0.197,0.917,-16.88,15.93,25.7,2,6
17604.906,0.309,0.195,0.946,-13.64,14.74,16.45,2,6
17604.921,0.32,0.229,0.937,-6.2,12.7,9.8,2,6
17604.921,0.313,0.295,0.939,-0.21,12.18,5.28,2,6
17604.937,0.276,0.335,0.927,4.91,11.66,1.43,2,6
17604.937,0.254,0.374,0.909,6.53,9.67,-0.27,2,6
17604.953,0.244,0.396,0.887,4.46,7.02,-0.95,2,6
17604.968,0.239,0.406,0.887,0.79,4.94,-0.58,2,6
17604.968,0.231,0.398,0.894,-2.47,3.39,0.89,2,6
17604.984,0.233,0.379,0.901,-5.92,1.19,2.35,2,6
17604.984,0.24,0.361,0.917,-8.64,-1.59,2.99,2,6
17605.0,0.252,0.348,0.928,-9.13,-4.09,3.08,2,6
17605.015,0.255,0.334,0.92,-8.0,-5.98,2.9,2,6
17605.015,0.279,0.313,0.898,-7.29,-7.11,2.84,2,6
17605.031,0.299,0.301,0.896,-5.95,-5.74,1.34,2,6
17605.046,0.285,0.294,0.91,-2.62,-2.41,-0.73,2,6
17605.062,0.264,0.296,0.925,1.59,-0.31,-2.11,2,6
17605.062,0.256,0.313,0.93,5.19,-0.4,-3.2,2,6
17605.078,0.247,0.347,0.917,7.48,-1.83,-4.39,2,6
17605.078,0.245,0.367,0.9,7.54,-3.23,-4.79,2,6
17605.093,0.237,0.388,0.896,5.92,-4.39,-4.24,2,6
17605.093,0.237,0.391,0.879,3.14,-5.92,-2.66,2,6
17605.109,0.242,0.386,0.879,-0.79,-6.68,-0.76,2,6
17605.125,0.241,0.378,0.899,-3.85,-7.17,0.98,2,6
17605.14,0.238,0.363,0.926,-4.91,-8.55,2.75,2,6
17605.14,0.237,0.356,0.945,-3.72,-10.74,4.64,2,6
17605.156,0.238,0.353,0.95,-0.85,-13.4,6.62,2,6
17605.156,0.241,0.341,0.94,1.53,-16.75,8.03,2,6
17605.171,0.242,0.336,0.957,2.5,-20.51,8.33,2,6
17605.187,0.254,0.295,0.917,3.57,-24.54,7.45,2,6
17605.203,0.304,0.316,0.892,3.51,-26.52,6.29,2,6
17605.203,0.315,0.322,0.877,5.89,-23.83,4.76,2,6
17605.218,0.325,0.325,0.881,6.68,-21.03,3.42,2,6
17605.218,0.33,0.334,0.855,6.84,-18.52,1.77,2,6
17605.234,0.332,0.337,0.838,5.95,-15.87,-0.43,2,6
17605.25,0.335,0.341,0.834,3.11,-13.4,-2.29,2,6
17605.25,0.334,0.338,0.833,0.34,-11.17,-4.46,2,6
17605.265,0.319,0.338,0.846,-1.62,-8.79,-6.44,2,6
17605.265,0.305,0.357,0.876,-2.93,-7.78,-7.26,2,6
17605.281,0.279,0.371,0.903,-3.66,-8.64,-7.81,2,6
17605.296,0.26,0.373,0.922,-4.03,-11.17,-6.96,2,6
17605.296,0.256,0.363,0.914,-3.36,-13.82,-4.58,2,6
17605.312,0.266,0.343,0.898,-1.89,-14.98,-1.95,2,6
17605.328,0.276,0.343,0.871,0.18,-13.64,1.74,2,6
17605.328,0.272,0.376,0.887,2.11,-11.08,5.89,2,6
17605.343,0.246,0.38,0.932,7.29,-12.48,15.23,2,6
17605.359,0.251,0.382,0.956,7.63,-17.85,17.52,2,6
17605.359,0.294,0.35,0.933,7.45,-20.02,16.42,2,6
17605.375,0.399,0.287,0.747,7.87,-15.32,15.05,2,6
17605.375,0.458,0.275,0.695,5.13,-5.4,11.54,2,6
17605.39,0.487,0.273,0.689,0.76,8.0,5.04,2,6
17605.406,0.466,0.271,0.711,-1.95,22.03,-2.69,2,6
17605.406,0.424,0.286,0.751,-3.33,33.63,-9.4,2,6
17605.421,0.394,0.322,0.829,-4.39,41.23,-14.68,2,6
17605.437,0.355,0.353,0.898,-3.63,44.59,-19.47,2,6
17605.437,0.301,0.317,0.921,0.89,45.87,-22.25,2,6
17605.453,0.243,0.358,0.948,-2.56,41.29,-24.63,2,6
17605.468,0.264,0.372,0.937,-3.17,35.52,-24.6,2,6
17605.468,0.23,0.35,0.915,1.1,34.36,-23.56,2,6
17605.484,0.216,0.381,0.93,-0.98,31.25,-22.49,2,6
17605.484,0.22,0.401,0.944,-2.23,26.73,-20.63,2,6
17605.5,0.21,0.386,0.932,-0.52,23.83,-17.61,2,6
17605.515,0.198,0.391,0.932,0.76,21.42,-14.01,2,6
17605.515,0.188,0.401,0.929,0.95,18.83,-10.62,2,6
17605.531,0.177,0.395,0.923,-0.73,15.14,-7.57,2,6
17605.546,0.174,0.389,0.925,-3.78,10.53,-4.49,2,6
17605.546,0.161,0.384,0.954,-5.89,6.16,-1.56,2,6
17605.562,0.179,0.36,1.01,-5.4,-0.27,2.14,2,6
17605.578,0.2,0.332,0.978,-2.87,-8.06,2.72,2,6
17605.578,0.204,0.335,0.946,-0.92,-13.46,2.23,2,6
17605.593,0.227,0.33,0.924,1.77,-16.91,3.27,2,6
17605.593,0.25,0.333,0.908,3.27,-18.62,3.45,2,6
17605.609,0.258,0.345,0.909,4.85,-18.74,3.57,2,6
17605.625,0.257,0.359,0.916,7.72,-18.19,4.43,2,6
17605.64,0.257,0.361,0.915,10.22,-18.28,5.04,2,6
17605.64,0.25,0.366,0.91,11.11,-19.56,5.19,2,6
17605.656,0.247,0.367,0.899,10.65,-21.61,5.13,2,6
17605.656,0.258,0.365,0.882,9.03,-23.87,4.82,2,6
17605.671,0.273,0.367,0.862,6.44,-24.99,4.21,2,6
17605.687,0.288,0.377,0.864,3.23,-24.96,3.42,2,6
17605.703,0.295,0.382,0.871,1.04,-24.11,2.53,2,6
17605.703,0.288,0.373,0.883,0.46,-23.01,2.23,2,6
17605.703,0.282,0.349,0.9,2.14,-22.55,3.05,2,6
17605.718,0.277,0.35,0.895,5.62,-21.94,4.73,2,6
17605.734,0.281,0.356,0.877,7.93,-20.78,6.23,2,6
17605.75,0.292,0.347,0.88,8.58,-19.9,6.53,2,6
17605.75,0.293,0.343,0.869,9.55,-19.04,6.47,2,6
17605.765,0.301,0.346,0.845,9.64,-17.82,6.74,2,6
17605.765,0.311,0.35,0.837,8.97,-15.78,6.65,2,6
17605.781,0.311,0.361,0.837,8.45,-13.09,6.78,2,6
17605.796,0.303,0.375,0.862,8.33,-10.93,7.9,2,6
17605.812,0.288,0.389,0.894,10.1,-10.47,10.35,2,6
17605.812,0.299,0.398,0.903,10.68,-12.73,13.49,2,6
17605.828,0.331,0.364,0.873,7.75,-15.99,12.94,2,6
17605.828,0.365,0.318,0.821,4.7,-15.78,9.64,2,6
17605.843,0.4,0.293,0.782,4.46,-10.56,5.71,2,6
17605.859,0.428,0.295,0.733,7.26,-0.98,1.89,2,6
17605.859,0.419,0.328,0.748,7.93,10.44,-2.17,2,6
17605.875,0.377,0.367,0.807,7.14,18.71,-6.26,2,6
17605.875,0.334,0.388,0.848,5.98,22.0,-8.91,2,6
17605.89,0.307,0.403,0.884,4.49,21.76,-9.92,2,6
17605.906,0.3,0.411,0.895,4.49,20.2,-9.64,2,6
17605.921,0.286,0.405,0.894,5.22,18.65,-8.7,2,6
17605.921,0.272,0.397,0.881,5.31,17.4,-7.2,2,6
17605.937,0.274,0.395,0.873,5.01,16.33,-5.16,2,6
17605.937,0.278,0.398,0.873,4.49,15.63,-3.75,2,6
17605.953,0.284,0.398,0.864,3.08,14.92,-3.17,2,6
17605.968,0.292,0.391,0.853,1.04,14.56,-3.39,2,6
17605.968,0.296,0.384,0.851,-0.79,14.86,-4.24,2,6
17605.984,0.296,0.383,0.849,-2.62,15.47,-5.4,2,6
17605.984,0.3,0.378,0.857,-4.85,16.14,-6.71,2,6
17606.0,0.309,0.374,0.851,-6.59,16.91,-8.61,2,6
17606.015,0.287,0.371,0.861,-6.38,18.89,-10.62,2,6
17606.031,0.241,0.372,0.944,-2.99,20.54,-9.61,2,6
17606.031,0.224,0.361,1.01,2.26,16.72,-6.96,2,6
17606.046,0.221,0.347,0.993,7.9,10.53,-6.32,2,6
17606.046,0.225,0.339,0.935,14.07,6.16,-5.65,2,6
17606.062,0.243,0.345,0.885,17.43,3.78,-5.28,2,6
17606.078,0.267,0.376,0.859,17.55,4.0,-5.22,2,6
17606.078,0.284,0.402,0.856,17.3,6.71,-5.01,2,6
17606.093,0.276,0.412,0.834,17.15,9.89,-4.85,2,6
17606.093,0.305,0.399,0.818,14.95,12.91,-5.16,2,6
17606.109,0.317,0.401,0.827,14.62,18.74,-6.26,2,6
17606.125,0.271,0.41,0.846,18.22,26.37,-6.41,2,6
17606.14,0.225,0.41,0.879,20.51,29.24,-5.46,2,6
17606.14,0.19,0.442,0.909,19.62,26.49,-4.61,2,6
17606.156,0.186,0.456,0.91,17.37,20.29,-3.48,2,6
17606.171,0.203,0.439,0.89,15.02,14.34,-2.69,2,6
17606.171,0.219,0.438,0.877,13.25,11.51,-2.38,2,6
17606.187,0.221,0.447,0.882,12.09,10.74,-1.89,2,6
17606.187,0.218,0.439,0.889,10.86,10.13,-1.86,2,6
17606.203,0.215,0.435,0.893,10.5,8.94,-1.5,2,6
17606.218,0.211,0.437,0.897,10.9,7.63,-0.98,2,6
17606.218,0.217,0.425,0.903,11.08,5.86,-0.61,2,6
17606.234,0.219,0.422,0.919,12.18,3.85,-0.67,2,6
17606.234,0.203,0.428,0.939,14.92,1.13,-0.73,2,6
17606.25,0.186,0.419,0.947,17.98,-4.0,-0.52,2,6
17606.265,0.175,0.414,0.944,19.5,-10.83,-0.34,2,6
17606.265,0.179,0.415,1.012,20.54,-19.26,-0.61,2,6
17606.281,0.201,0.365,1.072,20.48,-33.36,-4.12,2,6
17606.296,0.253,0.343,1.041,17.61,-49.96,-12.48,2,6
17606.296,0.287,0.339,1.001,10.07,-64.03,-25.03,2,6
17606.312,0.273,0.291,0.968,6.32,-74.25,-40.22,2,6
17606.328,0.272,0.32,0.95,-12.39,-98.85,-72.57,2,6
17606.343,0.277,0.309,0.942,-18.34,-109.2,-86.95,2,6
17606.343,0.276,0.299,0.935,-13.52,-114.32,-94.85,2,6
17606.359,0.338,0.34,0.898,-5.95,-112.31,-94.18,2,6
17606.359,0.421,0.464,0.788,-3.91,-102.79,-92.5,2,6
17606.375,0.424,0.484,0.744,-10.62,-92.1,-88.47,2,6
17606.375,0.44,0.445,0.721,-23.77,-81.61,-84.57,2,6
17606.39,0.418,0.465,0.712,-40.99,-73.85,-87.89,2,6
17606.406,0.407,0.473,0.748,-63.3,-69.09,-90.18,2,6
17606.406,0.392,0.384,0.772,-81.85,-65.19,-93.81,2,6
17606.421,0.368,0.296,0.8,-85.91,-62.23,-99.4,2,6
17606.437,0.346,0.274,0.851,-74.4,-58.78,-104.13,2,6
17606.453,0.314,0.293,0.884,-51.21,-56.86,-107.21,2,6
17606.453,0.281,0.329,0.899,-26.98,-57.22,-107.36,2,6
17606.468,0.276,0.372,0.87,-6.47,-59.88,-105.5,2,6
17606.468,0.29,0.429,0.82,5.62,-62.17,-102.69,2,6
17606.484,0.301,0.487,0.767,6.32,-63.02,-101.2,2,6
17606.484,0.309,0.506,0.722,-1.92,-62.35,-101.54,2,6
17606.5,0.328,0.498,0.698,-14.5,-59.27,-102.79,2,6
17606.515,0.344,0.485,0.699,-26.64,-52.98,-105.87,2,6
17606.531,0.324,0.464,0.733,-34.82,-44.86,-111.7,2,6
17606.531,0.274,0.439,0.796,-34.64,-38.88,-118.14,2,6
17606.546,0.213,0.429,0.843,-24.41,-36.53,-121.43,2,6
17606.562,0.17,0.459,0.854,-8.55,-36.9,-119.36,2,6
17606.562,0.168,0.519,0.852,6.23,-38.82,-113.77,2,6
17606.578,0.181,0.577,0.819,16.85,-40.41,-107.73,2,6
17606.578,0.2,0.622,0.764,19.14,-40.13,-101.78,2,6
17606.593,0.219,0.637,0.712,11.2,-36.9,-95.74,2,6
17606.609,0.232,0.641,0.695,-5.55,-30.49,-90.18,2,6
17606.609,0.224,0.62,0.732,-22.25,-22.22,-86.49,2,6
17606.625,0.187,0.571,0.765,-31.13,-14.53,-84.32,2,6
17606.64,0.138,0.537,0.807,-34.64,-9.03,-82.95,2,6
17606.64,0.098,0.501,0.833,-33.57,-7.69,-83.19,2,6
17606.656,0.073,0.472,0.842,-29.63,-9.52,-83.99,2,6
17606.656,0.064,0.476,0.865,-23.07,-12.82,-83.22,2,6
17606.671,0.07,0.501,0.871,-10.74,-16.14,-80.29,2,6
17606.687,0.091,0.53,0.824,2.69,-18.1,-76.33,2,6
17606.687,0.119,0.578,0.771,8.79,-17.94,-71.99,2,6
17606.703,0.14,0.614,0.74,6.23,-15.35,-66.77,2,6
17606.718,0.16,0.613,0.723,-0.73,-10.38,-59.57,2,6
17606.718,0.163,0.595,0.733,-10.1,-4.12,-50.84,2,6
17606.734,0.15,0.57,0.771,-20.72,0.55,-43.82,2,6
17606.734,0.139,0.523,0.801,-30.24,1.62,-39.8,2,6
17606.75,0.137,0.485,0.824,-37.6,0.03,-38.54,2,6
17606.765,0.149,0.447,0.829,-40.35,-2.26,-39.19,2,6
17606.781,0.161,0.426,0.827,-37.75,-2.41,-40.56,2,6
17606.781,0.161,0.421,0.838,-30.76,-0.43,-41.93,2,6
17606.796,0.162,0.425,0.846,-20.91,1.83,-43.46,2,6
17606.796,0.167,0.433,0.83,-9.61,4.36,-44.8,2,6
17606.812,0.18,0.456,0.795,-1.31,7.75,-45.99,2,6
17606.828,0.195,0.467,0.752,1.95,13.31,-45.99,2,6
17606.828,0.194,0.481,0.73,0.64,19.93,-44.77,2,6
17606.843,0.202,0.488,0.709,0.09,28.9,-41.54,2,6
17606.859,0.203,0.463,0.698,0.37,40.07,-38.03,2,6
17606.859,0.189,0.468,0.714,-1.98,49.87,-35.04,2,6
17606.875,0.126,0.481,0.802,-4.52,56.89,-32.87,2,6
17606.875,-0.003,0.625,0.978,-20.08,48.71,-26.49,2,6
17606.89,0.088,0.649,1.032,-33.69,31.71,-11.87,2,6
17606.906,0.059,0.441,1.046,-17.4,24.14,2.32,2,6
17606.921,0.015,0.606,1.08,-16.3,10.74,15.26,2,6
17606.921,0.13,0.594,1.037,-11.2,-1.71,26.09,2,6
17606.937,0.122,0.491,0.951,-3.72,-7.54,26.55,2,6
17606.937,0.158,0.458,0.897,-5.4,-10.28,24.05,2,6
17606.953,0.19,0.444,0.859,-2.41,-9.64,18.19,2,6
17606.968,0.165,0.447,0.86,5.4,-4.79,12.18,2,6
17606.968,0.135,0.476,0.898,13.86,-2.04,8.42,2,6
17606.984,0.083,0.508,0.934,24.87,-3.6,7.6,2,6
17607.0,0.056,0.518,0.934,37.05,-9.89,11.08,2,6
17607.0,0.055,0.521,0.9,47.18,-18.07,16.85,2,6
17607.015,0.074,0.539,0.856,51.97,-24.6,22.92,2,6
17607.031,0.094,0.574,0.816,47.49,-28.87,27.65,2,6
17607.031,0.104,0.637,0.798,32.11,-32.29,29.82,2,6
17607.046,0.24,0.631,0.712,16.54,-33.11,33.27,2,6
17607.062,0.209,0.522,0.749,0.95,-24.41,32.81,2,6
17607.062,0.168,0.537,0.795,-11.44,-21.36,31.19,2,6
17607.078,0.185,0.526,0.8,-8.39,-19.96,34.97,2,6
17607.078,0.217,0.498,0.793,-2.87,-17.43,35.89,2,6
17607.093,0.221,0.491,0.807,-0.43,-14.8,33.05,2,6
17607.109,0.233,0.498,0.796,2.9,-12.42,29.69,2,6
17607.109,0.256,0.5,0.782,5.68,-9.03,26.06,2,6
17607.125,0.258,0.504,0.774,7.39,-3.94,22.22,2,6
17607.125,0.244,0.509,0.769,8.45,1.77,19.44,2,6
17607.14,0.232,0.507,0.769,6.96,6.47,17.88,2,6
17607.156,0.223,0.499,0.768,3.08,9.52,15.99,2,6
17607.156,0.224,0.482,0.767,-2.38,11.17,13.28,2,6
17607.171,0.229,0.463,0.763,-7.84,12.7,8.73,2,6
17607.187,0.237,0.43,0.758,-10.5,15.69,2.59,2,6
17607.187,0.241,0.411,0.762,-10.44,20.48,-4.97,2,6
17607.203,0.246,0.396,0.75,-7.29,26.98,-13.18,2,6
17607.218,0.232,0.388,0.751,-2.99,34.42,-21.79,2,6
17607.218,0.158,0.388,0.819,-0.21,40.56,-28.53,2,6
17607.234,0.087,0.577,0.966,-14.74,33.23,-30.73,2,6
17607.25,0.172,0.576,1.006,-17.82,24.45,-26.76,2,6
17607.25,0.013,0.56,1.068,-13.82,13.58,-22.83,2,6
17607.265,0.087,0.709,1.115,-12.94,0.24,-9.52,2,6
17607.265,0.144,0.61,0.99,8.82,-7.42,3.23,2,6
17607.281,0.163,0.575,0.887,14.01,-8.42,8.67,2,6
17607.296,0.152,0.548,0.853,12.42,-6.59,8.97,2,6
17607.312,0.086,0.512,0.832,18.25,-7.87,10.62,2,6
17607.312,0.054,0.501,0.843,19.87,-15.14,12.18,2,6
17607.328,0.043,0.503,0.852,19.07,-22.95,13.55,2,6
17607.328,0.052,0.511,0.86,13.25,-32.23,15.87,2,6
17607.343,0.241,0.561,0.754,14.19,-34.64,20.39,2,6
17607.359,0.19,0.491,0.723,19.56,-26.09,23.16,2,6
17607.359,0.212,0.64,0.75,4.7,-19.41,25.67,2,6
17607.375,0.248,0.551,0.743,-1.74,-14.16,25.45,2,6
17607.375,0.223,0.488,0.762,-7.08,-7.57,22.49,2,6
17607.39,0.23,0.496,0.789,-9.34,-2.96,20.75,2,6
17607.406,0.23,0.478,0.787,-4.46,1.07,17.82,2,6
17607.406,0.224,0.459,0.784,0.67,4.85,14.98,2,6
17607.421,0.221,0.461,0.786,4.49,7.69,11.41,2,6
17607.437,0.204,0.466,0.795,7.35,9.37,7.26,2,6
17607.437,0.193,0.468,0.798,8.27,9.22,4.0,2,6
17607.453,0.191,0.476,0.804,7.08,7.81,1.86,2,6
17607.468,0.197,0.484,0.813,4.27,5.68,-0.12,2,6
17607.468,0.208,0.489,0.815,0.89,3.33,-2.14,2,6
17607.484,0.217,0.51,0.829,-2.44,1.89,-3.6,2,6
17607.5,0.218,0.512,0.834,-3.48,1.28,-3.6,2,6
17607.5,0.224,0.51,0.836,-3.14,1.28,-2.04,2,6
17607.515,0.222,0.534,0.848,-3.14,1.95,0.21,2,6
17607.531,0.219,0.541,0.855,-3.51,1.83,1.95,2,6
17607.531,0.216,0.534,0.852,-5.04,1.01,3.14,2,6
17607.546,0.207,0.519,0.85,-6.23,0.24,3.27,2,6
17607.546,0.198,0.5,0.849,-5.49,-0.46,2.35,2,6
17607.562,0.189,0.489,0.841,-3.48,-1.62,1.31,2,6
17607.578,0.186,0.484,0.83,-1.68,-3.05,0.03,2,6
17607.578,0.195,0.484,0.824,-0.82,-3.88,-1.4,2,6
17607.593,0.201,0.486,0.818,-0.55,-3.6,-2.9,2,6
17607.609,0.202,0.491,0.817,-0.34,-2.81,-3.97,2,6
17607.609,0.198,0.499,0.823,0.12,-1.71,-4.43,2,6
17607.625,0.193,0.511,0.83,0.55,-0.67,-4.36,2,6
17607.625,0.191,0.52,0.84,0.64,-0.31,-4.06,2,6
17607.64,0.181,0.532,0.848,0.85,-0.55,-3.72,2,6
17607.656,0.171,0.536,0.846,1.01,-1.46,-3.08,2,6
17607.656,0.17,0.538,0.841,0.03,-2.87,-1.86,2,6
17607.671,0.174,0.54,0.838,-0.95,-3.78,-0.52,2,6
17607.687,0.177,0.538,0.827,-0.89,-4.24,1.07,2,6
17607.687,0.182,0.53,0.814,-1.28,-3.94,3.05,2,6
17607.703,0.188,0.522,0.81,-2.23,-3.05,4.58,2,6
17607.718,0.196,0.508,0.81,-3.2,-2.26,5.31,2,6
17607.718,0.205,0.499,0.812,-4.09,-1.56,4.76,2,6
17607.734,0.209,0.492,0.811,-3.78,-0.82,3.66,2,6
17607.734,0.214,0.484,0.812,-2.87,0.18,2.14,2,6
17607.75,0.221,0.484,0.817,-1.92,1.04,0.67,2,6
17607.765,0.215,0.49,0.827,-0.64,1.92,-0.98,2,6
17607.765,0.209,0.495,0.832,0.52,2.2,-2.17,2,6
17607.781,0.204,0.503,0.835,0.98,1.83,-2.59,2,6
17607.796,0.196,0.511,0.838,1.4,1.16,-2.69,2,6
17607.796,0.189,0.522,0.836,1.65,0.52,-2.41,2,6
17607.812,0.182,0.53,0.833,1.01,-0.09,-1.43,2,6
17607.828,0.18,0.528,0.828,-0.24,-0.98,0.06,2,6
17607.843,0.186,0.524,0.821,-1.86,-1.65,1.34,2,6
17607.843,0.195,0.516,0.812,-3.33,-1.46,1.8,2,6
17607.859,0.203,0.504,0.805,-4.03,-0.31,1.92,2,6
17607.859,0.208,0.485,0.804,-3.75,1.86,1.31,2,6
17607.875,0.215,0.476,0.808,-2.87,4.3,0.12,2,6
17607.875,0.223,0.468,0.806,-0.85,6.93,-1.13,2,6
17607.89,0.23,0.461,0.812,1.19,9.98,-3.63,2,6
17607.906,0.256,0.444,0.792,4.49,14.74,-6.56,2,6
17607.906,0.289,0.4,0.744,8.12,22.86,-10.47,2,6
17607.921,0.302,0.395,0.725,9.0,35.34,-16.69,2,6
17607.937,0.218,0.431,0.809,5.92,48.04,-25.09,2,6
17607.937,0.147,0.603,0.959,-17.3,46.94,-32.38,2,6
17607.953,0.074,0.53,1.045,-17.4,39.4,-34.64,2,6
17607.968,-0.053,0.642,1.144,-11.47,19.75,-30.73,2,6
17607.968,0.042,0.701,1.096,0.46,-2.08,-13.92,2,6
17607.984,0.092,0.576,0.939,20.75,-14.71,-1.53,2,6
17608.0,0.091,0.554,0.84,26.25,-17.79,5.37,2,6
17608.0,0.099,0.534,0.777,27.31,-18.52,9.19,2,6
17608.015,0.08,0.528,0.747,22.86,-19.29,10.38,2,6
17608.015,0.064,0.571,0.757,9.34,-21.7,13.52,2,6
17608.031,0.086,0.567,0.761,1.25,-22.52,14.86,2,6
17608.046,0.113,0.596,0.766,-2.62,-22.98,17.67,2,6
17608.046,0.172,0.5,0.725,2.78,-17.79,18.52,2,6
17608.062,0.098,0.527,0.792,4.97,-11.84,15.96,2,6
17608.078,0.129,0.57,0.851,2.78,-11.96,16.82,2,6
17608.078,0.156,0.53,0.835,5.68,-13.55,16.72,2,6
17608.093,0.173,0.519,0.819,7.54,-12.36,15.59,2,6
17608.109,0.191,0.523,0.815,9.86,-9.61,13.7,2,6
17608.109,0.192,0.52,0.814,12.3,-6.38,11.32,2,6
17608.125,0.187,0.539,0.812,12.85,-3.05,10.01,2,6
17608.125,0.172,0.556,0.805,11.35,-0.4,9.83,2,6
17608.14,0.174,0.546,0.805,8.27,1.28,10.8,2,6
17608.156,0.179,0.55,0.802,4.85,2.5,12.24,2,6
17608.156,0.189,0.537,0.799,1.77,3.39,12.63,2,6
17608.171,0.198,0.524,0.791,-1.19,4.88,11.47,2,6
17608.187,0.192,0.512,0.793,-3.11,6.56,9.49,2,6
17608.187,0.19,0.493,0.801,-3.05,7.72,7.63,2,6
17608.203,0.193,0.494,0.803,-1.8,8.24,5.34,2,6
17608.218,0.195,0.491,0.805,-1.07,8.64,2.59,2,6
17608.218,0.196,0.493,0.811,-0.12,8.85,-0.27,2,6
17608.234,0.196,0.5,0.811,1.1,8.94,-2.66,2,6
17608.234,0.196,0.502,0.81,2.01,9.46,-3.88,2,6
17608.25,0.195,0.508,0.809,1.98,9.34,-4.52,2,6
17608.265,0.2,0.506,0.81,0.73,9.25,-4.76,2,6
17608.265,0.2,0.508,0.822,-0.15,9.86,-4.97,2,6
17608.281,0.193,0.522,0.826,0.21,10.38,-4.3,2,6
17608.296,0.189,0.521,0.825,1.28,9.13,-0.46,2,6
17608.296,0.19,0.524,0.835,1.25,7.97,1.1,2,6
17608.312,0.189,0.539,0.847,1.34,6.26,2.08,2,6
17608.328,0.187,0.542,0.861,0.55,4.7,2.75,2,6
17608.328,0.188,0.54,0.865,-0.18,2.96,2.96,2,6
17608.343,0.186,0.541,0.874,0.49,1.28,2.9,2,6
17608.359,0.178,0.539,0.873,2.53,-0.18,3.17,2,6
17608.359,0.177,0.541,0.87,4.88,-1.22,3.6,2,6
17608.375,0.173,0.547,0.872,7.35,-2.38,4.15,2,6
17608.375,0.163,0.558,0.874,9.31,-3.72,5.07,2,6
17608.39,0.162,0.557,0.862,10.53,-5.77,6.2,2,6
17608.406,0.165,0.559,0.852,11.08,-7.2,6.96,2,6
17608.406,0.171,0.558,0.838,11.08,-8.36,7.6,2,6
17608.421,0.184,0.549,0.813,10.65,-8.79,8.0,2,6
17608.437,0.19,0.544,0.799,9.7,-7.6,7.81,2,6
17608.437,0.19,0.542,0.794,9.0,-5.68,7.23,2,6
17608.453,0.189,0.536,0.788,8.79,-3.69,6.87,2,6
17608.468,0.186,0.529,0.781,9.58,-1.8,6.87,2,6
17608.468,0.188,0.528,0.777,10.8,0.64,6.93,2,6
17608.484,0.172,0.537,0.786,11.99,3.11,6.5,2,6
17608.5,0.156,0.545,0.8,11.9,3.27,5.71,2,6
17608.5,0.153,0.551,0.805,10.53,1.37,5.16,2,6
17608.515,0.151,0.55,0.802,8.79,-1.22,4.43,2,6
17608.515,0.164,0.55,0.798,6.68,-3.97,3.57,2,6
17608.531,0.181,0.566,0.786,3.6,-5.52,2.87,2,6
17608.546,0.193,0.571,0.774,0.03,-5.8,2.29,2,6
17608.546,0.2,0.565,0.775,-2.81,-4.15,2.11,2,6
17608.562,0.194,0.557,0.78,-3.6,-1.65,2.5,2,6
17608.578,0.188,0.542,0.783,-2.59,0.43,3.36,2,6
17608.578,0.187,0.533,0.792,-0.49,1.98,3.81,2,6
17608.593,0.185,0.531,0.799,2.81,3.2,3.45,2,6
17608.609,0.178,0.535,0.806,6.29,4.0,2.78,2,6
17608.609,0.176,0.54,0.802,9.13,4.36,2.11,2,6
17608.625,0.177,0.546,0.791,9.74,4.73,1.43,2,6
17608.64,0.183,0.55,0.784,8.64,5.71,0.37,2,6
17608.64,0.186,0.553,0.786,6.99,7.39,-1.13,2,6
17608.656,0.188,0.562,0.779,6.16,9.67,-2.14,2,6
17608.656,0.184,0.568,0.784,6.29,12.85,-2.23,2,6
17608.671,0.175,0.563,0.794,8.06,15.99,-1.74,2,6
17608.687,0.176,0.565,0.789,10.74,18.92,-0.31,2,6
17608.703,0.166,0.575,0.786,15.11,22.77,1.59,2,6
17608.703,0.137,0.583,0.789,20.14,26.49,2.78,2,6
17608.718,0.118,0.604,0.807,21.06,27.07,4.03,2,6
17608.718,0.12,0.622,0.819,17.79,24.54,4.09,2,6
17608.734,0.121,0.621,0.819,13.52,21.18,2.59,2,6
17608.75,0.122,0.612,0.815,9.34,18.59,1.04,2,6
17608.75,0.127,0.608,0.821,6.16,16.94,-0.27,2,6
17608.765,0.131,0.605,0.836,5.52,16.63,-1.37,2,6
17608.765,0.129,0.601,0.834,7.87,17.43,-1.43,2,6
17608.781,0.135,0.599,0.818,11.75,19.2,-0.24,2,6
17608.796,0.141,0.601,0.809,15.75,22.31,0.64,2,6
17608.796,0.137,0.605,0.801,19.93,27.19,1.25,2,6
17608.812,0.122,0.608,0.793,24.29,33.27,1.65,2,6
17608.828,0.098,0.62,0.798,27.68,38.91,2.11,2,6
17608.828,0.075,0.64,0.804,30.24,43.12,2.84,2,6
17608.843,0.055,0.658,0.812,31.53,45.23,3.72,2,6
17608.859,0.035,0.67,0.825,31.4,45.14,4.76,2,6
17608.859,0.024,0.673,0.825,31.07,43.49,6.23,2,6
17608.875,0.02,0.671,0.835,29.54,41.84,7.32,2,6
17608.89,0.018,0.665,0.838,29.82,41.05,7.69,2,6
17608.89,0.032,0.647,0.826,34.03,42.51,7.54,2,6
17608.906,0.062,0.636,0.814,41.87,47.79,6.07,2,6
17608.906,0.099,0.638,0.782,54.99,57.99,3.11,2,6
17608.921,0.15,0.636,0.705,71.41,76.82,-0.89,2,6
17608.937,0.187,0.634,0.648,88.14,104.71,-7.9,2,6
17608.937,0.174,0.625,0.59,110.87,140.45,-15.84,2,6
17608.953,0.074,0.638,0.509,134.74,176.98,-21.24,2,6
17608.968,-0.038,0.667,0.44,148.01,203.68,-27.19,2,6
17608.968,-0.096,0.702,0.403,150.21,231.88,-33.45,2,6
17608.984,-0.181,0.738,0.358,144.66,259.35,-39.46,2,6
17609.0,-0.286,0.785,0.301,131.69,280.43,-42.66,2,6
17609.0,-0.373,0.859,0.254,109.59,300.06,-38.45,2,6
17609.015,-0.443,0.882,0.215,80.84,319.59,-28.87,2,6
17609.015,-0.489,0.84,0.202,49.84,339.03,-18.59,2,6
17609.031,-0.521,0.746,0.226,21.82,356.4,-14.86,2,6
17609.046,-0.542,0.617,0.246,0.58,367.35,-24.08,2,6
17609.046,-0.555,0.49,0.249,-11.26,371.84,-43.82,2,6
17609.062,-0.581,0.398,0.215,-13.21,374.19,-67.11,2,6
17609.078,-0.627,0.378,0.179,-11.44,377.91,-86.4,2,6
17609.078,-0.663,0.353,0.14,-5.89,382.0,-103.4,2,6
17609.093,-0.709,0.332,0.148,1.59,382.21,-120.3,2,6
17609.109,-0.745,0.308,0.159,10.38,377.85,-136.39,2,6
17609.109,-0.764,0.295,0.163,19.04,372.14,-149.72,2,6
17609.125,-0.802,0.279,0.146,29.08,366.47,-162.36,2,6
17609.14,-0.846,0.27,0.12,37.48,358.44,-174.6,2,6
17609.14,-0.858,0.268,0.099,43.86,350.26,-185.43,2,6
17609.156,-0.852,0.271,0.073,49.59,343.55,-195.5,2,6
17609.171,-0.845,0.243,0.063,53.74,335.8,-202.4,2,6
17609.171,-0.836,0.197,0.045,58.87,326.4,-207.13,2,6
17609.187,-0.842,0.187,-0.011,65.37,316.84,-208.2,2,6
17609.203,-0.852,0.198,-0.039,70.86,306.89,-204.14,2,6
17609.203,-0.865,0.191,-0.044,77.03,294.29,-199.56,2,6
17609.218,-0.891,0.187,-0.066,83.01,278.08,-196.78,2,6
17609.218,-0.894,0.189,-0.066,85.6,259.47,-193.61,2,6
17609.234,-0.887,0.191,-0.065,85.18,238.32,-190.34,2,6
17609.25,-0.906,0.176,-0.077,83.65,215.25,-186.13,2,6
17609.25,-0.901,0.176,-0.09,79.59,190.95,-180.21,2,6
17609.265,-0.843,0.182,-0.126,74.43,167.76,-173.83,2,6
17609.265,-0.802,0.162,-0.2,70.93,136.2,-158.48,2,6
17609.281,-0.782,0.138,-0.266,73.12,125.46,-146.31,2,6
17609.296,-0.739,0.103,-0.323,78.89,118.05,-133.7,2,6
17609.296,-0.694,0.075,-0.389,88.35,116.55,-121.25,2,6
17609.312,-0.75,0.077,-0.569,99.34,119.85,-112.61,2,6
17609.328,-0.752,0.106,-0.632,102.05,122.35,-106.88,2,6
17609.328,-0.734,0.113,-0.696,100.77,127.38,-101.96,2,6
17609.343,-0.777,0.102,-0.755,99.15,135.47,-99.58,2,6
17609.359,-0.801,0.107,-0.783,97.08,143.56,-99.92,2,6
17609.359,-0.78,0.121,-0.786,94.09,149.69,-100.16,2,6
17609.375,-0.793,0.131,-0.775,91.22,155.1,-98.91,2,6
17609.375,-0.803,0.14,-0.748,89.08,157.32,-94.94,2,6
17609.39,-0.782,0.142,-0.72,88.35,154.64,-87.98,2,6
17609.406,-0.792,0.132,-0.723,89.54,147.95,-78.52,2,6
17609.421,-0.831,0.125,-0.762,90.21,138.49,-66.77,2,6
17609.421,-0.88,0.12,-0.813,88.35,128.27,-55.7,2,6
17609.437,-0.882,0.098,-0.873,83.53,117.59,-48.07,2,6
17609.453,-0.862,0.077,-0.953,75.81,110.81,-42.7,2,6
17609.453,-0.857,0.053,-1.026,69.12,112.22,-37.97,2,6
17609.468,-0.84,0.037,-1.076,65.92,120.3,-33.14,2,6
17609.468,-0.816,0.028,-1.111,66.04,133.92,-28.11,2,6
17609.484,-0.822,0.007,-1.1,69.06,149.08,-22.95,2,6
17609.5,-0.829,0.013,-1.04,73.12,158.15,-16.02,2,6
17609.5,-0.829,0.034,-0.988,76.33,159.34,-7.63,2,6
17609.515,-0.818,0.045,-0.953,76.11,153.78,0.7,2,6
17609.515,-0.8,0.037,-0.935,72.82,144.23,8.0,2,6
17609.531,-0.778,0.026,-0.934,68.54,133.64,14.16,2,6
17609.546,-0.751,0.015,-0.942,63.91,123.26,18.86,2,6
17609.562,-0.73,-0.01,-0.954,58.05,113.56,20.75,2,6
17609.562,-0.712,-0.049,-0.984,50.63,104.53,18.59,2,6
17609.578,-0.691,-0.077,-1.029,43.7,98.15,13.49,2,6
17609.578,-0.669,-0.105,-1.06,37.78,95.13,7.14,2,6
17609.593,-0.633,-0.13,-1.063,32.32,96.16,-0.58,2,6
17609.609,-0.591,-0.137,-1.042,29.27,99.43,-7.9,2,6
17609.609,-0.553,-0.134,-1.004,27.28,102.36,-12.15,2,6
17609.625,-0.521,-0.147,-0.953,27.16,102.66,-11.66,2,6
17609.64,-0.492,-0.183,-0.915,30.4,100.65,-9.37,2,6
17609.64,-0.486,-0.201,-0.896,32.32,94.82,-8.12,2,6
17609.656,-0.483,-0.232,-0.904,30.61,86.34,-10.1,2,6
17609.656,-0.469,-0.268,-0.918,25.57,77.46,-15.96,2,6
17609.671,-0.454,-0.291,-0.929,18.1,68.91,-25.36,2,6
17609.687,-0.434,-0.309,-0.93,8.48,61.56,-36.44,2,6
17609.687,-0.408,-0.323,-0.916,0.4,56.22,-46.21,2,6
17609.703,-0.382,-0.33,-0.911,-2.41,52.89,-52.28,2,6
17609.718,-0.353,-0.311,-0.909,-1.68,51.7,-53.25,2,6
17609.718,-0.329,-0.296,-0.914,2.44,52.34,-48.4,2,6
17609.734,-0.312,-0.302,-0.917,8.94,53.47,-40.04,2,6
17609.75,-0.324,-0.298,-0.944,16.51,53.65,-30.34,2,6
17609.75,-0.363,-0.271,-0.972,21.42,51.33,-23.16,2,6
17609.765,-0.395,-0.263,-0.98,20.75,46.82,-20.45,2,6
17609.765,-0.427,-0.272,-0.979,15.47,41.35,-23.38,2,6
17609.781,-0.429,-0.279,-0.961,6.71,34.94,-30.7,2,6
17609.796,-0.405,-0.279,-0.947,-4.03,29.54,-38.88,2,6
17609.812,-0.389,-0.292,-0.926,-12.36,26.61,-44.22,2,6
17609.812,-0.388,-0.287,-0.901,-15.17,24.69,-45.35,2,6
17609.828,-0.385,-0.258,-0.871,-15.63,21.61,-42.82,2,6
17609.828,-0.397,-0.236,-0.847,-15.5,16.82,-37.17,2,6
17609.843,-0.396,-0.244,-0.818,-13.76,10.04,-27.74,2,6
17609.859,-0.381,-0.265,-0.79,-9.16,2.17,-15.5,2,6
17609.859,-0.358,-0.296,-0.766,-1.28,-5.58,-2.72,2,6
17609.875,-0.35,-0.343,-0.75,9.64,-13.73,8.15,2,6
17609.875,-0.358,-0.375,-0.751,20.91,-21.27,15.14,2,6
17609.89,-0.362,-0.394,-0.832,27.77,-28.2,17.52,2,6
17609.906,-0.368,-0.347,-0.918,22.49,-30.55,18.19,2,6
17609.906,-0.366,-0.313,-0.944,10.44,-25.91,17.55,2,6
17609.921,-0.349,-0.339,-0.937,-0.09,-14.86,15.99,2,6
17609.937,-0.359,-0.339,-0.93,-6.29,-5.95,13.21,2,6
17609.953,-0.35,-0.336,-0.898,-9.43,-1.74,11.2,2,6
17609.953,-0.328,-0.362,-0.85,-10.8,8.27,11.54,2,6
17609.968,-0.335,-0.377,-0.827,-8.27,15.38,13.15,2,6
17609.968,-0.352,-0.367,-0.807,-2.41,16.66,15.23,2,6
17609.984,-0.374,-0.357,-0.793,2.75,14.71,15.69,2,6
17610.0,-0.396,-0.355,-0.799,4.88,10.07,14.83,2,6
17610.0,-0.415,-0.341,-0.794,4.24,6.74,13.37,2,6
17610.015,-0.429,-0.338,-0.793,2.78,2.32,9.61,2,6
17610.015,-0.435,-0.333,-0.801,0.58,-3.05,3.3,2,6
17610.031,-0.458,-0.313,-0.805,-2.56,-7.66,-4.0,2,6
17610.046,-0.498,-0.297,-0.805,-6.44,-13.18,-10.41,2,6
17610.062,-0.535,-0.287,-0.79,-10.71,-20.72,-15.72,2,6
17610.062,-0.561,-0.268,-0.771,-13.7,-28.87,-20.02,2,6
17610.078,-0.602,-0.247,-0.755,-15.23,-37.42,-23.32,2,6
17610.078,-0.626,-0.228,-0.731,-17.76,-47.15,-24.23,2,6
17610.093,-0.654,-0.229,-0.705,-19.07,-58.08,-23.65,2,6
17610.109,-0.702,-0.245,-0.711,-17.98,-71.08,-21.97,2,6
17610.109,-0.747,-0.234,-0.744,-17.18,-84.93,-16.97,2,6
17610.125,-0.797,-0.2,-0.8,-18.86,-97.99,-8.94,2,6
17610.14,-0.846,-0.176,-0.886,-20.87,-107.97,0.98,2,6
17610.14,-0.856,-0.163,-0.944,-22.95,-113.38,12.54,2,6
17610.156,-0.861,-0.19,-0.97,-22.0,-113.25,23.62,2,6
17610.156,-0.878,-0.226,-1.009,-17.12,-109.74,32.96,2,6
17610.171,-0.9,-0.221,-1.037,-11.66,-104.56,41.38,2,6
17610.187,-0.92,-0.246,-1.021,-6.93,-98.88,49.29,2,6
17610.187,-0.974,-0.263,-1.026,-2.5,-97.48,54.29,2,6
17610.203,-1.023,-0.28,-1.046,-2.72,-96.62,64.18,2,6
17610.218,-1.038,-0.272,-1.036,-6.26,-99.92,74.56,2,6
17610.218,-1.054,-0.293,-1.027,-5.46,-102.08,85.82,2,6
17610.234,-1.073,-0.269,-1.044,-1.98,-105.08,96.01,2,6
17610.25,-1.09,-0.245,-1.054,0.55,-104.59,107.03,2,6
17610.25,-1.073,-0.225,-1.064,2.38,-104.71,115.6,2,6
17610.265,-1.087,-0.19,-1.1,-5.19,-101.08,132.27,2,6
17610.265,-1.057,-0.133,-1.105,-15.63,-98.36,141.7,2,6
17610.281,-1.017,-0.096,-1.079,-24.51,-95.52,149.75,2,6
17610.296,-0.915,-0.131,-0.951,-28.2,-94.09,157.11,2,6
17610.296,-0.881,-0.166,-0.877,-22.68,-95.55,161.99,2,6
17610.312,-0.884,-0.165,-0.868,-12.76,-99.73,168.43,2,6
17610.328,-0.849,-0.145,-0.885,-8.06,-106.48,175.42,2,6
17610.328,-0.818,-0.169,-0.892,-10.93,-113.1,179.48,2,6
17610.343,-0.783,-0.234,-0.882,-14.65,-119.27,179.48,2,6
17610.359,-0.75,-0.285,-0.894,-13.15,-123.91,173.25,2,6
17610.359,-0.71,-0.277,-0.927,-13.79,-127.6,160.19,2,6
17610.375,-0.671,-0.26,-0.951,-22.03,-131.32,142.34,2,6
17610.39,-0.631,-0.247,-0.976,-33.75,-133.92,122.2,2,6
17610.39,-0.597,-0.245,-0.997,-45.56,-134.86,102.85,2,6
17610.406,-0.575,-0.242,-0.983,-53.74,-134.22,85.12,2,6
17610.421,-0.568,-0.219,-0.976,-55.73,-132.54,70.22,2,6
17610.421,-0.56,-0.157,-0.976,-56.34,-129.8,59.72,2,6
17610.437,-0.562,-0.111,-0.963,-58.2,-126.9,53.74,2,6
17610.437,-0.564,-0.087,-0.936,-59.33,-123.75,51.24,2,6
17610.453,-0.55,-0.069,-0.905,-57.07,-120.46,51.48,2,6
17610.468,-0.537,-0.051,-0.889,-52.06,-116.06,53.87,2,6
17610.468,-0.54,-0.027,-0.883,-46.57,-110.02,57.25,2,6
17610.484,-0.547,-0.004,-0.869,-42.45,-103.06,60.43,2,6
17610.5,-0.556,0.014,-0.855,-39.95,-95.92,62.47,2,6
17610.5,-0.563,0.02,-0.836,-38.42,-87.74,64.18,2,6
17610.515,-0.589,0.034,-0.8,-36.16,-78.19,64.27,2,6
17610.531,-0.61,0.06,-0.762,-32.9,-68.73,62.53,2,6
17610.531,-0.637,0.1,-0.722,-30.15,-61.04,59.76,2,6
17610.546,-0.677,0.154,-0.677,-29.6,-56.0,56.28,2,6
17610.546,-0.702,0.199,-0.632,-31.65,-54.45,52.43,2,6
17610.562,-0.713,0.228,-0.592,-35.25,-55.91,49.17,2,6
17610.578,-0.716,0.241,-0.559,-38.61,-59.3,47.36,2,6
17610.578,-0.72,0.245,-0.537,-39.92,-62.84,47.06,2,6
17610.593,-0.728,0.254,-0.519,-40.16,-65.58,47.79,2,6
17610.609,-0.73,0.258,-0.507,-40.47,-67.29,48.62,2,6
17610.609,-0.73,0.254,-0.496,-41.08,-67.93,49.75,2,6
17610.625,-0.73,0.252,-0.485,-40.83,-67.45,50.6,2,6
17610.64,-0.726,0.263,-0.472,-39.49,-65.98,51.0,2,6
17610.64,-0.719,0.268,-0.444,-38.27,-63.78,51.97,2,6
17610.656,-0.716,0.268,-0.417,-37.32,-60.88,53.74,2,6
17610.656,-0.718,0.277,-0.391,-35.89,-57.56,55.73,2,6
17610.671,-0.725,0.287,-0.358,-33.97,-54.02,58.05,2,6
17610.687,-0.724,0.303,-0.322,-32.56,-50.66,61.46,2,6
17610.687,-0.72,0.319,-0.293,-31.25,-48.01,65.25,2,6
17610.703,-0.713,0.325,-0.268,-29.63,-46.39,69.25,2,6
17610.718,-0.715,0.338,-0.242,-27.65,-45.2,73.37,2,6
17610.734,-0.742,0.37,-0.219,-25.67,-44.5,76.69,2,6
17610.734,-0.787,0.403,-0.191,-24.99,-45.66,78.95,2,6
17610.75,-0.843,0.438,-0.152,-26.43,-48.77,81.09,2,6
17610.75,-0.886,0.476,-0.118,-29.11,-53.1,83.65,2,6
17610.765,-0.92,0.502,-0.08,-31.86,-56.92,87.22,2,6
17610.765,-0.972,0.544,-0.028,-34.06,-59.3,92.65,2,6
17610.781,-1.027,0.597,0.027,-35.04,-62.5,99.92,2,6
17610.796,-1.067,0.647,0.082,-34.61,-67.38,108.89,2,6
17610.812,-1.09,0.698,0.111,-33.75,-73.49,118.56,2,6
17610.812,-1.09,0.747,0.121,-32.96,-79.78,127.9,2,6
17610.828,-1.065,0.782,0.122,-32.99,-85.6,135.11,2,6
17610.843,-1.029,0.813,0.108,-33.78,-89.79,139.1,2,6
17610.843,-0.996,0.849,0.085,-36.29,-91.13,137.97,2,6
17610.859,-0.974,0.892,0.051,-39.86,-89.66,131.23,2,6
17610.859,-0.956,0.932,0.027,-45.08,-86.73,120.3,2,6
17610.875,-0.939,0.984,0.02,-53.71,-84.66,105.69,2,6
17610.89,-0.898,1.022,0.034,-65.49,-84.57,88.05,2,6
17610.89,-0.854,1.041,0.051,-80.9,-85.06,68.06,2,6
17610.906,-0.83,1.059,0.071,-97.29,-86.49,47.36,2,6
17610.921,-0.817,1.063,0.092,-112.16,-89.02,28.11,2,6
17610.921,-0.808,1.052,0.116,-125.74,-93.54,10.04,2,6
17610.937,-0.785,1.047,0.13,-136.27,-98.06,-6.53,2,6
17610.953,-0.773,1.053,0.144,-146.49,-101.14,-20.51,2,6
17610.953,-0.767,1.043,0.168,-157.84,-103.85,-31.56,2,6
17610.968,-0.754,1.004,0.197,-166.42,-105.53,-40.71,2,6
17610.968,-0.737,0.965,0.216,-170.96,-105.99,-49.1,2,6
17610.984,-0.73,0.921,0.24,-172.67,-105.81,-56.43,2,6
17611.0,-0.705,0.837,0.277,-171.06,-105.53,-61.04,2,6
17611.0,-0.656,0.845,0.283,-165.01,-104.46,-68.88,2,6
17611.015,-0.656,0.777,0.264,-160.41,-103.4,-78.68,2,6
17611.015,-0.597,0.714,0.292,-160.25,-98.91,-86.58,2,6
17611.031,-0.516,0.683,0.301,-158.91,-93.33,-95.95,2,6
17611.046,-0.481,0.586,0.31,-156.96,-85.12,-101.72,2,6
17611.046,-0.386,0.525,0.352,-148.93,-73.92,-102.15,2,6
17611.062,-0.349,0.413,0.377,-133.55,-60.06,-102.54,2,6
17611.078,-0.31,0.369,0.363,-117.98,-50.84,-103.34,2,6
17611.078,-0.259,0.297,0.329,-99.7,-30.24,-104.19,2,6
17611.093,-0.282,0.172,0.33,-87.41,-9.16,-102.63,2,6
17611.109,-0.253,0.091,0.341,-74.47,4.03,-101.5,2,6
17611.109,-0.213,0.073,0.32,-55.33,19.26,-107.49,2,6
17611.125,-0.242,0.061,0.278,-42.63,32.53,-117.92,2,6
17611.14,-0.289,0.038,0.271,-42.05,40.19,-122.96,2,6
17611.14,-0.316,0.051,0.255,-42.66,42.3,-125.22,2,6
17611.156,-0.292,0.073,0.185,-39.55,41.51,-128.7,2,6
17611.156,-0.362,0.059,0.119,-35.98,44.86,-132.69,2,6
17611.171,-0.521,-0.023,0.108,-32.04,48.98,-133.73,2,6
17611.187,-0.676,-0.108,0.086,-23.53,50.84,-130.25,2,6
17611.187,-0.831,-0.175,0.03,-7.23,53.35,-125.0,2,6
17611.203,-0.934,-0.232,-0.005,12.88,57.71,-121.1,2,6
17611.218,-1.002,-0.234,-0.01,32.14,65.46,-120.64,2,6
17611.218,-1.024,-0.216,0.005,47.52,75.62,-123.26,2,6
17611.234,-1.072,-0.179,0.039,55.39,81.3,-128.54,2,6
17611.25,-1.114,-0.14,0.097,57.1,69.22,-139.5,2,6
17611.25,-1.123,-0.1,0.167,53.93,54.99,-141.0,2,6
17611.265,-1.114,-0.067,0.247,50.05,37.57,-138.74,2,6
17611.265,-1.084,-0.052,0.329,48.83,18.65,-131.41,2,6
17611.281,-1.147,-0.071,0.383,51.24,-0.82,-119.33,2,6
17611.296,-1.18,-0.056,0.36,53.93,-20.69,-104.22,2,6
17611.296,-1.149,-0.032,0.299,54.02,-36.84,-89.39,2,6
17611.312,-1.086,-0.028,0.257,53.07,-45.5,-74.89,2,6
17611.328,-1.006,-0.006,0.232,53.93,-46.94,-61.1,2,6
17611.328,-0.919,0.024,0.217,54.54,-44.19,-47.43,2,6
17611.343,-0.842,0.054,0.19,54.38,-39.86,-33.11,2,6
17611.359,-0.798,0.074,0.174,53.9,-35.37,-20.45,2,6
17611.359,-0.76,0.064,0.174,52.1,-29.33,-9.25,2,6
17611.375,-0.699,0.078,0.165,49.26,-22.77,0.7,2,6
17611.39,-0.689,0.089,0.184,47.58,-14.44,7.11,2,6
17611.39,-0.735,0.091,0.236,45.01,-5.52,10.32,2,6
17611.406,-0.751,0.083,0.284,40.16,0.06,11.57,2,6
17611.406,-0.757,0.108,0.311,34.39,0.85,10.28,2,6
17611.421,-0.701,0.147,0.315,26.0,-2.26,9.25,2,6
17611.437,-0.598,0.156,0.288,15.08,-7.17,9.8,2,6
17611.437,-0.582,0.115,0.256,6.56,-9.03,9.95,2,6
17611.453,-0.694,0.073,0.285,2.01,-6.23,6.56,2,6
17611.468,-0.811,0.066,0.326,-3.05,-3.17,-2.78,2,6
17611.468,-0.855,0.058,0.35,-13.21,-3.57,-15.44,2,6
17611.484,-0.875,0.043,0.405,-23.83,-5.8,-26.67,2,6
17611.5,-0.857,0.049,0.449,-31.25,-9.95,-34.0,2,6
17611.5,-0.823,0.023,0.462,-35.34,-14.92,-35.58,2,6
17611.515,-0.85,-0.017,0.479,-34.09,-17.52,-31.62,2,6
17611.515,-0.893,-0.035,0.487,-28.78,-19.04,-24.96,2,6
17611.531,-0.912,-0.044,0.478,-24.6,-19.84,-18.59,2,6
17611.546,-0.901,-0.063,0.471,-21.91,-19.68,-12.05,2,6
17611.562,-0.866,-0.075,0.459,-18.19,-18.31,-4.88,2,6
17611.562,-0.82,-0.074,0.444,-13.79,-15.63,1.4,2,6
17611.578,-0.8,-0.071,0.418,-9.25,-12.67,6.59,2,6
17611.578,-0.82,-0.061,0.414,-5.22,-8.55,9.95,2,6
17611.593,-0.838,-0.056,0.423,-4.0,-4.73,9.64,2,6
17611.609,-0.857,-0.066,0.441,-5.31,-2.35,6.87,2,6
17611.625,-0.869,-0.078,0.475,-5.86,-1.34,4.91,2,6
17611.625,-0.848,-0.079,0.485,-5.37,-2.29,4.43,2,6
17611.625,-0.816,-0.067,0.498,-6.35,-3.6,4.46,2,6
17611.64,-0.814,-0.092,0.494,-7.11,-8.42,4.88,2,6
17611.656,-0.816,-0.096,0.484,-5.68,-11.99,2.9,2,6
17611.656,-0.824,-0.068,0.473,-7.97,-12.82,-3.42,2,6
17611.671,-0.817,-0.091,0.466,-13.55,-15.93,-10.62,2,6
17611.687,-0.81,-0.11,0.47,-15.63,-17.94,-16.63,2,6
17611.687,-0.795,-0.106,0.466,-16.05,-18.86,-21.36,2,6
17611.703,-0.76,-0.091,0.453,-16.27,-18.89,-23.68,2,6
17611.718,-0.758,-0.091,0.452,-15.47,-16.88,-23.71,2,6
17611.718,-0.774,-0.095,0.467,-13.25,-13.89,-23.01,2,6
17611.734,-0.782,-0.089,0.474,-11.02,-11.99,-22.68,2,6
17611.75,-0.794,-0.09,0.479,-10.38,-11.41,-21.91,2,6
17611.75,-0.819,-0.086,0.481,-11.14,-11.93,-20.48,2,6
17611.765,-0.845,-0.089,0.475,-12.76,-13.79,-19.96,2,6
17611.781,-0.864,-0.111,0.481,-14.95,-15.72,-19.71,2,6
17611.781,-0.849,-0.118,0.484,-14.95,-16.02,-18.22,2,6
17611.796,-0.839,-0.117,0.477,-13.18,-14.28,-15.96,2,6
17611.812,-0.836,-0.124,0.482,-11.29,-12.21,-11.2,2,6
17611.828,-0.837,-0.119,0.482,-7.2,-9.7,-5.43,2,6
17611.828,-0.861,-0.121,0.484,-1.74,-6.07,-0.12,2,6
17611.843,-0.877,-0.113,0.498,1.56,-2.56,3.88,2,6
17611.859,-0.874,-0.107,0.513,4.18,-0.85,6.78,2,6
17611.875,-0.873,-0.091,0.515,6.68,-0.64,8.67,2,6
17611.875,-0.86,-0.077,0.511,6.35,-2.26,10.38,2,6
17611.89,-0.846,-0.075,0.507,4.24,-4.7,11.2,2,6
17611.906,-0.873,-0.085,0.501,3.2,-6.96,10.25,2,6
17611.921,-0.9,-0.088,0.501,2.62,-8.42,7.35,2,6
17611.937,-0.897,-0.087,0.504,1.07,-9.22,3.94,2,6
17611.953,-0.874,-0.083,0.512,-0.46,-10.01,2.11,2,6
17611.968,-0.849,-0.079,0.519,-0.49,-10.9,2.2,2,6
17611.968,-0.833,-0.068,0.516,0.7,-11.57,3.48,2,6
17611.968,-0.816,-0.055,0.498,2.14,-12.57,4.49,2,6
17611.984,-0.812,-0.058,0.477,1.68,-12.91,4.58,2,6
17611.984,-0.818,-0.06,0.463,0.4,-12.27,3.45,2,6
17611.984,-0.83,-0.06,0.461,-0.64,-10.77,1.34,2,6
17611.984,-0.832,-0.057,0.471,-1.86,-8.79,-1.07,2,6
17611.984,-0.83,-0.056,0.492,-2.9,-6.81,-3.23,2,6
17612.0,-0.821,-0.058,0.509,-3.39,-5.37,-3.11,2,6
17612.015,-0.808,-0.06,0.521,-2.32,-4.52,-0.43,2,6
17612.015,-0.809,-0.068,0.526,-0.09,-4.09,3.05,2,6
17612.031,-0.814,-0.078,0.528,1.8,-4.39,5.95,2,6
17612.046,-0.819,-0.083,0.524,2.23,-4.61,7.23,2,6
17612.046,-0.821,-0.098,0.525,1.31,-4.79,6.96,2,6
17612.062,-0.812,-0.114,0.534,0.79,-5.01,6.26,2,6
17612.078,-0.812,-0.117,0.538,1.34,-5.01,4.88,2,6
17612.078,-0.814,-0.112,0.538,1.31,-4.94,2.99,2,6
17612.093,-0.819,-0.104,0.54,0.85,-4.67,0.82,2,6
17612.109,-0.819,-0.092,0.554,-0.31,-4.36,-2.01,2,6
17612.109,-0.817,-0.087,0.566,-1.37,-4.82,-4.64,2,6
17612.125,-0.818,-0.088,0.569,-0.92,-5.98,-5.1,2,6
17612.14,-0.808,-0.08,0.559,0.79,-7.57,-4.21,2,6
17612.14,-0.801,-0.074,0.538,1.46,-8.79,-2.9,2,6
17612.156,-0.801,-0.077,0.526,1.4,-9.37,-2.11,2,6
17612.156,-0.803,-0.071,0.521,1.86,-9.16,-2.41,2,6
17612.171,-0.804,-0.063,0.516,2.11,-8.03,-3.94,2,6
17612.187,-0.801,-0.055,0.516,1.04,-6.96,-5.16,2,6
17612.187,-0.792,-0.055,0.518,0.37,-6.74,-5.4,2,6
17612.203,-0.778,-0.055,0.515,0.55,-6.5,-4.85,2,6
17612.218,-0.765,-0.053,0.505,1.37,-5.28,-3.57,2,6
17612.218,-0.764,-0.06,0.501,2.59,-1.31,-3.02,2,6
17612.234,-0.776,-0.07,0.503,2.23,-0.27,-4.88,2,6
17612.25,-0.79,-0.063,0.513,0.73,0.18,-7.57,2,6
17612.25,-0.797,-0.06,0.524,-1.65,-0.06,-9.64,2,6
17612.265,-0.821,-0.078,0.542,-3.27,-0.82,-10.28,2,6
17612.281,-0.825,-0.078,0.547,-3.45,-1.95,-10.28,2,6
17612.281,-0.823,-0.083,0.541,-2.75,-2.66,-9.43,2,6
17612.296,-0.822,-0.087,0.537,-1.46,-2.62,-7.72,2,6
17612.296,-0.826,-0.077,0.535,0.0,-1.77,-6.81,2,6
17612.312,-0.834,-0.069,0.536,0.18,-1.1,-6.9,2,6
17612.328,-0.844,-0.071,0.542,-1.37,-0.76,-6.81,2,6
17612.328,-0.858,-0.077,0.548,-2.96,-1.62,-6.59,2,6
17612.343,-0.854,-0.077,0.547,-3.81,-3.05,-5.52,2,6
17612.359,-0.845,-0.082,0.542,-3.6,-3.6,-2.93,2,6
17612.359,-0.838,-0.093,0.534,-1.77,-3.3,0.89,2,6
17612.375,-0.839,-0.093,0.524,0.92,-1.95,4.55,2,6
17612.375,-0.85,-0.089,0.522,3.14,0.21,7.14,2,6
17612.39,-0.851,-0.087,0.526,4.0,2.26,8.67,2,6
17612.406,-0.861,-0.086,0.536,4.15,3.78,9.13,2,6
17612.406,-0.863,-0.08,0.548,3.97,3.97,9.7,2,6
17612.421,-0.859,-0.076,0.555,4.33,3.36,10.44,2,6
17612.437,-0.863,-0.072,0.554,4.82,1.98,10.96,2,6
17612.437,-0.86,-0.06,0.549,4.27,-0.27,11.32,2,6
17612.453,-0.844,-0.064,0.548,2.9,-2.35,10.83,2,6
17612.468,-0.826,-0.073,0.545,2.08,-3.48,10.25,2,6
17612.468,-0.812,-0.073,0.542,2.26,-3.42,9.16,2,6
17612.484,-0.797,-0.069,0.538,2.75,-2.56,7.75,2,6
17612.5,-0.799,-0.056,0.535,2.53,-0.92,5.92,2,6
17612.5,-0.819,-0.048,0.547,1.46,0.82,3.11,2,6
17612.515,-0.834,-0.043,0.561,-0.67,1.37,0.49,2,6
17612.515,-0.837,-0.034,0.579,-2.87,1.1,-1.22,2,6
17612.531,-0.809,-0.027,0.595,-3.75,1.74,-1.4,2,6
17612.546,-0.79,-0.021,0.606,-3.45,3.05,-1.22,2,6
17612.546,-0.791,-0.015,0.637,-2.84,5.01,-0.4,2,6
17612.562,-0.8,0.002,0.694,-3.2,6.74,1.68,2,6
17612.578,-0.83,0.018,0.781,-4.27,6.68,4.12,2,6
17612.578,-0.888,0.054,0.894,-5.71,1.19,7.81,2,6
17612.593,-0.949,0.087,0.997,-9.13,-12.91,13.7,2,6
17612.609,-0.994,0.077,1.037,-14.65,-33.23,21.24,2,6
17612.609,-0.995,0.045,1.02,-18.37,-53.83,28.14,2,6
17612.625,-0.966,0.023,0.972,-20.42,-71.44,33.39,2,6
17612.625,-0.962,-0.0,0.885,-20.33,-84.32,37.39,2,6
17612.64,-0.946,-0.016,0.735,-20.91,-90.46,42.54,2,6
17612.656,-0.856,-0.058,0.589,-23.47,-86.12,48.1,2,6
17612.671,-0.798,-0.143,0.516,-23.5,-71.26,50.36,2,6
17612.671,-0.78,-0.194,0.467,-13.43,-49.53,49.07,2,6
17612.687,-0.788,-0.182,0.432,1.68,-23.65,43.24,2,6
17612.687,-0.841,-0.137,0.432,12.51,1.04,33.14,2,6
17612.703,-0.898,-0.087,0.448,15.53,19.87,21.45,2,6
17612.718,-0.977,-0.049,0.467,12.02,32.56,7.69,2,6
17612.718,-1.075,-0.065,0.503,6.04,40.13,-7.84,2,6
17612.734,-1.143,-0.063,0.542,0.52,44.89,-21.97,2,6
17612.75,-1.173,-0.056,0.591,-2.75,47.7,-32.26,2,6
17612.75,-1.157,-0.08,0.651,-2.66,46.24,-36.01,2,6
17612.765,-1.094,-0.063,0.695,2.01,39.92,-34.09,2,6
17612.765,-1.06,-0.033,0.698,9.46,30.82,-29.66,2,6
17612.781,-1.077,-0.012,0.692,11.96,18.74,-25.51,2,6
17612.796,-1.064,-0.013,0.679,8.18,4.09,-23.16,2,6
17612.796,-1.04,-0.034,0.639,2.72,-9.64,-22.86,2,6
17612.812,-1.016,-0.06,0.612,-2.04,-22.03,-23.5,2,6
17612.828,-1.0,-0.087,0.557,-3.75,-33.39,-22.89,2,6
17612.828,-0.967,-0.086,0.478,-2.59,-41.17,-19.62,2,6
17612.843,-0.893,-0.068,0.415,0.03,-44.1,-15.87,2,6
17612.859,-0.784,-0.036,0.35,1.95,-42.91,-13.28,2,6
17612.859,-0.679,0.011,0.297,3.75,-38.27,-11.96,2,6
17612.875,-0.596,0.043,0.279,4.97,-31.98,-10.25,2,6
17612.89,-0.521,0.055,0.302,5.86,-25.3,-7.69,2,6
17612.89,-0.476,0.076,0.327,7.51,-19.44,-6.41,2,6
17612.906,-0.465,0.093,0.362,7.08,-15.29,-7.45,2,6
17612.906,-0.438,0.093,0.401,1.71,-14.04,-9.74,2,6
17612.921,-0.408,0.088,0.432,-5.95,-14.19,-12.57,2,6
17612.937,-0.397,0.051,0.461,-11.54,-14.89,-13.25,2,6
17612.937,-0.385,0.023,0.467,-13.4,-15.96,-9.89,2,6
17612.953,-0.403,0.011,0.451,-12.15,-16.39,-5.13,2,6
17612.968,-0.479,-0.006,0.427,-10.96,-16.66,0.0,2,6
17612.968,-0.544,-0.054,0.414,-11.93,-17.12,5.43,2,6
17612.984,-0.588,-0.093,0.402,-11.17,-15.63,9.22,2,6
17613.0,-0.619,-0.092,0.395,-7.97,-10.44,9.67,2,6
17613.0,-0.653,-0.079,0.409,-6.84,-3.39,7.2,2,6
17613.015,-0.671,-0.084,0.449,-8.61,3.3,5.04,2,6
17613.015,-0.692,-0.106,0.502,-7.87,9.61,4.18,2,6
17613.031,-0.726,-0.122,0.552,-3.85,14.19,3.91,2,6
17613.046,-0.752,-0.105,0.584,-0.92,16.05,3.42,2,6
17613.046,-0.772,-0.092,0.613,-1.34,15.96,3.6,2,6
17613.062,-0.797,-0.09,0.658,-3.45,14.95,4.82,2,6
17613.078,-0.809,-0.095,0.703,-4.76,12.6,6.35,2,6
17613.078,-0.804,-0.088,0.716,-3.54,9.06,8.58,2,6
17613.093,-0.802,-0.059,0.699,-1.46,5.95,11.35,2,6
17613.109,-0.8,-0.04,0.683,-2.04,4.03,15.2,2,6
17613.109,-0.783,-0.045,0.674,-3.11,3.33,20.48,2,6
17613.125,-0.775,-0.046,0.659,-1.01,3.78,25.73,2,6
17613.125,-0.765,-0.034,0.635,2.17,5.52,30.49,2,6
17613.14,-0.759,-0.041,0.621,3.66,7.63,35.04,2,6
17613.156,-0.766,-0.059,0.614,5.25,9.61,38.0,2,6
17613.156,-0.767,-0.063,0.61,6.87,10.83,38.61,2,6
17613.171,-0.756,-0.084,0.601,7.45,10.5,37.45,2,6
17613.187,-0.756,-0.102,0.593,7.02,9.22,34.21,2,6
17613.187,-0.748,-0.114,0.586,5.71,7.14,29.79,2,6
17613.203,-0.738,-0.107,0.577,4.33,5.16,23.53,2,6
17613.218,-0.74,-0.096,0.568,-0.46,2.32,7.75,2,6
17613.218,-0.745,-0.086,0.564,-4.06,1.25,-0.18,2,6
17613.234,-0.745,-0.075,0.566,-6.29,0.95,-6.26,2,6
17613.25,-0.748,-0.061,0.583,-7.45,1.07,-9.8,2,6
17613.25,-0.746,-0.059,0.587,-6.68,1.16,-10.35,2,6
17613.265,-0.736,-0.047,0.586,-4.61,1.31,-9.31,2,6
17613.265,-0.742,-0.036,0.581,-3.39,1.4,-7.69,2,6
17613.281,-0.755,-0.028,0.581,-3.33,1.22,-5.68,2,6
17613.296,-0.76,-0.035,0.587,-3.48,1.53,-3.14,2,6
17613.296,-0.768,-0.041,0.588,-2.5,2.53,-0.09,2,6
17613.312,-0.782,-0.055,0.584,0.0,4.06,3.88,2,6
17613.328,-0.783,-0.055,0.577,3.17,5.4,8.73,2,6
17613.328,-0.769,-0.062,0.569,6.41,6.41,13.06,2,6
17613.343,-0.748,-0.063,0.56,8.85,7.29,16.11,2,6
17613.359,-0.719,-0.057,0.543,9.64,8.03,17.09,2,6
17613.359,-0.698,-0.054,0.524,8.3,8.42,15.41,2,6
17613.375,-0.683,-0.065,0.517,5.52,9.0,12.39,2,6
17613.375,-0.662,-0.074,0.516,3.94,9.25,9.37,2,6
17613.39,-0.635,-0.07,0.513,4.03,9.64,6.96,2,6
17613.406,-0.609,-0.066,0.499,4.39,10.62,5.19,2,6
17613.406,-0.609,-0.063,0.489,4.97,12.63,3.48,2,6
17613.421,-0.629,-0.049,0.483,5.07,15.14,0.85,2,6
17613.437,-0.647,-0.042,0.483,3.91,17.15,-2.78,2,6
17613.437,-0.656,-0.04,0.497,2.41,18.98,-6.68,2,6
17613.453,-0.657,-0.031,0.511,1.8,19.99,-9.83,2,6
17613.468,-0.654,-0.029,0.514,1.16,19.5,-10.56,2,6
17613.468,-0.645,-0.025,0.513,0.85,18.65,-9.25,2,6
17613.484,-0.643,-0.031,0.501,1.68,17.82,-6.71,2,6
17613.5,-0.641,-0.034,0.483,3.23,17.88,-4.33,2,6
17613.5,-0.644,-0.021,0.467,4.36,18.86,-3.66,2,6
17613.515,-0.644,-0.014,0.456,3.94,20.48,-4.73,2,6
17613.515,-0.641,-0.016,0.45,2.62,22.52,-6.47,2,6
17613.531,-0.639,-0.018,0.441,1.62,24.66,-8.61,2,6
17613.546,-0.642,-0.025,0.425,0.92,26.7,-9.8,2,6
17613.562,-0.63,-0.021,0.411,0.15,28.57,-10.07,2,6
17613.562,-0.644,-0.016,0.4,0.12,30.82,-11.44,2,6
17613.578,-0.661,-0.012,0.404,-1.19,33.2,-13.43,2,6
17613.578,-0.669,-0.007,0.421,-3.39,34.49,-15.02,2,6
17613.593,-0.689,-0.003,0.446,-4.79,34.7,-16.08,2,6
17613.609,-0.717,0.006,0.485,-6.16,33.02,-15.5,2,6
17613.609,-0.749,-0.002,0.502,-7.23,28.44,-12.36,2,6
17613.625,-0.753,-0.021,0.491,-7.08,23.07,-7.11,2,6
17613.625,-0.744,-0.018,0.451,-5.34,18.86,-1.56,2,6
17613.64,-0.722,-0.018,0.401,-3.78,16.88,3.2,2,6
17613.656,-0.698,-0.028,0.352,-2.96,17.7,6.35,2,6
17613.656,-0.722,-0.04,0.303,-1.59,22.55,5.31,2,6
17613.671,-0.743,-0.048,0.293,-1.37,30.79,1.71,2,6
17613.687,-0.739,-0.048,0.309,-2.35,39.46,-2.38,2,6
17613.687,-0.751,-0.054,0.323,-2.62,47.03,-5.55,2,6
17613.703,-0.744,-0.06,0.342,-1.13,52.46,-5.86,2,6
17613.718,-0.723,-0.048,0.347,2.08,55.09,-3.05,2,6
17613.718,-0.716,-0.041,0.332,5.16,56.52,1.22,2,6
17613.734,-0.751,-0.042,0.313,7.17,58.05,4.67,2,6
17613.734,-0.836,-0.042,0.319,8.18,60.43,3.91,2,6
17613.75,-0.879,-0.041,0.342,5.98,61.92,-0.37,2,6
17613.765,-0.876,-0.034,0.345,2.2,61.13,-5.4,2,6
17613.781,-0.865,-0.044,0.338,-0.09,59.97,-9.49,2,6
17613.781,-0.839,-0.037,0.32,-1.83,57.56,-10.74,2,6
17613.796,-0.824,-0.043,0.289,-2.75,55.85,-9.06,2,6
17613.796,-0.816,-0.061,0.256,-1.71,55.67,-5.68,2,6
17613.812,-0.828,-0.051,0.222,0.98,57.92,-5.13,2,6
17613.828,-0.882,-0.046,0.21,2.23,63.45,-7.51,2,6
17613.828,-0.919,-0.057,0.224,0.92,67.81,-9.28,2,6
17613.843,-0.943,-0.059,0.241,0.89,70.22,-11.66,2,6
17613.859,-0.951,-0.053,0.253,1.56,71.41,-12.67,2,6
17613.859,-0.924,-0.048,0.25,1.25,70.31,-10.86,2,6
17613.875,-0.898,-0.041,0.232,2.32,68.48,-7.02,2,6
17613.875,-0.894,-0.037,0.202,4.03,66.68,-2.56,2,6
17613.89,-0.935,-0.04,0.188,5.22,66.13,0.12,2,6
17613.906,-0.961,-0.045,0.181,4.88,66.01,0.49,2,6
17613.906,-0.963,-0.048,0.169,3.54,65.68,-0.89,2,6
17613.921,-0.946,-0.048,0.156,2.17,64.76,-1.56,2,6
17613.937,-0.929,-0.053,0.145,1.13,64.18,-1.46,2,6
17613.937,-0.942,-0.066,0.122,1.25,64.58,-1.19,2,6
17613.953,-0.946,-0.076,0.089,2.23,65.28,-0.12,2,6
17613.968,-0.947,-0.073,0.059,3.75,66.68,0.21,2,6
17613.968,-0.988,-0.078,0.038,4.46,70.01,-1.22,2,6
17613.984,-1.024,-0.082,0.053,4.36,74.13,-4.39,2,6
17614.0,-1.034,-0.079,0.084,3.75,77.15,-7.69,2,6
17614.0,-1.044,-0.08,0.101,4.06,77.7,-9.25,2,6
17614.015,-1.036,-0.08,0.086,5.37,74.8,-7.87,2,6
17614.015,-1.025,-0.073,0.044,6.96,70.71,-5.13,2,6
17614.031,-1.034,-0.066,0.007,8.12,68.09,-3.51,2,6
17614.046,-1.046,-0.074,-0.022,8.18,67.23,-3.85,2,6
17614.062,-1.085,-0.063,-0.029,7.72,69.49,-7.81,2,6
17614.062,-1.121,-0.057,-0.007,5.49,72.88,-13.0,2,6
17614.078,-1.127,-0.064,0.025,2.84,75.23,-16.54,2,6
17614.078,-1.127,-0.08,0.038,3.54,75.23,-16.66,2,6
17614.093,-1.111,-0.078,0.027,6.59,72.7,-12.33,2,6
17614.109,-1.087,-0.073,-0.017,10.62,69.19,-5.31,2,6
17614.109,-1.062,-0.064,-0.083,14.37,66.32,0.61,2,6
17614.125,-1.072,-0.021,-0.127,14.47,66.71,0.79,2,6
17614.125,-1.132,-0.02,-0.122,8.82,70.71,-4.88,2,6
17614.14,-1.203,-0.059,-0.073,2.11,75.38,-12.33,2,6
17614.156,-1.231,-0.088,-0.017,0.31,77.46,-16.63,2,6
17614.171,-1.227,-0.089,-0.003,2.93,75.44,-17.09,2,6
17614.171,-1.194,-0.069,-0.031,6.65,69.77,-14.28,2,6
17614.187,-1.146,-0.04,-0.087,7.97,62.93,-10.62,2,6
17614.203,-1.131,-0.041,-0.133,3.54,58.11,-10.71,2,6
17614.203,-1.133,-0.046,-0.153,1.19,59.3,-14.77,2,6
17614.218,-1.139,-0.058,-0.163,0.24,60.91,-17.52,2,6
17614.218,-1.118,-0.073,-0.168,0.73,62.81,-18.46,2,6
17614.234,-1.074,-0.066,-0.186,1.92,65.0,-18.56,2,6
17614.25,-1.041,-0.06,-0.19,1.8,66.32,-16.69,2,6
17614.25,-1.044,-0.093,-0.192,2.72,67.38,-13.76,2,6
17614.265,-1.029,-0.127,-0.206,5.4,67.23,-9.13,2,6
17614.265,-0.991,-0.113,-0.236,9.4,67.14,-5.04,2,6
17614.281,-0.974,-0.109,-0.262,10.8,68.45,-2.66,2,6
17614.296,-0.969,-0.127,-0.262,10.04,71.14,-1.34,2,6
17614.296,-1.009,-0.127,-0.255,10.1,74.13,-4.88,2,6
17614.312,-1.046,-0.15,-0.239,7.84,76.57,-7.51,2,6
17614.328,-1.038,-0.151,-0.228,7.48,76.45,-6.93,2,6
17614.328,-1.02,-0.148,-0.252,11.6,71.14,-7.6,2,6
17614.343,-0.999,-0.137,-0.289,14.59,65.83,-7.63,2,6
17614.359,-0.974,-0.1,-0.317,12.85,62.26,-8.0,2,6
17614.359,-0.968,-0.1,-0.337,9.28,58.99,-11.72,2,6
17614.375,-0.983,-0.121,-0.343,4.49,57.99,-16.02,2,6
17614.39,-0.972,-0.135,-0.339,0.61,57.5,-19.17,2,6
17614.39,-0.951,-0.151,-0.344,-0.64,56.37,-19.78,2,6
17614.406,-0.912,-0.149,-0.364,-0.27,54.11,-17.64,2,6
17614.406,-0.869,-0.137,-0.394,0.43,52.4,-16.45,2,6
17614.421,-0.863,-0.136,-0.426,0.09,52.89,-16.94,2,6
17614.437,-0.861,-0.144,-0.442,-1.28,54.26,-17.64,2,6
17614.453,-0.914,-0.156,-0.43,-1.31,58.57,-19.23,2,6
17614.453,-0.961,-0.169,-0.396,-0.79,63.63,-21.12,2,6
17614.468,-0.974,-0.173,-0.374,-0.18,65.8,-21.67,2,6
17614.468,-0.973,-0.172,-0.361,1.34,64.12,-20.08,2,6
17614.484,-0.945,-0.158,-0.365,1.59,59.63,-17.3,2,6
17614.5,-0.915,-0.169,-0.384,0.95,54.75,-14.07,2,6
17614.5,-0.875,-0.19,-0.417,1.19,49.84,-10.93,2,6
17614.515,-0.845,-0.201,-0.471,2.38,46.39,-8.39,2,6
17614.515,-0.861,-0.213,-0.514,3.27,45.11,-7.51,2,6
17614.531,-0.849,-0.22,-0.543,2.26,45.01,-10.25,2,6
17614.546,-0.84,-0.214,-0.57,0.15,47.03,-17.46,2,6
17614.546,-0.83,-0.196,-0.581,-2.75,49.99,-25.12,2,6
17614.562,-0.83,-0.189,-0.569,-6.53,53.47,-30.85,2,6
17614.578,-0.819,-0.192,-0.534,-7.9,58.99,-33.63,2,6
17614.593,-0.852,-0.187,-0.516,-5.92,61.34,-35.04,2,6
17614.593,-0.824,-0.184,-0.506,-3.11,58.96,-33.54,2,6
17614.609,-0.807,-0.181,-0.51,-2.5,57.19,-28.9,2,6
17614.609,-0.831,-0.19,-0.517,-1.74,54.57,-23.83,2,6
17614.625,-0.851,-0.206,-0.523,-1.83,52.19,-19.59,2,6
17614.64,-0.855,-0.221,-0.526,-2.66,51.94,-16.94,2,6
17614.64,-0.858,-0.248,-0.543,-0.76,52.1,-14.74,2,6
17614.656,-0.85,-0.247,-0.562,1.68,52.58,-13.4,2,6
17614.656,-0.844,-0.259,-0.592,3.54,53.01,-12.88,2,6
17614.671,-0.829,-0.267,-0.625,4.61,52.03,-13.0,2,6
17614.687,-0.807,-0.264,-0.657,3.97,49.81,-13.82,2,6
17614.687,-0.792,-0.257,-0.679,2.62,48.71,-15.96,2,6
17614.703,-0.795,-0.241,-0.695,1.1,50.72,-20.08,2,6
17614.718,-0.791,-0.238,-0.695,-0.64,54.57,-24.29,2,6
17614.718,-0.791,-0.246,-0.672,-0.55,58.72,-26.12,2,6
17614.734,-0.783,-0.243,-0.653,1.86,62.04,-25.67,2,6
17614.75,-0.762,-0.232,-0.64,5.07,63.57,-23.38,2,6
17614.75,-0.747,-0.223,-0.642,6.87,63.17,-21.42,2,6
17614.765,-0.735,-0.228,-0.663,4.88,60.15,-20.2,2,6
17614.781,-0.729,-0.249,-0.69,1.34,55.94,-18.43,2,6
17614.781,-0.722,-0.281,-0.706,0.7,53.32,-16.27,2,6
17614.796,-0.704,-0.313,-0.734,3.17,52.61,-17.7,2,6
17614.796,-0.703,-0.303,-0.766,2.38,53.5,-23.53,2,6
17614.812,-0.685,-0.316,-0.747,-4.18,55.67,-30.03,2,6
17614.828,-0.696,-0.376,-0.715,-8.79,59.05,-36.32,2,6
17614.828,-0.712,-0.387,-0.697,-8.21,61.74,-40.19,2,6
17614.843,-0.706,-0.365,-0.684,-5.74,62.78,-40.19,2,6
17614.859,-0.701,-0.352,-0.696,-3.51,62.69,-37.08,2,6
17614.859,-0.685,-0.342,-0.719,-1.25,62.29,-31.01,2,6
17614.875,-0.663,-0.323,-0.754,1.98,61.92,-24.45,2,6
17614.875,-0.665,-0.303,-0.8,5.19,61.59,-17.7,2,6
17614.89,-0.686,-0.288,-0.833,7.48,61.98,-10.74,2,6
17614.906,-0.696,-0.296,-0.854,9.46,63.66,-4.82,2,6
17614.906,-0.711,-0.318,-0.859,13.34,66.81,-1.04,2,6
17614.921,-0.737,-0.317,-0.855,17.52,70.86,-0.85,2,6
17614.937,-0.741,-0.3,-0.843,18.52,74.13,-3.66,2,6
17614.937,-0.734,-0.272,-0.826,15.84,75.72,-8.36,2,6
17614.953,-0.725,-0.248,-0.789,11.14,75.11,-12.82,2,6
17614.968,-0.713,-0.232,-0.761,7.57,72.3,-14.83,2,6
17614.968,-0.698,-0.231,-0.742,6.13,68.36,-13.21,2,6
17614.984,-0.683,-0.244,-0.744,7.39,63.94,-8.03,2,6
17615.0,-0.66,-0.259,-0.769,10.5,60.24,-1.53,2,6
17615.0,-0.644,-0.267,-0.815,12.85,57.62,3.14,2,6
17615.015,-0.632,-0.289,-0.859,12.79,55.76,5.28,2,6
17615.015,-0.615,-0.294,-0.892,11.41,55.06,4.27,2,6
17615.031,-0.592,-0.293,-0.909,9.13,56.15,0.27,2,6
17615.046,-0.58,-0.306,-0.911,7.08,58.53,-5.83,2,6
17615.046,-0.58,-0.31,-0.897,5.8,61.49,-11.47,2,6
17615.062,-0.572,-0.299,-0.879,5.37,63.14,-16.27,2,6
17615.078,-0.56,-0.296,-0.868,4.27,63.45,-21.3,2,6
17615.078,-0.554,-0.288,-0.871,1.04,62.07,-27.68,2,6
17615.093,-0.559,-0.283,-0.868,-4.76,60.24,-33.66,2,6
17615.109,-0.558,-0.278,-0.871,-9.52,59.11,-36.41,2,6
17615.109,-0.552,-0.281,-0.874,-9.13,59.88,-34.91,2,6
17615.125,-0.548,-0.261,-0.908,-4.49,62.26,-30.58,2,6
17615.125,-0.545,-0.239,-0.926,1.28,67.57,-23.35,2,6
17615.14,-0.538,-0.241,-0.934,7.6,73.24,-15.02,2,6
17615.156,-0.536,-0.237,-0.929,13.58,77.97,-7.45,2,6
17615.171,-0.528,-0.215,-0.924,15.44,79.84,-1.34,2,6
17615.171,-0.511,-0.212,-0.904,9.37,75.44,6.1,2,6
17615.187,-0.494,-0.223,-0.885,7.05,71.14,9.7,2,6
17615.187,-0.485,-0.246,-0.864,7.63,67.05,14.1,2,6
17615.203,-0.471,-0.27,-0.849,8.76,62.78,17.46,2,6
17615.218,-0.454,-0.315,-0.846,8.21,58.66,19.81,2,6
17615.218,-0.451,-0.341,-0.848,7.97,55.3,21.55,2,6
17615.234,-0.443,-0.344,-0.862,8.73,52.92,23.04,2,6
17615.25,-0.422,-0.335,-0.875,9.74,51.15,24.87,2,6
17615.25,-0.405,-0.337,-0.885,11.44,50.17,25.45,2,6
17615.265,-0.4,-0.325,-0.9,12.42,49.2,23.26,2,6
17615.265,-0.409,-0.311,-0.894,9.52,48.01,18.25,2,6
17615.281,-0.417,-0.341,-0.872,6.44,45.26,13.18,2,6
17615.296,-0.415,-0.335,-0.868,4.58,40.89,7.9,2,6
17615.312,-0.406,-0.317,-0.872,1.5,35.43,2.01,2,6
17615.312,-0.399,-0.31,-0.878,-2.17,30.34,-2.41,2,6
17615.328,-0.392,-0.292,-0.887,-3.75,27.28,-4.12,2,6
17615.328,-0.393,-0.272,-0.886,-3.97,26.61,-3.33,2,6
17615.343,-0.41,-0.274,-0.884,-1.4,27.34,-0.46,2,6
17615.359,-0.423,-0.247,-0.899,2.93,29.02,3.54,2,6
17615.359,-0.421,-0.212,-0.904,5.19,31.01,8.73,2,6
17615.375,-0.391,-0.229,-0.897,6.74,32.04,14.5,2,6
17615.375,-0.366,-0.239,-0.898,9.22,32.01,19.93,2,6
17615.39,-0.358,-0.249,-0.895,10.53,31.46,24.41,2,6
17615.406,-0.356,-0.281,-0.892,11.44,30.95,26.46,2,6
17615.421,-0.371,-0.284,-0.889,10.13,29.76,23.99,2,6
17615.421,-0.391,-0.302,-0.869,6.04,27.34,19.2,2,6
17615.437,-0.403,-0.322,-0.856,3.02,24.38,13.98,2,6
17615.437,-0.396,-0.308,-0.858,1.59,20.78,9.98,2,6
17615.453,-0.38,-0.29,-0.856,-0.4,17.21,7.51,2,6
17615.468,-0.369,-0.304,-0.857,-0.95,14.13,6.81,2,6
17615.468,-0.35,-0.299,-0.876,0.92,11.32,6.93,2,6
17615.484,-0.334,-0.263,-0.901,1.25,9.43,6.53,2,6
17615.484,-0.323,-0.262,-0.901,-1.19,9.09,5.92,2,6
17615.5,-0.318,-0.286,-0.9,-2.72,9.19,5.07,2,6
17615.515,-0.314,-0.29,-0.907,-3.14,8.85,4.3,2,6
17615.531,-0.312,-0.3,-0.914,-3.08,9.83,4.61,2,6
17615.531,-0.314,-0.308,-0.914,-1.59,12.57,6.04,2,6
17615.546,-0.31,-0.309,-0.906,0.73,15.44,7.84,2,6
17615.546,-0.305,-0.316,-0.884,2.5,17.18,8.55,2,6
17615.562,-0.311,-0.3,-0.873,2.59,16.75,6.84,2,6
17615.578,-0.32,-0.291,-0.862,-1.68,13.7,3.54,2,6
17615.578,-0.325,-0.312,-0.853,-7.2,9.13,0.73,2,6
17615.593,-0.319,-0.336,-0.853,-8.76,5.34,0.79,2,6
17615.593,-0.313,-0.339,-0.864,-6.26,3.78,3.17,2,6
17615.609,-0.305,-0.344,-0.874,-2.87,3.6,7.26,2,6
17615.625,-0.294,-0.355,-0.884,1.07,4.43,10.77,2,6
17615.625,-0.294,-0.338,-0.906,4.09,4.97,11.11,2,6
17615.64,-0.289,-0.329,-0.911,2.41,5.46,9.25,2,6
17615.656,-0.277,-0.352,-0.901,-0.24,5.65,6.53,2,6
17615.656,-0.274,-0.365,-0.898,-0.27,5.77,3.94,2,6
17615.671,-0.268,-0.359,-0.89,0.61,5.22,3.11,2,6
17615.687,-0.257,-0.357,-0.887,1.53,4.33,3.75,2,6
17615.687,-0.254,-0.353,-0.891,2.35,3.27,4.09,2,6
17615.703,-0.251,-0.335,-0.894,1.86,1.5,3.42,2,6
17615.718,-0.249,-0.319,-0.897,-0.27,-0.58,2.14,2,6
17615.718,-0.244,-0.326,-0.896,-2.11,-2.32,2.14,2,6
17615.734,-0.232,-0.338,-0.898,-1.28,-3.2,4.43,2,6
17615.75,-0.226,-0.33,-0.911,1.46,-3.11,7.35,2,6
17615.75,-0.217,-0.343,-0.914,3.57,-2.26,10.07,2,6
17615.765,-0.206,-0.362,-0.923,6.44,-1.1,11.32,2,6
17615.765,-0.207,-0.35,-0.932,7.39,0.06,9.46,2,6
17615.781,-0.215,-0.345,-0.933,4.79,0.46,5.62,2,6
17615.796,-0.209,-0.343,-0.923,1.89,-0.06,1.46,2,6
17615.812,-0.21,-0.334,-0.914,-0.21,-1.13,-2.11,2,6
17615.812,-0.212,-0.322,-0.912,-1.68,-2.81,-3.72,2,6
17615.828,-0.206,-0.321,-0.903,-2.11,-4.12,-2.96,2,6
17615.828,-0.21,-0.338,-0.903,0.52,-4.3,-1.07,2,6
17615.843,-0.215,-0.328,-0.918,4.52,-3.91,1.25,2,6
17615.859,-0.225,-0.293,-0.941,7.08,-3.23,3.45,2,6
17615.859,-0.206,-0.295,-0.954,7.42,-2.59,7.29,2,6
17615.875,-0.179,-0.328,-0.951,6.41,-1.16,10.41,2,6
17615.875,-0.184,-0.335,-0.955,7.66,0.79,11.54,2,6
17615.89,-0.181,-0.323,-0.956,9.13,2.93,13.31,2,6
17615.906,-0.187,-0.327,-0.945,9.43,5.77,15.26,2,6
17615.906,-0.202,-0.342,-0.931,10.32,8.0,17.06,2,6
17615.921,-0.199,-0.342,-0.912,12.05,9.31,18.74,2,6
17615.937,-0.203,-0.332,-0.898,13.52,9.74,19.53,2,6
17615.937,-0.204,-0.331,-0.892,13.28,8.42,19.96,2,6
17615.953,-0.191,-0.345,-0.888,11.93,5.49,18.92,2,6
17615.968,-0.183,-0.35,-0.893,9.55,2.04,15.66,2,6
17615.968,-0.178,-0.362,-0.901,5.55,-1.59,10.1,2,6
17615.984,-0.18,-0.368,-0.907,1.25,-4.67,3.05,2,6
17615.984,-0.194,-0.383,-0.905,-3.14,-6.59,-3.11,2,6
17616.0,-0.204,-0.389,-0.905,-4.97,-7.6,-7.14,2,6
17616.015,-0.208,-0.369,-0.912,-3.42,-7.54,-9.09,2,6
17616.015,-0.214,-0.339,-0.917,-2.08,-6.78,-9.64,2,6
17616.031,-0.218,-0.31,-0.921,-2.69,-7.02,-9.86,2,6
17616.046,-0.215,-0.299,-0.926,-4.55,-8.21,-9.74,2,6
17616.062,-0.208,-0.301,-0.928,-5.77,-9.13,-8.12,2,6
17616.062,-0.204,-0.307,-0.938,-5.04,-8.67,-5.22,2,6
17616.078,-0.201,-0.317,-0.936,-2.99,-7.11,-1.28,2,6
17616.078,-0.202,-0.327,-0.936,-0.06,-5.16,3.36,2,6
17616.093,-0.209,-0.335,-0.936,2.93,-3.11,7.48,2,6
17616.109,-0.208,-0.332,-0.937,4.61,-1.65,10.16,2,6
17616.109,-0.208,-0.33,-0.94,4.3,-0.92,11.17,2,6
17616.125,-0.207,-0.332,-0.94,3.69,-0.55,11.47,2,6
17616.125,-0.205,-0.33,-0.938,3.2,0.0,11.32,2,6
17616.14,-0.208,-0.325,-0.939,2.59,0.37,10.44,2,6
17616.156,-0.208,-0.322,-0.932,2.04,0.95,9.95,2,6
17616.156,-0.213,-0.336,-0.917,1.92,1.28,8.51,2,6
17616.171,-0.217,-0.349,-0.913,0.95,0.06,6.41,2,6
17616.187,-0.221,-0.355,-0.911,-0.15,-0.95,4.33,2,6
17616.203,-0.211,-0.355,-0.908,-1.28,-2.04,2.26,2,6
17616.203,-0.211,-0.355,-0.901,-2.62,-3.11,0.18,2,6
17616.218,-0.214,-0.349,-0.897,-2.87,-3.91,-1.46,2,6
17616.218,-0.218,-0.335,-0.905,-2.66,-4.39,-2.14,2,6
17616.234,-0.224,-0.327,-0.909,-2.26,-4.55,-2.11,2,6
17616.234,-0.225,-0.325,-0.92,-2.53,-5.16,-1.46,2,6
17616.25,-0.217,-0.321,-0.934,-2.41,-5.52,-0.55,2,6
17616.265,-0.214,-0.316,-0.942,-1.92,-4.09,0.82,2,6
17616.265,-0.209,-0.326,-0.942,-1.1,-2.04,2.75,2,6
17616.281,-0.207,-0.34,-0.935,0.06,-0.27,4.33,2,6
17616.296,-0.214,-0.342,-0.928,1.98,0.92,5.77,2,6
17616.296,-0.218,-0.328,-0.93,2.78,1.46,6.32,2,6
17616.312,-0.22,-0.328,-0.924,1.65,1.53,5.65,2,6
17616.328,-0.22,-0.327,-0.918,0.27,0.82,4.27,2,6
17616.328,-0.221,-0.316,-0.916,-0.82,-0.06,2.66,2,6
17616.343,-0.226,-0.308,-0.916,-1.89,-0.95,1.37,2,6
17616.359,-0.227,-0.324,-0.91,-2.53,-1.16,1.31,2,6
17616.359,-0.235,-0.34,-0.907,-1.01,-0.58,2.9,2,6
17616.375,-0.244,-0.341,-0.908,2.08,0.21,5.28,2,6
17616.375,-0.249,-0.338,-0.915,4.88,1.04,8.33,2,6
17616.39,-0.247,-0.335,-0.921,6.65,2.11,11.51,2,6
17616.406,-0.24,-0.329,-0.925,7.81,3.11,14.19,2,6
17616.421,-0.227,-0.317,-0.926,8.94,3.51,15.9,2,6
17616.421,-0.221,-0.3,-0.93,8.97,4.15,16.48,2,6
17616.437,-0.225,-0.305,-0.928,7.78,4.43,16.75,2,6
17616.437,-0.226,-0.316,-0.919,5.8,3.91,16.33,2,6
17616.453,-0.225,-0.327,-0.917,4.52,2.99,14.8,2,6
17616.468,-0.224,-0.333,-0.918,3.27,2.11,12.79,2,6
17616.484,-0.222,-0.349,-0.909,1.34,1.53,11.32,2,6
17616.484,-0.22,-0.371,-0.894,0.7,0.95,9.89,2,6
17616.484,-0.222,-0.376,-0.89,1.22,0.0,7.66,2,6
17616.5,-0.225,-0.363,-0.886,0.73,-1.37,4.97,2,6
17616.515,-0.232,-0.364,-0.887,-0.79,-3.11,1.83,2,6
17616.515,-0.232,-0.36,-0.897,-2.23,-5.28,-1.4,2,6
17616.531,-0.222,-0.345,-0.909,-3.2,-6.47,-4.09,2,6
17616.546,-0.223,-0.341,-0.922,-4.21,-6.44,-6.41,2,6
17616.546,-0.219,-0.338,-0.926,-5.58,-6.1,-7.81,2,6
17616.562,-0.216,-0.336,-0.929,-5.01,-5.19,-8.06,2,6
17616.578,-0.221,-0.328,-0.939,-3.27,-3.54,-7.6,2,6
17616.578,-0.224,-0.316,-0.94,-2.9,-1.92,-6.78,2,6
17616.593,-0.233,-0.325,-0.922,-3.63,-0.7,-5.55,2,6
17616.609,-0.244,-0.336,-0.909,-2.75,0.09,-3.27,2,6
17616.609,-0.248,-0.322,-0.905,-0.49,0.24,-1.01,2,6
17616.625,-0.248,-0.314,-0.905,0.09,-0.61,0.79,2,6
17616.625,-0.241,-0.318,-0.904,-0.64,-2.01,2.01,2,6
17616.64,-0.236,-0.324,-0.909,-1.1,-3.33,2.5,2,6
17616.656,-0.235,-0.324,-0.918,-1.77,-4.12,2.62,2,6
17616.656,-0.233,-0.328,-0.925,-2.53,-4.24,3.23,2,6
17616.671,-0.237,-0.331,-0.924,-2.35,-3.48,3.57,2,6
17616.687,-0.246,-0.348,-0.917,-1.22,-2.29,4.52,2,6
17616.703,-0.25,-0.363,-0.909,1.31,-0.7,7.11,2,6
17616.703,-0.247,-0.353,-0.907,4.33,0.15,8.85,2,6
17616.718,-0.248,-0.334,-0.906,5.16,0.09,8.61,2,6
17616.718,-0.242,-0.324,-0.91,3.11,-1.22,6.87,2,6
17616.734,-0.239,-0.322,-0.913,0.15,-2.93,4.46,2,6
17616.734,-0.235,-0.323,-0.917,-1.89,-3.88,2.08,2,6
17616.75,-0.235,-0.33,-0.912,-3.85,-4.06,-0.03,2,6
17616.765,-0.245,-0.339,-0.902,-4.43,-4.0,-0.95,2,6
