timestamp,ax,ay,az,gx,gy,gz,orient_label,motion_label
17659.625,-0.351,-0.385,-0.846,-2.41,-3.45,-5.01,2,6
17659.625,-0.349,-0.38,-0.841,-2.87,-3.6,-3.85,2,6
17659.64,-0.351,-0.386,-0.837,-2.66,-3.63,-1.8,2,6
17659.64,-0.35,-0.381,-0.841,-1.22,-3.57,0.7,2,6
17659.656,-0.348,-0.381,-0.845,0.06,-3.2,2.87,2,6
17659.656,-0.346,-0.39,-0.848,0.76,-2.9,3.91,2,6
17659.671,-0.344,-0.402,-0.851,1.13,-2.99,4.24,2,6
17659.687,-0.345,-0.404,-0.857,0.79,-3.2,3.48,2,6
17659.687,-0.346,-0.417,-0.854,-0.12,-3.42,2.32,2,6
17659.703,-0.344,-0.419,-0.855,-0.76,-3.66,0.89,2,6
17659.718,-0.34,-0.418,-0.859,-0.98,-3.66,-0.82,2,6
17659.718,-0.337,-0.417,-0.861,-1.25,-3.27,-2.23,2,6
17659.734,-0.334,-0.408,-0.857,-1.56,-2.62,-3.27,2,6
17659.75,-0.337,-0.399,-0.854,-1.86,-1.95,-4.67,2,6
17659.75,-0.337,-0.396,-0.85,-2.11,-1.5,-5.92,2,6
17659.765,-0.341,-0.393,-0.843,-2.14,-1.4,-6.16,2,6
17659.765,-0.34,-0.395,-0.837,-2.08,-1.83,-5.4,2,6
17659.781,-0.34,-0.39,-0.842,-1.56,-2.35,-4.52,2,6
17659.796,-0.339,-0.393,-0.845,-1.16,-2.72,-3.3,2,6
17659.796,-0.338,-0.403,-0.851,-0.37,-2.87,-1.65,2,6
17659.812,-0.334,-0.405,-0.861,0.55,-2.38,-0.46,2,6
17659.828,-0.336,-0.399,-0.858,0.76,-1.77,-0.64,2,6
17659.843,-0.341,-0.397,-0.855,0.31,-1.5,-1.56,2,6
17659.843,-0.342,-0.399,-0.854,-0.52,-1.86,-2.38,2,6
17659.859,-0.339,-0.393,-0.856,-1.19,-2.56,-2.5,2,6
17659.859,-0.335,-0.398,-0.854,-1.56,-2.75,-1.83,2,6
17659.875,-0.332,-0.404,-0.849,-1.01,-2.59,-0.82,2,6
17659.89,-0.332,-0.398,-0.852,0.0,-2.41,0.12,2,6
17659.89,-0.342,-0.39,-0.855,-0.34,-2.2,0.7,2,6
17659.906,-0.343,-0.385,-0.856,-1.1,-2.2,1.22,2,6
17659.921,-0.344,-0.391,-0.85,-2.29,-2.38,1.19,2,6
17659.921,-0.347,-0.405,-0.845,-2.35,-2.93,1.95,2,6
17659.937,-0.344,-0.397,-0.849,-0.61,-3.48,3.75,2,6
17659.937,-0.339,-0.391,-0.856,0.43,-3.45,5.1,2,6
17659.953,-0.337,-0.401,-0.848,0.27,-3.51,5.86,2,6
17659.968,-0.339,-0.404,-0.84,0.7,-4.06,6.13,2,6
17659.968,-0.343,-0.399,-0.838,1.16,-4.61,6.07,2,6
17659.984,-0.351,-0.398,-0.824,0.92,-5.58,6.04,2,6
17660.0,-0.357,-0.393,-0.817,0.7,-7.08,6.47,2,6
17660.0,-0.367,-0.387,-0.811,0.67,-9.28,7.42,2,6
17660.015,-0.374,-0.379,-0.802,0.64,-11.93,9.43,2,6
17660.031,-0.388,-0.364,-0.781,0.92,-15.63,11.99,2,6
17660.031,-0.402,-0.36,-0.763,1.16,-20.97,14.56,2,6
17660.046,-0.416,-0.354,-0.748,2.32,-27.59,18.28,2,6
17660.046,-0.434,-0.338,-0.72,3.85,-34.88,23.26,2,6
17660.062,-0.456,-0.327,-0.695,6.29,-43.4,29.21,2,6
17660.078,-0.478,-0.322,-0.666,9.22,-53.93,35.19,2,6
17660.078,-0.501,-0.326,-0.64,13.15,-66.5,39.8,2,6
17660.093,-0.522,-0.326,-0.632,18.43,-80.63,42.21,2,6
17660.109,-0.546,-0.321,-0.639,21.24,-96.13,43.43,2,6
17660.109,-0.558,-0.344,-0.666,20.69,-111.64,43.92,2,6
17660.125,-0.593,-0.361,-0.704,15.87,-125.71,43.37,2,6
17660.14,-0.672,-0.291,-0.674,5.49,-137.82,45.99,2,6
17660.14,-0.633,-0.279,-0.702,4.67,-146.03,55.33,2,6
17660.156,-0.65,-0.307,-0.747,5.34,-149.08,55.42,2,6
17660.171,-0.696,-0.238,-0.69,-2.23,-150.88,53.35,2,6
17660.171,-0.718,-0.224,-0.648,-0.58,-154.82,53.25,2,6
17660.187,-0.751,-0.203,-0.614,3.11,-162.05,50.94,2,6
17660.187,-0.797,-0.159,-0.575,4.06,-173.04,48.52,2,6
17660.203,-0.841,-0.136,-0.54,3.11,-187.51,47.79,2,6
17660.218,-0.904,-0.129,-0.523,0.24,-203.44,48.34,2,6
17660.218,-0.962,-0.105,-0.527,-4.76,-219.49,50.6,2,6
17660.234,-1.016,-0.076,-0.541,-12.57,-233.59,55.76,2,6
17660.25,-1.048,-0.048,-0.543,-23.44,-245.49,62.72,2,6
17660.25,-1.071,-0.028,-0.529,-33.66,-255.01,68.27,2,6
17660.265,-1.093,-0.032,-0.512,-39.25,-261.27,71.9,2,6
17660.281,-1.118,-0.046,-0.49,-41.05,-265.51,74.83,2,6
17660.296,-1.159,-0.049,-0.439,-36.1,-267.86,82.09,2,6
17660.296,-1.177,-0.044,-0.427,-30.7,-265.21,89.02,2,6
17660.312,-1.196,-0.037,-0.416,-25.91,-259.19,98.09,2,6
17660.328,-1.2,-0.034,-0.394,-21.73,-250.74,107.39,2,6
17660.328,-1.191,-0.034,-0.37,-17.43,-240.15,116.31,2,6
17660.343,-1.174,-0.03,-0.339,-12.54,-227.55,124.39,2,6
17660.359,-1.147,-0.025,-0.301,-6.44,-214.61,131.53,2,6
17660.359,-1.131,-0.029,-0.274,3.36,-202.64,137.55,2,6
17660.375,-1.127,-0.035,-0.251,17.0,-191.08,144.2,2,6
17660.39,-1.105,-0.024,-0.226,31.16,-178.72,151.13,2,6
17660.39,-1.069,-0.018,-0.198,44.86,-165.11,156.25,2,6
17660.406,-1.039,-0.013,-0.17,58.05,-150.3,158.51,2,6
17660.406,-1.011,-0.007,-0.144,68.82,-133.43,158.21,2,6
17660.421,-0.993,0.009,-0.12,76.57,-116.25,155.55,2,6
17660.437,-0.984,0.02,-0.097,84.51,-91.62,149.14,2,6
17660.453,-0.976,0.044,-0.071,85.09,-85.24,147.28,2,6
17660.453,-0.968,0.075,-0.054,83.41,-81.76,146.28,2,6
17660.468,-0.958,0.13,-0.03,79.59,-79.56,146.37,2,6
17660.484,-0.95,0.169,-0.011,73.73,-77.21,147.31,2,6
17660.484,-0.94,0.202,0.002,65.98,-74.71,148.01,2,6
17660.5,-0.93,0.236,0.016,55.6,-70.96,147.65,2,6
17660.5,-0.92,0.264,0.023,43.43,-66.19,146.03,2,6
17660.515,-0.906,0.264,0.031,31.01,-61.1,142.4,2,6
17660.531,-0.903,0.269,0.063,21.76,-56.64,136.6,2,6
17660.531,-0.927,0.293,0.095,17.85,-54.48,133.12,2,6
17660.546,-0.961,0.318,0.096,17.06,-54.57,134.19,2,6
17660.546,-0.973,0.337,0.104,16.82,-55.3,137.12,2,6
17660.562,-0.982,0.371,0.128,18.04,-56.12,140.11,2,6
17660.578,-0.973,0.376,0.124,20.08,-56.73,144.32,2,6
17660.578,-0.944,0.385,0.125,20.17,-55.36,146.82,2,6
17660.593,-0.92,0.415,0.14,18.56,-52.28,145.3,2,6
17660.609,-0.906,0.433,0.148,16.02,-50.29,140.51,2,6
17660.625,-0.887,0.441,0.187,10.28,-50.51,131.78,2,6
17660.64,-0.889,0.472,0.206,9.74,-51.39,130.77,2,6
17660.64,-0.883,0.507,0.214,10.07,-51.79,130.34,2,6
17660.656,-0.859,0.518,0.218,10.47,-52.0,129.76,2,6
17660.671,-0.825,0.526,0.222,10.16,-51.27,128.85,2,6
17660.671,-0.791,0.527,0.229,8.91,-50.33,127.51,2,6
17660.687,-0.755,0.525,0.241,6.13,-49.75,124.94,2,6
17660.687,-0.748,0.563,0.264,2.5,-49.81,120.46,2,6
17660.703,-0.755,0.589,0.279,-0.67,-52.0,116.34,2,6
17660.718,-0.75,0.591,0.29,-4.36,-55.97,114.96,2,6
17660.734,-0.73,0.582,0.298,-8.06,-59.66,115.3,2,6
17660.734,-0.706,0.575,0.303,-11.11,-62.93,114.54,2,6
17660.75,-0.667,0.558,0.297,-15.2,-67.69,111.97,2,6
17660.75,-0.62,0.554,0.292,-20.75,-71.57,106.78,2,6
17660.765,-0.6,0.566,0.286,-26.12,-73.09,99.67,2,6
17660.781,-0.591,0.569,0.292,-30.49,-73.06,93.57,2,6
17660.796,-0.547,0.57,0.317,-32.84,-66.32,88.17,2,6
17660.812,-0.544,0.612,0.341,-31.46,-60.98,84.63,2,6
17660.812,-0.542,0.636,0.351,-29.76,-58.57,80.94,2,6
17660.828,-0.524,0.657,0.348,-30.64,-58.23,79.29,2,6
17660.828,-0.491,0.675,0.344,-34.49,-58.32,78.89,2,6
17660.843,-0.473,0.7,0.348,-39.95,-58.44,78.04,2,6
17660.859,-0.472,0.712,0.347,-46.6,-59.18,77.61,2,6
17660.859,-0.462,0.7,0.353,-54.75,-59.72,77.7,2,6
17660.875,-0.431,0.676,0.36,-60.98,-58.14,77.33,2,6
17660.89,-0.409,0.67,0.369,-64.55,-53.22,76.48,2,6
17660.89,-0.403,0.673,0.372,-66.32,-45.87,75.08,2,6
17660.906,-0.41,0.699,0.374,-69.09,-38.18,73.89,2,6
17660.921,-0.425,0.749,0.374,-75.62,-31.25,74.37,2,6
17660.921,-0.442,0.814,0.378,-89.57,-26.98,77.61,2,6
17660.937,-0.455,0.857,0.39,-111.64,-25.82,83.01,2,6
17660.937,-0.459,0.862,0.425,-137.21,-24.69,90.27,2,6
17660.953,-0.465,0.837,0.449,-161.6,-24.57,97.6,2,6
17660.968,-0.446,0.759,0.475,-182.04,-27.07,103.98,2,6
17660.968,-0.403,0.661,0.511,-193.52,-29.33,106.63,2,6
17660.984,-0.355,0.576,0.553,-193.49,-29.79,104.53,2,6
17661.0,-0.302,0.491,0.594,-181.89,-28.26,98.36,2,6
17661.0,-0.261,0.42,0.638,-159.67,-24.78,88.69,2,6
17661.015,-0.223,0.388,0.681,-129.22,-19.14,77.39,2,6
17661.031,-0.203,0.4,0.716,-95.25,-12.42,64.58,2,6
17661.031,-0.196,0.418,0.743,-62.35,-7.57,50.48,2,6
17661.046,-0.193,0.459,0.768,-33.88,-5.34,36.16,2,6
17661.046,-0.194,0.51,0.774,-10.83,-6.01,23.13,2,6
17661.062,-0.198,0.563,0.769,5.19,-9.19,12.36,2,6
17661.078,-0.194,0.609,0.761,14.68,-14.22,4.79,2,6
17661.078,-0.175,0.644,0.742,19.17,-19.5,0.12,2,6
17661.093,-0.156,0.669,0.726,20.36,-23.32,-2.69,2,6
17661.109,-0.139,0.673,0.714,20.66,-24.69,-3.85,2,6
17661.125,-0.118,0.703,0.699,16.82,-17.67,-4.24,2,6
17661.125,-0.118,0.708,0.71,11.75,-12.6,-5.46,2,6
17661.14,-0.131,0.711,0.74,7.63,-8.24,-7.02,2,6
17661.156,-0.143,0.726,0.77,6.1,-5.65,-7.81,2,6
17661.156,-0.154,0.743,0.79,6.68,-5.1,-8.3,2,6
17661.171,-0.162,0.754,0.806,8.0,-6.81,-8.61,2,6
17661.187,-0.16,0.754,0.817,9.34,-10.56,-8.33,2,6
17661.187,-0.153,0.75,0.821,11.78,-15.14,-7.84,2,6
17661.203,-0.141,0.737,0.809,15.41,-19.78,-7.14,2,6
17661.218,-0.122,0.724,0.785,18.89,-23.62,-5.8,2,6
17661.218,-0.102,0.72,0.76,21.0,-26.22,-4.55,2,6
17661.234,-0.084,0.73,0.733,20.78,-27.92,-3.57,2,6
17661.25,-0.071,0.747,0.711,17.09,-28.93,-2.47,2,6
17661.25,-0.064,0.752,0.695,10.59,-30.3,-1.13,2,6
17661.265,-0.06,0.756,0.693,3.72,-31.68,0.95,2,6
17661.281,-0.057,0.753,0.688,-1.31,-32.59,3.69,2,6
17661.296,-0.049,0.725,0.689,-4.21,-32.35,10.71,2,6
17661.296,-0.037,0.709,0.672,-2.47,-31.07,14.19,2,6
17661.312,-0.03,0.705,0.657,-1.31,-28.5,16.39,2,6
17661.328,-0.036,0.71,0.652,-2.26,-26.37,17.3,2,6
17661.343,-0.045,0.725,0.647,-5.19,-25.45,18.25,2,6
17661.343,-0.054,0.743,0.639,-10.86,-25.73,20.02,2,6
17661.359,-0.063,0.756,0.633,-19.14,-27.07,22.92,2,6
17661.359,-0.067,0.768,0.629,-28.69,-29.11,27.19,2,6
17661.375,-0.064,0.768,0.619,-38.97,-31.16,32.87,2,6
17661.39,-0.056,0.762,0.615,-50.42,-32.62,38.7,2,6
17661.39,-0.049,0.755,0.621,-62.5,-33.78,43.49,2,6
17661.406,-0.042,0.724,0.619,-70.65,-33.39,47.33,2,6
17661.421,-0.037,0.704,0.619,-80.51,-27.83,51.21,2,6
17661.421,-0.032,0.688,0.646,-83.22,-25.64,50.39,2,6
17661.437,-0.031,0.671,0.683,-82.09,-23.41,48.65,2,6
17661.437,-0.038,0.637,0.706,-78.16,-21.73,46.45,2,6
17661.468,-0.02,0.535,0.743,-63.81,-19.35,36.23,2,6
17661.468,-0.011,0.513,0.744,-55.85,-17.98,27.99,2,6
17661.484,-0.009,0.498,0.743,-47.24,-15.66,19.07,2,6
17661.5,0.002,0.492,0.744,-38.82,-11.51,10.77,2,6
17661.5,0.0,0.505,0.745,-31.53,-4.73,2.56,2,6
17661.515,-0.028,0.506,0.762,-24.69,2.35,-3.08,2,6
17661.531,-0.052,0.512,0.785,-17.43,7.84,-4.76,2,6
17661.531,-0.068,0.527,0.801,-11.35,11.26,-4.76,2,6
17661.546,-0.089,0.543,0.821,-7.84,12.12,-4.3,2,6
17661.546,-0.114,0.551,0.829,-7.72,9.4,-4.18,2,6
17661.562,-0.114,0.541,0.822,-10.96,3.57,-3.78,2,6
17661.578,-0.095,0.527,0.805,-15.59,-2.38,-3.45,2,6
17661.578,-0.063,0.522,0.788,-19.96,-5.49,-4.52,2,6
17661.593,-0.043,0.519,0.787,-23.87,-4.06,-7.54,2,6
17661.609,-0.054,0.513,0.811,-24.99,0.03,-10.83,2,6
17661.609,-0.081,0.505,0.847,-22.06,3.45,-11.75,2,6
17661.64,-0.099,0.495,0.875,-10.32,3.94,-9.34,2,6
17661.64,-0.093,0.499,0.872,-6.2,1.83,-10.65,2,6
17661.656,-0.094,0.497,0.866,-3.39,-0.76,-14.4,2,6
17661.656,-0.092,0.494,0.845,-1.56,-3.05,-18.19,2,6
17661.671,-0.079,0.503,0.819,-1.01,-3.57,-21.21,2,6
17661.687,-0.068,0.514,0.796,-0.82,-1.04,-23.77,2,6
17661.687,-0.069,0.512,0.786,-1.65,4.18,-26.55,2,6
17661.703,-0.088,0.517,0.807,-4.0,9.8,-29.66,2,6
17661.718,-0.123,0.518,0.826,-5.8,13.28,-31.95,2,6
17661.718,-0.151,0.512,0.848,-7.39,13.46,-32.59,2,6
17661.734,-0.166,0.513,0.87,-7.57,10.59,-31.53,2,6
17661.75,-0.163,0.513,0.877,-5.8,5.98,-29.3,2,6
17661.75,-0.156,0.514,0.869,-3.72,1.65,-26.55,2,6
17661.765,-0.144,0.508,0.85,-2.41,-1.25,-24.45,2,6
17661.781,-0.123,0.507,0.834,-3.23,-2.38,-23.93,2,6
17661.781,-0.113,0.506,0.83,-5.95,-2.38,-25.21,2,6
17661.796,-0.113,0.497,0.836,-8.58,-2.08,-26.73,2,6
17661.796,-0.113,0.494,0.839,-9.55,-1.19,-27.56,2,6
17661.812,-0.113,0.492,0.838,-9.25,0.34,-27.62,2,6
17661.828,-0.104,0.49,0.833,-8.12,1.77,-27.65,2,6
17661.828,-0.097,0.49,0.825,-6.87,3.51,-28.5,2,6
17661.843,-0.101,0.483,0.819,-5.83,5.49,-29.79,2,6
17661.859,-0.116,0.481,0.829,-5.1,7.14,-29.57,2,6
17661.859,-0.14,0.518,0.855,-2.35,7.81,-26.46,2,6
17661.875,-0.165,0.56,0.874,1.83,6.41,-20.05,2,6
17661.89,-0.187,0.602,0.9,2.41,1.95,-12.05,2,6
17661.89,-0.16,0.624,0.909,-0.49,-4.55,-3.63,2,6
17661.906,-0.124,0.601,0.885,-3.91,-9.83,1.46,2,6
17661.906,-0.109,0.581,0.869,-8.09,-12.18,2.84,2,6
17661.921,-0.1,0.568,0.866,-8.39,-11.84,3.42,2,6
17661.937,-0.108,0.549,0.864,-4.91,-10.74,3.51,2,6
17661.953,-0.123,0.541,0.867,-1.74,-11.78,3.23,2,6
17661.953,-0.113,0.531,0.844,0.46,-15.29,2.5,2,6
17661.968,-0.077,0.506,0.822,-1.83,-18.22,0.0,2,6
17661.968,-0.06,0.485,0.829,-10.8,-19.65,-5.92,2,6
17661.984,-0.062,0.468,0.852,-19.38,-20.33,-11.26,2,6
17662.0,-0.059,0.457,0.863,-20.05,-19.29,-12.82,2,6
17662.0,-0.048,0.457,0.852,-14.34,-16.54,-11.38,2,6
17662.015,-0.05,0.471,0.861,-8.79,-12.82,-10.22,2,6
17662.031,-0.062,0.486,0.868,-4.21,-10.5,-10.35,2,6
17662.031,-0.062,0.503,0.861,-1.07,-9.46,-10.38,2,6
17662.046,-0.066,0.516,0.854,0.06,-8.42,-10.13,2,6
17662.046,-0.074,0.526,0.851,-0.37,-7.72,-9.34,2,6
17662.062,-0.071,0.532,0.854,-1.62,-7.45,-8.15,2,6
17662.078,-0.081,0.528,0.861,-1.83,-6.96,-6.23,2,6
17662.078,-0.09,0.521,0.862,-1.8,-7.02,-4.15,2,6
17662.093,-0.081,0.517,0.868,-3.75,-8.24,-3.2,2,6
17662.109,-0.08,0.505,0.872,-7.32,-10.71,-4.7,2,6
17662.109,-0.067,0.48,0.873,-11.17,-14.07,-7.29,2,6
17662.125,-0.058,0.469,0.875,-13.03,-16.14,-9.98,2,6
17662.14,-0.049,0.461,0.873,-10.96,-16.72,-11.14,2,6
17662.14,-0.036,0.463,0.866,-5.98,-15.32,-10.9,2,6
17662.156,-0.027,0.464,0.844,0.31,-12.33,-10.68,2,6
17662.171,-0.035,0.508,0.854,2.84,-7.72,-10.32,2,6
17662.171,-0.038,0.494,0.853,10.04,-3.2,-7.63,2,6
17662.187,-0.049,0.506,0.828,16.36,0.37,-4.73,2,6
17662.187,-0.064,0.55,0.833,17.15,3.2,-1.77,2,6
17662.203,-0.086,0.557,0.839,17.49,3.63,1.16,2,6
17662.218,-0.091,0.566,0.844,14.19,1.43,3.6,2,6
17662.218,-0.081,0.573,0.841,8.39,-2.17,5.01,2,6
17662.234,-0.067,0.561,0.833,2.96,-5.4,5.55,2,6
17662.25,-0.056,0.546,0.825,-0.37,-6.59,6.2,2,6
17662.25,-0.049,0.53,0.822,-1.1,-6.2,6.2,2,6
17662.265,-0.046,0.516,0.824,-1.62,-5.37,5.49,2,6
17662.281,-0.042,0.514,0.843,-4.21,-5.19,2.99,2,6
17662.281,-0.05,0.503,0.834,-0.61,-3.81,2.38,2,6
17662.296,-0.047,0.507,0.824,3.05,-1.62,3.17,2,6
17662.296,-0.053,0.52,0.833,3.81,0.31,2.78,2,6
17662.312,-0.06,0.519,0.832,4.24,1.74,2.38,2,6
17662.328,-0.058,0.523,0.828,3.45,2.47,2.2,2,6
17662.328,-0.057,0.523,0.829,1.86,3.08,2.32,2,6
17662.343,-0.059,0.522,0.831,0.21,3.78,2.72,2,6
17662.359,-0.06,0.52,0.839,-2.17,3.94,2.99,2,6
17662.375,-0.063,0.518,0.852,-4.12,2.96,2.9,2,6
17662.375,-0.065,0.512,0.862,-3.97,1.4,2.81,2,6
17662.39,-0.063,0.511,0.864,-2.56,-0.18,3.36,2,6
17662.39,-0.06,0.509,0.865,-0.73,-1.25,3.69,2,6
17662.406,-0.061,0.508,0.861,1.43,-2.2,3.45,2,6
17662.406,-0.055,0.507,0.853,1.74,-2.29,3.36,2,6
17662.421,-0.051,0.501,0.842,1.65,-1.68,2.96,2,6
17662.437,-0.046,0.495,0.836,1.37,-0.98,2.56,2,6
17662.437,-0.047,0.498,0.834,1.28,-0.27,1.92,2,6
17662.453,-0.048,0.501,0.841,1.25,0.58,1.07,2,6
17662.468,-0.054,0.504,0.846,1.4,1.16,0.43,2,6
17662.484,-0.061,0.518,0.859,3.3,1.34,0.15,2,6
17662.5,-0.064,0.519,0.859,4.21,0.4,0.43,2,6
17662.5,-0.061,0.522,0.856,4.64,-1.16,0.73,2,6
17662.515,-0.059,0.522,0.848,4.7,-2.5,0.52,2,6
17662.515,-0.056,0.523,0.834,4.46,-3.66,0.49,2,6
17662.531,-0.053,0.527,0.824,3.6,-4.24,0.4,2,6
17662.546,-0.054,0.528,0.818,2.29,-4.3,0.27,2,6
17662.546,-0.052,0.525,0.816,1.28,-4.12,0.55,2,6
17662.562,-0.049,0.522,0.813,0.15,-4.06,1.04,2,6
17662.578,-0.045,0.515,0.815,-0.89,-3.81,1.16,2,6
17662.593,-0.047,0.511,0.823,-1.56,-3.2,0.92,2,6
17662.593,-0.052,0.509,0.835,-1.92,-3.08,0.4,2,6
17662.609,-0.05,0.507,0.844,-1.53,-3.45,0.0,2,6
17662.609,-0.054,0.506,0.848,-0.73,-3.63,-0.4,2,6
17662.625,-0.057,0.506,0.853,-0.24,-4.3,-0.98,2,6
17662.64,-0.054,0.509,0.85,0.0,-5.04,-1.77,2,6
17662.656,-0.049,0.519,0.845,0.09,-4.85,-3.69,2,6
17662.671,-0.051,0.529,0.847,-0.21,-3.91,-3.97,2,6
17662.671,-0.049,0.54,0.855,-0.4,-2.84,-3.88,2,6
17662.687,-0.053,0.541,0.864,-0.4,-1.43,-3.42,2,6
17662.687,-0.057,0.538,0.874,-0.43,-0.4,-2.56,2,6
17662.703,-0.057,0.532,0.882,-0.34,-0.15,-1.59,2,6
17662.718,-0.053,0.519,0.881,0.49,-0.15,-1.1,2,6
17662.734,-0.052,0.511,0.878,1.95,-0.37,-1.16,2,6
17662.734,-0.051,0.503,0.87,3.45,-0.61,-1.46,2,6
17662.75,-0.05,0.503,0.861,5.01,-0.52,-1.71,2,6
17662.75,-0.056,0.502,0.854,5.58,-0.52,-1.56,2,6
17662.765,-0.061,0.499,0.854,4.82,-1.43,-0.92,2,6
17662.781,-0.058,0.492,0.846,3.51,-3.45,-0.49,2,6
17662.781,-0.054,0.491,0.844,1.28,-5.86,-0.43,2,6
17662.796,-0.066,0.516,0.818,3.36,-7.05,1.53,2,6
17662.796,-0.046,0.519,0.799,2.72,-8.18,3.57,2,6
17662.828,-0.048,0.481,0.813,-14.25,-13.61,-4.67,2,6
17662.828,-0.02,0.468,0.811,-15.96,-15.11,-5.74,2,6
17662.843,-0.007,0.445,0.791,-15.53,-13.86,-6.71,2,6
17662.859,0.013,0.428,0.744,-15.05,-7.69,-7.2,2,6
17662.875,0.058,0.438,0.683,-21.97,4.12,-9.19,2,6
17662.875,0.054,0.46,0.705,-34.21,23.59,-12.36,2,6
17662.875,-0.039,0.528,0.887,-51.55,35.31,-14.19,2,6
17662.89,-0.006,0.68,1.007,-87.59,32.35,-10.25,2,6
17662.906,-0.06,0.487,1.004,-95.0,26.64,-9.86,2,6
17662.906,-0.055,0.54,1.129,-109.53,13.52,-13.79,2,6
17662.921,0.004,0.466,1.2,-95.07,3.05,-13.67,2,6
17662.937,-0.06,0.413,1.19,-52.19,-4.24,-17.3,2,6
17662.953,-0.128,0.409,1.148,-11.35,-11.02,-10.71,2,6
17662.953,-0.109,0.418,1.1,22.1,-19.96,-1.71,2,6
17662.968,-0.121,0.484,0.992,40.31,-28.23,-2.35,2,6
17662.968,-0.101,0.496,0.854,45.5,-33.08,-5.83,2,6
17663.0,-0.098,0.577,0.782,26.25,-33.85,-3.88,2,6
17663.0,-0.061,0.475,0.721,13.73,-33.2,-0.12,2,6
17663.015,-0.127,0.5,0.776,4.0,-30.55,3.91,2,6
17663.015,-0.056,0.478,0.804,1.25,-31.86,15.87,2,6
17663.031,-0.048,0.415,0.78,2.72,-31.71,20.23,2,6
17663.046,-0.047,0.381,0.786,3.88,-29.91,22.19,2,6
17663.046,-0.009,0.349,0.792,7.84,-29.11,20.94,2,6
17663.062,0.006,0.34,0.789,13.86,-26.89,15.84,2,6
17663.078,0.026,0.346,0.788,16.6,-22.86,10.53,2,6
17663.093,0.037,0.366,0.78,17.33,-17.3,5.07,2,6
17663.093,0.037,0.375,0.765,17.91,-10.53,0.85,2,6
17663.109,0.03,0.382,0.763,15.96,-3.94,-2.72,2,6
17663.109,0.027,0.387,0.756,12.57,1.5,-5.58,2,6
17663.125,0.033,0.382,0.725,8.58,7.23,-8.24,2,6
17663.14,0.049,0.377,0.707,3.3,15.11,-10.99,2,6
17663.14,0.067,0.36,0.69,1.71,26.46,-13.31,2,6
17663.156,0.078,0.317,0.685,11.26,57.95,-18.31,2,6
17663.171,0.061,0.328,0.706,22.25,77.18,-24.26,2,6
17663.187,-0.027,0.382,0.742,31.65,96.68,-32.11,2,6
17663.187,-0.288,0.507,0.946,30.24,102.82,-38.61,2,6
17663.203,-0.572,0.866,1.38,-2.66,71.41,-29.94,2,6
17663.218,-0.439,1.075,1.49,-37.78,12.88,-0.58,2,6
17663.234,-0.193,0.769,1.242,-39.67,-28.11,26.95,2,6
17663.234,-0.026,0.49,0.992,-36.13,-37.63,38.79,2,6
17663.25,0.009,0.412,0.903,-28.02,-26.34,34.55,2,6
17663.25,-0.053,0.318,0.92,-2.56,-13.49,22.64,2,6
17663.265,-0.088,0.276,0.907,25.33,-10.99,9.61,2,6
17663.281,-0.098,0.384,0.875,41.54,-13.95,-2.93,2,6
17663.281,-0.115,0.463,0.866,49.93,-17.98,-10.35,2,6
17663.296,-0.093,0.572,0.847,45.41,-23.44,-9.83,2,6
17663.296,-0.012,0.528,0.763,41.9,-21.58,-4.18,2,6
17663.312,-0.087,0.501,0.746,35.71,-14.71,-1.62,2,6
17663.328,-0.056,0.58,0.786,17.18,-12.12,4.3,2,6
17663.328,-0.05,0.538,0.79,5.74,-11.14,7.23,2,6
17663.343,-0.052,0.501,0.792,-3.85,-9.25,9.0,2,6
17663.359,-0.039,0.489,0.807,-8.7,-7.42,10.83,2,6
17663.359,-0.037,0.475,0.814,-8.21,-5.71,10.8,2,6
17663.375,-0.032,0.458,0.822,-4.58,-3.66,10.16,2,6
17663.39,-0.038,0.454,0.83,6.04,-1.31,6.38,2,6
17663.39,-0.039,0.459,0.839,9.03,-1.28,4.52,2,6
17663.406,-0.032,0.479,0.846,9.52,-0.95,3.08,2,6
17663.406,-0.034,0.497,0.855,6.84,-0.76,2.41,2,6
17663.421,-0.029,0.502,0.852,2.72,-0.92,2.44,2,6
17663.437,-0.023,0.501,0.851,-0.09,-0.7,2.69,2,6
17663.453,-0.016,0.492,0.846,-0.92,-0.03,3.02,2,6
17663.453,-0.016,0.485,0.842,-0.67,1.13,3.08,2,6
17663.468,-0.015,0.478,0.839,0.03,1.95,2.72,2,6
17663.468,-0.006,0.48,0.84,0.7,2.47,1.37,2,6
17663.484,-0.005,0.486,0.838,2.26,3.75,-0.55,2,6
17663.5,-0.031,0.503,0.85,3.97,5.86,-2.26,2,6
17663.515,-0.043,0.513,0.866,4.52,5.43,-1.95,2,6
17663.531,-0.049,0.528,0.881,4.43,4.06,-0.95,2,6
17663.531,-0.057,0.542,0.885,3.05,1.62,0.15,2,6
17663.546,-0.056,0.539,0.881,1.1,-1.71,0.79,2,6
17663.546,-0.041,0.537,0.875,-0.46,-4.61,1.37,2,6
17663.562,-0.034,0.537,0.862,-0.55,-5.37,1.56,2,6
17663.578,-0.031,0.53,0.851,-0.15,-4.88,1.62,2,6
17663.578,-0.03,0.524,0.846,0.0,-3.94,1.71,2,6
17663.593,-0.029,0.519,0.842,0.24,-2.75,1.34,2,6
17663.609,-0.03,0.509,0.834,0.7,-1.4,0.31,2,6
17663.609,-0.037,0.505,0.835,1.28,-0.15,-0.92,2,6
17663.625,-0.043,0.504,0.844,2.26,0.67,-1.77,2,6
17663.64,-0.048,0.508,0.849,3.23,0.64,-1.95,2,6
17663.64,-0.052,0.513,0.854,3.51,0.0,-1.83,2,6
17663.656,-0.052,0.517,0.856,3.02,-0.67,-1.19,2,6
17663.671,-0.056,0.516,0.854,0.64,-1.8,0.27,2,6
17663.687,-0.057,0.514,0.851,-0.61,-2.41,0.4,2,6
17663.687,-0.053,0.506,0.843,-1.04,-3.05,0.43,2,6
17663.703,-0.05,0.496,0.834,-0.67,-2.96,0.09,2,6
17663.718,-0.049,0.499,0.831,0.27,-2.23,-0.67,2,6
17663.718,-0.054,0.502,0.829,1.62,-1.31,-1.68,2,6
17663.734,-0.06,0.51,0.827,2.5,-0.67,-2.59,2,6
17663.75,-0.063,0.518,0.828,2.26,-0.64,-3.17,2,6
17663.75,-0.061,0.523,0.83,1.59,-0.85,-3.6,2,6
17663.765,-0.059,0.528,0.834,0.27,-0.92,-3.57,2,6
17663.765,-0.058,0.534,0.843,-1.53,-0.92,-3.27,2,6
17663.781,-0.057,0.537,0.851,-3.48,-1.1,-2.59,2,6
17663.796,-0.052,0.527,0.854,-5.22,-1.74,-1.68,2,6
17663.796,-0.048,0.516,0.861,-6.1,-2.11,-1.13,2,6
17663.812,-0.048,0.504,0.867,-5.34,-2.23,-0.64,2,6
17663.828,-0.044,0.498,0.869,-3.78,-2.5,-0.27,2,6
17663.843,-0.035,0.496,0.868,-1.74,-3.69,-0.55,2,6
17663.859,-0.026,0.503,0.875,-0.85,-3.75,-0.43,2,6
17663.859,-0.044,0.528,0.857,5.22,-2.41,2.96,2,6
17663.875,-0.025,0.541,0.861,5.1,-1.8,5.98,2,6
17663.89,-0.03,0.527,0.88,-1.89,-3.3,3.88,2,6
17663.89,-0.049,0.51,0.886,-3.75,-4.55,3.57,2,6
17663.906,-0.033,0.503,0.885,-4.58,-7.69,3.91,2,6
17663.906,-0.031,0.49,0.88,-4.09,-10.77,3.51,2,6
17663.921,-0.013,0.48,0.873,-2.78,-12.97,2.9,2,6
17663.937,-0.003,0.47,0.857,-0.82,-14.04,1.43,2,6
17663.937,-0.003,0.463,0.844,0.92,-14.19,-0.31,2,6
17663.953,0.003,0.456,0.832,2.32,-14.22,-2.2,2,6
17663.968,0.007,0.443,0.822,3.17,-13.58,-4.46,2,6
17663.968,0.0,0.431,0.815,3.69,-12.18,-6.81,2,6
17663.984,-0.006,0.424,0.811,5.52,-10.59,-8.7,2,6
17664.0,-0.006,0.422,0.799,8.48,-8.61,-9.4,2,6
17664.015,0.048,0.398,0.72,20.87,1.65,-11.81,2,6
17664.031,0.104,0.379,0.664,25.73,15.9,-18.98,2,6
17664.031,0.149,0.38,0.647,32.75,39.74,-28.81,2,6
17664.046,0.084,0.361,0.617,44.56,68.73,-41.35,2,6
17664.062,-0.193,0.551,0.791,35.65,85.67,-49.53,2,6
17664.062,-0.366,1.156,1.155,-37.57,67.38,-40.53,2,6
17664.078,-0.375,1.257,1.307,-92.5,31.56,-13.49,2,6
17664.078,-0.334,0.888,1.237,-100.83,-2.2,26.31,2,6
17664.093,-0.094,0.584,1.001,-106.08,-23.29,57.41,2,6
17664.109,-0.031,0.345,0.954,-100.04,-23.8,53.04,2,6
17664.109,-0.097,0.094,0.975,-59.18,-18.34,32.53,2,6
17664.125,-0.078,0.075,0.921,-4.12,-16.08,13.64,2,6
17664.14,-0.074,0.204,0.849,41.69,-14.74,-7.54,2,6
17664.14,-0.093,0.346,0.802,67.75,-14.19,-24.11,2,6
17664.156,-0.123,0.493,0.767,73.18,-12.76,-28.96,2,6
17664.156,-0.121,0.662,0.771,60.34,-13.82,-20.39,2,6
17664.187,-0.137,0.577,0.709,29.97,-7.6,8.48,2,6
17664.187,-0.115,0.622,0.729,9.83,-9.03,22.28,2,6
17664.203,-0.076,0.596,0.755,-7.2,-11.14,33.78,2,6
17664.218,-0.064,0.519,0.765,-17.67,-12.21,39.64,2,6
17664.234,-0.058,0.484,0.786,-23.13,-12.05,42.94,2,6
17664.234,-0.035,0.459,0.806,-21.61,-11.23,43.43,2,6
17664.25,-0.016,0.433,0.82,-15.81,-9.03,41.14,2,6
17664.25,-0.002,0.426,0.824,-9.13,-5.28,36.71,2,6
17664.265,0.009,0.419,0.826,-2.84,-0.76,30.43,2,6
17664.281,0.01,0.427,0.837,2.01,3.66,22.89,2,6
17664.281,-0.004,0.437,0.849,5.55,7.11,15.66,2,6
17664.296,-0.011,0.456,0.855,6.5,8.27,9.58,2,6
17664.296,-0.008,0.473,0.85,5.4,8.51,5.04,2,6
17664.312,-0.007,0.481,0.851,3.17,8.24,1.4,2,6
17664.328,-0.012,0.487,0.86,0.98,7.9,-0.92,2,6
17664.328,-0.019,0.493,0.869,-0.73,6.81,-1.98,2,6
17664.359,-0.02,0.5,0.881,-3.23,3.39,-3.75,2,6
17664.359,-0.017,0.499,0.88,-4.91,-0.12,-5.68,2,6
17664.375,-0.02,0.497,0.882,-4.52,-0.79,-6.32,2,6
17664.39,-0.021,0.503,0.885,-3.91,-1.5,-6.68,2,6
17664.39,-0.02,0.502,0.88,-2.59,-1.92,-6.81,2,6
17664.406,-0.026,0.49,0.867,-0.98,-2.17,-7.05,2,6
17664.406,-0.021,0.481,0.86,0.64,-2.53,-7.57,2,6
17664.421,-0.018,0.471,0.849,2.38,-2.59,-8.76,2,6
17664.437,-0.023,0.473,0.841,4.06,-2.17,-10.41,2,6
17664.437,-0.025,0.485,0.842,5.49,-1.83,-11.57,2,6
17664.453,-0.031,0.498,0.848,6.71,-1.89,-12.21,2,6
17664.468,-0.046,0.503,0.849,7.42,-2.66,-12.02,2,6
17664.468,-0.046,0.513,0.85,6.99,-4.24,-10.99,2,6
17664.484,-0.042,0.524,0.846,5.52,-5.55,-9.77,2,6
17664.5,-0.036,0.528,0.842,3.51,-6.44,-8.88,2,6
17664.5,-0.037,0.528,0.842,1.59,-6.87,-8.03,2,6
17664.531,-0.029,0.516,0.83,1.98,-5.4,-5.95,2,6
17664.531,-0.031,0.512,0.833,4.33,-3.81,-5.31,2,6
17664.546,-0.04,0.512,0.847,7.39,-2.72,-4.82,2,6
17664.562,-0.048,0.518,0.853,10.71,-2.41,-4.3,2,6
17664.562,-0.051,0.536,0.859,13.28,-2.29,-3.11,2,6
17664.578,-0.054,0.546,0.859,14.04,-2.5,-1.37,2,6
17664.578,-0.054,0.549,0.856,12.79,-2.78,0.49,2,6
17664.593,-0.052,0.549,0.852,9.43,-3.08,2.04,2,6
17664.609,-0.047,0.545,0.85,4.94,-3.33,2.75,2,6
17664.609,-0.047,0.534,0.851,0.58,-3.54,2.99,2,6
17664.625,-0.042,0.52,0.854,-3.14,-3.81,3.05,2,6
17664.64,-0.034,0.512,0.854,-4.94,-3.48,3.05,2,6
17664.64,-0.027,0.5,0.852,-5.34,-2.32,2.81,2,6
17664.656,-0.025,0.491,0.853,-4.91,-0.34,2.44,2,6
17664.656,-0.025,0.488,0.854,-3.69,1.83,1.98,2,6
17664.671,-0.032,0.487,0.856,-2.38,3.69,1.37,2,6
17664.687,-0.037,0.487,0.858,-1.04,5.74,0.12,2,6
17664.703,-0.048,0.489,0.867,-0.82,6.47,-0.52,2,6
17664.718,-0.064,0.485,0.875,-0.76,5.71,-0.67,2,6
17664.718,-0.064,0.484,0.876,-1.28,3.42,-0.31,2,6
17664.734,-0.056,0.49,0.874,-2.87,1.25,-0.06,2,6
17664.75,-0.05,0.484,0.866,-4.43,0.0,-0.09,2,6
17664.75,-0.047,0.477,0.855,-5.22,-0.67,-0.12,2,6
17664.765,-0.041,0.478,0.854,-5.55,-0.67,0.03,2,6
17664.781,-0.042,0.478,0.854,-5.95,-0.37,-0.49,2,6
17664.781,-0.049,0.474,0.858,-6.2,-0.43,-1.31,2,6
17664.796,-0.051,0.473,0.862,-5.83,-1.16,-1.65,2,6
17664.796,-0.048,0.475,0.856,-5.01,-2.08,-1.8,2,6
17664.812,-0.043,0.478,0.849,-4.06,-2.2,-1.95,2,6
17664.828,-0.043,0.478,0.848,-2.96,-1.65,-2.2,2,6
17664.828,-0.043,0.48,0.843,-2.04,-0.73,-2.47,2,6
17664.843,-0.043,0.483,0.844,-1.46,0.15,-3.11,2,6
17664.859,-0.047,0.483,0.845,-0.58,0.7,-3.63,2,6
17664.859,-0.049,0.487,0.843,0.64,0.82,-4.06,2,6
17664.875,-0.049,0.493,0.844,1.89,0.95,-4.33,2,6
17664.89,-0.052,0.502,0.842,2.32,1.13,-4.58,2,6
17664.89,-0.05,0.507,0.841,1.68,0.76,-4.82,2,6
17664.906,-0.048,0.513,0.845,0.55,0.58,-4.94,2,6
17664.921,-0.052,0.521,0.848,-0.09,0.31,-4.36,2,6
17664.921,-0.053,0.529,0.854,0.09,0.24,-2.96,2,6
17664.937,-0.056,0.537,0.856,0.31,0.03,-1.5,2,6
17664.937,-0.054,0.541,0.858,-0.31,-0.34,-0.34,2,6
17664.953,-0.048,0.537,0.858,-1.01,-0.55,0.18,2,6
17664.968,-0.05,0.527,0.859,-1.04,-0.61,0.31,2,6
17664.968,-0.052,0.525,0.862,-0.58,-0.76,0.18,2,6
17664.984,-0.055,0.523,0.86,0.61,-1.25,-0.12,2,6
17665.0,-0.054,0.52,0.854,1.89,-2.11,-0.21,2,6
17665.0,-0.047,0.519,0.844,2.2,-2.96,-0.73,2,6
17665.015,-0.042,0.516,0.833,2.26,-3.05,-1.43,2,6
17665.015,-0.035,0.516,0.826,2.62,-2.5,-1.77,2,6
17665.031,-0.029,0.52,0.828,2.99,-0.98,-1.86,2,6
17665.046,-0.031,0.528,0.835,3.11,0.98,-1.37,2,6
17665.046,-0.038,0.533,0.846,2.84,2.32,-0.95,2,6
17665.062,-0.045,0.534,0.857,2.14,2.47,-0.64,2,6
17665.078,-0.046,0.53,0.862,1.25,1.5,-0.21,2,6
17665.078,-0.044,0.524,0.863,0.61,0.27,0.0,2,6
17665.093,-0.043,0.52,0.866,0.95,-0.82,0.06,2,6
17665.109,-0.045,0.517,0.868,1.74,-1.86,0.46,2,6
17665.109,-0.048,0.517,0.869,2.11,-2.84,0.92,2,6
17665.125,-0.05,0.521,0.869,1.8,-4.58,1.74,2,6
17665.14,-0.045,0.529,0.861,1.43,-6.23,3.57,2,6
17665.14,-0.029,0.537,0.85,-0.76,-6.78,5.71,2,6
17665.156,-0.024,0.523,0.845,-3.91,-6.53,6.47,2,6
17665.156,-0.028,0.509,0.844,-5.62,-5.31,7.05,2,6
17665.171,-0.025,0.503,0.85,-6.07,-4.21,7.81,2,6
17665.187,-0.031,0.495,0.853,-4.94,-2.99,7.9,2,6
17665.187,-0.039,0.486,0.859,-3.3,-2.53,7.39,2,6
17665.203,-0.04,0.486,0.861,-1.37,-2.84,6.68,2,6
17665.218,-0.04,0.489,0.856,0.09,-3.08,6.16,2,6
17665.234,-0.035,0.49,0.85,0.49,-3.39,5.92,2,6
17665.234,-0.027,0.489,0.841,0.09,-2.99,5.68,2,6
17665.25,-0.023,0.488,0.84,-0.85,-1.68,5.46,2,6
17665.25,-0.025,0.486,0.839,-1.83,0.06,5.13,2,6
17665.265,-0.029,0.485,0.84,-2.35,1.71,4.91,2,6
17665.281,-0.033,0.48,0.839,-2.35,2.9,4.7,2,6
17665.281,-0.033,0.472,0.836,-1.62,3.69,4.27,2,6
17665.296,-0.031,0.467,0.83,-0.43,4.73,3.51,2,6
17665.312,-0.026,0.463,0.82,0.82,6.1,2.2,2,6
17665.312,-0.021,0.456,0.81,2.5,8.09,0.58,2,6
17665.328,-0.017,0.45,0.812,4.58,11.41,-1.56,2,6
17665.328,-0.009,0.437,0.832,8.36,15.66,-4.73,2,6
17665.343,0.02,0.393,0.827,19.32,22.4,-10.28,2,6
17665.359,0.007,0.342,0.779,53.8,43.49,-27.04,2,6
17665.359,-0.113,0.348,0.82,45.2,35.92,-30.95,2,6
17665.375,-0.191,0.609,0.999,42.57,25.12,-26.03,2,6
17665.39,-0.27,0.631,0.966,40.16,13.0,-21.79,2,6
17665.39,-0.128,0.833,0.974,9.8,-5.16,-6.35,2,6
17665.406,-0.021,0.693,0.84,-1.74,-10.93,4.88,2,6
17665.406,-0.075,0.547,0.793,-8.7,-4.94,6.23,2,6
17665.421,-0.065,0.525,0.83,-12.57,-0.09,9.86,2,6
17665.437,-0.083,0.507,0.825,-5.19,1.92,9.46,2,6
17665.437,-0.102,0.479,0.828,0.67,1.8,7.75,2,6
17665.453,-0.102,0.499,0.838,4.33,-0.52,4.46,2,6
17665.468,-0.12,0.514,0.838,8.51,-2.9,1.28,2,6
17665.484,-0.139,0.544,0.848,10.59,-6.44,-0.34,2,6
17665.484,-0.141,0.609,0.854,7.84,-12.21,0.85,2,6
17665.5,-0.025,0.594,0.792,5.31,-13.28,3.14,2,6
17665.5,-0.083,0.516,0.751,7.63,-6.5,1.92,2,6
17665.515,-0.095,0.603,0.795,-1.19,-2.81,3.94,2,6
17665.531,-0.081,0.585,0.813,-5.89,-2.93,6.1,2,6
17665.531,-0.088,0.554,0.816,-11.93,-4.12,6.81,2,6
17665.546,-0.059,0.531,0.811,-13.76,-5.22,10.74,2,6
17665.562,-0.057,0.529,0.811,-13.86,-4.52,11.23,2,6
17665.578,-0.047,0.517,0.81,-12.57,-3.48,11.23,2,6
17665.593,-0.051,0.507,0.81,-11.08,-1.65,10.83,2,6
17665.593,-0.053,0.504,0.817,-9.8,-0.4,10.38,2,6
17665.609,-0.055,0.499,0.827,-7.9,0.49,9.34,2,6
17665.609,-0.053,0.496,0.833,-6.04,0.89,8.15,2,6
17665.625,-0.05,0.493,0.829,-4.49,0.82,6.84,2,6
17665.64,-0.05,0.488,0.824,-3.14,0.64,5.34,2,6
17665.64,-0.047,0.486,0.824,-2.32,0.18,3.57,2,6
17665.656,-0.043,0.493,0.819,-2.5,-0.46,2.17,2,6
17665.656,-0.044,0.495,0.814,-3.17,-0.79,0.85,2,6
17665.671,-0.045,0.489,0.815,-4.0,-0.79,0.0,2,6
17665.687,-0.045,0.493,0.824,-4.82,-0.85,-0.67,2,6
17665.687,-0.044,0.5,0.827,-4.85,-0.58,-1.31,2,6
17665.703,-0.049,0.502,0.83,-4.33,-0.27,-1.77,2,6
17665.718,-0.053,0.513,0.843,-3.69,-0.12,-2.14,2,6
17665.734,-0.055,0.514,0.849,-3.81,-0.61,-2.59,2,6
17665.75,-0.062,0.522,0.858,-3.3,-1.07,-2.56,2,6
17665.75,-0.065,0.527,0.856,-2.32,-2.35,-1.83,2,6
17665.765,-0.058,0.528,0.851,-2.53,-4.18,-0.89,2,6
17665.765,-0.046,0.527,0.842,-3.51,-5.31,-0.09,2,6
17665.781,-0.045,0.521,0.836,-3.97,-5.55,0.43,2,6
17665.796,-0.046,0.506,0.836,-3.78,-5.71,0.7,2,6
17665.812,-0.047,0.499,0.835,-2.32,-6.53,1.13,2,6
17665.812,-0.048,0.5,0.836,0.21,-8.21,1.74,2,6
17665.828,-0.042,0.501,0.826,2.41,-10.44,2.56,2,6
17665.828,-0.034,0.509,0.816,2.81,-12.94,3.14,2,6
17665.843,-0.031,0.519,0.811,1.56,-14.47,3.57,2,6
17665.859,-0.03,0.518,0.808,-0.58,-15.35,4.24,2,6
17665.875,-0.02,0.526,0.811,-2.99,-15.87,5.28,2,6
17665.875,-0.025,0.551,0.843,-5.19,-14.71,5.83,2,6
17665.89,-0.044,0.56,0.891,-6.13,-13.58,7.69,2,6
17665.906,-0.041,0.571,0.903,-5.49,-13.58,8.76,2,6
17665.906,-0.034,0.569,0.913,-4.0,-13.43,8.67,2,6
17665.921,-0.035,0.575,0.93,-2.38,-12.91,7.81,2,6
17665.937,-0.041,0.582,0.944,-0.55,-12.18,6.59,2,6
17665.937,-0.035,0.582,0.951,1.37,-11.54,5.74,2,6
17665.953,-0.029,0.586,0.959,3.57,-10.62,5.16,2,6
17665.968,-0.023,0.589,0.966,6.07,-9.61,4.82,2,6
17665.968,-0.019,0.594,0.971,7.97,-9.09,4.55,2,6
17665.984,-0.01,0.61,0.983,9.03,-8.94,4.12,2,6
17666.0,0.002,0.623,1.006,10.13,-7.78,4.43,2,6
17666.0,0.017,0.635,1.031,11.87,-5.43,5.52,2,6
17666.015,0.038,0.649,1.061,13.92,-1.77,7.17,2,6
17666.031,0.051,0.669,1.107,15.59,3.36,8.51,2,6
17666.031,0.061,0.683,1.156,18.07,9.31,9.61,2,6
17666.046,0.062,0.685,1.191,22.34,15.02,11.2,2,6
17666.062,0.084,0.692,1.239,32.93,23.77,15.26,2,6
17666.078,0.117,0.694,1.235,39.03,32.04,15.08,2,6
17666.093,0.155,0.667,1.179,46.24,46.02,12.33,2,6
17666.093,0.202,0.596,1.087,56.61,67.08,2.84,2,6
17666.109,0.261,0.538,1.012,71.08,97.51,-15.35,2,6
17666.109,0.354,0.5,0.892,88.14,140.17,-37.45,2,6
17666.125,0.337,0.479,0.743,98.7,195.72,-64.88,2,6
17666.14,0.218,0.45,0.61,97.26,252.48,-91.31,2,6
17666.14,0.056,0.521,0.56,89.63,302.84,-114.29,2,6
17666.156,-0.168,0.581,0.511,75.29,351.15,-125.92,2,6
17666.156,-0.388,0.673,0.454,48.34,391.22,-123.39,2,6
17666.171,-0.595,0.781,0.423,11.72,423.44,-107.97,2,6
17666.187,-0.798,0.881,0.45,-32.53,441.76,-90.09,2,6
17666.203,-0.958,0.85,0.484,-81.82,435.44,-72.39,2,6
17666.203,-1.057,0.735,0.539,-132.24,409.71,-56.22,2,6
17666.218,-1.058,0.632,0.603,-177.01,375.35,-46.51,2,6
17666.234,-1.034,0.554,0.691,-208.66,337.53,-44.77,2,6
17666.234,-0.989,0.503,0.787,-220.89,302.32,-48.46,2,6
17666.25,-0.962,0.473,0.826,-217.08,272.53,-62.01,2,6
17666.25,-0.97,0.394,0.817,-204.81,247.51,-71.08,2,6
17666.265,-0.971,0.347,0.797,-188.3,225.35,-73.52,2,6
17666.281,-0.968,0.342,0.756,-162.66,210.36,-74.31,2,6
17666.281,-1.017,0.347,0.721,-131.23,198.61,-73.03,2,6
17666.296,-1.054,0.366,0.704,-102.97,185.92,-67.66,2,6
17666.296,-1.086,0.415,0.725,-81.76,171.39,-60.12,2,6
17666.312,-1.097,0.442,0.754,-66.96,148.78,-51.64,2,6
17666.328,-1.108,0.447,0.777,-57.34,118.5,-44.95,2,6
17666.328,-1.096,0.447,0.766,-50.42,45.87,-39.06,2,6
17666.343,-1.076,0.431,0.721,-52.71,11.2,-39.83,2,6
17666.359,-1.056,0.417,0.671,-56.15,-17.94,-42.94,2,6
17666.359,-1.035,0.394,0.599,-62.5,-40.74,-47.67,2,6
17666.375,-0.99,0.324,0.475,-70.89,-56.61,-53.04,2,6
17666.39,-0.895,0.305,0.372,-77.91,-61.04,-69.37,2,6
17666.406,-0.846,0.283,0.337,-85.06,-51.79,-75.72,2,6
17666.406,-0.779,0.266,0.341,-90.64,-37.45,-79.23,2,6
17666.421,-0.72,0.251,0.341,-87.19,-18.19,-81.39,2,6
17666.437,-0.67,0.24,0.328,-81.27,5.49,-78.19,2,6
17666.437,-0.636,0.249,0.326,-77.55,31.68,-68.51,2,6
17666.453,-0.599,0.255,0.381,-69.52,59.27,-52.22,2,6
17666.468,-0.572,0.246,0.491,-54.6,84.35,-28.99,2,6
17666.484,-0.579,0.25,0.635,-38.45,98.61,-4.55,2,6
17666.484,-0.661,0.244,0.691,-19.81,98.42,18.65,2,6
17666.5,-0.71,0.24,0.696,-1.46,86.76,38.0,2,6
17666.5,-0.72,0.252,0.645,16.02,72.3,49.5,2,6
17666.515,-0.745,0.276,0.565,22.83,60.82,54.81,2,6
17666.531,-0.738,0.25,0.498,18.98,52.34,57.95,2,6
17666.531,-0.693,0.18,0.453,15.38,49.32,56.18,2,6
17666.546,-0.7,0.122,0.414,17.09,51.45,45.96,2,6
17666.562,-0.8,0.07,0.351,32.44,58.81,13.25,2,6
17666.578,-0.844,0.079,0.334,35.25,56.7,-2.26,2,6
17666.578,-0.895,0.095,0.318,34.0,48.62,-18.07,2,6
17666.593,-0.923,0.107,0.314,31.1,39.03,-33.08,2,6
17666.609,-0.935,0.102,0.287,28.32,28.38,-45.14,2,6
17666.609,-0.971,0.083,0.237,27.31,16.82,-52.98,2,6
17666.625,-0.942,0.076,0.208,28.17,5.71,-56.31,2,6
17666.64,-0.874,0.077,0.174,32.11,-2.29,-59.24,2,6
17666.64,-0.856,0.082,0.133,36.35,-4.55,-63.57,2,6
17666.656,-0.891,0.067,0.071,38.33,-3.66,-64.88,2,6
17666.656,-0.942,0.039,0.045,40.53,-1.92,-62.99,2,6
17666.671,-0.997,0.013,0.069,46.24,0.27,-59.88,2,6
17666.687,-1.064,0.005,0.115,54.02,-0.24,-56.4,2,6
17666.703,-1.117,-0.003,0.175,61.43,-4.85,-53.01,2,6
17666.703,-1.139,-0.015,0.224,68.24,-14.53,-50.9,2,6
17666.718,-1.152,0.011,0.229,72.45,-26.4,-50.94,2,6
17666.718,-1.13,0.079,0.242,69.43,-39.16,-53.29,2,6
17666.734,-1.092,0.068,0.233,62.99,-56.92,-54.66,2,6
17666.75,-1.059,0.046,0.203,57.28,-72.12,-54.69,2,6
17666.75,-1.027,0.028,0.191,54.17,-81.88,-52.74,2,6
17666.765,-1.006,-0.014,0.197,55.94,-85.02,-46.05,2,6
17666.781,-0.984,-0.031,0.209,63.3,-83.32,-35.28,2,6
17666.781,-0.943,0.004,0.189,72.73,-82.25,-23.65,2,6
17666.796,-0.896,0.037,0.165,80.14,-82.31,-13.95,2,6
17666.796,-0.858,0.082,0.144,82.19,-82.52,-7.69,2,6
17666.812,-0.804,0.089,0.148,78.86,-82.46,-1.74,2,6
17666.828,-0.773,0.04,0.164,75.59,-81.39,3.81,2,6
17666.828,-0.762,0.018,0.176,75.69,-80.32,6.1,2,6
17666.843,-0.75,0.013,0.173,77.67,-80.48,5.55,2,6
17666.859,-0.719,0.021,0.162,76.54,-80.81,4.7,2,6
17666.875,-0.691,0.049,0.156,71.9,-81.76,1.8,2,6
17666.875,-0.652,0.055,0.16,67.29,-81.85,-2.17,2,6
17666.89,-0.604,0.086,0.165,63.26,-81.03,-8.45,2,6
17666.89,-0.547,0.12,0.168,57.56,-79.93,-15.11,2,6
17666.906,-0.512,0.144,0.177,49.65,-78.25,-22.98,2,6
17666.921,-0.49,0.191,0.189,40.07,-75.96,-32.14,2,6
17666.921,-0.509,0.24,0.21,27.89,-72.27,-43.79,2,6
17666.937,-0.549,0.241,0.269,11.75,-68.64,-51.24,2,6
17666.953,-0.568,0.211,0.33,-0.15,-66.1,-53.44,2,6
17666.953,-0.575,0.185,0.378,-3.6,-62.32,-53.41,2,6
17666.968,-0.579,0.183,0.401,-4.06,-57.83,-47.82,2,6
17666.968,-0.577,0.172,0.42,-6.26,-52.77,-38.36,2,6
17666.984,-0.577,0.144,0.448,-7.72,-46.72,-26.86,2,6
17667.0,-0.59,0.128,0.476,-6.81,-40.93,-15.44,2,6
17667.0,-0.629,0.129,0.508,-5.07,-35.98,-7.72,2,6
17667.015,-0.658,0.118,0.539,-5.98,-34.46,-2.38,2,6
17667.015,-0.663,0.102,0.534,-8.97,-34.58,1.95,2,6
17667.031,-0.666,0.074,0.517,-12.18,-33.66,5.71,2,6
17667.046,-0.654,0.033,0.515,-13.79,-30.95,10.38,2,6
17667.046,-0.656,-0.02,0.511,-9.86,-25.45,15.02,2,6
17667.062,-0.665,-0.036,0.51,-2.72,-17.06,17.64,2,6
17667.078,-0.672,-0.04,0.515,2.69,-8.45,16.91,2,6
17667.078,-0.697,-0.046,0.548,4.7,-0.76,13.58,2,6
17667.093,-0.706,-0.069,0.586,5.77,3.94,8.0,2,6
17667.109,-0.699,-0.056,0.615,6.38,5.22,0.85,2,6
17667.109,-0.69,-0.031,0.631,4.67,2.9,-6.56,2,6
17667.125,-0.695,-0.017,0.641,-0.79,-1.59,-13.06,2,6
17667.14,-0.701,-0.028,0.66,-6.62,-6.96,-18.28,2,6
17667.14,-0.716,-0.034,0.67,-9.13,-12.57,-22.95,2,6
17667.156,-0.717,-0.028,0.656,-9.16,-17.49,-25.94,2,6
17667.156,-0.707,-0.019,0.638,-10.04,-21.33,-27.44,2,6
17667.171,-0.706,-0.018,0.626,-11.9,-23.38,-27.74,2,6
17667.187,-0.712,-0.032,0.633,-12.57,-23.32,-26.7,2,6
17667.203,-0.719,-0.045,0.639,-10.04,-22.13,-23.5,2,6
17667.203,-0.723,-0.029,0.624,-5.34,-20.75,-19.87,2,6
17667.218,-0.718,-0.005,0.601,-3.63,-19.47,-17.18,2,6
17667.218,-0.699,-0.001,0.601,-5.65,-17.64,-15.32,2,6
17667.234,-0.69,0.009,0.609,-6.93,-14.95,-14.1,2,6
17667.25,-0.703,0.005,0.62,-5.28,-11.87,-11.29,2,6
17667.25,-0.711,0.007,0.628,-2.5,-8.82,-6.9,2,6
17667.265,-0.715,0.022,0.632,0.46,-6.38,-2.56,2,6
17667.265,-0.715,0.018,0.638,2.11,-4.7,1.83,2,6
17667.281,-0.714,-0.003,0.658,2.87,-3.88,6.01,2,6
17667.296,-0.72,-0.018,0.669,4.67,-4.3,8.82,2,6
17667.296,-0.724,-0.018,0.664,6.56,-6.07,10.19,2,6
17667.312,-0.731,-0.015,0.662,4.85,-9.74,7.57,2,6
17667.328,-0.74,-0.018,0.66,2.32,-11.63,4.82,2,6
17667.328,-0.725,-0.013,0.647,-0.98,-12.91,2.41,2,6
17667.343,-0.7,0.001,0.636,-3.23,-13.12,0.37,2,6
17667.359,-0.702,0.004,0.633,-3.81,-12.88,-1.19,2,6
17667.359,-0.73,0.007,0.634,-3.2,-12.18,-1.83,2,6
17667.375,-0.748,0.013,0.638,-1.62,-10.74,-1.56,2,6
17667.39,-0.739,0.022,0.64,-0.55,-9.77,-0.98,2,6
17667.39,-0.733,0.02,0.638,-0.03,-9.13,0.21,2,6
17667.406,-0.73,0.015,0.639,0.76,-9.13,2.32,2,6
17667.406,-0.719,0.016,0.636,1.4,-10.13,3.78,2,6
17667.421,-0.723,0.023,0.625,1.77,-10.96,2.69,2,6
17667.437,-0.718,0.026,0.609,-0.15,-12.3,0.09,2,6
17667.453,-0.704,0.031,0.6,-4.09,-13.18,-4.09,2,6
17667.453,-0.702,0.027,0.604,-7.42,-12.54,-8.06,2,6
17667.468,-0.699,0.011,0.616,-8.55,-11.17,-10.01,2,6
17667.468,-0.702,-0.004,0.629,-7.42,-9.19,-9.92,2,6
17667.484,-0.704,-0.011,0.646,-4.09,-6.78,-7.72,2,6
17667.5,-0.707,0.005,0.664,-0.34,-4.33,-5.19,2,6
17667.515,-0.7,0.009,0.683,1.68,-2.41,-3.36,2,6
17667.515,-0.663,0.023,0.689,1.43,-0.85,-2.35,2,6
17667.531,-0.624,0.035,0.7,0.67,2.17,-1.43,2,6
17667.531,-0.603,0.045,0.715,-0.43,6.47,-0.85,2,6
17667.546,-0.595,0.047,0.737,-2.08,11.93,-1.31,2,6
17667.546,-0.625,0.029,0.771,-3.66,17.98,-2.66,2,6
17667.562,-0.673,0.008,0.806,-3.23,23.29,-3.85,2,6
17667.578,-0.726,0.014,0.84,-2.29,27.95,-5.77,2,6
17667.578,-0.782,0.013,0.881,-3.02,32.04,-7.57,2,6
17667.593,-0.807,0.003,0.925,-3.94,34.18,-8.39,2,6
17667.609,-0.81,0.009,0.954,-1.95,34.27,-7.9,2,6
17667.609,-0.84,0.044,0.958,0.58,32.5,-6.2,2,6
17667.625,-0.886,0.081,0.95,0.15,28.87,-3.23,2,6
17667.625,-0.923,0.098,0.948,-2.38,24.2,-0.64,2,6
17667.64,-0.938,0.091,0.935,-3.66,18.83,1.25,2,6
17667.656,-0.946,0.089,0.905,-2.99,13.67,3.72,2,6
17667.656,-0.937,0.095,0.872,-0.89,9.61,7.39,2,6
17667.671,-0.926,0.102,0.833,0.24,6.68,10.77,2,6
17667.687,-0.951,0.096,0.806,0.37,4.3,11.81,2,6
17667.687,-0.985,0.089,0.785,-0.15,1.1,9.64,2,6
17667.703,-1.008,0.074,0.756,-2.01,-4.39,6.32,2,6
17667.718,-1.007,0.065,0.717,-5.4,-12.02,3.66,2,6
17667.718,-1.01,0.041,0.674,-8.67,-19.71,1.68,2,6
17667.734,-1.027,0.052,0.64,-11.32,-24.78,-0.92,2,6
17667.75,-1.033,0.05,0.615,-14.07,-28.32,-3.51,2,6
17667.75,-1.017,0.046,0.609,-14.86,-31.1,-5.62,2,6
17667.765,-0.996,0.047,0.595,-13.21,-33.05,-7.08,2,6
17667.765,-0.989,0.041,0.585,-11.6,-33.97,-7.11,2,6
17667.781,-0.96,0.044,0.582,-11.32,-34.24,-6.5,2,6
17667.796,-0.924,0.019,0.584,-11.72,-35.13,-5.65,2,6
17667.796,-0.887,-0.001,0.592,-11.11,-36.19,-4.24,2,6
17667.812,-0.853,-0.014,0.598,-9.28,-37.08,-4.33,2,6
17667.828,-0.818,-0.042,0.593,-7.45,-38.0,-5.31,2,6
17667.828,-0.771,-0.051,0.583,-6.62,-39.03,-6.13,2,6
17667.843,-0.752,-0.066,0.568,-5.95,-39.83,-7.54,2,6
17667.859,-0.729,-0.072,0.553,-6.04,-40.1,-9.09,2,6
17667.859,-0.682,-0.072,0.543,-6.1,-39.83,-9.55,2,6
17667.875,-0.616,-0.05,0.533,-5.01,-38.82,-9.86,2,6
17667.89,-0.56,-0.014,0.521,-4.12,-36.44,-10.41,2,6
17667.89,-0.53,0.014,0.525,-4.79,-32.87,-10.1,2,6
17667.906,-0.524,0.005,0.547,-5.22,-29.05,-8.03,2,6
17667.906,-0.523,-0.014,0.562,-2.41,-25.64,-3.88,2,6
17667.921,-0.517,0.004,0.559,2.72,-22.98,1.16,2,6
17667.937,-0.492,0.03,0.546,5.52,-21.12,5.65,2,6
17667.937,-0.465,0.04,0.548,5.19,-19.53,8.45,2,6
17667.953,-0.469,0.035,0.563,3.72,-17.61,9.16,2,6
17667.968,-0.48,0.026,0.575,2.93,-16.45,7.84,2,6
17667.968,-0.48,0.031,0.568,2.56,-16.36,5.77,2,6
17667.984,-0.478,0.046,0.562,0.79,-15.26,3.97,2,6
17668.0,-0.471,0.043,0.579,-2.44,-13.18,3.05,2,6
17668.0,-0.446,0.036,0.6,-4.0,-11.72,3.91,2,6
17668.015,-0.426,0.047,0.608,-2.59,-10.19,6.56,2,6
17668.031,-0.426,0.058,0.606,-0.4,-8.03,9.8,2,6
17668.031,-0.437,0.058,0.603,0.58,-5.89,12.57,2,6
17668.046,-0.463,0.041,0.608,0.34,-3.3,13.95,2,6
17668.046,-0.498,0.031,0.62,-0.09,-0.24,13.43,2,6
17668.062,-0.526,0.017,0.63,-0.09,2.62,11.54,2,6
17668.078,-0.562,0.007,0.644,-0.31,4.76,9.8,2,6
17668.093,-0.589,0.004,0.664,-1.01,6.01,8.51,2,6
17668.093,-0.591,-0.003,0.68,-1.59,6.1,6.71,2,6
17668.109,-0.585,0.006,0.683,-1.68,5.04,5.01,2,6
17668.109,-0.587,0.022,0.673,-2.41,3.08,3.63,2,6
17668.125,-0.582,0.021,0.661,-5.16,0.46,3.3,2,6
17668.14,-0.571,0.005,0.648,-7.14,-1.13,3.78,2,6
17668.14,-0.567,-0.012,0.631,-6.16,-0.67,5.04,2,6
17668.156,-0.559,-0.014,0.612,-4.33,1.19,7.48,2,6
17668.156,-0.549,-0.012,0.602,-3.42,4.61,9.64,2,6
17668.171,-0.557,-0.018,0.598,-3.05,8.88,10.65,2,6
17668.187,-0.566,-0.023,0.607,-2.66,12.91,11.35,2,6
17668.187,-0.589,-0.035,0.621,-1.28,16.54,12.02,2,6
17668.203,-0.61,-0.041,0.628,0.52,19.1,13.49,2,6
17668.218,-0.628,-0.038,0.636,1.77,21.06,14.25,2,6
17668.218,-0.644,-0.042,0.652,1.56,22.31,13.31,2,6
17668.234,-0.654,-0.045,0.665,0.7,22.68,11.44,2,6
17668.25,-0.656,-0.056,0.679,0.92,22.43,10.04,2,6
17668.25,-0.639,-0.053,0.679,1.74,21.91,9.16,2,6
17668.265,-0.617,-0.053,0.681,2.26,21.64,8.82,2,6
17668.281,-0.586,-0.051,0.681,2.72,21.52,8.94,2,6
17668.281,-0.552,-0.044,0.672,3.91,21.55,8.61,2,6
17668.296,-0.521,-0.037,0.657,4.85,21.88,7.84,2,6
17668.296,-0.507,-0.025,0.631,4.24,23.74,4.39,2,6
17668.312,-0.529,-0.03,0.612,2.99,25.12,2.08,2,6
17668.328,-0.541,-0.025,0.6,2.08,25.61,0.34,2,6
17668.328,-0.506,0.006,0.569,1.92,25.67,-0.12,2,6
17668.343,-0.474,0.024,0.545,2.2,26.8,-0.06,2,6
17668.359,-0.466,0.042,0.523,1.89,29.15,-0.73,2,6
17668.359,-0.477,0.042,0.51,0.27,31.83,-1.5,2,6
17668.375,-0.477,0.034,0.508,-0.52,35.13,-0.98,2,6
17668.39,-0.494,0.016,0.507,1.34,39.19,0.7,2,6
17668.39,-0.514,0.015,0.503,4.94,43.67,2.47,2,6
17668.406,-0.511,0.022,0.497,7.14,48.07,3.36,2,6
17668.406,-0.491,0.02,0.495,7.35,51.21,3.6,2,6
17668.421,-0.456,0.021,0.491,6.62,53.04,3.57,2,6
17668.437,-0.445,0.029,0.474,5.22,54.11,2.23,2,6
17668.437,-0.476,0.024,0.458,2.99,55.27,0.64,2,6
17668.453,-0.502,-0.0,0.451,0.98,56.58,-1.1,2,6
17668.468,-0.535,-0.03,0.438,0.55,58.05,-3.81,2,6
17668.468,-0.565,-0.039,0.426,1.71,60.34,-6.96,2,6
17668.484,-0.583,-0.03,0.413,2.01,62.87,-10.99,2,6
17668.5,-0.584,-0.023,0.403,0.58,65.22,-15.02,2,6
17668.5,-0.584,-0.012,0.401,-1.28,67.23,-17.82,2,6
17668.515,-0.602,-0.012,0.402,-2.04,68.82,-19.04,2,6
17668.531,-0.618,-0.015,0.389,-1.31,69.73,-18.13,2,6
17668.531,-0.637,-0.01,0.365,-0.27,70.25,-15.87,2,6
17668.546,-0.686,-0.023,0.353,0.34,71.66,-14.89,2,6
17668.546,-0.737,-0.051,0.341,0.06,73.37,-15.56,2,6
17668.562,-0.788,-0.074,0.342,0.73,75.59,-19.04,2,6
17668.578,-0.839,-0.093,0.349,0.79,78.16,-24.26,2,6
17668.593,-0.873,-0.101,0.361,-0.24,79.47,-29.18,2,6
17668.593,-0.873,-0.089,0.374,-1.04,78.74,-31.83,2,6
17668.609,-0.855,-0.057,0.365,-1.37,76.17,-31.71,2,6
17668.609,-0.841,-0.02,0.333,-1.77,72.97,-30.7,2,6
17668.625,-0.816,-0.01,0.294,-2.96,71.05,-27.68,2,6
17668.64,-0.802,0.007,0.253,-3.45,71.66,-23.77,2,6
17668.64,-0.838,0.003,0.215,-1.37,74.86,-20.26,2,6
17668.656,-0.883,0.002,0.2,0.24,79.71,-17.0,2,6
17668.656,-0.903,-0.013,0.199,1.22,84.11,-12.48,2,6
17668.671,-0.898,-0.031,0.203,4.27,88.47,-6.71,2,6
17668.687,-0.858,-0.033,0.198,8.33,92.41,-0.73,2,6
17668.687,-0.825,-0.036,0.184,11.23,95.22,5.37,2,6
17668.703,-0.818,-0.037,0.163,13.15,95.98,9.58,2,6
17668.718,-0.84,-0.053,0.132,13.61,95.77,10.16,2,6
17668.718,-0.863,-0.08,0.102,11.41,94.73,8.76,2,6
17668.734,-0.891,-0.112,0.081,8.85,93.78,7.2,2,6
17668.75,-0.906,-0.137,0.066,8.58,94.12,4.76,2,6
17668.75,-0.889,-0.146,0.043,10.16,96.07,0.82,2,6
17668.765,-0.887,-0.134,0.009,11.78,98.91,-5.25,2,6
17668.781,-0.903,-0.135,-0.027,12.12,101.23,-10.9,2,6
17668.781,-0.926,-0.136,-0.057,11.96,102.85,-16.02,2,6
17668.796,-0.967,-0.123,-0.068,12.57,104.56,-23.04,2,6
17668.796,-1.011,-0.122,-0.076,12.27,105.2,-30.0,2,6
17668.812,-1.034,-0.1,-0.066,10.41,103.27,-35.95,2,6
17668.828,-1.025,-0.071,-0.05,7.14,98.79,-40.19,2,6
17668.828,-1.015,-0.067,-0.064,2.78,93.81,-42.88,2,6
17668.843,-1.029,-0.073,-0.097,-1.68,90.27,-44.25,2,6
17668.859,-1.048,-0.073,-0.125,-4.91,88.5,-42.24,2,6
17668.859,-1.081,-0.088,-0.138,-5.65,88.5,-36.29,2,6
17668.875,-1.12,-0.129,-0.146,-0.98,90.27,-27.95,2,6
17668.89,-1.176,-0.145,-0.168,8.18,94.33,-22.43,2,6
17668.89,-1.253,-0.105,-0.189,14.5,98.48,-24.99,2,6
17668.906,-1.272,-0.064,-0.189,10.25,100.13,-31.56,2,6
17668.906,-1.267,-0.052,-0.169,1.25,98.94,-38.09,2,6
17668.921,-1.25,-0.06,-0.154,-4.06,95.77,-39.86,2,6
17668.937,-1.199,-0.073,-0.16,-4.7,91.1,-33.17,2,6
17668.953,-1.153,-0.092,-0.193,1.16,87.56,-20.14,2,6
17668.953,-1.114,-0.053,-0.26,10.07,85.97,-8.51,2,6
17668.968,-1.14,-0.018,-0.312,13.58,87.41,-4.55,2,6
17668.968,-1.182,-0.023,-0.319,9.13,91.1,-7.69,2,6
17668.984,-1.153,-0.04,-0.303,0.89,94.58,-12.02,2,6
17669.0,-1.163,-0.064,-0.273,-2.81,96.77,-12.82,2,6
17669.0,-1.16,-0.094,-0.252,-0.67,95.74,-6.29,2,6
17669.015,-1.115,-0.125,-0.264,6.04,93.17,4.58,2,6
17669.031,-1.16,-0.124,-0.309,14.71,92.35,11.35,2,6
17669.031,-1.164,-0.107,-0.353,16.45,91.28,10.38,2,6
17669.046,-1.164,-0.092,-0.354,10.19,90.67,0.85,2,6
17669.046,-1.212,-0.123,-0.309,2.14,90.82,-14.65,2,6
17669.062,-1.223,-0.142,-0.267,-7.9,85.82,-32.07,2,6
17669.078,-1.227,-0.134,-0.25,-18.52,75.26,-48.86,2,6
17669.093,-1.22,-0.128,-0.274,-28.99,61.62,-61.31,2,6
17669.093,-1.191,-0.126,-0.317,-38.82,48.8,-66.44,2,6
17669.109,-1.13,-0.131,-0.374,-43.24,40.59,-62.9,2,6
17669.109,-1.083,-0.147,-0.414,-39.74,40.86,-51.52,2,6
17669.125,-1.105,-0.17,-0.423,-27.47,50.81,-36.77,2,6
17669.14,-1.117,-0.157,-0.418,-12.67,64.73,-22.25,2,6
17669.14,-1.169,-0.127,-0.384,-1.4,78.4,-11.14,2,6
17669.156,-1.167,-0.111,-0.335,4.3,85.85,-1.46,2,6
17669.171,-1.102,-0.114,-0.302,6.56,85.06,8.0,2,6
17669.171,-1.014,-0.141,-0.302,7.57,78.04,16.51,2,6
17669.187,-0.944,-0.179,-0.365,9.34,68.15,22.68,2,6
17669.187,-0.913,-0.202,-0.453,10.8,60.18,24.6,2,6
17669.203,-0.905,-0.211,-0.512,9.28,57.59,20.63,2,6
17669.218,-0.946,-0.217,-0.526,4.21,60.06,11.23,2,6
17669.234,-0.951,-0.231,-0.511,-1.86,63.97,1.62,2,6
17669.234,-0.967,-0.233,-0.48,-3.27,66.68,-8.85,2,6
17669.25,-0.931,-0.257,-0.468,-1.92,68.06,-11.9,2,6
17669.25,-0.917,-0.194,-0.462,-0.21,68.54,-14.98,2,6
17669.265,-0.878,-0.193,-0.49,1.83,61.77,-15.96,2,6
17669.281,-0.863,-0.158,-0.521,2.04,58.84,-15.41,2,6
17669.281,-0.942,-0.141,-0.507,-0.92,62.11,-6.81,2,6
17669.296,-0.935,-0.143,-0.491,2.32,62.14,2.23,2,6
17669.296,-0.888,-0.162,-0.486,11.93,62.2,9.03,2,6
17669.312,-0.868,-0.201,-0.505,16.82,61.92,7.54,2,6
17669.328,-0.88,-0.116,-0.554,7.45,60.34,-0.92,2,6
17669.328,-0.911,-0.16,-0.507,-8.76,58.66,-11.32,2,6
17669.343,-0.944,-0.221,-0.448,-19.71,55.39,-17.73,2,6
17669.359,-0.947,-0.245,-0.429,-21.94,49.9,-15.66,2,6
17669.359,-0.949,-0.286,-0.467,-16.14,44.01,-2.38,2,6
17669.375,-0.954,-0.362,-0.54,-2.35,39.77,17.85,2,6
17669.39,-0.964,-0.362,-0.634,16.97,40.31,33.2,2,6
17669.39,-0.961,-0.273,-0.732,28.78,44.71,36.23,2,6
17669.406,-0.934,-0.18,-0.798,25.82,50.75,28.9,2,6
17669.421,-0.921,-0.122,-0.788,14.47,57.71,18.07,2,6
17669.421,-0.929,-0.12,-0.717,6.1,63.57,9.37,2,6
17669.437,-0.934,-0.111,-0.634,4.91,66.84,5.77,2,6
17669.437,-0.939,-0.12,-0.568,8.79,66.99,6.96,2,6
17669.453,-0.959,-0.124,-0.536,13.12,63.57,10.8,2,6
17669.468,-0.947,-0.127,-0.523,12.85,56.52,15.59,2,6
17669.468,-0.897,-0.149,-0.533,9.98,47.33,20.11,2,6
17669.484,-0.848,-0.172,-0.567,8.67,39.0,25.06,2,6
17669.5,-0.808,-0.206,-0.612,9.67,32.99,29.69,2,6
17669.515,-0.77,-0.238,-0.658,11.51,30.24,31.16,2,6
17669.515,-0.751,-0.237,-0.698,12.39,30.98,27.28,2,6
17669.531,-0.738,-0.233,-0.714,11.78,34.61,19.32,2,6
17669.531,-0.734,-0.218,-0.692,9.67,39.28,9.22,2,6
17669.546,-0.756,-0.203,-0.648,6.99,42.36,-0.85,2,6
17669.562,-0.76,-0.185,-0.605,3.97,41.35,-7.69,2,6
17669.562,-0.762,-0.182,-0.578,2.62,37.2,-10.25,2,6
17669.578,-0.763,-0.189,-0.579,3.39,31.13,-8.88,2,6
17669.578,-0.744,-0.195,-0.608,5.49,24.99,-5.52,2,6
17669.593,-0.724,-0.212,-0.647,8.21,21.15,-3.36,2,6
17669.609,-0.713,-0.215,-0.685,9.0,19.62,-4.15,2,6
17669.609,-0.696,-0.219,-0.708,7.39,19.47,-6.93,2,6
17669.625,-0.696,-0.226,-0.714,6.04,20.81,-10.56,2,6
17669.64,-0.704,-0.22,-0.718,5.37,22.46,-14.65,2,6
17669.64,-0.714,-0.222,-0.718,4.0,23.87,-17.82,2,6
17669.656,-0.72,-0.237,-0.709,4.24,24.93,-18.22,2,6
17669.656,-0.726,-0.239,-0.709,7.81,25.79,-15.99,2,6
17669.671,-0.734,-0.232,-0.722,12.88,26.34,-12.63,2,6
17669.687,-0.726,-0.214,-0.735,16.27,26.58,-9.34,2,6
17669.687,-0.707,-0.2,-0.747,17.15,26.64,-7.45,2,6
17669.703,-0.699,-0.187,-0.753,16.85,27.07,-7.02,2,6
17669.718,-0.684,-0.19,-0.75,15.93,27.25,-7.72,2,6
17669.718,-0.665,-0.195,-0.748,15.17,26.73,-8.45,2,6
17669.734,-0.657,-0.208,-0.744,14.83,26.67,-8.67,2,6
17669.75,-0.654,-0.219,-0.746,15.2,27.1,-8.42,2,6
17669.75,-0.66,-0.221,-0.748,16.36,28.23,-7.81,2,6
17669.765,-0.654,-0.217,-0.748,17.55,29.82,-5.98,2,6
17669.765,-0.634,-0.213,-0.745,18.89,31.43,-2.69,2,6
17669.781,-0.602,-0.204,-0.748,21.67,32.53,1.22,2,6
17669.796,-0.568,-0.202,-0.757,24.08,33.39,5.98,2,6
17669.796,-0.585,-0.213,-0.751,25.76,34.82,10.04,2,6
17669.812,-0.613,-0.244,-0.757,27.47,34.97,11.57,2,6
17669.828,-0.621,-0.263,-0.764,28.35,33.75,9.46,2,6
17669.828,-0.631,-0.277,-0.768,27.25,32.01,3.3,2,6
17669.843,-0.633,-0.282,-0.773,22.89,29.3,-5.25,2,6
17669.859,-0.627,-0.294,-0.769,17.37,26.15,-13.92,2,6
17669.859,-0.624,-0.312,-0.768,14.22,23.44,-20.05,2,6
17669.875,-0.62,-0.308,-0.775,13.76,21.85,-22.64,2,6
17669.89,-0.627,-0.31,-0.788,16.08,22.34,-23.01,2,6
17669.89,-0.656,-0.285,-0.807,19.59,24.63,-23.35,2,6
17669.906,-0.663,-0.251,-0.813,20.23,26.86,-24.78,2,6
17669.906,-0.658,-0.226,-0.811,18.13,28.08,-27.68,2,6
17669.921,-0.652,-0.2,-0.81,14.8,28.29,-30.21,2,6
17669.937,-0.638,-0.176,-0.792,10.71,27.74,-31.13,2,6
17669.953,-0.63,-0.201,-0.769,8.64,26.92,-29.73,2,6
17669.953,-0.638,-0.21,-0.763,10.25,25.61,-25.91,2,6
17669.968,-0.647,-0.2,-0.765,12.33,24.66,-20.78,2,6
17669.968,-0.673,-0.201,-0.759,13.98,24.99,-15.66,2,6
17669.984,-0.691,-0.206,-0.761,15.05,25.09,-10.93,2,6
17670.0,-0.675,-0.195,-0.767,14.77,24.45,-6.53,2,6
17670.0,-0.658,-0.189,-0.774,15.05,23.8,-2.69,2,6
17670.015,-0.651,-0.178,-0.794,15.5,23.35,1.4,2,6
17670.015,-0.639,-0.176,-0.806,15.41,23.99,6.65,2,6
17670.031,-0.623,-0.2,-0.806,16.85,25.54,12.91,2,6
17670.046,-0.604,-0.218,-0.81,20.72,27.1,18.62,2,6
17670.062,-0.595,-0.232,-0.815,24.75,28.9,21.67,2,6
17670.062,-0.607,-0.218,-0.822,25.18,30.52,21.42,2,6
17670.078,-0.6,-0.221,-0.806,21.21,30.7,19.2,2,6
17670.078,-0.586,-0.239,-0.776,17.67,30.12,15.05,2,6
17670.093,-0.597,-0.251,-0.756,15.99,28.87,10.22,2,6
17670.109,-0.599,-0.243,-0.743,13.64,26.37,6.87,2,6
17670.109,-0.592,-0.251,-0.731,11.69,23.99,5.62,2,6
17670.125,-0.591,-0.261,-0.731,12.09,21.94,5.98,2,6
17670.14,-0.587,-0.249,-0.743,13.49,19.23,7.54,2,6
17670.14,-0.579,-0.238,-0.757,14.04,15.99,9.09,2,6
17670.156,-0.574,-0.244,-0.786,13.7,12.7,9.49,2,6
17670.171,-0.574,-0.243,-0.818,12.27,10.32,7.81,2,6
17670.171,-0.569,-0.253,-0.837,9.31,9.31,4.3,2,6
17670.187,-0.575,-0.251,-0.848,5.74,9.61,-0.4,2,6
17670.203,-0.567,-0.249,-0.841,0.89,10.44,-4.27,2,6
17670.203,-0.546,-0.26,-0.81,-2.93,11.2,-6.68,2,6
17670.218,-0.535,-0.268,-0.796,-2.9,10.86,-6.47,2,6
17670.218,-0.515,-0.266,-0.789,-0.73,9.64,-3.2,2,6
17670.234,-0.494,-0.287,-0.791,2.75,8.82,0.98,2,6
17670.25,-0.497,-0.297,-0.816,6.04,9.06,3.57,2,6
17670.265,-0.498,-0.292,-0.831,6.26,9.86,4.73,2,6
17670.265,-0.492,-0.292,-0.843,4.79,11.44,4.27,2,6
17670.265,-0.488,-0.291,-0.85,2.78,15.84,3.75,2,6
17670.281,-0.473,-0.288,-0.845,3.3,17.43,2.53,2,6
17670.296,-0.471,-0.28,-0.854,2.23,18.65,1.07,2,6
17670.296,-0.469,-0.302,-0.834,1.59,19.29,-0.82,2,6
17670.312,-0.478,-0.298,-0.831,1.46,19.5,-2.93,2,6
17670.328,-0.48,-0.292,-0.821,-0.27,19.35,-4.06,2,6
17670.328,-0.471,-0.297,-0.81,-1.1,19.07,-4.27,2,6
17670.343,-0.459,-0.294,-0.817,0.12,19.01,-3.08,2,6
17670.359,-0.442,-0.293,-0.819,2.32,20.2,-0.21,2,6
17670.359,-0.425,-0.319,-0.813,5.37,21.97,2.17,2,6
17670.375,-0.443,-0.328,-0.814,8.0,22.71,0.67,2,6
17670.39,-0.47,-0.329,-0.821,6.32,22.34,-3.69,2,6
17670.39,-0.48,-0.338,-0.809,-0.18,19.84,-9.86,2,6
17670.406,-0.483,-0.352,-0.79,-5.19,16.97,-16.27,2,6
17670.421,-0.477,-0.354,-0.793,-6.71,13.79,-21.27,2,6
17670.421,-0.468,-0.334,-0.814,-7.32,10.35,-24.29,2,6
17670.437,-0.46,-0.337,-0.829,-7.84,7.87,-24.48,2,6
17670.437,-0.449,-0.337,-0.843,-7.29,6.68,-22.71,2,6
17670.453,-0.45,-0.348,-0.855,-5.49,7.05,-20.69,2,6
17670.468,-0.438,-0.346,-0.863,-3.94,7.45,-18.19,2,6
17670.468,-0.445,-0.335,-0.871,-2.69,8.18,-15.78,2,6
17670.484,-0.443,-0.353,-0.87,-0.79,10.1,-12.21,2,6
17670.5,-0.427,-0.36,-0.871,2.9,11.72,-9.98,2,6
17670.5,-0.445,-0.337,-0.894,5.8,13.52,-10.38,2,6
17670.515,-0.438,-0.32,-0.904,3.63,15.41,-10.25,2,6
17670.531,-0.436,-0.344,-0.883,0.46,17.91,-11.05,2,6
17670.531,-0.436,-0.372,-0.868,1.83,19.9,-11.54,2,6
17670.546,-0.443,-0.34,-0.868,5.28,20.75,-11.63,2,6
17670.546,-0.44,-0.322,-0.864,5.86,20.75,-10.8,2,6
17670.562,-0.441,-0.324,-0.859,5.4,20.26,-9.86,2,6
17670.578,-0.443,-0.305,-0.863,5.8,20.14,-9.25,2,6
17670.593,-0.44,-0.282,-0.861,5.13,20.17,-8.61,2,6
17670.593,-0.435,-0.28,-0.852,3.72,20.33,-8.45,2,6
17670.609,-0.434,-0.279,-0.847,1.8,19.53,-8.85,2,6
17670.609,-0.436,-0.284,-0.844,-0.95,18.1,-8.3,2,6
17670.625,-0.432,-0.298,-0.834,-1.77,17.15,-6.16,2,6
17670.64,-0.426,-0.314,-0.838,-0.21,16.75,-2.78,2,6
17670.64,-0.422,-0.322,-0.842,2.44,16.51,1.56,2,6
17670.656,-0.411,-0.329,-0.846,5.68,16.63,5.89,2,6
17670.656,-0.394,-0.349,-0.857,8.97,17.12,9.25,2,6
17670.671,-0.391,-0.359,-0.871,11.26,17.27,10.22,2,6
17670.687,-0.383,-0.365,-0.878,10.19,16.69,7.63,2,6
17670.703,-0.386,-0.367,-0.878,6.47,16.24,1.28,2,6
17670.703,-0.385,-0.362,-0.866,1.5,15.63,-6.5,2,6
17670.718,-0.385,-0.372,-0.843,-2.99,14.86,-13.98,2,6
17670.718,-0.387,-0.376,-0.824,-4.82,13.43,-19.38,2,6
17670.734,-0.385,-0.368,-0.814,-4.49,11.57,-22.31,2,6
17670.75,-0.381,-0.367,-0.819,-3.69,9.0,-23.62,2,6
17670.75,-0.386,-0.352,-0.836,-3.66,6.04,-25.06,2,6
17670.765,-0.388,-0.327,-0.855,-6.5,3.2,-26.28,2,6
17670.781,-0.375,-0.324,-0.86,-10.5,1.28,-25.09,2,6
17670.781,-0.372,-0.329,-0.861,-10.25,1.19,-22.16,2,6
17670.796,-0.384,-0.323,-0.868,-6.87,2.78,-17.98,2,6
17670.812,-0.396,-0.307,-0.862,-3.54,5.52,-12.24,2,6
17670.812,-0.402,-0.31,-0.855,0.55,7.87,-5.86,2,6
17670.828,-0.406,-0.31,-0.851,5.01,8.88,1.16,2,6
17670.828,-0.401,-0.311,-0.844,9.28,8.85,7.81,2,6
17670.843,-0.403,-0.344,-0.837,13.43,8.36,12.36,2,6
17670.859,-0.405,-0.367,-0.837,18.22,7.63,15.41,2,6
17670.875,-0.398,-0.367,-0.847,22.55,7.11,17.43,2,6
17670.875,-0.383,-0.369,-0.859,24.26,6.65,18.19,2,6
17670.89,-0.372,-0.38,-0.873,23.65,6.44,19.2,2,6
17670.89,-0.363,-0.389,-0.877,23.8,7.9,21.06,2,6
17670.906,-0.356,-0.404,-0.875,25.54,10.9,23.68,2,6
17670.906,-0.361,-0.407,-0.871,28.5,14.8,25.91,2,6
17670.921,-0.366,-0.401,-0.861,31.59,19.17,27.62,2,6
17670.937,-0.368,-0.399,-0.85,33.2,22.34,28.29,2,6
17670.953,-0.373,-0.401,-0.84,33.48,24.14,27.99,2,6
17670.953,-0.36,-0.406,-0.838,32.41,24.05,26.76,2,6
17670.968,-0.357,-0.406,-0.835,29.82,22.92,24.48,2,6
17670.968,-0.368,-0.405,-0.839,26.37,21.64,21.39,2,6
17670.984,-0.377,-0.393,-0.842,21.7,20.39,19.07,2,6
17671.0,-0.363,-0.404,-0.828,16.6,19.44,17.09,2,6
17671.0,-0.36,-0.419,-0.819,13.79,18.01,14.56,2,6
17671.015,-0.37,-0.402,-0.821,12.42,15.84,11.72,2,6
17671.031,-0.376,-0.379,-0.816,9.31,13.09,9.03,2,6
17671.031,-0.369,-0.373,-0.811,4.76,9.95,6.87,2,6
17671.046,-0.36,-0.365,-0.81,1.46,6.68,5.74,2,6
17671.046,-0.35,-0.373,-0.807,-0.18,4.0,5.89,2,6
17671.062,-0.344,-0.388,-0.806,0.92,2.08,7.02,2,6
17671.078,-0.346,-0.389,-0.815,3.78,1.43,8.55,2,6
17671.078,-0.351,-0.373,-0.832,5.71,1.19,9.37,2,6
17671.093,-0.355,-0.355,-0.847,4.79,1.31,9.74,2,6
17671.109,-0.345,-0.35,-0.851,1.74,1.22,9.7,2,6
17671.109,-0.335,-0.357,-0.851,-0.31,1.1,10.16,2,6
17671.125,-0.332,-0.362,-0.852,0.21,1.01,11.51,2,6
17671.14,-0.331,-0.371,-0.855,2.08,1.31,13.49,2,6
17671.14,-0.328,-0.374,-0.865,3.97,1.19,14.95,2,6
17671.156,-0.328,-0.38,-0.882,4.55,1.01,15.29,2,6
17671.171,-0.328,-0.39,-0.893,4.12,1.07,13.7,2,6
17671.171,-0.33,-0.378,-0.899,2.17,2.01,10.74,2,6
17671.187,-0.323,-0.374,-0.897,-1.4,3.05,7.48,2,6
17671.187,-0.316,-0.377,-0.877,-5.16,3.39,4.64,2,6
17671.203,-0.319,-0.385,-0.853,-7.35,2.87,3.23,2,6
17671.218,-0.329,-0.388,-0.831,-7.02,1.86,3.3,2,6
17671.218,-0.339,-0.378,-0.825,-5.13,0.09,4.0,2,6
17671.234,-0.349,-0.342,-0.821,-4.55,-2.29,5.16,2,6
17671.25,-0.35,-0.317,-0.819,-5.92,-5.22,8.45,2,6
17671.25,-0.335,-0.322,-0.826,-0.31,-9.31,21.94,2,6
17671.265,-0.332,-0.362,-0.841,9.49,-7.39,28.17,2,6
17671.281,-0.328,-0.406,-0.862,18.19,-3.45,30.67,2,6
17671.281,-0.336,-0.411,-0.894,19.53,0.7,29.45,2,6
17671.296,-0.354,-0.401,-0.91,14.4,3.17,25.42,2,6
17671.296,-0.343,-0.406,-0.897,6.87,3.48,19.2,2,6
17671.312,-0.339,-0.41,-0.88,-0.06,2.47,12.85,2,6
17671.328,-0.337,-0.409,-0.864,-4.0,0.73,8.21,2,6
17671.328,-0.341,-0.404,-0.857,-4.64,-0.64,5.68,2,6
17671.343,-0.34,-0.394,-0.859,-3.6,-1.53,5.19,2,6
17671.359,-0.334,-0.39,-0.861,-2.04,-1.83,5.31,2,6
17671.359,-0.334,-0.385,-0.86,-0.58,-1.59,5.22,2,6
17671.375,-0.344,-0.379,-0.863,0.27,-1.01,5.22,2,6
17671.375,-0.351,-0.37,-0.861,0.27,-0.55,5.86,2,6
17671.39,-0.355,-0.365,-0.856,-0.09,-0.46,7.14,2,6
17671.406,-0.362,-0.362,-0.852,0.12,-0.67,8.79,2,6
17671.406,-0.357,-0.371,-0.85,1.13,-1.37,10.8,2,6
17671.421,-0.341,-0.385,-0.856,3.2,-1.74,12.63,2,6
17671.437,-0.337,-0.398,-0.868,5.16,-1.13,13.31,2,6
17671.437,-0.345,-0.404,-0.87,5.77,-0.09,13.52,2,6
17671.453,-0.343,-0.417,-0.867,5.49,0.85,12.67,2,6
17671.468,-0.342,-0.43,-0.862,6.23,1.8,9.34,2,6
17671.468,-0.351,-0.415,-0.865,6.2,2.14,4.12,2,6
17671.484,-0.355,-0.393,-0.865,2.59,1.13,-0.95,2,6
17671.5,-0.355,-0.398,-0.859,-2.87,-0.4,-5.71,2,6
17671.5,-0.359,-0.401,-0.848,-6.5,-1.62,-9.77,2,6
17671.515,-0.36,-0.393,-0.835,-8.06,-2.96,-13.09,2,6
17671.531,-0.36,-0.381,-0.829,-7.93,-4.3,-14.86,2,6
17671.531,-0.362,-0.368,-0.833,-7.17,-5.52,-14.56,2,6
17671.546,-0.354,-0.36,-0.841,-6.74,-6.65,-12.42,2,6
17671.562,-0.348,-0.363,-0.851,-5.83,-7.11,-8.85,2,6
17671.562,-0.343,-0.365,-0.861,-3.36,-6.26,-4.97,2,6
17671.578,-0.342,-0.371,-0.87,0.15,-4.18,-1.19,2,6
17671.578,-0.342,-0.37,-0.877,3.11,-1.68,1.83,2,6
17671.593,-0.337,-0.371,-0.878,4.67,0.46,3.57,2,6
17671.609,-0.338,-0.375,-0.872,4.46,1.95,4.18,2,6
17671.609,-0.34,-0.379,-0.867,3.63,2.38,3.91,2,6
17671.625,-0.333,-0.381,-0.863,2.84,2.26,3.48,2,6
17671.64,-0.326,-0.392,-0.864,2.04,1.74,3.17,2,6
17671.64,-0.327,-0.396,-0.865,2.04,1.31,2.78,2,6
17671.656,-0.324,-0.397,-0.868,2.59,1.46,1.86,2,6
17671.656,-0.324,-0.391,-0.874,3.23,2.26,0.52,2,6
17671.671,-0.328,-0.378,-0.875,3.36,3.2,-0.7,2,6
17671.687,-0.331,-0.37,-0.872,2.5,4.24,-1.89,2,6
17671.687,-0.331,-0.367,-0.866,1.07,4.79,-2.59,2,6
17671.703,-0.331,-0.37,-0.857,-0.46,4.76,-2.78,2,6
17671.718,-0.33,-0.374,-0.847,-1.13,4.36,-2.41,2,6
17671.718,-0.327,-0.378,-0.846,-0.52,3.57,-1.8,2,6
17671.734,-0.326,-0.377,-0.85,0.7,2.75,-1.1,2,6
17671.75,-0.329,-0.384,-0.853,1.34,2.04,-0.49,2,6
17671.75,-0.33,-0.385,-0.858,1.53,1.34,-0.67,2,6
17671.765,-0.333,-0.387,-0.866,1.59,0.7,-1.13,2,6
17671.781,-0.334,-0.379,-0.876,1.59,0.49,-1.68,2,6
17671.781,-0.335,-0.37,-0.882,0.98,1.1,-2.87,2,6
17671.796,-0.342,-0.362,-0.884,-0.55,2.66,-4.27,2,6
17671.796,-0.341,-0.359,-0.875,-2.2,4.0,-5.07,2,6
17671.812,-0.344,-0.363,-0.86,-3.3,4.97,-4.76,2,6
