timestamp,ax,ay,az,gx,gy,gz,orient_label,motion_label
17647.828,0.175,0.529,0.845,3.14,-0.92,3.75,2,6
17647.828,0.177,0.531,0.849,3.23,-3.11,3.81,2,6
17647.843,0.178,0.528,0.84,3.85,-5.1,3.78,2,6
17647.859,0.181,0.52,0.824,3.81,-6.59,3.91,2,6
17647.859,0.19,0.515,0.818,3.85,-7.11,3.85,2,6
17647.875,0.197,0.514,0.809,4.46,-6.59,3.54,2,6
17647.875,0.198,0.512,0.796,4.88,-5.22,2.66,2,6
17647.89,0.205,0.517,0.792,4.27,-3.91,1.65,2,6
17647.906,0.208,0.525,0.806,3.63,-2.62,0.27,2,6
17647.906,0.197,0.523,0.816,4.7,-1.77,-0.64,2,6
17647.921,0.19,0.53,0.822,5.65,-1.98,-0.27,2,6
17647.937,0.197,0.54,0.824,5.46,-3.05,-0.49,2,6
17647.937,0.198,0.536,0.814,4.97,-3.6,-1.8,2,6
17647.953,0.187,0.533,0.797,4.18,-3.33,-3.14,2,6
17647.968,0.188,0.546,0.786,2.44,-3.08,-3.17,2,6
17647.968,0.186,0.555,0.78,0.73,-1.83,-2.96,2,6
17647.984,0.184,0.558,0.787,-1.28,-0.43,-2.29,2,6
17648.0,0.188,0.567,0.799,-3.33,0.46,-0.55,2,6
17648.0,0.188,0.567,0.822,-4.94,0.7,1.4,2,6
17648.015,0.18,0.556,0.841,-4.94,0.09,3.02,2,6
17648.031,0.174,0.545,0.842,-4.24,-1.71,4.7,2,6
17648.031,0.181,0.528,0.829,-3.88,-3.88,5.28,2,6
17648.046,0.192,0.512,0.817,-3.94,-5.19,4.49,2,6
17648.046,0.198,0.5,0.804,-3.91,-5.1,3.33,2,6
17648.062,0.206,0.501,0.809,-3.3,-4.3,2.35,2,6
17648.078,0.209,0.506,0.822,-1.83,-3.6,1.4,2,6
17648.078,0.21,0.512,0.823,0.46,-3.36,0.43,2,6
17648.093,0.213,0.514,0.82,2.11,-3.63,-0.7,2,6
17648.109,0.211,0.517,0.804,3.66,-3.42,-2.41,2,6
17648.109,0.195,0.525,0.784,4.79,-2.04,-4.0,2,6
17648.125,0.185,0.544,0.787,3.66,-0.67,-4.7,2,6
17648.125,0.17,0.567,0.8,1.59,0.09,-4.06,2,6
17648.14,0.171,0.583,0.809,-0.49,-0.34,-1.89,2,6
17648.156,0.178,0.584,0.811,-2.23,-1.37,1.1,2,6
17648.156,0.187,0.574,0.805,-3.88,-2.41,3.88,2,6
17648.171,0.201,0.56,0.796,-5.71,-3.08,5.62,2,6
17648.187,0.206,0.538,0.787,-7.14,-2.78,6.04,2,6
17648.187,0.212,0.52,0.785,-8.76,-1.77,6.07,2,6
17648.203,0.22,0.514,0.793,-10.47,-0.31,5.22,2,6
17648.218,0.216,0.507,0.803,-11.66,1.31,3.72,2,6
17648.218,0.216,0.492,0.812,-12.27,2.26,2.44,2,6
17648.234,0.214,0.489,0.829,-11.72,3.36,1.28,2,6
17648.25,0.207,0.492,0.846,-9.8,4.0,0.43,2,6
17648.25,0.201,0.495,0.854,-7.69,3.54,-0.12,2,6
17648.265,0.196,0.495,0.859,-5.37,2.44,-0.7,2,6
17648.265,0.188,0.499,0.846,-2.81,1.59,-1.4,2,6
17648.281,0.186,0.499,0.836,-1.22,0.58,-2.29,2,6
17648.296,0.187,0.504,0.829,-0.76,-0.03,-3.11,2,6
17648.296,0.183,0.515,0.823,-0.24,-0.21,-3.66,2,6
17648.312,0.186,0.525,0.824,-0.49,-0.4,-3.6,2,6
17648.328,0.19,0.526,0.82,-1.13,-0.7,-3.72,2,6
17648.343,0.203,0.524,0.81,-1.65,-1.01,-3.14,2,6
17648.359,0.203,0.522,0.806,-2.81,-0.43,-2.99,2,6
17648.359,0.199,0.524,0.813,-4.39,-0.12,-3.27,2,6
17648.375,0.197,0.53,0.817,-5.13,-0.21,-3.17,2,6
17648.39,0.191,0.524,0.823,-5.31,0.15,-2.69,2,6
17648.39,0.185,0.513,0.828,-5.46,0.49,-2.44,2,6
17648.406,0.175,0.507,0.843,-5.55,0.49,-2.66,2,6
17648.406,0.169,0.504,0.852,-5.07,-0.31,-2.47,2,6
17648.421,0.174,0.502,0.855,-4.09,-1.8,-1.95,2,6
17648.437,0.183,0.497,0.848,-2.87,-3.05,-1.83,2,6
17648.437,0.191,0.499,0.844,-1.59,-3.69,-1.92,2,6
17648.453,0.195,0.497,0.836,-0.21,-3.97,-2.01,2,6
17648.468,0.197,0.499,0.828,0.89,-4.06,-2.38,2,6
17648.484,0.2,0.503,0.824,1.56,-3.75,-2.66,2,6
17648.484,0.202,0.504,0.826,2.04,-3.54,-2.9,2,6
17648.5,0.203,0.511,0.832,2.9,-3.02,-3.11,2,6
17648.515,0.185,0.514,0.829,5.28,-2.53,-2.81,2,6
17648.531,0.186,0.518,0.825,5.04,-2.75,-2.56,2,6
17648.531,0.184,0.52,0.826,4.46,-3.11,-2.62,2,6
17648.546,0.179,0.52,0.828,4.27,-3.33,-2.26,2,6
17648.546,0.181,0.52,0.828,4.3,-3.6,-1.28,2,6
17648.562,0.181,0.521,0.827,4.27,-3.81,-0.7,2,6
17648.578,0.188,0.523,0.824,3.85,-4.39,-0.73,2,6
17648.578,0.19,0.519,0.817,3.57,-4.46,-1.07,2,6
17648.593,0.198,0.518,0.814,3.14,-4.36,-0.82,2,6
17648.609,0.203,0.522,0.815,2.78,-3.88,-0.92,2,6
17648.609,0.198,0.523,0.815,2.66,-3.33,-1.28,2,6
17648.625,0.203,0.525,0.817,2.08,-3.05,-0.67,2,6
17648.64,0.201,0.531,0.82,1.89,-2.81,-0.24,2,6
17648.64,0.199,0.531,0.814,0.79,-2.99,0.03,2,6
17648.656,0.203,0.528,0.812,-0.37,-2.9,-0.18,2,6
17648.656,0.207,0.522,0.812,-1.01,-2.44,-0.24,2,6
17648.687,0.204,0.509,0.813,-1.19,-1.01,-0.79,2,6
17648.703,0.202,0.507,0.813,-1.37,-0.37,-1.77,2,6
17648.703,0.196,0.512,0.823,-1.56,-0.27,-2.99,2,6
17648.718,0.191,0.52,0.836,-1.37,-0.67,-3.63,2,6
17648.718,0.184,0.524,0.834,-0.4,-1.13,-3.75,2,6
17648.734,0.18,0.528,0.829,0.43,-1.74,-3.17,2,6
17648.75,0.183,0.527,0.817,0.89,-2.04,-2.35,2,6
17648.75,0.188,0.525,0.806,0.67,-1.83,-1.62,2,6
17648.765,0.189,0.526,0.806,-0.31,-0.98,-1.22,2,6
17648.781,0.194,0.527,0.809,-1.53,-0.15,-1.04,2,6
17648.781,0.196,0.529,0.813,-2.2,0.24,-0.49,2,6
17648.796,0.194,0.525,0.818,-2.41,0.61,-0.15,2,6
17648.796,0.195,0.522,0.821,-3.05,0.49,-0.06,2,6
17648.812,0.202,0.518,0.82,-3.81,0.12,-0.06,2,6
17648.828,0.205,0.512,0.823,-3.94,0.4,-0.27,2,6
17648.828,0.204,0.508,0.822,-3.2,1.22,-0.46,2,6
17648.843,0.2,0.509,0.824,-2.62,1.59,-0.67,2,6
17648.859,0.198,0.507,0.824,-2.78,1.5,-1.01,2,6
17648.859,0.197,0.512,0.824,-2.75,1.4,-1.43,2,6
17648.875,0.191,0.521,0.828,-2.32,1.5,-1.37,2,6
17648.89,0.184,0.53,0.835,-2.17,1.1,-1.04,2,6
17648.89,0.18,0.53,0.832,-2.32,0.31,-0.43,2,6
17648.906,0.181,0.527,0.827,-2.29,-0.15,0.34,2,6
17648.906,0.185,0.519,0.822,-2.11,-0.09,0.98,2,6
17648.921,0.185,0.512,0.818,-2.29,0.15,1.43,2,6
17648.937,0.189,0.508,0.819,-2.84,0.09,1.56,2,6
17648.937,0.196,0.504,0.82,-3.33,0.15,1.01,2,6
17648.953,0.198,0.503,0.822,-3.17,0.98,0.34,2,6
17648.968,0.192,0.504,0.826,-2.5,1.83,-0.18,2,6
17648.968,0.187,0.512,0.832,-1.74,2.14,-0.31,2,6
17648.984,0.184,0.518,0.833,-1.53,1.74,-0.21,2,6
17649.0,0.183,0.518,0.837,-1.95,1.22,0.0,2,6
17649.0,0.179,0.516,0.84,-2.23,0.46,0.27,2,6
17649.015,0.179,0.514,0.84,-2.44,-0.73,0.79,2,6
17649.015,0.187,0.508,0.833,-2.38,-1.86,1.31,2,6
17649.031,0.194,0.499,0.828,-2.11,-2.14,1.16,2,6
17649.046,0.196,0.498,0.824,-1.65,-1.62,0.73,2,6
17649.046,0.199,0.5,0.821,-1.22,-1.07,0.27,2,6
17649.062,0.197,0.499,0.821,-0.79,-0.12,-0.52,2,6
17649.078,0.196,0.508,0.823,-0.49,0.61,-0.95,2,6
17649.078,0.191,0.52,0.83,-0.27,0.79,-1.25,2,6
17649.093,0.184,0.521,0.829,-0.31,0.73,-1.19,2,6
17649.109,0.18,0.519,0.829,-0.82,0.27,-0.79,2,6
17649.109,0.183,0.519,0.829,-1.71,-0.37,-0.24,2,6
17649.125,0.187,0.516,0.829,-2.5,-0.73,0.24,2,6
17649.14,0.187,0.509,0.826,-3.02,-0.61,0.76,2,6
17649.14,0.191,0.501,0.824,-3.27,-0.43,1.01,2,6
17649.156,0.195,0.497,0.83,-3.42,-0.12,0.55,2,6
17649.156,0.192,0.498,0.837,-3.02,0.15,-0.31,2,6
17649.171,0.185,0.498,0.843,-2.56,-0.06,-0.76,2,6
17649.187,0.185,0.503,0.847,-2.11,-0.76,-1.07,2,6
17649.203,0.186,0.506,0.835,-0.67,-2.08,-1.22,2,6
17649.218,0.187,0.512,0.83,-0.52,-2.04,-0.73,2,6
17649.234,0.188,0.516,0.823,-0.52,-1.74,-0.12,2,6
17649.234,0.192,0.512,0.82,-1.16,-1.4,0.43,2,6
17649.25,0.195,0.511,0.816,-1.89,-0.67,0.79,2,6
17649.25,0.198,0.507,0.819,-2.56,0.09,1.04,2,6
17649.265,0.199,0.499,0.82,-2.66,1.01,0.98,2,6
17649.281,0.201,0.497,0.822,-2.44,1.89,0.79,2,6
17649.281,0.202,0.501,0.83,-2.14,2.84,0.61,2,6
17649.296,0.197,0.502,0.852,-2.01,3.39,0.15,2,6
17649.296,0.186,0.504,0.865,-1.68,2.9,-0.85,2,6
17649.312,0.185,0.502,0.85,-0.43,1.01,-1.74,2,6
17649.328,0.186,0.495,0.828,0.24,0.34,-1.95,2,6
17649.328,0.179,0.499,0.833,0.67,0.34,-1.62,2,6
17649.343,0.178,0.497,0.833,0.27,-0.06,-1.25,2,6
17649.359,0.176,0.502,0.838,-0.58,-0.61,-1.46,2,6
17649.375,0.172,0.508,0.845,0.85,-1.19,-0.12,2,6
17649.39,0.171,0.509,0.841,0.82,-2.17,0.18,2,6
17649.39,0.176,0.503,0.831,0.67,-3.14,0.18,2,6
17649.406,0.181,0.5,0.825,0.61,-2.93,0.09,2,6
17649.406,0.187,0.502,0.822,0.55,-2.26,0.21,2,6
17649.421,0.188,0.502,0.819,0.24,-1.19,0.46,2,6
17649.437,0.192,0.5,0.825,-0.24,-0.73,0.49,2,6
17649.437,0.191,0.505,0.833,-1.19,-0.27,0.34,2,6
17649.453,0.188,0.499,0.836,-1.19,-0.52,0.03,2,6
17649.468,0.194,0.511,0.846,-1.62,-0.89,0.34,2,6
17649.468,0.186,0.504,0.842,-0.98,-1.01,0.27,2,6
17649.484,0.188,0.502,0.839,-0.73,-1.43,0.64,2,6
17649.5,0.189,0.5,0.834,-0.34,-1.53,0.64,2,6
17649.5,0.188,0.494,0.832,-0.34,-1.59,0.15,2,6
17649.515,0.196,0.495,0.834,-0.09,-1.37,-0.37,2,6
17649.531,0.196,0.5,0.837,0.27,-0.7,-1.31,2,6
17649.546,0.194,0.503,0.824,1.31,-0.03,-3.33,2,6
17649.546,0.188,0.506,0.833,1.68,0.15,-3.3,2,6
17649.562,0.183,0.516,0.827,1.46,-0.09,-3.05,2,6
17649.578,0.175,0.516,0.834,0.46,-0.31,-2.38,2,6
17649.578,0.179,0.511,0.83,-0.58,-1.07,-1.25,2,6
17649.593,0.181,0.507,0.822,-2.01,-1.22,-0.7,2,6
17649.609,0.182,0.495,0.824,-2.96,-0.95,-0.43,2,6
17649.609,0.188,0.501,0.838,-3.6,-0.34,-0.82,2,6
17649.625,0.182,0.498,0.841,-2.75,-0.73,-0.89,2,6
17649.64,0.176,0.493,0.848,-1.56,-1.37,-0.82,2,6
17649.64,0.184,0.501,0.834,-0.43,-1.43,-0.98,2,6
17649.656,0.188,0.503,0.836,0.03,-1.16,-1.16,2,6
17649.656,0.183,0.506,0.838,0.12,-0.89,-1.43,2,6
17649.671,0.179,0.516,0.823,-0.46,-0.79,-1.37,2,6
17649.687,0.183,0.533,0.808,-2.01,0.31,0.09,2,6
17649.687,0.172,0.532,0.802,-4.64,1.62,1.95,2,6
17649.703,0.183,0.519,0.75,-9.64,2.23,3.81,2,6
17649.718,0.241,0.505,0.72,-17.52,5.71,4.06,2,6
17649.718,0.142,0.559,0.861,-19.32,12.15,3.36,2,6
17649.734,0.144,0.523,0.884,-17.76,8.55,8.3,2,6
17649.75,0.165,0.538,0.896,-23.13,2.56,8.42,2,6
17649.75,0.159,0.474,0.903,-21.7,-1.1,8.79,2,6
17649.765,0.196,0.425,0.86,-17.4,-3.69,9.98,2,6
17649.781,0.216,0.408,0.834,-13.12,-1.83,8.64,2,6
17649.781,0.216,0.395,0.852,-9.43,0.89,5.83,2,6
17649.796,0.2,0.41,0.886,-5.77,2.17,2.99,2,6
17649.812,0.183,0.424,0.921,-2.56,0.58,0.18,2,6
17649.812,0.165,0.435,0.94,1.77,-3.3,-2.56,2,6
17649.828,0.149,0.459,0.931,6.96,-7.97,-4.39,2,6
17649.828,0.151,0.49,0.914,10.35,-12.85,-4.73,2,6
17649.843,0.124,0.514,0.901,12.51,-16.54,-3.94,2,6
17649.859,0.201,0.461,0.804,13.37,-19.07,0.03,2,6
17649.875,0.224,0.488,0.731,9.13,-15.35,-1.25,2,6
17649.875,0.2,0.499,0.766,9.19,-5.83,0.82,2,6
17649.89,0.225,0.499,0.785,8.58,-1.5,3.78,2,6
17649.89,0.224,0.519,0.813,3.42,0.7,3.3,2,6
17649.906,0.224,0.499,0.825,0.67,1.62,2.26,2,6
17649.906,0.213,0.49,0.833,1.37,2.35,1.74,2,6
17649.921,0.2,0.494,0.85,1.4,2.38,1.5,2,6
17649.937,0.187,0.496,0.872,1.4,0.85,0.92,2,6
17649.937,0.181,0.494,0.874,2.23,-1.71,0.76,2,6
17649.953,0.181,0.495,0.87,2.99,-4.12,0.58,2,6
17649.968,0.182,0.485,0.839,4.76,-5.86,0.58,2,6
17649.968,0.189,0.489,0.819,4.7,-5.58,1.04,2,6
17649.984,0.198,0.489,0.823,3.11,-4.7,1.25,2,6
17650.0,0.21,0.492,0.817,1.86,-3.54,0.92,2,6
17650.0,0.215,0.489,0.814,1.65,-1.4,0.85,2,6
17650.015,0.216,0.483,0.812,1.1,0.79,0.85,2,6
17650.015,0.212,0.477,0.818,-0.46,2.38,0.27,2,6
17650.031,0.204,0.482,0.844,-2.01,3.33,-0.52,2,6
17650.046,0.192,0.488,0.865,-2.78,2.87,-1.07,2,6
17650.062,0.175,0.482,0.876,-0.73,-0.64,-0.98,2,6
17650.078,0.177,0.481,0.867,0.03,-2.99,-0.85,2,6
17650.093,0.19,0.476,0.852,0.52,-4.79,-1.16,2,6
17650.093,0.201,0.474,0.84,1.16,-5.01,-1.83,2,6
17650.109,0.203,0.486,0.834,2.72,-3.94,-1.86,2,6
17650.109,0.204,0.498,0.829,4.09,-2.62,-1.59,2,6
17650.125,0.204,0.501,0.823,4.55,-1.68,-1.37,2,6
17650.14,0.206,0.503,0.817,4.09,-1.04,-1.25,2,6
17650.14,0.207,0.507,0.814,3.48,-0.18,-0.82,2,6
17650.156,0.207,0.511,0.811,2.78,1.1,-0.18,2,6
17650.156,0.204,0.507,0.817,1.19,2.23,-0.06,2,6
17650.171,0.191,0.504,0.832,-0.85,2.9,-0.12,2,6
17650.187,0.181,0.503,0.856,-2.53,2.32,0.24,2,6
17650.187,0.176,0.496,0.87,-2.69,1.22,1.07,2,6
17650.203,0.18,0.484,0.869,-2.29,-0.58,1.74,2,6
17650.218,0.189,0.479,0.86,-2.04,-2.44,1.74,2,6
17650.234,0.202,0.468,0.837,0.0,-2.29,1.43,2,6
17650.25,0.207,0.468,0.829,0.52,-1.74,0.76,2,6
17650.25,0.209,0.472,0.829,1.1,-0.55,-0.31,2,6
17650.265,0.203,0.475,0.83,1.86,0.89,-1.4,2,6
17650.265,0.198,0.485,0.831,2.72,1.95,-2.14,2,6
17650.281,0.195,0.497,0.838,3.42,2.81,-2.38,2,6
17650.296,0.186,0.507,0.852,4.03,3.05,-2.29,2,6
17650.312,0.182,0.514,0.857,4.33,2.04,-1.34,2,6
17650.312,0.183,0.512,0.852,4.12,0.27,-0.43,2,6
17650.328,0.186,0.506,0.841,3.45,-1.4,-0.03,2,6
17650.328,0.192,0.504,0.828,2.56,-1.89,0.18,2,6
17650.343,0.197,0.503,0.815,1.56,-1.53,0.49,2,6
17650.359,0.204,0.501,0.815,0.24,0.09,1.04,2,6
17650.359,0.201,0.489,0.821,-0.95,1.4,0.76,2,6
17650.375,0.201,0.489,0.833,-1.37,2.59,0.55,2,6
17650.39,0.193,0.492,0.854,-1.07,3.17,0.67,2,6
17650.406,0.181,0.492,0.868,0.73,0.79,0.89,2,6
17650.406,0.182,0.488,0.861,1.77,-1.22,1.1,2,6
17650.421,0.19,0.483,0.847,2.53,-2.69,0.98,2,6
17650.437,0.197,0.485,0.834,2.99,-2.84,0.43,2,6
17650.437,0.197,0.487,0.824,3.54,-2.04,0.09,2,6
17650.453,0.196,0.494,0.824,3.97,-1.19,-0.15,2,6
17650.468,0.193,0.503,0.828,3.45,-0.52,-0.58,2,6
17650.468,0.187,0.505,0.83,2.96,-0.31,-1.04,2,6
17650.484,0.186,0.51,0.833,2.44,-0.73,-0.92,2,6
17650.5,0.187,0.507,0.833,2.26,-1.16,-0.61,2,6
17650.5,0.192,0.511,0.833,1.31,-1.34,-0.09,2,6
17650.515,0.191,0.503,0.827,1.25,-1.25,0.21,2,6
17650.531,0.201,0.505,0.824,0.64,-1.16,0.73,2,6
17650.531,0.198,0.499,0.82,0.37,-0.06,0.7,2,6
17650.546,0.2,0.495,0.823,0.12,0.7,0.64,2,6
17650.546,0.206,0.495,0.827,-0.46,1.37,0.7,2,6
17650.562,0.198,0.489,0.827,-0.4,2.26,0.24,2,6
17650.578,0.199,0.489,0.835,-0.73,2.53,0.0,2,6
17650.578,0.196,0.493,0.845,-0.85,2.38,-0.55,2,6
17650.593,0.193,0.491,0.851,-0.12,1.01,-1.43,2,6
17650.609,0.19,0.486,0.854,0.85,-0.06,-1.86,2,6
17650.625,0.185,0.488,0.852,2.04,-0.82,-2.11,2,6
17650.625,0.184,0.488,0.849,3.23,-1.13,-2.26,2,6
17650.625,0.183,0.494,0.835,4.09,-1.07,-2.59,2,6
17650.64,0.181,0.504,0.826,3.78,-1.1,-2.69,2,6
17650.656,0.193,0.514,0.81,2.23,-1.01,-2.69,2,6
17650.656,0.209,0.518,0.787,0.61,0.92,-2.44,2,6
17650.671,0.22,0.518,0.773,-1.1,4.39,-2.11,2,6
17650.687,0.215,0.52,0.794,-3.51,7.75,-2.2,2,6
17650.687,0.203,0.513,0.823,-4.52,10.04,-2.32,2,6
17650.703,0.185,0.514,0.853,-4.39,10.86,-2.5,2,6
17650.718,0.179,0.515,0.868,-3.36,9.77,-2.04,2,6
17650.718,0.207,0.519,0.865,-2.41,8.39,-1.65,2,6
17650.734,0.209,0.509,0.859,-1.56,8.03,-3.39,2,6
17650.75,0.231,0.504,0.864,-1.28,7.2,-5.04,2,6
17650.75,0.282,0.517,0.889,-1.16,6.23,-5.98,2,6
17650.765,0.289,0.515,0.901,2.17,8.36,-7.84,2,6
17650.765,0.258,0.509,0.889,6.47,11.87,-10.65,2,6
17650.781,0.218,0.489,0.884,9.83,13.61,-13.89,2,6
17650.796,0.181,0.493,0.855,12.57,13.46,-16.57,2,6
17650.812,0.209,0.537,0.834,12.7,12.15,-14.5,2,6
17650.812,0.35,0.573,0.942,9.13,2.53,7.17,2,6
17650.828,0.261,0.719,0.885,25.91,5.19,22.22,2,6
17650.828,0.394,0.693,0.777,17.76,8.94,22.89,2,6
17650.843,0.371,0.578,0.764,-15.35,12.18,26.73,2,6
17650.859,0.339,0.502,0.765,-41.78,15.38,22.1,2,6
17650.859,0.339,0.419,0.776,-57.68,17.33,16.3,2,6
17650.875,0.368,0.344,0.815,-59.42,20.45,9.95,2,6
17650.89,0.338,0.303,0.81,-45.93,26.22,-2.04,2,6
17650.89,0.302,0.294,0.792,-29.24,33.17,-12.88,2,6
17650.906,0.257,0.316,0.778,-13.58,39.22,-23.83,2,6
17650.906,0.202,0.336,0.764,-0.37,45.05,-32.17,2,6
17650.921,0.149,0.366,0.746,11.47,51.18,-35.83,2,6
17650.937,0.081,0.401,0.735,22.77,58.53,-33.54,2,6
17650.937,-0.013,0.444,0.732,29.69,64.12,-27.19,2,6
17650.953,-0.092,0.491,0.753,27.68,61.86,-19.01,2,6
17650.968,-0.128,0.531,0.779,16.14,51.55,-11.96,2,6
17650.968,-0.125,0.544,0.78,-2.87,38.27,-7.23,2,6
17650.984,-0.098,0.524,0.765,-23.71,26.73,-5.68,2,6
17651.0,-0.066,0.487,0.756,-38.79,21.85,-6.56,2,6
17651.0,-0.041,0.462,0.766,-44.68,24.63,-9.25,2,6
17651.015,-0.127,0.494,0.852,-41.23,32.56,-12.85,2,6
17651.031,-0.246,0.536,1.106,-29.08,33.45,-10.07,2,6
17651.031,-0.413,0.639,1.289,-12.6,13.31,-1.5,2,6
17651.046,-0.206,0.611,1.199,-3.78,-18.43,15.26,2,6
17651.046,-0.0,0.534,0.967,-15.44,-38.09,13.0,2,6
17651.062,0.041,0.463,0.871,-19.41,-26.55,8.24,2,6
17651.078,0.001,0.389,0.841,-5.68,-7.57,7.6,2,6
17651.078,-0.052,0.366,0.839,5.49,4.46,6.96,2,6
17651.093,-0.1,0.388,0.882,7.11,8.24,6.13,2,6
17651.109,-0.137,0.411,0.939,6.47,3.69,3.78,2,6
17651.109,-0.18,0.398,0.98,7.97,-7.2,2.26,2,6
17651.125,-0.184,0.432,1.002,13.25,-21.79,5.34,2,6
17651.14,-0.14,0.485,0.997,22.77,-33.23,13.09,2,6
17651.14,-0.071,0.523,0.962,26.43,-43.21,17.98,2,6
17651.156,-0.086,0.615,0.864,27.13,-44.62,22.98,2,6
17651.156,-0.025,0.57,0.863,13.64,-44.37,27.44,2,6
17651.171,-0.001,0.551,0.886,-8.45,-51.48,19.87,2,6
17651.187,0.029,0.513,0.858,-20.08,-54.96,17.03,2,6
17651.187,0.036,0.457,0.87,-20.05,-55.85,15.41,2,6
17651.203,0.043,0.443,0.888,-11.2,-56.83,15.87,2,6
17651.218,0.062,0.444,0.872,2.87,-57.56,19.41,2,6
17651.218,0.108,0.432,0.817,15.96,-59.66,21.73,2,6
17651.234,0.172,0.456,0.766,17.85,-60.03,21.79,2,6
17651.25,0.238,0.465,0.718,14.56,-56.58,19.29,2,6
17651.25,0.298,0.452,0.67,9.34,-46.54,16.27,2,6
17651.265,0.352,0.436,0.628,4.12,-30.73,13.18,2,6
17651.281,0.354,0.401,0.628,2.87,-11.84,8.3,2,6
17651.281,0.315,0.381,0.655,-0.03,2.78,1.68,2,6
17651.296,0.32,0.368,0.662,-6.93,11.17,-6.13,2,6
17651.296,0.346,0.343,0.695,-12.57,18.46,-15.87,2,6
17651.312,0.343,0.342,0.726,-14.04,27.8,-25.97,2,6
17651.328,0.286,0.334,0.774,-8.79,36.13,-32.72,2,6
17651.328,0.24,0.529,0.928,-17.82,33.85,-30.46,2,6
17651.343,0.342,0.513,0.924,-19.2,31.01,-21.94,2,6
17651.359,0.179,0.438,1.005,-17.24,28.66,-18.8,2,6
17651.359,0.22,0.613,1.156,-31.95,14.8,-9.83,2,6
17651.375,0.213,0.479,1.118,-13.18,1.22,-0.95,2,6
17651.39,0.225,0.47,1.062,3.3,-7.45,7.63,2,6
17651.39,0.248,0.476,1.001,16.08,-12.54,10.74,2,6
17651.406,0.19,0.46,0.929,25.42,-14.62,7.11,2,6
17651.406,0.162,0.447,0.874,27.92,-17.55,4.33,2,6
17651.421,0.146,0.459,0.84,28.08,-21.21,2.59,2,6
17651.437,0.114,0.472,0.831,29.27,-23.1,3.36,2,6
17651.437,0.079,0.492,0.821,30.37,-26.4,6.07,2,6
17651.453,0.077,0.498,0.806,26.8,-31.13,10.38,2,6
17651.468,0.097,0.504,0.804,17.52,-35.58,13.95,2,6
17651.468,0.146,0.562,0.823,2.78,-38.91,16.94,2,6
17651.484,0.253,0.471,0.77,1.71,-33.14,19.5,2,6
17651.5,0.21,0.482,0.787,4.06,-20.33,20.05,2,6
17651.5,0.233,0.575,0.878,0.46,-12.73,23.1,2,6
17651.515,0.224,0.507,0.895,5.1,-9.31,24.08,2,6
17651.515,0.211,0.487,0.878,6.78,-7.29,24.99,2,6
17651.531,0.22,0.465,0.864,9.31,-6.96,24.41,2,6
17651.546,0.22,0.442,0.827,12.3,-5.83,22.34,2,6
17651.546,0.237,0.429,0.795,13.31,-4.49,20.05,2,6
17651.562,0.255,0.429,0.782,13.0,-1.77,16.17,2,6
17651.578,0.25,0.443,0.776,11.47,2.08,12.09,2,6
17651.578,0.252,0.459,0.78,1.89,5.52,4.79,2,6
17651.593,0.26,0.464,0.792,-1.16,6.5,0.95,2,6
17651.609,0.26,0.472,0.811,-1.98,7.2,-1.74,2,6
17651.609,0.214,0.508,0.91,-0.67,4.18,-1.89,2,6
17651.625,0.217,0.504,0.91,2.62,-0.89,0.0,2,6
17651.64,0.21,0.499,0.887,7.2,-3.78,0.58,2,6
17651.64,0.202,0.493,0.858,10.68,-5.13,0.15,2,6
17651.656,0.196,0.49,0.826,10.35,-6.16,-0.43,2,6
17651.656,0.2,0.49,0.805,6.68,-6.26,-1.13,2,6
17651.671,0.212,0.49,0.793,2.93,-4.82,-1.56,2,6
17651.687,0.213,0.493,0.787,0.4,-1.77,-1.43,2,6
17651.687,0.216,0.493,0.795,-1.62,1.28,-0.92,2,6
17651.703,0.228,0.496,0.807,-2.35,3.78,-0.46,2,6
17651.718,0.225,0.498,0.823,-1.89,6.01,-0.4,2,6
17651.718,0.218,0.493,0.84,-0.52,7.2,-0.27,2,6
17651.734,0.219,0.495,0.856,0.34,6.99,0.06,2,6
17651.75,0.209,0.492,0.871,0.89,5.89,-0.7,2,6
17651.75,0.198,0.485,0.87,2.17,3.78,-1.8,2,6
17651.765,0.203,0.479,0.858,2.96,1.77,-2.32,2,6
17651.765,0.199,0.474,0.847,3.14,0.61,-3.39,2,6
17651.781,0.2,0.481,0.831,3.57,0.18,-4.06,2,6
17651.796,0.208,0.495,0.823,3.42,0.7,-3.88,2,6
17651.796,0.202,0.507,0.823,2.69,1.46,-3.48,2,6
17651.812,0.204,0.52,0.823,1.5,1.53,-2.47,2,6
17651.828,0.206,0.522,0.824,0.49,1.53,-1.86,2,6
17651.828,0.209,0.521,0.825,-0.31,1.34,-1.16,2,6
17651.843,0.209,0.52,0.824,-0.27,1.62,-0.46,2,6
17651.859,0.201,0.51,0.817,-0.37,2.29,-0.12,2,6
17651.859,0.195,0.503,0.821,-1.65,2.78,-0.03,2,6
17651.875,0.193,0.497,0.833,-2.93,2.87,-0.15,2,6
17651.89,0.193,0.492,0.84,-3.78,2.44,-0.21,2,6
17651.89,0.197,0.491,0.848,-4.12,2.08,-0.24,2,6
17651.906,0.195,0.492,0.856,-3.3,1.74,-0.12,2,6
17651.906,0.193,0.49,0.852,-2.53,1.22,0.27,2,6
17651.921,0.197,0.49,0.844,-2.2,0.67,0.7,2,6
17651.937,0.206,0.483,0.847,-1.68,1.25,0.64,2,6
17651.953,0.214,0.481,0.841,0.06,2.5,0.49,2,6
17651.968,0.209,0.484,0.827,2.59,4.0,0.76,2,6
17651.984,0.199,0.493,0.833,2.69,4.24,0.61,2,6
17651.984,0.199,0.493,0.842,1.19,2.93,-0.49,2,6
17652.0,0.193,0.488,0.845,0.4,1.59,-1.62,2,6
17652.0,0.193,0.49,0.846,0.85,0.64,-1.83,2,6
17652.015,0.194,0.494,0.841,1.77,0.09,-1.86,2,6
17652.015,0.188,0.5,0.842,2.41,-0.43,-1.83,2,6
17652.031,0.179,0.508,0.842,2.29,-1.19,-1.53,2,6
17652.046,0.176,0.515,0.842,1.25,-2.44,-0.73,2,6
17652.062,0.18,0.514,0.839,-0.18,-3.97,0.21,2,6
17652.062,0.187,0.51,0.834,-0.85,-4.27,1.01,2,6
17652.078,0.192,0.505,0.827,-0.15,-3.36,2.29,2,6
17652.078,0.192,0.506,0.832,-0.61,-2.2,3.45,2,6
17652.093,0.194,0.513,0.85,-1.83,-1.43,4.03,2,6
17652.109,0.171,0.535,0.922,1.46,0.55,5.19,2,6
17652.125,0.154,0.562,0.946,8.15,1.89,5.04,2,6
17652.14,0.152,0.605,0.957,14.77,3.33,4.24,2,6
17652.14,0.153,0.654,0.974,18.92,5.86,2.84,2,6
17652.156,0.141,0.705,1.012,21.03,9.67,2.11,2,6
17652.156,0.073,0.674,1.04,23.1,14.1,1.98,2,6
17652.171,0.014,0.653,1.059,44.43,19.62,-13.03,2,6
17652.187,-0.028,0.761,1.037,65.25,18.1,-19.56,2,6
17652.187,-0.1,0.775,0.953,69.86,18.22,-20.66,2,6
17652.203,-0.076,0.793,0.911,67.02,14.5,-12.91,2,6
17652.218,-0.04,0.797,0.861,62.41,15.53,-0.55,2,6
17652.234,-0.007,0.794,0.819,51.85,19.32,9.98,2,6
17652.234,0.004,0.743,0.805,37.97,26.55,18.77,2,6
17652.25,0.001,0.666,0.817,27.1,33.66,24.41,2,6
17652.25,-0.001,0.587,0.836,24.48,39.64,27.25,2,6
17652.265,0.0,0.533,0.836,29.88,43.92,27.22,2,6
17652.281,0.035,0.507,0.809,45.14,52.86,19.68,2,6
17652.296,0.043,0.496,0.814,52.46,59.33,12.76,2,6
17652.312,0.019,0.497,0.808,58.63,65.77,5.55,2,6
17652.312,-0.007,0.499,0.81,61.83,68.27,-0.98,2,6
17652.328,-0.007,0.522,0.822,63.39,66.99,-7.05,2,6
17652.328,0.009,0.54,0.819,64.85,66.65,-12.09,2,6
17652.343,0.014,0.529,0.783,65.71,67.72,-16.02,2,6
17652.359,0.034,0.503,0.741,66.16,70.25,-18.01,2,6
17652.359,0.085,0.504,0.729,68.54,76.3,-19.75,2,6
17652.375,0.069,0.524,0.749,74.22,87.13,-25.67,2,6
17652.39,0.029,0.509,0.793,80.39,94.91,-30.61,2,6
17652.39,-0.019,0.522,0.795,86.58,97.51,-34.7,2,6
17652.406,-0.094,0.54,0.777,93.26,92.2,-39.58,2,6
17652.406,-0.133,0.56,0.772,95.95,78.04,-44.74,2,6
17652.421,-0.129,0.59,0.754,95.77,60.88,-49.32,2,6
17652.437,-0.115,0.616,0.72,89.75,41.57,-54.08,2,6
17652.453,-0.031,0.621,0.586,70.35,19.38,-60.15,2,6
17652.468,-0.012,0.612,0.529,63.33,18.8,-61.07,2,6
17652.468,0.004,0.598,0.485,58.72,22.61,-59.54,2,6
17652.484,0.017,0.585,0.456,55.64,30.09,-57.31,2,6
17652.5,0.025,0.58,0.444,52.25,39.46,-56.15,2,6
17652.5,0.032,0.568,0.447,48.74,49.53,-57.16,2,6
17652.515,0.041,0.562,0.446,46.91,60.98,-60.67,2,6
17652.515,0.036,0.557,0.429,47.52,74.47,-65.95,2,6
17652.531,0.014,0.545,0.412,49.9,89.42,-71.41,2,6
17652.546,-0.027,0.542,0.412,54.45,104.86,-76.2,2,6
17652.546,-0.097,0.536,0.419,61.59,118.32,-80.39,2,6
17652.562,-0.182,0.525,0.435,79.87,126.47,-82.8,2,6
17652.578,-0.235,0.501,0.437,89.97,123.42,-81.82,2,6
17652.593,-0.249,0.496,0.411,98.48,121.34,-83.01,2,6
17652.593,-0.24,0.488,0.37,103.61,122.65,-86.95,2,6
17652.609,-0.226,0.502,0.291,104.01,127.51,-94.49,2,6
17652.625,-0.232,0.537,0.25,99.43,135.65,-105.38,2,6
17652.625,-0.264,0.584,0.211,91.83,148.08,-117.04,2,6
17652.64,-0.309,0.653,0.165,81.58,164.19,-126.65,2,6
17652.64,-0.353,0.725,0.116,66.9,183.63,-134.04,2,6
17652.656,-0.412,0.758,0.088,47.12,204.17,-141.0,2,6
17652.671,-0.483,0.726,0.071,24.32,222.27,-145.91,2,6
17652.671,-0.544,0.656,0.067,-1.22,236.21,-148.35,2,6
17652.687,-0.594,0.584,0.075,-26.86,244.33,-150.91,2,6
17652.687,-0.635,0.496,0.093,-48.31,244.97,-154.15,2,6
17652.703,-0.665,0.419,0.116,-63.72,239.51,-157.11,2,6
17652.718,-0.697,0.382,0.138,-72.48,231.73,-158.12,2,6
17652.718,-0.725,0.38,0.144,-76.24,224.86,-158.91,2,6
17652.734,-0.742,0.373,0.132,-77.79,218.82,-161.2,2,6
17652.75,-0.762,0.356,0.109,-76.88,216.35,-165.11,2,6
17652.75,-0.771,0.348,0.089,-74.13,218.05,-171.94,2,6
17652.765,-0.78,0.325,0.048,-71.5,221.29,-179.82,2,6
17652.781,-0.869,0.282,0.016,-66.68,235.27,-198.16,2,6
17652.796,-0.896,0.259,0.009,-62.81,238.69,-208.35,2,6
17652.796,-0.945,0.239,0.005,-57.22,239.39,-216.01,2,6
17652.812,-1.008,0.303,0.032,-50.84,237.98,-218.67,2,6
17652.828,-1.046,0.359,0.077,-49.32,227.52,-211.37,2,6
17652.828,-1.096,0.381,0.143,-51.12,206.52,-196.36,2,6
17652.843,-1.164,0.407,0.223,-51.67,176.64,-174.32,2,6
17652.859,-1.238,0.427,0.313,-49.93,138.58,-148.01,2,6
17652.859,-1.279,0.411,0.391,-44.22,94.55,-122.81,2,6
17652.875,-1.266,0.374,0.432,-33.66,48.1,-101.78,2,6
17652.89,-1.224,0.311,0.429,-17.91,2.53,-84.96,2,6
17652.89,-1.185,0.221,0.382,7.57,-36.01,-70.59,2,6
17652.906,-1.152,0.129,0.272,44.28,-63.69,-59.02,2,6
17652.906,-1.111,0.128,0.115,83.77,-77.24,-51.79,2,6
17652.921,-1.074,0.17,-0.056,122.71,-74.77,-49.35,2,6
17652.937,-1.06,0.198,-0.24,155.92,-57.56,-51.3,2,6
17652.937,-1.034,0.274,-0.378,171.85,-31.77,-54.45,2,6
17652.953,-1.047,0.36,-0.459,170.75,-1.86,-58.38,2,6
17652.968,-1.068,0.431,-0.479,155.03,28.17,-65.16,2,6
17652.968,-1.06,0.469,-0.46,126.04,50.45,-75.29,2,6
17652.984,-1.07,0.452,-0.433,90.79,64.0,-86.09,2,6
17653.0,-1.08,0.4,-0.397,57.01,70.83,-94.79,2,6
17653.0,-1.077,0.338,-0.366,29.45,71.35,-101.26,2,6
17653.015,-1.061,0.281,-0.362,10.25,71.66,-104.31,2,6
17653.031,-1.043,0.248,-0.385,-0.82,75.81,-103.85,2,6
17653.031,-1.022,0.224,-0.428,-5.28,84.63,-100.28,2,6
17653.046,-1.01,0.188,-0.454,-4.3,97.42,-94.58,2,6
17653.046,-1.004,0.148,-0.466,2.59,112.37,-87.22,2,6
17653.062,-1.005,0.112,-0.464,14.31,127.87,-79.53,2,6
17653.078,-1.019,0.098,-0.462,26.31,139.65,-73.46,2,6
17653.093,-1.03,0.086,-0.459,35.16,146.95,-68.58,2,6
17653.093,-1.04,0.07,-0.455,39.06,149.78,-65.22,2,6
17653.109,-1.032,0.051,-0.455,37.6,150.0,-64.15,2,6
17653.125,-1.031,0.032,-0.466,30.98,148.23,-66.47,2,6
17653.125,-1.033,0.017,-0.465,18.49,143.93,-70.59,2,6
17653.14,-1.033,-0.005,-0.452,4.03,138.98,-74.56,2,6
17653.14,-1.045,-0.043,-0.432,-6.71,134.34,-77.46,2,6
17653.156,-1.048,-0.073,-0.416,-11.84,128.7,-77.15,2,6
17653.171,-1.033,-0.084,-0.413,-11.75,122.35,-73.73,2,6
17653.171,-1.003,-0.088,-0.433,-6.5,118.11,-68.67,2,6
17653.187,-0.978,-0.096,-0.458,2.69,115.97,-63.48,2,6
17653.203,-0.962,-0.093,-0.49,12.94,113.93,-57.68,2,6
17653.203,-0.955,-0.089,-0.531,21.27,111.64,-51.94,2,6
17653.218,-0.949,-0.102,-0.562,27.16,110.02,-47.67,2,6
17653.234,-0.937,-0.12,-0.581,31.77,109.84,-45.23,2,6
17653.234,-0.924,-0.135,-0.616,35.65,111.55,-44.34,2,6
17653.25,-0.907,-0.139,-0.633,35.89,113.8,-43.4,2,6
17653.25,-0.885,-0.143,-0.622,34.33,115.21,-43.95,2,6
17653.265,-0.87,-0.165,-0.629,36.71,115.24,-45.84,2,6
17653.281,-0.835,-0.15,-0.634,41.26,113.35,-47.94,2,6
17653.296,-0.818,-0.125,-0.639,39.0,108.74,-49.13,2,6
17653.296,-0.813,-0.091,-0.632,30.52,102.18,-48.71,2,6
17653.312,-0.808,-0.074,-0.614,18.74,94.33,-45.69,2,6
17653.328,-0.804,-0.089,-0.583,8.45,84.57,-39.7,2,6
17653.343,-0.795,-0.118,-0.553,3.11,72.08,-31.8,2,6
17653.343,-0.779,-0.149,-0.535,3.23,58.38,-23.07,2,6
17653.359,-0.767,-0.17,-0.546,8.27,45.63,-14.8,2,6
17653.359,-0.753,-0.171,-0.578,14.68,34.18,-6.56,2,6
17653.375,-0.747,-0.162,-0.621,19.1,23.47,-0.55,2,6
17653.39,-0.732,-0.184,-0.647,20.23,18.56,5.8,2,6
17653.39,-0.724,-0.187,-0.666,19.65,17.43,10.22,2,6
17653.406,-0.725,-0.19,-0.682,17.88,14.16,12.02,2,6
17653.421,-0.732,-0.2,-0.671,13.64,11.99,13.79,2,6
17653.421,-0.751,-0.201,-0.657,8.94,8.36,14.68,2,6
17653.437,-0.753,-0.21,-0.627,4.49,2.93,15.53,2,6
17653.437,-0.757,-0.22,-0.603,1.62,-3.3,16.17,2,6
17653.453,-0.757,-0.217,-0.584,0.0,-12.36,16.72,2,6
17653.468,-0.75,-0.218,-0.579,-0.37,-22.06,17.88,2,6
17653.484,-0.746,-0.226,-0.608,0.89,-31.22,18.62,2,6
17653.484,-0.733,-0.216,-0.643,1.62,-37.17,19.9,2,6
17653.484,-0.72,-0.203,-0.668,0.55,-38.51,21.27,2,6
17653.5,-0.714,-0.215,-0.694,-1.13,-37.42,22.52,2,6
17653.515,-0.709,-0.233,-0.711,-1.65,-34.64,23.16,2,6
17653.531,-0.702,-0.239,-0.718,-0.64,-30.06,22.77,2,6
17653.531,-0.696,-0.236,-0.723,0.79,-24.14,21.33,2,6
17653.546,-0.692,-0.23,-0.717,-0.61,-15.2,16.14,2,6
17653.546,-0.691,-0.233,-0.706,-2.93,-12.82,12.51,2,6
17653.562,-0.693,-0.224,-0.699,-7.05,-12.45,8.79,2,6
17653.578,-0.694,-0.216,-0.688,-10.9,-12.94,5.07,2,6
17653.578,-0.707,-0.208,-0.671,-14.19,-13.4,2.2,2,6
17653.593,-0.717,-0.208,-0.67,-17.91,-14.86,1.37,2,6
17653.609,-0.717,-0.214,-0.666,-21.12,-16.11,1.98,2,6
17653.609,-0.713,-0.219,-0.669,-22.46,-16.39,2.69,2,6
17653.625,-0.71,-0.228,-0.67,-21.97,-15.81,3.17,2,6
17653.64,-0.706,-0.234,-0.672,-19.41,-14.13,4.03,2,6
17653.64,-0.704,-0.238,-0.672,-15.47,-11.51,5.07,2,6
17653.656,-0.701,-0.238,-0.672,-10.71,-9.37,5.62,2,6
17653.656,-0.703,-0.227,-0.671,-6.96,-8.18,5.86,2,6
17653.671,-0.706,-0.214,-0.673,-5.86,-8.3,5.86,2,6
17653.687,-0.705,-0.21,-0.668,-7.26,-10.07,5.1,2,6
17653.687,-0.698,-0.212,-0.663,-9.64,-13.31,3.69,2,6
17653.703,-0.698,-0.215,-0.659,-12.42,-16.42,1.53,2,6
17653.718,-0.705,-0.223,-0.664,-14.16,-18.83,-1.01,2,6
17653.718,-0.712,-0.221,-0.677,-16.17,-19.93,-2.87,2,6
17653.734,-0.716,-0.214,-0.684,-18.56,-19.44,-3.69,2,6
17653.75,-0.724,-0.215,-0.689,-20.42,-18.56,-4.09,2,6
17653.75,-0.737,-0.219,-0.69,-21.52,-17.03,-4.79,2,6
17653.765,-0.751,-0.211,-0.682,-21.61,-15.23,-6.23,2,6
17653.781,-0.791,-0.177,-0.656,-23.5,-14.74,-9.49,2,6
17653.796,-0.805,-0.159,-0.643,-24.96,-16.69,-10.35,2,6
17653.796,-0.816,-0.144,-0.636,-26.76,-19.9,-10.32,2,6
17653.812,-0.834,-0.129,-0.637,-29.3,-23.62,-9.37,2,6
17653.828,-0.87,-0.115,-0.635,-31.59,-27.22,-7.6,2,6
17653.828,-0.914,-0.092,-0.634,-33.3,-30.85,-4.97,2,6
17653.843,-0.968,-0.065,-0.63,-36.26,-34.55,-0.95,2,6
17653.859,-1.018,-0.047,-0.617,-40.68,-38.06,5.43,2,6
17653.875,-1.076,-0.023,-0.609,-44.34,-41.51,14.31,2,6
17653.875,-1.155,0.028,-0.6,-47.3,-44.59,26.7,2,6
17653.89,-1.238,0.088,-0.576,-52.43,-48.49,43.28,2,6
17653.89,-1.315,0.162,-0.561,-58.63,-55.27,63.94,2,6
17653.906,-1.38,0.236,-0.503,-62.72,-64.94,87.92,2,6
17653.906,-1.431,0.243,-0.415,-58.17,-78.28,112.52,2,6
17653.921,-1.471,0.21,-0.357,-40.44,-93.17,137.52,2,6
17653.937,-1.513,0.223,-0.359,-14.4,-108.92,160.99,2,6
17653.953,-1.553,0.255,-0.424,12.09,-123.72,180.67,2,6
17653.953,-1.579,0.276,-0.515,32.26,-134.92,195.68,2,6
17653.968,-1.573,0.311,-0.604,40.13,-138.92,207.65,2,6
17653.984,-1.574,0.356,-0.691,38.15,-133.03,215.19,2,6
17653.984,-1.585,0.413,-0.724,27.74,-122.47,219.79,2,6
17654.0,-1.595,0.464,-0.699,13.12,-111.18,224.1,2,6
17654.015,-1.617,0.49,-0.657,0.37,-101.5,229.29,2,6
17654.015,-1.627,0.52,-0.614,-8.76,-96.07,236.46,2,6
17654.031,-1.623,0.56,-0.561,-13.4,-92.93,244.73,2,6
17654.031,-1.608,0.579,-0.527,-15.11,-91.13,250.25,2,6
17654.046,-1.586,0.634,-0.526,-19.07,-91.46,252.88,2,6
17654.046,-1.572,0.675,-0.518,-28.78,-92.96,256.48,2,6
17654.062,-1.581,0.681,-0.519,-42.73,-96.16,259.68,2,6
17654.078,-1.581,0.707,-0.514,-59.27,-101.47,261.54,2,6
17654.078,-1.525,0.714,-0.488,-78.92,-108.46,261.7,2,6
17654.093,-1.462,0.651,-0.47,-97.32,-115.42,259.1,2,6
17654.109,-1.33,0.607,-0.452,-121.46,-121.28,242.56,2,6
17654.125,-1.232,0.629,-0.442,-131.93,-118.84,228.98,2,6
17654.14,-1.147,0.634,-0.419,-145.48,-114.2,213.87,2,6
17654.14,-1.054,0.689,-0.37,-160.8,-110.81,197.15,2,6
17654.156,-0.961,0.731,-0.339,-175.7,-110.51,181.59,2,6
17654.156,-0.898,0.761,-0.315,-192.27,-112.77,168.22,2,6
17654.171,-0.814,0.794,-0.293,-210.33,-119.6,157.48,2,6
17654.187,-0.733,0.784,-0.291,-226.42,-126.99,150.82,2,6
17654.187,-0.664,0.734,-0.282,-237.13,-130.74,147.04,2,6
17654.203,-0.587,0.687,-0.268,-240.46,-130.34,143.07,2,6
17654.218,-0.507,0.681,-0.266,-238.35,-124.49,134.37,2,6
17654.218,-0.449,0.706,-0.266,-236.46,-114.2,119.6,2,6
17654.234,-0.42,0.725,-0.246,-238.87,-102.3,101.47,2,6
17654.25,-0.384,0.756,-0.209,-245.19,-93.45,81.18,2,6
17654.25,-0.326,0.789,-0.178,-253.0,-88.44,58.47,2,6
17654.265,-0.284,0.82,-0.135,-263.04,-86.46,35.49,2,6
17654.281,-0.243,0.82,-0.071,-276.38,-89.02,15.59,2,6
17654.281,-0.191,0.741,0.0,-289.07,-94.49,1.92,2,6
17654.296,-0.153,0.623,0.082,-293.77,-98.85,-4.21,2,6
17654.296,-0.114,0.534,0.171,-286.45,-100.04,-6.53,2,6
17654.312,-0.092,0.476,0.228,-269.51,-98.27,-8.09,2,6
17654.328,-0.079,0.394,0.258,-247.84,-93.78,-9.28,2,6
17654.328,-0.095,0.339,0.266,-224.89,-87.04,-13.98,2,6
17654.343,-0.134,0.371,0.273,-202.76,-78.98,-24.05,2,6
17654.359,-0.155,0.404,0.272,-186.47,-73.12,-38.85,2,6
17654.359,-0.157,0.406,0.245,-180.09,-68.42,-58.6,2,6
17654.375,-0.161,0.371,0.232,-182.16,-61.1,-80.39,2,6
17654.39,-0.159,0.264,0.279,-188.6,-54.81,-97.38,2,6
17654.39,-0.134,0.193,0.342,-188.73,-47.12,-111.82,2,6
17654.406,-0.108,0.128,0.373,-178.29,-29.39,-124.15,2,6
17654.421,-0.159,0.092,0.362,-163.15,-8.06,-143.47,2,6
17654.421,-0.211,-0.093,0.375,-153.39,22.71,-146.0,2,6
17654.453,-0.279,-0.21,0.484,-104.4,90.7,-145.82,2,6
17654.453,-0.325,-0.282,0.489,-61.16,125.22,-149.6,2,6
17654.468,-0.409,-0.243,0.447,-22.98,157.02,-159.0,2,6
17654.484,-0.535,-0.221,0.373,5.28,185.16,-167.64,2,6
17654.484,-0.718,-0.209,0.357,22.43,205.51,-173.89,2,6
17654.5,-0.796,-0.151,0.388,32.87,207.56,-179.33,2,6
17654.5,-0.791,-0.073,0.408,39.77,198.98,-182.23,2,6
17654.515,-0.801,0.004,0.408,40.38,185.06,-184.61,2,6
17654.515,-0.796,0.027,0.402,36.65,163.18,-184.06,2,6
17654.531,-0.784,0.03,0.39,38.51,102.15,-173.96,2,6
17654.546,-0.814,0.013,0.366,44.62,73.64,-167.33,2,6
17654.546,-0.85,-0.027,0.318,50.05,50.78,-158.27,2,6
17654.562,-0.873,-0.096,0.118,53.56,34.67,-149.91,2,6
17654.578,-0.866,-0.091,0.001,56.61,27.74,-145.05,2,6
17654.578,-0.873,-0.098,-0.09,58.5,30.85,-139.5,2,6
17654.593,-0.857,-0.101,-0.129,61.04,40.74,-134.53,2,6
17654.609,-0.871,-0.085,-0.167,67.02,52.64,-131.53,2,6
17654.609,-0.887,-0.06,-0.178,72.82,65.98,-127.17,2,6
17654.625,-0.936,-0.039,-0.111,77.43,79.29,-124.64,2,6
17654.64,-1.03,-0.03,-0.01,80.26,90.0,-121.77,2,6
17654.64,-1.1,-0.016,0.1,79.23,95.77,-116.73,2,6
17654.656,-1.223,-0.007,0.229,76.85,96.77,-111.94,2,6
17654.656,-1.271,-0.016,0.397,74.83,90.76,-103.12,2,6
17654.671,-1.248,-0.02,0.528,75.38,77.91,-90.58,2,6
17654.687,-1.236,-0.015,0.58,79.01,62.38,-76.66,2,6
17654.687,-1.212,-0.028,0.625,84.2,45.44,-61.4,2,6
17654.703,-1.201,-0.024,0.63,87.34,25.79,-45.87,2,6
17654.718,-1.186,-0.012,0.593,85.15,6.59,-33.88,2,6
17654.718,-1.136,-0.019,0.554,77.0,-8.79,-26.18,2,6
17654.734,-1.134,-0.02,0.521,66.04,-19.14,-25.45,2,6
17654.75,-1.099,-0.015,0.507,53.16,-26.12,-28.23,2,6
17654.75,-1.034,-0.015,0.51,40.47,-29.15,-30.21,2,6
17654.765,-1.002,-0.018,0.52,31.19,-27.1,-29.79,2,6
17654.781,-0.972,-0.037,0.571,26.8,-19.59,-24.72,2,6
17654.781,-0.995,-0.036,0.625,29.33,-9.34,-19.68,2,6
17654.796,-1.043,-0.017,0.678,35.0,-1.01,-13.95,2,6
17654.812,-1.039,0.026,0.739,36.77,3.78,-7.87,2,6
17654.812,-1.022,0.062,0.78,33.39,2.35,-0.76,2,6
17654.828,-1.023,0.082,0.792,29.48,-3.72,5.92,2,6
17654.828,-0.995,0.089,0.768,22.37,-13.43,13.76,2,6
17654.843,-0.885,0.081,0.73,11.23,-23.71,20.66,2,6
17654.859,-0.772,0.022,0.659,3.23,-32.59,32.35,2,6
17654.859,-0.669,-0.024,0.535,3.78,-36.93,46.45,2,6
17654.875,-0.639,-0.039,0.411,8.39,-33.39,55.85,2,6
17654.89,-0.668,-0.06,0.34,9.92,-22.71,57.74,2,6
17654.89,-0.711,-0.085,0.325,8.12,-9.67,53.19,2,6
17654.906,-0.75,-0.074,0.352,8.7,2.38,44.37,2,6
17654.921,-0.768,-0.042,0.409,9.74,10.99,36.65,2,6
17654.921,-0.772,-0.021,0.475,9.06,13.58,33.3,2,6
17654.937,-0.759,-0.026,0.524,9.64,9.64,35.37,2,6
17654.937,-0.741,-0.016,0.519,12.94,0.7,39.49,2,6
17654.953,-0.733,-0.009,0.469,14.31,-11.17,42.09,2,6
17654.968,-0.777,-0.009,0.402,10.83,-22.0,38.54,2,6
17654.968,-0.822,-0.026,0.343,2.9,-31.16,28.32,2,6
17654.984,-0.8,-0.029,0.317,-6.5,-37.84,14.5,2,6
17655.0,-0.793,-0.042,0.314,-12.27,-41.93,0.12,2,6
17655.0,-0.804,-0.067,0.325,-13.03,-44.16,-10.35,2,6
17655.015,-0.782,-0.065,0.349,-10.1,-44.47,-14.56,2,6
17655.031,-0.78,-0.034,0.374,-6.38,-43.06,-15.38,2,6
17655.031,-0.807,-0.018,0.417,-3.42,-41.23,-13.89,2,6
17655.046,-0.801,-0.002,0.442,0.4,-40.99,-9.67,2,6
17655.046,-0.746,0.025,0.45,6.68,-41.35,-3.85,2,6
17655.062,-0.706,0.056,0.459,12.33,-40.77,0.89,2,6
17655.078,-0.686,0.078,0.47,13.7,-40.31,3.57,2,6
17655.078,-0.653,0.081,0.478,11.81,-41.02,3.63,2,6
17655.093,-0.632,0.081,0.483,8.58,-42.73,0.52,2,6
17655.109,-0.626,0.068,0.494,4.49,-44.19,-4.67,2,6
17655.109,-0.602,0.054,0.504,0.89,-44.59,-9.0,2,6
17655.125,-0.557,0.026,0.502,0.95,-42.88,-9.83,2,6
17655.14,-0.514,0.037,0.5,4.64,-38.64,-9.34,2,6
17655.14,-0.495,0.043,0.502,8.3,-33.75,-9.0,2,6
17655.156,-0.503,0.064,0.509,9.4,-29.97,-10.22,2,6
17655.156,-0.524,0.071,0.524,8.0,-27.99,-13.09,2,6
17655.171,-0.534,0.091,0.53,4.97,-27.56,-16.66,2,6
17655.187,-0.543,0.126,0.54,1.31,-27.28,-20.05,2,6
17655.203,-0.554,0.136,0.543,-2.53,-27.1,-21.82,2,6
17655.203,-0.563,0.135,0.55,-4.15,-26.18,-21.3,2,6
17655.218,-0.593,0.137,0.553,-3.05,-23.9,-19.01,2,6
17655.218,-0.606,0.131,0.558,-2.84,-21.94,-14.71,2,6
17655.234,-0.588,0.131,0.557,-2.38,-20.39,-9.37,2,6
17655.25,-0.578,0.139,0.542,-1.86,-18.52,-4.79,2,6
17655.25,-0.577,0.133,0.525,-3.42,-16.79,-1.5,2,6
17655.265,-0.578,0.115,0.516,-5.31,-14.37,0.67,2,6
17655.265,-0.614,0.089,0.511,-6.07,-10.07,0.85,2,6
17655.281,-0.651,0.074,0.524,-6.99,-5.31,-0.92,2,6
17655.296,-0.676,0.062,0.551,-8.73,-1.74,-2.23,2,6
17655.296,-0.698,0.056,0.591,-9.83,0.67,-0.79,2,6
17655.312,-0.712,0.046,0.62,-9.7,1.28,3.91,2,6
17655.328,-0.704,0.026,0.638,-7.97,1.1,11.02,2,6
17655.328,-0.702,-0.006,0.646,-5.19,1.19,18.65,2,6
17655.343,-0.707,-0.024,0.643,-2.38,1.86,24.08,2,6
17655.359,-0.723,-0.042,0.64,-0.85,3.08,25.85,2,6
17655.359,-0.725,-0.058,0.644,-1.62,3.91,24.78,2,6
17655.375,-0.727,-0.089,0.653,-2.66,4.49,21.91,2,6
17655.39,-0.722,-0.103,0.665,-2.41,4.76,18.4,2,6
17655.39,-0.718,-0.104,0.678,-2.11,4.39,14.37,2,6
17655.406,-0.724,-0.105,0.682,-1.98,3.27,9.67,2,6
17655.406,-0.737,-0.109,0.681,-1.92,1.25,4.85,2,6
17655.421,-0.745,-0.098,0.686,-1.65,-0.67,-0.58,2,6
17655.437,-0.763,-0.072,0.694,-2.38,0.18,-7.08,2,6
17655.453,-0.77,-0.076,0.713,-4.43,-1.43,-10.62,2,6
17655.453,-0.748,-0.073,0.733,-3.27,-4.33,-11.44,2,6
17655.468,-0.744,-0.036,0.724,0.0,-5.43,-12.42,2,6
17655.468,-0.744,-0.019,0.702,0.52,-7.42,-12.48,2,6
17655.484,-0.732,-0.005,0.689,-0.52,-9.03,-12.48,2,6
17655.5,-0.729,-0.008,0.679,-1.62,-9.86,-12.91,2,6
17655.5,-0.728,-0.012,0.672,-1.01,-10.71,-12.67,2,6
17655.515,-0.721,0.015,0.657,1.25,-11.02,-11.78,2,6
17655.515,-0.706,0.04,0.635,-0.73,-11.32,-11.41,2,6
17655.531,-0.694,0.047,0.613,-2.62,-10.96,-10.96,2,6
17655.546,-0.69,0.035,0.598,-2.69,-9.58,-10.04,2,6
17655.546,-0.688,-0.0,0.585,-0.64,-7.11,-7.78,2,6
17655.562,-0.686,0.01,0.578,1.92,-4.24,-5.07,2,6
17655.578,-0.693,0.011,0.579,2.44,-1.31,-3.36,2,6
17655.593,-0.691,0.006,0.589,0.79,0.7,-2.32,2,6
17655.593,-0.678,0.0,0.603,0.64,1.77,-1.28,2,6
17655.609,-0.681,0.009,0.61,1.92,2.75,-0.85,2,6
17655.609,-0.696,0.008,0.615,1.59,3.14,-0.73,2,6
17655.625,-0.697,-0.002,0.622,0.15,2.56,-0.61,2,6
17655.64,-0.689,-0.008,0.627,0.12,2.14,-0.79,2,6
17655.64,-0.67,-0.002,0.627,0.46,2.59,-1.01,2,6
17655.656,-0.643,0.004,0.618,0.34,3.57,-0.7,2,6
17655.656,-0.614,-0.011,0.613,0.18,4.94,0.58,2,6
17655.671,-0.611,-0.029,0.61,1.77,7.54,0.98,2,6
17655.687,-0.622,-0.022,0.608,3.75,10.62,-0.18,2,6
17655.703,-0.631,-0.012,0.616,3.45,13.31,-2.53,2,6
17655.703,-0.642,-0.0,0.63,1.86,14.65,-5.16,2,6
17655.718,-0.657,0.014,0.635,0.27,14.13,-7.51,2,6
17655.718,-0.669,0.016,0.635,-1.1,12.67,-8.73,2,6
17655.734,-0.674,0.009,0.632,-2.11,10.93,-8.55,2,6
17655.75,-0.694,-0.005,0.618,-1.95,9.7,-8.27,2,6
17655.75,-0.708,-0.003,0.601,-1.56,9.52,-8.42,2,6
17655.765,-0.7,0.003,0.595,-2.99,10.38,-9.22,2,6
17655.765,-0.691,-0.006,0.597,-4.18,12.15,-10.04,2,6
17655.781,-0.683,-0.002,0.598,-3.2,14.13,-9.95,2,6
17655.796,-0.663,0.013,0.592,-1.77,15.44,-8.94,2,6
17655.812,-0.671,0.014,0.588,-1.34,16.97,-7.57,2,6
17655.812,-0.68,0.003,0.588,-1.74,18.28,-5.83,2,6
17655.828,-0.67,-0.002,0.59,-1.83,19.56,-4.21,2,6
17655.828,-0.663,0.002,0.585,-1.25,20.97,-3.33,2,6
17655.843,-0.648,0.005,0.579,-1.4,21.97,-2.29,2,6
17655.859,-0.634,-0.005,0.576,-2.53,22.74,-1.16,2,6
17655.859,-0.63,-0.023,0.577,-2.53,23.83,0.7,2,6
17655.875,-0.624,-0.034,0.564,-0.82,24.96,2.96,2,6
17655.89,-0.621,-0.037,0.544,1.37,26.34,3.72,2,6
17655.89,-0.631,-0.03,0.526,1.25,28.23,1.89,2,6
17655.906,-0.631,-0.037,0.527,-1.71,30.06,-1.01,2,6
17655.906,-0.631,-0.046,0.531,-3.02,31.86,-3.81,2,6
17655.921,-0.635,-0.043,0.533,-2.47,33.69,-5.77,2,6
17655.937,-0.63,-0.033,0.53,-2.04,34.97,-5.71,2,6
17655.937,-0.63,-0.031,0.527,-1.65,35.86,-4.7,2,6
17655.953,-0.624,-0.023,0.511,-1.46,36.16,-4.0,2,6
17655.968,-0.627,-0.022,0.491,-1.86,36.74,-3.63,2,6
17655.968,-0.653,-0.026,0.477,-1.95,37.84,-4.24,2,6
17655.984,-0.663,-0.032,0.472,-2.59,39.34,-5.16,2,6
17656.0,-0.663,-0.036,0.474,-2.93,41.6,-6.1,2,6
17656.0,-0.661,-0.031,0.468,-2.23,43.7,-5.8,2,6
17656.015,-0.657,-0.024,0.458,-1.71,44.56,-3.91,2,6
17656.031,-0.677,-0.03,0.439,-1.62,44.86,-2.53,2,6
17656.031,-0.702,-0.033,0.422,-2.01,45.32,-2.96,2,6
17656.046,-0.704,-0.033,0.405,-3.14,45.75,-4.64,2,6
17656.046,-0.71,-0.041,0.398,-4.49,47.12,-6.59,2,6
17656.062,-0.71,-0.052,0.4,-5.04,49.2,-7.2,2,6
17656.078,-0.713,-0.048,0.395,-3.81,51.39,-6.84,2,6
17656.078,-0.729,-0.042,0.394,-2.14,53.56,-5.46,2,6
17656.093,-0.747,-0.042,0.385,-0.85,54.78,-3.45,2,6
17656.109,-0.75,-0.038,0.369,0.06,55.79,-1.98,2,6
17656.109,-0.741,-0.023,0.353,-0.03,57.16,-2.14,2,6
17656.125,-0.73,-0.021,0.339,-1.43,58.38,-2.81,2,6
17656.14,-0.717,-0.027,0.328,-2.9,58.84,-2.87,2,6
17656.14,-0.712,-0.037,0.306,-3.33,59.3,-2.69,2,6
17656.156,-0.747,-0.042,0.285,-3.2,60.7,-3.36,2,6
17656.171,-0.792,-0.048,0.277,-3.97,62.96,-5.46,2,6
17656.171,-0.827,-0.069,0.284,-5.55,65.4,-8.21,2,6
17656.187,-0.85,-0.084,0.297,-5.49,67.66,-10.35,2,6
17656.187,-0.863,-0.076,0.306,-3.97,69.25,-10.62,2,6
17656.203,-0.878,-0.065,0.307,-2.53,69.77,-9.31,2,6
17656.218,-0.878,-0.066,0.292,-1.68,68.45,-5.86,2,6
17656.218,-0.861,-0.061,0.262,0.15,66.74,-2.38,2,6
17656.234,-0.871,-0.053,0.225,1.16,66.32,-1.43,2,6
17656.25,-0.886,-0.055,0.208,-0.24,67.23,-2.87,2,6
17656.25,-0.91,-0.073,0.205,-2.47,69.49,-5.77,2,6
17656.265,-0.928,-0.098,0.212,-3.02,71.23,-8.03,2,6
17656.281,-0.926,-0.087,0.208,-1.31,72.57,-8.79,2,6
17656.281,-0.924,-0.076,0.194,-0.37,72.97,-8.67,2,6
17656.296,-0.939,-0.088,0.183,-0.95,72.6,-8.67,2,6
17656.296,-0.951,-0.096,0.172,-1.62,71.99,-9.25,2,6
17656.312,-0.956,-0.094,0.165,-1.31,72.18,-10.25,2,6
17656.328,-0.96,-0.091,0.151,-0.73,72.7,-10.83,2,6
17656.328,-0.936,-0.088,0.131,-0.06,72.21,-9.31,2,6
17656.343,-0.922,-0.077,0.111,1.25,72.08,-7.17,2,6
17656.359,-0.951,-0.08,0.096,2.17,73.49,-7.29,2,6
17656.359,-0.975,-0.083,0.091,1.89,74.74,-8.73,2,6
17656.375,-0.978,-0.091,0.085,1.59,75.2,-9.8,2,6
17656.39,-0.974,-0.088,0.077,1.53,74.86,-10.01,2,6
17656.39,-0.946,-0.082,0.057,1.4,73.34,-9.19,2,6
17656.406,-0.945,-0.093,0.024,1.1,71.26,-7.66,2,6
17656.406,-0.961,-0.11,-0.009,1.25,69.83,-6.56,2,6
17656.421,-0.963,-0.123,-0.033,0.92,70.25,-7.08,2,6
17656.437,-0.973,-0.135,-0.05,1.28,72.66,-9.34,2,6
17656.453,-0.966,-0.137,-0.059,1.53,75.72,-11.81,2,6
17656.453,-0.972,-0.137,-0.055,1.74,78.22,-14.19,2,6
17656.468,-0.988,-0.139,-0.053,2.2,78.83,-15.5,2,6
17656.468,-0.99,-0.133,-0.066,2.66,77.43,-15.59,2,6
17656.484,-0.978,-0.123,-0.088,2.9,75.44,-15.72,2,6
17656.5,-0.971,-0.125,-0.103,1.59,75.11,-15.78,2,6
17656.5,-0.98,-0.134,-0.11,2.26,76.08,-15.26,2,6
17656.515,-0.983,-0.141,-0.12,3.91,76.17,-13.46,2,6
17656.531,-0.99,-0.148,-0.146,5.28,75.29,-11.9,2,6
17656.531,-0.988,-0.133,-0.212,4.52,74.68,-12.05,2,6
17656.546,-0.998,-0.141,-0.23,2.69,74.95,-13.55,2,6
17656.546,-1.016,-0.143,-0.237,1.92,76.39,-14.95,2,6
17656.562,-1.026,-0.151,-0.239,2.75,78.04,-14.86,2,6
17656.578,-1.065,-0.15,-0.237,5.83,80.54,-14.71,2,6
17656.593,-1.087,-0.125,-0.235,7.42,81.82,-14.95,2,6
17656.593,-1.064,-0.11,-0.235,6.2,80.87,-13.28,2,6
17656.609,-1.038,-0.092,-0.248,6.13,78.59,-9.25,2,6
17656.609,-1.024,-0.082,-0.27,6.23,76.45,-2.75,2,6
17656.625,-1.018,-0.107,-0.292,7.75,76.42,5.1,2,6
17656.64,-1.053,-0.113,-0.32,11.9,79.44,10.28,2,6
17656.64,-1.078,-0.097,-0.344,14.07,83.04,11.57,2,6
17656.656,-1.045,-0.081,-0.352,12.91,84.57,11.44,2,6
17656.671,-0.991,-0.074,-0.361,11.26,83.83,13.15,2,6
17656.671,-0.935,-0.095,-0.384,10.74,81.7,17.76,2,6
17656.687,-0.939,-0.137,-0.42,14.22,80.97,20.54,2,6
17656.687,-1.001,-0.141,-0.452,17.24,82.83,17.46,2,6
17656.703,-1.033,-0.152,-0.453,15.23,85.85,9.86,2,6
17656.718,-1.054,-0.168,-0.414,11.63,88.14,0.0,2,6
17656.718,-1.069,-0.176,-0.373,8.7,87.47,-8.64,2,6
17656.734,-1.041,-0.155,-0.354,5.89,82.16,-13.67,2,6
17656.75,-1.007,-0.141,-0.373,3.08,74.47,-14.25,2,6
17656.75,-0.97,-0.148,-0.409,1.34,67.05,-10.83,2,6
17656.765,-0.944,-0.163,-0.447,2.38,62.65,-7.42,2,6
17656.781,-0.98,-0.164,-0.472,4.09,62.75,-7.29,2,6
17656.781,-1.02,-0.161,-0.472,2.96,65.13,-9.67,2,6
17656.796,-1.019,-0.167,-0.462,1.1,67.11,-11.75,2,6
17656.796,-0.999,-0.177,-0.452,1.19,67.93,-10.93,2,6
17656.812,-0.949,-0.164,-0.457,3.17,67.02,-6.44,2,6
17656.828,-0.92,-0.167,-0.491,7.42,65.95,0.24,2,6
17656.828,-0.915,-0.177,-0.549,13.46,65.4,7.48,2,6
17656.843,-0.897,-0.158,-0.599,17.82,65.71,12.73,2,6
17656.859,-0.896,-0.151,-0.624,19.44,69.06,13.25,2,6
17656.859,-0.94,-0.157,-0.62,19.01,74.86,7.57,2,6
17656.875,-0.953,-0.149,-0.586,16.45,79.56,-1.28,2,6
17656.89,-0.954,-0.145,-0.557,14.04,82.4,-10.74,2,6
17656.89,-0.962,-0.147,-0.526,12.57,83.13,-17.85,2,6
17656.906,-0.96,-0.142,-0.506,11.11,81.21,-21.67,2,6
17656.921,-0.954,-0.141,-0.507,9.58,76.88,-23.07,2,6
17656.921,-0.954,-0.158,-0.519,8.67,71.41,-22.61,2,6
17656.937,-0.96,-0.169,-0.544,8.73,66.53,-22.06,2,6
17656.937,-0.973,-0.176,-0.563,8.33,63.63,-22.89,2,6
17656.953,-0.958,-0.191,-0.582,7.11,61.98,-23.77,2,6
17656.968,-0.941,-0.198,-0.599,7.39,60.91,-24.41,2,6
17656.968,-0.938,-0.197,-0.619,8.88,60.43,-25.42,2,6
17656.984,-0.922,-0.189,-0.648,9.52,59.85,-26.92,2,6
17657.0,-0.917,-0.181,-0.665,9.4,60.52,-29.15,2,6
17657.015,-0.925,-0.19,-0.658,8.06,62.5,-31.37,2,6
17657.015,-0.943,-0.197,-0.626,7.57,65.07,-32.59,2,6
17657.031,-0.975,-0.21,-0.587,8.97,67.02,-32.11,2,6
17657.031,-0.971,-0.206,-0.566,10.35,65.16,-28.93,2,6
17657.046,-0.948,-0.203,-0.571,11.93,60.27,-23.96,2,6
17657.062,-0.919,-0.193,-0.599,12.73,54.08,-19.32,2,6
17657.062,-0.881,-0.195,-0.643,11.17,48.16,-15.78,2,6
17657.078,-0.847,-0.2,-0.691,8.73,43.46,-14.59,2,6
17657.078,-0.824,-0.203,-0.73,7.42,41.11,-15.02,2,6
17657.093,-0.821,-0.21,-0.754,6.07,41.54,-16.79,2,6
17657.109,-0.817,-0.23,-0.755,4.33,44.43,-18.86,2,6
17657.109,-0.81,-0.256,-0.738,5.04,49.38,-20.02,2,6
17657.125,-0.821,-0.258,-0.713,8.67,55.12,-20.48,2,6
17657.14,-0.825,-0.24,-0.686,11.41,59.05,-19.59,2,6
17657.14,-0.814,-0.233,-0.658,11.51,59.54,-17.52,2,6
17657.156,-0.796,-0.231,-0.647,12.51,56.92,-13.4,2,6
17657.156,-0.765,-0.228,-0.652,14.28,52.67,-8.18,2,6
17657.171,-0.738,-0.238,-0.68,15.47,48.46,-3.02,2,6
17657.187,-0.718,-0.246,-0.714,16.66,45.59,1.1,2,6
17657.187,-0.698,-0.261,-0.746,17.09,44.71,2.72,2,6
17657.203,-0.681,-0.267,-0.768,16.88,44.68,1.13,2,6
17657.218,-0.669,-0.277,-0.785,16.17,45.23,-2.72,2,6
17657.234,-0.66,-0.281,-0.792,14.34,46.24,-8.24,2,6
17657.234,-0.652,-0.286,-0.787,11.69,46.69,-13.43,2,6
17657.25,-0.647,-0.292,-0.768,9.74,46.72,-17.03,2,6
17657.25,-0.649,-0.297,-0.755,9.8,45.69,-18.56,2,6
17657.265,-0.655,-0.298,-0.754,11.26,44.34,-17.43,2,6
17657.281,-0.664,-0.295,-0.758,13.67,43.58,-15.14,2,6
17657.281,-0.68,-0.29,-0.769,15.87,43.34,-12.73,2,6
17657.296,-0.675,-0.261,-0.787,16.6,42.85,-10.9,2,6
17657.296,-0.645,-0.24,-0.8,16.48,42.15,-8.3,2,6
17657.312,-0.615,-0.237,-0.812,17.73,41.81,-4.94,2,6
17657.328,-0.597,-0.237,-0.827,19.32,42.42,-2.08,2,6
17657.328,-0.594,-0.244,-0.833,19.9,43.79,-0.92,2,6
17657.343,-0.615,-0.251,-0.83,19.87,45.69,-1.1,2,6
17657.359,-0.63,-0.243,-0.82,17.82,47.03,-1.13,2,6
17657.375,-0.629,-0.235,-0.8,16.05,47.18,-0.37,2,6
17657.375,-0.626,-0.222,-0.797,16.14,46.36,1.8,2,6
17657.39,-0.613,-0.205,-0.802,16.63,44.59,6.74,2,6
17657.39,-0.602,-0.212,-0.816,18.4,43.89,13.64,2,6
17657.406,-0.598,-0.201,-0.837,21.79,44.92,20.14,2,6
17657.421,-0.581,-0.197,-0.841,24.02,46.97,25.36,2,6
17657.421,-0.584,-0.219,-0.829,25.7,50.14,28.38,2,6
17657.437,-0.598,-0.232,-0.816,27.16,52.37,29.91,2,6
17657.453,-0.589,-0.245,-0.798,27.19,52.61,31.16,2,6
17657.453,-0.585,-0.272,-0.793,27.07,51.09,31.28,2,6
17657.468,-0.582,-0.286,-0.803,26.43,48.22,30.82,2,6
17657.468,-0.568,-0.288,-0.819,24.63,45.14,29.11,2,6
17657.484,-0.56,-0.301,-0.837,21.76,41.6,21.52,2,6
17657.5,-0.557,-0.297,-0.855,20.39,41.32,16.82,2,6
17657.5,-0.55,-0.291,-0.866,19.07,41.02,13.89,2,6
17657.515,-0.513,-0.284,-0.867,18.86,40.65,12.51,2,6
17657.531,-0.492,-0.298,-0.871,19.59,40.5,11.51,2,6
17657.531,-0.493,-0.313,-0.877,20.66,40.62,9.43,2,6
17657.546,-0.499,-0.318,-0.88,20.2,41.11,5.74,2,6
17657.546,-0.497,-0.32,-0.866,18.04,41.63,0.76,2,6
17657.562,-0.495,-0.324,-0.85,16.11,41.32,-4.43,2,6
17657.578,-0.494,-0.317,-0.832,14.86,39.83,-8.85,2,6
17657.578,-0.49,-0.31,-0.822,13.95,37.48,-11.69,2,6
17657.593,-0.483,-0.312,-0.819,13.18,34.46,-12.94,2,6
17657.609,-0.481,-0.308,-0.834,12.15,31.13,-13.0,2,6
17657.609,-0.477,-0.312,-0.853,11.11,28.84,-12.45,2,6
17657.625,-0.467,-0.313,-0.871,11.44,28.41,-12.09,2,6
17657.64,-0.46,-0.312,-0.888,11.99,29.54,-12.05,2,6
17657.64,-0.457,-0.311,-0.887,12.54,31.95,-11.75,2,6
17657.656,-0.459,-0.307,-0.879,13.86,34.76,-10.8,2,6
17657.671,-0.463,-0.305,-0.869,15.32,36.81,-8.79,2,6
17657.671,-0.468,-0.313,-0.853,16.88,37.75,-5.58,2,6
17657.687,-0.467,-0.312,-0.837,18.71,37.17,-2.11,2,6
17657.687,-0.464,-0.31,-0.831,20.08,35.58,0.85,2,6
17657.703,-0.461,-0.295,-0.848,20.17,32.69,3.54,2,6
17657.718,-0.446,-0.295,-0.855,18.22,29.63,6.53,2,6
17657.718,-0.443,-0.311,-0.852,17.37,28.14,10.22,2,6
17657.734,-0.435,-0.318,-0.862,19.75,28.05,14.1,2,6
17657.75,-0.432,-0.311,-0.874,23.16,28.99,16.51,2,6
17657.75,-0.438,-0.3,-0.88,23.96,30.49,17.27,2,6
17657.765,-0.448,-0.309,-0.87,22.22,32.01,17.0,2,6
17657.781,-0.458,-0.324,-0.85,20.94,32.5,16.69,2,6
17657.781,-0.459,-0.319,-0.838,20.45,31.4,16.6,2,6
17657.796,-0.469,-0.316,-0.836,19.38,29.11,17.15,2,6
17657.796,-0.456,-0.327,-0.838,17.91,25.57,18.59,2,6
17657.812,-0.438,-0.341,-0.849,17.76,22.71,19.41,2,6
17657.828,-0.428,-0.334,-0.868,16.82,20.33,18.92,2,6
17657.828,-0.412,-0.332,-0.874,14.31,18.65,17.82,2,6
17657.843,-0.402,-0.339,-0.865,11.99,18.19,16.11,2,6
17657.859,-0.401,-0.353,-0.855,11.2,18.13,15.17,2,6
17657.859,-0.394,-0.359,-0.847,11.69,17.73,15.29,2,6
17657.875,-0.394,-0.347,-0.848,12.63,17.12,15.81,2,6
17657.89,-0.385,-0.341,-0.845,12.12,15.63,15.5,2,6
17657.89,-0.375,-0.35,-0.845,10.83,13.55,13.79,2,6
17657.906,-0.375,-0.35,-0.85,8.82,11.6,11.38,2,6
17657.906,-0.372,-0.368,-0.845,6.29,9.31,9.95,2,6
17657.921,-0.364,-0.386,-0.842,6.01,7.63,9.8,2,6
17657.937,-0.354,-0.39,-0.853,7.75,6.41,10.65,2,6
17657.937,-0.344,-0.383,-0.865,9.61,6.01,12.36,2,6
17657.953,-0.337,-0.38,-0.868,11.17,6.59,14.8,2,6
17657.968,-0.342,-0.37,-0.862,13.03,8.21,16.94,2,6
17657.968,-0.354,-0.353,-0.856,15.2,9.52,19.2,2,6
17657.984,-0.365,-0.327,-0.857,16.33,10.71,21.79,2,6
17658.0,-0.37,-0.302,-0.859,16.08,11.72,24.02,2,6
17658.0,-0.371,-0.293,-0.86,15.72,12.39,25.27,2,6
17658.015,-0.38,-0.283,-0.873,15.14,12.73,26.37,2,6
17658.031,-0.37,-0.285,-0.869,13.25,12.76,27.89,2,6
17658.031,-0.36,-0.307,-0.863,11.51,12.09,29.3,2,6
17658.046,-0.357,-0.327,-0.86,10.41,11.02,29.94,2,6
17658.046,-0.355,-0.346,-0.857,9.0,9.7,30.03,2,6
17658.062,-0.354,-0.374,-0.856,7.78,8.55,29.3,2,6
17658.078,-0.356,-0.392,-0.858,6.81,7.51,26.76,2,6
17658.078,-0.358,-0.391,-0.858,5.01,6.47,22.58,2,6
17658.093,-0.354,-0.386,-0.86,2.29,4.91,18.04,2,6
17658.109,-0.338,-0.386,-0.869,-0.43,3.45,13.37,2,6
17658.109,-0.329,-0.397,-0.872,-2.5,3.05,8.09,2,6
17658.125,-0.331,-0.411,-0.867,-3.63,3.57,3.17,2,6
17658.125,-0.335,-0.416,-0.855,-3.69,4.0,-0.09,2,6
17658.14,-0.337,-0.419,-0.846,-3.36,3.69,-2.17,2,6
17658.156,-0.33,-0.424,-0.841,-3.75,1.68,-4.15,2,6
17658.156,-0.324,-0.431,-0.845,-4.64,-0.67,-6.13,2,6
17658.171,-0.316,-0.437,-0.854,-4.91,-2.35,-8.24,2,6
17658.187,-0.318,-0.428,-0.86,-4.33,-2.81,-10.5,2,6
17658.187,-0.326,-0.418,-0.863,-4.33,-2.29,-12.45,2,6
17658.203,-0.324,-0.413,-0.858,-4.73,-1.62,-13.73,2,6
17658.218,-0.322,-0.405,-0.853,-4.33,-1.5,-14.65,2,6
17658.218,-0.322,-0.401,-0.845,-3.88,-1.62,-13.92,2,6
17658.234,-0.32,-0.402,-0.842,-2.5,-1.65,-11.63,2,6
17658.25,-0.327,-0.413,-0.847,0.31,-1.37,-7.97,2,6
17658.25,-0.323,-0.408,-0.854,3.02,-0.76,-4.36,2,6
17658.265,-0.325,-0.405,-0.857,4.3,0.12,-2.78,2,6
17658.281,-0.331,-0.394,-0.855,4.27,0.52,-2.41,2,6
17658.281,-0.33,-0.382,-0.856,3.51,-0.03,-2.75,2,6
17658.296,-0.331,-0.381,-0.86,2.38,-0.85,-3.05,2,6
17658.312,-0.328,-0.381,-0.868,2.23,-1.4,-2.5,2,6
17658.312,-0.326,-0.384,-0.873,2.62,-1.1,-1.89,2,6
17658.328,-0.324,-0.388,-0.874,3.05,-0.18,-1.77,2,6
17658.328,-0.329,-0.384,-0.878,3.11,0.46,-3.05,2,6
17658.343,-0.33,-0.384,-0.876,1.25,0.18,-5.1,2,6
17658.359,-0.329,-0.391,-0.865,-1.22,-0.46,-7.05,2,6
17658.359,-0.33,-0.395,-0.861,-1.86,-0.92,-7.57,2,6
17658.375,-0.325,-0.387,-0.856,-0.98,-1.4,-6.81,2,6
17658.39,-0.318,-0.395,-0.855,0.27,-1.74,-5.95,2,6
17658.39,-0.315,-0.389,-0.865,0.52,-2.23,-6.65,2,6
17658.406,-0.315,-0.393,-0.868,-1.8,-2.87,-8.48,2,6
17658.406,-0.315,-0.397,-0.864,-4.21,-3.27,-10.62,2,6
17658.421,-0.315,-0.401,-0.855,-4.7,-3.27,-12.24,2,6
17658.437,-0.317,-0.401,-0.847,-4.3,-3.33,-12.57,2,6
17658.453,-0.315,-0.398,-0.846,-3.11,-4.06,-11.78,2,6
17658.453,-0.313,-0.393,-0.859,-2.11,-4.73,-10.32,2,6
17658.468,-0.311,-0.39,-0.864,-1.65,-4.09,-7.78,2,6
17658.468,-0.311,-0.386,-0.866,-0.85,-3.88,-6.9,2,6
17658.484,-0.31,-0.378,-0.871,-0.52,-3.69,-5.16,2,6
17658.5,-0.311,-0.371,-0.877,-0.52,-3.14,-2.75,2,6
17658.5,-0.305,-0.386,-0.877,-0.24,-1.92,-0.76,2,6
17658.515,-0.316,-0.395,-0.874,0.82,-0.7,0.09,2,6
17658.515,-0.324,-0.39,-0.87,1.77,0.21,0.31,2,6
17658.531,-0.326,-0.394,-0.862,1.43,0.37,0.43,2,6
17658.546,-0.324,-0.402,-0.853,1.19,-0.15,0.73,2,6
17658.546,-0.319,-0.405,-0.849,2.5,-0.79,1.46,2,6
17658.562,-0.318,-0.403,-0.853,3.97,-1.34,3.02,2,6
17658.578,-0.314,-0.401,-0.855,4.91,-1.62,4.85,2,6
17658.578,-0.317,-0.398,-0.861,5.68,-1.77,6.41,2,6
17658.593,-0.323,-0.389,-0.867,6.74,-1.01,8.27,2,6
17658.609,-0.326,-0.382,-0.868,7.39,0.18,9.89,2,6
17658.609,-0.328,-0.379,-0.865,7.97,1.1,11.08,2,6
17658.625,-0.323,-0.375,-0.868,8.36,1.4,11.66,2,6
17658.64,-0.323,-0.376,-0.871,7.57,1.65,12.05,2,6
17658.64,-0.317,-0.388,-0.865,6.13,1.43,12.36,2,6
17658.656,-0.316,-0.396,-0.86,5.65,1.16,11.17,2,6
17658.656,-0.321,-0.397,-0.857,4.67,0.73,8.64,2,6
17658.671,-0.323,-0.404,-0.851,2.53,-0.4,6.1,2,6
17658.687,-0.326,-0.411,-0.848,1.04,-1.68,4.3,2,6
17658.687,-0.323,-0.408,-0.846,0.06,-3.11,2.81,2,6
17658.703,-0.327,-0.412,-0.849,-0.34,-3.91,1.89,2,6
17658.718,-0.328,-0.405,-0.853,0.18,-4.3,1.43,2,6
17658.718,-0.324,-0.394,-0.858,0.55,-4.46,1.19,2,6
17658.734,-0.322,-0.389,-0.859,0.55,-4.55,1.22,2,6
17658.75,-0.318,-0.395,-0.86,0.43,-4.73,1.28,2,6
17658.75,-0.315,-0.404,-0.865,-0.18,-5.19,0.82,2,6
17658.765,-0.316,-0.414,-0.87,-1.13,-5.77,0.31,2,6
17658.765,-0.316,-0.415,-0.875,-0.98,-5.28,-0.21,2,6
17658.781,-0.316,-0.421,-0.871,0.0,-3.97,-0.52,2,6
17658.796,-0.31,-0.412,-0.87,0.67,-2.87,-1.46,2,6
17658.812,-0.309,-0.401,-0.871,-0.03,-2.14,-3.39,2,6
17658.812,-0.321,-0.405,-0.858,-2.11,-1.83,-5.55,2,6
17658.828,-0.327,-0.408,-0.845,-2.84,-2.04,-6.87,2,6
17658.828,-0.33,-0.403,-0.838,-2.35,-2.75,-6.87,2,6
17658.843,-0.333,-0.396,-0.842,-1.92,-3.69,-5.86,2,6
17658.859,-0.324,-0.39,-0.843,-2.11,-4.64,-4.3,2,6
17658.859,-0.319,-0.393,-0.846,-2.14,-5.28,-3.57,2,6
17658.875,-0.322,-0.398,-0.851,-1.71,-5.46,-2.69,2,6
17658.89,-0.32,-0.402,-0.853,-0.76,-5.22,-0.85,2,6
17658.89,-0.322,-0.407,-0.856,0.76,-4.43,1.68,2,6
17658.906,-0.322,-0.414,-0.858,3.02,-3.02,4.7,2,6
17658.906,-0.317,-0.413,-0.859,5.49,-1.77,7.2,2,6
17658.921,-0.315,-0.401,-0.859,6.53,-0.85,8.45,2,6
17658.937,-0.317,-0.39,-0.854,5.95,-0.27,8.55,2,6
17658.937,-0.321,-0.391,-0.846,5.31,-0.12,8.27,2,6
17658.953,-0.329,-0.393,-0.84,5.16,-0.73,8.7,2,6
17658.968,-0.335,-0.382,-0.838,5.52,-1.98,9.95,2,6
17658.968,-0.334,-0.381,-0.841,5.74,-3.14,12.21,2,6
17658.984,-0.334,-0.381,-0.851,6.44,-3.88,15.05,2,6
17659.0,-0.328,-0.379,-0.867,6.9,-3.97,17.21,2,6
17659.0,-0.315,-0.39,-0.873,6.78,-3.27,17.98,2,6
17659.015,-0.313,-0.406,-0.877,6.35,-1.89,16.51,2,6
17659.015,-0.316,-0.415,-0.873,4.91,-1.04,13.55,2,6
17659.031,-0.319,-0.417,-0.868,2.23,-1.22,9.55,2,6
17659.046,-0.326,-0.433,-0.858,-0.49,-1.86,5.46,2,6
17659.046,-0.323,-0.438,-0.851,-1.43,-2.69,2.59,2,6
17659.062,-0.326,-0.428,-0.851,-1.28,-3.2,0.27,2,6
17659.078,-0.331,-0.412,-0.859,-1.53,-3.48,-1.4,2,6
17659.093,-0.329,-0.395,-0.864,-2.38,-3.51,-2.38,2,6
17659.093,-0.329,-0.396,-0.862,-3.39,-3.2,-3.11,2,6
17659.109,-0.328,-0.403,-0.857,-3.42,-2.93,-2.96,2,6
17659.109,-0.32,-0.407,-0.855,-2.2,-2.35,-2.47,2,6
17659.125,-0.32,-0.409,-0.856,-0.85,-1.43,-1.71,2,6
17659.14,-0.326,-0.413,-0.858,-0.85,-1.1,-1.56,2,6
17659.14,-0.33,-0.417,-0.853,-2.01,-0.92,-1.53,2,6
17659.156,-0.332,-0.415,-0.85,-2.14,-0.82,-1.98,2,6
17659.171,-0.335,-0.404,-0.854,-1.8,-0.92,-3.17,2,6
17659.171,-0.335,-0.395,-0.858,-2.53,-1.31,-4.09,2,6
17659.187,-0.332,-0.401,-0.863,-3.97,-1.74,-4.33,2,6
17659.187,-0.332,-0.412,-0.861,-4.64,-1.5,-4.27,2,6
17659.203,-0.333,-0.416,-0.858,-3.66,-0.52,-4.06,2,6
17659.218,-0.331,-0.412,-0.854,-2.56,0.46,-3.6,2,6
17659.218,-0.333,-0.411,-0.851,-1.71,1.1,-2.96,2,6
17659.234,-0.335,-0.406,-0.846,-1.1,1.43,-2.14,2,6
17659.25,-0.337,-0.399,-0.839,-0.85,1.13,-1.16,2,6
17659.25,-0.336,-0.396,-0.84,-0.43,0.18,-0.52,2,6
17659.265,-0.331,-0.394,-0.845,-0.37,-1.07,0.15,2,6
17659.265,-0.325,-0.4,-0.849,-0.92,-2.17,0.12,2,6
17659.281,-0.326,-0.409,-0.853,-1.86,-2.96,-0.12,2,6
17659.296,-0.324,-0.415,-0.854,-1.89,-3.02,0.09,2,6
17659.296,-0.325,-0.413,-0.852,-0.85,-2.5,0.61,2,6
17659.312,-0.336,-0.414,-0.854,0.24,-1.4,1.43,2,6
17659.328,-0.335,-0.407,-0.852,1.59,-0.79,2.87,2,6
17659.328,-0.333,-0.401,-0.852,2.96,-0.49,4.46,2,6
17659.343,-0.332,-0.397,-0.855,3.72,-0.4,5.68,2,6
17659.359,-0.326,-0.394,-0.859,3.85,-0.92,6.23,2,6
17659.359,-0.328,-0.392,-0.86,2.84,-1.25,5.83,2,6
17659.375,-0.333,-0.399,-0.856,1.89,-1.22,5.68,2,6
17659.39,-0.335,-0.401,-0.858,2.32,-0.82,6.04,2,6
17659.406,-0.337,-0.398,-0.859,3.2,-0.03,6.81,2,6
17659.406,-0.336,-0.394,-0.856,4.03,0.95,7.84,2,6
17659.406,-0.335,-0.393,-0.85,4.94,1.8,9.0,2,6
17659.421,-0.338,-0.395,-0.849,6.2,2.32,9.49,2,6
17659.437,-0.342,-0.397,-0.844,6.35,2.26,10.1,2,6
17659.437,-0.346,-0.396,-0.837,6.29,1.62,10.04,2,6
17659.453,-0.349,-0.392,-0.836,5.22,-0.27,7.39,2,6
17659.468,-0.351,-0.391,-0.84,3.81,-1.5,6.01,2,6
17659.468,-0.347,-0.388,-0.847,2.17,-2.47,4.0,2,6
17659.484,-0.336,-0.404,-0.86,0.52,-3.63,2.14,2,6
17659.5,-0.338,-0.417,-0.864,-0.95,-4.18,0.7,2,6
17659.5,-0.341,-0.417,-0.867,-1.07,-3.66,-0.49,2,6
17659.515,-0.342,-0.41,-0.868,-0.95,-2.44,-1.98,2,6
17659.531,-0.348,-0.406,-0.861,-0.7,-1.1,-3.08,2,6
17659.531,-0.346,-0.393,-0.855,-0.92,-0.34,-4.24,2,6
17659.546,-0.346,-0.39,-0.853,-1.13,-0.27,-5.46,2,6
17659.546,-0.353,-0.39,-0.849,-1.95,-0.52,-6.13,2,6
17659.562,-0.354,-0.392,-0.843,-2.5,-1.1,-6.38,2,6
17659.578,-0.355,-0.392,-0.842,-2.47,-1.83,-6.53,2,6
17659.578,-0.355,-0.389,-0.846,-2.53,-2.47,-6.38,2,6
17659.593,-0.35,-0.391,-0.844,-3.05,-2.99,-5.98,2,6
17659.609,-0.35,-0.392,-0.845,-2.84,-3.33,-5.68,2,6
