timestamp,ax,ay,az,gx,gy,gz,orient_label,motion_label
17616.781,-0.246,-0.339,-0.896,-3.11,-3.97,-0.27,2,6
17616.781,-0.25,-0.338,-0.9,-1.5,-4.18,0.7,2,6
17616.796,-0.248,-0.328,-0.907,-0.49,-4.52,1.68,2,6
17616.796,-0.242,-0.32,-0.912,0.06,-4.73,2.29,2,6
17616.812,-0.243,-0.314,-0.924,-0.46,-4.67,1.53,2,6
17616.828,-0.243,-0.316,-0.922,-1.74,-4.88,0.82,2,6
17616.828,-0.243,-0.324,-0.917,-2.32,-4.76,0.52,2,6
17616.843,-0.249,-0.323,-0.92,-1.98,-4.58,0.43,2,6
17616.859,-0.245,-0.318,-0.922,-1.89,-4.85,0.46,2,6
17616.859,-0.245,-0.321,-0.92,-2.32,-4.76,0.34,2,6
17616.875,-0.249,-0.323,-0.915,-2.2,-4.39,-0.15,2,6
17616.875,-0.251,-0.312,-0.917,-2.47,-4.55,-1.19,2,6
17616.89,-0.255,-0.311,-0.913,-3.57,-4.94,-2.08,2,6
17616.906,-0.251,-0.316,-0.908,-4.03,-5.58,-2.78,2,6
17616.906,-0.248,-0.309,-0.912,-4.03,-6.65,-3.2,2,6
17616.921,-0.245,-0.303,-0.913,-4.7,-7.45,-3.42,2,6
17616.937,-0.246,-0.306,-0.912,-5.07,-7.72,-3.11,2,6
17616.937,-0.246,-0.302,-0.914,-5.04,-7.93,-2.41,2,6
17616.953,-0.245,-0.302,-0.916,-4.79,-7.81,-1.1,2,6
17616.968,-0.247,-0.308,-0.918,-4.15,-7.51,0.79,2,6
17616.968,-0.248,-0.318,-0.92,-2.56,-7.02,3.11,2,6
17616.984,-0.246,-0.318,-0.927,-0.43,-6.65,5.28,2,6
17617.0,-0.242,-0.307,-0.933,1.04,-5.89,6.47,2,6
17617.0,-0.241,-0.305,-0.939,-0.06,-4.91,6.2,2,6
17617.015,-0.235,-0.313,-0.933,-1.95,-4.43,4.88,2,6
17617.015,-0.234,-0.324,-0.925,-2.29,-3.51,3.78,2,6
17617.031,-0.244,-0.329,-0.921,-1.56,-2.62,2.9,2,6
17617.046,-0.247,-0.331,-0.914,-2.04,-2.81,1.95,2,6
17617.046,-0.249,-0.341,-0.905,-2.9,-3.36,1.22,2,6
17617.062,-0.248,-0.352,-0.91,-2.17,-4.0,0.34,2,6
17617.078,-0.243,-0.34,-0.913,-1.25,-4.52,-0.7,2,6
17617.078,-0.24,-0.32,-0.919,-1.22,-5.07,-1.89,2,6
17617.093,-0.241,-0.322,-0.917,-2.56,-5.28,-3.08,2,6
17617.109,-0.25,-0.331,-0.91,-3.3,-5.4,-3.78,2,6
17617.109,-0.257,-0.321,-0.914,-2.5,-5.65,-3.91,2,6
17617.125,-0.257,-0.31,-0.919,-2.87,-5.98,-3.48,2,6
17617.125,-0.256,-0.322,-0.92,-3.39,-6.04,-3.17,2,6
17617.14,-0.256,-0.324,-0.927,-2.23,-4.94,-2.47,2,6
17617.156,-0.253,-0.315,-0.925,-2.14,-4.58,-1.56,2,6
17617.156,-0.256,-0.323,-0.915,-0.73,-4.55,0.21,2,6
17617.171,-0.263,-0.331,-0.912,0.98,-4.73,2.35,2,6
17617.187,-0.256,-0.319,-0.914,1.62,-4.67,4.55,2,6
17617.187,-0.256,-0.325,-0.912,2.38,-4.27,5.55,2,6
17617.203,-0.258,-0.319,-0.913,2.84,-4.24,5.34,2,6
17617.218,-0.262,-0.316,-0.901,2.08,-4.3,4.46,2,6
17617.234,-0.269,-0.33,-0.885,1.07,-4.97,3.72,2,6
17617.234,-0.277,-0.328,-0.868,0.98,-6.59,3.48,2,6
17617.25,-0.284,-0.323,-0.857,1.4,-8.97,3.66,2,6
17617.25,-0.298,-0.311,-0.849,1.28,-11.72,4.03,2,6
17617.265,-0.317,-0.308,-0.822,1.07,-15.08,4.85,2,6
17617.265,-0.345,-0.313,-0.779,2.08,-19.1,6.99,2,6
17617.281,-0.382,-0.311,-0.731,4.52,-24.99,9.7,2,6
17617.296,-0.434,-0.298,-0.693,8.33,-33.11,13.67,2,6
17617.296,-0.485,-0.276,-0.675,11.78,-42.57,20.84,2,6
17617.312,-0.533,-0.262,-0.653,14.22,-53.22,30.67,2,6
17617.328,-0.574,-0.247,-0.645,16.48,-65.49,41.63,2,6
17617.328,-0.625,-0.243,-0.658,19.65,-78.71,52.89,2,6
17617.343,-0.652,-0.249,-0.675,24.48,-93.54,62.59,2,6
17617.359,-0.64,-0.23,-0.692,28.72,-109.47,69.7,2,6
17617.359,-0.638,-0.224,-0.706,31.89,-123.97,73.34,2,6
17617.375,-0.625,-0.278,-0.723,36.16,-137.7,72.05,2,6
17617.375,-0.603,-0.298,-0.748,45.78,-146.43,67.05,2,6
17617.39,-0.622,-0.267,-0.782,54.17,-148.99,61.13,2,6
17617.406,-0.669,-0.237,-0.829,53.59,-149.24,55.48,2,6
17617.406,-0.723,-0.201,-0.878,41.72,-146.43,54.17,2,6
17617.421,-0.738,-0.182,-0.876,21.58,-140.66,58.78,2,6
17617.437,-0.727,-0.226,-0.833,4.82,-133.73,64.3,2,6
17617.453,-0.682,-0.378,-0.776,12.27,-120.27,64.94,2,6
17617.468,-0.683,-0.382,-0.776,29.73,-112.58,61.31,2,6
17617.468,-0.672,-0.352,-0.805,46.39,-106.23,54.54,2,6
17617.484,-0.669,-0.289,-0.814,50.94,-100.1,46.69,2,6
17617.5,-0.703,-0.237,-0.845,41.44,-95.71,38.18,2,6
17617.5,-0.732,-0.198,-0.872,17.3,-91.89,32.84,2,6
17617.515,-0.714,-0.165,-0.835,-14.83,-88.02,29.82,2,6
17617.515,-0.69,-0.17,-0.77,-40.38,-84.17,24.14,2,6
17617.531,-0.742,-0.194,-0.72,-57.86,-82.77,14.37,2,6
17617.546,-0.787,-0.228,-0.665,-70.25,-81.51,8.18,2,6
17617.562,-0.781,-0.181,-0.597,-76.39,-84.81,2.35,2,6
17617.562,-0.791,-0.118,-0.547,-75.53,-92.84,-5.55,2,6
17617.578,-0.84,-0.089,-0.522,-73.0,-102.94,-12.15,2,6
17617.578,-0.866,-0.062,-0.501,-72.91,-115.18,-14.53,2,6
17617.593,-0.917,0.001,-0.475,-73.55,-129.49,-16.3,2,6
17617.609,-0.98,0.04,-0.447,-74.07,-145.02,-15.17,2,6
17617.625,-1.126,0.101,-0.425,-72.6,-180.67,-4.0,2,6
17617.625,-1.126,0.054,-0.391,-69.95,-193.61,16.72,2,6
17617.64,-1.163,0.146,-0.331,-59.76,-208.38,32.29,2,6
17617.656,-1.23,0.173,-0.305,-38.94,-217.63,53.9,2,6
17617.671,-1.268,0.202,-0.321,-14.68,-224.65,78.77,2,6
17617.671,-1.298,0.151,-0.309,7.6,-229.5,107.61,2,6
17617.687,-1.238,0.116,-0.256,32.81,-236.67,133.73,2,6
17617.703,-1.302,0.127,-0.223,66.07,-243.69,152.99,2,6
17617.703,-1.347,0.105,-0.217,101.32,-249.98,176.89,2,6
17617.718,-1.358,0.104,-0.212,131.17,-257.64,197.91,2,6
17617.734,-1.345,0.064,-0.201,153.6,-263.86,214.76,2,6
17617.734,-1.342,0.048,-0.192,169.74,-267.53,223.82,2,6
17617.75,-1.329,0.062,-0.19,176.95,-266.4,229.13,2,6
17617.75,-1.271,0.109,-0.199,169.07,-260.08,230.84,2,6
17617.765,-1.206,0.179,-0.194,143.99,-248.66,225.62,2,6
17617.781,-1.123,0.261,-0.115,64.27,-223.98,202.49,2,6
17617.796,-1.083,0.261,-0.06,21.67,-218.67,190.01,2,6
17617.812,-1.039,0.233,-0.011,-15.23,-218.39,177.53,2,6
17617.812,-1.008,0.198,0.035,-42.45,-219.34,166.51,2,6
17617.828,-0.984,0.18,0.065,-58.11,-220.47,158.09,2,6
17617.843,-0.947,0.171,0.087,-66.32,-221.53,152.32,2,6
17617.843,-0.898,0.157,0.098,-69.77,-221.14,147.89,2,6
17617.859,-0.843,0.148,0.106,-69.4,-217.47,142.49,2,6
17617.859,-0.784,0.143,0.117,-68.51,-210.15,135.56,2,6
17617.875,-0.736,0.143,0.148,-68.64,-199.47,127.29,2,6
17617.875,-0.702,0.146,0.194,-68.03,-187.51,118.08,2,6
17617.89,-0.688,0.166,0.23,-68.24,-175.73,109.68,2,6
17617.906,-0.691,0.183,0.261,-70.71,-165.11,103.31,2,6
17617.906,-0.704,0.196,0.293,-73.55,-156.38,97.54,2,6
17617.921,-0.723,0.209,0.333,-75.78,-150.46,93.14,2,6
17617.937,-0.715,0.226,0.379,-79.1,-146.34,90.43,2,6
17617.937,-0.696,0.244,0.406,-82.74,-141.82,88.26,2,6
17617.953,-0.68,0.228,0.416,-83.04,-135.47,85.97,2,6
17617.968,-0.671,0.188,0.426,-79.53,-129.4,83.13,2,6
17617.968,-0.502,0.104,0.509,-75.78,-124.0,78.22,2,6
17617.984,-0.303,-0.454,0.262,-124.39,-117.07,35.04,2,6
17618.0,-0.516,-0.369,0.108,-134.98,-83.32,-59.91,2,6
17618.0,-0.867,-0.658,0.295,-44.68,-45.23,-83.29,2,6
17618.015,-0.941,-0.29,0.362,-17.52,-45.32,-105.17,2,6
17618.015,-0.791,-0.168,0.542,-7.51,-58.47,-130.41,2,6
17618.031,-1.035,0.183,0.757,1.43,-91.62,-147.8,2,6
17618.046,-1.051,0.471,0.782,37.57,-120.7,-110.45,2,6
17618.046,-0.954,0.661,0.722,58.47,-127.87,-38.21,2,6
17618.062,-0.884,0.761,0.813,40.59,-128.64,33.11,2,6
17618.078,-1.128,1.032,0.908,0.92,-125.06,100.56,2,6
17618.078,-0.889,1.168,0.753,-72.12,-117.25,157.38,2,6
17618.093,-0.469,0.747,0.478,-176.52,-108.4,137.39,2,6
17618.109,-0.829,-0.09,0.801,-317.51,-97.05,4.58,2,6
17618.125,-0.759,-0.142,0.874,-242.13,-89.11,9.74,2,6
17618.14,-0.557,-0.279,0.933,-32.32,-58.47,33.94,2,6
17618.14,-0.423,-0.176,0.887,40.31,-34.97,26.83,2,6
17618.156,-0.337,-0.062,0.823,80.81,-20.87,8.15,2,6
17618.156,-0.372,0.204,0.859,96.22,-15.59,-1.77,2,6
17618.171,-0.409,0.4,0.869,95.43,-20.42,6.87,2,6
17618.187,-0.393,0.515,0.883,80.75,-32.9,30.73,2,6
17618.187,-0.358,0.55,0.835,50.87,-47.0,58.08,2,6
17618.203,-0.349,0.494,0.753,9.83,-62.69,80.23,2,6
17618.218,-0.321,0.404,0.691,-29.45,-76.91,98.54,2,6
17618.218,-0.261,0.306,0.663,-59.85,-86.43,112.92,2,6
17618.234,-0.226,0.211,0.627,-75.32,-86.18,119.54,2,6
17618.25,-0.195,0.131,0.594,-75.62,-76.02,119.88,2,6
17618.25,-0.169,0.068,0.564,-65.77,-59.48,112.55,2,6
17618.265,-0.165,0.05,0.563,-52.19,-38.48,97.57,2,6
17618.281,-0.216,0.063,0.613,-22.83,5.43,59.45,2,6
17618.296,-0.269,0.074,0.674,-6.5,23.07,42.66,2,6
17618.312,-0.334,0.107,0.749,9.16,35.65,30.3,2,6
17618.312,-0.387,0.169,0.811,19.65,42.09,22.46,2,6
17618.328,-0.426,0.241,0.847,21.09,43.06,18.74,2,6
17618.328,-0.457,0.311,0.882,11.35,40.22,17.15,2,6
17618.343,-0.479,0.345,0.908,-5.1,35.22,16.6,2,6
17618.359,-0.497,0.331,0.921,-22.58,29.02,17.06,2,6
17618.359,-0.5,0.299,0.919,-37.32,22.43,18.43,2,6
17618.375,-0.488,0.265,0.916,-44.95,17.21,19.44,2,6
17618.39,-0.476,0.233,0.911,-44.22,13.67,18.98,2,6
17618.39,-0.448,0.2,0.89,-35.37,12.42,17.98,2,6
17618.406,-0.412,0.189,0.864,-21.79,15.17,16.94,2,6
17618.406,-0.397,0.192,0.832,-7.26,21.61,15.08,2,6
17618.421,-0.408,0.183,0.806,2.72,28.72,11.84,2,6
17618.437,-0.394,0.204,0.79,4.52,34.33,5.28,2,6
17618.437,-0.403,0.199,0.777,1.22,37.45,-4.15,2,6
17618.453,-0.403,0.16,0.778,-2.81,40.65,-11.08,2,6
17618.468,-0.4,0.144,0.767,-3.69,44.8,-16.48,2,6
17618.468,-0.41,0.133,0.776,-1.92,49.04,-21.49,2,6
17618.484,-0.446,0.146,0.819,0.49,52.28,-25.82,2,6
17618.484,-0.594,0.248,0.968,2.44,49.84,-27.56,2,6
17618.5,-0.717,0.349,1.177,9.28,34.97,-16.36,2,6
17618.515,-0.845,0.479,1.233,12.21,4.36,1.65,2,6
17618.531,-0.609,0.452,1.197,-5.86,-34.7,19.68,2,6
17618.531,-0.35,0.409,1.015,-32.72,-57.04,17.7,2,6
17618.546,-0.306,0.253,0.898,-35.07,-47.21,9.83,2,6
17618.546,-0.37,0.209,0.979,-22.13,-26.98,5.31,2,6
17618.562,-0.433,0.223,1.032,0.49,-15.38,3.2,2,6
17618.578,-0.434,0.21,1.028,21.03,-15.38,1.25,2,6
17618.578,-0.392,0.208,1.014,34.09,-18.83,-2.81,2,6
17618.593,-0.378,0.228,0.982,43.92,-21.79,-8.03,2,6
17618.609,-0.385,0.26,0.94,49.78,-25.12,-10.93,2,6
17618.609,-0.382,0.298,0.912,47.49,-29.69,-11.2,2,6
17618.625,-0.399,0.363,0.914,37.69,-34.61,-9.09,2,6
17618.625,-0.332,0.365,0.888,23.35,-41.11,-3.05,2,6
17618.64,-0.239,0.314,0.787,5.49,-41.9,-2.41,2,6
17618.656,-0.288,0.231,0.812,-6.99,-32.29,-5.55,2,6
17618.656,-0.328,0.208,0.887,-14.68,-29.39,-8.33,2,6
17618.671,-0.272,0.232,0.875,-15.11,-31.25,-7.72,2,6
17618.687,-0.26,0.218,0.854,-9.0,-28.11,-7.84,2,6
17618.687,-0.269,0.23,0.869,-0.12,-22.89,-7.97,2,6
17618.703,-0.276,0.251,0.869,10.53,-17.55,-6.16,2,6
17618.718,-0.278,0.281,0.85,19.59,-13.21,-3.69,2,6
17618.734,-0.281,0.306,0.833,23.71,-9.52,-2.29,2,6
17618.734,-0.282,0.324,0.813,21.55,-6.2,-2.84,2,6
17618.734,-0.279,0.323,0.787,15.23,-2.08,-4.58,2,6
17618.75,-0.281,0.318,0.775,8.24,3.48,-6.53,2,6
17618.765,-0.297,0.314,0.769,2.53,9.64,-7.48,2,6
17618.781,-0.306,0.304,0.773,-3.3,15.11,-7.84,2,6
17618.781,-0.32,0.292,0.794,-8.0,19.9,-8.7,2,6
17618.796,-0.343,0.273,0.817,-7.9,23.53,-8.42,2,6
17618.796,-0.357,0.266,0.82,-3.14,25.94,-5.74,2,6
17618.812,-0.385,0.301,0.84,3.72,28.57,-1.62,2,6
17618.828,-0.441,0.332,0.937,10.07,28.69,4.0,2,6
17618.828,-0.402,0.355,0.944,5.62,19.14,7.14,2,6
17618.843,-0.271,0.332,0.877,-6.93,12.85,5.13,2,6
17618.859,-0.452,0.353,0.957,-8.39,18.95,1.04,2,6
17618.859,-0.483,0.351,1.063,-10.99,11.41,6.26,2,6
17618.875,-0.356,0.373,1.018,-19.81,-3.02,7.9,2,6
17618.89,-0.341,0.33,0.988,-20.39,-4.91,5.16,2,6
17618.89,-0.343,0.29,0.988,-16.63,-3.54,3.57,2,6
17618.906,-0.343,0.279,0.978,-9.34,-2.32,2.72,2,6
17618.906,-0.357,0.269,0.966,-3.14,-2.35,1.31,2,6
17618.921,-0.362,0.27,0.96,1.13,-4.61,-0.85,2,6
17618.937,-0.382,0.283,0.944,4.7,-8.24,-2.69,2,6
17618.937,-0.392,0.291,0.922,5.8,-13.37,-3.2,2,6
17618.953,-0.393,0.302,0.911,4.09,-18.4,-2.66,2,6
17618.968,-0.397,0.325,0.922,1.01,-23.47,-0.52,2,6
17618.968,-0.282,0.286,0.825,-5.31,-28.38,0.49,2,6
17618.984,-0.308,0.267,0.819,-7.72,-22.06,-2.59,2,6
17619.0,-0.327,0.215,0.854,-3.63,-16.17,-4.3,2,6
17619.0,-0.312,0.24,0.881,-0.46,-14.92,-6.01,2,6
17619.015,-0.293,0.291,0.866,3.23,-12.45,-4.24,2,6
17619.031,-0.284,0.279,0.859,8.18,-8.36,-2.17,2,6
17619.031,-0.291,0.271,0.863,11.05,-4.55,-1.1,2,6
17619.046,-0.282,0.281,0.864,11.08,-1.74,-0.15,2,6
17619.062,-0.284,0.294,0.863,9.25,0.37,-0.18,2,6
17619.062,-0.291,0.286,0.869,6.41,1.89,-0.37,2,6
17619.078,-0.301,0.279,0.874,4.52,2.41,-0.52,2,6
17619.078,-0.308,0.275,0.872,5.01,3.27,0.34,2,6
17619.093,-0.312,0.289,0.867,6.96,4.24,1.34,2,6
17619.109,-0.319,0.304,0.869,8.67,4.76,1.86,2,6
17619.109,-0.33,0.304,0.867,3.85,1.83,0.89,2,6
17619.125,-0.326,0.302,0.866,0.7,0.85,0.4,2,6
17619.125,-0.311,0.295,0.858,-0.21,2.32,0.18,2,6
17619.14,-0.305,0.282,0.841,0.55,5.58,0.18,2,6
17619.156,-0.289,0.257,0.801,3.2,10.77,-0.09,2,6
17619.171,-0.276,0.239,0.772,8.85,19.29,-0.52,2,6
17619.171,-0.28,0.274,0.72,15.84,31.37,-1.4,2,6
17619.187,-0.361,0.318,0.801,20.66,45.08,-1.53,2,6
17619.187,-0.352,0.243,0.894,19.07,46.24,-2.72,2,6
17619.203,-0.47,0.41,0.961,4.46,42.94,-8.61,2,6
17619.218,-0.602,0.466,1.162,-2.08,32.26,-2.38,2,6
17619.218,-0.47,0.432,1.083,-11.66,4.64,5.52,2,6
17619.234,-0.359,0.357,0.951,-17.58,-7.32,8.24,2,6
17619.25,-0.355,0.278,0.911,-16.57,-5.65,6.65,2,6
17619.25,-0.374,0.243,0.903,-8.3,-1.28,4.39,2,6
17619.265,-0.403,0.24,0.893,1.56,1.22,2.23,2,6
17619.281,-0.437,0.259,0.897,6.87,0.12,0.49,2,6
17619.281,-0.461,0.274,0.899,9.22,-4.33,0.46,2,6
17619.296,-0.487,0.311,0.901,8.85,-10.53,1.89,2,6
17619.296,-0.483,0.336,0.908,4.7,-18.74,5.07,2,6
17619.312,-0.384,0.327,0.816,-3.78,-25.33,6.44,2,6
17619.328,-0.435,0.325,0.822,-7.14,-19.78,6.16,2,6
17619.328,-0.446,0.288,0.844,-7.72,-16.97,6.74,2,6
17619.343,-0.423,0.304,0.86,-9.22,-15.41,6.87,2,6
17619.359,-0.43,0.297,0.854,-6.5,-12.39,6.62,2,6
17619.359,-0.442,0.297,0.866,-3.08,-9.09,5.98,2,6
17619.375,-0.456,0.291,0.876,1.1,-6.56,5.16,2,6
17619.39,-0.457,0.294,0.885,5.04,-5.31,4.91,2,6
17619.39,-0.459,0.297,0.88,9.67,-3.66,4.88,2,6
17619.406,-0.464,0.303,0.873,13.76,-1.28,5.01,2,6
17619.406,-0.471,0.305,0.869,16.57,0.89,5.25,2,6
17619.421,-0.483,0.314,0.866,18.37,2.87,5.46,2,6
17619.437,-0.503,0.325,0.874,19.9,4.33,5.68,2,6
17619.437,-0.52,0.329,0.879,21.12,4.88,6.07,2,6
17619.453,-0.532,0.341,0.893,22.16,5.46,6.35,2,6
17619.468,-0.548,0.361,0.916,24.02,7.69,6.29,2,6
17619.468,-0.568,0.36,0.928,27.04,10.65,5.95,2,6
17619.484,-0.579,0.356,0.925,31.71,13.34,6.16,2,6
17619.5,-0.585,0.359,0.909,37.69,15.78,6.68,2,6
17619.5,-0.579,0.366,0.888,42.97,18.1,6.96,2,6
17619.515,-0.567,0.359,0.865,48.28,21.55,7.08,2,6
17619.531,-0.578,0.346,0.839,53.13,26.76,7.26,2,6
17619.531,-0.599,0.34,0.799,58.14,33.33,8.76,2,6
17619.546,-0.618,0.315,0.776,62.5,38.18,13.0,2,6
17619.562,-0.576,0.337,0.77,65.34,43.03,16.79,2,6
17619.562,-0.568,0.358,0.735,67.69,50.42,15.78,2,6
17619.578,-0.557,0.343,0.717,65.61,58.47,16.11,2,6
17619.578,-0.544,0.337,0.703,63.66,67.45,16.02,2,6
17619.593,-0.542,0.305,0.67,64.42,75.66,15.23,2,6
17619.609,-0.527,0.292,0.648,63.75,83.01,14.4,2,6
17619.609,-0.512,0.311,0.635,62.93,89.39,11.87,2,6
17619.625,-0.506,0.318,0.619,62.5,95.16,9.06,2,6
17619.64,-0.507,0.318,0.605,61.16,98.97,6.9,2,6
17619.64,-0.523,0.332,0.61,58.14,98.45,4.76,2,6
17619.656,-0.518,0.347,0.623,53.41,96.93,3.63,2,6
17619.656,-0.492,0.341,0.624,48.4,97.66,3.39,2,6
17619.671,-0.47,0.33,0.606,45.08,100.22,3.17,2,6
17619.687,-0.449,0.334,0.58,42.63,105.66,2.32,2,6
17619.687,-0.433,0.323,0.585,39.55,112.98,-0.61,2,6
17619.703,-0.404,0.291,0.573,37.35,124.12,-6.78,2,6
17619.718,-0.362,0.254,0.533,38.97,141.76,-15.53,2,6
17619.734,-0.33,0.217,0.442,43.95,165.72,-28.93,2,6
17619.734,-0.329,0.195,0.346,49.84,198.25,-45.99,2,6
17619.75,-0.355,0.185,0.25,57.68,235.85,-65.37,2,6
17619.75,-0.43,0.191,0.18,66.23,275.58,-85.42,2,6
17619.765,-0.539,0.186,0.123,76.02,315.16,-103.06,2,6
17619.765,-0.68,0.206,0.087,84.41,351.51,-117.19,2,6
17619.781,-0.808,0.213,0.061,90.52,380.47,-128.3,2,6
17619.796,-0.901,0.185,0.03,93.69,399.95,-140.72,2,6
17619.796,-0.984,0.157,0.023,93.84,410.38,-155.43,2,6
17619.812,-1.029,0.139,-0.007,92.14,410.5,-173.5,2,6
17619.828,-1.035,0.17,-0.114,84.26,406.17,-191.63,2,6
17619.828,-1.046,0.217,-0.212,66.77,403.06,-205.91,2,6
17619.843,-1.06,0.206,-0.233,45.59,398.51,-216.62,2,6
17619.859,-1.056,0.163,-0.211,26.12,389.32,-225.65,2,6
17619.859,-1.047,0.134,-0.171,13.82,374.52,-231.85,2,6
17619.875,-1.038,0.103,-0.159,11.93,357.25,-233.25,2,6
17619.89,-1.01,0.099,-0.174,15.75,339.73,-228.64,2,6
17619.89,-0.978,0.102,-0.2,24.69,320.84,-217.75,2,6
17619.906,-0.931,0.095,-0.241,38.76,300.09,-202.55,2,6
17619.921,-0.883,0.08,-0.273,55.54,279.58,-185.13,2,6
17619.921,-0.857,0.065,-0.311,72.63,258.89,-168.98,2,6
17619.937,-0.853,0.079,-0.374,85.24,235.85,-152.87,2,6
17619.953,-0.874,0.116,-0.464,92.78,215.52,-136.85,2,6
17619.953,-0.906,0.13,-0.559,93.3,200.11,-123.81,2,6
17619.984,-0.907,0.091,-0.728,77.36,174.63,-112.22,2,6
17619.984,-0.892,0.075,-0.805,67.69,168.4,-107.03,2,6
17620.0,-0.864,0.075,-0.854,61.43,167.27,-98.91,2,6
17620.0,-0.852,0.065,-0.869,60.37,170.69,-89.14,2,6
17620.015,-0.856,0.047,-0.855,62.38,172.46,-78.28,2,6
17620.015,-0.857,0.036,-0.845,66.5,170.57,-67.17,2,6
17620.031,-0.869,0.034,-0.873,70.47,166.51,-56.18,2,6
17620.046,-0.86,0.038,-0.92,71.05,162.88,-45.66,2,6
17620.046,-0.817,0.019,-0.947,65.98,162.14,-35.31,2,6
17620.062,-0.787,-0.035,-0.959,61.62,164.19,-28.38,2,6
17620.078,-0.761,-0.07,-0.947,61.31,165.99,-23.44,2,6
17620.078,-0.73,-0.071,-0.915,62.9,165.23,-18.98,2,6
17620.093,-0.688,-0.068,-0.903,60.49,157.96,-13.98,2,6
17620.109,-0.668,-0.084,-0.887,56.31,150.61,-13.73,2,6
17620.109,-0.67,-0.117,-0.846,55.18,139.81,-11.14,2,6
17620.125,-0.658,-0.156,-0.837,54.9,128.79,-7.97,2,6
17620.125,-0.615,-0.181,-0.865,55.73,120.09,-2.59,2,6
17620.14,-0.583,-0.186,-0.904,57.62,112.03,3.14,2,6
17620.156,-0.542,-0.129,-0.956,54.51,103.06,3.14,2,6
17620.156,-0.552,-0.156,-0.949,47.12,99.0,2.66,2,6
17620.171,-0.515,-0.173,-0.938,43.18,94.7,4.58,2,6
17620.187,-0.502,-0.161,-0.927,44.5,91.04,3.27,2,6
17620.203,-0.517,-0.174,-0.905,46.69,88.72,3.17,2,6
17620.203,-0.547,-0.14,-0.891,47.27,82.46,2.29,2,6
17620.218,-0.572,-0.129,-0.851,43.21,72.94,0.85,2,6
17620.218,-0.59,-0.13,-0.804,36.87,60.06,-1.98,2,6
17620.234,-0.607,-0.14,-0.76,30.55,44.86,-4.58,2,6
17620.25,-0.597,-0.149,-0.758,25.06,27.59,-5.58,2,6
17620.25,-0.582,-0.157,-0.797,19.38,11.63,-4.85,2,6
17620.265,-0.539,-0.173,-0.837,12.97,-0.15,-2.2,2,6
17620.265,-0.521,-0.214,-0.878,8.61,-4.3,-0.4,2,6
17620.281,-0.518,-0.248,-0.889,8.42,-2.23,0.31,2,6
17620.296,-0.568,-0.243,-0.826,15.35,6.32,0.52,2,6
17620.312,-0.595,-0.232,-0.796,16.75,7.51,2.2,2,6
17620.328,-0.617,-0.22,-0.792,16.36,6.26,5.52,2,6
17620.328,-0.626,-0.193,-0.8,14.04,2.99,8.82,2,6
17620.343,-0.609,-0.181,-0.796,8.03,-0.18,11.75,2,6
17620.359,-0.564,-0.225,-0.793,2.04,-3.08,14.34,2,6
17620.359,-0.528,-0.272,-0.791,1.98,-4.24,18.1,2,6
17620.375,-0.489,-0.299,-0.819,6.01,-3.36,22.68,2,6
17620.375,-0.472,-0.31,-0.857,9.83,1.74,27.01,2,6
17620.39,-0.488,-0.345,-0.871,11.78,8.88,29.6,2,6
17620.406,-0.506,-0.368,-0.854,11.87,13.7,28.08,2,6
17620.406,-0.52,-0.359,-0.821,10.9,15.9,22.31,2,6
17620.421,-0.533,-0.33,-0.786,6.71,14.47,14.1,2,6
17620.437,-0.542,-0.304,-0.744,-0.09,8.82,5.55,2,6
17620.437,-0.557,-0.274,-0.716,-6.56,-1.07,-3.17,2,6
17620.453,-0.582,-0.238,-0.699,-12.88,-13.67,-10.8,2,6
17620.468,-0.67,-0.214,-0.681,-25.76,-44.07,-22.8,2,6
17620.484,-0.759,-0.223,-0.665,-29.69,-58.93,-25.82,2,6
17620.5,-0.849,-0.24,-0.644,-29.36,-72.12,-25.15,2,6
17620.5,-0.928,-0.23,-0.659,-25.61,-84.23,-22.28,2,6
17620.515,-0.994,-0.16,-0.716,-24.48,-96.26,-17.21,2,6
17620.515,-1.042,-0.087,-0.761,-29.97,-108.16,-10.65,2,6
17620.531,-1.106,-0.058,-0.8,-37.32,-118.78,-3.88,2,6
17620.546,-1.153,-0.036,-0.84,-42.27,-128.18,6.44,2,6
17620.546,-1.166,-0.016,-0.934,-43.58,-134.37,21.52,2,6
17620.562,-1.126,-0.022,-1.003,-47.58,-137.79,36.01,2,6
17620.578,-1.253,-0.071,-1.04,-51.24,-129.89,49.87,2,6
17620.578,-1.185,-0.135,-0.96,-50.87,-121.19,70.83,2,6
17620.593,-1.219,-0.038,-0.946,-37.93,-118.59,76.6,2,6
17620.609,-1.306,-0.089,-0.931,-30.88,-105.23,92.62,2,6
17620.609,-1.241,-0.097,-0.858,-32.26,-100.41,111.18,2,6
17620.625,-1.242,-0.128,-0.801,-32.93,-99.0,120.55,2,6
17620.64,-1.22,-0.196,-0.71,-34.67,-100.22,127.2,2,6
17620.64,-1.24,-0.17,-0.685,-30.03,-104.16,125.95,2,6
17620.656,-1.241,-0.139,-0.719,-29.24,-111.64,122.93,2,6
17620.656,-1.188,-0.102,-0.744,-39.67,-120.67,115.7,2,6
17620.671,-1.182,-0.114,-0.734,-55.45,-127.08,103.49,2,6
17620.687,-1.17,-0.155,-0.708,-67.78,-136.23,88.96,2,6
17620.687,-1.177,-0.162,-0.728,-71.47,-144.93,74.5,2,6
17620.703,-1.173,-0.124,-0.77,-73.52,-152.53,62.62,2,6
17620.718,-1.169,-0.089,-0.799,-77.88,-159.55,51.64,2,6
17620.718,-1.147,-0.089,-0.798,-82.43,-162.91,44.22,2,6
17620.734,-1.126,-0.078,-0.779,-82.06,-163.21,40.77,2,6
17620.734,-1.109,-0.048,-0.778,-76.17,-161.5,42.76,2,6
17620.75,-1.069,-0.003,-0.793,-68.94,-158.24,48.74,2,6
17620.765,-1.038,0.026,-0.81,-60.95,-152.47,57.16,2,6
17620.781,-1.031,0.039,-0.825,-51.15,-144.32,67.05,2,6
17620.781,-1.048,0.048,-0.851,-41.47,-135.56,74.53,2,6
17620.812,-1.048,0.077,-0.883,-41.72,-125.4,73.09,2,6
17620.812,-1.04,0.062,-0.88,-49.96,-124.36,65.65,2,6
17620.828,-1.042,0.042,-0.886,-58.69,-126.65,53.96,2,6
17620.828,-1.038,0.03,-0.902,-67.26,-131.99,39.31,2,6
17620.843,-1.023,0.026,-0.921,-75.01,-138.25,25.45,2,6
17620.859,-1.0,0.03,-0.944,-82.4,-144.05,14.86,2,6
17620.859,-0.946,0.032,-0.953,-90.24,-149.66,6.53,2,6
17620.875,-0.894,0.027,-0.945,-94.67,-152.62,-0.12,2,6
17620.875,-0.861,0.02,-0.938,-94.85,-151.95,-3.69,2,6
17620.89,-0.833,0.013,-0.929,-92.65,-149.24,-3.78,2,6
17620.906,-0.751,0.001,-0.907,-89.11,-141.91,0.98,2,6
17620.921,-0.75,0.028,-0.868,-84.29,-134.07,4.88,2,6
17620.921,-0.71,-0.021,-0.818,-80.78,-124.33,12.54,2,6
17620.937,-0.72,-0.003,-0.782,-76.2,-116.0,19.07,2,6
17620.937,-0.667,-0.089,-0.731,-67.17,-111.51,29.51,2,6
17620.953,-0.658,-0.049,-0.697,-58.2,-104.62,34.85,2,6
17620.968,-0.636,-0.066,-0.674,-53.65,-96.77,39.8,2,6
17620.968,-0.613,-0.092,-0.655,-50.17,-91.62,41.78,2,6
17620.984,-0.569,-0.107,-0.619,-47.64,-87.77,40.93,2,6
17621.0,-0.549,-0.108,-0.587,-47.33,-83.1,35.52,2,6
17621.0,-0.533,-0.086,-0.551,-49.13,-78.59,26.37,2,6
17621.015,-0.527,-0.08,-0.525,-51.94,-74.19,17.64,2,6
17621.031,-0.504,-0.079,-0.492,-54.81,-71.35,11.17,2,6
17621.031,-0.492,-0.059,-0.451,-55.09,-65.68,3.66,2,6
17621.046,-0.508,-0.059,-0.41,-55.57,-60.88,-1.31,2,6
17621.046,-0.496,-0.056,-0.36,-54.05,-52.58,-2.14,2,6
17621.062,-0.508,-0.035,-0.324,-49.81,-49.32,-2.2,2,6
17621.078,-0.517,-0.014,-0.287,-45.23,-45.17,-1.25,2,6
17621.093,-0.547,0.005,-0.25,-36.53,-38.51,5.46,2,6
17621.093,-0.544,0.016,-0.227,-31.25,-34.49,10.71,2,6
17621.109,-0.547,0.028,-0.204,-25.91,-30.82,14.98,2,6
17621.109,-0.632,0.059,-0.161,-21.12,-28.96,16.97,2,6
17621.14,-0.745,0.058,-0.067,-21.21,-21.36,20.6,2,6
17621.14,-0.772,0.057,-0.013,-18.68,-19.87,22.89,2,6
17621.156,-0.814,0.084,0.033,-14.07,-18.28,24.35,2,6
17621.171,-0.862,0.114,0.059,-11.05,-19.29,25.94,2,6
17621.171,-0.921,0.119,0.075,-9.52,-21.97,28.08,2,6
17621.187,-0.958,0.114,0.089,-9.13,-23.77,31.31,2,6
17621.187,-0.993,0.128,0.103,-8.24,-24.26,33.66,2,6
17621.203,-1.018,0.154,0.131,-6.78,-24.08,35.58,2,6
17621.218,-1.056,0.184,0.167,-4.43,-24.6,37.48,2,6
17621.218,-1.085,0.199,0.191,-1.62,-27.25,40.93,2,6
17621.234,-1.091,0.218,0.207,1.1,-31.28,46.08,2,6
17621.25,-1.1,0.251,0.226,4.24,-35.0,51.45,2,6
17621.25,-1.124,0.293,0.259,6.1,-38.54,57.53,2,6
17621.265,-1.15,0.342,0.313,5.34,-42.21,65.0,2,6
17621.265,-1.191,0.368,0.377,4.43,-46.11,74.53,2,6
17621.281,-1.255,0.407,0.457,5.07,-51.7,87.53,2,6
17621.312,-1.373,0.479,0.57,12.85,-74.4,125.8,2,6
17621.312,-1.402,0.508,0.592,17.03,-90.18,147.95,2,6
17621.328,-1.413,0.512,0.576,18.65,-108.68,169.35,2,6
17621.328,-1.358,0.525,0.52,17.7,-124.85,185.58,2,6
17621.343,-1.265,0.558,0.435,17.18,-132.3,195.68,2,6
17621.359,-1.15,0.583,0.343,16.27,-131.11,198.86,2,6
17621.359,-1.051,0.613,0.246,16.42,-121.49,192.39,2,6
17621.375,-0.966,0.622,0.213,16.33,-105.53,177.71,2,6
17621.39,-0.866,0.642,0.202,14.89,-88.96,156.87,2,6
17621.39,-0.76,0.685,0.22,11.63,-73.21,130.89,2,6
17621.406,-0.625,0.746,0.251,4.03,-59.76,102.33,2,6
17621.406,-0.531,0.81,0.281,-9.03,-46.75,72.88,2,6
17621.421,-0.522,0.819,0.313,-23.44,-34.79,44.13,2,6
17621.437,-0.522,0.741,0.315,-34.76,-25.7,16.24,2,6
17621.437,-0.54,0.704,0.328,-45.5,-19.59,-13.76,2,6
17621.453,-0.564,0.662,0.338,-51.64,-15.81,-43.43,2,6
17621.468,-0.559,0.63,0.349,-58.78,-15.63,-71.6,2,6
17621.468,-0.556,0.624,0.395,-66.87,-16.6,-96.74,2,6
17621.484,-0.567,0.592,0.434,-73.27,-19.84,-117.19,2,6
17621.5,-0.544,0.556,0.447,-77.94,-26.95,-132.66,2,6
17621.5,-0.539,0.52,0.428,-78.13,-32.23,-144.54,2,6
17621.515,-0.516,0.477,0.402,-75.96,-36.53,-152.78,2,6
17621.515,-0.511,0.435,0.367,-73.03,-38.51,-156.77,2,6
17621.531,-0.527,0.392,0.351,-68.36,-38.67,-156.93,2,6
17621.546,-0.541,0.351,0.348,-63.08,-40.22,-153.39,2,6
17621.546,-0.627,0.302,0.327,-57.74,-41.9,-148.38,2,6
17621.562,-0.76,0.232,0.319,-51.39,-42.33,-141.76,2,6
17621.578,-0.84,0.178,0.32,-42.33,-43.82,-135.14,2,6
17621.593,-0.916,0.171,0.313,-31.68,-44.68,-130.89,2,6
17621.593,-1.0,0.175,0.318,-22.49,-45.63,-129.95,2,6
17621.609,-1.081,0.191,0.32,-16.69,-47.73,-132.02,2,6
17621.625,-1.133,0.206,0.339,-15.26,-52.86,-134.56,2,6
17621.64,-1.122,0.244,0.338,-16.79,-70.86,-136.75,2,6
17621.64,-1.102,0.261,0.33,-17.73,-79.29,-133.03,2,6
17621.656,-1.056,0.262,0.32,-20.36,-88.69,-123.63,2,6
17621.656,-0.963,0.217,0.307,-21.61,-95.83,-107.43,2,6
17621.671,-0.857,0.149,0.278,-15.56,-96.62,-85.12,2,6
17621.687,-0.785,0.071,0.23,2.38,-90.55,-57.95,2,6
17621.687,-0.739,0.047,0.169,27.59,-80.36,-31.5,2,6
17621.703,-0.676,0.086,0.111,49.26,-67.42,-11.17,2,6
17621.718,-0.617,0.131,0.099,57.89,-52.49,0.06,2,6
17621.718,-0.603,0.123,0.152,55.76,-36.96,4.64,2,6
17621.734,-0.604,0.115,0.229,50.36,-24.02,4.79,2,6
17621.75,-0.58,0.129,0.301,44.13,-16.94,1.13,2,6
17621.75,-0.588,0.137,0.356,37.9,-12.63,-4.61,2,6
17621.765,-0.599,0.142,0.395,30.92,-11.35,-8.39,2,6
17621.765,-0.608,0.134,0.424,24.51,-11.72,-9.4,2,6
17621.781,-0.612,0.119,0.448,19.87,-13.06,-8.03,2,6
17621.796,-0.6,0.085,0.446,16.79,-14.68,-3.33,2,6
17621.812,-0.594,0.089,0.437,16.36,-14.62,-2.08,2,6
17621.828,-0.582,0.113,0.428,13.86,-13.82,-4.82,2,6
17621.828,-0.573,0.116,0.416,8.06,-13.55,-9.77,2,6
17621.843,-0.586,0.131,0.418,0.43,-13.46,-15.78,2,6
17621.859,-0.604,0.124,0.435,-8.42,-14.28,-22.89,2,6
17621.859,-0.616,0.106,0.463,-16.48,-15.53,-29.69,2,6
17621.875,-0.616,0.102,0.481,-20.69,-16.57,-34.85,2,6
17621.89,-0.61,0.098,0.495,-22.22,-18.1,-36.29,2,6
17621.89,-0.617,0.099,0.501,-22.4,-19.75,-35.55,2,6
17621.906,-0.632,0.082,0.505,-22.55,-21.49,-33.27,2,6
17621.921,-0.651,0.085,0.508,-22.74,-21.49,-31.77,2,6
17621.921,-0.662,0.101,0.511,-23.56,-20.36,-32.93,2,6
17621.937,-0.664,0.108,0.512,-26.61,-19.17,-35.58,2,6
17621.937,-0.671,0.113,0.513,-31.43,-17.43,-37.63,2,6
17621.953,-0.676,0.097,0.516,-35.16,-15.11,-37.9,2,6
17621.968,-0.697,0.049,0.538,-36.74,-13.12,-35.1,2,6
17621.968,-0.708,0.049,0.571,-34.18,-8.27,-32.99,2,6
17621.984,-0.72,0.019,0.594,-30.24,-5.25,-28.05,2,6
17622.0,-0.723,0.026,0.613,-25.85,-5.49,-22.0,2,6
17622.0,-0.733,0.056,0.632,-21.45,-4.21,-18.31,2,6
17622.015,-0.764,0.048,0.649,-22.71,-4.94,-14.98,2,6
17622.015,-0.77,0.031,0.662,-25.76,-9.58,-10.8,2,6
17622.031,-0.762,0.011,0.663,-25.54,-13.7,-7.08,2,6
17622.046,-0.758,-0.003,0.649,-23.04,-17.58,-3.3,2,6
17622.046,-0.751,-0.006,0.624,-19.9,-20.75,0.09,2,6
17622.062,-0.736,-0.007,0.608,-17.24,-19.68,0.92,2,6
17622.078,-0.739,-0.004,0.601,-17.7,-17.0,-0.46,2,6
17622.078,-0.733,-0.017,0.616,-17.12,-15.05,-1.53,2,6
17622.093,-0.728,-0.036,0.636,-14.86,-14.22,-2.87,2,6
17622.109,-0.772,-0.039,0.659,-12.73,-13.86,-4.7,2,6
17622.109,-0.759,-0.016,0.678,-13.79,-15.23,-5.16,2,6
17622.14,-0.723,-0.052,0.676,-19.96,-21.36,3.42,2,6
17622.14,-0.718,-0.079,0.669,-19.04,-23.99,8.51,2,6
17622.156,-0.743,-0.076,0.653,-15.41,-24.05,8.39,2,6
17622.156,-0.749,-0.052,0.639,-13.92,-21.79,4.06,2,6
17622.171,-0.733,-0.029,0.629,-17.7,-18.49,-1.46,2,6
17622.187,-0.719,-0.043,0.643,-23.04,-14.19,-5.43,2,6
17622.187,-0.716,-0.08,0.663,-24.29,-10.68,-6.68,2,6
17622.203,-0.732,-0.089,0.671,-18.98,-7.9,-5.74,2,6
17622.218,-0.742,-0.073,0.675,-10.8,-4.97,-4.06,2,6
17622.218,-0.739,-0.053,0.675,-6.04,-2.99,-2.38,2,6
17622.234,-0.745,-0.043,0.674,-4.82,-2.11,-1.13,2,6
17622.25,-0.759,-0.036,0.683,-5.19,-1.4,-0.82,2,6
17622.25,-0.752,-0.043,0.693,-7.45,-1.65,-1.1,2,6
17622.265,-0.748,-0.045,0.703,-9.64,-2.5,-1.46,2,6
17622.265,-0.751,-0.047,0.708,-10.16,-4.33,-0.55,2,6
17622.281,-0.756,-0.058,0.709,-9.34,-7.14,2.99,2,6
17622.296,-0.802,-0.079,0.706,-2.32,-8.79,10.44,2,6
17622.312,-0.792,-0.076,0.697,1.16,-8.21,11.63,2,6
17622.328,-0.756,-0.066,0.687,1.95,-7.78,11.26,2,6
17622.328,-0.738,-0.068,0.673,1.53,-8.03,9.92,2,6
17622.343,-0.747,-0.055,0.668,0.34,-7.6,7.9,2,6
17622.359,-0.748,-0.045,0.674,-2.69,-7.29,5.37,2,6
17622.359,-0.742,-0.053,0.683,-5.83,-7.39,2.96,2,6
17622.375,-0.739,-0.07,0.69,-6.35,-7.84,1.89,2,6
17622.39,-0.733,-0.081,0.689,-4.49,-8.45,2.53,2,6
17622.39,-0.72,-0.083,0.681,-1.65,-8.7,3.36,2,6
17622.406,-0.723,-0.077,0.675,0.67,-7.9,2.38,2,6
17622.406,-0.732,-0.063,0.676,1.34,-5.68,-1.4,2,6
17622.421,-0.735,-0.054,0.68,-0.79,-3.45,-6.68,2,6
17622.437,-0.742,-0.035,0.688,-5.28,-2.08,-12.09,2,6
17622.437,-0.759,-0.032,0.702,-10.74,-2.56,-16.82,2,6
17622.453,-0.769,-0.047,0.707,-14.95,-4.46,-19.07,2,6
17622.468,-0.785,-0.051,0.709,-15.35,-6.44,-18.83,2,6
17622.468,-0.806,-0.055,0.708,-12.63,-7.05,-17.46,2,6
17622.484,-0.806,-0.053,0.714,-9.16,-6.84,-15.26,2,6
17622.5,-0.815,-0.036,0.719,-5.68,-5.49,-13.28,2,6
17622.5,-0.828,-0.03,0.731,-3.97,-4.03,-11.84,2,6
17622.515,-0.833,-0.023,0.751,-3.33,-2.38,-11.11,2,6
17622.515,-0.826,-0.008,0.772,-2.96,-1.4,-10.1,2,6
17622.531,-0.814,-0.012,0.79,-2.53,-2.66,-6.81,2,6
17622.546,-0.802,-0.01,0.794,0.31,-5.89,-1.07,2,6
17622.546,-0.767,0.008,0.778,4.76,-9.89,5.92,2,6
17622.562,-0.727,0.025,0.743,8.06,-13.31,13.18,2,6
17622.578,-0.675,0.031,0.706,9.06,-14.68,20.75,2,6
17622.578,-0.641,0.039,0.675,9.74,-13.31,25.3,2,6
17622.593,-0.639,0.043,0.653,9.98,-9.64,25.7,2,6
17622.609,-0.637,0.057,0.638,8.09,-4.67,24.48,2,6
17622.609,-0.654,0.069,0.628,4.97,1.92,22.0,2,6
17622.625,-0.666,0.051,0.641,2.29,10.01,19.14,2,6
17622.64,-0.66,0.04,0.66,2.35,18.71,16.42,2,6
17622.64,-0.669,0.056,0.676,5.58,27.83,13.46,2,6
17622.656,-0.68,0.072,0.683,8.12,35.86,11.47,2,6
17622.656,-0.687,0.094,0.704,7.81,41.44,9.49,2,6
17622.671,-0.72,0.097,0.733,5.98,44.19,7.42,2,6
17622.687,-0.762,0.097,0.774,2.44,42.05,7.14,2,6
17622.687,-0.819,0.087,0.792,-1.74,34.85,8.61,2,6
17622.703,-0.844,0.063,0.792,-3.54,24.93,11.26,2,6
17622.718,-0.829,0.074,0.783,-4.06,15.56,13.15,2,6
17622.734,-0.815,0.083,0.763,-4.55,7.57,13.52,2,6
17622.734,-0.808,0.078,0.736,-5.46,2.17,12.18,2,6
17622.75,-0.78,0.072,0.703,-8.39,-0.58,9.98,2,6
17622.75,-0.767,0.043,0.667,-12.51,-3.14,8.42,2,6
17622.765,-0.768,0.018,0.637,-15.02,-5.55,7.97,2,6
17622.765,-0.791,-0.007,0.606,-15.35,-7.05,8.39,2,6
17622.781,-0.786,-0.035,0.595,-13.46,-6.81,7.93,2,6
17622.796,-0.757,-0.046,0.587,-9.7,-3.81,5.43,2,6
17622.796,-0.734,-0.043,0.58,-5.22,0.76,1.1,2,6
17622.812,-0.73,-0.05,0.582,-1.71,6.26,-3.57,2,6
17622.828,-0.747,-0.055,0.594,-0.64,11.08,-7.72,2,6
17622.828,-0.76,-0.053,0.605,-0.58,13.7,-11.32,2,6
17622.843,-0.756,-0.033,0.62,0.49,15.2,-15.9,2,6
17622.859,-0.757,-0.009,0.644,1.34,15.87,-18.98,2,6
17622.859,-0.756,0.013,0.671,2.26,15.08,-18.92,2,6
17622.875,-0.754,0.042,0.694,3.02,12.3,-17.12,2,6
17622.89,-0.746,0.066,0.697,2.32,8.21,-13.92,2,6
17622.89,-0.737,0.075,0.697,-0.43,2.32,-9.89,2,6
17622.906,-0.716,0.079,0.694,-3.69,-4.3,-4.94,2,6
17622.906,-0.696,0.073,0.677,-6.56,-10.56,0.98,2,6
17622.921,-0.689,0.05,0.658,-7.93,-15.26,7.69,2,6
17622.937,-0.679,0.026,0.644,-7.45,-18.31,15.32,2,6
17622.937,-0.676,-0.007,0.638,-5.46,-19.17,22.95,2,6
17622.953,-0.668,-0.042,0.634,-2.29,-18.04,29.15,2,6
17622.968,-0.666,-0.055,0.623,1.31,-16.57,33.42,2,6
17622.968,-0.645,-0.058,0.606,3.69,-14.92,35.89,2,6
17622.984,-0.631,-0.067,0.607,4.52,-12.51,36.19,2,6
17623.0,-0.624,-0.078,0.616,4.7,-10.41,35.58,2,6
17623.0,-0.634,-0.064,0.623,4.91,-9.16,32.9,2,6
17623.015,-0.647,-0.043,0.631,3.14,-9.03,28.05,2,6
17623.015,-0.647,-0.036,0.643,-1.1,-9.83,22.34,2,6
17623.031,-0.638,-0.041,0.657,-4.67,-11.08,17.46,2,6
17623.046,-0.642,-0.052,0.664,-5.25,-12.67,13.7,2,6
17623.062,-0.643,-0.056,0.661,-3.02,-12.6,13.52,2,6
17623.062,-0.643,-0.052,0.654,-0.89,-11.51,14.01,2,6
17623.078,-0.645,-0.061,0.642,0.49,-10.04,13.18,2,6
17623.078,-0.645,-0.049,0.625,0.85,-8.7,9.89,2,6
17623.093,-0.64,-0.04,0.626,-0.21,-7.11,5.58,2,6
17623.109,-0.638,-0.029,0.629,-2.53,-5.34,0.79,2,6
17623.109,-0.652,-0.025,0.633,-4.88,-4.58,-3.17,2,6
17623.125,-0.655,-0.015,0.645,-6.44,-4.36,-5.31,2,6
17623.125,-0.659,-0.02,0.654,-6.56,-3.85,-6.2,2,6
17623.14,-0.665,-0.028,0.664,-5.13,-2.56,-5.68,2,6
17623.156,-0.67,-0.027,0.672,-1.62,-0.92,-3.54,2,6
17623.156,-0.672,-0.017,0.675,1.77,0.64,-1.04,2,6
17623.171,-0.673,-0.004,0.678,3.63,1.37,1.25,2,6
17623.187,-0.673,0.008,0.684,3.6,1.25,2.29,2,6
17623.203,-0.667,0.012,0.675,2.66,0.15,2.35,2,6
17623.203,-0.658,0.012,0.66,0.92,-0.85,1.65,2,6
17623.218,-0.655,0.004,0.647,-1.46,-1.34,0.61,2,6
17623.218,-0.663,-0.027,0.639,-2.87,-0.4,-0.43,2,6
17623.234,-0.669,-0.038,0.633,-1.22,1.65,-1.28,2,6
17623.25,-0.668,-0.032,0.627,1.59,4.97,-2.56,2,6
17623.25,-0.682,-0.02,0.636,2.69,8.94,-4.39,2,6
17623.265,-0.692,-0.009,0.654,2.81,11.32,-5.43,2,6
17623.265,-0.699,0.002,0.672,2.87,11.84,-5.71,2,6
17623.281,-0.71,0.003,0.683,2.93,10.93,-5.86,2,6
17623.296,-0.715,0.01,0.686,3.33,8.61,-5.74,2,6
17623.296,-0.714,0.021,0.678,3.14,5.37,-5.74,2,6
17623.312,-0.714,0.027,0.667,1.04,2.14,-5.83,2,6
17623.328,-0.706,0.024,0.662,-1.68,-0.64,-5.89,2,6
17623.343,-0.693,0.018,0.655,-2.87,-2.62,-5.43,2,6
17623.343,-0.684,0.013,0.64,-2.29,-3.3,-4.49,2,6
17623.359,-0.682,0.001,0.625,-0.98,-2.29,-3.05,2,6
17623.359,-0.68,-0.008,0.607,0.67,0.09,-1.98,2,6
17623.375,-0.676,-0.005,0.59,2.2,3.45,-2.11,2,6
17623.39,-0.671,0.004,0.59,2.11,7.69,-2.87,2,6
17623.39,-0.666,0.013,0.608,1.89,11.32,-3.08,2,6
17623.406,-0.662,0.019,0.631,2.87,13.61,-2.59,2,6
17623.406,-0.67,0.025,0.65,3.66,14.4,-1.53,2,6
17623.421,-0.679,0.027,0.655,3.45,13.28,-0.27,2,6
17623.437,-0.676,0.022,0.651,2.62,10.86,0.79,2,6
17623.437,-0.664,0.007,0.639,1.43,8.73,1.25,2,6
17623.453,-0.659,0.002,0.624,0.46,7.51,1.1,2,6
17623.468,-0.662,-0.007,0.616,0.18,7.9,0.27,2,6
17623.468,-0.66,-0.011,0.606,0.52,9.58,-0.92,2,6
17623.484,-0.653,-0.006,0.6,1.13,11.78,-2.81,2,6
17623.5,-0.645,0.004,0.601,1.74,14.01,-4.49,2,6
17623.5,-0.644,0.015,0.601,2.2,15.9,-5.16,2,6
17623.515,-0.647,0.02,0.6,2.59,17.4,-5.31,2,6
17623.531,-0.649,0.023,0.597,2.69,17.94,-5.13,2,6
17623.531,-0.654,0.031,0.596,2.84,18.19,-4.58,2,6
17623.546,-0.645,0.035,0.59,2.2,18.37,-3.45,2,6
17623.546,-0.646,0.034,0.582,1.71,18.56,-2.26,2,6
17623.562,-0.63,0.04,0.568,1.5,18.31,-0.37,2,6
17623.578,-0.601,0.05,0.545,1.56,18.25,1.86,2,6
17623.593,-0.578,0.045,0.523,1.74,19.29,3.81,2,6
17623.593,-0.552,0.036,0.501,1.8,21.03,4.82,2,6
17623.609,-0.549,0.015,0.471,3.51,23.68,3.94,2,6
17623.609,-0.557,0.007,0.443,5.4,27.56,-1.77,2,6
17623.625,-0.539,0.02,0.422,3.91,32.07,-11.54,2,6
17623.64,-0.524,0.023,0.419,-1.22,36.84,-22.22,2,6
17623.64,-0.543,0.024,0.44,-7.63,41.2,-31.65,2,6
17623.656,-0.58,0.013,0.481,-13.09,43.4,-39.25,2,6
17623.656,-0.609,-0.014,0.517,-16.24,43.0,-43.24,2,6
17623.671,-0.632,-0.027,0.535,-15.56,40.8,-43.12,2,6
17623.687,-0.654,-0.039,0.535,-12.88,37.35,-40.47,2,6
17623.687,-0.663,-0.036,0.513,-10.01,34.21,-36.62,2,6
17623.703,-0.662,-0.008,0.474,-9.74,32.35,-32.81,2,6
17623.718,-0.651,-0.001,0.45,-13.09,32.07,-29.51,2,6
17623.734,-0.651,-0.024,0.438,-16.14,33.57,-27.53,2,6
17623.734,-0.673,-0.034,0.431,-15.81,36.71,-26.49,2,6
17623.75,-0.7,-0.036,0.418,-14.44,40.96,-25.48,2,6
17623.75,-0.729,-0.045,0.411,-13.55,45.59,-23.9,2,6
17623.765,-0.742,-0.044,0.417,-12.91,50.11,-21.88,2,6
17623.765,-0.752,-0.046,0.425,-11.99,53.9,-18.65,2,6
17623.781,-0.763,-0.049,0.434,-10.01,57.25,-13.7,2,6
17623.796,-0.79,-0.059,0.441,-6.38,60.37,-7.45,2,6
17623.796,-0.809,-0.057,0.454,-1.71,62.69,-0.64,2,6
17623.812,-0.826,-0.058,0.454,3.2,63.23,5.1,2,6
17623.828,-0.84,-0.053,0.443,6.78,62.59,9.28,2,6
17623.828,-0.812,-0.051,0.422,8.39,60.49,12.3,2,6
17623.843,-0.796,-0.056,0.389,8.7,57.71,13.67,2,6
17623.859,-0.793,-0.044,0.344,7.23,55.79,14.28,2,6
17623.859,-0.774,-0.033,0.299,4.06,55.33,14.83,2,6
17623.875,-0.789,-0.051,0.283,0.31,58.05,13.18,2,6
17623.875,-0.817,-0.073,0.284,-2.41,62.29,9.37,2,6
17623.89,-0.808,-0.071,0.28,-4.49,65.8,6.26,2,6
17623.906,-0.806,-0.076,0.275,-4.94,68.85,4.67,2,6
17623.921,-0.805,-0.077,0.264,-3.66,70.28,5.04,2,6
17623.921,-0.801,-0.074,0.247,-2.26,69.06,8.36,2,6
17623.937,-0.82,-0.075,0.233,-0.46,67.51,11.2,2,6
17623.937,-0.838,-0.074,0.216,0.64,67.35,11.26,2,6
17623.953,-0.867,-0.081,0.208,-0.76,68.12,9.03,2,6
17623.968,-0.904,-0.096,0.211,-3.48,69.77,5.98,2,6
17623.968,-0.916,-0.106,0.216,-5.62,70.68,3.48,2,6
17623.984,-0.91,-0.114,0.216,-5.86,71.05,1.98,2,6
17624.0,-0.901,-0.123,0.206,-4.46,71.05,3.17,2,6
17624.0,-0.901,-0.13,0.183,-1.71,70.31,6.2,2,6
17624.015,-0.939,-0.133,0.159,1.46,70.25,8.27,2,6
17624.031,-0.96,-0.133,0.137,3.11,70.5,7.87,2,6
17624.031,-0.971,-0.123,0.119,0.24,73.49,-1.71,2,6
17624.046,-0.973,-0.119,0.11,-2.26,75.11,-7.93,2,6
17624.046,-0.994,-0.129,0.108,-3.6,77.03,-14.74,2,6
17624.062,-1.049,-0.119,0.123,-5.04,78.25,-20.17,2,6
17624.078,-1.051,-0.114,0.129,-5.83,78.46,-23.47,2,6
17624.078,-1.031,-0.115,0.122,-4.94,76.91,-24.26,2,6
17624.093,-0.996,-0.098,0.092,-3.66,73.85,-22.83,2,6
17624.109,-1.019,-0.083,0.069,-2.93,72.85,-21.06,2,6
17624.109,-1.053,-0.097,0.057,-3.69,72.94,-19.26,2,6
17624.125,-1.084,-0.11,0.054,-3.78,73.67,-18.28,2,6
17624.125,-1.102,-0.12,0.05,-2.26,74.43,-17.09,2,6
17624.14,-1.075,-0.124,0.034,-0.49,72.85,-14.83,2,6
17624.156,-1.032,-0.112,-0.005,1.53,69.89,-12.36,2,6
17624.156,-1.001,-0.09,-0.05,1.56,67.45,-10.59,2,6
17624.171,-1.023,-0.08,-0.074,-0.58,67.96,-9.98,2,6
17624.187,-1.068,-0.117,-0.059,-1.92,71.38,-10.16,2,6
17624.187,-1.101,-0.143,-0.039,0.18,75.29,-11.93,2,6
17624.203,-1.126,-0.143,-0.039,4.76,78.49,-14.16,2,6
17624.218,-1.129,-0.123,-0.038,7.66,79.56,-14.22,2,6
17624.234,-1.11,-0.113,-0.047,8.64,77.49,-12.36,2,6
17624.234,-1.065,-0.109,-0.077,9.43,72.57,-9.61,2,6
17624.234,-0.998,-0.097,-0.119,10.38,66.68,-8.0,2,6
17624.25,-1.002,-0.091,-0.159,9.86,63.94,-10.35,2,6
17624.265,-1.019,-0.101,-0.188,5.28,63.36,-16.17,2,6
17624.281,-1.039,-0.12,-0.193,-1.37,64.24,-24.17,2,6
17624.281,-1.05,-0.141,-0.185,-7.17,66.26,-29.76,2,6
17624.296,-1.018,-0.165,-0.178,-10.01,67.63,-30.55,2,6
17624.296,-0.999,-0.19,-0.191,-6.56,68.94,-28.81,2,6
17624.312,-0.976,-0.165,-0.223,-0.61,70.59,-26.0,2,6
17624.328,-0.968,-0.112,-0.242,2.2,73.03,-24.9,2,6
17624.328,-1.02,-0.099,-0.232,-0.27,76.57,-25.15,2,6
17624.343,-1.04,-0.116,-0.21,-5.28,77.39,-22.89,2,6
17624.359,-1.027,-0.13,-0.204,-5.1,75.41,-17.3,2,6
17624.359,-1.017,-0.124,-0.233,-0.18,72.76,-8.7,2,6
17624.375,-0.99,-0.114,-0.288,5.01,70.22,1.43,2,6
17624.375,-0.985,-0.111,-0.34,9.7,70.41,9.64,2,6
17624.39,-0.999,-0.112,-0.384,13.06,73.46,13.92,2,6
17624.406,-0.978,-0.094,-0.412,12.97,77.27,15.35,2,6
17624.421,-0.97,-0.103,-0.399,11.11,82.49,16.42,2,6
17624.421,-0.987,-0.152,-0.37,11.66,87.83,18.31,2,6
17624.437,-0.992,-0.161,-0.363,15.99,91.13,19.75,2,6
17624.437,-0.989,-0.146,-0.373,20.75,92.23,19.44,2,6
17624.453,-0.997,-0.125,-0.385,21.52,91.98,17.15,2,6
17624.468,-0.976,-0.116,-0.404,16.24,88.56,12.21,2,6
17624.468,-0.956,-0.129,-0.422,8.51,83.59,6.56,2,6
17624.484,-0.946,-0.151,-0.442,3.2,79.29,2.35,2,6
17624.5,-0.934,-0.159,-0.47,1.37,76.63,-1.01,2,6
17624.5,-0.934,-0.184,-0.485,1.74,77.94,-2.35,2,6
17624.515,-0.948,-0.197,-0.497,3.69,81.39,-3.6,2,6
17624.515,-0.917,-0.186,-0.524,7.23,82.09,-7.32,2,6
17624.531,-0.904,-0.15,-0.542,7.42,84.35,-12.05,2,6
17624.546,-0.923,-0.153,-0.535,3.88,85.7,-15.81,2,6
17624.562,-0.935,-0.162,-0.523,-0.49,86.95,-17.06,2,6
17624.562,-0.912,-0.179,-0.51,-2.69,85.91,-16.14,2,6
17624.578,-0.86,-0.228,-0.513,-0.95,82.49,-14.98,2,6
17624.578,-0.812,-0.29,-0.541,3.33,77.73,-18.07,2,6
17624.593,-0.819,-0.312,-0.595,2.96,72.3,-29.08,2,6
17624.609,-0.84,-0.328,-0.629,-6.62,68.94,-44.04,2,6
17624.609,-0.827,-0.355,-0.641,-19.68,68.12,-59.76,2,6
17624.625,-0.84,-0.375,-0.66,-29.76,70.77,-73.0,2,6
17624.64,-0.861,-0.365,-0.656,-34.27,76.2,-79.68,2,6
17624.64,-0.865,-0.328,-0.646,-30.46,82.61,-78.43,2,6
17624.656,-0.889,-0.277,-0.662,-20.66,89.08,-70.86,2,6
17624.656,-0.929,-0.218,-0.681,-11.63,94.52,-58.78,2,6
17624.671,-0.937,-0.193,-0.684,-5.19,97.78,-44.1,2,6
17624.687,-0.946,-0.194,-0.672,1.95,100.44,-27.59,2,6
17624.687,-0.936,-0.208,-0.663,12.48,102.08,-9.74,2,6
17624.703,-0.925,-0.225,-0.676,25.36,103.12,5.92,2,6
17624.718,-0.928,-0.23,-0.694,36.13,104.59,17.21,2,6
17624.734,-0.899,-0.245,-0.71,40.62,104.31,21.64,2,6
17624.734,-0.872,-0.27,-0.73,38.67,101.69,17.15,2,6
17624.75,-0.852,-0.271,-0.749,30.85,97.54,6.04,2,6
17624.75,-0.846,-0.266,-0.741,18.22,93.87,-7.39,2,6
17624.765,-0.874,-0.306,-0.705,6.96,92.23,-18.49,2,6
17624.781,-0.89,-0.336,-0.675,4.61,90.76,-24.38,2,6
17624.781,-0.892,-0.315,-0.673,9.98,88.35,-25.73,2,6
17624.796,-0.892,-0.261,-0.689,14.8,85.06,-24.17,2,6
17624.812,-0.881,-0.226,-0.705,16.75,81.18,-20.78,2,6
17624.812,-0.872,-0.207,-0.723,17.43,77.27,-17.0,2,6
17624.828,-0.866,-0.179,-0.739,17.27,73.4,-13.43,2,6
17624.828,-0.849,-0.201,-0.747,16.88,70.35,-9.09,2,6
17624.843,-0.839,-0.216,-0.769,19.14,68.3,-6.41,2,6
17624.859,-0.82,-0.204,-0.783,20.81,67.42,-4.94,2,6
17624.859,-0.818,-0.208,-0.78,19.68,67.72,-5.55,2,6
17624.875,-0.828,-0.231,-0.771,17.61,67.35,-7.2,2,6
17624.89,-0.817,-0.226,-0.761,16.17,65.03,-7.78,2,6
17624.89,-0.793,-0.217,-0.758,15.35,61.59,-7.6,2,6
17624.906,-0.77,-0.218,-0.767,14.44,57.89,-6.23,2,6
17624.906,-0.745,-0.217,-0.775,13.4,53.9,-4.18,2,6
17624.921,-0.714,-0.234,-0.793,13.15,50.26,-3.05,2,6
17624.937,-0.686,-0.249,-0.817,13.25,47.82,-3.11,2,6
17624.953,-0.672,-0.252,-0.835,12.51,47.03,-3.72,2,6
17624.953,-0.654,-0.268,-0.838,11.38,47.06,-5.92,2,6
17624.968,-0.637,-0.276,-0.849,9.67,47.0,-10.71,2,6
17624.968,-0.629,-0.271,-0.857,5.86,46.75,-16.6,2,6
17624.984,-0.617,-0.275,-0.853,1.62,46.48,-21.61,2,6
17625.0,-0.611,-0.274,-0.845,-0.98,46.6,-25.27,2,6
17625.0,-0.604,-0.269,-0.828,-2.29,47.12,-26.37,2,6
17625.015,-0.585,-0.294,-0.806,4.0,45.96,-21.27,2,6
17625.015,-0.584,-0.3,-0.809,6.44,44.4,-20.14,2,6
17625.031,-0.592,-0.284,-0.825,4.7,42.48,-21.15,2,6
17625.046,-0.598,-0.266,-0.844,0.34,41.35,-23.01,2,6
17625.046,-0.587,-0.26,-0.858,-2.96,41.29,-24.9,2,6
17625.062,-0.577,-0.246,-0.865,-3.75,40.99,-24.99,2,6
17625.078,-0.56,-0.231,-0.866,-3.63,40.74,-22.68,2,6
17625.078,-0.549,-0.244,-0.866,-1.86,40.53,-17.79,2,6
17625.093,-0.534,-0.251,-0.884,1.8,39.49,-11.75,2,6
17625.109,-0.513,-0.236,-0.907,4.82,38.15,-6.23,2,6
17625.109,-0.48,-0.232,-0.931,5.98,37.87,-1.8,2,6
17625.125,-0.45,-0.235,-0.948,6.5,39.09,1.25,2,6
17625.14,-0.428,-0.23,-0.939,6.1,41.84,3.66,2,6
17625.14,-0.416,-0.262,-0.903,6.44,45.23,5.31,2,6
17625.156,-0.43,-0.294,-0.889,8.91,47.21,5.62,2,6
17625.156,-0.444,-0.288,-0.87,8.45,46.94,4.64,2,6
17625.171,-0.454,-0.304,-0.85,4.91,45.93,2.01,2,6
17625.187,-0.451,-0.327,-0.849,3.36,43.98,-0.06,2,6
17625.187,-0.425,-0.308,-0.859,3.72,41.51,-0.18,2,6
17625.203,-0.396,-0.288,-0.876,4.76,40.1,1.95,2,6
17625.218,-0.381,-0.291,-0.894,6.9,40.16,5.4,2,6
17625.218,-0.366,-0.304,-0.907,10.65,41.78,9.06,2,6
17625.234,-0.348,-0.317,-0.92,15.66,44.22,11.57,2,6
17625.25,-0.351,-0.303,-0.945,17.64,45.78,9.43,2,6
17625.25,-0.369,-0.292,-0.943,12.36,46.66,3.66,2,6
17625.265,-0.38,-0.3,-0.917,4.91,46.78,-2.96,2,6
17625.265,-0.393,-0.298,-0.893,1.07,46.45,-8.27,2,6
17625.281,-0.396,-0.271,-0.876,0.15,45.14,-10.96,2,6
17625.296,-0.391,-0.247,-0.862,0.12,43.31,-10.77,2,6
17625.312,-0.387,-0.253,-0.845,0.52,41.51,-7.75,2,6
17625.312,-0.391,-0.264,-0.847,2.75,39.61,-2.69,2,6
17625.328,-0.396,-0.251,-0.854,5.1,37.69,3.05,2,6
17625.328,-0.397,-0.263,-0.849,6.62,36.47,7.97,2,6
17625.343,-0.4,-0.282,-0.871,8.42,35.19,10.96,2,6
17625.359,-0.395,-0.255,-0.886,8.82,34.18,11.26,2,6
17625.359,-0.39,-0.241,-0.876,5.74,34.21,9.16,2,6
17625.375,-0.396,-0.267,-0.858,1.83,33.97,7.45,2,6
17625.375,-0.394,-0.297,-0.844,0.67,31.98,7.14,2,6
17625.39,-0.393,-0.314,-0.841,2.75,30.09,8.33,2,6
17625.406,-0.389,-0.311,-0.85,5.55,28.93,10.28,2,6
17625.421,-0.382,-0.317,-0.86,7.05,28.2,11.38,2,6
17625.421,-0.382,-0.31,-0.865,7.17,27.56,10.41,2,6
17625.437,-0.384,-0.299,-0.86,5.98,26.34,8.55,2,6
17625.437,-0.382,-0.296,-0.847,4.88,24.6,6.99,2,6
17625.453,-0.381,-0.301,-0.837,5.13,22.43,6.59,2,6
17625.468,-0.377,-0.304,-0.835,6.13,19.96,6.47,2,6
17625.468,-0.37,-0.3,-0.838,6.13,17.33,5.01,2,6
17625.484,-0.373,-0.308,-0.841,3.33,14.19,1.77,2,6
17625.5,-0.384,-0.319,-0.839,-0.34,10.68,-1.56,2,6
17625.5,-0.393,-0.317,-0.847,-2.59,7.97,-3.85,2,6
17625.515,-0.395,-0.309,-0.848,-3.23,6.35,-4.3,2,6
17625.515,-0.392,-0.301,-0.849,-2.01,5.16,-2.84,2,6
17625.531,-0.39,-0.294,-0.853,0.27,3.69,0.46,2,6
17625.546,-0.387,-0.281,-0.869,2.38,2.59,4.15,2,6
17625.546,-0.379,-0.268,-0.896,2.5,1.83,6.87,2,6
17625.562,-0.365,-0.264,-0.902,0.0,1.83,7.48,2,6
17625.578,-0.358,-0.298,-0.884,-3.51,1.8,7.48,2,6
17625.578,-0.359,-0.317,-0.868,-4.79,1.22,8.06,2,6
17625.593,-0.358,-0.33,-0.856,-4.76,-0.24,8.94,2,6
17625.609,-0.365,-0.362,-0.848,-3.97,-1.98,10.25,2,6
17625.609,-0.36,-0.368,-0.847,-2.35,-3.85,10.25,2,6
17625.625,-0.352,-0.351,-0.856,-2.29,-6.2,7.87,2,6
17625.625,-0.345,-0.354,-0.858,-4.55,-8.7,5.04,2,6
17625.64,-0.338,-0.358,-0.856,-5.77,-10.93,2.66,2,6
17625.656,-0.328,-0.355,-0.861,-5.19,-12.97,0.98,2,6
17625.656,-0.326,-0.355,-0.868,-4.43,-14.65,1.13,2,6
17625.671,-0.321,-0.359,-0.877,-2.78,-15.93,1.98,2,6
17625.687,-0.313,-0.348,-0.892,-1.19,-16.6,2.59,2,6
17625.687,-0.305,-0.344,-0.903,-1.68,-16.94,2.56,2,6
17625.703,-0.297,-0.339,-0.913,-3.11,-17.09,1.43,2,6
17625.718,-0.287,-0.328,-0.914,-4.97,-16.75,0.34,2,6
17625.734,-0.281,-0.328,-0.902,-6.07,-16.21,0.06,2,6
17625.734,-0.274,-0.334,-0.897,-5.31,-16.05,1.01,2,6
17625.75,-0.27,-0.332,-0.902,-3.48,-15.87,2.62,2,6
17625.75,-0.269,-0.333,-0.907,-2.08,-15.69,3.94,2,6
17625.765,-0.261,-0.349,-0.911,-1.04,-15.32,5.65,2,6
17625.765,-0.251,-0.353,-0.912,0.21,-14.83,6.5,2,6
17625.781,-0.24,-0.366,-0.918,1.46,-14.19,6.13,2,6
17625.796,-0.231,-0.365,-0.928,2.56,-13.73,4.09,2,6
17625.796,-0.23,-0.349,-0.937,1.19,-13.4,0.61,2,6
17625.812,-0.226,-0.34,-0.936,-2.56,-13.43,-3.02,2,6
17625.828,-0.218,-0.354,-0.925,-5.43,-13.55,-6.04,2,6
17625.828,-0.223,-0.363,-0.922,-4.97,-13.12,-7.93,2,6
17625.843,-0.23,-0.351,-0.921,-2.81,-12.57,-7.17,2,6
17625.859,-0.237,-0.349,-0.916,-0.06,-11.66,-4.64,2,6
17625.859,-0.245,-0.346,-0.926,3.42,-10.41,-2.5,2,6
17625.875,-0.241,-0.313,-0.943,4.46,-9.52,-2.59,2,6
17625.875,-0.24,-0.3,-0.937,0.67,-9.31,-5.62,2,6
17625.89,-0.239,-0.309,-0.93,-4.12,-10.25,-10.44,2,6
17625.906,-0.24,-0.31,-0.933,-7.54,-11.69,-14.71,2,6
17625.906,-0.243,-0.308,-0.928,-9.67,-12.39,-15.72,2,6
17625.921,-0.24,-0.319,-0.926,-9.06,-12.12,-13.03,2,6
17625.937,-0.241,-0.333,-0.931,-5.49,-10.74,-7.78,2,6
17625.937,-0.237,-0.321,-0.94,-0.52,-8.48,-1.77,2,6
17625.953,-0.235,-0.309,-0.949,4.0,-5.58,3.05,2,6
17625.968,-0.232,-0.302,-0.949,5.58,-2.9,5.74,2,6
17625.968,-0.233,-0.303,-0.94,4.39,-0.82,4.79,2,6
17625.984,-0.247,-0.308,-0.925,1.59,0.0,1.53,2,6
17626.0,-0.255,-0.318,-0.901,-1.37,-0.82,-1.46,2,6
17626.0,-0.26,-0.331,-0.886,-4.55,-4.73,-5.04,2,6
17626.015,-0.262,-0.334,-0.883,-4.61,-5.92,-5.1,2,6
17626.031,-0.263,-0.328,-0.886,-4.73,-6.44,-5.34,2,6
17626.031,-0.266,-0.34,-0.904,-4.09,-6.5,-5.46,2,6
17626.046,-0.268,-0.325,-0.912,-3.11,-6.35,-5.37,2,6
17626.046,-0.275,-0.325,-0.916,-3.6,-5.4,-5.04,2,6
17626.062,-0.28,-0.329,-0.908,-3.94,-4.33,-4.36,2,6
17626.078,-0.291,-0.322,-0.904,-2.32,-3.14,-3.36,2,6
17626.078,-0.301,-0.303,-0.901,-0.7,-2.08,-1.31,2,6
17626.093,-0.303,-0.302,-0.892,0.21,-1.4,1.98,2,6
17626.109,-0.296,-0.316,-0.89,1.95,-1.5,5.68,2,6
17626.125,-0.292,-0.319,-0.894,4.06,-1.89,9.55,2,6
17626.125,-0.29,-0.318,-0.901,5.8,-2.32,12.39,2,6
17626.125,-0.286,-0.323,-0.911,6.32,-2.59,13.34,2,6
17626.14,-0.281,-0.339,-0.915,5.13,-2.99,11.57,2,6
17626.156,-0.278,-0.356,-0.909,3.57,-3.48,7.63,2,6
17626.156,-0.281,-0.355,-0.901,1.28,-4.06,1.68,2,6
17626.171,-0.294,-0.352,-0.897,-2.17,-5.04,-4.85,2,6
17626.187,-0.292,-0.352,-0.889,-5.83,-6.2,-10.9,2,6
17626.187,-0.292,-0.339,-0.884,-7.9,-6.9,-16.08,2,6
17626.203,-0.292,-0.312,-0.888,-8.79,-7.29,-18.83,2,6
17626.218,-0.289,-0.295,-0.887,-9.03,-7.84,-19.07,2,6
17626.218,-0.291,-0.282,-0.892,-8.33,-7.87,-17.0,2,6
17626.234,-0.294,-0.272,-0.897,-6.5,-7.35,-13.18,2,6
17626.234,-0.294,-0.269,-0.907,-4.27,-6.78,-8.48,2,6
17626.25,-0.291,-0.273,-0.922,-2.11,-6.13,-3.39,2,6
17626.265,-0.291,-0.283,-0.93,-0.92,-5.07,1.37,2,6
17626.265,-0.29,-0.304,-0.932,0.37,-3.85,5.07,2,6
17626.281,-0.293,-0.31,-0.939,2.35,-2.59,7.11,2,6
17626.296,-0.299,-0.305,-0.939,2.87,-1.16,7.81,2,6
17626.296,-0.305,-0.315,-0.925,2.38,0.09,7.75,2,6
17626.312,-0.306,-0.318,-0.917,2.81,0.76,7.05,2,6
17626.328,-0.301,-0.299,-0.914,2.32,0.67,6.35,2,6
17626.328,-0.299,-0.301,-0.9,0.7,-0.09,5.71,2,6
17626.343,-0.3,-0.314,-0.89,-0.03,-1.1,4.91,2,6
17626.359,-0.299,-0.313,-0.89,0.24,-2.23,3.91,2,6
17626.359,-0.295,-0.309,-0.893,0.12,-3.2,3.05,2,6
17626.375,-0.289,-0.314,-0.896,-1.37,-4.0,2.53,2,6
17626.39,-0.284,-0.323,-0.895,-2.69,-4.55,2.44,2,6
17626.39,-0.284,-0.326,-0.896,-2.29,-4.55,2.99,2,6
17626.406,-0.279,-0.316,-0.898,-0.92,-4.03,4.55,2,6
17626.406,-0.279,-0.32,-0.897,0.46,-3.3,6.38,2,6
17626.421,-0.287,-0.32,-0.901,1.43,-2.69,7.54,2,6
17626.437,-0.285,-0.319,-0.902,1.8,-2.11,7.93,2,6
17626.437,-0.288,-0.325,-0.906,1.98,-1.22,7.69,2,6
17626.453,-0.288,-0.327,-0.91,1.53,-1.01,6.87,2,6
17626.468,-0.286,-0.331,-0.91,0.46,-1.31,5.74,2,6
17626.468,-0.286,-0.338,-0.91,0.21,-1.53,5.68,2,6
17626.484,-0.28,-0.348,-0.906,0.98,-1.65,6.1,2,6
17626.5,-0.278,-0.361,-0.907,3.17,-1.43,6.38,2,6
17626.5,-0.271,-0.358,-0.917,5.22,-1.19,5.71,2,6
17626.515,-0.27,-0.343,-0.929,4.91,-0.98,2.93,2,6
17626.515,-0.269,-0.329,-0.934,1.98,-0.76,-1.1,2,6
17626.531,-0.271,-0.325,-0.925,-1.92,-0.21,-4.94,2,6
17626.546,-0.277,-0.327,-0.909,-3.88,0.76,-7.78,2,6
17626.546,-0.281,-0.329,-0.892,-2.87,1.8,-7.81,2,6
17626.562,-0.289,-0.327,-0.884,0.06,2.69,-5.4,2,6
17626.578,-0.298,-0.32,-0.886,3.23,2.81,-2.38,2,6
17626.578,-0.3,-0.313,-0.891,4.91,2.23,0.49,2,6
17626.593,-0.299,-0.302,-0.906,5.49,1.89,2.17,2,6
17626.609,-0.293,-0.3,-0.917,4.94,2.04,2.78,2,6
17626.625,-0.289,-0.307,-0.917,4.12,2.81,2.5,2,6
17626.625,-0.291,-0.307,-0.916,4.06,4.3,2.14,2,6
17626.625,-0.297,-0.304,-0.911,4.24,5.58,2.78,2,6
17626.64,-0.296,-0.307,-0.899,4.7,6.13,3.54,2,6
17626.656,-0.304,-0.303,-0.899,5.28,6.29,3.02,2,6
17626.656,-0.314,-0.296,-0.905,4.09,5.65,1.65,2,6
17626.671,-0.314,-0.293,-0.901,1.07,4.76,-0.06,2,6
17626.687,-0.316,-0.307,-0.893,-0.82,4.15,-1.22,2,6
17626.687,-0.315,-0.307,-0.89,-0.34,3.51,-0.95,2,6
17626.703,-0.31,-0.3,-0.895,0.95,2.75,0.43,2,6
17626.718,-0.307,-0.304,-0.907,1.95,2.78,1.83,2,6
17626.718,-0.307,-0.295,-0.908,2.17,3.36,3.08,2,6
17626.734,-0.311,-0.295,-0.9,1.71,4.36,3.08,2,6
17626.75,-0.32,-0.298,-0.891,1.22,4.94,2.17,2,6
17626.75,-0.325,-0.285,-0.879,-0.06,4.33,1.83,2,6
17626.765,-0.325,-0.285,-0.871,-1.59,2.93,2.29,2,6
17626.765,-0.326,-0.3,-0.868,-1.4,1.43,3.27,2,6
17626.781,-0.32,-0.297,-0.875,0.0,0.43,4.94,2,6
17626.796,-0.317,-0.295,-0.882,1.22,0.12,6.56,2,6
17626.796,-0.314,-0.294,-0.89,1.74,-0.03,7.69,2,6
17626.812,-0.314,-0.292,-0.896,1.13,-0.27,8.36,2,6
17626.828,-0.312,-0.302,-0.9,0.89,-0.12,8.82,2,6
17626.843,-0.305,-0.313,-0.907,1.65,0.4,9.16,2,6
17626.843,-0.296,-0.308,-0.916,2.04,1.25,9.46,2,6
17626.859,-0.295,-0.303,-0.915,1.34,1.95,8.73,2,6
17626.859,-0.296,-0.303,-0.909,0.0,2.26,7.29,2,6
17626.875,-0.297,-0.313,-0.902,-0.67,1.89,6.16,2,6
17626.89,-0.296,-0.308,-0.903,-0.98,1.04,5.55,2,6
17626.89,-0.298,-0.311,-0.899,-1.28,0.34,5.25,2,6
17626.906,-0.298,-0.326,-0.894,-0.92,-0.12,5.89,2,6
17626.921,-0.303,-0.324,-0.898,0.79,-0.37,7.14,2,6
17626.921,-0.305,-0.309,-0.906,1.65,-0.64,7.97,2,6
17626.937,-0.299,-0.31,-0.907,1.16,-0.49,8.73,2,6
17626.937,-0.297,-0.316,-0.902,1.37,-0.24,9.25,2,6
17626.953,-0.298,-0.312,-0.902,1.92,-0.12,9.43,2,6
17626.968,-0.297,-0.316,-0.903,2.53,-0.12,9.86,2,6
17626.968,-0.301,-0.332,-0.907,3.78,0.24,10.65,2,6
17626.984,-0.298,-0.327,-0.913,4.09,1.19,10.65,2,6
17627.0,-0.294,-0.322,-0.909,3.08,1.46,9.09,2,6
17627.0,-0.3,-0.325,-0.907,2.11,1.16,6.9,2,6
17627.015,-0.302,-0.323,-0.909,0.82,0.58,5.1,2,6
17627.015,-0.302,-0.345,-0.905,1.28,0.18,4.55,2,6
17627.031,-0.296,-0.344,-0.906,2.84,0.52,4.67,2,6
17627.046,-0.296,-0.329,-0.903,3.45,1.07,3.91,2,6
17627.062,-0.3,-0.332,-0.898,3.23,1.04,2.84,2,6
17627.062,-0.302,-0.321,-0.897,2.23,0.27,1.5,2,6
17627.078,-0.301,-0.309,-0.893,0.61,-0.61,0.03,2,6
17627.078,-0.302,-0.319,-0.888,-0.76,-1.53,-0.67,2,6
17627.093,-0.304,-0.335,-0.885,-0.12,-2.2,0.18,2,6
17627.109,-0.3,-0.332,-0.897,2.26,-2.23,1.71,2,6
17627.109,-0.302,-0.32,-0.909,3.88,-1.53,2.62,2,6
17627.125,-0.301,-0.322,-0.905,3.17,-1.04,3.23,2,6
17627.14,-0.301,-0.325,-0.9,2.69,-0.64,2.87,2,6
17627.14,-0.303,-0.309,-0.905,2.35,-0.4,1.13,2,6
17627.156,-0.307,-0.303,-0.9,0.49,-0.67,-1.25,2,6
17627.156,-0.314,-0.305,-0.895,-1.53,-1.1,-2.9,2,6
17627.171,-0.319,-0.295,-0.891,-2.44,-1.89,-3.11,2,6
17627.187,-0.326,-0.291,-0.893,-2.87,-2.99,-2.59,2,6
17627.187,-0.331,-0.293,-0.894,-2.75,-3.91,-0.7,2,6
17627.203,-0.33,-0.319,-0.903,-1.34,-4.55,2.5,2,6
17627.218,-0.321,-0.328,-0.906,1.04,-4.21,6.59,2,6
17627.218,-0.314,-0.321,-0.909,4.33,-2.66,10.01,2,6
17627.234,-0.319,-0.335,-0.906,6.56,-0.61,11.99,2,6
17627.25,-0.315,-0.323,-0.9,7.81,0.73,12.57,2,6
17627.25,-0.312,-0.303,-0.897,7.05,0.64,11.41,2,6
17627.265,-0.309,-0.302,-0.889,3.91,-0.31,9.86,2,6
17627.281,-0.308,-0.307,-0.883,1.28,-1.86,8.18,2,6
17627.281,-0.311,-0.315,-0.883,0.03,-3.69,7.17,2,6
17627.296,-0.305,-0.326,-0.886,-0.24,-5.22,7.48,2,6
17627.296,-0.308,-0.331,-0.896,0.27,-5.83,7.69,2,6
17627.312,-0.306,-0.35,-0.899,1.43,-5.95,8.55,2,6
17627.328,-0.296,-0.361,-0.907,4.18,-5.13,9.61,2,6
17627.328,-0.291,-0.339,-0.92,6.9,-3.45,8.73,2,6
17627.343,-0.287,-0.322,-0.922,6.32,-2.32,5.55,2,6
