timestamp,ax,ay,az,gx,gy,gz,orient_label,motion_label
17332.437,-0.962,0.134,0.094,-1.5,-2.59,-1.53,2,2
17332.437,-0.957,0.137,0.086,-0.95,-3.36,-0.95,2,2
17332.453,-0.959,0.134,0.081,-0.98,-3.6,-0.43,2,2
17332.468,-0.957,0.13,0.078,-1.22,-3.66,0.27,2,2
17332.468,-0.957,0.126,0.073,-1.16,-3.57,0.73,2,2
17332.484,-0.958,0.12,0.074,-0.58,-3.14,1.01,2,2
17332.5,-0.958,0.117,0.076,0.09,-2.2,1.13,2,2
17332.5,-0.957,0.12,0.076,0.73,-1.34,1.07,2,2
17332.515,-0.962,0.123,0.08,0.61,-0.46,0.76,2,2
17332.531,-0.961,0.131,0.083,0.12,-0.52,0.18,2,2
17332.531,-0.959,0.13,0.083,-0.27,-0.95,-0.24,2,2
17332.546,-0.964,0.129,0.083,-0.55,-1.01,-0.12,2,2
17332.562,-0.97,0.131,0.083,-0.58,-0.79,0.21,2,2
17332.562,-0.969,0.127,0.083,-0.24,-0.09,0.52,2,2
17332.578,-0.972,0.132,0.083,0.27,0.95,0.85,2,2
17332.578,-0.973,0.136,0.091,0.58,2.01,1.83,2,2
17332.593,-0.977,0.131,0.092,1.4,2.78,3.23,2,2
17332.609,-0.98,0.139,0.088,2.93,2.96,5.68,2,2
17332.625,-0.984,0.138,0.083,2.72,3.02,6.29,2,2
17332.64,-0.983,0.14,0.081,2.26,3.05,6.56,2,2
17332.64,-0.98,0.151,0.085,1.16,3.23,6.26,2,2
17332.656,-0.98,0.149,0.093,0.34,3.42,6.47,2,2
17332.671,-0.975,0.155,0.095,0.31,3.23,7.32,2,2
17332.671,-0.966,0.163,0.094,0.58,2.62,8.12,2,2
17332.687,-0.963,0.159,0.091,0.79,1.62,8.7,2,2
17332.703,-0.966,0.158,0.086,0.24,0.46,9.22,2,2
17332.703,-0.962,0.149,0.083,-0.46,-0.06,9.83,2,2
17332.718,-0.958,0.136,0.082,-0.82,0.18,10.19,2,2
17332.718,-0.955,0.131,0.082,-0.52,1.68,10.22,2,2
17332.734,-0.949,0.135,0.09,0.18,2.99,9.4,2,2
17332.75,-0.948,0.138,0.099,0.06,3.33,7.57,2,2
17332.75,-0.948,0.142,0.107,-0.85,2.35,5.74,2,2
17332.765,-0.955,0.149,0.109,-2.38,0.09,4.33,2,2
17332.781,-0.953,0.14,0.109,-4.12,-3.69,3.05,2,2
17332.796,-0.956,0.138,0.107,-3.45,-4.88,2.66,2,2
17332.796,-0.956,0.136,0.107,-2.38,-5.55,2.56,2,2
17332.812,-0.954,0.14,0.109,-1.34,-6.74,3.57,2,2
17332.828,-0.95,0.149,0.118,-1.8,-8.09,4.49,2,2
17332.828,-0.945,0.15,0.125,-2.32,-10.01,5.8,2,2
17332.843,-0.93,0.162,0.155,-2.47,-12.7,7.26,2,2
17332.859,-0.928,0.174,0.188,-2.26,-16.33,9.22,2,2
17332.859,-0.933,0.185,0.224,-1.8,-21.94,12.33,2,2
17332.875,-0.935,0.178,0.243,-1.65,-29.51,16.57,2,2
17332.89,-0.93,0.175,0.261,-0.58,-37.78,20.94,2,2
17332.906,-0.926,0.183,0.275,1.28,-46.14,24.54,2,2
17332.906,-0.908,0.197,0.294,1.83,-55.27,27.41,2,2
17332.921,-0.882,0.209,0.301,1.5,-64.46,29.82,2,2
17332.921,-0.854,0.222,0.323,0.0,-74.04,32.53,2,2
17332.937,-0.817,0.227,0.338,-0.49,-83.25,36.41,2,2
17332.953,-0.73,0.214,0.37,0.82,-102.33,47.85,2,2
17332.968,-0.688,0.199,0.365,4.79,-110.54,53.8,2,2
17332.968,-0.657,0.182,0.352,11.57,-116.92,59.48,2,2
17332.984,-0.634,0.173,0.346,19.99,-120.4,64.52,2,2
17333.0,-0.615,0.171,0.335,28.23,-121.37,68.58,2,2
17333.0,-0.6,0.176,0.322,34.79,-120.37,71.32,2,2
17333.015,-0.582,0.184,0.318,40.31,-116.61,72.42,2,2
17333.031,-0.568,0.203,0.319,43.95,-111.15,71.38,2,2
17333.031,-0.547,0.243,0.329,43.79,-105.47,69.34,2,2
17333.046,-0.529,0.266,0.348,39.89,-101.38,67.54,2,2
17333.062,-0.53,0.272,0.366,34.76,-100.59,66.41,2,2
17333.062,-0.53,0.278,0.384,32.2,-102.79,65.37,2,2
17333.078,-0.521,0.283,0.397,32.26,-105.26,62.87,2,2
17333.093,-0.513,0.306,0.397,31.5,-107.03,58.78,2,2
17333.093,-0.495,0.34,0.392,28.05,-107.73,53.5,2,2
17333.109,-0.459,0.363,0.395,23.01,-106.02,48.01,2,2
17333.109,-0.436,0.378,0.399,17.12,-102.88,43.61,2,2
17333.125,-0.413,0.387,0.399,12.63,-99.77,41.23,2,2
17333.14,-0.381,0.385,0.407,10.16,-95.74,41.38,2,2
17333.14,-0.363,0.388,0.43,10.13,-90.46,43.73,2,2
17333.156,-0.345,0.377,0.457,12.82,-84.81,48.25,2,2
17333.171,-0.353,0.362,0.492,17.85,-77.49,53.74,2,2
17333.171,-0.351,0.381,0.53,22.95,-69.15,57.71,2,2
17333.187,-0.343,0.409,0.563,27.89,-63.42,58.29,2,2
17333.203,-0.37,0.402,0.58,34.82,-62.99,57.53,2,2
17333.203,-0.375,0.378,0.583,44.22,-68.88,58.78,2,2
17333.218,-0.325,0.349,0.571,55.7,-77.36,62.29,2,2
17333.218,-0.27,0.315,0.555,67.81,-84.14,66.26,2,2
17333.234,-0.265,0.294,0.532,80.23,-88.2,67.35,2,2
17333.25,-0.252,0.286,0.494,90.98,-89.79,64.3,2,2
17333.25,-0.244,0.322,0.465,96.44,-88.02,55.7,2,2
17333.265,-0.251,0.393,0.458,95.25,-86.31,42.09,2,2
17333.281,-0.256,0.471,0.483,87.28,-87.5,27.92,2,2
17333.296,-0.261,0.517,0.503,74.47,-95.16,18.1,2,2
17333.296,-0.257,0.49,0.518,60.79,-108.65,14.65,2,2
17333.312,-0.277,0.45,0.549,52.4,-124.73,14.68,2,2
17333.312,-0.301,0.428,0.565,51.55,-143.13,15.72,2,2
17333.328,-0.33,0.408,0.56,54.35,-160.56,15.41,2,2
17333.328,-0.386,0.492,0.557,52.92,-173.62,6.9,2,2
17333.343,-0.406,0.6,0.545,42.27,-184.18,-8.0,2,2
17333.359,-0.478,0.713,0.541,20.08,-191.6,-23.93,2,2
17333.359,-0.548,0.826,0.523,-11.54,-198.03,-35.49,2,2
17333.375,-0.531,0.864,0.534,-47.64,-201.94,-36.96,2,2
17333.39,-0.51,0.815,0.573,-78.34,-199.68,-25.76,2,2
17333.39,-0.494,0.728,0.626,-94.15,-192.91,-7.51,2,2
17333.406,-0.426,0.613,0.675,-92.26,-186.93,13.28,2,2
17333.421,-0.348,0.504,0.72,-75.5,-174.26,33.85,2,2
17333.437,-0.358,0.527,0.8,-52.89,-149.88,43.61,2,2
17333.437,-0.4,0.634,0.929,-36.07,-120.85,42.42,2,2
17333.453,-0.57,0.582,1.089,-17.94,-85.39,23.99,2,2
17333.468,-0.615,0.551,1.133,-10.16,-84.08,16.94,2,2
17333.468,-0.6,0.486,1.11,5.65,-93.6,11.29,2,2
17333.484,-0.563,0.453,1.039,25.7,-105.23,7.17,2,2
17333.5,-0.511,0.483,0.977,44.16,-112.34,4.15,2,2
17333.515,-0.472,0.552,0.936,54.38,-112.74,-0.64,2,2
17333.515,-0.465,0.629,0.915,55.57,-107.3,-6.5,2,2
17333.531,-0.46,0.684,0.916,49.29,-97.99,-10.9,2,2
17333.531,-0.462,0.755,0.926,38.42,-85.51,-15.78,2,2
17333.546,-0.494,0.753,0.923,26.4,-72.05,-17.58,2,2
17333.562,-0.503,0.756,0.924,12.73,-56.64,-14.25,2,2
17333.562,-0.505,0.788,0.924,-1.95,-37.69,-11.93,2,2
17333.578,-0.517,0.766,0.922,-15.84,-18.65,-11.99,2,2
17333.593,-0.56,0.77,0.953,-29.76,1.62,-11.99,2,2
17333.593,-0.623,0.776,0.993,-42.15,18.68,-12.91,2,2
17333.609,-0.678,0.749,1.046,-48.98,29.91,-14.4,2,2
17333.625,-0.771,0.72,1.154,-42.36,40.68,-17.27,2,2
17333.64,-0.8,0.712,1.174,-32.99,36.38,-16.85,2,2
17333.64,-0.8,0.696,1.152,-23.35,26.0,-13.37,2,2
17333.656,-0.766,0.683,1.109,-14.28,11.72,-7.05,2,2
17333.671,-0.706,0.678,1.037,-7.57,-2.32,2.66,2,2
17333.671,-0.636,0.68,0.955,-6.23,-12.36,14.13,2,2
17333.687,-0.565,0.677,0.886,-12.39,-17.18,23.5,2,2
17333.703,-0.504,0.647,0.834,-24.63,-18.62,28.53,2,2
17333.703,-0.457,0.613,0.813,-39.34,-17.52,31.25,2,2
17333.718,-0.433,0.583,0.814,-51.55,-14.25,32.04,2,2
17333.718,-0.42,0.548,0.834,-57.07,-11.08,31.46,2,2
17333.734,-0.408,0.517,0.862,-55.33,-8.42,32.14,2,2
17333.75,-0.402,0.492,0.882,-48.68,-7.14,33.2,2,2
17333.765,-0.377,0.478,0.894,-39.03,-7.05,32.99,2,2
17333.765,-0.354,0.489,0.9,-29.05,-6.07,31.59,2,2
17333.781,-0.343,0.503,0.898,-21.49,-4.85,28.29,2,2
17333.781,-0.333,0.518,0.898,-18.01,-4.06,24.14,2,2
17333.796,-0.338,0.548,0.898,-19.47,-3.45,18.43,2,2
17333.812,-0.339,0.563,0.904,-22.06,-5.34,18.31,2,2
17333.812,-0.336,0.567,0.925,-23.16,-8.33,20.17,2,2
17333.828,-0.337,0.558,0.939,-22.71,-12.39,22.31,2,2
17333.828,-0.291,0.524,0.939,-22.06,-16.11,22.74,2,2
17333.843,-0.286,0.531,0.949,-22.61,-19.17,20.78,2,2
17333.859,-0.275,0.542,0.957,-23.77,-22.68,18.31,2,2
17333.859,-0.251,0.539,0.977,-24.48,-25.33,16.72,2,2
17333.875,-0.239,0.542,0.987,-24.17,-26.61,17.0,2,2
17333.89,-0.221,0.525,0.978,-21.61,-27.95,17.33,2,2
17333.89,-0.206,0.502,0.972,-16.91,-28.23,16.69,2,2
17333.906,-0.209,0.493,0.97,-12.33,-28.57,13.7,2,2
17333.921,-0.199,0.492,0.954,-8.18,-29.42,9.83,2,2
17333.921,-0.186,0.481,0.915,-2.01,-29.21,6.5,2,2
17333.937,-0.163,0.473,0.889,3.78,-27.31,4.94,2,2
17333.953,-0.142,0.458,0.881,6.23,-24.17,3.81,2,2
17333.953,-0.142,0.463,0.876,7.08,-21.64,2.41,2,2
17333.968,-0.149,0.471,0.877,7.32,-20.36,2.38,2,2
17333.968,-0.145,0.479,0.894,3.63,-21.79,1.95,2,2
17333.984,-0.135,0.473,0.909,-1.77,-25.09,1.07,2,2
17334.0,-0.112,0.463,0.894,-6.07,-27.65,-0.24,2,2
17334.0,-0.082,0.445,0.878,-9.7,-27.5,-0.79,2,2
17334.015,-0.055,0.412,0.862,-10.65,-24.14,-0.09,2,2
17334.031,-0.04,0.381,0.855,-9.25,-18.25,0.76,2,2
17334.031,-0.035,0.362,0.854,-7.9,-11.63,-0.12,2,2
17334.046,-0.048,0.338,0.854,-3.17,-6.62,-3.08,2,2
17334.062,-0.045,0.334,0.865,2.9,-3.36,-6.41,2,2
17334.062,-0.02,0.337,0.843,11.14,1.04,-9.7,2,2
17334.078,-0.016,0.33,0.798,19.65,9.03,-12.09,2,2
17334.078,-0.024,0.337,0.752,29.73,20.05,-12.27,2,2
17334.093,-0.107,0.378,0.761,40.01,31.56,-11.47,2,2
17334.109,-0.197,0.558,0.871,29.85,31.5,-9.52,2,2
17334.109,-0.175,0.554,0.934,17.82,23.26,-7.87,2,2
17334.125,-0.352,0.606,0.994,2.84,5.83,-8.76,2,2
17334.14,-0.228,0.743,1.022,-19.65,-13.43,-0.89,2,2
17334.14,-0.144,0.593,0.907,-15.17,-23.04,7.72,2,2
17334.156,-0.11,0.536,0.837,-10.56,-18.43,12.97,2,2
17334.171,-0.087,0.53,0.85,-4.79,-9.61,12.21,2,2
17334.171,-0.119,0.507,0.881,7.05,-1.98,7.26,2,2
17334.187,-0.153,0.535,0.898,16.54,1.31,4.49,2,2
17334.187,-0.146,0.545,0.89,23.35,0.21,3.42,2,2
17334.203,-0.155,0.531,0.869,27.07,-1.59,2.62,2,2
17334.218,-0.157,0.538,0.84,27.31,-4.49,2.41,2,2
17334.218,-0.132,0.541,0.81,24.81,-7.72,2.59,2,2
17334.234,-0.132,0.538,0.801,19.56,-9.37,2.47,2,2
17334.25,-0.165,0.592,0.824,9.77,-12.94,4.64,2,2
17334.25,-0.016,0.527,0.77,2.32,-14.1,9.55,2,2
17334.265,-0.073,0.425,0.728,3.69,-6.2,7.81,2,2
17334.281,-0.107,0.501,0.812,-2.47,-0.12,9.31,2,2
17334.281,-0.054,0.478,0.825,-0.34,0.49,9.67,2,2
17334.296,-0.082,0.464,0.799,0.76,1.86,5.37,2,2
17334.312,-0.081,0.467,0.824,-2.5,2.04,3.08,2,2
17334.312,-0.082,0.459,0.835,-2.35,0.76,0.31,2,2
17334.328,-0.086,0.454,0.838,-1.13,-0.34,-1.16,2,2
17334.328,-0.086,0.467,0.853,-0.24,-1.28,-2.08,2,2
17334.343,-0.104,0.478,0.862,0.92,-2.17,-2.84,2,2
17334.359,-0.105,0.49,0.864,0.21,-4.09,-2.87,2,2
17334.359,-0.102,0.495,0.855,-1.28,-5.49,-3.3,2,2
17334.375,-0.098,0.497,0.845,-2.81,-6.13,-3.75,2,2
17334.39,-0.093,0.494,0.829,-3.48,-6.04,-4.09,2,2
17334.39,-0.081,0.488,0.819,-3.39,-4.79,-4.27,2,2
17334.406,-0.076,0.484,0.818,-2.44,-2.17,-4.33,2,2
17334.421,-0.075,0.483,0.83,-1.28,1.04,-4.49,2,2
17334.421,-0.093,0.493,0.856,-0.37,3.51,-4.79,2,2
17334.437,-0.113,0.501,0.881,0.34,3.6,-4.79,2,2
17334.437,-0.12,0.511,0.895,0.58,1.59,-4.36,2,2
17334.453,-0.122,0.518,0.895,1.16,-1.5,-3.81,2,2
17334.468,-0.119,0.522,0.876,1.68,-4.64,-3.08,2,2
17334.468,-0.105,0.517,0.848,1.86,-6.68,-2.56,2,2
17334.484,-0.092,0.514,0.827,2.29,-6.74,-2.81,2,2
17334.5,-0.091,0.522,0.82,2.26,-4.88,-3.05,2,2
17334.5,-0.099,0.521,0.821,1.37,-2.87,-2.66,2,2
17334.515,-0.102,0.525,0.835,-0.12,-1.8,-2.11,2,2
17334.531,-0.108,0.539,0.855,-1.8,-0.98,-1.83,2,2
17334.531,-0.119,0.538,0.866,-2.81,-1.37,-1.16,2,2
17334.546,-0.118,0.527,0.871,-3.33,-2.35,0.31,2,2
17334.562,-0.111,0.512,0.873,-2.2,-2.99,1.89,2,2
17334.562,-0.105,0.495,0.868,-0.24,-3.39,2.78,2,2
17334.578,-0.1,0.483,0.86,1.13,-3.51,2.44,2,2
17334.593,-0.086,0.469,0.847,2.44,-3.94,1.01,2,2
17334.593,-0.077,0.471,0.829,3.88,-3.11,-0.98,2,2
17334.609,-0.079,0.472,0.837,4.85,-0.98,-2.72,2,2
17334.609,-0.083,0.481,0.829,4.97,0.09,-4.39,2,2
17334.625,-0.084,0.494,0.826,3.78,1.13,-5.01,2,2
17334.64,-0.095,0.502,0.837,2.04,1.98,-4.91,2,2
17334.656,-0.104,0.503,0.843,0.15,1.59,-4.3,2,2
17334.656,-0.104,0.505,0.85,-1.1,0.64,-3.33,2,2
17334.671,-0.105,0.508,0.856,-1.5,0.06,-2.29,2,2
17334.671,-0.11,0.503,0.861,-1.56,-0.76,-1.4,2,2
17334.687,-0.109,0.496,0.862,-1.25,-2.01,-1.07,2,2
17334.703,-0.099,0.496,0.852,-0.52,-3.2,-1.31,2,2
17334.703,-0.092,0.493,0.84,-0.09,-3.72,-2.11,2,2
17334.718,-0.084,0.491,0.834,0.12,-3.51,-2.66,2,2
17334.734,-0.082,0.489,0.831,0.58,-2.69,-2.81,2,2
17334.734,-0.084,0.487,0.831,0.64,-1.74,-2.99,2,2
17334.75,-0.088,0.488,0.836,0.34,-0.92,-3.45,2,2
17334.75,-0.095,0.488,0.846,0.49,-0.43,-4.18,2,2
17334.765,-0.107,0.5,0.861,1.43,-0.49,-4.46,2,2
17334.781,-0.112,0.518,0.863,2.17,-1.22,-3.6,2,2
17334.781,-0.11,0.531,0.865,0.82,-2.99,-2.41,2,2
17334.796,-0.111,0.526,0.861,0.64,-3.48,-1.92,2,2
17334.812,-0.111,0.512,0.851,1.77,-3.88,-1.5,2,2
17334.828,-0.108,0.503,0.844,2.35,-4.24,-1.53,2,2
17334.828,-0.104,0.497,0.838,2.81,-4.61,-1.77,2,2
17334.843,-0.102,0.499,0.833,3.11,-4.88,-1.4,2,2
17334.859,-0.093,0.501,0.829,2.41,-4.7,-1.1,2,2
17334.859,-0.089,0.501,0.833,1.01,-4.33,-1.25,2,2
17334.875,-0.091,0.509,0.837,-0.18,-3.57,-0.82,2,2
17334.89,-0.095,0.509,0.846,-1.4,-3.42,-0.24,2,2
17334.89,-0.096,0.505,0.854,-1.62,-4.15,0.79,2,2
17334.906,-0.09,0.502,0.857,-1.4,-4.91,1.46,2,2
17334.921,-0.086,0.497,0.858,-1.07,-5.43,1.34,2,2
17334.921,-0.087,0.487,0.855,-0.49,-5.83,1.07,2,2
17334.937,-0.085,0.484,0.849,0.03,-6.35,0.34,2,2
17334.953,-0.083,0.481,0.84,0.18,-6.9,-0.95,2,2
17334.953,-0.079,0.477,0.828,-0.43,-7.08,-2.11,2,2
17334.968,-0.079,0.474,0.817,-1.1,-6.62,-2.9,2,2
17334.984,-0.083,0.463,0.816,-1.13,-4.27,-4.24,2,2
17335.0,-0.088,0.464,0.834,-1.04,-3.45,-4.21,2,2
17335.0,-0.101,0.484,0.87,-1.86,-4.06,-3.51,2,2
17335.015,-0.099,0.496,0.893,-2.81,-5.65,-1.92,2,2
17335.031,-0.046,0.494,0.868,-3.02,-7.23,-0.27,2,2
17335.031,-0.056,0.364,0.869,6.35,-1.8,0.31,2,2
17335.046,-0.188,0.526,0.982,3.51,-3.81,-3.02,2,2
17335.046,-0.083,0.625,0.997,-3.91,-12.88,-0.85,2,2
17335.062,-0.108,0.541,0.94,2.2,-15.38,-1.77,2,2
17335.078,-0.075,0.552,0.914,3.42,-12.97,0.76,2,2
17335.093,-0.055,0.554,0.887,6.53,-8.0,3.3,2,2
17335.093,-0.095,0.519,0.871,11.96,-2.29,2.96,2,2
17335.109,-0.114,0.482,0.868,17.37,-0.06,2.04,2,2
17335.109,-0.116,0.463,0.849,24.38,-1.92,-1.37,2,2
17335.125,-0.13,0.471,0.822,30.3,-5.31,-5.43,2,2
17335.14,-0.138,0.527,0.793,29.45,-10.38,-8.79,2,2
17335.156,-0.136,0.671,0.779,13.43,-22.06,-3.78,2,2
17335.171,-0.001,0.552,0.69,3.91,-20.81,2.93,2,2
17335.171,-0.062,0.517,0.711,-12.88,-14.89,-0.92,2,2
17335.187,-0.042,0.541,0.825,-35.98,-13.76,-1.74,2,2
17335.203,-0.044,0.484,0.799,-34.88,-11.87,0.37,2,2
17335.203,-0.025,0.453,0.788,-28.99,-6.81,3.78,2,2
17335.218,-0.005,0.454,0.811,-24.02,-1.04,4.55,2,2
17335.218,-0.016,0.434,0.805,-12.7,5.46,3.17,2,2
17335.234,-0.024,0.419,0.805,-1.16,11.93,2.04,2,2
17335.25,-0.049,0.447,0.823,8.82,17.12,0.18,2,2
17335.265,-0.076,0.482,0.838,14.95,18.71,-1.04,2,2
17335.265,-0.1,0.512,0.86,14.89,16.14,-2.59,2,2
17335.281,-0.112,0.538,0.889,10.01,10.5,-4.09,2,2
17335.281,-0.114,0.577,0.905,2.14,3.36,-4.3,2,2
17335.296,-0.097,0.574,0.889,-3.75,-2.56,-2.44,2,2
17335.312,-0.077,0.558,0.865,-7.14,-5.46,-0.06,2,2
17335.328,-0.064,0.523,0.847,-7.45,-3.66,2.11,2,2
17335.328,-0.07,0.514,0.842,-5.8,-2.08,1.89,2,2
17335.343,-0.073,0.507,0.836,-3.39,-1.13,1.16,2,2
17335.359,-0.078,0.503,0.83,-1.89,-0.46,0.06,2,2
17335.359,-0.072,0.492,0.822,-1.71,0.09,-1.13,2,2
17335.375,-0.072,0.478,0.81,-0.21,1.28,-1.89,2,2
17335.39,-0.067,0.472,0.81,2.17,3.48,-2.38,2,2
17335.39,-0.07,0.472,0.816,3.57,5.71,-2.72,2,2
17335.406,-0.088,0.468,0.828,3.33,6.59,-3.66,2,2
17335.421,-0.095,0.483,0.853,-0.92,4.7,-4.43,2,2
17335.421,-0.072,0.482,0.842,-3.97,1.92,-4.0,2,2
17335.437,0.011,0.421,0.786,0.15,5.01,-4.0,2,2
17335.437,-0.121,0.383,0.833,8.21,12.7,-8.06,2,2
17335.453,-0.139,0.625,0.945,-4.15,8.64,-8.64,2,2
17335.468,-0.122,0.6,0.962,-7.87,0.7,-6.5,2,2
17335.468,-0.148,0.59,0.944,-10.47,-4.3,-3.2,2,2
17335.5,-0.109,0.517,0.908,-8.45,-5.49,5.62,2,2
17335.5,-0.128,0.456,0.914,-0.06,-5.46,3.63,2,2
17335.515,-0.11,0.458,0.891,11.2,-8.21,-1.43,2,2
17335.531,-0.109,0.495,0.846,20.29,-9.8,-6.84,2,2
17335.531,-0.108,0.533,0.821,23.87,-9.46,-8.58,2,2
17335.546,-0.157,0.6,0.845,21.12,-9.31,-5.92,2,2
17335.562,-0.043,0.633,0.796,12.15,-11.14,2.69,2,2
17335.562,-0.042,0.487,0.715,6.74,-5.4,3.78,2,2
17335.578,-0.093,0.532,0.784,-5.04,1.71,4.21,2,2
17335.593,-0.067,0.506,0.816,-8.12,2.84,7.02,2,2
17335.593,-0.079,0.485,0.814,-6.71,3.57,6.74,2,2
17335.609,-0.08,0.486,0.834,-6.56,4.09,7.29,2,2
17335.609,-0.074,0.477,0.84,-4.06,3.63,6.96,2,2
17335.625,-0.076,0.466,0.841,-1.68,3.27,6.13,2,2
17335.64,-0.073,0.477,0.845,-0.31,2.44,4.73,2,2
17335.64,-0.072,0.478,0.844,1.13,2.11,3.14,2,2
17335.671,-0.067,0.492,0.852,1.89,2.96,1.34,2,2
17335.671,-0.066,0.505,0.848,2.14,3.63,0.95,2,2
17335.687,-0.069,0.508,0.846,1.71,4.27,0.82,2,2
17335.687,-0.071,0.511,0.852,0.95,4.94,0.89,2,2
17335.703,-0.081,0.508,0.853,0.82,5.13,0.73,2,2
17335.718,-0.089,0.506,0.849,1.01,4.18,0.67,2,2
17335.734,-0.095,0.511,0.845,1.04,2.62,0.18,2,2
17335.734,-0.093,0.52,0.84,0.43,0.95,-0.18,2,2
17335.75,-0.09,0.529,0.836,-0.12,0.73,-0.34,2,2
17335.75,-0.092,0.531,0.835,-0.76,1.59,0.09,2,2
17335.765,-0.092,0.528,0.837,-2.17,2.66,1.5,2,2
17335.781,-0.098,0.529,0.846,-2.53,2.11,2.14,2,2
17335.781,-0.1,0.521,0.85,-2.96,0.92,2.72,2,2
17335.796,-0.095,0.512,0.848,-3.63,0.0,2.78,2,2
17335.812,-0.086,0.505,0.848,-4.46,-0.64,1.74,2,2
17335.812,-0.08,0.494,0.838,-3.36,-0.64,1.13,2,2
17335.828,-0.071,0.496,0.835,-2.69,0.49,1.01,2,2
17335.828,-0.066,0.491,0.839,-2.2,2.47,0.27,2,2
17335.843,-0.076,0.494,0.848,-0.7,5.13,-0.34,2,2
17335.859,-0.089,0.503,0.861,0.85,6.81,-0.21,2,2
17335.859,-0.097,0.504,0.87,1.31,6.93,-0.12,2,2
17335.875,-0.112,0.513,0.883,2.01,6.26,0.06,2,2
17335.89,-0.129,0.531,0.897,2.99,4.58,0.12,2,2
17335.89,-0.13,0.547,0.898,2.53,1.16,0.37,2,2
17335.906,-0.123,0.551,0.884,1.16,-2.2,1.07,2,2
17335.921,-0.107,0.544,0.866,0.0,-4.12,2.11,2,2
17335.921,-0.096,0.539,0.86,-0.82,-4.21,3.11,2,2
17335.937,-0.091,0.54,0.864,-0.76,-2.66,3.94,2,2
17335.953,-0.092,0.54,0.879,0.06,-0.21,4.12,2,2
17335.953,-0.1,0.546,0.912,2.11,2.96,4.21,2,2
17335.968,-0.112,0.564,0.954,5.58,6.41,4.46,2,2
17335.968,-0.124,0.588,0.99,10.07,9.4,4.85,2,2
17335.984,-0.131,0.61,1.023,14.22,11.93,5.71,2,2
17336.0,-0.143,0.631,1.056,17.61,13.82,6.23,2,2
17336.0,-0.15,0.647,1.088,19.71,14.19,6.13,2,2
17336.015,-0.144,0.654,1.12,21.0,13.64,5.92,2,2
17336.031,-0.135,0.654,1.144,22.92,13.58,6.38,2,2
17336.031,-0.122,0.639,1.149,25.85,13.86,8.09,2,2
17336.046,-0.121,0.613,1.141,29.63,14.56,10.74,2,2
17336.062,-0.118,0.574,1.118,33.81,15.32,13.52,2,2
17336.062,-0.107,0.531,1.065,38.12,16.02,15.84,2,2
17336.078,-0.09,0.493,0.998,42.24,17.49,16.91,2,2
17336.093,-0.073,0.457,0.933,45.14,20.2,16.36,2,2
17336.093,-0.064,0.436,0.871,45.9,24.08,14.19,2,2
17336.109,-0.055,0.412,0.811,47.4,29.21,10.96,2,2
17336.109,-0.044,0.393,0.758,47.73,36.19,6.99,2,2
17336.125,-0.034,0.402,0.733,46.02,46.33,1.74,2,2
17336.14,-0.036,0.416,0.714,45.17,60.21,-5.43,2,2
17336.156,-0.055,0.434,0.701,45.29,78.07,-14.25,2,2
17336.156,-0.081,0.457,0.697,47.55,98.85,-22.98,2,2
17336.171,-0.121,0.487,0.697,52.74,121.16,-31.37,2,2
17336.171,-0.173,0.517,0.695,60.12,143.04,-39.49,2,2
17336.187,-0.239,0.551,0.694,68.27,161.78,-46.24,2,2
17336.187,-0.295,0.641,0.715,77.0,176.0,-50.48,2,2
17336.203,-0.394,0.7,0.701,85.45,185.43,-51.88,2,2
17336.218,-0.461,0.741,0.696,87.71,187.32,-48.13,2,2
17336.218,-0.517,0.814,0.709,85.21,187.9,-44.83,2,2
17336.234,-0.573,0.88,0.718,77.49,185.0,-42.73,2,2
17336.25,-0.609,0.917,0.708,64.73,177.04,-40.44,2,2
17336.25,-0.639,0.951,0.684,45.81,167.15,-37.11,2,2
17336.265,-0.672,0.995,0.69,20.66,154.58,-33.45,2,2
17336.281,-0.687,1.008,0.685,-7.87,137.61,-28.87,2,2
17336.296,-0.679,0.976,0.667,-38.27,119.57,-23.8,2,2
17336.296,-0.651,0.936,0.657,-69.03,103.27,-19.5,2,2
17336.312,-0.63,0.898,0.668,-96.5,88.32,-16.11,2,2
17336.312,-0.61,0.84,0.675,-117.68,73.82,-13.64,2,2
17336.328,-0.588,0.764,0.691,-132.57,60.61,-11.93,2,2
17336.343,-0.516,0.649,0.787,-136.78,37.72,-10.22,2,2
17336.359,-0.491,0.663,0.855,-131.78,26.76,-8.91,2,2
17336.359,-0.46,0.701,0.917,-124.91,15.78,-5.55,2,2
17336.375,-0.441,0.697,0.853,-114.87,8.15,1.89,2,2
17336.39,-0.485,0.642,0.759,-101.72,3.69,12.6,2,2
17336.406,-0.534,0.556,0.769,-79.41,0.03,30.06,2,2
17336.406,-0.506,0.488,0.811,-48.49,-7.51,49.62,2,2
17336.421,-0.417,0.549,0.812,-17.73,-15.99,55.7,2,2
17336.421,-0.397,0.622,0.766,2.26,-22.16,60.7,2,2
17336.437,-0.376,0.679,0.733,8.36,-29.63,65.22,2,2
17336.453,-0.328,0.691,0.701,5.25,-35.0,65.31,2,2
17336.453,-0.305,0.678,0.669,-4.03,-39.74,64.94,2,2
17336.468,-0.269,0.689,0.621,-17.15,-42.66,61.68,2,2
17336.468,-0.234,0.695,0.593,-34.33,-41.84,57.47,2,2
17336.484,-0.204,0.678,0.577,-52.06,-40.62,51.88,2,2
17336.5,-0.161,0.652,0.593,-66.74,-35.37,46.33,2,2
17336.515,-0.153,0.547,0.61,-84.05,-24.63,42.66,2,2
17336.531,-0.12,0.511,0.614,-84.29,-20.63,43.06,2,2
17336.531,-0.103,0.495,0.611,-82.49,-14.28,42.85,2,2
17336.546,-0.1,0.477,0.599,-80.81,-6.65,42.24,2,2
17336.562,-0.124,0.458,0.601,-79.78,2.9,39.16,2,2
17336.562,-0.15,0.466,0.625,-80.57,11.08,31.65,2,2
17336.578,-0.181,0.495,0.644,-84.02,17.09,20.87,2,2
17336.578,-0.246,0.513,0.632,-90.79,22.13,10.07,2,2
17336.593,-0.299,0.517,0.626,-101.44,25.36,0.21,2,2
17336.609,-0.321,0.492,0.63,-113.96,25.88,-8.06,2,2
17336.625,-0.328,0.449,0.634,-124.7,26.06,-14.86,2,2
17336.625,-0.333,0.396,0.628,-131.81,27.71,-20.6,2,2
17336.64,-0.344,0.334,0.626,-133.49,31.4,-23.65,2,2
17336.656,-0.354,0.247,0.621,-128.88,38.3,-21.82,2,2
17336.656,-0.303,0.181,0.625,-116.06,49.07,-20.14,2,2
17336.671,-0.311,0.142,0.611,-94.76,62.23,-20.54,2,2
17336.671,-0.336,0.16,0.633,-69.52,78.43,-16.24,2,2
17336.687,-0.406,0.169,0.649,-44.25,89.48,-6.9,2,2
17336.703,-0.461,0.162,0.655,-23.22,93.23,4.82,2,2
17336.703,-0.49,0.17,0.641,-3.2,94.3,13.21,2,2
17336.718,-0.504,0.166,0.617,15.41,95.03,20.6,2,2
17336.734,-0.5,0.172,0.599,31.62,96.53,24.35,2,2
17336.734,-0.503,0.193,0.558,45.78,99.03,24.2,2,2
17336.75,-0.503,0.21,0.514,59.05,106.02,19.5,2,2
17336.75,-0.512,0.228,0.475,60.09,111.42,16.63,2,2
17336.765,-0.537,0.244,0.45,60.34,118.32,13.98,2,2
17336.781,-0.575,0.282,0.441,58.6,124.73,13.21,2,2
17336.781,-0.616,0.33,0.441,54.87,129.89,14.89,2,2
17336.796,-0.632,0.344,0.462,52.1,134.28,18.16,2,2
17336.812,-0.648,0.351,0.491,52.92,136.85,24.66,2,2
17336.812,-0.658,0.345,0.506,57.04,136.78,33.2,2,2
17336.828,-0.666,0.332,0.511,64.67,135.81,41.32,2,2
17336.843,-0.688,0.328,0.502,74.65,134.16,47.58,2,2
17336.843,-0.703,0.334,0.504,83.65,131.69,48.55,2,2
17336.859,-0.693,0.345,0.498,89.85,127.51,41.08,2,2
17336.875,-0.713,0.377,0.462,90.0,121.37,27.71,2,2
17336.875,-0.761,0.412,0.431,82.09,115.05,11.57,2,2
17336.89,-0.773,0.437,0.415,66.93,108.25,-5.68,2,2
17336.89,-0.775,0.46,0.396,46.45,102.63,-22.03,2,2
17336.906,-0.798,0.485,0.385,24.75,99.37,-35.34,2,2
17336.921,-0.849,0.515,0.414,5.04,96.62,-45.05,2,2
17336.921,-0.87,0.522,0.48,-11.51,92.29,-50.08,2,2
17336.937,-0.872,0.516,0.557,-23.19,83.99,-50.69,2,2
17336.953,-0.869,0.473,0.613,-26.64,72.63,-47.15,2,2
17336.953,-0.855,0.41,0.655,-20.81,60.88,-41.14,2,2
17336.968,-0.83,0.357,0.672,-6.65,48.25,-34.85,2,2
17336.968,-0.828,0.349,0.633,11.51,36.1,-29.69,2,2
17336.984,-0.853,0.391,0.583,25.61,25.06,-26.31,2,2
17337.0,-0.864,0.415,0.528,33.85,16.14,-26.73,2,2
17337.015,-0.839,0.423,0.415,29.69,8.27,-35.58,2,2
17337.031,-0.84,0.425,0.388,21.49,8.27,-42.02,2,2
17337.031,-0.837,0.397,0.387,14.68,10.71,-46.82,2,2
17337.046,-0.842,0.37,0.392,11.17,13.64,-50.9,2,2
17337.062,-0.866,0.374,0.387,11.29,14.98,-53.13,2,2
17337.078,-0.84,0.377,0.406,13.4,14.16,-52.61,2,2
17337.078,-0.8,0.36,0.41,17.15,12.91,-51.33,2,2
17337.078,-0.804,0.363,0.389,21.58,11.2,-48.8,2,2
17337.093,-0.801,0.36,0.364,26.64,9.92,-46.39,2,2
17337.109,-0.807,0.366,0.336,30.34,10.71,-47.82,2,2
17337.125,-0.807,0.387,0.335,29.63,11.63,-51.79,2,2
17337.125,-0.789,0.383,0.352,25.27,10.32,-54.6,2,2
17337.14,-0.781,0.364,0.362,21.03,9.4,-54.14,2,2
17337.14,-0.812,0.347,0.353,20.81,9.16,-52.25,2,2
17337.156,-0.837,0.335,0.332,25.21,9.58,-50.81,2,2
17337.171,-0.867,0.348,0.296,30.52,9.74,-52.16,2,2
17337.187,-0.864,0.352,0.276,35.1,11.54,-57.01,2,2
17337.203,-0.866,0.351,0.278,35.55,14.4,-58.6,2,2
17337.203,-0.879,0.381,0.301,33.3,14.13,-60.09,2,2
17337.218,-0.897,0.382,0.328,27.65,6.87,-59.33,2,2
17337.218,-0.909,0.346,0.357,20.51,-4.94,-53.96,2,2
17337.234,-0.883,0.351,0.362,17.21,-15.87,-49.35,2,2
17337.25,-0.885,0.288,0.358,18.71,-20.14,-45.96,2,2
17337.25,-0.869,0.213,0.371,21.36,-24.54,-37.75,2,2
17337.265,-0.821,0.203,0.322,30.37,-28.78,-31.89,2,2
17337.281,-0.828,0.23,0.216,40.89,-29.11,-30.88,2,2
17337.296,-0.832,0.284,0.13,41.87,-30.95,-33.66,2,2
17337.296,-0.821,0.314,0.088,33.66,-29.15,-40.86,2,2
17337.312,-0.848,0.29,0.077,22.52,-21.39,-48.8,2,2
17337.312,-0.85,0.264,0.084,13.43,-12.33,-55.27,2,2
17337.328,-0.855,0.264,0.082,9.4,-5.04,-60.58,2,2
17337.343,-0.856,0.233,0.087,7.93,1.65,-62.84,2,2
17337.343,-0.831,0.194,0.118,7.14,10.68,-62.47,2,2
17337.359,-0.828,0.177,0.15,9.86,19.81,-62.23,2,2
17337.359,-0.822,0.156,0.143,15.23,25.36,-60.24,2,2
17337.375,-0.811,0.168,0.129,16.69,28.87,-59.6,2,2
17337.39,-0.812,0.171,0.101,12.39,30.92,-64.18,2,2
17337.39,-0.82,0.154,0.093,0.73,33.97,-72.54,2,2
17337.406,-0.872,0.12,0.11,-13.61,39.25,-83.01,2,2
17337.421,-0.917,0.075,0.165,-24.54,46.17,-92.2,2,2
17337.421,-0.922,0.005,0.253,-24.57,53.25,-98.54,2,2
17337.437,-0.94,-0.02,0.32,-11.57,58.38,-100.86,2,2
17337.453,-0.947,0.033,0.339,6.81,58.78,-95.07,2,2
17337.453,-0.982,0.105,0.351,21.42,54.93,-83.22,2,2
17337.468,-1.023,0.153,0.369,28.69,47.7,-69.7,2,2
17337.468,-1.025,0.193,0.369,26.03,35.92,-59.08,2,2
17337.484,-1.018,0.213,0.355,15.87,20.6,-51.91,2,2
17337.5,-1.008,0.171,0.358,5.01,5.62,-45.38,2,2
17337.5,-0.997,0.087,0.365,-0.85,-7.26,-36.5,2,2
17337.515,-1.035,0.013,0.361,0.55,-15.66,-26.8,2,2
17337.531,-1.055,-0.037,0.35,6.59,-19.32,-17.03,2,2
17337.531,-1.043,-0.034,0.32,12.33,-21.49,-9.49,2,2
17337.546,-1.049,-0.004,0.279,15.23,-22.55,-5.77,2,2
17337.562,-1.036,0.009,0.261,15.14,-21.61,-4.61,2,2
17337.562,-1.023,0.001,0.27,14.59,-20.08,-4.36,2,2
17337.578,-1.018,-0.013,0.287,15.93,-18.62,-3.63,2,2
17337.578,-1.011,-0.005,0.285,19.07,-17.15,-1.59,2,2
17337.593,-0.996,0.022,0.285,20.23,-15.69,1.16,2,2
17337.609,-0.987,0.023,0.303,20.84,-14.71,4.43,2,2
17337.609,-0.976,0.021,0.312,22.0,-15.84,7.11,2,2
17337.625,-0.98,0.009,0.325,22.58,-18.16,8.73,2,2
17337.64,-0.978,0.008,0.324,22.13,-21.36,9.22,2,2
17337.656,-0.99,0.019,0.316,20.17,-25.15,7.29,2,2
17337.656,-0.986,0.021,0.312,15.78,-28.57,3.14,2,2
17337.671,-0.967,0.025,0.302,10.9,-31.46,-2.2,2,2
17337.671,-0.954,0.03,0.286,7.08,-33.36,-6.38,2,2
17337.687,-0.933,0.033,0.275,5.01,-33.3,-7.6,2,2
17337.703,-0.934,0.051,0.262,5.8,-31.31,-7.75,2,2
17337.703,-0.934,0.059,0.259,7.39,-27.92,-6.38,2,2
17337.718,-0.94,0.068,0.267,8.3,-23.74,-4.73,2,2
17337.718,-0.954,0.07,0.282,9.86,-19.41,-3.81,2,2
17337.734,-0.955,0.076,0.302,10.99,-13.46,-2.75,2,2
17337.75,-0.952,0.075,0.33,10.32,-13.12,-2.93,2,2
17337.75,-0.944,0.071,0.358,10.19,-15.2,-2.53,2,2
17337.765,-0.933,0.084,0.391,9.64,-19.87,-2.11,2,2
17337.781,-0.93,0.099,0.378,6.9,-26.12,-2.62,2,2
17337.781,-0.929,0.119,0.357,2.04,-32.38,-3.94,2,2
17337.796,-0.926,0.127,0.344,-4.36,-37.08,-4.91,2,2
17337.812,-0.916,0.118,0.33,-10.04,-38.94,-4.73,2,2
17337.812,-0.908,0.095,0.323,-11.44,-37.26,-2.38,2,2
17337.828,-0.901,0.074,0.317,-7.75,-32.59,1.74,2,2
17337.843,-0.887,0.074,0.307,-1.5,-26.28,5.68,2,2
17337.843,-0.887,0.086,0.295,3.23,-20.08,8.64,2,2
17337.859,-0.883,0.104,0.287,3.91,-15.11,9.7,2,2
17337.859,-0.885,0.102,0.296,1.16,-11.29,9.34,2,2
17337.875,-0.896,0.076,0.319,-1.34,-7.57,8.36,2,2
17337.89,-0.906,0.068,0.345,-1.59,-4.36,7.23,2,2
17337.89,-0.919,0.05,0.369,0.0,-2.35,6.84,2,2
17337.906,-0.908,0.039,0.39,2.04,-1.62,8.15,2,2
17337.921,-0.893,0.037,0.401,4.33,-2.17,9.74,2,2
17337.937,-0.883,0.041,0.401,5.68,-4.64,10.8,2,2
17337.937,-0.875,0.054,0.392,5.31,-7.78,10.13,2,2
17337.953,-0.878,0.063,0.378,3.45,-11.08,7.9,2,2
17337.953,-0.877,0.074,0.364,0.06,-13.86,4.39,2,2
17337.968,-0.882,0.058,0.361,-3.91,-14.95,0.92,2,2
17337.968,-0.88,0.037,0.369,-6.56,-14.86,-1.68,2,2
17337.984,-0.871,0.029,0.366,-5.49,-13.28,-3.11,2,2
17338.0,-0.863,0.051,0.366,-2.93,-10.8,-3.2,2,2
17338.0,-0.848,0.062,0.365,-1.89,-7.97,-2.75,2,2
17338.015,-0.851,0.061,0.366,-2.47,-6.01,-1.62,2,2
17338.031,-0.868,0.05,0.372,-1.53,-5.16,-0.37,2,2
17338.031,-0.876,0.054,0.376,-0.46,-4.67,0.03,2,2
17338.046,-0.88,0.064,0.379,-0.98,-3.85,-0.64,2,2
17338.062,-0.879,0.062,0.385,-2.75,-3.45,-1.56,2,2
17338.062,-0.871,0.063,0.4,-3.91,-3.54,-1.68,2,2
17338.078,-0.871,0.056,0.411,-3.54,-4.09,-0.82,2,2
17338.078,-0.871,0.053,0.407,-2.5,-5.37,0.76,2,2
17338.093,-0.89,0.059,0.39,-1.65,-6.81,1.8,2,2
17338.109,-0.905,0.06,0.378,-2.56,-7.97,2.69,2,2
17338.109,-0.9,0.046,0.376,-3.75,-8.18,3.97,2,2
17338.125,-0.892,0.041,0.371,-2.75,-7.32,5.19,2,2
17338.14,-0.889,0.028,0.371,-0.15,-5.49,6.53,2,2
17338.14,-0.884,0.038,0.373,2.44,-3.11,7.14,2,2
17338.156,-0.883,0.059,0.376,3.48,-1.19,6.59,2,2
17338.171,-0.87,0.061,0.385,2.01,0.18,5.98,2,2
17338.171,-0.865,0.047,0.394,0.27,0.4,5.98,2,2
17338.187,-0.885,0.035,0.403,0.24,-0.4,5.16,2,2
17338.203,-0.89,0.043,0.402,0.31,-2.72,3.17,2,2
17338.203,-0.89,0.056,0.393,-0.89,-5.55,0.79,2,2
17338.218,-0.901,0.053,0.384,-3.45,-7.63,-1.19,2,2
17338.218,-0.884,0.044,0.386,-5.62,-8.94,-1.34,2,2
17338.234,-0.863,0.032,0.386,-5.28,-9.06,-0.55,2,2
17338.25,-0.841,0.024,0.38,-2.59,-8.33,0.67,2,2
17338.25,-0.831,0.042,0.364,0.09,-6.9,1.25,2,2
17338.265,-0.839,0.067,0.344,0.15,-5.25,0.18,2,2
17338.281,-0.864,0.074,0.342,-2.84,-3.33,-2.59,2,2
17338.281,-0.875,0.076,0.358,-6.47,-1.46,-6.47,2,2
17338.296,-0.879,0.058,0.379,-9.06,0.21,-9.67,2,2
17338.312,-0.878,0.047,0.397,-9.09,1.34,-10.38,2,2
17338.312,-0.88,0.048,0.403,-6.93,1.98,-8.97,2,2
17338.328,-0.893,0.049,0.4,-4.88,1.16,-6.65,2,2
17338.328,-0.903,0.06,0.391,-4.43,-1.25,-5.13,2,2
17338.343,-0.9,0.061,0.378,-5.86,-3.54,-4.18,2,2
17338.359,-0.898,0.059,0.373,-8.09,-4.7,-3.72,2,2
17338.359,-0.888,0.042,0.376,-8.97,-3.97,-2.72,2,2
17338.375,-0.875,0.027,0.385,-7.14,-2.01,-0.34,2,2
17338.39,-0.873,0.036,0.386,-2.81,0.24,2.32,2,2
17338.39,-0.881,0.047,0.378,0.89,2.84,4.33,2,2
17338.406,-0.889,0.053,0.377,1.22,4.55,4.94,2,2
17338.421,-0.906,0.053,0.382,-0.52,4.64,3.54,2,2
17338.421,-0.922,0.059,0.392,-3.2,3.57,1.04,2,2
17338.437,-0.928,0.059,0.396,-6.07,1.68,-0.98,2,2
17338.453,-0.935,0.057,0.391,-8.03,-0.46,-1.74,2,2
17338.453,-0.936,0.051,0.381,-8.73,-1.95,-1.07,2,2
17338.468,-0.936,0.049,0.373,-8.03,-2.47,0.58,2,2
17338.468,-0.953,0.045,0.369,-6.35,-1.04,1.71,2,2
17338.484,-0.971,0.035,0.371,-4.76,0.98,3.02,2,2
17338.5,-0.976,0.04,0.375,-3.39,2.32,4.06,2,2
17338.515,-0.995,0.051,0.378,-2.93,2.96,4.61,2,2
17338.515,-1.012,0.039,0.379,-3.94,2.32,6.13,2,2
17338.531,-1.024,0.039,0.375,-4.97,1.77,8.3,2,2
17338.531,-1.039,0.044,0.371,-5.71,1.95,9.25,2,2
17338.546,-1.042,0.04,0.37,-6.99,2.84,9.67,2,2
17338.562,-1.032,0.028,0.377,-7.93,4.49,11.08,2,2
17338.562,-1.036,0.025,0.377,-7.14,6.56,13.0,2,2
17338.578,-1.044,0.038,0.363,-6.81,7.75,14.04,2,2
17338.593,-1.07,0.053,0.333,-9.22,7.51,14.34,2,2
17338.593,-1.092,0.077,0.306,-14.86,6.65,13.28,2,2
17338.609,-1.079,0.094,0.29,-22.58,6.44,10.22,2,2
17338.609,-1.085,0.059,0.297,-28.66,8.97,7.23,2,2
17338.625,-1.092,0.034,0.314,-30.03,14.25,6.93,2,2
17338.64,-1.047,0.042,0.327,-27.65,19.65,8.67,2,2
17338.64,-1.002,0.068,0.323,-25.42,25.15,11.14,2,2
17338.656,-0.97,0.092,0.324,-25.82,29.51,14.37,2,2
17338.671,-0.9,0.105,0.301,-28.11,30.18,17.55,2,2
17338.671,-0.884,0.132,0.243,-31.53,27.34,18.68,2,2
17338.687,-0.872,0.148,0.192,-38.15,22.03,19.84,2,2
17338.703,-0.889,0.163,0.157,-47.52,15.35,20.11,2,2
17338.703,-0.921,0.12,0.146,-54.6,10.8,19.81,2,2
17338.718,-0.918,0.071,0.147,-52.95,8.76,20.14,2,2
17338.718,-0.951,0.031,0.147,-48.46,12.33,16.05,2,2
17338.734,-0.977,-0.0,0.155,-49.04,17.3,11.87,2,2
17338.75,-0.951,-0.026,0.188,-50.57,21.36,8.88,2,2
17338.75,-0.952,-0.017,0.281,-47.58,23.04,8.15,2,2
17338.765,-0.949,0.033,0.296,-43.49,21.3,10.71,2,2
17338.781,-0.961,0.093,0.296,-40.53,16.57,15.81,2,2
17338.781,-0.96,0.141,0.294,-39.83,10.01,22.37,2,2
17338.796,-0.939,0.146,0.304,-39.64,4.06,29.27,2,2
17338.812,-0.925,0.121,0.323,-36.84,1.01,34.94,2,2
17338.812,-0.924,0.108,0.326,-32.62,0.64,37.39,2,2
17338.828,-0.928,0.106,0.328,-30.37,3.05,37.69,2,2
17338.843,-0.944,0.082,0.334,-30.55,7.66,40.89,2,2
17338.843,-0.976,0.062,0.36,-28.66,11.2,46.6,2,2
17338.859,-0.96,0.039,0.406,-19.5,11.81,54.57,2,2
17338.859,-0.895,-0.004,0.452,-3.17,11.66,64.18,2,2
17338.875,-0.87,-0.003,0.462,15.23,13.25,71.05,2,2
17338.89,-0.848,0.018,0.451,25.7,13.06,72.63,2,2
17338.89,-0.828,0.042,0.434,25.64,11.72,69.19,2,2
17338.906,-0.844,0.082,0.413,17.4,9.22,59.94,2,2
17338.921,-0.862,0.092,0.397,4.43,4.49,48.25,2,2
17338.921,-0.873,0.091,0.373,-9.19,-1.65,36.07,2,2
17338.937,-0.893,0.103,0.34,-20.02,-7.35,22.8,2,2
17338.953,-0.873,0.118,0.33,-28.75,-10.65,10.35,2,2
17338.953,-0.868,0.121,0.335,-34.55,-10.19,1.56,2,2
17338.968,-0.885,0.11,0.349,-35.58,-7.97,-1.62,2,2
17338.984,-0.861,0.104,0.386,-29.85,-4.12,1.46,2,2
17338.984,-0.859,0.097,0.382,-16.45,0.79,7.02,2,2
17339.0,-0.897,0.127,0.364,-5.37,3.11,11.87,2,2
17339.0,-0.9,0.147,0.351,2.69,3.45,16.72,2,2
17339.015,-0.915,0.163,0.31,8.06,1.68,17.91,2,2
17339.031,-0.918,0.205,0.263,5.83,-2.23,16.17,2,2
17339.046,-0.911,0.222,0.226,-3.51,-5.74,12.48,2,2
17339.046,-0.895,0.19,0.229,-16.33,-5.4,9.8,2,2
17339.062,-0.845,0.141,0.272,-26.49,-0.4,10.9,2,2
17339.062,-0.812,0.106,0.323,-26.58,7.69,14.13,2,2
17339.078,-0.784,0.083,0.354,-15.96,16.14,18.04,2,2
17339.093,-0.791,0.104,0.369,-1.89,21.64,20.87,2,2
17339.093,-0.808,0.148,0.351,8.51,21.36,21.33,2,2
17339.109,-0.842,0.185,0.314,10.19,15.69,18.83,2,2
17339.109,-0.877,0.201,0.278,3.85,6.53,14.47,2,2
17339.125,-0.905,0.198,0.246,-5.58,-3.05,8.39,2,2
17339.14,-0.903,0.191,0.229,-14.47,-10.35,3.02,2,2
17339.14,-0.87,0.187,0.229,-19.2,-13.73,-0.21,2,2
17339.156,-0.791,0.192,0.223,-18.34,-13.92,-1.43,2,2
17339.171,-0.731,0.208,0.2,-13.92,-10.56,-1.22,2,2
17339.187,-0.734,0.233,0.167,-8.67,-5.43,-0.4,2,2
17339.187,-0.789,0.236,0.142,-4.76,-0.82,0.58,2,2
17339.203,-0.843,0.211,0.152,-2.72,5.1,2.59,2,2
17339.203,-0.894,0.189,0.178,-1.22,12.63,5.13,2,2
17339.218,-0.907,0.177,0.211,-0.15,19.93,7.63,2,2
17339.218,-0.874,0.165,0.249,0.7,27.83,10.28,2,2
17339.234,-0.847,0.155,0.277,2.96,36.1,12.79,2,2
17339.25,-0.83,0.152,0.298,5.95,42.3,15.17,2,2
17339.25,-0.842,0.16,0.313,8.91,45.05,15.81,2,2
17339.265,-0.881,0.177,0.311,10.56,43.95,13.4,2,2
17339.281,-0.929,0.186,0.302,8.12,39.28,8.7,2,2
17339.281,-0.954,0.188,0.3,1.5,33.42,4.09,2,2
17339.296,-0.988,0.194,0.285,-6.53,26.76,-0.4,2,2
17339.312,-0.978,0.18,0.278,-13.43,20.57,-3.88,2,2
17339.312,-0.943,0.17,0.277,-17.91,16.3,-7.39,2,2
17339.328,-0.928,0.182,0.265,-20.29,13.82,-11.29,2,2
17339.343,-0.927,0.185,0.258,-21.85,13.06,-14.71,2,2
17339.343,-0.937,0.188,0.255,-21.61,14.4,-17.12,2,2
17339.359,-0.973,0.203,0.254,-19.96,16.91,-18.37,2,2
17339.359,-1.014,0.212,0.273,-18.28,19.84,-17.46,2,2
17339.375,-1.028,0.207,0.303,-17.15,22.0,-13.34,2,2
17339.39,-1.007,0.206,0.333,-14.4,23.65,-6.38,2,2
17339.39,-0.983,0.204,0.337,-8.94,23.5,1.56,2,2
17339.406,-0.964,0.19,0.329,-3.08,22.61,8.67,2,2
17339.421,-0.96,0.191,0.315,1.34,21.61,13.79,2,2
17339.421,-0.98,0.197,0.303,3.81,19.84,15.14,2,2
17339.437,-0.994,0.21,0.294,3.17,16.45,13.03,2,2
17339.453,-0.999,0.23,0.287,-0.55,12.09,9.0,2,2
17339.453,-0.996,0.238,0.288,-6.87,6.53,4.76,2,2
17339.468,-0.98,0.229,0.286,-14.25,-0.18,1.92,2,2
17339.468,-0.96,0.218,0.268,-19.44,-6.13,0.37,2,2
17339.484,-0.947,0.212,0.243,-21.42,-10.07,-0.4,2,2
17339.5,-0.942,0.208,0.221,-22.49,-11.96,-0.89,2,2
17339.5,-0.951,0.197,0.218,-22.13,-10.5,-1.28,2,2
17339.515,-0.959,0.192,0.216,-19.04,-6.56,-0.79,2,2
17339.531,-0.974,0.193,0.222,-15.32,-1.4,0.7,2,2
17339.546,-0.967,0.186,0.234,-12.48,3.78,3.11,2,2
17339.546,-0.962,0.17,0.245,-9.8,8.45,6.41,2,2
17339.562,-0.967,0.161,0.258,-6.32,11.72,9.8,2,2
17339.562,-0.966,0.16,0.263,-2.81,12.76,12.24,2,2
17339.578,-0.967,0.17,0.265,-0.89,12.51,13.79,2,2
17339.593,-0.973,0.178,0.267,-1.07,11.08,14.5,2,2
17339.593,-0.97,0.178,0.269,-2.41,8.48,14.16,2,2
17339.609,-0.968,0.174,0.27,-4.55,5.68,12.76,2,2
17339.609,-0.961,0.168,0.261,-6.38,2.9,10.47,2,2
17339.625,-0.949,0.175,0.246,-8.64,0.52,7.84,2,2
17339.64,-0.942,0.182,0.237,-10.86,-1.68,5.07,2,2
17339.64,-0.929,0.183,0.235,-11.66,-4.27,2.96,2,2
17339.656,-0.913,0.184,0.231,-10.59,-6.81,1.74,2,2
17339.671,-0.894,0.18,0.224,-6.96,-8.36,1.65,2,2
17339.671,-0.876,0.187,0.22,-1.25,-8.73,2.78,2,2
17339.687,-0.855,0.206,0.211,5.07,-7.72,4.82,2,2
17339.703,-0.838,0.229,0.204,12.51,-3.39,10.71,2,2
17339.703,-0.839,0.232,0.191,15.32,0.21,13.58,2,2
17339.718,-0.846,0.213,0.187,17.76,4.36,16.24,2,2
17339.718,-0.857,0.204,0.2,19.2,7.66,18.4,2,2
17339.734,-0.883,0.178,0.207,19.32,11.02,18.65,2,2
17339.75,-0.91,0.171,0.211,18.28,14.89,17.49,2,2
17339.765,-0.924,0.175,0.221,15.81,19.07,14.89,2,2
17339.765,-0.93,0.186,0.234,11.57,21.3,11.44,2,2
17339.781,-0.937,0.193,0.244,6.26,20.75,8.42,2,2
17339.781,-0.938,0.194,0.254,1.1,18.13,6.44,2,2
17339.796,-0.932,0.204,0.26,-3.14,14.1,5.31,2,2
17339.812,-0.93,0.201,0.258,-5.52,10.04,4.61,2,2
17339.812,-0.933,0.202,0.253,-5.95,6.1,3.54,2,2
17339.828,-0.929,0.209,0.243,-5.28,2.44,2.26,2,2
17339.843,-0.925,0.208,0.231,-5.25,-0.64,1.01,2,2
17339.843,-0.922,0.204,0.223,-5.58,-1.95,-0.15,2,2
17339.859,-0.919,0.192,0.219,-5.8,-1.43,-0.73,2,2
17339.859,-0.917,0.18,0.221,-5.22,0.7,-0.92,2,2
17339.875,-0.927,0.18,0.221,-3.63,3.48,-1.13,2,2
17339.89,-0.94,0.186,0.223,-1.92,5.74,-1.43,2,2
17339.89,-0.949,0.189,0.227,-0.82,7.02,-1.53,2,2
17339.906,-0.96,0.196,0.227,-0.21,8.06,-1.68,2,2
17339.921,-0.97,0.214,0.229,-0.61,7.97,-1.95,2,2
17339.921,-0.968,0.227,0.23,-2.23,6.68,-1.68,2,2
17339.937,-0.968,0.234,0.23,-3.88,5.1,-1.37,2,2
17339.953,-0.967,0.246,0.227,-4.97,3.27,-0.67,2,2
17339.953,-0.967,0.243,0.225,-5.4,2.08,0.15,2,2
17339.968,-0.969,0.239,0.223,-4.67,1.62,1.34,2,2
17339.968,-0.966,0.238,0.216,-2.96,1.62,2.56,2,2
17339.984,-0.958,0.233,0.209,-0.58,2.93,3.88,2,2
17340.0,-0.948,0.224,0.206,1.62,5.04,5.16,2,2
17340.0,-0.946,0.219,0.204,3.81,7.97,6.26,2,2
17340.015,-0.952,0.225,0.208,5.43,10.44,6.99,2,2
17340.031,-0.954,0.236,0.211,5.65,11.32,7.14,2,2
17340.031,-0.96,0.243,0.213,4.7,10.74,6.99,2,2
17340.046,-0.968,0.253,0.216,2.93,8.82,6.32,2,2
17340.062,-0.961,0.26,0.219,1.28,5.58,4.73,2,2
17340.062,-0.95,0.253,0.218,-0.09,2.01,2.87,2,2
17340.078,-0.935,0.245,0.214,-1.25,-1.28,0.92,2,2
17340.093,-0.926,0.244,0.202,-1.92,-3.48,-1.19,2,2
17340.093,-0.928,0.247,0.194,-3.02,-4.3,-2.9,2,2
17340.109,-0.925,0.251,0.191,-3.66,-4.46,-3.85,2,2
17340.109,-0.929,0.247,0.181,-3.14,-3.33,-4.15,2,2
17340.125,-0.936,0.25,0.175,-2.93,-2.04,-4.39,2,2
17340.14,-0.939,0.254,0.167,-2.59,-0.85,-4.88,2,2
17340.14,-0.938,0.251,0.157,-2.69,0.67,-4.88,2,2
17340.156,-0.942,0.254,0.155,-3.63,3.36,-4.18,2,2
17340.171,-0.944,0.261,0.16,-4.3,6.5,-3.02,2,2
17340.187,-0.944,0.261,0.164,-3.63,9.77,-1.65,2,2
17340.187,-0.948,0.259,0.172,-2.44,12.82,-0.37,2,2
17340.203,-0.953,0.259,0.181,-0.7,14.53,0.58,2,2
17340.203,-0.956,0.261,0.186,1.19,15.5,1.25,2,2
17340.218,-0.953,0.264,0.185,1.8,15.72,2.62,2,2
17340.218,-0.946,0.255,0.19,1.68,15.66,4.55,2,2
17340.234,-0.947,0.249,0.194,2.17,16.21,6.59,2,2
17340.25,-0.948,0.25,0.194,3.2,16.94,8.64,2,2
17340.25,-0.95,0.26,0.201,4.06,17.3,10.99,2,2
17340.265,-0.959,0.269,0.2,4.21,16.69,13.46,2,2
17340.281,-0.96,0.269,0.197,4.12,14.83,16.42,2,2
17340.296,-0.958,0.271,0.192,4.73,12.79,18.98,2,2
17340.296,-0.953,0.279,0.18,5.31,10.9,21.03,2,2
17340.312,-0.953,0.27,0.171,5.62,9.92,23.44,2,2
17340.312,-0.962,0.273,0.159,6.04,10.16,26.31,2,2
17340.328,-0.966,0.281,0.14,6.01,11.41,29.76,2,2
17340.343,-0.959,0.291,0.133,5.43,13.79,32.99,2,2
17340.343,-0.958,0.305,0.131,4.52,17.18,35.98,2,2
17340.359,-0.95,0.307,0.129,3.3,20.08,38.79,2,2
17340.359,-0.934,0.3,0.138,2.66,22.31,41.17,2,2
17340.375,-0.925,0.302,0.147,2.9,24.54,42.57,2,2
17340.39,-0.92,0.316,0.16,2.75,25.91,42.54,2,2
17340.39,-0.919,0.322,0.177,2.08,25.88,41.29,2,2
17340.406,-0.927,0.318,0.178,1.4,24.2,39.49,2,2
17340.421,-0.928,0.315,0.175,0.03,21.24,37.48,2,2
17340.421,-0.921,0.308,0.176,-0.76,17.49,34.97,2,2
17340.437,-0.912,0.305,0.164,-1.1,13.55,31.68,2,2
17340.437,-0.908,0.311,0.151,-2.2,9.22,27.31,2,2
17340.453,-0.906,0.313,0.131,-4.39,4.58,21.52,2,2
17340.468,-0.892,0.31,0.117,-7.9,0.4,15.35,2,2
17340.468,-0.887,0.309,0.108,-11.93,-2.08,9.37,2,2
17340.484,-0.884,0.298,0.104,-15.17,-3.08,4.52,2,2
17340.5,-0.882,0.289,0.099,-16.33,-2.59,0.52,2,2
17340.5,-0.89,0.295,0.098,-16.57,-1.31,-2.01,2,2
17340.515,-0.898,0.298,0.1,-15.56,0.0,-2.62,2,2
17340.531,-0.911,0.307,0.1,-13.34,1.34,-1.8,2,2
17340.531,-0.916,0.324,0.094,-10.5,2.14,-1.01,2,2
17340.546,-0.917,0.343,0.091,-9.19,2.87,-1.53,2,2
17340.562,-0.919,0.34,0.101,-9.4,4.27,-2.5,2,2
17340.562,-0.927,0.33,0.115,-9.37,6.2,-3.39,2,2
17340.578,-0.934,0.325,0.133,-8.15,8.0,-3.88,2,2
17340.578,-0.951,0.319,0.151,-5.98,9.16,-4.21,2,2
17340.593,-0.97,0.317,0.17,-4.21,8.64,-4.12,2,2
17340.609,-0.995,0.32,0.196,-2.38,6.04,-4.03,2,2
17340.625,-1.012,0.308,0.216,-0.52,1.28,-3.6,2,2
17340.625,-1.011,0.305,0.221,0.76,-5.98,-2.56,2,2
17340.64,-0.997,0.306,0.218,1.92,-14.37,-0.92,2,2
17340.64,-0.977,0.294,0.21,3.91,-21.79,1.8,2,2
17340.656,-0.96,0.286,0.197,6.87,-27.38,5.22,2,2
17340.671,-0.928,0.283,0.163,10.47,-31.28,7.9,2,2
17340.671,-0.896,0.28,0.12,13.98,-32.69,8.79,2,2
17340.687,-0.877,0.278,0.089,17.27,-29.33,4.09,2,2
17340.703,-0.871,0.293,0.07,16.54,-25.97,-1.04,2,2
17340.703,-0.874,0.307,0.052,13.86,-21.67,-7.35,2,2
17340.718,-0.875,0.33,0.054,10.1,-16.94,-13.52,2,2
17340.734,-0.874,0.337,0.071,6.81,-12.45,-18.77,2,2
17340.734,-0.872,0.341,0.085,5.01,-8.67,-22.71,2,2
17340.75,-0.864,0.343,0.097,4.55,-6.23,-25.27,2,2
17340.75,-0.862,0.346,0.103,5.04,-4.24,-26.73,2,2
17340.765,-0.874,0.352,0.106,4.7,-2.93,-26.61,2,2
17340.781,-0.898,0.354,0.114,4.21,-1.53,-24.66,2,2
17340.781,-0.914,0.341,0.124,5.25,0.24,-20.48,2,2
17340.796,-0.925,0.326,0.131,8.64,3.2,-14.62,2,2
17340.812,-0.93,0.321,0.135,14.04,6.62,-8.58,2,2
17340.812,-0.931,0.317,0.13,19.99,9.55,-3.72,2,2
17340.828,-0.92,0.316,0.124,25.09,12.18,-0.82,2,2
17340.843,-0.922,0.311,0.119,27.71,14.04,0.7,2,2
17340.843,-0.939,0.312,0.121,28.78,14.77,0.46,2,2
17340.859,-0.947,0.318,0.122,27.34,14.47,-1.22,2,2
17340.859,-0.952,0.326,0.129,23.44,13.18,-4.61,2,2
17340.875,-0.954,0.329,0.132,19.38,11.08,-8.91,2,2
17340.89,-0.954,0.329,0.135,16.75,8.42,-12.79,2,2
17340.89,-0.957,0.344,0.137,15.05,5.95,-15.29,2,2
17340.906,-0.962,0.346,0.136,14.4,3.33,-16.05,2,2
17340.921,-0.969,0.341,0.128,15.56,0.43,-15.29,2,2
17340.937,-0.977,0.354,0.114,17.12,-2.23,-14.25,2,2
17340.937,-0.985,0.368,0.102,17.06,-3.6,-13.34,2,2
17340.953,-0.996,0.381,0.091,15.84,-3.72,-12.79,2,2
17340.953,-1.001,0.375,0.086,14.77,-3.02,-11.93,2,2
17340.968,-1.0,0.365,0.083,14.5,-1.77,-10.35,2,2
17340.984,-0.991,0.355,0.075,14.95,-0.12,-8.27,2,2
17340.984,-0.979,0.342,0.072,16.11,1.65,-4.88,2,2
17341.0,-0.96,0.333,0.069,17.98,3.42,-1.46,2,2
17341.0,-0.95,0.325,0.065,19.56,5.49,1.77,2,2
17341.015,-0.938,0.31,0.073,20.75,8.45,4.67,2,2
17341.031,-0.929,0.297,0.082,22.19,11.78,6.62,2,2
17341.046,-0.891,0.303,0.088,23.19,13.49,6.96,2,2
17341.046,-0.875,0.323,0.074,22.77,12.57,3.6,2,2
17341.062,-0.888,0.3,0.079,20.17,13.25,0.37,2,2
17341.062,-0.894,0.269,0.096,15.99,14.37,-0.55,2,2
17341.078,-0.909,0.224,0.107,15.44,17.7,2.35,2,2
17341.078,-0.914,0.19,0.123,19.07,22.46,8.12,2,2
17341.093,-0.907,0.19,0.139,25.54,27.1,14.16,2,2
17341.109,-0.893,0.192,0.153,33.6,30.82,20.02,2,2
17341.109,-0.884,0.188,0.145,42.88,32.78,25.15,2,2
17341.125,-0.871,0.211,0.134,49.81,32.41,28.32,2,2
17341.14,-0.855,0.233,0.12,53.25,29.73,29.36,2,2
17341.14,-0.843,0.259,0.101,52.86,25.15,27.25,2,2
17341.156,-0.831,0.272,0.082,49.65,19.84,22.43,2,2
17341.171,-0.832,0.261,0.068,46.05,15.38,15.81,2,2
17341.171,-0.843,0.252,0.055,42.7,11.96,8.27,2,2
17341.187,-0.853,0.257,0.049,38.73,9.16,-0.34,2,2
17341.203,-0.87,0.261,0.043,34.64,7.54,-9.22,2,2
17341.203,-0.886,0.268,0.042,30.21,7.14,-16.36,2,2
17341.218,-0.899,0.272,0.05,25.67,6.99,-20.54,2,2
17341.218,-0.913,0.282,0.06,22.92,6.29,-22.25,2,2
17341.234,-0.927,0.302,0.073,22.34,4.94,-22.31,2,2
17341.25,-0.938,0.318,0.082,24.72,2.32,-21.85,2,2
17341.265,-0.947,0.326,0.07,28.14,-0.64,-20.66,2,2
17341.265,-0.938,0.354,0.064,28.9,-3.85,-18.71,2,2
17341.281,-0.925,0.363,0.062,29.15,-6.2,-15.66,2,2
17341.281,-0.909,0.363,0.06,28.9,-8.15,-11.32,2,2
17341.296,-0.901,0.36,0.056,28.6,-9.86,-6.65,2,2
17341.312,-0.908,0.36,0.038,27.83,-11.47,-3.14,2,2
17341.312,-0.921,0.345,0.027,26.28,-11.81,-0.12,2,2
17341.328,-0.942,0.327,0.021,24.96,-11.02,2.32,2,2
17341.343,-0.951,0.329,0.017,23.68,-9.7,4.15,2,2
17341.343,-0.942,0.326,0.016,21.94,-8.15,6.01,2,2
17341.359,-0.924,0.333,0.014,20.26,-6.53,7.39,2,2
17341.359,-0.912,0.332,0.015,18.86,-5.1,8.91,2,2
17341.375,-0.912,0.332,0.015,17.76,-4.46,9.77,2,2
17341.39,-0.913,0.333,0.014,17.27,-4.03,9.61,2,2
17341.39,-0.916,0.333,0.016,16.14,-3.69,9.0,2,2
17341.406,-0.904,0.338,0.021,14.37,-3.85,8.09,2,2
17341.421,-0.888,0.334,0.024,12.51,-3.88,7.45,2,2
17341.421,-0.879,0.319,0.028,11.47,-3.75,7.17,2,2
17341.437,-0.867,0.324,0.034,10.59,-3.33,6.68,2,2
17341.453,-0.863,0.332,0.035,9.31,-2.84,5.16,2,2
17341.453,-0.866,0.343,0.037,6.78,-2.81,2.01,2,2
17341.468,-0.884,0.357,0.037,2.87,-3.42,-1.34,2,2
17341.468,-0.897,0.36,0.044,-2.11,-4.24,-3.2,2,2
17341.484,-0.905,0.362,0.049,-6.04,-5.43,-3.72,2,2
17341.5,-0.911,0.36,0.051,-8.24,-6.32,-2.99,2,2
17341.5,-0.912,0.359,0.052,-10.28,-6.38,-0.95,2,2
17341.515,-0.917,0.351,0.047,-11.69,-5.52,1.77,2,2
17341.531,-0.914,0.348,0.038,-12.36,-4.49,4.7,2,2
17341.531,-0.917,0.344,0.03,-12.82,-3.33,7.57,2,2
17341.546,-0.924,0.331,0.027,-12.88,-2.23,9.95,2,2
17341.562,-0.931,0.328,0.019,-12.67,-1.46,10.71,2,2
17341.562,-0.935,0.325,0.008,-12.63,-0.98,9.46,2,2
17341.578,-0.932,0.33,0.005,-13.76,-0.89,6.62,2,2
17341.593,-0.924,0.332,0.0,-14.86,-1.04,3.11,2,2
17341.593,-0.92,0.329,-0.007,-15.69,-0.52,-0.03,2,2
17341.609,-0.925,0.338,-0.013,-17.37,0.73,-1.77,2,2
17341.609,-0.933,0.338,-0.01,-18.59,1.8,-2.17,2,2
17341.625,-0.939,0.327,-0.003,-17.79,2.87,-1.71,2,2
17341.64,-0.939,0.319,0.001,-15.47,4.09,-0.52,2,2
17341.64,-0.939,0.313,-0.001,-12.88,5.13,0.92,2,2
17341.656,-0.94,0.32,-0.005,-10.71,5.37,2.41,2,2
17341.671,-0.94,0.329,-0.013,-8.94,5.34,5.13,2,2
17341.671,-0.945,0.325,-0.015,-8.0,5.4,4.82,2,2
17341.687,-0.948,0.323,-0.015,-7.08,5.28,3.02,2,2
17341.687,-0.95,0.321,-0.016,-6.93,5.19,0.67,2,2
17341.703,-0.947,0.328,-0.005,-6.62,4.36,-1.56,2,2
17341.718,-0.948,0.337,-0.003,-6.9,2.47,-3.75,2,2
17341.734,-0.954,0.342,0.004,-7.97,0.27,-5.95,2,2
17341.734,-0.95,0.344,0.008,-9.4,-2.29,-7.39,2,2
17341.75,-0.95,0.343,0.017,-10.1,-3.91,-7.6,2,2
17341.75,-0.945,0.347,0.024,-10.28,-4.79,-6.62,2,2
17341.765,-0.931,0.364,0.025,-10.38,-5.52,-5.37,2,2
17341.781,-0.914,0.37,0.034,-10.77,-6.32,-4.46,2,2
17341.781,-0.911,0.362,0.047,-11.14,-6.53,-3.05,2,2
17341.796,-0.903,0.356,0.052,-10.56,-7.54,-1.07,2,2
17341.812,-0.9,0.353,0.05,-9.64,-9.09,0.37,2,2
17341.812,-0.907,0.343,0.046,-9.7,-10.68,1.22,2,2
17341.828,-0.912,0.331,0.041,-10.53,-11.69,2.56,2,2
17341.843,-0.912,0.323,0.034,-11.32,-11.9,4.76,2,2
17341.843,-0.909,0.317,0.023,-11.78,-11.11,6.59,2,2
17341.859,-0.904,0.312,0.018,-11.9,-9.58,7.14,2,2
17341.859,-0.897,0.306,0.016,-11.69,-7.6,6.53,2,2
17341.875,-0.895,0.312,0.01,-11.02,-5.68,4.82,2,2
17341.89,-0.895,0.321,0.005,-10.74,-4.09,2.5,2,2
17341.89,-0.902,0.326,0.008,-11.44,-2.72,0.34,2,2
17341.906,-0.915,0.324,0.01,-12.21,-2.01,-1.01,2,2
17341.921,-0.919,0.313,0.02,-12.24,-1.4,-0.79,2,2
17341.921,-0.92,0.317,0.021,-11.02,-1.1,0.21,2,2
17341.937,-0.921,0.326,0.019,-9.13,-1.25,1.4,2,2
17341.953,-0.919,0.321,0.021,-7.57,-0.95,3.42,2,2
17341.953,-0.917,0.316,0.02,-5.92,-0.34,6.07,2,2
17341.968,-0.914,0.322,0.008,-3.97,-0.27,7.78,2,2
17341.984,-0.914,0.329,-0.003,-2.5,-0.82,7.69,2,2
17341.984,-0.915,0.335,-0.012,-2.5,-1.04,5.95,2,2
17342.0,-0.926,0.323,-0.018,-2.59,-0.06,3.72,2,2
17342.0,-0.935,0.321,-0.021,-2.5,1.59,1.59,2,2
17342.015,-0.938,0.331,-0.016,-2.59,3.17,-1.5,2,2
17342.031,-0.945,0.337,-0.007,-3.2,4.67,-4.33,2,2
17342.031,-0.954,0.34,0.006,-3.75,5.65,-5.46,2,2
17342.046,-0.957,0.342,0.017,-3.27,5.77,-4.24,2,2
17342.062,-0.954,0.344,0.026,-1.92,4.97,-2.04,2,2
17342.062,-0.948,0.348,0.026,-0.31,3.63,0.15,2,2
17342.078,-0.942,0.346,0.026,1.4,2.44,1.77,2,2
17342.078,-0.932,0.349,0.024,2.56,1.1,2.38,2,2
17342.093,-0.923,0.353,0.021,2.66,-0.15,2.2,2,2
17342.109,-0.912,0.356,0.022,1.77,-1.65,1.71,2,2
17342.109,-0.909,0.344,0.024,1.22,-3.2,1.22,2,2
17342.125,-0.914,0.332,0.021,1.28,-4.64,0.92,2,2
17342.14,-0.921,0.331,0.017,2.04,-5.74,0.34,2,2
17342.14,-0.922,0.333,0.009,2.35,-6.16,-0.67,2,2
17342.156,-0.923,0.33,0.0,1.68,-5.92,-1.65,2,2
17342.171,-0.921,0.334,0.001,0.58,-4.49,-1.83,2,2
17342.171,-0.912,0.341,0.003,-0.09,-3.11,-1.59,2,2
17342.187,-0.906,0.338,0.006,0.24,-1.59,-1.43,2,2
17342.203,-0.905,0.339,0.008,0.98,-0.43,-1.16,2,2
17342.203,-0.906,0.338,0.016,1.77,0.31,-0.79,2,2
17342.218,-0.917,0.337,0.017,2.93,0.7,-0.37,2,2
17342.218,-0.924,0.34,0.018,3.36,0.73,0.0,2,2
17342.234,-0.928,0.336,0.023,2.93,0.79,0.06,2,2
17342.25,-0.928,0.331,0.029,2.69,0.67,0.03,2,2
17342.25,-0.919,0.33,0.036,2.75,0.12,-0.49,2,2
17342.265,-0.91,0.33,0.04,2.78,-0.37,-1.28,2,2
17342.281,-0.912,0.332,0.038,2.41,-1.04,-2.32,2,2
17342.281,-0.918,0.333,0.037,1.77,-1.86,-3.2,2,2
17342.296,-0.931,0.332,0.033,1.04,-2.99,-3.97,2,2
17342.312,-0.944,0.336,0.027,0.15,-4.12,-4.43,2,2
17342.312,-0.949,0.336,0.023,-1.13,-4.88,-4.24,2,2
17342.328,-0.948,0.33,0.026,-1.56,-4.82,-3.14,2,2
17342.328,-0.938,0.331,0.026,-0.79,-4.36,-1.5,2,2
17342.343,-0.925,0.331,0.027,0.82,-3.6,0.12,2,2
17342.359,-0.918,0.335,0.025,2.11,-2.96,1.19,2,2
17342.359,-0.917,0.337,0.022,2.2,-2.81,1.22,2,2
17342.375,-0.919,0.329,0.023,1.53,-2.75,1.1,2,2
17342.39,-0.921,0.322,0.028,0.64,-2.59,1.01,2,2
17342.39,-0.918,0.313,0.028,0.58,-2.26,0.89,2,2
17342.406,-0.913,0.313,0.026,0.85,-2.38,0.12,2,2
17342.421,-0.911,0.309,0.026,0.82,-2.47,-0.73,2,2
17342.421,-0.908,0.304,0.028,0.7,-2.23,-1.07,2,2
17342.437,-0.909,0.316,0.019,0.49,-1.92,-1.74,2,2
17342.437,-0.91,0.325,0.013,-0.4,-1.71,-2.62,2,2
17342.453,-0.915,0.328,0.016,-1.53,-1.22,-3.42,2,2
17342.468,-0.915,0.329,0.018,-1.83,-0.34,-3.94,2,2
17342.468,-0.923,0.332,0.017,-1.5,0.43,-4.3,2,2
17342.484,-0.93,0.331,0.018,-1.04,1.01,-4.3,2,2
17342.5,-0.935,0.332,0.023,-0.67,1.34,-4.24,2,2
17342.515,-0.937,0.32,0.032,-0.37,1.62,-3.51,2,2
17342.515,-0.938,0.316,0.036,0.09,1.65,-2.53,2,2
17342.531,-0.932,0.321,0.035,0.46,0.98,-2.26,2,2
17342.531,-0.929,0.324,0.037,-0.18,-0.03,-2.44,2,2
17342.546,-0.927,0.327,0.036,-1.4,-1.68,-3.14,2,2
17342.562,-0.923,0.322,0.034,-2.5,-3.63,-3.66,2,2
17342.562,-0.923,0.316,0.03,-3.36,-5.34,-4.03,2,2
17342.578,-0.924,0.312,0.027,-4.12,-6.13,-3.75,2,2
17342.578,-0.928,0.299,0.021,-4.55,-5.89,-2.72,2,2
17342.593,-0.93,0.298,0.017,-4.58,-4.52,-1.28,2,2
17342.609,-0.928,0.307,0.013,-4.06,-2.96,-0.58,2,2
17342.609,-0.923,0.31,0.014,-3.81,-1.43,-0.76,2,2
17342.625,-0.922,0.31,0.019,-4.46,-0.21,-1.92,2,2
17342.64,-0.917,0.311,0.026,-4.73,0.7,-2.96,2,2
17342.64,-0.914,0.307,0.031,-3.91,1.59,-2.66,2,2
17342.656,-0.91,0.311,0.033,-1.71,1.28,-1.37,2,2
17342.671,-0.912,0.312,0.036,-0.89,0.89,-0.4,2,2
17342.671,-0.917,0.309,0.035,-0.37,0.4,0.18,2,2
17342.687,-0.925,0.322,0.031,-0.34,0.15,0.03,2,2
17342.703,-0.926,0.325,0.029,-1.04,-0.15,-0.43,2,2
17342.703,-0.928,0.325,0.026,-1.86,-0.4,-1.13,2,2
17342.718,-0.931,0.319,0.026,-2.32,-0.49,-0.95,2,2
17342.718,-0.933,0.313,0.032,-1.71,-0.18,0.03,2,2
17342.734,-0.936,0.313,0.028,-0.49,0.31,1.04,2,2
17342.75,-0.938,0.318,0.025,0.15,0.64,1.71,2,2
17342.75,-0.932,0.318,0.025,0.4,1.22,2.26,2,2
17342.765,-0.928,0.311,0.03,0.64,1.68,3.05,2,2
17342.781,-0.924,0.31,0.032,0.95,1.34,3.3,2,2
17342.781,-0.923,0.31,0.032,1.04,0.64,3.05,2,2
17342.796,-0.926,0.313,0.027,0.4,0.0,2.41,2,2
17342.812,-0.93,0.314,0.028,-0.4,-0.49,1.4,2,2
17342.812,-0.933,0.312,0.031,-0.82,-0.76,0.43,2,2
17342.828,-0.932,0.314,0.032,-1.28,-1.01,-0.55,2,2
17342.828,-0.927,0.315,0.04,-1.8,-1.1,-1.28,2,2
17342.843,-0.919,0.319,0.043,-1.95,-1.53,-1.01,2,2
17342.859,-0.911,0.318,0.046,-1.71,-2.04,0.12,2,2
17342.859,-0.906,0.318,0.045,-1.07,-2.84,1.74,2,2
