timestamp,ax,ay,az,gx,gy,gz,orient_label,motion_label
17321.609,-0.86,0.314,0.29,-4.58,1.46,18.95,2,2
17321.609,-0.852,0.316,0.291,-3.94,1.77,18.07,2,2
17321.625,-0.845,0.312,0.292,-4.24,1.71,17.4,2,2
17321.64,-0.845,0.301,0.297,-4.94,1.56,17.24,2,2
17321.64,-0.846,0.286,0.301,-4.79,1.46,17.0,2,2
17321.656,-0.847,0.275,0.304,-3.81,1.28,15.96,2,2
17321.671,-0.851,0.269,0.301,-2.38,0.85,14.07,2,2
17321.671,-0.864,0.274,0.293,-1.46,0.49,11.69,2,2
17321.687,-0.866,0.283,0.282,-2.32,0.18,9.52,2,2
17321.703,-0.87,0.279,0.282,-3.78,0.76,7.17,2,2
17321.703,-0.874,0.27,0.292,-4.67,1.56,4.39,2,2
17321.718,-0.873,0.266,0.3,-3.72,2.26,1.83,2,2
17321.718,-0.866,0.279,0.303,-1.71,2.87,-0.18,2,2
17321.734,-0.861,0.299,0.301,-0.27,3.02,-1.71,2,2
17321.75,-0.862,0.307,0.303,-0.4,2.69,-2.44,2,2
17321.765,-0.869,0.32,0.304,-1.31,1.65,-2.93,2,2
17321.765,-0.878,0.326,0.304,-2.32,0.46,-3.48,2,2
17321.781,-0.873,0.324,0.299,-2.38,-0.7,-1.98,2,2
17321.796,-0.863,0.324,0.299,-1.65,-0.31,-0.76,2,2
17321.796,-0.857,0.319,0.297,-0.92,0.76,0.24,2,2
17321.812,-0.851,0.319,0.296,0.0,2.14,1.22,2,2
17321.828,-0.853,0.319,0.294,0.85,3.3,1.77,2,2
17321.828,-0.86,0.326,0.294,0.98,3.75,1.1,2,2
17321.843,-0.867,0.33,0.292,0.03,3.42,-0.46,2,2
17321.859,-0.879,0.328,0.294,-1.53,3.45,-1.56,2,2
17321.859,-0.882,0.329,0.296,-2.75,3.42,-1.98,2,2
17321.875,-0.887,0.323,0.3,-3.27,3.2,-2.72,2,2
17321.89,-0.892,0.318,0.305,-3.17,2.69,-3.08,2,2
17321.89,-0.89,0.321,0.308,-2.53,2.04,-2.56,2,2
17321.906,-0.887,0.325,0.304,-1.98,1.37,-1.59,2,2
17321.921,-0.887,0.328,0.3,-1.98,0.55,-0.82,2,2
17321.921,-0.886,0.334,0.297,-3.05,-0.18,0.46,2,2
17321.937,-0.882,0.338,0.29,-4.39,-0.31,2.32,2,2
17321.953,-0.882,0.328,0.289,-4.18,1.07,4.79,2,2
17321.968,-0.881,0.33,0.29,-3.36,2.11,5.49,2,2
17321.968,-0.879,0.332,0.294,-2.44,3.39,6.13,2,2
17321.984,-0.876,0.336,0.296,-1.95,4.3,6.44,2,2
17322.0,-0.872,0.338,0.3,-3.17,4.46,6.53,2,2
17322.015,-0.869,0.34,0.303,-4.7,3.75,5.98,2,2
17322.015,-0.869,0.343,0.304,-6.78,2.78,5.62,2,2
17322.031,-0.876,0.335,0.297,-8.58,2.26,5.55,2,2
17322.031,-0.875,0.329,0.291,-9.31,1.95,5.68,2,2
17322.046,-0.875,0.325,0.29,-9.64,2.32,5.83,2,2
17322.062,-0.87,0.323,0.288,-10.28,2.93,6.2,2,2
17322.062,-0.859,0.319,0.29,-10.35,3.69,7.23,2,2
17322.078,-0.844,0.317,0.289,-10.07,4.76,8.91,2,2
17322.093,-0.839,0.312,0.288,-9.64,5.74,10.35,2,2
17322.093,-0.843,0.31,0.284,-9.31,6.2,10.13,2,2
17322.109,-0.849,0.314,0.277,-9.22,5.83,8.76,2,2
17322.125,-0.85,0.33,0.267,-11.44,5.37,4.46,2,2
17322.14,-0.854,0.325,0.272,-13.12,5.71,2.26,2,2
17322.14,-0.856,0.318,0.281,-13.46,6.38,0.64,2,2
17322.156,-0.86,0.322,0.284,-11.87,7.02,0.27,2,2
17322.171,-0.865,0.334,0.283,-9.98,7.05,0.98,2,2
17322.171,-0.868,0.341,0.284,-8.91,6.65,2.69,2,2
17322.187,-0.867,0.344,0.283,-8.58,5.83,4.91,2,2
17322.203,-0.863,0.343,0.283,-8.18,5.25,7.39,2,2
17322.203,-0.856,0.345,0.281,-7.66,5.1,9.58,2,2
17322.218,-0.848,0.346,0.276,-7.51,5.31,11.57,2,2
17322.218,-0.833,0.345,0.28,-7.78,5.95,13.03,2,2
17322.234,-0.819,0.344,0.282,-7.84,6.87,13.89,2,2
17322.25,-0.81,0.339,0.284,-7.57,7.78,14.37,2,2
17322.265,-0.806,0.338,0.286,-7.08,8.18,14.31,2,2
17322.265,-0.805,0.336,0.284,-6.65,8.45,13.86,2,2
17322.281,-0.808,0.336,0.286,-6.74,8.82,13.06,2,2
17322.296,-0.812,0.345,0.29,-7.93,9.43,10.47,2,2
17322.312,-0.811,0.35,0.292,-9.06,9.74,9.22,2,2
17322.312,-0.806,0.353,0.297,-9.98,9.7,8.73,2,2
17322.328,-0.801,0.36,0.299,-10.62,9.74,9.03,2,2
17322.328,-0.807,0.362,0.295,-10.83,9.55,9.74,2,2
17322.343,-0.815,0.358,0.294,-11.14,8.85,10.28,2,2
17322.359,-0.821,0.351,0.297,-11.54,7.63,10.53,2,2
17322.359,-0.826,0.345,0.299,-11.9,6.04,11.14,2,2
17322.375,-0.822,0.347,0.306,-12.36,4.36,12.48,2,2
17322.39,-0.804,0.337,0.32,-12.3,3.05,14.19,2,2
17322.39,-0.787,0.328,0.332,-11.63,2.11,16.05,2,2
17322.406,-0.771,0.33,0.341,-10.59,1.04,17.76,2,2
17322.421,-0.743,0.342,0.347,-9.37,-0.46,18.62,2,2
17322.437,-0.713,0.35,0.35,-8.76,-2.84,18.83,2,2
17322.437,-0.692,0.353,0.353,-8.79,-5.8,19.41,2,2
17322.437,-0.674,0.362,0.354,-9.19,-9.43,20.69,2,2
17322.468,-0.638,0.36,0.364,-8.45,-16.21,23.83,2,2
17322.484,-0.626,0.354,0.378,-7.54,-18.74,26.4,2,2
17322.484,-0.626,0.347,0.388,-6.84,-20.72,29.48,2,2
17322.5,-0.618,0.341,0.393,-5.01,-22.28,33.17,2,2
17322.5,-0.608,0.338,0.4,-2.84,-24.14,36.38,2,2
17322.515,-0.599,0.35,0.391,-2.14,-27.16,38.73,2,2
17322.531,-0.594,0.369,0.38,-2.26,-32.01,39.4,2,2
17322.531,-0.589,0.385,0.364,-3.14,-37.6,38.12,2,2
17322.546,-0.585,0.391,0.361,-5.04,-43.12,35.52,2,2
17322.562,-0.598,0.39,0.36,-7.48,-47.4,32.26,2,2
17322.562,-0.609,0.384,0.361,-10.9,-49.75,29.24,2,2
17322.578,-0.604,0.378,0.371,-14.71,-50.26,27.22,2,2
17322.593,-0.592,0.379,0.392,-17.73,-48.65,26.67,2,2
17322.593,-0.569,0.379,0.419,-19.96,-45.5,28.72,2,2
17322.609,-0.548,0.374,0.445,-20.66,-41.93,35.31,2,2
17322.609,-0.539,0.373,0.468,-18.16,-39.7,45.9,2,2
17322.64,-0.551,0.441,0.498,-1.31,-45.08,67.17,2,2
17322.64,-0.554,0.483,0.498,8.61,-52.83,75.75,2,2
17322.656,-0.555,0.522,0.495,13.89,-63.69,81.12,2,2
17322.671,-0.537,0.539,0.493,15.05,-75.99,84.2,2,2
17322.671,-0.509,0.52,0.497,12.67,-86.7,88.17,2,2
17322.687,-0.478,0.463,0.491,11.14,-94.12,92.72,2,2
17322.703,-0.436,0.397,0.491,14.77,-97.75,94.91,2,2
17322.703,-0.377,0.354,0.504,23.96,-98.79,95.55,2,2
17322.718,-0.351,0.332,0.5,40.1,-97.6,93.66,2,2
17322.718,-0.348,0.358,0.482,59.05,-96.01,88.41,2,2
17322.734,-0.351,0.426,0.455,75.9,-94.97,81.58,2,2
17322.75,-0.356,0.515,0.421,86.49,-95.16,71.05,2,2
17322.75,-0.35,0.586,0.394,89.27,-96.65,57.65,2,2
17322.765,-0.36,0.618,0.375,85.36,-98.7,45.66,2,2
17322.781,-0.371,0.603,0.37,79.62,-100.19,36.5,2,2
17322.781,-0.36,0.568,0.395,74.43,-100.83,29.39,2,2
17322.812,-0.334,0.496,0.453,71.75,-100.68,17.46,2,2
17322.812,-0.334,0.466,0.446,73.37,-97.93,11.2,2,2
17322.828,-0.342,0.508,0.44,70.47,-92.53,3.14,2,2
17322.828,-0.391,0.596,0.448,59.69,-87.28,-6.2,2,2
17322.843,-0.444,0.68,0.454,38.51,-87.95,-18.31,2,2
17322.859,-0.464,0.763,0.465,6.59,-94.24,-31.46,2,2
17322.859,-0.483,0.806,0.483,-33.14,-104.28,-40.59,2,2
17322.875,-0.496,0.78,0.498,-74.56,-117.01,-42.51,2,2
17322.89,-0.483,0.687,0.537,-107.67,-128.67,-39.22,2,2
17322.89,-0.463,0.59,0.587,-127.35,-137.03,-33.42,2,2
17322.906,-0.454,0.523,0.645,-131.9,-140.02,-28.66,2,2
17322.921,-0.443,0.47,0.689,-124.82,-137.7,-27.31,2,2
17322.921,-0.458,0.42,0.729,-110.72,-133.3,-29.3,2,2
17322.937,-0.499,0.427,0.772,-93.08,-127.17,-31.5,2,2
17322.953,-0.528,0.508,0.8,-75.99,-116.58,-32.5,2,2
17322.953,-0.551,0.547,0.814,-61.68,-107.94,-33.75,2,2
17322.968,-0.565,0.533,0.85,-49.71,-102.24,-30.73,2,2
17322.968,-0.555,0.53,0.88,-21.42,-97.11,-18.68,2,2
17322.984,-0.535,0.496,0.881,-0.64,-95.43,-15.47,2,2
17323.0,-0.53,0.466,0.874,19.07,-92.01,-18.1,2,2
17323.0,-0.534,0.499,0.883,34.7,-91.31,-24.32,2,2
17323.015,-0.552,0.553,0.892,45.66,-91.89,-31.56,2,2
17323.031,-0.575,0.607,0.895,50.02,-94.09,-37.17,2,2
17323.031,-0.599,0.654,0.897,49.9,-98.91,-37.78,2,2
17323.046,-0.625,0.673,0.89,48.68,-105.87,-32.93,2,2
17323.062,-0.647,0.657,0.869,48.34,-115.94,-23.5,2,2
17323.062,-0.646,0.651,0.845,48.16,-125.95,-11.84,2,2
17323.078,-0.642,0.681,0.851,47.03,-130.07,-3.88,2,2
17323.078,-0.654,0.712,0.859,44.59,-133.7,-2.72,2,2
17323.093,-0.655,0.771,0.874,37.32,-135.93,-3.81,2,2
17323.109,-0.675,0.851,0.904,21.03,-136.3,-5.74,2,2
17323.109,-0.687,0.876,0.921,0.34,-137.46,-4.79,2,2
17323.14,-0.688,0.81,0.918,-39.74,-135.96,9.25,2,2
17323.156,-0.633,0.766,0.937,-56.25,-129.15,18.71,2,2
17323.156,-0.568,0.71,0.965,-67.93,-116.98,23.16,2,2
17323.171,-0.493,0.63,1.007,-73.89,-99.95,21.79,2,2
17323.171,-0.449,0.568,1.055,-71.08,-80.51,16.66,2,2
17323.187,-0.427,0.517,1.081,-59.36,-63.26,10.19,2,2
17323.187,-0.408,0.477,1.074,-43.92,-51.61,2.96,2,2
17323.203,-0.403,0.48,1.088,-27.44,-44.53,-5.1,2,2
17323.218,-0.407,0.497,1.084,-9.77,-42.76,-12.27,2,2
17323.234,-0.396,0.521,1.05,5.07,-44.25,-15.35,2,2
17323.234,-0.368,0.562,1.007,13.03,-45.32,-13.82,2,2
17323.25,-0.325,0.598,0.958,12.18,-45.47,-9.49,2,2
17323.25,-0.271,0.611,0.914,3.54,-43.76,-3.94,2,2
17323.265,-0.223,0.605,0.881,-9.16,-38.85,1.25,2,2
17323.281,-0.192,0.586,0.863,-21.73,-30.58,5.43,2,2
17323.281,-0.17,0.552,0.861,-30.7,-21.06,8.55,2,2
17323.312,-0.159,0.506,0.904,-29.48,-2.87,9.74,2,2
17323.312,-0.167,0.492,0.927,-20.81,3.75,8.21,2,2
17323.328,-0.194,0.495,0.953,-10.74,8.06,6.29,2,2
17323.343,-0.218,0.519,0.981,-0.61,8.36,3.81,2,2
17323.343,-0.224,0.556,0.983,7.32,4.67,0.34,2,2
17323.359,-0.213,0.593,0.95,10.19,-0.67,-3.72,2,2
17323.359,-0.186,0.627,0.913,7.63,-4.64,-6.16,2,2
17323.375,-0.153,0.64,0.882,3.11,-5.31,-5.43,2,2
17323.39,-0.132,0.643,0.856,-0.79,-2.93,-2.47,2,2
17323.406,-0.123,0.641,0.846,-3.91,1.59,2.5,2,2
17323.406,-0.126,0.631,0.851,-6.07,7.05,8.3,2,2
17323.421,-0.133,0.61,0.871,-6.32,11.6,14.13,2,2
17323.421,-0.144,0.587,0.882,-5.25,14.47,19.07,2,2
17323.437,-0.156,0.585,0.902,-7.6,14.04,22.55,2,2
17323.453,-0.147,0.573,0.931,-13.58,9.8,23.93,2,2
17323.453,-0.141,0.544,0.942,-17.94,4.7,23.83,2,2
17323.468,-0.093,0.48,0.916,-19.17,-3.75,24.23,2,2
17323.484,-0.067,0.459,0.897,-16.36,-3.54,23.29,2,2
17323.5,-0.08,0.452,0.889,-13.76,-1.31,20.94,2,2
17323.5,-0.084,0.442,0.884,-11.47,-0.89,18.04,2,2
17323.515,-0.078,0.444,0.865,-9.64,-1.68,14.59,2,2
17323.531,-0.074,0.455,0.84,-9.37,-2.75,10.04,2,2
17323.531,-0.065,0.451,0.817,-8.3,-2.29,6.16,2,2
17323.546,-0.067,0.454,0.805,-5.13,0.46,3.94,2,2
17323.562,-0.087,0.462,0.818,-2.47,3.78,2.99,2,2
17323.562,-0.115,0.491,0.844,-3.78,3.57,1.89,2,2
17323.578,-0.123,0.502,0.839,-6.44,0.24,1.31,2,2
17323.578,-0.028,0.44,0.79,-3.94,1.56,2.44,2,2
17323.593,-0.22,0.518,0.858,-6.44,2.17,-3.27,2,2
17323.609,-0.141,0.668,0.933,-23.04,-8.09,-1.59,2,2
17323.609,-0.114,0.54,0.878,-18.31,-13.61,2.78,2,2
17323.625,-0.097,0.529,0.867,-16.11,-11.38,9.16,2,2
17323.64,-0.065,0.505,0.903,-10.86,-0.24,16.17,2,2
17323.656,-0.081,0.466,0.949,-8.67,2.5,15.23,2,2
17323.671,-0.07,0.445,0.96,-2.35,1.13,12.39,2,2
17323.671,-0.077,0.409,0.95,10.5,-0.7,8.18,2,2
17323.687,-0.074,0.417,0.947,20.87,-4.09,3.6,2,2
17323.687,-0.062,0.444,0.918,28.2,-7.72,-0.89,2,2
17323.703,-0.066,0.478,0.894,30.55,-10.19,-3.85,2,2
17323.718,-0.073,0.56,0.884,24.66,-13.52,-3.66,2,2
17323.734,0.036,0.51,0.806,23.87,-12.15,0.06,2,2
17323.734,-0.029,0.453,0.772,26.58,-3.05,0.46,2,2
17323.75,-0.042,0.56,0.835,18.37,2.2,3.69,2,2
17323.75,-0.064,0.559,0.83,22.1,4.06,10.25,2,2
17323.765,-0.044,0.536,0.828,17.03,2.11,12.82,2,2
17323.781,-0.06,0.525,0.828,9.86,-0.98,11.2,2,2
17323.781,-0.063,0.534,0.834,6.13,-4.43,10.71,2,2
17323.796,-0.052,0.513,0.83,4.18,-8.18,10.99,2,2
17323.812,-0.017,0.515,0.808,6.2,-8.91,10.32,2,2
17323.828,-0.014,0.498,0.799,7.54,-5.92,10.07,2,2
17323.843,-0.012,0.483,0.793,8.09,-2.96,9.55,2,2
17323.843,-0.007,0.478,0.786,7.63,-0.49,8.42,2,2
17323.859,0.005,0.474,0.765,6.44,2.2,6.71,2,2
17323.859,0.003,0.464,0.756,4.55,5.89,4.06,2,2
17323.875,-0.02,0.468,0.767,2.29,10.04,1.34,2,2
17323.89,-0.044,0.474,0.785,1.46,12.79,-0.06,2,2
17323.89,-0.063,0.474,0.796,2.32,13.95,0.34,2,2
17323.906,-0.075,0.469,0.797,3.54,13.86,1.5,2,2
17323.921,-0.074,0.466,0.79,4.15,12.79,2.26,2,2
17323.921,-0.071,0.461,0.775,2.93,11.54,1.1,2,2
17323.937,-0.068,0.445,0.764,0.61,10.77,-1.56,2,2
17323.953,-0.066,0.408,0.769,0.09,11.32,-4.73,2,2
17323.953,-0.115,0.435,0.821,-16.82,3.02,-8.24,2,2
17323.968,-0.12,0.557,0.929,-18.01,-2.23,-4.55,2,2
17323.984,-0.06,0.41,0.857,-18.52,4.27,-1.28,2,2
17324.0,-0.064,0.654,1.054,-18.04,-6.41,7.72,2,2
17324.0,-0.051,0.566,0.949,-11.44,-9.4,8.15,2,2
17324.015,-0.025,0.552,0.935,-11.41,-5.95,8.24,2,2
17324.031,-0.034,0.511,0.94,-2.53,-0.89,6.62,2,2
17324.031,-0.061,0.505,0.941,7.97,2.32,4.33,2,2
17324.046,-0.066,0.519,0.938,16.21,2.26,2.78,2,2
17324.062,-0.081,0.515,0.921,23.96,0.92,0.76,2,2
17324.062,-0.081,0.516,0.904,27.38,-1.65,-0.24,2,2
17324.078,-0.072,0.537,0.879,27.28,-4.58,-0.64,2,2
17324.093,-0.063,0.548,0.849,25.42,-5.8,-0.34,2,2
17324.093,-0.071,0.553,0.835,21.97,-5.68,0.76,2,2
17324.109,-0.11,0.601,0.862,15.29,-7.81,3.51,2,2
17324.109,0.015,0.564,0.808,9.25,-11.11,9.09,2,2
17324.125,-0.019,0.463,0.749,10.16,-5.13,7.42,2,2
17324.14,-0.06,0.531,0.819,4.61,-0.37,6.65,2,2
17324.156,-0.057,0.508,0.814,3.51,-5.43,2.84,2,2
17324.171,-0.055,0.522,0.828,1.43,-7.51,2.23,2,2
17324.171,-0.031,0.522,0.814,0.4,-9.74,1.74,2,2
17324.187,-0.026,0.517,0.806,0.0,-8.82,1.28,2,2
17324.187,-0.029,0.527,0.811,-0.49,-6.96,1.28,2,2
17324.203,-0.023,0.529,0.817,-0.52,-5.28,1.28,2,2
17324.218,-0.022,0.53,0.833,-0.37,-3.42,1.46,2,2
17324.234,-0.033,0.527,0.84,0.46,-1.46,1.68,2,2
17324.234,-0.039,0.525,0.84,1.13,-1.43,1.53,2,2
17324.25,-0.034,0.518,0.832,1.31,-2.84,1.07,2,2
17324.25,-0.024,0.52,0.817,0.43,-4.06,-0.31,2,2
17324.265,-0.025,0.512,0.804,-0.46,-4.46,-1.59,2,2
17324.281,-0.019,0.511,0.797,-1.5,-4.36,-2.53,2,2
17324.281,-0.017,0.514,0.797,-2.72,-3.23,-3.63,2,2
17324.296,-0.017,0.507,0.799,-3.39,-1.74,-4.55,2,2
17324.312,-0.018,0.502,0.798,-2.87,-0.06,-5.16,2,2
17324.328,-0.021,0.504,0.803,-0.95,3.51,-5.28,2,2
17324.328,-0.028,0.509,0.804,-0.37,4.36,-5.86,2,2
17324.343,-0.032,0.516,0.818,-0.24,4.79,-6.04,2,2
17324.359,-0.03,0.515,0.823,0.49,4.73,-6.13,2,2
17324.359,-0.043,0.528,0.832,0.64,5.01,-6.01,2,2
17324.375,-0.053,0.535,0.845,-0.21,3.66,-5.8,2,2
17324.39,-0.055,0.543,0.855,-1.22,1.13,-5.19,2,2
17324.39,-0.054,0.555,0.853,-2.59,-1.31,-4.49,2,2
17324.406,-0.049,0.555,0.847,-4.49,-3.11,-4.03,2,2
17324.421,-0.046,0.548,0.837,-5.68,-3.97,-3.63,2,2
17324.421,-0.042,0.541,0.825,-5.8,-3.97,-3.27,2,2
17324.437,-0.04,0.533,0.816,-4.88,-2.75,-3.2,2,2
17324.453,-0.039,0.528,0.808,-3.45,-0.95,-3.33,2,2
17324.453,-0.038,0.522,0.804,-1.98,1.01,-3.6,2,2
17324.468,-0.042,0.519,0.81,-0.76,3.36,-4.06,2,2
17324.468,-0.054,0.516,0.814,0.52,5.34,-4.7,2,2
17324.484,-0.061,0.51,0.815,1.86,6.13,-5.31,2,2
17324.5,-0.062,0.505,0.809,3.48,5.92,-5.89,2,2
17324.515,-0.067,0.496,0.798,5.25,6.1,-7.2,2,2
17324.515,-0.085,0.505,0.814,4.3,5.31,-8.51,2,2
17324.531,-0.087,0.536,0.835,0.12,1.28,-9.43,2,2
17324.531,-0.079,0.562,0.857,-4.97,-1.68,-8.33,2,2
17324.546,-0.079,0.573,0.868,-9.64,-3.75,-5.43,2,2
17324.562,-0.07,0.587,0.879,-15.38,-4.7,-1.46,2,2
17324.562,-0.068,0.56,0.879,-18.22,-4.94,1.77,2,2
17324.578,-0.066,0.525,0.874,-18.62,-5.28,3.54,2,2
17324.593,-0.06,0.501,0.856,-16.97,-5.71,3.69,2,2
17324.593,-0.058,0.476,0.836,-13.15,-5.71,2.11,2,2
17324.609,-0.057,0.467,0.822,-9.22,-5.01,-0.09,2,2
17324.609,-0.051,0.47,0.807,-5.58,-3.94,-2.01,2,2
17324.625,-0.01,0.464,0.766,-1.37,-1.13,-3.78,2,2
17324.64,0.016,0.382,0.745,5.1,8.39,-7.08,2,2
17324.64,-0.189,0.499,0.893,2.62,13.28,-12.39,2,2
17324.656,-0.117,0.62,1.005,-5.22,1.19,-8.3,2,2
17324.671,-0.088,0.576,0.937,-3.3,-7.9,-5.4,2,2
17324.671,-0.055,0.577,0.909,-8.97,-9.64,-2.04,2,2
17324.687,-0.037,0.563,0.909,-8.73,-6.74,0.7,2,2
17324.703,-0.058,0.551,0.907,-3.72,-1.83,2.66,2,2
17324.703,-0.054,0.546,0.916,-1.01,0.61,3.85,2,2
17324.718,-0.07,0.537,0.924,2.01,1.28,2.32,2,2
17324.734,-0.092,0.506,0.919,7.02,-0.4,1.43,2,2
17324.734,-0.092,0.499,0.904,12.67,-4.12,1.34,2,2
17324.75,-0.085,0.51,0.879,17.33,-7.57,0.76,2,2
17324.75,-0.086,0.533,0.858,18.34,-10.16,-0.67,2,2
17324.765,-0.125,0.572,0.86,13.61,-14.53,-0.58,2,2
17324.781,0.008,0.576,0.781,6.99,-18.25,2.08,2,2
17324.796,-0.025,0.449,0.718,10.77,-9.77,1.74,2,2
17324.796,-0.054,0.538,0.772,1.83,-3.45,1.68,2,2
17324.796,-0.03,0.547,0.802,-0.95,-1.34,1.95,2,2
17324.812,-0.051,0.527,0.789,2.08,2.66,2.56,2,2
17324.828,-0.032,0.509,0.806,-0.03,4.67,2.5,2,2
17324.828,-0.054,0.496,0.82,1.46,6.07,0.24,2,2
17324.843,-0.056,0.485,0.82,6.07,6.23,-0.12,2,2
17324.859,-0.044,0.492,0.81,9.83,5.37,-1.07,2,2
17324.859,-0.05,0.503,0.809,11.05,5.52,-1.92,2,2
17324.875,-0.045,0.515,0.809,9.89,5.77,-2.17,2,2
17324.89,-0.058,0.526,0.818,6.04,6.01,-2.75,2,2
17324.89,-0.063,0.528,0.831,0.95,4.52,-2.59,2,2
17324.906,-0.063,0.527,0.84,-3.85,2.38,-1.92,2,2
17324.921,-0.059,0.521,0.847,-7.69,0.4,-1.01,2,2
17324.921,-0.055,0.504,0.851,-9.4,-1.19,-0.09,2,2
17324.937,-0.047,0.501,0.855,-9.16,-2.01,0.61,2,2
17324.937,-0.047,0.5,0.86,-6.62,-2.11,-0.49,2,2
17324.953,-0.048,0.497,0.861,-5.25,-2.04,-1.16,2,2
17324.968,-0.049,0.5,0.864,-3.97,-2.23,-1.71,2,2
17324.968,-0.054,0.5,0.848,-3.48,-2.93,-2.14,2,2
17324.984,-0.052,0.502,0.84,-3.39,-3.42,-1.95,2,2
17325.0,-0.052,0.505,0.832,-3.48,-3.17,-1.43,2,2
17325.015,-0.051,0.499,0.829,-3.91,-2.72,-1.07,2,2
17325.015,-0.049,0.495,0.832,-4.12,-2.04,-0.82,2,2
17325.031,-0.051,0.495,0.837,-4.06,-1.4,-1.28,2,2
17325.031,-0.052,0.49,0.838,-3.72,-1.1,-2.41,2,2
17325.046,-0.052,0.489,0.839,-3.14,-1.25,-3.23,2,2
17325.062,-0.056,0.491,0.836,-2.17,-1.4,-3.57,2,2
17325.062,-0.062,0.492,0.833,-1.62,-1.83,-3.3,2,2
17325.078,-0.056,0.499,0.832,-3.08,-2.53,-3.11,2,2
17325.078,-0.05,0.504,0.835,-5.34,-2.78,-3.11,2,2
17325.093,-0.051,0.498,0.837,-7.14,-2.08,-3.14,2,2
17325.109,-0.051,0.492,0.844,-8.06,-1.28,-2.72,2,2
17325.109,-0.052,0.488,0.847,-7.63,-0.34,-2.17,2,2
17325.125,-0.055,0.482,0.847,-5.86,0.43,-2.04,2,2
17325.14,-0.052,0.475,0.848,-3.81,1.22,-2.2,2,2
17325.14,-0.048,0.478,0.846,-1.71,1.98,-2.59,2,2
17325.156,-0.051,0.484,0.849,0.09,2.81,-3.45,2,2
17325.171,-0.06,0.489,0.855,1.53,3.69,-4.39,2,2
17325.171,-0.069,0.509,0.859,2.29,4.0,-5.13,2,2
17325.187,-0.076,0.523,0.863,2.14,3.6,-5.46,2,2
17325.203,-0.083,0.53,0.864,2.29,2.84,-4.64,2,2
17325.203,-0.087,0.545,0.859,2.5,1.89,-2.41,2,2
17325.218,-0.08,0.542,0.854,1.37,0.34,-0.76,2,2
17325.234,-0.078,0.534,0.848,-0.46,-1.01,-0.15,2,2
17325.234,-0.076,0.534,0.844,-2.23,-2.11,0.31,2,2
17325.25,-0.067,0.531,0.842,-3.42,-2.69,0.98,2,2
17325.25,-0.065,0.525,0.844,-3.66,-2.11,1.5,2,2
17325.265,-0.065,0.517,0.847,-3.14,-1.07,1.74,2,2
17325.281,-0.066,0.513,0.85,-2.11,-0.61,1.43,2,2
17325.281,-0.068,0.509,0.853,-0.58,-0.79,0.73,2,2
17325.296,-0.067,0.506,0.844,0.92,-1.34,-0.12,2,2
17325.312,-0.062,0.508,0.834,2.32,-1.4,-0.76,2,2
17325.312,-0.063,0.517,0.829,2.87,-0.85,-0.95,2,2
17325.328,-0.063,0.524,0.831,1.74,-0.21,-0.34,2,2
17325.328,-0.061,0.519,0.837,-0.7,0.34,0.49,2,2
17325.359,-0.059,0.502,0.864,-4.43,1.34,1.56,2,2
17325.359,-0.065,0.496,0.871,-4.52,1.13,1.62,2,2
17325.375,-0.067,0.487,0.884,-3.17,0.24,1.37,2,2
17325.39,-0.064,0.485,0.881,-1.34,-1.65,0.27,2,2
17325.39,-0.059,0.49,0.866,0.46,-2.69,-1.19,2,2
17325.406,-0.059,0.49,0.856,2.44,-2.35,-2.56,2,2
17325.421,-0.061,0.496,0.844,4.18,-1.74,-3.39,2,2
17325.421,-0.06,0.509,0.84,4.58,-0.79,-3.23,2,2
17325.437,-0.062,0.519,0.838,3.48,0.18,-2.66,2,2
17325.437,-0.065,0.517,0.842,1.13,0.95,-1.95,2,2
17325.453,-0.07,0.508,0.848,-0.79,0.95,-1.53,2,2
17325.468,-0.073,0.506,0.855,-1.1,0.37,-1.04,2,2
17325.468,-0.071,0.514,0.855,-0.55,-0.09,-0.67,2,2
17325.484,-0.071,0.515,0.853,-0.58,-0.52,-0.37,2,2
17325.5,-0.073,0.508,0.852,-0.52,-1.1,-0.03,2,2
17325.5,-0.067,0.503,0.849,-0.37,-1.56,0.4,2,2
17325.531,-0.063,0.5,0.845,-1.19,-1.16,0.37,2,2
17325.531,-0.061,0.494,0.845,-1.4,-0.98,-0.06,2,2
17325.546,-0.06,0.494,0.847,-1.01,-0.46,-0.52,2,2
17325.546,-0.064,0.501,0.846,-0.46,0.18,-0.79,2,2
17325.562,-0.066,0.506,0.847,-0.4,0.37,-0.85,2,2
17325.578,-0.063,0.504,0.844,-0.49,0.06,-1.1,2,2
17325.578,-0.064,0.504,0.844,-0.43,0.37,-1.1,2,2
17325.593,-0.068,0.515,0.849,-0.49,0.7,-0.76,2,2
17325.609,-0.071,0.517,0.849,-0.98,0.46,-0.37,2,2
17325.609,-0.07,0.512,0.847,-1.56,0.21,-0.15,2,2
17325.625,-0.068,0.514,0.849,-1.56,0.27,-0.15,2,2
17325.64,-0.069,0.509,0.849,-0.7,0.34,0.09,2,2
17325.64,-0.068,0.506,0.85,0.82,0.61,0.85,2,2
17325.656,-0.066,0.496,0.841,3.14,1.13,1.37,2,2
17325.671,-0.064,0.493,0.84,4.0,1.34,1.25,2,2
17325.671,-0.065,0.498,0.844,3.57,1.65,0.95,2,2
17325.687,-0.07,0.501,0.846,3.6,2.41,1.07,2,2
17325.703,-0.07,0.503,0.836,2.87,1.95,1.07,2,2
17325.718,-0.07,0.502,0.831,1.68,1.65,1.07,2,2
17325.718,-0.066,0.495,0.829,0.34,1.46,0.64,2,2
17325.734,-0.061,0.497,0.825,-1.4,1.53,-0.12,2,2
17325.75,-0.061,0.496,0.831,-2.99,2.47,-1.04,2,2
17325.765,-0.064,0.491,0.844,-4.15,3.17,-1.86,2,2
17325.765,-0.064,0.49,0.851,-4.97,3.54,-2.26,2,2
17325.781,-0.062,0.49,0.856,-5.8,3.75,-2.75,2,2
17325.781,-0.063,0.488,0.867,-7.45,3.78,-3.42,2,2
17325.796,-0.063,0.485,0.874,-7.78,3.66,-4.21,2,2
17325.812,-0.066,0.485,0.873,-6.84,3.48,-5.19,2,2
17325.812,-0.057,0.488,0.854,-6.13,3.48,-6.1,2,2
17325.828,0.01,0.45,0.789,-3.08,6.84,-7.35,2,2
17325.828,-0.079,0.396,0.801,3.6,16.45,-11.69,2,2
17325.843,-0.178,0.574,0.922,-3.57,13.67,-12.6,2,2
17325.859,-0.096,0.592,0.917,-8.06,3.81,-7.63,2,2
17325.859,-0.118,0.563,0.885,-9.46,-0.21,-5.04,2,2
17325.875,-0.091,0.548,0.886,-12.54,-1.16,-0.31,2,2
17325.89,-0.092,0.532,0.897,-9.58,1.25,1.86,2,2
17325.906,-0.108,0.514,0.902,-3.88,4.12,2.17,2,2
17325.906,-0.106,0.509,0.909,0.37,4.73,1.71,2,2
17325.921,-0.113,0.507,0.907,4.55,4.64,0.58,2,2
17325.921,-0.113,0.498,0.89,9.55,1.89,0.49,2,2
17325.937,-0.114,0.498,0.872,10.35,-0.34,0.34,2,2
17325.953,-0.111,0.499,0.858,9.8,-2.81,-0.12,2,2
17325.953,-0.11,0.503,0.845,7.08,-5.1,-0.21,2,2
17325.968,-0.153,0.598,0.883,0.89,-10.32,1.28,2,2
17325.968,-0.002,0.529,0.804,-1.31,-12.36,5.1,2,2
17325.984,-0.085,0.482,0.778,0.76,-4.09,3.23,2,2
17326.0,-0.081,0.517,0.844,-3.02,-0.27,6.07,2,2
17326.0,-0.078,0.51,0.822,-3.85,-1.34,5.74,2,2
17326.015,-0.099,0.53,0.845,-6.01,-0.43,6.99,2,2
17326.031,-0.089,0.524,0.873,-9.43,-2.47,9.34,2,2
17326.046,-0.091,0.506,0.876,-11.93,-4.85,9.55,2,2
17326.046,-0.099,0.499,0.889,-12.15,-5.89,9.86,2,2
17326.062,-0.088,0.503,0.902,-11.75,-7.72,9.7,2,2
17326.062,-0.085,0.487,0.896,-10.41,-9.03,8.67,2,2
17326.078,-0.079,0.478,0.886,-8.91,-10.32,7.42,2,2
17326.093,-0.07,0.469,0.872,-6.78,-10.77,5.77,2,2
17326.093,-0.068,0.472,0.863,-4.76,-10.28,3.78,2,2
17326.109,-0.068,0.477,0.86,-2.53,-8.85,2.44,2,2
17326.109,-0.073,0.482,0.857,-0.79,-7.14,1.59,2,2
17326.125,-0.077,0.487,0.854,0.92,-5.62,1.25,2,2
17326.14,-0.083,0.489,0.85,2.47,-4.36,0.95,2,2
17326.14,-0.083,0.494,0.846,3.6,-3.6,1.1,2,2
17326.156,-0.087,0.5,0.852,4.39,-2.59,1.71,2,2
17326.171,-0.098,0.505,0.863,4.7,-1.77,2.69,2,2
17326.171,-0.105,0.515,0.872,3.51,-2.29,3.39,2,2
17326.187,-0.11,0.518,0.884,1.37,-3.88,3.91,2,2
17326.187,-0.109,0.519,0.89,-1.25,-6.07,4.55,2,2
17326.203,-0.101,0.515,0.892,-3.69,-7.78,5.19,2,2
17326.218,-0.084,0.507,0.888,-4.82,-8.15,5.71,2,2
17326.218,-0.074,0.505,0.89,-4.46,-6.96,5.89,2,2
17326.234,-0.072,0.5,0.894,-2.96,-4.79,5.37,2,2
17326.25,-0.071,0.491,0.894,-0.52,-2.99,5.07,2,2
17326.25,-0.069,0.487,0.894,2.44,-1.4,5.1,2,2
17326.265,-0.065,0.482,0.893,5.22,0.18,4.91,2,2
17326.281,-0.062,0.48,0.896,7.84,1.95,4.43,2,2
17326.281,-0.064,0.482,0.903,9.89,3.81,3.57,2,2
17326.296,-0.066,0.494,0.915,10.74,4.39,2.84,2,2
17326.312,-0.063,0.505,0.918,9.98,3.57,2.59,2,2
17326.312,-0.057,0.512,0.915,7.39,2.44,2.66,2,2
17326.328,-0.043,0.513,0.916,3.85,1.62,2.93,2,2
17326.328,-0.03,0.511,0.934,0.55,2.35,3.45,2,2
17326.343,-0.024,0.502,0.95,-1.25,5.01,4.15,2,2
17326.359,-0.015,0.501,0.982,-0.98,9.13,4.82,2,2
17326.359,-0.018,0.517,1.026,1.37,15.11,4.27,2,2
17326.375,-0.026,0.52,1.061,6.16,21.33,3.48,2,2
17326.39,-0.031,0.532,1.086,12.21,27.68,3.2,2,2
17326.39,-0.032,0.555,1.109,18.98,34.64,3.45,2,2
17326.406,-0.027,0.581,1.133,25.57,42.54,3.23,2,2
17326.421,-0.022,0.602,1.132,29.79,54.26,0.52,2,2
17326.421,-0.025,0.641,1.163,28.78,71.2,-7.26,2,2
17326.437,-0.047,0.661,1.19,28.17,91.25,-20.66,2,2
17326.453,-0.088,0.658,1.197,29.18,112.98,-36.74,2,2
17326.453,-0.142,0.66,1.189,33.48,136.39,-52.03,2,2
17326.468,-0.201,0.674,1.153,40.96,162.88,-63.88,2,2
17326.468,-0.291,0.705,1.116,48.74,191.23,-73.52,2,2
17326.484,-0.341,0.802,1.059,52.98,217.41,-84.54,2,2
17326.5,-0.516,0.876,1.028,48.01,236.67,-91.8,2,2
17326.5,-0.643,0.939,1.018,35.25,238.75,-84.44,2,2
17326.515,-0.709,0.953,1.025,21.49,232.09,-64.03,2,2
17326.531,-0.747,1.002,1.075,8.06,216.13,-38.45,2,2
17326.546,-0.725,0.96,1.074,-2.9,187.44,-11.2,2,2
17326.546,-0.689,0.899,1.054,-9.61,158.36,12.09,2,2
17326.562,-0.623,0.854,1.035,-14.1,130.53,28.44,2,2
17326.562,-0.567,0.814,0.991,-19.14,104.65,36.87,2,2
17326.578,-0.531,0.787,0.929,-27.07,84.44,39.22,2,2
17326.578,-0.491,0.777,0.866,-40.65,70.77,36.5,2,2
17326.593,-0.461,0.773,0.805,-59.08,63.63,31.34,2,2
17326.609,-0.456,0.74,0.746,-80.51,62.47,24.63,2,2
17326.625,-0.441,0.705,0.704,-106.17,66.99,16.82,2,2
17326.625,-0.425,0.647,0.685,-132.36,73.89,7.78,2,2
17326.64,-0.397,0.564,0.666,-154.3,81.82,-1.59,2,2
17326.64,-0.374,0.481,0.651,-168.61,91.28,-9.64,2,2
17326.656,-0.345,0.408,0.651,-173.31,101.38,-15.75,2,2
17326.671,-0.321,0.344,0.644,-168.86,110.84,-19.96,2,2
17326.671,-0.311,0.294,0.637,-158.18,119.02,-22.06,2,2
17326.687,-0.284,0.26,0.633,-143.19,125.92,-22.43,2,2
17326.703,-0.236,0.24,0.638,-126.5,132.27,-22.34,2,2
17326.718,-0.157,0.172,0.587,-95.71,144.69,-23.99,2,2
17326.718,-0.145,0.096,0.551,-79.56,155.22,-25.79,2,2
17326.734,-0.148,0.01,0.507,-62.01,169.68,-28.41,2,2
17326.75,-0.138,-0.052,0.461,-43.73,187.84,-31.98,2,2
17326.75,-0.163,-0.084,0.403,-26.22,209.17,-38.54,2,2
17326.765,-0.226,-0.068,0.388,-18.31,228.46,-46.45,2,2
17326.781,-0.28,-0.026,0.406,-20.87,240.03,-54.35,2,2
17326.796,-0.325,0.018,0.453,-30.58,242.77,-62.2,2,2
17326.796,-0.371,0.034,0.505,-41.66,237.8,-68.3,2,2
17326.812,-0.432,0.069,0.556,-48.77,225.01,-71.75,2,2
17326.812,-0.5,0.115,0.58,-43.95,202.98,-75.41,2,2
17326.828,-0.576,0.123,0.575,-30.61,174.11,-77.79,2,2
17326.828,-0.683,0.106,0.534,-12.94,144.66,-76.36,2,2
17326.843,-0.802,0.057,0.461,8.21,118.56,-71.63,2,2
17326.859,-0.919,-0.005,0.41,28.72,95.92,-66.62,2,2
17326.859,-0.992,-0.049,0.34,47.91,77.88,-61.62,2,2
17326.875,-1.109,-0.011,0.233,63.08,63.3,-59.66,2,2
17326.89,-1.212,0.011,0.168,69.83,50.78,-60.98,2,2
17326.906,-1.236,0.026,0.114,67.2,40.13,-64.91,2,2
17326.906,-1.28,0.064,0.053,57.95,29.94,-71.47,2,2
17326.921,-1.294,0.084,0.031,32.32,12.73,-87.86,2,2
17326.921,-1.293,0.111,0.014,19.26,8.48,-92.1,2,2
17326.937,-1.3,0.164,0.012,10.19,5.46,-90.27,2,2
17326.953,-1.323,0.194,0.112,8.61,1.56,-81.97,2,2
17326.953,-1.333,0.197,0.129,14.28,-4.55,-69.83,2,2
17326.968,-1.349,0.168,0.116,24.78,-12.33,-59.76,2,2
17326.984,-1.31,0.175,0.08,34.79,-18.4,-51.94,2,2
17326.984,-1.27,0.21,0.038,39.4,-20.81,-46.33,2,2
17327.0,-1.174,0.235,0.045,34.64,-24.02,-39.37,2,2
17327.0,-1.041,0.249,0.043,28.26,-28.9,-30.43,2,2
17327.015,-0.959,0.261,0.016,24.41,-27.89,-24.26,2,2
17327.031,-0.917,0.228,0.037,16.97,-25.21,-13.82,2,2
17327.031,-0.873,0.206,0.068,13.7,-24.29,-0.31,2,2
17327.046,-0.806,0.185,0.095,16.91,-19.78,14.22,2,2
17327.062,-0.769,0.157,0.139,22.31,-13.25,30.52,2,2
17327.062,-0.756,0.112,0.183,30.46,-8.09,47.61,2,2
17327.078,-0.74,0.088,0.215,39.98,-4.27,64.52,2,2
17327.078,-0.749,0.064,0.238,47.0,-3.57,79.07,2,2
17327.093,-0.771,0.049,0.253,48.59,-6.23,87.98,2,2
17327.109,-0.751,0.041,0.258,45.66,-11.11,91.28,2,2
17327.109,-0.72,0.008,0.262,40.59,-15.93,90.67,2,2
17327.125,-0.679,-0.03,0.29,36.5,-20.02,88.08,2,2
17327.14,-0.67,-0.041,0.281,38.64,-22.77,81.18,2,2
17327.156,-0.648,-0.02,0.247,40.71,-25.7,72.51,2,2
17327.156,-0.612,0.064,0.221,36.87,-24.81,60.18,2,2
17327.171,-0.612,0.063,0.215,27.77,-25.45,48.52,2,2
17327.171,-0.583,0.043,0.228,19.99,-26.86,38.09,2,2
17327.187,-0.586,0.039,0.236,18.68,-24.81,27.04,2,2
17327.203,-0.616,0.031,0.259,19.32,-22.55,17.58,2,2
17327.218,-0.649,0.062,0.282,19.38,-19.78,4.21,2,2
17327.234,-0.651,0.064,0.291,17.21,-20.23,-0.76,2,2
17327.234,-0.646,0.084,0.295,15.29,-20.66,-4.91,2,2
17327.25,-0.664,0.104,0.285,13.46,-22.06,-10.99,2,2
17327.25,-0.666,0.102,0.296,9.03,-23.44,-16.79,2,2
17327.265,-0.693,0.095,0.306,5.74,-23.29,-23.44,2,2
17327.281,-0.751,0.107,0.311,4.15,-22.34,-31.83,2,2
17327.281,-0.788,0.144,0.325,1.43,-22.0,-40.56,2,2
17327.296,-0.811,0.173,0.337,-3.81,-21.88,-47.85,2,2
17327.312,-0.85,0.187,0.346,-9.52,-21.21,-53.07,2,2
17327.312,-0.856,0.183,0.364,-13.95,-20.66,-54.45,2,2
17327.328,-0.826,0.169,0.391,-14.98,-19.14,-50.2,2,2
17327.328,-0.809,0.132,0.419,-10.41,-15.47,-39.74,2,2
17327.343,-0.857,0.108,0.429,1.28,-10.53,-26.92,2,2
17327.359,-0.91,0.136,0.412,13.46,-6.68,-17.24,2,2
17327.375,-0.92,0.175,0.397,16.45,-4.91,-10.99,2,2
17327.39,-0.874,0.154,0.409,8.33,-5.62,0.61,2,2
17327.39,-0.872,0.14,0.414,9.92,-5.77,4.97,2,2
17327.406,-0.881,0.15,0.406,12.85,-5.8,6.56,2,2
17327.421,-0.896,0.167,0.397,13.58,-5.89,6.65,2,2
17327.437,-0.881,0.178,0.392,11.9,-7.11,8.03,2,2
17327.437,-0.873,0.185,0.39,9.89,-7.02,9.7,2,2
17327.437,-0.86,0.166,0.398,8.45,-6.13,11.81,2,2
17327.453,-0.85,0.125,0.403,9.86,-6.07,13.98,2,2
17327.468,-0.865,0.113,0.392,14.74,-5.46,12.36,2,2
17327.468,-0.885,0.141,0.372,17.18,-4.27,6.68,2,2
17327.484,-0.88,0.165,0.363,13.18,-4.15,0.18,2,2
17327.5,-0.886,0.173,0.364,6.01,-4.39,-6.2,2,2
17327.5,-0.901,0.179,0.367,-0.31,-5.68,-11.63,2,2
17327.515,-0.884,0.19,0.363,-5.49,-8.24,-14.8,2,2
17327.531,-0.868,0.195,0.361,-8.94,-9.83,-15.44,2,2
17327.531,-0.87,0.177,0.373,-9.83,-9.46,-13.58,2,2
17327.546,-0.893,0.164,0.377,-6.56,-7.39,-11.32,2,2
17327.562,-0.947,0.157,0.382,-1.16,-3.57,-10.38,2,2
17327.562,-0.975,0.165,0.399,1.83,0.09,-10.32,2,2
17327.578,-0.961,0.182,0.418,1.13,2.17,-10.25,2,2
17327.578,-0.943,0.179,0.435,-0.09,3.69,-9.03,2,2
17327.593,-0.943,0.176,0.445,0.73,4.76,-6.56,2,2
17327.609,-0.956,0.18,0.451,2.53,3.91,-6.16,2,2
17327.625,-0.972,0.183,0.453,2.44,1.34,-8.39,2,2
17327.625,-0.987,0.188,0.45,-0.52,-2.04,-12.82,2,2
17327.64,-1.002,0.196,0.446,-6.07,-5.62,-19.01,2,2
17327.64,-0.998,0.193,0.454,-13.64,-8.51,-24.38,2,2
17327.656,-0.969,0.189,0.462,-20.29,-10.07,-26.22,2,2
17327.671,-0.98,0.172,0.454,-23.01,-9.58,-24.9,2,2
17327.671,-1.04,0.145,0.45,-22.13,-7.97,-22.03,2,2
17327.687,-1.102,0.13,0.442,-18.01,-5.83,-19.04,2,2
17327.703,-1.137,0.124,0.455,-14.71,-3.36,-16.05,2,2
17327.703,-1.134,0.115,0.478,-12.6,-0.58,-12.18,2,2
17327.718,-1.096,0.114,0.495,-10.59,1.53,-6.41,2,2
17327.718,-1.045,0.108,0.493,-7.11,2.38,1.62,2,2
17327.734,-0.999,0.108,0.488,-2.32,1.4,10.13,2,2
17327.75,-0.961,0.123,0.475,1.92,-0.85,15.26,2,2
17327.75,-0.939,0.135,0.453,2.35,-2.26,14.65,2,2
17327.765,-0.947,0.131,0.447,-1.34,-2.35,8.39,2,2
17327.781,-0.947,0.117,0.452,-6.96,-1.53,-0.43,2,2
17327.781,-0.951,0.122,0.472,-13.31,-0.4,-9.61,2,2
17327.796,-0.956,0.121,0.499,-18.19,0.06,-17.55,2,2
17327.812,-0.948,0.122,0.522,-20.72,-1.07,-22.25,2,2
17327.812,-0.917,0.125,0.524,-21.58,-4.7,-22.95,2,2
17327.828,-0.876,0.114,0.503,-21.36,-10.59,-19.78,2,2
17327.828,-0.838,0.083,0.469,-19.23,-17.3,-12.67,2,2
17327.843,-0.767,0.058,0.438,-14.47,-21.76,-3.42,2,2
17327.859,-0.708,0.061,0.41,-9.49,-20.39,3.88,2,2
17327.859,-0.727,0.045,0.406,-6.04,-13.37,6.68,2,2
17327.875,-0.796,0.024,0.412,-3.11,-5.37,5.31,2,2
17327.89,-0.86,0.023,0.426,0.0,0.37,0.55,2,2
17327.89,-0.897,0.043,0.458,-2.01,-2.01,-12.18,2,2
17327.906,-0.905,0.055,0.474,-3.97,-9.37,-12.94,2,2
17327.921,-0.859,0.076,0.479,-2.26,-17.33,-8.45,2,2
17327.921,-0.814,0.098,0.469,2.11,-24.14,-1.37,2,2
17327.937,-0.774,0.124,0.437,7.81,-28.05,4.7,2,2
17327.953,-0.801,0.146,0.4,12.21,-30.09,8.45,2,2
17327.953,-0.815,0.159,0.372,12.85,-31.8,10.77,2,2
17327.968,-0.818,0.158,0.357,11.32,-32.47,12.36,2,2
17327.968,-0.798,0.149,0.35,9.09,-31.37,14.01,2,2
17327.984,-0.769,0.127,0.348,7.57,-28.75,16.3,2,2
17328.0,-0.741,0.112,0.347,8.48,-25.06,18.68,2,2
17328.0,-0.724,0.115,0.336,11.05,-20.97,20.54,2,2
17328.015,-0.734,0.117,0.326,12.3,-15.96,22.52,2,2
17328.031,-0.746,0.109,0.335,12.09,-10.22,25.03,2,2
17328.031,-0.745,0.102,0.353,12.67,-3.57,26.31,2,2
17328.046,-0.745,0.094,0.382,13.73,3.33,26.03,2,2
17328.062,-0.743,0.091,0.411,15.05,8.73,25.18,2,2
17328.062,-0.759,0.095,0.434,16.11,11.63,23.44,2,2
17328.078,-0.795,0.093,0.447,16.08,11.11,20.87,2,2
17328.078,-0.836,0.093,0.45,14.28,6.44,17.43,2,2
17328.093,-0.852,0.096,0.446,10.04,-1.19,13.4,2,2
17328.109,-0.846,0.096,0.434,4.21,-8.76,8.94,2,2
17328.125,-0.848,0.094,0.42,-1.74,-14.34,3.48,2,2
17328.125,-0.842,0.088,0.403,-6.53,-18.89,-2.29,2,2
17328.14,-0.818,0.1,0.385,-9.86,-22.68,-6.87,2,2
17328.14,-0.807,0.115,0.365,-11.6,-24.23,-10.1,2,2
17328.156,-0.812,0.112,0.354,-12.27,-22.89,-11.2,2,2
17328.171,-0.823,0.109,0.352,-12.42,-19.1,-11.35,2,2
17328.171,-0.849,0.1,0.365,-11.51,-14.01,-11.47,2,2
17328.187,-0.866,0.111,0.377,-9.98,-9.67,-11.44,2,2
17328.203,-0.872,0.138,0.389,-9.58,-6.07,-11.78,2,2
17328.203,-0.872,0.153,0.413,-10.22,-1.89,-11.69,2,2
17328.218,-0.887,0.157,0.445,-11.02,1.89,-10.86,2,2
17328.218,-0.914,0.154,0.483,-11.26,5.07,-9.0,2,2
17328.234,-0.949,0.136,0.518,-9.25,7.93,-7.11,2,2
17328.25,-0.96,0.134,0.545,-5.98,9.95,-6.16,2,2
17328.25,-0.953,0.15,0.568,-2.99,11.2,-5.89,2,2
17328.265,-0.945,0.162,0.582,-0.89,11.54,-5.65,2,2
17328.281,-0.934,0.173,0.593,-0.92,10.41,-4.82,2,2
17328.281,-0.952,0.172,0.601,-1.1,7.14,-5.04,2,2
17328.296,-0.995,0.167,0.588,-1.22,0.67,-6.56,2,2
17328.296,-1.009,0.18,0.574,-3.14,-6.26,-8.73,2,2
17328.312,-0.991,0.194,0.572,-6.81,-10.93,-12.36,2,2
17328.328,-0.962,0.192,0.58,-11.35,-13.86,-16.17,2,2
17328.343,-0.922,0.183,0.583,-13.61,-16.3,-17.52,2,2
17328.343,-0.851,0.182,0.584,-12.48,-18.56,-13.89,2,2
17328.359,-0.776,0.167,0.568,-8.24,-20.66,-3.51,2,2
17328.359,-0.744,0.146,0.543,-0.92,-21.91,10.99,2,2
17328.375,-0.74,0.122,0.521,8.12,-21.15,24.02,2,2
17328.39,-0.757,0.09,0.498,15.75,-18.28,33.05,2,2
17328.39,-0.771,0.067,0.485,20.54,-14.53,37.32,2,2
17328.406,-0.767,0.071,0.479,23.68,-10.68,36.29,2,2
17328.421,-0.765,0.085,0.48,23.44,-7.35,31.62,2,2
17328.437,-0.745,0.101,0.488,18.83,-5.46,26.43,2,2
17328.437,-0.717,0.111,0.491,14.59,-6.1,22.16,2,2
17328.453,-0.702,0.109,0.491,12.7,-9.43,19.59,2,2
17328.453,-0.733,0.106,0.479,13.4,-12.97,17.3,2,2
17328.468,-0.759,0.124,0.468,13.12,-16.91,13.98,2,2
17328.468,-0.752,0.12,0.47,9.86,-21.33,10.62,2,2
17328.484,-0.724,0.121,0.479,5.46,-25.76,6.78,2,2
17328.5,-0.683,0.114,0.479,1.46,-30.34,3.14,2,2
17328.5,-0.642,0.119,0.459,-2.5,-34.85,-0.64,2,2
17328.515,-0.638,0.136,0.444,-7.51,-39.37,-4.64,2,2
17328.531,-0.65,0.138,0.43,-13.46,-42.76,-7.9,2,2
17328.531,-0.68,0.126,0.425,-18.74,-44.37,-9.89,2,2
17328.546,-0.741,0.083,0.405,-20.39,-44.16,-8.09,2,2
17328.562,-0.781,0.07,0.385,-18.98,-39.98,-1.22,2,2
17328.562,-0.807,0.08,0.384,-14.8,-31.1,6.99,2,2
17328.578,-0.813,0.066,0.411,-7.93,-18.34,13.34,2,2
17328.578,-0.802,0.055,0.431,1.8,-4.79,17.52,2,2
17328.593,-0.795,0.079,0.45,11.81,6.99,19.56,2,2
17328.609,-0.794,0.119,0.475,17.98,16.14,19.59,2,2
17328.625,-0.804,0.147,0.497,17.76,21.64,17.85,2,2
17328.625,-0.809,0.162,0.523,13.0,23.68,15.81,2,2
17328.64,-0.818,0.159,0.549,7.35,22.86,13.98,2,2
17328.64,-0.83,0.142,0.569,3.2,19.5,12.88,2,2
17328.656,-0.856,0.143,0.585,1.83,16.14,11.41,2,2
17328.671,-0.888,0.126,0.597,2.26,13.58,11.05,2,2
17328.671,-0.888,0.127,0.595,3.6,11.14,12.42,2,2
17328.687,-0.88,0.147,0.582,4.73,9.22,13.43,2,2
17328.703,-0.896,0.159,0.565,4.79,7.17,13.03,2,2
17328.703,-0.907,0.183,0.543,2.87,4.91,11.47,2,2
17328.718,-0.897,0.195,0.527,-1.13,2.81,9.43,2,2
17328.718,-0.904,0.15,0.531,-3.42,1.65,9.06,2,2
17328.734,-0.895,0.127,0.522,-1.01,2.56,10.65,2,2
17328.75,-0.878,0.142,0.502,3.72,4.82,12.27,2,2
17328.75,-0.869,0.165,0.48,6.59,6.78,13.79,2,2
17328.765,-0.855,0.186,0.456,6.84,9.03,15.75,2,2
17328.781,-0.843,0.207,0.44,3.81,12.63,18.37,2,2
17328.781,-0.848,0.214,0.445,0.12,16.63,23.07,2,2
17328.796,-0.843,0.196,0.459,0.18,21.39,30.58,2,2
17328.812,-0.84,0.167,0.478,4.52,26.83,38.36,2,2
17328.812,-0.865,0.14,0.473,12.67,30.98,41.81,2,2
17328.828,-0.877,0.165,0.445,17.49,34.03,38.06,2,2
17328.828,-0.864,0.207,0.416,13.61,35.58,29.82,2,2
17328.843,-0.845,0.253,0.389,1.56,34.58,20.66,2,2
17328.859,-0.831,0.266,0.383,-14.5,31.5,12.15,2,2
17328.875,-0.834,0.268,0.376,-28.96,27.28,4.7,2,2
17328.875,-0.831,0.24,0.392,-40.65,20.81,-2.62,2,2
17328.89,-0.807,0.168,0.403,-37.2,18.98,-5.89,2,2
17328.89,-0.824,0.169,0.387,-33.88,18.56,-7.11,2,2
17328.906,-0.839,0.154,0.381,-32.78,19.17,-4.79,2,2
17328.921,-0.848,0.15,0.39,-29.6,21.21,-1.5,2,2
17328.921,-0.866,0.14,0.4,-24.87,23.44,1.01,2,2
17328.937,-0.872,0.171,0.408,-21.45,23.68,1.92,2,2
17328.953,-0.83,0.193,0.397,-19.38,22.34,1.95,2,2
17328.953,-0.812,0.222,0.37,-19.35,19.9,0.52,2,2
17328.968,-0.833,0.254,0.338,-21.09,16.11,-1.95,2,2
17328.968,-0.829,0.248,0.331,-24.78,12.33,-4.21,2,2
17328.984,-0.828,0.241,0.33,-28.87,9.0,-7.17,2,2
17329.0,-0.819,0.226,0.335,-31.92,5.25,-11.29,2,2
17329.015,-0.772,0.182,0.343,-32.65,2.23,-15.44,2,2
17329.015,-0.75,0.127,0.359,-30.92,1.89,-20.33,2,2
17329.031,-0.749,0.072,0.387,-26.12,2.84,-24.87,2,2
17329.031,-0.754,0.065,0.4,-19.41,2.78,-28.87,2,2
17329.046,-0.769,0.115,0.408,-15.66,1.16,-32.07,2,2
17329.062,-0.79,0.167,0.421,-16.24,-0.82,-33.36,2,2
17329.062,-0.847,0.202,0.417,-21.3,-2.99,-32.81,2,2
17329.078,-0.904,0.21,0.429,-28.78,-6.38,-29.73,2,2
17329.078,-0.94,0.19,0.44,-34.0,-9.89,-24.08,2,2
17329.093,-0.959,0.14,0.461,-35.1,-11.26,-16.14,2,2
17329.109,-0.952,0.082,0.479,-30.7,-9.0,-4.27,2,2
17329.109,-0.903,0.058,0.478,-20.72,-4.58,9.67,2,2
17329.125,-0.821,0.045,0.468,-7.69,2.32,22.92,2,2
17329.14,-0.784,0.038,0.454,3.72,10.74,32.72,2,2
17329.14,-0.785,0.049,0.429,11.11,17.55,37.54,2,2
17329.156,-0.802,0.067,0.407,14.25,21.97,37.72,2,2
17329.171,-0.832,0.089,0.382,13.09,23.8,33.45,2,2
17329.171,-0.87,0.12,0.361,7.45,22.1,26.67,2,2
17329.187,-0.859,0.15,0.352,-1.1,17.55,19.17,2,2
17329.203,-0.791,0.172,0.34,-11.47,11.93,11.54,2,2
17329.203,-0.723,0.167,0.347,-21.3,9.16,5.52,2,2
17329.218,-0.693,0.138,0.371,-26.95,11.99,2.35,2,2
17329.218,-0.711,0.131,0.392,-27.56,17.55,1.01,2,2
17329.234,-0.767,0.121,0.403,-24.81,22.43,1.31,2,2
17329.25,-0.841,0.097,0.415,-19.87,26.34,2.81,2,2
17329.25,-0.897,0.092,0.429,-13.82,29.08,4.88,2,2
17329.265,-0.934,0.097,0.429,-8.33,30.76,5.4,2,2
17329.281,-0.961,0.123,0.419,-5.68,31.1,3.11,2,2
17329.281,-0.965,0.149,0.407,-7.08,30.37,0.21,2,2
17329.296,-0.98,0.169,0.403,-11.08,29.05,-3.39,2,2
17329.312,-0.983,0.176,0.407,-15.5,27.77,-5.04,2,2
17329.312,-1.004,0.179,0.412,-17.58,27.22,-4.12,2,2
17329.328,-1.027,0.182,0.413,-15.9,26.4,-1.98,2,2
17329.343,-1.02,0.186,0.414,-12.42,25.57,1.86,2,2
17329.343,-1.017,0.186,0.397,-8.27,25.27,6.2,2,2
17329.359,-1.017,0.184,0.369,-5.98,25.06,9.86,2,2
17329.359,-1.025,0.186,0.345,-6.26,24.78,12.73,2,2
17329.375,-1.024,0.193,0.34,-8.24,24.9,14.19,2,2
17329.39,-1.015,0.202,0.341,-9.22,24.48,13.79,2,2
17329.406,-0.996,0.186,0.357,-10.32,24.02,14.31,2,2
17329.406,-0.989,0.175,0.372,-11.14,24.57,16.11,2,2
17329.421,-0.988,0.168,0.379,-9.89,25.24,18.25,2,2
17329.421,-0.975,0.17,0.382,-7.81,24.87,20.48,2,2
17329.437,-0.969,0.19,0.382,-5.95,23.5,22.13,2,2
17329.437,-0.969,0.207,0.375,-5.83,20.57,23.62,2,2
17329.453,-0.967,0.208,0.372,-6.65,17.61,24.84,2,2
17329.468,-0.95,0.22,0.375,-7.72,15.35,25.42,2,2
17329.468,-0.922,0.223,0.375,-9.03,13.09,25.24,2,2
17329.484,-0.893,0.194,0.381,-9.22,11.99,25.73,2,2
17329.5,-0.878,0.18,0.37,-7.69,11.81,26.22,2,2
17329.5,-0.886,0.186,0.355,-5.43,11.54,25.48,2,2
17329.515,-0.896,0.183,0.353,-4.79,10.47,23.47,2,2
17329.531,-0.904,0.196,0.345,-5.98,8.7,20.91,2,2
17329.546,-0.912,0.218,0.342,-8.51,5.95,17.7,2,2
17329.546,-0.903,0.236,0.343,-12.27,2.69,14.44,2,2
17329.562,-0.891,0.247,0.343,-16.21,-0.46,11.9,2,2
17329.562,-0.883,0.25,0.358,-19.26,-2.78,11.47,2,2
17329.578,-0.887,0.248,0.366,-20.45,-5.58,13.21,2,2
17329.593,-0.899,0.243,0.364,-18.89,-10.13,15.87,2,2
17329.593,-0.902,0.22,0.362,-16.97,-15.26,19.32,2,2
17329.609,-0.899,0.186,0.362,-14.1,-18.98,23.22,2,2
17329.609,-0.887,0.185,0.356,-10.68,-21.55,26.61,2,2
17329.625,-0.871,0.19,0.357,-9.13,-23.44,28.84,2,2
17329.64,-0.855,0.196,0.363,-9.74,-24.87,30.34,2,2
17329.64,-0.853,0.2,0.367,-11.32,-26.67,30.76,2,2
17329.656,-0.852,0.211,0.378,-13.21,-29.15,30.64,2,2
17329.671,-0.847,0.21,0.391,-14.8,-31.83,30.85,2,2
17329.671,-0.842,0.181,0.398,-13.31,-32.96,30.61,2,2
17329.687,-0.835,0.169,0.399,-9.4,-31.59,30.09,2,2
17329.703,-0.838,0.17,0.398,-4.91,-28.66,28.99,2,2
17329.703,-0.854,0.168,0.392,0.34,-24.17,27.25,2,2
17329.718,-0.852,0.181,0.383,4.18,-19.23,25.67,2,2
17329.718,-0.84,0.199,0.369,6.2,-13.64,23.47,2,2
17329.734,-0.835,0.217,0.357,6.26,-6.96,20.26,2,2
17329.75,-0.833,0.24,0.366,4.55,-0.31,17.03,2,2
17329.75,-0.84,0.255,0.382,2.26,5.83,13.52,2,2
17329.765,-0.859,0.275,0.4,0.43,10.62,9.89,2,2
17329.781,-0.871,0.287,0.417,-1.31,13.0,6.68,2,2
17329.781,-0.874,0.282,0.436,-2.38,13.73,4.06,2,2
17329.796,-0.858,0.288,0.437,-2.32,13.25,1.98,2,2
17329.812,-0.849,0.297,0.428,-1.19,12.76,-0.58,2,2
17329.812,-0.857,0.307,0.423,-1.19,12.97,-2.81,2,2
17329.828,-0.874,0.313,0.42,-2.72,13.4,-4.3,2,2
17329.828,-0.905,0.327,0.425,-4.67,13.37,-5.89,2,2
17329.843,-0.924,0.325,0.436,-6.13,12.76,-6.62,2,2
17329.859,-0.926,0.322,0.441,-7.08,11.87,-6.56,2,2
17329.859,-0.911,0.327,0.435,-7.05,9.58,-5.65,2,2
17329.875,-0.898,0.32,0.429,-6.35,9.13,-4.97,2,2
17329.89,-0.894,0.322,0.42,-5.77,8.61,-4.67,2,2
17329.89,-0.903,0.321,0.393,-5.55,8.51,-4.58,2,2
17329.906,-0.906,0.332,0.39,-6.13,8.82,-4.85,2,2
17329.921,-0.899,0.331,0.387,-8.27,8.79,-5.58,2,2
17329.921,-0.891,0.313,0.385,-10.53,9.31,-6.32,2,2
17329.937,-0.887,0.307,0.387,-12.3,9.98,-7.08,2,2
17329.953,-0.886,0.3,0.386,-13.46,11.23,-8.06,2,2
17329.953,-0.898,0.292,0.388,-14.19,13.18,-8.39,2,2
17329.968,-0.906,0.295,0.392,-14.68,14.68,-7.87,2,2
17329.968,-0.916,0.289,0.389,-14.37,15.81,-6.65,2,2
17329.984,-0.916,0.289,0.388,-13.95,16.36,-5.1,2,2
17330.0,-0.903,0.284,0.388,-13.46,16.63,-3.6,2,2
17330.0,-0.898,0.27,0.386,-12.85,17.58,-2.38,2,2
17330.015,-0.893,0.268,0.385,-12.02,18.74,-1.16,2,2
17330.031,-0.903,0.266,0.387,-10.77,20.02,0.12,2,2
17330.031,-0.913,0.269,0.388,-9.95,20.26,1.04,2,2
17330.046,-0.909,0.265,0.386,-9.77,18.83,1.34,2,2
17330.062,-0.901,0.261,0.386,-10.04,16.85,0.89,2,2
17330.062,-0.891,0.262,0.375,-10.83,15.14,0.61,2,2
17330.078,-0.88,0.248,0.372,-11.75,13.7,0.76,2,2
17330.078,-0.877,0.224,0.373,-11.05,12.97,1.59,2,2
17330.093,-0.882,0.215,0.371,-8.76,12.39,2.26,2,2
17330.109,-0.888,0.216,0.361,-6.59,11.57,1.71,2,2
17330.109,-0.902,0.215,0.354,-5.83,10.56,0.4,2,2
17330.125,-0.902,0.224,0.35,-7.05,8.97,-1.04,2,2
17330.14,-0.883,0.227,0.339,-8.85,7.45,-3.23,2,2
17330.14,-0.869,0.216,0.329,-10.56,6.62,-5.28,2,2
17330.156,-0.859,0.215,0.324,-11.87,6.65,-6.47,2,2
17330.171,-0.858,0.208,0.323,-10.83,7.81,-7.45,2,2
17330.171,-0.859,0.203,0.321,-9.06,9.4,-8.48,2,2
17330.187,-0.859,0.203,0.321,-7.87,10.71,-9.28,2,2
17330.187,-0.866,0.203,0.322,-6.59,11.9,-9.52,2,2
17330.203,-0.87,0.204,0.334,-6.13,12.88,-8.55,2,2
17330.218,-0.881,0.192,0.347,-4.88,13.52,-6.53,2,2
17330.218,-0.889,0.182,0.354,-1.71,13.25,-4.46,2,2
17330.234,-0.886,0.176,0.356,2.32,12.54,-2.96,2,2
17330.25,-0.891,0.173,0.36,6.53,12.02,-2.08,2,2
17330.25,-0.897,0.179,0.362,9.95,11.05,-2.04,2,2
17330.265,-0.895,0.188,0.363,11.32,9.49,-3.08,2,2
17330.281,-0.895,0.202,0.355,10.32,7.78,-4.97,2,2
17330.281,-0.895,0.205,0.347,7.84,6.44,-6.9,2,2
17330.296,-0.889,0.196,0.345,5.49,5.37,-8.36,2,2
17330.312,-0.88,0.188,0.343,4.73,4.49,-9.34,2,2
17330.312,-0.877,0.184,0.34,5.49,4.43,-9.09,2,2
17330.328,-0.878,0.184,0.339,7.81,4.33,-8.51,2,2
17330.343,-0.877,0.187,0.339,10.41,3.72,-7.63,2,2
17330.343,-0.869,0.183,0.336,13.12,2.53,-6.96,2,2
17330.359,-0.86,0.185,0.32,15.72,1.46,-6.1,2,2
17330.359,-0.855,0.185,0.302,17.82,1.34,-4.61,2,2
17330.375,-0.858,0.174,0.279,19.96,2.17,-3.75,2,2
17330.39,-0.871,0.169,0.254,22.1,4.39,-3.57,2,2
17330.39,-0.915,0.178,0.234,23.35,7.87,-4.67,2,2
17330.406,-0.914,0.198,0.229,20.91,12.21,-6.5,2,2
17330.421,-0.938,0.199,0.23,17.55,16.6,-9.31,2,2
17330.421,-0.948,0.214,0.238,14.04,19.87,-11.75,2,2
17330.437,-0.946,0.227,0.251,10.32,22.34,-13.76,2,2
17330.453,-0.946,0.232,0.263,7.93,24.41,-14.83,2,2
17330.453,-0.946,0.241,0.28,7.66,25.54,-14.22,2,2
17330.468,-0.954,0.252,0.299,9.06,25.57,-11.6,2,2
17330.468,-0.969,0.236,0.31,12.85,23.87,-7.72,2,2
17330.484,-0.986,0.222,0.31,18.49,20.75,-3.85,2,2
17330.5,-0.99,0.222,0.312,23.38,16.66,-0.7,2,2
17330.5,-0.988,0.215,0.292,27.1,12.67,1.53,2,2
17330.515,-0.98,0.208,0.275,29.36,9.61,3.54,2,2
17330.531,-0.962,0.195,0.258,30.79,7.17,4.91,2,2
17330.531,-0.952,0.186,0.24,32.14,5.95,4.64,2,2
17330.546,-0.951,0.183,0.225,32.84,5.8,3.27,2,2
17330.562,-0.957,0.188,0.215,32.35,6.23,0.67,2,2
17330.562,-0.965,0.201,0.214,30.24,7.23,-2.99,2,2
17330.578,-0.978,0.213,0.222,26.4,7.97,-6.96,2,2
17330.578,-0.995,0.226,0.238,22.0,7.72,-10.5,2,2
17330.593,-1.006,0.245,0.26,18.49,6.53,-12.57,2,2
17330.609,-1.003,0.251,0.281,16.33,4.03,-13.03,2,2
17330.609,-1.005,0.256,0.295,16.54,0.21,-12.54,2,2
17330.625,-1.009,0.264,0.307,18.25,-4.94,-11.51,2,2
17330.64,-1.009,0.26,0.31,20.78,-10.35,-9.86,2,2
17330.656,-1.014,0.252,0.304,23.99,-15.35,-7.57,2,2
17330.656,-1.008,0.248,0.297,26.98,-19.07,-4.91,2,2
17330.671,-0.995,0.243,0.288,29.02,-22.03,-2.99,2,2
17330.671,-0.966,0.235,0.278,30.18,-24.35,-1.92,2,2
17330.687,-0.936,0.231,0.265,30.06,-25.64,-2.01,2,2
17330.703,-0.914,0.224,0.25,29.24,-25.82,-3.3,2,2
17330.703,-0.894,0.214,0.238,27.44,-25.33,-5.83,2,2
17330.718,-0.877,0.21,0.23,25.24,-24.05,-9.58,2,2
17330.718,-0.871,0.224,0.225,22.37,-21.85,-13.92,2,2
17330.734,-0.88,0.225,0.221,18.43,-19.01,-17.4,2,2
17330.75,-0.883,0.212,0.232,15.63,-15.2,-19.01,2,2
17330.75,-0.876,0.219,0.242,15.44,-10.41,-19.14,2,2
17330.765,-0.87,0.222,0.241,16.45,-5.49,-17.98,2,2
17330.781,-0.861,0.223,0.248,17.82,-0.4,-15.32,2,2
17330.796,-0.856,0.227,0.25,19.87,4.12,-12.54,2,2
17330.796,-0.858,0.223,0.249,22.03,8.18,-10.5,2,2
17330.796,-0.865,0.207,0.255,24.02,11.81,-9.22,2,2
17330.812,-0.88,0.185,0.259,25.48,15.32,-8.61,2,2
17330.828,-0.894,0.185,0.265,26.12,18.31,-9.52,2,2
17330.843,-0.896,0.189,0.278,25.57,20.51,-11.93,2,2
17330.843,-0.909,0.189,0.286,21.21,21.76,-18.19,2,2
17330.859,-0.914,0.199,0.293,18.65,20.42,-19.75,2,2
17330.859,-0.922,0.201,0.307,17.58,18.52,-19.07,2,2
17330.875,-0.938,0.196,0.312,19.23,15.84,-16.75,2,2
17330.89,-1.015,0.163,0.294,23.32,12.91,-14.56,2,2
17330.89,-1.033,0.161,0.283,26.4,10.62,-12.67,2,2
17330.906,-1.03,0.152,0.269,27.53,10.07,-11.44,2,2
17330.921,-1.021,0.15,0.255,28.08,10.59,-10.44,2,2
17330.921,-0.993,0.151,0.246,27.86,11.96,-9.28,2,2
17330.937,-0.953,0.149,0.24,27.31,14.04,-8.27,2,2
17330.953,-0.923,0.147,0.237,27.68,15.9,-7.97,2,2
17330.953,-0.91,0.146,0.227,29.05,17.3,-7.26,2,2
17330.968,-0.906,0.149,0.222,30.46,18.49,-5.83,2,2
17330.984,-0.909,0.157,0.221,31.92,19.56,-5.55,2,2
17330.984,-0.894,0.169,0.224,31.98,19.99,-6.65,2,2
17331.0,-0.884,0.175,0.225,30.88,19.68,-8.73,2,2
17331.015,-0.88,0.169,0.232,29.21,18.95,-9.98,2,2
17331.015,-0.854,0.172,0.244,27.65,18.19,-9.74,2,2
17331.031,-0.86,0.186,0.226,27.86,16.17,-10.8,2,2
17331.031,-0.899,0.162,0.222,28.23,15.66,-12.05,2,2
17331.046,-0.919,0.162,0.229,26.73,15.66,-12.97,2,2
17331.062,-0.942,0.139,0.218,26.8,17.46,-13.43,2,2
17331.062,-0.951,0.128,0.217,25.24,20.81,-12.36,2,2
17331.078,-0.948,0.135,0.221,23.99,24.87,-11.08,2,2
17331.093,-0.941,0.147,0.224,22.68,27.77,-11.44,2,2
17331.093,-0.93,0.162,0.226,20.78,29.33,-12.3,2,2
17331.109,-0.922,0.178,0.229,18.77,29.3,-13.76,2,2
17331.109,-0.913,0.188,0.228,16.91,28.41,-16.14,2,2
17331.125,-0.913,0.196,0.229,14.68,27.44,-20.69,2,2
17331.14,-0.91,0.223,0.247,11.26,27.01,-27.89,2,2
17331.14,-0.922,0.24,0.256,5.4,24.66,-36.44,2,2
17331.156,-0.941,0.226,0.269,-1.31,19.41,-42.85,2,2
17331.171,-0.961,0.191,0.282,-5.07,12.73,-43.92,2,2
17331.171,-0.974,0.159,0.278,-4.61,5.89,-39.43,2,2
17331.187,-0.985,0.146,0.262,-1.68,0.18,-30.58,2,2
17331.187,-0.974,0.162,0.255,-0.12,-4.49,-19.56,2,2
17331.203,-0.956,0.162,0.223,1.62,-8.24,-9.34,2,2
17331.218,-0.945,0.161,0.175,3.91,-10.71,-1.1,2,2
17331.218,-0.936,0.156,0.142,4.91,-12.27,5.65,2,2
17331.234,-0.923,0.145,0.114,5.52,-12.94,9.77,2,2
17331.25,-0.913,0.149,0.078,6.23,-13.31,9.95,2,2
17331.25,-0.925,0.143,0.054,5.58,-12.36,6.65,2,2
17331.265,-0.944,0.126,0.054,3.36,-9.74,2.96,2,2
17331.281,-0.961,0.107,0.061,1.25,-6.23,1.04,2,2
17331.281,-0.972,0.085,0.084,0.95,-1.68,1.1,2,2
17331.296,-0.985,0.078,0.104,2.32,2.2,2.41,2,2
17331.312,-0.992,0.073,0.118,4.36,4.88,4.49,2,2
17331.312,-0.995,0.072,0.126,7.02,5.92,5.8,2,2
17331.328,-0.999,0.084,0.125,8.7,5.28,5.68,2,2
17331.328,-1.009,0.09,0.125,8.42,4.33,4.55,2,2
17331.343,-1.024,0.087,0.114,7.54,3.23,2.62,2,2
17331.359,-1.033,0.091,0.1,6.9,2.38,-0.06,2,2
17331.359,-1.03,0.108,0.095,5.62,2.11,-3.78,2,2
17331.375,-1.027,0.117,0.089,3.57,2.69,-7.08,2,2
17331.39,-1.016,0.119,0.096,1.65,3.88,-8.76,2,2
17331.39,-1.0,0.123,0.11,1.07,4.76,-9.34,2,2
17331.406,-0.983,0.135,0.12,1.77,5.01,-9.7,2,2
17331.421,-0.975,0.148,0.131,1.86,4.33,-9.8,2,2
17331.421,-0.975,0.153,0.14,1.5,2.62,-8.76,2,2
17331.437,-0.977,0.151,0.15,1.13,0.67,-6.71,2,2
17331.453,-0.969,0.149,0.154,0.46,-1.01,-4.0,2,2
17331.453,-0.957,0.15,0.147,-0.55,-2.75,-1.5,2,2
17331.468,-0.938,0.146,0.144,-1.74,-4.15,1.22,2,2
17331.468,-0.919,0.14,0.133,-2.2,-5.01,3.3,2,2
17331.484,-0.904,0.132,0.118,-2.26,-5.07,4.21,2,2
17331.5,-0.898,0.127,0.11,-2.5,-4.06,4.0,2,2
17331.5,-0.893,0.127,0.101,-2.99,-2.26,2.9,2,2
17331.515,-0.897,0.132,0.1,-4.7,-0.46,0.76,2,2
17331.531,-0.904,0.144,0.106,-8.18,1.1,-1.59,2,2
17331.531,-0.91,0.136,0.12,-10.9,2.23,-2.81,2,2
17331.546,-0.919,0.131,0.126,-11.87,3.02,-2.35,2,2
17331.562,-0.932,0.134,0.134,-11.75,3.11,-1.16,2,2
17331.562,-0.941,0.137,0.132,-10.47,2.41,0.76,2,2
17331.578,-0.952,0.142,0.132,-9.77,1.34,2.96,2,2
17331.593,-0.96,0.143,0.13,-9.49,0.09,5.83,2,2
17331.593,-0.961,0.155,0.119,-9.25,-1.77,7.81,2,2
17331.609,-0.959,0.152,0.113,-9.52,-3.75,8.55,2,2
17331.609,-0.961,0.131,0.106,-9.19,-4.73,8.58,2,2
17331.625,-0.964,0.131,0.089,-7.87,-4.88,7.97,2,2
17331.64,-0.964,0.139,0.072,-7.48,-3.88,6.81,2,2
17331.64,-0.968,0.139,0.069,-8.61,-1.8,5.55,2,2
17331.656,-0.975,0.137,0.071,-9.92,0.46,4.52,2,2
17331.671,-0.975,0.133,0.082,-10.5,2.96,3.75,2,2
17331.671,-0.975,0.139,0.087,-10.1,4.85,2.75,2,2
17331.687,-0.975,0.151,0.089,-10.1,5.74,1.95,2,2
17331.703,-0.967,0.157,0.096,-10.5,5.83,1.71,2,2
17331.703,-0.957,0.15,0.101,-10.5,5.65,1.92,2,2
17331.718,-0.95,0.137,0.104,-9.55,5.8,2.78,2,2
17331.734,-0.943,0.126,0.096,-7.6,6.32,2.81,2,2
17331.734,-0.942,0.115,0.089,-5.4,8.03,1.56,2,2
17331.75,-0.945,0.114,0.073,-3.72,10.5,-1.25,2,2
17331.75,-0.951,0.131,0.068,-4.12,12.82,-4.91,2,2
17331.765,-0.962,0.145,0.066,-5.83,14.47,-8.24,2,2
17331.781,-0.965,0.159,0.08,-8.42,15.56,-9.98,2,2
17331.796,-0.969,0.165,0.098,-9.95,15.84,-10.47,2,2
17331.796,-0.97,0.167,0.111,-10.1,14.95,-9.74,2,2
17331.812,-0.973,0.173,0.117,-10.28,13.03,-7.63,2,2
17331.812,-0.979,0.179,0.12,-10.1,10.47,-4.58,2,2
17331.828,-0.981,0.189,0.119,-10.8,3.72,1.56,2,2
17331.843,-0.98,0.19,0.109,-12.12,0.58,3.6,2,2
17331.843,-0.987,0.178,0.099,-13.43,-1.5,5.58,2,2
17331.859,-0.989,0.162,0.098,-13.58,-2.56,7.42,2,2
17331.859,-0.97,0.144,0.082,-12.7,-3.11,8.67,2,2
17331.875,-0.957,0.14,0.071,-12.24,-3.2,9.22,2,2
17331.89,-0.954,0.134,0.063,-11.78,-3.54,8.64,2,2
17331.906,-0.949,0.136,0.054,-11.47,-3.3,7.39,2,2
17331.906,-0.949,0.133,0.048,-12.15,-2.66,5.58,2,2
17331.921,-0.951,0.131,0.048,-13.28,-2.11,3.6,2,2
17331.921,-0.965,0.125,0.057,-13.18,-1.16,2.56,2,2
17331.937,-0.974,0.116,0.067,-11.96,-0.34,2.17,2,2
17331.953,-0.98,0.12,0.072,-10.35,0.06,2.11,2,2
17331.953,-0.988,0.129,0.069,-9.16,-0.12,1.92,2,2
17331.968,-0.994,0.133,0.069,-8.7,-0.58,1.77,2,2
17331.968,-0.995,0.134,0.067,-8.55,-0.95,1.77,2,2
17331.984,-0.995,0.134,0.065,-8.09,-1.1,1.71,2,2
17332.0,-0.995,0.132,0.073,-7.48,-0.98,1.74,2,2
17332.0,-0.992,0.141,0.076,-6.1,-0.85,1.31,2,2
17332.015,-0.986,0.155,0.074,-5.46,-1.43,0.34,2,2
17332.031,-0.978,0.16,0.073,-6.04,-1.77,-0.12,2,2
17332.031,-0.971,0.163,0.079,-6.99,-2.5,0.06,2,2
17332.046,-0.966,0.16,0.076,-7.17,-3.48,0.09,2,2
17332.062,-0.964,0.154,0.074,-6.41,-3.69,0.46,2,2
17332.062,-0.96,0.146,0.077,-5.37,-3.05,1.25,2,2
17332.078,-0.962,0.143,0.072,-4.18,-2.29,1.71,2,2
17332.078,-0.959,0.145,0.059,-3.72,-1.34,1.83,2,2
17332.093,-0.953,0.144,0.065,-4.21,-0.46,2.01,2,2
17332.109,-0.954,0.14,0.066,-4.52,0.31,2.08,2,2
17332.109,-0.96,0.137,0.074,-4.36,1.4,2.08,2,2
17332.125,-0.966,0.141,0.082,-3.23,2.5,2.14,2,2
17332.14,-0.973,0.153,0.082,-2.35,2.72,1.83,2,2
17332.14,-0.976,0.158,0.092,-2.81,2.2,1.89,2,2
17332.156,-0.974,0.152,0.1,-3.11,1.31,2.26,2,2
17332.171,-0.971,0.143,0.097,-2.72,-0.06,2.87,2,2
17332.187,-0.969,0.135,0.098,-2.01,-1.07,3.39,2,2
17332.187,-0.971,0.134,0.097,-0.98,-1.89,3.2,2,2
17332.187,-0.966,0.131,0.094,-0.31,-2.87,2.5,2,2
17332.203,-0.959,0.119,0.094,-0.03,-3.45,1.8,2,2
17332.218,-0.958,0.117,0.087,0.27,-3.72,1.16,2,2
17332.218,-0.957,0.116,0.085,0.58,-3.39,0.43,2,2
17332.234,-0.955,0.112,0.083,1.16,-2.69,-0.37,2,2
17332.25,-0.953,0.114,0.074,2.32,-1.59,-1.77,2,2
17332.265,-0.954,0.115,0.073,3.17,-0.09,-3.72,2,2
17332.265,-0.961,0.114,0.08,3.42,1.31,-5.49,2,2
17332.281,-0.967,0.128,0.081,3.14,2.04,-6.62,2,2
17332.281,-0.971,0.14,0.086,2.26,2.32,-6.9,2,2
17332.296,-0.976,0.143,0.091,1.56,2.23,-6.68,2,2
17332.312,-0.975,0.149,0.092,1.04,1.8,-5.62,2,2
17332.312,-0.98,0.146,0.092,1.31,1.77,-4.39,2,2
17332.328,-0.985,0.149,0.089,1.77,1.95,-3.42,2,2
17332.343,-0.985,0.156,0.088,1.95,2.23,-2.87,2,2
17332.343,-0.986,0.15,0.089,1.74,2.5,-2.41,2,2
17332.359,-0.985,0.146,0.086,1.4,3.02,-1.95,2,2
17332.359,-0.981,0.135,0.088,1.34,3.69,-2.08,2,2
17332.375,-0.98,0.136,0.093,1.22,3.94,-2.44,2,2
17332.39,-0.98,0.143,0.097,0.7,3.27,-3.08,2,2
17332.39,-0.978,0.144,0.099,-0.12,2.17,-3.57,2,2
17332.406,-0.975,0.139,0.1,-1.25,0.73,-3.42,2,2
17332.421,-0.97,0.138,0.101,-1.98,-0.95,-2.99,2,2
17332.421,-0.968,0.133,0.096,-1.83,-1.92,-2.41,2,2
