timestamp,ax,ay,az,gx,gy,gz,orient_label,motion_label
17292.453,-0.973,0.157,0.116,-5.77,-1.74,0.21,2,2
17292.468,-0.965,0.157,0.114,-5.01,-2.29,2.29,2,2
17292.468,-0.961,0.156,0.107,-3.94,-3.17,3.48,2,2
17292.484,-0.958,0.156,0.101,-3.6,-3.33,2.53,2,2
17292.5,-0.958,0.157,0.092,-3.78,-2.78,1.16,2,2
17292.5,-0.96,0.155,0.084,-4.21,-1.37,-0.27,2,2
17292.515,-0.964,0.157,0.094,-4.06,0.4,-1.4,2,2
17292.531,-0.964,0.154,0.102,-3.85,1.68,-1.95,2,2
17292.531,-0.964,0.151,0.118,-3.63,2.26,-2.17,2,2
17292.546,-0.967,0.139,0.127,-2.69,1.86,-1.59,2,2
17292.546,-0.97,0.139,0.13,-1.34,0.85,-0.21,2,2
17292.562,-0.969,0.14,0.124,-0.67,-0.27,0.95,2,2
17292.578,-0.966,0.139,0.118,-0.55,-1.37,1.56,2,2
17292.578,-0.963,0.139,0.113,-0.82,-1.77,1.22,2,2
17292.593,-0.96,0.135,0.107,-0.95,-1.5,-0.27,2,2
17292.609,-0.958,0.139,0.103,-0.95,-1.31,-2.41,2,2
17292.609,-0.965,0.14,0.105,-1.13,-0.76,-4.03,2,2
17292.625,-0.971,0.138,0.104,-1.56,-0.37,-4.79,2,2
17292.64,-0.977,0.14,0.106,-2.29,0.03,-4.85,2,2
17292.64,-0.978,0.137,0.112,-2.29,0.24,-4.46,2,2
17292.656,-0.975,0.132,0.117,-1.77,0.55,-3.88,2,2
17292.671,-0.975,0.126,0.123,-0.4,1.13,-2.78,2,2
17292.671,-0.972,0.132,0.12,0.58,0.82,-1.59,2,2
17292.687,-0.971,0.14,0.123,0.61,0.12,-0.27,2,2
17292.687,-0.965,0.145,0.116,0.15,-0.61,0.82,2,2
17292.703,-0.958,0.149,0.103,-0.06,-1.4,1.5,2,2
17292.718,-0.958,0.154,0.099,-0.24,-1.68,1.4,2,2
17292.718,-0.956,0.154,0.098,-0.95,-1.68,0.37,2,2
17292.734,-0.953,0.155,0.099,-1.71,-1.13,-0.7,2,2
17292.75,-0.951,0.154,0.097,-1.8,-0.18,-1.31,2,2
17292.75,-0.959,0.153,0.101,-1.89,0.89,-1.43,2,2
17292.765,-0.967,0.153,0.108,-2.08,1.4,-1.13,2,2
17292.765,-0.973,0.153,0.114,-2.66,1.43,-1.04,2,2
17292.781,-0.98,0.149,0.123,-3.27,1.28,-0.64,2,2
17292.796,-0.982,0.144,0.129,-3.54,1.13,0.49,2,2
17292.796,-0.979,0.136,0.135,-3.05,1.07,2.32,2,2
17292.812,-0.969,0.132,0.142,-1.95,0.85,4.55,2,2
17292.828,-0.959,0.132,0.143,-0.95,0.43,6.5,2,2
17292.843,-0.952,0.126,0.14,-0.92,-0.21,8.03,2,2
17292.843,-0.946,0.126,0.143,-1.71,-1.07,8.91,2,2
17292.859,-0.946,0.13,0.149,-2.17,-2.01,8.94,2,2
17292.859,-0.952,0.138,0.157,-3.02,-3.42,8.58,2,2
17292.875,-0.963,0.143,0.166,-4.52,-5.55,8.58,2,2
17292.89,-0.971,0.143,0.182,-6.07,-8.03,9.64,2,2
17292.89,-0.971,0.139,0.199,-6.44,-10.38,12.12,2,2
17292.906,-0.971,0.138,0.208,-5.74,-12.79,15.44,2,2
17292.921,-0.965,0.132,0.215,-4.61,-15.35,19.04,2,2
17292.921,-0.964,0.132,0.223,-3.51,-17.7,22.58,2,2
17292.937,-0.964,0.129,0.234,-2.44,-19.9,26.09,2,2
17292.953,-0.964,0.124,0.245,-1.43,-22.52,29.73,2,2
17292.953,-0.965,0.125,0.269,-1.01,-25.09,33.45,2,2
17292.968,-0.965,0.128,0.29,-0.43,-28.32,37.57,2,2
17292.968,-0.963,0.126,0.311,0.24,-32.2,42.88,2,2
17292.984,-0.949,0.118,0.319,1.13,-36.32,49.38,2,2
17293.0,-0.94,0.109,0.32,3.39,-39.7,56.06,2,2
17293.0,-0.935,0.1,0.31,7.26,-42.45,60.67,2,2
17293.015,-0.926,0.117,0.302,10.16,-44.22,61.37,2,2
17293.031,-0.911,0.139,0.287,11.14,-44.68,58.11,2,2
17293.031,-0.903,0.16,0.264,9.19,-43.76,51.45,2,2
17293.046,-0.89,0.184,0.25,4.73,-41.93,43.34,2,2
17293.046,-0.865,0.21,0.242,0.64,-39.25,34.49,2,2
17293.062,-0.841,0.234,0.231,-2.72,-36.01,24.84,2,2
17293.078,-0.827,0.261,0.231,-6.29,-31.89,15.47,2,2
17293.093,-0.815,0.286,0.255,-10.01,-28.14,7.66,2,2
17293.093,-0.809,0.312,0.278,-13.76,-26.34,2.35,2,2
17293.109,-0.812,0.334,0.3,-17.73,-25.57,0.03,2,2
17293.109,-0.817,0.358,0.32,-21.15,-25.79,0.52,2,2
17293.125,-0.83,0.369,0.332,-23.01,-26.03,3.33,2,2
17293.14,-0.842,0.367,0.339,-22.95,-25.79,7.35,2,2
17293.14,-0.851,0.365,0.335,-21.52,-24.69,12.15,2,2
17293.156,-0.86,0.365,0.322,-19.32,-22.31,17.33,2,2
17293.171,-0.871,0.362,0.303,-17.18,-18.71,21.76,2,2
17293.171,-0.877,0.359,0.292,-15.99,-13.98,25.18,2,2
17293.187,-0.873,0.358,0.289,-16.11,-8.39,26.98,2,2
17293.187,-0.866,0.352,0.283,-17.21,-2.11,27.34,2,2
17293.203,-0.86,0.338,0.274,-18.68,4.58,26.28,2,2
17293.218,-0.857,0.331,0.272,-20.69,11.51,24.11,2,2
17293.218,-0.857,0.331,0.287,-23.26,17.46,21.7,2,2
17293.234,-0.858,0.323,0.3,-25.91,21.39,19.44,2,2
17293.25,-0.858,0.317,0.311,-27.99,24.17,18.07,2,2
17293.265,-0.86,0.325,0.321,-29.02,25.73,17.37,2,2
17293.265,-0.862,0.328,0.336,-29.73,26.25,17.33,2,2
17293.281,-0.868,0.329,0.343,-30.06,25.82,17.58,2,2
17293.281,-0.877,0.332,0.336,-29.42,24.66,17.76,2,2
17293.312,-0.897,0.332,0.321,-27.65,21.36,18.07,2,2
17293.312,-0.906,0.333,0.309,-26.7,19.87,17.79,2,2
17293.328,-0.908,0.326,0.294,-26.18,18.31,16.94,2,2
17293.343,-0.911,0.319,0.281,-26.52,17.06,15.41,2,2
17293.343,-0.918,0.319,0.274,-27.34,15.96,13.73,2,2
17293.359,-0.931,0.315,0.265,-28.2,15.17,11.93,2,2
17293.359,-0.945,0.303,0.257,-28.66,14.13,10.35,2,2
17293.375,-0.955,0.291,0.251,-28.05,13.0,9.31,2,2
17293.39,-0.963,0.284,0.25,-26.18,12.21,8.39,2,2
17293.39,-0.97,0.282,0.251,-23.65,11.75,8.0,2,2
17293.406,-0.981,0.284,0.248,-21.94,11.32,8.12,2,2
17293.421,-0.987,0.275,0.253,-20.33,10.71,9.37,2,2
17293.421,-0.994,0.272,0.258,-17.43,9.52,10.74,2,2
17293.437,-0.998,0.277,0.251,-13.67,7.81,11.75,2,2
17293.437,-1.007,0.277,0.247,-9.92,5.58,12.39,2,2
17293.453,-1.016,0.285,0.239,-6.59,2.38,12.24,2,2
17293.468,-1.045,0.301,0.218,-3.42,-8.88,12.97,2,2
17293.484,-1.058,0.317,0.202,-3.08,-11.87,12.79,2,2
17293.5,-1.06,0.324,0.193,-2.44,-14.01,11.87,2,2
17293.5,-1.054,0.334,0.191,-1.56,-16.36,9.86,2,2
17293.515,-1.061,0.36,0.185,-1.83,-19.68,7.05,2,2
17293.531,-1.064,0.381,0.184,-4.03,-23.87,4.76,2,2
17293.531,-1.058,0.392,0.191,-6.81,-28.47,3.75,2,2
17293.546,-1.046,0.405,0.193,-8.7,-32.5,4.06,2,2
17293.546,-1.017,0.402,0.206,-8.82,-35.68,6.35,2,2
17293.562,-0.987,0.391,0.219,-6.26,-38.39,9.64,2,2
17293.578,-0.96,0.384,0.226,-1.65,-41.14,13.28,2,2
17293.578,-0.931,0.382,0.219,4.58,-43.18,17.12,2,2
17293.593,-0.914,0.387,0.203,10.68,-45.29,20.91,2,2
17293.609,-0.909,0.395,0.182,14.92,-47.3,23.71,2,2
17293.609,-0.902,0.402,0.167,16.14,-48.68,25.12,2,2
17293.625,-0.893,0.392,0.16,14.65,-48.95,24.23,2,2
17293.64,-0.848,0.372,0.172,6.74,-47.18,15.02,2,2
17293.656,-0.841,0.364,0.186,1.19,-46.21,9.37,2,2
17293.671,-0.838,0.354,0.19,-3.3,-46.02,5.43,2,2
17293.671,-0.834,0.355,0.209,-5.68,-45.29,4.3,2,2
17293.687,-0.825,0.36,0.225,-5.68,-44.43,6.23,2,2
17293.687,-0.835,0.359,0.229,-3.23,-43.31,10.59,2,2
17293.703,-0.844,0.356,0.227,1.65,-42.63,15.93,2,2
17293.718,-0.846,0.356,0.232,8.03,-42.36,20.91,2,2
17293.734,-0.845,0.353,0.232,14.5,-42.3,24.48,2,2
17293.734,-0.843,0.349,0.228,19.71,-43.0,26.43,2,2
17293.75,-0.826,0.343,0.229,23.32,-45.11,26.64,2,2
17293.75,-0.805,0.35,0.223,24.93,-47.94,25.09,2,2
17293.765,-0.805,0.355,0.219,25.12,-51.33,22.4,2,2
17293.781,-0.808,0.351,0.222,24.93,-54.93,19.78,2,2
17293.781,-0.822,0.36,0.222,25.21,-57.44,17.61,2,2
17293.796,-0.838,0.367,0.222,26.28,-57.68,16.39,2,2
17293.812,-0.85,0.374,0.218,28.23,-55.45,16.79,2,2
17293.812,-0.867,0.387,0.209,31.4,-52.1,17.76,2,2
17293.828,-0.86,0.397,0.211,34.88,-48.16,18.16,2,2
17293.828,-0.863,0.403,0.215,38.64,-42.97,17.12,2,2
17293.843,-0.879,0.411,0.22,42.18,-37.23,15.81,2,2
17293.859,-0.886,0.428,0.23,45.66,-31.22,15.02,2,2
17293.859,-0.903,0.458,0.241,49.04,-24.84,13.79,2,2
17293.875,-0.919,0.494,0.257,50.87,-19.23,11.54,2,2
17293.89,-0.924,0.527,0.287,50.23,-14.56,7.39,2,2
17293.89,-0.903,0.546,0.329,47.79,-10.99,2.38,2,2
17293.906,-0.889,0.543,0.36,45.81,-9.37,-2.69,2,2
17293.921,-0.87,0.538,0.376,44.62,-11.02,-7.51,2,2
17293.921,-0.833,0.534,0.386,43.82,-14.8,-12.15,2,2
17293.937,-0.818,0.523,0.395,42.7,-19.68,-16.05,2,2
17293.937,-0.826,0.52,0.398,40.53,-24.93,-19.75,2,2
17293.953,-0.822,0.53,0.399,36.26,-29.91,-23.32,2,2
17293.968,-0.845,0.541,0.399,31.19,-32.59,-25.18,2,2
17293.984,-0.873,0.519,0.417,28.57,-31.8,-22.52,2,2
17293.984,-0.868,0.494,0.443,31.86,-29.45,-16.66,2,2
17294.0,-0.84,0.48,0.458,41.23,-26.67,-10.19,2,2
17294.0,-0.805,0.472,0.453,53.87,-24.54,-4.39,2,2
17294.015,-0.767,0.483,0.429,64.46,-24.48,0.27,2,2
17294.031,-0.748,0.499,0.406,70.89,-26.61,2.47,2,2
17294.031,-0.745,0.51,0.39,71.99,-30.61,0.43,2,2
17294.046,-0.737,0.522,0.378,65.58,-36.29,-7.14,2,2
17294.046,-0.707,0.519,0.372,52.1,-42.85,-19.53,2,2
17294.062,-0.652,0.49,0.385,33.11,-50.97,-32.62,2,2
17294.078,-0.644,0.455,0.374,14.71,-61.34,-42.91,2,2
17294.078,-0.652,0.412,0.368,3.02,-71.57,-47.94,2,2
17294.093,-0.694,0.386,0.366,-0.21,-77.79,-49.78,2,2
17294.109,-0.742,0.402,0.366,1.77,-77.73,-51.15,2,2
17294.125,-0.778,0.394,0.373,6.23,-70.99,-50.14,2,2
17294.125,-0.789,0.387,0.398,13.06,-60.98,-46.54,2,2
17294.14,-0.776,0.398,0.4,22.64,-50.69,-40.77,2,2
17294.14,-0.75,0.411,0.394,33.48,-41.14,-34.85,2,2
17294.156,-0.716,0.418,0.402,43.03,-33.57,-30.24,2,2
17294.171,-0.683,0.437,0.388,47.7,-28.93,-29.11,2,2
17294.171,-0.682,0.478,0.396,45.01,-26.46,-30.21,2,2
17294.187,-0.696,0.455,0.394,42.21,-26.86,-32.56,2,2
17294.203,-0.714,0.462,0.394,35.19,-29.11,-35.95,2,2
17294.203,-0.718,0.471,0.407,25.45,-31.34,-39.4,2,2
17294.218,-0.733,0.448,0.41,16.17,-32.01,-43.4,2,2
17294.218,-0.742,0.433,0.422,7.39,-31.22,-46.78,2,2
17294.234,-0.713,0.428,0.445,0.15,-29.51,-48.65,2,2
17294.25,-0.703,0.419,0.446,-4.61,-28.96,-49.17,2,2
17294.25,-0.699,0.405,0.435,-6.5,-30.88,-48.04,2,2
17294.265,-0.682,0.389,0.435,-6.04,-33.81,-44.92,2,2
17294.281,-0.666,0.379,0.439,-4.36,-35.86,-41.81,2,2
17294.296,-0.657,0.365,0.434,-1.98,-36.71,-39.74,2,2
17294.296,-0.66,0.358,0.415,-0.46,-36.96,-39.09,2,2
17294.312,-0.679,0.371,0.404,-1.83,-33.85,-39.86,2,2
17294.328,-0.682,0.379,0.409,-3.27,-30.4,-40.04,2,2
17294.328,-0.688,0.382,0.416,-5.22,-25.57,-38.82,2,2
17294.343,-0.698,0.381,0.427,-6.65,-20.66,-35.92,2,2
17294.359,-0.714,0.374,0.439,-5.92,-16.33,-31.74,2,2
17294.359,-0.726,0.367,0.449,-2.62,-12.6,-26.52,2,2
17294.375,-0.731,0.365,0.46,2.59,-8.91,-20.57,2,2
17294.39,-0.737,0.366,0.47,8.21,-5.19,-14.62,2,2
17294.39,-0.739,0.369,0.476,13.12,-2.08,-8.64,2,2
17294.406,-0.734,0.362,0.482,17.21,0.64,-2.44,2,2
17294.421,-0.732,0.35,0.484,21.45,3.2,3.57,2,2
17294.421,-0.727,0.343,0.486,25.73,5.31,8.51,2,2
17294.437,-0.72,0.334,0.485,29.63,6.9,11.57,2,2
17294.437,-0.72,0.334,0.484,33.33,7.81,13.89,2,2
17294.453,-0.72,0.332,0.486,33.11,7.45,14.01,2,2
17294.468,-0.711,0.331,0.486,32.04,6.68,13.73,2,2
17294.484,-0.687,0.347,0.484,27.99,3.94,11.87,2,2
17294.5,-0.683,0.358,0.486,25.39,2.59,10.65,2,2
17294.5,-0.678,0.371,0.492,22.43,1.71,9.4,2,2
17294.515,-0.677,0.382,0.502,19.32,1.4,7.97,2,2
17294.531,-0.672,0.386,0.511,16.45,0.43,7.45,2,2
17294.531,-0.67,0.383,0.515,14.89,-1.92,7.72,2,2
17294.546,-0.667,0.38,0.511,15.32,-4.73,8.58,2,2
17294.546,-0.664,0.382,0.508,16.63,-7.11,9.64,2,2
17294.562,-0.668,0.386,0.503,17.52,-8.82,10.5,2,2
17294.578,-0.677,0.401,0.497,17.91,-9.34,11.6,2,2
17294.593,-0.687,0.4,0.496,19.04,-8.24,12.97,2,2
17294.593,-0.689,0.4,0.502,19.75,-6.78,14.34,2,2
17294.609,-0.686,0.404,0.501,21.45,-6.04,15.84,2,2
17294.609,-0.678,0.409,0.49,25.03,-6.32,17.21,2,2
17294.625,-0.672,0.428,0.473,27.62,-7.75,18.01,2,2
17294.64,-0.669,0.45,0.459,28.47,-10.01,18.49,2,2
17294.656,-0.693,0.463,0.434,23.87,-12.48,17.73,2,2
17294.671,-0.709,0.464,0.433,19.68,-11.78,16.21,2,2
17294.671,-0.728,0.455,0.431,15.93,-10.04,13.76,2,2
17294.687,-0.743,0.443,0.434,13.73,-6.96,10.99,2,2
17294.687,-0.751,0.447,0.452,11.87,-3.48,8.45,2,2
17294.703,-0.762,0.448,0.46,10.62,-0.7,5.89,2,2
17294.718,-0.778,0.454,0.461,9.13,1.04,3.08,2,2
17294.718,-0.793,0.463,0.471,7.08,2.44,0.58,2,2
17294.734,-0.811,0.456,0.489,4.67,3.51,-1.53,2,2
17294.75,-0.83,0.45,0.498,2.99,3.91,-3.2,2,2
17294.75,-0.833,0.448,0.508,2.9,3.45,-3.69,2,2
17294.765,-0.838,0.443,0.509,4.46,1.65,-3.85,2,2
17294.781,-0.841,0.447,0.496,7.39,-0.85,-3.66,2,2
17294.781,-0.846,0.452,0.491,10.65,-2.96,-2.75,2,2
17294.796,-0.846,0.458,0.488,12.51,-4.27,-1.62,2,2
17294.812,-0.839,0.46,0.478,13.52,-4.7,-0.27,2,2
17294.828,-0.829,0.459,0.47,14.25,-3.08,1.53,2,2
17294.828,-0.819,0.462,0.469,14.44,-2.23,2.01,2,2
17294.843,-0.81,0.47,0.468,14.65,-1.95,1.74,2,2
17294.859,-0.801,0.474,0.464,14.25,-2.47,0.76,2,2
17294.875,-0.789,0.475,0.461,12.79,-3.69,-0.27,2,2
17294.875,-0.779,0.477,0.462,10.25,-5.25,-1.16,2,2
17294.89,-0.769,0.47,0.461,7.17,-6.9,-1.92,2,2
17294.89,-0.762,0.458,0.46,5.25,-8.42,-2.35,2,2
17294.906,-0.756,0.446,0.456,4.91,-9.52,-2.44,2,2
17294.921,-0.758,0.445,0.451,6.35,-10.1,-2.69,2,2
17294.921,-0.761,0.446,0.447,8.64,-10.01,-2.44,2,2
17294.937,-0.759,0.447,0.443,10.59,-8.73,-1.71,2,2
17294.937,-0.754,0.459,0.444,11.35,-6.41,-1.13,2,2
17294.953,-0.746,0.463,0.449,11.05,-3.51,-0.49,2,2
17294.968,-0.737,0.459,0.46,10.62,-0.43,0.06,2,2
17294.984,-0.73,0.46,0.47,10.65,2.11,0.31,2,2
17295.0,-0.717,0.474,0.484,12.6,3.42,0.55,2,2
17295.015,-0.713,0.483,0.487,12.97,2.26,0.34,2,2
17295.015,-0.72,0.49,0.482,12.15,-0.09,0.31,2,2
17295.031,-0.727,0.487,0.478,10.74,-2.93,0.31,2,2
17295.031,-0.735,0.479,0.477,9.28,-5.22,0.18,2,2
17295.046,-0.751,0.473,0.476,8.09,-6.35,-0.24,2,2
17295.062,-0.76,0.469,0.477,7.51,-6.53,-0.67,2,2
17295.062,-0.764,0.465,0.48,7.78,-6.23,-1.4,2,2
17295.078,-0.77,0.464,0.479,8.45,-5.89,-2.26,2,2
17295.078,-0.771,0.467,0.476,9.52,-5.77,-3.11,2,2
17295.093,-0.763,0.471,0.471,10.53,-6.1,-3.85,2,2
17295.109,-0.753,0.482,0.46,10.96,-6.9,-4.49,2,2
17295.125,-0.732,0.491,0.449,10.07,-8.0,-4.79,2,2
17295.125,-0.712,0.495,0.439,8.33,-9.0,-5.01,2,2
17295.14,-0.69,0.49,0.431,6.59,-9.52,-4.85,2,2
17295.14,-0.668,0.485,0.427,5.37,-9.4,-4.33,2,2
17295.171,-0.629,0.497,0.414,4.73,-7.29,-2.78,2,2
17295.171,-0.618,0.501,0.407,4.7,-6.62,-1.4,2,2
17295.187,-0.604,0.512,0.402,4.43,-6.01,-0.43,2,2
17295.187,-0.594,0.528,0.392,3.54,-5.55,-0.15,2,2
17295.203,-0.593,0.539,0.386,1.25,-5.46,-0.12,2,2
17295.218,-0.595,0.546,0.383,-1.83,-5.46,-0.24,2,2
17295.218,-0.6,0.549,0.384,-5.04,-5.25,-0.55,2,2
17295.234,-0.609,0.555,0.382,-8.15,-5.19,-0.73,2,2
17295.25,-0.623,0.562,0.383,-11.14,-5.04,-1.53,2,2
17295.265,-0.635,0.561,0.385,-14.28,-4.64,-2.38,2,2
17295.265,-0.647,0.558,0.389,-17.49,-3.72,-3.05,2,2
17295.281,-0.653,0.554,0.392,-19.84,-2.59,-3.17,2,2
17295.281,-0.663,0.547,0.396,-21.12,-1.43,-3.05,2,2
17295.296,-0.679,0.54,0.402,-21.49,-0.12,-2.47,2,2
17295.312,-0.69,0.534,0.407,-20.66,1.98,-1.01,2,2
17295.312,-0.704,0.527,0.412,-18.65,4.88,1.04,2,2
17295.328,-0.716,0.507,0.424,-13.64,11.26,5.19,2,2
17295.343,-0.717,0.501,0.419,-11.72,14.68,6.65,2,2
17295.359,-0.714,0.498,0.416,-11.35,18.65,7.05,2,2
17295.375,-0.71,0.485,0.409,-11.51,23.38,6.44,2,2
17295.375,-0.709,0.461,0.403,-11.81,29.15,5.4,2,2
17295.39,-0.706,0.437,0.405,-11.47,35.07,3.88,2,2
17295.39,-0.705,0.413,0.394,-9.86,40.99,0.95,2,2
17295.406,-0.708,0.403,0.381,-8.18,46.88,-4.15,2,2
17295.421,-0.706,0.401,0.365,-7.69,52.67,-10.71,2,2
17295.421,-0.706,0.408,0.347,-8.76,58.53,-18.07,2,2
17295.437,-0.707,0.425,0.345,-16.88,62.32,-27.65,2,2
17295.437,-0.708,0.449,0.336,-23.62,59.39,-29.57,2,2
17295.453,-0.71,0.465,0.331,-30.15,54.72,-29.21,2,2
17295.468,-0.709,0.435,0.336,-34.55,48.89,-26.8,2,2
17295.468,-0.733,0.406,0.339,-35.31,43.18,-24.45,2,2
17295.484,-0.754,0.378,0.357,-32.81,38.67,-22.34,2,2
17295.5,-0.788,0.333,0.356,-21.12,36.16,-21.45,2,2
17295.515,-0.781,0.34,0.348,-16.3,36.35,-23.22,2,2
17295.531,-0.779,0.355,0.331,-13.0,36.65,-26.22,2,2
17295.531,-0.782,0.366,0.318,-12.05,36.81,-29.54,2,2
17295.546,-0.819,0.375,0.319,-13.15,36.47,-32.84,2,2
17295.546,-0.868,0.391,0.337,-17.03,36.19,-35.19,2,2
17295.562,-0.897,0.4,0.36,-23.32,35.43,-36.32,2,2
17295.578,-0.912,0.397,0.382,-29.6,33.23,-37.45,2,2
17295.578,-0.921,0.387,0.404,-33.08,29.88,-37.81,2,2
17295.593,-0.925,0.378,0.42,-32.99,25.51,-36.65,2,2
17295.609,-0.923,0.372,0.431,-29.24,20.87,-33.94,2,2
17295.625,-0.937,0.361,0.437,-22.77,16.21,-30.12,2,2
17295.625,-0.967,0.352,0.442,-15.44,12.48,-25.73,2,2
17295.64,-0.987,0.351,0.442,-9.8,9.7,-20.72,2,2
17295.64,-0.992,0.354,0.45,-6.32,7.84,-16.66,2,2
17295.656,-0.983,0.357,0.455,-3.39,6.16,-13.82,2,2
17295.671,-0.971,0.36,0.446,-1.89,4.27,-11.11,2,2
17295.671,-0.953,0.363,0.44,-1.16,2.35,-8.48,2,2
17295.687,-0.937,0.36,0.436,0.21,0.06,-6.29,2,2
17295.687,-0.926,0.354,0.431,1.92,-2.59,-4.82,2,2
17295.703,-0.914,0.357,0.421,2.66,-5.46,-4.39,2,2
17295.718,-0.908,0.357,0.411,2.2,-8.0,-4.46,2,2
17295.718,-0.9,0.354,0.404,0.79,-10.28,-4.36,2,2
17295.734,-0.893,0.351,0.394,-0.82,-12.02,-4.15,2,2
17295.75,-0.882,0.345,0.385,-2.23,-12.91,-3.75,2,2
17295.75,-0.872,0.339,0.378,-2.99,-13.0,-3.05,2,2
17295.765,-0.863,0.339,0.371,-2.81,-12.57,-2.44,2,2
17295.781,-0.858,0.341,0.37,-2.01,-11.66,-1.43,2,2
17295.781,-0.85,0.34,0.367,-1.22,-10.68,0.06,2,2
17295.796,-0.843,0.343,0.365,-0.21,-9.7,1.56,2,2
17295.812,-0.836,0.342,0.36,0.95,-8.76,2.93,2,2
17295.812,-0.84,0.345,0.358,2.01,-7.54,3.94,2,2
17295.828,-0.843,0.348,0.358,2.5,-6.13,4.49,2,2
17295.843,-0.856,0.34,0.364,2.38,-2.75,4.97,2,2
17295.859,-0.858,0.342,0.369,2.23,-1.43,5.13,2,2
17295.859,-0.855,0.334,0.378,2.35,-0.37,5.34,2,2
17295.875,-0.856,0.33,0.383,2.93,0.34,5.83,2,2
17295.89,-0.859,0.33,0.386,4.09,0.61,6.04,2,2
17295.89,-0.859,0.332,0.389,5.31,0.55,6.2,2,2
17295.906,-0.857,0.329,0.387,6.26,0.12,6.56,2,2
17295.921,-0.856,0.331,0.388,6.87,-0.61,6.93,2,2
17295.921,-0.85,0.334,0.389,7.32,-1.37,7.11,2,2
17295.937,-0.846,0.326,0.386,8.03,-1.65,7.48,2,2
17295.937,-0.84,0.322,0.389,8.39,-1.59,7.66,2,2
17295.953,-0.832,0.334,0.398,7.51,-1.83,7.39,2,2
17295.968,-0.823,0.332,0.399,7.39,-2.2,7.14,2,2
17295.968,-0.818,0.33,0.404,7.23,-2.9,6.29,2,2
17295.984,-0.814,0.331,0.404,7.02,-4.12,5.49,2,2
17296.0,-0.819,0.332,0.404,6.65,-5.89,4.39,2,2
17296.015,-0.826,0.334,0.401,4.79,-10.13,1.25,2,2
17296.031,-0.83,0.335,0.403,2.41,-12.45,-0.61,2,2
17296.031,-0.835,0.333,0.405,-0.15,-14.86,-2.47,2,2
17296.046,-0.831,0.328,0.405,-2.44,-17.37,-4.58,2,2
17296.046,-0.83,0.32,0.405,-3.72,-19.59,-6.26,2,2
17296.062,-0.836,0.32,0.404,-4.18,-21.76,-7.66,2,2
17296.078,-0.839,0.313,0.394,-3.6,-23.87,-8.94,2,2
17296.093,-0.848,0.306,0.388,-3.42,-26.4,-10.04,2,2
17296.093,-0.844,0.306,0.378,-3.85,-28.96,-10.8,2,2
17296.109,-0.839,0.296,0.363,-3.81,-30.55,-11.17,2,2
17296.109,-0.823,0.281,0.356,-3.94,-30.85,-10.99,2,2
17296.125,-0.803,0.271,0.353,-3.54,-29.27,-10.77,2,2
17296.14,-0.785,0.263,0.354,-2.29,-25.85,-11.08,2,2
17296.14,-0.773,0.254,0.357,-0.58,-21.52,-11.11,2,2
17296.156,-0.765,0.249,0.363,1.89,-17.58,-11.38,2,2
17296.171,-0.744,0.252,0.365,5.28,-14.8,-12.12,2,2
17296.187,-0.723,0.277,0.349,11.41,-12.39,-14.13,2,2
17296.187,-0.712,0.293,0.337,12.42,-12.36,-15.08,2,2
17296.203,-0.701,0.306,0.323,12.21,-12.7,-16.05,2,2
17296.218,-0.681,0.308,0.303,11.47,-13.49,-17.33,2,2
17296.218,-0.661,0.303,0.281,11.23,-14.25,-19.17,2,2
17296.234,-0.65,0.302,0.264,11.2,-14.16,-21.52,2,2
17296.25,-0.639,0.308,0.25,9.83,-13.06,-24.23,2,2
17296.25,-0.652,0.318,0.236,6.07,-11.23,-28.08,2,2
17296.265,-0.686,0.343,0.235,-0.85,-8.09,-33.36,2,2
17296.281,-0.717,0.353,0.25,-11.47,-3.91,-38.76,2,2
17296.281,-0.759,0.338,0.276,-22.92,1.71,-42.51,2,2
17296.296,-0.788,0.319,0.313,-32.44,7.57,-43.55,2,2
17296.312,-0.807,0.289,0.355,-36.44,13.15,-42.05,2,2
17296.312,-0.846,0.263,0.391,-34.49,18.77,-38.88,2,2
17296.328,-0.876,0.274,0.432,-29.6,23.04,-35.43,2,2
17296.328,-0.897,0.274,0.458,-22.83,25.67,-31.22,2,2
17296.343,-0.931,0.279,0.467,-15.66,26.98,-26.7,2,2
17296.359,-0.976,0.293,0.482,-9.49,27.56,-22.03,2,2
17296.359,-1.017,0.303,0.497,-5.86,28.14,-17.49,2,2
17296.375,-1.043,0.309,0.508,-5.07,28.32,-13.7,2,2
17296.39,-1.057,0.316,0.517,-5.68,27.86,-10.16,2,2
17296.39,-1.07,0.324,0.52,-5.65,26.98,-7.2,2,2
17296.406,-1.079,0.332,0.537,-5.92,25.27,-4.09,2,2
17296.421,-1.08,0.329,0.541,-3.94,19.23,4.0,2,2
17296.421,-1.084,0.32,0.544,-1.07,15.93,9.92,2,2
17296.437,-1.089,0.309,0.542,3.51,12.73,15.96,2,2
17296.453,-1.08,0.296,0.538,8.45,9.83,21.15,2,2
17296.453,-1.05,0.289,0.506,12.24,7.11,24.38,2,2
17296.468,-1.033,0.287,0.488,14.44,4.61,26.15,2,2
17296.468,-1.01,0.286,0.469,14.77,2.04,27.34,2,2
17296.484,-0.986,0.284,0.453,13.73,-0.06,27.95,2,2
17296.5,-0.964,0.279,0.439,12.15,-1.95,28.02,2,2
17296.5,-0.943,0.271,0.423,10.5,-3.51,27.62,2,2
17296.515,-0.926,0.264,0.41,9.06,-4.52,26.73,2,2
17296.531,-0.914,0.258,0.399,8.0,-5.34,25.51,2,2
17296.531,-0.905,0.254,0.39,7.29,-5.49,24.32,2,2
17296.546,-0.891,0.256,0.381,6.23,-5.1,22.98,2,2
17296.562,-0.88,0.253,0.376,4.88,-4.55,21.36,2,2
17296.562,-0.867,0.251,0.374,3.57,-3.69,19.84,2,2
17296.578,-0.858,0.249,0.375,2.75,-2.72,18.25,2,2
17296.578,-0.853,0.246,0.373,2.32,-2.04,16.63,2,2
17296.593,-0.843,0.247,0.373,2.23,-1.53,14.8,2,2
17296.609,-0.836,0.251,0.372,2.23,-1.43,12.6,2,2
17296.625,-0.83,0.256,0.368,1.83,-1.77,10.44,2,2
17296.625,-0.826,0.26,0.363,1.31,-2.72,8.45,2,2
17296.64,-0.819,0.267,0.366,0.43,-3.81,6.74,2,2
17296.64,-0.814,0.274,0.362,-0.92,-4.76,4.94,2,2
17296.656,-0.813,0.276,0.358,-2.41,-5.43,2.99,2,2
17296.671,-0.811,0.282,0.358,-4.0,-5.86,0.98,2,2
17296.671,-0.811,0.281,0.36,-5.25,-5.58,-0.76,2,2
17296.687,-0.814,0.28,0.36,-5.83,-4.82,-1.86,2,2
17296.703,-0.825,0.281,0.361,-5.8,-3.72,-2.78,2,2
17296.703,-0.835,0.287,0.364,-5.31,-2.81,-3.72,2,2
17296.718,-0.842,0.289,0.365,-4.67,-2.23,-4.46,2,2
17296.718,-0.847,0.288,0.366,-4.0,-1.68,-4.49,2,2
17296.734,-0.847,0.293,0.366,-3.17,-1.37,-4.24,2,2
17296.75,-0.849,0.298,0.367,-2.04,-0.73,-3.91,2,2
17296.75,-0.851,0.299,0.363,-1.13,-0.09,-3.69,2,2
17296.765,-0.854,0.298,0.361,-0.52,0.52,-3.27,2,2
17296.781,-0.856,0.301,0.364,0.0,1.34,-2.81,2,2
17296.781,-0.857,0.3,0.367,0.37,2.14,-2.11,2,2
17296.796,-0.862,0.299,0.362,0.58,2.87,-1.22,2,2
17296.796,-0.865,0.301,0.371,0.67,3.23,-0.31,2,2
17296.812,-0.86,0.294,0.368,0.79,3.3,1.22,2,2
17296.828,-0.861,0.294,0.375,0.58,3.11,2.62,2,2
17296.843,-0.857,0.286,0.38,1.1,3.14,4.43,2,2
17296.843,-0.854,0.283,0.382,1.98,2.78,6.1,2,2
17296.859,-0.842,0.284,0.386,3.81,2.17,8.3,2,2
17296.875,-0.84,0.283,0.387,4.61,1.56,9.25,2,2
17296.89,-0.833,0.279,0.386,5.49,0.55,10.44,2,2
17296.89,-0.824,0.274,0.384,6.68,-0.76,11.84,2,2
17296.906,-0.813,0.277,0.378,8.18,-2.08,12.79,2,2
17296.921,-0.8,0.281,0.37,9.34,-3.11,13.09,2,2
17296.921,-0.785,0.288,0.36,9.61,-3.69,12.94,2,2
17296.937,-0.775,0.296,0.353,9.25,-3.66,12.33,2,2
17296.953,-0.768,0.301,0.345,8.0,-3.23,11.32,2,2
17296.953,-0.766,0.309,0.345,6.04,-2.14,9.83,2,2
17296.968,-0.765,0.317,0.344,3.97,-0.82,8.09,2,2
17296.968,-0.77,0.321,0.344,1.59,0.37,5.98,2,2
17296.984,-0.776,0.324,0.353,-1.04,1.34,4.21,2,2
17297.0,-0.783,0.325,0.359,-3.27,1.92,2.69,2,2
17297.0,-0.794,0.324,0.365,-4.55,1.92,1.65,2,2
17297.015,-0.801,0.324,0.369,-4.7,1.68,1.1,2,2
17297.031,-0.815,0.332,0.368,-3.36,1.01,0.58,2,2
17297.046,-0.821,0.333,0.368,-2.5,0.98,0.98,2,2
17297.062,-0.83,0.338,0.365,-1.77,1.25,1.28,2,2
17297.062,-0.842,0.342,0.364,-1.1,1.77,1.25,2,2
17297.078,-0.845,0.339,0.364,-0.79,2.59,1.34,2,2
17297.078,-0.85,0.338,0.362,-0.4,3.85,1.31,2,2
17297.093,-0.861,0.343,0.363,0.12,5.04,1.01,2,2
17297.109,-0.867,0.352,0.364,0.0,6.07,0.15,2,2
17297.125,-0.872,0.354,0.366,-1.07,6.81,-0.73,2,2
17297.125,-0.878,0.362,0.372,-2.53,7.14,-1.34,2,2
17297.14,-0.887,0.366,0.377,-4.18,7.42,-1.92,2,2
17297.14,-0.895,0.363,0.385,-5.46,7.32,-2.26,2,2
17297.156,-0.897,0.361,0.394,-6.23,7.05,-2.01,2,2
17297.171,-0.895,0.357,0.396,-5.98,6.23,-1.19,2,2
17297.171,-0.903,0.353,0.398,-4.58,5.16,0.09,2,2
17297.187,-0.908,0.351,0.399,-2.78,4.09,1.43,2,2
17297.203,-0.909,0.35,0.392,-0.03,2.32,3.39,2,2
17297.218,-0.907,0.349,0.391,0.24,1.68,3.97,2,2
17297.218,-0.902,0.342,0.386,0.27,0.79,4.3,2,2
17297.234,-0.903,0.337,0.382,0.09,0.27,4.36,2,2
17297.25,-0.896,0.333,0.382,-0.27,-0.18,4.0,2,2
17297.25,-0.888,0.325,0.382,-0.27,-0.37,3.42,2,2
17297.265,-0.881,0.32,0.38,0.06,-0.61,3.02,2,2
17297.281,-0.875,0.315,0.379,0.58,-1.01,3.02,2,2
17297.281,-0.871,0.313,0.378,1.25,-1.62,2.78,2,2
17297.296,-0.861,0.314,0.372,1.71,-2.26,2.01,2,2
17297.296,-0.856,0.314,0.367,1.68,-3.05,1.19,2,2
17297.312,-0.855,0.312,0.365,1.4,-3.66,0.55,2,2
17297.328,-0.847,0.313,0.362,1.01,-4.27,-0.21,2,2
17297.328,-0.842,0.31,0.357,0.79,-4.52,-1.01,2,2
17297.343,-0.842,0.312,0.353,0.4,-4.39,-2.11,2,2
17297.359,-0.841,0.317,0.351,-0.15,-3.91,-3.45,2,2
17297.359,-0.836,0.319,0.349,-0.98,-3.45,-4.91,2,2
17297.375,-0.834,0.32,0.347,-1.77,-3.02,-5.68,2,2
17297.39,-0.838,0.323,0.352,-2.08,-2.47,-5.92,2,2
17297.39,-0.833,0.324,0.354,-1.71,-1.22,-5.8,2,2
17297.406,-0.831,0.321,0.354,-0.92,-0.46,-5.52,2,2
17297.421,-0.835,0.324,0.356,-0.06,0.0,-5.07,2,2
17297.421,-0.833,0.329,0.36,0.85,0.31,-4.64,2,2
17297.437,-0.827,0.331,0.359,1.34,0.46,-4.12,2,2
17297.437,-0.83,0.336,0.36,1.56,0.46,-3.57,2,2
17297.453,-0.831,0.338,0.357,1.53,0.46,-3.2,2,2
17297.468,-0.829,0.343,0.357,1.07,0.37,-3.08,2,2
17297.468,-0.827,0.344,0.356,0.49,0.52,-3.08,2,2
17297.484,-0.829,0.344,0.357,-0.52,0.76,-2.93,2,2
17297.5,-0.828,0.339,0.36,-0.98,0.98,-2.35,2,2
17297.5,-0.831,0.335,0.363,-0.89,1.4,-1.53,2,2
17297.515,-0.836,0.332,0.364,-0.09,1.86,-0.7,2,2
17297.515,-0.843,0.337,0.366,0.85,2.26,-0.31,2,2
17297.531,-0.849,0.34,0.369,1.46,2.26,-0.21,2,2
17297.546,-0.851,0.34,0.37,1.5,1.95,0.03,2,2
17297.562,-0.852,0.342,0.37,1.01,1.31,0.61,2,2
17297.562,-0.851,0.343,0.369,0.49,0.67,0.95,2,2
17297.578,-0.846,0.339,0.369,0.24,0.0,1.31,2,2
17297.578,-0.845,0.335,0.369,0.34,-0.55,1.77,2,2
17297.593,-0.85,0.337,0.367,0.79,-0.82,1.98,2,2
17297.609,-0.85,0.338,0.365,1.37,-1.16,2.04,2,2
17297.609,-0.854,0.334,0.361,1.59,-1.04,2.11,2,2
17297.625,-0.862,0.339,0.358,1.56,-0.67,1.95,2,2
17297.64,-0.861,0.332,0.356,1.71,-0.4,1.8,2,2
17297.656,-0.866,0.326,0.361,0.67,-0.58,1.86,2,2
17297.656,-0.867,0.335,0.36,-0.15,-0.82,1.98,2,2
17297.656,-0.86,0.325,0.357,0.85,-0.76,2.08,2,2
17297.671,-0.858,0.324,0.359,1.13,-0.82,2.5,2,2
17297.687,-0.858,0.329,0.356,1.68,-1.1,2.99,2,2
17297.703,-0.855,0.324,0.352,2.5,-1.19,3.42,2,2
17297.703,-0.853,0.318,0.35,3.05,-1.13,3.75,2,2
17297.718,-0.852,0.317,0.348,3.23,-0.89,3.69,2,2
17297.734,-0.856,0.318,0.345,3.02,-0.27,3.05,2,2
17297.734,-0.856,0.32,0.345,2.35,0.4,2.08,2,2
17297.75,-0.857,0.318,0.345,1.37,1.16,0.98,2,2
17297.75,-0.861,0.318,0.352,0.31,1.74,0.03,2,2
17297.765,-0.859,0.316,0.36,0.03,1.95,-0.4,2,2
17297.781,-0.859,0.314,0.361,0.46,1.95,-0.64,2,2
17297.781,-0.863,0.316,0.366,1.53,1.83,-0.79,2,2
17297.796,-0.863,0.323,0.365,2.44,1.46,-1.04,2,2
17297.812,-0.861,0.326,0.362,2.9,0.73,-1.13,2,2
17297.812,-0.862,0.328,0.363,2.87,0.24,-1.01,2,2
17297.828,-0.859,0.329,0.363,2.59,-0.18,-0.64,2,2
17297.828,-0.852,0.326,0.36,2.17,-0.7,-0.4,2,2
17297.843,-0.85,0.323,0.359,2.23,-1.04,-0.15,2,2
17297.859,-0.85,0.324,0.358,2.5,-1.22,-0.27,2,2
17297.859,-0.848,0.321,0.354,2.75,-1.34,-0.55,2,2
17297.875,-0.845,0.321,0.35,2.78,-1.19,-0.82,2,2
17297.89,-0.843,0.326,0.347,1.65,-0.34,-1.86,2,2
17297.906,-0.842,0.326,0.35,0.67,0.34,-2.62,2,2
17297.906,-0.844,0.327,0.353,0.0,1.04,-3.36,2,2
17297.921,-0.846,0.334,0.356,-0.4,1.5,-4.0,2,2
17297.937,-0.85,0.337,0.357,-0.58,1.5,-4.43,2,2
17297.953,-0.852,0.338,0.356,-0.89,1.04,-4.58,2,2
17297.953,-0.854,0.341,0.357,-1.04,0.52,-4.58,2,2
17297.968,-0.854,0.342,0.354,-0.98,-0.31,-3.97,2,2
17297.968,-0.856,0.34,0.352,-0.92,-0.95,-3.11,2,2
17297.984,-0.858,0.342,0.349,-0.64,-1.28,-2.44,2,2
17298.0,-0.858,0.341,0.346,-0.31,-1.31,-1.83,2,2
17298.0,-0.858,0.341,0.346,-0.06,-0.98,-1.28,2,2
17298.015,-0.858,0.34,0.346,0.24,-0.61,-0.92,2,2
17298.031,-0.858,0.34,0.345,0.46,-0.06,-0.52,2,2
17298.031,-0.857,0.34,0.346,0.76,0.31,-0.15,2,2
17298.046,-0.857,0.338,0.347,0.79,0.61,-0.06,2,2
17298.062,-0.859,0.335,0.349,0.46,-0.09,0.43,2,2
17298.078,-0.863,0.335,0.346,0.52,-0.52,0.52,2,2
17298.078,-0.86,0.336,0.343,0.58,-0.92,0.58,2,2
17298.093,-0.862,0.334,0.341,0.37,-1.19,0.79,2,2
17298.109,-0.865,0.335,0.34,0.21,-1.07,1.01,2,2
17298.109,-0.867,0.333,0.341,0.0,-0.64,1.25,2,2
17298.125,-0.866,0.33,0.343,-0.12,-0.03,1.5,2,2
17298.14,-0.867,0.325,0.348,-0.15,0.55,1.68,2,2
17298.14,-0.869,0.323,0.351,0.31,0.85,1.71,2,2
17298.156,-0.869,0.319,0.349,0.98,1.1,1.68,2,2
17298.171,-0.873,0.316,0.353,1.53,1.28,1.53,2,2
17298.171,-0.874,0.313,0.355,2.32,1.01,1.4,2,2
17298.187,-0.877,0.314,0.354,3.11,0.64,1.22,2,2
17298.187,-0.882,0.317,0.352,3.27,0.21,0.85,2,2
17298.203,-0.883,0.318,0.349,2.78,-0.73,0.12,2,2
17298.218,-0.882,0.32,0.347,1.95,-1.8,-0.55,2,2
17298.234,-0.868,0.312,0.347,0.73,-3.57,-0.18,2,2
17298.25,-0.856,0.31,0.343,1.22,-3.66,0.37,2,2
17298.25,-0.849,0.305,0.341,2.29,-3.11,0.76,2,2
17298.265,-0.844,0.304,0.342,3.42,-2.04,1.16,2,2
17298.281,-0.841,0.303,0.343,4.52,-0.95,1.53,2,2
17298.281,-0.843,0.302,0.342,5.4,-0.03,1.62,2,2
17298.296,-0.842,0.302,0.344,5.83,0.64,1.56,2,2
17298.312,-0.84,0.302,0.342,6.07,0.64,1.25,2,2
17298.312,-0.839,0.302,0.341,6.29,0.18,0.85,2,2
17298.328,-0.833,0.301,0.336,5.98,-0.49,0.21,2,2
17298.328,-0.826,0.302,0.335,5.49,-0.79,-0.73,2,2
17298.343,-0.823,0.303,0.333,5.1,-0.61,-1.83,2,2
17298.359,-0.826,0.307,0.33,4.82,0.34,-2.9,2,2
17298.359,-0.827,0.309,0.335,3.97,1.71,-4.12,2,2
17298.375,-0.842,0.309,0.341,3.42,3.14,-5.77,2,2
17298.39,-0.853,0.315,0.344,2.56,4.24,-8.94,2,2
17298.406,-0.867,0.32,0.347,1.59,3.33,-10.44,2,2
17298.406,-0.887,0.329,0.352,0.73,1.56,-11.44,2,2
17298.421,-0.913,0.334,0.349,0.21,-1.07,-11.9,2,2
17298.421,-0.919,0.331,0.341,-0.09,-3.75,-11.47,2,2
17298.437,-0.922,0.326,0.331,-0.12,-6.13,-10.25,2,2
17298.437,-0.927,0.317,0.316,0.49,-7.78,-8.73,2,2
17298.453,-0.925,0.306,0.308,1.16,-7.6,-7.11,2,2
17298.468,-0.919,0.295,0.3,2.26,-5.68,-5.58,2,2
17298.468,-0.91,0.282,0.294,3.42,-2.38,-4.24,2,2
17298.484,-0.895,0.271,0.297,4.73,2.04,-3.11,2,2
17298.5,-0.877,0.26,0.302,6.47,6.65,-2.17,2,2
17298.5,-0.863,0.255,0.307,8.67,10.8,-1.86,2,2
17298.515,-0.855,0.259,0.314,10.62,14.19,-2.47,2,2
17298.531,-0.853,0.265,0.322,12.05,16.36,-3.48,2,2
17298.531,-0.855,0.276,0.329,12.3,17.18,-5.13,2,2
17298.546,-0.86,0.288,0.338,11.32,16.91,-7.42,2,2
17298.546,-0.867,0.299,0.35,9.46,15.56,-9.74,2,2
17298.562,-0.871,0.307,0.356,7.11,12.94,-12.02,2,2
17298.578,-0.871,0.314,0.363,4.7,9.49,-13.76,2,2
17298.578,-0.871,0.319,0.367,3.08,5.89,-14.59,2,2
17298.593,-0.87,0.323,0.367,2.59,2.41,-14.4,2,2
17298.609,-0.869,0.325,0.355,3.54,-0.21,-13.58,2,2
17298.609,-0.863,0.325,0.353,4.79,-1.43,-11.99,2,2
17298.625,-0.854,0.336,0.374,6.2,-2.72,-10.53,2,2
17298.64,-0.859,0.342,0.349,8.18,-3.63,-9.4,2,2
17298.64,-0.861,0.347,0.331,8.91,-3.33,-8.67,2,2
17298.656,-0.867,0.361,0.335,8.67,-2.01,-7.87,2,2
17298.671,-0.873,0.37,0.335,8.24,-1.28,-7.51,2,2
17298.671,-0.879,0.379,0.328,6.59,-0.73,-7.48,2,2
17298.687,-0.89,0.386,0.333,4.3,-0.52,-6.96,2,2
17298.687,-0.896,0.383,0.341,2.14,-1.04,-5.68,2,2
17298.703,-0.898,0.377,0.348,0.46,-2.08,-3.48,2,2
17298.718,-0.901,0.373,0.352,0.03,-3.14,-0.46,2,2
17298.718,-0.898,0.368,0.35,0.85,-3.97,2.99,2,2
17298.734,-0.894,0.362,0.35,2.26,-4.67,6.59,2,2
17298.75,-0.889,0.354,0.346,3.54,-4.91,9.89,2,2
17298.75,-0.883,0.349,0.338,4.76,-4.67,12.7,2,2
17298.765,-0.88,0.348,0.331,5.46,-4.03,14.62,2,2
17298.781,-0.874,0.345,0.327,4.88,-2.99,15.32,2,2
17298.781,-0.872,0.342,0.325,3.3,-1.95,15.08,2,2
17298.796,-0.873,0.34,0.326,0.95,-0.92,14.4,2,2
17298.796,-0.873,0.336,0.331,-1.56,-0.09,13.58,2,2
17298.812,-0.873,0.334,0.335,-3.91,0.52,12.7,2,2
17298.828,-0.873,0.336,0.34,-5.74,0.64,11.81,2,2
17298.843,-0.876,0.338,0.345,-7.02,0.24,11.26,2,2
17298.843,-0.879,0.336,0.348,-7.81,-0.7,10.99,2,2
17298.859,-0.879,0.337,0.35,-7.93,-1.92,11.32,2,2
17298.859,-0.884,0.338,0.349,-7.48,-2.93,11.63,2,2
17298.875,-0.889,0.335,0.344,-6.93,-3.78,12.09,2,2
17298.89,-0.898,0.334,0.34,-6.41,-4.15,12.33,2,2
17298.89,-0.902,0.336,0.337,-6.1,-3.97,12.21,2,2
17298.906,-0.909,0.337,0.332,-5.98,-3.57,11.99,2,2
17298.921,-0.91,0.342,0.33,-6.29,-3.33,11.54,2,2
17298.921,-0.909,0.346,0.325,-6.62,-3.02,11.26,2,2
17298.937,-0.898,0.343,0.321,-6.35,-2.26,11.54,2,2
17298.953,-0.881,0.337,0.313,-4.76,-0.73,12.39,2,2
17298.953,-0.87,0.342,0.308,-3.02,1.98,13.21,2,2
17298.968,-0.865,0.359,0.325,-3.6,3.66,13.89,2,2
17298.968,-0.857,0.368,0.312,-2.9,5.31,14.07,2,2
17298.984,-0.85,0.356,0.302,0.09,8.18,13.79,2,2
17299.0,-0.845,0.397,0.324,-1.53,9.34,14.25,2,2
17299.015,-0.841,0.42,0.321,-3.39,8.97,14.31,2,2
17299.015,-0.839,0.419,0.324,-6.04,7.84,14.4,2,2
17299.031,-0.838,0.426,0.331,-8.61,6.07,14.8,2,2
17299.031,-0.837,0.435,0.327,-10.47,3.85,15.02,2,2
17299.046,-0.829,0.437,0.324,-12.05,2.01,15.63,2,2
17299.062,-0.827,0.435,0.326,-13.4,0.76,16.6,2,2
17299.062,-0.842,0.427,0.322,-14.4,0.24,17.7,2,2
17299.078,-0.85,0.417,0.32,-14.8,1.07,18.52,2,2
17299.078,-0.868,0.41,0.321,-14.8,3.51,18.92,2,2
17299.093,-0.877,0.416,0.33,-15.2,6.53,18.43,2,2
17299.109,-0.875,0.415,0.326,-15.75,9.52,18.04,2,2
17299.109,-0.877,0.398,0.329,-15.38,12.21,18.43,2,2
17299.125,-0.881,0.401,0.338,-15.44,13.49,19.56,2,2
17299.14,-0.875,0.399,0.343,-14.83,13.21,20.97,2,2
17299.14,-0.888,0.394,0.337,-14.04,11.2,22.31,2,2
17299.156,-0.911,0.401,0.337,-13.82,8.18,22.61,2,2
17299.171,-0.92,0.414,0.331,-14.95,4.3,20.97,2,2
17299.171,-0.919,0.414,0.321,-17.58,0.03,18.71,2,2
17299.187,-0.921,0.411,0.318,-20.81,-4.12,17.03,2,2
17299.203,-0.917,0.405,0.314,-23.56,-8.42,15.96,2,2
17299.203,-0.901,0.394,0.311,-25.27,-12.36,14.89,2,2
17299.218,-0.88,0.381,0.306,-25.54,-15.47,14.62,2,2
17299.218,-0.858,0.367,0.299,-23.96,-17.55,15.23,2,2
17299.234,-0.834,0.358,0.293,-20.81,-18.43,16.39,2,2
17299.25,-0.818,0.352,0.288,-16.69,-18.25,17.58,2,2
17299.25,-0.818,0.353,0.28,-12.94,-17.18,17.76,2,2
17299.265,-0.823,0.359,0.272,-10.47,-15.32,16.17,2,2
17299.281,-0.828,0.36,0.27,-9.83,-13.09,13.58,2,2
17299.281,-0.834,0.366,0.28,-10.99,-11.05,10.41,2,2
17299.296,-0.823,0.366,0.295,-12.36,-9.64,7.51,2,2
17299.312,-0.81,0.354,0.31,-12.76,-8.91,5.49,2,2
17299.312,-0.798,0.344,0.328,-11.69,-8.61,4.7,2,2
17299.328,-0.793,0.343,0.339,-8.55,-8.91,4.0,2,2
17299.343,-0.784,0.347,0.347,-4.55,-9.4,2.38,2,2
17299.343,-0.772,0.354,0.348,-1.4,-10.01,1.01,2,2
17299.359,-0.795,0.364,0.343,0.21,-10.56,-0.18,2,2
17299.359,-0.819,0.373,0.339,-0.34,-14.4,-3.78,2,2
17299.375,-0.818,0.371,0.342,-1.43,-16.88,-6.2,2,2
17299.39,-0.811,0.367,0.337,-2.04,-19.35,-7.97,2,2
17299.406,-0.806,0.357,0.327,-1.5,-21.94,-9.4,2,2
17299.406,-0.824,0.361,0.315,-0.31,-24.87,-11.57,2,2
17299.421,-0.827,0.369,0.301,-0.61,-30.18,-16.69,2,2
17299.437,-0.811,0.361,0.299,-1.59,-32.56,-17.49,2,2
17299.453,-0.808,0.348,0.298,-0.76,-34.3,-16.79,2,2
17299.453,-0.817,0.343,0.304,1.86,-35.28,-15.87,2,2
17299.468,-0.806,0.334,0.309,5.46,-35.13,-15.17,2,2
17299.468,-0.794,0.324,0.312,9.67,-33.94,-13.89,2,2
17299.484,-0.784,0.321,0.321,14.68,-31.77,-12.18,2,2
17299.5,-0.765,0.319,0.327,20.81,-29.18,-10.8,2,2
17299.5,-0.756,0.329,0.327,27.25,-26.37,-10.62,2,2
17299.515,-0.752,0.356,0.323,32.44,-23.71,-12.12,2,2
17299.531,-0.758,0.385,0.323,34.58,-21.73,-15.08,2,2
17299.531,-0.769,0.409,0.332,32.9,-20.39,-18.07,2,2
17299.546,-0.791,0.435,0.343,28.02,-19.62,-21.06,2,2
17299.562,-0.806,0.45,0.36,21.58,-19.68,-23.68,2,2
17299.562,-0.809,0.444,0.379,15.2,-20.11,-24.96,2,2
17299.578,-0.809,0.431,0.403,10.99,-20.48,-24.48,2,2
17299.593,-0.785,0.411,0.431,10.86,-21.27,-18.28,2,2
17299.609,-0.773,0.404,0.43,13.89,-21.39,-13.4,2,2
17299.609,-0.769,0.394,0.426,17.52,-20.84,-8.24,2,2
17299.625,-0.785,0.391,0.426,19.78,-19.96,-3.02,2,2
17299.64,-0.795,0.383,0.417,21.82,-17.91,1.01,2,2
17299.64,-0.789,0.375,0.41,22.77,-15.38,2.59,2,2
17299.656,-0.78,0.371,0.407,21.73,-12.67,2.56,2,2
17299.671,-0.775,0.365,0.406,20.05,-9.46,1.28,2,2
17299.671,-0.774,0.367,0.412,17.98,-6.59,-1.13,2,2
17299.687,-0.764,0.377,0.418,15.14,-4.21,-4.27,2,2
17299.687,-0.762,0.39,0.426,11.38,-2.2,-7.45,2,2
17299.703,-0.759,0.402,0.436,7.17,-0.85,-9.52,2,2
17299.718,-0.753,0.41,0.454,3.23,0.12,-10.41,2,2
17299.718,-0.746,0.411,0.468,0.46,0.49,-10.38,2,2
17299.734,-0.747,0.414,0.478,-1.19,0.43,-10.01,2,2
17299.75,-0.748,0.417,0.488,-2.26,-0.06,-9.49,2,2
17299.765,-0.738,0.416,0.496,-3.33,-1.16,-7.32,2,2
17299.781,-0.725,0.409,0.498,-3.14,-1.22,-5.37,2,2
17299.781,-0.726,0.395,0.498,-2.29,-0.4,-2.87,2,2
17299.796,-0.728,0.39,0.499,-0.89,1.07,-0.67,2,2
17299.796,-0.731,0.383,0.5,0.82,3.02,0.7,2,2
17299.812,-0.726,0.377,0.505,2.23,5.65,1.68,2,2
17299.828,-0.713,0.379,0.511,3.08,9.25,2.66,2,2
17299.828,-0.7,0.377,0.517,3.69,13.06,3.97,2,2
17299.843,-0.691,0.373,0.526,4.64,16.63,5.8,2,2
17299.859,-0.691,0.373,0.531,6.41,20.78,8.12,2,2
17299.859,-0.705,0.368,0.541,8.48,24.57,9.61,2,2
17299.875,-0.706,0.392,0.562,7.42,27.34,9.95,2,2
17299.89,-0.691,0.395,0.573,7.17,31.25,9.7,2,2
17299.89,-0.662,0.398,0.585,6.16,36.93,8.82,2,2
17299.906,-0.629,0.411,0.61,3.88,44.31,8.03,2,2
17299.921,-0.624,0.405,0.632,2.35,51.73,7.23,2,2
17299.937,-0.666,0.366,0.649,5.43,61.22,7.39,2,2
17299.937,-0.688,0.373,0.651,8.55,64.06,6.16,2,2
17299.953,-0.742,0.394,0.643,10.13,67.42,1.46,2,2
17299.968,-0.81,0.436,0.639,7.42,69.89,-9.55,2,2
17299.968,-0.839,0.455,0.642,0.58,71.35,-23.1,2,2
17299.984,-0.866,0.434,0.639,-8.45,71.57,-34.52,2,2
17300.0,-0.868,0.407,0.654,-16.42,70.93,-41.63,2,2
17300.015,-0.835,0.375,0.669,-20.02,71.5,-44.65,2,2
17300.015,-0.783,0.354,0.721,-18.4,74.92,-44.43,2,2
17300.031,-0.719,0.295,0.76,-7.32,79.87,-40.38,2,2
17300.031,-0.735,0.262,0.787,5.46,82.61,-34.97,2,2
17300.046,-0.772,0.275,0.841,19.78,79.17,-28.93,2,2
17300.062,-0.749,0.285,0.867,37.32,70.77,-26.43,2,2
17300.062,-0.766,0.309,0.884,45.75,58.66,-27.59,2,2
17300.078,-0.781,0.299,0.888,45.59,41.81,-30.18,2,2
17300.078,-0.789,0.263,0.856,41.44,22.03,-33.63,2,2
17300.109,-0.907,0.272,0.634,27.38,-27.25,-52.25,2,2
17300.109,-0.941,0.308,0.511,13.03,-53.01,-67.05,2,2
17300.125,-0.97,0.352,0.377,-6.13,-75.87,-84.05,2,2
17300.14,-0.977,0.346,0.243,-27.44,-94.15,-99.86,2,2
17300.14,-1.047,0.353,0.13,-52.19,-105.99,-112.8,2,2
17300.156,-1.157,0.348,0.037,-71.69,-109.5,-124.42,2,2
17300.171,-1.178,0.332,-0.02,-88.96,-107.24,-131.81,2,2
17300.171,-1.185,0.273,-0.02,-103.06,-98.36,-131.6,2,2
17300.187,-1.256,0.216,-0.009,-110.48,-84.9,-125.52,2,2
17300.203,-1.253,0.17,0.008,-108.71,-68.58,-112.19,2,2
17300.203,-1.233,0.112,0.02,-97.51,-47.79,-92.26,2,2
17300.218,-1.254,0.059,0.033,-78.71,-24.26,-70.13,2,2
17300.218,-1.235,0.039,0.059,-57.13,-1.74,-47.0,2,2
17300.234,-1.181,0.053,0.077,-36.87,18.62,-24.81,2,2
17300.25,-1.161,0.071,0.086,-20.66,36.53,-5.28,2,2
17300.25,-1.147,0.088,0.093,-10.99,51.15,11.57,2,2
17300.265,-1.11,0.073,0.109,-6.68,62.35,27.13,2,2
17300.281,-1.092,0.046,0.128,-4.82,71.41,39.16,2,2
17300.281,-1.086,0.004,0.12,-2.87,78.62,48.04,2,2
17300.296,-1.068,-0.026,0.161,-1.77,83.8,54.84,2,2
17300.312,-1.042,-0.036,0.181,2.04,87.37,57.5,2,2
17300.312,-1.052,-0.038,0.165,10.56,92.35,54.26,2,2
17300.328,-1.063,-0.032,0.145,18.59,97.93,47.7,2,2
17300.328,-1.074,-0.025,0.168,23.9,103.12,40.68,2,2
17300.343,-1.07,-0.011,0.204,28.63,105.23,32.53,2,2
17300.359,-1.066,0.013,0.233,35.4,99.12,13.89,2,2
17300.375,-1.081,0.042,0.248,33.48,91.01,5.19,2,2
17300.375,-1.129,0.071,0.259,27.86,78.86,-2.14,2,2
17300.39,-1.242,0.072,0.31,20.69,63.57,-7.81,2,2
17300.39,-1.189,0.079,0.34,17.88,45.41,-14.28,2,2
17300.406,-1.14,0.113,0.302,19.01,24.93,-21.27,2,2
17300.421,-1.074,0.16,0.246,17.88,3.23,-26.76,2,2
17300.421,-0.98,0.206,0.177,13.92,-18.28,-31.22,2,2
17300.437,-0.917,0.234,0.102,9.0,-36.56,-35.58,2,2
17300.453,-0.883,0.225,0.03,3.72,-50.69,-38.76,2,2
17300.453,-0.864,0.201,-0.045,-1.68,-58.47,-40.93,2,2
17300.468,-0.875,0.182,-0.109,-6.59,-59.08,-43.76,2,2
17300.468,-0.891,0.145,-0.14,-10.01,-54.14,-47.46,2,2
17300.484,-0.906,0.111,-0.132,-11.54,-45.26,-51.12,2,2
17300.5,-0.885,0.118,-0.111,-11.2,-34.36,-54.14,2,2
17300.5,-0.863,0.13,-0.085,-10.8,-23.35,-54.32,2,2
17300.515,-0.838,0.164,-0.063,-9.43,-14.5,-54.08,2,2
17300.531,-0.865,0.17,-0.019,-10.59,-4.49,-54.05,2,2
17300.531,-0.872,0.123,0.064,-17.21,-5.52,-43.43,2,2
17300.546,-0.819,0.13,0.107,-14.1,-12.33,-33.23,2,2
17300.562,-0.785,0.127,0.102,-4.82,-14.83,-23.65,2,2
17300.562,-0.797,0.115,0.107,-2.08,-18.86,-11.35,2,2
17300.578,-0.796,0.094,0.113,-0.4,-23.35,0.49,2,2
17300.578,-0.801,0.08,0.106,2.32,-27.1,9.46,2,2
17300.609,-0.723,0.089,0.08,1.01,-32.2,17.06,2,2
17300.609,-0.725,0.074,0.077,-1.43,-31.13,16.42,2,2
17300.625,-0.744,0.048,0.083,-3.2,-29.05,15.66,2,2
17300.64,-0.728,0.035,0.087,-2.69,-26.58,14.83,2,2
17300.64,-0.719,0.06,0.074,-1.01,-23.01,12.54,2,2
17300.656,-0.701,0.066,0.068,-0.21,-19.75,9.7,2,2
17300.671,-0.693,0.053,0.061,-1.53,-18.13,8.55,2,2
17300.671,-0.732,0.075,0.058,-2.17,-15.32,5.65,2,2
17300.687,-0.748,0.084,0.083,-3.33,-10.28,0.79,2,2
17300.703,-0.78,0.086,0.098,-7.26,-6.2,-3.94,2,2
17300.703,-0.818,0.074,0.131,-9.77,-2.5,-8.42,2,2
17300.718,-0.849,0.077,0.163,-10.9,0.18,-13.37,2,2
17300.718,-0.876,0.097,0.184,-12.85,1.43,-18.74,2,2
17300.734,-0.88,0.107,0.203,-17.82,1.77,-21.3,2,2
17300.75,-0.871,0.096,0.212,-23.62,-0.09,-18.92,2,2
17300.75,-0.908,0.071,0.229,-25.39,-1.77,-13.98,2,2
17300.781,-0.947,0.039,0.257,-20.33,-3.75,-6.84,2,2
17300.781,-0.931,0.044,0.249,-16.75,-4.82,-4.58,2,2
17300.796,-0.919,0.049,0.236,-14.04,-5.92,-0.24,2,2
17300.812,-0.936,0.05,0.225,-12.85,-6.99,4.64,2,2
17300.812,-0.985,0.039,0.242,-12.76,-6.68,8.3,2,2
17300.828,-1.032,0.031,0.281,-13.03,-5.58,8.88,2,2
17300.828,-1.046,0.046,0.307,-13.55,-6.84,6.78,2,2
17300.843,-1.048,0.053,0.319,-15.17,-10.38,4.36,2,2
17300.859,-1.042,0.047,0.335,-17.18,-14.28,3.91,2,2
17300.859,-1.045,0.038,0.342,-17.82,-17.98,4.79,2,2
17300.875,-1.046,0.029,0.339,-17.33,-20.97,6.87,2,2
17300.89,-1.027,0.028,0.327,-16.33,-23.9,9.98,2,2
17300.89,-0.998,0.025,0.295,-13.95,-26.37,14.65,2,2
17300.906,-0.959,0.014,0.268,-11.29,-28.08,20.26,2,2
17300.921,-0.948,-0.008,0.248,-7.63,-27.25,24.96,2,2
17300.921,-0.977,-0.01,0.232,-4.03,-22.92,25.57,2,2
17300.937,-1.005,-0.01,0.23,-3.75,-16.82,21.58,2,2
17300.937,-1.003,-0.015,0.236,-5.86,-9.4,15.23,2,2
17300.953,-0.981,-0.015,0.253,-7.93,-1.95,8.64,2,2
17300.968,-0.933,-0.01,0.27,-8.18,2.78,5.55,2,2
17300.968,-0.887,-0.011,0.274,-5.22,4.21,7.45,2,2
17300.984,-0.881,-0.002,0.272,1.01,4.15,11.81,2,2
17301.0,-0.917,0.017,0.265,6.13,3.6,14.01,2,2
17301.0,-0.947,0.036,0.265,5.65,2.87,11.08,2,2
17301.015,-0.954,0.035,0.273,0.06,1.68,4.39,2,2
17301.031,-0.952,0.035,0.282,-6.99,0.0,-3.05,2,2
17301.031,-0.934,0.026,0.298,-13.21,-2.23,-7.78,2,2
17301.046,-0.884,0.003,0.302,-15.72,-5.46,-7.54,2,2
17301.046,-0.859,-0.007,0.291,-12.39,-7.72,-4.21,2,2
17301.062,-0.873,-0.008,0.277,-6.47,-8.39,-0.82,2,2
17301.078,-0.92,0.0,0.262,-2.66,-7.08,-0.4,2,2
17301.093,-0.944,0.008,0.258,-3.02,-4.67,-2.93,2,2
17301.093,-0.947,0.006,0.267,-6.04,-2.29,-6.65,2,2
17301.109,-0.937,0.01,0.283,-8.51,-0.37,-9.52,2,2
17301.109,-0.915,0.007,0.299,-8.58,0.98,-9.89,2,2
17301.125,-0.91,-0.002,0.306,-6.1,1.77,-8.0,2,2
17301.14,-0.937,0.009,0.315,-2.26,2.56,-6.04,2,2
17301.14,-0.949,0.02,0.316,0.46,1.89,-4.94,2,2
17301.156,-0.94,0.032,0.313,0.4,0.18,-4.67,2,2
17301.171,-0.929,0.038,0.308,-1.25,-2.04,-3.91,2,2
17301.171,-0.92,0.019,0.292,-2.66,-3.91,-1.53,2,2
17301.187,-0.929,0.024,0.283,-2.23,-4.55,0.52,2,2
17301.187,-0.934,0.03,0.272,-1.8,-4.55,0.7,2,2
17301.203,-0.924,0.021,0.268,-3.08,-4.0,0.37,2,2
17301.218,-0.923,0.015,0.265,-3.48,-3.88,0.27,2,2
17301.218,-0.931,0.012,0.266,-2.66,-3.33,-0.03,2,2
17301.234,-0.941,0.02,0.273,-2.75,-1.59,-1.89,2,2
17301.25,-0.957,0.027,0.283,-4.24,1.07,-5.25,2,2
17301.25,-0.966,0.025,0.302,-6.53,2.93,-8.15,2,2
17301.265,-0.948,0.015,0.325,-7.51,3.54,-8.67,2,2
17301.281,-0.942,0.013,0.334,-6.01,2.56,-7.39,2,2
17301.281,-0.951,0.017,0.337,-3.39,0.52,-4.7,2,2
17301.296,-0.949,0.017,0.337,-1.56,-2.47,-1.4,2,2
17301.312,-0.944,0.015,0.325,-0.12,-4.73,0.73,2,2
17301.312,-0.942,0.017,0.314,0.55,-6.23,1.19,2,2
17301.328,-0.931,0.008,0.304,0.18,-7.42,1.34,2,2
17301.328,-0.935,0.019,0.289,-1.59,-5.55,-1.25,2,2
17301.343,-0.941,0.028,0.287,-3.54,-4.03,-3.2,2,2
17301.359,-0.936,0.026,0.28,-4.58,-2.14,-4.7,2,2
17301.359,-0.942,0.029,0.291,-4.49,-0.82,-5.37,2,2
17301.375,-0.955,0.018,0.317,-3.17,-0.37,-4.55,2,2
17301.39,-0.965,0.019,0.326,-0.79,-0.55,-2.99,2,2
17301.39,-0.973,0.023,0.326,1.71,-1.68,-1.37,2,2
17301.406,-0.968,0.029,0.322,2.14,-2.81,0.43,2,2
17301.421,-0.957,0.037,0.316,0.92,-4.06,1.53,2,2
17301.421,-0.956,0.038,0.311,-0.4,-5.37,2.01,2,2
17301.437,-0.947,0.026,0.306,-1.01,-6.65,2.75,2,2
17301.437,-0.939,0.02,0.303,-0.18,-6.9,3.54,2,2
17301.453,-0.939,0.016,0.304,1.16,-5.89,4.15,2,2
17301.468,-0.936,0.012,0.306,2.23,-4.36,4.36,2,2
17301.468,-0.933,0.015,0.304,2.62,-3.3,4.18,2,2
17301.484,-0.94,0.028,0.306,2.08,-2.66,3.2,2,2
17301.5,-0.945,0.032,0.313,0.7,-3.2,2.04,2,2
17301.5,-0.953,0.033,0.322,-1.04,-4.52,1.28,2,2
17301.515,-0.962,0.023,0.334,-1.95,-6.01,1.4,2,2
17301.531,-0.965,0.012,0.34,-1.53,-7.17,2.38,2,2
17301.531,-0.955,0.013,0.338,0.43,-8.0,3.48,2,2
17301.546,-0.941,0.017,0.336,2.81,-8.06,4.43,2,2
17301.562,-0.932,0.017,0.33,4.67,-7.9,5.55,2,2
17301.562,-0.925,0.021,0.326,5.74,-8.0,6.56,2,2
17301.578,-0.919,0.03,0.324,5.77,-8.0,6.47,2,2
17301.578,-0.917,0.033,0.315,4.76,-8.03,5.04,2,2
17301.593,-0.925,0.033,0.312,3.11,-8.27,2.87,2,2
17301.609,-0.93,0.033,0.311,1.19,-8.61,0.82,2,2
17301.625,-0.934,0.031,0.312,-0.4,-8.51,-1.77,2,2
17301.625,-0.944,0.033,0.316,-1.68,-7.81,-4.7,2,2
17301.64,-0.943,0.032,0.321,-3.14,-6.68,-6.99,2,2
17301.64,-0.937,0.037,0.323,-3.75,-6.04,-8.12,2,2
17301.656,-0.936,0.044,0.331,-3.14,-5.49,-7.6,2,2
17301.671,-0.938,0.042,0.329,-2.01,-5.34,-6.1,2,2
17301.671,-0.934,0.044,0.325,-0.73,-5.62,-4.18,2,2
17301.687,-0.94,0.052,0.319,0.27,-6.04,-2.72,2,2
17301.703,-0.947,0.053,0.314,0.55,-6.84,-2.08,2,2
17301.703,-0.951,0.05,0.311,-0.18,-7.66,-2.14,2,2
17301.718,-0.949,0.048,0.313,-1.16,-7.93,-2.44,2,2
17301.718,-0.945,0.043,0.315,-1.71,-7.42,-2.72,2,2
17301.734,-0.936,0.034,0.324,-1.71,-6.62,-2.5,2,2
17301.75,-0.93,0.031,0.328,-0.37,-5.55,-2.14,2,2
17301.75,-0.929,0.032,0.329,0.95,-4.36,-2.41,2,2
17301.765,-0.934,0.031,0.328,1.22,-3.33,-2.9,2,2
17301.781,-0.929,0.034,0.33,0.67,-3.27,-3.69,2,2
17301.781,-0.926,0.037,0.332,-0.34,-3.6,-4.61,2,2
17301.796,-0.93,0.032,0.337,-1.65,-3.81,-5.46,2,2
17301.812,-0.928,0.034,0.342,-2.5,-4.24,-6.07,2,2
17301.812,-0.921,0.035,0.342,-2.5,-4.61,-6.04,2,2
17301.828,-0.912,0.038,0.339,-1.89,-4.91,-4.97,2,2
17301.843,-0.908,0.036,0.333,-0.7,-4.85,-3.23,2,2
17301.843,-0.903,0.035,0.322,1.37,-4.55,-0.92,2,2
17301.859,-0.904,0.041,0.313,3.39,-4.06,1.01,2,2
17301.859,-0.9,0.045,0.305,4.18,-3.3,2.72,2,2
17301.875,-0.902,0.05,0.3,4.0,-1.86,3.17,2,2
17301.89,-0.91,0.051,0.3,3.11,-0.31,2.38,2,2
17301.89,-0.914,0.047,0.305,1.65,1.13,1.37,2,2
17301.906,-0.917,0.045,0.312,0.18,2.04,0.37,2,2
17301.921,-0.923,0.046,0.321,-0.82,2.47,-0.82,2,2
17301.921,-0.928,0.043,0.331,-1.77,2.75,-1.65,2,2
17301.937,-0.928,0.04,0.338,-2.78,2.32,-1.34,2,2
17301.937,-0.923,0.037,0.345,-3.23,1.8,-0.31,2,2
17301.953,-0.921,0.029,0.353,-2.47,1.25,1.07,2,2
17301.968,-0.918,0.013,0.359,-0.98,0.64,3.3,2,2
17301.968,-0.921,0.008,0.36,1.43,0.21,5.34,2,2
17301.984,-0.927,0.01,0.356,3.36,-0.18,6.1,2,2
17302.0,-0.933,0.014,0.35,3.66,-0.55,5.77,2,2
17302.0,-0.933,0.019,0.346,2.69,-0.58,5.25,2,2
17302.015,-0.931,0.016,0.348,1.83,-0.76,5.07,2,2
17302.031,-0.923,0.017,0.348,2.2,-1.13,4.7,2,2
17302.031,-0.919,0.021,0.345,3.3,-1.31,4.21,2,2
17302.046,-0.912,0.022,0.337,4.18,-1.62,4.49,2,2
17302.062,-0.915,0.024,0.328,4.7,-1.83,4.94,2,2
17302.062,-0.918,0.023,0.326,4.61,-1.77,5.22,2,2
17302.078,-0.91,0.029,0.325,4.21,-1.62,4.82,2,2
17302.078,-0.898,0.032,0.321,3.27,-1.43,3.48,2,2
17302.093,-0.892,0.025,0.326,2.11,-1.5,2.08,2,2
17302.109,-0.884,0.029,0.323,1.77,-2.2,0.89,2,2
17302.109,-0.878,0.04,0.319,0.95,-3.02,-0.64,2,2
17302.125,-0.877,0.034,0.313,-0.64,-3.72,-2.59,2,2
17302.14,-0.876,0.023,0.31,-2.32,-4.15,-4.52,2,2
17302.14,-0.864,0.013,0.306,-3.51,-4.36,-6.93,2,2
17302.156,-0.864,0.006,0.3,-4.3,-3.51,-10.07,2,2
17302.171,-0.864,0.004,0.299,-6.01,-2.5,-13.92,2,2
17302.171,-0.872,0.007,0.297,-8.91,-1.65,-18.52,2,2
17302.187,-0.884,0.006,0.306,-12.12,-1.04,-22.71,2,2
17302.203,-0.9,0.009,0.323,-14.77,-0.15,-26.12,2,2
17302.203,-0.909,0.007,0.34,-16.36,0.43,-28.23,2,2
17302.218,-0.922,0.013,0.352,-15.96,0.67,-28.29,2,2
17302.218,-0.933,0.021,0.36,-14.47,0.76,-25.97,2,2
17302.234,-0.948,0.024,0.365,-12.09,1.13,-22.34,2,2
17302.25,-0.957,0.021,0.362,-8.58,1.8,-17.58,2,2
17302.25,-0.968,0.027,0.384,-5.58,2.59,-12.57,2,2
17302.265,-0.978,0.029,0.383,-1.16,2.81,-7.69,2,2
17302.281,-0.99,0.037,0.373,0.95,2.2,-3.42,2,2
17302.281,-0.98,0.032,0.372,2.2,1.19,0.92,2,2
17302.296,-0.975,0.033,0.371,3.48,0.03,4.18,2,2
17302.312,-0.958,0.023,0.364,4.3,-1.59,6.68,2,2
17302.312,-0.954,0.015,0.354,4.82,-4.21,9.16,2,2
17302.328,-0.947,0.008,0.344,4.76,-5.04,9.67,2,2
17302.328,-0.946,0.0,0.334,4.06,-5.01,9.19,2,2
17302.343,-0.943,0.002,0.334,2.96,-4.67,8.03,2,2
17302.359,-0.933,-0.006,0.339,1.77,-4.15,6.59,2,2
17302.359,-0.934,-0.005,0.341,1.07,-3.91,5.34,2,2
17302.39,-0.932,0.002,0.345,0.98,-3.91,4.09,2,2
17302.39,-0.935,0.005,0.345,0.64,-4.0,2.9,2,2
17302.406,-0.937,0.008,0.346,-0.34,-4.0,1.68,2,2
17302.406,-0.942,0.005,0.345,-1.13,-4.18,0.7,2,2
17302.421,-0.952,0.004,0.35,-1.74,-3.91,-0.52,2,2
17302.421,-0.954,0.005,0.356,-2.04,-3.75,-1.62,2,2
17302.437,-0.955,0.007,0.36,-2.14,-3.91,-2.04,2,2
17302.437,-0.953,0.003,0.359,-2.01,-4.82,-1.4,2,2
17302.453,-0.959,0.004,0.36,-1.01,-6.2,0.15,2,2
17302.468,-0.96,0.007,0.36,0.03,-7.32,1.59,2,2
17302.468,-0.958,0.005,0.355,0.64,-8.58,3.14,2,2
17302.484,-0.964,0.004,0.349,1.19,-9.61,4.61,2,2
17302.5,-0.971,0.003,0.34,1.46,-9.98,5.58,2,2
17302.5,-0.982,0.005,0.331,1.25,-9.61,6.13,2,2
17302.515,-0.998,0.01,0.333,0.37,-8.64,5.89,2,2
17302.531,-1.016,0.007,0.344,-1.01,-7.08,4.85,2,2
17302.531,-1.027,0.004,0.365,-2.84,-5.16,3.36,2,2
17302.546,-1.01,0.001,0.4,-4.36,-2.5,2.01,2,2
17302.546,-0.987,-0.008,0.438,-4.39,0.98,1.74,2,2
17302.562,-0.969,-0.009,0.47,-2.81,4.09,3.6,2,2
17302.578,-0.945,-0.013,0.502,0.4,5.65,7.35,2,2
17302.578,-0.94,-0.022,0.518,5.8,5.07,12.91,2,2
17302.593,-0.93,-0.018,0.514,11.84,1.98,20.14,2,2
17302.609,-0.936,0.001,0.488,16.63,-3.42,26.8,2,2
17302.609,-0.964,0.022,0.438,18.8,-10.68,31.92,2,2
17302.625,-0.967,0.035,0.391,17.85,-17.67,35.52,2,2
17302.64,-0.954,0.031,0.346,15.84,-22.16,36.62,2,2
17302.64,-0.942,0.021,0.311,13.64,-23.74,35.07,2,2
17302.656,-0.936,0.037,0.295,10.68,-22.68,31.83,2,2
17302.671,-0.926,0.026,0.27,11.08,-18.28,27.25,2,2
17302.671,-0.933,0.049,0.277,10.41,-10.99,22.13,2,2
17302.687,-0.947,0.047,0.307,10.04,-2.59,17.49,2,2
17302.687,-0.957,0.011,0.349,10.16,4.36,14.53,2,2
17302.703,-0.957,-0.01,0.386,13.31,9.19,10.96,2,2
17302.718,-0.973,-0.015,0.408,19.17,12.7,5.68,2,2
17302.718,-0.968,-0.004,0.445,22.83,13.64,-0.24,2,2
17302.734,-0.934,-0.006,0.468,24.9,11.38,-5.89,2,2
17302.75,-0.947,-0.017,0.472,25.33,7.45,-11.63,2,2
17302.75,-0.95,-0.017,0.486,23.53,3.27,-17.24,2,2
17302.765,-0.957,-0.014,0.491,20.11,-1.1,-23.47,2,2
17302.781,-0.991,-0.002,0.482,14.34,-5.74,-28.75,2,2
17302.781,-1.0,-0.007,0.474,6.68,-11.44,-30.43,2,2
17302.796,-0.973,-0.002,0.463,1.4,-17.61,-29.39,2,2
17302.796,-0.97,0.012,0.44,0.98,-21.88,-26.8,2,2
17302.812,-0.957,0.014,0.433,3.54,-24.63,-22.37,2,2
17302.828,-0.902,0.009,0.429,10.16,-25.64,-16.3,2,2
17302.828,-0.889,0.037,0.399,19.29,-24.38,-11.05,2,2
17302.843,-0.864,0.058,0.37,26.8,-21.79,-5.68,2,2
17302.859,-0.887,0.069,0.341,31.59,-19.41,-0.58,2,2
17302.859,-0.93,0.074,0.326,34.15,-19.2,4.61,2,2
17302.875,-0.9,0.09,0.319,34.79,-21.06,9.52,2,2
17302.89,-0.874,0.121,0.308,35.13,-22.4,11.57,2,2
17302.89,-0.877,0.143,0.301,33.57,-22.68,10.59,2,2
17302.906,-0.871,0.137,0.299,29.63,-22.74,8.91,2,2
17302.921,-0.85,0.149,0.301,25.39,-20.45,6.81,2,2
17302.921,-0.845,0.158,0.301,22.16,-16.57,4.36,2,2
17302.937,-0.848,0.171,0.303,20.2,-12.15,2.14,2,2
17302.937,-0.845,0.189,0.312,19.65,-8.85,1.77,2,2
17302.953,-0.837,0.202,0.311,20.91,-6.96,3.69,2,2
17302.968,-0.835,0.22,0.322,22.95,-6.47,7.23,2,2
17302.984,-0.839,0.205,0.321,24.41,-8.48,12.21,2,2
17302.984,-0.807,0.183,0.313,25.51,-12.48,18.04,2,2
17303.0,-0.756,0.185,0.296,27.5,-16.05,22.61,2,2
17303.0,-0.71,0.176,0.266,27.99,-17.88,24.63,2,2
17303.015,-0.686,0.164,0.229,25.03,-17.52,24.05,2,2
17303.031,-0.707,0.151,0.207,20.81,-13.21,21.3,2,2
17303.031,-0.751,0.121,0.214,16.66,-5.07,16.97,2,2
17303.046,-0.813,0.117,0.245,11.75,4.91,9.46,2,2
17303.062,-0.876,0.113,0.283,7.48,14.28,-1.07,2,2
17303.062,-0.913,0.139,0.344,2.56,20.69,-12.88,2,2
17303.078,-0.935,0.17,0.404,-1.83,24.08,-24.14,2,2
17303.078,-0.947,0.207,0.446,-6.71,23.22,-34.24,2,2
17303.093,-0.961,0.244,0.475,-12.27,17.82,-41.51,2,2
17303.109,-0.986,0.266,0.492,-17.61,8.3,-44.56,2,2
17303.109,-0.992,0.289,0.488,-22.71,-3.6,-43.46,2,2
17303.125,-1.001,0.305,0.472,-26.34,-15.35,-39.83,2,2
17303.14,-1.023,0.287,0.452,-28.81,-25.7,-33.75,2,2
17303.14,-1.04,0.266,0.424,-29.36,-33.75,-25.54,2,2
17303.156,-1.034,0.245,0.4,-26.98,-38.24,-15.59,2,2
17303.171,-1.005,0.212,0.371,-22.68,-38.73,-4.15,2,2
17303.171,-0.97,0.184,0.351,-16.91,-34.52,6.07,2,2
17303.187,-0.951,0.156,0.342,-9.86,-27.01,13.58,2,2
17303.203,-0.926,0.129,0.341,-3.42,-18.31,19.07,2,2
17303.203,-0.904,0.12,0.354,0.7,-9.52,22.71,2,2
17303.218,-0.901,0.101,0.369,3.39,-1.28,24.81,2,2
17303.218,-0.885,0.075,0.4,4.15,5.07,26.15,2,2
17303.234,-0.885,0.062,0.435,3.42,8.76,26.09,2,2
17303.25,-0.914,0.037,0.464,3.36,10.35,24.75,2,2
17303.25,-0.923,0.017,0.497,2.04,9.09,23.83,2,2
17303.265,-0.917,-0.0,0.517,1.43,5.8,23.19,2,2
17303.281,-0.914,-0.017,0.524,2.01,1.1,22.19,2,2
17303.281,-0.903,-0.028,0.516,2.93,-3.94,20.75,2,2
17303.296,-0.896,-0.031,0.501,3.78,-8.64,18.34,2,2
17303.312,-0.883,-0.027,0.477,0.09,-15.53,8.51,2,2
17303.312,-0.868,-0.016,0.451,-4.18,-17.52,3.05,2,2
17303.328,-0.856,-0.014,0.431,-8.45,-18.92,-1.86,2,2
17303.328,-0.83,-0.004,0.417,-11.54,-18.95,-5.77,2,2
17303.343,-0.832,-0.008,0.422,-12.94,-17.85,-9.13,2,2
17303.359,-0.835,-0.015,0.429,-12.39,-16.51,-11.2,2,2
17303.359,-0.836,0.001,0.423,-11.08,-15.35,-11.63,2,2
17303.375,-0.837,0.025,0.421,-9.98,-14.44,-11.08,2,2
17303.39,-0.829,0.036,0.421,-8.58,-14.13,-9.61,2,2
17303.39,-0.822,0.048,0.413,-6.96,-13.58,-7.57,2,2
17303.406,-0.822,0.054,0.406,-4.91,-12.63,-5.22,2,2
17303.421,-0.823,0.049,0.402,-3.23,-11.14,-2.53,2,2
17303.421,-0.82,0.044,0.409,-1.95,-8.97,-0.55,2,2
17303.437,-0.818,0.042,0.404,-0.73,-6.5,0.4,2,2
17303.437,-0.815,0.022,0.407,1.31,-4.03,1.37,2,2
17303.453,-0.804,0.033,0.421,2.41,-1.95,2.47,2,2
17303.468,-0.805,0.04,0.425,4.49,0.34,2.56,2,2
17303.484,-0.828,0.047,0.442,4.39,2.59,1.68,2,2
17303.484,-0.838,0.036,0.464,2.87,3.75,0.4,2,2
17303.5,-0.832,0.027,0.479,2.2,3.42,-1.25,2,2
17303.5,-0.83,0.04,0.484,2.35,1.83,-3.2,2,2
17303.515,-0.833,0.055,0.48,1.74,-0.7,-4.88,2,2
17303.531,-0.831,0.064,0.473,-0.21,-4.06,-5.68,2,2
17303.531,-0.838,0.067,0.462,-1.86,-7.63,-6.1,2,2
17303.546,-0.844,0.067,0.449,-2.93,-10.47,-5.95,2,2
17303.562,-0.847,0.072,0.432,-3.42,-11.78,-6.5,2,2
17303.562,-0.851,0.078,0.412,-3.75,-11.81,-7.72,2,2
17303.578,-0.854,0.088,0.393,-4.7,-10.56,-9.28,2,2
17303.578,-0.865,0.104,0.381,-6.26,-7.97,-10.86,2,2
17303.593,-0.88,0.115,0.371,-8.21,-5.1,-12.54,2,2
17303.609,-0.902,0.138,0.363,-10.71,-1.98,-14.95,2,2
17303.609,-0.933,0.148,0.362,-13.64,1.19,-16.94,2,2
17303.625,-0.947,0.129,0.378,-15.75,4.85,-16.72,2,2
17303.64,-0.947,0.108,0.395,-15.35,8.18,-13.55,2,2
17303.64,-0.94,0.086,0.408,-10.83,11.02,-8.24,2,2
17303.656,-0.938,0.078,0.414,-3.14,14.1,-2.66,2,2
17303.671,-0.929,0.088,0.417,3.33,16.54,1.8,2,2
17303.671,-0.939,0.1,0.417,6.01,18.25,3.14,2,2
17303.687,-0.949,0.104,0.412,4.73,17.91,2.01,2,2
17303.687,-0.941,0.111,0.414,0.03,16.45,-0.24,2,2
17303.703,-0.915,0.084,0.425,-5.13,13.86,-1.95,2,2
17303.718,-0.872,0.068,0.42,-7.51,9.58,-2.44,2,2
17303.718,-0.832,0.071,0.403,-7.29,6.35,-1.95,2,2
17303.734,-0.834,0.056,0.391,-6.78,5.49,-1.19,2,2
17303.75,-0.848,0.043,0.389,-7.39,7.2,-1.19,2,2
17303.75,-0.855,0.03,0.397,-8.03,11.38,-2.69,2,2
17303.765,-0.878,-0.002,0.418,-6.9,16.17,-5.71,2,2
17303.781,-0.889,-0.023,0.426,-2.84,19.29,-7.14,2,2
17303.781,-0.877,-0.014,0.42,3.85,20.45,-5.65,2,2
17303.796,-0.847,-0.01,0.415,11.35,20.08,-1.83,2,2
17303.796,-0.824,-0.006,0.4,18.98,19.53,2.44,2,2
17303.812,-0.815,0.019,0.384,23.87,18.4,4.67,2,2
17303.828,-0.843,0.06,0.371,24.99,17.43,2.26,2,2
17303.828,-0.887,0.093,0.385,19.26,15.75,-2.5,2,2
17303.843,-0.926,0.112,0.412,8.27,13.61,-6.04,2,2
17303.859,-0.915,0.095,0.428,-0.24,10.65,-4.49,2,2
17303.859,-0.829,0.03,0.419,-0.09,6.65,1.19,2,2
17303.875,-0.804,-0.004,0.386,6.87,3.02,6.93,2,2
17303.89,-0.856,-0.036,0.34,15.56,1.98,12.09,2,2
17303.89,-0.89,-0.055,0.319,20.57,4.12,13.55,2,2
17303.906,-0.908,-0.03,0.309,19.2,7.66,9.67,2,2
17303.921,-0.913,-0.006,0.285,12.02,10.77,3.75,2,2
17303.921,-0.872,0.03,0.281,-0.55,13.0,-1.25,2,2
17303.937,-0.816,0.057,0.303,-11.41,17.0,-4.18,2,2
17303.937,-0.846,0.048,0.321,-14.19,23.68,-6.9,2,2
17303.953,-0.891,0.059,0.354,-12.88,29.57,-10.04,2,2
17303.968,-0.927,0.094,0.375,-10.68,33.97,-14.13,2,2
17303.968,-1.014,0.099,0.389,-11.44,35.16,-16.51,2,2
17303.984,-1.048,0.072,0.423,-16.91,31.34,-13.21,2,2
17304.0,-1.03,0.052,0.446,-19.65,24.57,-6.65,2,2
17304.0,-1.0,0.055,0.438,-17.88,15.47,0.85,2,2
17304.015,-0.882,0.059,0.425,-14.8,5.52,8.76,2,2
17304.031,-0.817,0.074,0.387,-10.35,-0.92,13.12,2,2
17304.031,-0.849,0.076,0.319,-7.97,-3.57,14.68,2,2
17304.046,-0.91,0.059,0.298,-9.64,-2.78,14.92,2,2
17304.046,-0.971,0.043,0.293,-12.79,-0.21,13.86,2,2
17304.062,-1.032,0.032,0.29,-15.84,1.89,13.98,2,2
17304.078,-1.046,0.029,0.303,-17.06,3.51,17.55,2,2
17304.078,-0.948,0.036,0.32,-14.44,4.18,23.65,2,2
17304.093,-0.807,0.088,0.322,-8.85,7.97,28.26,2,2
17304.109,-0.794,0.101,0.314,-3.14,15.96,30.27,2,2
17304.109,-0.842,0.084,0.328,-1.86,21.73,30.92,2,2
17304.125,-0.891,0.09,0.357,-3.69,24.93,29.18,2,2
17304.14,-0.991,0.054,0.376,-6.04,26.31,26.31,2,2
17304.14,-1.08,0.024,0.401,-9.74,24.26,25.42,2,2
17304.156,-1.118,0.01,0.425,-10.71,19.71,25.61,2,2
17304.171,-1.066,0.017,0.433,-8.12,12.94,25.24,2,2
17304.171,-0.951,0.099,0.41,-5.74,3.63,19.9,2,2
17304.187,-0.933,0.177,0.337,-7.35,-6.1,10.13,2,2
17304.187,-0.937,0.195,0.292,-17.3,-17.15,2.5,2,2
17304.203,-0.93,0.201,0.285,-31.56,-27.22,-2.59,2,2
17304.218,-0.96,0.161,0.271,-41.38,-33.14,-5.01,2,2
17304.234,-0.987,0.087,0.278,-46.05,-35.04,-3.57,2,2
17304.234,-0.975,0.05,0.295,-44.95,-33.33,0.12,2,2
17304.25,-0.993,0.012,0.294,-38.3,-28.87,4.21,2,2
17304.25,-1.022,-0.024,0.302,-30.12,-23.13,9.8,2,2
17304.265,-0.994,-0.007,0.313,-22.95,-18.16,15.87,2,2
17304.281,-0.964,0.021,0.302,-16.57,-14.62,20.17,2,2
17304.281,-0.935,0.056,0.287,-14.19,-15.23,22.52,2,2
17304.296,-0.863,0.11,0.285,-17.33,-15.69,18.28,2,2
17304.312,-0.796,0.144,0.28,-22.86,-14.59,11.87,2,2
17304.312,-0.781,0.137,0.286,-29.48,-11.96,5.52,2,2
17304.328,-0.838,0.073,0.327,-33.69,-9.09,0.89,2,2
17304.328,-0.876,0.027,0.359,-35.0,-6.13,-0.58,2,2
17304.343,-0.917,-0.026,0.388,-31.98,-2.53,1.22,2,2
17304.359,-0.942,-0.05,0.405,-25.27,0.73,6.2,2,2
17304.375,-0.956,-0.05,0.422,-17.0,3.17,13.67,2,2
17304.375,-0.959,-0.038,0.429,-7.11,3.27,20.39,2,2
17304.39,-0.927,-0.004,0.417,1.68,-0.79,24.96,2,2
17304.39,-0.887,0.052,0.39,8.3,-7.54,24.2,2,2
17304.406,-0.858,0.107,0.353,10.5,-15.81,17.43,2,2
17304.421,-0.858,0.119,0.32,8.42,-25.12,8.3,2,2
17304.421,-0.848,0.108,0.292,4.39,-33.39,-1.68,2,2
17304.437,-0.836,0.08,0.285,-1.25,-36.38,-9.22,2,2
17304.437,-0.842,0.017,0.291,-4.88,-31.86,-11.35,2,2
17304.453,-0.869,-0.018,0.311,-5.43,-21.73,-7.78,2,2
17304.468,-0.874,-0.023,0.344,-1.34,-8.73,-0.46,2,2
17304.484,-0.874,0.004,0.378,5.01,3.17,8.36,2,2
17304.484,-0.912,0.045,0.392,11.84,11.14,16.45,2,2
17304.5,-0.896,0.099,0.403,16.57,15.66,24.17,2,2
17304.5,-0.887,0.169,0.399,18.4,15.26,28.35,2,2
17304.515,-0.868,0.21,0.395,17.06,9.92,28.99,2,2
17304.531,-0.843,0.201,0.394,13.12,2.66,27.59,2,2
17304.531,-0.823,0.185,0.389,7.51,-3.54,24.38,2,2
17304.546,-0.803,0.165,0.399,1.1,-5.98,19.29,2,2
17304.562,-0.822,0.131,0.418,-4.55,-4.55,13.12,2,2
17304.562,-0.857,0.1,0.44,-7.54,-1.4,7.14,2,2
17304.578,-0.873,0.091,0.462,-8.0,1.71,2.29,2,2
17304.593,-0.906,0.104,0.47,-6.59,2.35,-1.8,2,2
17304.593,-0.9,0.134,0.457,-5.58,-1.28,-5.22,2,2
17304.609,-0.917,0.154,0.44,-6.23,-6.38,-6.99,2,2
17304.609,-0.956,0.162,0.423,-8.36,-10.96,-6.62,2,2
17304.625,-0.953,0.177,0.417,-10.71,-14.19,-4.91,2,2
17304.64,-0.955,0.189,0.417,-10.99,-13.89,-2.62,2,2
17304.656,-0.952,0.204,0.435,-9.46,-10.83,0.03,2,2
17304.656,-0.915,0.219,0.455,-6.65,-7.35,3.85,2,2
17304.671,-0.883,0.229,0.462,-2.96,-4.91,8.51,2,2
17304.671,-0.862,0.229,0.466,0.31,-4.12,13.98,2,2
17304.687,-0.846,0.222,0.457,2.2,-5.22,19.5,2,2
17304.687,-0.831,0.214,0.438,1.68,-6.29,23.87,2,2
17304.703,-0.855,0.195,0.429,0.85,-4.39,24.38,2,2
17304.718,-0.857,0.189,0.438,-0.89,-0.89,20.94,2,2
17304.718,-0.862,0.179,0.452,-3.97,2.29,15.47,2,2
17304.734,-0.88,0.173,0.46,-6.5,3.81,9.89,2,2
17304.75,-0.883,0.176,0.47,-8.45,2.93,7.08,2,2
17304.75,-0.88,0.173,0.48,-9.34,1.25,8.21,2,2
17304.765,-0.895,0.165,0.47,-8.55,-1.98,10.41,2,2
17304.781,-0.876,0.17,0.459,-7.75,-6.44,12.54,2,2
17304.781,-0.855,0.186,0.465,-8.7,-8.36,14.77,2,2
17304.796,-0.855,0.193,0.483,-10.13,-7.42,16.82,2,2
17304.812,-0.871,0.218,0.504,-11.44,-6.5,18.86,2,2
17304.812,-0.857,0.236,0.531,-12.91,-7.63,19.41,2,2
17304.828,-0.863,0.223,0.546,-12.57,-10.35,19.99,2,2
17304.828,-0.867,0.239,0.539,-11.38,-15.5,19.93,2,2
17304.843,-0.846,0.232,0.515,-10.44,-22.25,18.56,2,2
17304.859,-0.841,0.216,0.472,-11.44,-27.92,16.24,2,2
17304.875,-0.851,0.203,0.425,-14.31,-29.69,13.15,2,2
17304.875,-0.864,0.17,0.406,-17.33,-27.13,10.07,2,2
17304.89,-0.86,0.14,0.414,-19.81,-21.18,8.39,2,2
17304.89,-0.848,0.122,0.426,-20.11,-12.36,8.03,2,2
17304.906,-0.839,0.121,0.449,-18.74,-1.98,8.7,2,2
17304.906,-0.841,0.13,0.475,-15.99,7.69,11.02,2,2
17304.921,-0.843,0.16,0.496,-12.02,14.68,13.7,2,2
17304.937,-0.842,0.186,0.517,-9.22,18.34,16.39,2,2
17304.953,-0.832,0.202,0.53,-8.39,18.31,18.74,2,2
17304.953,-0.823,0.196,0.521,-7.97,15.96,21.06,2,2
17304.968,-0.824,0.192,0.511,-7.66,12.91,22.16,2,2
17304.968,-0.831,0.191,0.492,-7.72,9.86,20.87,2,2
17304.984,-0.839,0.19,0.473,-8.88,7.42,17.7,2,2
17305.0,-0.854,0.182,0.468,-10.65,6.65,13.89,2,2
17305.015,-0.857,0.156,0.467,-12.21,7.63,10.99,2,2
17305.015,-0.859,0.131,0.463,-12.27,10.01,10.04,2,2
17305.031,-0.841,0.123,0.454,-9.95,13.52,10.5,2,2
17305.031,-0.836,0.13,0.441,-6.53,18.07,11.93,2,2
17305.046,-0.851,0.147,0.427,-3.42,22.8,14.56,2,2
17305.062,-0.887,0.165,0.426,-0.82,26.61,16.42,2,2
17305.062,-0.903,0.172,0.432,0.43,28.63,17.06,2,2
17305.078,-0.905,0.167,0.441,0.92,29.66,16.57,2,2
17305.078,-0.893,0.171,0.445,2.08,29.57,15.59,2,2
17305.093,-0.876,0.179,0.446,4.33,28.63,14.47,2,2
17305.109,-0.876,0.185,0.445,7.14,27.38,12.85,2,2
17305.109,-0.873,0.198,0.44,8.91,25.42,11.05,2,2
17305.125,-0.875,0.205,0.432,9.58,22.92,8.27,2,2
17305.14,-0.891,0.195,0.432,9.43,21.06,5.52,2,2
17305.14,-0.896,0.188,0.43,8.85,19.5,3.69,2,2
17305.156,-0.902,0.191,0.428,10.01,18.89,2.66,2,2
17305.156,-0.899,0.197,0.429,12.33,18.86,1.8,2,2
17305.171,-0.894,0.203,0.417,14.4,18.4,0.55,2,2
17305.187,-0.893,0.21,0.418,15.59,17.7,-1.1,2,2
17305.203,-0.898,0.209,0.425,15.69,16.82,-2.72,2,2
17305.203,-0.902,0.199,0.426,15.23,15.35,-4.52,2,2
17305.218,-0.906,0.184,0.435,14.95,14.19,-6.59,2,2
17305.218,-0.901,0.168,0.442,14.89,13.43,-9.28,2,2
17305.234,-0.901,0.159,0.455,15.59,12.02,-12.45,2,2
17305.25,-0.895,0.161,0.459,16.42,8.97,-15.5,2,2
17305.25,-0.889,0.177,0.456,16.42,3.94,-18.89,2,2
17305.265,-0.878,0.187,0.458,13.52,-8.0,-25.39,2,2
17305.281,-0.889,0.193,0.454,12.02,-13.06,-28.23,2,2
17305.281,-0.906,0.196,0.445,10.8,-16.88,-29.33,2,2
17305.296,-0.92,0.204,0.439,10.28,-19.75,-29.39,2,2
17305.312,-0.906,0.224,0.401,11.51,-21.3,-28.02,2,2
17305.312,-0.879,0.24,0.374,13.49,-21.73,-25.27,2,2
17305.328,-0.864,0.257,0.341,14.89,-20.94,-21.67,2,2
17305.328,-0.873,0.264,0.317,14.98,-19.07,-18.34,2,2
17305.343,-0.894,0.259,0.311,14.07,-16.02,-15.32,2,2
17305.359,-0.907,0.243,0.322,12.54,-11.14,-11.99,2,2
17305.375,-0.916,0.225,0.342,12.51,-4.82,-8.12,2,2
17305.375,-0.922,0.209,0.366,15.78,2.32,-4.09,2,2
17305.39,-0.914,0.202,0.387,19.9,8.33,-0.64,2,2
17305.39,-0.9,0.209,0.403,23.41,12.33,2.96,2,2
17305.406,-0.885,0.223,0.411,26.06,13.64,6.5,2,2
17305.421,-0.87,0.236,0.412,27.68,12.57,9.09,2,2
17305.421,-0.863,0.235,0.406,27.99,10.28,10.41,2,2
17305.437,-0.861,0.229,0.397,27.07,8.33,11.11,2,2
17305.453,-0.863,0.214,0.393,25.82,7.54,11.51,2,2
17305.453,-0.862,0.198,0.389,25.7,8.06,11.9,2,2
17305.468,-0.838,0.216,0.371,26.37,8.21,10.77,2,2
17305.468,-0.831,0.23,0.359,26.64,8.21,6.9,2,2
17305.484,-0.832,0.199,0.367,25.06,10.53,6.2,2,2
17305.5,-0.829,0.202,0.362,24.69,12.79,6.93,2,2
17305.5,-0.837,0.188,0.354,27.99,14.98,7.78,2,2
17305.515,-0.845,0.184,0.346,31.04,17.03,8.55,2,2
17305.531,-0.845,0.196,0.337,32.47,19.04,9.0,2,2
17305.531,-0.843,0.192,0.333,32.96,21.52,9.13,2,2
17305.546,-0.836,0.199,0.323,33.51,23.59,7.87,2,2
17305.562,-0.839,0.215,0.313,33.66,25.33,5.46,2,2
17305.562,-0.846,0.223,0.315,32.62,26.37,2.47,2,2
17305.578,-0.855,0.217,0.322,31.53,27.8,-0.4,2,2
17305.578,-0.863,0.22,0.329,31.25,28.99,-2.93,2,2
17305.593,-0.871,0.23,0.329,31.65,29.18,-5.43,2,2
17305.609,-0.879,0.242,0.327,31.98,28.32,-8.55,2,2
17305.609,-0.883,0.25,0.328,31.56,25.94,-11.54,2,2
17305.625,-0.885,0.249,0.324,30.15,23.13,-12.91,2,2
17305.64,-0.889,0.246,0.317,28.6,20.51,-12.94,2,2
17305.64,-0.893,0.248,0.315,27.13,18.28,-12.27,2,2
17305.656,-0.891,0.242,0.315,27.04,16.63,-11.84,2,2
17305.671,-0.895,0.236,0.313,27.59,15.66,-12.02,2,2
17305.671,-0.891,0.241,0.31,29.15,15.29,-12.63,2,2
17305.687,-0.892,0.249,0.305,30.4,15.14,-13.34,2,2
17305.687,-0.899,0.272,0.296,30.06,14.22,-14.86,2,2
17305.703,-0.891,0.292,0.289,27.65,12.63,-16.82,2,2
17305.718,-0.882,0.301,0.291,24.35,10.93,-19.04,2,2
17305.718,-0.868,0.29,0.298,21.49,9.95,-19.9,2,2
17305.734,-0.856,0.282,0.306,19.96,10.16,-18.68,2,2
17305.75,-0.853,0.29,0.304,20.42,10.8,-16.82,2,2
17305.75,-0.862,0.305,0.289,20.84,10.38,-15.5,2,2
17305.765,-0.882,0.311,0.279,19.1,9.61,-14.25,2,2
17305.781,-0.895,0.302,0.279,16.42,9.55,-11.81,2,2
17305.781,-0.904,0.29,0.277,14.68,10.32,-8.67,2,2
17305.796,-0.907,0.278,0.281,13.7,11.93,-5.25,2,2
17305.812,-0.912,0.275,0.288,13.03,13.67,-2.47,2,2
17305.812,-0.915,0.276,0.297,12.79,14.62,-0.79,2,2
17305.828,-0.921,0.275,0.308,12.3,14.25,0.52,2,2
17305.828,-0.923,0.283,0.315,11.57,12.18,1.13,2,2
17305.843,-0.925,0.296,0.314,10.25,8.39,0.64,2,2
17305.859,-0.931,0.297,0.314,7.39,4.15,-0.4,2,2
17305.859,-0.928,0.291,0.314,3.66,-0.52,-0.98,2,2
17305.875,-0.919,0.284,0.308,0.49,-5.16,-0.21,2,2
17305.89,-0.906,0.265,0.301,-1.1,-9.28,1.95,2,2
17305.89,-0.894,0.249,0.282,-1.04,-12.12,5.13,2,2
17305.906,-0.891,0.249,0.257,-0.37,-13.43,8.67,2,2
17305.921,-0.887,0.247,0.236,-0.12,-13.61,11.63,2,2
17305.921,-0.892,0.242,0.215,0.0,-12.48,12.63,2,2
17305.937,-0.894,0.238,0.205,-0.24,-10.19,12.39,2,2
17305.937,-0.891,0.237,0.204,-0.85,-7.29,10.9,2,2
17305.953,-0.889,0.242,0.198,-1.62,-4.7,9.03,2,2
17305.968,-0.89,0.247,0.206,-2.72,-2.69,7.84,2,2
17305.968,-0.891,0.247,0.218,-3.45,-1.43,8.09,2,2
17305.984,-0.899,0.241,0.22,-3.08,-0.73,9.25,2,2
17306.0,-0.907,0.233,0.225,-2.08,-0.34,10.71,2,2
17306.0,-0.92,0.222,0.224,-0.79,0.0,12.27,2,2
17306.015,-0.933,0.224,0.224,0.21,0.37,12.79,2,2
17306.031,-0.934,0.219,0.23,0.85,1.1,12.76,2,2
17306.031,-0.934,0.223,0.224,1.46,1.43,12.02,2,2
17306.046,-0.928,0.228,0.221,1.92,1.16,10.04,2,2
17306.062,-0.926,0.224,0.226,1.77,0.89,7.75,2,2
17306.062,-0.928,0.226,0.226,1.8,0.58,5.13,2,2
17306.078,-0.929,0.226,0.231,1.86,0.27,2.75,2,2
17306.078,-0.931,0.229,0.239,1.74,-0.15,0.58,2,2
17306.093,-0.932,0.244,0.243,1.77,-0.95,-1.71,2,2
17306.109,-0.936,0.257,0.247,0.82,-2.01,-3.75,2,2
17306.109,-0.93,0.271,0.254,-0.89,-3.88,-5.71,2,2
17306.125,-0.922,0.272,0.257,-2.04,-5.98,-6.35,2,2
17306.14,-0.914,0.273,0.253,-2.23,-8.12,-5.65,2,2
17306.14,-0.902,0.27,0.249,-1.8,-9.95,-3.6,2,2
17306.156,-0.892,0.266,0.24,-0.46,-10.8,-0.85,2,2
17306.171,-0.883,0.27,0.221,1.13,-10.96,1.19,2,2
17306.171,-0.877,0.268,0.204,2.04,-9.86,1.74,2,2
17306.187,-0.877,0.266,0.197,1.43,-7.6,1.8,2,2
17306.187,-0.879,0.261,0.198,0.4,-4.15,1.74,2,2
17306.203,-0.884,0.252,0.197,0.43,-0.09,1.8,2,2
17306.218,-0.895,0.254,0.2,1.37,3.42,1.53,2,2
17306.218,-0.91,0.257,0.211,1.95,6.2,0.58,2,2
17306.234,-0.929,0.258,0.226,1.43,8.18,-0.24,2,2
17306.25,-0.942,0.261,0.243,0.82,9.06,-0.34,2,2
17306.25,-0.949,0.262,0.259,0.24,6.68,-0.24,2,2
17306.265,-0.952,0.267,0.271,-0.7,3.75,0.0,2,2
17306.281,-0.948,0.268,0.275,-1.07,-0.15,0.64,2,2
17306.281,-0.943,0.267,0.263,-0.61,-3.97,0.79,2,2
17306.296,-0.938,0.264,0.248,-1.34,-7.17,0.34,2,2
17306.296,-0.935,0.257,0.236,-1.8,-9.03,-0.52,2,2
17306.312,-0.931,0.255,0.226,-2.17,-9.25,-1.31,2,2
17306.328,-0.918,0.25,0.222,-2.44,-8.39,-1.83,2,2
17306.328,-0.907,0.246,0.221,-2.11,-6.62,-1.68,2,2
17306.343,-0.895,0.247,0.218,-0.92,-4.36,-0.85,2,2
17306.359,-0.884,0.253,0.216,0.61,-2.26,0.37,2,2
17306.359,-0.879,0.262,0.215,1.4,-0.4,1.34,2,2
17306.375,-0.882,0.262,0.217,1.43,1.1,1.68,2,2
17306.39,-0.89,0.261,0.221,0.79,2.04,1.59,2,2
17306.39,-0.898,0.26,0.224,0.21,2.44,1.16,2,2
17306.406,-0.907,0.255,0.228,-0.55,2.59,0.55,2,2
17306.421,-0.913,0.248,0.233,-0.82,2.69,-0.06,2,2
17306.421,-0.918,0.24,0.235,-0.21,2.72,-0.76,2,2
17306.437,-0.92,0.241,0.233,0.43,2.35,-1.86,2,2
17306.453,-0.92,0.246,0.23,0.79,1.5,-3.45,2,2
17306.453,-0.923,0.243,0.228,0.15,0.46,-5.16,2,2
17306.468,-0.93,0.24,0.227,-0.82,-0.31,-6.81,2,2
17306.468,-0.933,0.236,0.223,-1.59,-0.64,-8.58,2,2
17306.484,-0.936,0.233,0.218,-2.32,-0.43,-9.67,2,2
17306.5,-0.935,0.236,0.22,-2.44,0.18,-10.47,2,2
17306.515,-0.931,0.248,0.221,-2.23,0.7,-11.02,2,2
17306.515,-0.926,0.258,0.222,-2.66,0.64,-11.2,2,2
17306.531,-0.916,0.261,0.226,-3.27,-0.18,-10.96,2,2
17306.531,-0.909,0.263,0.229,-3.33,-1.46,-10.56,2,2
17306.546,-0.907,0.259,0.221,-2.99,-2.5,-10.04,2,2
17306.546,-0.917,0.255,0.22,-3.08,-3.08,-9.67,2,2
17306.562,-0.924,0.244,0.214,-2.96,-3.17,-9.19,2,2
17306.578,-0.929,0.244,0.209,-3.48,-2.78,-8.97,2,2
17306.578,-0.938,0.234,0.208,-4.12,-1.5,-8.33,2,2
17306.593,-0.946,0.232,0.212,-4.24,0.27,-7.39,2,2
17306.609,-0.945,0.237,0.214,-3.51,1.98,-6.2,2,2
17306.609,-0.948,0.244,0.219,-2.62,3.45,-4.18,2,2
17306.625,-0.952,0.256,0.226,-2.04,4.27,-1.5,2,2
17306.64,-0.95,0.264,0.233,-1.8,4.0,1.19,2,2
17306.656,-0.948,0.261,0.237,-1.86,2.96,3.39,2,2
17306.656,-0.949,0.256,0.24,-1.86,1.65,5.34,2,2
17306.656,-0.941,0.255,0.235,-1.71,0.09,6.87,2,2
17306.671,-0.938,0.249,0.23,-2.01,-1.37,7.66,2,2
17306.687,-0.933,0.242,0.226,-2.66,-2.56,7.66,2,2
17306.687,-0.931,0.237,0.223,-3.23,-2.99,6.9,2,2
17306.703,-0.925,0.234,0.22,-3.78,-3.02,5.98,2,2
17306.718,-0.923,0.226,0.219,-3.91,-2.62,4.97,2,2
17306.718,-0.926,0.225,0.217,-3.66,-2.04,3.85,2,2
17306.734,-0.925,0.221,0.216,-3.39,-1.43,2.75,2,2
17306.75,-0.926,0.222,0.222,-3.48,-0.89,2.17,2,2
17306.75,-0.93,0.224,0.227,-3.27,-0.37,2.2,2,2
17306.765,-0.93,0.235,0.225,-3.45,-0.46,1.86,2,2
17306.781,-0.926,0.239,0.226,-4.3,-0.64,1.01,2,2
17306.781,-0.925,0.233,0.231,-4.64,-0.79,0.49,2,2
17306.796,-0.933,0.233,0.233,-4.15,-1.13,0.18,2,2
17306.796,-0.936,0.237,0.229,-4.3,-1.77,0.15,2,2
17306.812,-0.934,0.243,0.24,-4.73,-2.75,0.34,2,2
17306.828,-0.926,0.24,0.227,-3.78,-3.27,0.64,2,2
17306.828,-0.921,0.226,0.231,-3.85,-3.81,0.92,2,2
17306.843,-0.914,0.229,0.235,-3.97,-4.24,1.16,2,2
17306.859,-0.913,0.238,0.221,-3.36,-4.3,0.79,2,2
17306.875,-0.913,0.235,0.218,-3.42,-4.12,0.37,2,2
17306.875,-0.916,0.227,0.22,-3.39,-3.69,-0.03,2,2
17306.89,-0.917,0.224,0.218,-2.78,-3.02,-0.43,2,2
17306.89,-0.917,0.223,0.218,-2.08,-2.08,-0.31,2,2
17306.906,-0.919,0.229,0.22,-1.65,-1.1,-0.4,2,2
17306.921,-0.916,0.238,0.218,-1.46,-0.49,-1.04,2,2
17306.921,-0.912,0.236,0.225,-1.65,0.12,-1.53,2,2
17306.937,-0.917,0.231,0.233,-1.46,1.07,-1.22,2,2
17306.953,-0.922,0.231,0.238,-0.52,1.46,-0.61,2,2
17306.953,-0.924,0.234,0.243,0.34,1.37,-0.43,2,2
17306.968,-0.928,0.239,0.242,0.37,0.43,-0.89,2,2
17306.968,-0.931,0.234,0.247,0.03,-0.21,-0.82,2,2
17306.984,-0.929,0.236,0.25,-0.24,-1.16,-0.31,2,2
17307.0,-0.926,0.24,0.246,-0.79,-2.08,0.34,2,2
17307.0,-0.924,0.236,0.244,-1.19,-3.02,1.16,2,2
17307.015,-0.92,0.23,0.236,-0.95,-3.45,1.5,2,2
17307.031,-0.921,0.225,0.227,-0.76,-3.17,1.74,2,2
17307.031,-0.921,0.226,0.22,-0.79,-2.32,1.95,2,2
17307.046,-0.92,0.228,0.22,-1.31,-1.25,1.37,2,2
17307.062,-0.917,0.224,0.223,-1.68,0.24,0.61,2,2
17307.062,-0.918,0.226,0.229,-1.77,1.34,-0.15,2,2
17307.078,-0.92,0.23,0.235,-1.77,1.89,-1.1,2,2
17307.078,-0.924,0.235,0.24,-1.95,1.53,-1.95,2,2
17307.093,-0.932,0.235,0.239,-2.41,0.92,-2.5,2,2
17307.109,-0.933,0.237,0.237,-2.84,0.43,-2.69,2,2
17307.109,-0.935,0.232,0.237,-3.05,0.24,-2.5,2,2
17307.125,-0.935,0.231,0.238,-2.9,0.0,-2.29,2,2
17307.14,-0.937,0.233,0.236,-2.08,-0.15,-2.17,2,2
17307.14,-0.933,0.239,0.234,-1.65,-0.43,-2.59,2,2
17307.156,-0.931,0.245,0.229,-2.38,-1.04,-3.36,2,2
17307.171,-0.93,0.248,0.233,-3.6,-1.5,-4.15,2,2
17307.171,-0.925,0.24,0.238,-4.18,-1.59,-4.67,2,2
17307.187,-0.923,0.232,0.246,-4.06,-1.8,-4.7,2,2
17307.203,-0.923,0.237,0.251,-3.45,-2.29,-4.24,2,2
17307.203,-0.924,0.238,0.248,-2.81,-3.45,-3.57,2,2
17307.218,-0.927,0.232,0.245,-2.9,-4.58,-2.9,2,2
17307.218,-0.929,0.226,0.239,-3.39,-5.46,-2.32,2,2
17307.234,-0.929,0.216,0.232,-3.66,-5.34,-1.07,2,2
17307.25,-0.93,0.208,0.226,-3.33,-3.91,-0.49,2,2
17307.25,-0.93,0.209,0.22,-3.11,-2.2,-0.09,2,2
17307.265,-0.927,0.211,0.218,-2.99,-0.4,-0.09,2,2
17307.281,-0.924,0.215,0.228,-2.53,1.01,-0.34,2,2
17307.281,-0.923,0.214,0.232,-1.68,1.98,-0.76,2,2
17307.296,-0.925,0.221,0.235,-1.31,2.14,-1.37,2,2
17307.312,-0.924,0.225,0.241,-1.5,1.53,-1.95,2,2
17307.312,-0.928,0.22,0.245,-2.01,0.82,-1.25,2,2
17307.328,-0.927,0.221,0.246,-1.98,-0.09,0.12,2,2
17307.328,-0.921,0.22,0.243,-1.28,-0.76,1.04,2,2
17307.343,-0.917,0.216,0.24,-0.52,-1.22,1.31,2,2
