timestamp,ax,ay,az,gx,gy,gz,orient_label,motion_label
18551.921,-0.028,-1.04,0.053,1.1,-3.51,-1.19,3,5
18551.921,-0.02,-1.028,0.052,1.01,-3.05,-2.26,3,5
18551.937,-0.015,-1.021,0.055,0.34,-2.47,-2.5,3,5
18551.953,-0.009,-1.016,0.069,0.0,-2.11,-3.17,3,5
18551.953,-0.012,-1.019,0.087,0.92,-2.62,-3.94,3,5
18551.968,-0.017,-1.013,0.081,2.23,-3.78,-4.52,3,5
18551.968,-0.017,-1.002,0.07,2.32,-4.79,-4.67,3,5
18551.984,-0.025,-0.994,0.059,2.08,-4.82,-4.18,3,5
18552.0,-0.03,-0.981,0.061,1.28,-4.7,-2.69,3,5
18552.0,-0.014,-0.984,0.056,-0.46,-4.73,-1.31,3,5
18552.015,0.008,-0.994,0.047,-0.89,-4.03,-0.7,3,5
18552.031,-0.002,-0.994,0.042,0.06,-2.23,-0.7,3,5
18552.031,-0.024,-0.997,0.04,0.4,-0.58,-0.61,3,5
18552.046,-0.029,-0.998,0.045,-0.46,0.18,-0.49,3,5
18552.046,-0.015,-1.003,0.059,-0.79,0.34,-1.1,3,5
18552.062,-0.011,-1.003,0.07,0.92,0.27,-2.11,3,5
18552.078,-0.013,-0.984,0.078,2.72,0.12,-2.17,3,5
18552.093,0.001,-0.99,0.076,1.07,-3.23,-2.08,3,5
18552.109,0.002,-0.997,0.068,2.23,-2.81,-2.66,3,5
18552.125,-0.015,-1.0,0.054,2.29,-2.35,-2.87,3,5
18552.125,-0.016,-0.991,0.051,1.98,-2.23,-3.45,3,5
18552.14,0.012,-0.992,0.063,2.44,-1.77,-4.12,3,5
18552.14,-0.001,-0.98,0.075,3.91,-1.28,-4.46,3,5
18552.156,-0.022,-0.975,0.076,4.39,-1.74,-4.27,3,5
18552.171,-0.024,-0.981,0.065,3.78,-2.9,-3.02,3,5
18552.171,-0.012,-0.989,0.05,3.08,-3.36,-1.98,3,5
18552.187,-0.006,-0.99,0.042,2.99,-2.26,-1.07,3,5
18552.187,-0.003,-0.987,0.047,2.5,-0.64,0.46,3,5
18552.203,0.008,-0.988,0.062,1.4,0.34,1.01,3,5
18552.218,-0.005,-0.982,0.082,1.83,0.64,0.55,3,5
18552.218,-0.021,-0.976,0.083,2.75,-0.09,1.01,3,5
18552.234,-0.008,-0.975,0.083,2.47,-1.22,1.8,3,5
18552.25,0.0,-0.984,0.077,3.02,-1.92,1.62,3,5
18552.265,0.003,-0.993,0.074,5.52,-1.86,0.18,3,5
18552.281,-0.003,-0.991,0.086,6.5,-2.14,-1.74,3,5
18552.281,-0.014,-0.978,0.092,7.23,-2.84,-3.27,3,5
18552.296,-0.011,-0.965,0.097,7.6,-3.88,-3.39,3,5
18552.312,-0.008,-0.958,0.1,8.0,-4.85,-3.23,3,5
18552.312,-0.016,-0.957,0.101,9.0,-5.98,-3.51,3,5
18552.328,-0.014,-0.953,0.098,10.47,-7.35,-3.91,3,5
18552.328,-0.005,-0.95,0.106,12.76,-9.0,-4.97,3,5
18552.343,-0.001,-0.952,0.121,15.44,-10.83,-6.84,3,5
18552.359,0.011,-0.96,0.144,18.8,-13.46,-10.13,3,5
18552.359,0.02,-0.973,0.182,24.51,-17.49,-15.96,3,5
18552.375,0.027,-0.987,0.227,32.81,-23.16,-25.18,3,5
18552.39,0.04,-0.995,0.28,43.64,-30.79,-37.42,3,5
18552.39,0.05,-0.986,0.325,56.25,-40.28,-52.64,3,5
18552.406,0.073,-0.965,0.365,69.73,-51.42,-70.74,3,5
18552.421,0.095,-0.918,0.398,84.72,-63.2,-90.91,3,5
18552.437,0.113,-0.807,0.417,117.13,-83.99,-130.53,3,5
18552.453,0.115,-0.753,0.404,132.97,-91.74,-147.62,3,5
18552.453,0.115,-0.697,0.385,147.8,-97.45,-161.14,3,5
18552.468,0.122,-0.671,0.377,161.05,-100.83,-172.12,3,5
18552.484,0.074,-0.603,0.406,175.08,-100.47,-183.2,3,5
18552.484,0.013,-0.532,0.436,191.08,-100.1,-189.64,3,5
18552.5,-0.014,-0.482,0.444,207.04,-102.39,-191.81,3,5
18552.5,-0.045,-0.416,0.447,221.81,-103.15,-193.12,3,5
18552.515,-0.074,-0.35,0.424,232.4,-102.57,-193.0,3,5
18552.531,-0.07,-0.315,0.389,236.73,-100.47,-189.37,3,5
18552.531,-0.053,-0.288,0.368,238.2,-95.25,-182.9,3,5
18552.546,-0.028,-0.274,0.324,241.0,-87.07,-174.35,3,5
18552.562,0.003,-0.262,0.29,244.51,-74.77,-163.7,3,5
18552.562,0.023,-0.243,0.283,246.44,-58.11,-152.23,3,5
18552.578,0.029,-0.237,0.275,246.65,-39.89,-139.96,3,5
18552.593,0.066,-0.235,0.279,242.68,-7.39,-112.37,3,5
18552.609,0.091,-0.216,0.288,240.79,7.39,-100.83,3,5
18552.609,0.106,-0.21,0.29,235.48,19.71,-90.61,3,5
18552.625,0.131,-0.213,0.292,225.01,30.7,-79.32,3,5
18552.64,0.154,-0.199,0.291,210.49,40.04,-67.23,3,5
18552.64,0.189,-0.212,0.29,192.82,49.04,-54.96,3,5
18552.656,0.246,-0.226,0.312,170.63,56.67,-43.79,3,5
18552.671,0.314,-0.228,0.333,145.66,64.58,-35.28,3,5
18552.671,0.327,-0.252,0.334,120.21,76.45,-31.16,3,5
18552.687,0.291,-0.32,0.33,96.07,89.63,-28.11,3,5
18552.703,0.306,-0.383,0.349,75.78,95.31,-24.35,3,5
18552.703,0.371,-0.425,0.371,64.0,103.21,-22.77,3,5
18552.718,0.353,-0.467,0.407,58.96,114.66,-23.38,3,5
18552.734,0.404,-0.504,0.447,59.72,124.15,-23.96,3,5
18552.734,0.4,-0.528,0.481,65.28,133.49,-31.16,3,5
18552.75,0.343,-0.589,0.547,69.52,140.11,-39.43,3,5
18552.765,0.387,-0.65,0.732,86.67,114.69,-59.97,3,5
18552.781,0.439,-0.626,0.763,118.5,106.51,-87.92,3,5
18552.781,0.473,-0.621,0.77,153.39,105.11,-115.6,3,5
18552.796,0.506,-0.548,0.768,182.35,108.01,-137.73,3,5
18552.812,0.522,-0.444,0.77,205.82,116.06,-155.46,3,5
18552.812,0.53,-0.347,0.783,219.79,128.67,-166.51,3,5
18552.828,0.56,-0.187,0.851,223.21,146.21,-175.21,3,5
18552.843,0.525,-0.012,0.972,220.56,167.3,-185.61,3,5
18552.843,0.421,0.118,1.103,211.31,183.17,-193.03,3,5
18552.859,0.322,0.23,1.235,194.77,186.07,-193.55,3,5
18552.859,0.231,0.33,1.36,176.18,176.55,-188.85,3,5
18552.875,0.164,0.379,1.449,159.46,155.8,-181.59,3,5
18552.89,0.153,0.386,1.482,145.73,128.54,-173.59,3,5
18552.89,0.184,0.387,1.458,137.52,101.96,-167.67,3,5
18552.906,0.242,0.395,1.401,135.53,83.38,-165.84,3,5
18552.921,0.275,0.419,1.336,137.97,76.11,-168.1,3,5
18552.921,0.262,0.442,1.273,142.03,77.18,-170.6,3,5
18552.937,0.237,0.543,1.244,144.2,82.98,-170.72,3,5
18552.953,0.161,0.667,1.257,144.14,88.56,-168.16,3,5
18552.953,0.064,0.772,1.293,138.4,85.51,-161.26,3,5
18552.968,-0.001,0.817,1.326,123.97,78.13,-145.6,3,5
18552.968,-0.045,0.841,1.354,102.18,68.24,-125.0,3,5
18552.984,-0.062,0.825,1.351,79.2,54.05,-107.39,3,5
18553.0,-0.048,0.773,1.327,56.37,37.42,-95.19,3,5
18553.0,-0.003,0.719,1.312,36.77,23.96,-88.75,3,5
18553.015,0.018,0.685,1.301,22.95,19.35,-87.07,3,5
18553.031,-0.003,0.63,1.316,15.32,22.19,-85.09,3,5
18553.046,-0.029,0.6,1.36,20.87,33.02,-84.81,3,5
18553.046,-0.126,0.62,1.315,36.71,24.48,-87.41,3,5
18553.062,-0.15,0.654,1.311,47.64,14.62,-95.55,3,5
18553.062,-0.202,0.604,1.28,52.58,8.33,-93.84,3,5
18553.078,-0.225,0.627,1.229,55.73,-1.43,-93.75,3,5
18553.093,-0.111,0.687,1.037,59.82,-18.92,-88.81,3,5
18553.109,-0.057,0.7,0.945,51.94,-6.2,-83.96,3,5
18553.109,-0.029,0.683,0.848,41.66,13.67,-77.64,3,5
18553.125,-0.07,0.627,0.854,34.09,39.89,-67.26,3,5
18553.14,-0.151,0.662,0.855,27.56,54.32,-61.37,3,5
18553.14,-0.232,0.743,0.927,14.16,54.17,-63.6,3,5
18553.156,-0.311,0.635,1.012,-1.74,51.3,-52.4,3,5
18553.171,-0.349,0.607,1.084,-15.26,41.47,-40.47,3,5
18553.171,-0.336,0.594,1.104,-21.94,26.15,-29.45,3,5
18553.187,-0.285,0.556,1.082,-23.47,15.11,-19.81,3,5
18553.203,-0.256,0.529,1.038,-22.86,11.35,-13.21,3,5
18553.203,-0.255,0.505,0.997,-20.39,10.47,-10.1,3,5
18553.218,-0.272,0.493,0.985,-16.33,12.79,-8.51,3,5
18553.218,-0.312,0.499,0.991,-10.77,16.21,-6.59,3,5
18553.234,-0.354,0.506,1.034,-4.91,15.29,-4.7,3,5
18553.25,-0.412,0.533,1.125,1.01,9.67,-1.89,3,5
18553.265,-0.423,0.577,1.141,2.81,-25.51,8.51,3,5
18553.281,-0.366,0.577,1.085,-5.19,-42.85,14.65,3,5
18553.281,-0.279,0.555,1.019,-16.63,-51.85,19.78,3,5
18553.296,-0.208,0.524,0.944,-26.76,-51.15,22.43,3,5
18553.312,-0.167,0.473,0.879,-31.4,-42.6,22.74,3,5
18553.312,-0.158,0.422,0.853,-29.18,-28.63,21.67,3,5
18553.328,-0.176,0.398,0.856,-21.67,-14.86,18.8,3,5
18553.343,-0.203,0.389,0.868,-12.05,-6.47,14.01,3,5
18553.343,-0.217,0.389,0.912,-2.47,-2.99,8.55,3,5
18553.359,-0.24,0.39,0.94,7.75,-3.57,4.39,3,5
18553.359,-0.238,0.407,0.942,13.34,-8.15,2.96,3,5
18553.375,-0.215,0.429,0.93,13.09,-13.58,2.44,3,5
18553.39,-0.192,0.444,0.905,8.76,-17.09,1.59,3,5
18553.39,-0.167,0.439,0.882,2.11,-18.43,0.64,3,5
18553.406,-0.149,0.421,0.859,-3.17,-16.3,-0.09,3,5
18553.421,-0.145,0.411,0.845,-5.31,-11.29,-1.01,3,5
18553.421,-0.143,0.399,0.836,-4.49,-5.74,-2.62,3,5
18553.437,-0.145,0.388,0.829,-1.77,0.58,-5.19,3,5
18553.453,-0.17,0.401,0.842,1.04,6.81,-8.76,3,5
18553.453,-0.205,0.419,0.868,2.9,10.01,-12.42,3,5
18553.468,-0.223,0.435,0.899,3.54,9.31,-14.68,3,5
18553.468,-0.233,0.452,0.92,4.67,6.68,-15.38,3,5
18553.484,-0.23,0.462,0.914,6.78,3.85,-14.37,3,5
18553.5,-0.225,0.481,0.892,7.87,1.59,-13.09,3,5
18553.5,-0.22,0.491,0.882,7.32,-0.09,-11.63,3,5
18553.515,-0.212,0.483,0.869,6.2,0.34,-9.25,3,5
18553.531,-0.209,0.487,0.854,4.52,1.1,-7.57,3,5
18553.546,-0.213,0.482,0.848,2.84,2.93,-5.98,3,5
18553.546,-0.23,0.478,0.85,1.5,4.24,-5.43,3,5
18553.562,-0.245,0.47,0.857,-0.79,4.27,-5.77,3,5
18553.562,-0.257,0.464,0.863,-3.48,2.5,-6.84,3,5
18553.578,-0.269,0.464,0.872,-5.74,-0.61,-8.24,3,5
18553.578,-0.276,0.45,0.878,-6.16,-4.85,-9.64,3,5
18553.609,-0.268,0.437,0.905,-3.63,-14.62,-11.87,3,5
18553.609,-0.25,0.449,0.903,-3.08,-19.96,-12.12,3,5
18553.625,-0.218,0.459,0.886,-4.36,-23.26,-11.99,3,5
18553.64,-0.198,0.45,0.853,-4.3,-22.89,-12.42,3,5
18553.64,-0.191,0.435,0.823,-1.8,-20.11,-12.7,3,5
18553.656,-0.184,0.429,0.802,2.2,-15.02,-12.91,3,5
18553.671,-0.196,0.436,0.792,6.26,-8.97,-13.89,3,5
18553.671,-0.216,0.445,0.801,9.13,-4.67,-15.84,3,5
18553.687,-0.241,0.453,0.821,10.71,-3.02,-18.22,3,5
18553.703,-0.252,0.455,0.834,10.96,-3.81,-20.69,3,5
18553.703,-0.24,0.451,0.849,9.34,-6.07,-21.67,3,5
18553.718,-0.224,0.459,0.851,7.9,-7.29,-20.72,3,5
18553.718,-0.207,0.458,0.841,8.36,-5.28,-18.31,3,5
18553.734,-0.2,0.452,0.817,9.8,-0.76,-14.92,3,5
18553.75,-0.203,0.46,0.809,10.93,3.81,-11.26,3,5
18553.765,-0.2,0.461,0.819,12.85,7.54,-8.51,3,5
18553.765,-0.203,0.432,0.809,16.97,11.66,-6.81,3,5
18553.781,-0.198,0.419,0.778,22.95,17.06,-5.07,3,5
18553.781,-0.192,0.437,0.75,31.5,24.84,-3.75,3,5
18553.796,-0.261,0.446,0.78,37.11,32.07,-4.36,3,5
18553.812,-0.336,0.528,0.879,26.34,29.36,-5.25,3,5
18553.812,-0.278,0.544,0.887,14.25,18.22,-3.17,3,5
18553.828,-0.285,0.43,0.881,13.95,12.42,-0.79,3,5
18553.828,-0.363,0.504,0.918,7.75,6.26,0.12,3,5
18553.843,-0.263,0.565,0.917,-1.68,-2.53,4.88,3,5
18553.859,-0.247,0.484,0.894,1.95,-7.32,7.97,3,5
18553.875,-0.236,0.488,0.867,3.33,-6.9,10.1,3,5
18553.875,-0.213,0.532,0.861,0.64,-4.88,11.66,3,5
18553.89,-0.21,0.505,0.875,0.46,-2.78,11.11,3,5
18553.89,-0.232,0.489,0.898,1.71,-1.74,9.43,3,5
18553.906,-0.237,0.483,0.899,4.97,-2.53,8.33,3,5
18553.921,-0.221,0.474,0.879,8.67,-3.85,7.81,3,5
18553.921,-0.214,0.487,0.88,9.98,-4.52,7.05,3,5
18553.953,-0.26,0.497,0.888,9.7,-8.03,6.59,3,5
18553.953,-0.239,0.495,0.878,4.85,-12.94,9.28,3,5
18553.968,-0.235,0.493,0.879,-0.34,-16.75,11.11,3,5
18553.968,-0.225,0.503,0.887,-8.0,-21.49,12.15,3,5
18553.984,-0.136,0.485,0.856,-15.26,-23.68,13.58,3,5
18554.0,-0.177,0.404,0.838,-9.86,-20.08,12.45,3,5
18554.0,-0.18,0.429,0.855,-10.5,-18.4,10.25,3,5
18554.015,-0.157,0.481,0.863,-10.01,-17.4,9.89,3,5
18554.031,-0.146,0.478,0.831,-3.72,-15.08,11.9,3,5
18554.046,-0.108,0.46,0.805,-3.02,-9.8,10.28,3,5
18554.046,-0.087,0.423,0.793,-3.3,-3.81,5.74,3,5
18554.062,-0.129,0.422,0.806,-0.09,2.96,-0.4,3,5
18554.062,-0.17,0.443,0.85,3.39,4.7,-4.97,3,5
18554.078,-0.186,0.462,0.879,4.09,1.25,-5.19,3,5
18554.093,-0.19,0.467,0.881,5.25,-1.89,-3.81,3,5
18554.093,-0.182,0.471,0.876,5.68,-4.06,-2.32,3,5
18554.109,-0.179,0.497,0.85,0.55,-7.81,1.68,3,5
18554.125,-0.172,0.489,0.84,-3.23,-8.06,2.62,3,5
18554.14,-0.166,0.475,0.829,-6.5,-7.26,2.62,3,5
18554.14,-0.165,0.46,0.823,-7.81,-5.25,1.83,3,5
18554.156,-0.167,0.456,0.821,-7.32,-2.62,0.64,3,5
18554.171,-0.171,0.452,0.827,-4.91,0.0,-1.1,3,5
18554.171,-0.181,0.444,0.828,-1.43,2.44,-3.05,3,5
18554.187,-0.195,0.453,0.836,1.65,3.85,-4.49,3,5
18554.187,-0.207,0.47,0.849,4.09,4.12,-5.13,3,5
18554.203,-0.218,0.476,0.848,6.2,3.81,-4.49,3,5
18554.218,-0.219,0.485,0.839,6.2,2.53,-3.39,3,5
18554.218,-0.21,0.487,0.829,4.43,1.74,-2.04,3,5
18554.234,-0.205,0.481,0.814,2.47,2.04,-1.43,3,5
18554.25,-0.197,0.474,0.811,1.5,3.88,-1.71,3,5
18554.265,-0.196,0.454,0.803,4.43,7.48,-2.35,3,5
18554.265,-0.207,0.428,0.798,9.74,12.12,-4.27,3,5
18554.281,-0.279,0.474,0.846,16.3,16.69,-7.75,3,5
18554.296,-0.246,0.519,0.832,15.69,14.74,-6.16,3,5
18554.312,-0.223,0.462,0.813,20.57,16.63,-5.46,3,5
18554.312,-0.36,0.501,0.861,21.3,17.52,-6.93,3,5
18554.328,-0.299,0.645,0.919,5.89,9.25,-7.32,3,5
18554.328,-0.29,0.598,0.896,3.51,1.89,-4.79,3,5
18554.343,-0.278,0.549,0.856,2.81,-2.11,-0.67,3,5
18554.359,-0.24,0.565,0.839,-0.52,-1.92,4.88,3,5
18554.359,-0.248,0.531,0.834,0.37,-0.27,7.97,3,5
18554.375,-0.274,0.495,0.834,0.12,-1.53,9.25,3,5
18554.39,-0.273,0.484,0.835,-3.05,-5.86,8.97,3,5
18554.39,-0.26,0.473,0.832,-7.02,-10.62,6.81,3,5
18554.406,-0.277,0.473,0.844,-10.71,-14.86,4.49,3,5
18554.421,-0.201,0.499,0.834,-15.75,-20.11,4.39,3,5
18554.421,-0.165,0.438,0.787,-10.65,-16.75,5.13,3,5
18554.437,-0.226,0.412,0.792,-6.07,-12.88,5.07,3,5
18554.453,-0.192,0.513,0.825,-13.34,-12.39,8.55,3,5
18554.468,-0.174,0.478,0.817,-13.86,-10.96,10.56,3,5
18554.484,-0.159,0.447,0.805,-15.08,-8.85,10.59,3,5
18554.484,-0.143,0.448,0.801,-14.04,-5.71,9.13,3,5
18554.5,-0.139,0.449,0.812,-9.49,-1.28,7.17,3,5
18554.5,-0.136,0.434,0.802,-2.93,3.33,5.04,3,5
18554.515,-0.144,0.423,0.8,2.75,8.36,2.29,3,5
18554.531,-0.18,0.435,0.82,7.97,12.45,-0.95,3,5
18554.531,-0.215,0.453,0.852,10.44,12.24,-3.69,3,5
18554.546,-0.22,0.478,0.886,7.23,7.23,-5.19,3,5
18554.546,-0.205,0.49,0.897,2.2,1.16,-5.4,3,5
18554.562,-0.185,0.479,0.886,-1.53,-3.23,-4.21,3,5
18554.578,-0.177,0.472,0.867,-2.75,-5.13,-2.32,3,5
18554.578,-0.176,0.474,0.856,-3.05,-5.16,-0.24,3,5
18554.593,-0.167,0.472,0.849,-3.85,-4.76,0.49,3,5
18554.609,-0.166,0.468,0.839,-4.03,-3.66,-0.21,3,5
18554.625,-0.174,0.452,0.832,-1.01,-0.46,-2.81,3,5
18554.64,-0.175,0.454,0.828,1.8,1.13,-4.55,3,5
18554.64,-0.173,0.442,0.817,5.46,3.72,-5.86,3,5
18554.656,-0.171,0.434,0.81,10.04,7.32,-7.17,3,5
18554.671,-0.168,0.43,0.808,15.87,11.29,-8.64,3,5
18554.687,-0.176,0.427,0.807,23.01,16.57,-10.28,3,5
18554.687,-0.207,0.443,0.82,28.05,20.91,-12.09,3,5
18554.687,-0.236,0.488,0.85,24.48,21.42,-14.22,3,5
18554.703,-0.234,0.524,0.862,17.18,17.85,-15.93,3,5
18554.718,-0.203,0.492,0.851,15.59,15.93,-16.48,3,5
18554.718,-0.317,0.513,0.898,16.24,14.77,-17.55,3,5
18554.734,-0.291,0.651,0.957,6.62,6.93,-13.76,3,5
18554.75,-0.263,0.635,0.925,5.71,-0.52,-6.5,3,5
18554.75,-0.255,0.577,0.862,2.87,-3.97,-0.82,3,5
18554.765,-0.235,0.571,0.848,-2.78,-4.06,3.69,3,5
18554.781,-0.267,0.532,0.845,-2.14,-3.54,5.07,3,5
18554.796,-0.302,0.481,0.821,0.49,-10.59,6.62,3,5
18554.812,-0.273,0.462,0.804,0.85,-14.59,6.96,3,5
18554.812,-0.276,0.47,0.8,1.83,-15.69,6.9,3,5
18554.828,-0.262,0.525,0.797,0.73,-17.12,8.33,3,5
18554.843,-0.141,0.492,0.761,-0.43,-14.53,11.66,3,5
18554.843,-0.189,0.433,0.735,3.05,-5.55,10.8,3,5
18554.859,-0.198,0.474,0.76,0.18,1.62,10.28,3,5
18554.859,-0.207,0.496,0.788,-1.1,5.62,9.52,3,5
18554.875,-0.233,0.473,0.807,-1.56,6.53,7.9,3,5
18554.89,-0.245,0.484,0.827,-4.7,4.46,6.44,3,5
18554.906,-0.257,0.501,0.86,-7.42,-0.03,5.37,3,5
18554.906,-0.26,0.519,0.875,-6.9,-6.13,7.48,3,5
18554.921,-0.224,0.53,0.859,-4.64,-10.38,12.57,3,5
18554.921,-0.178,0.51,0.837,-7.48,-12.6,13.95,3,5
18554.937,-0.155,0.491,0.812,-10.41,-11.69,12.51,3,5
18554.953,-0.141,0.479,0.808,-10.71,-8.0,10.65,3,5
18554.968,-0.125,0.46,0.788,-6.71,2.72,5.46,3,5
18554.968,-0.14,0.457,0.806,-3.63,8.76,2.59,3,5
18554.984,-0.167,0.465,0.835,-1.13,12.48,-0.43,3,5
18555.0,-0.2,0.472,0.86,1.1,12.48,-2.99,3,5
18555.0,-0.216,0.482,0.876,1.04,8.91,-4.46,3,5
18555.015,-0.205,0.491,0.882,-1.31,3.63,-5.16,3,5
18555.031,-0.186,0.485,0.874,-4.06,-0.7,-5.71,3,5
18555.031,-0.176,0.478,0.855,-5.65,-2.66,-5.37,3,5
18555.046,-0.172,0.472,0.839,-7.87,-1.4,-5.01,3,5
18555.062,-0.174,0.468,0.831,-8.61,0.21,-5.55,3,5
18555.062,-0.184,0.462,0.829,-9.09,1.65,-6.47,3,5
18555.078,-0.192,0.462,0.835,-9.09,2.2,-7.42,3,5
18555.093,-0.222,0.463,0.864,-7.32,1.8,-7.48,3,5
18555.093,-0.236,0.468,0.878,-4.06,0.64,-5.71,3,5
18555.109,-0.246,0.481,0.874,-0.85,-1.37,-3.69,3,5
18555.109,-0.239,0.486,0.853,-0.09,-4.15,-1.98,3,5
18555.14,-0.213,0.476,0.819,-4.55,-5.31,-1.13,3,5
18555.14,-0.214,0.468,0.814,-6.01,-3.23,-1.71,3,5
18555.156,-0.223,0.457,0.814,-5.92,-0.76,-2.11,3,5
18555.171,-0.231,0.452,0.811,-5.65,1.13,-2.78,3,5
18555.171,-0.229,0.448,0.809,-5.37,2.66,-4.27,3,5
18555.187,-0.229,0.439,0.807,-4.03,4.61,-6.68,3,5
18555.203,-0.229,0.432,0.809,-1.43,6.99,-9.43,3,5
18555.203,-0.237,0.434,0.817,2.47,9.55,-12.42,3,5
18555.218,-0.261,0.441,0.832,7.78,11.41,-14.83,3,5
18555.234,-0.284,0.458,0.839,11.26,11.08,-15.96,3,5
18555.234,-0.294,0.496,0.843,10.77,8.12,-15.56,3,5
18555.25,-0.282,0.532,0.841,8.03,4.39,-12.54,3,5
18555.25,-0.261,0.548,0.83,3.81,1.83,-8.48,3,5
18555.265,-0.247,0.545,0.81,-2.41,0.85,-4.33,3,5
18555.281,-0.233,0.534,0.801,-8.45,1.92,-0.7,3,5
18555.281,-0.228,0.515,0.801,-11.69,4.12,1.65,3,5
18555.312,-0.246,0.49,0.833,-11.66,7.69,2.78,3,5
18555.312,-0.256,0.487,0.854,-9.37,7.11,2.62,3,5
18555.328,-0.262,0.488,0.868,-6.32,4.7,2.53,3,5
18555.328,-0.254,0.484,0.87,-4.43,1.65,2.87,3,5
18555.343,-0.233,0.48,0.858,-3.14,-0.92,2.53,3,5
18555.359,-0.221,0.47,0.844,-2.38,-2.11,1.71,3,5
18555.359,-0.217,0.462,0.836,-2.78,-1.65,0.76,3,5
18555.375,-0.217,0.463,0.831,-3.72,-0.58,-0.15,3,5
18555.39,-0.222,0.458,0.835,-4.43,0.61,-0.61,3,5
18555.39,-0.217,0.456,0.839,-4.7,1.65,-0.7,3,5
18555.406,-0.219,0.469,0.846,-4.18,2.99,-1.16,3,5
18555.421,-0.23,0.473,0.852,-3.51,3.72,-1.71,3,5
18555.421,-0.239,0.475,0.86,-2.99,3.75,-2.17,3,5
18555.437,-0.241,0.484,0.868,-2.81,2.84,-2.11,3,5
18555.437,-0.234,0.484,0.868,-2.44,1.59,-1.98,3,5
18555.453,-0.232,0.481,0.864,-1.74,0.89,-2.08,3,5
18555.468,-0.229,0.466,0.855,-0.79,1.04,-2.2,3,5
18555.484,-0.237,0.46,0.853,-1.04,1.16,-2.44,3,5
18555.5,-0.235,0.453,0.847,-1.07,0.64,-2.62,3,5
18555.5,-0.232,0.448,0.837,-0.76,0.55,-2.81,3,5
18555.515,-0.231,0.449,0.827,-0.64,1.5,-3.23,3,5
18555.531,-0.232,0.451,0.825,-0.95,3.02,-4.09,3,5
18555.531,-0.246,0.452,0.837,-0.7,4.0,-5.1,3,5
18555.546,-0.267,0.449,0.845,0.67,3.57,-4.73,3,5
18555.562,-0.267,0.453,0.843,1.62,2.26,-3.6,3,5
18555.562,-0.255,0.45,0.837,1.16,0.85,-3.23,3,5
18555.578,-0.248,0.439,0.827,0.67,0.24,-3.51,3,5
18555.593,-0.245,0.432,0.821,0.06,0.89,-3.63,3,5
18555.593,-0.246,0.435,0.819,-0.12,2.2,-4.0,3,5
18555.609,-0.25,0.44,0.818,-0.43,3.54,-4.36,3,5
18555.609,-0.253,0.441,0.817,-1.28,4.55,-4.61,3,5
18555.625,-0.253,0.441,0.817,-2.26,5.13,-4.36,3,5
18555.64,-0.251,0.441,0.82,-3.2,6.1,-3.72,3,5
18555.64,-0.255,0.439,0.818,-3.97,6.62,-3.17,3,5
18555.656,-0.252,0.435,0.817,-5.13,6.65,-2.75,3,5
18555.671,-0.255,0.431,0.813,-6.1,7.29,-2.72,3,5
18555.671,-0.259,0.423,0.809,-6.29,8.03,-2.81,3,5
18555.687,-0.256,0.415,0.805,-6.07,8.97,-2.84,3,5
18555.687,-0.261,0.423,0.806,-6.59,10.59,-3.39,3,5
18555.703,-0.274,0.436,0.815,-8.7,11.96,-4.55,3,5
18555.718,-0.299,0.451,0.831,-11.81,12.45,-5.07,3,5
18555.734,-0.323,0.458,0.839,-15.08,10.96,-4.52,3,5
18555.734,-0.322,0.452,0.837,-17.33,8.39,-2.72,3,5
18555.75,-0.304,0.443,0.825,-17.61,6.78,-0.73,3,5
18555.75,-0.293,0.437,0.82,-16.75,6.62,0.55,3,5
18555.765,-0.29,0.435,0.822,-16.14,7.48,1.19,3,5
18555.781,-0.294,0.428,0.836,-15.5,7.45,1.43,3,5
18555.781,-0.299,0.425,0.858,-15.32,5.37,1.65,3,5
18555.796,-0.294,0.415,0.868,-13.86,2.04,2.53,3,5
18555.812,-0.277,0.412,0.862,-11.63,-0.61,3.85,3,5
18555.812,-0.251,0.421,0.862,-9.92,-0.7,4.64,3,5
18555.828,-0.244,0.42,0.874,-8.79,0.82,3.94,3,5
18555.828,-0.229,0.397,0.893,-7.32,2.11,3.02,3,5
18555.843,-0.223,0.31,0.87,1.56,4.85,2.41,3,5
18555.859,-0.354,0.387,0.92,12.33,7.23,2.01,3,5
18555.859,-0.286,0.494,0.969,12.51,0.95,8.27,3,5
18555.875,-0.243,0.447,0.913,14.37,-6.32,7.2,3,5
18555.89,-0.257,0.444,0.887,10.01,-7.39,5.55,3,5
18555.89,-0.233,0.473,0.877,4.27,-6.84,5.13,3,5
18555.906,-0.247,0.482,0.873,1.95,-4.21,3.97,3,5
18555.921,-0.289,0.497,0.879,0.18,-1.31,4.3,3,5
18555.921,-0.32,0.535,0.891,-3.81,-0.95,6.44,3,5
18555.937,-0.344,0.556,0.889,-9.03,-2.17,10.22,3,5
18555.953,-0.364,0.552,0.89,-15.93,-3.63,14.92,3,5
18555.953,-0.385,0.533,0.89,-21.42,-5.62,18.92,3,5
18555.968,-0.443,0.538,0.896,-24.78,-8.21,22.31,3,5
18555.968,-0.482,0.607,0.918,-30.58,-14.31,26.58,3,5
18555.984,-0.424,0.582,0.885,-32.17,-19.75,32.93,3,5
18556.0,-0.526,0.594,0.87,-28.44,-19.26,37.26,3,5
18556.015,-0.508,0.724,0.931,-33.88,-21.58,52.25,3,5
18556.015,-0.428,0.709,0.861,-35.43,-22.68,69.06,3,5
18556.031,-0.434,0.633,0.794,-38.48,-16.33,81.61,3,5
18556.031,-0.451,0.621,0.798,-47.09,2.01,107.73,3,5
18556.046,-0.471,0.581,0.781,-48.55,6.9,117.86,3,5
18556.062,-0.48,0.532,0.773,-48.62,11.32,124.18,3,5
18556.062,-0.486,0.473,0.715,-46.82,14.65,127.35,3,5
18556.078,-0.466,0.441,0.705,-43.31,18.92,128.7,3,5
18556.093,-0.451,0.43,0.697,-39.67,24.75,128.76,3,5
18556.093,-0.437,0.416,0.706,-39.03,30.7,128.61,3,5
18556.109,-0.431,0.402,0.732,-40.68,36.07,128.27,3,5
18556.125,-0.446,0.388,0.754,-40.31,39.83,128.45,3,5
18556.125,-0.441,0.363,0.751,-38.76,41.14,129.98,3,5
18556.14,-0.417,0.339,0.748,-37.84,43.49,131.5,3,5
18556.156,-0.353,0.311,0.754,-32.99,47.27,126.62,3,5
18556.171,-0.337,0.286,0.739,-28.17,52.19,122.07,3,5
18556.171,-0.331,0.273,0.717,-24.29,55.45,116.64,3,5
18556.187,-0.299,0.259,0.713,-22.0,56.55,110.05,3,5
18556.187,-0.281,0.244,0.726,-20.39,60.09,102.79,3,5
18556.203,-0.263,0.237,0.727,-18.19,63.23,94.85,3,5
18556.218,-0.247,0.22,0.738,-15.69,65.98,87.68,3,5
18556.234,-0.253,0.207,0.764,-13.18,67.69,80.94,3,5
18556.234,-0.242,0.194,0.773,-9.86,67.02,74.92,3,5
18556.25,-0.232,0.197,0.771,-7.39,66.32,69.12,3,5
18556.25,-0.215,0.206,0.78,-8.55,65.37,63.51,3,5
18556.265,-0.201,0.188,0.797,-10.5,62.93,57.41,3,5
18556.281,-0.186,0.186,0.803,-13.28,59.82,50.94,3,5
18556.281,-0.191,0.215,0.835,-18.04,56.52,44.43,3,5
18556.296,-0.211,0.221,0.872,-21.88,50.33,38.24,3,5
18556.312,-0.224,0.229,0.878,-25.54,40.8,33.94,3,5
18556.328,-0.188,0.243,0.811,-32.14,22.92,27.59,3,5
18556.328,-0.159,0.262,0.795,-38.7,20.14,25.73,3,5
18556.343,-0.155,0.27,0.776,-45.26,21.36,26.15,3,5
18556.359,-0.145,0.252,0.765,-52.46,24.02,30.7,3,5
18556.359,-0.148,0.239,0.782,-59.02,28.84,37.2,3,5
18556.375,-0.18,0.212,0.775,-61.53,34.39,42.85,3,5
18556.39,-0.164,0.173,0.782,-65.46,38.33,46.48,3,5
18556.39,-0.154,0.127,0.812,-66.44,43.31,45.38,3,5
18556.406,-0.168,0.085,0.833,-59.11,49.96,40.16,3,5
18556.421,-0.214,0.088,0.873,-47.09,55.94,33.94,3,5
18556.421,-0.241,0.107,0.909,-36.77,58.81,28.35,3,5
18556.437,-0.247,0.138,0.916,-31.22,59.33,23.38,3,5
18556.437,-0.242,0.152,0.876,-30.43,61.4,19.84,3,5
18556.453,-0.238,0.141,0.827,-34.79,67.9,17.55,3,5
18556.468,-0.236,0.111,0.806,-41.57,79.62,15.23,3,5
18556.468,-0.237,0.102,0.829,-47.4,95.13,11.11,3,5
18556.484,-0.236,0.113,0.892,-49.5,111.94,3.85,3,5
18556.5,0.006,-0.054,1.26,-39.34,131.69,-7.97,3,5
18556.515,-0.139,-0.294,1.631,12.12,147.01,-36.77,3,5
18556.515,-0.137,-0.225,1.693,72.05,129.89,-54.41,3,5
18556.531,-0.399,0.322,1.524,81.88,108.95,-58.44,3,5
18556.531,-0.323,0.369,1.505,48.68,67.84,-53.38,3,5
18556.546,-0.197,0.512,1.343,11.2,38.24,-51.09,3,5
18556.562,-0.177,0.465,1.2,-23.8,26.18,-46.88,3,5
18556.562,-0.221,0.343,1.101,-45.87,22.03,-40.89,3,5
18556.578,-0.182,0.317,0.995,-49.78,26.52,-27.34,3,5
18556.593,-0.265,0.357,0.936,-44.77,35.95,-17.49,3,5
18556.593,-0.346,0.337,0.933,-41.96,47.73,-4.85,3,5
18556.609,-0.407,0.325,0.969,-42.54,55.94,7.63,3,5
18556.609,-0.524,0.378,1.038,-44.31,53.68,17.94,3,5
18556.625,-0.691,0.4,1.096,-47.33,43.15,30.52,3,5
18556.64,-0.742,0.331,1.061,-52.89,23.65,48.55,3,5
18556.64,-0.685,0.312,0.969,-60.58,3.23,65.43,3,5
18556.656,-0.622,0.265,0.838,-66.01,-8.79,73.85,3,5
18556.671,-0.574,0.199,0.737,-70.8,-11.41,75.11,3,5
18556.671,-0.551,0.128,0.692,-72.02,-7.81,71.63,3,5
18556.687,-0.655,0.041,0.755,-64.27,3.6,68.15,3,5
18556.687,-0.691,-0.023,0.754,-38.21,17.18,77.73,3,5
18556.703,-0.583,0.152,0.699,-23.13,7.63,74.89,3,5
18556.718,-0.714,0.154,0.698,-22.55,15.44,62.59,3,5
18556.718,-0.667,0.142,0.726,-38.73,11.69,63.3,3,5
18556.734,-0.63,0.074,0.743,-48.22,11.11,53.87,3,5
18556.75,-0.636,0.004,0.762,-44.83,13.4,45.81,3,5
18556.765,-0.573,0.117,0.724,-35.46,13.37,38.85,3,5
18556.765,-0.583,0.07,0.702,-29.48,19.26,34.21,3,5
18556.781,-0.575,0.143,0.787,-28.47,21.79,27.22,3,5
18556.781,-0.649,0.167,0.783,-19.65,26.06,23.13,3,5
18556.796,-0.638,0.211,0.753,-18.95,24.69,28.5,3,5
18556.812,-0.556,0.229,0.748,-23.65,24.6,34.12,3,5
18556.828,-0.466,0.227,0.756,-23.29,32.44,34.79,3,5
18556.843,-0.46,0.258,0.84,-18.89,37.29,31.77,3,5
18556.843,-0.509,0.262,0.94,-10.65,37.97,27.65,3,5
18556.859,-0.531,0.303,0.97,-3.54,31.25,27.92,3,5
18556.859,-0.484,0.349,0.989,-1.5,20.45,29.97,3,5
18556.875,-0.43,0.332,0.976,-0.7,10.25,28.81,3,5
18556.89,-0.376,0.316,0.953,1.4,3.02,25.7,3,5
18556.89,-0.35,0.3,0.937,7.23,0.34,22.1,3,5
18556.906,-0.368,0.303,0.95,15.96,0.7,17.46,3,5
18556.921,-0.417,0.327,0.92,24.9,1.56,13.76,3,5
18556.921,-0.476,0.376,0.897,27.8,2.11,13.76,3,5
18556.937,-0.531,0.378,0.89,25.21,0.95,17.61,3,5
18556.937,-0.574,0.332,0.841,19.9,-0.76,25.06,3,5
18556.953,-0.534,0.292,0.799,13.86,-1.5,33.11,3,5
18556.968,-0.496,0.25,0.742,9.49,0.98,38.7,3,5
18556.968,-0.472,0.221,0.709,5.04,6.29,41.47,3,5
18557.0,-0.468,0.197,0.735,3.42,19.56,42.12,3,5
18557.0,-0.478,0.196,0.752,3.54,24.23,41.69,3,5
18557.015,-0.484,0.201,0.782,4.24,24.84,29.91,3,5
18557.031,-0.495,0.187,0.78,5.77,22.83,21.94,3,5
18557.031,-0.471,0.184,0.774,8.76,22.03,13.28,3,5
18557.046,-0.431,0.198,0.775,12.18,22.8,4.67,3,5
18557.062,-0.442,0.276,0.776,12.76,23.62,-2.69,3,5
18557.062,-0.467,0.293,0.796,12.3,23.62,-7.9,3,5
18557.078,-0.478,0.3,0.805,12.45,22.1,-9.34,3,5
18557.093,-0.473,0.328,0.819,13.46,20.26,-9.43,3,5
18557.093,-0.502,0.361,0.839,15.78,19.29,-9.25,3,5
18557.109,-0.52,0.366,0.831,17.79,16.3,-7.17,3,5
18557.109,-0.501,0.381,0.816,18.65,12.18,-4.33,3,5
18557.125,-0.489,0.373,0.783,18.52,10.13,-2.99,3,5
18557.14,-0.472,0.351,0.762,16.45,10.62,-2.47,3,5
18557.14,-0.461,0.344,0.768,16.97,13.4,-2.11,3,5
18557.156,-0.498,0.369,0.834,20.94,16.85,-1.31,3,5
18557.171,-0.547,0.4,0.895,26.83,15.96,3.17,3,5
18557.187,-0.52,0.416,0.913,28.96,9.37,11.44,3,5
18557.187,-0.483,0.393,0.894,28.17,2.9,16.97,3,5
18557.203,-0.483,0.341,0.853,25.73,-0.58,18.74,3,5
18557.203,-0.468,0.303,0.838,22.77,-2.26,18.04,3,5
18557.218,-0.446,0.279,0.821,22.19,-1.53,14.92,3,5
18557.234,-0.438,0.298,0.823,21.88,1.53,11.38,3,5
18557.234,-0.459,0.33,0.854,21.18,3.78,8.33,3,5
18557.25,-0.481,0.332,0.872,19.75,3.23,7.32,3,5
18557.25,-0.493,0.325,0.863,17.33,0.79,7.66,3,5
18557.265,-0.481,0.303,0.824,14.31,-1.5,7.84,3,5
18557.281,-0.452,0.302,0.81,10.71,-1.5,6.56,3,5
18557.281,-0.447,0.302,0.818,8.18,0.18,4.43,3,5
18557.296,-0.45,0.308,0.824,6.59,1.28,3.02,3,5
18557.312,-0.45,0.317,0.852,5.37,0.64,1.77,3,5
18557.312,-0.464,0.316,0.857,5.83,-1.43,0.09,3,5
18557.328,-0.449,0.304,0.847,5.55,-4.43,-0.7,3,5
18557.343,-0.46,0.316,0.852,6.13,-6.32,-2.17,3,5
18557.343,-0.466,0.311,0.82,6.68,-8.85,-3.3,3,5
18557.359,-0.418,0.292,0.803,4.36,-11.69,-5.22,3,5
18557.359,-0.38,0.182,0.82,1.16,-14.19,-12.94,3,5
18557.375,-0.437,0.089,0.849,-0.61,-16.88,-28.78,3,5
18557.39,-0.494,0.196,0.854,3.54,-18.16,-37.93,3,5
18557.406,-0.474,0.272,0.793,8.15,-18.68,-34.88,3,5
18557.406,-0.47,0.256,0.774,4.76,-17.73,-33.14,3,5
18557.421,-0.48,0.274,0.787,0.09,-16.57,-31.68,3,5
18557.421,-0.483,0.27,0.791,-1.28,-14.37,-26.37,3,5
18557.437,-0.496,0.264,0.79,-4.27,-11.72,-19.29,3,5
18557.453,-0.506,0.293,0.795,-10.04,-9.25,-12.6,3,5
18557.453,-0.51,0.282,0.784,-15.63,-6.96,-6.74,3,5
18557.468,-0.506,0.266,0.802,-20.26,-5.07,-1.25,3,5
18557.468,-0.516,0.264,0.808,-21.52,-3.08,3.42,3,5
18557.484,-0.523,0.254,0.788,-23.68,-1.5,7.35,3,5
18557.5,-0.508,0.246,0.794,-27.5,-0.46,9.64,3,5
18557.515,-0.51,0.238,0.787,-28.63,0.95,10.65,3,5
18557.515,-0.52,0.275,0.771,-28.41,3.2,11.69,3,5
18557.531,-0.522,0.316,0.75,-29.33,5.55,13.89,3,5
18557.531,-0.529,0.333,0.732,-33.75,8.45,16.42,3,5
18557.546,-0.515,0.335,0.726,-39.28,11.66,18.52,3,5
18557.562,-0.51,0.321,0.752,-42.94,15.35,19.93,3,5
18557.562,-0.524,0.314,0.781,-43.21,18.01,20.72,3,5
18557.578,-0.533,0.291,0.81,-40.5,17.98,22.43,3,5
18557.593,-0.511,0.312,0.833,-37.02,13.43,21.42,3,5
18557.593,-0.528,0.318,0.829,-33.69,9.06,18.28,3,5
18557.609,-0.516,0.303,0.837,-33.3,4.15,15.96,3,5
18557.609,-0.549,0.314,0.814,-31.56,0.46,10.86,3,5
18557.625,-0.536,0.323,0.811,-29.69,-3.6,8.73,3,5
18557.64,-0.533,0.351,0.786,-24.9,-5.22,7.11,3,5
18557.64,-0.501,0.375,0.777,-21.27,-5.68,8.73,3,5
18557.656,-0.493,0.389,0.779,-19.56,-4.97,10.77,3,5
18557.671,-0.515,0.388,0.78,-19.75,-3.6,13.89,3,5
18557.671,-0.527,0.364,0.778,-20.26,-4.15,16.66,3,5
18557.687,-0.507,0.342,0.774,-19.78,-5.37,18.83,3,5
18557.703,-0.517,0.354,0.764,-18.59,-4.94,19.59,3,5
18557.703,-0.514,0.343,0.766,-18.68,-4.91,20.14,3,5
18557.718,-0.498,0.336,0.768,-19.5,-4.3,21.12,3,5
18557.718,-0.501,0.314,0.778,-19.53,-2.35,21.94,3,5
18557.734,-0.512,0.276,0.785,-18.1,-1.16,21.21,3,5
18557.75,-0.512,0.258,0.793,-16.69,-0.64,19.35,3,5
18557.75,-0.532,0.248,0.797,-15.84,-0.7,15.75,3,5
18557.765,-0.534,0.233,0.805,-15.47,-2.17,12.09,3,5
18557.781,-0.53,0.251,0.837,-14.22,-4.12,9.52,3,5
18557.796,-0.552,0.284,0.832,-12.12,-6.84,8.09,3,5
18557.796,-0.533,0.276,0.828,-13.34,-9.7,9.13,3,5
18557.812,-0.525,0.255,0.822,-14.13,-12.27,8.3,3,5
18557.812,-0.548,0.248,0.801,-12.57,-12.45,6.13,3,5
18557.828,-0.57,0.237,0.785,-10.56,-11.44,4.0,3,5
18557.843,-0.605,0.241,0.735,-8.91,-9.58,2.11,3,5
18557.843,-0.588,0.261,0.726,-7.72,-6.44,3.42,3,5
18557.859,-0.594,0.257,0.711,-4.67,-2.99,4.64,3,5
18557.859,-0.571,0.254,0.737,-3.78,-0.95,6.68,3,5
18557.875,-0.559,0.261,0.76,-2.72,-0.55,7.57,3,5
18557.89,-0.557,0.252,0.763,-2.53,-0.64,9.03,3,5
18557.89,-0.553,0.24,0.775,-4.27,-1.62,10.35,3,5
18557.906,-0.561,0.223,0.775,-5.04,-2.5,10.65,3,5
18557.921,-0.576,0.195,0.761,-4.18,-2.84,10.59,3,5
18557.921,-0.558,0.177,0.767,-2.59,-2.08,9.86,3,5
18557.937,-0.539,0.187,0.784,0.92,0.52,7.9,3,5
18557.953,-0.533,0.225,0.803,3.36,2.93,5.68,3,5
18557.953,-0.517,0.239,0.832,2.81,3.6,3.72,3,5
18557.968,-0.501,0.245,0.851,1.22,3.02,1.95,3,5
18557.968,-0.488,0.242,0.848,1.46,2.38,0.55,3,5
18557.984,-0.472,0.247,0.844,1.89,1.62,-0.85,3,5
18558.0,-0.465,0.251,0.842,2.47,1.71,-2.38,3,5
18558.0,-0.475,0.252,0.838,-0.73,2.53,-3.75,3,5
18558.015,-0.476,0.259,0.849,-3.11,2.26,-3.91,3,5
18558.031,-0.48,0.255,0.849,-4.55,1.5,-3.75,3,5
18558.031,-0.487,0.239,0.842,-4.61,1.16,-3.54,3,5
18558.046,-0.482,0.226,0.832,-5.49,0.64,-2.75,3,5
18558.062,-0.47,0.219,0.834,-6.56,0.82,-1.98,3,5
18558.062,-0.472,0.213,0.837,-6.71,1.77,-0.85,3,5
18558.078,-0.471,0.201,0.848,-8.06,2.87,0.61,3,5
18558.078,-0.477,0.19,0.857,-9.46,4.24,1.89,3,5
18558.093,-0.492,0.17,0.858,-10.44,5.8,3.63,3,5
18558.109,-0.498,0.157,0.864,-12.6,6.65,4.88,3,5
18558.109,-0.505,0.145,0.873,-14.25,7.11,5.52,3,5
18558.125,-0.519,0.124,0.876,-16.05,7.14,6.78,3,5
18558.14,-0.529,0.112,0.901,-18.19,6.01,8.09,3,5
18558.14,-0.537,0.099,0.925,-18.86,3.69,8.97,3,5
18558.156,-0.514,0.091,0.941,-18.16,0.0,10.5,3,5
18558.171,-0.491,0.11,0.928,-19.75,-1.46,11.57,3,5
18558.187,-0.472,0.083,0.949,-23.35,-2.23,11.51,3,5
18558.187,-0.477,0.084,0.926,-25.18,-3.57,10.56,3,5
18558.203,-0.468,0.058,0.952,-26.7,-4.58,9.28,3,5
18558.203,-0.482,0.038,0.954,-27.1,-5.68,6.96,3,5
18558.218,-0.506,0.038,0.948,-27.86,-6.87,4.91,3,5
18558.234,-0.493,0.03,0.954,-29.97,-7.69,3.51,3,5
18558.234,-0.481,0.028,0.968,-30.7,-10.47,-0.55,3,5
18558.25,-0.492,0.049,0.956,-30.55,-10.77,-2.01,3,5
18558.25,-0.492,0.059,0.954,-32.78,-11.47,-0.64,3,5
18558.265,-0.463,0.039,0.959,-35.31,-13.79,-0.4,3,5
18558.281,-0.47,0.028,0.948,-36.32,-14.92,-0.79,3,5
18558.281,-0.465,0.017,0.946,-37.87,-15.63,-0.67,3,5
18558.296,-0.467,0.012,0.935,-39.92,-15.26,-1.77,3,5
18558.312,-0.488,0.014,0.918,-41.78,-13.58,-3.91,3,5
18558.312,-0.508,0.019,0.9,-45.44,-11.47,-5.43,3,5
18558.328,-0.51,0.0,0.913,-49.99,-9.58,-6.87,3,5
18558.343,-0.533,0.024,0.931,-50.36,-8.45,-9.09,3,5
18558.343,-0.548,0.054,0.915,-49.41,-8.73,-9.09,3,5
18558.359,-0.535,0.074,0.899,-52.22,-9.92,-8.55,3,5
18558.359,-0.511,0.08,0.884,-56.22,-10.13,-9.06,3,5
18558.375,-0.503,0.085,0.884,-58.53,-8.27,-9.34,3,5
18558.39,-0.498,0.096,0.904,-58.96,-5.55,-9.06,3,5
18558.39,-0.492,0.114,0.93,-58.17,-3.3,-7.66,3,5
18558.406,-0.511,0.121,0.966,-57.77,-2.72,-5.95,3,5
18558.421,-0.545,0.091,0.985,-58.38,-4.58,-3.69,3,5
18558.421,-0.55,0.059,0.98,-59.08,-8.39,-1.13,3,5
18558.437,-0.551,0.023,0.955,-58.53,-11.23,-0.61,3,5
18558.453,-0.547,-0.004,0.923,-57.59,-11.63,-1.5,3,5
18558.453,-0.536,-0.009,0.917,-57.1,-10.16,-2.99,3,5
18558.468,-0.542,0.001,0.922,-56.37,-7.26,-3.85,3,5
18558.468,-0.54,-0.006,0.936,-57.25,-5.07,-1.98,3,5
18558.484,-0.53,-0.024,0.95,-59.82,-3.88,1.43,3,5
18558.5,-0.53,-0.062,0.954,-62.26,-3.54,3.85,3,5
18558.5,-0.538,-0.11,0.956,-63.66,-3.81,4.55,3,5
18558.515,-0.553,-0.145,0.959,-63.57,-4.39,2.41,3,5
18558.531,-0.56,-0.172,0.952,-62.78,-5.68,-1.59,3,5
18558.531,-0.557,-0.192,0.937,-63.05,-6.71,-6.84,3,5
18558.546,-0.543,-0.214,0.921,-63.17,-6.81,-12.6,3,5
18558.562,-0.523,-0.215,0.918,-62.01,-6.16,-18.49,3,5
18558.562,-0.531,-0.193,0.937,-60.27,-4.64,-23.71,3,5
18558.578,-0.547,-0.174,0.956,-60.0,-4.39,-26.61,3,5
18558.593,-0.538,-0.165,0.97,-62.47,-6.35,-27.65,3,5
18558.593,-0.521,-0.182,0.977,-65.58,-8.3,-28.99,3,5
18558.609,-0.509,-0.195,0.984,-66.87,-9.06,-30.27,3,5
18558.609,-0.506,-0.195,0.994,-67.32,-9.37,-30.92,3,5
18558.625,-0.545,-0.193,0.989,-67.51,-8.79,-30.58,3,5
18558.64,-0.558,-0.211,0.97,-68.24,-9.37,-28.75,3,5
18558.656,-0.542,-0.234,0.949,-69.34,-9.28,-26.31,3,5
18558.656,-0.516,-0.26,0.927,-70.74,-6.78,-24.51,3,5
18558.671,-0.484,-0.293,0.927,-71.23,-2.56,-24.11,3,5
18558.671,-0.481,-0.297,0.951,-70.16,2.87,-24.81,3,5
18558.687,-0.492,-0.289,0.987,-68.85,6.38,-26.15,3,5
18558.703,-0.507,-0.283,1.029,-68.88,6.65,-27.74,3,5
18558.703,-0.519,-0.293,1.064,-69.28,3.45,-28.9,3,5
18558.718,-0.516,-0.307,1.062,-69.83,-1.83,-29.6,3,5
18558.718,-0.492,-0.339,1.041,-71.57,-7.48,-31.4,3,5
18558.734,-0.468,-0.346,1.016,-73.76,-10.86,-35.22,3,5
18558.75,-0.468,-0.409,0.997,-75.59,-8.51,-36.99,3,5
18558.75,-0.457,-0.409,0.982,-72.27,-7.51,-38.94,3,5
18558.765,-0.456,-0.389,0.979,-68.61,-5.86,-41.69,3,5
18558.781,-0.468,-0.368,0.988,-68.82,-4.46,-44.59,3,5
18558.796,-0.48,-0.345,1.002,-70.74,-5.25,-45.75,3,5
18558.796,-0.472,-0.336,0.995,-72.02,-8.45,-45.47,3,5
18558.812,-0.463,-0.34,0.986,-73.0,-10.56,-42.79,3,5
18558.812,-0.466,-0.338,0.976,-72.88,-10.41,-39.46,3,5
18558.828,-0.471,-0.353,0.956,-73.15,-9.83,-36.23,3,5
18558.843,-0.464,-0.368,0.964,-74.8,-9.34,-33.6,3,5
18558.843,-0.472,-0.395,0.977,-74.16,-9.43,-32.41,3,5
18558.859,-0.458,-0.421,0.972,-71.5,-11.17,-31.1,3,5
18558.875,-0.43,-0.423,0.949,-69.61,-13.92,-31.95,3,5
18558.875,-0.42,-0.426,0.924,-68.97,-16.14,-35.49,3,5
18558.89,-0.42,-0.431,0.912,-68.36,-16.75,-38.09,3,5
18558.89,-0.423,-0.42,0.892,-66.38,-16.36,-40.13,3,5
18558.906,-0.419,-0.395,0.881,-65.52,-17.58,-41.14,3,5
18558.921,-0.413,-0.377,0.906,-66.65,-20.54,-41.23,3,5
18558.921,-0.413,-0.389,0.94,-65.8,-23.87,-39.89,3,5
18558.937,-0.391,-0.404,0.959,-62.56,-28.53,-37.35,3,5
18558.953,-0.358,-0.37,0.957,-57.86,-34.15,-37.17,3,5
18558.953,-0.348,-0.32,0.952,-53.32,-41.29,-39.0,3,5
18558.968,-0.381,-0.286,0.939,-51.27,-47.09,-36.87,3,5
18558.968,-0.46,-0.3,0.873,-51.85,-50.08,-28.5,3,5
18558.984,-0.48,-0.39,0.751,-63.6,-49.23,-4.76,3,5
18559.0,-0.424,-0.483,0.65,-68.15,-39.98,0.18,3,5
18559.0,-0.399,-0.585,0.582,-69.61,-27.34,-0.31,3,5
18559.015,-0.384,-0.633,0.57,-67.78,-15.81,-4.18,3,5
18559.031,-0.405,-0.623,0.665,-65.52,-6.68,-6.99,3,5
18559.031,-0.393,-0.621,0.719,-63.88,-0.92,-7.02,3,5
18559.046,-0.4,-0.603,0.758,-62.9,1.25,-5.37,3,5
18559.062,-0.44,-0.62,0.745,-62.87,0.82,-5.19,3,5
18559.062,-0.423,-0.67,0.709,-64.52,-3.51,-6.56,3,5
18559.078,-0.351,-0.659,0.668,-64.91,-7.42,-12.15,3,5
18559.093,-0.331,-0.645,0.637,-63.72,-5.25,-20.36,3,5
18559.093,-0.313,-0.618,0.647,-63.36,-1.53,-25.33,3,5
18559.109,-0.303,-0.552,0.66,-61.92,2.35,-27.68,3,5
18559.109,-0.341,-0.536,0.648,-64.21,6.47,-25.76,3,5
18559.125,-0.347,-0.561,0.652,-71.38,8.15,-19.93,3,5
18559.14,-0.331,-0.597,0.64,-75.44,9.28,-14.47,3,5
18559.156,-0.319,-0.626,0.617,-76.14,11.17,-11.51,3,5
18559.156,-0.323,-0.65,0.605,-77.49,13.82,-9.77,3,5
18559.171,-0.329,-0.685,0.602,-77.85,16.82,-8.15,3,5
18559.171,-0.316,-0.688,0.608,-77.06,19.04,-7.51,3,5
18559.187,-0.323,-0.684,0.612,-75.66,21.52,-9.7,3,5
18559.203,-0.321,-0.713,0.621,-73.43,21.3,-12.76,3,5
18559.203,-0.314,-0.714,0.626,-69.86,18.95,-15.14,3,5
18559.218,-0.304,-0.734,0.615,-65.89,16.33,-17.0,3,5
18559.234,-0.278,-0.756,0.621,-63.84,13.89,-17.37,3,5
18559.234,-0.265,-0.762,0.625,-61.83,13.28,-17.67,3,5
18559.25,-0.263,-0.76,0.611,-60.09,12.18,-19.17,3,5
18559.25,-0.255,-0.747,0.6,-58.96,9.86,-22.61,3,5
18559.265,-0.247,-0.737,0.582,-57.71,8.0,-24.87,3,5
18559.281,-0.239,-0.74,0.553,-57.59,6.74,-24.17,3,5
18559.281,-0.219,-0.755,0.534,-58.38,7.51,-22.13,3,5
18559.296,-0.215,-0.764,0.521,-58.5,9.37,-21.61,3,5
18559.312,-0.229,-0.775,0.54,-56.95,10.65,-22.46,3,5
18559.312,-0.25,-0.761,0.552,-53.83,9.89,-23.01,3,5
18559.328,-0.26,-0.742,0.534,-51.73,6.47,-22.49,3,5
18559.328,-0.255,-0.755,0.504,-52.37,3.11,-20.63,3,5
18559.343,-0.23,-0.773,0.471,-53.74,1.74,-17.91,3,5
18559.359,-0.218,-0.773,0.442,-54.35,2.26,-15.99,3,5
18559.375,-0.229,-0.778,0.44,-55.33,3.72,-14.37,3,5
18559.375,-0.232,-0.796,0.453,-56.49,3.97,-11.63,3,5
18559.39,-0.224,-0.829,0.473,-57.34,2.75,-8.76,3,5
18559.39,-0.231,-0.853,0.474,-57.01,1.43,-7.45,3,5
18559.406,-0.231,-0.86,0.453,-56.31,-0.37,-8.24,3,5
18559.421,-0.216,-0.874,0.43,-55.97,-1.95,-11.32,3,5
18559.421,-0.209,-0.882,0.414,-54.66,-2.11,-14.04,3,5
18559.437,-0.205,-0.871,0.417,-52.74,-1.25,-15.78,3,5
18559.453,-0.219,-0.849,0.428,-50.17,-1.25,-16.91,3,5
18559.453,-0.247,-0.83,0.42,-49.41,-3.78,-16.36,3,5
18559.468,-0.253,-0.846,0.396,-50.84,-7.81,-14.53,3,5
18559.484,-0.253,-0.853,0.352,-53.1,-10.01,-12.82,3,5
18559.484,-0.231,-0.872,0.334,-54.32,-10.25,-12.12,3,5
18559.5,-0.198,-0.889,0.317,-53.32,-7.97,-11.2,3,5
18559.515,-0.184,-0.877,0.322,-51.12,-3.78,-11.87,3,5
18559.515,-0.196,-0.869,0.33,-48.16,-0.95,-13.64,3,5
18559.531,-0.212,-0.842,0.325,-47.4,-1.28,-15.5,3,5
18559.531,-0.213,-0.829,0.317,-47.55,-1.83,-15.87,3,5
18559.546,-0.189,-0.822,0.298,-46.63,-4.06,-14.83,3,5
18559.562,-0.164,-0.818,0.297,-45.66,-4.94,-13.37,3,5
18559.562,-0.166,-0.826,0.298,-44.43,-3.66,-12.05,3,5
18559.578,-0.175,-0.831,0.306,-42.15,-4.0,-11.81,3,5
18559.593,-0.187,-0.852,0.285,-39.16,-6.1,-12.05,3,5
18559.593,-0.175,-0.849,0.246,-37.14,-8.58,-12.45,3,5
18559.609,-0.17,-0.84,0.207,-35.43,-9.37,-13.95,3,5
18559.609,-0.166,-0.84,0.182,-33.72,-8.24,-13.82,3,5
18559.625,-0.16,-0.809,0.191,-33.27,-5.92,-12.24,3,5
18559.64,-0.163,-0.811,0.227,-31.5,-3.85,-10.1,3,5
18559.64,-0.155,-0.825,0.235,-28.53,-4.27,-6.62,3,5
18559.656,-0.12,-0.83,0.245,-28.26,-7.54,-4.39,3,5
18559.671,-0.115,-0.85,0.256,-28.72,-9.67,-5.01,3,5
18559.671,-0.131,-0.866,0.233,-28.32,-13.0,-6.2,3,5
18559.687,-0.112,-0.86,0.191,-28.66,-16.85,-8.3,3,5
18559.703,-0.103,-0.85,0.166,-27.34,-17.67,-11.2,3,5
18559.703,-0.107,-0.848,0.153,-24.11,-16.42,-11.47,3,5
18559.718,-0.102,-0.834,0.149,-22.58,-14.74,-9.0,3,5
18559.718,-0.101,-0.84,0.161,-22.68,-13.46,-6.99,3,5
18559.734,-0.125,-0.877,0.149,-23.19,-13.28,-5.13,3,5
18559.75,-0.13,-0.908,0.144,-25.51,-13.43,-3.45,3,5
18559.75,-0.133,-0.922,0.158,-25.76,-13.03,-3.54,3,5
18559.765,-0.142,-0.933,0.162,-23.41,-13.15,-4.46,3,5
18559.781,-0.131,-0.921,0.151,-21.61,-14.19,-6.5,3,5
18559.781,-0.117,-0.909,0.153,-21.03,-15.29,-10.25,3,5
18559.796,-0.119,-0.903,0.14,-20.14,-16.14,-13.86,3,5
18559.812,-0.127,-0.899,0.117,-19.78,-16.39,-15.69,3,5
18559.812,-0.133,-0.889,0.132,-19.99,-14.95,-15.69,3,5
18559.828,-0.157,-0.879,0.144,-18.13,-13.92,-14.86,3,5
18559.843,-0.15,-0.865,0.148,-17.79,-14.92,-12.76,3,5
18559.843,-0.126,-0.846,0.147,-18.89,-16.88,-12.97,3,5
18559.859,-0.118,-0.848,0.145,-17.61,-19.47,-14.22,3,5
18559.859,-0.118,-0.858,0.135,-15.9,-21.42,-12.09,3,5
18559.875,-0.122,-0.87,0.11,-15.96,-21.36,-7.02,3,5
18559.89,-0.137,-0.896,0.075,-16.91,-19.2,-3.27,3,5
18559.89,-0.144,-0.922,0.048,-17.24,-16.24,-1.86,3,5
18559.906,-0.128,-0.937,0.036,-16.85,-12.45,-1.95,3,5
18559.921,-0.131,-0.944,0.036,-16.42,-7.45,-3.51,3,5
18559.937,-0.151,-0.937,0.061,-16.51,-3.3,-4.79,3,5
18559.937,-0.186,-0.924,0.096,-16.3,-1.16,-3.94,3,5
18559.937,-0.2,-0.93,0.107,-18.83,-2.62,-0.73,3,5
18559.953,-0.173,-0.963,0.106,-23.26,-5.46,2.44,3,5
18559.968,-0.162,-0.994,0.095,-25.3,-5.95,4.15,3,5
18559.968,-0.154,-1.01,0.092,-23.38,-5.1,-0.27,3,5
18559.984,-0.144,-1.033,0.09,-19.2,-3.72,-3.91,3,5
18560.0,-0.132,-1.024,0.1,-15.2,-2.87,-6.78,3,5
18560.0,-0.145,-1.0,0.106,-14.19,-2.87,-7.54,3,5
18560.015,-0.167,-0.98,0.108,-14.77,-3.23,-8.55,3,5
18560.031,-0.18,-0.985,0.099,-14.16,-4.36,-8.73,3,5
18560.046,-0.164,-0.963,0.082,-11.93,-5.49,-7.72,3,5
18560.046,-0.145,-0.944,0.06,-9.06,-4.97,-6.59,3,5
18560.062,-0.14,-0.933,0.038,-6.81,-3.39,-4.79,3,5
18560.062,-0.128,-0.923,0.054,-6.38,-0.95,-1.13,3,5
18560.078,-0.139,-0.925,0.081,-4.73,2.87,3.45,3,5
18560.093,-0.149,-0.932,0.087,-2.96,3.11,7.32,3,5
18560.093,-0.15,-0.94,0.089,-4.09,1.13,8.24,3,5
18560.109,-0.14,-0.951,0.095,-5.25,-0.67,7.08,3,5
18560.125,-0.14,-0.935,0.093,-4.3,-2.29,5.4,3,5
18560.125,-0.128,-0.923,0.092,-2.66,-4.21,3.97,3,5
18560.14,-0.11,-0.897,0.091,-0.85,-5.31,2.81,3,5
18560.14,-0.1,-0.865,0.097,0.37,-6.93,1.31,3,5
18560.156,-0.113,-0.856,0.099,0.95,-8.64,1.04,3,5
18560.171,-0.117,-0.861,0.087,0.52,-11.23,2.78,3,5
18560.171,-0.115,-0.876,0.072,-0.64,-13.18,4.97,3,5
18560.187,-0.138,-0.903,0.05,-1.13,-13.12,6.71,3,5
18560.203,-0.155,-0.934,0.021,-0.55,-11.6,8.15,3,5
18560.203,-0.147,-0.959,0.0,-0.61,-8.61,8.51,3,5
18560.218,-0.148,-0.972,0.012,-0.55,-4.12,7.17,3,5
18560.218,-0.16,-0.974,0.032,-0.18,-0.92,4.64,3,5
18560.234,-0.154,-0.971,0.057,0.31,0.03,1.31,3,5
18560.25,-0.161,-0.961,0.083,2.41,-0.4,-1.74,3,5
18560.265,-0.158,-0.961,0.082,4.43,-1.89,-3.05,3,5
18560.265,-0.15,-0.942,0.094,4.21,-3.17,-3.6,3,5
18560.281,-0.15,-0.938,0.113,5.65,-4.43,-4.03,3,5
18560.281,-0.143,-0.933,0.111,8.24,-5.92,-2.9,3,5
18560.296,-0.134,-0.922,0.099,8.55,-7.08,-2.14,3,5
18560.312,-0.132,-0.946,0.085,7.97,-7.66,-3.08,3,5
18560.312,-0.138,-0.956,0.063,8.61,-7.11,-4.43,3,5
18560.328,-0.145,-0.946,0.047,9.49,-5.8,-5.19,3,5
18560.328,-0.15,-0.939,0.062,8.76,-3.66,-4.39,3,5
18560.343,-0.164,-0.924,0.087,8.15,-1.86,-2.62,3,5
18560.359,-0.176,-0.921,0.1,8.42,-1.62,1.46,3,5
18560.359,-0.16,-0.929,0.097,6.62,-2.87,6.16,3,5
18560.375,-0.144,-0.97,0.083,3.97,-4.12,9.09,3,5
18560.39,-0.143,-1.0,0.092,2.9,-3.3,10.83,3,5
18560.406,-0.152,-1.023,0.093,3.11,-2.2,11.57,3,5
18560.406,-0.158,-1.046,0.096,2.26,-1.68,10.38,3,5
18560.421,-0.16,-1.068,0.102,2.26,-1.89,6.44,3,5
18560.421,-0.162,-1.068,0.102,4.46,-2.5,0.82,3,5
18560.437,-0.163,-1.044,0.098,7.26,-3.39,-5.22,3,5
18560.453,-0.16,-0.998,0.095,9.16,-4.24,-10.35,3,5
18560.453,-0.165,-0.965,0.097,10.04,-4.3,-12.21,3,5
18560.468,-0.161,-0.956,0.092,8.91,-4.33,-9.46,3,5
18560.468,-0.161,-0.949,0.077,6.01,-3.57,-5.74,3,5
18560.484,-0.17,-0.968,0.048,3.66,-2.44,-3.11,3,5
18560.5,-0.16,-0.968,0.024,1.65,-0.64,-0.98,3,5
18560.5,-0.141,-0.96,0.016,1.16,3.27,0.43,3,5
18560.515,-0.139,-0.949,0.018,1.68,8.64,2.01,3,5
18560.531,-0.147,-0.937,0.043,1.8,13.37,4.88,3,5
18560.546,-0.16,-0.945,0.076,1.43,16.51,8.73,3,5
18560.546,-0.178,-0.976,0.093,1.16,17.4,12.67,3,5
18560.562,-0.184,-1.004,0.106,0.06,15.9,15.05,3,5
18560.562,-0.182,-1.039,0.124,-0.82,13.43,14.68,3,5
18560.578,-0.167,-1.063,0.125,-0.43,10.65,12.27,3,5
18560.593,-0.142,-1.067,0.123,0.49,7.9,7.93,3,5
18560.593,-0.136,-1.065,0.13,1.92,6.32,2.35,3,5
18560.609,-0.142,-1.06,0.132,3.72,4.85,-2.96,3,5
18560.609,-0.155,-1.049,0.132,5.1,2.84,-7.17,3,5
18560.625,-0.172,-1.042,0.121,5.8,1.22,-10.35,3,5
18560.64,-0.164,-1.023,0.107,6.2,-1.04,-12.48,3,5
18560.64,-0.147,-0.991,0.118,6.93,-2.11,-13.76,3,5
18560.656,-0.144,-0.963,0.126,8.88,-1.8,-12.7,3,5
18560.671,-0.134,-0.937,0.133,9.55,-1.65,-8.67,3,5
18560.671,-0.12,-0.931,0.133,7.54,-2.08,-4.36,3,5
18560.687,-0.123,-0.949,0.121,4.7,-2.23,-1.22,3,5
18560.703,-0.127,-0.968,0.104,2.75,-1.77,1.01,3,5
18560.703,-0.121,-0.984,0.099,1.71,-0.03,2.47,3,5
18560.718,-0.127,-0.996,0.107,1.25,2.62,3.17,3,5
18560.734,-0.14,-1.003,0.12,1.13,4.43,3.57,3,5
18560.734,-0.149,-1.009,0.134,1.5,4.27,3.08,3,5
18560.75,-0.164,-1.018,0.144,2.38,3.3,2.62,3,5
18560.75,-0.181,-1.031,0.128,2.69,2.04,2.78,3,5
18560.765,-0.175,-1.049,0.121,1.89,0.85,2.53,3,5
18560.781,-0.168,-1.071,0.119,1.59,0.73,1.1,3,5
18560.781,-0.158,-1.081,0.116,2.14,0.82,-1.74,3,5
18560.796,-0.148,-1.068,0.127,3.08,1.1,-5.86,3,5
18560.812,-0.159,-1.045,0.141,4.67,1.31,-9.77,3,5
18560.812,-0.175,-1.017,0.141,5.49,0.61,-11.57,3,5
18560.828,-0.177,-1.001,0.132,4.82,-0.7,-11.63,3,5
18560.828,-0.164,-1.002,0.114,4.03,-1.59,-10.9,3,5
18560.843,-0.148,-1.0,0.096,3.33,-0.64,-9.74,3,5
18560.859,-0.134,-0.997,0.102,2.44,1.5,-8.64,3,5
18560.875,-0.14,-0.996,0.12,2.35,3.78,-7.93,3,5
18560.875,-0.155,-0.995,0.129,2.5,4.76,-7.2,3,5
18560.89,-0.158,-0.994,0.131,2.17,4.15,-6.5,3,5
18560.89,-0.159,-0.999,0.123,1.92,3.36,-6.04,3,5
18560.906,-0.16,-0.999,0.114,1.89,3.11,-5.34,3,5
18560.921,-0.155,-0.99,0.114,1.53,3.39,-3.88,3,5
18560.921,-0.154,-0.99,0.115,0.4,4.18,-1.77,3,5
18560.937,-0.145,-0.995,0.125,-1.71,4.39,0.64,3,5
18560.937,-0.127,-1.01,0.14,-3.54,3.42,1.62,3,5
18560.953,-0.124,-1.029,0.145,-1.86,2.23,-0.92,3,5
18560.968,-0.142,-1.028,0.132,-1.4,1.22,-2.75,3,5
18560.968,-0.149,-1.025,0.12,-0.98,1.1,-4.18,3,5
18560.984,-0.146,-1.024,0.112,0.27,1.89,-4.97,3,5
18561.0,-0.12,-0.977,0.095,0.95,3.08,-4.73,3,5
18561.0,-0.113,-0.944,0.109,0.95,5.46,-3.69,3,5
18561.015,-0.124,-0.931,0.135,0.98,7.02,-1.46,3,5
18561.031,-0.129,-0.923,0.151,-0.46,6.38,2.2,3,5
18561.031,-0.127,-0.938,0.148,-2.59,4.24,5.34,3,5
18561.046,-0.131,-0.964,0.127,-3.48,2.38,6.99,3,5
18561.062,-0.128,-0.982,0.104,-3.3,1.77,7.75,3,5
18561.062,-0.116,-0.987,0.093,-3.57,2.78,7.66,3,5
18561.078,-0.116,-0.996,0.099,-4.06,5.58,6.99,3,5
18561.093,-0.121,-1.004,0.125,-4.27,7.87,6.65,3,5
18561.093,-0.134,-1.008,0.147,-4.21,8.24,5.95,3,5
18561.109,-0.155,-1.023,0.164,-3.69,6.13,3.81,3,5
18561.109,-0.165,-1.03,0.155,-2.38,2.17,1.19,3,5
18561.125,-0.156,-1.032,0.136,-0.92,-1.62,-1.83,3,5
18561.14,-0.133,-1.028,0.119,0.58,-3.97,-4.88,3,5
18561.14,-0.124,-1.012,0.105,2.44,-3.94,-7.08,3,5
18561.156,-0.131,-0.994,0.098,3.36,-2.81,-7.69,3,5
18561.171,-0.132,-0.98,0.098,2.84,-1.77,-7.08,3,5
18561.171,-0.15,-0.977,0.089,1.71,-0.82,-6.13,3,5
18561.187,-0.156,-0.986,0.076,-0.12,-0.03,-4.64,3,5
18561.187,-0.138,-0.985,0.076,-1.95,1.37,-2.84,3,5
18561.203,-0.14,-0.974,0.083,-2.87,3.94,-1.5,3,5
18561.218,-0.155,-0.97,0.102,-3.72,6.23,0.79,3,5
18561.218,-0.152,-0.969,0.119,-5.16,6.59,3.85,3,5
18561.234,-0.153,-0.975,0.144,-5.86,5.46,5.74,3,5
18561.25,-0.162,-0.996,0.15,-4.88,3.27,6.78,3,5
18561.25,-0.154,-1.007,0.131,-4.36,0.24,6.93,3,5
18561.265,-0.135,-1.02,0.103,-4.49,-1.92,4.76,3,5
18561.281,-0.122,-1.032,0.082,-3.6,-1.62,1.68,3,5
18561.281,-0.122,-1.02,0.069,-1.74,0.82,-0.98,3,5
18561.296,-0.122,-1.002,0.076,-0.64,3.72,-2.99,3,5
18561.312,-0.133,-0.985,0.101,-0.09,5.83,-4.39,3,5
18561.312,-0.136,-0.97,0.129,1.28,5.95,-4.91,3,5
18561.328,-0.141,-0.952,0.154,3.14,4.09,-4.46,3,5
18561.328,-0.15,-0.943,0.151,3.81,0.92,-3.48,3,5
18561.343,-0.14,-0.948,0.13,2.29,-3.08,-1.8,3,5
18561.359,-0.123,-0.962,0.094,0.52,-5.04,-0.37,3,5
18561.359,-0.113,-0.975,0.056,-0.18,-4.55,0.95,3,5
18561.375,-0.102,-0.982,0.042,-1.16,-1.22,2.29,3,5
18561.39,-0.108,-0.991,0.049,-2.47,2.99,2.99,3,5
18561.406,-0.125,-1.0,0.077,-3.45,6.23,2.66,3,5
18561.406,-0.136,-1.007,0.114,-3.39,6.96,1.56,3,5
18561.421,-0.143,-1.009,0.14,-1.65,5.55,-0.85,3,5
18561.421,-0.148,-1.004,0.139,1.1,2.72,-3.3,3,5
18561.437,-0.13,-1.0,0.134,2.78,-0.61,-4.52,3,5
18561.453,-0.114,-0.991,0.126,2.81,-2.75,-4.85,3,5
18561.453,-0.114,-0.992,0.124,2.5,-3.45,-4.3,3,5
18561.468,-0.116,-0.998,0.124,1.98,-4.03,-3.36,3,5
18561.468,-0.114,-1.001,0.111,1.19,-4.73,-4.12,3,5
18561.484,-0.123,-1.007,0.104,1.53,-5.13,-6.44,3,5
18561.5,-0.123,-1.005,0.092,3.3,-4.55,-7.78,3,5
18561.5,-0.125,-0.987,0.077,3.69,-2.5,-7.9,3,5
18561.515,-0.133,-0.979,0.088,2.41,0.09,-7.17,3,5
18561.531,-0.143,-0.972,0.104,1.92,1.89,-5.25,3,5
18561.531,-0.14,-0.968,0.118,1.01,1.8,-2.59,3,5
18561.546,-0.14,-0.965,0.14,0.34,0.24,-1.19,3,5
18561.562,-0.146,-0.967,0.146,1.95,-2.87,-0.61,3,5
18561.562,-0.128,-0.957,0.13,2.81,-6.74,0.43,3,5
18561.578,-0.097,-0.968,0.099,1.89,-8.48,1.53,3,5
18561.578,-0.083,-0.983,0.081,1.07,-7.05,2.53,3,5
18561.593,-0.075,-0.996,0.072,0.0,-3.78,3.27,3,5
18561.609,-0.073,-1.02,0.089,-0.55,0.06,2.93,3,5
18561.625,-0.086,-1.028,0.108,1.89,3.23,1.13,3,5
18561.625,-0.096,-1.009,0.132,6.16,4.61,-1.19,3,5
18561.64,-0.111,-0.984,0.16,9.34,4.36,-2.2,3,5
18561.64,-0.145,-0.958,0.169,9.06,2.26,-1.68,3,5
18561.656,-0.149,-0.967,0.162,4.03,-2.14,-0.4,3,5
18561.671,-0.132,-1.003,0.142,-1.5,-7.17,-0.24,3,5
18561.671,-0.125,-1.029,0.116,-1.95,-9.8,-1.13,3,5
18561.687,-0.106,-1.033,0.093,1.16,-9.55,-1.98,3,5
18561.703,-0.1,-1.019,0.089,2.75,-7.81,-3.08,3,5
18561.703,-0.116,-1.004,0.089,3.39,-5.62,-3.69,3,5
18561.718,-0.135,-0.985,0.087,3.05,-4.09,-3.08,3,5
18561.718,-0.142,-0.988,0.074,2.35,-3.39,-1.98,3,5
18561.734,-0.129,-0.995,0.062,0.89,-2.41,-0.43,3,5
18561.75,-0.119,-0.993,0.06,-0.37,-0.06,0.12,3,5
18561.75,-0.115,-0.998,0.077,-1.28,3.02,-0.06,3,5
18561.765,-0.113,-0.992,0.106,-1.37,4.97,-0.95,3,5
18561.781,-0.127,-0.976,0.144,0.46,4.67,-3.11,3,5
18561.781,-0.143,-0.952,0.151,3.23,1.89,-5.19,3,5
18561.796,-0.141,-0.937,0.136,3.91,-1.77,-5.68,3,5
18561.812,-0.122,-0.944,0.117,2.9,-4.03,-4.76,3,5
18561.812,-0.116,-0.95,0.1,2.14,-3.69,-3.33,3,5
18561.828,-0.114,-0.96,0.089,1.37,-1.53,-1.4,3,5
18561.843,-0.108,-0.961,0.096,-0.15,1.13,-0.43,3,5
18561.843,-0.111,-0.97,0.101,-0.37,3.39,-1.19,3,5
18561.859,-0.125,-0.965,0.106,0.82,4.58,-2.75,3,5
18561.859,-0.131,-0.956,0.112,1.86,4.27,-3.78,3,5
18561.875,-0.128,-0.961,0.114,2.08,3.94,-4.43,3,5
18561.89,-0.133,-0.97,0.113,2.17,3.88,-4.76,3,5
18561.89,-0.125,-0.978,0.126,2.44,3.81,-4.67,3,5
18561.906,-0.117,-0.982,0.132,3.66,3.48,-4.79,3,5
18561.921,-0.119,-0.975,0.142,4.58,2.96,-5.62,3,5
18561.921,-0.135,-0.97,0.15,5.1,1.25,-6.56,3,5
18561.937,-0.139,-0.971,0.147,6.68,-4.24,-5.28,3,5
18561.953,-0.129,-0.969,0.123,6.23,-3.91,-3.78,3,5
18561.953,-0.121,-0.975,0.093,4.7,-1.86,-2.38,3,5
18561.968,-0.108,-0.988,0.083,4.0,1.16,-1.4,3,5
18561.968,-0.106,-0.993,0.107,4.3,3.91,-0.95,3,5
18561.984,-0.108,-0.993,0.133,5.34,5.28,-0.61,3,5
18562.0,-0.109,-0.985,0.156,6.59,5.04,0.06,3,5
18562.0,-0.111,-0.975,0.156,7.84,4.27,1.04,3,5
18562.015,-0.118,-0.96,0.152,7.42,3.42,2.47,3,5
18562.031,-0.105,-0.973,0.156,4.79,1.98,3.45,3,5
18562.031,-0.089,-0.989,0.159,2.84,0.58,3.45,3,5
18562.046,-0.082,-0.995,0.159,3.6,0.09,2.26,3,5
18562.062,-0.073,-0.997,0.165,5.62,-0.21,0.95,3,5
18562.062,-0.085,-0.992,0.166,6.78,-0.12,0.21,3,5
18562.078,-0.09,-0.999,0.158,6.13,-0.67,0.31,3,5
18562.078,-0.097,-1.007,0.146,4.43,-0.82,1.86,3,5
18562.093,-0.098,-1.015,0.141,2.44,0.31,3.88,3,5
18562.109,-0.101,-1.025,0.146,0.92,1.8,5.43,3,5
18562.109,-0.106,-1.034,0.159,0.67,2.93,6.13,3,5
18562.125,-0.112,-1.037,0.175,1.19,3.14,6.5,3,5
