timestamp,ax,ay,az,gx,gy,gz,orient_label,motion_label
18574.125,0.09,-0.923,0.402,4.03,2.23,4.7,3,5
18574.14,0.082,-0.928,0.371,3.91,-1.86,5.92,3,5
18574.14,0.088,-0.936,0.343,2.41,-4.58,7.11,3,5
18574.156,0.097,-0.946,0.316,1.74,-4.09,8.45,3,5
18574.171,0.108,-0.942,0.304,1.56,-1.19,10.07,3,5
18574.171,0.12,-0.934,0.312,2.44,3.08,10.68,3,5
18574.187,0.126,-0.917,0.331,3.85,7.39,11.32,3,5
18574.203,0.12,-0.892,0.361,4.06,10.62,12.05,3,5
18574.203,0.093,-0.869,0.398,3.78,11.87,12.27,3,5
18574.218,0.039,-0.858,0.415,3.63,9.67,14.01,3,5
18574.234,0.008,-0.861,0.399,1.07,4.3,18.34,3,5
18574.234,0.038,-0.888,0.363,-2.23,-0.92,22.37,3,5
18574.25,0.072,-0.916,0.322,-3.11,-1.68,24.23,3,5
18574.265,0.087,-0.922,0.307,-2.38,1.59,24.51,3,5
18574.265,0.088,-0.918,0.318,-1.31,6.2,23.62,3,5
18574.281,0.051,-0.915,0.323,-0.21,10.13,22.77,3,5
18574.281,0.01,-0.926,0.33,-1.16,11.75,23.16,3,5
18574.312,-0.01,-0.972,0.323,-1.95,7.93,22.4,3,5
18574.312,0.006,-0.995,0.312,-1.31,5.68,20.51,3,5
18574.328,0.02,-1.004,0.313,-0.18,5.13,16.85,3,5
18574.328,0.026,-0.999,0.32,2.08,5.37,11.96,3,5
18574.343,0.033,-0.978,0.333,3.88,5.1,6.96,3,5
18574.359,0.044,-0.954,0.351,5.34,4.49,2.59,3,5
18574.375,0.046,-0.926,0.364,7.02,3.85,-0.92,3,5
18574.375,0.044,-0.901,0.376,8.03,2.69,-3.75,3,5
18574.39,0.041,-0.883,0.387,9.03,0.89,-6.13,3,5
18574.39,0.045,-0.862,0.4,10.99,-1.59,-8.45,3,5
18574.406,0.039,-0.836,0.412,14.07,-4.76,-10.8,3,5
18574.421,0.026,-0.801,0.432,17.61,-9.64,-12.57,3,5
18574.437,0.039,-0.772,0.443,20.81,-16.57,-13.89,3,5
18574.437,0.063,-0.751,0.441,23.5,-23.74,-15.23,3,5
18574.437,0.087,-0.73,0.437,26.52,-29.51,-17.43,3,5
18574.453,0.108,-0.706,0.434,30.95,-33.97,-20.69,3,5
18574.468,0.127,-0.628,0.448,43.73,-40.28,-30.58,3,5
18574.484,0.143,-0.591,0.458,52.19,-42.7,-36.84,3,5
18574.5,0.154,-0.562,0.464,62.87,-44.1,-43.21,3,5
18574.515,0.146,-0.526,0.475,77.36,-44.74,-49.29,3,5
18574.515,0.106,-0.482,0.47,92.99,-45.38,-53.41,3,5
18574.531,0.031,-0.427,0.467,104.07,-46.51,-53.83,3,5
18574.531,-0.025,-0.401,0.459,110.45,-50.75,-50.26,3,5
18574.546,-0.063,-0.364,0.483,113.65,-56.64,-44.86,3,5
18574.562,-0.097,-0.317,0.522,116.18,-64.58,-37.69,3,5
18574.562,-0.091,-0.303,0.524,116.61,-74.98,-29.3,3,5
18574.578,-0.07,-0.312,0.52,115.27,-84.26,-22.1,3,5
18574.593,-0.037,-0.331,0.501,114.38,-91.25,-18.07,3,5
18574.593,-0.002,-0.353,0.472,114.81,-96.19,-17.55,3,5
18574.609,0.03,-0.372,0.456,117.37,-98.51,-20.2,3,5
18574.625,0.051,-0.388,0.451,122.1,-98.3,-25.3,3,5
18574.625,0.07,-0.415,0.458,129.37,-96.71,-31.07,3,5
18574.64,0.094,-0.437,0.451,138.19,-92.93,-36.26,3,5
18574.656,0.106,-0.438,0.423,150.46,-85.57,-40.99,3,5
18574.656,0.099,-0.43,0.441,162.82,-78.55,-45.26,3,5
18574.671,0.102,-0.411,0.452,169.29,-74.71,-48.95,3,5
18574.671,0.093,-0.401,0.45,170.93,-71.17,-50.54,3,5
18574.687,0.1,-0.393,0.464,169.29,-67.84,-50.14,3,5
18574.703,0.112,-0.393,0.478,165.87,-64.55,-49.65,3,5
18574.703,0.127,-0.409,0.479,159.49,-60.21,-47.98,3,5
18574.718,0.15,-0.42,0.468,150.46,-56.61,-47.18,3,5
18574.734,0.182,-0.448,0.449,141.21,-54.93,-49.1,3,5
18574.734,0.233,-0.497,0.441,132.82,-49.23,-60.15,3,5
18574.75,0.279,-0.543,0.444,135.5,-43.28,-69.34,3,5
18574.75,0.313,-0.583,0.431,138.13,-36.38,-80.36,3,5
18574.765,0.353,-0.605,0.453,141.15,-27.1,-93.72,3,5
18574.781,0.395,-0.611,0.541,140.39,-16.82,-109.1,3,5
18574.796,0.405,-0.596,0.638,139.81,-1.89,-124.94,3,5
18574.812,0.459,-0.586,0.729,148.26,2.59,-148.26,3,5
18574.812,0.513,-0.534,0.757,163.67,8.12,-172.03,3,5
18574.828,0.464,-0.537,0.759,175.42,16.05,-192.27,3,5
18574.843,0.487,-0.449,0.819,183.17,13.52,-207.59,3,5
18574.843,0.482,-0.37,0.856,192.11,14.25,-219.31,3,5
18574.859,0.473,-0.296,0.887,188.27,20.11,-220.07,3,5
18574.859,0.544,-0.19,0.944,171.73,26.49,-216.99,3,5
18574.875,0.647,-0.112,1.018,152.2,33.2,-218.57,3,5
18574.89,0.674,-0.067,1.087,136.11,41.29,-224.62,3,5
18574.89,0.633,-0.04,1.125,128.54,46.02,-232.7,3,5
18574.906,0.582,-0.019,1.156,129.4,44.4,-240.33,3,5
18574.921,0.525,0.032,1.203,138.22,39.09,-246.86,3,5
18574.921,0.491,0.077,1.216,151.62,32.17,-250.28,3,5
18574.937,0.489,0.17,1.234,162.51,26.58,-249.4,3,5
18574.953,0.486,0.27,1.242,168.31,24.26,-245.95,3,5
18574.953,0.465,0.392,1.263,164.56,22.4,-240.42,3,5
18574.968,0.416,0.487,1.28,152.68,17.33,-234.08,3,5
18574.984,0.409,0.551,1.31,134.53,8.21,-224.43,3,5
18574.984,0.4,0.594,1.331,117.04,-5.01,-215.52,3,5
18575.0,0.437,0.63,1.319,103.55,-16.21,-209.3,3,5
18575.015,0.43,0.649,1.286,90.73,-25.57,-209.17,3,5
18575.015,0.422,0.637,1.294,77.46,-32.65,-208.11,3,5
18575.031,0.434,0.634,1.316,67.05,-34.49,-202.09,3,5
18575.046,0.435,0.669,1.337,61.8,-34.55,-195.41,3,5
18575.046,0.416,0.699,1.365,62.96,-36.23,-191.44,3,5
18575.062,0.359,0.729,1.354,66.47,-41.05,-187.63,3,5
18575.062,0.327,0.766,1.314,65.98,-52.31,-182.84,3,5
18575.078,0.338,0.77,1.254,61.83,-67.17,-180.49,3,5
18575.093,0.374,0.746,1.175,56.95,-79.81,-181.74,3,5
18575.093,0.391,0.706,1.08,56.28,-85.21,-185.19,3,5
18575.109,0.396,0.669,0.995,61.46,-84.26,-189.43,3,5
18575.109,0.374,0.654,0.937,72.36,-80.36,-193.91,3,5
18575.14,0.291,0.767,0.837,96.04,-75.99,-193.95,3,5
18575.156,0.271,0.833,0.802,95.8,-71.26,-183.26,3,5
18575.156,0.27,0.864,0.762,87.62,-67.35,-170.35,3,5
18575.171,0.28,0.854,0.725,76.51,-63.97,-158.33,3,5
18575.187,0.291,0.823,0.69,66.56,-60.03,-147.83,3,5
18575.187,0.295,0.791,0.651,58.14,-55.06,-139.56,3,5
18575.203,0.297,0.765,0.622,52.19,-48.59,-133.3,3,5
18575.203,0.293,0.744,0.6,49.68,-40.65,-128.64,3,5
18575.218,0.289,0.724,0.574,49.99,-32.26,-125.52,3,5
18575.218,0.284,0.708,0.552,52.74,-22.92,-123.66,3,5
18575.234,0.284,0.715,0.543,57.5,-11.96,-122.5,3,5
18575.25,0.259,0.756,0.537,61.31,-0.06,-121.46,3,5
18575.25,0.204,0.82,0.573,59.24,10.44,-119.66,3,5
18575.265,0.127,0.866,0.636,51.42,17.18,-114.57,3,5
18575.281,0.067,0.889,0.689,38.06,18.46,-104.86,3,5
18575.296,0.053,0.892,0.717,21.18,15.63,-92.01,3,5
18575.312,0.079,0.813,0.704,-6.78,10.77,-68.7,3,5
18575.312,0.093,0.771,0.683,-14.59,11.81,-60.58,3,5
18575.328,0.102,0.74,0.657,-19.9,15.17,-55.85,3,5
18575.343,0.097,0.722,0.634,-24.75,19.38,-55.21,3,5
18575.343,0.089,0.704,0.618,-29.66,24.51,-57.25,3,5
18575.359,0.065,0.71,0.64,-35.4,32.11,-61.01,3,5
18575.375,-0.025,0.723,0.704,-40.41,37.93,-66.56,3,5
18575.375,-0.098,0.698,0.737,-43.55,36.23,-72.88,3,5
18575.39,-0.134,0.668,0.751,-45.66,29.18,-77.24,3,5
18575.39,-0.147,0.618,0.752,-44.59,24.57,-77.7,3,5
18575.406,-0.138,0.579,0.733,-38.61,21.09,-78.55,3,5
18575.421,-0.128,0.583,0.736,-28.44,19.44,-83.68,3,5
18575.421,-0.191,0.594,0.79,-14.53,19.62,-90.98,3,5
18575.437,-0.26,0.554,0.79,0.46,15.29,-96.65,3,5
18575.453,-0.28,0.562,0.772,12.57,5.89,-99.73,3,5
18575.453,-0.276,0.591,0.737,23.74,-2.75,-104.31,3,5
18575.468,-0.269,0.601,0.684,28.9,-7.29,-110.93,3,5
18575.468,-0.254,0.598,0.635,27.99,-7.32,-118.44,3,5
18575.484,-0.259,0.594,0.605,26.83,-2.59,-126.35,3,5
18575.5,-0.304,0.606,0.623,27.62,4.52,-133.43,3,5
18575.5,-0.406,0.603,0.665,31.98,7.72,-138.19,3,5
18575.515,-0.483,0.59,0.689,37.63,4.27,-137.7,3,5
18575.531,-0.52,0.606,0.713,41.14,-2.93,-132.94,3,5
18575.531,-0.557,0.643,0.716,43.09,-10.22,-127.11,3,5
18575.546,-0.566,0.668,0.676,39.31,-14.86,-120.37,3,5
18575.562,-0.558,0.696,0.658,26.03,-18.68,-112.34,3,5
18575.562,-0.588,0.707,0.667,9.28,-22.25,-103.46,3,5
18575.578,-0.61,0.656,0.656,-5.74,-28.93,-91.19,3,5
18575.578,-0.57,0.645,0.631,-18.68,-36.71,-76.75,3,5
18575.593,-0.516,0.638,0.588,-29.05,-40.83,-64.7,3,5
18575.609,-0.48,0.614,0.561,-37.69,-39.7,-56.76,3,5
18575.609,-0.464,0.606,0.556,-42.97,-34.27,-51.33,3,5
18575.64,-0.463,0.668,0.557,-42.48,-17.4,-42.05,3,5
18575.656,-0.467,0.713,0.56,-42.7,-8.97,-35.37,3,5
18575.656,-0.465,0.748,0.567,-44.31,-1.46,-27.01,3,5
18575.671,-0.463,0.771,0.57,-44.92,5.8,-17.3,3,5
18575.671,-0.451,0.78,0.567,-44.83,12.45,-7.2,3,5
18575.687,-0.432,0.783,0.56,-44.34,18.46,2.35,3,5
18575.703,-0.416,0.779,0.561,-41.29,24.51,10.68,3,5
18575.703,-0.397,0.772,0.555,-35.0,30.88,17.79,3,5
18575.718,-0.371,0.772,0.539,-27.68,38.06,23.32,3,5
18575.734,-0.354,0.775,0.529,-13.73,53.93,27.83,3,5
18575.734,-0.35,0.786,0.539,-8.24,60.15,28.2,3,5
18575.75,-0.364,0.803,0.554,-5.37,62.84,28.32,3,5
18575.75,-0.415,0.811,0.581,-5.95,59.45,30.58,3,5
18575.765,-0.41,0.859,0.616,-5.92,55.15,32.84,3,5
18575.781,-0.408,0.874,0.618,-5.49,47.52,36.53,3,5
18575.781,-0.383,0.885,0.609,-8.39,38.21,41.72,3,5
18575.812,-0.302,0.882,0.571,-18.77,27.74,51.91,3,5
18575.812,-0.278,0.862,0.558,-24.05,28.35,55.7,3,5
18575.828,-0.267,0.84,0.552,-28.08,31.4,59.14,3,5
18575.843,-0.27,0.824,0.554,-30.79,35.49,62.78,3,5
18575.843,-0.287,0.815,0.564,-33.2,38.76,66.81,3,5
18575.859,-0.306,0.824,0.582,-36.04,40.44,72.05,3,5
18575.875,-0.337,0.859,0.586,-41.38,40.93,79.65,3,5
18575.875,-0.36,0.884,0.588,-52.95,38.48,90.98,3,5
18575.89,-0.353,0.87,0.596,-69.03,33.91,104.22,3,5
18575.906,-0.327,0.829,0.594,-84.26,30.06,116.86,3,5
18575.906,-0.301,0.774,0.589,-95.46,28.05,126.44,3,5
18575.921,-0.285,0.714,0.584,-102.21,28.47,131.9,3,5
18575.937,-0.283,0.653,0.595,-104.95,30.3,133.92,3,5
18575.937,-0.288,0.6,0.6,-103.95,31.92,133.12,3,5
18575.953,-0.289,0.563,0.613,-102.08,32.35,131.11,3,5
18575.953,-0.28,0.532,0.633,-98.57,31.19,129.09,3,5
18575.968,-0.258,0.497,0.651,-90.67,30.49,126.71,3,5
18575.968,-0.236,0.472,0.654,-79.59,34.06,124.45,3,5
18575.984,-0.234,0.464,0.655,-68.0,36.99,121.1,3,5
18576.0,-0.226,0.445,0.669,-56.76,38.3,117.04,3,5
18576.0,-0.242,0.434,0.681,-45.38,39.52,112.52,3,5
18576.015,-0.248,0.423,0.693,-35.71,39.86,108.55,3,5
18576.031,-0.25,0.432,0.713,-29.63,38.76,105.32,3,5
18576.046,-0.236,0.442,0.734,-28.44,36.35,102.88,3,5
18576.046,-0.22,0.438,0.751,-29.6,34.12,101.44,3,5
18576.062,-0.207,0.425,0.767,-30.0,33.02,101.23,3,5
18576.078,-0.183,0.421,0.789,-28.5,33.02,102.48,3,5
18576.078,-0.167,0.425,0.812,-26.58,33.2,104.53,3,5
18576.093,-0.17,0.422,0.833,-25.76,32.5,105.9,3,5
18576.093,-0.181,0.416,0.857,-26.86,30.03,106.3,3,5
18576.109,-0.194,0.41,0.882,-28.84,24.63,105.5,3,5
18576.109,-0.198,0.402,0.9,-29.79,16.05,103.18,3,5
18576.125,-0.19,0.401,0.909,-29.51,6.04,99.52,3,5
18576.14,-0.164,0.406,0.905,-27.31,-3.42,94.36,3,5
18576.156,-0.132,0.416,0.905,-23.93,-11.23,88.5,3,5
18576.156,-0.1,0.429,0.918,-19.59,-17.76,83.01,3,5
18576.171,-0.061,0.435,0.934,-15.02,-23.44,78.68,3,5
18576.171,-0.049,0.441,0.95,-10.86,-28.05,75.32,3,5
18576.187,-0.064,0.446,0.963,-7.72,-34.64,71.99,3,5
18576.203,-0.072,0.443,0.961,-4.88,-44.77,68.7,3,5
18576.203,-0.09,0.447,0.946,-2.2,-56.46,64.73,3,5
18576.218,-0.096,0.445,0.917,0.55,-67.93,59.24,3,5
18576.234,-0.067,0.455,0.887,2.62,-77.3,52.83,3,5
18576.234,-0.026,0.473,0.866,4.52,-82.92,45.78,3,5
18576.25,-0.003,0.493,0.85,5.25,-83.86,38.36,3,5
18576.25,-0.01,0.524,0.855,2.99,-82.49,31.92,3,5
18576.265,-0.026,0.538,0.879,-2.01,-82.22,27.59,3,5
18576.281,-0.056,0.521,0.91,-3.81,-84.78,24.78,3,5
18576.281,-0.087,0.508,0.938,0.95,-89.94,23.74,3,5
18576.296,-0.103,0.516,0.94,9.61,-96.84,23.22,3,5
18576.312,-0.1,0.527,0.914,17.4,-102.85,20.94,3,5
18576.312,-0.086,0.526,0.872,20.02,-106.08,14.89,3,5
18576.328,-0.067,0.535,0.842,18.68,-105.32,5.52,3,5
18576.343,-0.047,0.556,0.829,17.49,-101.14,-4.64,3,5
18576.343,-0.015,0.594,0.83,18.52,-94.33,-13.86,3,5
18576.359,0.01,0.639,0.838,21.52,-86.0,-21.91,3,5
18576.359,0.036,0.673,0.842,26.34,-77.43,-28.66,3,5
18576.375,0.028,0.71,0.832,33.3,-69.46,-33.66,3,5
18576.39,-0.011,0.752,0.827,38.64,-64.3,-35.71,3,5
18576.406,-0.04,0.797,0.831,38.09,-63.57,-33.36,3,5
18576.406,-0.046,0.834,0.826,34.49,-66.44,-27.44,3,5
18576.421,-0.041,0.839,0.799,32.26,-69.89,-18.59,3,5
18576.421,-0.028,0.855,0.762,29.27,-71.29,-6.84,3,5
18576.437,0.01,0.87,0.72,23.8,-70.04,6.56,3,5
18576.453,0.065,0.875,0.682,15.78,-65.43,20.48,3,5
18576.453,0.095,0.881,0.653,8.03,-56.4,32.29,3,5
18576.484,0.125,0.815,0.591,4.33,-33.91,51.52,3,5
18576.484,0.144,0.811,0.58,8.73,-21.06,60.12,3,5
18576.5,0.15,0.811,0.575,14.4,-7.87,66.44,3,5
18576.5,0.136,0.799,0.565,16.27,3.91,72.15,3,5
18576.515,0.134,0.777,0.582,11.35,14.19,78.68,3,5
18576.531,0.132,0.759,0.625,3.78,22.8,85.21,3,5
18576.531,0.118,0.726,0.668,-0.49,29.76,92.9,3,5
18576.546,0.117,0.673,0.685,1.16,35.49,103.0,3,5
18576.562,0.149,0.637,0.679,6.81,41.63,114.72,3,5
18576.562,0.173,0.624,0.662,10.25,48.86,123.6,3,5
18576.578,0.177,0.58,0.65,6.93,54.9,126.26,3,5
18576.578,0.187,0.508,0.66,-0.95,59.69,123.94,3,5
18576.593,0.195,0.452,0.688,-3.27,63.45,117.74,3,5
18576.609,0.192,0.443,0.723,5.49,66.84,110.9,3,5
18576.625,0.173,0.496,0.783,17.76,69.28,105.56,3,5
18576.625,0.149,0.561,0.85,24.14,68.06,100.65,3,5
18576.656,0.163,0.641,0.882,21.27,52.86,96.53,3,5
18576.656,0.182,0.769,0.85,15.87,48.25,100.53,3,5
18576.671,0.228,0.68,0.831,10.59,50.23,110.32,3,5
18576.671,0.282,0.602,0.862,4.09,49.41,114.72,3,5
18576.687,0.34,0.661,0.853,-0.61,49.44,112.34,3,5
18576.703,0.358,0.658,0.826,-2.56,54.05,105.44,3,5
18576.703,0.321,0.58,0.81,-1.92,62.44,89.91,3,5
18576.718,0.281,0.527,0.792,-0.15,62.69,83.71,3,5
18576.734,0.287,0.553,0.759,-1.5,63.05,78.07,3,5
18576.734,0.259,0.574,0.745,-6.01,62.5,77.0,3,5
18576.75,0.265,0.569,0.706,-9.09,62.32,79.87,3,5
18576.75,0.301,0.59,0.719,-5.86,66.07,84.96,3,5
18576.765,0.293,0.61,0.701,-0.73,72.39,90.3,3,5
18576.781,0.272,0.61,0.68,-2.14,78.34,96.26,3,5
18576.781,0.259,0.573,0.7,-12.12,81.33,100.53,3,5
18576.796,0.256,0.52,0.726,-25.09,80.9,101.54,3,5
18576.812,0.313,0.375,0.8,-45.69,73.34,88.96,3,5
18576.828,0.353,0.347,0.835,-44.95,69.89,78.77,3,5
18576.843,0.38,0.33,0.872,-38.45,68.97,68.85,3,5
18576.843,0.328,0.332,1.042,-29.36,67.51,60.3,3,5
18576.859,0.291,0.37,1.103,-15.99,56.22,56.89,3,5
18576.859,0.321,0.433,0.993,-11.81,42.21,56.0,3,5
18576.875,0.338,0.361,0.94,-11.23,36.99,52.34,3,5
18576.89,0.298,0.318,0.877,-4.27,36.74,49.44,3,5
18576.906,0.29,0.36,0.804,3.88,36.87,46.75,3,5
18576.906,0.245,0.391,0.799,5.13,40.47,43.58,3,5
18576.921,0.207,0.413,0.829,1.86,40.41,42.05,3,5
18576.921,0.23,0.434,0.849,-1.01,36.93,42.15,3,5
18576.937,0.252,0.439,0.85,-2.23,35.1,42.6,3,5
18576.953,0.266,0.441,0.837,-2.99,35.77,43.92,3,5
18576.953,0.277,0.447,0.841,-3.94,37.26,44.98,3,5
18576.968,0.269,0.444,0.845,-6.5,38.73,44.56,3,5
18576.984,0.241,0.402,0.857,-15.44,36.99,40.38,3,5
18577.0,0.23,0.395,0.869,-16.72,34.12,37.72,3,5
18577.015,0.229,0.403,0.878,-15.38,30.46,36.56,3,5
18577.015,0.253,0.4,0.874,-13.31,25.85,34.64,3,5
18577.031,0.269,0.408,0.845,-11.63,23.1,31.86,3,5
18577.031,0.273,0.415,0.846,-12.24,23.16,30.15,3,5
18577.046,0.275,0.411,0.848,-14.92,22.68,28.57,3,5
18577.062,0.285,0.413,0.854,-19.23,22.34,27.1,3,5
18577.062,0.28,0.394,0.877,-22.95,23.1,26.15,3,5
18577.078,0.276,0.365,0.893,-24.87,22.49,23.83,3,5
18577.078,0.252,0.331,0.889,-25.57,20.14,19.2,3,5
18577.093,0.273,0.328,0.881,-25.54,17.73,14.5,3,5
18577.109,0.25,0.321,0.877,-25.18,15.23,6.81,3,5
18577.109,0.243,0.3,0.896,-25.33,13.25,2.44,3,5
18577.125,0.258,0.344,0.908,-21.18,12.21,0.73,3,5
18577.14,0.249,0.357,0.915,-16.05,12.57,-0.18,3,5
18577.14,0.239,0.372,0.912,-14.34,12.94,0.31,3,5
18577.156,0.237,0.364,0.903,-15.69,12.36,0.55,3,5
18577.171,0.245,0.348,0.902,-18.46,12.67,-0.46,3,5
18577.171,0.234,0.348,0.903,-20.66,13.25,-3.48,3,5
18577.187,0.222,0.344,0.909,-22.92,12.45,-6.35,3,5
18577.203,0.214,0.334,0.912,-25.61,10.77,-9.0,3,5
18577.203,0.222,0.308,0.906,-28.44,8.42,-12.18,3,5
18577.218,0.234,0.287,0.907,-30.06,7.11,-15.35,3,5
18577.218,0.247,0.289,0.915,-28.17,7.75,-17.61,3,5
18577.234,0.246,0.292,0.911,-23.83,10.19,-19.53,3,5
18577.25,0.223,0.295,0.924,-20.2,13.55,-20.6,3,5
18577.25,0.198,0.306,0.939,-17.3,15.56,-19.96,3,5
18577.265,0.188,0.31,0.961,-14.92,15.41,-18.25,3,5
18577.281,0.179,0.321,0.964,-12.6,14.37,-16.54,3,5
18577.296,0.167,0.327,0.945,-11.11,13.55,-15.32,3,5
18577.296,0.175,0.33,0.922,-11.32,12.45,-14.1,3,5
18577.312,0.19,0.332,0.915,-12.67,11.66,-13.7,3,5
18577.312,0.182,0.343,0.925,-13.58,11.96,-13.37,3,5
18577.328,0.161,0.353,0.977,-14.1,10.28,-12.82,3,5
18577.328,0.114,0.371,1.054,-13.67,4.15,-11.17,3,5
18577.343,0.066,0.411,1.136,-13.58,-8.33,-6.96,3,5
18577.359,0.009,0.449,1.18,-15.17,-28.23,-1.22,3,5
18577.359,-0.027,0.477,1.182,-18.31,-51.91,9.61,3,5
18577.375,-0.016,0.506,1.13,-18.74,-73.12,27.71,3,5
18577.39,0.076,0.528,1.01,-27.95,-90.61,47.03,3,5
18577.39,0.165,0.443,0.843,-42.24,-96.5,59.85,3,5
18577.406,0.218,0.359,0.768,-50.17,-90.09,64.33,3,5
18577.421,0.252,0.319,0.773,-48.62,-77.61,67.75,3,5
18577.421,0.288,0.253,0.794,-42.57,-65.07,72.3,3,5
18577.437,0.339,0.199,0.846,-32.5,-54.38,75.17,3,5
18577.453,0.386,0.141,0.851,-18.43,-45.38,75.38,3,5
18577.453,0.424,0.063,0.811,-7.81,-37.29,69.09,3,5
18577.468,0.466,0.023,0.792,-5.16,-27.89,56.34,3,5
18577.468,0.488,0.011,0.804,-8.48,-18.8,39.83,3,5
18577.484,0.502,-0.016,0.806,-14.77,-11.57,22.58,3,5
18577.5,0.517,-0.039,0.784,-16.57,-2.93,7.48,3,5
18577.515,0.534,-0.048,0.759,-5.62,11.14,-6.1,3,5
18577.515,0.489,0.031,0.822,11.2,27.92,-19.41,3,5
18577.531,0.397,0.155,0.921,22.46,37.63,-28.41,3,5
18577.531,0.296,0.233,1.05,26.8,36.19,-30.46,3,5
18577.546,0.18,0.321,1.15,30.67,22.58,-27.04,3,5
18577.562,0.24,0.352,0.996,29.15,3.57,-19.84,3,5
18577.562,0.273,0.338,0.828,15.99,-2.47,-18.83,3,5
18577.578,0.268,0.288,0.832,6.1,1.89,-19.41,3,5
18577.593,0.278,0.276,0.89,7.69,6.53,-17.18,3,5
18577.593,0.274,0.31,0.938,12.18,8.73,-13.37,3,5
18577.609,0.257,0.325,0.961,11.41,7.17,-10.13,3,5
18577.609,0.251,0.311,0.945,5.92,3.05,-7.93,3,5
18577.625,0.255,0.306,0.946,1.53,-0.4,-6.2,3,5
18577.64,0.257,0.294,0.926,0.55,-2.59,-3.14,3,5
18577.64,0.276,0.281,0.901,-1.04,-3.48,0.85,3,5
18577.656,0.302,0.266,0.897,-3.6,-3.2,3.27,3,5
18577.671,0.321,0.25,0.912,-5.1,-2.44,3.42,3,5
18577.671,0.329,0.227,0.91,-4.39,-1.95,2.26,3,5
18577.687,0.337,0.215,0.901,-2.44,-1.43,0.12,3,5
18577.687,0.338,0.22,0.916,2.5,0.49,-4.33,3,5
18577.703,0.331,0.224,0.93,5.1,0.43,-6.29,3,5
18577.718,0.322,0.23,0.906,3.94,0.82,-9.13,3,5
18577.718,0.304,0.239,0.938,4.82,0.82,-12.27,3,5
18577.734,0.303,0.267,0.925,7.6,0.27,-12.51,3,5
18577.75,0.281,0.271,0.911,7.39,0.52,-12.36,3,5
18577.75,0.274,0.287,0.914,6.87,0.37,-11.63,3,5
18577.765,0.273,0.294,0.919,5.74,-0.27,-10.62,3,5
18577.781,0.271,0.301,0.921,4.18,-0.73,-8.91,3,5
18577.781,0.266,0.302,0.913,3.27,-0.89,-6.65,3,5
18577.796,0.273,0.3,0.899,2.29,-1.13,-4.58,3,5
18577.812,0.286,0.296,0.904,1.07,-0.82,-3.36,3,5
18577.812,0.289,0.295,0.913,0.0,-0.15,-1.77,3,5
18577.828,0.299,0.287,0.909,-0.92,-0.15,-0.31,3,5
18577.828,0.304,0.268,0.905,-1.95,0.0,0.06,3,5
18577.843,0.313,0.253,0.906,-1.83,0.46,-0.4,3,5
18577.859,0.31,0.25,0.915,-0.49,0.98,-1.13,3,5
18577.859,0.309,0.25,0.919,0.92,0.73,-1.71,3,5
18577.875,0.309,0.256,0.924,1.65,0.43,-2.17,3,5
18577.89,0.301,0.248,0.93,2.47,0.0,-2.87,3,5
18577.89,0.282,0.251,0.937,4.21,-0.95,-3.63,3,5
18577.906,0.287,0.281,0.918,6.32,-2.01,-2.29,3,5
18577.921,0.283,0.291,0.913,5.8,-2.29,-1.74,3,5
18577.921,0.275,0.288,0.917,4.52,-2.2,-1.01,3,5
18577.937,0.275,0.272,0.921,4.55,-2.44,-0.03,3,5
18577.953,0.28,0.255,0.917,5.28,-2.62,0.37,3,5
18577.953,0.291,0.251,0.914,6.87,-2.2,0.15,3,5
18577.968,0.291,0.252,0.938,8.91,-1.22,-0.4,3,5
18577.968,0.284,0.246,0.945,12.94,-1.71,-0.64,3,5
18577.984,0.29,0.254,0.933,15.69,-2.81,-0.92,3,5
18578.0,0.285,0.221,0.944,16.42,-4.46,-4.33,3,5
18578.015,0.282,0.227,0.943,17.58,-7.02,-6.9,3,5
18578.031,0.286,0.25,0.986,19.75,-11.99,-9.4,3,5
18578.031,0.314,0.261,1.046,27.28,-17.21,-10.5,3,5
18578.046,0.307,0.256,0.973,40.68,-22.43,-13.21,3,5
18578.062,0.294,0.304,0.885,44.1,-26.12,-16.17,3,5
18578.062,0.315,0.301,0.913,41.57,-26.09,-17.76,3,5
18578.078,0.337,0.278,0.977,46.51,-26.06,-19.9,3,5
18578.078,0.337,0.28,1.019,62.26,-27.38,-22.31,3,5
18578.093,0.312,0.279,0.957,79.9,-31.46,-24.99,3,5
18578.109,0.292,0.306,0.814,81.88,-34.82,-27.5,3,5
18578.109,0.302,0.358,0.767,66.5,-35.46,-29.6,3,5
18578.125,0.337,0.376,0.737,49.81,-34.39,-32.78,3,5
18578.14,0.354,0.388,0.715,36.59,-29.05,-35.16,3,5
18578.14,0.365,0.4,0.751,30.55,-21.06,-35.74,3,5
18578.156,0.357,0.44,0.799,34.27,-14.34,-35.13,3,5
18578.171,0.334,0.505,0.816,41.11,-10.28,-32.56,3,5
18578.187,0.306,0.536,0.808,42.3,-9.55,-28.66,3,5
18578.187,0.299,0.549,0.81,36.71,-11.32,-23.77,3,5
18578.203,0.309,0.557,0.812,28.11,-13.4,-18.89,3,5
18578.203,0.3,0.537,0.806,19.81,-15.05,-15.72,3,5
18578.218,0.284,0.506,0.79,12.73,-15.99,-12.18,3,5
18578.218,0.299,0.492,0.787,6.26,-16.66,-8.27,3,5
18578.234,0.321,0.484,0.79,1.5,-15.72,-5.13,3,5
18578.25,0.326,0.455,0.793,-0.76,-13.28,-2.99,3,5
18578.25,0.325,0.434,0.796,-1.43,-10.59,-1.43,3,5
18578.265,0.33,0.42,0.803,-1.31,-8.15,-0.31,3,5
18578.281,0.348,0.417,0.814,-1.25,-5.89,-0.31,3,5
18578.296,0.343,0.409,0.825,-1.89,-4.15,-2.11,3,5
18578.296,0.335,0.399,0.837,-1.95,-4.0,-4.46,3,5
18578.312,0.337,0.409,0.866,-0.55,-5.07,-6.47,3,5
18578.312,0.327,0.424,0.884,1.83,-7.26,-7.93,3,5
18578.328,0.329,0.424,0.88,3.94,-10.77,-8.82,3,5
18578.343,0.334,0.422,0.872,5.71,-14.13,-9.34,3,5
18578.343,0.337,0.416,0.861,8.33,-16.91,-10.74,3,5
18578.359,0.342,0.413,0.849,9.43,-19.44,-12.3,3,5
18578.359,0.35,0.404,0.836,9.25,-21.79,-15.08,3,5
18578.375,0.361,0.395,0.83,8.48,-23.44,-18.68,3,5
18578.39,0.368,0.378,0.829,9.34,-24.41,-23.19,3,5
18578.406,0.373,0.379,0.832,11.26,-24.99,-28.23,3,5
18578.406,0.372,0.383,0.835,12.79,-25.73,-33.88,3,5
18578.421,0.361,0.387,0.847,13.89,-27.16,-39.86,3,5
18578.421,0.345,0.397,0.859,13.92,-30.4,-46.51,3,5
18578.437,0.346,0.4,0.868,13.28,-35.16,-53.16,3,5
18578.453,0.338,0.404,0.869,13.09,-39.49,-59.51,3,5
18578.453,0.329,0.404,0.861,14.28,-43.34,-64.82,3,5
18578.468,0.336,0.412,0.839,16.17,-46.75,-69.15,3,5
18578.484,0.34,0.422,0.816,16.75,-49.01,-73.49,3,5
18578.484,0.341,0.423,0.796,14.71,-49.96,-79.13,3,5
18578.5,0.362,0.423,0.795,12.6,-50.45,-85.45,3,5
18578.5,0.362,0.438,0.8,12.21,-49.47,-91.07,3,5
18578.515,0.343,0.451,0.807,12.76,-48.86,-96.44,3,5
18578.531,0.339,0.482,0.835,12.79,-49.75,-101.41,3,5
18578.531,0.306,0.535,0.852,12.73,-51.64,-105.5,3,5
18578.546,0.275,0.568,0.835,11.02,-55.88,-107.09,3,5
18578.562,0.284,0.588,0.813,8.0,-61.19,-104.86,3,5
18578.562,0.296,0.618,0.779,3.2,-64.12,-99.98,3,5
18578.578,0.298,0.637,0.735,-6.38,-64.36,-94.67,3,5
18578.593,0.324,0.639,0.697,-20.6,-62.62,-88.35,3,5
18578.593,0.391,0.689,0.656,-38.45,-55.24,-79.23,3,5
18578.609,0.346,0.641,0.643,-66.77,-41.26,-65.37,3,5
18578.609,0.354,0.483,0.657,-86.92,-33.3,-49.71,3,5
18578.625,0.397,0.448,0.664,-85.45,-24.81,-41.51,3,5
18578.64,0.376,0.432,0.657,-80.9,-11.99,-42.05,3,5
18578.64,0.365,0.414,0.697,-77.24,-3.23,-49.17,3,5
18578.656,0.325,0.389,0.755,-69.49,1.77,-60.91,3,5
18578.687,0.19,0.417,0.859,-16.02,-10.25,-77.39,3,5
18578.687,0.177,0.467,0.853,-0.27,-17.58,-73.76,3,5
18578.687,0.187,0.555,0.824,7.08,-22.55,-68.73,3,5
18578.703,0.225,0.62,0.77,5.01,-23.56,-63.91,3,5
18578.718,0.29,0.673,0.674,-3.85,-20.33,-59.45,3,5
18578.734,0.298,0.663,0.676,-13.95,-14.28,-55.24,3,5
18578.734,0.291,0.637,0.695,-20.29,-7.39,-51.52,3,5
18578.75,0.274,0.609,0.712,-21.88,-0.82,-48.8,3,5
18578.75,0.25,0.584,0.734,-20.26,3.54,-48.28,3,5
18578.765,0.22,0.564,0.757,-16.45,5.77,-49.99,3,5
18578.781,0.196,0.556,0.782,-10.35,6.13,-52.8,3,5
18578.781,0.155,0.549,0.81,-1.43,3.69,-54.69,3,5
18578.796,0.143,0.569,0.827,10.62,-2.32,-54.45,3,5
18578.812,0.142,0.609,0.81,20.17,-7.93,-51.7,3,5
18578.828,0.166,0.656,0.784,20.66,-11.81,-46.24,3,5
18578.828,0.186,0.685,0.769,13.52,-13.21,-39.86,3,5
18578.843,0.177,0.673,0.779,-6.56,-10.01,-24.41,3,5
18578.859,0.166,0.648,0.788,-14.59,-8.94,-16.97,3,5
18578.875,0.152,0.621,0.793,-19.35,-8.67,-11.57,3,5
18578.875,0.149,0.584,0.799,-21.33,-9.09,-8.33,3,5
18578.89,0.161,0.562,0.813,-21.7,-10.5,-6.01,3,5
18578.89,0.177,0.547,0.809,-19.44,-10.9,-3.66,3,5
18578.906,0.185,0.535,0.794,-15.93,-10.01,-1.28,3,5
18578.921,0.202,0.538,0.802,-14.44,-8.3,1.59,3,5
18578.921,0.211,0.533,0.813,-12.94,-5.98,4.21,3,5
18578.937,0.226,0.496,0.808,-10.35,-5.16,6.81,3,5
18578.953,0.237,0.517,0.802,-12.27,-4.33,7.93,3,5
18578.953,0.242,0.501,0.809,-13.55,-2.72,8.61,3,5
18578.968,0.255,0.481,0.829,-14.74,-2.5,8.21,3,5
18578.968,0.271,0.488,0.835,-14.89,-2.56,6.35,3,5
18578.984,0.264,0.487,0.832,-14.53,-2.66,2.99,3,5
18579.0,0.27,0.481,0.843,-15.72,-4.24,-0.21,3,5
18579.015,0.279,0.483,0.842,-10.62,-6.01,-5.65,3,5
18579.031,0.282,0.491,0.826,-6.16,-5.25,-6.47,3,5
18579.031,0.275,0.486,0.807,-2.87,-3.36,-7.72,3,5
18579.046,0.263,0.479,0.783,-0.03,-0.67,-9.61,3,5
18579.062,0.265,0.486,0.77,2.44,2.32,-11.44,3,5
18579.062,0.252,0.49,0.78,3.11,6.38,-13.49,3,5
18579.078,0.226,0.507,0.807,2.72,8.18,-15.5,3,5
18579.093,0.211,0.54,0.838,0.98,7.11,-15.44,3,5
18579.093,0.208,0.557,0.861,-1.43,4.09,-14.83,3,5
18579.109,0.204,0.561,0.865,-2.23,0.67,-13.46,3,5
18579.109,0.197,0.559,0.845,-0.98,-1.25,-10.71,3,5
18579.125,0.192,0.555,0.815,-0.37,-1.83,-7.11,3,5
18579.14,0.192,0.549,0.796,-2.26,-1.74,-4.12,3,5
18579.14,0.198,0.536,0.789,-4.09,-1.28,-1.53,3,5
18579.156,0.204,0.534,0.797,-5.4,-0.15,0.73,3,5
18579.171,0.205,0.534,0.812,-7.02,0.55,2.72,3,5
18579.187,0.202,0.544,0.847,-9.92,-2.17,5.49,3,5
18579.203,0.205,0.529,0.851,-11.2,-5.65,6.38,3,5
18579.203,0.214,0.509,0.843,-11.17,-8.12,6.68,3,5
18579.218,0.22,0.493,0.826,-10.32,-9.67,6.29,3,5
18579.234,0.232,0.481,0.816,-9.43,-9.95,6.07,3,5
18579.234,0.234,0.469,0.816,-9.64,-9.09,5.1,3,5
18579.25,0.242,0.453,0.852,-12.05,-9.09,2.59,3,5
18579.25,0.251,0.46,0.838,-8.51,-9.43,1.5,3,5
18579.265,0.244,0.454,0.826,-5.46,-8.0,0.31,3,5
18579.281,0.239,0.459,0.84,-7.42,-8.18,-2.26,3,5
18579.281,0.244,0.46,0.838,-6.44,-9.74,-4.27,3,5
18579.296,0.263,0.47,0.83,-4.79,-10.38,-6.04,3,5
18579.312,0.262,0.481,0.827,-3.08,-9.52,-7.39,3,5
18579.312,0.252,0.483,0.828,-1.31,-8.51,-8.91,3,5
18579.328,0.238,0.49,0.827,-1.07,-8.58,-10.53,3,5
18579.343,0.236,0.496,0.829,-1.98,-9.46,-11.57,3,5
18579.359,0.232,0.495,0.826,-1.95,-10.04,-11.69,3,5
18579.359,0.228,0.498,0.821,-2.17,-9.77,-11.02,3,5
18579.375,0.23,0.498,0.822,-3.75,-9.67,-10.56,3,5
18579.39,0.229,0.494,0.828,-4.85,-9.49,-10.28,3,5
18579.39,0.234,0.493,0.832,-5.86,-9.74,-9.86,3,5
18579.406,0.235,0.497,0.839,-7.11,-10.1,-9.95,3,5
18579.421,0.233,0.491,0.846,-7.57,-10.83,-10.1,3,5
18579.421,0.238,0.482,0.845,-7.05,-11.87,-10.01,3,5
18579.437,0.244,0.484,0.833,-5.89,-12.51,-9.98,3,5
18579.453,0.252,0.483,0.818,-4.76,-12.05,-10.13,3,5
18579.453,0.259,0.483,0.809,-3.3,-10.62,-10.41,3,5
18579.468,0.252,0.476,0.799,-1.53,-8.27,-10.59,3,5
18579.468,0.255,0.485,0.802,-0.61,-6.5,-10.62,3,5
18579.484,0.247,0.493,0.816,-0.55,-4.82,-10.86,3,5
18579.5,0.247,0.506,0.828,-1.59,-4.49,-10.96,3,5
18579.5,0.23,0.507,0.846,-3.05,-4.91,-11.05,3,5
18579.531,0.227,0.509,0.845,-6.26,-8.94,-10.28,3,5
18579.531,0.238,0.495,0.834,-8.76,-10.71,-10.19,3,5
18579.546,0.239,0.478,0.827,-9.22,-10.74,-10.01,3,5
18579.562,0.239,0.473,0.815,-7.29,-9.55,-9.16,3,5
18579.562,0.247,0.481,0.806,-5.74,-8.03,-8.51,3,5
18579.578,0.263,0.487,0.81,-6.04,-6.26,-8.7,3,5
18579.593,0.261,0.485,0.824,-5.55,-4.06,-9.55,3,5
18579.593,0.25,0.478,0.839,-2.72,-1.68,-9.4,3,5
18579.609,0.255,0.486,0.826,1.77,0.0,-8.12,3,5
18579.609,0.268,0.474,0.813,5.55,2.08,-7.63,3,5
18579.625,0.246,0.497,0.825,3.78,4.33,-8.24,3,5
18579.64,0.223,0.51,0.84,0.46,5.01,-7.87,3,5
18579.64,0.219,0.503,0.847,-2.26,3.78,-6.74,3,5
18579.656,0.216,0.518,0.839,-5.01,2.9,-4.73,3,5
18579.671,0.21,0.529,0.806,-9.55,3.2,0.24,3,5
18579.671,0.229,0.53,0.757,-9.67,6.81,2.93,3,5
18579.687,0.21,0.49,0.772,-19.14,6.44,3.91,3,5
18579.703,0.204,0.552,0.885,-19.23,1.83,8.45,3,5
18579.703,0.202,0.503,0.869,-13.67,-0.34,12.91,3,5
18579.718,0.224,0.492,0.851,-10.47,-1.77,16.6,3,5
18579.734,0.233,0.466,0.829,-8.06,-1.59,18.68,3,5
18579.734,0.238,0.476,0.814,-8.79,-0.49,20.66,3,5
18579.75,0.245,0.485,0.795,-8.97,1.68,22.89,3,5
18579.75,0.256,0.467,0.798,-10.8,3.57,22.92,3,5
18579.765,0.26,0.442,0.83,-11.99,4.67,20.97,3,5
18579.781,0.247,0.425,0.867,-10.44,4.97,18.22,3,5
18579.781,0.253,0.413,0.913,-7.78,2.75,15.75,3,5
18579.796,0.273,0.396,0.923,-1.86,-0.79,13.79,3,5
18579.812,0.26,0.405,0.886,5.52,-1.86,12.54,3,5
18579.812,0.224,0.411,0.885,3.54,-3.08,9.16,3,5
18579.828,0.226,0.447,0.881,-6.29,-9.49,4.24,3,5
18579.843,0.328,0.343,0.776,1.83,-9.34,3.33,3,5
18579.843,0.277,0.339,0.756,11.87,-0.18,-0.85,3,5
18579.859,0.275,0.458,0.821,5.62,5.25,-3.57,3,5
18579.859,0.249,0.437,0.856,7.72,6.56,-6.71,3,5
18579.875,0.239,0.454,0.9,6.26,4.09,-9.22,3,5
18579.89,0.245,0.47,0.903,6.26,-0.49,-11.02,3,5
18579.89,0.236,0.452,0.873,9.74,-3.14,-12.24,3,5
18579.906,0.242,0.461,0.859,12.15,-4.94,-12.21,3,5
18579.921,0.242,0.482,0.843,12.51,-5.55,-11.72,3,5
18579.921,0.229,0.486,0.826,11.2,-5.28,-11.2,3,5
18579.937,0.227,0.497,0.815,9.13,-4.91,-9.52,3,5
18579.953,0.241,0.512,0.814,7.39,-4.36,-7.57,3,5
18579.953,0.234,0.521,0.816,5.31,-3.33,-6.56,3,5
18579.968,0.231,0.521,0.814,1.95,-2.81,-5.22,3,5
18579.968,0.229,0.516,0.817,-0.89,-2.78,-3.51,3,5
18579.984,0.235,0.51,0.815,-3.39,-2.69,-1.53,3,5
18580.0,0.242,0.501,0.821,-5.92,-2.17,0.27,3,5
18580.0,0.248,0.488,0.826,-7.05,-1.34,1.5,3,5
18580.015,0.252,0.459,0.838,-7.39,-0.64,2.14,3,5
18580.031,0.243,0.451,0.855,-8.58,-0.98,1.25,3,5
18580.046,0.25,0.449,0.866,-7.14,-2.32,0.12,3,5
18580.046,0.251,0.436,0.87,-5.34,-3.14,-2.14,3,5
18580.062,0.252,0.429,0.874,-4.0,-4.61,-4.24,3,5
18580.062,0.255,0.431,0.873,-1.74,-6.04,-6.32,3,5
18580.078,0.252,0.436,0.859,1.31,-6.74,-8.27,3,5
18580.093,0.25,0.437,0.846,2.84,-7.32,-9.64,3,5
18580.093,0.255,0.442,0.832,3.48,-7.08,-11.14,3,5
18580.109,0.263,0.454,0.818,4.06,-6.01,-12.76,3,5
18580.109,0.256,0.46,0.801,4.39,-3.6,-14.19,3,5
18580.125,0.252,0.476,0.803,4.0,-1.16,-14.59,3,5
18580.14,0.251,0.492,0.809,2.59,0.64,-14.1,3,5
18580.14,0.248,0.502,0.821,0.85,2.23,-13.61,3,5
18580.156,0.248,0.499,0.837,0.12,3.02,-13.09,3,5
18580.171,0.254,0.495,0.839,-0.24,3.17,-12.45,3,5
18580.171,0.257,0.484,0.84,-0.76,3.78,-12.02,3,5
18580.187,0.254,0.469,0.844,-0.09,4.94,-11.96,3,5
18580.203,0.257,0.464,0.843,1.5,5.4,-11.96,3,5
18580.203,0.261,0.463,0.849,2.78,5.55,-12.3,3,5
18580.218,0.256,0.46,0.864,3.05,5.95,-13.49,3,5
18580.234,0.248,0.455,0.863,2.75,5.52,-15.38,3,5
18580.234,0.256,0.451,0.86,2.59,4.76,-17.37,3,5
18580.25,0.267,0.442,0.855,2.96,5.34,-19.44,3,5
18580.25,0.26,0.436,0.837,3.45,7.26,-22.71,3,5
18580.265,0.25,0.432,0.816,3.45,9.67,-25.97,3,5
18580.281,0.244,0.423,0.791,3.17,12.42,-29.6,3,5
18580.281,0.233,0.419,0.768,2.44,15.69,-33.88,3,5
18580.296,0.225,0.42,0.748,1.46,19.65,-38.45,3,5
18580.312,0.219,0.427,0.745,1.01,24.57,-42.51,3,5
18580.312,0.201,0.44,0.752,0.27,29.6,-45.63,3,5
18580.328,0.179,0.462,0.761,-1.65,34.03,-47.33,3,5
18580.343,0.165,0.488,0.783,-2.9,37.87,-48.19,3,5
18580.343,0.144,0.506,0.816,-3.08,40.53,-47.55,3,5
18580.359,0.106,0.541,0.869,-3.36,40.96,-45.2,3,5
18580.375,0.06,0.611,0.913,-1.5,38.58,-39.77,3,5
18580.375,0.032,0.66,0.95,-0.76,33.78,-31.43,3,5
18580.39,0.008,0.694,0.974,-4.39,25.42,-21.21,3,5
18580.39,0.015,0.713,0.965,-6.44,16.48,-8.85,3,5
18580.406,0.055,0.666,0.887,-7.93,9.86,3.08,3,5
18580.421,0.088,0.584,0.821,-11.93,7.63,9.58,3,5
18580.421,0.131,0.542,0.799,-16.24,8.94,12.51,3,5
18580.437,0.174,0.571,0.837,-27.92,5.62,23.32,3,5
18580.453,0.161,0.514,0.846,-37.75,11.75,30.15,3,5
18580.453,0.222,0.379,0.816,-39.16,14.98,32.29,3,5
18580.468,0.227,0.317,0.853,-36.01,19.93,28.08,3,5
18580.484,0.177,0.336,0.936,-31.28,23.59,17.82,3,5
18580.484,0.128,0.34,0.969,-23.74,19.93,5.37,3,5
18580.5,0.106,0.27,0.97,-15.99,9.4,-0.4,3,5
18580.5,0.15,0.304,0.957,-3.72,0.27,-7.35,3,5
18580.515,0.155,0.336,0.918,13.09,-2.59,-13.25,3,5
18580.531,0.166,0.392,0.871,26.12,-2.17,-18.16,3,5
18580.531,0.155,0.425,0.839,30.67,0.06,-22.31,3,5
18580.546,0.141,0.471,0.815,27.41,3.27,-26.28,3,5
18580.562,0.104,0.48,0.812,18.77,6.32,-28.66,3,5
18580.562,0.093,0.482,0.833,10.65,8.03,-28.75,3,5
18580.578,0.056,0.515,0.863,8.61,9.25,-27.92,3,5
18580.578,-0.003,0.561,0.888,10.44,8.79,-24.41,3,5
18580.593,-0.066,0.603,0.917,9.55,3.23,-16.27,3,5
18580.609,-0.047,0.644,0.913,5.62,-6.5,-6.16,3,5
18580.609,-0.015,0.631,0.885,1.22,-13.89,0.12,3,5
18580.625,0.02,0.574,0.855,-2.99,-16.57,3.69,3,5
18580.64,0.045,0.546,0.842,-5.19,-14.95,4.7,3,5
18580.64,0.034,0.498,0.865,-1.92,-10.65,6.5,3,5
18580.656,0.044,0.446,0.89,1.83,-10.56,6.99,3,5
18580.671,0.054,0.431,0.922,5.58,-11.29,8.18,3,5
18580.671,0.065,0.451,0.924,4.0,-11.93,9.49,3,5
18580.687,0.089,0.424,0.929,-2.26,-14.19,6.81,3,5
18580.703,0.098,0.411,0.942,-7.2,-16.54,6.16,3,5
18580.703,0.115,0.401,0.939,-6.65,-17.82,5.83,3,5
18580.718,0.125,0.412,0.938,-1.77,-18.34,3.66,3,5
18580.734,0.117,0.416,0.909,4.79,-17.27,1.04,3,5
18580.734,0.127,0.395,0.881,7.17,-15.93,-3.51,3,5
18580.75,0.126,0.421,0.872,4.61,-16.57,-10.68,3,5
18580.75,0.119,0.415,0.864,5.01,-16.69,-16.54,3,5
18580.765,0.12,0.413,0.843,8.12,-15.75,-19.59,3,5
18580.781,0.12,0.45,0.834,11.51,-14.44,-20.94,3,5
18580.796,0.099,0.471,0.831,14.71,-13.09,-20.45,3,5
18580.796,0.094,0.474,0.817,15.02,-13.76,-18.89,3,5
18580.812,0.092,0.494,0.806,11.08,-15.9,-17.88,3,5
18580.812,0.097,0.512,0.804,5.49,-18.13,-17.06,3,5
18580.828,0.101,0.516,0.811,1.01,-20.23,-15.84,3,5
18580.843,0.107,0.51,0.797,-0.67,-21.7,-13.34,3,5
18580.843,0.119,0.51,0.779,-1.95,-22.74,-10.47,3,5
18580.859,0.137,0.519,0.776,-3.72,-22.8,-8.61,3,5
18580.859,0.152,0.52,0.774,-5.31,-21.49,-7.75,3,5
18580.875,0.168,0.524,0.768,-6.26,-18.98,-7.2,3,5
18580.89,0.172,0.524,0.777,-6.47,-14.44,-6.56,3,5
18580.89,0.157,0.516,0.797,-6.81,-10.96,-6.23,3,5
18580.906,0.161,0.519,0.814,-7.48,-9.8,-5.49,3,5
18580.921,0.167,0.52,0.822,-6.68,-8.42,-5.22,3,5
18580.921,0.158,0.516,0.825,-5.28,-7.05,-4.85,3,5
18580.937,0.161,0.516,0.837,-4.85,-6.9,-4.21,3,5
18580.953,0.167,0.533,0.85,-5.13,-7.2,-3.6,3,5
18580.953,0.158,0.525,0.845,-5.37,-7.57,-3.17,3,5
18580.968,0.158,0.516,0.843,-7.72,-9.03,-2.96,3,5
18580.968,0.162,0.505,0.85,-10.01,-10.77,-3.08,3,5
18580.984,0.166,0.492,0.853,-11.63,-12.21,-3.57,3,5
18581.0,0.16,0.465,0.851,-13.12,-12.85,-4.3,3,5
18581.015,0.184,0.452,0.85,-14.22,-12.7,-6.74,3,5
18581.015,0.219,0.438,0.815,-15.93,-10.53,-12.36,3,5
18581.031,0.254,0.408,0.74,-23.1,-3.91,-21.06,3,5
18581.031,0.304,0.376,0.679,-33.72,10.19,-31.31,3,5
18581.046,0.276,0.381,0.67,-39.86,33.27,-42.85,3,5
18581.062,0.082,0.559,0.94,-28.41,60.67,-48.13,3,5
18581.062,-0.132,0.695,1.305,0.27,63.78,-32.96,3,5
18581.078,-0.211,0.766,1.264,7.66,32.32,-9.74,3,5
18581.093,-0.025,0.66,1.018,-22.25,-4.15,13.31,3,5
18581.093,0.148,0.537,0.901,-50.6,-13.79,21.0,3,5
18581.109,0.1,0.357,0.912,-48.74,-2.17,14.89,3,5
18581.109,0.009,0.264,0.973,-27.59,5.04,3.23,3,5
18581.125,-0.116,0.265,0.993,-1.28,-0.37,-10.62,3,5
18581.14,-0.156,0.306,1.009,18.52,-17.21,-15.47,3,5
18581.156,-0.11,0.459,1.019,36.44,-35.19,-13.34,3,5
18581.156,-0.025,0.484,0.916,44.37,-48.68,-7.32,3,5
18581.171,-0.065,0.542,0.814,33.42,-53.1,-5.34,3,5
18581.171,0.02,0.599,0.834,21.39,-56.73,9.19,3,5
18581.187,0.066,0.562,0.795,11.38,-55.97,24.29,3,5
18581.203,0.095,0.557,0.767,-3.2,-51.06,34.88,3,5
18581.203,0.126,0.505,0.781,-12.45,-45.78,41.87,3,5
18581.218,0.156,0.426,0.763,-13.79,-40.68,44.68,3,5
18581.234,0.192,0.399,0.746,-10.38,-33.81,44.4,3,5
18581.234,0.216,0.379,0.735,-3.75,-24.29,40.93,3,5
18581.25,0.239,0.354,0.707,2.72,-14.44,34.24,3,5
18581.25,0.248,0.336,0.714,7.2,-4.94,24.96,3,5
18581.265,0.253,0.322,0.727,11.78,3.11,15.38,3,5
18581.281,0.266,0.323,0.722,15.96,9.58,6.68,3,5
18581.296,0.269,0.342,0.726,17.03,15.72,-0.92,3,5
18581.296,0.266,0.36,0.73,15.47,20.81,-6.29,3,5
18581.312,0.262,0.374,0.742,10.22,23.9,-10.41,3,5
18581.312,0.261,0.384,0.762,3.57,25.48,-13.0,3,5
18581.328,0.259,0.379,0.774,-1.56,26.73,-14.25,3,5
18581.328,0.246,0.369,0.799,-4.52,27.83,-15.11,3,5
18581.343,0.196,0.449,0.886,-10.83,24.02,-14.01,3,5
18581.359,0.223,0.513,0.957,-19.53,15.59,-9.67,3,5
18581.359,0.274,0.458,0.922,-17.85,10.74,-6.16,3,5
18581.375,0.198,0.412,0.963,-8.58,11.6,-5.13,3,5
18581.39,0.153,0.658,1.099,-13.43,1.95,0.31,3,5
18581.39,0.256,0.622,1.079,-7.35,-11.32,11.38,3,5
18581.406,0.263,0.541,0.967,-2.32,-16.54,15.44,3,5
18581.421,0.29,0.519,0.939,-3.05,-15.9,16.69,3,5
18581.437,0.261,0.453,0.916,2.93,-13.03,12.6,3,5
18581.437,0.224,0.426,0.895,8.91,-11.9,7.02,3,5
18581.453,0.19,0.438,0.913,15.11,-12.48,3.66,3,5
18581.453,0.135,0.432,0.939,24.6,-15.78,2.47,3,5
18581.468,0.105,0.421,0.933,35.13,-23.71,4.97,3,5
18581.484,0.109,0.449,0.89,43.0,-33.02,9.64,3,5
18581.484,0.157,0.501,0.843,44.28,-40.01,14.34,3,5
18581.5,0.177,0.549,0.817,38.21,-43.06,18.28,3,5
18581.5,0.263,0.62,0.766,22.58,-44.31,22.95,3,5
18581.515,0.315,0.483,0.667,21.55,-32.17,26.95,3,5
18581.531,0.252,0.511,0.687,17.55,-17.49,28.99,3,5
18581.531,0.241,0.6,0.77,10.65,-8.64,35.04,3,5
18581.546,0.23,0.5,0.771,7.17,-4.39,34.39,3,5
18581.562,0.174,0.446,0.814,0.58,-2.69,29.45,3,5
18581.578,0.155,0.465,0.868,1.04,-5.16,27.07,3,5
18581.578,0.183,0.456,0.874,5.65,-10.71,25.88,3,5
18581.593,0.213,0.464,0.856,5.4,-13.98,24.41,3,5
18581.593,0.245,0.475,0.85,3.11,-14.37,23.35,3,5
18581.609,0.272,0.465,0.84,0.7,-12.09,22.46,3,5
18581.625,0.285,0.448,0.825,-2.32,-8.12,21.33,3,5
18581.625,0.297,0.427,0.808,-6.35,2.26,15.02,3,5
18581.64,0.304,0.407,0.803,-5.16,7.39,8.76,3,5
18581.64,0.287,0.396,0.813,-1.56,10.13,2.47,3,5
18581.656,0.266,0.39,0.824,1.65,10.35,-2.44,3,5
18581.671,0.234,0.445,0.89,4.55,8.12,-5.95,3,5
18581.687,0.246,0.471,0.904,6.13,3.51,-6.53,3,5
18581.687,0.264,0.504,0.897,5.86,-0.34,-5.49,3,5
18581.703,0.282,0.508,0.876,4.85,-2.81,-4.18,3,5
18581.703,0.281,0.497,0.849,3.94,-3.14,-4.0,3,5
18581.718,0.269,0.476,0.807,3.6,-1.92,-4.85,3,5
18581.734,0.263,0.455,0.773,2.5,-0.09,-6.56,3,5
18581.734,0.269,0.448,0.755,0.21,2.75,-8.7,3,5
18581.75,0.275,0.453,0.767,-2.53,6.38,-11.05,3,5
18581.75,0.264,0.446,0.794,-3.66,9.92,-13.98,3,5
18581.765,0.249,0.448,0.828,-2.78,12.24,-16.91,3,5
18581.781,0.237,0.464,0.859,-0.52,12.42,-18.43,3,5
18581.781,0.221,0.492,0.894,2.47,10.35,-18.52,3,5
18581.796,0.203,0.533,0.91,4.58,6.87,-16.63,3,5
18581.812,0.192,0.54,0.887,5.22,2.23,-14.83,3,5
18581.812,0.196,0.53,0.844,4.85,-1.62,-13.03,3,5
18581.828,0.212,0.526,0.807,4.27,-2.35,-11.32,3,5
18581.843,0.209,0.53,0.796,2.23,-0.09,-10.13,3,5
18581.843,0.206,0.537,0.805,-2.14,1.98,-7.9,3,5
18581.859,0.208,0.518,0.816,-6.16,3.42,-5.28,3,5
18581.875,0.218,0.504,0.824,-10.86,4.09,-3.57,3,5
18581.875,0.26,0.475,0.803,-14.22,5.07,-3.33,3,5
18581.89,0.235,0.349,0.815,-8.45,11.75,-6.99,3,5
18581.89,0.106,0.533,0.991,-15.29,9.28,-8.67,3,5
18581.906,0.223,0.56,1.032,-15.29,-5.13,-0.21,3,5
18581.921,0.218,0.449,0.915,0.67,-10.5,2.2,3,5
18581.921,0.208,0.444,0.862,8.24,-9.89,3.45,3,5
18581.937,0.195,0.449,0.83,17.37,-9.95,3.48,3,5
18581.953,0.16,0.482,0.825,22.61,-10.28,3.11,3,5
18581.953,0.162,0.494,0.832,24.14,-13.0,5.37,3,5
18581.968,0.182,0.519,0.824,22.03,-15.9,7.35,3,5
18581.984,0.207,0.56,0.845,17.3,-18.07,8.45,3,5
18581.984,0.218,0.563,0.842,13.12,-20.2,9.55,3,5
18582.0,0.182,0.57,0.837,5.62,-23.68,11.81,3,5
18582.0,0.274,0.582,0.766,-1.37,-25.67,17.09,3,5
18582.015,0.287,0.391,0.691,7.42,-19.04,19.38,3,5
18582.031,0.285,0.483,0.823,-8.24,-14.74,16.69,3,5
18582.031,0.311,0.491,0.806,-1.77,-11.35,16.85,3,5
18582.046,0.312,0.422,0.769,11.05,-5.25,17.79,3,5
18582.062,0.282,0.462,0.805,11.54,0.03,16.17,3,5
18582.062,0.271,0.469,0.817,17.06,2.14,15.78,3,5
18582.078,0.266,0.473,0.815,18.77,2.23,14.8,3,5
18582.078,0.272,0.511,0.818,13.92,0.98,11.63,3,5
18582.093,0.263,0.504,0.824,7.05,-1.22,6.68,3,5
18582.109,0.266,0.481,0.831,2.08,-4.67,2.08,3,5
18582.109,0.288,0.481,0.824,1.68,-6.62,-0.09,3,5
18582.125,0.296,0.485,0.799,4.88,-5.65,-1.25,3,5
18582.14,0.284,0.494,0.781,6.96,-3.3,-2.26,3,5
18582.14,0.275,0.494,0.77,6.56,-1.53,-3.17,3,5
18582.156,0.285,0.499,0.768,4.27,-0.37,-4.0,3,5
18582.171,0.29,0.506,0.772,2.11,2.2,-4.82,3,5
18582.171,0.277,0.505,0.787,1.56,5.25,-5.16,3,5
18582.187,0.262,0.513,0.8,1.86,7.57,-4.88,3,5
18582.203,0.239,0.522,0.821,0.89,8.36,-4.61,3,5
18582.218,0.225,0.533,0.846,-2.23,6.56,-3.94,3,5
18582.218,0.214,0.528,0.854,-4.94,3.2,-3.11,3,5
18582.218,0.222,0.518,0.857,-6.56,-0.58,-2.01,3,5
18582.234,0.231,0.511,0.851,-6.38,-3.27,-0.67,3,5
18582.25,0.248,0.505,0.84,-4.12,-4.61,0.73,3,5
18582.25,0.246,0.507,0.822,-1.43,-4.49,2.08,3,5
18582.265,0.246,0.503,0.806,-0.31,-4.15,3.23,3,5
18582.281,0.26,0.502,0.801,-0.95,-3.97,4.09,3,5
18582.281,0.271,0.497,0.801,-1.04,-3.51,4.15,3,5
18582.296,0.273,0.491,0.794,0.85,-2.17,3.11,3,5
18582.312,0.284,0.505,0.802,3.42,-0.58,2.59,3,5
18582.312,0.279,0.52,0.822,5.25,1.68,2.81,3,5
18582.328,0.256,0.509,0.837,7.72,2.62,3.78,3,5
18582.343,0.236,0.496,0.844,10.8,1.65,5.49,3,5
18582.343,0.247,0.499,0.837,13.21,-0.31,7.51,3,5
18582.359,0.269,0.517,0.821,13.95,-1.13,8.91,3,5
18582.359,0.26,0.514,0.801,14.13,0.09,9.89,3,5
18582.375,0.261,0.504,0.792,13.49,1.31,11.87,3,5
18582.39,0.254,0.507,0.783,13.76,2.96,13.95,3,5
18582.39,0.27,0.514,0.776,12.48,4.24,15.11,3,5
18582.406,0.27,0.514,0.774,8.24,5.52,12.88,3,5
18582.421,0.27,0.511,0.789,1.56,4.91,8.15,3,5
18582.421,0.268,0.509,0.808,-3.3,3.6,4.0,3,5
18582.437,0.267,0.503,0.813,-4.67,1.77,1.25,3,5
18582.453,0.281,0.511,0.816,-5.86,0.06,-0.73,3,5
18582.453,0.27,0.498,0.812,-6.26,-0.7,-2.96,3,5
18582.468,0.266,0.479,0.799,-5.49,-1.43,-4.58,3,5
18582.484,0.279,0.487,0.792,-5.74,-1.13,-5.95,3,5
18582.484,0.312,0.485,0.791,-6.13,0.49,-8.36,3,5
18582.5,0.31,0.473,0.805,-7.78,3.97,-13.03,3,5
18582.5,0.289,0.436,0.783,-7.23,8.3,-19.14,3,5
18582.515,0.29,0.409,0.757,-8.03,11.93,-24.69,3,5
18582.531,0.324,0.388,0.722,-8.67,17.58,-30.92,3,5
18582.546,0.282,0.46,0.756,-12.09,24.78,-37.08,3,5
18582.546,0.213,0.661,0.856,-26.49,24.32,-36.5,3,5
18582.562,0.161,0.563,0.954,-23.74,19.81,-29.45,3,5
18582.562,0.04,0.768,1.081,-27.07,2.66,-19.32,3,5
18582.578,0.17,0.754,0.988,-19.2,-13.76,3.17,3,5
18582.593,0.2,0.556,0.801,-5.98,-16.75,12.94,3,5
18582.593,0.183,0.467,0.72,-5.46,-13.28,15.29,3,5
18582.609,0.182,0.427,0.707,-1.74,-9.34,16.91,3,5
18582.625,0.212,0.467,0.75,-11.38,-5.74,15.32,3,5
18582.625,0.219,0.484,0.833,-11.02,-6.35,14.28,3,5
18582.64,0.211,0.442,0.9,-4.24,-10.38,15.02,3,5
18582.64,0.246,0.466,0.912,4.88,-14.19,15.05,3,5
18582.656,0.222,0.473,0.9,11.93,-15.56,14.92,3,5
18582.671,0.193,0.493,0.887,11.51,-20.57,15.41,3,5
18582.671,0.303,0.416,0.767,16.66,-23.19,16.63,3,5
18582.687,0.3,0.478,0.744,17.91,-18.01,14.89,3,5
18582.703,0.297,0.577,0.789,10.77,-11.96,15.66,3,5
18582.718,0.266,0.521,0.731,14.04,-6.84,18.83,3,5
18582.718,0.28,0.507,0.749,1.01,-6.87,18.71,3,5
18582.718,0.328,0.515,0.752,-6.56,-5.77,18.68,3,5
18582.734,0.343,0.484,0.758,-8.64,-2.14,16.48,3,5
18582.75,0.326,0.488,0.788,-9.34,2.14,14.19,3,5
18582.75,0.305,0.463,0.795,-7.26,4.39,12.39,3,5
18582.765,0.312,0.454,0.815,-6.71,4.64,11.02,3,5
18582.781,0.314,0.464,0.837,-6.62,4.36,8.15,3,5
18582.781,0.302,0.448,0.838,-5.52,3.81,4.21,3,5
18582.796,0.286,0.432,0.83,-3.23,3.14,0.67,3,5
18582.812,0.29,0.438,0.826,-0.12,2.5,-1.56,3,5
18582.812,0.295,0.45,0.822,3.23,3.14,-3.33,3,5
18582.828,0.275,0.463,0.811,5.62,5.13,-5.37,3,5
18582.843,0.256,0.483,0.819,4.36,5.8,-6.78,3,5
18582.843,0.248,0.498,0.839,1.4,4.76,-7.17,3,5
18582.859,0.245,0.502,0.846,-0.7,3.36,-6.26,3,5
18582.859,0.24,0.51,0.859,-1.98,2.2,-4.27,3,5
18582.875,0.231,0.505,0.864,-0.52,1.04,-1.07,3,5
18582.89,0.239,0.505,0.86,1.8,-0.21,2.96,3,5
18582.89,0.239,0.504,0.842,2.93,-0.67,5.98,3,5
18582.906,0.25,0.488,0.82,2.84,-1.46,7.9,3,5
18582.921,0.267,0.474,0.805,2.41,-1.56,8.64,3,5
18582.921,0.301,0.481,0.795,1.89,-0.55,9.46,3,5
18582.937,0.307,0.483,0.792,1.56,2.47,8.79,3,5
18582.953,0.296,0.476,0.788,1.62,5.92,7.45,3,5
18582.953,0.297,0.487,0.802,2.01,7.81,7.32,3,5
18582.968,0.307,0.511,0.828,2.87,9.03,8.12,3,5
18582.984,0.311,0.504,0.834,3.78,10.16,9.31,3,5
18582.984,0.298,0.471,0.825,4.94,11.32,10.28,3,5
18583.0,0.295,0.442,0.808,7.9,12.7,10.38,3,5
18583.0,0.279,0.452,0.821,11.63,15.02,8.88,3,5
18583.015,0.262,0.518,0.871,15.35,16.97,8.45,3,5
18583.031,0.244,0.603,0.908,19.07,17.85,12.02,3,5
18583.031,0.224,0.67,0.923,21.03,18.04,19.81,3,5
18583.046,0.227,0.751,0.965,22.25,18.62,31.59,3,5
18583.062,0.241,0.827,0.998,26.18,21.06,45.56,3,5
18583.078,0.246,0.9,1.008,29.45,25.64,60.58,3,5
18583.078,0.272,0.945,1.001,28.38,33.05,76.08,3,5
18583.078,0.326,0.967,1.005,20.45,43.0,91.19,3,5
18583.093,0.306,0.988,1.096,10.53,55.6,100.38,3,5
18583.109,0.171,0.888,1.09,14.92,66.77,95.92,3,5
18583.109,0.094,0.775,1.061,23.8,69.67,92.96,3,5
18583.125,0.009,0.778,1.046,35.07,70.96,87.01,3,5
18583.14,-0.098,0.752,1.019,50.81,68.85,78.28,3,5
18583.156,-0.197,0.734,0.969,64.06,60.95,69.73,3,5
18583.156,-0.247,0.742,0.901,72.05,48.68,62.81,3,5
18583.171,-0.268,0.747,0.824,74.04,33.63,55.82,3,5
18583.171,-0.264,0.718,0.719,68.76,18.52,48.52,3,5
18583.187,-0.24,0.668,0.623,58.23,7.6,41.84,3,5
18583.203,-0.2,0.609,0.545,49.62,3.6,36.1,3,5
18583.203,-0.184,0.559,0.48,47.09,8.82,30.7,3,5
18583.218,-0.182,0.516,0.414,48.83,19.5,29.21,3,5
18583.234,-0.161,0.488,0.353,51.91,32.93,30.21,3,5
18583.234,-0.144,0.479,0.322,54.17,49.53,31.77,3,5
18583.25,-0.138,0.465,0.306,54.48,67.63,33.23,3,5
18583.25,-0.132,0.448,0.299,51.15,85.27,34.73,3,5
18583.265,-0.13,0.444,0.301,46.05,101.9,35.43,3,5
18583.281,-0.138,0.458,0.308,41.38,116.52,34.52,3,5
18583.281,-0.143,0.455,0.301,36.93,128.91,34.06,3,5
18583.296,-0.134,0.452,0.279,29.36,141.42,36.1,3,5
18583.312,-0.095,0.42,0.266,15.59,156.01,40.59,3,5
18583.312,-0.055,0.344,0.279,-2.44,174.47,45.05,3,5
18583.328,-0.026,0.271,0.34,-20.81,195.59,48.28,3,5
18583.343,-0.046,0.223,0.436,-34.76,216.65,49.17,3,5
18583.343,-0.099,0.163,0.541,-42.57,233.53,50.26,3,5
18583.359,-0.182,0.091,0.654,-47.12,242.1,53.04,3,5
18583.359,-0.223,0.041,0.794,-48.65,241.07,57.99,3,5
18583.375,-0.2,-0.018,0.918,-44.59,232.73,61.89,3,5
18583.39,-0.163,-0.066,1.003,-39.16,220.31,60.0,3,5
18583.39,-0.138,-0.115,1.057,-34.46,203.92,47.88,3,5
18583.406,-0.127,-0.117,1.083,-28.81,182.16,24.6,3,5
18583.421,-0.118,-0.091,1.105,-19.38,159.03,-2.59,3,5
18583.421,-0.088,-0.061,1.108,-5.31,138.62,-28.87,3,5
18583.437,-0.055,0.009,1.091,8.85,123.05,-52.95,3,5
18583.453,-0.042,0.149,1.078,20.14,115.24,-72.66,3,5
18583.453,-0.073,0.276,1.035,22.61,114.72,-84.66,3,5
18583.468,-0.114,0.326,1.0,12.09,116.15,-90.0,3,5
18583.484,-0.149,0.384,1.011,-5.07,117.1,-90.21,3,5
18583.484,-0.197,0.404,1.025,-21.85,116.34,-87.83,3,5
18583.5,-0.238,0.377,1.039,-33.72,112.52,-85.51,3,5
18583.5,-0.261,0.395,1.075,-37.32,106.39,-84.69,3,5
18583.515,-0.297,0.452,1.097,-34.82,98.12,-84.63,3,5
18583.531,-0.334,0.457,1.098,-30.79,88.02,-84.08,3,5
18583.531,-0.349,0.48,1.081,-25.45,77.49,-83.29,3,5
18583.546,-0.356,0.53,1.039,-20.48,69.15,-82.16,3,5
18583.562,-0.349,0.554,0.994,-20.87,63.97,-80.69,3,5
18583.578,-0.326,0.586,0.958,-25.51,62.72,-79.59,3,5
18583.578,-0.342,0.63,0.921,-30.82,64.79,-78.92,3,5
18583.593,-0.364,0.653,0.893,-35.8,67.32,-76.42,3,5
18583.593,-0.39,0.651,0.888,-39.06,72.73,-60.12,3,5
18583.609,-0.421,0.608,0.887,-36.04,77.67,-46.91,3,5
18583.609,-0.452,0.575,0.901,-31.77,82.43,-33.42,3,5
18583.625,-0.468,0.512,0.896,-26.89,87.01,-23.47,3,5
18583.64,-0.486,0.506,0.907,-22.52,90.46,-20.17,3,5
18583.656,-0.517,0.499,0.889,-24.17,89.45,-19.84,3,5
18583.656,-0.51,0.478,0.866,-30.46,86.83,-20.57,3,5
18583.671,-0.519,0.51,0.862,-35.83,84.9,-23.29,3,5
18583.671,-0.545,0.486,0.862,-35.4,85.02,-23.13,3,5
18583.687,-0.577,0.485,0.895,-32.87,86.83,-16.42,3,5
18583.703,-0.615,0.495,0.921,-29.05,86.28,-5.52,3,5
18583.703,-0.625,0.498,0.911,-27.53,82.43,7.29,3,5
18583.718,-0.603,0.495,0.899,-31.28,77.12,18.89,3,5
18583.734,-0.584,0.478,0.896,-36.84,72.05,25.7,3,5
18583.734,-0.594,0.479,0.892,-40.86,66.81,29.02,3,5
18583.75,-0.597,0.497,0.881,-41.9,60.3,32.41,3,5
18583.75,-0.571,0.494,0.86,-41.63,54.51,37.48,3,5
18583.765,-0.539,0.467,0.854,-43.06,51.3,42.63,3,5
18583.781,-0.552,0.506,0.86,-46.6,51.33,47.15,3,5
18583.781,-0.577,0.553,0.859,-51.12,51.03,52.19,3,5
18583.796,-0.589,0.539,0.875,-58.57,46.11,58.08,3,5
18583.812,-0.662,0.606,0.906,-68.3,38.88,64.09,3,5
18583.812,-0.709,0.62,0.91,-76.88,27.95,74.1,3,5
18583.828,-0.693,0.6,0.874,-89.54,11.51,86.28,3,5
18583.843,-0.659,0.574,0.793,-106.08,0.85,100.92,3,5
18583.843,-0.605,0.449,0.717,-120.12,-3.91,111.79,3,5
18583.859,-0.574,0.338,0.664,-127.87,-0.06,119.21,3,5
18583.859,-0.561,0.299,0.645,-128.88,8.73,123.54,3,5
18583.875,-0.584,0.225,0.662,-122.47,20.69,126.87,3,5
18583.89,-0.599,0.178,0.702,-112.4,31.01,132.39,3,5
18583.89,-0.581,0.163,0.77,-100.59,37.45,134.62,3,5
18583.906,-0.661,0.148,0.828,-87.65,36.26,124.3,3,5
18583.921,-0.649,0.036,0.876,-76.57,28.6,111.55,3,5
18583.921,-0.482,-0.211,0.991,-66.1,12.02,86.21,3,5
18583.937,-0.428,-0.515,0.957,-46.33,-1.8,33.72,3,5
18583.953,-0.528,-0.503,0.913,-28.84,-2.93,-23.77,3,5
18583.953,-0.598,-0.074,0.836,-14.8,-4.03,-55.3,3,5
18583.968,-0.643,0.346,0.747,-6.26,-1.28,-56.76,3,5
18583.968,-0.651,0.468,0.676,-10.19,4.55,-41.6,3,5
18583.984,-0.589,0.489,0.675,-25.36,10.62,-20.75,3,5
18584.0,-0.515,0.429,0.749,-32.32,18.13,-4.18,3,5
18584.0,-0.497,0.261,0.798,-27.01,25.48,1.83,3,5
18584.015,-0.504,0.145,0.845,-19.59,31.31,0.73,3,5
18584.031,-0.534,0.134,0.845,-13.98,33.05,-5.68,3,5
18584.031,-0.563,0.175,0.848,-13.73,32.2,-13.95,3,5
18584.046,-0.578,0.236,0.838,-15.41,30.21,-21.73,3,5
18584.062,-0.578,0.287,0.832,-16.3,27.74,-26.76,3,5
18584.062,-0.588,0.3,0.808,-14.22,26.37,-26.46,3,5
18584.078,-0.603,0.274,0.767,-12.42,25.54,-21.67,3,5
18584.093,-0.612,0.228,0.745,-13.0,26.09,-15.87,3,5
18584.093,-0.646,0.182,0.717,-16.45,25.91,-13.46,3,5
18584.109,-0.659,0.122,0.712,-22.46,24.48,-14.31,3,5
18584.125,-0.673,0.126,0.729,-24.75,24.29,-16.14,3,5
18584.125,-0.691,0.137,0.718,-19.87,25.12,-16.75,3,5
18584.14,-0.684,0.173,0.702,-14.37,25.97,-15.59,3,5
18584.156,-0.673,0.199,0.69,-12.15,27.22,-14.95,3,5
18584.156,-0.666,0.176,0.695,-12.15,27.99,-15.56,3,5
18584.171,-0.662,0.169,0.71,-13.06,28.26,-17.06,3,5
18584.187,-0.676,0.202,0.711,-11.87,27.44,-19.62,3,5
18584.203,-0.693,0.234,0.709,-10.62,25.03,-20.78,3,5
18584.203,-0.696,0.272,0.731,-11.9,20.91,-17.91,3,5
18584.218,-0.687,0.257,0.727,-16.79,15.11,-12.82,3,5
18584.234,-0.652,0.176,0.696,-27.13,9.43,-7.29,3,5
18584.234,-0.644,0.076,0.69,-40.31,5.92,-5.46,3,5
18584.234,-0.657,0.048,0.716,-47.36,4.85,-7.51,3,5
18584.25,-0.674,0.03,0.724,-43.18,6.01,-13.67,3,5
18584.265,-0.72,0.023,0.742,-35.68,6.99,-19.38,3,5
18584.265,-0.749,0.061,0.766,-28.05,5.74,-23.1,3,5
18584.281,-0.758,0.104,0.753,-22.13,2.78,-25.03,3,5
18584.281,-0.809,0.135,0.777,-20.63,-0.82,-26.25,3,5
18584.296,-0.905,0.15,0.818,-18.65,-6.01,-23.83,3,5
18584.312,-0.961,0.15,0.86,-10.1,-14.34,-13.09,3,5
18584.312,-0.831,0.147,0.797,3.69,-25.36,2.14,3,5
18584.328,-0.561,0.128,0.606,6.2,-27.65,5.95,3,5
18584.343,-0.821,0.306,0.778,5.52,-14.89,5.77,3,5
18584.343,-0.754,0.196,0.854,24.72,-14.8,23.65,3,5
18584.359,-0.507,0.094,0.672,29.33,-19.1,28.87,3,5
18584.359,-0.645,0.23,0.654,14.25,-10.93,17.76,3,5
18584.375,-0.653,0.31,0.762,12.48,-9.64,24.6,3,5
18584.39,-0.53,0.045,0.628,4.67,-11.17,22.52,3,5
18584.406,-0.811,0.231,0.704,-10.96,-4.49,23.04,3,5
18584.406,-0.654,0.127,0.759,-13.82,-12.36,35.34,3,5
18584.421,-0.639,0.027,0.647,-17.73,-7.45,31.13,3,5
18584.421,-0.733,0.158,0.714,-22.77,-6.16,36.71,3,5
18584.437,-0.525,0.087,0.765,-23.59,-11.29,42.12,3,5
18584.453,-0.592,0.088,0.715,-27.62,-2.44,31.89,3,5
18584.453,-0.679,0.224,0.858,-31.59,-5.19,35.98,3,5
18584.468,-0.651,0.23,0.938,-28.44,-14.98,43.49,3,5
18584.484,-0.582,0.196,0.87,-26.61,-21.79,50.81,3,5
18584.484,-0.6,0.244,0.832,-31.22,-24.23,51.3,3,5
18584.5,-0.489,0.231,0.819,-32.65,-25.76,57.71,3,5
18584.5,-0.484,0.16,0.786,-36.35,-22.34,55.09,3,5
18584.515,-0.451,0.148,0.793,-40.28,-17.7,50.14,3,5
18584.531,-0.475,0.117,0.788,-36.41,-11.2,41.35,3,5
18584.531,-0.503,0.131,0.797,-29.79,-5.74,34.97,3,5
18584.546,-0.524,0.176,0.832,-22.89,-3.08,30.15,3,5
18584.562,-0.555,0.208,0.809,-17.76,-3.72,28.63,3,5
18584.578,-0.577,0.242,0.781,-18.37,-6.16,30.06,3,5
18584.578,-0.547,0.244,0.751,-22.92,-9.83,33.88,3,5
18584.593,-0.543,0.217,0.7,-32.17,-10.56,40.56,3,5
18584.593,-0.51,0.202,0.646,-35.86,-7.2,40.28,3,5
18584.609,-0.486,0.157,0.595,-39.7,-1.25,37.45,3,5
18584.625,-0.448,0.071,0.578,-41.02,6.68,30.52,3,5
18584.625,-0.485,0.047,0.616,-39.06,15.08,21.39,3,5
18584.64,-0.539,0.064,0.695,-35.1,20.23,13.25,3,5
18584.64,-0.591,0.124,0.768,-30.4,19.93,6.65,3,5
18584.656,-0.622,0.188,0.823,-27.16,14.74,1.98,3,5
18584.671,-0.623,0.246,0.857,-24.72,7.08,0.37,3,5
18584.671,-0.605,0.296,0.836,-23.32,-0.09,0.98,3,5
18584.687,-0.577,0.323,0.809,-23.99,-4.33,2.47,3,5
18584.703,-0.571,0.331,0.772,-25.33,-4.61,3.6,3,5
18584.703,-0.593,0.312,0.742,-25.94,-2.38,2.99,3,5
18584.718,-0.609,0.274,0.714,-25.09,0.82,1.37,3,5
18584.734,-0.63,0.245,0.664,-22.55,5.1,-0.52,3,5
18584.734,-0.665,0.206,0.631,-19.56,10.32,-2.81,3,5
18584.75,-0.701,0.185,0.62,-14.62,15.08,-5.25,3,5
18584.75,-0.733,0.203,0.637,-8.88,18.1,-8.27,3,5
18584.765,-0.76,0.209,0.647,-4.7,18.92,-11.51,3,5
18584.781,-0.758,0.216,0.651,-2.99,17.37,-13.61,3,5
18584.781,-0.74,0.223,0.647,0.79,15.5,-13.98,3,5
18584.796,-0.717,0.235,0.631,6.56,13.58,-12.6,3,5
18584.812,-0.698,0.254,0.629,10.47,11.14,-10.77,3,5
18584.828,-0.682,0.248,0.632,10.99,8.85,-9.34,3,5
18584.828,-0.664,0.23,0.638,9.83,7.17,-7.29,3,5
18584.843,-0.649,0.204,0.65,9.28,6.53,-5.01,3,5
18584.843,-0.647,0.177,0.655,9.58,7.32,-3.11,3,5
18584.859,-0.641,0.17,0.668,8.58,8.97,-1.5,3,5
18584.859,-0.64,0.165,0.686,6.78,10.77,-0.58,3,5
18584.875,-0.643,0.164,0.701,6.32,12.67,1.01,3,5
18584.89,-0.637,0.164,0.723,5.55,14.19,3.75,3,5
18584.89,-0.634,0.169,0.753,2.29,15.59,6.13,3,5
18584.906,-0.624,0.167,0.775,-2.23,16.27,8.09,3,5
18584.921,-0.615,0.155,0.793,-6.68,16.17,10.04,3,5
18584.921,-0.618,0.138,0.805,-10.19,16.48,11.29,3,5
18584.937,-0.626,0.121,0.799,-12.09,16.63,11.29,3,5
18584.953,-0.63,0.103,0.792,-13.61,15.99,10.62,3,5
18584.953,-0.641,0.085,0.787,-15.63,16.08,9.52,3,5
18584.968,-0.653,0.075,0.779,-18.16,16.48,10.1,3,5
18584.984,-0.65,0.076,0.769,-20.45,16.17,10.5,3,5
18584.984,-0.639,0.082,0.775,-22.03,14.89,10.01,3,5
18585.0,-0.639,0.091,0.795,-22.16,13.43,10.22,3,5
18585.0,-0.633,0.101,0.814,-19.71,11.26,12.18,3,5
18585.015,-0.643,0.108,0.819,-17.4,8.51,14.25,3,5
18585.031,-0.664,0.097,0.831,-19.23,4.7,14.68,3,5
18585.031,-0.659,0.093,0.83,-21.42,-1.31,13.06,3,5
18585.046,-0.633,0.086,0.821,-21.52,-7.42,9.43,3,5
18585.062,-0.627,0.072,0.822,-19.14,-11.84,4.7,3,5
18585.078,-0.635,0.073,0.811,-16.24,-15.75,-0.46,3,5
18585.078,-0.631,0.085,0.794,-15.32,-20.11,-5.52,3,5
18585.093,-0.618,0.081,0.767,-14.25,-23.41,-9.95,3,5
18585.093,-0.602,0.091,0.739,-12.88,-24.23,-13.58,3,5
18585.109,-0.608,0.113,0.748,-11.75,-22.31,-16.69,3,5
18585.125,-0.635,0.112,0.746,-9.13,-20.23,-18.49,3,5
18585.125,-0.651,0.124,0.769,-5.86,-18.95,-17.27,3,5
18585.14,-0.682,0.13,0.815,-0.7,-18.28,-13.7,3,5
18585.14,-0.697,0.107,0.817,4.24,-19.62,-8.03,3,5
18585.156,-0.655,0.115,0.802,5.04,-21.06,-2.87,3,5
18585.171,-0.624,0.121,0.793,3.42,-21.52,-0.76,3,5
18585.171,-0.61,0.095,0.78,-1.07,-20.57,-0.61,3,5
18585.187,-0.592,0.081,0.797,-7.29,-19.32,-1.8,3,5
18585.203,-0.583,0.075,0.814,-10.8,-18.1,-4.43,3,5
18585.203,-0.573,0.056,0.828,-11.6,-17.67,-8.39,3,5
18585.218,-0.594,0.044,0.835,-9.95,-17.98,-13.31,3,5
18585.218,-0.598,0.028,0.821,-7.42,-18.74,-17.64,3,5
18585.234,-0.606,0.025,0.81,-7.29,-19.53,-21.88,3,5
18585.25,-0.609,0.011,0.79,-11.08,-18.65,-25.36,3,5
18585.265,-0.583,-0.011,0.773,-17.49,-15.99,-28.78,3,5
18585.265,-0.565,-0.026,0.767,-21.49,-10.44,-32.75,3,5
18585.281,-0.571,-0.031,0.764,-21.52,-2.66,-36.87,3,5
18585.281,-0.591,-0.035,0.771,-20.17,4.39,-41.08,3,5
18585.296,-0.622,-0.03,0.818,-19.35,8.15,-44.56,3,5
18585.312,-0.672,-0.023,0.915,-17.58,7.17,-47.21,3,5
18585.312,-0.732,-0.037,0.971,-13.18,-0.12,-46.69,3,5
18585.328,-0.749,-0.044,0.969,-9.06,-12.3,-42.18,3,5
18585.343,-0.717,-0.042,0.929,-6.68,-24.6,-37.42,3,5
18585.343,-0.666,-0.049,0.874,-6.38,-32.93,-35.34,3,5
18585.359,-0.62,-0.063,0.837,-8.88,-36.38,-35.71,3,5
18585.359,-0.592,-0.064,0.82,-10.9,-35.58,-36.23,3,5
18585.375,-0.587,-0.072,0.814,-11.99,-32.38,-34.79,3,5
18585.39,-0.602,-0.077,0.826,-14.5,-28.57,-30.95,3,5
18585.39,-0.63,-0.088,0.84,-18.46,-26.22,-24.9,3,5
18585.406,-0.648,-0.115,0.862,-24.05,-26.09,-17.88,3,5
18585.421,-0.647,-0.142,0.882,-29.33,-27.71,-11.11,3,5
18585.437,-0.639,-0.174,0.883,-34.15,-29.69,-5.92,3,5
18585.437,-0.617,-0.199,0.883,-39.58,-31.4,-2.56,3,5
18585.437,-0.615,-0.211,0.896,-43.43,-32.69,-0.82,3,5
18585.453,-0.623,-0.246,0.894,-45.32,-34.85,0.89,3,5
18585.468,-0.622,-0.271,0.89,-46.63,-36.84,1.92,3,5
18585.484,-0.621,-0.303,0.878,-46.39,-38.12,1.74,3,5
18585.484,-0.615,-0.338,0.864,-46.3,-38.73,-0.09,3,5
18585.5,-0.614,-0.358,0.856,-46.91,-37.81,-5.46,3,5
18585.5,-0.623,-0.356,0.837,-47.61,-36.38,-13.95,3,5
18585.515,-0.601,-0.346,0.821,-49.62,-34.67,-23.65,3,5
18585.531,-0.572,-0.325,0.807,-51.73,-31.71,-35.25,3,5
18585.531,-0.553,-0.301,0.801,-54.11,-26.8,-47.82,3,5
18585.546,-0.531,-0.271,0.811,-56.86,-20.94,-59.27,3,5
18585.562,-0.533,-0.226,0.834,-58.44,-14.5,-68.27,3,5
18585.578,-0.559,-0.183,0.873,-60.27,-8.15,-74.31,3,5
18585.578,-0.587,-0.14,0.929,-60.91,-9.06,-70.22,3,5
18585.593,-0.61,-0.11,0.953,-61.74,-12.33,-61.4,3,5
18585.593,-0.626,-0.091,0.954,-63.02,-16.88,-50.36,3,5
18585.609,-0.58,-0.109,0.933,-63.08,-20.2,-40.62,3,5
18585.609,-0.557,-0.128,0.905,-63.81,-21.67,-33.69,3,5
18585.625,-0.525,-0.153,0.89,-65.74,-21.52,-29.48,3,5
18585.64,-0.521,-0.18,0.889,-66.56,-19.62,-27.19,3,5
18585.656,-0.534,-0.202,0.906,-66.23,-18.31,-25.06,3,5
18585.656,-0.541,-0.22,0.918,-65.22,-18.92,-22.95,3,5
18585.671,-0.551,-0.247,0.925,-63.54,-20.45,-20.54,3,5
18585.671,-0.555,-0.272,0.939,-62.44,-23.41,-17.49,3,5
18585.687,-0.561,-0.297,0.928,-61.13,-27.04,-14.62,3,5
18585.703,-0.552,-0.34,0.898,-59.54,-29.85,-12.45,3,5
18585.703,-0.521,-0.371,0.876,-58.5,-30.88,-11.57,3,5
18585.718,-0.489,-0.392,0.852,-57.25,-29.6,-13.64,3,5
18585.734,-0.456,-0.413,0.847,-56.03,-27.04,-18.98,3,5
18585.734,-0.439,-0.423,0.87,-55.42,-25.21,-25.24,3,5
18585.75,-0.415,-0.469,0.923,-50.75,-16.27,-31.1,3,5
18585.765,-0.452,-0.447,0.966,-43.55,-11.99,-36.56,3,5
18585.765,-0.476,-0.421,1.012,-37.81,-13.73,-42.09,3,5
18585.781,-0.557,-0.437,1.019,-36.59,-19.38,-47.36,3,5
18585.781,-0.567,-0.459,1.004,-40.28,-30.09,-49.26,3,5
18585.796,-0.515,-0.449,0.983,-43.49,-40.62,-51.15,3,5
18585.812,-0.483,-0.45,0.95,-45.81,-47.4,-53.07,3,5
18585.812,-0.426,-0.442,0.926,-49.2,-51.15,-53.93,3,5
18585.828,-0.385,-0.409,0.911,-51.12,-50.6,-53.87,3,5
18585.843,-0.404,-0.386,0.895,-52.28,-47.67,-51.91,3,5
18585.843,-0.437,-0.392,0.882,-57.5,-46.11,-45.84,3,5
18585.859,-0.464,-0.392,0.879,-64.7,-45.96,-36.19,3,5
18585.859,-0.477,-0.432,0.851,-69.12,-46.27,-24.51,3,5
18585.875,-0.471,-0.462,0.817,-73.37,-45.17,-13.15,3,5
18585.89,-0.417,-0.509,0.802,-76.51,-42.94,-4.12,3,5
18585.89,-0.374,-0.574,0.795,-75.59,-38.79,1.74,3,5
18585.906,-0.341,-0.625,0.815,-72.15,-31.83,4.49,3,5
18585.921,-0.34,-0.648,0.86,-66.35,-25.21,2.23,3,5
18585.921,-0.396,-0.684,0.888,-60.34,-21.61,-2.75,3,5
18585.937,-0.419,-0.687,0.904,-58.35,-22.37,-7.32,3,5
18585.953,-0.402,-0.68,0.908,-58.14,-26.22,-11.47,3,5
18585.953,-0.418,-0.671,0.922,-57.19,-29.66,-14.95,3,5
18585.968,-0.414,-0.658,0.901,-56.49,-33.51,-15.56,3,5
18585.984,-0.375,-0.645,0.882,-57.74,-37.11,-13.64,3,5
18585.984,-0.365,-0.647,0.883,-58.17,-36.77,-10.74,3,5
18586.0,-0.354,-0.637,0.847,-56.98,-34.97,-8.76,3,5
18586.0,-0.35,-0.611,0.788,-58.57,-32.17,-8.94,3,5
18586.015,-0.332,-0.602,0.75,-64.09,-28.35,-11.38,3,5
18586.031,-0.314,-0.595,0.716,-71.66,-22.03,-14.89,3,5
18586.031,-0.304,-0.554,0.675,-80.39,-13.55,-19.04,3,5
18586.046,-0.285,-0.513,0.656,-91.68,-5.43,-23.38,3,5
18586.062,-0.272,-0.483,0.662,-102.79,3.6,-26.92,3,5
18586.062,-0.293,-0.47,0.694,-109.68,13.06,-28.72,3,5
18586.078,-0.325,-0.454,0.729,-112.13,18.89,-26.46,3,5
18586.093,-0.348,-0.447,0.761,-111.64,20.6,-19.81,3,5
18586.093,-0.365,-0.44,0.78,-108.74,19.38,-9.58,3,5
18586.109,-0.349,-0.459,0.759,-105.26,15.99,1.74,3,5
18586.109,-0.311,-0.478,0.74,-102.11,13.37,11.32,3,5
18586.125,-0.278,-0.528,0.725,-97.08,12.85,18.43,3,5
18586.14,-0.271,-0.588,0.711,-90.52,12.79,24.08,3,5
18586.14,-0.263,-0.648,0.702,-84.44,12.6,28.08,3,5
18586.156,-0.254,-0.694,0.682,-78.13,12.79,27.38,3,5
18586.171,-0.242,-0.732,0.668,-71.41,11.08,21.36,3,5
18586.187,-0.235,-0.755,0.669,-65.1,8.15,13.12,3,5
18586.187,-0.257,-0.78,0.655,-59.05,6.16,6.13,3,5
18586.203,-0.288,-0.769,0.64,-56.76,3.42,0.85,3,5
18586.203,-0.299,-0.745,0.638,-58.08,0.85,-1.68,3,5
18586.218,-0.319,-0.74,0.629,-59.11,-2.17,0.24,3,5
18586.234,-0.315,-0.742,0.6,-62.32,-5.77,5.92,3,5
18586.234,-0.285,-0.767,0.579,-67.38,-8.12,10.44,3,5
18586.25,-0.272,-0.812,0.547,-68.94,-8.64,12.21,3,5
18586.25,-0.279,-0.834,0.503,-68.97,-6.59,12.24,3,5
18586.265,-0.264,-0.847,0.488,-70.25,-3.57,9.86,3,5
18586.281,-0.258,-0.862,0.489,-70.41,-0.06,5.58,3,5
18586.281,-0.269,-0.869,0.491,-69.7,3.17,1.07,3,5
18586.296,-0.293,-0.854,0.505,-69.77,5.49,-4.03,3,5
18586.312,-0.306,-0.85,0.516,-69.34,4.67,-9.49,3,5
18586.312,-0.318,-0.836,0.54,-67.08,1.89,-13.28,3,5
18586.328,-0.336,-0.81,0.547,-62.2,-2.81,-14.89,3,5
18586.343,-0.33,-0.779,0.499,-58.14,-8.97,-14.25,3,5
18586.343,-0.293,-0.751,0.441,-57.22,-12.94,-13.46,3,5
18586.359,-0.259,-0.733,0.396,-57.95,-12.7,-13.64,3,5
18586.359,-0.253,-0.726,0.352,-59.48,-9.19,-13.55,3,5
18586.375,-0.251,-0.718,0.32,-62.41,-4.24,-13.0,3,5
18586.39,-0.261,-0.715,0.306,-64.49,1.95,-12.82,3,5
18586.39,-0.263,-0.723,0.294,-65.31,7.26,-13.4,3,5
18586.406,-0.251,-0.718,0.289,-65.65,11.93,-14.25,3,5
18586.421,-0.259,-0.698,0.3,-64.7,16.72,-15.53,3,5
18586.421,-0.278,-0.651,0.35,-63.17,18.74,-16.54,3,5
18586.437,-0.296,-0.631,0.394,-58.63,16.11,-14.37,3,5
18586.453,-0.281,-0.618,0.409,-55.94,9.77,-7.6,3,5
18586.453,-0.25,-0.613,0.395,-55.88,3.54,-1.25,3,5
18586.468,-0.252,-0.642,0.361,-55.12,-0.49,3.23,3,5
18586.468,-0.248,-0.679,0.331,-54.9,-4.12,6.99,3,5
18586.484,-0.223,-0.71,0.295,-54.11,-6.38,9.28,3,5
18586.5,-0.202,-0.759,0.268,-50.6,-6.07,9.55,3,5
18586.5,-0.192,-0.797,0.249,-45.87,-4.24,8.33,3,5
18586.515,-0.206,-0.837,0.259,-42.97,-4.52,5.77,3,5
18586.531,-0.235,-0.883,0.284,-38.7,-3.02,1.89,3,5
18586.531,-0.28,-0.921,0.294,-31.59,-3.45,-2.08,3,5
18586.546,-0.298,-0.917,0.289,-24.72,-7.2,-4.43,3,5
18586.562,-0.305,-0.898,0.261,-21.91,-14.62,-6.2,3,5
18586.562,-0.279,-0.904,0.241,-22.98,-16.33,-5.22,3,5
18586.578,-0.26,-0.925,0.22,-21.18,-15.26,-3.42,3,5
18586.593,-0.249,-0.933,0.173,-20.91,-13.0,-1.92,3,5
18586.593,-0.253,-0.937,0.185,-21.42,-10.19,-1.83,3,5
18586.609,-0.242,-0.95,0.206,-22.58,-9.43,-1.37,3,5
18586.609,-0.24,-0.937,0.234,-23.74,-10.1,-2.26,3,5
18586.625,-0.254,-0.936,0.256,-23.38,-12.51,-5.04,3,5
18586.64,-0.271,-0.908,0.257,-23.04,-16.11,-7.57,3,5
18586.64,-0.264,-0.894,0.231,-21.45,-19.81,-9.31,3,5
18586.656,-0.271,-0.891,0.196,-19.35,-20.97,-7.81,3,5
18586.671,-0.283,-0.877,0.189,-19.29,-20.23,-3.45,3,5
18586.671,-0.285,-0.886,0.193,-19.23,-20.17,1.5,3,5
18586.687,-0.262,-0.896,0.187,-19.04,-21.55,6.23,3,5
18586.703,-0.207,-0.906,0.184,-20.17,-23.04,9.49,3,5
18586.703,-0.195,-0.925,0.173,-21.0,-22.92,9.4,3,5
18586.718,-0.23,-0.935,0.157,-21.39,-22.28,7.32,3,5
18586.734,-0.259,-0.937,0.145,-21.97,-22.83,4.46,3,5
18586.734,-0.282,-0.937,0.119,-21.94,-23.32,0.15,3,5
18586.75,-0.275,-0.929,0.105,-20.87,-22.77,-5.74,3,5
18586.75,-0.251,-0.912,0.1,-16.85,-20.91,-11.84,3,5
18586.765,-0.235,-0.865,0.093,-12.97,-18.74,-15.59,3,5
18586.781,-0.217,-0.812,0.079,-13.06,-16.33,-17.3,3,5
18586.781,-0.231,-0.788,0.075,-15.59,-13.15,-17.52,3,5
18586.796,-0.254,-0.786,0.063,-17.91,-10.68,-16.08,3,5
18586.812,-0.236,-0.799,0.052,-19.07,-8.33,-13.82,3,5
18586.812,-0.218,-0.827,0.046,-18.4,-4.52,-11.44,3,5
18586.828,-0.203,-0.847,0.06,-17.27,0.12,-10.04,3,5
18586.843,-0.209,-0.859,0.085,-16.21,3.91,-10.9,3,5
18586.843,-0.218,-0.869,0.136,-17.15,5.22,-12.33,3,5
18586.859,-0.229,-0.867,0.208,-17.03,3.48,-12.42,3,5
18586.859,-0.239,-0.876,0.222,-13.34,-1.89,-10.13,3,5
18586.875,-0.2,-0.882,0.208,-11.05,-8.85,-6.59,3,5
18586.89,-0.181,-0.895,0.187,-10.04,-13.18,-5.68,3,5
18586.89,-0.191,-0.936,0.162,-8.09,-15.2,-6.23,3,5
18586.906,-0.204,-0.947,0.157,-5.95,-15.53,-6.29,3,5
18586.921,-0.219,-0.961,0.149,-2.96,-15.17,-7.11,3,5
18586.921,-0.222,-0.968,0.132,-0.18,-15.99,-8.06,3,5
18586.937,-0.222,-0.971,0.11,0.95,-15.96,-9.98,3,5
18586.953,-0.219,-0.975,0.085,0.89,-14.89,-12.48,3,5
18586.953,-0.215,-0.982,0.084,-0.55,-13.34,-13.95,3,5
18586.968,-0.22,-0.989,0.105,-3.17,-11.99,-14.31,3,5
18586.984,-0.245,-0.989,0.117,-4.79,-11.05,-15.2,3,5
18586.984,-0.258,-0.984,0.126,-4.03,-11.81,-16.69,3,5
18587.0,-0.265,-0.952,0.15,-2.78,-13.34,-17.15,3,5
18587.015,-0.274,-0.919,0.16,0.46,-15.14,-17.06,3,5
18587.015,-0.261,-0.891,0.157,4.52,-18.46,-14.89,3,5
18587.031,-0.23,-0.876,0.13,6.23,-21.52,-11.05,3,5
18587.031,-0.202,-0.865,0.095,5.04,-22.52,-7.2,3,5
18587.046,-0.202,-0.882,0.064,3.14,-20.97,-3.45,3,5
18587.062,-0.204,-0.893,0.045,0.34,-17.91,-0.06,3,5
18587.078,-0.209,-0.905,0.031,-2.08,-13.15,1.59,3,5
18587.078,-0.219,-0.926,0.046,-4.52,-8.73,1.59,3,5
18587.078,-0.22,-0.93,0.08,-5.83,-5.13,0.0,3,5
18587.093,-0.225,-0.939,0.121,-3.66,-3.08,-2.11,3,5
18587.109,-0.232,-0.921,0.154,-1.07,-2.81,-2.84,3,5
18587.125,-0.222,-0.9,0.166,0.58,-4.73,-3.75,3,5
18587.125,-0.219,-0.885,0.163,2.29,-7.2,-4.88,3,5
18587.14,-0.229,-0.873,0.149,3.85,-8.48,-5.22,3,5
18587.14,-0.257,-0.884,0.11,4.64,-9.4,-3.66,3,5
18587.156,-0.248,-0.91,0.059,3.75,-9.0,0.61,3,5
18587.171,-0.201,-0.923,0.03,1.56,-5.43,4.88,3,5
18587.171,-0.167,-0.948,0.018,-0.92,1.65,7.29,3,5
18587.187,-0.154,-0.968,0.031,-4.52,9.52,8.36,3,5
18587.203,-0.173,-0.997,0.079,-8.58,15.63,7.81,3,5
18587.203,-0.235,-1.023,0.147,-11.08,18.19,5.89,3,5
18587.218,-0.3,-1.048,0.201,-9.67,15.53,3.02,3,5
18587.218,-0.308,-1.078,0.199,-4.97,8.48,0.46,3,5
18587.234,-0.255,-1.084,0.199,1.16,1.1,-2.47,3,5
18587.25,-0.197,-1.079,0.173,9.03,-3.48,-7.23,3,5
18587.25,-0.159,-1.045,0.132,14.28,-5.65,-13.61,3,5
18587.265,-0.149,-1.012,0.12,15.47,-5.13,-19.04,3,5
18587.281,-0.164,-0.976,0.116,13.61,-3.11,-21.3,3,5
18587.281,-0.194,-0.95,0.114,10.74,-0.73,-20.45,3,5
18587.296,-0.227,-0.939,0.117,7.48,1.37,-17.76,3,5
18587.312,-0.227,-0.94,0.114,4.27,2.38,-14.25,3,5
18587.328,-0.206,-0.933,0.105,2.2,3.36,-10.56,3,5
18587.328,-0.179,-0.933,0.117,1.19,4.58,-7.45,3,5
18587.328,-0.172,-0.919,0.15,0.85,6.29,-4.7,3,5
18587.343,-0.185,-0.911,0.175,1.25,6.81,-1.95,3,5
18587.359,-0.193,-0.927,0.199,1.95,5.34,1.65,3,5
18587.359,-0.201,-0.946,0.193,2.14,2.96,5.16,3,5
18587.375,-0.191,-0.975,0.169,1.65,0.34,7.63,3,5
18587.39,-0.172,-1.0,0.147,0.89,-0.64,8.36,3,5
18587.406,-0.175,-1.001,0.133,-0.31,0.89,6.96,3,5
18587.406,-0.173,-1.007,0.139,-1.92,2.66,4.58,3,5
18587.421,-0.167,-1.016,0.149,-1.95,4.18,1.83,3,5
18587.421,-0.167,-1.023,0.16,0.58,5.74,-0.76,3,5
18587.437,-0.17,-1.023,0.165,3.08,6.71,-3.14,3,5
18587.453,-0.184,-1.028,0.156,4.64,7.14,-6.04,3,5
18587.453,-0.189,-1.031,0.149,5.46,6.68,-9.25,3,5
18587.468,-0.182,-1.016,0.136,5.31,6.2,-12.3,3,5
18587.468,-0.174,-1.001,0.116,5.07,6.5,-15.2,3,5
18587.484,-0.154,-0.991,0.116,4.06,7.26,-16.14,3,5
18587.5,-0.141,-0.983,0.122,2.2,9.0,-14.1,3,5
18587.5,-0.149,-0.966,0.13,-0.7,11.29,-10.99,3,5
18587.515,-0.157,-0.97,0.146,-3.88,12.15,-7.9,3,5
18587.531,-0.163,-0.982,0.171,-4.76,11.87,-4.73,3,5
18587.531,-0.169,-0.992,0.181,0.7,7.63,0.06,3,5
18587.546,-0.162,-0.98,0.187,2.66,5.68,-0.15,3,5
18587.562,-0.173,-0.971,0.2,3.6,3.11,-0.85,3,5
18587.562,-0.204,-0.973,0.192,1.68,-0.52,0.55,3,5
18587.578,-0.161,-0.978,0.138,-0.73,-2.62,2.53,3,5
18587.593,-0.128,-0.993,0.109,-2.08,-1.31,4.03,3,5
18587.593,-0.12,-0.998,0.107,-3.75,2.59,4.52,3,5
18587.609,-0.131,-0.991,0.126,-6.01,6.81,3.54,3,5
18587.609,-0.164,-1.002,0.167,-7.17,9.16,1.98,3,5
18587.625,-0.191,-1.008,0.192,-6.71,8.45,1.04,3,5
18587.64,-0.196,-1.007,0.21,-4.49,5.37,-0.24,3,5
18587.64,-0.197,-1.017,0.203,-0.4,1.68,-1.46,3,5
18587.656,-0.178,-1.012,0.18,1.98,-2.08,-2.72,3,5
18587.671,-0.141,-1.018,0.157,2.99,-4.27,-5.46,3,5
18587.687,-0.125,-1.023,0.147,4.67,-3.69,-8.51,3,5
18587.687,-0.138,-0.999,0.144,5.77,-1.92,-10.32,3,5
18587.703,-0.161,-0.984,0.131,4.91,-1.13,-10.77,3,5
18587.703,-0.171,-0.98,0.123,2.84,-0.4,-9.83,3,5
18587.718,-0.173,-0.968,0.111,1.01,1.19,-8.06,3,5
18587.734,-0.171,-0.965,0.109,-0.34,3.3,-5.77,3,5
18587.734,-0.171,-0.958,0.135,-0.79,5.55,-3.08,3,5
18587.75,-0.156,-0.952,0.159,-2.96,5.43,-0.12,3,5
18587.75,-0.15,-0.968,0.173,-5.52,4.3,1.98,3,5
18587.765,-0.162,-0.996,0.183,-6.32,3.02,2.5,3,5
18587.781,-0.18,-1.017,0.172,-5.07,0.85,1.22,3,5
18587.781,-0.162,-1.032,0.147,-3.36,-1.5,-0.76,3,5
18587.796,-0.128,-1.038,0.134,-1.4,-1.98,-3.23,3,5
18587.812,-0.118,-1.035,0.123,-0.06,-0.34,-5.83,3,5
18587.812,-0.126,-1.024,0.124,-0.85,1.98,-8.51,3,5
18587.828,-0.144,-1.021,0.136,-1.74,3.72,-11.44,3,5
18587.828,-0.158,-1.021,0.142,-1.16,4.06,-14.47,3,5
18587.843,-0.158,-1.015,0.144,0.43,3.57,-16.79,3,5
18587.859,-0.159,-1.005,0.141,2.08,3.33,-18.01,3,5
18587.859,-0.147,-1.0,0.141,2.5,2.59,-17.85,3,5
18587.875,-0.133,-1.007,0.143,2.29,2.08,-17.37,3,5
18587.89,-0.133,-1.017,0.15,1.07,2.04,-16.69,3,5
18587.89,-0.136,-1.029,0.156,-0.85,1.53,-16.91,3,5
18587.906,-0.132,-1.038,0.163,-1.07,0.7,-18.13,3,5
18587.921,-0.124,-1.037,0.165,0.7,0.15,-19.96,3,5
18587.921,-0.116,-1.03,0.163,3.45,-0.15,-22.83,3,5
18587.937,-0.104,-1.021,0.163,7.05,-0.37,-26.58,3,5
18587.953,-0.102,-1.016,0.158,11.38,-0.55,-30.7,3,5
18587.953,-0.1,-1.006,0.16,14.62,-1.19,-33.78,3,5
18587.968,-0.088,-0.987,0.16,15.93,-2.14,-35.49,3,5
18587.984,-0.087,-0.961,0.156,15.08,-2.56,-34.33,3,5
18587.984,-0.108,-0.945,0.155,11.17,-3.39,-30.0,3,5
18588.0,-0.103,-0.945,0.15,6.9,-5.19,-24.23,3,5
18588.0,-0.09,-0.937,0.138,3.45,-5.77,-18.28,3,5
18588.015,-0.091,-0.932,0.126,0.85,-4.76,-13.34,3,5
18588.031,-0.085,-0.933,0.125,-1.62,-3.57,-9.49,3,5
18588.031,-0.076,-0.935,0.128,-2.99,-2.59,-7.32,3,5
18588.046,-0.079,-0.942,0.135,-2.96,-1.31,-6.53,3,5
18588.062,-0.105,-0.954,0.145,-2.9,-0.64,-6.87,3,5
18588.062,-0.104,-0.969,0.153,-2.08,-2.08,-7.45,3,5
18588.078,-0.103,-0.978,0.144,-0.46,-3.3,-8.79,3,5
18588.093,-0.097,-0.984,0.132,1.01,-3.48,-10.44,3,5
18588.093,-0.076,-0.984,0.129,1.46,-3.6,-11.66,3,5
18588.109,-0.067,-0.974,0.123,1.77,-2.69,-12.24,3,5
18588.109,-0.084,-0.964,0.124,1.43,-1.13,-11.99,3,5
18588.125,-0.101,-0.964,0.13,0.12,-0.34,-10.93,3,5
18588.14,-0.114,-0.961,0.131,-0.79,-0.21,-10.19,3,5
18588.14,-0.111,-0.969,0.133,-0.21,-0.4,-8.97,3,5
18588.156,-0.091,-0.971,0.134,0.55,-0.46,-5.86,3,5
18588.171,-0.075,-0.975,0.129,0.43,0.49,-2.11,3,5
18588.187,-0.073,-0.986,0.138,-1.53,2.08,1.04,3,5
18588.187,-0.082,-1.006,0.155,-3.69,3.33,2.38,3,5
18588.203,-0.099,-1.018,0.157,-4.18,3.81,2.41,3,5
18588.203,-0.109,-1.027,0.163,-3.11,3.6,1.74,3,5
18588.218,-0.094,-1.032,0.159,-0.31,2.41,1.98,3,5
18588.234,-0.078,-1.036,0.15,2.93,2.17,4.7,3,5
18588.234,-0.08,-1.062,0.152,5.68,2.93,8.36,3,5
18588.25,-0.083,-1.072,0.156,10.65,4.09,11.05,3,5
18588.25,-0.09,-1.049,0.133,16.02,5.13,11.63,3,5
18588.265,-0.085,-1.027,0.12,16.97,5.83,9.64,3,5
18588.281,-0.08,-1.008,0.142,14.16,6.47,6.74,3,5
18588.281,-0.075,-0.989,0.187,9.86,6.38,4.91,3,5
18588.296,-0.09,-0.984,0.219,7.63,5.83,4.39,3,5
18588.312,-0.152,-0.984,0.238,6.04,3.3,6.01,3,5
18588.312,-0.212,-1.011,0.225,1.95,-2.93,9.86,3,5
18588.328,-0.194,-1.042,0.191,-2.99,-11.05,13.4,3,5
18588.343,-0.143,-1.052,0.148,-5.65,-16.42,14.19,3,5
18588.343,-0.083,-1.074,0.11,-5.22,-17.06,11.99,3,5
18588.359,-0.028,-1.082,0.094,-2.93,-13.4,7.11,3,5
18588.375,0.002,-1.062,0.108,0.7,-7.05,-0.55,3,5
18588.375,0.007,-1.037,0.153,4.27,-1.43,-10.22,3,5
18588.39,0.0,-0.977,0.186,8.15,0.95,-20.81,3,5
18588.39,0.002,-0.872,0.216,13.67,0.43,-32.38,3,5
18588.406,-0.024,-0.805,0.276,19.1,-2.29,-40.28,3,5
18588.421,-0.111,-0.771,0.305,21.94,-7.51,-40.86,3,5
18588.421,-0.165,-0.745,0.287,22.49,-16.27,-33.05,3,5
18588.437,-0.181,-0.738,0.238,21.21,-25.73,-17.3,3,5
18588.453,-0.151,-0.767,0.159,16.54,-32.65,2.04,3,5
18588.453,-0.065,-0.797,0.088,9.25,-35.25,18.04,3,5
18588.468,0.008,-0.829,0.052,2.96,-32.04,27.65,3,5
18588.484,0.044,-0.888,0.054,-0.31,-24.48,31.8,3,5
18588.484,0.016,-0.938,0.064,-0.61,-15.75,33.63,3,5
18588.5,-0.042,-0.978,0.093,0.21,-8.33,35.22,3,5
18588.5,-0.099,-1.018,0.156,-0.79,-3.88,37.26,3,5
18588.515,-0.166,-1.061,0.253,0.18,-4.03,38.51,3,5
18588.531,-0.186,-1.119,0.324,18.43,-18.83,42.51,3,5
18588.531,-0.174,-1.134,0.378,30.3,-28.23,43.4,3,5
18588.546,-0.12,-1.166,0.353,35.25,-34.82,41.38,3,5
18588.562,-0.009,-1.113,0.216,32.56,-36.35,33.05,3,5
18588.562,-0.012,-1.09,0.172,23.9,-34.64,18.98,3,5
18588.578,-0.04,-1.082,0.153,13.67,-30.95,4.21,3,5
18588.593,-0.053,-1.08,0.146,6.56,-26.0,-6.32,3,5
18588.593,-0.049,-1.065,0.142,4.61,-18.92,-10.9,3,5
18588.609,-0.067,-1.042,0.141,4.27,-10.5,-11.23,3,5
18588.609,-0.087,-1.012,0.151,0.64,-3.27,-10.16,3,5
18588.625,-0.1,-1.003,0.179,-5.52,1.19,-10.28,3,5
18588.64,-0.14,-1.006,0.197,-9.28,3.02,-12.97,3,5
18588.64,-0.191,-1.002,0.221,-7.93,1.25,-16.72,3,5
18588.656,-0.181,-0.999,0.221,-1.43,-3.3,-17.73,3,5
18588.671,-0.132,-0.96,0.187,4.91,-5.68,-15.69,3,5
18588.671,-0.085,-0.917,0.142,5.46,-3.97,-12.85,3,5
18588.687,-0.05,-0.917,0.13,0.43,0.15,-11.11,3,5
18588.703,-0.04,-0.924,0.14,-4.27,5.4,-10.71,3,5
18588.703,-0.05,-0.918,0.153,-5.98,10.53,-11.6,3,5
18588.718,-0.076,-0.913,0.177,-5.49,13.95,-13.4,3,5
18588.734,-0.101,-0.917,0.198,-3.54,14.47,-15.05,3,5
18588.734,-0.1,-0.913,0.208,-1.95,12.67,-15.05,3,5
18588.75,-0.075,-0.91,0.214,-1.28,10.25,-14.28,3,5
18588.765,-0.053,-0.915,0.223,-0.82,8.73,-13.7,3,5
18588.765,-0.05,-0.919,0.226,0.67,7.97,-13.49,3,5
18588.781,-0.059,-0.917,0.237,2.47,7.08,-12.76,3,5
18588.781,-0.067,-0.918,0.251,3.88,5.95,-10.65,3,5
18588.796,-0.068,-0.927,0.261,5.13,4.39,-7.45,3,5
18588.812,-0.067,-0.939,0.26,5.19,2.66,-2.87,3,5
18588.812,-0.081,-0.956,0.259,2.93,0.98,1.83,3,5
18588.828,-0.094,-0.986,0.268,-0.95,-1.8,4.94,3,5
18588.843,-0.106,-1.019,0.258,-2.11,-5.8,5.92,3,5
18588.843,-0.095,-1.046,0.236,-0.61,-9.61,4.97,3,5
18588.859,-0.065,-1.059,0.199,2.53,-11.54,1.65,3,5
18588.859,-0.048,-1.048,0.156,6.5,-10.59,-3.45,3,5
18588.875,-0.045,-1.029,0.132,9.31,-7.08,-8.91,3,5
18588.89,-0.053,-1.006,0.142,10.13,-2.47,-13.25,3,5
18588.906,-0.073,-0.98,0.156,9.46,1.53,-14.95,3,5
18588.906,-0.089,-0.957,0.178,7.42,4.33,-14.5,3,5
18588.921,-0.093,-0.95,0.198,6.01,5.89,-12.82,3,5
18588.921,-0.082,-0.944,0.213,5.37,6.56,-10.16,3,5
18588.937,-0.072,-0.935,0.224,4.94,7.02,-7.48,3,5
18588.953,-0.078,-0.936,0.24,4.52,7.2,-5.34,3,5
18588.968,-0.105,-0.94,0.27,4.27,6.1,-3.81,3,5
18588.968,-0.135,-0.949,0.264,4.12,2.41,-2.84,3,5
18588.984,-0.111,-0.962,0.235,3.48,-2.59,-1.89,3,5
18588.984,-0.066,-0.968,0.206,4.21,-4.58,-2.29,3,5
18589.0,-0.043,-0.963,0.164,6.53,-3.23,-4.27,3,5
18589.0,-0.028,-0.944,0.158,8.09,0.61,-5.92,3,5
18589.015,-0.038,-0.924,0.173,8.18,5.95,-5.83,3,5
18589.031,-0.06,-0.913,0.196,6.59,10.13,-3.97,3,5
18589.031,-0.086,-0.919,0.216,4.18,12.15,-0.64,3,5
18589.046,-0.105,-0.936,0.23,1.59,12.09,3.17,3,5
18589.062,-0.1,-0.953,0.247,-0.09,10.53,6.07,3,5
18589.062,-0.086,-0.968,0.259,0.49,9.06,7.11,3,5
18589.078,-0.078,-0.975,0.272,2.08,8.64,6.99,3,5
18589.093,-0.064,-0.974,0.285,3.6,8.09,5.89,3,5
18589.093,-0.067,-0.975,0.291,4.79,7.6,3.88,3,5
18589.109,-0.1,-0.981,0.272,5.58,6.56,1.43,3,5
18589.109,-0.113,-0.986,0.236,6.38,4.03,-1.34,3,5
18589.125,-0.097,-0.986,0.203,8.67,2.53,-4.21,3,5
