timestamp,ax,ay,az,gx,gy,gz,orient_label,motion_label
18506.453,-0.002,-0.885,0.542,-5.07,-4.24,4.33,3,5
18506.468,-0.009,-0.878,0.539,-4.15,-3.63,1.5,3,5
18506.468,-0.027,-0.872,0.53,-3.27,-2.69,-0.43,3,5
18506.484,-0.023,-0.859,0.525,-4.18,-2.99,-1.86,3,5
18506.5,-0.008,-0.852,0.528,-5.62,-3.02,-3.33,3,5
18506.5,-0.001,-0.854,0.531,-5.83,-1.95,-4.18,3,5
18506.515,0.003,-0.84,0.538,-4.18,-0.67,-4.67,3,5
18506.531,-0.007,-0.826,0.54,-1.86,0.46,-4.49,3,5
18506.531,-0.016,-0.808,0.544,-0.82,1.16,-3.14,3,5
18506.546,-0.021,-0.783,0.543,-1.22,1.46,-1.01,3,5
18506.546,-0.021,-0.774,0.542,-2.96,0.89,1.4,3,5
18506.562,-0.013,-0.77,0.541,-4.76,0.24,4.0,3,5
18506.578,-0.01,-0.777,0.544,-5.77,0.21,6.16,3,5
18506.593,-0.007,-0.789,0.549,-6.23,-0.4,8.0,3,5
18506.593,-0.012,-0.809,0.542,-6.23,-1.07,9.64,3,5
18506.609,-0.026,-0.837,0.531,-6.59,-1.22,10.56,3,5
18506.609,-0.024,-0.861,0.521,-6.2,-1.5,10.68,3,5
18506.64,0.001,-0.875,0.505,-3.23,0.46,8.12,3,5
18506.64,-0.003,-0.869,0.515,-2.72,2.2,4.94,3,5
18506.656,-0.01,-0.867,0.54,-1.59,2.72,1.83,3,5
18506.656,-0.017,-0.847,0.565,1.1,2.35,-0.4,3,5
18506.671,-0.028,-0.825,0.582,3.54,0.64,-1.59,3,5
18506.687,-0.035,-0.816,0.588,4.85,-2.53,-1.65,3,5
18506.687,-0.038,-0.81,0.581,5.74,-5.86,-0.7,3,5
18506.703,-0.03,-0.807,0.574,6.53,-8.91,0.73,3,5
18506.718,-0.004,-0.805,0.563,7.23,-11.23,2.11,3,5
18506.734,0.01,-0.801,0.559,7.84,-12.27,2.56,3,5
18506.734,0.016,-0.788,0.564,8.24,-12.88,2.32,3,5
18506.75,0.02,-0.775,0.583,8.64,-13.76,2.26,3,5
18506.75,0.018,-0.76,0.602,10.35,-14.77,3.48,3,5
18506.765,0.035,-0.734,0.639,11.75,-16.66,5.28,3,5
18506.781,0.052,-0.712,0.675,13.73,-19.41,7.2,3,5
18506.781,0.069,-0.675,0.732,16.45,-23.47,8.97,3,5
18506.812,0.102,-0.589,0.853,30.52,-48.28,15.02,3,5
18506.812,0.118,-0.543,0.913,36.26,-60.58,17.73,3,5
18506.828,0.124,-0.51,0.958,41.54,-74.19,20.84,3,5
18506.828,0.126,-0.459,1.005,46.3,-88.35,23.68,3,5
18506.843,0.128,-0.446,1.004,51.15,-101.78,26.0,3,5
18506.859,0.126,-0.433,0.998,56.31,-113.32,27.41,3,5
18506.859,0.123,-0.412,0.976,62.35,-122.81,28.35,3,5
18506.875,0.112,-0.357,0.926,69.77,-131.23,27.62,3,5
18506.89,0.123,-0.322,0.881,80.29,-138.98,26.98,3,5
18506.89,0.139,-0.282,0.839,90.55,-141.27,30.34,3,5
18506.906,0.146,-0.231,0.794,97.17,-137.52,37.2,3,5
18506.921,0.143,-0.203,0.78,98.88,-131.05,44.47,3,5
18506.921,0.108,-0.177,0.783,98.97,-122.9,51.79,3,5
18506.937,0.073,-0.164,0.791,99.03,-115.91,61.46,3,5
18506.937,0.05,-0.165,0.8,98.24,-110.78,71.35,3,5
18506.953,0.048,-0.183,0.806,97.96,-107.15,81.15,3,5
18506.968,0.054,-0.194,0.807,98.39,-104.16,90.21,3,5
18506.968,0.061,-0.208,0.804,99.37,-101.63,97.17,3,5
18506.984,0.058,-0.23,0.793,102.27,-98.67,101.44,3,5
18507.0,0.06,-0.257,0.775,107.3,-94.97,103.46,3,5
18507.0,0.064,-0.278,0.753,114.72,-89.72,104.16,3,5
18507.015,0.062,-0.293,0.729,124.06,-82.8,103.64,3,5
18507.031,0.046,-0.304,0.707,135.56,-73.79,101.69,3,5
18507.031,0.02,-0.313,0.69,149.36,-62.65,98.91,3,5
18507.046,-0.019,-0.307,0.674,162.91,-50.39,96.65,3,5
18507.062,-0.054,-0.281,0.673,173.28,-40.83,96.35,3,5
18507.062,-0.056,-0.252,0.689,179.66,-36.04,98.48,3,5
18507.078,-0.042,-0.249,0.693,185.03,-34.06,102.88,3,5
18507.078,-0.03,-0.267,0.674,189.79,-32.96,108.65,3,5
18507.093,-0.009,-0.271,0.646,192.42,-30.98,114.84,3,5
18507.109,0.011,-0.27,0.621,192.36,-27.83,119.45,3,5
18507.109,0.006,-0.274,0.604,191.14,-23.47,121.68,3,5
18507.14,-0.027,-0.277,0.578,192.91,-12.82,121.25,3,5
18507.14,-0.051,-0.264,0.569,194.83,-7.39,118.59,3,5
18507.156,-0.073,-0.261,0.561,198.43,-3.3,114.32,3,5
18507.171,-0.105,-0.258,0.555,203.65,-0.37,109.62,3,5
18507.171,-0.129,-0.242,0.544,207.4,1.04,105.41,3,5
18507.187,-0.116,-0.227,0.547,206.95,-0.27,103.09,3,5
18507.187,-0.108,-0.225,0.559,202.95,-2.26,103.43,3,5
18507.203,-0.129,-0.214,0.569,195.93,-2.69,105.87,3,5
18507.218,-0.141,-0.193,0.567,184.85,-2.17,107.52,3,5
18507.234,-0.117,-0.192,0.566,170.69,-1.22,105.66,3,5
18507.234,-0.107,-0.191,0.575,156.35,3.54,100.62,3,5
18507.25,-0.114,-0.176,0.605,142.28,9.25,93.05,3,5
18507.25,-0.13,-0.154,0.662,130.89,11.99,83.35,3,5
18507.265,-0.133,-0.126,0.731,126.01,14.04,72.7,3,5
18507.281,-0.114,-0.059,0.818,127.6,18.16,61.49,3,5
18507.281,-0.107,0.04,0.925,134.68,25.27,48.25,3,5
18507.296,-0.135,0.112,1.024,146.15,32.62,34.61,3,5
18507.312,-0.165,0.177,1.111,158.94,38.82,24.29,3,5
18507.312,-0.186,0.245,1.188,170.84,43.0,19.29,3,5
18507.328,-0.225,0.303,1.236,179.6,44.65,18.52,3,5
18507.328,-0.311,0.36,1.26,181.62,43.67,20.14,3,5
18507.343,-0.405,0.421,1.275,175.51,40.07,22.1,3,5
18507.359,-0.429,0.453,1.284,161.93,34.85,24.51,3,5
18507.375,-0.409,0.464,1.287,142.31,32.75,29.18,3,5
18507.375,-0.389,0.483,1.301,120.18,35.34,36.07,3,5
18507.39,-0.367,0.5,1.34,97.84,39.8,44.31,3,5
18507.39,-0.361,0.5,1.399,76.45,42.18,54.38,3,5
18507.406,-0.411,0.533,1.472,57.92,42.97,65.86,3,5
18507.421,-0.457,0.528,1.528,41.9,40.89,78.19,3,5
18507.421,-0.469,0.495,1.566,24.66,34.21,90.76,3,5
18507.437,-0.453,0.471,1.587,5.43,24.57,100.99,3,5
18507.453,-0.406,0.422,1.577,-13.03,13.7,107.27,3,5
18507.453,-0.356,0.339,1.545,-28.53,4.36,110.08,3,5
18507.468,-0.304,0.256,1.512,-41.75,-2.59,110.39,3,5
18507.484,-0.266,0.202,1.474,-51.0,-7.63,108.55,3,5
18507.484,-0.261,0.167,1.437,-55.15,-11.54,103.61,3,5
18507.5,-0.243,0.124,1.401,-55.91,-17.27,95.03,3,5
18507.5,-0.184,0.092,1.39,-52.0,-24.51,84.26,3,5
18507.515,-0.169,0.076,1.384,-41.72,-30.58,71.5,3,5
18507.531,-0.155,0.113,1.382,-37.57,-42.02,56.46,3,5
18507.531,-0.093,0.164,1.361,-40.22,-55.82,42.21,3,5
18507.546,-0.089,0.185,1.331,-43.95,-65.22,29.88,3,5
18507.562,-0.089,0.23,1.316,-54.48,-73.67,20.2,3,5
18507.562,-0.019,0.248,1.298,-62.11,-80.97,14.4,3,5
18507.578,0.054,0.248,1.252,-55.12,-79.23,14.53,3,5
18507.593,0.097,0.284,1.2,-37.35,-67.87,19.1,3,5
18507.593,0.118,0.351,1.166,-21.94,-51.18,25.7,3,5
18507.609,0.099,0.399,1.148,-16.75,-36.44,33.39,3,5
18507.609,0.063,0.43,1.15,-25.12,-26.89,42.54,3,5
18507.64,0.078,0.311,1.161,-43.21,-21.88,57.92,3,5
18507.64,0.111,0.262,1.144,-37.35,-19.2,64.7,3,5
18507.656,0.154,0.225,1.092,-24.9,-15.38,67.11,3,5
18507.671,0.205,0.213,1.015,-9.06,-8.24,66.19,3,5
18507.671,0.222,0.224,0.944,8.76,4.58,63.84,3,5
18507.687,0.193,0.244,0.902,21.09,18.89,58.41,3,5
18507.687,0.136,0.284,0.902,22.64,29.33,51.36,3,5
18507.703,0.038,0.341,1.057,14.56,32.17,46.42,3,5
18507.718,-0.059,0.371,1.269,9.77,17.18,46.36,3,5
18507.734,0.045,0.395,1.249,4.36,-7.2,57.19,3,5
18507.734,0.151,0.378,1.151,-2.38,-23.04,66.41,3,5
18507.75,0.211,0.331,1.046,-8.97,-27.01,71.26,3,5
18507.75,0.249,0.291,1.016,-12.54,-22.4,74.25,3,5
18507.765,0.232,0.239,1.026,-8.55,-14.89,74.43,3,5
18507.781,0.217,0.205,1.05,-3.17,-10.28,71.38,3,5
18507.781,0.218,0.203,1.077,8.73,-8.27,58.38,3,5
18507.796,0.221,0.227,1.037,24.38,-10.62,47.64,3,5
18507.812,0.221,0.274,0.971,30.7,-7.6,45.59,3,5
18507.828,0.265,0.306,1.03,36.16,-6.16,44.65,3,5
18507.828,0.196,0.331,0.87,38.06,-3.57,40.19,3,5
18507.843,0.298,0.298,0.913,21.82,2.26,45.01,3,5
18507.859,0.256,0.306,0.952,16.97,10.8,47.12,3,5
18507.875,0.274,0.271,0.968,16.63,17.46,53.9,3,5
18507.875,0.242,0.289,0.991,17.55,22.03,56.7,3,5
18507.89,0.202,0.274,1.008,18.65,20.45,54.87,3,5
18507.89,0.175,0.263,0.994,21.0,14.8,51.85,3,5
18507.906,0.195,0.255,0.919,28.35,9.55,49.1,3,5
18507.921,0.198,0.246,0.854,34.94,9.64,44.22,3,5
18507.921,0.204,0.298,0.791,38.64,12.63,39.25,3,5
18507.937,0.199,0.441,0.762,35.13,19.26,38.03,3,5
18507.953,0.188,0.509,0.836,28.6,26.49,38.73,3,5
18507.953,0.158,0.481,0.9,23.9,29.21,40.28,3,5
18507.968,0.153,0.444,0.947,21.09,22.95,45.26,3,5
18507.984,0.168,0.39,0.941,18.46,17.21,43.12,3,5
18508.0,0.18,0.316,0.903,23.29,14.68,39.83,3,5
18508.0,0.179,0.299,0.88,35.13,16.51,36.53,3,5
18508.015,0.163,0.352,0.856,47.82,19.99,35.52,3,5
18508.031,0.151,0.4,0.841,49.75,21.15,36.16,3,5
18508.031,0.168,0.413,0.842,38.94,19.68,35.77,3,5
18508.046,0.186,0.403,0.854,25.91,18.25,34.73,3,5
18508.046,0.203,0.373,0.858,18.25,18.34,34.49,3,5
18508.062,0.228,0.36,0.87,14.77,20.75,35.58,3,5
18508.078,0.22,0.34,0.894,11.78,22.68,34.49,3,5
18508.078,0.245,0.3,0.916,9.61,22.71,30.4,3,5
18508.093,0.25,0.277,0.913,12.02,23.38,23.83,3,5
18508.109,0.265,0.285,0.921,16.48,25.15,16.75,3,5
18508.109,0.255,0.314,0.924,19.84,27.44,8.97,3,5
18508.125,0.204,0.344,0.949,21.09,28.96,2.17,3,5
18508.14,0.144,0.375,0.986,19.75,19.47,-3.08,3,5
18508.156,0.144,0.392,0.956,15.05,10.83,-3.72,3,5
18508.156,0.158,0.389,0.923,8.36,3.42,-4.27,3,5
18508.171,0.166,0.356,0.902,4.7,-0.79,-4.94,3,5
18508.187,0.174,0.327,0.87,6.2,-1.71,-4.7,3,5
18508.187,0.195,0.31,0.845,8.27,-0.4,-5.4,3,5
18508.203,0.212,0.317,0.849,10.35,3.6,-8.18,3,5
18508.218,0.207,0.338,0.856,12.63,8.58,-10.53,3,5
18508.218,0.193,0.377,0.873,10.83,12.48,-11.99,3,5
18508.234,0.174,0.406,0.902,8.48,14.8,-11.32,3,5
18508.25,0.146,0.424,0.922,6.1,14.86,-9.22,3,5
18508.25,0.143,0.422,0.931,4.36,12.63,-7.17,3,5
18508.265,0.147,0.414,0.933,3.78,10.38,-5.52,3,5
18508.281,0.14,0.413,0.93,4.97,9.49,-4.03,3,5
18508.281,0.129,0.414,0.929,6.99,8.73,-1.8,3,5
18508.296,0.114,0.405,0.913,5.92,6.41,-0.31,3,5
18508.312,0.099,0.372,0.897,-1.86,0.12,-4.09,3,5
18508.328,0.098,0.354,0.896,-3.17,-3.3,-6.9,3,5
18508.328,0.12,0.359,0.893,-4.3,-5.55,-10.25,3,5
18508.343,0.109,0.378,0.903,-4.46,-5.43,-13.25,3,5
18508.359,0.102,0.384,0.91,-3.23,-5.37,-12.67,3,5
18508.359,0.102,0.399,0.922,-3.2,-5.46,-9.95,3,5
18508.375,0.094,0.403,0.932,-4.03,-6.23,-6.56,3,5
18508.39,0.097,0.391,0.935,-6.32,-7.87,-2.81,3,5
18508.39,0.118,0.369,0.928,-8.33,-8.76,0.0,3,5
18508.406,0.137,0.338,0.92,-8.21,-8.06,1.01,3,5
18508.421,0.142,0.326,0.914,-6.35,-5.98,0.12,3,5
18508.421,0.156,0.321,0.915,-4.12,-3.66,-2.01,3,5
18508.437,0.16,0.33,0.913,-3.11,-1.25,-5.31,3,5
18508.437,0.153,0.349,0.911,-1.8,1.01,-7.66,3,5
18508.453,0.147,0.361,0.907,-0.03,2.26,-8.67,3,5
18508.468,0.15,0.377,0.9,0.12,2.87,-9.52,3,5
18508.484,0.118,0.423,0.911,-1.77,3.88,-8.91,3,5
18508.5,0.105,0.418,0.913,-3.81,1.98,-6.23,3,5
18508.5,0.101,0.406,0.918,-6.23,-0.12,-3.23,3,5
18508.515,0.104,0.392,0.918,-8.06,-2.01,0.27,3,5
18508.531,0.124,0.367,0.923,-9.55,-3.81,2.9,3,5
18508.531,0.139,0.336,0.937,-9.64,-5.13,3.69,3,5
18508.546,0.153,0.332,0.954,-7.45,-6.23,3.66,3,5
18508.546,0.169,0.328,0.945,-4.39,-7.69,2.93,3,5
18508.562,0.193,0.326,0.928,-2.23,-8.09,0.89,3,5
18508.578,0.183,0.348,0.923,0.0,-6.23,-2.14,3,5
18508.578,0.149,0.37,0.909,1.83,-4.55,-4.06,3,5
18508.593,0.132,0.381,0.883,1.25,-4.49,-3.97,3,5
18508.609,0.137,0.396,0.873,-1.34,-4.3,-2.96,3,5
18508.609,0.132,0.407,0.881,-4.55,-3.39,-1.62,3,5
18508.625,0.127,0.407,0.888,-8.0,-2.62,0.49,3,5
18508.64,0.135,0.389,0.894,-12.42,-2.17,2.08,3,5
18508.64,0.152,0.382,0.929,-17.49,-1.65,2.08,3,5
18508.656,0.156,0.374,0.956,-20.48,-1.34,1.31,3,5
18508.656,0.218,0.334,0.945,-22.06,-2.9,-0.92,3,5
18508.671,0.259,0.314,1.002,-21.3,-2.35,-7.81,3,5
18508.687,0.233,0.288,1.079,-14.07,-0.98,-13.67,3,5
18508.703,0.22,0.283,1.054,-1.71,-4.43,-15.63,3,5
18508.703,0.241,0.289,0.972,5.37,-8.21,-17.88,3,5
18508.718,0.225,0.322,0.933,10.04,-6.01,-18.43,3,5
18508.718,0.178,0.392,0.902,14.47,0.06,-12.09,3,5
18508.734,0.098,0.456,0.869,12.67,6.32,-1.62,3,5
18508.75,-0.007,0.499,0.842,0.06,10.1,11.23,3,5
18508.75,-0.093,0.52,0.846,-18.19,7.54,25.3,3,5
18508.765,-0.108,0.42,0.798,-33.63,-23.04,38.64,3,5
18508.781,-0.1,0.234,0.791,-17.91,-34.18,33.72,3,5
18508.781,-0.005,0.101,0.788,-0.03,-36.23,27.22,3,5
18508.796,0.07,0.171,0.915,7.29,-36.56,25.91,3,5
18508.796,0.243,0.407,1.132,2.75,-38.79,28.75,3,5
18508.812,0.237,0.42,1.181,-4.64,-41.75,31.25,3,5
18508.828,0.237,0.36,1.078,-0.58,-49.13,30.88,3,5
18508.843,0.234,0.257,0.882,-3.39,-56.58,20.97,3,5
18508.843,0.24,0.232,0.807,-11.47,-57.62,7.26,3,5
18508.859,0.251,0.244,0.785,-17.06,-54.32,-0.37,3,5
18508.859,0.31,0.268,0.772,-19.26,-48.59,-3.91,3,5
18508.875,0.401,0.284,0.76,-19.23,-38.03,-7.57,3,5
18508.89,0.461,0.306,0.767,-17.52,-19.68,-12.12,3,5
18508.89,0.408,0.317,0.801,-12.82,0.12,-17.61,3,5
18508.906,0.327,0.321,0.825,-7.39,12.21,-21.0,3,5
18508.921,0.274,0.329,0.875,-5.25,17.24,-22.03,3,5
18508.921,0.241,0.353,0.939,-5.49,17.82,-21.7,3,5
18508.937,0.146,0.391,1.111,-7.42,11.63,-20.33,3,5
18508.937,0.157,0.34,1.179,0.09,-4.7,-13.28,3,5
18508.953,0.193,0.32,0.981,4.52,-16.33,-10.8,3,5
18508.968,0.135,0.357,0.857,3.63,-15.44,-9.7,3,5
18508.968,0.143,0.341,0.842,1.16,-11.63,-2.53,3,5
18509.0,0.183,0.36,0.917,-8.12,-7.81,9.25,3,5
18509.0,0.217,0.359,0.931,-12.24,-9.13,13.25,3,5
18509.015,0.231,0.335,0.925,-14.77,-10.86,14.68,3,5
18509.031,0.24,0.302,0.915,-16.39,-12.02,14.62,3,5
18509.031,0.239,0.283,0.917,-15.84,-12.24,13.76,3,5
18509.046,0.239,0.289,0.924,-14.74,-12.42,13.89,3,5
18509.046,0.227,0.303,0.953,-13.61,-13.37,14.44,3,5
18509.062,0.217,0.318,0.945,-11.84,-15.63,15.9,3,5
18509.078,0.211,0.352,0.921,-12.73,-18.8,17.98,3,5
18509.078,0.225,0.364,0.882,-16.14,-20.54,20.78,3,5
18509.093,0.253,0.369,0.853,-20.2,-19.2,24.48,3,5
18509.109,0.281,0.357,0.85,-22.77,-15.2,28.66,3,5
18509.125,0.305,0.304,0.842,-24.02,-9.83,31.8,3,5
18509.125,0.344,0.244,0.847,-26.03,-3.23,31.86,3,5
18509.14,0.365,0.166,0.901,-24.99,2.96,28.11,3,5
18509.14,0.354,0.107,0.939,-18.46,6.71,21.09,3,5
18509.171,0.323,0.135,0.967,-3.05,9.16,5.98,3,5
18509.171,0.301,0.155,0.978,0.67,8.82,-1.98,3,5
18509.187,0.263,0.19,0.998,4.64,7.08,-7.78,3,5
18509.187,0.228,0.221,0.98,9.49,3.94,-9.74,3,5
18509.203,0.227,0.249,0.931,10.71,1.19,-9.52,3,5
18509.218,0.224,0.284,0.908,7.72,0.31,-8.48,3,5
18509.218,0.237,0.303,0.907,4.67,0.61,-5.83,3,5
18509.234,0.247,0.315,0.918,1.65,1.71,-2.81,3,5
18509.25,0.261,0.307,0.915,-0.76,2.35,-0.64,3,5
18509.25,0.276,0.281,0.905,-3.91,2.53,-0.43,3,5
18509.265,0.29,0.26,0.904,-7.87,2.08,-2.78,3,5
18509.281,0.298,0.247,0.921,-9.0,2.17,-5.55,3,5
18509.281,0.277,0.245,0.95,-6.65,2.47,-7.17,3,5
18509.296,0.251,0.258,0.978,-3.23,0.61,-7.05,3,5
18509.312,0.247,0.252,0.963,-1.13,-3.11,-5.55,3,5
18509.312,0.255,0.241,0.932,-0.85,-5.74,-5.25,3,5
18509.328,0.259,0.245,0.912,-0.73,-5.95,-5.68,3,5
18509.328,0.261,0.258,0.913,-0.52,-4.94,-5.46,3,5
18509.343,0.267,0.27,0.919,-0.49,-4.0,-4.85,3,5
18509.359,0.25,0.282,0.935,-0.24,-2.96,-4.55,3,5
18509.359,0.229,0.286,0.929,-1.16,-3.08,-3.6,3,5
18509.375,0.224,0.297,0.927,-3.88,-4.0,-1.59,3,5
18509.39,0.235,0.314,0.936,-6.62,-4.7,1.5,3,5
18509.39,0.247,0.292,0.928,-8.61,-5.28,4.03,3,5
18509.406,0.27,0.257,0.942,-10.25,-6.13,5.16,3,5
18509.406,0.29,0.229,0.975,-10.04,-7.17,4.12,3,5
18509.421,0.288,0.207,0.984,-7.2,-8.76,1.22,3,5
18509.437,0.271,0.202,0.926,-4.76,-10.59,-1.13,3,5
18509.453,0.314,0.182,0.884,-6.35,-11.29,-3.72,3,5
18509.453,0.406,0.173,0.966,-7.63,-8.48,-8.91,3,5
18509.468,0.393,0.179,0.987,-2.81,-3.81,-17.43,3,5
18509.468,0.389,0.143,0.959,5.01,0.98,-24.87,3,5
18509.484,0.32,0.182,0.987,15.17,6.26,-30.0,3,5
18509.5,0.266,0.204,0.937,25.3,7.81,-28.81,3,5
18509.5,0.217,0.272,0.876,26.15,8.55,-27.59,3,5
18509.515,0.136,0.352,0.864,22.03,10.47,-23.5,3,5
18509.531,0.041,0.396,0.815,21.0,11.93,-13.7,3,5
18509.531,0.001,0.476,0.807,15.81,11.84,2.17,3,5
18509.546,0.031,0.508,0.887,6.5,7.63,19.71,3,5
18509.546,0.092,0.443,0.977,-6.84,-4.61,33.85,3,5
18509.562,0.235,0.305,0.937,-20.72,-19.53,41.11,3,5
18509.578,0.357,0.218,1.009,-28.87,-23.56,36.84,3,5
18509.578,0.275,0.185,1.134,-19.07,-22.92,29.97,3,5
18509.593,0.215,0.219,1.129,-4.09,-32.29,30.3,3,5
18509.609,0.26,0.264,1.01,4.76,-46.63,34.33,3,5
18509.609,0.282,0.232,0.836,-2.38,-55.15,33.23,3,5
18509.625,0.304,0.194,0.805,-11.35,-54.41,28.72,3,5
18509.64,0.339,0.241,0.773,-7.69,-46.08,29.88,3,5
18509.64,0.415,0.301,0.748,-7.45,-35.55,34.52,3,5
18509.656,0.475,0.277,0.805,-13.67,-24.45,34.88,3,5
18509.656,0.486,0.243,0.832,-15.96,-14.34,30.18,3,5
18509.671,0.447,0.224,0.815,-14.71,-5.58,24.81,3,5
18509.687,0.405,0.162,0.835,-14.22,0.89,18.43,3,5
18509.687,0.368,0.154,0.867,-15.87,5.01,10.01,3,5
18509.703,0.346,0.171,0.913,-19.17,6.53,2.23,3,5
18509.718,0.341,0.15,0.945,-21.18,7.26,-2.56,3,5
18509.718,0.337,0.129,0.962,-18.04,7.17,-7.69,3,5
18509.734,0.343,0.126,0.967,-13.12,6.26,-12.39,3,5
18509.75,0.351,0.12,0.999,-6.04,6.29,-17.03,3,5
18509.75,0.332,0.132,1.0,14.04,4.46,-22.68,3,5
18509.765,0.313,0.159,0.951,16.45,4.7,-24.35,3,5
18509.781,0.312,0.18,0.887,15.35,8.73,-26.06,3,5
18509.781,0.328,0.188,0.87,14.92,15.23,-29.6,3,5
18509.796,0.318,0.228,0.901,19.01,18.56,-29.54,3,5
18509.812,0.295,0.284,0.923,19.68,19.38,-28.17,3,5
18509.812,0.274,0.322,0.96,16.14,16.42,-25.67,3,5
18509.828,0.253,0.344,0.964,10.68,10.71,-21.36,3,5
18509.843,0.242,0.354,0.907,0.52,2.47,-9.8,3,5
18509.859,0.245,0.326,0.911,-4.39,0.89,-4.52,3,5
18509.859,0.256,0.291,0.93,-7.45,-0.37,0.15,3,5
18509.875,0.272,0.25,0.929,-7.48,-1.19,2.59,3,5
18509.89,0.285,0.219,0.926,-6.32,-1.07,3.05,3,5
18509.89,0.291,0.195,0.93,-3.63,-0.18,1.92,3,5
18509.906,0.295,0.204,0.938,0.21,0.73,0.52,3,5
18509.906,0.308,0.218,0.936,3.75,1.1,-0.34,3,5
18509.921,0.31,0.23,0.923,6.23,1.43,-1.37,3,5
18509.937,0.304,0.243,0.918,7.23,1.68,-2.53,3,5
18509.937,0.3,0.252,0.908,7.48,1.71,-3.2,3,5
18509.953,0.304,0.272,0.912,6.87,1.95,-3.23,3,5
18509.968,0.3,0.293,0.933,4.67,2.2,-1.83,3,5
18509.968,0.282,0.284,0.931,3.17,1.83,-0.95,3,5
18509.984,0.256,0.259,0.904,2.01,0.85,0.24,3,5
18510.0,0.265,0.248,0.916,0.27,-0.4,1.83,3,5
18510.0,0.296,0.257,0.947,-0.55,-1.16,3.88,3,5
18510.015,0.308,0.244,0.939,-0.24,-1.22,4.39,3,5
18510.031,0.288,0.212,0.917,0.7,-0.92,2.56,3,5
18510.031,0.262,0.209,0.928,2.11,-0.7,1.19,3,5
18510.046,0.25,0.267,0.974,2.87,-1.86,1.83,3,5
18510.062,0.215,0.311,0.983,3.63,-5.55,3.69,3,5
18510.062,0.213,0.296,0.947,0.12,-10.93,6.47,3,5
18510.078,0.194,0.266,1.167,-2.56,-20.75,7.9,3,5
18510.078,0.226,0.25,1.048,5.95,-37.57,12.24,3,5
18510.093,0.314,0.276,0.859,-1.46,-46.94,13.21,3,5
18510.109,0.347,0.198,0.819,-6.32,-43.21,9.77,3,5
18510.109,0.394,0.132,0.813,-0.06,-33.81,9.06,3,5
18510.125,0.423,0.153,0.956,10.56,-22.46,6.71,3,5
18510.14,0.388,0.211,0.954,31.04,-16.82,3.33,3,5
18510.14,0.4,0.28,0.829,29.85,-19.04,0.46,3,5
18510.156,0.408,0.226,0.864,22.68,-14.89,-3.94,3,5
18510.156,0.384,0.193,0.88,31.13,-8.64,-6.96,3,5
18510.171,0.374,0.234,0.878,38.45,-4.7,-8.51,3,5
18510.187,0.351,0.283,0.882,38.45,-3.14,-10.56,3,5
18510.187,0.328,0.32,0.901,34.88,-4.52,-11.9,3,5
18510.203,0.318,0.343,0.94,31.28,-7.35,-11.26,3,5
18510.218,0.301,0.347,0.968,33.27,-11.26,-9.52,3,5
18510.218,0.303,0.364,0.975,39.89,-16.02,-5.89,3,5
18510.234,0.286,0.376,0.929,48.52,-19.44,-1.65,3,5
18510.25,0.307,0.402,0.844,49.07,-22.25,3.94,3,5
18510.25,0.326,0.412,0.782,36.96,-21.91,8.48,3,5
18510.265,0.328,0.359,0.779,24.54,-17.88,11.26,3,5
18510.281,0.333,0.352,0.817,18.22,-15.23,13.31,3,5
18510.281,0.347,0.378,0.852,13.64,-14.34,15.99,3,5
18510.296,0.369,0.373,0.898,9.98,-15.81,17.4,3,5
18510.312,0.362,0.355,0.892,8.21,-18.71,16.75,3,5
18510.312,0.371,0.32,0.856,7.35,-20.2,16.69,3,5
18510.328,0.394,0.286,0.82,7.93,-19.81,16.11,3,5
18510.343,0.429,0.278,0.81,9.34,-15.93,15.14,3,5
18510.343,0.42,0.257,0.834,12.7,-9.89,11.54,3,5
18510.359,0.399,0.271,0.841,16.85,-4.94,8.3,3,5
18510.359,0.375,0.279,0.788,19.23,-1.71,6.23,3,5
18510.375,0.407,0.295,0.761,10.35,-1.43,3.94,3,5
18510.39,0.435,0.287,0.759,-4.33,0.95,-1.31,3,5
18510.406,0.43,0.252,0.783,-12.7,5.43,-8.94,3,5
18510.406,0.414,0.279,0.817,-11.11,8.94,-15.02,3,5
18510.421,0.417,0.336,0.873,-8.67,10.62,-17.88,3,5
18510.421,0.385,0.389,0.933,-7.78,9.67,-19.29,3,5
18510.437,0.328,0.407,0.957,-4.18,5.95,-18.13,3,5
18510.453,0.278,0.39,0.957,0.15,-0.98,-14.31,3,5
18510.453,0.303,0.381,0.897,-0.85,-9.13,-9.16,3,5
18510.468,0.35,0.358,0.84,-8.06,-13.4,-7.69,3,5
18510.468,0.35,0.305,0.818,-15.23,-13.49,-10.13,3,5
18510.484,0.357,0.284,0.808,-19.96,-12.85,-11.32,3,5
18510.5,0.399,0.31,0.79,-23.96,-11.11,-11.51,3,5
18510.5,0.423,0.315,0.792,-28.63,-6.96,-13.7,3,5
18510.515,0.424,0.291,0.854,-31.59,-2.9,-18.01,3,5
18510.531,0.383,0.314,0.936,-26.12,-0.95,-21.58,3,5
18510.531,0.347,0.337,0.975,-14.8,-2.66,-19.75,3,5
18510.546,0.372,0.308,0.932,-8.21,-6.5,-17.61,3,5
18510.546,0.36,0.284,0.887,-8.58,-8.18,-20.57,3,5
18510.562,0.376,0.258,0.866,-8.36,-8.58,-22.98,3,5
18510.578,0.384,0.262,0.863,-4.97,-7.35,-24.69,3,5
18510.578,0.388,0.296,0.868,-1.34,-5.8,-25.54,3,5
18510.593,0.378,0.318,0.877,-0.4,-5.71,-27.41,3,5
18510.609,0.368,0.329,0.871,-1.71,-6.74,-28.84,3,5
18510.609,0.366,0.331,0.857,-3.51,-8.09,-28.99,3,5
18510.625,0.36,0.338,0.849,-4.3,-7.93,-27.74,3,5
18510.64,0.353,0.36,0.87,-4.06,-6.81,-24.78,3,5
18510.64,0.342,0.371,0.874,-2.2,-6.29,-21.24,3,5
18510.656,0.336,0.371,0.85,-1.56,-5.55,-17.58,3,5
18510.671,0.342,0.362,0.841,-3.85,-5.16,-14.8,3,5
18510.671,0.353,0.357,0.842,-6.71,-4.46,-13.03,3,5
18510.687,0.362,0.346,0.857,-7.84,-3.08,-11.38,3,5
18510.687,0.359,0.341,0.875,-5.65,-1.28,-9.64,3,5
18510.703,0.355,0.34,0.884,-2.44,-0.64,-8.12,3,5
18510.718,0.355,0.332,0.888,0.27,-0.76,-7.05,3,5
18510.734,0.35,0.328,0.891,2.87,-1.31,-6.2,3,5
18510.734,0.35,0.324,0.874,5.28,-2.44,-4.49,3,5
18510.75,0.357,0.324,0.863,3.63,-2.81,-4.61,3,5
18510.75,0.362,0.331,0.857,1.8,-2.99,-4.73,3,5
18510.765,0.37,0.34,0.86,1.31,-2.69,-4.94,3,5
18510.781,0.37,0.334,0.849,0.64,-1.98,-4.64,3,5
18510.781,0.365,0.332,0.85,-0.85,-1.04,-4.21,3,5
18510.796,0.363,0.337,0.862,-1.1,-0.15,-3.57,3,5
18510.812,0.357,0.331,0.878,-0.64,0.21,-3.2,3,5
18510.812,0.356,0.328,0.887,-0.37,-0.21,-2.78,3,5
18510.828,0.351,0.323,0.891,0.15,-1.13,-3.51,3,5
18510.828,0.353,0.312,0.892,1.59,-2.26,-4.27,3,5
18510.843,0.354,0.324,0.885,3.42,-3.14,-4.64,3,5
18510.859,0.36,0.333,0.867,5.28,-3.39,-4.61,3,5
18510.859,0.365,0.342,0.843,6.41,-2.75,-3.94,3,5
18510.875,0.368,0.353,0.835,6.1,-1.43,-3.3,3,5
18510.89,0.369,0.365,0.831,4.67,-0.49,-2.9,3,5
18510.89,0.371,0.367,0.835,2.23,0.0,-2.69,3,5
18510.906,0.373,0.359,0.842,-0.46,0.06,-2.69,3,5
18510.906,0.375,0.349,0.846,-1.95,0.46,-2.56,3,5
18510.921,0.367,0.337,0.856,-2.38,1.34,-2.41,3,5
18510.937,0.36,0.332,0.873,-3.3,1.31,-2.75,3,5
18510.937,0.354,0.332,0.906,-4.15,-0.21,-3.91,3,5
18510.953,0.349,0.318,0.896,-3.6,-2.41,-4.76,3,5
18510.968,0.358,0.313,0.881,-2.35,-3.2,-4.79,3,5
18510.968,0.357,0.314,0.873,-0.24,-2.72,-5.31,3,5
18510.984,0.348,0.321,0.868,0.31,-2.53,-5.83,3,5
18511.0,0.353,0.335,0.866,-0.34,-2.69,-6.32,3,5
18511.0,0.355,0.34,0.865,-0.24,-2.78,-6.74,3,5
18511.015,0.353,0.348,0.861,0.61,-2.53,-6.23,3,5
18511.031,0.353,0.363,0.858,1.62,-1.89,-4.61,3,5
18511.046,0.351,0.368,0.851,0.98,-0.58,-1.5,3,5
18511.046,0.355,0.365,0.846,-0.37,-0.37,0.64,3,5
18511.062,0.359,0.358,0.849,-2.14,0.09,1.86,3,5
18511.078,0.356,0.348,0.858,-3.17,0.37,2.38,3,5
18511.078,0.361,0.34,0.859,-3.69,0.18,2.93,3,5
18511.093,0.364,0.335,0.857,-4.27,0.21,2.96,3,5
18511.109,0.37,0.329,0.86,-5.25,0.24,1.95,3,5
18511.109,0.373,0.313,0.864,-5.77,0.37,0.43,3,5
18511.125,0.367,0.309,0.874,-4.73,0.92,-1.37,3,5
18511.14,0.361,0.323,0.891,-2.56,1.31,-2.69,3,5
18511.14,0.348,0.328,0.889,-0.27,1.5,-3.42,3,5
18511.156,0.332,0.328,0.879,1.04,1.1,-3.45,3,5
18511.171,0.329,0.333,0.88,2.14,0.12,-2.84,3,5
18511.171,0.34,0.355,0.873,3.3,-0.92,-1.4,3,5
18511.187,0.348,0.366,0.868,2.9,-0.98,-0.43,3,5
18511.187,0.352,0.358,0.859,1.98,-0.85,0.24,3,5
18511.218,0.367,0.353,0.84,-0.64,0.49,2.66,3,5
18511.218,0.353,0.33,0.834,-2.62,1.31,3.3,3,5
18511.234,0.365,0.326,0.848,-3.66,1.07,4.27,3,5
18511.25,0.385,0.348,0.871,-4.76,1.07,4.88,3,5
18511.25,0.373,0.327,0.885,-5.71,1.68,4.43,3,5
18511.265,0.354,0.291,0.886,-5.13,1.71,3.3,3,5
18511.265,0.353,0.277,0.886,-2.66,0.76,1.98,3,5
18511.281,0.364,0.291,0.893,-0.37,0.24,0.09,3,5
18511.296,0.36,0.311,0.904,1.31,0.27,-2.11,3,5
18511.312,0.325,0.314,0.892,3.54,0.46,-4.03,3,5
18511.312,0.316,0.335,0.868,5.4,-0.12,-4.43,3,5
18511.328,0.353,0.393,0.873,3.11,-1.34,-1.28,3,5
18511.343,0.345,0.375,0.843,1.22,-0.61,0.09,3,5
18511.343,0.34,0.359,0.826,0.03,0.03,2.99,3,5
18511.359,0.358,0.368,0.826,-0.92,-0.21,4.79,3,5
18511.359,0.381,0.392,0.866,-4.52,-0.52,5.92,3,5
18511.375,0.366,0.336,0.857,-5.25,-0.12,5.13,3,5
18511.39,0.348,0.305,0.869,-3.23,0.31,5.37,3,5
18511.39,0.354,0.297,0.877,0.0,0.43,5.31,3,5
18511.406,0.352,0.32,0.912,0.37,0.79,4.21,3,5
18511.406,0.325,0.312,0.956,2.44,-1.28,3.2,3,5
18511.421,0.288,0.316,0.971,7.29,-6.32,4.03,3,5
18511.437,0.293,0.334,0.999,13.31,-12.3,8.15,3,5
18511.437,0.309,0.316,0.952,16.42,-19.75,11.51,3,5
18511.453,0.335,0.296,0.881,13.09,-24.93,9.7,3,5
18511.468,0.38,0.276,0.819,11.44,-25.03,8.3,3,5
18511.468,0.418,0.285,0.781,12.21,-20.84,6.81,3,5
18511.484,0.461,0.316,0.774,11.72,-14.25,4.61,3,5
18511.5,0.462,0.336,0.778,11.2,-6.32,1.77,3,5
18511.5,0.436,0.339,0.789,13.12,0.7,0.18,3,5
18511.515,0.42,0.36,0.784,15.87,5.52,0.79,3,5
18511.531,0.418,0.399,0.792,14.98,8.85,1.68,3,5
18511.531,0.398,0.405,0.812,10.47,10.5,0.89,3,5
18511.546,0.361,0.388,0.829,6.13,10.13,-0.55,3,5
18511.546,0.348,0.381,0.841,3.3,8.12,-0.46,3,5
18511.562,0.366,0.388,0.847,0.12,5.74,0.4,3,5
18511.578,0.375,0.375,0.848,-2.5,5.07,0.18,3,5
18511.578,0.361,0.34,0.85,-2.59,6.04,-0.06,3,5
18511.593,0.357,0.329,0.853,-0.79,7.78,1.43,3,5
18511.609,0.362,0.341,0.863,0.76,9.98,3.17,3,5
18511.609,0.357,0.331,0.876,1.83,11.63,4.12,3,5
18511.625,0.341,0.327,0.894,3.05,12.51,5.13,3,5
18511.64,0.33,0.327,0.908,5.65,12.27,6.65,3,5
18511.64,0.33,0.341,0.902,7.66,10.53,8.09,3,5
18511.656,0.34,0.348,0.894,7.2,7.97,8.58,3,5
18511.656,0.353,0.34,0.891,5.98,4.91,7.63,3,5
18511.671,0.361,0.342,0.874,6.62,2.78,7.17,3,5
18511.687,0.375,0.327,0.857,7.75,1.28,6.74,3,5
18511.687,0.399,0.326,0.837,8.91,0.73,5.98,3,5
18511.703,0.425,0.344,0.82,10.9,2.56,5.07,3,5
18511.718,0.429,0.342,0.803,11.54,6.07,2.59,3,5
18511.718,0.41,0.333,0.79,5.28,12.82,-6.41,3,5
18511.734,0.39,0.326,0.791,0.21,15.59,-11.57,3,5
18511.75,0.387,0.335,0.792,-3.3,19.04,-16.11,3,5
18511.75,0.35,0.364,0.841,-5.43,22.58,-19.87,3,5
18511.765,0.265,0.401,0.951,-5.86,23.1,-21.03,3,5
18511.765,0.192,0.413,1.063,-2.38,15.08,-16.42,3,5
18511.781,0.226,0.397,1.033,1.16,0.7,-10.25,3,5
18511.796,0.272,0.36,0.927,3.66,-8.0,-7.05,3,5
18511.796,0.318,0.327,0.828,6.59,-8.36,-4.27,3,5
18511.812,0.338,0.351,0.823,8.42,-3.57,-0.7,3,5
18511.828,0.345,0.386,0.854,9.25,-0.27,2.01,3,5
18511.828,0.355,0.407,0.872,8.7,-0.06,3.14,3,5
18511.843,0.366,0.4,0.857,7.66,-1.04,3.63,3,5
18511.859,0.364,0.382,0.83,6.01,-0.89,4.03,3,5
18511.859,0.366,0.36,0.828,5.13,0.43,5.19,3,5
18511.875,0.364,0.35,0.842,5.58,2.35,5.8,3,5
18511.89,0.364,0.35,0.859,6.44,4.21,5.92,3,5
18511.906,0.328,0.339,0.876,9.06,5.1,2.04,3,5
18511.906,0.321,0.346,0.877,9.37,3.75,-0.15,3,5
18511.921,0.303,0.344,0.864,9.43,2.87,-2.78,3,5
18511.937,0.224,0.298,0.824,11.81,3.6,-8.12,3,5
18511.937,0.255,0.401,0.892,10.01,2.69,-9.49,3,5
18511.953,0.378,0.58,1.01,-4.55,0.64,-0.79,3,5
18511.968,0.306,0.387,0.861,-10.04,2.29,4.79,3,5
18511.968,0.265,0.203,0.729,-3.17,4.03,8.61,3,5
18511.984,0.382,0.276,0.779,3.33,2.23,12.48,3,5
18512.0,0.493,0.472,0.917,2.62,2.04,8.79,3,5
18512.0,0.454,0.462,0.919,5.52,2.84,-0.92,3,5
18512.015,0.301,0.345,0.814,14.53,3.36,-8.91,3,5
18512.031,0.291,0.358,0.762,18.62,0.76,-9.13,3,5
18512.031,0.328,0.461,0.801,13.73,0.06,-7.9,3,5
18512.046,0.348,0.512,0.862,4.43,0.95,-5.65,3,5
18512.046,0.301,0.45,0.854,0.49,3.14,-1.92,3,5
18512.078,0.295,0.378,0.828,-3.75,2.75,5.86,3,5
18512.078,0.305,0.36,0.866,-8.51,1.8,3.78,3,5
18512.093,0.312,0.374,0.91,-9.58,0.7,2.75,3,5
18512.109,0.301,0.337,0.885,-8.09,-0.15,1.28,3,5
18512.109,0.297,0.324,0.88,-7.54,-1.31,0.06,3,5
18512.125,0.334,0.339,0.877,-8.85,-3.75,-0.49,3,5
18512.14,0.36,0.359,0.891,-11.11,-3.72,-1.68,3,5
18512.14,0.375,0.356,0.875,-11.14,-2.53,-2.41,3,5
18512.156,0.372,0.329,0.874,-10.13,-1.1,-4.36,3,5
18512.171,0.397,0.314,0.933,-7.69,-1.83,-9.25,3,5
18512.171,0.408,0.328,0.972,-3.36,-4.46,-17.43,3,5
18512.187,0.365,0.282,0.947,0.37,-8.03,-28.72,3,5
18512.187,0.327,0.259,0.874,3.6,-11.66,-39.09,3,5
18512.203,0.333,0.306,0.813,5.1,-11.57,-43.73,3,5
18512.218,0.336,0.372,0.832,8.82,-7.42,-44.34,3,5
18512.234,0.289,0.435,0.837,17.73,-2.72,-39.77,3,5
18512.25,0.253,0.543,0.785,13.98,2.11,-22.58,3,5
18512.25,0.225,0.527,0.765,7.87,6.01,-13.06,3,5
18512.265,0.186,0.532,0.739,0.03,8.39,-2.41,3,5
18512.281,0.21,0.538,0.768,-9.55,8.3,9.22,3,5
18512.281,0.254,0.516,0.807,-17.94,8.48,18.77,3,5
18512.296,0.281,0.458,0.811,-23.01,10.1,25.82,3,5
18512.312,0.319,0.382,0.826,-24.26,12.88,30.46,3,5
18512.312,0.342,0.318,0.855,-20.36,16.6,32.38,3,5
18512.328,0.341,0.289,0.888,-14.98,18.98,31.56,3,5
18512.328,0.331,0.25,0.868,-11.87,18.1,27.77,3,5
18512.343,0.364,0.267,0.875,-12.33,15.93,20.97,3,5
18512.359,0.338,0.302,0.923,-7.9,16.45,14.44,3,5
18512.375,0.323,0.355,0.936,-2.04,14.95,11.54,3,5
18512.375,0.306,0.391,0.93,-0.67,11.81,9.09,3,5
18512.39,0.288,0.372,0.909,-0.73,7.84,6.56,3,5
18512.39,0.295,0.352,0.922,0.49,4.58,5.77,3,5
18512.421,0.305,0.349,0.893,8.18,1.25,5.71,3,5
18512.421,0.324,0.335,0.888,7.14,0.34,5.4,3,5
18512.437,0.333,0.329,0.891,5.89,0.73,3.78,3,5
18512.437,0.317,0.346,0.871,6.2,1.77,2.26,3,5
18512.453,0.315,0.346,0.864,7.26,2.29,1.25,3,5
18512.468,0.314,0.359,0.879,6.99,1.8,-0.67,3,5
18512.468,0.305,0.38,0.88,7.02,0.46,-2.9,3,5
18512.484,0.292,0.397,0.866,7.2,-0.64,-3.54,3,5
18512.5,0.283,0.398,0.852,5.95,-1.07,-3.6,3,5
18512.515,0.291,0.404,0.87,3.6,-1.34,-3.08,3,5
18512.515,0.29,0.411,0.873,2.75,-1.13,-2.04,3,5
18512.515,0.281,0.398,0.865,2.99,-0.12,-0.58,3,5
18512.531,0.286,0.388,0.872,2.69,0.15,1.8,3,5
18512.546,0.293,0.387,0.879,2.81,0.0,3.3,3,5
18512.546,0.295,0.39,0.891,2.17,-0.82,3.91,3,5
18512.562,0.29,0.375,0.899,2.14,-2.01,4.0,3,5
18512.578,0.283,0.371,0.898,2.99,-3.3,4.7,3,5
18512.593,0.281,0.378,0.902,3.66,-4.76,6.13,3,5
18512.593,0.291,0.377,0.886,4.03,-6.65,7.57,3,5
18512.609,0.31,0.374,0.877,3.36,-7.81,8.39,3,5
18512.609,0.318,0.367,0.867,3.36,-7.97,8.12,3,5
18512.625,0.326,0.364,0.855,4.61,-7.05,8.0,3,5
18512.64,0.315,0.364,0.855,6.9,-5.16,7.39,3,5
18512.64,0.306,0.361,0.854,9.37,-4.3,6.35,3,5
18512.656,0.312,0.374,0.861,10.13,-4.39,4.58,3,5
18512.656,0.32,0.398,0.876,10.71,-4.49,3.14,3,5
18512.671,0.309,0.413,0.887,11.84,-4.24,2.87,3,5
18512.687,0.294,0.421,0.884,13.21,-5.34,4.36,3,5
18512.687,0.293,0.448,0.836,15.02,-5.98,9.46,3,5
18512.703,0.325,0.467,0.819,3.57,-5.62,19.81,3,5
18512.718,0.344,0.486,0.818,-2.69,-4.79,24.23,3,5
18512.718,0.339,0.453,0.84,0.89,-5.22,27.19,3,5
18512.734,0.281,0.379,0.799,1.34,-3.42,31.8,3,5
18512.75,0.403,0.404,0.772,-7.97,1.89,29.57,3,5
18512.75,0.363,0.349,0.821,-14.77,8.58,22.28,3,5
18512.765,0.323,0.259,0.864,-16.33,13.0,18.46,3,5
18512.781,0.294,0.226,0.925,-11.84,14.31,15.5,3,5
18512.781,0.295,0.269,0.997,-4.91,11.41,12.05,3,5
18512.796,0.295,0.307,1.03,0.52,5.68,8.24,3,5
18512.812,0.268,0.31,0.981,3.91,1.13,4.39,3,5
18512.812,0.264,0.291,0.915,7.32,-2.08,2.87,3,5
18512.828,0.301,0.313,0.859,10.32,-4.0,3.14,3,5
18512.828,0.329,0.384,0.889,11.02,-4.36,3.39,3,5
18512.843,0.314,0.418,0.931,13.43,-6.62,4.73,3,5
18512.859,0.338,0.417,0.905,14.16,-13.09,7.17,3,5
18512.859,0.355,0.401,0.853,12.27,-17.43,7.14,3,5
18512.875,0.381,0.361,0.796,10.74,-19.32,6.41,3,5
18512.89,0.413,0.347,0.772,8.33,-17.94,5.07,3,5
18512.89,0.421,0.356,0.78,6.32,-13.61,1.92,3,5
18512.906,0.408,0.373,0.784,6.9,-8.21,-1.68,3,5
18512.906,0.386,0.383,0.785,8.06,-2.69,-3.91,3,5
18512.921,0.349,0.394,0.803,7.93,1.74,-5.55,3,5
18512.937,0.336,0.396,0.793,6.07,5.1,-5.68,3,5
18512.953,0.35,0.387,0.776,4.18,9.74,-5.22,3,5
18512.953,0.355,0.398,0.797,2.87,16.11,-5.19,3,5
18512.968,0.314,0.403,0.851,2.69,21.36,-5.55,3,5
18512.968,0.299,0.406,0.89,4.18,21.7,-4.7,3,5
18512.984,0.297,0.437,0.897,5.62,19.44,-3.05,3,5
18513.0,0.295,0.441,0.867,3.6,16.48,-1.22,3,5
18513.0,0.322,0.41,0.842,-1.53,13.89,1.1,3,5
18513.015,0.371,0.379,0.821,-5.92,13.79,2.47,3,5
18513.031,0.398,0.358,0.819,-6.81,17.18,1.16,3,5
18513.031,0.393,0.346,0.812,-4.3,22.43,-1.68,3,5
18513.046,0.361,0.335,0.824,0.03,29.02,-4.55,3,5
18513.062,0.32,0.388,0.842,-1.28,30.18,-7.17,3,5
18513.062,0.31,0.387,0.859,-3.72,29.85,-7.84,3,5
18513.078,0.26,0.383,0.88,-3.3,29.79,-8.64,3,5
18513.078,0.233,0.414,0.923,-6.62,25.3,-8.3,3,5
18513.109,0.217,0.383,0.953,-18.16,9.92,-8.88,3,5
18513.125,0.203,0.353,0.942,-20.66,2.08,-9.43,3,5
18513.125,0.227,0.341,0.969,-20.29,-5.22,-8.15,3,5
18513.14,0.253,0.34,0.958,-16.21,-11.38,-7.2,3,5
18513.14,0.252,0.348,0.94,-10.5,-15.02,-7.08,3,5
18513.156,0.272,0.362,0.929,-6.29,-18.22,-4.94,3,5
18513.171,0.264,0.365,0.909,-3.3,-20.14,-4.39,3,5
18513.171,0.252,0.358,0.888,-1.37,-22.03,-3.85,3,5
18513.187,0.273,0.388,0.867,-0.34,-24.32,-1.71,3,5
18513.187,0.308,0.431,0.862,-1.53,-25.79,0.06,3,5
18513.203,0.309,0.434,0.835,-5.25,-25.33,-0.31,3,5
18513.218,0.298,0.405,0.812,-9.52,-24.38,-0.31,3,5
18513.234,0.313,0.378,0.823,-11.47,-23.29,0.76,3,5
18513.234,0.346,0.379,0.848,-10.59,-21.12,1.34,3,5
18513.25,0.348,0.396,0.855,-7.78,-17.24,1.53,3,5
18513.25,0.321,0.374,0.854,-5.95,-14.16,2.17,3,5
18513.281,0.32,0.344,0.888,-8.97,-13.55,1.86,3,5
18513.281,0.327,0.342,0.899,-8.42,-13.86,1.83,3,5
18513.296,0.319,0.329,0.914,-7.9,-14.31,1.59,3,5
18513.296,0.315,0.318,0.92,-7.02,-15.56,1.19,3,5
18513.312,0.33,0.309,0.922,-5.58,-17.52,1.22,3,5
18513.328,0.344,0.292,0.916,-3.05,-19.04,-0.03,3,5
18513.343,0.366,0.288,0.894,1.83,-19.75,-2.01,3,5
18513.343,0.375,0.294,0.872,7.39,-19.04,-4.94,3,5
18513.359,0.386,0.303,0.841,10.9,-17.58,-8.76,3,5
18513.359,0.399,0.317,0.806,12.79,-14.65,-13.18,3,5
18513.375,0.403,0.335,0.78,14.28,-9.98,-17.18,3,5
18513.39,0.398,0.366,0.774,15.53,-4.24,-19.56,3,5
18513.39,0.374,0.399,0.781,15.99,1.31,-20.08,3,5
18513.406,0.342,0.427,0.81,14.4,5.16,-19.29,3,5
18513.421,0.305,0.449,0.852,11.6,6.16,-17.64,3,5
18513.421,0.255,0.471,0.903,9.16,3.69,-14.01,3,5
18513.453,0.296,0.428,0.839,1.46,-4.46,-2.11,3,5
18513.453,0.313,0.389,0.827,-0.61,-3.51,1.37,3,5
18513.468,0.321,0.38,0.845,-0.67,-1.86,4.61,3,5
18513.468,0.324,0.391,0.866,-0.43,-1.07,7.35,3,5
18513.484,0.325,0.371,0.87,-0.76,-1.25,8.7,3,5
18513.5,0.312,0.348,0.873,-0.15,-1.92,8.64,3,5
18513.5,0.325,0.364,0.901,2.44,-3.94,9.37,3,5
18513.515,0.331,0.422,0.933,3.78,-6.38,11.26,3,5
18513.531,0.296,0.38,0.964,1.89,-11.6,10.8,3,5
18513.531,0.284,0.313,0.925,5.62,-19.53,10.68,3,5
18513.546,0.346,0.309,0.858,11.35,-24.23,12.94,3,5
18513.562,0.429,0.358,0.81,12.27,-23.47,10.59,3,5
18513.562,0.446,0.361,0.776,11.26,-18.07,5.07,3,5
18513.578,0.407,0.322,0.756,12.79,-11.29,-0.46,3,5
18513.578,0.422,0.338,0.753,14.92,-6.32,-3.14,3,5
18513.593,0.447,0.394,0.754,14.44,-0.61,-6.56,3,5
18513.625,0.354,0.398,0.813,7.93,10.01,-13.55,3,5
18513.625,0.323,0.414,0.85,6.01,10.07,-12.42,3,5
18513.64,0.323,0.443,0.871,4.36,7.57,-10.38,3,5
18513.64,0.311,0.446,0.888,1.4,4.06,-9.58,3,5
18513.656,0.291,0.414,0.887,-0.09,0.34,-7.9,3,5
18513.671,0.308,0.388,0.882,0.34,-3.14,-4.85,3,5
18513.671,0.344,0.39,0.864,1.68,-5.01,-2.5,3,5
18513.687,0.361,0.383,0.85,2.59,-4.24,-1.98,3,5
18513.687,0.362,0.368,0.85,9.58,-0.12,0.06,3,5
18513.703,0.358,0.372,0.843,10.62,0.76,0.12,3,5
18513.718,0.359,0.388,0.841,8.06,-0.34,-2.69,3,5
18513.718,0.341,0.375,0.859,5.52,-2.84,-6.07,3,5
18513.734,0.351,0.378,0.869,4.24,-6.56,-8.58,3,5
18513.75,0.36,0.38,0.873,3.6,-10.13,-11.69,3,5
18513.75,0.358,0.369,0.873,4.12,-13.18,-15.56,3,5
18513.765,0.366,0.362,0.876,5.58,-15.9,-19.32,3,5
18513.781,0.372,0.36,0.882,10.28,-18.56,-26.67,3,5
18513.796,0.35,0.348,0.887,9.92,-20.48,-32.23,3,5
18513.796,0.346,0.341,0.9,8.85,-24.81,-38.21,3,5
18513.812,0.355,0.342,0.91,7.81,-30.0,-44.25,3,5
18513.828,0.354,0.335,0.913,7.42,-35.22,-50.97,3,5
18513.843,0.369,0.332,0.907,8.7,-40.25,-57.47,3,5
18513.843,0.397,0.344,0.906,11.54,-43.67,-63.45,3,5
18513.859,0.388,0.344,0.895,14.22,-45.59,-69.58,3,5
18513.875,0.361,0.33,0.878,15.29,-48.19,-75.93,3,5
18513.875,0.363,0.329,0.883,14.56,-51.91,-81.79,3,5
18513.89,0.369,0.327,0.899,12.18,-55.91,-86.76,3,5
18513.89,0.355,0.315,0.887,11.72,-60.82,-94.97,3,5
18513.906,0.351,0.317,0.86,12.82,-67.17,-105.44,3,5
18513.921,0.35,0.35,0.838,13.12,-73.73,-117.07,3,5
18513.921,0.323,0.379,0.82,12.54,-79.01,-129.03,3,5
18513.937,0.303,0.421,0.797,13.98,-83.47,-140.48,3,5
18513.953,0.27,0.557,0.77,8.39,-91.68,-150.03,3,5
18513.968,0.259,0.586,0.759,2.35,-94.64,-148.23,3,5
18513.968,0.257,0.597,0.744,0.15,-96.01,-145.39,3,5
18513.984,0.258,0.622,0.715,2.2,-95.89,-140.78,3,5
18514.0,0.252,0.651,0.693,3.27,-93.72,-134.86,3,5
18514.0,0.229,0.675,0.676,0.85,-91.16,-128.85,3,5
18514.015,0.209,0.7,0.672,-4.03,-89.33,-122.84,3,5
18514.031,0.201,0.706,0.67,-9.34,-88.38,-116.31,3,5
18514.031,0.213,0.7,0.654,-11.84,-87.16,-109.56,3,5
18514.046,0.234,0.702,0.631,-12.39,-84.81,-102.42,3,5
18514.062,0.253,0.707,0.613,-13.06,-81.12,-95.4,3,5
18514.062,0.276,0.7,0.6,-14.34,-76.75,-88.69,3,5
18514.078,0.293,0.689,0.603,-17.21,-72.6,-82.89,3,5
18514.093,0.311,0.668,0.615,-21.33,-68.97,-77.21,3,5
18514.093,0.33,0.647,0.631,-27.01,-66.59,-72.15,3,5
18514.109,0.355,0.617,0.651,-30.92,-65.1,-68.88,3,5
18514.109,0.385,0.588,0.665,-30.88,-63.97,-67.2,3,5
18514.125,0.417,0.579,0.668,-25.51,-61.89,-66.41,3,5
18514.14,0.431,0.594,0.655,-17.49,-57.77,-66.47,3,5
18514.156,0.429,0.615,0.651,-11.87,-53.25,-66.77,3,5
18514.156,0.419,0.634,0.658,-10.28,-49.13,-67.05,3,5
18514.171,0.41,0.648,0.663,-10.74,-45.5,-66.41,3,5
18514.171,0.405,0.655,0.669,-11.63,-41.17,-64.67,3,5
18514.187,0.399,0.658,0.677,-10.93,-35.52,-62.72,3,5
18514.187,0.385,0.664,0.673,-9.83,-29.51,-61.13,3,5
18514.203,0.361,0.652,0.653,-10.5,-23.5,-60.0,3,5
18514.218,0.355,0.629,0.636,-13.21,-17.0,-58.75,3,5
18514.234,0.339,0.611,0.627,-15.75,-9.92,-57.34,3,5
18514.234,0.314,0.597,0.635,-16.57,-3.36,-56.06,3,5
18514.25,0.288,0.589,0.653,-15.2,2.11,-54.45,3,5
18514.25,0.254,0.604,0.706,-11.78,5.49,-51.06,3,5
18514.265,0.233,0.629,0.749,-6.47,5.25,-45.63,3,5
18514.281,0.242,0.671,0.757,-3.23,2.11,-39.0,3,5
18514.281,0.265,0.687,0.739,-4.91,-0.21,-34.91,3,5
18514.296,0.28,0.667,0.722,-10.13,-1.13,-32.81,3,5
18514.296,0.292,0.648,0.707,-13.46,0.03,-30.03,3,5
18514.312,0.302,0.637,0.693,-13.34,3.17,-26.46,3,5
18514.328,0.301,0.635,0.69,-11.32,6.59,-21.79,3,5
18514.328,0.301,0.653,0.681,-8.94,11.14,-16.6,3,5
18514.343,0.294,0.66,0.67,-7.9,15.08,-11.9,3,5
18514.359,0.28,0.657,0.666,-10.38,17.98,-8.94,3,5
18514.359,0.271,0.672,0.664,-17.24,19.68,-6.2,3,5
18514.375,0.274,0.669,0.665,-24.23,21.49,-2.99,3,5
18514.39,0.259,0.654,0.679,-30.24,23.65,-0.27,3,5
18514.39,0.233,0.637,0.7,-35.98,24.93,1.65,3,5
18514.406,0.216,0.611,0.713,-41.41,24.72,1.71,3,5
18514.421,0.211,0.585,0.738,-44.68,23.19,-0.12,3,5
18514.421,0.182,0.556,0.787,-41.84,20.78,-2.93,3,5
18514.437,0.16,0.538,0.803,-32.72,17.4,-4.46,3,5
18514.437,0.157,0.549,0.814,-23.47,13.46,-4.67,3,5
18514.453,0.16,0.572,0.815,-18.13,9.4,-5.37,3,5
18514.468,0.166,0.59,0.808,-19.9,5.62,-7.54,3,5
18514.484,0.171,0.585,0.808,-25.51,2.26,-9.92,3,5
18514.484,0.174,0.564,0.805,-30.79,0.4,-11.23,3,5
18514.5,0.183,0.545,0.816,-32.23,0.37,-11.11,3,5
18514.5,0.177,0.533,0.819,-27.01,2.2,-10.07,3,5
18514.515,0.176,0.528,0.803,-20.51,4.03,-9.37,3,5
18514.531,0.182,0.532,0.791,-16.97,5.83,-9.28,3,5
18514.531,0.181,0.538,0.795,-16.17,7.32,-9.49,3,5
18514.546,0.166,0.557,0.821,-15.26,7.57,-8.76,3,5
18514.546,0.161,0.581,0.846,-14.65,5.77,-6.2,3,5
18514.562,0.169,0.582,0.86,-14.95,1.98,-3.81,3,5
18514.578,0.175,0.57,0.854,-15.96,-2.81,-3.36,3,5
18514.593,0.188,0.555,0.829,-16.75,-7.84,-3.75,3,5
18514.593,0.212,0.538,0.801,-16.51,-10.56,-3.63,3,5
18514.609,0.226,0.532,0.791,-15.53,-10.56,-3.72,3,5
18514.609,0.227,0.527,0.796,-15.26,-9.95,-5.31,3,5
18514.625,0.235,0.518,0.783,-13.09,-9.19,-6.13,3,5
18514.64,0.248,0.527,0.773,-10.83,-7.11,-5.92,3,5
18514.64,0.252,0.541,0.774,-10.22,-4.79,-5.83,3,5
18514.656,0.249,0.547,0.786,-9.61,-2.62,-6.13,3,5
18514.671,0.242,0.546,0.798,-8.42,-1.1,-5.77,3,5
18514.671,0.236,0.548,0.794,-3.3,1.8,-2.99,3,5
18514.687,0.235,0.558,0.789,-2.87,3.36,-1.8,3,5
18514.703,0.217,0.559,0.8,-4.73,2.81,-1.56,3,5
18514.703,0.192,0.553,0.817,-7.17,-0.21,-1.59,3,5
18514.718,0.201,0.53,0.823,-9.52,-3.42,-1.92,3,5
18514.718,0.224,0.516,0.821,-11.14,-5.22,-3.42,3,5
18514.734,0.232,0.501,0.824,-11.72,-5.34,-5.8,3,5
18514.75,0.231,0.48,0.82,-8.15,-4.55,-7.69,3,5
18514.75,0.255,0.482,0.806,-2.08,-2.29,-8.12,3,5
18514.765,0.268,0.477,0.785,3.91,2.47,-9.4,3,5
18514.781,0.245,0.491,0.813,3.91,6.71,-12.15,3,5
18514.781,0.205,0.54,0.862,-1.65,7.72,-14.07,3,5
18514.796,0.205,0.557,0.817,-4.0,4.52,-14.1,3,5
18514.796,0.208,0.487,0.799,0.4,4.36,-14.31,3,5
18514.812,0.09,0.658,0.88,-7.51,3.2,-14.19,3,5
18514.828,0.115,0.688,0.886,-12.09,-6.5,-6.81,3,5
18514.843,0.115,0.616,0.82,-2.9,-11.35,2.5,3,5
18514.843,0.121,0.629,0.801,-1.83,-11.99,12.33,3,5
18514.859,0.136,0.605,0.795,0.18,-12.42,19.81,3,5
18514.859,0.146,0.551,0.81,1.25,-13.28,24.93,3,5
18514.875,0.186,0.513,0.827,1.04,-15.44,27.77,3,5
18514.89,0.227,0.477,0.83,2.84,-16.91,26.89,3,5
18514.89,0.236,0.469,0.842,3.36,-18.31,23.47,3,5
18514.906,0.226,0.529,0.845,0.0,-21.7,20.63,3,5
18514.921,0.318,0.512,0.775,7.2,-22.89,22.64,3,5
18514.921,0.255,0.486,0.714,19.71,-14.1,25.82,3,5
18514.937,0.278,0.541,0.743,4.36,-12.3,22.31,3,5
18514.937,0.304,0.503,0.743,-3.02,-11.23,18.59,3,5
18514.953,0.303,0.469,0.745,-0.7,-5.19,16.66,3,5
18514.968,0.322,0.483,0.741,2.9,0.46,15.53,3,5
18514.968,0.305,0.493,0.732,6.04,7.2,13.31,3,5
18514.984,0.284,0.514,0.765,5.58,11.87,10.44,3,5
18515.0,0.268,0.531,0.8,2.32,13.0,7.72,3,5
18515.0,0.252,0.53,0.82,-1.4,11.69,5.86,3,5
18515.015,0.246,0.531,0.834,-4.09,9.03,4.64,3,5
18515.031,0.244,0.517,0.843,-4.85,6.35,3.33,3,5
18515.031,0.241,0.503,0.83,-3.42,4.46,2.17,3,5
18515.046,0.242,0.498,0.807,-1.74,3.69,1.59,3,5
18515.046,0.245,0.496,0.79,-0.79,4.09,0.46,3,5
18515.062,0.248,0.494,0.787,-1.07,5.19,-1.31,3,5
18515.078,0.253,0.493,0.789,-1.74,6.74,-2.69,3,5
18515.078,0.253,0.501,0.794,-1.5,8.58,-4.15,3,5
18515.093,0.247,0.51,0.805,-0.7,9.95,-5.22,3,5
18515.109,0.239,0.524,0.824,-0.15,10.19,-5.65,3,5
18515.125,0.226,0.54,0.843,-0.92,8.82,-5.49,3,5
18515.125,0.217,0.548,0.85,-2.38,6.1,-4.49,3,5
18515.14,0.216,0.544,0.857,-2.59,2.93,-3.05,3,5
18515.14,0.219,0.53,0.849,-1.1,0.4,-1.37,3,5
18515.156,0.22,0.517,0.823,0.79,-1.16,-0.06,3,5
18515.171,0.232,0.509,0.803,1.31,-1.89,0.31,3,5
18515.171,0.244,0.498,0.791,0.46,-1.56,-0.76,3,5
18515.187,0.249,0.491,0.782,-0.58,-0.43,-2.72,3,5
18515.203,0.258,0.494,0.781,-1.28,1.1,-4.97,3,5
18515.203,0.26,0.492,0.788,-0.18,3.14,-7.54,3,5
18515.218,0.25,0.506,0.789,1.34,5.28,-10.04,3,5
18515.218,0.243,0.524,0.803,1.37,6.47,-11.47,3,5
18515.234,0.229,0.538,0.825,2.35,6.99,-12.21,3,5
18515.25,0.208,0.542,0.834,4.76,6.59,-11.66,3,5
18515.25,0.198,0.554,0.832,5.92,4.85,-9.55,3,5
18515.265,0.193,0.563,0.828,4.73,2.9,-7.42,3,5
18515.281,0.193,0.563,0.82,1.92,0.76,-5.68,3,5
18515.281,0.202,0.551,0.803,-0.49,-0.67,-3.81,3,5
18515.296,0.211,0.536,0.789,-1.8,-0.61,-1.89,3,5
18515.296,0.221,0.533,0.786,-4.3,0.46,-0.4,3,5
18515.312,0.23,0.517,0.786,-5.92,1.89,-0.09,3,5
18515.328,0.236,0.504,0.797,-6.78,3.48,-0.67,3,5
18515.343,0.232,0.501,0.814,-6.62,4.97,-1.83,3,5
18515.343,0.232,0.501,0.836,-5.07,5.68,-2.84,3,5
18515.359,0.221,0.507,0.849,-2.99,6.04,-4.15,3,5
18515.359,0.207,0.501,0.843,0.37,5.13,-5.37,3,5
18515.375,0.206,0.505,0.847,1.34,2.99,-6.41,3,5
18515.39,0.203,0.504,0.833,1.8,1.53,-7.78,3,5
18515.39,0.211,0.511,0.814,2.23,-0.06,-8.76,3,5
18515.406,0.218,0.522,0.815,1.86,0.09,-9.22,3,5
18515.421,0.23,0.519,0.79,2.35,0.82,-9.86,3,5
18515.421,0.269,0.461,0.736,6.32,4.0,-11.05,3,5
18515.437,0.132,0.545,0.816,1.86,7.66,-13.61,3,5
18515.437,0.197,0.655,0.866,-9.98,1.98,-10.35,3,5
18515.453,0.196,0.563,0.781,-3.05,-1.07,-7.39,3,5
18515.468,0.173,0.58,0.782,-4.85,1.31,-4.43,3,5
18515.484,0.164,0.607,0.822,-7.05,1.31,-0.43,3,5
18515.484,0.151,0.575,0.836,-6.99,-0.12,3.2,3,5
18515.5,0.155,0.546,0.853,-8.39,-3.36,6.07,3,5
18515.5,0.164,0.523,0.877,-8.12,-6.16,7.84,3,5
18515.515,0.155,0.517,0.9,-5.34,-9.37,8.88,3,5
18515.531,0.145,0.53,0.916,-3.3,-14.56,11.08,3,5
18515.531,0.129,0.554,0.911,-3.05,-21.79,14.16,3,5
18515.546,0.247,0.515,0.806,-2.08,-26.58,18.83,3,5
18515.562,0.227,0.439,0.729,4.76,-22.64,17.09,3,5
18515.562,0.231,0.52,0.773,-0.09,-17.61,17.52,3,5
18515.578,0.292,0.504,0.77,-1.8,-15.81,18.4,3,5
18515.593,0.304,0.455,0.718,0.61,-11.14,15.17,3,5
18515.593,0.308,0.47,0.726,0.24,-3.75,11.63,3,5
18515.609,0.305,0.472,0.748,1.4,2.81,7.93,3,5
18515.609,0.297,0.474,0.767,2.66,7.45,3.88,3,5
18515.625,0.272,0.504,0.799,1.8,10.22,0.31,3,5
18515.64,0.247,0.516,0.84,-1.4,9.64,-2.53,3,5
18515.64,0.23,0.511,0.865,-4.18,6.2,-4.7,3,5
18515.656,0.222,0.501,0.861,-3.23,2.56,-6.56,3,5
18515.671,0.217,0.498,0.843,3.23,0.61,-6.9,3,5
18515.671,0.204,0.509,0.826,4.91,0.89,-5.13,3,5
18515.687,0.201,0.518,0.825,5.92,1.1,-3.3,3,5
18515.687,0.202,0.537,0.801,6.62,1.59,-1.71,3,5
18515.703,0.213,0.533,0.79,5.34,2.17,0.12,3,5
18515.718,0.217,0.531,0.793,2.84,3.05,1.53,3,5
18515.734,0.213,0.536,0.813,0.31,3.6,2.11,3,5
18515.734,0.215,0.535,0.834,-1.46,2.99,2.59,3,5
18515.75,0.214,0.525,0.837,-2.17,1.46,2.56,3,5
18515.75,0.219,0.512,0.824,-2.17,-0.12,2.23,3,5
18515.765,0.227,0.501,0.812,-1.37,-0.67,1.43,3,5
18515.781,0.227,0.502,0.814,-0.34,-0.09,0.67,3,5
18515.781,0.227,0.505,0.823,0.85,0.43,0.52,3,5
18515.796,0.227,0.504,0.826,2.26,0.4,0.4,3,5
18515.812,0.223,0.513,0.829,2.81,-0.31,-0.09,3,5
18515.812,0.228,0.518,0.822,2.87,-1.71,-0.85,3,5
18515.828,0.233,0.514,0.807,2.81,-2.47,-1.62,3,5
18515.828,0.232,0.517,0.799,2.62,-2.01,-2.04,3,5
18515.843,0.235,0.522,0.79,2.35,-1.01,-2.17,3,5
18515.859,0.231,0.525,0.783,1.46,0.73,-2.26,3,5
18515.859,0.23,0.52,0.784,0.31,2.53,-1.89,3,5
18515.875,0.234,0.526,0.796,-1.34,3.72,-1.59,3,5
18515.89,0.229,0.522,0.809,-2.84,4.36,-2.01,3,5
18515.89,0.23,0.518,0.83,-3.57,3.75,-2.66,3,5
18515.906,0.223,0.512,0.845,-2.93,2.62,-3.88,3,5
18515.906,0.214,0.513,0.845,-1.53,1.19,-4.76,3,5
18515.921,0.214,0.51,0.833,0.37,0.09,-5.46,3,5
18515.937,0.209,0.501,0.82,0.34,-0.37,-7.02,3,5
18515.937,0.21,0.502,0.818,-0.4,-0.43,-8.06,3,5
18515.953,0.211,0.501,0.828,0.0,0.21,-8.76,3,5
18515.968,0.214,0.504,0.846,0.21,0.76,-9.19,3,5
18515.968,0.209,0.514,0.851,1.13,1.04,-9.64,3,5
18515.984,0.203,0.527,0.84,2.66,0.24,-9.16,3,5
18516.0,0.261,0.509,0.758,4.91,0.09,-8.3,3,5
18516.0,0.207,0.438,0.747,10.22,5.37,-10.74,3,5
18516.015,0.107,0.659,0.885,-1.1,6.2,-10.16,3,5
18516.031,0.173,0.65,0.892,-2.35,-3.72,-4.0,3,5
18516.031,0.146,0.6,0.825,1.59,-7.69,-0.37,3,5
18516.046,0.129,0.645,0.836,-0.98,-8.64,5.77,3,5
18516.062,0.118,0.643,0.876,-3.11,-12.45,11.75,3,5
18516.062,0.091,0.65,0.923,-10.47,-21.67,17.37,3,5
18516.078,0.052,0.659,0.947,-22.22,-35.83,24.51,3,5
18516.093,0.182,0.603,0.835,-34.0,-49.99,33.88,3,5
18516.093,0.233,0.426,0.875,-41.84,-55.09,37.54,3,5
18516.109,0.24,0.507,0.791,-33.45,-54.32,43.4,3,5
18516.125,0.33,0.439,0.648,-7.54,-45.38,51.79,3,5
18516.125,0.357,0.426,0.612,-5.1,-31.62,48.52,3,5
18516.14,0.393,0.429,0.627,-13.0,-19.47,41.29,3,5
18516.14,0.41,0.381,0.646,-14.04,-6.32,33.97,3,5
18516.156,0.395,0.364,0.688,-9.89,6.59,26.18,3,5
18516.171,0.377,0.404,0.786,-6.01,15.63,19.62,3,5
18516.171,0.335,0.445,0.873,-4.39,18.25,13.82,3,5
18516.187,0.293,0.441,0.94,-6.01,13.7,8.3,3,5
18516.187,0.275,0.416,0.963,-7.42,4.43,3.48,3,5
18516.203,0.289,0.396,0.914,-4.43,-4.18,-1.1,3,5
18516.218,0.3,0.393,0.858,1.25,-8.06,-5.25,3,5
18516.234,0.305,0.401,0.814,6.44,-7.35,-8.51,3,5
18516.234,0.295,0.416,0.775,9.28,-4.21,-11.44,3,5
18516.25,0.3,0.436,0.752,8.79,-0.52,-13.7,3,5
18516.25,0.307,0.456,0.751,6.35,3.94,-15.69,3,5
18516.265,0.297,0.486,0.785,4.97,8.79,-17.27,3,5
18516.281,0.273,0.504,0.827,5.8,11.78,-17.58,3,5
18516.281,0.248,0.515,0.86,7.54,11.51,-16.24,3,5
18516.296,0.234,0.532,0.871,7.97,8.64,-14.01,3,5
18516.296,0.234,0.533,0.871,6.29,4.27,-12.15,3,5
18516.312,0.234,0.523,0.857,5.34,0.27,-10.44,3,5
18516.328,0.238,0.514,0.825,6.23,-1.98,-8.21,3,5
18516.328,0.255,0.512,0.788,6.81,-2.2,-5.71,3,5
18516.343,0.267,0.512,0.764,5.49,-0.18,-4.33,3,5
18516.359,0.274,0.513,0.757,3.57,3.08,-3.66,3,5
18516.359,0.282,0.508,0.757,1.92,6.62,-2.47,3,5
18516.375,0.287,0.506,0.767,0.06,10.1,-1.34,3,5
18516.39,0.282,0.506,0.799,-1.56,13.15,-1.07,3,5
18516.39,0.254,0.504,0.843,-1.22,14.65,-1.16,3,5
18516.406,0.235,0.505,0.891,-1.46,12.39,-1.01,3,5
18516.421,0.234,0.491,0.92,-0.95,7.05,-0.7,3,5
18516.421,0.233,0.459,0.893,3.39,2.11,-0.58,3,5
18516.437,0.236,0.449,0.854,8.76,-0.27,-0.4,3,5
18516.437,0.247,0.449,0.834,12.21,-0.67,-0.92,3,5
18516.453,0.252,0.456,0.812,13.58,-0.06,-2.5,3,5
18516.468,0.255,0.477,0.794,12.91,0.95,-4.49,3,5
18516.484,0.266,0.49,0.791,11.96,2.17,-6.2,3,5
18516.484,0.263,0.505,0.8,11.96,4.24,-7.51,3,5
18516.5,0.245,0.528,0.819,11.96,5.16,-8.12,3,5
18516.5,0.235,0.541,0.837,10.99,3.57,-8.0,3,5
18516.515,0.22,0.542,0.839,9.92,1.37,-7.42,3,5
18516.531,0.215,0.544,0.84,8.88,-1.4,-6.2,3,5
18516.531,0.214,0.544,0.831,8.03,-4.09,-4.49,3,5
18516.546,0.22,0.54,0.811,6.87,-5.86,-2.44,3,5
18516.546,0.234,0.537,0.79,5.31,-6.16,-0.4,3,5
18516.562,0.247,0.531,0.775,3.91,-5.16,0.89,3,5
18516.578,0.26,0.522,0.763,2.87,-3.14,1.86,3,5
18516.578,0.267,0.52,0.767,1.62,-0.46,2.53,3,5
18516.593,0.27,0.519,0.776,0.67,2.29,2.53,3,5
18516.609,0.264,0.52,0.804,0.46,4.3,1.98,3,5
18516.625,0.25,0.52,0.828,1.22,4.79,1.5,3,5
18516.625,0.235,0.52,0.84,1.25,3.17,1.34,3,5
18516.64,0.226,0.524,0.861,0.09,-0.09,0.7,3,5
18516.64,0.214,0.527,0.87,0.03,-8.15,0.98,3,5
18516.656,0.219,0.527,0.851,0.82,-10.62,2.35,3,5
18516.671,0.234,0.52,0.814,2.08,-10.07,3.45,3,5
18516.671,0.248,0.512,0.781,2.69,-7.57,4.21,3,5
18516.687,0.271,0.511,0.741,1.62,-4.3,4.33,3,5
18516.687,0.283,0.508,0.739,-1.1,-0.73,3.6,3,5
18516.703,0.286,0.505,0.757,-3.63,2.99,1.92,3,5
18516.718,0.274,0.507,0.795,-4.7,5.83,0.09,3,5
18516.718,0.254,0.522,0.847,-4.21,6.23,-1.34,3,5
18516.734,0.235,0.529,0.867,-2.62,3.78,-1.74,3,5
18516.75,0.223,0.519,0.869,-1.01,-0.34,-1.4,3,5
18516.75,0.222,0.512,0.854,0.24,-4.06,-1.04,3,5
18516.765,0.233,0.511,0.826,1.13,-6.65,-0.27,3,5
18516.781,0.244,0.507,0.802,2.11,-7.29,0.46,3,5
18516.781,0.256,0.501,0.783,2.08,-6.56,0.79,3,5
18516.796,0.269,0.503,0.778,1.01,-5.01,0.46,3,5
18516.796,0.272,0.499,0.773,0.37,-2.72,-0.7,3,5
18516.812,0.279,0.486,0.772,0.03,-0.55,-2.08,3,5
18516.828,0.289,0.477,0.779,0.15,1.8,-4.06,3,5
18516.843,0.281,0.475,0.814,1.34,4.03,-6.87,3,5
18516.843,0.254,0.483,0.859,4.55,4.58,-9.52,3,5
18516.859,0.232,0.491,0.883,8.58,2.04,-10.93,3,5
18516.859,0.221,0.512,0.882,11.51,-2.56,-11.84,3,5
18516.875,0.22,0.53,0.86,12.09,-7.26,-12.39,3,5
18516.89,0.225,0.529,0.829,11.41,-10.93,-12.15,3,5
18516.89,0.23,0.531,0.79,11.57,-12.05,-11.08,3,5
18516.906,0.244,0.538,0.752,11.54,-11.23,-9.52,3,5
18516.921,0.258,0.545,0.732,10.56,-8.39,-8.45,3,5
18516.921,0.261,0.552,0.728,8.39,-4.39,-7.75,3,5
18516.937,0.267,0.553,0.741,5.34,-0.64,-7.17,3,5
18516.953,0.264,0.549,0.771,2.38,2.14,-7.05,3,5
18516.953,0.254,0.539,0.812,1.62,3.2,-7.42,3,5
18516.968,0.247,0.521,0.855,3.97,1.89,-7.87,3,5
18516.968,0.225,0.518,0.869,8.67,-0.31,-8.06,3,5
18516.984,0.208,0.523,0.857,12.7,-4.0,-7.42,3,5
18517.0,0.216,0.53,0.84,13.82,-8.18,-6.9,3,5
18517.015,0.218,0.535,0.806,13.25,-10.53,-6.99,3,5
18517.015,0.228,0.543,0.778,11.81,-11.47,-6.9,3,5
18517.031,0.25,0.563,0.756,10.53,-10.01,-6.07,3,5
18517.031,0.257,0.574,0.749,10.16,-6.87,-5.01,3,5
18517.046,0.257,0.576,0.76,11.44,-3.48,-3.3,3,5
18517.062,0.261,0.574,0.776,13.4,-0.95,-0.85,3,5
18517.062,0.259,0.558,0.803,15.17,0.49,1.19,3,5
18517.078,0.252,0.518,0.825,20.66,1.59,2.93,3,5
18517.078,0.236,0.491,0.829,29.69,2.62,5.16,3,5
18517.093,0.228,0.464,0.839,39.25,3.88,6.23,3,5
18517.109,0.209,0.457,0.851,49.41,5.16,4.76,3,5
18517.109,0.195,0.471,0.869,58.08,5.74,1.56,3,5
18517.125,0.197,0.468,0.895,64.82,3.78,-3.51,3,5
18517.14,0.205,0.495,0.914,73.12,1.4,-9.19,3,5
18517.14,0.178,0.605,0.936,83.38,1.62,-13.28,3,5
18517.156,0.17,0.7,0.902,91.13,3.57,-16.3,3,5
18517.171,0.198,0.79,0.823,87.01,4.03,-19.47,3,5
18517.171,0.363,0.931,0.781,67.32,4.18,-19.56,3,5
18517.187,0.539,1.079,0.795,38.27,13.37,-21.82,3,5
18517.187,0.439,0.987,0.715,13.37,36.56,-35.46,3,5
18517.203,0.262,0.971,0.889,7.08,63.84,-69.43,3,5
18517.218,0.188,1.08,1.054,11.26,72.82,-76.75,3,5
18517.218,0.016,1.046,1.086,32.07,77.7,-77.82,3,5
18517.234,-0.058,1.034,1.059,53.01,71.05,-68.48,3,5
18517.25,-0.061,1.066,0.981,62.9,59.76,-53.74,3,5
18517.265,-0.04,1.0,0.892,62.69,48.77,-44.19,3,5
18517.265,-0.024,0.903,0.8,56.86,40.8,-38.36,3,5
18517.281,0.011,0.784,0.74,52.28,36.81,-34.82,3,5
18517.281,0.027,0.709,0.683,55.45,36.65,-34.82,3,5
18517.296,0.028,0.636,0.628,68.33,40.93,-36.41,3,5
18517.296,-0.016,0.596,0.589,82.09,46.11,-40.1,3,5
18517.312,-0.03,0.598,0.57,87.8,47.7,-44.01,3,5
18517.328,-0.057,0.564,0.552,92.44,47.24,-48.98,3,5
18517.343,-0.077,0.517,0.512,100.13,46.17,-52.8,3,5
18517.343,-0.094,0.531,0.477,106.05,44.1,-55.82,3,5
18517.359,-0.106,0.546,0.46,106.08,40.22,-60.18,3,5
18517.375,-0.172,0.545,0.441,104.46,35.95,-63.63,3,5
18517.375,-0.128,0.574,0.419,101.6,28.5,-59.08,3,5
18517.39,-0.07,0.676,0.348,97.38,25.21,-59.66,3,5
18517.39,-0.1,0.655,0.272,86.15,27.28,-59.33,3,5
18517.406,-0.07,0.674,0.236,68.58,30.88,-51.09,3,5
18517.421,-0.049,0.692,0.196,53.29,38.79,-40.77,3,5
18517.421,-0.033,0.71,0.166,40.56,50.17,-29.39,3,5
18517.437,-0.047,0.695,0.153,28.69,63.45,-18.01,3,5
18517.453,-0.037,0.696,0.16,17.94,75.72,-9.4,3,5
18517.453,-0.06,0.704,0.19,11.87,87.31,-3.91,3,5
18517.468,-0.091,0.712,0.207,8.45,95.34,-0.37,3,5
18517.468,-0.12,0.707,0.216,1.62,97.38,0.55,3,5
18517.484,-0.126,0.71,0.23,-8.51,95.03,-0.49,3,5
18517.5,-0.094,0.709,0.246,-18.28,91.28,-5.04,3,5
18517.515,-0.08,0.675,0.253,-25.06,89.02,-13.15,3,5
18517.515,-0.059,0.659,0.263,-28.5,88.63,-20.29,3,5
18517.531,-0.028,0.662,0.292,-26.49,90.73,-29.18,3,5
18517.531,0.004,0.661,0.32,-16.91,95.71,-41.99,3,5
18517.546,-0.016,0.699,0.374,-0.24,103.73,-57.62,3,5
18517.562,-0.086,0.737,0.454,25.27,109.26,-70.22,3,5
18517.562,-0.166,0.781,0.495,57.16,113.83,-80.36,3,5
18517.578,-0.283,0.838,0.514,85.6,116.52,-84.99,3,5
18517.593,-0.378,0.895,0.522,102.27,102.54,-86.55,3,5
18517.593,-0.427,0.959,0.52,105.56,77.82,-86.79,3,5
18517.609,-0.446,1.002,0.488,95.19,48.71,-84.38,3,5
18517.625,-0.398,1.001,0.469,73.55,20.33,-81.73,3,5
18517.625,-0.339,0.955,0.443,50.78,-0.58,-79.13,3,5
18517.64,-0.281,0.886,0.397,26.64,-11.57,-70.59,3,5
18517.64,-0.229,0.832,0.359,24.9,-3.75,-66.26,3,5
18517.656,-0.207,0.792,0.326,23.99,7.23,-63.6,3,5
18517.671,-0.224,0.775,0.292,20.39,18.62,-62.47,3,5
18517.671,-0.254,0.775,0.315,15.35,29.57,-63.02,3,5
18517.687,-0.307,0.781,0.348,12.73,39.46,-63.57,3,5
18517.703,-0.357,0.781,0.359,10.83,46.11,-63.39,3,5
18517.703,-0.398,0.786,0.386,8.58,48.89,-63.26,3,5
18517.718,-0.439,0.779,0.396,9.13,49.62,-63.69,3,5
18517.718,-0.463,0.794,0.384,8.58,48.28,-63.45,3,5
18517.734,-0.463,0.795,0.372,4.97,45.87,-63.84,3,5
18517.75,-0.466,0.765,0.366,-0.37,43.73,-66.62,3,5
18517.75,-0.467,0.741,0.35,-4.94,43.15,-69.7,3,5
18517.765,-0.451,0.717,0.319,-9.25,45.53,-72.82,3,5
18517.781,-0.429,0.69,0.282,-14.65,52.22,-77.64,3,5
18517.781,-0.419,0.672,0.264,-21.27,65.0,-84.08,3,5
18517.796,-0.433,0.656,0.266,-27.56,81.76,-92.17,3,5
18517.796,-0.444,0.639,0.266,-33.97,99.58,-101.57,3,5
18517.812,-0.493,0.644,0.281,-41.81,118.66,-112.92,3,5
18517.828,-0.595,0.602,0.319,-49.78,133.0,-118.44,3,5
18517.828,-0.677,0.632,0.397,-53.07,141.06,-120.06,3,5
18517.843,-0.779,0.676,0.438,-50.69,142.09,-120.7,3,5
18517.859,-0.882,0.685,0.472,-51.18,132.27,-114.63,3,5
18517.859,-0.93,0.703,0.512,-54.96,113.47,-104.1,3,5
18517.875,-0.939,0.686,0.514,-59.27,89.11,-92.56,3,5
18517.89,-0.904,0.655,0.487,-65.89,62.11,-82.86,3,5
18517.89,-0.83,0.626,0.449,-74.28,37.87,-78.8,3,5
18517.906,-0.774,0.567,0.399,-81.42,20.94,-81.85,3,5
18517.921,-0.736,0.497,0.358,-85.33,11.66,-88.41,3,5
18517.921,-0.701,0.446,0.332,-83.83,8.76,-96.77,3,5
18517.937,-0.677,0.4,0.303,-76.42,11.6,-106.81,3,5
18517.937,-0.668,0.372,0.274,-64.76,19.38,-117.62,3,5
18517.953,-0.689,0.365,0.259,-49.93,30.76,-129.18,3,5
18517.968,-0.749,0.384,0.279,-32.69,44.01,-140.32,3,5
18517.968,-0.882,0.45,0.338,-12.85,54.87,-148.2,3,5
18517.984,-1.036,0.489,0.365,6.96,56.76,-148.17,3,5
18518.0,-1.118,0.487,0.358,20.42,47.49,-139.84,3,5
18518.0,-1.145,0.499,0.338,27.95,32.38,-130.62,3,5
18518.015,-1.163,0.495,0.3,31.65,13.86,-127.08,3,5
18518.031,-1.158,0.478,0.252,31.04,-5.95,-130.01,3,5
18518.031,-1.122,0.476,0.208,28.11,-23.35,-136.23,3,5
18518.046,-1.075,0.473,0.161,26.09,-36.84,-142.74,3,5
18518.046,-1.038,0.476,0.12,25.61,-46.14,-146.58,3,5
18518.062,-0.992,0.513,0.099,28.57,-49.32,-146.76,3,5
18518.078,-0.962,0.569,0.092,33.48,-47.67,-143.22,3,5
18518.078,-0.936,0.614,0.073,37.6,-44.34,-133.95,3,5
18518.093,-0.882,0.642,0.057,37.45,-38.91,-120.09,3,5
18518.109,-0.82,0.686,0.057,32.07,-30.03,-105.9,3,5
18518.109,-0.769,0.725,0.061,21.45,-17.94,-94.39,3,5
18518.125,-0.746,0.754,0.073,4.55,-2.78,-85.15,3,5
18518.14,-0.753,0.779,0.098,-17.55,15.05,-76.42,3,5
18518.14,-0.775,0.785,0.122,-41.72,33.36,-67.2,3,5
18518.156,-0.789,0.764,0.146,-65.37,50.33,-56.43,3,5
18518.171,-0.811,0.725,0.169,-85.73,66.19,-45.11,3,5
18518.171,-0.841,0.678,0.189,-102.39,81.0,-34.73,3,5
18518.187,-0.869,0.63,0.195,-114.75,94.42,-25.06,3,5
18518.187,-0.894,0.58,0.212,-122.44,105.59,-15.14,3,5
18518.203,-0.921,0.519,0.236,-124.49,112.7,-3.97,3,5
18518.218,-0.933,0.458,0.264,-119.88,115.57,7.42,3,5
18518.218,-0.937,0.401,0.289,-107.33,114.41,17.82,3,5
18518.234,-0.938,0.352,0.288,-88.66,109.26,26.15,3,5
18518.25,-0.944,0.33,0.292,-70.5,100.04,30.82,3,5
18518.265,-0.937,0.317,0.304,-53.74,89.88,33.75,3,5
18518.265,-0.953,0.313,0.296,-40.07,78.4,36.44,3,5
18518.281,-0.971,0.303,0.287,-31.22,67.81,40.38,3,5
18518.281,-0.98,0.292,0.278,-26.4,58.41,44.71,3,5
18518.296,-0.993,0.29,0.262,-25.67,48.98,47.88,3,5
18518.312,-1.007,0.288,0.249,-27.83,40.19,50.11,3,5
18518.312,-1.03,0.286,0.231,-31.37,31.68,51.36,3,5
18518.328,-1.045,0.278,0.211,-36.59,23.53,52.8,3,5
18518.343,-1.048,0.266,0.194,-43.18,15.66,54.51,3,5
18518.343,-1.049,0.258,0.173,-50.17,8.61,55.06,3,5
18518.359,-1.046,0.252,0.144,-57.44,3.02,55.21,3,5
18518.359,-1.03,0.24,0.131,-64.49,0.21,56.03,3,5
18518.375,-1.011,0.227,0.12,-69.4,-0.92,56.49,3,5
18518.39,-0.994,0.209,0.106,-72.24,-0.73,57.04,3,5
18518.39,-0.976,0.186,0.102,-73.92,1.65,58.41,3,5
18518.406,-0.961,0.17,0.099,-73.67,5.77,59.54,3,5
18518.421,-0.956,0.16,0.097,-72.82,11.57,60.73,3,5
18518.421,-0.958,0.15,0.108,-71.72,18.25,61.59,3,5
18518.437,-0.969,0.149,0.111,-70.5,24.29,60.91,3,5
18518.437,-0.978,0.148,0.117,-71.08,29.48,59.48,3,5
18518.453,-0.987,0.146,0.128,-73.27,33.33,57.04,3,5
18518.468,-0.992,0.144,0.133,-76.91,35.52,53.99,3,5
18518.468,-0.979,0.146,0.139,-82.28,37.11,51.33,3,5
18518.484,-0.967,0.145,0.15,-87.53,37.29,48.37,3,5
18518.5,-0.962,0.129,0.153,-91.71,35.46,45.59,3,5
18518.515,-0.957,0.117,0.155,-95.13,32.29,43.52,3,5
18518.515,-0.941,0.107,0.156,-96.99,27.53,41.6,3,5
18518.531,-0.936,0.099,0.146,-97.29,22.37,39.77,3,5
18518.531,-0.927,0.094,0.138,-97.02,18.1,38.45,3,5
18518.546,-0.915,0.092,0.141,-95.19,14.16,36.93,3,5
18518.562,-0.914,0.092,0.132,-90.4,11.08,34.67,3,5
18518.562,-0.921,0.098,0.113,-84.32,8.27,31.74,3,5
18518.578,-0.924,0.115,0.102,-79.13,6.71,29.05,3,5
18518.593,-0.933,0.135,0.101,-74.1,6.13,26.61,3,5
18518.593,-0.945,0.148,0.096,-68.15,5.37,24.14,3,5
18518.609,-0.959,0.163,0.082,-63.02,4.73,21.79,3,5
18518.609,-0.973,0.181,0.066,-59.27,6.23,19.65,3,5
18518.625,-0.974,0.2,0.071,-57.65,7.48,19.35,3,5
18518.64,-0.969,0.213,0.075,-55.15,8.03,18.71,3,5
18518.64,-0.961,0.22,0.07,-53.16,8.27,18.16,3,5
18518.656,-0.948,0.225,0.073,-50.66,7.84,18.16,3,5
18518.671,-0.94,0.227,0.073,-47.21,6.68,18.31,3,5
18518.671,-0.932,0.226,0.07,-42.97,4.82,18.46,3,5
18518.687,-0.931,0.232,0.062,-38.58,3.14,18.43,3,5
18518.687,-0.928,0.241,0.056,-35.65,1.98,18.52,3,5
18518.703,-0.914,0.25,0.055,-34.36,1.83,18.8,3,5
18518.718,-0.919,0.258,0.054,-34.55,2.56,19.04,3,5
18518.734,-0.929,0.254,0.054,-35.46,4.97,19.71,3,5
18518.734,-0.941,0.27,0.035,-39.58,6.1,19.47,3,5
18518.75,-0.951,0.27,0.054,-46.66,8.7,20.36,3,5
18518.75,-0.971,0.252,0.077,-50.6,11.32,21.39,3,5
18518.765,-0.996,0.25,0.07,-51.52,13.28,22.49,3,5
18518.781,-0.986,0.253,0.084,-52.86,14.44,24.9,3,5
18518.781,-0.975,0.252,0.091,-52.61,14.44,25.88,3,5
18518.796,-0.982,0.252,0.085,-51.76,14.22,25.33,3,5
18518.812,-0.984,0.253,0.088,-52.1,14.5,24.23,3,5
18518.812,-0.981,0.263,0.091,-53.04,15.63,22.68,3,5
18518.828,-0.983,0.272,0.098,-54.17,18.01,21.15,3,5
18518.828,-0.975,0.275,0.109,-55.36,20.94,19.62,3,5
18518.843,-0.97,0.275,0.113,-56.52,23.65,18.65,3,5
18518.859,-0.956,0.272,0.119,-57.71,25.67,18.98,3,5
18518.859,-0.947,0.277,0.132,-57.62,27.74,19.44,3,5
18518.875,-0.954,0.266,0.137,-56.55,27.56,19.5,3,5
18518.89,-0.961,0.233,0.133,-55.85,22.74,23.38,3,5
18518.906,-0.935,0.252,0.14,-53.13,19.93,25.91,3,5
18518.906,-0.937,0.254,0.137,-47.58,18.46,25.7,3,5
18518.921,-0.944,0.21,0.125,-43.89,14.19,27.71,3,5
18518.921,-0.93,0.229,0.118,-41.84,11.84,29.15,3,5
18518.937,-0.93,0.235,0.11,-39.61,11.63,29.24,3,5
18518.937,-0.929,0.202,0.104,-38.64,10.68,31.19,3,5
18518.953,-0.917,0.225,0.102,-36.99,11.63,30.15,3,5
18518.968,-0.924,0.213,0.098,-34.91,15.35,27.13,3,5
18518.984,-0.939,0.195,0.096,-35.22,18.49,24.75,3,5
18518.984,-0.936,0.222,0.099,-35.22,21.76,20.36,3,5
18519.0,-0.948,0.221,0.098,-34.97,25.85,16.14,3,5
18519.0,-0.951,0.234,0.098,-35.28,28.2,13.0,3,5
18519.015,-0.949,0.271,0.092,-34.58,30.64,8.61,3,5
18519.031,-0.96,0.286,0.082,-34.15,33.48,4.67,3,5
18519.031,-0.956,0.306,0.08,-35.1,35.52,2.01,3,5
18519.046,-0.944,0.347,0.086,-34.49,39.67,-1.4,3,5
18519.062,-0.944,0.358,0.094,-31.5,45.41,-4.76,3,5
18519.062,-0.95,0.356,0.1,-27.5,49.68,-6.9,3,5
18519.078,-0.952,0.37,0.106,-21.58,53.22,-8.48,3,5
18519.078,-0.954,0.374,0.107,-13.7,56.25,-9.22,3,5
18519.093,-0.951,0.381,0.103,-6.13,56.7,-9.31,3,5
18519.109,-0.958,0.394,0.096,1.74,57.01,-8.73,3,5
18519.125,-0.964,0.41,0.081,9.92,57.34,-7.02,3,5
18519.125,-0.974,0.424,0.074,17.7,56.34,-3.97,3,5
18519.14,-0.987,0.434,0.069,26.89,55.67,0.24,3,5
18519.14,-0.997,0.445,0.063,36.9,56.95,5.28,3,5
18519.156,-0.996,0.458,0.055,45.14,59.24,9.61,3,5
18519.171,-0.996,0.479,0.047,51.24,62.41,11.84,3,5
18519.171,-0.988,0.497,0.024,56.0,67.9,13.21,3,5
18519.187,-0.956,0.508,-0.009,58.05,75.44,13.18,3,5
18519.203,-0.951,0.516,-0.042,56.37,83.56,11.63,3,5
18519.203,-0.946,0.521,-0.076,50.81,92.32,10.59,3,5
18519.218,-0.918,0.532,-0.101,41.75,101.08,9.06,3,5
18519.218,-0.906,0.545,-0.128,29.97,109.78,6.26,3,5
18519.234,-0.908,0.546,-0.151,15.84,119.82,4.79,3,5
18519.25,-0.915,0.542,-0.163,0.31,130.01,4.73,3,5
18519.25,-0.919,0.532,-0.156,-16.05,137.7,5.46,3,5
18519.265,-0.993,0.542,-0.212,-31.62,143.86,8.12,3,5
18519.281,-0.877,0.505,-0.105,-51.73,149.78,16.75,3,5
18519.296,-0.808,0.408,-0.017,-58.69,135.99,5.37,3,5
18519.296,-0.977,0.398,-0.086,-54.29,124.18,-7.51,3,5
18519.312,-0.989,0.493,-0.095,-55.51,112.64,-6.2,3,5
18519.312,-0.897,0.479,-0.062,-55.3,105.99,-0.34,3,5
18519.328,-0.888,0.484,-0.062,-59.63,94.09,1.19,3,5
18519.328,-0.9,0.506,-0.045,-65.03,81.27,3.36,3,5
18519.343,-1.019,0.533,0.09,-62.75,68.3,6.41,3,5
18519.359,-1.028,0.489,0.332,-47.3,37.81,21.49,3,5
18519.375,-0.905,0.541,0.293,-35.13,-10.01,34.55,3,5
18519.375,-0.823,0.646,0.166,-35.77,-35.83,43.09,3,5
18519.39,-0.85,0.593,0.073,-31.37,-40.28,48.07,3,5
18519.39,-0.875,0.485,0.042,-22.46,-44.98,51.67,3,5
18519.406,-0.789,0.419,0.14,-9.64,-44.8,54.99,3,5
18519.421,-0.804,0.426,0.077,5.58,-38.61,48.28,3,5
18519.421,-0.808,0.504,-0.033,7.97,-30.58,38.15,3,5
18519.437,-0.77,0.556,-0.057,1.95,-27.5,33.91,3,5
18519.437,-0.763,0.568,-0.098,-0.34,-22.43,32.99,3,5
18519.453,-0.743,0.554,-0.188,0.31,-15.35,34.55,3,5
18519.468,-0.65,0.502,-0.361,-1.16,0.09,33.81,3,5
18519.468,-0.677,0.501,-0.319,-6.9,19.93,23.47,3,5
18519.484,-0.807,0.52,-0.188,-10.1,30.95,16.48,3,5
18519.5,-0.765,0.533,-0.118,-21.39,26.18,18.43,3,5
18519.5,-0.741,0.528,-0.156,-28.35,21.76,14.59,3,5
18519.515,-0.782,0.515,-0.183,-32.9,21.36,9.95,3,5
18519.531,-0.782,0.501,-0.164,-41.57,15.53,8.27,3,5
18519.531,-0.784,0.49,-0.163,-44.98,8.67,4.94,3,5
18519.546,-0.778,0.511,-0.194,-45.01,5.8,4.09,3,5
18519.562,-0.767,0.517,-0.248,-43.76,6.56,5.49,3,5
18519.562,-0.749,0.52,-0.281,-44.22,10.04,6.13,3,5
18519.578,-0.742,0.528,-0.268,-42.51,14.5,6.26,3,5
18519.578,-0.734,0.503,-0.276,-34.27,19.78,6.81,3,5
18519.593,-0.722,0.509,-0.287,-25.61,26.49,7.66,3,5
18519.609,-0.706,0.516,-0.286,-13.89,33.6,6.35,3,5
18519.609,-0.709,0.515,-0.284,-15.44,32.11,4.82,3,5
18519.625,-0.703,0.534,-0.265,-20.42,29.08,2.9,3,5
18519.64,-0.691,0.553,-0.269,-30.85,26.49,1.01,3,5
18519.656,-0.635,0.565,-0.255,-44.56,26.0,-1.5,3,5
18519.656,-0.561,0.502,-0.337,-44.86,37.69,-0.95,3,5
18519.671,-0.614,0.319,-0.542,-18.52,69.09,-5.86,3,5
18519.671,-0.673,0.433,-0.464,-18.56,90.67,-15.38,3,5
18519.687,-0.665,0.594,-0.276,-33.94,93.02,-21.33,3,5
18519.703,-0.673,0.529,-0.211,-37.2,93.11,-24.45,3,5
18519.703,-0.699,0.476,-0.226,-38.24,92.84,-26.64,3,5
18519.718,-0.712,0.46,-0.234,-41.69,87.8,-29.24,3,5
18519.734,-0.728,0.458,-0.207,-47.7,78.74,-34.33,3,5
18519.734,-0.765,0.459,-0.147,-54.29,70.71,-38.36,3,5
18519.75,-0.816,0.447,-0.01,-57.25,57.5,-39.89,3,5
18519.75,-0.846,0.414,0.035,-51.64,36.1,-38.36,3,5
18519.765,-0.831,0.436,-0.044,-50.23,18.22,-34.21,3,5
18519.781,-0.826,0.45,-0.131,-52.1,10.56,-30.34,3,5
18519.781,-0.819,0.422,-0.205,-52.37,9.06,-28.35,3,5
18519.796,-0.797,0.372,-0.264,-49.78,15.32,-28.57,3,5
18519.812,-0.803,0.342,-0.301,-43.58,27.92,-31.16,3,5
18519.812,-0.81,0.332,-0.313,-36.16,39.37,-33.85,3,5
18519.828,-0.819,0.331,-0.334,-26.22,49.53,-36.04,3,5
18519.828,-0.844,0.359,-0.363,-17.64,58.9,-37.9,3,5
18519.843,-0.877,0.399,-0.375,-13.25,62.47,-38.36,3,5
18519.859,-0.895,0.424,-0.386,-10.01,63.2,-36.32,3,5
18519.859,-0.928,0.448,-0.375,-5.98,63.26,-33.51,3,5
18519.875,-0.947,0.459,-0.36,-0.79,59.45,-29.79,3,5
18519.89,-0.945,0.46,-0.356,2.84,52.55,-25.36,3,5
18519.89,-0.956,0.466,-0.355,2.35,46.27,-21.45,3,5
18519.906,-0.958,0.464,-0.368,-1.4,39.86,-17.18,3,5
18519.921,-0.94,0.459,-0.351,-6.74,35.86,-12.24,3,5
18519.921,-0.944,0.45,-0.347,-8.82,31.68,-8.39,3,5
18519.937,-0.936,0.453,-0.325,-7.84,29.94,-3.39,3,5
18519.953,-0.926,0.439,-0.327,-3.54,25.45,-0.12,3,5
18519.953,-0.902,0.428,-0.344,0.73,25.79,2.35,3,5
18519.968,-0.885,0.463,-0.292,2.11,24.38,4.24,3,5
18519.968,-0.846,0.443,-0.298,6.53,19.75,6.29,3,5
18519.984,-0.825,0.446,-0.313,9.22,17.79,8.12,3,5
18520.0,-0.817,0.449,-0.316,12.7,15.78,10.5,3,5
18520.015,-0.795,0.434,-0.324,17.55,12.88,12.82,3,5
18520.015,-0.772,0.452,-0.317,22.34,11.44,13.61,3,5
18520.031,-0.754,0.437,-0.332,29.15,12.67,13.15,3,5
18520.031,-0.747,0.432,-0.356,32.81,13.21,11.14,3,5
18520.046,-0.731,0.454,-0.373,32.2,15.02,8.58,3,5
18520.062,-0.728,0.45,-0.371,31.71,17.0,5.8,3,5
18520.062,-0.725,0.445,-0.403,32.75,19.62,3.91,3,5
18520.078,-0.693,0.565,-0.563,29.79,33.91,7.69,3,5
18520.093,-0.716,0.572,-0.346,28.75,42.57,14.53,3,5
18520.093,-0.711,0.413,-0.372,49.68,39.25,14.86,3,5
18520.109,-0.709,0.527,-0.362,55.51,42.24,16.33,3,5
18520.109,-0.745,0.605,-0.352,53.83,39.52,16.42,3,5
18520.125,-0.774,0.564,-0.33,48.01,29.63,19.9,3,5
18520.14,-0.789,0.527,-0.292,41.29,16.21,23.74,3,5
18520.14,-0.807,0.505,-0.295,35.25,1.83,26.0,3,5
18520.156,-0.803,0.492,-0.34,27.74,-10.19,26.61,3,5
18520.171,-0.795,0.443,-0.38,21.0,-17.27,24.2,3,5
18520.171,-0.783,0.405,-0.411,16.97,-19.71,19.29,3,5
18520.187,-0.769,0.393,-0.414,17.52,-18.22,14.34,3,5
18520.203,-0.767,0.377,-0.423,22.25,-16.39,10.19,3,5
18520.203,-0.761,0.386,-0.432,26.15,-14.56,8.64,3,5
18520.218,-0.768,0.392,-0.455,29.76,-12.88,8.85,3,5
18520.218,-0.798,0.402,-0.462,32.01,-14.31,10.56,3,5
18520.234,-0.808,0.43,-0.459,30.64,-22.1,14.22,3,5
18520.25,-0.808,0.454,-0.466,26.76,-32.78,17.94,3,5
18520.265,-0.809,0.453,-0.492,20.14,-43.46,20.72,3,5
18520.265,-0.811,0.453,-0.498,12.76,-51.36,22.8,3,5
18520.281,-0.8,0.432,-0.486,9.52,-57.59,24.75,3,5
18520.281,-0.815,0.452,-0.457,8.85,-65.86,27.5,3,5
18520.296,-0.818,0.474,-0.457,2.01,-79.38,33.88,3,5
18520.312,-0.811,0.445,-0.391,-7.54,-96.59,39.37,3,5
18520.312,-0.829,0.38,-0.361,-2.62,-111.94,42.48,3,5
18520.328,-0.84,0.39,-0.34,8.48,-123.42,45.38,3,5
18520.343,-0.834,0.379,-0.297,17.76,-131.63,46.48,3,5
18520.343,-0.824,0.355,-0.27,25.3,-135.29,44.53,3,5
18520.359,-0.831,0.381,-0.259,31.37,-134.16,41.81,3,5
18520.359,-0.869,0.483,-0.235,32.65,-133.18,43.06,3,5
18520.375,-0.846,0.505,-0.207,26.37,-136.02,50.9,3,5
18520.39,-0.82,0.416,-0.179,20.42,-138.86,53.62,3,5
18520.39,-0.834,0.354,-0.118,20.81,-140.63,48.55,3,5
18520.406,-0.819,0.331,-0.022,29.6,-140.66,38.24,3,5
18520.421,-0.816,0.323,0.042,40.74,-136.94,24.38,3,5
18520.421,-0.839,0.343,0.034,44.86,-133.34,10.01,3,5
18520.437,-0.856,0.426,0.027,38.42,-130.13,2.75,3,5
18520.453,-0.865,0.447,0.029,29.02,-133.73,0.98,3,5
18520.453,-0.86,0.389,0.03,24.29,-138.46,1.71,3,5
18520.468,-0.854,0.368,0.01,30.88,-139.32,4.09,3,5
18520.468,-0.858,0.383,-0.031,46.17,-135.65,7.51,3,5
18520.484,-0.856,0.42,-0.052,63.51,-128.09,10.77,3,5
18520.5,-0.863,0.444,-0.096,78.98,-121.37,15.32,3,5
18520.5,-0.866,0.496,0.003,90.46,-118.38,20.08,3,5
18520.515,-0.914,0.404,0.569,117.16,-135.04,25.06,3,5
18520.531,-1.026,-0.089,0.257,131.66,-222.08,8.42,3,5
18520.531,-1.003,0.541,-0.309,66.9,-256.36,-15.75,3,5
18520.546,-1.006,0.933,-0.205,6.5,-234.53,-4.88,3,5
18520.562,-0.863,0.409,-0.204,-15.72,-212.44,-6.93,3,5
18520.562,-0.809,0.216,-0.301,-16.39,-162.02,-25.15,3,5
18520.578,-0.882,0.559,-0.374,-5.01,-102.51,-42.39,3,5
18520.578,-0.893,0.694,-0.391,4.43,-25.15,-50.05,3,5
18520.593,-0.869,0.645,-0.312,6.9,-9.25,-47.36,3,5
18520.609,-0.908,0.69,-0.19,14.31,-14.07,-38.33,3,5
18520.609,-0.951,0.753,-0.158,18.83,-27.92,-22.16,3,5
18520.625,-0.918,0.707,-0.131,26.92,-40.93,-2.96,3,5
18520.64,-0.863,0.637,-0.17,42.09,-51.55,15.96,3,5
18520.64,-0.789,0.59,-0.252,55.79,-54.96,29.6,3,5
18520.656,-0.751,0.581,-0.3,67.45,-45.17,37.93,3,5
18520.671,-0.715,0.541,-0.338,77.94,-27.83,45.66,3,5
18520.671,-0.688,0.488,-0.352,82.83,-7.87,50.69,3,5
18520.687,-0.708,0.457,-0.349,84.51,12.48,52.49,3,5
18520.687,-0.693,0.43,-0.295,82.22,26.95,53.77,3,5
18520.703,-0.657,0.412,-0.222,77.15,34.09,49.78,3,5
18520.718,-0.707,0.432,-0.165,74.56,35.74,40.89,3,5
18520.718,-0.687,0.487,-0.235,62.72,34.82,35.43,3,5
18520.734,-0.642,0.547,-0.072,37.26,38.73,23.22,3,5
18520.75,-0.737,0.491,-0.016,26.4,37.51,6.62,3,5
18520.75,-0.783,0.491,-0.026,12.21,28.47,0.46,3,5
18520.765,-0.759,0.52,0.015,-5.58,18.92,-2.38,3,5
18520.781,-0.766,0.531,0.061,-16.88,10.13,-7.35,3,5
18520.781,-0.796,0.521,0.081,-23.44,0.73,-8.91,3,5
18520.796,-0.802,0.53,0.087,-27.56,-9.06,-7.23,3,5
18520.812,-0.811,0.555,0.088,-27.22,-17.18,-4.39,3,5
18520.812,-0.8,0.575,0.085,-23.16,-22.92,0.61,3,5
18520.828,-0.779,0.587,0.091,-16.05,-26.86,5.49,3,5
18520.828,-0.768,0.59,0.093,-4.91,-30.27,9.83,3,5
18520.843,-0.744,0.592,0.089,8.64,-32.59,14.68,3,5
18520.859,-0.712,0.612,0.079,22.22,-33.81,18.16,3,5
18520.875,-0.694,0.645,0.06,34.15,-33.81,20.08,3,5
18520.875,-0.684,0.683,0.042,42.73,-32.84,20.36,3,5
18520.89,-0.668,0.72,0.027,46.66,-31.65,19.1,3,5
18520.89,-0.657,0.761,0.014,46.36,-30.15,16.82,3,5
18520.906,-0.655,0.802,-0.001,42.42,-28.11,14.13,3,5
18520.921,-0.65,0.839,-0.016,34.85,-24.51,11.81,3,5
18520.921,-0.656,0.892,0.038,24.99,-19.2,10.04,3,5
18520.937,-0.72,0.925,0.168,17.88,-16.94,9.58,3,5
18520.953,-0.757,0.92,0.156,10.41,-24.81,10.07,3,5
18520.953,-0.773,1.005,0.199,-14.44,-35.4,10.59,3,5
18520.968,-0.781,1.112,0.3,-57.34,-50.29,7.11,3,5
18520.968,-0.689,0.955,0.293,-88.05,-56.52,6.16,3,5
18520.984,-0.691,0.827,0.162,-106.39,-55.94,-3.51,3,5
18521.0,-0.641,0.88,0.172,-121.31,-47.12,-7.93,3,5
18521.0,-0.615,0.873,0.134,-105.38,-29.54,-4.52,3,5
18521.015,-0.63,0.674,0.069,-58.84,-5.25,4.64,3,5
18521.031,-0.723,0.777,0.152,-37.32,11.78,17.06,3,5
18521.046,-0.685,0.94,0.181,-36.53,21.06,30.79,3,5
18521.046,-0.673,0.824,0.166,-28.26,35.4,35.92,3,5
18521.062,-0.728,0.767,0.17,-22.06,49.96,40.96,3,5
18521.062,-0.712,0.821,0.183,-19.41,59.14,47.33,3,5
18521.078,-0.682,0.821,0.177,-19.07,66.41,49.93,3,5
18521.093,-0.683,0.783,0.167,-25.64,72.63,49.68,3,5
18521.093,-0.685,0.773,0.169,-38.73,75.9,47.91,3,5
18521.109,-0.68,0.76,0.177,-54.38,76.33,45.17,3,5
18521.125,-0.684,0.731,0.186,-70.47,74.34,42.05,3,5
18521.125,-0.693,0.704,0.192,-86.15,70.47,39.4,3,5
18521.14,-0.708,0.685,0.204,-99.55,64.94,36.96,3,5
18521.14,-0.723,0.653,0.223,-109.32,59.08,34.49,3,5
18521.156,-0.742,0.627,0.249,-115.54,52.0,32.01,3,5
18521.171,-0.759,0.604,0.261,-118.47,41.63,29.45,3,5
18521.171,-0.769,0.593,0.247,-117.31,26.98,26.34,3,5
18521.187,-0.789,0.602,0.221,-112.49,9.19,22.95,3,5
18521.187,-0.819,0.608,0.198,-105.04,-9.52,21.06,3,5
18521.203,-0.833,0.596,0.188,-95.58,-26.67,20.87,3,5
18521.218,-0.828,0.585,0.186,-83.5,-40.25,21.21,3,5
18521.234,-0.815,0.571,0.174,-69.06,-49.78,21.33,3,5
18521.234,-0.797,0.565,0.157,-54.08,-55.91,21.18,3,5
18521.25,-0.788,0.572,0.138,-39.25,-60.49,21.3,3,5
18521.25,-0.782,0.585,0.118,-25.42,-66.62,23.04,3,5
18521.265,-0.761,0.573,0.095,-14.01,-75.29,26.61,3,5
18521.281,-0.726,0.56,0.075,-4.7,-85.36,29.15,3,5
18521.281,-0.688,0.558,0.054,3.33,-95.03,28.93,3,5
18521.296,-0.654,0.553,0.032,9.67,-102.15,25.3,3,5
18521.312,-0.64,0.545,0.028,13.92,-104.71,19.59,3,5
18521.312,-0.632,0.539,0.015,16.51,-102.79,13.76,3,5
18521.328,-0.616,0.534,0.013,16.97,-96.9,8.24,3,5
18521.328,-0.608,0.533,0.019,18.92,-86.46,4.88,3,5
18521.343,-0.596,0.527,0.01,21.58,-72.79,3.85,3,5
18521.359,-0.581,0.532,0.014,22.28,-58.6,3.02,3,5
18521.359,-0.566,0.536,0.034,22.89,-44.19,0.82,3,5
18521.375,-0.559,0.522,0.057,24.78,-31.04,-3.11,3,5
18521.39,-0.563,0.516,0.087,28.26,-20.11,-8.91,3,5
18521.39,-0.589,0.533,0.115,33.11,-12.82,-14.83,3,5
18521.406,-0.61,0.547,0.132,37.84,-10.1,-19.01,3,5
18521.421,-0.617,0.56,0.143,41.75,-10.41,-21.94,3,5
18521.421,-0.619,0.576,0.152,45.08,-11.14,-25.03,3,5
18521.437,-0.626,0.593,0.157,47.18,-11.63,-28.81,3,5
18521.437,-0.631,0.606,0.158,47.79,-11.78,-32.78,3,5
18521.453,-0.636,0.621,0.16,47.18,-11.11,-36.87,3,5
18521.468,-0.644,0.633,0.162,45.78,-9.25,-40.41,3,5
18521.484,-0.65,0.639,0.165,44.16,-6.84,-43.49,3,5
18521.484,-0.652,0.642,0.17,42.79,-4.33,-45.99,3,5
18521.5,-0.651,0.647,0.172,41.9,-1.98,-47.82,3,5
18521.5,-0.655,0.657,0.176,40.96,0.92,-49.68,3,5
18521.515,-0.661,0.663,0.182,40.22,4.3,-50.66,3,5
18521.531,-0.671,0.661,0.2,39.58,7.9,-50.78,3,5
18521.531,-0.685,0.661,0.224,39.06,11.23,-49.87,3,5
18521.546,-0.701,0.652,0.243,38.45,12.91,-47.67,3,5
18521.562,-0.704,0.631,0.255,36.84,12.91,-44.59,3,5
18521.562,-0.707,0.619,0.266,34.36,11.93,-42.36,3,5
18521.578,-0.709,0.617,0.274,26.52,10.25,-42.73,3,5
18521.578,-0.71,0.625,0.279,19.87,10.71,-44.43,3,5
18521.593,-0.717,0.64,0.286,12.05,11.9,-46.24,3,5
18521.609,-0.741,0.659,0.304,3.78,13.67,-47.46,3,5
18521.609,-0.753,0.66,0.316,-3.75,15.69,-48.25,3,5
18521.625,-0.767,0.652,0.332,-9.98,17.33,-48.68,3,5
18521.64,-0.785,0.64,0.347,-14.1,18.1,-48.77,3,5
18521.64,-0.795,0.617,0.359,-15.26,17.55,-48.65,3,5
18521.656,-0.806,0.602,0.371,-13.86,15.44,-48.55,3,5
18521.671,-0.815,0.594,0.375,-9.86,11.93,-48.46,3,5
18521.671,-0.819,0.592,0.37,-4.3,7.54,-48.74,3,5
18521.687,-0.819,0.596,0.353,1.95,2.96,-49.32,3,5
18521.687,-0.814,0.604,0.334,8.06,-1.1,-50.54,3,5
18521.703,-0.81,0.61,0.315,13.7,-4.21,-52.22,3,5
18521.718,-0.807,0.617,0.291,17.85,-6.26,-53.9,3,5
18521.718,-0.806,0.641,0.263,18.07,-6.99,-54.41,3,5
18521.734,-0.802,0.667,0.235,12.73,-7.35,-54.2,3,5
18521.75,-0.798,0.676,0.216,2.93,-7.93,-53.74,3,5
18521.765,-0.799,0.669,0.218,-8.15,-8.15,-52.8,3,5
18521.765,-0.807,0.649,0.225,-17.3,-8.3,-51.67,3,5
18521.781,-0.812,0.617,0.23,-22.34,-9.03,-50.6,3,5
18521.781,-0.812,0.586,0.238,-22.55,-10.25,-50.2,3,5
18521.796,-0.816,0.567,0.244,-17.88,-11.54,-50.66,3,5
18521.812,-0.821,0.553,0.251,-9.37,-12.85,-51.42,3,5
18521.812,-0.827,0.544,0.251,1.46,-14.25,-52.03,3,5
18521.828,-0.834,0.544,0.248,13.49,-15.56,-51.94,3,5
18521.828,-0.838,0.542,0.241,24.99,-17.21,-50.78,3,5
18521.843,-0.842,0.527,0.239,35.86,-18.98,-50.05,3,5
18521.859,-0.853,0.511,0.233,47.15,-20.87,-50.45,3,5
18521.859,-0.86,0.495,0.223,58.63,-22.98,-50.94,3,5
18521.875,-0.864,0.487,0.21,69.4,-25.18,-51.76,3,5
18521.89,-0.868,0.48,0.196,79.01,-26.8,-53.1,3,5
18521.89,-0.871,0.473,0.182,87.13,-27.92,-54.93,3,5
18521.906,-0.873,0.469,0.17,92.65,-28.99,-57.37,3,5
18521.921,-0.871,0.466,0.164,95.58,-31.16,-60.61,3,5
18521.921,-0.866,0.461,0.152,96.9,-34.18,-64.0,3,5
18521.937,-0.861,0.46,0.138,96.59,-37.26,-67.17,3,5
18521.937,-0.856,0.458,0.124,95.19,-39.95,-69.86,3,5
18521.953,-0.851,0.459,0.114,92.81,-41.44,-72.12,3,5
18521.968,-0.856,0.466,0.105,89.85,-41.84,-73.27,3,5
18521.968,-0.855,0.473,0.097,86.21,-41.32,-72.18,3,5
18521.984,-0.844,0.478,0.09,81.64,-39.74,-69.15,3,5
18522.0,-0.84,0.477,0.082,76.45,-37.17,-64.94,3,5
18522.015,-0.845,0.473,0.075,70.96,-33.72,-60.15,3,5
18522.015,-0.851,0.47,0.074,64.82,-29.97,-55.12,3,5
18522.031,-0.855,0.461,0.075,58.11,-26.12,-49.84,3,5
18522.031,-0.862,0.452,0.078,50.51,-21.64,-44.98,3,5
18522.046,-0.872,0.447,0.08,42.33,-16.63,-41.02,3,5
18522.062,-0.888,0.445,0.088,33.57,-11.26,-38.24,3,5
18522.062,-0.904,0.446,0.104,23.93,-6.07,-35.58,3,5
18522.078,-0.917,0.44,0.12,13.21,-1.22,-32.99,3,5
18522.093,-0.931,0.432,0.137,2.59,2.75,-30.85,3,5
18522.093,-0.938,0.422,0.154,-6.65,5.1,-29.08,3,5
18522.109,-0.946,0.412,0.167,-13.82,6.59,-27.59,3,5
18522.109,-0.952,0.402,0.179,-18.92,7.69,-26.22,3,5
18522.125,-0.959,0.395,0.199,-21.42,8.79,-24.81,3,5
18522.14,-0.976,0.396,0.22,-20.97,8.61,-22.46,3,5
18522.14,-0.995,0.396,0.235,-18.4,6.23,-17.52,3,5
18522.156,-0.997,0.388,0.249,-14.31,2.04,-10.1,3,5
18522.171,-0.983,0.376,0.258,-9.13,-2.47,-2.35,3,5
18522.171,-0.972,0.363,0.263,-3.23,-6.44,3.57,3,5
18522.187,-0.965,0.346,0.261,2.5,-10.22,7.26,3,5
18522.203,-0.963,0.334,0.256,8.0,-13.7,9.55,3,5
18522.203,-0.957,0.327,0.251,13.18,-16.3,11.47,3,5
18522.218,-0.948,0.323,0.238,17.58,-18.07,13.21,3,5
18522.218,-0.937,0.321,0.228,21.12,-18.86,14.92,3,5
18522.234,-0.932,0.318,0.217,23.71,-18.71,16.21,3,5
18522.25,-0.931,0.318,0.21,25.06,-17.73,17.37,3,5
18522.25,-0.928,0.316,0.204,24.93,-16.51,19.07,3,5
18522.265,-0.926,0.31,0.204,23.19,-15.75,20.26,3,5
18522.281,-0.925,0.302,0.207,19.5,-15.99,20.11,3,5
18522.281,-0.926,0.294,0.212,13.7,-17.49,18.86,3,5
18522.296,-0.93,0.293,0.219,7.32,-19.62,17.46,3,5
18522.312,-0.937,0.288,0.227,1.37,-21.06,16.72,3,5
18522.312,-0.939,0.282,0.238,-3.69,-21.27,16.94,3,5
18522.328,-0.943,0.275,0.245,-8.0,-19.62,17.82,3,5
18522.343,-0.949,0.27,0.251,-11.35,-16.48,19.2,3,5
18522.343,-0.952,0.265,0.263,-14.59,-12.73,20.57,3,5
18522.359,-0.955,0.259,0.277,-17.15,-8.51,21.85,3,5
18522.375,-0.962,0.254,0.296,-18.65,-4.55,23.26,3,5
18522.375,-0.967,0.249,0.317,-19.1,-2.01,24.78,3,5
18522.39,-0.975,0.243,0.338,-18.86,-1.1,25.91,3,5
18522.39,-0.983,0.235,0.36,-17.98,-2.62,26.31,3,5
18522.406,-0.987,0.223,0.378,-16.02,-6.96,26.52,3,5
18522.421,-0.986,0.213,0.391,-12.39,-12.54,26.4,3,5
18522.421,-0.985,0.199,0.401,-7.08,-18.43,26.0,3,5
18522.437,-0.987,0.18,0.393,-0.95,-24.9,25.27,3,5
18522.453,-0.977,0.18,0.378,5.52,-30.4,25.12,3,5
18522.453,-0.965,0.188,0.365,12.45,-33.66,25.3,3,5
18522.468,-0.954,0.179,0.352,19.26,-35.0,25.24,3,5
18522.468,-0.954,0.164,0.345,24.75,-35.16,24.78,3,5
18522.484,-0.948,0.155,0.346,29.08,-35.25,23.71,3,5
18522.5,-0.938,0.151,0.345,32.75,-35.65,21.42,3,5
18522.5,-0.934,0.156,0.338,35.43,-35.83,17.94,3,5
18522.515,-0.933,0.172,0.338,36.32,-36.04,13.86,3,5
18522.531,-0.934,0.193,0.341,35.22,-35.83,9.8,3,5
18522.531,-0.939,0.211,0.345,32.87,-35.49,6.1,3,5
18522.546,-0.944,0.219,0.35,30.18,-35.37,3.48,3,5
18522.546,-0.945,0.22,0.354,27.71,-36.07,-0.34,3,5
18522.562,-0.95,0.223,0.36,28.75,-36.93,-2.08,3,5
18522.578,-0.961,0.224,0.363,31.07,-38.82,-3.36,3,5
18522.593,-0.969,0.219,0.37,34.7,-41.99,-3.91,3,5
18522.593,-0.948,0.215,0.369,39.16,-45.59,-4.43,3,5
18522.609,-0.927,0.218,0.365,44.28,-49.04,-5.25,3,5
18522.609,-0.905,0.22,0.351,49.32,-52.67,-5.95,3,5
18522.625,-0.885,0.218,0.341,54.81,-56.06,-7.02,3,5
18522.64,-0.867,0.213,0.326,60.55,-58.99,-8.58,3,5
18522.64,-0.859,0.203,0.305,67.35,-62.5,-10.44,3,5
18522.656,-0.843,0.193,0.283,74.8,-66.23,-11.29,3,5
18522.671,-0.82,0.205,0.261,82.64,-68.45,-12.54,3,5
18522.671,-0.808,0.205,0.238,90.03,-70.71,-13.89,3,5
18522.687,-0.785,0.208,0.22,95.77,-72.91,-15.56,3,5
18522.687,-0.771,0.22,0.208,100.25,-74.28,-17.76,3,5
18522.703,-0.757,0.234,0.192,102.94,-75.41,-19.59,3,5
18522.718,-0.739,0.251,0.176,103.98,-75.96,-21.33,3,5
18522.718,-0.73,0.264,0.174,104.1,-76.27,-23.19,3,5
18522.734,-0.723,0.29,0.18,103.67,-75.96,-25.15,3,5
18522.75,-0.73,0.305,0.179,103.43,-77.06,-26.67,3,5
18522.75,-0.723,0.301,0.17,103.61,-78.74,-27.65,3,5
18522.765,-0.718,0.317,0.171,104.37,-78.98,-29.57,3,5
18522.781,-0.714,0.337,0.17,105.75,-78.77,-32.35,3,5
18522.781,-0.704,0.348,0.161,106.33,-77.91,-35.28,3,5
18522.796,-0.693,0.365,0.157,105.66,-76.05,-38.82,3,5
18522.796,-0.68,0.384,0.158,104.43,-72.79,-42.57,3,5
18522.812,-0.678,0.405,0.16,102.45,-68.48,-46.45,3,5
18522.828,-0.67,0.422,0.165,99.58,-63.81,-49.35,3,5
18522.843,-0.673,0.446,0.169,96.62,-59.3,-52.46,3,5
18522.843,-0.667,0.457,0.173,93.72,-54.57,-54.48,3,5
18522.859,-0.662,0.482,0.18,90.58,-48.62,-55.94,3,5
18522.859,-0.665,0.506,0.187,87.22,-42.91,-57.16,3,5
18522.875,-0.667,0.527,0.19,83.35,-36.87,-57.95,3,5
18522.89,-0.671,0.548,0.188,79.13,-29.85,-59.02,3,5
18522.906,-0.682,0.572,0.195,74.5,-22.25,-60.37,3,5
18522.906,-0.699,0.59,0.205,69.89,-14.74,-60.98,3,5
18522.921,-0.718,0.608,0.215,65.89,-7.9,-60.34,3,5
18522.921,-0.74,0.626,0.228,62.41,-1.65,-58.66,3,5
18522.937,-0.762,0.644,0.242,59.39,3.81,-55.82,3,5
18522.937,-0.777,0.661,0.253,56.15,8.45,-52.34,3,5
18522.953,-0.786,0.672,0.264,51.94,12.54,-49.01,3,5
18522.968,-0.788,0.681,0.271,46.45,16.6,-46.33,3,5
18522.968,-0.785,0.69,0.28,39.37,21.21,-44.4,3,5
18522.984,-0.784,0.697,0.29,31.28,25.85,-42.66,3,5
18523.0,-0.781,0.694,0.301,22.61,29.82,-40.01,3,5
18523.0,-0.78,0.687,0.317,14.53,33.14,-35.98,3,5
18523.015,-0.784,0.672,0.333,8.09,35.68,-31.04,3,5
18523.031,-0.791,0.646,0.345,3.72,36.81,-25.79,3,5
18523.031,-0.798,0.626,0.36,1.22,36.56,-20.91,3,5
18523.046,-0.803,0.595,0.4,0.67,35.07,-16.36,3,5
18523.062,-0.813,0.554,0.445,7.48,32.29,-13.0,3,5
18523.062,-0.827,0.537,0.48,23.01,29.39,-9.86,3,5
18523.078,-0.849,0.543,0.509,43.46,24.81,-6.29,3,5
18523.078,-0.839,0.536,0.471,63.2,18.74,-2.78,3,5
18523.093,-0.837,0.554,0.422,72.51,14.4,-3.02,3,5
18523.109,-0.847,0.571,0.402,73.46,11.02,-5.46,3,5
18523.125,-0.851,0.557,0.383,69.37,7.48,-8.12,3,5
18523.125,-0.862,0.546,0.36,62.65,4.64,-9.77,3,5
18523.14,-0.85,0.538,0.32,55.57,3.3,-9.46,3,5
18523.14,-0.839,0.532,0.283,46.97,3.97,-9.58,3,5
18523.156,-0.832,0.519,0.256,37.84,6.35,-9.67,3,5
18523.171,-0.821,0.497,0.23,29.3,9.61,-9.83,3,5
18523.171,-0.819,0.48,0.213,21.82,13.37,-10.41,3,5
18523.187,-0.825,0.467,0.207,15.66,16.82,-10.83,3,5
18523.187,-0.835,0.453,0.205,10.04,19.07,-10.47,3,5
18523.203,-0.847,0.446,0.206,4.85,19.65,-8.97,3,5
18523.218,-0.846,0.43,0.202,-0.03,19.14,-6.38,3,5
18523.234,-0.85,0.421,0.207,-5.04,18.19,-4.33,3,5
18523.234,-0.863,0.416,0.221,-9.13,16.75,-2.75,3,5
18523.25,-0.881,0.41,0.231,-12.21,14.13,-0.79,3,5
18523.25,-0.89,0.406,0.236,-14.65,9.8,1.86,3,5
18523.265,-0.896,0.409,0.239,-17.0,5.04,4.0,3,5
18523.281,-0.897,0.403,0.237,-19.68,0.49,5.4,3,5
18523.281,-0.9,0.396,0.233,-22.61,-4.06,5.86,3,5
18523.296,-0.901,0.388,0.233,-25.27,-8.33,5.49,3,5
18523.312,-0.905,0.386,0.235,-27.16,-12.45,5.16,3,5
18523.312,-0.909,0.387,0.245,-28.53,-16.21,5.34,3,5
18523.328,-0.925,0.394,0.256,-28.17,-20.14,6.56,3,5
18523.328,-0.93,0.395,0.251,-26.28,-25.06,9.06,3,5
18523.343,-0.93,0.405,0.261,-24.87,-30.03,11.9,3,5
18523.359,-0.935,0.398,0.265,-22.61,-35.4,14.34,3,5
18523.359,-0.939,0.4,0.256,-21.06,-41.26,15.84,3,5
18523.375,-0.933,0.42,0.26,-21.45,-46.51,16.42,3,5
18523.39,-0.945,0.429,0.269,-22.22,-52.31,16.36,3,5
18523.39,-0.951,0.416,0.257,-23.93,-58.75,17.15,3,5
18523.406,-0.948,0.425,0.26,-26.92,-63.88,17.82,3,5
18523.421,-0.948,0.426,0.272,-28.38,-67.81,17.79,3,5
18523.421,-0.954,0.415,0.282,-28.14,-71.87,17.58,3,5
18523.437,-0.94,0.402,0.274,-26.61,-75.72,18.13,3,5
18523.453,-0.924,0.405,0.271,-24.35,-78.4,17.85,3,5
18523.453,-0.911,0.41,0.272,-21.97,-79.84,16.14,3,5
18523.468,-0.913,0.428,0.266,-20.69,-80.66,14.1,3,5
18523.468,-0.897,0.438,0.242,-22.34,-81.64,13.95,3,5
18523.484,-0.865,0.455,0.231,-27.44,-81.0,14.25,3,5
18523.5,-0.847,0.467,0.229,-33.81,-77.79,14.19,3,5
18523.5,-0.837,0.471,0.229,-41.26,-73.55,14.74,3,5
18523.515,-0.823,0.474,0.242,-49.5,-68.91,16.54,3,5
18523.531,-0.819,0.477,0.255,-56.28,-63.91,19.59,3,5
18523.531,-0.81,0.459,0.263,-60.76,-59.21,23.62,3,5
18523.546,-0.802,0.452,0.285,-63.72,-49.35,31.74,3,5
18523.546,-0.796,0.437,0.298,-63.02,-44.62,34.39,3,5
18523.562,-0.781,0.419,0.306,-61.13,-39.19,35.31,3,5
18523.578,-0.767,0.399,0.33,-58.44,-33.72,34.97,3,5
18523.578,-0.762,0.39,0.338,-55.33,-28.57,33.66,3,5
18523.593,-0.762,0.395,0.353,-51.97,-23.77,31.77,3,5
18523.609,-0.766,0.403,0.358,-49.01,-19.9,30.43,3,5
18523.625,-0.765,0.409,0.366,-47.73,-17.03,29.69,3,5
18523.625,-0.769,0.415,0.383,-46.88,-14.44,28.96,3,5
18523.64,-0.774,0.415,0.395,-46.3,-12.39,28.29,3,5
18523.64,-0.769,0.413,0.402,-45.87,-10.99,27.99,3,5
18523.656,-0.763,0.417,0.411,-45.32,-9.09,27.1,3,5
18523.671,-0.756,0.411,0.417,-44.22,-6.93,25.42,3,5
18523.671,-0.745,0.408,0.424,-42.82,-4.7,22.83,3,5
18523.687,-0.745,0.413,0.437,-40.65,-2.2,20.14,3,5
18523.703,-0.745,0.416,0.444,-37.72,-0.27,18.13,3,5
18523.703,-0.731,0.417,0.443,-34.64,1.13,17.03,3,5
18523.718,-0.71,0.413,0.446,-31.53,3.48,15.53,3,5
18523.718,-0.713,0.423,0.456,-27.89,6.68,13.34,3,5
18523.734,-0.713,0.426,0.451,-23.99,9.58,12.27,3,5
18523.75,-0.704,0.436,0.453,-22.16,12.02,12.18,3,5
18523.75,-0.695,0.445,0.455,-21.61,15.38,12.18,3,5
18523.765,-0.693,0.441,0.452,-21.55,19.56,11.57,3,5
18523.781,-0.696,0.443,0.458,-22.46,24.05,10.71,3,5
18523.796,-0.708,0.446,0.469,-22.98,28.38,9.86,3,5
18523.796,-0.731,0.447,0.486,-22.98,31.71,9.64,3,5
18523.812,-0.758,0.457,0.511,-22.64,32.78,10.59,3,5
18523.812,-0.778,0.457,0.527,-21.61,31.34,13.15,3,5
18523.828,-0.78,0.457,0.536,-20.97,27.74,16.51,3,5
18523.828,-0.774,0.462,0.535,-21.42,23.29,19.23,3,5
18523.843,-0.762,0.458,0.527,-23.47,18.86,20.91,3,5
18523.859,-0.748,0.454,0.524,-26.0,15.05,21.7,3,5
18523.875,-0.742,0.45,0.524,-27.41,12.6,21.94,3,5
18523.875,-0.738,0.44,0.514,-28.14,11.66,21.97,3,5
18523.89,-0.736,0.432,0.506,-28.99,12.09,21.88,3,5
18523.89,-0.739,0.425,0.506,-29.27,13.76,21.73,3,5
18523.906,-0.765,0.43,0.513,-29.54,15.26,21.42,3,5
18523.921,-0.804,0.45,0.534,-31.74,13.28,22.25,3,5
18523.921,-0.824,0.458,0.541,-37.2,6.44,23.99,3,5
18523.937,-0.819,0.463,0.544,-46.33,-2.44,25.67,3,5
18523.953,-0.819,0.491,0.572,-58.87,-11.75,26.67,3,5
18523.953,-0.829,0.533,0.613,-74.01,-21.36,29.18,3,5
18523.968,-0.827,0.551,0.609,-90.24,-30.64,34.7,3,5
18523.968,-0.809,0.559,0.577,-110.08,-37.84,44.25,3,5
18523.984,-0.793,0.549,0.567,-132.79,-42.39,56.18,3,5
18524.0,-0.778,0.512,0.551,-151.62,-44.74,68.67,3,5
18524.0,-0.723,0.478,0.551,-165.32,-45.38,79.17,3,5
18524.015,-0.74,0.493,0.561,-177.77,-45.93,85.45,3,5
18524.031,-0.746,0.497,0.566,-192.08,-46.97,93.78,3,5
18524.031,-0.731,0.435,0.58,-202.15,-48.62,103.15,3,5
18524.046,-0.709,0.358,0.599,-202.25,-48.31,111.85,3,5
18524.062,-0.676,0.307,0.622,-191.66,-44.34,118.35,3,5
18524.062,-0.687,0.288,0.651,-173.8,-39.49,121.07,3,5
18524.078,-0.699,0.266,0.656,-156.41,-37.14,123.23,3,5
18524.093,-0.646,0.253,0.664,-144.81,-37.14,123.05,3,5
18524.093,-0.605,0.254,0.668,-136.05,-36.53,117.86,3,5
18524.109,-0.593,0.234,0.657,-128.54,-35.71,109.81,3,5
18524.125,-0.571,0.215,0.67,-122.26,-35.04,101.93,3,5
18524.125,-0.54,0.202,0.683,-114.2,-33.05,94.97,3,5
18524.14,-0.522,0.204,0.665,-105.08,-30.3,89.27,3,5
18524.14,-0.498,0.204,0.664,-97.54,-25.51,86.4,3,5
18524.156,-0.457,0.169,0.714,-90.73,-15.96,84.99,3,5
18524.171,-0.449,0.111,0.772,-83.62,-2.14,82.55,3,5
18524.171,-0.482,0.084,0.814,-77.33,9.03,77.49,3,5
18524.187,-0.517,0.083,0.844,-70.68,14.4,69.98,3,5
18524.203,-0.535,0.072,0.852,-62.9,14.8,59.88,3,5
18524.203,-0.541,0.079,0.85,-55.76,12.02,47.36,3,5
18524.218,-0.532,0.099,0.836,-48.52,7.87,33.91,3,5
18524.218,-0.504,0.11,0.812,-41.23,3.51,20.66,3,5
18524.234,-0.479,0.137,0.793,-32.75,1.5,8.15,3,5
18524.25,-0.488,0.18,0.778,-23.35,2.5,-0.46,3,5
18524.25,-0.503,0.232,0.758,-17.09,3.78,-3.39,3,5
18524.265,-0.511,0.27,0.766,-17.46,5.65,-2.23,3,5
18524.281,-0.531,0.287,0.783,-24.23,7.48,0.85,3,5
18524.281,-0.551,0.277,0.8,-35.28,6.93,4.27,3,5
18524.296,-0.556,0.241,0.812,-44.98,4.0,6.74,3,5
18524.312,-0.539,0.216,0.816,-48.4,1.22,7.6,3,5
18524.312,-0.524,0.212,0.801,-45.14,0.0,6.65,3,5
18524.328,-0.512,0.216,0.783,-38.82,0.67,5.77,3,5
18524.328,-0.531,0.26,0.783,-33.11,3.48,6.2,3,5
18524.343,-0.568,0.317,0.792,-32.47,5.13,10.53,3,5
18524.359,-0.597,0.37,0.799,-39.16,3.97,19.26,3,5
18524.359,-0.601,0.392,0.793,-50.36,1.62,31.22,3,5
18524.375,-0.577,0.389,0.784,-63.05,-0.49,43.73,3,5
18524.39,-0.554,0.381,0.772,-73.43,-0.24,54.78,3,5
18524.39,-0.551,0.38,0.766,-78.83,2.69,63.91,3,5
18524.406,-0.537,0.37,0.767,-81.48,7.11,72.82,3,5
18524.421,-0.519,0.359,0.785,-83.62,12.91,82.09,3,5
18524.421,-0.53,0.346,0.821,-85.36,18.74,91.62,3,5
18524.437,-0.551,0.316,0.871,-87.62,22.34,100.31,3,5
18524.453,-0.586,0.272,0.922,-88.47,22.19,107.24,3,5
18524.453,-0.6,0.216,0.963,-87.92,17.0,111.51,3,5
18524.468,-0.592,0.173,0.983,-85.73,8.85,111.55,3,5
18524.484,-0.573,0.091,0.978,-83.1,-0.64,106.94,3,5
18524.484,-0.549,0.007,0.935,-82.31,-9.52,98.06,3,5
18524.5,-0.516,0.003,0.932,-80.29,-15.11,87.41,3,5
18524.5,-0.486,-0.044,0.924,-68.24,-17.85,74.37,3,5
18524.515,-0.487,-0.04,0.881,-48.71,-17.37,61.43,3,5
18524.531,-0.5,-0.004,0.825,-27.28,-13.06,43.43,3,5
18524.531,-0.487,-0.0,0.825,-22.34,-11.57,33.81,3,5
18524.546,-0.51,-0.01,0.838,-15.11,-11.51,27.34,3,5
18524.562,-0.53,-0.002,0.834,-10.19,-12.6,23.68,3,5
18524.562,-0.522,0.029,0.838,-8.24,-14.68,20.11,3,5
18524.578,-0.498,0.022,0.842,-6.38,-17.21,15.44,3,5
18524.593,-0.49,0.037,0.836,0.27,-17.7,9.74,3,5
18524.593,-0.504,0.064,0.812,9.0,-18.13,5.52,3,5
18524.609,-0.493,0.115,0.777,14.01,-18.56,3.75,3,5
18524.625,-0.491,0.153,0.749,14.5,-17.03,1.95,3,5
18524.625,-0.486,0.152,0.744,12.02,-14.53,0.34,3,5
18524.64,-0.499,0.167,0.748,8.51,-11.35,0.34,3,5
18524.64,-0.51,0.186,0.755,4.67,-8.45,2.35,3,5
18524.656,-0.533,0.184,0.767,0.09,-6.78,5.98,3,5
18524.671,-0.545,0.17,0.771,-5.95,-6.44,9.8,3,5
18524.687,-0.549,0.151,0.783,-11.57,-6.65,12.39,3,5
18524.687,-0.554,0.129,0.798,-14.56,-7.72,12.76,3,5
18524.687,-0.548,0.105,0.798,-13.86,-9.67,11.05,3,5
18524.703,-0.531,0.105,0.788,-9.77,-10.53,8.3,3,5
18524.718,-0.522,0.128,0.77,-5.31,-9.22,5.37,3,5
18524.734,-0.518,0.148,0.759,-3.45,-7.05,4.24,3,5
18524.734,-0.522,0.172,0.75,-5.4,-4.0,6.04,3,5
18524.75,-0.525,0.176,0.743,-11.47,-0.4,10.99,3,5
18524.75,-0.533,0.167,0.756,-20.81,3.88,17.67,3,5
18524.765,-0.543,0.139,0.768,-29.36,7.45,24.38,3,5
18524.781,-0.549,0.116,0.774,-35.55,10.22,30.3,3,5
18524.781,-0.539,0.103,0.777,-40.41,11.99,34.0,3,5
18524.796,-0.54,0.092,0.778,-45.01,13.21,35.1,3,5
18524.812,-0.544,0.089,0.785,-49.01,14.89,36.38,3,5
18524.812,-0.539,0.086,0.79,-51.82,17.0,39.22,3,5
18524.828,-0.53,0.069,0.797,-54.87,20.08,42.48,3,5
18524.828,-0.509,0.031,0.814,-57.34,24.05,44.62,3,5
18524.843,-0.506,0.003,0.825,-56.7,28.38,44.77,3,5
18524.859,-0.519,-0.008,0.857,-52.58,33.23,44.1,3,5
18524.859,-0.549,-0.024,0.888,-46.36,36.04,42.7,3,5
18524.875,-0.573,-0.032,0.916,-39.92,34.91,42.05,3,5
18524.89,-0.589,-0.038,0.935,-33.78,30.55,41.81,3,5
18524.89,-0.582,-0.05,0.936,-30.43,24.11,41.17,3,5
18524.906,-0.568,-0.061,0.941,-30.82,17.06,38.79,3,5
18524.921,-0.555,-0.081,0.934,-31.16,10.38,34.61,3,5
18524.921,-0.536,-0.093,0.917,-30.03,4.94,29.45,3,5
18524.937,-0.524,-0.09,0.901,-27.01,1.25,23.59,3,5
18524.953,-0.514,-0.086,0.877,-22.34,-0.85,18.19,3,5
18524.953,-0.502,-0.068,0.853,-18.83,-1.19,14.19,3,5
18524.968,-0.489,-0.058,0.836,-16.51,0.0,11.08,3,5
18524.968,-0.495,-0.05,0.83,-14.92,2.38,8.88,3,5
18524.984,-0.506,-0.039,0.831,-14.04,4.15,7.23,3,5
18525.0,-0.514,-0.027,0.841,-14.28,4.67,5.65,3,5
18525.0,-0.513,-0.026,0.841,-14.77,3.97,4.09,3,5
18525.015,-0.507,-0.022,0.843,-14.92,3.23,2.62,3,5
18525.031,-0.506,-0.012,0.84,-13.76,2.84,1.53,3,5
18525.031,-0.495,0.005,0.828,-11.84,2.59,0.67,3,5
18525.046,-0.488,0.019,0.821,-10.28,3.69,0.09,3,5
18525.046,-0.487,0.032,0.817,-10.22,5.83,0.18,3,5
18525.062,-0.486,0.029,0.822,-10.44,8.55,0.64,3,5
18525.078,-0.492,0.03,0.835,-10.22,10.86,0.76,3,5
18525.078,-0.507,0.045,0.85,-9.13,12.18,0.24,3,5
18525.093,-0.54,0.078,0.856,-7.54,12.05,-0.12,3,5
18525.109,-0.544,0.092,0.856,-7.2,9.55,0.98,3,5
18525.109,-0.527,0.114,0.847,-8.76,6.53,3.08,3,5
18525.125,-0.514,0.121,0.84,-12.39,5.52,6.04,3,5
18525.14,-0.514,0.116,0.837,-17.49,6.13,9.52,3,5
18525.14,-0.505,0.101,0.844,-22.4,7.08,12.85,3,5
18525.156,-0.5,0.076,0.859,-24.78,8.21,14.77,3,5
18525.171,-0.506,0.047,0.873,-24.08,9.19,14.95,3,5
18525.171,-0.527,0.056,0.878,-21.15,8.79,13.64,3,5
18525.187,-0.556,0.079,0.892,-18.8,6.1,13.15,3,5
18525.203,-0.548,0.086,0.885,-17.94,1.8,13.92,3,5
18525.203,-0.54,0.099,0.881,-18.37,-1.13,14.65,3,5
18525.218,-0.535,0.102,0.876,-19.04,-1.98,16.05,3,5
18525.218,-0.538,0.105,0.862,-19.75,-1.04,18.46,3,5
18525.234,-0.542,0.114,0.858,-22.1,0.92,21.33,3,5
18525.25,-0.553,0.118,0.852,-25.27,1.77,24.84,3,5
18525.265,-0.55,0.11,0.847,-29.24,1.56,29.3,3,5
18525.265,-0.545,0.089,0.844,-34.03,1.16,33.42,3,5
18525.281,-0.54,0.071,0.832,-38.97,0.21,36.26,3,5
18525.281,-0.529,0.052,0.814,-42.7,-0.61,37.84,3,5
18525.296,-0.517,0.027,0.802,-45.32,0.58,39.03,3,5
18525.312,-0.513,0.002,0.797,-45.99,3.36,40.47,3,5
18525.312,-0.516,-0.023,0.792,-44.98,6.78,42.21,3,5
18525.328,-0.525,-0.033,0.79,-43.86,9.83,43.31,3,5
18525.328,-0.539,-0.049,0.8,-43.58,11.75,43.24,3,5
18525.343,-0.55,-0.063,0.816,-43.95,11.84,42.21,3,5
18525.359,-0.552,-0.074,0.827,-44.31,10.28,40.65,3,5
18525.359,-0.548,-0.084,0.831,-44.16,8.42,38.61,3,5
18525.375,-0.541,-0.088,0.825,-42.63,7.2,36.07,3,5
18525.39,-0.538,-0.092,0.815,-40.41,6.99,34.18,3,5
18525.39,-0.537,-0.09,0.803,-38.42,7.54,32.84,3,5
18525.406,-0.539,-0.096,0.794,-37.14,9.13,31.62,3,5
18525.421,-0.549,-0.099,0.791,-36.56,10.86,29.97,3,5
18525.421,-0.57,-0.091,0.79,-36.19,11.9,27.74,3,5
18525.437,-0.574,-0.092,0.788,-35.37,11.96,25.85,3,5
18525.437,-0.574,-0.087,0.791,-34.27,12.3,24.81,3,5
18525.453,-0.572,-0.086,0.797,-32.69,12.85,24.38,3,5
18525.468,-0.563,-0.096,0.807,-30.58,13.82,23.65,3,5
18525.484,-0.568,-0.09,0.801,-27.74,14.5,22.25,3,5
18525.484,-0.577,-0.09,0.803,-27.34,14.68,20.97,3,5
18525.5,-0.569,-0.107,0.817,-26.86,13.61,18.77,3,5
18525.5,-0.575,-0.109,0.798,-24.72,12.39,16.14,3,5
18525.515,-0.571,-0.135,0.791,-19.62,10.71,10.9,3,5
18525.531,-0.578,-0.157,0.775,-14.01,11.35,8.18,3,5
18525.531,-0.586,-0.186,0.761,-6.71,12.42,3.6,3,5
18525.546,-0.551,-0.207,0.721,0.76,15.35,-4.0,3,5
18525.546,-0.553,-0.191,0.724,7.69,20.45,-14.07,3,5
18525.562,-0.573,-0.148,0.751,13.95,25.61,-23.93,3,5
18525.578,-0.613,-0.094,0.78,18.92,27.34,-31.53,3,5
18525.578,-0.636,-0.055,0.807,21.3,26.67,-34.3,3,5
18525.593,-0.642,-0.023,0.825,21.09,24.17,-33.05,3,5
18525.609,-0.642,0.01,0.845,18.43,20.29,-30.06,3,5
18525.609,-0.654,0.026,0.842,14.28,16.57,-25.21,3,5
18525.625,-0.642,0.005,0.827,8.06,12.02,-19.81,3,5
18525.64,-0.596,-0.003,0.832,2.78,8.76,-16.51,3,5
18525.64,-0.601,-0.009,0.824,1.68,7.97,-16.69,3,5
18525.656,-0.601,-0.045,0.822,1.07,7.57,-17.76,3,5
18525.671,-0.592,-0.056,0.842,1.98,7.02,-20.48,3,5
18525.671,-0.607,-0.047,0.849,6.68,6.87,-24.87,3,5
18525.687,-0.65,-0.013,0.844,10.83,4.94,-29.88,3,5
18525.687,-0.659,0.009,0.84,12.27,0.67,-32.23,3,5
18525.703,-0.668,0.044,0.838,12.54,-4.33,-31.89,3,5
18525.718,-0.674,0.071,0.824,12.82,-8.15,-26.7,3,5
18525.718,-0.674,0.093,0.797,8.79,-12.24,-17.43,3,5
18525.734,-0.638,0.093,0.791,-0.18,-15.44,-6.84,3,5
18525.75,-0.61,0.058,0.793,-9.06,-16.54,2.29,3,5
18525.765,-0.603,0.021,0.791,-15.29,-15.66,9.58,3,5
18525.765,-0.62,0.03,0.81,-19.47,-14.92,14.98,3,5
18525.781,-0.623,0.005,0.826,-23.22,-16.88,20.36,3,5
18525.781,-0.595,-0.038,0.83,-27.44,-19.26,25.61,3,5
18525.796,-0.556,-0.068,0.832,-29.48,-20.39,28.41,3,5
18525.812,-0.539,-0.096,0.834,-28.2,-19.87,28.41,3,5
18525.812,-0.542,-0.117,0.837,-25.33,-19.14,26.52,3,5
18525.828,-0.532,-0.127,0.839,-21.12,-19.38,23.19,3,5
18525.843,-0.529,-0.123,0.842,-15.5,-19.32,19.35,3,5
18525.843,-0.56,-0.084,0.841,-9.74,-18.43,16.39,3,5
18525.859,-0.579,-0.061,0.843,-6.32,-19.01,16.66,3,5
18525.859,-0.576,-0.04,0.855,-6.07,-20.54,19.47,3,5
18525.875,-0.561,-0.033,0.859,-6.5,-22.46,21.82,3,5
18525.89,-0.543,-0.034,0.851,-8.36,-23.56,23.22,3,5
18525.89,-0.525,-0.061,0.845,-10.47,-23.83,23.53,3,5
18525.906,-0.509,-0.092,0.832,-9.67,-22.43,22.16,3,5
18525.921,-0.485,-0.103,0.825,-5.77,-19.04,18.52,3,5
18525.921,-0.485,-0.103,0.821,0.21,-14.71,13.55,3,5
18525.937,-0.487,-0.107,0.832,5.95,-10.83,8.18,3,5
18525.937,-0.477,-0.111,0.856,11.93,-7.9,2.5,3,5
18525.953,-0.486,-0.104,0.887,18.8,-6.01,-3.63,3,5
18525.968,-0.509,-0.103,0.927,26.4,-6.38,-8.85,3,5
18525.968,-0.533,-0.098,0.969,34.79,-9.49,-12.91,3,5
18525.984,-0.546,-0.068,1.002,43.61,-15.63,-16.17,3,5
18526.0,-0.568,-0.0,0.995,50.54,-23.65,-18.28,3,5
18526.0,-0.554,0.048,0.961,54.96,-32.23,-18.43,3,5
18526.015,-0.532,0.076,0.934,55.18,-37.78,-16.36,3,5
18526.031,-0.524,0.108,0.906,52.52,-39.77,-12.7,3,5
18526.031,-0.534,0.118,0.885,47.46,-40.31,-8.58,3,5
18526.046,-0.535,0.104,0.863,40.13,-39.8,-3.48,3,5
18526.062,-0.548,0.065,0.833,32.93,-38.64,1.62,3,5
18526.062,-0.537,0.024,0.796,26.92,-37.87,5.07,3,5
18526.078,-0.535,0.007,0.769,22.46,-36.71,5.19,3,5
18526.078,-0.532,0.003,0.742,18.68,-35.83,3.27,3,5
18526.093,-0.516,-0.008,0.734,14.01,-34.97,-0.12,3,5
18526.109,-0.495,-0.002,0.729,11.75,-31.28,-1.68,3,5
18526.109,-0.496,0.019,0.713,11.02,-27.28,-2.17,3,5
18526.125,-0.493,0.009,0.726,8.76,-23.47,-1.37,3,5
18526.14,-0.528,0.054,0.747,7.72,-20.69,0.95,3,5
18526.14,-0.53,0.054,0.735,7.35,-20.29,7.02,3,5
18526.156,-0.502,0.039,0.729,3.91,-20.39,12.42,3,5
18526.171,-0.48,0.038,0.707,0.06,-18.37,15.17,3,5
18526.171,-0.466,0.005,0.694,-3.02,-14.28,15.84,3,5
18526.187,-0.459,-0.027,0.708,-4.61,-9.06,14.19,3,5
18526.187,-0.469,-0.028,0.726,-3.36,-3.08,11.66,3,5
18526.203,-0.477,-0.03,0.745,-0.85,2.44,9.64,3,5
18526.218,-0.487,-0.024,0.767,0.82,6.68,7.6,3,5
18526.218,-0.511,-0.018,0.787,1.59,9.43,5.74,3,5
18526.234,-0.527,-0.013,0.815,1.68,10.65,4.39,3,5
18526.25,-0.556,0.01,0.84,2.5,10.25,4.24,3,5
18526.25,-0.565,0.021,0.843,2.2,7.66,6.53,3,5
18526.265,-0.537,0.03,0.843,-0.4,4.85,9.4,3,5
18526.281,-0.519,0.032,0.838,-3.2,3.85,10.25,3,5
18526.281,-0.511,0.025,0.829,-5.4,4.43,10.5,3,5
18526.296,-0.504,0.028,0.823,-6.2,6.56,10.74,3,5
18526.312,-0.492,0.025,0.824,-4.7,10.56,10.8,3,5
18526.312,-0.496,0.036,0.823,-2.2,15.56,11.6,3,5
18526.328,-0.492,0.036,0.824,-0.03,20.33,13.12,3,5
18526.328,-0.509,0.04,0.837,0.49,24.84,14.71,3,5
18526.343,-0.527,0.037,0.868,-0.82,26.7,16.21,3,5
18526.359,-0.522,0.046,0.885,-2.59,26.31,17.94,3,5
18526.359,-0.523,0.076,0.894,-6.2,25.42,21.24,3,5
18526.375,-0.526,0.074,0.893,-12.09,22.98,25.09,3,5
18526.39,-0.499,0.056,0.895,-18.46,19.87,28.47,3,5
18526.406,-0.485,0.031,0.893,-22.03,18.98,30.76,3,5
18526.406,-0.481,0.002,0.893,-22.86,19.41,32.23,3,5
18526.421,-0.472,-0.031,0.896,-21.7,20.02,32.04,3,5
18526.421,-0.465,-0.061,0.9,-18.52,20.97,29.57,3,5
18526.437,-0.459,-0.088,0.908,-14.62,21.79,25.15,3,5
18526.453,-0.464,-0.094,0.913,-11.35,22.34,18.52,3,5
18526.453,-0.47,-0.085,0.908,-9.58,22.03,10.38,3,5
18526.468,-0.476,-0.08,0.914,-9.06,21.64,3.36,3,5
18526.484,-0.515,-0.055,0.946,-7.72,21.42,-0.79,3,5
18526.484,-0.56,-0.029,0.955,-4.73,18.74,0.4,3,5
18526.5,-0.566,-0.012,0.947,-3.08,7.69,13.06,3,5
18526.5,-0.548,0.0,0.941,-2.44,2.93,16.72,3,5
18526.515,-0.528,-0.011,0.913,-3.36,0.18,17.3,3,5
18526.531,-0.504,-0.025,0.889,-4.58,-0.79,14.86,3,5
18526.531,-0.512,0.005,0.848,-5.34,-0.52,10.74,3,5
18526.546,-0.526,0.012,0.84,-6.26,-0.46,8.12,3,5
18526.546,-0.535,0.029,0.834,-7.14,-0.27,7.48,3,5
18526.562,-0.547,0.034,0.831,-8.06,0.4,7.84,3,5
18526.578,-0.548,0.029,0.831,-10.32,0.7,8.48,3,5
18526.578,-0.549,0.017,0.832,-12.24,0.89,8.42,3,5
18526.593,-0.55,-0.006,0.836,-12.7,0.95,7.17,3,5
18526.609,-0.543,-0.025,0.837,-13.43,0.43,3.75,3,5
18526.609,-0.534,-0.033,0.836,-15.11,-1.07,-2.47,3,5
18526.625,-0.541,-0.045,0.833,-15.99,-2.99,-11.41,3,5
18526.64,-0.534,-0.05,0.824,-15.5,-5.04,-20.33,3,5
18526.64,-0.518,-0.054,0.794,-13.06,-5.31,-28.84,3,5
18526.656,-0.496,-0.065,0.774,-11.05,-2.62,-37.11,3,5
18526.671,-0.491,-0.09,0.761,-10.53,2.32,-47.12,3,5
18526.671,-0.499,-0.109,0.75,-11.9,7.87,-59.14,3,5
18526.687,-0.528,-0.117,0.75,-15.02,12.85,-72.51,3,5
18526.703,-0.545,-0.136,0.765,-20.78,15.38,-86.58,3,5
18526.703,-0.557,-0.171,0.782,-22.55,16.51,-100.38,3,5
18526.718,-0.572,-0.186,0.788,-18.46,18.04,-112.03,3,5
18526.718,-0.593,-0.168,0.786,-12.33,20.42,-117.16,3,5
18526.734,-0.607,-0.142,0.781,-4.49,22.55,-116.31,3,5
18526.75,-0.607,-0.121,0.782,5.28,24.72,-111.64,3,5
18526.75,-0.624,-0.066,0.784,13.4,27.31,-103.09,3,5
18526.765,-0.656,-0.02,0.8,15.99,27.56,-91.98,3,5
18526.781,-0.689,0.021,0.823,13.34,23.99,-77.55,3,5
18526.781,-0.723,0.008,0.825,5.68,14.86,-59.21,3,5
18526.796,-0.644,0.021,0.84,-5.25,3.23,-38.54,3,5
18526.812,-0.59,0.015,0.823,-11.26,-1.8,-23.74,3,5
18526.812,-0.556,-0.026,0.811,-14.74,-2.14,-13.09,3,5
18526.828,-0.556,-0.056,0.805,-17.76,0.24,-6.23,3,5
18526.828,-0.565,-0.075,0.808,-21.09,2.08,-3.11,3,5
18526.843,-0.56,-0.101,0.811,-22.52,3.14,-1.59,3,5
18526.859,-0.55,-0.123,0.808,-20.33,4.7,-0.79,3,5
18526.859,-0.556,-0.119,0.803,-14.8,8.06,-0.09,3,5
18526.875,-0.571,-0.117,0.796,-9.55,10.9,1.83,3,5
18526.89,-0.567,-0.119,0.799,-6.93,12.48,4.64,3,5
18526.89,-0.565,-0.126,0.799,-5.62,13.73,6.84,3,5
18526.906,-0.563,-0.148,0.811,-5.04,14.13,7.48,3,5
18526.921,-0.555,-0.169,0.822,-2.78,14.04,6.47,3,5
18526.921,-0.552,-0.186,0.819,1.5,13.89,3.14,3,5
18526.937,-0.55,-0.182,0.816,6.07,14.1,-2.29,3,5
18526.937,-0.562,-0.162,0.811,9.86,14.22,-7.48,3,5
18526.953,-0.57,-0.151,0.8,11.96,13.98,-11.32,3,5
18526.968,-0.57,-0.141,0.793,12.67,13.79,-13.34,3,5
18526.984,-0.567,-0.136,0.791,12.27,14.13,-14.16,3,5
18526.984,-0.573,-0.138,0.789,11.02,14.95,-14.62,3,5
18527.0,-0.573,-0.155,0.793,9.61,15.72,-15.47,3,5
18527.0,-0.573,-0.177,0.795,9.49,16.11,-17.61,3,5
18527.015,-0.578,-0.194,0.796,10.83,16.33,-22.06,3,5
18527.031,-0.569,-0.222,0.799,13.09,15.72,-28.78,3,5
18527.031,-0.562,-0.252,0.795,19.01,15.81,-37.39,3,5
18527.046,-0.557,-0.283,0.787,29.42,17.03,-47.3,3,5
18527.062,-0.553,-0.295,0.771,42.48,19.75,-57.59,3,5
18527.062,-0.566,-0.272,0.746,55.42,24.75,-66.99,3,5
18527.078,-0.601,-0.212,0.727,61.59,30.27,-73.37,3,5
18527.078,-0.623,-0.177,0.73,59.63,32.11,-76.45,3,5
18527.093,-0.64,-0.129,0.749,55.27,33.11,-75.69,3,5
18527.109,-0.708,-0.052,0.751,46.66,32.17,-69.19,3,5
18527.109,-0.73,-0.031,0.759,30.61,23.93,-57.53,3,5
18527.125,-0.696,-0.038,0.769,14.98,14.47,-43.7,3,5
18527.14,-0.668,-0.047,0.761,4.12,8.67,-31.95,3,5
18527.14,-0.643,-0.085,0.752,-3.23,6.1,-23.26,3,5
18527.156,-0.631,-0.124,0.745,-7.05,6.41,-17.88,3,5
18527.171,-0.629,-0.154,0.748,-7.14,7.87,-16.08,3,5
18527.171,-0.623,-0.191,0.762,-3.72,9.52,-17.0,3,5
18527.187,-0.612,-0.22,0.778,2.93,11.02,-19.78,3,5
18527.203,-0.606,-0.229,0.784,11.41,12.6,-23.62,3,5
18527.203,-0.605,-0.23,0.789,19.56,13.92,-27.8,3,5
18527.218,-0.629,-0.193,0.792,25.42,15.11,-30.24,3,5
18527.218,-0.663,-0.149,0.782,23.56,12.85,-30.06,3,5
18527.234,-0.649,-0.144,0.773,15.87,7.17,-27.71,3,5
18527.25,-0.636,-0.127,0.751,8.15,3.66,-24.81,3,5
18527.25,-0.645,-0.106,0.73,0.89,2.47,-21.09,3,5
18527.265,-0.633,-0.118,0.727,-6.13,1.5,-16.05,3,5
18527.281,-0.613,-0.132,0.732,-9.37,2.38,-11.17,3,5
18527.281,-0.61,-0.151,0.743,-7.93,5.07,-8.64,3,5
18527.296,-0.615,-0.175,0.763,-4.03,7.9,-8.09,3,5
18527.312,-0.61,-0.192,0.786,0.89,9.34,-9.19,3,5
18527.312,-0.605,-0.2,0.794,7.39,10.19,-11.57,3,5
18527.328,-0.619,-0.179,0.796,13.15,10.99,-14.4,3,5
18527.328,-0.667,-0.114,0.794,12.48,10.44,-15.78,3,5
18527.343,-0.677,-0.089,0.795,2.2,4.09,-13.76,3,5
18527.359,-0.651,-0.087,0.79,-10.04,-3.02,-9.31,3,5
18527.359,-0.63,-0.098,0.767,-18.01,-6.84,-4.46,3,5
18527.375,-0.611,-0.127,0.759,-21.03,-7.02,-0.18,3,5
18527.39,-0.605,-0.152,0.757,-18.77,-4.55,2.38,3,5
18527.39,-0.604,-0.176,0.765,-13.03,-1.65,2.66,3,5
18527.406,-0.608,-0.184,0.771,-5.74,0.7,0.82,3,5
18527.421,-0.621,-0.183,0.78,1.13,2.23,-2.26,3,5
18527.421,-0.623,-0.184,0.784,5.04,1.86,-4.85,3,5
18527.437,-0.62,-0.183,0.783,7.29,1.07,-6.62,3,5
18527.437,-0.641,-0.168,0.781,6.93,0.76,-8.03,3,5
18527.453,-0.656,-0.156,0.797,1.04,-2.87,-8.61,3,5
18527.468,-0.637,-0.17,0.795,-4.64,-8.42,-8.79,3,5
18527.468,-0.62,-0.183,0.771,-1.95,-11.51,-8.03,3,5
18527.484,-0.609,-0.196,0.746,3.57,-9.22,-6.84,3,5
18527.5,-0.614,-0.197,0.72,7.75,-5.89,-5.71,3,5
18527.5,-0.612,-0.204,0.694,9.52,-1.98,-5.34,3,5
18527.515,-0.599,-0.238,0.699,10.47,2.26,-6.44,3,5
18527.531,-0.614,-0.261,0.719,12.02,5.58,-8.42,3,5
18527.531,-0.64,-0.275,0.745,13.67,6.93,-10.77,3,5
18527.546,-0.67,-0.253,0.78,10.1,4.12,-13.34,3,5
18527.562,-0.64,-0.263,0.797,5.55,-3.2,-16.24,3,5
18527.562,-0.606,-0.268,0.777,5.74,-7.48,-19.1,3,5
18527.578,-0.591,-0.258,0.758,8.76,-7.69,-21.61,3,5
18527.578,-0.586,-0.254,0.741,13.73,-5.13,-23.29,3,5
18527.593,-0.588,-0.255,0.731,18.77,-1.04,-24.93,3,5
18527.609,-0.587,-0.263,0.729,22.06,2.41,-27.1,3,5
18527.609,-0.593,-0.277,0.738,24.26,4.55,-30.24,3,5
18527.625,-0.606,-0.292,0.757,25.91,5.25,-34.82,3,5
18527.64,-0.612,-0.304,0.775,27.86,3.97,-39.98,3,5
18527.656,-0.608,-0.314,0.787,30.52,1.95,-44.59,3,5
18527.656,-0.614,-0.285,0.805,34.52,0.58,-47.46,3,5
18527.671,-0.652,-0.244,0.802,37.32,-2.66,-46.05,3,5
18527.671,-0.64,-0.228,0.791,35.22,-9.46,-41.2,3,5
18527.687,-0.629,-0.192,0.774,30.37,-15.38,-36.38,3,5
18527.703,-0.642,-0.164,0.746,23.56,-19.35,-32.75,3,5
18527.703,-0.626,-0.167,0.731,13.61,-23.04,-28.69,3,5
18527.718,-0.597,-0.172,0.719,5.83,-23.04,-24.41,3,5
18527.718,-0.576,-0.181,0.703,3.08,-19.1,-21.0,3,5
18527.734,-0.577,-0.204,0.697,2.66,-12.54,-18.62,3,5
18527.75,-0.576,-0.221,0.709,1.37,-6.41,-18.22,3,5
18527.75,-0.571,-0.247,0.714,1.43,-1.65,-20.2,3,5
18527.765,-0.566,-0.262,0.715,3.45,3.48,-23.62,3,5
18527.781,-0.57,-0.255,0.718,7.78,9.09,-27.31,3,5
18527.781,-0.569,-0.25,0.728,13.28,14.01,-29.79,3,5
18527.796,-0.584,-0.216,0.75,18.4,18.65,-30.92,3,5
18527.812,-0.631,-0.167,0.779,20.26,20.81,-29.05,3,5
18527.812,-0.668,-0.154,0.814,17.12,16.69,-24.38,3,5
18527.828,-0.672,-0.147,0.825,10.59,8.15,-18.19,3,5
18527.843,-0.647,-0.134,0.816,2.32,-1.1,-12.36,3,5
18527.843,-0.607,-0.149,0.786,-4.58,-7.35,-7.6,3,5
18527.859,-0.574,-0.168,0.756,-7.97,-8.51,-3.72,3,5
18527.859,-0.563,-0.176,0.748,-7.75,-5.13,-1.13,3,5
18527.875,-0.558,-0.196,0.747,-5.49,-0.21,0.21,3,5
18527.89,-0.548,-0.216,0.748,-3.3,4.52,-0.09,3,5
18527.89,-0.549,-0.23,0.756,-1.46,9.16,-1.98,3,5
18527.906,-0.565,-0.237,0.777,0.18,13.31,-5.4,3,5
18527.921,-0.595,-0.237,0.814,0.7,14.59,-10.28,3,5
18527.921,-0.608,-0.232,0.855,0.03,11.44,-14.62,3,5
18527.937,-0.607,-0.217,0.866,0.03,5.65,-16.42,3,5
18527.953,-0.588,-0.199,0.846,0.76,0.15,-15.9,3,5
18527.953,-0.574,-0.187,0.814,1.74,-2.5,-14.16,3,5
18527.968,-0.574,-0.191,0.794,2.23,-2.84,-11.9,3,5
18527.968,-0.565,-0.197,0.779,2.41,-2.38,-9.77,3,5
18527.984,-0.552,-0.203,0.763,2.59,-0.79,-8.76,3,5
18528.0,-0.546,-0.214,0.756,3.66,1.98,-9.06,3,5
18528.0,-0.544,-0.232,0.753,6.29,5.58,-10.28,3,5
18528.015,-0.556,-0.254,0.762,10.62,9.37,-12.3,3,5
18528.031,-0.584,-0.269,0.798,14.98,11.17,-15.44,3,5
18528.031,-0.607,-0.264,0.833,18.1,9.16,-18.89,3,5
18528.046,-0.629,-0.253,0.832,19.68,3.97,-21.18,3,5
18528.062,-0.624,-0.239,0.825,18.89,-2.84,-20.63,3,5
18528.062,-0.613,-0.219,0.801,17.15,-8.24,-18.92,3,5
18528.078,-0.602,-0.219,0.764,14.8,-11.2,-16.82,3,5
18528.078,-0.592,-0.229,0.741,13.37,-11.26,-14.56,3,5
18528.093,-0.586,-0.23,0.717,13.0,-8.76,-12.6,3,5
18528.109,-0.586,-0.226,0.699,12.51,-4.97,-11.66,3,5
18528.109,-0.583,-0.224,0.691,11.17,-0.15,-11.41,3,5
18528.125,-0.576,-0.228,0.69,10.28,5.8,-10.59,3,5
18528.14,-0.591,-0.224,0.701,8.97,12.09,-9.64,3,5
18528.14,-0.607,-0.22,0.73,6.56,16.11,-8.73,3,5
18528.156,-0.63,-0.215,0.76,4.27,17.43,-7.39,3,5
18528.171,-0.646,-0.219,0.782,1.4,14.95,-4.82,3,5
18528.171,-0.645,-0.226,0.792,-2.53,9.58,-1.77,3,5
18528.187,-0.631,-0.221,0.785,-7.05,3.88,0.15,3,5
18528.187,-0.606,-0.231,0.774,-10.83,-1.07,0.52,3,5
18528.203,-0.587,-0.232,0.761,-11.84,-2.75,0.49,3,5
18528.218,-0.583,-0.228,0.753,-8.97,-1.4,0.12,3,5
18528.234,-0.592,-0.231,0.744,-4.27,0.95,0.03,3,5
18528.234,-0.598,-0.223,0.738,-1.16,2.93,0.58,3,5
18528.25,-0.598,-0.221,0.739,-0.92,4.12,1.04,3,5
18528.25,-0.59,-0.233,0.74,-2.14,5.07,1.19,3,5
18528.265,-0.589,-0.234,0.743,-3.85,6.47,1.53,3,5
18528.281,-0.599,-0.24,0.756,-5.68,7.57,1.8,3,5
18528.281,-0.622,-0.242,0.774,-6.87,7.72,1.95,3,5
18528.296,-0.623,-0.246,0.789,-7.48,5.37,2.04,3,5
18528.312,-0.606,-0.252,0.786,-6.56,2.93,1.56,3,5
18528.312,-0.598,-0.251,0.781,-4.27,2.35,0.76,3,5
18528.328,-0.598,-0.253,0.782,-1.28,2.41,0.4,3,5
18528.328,-0.594,-0.257,0.778,1.53,2.5,-0.06,3,5
18528.343,-0.589,-0.26,0.77,3.6,2.84,-0.92,3,5
18528.359,-0.586,-0.266,0.769,5.74,3.81,-2.26,3,5
18528.359,-0.583,-0.273,0.77,8.94,5.31,-3.66,3,5
18528.375,-0.581,-0.276,0.777,13.4,7.05,-5.13,3,5
18528.39,-0.605,-0.263,0.786,18.07,8.27,-6.07,3,5
18528.39,-0.635,-0.245,0.791,18.34,6.38,-5.65,3,5
18528.406,-0.632,-0.231,0.787,14.19,1.53,-4.33,3,5
18528.421,-0.613,-0.231,0.767,8.24,-3.27,-2.84,3,5
18528.421,-0.592,-0.234,0.74,2.81,-6.1,-0.73,3,5
18528.437,-0.586,-0.232,0.719,0.15,-5.37,0.98,3,5
18528.453,-0.59,-0.24,0.714,-0.37,-2.72,2.29,3,5
18528.453,-0.592,-0.246,0.717,0.18,0.34,3.42,3,5
18528.468,-0.599,-0.251,0.728,2.44,4.76,3.54,3,5
18528.468,-0.61,-0.25,0.743,2.75,4.79,3.63,3,5
18528.484,-0.619,-0.242,0.748,3.08,3.85,4.15,3,5
18528.5,-0.626,-0.246,0.755,4.79,2.44,5.25,3,5
18528.5,-0.634,-0.25,0.754,6.62,0.24,6.62,3,5
18528.515,-0.628,-0.243,0.738,7.23,-1.37,7.72,3,5
18528.531,-0.619,-0.24,0.72,6.1,-1.89,8.85,3,5
18528.531,-0.613,-0.234,0.708,4.55,-0.92,9.89,3,5
18528.546,-0.62,-0.228,0.699,2.66,1.19,11.2,3,5
18528.562,-0.616,-0.23,0.697,0.85,3.05,12.97,3,5
18528.562,-0.612,-0.232,0.708,0.55,5.37,14.1,3,5
18528.578,-0.615,-0.239,0.719,2.56,7.66,14.8,3,5
18528.593,-0.616,-0.244,0.726,6.26,9.55,16.02,3,5
18528.593,-0.62,-0.247,0.734,11.32,11.05,17.49,3,5
18528.609,-0.628,-0.254,0.734,17.67,12.09,18.59,3,5
18528.609,-0.631,-0.249,0.736,22.86,12.3,18.83,3,5
18528.625,-0.648,-0.228,0.745,25.45,11.44,18.1,3,5
18528.64,-0.677,-0.215,0.742,25.48,8.27,18.28,3,5
18528.64,-0.666,-0.205,0.744,23.1,2.96,20.05,3,5
18528.656,-0.648,-0.197,0.734,20.66,-1.04,22.19,3,5
18528.671,-0.652,-0.195,0.732,19.32,-2.69,24.38,3,5
18528.671,-0.665,-0.192,0.739,20.51,-4.09,27.53,3,5
18528.687,-0.669,-0.187,0.758,23.5,-6.53,31.31,3,5
18528.687,-0.678,-0.18,0.766,27.99,-9.67,35.77,3,5
18528.703,-0.695,-0.162,0.762,32.69,-13.15,40.83,3,5
18528.718,-0.707,-0.142,0.789,35.77,-17.79,47.12,3,5
18528.718,-0.713,-0.113,0.804,37.97,-23.53,55.39,3,5
18528.734,-0.736,-0.042,0.784,35.49,-28.44,65.95,3,5
18528.75,-0.743,0.021,0.778,20.51,-36.19,76.88,3,5
18528.765,-0.731,0.021,0.763,-0.58,-46.02,87.62,3,5
18528.765,-0.693,-0.004,0.723,-21.36,-53.38,98.42,3,5
18528.781,-0.649,-0.034,0.706,-37.81,-55.24,106.97,3,5
18528.781,-0.645,-0.057,0.693,-45.99,-52.16,112.0,3,5
18528.796,-0.64,-0.062,0.695,-48.74,-45.84,115.45,3,5
18528.812,-0.672,-0.046,0.744,-48.74,-37.32,118.11,3,5
18528.812,-0.723,-0.014,0.773,-47.27,-29.3,123.33,3,5
18528.828,-0.756,0.02,0.802,-50.05,-24.17,132.33,3,5
18528.828,-0.764,0.039,0.86,-57.13,-23.87,141.36,3,5
18528.843,-0.753,0.036,0.889,-64.61,-27.44,148.99,3,5
18528.859,-0.702,0.027,0.861,-73.4,-33.78,154.64,3,5
18528.875,-0.641,0.03,0.823,-82.92,-39.16,157.93,3,5
18528.875,-0.591,0.026,0.791,-89.66,-41.78,159.15,3,5
18528.89,-0.559,0.003,0.754,-92.78,-42.02,159.46,3,5
18528.906,-0.548,-0.024,0.754,-91.46,-39.52,159.09,3,5
18528.906,-0.548,-0.051,0.745,-85.67,-35.77,159.86,3,5
18528.921,-0.551,-0.051,0.741,-81.42,-31.22,161.41,3,5
18528.921,-0.562,-0.031,0.762,-80.94,-27.83,162.36,3,5
18528.937,-0.55,-0.027,0.767,-84.96,-26.92,161.81,3,5
18528.953,-0.543,-0.013,0.778,-91.19,-25.82,158.73,3,5
18528.953,-0.553,-0.01,0.797,-94.42,-23.01,155.92,3,5
18528.968,-0.57,0.001,0.816,-95.16,-19.38,155.98,3,5
18528.968,-0.624,0.028,0.823,-95.68,-15.44,159.49,3,5
18528.984,-0.695,-0.0,0.826,-96.56,-14.04,166.11,3,5
18529.0,-0.745,-0.07,0.795,-97.14,-16.94,171.88,3,5
18529.015,-0.706,-0.151,0.733,-98.21,-17.76,177.4,3,5
18529.015,-0.61,-0.219,0.701,-97.69,-16.21,174.26,3,5
18529.031,-0.562,-0.287,0.66,-92.65,-7.29,164.89,3,5
18529.031,-0.477,-0.311,0.709,-84.51,3.69,150.88,3,5
18529.046,-0.492,-0.324,0.761,-68.54,12.97,130.04,3,5
18529.062,-0.526,-0.306,0.825,-53.59,18.52,110.32,3,5
18529.062,-0.572,-0.27,0.859,-42.7,17.79,91.89,3,5
18529.078,-0.573,-0.256,0.891,-37.66,11.57,77.0,3,5
18529.078,-0.544,-0.26,0.884,-33.45,4.7,64.79,3,5
18529.093,-0.489,-0.247,0.892,-28.2,-0.58,52.03,3,5
18529.109,-0.457,-0.209,0.888,-19.59,-2.41,38.58,3,5
18529.109,-0.452,-0.163,0.854,-11.23,-1.68,26.15,3,5
18529.125,-0.448,-0.085,0.86,-6.65,-0.34,15.17,3,5
18529.14,-0.457,-0.032,0.87,-6.47,0.92,8.33,3,5
18529.14,-0.433,-0.027,0.862,-9.7,1.53,5.52,3,5
18529.156,-0.423,0.005,0.882,-13.15,3.08,2.53,3,5
18529.171,-0.423,0.004,0.885,-13.21,4.24,0.15,3,5
18529.171,-0.413,-0.014,0.897,-11.84,4.46,-2.72,3,5
18529.187,-0.414,0.005,0.914,-7.54,4.58,-6.87,3,5
18529.203,-0.437,0.032,0.902,-1.95,3.54,-11.05,3,5
18529.203,-0.455,0.064,0.897,0.34,1.37,-14.86,3,5
18529.218,-0.46,0.083,0.881,0.31,-0.52,-15.66,3,5
18529.234,-0.469,0.124,0.9,0.15,-1.34,-13.73,3,5
18529.234,-0.518,0.167,0.9,1.74,-2.38,-8.24,3,5
18529.25,-0.521,0.196,0.912,-1.34,-6.44,0.67,3,5
18529.25,-0.492,0.194,0.901,-4.82,-11.05,10.53,3,5
18529.265,-0.434,0.151,0.86,-8.3,-14.01,19.2,3,5
18529.281,-0.37,0.129,0.832,-10.25,-13.12,23.04,3,5
18529.281,-0.33,0.096,0.815,-8.82,-9.09,21.79,3,5
18529.296,-0.316,0.077,0.832,-6.5,-3.66,17.67,3,5
18529.312,-0.312,0.069,0.844,-4.21,1.68,12.42,3,5
18529.312,-0.34,0.096,0.877,-1.86,6.68,6.81,3,5
18529.328,-0.424,0.119,0.906,0.31,9.25,4.67,3,5
18529.328,-0.486,0.147,0.973,-4.12,5.52,6.96,3,5
18529.343,-0.514,0.137,1.016,-8.79,-3.6,10.01,3,5
18529.359,-0.515,0.081,0.991,-8.76,-13.49,13.15,3,5
18529.375,-0.486,0.05,0.947,-4.67,-20.6,15.81,3,5
18529.375,-0.472,0.031,0.881,1.01,-23.1,16.72,3,5
18529.39,-0.46,0.019,0.817,3.63,-22.22,16.54,3,5
18529.39,-0.467,0.028,0.781,3.3,-18.22,16.17,3,5
18529.406,-0.494,0.0,0.754,1.13,-13.06,16.79,3,5
18529.421,-0.52,-0.002,0.757,-1.4,-8.09,18.37,3,5
18529.421,-0.567,0.016,0.763,-2.47,-4.27,20.39,3,5
18529.437,-0.589,0.011,0.795,-5.28,-3.54,23.96,3,5
18529.453,-0.581,-0.007,0.807,-5.55,-7.02,30.85,3,5
18529.453,-0.521,-0.026,0.805,-3.72,-6.41,30.85,3,5
18529.468,-0.462,-0.002,0.813,-1.46,-4.0,28.81,3,5
18529.468,-0.455,0.005,0.815,-2.29,-1.28,26.89,3,5
18529.484,-0.522,0.021,0.874,-3.23,0.64,26.15,3,5
18529.5,-0.537,0.003,0.885,-3.97,-0.24,27.44,3,5
18529.5,-0.49,-0.009,0.894,-4.97,-2.17,27.74,3,5
18529.515,-0.46,-0.018,0.896,-3.85,-2.08,23.65,3,5
18529.531,-0.448,-0.03,0.902,-1.92,-0.64,16.97,3,5
18529.531,-0.444,-0.019,0.917,0.12,1.34,9.25,3,5
18529.546,-0.482,0.014,0.934,2.56,3.11,2.32,3,5
18529.562,-0.521,0.027,0.938,3.42,2.69,-0.92,3,5
18529.562,-0.508,0.046,0.955,1.31,-0.09,-2.08,3,5
18529.578,-0.515,0.055,0.978,0.76,-3.45,-4.43,3,5
18529.593,-0.519,0.041,0.971,3.69,-7.51,-5.01,3,5
18529.593,-0.478,0.064,0.943,6.04,-11.66,-4.85,3,5
18529.609,-0.459,0.08,0.902,7.87,-13.79,-6.93,3,5
18529.609,-0.46,0.074,0.873,7.26,-14.19,-8.76,3,5
18529.625,-0.459,0.075,0.839,5.31,-13.58,-9.25,3,5
18529.64,-0.461,0.079,0.811,4.55,-10.96,-8.85,3,5
18529.64,-0.471,0.081,0.801,3.42,-7.2,-7.29,3,5
18529.656,-0.469,0.088,0.815,0.09,-4.27,-5.55,3,5
18529.671,-0.504,0.096,0.867,-1.53,-2.69,-4.09,3,5
18529.671,-0.53,0.079,0.888,1.13,-4.46,0.34,3,5
18529.687,-0.484,0.089,0.881,3.3,-8.64,5.86,3,5
18529.687,-0.426,0.073,0.845,3.45,-11.17,7.42,3,5
18529.703,-0.397,0.035,0.825,2.78,-10.32,5.04,3,5
18529.718,-0.389,0.015,0.812,3.57,-6.93,0.79,3,5
18529.734,-0.39,0.003,0.796,5.37,-2.17,-4.82,3,5
18529.734,-0.409,0.004,0.787,6.32,3.39,-10.77,3,5
18529.75,-0.443,0.025,0.808,5.55,8.33,-15.53,3,5
18529.75,-0.497,0.034,0.83,4.91,10.93,-18.1,3,5
18529.765,-0.516,0.031,0.83,3.66,10.77,-17.33,3,5
18529.781,-0.498,0.04,0.83,0.98,9.92,-16.48,3,5
18529.781,-0.49,0.038,0.82,-1.34,9.74,-17.27,3,5
18529.796,-0.47,0.034,0.811,-4.43,10.59,-18.83,3,5
18529.796,-0.467,0.039,0.84,-6.04,12.76,-21.09,3,5
18529.812,-0.49,0.032,0.863,-4.3,14.59,-22.52,3,5
18529.828,-0.488,0.032,0.878,-2.32,15.05,-22.25,3,5
18529.843,-0.497,0.054,0.905,0.15,14.83,-22.22,3,5
18529.843,-0.53,0.058,0.908,3.23,13.09,-21.7,3,5
18529.859,-0.528,0.066,0.902,4.18,9.43,-19.68,3,5
18529.859,-0.525,0.077,0.891,4.27,6.53,-17.82,3,5
18529.875,-0.522,0.074,0.881,4.61,4.27,-15.87,3,5
18529.89,-0.514,0.081,0.87,5.89,3.05,-13.76,3,5
18529.89,-0.517,0.084,0.859,6.38,3.02,-11.54,3,5
18529.906,-0.516,0.087,0.866,4.27,2.81,-9.49,3,5
18529.921,-0.523,0.074,0.869,1.65,2.01,-8.48,3,5
18529.921,-0.522,0.051,0.877,0.76,0.82,-8.24,3,5
18529.937,-0.517,0.046,0.881,3.48,-0.18,-8.12,3,5
18529.937,-0.524,0.054,0.898,7.51,-1.46,-7.97,3,5
18529.953,-0.538,0.06,0.904,11.66,-3.48,-7.14,3,5
18529.968,-0.544,0.073,0.907,13.43,-6.59,-5.16,3,5
18529.968,-0.548,0.07,0.893,13.79,-10.19,-2.75,3,5
18529.984,-0.527,0.061,0.869,12.82,-13.15,0.31,3,5
18530.0,-0.515,0.051,0.841,11.14,-13.58,1.86,3,5
18530.015,-0.507,0.02,0.823,8.91,-11.47,1.46,3,5
18530.015,-0.507,-0.0,0.822,8.76,-8.36,-0.15,3,5
18530.031,-0.513,-0.013,0.824,11.02,-5.31,-2.47,3,5
18530.031,-0.521,-0.005,0.828,13.7,-2.87,-3.78,3,5
18530.046,-0.531,0.006,0.823,14.74,-1.8,-3.66,3,5
18530.062,-0.535,0.017,0.843,12.6,-1.37,-1.34,3,5
18530.062,-0.543,0.004,0.867,11.2,-2.35,1.19,3,5
18530.078,-0.526,-0.013,0.862,10.71,-4.52,3.57,3,5
18530.078,-0.506,-0.022,0.871,10.56,-5.77,4.18,3,5
18530.093,-0.48,-0.03,0.881,11.47,-6.56,1.98,3,5
18530.109,-0.465,-0.032,0.901,12.73,-7.26,-2.66,3,5
18530.109,-0.484,-0.026,0.902,15.44,-8.3,-7.32,3,5
18530.125,-0.495,-0.022,0.899,17.49,-9.98,-10.32,3,5
18530.14,-0.498,-0.008,0.879,18.16,-11.11,-12.36,3,5
18530.14,-0.479,0.0,0.858,16.17,-11.32,-13.52,3,5
18530.156,-0.47,0.024,0.854,13.52,-9.46,-14.28,3,5
18530.171,-0.478,0.037,0.852,11.51,-6.81,-14.25,3,5
18530.171,-0.478,0.055,0.872,8.73,-4.76,-12.57,3,5
18530.187,-0.487,0.068,0.883,6.01,-3.75,-9.77,3,5
18530.187,-0.477,0.063,0.896,2.5,-4.12,-6.1,3,5
18530.203,-0.47,0.054,0.909,0.06,-4.73,-3.27,3,5
18530.218,-0.452,0.04,0.918,-0.46,-5.95,-1.07,3,5
18530.218,-0.434,0.046,0.931,0.55,-6.99,-0.03,3,5
18530.234,-0.426,0.052,0.924,1.83,-8.3,-0.31,3,5
18530.25,-0.414,0.055,0.927,1.59,-9.55,-0.58,3,5
18530.25,-0.426,0.076,0.949,1.74,-11.08,-1.22,3,5
18530.265,-0.449,0.073,0.942,2.96,-14.07,-0.24,3,5
18530.281,-0.443,0.076,0.921,2.93,-17.94,2.47,3,5
18530.281,-0.438,0.08,0.892,1.5,-20.48,4.12,3,5
18530.296,-0.422,0.054,0.861,-0.76,-21.42,5.04,3,5
18530.312,-0.408,0.051,0.838,-2.72,-19.78,5.07,3,5
18530.312,-0.409,0.046,0.828,-3.94,-16.48,4.09,3,5
18530.328,-0.41,0.053,0.836,-5.71,-12.48,3.23,3,5
18530.328,-0.421,0.071,0.871,-7.93,-9.06,2.47,3,5
18530.343,-0.452,0.078,0.9,-10.59,-7.11,2.5,3,5
18530.359,-0.473,0.082,0.923,-12.57,-6.78,4.49,3,5
18530.359,-0.488,0.071,0.921,-13.52,-8.27,7.23,3,5
18530.375,-0.503,0.05,0.922,-14.4,-9.19,10.47,3,5
18530.39,-0.497,0.021,0.902,-15.32,-10.28,12.73,3,5
18530.39,-0.457,0.0,0.889,-16.48,-10.13,12.7,3,5
18530.406,-0.438,-0.012,0.894,-16.33,-7.45,8.64,3,5
18530.421,-0.45,-0.017,0.906,-14.25,-3.94,2.47,3,5
18530.421,-0.458,-0.009,0.938,-11.38,-0.46,-3.2,3,5
18530.437,-0.474,-0.003,0.956,-5.13,-0.18,-14.19,3,5
18530.437,-0.48,-0.002,0.964,0.58,-3.63,-21.45,3,5
18530.453,-0.497,0.028,0.979,9.16,-9.67,-28.84,3,5
18530.468,-0.497,0.125,0.904,16.17,-15.17,-34.09,3,5
18530.468,-0.478,0.188,0.869,21.49,-16.3,-35.8,3,5
18530.484,-0.464,0.211,0.823,21.91,-13.49,-30.82,3,5
18530.5,-0.455,0.225,0.803,16.69,-8.12,-19.17,3,5
18530.515,-0.445,0.202,0.803,9.0,-2.53,-4.18,3,5
18530.515,-0.422,0.139,0.8,-0.12,1.16,10.62,3,5
18530.531,-0.407,0.065,0.817,-7.17,3.14,21.12,3,5
18530.531,-0.413,-0.011,0.833,-9.74,3.63,27.59,3,5
