timestamp,ax,ay,az,gx,gy,gz,orient_label,motion_label
18538.156,0.011,-0.887,0.669,-6.84,-34.94,-11.41,3,5
18538.171,-0.009,-0.893,0.596,-6.74,-39.28,-14.25,3,5
18538.171,-0.04,-0.889,0.554,-8.55,-51.36,-14.95,3,5
18538.187,-0.014,-0.918,0.518,-10.5,-59.3,-13.52,3,5
18538.187,-0.007,-0.935,0.443,-16.17,-78.01,-7.02,3,5
18538.203,-0.114,-0.94,0.389,-30.58,-140.51,6.38,3,5
18538.218,-0.066,-0.908,0.528,-42.97,-192.45,16.14,3,5
18538.218,0.283,-0.895,0.717,-36.47,-142.98,18.04,3,5
18538.234,0.282,-0.933,0.708,-9.89,-15.11,1.53,3,5
18538.25,-0.084,-1.012,0.534,-2.32,9.8,-1.62,3,5
18538.25,0.143,-1.027,0.656,-5.46,-24.14,-0.34,3,5
18538.265,0.129,-0.993,0.679,6.04,-18.46,-6.78,3,5
18538.281,0.09,-0.976,0.666,11.17,-26.73,-14.28,3,5
18538.281,0.164,-0.938,0.688,12.09,-42.7,-20.66,3,5
18538.296,0.154,-0.853,0.666,16.33,-48.13,-24.66,3,5
18538.312,0.152,-0.749,0.637,17.67,-55.57,-24.2,3,5
18538.312,0.174,-0.685,0.583,6.9,-55.48,-8.12,3,5
18538.328,0.169,-0.684,0.482,-1.16,-52.16,-0.58,3,5
18538.328,0.197,-0.714,0.449,-5.37,-48.46,5.19,3,5
18538.343,0.23,-0.718,0.398,-9.34,-45.32,8.42,3,5
18538.359,0.237,-0.735,0.421,-11.66,-40.53,9.86,3,5
18538.375,0.213,-0.743,0.442,-9.13,-36.04,9.25,3,5
18538.375,0.193,-0.737,0.452,-6.1,-36.9,7.05,3,5
18538.39,0.154,-0.741,0.409,-3.91,-40.74,1.86,3,5
18538.39,0.154,-0.729,0.371,-3.33,-40.93,-1.01,3,5
18538.406,0.175,-0.724,0.348,-2.35,-36.19,-0.52,3,5
18538.421,0.201,-0.718,0.318,0.73,-30.34,1.95,3,5
18538.421,0.213,-0.694,0.306,4.27,-21.42,7.14,3,5
18538.437,0.198,-0.673,0.324,3.88,-9.43,15.72,3,5
18538.437,0.168,-0.695,0.356,1.71,0.18,24.84,3,5
18538.453,0.164,-0.713,0.375,0.37,3.3,31.86,3,5
18538.468,0.132,-0.744,0.397,0.09,3.54,35.28,3,5
18538.468,0.139,-0.779,0.386,-0.76,1.19,36.5,3,5
18538.484,0.161,-0.799,0.403,-3.3,0.73,36.47,3,5
18538.5,0.156,-0.83,0.441,-6.74,4.27,34.97,3,5
18538.5,0.147,-0.862,0.492,-8.21,6.84,31.43,3,5
18538.515,0.132,-0.876,0.55,-5.49,6.81,25.88,3,5
18538.531,0.105,-0.878,0.596,-0.67,3.23,17.46,3,5
18538.531,0.082,-0.886,0.624,5.65,-4.36,6.35,3,5
18538.546,0.086,-0.867,0.614,14.04,-14.37,-4.12,3,5
18538.562,0.087,-0.845,0.562,22.1,-22.95,-12.6,3,5
18538.562,0.109,-0.832,0.478,27.28,-29.33,-17.03,3,5
18538.578,0.154,-0.805,0.412,29.21,-31.28,-18.25,3,5
18538.593,0.185,-0.786,0.368,29.94,-26.95,-17.64,3,5
18538.593,0.208,-0.748,0.354,28.32,-21.58,-13.15,3,5
18538.609,0.232,-0.72,0.367,23.41,-12.05,-2.26,3,5
18538.609,0.253,-0.71,0.382,14.37,-1.46,12.7,3,5
18538.625,0.247,-0.733,0.386,4.03,6.65,24.57,3,5
18538.64,0.204,-0.795,0.402,-5.55,15.96,33.85,3,5
18538.64,0.192,-0.832,0.439,-10.04,21.97,39.98,3,5
18538.656,0.186,-0.843,0.463,-8.36,26.73,42.48,3,5
18538.671,0.178,-0.835,0.5,-6.62,30.85,42.33,3,5
18538.671,0.151,-0.807,0.538,-7.97,32.59,40.86,3,5
18538.687,0.099,-0.807,0.579,-9.4,32.35,41.2,3,5
18538.687,0.048,-0.8,0.59,-9.86,30.18,45.44,3,5
18538.703,0.029,-0.807,0.584,-11.9,26.52,49.75,3,5
18538.718,0.007,-0.852,0.592,-13.25,23.26,52.74,3,5
18538.734,-0.009,-0.886,0.578,-13.0,21.36,54.93,3,5
18538.734,-0.016,-0.927,0.575,-11.11,19.47,52.25,3,5
18538.75,-0.029,-0.969,0.573,-5.74,17.94,44.01,3,5
18538.75,-0.046,-0.976,0.562,1.37,15.9,33.91,3,5
18538.765,-0.062,-0.975,0.539,4.49,14.19,24.69,3,5
18538.781,-0.063,-0.988,0.534,3.39,12.27,15.81,3,5
18538.781,-0.066,-0.999,0.548,4.64,10.32,6.59,3,5
18538.796,-0.065,-0.985,0.566,7.84,9.25,-0.55,3,5
18538.812,-0.063,-0.958,0.58,10.62,7.9,-5.98,3,5
18538.812,-0.049,-0.936,0.581,11.9,5.1,-9.83,3,5
18538.828,-0.009,-0.926,0.597,12.12,0.98,-14.56,3,5
18538.843,0.021,-0.901,0.598,15.81,-2.5,-22.19,3,5
18538.843,0.036,-0.828,0.593,22.25,-5.52,-30.21,3,5
18538.859,0.045,-0.756,0.602,28.84,-9.43,-38.3,3,5
18538.875,0.053,-0.664,0.594,35.65,-14.47,-44.89,3,5
18538.875,0.07,-0.582,0.591,40.44,-19.65,-48.49,3,5
18538.89,0.08,-0.522,0.589,44.01,-24.26,-51.12,3,5
18538.89,0.078,-0.465,0.583,48.52,-28.53,-53.04,3,5
18538.906,0.079,-0.431,0.568,53.99,-32.72,-53.96,3,5
18538.921,0.091,-0.411,0.55,60.03,-36.38,-54.96,3,5
18538.921,0.106,-0.41,0.543,67.54,-39.22,-58.26,3,5
18538.937,0.125,-0.405,0.536,78.19,-41.72,-63.57,3,5
18538.953,0.142,-0.381,0.528,91.43,-42.85,-69.58,3,5
18538.953,0.143,-0.339,0.523,104.16,-41.96,-74.07,3,5
18538.968,0.113,-0.27,0.561,111.42,-40.22,-74.74,3,5
18538.968,0.075,-0.209,0.617,113.04,-42.05,-72.18,3,5
18538.984,0.025,-0.188,0.601,112.86,-49.62,-67.63,3,5
18539.0,0.058,-0.232,0.622,109.93,-60.46,-52.98,3,5
18539.015,0.063,-0.224,0.602,117.28,-61.92,-53.8,3,5
18539.031,0.072,-0.218,0.636,120.7,-65.65,-55.82,3,5
18539.031,0.06,-0.234,0.707,125.64,-63.05,-57.53,3,5
18539.046,0.011,-0.264,0.758,137.42,-63.2,-58.23,3,5
18539.062,-0.044,-0.269,0.793,153.42,-70.38,-57.28,3,5
18539.062,-0.088,-0.247,0.768,169.84,-85.39,-56.37,3,5
18539.078,-0.057,-0.229,0.669,178.35,-101.87,-51.64,3,5
18539.093,0.036,-0.218,0.575,173.89,-114.17,-43.58,3,5
18539.093,0.173,-0.26,0.499,162.79,-117.13,-36.96,3,5
18539.109,0.291,-0.305,0.455,148.41,-105.9,-35.37,3,5
18539.125,0.337,-0.357,0.512,136.05,-82.09,-39.8,3,5
18539.125,0.297,-0.431,0.615,132.27,-56.0,-48.62,3,5
18539.14,0.233,-0.487,0.676,136.14,-39.4,-57.74,3,5
18539.156,0.237,-0.547,0.66,142.22,-36.13,-66.16,3,5
18539.156,0.325,-0.569,0.674,145.09,-39.09,-76.85,3,5
18539.171,0.429,-0.562,0.71,145.02,-38.88,-92.41,3,5
18539.171,0.497,-0.527,0.793,140.08,-31.98,-110.51,3,5
18539.187,0.524,-0.49,0.897,135.41,-22.74,-128.18,3,5
18539.203,0.527,-0.422,0.976,134.28,-14.98,-143.01,3,5
18539.203,0.506,-0.356,1.05,134.46,-9.25,-155.4,3,5
18539.218,0.471,-0.307,1.092,133.46,-7.11,-164.83,3,5
18539.234,0.441,-0.267,1.104,128.79,-9.34,-171.36,3,5
18539.234,0.436,-0.271,1.097,119.51,-15.38,-176.27,3,5
18539.25,0.497,-0.287,1.055,108.68,-22.49,-182.41,3,5
18539.25,0.584,-0.294,1.009,100.38,-24.63,-192.63,3,5
18539.265,0.645,-0.277,0.964,96.04,-20.33,-207.31,3,5
18539.281,0.667,-0.219,0.956,94.49,-12.05,-222.82,3,5
18539.281,0.647,-0.125,0.991,93.75,-0.95,-235.51,3,5
18539.296,0.56,-0.006,1.086,92.1,14.19,-240.91,3,5
18539.312,0.472,0.101,1.17,85.06,10.68,-231.67,3,5
18539.312,0.443,0.216,1.208,71.99,1.71,-221.87,3,5
18539.328,0.615,0.222,1.204,54.23,-11.93,-215.92,3,5
18539.343,0.644,0.216,1.184,53.8,-12.97,-218.67,3,5
18539.359,0.65,0.23,1.158,55.27,-10.93,-222.14,3,5
18539.359,0.651,0.227,1.144,55.7,-8.79,-226.69,3,5
18539.375,0.659,0.206,1.147,55.82,-7.87,-233.31,3,5
18539.39,0.653,0.224,1.151,57.62,-6.35,-241.04,3,5
18539.406,0.619,0.296,1.182,61.53,-4.58,-246.13,3,5
18539.406,0.595,0.417,1.177,66.93,-4.97,-246.38,3,5
18539.421,0.538,0.591,1.177,69.4,-7.29,-241.49,3,5
18539.421,0.478,0.73,1.194,66.59,-14.56,-229.96,3,5
18539.437,0.445,0.86,1.198,57.74,-25.24,-213.14,3,5
18539.453,0.408,0.967,1.164,43.24,-36.53,-191.87,3,5
18539.453,0.427,1.01,1.137,20.26,-50.29,-165.2,3,5
18539.468,0.518,1.005,1.115,-5.37,-62.38,-138.07,3,5
18539.468,0.635,0.93,1.087,-24.75,-66.87,-113.13,3,5
18539.484,0.696,0.837,1.036,-35.71,-65.22,-96.65,3,5
18539.5,0.692,0.74,0.96,-37.17,-57.07,-84.48,3,5
18539.515,0.679,0.646,0.902,-31.86,-45.66,-73.09,3,5
18539.515,0.678,0.573,0.857,-22.19,-34.88,-64.76,3,5
18539.531,0.628,0.522,0.814,-12.97,-24.45,-57.95,3,5
18539.531,0.639,0.48,0.765,-7.32,-16.17,-50.69,3,5
18539.546,0.657,0.443,0.718,-6.87,-8.85,-48.49,3,5
18539.546,0.599,0.371,0.722,-9.77,3.02,-46.57,3,5
18539.562,0.542,0.312,0.719,-8.64,11.75,-43.4,3,5
18539.578,0.506,0.29,0.709,-3.17,15.53,-43.67,3,5
18539.578,0.467,0.279,0.694,2.96,17.58,-47.64,3,5
18539.593,0.429,0.278,0.674,8.79,18.13,-55.91,3,5
18539.609,0.387,0.282,0.658,14.8,17.79,-67.66,3,5
18539.609,0.35,0.282,0.637,22.06,16.05,-80.11,3,5
18539.625,0.332,0.277,0.615,31.37,13.79,-93.05,3,5
18539.64,0.276,0.283,0.649,44.65,12.33,-106.23,3,5
18539.64,0.193,0.268,0.643,64.15,9.34,-116.43,3,5
18539.656,0.147,0.303,0.632,81.64,1.95,-123.36,3,5
18539.671,0.146,0.343,0.626,94.42,-7.66,-132.08,3,5
18539.671,0.151,0.361,0.609,101.78,-14.68,-143.86,3,5
18539.687,0.145,0.385,0.601,104.83,-20.45,-156.96,3,5
18539.703,0.108,0.404,0.609,107.43,-25.94,-171.0,3,5
18539.703,0.062,0.426,0.628,112.89,-32.65,-183.72,3,5
18539.718,0.001,0.467,0.637,120.7,-41.23,-194.22,3,5
18539.718,-0.052,0.507,0.63,126.87,-52.98,-202.61,3,5
18539.734,-0.075,0.533,0.605,130.77,-67.29,-209.48,3,5
18539.75,-0.079,0.563,0.574,133.15,-80.11,-217.44,3,5
18539.75,-0.093,0.565,0.539,135.32,-90.24,-225.62,3,5
18539.765,-0.105,0.569,0.499,138.37,-96.26,-234.29,3,5
18539.781,-0.121,0.583,0.469,142.61,-99.34,-241.19,3,5
18539.781,-0.146,0.61,0.431,147.47,-99.37,-247.54,3,5
18539.796,-0.187,0.623,0.386,149.42,-98.21,-252.11,3,5
18539.812,-0.21,0.64,0.341,148.11,-95.92,-256.08,3,5
18539.812,-0.219,0.661,0.304,145.7,-89.36,-261.82,3,5
18539.828,-0.426,0.775,0.453,148.47,-66.56,-277.47,3,5
18539.843,-0.645,0.816,0.511,168.34,-67.93,-274.54,3,5
18539.859,-0.773,0.974,0.42,181.34,-83.56,-255.47,3,5
18539.859,-0.801,1.147,0.386,173.28,-108.86,-228.89,3,5
18539.875,-0.743,1.174,0.346,151.4,-124.73,-208.56,3,5
18539.89,-0.74,1.136,0.279,120.37,-135.32,-193.21,3,5
18539.89,-0.715,1.103,0.25,87.13,-148.63,-178.17,3,5
18539.906,-0.659,1.046,0.244,63.88,-156.83,-166.05,3,5
18539.921,-0.611,0.996,0.235,51.7,-154.03,-154.79,3,5
18539.921,-0.598,0.974,0.222,48.25,-143.71,-145.02,3,5
18539.937,-0.611,0.953,0.219,48.89,-131.6,-135.53,3,5
18539.953,-0.614,0.956,0.214,48.59,-122.01,-125.31,3,5
18539.953,-0.614,0.972,0.207,45.47,-114.41,-115.79,3,5
18539.968,-0.621,0.968,0.217,38.76,-107.24,-107.3,3,5
18539.984,-0.63,0.956,0.231,30.52,-100.59,-98.79,3,5
18539.984,-0.643,0.948,0.25,23.77,-94.79,-90.4,3,5
18540.0,-0.646,0.926,0.246,19.2,-89.75,-82.34,3,5
18540.0,-0.626,0.908,0.237,15.02,-85.33,-75.26,3,5
18540.015,-0.616,0.895,0.236,11.35,-80.05,-69.77,3,5
18540.031,-0.615,0.881,0.235,8.27,-73.7,-65.16,3,5
18540.031,-0.623,0.878,0.239,4.73,-67.6,-59.85,3,5
18540.046,-0.629,0.884,0.239,-0.95,-62.32,-53.93,3,5
18540.062,-0.622,0.892,0.245,-10.53,-57.99,-47.58,3,5
18540.062,-0.609,0.894,0.251,-22.16,-54.17,-41.47,3,5
18540.078,-0.588,0.872,0.259,-33.91,-50.42,-35.86,3,5
18540.078,-0.556,0.853,0.265,-44.71,-45.23,-31.16,3,5
18540.093,-0.527,0.835,0.283,-53.8,-39.16,-27.19,3,5
18540.109,-0.496,0.811,0.314,-57.59,-32.35,-24.08,3,5
18540.109,-0.487,0.802,0.326,-55.21,-23.35,-21.18,3,5
18540.125,-0.484,0.827,0.335,-51.82,-14.74,-17.52,3,5
18540.14,-0.486,0.856,0.357,-51.03,-8.0,-14.31,3,5
18540.14,-0.476,0.857,0.368,-54.08,-4.15,-11.08,3,5
18540.171,-0.453,0.844,0.384,-64.27,0.58,-6.13,3,5
18540.171,-0.437,0.823,0.4,-68.48,2.72,-3.48,3,5
18540.187,-0.413,0.805,0.409,-70.19,6.2,-1.56,3,5
18540.203,-0.407,0.785,0.426,-69.52,11.72,-0.37,3,5
18540.203,-0.394,0.758,0.431,-68.09,17.98,0.64,3,5
18540.218,-0.386,0.751,0.446,-66.47,25.94,0.7,3,5
18540.218,-0.413,0.739,0.469,-63.26,34.36,0.03,3,5
18540.234,-0.447,0.732,0.483,-60.4,40.83,0.31,3,5
18540.25,-0.462,0.735,0.506,-59.97,43.79,1.28,3,5
18540.25,-0.475,0.734,0.529,-60.88,44.74,1.68,3,5
18540.265,-0.482,0.72,0.536,-61.92,43.89,2.23,3,5
18540.281,-0.47,0.709,0.54,-63.51,42.51,2.81,3,5
18540.281,-0.45,0.699,0.54,-68.7,43.7,-0.58,3,5
18540.296,-0.435,0.684,0.546,-69.7,45.29,-4.06,3,5
18540.312,-0.429,0.659,0.542,-69.19,47.7,-7.78,3,5
18540.312,-0.438,0.624,0.548,-67.48,50.63,-12.05,3,5
18540.343,-0.473,0.595,0.571,-56.89,56.46,-19.68,3,5
18540.343,-0.489,0.609,0.58,-49.65,58.23,-22.58,3,5
18540.359,-0.518,0.635,0.602,-43.37,58.5,-25.15,3,5
18540.359,-0.538,0.635,0.609,-39.22,55.64,-26.64,3,5
18540.375,-0.519,0.64,0.593,-38.76,50.72,-27.77,3,5
18540.39,-0.502,0.63,0.566,-39.92,48.4,-30.27,3,5
18540.39,-0.514,0.605,0.548,-40.86,49.23,-34.27,3,5
18540.406,-0.534,0.571,0.558,-39.43,50.39,-37.29,3,5
18540.421,-0.534,0.573,0.597,-33.27,52.34,-38.54,3,5
18540.421,-0.585,0.608,0.645,-19.96,55.27,-38.64,3,5
18540.437,-0.646,0.595,0.631,-3.97,56.03,-34.33,3,5
18540.453,-0.635,0.624,0.603,5.1,52.37,-27.19,3,5
18540.453,-0.605,0.642,0.563,7.72,49.75,-23.16,3,5
18540.468,-0.585,0.612,0.516,5.31,51.0,-23.99,3,5
18540.468,-0.592,0.582,0.47,1.31,56.09,-27.62,3,5
18540.484,-0.603,0.539,0.453,-0.12,61.98,-30.24,3,5
18540.515,-0.586,0.5,0.431,15.66,81.82,-34.49,3,5
18540.515,-0.673,0.559,0.503,34.33,95.68,-38.15,3,5
18540.531,-0.83,0.594,0.564,58.02,100.92,-35.43,3,5
18540.531,-0.927,0.651,0.595,75.05,92.93,-21.64,3,5
18540.546,-0.946,0.723,0.595,79.81,74.53,-2.53,3,5
18540.562,-0.933,0.785,0.532,68.73,50.72,14.1,3,5
18540.562,-0.845,0.772,0.487,40.96,27.47,26.95,3,5
18540.578,-0.789,0.715,0.463,10.07,9.49,30.79,3,5
18540.593,-0.752,0.622,0.43,-12.36,-1.01,32.59,3,5
18540.593,-0.73,0.549,0.411,-23.59,-6.71,33.39,3,5
18540.609,-0.705,0.498,0.39,-22.13,-5.37,35.22,3,5
18540.609,-0.697,0.477,0.368,-13.46,0.34,36.23,3,5
18540.625,-0.705,0.471,0.351,-4.67,6.71,34.82,3,5
18540.64,-0.716,0.479,0.359,0.12,12.45,31.68,3,5
18540.64,-0.756,0.486,0.373,1.01,14.07,27.41,3,5
18540.656,-0.792,0.503,0.397,-2.32,10.99,24.11,3,5
18540.671,-0.824,0.502,0.418,-7.45,5.46,23.22,3,5
18540.671,-0.819,0.491,0.444,-12.3,-1.59,25.33,3,5
18540.687,-0.784,0.482,0.452,-13.98,-8.39,28.11,3,5
18540.687,-0.741,0.468,0.421,-13.67,-13.09,28.81,3,5
18540.703,-0.704,0.464,0.402,-14.62,-13.89,27.1,3,5
18540.718,-0.691,0.45,0.39,-15.14,-11.81,23.87,3,5
18540.718,-0.677,0.435,0.383,-14.95,-8.27,20.23,3,5
18540.734,-0.675,0.429,0.382,-13.03,-3.72,16.42,3,5
18540.75,-0.672,0.436,0.384,-10.86,-0.49,12.63,3,5
18540.75,-0.676,0.452,0.379,-9.98,1.83,8.82,3,5
18540.765,-0.684,0.477,0.392,-11.75,3.14,5.07,3,5
18540.781,-0.707,0.49,0.429,-14.37,2.23,1.8,3,5
18540.796,-0.718,0.486,0.435,-16.39,-2.29,0.67,3,5
18540.796,-0.695,0.49,0.414,-19.65,-7.75,0.31,3,5
18540.812,-0.669,0.48,0.399,-23.68,-10.56,-0.76,3,5
18540.812,-0.641,0.471,0.412,-25.36,-9.34,-1.43,3,5
18540.828,-0.642,0.481,0.436,-21.0,-4.67,-2.17,3,5
18540.843,-0.655,0.475,0.435,-13.03,0.03,-3.11,3,5
18540.843,-0.658,0.496,0.43,-8.88,2.47,-3.75,3,5
18540.859,-0.659,0.513,0.436,-9.09,3.97,-5.31,3,5
18540.859,-0.668,0.524,0.452,-10.62,5.46,-7.69,3,5
18540.875,-0.684,0.534,0.471,-11.57,5.71,-8.79,3,5
18540.89,-0.691,0.536,0.479,-12.09,3.97,-7.87,3,5
18540.89,-0.693,0.542,0.484,-12.39,1.92,-6.65,3,5
18540.906,-0.696,0.547,0.481,-12.91,-0.06,-6.23,3,5
18540.921,-0.689,0.543,0.476,-14.77,-2.38,-6.26,3,5
18540.921,-0.681,0.542,0.476,-16.85,-3.48,-6.96,3,5
18540.937,-0.678,0.539,0.474,-17.58,-2.93,-8.21,3,5
18540.953,-0.678,0.534,0.475,-17.33,-1.28,-9.52,3,5
18540.953,-0.682,0.528,0.476,-16.27,1.04,-10.35,3,5
18540.968,-0.687,0.529,0.486,-13.92,3.48,-10.22,3,5
18540.968,-0.694,0.535,0.487,-10.47,5.65,-10.28,3,5
18540.984,-0.695,0.532,0.477,-7.23,7.29,-11.05,3,5
18541.0,-0.689,0.527,0.466,-5.55,8.94,-12.48,3,5
18541.0,-0.682,0.531,0.463,-4.67,11.63,-14.31,3,5
18541.015,-0.686,0.542,0.471,-2.99,14.95,-16.05,3,5
18541.031,-0.714,0.57,0.489,-1.28,17.4,-16.63,3,5
18541.031,-0.724,0.581,0.483,-1.77,16.54,-14.37,3,5
18541.046,-0.718,0.598,0.479,-6.16,13.58,-10.19,3,5
18541.062,-0.706,0.609,0.478,-13.12,10.16,-5.89,3,5
18541.062,-0.68,0.611,0.478,-22.16,6.65,-2.44,3,5
18541.078,-0.66,0.604,0.477,-30.82,5.04,0.37,3,5
18541.078,-0.647,0.59,0.484,-37.42,4.94,2.66,3,5
18541.093,-0.636,0.577,0.488,-41.57,6.32,4.67,3,5
18541.109,-0.634,0.576,0.493,-43.09,8.85,6.16,3,5
18541.125,-0.643,0.567,0.495,-42.88,10.65,7.17,3,5
18541.125,-0.649,0.556,0.494,-42.05,10.47,7.72,3,5
18541.14,-0.649,0.542,0.488,-40.86,8.33,7.42,3,5
18541.14,-0.644,0.528,0.483,-38.76,5.58,6.56,3,5
18541.156,-0.634,0.516,0.483,-34.85,3.08,5.13,3,5
18541.171,-0.628,0.502,0.474,-28.96,0.79,3.33,3,5
18541.171,-0.625,0.495,0.462,-22.34,-0.79,1.4,3,5
18541.187,-0.622,0.495,0.457,-15.63,-1.31,-0.21,3,5
18541.187,-0.623,0.508,0.457,-9.13,-1.1,-1.74,3,5
18541.203,-0.633,0.523,0.454,-3.75,-0.52,-3.02,3,5
18541.218,-0.646,0.534,0.446,-1.65,-0.21,-3.51,3,5
18541.218,-0.655,0.538,0.443,-2.26,0.21,-3.3,3,5
18541.234,-0.667,0.539,0.447,-3.75,0.46,-3.08,3,5
18541.25,-0.681,0.532,0.448,-4.3,-0.09,-3.48,3,5
18541.25,-0.692,0.521,0.442,-3.6,-1.28,-4.67,3,5
18541.265,-0.695,0.517,0.439,2.99,-3.72,-9.0,3,5
18541.281,-0.694,0.516,0.436,8.21,-4.09,-12.05,3,5
18541.281,-0.704,0.517,0.43,13.55,-4.76,-14.28,3,5
18541.296,-0.714,0.511,0.421,18.8,-5.16,-15.69,3,5
18541.312,-0.732,0.542,0.426,24.29,-4.61,-16.79,3,5
18541.312,-0.746,0.553,0.426,28.69,-4.49,-16.36,3,5
18541.328,-0.752,0.57,0.427,31.07,-4.76,-13.86,3,5
18541.343,-0.751,0.588,0.42,31.98,-4.46,-11.05,3,5
18541.343,-0.755,0.597,0.412,30.58,-3.57,-8.73,3,5
18541.359,-0.761,0.6,0.406,27.16,-2.75,-6.62,3,5
18541.359,-0.768,0.599,0.4,22.92,-2.41,-4.18,3,5
18541.375,-0.773,0.593,0.389,18.95,-1.83,-1.25,3,5
18541.39,-0.779,0.584,0.382,15.26,-0.82,1.5,3,5
18541.39,-0.791,0.575,0.382,12.97,0.89,4.67,3,5
18541.406,-0.8,0.558,0.373,12.12,3.08,8.88,3,5
18541.421,-0.799,0.55,0.358,11.51,4.61,13.31,3,5
18541.421,-0.798,0.544,0.345,11.17,6.07,16.48,3,5
18541.437,-0.796,0.53,0.336,9.52,7.72,17.91,3,5
18541.453,-0.796,0.525,0.327,6.16,8.55,18.28,3,5
18541.453,-0.787,0.517,0.319,1.74,9.06,18.22,3,5
18541.468,-0.784,0.514,0.317,-3.14,9.95,18.07,3,5
18541.468,-0.772,0.508,0.313,-8.21,10.96,18.86,3,5
18541.484,-0.754,0.506,0.307,-14.07,11.99,20.2,3,5
18541.5,-0.744,0.513,0.313,-20.11,14.19,21.15,3,5
18541.515,-0.747,0.511,0.321,-25.94,17.73,21.79,3,5
18541.515,-0.746,0.507,0.322,-32.23,20.54,23.35,3,5
18541.531,-0.735,0.505,0.325,-39.31,22.16,25.15,3,5
18541.531,-0.727,0.498,0.325,-46.24,24.14,25.88,3,5
18541.546,-0.725,0.488,0.33,-52.43,27.47,26.31,3,5
18541.562,-0.719,0.483,0.333,-57.68,31.1,27.34,3,5
18541.562,-0.711,0.479,0.334,-62.35,34.76,28.26,3,5
18541.578,-0.702,0.475,0.336,-67.17,38.7,28.44,3,5
18541.593,-0.702,0.477,0.348,-71.93,42.51,28.38,3,5
18541.593,-0.701,0.476,0.357,-76.39,44.86,28.75,3,5
18541.609,-0.685,0.477,0.368,-80.32,46.6,29.48,3,5
18541.609,-0.678,0.481,0.38,-83.5,48.4,30.03,3,5
18541.625,-0.675,0.486,0.395,-86.0,49.29,30.55,3,5
18541.64,-0.674,0.49,0.413,-87.59,50.11,31.46,3,5
18541.64,-0.675,0.496,0.429,-88.17,50.87,32.62,3,5
18541.656,-0.679,0.503,0.444,-88.75,51.06,33.6,3,5
18541.671,-0.683,0.507,0.462,-89.6,50.69,34.46,3,5
18541.687,-0.695,0.517,0.492,-89.97,50.63,36.32,3,5
18541.703,-0.699,0.523,0.505,-89.75,49.29,37.87,3,5
18541.703,-0.695,0.53,0.52,-89.51,47.3,39.55,3,5
18541.718,-0.695,0.534,0.531,-88.53,45.26,40.93,3,5
18541.718,-0.687,0.532,0.538,-87.44,42.79,42.12,3,5
18541.734,-0.683,0.529,0.541,-85.76,40.41,42.85,3,5
18541.75,-0.681,0.525,0.546,-82.77,38.76,43.03,3,5
18541.75,-0.682,0.521,0.549,-78.52,37.39,43.12,3,5
18541.765,-0.688,0.516,0.556,-73.34,36.38,43.37,3,5
18541.781,-0.694,0.511,0.569,-67.2,35.46,43.64,3,5
18541.796,-0.703,0.504,0.574,-59.6,34.06,43.92,3,5
18541.796,-0.707,0.494,0.569,-50.57,31.59,44.5,3,5
18541.796,-0.707,0.488,0.565,-41.6,28.93,44.74,3,5
18541.812,-0.71,0.489,0.565,-34.03,25.76,43.92,3,5
18541.828,-0.707,0.486,0.56,-27.34,22.03,43.06,3,5
18541.843,-0.696,0.486,0.553,-21.18,19.41,42.94,3,5
18541.859,-0.694,0.485,0.542,-12.54,18.04,43.37,3,5
18541.875,-0.695,0.485,0.529,-10.83,17.24,43.58,3,5
18541.875,-0.683,0.485,0.531,-11.38,15.96,44.83,3,5
18541.89,-0.678,0.485,0.535,-12.97,16.51,46.27,3,5
18541.89,-0.679,0.476,0.536,-16.57,17.7,47.88,3,5
18541.906,-0.682,0.47,0.547,-22.06,18.4,49.62,3,5
18541.921,-0.689,0.462,0.561,-27.5,19.2,51.21,3,5
18541.921,-0.692,0.449,0.573,-32.26,20.17,53.04,3,5
18541.937,-0.697,0.441,0.586,-36.84,21.3,54.57,3,5
18541.953,-0.706,0.428,0.602,-40.65,22.83,55.02,3,5
18541.953,-0.723,0.409,0.62,-41.84,24.26,53.8,3,5
18541.968,-0.739,0.385,0.641,-38.88,24.87,50.14,3,5
18541.968,-0.752,0.362,0.651,-30.64,23.83,43.49,3,5
18541.984,-0.76,0.345,0.656,-17.7,21.79,35.46,3,5
18542.0,-0.753,0.334,0.664,-1.77,20.02,27.16,3,5
18542.0,-0.738,0.346,0.654,16.48,18.59,18.89,3,5
18542.015,-0.712,0.378,0.643,33.02,17.85,11.32,3,5
18542.031,-0.695,0.408,0.636,46.14,19.14,3.81,3,5
18542.031,-0.694,0.441,0.626,55.45,21.24,-2.5,3,5
18542.046,-0.69,0.479,0.607,59.66,22.89,-7.02,3,5
18542.062,-0.681,0.516,0.582,58.78,23.96,-9.89,3,5
18542.062,-0.675,0.536,0.559,52.34,23.99,-12.7,3,5
18542.078,-0.677,0.538,0.547,41.51,21.76,-15.29,3,5
18542.093,-0.67,0.535,0.537,29.21,18.98,-17.24,3,5
18542.093,-0.663,0.521,0.522,17.85,17.03,-18.13,3,5
18542.109,-0.66,0.503,0.505,8.18,15.69,-18.04,3,5
18542.125,-0.656,0.489,0.496,1.77,16.27,-17.18,3,5
18542.125,-0.667,0.47,0.493,-0.55,18.1,-15.23,3,5
18542.14,-0.69,0.469,0.505,0.06,19.26,-11.99,3,5
18542.14,-0.721,0.475,0.518,3.81,20.54,-7.51,3,5
18542.156,-0.745,0.449,0.496,8.88,17.67,-0.09,3,5
18542.171,-0.727,0.458,0.476,12.18,13.37,6.38,3,5
18542.171,-0.718,0.452,0.454,13.25,9.67,10.41,3,5
18542.187,-0.703,0.442,0.426,11.29,6.2,11.11,3,5
18542.203,-0.695,0.437,0.41,7.48,3.85,9.46,3,5
18542.203,-0.689,0.425,0.394,3.45,2.11,7.75,3,5
18542.218,-0.679,0.421,0.382,0.27,1.95,6.01,3,5
18542.234,-0.668,0.415,0.368,-1.71,3.11,4.67,3,5
18542.234,-0.662,0.408,0.352,-3.57,5.16,3.3,3,5
18542.25,-0.656,0.408,0.34,-5.43,7.72,2.01,3,5
18542.25,-0.652,0.41,0.334,-11.47,13.92,-1.01,3,5
18542.265,-0.651,0.412,0.33,-14.77,17.06,-2.38,3,5
18542.281,-0.646,0.415,0.328,-18.04,20.23,-3.66,3,5
18542.296,-0.653,0.436,0.345,-20.72,22.86,-4.91,3,5
18542.296,-0.665,0.456,0.364,-23.71,24.57,-5.74,3,5
18542.312,-0.679,0.466,0.374,-26.55,24.63,-5.95,3,5
18542.312,-0.688,0.478,0.383,-28.99,23.65,-5.62,3,5
18542.328,-0.699,0.496,0.391,-31.34,22.68,-5.37,3,5
18542.343,-0.709,0.505,0.398,-32.99,21.67,-5.16,3,5
18542.343,-0.719,0.512,0.405,-33.94,20.69,-5.04,3,5
18542.359,-0.73,0.521,0.416,-33.72,20.45,-4.67,3,5
18542.359,-0.736,0.528,0.432,-32.11,21.06,-3.91,3,5
18542.375,-0.741,0.537,0.437,-29.48,21.61,-3.57,3,5
18542.39,-0.746,0.546,0.437,-26.89,21.06,-3.36,3,5
18542.39,-0.75,0.556,0.442,-24.14,19.65,-3.27,3,5
18542.406,-0.753,0.568,0.446,-21.67,17.46,-3.02,3,5
18542.421,-0.752,0.576,0.446,-19.75,14.71,-2.26,3,5
18542.421,-0.754,0.583,0.438,-18.4,11.96,-1.16,3,5
18542.437,-0.749,0.585,0.424,-17.98,9.13,0.61,3,5
18542.437,-0.744,0.594,0.423,-18.37,7.51,2.66,3,5
18542.453,-0.742,0.601,0.417,-18.92,7.11,4.79,3,5
18542.468,-0.745,0.61,0.411,-20.08,7.26,7.35,3,5
18542.468,-0.752,0.616,0.415,-21.76,7.32,10.74,3,5
18542.484,-0.752,0.618,0.412,-23.5,7.35,14.62,3,5
18542.5,-0.748,0.612,0.406,-25.27,7.78,18.46,3,5
18542.5,-0.744,0.608,0.403,-27.53,8.58,21.85,3,5
18542.515,-0.747,0.606,0.409,-29.63,9.28,24.66,3,5
18542.531,-0.751,0.6,0.42,-31.25,9.8,27.04,3,5
18542.531,-0.756,0.6,0.434,-31.92,9.64,29.33,3,5
18542.546,-0.756,0.604,0.448,-31.4,8.73,31.92,3,5
18542.562,-0.744,0.606,0.455,-30.37,6.99,34.55,3,5
18542.562,-0.731,0.616,0.458,-29.76,5.1,36.32,3,5
18542.578,-0.716,0.625,0.459,-29.69,3.45,37.05,3,5
18542.578,-0.701,0.633,0.457,-30.12,2.38,37.05,3,5
18542.593,-0.696,0.646,0.462,-30.3,1.83,37.42,3,5
18542.609,-0.69,0.657,0.468,-30.09,1.13,39.12,3,5
18542.609,-0.675,0.672,0.469,-29.21,0.43,42.18,3,5
18542.625,-0.668,0.693,0.464,-28.41,0.09,45.93,3,5
18542.64,-0.66,0.707,0.465,-29.21,0.06,50.66,3,5
18542.64,-0.65,0.712,0.469,-32.04,-0.06,55.64,3,5
18542.656,-0.641,0.708,0.472,-35.71,-0.79,60.7,3,5
18542.671,-0.626,0.7,0.48,-40.25,-1.53,65.46,3,5
18542.687,-0.608,0.684,0.491,-44.43,-1.71,69.4,3,5
18542.687,-0.584,0.667,0.502,-47.24,-1.43,72.33,3,5
18542.687,-0.562,0.653,0.522,-47.73,-0.52,74.22,3,5
18542.703,-0.551,0.638,0.54,-45.59,0.98,74.92,3,5
18542.718,-0.535,0.627,0.559,-42.02,2.47,74.62,3,5
18542.718,-0.527,0.622,0.57,-38.12,3.6,72.88,3,5
18542.734,-0.518,0.608,0.58,-33.48,3.39,69.52,3,5
18542.75,-0.481,0.589,0.602,-27.56,3.39,65.46,3,5
18542.75,-0.44,0.573,0.641,-19.5,5.31,61.07,3,5
18542.765,-0.414,0.553,0.68,-9.92,8.36,56.0,3,5
18542.781,-0.411,0.519,0.715,0.58,10.04,49.56,3,5
18542.781,-0.431,0.48,0.727,14.13,8.24,40.19,3,5
18542.796,-0.439,0.437,0.699,33.69,2.04,27.31,3,5
18542.812,-0.417,0.441,0.658,60.7,-5.31,9.28,3,5
18542.812,-0.46,0.398,0.596,94.91,-12.02,-10.53,3,5
18542.828,-0.454,0.423,0.552,128.67,-19.93,-25.73,3,5
18542.828,-0.462,0.543,0.471,162.91,-23.13,-39.55,3,5
18542.843,-0.498,0.668,0.378,187.81,-21.61,-47.82,3,5
18542.859,-0.564,0.936,0.234,187.48,-14.89,-35.28,3,5
18542.875,-0.61,1.061,0.161,163.85,-9.92,-14.34,3,5
18542.89,-0.642,1.154,0.101,121.31,-7.84,13.92,3,5
18542.89,-0.637,1.177,0.089,65.74,-9.46,42.7,3,5
18542.906,-0.645,1.151,0.085,8.3,-12.36,69.61,3,5
18542.921,-0.633,1.066,0.077,-46.85,-17.21,93.75,3,5
18542.921,-0.594,0.942,0.081,-94.97,-24.45,111.85,3,5
18542.937,-0.553,0.829,0.11,-130.8,-28.6,123.33,3,5
18542.953,-0.539,0.747,0.152,-150.98,-28.47,129.34,3,5
18542.953,-0.527,0.65,0.192,-157.29,-26.92,133.61,3,5
18542.968,-0.515,0.558,0.247,-153.32,-24.57,137.52,3,5
18542.968,-0.514,0.521,0.295,-140.72,-23.19,139.99,3,5
18542.984,-0.511,0.533,0.332,-127.35,-25.51,139.62,3,5
18543.0,-0.519,0.575,0.365,-119.82,-31.25,136.23,3,5
18543.0,-0.527,0.623,0.375,-120.43,-40.77,132.15,3,5
18543.015,-0.526,0.659,0.389,-131.05,-53.5,128.88,3,5
18543.031,-0.445,0.64,0.441,-165.59,-76.05,124.85,3,5
18543.046,-0.418,0.589,0.465,-176.58,-79.29,121.43,3,5
18543.062,-0.409,0.497,0.475,-177.86,-80.26,117.31,3,5
18543.062,-0.402,0.411,0.487,-172.03,-81.45,112.46,3,5
18543.078,-0.372,0.366,0.513,-161.41,-83.93,104.68,3,5
18543.093,-0.325,0.367,0.544,-148.93,-85.21,93.42,3,5
18543.093,-0.296,0.38,0.562,-139.44,-83.38,79.5,3,5
18543.109,-0.274,0.373,0.581,-135.01,-79.59,64.42,3,5
18543.125,-0.269,0.374,0.623,-131.08,-72.76,50.6,3,5
18543.125,-0.283,0.375,0.681,-121.37,-63.14,41.17,3,5
18543.14,-0.302,0.384,0.74,-105.04,-54.54,36.93,3,5
18543.14,-0.3,0.398,0.789,-83.96,-48.01,36.26,3,5
18543.156,-0.308,0.42,0.801,-60.27,-42.73,36.29,3,5
18543.171,-0.304,0.445,0.796,-39.31,-39.61,35.83,3,5
18543.171,-0.284,0.474,0.783,-23.8,-37.35,34.09,3,5
18543.187,-0.261,0.495,0.763,-14.22,-33.23,31.83,3,5
18543.203,-0.24,0.515,0.761,-12.91,-27.34,29.51,3,5
18543.203,-0.229,0.528,0.78,-16.6,-19.32,28.17,3,5
18543.218,-0.229,0.537,0.822,-21.79,-9.22,28.17,3,5
18543.218,-0.243,0.55,0.879,-25.88,0.43,29.21,3,5
18543.234,-0.25,0.541,0.927,-26.98,8.48,31.59,3,5
18543.25,-0.261,0.559,0.983,-22.43,5.49,31.07,3,5
18543.25,-0.264,0.561,1.042,-16.14,-3.3,28.08,3,5
18543.265,-0.254,0.547,1.049,-9.55,-10.71,26.12,3,5
18543.281,-0.201,0.57,0.949,-4.36,-13.76,25.27,3,5
18543.296,-0.18,0.556,0.897,-2.84,-13.09,24.08,3,5
18543.296,-0.171,0.542,0.861,-4.64,-10.5,21.91,3,5
18543.296,-0.175,0.542,0.844,-6.59,-6.78,19.78,3,5
18543.312,-0.173,0.525,0.824,-6.74,-3.94,19.17,3,5
18543.328,-0.165,0.508,0.824,-4.64,-1.65,19.17,3,5
18543.343,-0.169,0.514,0.846,-0.24,-0.21,18.8,3,5
18543.343,-0.173,0.521,0.875,4.85,-1.13,18.04,3,5
18543.359,-0.14,0.545,0.91,8.21,-11.35,15.69,3,5
18543.375,-0.113,0.556,0.9,7.9,-16.75,14.04,3,5
18543.39,-0.087,0.55,0.87,7.23,-20.2,12.33,3,5
18543.406,-0.056,0.546,0.836,6.29,-21.36,10.53,3,5
18543.406,-0.028,0.547,0.812,6.87,-20.29,9.13,3,5
18543.421,-0.006,0.544,0.798,8.42,-16.51,8.12,3,5
18543.421,0.007,0.546,0.785,10.01,-10.65,7.42,3,5
18543.437,0.006,0.54,0.774,11.35,-4.33,6.56,3,5
18543.453,-0.017,0.544,0.787,11.14,0.82,5.65,3,5
18543.453,-0.034,0.547,0.805,10.04,3.72,5.13,3,5
18543.468,-0.045,0.545,0.82,7.39,4.15,4.61,3,5
18543.468,-0.045,0.552,0.831,3.57,2.69,3.97,3,5
18543.484,-0.035,0.554,0.837,0.4,1.68,2.84,3,5
18543.5,-0.024,0.544,0.837,-0.92,1.46,1.46,3,5
18543.5,-0.018,0.546,0.846,-0.7,1.95,0.15,3,5
18543.515,-0.026,0.555,0.85,1.31,2.41,-1.62,3,5
18543.531,-0.032,0.549,0.847,5.13,2.01,-3.45,3,5
18543.531,-0.041,0.553,0.844,10.16,1.92,-4.94,3,5
18543.546,-0.053,0.564,0.843,15.75,1.43,-5.83,3,5
18543.562,-0.053,0.571,0.835,20.97,0.58,-5.86,3,5
18543.562,-0.048,0.586,0.82,23.53,0.46,-6.13,3,5
18543.578,-0.057,0.603,0.805,24.05,0.95,-7.2,3,5
18543.578,-0.072,0.609,0.784,24.26,1.25,-7.11,3,5
18543.593,-0.079,0.619,0.775,22.03,0.58,-5.01,3,5
18543.609,-0.068,0.622,0.77,18.19,-0.76,-1.83,3,5
18543.609,-0.058,0.605,0.756,14.74,-1.16,1.4,3,5
18543.625,-0.055,0.57,0.738,12.21,0.03,3.33,3,5
18543.64,-0.048,0.537,0.728,11.11,2.66,3.33,3,5
18543.64,-0.05,0.523,0.728,10.04,5.92,1.22,3,5
18543.656,-0.055,0.521,0.734,10.01,8.67,-1.92,3,5
18543.671,-0.067,0.518,0.739,11.63,11.08,-5.04,3,5
18543.671,-0.111,0.538,0.77,12.39,12.24,-7.69,3,5
18543.687,-0.154,0.627,0.838,7.84,8.88,-7.51,3,5
18543.703,-0.153,0.685,0.869,1.37,1.53,-3.85,3,5
18543.703,-0.097,0.663,0.832,-3.78,-5.74,-0.43,3,5
18543.718,-0.077,0.567,0.812,-2.99,-4.46,0.15,3,5
18543.718,-0.186,0.615,0.854,-6.01,-4.91,-1.95,3,5
18543.734,-0.102,0.699,0.885,-14.01,-10.13,1.25,3,5
18543.75,-0.113,0.631,0.856,-7.2,-12.39,3.78,3,5
18543.765,-0.094,0.587,0.839,-5.31,-13.61,6.01,3,5
18543.765,-0.057,0.601,0.835,-5.52,-13.58,6.96,3,5
18543.781,-0.061,0.585,0.82,-1.22,-11.75,5.95,3,5
18543.781,-0.058,0.585,0.832,2.69,-9.61,4.97,3,5
18543.796,-0.064,0.625,0.862,6.5,-7.39,4.49,3,5
18543.812,-0.084,0.644,0.888,11.9,-6.59,5.46,3,5
18543.812,-0.093,0.637,0.902,16.75,-9.06,8.03,3,5
18543.828,-0.092,0.629,0.876,21.45,-12.88,10.53,3,5
18543.828,-0.085,0.617,0.846,25.97,-17.18,12.24,3,5
18543.843,-0.073,0.604,0.84,28.72,-21.3,13.55,3,5
18543.859,-0.066,0.621,0.818,26.37,-26.25,13.25,3,5
18543.859,-0.064,0.634,0.799,18.95,-31.28,13.18,3,5
18543.875,0.005,0.666,0.753,7.6,-34.55,14.68,3,5
18543.89,0.05,0.553,0.692,8.45,-29.88,15.2,3,5
18543.89,0.006,0.518,0.682,7.2,-23.74,12.33,3,5
18543.906,0.03,0.591,0.714,-0.76,-19.07,11.75,3,5
18543.921,0.029,0.584,0.726,-2.04,-16.51,11.84,3,5
18543.921,0.032,0.552,0.732,-2.2,-13.95,11.66,3,5
18543.937,0.026,0.524,0.728,0.18,-12.05,9.86,3,5
18543.953,0.014,0.548,0.739,2.5,-10.83,7.57,3,5
18543.953,0.006,0.577,0.765,4.36,-11.05,5.92,3,5
18543.968,0.003,0.581,0.767,6.68,-12.54,4.79,3,5
18543.968,0.003,0.583,0.754,7.6,-14.59,4.39,3,5
18543.984,0.016,0.596,0.742,5.89,-16.39,4.0,3,5
18544.0,0.039,0.606,0.736,1.83,-16.72,2.78,3,5
18544.0,0.049,0.603,0.73,-2.62,-15.17,1.34,3,5
18544.015,0.057,0.593,0.73,-6.56,-11.81,-0.09,3,5
18544.031,0.065,0.588,0.741,-9.55,-7.57,-2.29,3,5
18544.031,0.062,0.581,0.752,-10.22,-3.14,-5.16,3,5
18544.046,0.048,0.578,0.772,-7.9,0.82,-7.93,3,5
18544.062,0.02,0.591,0.791,-2.26,3.48,-8.76,3,5
18544.062,0.006,0.624,0.815,3.27,4.06,-6.99,3,5
18544.078,0.004,0.659,0.834,4.91,1.86,-5.37,3,5
18544.093,0.007,0.65,0.827,4.64,-1.71,-5.01,3,5
18544.093,0.014,0.64,0.823,2.32,-4.97,-5.28,3,5
18544.109,0.019,0.631,0.806,2.47,-5.95,-5.04,3,5
18544.109,0.011,0.602,0.786,4.46,-5.89,-5.52,3,5
18544.125,0.008,0.6,0.784,5.55,-5.86,-5.83,3,5
18544.14,-0.0,0.604,0.786,7.84,-5.34,-6.16,3,5
18544.14,0.001,0.595,0.763,9.58,-5.71,-6.93,3,5
18544.156,0.077,0.546,0.711,12.36,-3.88,-8.88,3,5
18544.171,-0.047,0.522,0.73,18.95,2.04,-14.62,3,5
18544.171,-0.089,0.756,0.812,12.94,3.05,-11.87,3,5
18544.187,-0.015,0.806,0.797,9.89,-1.5,-1.5,3,5
18544.203,-0.019,0.751,0.762,6.81,-2.41,3.88,3,5
18544.203,-0.004,0.719,0.767,-0.67,-0.46,10.22,3,5
18544.218,-0.016,0.662,0.785,-2.2,0.79,14.19,3,5
18544.218,-0.035,0.601,0.789,2.32,-6.29,14.98,3,5
18544.234,-0.032,0.562,0.794,5.58,-11.54,12.76,3,5
18544.25,-0.018,0.565,0.792,8.33,-15.56,10.8,3,5
18544.25,0.009,0.597,0.795,9.4,-17.61,9.06,3,5
18544.265,0.047,0.668,0.777,7.29,-19.56,11.05,3,5
18544.281,0.141,0.587,0.716,6.32,-17.06,11.26,3,5
18544.281,0.078,0.57,0.705,4.06,-9.95,4.06,3,5
18544.296,0.086,0.627,0.738,-0.49,-4.52,2.53,3,5
18544.312,0.091,0.612,0.734,1.04,-1.19,1.43,3,5
18544.312,0.081,0.611,0.737,0.89,2.62,-0.43,3,5
18544.328,0.062,0.621,0.764,1.07,5.83,-1.22,3,5
18544.343,0.034,0.634,0.791,4.06,6.5,-1.01,3,5
18544.343,0.016,0.643,0.806,5.31,3.69,0.12,3,5
18544.359,0.027,0.659,0.816,3.3,-1.86,0.95,3,5
18544.359,0.037,0.659,0.809,0.55,-6.87,1.13,3,5
18544.375,0.05,0.638,0.79,-2.38,-10.62,0.79,3,5
18544.39,0.065,0.625,0.773,-5.31,-12.51,-0.67,3,5
18544.39,0.074,0.616,0.758,-6.32,-12.21,-2.29,3,5
18544.406,0.083,0.598,0.739,-4.7,-10.32,-3.48,3,5
18544.421,0.092,0.59,0.726,-2.23,-6.96,-4.58,3,5
18544.421,0.093,0.588,0.726,-0.31,-2.81,-6.07,3,5
18544.437,0.086,0.587,0.723,2.38,1.37,-7.72,3,5
18544.453,0.071,0.572,0.723,5.46,4.73,-9.7,3,5
18544.453,0.062,0.572,0.725,7.35,6.99,-12.12,3,5
18544.468,0.045,0.567,0.729,9.52,8.73,-14.8,3,5
18544.484,0.023,0.574,0.74,9.49,9.98,-16.94,3,5
18544.484,0.023,0.613,0.752,5.89,9.89,-17.67,3,5
18544.5,0.093,0.578,0.755,4.09,11.47,-17.94,3,5
18544.5,-0.07,0.661,0.821,2.35,15.11,-20.57,3,5
18544.515,-0.061,0.895,0.932,-9.49,11.08,-9.64,3,5
18544.531,-0.004,0.854,0.906,-9.13,3.45,3.08,3,5
18544.531,0.026,0.743,0.847,-10.68,1.31,9.34,3,5
18544.546,0.036,0.69,0.835,-13.95,2.9,11.66,3,5
18544.562,0.0,0.63,0.837,-7.75,4.03,10.1,3,5
18544.562,-0.046,0.575,0.836,2.69,0.95,7.35,3,5
18544.578,-0.05,0.539,0.82,11.81,-6.9,4.46,3,5
18544.593,-0.022,0.558,0.774,19.47,-14.4,1.22,3,5
18544.593,0.006,0.578,0.721,24.08,-17.7,-2.35,3,5
18544.609,-0.011,0.636,0.718,22.71,-18.31,-5.04,3,5
18544.609,0.102,0.675,0.658,18.46,-16.94,-2.26,3,5
18544.625,0.107,0.587,0.592,17.88,-6.87,-4.03,3,5
18544.64,0.063,0.622,0.621,10.71,4.97,-5.8,3,5
18544.64,0.084,0.647,0.652,4.85,13.18,-3.85,3,5
18544.656,0.059,0.625,0.658,1.56,19.59,-4.18,3,5
18544.671,0.029,0.619,0.697,-3.2,23.87,-4.15,3,5
18544.671,-0.009,0.627,0.744,-4.55,24.72,-2.56,3,5
18544.687,-0.036,0.629,0.775,-3.2,21.36,-0.15,3,5
18544.703,-0.047,0.626,0.795,-3.78,13.86,2.41,3,5
18544.703,-0.023,0.615,0.786,-5.46,4.55,3.45,3,5
18544.718,0.01,0.601,0.764,-6.38,-1.53,2.38,3,5
18544.734,0.026,0.618,0.734,-4.27,-1.86,-1.31,3,5
18544.75,0.019,0.642,0.731,-3.75,0.27,-1.5,3,5
18544.75,0.018,0.659,0.738,-4.79,2.41,-0.82,3,5
18544.765,0.012,0.666,0.747,-6.53,4.09,0.15,3,5
18544.781,-0.002,0.675,0.767,-8.64,4.67,1.25,3,5
18544.781,-0.013,0.676,0.777,-9.8,4.0,2.69,3,5
18544.796,-0.01,0.667,0.777,-10.77,2.26,4.24,3,5
18544.812,-0.01,0.661,0.782,-10.65,0.7,5.16,3,5
18544.812,-0.01,0.644,0.777,-9.83,-0.85,5.92,3,5
18544.828,-0.002,0.628,0.769,-9.31,-2.32,6.13,3,5
18544.843,0.005,0.613,0.762,-8.18,-2.35,5.46,3,5
18544.843,0.001,0.599,0.762,-6.65,-1.95,4.3,3,5
18544.859,0.001,0.592,0.761,-5.1,-2.08,3.02,3,5
18544.859,0.005,0.588,0.756,-2.93,-2.11,1.37,3,5
18544.875,0.01,0.598,0.752,-0.52,-1.5,-0.34,3,5
18544.89,0.004,0.616,0.752,1.83,-0.21,-1.5,3,5
18544.906,0.005,0.635,0.751,0.82,0.89,-1.4,3,5
18544.921,0.005,0.635,0.754,-1.01,1.56,-0.76,3,5
18544.921,0.005,0.634,0.761,-2.59,2.17,-0.15,3,5
18544.937,0.006,0.625,0.759,-3.45,2.87,0.4,3,5
18544.937,0.005,0.617,0.759,-3.88,3.54,0.64,3,5
18544.953,0.004,0.618,0.765,-4.06,4.21,0.58,3,5
18544.968,-0.006,0.617,0.772,-3.23,4.64,0.27,3,5
18544.968,-0.011,0.612,0.774,-1.83,4.15,0.18,3,5
18544.984,-0.008,0.61,0.772,-0.34,3.05,0.0,3,5
18545.0,-0.002,0.601,0.764,1.65,2.17,-0.4,3,5
18545.0,0.0,0.598,0.758,3.42,2.17,-0.82,3,5
18545.015,-0.0,0.6,0.757,4.36,2.93,-1.16,3,5
18545.031,-0.002,0.602,0.756,4.79,3.57,-0.92,3,5
18545.031,-0.002,0.602,0.756,4.24,3.72,-0.46,3,5
18545.046,-0.008,0.61,0.761,2.53,3.36,0.0,3,5
18545.062,-0.01,0.614,0.762,0.37,2.5,0.52,3,5
18545.078,-0.008,0.603,0.752,-2.62,0.67,2.26,3,5
18545.078,-0.005,0.6,0.755,-3.14,0.43,2.84,3,5
18545.093,-0.006,0.601,0.758,-3.3,0.34,3.81,3,5
18545.109,-0.004,0.6,0.759,-4.03,0.12,4.67,3,5
18545.109,0.002,0.604,0.761,-5.37,-0.18,5.25,3,5
18545.125,0.008,0.619,0.767,-6.84,0.09,5.46,3,5
18545.14,0.013,0.629,0.763,-7.9,0.49,5.68,3,5
18545.14,0.074,0.595,0.725,-7.72,2.04,5.92,3,5
18545.156,-0.008,0.557,0.742,-4.82,8.03,0.55,3,5
18545.171,-0.081,0.705,0.844,-5.43,7.57,2.96,3,5
18545.171,0.01,0.715,0.838,-3.42,0.31,11.6,3,5
18545.187,0.012,0.678,0.788,-5.62,-2.47,12.09,3,5
18545.203,0.035,0.666,0.791,-12.02,-2.01,12.94,3,5
18545.203,0.031,0.647,0.799,-8.91,0.73,11.81,3,5
18545.218,0.019,0.632,0.798,-6.56,0.82,11.38,3,5
18545.218,0.001,0.641,0.823,-2.14,-1.16,11.44,3,5
18545.234,-0.015,0.662,0.849,3.27,-5.1,13.0,3,5
18545.25,-0.035,0.683,0.863,7.17,-10.53,15.78,3,5
18545.265,-0.037,0.69,0.86,7.08,-15.87,18.65,3,5
18545.265,-0.026,0.752,0.862,2.41,-22.06,22.52,3,5
18545.281,0.107,0.665,0.784,-2.29,-26.49,25.33,3,5
18545.281,0.044,0.59,0.721,-4.18,-19.96,17.73,3,5
18545.296,0.022,0.633,0.765,-8.82,-14.53,16.33,3,5
18545.312,0.041,0.626,0.823,-13.49,-15.53,14.1,3,5
18545.312,0.065,0.582,0.791,-13.37,-15.96,12.3,3,5
18545.328,0.047,0.558,0.765,-5.52,-10.8,11.99,3,5
18545.343,0.047,0.581,0.783,-1.01,-6.56,10.93,3,5
18545.343,0.029,0.567,0.782,4.0,-4.94,8.36,3,5
18545.359,0.033,0.562,0.769,6.23,-5.19,6.32,3,5
18545.359,0.037,0.586,0.764,6.32,-5.25,3.78,3,5
18545.375,0.031,0.596,0.757,5.19,-4.46,1.56,3,5
18545.39,0.03,0.604,0.757,1.46,-4.49,0.06,3,5
18545.39,0.035,0.608,0.76,-2.56,-4.52,-0.76,3,5
18545.406,0.039,0.605,0.762,-5.1,-3.88,-0.89,3,5
18545.421,0.035,0.595,0.768,-4.82,-2.9,-1.07,3,5
18545.421,0.031,0.591,0.772,-2.78,-2.17,-1.04,3,5
18545.437,0.031,0.595,0.784,0.31,-2.11,-1.1,3,5
18545.437,0.017,0.602,0.795,4.58,-2.26,-1.53,3,5
18545.453,-0.003,0.623,0.807,8.12,-3.2,-1.28,3,5
18545.468,-0.002,0.636,0.803,9.64,-5.16,0.0,3,5
18545.468,0.003,0.645,0.793,8.36,-7.08,0.67,3,5
18545.484,0.004,0.647,0.786,5.98,-8.27,0.52,3,5
18545.5,0.003,0.649,0.781,3.54,-9.03,0.0,3,5
18545.515,0.002,0.65,0.779,2.93,-9.31,-0.09,3,5
18545.515,-0.004,0.651,0.77,4.43,-9.09,0.21,3,5
18545.531,-0.015,0.663,0.769,7.14,-8.61,0.76,3,5
18545.531,-0.036,0.678,0.773,10.71,-8.39,1.16,3,5
18545.546,-0.057,0.686,0.77,14.74,-8.67,1.46,3,5
18545.562,-0.081,0.689,0.759,19.07,-8.48,2.17,3,5
18545.562,-0.108,0.697,0.746,23.32,-7.45,2.9,3,5
18545.578,-0.135,0.706,0.738,26.58,-6.41,3.54,3,5
18545.578,-0.157,0.707,0.723,29.42,-5.86,4.64,3,5
18545.593,-0.189,0.734,0.719,31.16,-5.43,6.38,3,5
18545.609,-0.213,0.747,0.703,32.96,-6.32,9.7,3,5
18545.609,-0.21,0.734,0.665,34.33,-7.69,15.35,3,5
18545.625,-0.2,0.743,0.631,34.15,-7.08,21.79,3,5
18545.64,-0.206,0.765,0.613,33.72,-4.61,27.71,3,5
18545.64,-0.207,0.753,0.558,33.42,-1.62,33.36,3,5
18545.656,-0.175,0.743,0.502,30.18,3.91,38.91,3,5
18545.671,-0.147,0.746,0.473,26.09,13.98,43.79,3,5
18545.671,-0.119,0.73,0.448,22.28,27.68,48.31,3,5
18545.687,-0.095,0.713,0.434,17.73,44.28,53.01,3,5
18545.703,-0.082,0.695,0.431,12.85,62.35,57.56,3,5
18545.703,-0.075,0.672,0.456,8.24,80.45,62.35,3,5
18545.718,-0.068,0.642,0.485,4.33,97.29,67.14,3,5
18545.718,-0.068,0.614,0.523,-0.15,112.19,71.29,3,5
18545.734,-0.072,0.586,0.576,-3.51,124.36,75.05,3,5
18545.75,-0.066,0.548,0.619,-6.1,133.27,78.8,3,5
18545.765,-0.049,0.518,0.64,-10.07,140.17,81.42,3,5
18545.765,-0.027,0.478,0.652,-16.17,146.06,81.24,3,5
18545.781,-0.017,0.439,0.677,-24.51,150.43,77.24,3,5
18545.796,-0.016,0.412,0.73,-33.54,151.95,69.43,3,5
18545.796,-0.028,0.388,0.793,-38.48,150.3,58.93,3,5
18545.812,-0.026,0.364,0.848,-36.96,145.36,47.88,3,5
18545.812,-0.011,0.367,0.9,-30.09,139.04,36.65,3,5
18545.828,0.0,0.371,0.93,-17.15,132.39,24.35,3,5
18545.828,0.005,0.381,0.926,-1.68,125.68,11.54,3,5
18545.843,0.002,0.4,0.891,12.79,119.21,-1.31,3,5
18545.859,0.005,0.41,0.823,23.44,113.59,-13.46,3,5
18545.859,0.017,0.405,0.746,28.93,110.6,-24.75,3,5
18545.875,0.02,0.381,0.678,30.49,111.61,-35.1,3,5
18545.89,-0.008,0.362,0.64,29.94,115.82,-45.01,3,5
18545.906,-0.036,0.32,0.622,30.82,120.21,-54.26,3,5
18545.906,-0.06,0.281,0.622,34.27,124.49,-62.96,3,5
18545.921,-0.171,0.223,0.652,54.05,126.5,-82.03,3,5
18545.937,-0.219,0.235,0.652,67.32,121.92,-92.01,3,5
18545.953,-0.27,0.297,0.596,78.37,116.49,-101.78,3,5
18545.953,-0.296,0.348,0.541,77.73,107.39,-111.76,3,5
18545.968,-0.299,0.373,0.52,68.36,97.9,-122.71,3,5
18545.968,-0.302,0.369,0.479,58.14,92.2,-134.1,3,5
18545.984,-0.32,0.345,0.448,48.52,90.0,-145.24,3,5
18546.0,-0.362,0.302,0.442,41.99,90.37,-155.64,3,5
18546.0,-0.422,0.279,0.468,42.05,91.13,-165.84,3,5
18546.015,-0.516,0.3,0.547,48.86,87.74,-176.15,3,5
18546.031,-0.623,0.299,0.625,61.13,74.25,-183.2,3,5
18546.031,-0.686,0.303,0.67,76.27,51.06,-184.88,3,5
18546.046,-0.728,0.377,0.707,94.55,24.63,-183.02,3,5
18546.062,-0.772,0.489,0.742,110.23,-3.17,-176.85,3,5
18546.062,-0.8,0.752,0.75,115.57,-27.8,-161.2,3,5
18546.078,-0.803,1.08,0.716,98.36,-45.87,-129.76,3,5
18546.093,-0.746,1.564,0.702,1.07,-55.88,-34.24,3,5
18546.109,-0.701,1.67,0.67,-71.9,-43.73,25.09,3,5
18546.109,-0.684,1.683,0.693,-158.33,-23.62,78.37,3,5
18546.125,-0.671,1.584,0.754,-236.7,0.12,121.22,3,5
18546.14,-0.647,1.383,0.826,-294.63,19.04,149.75,3,5
18546.14,-0.517,1.132,0.914,-323.4,29.57,166.36,3,5
18546.156,-0.314,0.921,1.007,-314.52,38.15,169.96,3,5
18546.171,-0.161,0.785,1.061,-272.8,59.82,163.18,3,5
18546.171,-0.16,0.763,1.049,-217.78,79.35,149.21,3,5
18546.187,-0.19,0.815,1.049,-139.13,99.98,133.03,3,5
18546.203,-0.299,0.936,1.037,-132.82,102.33,140.08,3,5
18546.203,-0.423,0.991,1.018,-145.66,97.81,154.94,3,5
18546.218,-0.514,0.951,1.037,-159.43,88.44,171.76,3,5
18546.234,-0.63,0.665,0.973,-168.89,75.93,185.86,3,5
18546.234,-0.656,0.516,0.897,-174.23,61.92,193.7,3,5
18546.25,-0.641,0.383,0.796,-172.15,49.32,193.67,3,5
18546.265,-0.628,0.245,0.692,-167.33,42.79,188.15,3,5
18546.265,-0.602,0.151,0.601,-162.05,43.73,178.84,3,5
18546.281,-0.554,0.095,0.524,-155.64,51.48,165.84,3,5
18546.296,-0.539,0.096,0.509,-150.52,64.55,149.85,3,5
18546.296,-0.6,0.206,0.574,-146.7,77.09,133.67,3,5
18546.312,-0.685,0.29,0.642,-146.34,81.36,122.87,3,5
18546.312,-0.697,0.32,0.708,-156.87,75.08,120.18,3,5
18546.328,-0.62,0.305,0.747,-167.58,61.77,121.77,3,5
18546.343,-0.49,0.231,0.692,-169.23,51.33,123.75,3,5
18546.343,-0.373,0.146,0.649,-169.04,50.72,123.17,3,5
18546.359,-0.314,0.059,0.648,-166.91,57.19,118.53,3,5
18546.359,-0.264,-0.01,0.702,-159.31,64.94,103.73,3,5
18546.375,-0.215,-0.044,0.76,-142.22,71.11,76.05,3,5
18546.39,-0.247,-0.028,0.87,-118.14,74.95,41.9,3,5
18546.39,-0.359,0.072,0.999,-88.99,71.29,5.4,3,5
18546.406,-0.449,0.213,1.131,-65.1,55.24,-25.12,3,5
18546.421,-0.563,0.385,1.149,-21.82,2.14,-58.6,3,5
18546.437,-0.501,0.477,0.996,-5.4,-18.89,-56.61,3,5
18546.453,-0.467,0.563,0.85,-0.15,-29.79,-45.26,3,5
18546.453,-0.477,0.516,0.751,-7.97,-32.29,-27.86,3,5
18546.468,-0.462,0.471,0.667,-15.84,-27.59,-15.41,3,5
18546.468,-0.51,0.41,0.61,-22.13,-16.63,2.66,3,5
18546.484,-0.556,0.378,0.632,-31.46,-6.38,21.36,3,5
18546.5,-0.629,0.294,0.646,-42.73,-1.25,41.11,3,5
18546.5,-0.649,0.21,0.684,-56.73,-0.31,52.43,3,5
18546.515,-0.613,0.149,0.734,-65.03,-2.72,62.99,3,5
18546.531,-0.575,0.108,0.733,-63.48,-3.94,64.33,3,5
18546.531,-0.524,0.048,0.757,-55.85,-2.66,62.65,3,5
18546.546,-0.467,0.018,0.814,-40.5,0.95,54.81,3,5
18546.562,-0.451,0.006,0.829,-22.89,3.54,48.71,3,5
18546.562,-0.462,-0.01,0.845,-10.68,5.77,35.65,3,5
18546.578,-0.455,-0.016,0.887,-0.92,5.86,19.23,3,5
18546.578,-0.517,0.001,0.923,10.28,6.07,5.77,3,5
18546.593,-0.555,0.058,0.927,17.15,3.51,-2.78,3,5
18546.609,-0.531,0.074,0.929,16.42,-1.13,-9.8,3,5
18546.625,-0.513,0.047,0.924,18.71,-3.69,-16.45,3,5
18546.625,-0.493,0.055,0.886,27.01,-3.66,-20.84,3,5
18546.64,-0.495,0.135,0.849,35.46,-1.4,-23.96,3,5
18546.64,-0.512,0.183,0.79,36.07,0.31,-24.84,3,5
18546.656,-0.492,0.178,0.77,28.08,2.9,-22.55,3,5
18546.671,-0.485,0.178,0.789,22.0,7.08,-20.02,3,5
18546.671,-0.488,0.193,0.802,19.35,10.8,-15.63,3,5
18546.687,-0.477,0.197,0.832,15.05,13.06,-10.93,3,5
18546.703,-0.472,0.208,0.865,10.22,12.85,-8.39,3,5
18546.703,-0.477,0.233,0.863,6.71,10.83,-4.79,3,5
18546.718,-0.48,0.239,0.861,3.57,8.61,0.34,3,5
18546.718,-0.473,0.228,0.846,0.79,6.93,6.74,3,5
18546.734,-0.451,0.2,0.82,-0.61,6.35,12.88,3,5
18546.75,-0.422,0.196,0.804,-0.18,8.3,16.66,3,5
18546.75,-0.417,0.199,0.807,0.15,11.99,18.52,3,5
18546.765,-0.416,0.186,0.839,-1.01,14.53,18.86,3,5
18546.781,-0.43,0.203,0.868,-2.32,14.62,18.59,3,5
18546.781,-0.465,0.212,0.877,-4.36,12.91,19.84,3,5
18546.796,-0.484,0.205,0.869,-8.97,9.64,22.22,3,5
18546.812,-0.46,0.199,0.845,-13.46,6.26,23.5,3,5
18546.812,-0.443,0.192,0.813,-15.81,5.74,22.71,3,5
18546.828,-0.433,0.186,0.801,-16.75,7.39,19.78,3,5
18546.828,-0.441,0.189,0.809,-15.5,9.64,14.37,3,5
18546.843,-0.466,0.189,0.83,-11.29,10.9,8.06,3,5
18546.859,-0.488,0.208,0.851,-5.89,9.7,1.86,3,5
18546.875,-0.516,0.24,0.849,-1.37,7.35,-2.38,3,5
18546.875,-0.53,0.26,0.843,0.82,3.63,-3.2,3,5
18546.89,-0.519,0.282,0.819,1.5,-0.09,-2.23,3,5
18546.89,-0.494,0.318,0.774,0.76,-2.14,-0.73,3,5
18546.906,-0.483,0.363,0.744,-0.34,-1.89,1.77,3,5
18546.921,-0.493,0.39,0.719,-2.9,-0.27,5.89,3,5
18546.921,-0.506,0.355,0.709,-8.36,2.01,11.32,3,5
18546.937,-0.502,0.313,0.712,-11.81,4.7,16.17,3,5
18546.937,-0.468,0.294,0.729,-9.13,7.72,18.28,3,5
18546.953,-0.464,0.269,0.764,-2.75,10.71,15.5,3,5
18546.968,-0.483,0.251,0.814,2.84,12.24,11.2,3,5
18546.968,-0.501,0.235,0.846,6.32,10.47,6.96,3,5
18546.984,-0.49,0.212,0.863,7.75,7.2,3.08,3,5
18547.0,-0.486,0.225,0.859,8.67,5.04,-0.49,3,5
18547.0,-0.479,0.241,0.853,9.03,4.12,-2.72,3,5
18547.015,-0.488,0.273,0.855,9.22,4.43,-3.69,3,5
18547.031,-0.493,0.296,0.869,8.67,5.25,-3.17,3,5
18547.031,-0.499,0.297,0.875,8.51,6.13,-1.28,3,5
18547.046,-0.495,0.281,0.878,9.06,6.01,0.55,3,5
18547.062,-0.49,0.257,0.883,10.01,6.16,1.46,3,5
18547.062,-0.48,0.24,0.888,10.07,6.29,0.46,3,5
18547.078,-0.485,0.231,0.887,9.46,6.01,-2.2,3,5
18547.078,-0.47,0.221,0.909,8.24,5.37,-5.13,3,5
18547.093,-0.5,0.232,0.928,7.75,4.55,-8.45,3,5
18547.109,-0.524,0.256,0.922,6.99,2.01,-8.67,3,5
18547.109,-0.506,0.284,0.894,3.48,-1.65,-6.07,3,5
18547.125,-0.48,0.28,0.867,-2.35,-4.33,-4.49,3,5
18547.14,-0.481,0.237,0.837,-8.85,-4.76,-4.03,3,5
18547.14,-0.472,0.173,0.824,-14.16,-3.23,-4.73,3,5
18547.156,-0.472,0.127,0.828,-14.56,0.06,-6.74,3,5
18547.171,-0.476,0.088,0.816,-11.54,3.33,-9.92,3,5
18547.171,-0.472,0.081,0.81,-10.53,9.19,-19.5,3,5
18547.187,-0.469,0.094,0.85,-10.13,9.52,-22.68,3,5
18547.203,-0.506,0.131,0.894,-10.28,6.01,-20.69,3,5
18547.203,-0.507,0.168,0.899,-13.12,0.73,-15.9,3,5
18547.218,-0.486,0.163,0.877,-17.18,-2.93,-11.6,3,5
18547.218,-0.458,0.144,0.85,-20.39,-4.52,-8.51,3,5
18547.234,-0.422,0.143,0.823,-22.74,-3.3,-6.93,3,5
18547.25,-0.407,0.13,0.805,-24.51,0.58,-7.6,3,5
18547.25,-0.414,0.103,0.801,-24.17,6.38,-9.98,3,5
18547.265,-0.425,0.116,0.8,-18.98,11.99,-14.53,3,5
18547.281,-0.484,0.17,0.85,-9.52,16.11,-19.78,3,5
18547.281,-0.585,0.219,0.871,1.13,15.38,-19.59,3,5
18547.296,-0.619,0.258,0.842,3.66,8.91,-9.92,3,5
18547.312,-0.596,0.291,0.805,-3.36,0.43,3.48,3,5
18547.312,-0.557,0.274,0.744,-14.65,-7.23,17.61,3,5
18547.328,-0.491,0.214,0.677,-25.45,-12.88,28.69,3,5
18547.343,-0.413,0.172,0.63,-29.82,-12.7,35.62,3,5
18547.343,-0.399,0.172,0.598,-27.25,-8.03,37.84,3,5
18547.359,-0.427,0.185,0.579,-23.56,0.06,39.61,3,5
18547.359,-0.452,0.225,0.628,-23.77,7.54,40.38,3,5
18547.375,-0.517,0.23,0.671,-23.77,12.79,40.41,3,5
18547.39,-0.533,0.219,0.719,-24.99,15.44,42.15,3,5
18547.39,-0.526,0.229,0.776,-25.51,16.97,41.6,3,5
18547.406,-0.516,0.225,0.818,-23.77,16.97,37.78,3,5
18547.421,-0.507,0.225,0.854,-20.63,16.97,32.01,3,5
18547.421,-0.501,0.258,0.887,-16.39,16.42,25.18,3,5
18547.437,-0.512,0.312,0.903,-13.28,14.62,18.62,3,5
18547.437,-0.527,0.343,0.915,-13.7,12.3,14.44,3,5
18547.453,-0.518,0.365,0.927,-15.96,9.0,13.0,3,5
18547.468,-0.53,0.381,0.939,-16.3,5.8,12.05,3,5
18547.484,-0.529,0.36,0.936,-13.46,3.23,12.76,3,5
18547.484,-0.512,0.353,0.916,-9.09,0.21,12.67,3,5
18547.5,-0.515,0.337,0.887,-4.64,-0.82,10.62,3,5
18547.5,-0.515,0.323,0.859,-2.69,-1.13,8.48,3,5
18547.515,-0.524,0.312,0.836,-1.74,-1.13,5.74,3,5
18547.531,-0.53,0.299,0.811,-0.55,0.49,4.43,3,5
18547.546,-0.537,0.296,0.788,0.12,2.78,4.24,3,5
18547.546,-0.548,0.297,0.799,0.61,4.58,4.85,3,5
18547.546,-0.546,0.281,0.797,1.34,5.31,6.44,3,5
18547.562,-0.53,0.273,0.775,2.29,5.65,8.12,3,5
18547.578,-0.537,0.261,0.778,4.03,7.02,8.7,3,5
18547.593,-0.561,0.255,0.786,6.2,7.35,8.91,3,5
18547.593,-0.57,0.259,0.792,6.87,6.26,9.25,3,5
18547.609,-0.562,0.246,0.802,7.02,4.03,8.91,3,5
18547.609,-0.554,0.237,0.804,8.42,1.62,7.48,3,5
18547.625,-0.555,0.228,0.781,11.47,0.34,6.1,3,5
18547.64,-0.544,0.205,0.755,13.73,1.1,5.92,3,5
18547.64,-0.544,0.155,0.737,12.54,3.63,4.58,3,5
18547.656,-0.567,0.126,0.774,10.59,6.16,1.56,3,5
18547.671,-0.587,0.082,0.787,12.27,8.33,-0.06,3,5
18547.671,-0.613,0.056,0.796,11.69,8.24,-3.17,3,5
18547.687,-0.618,0.038,0.824,8.42,8.61,-6.07,3,5
18547.687,-0.631,0.025,0.834,4.7,7.93,-9.4,3,5
18547.703,-0.627,0.038,0.831,0.92,6.47,-11.51,3,5
18547.718,-0.608,0.05,0.829,-2.69,6.1,-11.84,3,5
18547.718,-0.597,0.065,0.825,-6.74,6.44,-11.35,3,5
18547.734,-0.59,0.086,0.822,-10.99,7.14,-10.16,3,5
18547.75,-0.581,0.112,0.826,-15.9,7.78,-8.3,3,5
18547.75,-0.569,0.134,0.835,-20.42,7.87,-6.44,3,5
18547.765,-0.577,0.156,0.835,-23.29,7.42,-4.24,3,5
18547.781,-0.578,0.171,0.825,-25.61,6.16,-1.31,3,5
18547.796,-0.578,0.182,0.818,-28.08,5.07,2.62,3,5
18547.796,-0.59,0.181,0.811,-30.64,4.67,6.53,3,5
18547.796,-0.593,0.188,0.812,-32.81,4.3,10.22,3,5
18547.812,-0.596,0.186,0.826,-33.08,3.6,13.15,3,5
18547.828,-0.598,0.178,0.839,-32.01,3.02,16.02,3,5
18547.843,-0.592,0.175,0.853,-27.8,2.56,19.35,3,5
18547.843,-0.585,0.172,0.849,-23.41,2.08,22.22,3,5
18547.859,-0.556,0.164,0.844,-21.79,1.86,24.05,3,5
18547.859,-0.531,0.165,0.835,-22.43,1.77,23.8,3,5
18547.875,-0.519,0.167,0.848,-25.39,2.44,22.43,3,5
18547.89,-0.521,0.162,0.872,-29.73,2.17,20.91,3,5
18547.89,-0.53,0.155,0.909,-33.2,0.55,19.65,3,5
18547.906,-0.564,0.143,0.934,-35.68,-2.84,19.2,3,5
18547.921,-0.597,0.114,0.943,-39.37,-7.69,20.91,3,5
18547.921,-0.613,0.084,0.941,-44.34,-12.82,24.57,3,5
18547.937,-0.63,0.033,0.914,-48.46,-16.57,30.09,3,5
18547.953,-0.639,-0.022,0.877,-51.42,-16.79,36.38,3,5
18547.953,-0.629,-0.061,0.832,-54.72,-13.61,40.77,3,5
18547.968,-0.592,-0.082,0.829,-59.69,-8.21,42.3,3,5
18547.984,-0.559,-0.112,0.837,-65.55,-1.46,39.98,3,5
18547.984,-0.556,-0.134,0.873,-70.1,5.01,34.85,3,5
18548.0,-0.578,-0.141,0.948,-72.3,8.39,27.99,3,5
18548.0,-0.624,-0.153,0.991,-70.96,6.26,19.84,3,5
18548.015,-0.624,-0.156,1.018,-69.8,-0.89,11.93,3,5
18548.031,-0.599,-0.117,1.033,-68.54,-10.13,3.23,3,5
18548.031,-0.575,-0.103,0.999,-66.13,-18.95,-3.6,3,5
18548.046,-0.545,-0.099,0.954,-64.7,-24.02,-7.51,3,5
18548.062,-0.535,-0.09,0.918,-65.34,-24.57,-9.7,3,5
18548.062,-0.543,-0.107,0.887,-67.69,-22.0,-10.19,3,5
18548.078,-0.562,-0.117,0.878,-71.54,-17.61,-10.74,3,5
18548.078,-0.583,-0.132,0.871,-76.91,-12.76,-12.94,3,5
18548.093,-0.59,-0.139,0.877,-85.3,-8.94,-15.87,3,5
18548.109,-0.594,-0.128,0.907,-96.93,-6.38,-19.78,3,5
18548.109,-0.601,-0.153,0.94,-110.05,-6.1,-23.65,3,5
18548.125,-0.586,-0.198,0.976,-119.94,-7.57,-27.07,3,5
18548.14,-0.589,-0.2,1.018,-123.08,-9.46,-31.37,3,5
18548.156,-0.586,-0.189,1.033,-118.75,-12.15,-34.21,3,5
18548.156,-0.58,-0.185,1.028,-98.3,-16.45,-33.94,3,5
18548.171,-0.575,-0.187,0.99,-90.95,-16.75,-31.62,3,5
18548.171,-0.558,-0.162,0.932,-88.2,-14.98,-29.05,3,5
18548.187,-0.532,-0.166,0.884,-88.08,-10.77,-25.91,3,5
18548.203,-0.537,-0.239,0.843,-87.1,-5.52,-17.76,3,5
18548.203,-0.502,-0.247,0.846,-79.59,2.47,-23.5,3,5
18548.218,-0.521,-0.246,0.87,-68.03,9.8,-22.89,3,5
18548.218,-0.563,-0.247,0.903,-62.84,13.73,-20.87,3,5
18548.234,-0.577,-0.286,0.94,-65.8,12.79,-19.68,3,5
18548.25,-0.566,-0.341,0.964,-68.15,8.48,-20.2,3,5
18548.25,-0.555,-0.372,0.936,-64.42,3.94,-22.03,3,5
18548.265,-0.54,-0.385,0.886,-58.69,1.34,-25.79,3,5
18548.281,-0.514,-0.39,0.843,-56.0,1.62,-30.55,3,5
18548.281,-0.505,-0.398,0.812,-56.09,4.91,-35.13,3,5
18548.296,-0.53,-0.369,0.799,-59.05,7.51,-39.16,3,5
18548.312,-0.502,-0.409,0.849,-62.62,12.82,-39.25,3,5
18548.312,-0.53,-0.403,0.849,-56.37,17.15,-41.84,3,5
18548.328,-0.525,-0.418,0.847,-51.94,17.33,-43.52,3,5
18548.343,-0.522,-0.387,0.837,-52.43,17.24,-44.25,3,5
18548.343,-0.542,-0.397,0.841,-54.69,16.97,-44.92,3,5
18548.359,-0.552,-0.424,0.864,-59.91,14.71,-45.2,3,5
18548.375,-0.554,-0.445,0.902,-62.81,10.77,-45.17,3,5
18548.375,-0.563,-0.458,0.914,-59.54,6.26,-45.11,3,5
18548.39,-0.554,-0.465,0.901,-57.53,1.59,-44.68,3,5
18548.39,-0.528,-0.479,0.867,-59.63,-1.68,-45.38,3,5
18548.406,-0.521,-0.506,0.836,-62.29,-1.28,-46.82,3,5
18548.421,-0.536,-0.513,0.824,-64.85,0.34,-48.8,3,5
18548.421,-0.533,-0.521,0.841,-67.66,1.34,-50.66,3,5
18548.437,-0.535,-0.531,0.861,-67.54,1.62,-53.29,3,5
18548.453,-0.532,-0.547,0.871,-65.92,0.18,-55.88,3,5
18548.453,-0.536,-0.529,0.89,-64.61,-1.68,-58.53,3,5
18548.468,-0.556,-0.53,0.885,-61.89,-4.55,-60.58,3,5
18548.468,-0.546,-0.518,0.868,-59.88,-8.45,-61.01,3,5
18548.484,-0.509,-0.496,0.845,-59.88,-11.51,-61.49,3,5
18548.5,-0.489,-0.51,0.822,-59.79,-12.57,-62.35,3,5
18548.5,-0.471,-0.518,0.796,-59.51,-11.9,-62.35,3,5
18548.515,-0.454,-0.525,0.765,-59.24,-10.28,-63.2,3,5
18548.531,-0.46,-0.555,0.744,-59.21,-7.51,-64.42,3,5
18548.531,-0.469,-0.554,0.737,-59.6,-3.69,-65.22,3,5
18548.546,-0.483,-0.577,0.746,-60.34,-0.92,-65.92,3,5
18548.562,-0.51,-0.593,0.771,-59.33,0.73,-64.82,3,5
18548.562,-0.51,-0.628,0.785,-54.81,0.24,-61.62,3,5
18548.578,-0.507,-0.612,0.795,-49.5,-1.28,-58.69,3,5
18548.593,-0.514,-0.604,0.783,-47.91,-4.91,-56.25,3,5
18548.593,-0.48,-0.594,0.768,-51.76,-8.67,-52.89,3,5
18548.609,-0.464,-0.596,0.751,-55.51,-9.74,-49.38,3,5
18548.609,-0.455,-0.602,0.729,-57.19,-9.19,-45.41,3,5
18548.625,-0.448,-0.605,0.7,-57.95,-8.18,-40.93,3,5
18548.64,-0.442,-0.627,0.679,-59.3,-6.68,-37.08,3,5
18548.64,-0.439,-0.655,0.674,-61.04,-4.06,-34.79,3,5
18548.656,-0.445,-0.672,0.68,-62.32,-1.04,-33.91,3,5
18548.671,-0.443,-0.692,0.673,-64.79,0.58,-35.13,3,5
18548.671,-0.438,-0.703,0.666,-68.54,0.85,-37.63,3,5
18548.687,-0.422,-0.723,0.663,-69.83,1.04,-39.58,3,5
18548.687,-0.406,-0.708,0.667,-67.84,2.84,-40.68,3,5
18548.703,-0.416,-0.689,0.685,-63.97,3.78,-41.35,3,5
18548.718,-0.418,-0.666,0.692,-61.37,1.22,-40.13,3,5
18548.718,-0.399,-0.65,0.69,-61.95,-2.53,-37.26,3,5
18548.734,-0.378,-0.669,0.67,-63.17,-5.01,-34.03,3,5
18548.75,-0.364,-0.686,0.647,-62.69,-5.83,-29.57,3,5
18548.75,-0.363,-0.682,0.638,-59.3,-3.39,-25.03,3,5
18548.765,-0.367,-0.725,0.615,-56.34,-3.6,-21.64,3,5
18548.781,-0.335,-0.74,0.611,-55.3,-4.24,-19.29,3,5
18548.781,-0.298,-0.738,0.599,-53.29,-3.2,-21.67,3,5
18548.796,-0.291,-0.789,0.595,-52.37,-2.69,-27.56,3,5
18548.812,-0.287,-0.811,0.598,-51.0,-4.64,-33.78,3,5
18548.812,-0.274,-0.815,0.582,-46.97,-5.77,-39.95,3,5
18548.828,-0.265,-0.827,0.554,-44.65,-4.94,-43.7,3,5
18548.828,-0.259,-0.803,0.533,-45.93,-3.02,-45.29,3,5
18548.843,-0.258,-0.797,0.542,-49.75,-2.04,-45.2,3,5
18548.859,-0.271,-0.808,0.557,-54.32,-2.11,-41.35,3,5
18548.859,-0.268,-0.817,0.583,-57.77,-4.82,-36.87,3,5
18548.875,-0.256,-0.826,0.59,-58.53,-8.64,-32.87,3,5
18548.89,-0.242,-0.831,0.564,-56.52,-10.9,-31.07,3,5
18548.89,-0.233,-0.839,0.518,-55.42,-12.15,-31.31,3,5
18548.906,-0.215,-0.851,0.47,-55.7,-10.77,-32.11,3,5
18548.921,-0.213,-0.852,0.436,-56.43,-6.84,-33.11,3,5
18548.921,-0.2,-0.86,0.429,-58.78,-3.36,-34.12,3,5
18548.937,-0.206,-0.857,0.451,-59.82,0.7,-35.62,3,5
18548.953,-0.228,-0.853,0.498,-58.5,2.75,-36.38,3,5
18548.953,-0.252,-0.841,0.51,-56.0,0.92,-35.49,3,5
18548.968,-0.246,-0.83,0.5,-55.67,-2.69,-33.02,3,5
18548.968,-0.209,-0.839,0.477,-56.76,-7.08,-31.25,3,5
18548.984,-0.192,-0.851,0.453,-55.82,-9.77,-30.37,3,5
18549.0,-0.174,-0.849,0.422,-54.05,-11.26,-29.91,3,5
18549.015,-0.154,-0.843,0.404,-52.37,-12.54,-30.24,3,5
18549.015,-0.144,-0.866,0.392,-49.65,-12.97,-30.43,3,5
18549.031,-0.133,-0.892,0.381,-45.99,-13.46,-29.94,3,5
18549.031,-0.141,-0.941,0.368,-41.26,-14.07,-28.93,3,5
18549.046,-0.15,-0.999,0.36,-38.03,-13.82,-28.29,3,5
18549.062,-0.146,-1.018,0.342,-37.2,-14.22,-30.64,3,5
18549.062,-0.139,-1.02,0.341,-38.39,-14.86,-34.61,3,5
18549.078,-0.139,-0.999,0.348,-40.86,-15.63,-36.84,3,5
18549.093,-0.163,-0.963,0.365,-43.31,-15.59,-36.32,3,5
18549.093,-0.206,-0.964,0.362,-45.01,-19.99,-33.81,3,5
18549.109,-0.232,-0.957,0.325,-47.4,-23.87,-28.23,3,5
18549.109,-0.219,-0.95,0.266,-50.75,-24.41,-24.6,3,5
18549.125,-0.175,-0.939,0.223,-55.45,-24.29,-23.96,3,5
18549.14,-0.145,-0.937,0.212,-59.11,-20.6,-24.84,3,5
18549.14,-0.13,-0.932,0.233,-59.05,-9.77,-25.88,3,5
18549.156,-0.127,-0.923,0.266,-55.76,-8.73,-25.54,3,5
18549.171,-0.116,-0.912,0.29,-54.14,-9.64,-26.06,3,5
18549.171,-0.123,-0.858,0.295,-53.25,-12.15,-27.31,3,5
18549.187,-0.12,-0.841,0.244,-53.35,-15.41,-26.28,3,5
18549.203,-0.1,-0.784,0.2,-54.96,-16.36,-23.1,3,5
18549.203,-0.069,-0.793,0.159,-57.04,-14.98,-17.24,3,5
18549.218,-0.037,-0.808,0.143,-58.47,-11.14,-10.47,3,5
18549.218,-0.019,-0.837,0.173,-57.04,-6.47,-6.23,3,5
18549.234,-0.026,-0.888,0.194,-54.02,-2.99,-3.94,3,5
18549.25,-0.041,-0.924,0.206,-53.04,-2.26,-3.36,3,5
18549.25,-0.033,-0.977,0.198,-52.61,-3.97,-6.65,3,5
18549.265,-0.007,-0.979,0.191,-52.13,-5.37,-13.76,3,5
18549.281,-0.006,-0.94,0.187,-51.73,-6.1,-23.5,3,5
18549.281,0.008,-0.935,0.196,-49.75,-8.3,-31.07,3,5
18549.296,0.006,-0.868,0.211,-45.11,-10.8,-34.94,3,5
18549.312,-0.015,-0.86,0.198,-40.53,-14.65,-34.36,3,5
18549.312,-0.011,-0.877,0.172,-39.46,-19.26,-30.79,3,5
18549.328,-0.008,-0.89,0.138,-38.91,-22.89,-29.24,3,5
18549.343,0.001,-0.885,0.091,-36.87,-24.66,-30.95,3,5
18549.343,0.019,-0.855,0.06,-33.88,-23.8,-34.0,3,5
18549.359,0.041,-0.823,0.036,-32.01,-21.55,-34.94,3,5
18549.359,0.05,-0.795,0.032,-33.97,-18.43,-33.2,3,5
18549.375,0.04,-0.785,0.042,-36.96,-16.27,-30.03,3,5
18549.39,0.029,-0.795,0.058,-38.54,-15.96,-25.18,3,5
18549.406,0.011,-0.807,0.062,-37.9,-17.3,-19.87,3,5
18549.406,0.001,-0.818,0.039,-36.16,-19.59,-15.08,3,5
18549.421,-0.009,-0.798,0.005,-36.13,-21.09,-11.11,3,5
18549.421,0.003,-0.803,-0.022,-38.0,-21.55,-6.32,3,5
18549.437,-0.003,-0.813,-0.035,-39.86,-19.96,-0.64,3,5
18549.453,-0.02,-0.811,-0.037,-39.61,-18.16,3.2,3,5
18549.453,-0.024,-0.815,-0.05,-37.29,-17.61,5.77,3,5
18549.468,-0.009,-0.803,-0.057,-34.85,-16.82,8.12,3,5
18549.484,-0.009,-0.797,-0.073,-32.01,-14.86,10.77,3,5
18549.484,-0.02,-0.792,-0.094,-30.55,-12.42,14.5,3,5
18549.5,-0.035,-0.792,-0.096,-30.3,-9.7,19.29,3,5
18549.5,-0.048,-0.813,-0.098,-30.67,-7.75,24.35,3,5
18549.515,-0.032,-0.843,-0.101,-30.27,-6.62,28.14,3,5
18549.531,-0.014,-0.855,-0.096,-28.53,-5.01,28.93,3,5
18549.531,-0.006,-0.858,-0.097,-26.18,-3.48,25.94,3,5
18549.546,0.0,-0.858,-0.08,-22.71,-2.84,20.75,3,5
18549.562,-0.017,-0.851,-0.063,-17.94,-2.75,16.02,3,5
18549.562,-0.049,-0.838,-0.077,-14.65,-3.33,13.34,3,5
18549.578,-0.053,-0.82,-0.082,-13.61,-4.52,12.51,3,5
18549.578,-0.033,-0.83,-0.084,-11.47,-5.74,13.76,3,5
18549.593,-0.015,-0.834,-0.086,-9.43,-6.13,15.59,3,5
18549.609,-0.016,-0.847,-0.084,-6.16,-6.26,15.93,3,5
18549.609,-0.045,-0.871,-0.095,-2.35,-6.44,17.18,3,5
18549.625,-0.053,-0.908,-0.13,-0.64,-7.02,18.71,3,5
18549.64,-0.043,-0.932,-0.177,-1.28,-6.16,18.92,3,5
18549.64,-0.026,-0.926,-0.194,-3.88,-2.5,17.61,3,5
18549.656,-0.041,-0.93,-0.172,-5.07,2.29,15.5,3,5
18549.671,-0.051,-0.941,-0.128,-3.6,3.78,14.83,3,5
18549.671,-0.049,-0.92,-0.079,-1.19,2.14,15.32,3,5
18549.687,-0.066,-0.925,-0.053,2.47,-1.46,15.99,3,5
18549.703,-0.072,-0.94,-0.079,4.49,-6.93,18.4,3,5
18549.703,-0.042,-0.951,-0.139,2.59,-10.86,19.93,3,5
18549.718,-0.005,-0.975,-0.193,0.4,-11.23,18.68,3,5
18549.734,0.023,-1.0,-0.208,0.24,-7.42,16.45,3,5
18549.734,0.028,-1.005,-0.191,1.22,-1.22,14.22,3,5
18549.75,-0.0,-1.002,-0.148,2.47,3.91,11.41,3,5
18549.75,-0.036,-0.987,-0.094,2.11,4.85,8.45,3,5
18549.765,-0.092,-0.961,-0.04,2.04,1.89,5.89,3,5
18549.781,-0.108,-0.955,-0.034,3.33,-4.43,5.92,3,5
18549.781,-0.069,-0.943,-0.071,3.6,-10.47,6.38,3,5
18549.796,-0.041,-0.949,-0.094,4.49,-12.51,5.8,3,5
18549.812,-0.032,-0.949,-0.111,6.81,-11.87,5.74,3,5
18549.812,-0.012,-0.941,-0.12,8.36,-10.62,5.22,3,5
18549.828,-0.016,-0.938,-0.111,8.73,-8.88,4.24,3,5
18549.828,-0.039,-0.936,-0.107,9.03,-7.63,3.48,3,5
18549.843,-0.063,-0.933,-0.115,8.24,-6.84,3.54,3,5
18549.859,-0.061,-0.945,-0.119,6.01,-6.04,3.94,3,5
18549.859,-0.057,-0.962,-0.109,5.25,-4.24,4.55,3,5
18549.875,-0.061,-0.973,-0.087,5.98,-2.56,5.92,3,5
18549.89,-0.065,-0.964,-0.042,6.04,-2.41,6.81,3,5
18549.89,-0.082,-0.97,-0.015,6.5,-4.67,6.44,3,5
18549.906,-0.092,-0.986,-0.021,6.78,-9.09,5.92,3,5
18549.921,-0.075,-1.005,-0.049,6.71,-13.09,4.82,3,5
18549.921,-0.062,-1.016,-0.074,8.27,-14.56,2.87,3,5
18549.937,-0.062,-1.011,-0.099,9.74,-13.76,1.28,3,5
18549.953,-0.062,-0.995,-0.099,9.34,-11.63,-0.55,3,5
18549.953,-0.066,-0.984,-0.089,9.22,-9.37,-1.71,3,5
18549.968,-0.067,-0.975,-0.074,9.0,-7.72,-1.68,3,5
18549.968,-0.066,-0.967,-0.048,8.94,-7.08,-1.25,3,5
18549.984,-0.073,-0.964,-0.04,9.61,-7.02,0.46,3,5
18550.0,-0.068,-0.962,-0.047,8.61,-7.93,3.08,3,5
18550.015,-0.069,-0.964,-0.057,6.29,-7.97,5.55,3,5
18550.015,-0.078,-0.977,-0.062,4.43,-7.11,8.45,3,5
18550.031,-0.078,-0.998,-0.061,3.23,-6.29,10.83,3,5
18550.031,-0.075,-1.017,-0.054,2.72,-5.01,11.54,3,5
18550.046,-0.074,-1.033,-0.036,3.88,-4.64,9.8,3,5
18550.062,-0.075,-1.041,-0.018,6.47,-5.28,6.84,3,5
18550.062,-0.088,-1.029,-0.012,8.51,-6.68,4.21,3,5
18550.078,-0.101,-1.013,-0.019,8.24,-8.79,1.89,3,5
18550.078,-0.107,-1.012,-0.034,7.32,-10.56,0.09,3,5
18550.093,-0.106,-1.003,-0.062,6.96,-10.99,-0.37,3,5
18550.109,-0.101,-0.991,-0.076,6.9,-9.67,-0.43,3,5
18550.109,-0.082,-1.004,-0.075,7.6,-7.35,0.52,3,5
18550.125,-0.066,-1.002,-0.05,7.84,-2.96,2.29,3,5
18550.14,-0.082,-1.011,-0.012,8.48,-4.33,1.65,3,5
18550.156,-0.102,-1.015,0.009,8.61,-7.39,0.21,3,5
18550.156,-0.101,-1.009,-0.002,8.21,-9.67,-1.07,3,5
18550.171,-0.073,-1.016,-0.06,7.45,-9.03,-1.98,3,5
18550.171,-0.072,-1.014,-0.059,6.44,-6.47,-2.53,3,5
18550.187,-0.089,-1.0,-0.017,6.16,-3.88,-2.59,3,5
18550.203,-0.104,-0.985,0.01,8.09,-3.75,-1.53,3,5
18550.203,-0.085,-0.98,0.021,8.85,-6.01,0.09,3,5
18550.218,-0.075,-0.988,0.026,8.06,-8.48,0.55,3,5
18550.234,-0.088,-0.998,0.024,8.64,-10.53,0.46,3,5
18550.234,-0.104,-1.002,0.005,9.74,-12.39,1.46,3,5
18550.25,-0.097,-1.007,-0.039,8.64,-13.58,1.92,3,5
18550.25,-0.073,-1.018,-0.071,6.87,-12.45,1.68,3,5
18550.265,-0.058,-1.018,-0.075,6.26,-8.15,1.83,3,5
18550.281,-0.065,-1.017,-0.056,5.62,-2.96,2.35,3,5
18550.296,-0.083,-1.015,-0.021,3.91,0.7,2.69,3,5
18550.296,-0.116,-1.017,0.022,3.05,1.62,2.72,3,5
18550.296,-0.13,-1.035,0.033,4.03,-1.19,2.9,3,5
18550.312,-0.119,-1.035,0.019,4.52,-4.79,2.23,3,5
18550.328,-0.109,-1.031,-0.003,4.94,-6.62,0.15,3,5
18550.343,-0.1,-1.029,-0.006,6.04,-6.59,-0.34,3,5
18550.343,-0.084,-1.016,-0.008,5.83,-5.55,0.67,3,5
18550.359,-0.083,-1.013,0.005,4.21,-4.24,0.55,3,5
18550.375,-0.101,-1.022,0.025,4.21,-4.39,0.37,3,5
18550.375,-0.107,-1.03,0.021,4.55,-6.47,0.24,3,5
18550.39,-0.099,-1.039,-0.002,3.81,-8.15,-1.5,3,5
18550.39,-0.092,-1.046,-0.031,3.94,-8.0,-4.67,3,5
18550.406,-0.082,-1.028,-0.041,4.91,-5.83,-7.66,3,5
18550.421,-0.095,-1.001,-0.025,6.04,-2.53,-8.94,3,5
18550.421,-0.105,-0.979,-0.002,6.38,-0.49,-7.6,3,5
18550.437,-0.102,-0.972,0.025,5.55,-0.49,-5.04,3,5
18550.453,-0.104,-0.981,0.043,5.49,-1.65,-2.23,3,5
18550.453,-0.11,-0.993,0.038,4.88,-3.42,0.52,3,5
18550.468,-0.101,-1.017,0.022,3.17,-5.49,0.95,3,5
18550.468,-0.095,-1.03,-0.001,2.96,-5.98,-1.07,3,5
18550.484,-0.086,-1.033,-0.013,4.3,-5.07,-3.45,3,5
18550.5,-0.073,-1.032,-0.004,5.68,-3.48,-5.68,3,5
18550.5,-0.073,-1.022,0.017,6.78,-1.98,-8.18,3,5
18550.515,-0.084,-1.021,0.038,7.97,-1.98,-10.41,3,5
18550.531,-0.095,-1.016,0.042,8.97,-3.6,-12.33,3,5
18550.531,-0.102,-1.011,0.031,9.13,-5.4,-14.16,3,5
18550.546,-0.087,-1.007,0.016,8.91,-6.99,-16.08,3,5
18550.562,-0.069,-1.0,0.008,9.58,-7.11,-17.79,3,5
18550.562,-0.055,-0.985,-0.003,10.35,-5.98,-18.4,3,5
18550.578,-0.049,-0.964,0.016,9.92,-4.12,-17.98,3,5
18550.578,-0.054,-0.954,0.038,9.28,-2.93,-16.24,3,5
18550.593,-0.058,-0.946,0.053,8.39,-3.51,-13.58,3,5
18550.609,-0.061,-0.938,0.069,7.6,-5.34,-10.86,3,5
18550.609,-0.072,-0.932,0.066,8.18,-7.87,-7.48,3,5
18550.625,-0.06,-0.937,0.038,8.48,-9.89,-2.72,3,5
18550.64,-0.055,-0.952,0.017,7.84,-9.4,2.14,3,5
18550.64,-0.044,-0.969,0.003,6.47,-7.39,6.32,3,5
18550.656,-0.038,-0.983,0.0,5.01,-4.03,9.43,3,5
18550.671,-0.042,-0.995,0.024,4.61,-0.55,10.83,3,5
18550.671,-0.049,-0.998,0.056,5.25,1.07,11.05,3,5
18550.687,-0.049,-1.0,0.072,5.55,0.64,10.47,3,5
18550.703,-0.059,-0.999,0.111,5.43,-0.85,9.77,3,5
18550.703,-0.087,-1.006,0.113,7.14,-4.03,9.4,3,5
18550.718,-0.111,-1.005,0.075,7.02,-7.29,10.35,3,5
18550.718,-0.106,-1.022,0.05,4.64,-9.46,11.54,3,5
18550.734,-0.099,-1.039,0.025,3.54,-9.92,11.84,3,5
18550.75,-0.094,-1.051,-0.001,3.27,-8.15,11.84,3,5
18550.765,-0.083,-1.066,-0.001,3.54,-4.7,10.8,3,5
18550.765,-0.094,-1.069,0.008,4.3,-1.01,8.42,3,5
18550.781,-0.106,-1.061,0.01,3.69,1.25,5.8,3,5
18550.781,-0.13,-1.06,0.027,2.99,1.83,2.78,3,5
18550.796,-0.14,-1.066,0.025,3.45,0.98,0.37,3,5
18550.812,-0.13,-1.061,0.026,3.57,-0.09,-0.92,3,5
18550.812,-0.125,-1.048,0.038,3.2,-0.34,-2.47,3,5
18550.828,-0.124,-1.043,0.034,3.27,-0.46,-3.54,3,5
18550.843,-0.118,-1.035,0.03,2.84,-0.49,-3.36,3,5
18550.843,-0.106,-1.023,0.024,2.38,-0.24,-3.91,3,5
18550.859,-0.096,-1.017,0.017,2.38,0.24,-4.91,3,5
18550.859,-0.099,-1.004,0.027,2.29,1.74,-5.4,3,5
18550.875,-0.109,-0.996,0.018,2.66,3.2,-4.64,3,5
18550.89,-0.12,-1.003,-0.006,1.16,4.85,-3.02,3,5
18550.89,-0.124,-1.031,-0.028,-1.25,7.23,-2.38,3,5
18550.906,-0.127,-1.063,-0.054,-2.56,10.99,-3.54,3,5
18550.921,-0.129,-1.089,-0.056,-3.66,16.11,-6.5,3,5
18550.921,-0.105,-1.1,-0.034,-3.72,21.49,-11.29,3,5
18550.937,-0.073,-1.081,0.023,-3.27,26.0,-17.03,3,5
18550.953,-0.06,-1.045,0.108,-3.17,27.89,-23.13,3,5
18550.953,-0.05,-1.002,0.174,-4.64,24.87,-28.17,3,5
18550.968,-0.028,-0.974,0.211,-8.24,17.03,-31.77,3,5
18550.968,-0.033,-0.96,0.191,-12.45,8.06,-34.73,3,5
18550.984,-0.027,-0.977,0.129,-17.37,-0.89,-36.47,3,5
18551.0,-0.008,-0.993,0.063,-19.87,-6.23,-38.54,3,5
18551.015,0.011,-1.011,-0.014,-16.82,-5.52,-40.01,3,5
18551.015,0.033,-0.99,-0.048,-11.87,0.12,-39.25,3,5
18551.031,0.016,-0.95,-0.034,-6.87,8.09,-37.69,3,5
18551.031,0.001,-0.929,-0.004,-2.66,13.09,-34.18,3,5
18551.046,0.006,-0.9,0.033,-0.06,13.64,-28.93,3,5
18551.062,0.024,-0.865,0.046,2.47,11.75,-23.96,3,5
18551.062,0.023,-0.856,0.049,3.33,9.46,-16.79,3,5
18551.078,0.025,-0.881,0.04,1.59,7.32,-7.9,3,5
18551.078,0.056,-0.914,0.03,0.76,6.16,0.43,3,5
18551.093,0.047,-0.928,0.043,-0.06,7.42,6.62,3,5
18551.109,0.039,-0.955,0.065,-3.45,6.78,10.56,3,5
18551.125,0.036,-0.991,0.093,-0.82,0.73,11.32,3,5
18551.125,0.012,-1.008,0.096,0.58,-3.33,10.56,3,5
18551.14,0.008,-1.016,0.076,1.56,-6.41,8.48,3,5
18551.14,-0.002,-1.031,0.041,4.15,-7.84,6.62,3,5
18551.156,-0.012,-1.027,0.032,5.77,-8.85,4.97,3,5
18551.171,-0.022,-1.04,0.041,7.51,-10.1,1.89,3,5
18551.171,-0.047,-1.05,0.039,10.77,-11.29,-0.85,3,5
18551.187,-0.064,-1.055,0.015,11.81,-12.39,-2.69,3,5
18551.203,-0.063,-1.085,-0.002,10.96,-12.51,-5.37,3,5
18551.203,-0.058,-1.097,0.006,12.09,-11.11,-8.21,3,5
18551.218,-0.046,-1.082,0.011,12.67,-10.04,-9.86,3,5
18551.234,-0.005,-1.067,0.016,10.62,-9.64,-13.03,3,5
18551.234,0.014,-1.033,0.042,10.04,-8.73,-16.66,3,5
18551.25,0.02,-0.999,0.061,11.57,-9.16,-17.64,3,5
18551.25,0.022,-0.966,0.062,11.51,-10.44,-15.99,3,5
18551.265,0.007,-0.97,0.048,9.86,-10.83,-12.73,3,5
18551.281,-0.001,-0.991,0.022,7.87,-10.47,-8.82,3,5
18551.281,-0.003,-1.006,-0.014,6.44,-8.88,-6.87,3,5
18551.296,-0.007,-1.022,-0.017,5.62,-5.62,-6.62,3,5
18551.312,0.002,-1.02,-0.001,5.58,-2.26,-6.5,3,5
18551.312,0.019,-1.009,0.032,5.46,-0.12,-6.07,3,5
18551.328,0.016,-0.992,0.071,5.49,0.98,-4.97,3,5
18551.328,0.02,-0.976,0.113,4.97,-0.98,-4.12,3,5
18551.343,0.011,-0.969,0.115,5.22,-4.67,-3.63,3,5
18551.359,-0.004,-0.965,0.086,5.13,-7.72,-1.89,3,5
18551.359,-0.005,-0.967,0.061,3.6,-9.58,0.24,3,5
18551.375,-0.001,-0.98,0.033,2.62,-9.43,2.35,3,5
18551.39,0.014,-0.984,0.015,1.56,-7.29,4.52,3,5
18551.39,0.024,-0.997,0.014,1.1,-4.27,5.19,3,5
18551.406,0.024,-1.003,0.037,1.5,-1.59,5.22,3,5
18551.421,-0.001,-0.995,0.064,2.38,-0.06,4.76,3,5
18551.421,-0.009,-0.992,0.081,2.38,-1.19,4.91,3,5
18551.437,-0.004,-0.994,0.074,1.65,-3.27,4.33,3,5
18551.437,-0.009,-0.995,0.072,1.92,-4.39,2.53,3,5
18551.453,-0.019,-0.987,0.077,4.06,-5.4,2.08,3,5
18551.468,-0.011,-0.983,0.059,4.79,-6.87,3.66,3,5
18551.468,0.017,-1.004,0.045,2.44,-7.35,4.76,3,5
18551.484,0.023,-1.027,0.052,2.01,-6.2,3.78,3,5
18551.5,-0.002,-1.029,0.058,4.06,-4.64,1.89,3,5
18551.5,-0.018,-1.009,0.052,4.7,-4.46,0.82,3,5
18551.515,-0.016,-1.009,0.043,2.66,-4.79,0.31,3,5
18551.531,-0.002,-1.02,0.032,1.5,-3.81,0.15,3,5
18551.531,0.01,-1.016,0.026,2.2,-1.53,0.31,3,5
18551.546,-0.006,-1.007,0.038,2.32,1.28,1.04,3,5
18551.562,-0.011,-1.006,0.067,0.95,2.2,2.14,3,5
18551.562,-0.026,-0.995,0.096,0.95,1.46,3.54,3,5
18551.578,-0.033,-0.995,0.098,1.53,-1.25,5.74,3,5
18551.578,0.003,-1.003,0.082,0.03,-4.55,7.05,3,5
18551.593,0.014,-1.02,0.068,-0.09,-5.25,6.59,3,5
18551.609,0.004,-1.02,0.07,1.25,-4.91,6.16,3,5
18551.609,0.0,-1.014,0.057,1.83,-5.28,5.19,3,5
18551.625,-0.001,-1.014,0.049,1.1,-5.01,3.57,3,5
18551.64,-0.005,-1.019,0.049,1.59,-3.75,2.99,3,5
18551.656,-0.008,-1.016,0.045,2.47,-2.29,3.33,3,5
18551.656,-0.003,-1.012,0.064,1.53,-1.13,3.66,3,5
18551.671,-0.018,-1.007,0.09,1.1,-1.04,3.3,3,5
18551.671,-0.025,-1.008,0.096,1.65,-3.11,4.06,3,5
18551.687,-0.013,-1.008,0.074,1.16,-5.49,4.3,3,5
18551.687,-0.001,-1.023,0.053,0.61,-6.53,2.69,3,5
18551.703,-0.006,-1.024,0.04,1.95,-5.37,0.98,3,5
18551.718,-0.01,-1.018,0.032,2.93,-2.93,0.18,3,5
18551.734,-0.009,-1.027,0.043,1.83,-0.49,-0.09,3,5
18551.734,-0.006,-1.035,0.068,1.13,0.4,-0.98,3,5
18551.75,0.0,-1.033,0.097,2.29,-0.76,-2.93,3,5
18551.75,0.001,-1.018,0.107,3.69,-2.96,-4.88,3,5
18551.765,0.001,-1.004,0.094,3.94,-5.62,-5.55,3,5
18551.781,0.011,-0.993,0.07,2.96,-6.87,-4.76,3,5
18551.781,0.026,-0.987,0.058,1.8,-6.44,-3.33,3,5
18551.796,0.026,-0.983,0.058,1.5,-4.82,-1.74,3,5
18551.812,0.02,-0.977,0.071,1.77,-3.27,0.55,3,5
18551.812,0.007,-0.983,0.081,1.19,-2.78,2.66,3,5
18551.828,0.002,-0.998,0.084,-0.24,-3.11,3.63,3,5
18551.828,-0.013,-1.005,0.083,0.03,-3.23,3.91,3,5
18551.843,-0.022,-1.006,0.076,1.16,-3.57,4.39,3,5
18551.859,-0.02,-1.006,0.061,0.73,-4.33,5.13,3,5
18551.859,0.0,-1.017,0.06,-0.89,-3.85,5.86,3,5
18551.875,-0.008,-1.017,0.066,-1.4,-2.17,6.47,3,5
18551.89,-0.017,-1.026,0.073,-1.77,-1.98,6.2,3,5
18551.89,-0.017,-1.043,0.078,-1.71,-2.93,4.33,3,5
18551.906,-0.026,-1.053,0.068,-0.27,-3.54,1.31,3,5
