timestamp,ax,ay,az,gx,gy,gz,orient_label,motion_label
18608.609,-0.375,0.184,0.889,2.38,0.43,-3.75,3,6
18608.625,-0.38,0.191,0.903,2.5,1.37,-4.73,3,6
18608.625,-0.377,0.199,0.91,2.32,1.46,-4.85,3,6
18608.64,-0.383,0.224,0.922,2.23,1.01,-3.97,3,6
18608.64,-0.387,0.235,0.927,0.92,-0.31,-1.46,3,6
18608.656,-0.368,0.226,0.928,-1.71,-2.44,1.16,3,6
18608.671,-0.358,0.211,0.912,-2.53,-3.78,2.62,3,6
18608.671,-0.366,0.2,0.896,-2.08,-3.57,3.2,3,6
18608.687,-0.367,0.192,0.895,-2.23,-3.2,3.02,3,6
18608.703,-0.367,0.178,0.894,-1.74,-2.53,1.59,3,6
18608.703,-0.375,0.181,0.893,0.09,-1.68,0.18,3,6
18608.718,-0.377,0.189,0.896,0.76,-1.13,-0.85,3,6
18608.734,-0.37,0.185,0.895,0.18,-1.34,-2.23,3,6
18608.734,-0.363,0.193,0.897,0.92,-1.5,-3.85,3,6
18608.75,-0.368,0.206,0.89,2.99,-1.22,-4.52,3,6
18608.75,-0.379,0.221,0.89,3.3,-0.85,-3.97,3,6
18608.765,-0.374,0.219,0.916,1.95,-1.19,-2.87,3,6
18608.781,-0.364,0.216,0.91,2.11,-3.36,0.12,3,6
18608.796,-0.351,0.211,0.906,0.15,-4.09,1.19,3,6
18608.812,-0.35,0.185,0.904,-1.59,-4.64,0.61,3,6
18608.812,-0.342,0.171,0.894,-0.82,-4.46,-0.79,3,6
18608.828,-0.34,0.179,0.882,1.1,-3.39,-2.32,3,6
18608.843,-0.348,0.184,0.878,2.08,-1.89,-3.97,3,6
18608.843,-0.36,0.194,0.903,2.35,-0.7,-5.22,3,6
18608.859,-0.375,0.205,0.921,3.33,-0.98,-5.04,3,6
18608.859,-0.369,0.212,0.917,3.23,-2.81,-3.88,3,6
18608.875,-0.351,0.209,0.915,1.8,-4.33,-3.08,3,6
18608.89,-0.354,0.206,0.909,1.07,-4.91,-3.14,3,6
18608.89,-0.35,0.207,0.897,1.13,-5.01,-2.87,3,6
18608.906,-0.344,0.209,0.891,1.04,-4.39,-2.17,3,6
18608.921,-0.344,0.203,0.893,0.4,-3.48,-1.89,3,6
18608.921,-0.351,0.198,0.898,0.52,-2.41,-2.08,3,6
18608.937,-0.357,0.2,0.903,1.04,-1.92,-2.17,3,6
18608.953,-0.37,0.191,0.898,1.43,-2.72,-3.66,3,6
18608.968,-0.37,0.189,0.901,2.26,-2.93,-4.94,3,6
18608.968,-0.375,0.192,0.907,3.91,-3.05,-6.16,3,6
18608.984,-0.375,0.192,0.903,5.07,-3.94,-6.96,3,6
18609.0,-0.374,0.19,0.91,5.43,-4.91,-7.78,3,6
18609.0,-0.37,0.181,0.913,6.26,-6.2,-9.19,3,6
18609.015,-0.374,0.177,0.912,7.63,-7.63,-10.53,3,6
18609.031,-0.372,0.162,0.913,9.4,-9.43,-11.81,3,6
18609.031,-0.362,0.139,0.917,11.54,-11.81,-14.13,3,6
18609.046,-0.347,0.112,0.94,15.14,-14.31,-18.16,3,6
18609.062,-0.331,0.063,0.989,22.16,-18.86,-26.06,3,6
18609.062,-0.345,0.047,1.004,31.98,-26.18,-37.66,3,6
18609.078,-0.343,0.049,0.995,39.67,-35.49,-50.57,3,6
18609.093,-0.322,0.028,1.013,46.39,-45.05,-65.95,3,6
18609.093,-0.318,0.015,1.019,58.41,-55.02,-83.13,3,6
18609.109,-0.302,0.04,1.018,71.6,-66.16,-101.14,3,6
18609.125,-0.29,0.093,1.002,93.05,-88.23,-135.5,3,6
18609.14,-0.282,0.119,0.983,101.75,-98.57,-149.27,3,6
18609.14,-0.28,0.145,0.967,110.69,-107.39,-160.37,3,6
18609.156,-0.282,0.165,0.95,118.87,-115.27,-168.92,3,6
18609.171,-0.285,0.181,0.94,125.43,-121.77,-175.91,3,6
18609.171,-0.298,0.183,0.934,131.6,-126.71,-181.77,3,6
18609.187,-0.311,0.202,0.939,137.39,-130.41,-185.92,3,6
18609.203,-0.327,0.235,0.938,145.57,-135.87,-188.67,3,6
18609.218,-0.333,0.27,0.942,146.4,-136.94,-186.99,3,6
18609.218,-0.336,0.302,0.95,144.9,-136.75,-182.96,3,6
18609.234,-0.332,0.333,0.939,140.29,-135.56,-178.2,3,6
18609.234,-0.304,0.397,0.89,133.58,-132.36,-173.01,3,6
18609.25,-0.265,0.422,0.885,125.52,-127.51,-165.62,3,6
18609.265,-0.246,0.441,0.862,118.75,-121.74,-157.23,3,6
18609.265,-0.231,0.462,0.834,111.79,-115.09,-148.78,3,6
18609.281,-0.209,0.497,0.836,103.73,-107.82,-139.87,3,6
18609.281,-0.189,0.514,0.852,96.65,-101.32,-130.31,3,6
18609.296,-0.166,0.511,0.866,90.24,-96.38,-120.52,3,6
18609.312,-0.145,0.501,0.874,84.93,-92.5,-112.34,3,6
18609.312,-0.126,0.491,0.876,81.24,-89.11,-106.88,3,6
18609.328,-0.097,0.484,0.871,79.93,-86.76,-104.46,3,6
18609.343,-0.068,0.48,0.861,81.03,-84.75,-105.5,3,6
18609.343,-0.051,0.49,0.844,84.23,-81.97,-109.38,3,6
18609.359,-0.054,0.502,0.821,89.94,-78.13,-114.23,3,6
18609.375,-0.071,0.536,0.799,97.51,-74.07,-117.89,3,6
18609.375,-0.093,0.613,0.809,103.27,-70.83,-118.05,3,6
18609.39,-0.089,0.689,0.811,104.07,-69.58,-114.29,3,6
18609.406,-0.069,0.729,0.827,101.81,-68.91,-107.46,3,6
18609.406,-0.071,0.769,0.863,100.22,-67.17,-98.24,3,6
18609.421,-0.088,0.808,0.876,100.16,-66.04,-84.99,3,6
18609.437,-0.092,0.848,0.86,96.22,-66.65,-68.09,3,6
18609.437,-0.091,0.877,0.847,86.37,-68.27,-50.33,3,6
18609.453,-0.039,0.79,0.777,59.97,-73.85,-23.29,3,6
18609.468,-0.001,0.75,0.747,51.18,-75.35,-16.45,3,6
18609.484,0.009,0.732,0.732,48.25,-74.92,-13.46,3,6
18609.484,-0.003,0.714,0.722,48.55,-73.92,-12.05,3,6
18609.5,-0.01,0.712,0.713,48.62,-73.21,-9.8,3,6
18609.515,0.002,0.725,0.725,47.82,-73.12,-5.8,3,6
18609.515,0.021,0.734,0.722,46.75,-73.24,-0.15,3,6
18609.531,0.032,0.739,0.708,44.37,-73.12,6.81,3,6
18609.531,0.029,0.733,0.684,41.54,-72.42,15.26,3,6
18609.546,0.028,0.713,0.65,35.86,-71.72,24.6,3,6
18609.562,0.042,0.685,0.621,26.89,-70.89,33.66,3,6
18609.562,0.058,0.644,0.593,16.45,-69.58,41.11,3,6
18609.578,0.083,0.595,0.574,5.22,-67.75,45.87,3,6
18609.593,0.102,0.55,0.568,-4.18,-65.1,46.24,3,6
18609.593,0.103,0.518,0.572,-10.68,-61.95,42.7,3,6
18609.609,0.09,0.491,0.575,-14.56,-59.54,36.59,3,6
18609.625,0.084,0.457,0.572,-14.07,-57.89,30.24,3,6
18609.625,0.082,0.442,0.594,-7.6,-56.28,25.24,3,6
18609.64,0.076,0.446,0.607,5.65,-54.75,21.82,3,6
18609.64,0.069,0.457,0.588,19.47,-53.74,19.87,3,6
18609.656,0.057,0.475,0.56,25.27,-53.04,18.77,3,6
18609.671,0.068,0.486,0.548,20.87,-52.25,18.95,3,6
18609.671,0.072,0.499,0.547,9.46,-50.33,19.32,3,6
18609.687,0.078,0.494,0.549,-3.72,-47.46,19.26,3,6
18609.703,0.096,0.475,0.543,-15.02,-43.15,18.56,3,6
18609.703,0.117,0.462,0.549,-22.71,-36.59,15.87,3,6
18609.718,0.123,0.469,0.585,-26.73,-28.14,10.19,3,6
18609.734,0.098,0.497,0.667,-25.09,-19.5,3.08,3,6
18609.734,0.052,0.508,0.738,-16.72,-13.95,-3.51,3,6
18609.75,0.014,0.526,0.796,-5.92,-12.76,-7.72,3,6
18609.75,-0.008,0.554,0.831,6.93,-14.47,-10.41,3,6
18609.765,-0.024,0.587,0.84,19.81,-17.82,-12.67,3,6
18609.781,-0.045,0.633,0.826,25.94,-21.61,-14.95,3,6
18609.781,-0.054,0.673,0.829,23.19,-26.73,-16.6,3,6
18609.796,-0.06,0.708,0.841,17.7,-31.46,-16.79,3,6
18609.812,-0.064,0.723,0.839,13.18,-35.1,-14.5,3,6
18609.828,-0.058,0.731,0.829,9.03,-38.03,-10.47,3,6
18609.828,-0.03,0.736,0.818,5.31,-39.22,-6.5,3,6
18609.843,-0.021,0.737,0.802,1.46,-38.03,-3.97,3,6
18609.843,-0.031,0.72,0.795,-2.32,-35.92,-2.23,3,6
18609.859,-0.027,0.702,0.802,-4.88,-34.33,0.43,3,6
18609.875,-0.023,0.696,0.798,-5.46,-33.05,3.42,3,6
18609.875,-0.023,0.681,0.771,-5.16,-31.98,6.13,3,6
18609.89,-0.019,0.662,0.743,-6.71,-30.79,8.24,3,6
18609.89,-0.008,0.654,0.715,-10.41,-28.81,9.34,3,6
18609.906,0.007,0.65,0.692,-15.38,-25.51,9.25,3,6
18609.921,0.009,0.644,0.684,-21.24,-20.91,7.45,3,6
18609.921,0.01,0.633,0.7,-25.27,-15.75,5.07,3,6
18609.937,0.001,0.635,0.734,-25.61,-10.77,2.75,3,6
18609.953,-0.008,0.637,0.771,-21.82,-7.57,1.22,3,6
18609.953,-0.022,0.655,0.809,-17.79,-7.17,0.31,3,6
18609.968,-0.034,0.665,0.83,-16.91,-10.83,-1.04,3,6
18609.984,-0.027,0.666,0.841,-18.71,-18.01,-3.11,3,6
18609.984,-0.011,0.67,0.829,-22.19,-26.22,-6.29,3,6
18610.0,0.016,0.663,0.805,-26.37,-33.81,-10.56,3,6
18610.0,0.049,0.635,0.776,-28.2,-38.85,-15.2,3,6
18610.015,0.08,0.615,0.743,-24.81,-39.89,-19.41,3,6
18610.031,0.094,0.62,0.714,-16.6,-36.93,-23.74,3,6
18610.031,0.09,0.628,0.695,-5.49,-31.65,-27.89,3,6
18610.046,0.059,0.655,0.708,3.3,-26.0,-32.07,3,6
18610.062,0.024,0.68,0.734,3.36,-24.48,-37.05,3,6
18610.062,0.002,0.701,0.759,-7.26,-27.44,-43.34,3,6
18610.078,0.002,0.706,0.781,-24.84,-34.52,-48.8,3,6
18610.093,0.021,0.68,0.814,-35.98,-43.52,-50.11,3,6
18610.093,0.061,0.67,0.82,-32.99,-49.71,-46.14,3,6
18610.109,0.097,0.679,0.769,-21.15,-49.29,-37.93,3,6
18610.125,0.191,0.711,0.677,-8.39,-37.78,-14.16,3,6
18610.14,0.205,0.717,0.654,-10.28,-26.73,-6.93,3,6
18610.156,0.202,0.69,0.655,-18.52,-16.91,-2.26,3,6
18610.156,0.207,0.651,0.671,-30.03,-8.85,-0.18,3,6
18610.171,0.206,0.606,0.692,-38.42,-1.98,-1.22,3,6
18610.171,0.202,0.561,0.722,-41.02,3.63,-4.7,3,6
18610.187,0.188,0.521,0.766,-25.27,9.64,-15.47,3,6
18610.203,0.164,0.479,0.809,-11.87,8.45,-19.62,3,6
18610.203,0.164,0.489,0.829,-0.09,6.65,-23.41,3,6
18610.218,0.171,0.582,0.828,7.08,6.32,-26.76,3,6
18610.234,0.113,0.703,0.859,6.78,2.99,-24.63,3,6
18610.234,0.142,0.796,0.868,-1.71,-4.46,-15.5,3,6
18610.25,0.174,0.798,0.819,-11.2,-9.25,-4.85,3,6
18610.265,0.251,0.735,0.744,-20.2,-8.33,4.03,3,6
18610.265,0.216,0.601,0.749,-22.92,1.43,6.13,3,6
18610.281,0.099,0.77,0.845,-29.48,3.42,8.18,3,6
18610.296,0.199,0.641,0.801,-27.25,-5.55,16.94,3,6
18610.312,0.233,0.624,0.797,-24.84,-4.09,14.68,3,6
18610.312,0.23,0.592,0.807,-14.8,-0.12,11.08,3,6
18610.328,0.2,0.589,0.843,-5.46,2.75,6.99,3,6
18610.343,0.177,0.585,0.878,1.8,2.26,5.31,3,6
18610.343,0.147,0.563,0.891,9.19,-1.13,6.53,3,6
18610.359,0.141,0.526,0.867,16.02,-6.53,10.59,3,6
18610.375,0.135,0.499,0.826,21.79,-11.63,14.53,3,6
18610.375,0.121,0.53,0.824,22.1,-16.48,17.67,3,6
18610.39,0.11,0.548,0.868,19.5,-23.59,20.72,3,6
18610.406,0.104,0.616,0.841,14.77,-34.73,24.57,3,6
18610.406,0.248,0.533,0.733,17.27,-39.34,28.99,3,6
18610.421,0.201,0.55,0.705,20.63,-35.1,26.7,3,6
18610.421,0.254,0.649,0.761,14.71,-34.12,26.22,3,6
18610.437,0.289,0.604,0.73,12.15,-32.17,23.13,3,6
18610.453,0.285,0.58,0.706,12.67,-27.86,18.07,3,6
18610.468,0.285,0.623,0.725,14.65,-19.65,10.83,3,6
18610.484,0.273,0.611,0.707,15.66,-16.88,9.03,3,6
18610.484,0.273,0.621,0.698,13.95,-14.1,8.48,3,6
18610.5,0.266,0.627,0.695,10.71,-11.11,7.6,3,6
18610.5,0.262,0.624,0.684,5.43,-9.22,6.96,3,6
18610.515,0.262,0.616,0.681,-1.37,-8.15,6.56,3,6
18610.531,0.269,0.595,0.681,-6.99,-6.84,5.31,3,6
18610.531,0.284,0.582,0.68,-11.57,-4.64,3.57,3,6
18610.546,0.291,0.567,0.692,-14.19,-1.04,1.4,3,6
18610.562,0.288,0.554,0.71,-13.95,3.3,-0.82,3,6
18610.562,0.299,0.549,0.714,-11.63,7.54,-2.62,3,6
18610.578,0.302,0.554,0.72,-9.25,11.72,-4.88,3,6
18610.593,0.301,0.538,0.732,-7.05,15.53,-8.03,3,6
18610.593,0.302,0.515,0.723,-4.67,19.07,-12.12,3,6
18610.609,0.313,0.495,0.696,-2.35,23.68,-17.37,3,6
18610.625,0.326,0.476,0.662,-0.24,31.01,-24.84,3,6
18610.64,0.252,0.461,0.678,-2.84,51.79,-46.63,3,6
18610.656,0.138,0.658,0.848,-19.04,51.15,-53.32,3,6
18610.656,0.011,0.768,1.072,-29.91,39.67,-49.84,3,6
18610.671,-0.145,1.044,1.234,-26.64,12.24,-31.4,3,6
18610.671,0.099,0.883,1.009,-3.63,-16.24,1.65,3,6
18610.687,0.18,0.6,0.718,7.72,-21.91,11.99,3,6
18610.703,0.173,0.532,0.641,5.43,-14.25,11.02,3,6
18610.703,0.129,0.502,0.655,8.09,-5.8,9.64,3,6
18610.718,0.098,0.557,0.717,3.14,-5.1,10.1,3,6
18610.734,0.108,0.589,0.83,-3.78,-9.83,13.52,3,6
18610.734,0.134,0.609,0.921,-1.74,-17.09,19.04,3,6
18610.75,0.159,0.639,0.934,6.96,-24.87,24.54,3,6
18610.75,0.142,0.664,0.914,9.34,-33.42,28.78,3,6
18610.765,0.286,0.592,0.786,10.41,-39.7,31.22,3,6
18610.781,0.229,0.492,0.701,18.56,-36.07,27.71,3,6
18610.796,0.243,0.6,0.727,10.16,-34.3,26.61,3,6
18610.812,0.302,0.485,0.607,14.56,-21.76,20.84,3,6
18610.812,0.342,0.544,0.617,11.66,-12.73,17.49,3,6
18610.828,0.354,0.538,0.619,11.93,-2.04,12.02,3,6
18610.843,0.325,0.544,0.635,10.8,7.9,5.89,3,6
18610.843,0.306,0.578,0.673,7.51,14.68,1.86,3,6
18610.859,0.281,0.615,0.749,5.62,17.43,-0.73,3,6
18610.859,0.24,0.636,0.81,6.38,15.29,-1.25,3,6
18610.875,0.231,0.667,0.845,5.37,8.39,1.43,3,6
18610.89,0.238,0.671,0.842,3.85,0.49,4.21,3,6
18610.906,0.237,0.632,0.792,4.21,-5.52,4.7,3,6
18610.906,0.238,0.61,0.743,3.88,-8.79,4.52,3,6
18610.921,0.252,0.608,0.706,2.29,-9.16,5.31,3,6
18610.921,0.261,0.591,0.669,-0.18,-7.14,5.8,3,6
18610.937,0.273,0.572,0.643,-3.39,-2.75,5.1,3,6
18610.953,0.286,0.562,0.651,-6.62,2.99,2.96,3,6
18610.953,0.301,0.556,0.67,-8.36,8.61,0.34,3,6
18610.984,0.334,0.523,0.672,-7.17,20.91,-7.78,3,6
18610.984,0.346,0.48,0.656,-5.46,29.08,-15.44,3,6
18611.0,0.358,0.463,0.625,-3.66,39.7,-25.09,3,6
18611.015,0.352,0.439,0.591,-0.85,52.92,-36.56,3,6
18611.015,0.26,0.452,0.669,-1.95,66.5,-48.98,3,6
18611.031,0.071,0.687,0.939,-18.95,62.38,-54.6,3,6
18611.031,-0.031,0.807,1.179,-31.31,42.12,-46.78,3,6
18611.046,-0.14,0.99,1.232,-24.17,9.64,-27.19,3,6
18611.062,0.127,0.77,0.952,0.0,-17.27,1.89,3,6
18611.078,0.211,0.522,0.686,13.09,-19.47,9.25,3,6
18611.078,0.184,0.501,0.634,13.4,-9.7,5.4,3,6
18611.093,0.133,0.508,0.659,13.86,-2.72,1.19,3,6
18611.093,0.121,0.573,0.722,7.39,-2.87,0.95,3,6
18611.109,0.133,0.636,0.79,3.14,-5.4,4.61,3,6
18611.125,0.152,0.657,0.838,6.04,-8.73,10.1,3,6
18611.125,0.164,0.678,0.875,8.55,-13.98,13.61,3,6
18611.14,0.114,0.681,0.873,9.49,-28.11,17.21,3,6
18611.156,0.235,0.613,0.766,10.1,-34.03,22.34,3,6
18611.171,0.212,0.512,0.681,8.18,-27.19,20.05,3,6
18611.171,0.208,0.589,0.716,4.94,-25.57,20.6,3,6
18611.187,0.255,0.579,0.706,6.74,-19.68,20.14,3,6
18611.203,0.279,0.539,0.67,9.74,-12.42,18.68,3,6
18611.203,0.302,0.574,0.651,9.8,-4.67,16.45,3,6
18611.218,0.303,0.576,0.661,8.85,2.32,13.09,3,6
18611.234,0.297,0.592,0.695,6.56,7.26,9.06,3,6
18611.234,0.26,0.619,0.745,5.01,9.28,4.97,3,6
18611.25,0.223,0.647,0.804,3.2,6.56,3.48,3,6
18611.25,0.205,0.676,0.859,1.1,-0.89,5.8,3,6
18611.265,0.2,0.664,0.85,2.78,-9.64,9.25,3,6
18611.281,0.208,0.643,0.801,5.04,-16.51,12.88,3,6
18611.296,0.234,0.626,0.752,5.34,-20.42,16.05,3,6
18611.296,0.255,0.599,0.705,5.13,-20.51,18.16,3,6
18611.312,0.27,0.574,0.657,4.73,-16.75,18.56,3,6
18611.312,0.287,0.557,0.625,3.97,-10.53,17.3,3,6
18611.328,0.314,0.548,0.605,2.32,-2.32,14.56,3,6
18611.343,0.332,0.549,0.616,0.03,7.02,10.65,3,6
18611.343,0.317,0.568,0.669,-1.22,15.81,6.1,3,6
18611.359,0.285,0.597,0.746,0.0,20.54,2.44,3,6
18611.359,0.244,0.628,0.799,3.66,20.33,1.37,3,6
18611.375,0.215,0.649,0.826,3.57,15.26,2.69,3,6
18611.39,0.217,0.635,0.833,0.12,7.29,3.91,3,6
18611.39,0.224,0.603,0.795,-1.1,0.76,3.45,3,6
18611.406,0.239,0.578,0.745,0.18,-2.44,3.08,3,6
18611.421,0.26,0.574,0.709,1.37,-1.86,3.05,3,6
18611.421,0.273,0.574,0.685,1.37,1.28,2.59,3,6
18611.437,0.285,0.569,0.679,0.09,5.4,1.62,3,6
18611.453,0.294,0.573,0.686,-0.61,9.83,0.12,3,6
18611.453,0.287,0.59,0.712,-0.24,13.95,-1.74,3,6
18611.468,0.251,0.624,0.779,2.08,15.56,-3.36,3,6
18611.484,0.209,0.652,0.824,5.55,13.18,-2.44,3,6
18611.484,0.183,0.68,0.845,4.76,6.81,0.64,3,6
18611.5,0.18,0.67,0.837,2.56,-1.4,3.6,3,6
18611.5,0.195,0.638,0.794,2.87,-8.0,6.62,3,6
18611.515,0.215,0.617,0.749,4.55,-10.56,10.07,3,6
18611.531,0.238,0.604,0.707,5.55,-9.58,12.85,3,6
18611.546,0.257,0.592,0.684,4.64,-6.29,14.19,3,6
18611.546,0.277,0.579,0.68,3.02,-2.11,14.13,3,6
18611.562,0.281,0.586,0.701,2.62,1.98,12.67,3,6
18611.562,0.269,0.613,0.737,4.85,5.07,11.51,3,6
18611.578,0.252,0.638,0.773,7.23,6.04,12.27,3,6
18611.593,0.232,0.65,0.793,8.06,4.61,14.56,3,6
18611.593,0.215,0.659,0.819,7.26,1.01,17.03,3,6
18611.609,0.22,0.665,0.834,6.5,-4.39,19.5,3,6
18611.609,0.234,0.66,0.825,6.68,-9.55,21.85,3,6
18611.625,0.252,0.641,0.8,7.93,-12.27,24.23,3,6
18611.64,0.269,0.624,0.776,9.64,-12.21,25.97,3,6
18611.656,0.281,0.613,0.756,11.57,-10.1,26.49,3,6
18611.656,0.287,0.614,0.741,12.15,-6.04,25.73,3,6
18611.671,0.279,0.615,0.738,11.35,-1.65,24.23,3,6
18611.671,0.252,0.638,0.771,10.47,3.3,21.97,3,6
18611.687,0.189,0.643,0.772,11.08,8.21,17.03,3,6
18611.703,0.093,0.628,0.811,2.53,10.25,10.65,3,6
18611.703,0.101,0.579,0.863,-2.08,1.56,10.19,3,6
18611.718,0.105,0.608,0.866,2.75,-6.01,8.61,3,6
18611.734,0.151,0.61,0.828,9.25,-12.42,8.97,3,6
18611.734,0.172,0.598,0.79,13.73,-14.07,7.45,3,6
18611.75,0.188,0.606,0.765,16.54,-12.18,6.47,3,6
18611.75,0.186,0.613,0.74,17.94,-8.7,5.68,3,6
18611.765,0.188,0.62,0.719,16.66,-4.64,5.52,3,6
18611.781,0.191,0.62,0.709,13.31,0.15,5.74,3,6
18611.781,0.181,0.615,0.719,10.8,5.1,6.04,3,6
18611.796,0.176,0.607,0.72,10.1,9.13,6.99,3,6
18611.812,0.169,0.621,0.735,10.71,12.42,7.87,3,6
18611.812,0.152,0.631,0.751,12.57,14.19,8.18,3,6
18611.828,0.146,0.648,0.767,14.25,14.31,8.91,3,6
18611.843,0.145,0.652,0.762,15.81,13.43,9.83,3,6
18611.843,0.156,0.665,0.759,16.08,12.67,10.41,3,6
18611.859,0.152,0.678,0.764,16.82,12.7,10.04,3,6
18611.859,0.15,0.675,0.75,18.37,12.48,10.32,3,6
18611.875,0.156,0.68,0.732,19.44,12.57,10.83,3,6
18611.89,0.148,0.681,0.717,20.63,13.86,10.56,3,6
18611.89,0.138,0.674,0.711,22.8,15.02,10.99,3,6
18611.906,0.128,0.673,0.697,26.28,15.78,12.42,3,6
18611.921,0.116,0.678,0.688,29.85,15.78,14.31,3,6
18611.937,0.112,0.676,0.662,33.63,15.23,16.51,3,6
18611.937,0.121,0.676,0.608,35.37,15.5,18.19,3,6
18611.953,0.115,0.687,0.56,33.78,16.88,17.09,3,6
18611.953,0.082,0.703,0.542,31.71,18.34,10.68,3,6
18611.968,0.042,0.693,0.528,35.1,18.62,0.49,3,6
18611.984,0.02,0.684,0.514,45.26,18.77,-9.28,3,6
18611.984,0.01,0.697,0.475,60.85,20.57,-15.69,3,6
18612.0,0.042,0.721,0.418,75.96,25.97,-17.12,3,6
18612.015,0.096,0.762,0.365,84.69,36.07,-15.96,3,6
18612.015,0.15,0.783,0.311,85.02,51.0,-15.08,3,6
18612.031,0.182,0.779,0.302,77.0,70.13,-14.92,3,6
18612.031,0.187,0.778,0.323,64.39,91.56,-14.22,3,6
18612.046,0.182,0.758,0.317,49.71,112.8,-10.8,3,6
18612.062,0.199,0.716,0.315,31.19,133.82,-3.72,3,6
18612.062,0.222,0.685,0.391,12.27,155.52,4.21,3,6
18612.078,0.208,0.607,0.51,2.04,175.15,8.21,3,6
18612.093,0.098,0.603,0.549,-1.62,187.6,12.48,3,6
18612.093,0.026,0.661,0.61,-6.81,192.21,24.26,3,6
18612.109,-0.013,0.639,0.702,-9.58,192.88,39.16,3,6
18612.125,-0.025,0.605,0.773,-12.12,187.41,52.86,3,6
18612.125,0.006,0.587,0.763,-19.47,176.03,61.04,3,6
18612.14,0.073,0.583,0.753,-36.23,163.79,62.35,3,6
18612.14,0.128,0.544,0.811,-58.81,146.64,47.55,3,6
18612.156,0.146,0.457,0.872,-53.07,138.74,37.11,3,6
18612.171,0.141,0.395,0.918,-39.74,128.15,25.39,3,6
18612.171,0.118,0.391,0.932,-27.31,115.09,13.31,3,6
18612.187,0.078,0.486,0.849,-21.24,101.96,1.92,3,6
18612.203,0.078,0.481,0.822,-16.94,92.29,-8.51,3,6
18612.218,0.063,0.49,0.791,-11.44,86.25,-17.24,3,6
18612.218,0.053,0.506,0.737,-6.9,82.25,-23.47,3,6
18612.218,0.071,0.545,0.681,-6.96,81.94,-26.46,3,6
18612.234,0.068,0.588,0.663,-12.73,86.86,-28.2,3,6
18612.25,0.039,0.602,0.687,-20.91,94.0,-28.08,3,6
18612.25,-0.037,0.659,0.775,-27.53,99.34,-23.96,3,6
18612.265,-0.147,0.696,0.822,-31.34,97.72,-13.55,3,6
18612.281,-0.179,0.714,0.834,-41.29,87.31,2.78,3,6
18612.296,-0.156,0.709,0.812,-55.06,74.5,16.51,3,6
18612.296,-0.12,0.646,0.771,-66.47,64.27,23.71,3,6
18612.312,-0.076,0.569,0.744,-71.87,59.66,26.64,3,6
18612.312,-0.033,0.51,0.703,-68.06,61.89,26.37,3,6
18612.343,-0.04,0.501,0.638,-56.7,80.72,18.01,3,6
18612.343,-0.086,0.521,0.684,-57.19,90.18,14.22,3,6
18612.359,-0.178,0.551,0.737,-59.85,95.55,12.91,3,6
18612.375,-0.276,0.56,0.795,-67.38,93.02,16.91,3,6
18612.375,-0.292,0.525,0.837,-75.87,83.22,26.86,3,6
18612.39,-0.236,0.497,0.846,-79.9,72.7,37.39,3,6
18612.39,-0.151,0.483,0.822,-78.01,67.17,42.94,3,6
18612.406,-0.103,0.499,0.783,-71.54,69.09,41.93,3,6
18612.421,-0.125,0.538,0.781,-63.75,76.17,37.9,3,6
18612.421,-0.185,0.587,0.832,-57.16,82.98,35.89,3,6
18612.437,-0.257,0.636,0.899,-49.53,86.21,42.24,3,6
18612.453,-0.291,0.669,0.917,-45.63,85.39,58.9,3,6
18612.453,-0.252,0.679,0.905,-51.61,83.99,80.17,3,6
18612.468,-0.184,0.636,0.905,-63.66,85.3,98.36,3,6
18612.484,-0.144,0.542,0.905,-75.53,89.57,109.38,3,6
18612.484,-0.125,0.456,0.917,-82.28,95.19,113.83,3,6
18612.5,-0.112,0.316,0.984,-69.0,105.23,105.2,3,6
18612.515,-0.131,0.316,1.019,-57.99,106.75,93.11,3,6
18612.531,-0.161,0.32,1.044,-49.2,105.2,79.04,3,6
18612.531,-0.177,0.321,1.078,-46.51,100.31,65.61,3,6
18612.546,-0.177,0.314,1.105,-47.06,93.75,52.83,3,6
18612.562,-0.178,0.309,1.133,-46.69,87.1,41.08,3,6
18612.562,-0.194,0.312,1.152,-43.58,80.75,30.67,3,6
18612.578,-0.223,0.315,1.166,-39.61,73.46,21.94,3,6
18612.593,-0.244,0.322,1.212,-36.5,64.09,13.37,3,6
18612.593,-0.261,0.311,1.251,-30.92,52.1,3.33,3,6
18612.609,-0.267,0.291,1.252,-22.89,37.97,-6.26,3,6
18612.609,-0.245,0.284,1.258,-14.44,24.45,-16.17,3,6
18612.625,-0.251,0.302,1.285,-4.91,12.27,-28.08,3,6
18612.64,-0.282,0.337,1.316,2.2,-0.76,-38.45,3,6
18612.64,-0.281,0.361,1.37,3.72,-16.36,-46.08,3,6
18612.656,-0.282,0.361,1.415,5.74,-32.93,-52.86,3,6
18612.671,-0.296,0.344,1.428,11.6,-49.75,-57.92,3,6
18612.671,-0.277,0.336,1.438,16.69,-67.14,-61.04,3,6
18612.687,-0.249,0.322,1.446,20.48,-83.5,-65.34,3,6
18612.703,-0.272,0.312,1.445,25.21,-97.63,-71.69,3,6
18612.703,-0.295,0.311,1.44,30.27,-110.75,-77.85,3,6
18612.718,-0.293,0.336,1.443,34.18,-122.47,-81.82,3,6
18612.734,-0.304,0.376,1.443,37.23,-131.78,-82.92,3,6
18612.734,-0.337,0.405,1.451,38.64,-139.16,-79.81,3,6
18612.75,-0.361,0.421,1.454,37.14,-145.39,-71.32,3,6
18612.765,-0.381,0.446,1.432,30.64,-150.33,-58.35,3,6
18612.765,-0.349,0.464,1.416,18.62,-154.82,-43.7,3,6
18612.781,-0.276,0.465,1.425,6.23,-158.39,-30.52,3,6
18612.781,-0.236,0.467,1.416,-1.28,-160.22,-20.08,3,6
18612.796,-0.199,0.468,1.397,-7.26,-161.35,-8.91,3,6
18612.812,-0.147,0.485,1.396,-13.79,-161.17,4.27,3,6
18612.812,-0.08,0.479,1.351,-20.26,-159.0,19.26,3,6
18612.828,0.023,0.48,1.31,-32.38,-153.17,37.84,3,6
18612.843,0.158,0.476,1.311,-49.38,-143.13,58.29,3,6
18612.843,0.28,0.428,1.331,-69.15,-130.31,78.46,3,6
18612.859,0.364,0.389,1.42,-88.32,-117.16,96.22,3,6
18612.875,0.442,0.332,1.52,-99.98,-108.13,111.51,3,6
18612.875,0.5,0.296,1.591,-110.08,-103.49,122.14,3,6
18612.89,0.544,0.269,1.662,-119.54,-103.73,126.47,3,6
18612.906,0.573,0.259,1.695,-126.5,-109.35,125.61,3,6
18612.906,0.588,0.243,1.663,-132.33,-118.17,121.25,3,6
18612.921,0.602,0.227,1.606,-137.52,-125.64,115.82,3,6
18612.921,0.596,0.24,1.548,-142.03,-130.01,110.78,3,6
18612.937,0.582,0.247,1.475,-146.64,-131.99,107.55,3,6
18612.953,0.572,0.251,1.392,-152.41,-131.2,105.93,3,6
18612.953,0.581,0.235,1.297,-158.02,-127.29,105.69,3,6
18612.968,0.601,0.212,1.18,-163.55,-119.39,105.23,3,6
18612.984,0.632,0.194,1.075,-170.93,-107.18,103.67,3,6
18612.984,0.652,0.187,1.014,-180.91,-90.61,100.19,3,6
18613.015,0.576,0.19,1.065,-197.39,-55.85,91.28,3,6
18613.015,0.448,0.231,1.181,-197.49,-45.9,91.77,3,6
18613.031,0.348,0.211,1.175,-196.33,-47.46,99.86,3,6
18613.046,0.352,0.191,1.135,-201.42,-54.81,112.09,3,6
18613.046,0.396,0.158,1.086,-208.23,-61.01,118.93,3,6
18613.062,0.423,0.121,0.996,-215.25,-63.63,120.43,3,6
18613.078,0.41,0.019,0.915,-222.48,-59.82,122.14,3,6
18613.078,0.432,0.032,0.811,-223.46,-50.2,118.75,3,6
18613.093,0.41,-0.029,0.681,-222.42,-37.81,111.21,3,6
18613.093,0.378,-0.079,0.624,-229.1,-18.56,102.39,3,6
18613.109,0.269,-0.083,0.725,-232.83,6.41,94.85,3,6
18613.125,0.078,-0.155,0.745,-222.48,16.24,88.72,3,6
18613.125,0.021,-0.143,0.76,-219.03,17.76,90.64,3,6
18613.14,-0.004,-0.126,0.797,-212.07,24.84,88.08,3,6
18613.14,-0.038,-0.117,0.797,-209.85,25.7,85.82,3,6
18613.156,-0.045,-0.139,0.77,-207.62,31.43,85.24,3,6
18613.171,-0.023,-0.11,0.688,-203.56,42.12,82.64,3,6
18613.171,-0.081,-0.135,0.631,-204.78,55.02,78.04,3,6
18613.187,-0.133,-0.204,0.634,-209.75,65.98,75.35,3,6
18613.203,-0.136,-0.252,0.625,-206.31,74.07,72.27,3,6
18613.218,-0.119,-0.251,0.623,-194.98,82.92,63.91,3,6
18613.218,-0.104,-0.238,0.687,-180.85,94.27,56.46,3,6
18613.234,-0.096,-0.162,0.743,-166.17,104.07,53.29,3,6
18613.234,-0.086,-0.075,0.757,-157.02,110.66,51.06,3,6
18613.25,-0.101,-0.065,0.732,-160.22,110.69,50.9,3,6
18613.25,-0.088,-0.121,0.725,-171.42,108.28,58.23,3,6
18613.265,-0.094,-0.214,0.679,-179.02,107.91,69.73,3,6
18613.281,-0.081,-0.292,0.635,-184.24,106.48,79.59,3,6
18613.281,-0.055,-0.38,0.626,-183.84,103.46,85.21,3,6
18613.296,-0.047,-0.469,0.598,-176.4,100.16,87.92,3,6
18613.312,0.019,-0.503,0.593,-165.32,95.61,86.7,3,6
18613.312,0.07,-0.521,0.573,-149.57,89.97,79.78,3,6
18613.343,0.031,-0.47,0.563,-122.14,71.72,57.74,3,6
18613.343,-0.018,-0.454,0.535,-111.03,57.19,49.84,3,6
18613.359,-0.068,-0.439,0.495,-99.49,41.51,46.33,3,6
18613.375,-0.064,-0.447,0.403,-88.08,25.94,47.18,3,6
18613.375,-0.026,-0.455,0.277,-83.59,13.89,50.48,3,6
18613.39,0.029,-0.492,0.163,-86.34,9.31,53.53,3,6
18613.39,0.038,-0.516,0.143,-87.77,11.44,55.15,3,6
18613.406,-0.038,-0.504,0.153,-80.36,15.35,57.37,3,6
18613.421,-0.068,-0.48,0.147,-73.31,15.84,62.5,3,6
18613.421,-0.058,-0.467,0.177,-70.59,13.64,66.81,3,6
18613.437,-0.043,-0.492,0.189,-66.23,10.19,69.77,3,6
18613.453,-0.007,-0.53,0.198,-60.3,5.43,73.4,3,6
18613.468,-0.007,-0.57,0.196,-53.87,1.62,76.02,3,6
18613.468,-0.029,-0.627,0.205,-47.09,-1.56,76.91,3,6
18613.484,-0.088,-0.679,0.224,-37.42,-5.8,77.12,3,6
18613.484,-0.154,-0.714,0.197,-26.95,-11.66,78.62,3,6
18613.5,-0.249,-0.763,0.154,-19.07,-16.72,77.85,3,6
18613.5,-0.324,-0.823,0.09,-15.32,-25.54,75.5,3,6
18613.515,-0.342,-0.902,0.031,-13.95,-32.59,72.48,3,6
18613.531,-0.317,-0.971,-0.023,-10.71,-32.11,68.64,3,6
18613.546,-0.319,-1.002,-0.045,-8.67,-26.06,62.99,3,6
18613.546,-0.317,-1.042,-0.021,-8.67,-18.62,55.51,3,6
18613.562,-0.319,-1.057,0.017,-6.47,-12.21,46.42,3,6
18613.562,-0.349,-1.057,0.038,-2.62,-7.81,36.62,3,6
18613.578,-0.363,-1.061,0.041,-1.37,-5.68,25.91,3,6
18613.593,-0.328,-1.07,0.041,-0.4,-3.78,14.74,3,6
18613.609,-0.329,-1.053,0.051,2.26,-0.64,4.91,3,6
18613.609,-0.332,-1.01,0.091,3.08,1.95,-2.26,3,6
18613.609,-0.347,-0.953,0.126,2.35,1.92,-7.26,3,6
18613.625,-0.36,-0.925,0.13,0.31,-0.43,-8.7,3,6
18613.64,-0.355,-0.917,0.105,-3.33,-2.93,-8.7,3,6
18613.64,-0.333,-0.934,0.058,-4.97,-2.87,-7.39,3,6
18613.656,-0.33,-0.94,0.017,-7.08,1.92,-5.28,3,6
18613.671,-0.333,-0.959,0.014,-10.19,7.97,-5.83,3,6
18613.671,-0.308,-0.987,0.034,-10.99,13.46,-8.09,3,6
18613.687,-0.275,-0.993,0.084,-9.64,19.96,-10.71,3,6
18613.703,-0.263,-0.974,0.158,-6.07,22.95,-15.81,3,6
18613.703,-0.26,-0.957,0.187,0.0,19.44,-22.52,3,6
18613.718,-0.273,-0.94,0.159,3.45,14.37,-27.89,3,6
18613.734,-0.244,-0.918,0.129,2.29,10.25,-30.76,3,6
18613.734,-0.248,-0.872,0.076,1.31,10.35,-31.71,3,6
18613.75,-0.236,-0.823,0.025,-1.83,13.58,-29.24,3,6
18613.75,-0.194,-0.789,0.006,-5.86,20.08,-22.74,3,6
18613.765,-0.158,-0.744,0.019,-9.7,28.9,-13.0,3,6
18613.781,-0.146,-0.715,0.092,-12.82,37.39,-3.3,3,6
18613.781,-0.154,-0.731,0.176,-11.66,42.45,6.9,3,6
18613.796,-0.196,-0.764,0.234,-11.14,42.88,19.32,3,6
18613.812,-0.232,-0.854,0.259,-15.26,39.37,29.88,3,6
18613.812,-0.255,-0.984,0.256,-19.68,33.42,34.91,3,6
18613.828,-0.274,-1.1,0.223,-21.82,27.95,32.96,3,6
18613.843,-0.301,-1.163,0.196,-20.33,23.71,23.65,3,6
18613.843,-0.333,-1.189,0.177,-14.22,20.08,10.25,3,6
18613.859,-0.342,-1.176,0.189,-6.35,16.36,-2.75,3,6
18613.859,-0.349,-1.168,0.2,0.09,13.06,-12.18,3,6
18613.875,-0.34,-1.19,0.197,3.3,9.55,-15.53,3,6
18613.89,-0.344,-1.2,0.197,2.66,5.77,-15.5,3,6
18613.906,-0.339,-1.222,0.202,0.92,-0.55,-17.27,3,6
18613.906,-0.323,-1.231,0.188,1.01,-8.36,-21.7,3,6
18613.921,-0.332,-1.204,0.169,2.41,-13.86,-27.59,3,6
18613.921,-0.307,-1.158,0.144,5.07,-18.62,-33.63,3,6
18613.937,-0.269,-1.111,0.118,9.52,-22.61,-38.18,3,6
18613.953,-0.253,-1.062,0.103,12.09,-24.99,-41.26,3,6
18613.953,-0.247,-1.041,0.111,13.0,-27.41,-43.37,3,6
18613.968,-0.262,-1.018,0.103,13.79,-30.12,-46.02,3,6
18613.984,-0.277,-0.996,0.077,16.11,-35.28,-51.3,3,6
18613.984,-0.288,-0.979,-0.009,19.84,-41.41,-57.92,3,6
18614.0,-0.219,-0.944,-0.062,23.29,-45.53,-64.73,3,6
18614.0,-0.183,-0.861,-0.046,29.3,-40.8,-69.49,3,6
18614.015,-0.171,-0.763,0.026,32.78,-29.08,-66.44,3,6
18614.031,-0.145,-0.715,0.126,28.14,-17.09,-51.18,3,6
18614.031,-0.133,-0.732,0.187,15.87,-8.36,-26.7,3,6
18614.046,-0.106,-0.833,0.206,-0.37,-4.55,-1.68,3,6
18614.062,-0.055,-0.979,0.219,-11.93,-4.46,12.88,3,6
18614.062,-0.068,-1.088,0.225,-12.05,-4.64,13.46,3,6
18614.078,-0.1,-1.16,0.252,-5.07,-4.36,5.1,3,6
18614.093,-0.122,-1.171,0.322,1.1,-4.46,-7.51,3,6
18614.093,-0.14,-1.157,0.387,3.69,-5.1,-19.71,3,6
18614.109,-0.132,-1.163,0.427,1.98,-8.03,-25.61,3,6
18614.109,-0.107,-1.176,0.428,-6.68,-19.01,-22.77,3,6
18614.125,-0.09,-1.201,0.388,-11.99,-22.77,-22.0,3,6
18614.14,-0.065,-1.256,0.325,-14.44,-23.38,-22.22,3,6
18614.14,-0.054,-1.28,0.281,-14.59,-21.42,-23.1,3,6
18614.156,-0.14,-1.262,0.201,-16.33,-20.45,-25.12,3,6
18614.171,-0.156,-1.237,0.158,-18.71,-20.26,-27.71,3,6
18614.187,-0.16,-1.189,0.119,-19.44,-17.82,-31.1,3,6
18614.187,-0.156,-1.117,0.08,-19.78,-12.97,-34.42,3,6
18614.203,-0.146,-1.021,0.064,-21.24,-7.54,-35.71,3,6
18614.203,-0.137,-0.917,0.054,-22.64,-2.5,-34.09,3,6
18614.218,-0.12,-0.832,0.074,-24.41,0.89,-30.3,3,6
18614.234,-0.057,-0.835,0.126,-23.71,1.53,-20.17,3,6
18614.234,-0.071,-0.833,0.107,-25.36,3.36,-2.75,3,6
18614.25,-0.104,-0.879,0.072,-34.24,4.18,12.79,3,6
18614.25,-0.095,-0.977,0.062,-42.27,3.17,19.38,3,6
18614.265,-0.084,-1.026,0.057,-41.75,4.12,18.52,3,6
18614.281,-0.111,-1.034,0.081,-38.15,7.93,13.03,3,6
18614.281,-0.12,-1.056,0.123,-37.02,11.54,6.81,3,6
18614.296,-0.123,-1.087,0.126,-38.24,12.91,1.22,3,6
18614.312,-0.084,-1.112,0.115,-41.51,11.11,-5.49,3,6
18614.328,-0.036,-1.117,0.131,-41.02,7.08,-16.54,3,6
18614.328,-0.022,-1.093,0.131,-32.62,1.62,-29.24,3,6
18614.343,-0.007,-1.031,0.117,-23.77,-5.31,-40.16,3,6
18614.343,0.002,-0.993,0.094,-18.28,-11.02,-46.94,3,6
18614.359,0.008,-0.946,0.044,-16.08,-13.12,-46.72,3,6
18614.375,0.007,-0.886,-0.011,-17.49,-12.67,-42.88,3,6
18614.375,0.025,-0.853,-0.037,-21.15,-10.35,-37.14,3,6
18614.39,0.031,-0.831,-0.06,-25.12,-5.13,-29.27,3,6
18614.39,0.042,-0.806,-0.053,-28.6,1.98,-20.48,3,6
18614.406,0.043,-0.783,-0.008,-30.09,9.13,-12.6,3,6
18614.421,0.035,-0.776,0.026,-30.34,13.67,-5.8,3,6
18614.421,0.033,-0.77,0.059,-30.4,14.22,-2.23,3,6
18614.437,0.031,-0.773,0.092,-28.78,11.35,-1.8,3,6
18614.453,0.03,-0.767,0.101,-25.97,7.02,-2.62,3,6
18614.453,0.007,-0.745,0.106,-22.49,2.9,-4.43,3,6
18614.468,-0.022,-0.736,0.075,-18.65,-2.23,-5.58,3,6
18614.484,-0.003,-0.725,0.026,-17.12,-8.55,-6.29,3,6
18614.484,0.002,-0.747,-0.033,-14.98,-11.93,-8.09,3,6
18614.5,0.003,-0.765,-0.094,-11.63,-11.17,-8.51,3,6
18614.515,0.013,-0.772,-0.13,-7.54,-7.63,-8.03,3,6
18614.515,0.008,-0.784,-0.143,-4.24,-2.72,-6.71,3,6
18614.531,-0.007,-0.793,-0.127,-2.72,0.98,-4.58,3,6
18614.531,-0.029,-0.817,-0.09,-2.38,2.93,-0.95,3,6
18614.546,-0.04,-0.862,-0.062,-3.11,2.29,3.45,3,6
18614.562,-0.047,-0.915,-0.053,-3.05,-0.31,6.07,3,6
18614.562,-0.054,-0.961,-0.056,-1.86,-3.23,6.01,3,6
18614.578,-0.038,-0.99,-0.069,-0.58,-6.41,4.03,3,6
18614.593,-0.034,-1.003,-0.083,1.1,-7.45,0.95,3,6
18614.593,-0.037,-1.005,-0.083,3.57,-6.71,-1.77,3,6
18614.609,-0.054,-0.991,-0.082,5.86,-5.37,-2.69,3,6
18614.609,-0.07,-0.977,-0.081,5.13,-3.3,-1.46,3,6
18614.625,-0.06,-0.987,-0.078,2.75,-1.89,0.64,3,6
18614.64,-0.035,-1.003,-0.074,1.74,-0.82,2.47,3,6
18614.64,-0.029,-1.004,-0.064,2.11,0.85,3.27,3,6
18614.656,-0.032,-1.002,-0.043,2.53,1.53,2.56,3,6
18614.671,-0.042,-1.005,-0.021,4.52,0.43,1.13,3,6
18614.671,-0.034,-1.012,-0.018,6.38,-1.4,-0.34,3,6
18614.687,-0.011,-1.018,-0.01,7.63,-3.14,-2.59,3,6
18614.703,-0.019,-1.019,-0.003,9.4,-4.46,-5.58,3,6
18614.703,-0.033,-1.015,-0.009,9.43,-5.89,-9.13,3,6
18614.718,-0.032,-1.023,-0.012,9.7,-6.68,-12.21,3,6
18614.734,-0.044,-1.014,-0.02,11.84,-5.77,-14.1,3,6
18614.734,-0.052,-0.997,-0.032,12.63,-3.48,-14.34,3,6
18614.75,-0.04,-0.98,-0.022,11.29,-0.92,-13.49,3,6
18614.75,-0.029,-0.964,0.007,10.53,1.25,-12.51,3,6
18614.765,-0.031,-0.951,0.03,11.35,2.23,-10.47,3,6
18614.781,-0.024,-0.942,0.047,10.5,1.4,-7.02,3,6
18614.781,-0.021,-0.952,0.057,8.06,-0.79,-3.97,3,6
18614.796,-0.02,-0.976,0.042,6.16,-2.96,-1.56,3,6
18614.812,-0.003,-0.996,0.016,4.09,-4.39,-0.7,3,6
18614.812,0.004,-1.017,0.005,3.75,-4.58,-2.5,3,6
18614.828,0.007,-1.01,0.007,6.81,-4.36,-5.55,3,6
18614.843,0.028,-0.983,0.008,10.38,-5.31,-8.97,3,6
18614.859,0.031,-0.942,0.033,12.82,-6.04,-11.54,3,6
18614.859,0.005,-0.906,0.025,14.89,-7.32,-10.77,3,6
18614.859,-0.003,-0.891,-0.002,12.82,-9.22,-5.92,3,6
18614.875,0.015,-0.913,-0.03,9.09,-9.55,-0.06,3,6
18614.89,0.023,-0.932,-0.052,7.2,-6.41,4.52,3,6
18614.89,0.019,-0.941,-0.053,6.47,-1.59,7.29,3,6
18614.906,0.001,-0.941,-0.029,6.96,2.69,8.06,3,6
18614.921,-0.022,-0.935,0.003,9.13,4.91,8.33,3,6
18614.921,-0.03,-0.923,0.027,10.01,3.94,7.75,3,6
18614.937,-0.021,-0.939,0.037,10.71,1.04,5.62,3,6
18614.953,-0.022,-0.953,0.026,13.34,-1.43,2.2,3,6
18614.953,-0.028,-0.951,0.018,16.88,-3.91,-3.6,3,6
18614.968,-0.039,-0.949,0.011,21.82,-6.01,-10.44,3,6
18614.984,-0.036,-0.934,0.005,25.64,-7.35,-15.78,3,6
18614.984,-0.022,-0.923,0.016,27.56,-8.61,-20.84,3,6
18615.0,0.011,-0.923,0.031,31.19,-9.74,-23.59,3,6
18615.015,0.025,-0.89,0.041,32.44,-9.77,-23.96,3,6
18615.015,0.034,-0.9,0.057,32.29,-10.38,-24.45,3,6
18615.031,0.036,-0.905,0.068,34.82,-11.23,-23.99,3,6
18615.031,0.029,-0.899,0.054,38.24,-11.87,-22.98,3,6
18615.046,0.035,-0.907,0.031,40.74,-11.99,-22.77,3,6
18615.062,0.039,-0.907,0.027,42.45,-10.35,-22.19,3,6
18615.062,0.032,-0.891,0.026,42.45,-6.93,-20.05,3,6
18615.078,0.036,-0.873,0.048,39.12,-3.91,-16.63,3,6
18615.093,0.033,-0.874,0.097,37.26,-1.62,-12.54,3,6
18615.093,0.022,-0.87,0.125,37.42,-1.1,-6.41,3,6
18615.109,0.036,-0.889,0.15,35.34,-5.55,3.14,3,6
18615.125,0.052,-0.947,0.171,39.28,-7.17,6.04,3,6
18615.125,0.053,-0.971,0.162,42.18,-7.42,6.41,3,6
18615.14,0.057,-1.007,0.141,44.74,-5.46,4.21,3,6
18615.14,0.046,-0.997,0.137,45.23,-2.47,1.46,3,6
18615.156,0.038,-1.006,0.155,43.37,1.22,-1.43,3,6
18615.171,0.012,-1.006,0.161,42.48,4.27,-4.27,3,6
18615.171,-0.003,-0.996,0.172,42.18,5.37,-7.45,3,6
18615.187,0.006,-0.996,0.18,43.49,4.67,-11.69,3,6
18615.203,0.031,-0.978,0.213,47.36,2.5,-16.88,3,6
18615.203,0.055,-0.941,0.257,54.38,-0.61,-20.81,3,6
18615.218,0.068,-0.893,0.264,58.29,-3.91,-19.2,3,6
18615.218,0.07,-0.867,0.257,52.89,-6.78,-14.07,3,6
18615.234,0.066,-0.881,0.243,44.31,-8.51,-9.03,3,6
18615.25,0.048,-0.898,0.204,37.81,-8.12,-4.46,3,6
18615.25,0.045,-0.912,0.165,33.2,-5.58,-0.79,3,6
18615.265,0.05,-0.921,0.156,31.92,-0.64,2.01,3,6
18615.281,0.042,-0.919,0.166,32.65,5.16,4.64,3,6
18615.281,0.041,-0.912,0.201,32.2,9.86,6.81,3,6
18615.296,0.028,-0.916,0.249,31.83,12.48,8.27,3,6
18615.312,0.019,-0.913,0.285,32.38,12.51,9.74,3,6
18615.328,0.025,-0.915,0.324,32.07,10.25,10.28,3,6
18615.328,0.019,-0.925,0.353,33.97,6.9,9.22,3,6
18615.328,0.029,-0.926,0.354,37.14,2.01,8.24,3,6
18615.343,0.052,-0.934,0.344,38.18,-2.08,7.02,3,6
18615.359,0.056,-0.94,0.333,38.85,-4.43,4.39,3,6
18615.375,0.043,-0.928,0.322,40.01,-5.4,2.08,3,6
18615.375,0.042,-0.925,0.318,40.41,-6.1,0.85,3,6
18615.39,0.031,-0.921,0.312,40.38,-6.01,0.09,3,6
18615.39,0.013,-0.92,0.299,41.08,-5.07,-0.4,3,6
18615.406,0.002,-0.913,0.297,41.44,-3.63,-0.61,3,6
18615.421,-0.004,-0.907,0.292,42.21,-2.01,-0.43,3,6
18615.421,0.012,-0.891,0.3,42.39,-0.27,0.64,3,6
18615.437,0.025,-0.877,0.32,41.99,0.73,0.92,3,6
18615.453,0.034,-0.882,0.346,41.84,1.31,1.4,3,6
18615.453,0.027,-0.87,0.371,42.51,1.56,2.44,3,6
18615.468,0.004,-0.866,0.386,42.76,0.52,3.17,3,6
18615.484,-0.011,-0.87,0.381,42.63,-0.85,4.36,3,6
18615.484,-0.001,-0.878,0.366,41.63,-1.37,5.19,3,6
18615.5,0.03,-0.895,0.358,41.26,-0.24,4.12,3,6
18615.5,0.034,-0.898,0.374,42.12,2.5,3.6,3,6
18615.515,0.033,-0.88,0.406,42.09,6.53,5.8,3,6
18615.531,0.027,-0.868,0.445,40.56,8.15,8.7,3,6
18615.531,0.022,-0.881,0.466,39.31,7.35,11.66,3,6
18615.546,0.016,-0.891,0.477,38.21,7.45,15.56,3,6
18615.562,0.022,-0.916,0.48,36.81,7.2,18.37,3,6
18615.562,0.013,-0.947,0.486,35.25,7.63,19.65,3,6
18615.578,0.001,-0.97,0.496,33.17,8.58,19.53,3,6
18615.593,-0.001,-0.994,0.516,32.62,8.3,17.18,3,6
18615.593,0.005,-1.007,0.528,34.88,7.32,13.18,3,6
18615.609,0.007,-0.999,0.534,37.69,6.01,8.79,3,6
18615.609,0.001,-0.98,0.552,38.97,4.36,5.31,3,6
18615.625,-0.004,-0.966,0.556,39.03,1.95,3.69,3,6
18615.64,-0.004,-0.95,0.543,37.32,-0.61,3.42,3,6
18615.656,-0.009,-0.95,0.523,34.82,-0.92,3.88,3,6
18615.656,-0.007,-0.947,0.498,33.63,0.92,5.4,3,6
18615.671,0.004,-0.961,0.485,33.6,4.79,7.48,3,6
18615.671,0.007,-0.976,0.482,33.17,10.13,9.61,3,6
18615.687,0.014,-0.997,0.498,31.62,14.86,10.9,3,6
18615.703,0.017,-1.012,0.523,31.28,18.98,10.13,3,6
18615.703,-0.006,-0.978,0.551,31.25,22.4,7.51,3,6
18615.718,-0.044,-0.959,0.601,29.48,22.46,3.6,3,6
18615.734,-0.068,-0.94,0.637,28.23,17.91,-0.89,3,6
18615.734,-0.067,-0.9,0.647,28.38,11.02,-4.52,3,6
18615.75,-0.041,-0.874,0.637,27.56,2.72,-7.72,3,6
18615.75,-0.004,-0.866,0.608,27.34,-3.88,-11.81,3,6
18615.765,0.015,-0.843,0.579,29.63,-6.93,-15.69,3,6
18615.781,0.025,-0.82,0.556,32.59,-7.6,-17.3,3,6
18615.781,0.019,-0.788,0.554,33.63,-6.01,-16.14,3,6
18615.796,-0.01,-0.764,0.55,33.02,-3.08,-12.79,3,6
18615.812,-0.023,-0.75,0.557,30.21,-0.98,-8.21,3,6
18615.812,-0.022,-0.754,0.571,27.77,-0.24,-4.46,3,6
18615.828,-0.022,-0.764,0.57,26.98,0.4,-1.53,3,6
18615.843,-0.008,-0.767,0.578,25.64,0.79,0.67,3,6
18615.843,0.015,-0.77,0.589,25.51,0.67,1.46,3,6
18615.859,0.016,-0.77,0.591,27.04,-0.06,1.16,3,6
18615.859,0.011,-0.76,0.606,28.72,-1.1,-0.12,3,6
18615.875,-0.014,-0.749,0.624,31.28,-2.56,-1.86,3,6
18615.89,-0.025,-0.736,0.615,33.81,-4.82,-1.74,3,6
18615.89,-0.015,-0.734,0.591,33.54,-6.93,-0.98,3,6
18615.906,0.005,-0.75,0.567,31.71,-6.93,-1.83,3,6
18615.921,0.017,-0.749,0.56,31.83,-4.52,-2.66,3,6
18615.921,0.018,-0.735,0.566,33.6,-0.95,-2.38,3,6
18615.937,0.007,-0.719,0.588,34.88,1.98,-2.44,3,6
18615.953,-0.025,-0.707,0.631,36.81,3.05,-3.36,3,6
18615.953,-0.038,-0.699,0.644,40.16,1.56,-4.0,3,6
18615.968,-0.02,-0.684,0.654,42.42,-1.53,-4.33,3,6
18615.984,-0.012,-0.675,0.657,44.28,-4.0,-4.24,3,6
18615.984,-0.013,-0.665,0.633,43.73,-5.37,-2.32,3,6
18616.0,0.005,-0.7,0.642,39.55,-5.16,1.25,3,6
18616.0,-0.005,-0.707,0.644,40.38,-1.83,4.27,3,6
18616.015,-0.02,-0.701,0.63,42.54,-0.55,5.1,3,6
18616.031,-0.004,-0.729,0.655,40.19,2.78,6.07,3,6
18616.031,-0.007,-0.743,0.68,41.17,6.59,5.95,3,6
18616.046,-0.005,-0.743,0.688,43.73,6.62,4.7,3,6
18616.062,-0.001,-0.741,0.712,42.88,6.56,2.96,3,6
18616.062,-0.025,-0.737,0.749,42.33,5.43,0.73,3,6
18616.078,-0.05,-0.731,0.759,43.98,2.9,-0.27,3,6
18616.093,-0.04,-0.72,0.745,44.74,-4.58,-3.81,3,6
18616.093,-0.012,-0.725,0.741,45.93,-4.43,-4.91,3,6
18616.109,-0.006,-0.721,0.719,46.39,-3.97,-5.62,3,6
18616.125,0.012,-0.697,0.705,46.82,-1.89,-7.72,3,6
18616.125,0.024,-0.66,0.717,47.94,1.22,-8.06,3,6
18616.14,0.024,-0.64,0.733,47.98,4.0,-5.74,3,6
18616.14,-0.001,-0.633,0.761,47.55,5.89,-3.45,3,6
18616.156,-0.037,-0.626,0.774,45.96,5.89,-0.34,3,6
18616.171,-0.028,-0.624,0.77,41.87,3.88,1.4,3,6
18616.171,-0.022,-0.624,0.769,40.56,3.08,0.79,3,6
18616.187,-0.033,-0.589,0.767,42.33,3.91,0.52,3,6
18616.203,-0.018,-0.563,0.755,42.63,3.88,1.07,3,6
18616.203,-0.007,-0.565,0.749,42.73,4.7,2.56,3,6
18616.218,-0.008,-0.567,0.741,43.43,7.6,5.68,3,6
18616.234,-0.011,-0.565,0.736,43.92,11.51,9.49,3,6
18616.234,-0.039,-0.548,0.74,42.79,16.72,13.15,3,6
18616.25,-0.073,-0.529,0.756,40.89,21.36,15.96,3,6
18616.25,-0.094,-0.513,0.78,40.1,24.26,17.46,3,6
18616.265,-0.105,-0.522,0.8,42.63,25.64,17.4,3,6
18616.281,-0.089,-0.535,0.795,49.62,25.36,17.12,3,6
18616.296,-0.065,-0.538,0.805,53.47,25.3,17.88,3,6
18616.296,-0.051,-0.59,0.815,53.59,25.94,16.6,3,6
18616.312,-0.048,-0.611,0.827,52.98,26.61,13.76,3,6
18616.312,-0.076,-0.602,0.856,52.19,27.65,8.76,3,6
18616.328,-0.12,-0.582,0.899,52.31,26.0,1.8,3,6
18616.343,-0.12,-0.561,0.932,54.14,20.23,-4.73,3,6
18616.343,-0.082,-0.548,0.936,56.49,13.98,-8.55,3,6
18616.359,-0.052,-0.535,0.924,58.23,9.95,-10.01,3,6
18616.375,-0.042,-0.512,0.918,58.14,8.09,-9.03,3,6
18616.375,-0.056,-0.48,0.907,55.51,8.12,-7.32,3,6
18616.39,-0.085,-0.461,0.9,52.22,8.55,-4.91,3,6
18616.39,-0.086,-0.461,0.905,49.81,9.0,-0.98,3,6
18616.406,-0.079,-0.475,0.9,50.2,9.64,3.02,3,6
18616.421,-0.067,-0.488,0.908,50.78,11.08,7.42,3,6
18616.421,-0.063,-0.49,0.915,49.62,12.63,9.77,3,6
18616.437,-0.078,-0.5,0.939,47.79,13.7,10.5,3,6
18616.453,-0.093,-0.508,0.952,45.99,13.52,11.63,3,6
18616.453,-0.108,-0.513,0.956,44.8,12.63,11.47,3,6
18616.468,-0.128,-0.512,0.965,44.77,11.84,11.11,3,6
18616.484,-0.134,-0.506,0.961,44.31,10.5,10.8,3,6
18616.484,-0.101,-0.521,0.956,43.92,8.91,9.8,3,6
18616.5,-0.083,-0.519,0.958,44.5,10.77,9.09,3,6
18616.5,-0.086,-0.519,0.965,43.92,14.25,9.49,3,6
18616.515,-0.092,-0.527,0.987,41.38,16.91,9.74,3,6
18616.531,-0.121,-0.532,1.021,39.7,18.16,8.51,3,6
18616.531,-0.141,-0.521,1.043,40.13,16.3,7.45,3,6
18616.546,-0.13,-0.501,1.05,39.64,11.75,6.47,3,6
18616.562,-0.131,-0.486,1.043,39.16,7.11,4.09,3,6
18616.562,-0.125,-0.475,1.023,38.45,3.17,4.55,3,6
18616.578,-0.09,-0.467,0.978,35.0,0.89,5.86,3,6
18616.593,-0.081,-0.481,0.953,31.59,2.32,4.12,3,6
18616.593,-0.11,-0.48,0.945,32.11,6.29,1.31,3,6
18616.609,-0.123,-0.45,0.931,34.73,10.1,-0.95,3,6
18616.625,-0.12,-0.425,0.93,36.35,13.52,-3.36,3,6
18616.625,-0.121,-0.402,0.944,36.65,17.18,-4.15,3,6
18616.64,-0.121,-0.377,0.98,37.11,20.08,-3.42,3,6
18616.64,-0.133,-0.359,0.967,39.89,21.55,-0.79,3,6
18616.656,-0.157,-0.318,0.928,39.0,23.26,4.43,3,6
18616.671,-0.17,-0.319,0.942,33.08,23.62,9.61,3,6
18616.687,-0.176,-0.342,0.948,26.95,22.58,13.25,3,6
18616.687,-0.156,-0.367,0.94,22.55,21.12,14.92,3,6
18616.703,-0.133,-0.379,0.944,21.36,21.36,13.64,3,6
18616.703,-0.143,-0.367,0.953,22.95,22.68,10.65,3,6
18616.718,-0.153,-0.346,0.973,24.63,22.34,8.3,3,6
18616.734,-0.153,-0.317,0.995,24.99,20.69,7.81,3,6
18616.734,-0.151,-0.293,1.018,24.2,18.71,8.58,3,6
18616.75,-0.16,-0.285,1.043,24.69,16.91,9.28,3,6
18616.765,-0.173,-0.256,1.037,27.31,14.62,10.59,3,6
18616.765,-0.171,-0.239,1.022,27.99,11.81,11.87,3,6
18616.781,-0.156,-0.265,1.01,26.89,9.89,11.72,3,6
18616.781,-0.16,-0.27,0.996,27.47,8.7,10.65,3,6
18616.796,-0.156,-0.272,0.982,28.69,7.66,10.86,3,6
18616.812,-0.158,-0.265,0.978,28.53,8.15,11.75,3,6
18616.812,-0.193,-0.266,0.969,27.53,9.0,12.02,3,6
18616.828,-0.207,-0.271,0.972,25.51,8.7,12.3,3,6
18616.843,-0.209,-0.278,0.967,25.03,8.12,11.05,3,6
18616.843,-0.208,-0.279,0.961,27.22,7.69,9.09,3,6
18616.859,-0.199,-0.264,0.954,29.08,6.99,7.35,3,6
18616.859,-0.184,-0.251,0.953,29.85,6.44,4.79,3,6
18616.875,-0.185,-0.24,0.96,31.46,6.65,2.78,3,6
18616.89,-0.209,-0.208,0.958,32.53,7.63,3.33,3,6
18616.89,-0.22,-0.189,0.951,30.98,8.06,4.82,3,6
18616.906,-0.215,-0.189,0.954,28.99,8.61,6.26,3,6
18616.921,-0.218,-0.193,0.963,28.2,9.83,8.7,3,6
18616.921,-0.218,-0.202,0.97,27.56,10.93,10.53,3,6
18616.937,-0.223,-0.22,0.975,27.95,12.02,10.53,3,6
18616.953,-0.243,-0.225,0.975,28.66,13.0,9.09,3,6
18616.953,-0.251,-0.218,0.975,29.21,13.09,7.35,3,6
18616.968,-0.246,-0.215,0.971,29.97,12.82,5.65,3,6
18616.984,-0.245,-0.202,0.971,30.92,13.12,4.58,3,6
18616.984,-0.257,-0.176,0.986,31.53,13.79,4.73,3,6
18617.0,-0.271,-0.161,0.99,30.76,12.54,5.13,3,6
18617.015,-0.256,-0.16,0.987,29.79,10.32,5.8,3,6
18617.015,-0.248,-0.156,0.976,30.27,9.34,6.47,3,6
18617.031,-0.236,-0.159,0.965,30.0,8.97,8.48,3,6
18617.031,-0.222,-0.169,0.965,27.56,9.98,10.38,3,6
18617.046,-0.243,-0.182,0.974,26.06,12.02,10.07,3,6
18617.062,-0.258,-0.188,0.989,26.15,12.54,9.31,3,6
18617.062,-0.257,-0.182,0.989,26.73,11.41,7.84,3,6
18617.078,-0.256,-0.17,0.988,27.8,9.83,2.44,3,6
18617.093,-0.261,-0.154,0.985,28.2,9.06,1.34,3,6
18617.093,-0.255,-0.137,0.972,28.78,8.82,0.85,3,6
18617.109,-0.25,-0.087,0.968,28.75,9.64,3.2,3,6
18617.109,-0.247,-0.064,0.966,25.97,10.71,7.6,3,6
18617.125,-0.247,-0.075,0.966,22.98,11.41,10.77,3,6
18617.14,-0.254,-0.084,0.965,21.82,12.54,13.28,3,6
18617.156,-0.262,-0.077,0.958,21.52,13.92,15.29,3,6
18617.156,-0.275,-0.072,0.97,21.06,14.92,15.9,3,6
18617.171,-0.294,-0.072,0.981,21.88,15.14,16.42,3,6
18617.171,-0.293,-0.078,0.975,22.8,14.07,17.61,3,6
18617.187,-0.257,-0.121,0.964,22.98,12.63,18.28,3,6
18617.203,-0.246,-0.148,0.962,23.56,13.79,16.85,3,6
18617.203,-0.265,-0.153,0.969,24.75,15.99,13.31,3,6
18617.218,-0.29,-0.14,0.97,26.4,16.97,9.4,3,6
18617.234,-0.295,-0.124,0.957,27.38,17.58,6.41,3,6
18617.234,-0.294,-0.092,0.939,28.08,19.41,4.46,3,6
18617.25,-0.298,-0.042,0.915,28.6,22.71,4.15,3,6
18617.25,-0.312,0.01,0.892,27.13,27.74,6.44,3,6
18617.265,-0.342,0.07,0.882,22.92,33.17,11.75,3,6
18617.281,-0.36,0.091,0.888,17.3,36.96,18.86,3,6
18617.281,-0.347,0.082,0.895,12.91,39.0,26.98,3,6
18617.296,-0.333,0.064,0.905,12.02,41.29,33.39,3,6
18617.312,-0.331,0.044,0.913,14.13,43.7,36.44,3,6
18617.328,-0.342,0.018,0.926,16.82,45.35,36.65,3,6
18617.328,-0.365,-0.011,0.957,19.07,45.47,34.64,3,6
18617.343,-0.373,-0.026,0.985,21.0,43.03,31.59,3,6
18617.343,-0.374,-0.029,1.005,22.55,38.7,27.92,3,6
18617.359,-0.374,-0.031,1.003,23.38,33.63,23.59,3,6
18617.359,-0.366,-0.04,1.009,23.04,28.05,19.68,3,6
18617.375,-0.362,-0.037,1.029,23.53,23.19,16.14,3,6
18617.39,-0.383,-0.015,1.014,24.99,19.65,14.98,3,6
18617.406,-0.375,-0.012,1.003,23.65,15.66,16.11,3,6
18617.406,-0.35,-0.02,0.991,22.28,12.39,16.02,3,6
18617.421,-0.35,-0.019,0.971,23.01,11.35,14.68,3,6
18617.421,-0.35,-0.016,0.952,24.02,11.63,13.92,3,6
18617.437,-0.354,-0.018,0.944,23.87,13.21,13.79,3,6
18617.453,-0.358,-0.024,0.949,22.8,14.83,13.4,3,6
18617.453,-0.359,-0.032,0.967,22.64,15.96,11.54,3,6
18617.468,-0.367,-0.035,0.998,24.23,16.24,8.82,3,6
18617.484,-0.388,-0.011,1.019,25.76,15.14,7.23,3,6
18617.484,-0.399,0.016,1.032,24.78,12.7,7.29,3,6
18617.5,-0.397,0.025,1.035,22.37,9.61,8.21,3,6
18617.5,-0.395,0.019,1.008,19.9,6.35,9.49,3,6
18617.515,-0.37,0.018,0.97,17.98,4.15,10.83,3,6
18617.531,-0.36,0.022,0.938,16.48,5.16,12.18,3,6
18617.546,-0.365,0.028,0.919,14.56,8.03,13.46,3,6
18617.546,-0.371,0.026,0.916,13.12,10.99,14.47,3,6
18617.562,-0.392,0.036,0.922,12.73,14.16,15.53,3,6
18617.562,-0.413,0.049,0.932,11.81,16.14,17.76,3,6
18617.578,-0.425,0.057,0.933,9.09,16.63,20.02,3,6
18617.593,-0.425,0.053,0.933,6.16,16.27,21.42,3,6
18617.593,-0.409,0.045,0.933,4.09,15.53,21.85,3,6
18617.609,-0.393,0.051,0.929,3.78,15.11,21.09,3,6
18617.625,-0.397,0.065,0.927,4.58,14.92,20.33,3,6
18617.625,-0.393,0.078,0.928,5.34,14.04,20.23,3,6
18617.64,-0.404,0.097,0.919,6.04,13.37,20.78,3,6
18617.64,-0.402,0.108,0.907,5.49,13.06,22.52,3,6
18617.656,-0.389,0.114,0.896,3.78,14.04,25.48,3,6
18617.671,-0.393,0.114,0.891,1.89,16.45,28.26,3,6
18617.671,-0.4,0.095,0.904,0.49,18.13,30.27,3,6
18617.687,-0.4,0.073,0.922,0.43,18.49,31.07,3,6
18617.703,-0.401,0.06,0.942,1.34,17.67,29.91,3,6
18617.703,-0.401,0.054,0.959,3.3,15.26,26.8,3,6
18617.718,-0.395,0.058,0.969,6.1,11.41,22.71,3,6
18617.734,-0.393,0.072,0.967,9.89,7.29,17.85,3,6
18617.734,-0.404,0.104,0.95,13.55,4.12,14.65,3,6
18617.75,-0.4,0.138,0.939,15.05,1.83,13.49,3,6
18617.765,-0.412,0.168,0.919,14.56,1.34,14.53,3,6
18617.765,-0.409,0.17,0.911,11.9,0.89,17.98,3,6
18617.781,-0.396,0.164,0.906,10.35,0.67,21.49,3,6
18617.781,-0.395,0.142,0.885,10.07,1.83,23.74,3,6
18617.796,-0.388,0.13,0.882,8.58,3.57,24.2,3,6
18617.812,-0.4,0.125,0.896,8.12,5.55,21.94,3,6
18617.812,-0.419,0.123,0.911,9.98,6.04,18.1,3,6
18617.828,-0.436,0.141,0.927,13.89,4.64,14.44,3,6
18617.843,-0.456,0.17,0.935,17.58,1.98,11.63,3,6
18617.843,-0.463,0.198,0.922,19.96,-1.56,9.8,3,6
18617.859,-0.447,0.229,0.9,20.87,-5.43,9.43,3,6
18617.875,-0.402,0.256,0.875,21.55,-8.36,10.01,3,6
18617.875,-0.376,0.281,0.845,21.55,-8.21,11.32,3,6
18617.89,-0.372,0.291,0.837,22.46,-5.07,14.53,3,6
18617.89,-0.395,0.304,0.827,25.18,-0.73,19.84,3,6
18617.906,-0.422,0.335,0.808,26.18,4.61,26.61,3,6
18617.921,-0.466,0.381,0.806,22.4,11.23,35.43,3,6
18617.921,-0.5,0.385,0.837,15.78,17.24,45.29,3,6
18617.937,-0.478,0.092,1.025,11.87,22.19,50.97,3,6
18617.953,-0.433,-0.188,1.117,19.23,20.45,39.89,3,6
18617.953,-0.508,0.107,0.942,20.45,5.55,26.25,3,6
18617.968,-0.456,0.064,0.924,3.85,-3.48,14.31,3,6
18617.968,-0.522,-0.015,0.939,-6.1,-2.2,6.96,3,6
18617.984,-0.512,-0.091,0.918,-1.37,-2.5,7.6,3,6
18618.0,-0.492,-0.146,0.905,9.03,0.34,5.43,3,6
18618.0,-0.481,-0.143,0.926,14.98,1.83,-2.23,3,6
18618.015,-0.511,-0.112,0.946,16.39,0.89,-12.24,3,6
18618.031,-0.517,-0.119,0.964,15.2,-2.17,-19.5,3,6
18618.031,-0.482,-0.107,0.962,15.99,-5.68,-24.93,3,6
18618.046,-0.45,-0.02,0.931,17.58,-8.24,-29.57,3,6
18618.062,-0.427,0.088,0.925,11.69,-10.22,-34.42,3,6
18618.078,-0.424,0.183,0.919,6.13,-10.25,-30.24,3,6
18618.078,-0.43,0.303,0.883,-2.17,-9.46,-21.06,3,6
18618.093,-0.432,0.363,0.853,-8.06,-7.84,-10.74,3,6
18618.093,-0.344,0.339,0.83,-8.51,-5.25,-1.59,3,6
18618.109,-0.315,0.335,0.826,-7.05,-1.1,4.55,3,6
18618.125,-0.323,0.332,0.852,-6.71,2.99,7.93,3,6
18618.125,-0.348,0.309,0.868,-6.81,4.52,9.89,3,6
18618.14,-0.356,0.296,0.89,-7.72,4.12,10.71,3,6
18618.14,-0.377,0.276,0.895,-7.72,2.5,8.97,3,6
18618.156,-0.372,0.268,0.884,-7.72,-0.43,6.96,3,6
18618.171,-0.355,0.257,0.871,-6.29,-1.95,5.04,3,6
18618.171,-0.351,0.256,0.862,-3.42,-1.5,2.96,3,6
18618.187,-0.378,0.26,0.875,-0.49,0.15,2.11,3,6
18618.203,-0.396,0.254,0.879,0.06,0.61,3.05,3,6
18618.218,-0.404,0.239,0.889,-1.25,0.46,5.19,3,6
18618.218,-0.438,0.213,0.889,-2.17,1.01,7.48,3,6
18618.234,-0.474,0.188,0.893,-2.99,1.98,9.58,3,6
18618.234,-0.501,0.145,0.9,-2.9,2.04,9.95,3,6
18618.25,-0.511,0.113,0.892,-2.47,0.12,9.09,3,6
18618.25,-0.503,0.087,0.872,-2.17,-2.11,5.74,3,6
18618.265,-0.49,0.06,0.858,-0.52,-3.11,0.27,3,6
18618.281,-0.48,0.092,0.843,2.53,-2.66,-5.4,3,6
18618.281,-0.488,0.148,0.859,4.21,-1.16,-9.46,3,6
18618.296,-0.498,0.18,0.873,4.0,-1.31,-11.35,3,6
18618.312,-0.481,0.216,0.872,3.08,-2.93,-9.67,3,6
18618.312,-0.46,0.247,0.867,1.4,-4.58,-6.99,3,6
18618.328,-0.436,0.259,0.86,-0.76,-6.07,-4.43,3,6
18618.343,-0.414,0.25,0.854,-2.41,-6.71,-1.71,3,6
18618.359,-0.4,0.232,0.839,-3.05,-6.5,-0.27,3,6
18618.359,-0.398,0.216,0.837,-2.59,-5.31,-1.13,3,6
18618.359,-0.405,0.188,0.854,-0.12,-4.36,-3.33,3,6
18618.375,-0.401,0.184,0.859,3.17,-4.91,-6.44,3,6
18618.39,-0.389,0.213,0.85,5.34,-5.01,-9.74,3,6
18618.39,-0.384,0.239,0.843,5.43,-2.99,-11.02,3,6
18618.406,-0.378,0.236,0.85,4.61,-0.7,-10.77,3,6
18618.421,-0.382,0.25,0.884,4.94,1.01,-10.04,3,6
18618.421,-0.407,0.285,0.905,5.62,1.37,-8.58,3,6
18618.437,-0.408,0.291,0.912,3.14,-1.4,-4.97,3,6
18618.453,-0.38,0.252,0.9,-0.4,-4.85,-3.23,3,6
18618.453,-0.37,0.205,0.889,-0.64,-6.35,-4.55,3,6
18618.468,-0.385,0.198,0.879,2.53,-6.04,-6.07,3,6
18618.484,-0.396,0.211,0.868,4.03,-5.16,-6.35,3,6
18618.484,-0.405,0.184,0.871,3.11,-4.39,-6.93,3,6
18618.5,-0.418,0.164,0.856,3.54,-3.54,-8.15,3,6
18618.515,-0.426,0.196,0.848,3.6,-1.43,-7.93,3,6
18618.515,-0.432,0.196,0.856,1.37,1.25,-6.1,3,6
18618.531,-0.424,0.183,0.879,-0.46,2.75,-4.64,3,6
18618.531,-0.44,0.197,0.906,0.89,3.51,-4.55,3,6
18618.546,-0.465,0.212,0.912,2.08,2.38,-3.3,3,6
18618.562,-0.441,0.208,0.906,0.21,-0.49,-1.59,3,6
18618.578,-0.428,0.195,0.894,-1.22,-2.41,-1.8,3,6
18618.578,-0.442,0.188,0.884,-0.61,-2.75,-2.66,3,6
18618.593,-0.448,0.193,0.879,-0.24,-3.05,-2.9,3,6
18618.593,-0.44,0.202,0.875,-1.28,-3.3,-3.51,3,6
18618.609,-0.442,0.198,0.871,-2.26,-3.17,-4.7,3,6
18618.625,-0.443,0.2,0.877,-1.16,-3.45,-5.89,3,6
18618.625,-0.444,0.221,0.874,0.89,-4.15,-6.68,3,6
18618.64,-0.449,0.243,0.87,1.04,-4.55,-6.2,3,6
18618.656,-0.439,0.234,0.864,-0.67,-5.28,-5.19,3,6
18618.656,-0.413,0.22,0.862,-1.4,-5.55,-4.64,3,6
18618.671,-0.406,0.223,0.854,1.22,-4.58,-4.21,3,6
18618.671,-0.399,0.237,0.85,3.08,-3.39,-3.14,3,6
18618.687,-0.404,0.232,0.874,3.63,-1.89,-2.69,3,6
18618.703,-0.422,0.225,0.884,4.3,-1.95,-2.14,3,6
18618.703,-0.412,0.218,0.886,4.49,-3.42,-1.28,3,6
18618.718,-0.397,0.204,0.887,4.39,-4.67,-1.43,3,6
18618.734,-0.392,0.196,0.877,4.18,-5.58,-2.17,3,6
18618.734,-0.391,0.197,0.875,3.85,-5.8,-3.02,3,6
