timestamp,ax,ay,az,gx,gy,gz,orient_label,motion_label
18589.14,-0.077,-0.968,0.176,11.72,4.73,-5.8,3,6
18589.14,-0.063,-0.945,0.172,12.51,9.22,-5.98,3,6
18589.156,-0.055,-0.936,0.196,10.74,14.19,-4.12,3,6
18589.171,-0.061,-0.939,0.238,7.75,18.56,-0.49,3,6
18589.171,-0.071,-0.947,0.274,4.24,20.87,3.27,3,6
18589.187,-0.071,-0.97,0.311,1.43,20.78,5.28,3,6
18589.203,-0.07,-0.997,0.34,1.83,19.1,4.61,3,6
18589.203,-0.07,-1.007,0.36,5.01,16.02,1.59,3,6
18589.218,-0.062,-1.008,0.38,9.49,11.84,-3.33,3,6
18589.234,-0.062,-1.013,0.378,14.62,7.35,-9.13,3,6
18589.234,-0.089,-1.007,0.35,18.56,3.02,-13.73,3,6
18589.25,-0.099,-0.994,0.331,20.84,-1.5,-16.14,3,6
18589.25,-0.089,-0.972,0.311,20.51,-5.52,-17.79,3,6
18589.265,-0.077,-0.958,0.292,18.28,-8.36,-19.38,3,6
18589.281,-0.061,-0.967,0.263,17.55,-9.0,-19.9,3,6
18589.281,-0.046,-0.954,0.252,18.07,-7.32,-18.49,3,6
18589.296,-0.044,-0.935,0.247,17.94,-4.06,-16.85,3,6
18589.312,-0.062,-0.933,0.234,16.3,-1.07,-15.72,3,6
18589.312,-0.07,-0.944,0.227,13.58,0.43,-13.82,3,6
18589.328,-0.057,-0.951,0.212,11.96,1.95,-11.11,3,6
18589.343,-0.037,-0.941,0.207,11.26,5.07,-8.36,3,6
18589.343,-0.023,-0.926,0.215,9.89,9.58,-4.49,3,6
18589.359,0.005,-0.921,0.24,6.71,14.04,0.31,3,6
18589.359,0.021,-0.924,0.279,2.93,18.92,4.7,3,6
18589.375,0.021,-0.948,0.323,-0.4,23.13,8.76,3,6
18589.39,0.015,-0.967,0.371,-3.51,24.99,11.93,3,6
18589.39,0.013,-0.985,0.413,-5.1,23.41,12.45,3,6
18589.406,0.007,-1.009,0.441,-4.67,19.23,9.92,3,6
18589.421,-0.004,-1.023,0.456,-2.26,13.03,4.52,3,6
18589.437,-0.018,-1.029,0.47,2.66,5.49,-3.78,3,6
18589.437,-0.026,-1.035,0.472,10.59,-3.39,-14.5,3,6
18589.453,-0.011,-1.021,0.453,20.69,-12.15,-26.89,3,6
18589.453,-0.017,-0.988,0.447,31.59,-19.38,-40.59,3,6
18589.468,-0.022,-0.956,0.425,43.28,-25.85,-54.48,3,6
18589.468,-0.0,-0.891,0.426,55.33,-31.28,-67.05,3,6
18589.484,0.045,-0.829,0.431,69.49,-34.52,-78.22,3,6
18589.5,0.09,-0.759,0.461,85.76,-34.03,-89.6,3,6
18589.515,0.102,-0.675,0.542,134.68,-29.76,-113.83,3,6
18589.515,0.04,-0.591,0.68,167.55,-37.29,-124.18,3,6
18589.531,-0.079,-0.521,0.826,198.58,-58.44,-131.05,3,6
18589.546,-0.222,-0.438,0.956,224.25,-94.45,-135.41,3,6
18589.546,-0.391,-0.214,0.933,239.3,-142.31,-137.27,3,6
18589.562,-0.347,-0.087,0.805,238.65,-189.55,-137.09,3,6
18589.562,-0.229,-0.047,0.666,231.3,-226.87,-138.86,3,6
18589.578,-0.094,-0.034,0.54,224.68,-246.5,-142.4,3,6
18589.593,-0.007,-0.028,0.406,224.1,-247.23,-146.67,3,6
18589.593,0.051,-0.044,0.3,228.68,-234.05,-149.48,3,6
18589.609,0.085,-0.071,0.226,239.2,-211.07,-149.78,3,6
18589.625,0.103,-0.087,0.152,257.15,-182.23,-146.76,3,6
18589.625,0.122,-0.079,0.089,277.78,-150.46,-140.81,3,6
18589.656,0.129,-0.045,0.002,306.01,-87.01,-131.17,3,6
18589.656,0.14,-0.049,-0.027,307.26,-57.44,-127.38,3,6
18589.671,0.161,-0.062,-0.056,302.53,-27.5,-124.55,3,6
18589.687,0.191,-0.066,-0.074,293.92,3.81,-123.02,3,6
18589.687,0.204,-0.079,-0.054,282.88,37.32,-120.52,3,6
18589.703,0.212,-0.101,-0.019,270.0,71.23,-114.51,3,6
18589.703,0.249,-0.1,-0.013,257.27,102.05,-108.1,3,6
18589.718,0.276,-0.046,-0.022,243.57,132.45,-107.91,3,6
18589.718,0.221,-0.072,0.03,224.22,166.81,-105.29,3,6
18589.734,0.114,-0.072,0.166,207.04,200.11,-98.03,3,6
18589.75,-0.05,-0.14,0.285,197.36,206.67,-77.79,3,6
18589.75,0.029,-0.119,0.398,194.86,203.5,-50.05,3,6
18589.765,0.053,0.002,0.474,196.26,211.4,-32.29,3,6
18589.781,-0.057,0.029,0.511,178.62,199.8,-25.36,3,6
18589.781,-0.043,0.029,0.58,133.82,157.9,-26.18,3,6
18589.796,0.092,0.032,0.706,84.11,123.11,-31.83,3,6
18589.812,0.16,-0.005,0.784,46.54,108.83,-40.96,3,6
18589.812,0.179,-0.053,0.848,21.49,97.45,-50.63,3,6
18589.828,0.248,-0.123,0.99,14.65,89.6,-56.76,3,6
18589.843,0.315,-0.189,1.165,32.75,98.85,-59.54,3,6
18589.843,0.383,-0.113,1.364,69.43,121.01,-62.87,3,6
18589.859,0.355,0.046,1.525,112.86,139.13,-74.25,3,6
18589.875,0.257,0.138,1.642,147.68,146.82,-87.89,3,6
18589.875,0.148,0.221,1.738,165.35,140.45,-97.81,3,6
18589.89,0.086,0.318,1.807,169.16,122.07,-102.36,3,6
18589.906,0.057,0.399,1.847,163.82,97.35,-102.24,3,6
18589.906,0.095,0.475,1.9,151.71,73.95,-96.71,3,6
18589.921,0.176,0.537,1.931,135.11,58.78,-86.86,3,6
18589.921,0.16,0.574,1.955,117.04,47.82,-78.95,3,6
18589.937,0.2,0.594,1.936,101.35,37.02,-66.62,3,6
18589.953,0.188,0.675,1.858,82.58,19.53,-63.17,3,6
18589.953,0.185,0.641,1.777,55.3,3.51,-53.9,3,6
18589.984,0.244,0.507,1.623,0.85,-12.45,-27.83,3,6
18589.984,0.248,0.411,1.55,-9.89,-10.93,-15.17,3,6
18590.0,0.253,0.329,1.485,-11.9,-10.74,-6.13,3,6
18590.0,0.281,0.276,1.461,-12.24,-11.72,-4.18,3,6
18590.015,0.312,0.244,1.481,-9.37,-10.38,-8.55,3,6
18590.031,0.286,0.23,1.494,0.21,-8.97,-15.84,3,6
18590.031,0.226,0.249,1.497,14.1,-12.57,-22.77,3,6
18590.046,0.191,0.293,1.49,28.2,-20.75,-25.33,3,6
18590.062,0.198,0.347,1.418,37.87,-29.39,-23.1,3,6
18590.078,0.179,0.397,1.331,35.16,-36.84,-19.71,3,6
18590.078,0.226,0.437,1.266,15.59,-44.13,-14.62,3,6
18590.093,0.258,0.409,1.168,-3.11,-44.62,-8.12,3,6
18590.093,0.27,0.368,1.091,-20.11,-40.93,-3.63,3,6
18590.109,0.251,0.371,1.076,-38.3,-35.77,-1.77,3,6
18590.125,0.236,0.294,1.09,-46.72,-26.09,5.83,3,6
18590.125,0.22,0.244,1.088,-42.09,-17.37,11.54,3,6
18590.14,0.14,0.28,1.103,-27.25,-10.77,12.09,3,6
18590.156,0.109,0.313,1.103,-27.16,-14.31,11.14,3,6
18590.171,0.099,0.324,1.092,-30.61,-19.17,11.23,3,6
18590.171,0.106,0.335,1.059,-33.6,-23.44,12.12,3,6
18590.187,0.129,0.334,1.042,-33.45,-23.87,14.77,3,6
18590.203,0.016,0.387,1.282,-30.15,-21.3,20.48,3,6
18590.203,-0.214,0.498,1.581,-14.07,-41.29,37.17,3,6
18590.218,0.223,0.467,1.439,2.11,-78.59,70.77,3,6
18590.218,0.345,0.496,1.18,-9.8,-88.87,74.86,3,6
18590.234,0.333,0.396,1.027,-29.82,-79.26,70.31,3,6
18590.25,0.367,0.298,0.987,-41.54,-65.28,71.63,3,6
18590.25,0.317,0.226,1.033,-39.49,-49.62,69.4,3,6
18590.265,0.239,0.199,1.072,-28.84,-39.83,64.94,3,6
18590.281,0.233,0.221,1.063,-19.75,-38.39,60.0,3,6
18590.281,0.255,0.235,1.036,-15.69,-37.54,53.99,3,6
18590.296,0.265,0.229,1.013,-14.77,-33.78,48.37,3,6
18590.312,0.249,0.181,1.022,-5.49,-22.06,47.43,3,6
18590.328,0.244,0.214,1.048,2.23,-16.05,52.16,3,6
18590.328,0.246,0.264,1.057,6.47,-11.75,56.37,3,6
18590.343,0.261,0.269,1.055,5.34,-8.73,57.74,3,6
18590.359,0.249,0.272,1.071,-1.22,-5.28,55.79,3,6
18590.359,0.22,0.25,1.07,-4.76,-4.36,52.0,3,6
18590.375,0.214,0.23,1.052,-7.05,-6.1,49.65,3,6
18590.39,0.216,0.211,0.995,-5.31,-7.63,47.09,3,6
18590.39,0.192,0.195,0.866,-3.51,-6.68,45.47,3,6
18590.406,0.177,0.269,0.832,-6.13,-0.12,45.81,3,6
18590.421,0.137,0.328,0.86,0.89,7.87,45.99,3,6
18590.421,0.118,0.301,0.872,4.24,10.68,42.54,3,6
18590.437,0.117,0.26,0.895,1.22,9.67,34.94,3,6
18590.453,0.138,0.219,0.931,1.8,7.97,25.67,3,6
18590.453,0.142,0.243,0.972,8.45,5.95,15.93,3,6
18590.468,0.155,0.269,0.961,11.35,1.74,10.38,3,6
18590.484,0.15,0.234,1.012,-12.42,-16.3,4.76,3,6
18590.5,0.169,0.19,0.981,-20.14,-21.58,3.45,3,6
18590.5,0.204,0.171,0.962,-23.56,-23.96,1.16,3,6
18590.515,0.228,0.144,0.971,-22.25,-25.45,-1.22,3,6
18590.531,0.251,0.122,0.947,-21.94,-27.28,-5.22,3,6
18590.546,0.257,0.135,0.935,-22.43,-28.66,-10.44,3,6
18590.546,0.264,0.156,0.938,-22.46,-29.85,-14.89,3,6
18590.562,0.274,0.163,0.925,-19.84,-30.82,-18.22,3,6
18590.562,0.302,0.192,0.897,-15.66,-30.27,-19.99,3,6
18590.578,0.326,0.231,0.881,-10.96,-26.09,-19.5,3,6
18590.578,0.337,0.271,0.883,-6.29,-19.5,-16.39,3,6
18590.593,0.339,0.31,0.897,-6.04,-13.7,-10.96,3,6
18590.609,0.339,0.308,0.924,-8.03,-10.65,-5.31,3,6
18590.609,0.334,0.281,0.934,-8.64,-9.64,0.0,3,6
18590.625,0.34,0.257,0.93,-6.59,-9.7,4.27,3,6
18590.64,0.354,0.228,0.906,-3.48,-9.7,6.62,3,6
18590.64,0.37,0.215,0.907,-1.8,-8.45,7.11,3,6
18590.656,0.374,0.191,0.931,-0.55,-7.39,5.37,3,6
18590.671,0.373,0.181,0.937,-0.06,-8.39,3.08,3,6
18590.671,0.395,0.175,0.914,-2.38,-10.01,0.52,3,6
18590.687,0.408,0.148,0.898,-3.81,-8.97,-2.41,3,6
18590.703,0.39,0.134,0.897,-1.25,-5.31,-5.1,3,6
18590.703,0.37,0.141,0.905,2.72,-1.92,-7.87,3,6
18590.718,0.353,0.167,0.928,5.19,0.31,-11.29,3,6
18590.718,0.323,0.202,0.937,7.23,1.53,-13.67,3,6
18590.734,0.297,0.234,0.943,7.39,2.14,-13.98,3,6
18590.75,0.249,0.273,0.979,6.01,1.4,-12.51,3,6
18590.75,0.226,0.285,0.944,4.7,-2.93,-7.45,3,6
18590.765,0.233,0.284,0.91,-1.01,-6.44,-2.5,3,6
18590.781,0.221,0.267,0.956,-7.97,-8.15,2.04,3,6
18590.781,0.237,0.259,0.984,-13.58,-13.86,8.0,3,6
18590.796,0.255,0.211,0.927,-20.14,-23.59,12.85,3,6
18590.812,0.37,0.147,0.895,-27.53,-30.46,12.24,3,6
18590.828,0.482,0.094,0.981,-19.84,-19.62,-1.37,3,6
18590.843,0.449,0.029,0.979,-8.12,-13.21,-9.46,3,6
18590.843,0.438,0.039,0.956,6.74,-7.17,-15.69,3,6
18590.859,0.397,0.168,0.916,21.39,2.44,-15.72,3,6
18590.875,0.289,0.21,0.885,24.02,11.32,-15.53,3,6
18590.875,0.177,0.237,0.874,20.48,15.11,-12.27,3,6
18590.89,0.103,0.244,0.889,18.4,13.61,-7.26,3,6
18590.89,0.065,0.229,0.895,15.75,6.68,-3.2,3,6
18590.906,0.139,0.259,0.921,4.82,-6.84,3.63,3,6
18590.921,0.297,0.178,0.867,-1.74,-17.4,10.32,3,6
18590.921,0.322,0.173,0.911,1.62,-16.42,13.18,3,6
18590.937,0.392,0.274,1.021,13.82,-14.13,21.12,3,6
18590.953,0.454,0.266,1.025,12.88,-16.45,27.22,3,6
18590.953,0.444,0.108,0.919,6.47,-15.56,17.61,3,6
18590.968,0.449,0.086,0.785,12.85,-8.0,5.46,3,6
18590.968,0.489,0.131,0.74,12.73,4.7,-4.55,3,6
18591.0,0.423,0.119,0.87,15.78,32.17,-18.25,3,6
18591.015,0.404,0.188,0.933,20.78,38.51,-19.56,3,6
18591.015,0.334,0.248,0.947,24.51,40.13,-20.66,3,6
18591.031,0.26,0.311,0.973,23.53,37.42,-18.65,3,6
18591.031,0.172,0.357,1.022,19.17,30.06,-14.07,3,6
18591.046,0.07,0.394,1.146,14.34,13.46,-5.77,3,6
18591.062,0.182,0.314,1.02,10.9,-11.08,3.6,3,6
18591.062,0.238,0.322,0.85,-1.83,-20.39,3.54,3,6
18591.078,0.23,0.335,0.838,-10.47,-18.37,7.26,3,6
18591.093,0.259,0.272,0.851,-13.37,-17.43,16.42,3,6
18591.093,0.282,0.25,0.869,-15.66,-15.44,24.17,3,6
18591.109,0.315,0.223,0.908,-15.84,-12.76,28.87,3,6
18591.109,0.331,0.177,0.938,-14.01,-11.02,30.18,3,6
18591.125,0.351,0.149,0.953,-11.08,-10.47,29.21,3,6
18591.14,0.365,0.137,0.952,-6.62,-10.25,26.28,3,6
18591.14,0.356,0.135,0.944,-1.86,-9.13,22.16,3,6
18591.156,0.351,0.154,0.932,1.83,-8.06,18.31,3,6
18591.171,0.346,0.185,0.927,3.66,-7.05,15.56,3,6
18591.171,0.33,0.207,0.936,4.46,-6.26,13.55,3,6
18591.187,0.319,0.226,0.929,5.13,-6.71,12.67,3,6
18591.187,0.314,0.25,0.901,3.72,-7.2,13.21,3,6
18591.203,0.319,0.242,0.896,0.67,-7.05,14.83,3,6
18591.218,0.322,0.257,0.922,-0.27,-6.62,17.58,3,6
18591.218,0.306,0.227,0.928,-2.29,-6.81,19.01,3,6
18591.234,0.319,0.201,0.936,-3.14,-9.31,20.69,3,6
18591.25,0.335,0.209,0.925,-1.53,-10.56,22.19,3,6
18591.25,0.345,0.196,0.886,1.16,-9.95,23.47,3,6
18591.265,0.381,0.204,0.864,-0.98,-7.54,23.87,3,6
18591.281,0.397,0.134,0.875,-6.01,-3.42,20.72,3,6
18591.281,0.399,0.075,0.907,-6.78,1.28,15.05,3,6
18591.296,0.391,0.083,0.95,-2.93,4.03,8.15,3,6
18591.312,0.369,0.118,0.962,2.04,3.91,1.95,3,6
18591.312,0.354,0.152,0.942,5.34,2.32,-1.71,3,6
18591.328,0.358,0.188,0.91,6.62,1.22,-3.17,3,6
18591.328,0.365,0.211,0.889,6.74,1.92,-3.69,3,6
18591.343,0.365,0.219,0.89,5.86,3.88,-3.72,3,6
18591.359,0.36,0.217,0.891,4.94,6.04,-3.57,3,6
18591.359,0.355,0.211,0.895,3.51,7.84,-4.0,3,6
18591.375,0.345,0.218,0.928,1.92,8.97,-5.07,3,6
18591.39,0.323,0.221,0.939,1.34,8.27,-6.04,3,6
18591.39,0.306,0.229,0.935,0.21,5.95,-5.8,3,6
18591.406,0.301,0.228,0.921,-1.71,3.72,-4.36,3,6
18591.421,0.311,0.224,0.907,-3.85,2.47,-2.35,3,6
18591.421,0.327,0.207,0.932,-4.88,2.2,-0.82,3,6
18591.437,0.342,0.195,0.954,-2.59,1.71,0.55,3,6
18591.453,0.346,0.206,0.939,-0.27,1.28,1.4,3,6
18591.453,0.328,0.172,0.926,-0.49,0.58,0.12,3,6
18591.468,0.336,0.189,0.921,-0.85,-0.03,0.34,3,6
18591.468,0.331,0.176,0.943,-2.08,-2.69,-2.17,3,6
18591.484,0.324,0.206,0.956,-3.51,-5.86,-1.65,3,6
18591.5,0.34,0.244,0.892,-7.69,-11.05,3.85,3,6
18591.515,0.336,0.231,0.889,-10.04,-10.38,5.92,3,6
18591.531,0.34,0.223,0.906,-10.62,-9.13,9.31,3,6
18591.531,0.335,0.193,0.905,-10.01,-8.12,11.29,3,6
18591.546,0.34,0.171,0.894,-9.83,-6.68,12.39,3,6
18591.562,0.325,0.175,0.908,-10.68,-4.55,12.02,3,6
18591.562,0.314,0.189,0.921,-10.71,-4.03,12.18,3,6
18591.578,0.323,0.177,0.938,-10.8,-4.76,12.76,3,6
18591.578,0.322,0.174,0.968,-11.38,-6.23,13.0,3,6
18591.593,0.352,0.189,0.933,-11.44,-8.76,13.55,3,6
18591.609,0.371,0.173,0.924,-12.51,-9.46,13.06,3,6
18591.625,0.387,0.14,0.935,-12.91,-10.44,11.93,3,6
18591.64,0.368,0.142,0.952,-11.38,-11.29,9.61,3,6
18591.64,0.382,0.125,0.913,-8.73,-12.7,9.4,3,6
18591.64,0.392,0.133,0.884,-8.67,-11.05,6.9,3,6
18591.656,0.397,0.12,0.886,-6.9,-7.29,4.85,3,6
18591.671,0.402,0.124,0.899,2.87,2.44,2.35,3,6
18591.687,0.378,0.116,0.92,5.83,5.74,-0.09,3,6
18591.687,0.35,0.143,0.921,8.64,7.6,-2.41,3,6
18591.703,0.327,0.166,0.899,10.07,9.77,-4.12,3,6
18591.718,0.302,0.194,0.892,8.91,12.7,-4.73,3,6
18591.734,0.294,0.188,0.89,7.14,15.38,-4.58,3,6
18591.734,0.307,0.171,0.91,3.3,14.56,-4.88,3,6
18591.75,0.3,0.159,0.935,-0.21,10.5,-5.89,3,6
18591.75,0.366,0.113,0.889,-2.08,7.45,-6.53,3,6
18591.765,0.33,0.117,0.984,-2.96,6.35,-10.9,3,6
18591.781,0.241,0.144,1.09,4.09,-0.27,-10.16,3,6
18591.781,0.207,0.187,1.08,9.06,-14.19,-3.33,3,6
18591.796,0.347,0.228,1.018,7.02,-28.38,2.9,3,6
18591.812,0.442,0.227,0.892,5.89,-32.62,3.11,3,6
18591.812,0.399,0.215,0.844,3.33,-27.53,-1.04,3,6
18591.828,0.388,0.219,0.86,1.53,-22.55,0.03,3,6
18591.843,0.416,0.199,0.824,-0.27,-15.63,7.05,3,6
18591.859,0.431,0.187,0.859,-1.07,-8.94,10.41,3,6
18591.875,0.422,0.151,0.889,0.24,-3.66,10.99,3,6
18591.875,0.401,0.152,0.88,1.16,-1.04,9.19,3,6
18591.89,0.382,0.154,0.896,-0.46,0.55,5.98,3,6
18591.89,0.378,0.133,0.929,-4.21,0.34,1.86,3,6
18591.906,0.403,0.119,0.914,-5.22,-0.24,-1.95,3,6
18591.921,0.431,0.12,0.864,-3.66,2.69,-5.92,3,6
18591.921,0.435,0.106,0.865,-0.7,9.03,-9.19,3,6
18591.937,0.386,0.11,0.951,3.45,14.56,-11.99,3,6
18591.937,0.36,0.085,1.025,11.75,12.94,-12.91,3,6
18591.953,0.349,0.132,0.969,15.81,7.72,-16.66,3,6
18591.968,0.345,0.177,0.902,16.33,5.65,-19.96,3,6
18591.984,0.343,0.22,0.888,13.98,7.02,-20.33,3,6
18591.984,0.295,0.241,0.909,12.97,8.58,-16.66,3,6
18592.0,0.302,0.253,0.897,11.81,7.32,-9.4,3,6
18592.015,0.335,0.225,0.892,4.33,6.41,-1.16,3,6
18592.031,0.345,0.2,0.911,1.65,6.01,-0.73,3,6
18592.031,0.35,0.185,0.916,0.49,5.58,-0.95,3,6
18592.046,0.367,0.177,0.914,-0.31,5.34,-1.5,3,6
18592.062,0.38,0.169,0.915,-0.73,5.62,-3.54,3,6
18592.062,0.384,0.155,0.918,-0.12,6.84,-6.56,3,6
18592.078,0.385,0.145,0.922,1.71,8.48,-9.92,3,6
18592.093,0.373,0.148,0.931,4.64,10.19,-13.25,3,6
18592.093,0.347,0.162,0.962,8.88,11.35,-15.53,3,6
18592.109,0.313,0.185,0.969,12.85,9.58,-16.33,3,6
18592.109,0.304,0.216,0.936,14.4,6.44,-15.56,3,6
18592.125,0.304,0.252,0.912,13.0,4.27,-14.68,3,6
18592.14,0.301,0.285,0.912,10.25,2.93,-12.48,3,6
18592.14,0.293,0.301,0.903,6.84,1.83,-7.57,3,6
18592.156,0.297,0.29,0.894,1.04,0.64,-1.19,3,6
18592.171,0.311,0.248,0.899,-4.58,-0.79,3.6,3,6
18592.171,0.326,0.198,0.905,-7.32,-1.65,5.62,3,6
18592.187,0.335,0.169,0.918,-7.42,-2.17,5.31,3,6
18592.203,0.338,0.163,0.926,-5.49,-2.69,3.48,3,6
18592.203,0.342,0.174,0.922,-2.75,-3.05,1.46,3,6
18592.218,0.343,0.191,0.916,-0.79,-3.05,-0.52,3,6
18592.234,0.344,0.21,0.919,-0.06,-2.78,-1.59,3,6
18592.234,0.353,0.222,0.916,0.24,-2.04,-1.83,3,6
18592.25,0.349,0.214,0.922,0.4,-1.34,-1.46,3,6
18592.25,0.344,0.194,0.924,1.16,-1.01,-0.92,3,6
18592.265,0.338,0.178,0.925,2.78,-0.58,-0.46,3,6
18592.281,0.325,0.169,0.926,4.67,-0.18,-0.64,3,6
18592.281,0.306,0.167,0.938,5.92,0.03,-0.98,3,6
18592.296,0.294,0.178,0.951,7.29,-0.64,-1.74,3,6
18592.312,0.277,0.221,0.97,7.11,-3.91,-2.2,3,6
18592.312,0.26,0.221,0.986,3.88,-11.02,-2.38,3,6
18592.328,0.253,0.111,1.093,0.12,-22.1,-4.7,3,6
18592.343,0.277,0.107,1.119,12.85,-36.35,-5.55,3,6
18592.343,0.374,0.177,0.933,23.68,-44.77,-2.08,3,6
18592.359,0.419,0.17,0.8,21.97,-42.12,-4.39,3,6
18592.375,0.449,0.17,0.78,20.57,-30.67,-6.62,3,6
18592.375,0.435,0.197,0.871,25.73,-16.79,-9.7,3,6
18592.39,0.373,0.257,0.944,39.86,-6.96,-8.79,3,6
18592.39,0.376,0.351,0.907,45.17,-7.26,-2.78,3,6
18592.406,0.377,0.329,0.875,41.14,-7.57,-0.03,3,6
18592.421,0.355,0.301,0.86,38.21,-6.68,1.31,3,6
18592.421,0.355,0.309,0.835,34.61,-6.87,2.59,3,6
18592.437,0.374,0.317,0.816,27.25,-6.68,4.39,3,6
18592.453,0.372,0.303,0.82,19.47,-5.89,5.07,3,6
18592.453,0.389,0.288,0.845,10.96,-2.87,7.05,3,6
18592.468,0.401,0.275,0.86,11.69,-1.98,5.8,3,6
18592.484,0.396,0.261,0.896,13.34,-2.96,4.24,3,6
18592.484,0.385,0.263,0.923,16.14,-5.37,2.35,3,6
18592.5,0.358,0.259,0.944,20.26,-8.88,0.58,3,6
18592.5,0.359,0.267,0.922,23.1,-12.94,-0.4,3,6
18592.515,0.369,0.257,0.896,24.54,-15.5,-1.43,3,6
18592.531,0.376,0.278,0.882,24.45,-16.24,-1.71,3,6
18592.531,0.387,0.297,0.853,24.02,-15.47,-1.56,3,6
18592.546,0.401,0.289,0.832,21.85,-12.91,-1.22,3,6
18592.562,0.417,0.292,0.823,18.71,-9.49,-1.25,3,6
18592.562,0.43,0.287,0.818,16.79,-5.49,-1.95,3,6
18592.578,0.426,0.286,0.809,15.26,-0.7,-3.17,3,6
18592.593,0.421,0.3,0.807,12.88,3.51,-4.79,3,6
18592.593,0.395,0.317,0.83,11.26,6.32,-6.71,3,6
18592.609,0.357,0.328,0.861,7.42,6.62,-7.78,3,6
18592.609,0.369,0.326,0.886,2.96,4.43,-6.99,3,6
18592.625,0.386,0.319,0.88,1.77,2.29,-7.2,3,6
18592.64,0.383,0.305,0.852,1.43,2.32,-7.6,3,6
18592.656,0.381,0.309,0.841,0.09,3.17,-6.99,3,6
18592.656,0.351,0.307,0.824,-1.34,4.7,-4.73,3,6
18592.671,0.387,0.326,0.869,-3.36,4.43,-0.85,3,6
18592.671,0.377,0.368,0.918,-4.88,1.37,-4.24,3,6
18592.687,0.376,0.285,0.897,-3.51,-0.82,-6.16,3,6
18592.703,0.346,0.281,0.891,-1.13,-2.47,-6.9,3,6
18592.703,0.386,0.303,0.847,-3.97,-5.13,-8.61,3,6
18592.718,0.384,0.279,0.836,-5.68,-3.72,-10.9,3,6
18592.734,0.382,0.283,0.849,-6.44,-2.59,-12.21,3,6
18592.734,0.378,0.299,0.862,-8.91,-2.78,-14.28,3,6
18592.75,0.381,0.29,0.868,-11.81,-4.12,-16.97,3,6
18592.75,0.391,0.274,0.874,-13.82,-5.8,-20.97,3,6
18592.765,0.392,0.272,0.876,-15.75,-6.68,-26.03,3,6
18592.781,0.394,0.272,0.878,-17.21,-7.02,-30.79,3,6
18592.781,0.404,0.276,0.886,-15.47,-7.05,-33.94,3,6
18592.796,0.392,0.286,0.885,-10.59,-6.26,-35.77,3,6
18592.812,0.375,0.304,0.874,-6.5,-5.46,-35.8,3,6
18592.812,0.361,0.318,0.863,-5.98,-5.19,-34.79,3,6
18592.828,0.361,0.328,0.862,-8.42,-4.7,-32.62,3,6
18592.828,0.359,0.315,0.86,-11.87,-4.21,-31.13,3,6
18592.843,0.36,0.304,0.86,-14.01,-4.06,-30.55,3,6
18592.859,0.363,0.316,0.854,-13.09,-2.87,-30.0,3,6
18592.859,0.356,0.338,0.845,-12.36,-1.28,-28.26,3,6
18592.875,0.36,0.35,0.863,-14.68,0.73,-25.94,3,6
18592.89,0.35,0.339,0.878,-15.96,2.66,-23.9,3,6
18592.89,0.347,0.327,0.888,-15.08,4.06,-21.33,3,6
18592.906,0.343,0.325,0.905,-13.0,4.79,-19.01,3,6
18592.921,0.326,0.308,0.929,-10.25,4.09,-17.43,3,6
18592.921,0.316,0.295,0.919,-6.04,2.23,-14.47,3,6
18592.937,0.322,0.302,0.889,-3.11,0.4,-11.75,3,6
18592.953,0.333,0.306,0.872,-3.57,-0.82,-10.07,3,6
18592.953,0.346,0.31,0.871,-4.91,-0.76,-9.13,3,6
18592.968,0.352,0.313,0.868,-5.8,-0.31,-8.61,3,6
18592.968,0.367,0.318,0.859,-7.63,0.37,-8.55,3,6
18592.984,0.372,0.3,0.853,-10.35,1.62,-9.86,3,6
18593.0,0.369,0.288,0.866,-11.54,3.85,-11.41,3,6
18593.0,0.362,0.286,0.895,-11.14,5.52,-11.99,3,6
18593.015,0.35,0.284,0.926,-7.29,6.38,-12.12,3,6
18593.031,0.333,0.288,0.93,-1.71,5.68,-10.44,3,6
18593.031,0.316,0.295,0.927,2.47,4.06,-8.91,3,6
18593.046,0.306,0.302,0.915,3.91,1.62,-7.66,3,6
18593.062,0.311,0.313,0.898,3.27,-0.85,-6.35,3,6
18593.062,0.321,0.323,0.874,2.59,-2.2,-4.94,3,6
18593.078,0.325,0.334,0.867,0.92,-2.47,-3.33,3,6
18593.078,0.329,0.349,0.868,-1.68,-2.04,-1.62,3,6
18593.093,0.318,0.35,0.862,-4.33,-1.53,-0.15,3,6
18593.109,0.329,0.319,0.883,-8.91,-4.73,1.86,3,6
18593.125,0.344,0.283,0.876,-7.97,-0.24,5.28,3,6
18593.125,0.342,0.296,0.898,-6.99,-0.12,5.46,3,6
18593.14,0.354,0.272,0.907,-5.71,0.4,5.49,3,6
18593.14,0.355,0.271,0.887,-3.94,-0.09,4.24,3,6
18593.156,0.359,0.274,0.892,-3.23,0.37,2.14,3,6
18593.171,0.352,0.281,0.902,-1.56,0.24,0.52,3,6
18593.171,0.344,0.297,0.908,0.27,0.21,-0.03,3,6
18593.187,0.333,0.306,0.897,1.31,-0.43,0.12,3,6
18593.203,0.333,0.299,0.894,0.85,-1.43,0.73,3,6
18593.218,0.337,0.291,0.903,2.38,-2.26,2.62,3,6
18593.218,0.333,0.295,0.894,3.11,-2.5,3.23,3,6
18593.234,0.333,0.303,0.896,2.01,-3.14,3.39,3,6
18593.25,0.327,0.305,0.913,1.22,-4.33,3.45,3,6
18593.25,0.331,0.296,0.912,2.29,-6.1,4.52,3,6
18593.265,0.338,0.29,0.895,4.15,-6.38,6.16,3,6
18593.281,0.335,0.296,0.9,5.95,-6.07,7.63,3,6
18593.281,0.328,0.31,0.882,7.57,-6.32,9.4,3,6
18593.296,0.337,0.312,0.876,6.13,-6.71,11.02,3,6
18593.312,0.333,0.304,0.884,4.49,-6.41,11.99,3,6
18593.312,0.347,0.313,0.887,3.91,-6.5,14.01,3,6
18593.328,0.349,0.308,0.892,3.97,-7.05,14.95,3,6
18593.343,0.346,0.3,0.876,4.43,-7.66,15.26,3,6
18593.343,0.362,0.305,0.853,3.05,-8.15,15.78,3,6
18593.359,0.387,0.295,0.84,0.67,-7.2,15.02,3,6
18593.359,0.402,0.278,0.837,-1.19,-5.01,12.54,3,6
18593.39,0.407,0.253,0.885,-2.08,0.76,5.4,3,6
18593.406,0.376,0.251,0.917,0.76,1.25,1.77,3,6
18593.406,0.355,0.261,0.899,3.57,-0.52,0.0,3,6
18593.421,0.357,0.284,0.88,4.43,-1.71,-0.46,3,6
18593.421,0.362,0.304,0.881,4.7,-1.19,-0.06,3,6
18593.437,0.354,0.314,0.882,4.61,-0.82,0.7,3,6
18593.453,0.358,0.316,0.871,1.68,-0.58,2.14,3,6
18593.453,0.361,0.305,0.862,-0.18,0.06,1.83,3,6
18593.468,0.365,0.294,0.865,-1.68,0.27,1.1,3,6
18593.468,0.377,0.283,0.873,-2.14,0.67,0.18,3,6
18593.484,0.379,0.285,0.875,-1.92,1.59,-0.79,3,6
18593.5,0.362,0.288,0.898,-1.43,1.92,-1.92,3,6
18593.5,0.342,0.292,0.903,-0.15,0.64,-2.11,3,6
18593.515,0.356,0.294,0.874,-0.79,-1.28,-2.01,3,6
18593.531,0.363,0.305,0.868,-2.5,-1.59,-2.41,3,6
18593.531,0.368,0.303,0.881,-2.75,-0.95,-2.23,3,6
18593.562,0.36,0.292,0.88,-1.25,-0.76,-1.62,3,6
18593.562,0.362,0.288,0.872,-1.71,-1.01,-1.62,3,6
18593.578,0.365,0.284,0.881,-2.59,-0.98,-2.2,3,6
18593.593,0.366,0.283,0.881,-2.41,-0.89,-2.62,3,6
18593.593,0.37,0.288,0.878,-2.44,-0.67,-3.27,3,6
18593.609,0.372,0.281,0.875,-2.75,-0.37,-4.18,3,6
18593.609,0.377,0.275,0.865,-3.63,0.49,-5.89,3,6
18593.625,0.366,0.273,0.888,-4.52,1.4,-7.78,3,6
18593.64,0.36,0.279,0.901,-2.72,1.59,-8.39,3,6
18593.64,0.352,0.299,0.901,-1.16,1.22,-8.21,3,6
18593.656,0.337,0.301,0.896,-0.27,0.61,-7.39,3,6
18593.671,0.34,0.302,0.884,-0.67,-0.34,-5.83,3,6
18593.671,0.345,0.31,0.887,-1.16,-0.49,-4.24,3,6
18593.687,0.342,0.309,0.89,-1.22,-0.34,-2.59,3,6
18593.703,0.35,0.305,0.887,-1.5,-0.61,-1.31,3,6
18593.703,0.349,0.293,0.884,-1.53,-0.85,-0.55,3,6
18593.718,0.353,0.291,0.885,-1.07,-1.01,0.06,3,6
18593.718,0.356,0.289,0.88,-0.67,-0.92,0.46,3,6
18593.734,0.363,0.286,0.888,-0.76,-0.61,0.31,3,6
18593.75,0.365,0.283,0.887,-0.27,-0.31,-0.06,3,6
18593.75,0.367,0.28,0.886,0.34,0.03,-0.49,3,6
18593.765,0.36,0.283,0.889,0.76,0.55,-1.04,3,6
18593.781,0.349,0.289,0.895,0.95,0.24,-1.59,3,6
18593.781,0.349,0.3,0.891,1.19,-0.61,-1.28,3,6
18593.796,0.346,0.304,0.883,1.19,-1.1,-0.43,3,6
18593.812,0.348,0.301,0.876,0.49,-1.25,0.7,3,6
18593.812,0.357,0.296,0.877,-0.4,-0.92,1.43,3,6
18593.828,0.363,0.286,0.886,-0.7,-0.27,1.5,3,6
18593.843,0.361,0.283,0.888,-0.34,-0.06,1.1,3,6
18593.843,0.361,0.286,0.885,0.09,-0.24,0.52,3,6
18593.859,0.358,0.285,0.884,0.55,0.0,0.03,3,6
18593.859,0.354,0.287,0.885,0.73,0.03,-0.15,3,6
18593.875,0.355,0.294,0.886,0.98,-0.06,-0.27,3,6
18593.89,0.35,0.3,0.882,1.43,0.12,-0.18,3,6
18593.89,0.347,0.3,0.878,1.13,-0.03,0.4,3,6
18593.906,0.347,0.298,0.884,0.18,-0.09,0.64,3,6
18593.921,0.355,0.296,0.883,-0.27,-0.24,0.92,3,6
18593.937,0.355,0.293,0.884,-0.46,0.06,1.16,3,6
18593.937,0.352,0.287,0.894,-0.64,-0.09,1.19,3,6
18593.937,0.354,0.279,0.898,-0.27,-0.76,0.98,3,6
18593.953,0.354,0.28,0.887,0.46,-1.37,0.4,3,6
18593.968,0.35,0.284,0.888,0.79,-1.5,0.31,3,6
18593.968,0.341,0.292,0.89,0.89,-1.22,0.46,3,6
18593.984,0.319,0.31,0.902,0.18,-1.19,1.19,3,6
18594.0,0.291,0.331,0.939,-0.79,-3.45,2.93,3,6
18594.0,0.263,0.329,0.922,-1.65,-9.7,6.32,3,6
18594.015,0.288,0.295,0.981,-5.65,-17.85,10.35,3,6
18594.031,0.332,0.276,0.974,-1.07,-27.62,12.39,3,6
18594.031,0.354,0.301,0.835,0.27,-32.17,13.52,3,6
18594.046,0.408,0.275,0.79,-3.39,-30.46,13.76,3,6
18594.062,0.457,0.255,0.796,-5.25,-23.77,12.85,3,6
18594.062,0.473,0.254,0.826,-5.28,-15.66,8.82,3,6
18594.078,0.458,0.252,0.846,-2.99,-8.55,4.46,3,6
18594.093,0.439,0.25,0.867,-1.07,-3.81,1.28,3,6
18594.093,0.424,0.26,0.857,1.43,-1.43,-1.8,3,6
18594.109,0.419,0.275,0.848,3.6,1.01,-3.36,3,6
18594.125,0.41,0.281,0.857,3.36,3.45,-4.24,3,6
18594.125,0.386,0.27,0.87,4.82,5.95,-4.82,3,6
18594.14,0.351,0.289,0.908,5.43,6.65,-4.18,3,6
18594.14,0.334,0.292,0.941,4.85,3.17,-3.02,3,6
18594.156,0.339,0.292,0.92,4.52,-2.72,-1.8,3,6
18594.171,0.366,0.303,0.878,3.81,-6.9,-0.79,3,6
18594.171,0.391,0.297,0.845,2.81,-7.2,-0.15,3,6
18594.187,0.403,0.294,0.839,1.31,-4.88,0.12,3,6
18594.203,0.399,0.294,0.855,0.27,-1.98,-0.18,3,6
18594.203,0.393,0.286,0.88,-0.21,-0.61,-0.92,3,6
18594.218,0.378,0.28,0.893,0.18,-0.79,-1.65,3,6
18594.218,0.375,0.278,0.891,1.43,-2.01,-1.71,3,6
18594.25,0.383,0.29,0.882,4.03,-3.54,-1.4,3,6
18594.25,0.383,0.295,0.874,5.92,-3.6,-1.22,3,6
18594.265,0.383,0.31,0.872,6.71,-4.03,-0.92,3,6
18594.281,0.382,0.31,0.861,6.07,-4.46,-1.04,3,6
18594.281,0.379,0.308,0.867,4.73,-4.33,-0.82,3,6
18594.296,0.382,0.307,0.876,4.36,-4.49,0.18,3,6
18594.312,0.386,0.302,0.884,4.55,-4.73,1.16,3,6
18594.312,0.384,0.296,0.895,5.25,-5.58,1.53,3,6
18594.328,0.387,0.272,0.876,5.77,-6.87,1.4,3,6
18594.328,0.397,0.269,0.866,6.1,-7.14,1.19,3,6
18594.343,0.417,0.276,0.861,6.56,-6.23,0.12,3,6
18594.359,0.427,0.268,0.843,7.6,-4.21,-1.77,3,6
18594.359,0.421,0.269,0.826,7.84,-0.7,-3.78,3,6
18594.375,0.418,0.277,0.824,6.9,3.11,-5.25,3,6
18594.39,0.411,0.297,0.833,5.34,7.02,-6.32,3,6
18594.39,0.394,0.306,0.856,4.88,10.07,-6.74,3,6
18594.421,0.344,0.335,0.896,4.39,9.46,-5.46,3,6
18594.421,0.331,0.346,0.891,2.26,2.96,-1.16,3,6
18594.437,0.345,0.334,0.873,0.24,0.76,-0.06,3,6
18594.453,0.365,0.326,0.854,-1.8,0.79,0.18,3,6
18594.453,0.379,0.317,0.841,-2.96,2.66,0.52,3,6
18594.468,0.395,0.302,0.848,-3.75,4.76,0.58,3,6
18594.468,0.399,0.291,0.858,-4.24,6.56,0.03,3,6
18594.484,0.387,0.287,0.885,-4.0,7.72,-1.25,3,6
18594.5,0.374,0.284,0.908,-2.44,7.17,-2.29,3,6
18594.5,0.363,0.28,0.92,-0.12,4.91,-2.69,3,6
18594.515,0.36,0.288,0.91,1.98,1.95,-3.08,3,6
18594.531,0.363,0.31,0.888,3.75,-0.06,-2.9,3,6
18594.531,0.364,0.319,0.862,4.64,-0.52,-1.95,3,6
18594.546,0.365,0.329,0.855,4.0,0.18,-0.79,3,6
18594.562,0.366,0.332,0.86,2.44,0.95,0.24,3,6
18594.562,0.365,0.329,0.86,0.67,1.28,1.22,3,6
18594.578,0.37,0.315,0.863,-0.76,1.31,2.14,3,6
18594.578,0.373,0.3,0.874,-1.62,1.43,2.44,3,6
18594.593,0.372,0.303,0.889,-0.49,1.65,2.72,3,6
18594.609,0.37,0.3,0.888,1.46,1.59,3.23,3,6
18594.609,0.364,0.294,0.881,2.11,0.92,2.93,3,6
18594.625,0.367,0.294,0.881,1.74,0.34,1.95,3,6
18594.64,0.37,0.302,0.879,1.98,0.03,0.98,3,6
18594.64,0.364,0.312,0.872,2.5,0.0,0.67,3,6
18594.656,0.365,0.317,0.863,2.14,-0.4,1.04,3,6
18594.671,0.372,0.324,0.866,0.58,-0.24,1.46,3,6
18594.671,0.372,0.327,0.881,-0.24,-0.37,1.92,3,6
18594.687,0.374,0.324,0.878,-0.46,-1.28,2.72,3,6
18594.703,0.374,0.313,0.878,-1.71,-2.53,2.72,3,6
18594.703,0.377,0.305,0.873,-4.0,-4.18,1.59,3,6
18594.718,0.396,0.293,0.867,-7.17,-6.23,-0.98,3,6
18594.718,0.401,0.283,0.908,-10.04,-7.2,-5.1,3,6
18594.734,0.382,0.299,0.937,-8.33,-8.51,-8.12,3,6
18594.75,0.376,0.297,0.912,-3.72,-10.56,-9.86,3,6
18594.75,0.409,0.284,0.869,-0.34,-9.19,-10.47,3,6
18594.765,0.434,0.294,0.823,3.11,-4.24,-10.38,3,6
18594.781,0.437,0.3,0.851,5.65,2.69,-11.32,3,6
18594.781,0.374,0.281,0.862,10.07,6.99,-12.85,3,6
18594.796,0.351,0.284,0.832,10.56,7.63,-12.3,3,6
18594.812,0.313,0.297,0.824,8.64,9.43,-10.93,3,6
18594.812,0.297,0.333,0.804,6.07,10.59,-6.65,3,6
18594.828,0.301,0.38,0.781,2.35,9.92,-1.43,3,6
18594.828,0.31,0.394,0.793,-4.46,8.58,3.33,3,6
18594.843,0.323,0.399,0.821,-12.51,9.03,8.24,3,6
18594.859,0.357,0.366,0.855,-19.65,9.46,12.18,3,6
18594.875,0.37,0.31,0.911,-23.77,8.97,12.48,3,6
18594.875,0.383,0.245,0.903,-22.28,7.45,10.35,3,6
18594.89,0.375,0.231,0.915,-20.91,6.35,6.59,3,6
18594.89,0.343,0.239,0.961,-15.69,5.16,4.64,3,6
18594.906,0.307,0.26,1.048,-9.25,0.12,4.94,3,6
18594.921,0.28,0.241,1.002,-0.31,-7.78,6.65,3,6
18594.937,0.313,0.297,0.967,9.06,-19.1,11.75,3,6
18594.953,0.401,0.323,0.931,15.32,-23.56,16.94,3,6
18594.953,0.439,0.332,0.825,15.84,-21.79,17.24,3,6
18594.968,0.435,0.276,0.781,12.76,-16.17,13.55,3,6
18594.984,0.445,0.262,0.784,10.13,-10.28,10.28,3,6
18594.984,0.453,0.291,0.789,7.14,-4.18,7.78,3,6
18595.0,0.451,0.282,0.805,4.33,1.28,5.04,3,6
18595.0,0.44,0.274,0.837,2.87,5.77,1.86,3,6
18595.015,0.419,0.293,0.872,3.36,7.78,-1.56,3,6
18595.031,0.401,0.297,0.88,4.36,7.54,-4.55,3,6
18595.031,0.389,0.293,0.883,5.31,6.35,-6.62,3,6
18595.046,0.371,0.304,0.901,7.05,4.64,-7.75,3,6
18595.062,0.352,0.31,0.907,9.19,2.53,-7.87,3,6
18595.062,0.335,0.322,0.91,10.8,0.21,-6.53,3,6
18595.078,0.33,0.319,0.898,12.33,-2.14,-4.06,3,6
18595.078,0.341,0.323,0.878,12.82,-3.97,-1.28,3,6
18595.109,0.381,0.308,0.844,9.83,-4.21,1.37,3,6
18595.109,0.399,0.301,0.822,7.84,-1.89,1.07,3,6
18595.125,0.418,0.296,0.805,6.32,1.98,0.15,3,6
18595.14,0.418,0.284,0.817,4.91,7.11,-1.19,3,6
18595.14,0.4,0.28,0.843,3.27,11.81,-2.84,3,6
18595.156,0.386,0.293,0.886,2.56,14.1,-4.24,3,6
18595.171,0.372,0.28,0.918,4.73,13.61,-6.16,3,6
18595.171,0.344,0.283,0.939,8.03,11.05,-8.45,3,6
18595.187,0.331,0.318,0.962,12.36,6.35,-8.88,3,6
18595.203,0.345,0.329,0.917,15.78,0.12,-9.77,3,6
18595.203,0.35,0.333,0.849,14.83,-3.51,-11.47,3,6
18595.218,0.373,0.329,0.821,10.86,-4.36,-12.67,3,6
18595.218,0.376,0.351,0.842,7.6,-3.54,-13.7,3,6
18595.234,0.373,0.363,0.84,6.26,-2.08,-13.73,3,6
18595.25,0.359,0.349,0.844,3.02,-1.16,-14.56,3,6
18595.25,0.343,0.34,0.862,-0.37,-1.74,-14.65,3,6
18595.281,0.354,0.334,0.859,-2.08,-3.72,-13.18,3,6
18595.281,0.355,0.326,0.862,-2.59,-3.48,-12.94,3,6
18595.296,0.352,0.322,0.872,-3.36,-3.54,-13.25,3,6
18595.312,0.347,0.332,0.874,-3.63,-4.06,-13.7,3,6
18595.312,0.357,0.331,0.868,-4.12,-5.07,-14.16,3,6
18595.328,0.357,0.342,0.875,-4.67,-5.43,-14.92,3,6
18595.343,0.353,0.349,0.874,-4.03,-5.8,-14.44,3,6
18595.343,0.348,0.355,0.863,-3.45,-6.16,-13.4,3,6
18595.359,0.355,0.357,0.854,-4.61,-6.35,-12.42,3,6
18595.359,0.36,0.346,0.859,-6.35,-6.29,-12.21,3,6
18595.375,0.355,0.347,0.869,-6.56,-5.86,-11.44,3,6
18595.39,0.355,0.347,0.866,-6.01,-5.58,-10.32,3,6
18595.39,0.356,0.332,0.862,-6.32,-6.04,-9.92,3,6
18595.406,0.357,0.323,0.864,-6.29,-5.71,-10.28,3,6
18595.421,0.356,0.314,0.868,-5.31,-5.71,-11.05,3,6
18595.421,0.367,0.313,0.875,-3.42,-5.16,-11.69,3,6
18595.453,0.355,0.333,0.889,0.52,-5.01,-13.52,3,6
18595.453,0.352,0.353,0.879,2.08,-5.83,-13.58,3,6
18595.468,0.344,0.353,0.862,2.23,-6.44,-13.15,3,6
18595.484,0.338,0.359,0.86,-0.09,-7.32,-12.54,3,6
18595.484,0.35,0.367,0.856,-2.47,-8.58,-11.54,3,6
18595.5,0.36,0.363,0.842,-3.75,-8.58,-10.35,3,6
18595.5,0.363,0.352,0.847,-5.16,-7.48,-9.09,3,6
18595.515,0.366,0.343,0.859,-5.49,-6.32,-8.12,3,6
18595.531,0.364,0.332,0.863,-5.28,-5.4,-7.69,3,6
18595.531,0.371,0.32,0.866,-4.88,-4.91,-7.75,3,6
18595.546,0.369,0.321,0.871,-3.51,-4.18,-8.3,3,6
18595.562,0.366,0.323,0.869,-2.11,-3.75,-9.19,3,6
18595.562,0.361,0.32,0.871,-1.5,-3.88,-10.1,3,6
18595.578,0.36,0.33,0.873,-0.92,-3.91,-11.05,3,6
18595.593,0.362,0.342,0.863,-0.21,-4.24,-11.75,3,6
18595.593,0.362,0.346,0.859,-0.52,-4.67,-12.21,3,6
18595.625,0.356,0.354,0.858,-0.27,-4.52,-10.86,3,6
18595.625,0.36,0.363,0.852,0.34,-3.39,-8.94,3,6
18595.64,0.355,0.356,0.854,0.31,-2.04,-7.72,3,6
18595.64,0.348,0.35,0.861,-0.52,-1.4,-6.87,3,6
18595.656,0.346,0.352,0.868,-1.71,-1.71,-6.26,3,6
18595.671,0.345,0.346,0.862,-2.08,-2.35,-5.49,3,6
18595.687,0.35,0.341,0.867,-2.44,-2.5,-5.19,3,6
18595.687,0.358,0.335,0.868,-2.17,-2.66,-4.79,3,6
18595.703,0.366,0.331,0.87,-1.46,-2.47,-4.46,3,6
18595.703,0.362,0.331,0.87,-0.7,-1.4,-4.85,3,6
18595.718,0.355,0.327,0.875,0.21,-1.22,-5.37,3,6
18595.734,0.356,0.34,0.869,1.16,-1.92,-4.82,3,6
18595.734,0.362,0.345,0.854,1.43,-1.77,-4.76,3,6
18595.75,0.356,0.348,0.858,0.89,-1.53,-5.46,3,6
18595.765,0.358,0.358,0.864,0.76,-1.34,-4.91,3,6
18595.765,0.354,0.358,0.862,0.98,-0.98,-3.91,3,6
18595.781,0.344,0.352,0.858,1.19,-0.73,-1.34,3,6
18595.796,0.347,0.347,0.857,0.92,-0.55,-0.27,3,6
18595.812,0.347,0.34,0.863,0.58,-0.15,0.52,3,6
18595.812,0.348,0.342,0.867,-0.06,-0.06,0.95,3,6
18595.828,0.35,0.348,0.872,0.03,-0.09,1.56,3,6
18595.843,0.359,0.346,0.865,0.95,0.06,2.01,3,6
18595.843,0.359,0.336,0.861,1.53,0.92,1.83,3,6
18595.859,0.357,0.341,0.872,2.01,1.34,1.56,3,6
18595.859,0.354,0.345,0.872,3.3,1.31,1.71,3,6
18595.875,0.356,0.344,0.865,4.0,1.25,1.98,3,6
18595.89,0.357,0.345,0.859,4.27,1.4,2.17,3,6
18595.89,0.356,0.346,0.86,4.49,1.86,2.41,3,6
18595.906,0.358,0.348,0.862,4.24,1.86,2.23,3,6
18595.921,0.355,0.352,0.862,3.97,1.68,1.86,3,6
18595.921,0.349,0.362,0.868,3.81,1.1,2.2,3,6
18595.937,0.346,0.364,0.862,3.33,0.24,3.02,3,6
18595.953,0.345,0.362,0.868,2.81,-0.49,3.94,3,6
18595.953,0.344,0.361,0.869,2.87,-1.16,4.91,3,6
18595.968,0.351,0.349,0.859,3.23,-1.53,5.58,3,6
18595.984,0.354,0.34,0.862,3.81,-1.5,6.16,3,6
18595.984,0.363,0.341,0.864,4.64,-0.95,6.53,3,6
18596.0,0.362,0.344,0.868,5.4,-0.24,5.98,3,6
18596.0,0.36,0.332,0.864,5.92,-0.24,5.13,3,6
18596.015,0.362,0.337,0.859,6.56,-0.15,4.52,3,6
18596.031,0.362,0.344,0.858,6.71,0.03,3.54,3,6
18596.031,0.36,0.351,0.86,5.68,-0.34,2.38,3,6
18596.046,0.357,0.349,0.861,5.58,-1.01,1.25,3,6
18596.062,0.355,0.361,0.853,5.4,-1.28,0.95,3,6
18596.062,0.36,0.366,0.848,4.0,-1.71,0.95,3,6
18596.078,0.367,0.369,0.843,1.98,-1.8,0.49,3,6
18596.078,0.362,0.372,0.839,-0.03,-1.43,0.03,3,6
18596.093,0.361,0.37,0.852,-2.17,-1.04,-0.12,3,6
18596.109,0.353,0.365,0.872,-2.81,-1.22,-0.12,3,6
18596.109,0.347,0.356,0.871,-1.95,-2.04,0.52,3,6
18596.125,0.349,0.353,0.879,-0.79,-2.69,1.53,3,6
18596.14,0.355,0.334,0.868,0.67,-3.69,1.89,3,6
18596.14,0.36,0.34,0.867,1.4,-3.91,1.83,3,6
18596.156,0.356,0.35,0.879,3.11,-3.85,1.89,3,6
18596.171,0.353,0.35,0.863,4.7,-4.33,2.23,3,6
18596.171,0.36,0.355,0.846,4.39,-4.82,2.35,3,6
18596.187,0.374,0.358,0.836,2.66,-4.7,1.89,3,6
18596.203,0.378,0.354,0.837,1.07,-3.75,1.07,3,6
18596.203,0.376,0.35,0.85,0.73,-2.75,0.43,3,6
18596.218,0.372,0.355,0.859,1.31,-2.04,0.24,3,6
18596.218,0.365,0.351,0.861,2.26,-1.92,-0.03,3,6
18596.234,0.361,0.352,0.858,2.9,-2.14,-0.15,3,6
18596.25,0.36,0.363,0.867,3.27,-2.35,-0.06,3,6
18596.25,0.352,0.37,0.864,4.18,-2.78,0.73,3,6
18596.265,0.351,0.37,0.856,4.39,-3.23,2.17,3,6
18596.281,0.354,0.372,0.846,4.43,-3.3,3.54,3,6
18596.281,0.364,0.37,0.842,3.02,-3.08,4.73,3,6
18596.312,0.368,0.355,0.852,0.12,-2.75,4.91,3,6
18596.312,0.368,0.358,0.873,-0.46,-3.42,4.33,3,6
18596.328,0.354,0.363,0.898,-0.03,-5.49,3.05,3,6
18596.343,0.347,0.361,0.897,1.43,-9.34,2.84,3,6
18596.343,0.344,0.373,0.889,2.56,-13.12,3.17,3,6
18596.359,0.345,0.381,0.877,1.4,-17.4,3.36,3,6
18596.359,0.347,0.375,0.848,-1.53,-21.61,3.17,3,6
18596.375,0.358,0.378,0.835,-5.65,-24.99,2.78,3,6
18596.39,0.367,0.386,0.844,-10.65,-28.08,1.56,3,6
18596.39,0.361,0.37,0.851,-20.94,-37.48,-4.36,3,6
18596.406,0.369,0.35,0.856,-24.02,-42.15,-7.48,3,6
18596.421,0.392,0.329,0.847,-23.47,-43.31,-9.98,3,6
18596.421,0.415,0.307,0.839,-17.94,-41.96,-8.91,3,6
18596.437,0.459,0.318,0.841,-9.03,-38.18,-4.76,3,6
18596.453,0.471,0.329,0.813,-2.9,-32.17,-1.28,3,6
18596.453,0.449,0.309,0.799,0.12,-24.84,-0.43,3,6
18596.468,0.404,0.329,0.842,4.88,-14.04,2.23,3,6
18596.484,0.409,0.334,0.85,4.67,-14.34,3.45,3,6
18596.5,0.441,0.323,0.838,5.31,-14.8,3.54,3,6
18596.5,0.478,0.331,0.789,7.57,-12.67,3.51,3,6
18596.515,0.508,0.324,0.728,10.1,-5.83,3.33,3,6
18596.531,0.526,0.32,0.72,11.35,4.76,3.17,3,6
18596.531,0.509,0.329,0.742,11.44,15.47,2.11,3,6
18596.546,0.495,0.334,0.766,11.54,24.08,1.62,3,6
18596.562,0.476,0.356,0.805,13.28,30.7,1.68,3,6
18596.562,0.433,0.375,0.849,17.43,35.34,2.69,3,6
18596.578,0.398,0.39,0.878,21.85,36.5,5.92,3,6
18596.593,0.389,0.392,0.859,25.21,35.4,9.8,3,6
18596.593,0.402,0.381,0.806,25.24,35.28,12.24,3,6
18596.609,0.426,0.371,0.773,22.46,37.23,12.48,3,6
18596.609,0.446,0.355,0.766,19.65,41.57,11.2,3,6
18596.625,0.45,0.347,0.767,17.98,48.01,9.74,3,6
18596.64,0.449,0.348,0.796,17.94,55.3,8.67,3,6
18596.64,0.403,0.369,0.843,20.23,61.16,6.44,3,6
18596.656,0.332,0.368,0.907,22.68,62.9,6.26,3,6
18596.671,0.282,0.364,0.996,24.51,59.57,8.88,3,6
18596.671,0.221,0.371,1.054,26.98,49.87,11.05,3,6
18596.687,0.156,0.362,1.084,26.37,31.07,9.98,3,6
18596.703,0.12,0.359,1.067,24.02,4.55,7.42,3,6
18596.703,0.221,0.368,1.053,21.7,-24.96,6.07,3,6
18596.718,0.353,0.378,0.926,22.34,-46.42,1.43,3,6
18596.718,0.389,0.364,0.75,20.11,-49.17,-6.93,3,6
18596.734,0.422,0.324,0.721,11.72,-45.93,-13.0,3,6
18596.75,0.428,0.36,0.753,8.33,-40.5,-17.55,3,6
18596.75,0.398,0.427,0.782,12.85,-33.08,-15.96,3,6
18596.765,0.389,0.457,0.796,14.59,-31.4,-11.75,3,6
18596.781,0.401,0.458,0.786,11.2,-32.2,-9.8,3,6
18596.781,0.414,0.441,0.757,7.75,-31.62,-9.83,3,6
18596.796,0.433,0.421,0.734,5.58,-29.24,-10.65,3,6
18596.812,0.446,0.432,0.716,5.25,-22.77,-11.84,3,6
18596.812,0.434,0.463,0.746,5.65,-15.29,-10.96,3,6
18596.828,0.398,0.489,0.796,6.38,-11.35,-7.63,3,6
18596.843,0.372,0.486,0.8,6.04,-11.51,-2.69,3,6
18596.843,0.369,0.459,0.803,3.75,-13.0,1.62,3,6
18596.859,0.372,0.439,0.805,1.68,-14.4,4.18,3,6
18596.859,0.385,0.421,0.802,0.0,-15.17,6.41,3,6
18596.875,0.407,0.411,0.808,-0.85,-15.08,7.69,3,6
18596.89,0.403,0.413,0.813,-0.09,-13.92,7.97,3,6
18596.89,0.408,0.405,0.8,0.79,-13.4,8.45,3,6
18596.906,0.425,0.388,0.783,1.4,-12.51,8.79,3,6
18596.921,0.443,0.382,0.773,2.23,-10.25,7.93,3,6
18596.921,0.459,0.375,0.763,3.14,-6.41,6.78,3,6
18596.937,0.47,0.359,0.755,3.81,-1.89,5.01,3,6
18596.953,0.471,0.364,0.789,4.79,2.84,2.2,3,6
18596.953,0.434,0.392,0.832,8.67,6.35,-0.37,3,6
18596.968,0.395,0.401,0.833,12.88,6.56,-0.43,3,6
18596.968,0.385,0.412,0.824,14.83,4.43,0.27,3,6
18596.984,0.375,0.44,0.816,15.11,2.53,0.92,3,6
18597.0,0.37,0.465,0.802,13.25,0.49,2.47,3,6
18597.0,0.372,0.471,0.78,9.52,-1.83,4.76,3,6
18597.015,0.385,0.468,0.764,5.4,-3.08,7.72,3,6
18597.031,0.409,0.457,0.745,1.8,-3.14,10.35,3,6
18597.046,0.426,0.453,0.732,-1.8,-0.34,11.93,3,6
18597.046,0.415,0.445,0.746,-4.97,3.69,13.28,3,6
18597.062,0.469,0.391,0.749,-6.99,6.1,14.31,3,6
18597.062,0.515,0.352,0.755,-8.73,9.37,9.58,3,6
18597.078,0.509,0.322,0.768,-8.97,14.44,1.62,3,6
18597.093,0.482,0.357,0.828,-6.81,19.29,-6.01,3,6
18597.093,0.41,0.41,0.877,-0.4,19.47,-10.5,3,6
18597.109,0.347,0.441,0.899,4.03,14.37,-10.44,3,6
18597.109,0.346,0.438,0.871,5.4,6.04,-8.03,3,6
18597.125,0.386,0.439,0.828,4.61,-0.52,-6.56,3,6
18597.14,0.428,0.438,0.791,2.93,-2.14,-7.11,3,6
18597.14,0.446,0.42,0.76,1.34,0.0,-8.51,3,6
18597.156,0.453,0.404,0.738,0.27,4.94,-9.67,3,6
18597.171,0.458,0.402,0.725,-0.64,11.51,-11.14,3,6
18597.171,0.453,0.406,0.737,-1.89,18.4,-13.58,3,6
18597.187,0.429,0.424,0.788,-2.9,23.8,-16.02,3,6
18597.203,0.383,0.43,0.832,-2.99,25.67,-17.79,3,6
18597.203,0.334,0.441,0.881,-2.35,23.32,-17.58,3,6
18597.218,0.298,0.446,0.92,-0.49,16.45,-15.66,3,6
18597.218,0.302,0.435,0.928,0.89,5.98,-13.03,3,6
18597.234,0.349,0.409,0.911,2.14,-4.33,-12.05,3,6
18597.25,0.404,0.373,0.879,4.79,-10.86,-14.16,3,6
18597.265,0.444,0.352,0.854,8.97,-13.03,-18.68,3,6
18597.265,0.464,0.34,0.842,13.92,-12.02,-24.45,3,6
18597.281,0.464,0.332,0.824,17.64,-9.83,-32.26,3,6
18597.281,0.466,0.341,0.796,19.78,-7.11,-40.99,3,6
18597.296,0.453,0.348,0.789,19.32,-4.24,-50.72,3,6
18597.312,0.433,0.371,0.788,15.93,-2.01,-60.98,3,6
18597.312,0.398,0.394,0.825,10.04,-1.71,-71.72,3,6
18597.328,0.351,0.417,0.859,5.28,-5.55,-82.31,3,6
18597.343,0.311,0.426,0.882,-0.55,-13.21,-89.18,3,6
18597.343,0.3,0.423,0.918,-3.57,-21.76,-92.99,3,6
18597.359,0.278,0.434,0.941,1.92,-29.6,-92.5,3,6
18597.359,0.289,0.475,0.916,11.84,-37.35,-87.28,3,6
18597.375,0.322,0.527,0.868,15.08,-42.97,-80.9,3,6
18597.39,0.329,0.567,0.832,-7.14,-46.08,-71.93,3,6
18597.406,0.329,0.578,0.818,-26.46,-45.93,-69.55,3,6
18597.406,0.332,0.578,0.822,-42.02,-45.96,-68.88,3,6
18597.421,0.346,0.507,0.792,-54.08,-45.66,-69.0,3,6
18597.421,0.351,0.445,0.769,-62.93,-43.06,-71.38,3,6
18597.437,0.353,0.389,0.817,-63.84,-37.48,-73.55,3,6
18597.453,0.292,0.387,0.907,-51.0,-32.47,-75.78,3,6
18597.453,0.222,0.378,0.927,-28.23,-33.27,-75.53,3,6
18597.468,0.195,0.407,0.916,-10.62,-39.37,-72.91,3,6
18597.484,0.212,0.464,0.882,-2.2,-48.13,-72.21,3,6
18597.484,0.248,0.498,0.839,-2.32,-55.82,-73.73,3,6
18597.5,0.276,0.497,0.793,-7.23,-60.4,-75.35,3,6
18597.5,0.301,0.494,0.766,-12.6,-60.52,-75.93,3,6
18597.515,0.304,0.491,0.75,-16.48,-57.28,-75.5,3,6
18597.531,0.305,0.495,0.739,-21.06,-53.62,-73.34,3,6
18597.531,0.297,0.488,0.738,-26.55,-49.87,-72.27,3,6
18597.546,0.278,0.461,0.736,-32.04,-46.75,-72.24,3,6
18597.562,0.29,0.431,0.758,-33.75,-43.86,-70.68,3,6
18597.562,0.291,0.426,0.779,-26.55,-40.89,-69.83,3,6
18597.578,0.273,0.451,0.78,-13.31,-37.14,-69.0,3,6
18597.593,0.271,0.481,0.764,-1.53,-35.31,-68.33,3,6
18597.593,0.282,0.514,0.748,2.47,-36.07,-69.12,3,6
18597.609,0.293,0.547,0.732,-0.03,-36.77,-70.38,3,6
18597.625,0.307,0.56,0.722,-2.93,-35.77,-70.71,3,6
18597.625,0.313,0.564,0.717,-1.77,-32.9,-69.12,3,6
18597.64,0.309,0.575,0.708,3.11,-29.21,-65.95,3,6
18597.656,0.308,0.592,0.692,8.09,-25.45,-62.11,3,6
18597.656,0.31,0.608,0.667,9.98,-21.97,-58.99,3,6
18597.671,0.315,0.617,0.651,8.73,-18.43,-56.52,3,6
18597.671,0.308,0.619,0.648,6.87,-14.31,-53.68,3,6
18597.687,0.294,0.621,0.653,4.06,-10.8,-50.69,3,6
18597.703,0.288,0.628,0.667,0.09,-8.82,-47.27,3,6
18597.703,0.29,0.627,0.682,-2.99,-7.66,-43.58,3,6
18597.718,0.294,0.626,0.69,-3.6,-6.32,-38.91,3,6
18597.734,0.306,0.636,0.689,-1.16,-4.27,-33.57,3,6
18597.734,0.316,0.65,0.681,3.75,-1.43,-28.6,3,6
18597.75,0.317,0.662,0.664,7.29,1.59,-24.48,3,6
18597.765,0.323,0.672,0.655,7.14,4.82,-21.0,3,6
18597.765,0.333,0.679,0.668,4.91,8.64,-18.07,3,6
18597.781,0.33,0.678,0.683,3.05,12.82,-14.83,3,6
18597.781,0.32,0.668,0.699,0.58,16.48,-11.2,3,6
18597.796,0.314,0.65,0.714,-3.17,19.04,-7.66,3,6
18597.812,0.304,0.638,0.744,-6.04,20.66,-4.52,3,6
18597.828,0.289,0.625,0.771,-7.05,21.09,-1.19,3,6
18597.828,0.292,0.611,0.788,-8.15,20.42,2.75,3,6
18597.843,0.299,0.592,0.802,-9.16,19.81,7.02,3,6
18597.843,0.302,0.573,0.799,-10.25,19.38,10.59,3,6
18597.859,0.306,0.549,0.79,-12.97,19.56,12.57,3,6
18597.875,0.306,0.53,0.78,-17.09,20.75,13.21,3,6
18597.875,0.312,0.503,0.776,-20.08,22.89,12.73,3,6
18597.89,0.313,0.473,0.787,-19.14,27.16,11.08,3,6
18597.89,0.298,0.455,0.807,-11.78,33.54,8.82,3,6
18597.906,0.256,0.437,0.817,2.69,39.25,7.29,3,6
18597.921,0.208,0.439,0.836,18.16,42.51,6.29,3,6
18597.921,0.178,0.479,0.839,30.7,41.87,6.2,3,6
18597.937,0.159,0.518,0.824,36.29,38.24,6.29,3,6
18597.953,0.146,0.553,0.805,30.88,32.35,4.85,3,6
18597.968,0.142,0.55,0.787,18.07,24.66,2.38,3,6
18597.968,0.156,0.527,0.773,3.33,17.24,0.21,3,6
18597.968,0.195,0.517,0.75,-7.02,13.25,-2.17,3,6
18597.984,0.185,0.502,0.72,-11.11,14.95,-6.44,3,6
18598.0,0.189,0.456,0.718,-12.21,19.47,-5.92,3,6
18598.015,0.204,0.487,0.744,-9.19,24.78,-5.83,3,6
18598.015,0.163,0.5,0.767,-3.36,31.31,-6.53,3,6
18598.031,0.115,0.504,0.825,1.68,33.2,-5.83,3,6
18598.031,0.087,0.52,0.869,7.08,29.57,-2.66,3,6
18598.046,0.072,0.55,0.879,11.38,23.22,-0.09,3,6
18598.062,0.082,0.583,0.888,10.77,14.68,1.46,3,6
18598.062,0.102,0.613,0.899,2.9,4.73,0.52,3,6
18598.078,0.106,0.645,0.924,-10.5,-4.97,-2.53,3,6
18598.078,0.149,0.656,0.939,-19.75,-15.17,-2.44,3,6
18598.093,0.182,0.622,0.902,-17.55,-19.35,0.43,3,6
18598.109,0.193,0.596,0.861,-12.54,-18.19,3.14,3,6
18598.109,0.203,0.577,0.841,-8.88,-14.92,5.98,3,6
18598.125,0.18,0.558,0.817,-6.38,-11.47,6.47,3,6
18598.14,0.169,0.534,0.799,-6.68,-10.9,6.07,3,6
18598.14,0.183,0.508,0.791,-8.27,-11.05,4.15,3,6
18598.156,0.189,0.491,0.772,-6.32,-9.37,0.73,3,6
18598.171,0.188,0.498,0.768,-3.17,-6.74,-2.56,3,6
18598.171,0.181,0.521,0.784,-1.53,-4.36,-4.58,3,6
18598.187,0.171,0.546,0.806,-0.79,-2.84,-4.94,3,6
18598.203,0.167,0.563,0.825,-1.28,-3.36,-3.23,3,6
18598.203,0.176,0.564,0.832,-2.47,-5.16,-0.73,3,6
18598.218,0.192,0.55,0.828,-2.66,-6.71,0.92,3,6
18598.234,0.205,0.539,0.824,-1.89,-7.29,1.4,3,6
18598.234,0.209,0.539,0.811,-0.7,-7.29,1.13,3,6
18598.25,0.215,0.534,0.802,-0.18,-7.08,0.67,3,6
18598.25,0.221,0.536,0.791,-0.21,-6.68,0.18,3,6
18598.265,0.219,0.534,0.785,-0.27,-5.71,-0.31,3,6
18598.281,0.22,0.533,0.789,-0.4,-4.33,-0.49,3,6
18598.281,0.222,0.535,0.785,-1.07,-3.27,-1.19,3,6
18598.296,0.223,0.531,0.782,-1.83,-2.35,-2.14,3,6
18598.312,0.224,0.527,0.795,-3.14,-0.7,-3.27,3,6
18598.312,0.226,0.535,0.81,-3.45,1.1,-3.57,3,6
18598.328,0.212,0.521,0.845,-2.78,2.78,-4.18,3,6
18598.343,0.187,0.545,0.871,-4.18,2.32,-4.88,3,6
18598.343,0.191,0.57,0.866,-3.88,-0.76,-4.27,3,6
18598.359,0.239,0.564,0.8,-2.08,-3.69,-4.46,3,6
18598.359,0.243,0.454,0.797,-3.05,-0.49,-10.93,3,6
18598.375,0.136,0.584,0.858,-3.78,-7.2,-8.18,3,6
18598.39,0.179,0.609,0.84,4.3,-10.96,-5.43,3,6
18598.406,0.167,0.529,0.787,4.73,-11.32,-1.98,3,6
18598.406,0.142,0.565,0.776,5.71,-12.48,1.62,3,6
18598.421,0.119,0.557,0.782,4.67,-15.11,5.77,3,6
18598.421,0.12,0.574,0.814,1.25,-20.51,10.04,3,6
18598.437,0.156,0.578,0.825,-2.72,-27.5,13.28,3,6
18598.453,0.189,0.583,0.827,-8.03,-33.08,15.32,3,6
18598.453,0.201,0.652,0.825,-11.66,-35.52,19.26,3,6
18598.468,0.319,0.573,0.757,-8.94,-31.92,25.73,3,6
18598.484,0.267,0.504,0.734,-7.29,-23.59,24.26,3,6
18598.484,0.283,0.525,0.769,-13.43,-17.18,23.38,3,6
18598.5,0.298,0.471,0.772,-11.38,-14.1,21.12,3,6
18598.5,0.316,0.442,0.74,-2.2,-6.65,20.94,3,6
18598.515,0.293,0.487,0.74,2.96,1.56,18.92,3,6
18598.531,0.274,0.498,0.763,3.51,6.04,16.54,3,6
18598.531,0.258,0.506,0.802,1.31,6.74,14.34,3,6
18598.546,0.238,0.522,0.853,-2.08,4.76,12.15,3,6
18598.562,0.233,0.528,0.866,-4.64,-0.24,9.98,3,6
18598.562,0.251,0.529,0.862,-6.93,-6.04,8.18,3,6
18598.578,0.272,0.519,0.843,-7.29,-10.32,5.98,3,6
18598.593,0.279,0.506,0.816,-4.55,-11.26,4.27,3,6
18598.593,0.278,0.499,0.786,-1.16,-9.74,4.12,3,6
18598.609,0.286,0.497,0.758,0.37,-7.29,4.43,3,6
18598.625,0.3,0.498,0.742,-0.09,-3.6,3.94,3,6
18598.625,0.305,0.499,0.738,-1.95,1.01,2.29,3,6
18598.64,0.297,0.503,0.752,-3.97,5.58,0.21,3,6
18598.64,0.281,0.511,0.789,-5.25,8.64,-1.37,3,6
18598.656,0.26,0.526,0.831,-4.33,9.19,-2.26,3,6
18598.671,0.238,0.531,0.844,-2.66,7.39,-2.29,3,6
18598.671,0.226,0.532,0.854,-3.33,3.75,-2.26,3,6
18598.687,0.231,0.525,0.857,-4.18,-0.03,-2.47,3,6
18598.703,0.231,0.514,0.841,-2.72,-3.17,-2.35,3,6
18598.703,0.234,0.508,0.824,-1.1,-5.13,-1.43,3,6
18598.718,0.245,0.507,0.808,-0.18,-5.98,-0.55,3,6
18598.718,0.257,0.508,0.794,0.34,-5.65,-0.21,3,6
18598.734,0.263,0.506,0.78,0.37,-4.21,-0.43,3,6
18598.75,0.272,0.502,0.771,-0.43,-2.26,-0.73,3,6
18598.765,0.285,0.503,0.765,-1.59,0.03,-1.46,3,6
18598.765,0.293,0.503,0.763,-2.78,2.78,-2.87,3,6
18598.781,0.29,0.502,0.775,-3.81,5.89,-4.49,3,6
18598.781,0.278,0.507,0.805,-3.85,8.09,-5.8,3,6
18598.796,0.262,0.519,0.836,-2.56,8.27,-6.32,3,6
18598.812,0.247,0.526,0.852,-1.25,6.38,-5.86,3,6
18598.812,0.24,0.523,0.857,-0.49,2.96,-5.4,3,6
18598.828,0.243,0.516,0.844,-0.15,-0.52,-5.25,3,6
18598.843,0.247,0.506,0.819,0.67,-2.5,-5.52,3,6
18598.843,0.249,0.501,0.8,1.34,-2.72,-5.71,3,6
18598.859,0.253,0.501,0.781,1.4,-1.34,-5.65,3,6
18598.859,0.258,0.506,0.774,0.79,1.07,-5.65,3,6
18598.875,0.258,0.509,0.778,-0.15,3.94,-5.68,3,6
18598.89,0.253,0.515,0.788,-1.19,6.53,-5.62,3,6
18598.906,0.248,0.522,0.804,-1.98,8.27,-5.52,3,6
18598.906,0.229,0.535,0.834,-2.81,8.36,-5.28,3,6
18598.921,0.215,0.537,0.857,-2.53,6.07,-4.46,3,6
18598.921,0.212,0.539,0.86,-1.77,2.35,-3.2,3,6
18598.937,0.219,0.524,0.842,-0.55,-1.01,-2.08,3,6
18598.953,0.229,0.507,0.816,0.73,-2.41,-1.34,3,6
18598.953,0.235,0.498,0.803,1.59,-1.46,-0.73,3,6
18598.968,0.236,0.499,0.809,1.53,0.34,-0.37,3,6
18598.984,0.242,0.502,0.815,1.74,1.4,-0.4,3,6
18598.984,0.248,0.502,0.824,1.56,1.43,-1.16,3,6
18599.0,0.255,0.509,0.818,1.37,1.34,-2.44,3,6
18599.0,0.248,0.506,0.818,1.22,1.28,-3.78,3,6
18599.015,0.253,0.509,0.811,0.21,0.79,-4.7,3,6
18599.031,0.287,0.518,0.746,0.34,1.37,-5.58,3,6
18599.031,0.347,0.409,0.702,4.06,9.37,-7.14,3,6
18599.046,0.179,0.489,0.825,-1.28,19.14,-11.51,3,6
18599.062,0.183,0.638,0.907,-10.44,13.82,-9.77,3,6
18599.062,0.182,0.534,0.867,0.34,6.71,-6.81,3,6
18599.078,0.177,0.529,0.847,3.75,3.48,-3.91,3,6
18599.093,0.2,0.542,0.826,6.78,-0.21,-1.5,3,6
18599.093,0.197,0.545,0.81,8.82,-1.86,-0.24,3,6
18599.109,0.192,0.562,0.814,8.27,-3.11,1.74,3,6
18599.125,0.198,0.558,0.808,7.87,-5.31,3.88,3,6
18599.125,0.214,0.557,0.805,6.35,-7.29,5.74,3,6
18599.14,0.224,0.562,0.819,4.43,-8.79,6.71,3,6
18599.14,0.225,0.547,0.824,2.81,-10.77,6.99,3,6
18599.156,0.227,0.535,0.829,1.59,-12.7,7.48,3,6
18599.171,0.218,0.529,0.837,2.66,-13.67,8.82,3,6
18599.171,0.186,0.525,0.862,2.5,-16.02,9.98,3,6
18599.187,0.258,0.541,0.821,0.09,-21.36,11.23,3,6
18599.203,0.296,0.406,0.729,9.61,-18.31,10.41,3,6
18599.203,0.266,0.482,0.753,4.33,-11.23,6.23,3,6
18599.218,0.299,0.504,0.773,2.17,-8.18,4.3,3,6
18599.234,0.291,0.476,0.756,4.58,-3.6,2.01,3,6
18599.234,0.29,0.507,0.766,3.66,0.24,0.0,3,6
18599.25,0.286,0.529,0.787,3.6,3.3,-2.14,3,6
18599.25,0.254,0.542,0.814,4.36,4.64,-3.39,3,6
18599.265,0.228,0.559,0.835,4.0,3.3,-2.72,3,6
18599.281,0.223,0.558,0.832,3.14,-0.06,-1.16,3,6
18599.281,0.231,0.543,0.814,1.95,-3.45,-0.24,3,6
18599.296,0.247,0.528,0.79,1.34,-4.55,0.06,3,6
18599.312,0.258,0.522,0.774,0.89,-3.6,0.31,3,6
18599.312,0.262,0.519,0.766,-0.18,-1.59,0.09,3,6
18599.328,0.264,0.518,0.762,-1.01,0.79,-0.24,3,6
18599.343,0.269,0.522,0.763,-2.08,3.2,-0.61,3,6
18599.343,0.267,0.53,0.77,-3.78,5.13,-1.34,3,6
18599.359,0.254,0.535,0.783,-5.92,7.45,-1.92,3,6
18599.375,0.246,0.537,0.799,-6.16,6.93,-1.71,3,6
18599.375,0.231,0.544,0.836,-5.01,4.49,-0.49,3,6
18599.39,0.214,0.533,0.855,-3.85,0.21,1.46,3,6
18599.406,0.234,0.511,0.833,-2.38,-3.42,2.01,3,6
18599.406,0.246,0.493,0.808,-0.89,-4.52,1.16,3,6
18599.421,0.246,0.494,0.795,0.46,-3.36,0.06,3,6
18599.421,0.243,0.507,0.794,1.1,-1.86,-0.73,3,6
18599.437,0.242,0.521,0.796,0.85,-0.98,-0.89,3,6
18599.453,0.244,0.533,0.79,0.27,-0.24,-0.49,3,6
18599.453,0.249,0.54,0.787,-1.13,0.58,0.4,3,6
18599.468,0.255,0.538,0.787,-2.99,1.4,0.98,3,6
18599.484,0.265,0.533,0.786,-4.55,2.62,1.62,3,6
18599.484,0.259,0.527,0.799,-5.19,4.39,1.89,3,6
18599.5,0.245,0.519,0.819,-4.58,5.58,2.17,3,6
18599.5,0.241,0.512,0.83,-3.23,5.31,2.53,3,6
18599.515,0.256,0.528,0.836,-1.34,5.07,1.5,3,6
18599.531,0.207,0.496,0.828,1.1,5.86,-0.15,3,6
18599.531,0.213,0.486,0.84,2.93,3.05,2.47,3,6
18599.546,0.232,0.533,0.845,5.77,0.92,3.88,3,6
18599.562,0.226,0.523,0.822,8.12,-0.27,3.88,3,6
18599.562,0.23,0.517,0.811,8.39,-1.71,4.12,3,6
18599.578,0.243,0.516,0.795,8.79,-2.26,4.49,3,6
18599.593,0.255,0.522,0.78,8.88,-1.77,3.97,3,6
18599.593,0.258,0.53,0.77,7.02,-0.31,2.59,3,6
18599.609,0.254,0.527,0.772,4.55,1.4,0.95,3,6
18599.625,0.252,0.533,0.784,2.11,2.56,-0.09,3,6
18599.625,0.252,0.541,0.804,0.82,2.96,0.0,3,6
18599.64,0.246,0.545,0.826,1.07,2.9,0.4,3,6
18599.64,0.237,0.537,0.833,2.23,1.74,0.58,3,6
18599.656,0.246,0.527,0.829,3.2,-0.12,0.49,3,6
18599.671,0.241,0.506,0.817,4.36,-1.28,0.09,3,6
18599.671,0.253,0.501,0.81,5.55,-2.01,0.03,3,6
18599.687,0.255,0.515,0.803,7.05,-0.89,-0.7,3,6
18599.703,0.245,0.521,0.81,7.63,-0.24,-1.89,3,6
18599.703,0.239,0.528,0.831,5.89,-0.64,-3.45,3,6
18599.718,0.227,0.54,0.815,5.16,-1.71,-4.61,3,6
18599.718,0.235,0.55,0.801,3.91,-4.0,-4.33,3,6
18599.734,0.277,0.55,0.753,2.66,-4.39,-4.43,3,6
18599.75,0.322,0.448,0.699,7.02,2.01,-5.52,3,6
18599.75,0.166,0.579,0.806,-1.95,7.51,-10.35,3,6
18599.765,0.212,0.65,0.836,-12.09,-0.27,-7.78,3,6
18599.781,0.228,0.542,0.775,-6.38,-5.49,-4.67,3,6
18599.781,0.239,0.555,0.755,-8.39,-3.48,-2.04,3,6
18599.796,0.231,0.567,0.769,-9.03,-0.43,-1.04,3,6
18599.812,0.206,0.556,0.796,-9.06,0.89,0.12,3,6
18599.812,0.208,0.557,0.822,-10.1,-0.85,1.86,3,6
18599.828,0.216,0.538,0.826,-8.12,-2.99,2.93,3,6
18599.843,0.218,0.523,0.839,-4.39,-4.79,3.63,3,6
18599.843,0.224,0.514,0.856,-1.28,-7.66,3.97,3,6
18599.859,0.229,0.514,0.862,0.37,-11.23,3.97,3,6
18599.859,0.231,0.517,0.854,1.28,-15.02,3.85,3,6
18599.875,0.221,0.503,0.846,2.17,-17.91,3.81,3,6
18599.89,0.218,0.544,0.839,0.4,-21.36,4.73,3,6
18599.89,0.327,0.48,0.745,4.76,-22.31,6.99,3,6
18599.906,0.289,0.449,0.71,8.79,-13.82,4.0,3,6
18599.921,0.293,0.534,0.75,1.1,-7.32,1.95,3,6
18599.921,0.296,0.51,0.752,1.71,-4.03,0.46,3,6
18599.937,0.287,0.514,0.756,0.18,-0.12,-0.82,3,6
18599.953,0.279,0.533,0.778,-1.07,2.5,-2.23,3,6
18599.953,0.252,0.547,0.82,-1.13,3.48,-3.39,3,6
18599.968,0.234,0.558,0.852,-0.92,1.31,-2.9,3,6
18599.984,0.222,0.557,0.851,0.43,-2.5,-1.19,3,6
18599.984,0.227,0.545,0.832,1.77,-6.13,1.07,3,6
18600.0,0.245,0.531,0.806,2.11,-8.55,2.26,3,6
18600.0,0.255,0.52,0.776,1.65,-8.51,2.69,3,6
18600.015,0.263,0.511,0.751,0.61,-6.35,2.59,3,6
18600.031,0.277,0.508,0.749,-0.73,-3.39,2.17,3,6
18600.031,0.286,0.519,0.771,-2.9,0.24,1.4,3,6
18600.046,0.281,0.504,0.776,-0.89,3.63,0.43,3,6
18600.062,0.268,0.522,0.795,0.55,6.32,0.37,3,6
18600.062,0.258,0.532,0.812,1.31,7.42,0.46,3,6
18600.078,0.249,0.526,0.823,1.83,6.41,0.03,3,6
18600.093,0.247,0.53,0.823,1.5,3.97,-0.46,3,6
18600.093,0.245,0.529,0.818,1.34,1.77,-0.98,3,6
18600.109,0.248,0.521,0.808,1.59,0.03,-0.89,3,6
18600.125,0.258,0.527,0.8,1.46,-1.01,-0.89,3,6
18600.125,0.261,0.53,0.781,1.34,-0.55,-1.22,3,6
18600.14,0.264,0.526,0.77,0.46,0.58,-1.4,3,6
18600.14,0.268,0.533,0.768,-1.01,2.23,-1.5,3,6
18600.156,0.268,0.535,0.77,-1.92,4.49,-1.56,3,6
18600.171,0.259,0.537,0.789,-3.02,6.16,-1.74,3,6
18600.171,0.251,0.538,0.807,-3.33,6.71,-1.43,3,6
18600.187,0.236,0.536,0.831,-3.05,6.2,-0.92,3,6
18600.203,0.223,0.532,0.851,-2.32,4.03,-0.37,3,6
18600.218,0.225,0.521,0.848,-0.7,0.73,0.24,3,6
18600.218,0.234,0.512,0.828,1.4,-1.92,0.64,3,6
18600.234,0.249,0.507,0.808,3.08,-2.99,0.4,3,6
18600.234,0.264,0.511,0.776,5.52,-1.8,0.18,3,6
18600.25,0.257,0.522,0.77,5.77,0.67,0.4,3,6
18600.265,0.257,0.528,0.77,2.81,1.89,-0.7,3,6
18600.265,0.261,0.527,0.774,2.47,3.2,-1.31,3,6
18600.281,0.252,0.554,0.801,1.5,4.49,-1.53,3,6
18600.281,0.241,0.555,0.818,1.71,4.36,-0.98,3,6
18600.296,0.23,0.548,0.821,2.26,3.11,0.24,3,6
18600.312,0.227,0.547,0.82,2.14,1.07,1.16,3,6
18600.312,0.232,0.534,0.807,1.68,-1.01,2.11,3,6
18600.328,0.239,0.527,0.794,1.1,-1.89,2.75,3,6
18600.343,0.249,0.523,0.788,-0.73,-0.58,2.9,3,6
18600.343,0.257,0.521,0.782,-0.92,1.25,2.41,3,6
18600.359,0.262,0.52,0.775,-1.77,3.39,1.74,3,6
18600.359,0.259,0.527,0.783,-2.01,5.65,1.34,3,6
18600.375,0.251,0.527,0.818,-0.37,7.69,1.31,3,6
18600.39,0.232,0.537,0.838,2.08,9.55,1.8,3,6
18600.39,0.205,0.543,0.857,5.04,9.74,2.72,3,6
18600.406,0.187,0.545,0.877,8.03,7.66,4.39,3,6
18600.421,0.194,0.542,0.883,11.6,4.82,6.59,3,6
18600.437,0.183,0.561,0.877,17.82,4.39,9.28,3,6
18600.437,0.167,0.585,0.842,26.34,7.35,13.43,3,6
18600.453,0.147,0.604,0.834,23.93,8.18,13.55,3,6
18600.453,0.14,0.595,0.844,16.51,7.42,13.61,3,6
18600.468,0.125,0.601,0.847,8.64,6.47,14.59,3,6
18600.484,0.086,0.604,0.822,-1.13,5.16,17.21,3,6
18600.484,-0.046,0.477,0.771,-10.8,10.68,12.33,3,6
18600.5,-0.068,0.451,0.885,-16.48,18.86,-4.91,3,6
18600.5,-0.068,0.438,0.903,-13.7,24.99,-15.32,3,6
18600.515,-0.185,0.46,0.922,-6.68,31.37,-22.34,3,6
18600.531,-0.184,0.477,0.977,2.75,29.21,-18.49,3,6
18600.531,-0.188,0.508,0.982,9.13,25.45,-15.02,3,6
18600.546,-0.152,0.533,0.958,4.52,21.36,-14.07,3,6
18600.562,-0.161,0.537,0.954,-7.78,19.07,-14.59,3,6
18600.562,-0.175,0.509,0.983,-19.32,16.21,-13.58,3,6
18600.578,-0.178,0.485,1.0,-25.82,11.87,-9.46,3,6
18600.578,-0.142,0.478,1.013,-29.33,6.78,-4.3,3,6
18600.593,-0.108,0.466,1.018,-31.01,4.27,-1.62,3,6
18600.609,-0.079,0.453,1.008,-31.19,3.81,-1.5,3,6
18600.625,-0.066,0.444,1.003,-29.91,6.13,-4.12,3,6
18600.625,-0.082,0.425,1.015,-24.78,8.88,-9.31,3,6
18600.64,-0.104,0.409,1.023,-14.28,10.96,-15.5,3,6
18600.64,-0.129,0.44,1.044,-1.95,11.9,-21.79,3,6
18600.656,-0.124,0.472,1.031,9.28,10.47,-28.53,3,6
18600.671,-0.08,0.507,0.991,17.46,9.74,-37.69,3,6
18600.671,-0.031,0.539,0.952,23.35,13.28,-49.68,3,6
18600.687,0.007,0.584,0.928,28.35,20.33,-63.63,3,6
18600.703,0.014,0.646,0.916,35.28,29.45,-76.75,3,6
18600.703,-0.014,0.701,0.924,42.27,39.49,-86.12,3,6
18600.718,-0.037,0.737,0.924,47.21,47.49,-91.28,3,6
18600.734,-0.053,0.765,0.903,49.71,52.92,-92.56,3,6
18600.734,-0.079,0.772,0.862,50.29,57.37,-91.59,3,6
18600.75,-0.103,0.765,0.825,47.85,60.24,-89.66,3,6
18600.75,-0.105,0.735,0.786,43.76,61.34,-87.16,3,6
18600.765,-0.104,0.698,0.76,39.89,62.81,-84.11,3,6
18600.781,-0.091,0.665,0.725,36.44,65.1,-80.51,3,6
18600.796,-0.055,0.645,0.696,30.58,67.54,-77.3,3,6
18600.796,-0.017,0.621,0.672,22.86,71.41,-77.0,3,6
18600.812,0.002,0.585,0.645,15.2,78.01,-79.23,3,6
18600.812,0.011,0.559,0.611,7.72,86.03,-82.95,3,6
18600.828,0.028,0.534,0.6,0.34,93.57,-89.08,3,6
18600.843,0.01,0.501,0.625,-3.45,101.29,-97.96,3,6
18600.843,-0.048,0.459,0.643,-1.43,106.3,-107.64,3,6
18600.859,-0.091,0.429,0.645,3.81,105.2,-114.96,3,6
18600.875,-0.102,0.403,0.642,10.44,99.28,-120.03,3,6
18600.875,-0.081,0.366,0.632,17.09,93.51,-125.22,3,6
18600.89,-0.04,0.318,0.618,22.49,89.97,-129.8,3,6
18600.89,0.002,0.267,0.577,29.91,89.39,-134.5,3,6
18600.906,0.04,0.242,0.537,41.11,93.02,-142.31,3,6
18600.921,0.016,0.172,0.508,56.55,98.7,-153.72,3,6
18600.921,-0.003,0.131,0.532,77.09,104.65,-166.97,3,6
18600.937,-0.098,0.154,0.575,107.33,108.95,-185.03,3,6
18600.953,-0.2,0.151,0.579,140.05,103.09,-203.65,3,6
18600.953,-0.29,0.211,0.631,167.15,86.95,-216.07,3,6
18600.968,-0.357,0.315,0.682,197.97,66.81,-225.35,3,6
18600.984,-0.462,0.404,0.657,229.07,37.05,-233.13,3,6
18600.984,-0.511,0.644,0.612,246.77,-3.81,-233.07,3,6
18601.0,-0.483,0.977,0.487,244.39,-38.39,-224.8,3,6
18601.0,-0.46,1.161,0.32,215.8,-58.87,-212.29,3,6
18601.015,-0.396,1.21,0.227,150.49,-81.48,-200.72,3,6
18601.031,-0.25,1.079,0.208,87.59,-76.17,-180.49,3,6
18601.031,-0.232,0.939,0.161,44.31,-59.76,-165.75,3,6
18601.046,-0.197,0.78,0.119,21.64,-37.32,-152.93,3,6
18601.062,-0.18,0.68,0.146,12.24,-5.07,-144.99,3,6
18601.078,-0.291,0.645,0.295,23.9,39.0,-142.0,3,6
18601.078,-0.58,0.695,0.484,52.95,71.44,-137.91,3,6
18601.093,-0.849,0.774,0.583,87.74,81.85,-121.86,3,6
18601.093,-1.01,1.076,0.53,106.23,75.23,-86.49,3,6
18601.109,-1.035,1.42,0.457,81.0,57.53,-39.52,3,6
18601.109,-1.01,1.608,0.366,10.65,26.31,3.3,3,6
18601.125,-0.824,1.622,0.319,-98.33,-9.61,38.64,3,6
18601.14,-0.648,1.431,0.32,-211.16,-28.99,59.08,3,6
18601.14,-0.576,1.133,0.361,-293.07,-31.5,74.8,3,6
18601.156,-0.565,0.855,0.449,-330.55,-21.73,93.02,3,6
18601.171,-0.458,0.599,0.623,-318.34,11.57,119.63,3,6
18601.171,-0.537,0.6,0.643,-266.64,39.0,134.92,3,6
18601.187,-0.561,0.6,0.645,-219.43,46.42,147.71,3,6
18601.203,-0.535,0.67,0.705,-194.4,45.5,155.1,3,6
18601.218,-0.589,0.795,0.677,-189.43,38.94,160.1,3,6
18601.218,-0.597,0.753,0.644,-210.27,21.3,170.14,3,6
18601.234,-0.462,0.555,0.669,-232.86,1.46,179.24,3,6
18601.234,-0.338,0.447,0.638,-233.65,-0.67,180.7,3,6
18601.25,-0.272,0.386,0.623,-223.06,10.9,175.48,3,6
18601.265,-0.244,0.296,0.706,-204.66,24.87,163.98,3,6
18601.265,-0.304,0.287,0.824,-174.38,37.51,151.71,3,6
18601.281,-0.417,0.339,0.866,-139.96,44.68,144.66,3,6
18601.281,-0.514,0.453,0.917,-117.71,41.75,142.22,3,6
18601.296,-0.587,0.566,0.936,-112.09,28.44,143.71,3,6
18601.312,-0.595,0.611,0.906,-119.36,7.32,150.46,3,6
18601.312,-0.49,0.603,0.857,-130.44,-11.69,161.05,3,6
18601.328,-0.375,0.557,0.785,-149.75,-10.8,175.7,3,6
18601.343,-0.319,0.466,0.744,-156.41,6.9,182.5,3,6
18601.343,-0.314,0.37,0.8,-150.88,21.27,182.47,3,6
18601.359,-0.434,0.261,0.894,-137.46,25.09,175.33,3,6
18601.359,-0.469,0.306,0.923,-120.91,17.3,164.46,3,6
18601.375,-0.456,0.373,0.895,-106.54,4.73,153.48,3,6
18601.39,-0.475,0.407,0.822,-97.87,-5.68,148.47,3,6
18601.406,-0.394,0.452,0.79,-108.71,-13.89,154.36,3,6
18601.406,-0.324,0.415,0.775,-122.26,-8.12,163.88,3,6
18601.421,-0.347,0.321,0.818,-124.85,6.81,175.48,3,6
18601.437,-0.369,0.3,0.907,-116.92,20.91,183.57,3,6
18601.437,-0.396,0.377,0.935,-106.72,30.3,184.88,3,6
18601.453,-0.417,0.439,0.966,-103.64,32.9,181.34,3,6
18601.453,-0.439,0.46,0.955,-106.33,30.06,173.53,3,6
18601.468,-0.459,0.439,0.902,-108.28,26.73,165.01,3,6
18601.484,-0.45,0.392,0.853,-103.67,27.95,160.68,3,6
18601.484,-0.446,0.36,0.784,-96.74,34.36,161.29,3,6
18601.5,-0.43,0.325,0.715,-96.07,43.12,162.18,3,6
18601.5,-0.422,0.295,0.657,-98.21,52.8,157.9,3,6
18601.515,-0.424,0.248,0.648,-93.78,63.88,147.89,3,6
18601.531,-0.476,0.279,0.678,-84.54,75.08,134.92,3,6
18601.531,-0.537,0.311,0.701,-75.62,82.89,122.87,3,6
18601.546,-0.569,0.304,0.785,-71.11,86.58,114.35,3,6
18601.562,-0.598,0.287,0.912,-67.96,83.38,107.43,3,6
18601.562,-0.592,0.262,0.958,-65.71,71.08,99.8,3,6
18601.578,-0.55,0.261,0.961,-64.21,55.79,88.41,3,6
18601.593,-0.527,0.289,0.949,-58.44,42.02,73.0,3,6
18601.593,-0.483,0.312,0.965,-49.23,31.68,59.94,3,6
18601.609,-0.467,0.353,0.941,-40.77,24.2,51.18,3,6
18601.609,-0.454,0.364,0.896,-39.12,19.14,47.67,3,6
18601.625,-0.463,0.314,0.853,-41.47,16.94,45.84,3,6
18601.64,-0.463,0.227,0.803,-41.93,15.99,41.17,3,6
18601.64,-0.463,0.176,0.773,-37.42,17.64,32.81,3,6
18601.656,-0.5,0.145,0.755,-29.02,21.03,22.89,3,6
18601.671,-0.537,0.149,0.788,-21.45,23.96,14.83,3,6
18601.687,-0.555,0.189,0.765,-15.47,24.78,9.34,3,6
18601.687,-0.563,0.199,0.731,-16.42,25.21,5.89,3,6
18601.703,-0.516,0.173,0.746,-22.19,26.4,6.2,3,6
18601.703,-0.505,0.206,0.736,-23.35,30.18,5.43,3,6
18601.718,-0.512,0.22,0.73,-23.47,35.07,6.16,3,6
18601.734,-0.486,0.206,0.755,-25.51,38.33,7.48,3,6
18601.734,-0.472,0.235,0.749,-25.85,40.13,6.71,3,6
18601.75,-0.472,0.26,0.718,-25.79,41.69,4.76,3,6
18601.75,-0.476,0.278,0.736,-26.18,42.48,2.9,3,6
18601.765,-0.494,0.295,0.732,-26.43,42.82,4.18,3,6
18601.781,-0.503,0.311,0.715,-29.69,41.54,7.48,3,6
18601.781,-0.479,0.282,0.703,-34.0,40.28,10.38,3,6
18601.796,-0.46,0.262,0.7,-34.33,40.62,10.22,3,6
18601.812,-0.498,0.289,0.687,-31.28,42.51,9.19,3,6
18601.828,-0.506,0.28,0.689,-31.07,42.51,9.4,3,6
18601.828,-0.472,0.258,0.705,-31.86,43.12,9.52,3,6
18601.843,-0.458,0.247,0.719,-29.08,45.84,7.51,3,6
18601.843,-0.465,0.266,0.751,-23.99,49.96,3.63,3,6
18601.859,-0.493,0.311,0.811,-18.8,52.95,0.31,3,6
18601.875,-0.537,0.35,0.873,-15.9,52.58,-0.4,3,6
18601.875,-0.568,0.351,0.909,-15.29,47.73,1.19,3,6
18601.89,-0.57,0.374,0.91,-14.44,40.47,4.09,3,6
18601.906,-0.564,0.36,0.895,-13.67,32.84,8.45,3,6
18601.906,-0.53,0.335,0.873,-13.43,27.07,11.57,3,6
18601.921,-0.496,0.309,0.86,-11.2,23.99,12.21,3,6
18601.921,-0.501,0.286,0.848,-7.6,22.74,10.53,3,6
18601.937,-0.522,0.283,0.852,-6.62,21.15,8.0,3,6
18601.953,-0.532,0.271,0.857,-10.99,17.43,4.7,3,6
18601.953,-0.515,0.298,0.888,-20.66,10.16,-1.16,3,6
18601.968,-0.509,0.314,0.906,-29.15,0.18,-8.7,3,6
18601.984,-0.496,0.309,0.934,-35.65,-10.16,-13.25,3,6
18601.984,-0.531,0.324,0.996,-35.68,-18.89,-12.51,3,6
18602.0,-0.595,0.311,0.969,-26.67,-29.11,-5.01,3,6
18602.0,-0.628,0.31,0.863,-19.2,-37.87,7.81,3,6
18602.015,-0.615,0.282,0.778,-18.13,-41.29,20.6,3,6
18602.031,-0.576,0.188,0.691,-20.48,-39.06,29.79,3,6
18602.031,-0.567,0.063,0.614,-26.52,-29.6,32.44,3,6
18602.046,-0.582,-0.149,0.615,-33.66,-17.33,23.9,3,6
18602.062,-0.69,-0.251,0.662,-28.93,-4.36,8.67,3,6
18602.062,-0.719,-0.203,0.659,-17.46,3.75,-1.43,3,6
18602.078,-0.686,-0.133,0.701,-9.67,7.66,-9.77,3,6
18602.093,-0.638,-0.067,0.76,-1.74,9.89,-16.08,3,6
18602.093,-0.61,0.027,0.8,8.27,11.02,-18.31,3,6
18602.109,-0.606,0.085,0.781,15.63,10.22,-16.3,3,6
18602.109,-0.567,0.129,0.785,15.5,9.61,-11.44,3,6
18602.125,-0.537,0.16,0.784,11.69,9.92,-5.92,3,6
18602.14,-0.506,0.141,0.797,6.9,11.66,-0.43,3,6
18602.156,-0.483,0.157,0.803,4.36,14.92,3.69,3,6
18602.156,-0.489,0.143,0.822,3.6,18.65,6.1,3,6
18602.171,-0.501,0.119,0.851,3.48,21.39,6.07,3,6
18602.171,-0.489,0.134,0.859,4.33,21.55,3.63,3,6
18602.187,-0.46,0.123,0.867,6.07,19.9,-0.64,3,6
18602.203,-0.441,0.124,0.884,8.18,18.13,-6.38,3,6
18602.203,-0.441,0.106,0.911,12.24,15.93,-12.79,3,6
18602.218,-0.459,0.129,0.928,17.43,12.6,-19.38,3,6
18602.234,-0.482,0.148,0.916,22.37,8.3,-24.17,3,6
18602.234,-0.483,0.148,0.893,24.75,3.33,-27.68,3,6
18602.25,-0.459,0.148,0.869,26.76,0.06,-31.13,3,6
18602.25,-0.442,0.136,0.852,30.24,-0.79,-35.55,3,6
18602.265,-0.454,0.147,0.847,35.74,0.46,-39.61,3,6
18602.281,-0.485,0.18,0.842,41.17,1.37,-41.84,3,6
18602.281,-0.497,0.2,0.833,43.31,0.43,-41.14,3,6
18602.296,-0.51,0.228,0.817,41.41,-0.7,-38.82,3,6
18602.312,-0.528,0.235,0.801,30.3,-3.08,-29.18,3,6
18602.312,-0.525,0.217,0.791,27.07,-2.53,-24.26,3,6
18602.328,-0.51,0.201,0.788,24.69,-1.28,-21.03,3,6
18602.343,-0.506,0.177,0.809,22.74,-0.95,-19.84,3,6
18602.343,-0.539,0.15,0.846,21.39,-1.4,-19.41,3,6
18602.359,-0.573,0.146,0.846,19.23,-3.69,-19.38,3,6
18602.359,-0.598,0.137,0.823,14.53,-6.53,-17.46,3,6
18602.375,-0.594,0.14,0.78,7.93,-7.66,-13.64,3,6
18602.39,-0.59,0.116,0.767,1.43,-6.35,-9.61,3,6
18602.406,-0.579,0.086,0.783,-0.58,-3.33,-7.57,3,6
18602.406,-0.574,0.076,0.791,2.72,-0.31,-7.97,3,6
18602.421,-0.578,0.079,0.803,5.98,1.98,-9.37,3,6
18602.421,-0.595,0.083,0.846,5.43,1.65,-11.35,3,6
18602.437,-0.602,0.072,0.891,4.39,-1.89,-13.79,3,6
18602.453,-0.581,0.055,0.915,5.01,-6.81,-15.93,3,6
18602.453,-0.591,0.048,0.934,7.23,-12.57,-19.71,3,6
18602.468,-0.602,0.037,0.931,8.76,-18.22,-22.98,3,6
18602.468,-0.566,0.026,0.931,8.58,-23.74,-25.24,3,6
18602.484,-0.541,0.032,0.92,9.4,-26.83,-27.22,3,6
18602.5,-0.515,0.027,0.917,10.38,-27.86,-28.69,3,6
18602.515,-0.489,0.012,0.934,12.24,-27.83,-30.4,3,6
18602.515,-0.456,-0.016,0.972,15.05,-27.59,-33.39,3,6
18602.531,-0.417,-0.055,1.031,18.31,-29.69,-39.28,3,6
18602.531,-0.361,-0.095,1.091,23.99,-33.63,-47.73,3,6
18602.546,-0.327,-0.11,1.163,31.5,-39.28,-59.18,3,6
18602.562,-0.326,-0.096,1.247,39.92,-48.07,-73.06,3,6
18602.562,-0.339,-0.039,1.262,47.88,-61.83,-86.73,3,6
18602.578,-0.315,-0.026,1.293,49.17,-77.39,-96.22,3,6
18602.593,-0.317,0.058,1.3,51.7,-91.8,-100.96,3,6
18602.593,-0.304,0.105,1.282,54.32,-103.46,-97.66,3,6
18602.609,-0.292,0.144,1.267,53.68,-111.91,-88.93,3,6
18602.625,-0.272,0.16,1.263,49.96,-117.4,-76.75,3,6
18602.625,-0.265,0.145,1.282,43.49,-120.98,-63.97,3,6
18602.64,-0.276,0.08,1.339,35.62,-124.7,-52.16,3,6
18602.64,-0.329,0.018,1.423,29.36,-129.4,-42.57,3,6
18602.656,-0.393,-0.054,1.473,24.84,-137.24,-35.71,3,6
18602.671,-0.414,-0.143,1.492,20.69,-148.29,-31.65,3,6
18602.671,-0.4,-0.223,1.498,16.27,-160.19,-32.62,3,6
18602.687,-0.378,-0.284,1.501,14.13,-170.72,-39.06,3,6
18602.703,-0.368,-0.309,1.497,15.11,-178.62,-48.52,3,6
18602.703,-0.388,-0.276,1.52,16.79,-184.64,-59.27,3,6
18602.718,-0.415,-0.219,1.529,18.62,-191.38,-67.29,3,6
18602.734,-0.417,-0.136,1.499,19.78,-198.28,-69.37,3,6
18602.734,-0.397,-0.03,1.45,18.49,-202.03,-64.03,3,6
18602.75,-0.358,0.068,1.375,11.05,-201.88,-51.7,3,6
18602.765,-0.301,0.136,1.299,-4.79,-197.33,-33.54,3,6
18602.765,-0.25,0.186,1.242,-25.64,-187.48,-10.16,3,6
18602.781,-0.219,0.216,1.19,-49.2,-173.77,16.17,3,6
18602.781,-0.196,0.206,1.166,-71.6,-158.12,43.52,3,6
18602.796,-0.187,0.163,1.145,-89.14,-142.46,69.98,3,6
18602.812,-0.171,0.128,1.122,-103.4,-128.15,92.65,3,6
18602.812,-0.143,0.087,1.086,-115.57,-114.81,109.1,3,6
18602.828,-0.089,0.062,1.064,-125.8,-101.66,118.11,3,6
18602.843,-0.047,0.058,1.051,-132.63,-88.81,120.49,3,6
18602.843,-0.027,0.067,1.061,-135.69,-77.03,120.03,3,6
18602.859,-0.029,0.088,1.057,-135.47,-66.81,121.07,3,6
18602.875,-0.018,0.135,1.038,-137.0,-57.8,125.1,3,6
18602.875,-0.006,0.168,0.996,-141.7,-49.1,130.92,3,6
18602.89,0.02,0.163,0.968,-148.72,-39.83,138.49,3,6
18602.89,0.049,0.15,0.941,-155.06,-28.72,146.03,3,6
18602.906,0.078,0.118,0.924,-159.92,-15.99,153.02,3,6
18602.921,0.091,0.084,0.923,-164.13,-2.35,158.79,3,6
18602.921,0.091,0.049,0.951,-168.95,10.07,161.99,3,6
18602.937,0.074,0.006,1.007,-171.67,19.32,163.24,3,6
18602.953,0.052,-0.034,1.053,-170.6,25.42,164.25,3,6
18602.953,0.038,-0.059,1.087,-169.13,28.38,165.14,3,6
18602.968,0.027,-0.109,1.092,-168.65,28.08,164.8,3,6
18602.984,0.029,-0.165,1.069,-168.89,26.46,163.03,3,6
18602.984,0.006,-0.226,1.05,-167.97,25.79,159.12,3,6
18603.0,0.0,-0.244,1.001,-163.27,26.28,153.9,3,6
18603.015,-0.024,-0.275,0.941,-160.28,26.25,144.93,3,6
18603.015,-0.068,-0.33,0.897,-160.95,26.7,135.62,3,6
18603.031,-0.078,-0.372,0.85,-160.1,26.22,127.81,3,6
18603.046,-0.073,-0.394,0.814,-156.83,29.36,120.12,3,6
18603.046,-0.118,-0.439,0.776,-151.62,35.95,112.98,3,6
18603.062,-0.136,-0.451,0.734,-143.86,40.96,105.78,3,6
18603.062,-0.146,-0.447,0.695,-138.8,45.32,95.86,3,6
18603.078,-0.162,-0.464,0.708,-138.77,50.6,85.67,3,6
18603.093,-0.178,-0.485,0.727,-134.74,57.62,76.6,3,6
18603.093,-0.205,-0.452,0.724,-125.98,62.87,66.9,3,6
18603.109,-0.218,-0.405,0.711,-119.66,62.62,54.96,3,6
18603.125,-0.228,-0.393,0.71,-120.27,61.19,44.22,3,6
18603.125,-0.249,-0.399,0.726,-124.49,60.15,36.35,3,6
18603.14,-0.278,-0.412,0.72,-123.17,56.49,30.24,3,6
18603.14,-0.289,-0.41,0.659,-117.65,52.22,26.31,3,6
18603.156,-0.263,-0.389,0.614,-113.41,50.11,21.85,3,6
18603.171,-0.209,-0.394,0.589,-108.77,51.73,19.47,3,6
18603.187,-0.226,-0.366,0.561,-106.08,58.08,20.6,3,6
18603.187,-0.239,-0.363,0.568,-108.71,64.97,23.56,3,6
18603.203,-0.269,-0.387,0.602,-112.58,70.86,26.31,3,6
18603.203,-0.323,-0.441,0.613,-114.26,72.63,27.07,3,6
18603.218,-0.291,-0.483,0.648,-112.31,68.54,24.78,3,6
18603.234,-0.295,-0.496,0.666,-103.76,64.49,18.98,3,6
18603.234,-0.31,-0.504,0.663,-95.37,58.57,13.15,3,6
18603.25,-0.296,-0.504,0.681,-90.21,50.17,8.24,3,6
18603.25,-0.316,-0.509,0.67,-85.27,42.85,4.82,3,6
18603.265,-0.313,-0.534,0.653,-82.28,36.41,4.3,3,6
18603.281,-0.28,-0.562,0.618,-77.67,29.51,3.48,3,6
18603.281,-0.258,-0.591,0.557,-64.39,16.33,-4.3,3,6
18603.296,-0.263,-0.63,0.511,-57.44,15.47,-8.7,3,6
18603.312,-0.24,-0.668,0.478,-51.91,14.25,-13.0,3,6
18603.312,-0.233,-0.686,0.46,-50.51,13.67,-16.42,3,6
18603.328,-0.274,-0.712,0.516,-49.65,11.38,-19.41,3,6
18603.343,-0.291,-0.699,0.531,-43.64,4.3,-21.85,3,6
18603.343,-0.272,-0.654,0.528,-35.83,-5.28,-21.91,3,6
18603.359,-0.281,-0.574,0.494,-31.31,-13.49,-19.68,3,6
18603.359,-0.252,-0.553,0.463,-31.86,-19.44,-14.92,3,6
18603.375,-0.245,-0.543,0.449,-32.47,-20.72,-7.26,3,6
18603.39,-0.239,-0.513,0.434,-32.41,-21.58,1.53,3,6
18603.39,-0.234,-0.517,0.442,-35.95,-21.52,10.96,3,6
18603.406,-0.32,-0.585,0.421,-41.05,-19.29,21.55,3,6
18603.421,-0.341,-0.654,0.381,-45.08,-18.89,32.17,3,6
18603.421,-0.316,-0.7,0.365,-46.08,-17.76,40.38,3,6
18603.437,-0.273,-0.746,0.365,-46.42,-13.46,48.4,3,6
18603.453,-0.244,-0.78,0.421,-48.28,-7.02,55.73,3,6
18603.453,-0.251,-0.825,0.509,-48.83,-2.53,61.46,3,6
18603.468,-0.263,-0.853,0.585,-48.19,-2.81,65.74,3,6
18603.484,-0.318,-0.893,0.619,-48.68,-8.12,65.46,3,6
18603.484,-0.389,-0.947,0.598,-49.41,-20.23,58.26,3,6
18603.5,-0.446,-0.983,0.528,-44.34,-38.18,41.29,3,6
18603.515,-0.444,-0.969,0.418,-30.37,-57.44,17.61,3,6
18603.515,-0.387,-0.903,0.299,-14.95,-70.5,-3.48,3,6
18603.531,-0.32,-0.826,0.242,-8.0,-72.08,-14.44,3,6
18603.531,-0.268,-0.752,0.241,-7.87,-64.42,-13.61,3,6
18603.546,-0.26,-0.679,0.288,-11.72,-50.94,-2.53,3,6
18603.562,-0.318,-0.672,0.315,-19.56,-39.89,12.91,3,6
18603.562,-0.343,-0.702,0.345,-29.69,-34.21,28.47,3,6
18603.578,-0.391,-0.795,0.318,-32.9,-30.76,39.46,3,6
18603.593,-0.365,-0.834,0.299,-33.69,-31.68,42.6,3,6
18603.593,-0.345,-0.858,0.309,-34.64,-27.92,40.41,3,6
18603.609,-0.365,-0.904,0.325,-36.81,-21.03,41.02,3,6
18603.625,-0.381,-0.918,0.321,-38.36,-16.08,41.08,3,6
18603.625,-0.363,-0.921,0.309,-39.37,-14.62,37.51,3,6
18603.64,-0.358,-0.93,0.292,-40.44,-11.02,31.92,3,6
18603.656,-0.375,-0.932,0.324,-41.81,-6.47,26.49,3,6
18603.671,-0.41,-0.932,0.36,-39.64,-3.69,20.48,3,6
18603.687,-0.454,-0.924,0.373,-35.71,-3.39,14.5,3,6
18603.703,-0.466,-0.943,0.374,-34.21,-5.49,9.06,3,6
18603.703,-0.48,-0.978,0.331,-32.07,-7.66,3.69,3,6
18603.718,-0.466,-0.986,0.275,-30.03,-7.42,-0.79,3,6
18603.734,-0.46,-0.993,0.241,-30.49,-4.09,-6.96,3,6
18603.75,-0.455,-0.997,0.23,-30.73,0.06,-12.97,3,6
18603.765,-0.465,-0.964,0.221,-28.93,4.79,-19.14,3,6
18603.781,-0.506,-0.924,0.198,-27.65,9.46,-26.64,3,6
18603.781,-0.509,-0.874,0.192,-26.86,13.18,-34.06,3,6
18603.796,-0.489,-0.832,0.228,-23.68,17.79,-39.16,3,6
18603.812,-0.452,-0.797,0.26,-20.66,22.52,-38.21,3,6
18603.812,-0.446,-0.779,0.306,-22.89,25.51,-35.58,3,6
18603.812,-0.427,-0.825,0.336,-22.64,23.74,-34.24,3,6
18603.828,-0.375,-0.839,0.31,-18.8,17.73,-36.38,3,6
18603.828,-0.284,-0.851,0.302,-14.95,10.68,-42.94,3,6
18603.843,-0.25,-0.843,0.298,-9.09,3.42,-52.06,3,6
18603.843,-0.247,-0.822,0.277,-3.63,-4.88,-58.17,3,6
18603.843,-0.228,-0.786,0.238,-2.93,-13.67,-58.26,3,6
18603.843,-0.236,-0.791,0.193,-5.4,-21.76,-53.71,3,6
18603.859,-0.231,-0.834,0.146,-8.27,-27.04,-44.19,3,6
18603.875,-0.234,-0.862,0.143,-8.55,-28.72,-33.51,3,6
18603.875,-0.226,-0.893,0.171,-5.86,-28.78,-23.53,3,6
18603.89,-0.222,-0.918,0.2,-5.92,-29.02,-17.06,3,6
18603.89,-0.221,-0.969,0.244,-7.42,-30.49,-15.5,3,6
18603.906,-0.27,-1.012,0.277,-5.25,-33.39,-17.33,3,6
18603.921,-0.279,-1.043,0.281,-2.93,-38.76,-22.46,3,6
18603.921,-0.232,-1.059,0.29,-0.49,-44.68,-32.41,3,6
18603.937,-0.203,-1.046,0.299,6.35,-49.62,-44.1,3,6
18603.953,-0.179,-0.996,0.307,14.28,-53.5,-53.59,3,6
18603.953,-0.165,-0.934,0.314,18.43,-57.77,-58.44,3,6
18603.968,-0.218,-0.888,0.3,18.65,-60.3,-57.04,3,6
18603.984,-0.229,-0.861,0.267,14.34,-62.01,-51.09,3,6
18603.984,-0.208,-0.859,0.237,9.06,-61.74,-44.13,3,6
18604.0,-0.197,-0.889,0.226,5.49,-56.43,-36.44,3,6
18604.0,-0.152,-0.916,0.239,3.05,-49.41,-30.18,3,6
18604.015,-0.15,-0.948,0.271,2.96,-43.79,-27.62,3,6
18604.031,-0.181,-0.987,0.283,3.2,-41.32,-27.41,3,6
18604.031,-0.182,-1.009,0.256,1.74,-41.63,-29.97,3,6
18604.046,-0.189,-1.022,0.22,0.79,-40.35,-34.21,3,6
18604.062,-0.156,-1.014,0.192,1.59,-36.96,-36.81,3,6
18604.062,-0.119,-0.956,0.201,2.5,-31.37,-36.65,3,6
18604.078,-0.095,-0.91,0.242,2.62,-25.21,-33.42,3,6
18604.093,-0.064,-0.877,0.272,1.25,-21.64,-28.05,3,6
18604.093,-0.066,-0.881,0.277,-2.08,-20.6,-21.73,3,6
18604.109,-0.044,-0.919,0.261,-6.62,-21.24,-15.53,3,6
18604.109,-0.026,-0.938,0.244,-9.52,-20.81,-10.99,3,6
18604.125,-0.038,-0.954,0.22,-9.43,-18.28,-8.21,3,6
18604.14,-0.042,-0.969,0.202,-9.03,-16.39,-5.46,3,6
18604.156,-0.039,-0.984,0.189,-9.37,-14.34,-2.56,3,6
18604.156,-0.074,-0.988,0.167,-10.59,-11.11,-0.95,3,6
18604.171,-0.093,-0.997,0.156,-12.54,-7.87,-0.09,3,6
18604.171,-0.092,-0.981,0.175,-13.64,-3.33,1.04,3,6
18604.187,-0.089,-0.961,0.188,-14.07,1.86,3.17,3,6
18604.203,-0.09,-0.945,0.219,-15.99,5.83,5.4,3,6
18604.218,-0.106,-0.955,0.249,-17.24,7.66,6.65,3,6
18604.218,-0.116,-0.972,0.258,-17.43,7.14,6.78,3,6
18604.234,-0.097,-0.985,0.275,-17.06,5.07,4.91,3,6
18604.234,-0.082,-0.998,0.282,-14.13,3.17,1.53,3,6
18604.25,-0.084,-0.99,0.292,-11.35,2.04,-2.17,3,6
18604.25,-0.081,-0.977,0.302,-9.43,0.24,-6.5,3,6
18604.265,-0.085,-0.959,0.314,-7.69,-2.17,-10.93,3,6
18604.281,-0.081,-0.948,0.329,-1.77,-8.15,-17.06,3,6
18604.281,-0.065,-0.928,0.324,0.0,-10.44,-17.91,3,6
18604.296,-0.061,-0.903,0.3,-0.79,-10.9,-17.0,3,6
18604.312,-0.051,-0.898,0.291,-1.04,-10.16,-14.92,3,6
18604.328,-0.08,-0.898,0.269,-0.43,-9.19,-11.38,3,6
18604.328,-0.107,-0.914,0.232,-2.2,-7.9,-6.29,3,6
18604.328,-0.093,-0.932,0.227,-6.29,-6.26,-1.62,3,6
18604.343,-0.083,-0.951,0.229,-8.39,-4.15,0.92,3,6
18604.359,-0.062,-0.974,0.229,-8.21,-1.62,2.56,3,6
18604.359,-0.046,-0.987,0.244,-7.9,1.04,4.3,3,6
18604.375,-0.054,-1.004,0.258,-8.82,2.62,4.88,3,6
18604.39,-0.065,-1.027,0.274,-10.1,2.11,3.42,3,6
18604.39,-0.088,-1.041,0.266,-8.91,0.21,0.67,3,6
18604.406,-0.084,-1.033,0.249,-7.14,-2.23,-1.98,3,6
18604.421,-0.074,-1.02,0.224,-6.5,-3.66,-3.05,3,6
18604.421,-0.095,-1.007,0.2,-8.06,-2.38,-1.98,3,6
18604.437,-0.083,-1.005,0.188,-10.96,-0.03,0.18,3,6
18604.453,-0.072,-0.993,0.193,-11.87,2.78,2.41,3,6
18604.453,-0.076,-0.97,0.199,-11.78,5.4,4.76,3,6
18604.468,-0.087,-0.954,0.218,-12.33,7.11,6.81,3,6
18604.468,-0.108,-0.948,0.233,-12.63,8.09,8.76,3,6
18604.484,-0.114,-0.948,0.242,-13.03,8.06,10.96,3,6
18604.5,-0.105,-0.965,0.242,-14.53,8.09,12.27,3,6
18604.515,-0.083,-0.983,0.251,-14.71,8.24,11.29,3,6
18604.515,-0.081,-0.984,0.277,-12.15,7.9,8.33,3,6
18604.531,-0.098,-0.976,0.297,-10.25,5.71,5.28,3,6
18604.531,-0.119,-0.97,0.301,-9.92,1.1,1.8,3,6
18604.546,-0.136,-0.979,0.274,-8.85,-4.21,-0.95,3,6
18604.562,-0.123,-0.977,0.221,-7.93,-7.51,-2.84,3,6
18604.562,-0.11,-0.969,0.184,-7.51,-7.32,-5.83,3,6
18604.578,-0.129,-0.961,0.16,-6.23,-4.79,-8.3,3,6
18604.593,-0.129,-0.938,0.143,-6.04,-2.04,-8.79,3,6
18604.593,-0.125,-0.936,0.153,-6.74,0.4,-8.12,3,6
18604.609,-0.131,-0.943,0.159,-6.16,2.69,-6.1,3,6
18604.609,-0.121,-0.934,0.17,-6.26,4.64,-3.63,3,6
18604.625,-0.121,-0.94,0.188,-7.54,5.31,-2.17,3,6
18604.64,-0.127,-0.952,0.196,-7.81,4.55,-1.37,3,6
18604.656,-0.109,-0.962,0.199,-6.99,3.08,-0.79,3,6
18604.656,-0.104,-0.972,0.21,-6.01,1.92,-1.4,3,6
18604.671,-0.124,-0.977,0.214,-5.07,0.67,-1.68,3,6
18604.671,-0.136,-0.981,0.198,-6.29,-0.79,-1.43,3,6
18604.687,-0.135,-0.999,0.184,-7.9,-1.8,-2.17,3,6
18604.703,-0.158,-1.0,0.162,-6.47,-1.07,-3.66,3,6
18604.703,-0.153,-0.985,0.136,-5.52,0.79,-4.94,3,6
18604.718,-0.141,-0.973,0.14,-6.13,3.81,-5.89,3,6
18604.734,-0.159,-0.961,0.146,-6.1,7.54,-5.25,3,6
18604.734,-0.149,-0.96,0.15,-6.01,9.55,-4.06,3,6
18604.75,-0.137,-0.974,0.167,-5.4,10.83,-3.91,3,6
18604.75,-0.14,-0.974,0.195,-3.97,11.17,-4.49,3,6
18604.765,-0.134,-0.972,0.225,-2.81,9.03,-6.01,3,6
18604.781,-0.129,-0.988,0.243,-1.01,5.07,-9.31,3,6
18604.796,-0.135,-0.991,0.236,2.53,0.73,-13.55,3,6
18604.796,-0.136,-0.992,0.221,6.38,-3.36,-18.56,3,6
18604.812,-0.15,-0.97,0.196,9.13,-5.74,-23.65,3,6
18604.812,-0.139,-0.942,0.179,11.84,-6.74,-26.89,3,6
18604.828,-0.126,-0.897,0.155,14.22,-5.95,-27.19,3,6
18604.843,-0.12,-0.868,0.136,13.92,-3.97,-25.09,3,6
18604.843,-0.112,-0.863,0.119,12.51,-1.46,-20.84,3,6
18604.859,-0.109,-0.856,0.11,10.28,2.11,-15.08,3,6
18604.859,-0.096,-0.858,0.113,6.47,5.8,-9.22,3,6
18604.875,-0.082,-0.875,0.132,2.99,9.0,-4.58,3,6
18604.89,-0.07,-0.888,0.154,2.2,11.17,-1.92,3,6
18604.906,-0.062,-0.886,0.171,3.6,11.75,-0.79,3,6
18604.906,-0.054,-0.872,0.192,3.78,10.83,-0.49,3,6
18604.921,-0.05,-0.872,0.204,4.39,9.13,0.09,3,6
18604.921,-0.046,-0.86,0.209,5.43,6.93,2.04,3,6
18604.937,-0.053,-0.856,0.188,5.22,5.52,4.43,3,6
18604.953,-0.051,-0.865,0.158,4.03,4.97,7.05,3,6
18604.953,-0.03,-0.865,0.137,3.08,5.86,9.55,3,6
18604.968,-0.022,-0.863,0.122,2.56,8.82,11.14,3,6
18604.984,-0.029,-0.851,0.129,2.04,12.6,12.05,3,6
18604.984,-0.028,-0.843,0.151,2.08,15.41,12.73,3,6
18605.0,-0.044,-0.832,0.171,3.51,17.18,13.37,3,6
18605.0,-0.041,-0.818,0.193,3.75,17.33,14.37,3,6
18605.015,-0.04,-0.812,0.223,4.27,16.39,14.83,3,6
18605.031,-0.048,-0.802,0.233,6.47,14.07,15.38,3,6
18605.031,-0.039,-0.784,0.234,7.05,10.99,15.5,3,6
18605.046,-0.032,-0.783,0.231,7.45,7.6,15.05,3,6
18605.062,-0.038,-0.79,0.216,9.64,4.52,14.16,3,6
18605.078,-0.046,-0.798,0.195,13.12,2.26,12.15,3,6
18605.078,-0.051,-0.803,0.174,16.11,0.7,9.52,3,6
18605.093,-0.054,-0.803,0.164,17.55,0.0,7.11,3,6
18605.093,-0.053,-0.808,0.167,17.91,-0.58,4.67,3,6
18605.109,-0.055,-0.816,0.182,20.39,-0.85,2.04,3,6
18605.125,-0.065,-0.812,0.195,26.4,-1.5,-0.15,3,6
18605.125,-0.074,-0.797,0.197,31.62,-2.53,-1.07,3,6
18605.14,-0.078,-0.803,0.202,34.27,-3.88,-1.28,3,6
18605.14,-0.069,-0.815,0.208,35.86,-5.07,-0.82,3,6
18605.156,-0.06,-0.824,0.218,37.26,-5.83,-0.67,3,6
18605.171,-0.058,-0.846,0.23,39.77,-7.05,-1.92,3,6
18605.171,-0.062,-0.852,0.245,43.58,-8.79,-4.21,3,6
18605.187,-0.068,-0.86,0.268,46.05,-11.6,-7.93,3,6
18605.203,-0.081,-0.881,0.283,48.89,-15.26,-12.39,3,6
18605.203,-0.092,-0.903,0.282,54.45,-19.07,-17.88,3,6
18605.218,-0.102,-0.9,0.272,59.82,-21.67,-23.99,3,6
18605.234,-0.112,-0.903,0.268,61.77,-22.49,-28.72,3,6
18605.234,-0.093,-0.867,0.261,60.91,-20.57,-30.79,3,6
18605.25,-0.084,-0.829,0.27,59.39,-15.72,-29.57,3,6
18605.25,-0.083,-0.787,0.295,55.09,-4.43,-14.95,3,6
18605.265,-0.085,-0.749,0.319,53.99,-1.01,-5.52,3,6
18605.281,-0.096,-0.735,0.347,52.52,0.67,3.66,3,6
18605.281,-0.094,-0.744,0.372,51.88,2.69,10.38,3,6
18605.296,-0.101,-0.813,0.412,53.25,3.63,14.07,3,6
18605.312,-0.098,-0.85,0.417,53.74,3.57,15.81,3,6
18605.328,-0.084,-0.876,0.427,53.68,4.43,15.32,3,6
18605.328,-0.088,-0.892,0.438,54.35,5.89,13.15,3,6
18605.328,-0.103,-0.888,0.46,55.85,6.5,9.64,3,6
18605.343,-0.117,-0.882,0.489,58.44,5.37,5.49,3,6
18605.359,-0.114,-0.866,0.502,61.71,3.3,2.26,3,6
18605.359,-0.108,-0.835,0.501,63.14,1.19,0.37,3,6
18605.375,-0.084,-0.833,0.507,60.91,-0.09,-0.21,3,6
18605.39,-0.078,-0.826,0.524,59.57,0.85,0.46,3,6
18605.39,-0.091,-0.803,0.536,60.34,2.87,1.98,3,6
18605.406,-0.103,-0.776,0.547,59.79,3.69,3.6,3,6
18605.421,-0.097,-0.781,0.556,59.02,3.17,4.82,3,6
18605.421,-0.083,-0.792,0.555,59.91,2.53,5.83,3,6
18605.437,-0.075,-0.794,0.552,60.82,2.93,6.38,3,6
18605.453,-0.082,-0.795,0.559,61.07,3.85,6.16,3,6
18605.453,-0.099,-0.79,0.571,60.88,4.61,5.4,3,6
18605.468,-0.092,-0.782,0.581,60.88,4.73,3.78,3,6
18605.484,-0.091,-0.773,0.596,62.78,5.25,2.78,3,6
18605.484,-0.091,-0.762,0.617,64.85,5.95,3.66,3,6
18605.5,-0.086,-0.764,0.642,65.07,5.92,5.22,3,6
18605.5,-0.095,-0.772,0.652,64.27,5.34,5.95,3,6
18605.515,-0.101,-0.777,0.666,63.69,4.73,5.89,3,6
18605.531,-0.104,-0.765,0.668,64.39,4.7,4.94,3,6
18605.531,-0.111,-0.76,0.674,65.25,4.73,3.81,3,6
18605.546,-0.117,-0.747,0.679,65.0,5.43,2.66,3,6
18605.562,-0.11,-0.752,0.691,65.31,5.8,0.89,3,6
18605.562,-0.106,-0.743,0.706,66.93,6.78,-0.73,3,6
18605.578,-0.111,-0.716,0.714,68.91,6.9,-3.85,3,6
18605.593,-0.117,-0.688,0.736,70.62,5.71,-7.9,3,6
18605.593,-0.118,-0.651,0.75,72.76,4.39,-11.41,3,6
18605.609,-0.115,-0.613,0.744,74.53,3.08,-14.44,3,6
18605.609,-0.122,-0.576,0.748,76.48,1.89,-15.99,3,6
18605.625,-0.143,-0.501,0.719,79.71,1.8,-16.75,3,6
18605.64,-0.15,-0.424,0.692,81.18,1.8,-15.38,3,6
18605.64,-0.155,-0.367,0.678,81.45,3.2,-9.4,3,6
18605.656,-0.142,-0.356,0.661,81.58,6.99,4.94,3,6
18605.671,-0.127,-0.374,0.653,78.86,13.52,23.1,3,6
18605.671,-0.125,-0.424,0.675,74.1,21.49,37.57,3,6
18605.687,-0.143,-0.501,0.74,71.6,28.08,45.81,3,6
18605.703,-0.176,-0.538,0.809,72.45,31.5,48.65,3,6
18605.703,-0.188,-0.574,0.859,74.89,30.46,46.69,3,6
18605.718,-0.183,-0.605,0.9,78.01,26.95,41.6,3,6
18605.734,-0.186,-0.606,0.928,80.63,23.29,35.77,3,6
18605.734,-0.172,-0.611,0.939,81.24,18.52,29.48,3,6
18605.75,-0.147,-0.596,0.953,81.36,14.44,23.41,3,6
18605.75,-0.143,-0.59,0.95,82.98,11.72,19.07,3,6
18605.765,-0.15,-0.56,0.936,82.61,9.67,17.67,3,6
18605.781,-0.172,-0.536,0.924,80.32,9.34,17.03,3,6
18605.781,-0.188,-0.526,0.921,77.21,10.59,18.62,3,6
18605.796,-0.192,-0.518,0.927,74.1,13.0,21.52,3,6
18605.812,-0.199,-0.533,0.946,72.27,15.63,22.92,3,6
18605.828,-0.197,-0.553,0.975,72.3,17.82,22.13,3,6
18605.828,-0.191,-0.562,0.988,73.67,18.8,18.95,3,6
18605.843,-0.179,-0.589,0.986,75.66,17.12,15.11,3,6
18605.843,-0.155,-0.587,0.977,76.45,15.47,11.35,3,6
18605.859,-0.13,-0.581,0.944,75.9,15.44,7.11,3,6
18605.875,-0.149,-0.557,0.944,73.4,18.22,3.81,3,6
18605.875,-0.212,-0.539,0.99,72.02,21.82,2.66,3,6
18605.89,-0.286,-0.489,1.025,70.99,23.8,4.82,3,6
18605.89,-0.334,-0.438,1.015,69.73,22.58,8.3,3,6
18605.906,-0.319,-0.405,1.008,65.55,19.53,12.12,3,6
18605.921,-0.273,-0.394,1.023,59.3,16.63,14.44,3,6
18605.921,-0.232,-0.427,1.014,59.42,14.59,16.91,3,6
18605.937,-0.204,-0.419,1.02,61.86,15.44,20.66,3,6
18605.953,-0.205,-0.417,1.044,61.28,16.94,21.33,3,6
18605.953,-0.216,-0.437,1.076,59.57,15.75,18.16,3,6
18605.968,-0.219,-0.442,1.11,60.98,13.64,14.07,3,6
18605.984,-0.243,-0.431,1.135,64.94,10.32,10.77,3,6
18605.984,-0.257,-0.396,1.135,68.48,5.4,9.98,3,6
18606.0,-0.258,-0.371,1.087,71.23,0.24,9.64,3,6
18606.0,-0.25,-0.358,1.041,70.13,-4.3,9.13,3,6
18606.015,-0.243,-0.335,1.012,67.42,-3.36,9.46,3,6
18606.031,-0.283,-0.316,1.003,65.07,0.52,11.47,3,6
18606.031,-0.295,-0.295,1.007,61.8,3.81,14.77,3,6
18606.046,-0.309,-0.26,1.005,60.58,7.39,16.14,3,6
18606.062,-0.323,-0.232,1.011,59.24,9.03,17.03,3,6
18606.062,-0.3,-0.23,1.017,57.01,9.13,18.34,3,6
18606.078,-0.261,-0.234,1.016,57.01,8.79,20.42,3,6
18606.093,-0.26,-0.232,1.017,54.9,10.1,23.83,3,6
18606.093,-0.276,-0.244,1.022,49.99,11.6,25.73,3,6
18606.109,-0.293,-0.25,1.039,47.4,12.21,25.21,3,6
18606.125,-0.304,-0.242,1.042,48.19,11.47,22.37,3,6
18606.125,-0.302,-0.223,1.029,49.56,10.96,17.3,3,6
18606.14,-0.311,-0.18,1.011,51.39,11.17,10.38,3,6
18606.14,-0.31,-0.116,0.984,52.86,11.17,3.39,3,6
18606.156,-0.292,-0.049,0.969,54.32,10.28,-2.14,3,6
18606.171,-0.283,-0.01,0.964,56.0,9.83,-1.16,3,6
18606.171,-0.268,0.041,0.947,54.84,11.26,7.17,3,6
18606.187,-0.244,0.067,0.942,52.25,14.01,18.37,3,6
18606.203,-0.263,0.049,0.96,48.49,18.52,31.16,3,6
18606.203,-0.298,0.02,0.986,43.49,22.25,42.57,3,6
18606.218,-0.308,-0.036,1.009,40.22,23.87,49.81,3,6
18606.218,-0.305,-0.102,1.029,40.1,23.93,52.0,3,6
18606.234,-0.3,-0.142,1.048,42.05,23.26,49.87,3,6
18606.25,-0.304,-0.173,1.055,45.96,18.77,38.79,3,6
18606.265,-0.294,-0.201,1.07,47.27,16.66,33.85,3,6
18606.265,-0.301,-0.177,1.093,49.01,13.95,31.01,3,6
18606.281,-0.316,-0.124,1.103,48.59,10.9,29.6,3,6
18606.281,-0.324,-0.096,1.101,47.3,8.33,28.87,3,6
18606.296,-0.326,-0.081,1.087,46.24,6.44,30.21,3,6
18606.312,-0.32,-0.055,1.076,44.74,5.92,33.6,3,6
18606.312,-0.327,-0.046,1.076,42.05,5.98,36.65,3,6
18606.328,-0.332,-0.052,1.082,38.45,5.28,39.55,3,6
18606.343,-0.339,-0.065,1.095,35.71,3.75,42.12,3,6
18606.343,-0.342,-0.092,1.089,33.63,1.22,42.79,3,6
18606.359,-0.339,-0.124,1.081,32.23,-1.56,40.31,3,6
18606.359,-0.353,-0.121,1.092,33.08,-3.51,36.1,3,6
18606.375,-0.38,-0.109,1.07,35.98,-5.46,32.99,3,6
18606.39,-0.4,-0.1,1.023,35.55,-7.23,31.68,3,6
18606.406,-0.4,-0.089,0.982,31.83,-7.2,31.8,3,6
18606.406,-0.384,-0.099,0.949,28.17,-4.94,32.01,3,6
18606.421,-0.375,-0.105,0.929,26.15,-0.76,31.37,3,6
18606.421,-0.38,-0.1,0.93,25.09,4.06,29.24,3,6
18606.437,-0.383,-0.099,0.949,24.84,7.72,25.39,3,6
18606.453,-0.389,-0.098,0.975,26.22,9.55,19.99,3,6
18606.453,-0.401,-0.081,1.013,29.79,9.0,13.37,3,6
18606.468,-0.412,-0.051,1.021,34.85,5.77,5.92,3,6
18606.484,-0.416,0.008,1.006,37.45,1.01,-0.95,3,6
18606.484,-0.425,0.047,0.982,36.41,-3.17,-5.43,3,6
18606.5,-0.42,0.059,0.94,33.48,-5.86,-7.08,3,6
18606.5,-0.386,0.066,0.903,31.19,-5.52,-7.51,3,6
18606.515,-0.363,0.079,0.87,30.34,-1.92,-8.33,3,6
18606.531,-0.352,0.105,0.864,29.82,3.02,-9.86,3,6
18606.531,-0.359,0.131,0.877,29.6,7.35,-11.41,3,6
18606.546,-0.369,0.169,0.899,30.06,10.35,-11.44,3,6
18606.562,-0.388,0.216,0.915,31.25,12.15,-9.09,3,6
18606.562,-0.391,0.242,0.913,30.76,12.85,-4.18,3,6
18606.578,-0.369,0.239,0.913,28.2,13.21,1.28,3,6
18606.593,-0.263,0.038,1.001,27.77,12.85,1.1,3,6
18606.593,-0.256,-0.067,1.057,29.85,11.26,-9.4,3,6
18606.609,-0.323,-0.008,1.079,35.71,5.34,-21.52,3,6
18606.609,-0.334,0.047,1.025,41.41,-1.8,-28.84,3,6
18606.625,-0.312,0.086,0.995,37.69,-5.55,-30.79,3,6
18606.64,-0.299,0.07,0.99,32.11,-5.22,-30.3,3,6
18606.656,-0.303,0.033,1.019,31.86,-2.66,-27.89,3,6
18606.656,-0.315,-0.007,1.039,38.06,-0.7,-23.68,3,6
18606.671,-0.309,-0.023,1.026,40.83,0.06,-18.28,3,6
18606.671,-0.294,-0.039,1.013,34.94,1.28,-14.68,3,6
18606.687,-0.271,-0.051,1.017,25.33,2.59,-13.82,3,6
18606.703,-0.268,-0.048,1.026,19.23,4.36,-14.83,3,6
18606.703,-0.277,0.008,1.022,17.46,6.16,-15.53,3,6
18606.718,-0.299,0.099,1.011,16.08,7.35,-13.55,3,6
18606.734,-0.301,0.156,0.998,12.3,7.81,-8.48,3,6
18606.734,-0.303,0.198,0.961,7.42,8.51,-1.46,3,6
18606.75,-0.297,0.237,0.921,2.93,10.62,5.83,3,6
18606.75,-0.313,0.283,0.899,-1.22,13.86,12.39,3,6
18606.765,-0.337,0.306,0.892,-5.55,16.11,18.34,3,6
18606.781,-0.354,0.325,0.88,-9.13,17.67,24.96,3,6
18606.796,-0.347,0.326,0.872,-12.88,18.95,31.53,3,6
18606.796,-0.328,0.34,0.866,-18.56,18.52,35.22,3,6
18606.812,-0.33,0.325,0.875,-22.77,17.85,36.44,3,6
18606.812,-0.349,0.314,0.877,-22.58,17.12,36.96,3,6
18606.828,-0.362,0.336,0.875,-19.75,15.78,38.58,3,6
18606.843,-0.38,0.325,0.864,-18.1,15.29,40.77,3,6
18606.843,-0.382,0.289,0.869,-18.46,15.14,42.45,3,6
18606.859,-0.363,0.26,0.869,-17.67,15.2,42.85,3,6
18606.875,-0.345,0.252,0.882,-15.81,16.17,40.28,3,6
18606.875,-0.349,0.238,0.896,-13.79,16.02,34.82,3,6
18606.89,-0.355,0.234,0.917,-12.24,13.43,28.5,3,6
18606.89,-0.39,0.231,0.927,-8.51,9.86,22.22,3,6
18606.906,-0.422,0.218,0.909,-4.12,5.37,16.14,3,6
18606.921,-0.447,0.222,0.901,0.0,1.83,10.01,3,6
18606.921,-0.456,0.212,0.88,3.42,-1.04,6.23,3,6
18606.937,-0.432,0.204,0.859,4.12,-2.5,4.58,3,6
18606.953,-0.416,0.191,0.842,4.76,-0.67,3.57,3,6
18606.953,-0.42,0.167,0.815,5.65,2.59,2.81,3,6
18606.968,-0.416,0.154,0.81,6.01,7.05,1.89,3,6
18606.984,-0.436,0.154,0.856,7.6,12.09,0.18,3,6
18606.984,-0.48,0.165,0.875,11.35,14.89,-1.25,3,6
18607.0,-0.484,0.186,0.885,12.85,14.25,-1.04,3,6
18607.0,-0.472,0.199,0.919,12.12,12.09,-1.37,3,6
18607.015,-0.458,0.201,0.943,9.89,7.81,-2.75,3,6
18607.031,-0.454,0.204,0.944,6.84,2.08,-4.15,3,6
18607.031,-0.424,0.177,0.918,4.88,-3.81,-5.65,3,6
18607.046,-0.389,0.16,0.885,5.4,-6.65,-7.78,3,6
18607.062,-0.372,0.155,0.867,8.06,-5.71,-10.04,3,6
18607.062,-0.364,0.151,0.881,10.77,-3.57,-12.45,3,6
18607.078,-0.37,0.151,0.919,14.01,-1.92,-15.35,3,6
18607.093,-0.388,0.169,0.926,17.55,-1.98,-15.9,3,6
18607.093,-0.382,0.188,0.929,15.63,-3.88,-14.37,3,6
18607.109,-0.377,0.17,0.93,10.56,-5.89,-14.1,3,6
18607.109,-0.362,0.136,0.92,7.29,-7.48,-15.08,3,6
18607.125,-0.328,0.131,0.905,6.96,-7.97,-17.73,3,6
18607.14,-0.327,0.172,0.905,8.7,-6.23,-21.61,3,6
18607.14,-0.351,0.217,0.91,9.64,-4.52,-23.47,3,6
18607.156,-0.346,0.253,0.923,8.18,-4.76,-23.1,3,6
18607.171,-0.357,0.3,0.931,6.68,-5.37,-21.21,3,6
18607.171,-0.37,0.31,0.924,4.49,-6.47,-15.93,3,6
18607.187,-0.356,0.289,0.912,0.64,-7.72,-9.58,3,6
18607.203,-0.345,0.252,0.902,-2.38,-7.72,-5.74,3,6
18607.203,-0.341,0.219,0.897,-3.54,-6.5,-4.21,3,6
18607.218,-0.341,0.198,0.896,-2.72,-4.55,-5.22,3,6
18607.234,-0.354,0.191,0.888,0.7,-1.34,-11.41,3,6
18607.234,-0.373,0.192,0.888,1.53,-1.01,-13.37,3,6
18607.25,-0.389,0.193,0.883,1.31,-0.82,-14.68,3,6
18607.25,-0.402,0.2,0.874,1.04,-0.58,-15.14,3,6
18607.265,-0.422,0.23,0.902,1.56,-1.92,-13.46,3,6
18607.281,-0.412,0.237,0.904,1.86,-4.3,-10.86,3,6
18607.281,-0.396,0.232,0.889,1.62,-6.62,-8.97,3,6
18607.296,-0.374,0.226,0.875,0.37,-7.87,-7.72,3,6
18607.312,-0.377,0.228,0.859,-0.27,-6.71,-6.78,3,6
18607.312,-0.385,0.224,0.868,-1.19,-4.58,-4.67,3,6
18607.328,-0.377,0.204,0.876,-2.47,-3.05,-2.84,3,6
18607.343,-0.368,0.188,0.885,-2.99,-1.86,-2.84,3,6
18607.343,-0.377,0.182,0.89,-1.71,-0.95,-4.43,3,6
18607.359,-0.384,0.182,0.891,-0.06,-0.98,-6.29,3,6
18607.359,-0.383,0.187,0.883,0.58,-1.77,-8.48,3,6
18607.375,-0.4,0.207,0.894,1.68,-1.89,-11.29,3,6
18607.39,-0.418,0.223,0.9,3.88,-2.81,-11.14,3,6
18607.39,-0.401,0.232,0.895,3.17,-4.76,-8.64,3,6
18607.406,-0.382,0.222,0.891,0.34,-5.92,-8.27,3,6
18607.421,-0.384,0.199,0.892,0.06,-6.07,-9.46,3,6
18607.437,-0.38,0.208,0.888,2.26,-5.8,-9.46,3,6
18607.437,-0.37,0.221,0.873,2.78,-5.46,-9.34,3,6
18607.453,-0.369,0.217,0.875,1.43,-4.52,-10.28,3,6
18607.453,-0.37,0.219,0.88,2.23,-3.94,-10.99,3,6
18607.468,-0.374,0.234,0.879,3.6,-3.81,-10.16,3,6
18607.484,-0.37,0.231,0.869,2.5,-3.66,-8.97,3,6
18607.484,-0.36,0.209,0.869,1.07,-2.99,-8.73,3,6
18607.5,-0.365,0.203,0.888,2.26,-1.4,-9.61,3,6
18607.5,-0.392,0.224,0.905,4.58,0.06,-9.22,3,6
18607.515,-0.403,0.241,0.915,3.42,-0.67,-7.05,3,6
18607.531,-0.398,0.224,0.921,0.37,-2.93,-5.92,3,6
18607.531,-0.384,0.198,0.909,-0.4,-5.16,-5.95,3,6
18607.546,-0.37,0.2,0.89,0.27,-6.2,-6.29,3,6
18607.562,-0.378,0.213,0.884,0.52,-5.4,-7.57,3,6
18607.578,-0.392,0.221,0.883,0.7,-4.46,-8.03,3,6
18607.578,-0.395,0.235,0.878,1.1,-3.63,-6.5,3,6
18607.593,-0.387,0.235,0.873,0.0,-3.05,-4.27,3,6
18607.593,-0.376,0.21,0.875,-1.74,-2.44,-3.08,3,6
18607.609,-0.382,0.195,0.875,-1.95,-1.22,-2.62,3,6
18607.625,-0.389,0.197,0.879,-1.95,-0.12,-2.2,3,6
18607.625,-0.393,0.192,0.891,-2.62,0.03,-2.23,3,6
18607.64,-0.389,0.179,0.896,-2.78,-0.85,-3.02,3,6
18607.64,-0.381,0.176,0.895,-2.11,-1.71,-4.3,3,6
18607.656,-0.38,0.185,0.894,-1.16,-2.04,-5.77,3,6
18607.671,-0.382,0.197,0.902,-0.52,-1.71,-7.05,3,6
18607.671,-0.386,0.212,0.9,0.7,-1.46,-7.17,3,6
18607.687,-0.382,0.225,0.901,0.61,-1.68,-6.1,3,6
18607.703,-0.375,0.224,0.902,0.55,-1.68,-5.01,3,6
18607.703,-0.371,0.222,0.895,0.92,-1.83,-3.02,3,6
18607.718,-0.367,0.217,0.898,0.64,-2.01,-1.04,3,6
18607.734,-0.369,0.213,0.897,0.46,-1.77,0.0,3,6
18607.734,-0.377,0.204,0.891,0.27,-1.65,0.76,3,6
18607.75,-0.374,0.198,0.896,-0.52,-1.68,0.95,3,6
18607.75,-0.367,0.192,0.897,-0.43,-1.74,0.18,3,6
18607.765,-0.368,0.186,0.894,0.76,-1.46,-0.43,3,6
18607.781,-0.363,0.186,0.89,1.34,-0.92,-1.04,3,6
18607.796,-0.354,0.184,0.89,1.62,0.0,-2.59,3,6
18607.796,-0.368,0.196,0.907,2.72,1.16,-4.3,3,6
18607.812,-0.397,0.215,0.92,3.72,0.82,-4.33,3,6
18607.812,-0.395,0.23,0.921,1.98,-1.28,-2.78,3,6
18607.828,-0.386,0.229,0.919,-0.18,-3.48,-1.34,3,6
18607.843,-0.378,0.216,0.904,-0.98,-5.31,0.37,3,6
18607.843,-0.363,0.21,0.883,-1.25,-6.2,1.62,3,6
18607.859,-0.356,0.207,0.872,-0.79,-5.31,1.46,3,6
18607.875,-0.366,0.2,0.873,0.09,-3.33,1.5,3,6
18607.875,-0.368,0.197,0.88,0.09,-2.2,2.2,3,6
18607.89,-0.364,0.186,0.886,-0.43,-1.59,1.65,3,6
18607.89,-0.373,0.186,0.888,-0.21,-0.92,0.09,3,6
18607.906,-0.38,0.192,0.886,0.55,-0.58,-0.21,3,6
18607.921,-0.368,0.194,0.881,0.09,-0.09,0.0,3,6
18607.921,-0.358,0.186,0.882,-0.18,0.89,-0.95,3,6
18607.937,-0.378,0.196,0.903,1.04,2.11,-2.38,3,6
18607.953,-0.405,0.206,0.919,3.17,1.65,-2.17,3,6
18607.953,-0.394,0.211,0.916,3.23,-1.01,-0.52,3,6
18607.968,-0.378,0.214,0.908,1.22,-3.02,-0.03,3,6
18607.984,-0.385,0.2,0.897,-0.09,-3.81,-0.61,3,6
18607.984,-0.388,0.193,0.888,-0.31,-4.46,-0.95,3,6
18608.0,-0.39,0.202,0.889,0.98,-4.39,-1.13,3,6
18608.0,-0.393,0.203,0.885,1.56,-4.21,-0.58,3,6
18608.015,-0.377,0.194,0.88,0.24,-4.24,-0.06,3,6
18608.031,-0.358,0.186,0.875,-0.21,-3.48,-0.92,3,6
18608.031,-0.363,0.195,0.877,0.92,-1.4,-2.38,3,6
18608.046,-0.373,0.205,0.886,1.74,0.21,-2.66,3,6
18608.062,-0.372,0.21,0.896,1.37,0.52,-2.17,3,6
18608.062,-0.379,0.211,0.92,0.82,0.34,-2.17,3,6
18608.078,-0.404,0.213,0.924,1.59,-0.98,-1.83,3,6
18608.093,-0.396,0.218,0.917,1.04,-3.69,0.18,3,6
18608.093,-0.367,0.208,0.904,-0.98,-5.89,1.34,3,6
18608.109,-0.361,0.191,0.888,-1.34,-6.1,0.64,3,6
18608.109,-0.358,0.183,0.878,0.34,-5.22,-0.43,3,6
18608.125,-0.356,0.197,0.876,2.11,-3.75,-1.53,3,6
18608.14,-0.372,0.207,0.878,2.66,-1.95,-2.59,3,6
18608.14,-0.379,0.203,0.883,1.89,-0.92,-2.87,3,6
18608.156,-0.379,0.198,0.888,0.92,-0.37,-2.93,3,6
18608.171,-0.377,0.189,0.892,0.49,0.27,-3.48,3,6
18608.171,-0.382,0.184,0.901,1.07,0.46,-4.52,3,6
18608.187,-0.385,0.199,0.908,1.92,0.12,-5.49,3,6
18608.203,-0.386,0.22,0.913,1.86,-0.76,-5.86,3,6
18608.203,-0.386,0.225,0.916,0.89,-2.23,-5.46,3,6
18608.218,-0.377,0.223,0.914,1.19,-4.7,-3.02,3,6
18608.234,-0.365,0.227,0.911,2.29,-4.94,-2.14,3,6
18608.234,-0.362,0.225,0.902,2.62,-5.01,-0.89,3,6
18608.25,-0.357,0.217,0.891,2.72,-4.76,0.58,3,6
18608.25,-0.355,0.218,0.887,2.59,-4.0,1.37,3,6
18608.265,-0.357,0.217,0.89,1.31,-2.81,2.08,3,6
18608.281,-0.369,0.206,0.899,-0.27,-2.14,2.26,3,6
18608.281,-0.384,0.197,0.9,-0.12,-2.11,2.41,3,6
18608.296,-0.377,0.192,0.895,0.37,-2.72,3.27,3,6
18608.312,-0.358,0.188,0.883,-0.18,-3.02,3.23,3,6
18608.312,-0.354,0.188,0.889,-0.52,-2.17,1.68,3,6
18608.328,-0.378,0.196,0.901,1.13,-1.16,0.4,3,6
18608.328,-0.386,0.214,0.901,2.11,-1.62,0.73,3,6
18608.343,-0.382,0.218,0.897,1.13,-2.84,1.07,3,6
18608.359,-0.384,0.213,0.902,0.52,-3.08,0.79,3,6
18608.375,-0.383,0.214,0.9,1.59,-3.2,1.71,3,6
18608.375,-0.36,0.217,0.895,1.46,-3.75,3.27,3,6
18608.39,-0.345,0.21,0.889,0.09,-3.66,3.08,3,6
18608.406,-0.35,0.212,0.883,-0.52,-2.35,2.23,3,6
18608.406,-0.36,0.218,0.89,-0.73,-0.61,2.66,3,6
18608.421,-0.372,0.212,0.895,-1.83,0.37,3.57,3,6
18608.421,-0.372,0.19,0.898,-3.11,0.12,3.3,3,6
18608.437,-0.366,0.173,0.906,-1.89,-0.18,1.68,3,6
18608.453,-0.38,0.184,0.911,1.34,-0.37,-0.43,3,6
18608.453,-0.393,0.203,0.908,3.05,-1.53,-1.62,3,6
18608.468,-0.386,0.205,0.899,2.32,-3.51,-2.35,3,6
18608.484,-0.375,0.19,0.888,1.53,-4.36,-3.45,3,6
18608.484,-0.373,0.181,0.876,1.95,-3.51,-4.76,3,6
18608.5,-0.365,0.18,0.869,2.08,-1.89,-6.16,3,6
18608.5,-0.363,0.19,0.866,2.14,0.64,-7.97,3,6
18608.515,-0.366,0.206,0.89,2.01,2.72,-8.91,3,6
18608.531,-0.38,0.225,0.916,1.8,3.27,-9.31,3,6
18608.531,-0.391,0.242,0.929,1.43,1.53,-7.87,3,6
18608.546,-0.38,0.25,0.927,0.0,-1.4,-4.46,3,6
18608.562,-0.366,0.244,0.925,-1.95,-3.94,-1.53,3,6
18608.562,-0.356,0.22,0.906,-3.27,-5.62,0.12,3,6
18608.578,-0.344,0.196,0.893,-3.14,-5.49,0.4,3,6
18608.593,-0.35,0.18,0.882,-0.67,-3.63,-0.58,3,6
18608.593,-0.364,0.176,0.877,1.46,-1.46,-2.01,3,6
