timestamp,ax,ay,az,gx,gy,gz,orient_label,motion_label
18718.812,-0.311,0.296,0.867,9.95,9.09,2.87,4,0
18718.812,-0.321,0.299,0.887,8.45,9.19,1.56,4,0
18718.828,-0.334,0.295,0.91,7.69,8.0,0.27,4,0
18718.843,-0.337,0.295,0.923,8.09,5.77,-0.67,4,0
18718.843,-0.341,0.298,0.918,9.77,3.33,-1.46,4,0
18718.859,-0.347,0.303,0.906,10.47,0.95,-1.89,4,0
18718.875,-0.344,0.31,0.892,9.55,-0.89,-2.11,4,0
18718.875,-0.342,0.309,0.881,7.48,-1.37,-1.59,4,0
18718.89,-0.351,0.304,0.881,5.16,-1.07,-0.49,4,0
18718.906,-0.349,0.299,0.881,3.51,-0.67,0.79,4,0
18718.906,-0.344,0.291,0.87,2.5,0.27,2.2,4,0
18718.921,-0.35,0.286,0.877,0.7,1.74,2.72,4,0
18718.921,-0.362,0.277,0.886,-0.79,2.47,2.53,4,0
18718.937,-0.362,0.273,0.887,-1.92,2.56,2.29,4,0
18718.953,-0.36,0.269,0.889,-2.14,2.96,1.19,4,0
18718.953,-0.375,0.269,0.889,-1.37,3.3,-0.64,4,0
18718.968,-0.391,0.278,0.896,-0.85,2.47,-2.41,4,0
18719.0,-0.384,0.3,0.883,-1.34,-0.79,-4.27,4,0
18719.0,-0.379,0.302,0.872,-2.11,-2.17,-4.7,4,0
18719.015,-0.365,0.303,0.853,-2.41,-2.9,-4.7,4,0
18719.015,-0.353,0.303,0.83,-1.92,-2.53,-4.27,4,0
18719.031,-0.349,0.302,0.813,-1.22,-1.31,-3.88,4,0
18719.046,-0.347,0.309,0.808,-1.62,0.37,-3.02,4,0
18719.046,-0.342,0.306,0.811,-2.72,1.74,-2.11,4,0
18719.062,-0.342,0.299,0.815,-3.48,3.11,-1.4,4,0
18719.078,-0.347,0.298,0.826,-3.2,4.46,-0.61,4,0
18719.078,-0.36,0.3,0.84,-2.41,5.04,-0.12,4,0
18719.093,-0.374,0.306,0.857,-2.11,4.67,0.12,4,0
18719.093,-0.381,0.311,0.867,-2.35,3.42,0.58,4,0
18719.109,-0.384,0.311,0.874,-3.14,1.56,1.1,4,0
18719.125,-0.382,0.306,0.874,-4.09,0.18,1.89,4,0
18719.125,-0.378,0.302,0.869,-4.18,0.0,2.59,4,0
18719.14,-0.383,0.3,0.864,-4.09,0.34,2.78,4,0
18719.156,-0.385,0.293,0.874,-5.37,1.62,1.04,4,0
18719.171,-0.386,0.297,0.878,-3.72,2.62,0.09,4,0
18719.171,-0.389,0.306,0.888,-2.41,3.33,-0.52,4,0
18719.187,-0.394,0.31,0.901,-1.8,3.48,-0.92,4,0
18719.203,-0.397,0.316,0.916,-1.68,2.32,-0.73,4,0
18719.218,-0.386,0.314,0.922,-2.23,-0.09,-0.06,4,0
18719.218,-0.378,0.309,0.92,-2.47,-2.17,0.31,4,0
18719.234,-0.369,0.313,0.912,-3.11,-4.24,0.76,4,0
18719.234,-0.349,0.301,0.898,-4.94,-6.32,1.19,4,0
18719.25,-0.331,0.289,0.885,-5.86,-6.84,0.92,4,0
18719.265,-0.322,0.284,0.872,-4.55,-6.26,0.24,4,0
18719.265,-0.318,0.284,0.861,-2.08,-5.19,-0.64,4,0
18719.281,-0.32,0.3,0.857,-0.43,-3.66,-1.56,4,0
18719.296,-0.326,0.305,0.859,-0.09,-2.56,-1.92,4,0
18719.296,-0.332,0.317,0.872,-0.52,-1.62,-2.2,4,0
18719.312,-0.356,0.324,0.888,-1.4,-1.5,-1.43,4,0
18719.328,-0.368,0.317,0.914,-5.68,-4.91,3.66,4,0
18719.343,-0.363,0.312,0.932,-9.86,-7.6,5.65,4,0
18719.343,-0.363,0.292,0.928,-12.24,-9.98,6.56,4,0
18719.359,-0.358,0.261,0.907,-10.01,-11.6,6.71,4,0
18719.375,-0.351,0.264,0.89,-6.81,-11.63,5.1,4,0
18719.375,-0.346,0.256,0.876,-4.39,-10.59,2.08,4,0
18719.39,-0.343,0.244,0.866,-1.43,-8.82,-1.37,4,0
18719.406,-0.349,0.261,0.86,1.4,-6.2,-3.6,4,0
18719.406,-0.344,0.274,0.868,2.53,-3.91,-4.91,4,0
18719.421,-0.349,0.288,0.861,1.46,0.49,-5.31,4,0
18719.437,-0.371,0.307,0.894,1.07,-0.27,-3.27,4,0
18719.437,-0.385,0.308,0.903,-0.82,-2.96,-1.28,4,0
18719.453,-0.37,0.318,0.906,-2.47,-5.13,-0.21,4,0
18719.453,-0.342,0.287,0.87,-2.9,-5.31,0.21,4,0
18719.468,-0.342,0.284,0.857,-1.43,-4.06,0.4,4,0
18719.484,-0.343,0.282,0.848,-0.37,-2.78,0.55,4,0
18719.484,-0.34,0.285,0.843,-0.43,-1.31,0.55,4,0
18719.5,-0.34,0.281,0.849,-0.24,0.46,0.15,4,0
18719.515,-0.351,0.284,0.859,0.76,2.08,-0.43,4,0
18719.515,-0.366,0.288,0.874,1.8,3.05,-0.79,4,0
18719.531,-0.377,0.297,0.888,1.83,2.66,-0.76,4,0
18719.546,-0.374,0.297,0.891,1.34,1.19,-0.18,4,0
18719.546,-0.363,0.292,0.881,1.19,-0.09,0.73,4,0
18719.562,-0.351,0.291,0.866,1.01,0.09,1.56,4,0
18719.578,-0.351,0.284,0.854,0.55,1.07,2.01,4,0
18719.578,-0.358,0.276,0.857,-0.43,2.38,2.14,4,0
18719.593,-0.356,0.269,0.858,-1.34,3.63,2.17,4,0
18719.593,-0.353,0.263,0.86,-1.62,5.13,1.4,4,0
18719.609,-0.365,0.263,0.876,-0.55,7.05,-0.15,4,0
18719.625,-0.381,0.271,0.891,1.28,7.45,-1.25,4,0
18719.625,-0.382,0.282,0.895,2.41,6.32,-2.04,4,0
18719.64,-0.386,0.288,0.902,2.44,4.82,-2.87,4,0
18719.656,-0.397,0.292,0.912,2.5,2.78,-2.93,4,0
18719.671,-0.387,0.298,0.906,1.74,-0.03,-1.74,4,0
18719.671,-0.362,0.293,0.879,0.31,-2.23,-0.89,4,0
18719.671,-0.347,0.278,0.851,-0.4,-1.59,-0.55,4,0
18719.687,-0.347,0.27,0.84,-0.43,1.19,-0.58,4,0
18719.703,-0.35,0.272,0.84,0.15,4.3,-1.19,4,0
18719.703,-0.354,0.276,0.842,0.85,6.71,-2.2,4,0
18719.718,-0.35,0.281,0.853,1.13,8.27,-3.11,4,0
18719.734,-0.357,0.29,0.871,1.77,9.64,-3.88,4,0
18719.734,-0.373,0.306,0.899,1.92,8.82,-3.75,4,0
18719.75,-0.371,0.308,0.906,1.46,5.86,-2.56,4,0
18719.765,-0.355,0.307,0.896,0.67,2.84,-1.22,4,0
18719.765,-0.342,0.302,0.874,0.52,1.1,-0.03,4,0
18719.781,-0.335,0.303,0.855,-0.03,1.31,1.04,4,0
18719.796,-0.339,0.304,0.846,-1.4,2.81,2.44,4,0
18719.796,-0.344,0.295,0.838,-2.75,4.67,3.66,4,0
18719.812,-0.354,0.297,0.842,-3.97,6.93,4.94,4,0
18719.812,-0.36,0.291,0.852,-5.19,8.42,5.98,4,0
18719.828,-0.358,0.293,0.858,-6.5,9.86,6.71,4,0
18719.843,-0.367,0.294,0.873,-7.26,10.86,7.08,4,0
18719.843,-0.378,0.297,0.89,-7.35,10.99,7.9,4,0
18719.859,-0.381,0.298,0.897,-7.84,9.7,9.31,4,0
18719.875,-0.372,0.286,0.889,-8.67,7.84,10.71,4,0
18719.875,-0.365,0.284,0.879,-9.03,6.78,11.9,4,0
18719.89,-0.36,0.283,0.868,-9.74,5.98,12.27,4,0
18719.906,-0.359,0.271,0.859,-11.6,5.77,11.84,4,0
18719.906,-0.364,0.266,0.862,-12.02,6.23,10.59,4,0
18719.921,-0.37,0.257,0.856,-10.44,6.5,8.85,4,0
18719.937,-0.374,0.267,0.856,-8.27,6.59,6.35,4,0
18719.937,-0.382,0.272,0.855,-6.1,6.41,3.23,4,0
18719.953,-0.384,0.277,0.85,-3.23,6.26,0.76,4,0
18719.953,-0.39,0.288,0.847,-0.21,6.74,-1.22,4,0
18719.968,-0.402,0.302,0.844,1.62,7.78,-2.01,4,0
18719.984,-0.414,0.315,0.844,1.46,8.3,-1.77,4,0
18719.984,-0.423,0.315,0.851,-0.06,8.09,-0.67,4,0
18720.0,-0.421,0.309,0.854,-1.98,7.26,0.79,4,0
18720.015,-0.424,0.3,0.858,-2.2,6.93,1.86,4,0
18720.015,-0.427,0.298,0.856,-1.37,6.44,2.53,4,0
18720.031,-0.423,0.291,0.851,-0.73,5.8,2.81,4,0
18720.046,-0.423,0.28,0.845,0.24,6.04,2.53,4,0
18720.046,-0.423,0.281,0.841,1.68,6.96,2.11,4,0
18720.062,-0.425,0.281,0.839,2.78,8.18,1.68,4,0
18720.078,-0.424,0.287,0.84,2.87,9.43,1.43,4,0
18720.078,-0.423,0.28,0.843,3.05,10.1,0.98,4,0
18720.093,-0.421,0.276,0.839,4.24,11.17,0.27,4,0
18720.093,-0.426,0.284,0.839,5.52,12.39,0.0,4,0
18720.109,-0.435,0.292,0.848,5.43,12.67,-0.37,4,0
18720.125,-0.433,0.295,0.857,3.81,11.99,-0.43,4,0
18720.125,-0.428,0.292,0.863,2.62,11.38,0.37,4,0
18720.14,-0.425,0.285,0.867,3.08,11.35,2.08,4,0
18720.156,-0.424,0.287,0.855,3.2,11.41,3.78,4,0
18720.156,-0.417,0.294,0.852,1.65,11.17,5.19,4,0
18720.171,-0.408,0.285,0.845,-0.03,11.47,6.16,4,0
18720.187,-0.409,0.284,0.857,-0.7,12.76,8.39,4,0
18720.203,-0.402,0.287,0.857,-1.01,12.76,9.52,4,0
18720.203,-0.395,0.282,0.857,-1.89,12.82,10.47,4,0
18720.218,-0.392,0.269,0.855,-2.26,13.4,11.51,4,0
18720.234,-0.392,0.263,0.856,-2.69,14.59,12.09,4,0
18720.25,-0.393,0.257,0.858,-3.66,15.78,12.3,4,0
18720.25,-0.397,0.251,0.863,-5.34,17.0,12.21,4,0
18720.265,-0.405,0.245,0.877,-6.71,17.85,12.09,4,0
18720.265,-0.413,0.244,0.898,-7.51,17.49,11.69,4,0
18720.281,-0.418,0.241,0.912,-7.32,15.78,10.71,4,0
18720.296,-0.417,0.236,0.912,-6.26,13.28,9.4,4,0
18720.296,-0.418,0.232,0.904,-4.52,10.5,7.32,4,0
18720.312,-0.414,0.226,0.891,-2.87,8.0,4.61,4,0
18720.312,-0.403,0.226,0.877,-1.16,6.44,1.77,4,0
18720.328,-0.397,0.229,0.861,1.01,6.32,-1.46,4,0
18720.343,-0.4,0.234,0.853,3.27,6.96,-4.64,4,0
18720.359,-0.412,0.262,0.859,4.64,8.0,-7.2,4,0
18720.375,-0.422,0.258,0.858,4.52,8.0,-7.75,4,0
18720.375,-0.437,0.272,0.863,4.06,8.15,-7.08,4,0
18720.39,-0.437,0.275,0.868,2.84,7.39,-5.58,4,0
18720.406,-0.44,0.276,0.864,0.0,6.5,-4.43,4,0
18720.406,-0.443,0.275,0.867,-6.81,3.14,-2.9,4,0
18720.421,-0.44,0.266,0.862,-7.78,1.86,-3.27,4,0
18720.437,-0.434,0.256,0.852,-6.99,1.37,-4.12,4,0
18720.437,-0.436,0.25,0.846,-5.43,1.01,-5.77,4,0
18720.453,-0.438,0.254,0.838,-3.45,1.07,-7.9,4,0
18720.453,-0.44,0.259,0.832,-1.68,1.28,-9.92,4,0
18720.468,-0.446,0.27,0.828,-0.31,1.74,-11.05,4,0
18720.484,-0.451,0.281,0.819,-0.34,2.26,-11.32,4,0
18720.484,-0.451,0.289,0.822,-1.98,2.81,-11.08,4,0
18720.5,-0.462,0.29,0.826,-3.6,3.36,-10.32,4,0
18720.515,-0.467,0.297,0.831,-5.16,3.27,-8.85,4,0
18720.531,-0.473,0.297,0.833,-7.08,1.1,-6.41,4,0
18720.546,-0.473,0.299,0.83,-7.23,-0.31,-5.86,4,0
18720.546,-0.473,0.302,0.817,-7.29,-1.16,-5.62,4,0
18720.562,-0.472,0.299,0.812,-7.2,-1.31,-5.16,4,0
18720.578,-0.474,0.297,0.803,-6.53,-0.49,-4.58,4,0
18720.578,-0.472,0.299,0.795,-6.29,0.64,-3.85,4,0
18720.593,-0.472,0.31,0.787,-7.26,2.29,-3.39,4,0
18720.593,-0.477,0.287,0.825,-7.87,3.6,-3.42,4,0
18720.609,-0.491,0.284,0.818,-5.58,3.39,-3.69,4,0
18720.625,-0.492,0.315,0.816,-4.52,2.47,-3.88,4,0
18720.625,-0.49,0.297,0.824,-3.88,1.77,-4.46,4,0
18720.64,-0.496,0.287,0.824,-2.44,1.4,-4.82,4,0
18720.656,-0.495,0.298,0.819,-0.92,0.76,-5.16,4,0
18720.656,-0.495,0.296,0.813,0.64,0.49,-5.77,4,0
18720.671,-0.496,0.292,0.81,1.86,0.85,-5.65,4,0
18720.671,-0.493,0.3,0.801,2.44,1.34,-5.04,4,0
18720.703,-0.492,0.3,0.809,1.95,3.45,-3.05,4,0
18720.703,-0.491,0.298,0.813,1.74,4.0,-1.65,4,0
18720.718,-0.49,0.292,0.815,1.04,4.3,-0.09,4,0
18720.734,-0.492,0.283,0.817,-0.34,4.3,1.43,4,0
18720.734,-0.488,0.272,0.819,-1.5,4.12,2.59,4,0
18720.75,-0.483,0.26,0.818,-2.01,4.12,3.27,4,0
18720.765,-0.485,0.255,0.82,-1.37,4.27,3.2,4,0
18720.765,-0.49,0.253,0.821,-0.55,4.39,2.93,4,0
18720.781,-0.49,0.254,0.821,-0.18,4.09,2.35,4,0
18720.796,-0.49,0.254,0.823,-0.18,3.81,1.56,4,0
18720.796,-0.487,0.25,0.822,-0.06,3.75,1.19,4,0
18720.812,-0.484,0.256,0.817,0.0,4.27,1.16,4,0
18720.812,-0.483,0.261,0.816,-0.4,5.19,0.92,4,0
18720.828,-0.49,0.26,0.826,-1.04,5.8,0.61,4,0
18720.843,-0.496,0.264,0.834,-1.43,5.46,0.79,4,0
18720.843,-0.493,0.266,0.837,-1.65,4.33,1.25,4,0
18720.859,-0.494,0.266,0.835,-1.43,3.33,1.65,4,0
18720.875,-0.491,0.267,0.829,-1.62,2.59,2.01,4,0
18720.875,-0.485,0.261,0.822,-1.92,2.41,2.32,4,0
18720.89,-0.484,0.255,0.82,-1.89,3.02,2.75,4,0
18720.906,-0.483,0.255,0.818,-1.34,4.06,2.87,4,0
18720.906,-0.484,0.253,0.825,-0.64,4.91,2.2,4,0
18720.921,-0.486,0.251,0.836,0.37,5.34,1.28,4,0
18720.937,-0.491,0.256,0.844,1.98,5.34,0.09,4,0
18720.937,-0.493,0.262,0.849,3.85,4.79,-1.04,4,0
18720.953,-0.494,0.264,0.848,5.49,3.78,-1.65,4,0
18720.953,-0.495,0.266,0.848,6.35,2.93,-1.56,4,0
18720.968,-0.49,0.267,0.843,6.35,2.14,-1.1,4,0
18720.984,-0.483,0.266,0.839,5.89,1.89,-0.67,4,0
18720.984,-0.483,0.26,0.839,5.83,2.26,-0.61,4,0
18721.0,-0.483,0.257,0.84,6.41,2.35,-0.49,4,0
18721.015,-0.478,0.261,0.838,7.11,2.47,-0.24,4,0
18721.015,-0.479,0.269,0.837,8.06,2.93,-0.03,4,0
18721.031,-0.485,0.266,0.835,7.9,3.33,0.7,4,0
18721.046,-0.478,0.262,0.836,7.29,3.42,1.74,4,0
18721.046,-0.477,0.261,0.832,6.53,3.88,2.59,4,0
18721.062,-0.473,0.256,0.837,5.4,4.09,3.63,4,0
18721.062,-0.467,0.25,0.843,4.3,4.03,4.91,4,0
18721.078,-0.47,0.245,0.843,3.39,3.75,5.92,4,0
18721.093,-0.471,0.239,0.846,2.23,3.54,6.68,4,0
18721.109,-0.47,0.233,0.846,1.01,3.02,7.02,4,0
18721.109,-0.469,0.224,0.848,0.37,2.41,6.74,4,0
18721.125,-0.472,0.222,0.848,0.09,2.14,6.29,4,0
18721.125,-0.472,0.214,0.843,-0.03,1.19,5.89,4,0
18721.14,-0.469,0.209,0.836,-0.92,0.03,5.28,4,0
18721.156,-0.465,0.2,0.829,-1.98,-0.98,4.49,4,0
18721.156,-0.465,0.194,0.821,-3.08,-1.53,3.33,4,0
18721.171,-0.462,0.188,0.815,-3.97,-1.71,1.83,4,0
18721.187,-0.466,0.185,0.816,-4.06,-1.37,-0.58,4,0
18721.187,-0.479,0.186,0.818,-3.17,-1.1,-3.51,4,0
18721.203,-0.482,0.195,0.819,-1.83,-1.37,-6.71,4,0
18721.203,-0.484,0.212,0.814,-0.27,-1.34,-9.8,4,0
18721.218,-0.486,0.229,0.808,0.89,-1.37,-12.24,4,0
18721.234,-0.492,0.245,0.806,1.22,-1.22,-14.04,4,0
18721.234,-0.501,0.258,0.807,1.16,-1.46,-14.86,4,0
18721.25,-0.505,0.271,0.802,1.04,-2.23,-14.8,4,0
18721.265,-0.505,0.278,0.798,0.85,-3.05,-14.13,4,0
18721.265,-0.5,0.281,0.79,0.34,-3.85,-13.21,4,0
18721.281,-0.497,0.287,0.782,-0.03,-3.72,-12.3,4,0
18721.296,-0.5,0.283,0.78,0.0,-2.99,-11.93,4,0
18721.296,-0.506,0.289,0.776,0.82,-1.77,-11.63,4,0
18721.312,-0.512,0.295,0.779,1.19,-0.49,-11.44,4,0
18721.312,-0.516,0.295,0.781,1.43,0.52,-11.05,4,0
18721.328,-0.519,0.299,0.788,2.08,1.62,-10.01,4,0
18721.343,-0.521,0.305,0.791,2.93,2.53,-8.3,4,0
18721.343,-0.519,0.302,0.791,2.53,3.23,-6.29,4,0
18721.359,-0.52,0.304,0.786,0.82,4.0,-4.03,4,0
18721.375,-0.53,0.304,0.79,-2.69,4.97,-1.04,4,0
18721.375,-0.529,0.3,0.796,-8.12,5.13,2.69,4,0
18721.39,-0.526,0.291,0.799,-18.43,4.94,9.4,4,0
18721.406,-0.522,0.277,0.804,-21.21,4.12,10.59,4,0
18721.406,-0.519,0.264,0.804,-21.91,3.23,10.19,4,0
18721.421,-0.512,0.252,0.799,-20.51,3.02,8.27,4,0
18721.437,-0.509,0.252,0.787,-17.98,3.11,5.68,4,0
18721.437,-0.508,0.27,0.787,-15.5,3.57,3.14,4,0
18721.453,-0.515,0.284,0.785,-13.58,4.12,1.34,4,0
18721.453,-0.521,0.304,0.788,-12.7,4.82,0.73,4,0
18721.468,-0.527,0.319,0.792,-12.3,5.07,1.04,4,0
18721.484,-0.529,0.316,0.795,-11.84,5.22,1.13,4,0
18721.5,-0.532,0.32,0.804,-10.44,5.65,1.25,4,0
18721.5,-0.539,0.322,0.809,-7.78,5.86,1.56,4,0
18721.515,-0.54,0.331,0.808,-5.25,5.83,2.17,4,0
18721.515,-0.542,0.333,0.812,-3.42,5.58,2.84,4,0
18721.531,-0.546,0.329,0.818,-1.62,5.37,3.88,4,0
18721.546,-0.546,0.328,0.819,0.85,5.25,5.65,4,0
18721.562,-0.546,0.322,0.819,4.12,5.62,10.07,4,0
18721.578,-0.546,0.314,0.819,3.81,5.89,12.7,4,0
18721.578,-0.537,0.302,0.819,1.5,5.83,15.93,4,0
18721.593,-0.525,0.283,0.824,-1.89,5.71,18.86,4,0
18721.593,-0.519,0.258,0.812,-3.78,5.34,20.75,4,0
18721.609,-0.513,0.239,0.803,-4.09,5.43,22.49,4,0
18721.625,-0.505,0.229,0.808,-5.34,5.8,23.13,4,0
18721.625,-0.506,0.203,0.816,-5.89,6.53,22.8,4,0
18721.64,-0.512,0.188,0.816,-5.01,6.38,21.88,4,0
18721.656,-0.51,0.197,0.811,-5.37,6.04,21.0,4,0
18721.656,-0.51,0.186,0.83,-6.32,5.8,19.14,4,0
18721.671,-0.512,0.177,0.841,-5.52,5.1,17.0,4,0
18721.687,-0.509,0.184,0.84,-4.3,3.54,14.98,4,0
18721.687,-0.501,0.185,0.835,-3.88,1.74,12.57,4,0
18721.703,-0.497,0.182,0.832,-3.75,0.55,9.74,4,0
18721.703,-0.491,0.181,0.822,-2.14,-0.18,6.87,4,0
18721.734,-0.495,0.194,0.816,0.18,0.58,2.35,4,0
18721.75,-0.507,0.205,0.822,0.89,0.73,0.15,4,0
18721.75,-0.514,0.212,0.826,1.28,0.21,-0.85,4,0
18721.765,-0.511,0.222,0.823,1.1,-0.55,-0.89,4,0
18721.765,-0.508,0.229,0.815,0.06,-0.95,-0.95,4,0
18721.781,-0.51,0.233,0.814,-1.43,-0.76,-1.1,4,0
18721.796,-0.51,0.231,0.815,-1.92,-0.52,-0.89,4,0
18721.796,-0.511,0.233,0.819,-1.77,-0.24,-0.58,4,0
18721.812,-0.509,0.238,0.824,-1.8,-0.4,-0.31,4,0
18721.828,-0.499,0.24,0.826,-1.77,-0.89,-0.46,4,0
18721.828,-0.492,0.239,0.829,-1.1,-1.04,-1.43,4,0
18721.843,-0.498,0.239,0.831,0.64,-0.76,-2.99,4,0
18721.843,-0.502,0.243,0.829,3.45,-0.76,-4.33,4,0
18721.859,-0.503,0.248,0.823,6.07,-0.95,-5.07,4,0
18721.875,-0.507,0.255,0.822,7.17,-1.13,-5.31,4,0
18721.875,-0.512,0.261,0.821,6.47,-1.5,-4.55,4,0
18721.906,-0.5,0.252,0.814,2.23,-2.44,-1.65,4,0
18721.906,-0.495,0.237,0.817,0.76,-1.95,-0.76,4,0
18721.921,-0.492,0.23,0.818,0.82,-1.65,-0.58,4,0
18721.921,-0.496,0.229,0.819,1.53,-1.25,-1.31,4,0
18721.937,-0.501,0.225,0.822,2.23,-1.43,-2.5,4,0
18721.953,-0.508,0.224,0.821,2.99,-1.89,-3.27,4,0
18721.953,-0.511,0.23,0.819,2.72,-2.69,-3.51,4,0
18721.968,-0.508,0.228,0.812,1.25,-3.63,-3.33,4,0
18721.984,-0.502,0.224,0.804,-0.73,-3.85,-3.23,4,0
18721.984,-0.502,0.219,0.803,-1.77,-3.51,-3.75,4,0
18722.0,-0.505,0.221,0.799,-1.62,-3.05,-4.46,4,0
18722.015,-0.504,0.227,0.797,-0.64,-2.78,-5.49,4,0
18722.015,-0.505,0.233,0.798,0.21,-2.2,-6.62,4,0
18722.031,-0.514,0.242,0.8,0.67,-1.65,-7.26,4,0
18722.046,-0.516,0.254,0.8,0.31,-1.86,-7.35,4,0
18722.046,-0.518,0.259,0.802,-0.43,-2.35,-7.51,4,0
18722.062,-0.522,0.265,0.797,-0.37,-2.59,-6.84,4,0
18722.078,-0.524,0.27,0.796,-0.46,-2.99,-6.65,4,0
18722.093,-0.519,0.271,0.794,-0.09,-3.33,-6.62,4,0
18722.109,-0.519,0.272,0.785,0.64,-3.02,-6.38,4,0
18722.109,-0.519,0.28,0.781,1.07,-2.35,-5.74,4,0
18722.125,-0.519,0.285,0.776,0.52,-1.65,-5.07,4,0
18722.125,-0.519,0.282,0.773,-0.79,-0.61,-4.09,4,0
18722.14,-0.519,0.273,0.777,-2.08,0.7,-2.75,4,0
18722.156,-0.522,0.27,0.784,-3.05,1.74,-1.62,4,0
18722.156,-0.529,0.267,0.801,-3.97,1.77,-1.37,4,0
18722.171,-0.531,0.266,0.81,-3.94,0.43,-1.43,4,0
18722.187,-0.525,0.266,0.806,-3.08,-1.46,-1.37,4,0
18722.187,-0.523,0.266,0.797,-2.17,-3.08,-1.62,4,0
18722.203,-0.518,0.266,0.782,-1.28,-3.66,-1.83,4,0
18722.203,-0.514,0.269,0.767,-0.7,-2.9,-1.98,4,0
18722.218,-0.519,0.271,0.76,-0.73,-1.25,-1.98,4,0
18722.234,-0.532,0.276,0.769,-1.5,2.38,-0.64,4,0
18722.25,-0.534,0.277,0.779,-2.47,3.6,0.18,4,0
18722.265,-0.543,0.273,0.79,-2.62,4.24,0.37,4,0
18722.281,-0.556,0.271,0.804,-1.95,3.94,0.64,4,0
18722.281,-0.554,0.276,0.804,-1.43,2.53,1.59,4,0
18722.281,-0.545,0.279,0.791,-1.71,1.16,2.29,4,0
18722.296,-0.541,0.273,0.788,-2.35,0.7,2.47,4,0
18722.312,-0.54,0.273,0.783,-2.66,0.95,3.17,4,0
18722.312,-0.532,0.276,0.778,-2.66,1.8,4.12,4,0
18722.328,-0.529,0.276,0.777,-3.08,3.11,4.67,4,0
18722.343,-0.534,0.275,0.779,-3.45,4.49,4.88,4,0
18722.343,-0.542,0.275,0.787,-3.39,5.22,5.46,4,0
18722.359,-0.54,0.278,0.793,-3.2,5.19,6.41,4,0
18722.375,-0.538,0.277,0.793,-3.57,4.76,8.51,4,0
18722.375,-0.537,0.274,0.79,-5.37,4.64,9.86,4,0
18722.39,-0.533,0.274,0.788,-7.6,4.76,11.11,4,0
18722.406,-0.527,0.267,0.789,-9.37,5.31,12.3,4,0
18722.406,-0.523,0.25,0.797,-10.83,6.01,13.06,4,0
18722.421,-0.523,0.245,0.803,-11.99,6.38,12.48,4,0
18722.421,-0.523,0.237,0.811,-11.93,6.26,11.02,4,0
18722.437,-0.522,0.24,0.815,-10.07,5.8,9.52,4,0
18722.453,-0.522,0.251,0.816,-7.84,5.34,8.0,4,0
18722.453,-0.528,0.261,0.82,-6.29,4.61,6.59,4,0
18722.468,-0.529,0.27,0.823,-5.16,3.45,6.04,4,0
18722.484,-0.526,0.276,0.82,-4.33,2.59,6.13,4,0
18722.484,-0.524,0.278,0.819,-3.63,2.35,6.13,4,0
18722.5,-0.525,0.276,0.818,-2.47,2.32,6.26,4,0
18722.515,-0.528,0.275,0.82,-0.76,2.35,6.35,4,0
18722.515,-0.532,0.275,0.822,1.19,2.11,6.5,4,0
18722.531,-0.529,0.272,0.823,3.02,1.56,6.78,4,0
18722.546,-0.526,0.268,0.82,4.12,1.31,7.48,4,0
18722.546,-0.527,0.265,0.82,4.61,1.59,8.36,4,0
18722.562,-0.531,0.256,0.824,4.43,1.83,9.19,4,0
18722.562,-0.529,0.242,0.828,3.81,1.86,9.67,4,0
18722.578,-0.53,0.229,0.836,3.94,1.37,9.8,4,0
18722.593,-0.531,0.219,0.839,4.64,0.52,9.43,4,0
18722.609,-0.524,0.214,0.836,5.74,-0.58,8.27,4,0
18722.609,-0.515,0.211,0.833,7.57,-1.83,6.65,4,0
18722.625,-0.515,0.211,0.821,9.19,-2.29,5.77,4,0
18722.625,-0.511,0.213,0.813,9.28,-2.11,5.89,4,0
18722.64,-0.513,0.213,0.809,7.66,-1.46,6.04,4,0
18722.656,-0.513,0.213,0.812,4.58,-0.98,6.56,4,0
18722.656,-0.515,0.204,0.813,2.5,-0.79,7.14,4,0
18722.671,-0.511,0.211,0.82,0.43,-0.98,7.81,4,0
18722.687,-0.509,0.207,0.817,-1.37,-1.31,8.18,4,0
18722.687,-0.509,0.203,0.816,-2.44,-1.92,7.75,4,0
18722.703,-0.508,0.202,0.812,-2.69,-2.32,6.78,4,0
18722.703,-0.507,0.195,0.809,-2.5,-2.59,5.86,4,0
18722.718,-0.506,0.198,0.807,-2.08,-2.62,4.79,4,0
18722.734,-0.506,0.202,0.802,-2.04,-2.59,3.69,4,0
18722.734,-0.504,0.202,0.798,-2.96,-2.38,3.08,4,0
18722.75,-0.503,0.206,0.796,-4.33,-2.26,2.56,4,0
18722.765,-0.505,0.208,0.796,-5.52,-1.65,1.37,4,0
18722.781,-0.513,0.211,0.798,-5.52,-1.31,-0.34,4,0
18722.781,-0.524,0.22,0.809,-4.43,-1.62,-1.89,4,0
18722.781,-0.528,0.233,0.805,-3.17,-2.75,-2.96,4,0
18722.796,-0.525,0.242,0.797,-2.62,-4.0,-3.42,4,0
18722.812,-0.52,0.25,0.789,-2.29,-4.52,-3.69,4,0
18722.812,-0.52,0.252,0.781,-2.23,-3.94,-3.63,4,0
18722.828,-0.525,0.26,0.781,-2.44,-2.81,-3.48,4,0
18722.843,-0.532,0.266,0.78,-2.44,-1.89,-3.33,4,0
18722.859,-0.54,0.27,0.788,-2.59,-1.4,-3.02,4,0
18722.859,-0.542,0.271,0.791,-2.78,-1.28,-2.38,4,0
18722.875,-0.538,0.268,0.79,-2.29,-1.53,-1.62,4,0
18722.875,-0.537,0.271,0.789,-1.53,-1.74,-1.22,4,0
18722.89,-0.539,0.271,0.787,-0.76,-1.8,-1.1,4,0
18722.906,-0.541,0.267,0.787,-0.52,-1.86,-0.85,4,0
18722.906,-0.533,0.266,0.784,-0.18,-1.59,-0.43,4,0
18722.937,-0.532,0.265,0.786,0.49,-0.49,-0.73,4,0
18722.937,-0.535,0.263,0.79,1.1,-0.18,-0.67,4,0
18722.953,-0.527,0.263,0.788,1.5,-0.09,-0.4,4,0
18722.953,-0.523,0.261,0.784,1.53,-0.03,-0.46,4,0
18722.968,-0.528,0.258,0.788,1.56,0.37,-1.13,4,0
18722.984,-0.533,0.256,0.792,1.89,0.27,-1.37,4,0
18722.984,-0.526,0.259,0.791,2.08,-0.09,-0.98,4,0
18723.0,-0.519,0.261,0.787,1.98,-0.12,-0.82,4,0
18723.015,-0.521,0.26,0.792,1.89,0.31,-1.13,4,0
18723.015,-0.519,0.261,0.793,1.89,0.49,-0.85,4,0
18723.031,-0.516,0.266,0.788,1.28,0.89,-0.27,4,0
18723.046,-0.513,0.267,0.792,0.37,1.59,-0.12,4,0
18723.046,-0.518,0.264,0.796,-0.55,1.92,0.18,4,0
18723.062,-0.52,0.265,0.8,-1.16,2.14,0.79,4,0
18723.078,-0.517,0.265,0.799,-1.65,2.29,0.89,4,0
18723.078,-0.516,0.261,0.803,-1.95,2.29,0.4,4,0
18723.093,-0.52,0.266,0.808,-0.58,1.62,-0.61,4,0
18723.109,-0.52,0.266,0.811,0.46,0.89,-1.1,4,0
18723.125,-0.519,0.269,0.806,1.59,0.21,-1.4,4,0
18723.125,-0.516,0.275,0.799,2.26,-0.15,-1.37,4,0
18723.14,-0.513,0.272,0.793,1.95,0.0,-1.31,4,0
18723.156,-0.51,0.27,0.787,1.19,0.58,-1.19,4,0
18723.156,-0.513,0.27,0.792,0.49,1.5,-0.95,4,0
18723.171,-0.52,0.268,0.8,0.06,2.01,-1.04,4,0
18723.171,-0.523,0.267,0.808,0.43,1.95,-0.95,4,0
18723.187,-0.526,0.271,0.812,0.95,1.34,-0.82,4,0
18723.203,-0.528,0.27,0.81,1.37,0.43,-1.04,4,0
18723.203,-0.528,0.271,0.809,1.56,-0.37,-0.76,4,0
18723.218,-0.523,0.272,0.803,1.43,-1.01,-0.34,4,0
18723.234,-0.52,0.267,0.803,1.1,-0.92,-0.03,4,0
18723.234,-0.525,0.265,0.796,1.16,-0.4,-0.03,4,0
18723.25,-0.524,0.266,0.797,0.49,-0.06,0.09,4,0
18723.265,-0.529,0.263,0.804,-0.55,0.34,0.27,4,0
18723.281,-0.526,0.263,0.806,-0.55,0.06,0.7,4,0
18723.296,-0.521,0.264,0.802,-0.73,-0.37,0.76,4,0
18723.296,-0.519,0.261,0.801,-0.7,-0.82,0.58,4,0
18723.312,-0.521,0.259,0.8,-0.37,-1.1,0.15,4,0
18723.312,-0.521,0.26,0.794,0.09,-1.37,-0.09,4,0
18723.328,-0.519,0.261,0.787,0.52,-1.46,-0.06,4,0
18723.343,-0.519,0.261,0.78,0.37,-1.1,0.0,4,0
18723.343,-0.524,0.258,0.777,-0.09,-0.46,0.24,4,0
18723.359,-0.529,0.256,0.783,-1.77,0.79,0.95,4,0
18723.375,-0.534,0.253,0.788,-2.26,0.58,0.92,4,0
18723.375,-0.535,0.245,0.796,-1.65,0.09,0.4,4,0
18723.39,-0.531,0.237,0.796,-0.37,-0.34,-0.58,4,0
18723.406,-0.529,0.239,0.796,0.95,-0.64,-1.74,4,0
18723.406,-0.534,0.243,0.795,2.23,-0.55,-3.05,4,0
18723.421,-0.539,0.25,0.796,3.11,-0.4,-4.18,4,0
18723.437,-0.545,0.256,0.799,3.72,-0.03,-4.91,4,0
18723.437,-0.547,0.26,0.805,4.03,0.31,-4.97,4,0
18723.453,-0.551,0.266,0.808,3.94,0.61,-5.1,4,0
18723.453,-0.552,0.263,0.81,4.39,0.61,-5.43,4,0
18723.468,-0.548,0.259,0.813,5.83,0.21,-5.68,4,0
18723.484,-0.545,0.259,0.809,7.63,-0.34,-5.71,4,0
18723.484,-0.537,0.26,0.799,8.85,-1.01,-5.58,4,0
18723.5,-0.529,0.255,0.793,9.19,-1.31,-5.34,4,0
18723.515,-0.527,0.253,0.789,8.91,-0.89,-4.97,4,0
18723.515,-0.521,0.246,0.791,8.09,-0.21,-4.61,4,0
18723.531,-0.522,0.24,0.796,7.81,0.34,-4.27,4,0
18723.531,-0.521,0.239,0.796,7.54,0.79,-3.91,4,0
18723.546,-0.518,0.239,0.8,6.44,0.76,-4.09,4,0
18723.562,-0.517,0.235,0.803,5.52,0.43,-4.67,4,0
18723.562,-0.521,0.229,0.806,6.16,0.0,-5.31,4,0
18723.578,-0.523,0.232,0.801,7.6,-0.4,-5.62,4,0
18723.593,-0.518,0.236,0.795,8.03,-0.7,-5.71,4,0
18723.609,-0.518,0.237,0.788,6.84,-0.82,-5.77,4,0
18723.609,-0.519,0.235,0.787,5.31,-0.89,-5.49,4,0
18723.625,-0.52,0.235,0.788,3.6,-0.61,-4.61,4,0
18723.625,-0.519,0.235,0.785,1.34,-0.46,-3.72,4,0
18723.64,-0.516,0.227,0.783,-1.04,-0.52,-3.54,4,0
18723.656,-0.516,0.217,0.785,-2.5,-0.34,-4.33,4,0
18723.656,-0.518,0.216,0.787,-1.92,0.06,-5.52,4,0
18723.671,-0.522,0.227,0.787,-0.58,0.34,-7.02,4,0
18723.671,-0.529,0.238,0.786,0.64,0.31,-8.42,4,0
18723.687,-0.537,0.249,0.781,0.76,0.31,-8.88,4,0
18723.703,-0.539,0.262,0.776,-0.61,0.09,-8.06,4,0
18723.718,-0.54,0.266,0.771,-2.87,-0.06,-6.53,4,0
18723.718,-0.541,0.269,0.771,-5.68,-0.31,-5.07,4,0
18723.734,-0.545,0.27,0.774,-8.48,-0.55,-3.6,4,0
18723.734,-0.547,0.268,0.773,-10.56,-1.04,-2.53,4,0
18723.75,-0.546,0.267,0.776,-11.72,-1.62,-1.89,4,0
18723.765,-0.547,0.264,0.777,-11.78,-2.26,-1.92,4,0
18723.765,-0.552,0.264,0.777,-10.53,-2.56,-2.59,4,0
18723.781,-0.555,0.267,0.778,-8.39,-2.78,-3.78,4,0
18723.796,-0.557,0.277,0.777,-5.98,-3.11,-4.82,4,0
18723.796,-0.56,0.284,0.771,-4.0,-3.17,-5.46,4,0
18723.812,-0.563,0.292,0.769,-2.66,-3.08,-5.62,4,0
18723.812,-0.561,0.297,0.762,-1.98,-2.84,-4.79,4,0
18723.828,-0.563,0.299,0.763,-2.47,-2.38,-3.66,4,0
18723.843,-0.561,0.297,0.77,-3.3,-2.08,-2.56,4,0
18723.843,-0.564,0.296,0.779,-3.69,-1.68,-1.74,4,0
18723.859,-0.565,0.286,0.785,-2.59,-1.68,-1.28,4,0
18723.875,-0.565,0.279,0.785,0.46,-1.62,-1.19,4,0
18723.875,-0.563,0.276,0.783,4.18,-1.53,-1.43,4,0
18723.89,-0.561,0.268,0.781,7.26,-1.5,-2.56,4,0
18723.906,-0.558,0.257,0.783,9.61,-1.34,-3.85,4,0
18723.906,-0.55,0.241,0.786,11.66,-0.85,-4.94,4,0
18723.921,-0.546,0.229,0.793,13.18,-0.12,-6.35,4,0
18723.937,-0.545,0.222,0.824,14.22,0.24,-8.58,4,0
18723.937,-0.541,0.2,0.806,15.84,0.12,-11.35,4,0
18723.953,-0.541,0.2,0.796,16.45,-0.73,-14.77,4,0
18723.968,-0.545,0.194,0.821,19.53,-0.46,-18.28,4,0
18723.968,-0.555,0.207,0.817,22.46,-1.98,-22.55,4,0
18723.984,-0.555,0.231,0.819,23.8,-4.91,-25.7,4,0
18724.0,-0.551,0.251,0.81,25.64,-7.05,-27.19,4,0
18724.0,-0.546,0.278,0.791,25.85,-8.06,-26.95,4,0
18724.015,-0.543,0.3,0.787,23.26,-9.22,-25.51,4,0
18724.015,-0.54,0.303,0.786,20.91,-9.95,-23.65,4,0
18724.031,-0.548,0.317,0.785,19.01,-9.52,-21.52,4,0
18724.046,-0.553,0.329,0.789,16.27,-9.67,-17.88,4,0
18724.046,-0.557,0.337,0.791,12.57,-10.1,-13.52,4,0
18724.062,-0.559,0.334,0.791,7.78,-10.74,-8.76,4,0
18724.078,-0.561,0.334,0.794,2.59,-11.41,-3.51,4,0
18724.078,-0.573,0.333,0.799,-3.33,-12.24,1.59,4,0
18724.093,-0.581,0.314,0.843,-9.34,-14.5,6.2,4,0
18724.109,-0.579,0.283,0.847,-10.5,-19.17,9.64,4,0
18724.109,-0.554,0.279,0.815,-10.44,-23.5,12.24,4,0
18724.125,-0.551,0.267,0.837,-11.02,-25.48,13.25,4,0
18724.125,-0.547,0.252,0.856,-9.37,-27.89,14.01,4,0
18724.14,-0.55,0.239,0.829,-5.19,-31.13,14.65,4,0
18724.156,-0.545,0.233,0.836,-1.65,-35.92,15.63,4,0
18724.156,-0.535,0.259,0.881,0.37,-39.8,17.27,4,0
18724.171,-0.525,0.265,0.896,4.61,-43.43,19.2,4,0
18724.187,-0.531,0.26,0.908,13.43,-46.88,21.97,4,0
18724.187,-0.489,0.24,0.864,24.81,-48.65,25.79,4,0
18724.203,-0.446,0.241,0.827,39.28,-45.23,27.44,4,0
18724.203,-0.472,0.255,0.771,53.71,-38.91,29.45,4,0
18724.218,-0.444,0.308,0.759,49.68,-36.71,29.66,4,0
18724.234,-0.454,0.299,0.774,38.54,-34.12,28.26,4,0
18724.234,-0.417,0.299,0.799,29.24,-33.33,28.23,4,0
18724.25,-0.405,0.309,0.805,25.54,-29.69,25.15,4,0
18724.265,-0.415,0.285,0.792,20.81,-26.86,22.83,4,0
18724.265,-0.404,0.274,0.797,16.54,-24.11,21.91,4,0
18724.296,-0.385,0.281,0.773,10.5,-17.27,16.51,4,0
18724.296,-0.374,0.271,0.769,7.75,-12.51,11.93,4,0
18724.312,-0.376,0.263,0.756,7.26,-6.71,6.71,4,0
18724.328,-0.386,0.267,0.764,7.23,-0.85,1.71,4,0
18724.328,-0.399,0.277,0.767,8.27,3.97,-2.38,4,0
18724.343,-0.425,0.292,0.785,7.72,9.37,-6.53,4,0
18724.343,-0.454,0.323,0.815,5.04,6.68,-6.9,4,0
18724.359,-0.461,0.354,0.839,0.46,2.9,-6.96,4,0
18724.375,-0.468,0.371,0.85,-6.07,-2.01,-6.26,4,0
18724.39,-0.444,0.345,0.82,-11.41,-5.49,-5.34,4,0
18724.39,-0.431,0.337,0.803,-15.17,-6.47,-4.82,4,0
18724.406,-0.423,0.319,0.793,-16.45,-5.8,-4.97,4,0
18724.406,-0.42,0.302,0.773,-13.67,-3.2,-4.94,4,0
18724.421,-0.418,0.298,0.759,-10.19,1.1,-5.77,4,0
18724.437,-0.42,0.304,0.755,-7.39,5.68,-7.17,4,0
18724.437,-0.422,0.31,0.774,-4.7,10.22,-8.42,4,0
18724.453,-0.486,0.351,0.828,-0.27,14.86,-9.55,4,0
18724.468,-0.507,0.362,0.865,-1.86,11.6,-7.66,4,0
18724.484,-0.504,0.364,0.875,-4.7,5.65,-4.58,4,0
18724.484,-0.484,0.351,0.86,-7.2,-0.09,-1.5,4,0
18724.5,-0.459,0.327,0.833,-7.35,-3.6,0.64,4,0
18724.515,-0.431,0.313,0.796,-6.2,-3.91,1.16,4,0
18724.515,-0.424,0.303,0.771,-4.67,-1.62,-0.24,4,0
18724.531,-0.426,0.297,0.757,-3.39,2.29,-2.44,4,0
18724.531,-0.435,0.303,0.769,-2.01,6.59,-4.43,4,0
18724.546,-0.442,0.316,0.784,-1.34,10.25,-5.37,4,0
18724.562,-0.459,0.325,0.803,-2.38,12.76,-5.49,4,0
18724.578,-0.486,0.332,0.838,-4.39,12.85,-4.36,4,0
18724.578,-0.492,0.333,0.869,-6.44,9.52,-2.35,4,0
18724.593,-0.477,0.327,0.876,-8.36,4.49,-0.7,4,0
18724.593,-0.454,0.306,0.856,-7.66,0.55,-0.58,4,0
18724.609,-0.443,0.295,0.832,-5.58,-0.95,-1.4,4,0
18724.625,-0.434,0.294,0.795,-0.95,1.25,-4.46,4,0
18724.64,-0.44,0.291,0.798,0.89,4.09,-4.94,4,0
18724.656,-0.441,0.307,0.787,1.5,6.47,-4.79,4,0
18724.656,-0.446,0.318,0.792,0.37,9.03,-4.94,4,0
18724.671,-0.47,0.32,0.826,-0.95,10.01,-5.22,4,0
18724.671,-0.484,0.333,0.852,-1.65,8.27,-4.49,4,0
18724.687,-0.485,0.34,0.864,-2.72,4.61,-3.54,4,0
18724.703,-0.475,0.335,0.863,-3.27,0.67,-2.35,4,0
18724.703,-0.459,0.329,0.845,-3.08,-2.41,-1.25,4,0
18724.718,-0.448,0.318,0.822,-2.5,-3.42,-0.67,4,0
18724.734,-0.443,0.31,0.805,-0.76,-2.32,-0.03,4,0
18724.734,-0.445,0.309,0.792,0.79,0.34,0.4,4,0
18724.75,-0.455,0.309,0.793,0.46,2.66,0.52,4,0
18724.765,-0.463,0.309,0.807,-0.03,3.88,0.61,4,0
18724.765,-0.463,0.31,0.813,0.4,4.39,0.92,4,0
18724.781,-0.463,0.315,0.819,0.85,4.39,0.98,4,0
18724.796,-0.472,0.318,0.827,0.73,3.81,0.46,4,0
18724.796,-0.473,0.319,0.833,-0.21,2.35,0.4,4,0
18724.812,-0.468,0.315,0.831,-1.31,0.61,0.73,4,0
18724.812,-0.465,0.308,0.823,-1.65,-0.61,1.1,4,0
18724.828,-0.459,0.303,0.814,-1.71,-1.1,1.19,4,0
18724.843,-0.459,0.298,0.805,-1.59,-0.89,0.73,4,0
18724.843,-0.46,0.298,0.795,-0.7,0.15,-0.12,4,0
18724.859,-0.464,0.303,0.792,0.4,1.89,-1.1,4,0
18724.875,-0.477,0.31,0.799,1.4,3.57,-1.83,4,0
18724.875,-0.485,0.316,0.808,1.04,4.12,-1.56,4,0
18724.89,-0.482,0.32,0.811,-0.27,3.85,0.03,4,0
18724.906,-0.475,0.319,0.822,-1.89,3.48,1.77,4,0
18724.906,-0.478,0.311,0.835,-2.66,3.23,3.11,4,0
18724.921,-0.482,0.309,0.844,-3.48,1.98,4.24,4,0
18724.921,-0.477,0.296,0.84,-3.75,0.31,4.3,4,0
18724.937,-0.48,0.287,0.831,-2.72,-0.37,3.51,4,0
18724.953,-0.478,0.287,0.82,-1.53,-0.79,2.32,4,0
18724.953,-0.469,0.284,0.81,-1.01,-0.92,1.16,4,0
18724.968,-0.463,0.287,0.808,-0.76,0.15,-0.03,4,0
18724.984,-0.462,0.292,0.802,-0.61,1.5,-1.1,4,0
18724.984,-0.467,0.3,0.813,-0.58,2.44,-1.8,4,0
18725.0,-0.471,0.307,0.816,-0.58,2.81,-1.98,4,0
18725.015,-0.475,0.313,0.822,-0.58,2.84,-1.59,4,0
18725.031,-0.483,0.32,0.829,-1.31,2.11,-0.73,4,0
18725.031,-0.48,0.317,0.83,-2.66,0.34,0.18,4,0
18725.046,-0.475,0.309,0.822,-2.56,-0.98,1.25,4,0
18725.046,-0.471,0.305,0.808,-1.4,-1.07,1.98,4,0
18725.062,-0.471,0.301,0.802,-0.64,-0.67,1.89,4,0
18725.062,-0.476,0.296,0.802,-0.49,0.09,1.46,4,0
18725.078,-0.476,0.296,0.806,-0.21,0.92,1.43,4,0
18725.093,-0.475,0.296,0.806,0.49,1.34,1.07,4,0
18725.109,-0.475,0.297,0.807,0.85,1.8,0.24,4,0
18725.109,-0.479,0.3,0.808,0.92,1.95,-0.31,4,0
18725.125,-0.477,0.3,0.81,0.73,2.23,-0.64,4,0
18725.125,-0.484,0.3,0.813,1.25,2.66,-1.19,4,0
18725.156,-0.505,0.313,0.824,0.58,1.22,-0.64,4,0
18725.156,-0.496,0.311,0.823,-0.49,-1.04,0.18,4,0
18725.171,-0.485,0.305,0.814,-0.7,-2.44,0.82,4,0
18725.187,-0.484,0.303,0.801,0.06,-2.2,1.22,4,0
18725.187,-0.481,0.304,0.793,0.18,-1.37,1.92,4,0
18725.203,-0.482,0.305,0.79,-1.31,-0.27,2.62,4,0
18725.203,-0.486,0.299,0.797,-3.6,1.13,3.17,4,0
18725.218,-0.488,0.293,0.811,-4.97,1.86,3.6,4,0
18725.234,-0.482,0.289,0.816,-4.7,1.68,3.66,4,0
18725.234,-0.477,0.288,0.818,-3.42,1.19,2.78,4,0
18725.25,-0.483,0.282,0.814,-1.74,0.49,1.13,4,0
18725.265,-0.485,0.288,0.811,-0.31,-0.52,-0.27,4,0
18725.265,-0.48,0.293,0.805,0.64,-1.59,-1.37,4,0
18725.281,-0.47,0.293,0.793,1.25,-1.71,-1.98,4,0
18725.296,-0.465,0.295,0.784,1.62,-0.43,-2.35,4,0
18725.296,-0.471,0.298,0.786,1.89,1.68,-2.78,4,0
18725.328,-0.489,0.306,0.81,2.81,4.09,-3.6,4,0
18725.328,-0.497,0.307,0.821,4.27,3.88,-3.39,4,0
18725.343,-0.509,0.309,0.831,4.58,2.01,-2.56,4,0
18725.343,-0.519,0.317,0.84,3.54,-0.89,-2.08,4,0
18725.359,-0.501,0.301,0.838,3.08,-2.81,-2.11,4,0
18725.375,-0.498,0.292,0.824,4.18,-4.0,-2.44,4,0
18725.375,-0.487,0.289,0.81,5.68,-4.33,-2.62,4,0
18725.39,-0.484,0.287,0.799,7.17,-3.39,-3.2,4,0
18725.406,-0.483,0.289,0.791,7.97,-2.08,-4.12,4,0
18725.406,-0.48,0.292,0.791,7.6,-0.52,-4.61,4,0
18725.421,-0.477,0.294,0.795,6.62,0.73,-4.43,4,0
18725.421,-0.477,0.295,0.804,5.25,1.92,-4.0,4,0
18725.437,-0.482,0.297,0.819,3.81,2.01,-3.81,4,0
18725.453,-0.485,0.294,0.831,2.93,0.85,-3.14,4,0
18725.453,-0.478,0.292,0.834,2.47,-1.04,-2.59,4,0
18725.468,-0.47,0.287,0.824,2.53,-2.84,-2.72,4,0
18725.484,-0.458,0.283,0.798,2.96,-3.72,-4.39,4,0
18725.5,-0.461,0.288,0.792,3.17,-2.41,-5.37,4,0
18725.515,-0.472,0.295,0.792,3.17,-0.79,-5.86,4,0
18725.515,-0.476,0.302,0.794,2.66,0.27,-5.71,4,0
18725.531,-0.48,0.307,0.799,1.5,1.13,-5.25,4,0
18725.546,-0.482,0.309,0.807,0.85,1.4,-4.64,4,0
18725.562,-0.488,0.311,0.814,0.55,0.98,-3.75,4,0
18725.562,-0.485,0.312,0.814,-0.09,0.03,-2.87,4,0
18725.562,-0.482,0.306,0.811,-0.73,-0.92,-2.78,4,0
18725.578,-0.482,0.3,0.815,-1.19,-1.74,-3.08,4,0
18725.593,-0.48,0.296,0.807,-0.85,-1.92,-3.51,4,0
18725.593,-0.471,0.288,0.8,-0.24,-1.68,-4.18,4,0
18725.609,-0.472,0.294,0.799,-0.21,-0.82,-4.85,4,0
18725.625,-0.471,0.291,0.803,-0.18,-0.37,-5.74,4,0
18725.625,-0.472,0.291,0.81,0.15,0.0,-6.47,4,0
18725.64,-0.479,0.298,0.814,0.67,0.55,-6.93,4,0
18725.656,-0.485,0.307,0.813,-0.89,-0.09,-6.65,4,0
18725.671,-0.485,0.308,0.812,-2.72,-1.01,-6.65,4,0
18725.671,-0.484,0.305,0.811,-3.45,-1.95,-6.71,4,0
18725.687,-0.481,0.308,0.803,-2.9,-2.56,-6.81,4,0
18725.703,-0.484,0.313,0.796,-1.89,-2.69,-6.59,4,0
18725.703,-0.489,0.319,0.79,-1.95,-2.44,-6.29,4,0
18725.718,-0.494,0.32,0.786,-2.26,-2.14,-5.74,4,0
18725.734,-0.497,0.322,0.781,-2.29,-1.43,-4.7,4,0
18725.734,-0.501,0.325,0.777,-2.53,-0.43,-3.78,4,0
18725.75,-0.505,0.327,0.78,-2.93,0.34,-3.42,4,0
18725.765,-0.508,0.325,0.783,-3.14,0.64,-3.11,4,0
18725.781,-0.512,0.326,0.786,-3.02,0.85,-2.26,4,0
18725.781,-0.507,0.329,0.789,-3.54,0.89,-1.25,4,0
18725.781,-0.503,0.324,0.789,-4.55,0.85,-0.85,4,0
18725.796,-0.503,0.313,0.794,-4.73,0.89,-0.58,4,0
18725.812,-0.501,0.309,0.796,-3.54,0.82,-0.67,4,0
18725.828,-0.503,0.306,0.792,-0.06,0.06,-2.81,4,0
18725.843,-0.502,0.313,0.786,2.38,0.21,-3.66,4,0
18725.859,-0.505,0.323,0.784,4.3,0.7,-3.94,4,0
18725.859,-0.508,0.329,0.782,4.94,1.1,-3.6,4,0
18725.875,-0.51,0.328,0.78,4.03,1.77,-2.2,4,0
18725.875,-0.506,0.324,0.788,2.2,2.53,-0.43,4,0
18725.89,-0.505,0.313,0.797,1.25,3.36,0.89,4,0
18725.906,-0.51,0.306,0.81,1.34,4.24,1.53,4,0
18725.906,-0.513,0.304,0.819,2.01,4.0,1.65,4,0
18725.921,-0.51,0.302,0.821,2.59,3.08,1.56,4,0
18725.937,-0.506,0.299,0.825,3.11,2.01,1.43,4,0
18725.937,-0.503,0.292,0.82,3.94,1.31,1.59,4,0
18725.953,-0.492,0.293,0.813,3.78,0.98,2.32,4,0
18725.953,-0.484,0.287,0.806,2.72,0.89,2.96,4,0
18725.968,-0.484,0.278,0.808,1.34,1.62,2.84,4,0
18725.984,-0.485,0.275,0.815,0.4,2.29,2.5,4,0
18725.984,-0.49,0.276,0.824,-0.31,2.41,2.26,4,0
18726.0,-0.495,0.278,0.836,-1.31,1.65,2.17,4,0
18726.015,-0.489,0.278,0.836,-2.87,-0.37,1.89,4,0
18726.015,-0.482,0.276,0.832,-3.45,-1.98,1.53,4,0
18726.031,-0.482,0.273,0.825,-2.78,-2.96,0.92,4,0
18726.046,-0.483,0.28,0.819,-2.17,-3.66,0.67,4,0
18726.046,-0.483,0.287,0.811,-2.23,-4.43,0.7,4,0
18726.062,-0.485,0.291,0.806,-3.36,-5.01,0.73,4,0
18726.078,-0.481,0.289,0.805,-4.39,-5.52,0.79,4,0
18726.078,-0.489,0.288,0.81,-5.31,-5.62,0.55,4,0
18726.093,-0.495,0.285,0.812,-6.26,-6.59,0.43,4,0
18726.093,-0.497,0.281,0.809,-6.71,-8.0,-0.09,4,0
18726.109,-0.5,0.279,0.807,-6.41,-9.4,-0.85,4,0
18726.125,-0.509,0.277,0.804,-5.58,-10.56,-1.95,4,0
18726.125,-0.514,0.281,0.813,-4.82,-12.09,-2.96,4,0
18726.14,-0.522,0.296,0.823,-6.13,-14.28,-4.03,4,0
18726.156,-0.524,0.284,0.818,-9.13,-17.21,-4.85,4,0
18726.156,-0.515,0.254,0.819,-11.6,-19.32,-5.22,4,0
18726.171,-0.517,0.252,0.819,-12.45,-20.23,-6.59,4,0
18726.171,-0.516,0.221,0.824,-10.8,-19.9,-6.62,4,0
18726.187,-0.531,0.237,0.844,-11.02,-19.59,-6.41,4,0
18726.203,-0.533,0.256,0.863,-13.34,-22.34,-6.07,4,0
18726.203,-0.515,0.24,0.871,-20.72,-27.71,-8.39,4,0
18726.218,-0.496,0.204,0.885,-27.8,-33.05,-13.4,4,0
18726.234,-0.486,0.155,0.903,-28.02,-37.48,-19.2,4,0
18726.25,-0.471,0.148,0.877,-22.89,-40.5,-24.87,4,0
18726.25,-0.451,0.15,0.856,-17.09,-40.99,-30.49,4,0
18726.265,-0.449,0.148,0.836,-10.25,-39.22,-36.13,4,0
18726.265,-0.45,0.172,0.838,-5.92,-36.07,-39.64,4,0
18726.281,-0.449,0.194,0.841,-4.46,-33.48,-42.12,4,0
18726.296,-0.457,0.213,0.864,-7.2,-32.2,-43.34,4,0
18726.296,-0.454,0.214,0.894,-10.32,-33.42,-43.09,4,0
18726.312,-0.447,0.209,0.906,-5.95,-36.59,-39.58,4,0
18726.328,-0.449,0.224,0.913,-4.49,-39.34,-36.71,4,0
18726.343,-0.402,0.23,0.893,-5.16,-43.46,-31.89,4,0
18726.343,-0.376,0.222,0.86,-2.04,-41.66,-28.6,4,0
18726.359,-0.36,0.226,0.828,0.98,-37.14,-25.48,4,0
18726.375,-0.36,0.232,0.82,1.25,-31.13,-23.47,4,0
18726.375,-0.366,0.232,0.829,-0.49,-26.06,-22.37,4,0
18726.39,-0.367,0.226,0.839,-1.65,-21.79,-21.09,4,0
18726.406,-0.36,0.219,0.854,-1.1,-17.37,-19.35,4,0
18726.406,-0.359,0.219,0.859,0.98,-12.88,-17.79,4,0
18726.421,-0.361,0.223,0.862,3.14,-8.82,-16.45,4,0
18726.437,-0.367,0.22,0.863,5.34,-5.62,-15.9,4,0
18726.437,-0.374,0.222,0.866,9.22,-2.47,-16.36,4,0
18726.453,-0.383,0.238,0.882,12.57,-0.4,-17.4,4,0
18726.453,-0.392,0.24,0.894,15.78,-0.03,-18.28,4,0
18726.468,-0.4,0.244,0.901,20.05,-0.7,-18.04,4,0
18726.484,-0.403,0.258,0.897,22.06,-2.11,-17.33,4,0
18726.484,-0.406,0.259,0.879,20.42,-3.48,-16.21,4,0
18726.515,-0.394,0.245,0.838,14.16,-1.1,-10.77,4,0
18726.515,-0.391,0.243,0.823,11.84,2.93,-7.69,4,0
18726.531,-0.391,0.235,0.824,9.83,7.6,-5.68,4,0
18726.546,-0.403,0.228,0.828,10.1,12.24,-5.22,4,0
18726.546,-0.43,0.241,0.846,11.63,15.59,-5.74,4,0
18726.562,-0.465,0.257,0.887,11.32,15.44,-5.83,4,0
18726.578,-0.48,0.265,0.925,9.28,10.86,-4.88,4,0
18726.578,-0.473,0.264,0.935,8.24,4.52,-2.81,4,0
18726.593,-0.46,0.272,0.922,7.84,-1.56,-0.18,4,0
18726.593,-0.442,0.263,0.894,5.55,-6.41,2.66,4,0
18726.609,-0.419,0.249,0.859,2.75,-8.42,4.49,4,0
18726.625,-0.411,0.233,0.824,1.65,-7.23,5.68,4,0
18726.625,-0.41,0.223,0.807,1.77,-3.97,6.74,4,0
18726.64,-0.407,0.227,0.8,1.28,0.03,7.11,4,0
18726.656,-0.416,0.229,0.818,-0.61,3.48,6.26,4,0
18726.656,-0.429,0.223,0.851,-1.46,5.25,5.4,4,0
18726.671,-0.435,0.227,0.873,-0.64,5.07,5.19,4,0
18726.671,-0.433,0.234,0.884,0.89,3.66,5.37,4,0
18726.687,-0.432,0.239,0.879,1.4,1.95,5.49,4,0
18726.703,-0.425,0.246,0.872,-0.15,0.15,5.31,4,0
18726.703,-0.424,0.239,0.867,-1.31,-0.98,5.1,4,0
18726.718,-0.423,0.235,0.859,-1.07,-1.13,5.77,4,0
18726.734,-0.42,0.235,0.845,-0.92,-0.92,6.65,4,0
18726.734,-0.416,0.236,0.842,-2.11,-0.21,6.96,4,0
18726.75,-0.422,0.224,0.854,-2.78,0.64,6.44,4,0
18726.765,-0.429,0.226,0.861,-2.66,1.34,6.38,4,0
18726.765,-0.427,0.232,0.863,-2.2,1.16,6.16,4,0
18726.781,-0.421,0.233,0.861,-1.46,1.13,5.65,4,0
18726.796,-0.417,0.235,0.861,0.15,1.8,4.94,4,0
18726.796,-0.415,0.237,0.856,2.2,2.96,4.79,4,0
18726.812,-0.419,0.24,0.85,3.39,4.55,5.16,4,0
18726.812,-0.428,0.241,0.856,2.56,6.01,6.04,4,0
18726.828,-0.428,0.236,0.864,0.73,6.41,6.68,4,0
18726.843,-0.436,0.23,0.88,-0.24,6.26,6.65,4,0
18726.843,-0.443,0.231,0.89,-0.03,5.28,6.74,4,0
18726.859,-0.44,0.235,0.897,0.55,2.81,6.47,4,0
18726.875,-0.433,0.23,0.889,1.74,0.21,5.95,4,0
18726.875,-0.42,0.232,0.873,2.69,-1.46,5.49,4,0
18726.89,-0.416,0.235,0.853,3.6,-1.74,5.16,4,0
18726.906,-0.41,0.234,0.838,3.51,-0.67,5.52,4,0
18726.906,-0.405,0.233,0.831,2.26,1.77,6.41,4,0
18726.921,-0.408,0.234,0.836,0.79,4.39,7.26,4,0
18726.937,-0.417,0.224,0.853,-0.46,6.47,8.0,4,0
18726.937,-0.422,0.224,0.87,-1.07,7.63,8.67,4,0
18726.953,-0.433,0.224,0.886,-1.13,7.54,8.82,4,0
18726.953,-0.442,0.221,0.899,-1.62,5.8,8.97,4,0
18726.968,-0.438,0.221,0.898,-2.75,2.81,8.97,4,0
18726.984,-0.425,0.215,0.883,-3.39,0.24,8.67,4,0
18726.984,-0.412,0.206,0.864,-3.05,-0.67,7.9,4,0
18727.0,-0.409,0.208,0.855,-1.56,0.18,6.71,4,0
18727.015,-0.412,0.219,0.848,-0.76,1.53,5.43,4,0
18727.015,-0.415,0.226,0.851,-1.16,2.66,4.7,4,0
18727.031,-0.429,0.23,0.866,-1.59,3.36,4.33,4,0
18727.046,-0.432,0.228,0.871,-1.43,3.08,5.16,4,0
18727.046,-0.423,0.226,0.868,-1.95,2.62,6.47,4,0
18727.062,-0.425,0.227,0.872,-3.94,2.38,6.9,4,0
18727.078,-0.427,0.218,0.876,-5.71,1.56,6.47,4,0
18727.078,-0.421,0.215,0.877,-5.34,0.79,6.23,4,0
18727.093,-0.417,0.218,0.872,-2.9,0.27,5.25,4,0
18727.109,-0.428,0.227,0.865,-0.95,0.24,3.69,4,0
18727.109,-0.43,0.235,0.865,-0.89,-0.27,2.87,4,0
18727.125,-0.426,0.235,0.858,-1.07,-0.52,2.81,4,0
18727.125,-0.424,0.236,0.853,-1.37,0.0,3.3,4,0
18727.14,-0.419,0.238,0.853,-2.47,0.89,3.97,4,0
18727.156,-0.415,0.233,0.85,-3.75,2.01,4.09,4,0
18727.156,-0.412,0.23,0.855,-4.39,3.48,3.91,4,0
18727.171,-0.424,0.23,0.862,-4.36,4.85,3.57,4,0
18727.187,-0.436,0.233,0.869,-4.64,5.19,3.3,4,0
18727.187,-0.429,0.236,0.877,-4.85,4.39,3.42,4,0
18727.203,-0.421,0.241,0.872,-4.76,3.36,3.48,4,0
18727.203,-0.423,0.241,0.87,-4.12,3.02,3.14,4,0
18727.218,-0.435,0.247,0.879,-3.78,2.47,3.05,4,0
18727.234,-0.438,0.248,0.883,-4.06,0.95,4.0,4,0
18727.234,-0.426,0.245,0.874,-4.21,-0.55,4.88,4,0
18727.25,-0.418,0.239,0.866,-4.06,-1.04,5.04,4,0
18727.265,-0.416,0.24,0.859,-3.17,-0.61,4.7,4,0
18727.265,-0.416,0.24,0.849,-1.56,0.18,4.18,4,0
18727.281,-0.415,0.238,0.845,-0.15,1.5,3.57,4,0
18727.296,-0.424,0.246,0.853,0.98,3.11,2.01,4,0
18727.296,-0.431,0.248,0.868,1.65,2.78,2.66,4,0
18727.312,-0.434,0.254,0.879,2.35,1.5,3.6,4,0
18727.328,-0.429,0.26,0.878,1.31,0.46,4.55,4,0
18727.328,-0.42,0.248,0.866,-0.52,-0.27,5.74,4,0
18727.343,-0.412,0.237,0.855,-1.43,-0.06,6.62,4,0
18727.343,-0.41,0.232,0.845,-1.98,1.1,6.87,4,0
18727.359,-0.416,0.232,0.841,-2.72,2.9,6.62,4,0
18727.375,-0.419,0.225,0.848,-2.81,4.52,6.29,4,0
18727.375,-0.424,0.226,0.859,-1.83,5.77,5.86,4,0
18727.39,-0.43,0.235,0.871,-0.46,5.92,5.25,4,0
18727.406,-0.437,0.241,0.883,-0.7,4.76,5.04,4,0
18727.406,-0.432,0.238,0.89,-1.65,2.47,5.25,4,0
18727.421,-0.428,0.233,0.883,-2.23,0.46,5.25,4,0
18727.421,-0.424,0.224,0.877,-1.98,-0.7,5.01,4,0
18727.437,-0.426,0.228,0.869,-1.62,-1.28,4.52,4,0
18727.453,-0.426,0.226,0.857,-1.83,-1.83,4.03,4,0
18727.453,-0.416,0.226,0.846,-2.29,-1.53,3.6,4,0
18727.468,-0.415,0.227,0.841,-2.14,-0.18,2.44,4,0
18727.484,-0.417,0.231,0.842,-1.65,1.43,1.59,4,0
18727.484,-0.422,0.24,0.849,-1.28,3.39,1.1,4,0
18727.5,-0.437,0.245,0.866,-1.71,4.58,0.98,4,0
18727.515,-0.441,0.243,0.884,-2.26,3.81,1.68,4,0
18727.515,-0.444,0.243,0.892,-1.89,1.98,2.66,4,0
18727.531,-0.444,0.242,0.885,-1.74,-0.43,3.08,4,0
18727.546,-0.437,0.235,0.872,-2.47,-2.93,3.14,4,0
18727.562,-0.429,0.229,0.86,-2.47,-3.85,2.81,4,0
18727.562,-0.423,0.229,0.845,-1.53,-3.33,2.23,4,0
18727.578,-0.42,0.235,0.837,-0.89,-1.62,1.5,4,0
18727.578,-0.429,0.242,0.841,-0.58,0.37,0.55,4,0
18727.593,-0.435,0.244,0.849,-0.37,1.43,0.18,4,0
18727.593,-0.439,0.245,0.854,-0.03,2.04,0.37,4,0
18727.609,-0.44,0.248,0.858,0.09,2.35,0.73,4,0
18727.625,-0.44,0.25,0.86,-0.12,2.32,1.13,4,0
18727.64,-0.443,0.248,0.866,-0.89,1.98,1.98,4,0
18727.64,-0.439,0.246,0.865,-1.56,1.22,2.5,4,0
18727.656,-0.438,0.237,0.867,-1.8,0.34,2.32,4,0
18727.656,-0.438,0.234,0.867,-0.58,-0.64,1.59,4,0
18727.671,-0.435,0.232,0.859,1.46,-1.4,0.67,4,0
18727.687,-0.433,0.235,0.848,2.93,-1.68,-0.52,4,0
18727.687,-0.435,0.235,0.847,3.97,-1.5,-1.92,4,0
18727.703,-0.438,0.239,0.844,5.1,-0.92,-2.29,4,0
18727.703,-0.435,0.248,0.843,5.37,-0.15,-1.53,4,0
18727.718,-0.433,0.251,0.846,4.24,0.7,-0.61,4,0
18727.734,-0.436,0.251,0.862,1.31,1.01,0.7,4,0
18727.734,-0.433,0.238,0.878,-1.22,-0.03,2.17,4,0
18727.75,-0.432,0.228,0.881,-1.28,-1.53,3.11,4,0
18727.765,-0.432,0.222,0.87,0.0,-2.96,3.42,4,0
18727.765,-0.423,0.22,0.848,0.4,-4.0,3.3,4,0
18727.781,-0.417,0.222,0.833,-0.55,-3.48,2.53,4,0
18727.796,-0.425,0.213,0.832,-1.59,-1.74,1.22,4,0
18727.796,-0.437,0.215,0.85,-1.37,-0.18,-0.03,4,0
18727.812,-0.452,0.228,0.872,-0.06,0.06,-1.43,4,0
18727.812,-0.459,0.235,0.888,1.13,-1.43,-2.5,4,0
18727.828,-0.449,0.235,0.888,2.14,-3.94,-3.27,4,0
18727.843,-0.432,0.232,0.875,3.2,-5.65,-3.66,4,0
18727.859,-0.424,0.232,0.858,4.21,-5.37,-4.0,4,0
18727.859,-0.421,0.229,0.843,4.03,-3.81,-4.18,4,0
18727.875,-0.417,0.229,0.838,2.59,-1.95,-3.88,4,0
18727.875,-0.413,0.229,0.842,0.85,0.0,-3.6,4,0
18727.89,-0.418,0.231,0.854,-0.67,1.74,-3.54,4,0
18727.906,-0.428,0.235,0.872,-1.68,2.35,-3.05,4,0
18727.906,-0.434,0.239,0.889,-2.75,1.62,-2.29,4,0
18727.921,-0.436,0.24,0.901,-3.57,0.18,-1.28,4,0
18727.937,-0.436,0.245,0.91,-4.61,-1.62,0.31,4,0
18727.937,-0.43,0.245,0.905,-5.95,-3.63,1.83,4,0
18727.953,-0.424,0.24,0.898,-8.3,-5.4,2.78,4,0
18727.953,-0.424,0.229,0.892,-10.38,-6.68,2.99,4,0
18727.968,-0.417,0.222,0.881,-10.77,-7.6,2.72,4,0
18727.984,-0.411,0.225,0.871,-9.61,-8.33,1.83,4,0
18727.984,-0.405,0.228,0.862,-7.45,-8.73,-0.55,4,0
18728.0,-0.404,0.235,0.857,-4.49,-8.24,-3.66,4,0
18728.015,-0.406,0.247,0.854,-1.22,-7.45,-6.68,4,0
18728.015,-0.414,0.263,0.855,1.68,-6.38,-9.19,4,0
18728.031,-0.423,0.278,0.867,3.75,-5.71,-10.16,4,0
18728.046,-0.425,0.296,0.862,4.58,-5.4,-9.09,4,0
18728.046,-0.429,0.296,0.884,3.78,-5.31,-6.62,4,0
18728.062,-0.436,0.296,0.872,3.08,-6.38,-4.21,4,0
18728.078,-0.435,0.297,0.869,1.1,-7.32,-1.56,4,0
18728.078,-0.44,0.271,0.876,0.49,-7.81,0.52,4,0
18728.093,-0.441,0.265,0.873,1.62,-8.33,1.8,4,0
18728.093,-0.432,0.259,0.867,3.57,-8.33,2.9,4,0
18728.109,-0.423,0.248,0.859,5.22,-7.6,3.66,4,0
18728.125,-0.419,0.248,0.85,6.35,-6.23,4.73,4,0
18728.125,-0.414,0.243,0.852,6.2,-4.7,5.92,4,0
18728.14,-0.412,0.233,0.861,5.74,-3.57,6.9,4,0
18728.156,-0.42,0.233,0.873,5.46,-3.17,7.66,4,0
18728.156,-0.424,0.23,0.885,4.58,-4.58,8.39,4,0
18728.171,-0.428,0.232,0.892,3.54,-6.87,8.85,4,0
18728.187,-0.425,0.231,0.886,3.45,-9.37,9.37,4,0
18728.187,-0.413,0.232,0.865,3.85,-11.29,10.04,4,0
18728.203,-0.401,0.239,0.848,3.39,-11.72,10.1,4,0
18728.218,-0.395,0.234,0.832,2.26,-10.71,9.43,4,0
18728.218,-0.4,0.234,0.84,1.68,-8.45,8.91,4,0
18728.234,-0.416,0.239,0.849,2.38,-6.56,9.31,4,0
18728.234,-0.42,0.251,0.863,1.98,-5.95,10.38,4,0
18728.25,-0.422,0.254,0.88,0.15,-6.41,11.26,4,0
18728.265,-0.427,0.255,0.898,-0.43,-7.39,12.02,4,0
18728.281,-0.436,0.254,0.905,1.13,-8.58,12.45,4,0
18728.281,-0.429,0.251,0.9,4.85,-11.32,12.12,4,0
18728.296,-0.412,0.252,0.867,5.95,-10.68,10.74,4,0
18728.296,-0.393,0.254,0.844,5.77,-8.24,8.27,4,0
18728.312,-0.37,0.251,0.812,5.55,-4.33,5.55,4,0
18728.312,-0.378,0.26,0.813,5.77,0.37,3.2,4,0
18728.328,-0.394,0.27,0.84,5.19,3.66,2.08,4,0
18728.343,-0.407,0.276,0.869,4.64,4.91,2.29,4,0
18728.343,-0.41,0.281,0.894,4.06,3.91,3.3,4,0
18728.359,-0.417,0.285,0.911,3.72,1.31,4.67,4,0
18728.375,-0.412,0.283,0.917,3.2,-2.29,6.41,4,0
18728.375,-0.391,0.274,0.904,2.87,-5.74,7.6,4,0
18728.39,-0.372,0.258,0.877,3.78,-7.23,7.97,4,0
18728.406,-0.361,0.249,0.847,4.88,-6.41,7.63,4,0
18728.406,-0.353,0.244,0.826,5.16,-4.18,6.99,4,0
18728.421,-0.355,0.247,0.821,4.39,-1.1,5.95,4,0
18728.421,-0.36,0.247,0.843,2.2,1.8,4.82,4,0
18728.437,-0.382,0.245,0.858,0.55,3.72,4.06,4,0
18728.453,-0.398,0.254,0.897,-0.61,4.33,4.61,4,0
18728.453,-0.41,0.241,0.907,-0.24,2.35,4.85,4,0
18728.468,-0.409,0.246,0.9,0.37,-0.58,5.07,4,0
18728.484,-0.402,0.245,0.89,0.55,-2.84,4.61,4,0
18728.484,-0.395,0.238,0.872,0.61,-4.3,3.54,4,0
18728.5,-0.393,0.248,0.852,1.13,-4.09,2.69,4,0
18728.515,-0.39,0.245,0.845,1.28,-2.99,1.89,4,0
18728.515,-0.398,0.255,0.842,0.98,-1.4,1.19,4,0
18728.531,-0.398,0.264,0.844,-0.06,-0.46,0.89,4,0
18728.546,-0.392,0.257,0.846,-0.46,0.43,0.58,4,0
18728.546,-0.397,0.263,0.86,0.55,1.86,0.03,4,0
18728.562,-0.404,0.27,0.868,1.8,2.53,-0.24,4,0
18728.562,-0.407,0.278,0.876,1.92,2.11,-0.09,4,0
18728.578,-0.406,0.281,0.889,1.1,1.4,0.46,4,0
18728.593,-0.407,0.283,0.902,0.31,0.43,1.16,4,0
18728.593,-0.398,0.284,0.897,-0.12,-1.31,2.2,4,0
18728.609,-0.379,0.277,0.876,-0.27,-2.35,2.87,4,0
18728.625,-0.365,0.268,0.86,-0.03,-1.77,2.53,4,0
18728.64,-0.368,0.265,0.854,0.67,0.12,1.46,4,0
18728.64,-0.371,0.267,0.859,1.59,2.04,0.95,4,0
18728.656,-0.364,0.273,0.862,0.98,3.27,0.85,4,0
18728.656,-0.365,0.271,0.874,-0.37,4.03,0.4,4,0
18728.671,-0.372,0.266,0.887,-0.37,4.18,-0.21,4,0
18728.687,-0.38,0.279,0.904,0.46,3.23,-0.49,4,0
18728.687,-0.383,0.285,0.912,0.49,0.79,-0.55,4,0
18728.703,-0.376,0.282,0.903,-0.49,-2.32,-0.03,4,0
18728.718,-0.366,0.279,0.889,-0.79,-4.3,0.76,4,0
18728.718,-0.355,0.283,0.869,-1.04,-4.73,1.83,4,0
18728.734,-0.343,0.281,0.848,-2.01,-3.6,2.17,4,0
18728.734,-0.346,0.275,0.842,-3.08,-1.43,1.89,4,0
18728.75,-0.353,0.277,0.851,-3.05,0.76,1.71,4,0
18728.765,-0.36,0.282,0.864,-2.53,2.38,1.53,4,0
18728.765,-0.37,0.286,0.876,-2.72,3.23,1.46,4,0
18728.781,-0.379,0.283,0.891,-3.45,3.27,1.62,4,0
18728.796,-0.391,0.287,0.902,-3.69,2.84,2.26,4,0
18728.796,-0.397,0.29,0.904,-4.24,1.5,2.87,4,0
18728.812,-0.392,0.286,0.908,-5.13,-0.55,3.14,4,0
18728.812,-0.387,0.282,0.902,-4.82,-1.98,3.39,4,0
18728.828,-0.387,0.281,0.894,-3.6,-2.66,3.42,4,0
18728.843,-0.383,0.287,0.885,-2.66,-3.08,3.05,4,0
18728.843,-0.379,0.289,0.876,-2.38,-3.27,2.41,4,0
18728.859,-0.381,0.284,0.871,-2.17,-2.84,1.86,4,0
18728.875,-0.384,0.284,0.875,-1.59,-2.11,1.71,4,0
18728.875,-0.381,0.286,0.867,-1.53,-1.68,1.92,4,0
18728.89,-0.375,0.286,0.864,-2.04,-0.79,1.83,4,0
18728.906,-0.379,0.281,0.867,-2.17,0.43,1.13,4,0
18728.906,-0.385,0.278,0.866,-1.16,1.34,0.43,4,0
18728.921,-0.394,0.289,0.879,-0.12,1.74,0.03,4,0
18728.937,-0.404,0.293,0.892,0.55,0.7,-0.15,4,0
18728.937,-0.409,0.296,0.893,0.85,-1.56,0.55,4,0
18728.953,-0.399,0.295,0.88,0.24,-3.97,1.95,4,0
18728.953,-0.391,0.289,0.869,-0.7,-5.34,3.17,4,0
18728.968,-0.391,0.284,0.86,-0.73,-5.62,3.42,4,0
18728.984,-0.394,0.284,0.847,-0.46,-5.71,3.08,4,0
18728.984,-0.391,0.278,0.841,-0.12,-4.97,2.66,4,0
18729.0,-0.39,0.274,0.835,0.21,-3.75,2.47,4,0
18729.015,-0.388,0.277,0.834,0.46,-2.2,2.2,4,0
18729.015,-0.391,0.276,0.843,0.7,-0.58,1.89,4,0
18729.031,-0.392,0.269,0.845,1.07,0.92,1.71,4,0
18729.031,-0.399,0.268,0.854,1.37,2.29,1.65,4,0
18729.046,-0.415,0.279,0.874,1.34,2.35,1.59,4,0
18729.062,-0.42,0.279,0.887,0.34,0.46,1.83,4,0
18729.062,-0.415,0.272,0.887,-0.34,-2.35,2.26,4,0
18729.078,-0.403,0.268,0.869,0.0,-4.46,2.44,4,0
18729.093,-0.395,0.265,0.846,0.73,-5.07,2.35,4,0
18729.093,-0.392,0.267,0.833,1.43,-3.94,2.14,4,0
18729.109,-0.399,0.268,0.829,1.4,-2.26,1.92,4,0
18729.125,-0.398,0.275,0.831,0.67,-0.64,2.38,4,0
18729.125,-0.394,0.271,0.832,0.03,0.76,3.08,4,0
18729.14,-0.392,0.27,0.84,-1.01,2.41,3.72,4,0
18729.156,-0.396,0.268,0.847,-2.14,3.57,3.72,4,0
18729.156,-0.397,0.26,0.858,-2.35,4.03,3.33,4,0
18729.171,-0.396,0.26,0.86,-1.34,4.3,2.84,4,0
18729.171,-0.399,0.271,0.86,-0.61,4.39,2.17,4,0
18729.187,-0.406,0.278,0.866,-1.16,3.69,1.71,4,0
18729.203,-0.402,0.275,0.871,-1.65,2.75,2.32,4,0
18729.203,-0.396,0.282,0.868,-1.62,2.47,3.42,4,0
18729.218,-0.389,0.282,0.869,-2.17,2.17,4.15,4,0
18729.234,-0.389,0.279,0.868,-3.08,2.14,4.79,4,0
18729.25,-0.39,0.271,0.867,-3.27,2.44,5.4,4,0
18729.25,-0.393,0.274,0.869,-3.02,2.81,5.52,4,0
18729.265,-0.393,0.277,0.871,-4.36,2.62,5.49,4,0
18729.265,-0.389,0.275,0.873,-4.7,2.9,5.65,4,0
18729.281,-0.387,0.272,0.875,-4.58,3.05,6.16,4,0
18729.296,-0.383,0.28,0.889,-5.04,2.69,6.9,4,0
18729.296,-0.369,0.278,0.885,-6.38,1.89,7.78,4,0
18729.312,-0.362,0.27,0.879,-7.45,1.43,8.27,4,0
18729.312,-0.361,0.264,0.876,-7.81,1.65,7.97,4,0
18729.328,-0.365,0.266,0.874,-7.69,1.95,7.54,4,0
18729.343,-0.364,0.27,0.872,-7.57,1.92,6.93,4,0
18729.343,-0.367,0.269,0.87,-7.32,1.95,5.49,4,0
18729.359,-0.377,0.275,0.875,-6.16,2.23,3.97,4,0
18729.375,-0.386,0.286,0.872,-4.55,2.5,2.99,4,0
18729.375,-0.386,0.296,0.87,-3.3,2.62,2.38,4,0
18729.39,-0.388,0.303,0.869,-2.23,2.96,1.92,4,0
18729.406,-0.396,0.305,0.865,-0.82,3.66,1.95,4,0
18729.406,-0.402,0.317,0.867,0.49,4.3,2.84,4,0
18729.421,-0.407,0.329,0.878,0.31,3.85,3.54,4,0
18729.437,-0.406,0.33,0.872,-0.89,2.44,4.24,4,0
18729.437,-0.405,0.31,0.859,0.61,1.28,5.34,4,0
18729.453,-0.408,0.318,0.866,2.08,1.19,6.99,4,0
18729.468,-0.403,0.316,0.855,2.62,0.7,8.12,4,0
18729.468,-0.399,0.304,0.845,2.5,0.64,8.51,4,0
18729.484,-0.397,0.292,0.845,3.33,1.19,9.28,4,0
18729.484,-0.394,0.295,0.846,4.36,2.04,9.67,4,0
18729.5,-0.392,0.288,0.849,5.25,3.05,9.64,4,0
18729.515,-0.395,0.277,0.852,6.29,4.27,9.13,4,0
18729.515,-0.404,0.274,0.857,7.08,5.37,8.7,4,0
18729.531,-0.419,0.271,0.872,7.72,5.92,8.42,4,0
18729.546,-0.426,0.27,0.885,8.21,5.16,8.79,4,0
18729.546,-0.416,0.263,0.886,7.93,3.27,9.34,4,0
18729.562,-0.406,0.257,0.883,7.51,2.17,9.31,4,0
18729.562,-0.401,0.261,0.88,7.32,1.89,9.0,4,0
18729.578,-0.397,0.265,0.87,6.78,2.17,9.25,4,0
18729.593,-0.389,0.257,0.865,4.91,2.66,9.95,4,0
18729.593,-0.39,0.25,0.859,3.27,3.94,10.68,4,0
18729.609,-0.385,0.245,0.863,1.16,4.64,11.41,4,0
18729.625,-0.375,0.246,0.867,-1.07,5.49,12.05,4,0
18729.625,-0.377,0.241,0.872,-3.3,6.32,12.05,4,0
18729.64,-0.383,0.237,0.886,-5.1,6.47,11.75,4,0
18729.656,-0.388,0.237,0.9,-6.29,5.19,11.11,4,0
18729.656,-0.381,0.236,0.9,-6.78,2.9,10.01,4,0
18729.671,-0.372,0.233,0.892,-6.13,0.73,8.21,4,0
18729.687,-0.366,0.238,0.882,-5.22,-0.43,5.62,4,0
18729.687,-0.359,0.238,0.876,-4.24,-1.5,2.62,4,0
18729.703,-0.359,0.248,0.866,-2.87,-1.8,0.24,4,0
18729.703,-0.362,0.268,0.858,-2.14,-1.74,-1.13,4,0
18729.718,-0.37,0.28,0.85,-2.87,-1.62,-1.5,4,0
18729.734,-0.377,0.291,0.847,-5.25,-1.43,-0.61,4,0
18729.75,-0.381,0.294,0.846,-7.78,-1.13,0.34,4,0
18729.75,-0.391,0.296,0.85,-8.67,-0.85,0.76,4,0
18729.765,-0.399,0.299,0.853,-8.33,-0.95,0.73,4,0
18729.765,-0.402,0.307,0.857,-7.54,-1.34,0.27,4,0
18729.781,-0.409,0.313,0.854,-6.35,-1.71,-0.49,4,0
18729.796,-0.411,0.319,0.851,-4.88,-1.98,-0.85,4,0
18729.796,-0.411,0.322,0.845,-3.2,-1.65,-0.7,4,0
18729.812,-0.412,0.326,0.838,-1.74,-0.82,-0.34,4,0
18729.828,-0.415,0.326,0.834,-0.79,0.06,0.15,4,0
18729.828,-0.421,0.323,0.841,-0.4,0.61,0.15,4,0
18729.843,-0.422,0.32,0.848,0.64,0.52,0.31,4,0
18729.843,-0.42,0.315,0.847,2.66,0.4,0.92,4,0
18729.859,-0.414,0.318,0.843,4.03,0.27,1.74,4,0
18729.875,-0.406,0.315,0.838,3.57,0.49,2.75,4,0
18729.875,-0.401,0.304,0.837,2.11,1.31,4.46,4,0
18729.89,-0.402,0.297,0.84,0.06,2.56,6.47,4,0
18729.906,-0.409,0.291,0.851,-2.59,3.39,8.0,4,0
18729.906,-0.41,0.276,0.865,-5.04,3.08,8.88,4,0
18729.921,-0.409,0.261,0.867,-5.37,2.23,8.91,4,0
18729.921,-0.407,0.254,0.861,-4.36,1.34,7.75,4,0
18729.937,-0.405,0.252,0.853,-2.5,0.46,5.49,4,0
18729.953,-0.405,0.251,0.844,-0.27,0.15,2.75,4,0
18729.953,-0.404,0.256,0.843,1.8,0.82,0.21,4,0
18729.968,-0.406,0.268,0.843,3.6,1.89,-1.71,4,0
18729.984,-0.404,0.278,0.843,4.06,2.84,-2.56,4,0
18729.984,-0.405,0.284,0.848,3.14,3.36,-2.38,4,0
18730.0,-0.404,0.291,0.856,2.2,3.48,-1.86,4,0
18730.015,-0.403,0.291,0.861,1.31,3.27,-1.13,4,0
18730.015,-0.406,0.293,0.863,0.52,2.99,-0.37,4,0
18730.031,-0.406,0.297,0.867,-0.49,2.38,0.34,4,0
18730.046,-0.405,0.296,0.868,-1.68,1.68,0.52,4,0
18730.046,-0.403,0.293,0.868,-2.29,1.19,0.52,4,0
18730.062,-0.399,0.293,0.865,-2.26,1.31,0.73,4,0
18730.062,-0.397,0.295,0.86,-2.11,1.65,0.76,4,0
18730.078,-0.393,0.296,0.857,-2.04,2.11,0.61,4,0
18730.093,-0.394,0.299,0.859,-1.95,2.66,0.06,4,0
18730.093,-0.393,0.298,0.864,-1.43,2.93,-0.52,4,0
18730.109,-0.391,0.305,0.866,-0.24,3.17,-0.82,4,0
18730.125,-0.391,0.313,0.864,1.37,3.45,-1.01,4,0
18730.125,-0.389,0.315,0.866,1.77,3.36,-0.7,4,0
18730.14,-0.388,0.318,0.871,0.98,2.99,0.34,4,0
18730.156,-0.388,0.316,0.87,0.55,2.35,1.65,4,0
18730.156,-0.386,0.314,0.873,-0.34,1.59,2.78,4,0
18730.171,-0.389,0.31,0.874,-1.92,0.55,3.91,4,0
18730.187,-0.386,0.298,0.871,-2.81,-0.55,4.94,4,0
18730.187,-0.384,0.288,0.864,-2.59,-1.01,5.55,4,0
18730.203,-0.388,0.287,0.859,-2.04,-0.7,5.62,4,0
18730.218,-0.393,0.283,0.855,-2.08,-0.06,5.22,4,0
18730.218,-0.391,0.281,0.857,-2.72,0.67,4.79,4,0
18730.234,-0.398,0.285,0.864,-2.99,1.5,4.27,4,0
18730.234,-0.407,0.285,0.866,-3.39,1.31,4.21,4,0
18730.25,-0.407,0.284,0.872,-3.75,0.46,4.52,4,0
18730.265,-0.409,0.284,0.878,-3.81,-0.64,4.21,4,0
18730.281,-0.413,0.284,0.877,-3.63,-1.62,3.54,4,0
18730.281,-0.418,0.279,0.863,-3.36,-2.01,2.66,4,0
18730.296,-0.419,0.281,0.855,-2.62,-2.23,1.8,4,0
18730.296,-0.418,0.281,0.85,-1.89,-2.14,1.1,4,0
18730.312,-0.416,0.282,0.849,-1.1,-1.34,0.7,4,0
18730.328,-0.416,0.286,0.851,-0.98,-0.64,0.64,4,0
18730.328,-0.411,0.288,0.851,-1.53,-0.34,0.89,4,0
18730.343,-0.407,0.282,0.85,-1.92,-0.15,1.16,4,0
18730.359,-0.406,0.279,0.853,-2.11,0.15,1.37,4,0
18730.359,-0.402,0.281,0.85,-2.23,0.34,1.34,4,0
18730.375,-0.404,0.276,0.853,-2.72,0.31,1.07,4,0
18730.375,-0.407,0.272,0.855,-3.14,0.43,0.76,4,0
18730.39,-0.408,0.27,0.855,-3.23,0.27,0.95,4,0
18730.406,-0.41,0.267,0.857,-3.42,0.06,0.82,4,0
18730.406,-0.406,0.267,0.854,-3.66,-0.34,0.49,4,0
18730.421,-0.406,0.268,0.849,-3.54,-0.52,0.09,4,0
18730.421,-0.402,0.269,0.846,-3.45,-0.46,-0.55,4,0
18730.437,-0.402,0.272,0.842,-3.05,-0.24,-1.43,4,0
18730.453,-0.408,0.277,0.842,-2.44,0.12,-2.17,4,0
18730.453,-0.413,0.283,0.843,-1.95,0.34,-2.41,4,0
18730.468,-0.416,0.287,0.843,-1.8,0.46,-2.38,4,0
18730.484,-0.418,0.287,0.843,-1.89,0.79,-1.95,4,0
18730.484,-0.416,0.285,0.843,-2.38,1.28,-1.1,4,0
18730.5,-0.418,0.285,0.845,-3.11,1.86,-0.21,4,0
18730.515,-0.422,0.282,0.85,-3.91,1.89,0.58,4,0
18730.515,-0.418,0.278,0.852,-4.67,1.62,0.98,4,0
18730.531,-0.417,0.272,0.858,-4.39,1.53,1.1,4,0
18730.546,-0.415,0.272,0.858,-3.66,1.13,0.7,4,0
18730.546,-0.411,0.269,0.853,-3.27,0.76,-0.09,4,0
18730.562,-0.407,0.264,0.851,-2.72,1.04,-1.04,4,0
18730.578,-0.408,0.262,0.853,-1.77,1.68,-1.71,4,0
18730.578,-0.408,0.267,0.853,-1.25,2.26,-2.47,4,0
18730.593,-0.407,0.27,0.857,-0.95,2.72,-3.14,4,0
18730.593,-0.411,0.271,0.865,-0.61,2.75,-3.97,4,0
18730.609,-0.413,0.272,0.875,-0.37,1.98,-4.88,4,0
18730.625,-0.411,0.273,0.876,0.31,0.67,-5.58,4,0
18730.625,-0.405,0.275,0.87,1.77,-0.49,-6.29,4,0
18730.64,-0.401,0.284,0.865,3.05,-1.01,-6.84,4,0
18730.656,-0.4,0.283,0.861,4.21,-0.89,-6.74,4,0
18730.656,-0.399,0.287,0.855,5.43,-0.31,-5.8,4,0
18730.671,-0.394,0.296,0.848,5.04,0.52,-4.3,4,0
18730.671,-0.395,0.293,0.848,2.04,1.59,-2.2,4,0
18730.687,-0.39,0.277,0.852,-1.95,2.38,0.58,4,0
18730.703,-0.391,0.264,0.862,-5.07,2.9,2.47,4,0
18730.703,-0.392,0.256,0.871,-6.62,3.02,3.14,4,0
18730.718,-0.403,0.258,0.874,-7.45,2.96,3.2,4,0
18730.734,-0.412,0.254,0.875,-8.51,1.98,3.02,4,0
18730.734,-0.42,0.247,0.879,-8.33,0.55,1.59,4,0
18730.75,-0.43,0.242,0.871,-6.01,-0.89,-0.61,4,0
18730.765,-0.428,0.246,0.86,-2.62,-1.74,-2.84,4,0
18730.765,-0.428,0.259,0.848,0.06,-1.71,-5.46,4,0
18730.781,-0.428,0.271,0.842,1.37,-1.19,-7.54,4,0
18730.796,-0.428,0.28,0.841,2.32,-0.27,-8.33,4,0
18730.812,-0.428,0.287,0.84,2.99,0.82,-8.24,4,0
18730.812,-0.425,0.294,0.845,2.93,1.46,-7.57,4,0
18730.812,-0.421,0.291,0.85,2.35,1.68,-6.5,4,0
18730.828,-0.415,0.283,0.853,2.59,1.53,-5.58,4,0
18730.843,-0.411,0.276,0.85,3.39,1.5,-5.07,4,0
18730.843,-0.413,0.275,0.85,3.88,1.62,-4.58,4,0
18730.859,-0.418,0.271,0.854,3.27,1.8,-3.91,4,0
18730.875,-0.424,0.267,0.859,1.74,1.98,-3.02,4,0
18730.875,-0.433,0.267,0.875,-0.06,1.92,-2.23,4,0
18730.89,-0.433,0.264,0.885,-1.68,1.1,-1.74,4,0
18730.906,-0.424,0.258,0.883,-2.56,0.09,-1.46,4,0
18730.906,-0.423,0.261,0.879,-2.69,-0.37,-1.89,4,0
18730.921,-0.421,0.263,0.872,-2.69,-0.76,-2.2,4,0
18730.937,-0.413,0.264,0.866,-3.27,-0.82,-1.53,4,0
18730.937,-0.405,0.259,0.859,-3.85,-0.46,-1.1,4,0
18730.953,-0.411,0.253,0.861,-4.24,0.43,-1.59,4,0
18730.953,-0.418,0.253,0.869,-4.67,0.89,-2.04,4,0
18730.968,-0.422,0.256,0.872,-4.43,0.92,-2.56,4,0
18730.984,-0.427,0.26,0.872,-4.3,0.61,-3.14,4,0
18730.984,-0.433,0.265,0.874,-4.27,-0.34,-3.6,4,0
18731.0,-0.432,0.274,0.872,-4.0,-1.56,-3.48,4,0
18731.015,-0.426,0.279,0.864,-4.0,-2.69,-3.3,4,0
18731.031,-0.426,0.28,0.856,-4.27,-3.11,-3.05,4,0
18731.031,-0.43,0.285,0.85,-4.33,-3.17,-2.59,4,0
18731.046,-0.426,0.287,0.845,-4.67,-3.02,-1.56,4,0
18731.046,-0.425,0.286,0.838,-5.13,-2.32,-0.52,4,0
18731.062,-0.428,0.285,0.839,-5.68,-1.59,0.24,4,0
18731.062,-0.432,0.282,0.845,-5.77,-0.98,1.1,4,0
18731.078,-0.431,0.277,0.843,-5.77,-0.64,2.01,4,0
18731.093,-0.431,0.277,0.843,-6.32,-0.49,2.69,4,0
18731.109,-0.434,0.272,0.847,-7.14,-0.34,2.81,4,0
18731.109,-0.438,0.265,0.859,-7.08,-0.4,2.84,4,0
18731.125,-0.441,0.264,0.863,-5.71,-0.55,2.41,4,0
18731.125,-0.447,0.265,0.861,-3.66,-1.16,1.5,4,0
18731.14,-0.454,0.27,0.859,-2.08,-1.95,0.52,4,0
18731.156,-0.453,0.274,0.854,-0.89,-2.72,-0.34,4,0
18731.156,-0.448,0.277,0.846,0.21,-2.75,-0.49,4,0
18731.171,-0.447,0.283,0.844,0.58,-2.38,0.03,4,0
18731.187,-0.442,0.286,0.849,-0.09,-2.35,1.04,4,0
18731.187,-0.438,0.282,0.859,-1.07,-2.69,1.56,4,0
18731.203,-0.435,0.274,0.864,-1.19,-3.45,1.59,4,0
18731.203,-0.432,0.269,0.873,-0.37,-4.46,1.37,4,0
18731.218,-0.437,0.272,0.88,0.95,-6.1,0.82,4,0
18731.234,-0.432,0.272,0.884,2.01,-10.28,0.7,4,0
18731.25,-0.424,0.272,0.882,1.95,-11.75,1.01,4,0
18731.25,-0.423,0.27,0.874,0.82,-13.09,1.8,4,0
18731.265,-0.419,0.26,0.877,-0.55,-14.47,3.05,4,0
18731.265,-0.424,0.259,0.9,-3.36,-16.27,4.27,4,0
18731.281,-0.421,0.25,0.902,-7.26,-19.68,5.22,4,0
18731.296,-0.406,0.223,0.909,-9.16,-23.44,5.71,4,0
18731.296,-0.392,0.202,0.898,-8.21,-25.73,5.28,4,0
18731.312,-0.381,0.206,0.879,-6.29,-26.18,3.42,4,0
18731.312,-0.381,0.199,0.86,-3.97,-24.78,1.34,4,0
18731.328,-0.397,0.213,0.874,-3.14,-23.9,-0.64,4,0
18731.343,-0.416,0.222,0.9,-3.3,-24.81,-0.49,4,0
18731.343,-0.417,0.228,0.926,-4.46,-27.95,0.61,4,0
18731.359,-0.403,0.222,0.919,-4.79,-31.86,2.32,4,0
18731.375,-0.375,0.214,0.9,-5.46,-34.58,4.24,4,0
18731.375,-0.353,0.204,0.879,-5.49,-34.15,5.25,4,0
18731.39,-0.333,0.195,0.839,-3.81,-31.28,4.79,4,0
18731.406,-0.319,0.19,0.808,-1.95,-26.06,3.57,4,0
18731.406,-0.313,0.198,0.803,-0.21,-18.86,1.22,4,0
18731.421,-0.314,0.205,0.802,1.71,-11.05,-2.08,4,0
18731.437,-0.318,0.206,0.804,3.54,-3.39,-4.91,4,0
18731.437,-0.336,0.216,0.824,5.49,3.69,-7.23,4,0
18731.453,-0.362,0.231,0.86,6.81,8.51,-8.61,4,0
18731.453,-0.386,0.249,0.903,6.99,10.04,-8.67,4,0
18731.468,-0.408,0.267,0.938,6.2,8.15,-7.29,4,0
18731.484,-0.407,0.276,0.953,3.36,3.27,-4.73,4,0
18731.5,-0.389,0.268,0.938,0.43,-2.2,-1.92,4,0
18731.5,-0.368,0.257,0.909,-1.22,-5.4,0.06,4,0
18731.515,-0.358,0.245,0.885,-1.53,-6.04,1.31,4,0
18731.515,-0.343,0.237,0.86,-1.46,-4.88,2.04,4,0
18731.531,-0.337,0.236,0.848,-2.08,-1.86,2.26,4,0
18731.546,-0.338,0.233,0.854,-2.9,1.8,2.04,4,0
18731.546,-0.342,0.231,0.872,-3.08,4.91,1.77,4,0
18731.562,-0.355,0.233,0.894,-2.66,6.32,1.19,4,0
18731.562,-0.369,0.24,0.919,-2.11,5.86,0.34,4,0
18731.578,-0.377,0.242,0.942,-1.37,3.17,-0.73,4,0
18731.593,-0.37,0.242,0.939,-0.18,-0.37,-0.67,4,0
18731.593,-0.355,0.244,0.923,-0.21,-3.11,-0.18,4,0
18731.609,-0.344,0.241,0.9,-1.25,-4.55,-0.12,4,0
18731.625,-0.338,0.23,0.884,-2.26,-4.58,-0.58,4,0
18731.625,-0.335,0.228,0.873,-1.8,-3.17,-1.56,4,0
18731.64,-0.343,0.232,0.874,-1.07,-1.13,-2.9,4,0
18731.656,-0.354,0.239,0.882,-1.13,0.21,-3.91,4,0
18731.656,-0.362,0.251,0.902,-1.71,0.89,-4.18,4,0
18731.671,-0.373,0.257,0.92,-2.56,0.15,-3.94,4,0
18731.687,-0.373,0.254,0.925,-2.75,-1.86,-3.2,4,0
18731.687,-0.363,0.253,0.917,-1.74,-3.75,-2.17,4,0
18731.703,-0.353,0.256,0.896,-1.04,-4.52,-1.62,4,0
18731.718,-0.352,0.254,0.885,-1.37,-4.0,-1.83,4,0
18731.718,-0.353,0.249,0.884,-1.83,-3.05,-1.86,4,0
18731.734,-0.354,0.251,0.883,-2.17,-2.04,-1.62,4,0
18731.734,-0.352,0.247,0.883,-2.29,-1.43,-1.43,4,0
18731.75,-0.354,0.244,0.892,-1.95,-1.07,-1.43,4,0
18731.765,-0.359,0.242,0.897,-1.19,-1.19,-1.92,4,0
18731.765,-0.362,0.243,0.897,0.09,-1.59,-2.78,4,0
18731.781,-0.361,0.247,0.89,1.25,-2.04,-3.2,4,0
18731.796,-0.359,0.257,0.882,1.4,-2.11,-3.33,4,0
18731.796,-0.357,0.257,0.876,0.55,-1.5,-3.27,4,0
18731.812,-0.362,0.258,0.874,-0.09,-0.7,-2.75,4,0
18731.828,-0.37,0.26,0.876,-0.82,0.37,-1.62,4,0
18731.828,-0.371,0.256,0.881,-2.59,0.67,-0.37,4,0
18731.843,-0.375,0.246,0.894,-4.09,0.43,0.37,4,0
18731.843,-0.381,0.235,0.905,-4.18,-0.24,1.1,4,0
18731.859,-0.376,0.227,0.908,-3.51,-1.4,1.65,4,0
18731.875,-0.372,0.221,0.899,-2.59,-2.66,1.5,4,0
18731.875,-0.368,0.218,0.888,-1.95,-3.3,0.43,4,0
18731.89,-0.363,0.218,0.88,-0.79,-2.99,-0.82,4,0
18731.906,-0.362,0.222,0.869,0.43,-1.98,-1.68,4,0
18731.906,-0.365,0.233,0.868,0.4,-0.37,-2.26,4,0
18731.921,-0.367,0.234,0.879,-0.64,1.04,-2.11,4,0
18731.937,-0.372,0.238,0.89,-1.22,1.68,-1.98,4,0
18731.937,-0.375,0.24,0.899,-0.92,1.74,-1.83,4,0
18731.953,-0.371,0.246,0.901,0.15,0.95,-1.59,4,0
18731.953,-0.37,0.247,0.895,0.73,0.12,-1.22,4,0
18731.968,-0.367,0.246,0.894,-0.12,-0.67,-0.4,4,0
18731.984,-0.362,0.241,0.893,-0.67,-1.01,0.37,4,0
18731.984,-0.359,0.237,0.886,-1.07,-1.07,1.22,4,0
18732.0,-0.357,0.235,0.882,-2.35,-0.7,1.95,4,0
18732.015,-0.352,0.227,0.882,-3.36,-0.21,1.95,4,0
18732.031,-0.358,0.22,0.887,-2.81,0.79,0.82,4,0
18732.031,-0.367,0.222,0.898,-1.92,1.25,-0.34,4,0
18732.046,-0.37,0.231,0.909,-1.4,0.95,-1.31,4,0
18732.046,-0.375,0.238,0.919,-1.22,0.0,-1.92,4,0
18732.062,-0.378,0.241,0.923,-1.25,-1.92,-1.8,4,0
18732.062,-0.371,0.241,0.918,-1.16,-3.78,-1.01,4,0
18732.078,-0.358,0.244,0.898,-1.25,-4.73,-0.37,4,0
18732.093,-0.353,0.238,0.882,-1.46,-4.61,-0.03,4,0
18732.093,-0.351,0.235,0.877,-2.04,-3.36,0.46,4,0
18732.109,-0.353,0.239,0.881,-3.08,-1.92,0.61,4,0
18732.125,-0.358,0.233,0.892,-3.63,-1.04,0.46,4,0
18732.125,-0.361,0.23,0.9,-2.99,-0.85,0.64,4,0
18732.14,-0.359,0.235,0.899,-2.56,-1.04,0.89,4,0
18732.156,-0.359,0.234,0.907,-2.96,-1.56,0.64,4,0
18732.156,-0.366,0.231,0.909,-2.78,-2.29,0.24,4,0
18732.171,-0.364,0.231,0.902,-1.71,-3.3,0.43,4,0
18732.187,-0.357,0.238,0.89,-1.22,-3.78,0.31,4,0
18732.187,-0.359,0.238,0.886,-1.53,-3.3,-0.27,4,0
18732.203,-0.36,0.232,0.88,-1.5,-2.75,-0.61,4,0
18732.203,-0.362,0.233,0.884,-0.85,-1.28,-0.06,4,0
18732.218,-0.36,0.24,0.885,-1.37,-0.92,0.06,4,0
18732.234,-0.362,0.236,0.888,-0.89,-0.43,0.4,4,0
18732.25,-0.376,0.239,0.902,-0.15,-0.43,1.37,4,0
18732.25,-0.376,0.24,0.91,-0.18,-1.37,2.38,4,0
18732.265,-0.368,0.233,0.909,-0.7,-2.56,3.05,4,0
18732.265,-0.361,0.23,0.903,-0.7,-3.33,3.45,4,0
18732.281,-0.354,0.223,0.893,-0.64,-3.6,3.39,4,0
18732.296,-0.356,0.218,0.889,-0.98,-3.2,2.75,4,0
18732.296,-0.357,0.218,0.891,-0.85,-2.84,2.04,4,0
18732.312,-0.353,0.216,0.888,0.03,-2.56,1.19,4,0
18732.328,-0.347,0.217,0.889,0.52,-1.83,0.18,4,0
18732.328,-0.349,0.219,0.89,1.62,-0.89,-0.85,4,0
18732.343,-0.353,0.224,0.894,2.29,0.0,-1.4,4,0
18732.343,-0.356,0.232,0.894,2.26,0.31,-1.46,4,0
18732.359,-0.353,0.234,0.895,1.53,0.24,-1.5,4,0
18732.375,-0.354,0.233,0.899,1.19,0.43,-1.07,4,0
18732.375,-0.358,0.234,0.906,0.76,0.37,-0.31,4,0
18732.39,-0.361,0.232,0.91,1.01,-0.31,0.4,4,0
18732.406,-0.36,0.233,0.908,0.89,-1.22,1.25,4,0
18732.406,-0.35,0.228,0.9,-0.37,-1.83,2.11,4,0
18732.421,-0.347,0.221,0.893,-1.19,-1.59,2.08,4,0
18732.421,-0.348,0.215,0.889,-1.01,-0.85,1.59,4,0
18732.437,-0.352,0.218,0.894,-0.61,-0.21,0.67,4,0
18732.453,-0.358,0.221,0.902,-0.46,0.06,-0.24,4,0
18732.453,-0.357,0.225,0.908,0.15,-0.12,-0.76,4,0
18732.468,-0.361,0.229,0.907,0.85,-0.4,-0.85,4,0
18732.484,-0.358,0.236,0.907,0.31,-0.79,-0.31,4,0
18732.484,-0.352,0.233,0.898,-0.7,-1.31,0.43,4,0
18732.5,-0.348,0.228,0.897,-0.89,-1.16,0.79,4,0
18732.515,-0.352,0.232,0.903,-0.21,-0.92,0.55,4,0
18732.515,-0.35,0.233,0.9,0.06,-1.34,0.58,4,0
