timestamp,ax,ay,az,gx,gy,gz,orient_label,motion_label
18684.796,-0.465,0.191,0.828,-0.03,0.12,3.78,4,0
18684.812,-0.461,0.184,0.819,-0.82,0.34,3.14,4,0
18684.812,-0.462,0.184,0.817,-0.82,1.4,2.2,4,0
18684.828,-0.473,0.187,0.831,-0.27,2.44,1.04,4,0
18684.843,-0.485,0.193,0.846,0.15,1.83,-0.21,4,0
18684.843,-0.484,0.192,0.846,0.4,0.58,-1.19,4,0
18684.859,-0.482,0.198,0.845,0.67,-0.4,-1.4,4,0
18684.875,-0.478,0.204,0.84,0.58,-1.1,-1.07,4,0
18684.875,-0.48,0.205,0.83,-0.64,-0.89,-0.61,4,0
18684.89,-0.484,0.203,0.827,-2.2,-0.06,-0.24,4,0
18684.906,-0.492,0.202,0.833,-2.84,0.61,-0.27,4,0
18684.906,-0.495,0.203,0.838,-2.29,0.79,-0.89,4,0
18684.921,-0.495,0.21,0.837,-1.19,0.73,-1.77,4,0
18684.937,-0.495,0.219,0.835,-0.15,0.95,-2.56,4,0
18684.937,-0.495,0.23,0.831,0.09,0.7,-2.99,4,0
18684.953,-0.49,0.236,0.828,-0.24,0.46,-2.5,4,0
18684.953,-0.489,0.24,0.829,-0.76,0.64,-1.56,4,0
18684.968,-0.487,0.239,0.832,-1.74,0.61,-0.34,4,0
18684.984,-0.483,0.236,0.833,-2.93,0.06,0.76,4,0
18684.984,-0.484,0.235,0.835,-3.85,-0.4,1.74,4,0
18685.0,-0.482,0.23,0.838,-3.3,-0.92,2.81,4,0
18685.015,-0.483,0.229,0.832,-2.78,-1.31,2.44,4,0
18685.015,-0.482,0.224,0.823,-2.87,-1.28,1.8,4,0
18685.031,-0.483,0.221,0.824,-2.23,-0.92,1.04,4,0
18685.031,-0.479,0.222,0.821,-1.1,-0.64,0.52,4,0
18685.046,-0.475,0.228,0.821,-0.79,0.06,0.34,4,0
18685.062,-0.478,0.227,0.822,-1.34,1.04,0.37,4,0
18685.062,-0.484,0.223,0.83,-1.62,1.8,1.07,4,0
18685.078,-0.486,0.223,0.831,-1.68,2.29,1.68,4,0
18685.093,-0.495,0.22,0.837,-1.77,2.59,1.34,4,0
18685.093,-0.506,0.217,0.849,-1.83,1.95,0.98,4,0
18685.109,-0.501,0.218,0.85,-1.25,0.64,0.82,4,0
18685.125,-0.49,0.219,0.835,-0.34,-0.15,0.67,4,0
18685.125,-0.483,0.215,0.824,-0.73,0.4,1.1,4,0
18685.14,-0.482,0.214,0.829,-2.26,1.5,1.56,4,0
18685.156,-0.483,0.214,0.838,-3.08,2.26,1.62,4,0
18685.156,-0.485,0.211,0.842,-2.96,2.72,1.74,4,0
18685.171,-0.489,0.213,0.85,-2.5,2.5,1.22,4,0
18685.171,-0.493,0.212,0.854,-1.71,1.92,0.4,4,0
18685.187,-0.494,0.212,0.856,-0.55,0.95,-0.24,4,0
18685.203,-0.487,0.215,0.849,0.0,-0.52,-0.61,4,0
18685.203,-0.48,0.216,0.837,-0.15,-1.13,-0.4,4,0
18685.218,-0.477,0.219,0.83,-0.4,-0.61,0.24,4,0
18685.234,-0.483,0.22,0.839,-1.71,-0.03,0.89,4,0
18685.234,-0.485,0.213,0.842,-3.02,-0.12,1.62,4,0
18685.25,-0.482,0.212,0.842,-2.72,-0.21,2.53,4,0
18685.25,-0.482,0.211,0.839,-1.65,0.0,2.87,4,0
18685.265,-0.484,0.212,0.839,-1.74,-0.03,2.56,4,0
18685.281,-0.487,0.212,0.842,-2.47,-0.37,2.35,4,0
18685.296,-0.483,0.21,0.844,-2.38,-0.85,2.59,4,0
18685.296,-0.482,0.209,0.848,-1.77,-0.82,2.47,4,0
18685.312,-0.486,0.209,0.843,-1.34,-0.79,1.56,4,0
18685.312,-0.49,0.211,0.85,-1.1,-0.98,1.07,4,0
18685.328,-0.493,0.212,0.848,-0.31,-1.13,0.92,4,0
18685.343,-0.488,0.216,0.842,-0.15,-1.34,1.04,4,0
18685.343,-0.489,0.218,0.845,-1.13,-1.77,1.22,4,0
18685.359,-0.491,0.216,0.851,-1.46,-2.32,1.65,4,0
18685.375,-0.49,0.217,0.85,-1.34,-2.93,2.2,4,0
18685.39,-0.487,0.216,0.845,-1.13,-3.3,2.41,4,0
18685.39,-0.489,0.211,0.844,-0.89,-3.48,2.81,4,0
18685.39,-0.493,0.211,0.845,-1.01,-3.81,3.23,4,0
18685.406,-0.493,0.205,0.84,-1.25,-4.24,3.6,4,0
18685.421,-0.487,0.201,0.834,-1.13,-4.21,3.72,4,0
18685.421,-0.482,0.2,0.832,-0.7,-3.51,3.14,4,0
18685.437,-0.482,0.198,0.833,-0.03,-2.78,2.11,4,0
18685.453,-0.485,0.201,0.837,0.21,-2.32,1.01,4,0
18685.468,-0.485,0.203,0.835,0.43,-2.32,0.24,4,0
18685.468,-0.48,0.203,0.835,1.1,-2.32,-0.4,4,0
18685.484,-0.488,0.207,0.839,0.95,-2.01,-0.85,4,0
18685.5,-0.49,0.21,0.839,1.68,-1.89,-0.55,4,0
18685.515,-0.49,0.215,0.84,1.8,-1.65,-0.55,4,0
18685.515,-0.491,0.213,0.84,1.5,-1.5,-0.79,4,0
18685.531,-0.488,0.211,0.832,2.2,-1.01,-0.89,4,0
18685.546,-0.485,0.215,0.831,2.93,-0.03,-0.67,4,0
18685.546,-0.488,0.218,0.845,2.62,0.58,-0.52,4,0
18685.562,-0.488,0.217,0.853,2.38,0.31,-0.21,4,0
18685.562,-0.477,0.22,0.846,2.26,0.09,0.82,4,0
18685.578,-0.463,0.221,0.837,1.56,0.7,1.62,4,0
18685.593,-0.467,0.215,0.837,0.61,2.32,2.17,4,0
18685.593,-0.48,0.215,0.854,-0.61,3.05,2.72,4,0
18685.609,-0.485,0.213,0.867,-2.17,1.83,3.2,4,0
18685.625,-0.48,0.204,0.869,-2.78,0.03,3.88,4,0
18685.625,-0.478,0.206,0.864,-2.53,-1.43,4.27,4,0
18685.64,-0.473,0.206,0.857,-2.96,-2.96,4.06,4,0
18685.656,-0.47,0.194,0.837,-2.44,-3.3,2.38,4,0
18685.671,-0.475,0.203,0.838,-1.56,-2.59,1.22,4,0
18685.687,-0.477,0.205,0.834,-1.62,-2.78,-0.4,4,0
18685.687,-0.478,0.206,0.829,-1.37,-2.78,-1.68,4,0
18685.703,-0.483,0.211,0.827,0.06,-2.17,-2.56,4,0
18685.703,-0.487,0.219,0.825,1.25,-1.8,-2.93,4,0
18685.718,-0.486,0.225,0.818,1.31,-1.4,-3.02,4,0
18685.734,-0.486,0.225,0.817,0.52,-0.73,-2.78,4,0
18685.734,-0.493,0.227,0.821,0.09,-0.06,-2.5,4,0
18685.75,-0.501,0.225,0.827,0.31,0.15,-1.74,4,0
18685.765,-0.505,0.223,0.83,1.1,-0.03,-1.04,4,0
18685.765,-0.503,0.226,0.824,1.68,-0.55,-0.61,4,0
18685.781,-0.511,0.225,0.83,1.56,-0.85,-0.21,4,0
18685.781,-0.509,0.22,0.83,1.28,-1.53,0.12,4,0
18685.796,-0.503,0.214,0.822,1.89,-1.5,0.73,4,0
18685.812,-0.5,0.214,0.815,2.56,-0.7,0.92,4,0
18685.828,-0.501,0.21,0.828,2.08,1.4,-0.43,4,0
18685.843,-0.499,0.214,0.823,3.39,2.5,-1.25,4,0
18685.843,-0.498,0.224,0.818,4.67,4.09,-1.71,4,0
18685.859,-0.498,0.231,0.822,4.58,5.19,-2.23,4,0
18685.875,-0.502,0.232,0.833,4.46,5.71,-2.47,4,0
18685.875,-0.494,0.234,0.836,5.07,5.49,-1.65,4,0
18685.89,-0.479,0.242,0.834,5.92,5.62,-0.21,4,0
18685.906,-0.476,0.24,0.839,5.43,5.74,1.25,4,0
18685.906,-0.474,0.235,0.848,3.75,5.43,2.38,4,0
18685.921,-0.469,0.229,0.848,2.38,4.79,4.03,4,0
18685.921,-0.459,0.225,0.842,1.22,3.97,5.55,4,0
18685.937,-0.457,0.223,0.84,-0.03,3.81,6.13,4,0
18685.953,-0.457,0.214,0.84,-1.01,3.45,6.1,4,0
18685.953,-0.455,0.211,0.835,-1.31,3.02,6.07,4,0
18685.968,-0.454,0.214,0.828,-1.37,3.27,6.01,4,0
18685.984,-0.458,0.216,0.829,-2.47,3.6,4.76,4,0
18685.984,-0.462,0.215,0.833,-2.53,3.45,4.36,4,0
18686.0,-0.464,0.212,0.831,-1.98,3.57,4.21,4,0
18686.0,-0.468,0.21,0.827,-1.89,3.57,4.24,4,0
18686.015,-0.479,0.213,0.832,-3.6,2.9,4.3,4,0
18686.031,-0.477,0.21,0.829,-5.28,2.2,4.09,4,0
18686.046,-0.484,0.21,0.828,-5.58,1.83,3.81,4,0
18686.046,-0.495,0.209,0.829,-6.16,1.25,2.99,4,0
18686.062,-0.506,0.207,0.832,-6.1,0.24,1.77,4,0
18686.062,-0.506,0.206,0.831,-4.15,-1.16,0.98,4,0
18686.078,-0.499,0.214,0.816,-2.5,-1.95,-0.03,4,0
18686.093,-0.502,0.216,0.805,-2.5,-1.65,-1.5,4,0
18686.093,-0.507,0.216,0.797,-1.89,-0.64,-2.62,4,0
18686.109,-0.511,0.221,0.789,-0.92,0.79,-3.33,4,0
18686.125,-0.513,0.227,0.793,-1.34,1.98,-4.03,4,0
18686.125,-0.511,0.227,0.8,-1.86,2.5,-4.43,4,0
18686.14,-0.508,0.23,0.808,-0.95,3.3,-4.39,4,0
18686.156,-0.51,0.235,0.814,0.18,4.27,-4.39,4,0
18686.156,-0.526,0.234,0.823,0.43,4.94,-4.67,4,0
18686.171,-0.532,0.233,0.832,0.03,3.97,-4.39,4,0
18686.171,-0.524,0.232,0.825,0.12,2.5,-3.42,4,0
18686.187,-0.516,0.231,0.811,0.15,1.92,-2.56,4,0
18686.203,-0.512,0.229,0.811,-0.37,2.47,-1.92,4,0
18686.218,-0.514,0.224,0.818,-0.76,3.14,-1.31,4,0
18686.218,-0.514,0.227,0.817,-0.4,3.72,-0.7,4,0
18686.234,-0.516,0.227,0.82,-0.76,3.97,-0.06,4,0
18686.234,-0.518,0.226,0.828,-1.4,3.51,0.4,4,0
18686.25,-0.516,0.222,0.829,-1.77,2.72,0.46,4,0
18686.265,-0.512,0.219,0.83,-1.25,2.04,0.67,4,0
18686.265,-0.509,0.221,0.829,-0.12,1.71,0.52,4,0
18686.281,-0.512,0.221,0.829,0.52,1.37,0.18,4,0
18686.296,-0.508,0.221,0.829,0.24,1.01,0.03,4,0
18686.296,-0.504,0.222,0.827,-0.18,0.64,0.49,4,0
18686.312,-0.495,0.222,0.827,-0.82,0.73,1.34,4,0
18686.312,-0.49,0.225,0.826,-1.68,1.25,2.23,4,0
18686.328,-0.491,0.224,0.831,-3.2,1.8,3.02,4,0
18686.343,-0.5,0.223,0.848,-5.22,1.8,4.3,4,0
18686.359,-0.505,0.223,0.86,-5.04,0.98,4.94,4,0
18686.375,-0.506,0.221,0.864,-4.82,-0.58,5.71,4,0
18686.375,-0.504,0.221,0.864,-4.97,-2.2,6.07,4,0
18686.39,-0.498,0.22,0.858,-4.7,-3.6,6.53,4,0
18686.39,-0.486,0.218,0.848,-4.7,-4.58,6.96,4,0
18686.406,-0.478,0.215,0.84,-5.37,-4.91,7.23,4,0
18686.421,-0.479,0.213,0.834,-6.44,-4.39,7.42,4,0
18686.421,-0.481,0.209,0.83,-6.99,-3.57,7.6,4,0
18686.437,-0.492,0.209,0.832,-7.6,-2.78,7.39,4,0
18686.453,-0.506,0.209,0.844,-8.06,-2.78,6.71,4,0
18686.453,-0.513,0.204,0.851,-7.23,-3.48,5.65,4,0
18686.468,-0.516,0.205,0.847,-5.19,-4.18,4.52,4,0
18686.484,-0.512,0.21,0.838,-3.17,-4.82,2.69,4,0
18686.484,-0.509,0.21,0.827,-1.37,-4.61,0.98,4,0
18686.5,-0.502,0.211,0.814,1.1,-3.66,-0.4,4,0
18686.515,-0.509,0.22,0.81,5.07,0.09,-2.75,4,0
18686.531,-0.512,0.225,0.814,6.41,1.53,-3.2,4,0
18686.531,-0.52,0.226,0.817,7.6,2.47,-2.99,4,0
18686.546,-0.528,0.226,0.831,8.09,2.62,-2.5,4,0
18686.562,-0.531,0.222,0.842,8.18,1.77,-1.83,4,0
18686.562,-0.526,0.215,0.843,8.27,0.18,-0.76,4,0
18686.578,-0.519,0.217,0.84,7.9,-0.95,0.67,4,0
18686.593,-0.514,0.215,0.834,6.41,-1.8,1.98,4,0
18686.593,-0.513,0.208,0.835,4.33,-1.95,3.2,4,0
18686.609,-0.514,0.204,0.833,2.78,-2.14,4.36,4,0
18686.625,-0.512,0.199,0.83,1.62,-2.14,5.37,4,0
18686.625,-0.511,0.194,0.826,0.46,-2.47,6.04,4,0
18686.64,-0.503,0.19,0.816,-0.24,-2.93,6.35,4,0
18686.656,-0.495,0.189,0.811,-0.67,-2.99,6.2,4,0
18686.656,-0.49,0.191,0.806,-1.22,-2.75,5.31,4,0
18686.671,-0.484,0.185,0.81,-1.13,-2.56,4.33,4,0
18686.687,-0.473,0.178,0.82,0.82,-2.11,1.19,4,0
18686.703,-0.472,0.187,0.817,2.41,-1.77,-0.43,4,0
18686.703,-0.47,0.192,0.812,2.29,-1.43,-2.14,4,0
18686.718,-0.472,0.193,0.811,1.43,-0.67,-3.17,4,0
18686.734,-0.476,0.204,0.817,0.34,-0.15,-3.69,4,0
18686.75,-0.485,0.212,0.817,-0.95,0.06,-3.57,4,0
18686.75,-0.488,0.217,0.82,-3.11,-0.43,-3.11,4,0
18686.765,-0.491,0.222,0.825,-5.1,-0.98,-2.26,4,0
18686.765,-0.489,0.223,0.827,-5.77,-1.5,-1.19,4,0
18686.781,-0.493,0.227,0.824,-5.98,-1.83,-0.58,4,0
18686.796,-0.497,0.229,0.828,-6.71,-2.41,-0.34,4,0
18686.796,-0.501,0.229,0.826,-6.9,-3.27,-0.58,4,0
18686.812,-0.502,0.228,0.82,-5.92,-4.0,-0.76,4,0
18686.812,-0.499,0.233,0.807,-4.64,-4.3,-1.04,4,0
18686.828,-0.499,0.236,0.791,-4.06,-3.48,-1.71,4,0
18686.843,-0.502,0.236,0.788,-3.78,-1.83,-2.04,4,0
18686.859,-0.512,0.245,0.8,-2.62,2.14,-1.71,4,0
18686.875,-0.524,0.249,0.816,-2.14,3.36,-1.37,4,0
18686.875,-0.531,0.25,0.83,-2.56,2.9,-0.89,4,0
18686.89,-0.53,0.247,0.829,-2.96,1.5,0.21,4,0
18686.906,-0.521,0.245,0.819,-3.08,0.52,1.71,4,0
18686.906,-0.515,0.243,0.818,-3.94,-0.12,3.3,4,0
18686.921,-0.511,0.235,0.817,-5.4,-0.61,4.85,4,0
18686.937,-0.509,0.225,0.817,-6.74,-0.92,6.26,4,0
18686.937,-0.51,0.214,0.814,-7.75,-0.7,7.2,4,0
18686.953,-0.521,0.208,0.814,-8.45,-0.03,7.35,4,0
18686.968,-0.53,0.207,0.818,-9.13,0.61,7.17,4,0
18686.968,-0.53,0.2,0.817,-7.93,1.37,5.19,4,0
18686.984,-0.527,0.202,0.812,-5.86,2.35,3.85,4,0
18686.984,-0.527,0.206,0.817,-3.48,2.96,2.69,4,0
18687.0,-0.524,0.227,0.815,-2.29,2.99,1.89,4,0
18687.015,-0.52,0.233,0.815,-2.01,2.78,2.11,4,0
18687.015,-0.51,0.235,0.815,-1.68,2.81,3.45,4,0
18687.031,-0.502,0.24,0.808,-2.93,3.14,5.19,4,0
18687.046,-0.503,0.233,0.811,-5.37,3.78,6.41,4,0
18687.046,-0.507,0.221,0.818,-7.23,4.3,7.26,4,0
18687.062,-0.506,0.214,0.823,-7.26,4.64,7.93,4,0
18687.062,-0.508,0.215,0.827,-6.13,5.01,8.12,4,0
18687.078,-0.511,0.213,0.828,-5.49,4.91,8.12,4,0
18687.093,-0.51,0.215,0.829,-5.83,4.58,8.03,4,0
18687.093,-0.512,0.213,0.836,-6.71,3.94,7.84,4,0
18687.109,-0.509,0.207,0.837,-7.23,2.81,7.81,4,0
18687.125,-0.504,0.207,0.833,-6.32,2.38,7.69,4,0
18687.125,-0.51,0.211,0.827,-4.88,2.44,7.39,4,0
18687.14,-0.511,0.209,0.825,-4.36,2.41,6.81,4,0
18687.14,-0.509,0.207,0.816,-4.18,2.41,6.47,4,0
18687.156,-0.506,0.208,0.812,-3.51,2.93,6.23,4,0
18687.171,-0.51,0.212,0.819,-2.78,3.72,6.04,4,0
18687.187,-0.512,0.213,0.823,-2.38,4.15,5.65,4,0
18687.187,-0.514,0.209,0.821,-2.11,4.55,5.4,4,0
18687.203,-0.519,0.206,0.824,-1.34,5.34,5.28,4,0
18687.203,-0.522,0.208,0.828,-0.67,5.92,5.52,4,0
18687.218,-0.521,0.208,0.831,-0.49,5.95,5.58,4,0
18687.234,-0.521,0.211,0.833,-0.92,5.68,5.77,4,0
18687.234,-0.523,0.212,0.841,-1.83,5.16,6.32,4,0
18687.25,-0.514,0.202,0.846,-1.95,4.06,6.65,4,0
18687.265,-0.511,0.203,0.838,-1.22,3.6,6.93,4,0
18687.265,-0.507,0.201,0.834,-0.67,3.17,6.81,4,0
18687.281,-0.507,0.199,0.834,0.06,3.3,6.56,4,0
18687.296,-0.5,0.2,0.827,1.34,3.45,6.41,4,0
18687.296,-0.491,0.203,0.82,1.71,3.97,6.59,4,0
18687.312,-0.492,0.202,0.824,0.27,5.01,6.84,4,0
18687.312,-0.492,0.199,0.834,-1.34,5.71,7.39,4,0
18687.328,-0.494,0.192,0.843,-2.23,5.95,7.87,4,0
18687.343,-0.498,0.188,0.857,-3.02,5.34,8.0,4,0
18687.343,-0.498,0.185,0.863,-3.57,3.85,7.66,4,0
18687.359,-0.492,0.181,0.859,-3.36,1.98,6.99,4,0
18687.375,-0.481,0.181,0.846,-2.11,-0.64,4.58,4,0
18687.39,-0.481,0.178,0.84,-1.4,-1.01,3.08,4,0
18687.406,-0.481,0.18,0.838,-1.01,-0.79,1.83,4,0
18687.406,-0.485,0.185,0.838,-0.67,-0.82,0.49,4,0
18687.421,-0.491,0.184,0.833,-0.09,-0.58,-0.92,4,0
18687.421,-0.495,0.191,0.829,0.67,-0.34,-2.23,4,0
18687.437,-0.499,0.198,0.826,0.98,-0.06,-3.23,4,0
18687.453,-0.504,0.203,0.822,0.82,0.18,-4.21,4,0
18687.453,-0.511,0.21,0.823,0.95,0.06,-4.82,4,0
18687.468,-0.518,0.212,0.829,1.07,-0.09,-4.82,4,0
18687.484,-0.523,0.216,0.837,1.28,-0.89,-4.27,4,0
18687.5,-0.524,0.217,0.832,1.71,-2.53,-3.6,4,0
18687.5,-0.518,0.218,0.821,1.43,-3.72,-2.93,4,0
18687.5,-0.513,0.218,0.812,0.7,-4.18,-2.17,4,0
18687.515,-0.517,0.214,0.809,-0.09,-4.06,-1.74,4,0
18687.531,-0.519,0.213,0.806,-0.46,-3.94,-1.43,4,0
18687.546,-0.515,0.207,0.796,0.09,-2.96,-1.65,4,0
18687.562,-0.517,0.206,0.789,1.07,-1.65,-2.17,4,0
18687.578,-0.522,0.207,0.791,1.95,0.03,-3.02,4,0
18687.578,-0.528,0.206,0.794,2.53,1.31,-3.85,4,0
18687.593,-0.531,0.207,0.801,2.62,2.01,-4.06,4,0
18687.593,-0.532,0.209,0.809,2.44,2.32,-3.94,4,0
18687.609,-0.53,0.207,0.818,2.17,1.83,-3.94,4,0
18687.625,-0.52,0.205,0.822,2.41,0.85,-3.72,4,0
18687.625,-0.517,0.209,0.814,3.23,0.24,-3.81,4,0
18687.64,-0.524,0.209,0.807,3.54,0.4,-4.18,4,0
18687.656,-0.524,0.21,0.806,3.3,0.73,-4.58,4,0
18687.656,-0.525,0.212,0.801,3.3,1.31,-4.39,4,0
18687.671,-0.525,0.213,0.802,3.33,2.11,-3.94,4,0
18687.671,-0.525,0.212,0.811,2.78,2.81,-3.63,4,0
18687.687,-0.522,0.214,0.82,2.17,3.2,-3.05,4,0
18687.703,-0.522,0.216,0.828,1.4,2.81,-2.69,4,0
18687.718,-0.508,0.213,0.828,-0.55,0.43,-2.08,4,0
18687.734,-0.507,0.213,0.824,-0.76,-0.21,-1.98,4,0
18687.734,-0.511,0.215,0.82,-1.13,-0.55,-2.17,4,0
18687.75,-0.512,0.213,0.816,-1.65,-1.07,-2.35,4,0
18687.765,-0.515,0.213,0.81,-1.56,-1.01,-2.59,4,0
18687.765,-0.522,0.213,0.809,-0.85,-0.58,-3.17,4,0
18687.781,-0.526,0.211,0.808,-0.03,-0.03,-3.63,4,0
18687.796,-0.531,0.214,0.809,1.31,0.34,-4.39,4,0
18687.796,-0.534,0.215,0.811,2.53,0.18,-5.22,4,0
18687.812,-0.527,0.218,0.813,3.36,-0.4,-5.58,4,0
18687.812,-0.526,0.217,0.814,4.39,-0.49,-5.98,4,0
18687.828,-0.523,0.216,0.819,5.52,-0.34,-6.29,4,0
18687.843,-0.523,0.21,0.822,6.68,-0.34,-6.68,4,0
18687.843,-0.529,0.206,0.824,8.06,0.03,-7.63,4,0
18687.859,-0.538,0.205,0.825,9.58,0.15,-9.06,4,0
18687.875,-0.538,0.203,0.825,11.02,-0.09,-10.44,4,0
18687.89,-0.533,0.214,0.808,14.59,0.18,-12.7,4,0
18687.906,-0.531,0.221,0.803,15.84,1.22,-12.88,4,0
18687.906,-0.537,0.234,0.8,15.53,2.44,-12.12,4,0
18687.921,-0.543,0.241,0.807,13.43,3.02,-10.59,4,0
18687.921,-0.543,0.24,0.817,11.17,3.11,-8.15,4,0
18687.937,-0.542,0.243,0.822,9.61,2.59,-5.16,4,0
18687.953,-0.537,0.24,0.82,5.62,1.13,-0.4,4,0
18687.953,-0.532,0.232,0.821,4.15,0.49,1.46,4,0
18687.968,-0.529,0.222,0.819,3.14,0.21,2.66,4,0
18687.984,-0.527,0.213,0.816,1.77,-0.12,3.36,4,0
18687.984,-0.521,0.206,0.812,0.18,-0.73,4.15,4,0
18688.0,-0.516,0.204,0.808,-0.64,-1.07,4.18,4,0
18688.015,-0.517,0.202,0.807,-0.64,-0.82,3.57,4,0
18688.015,-0.513,0.202,0.803,-0.64,-0.92,2.47,4,0
18688.031,-0.512,0.2,0.796,0.03,-0.64,1.28,4,0
18688.046,-0.514,0.204,0.796,0.79,0.21,-0.12,4,0
18688.062,-0.513,0.206,0.796,3.08,1.13,-2.41,4,0
18688.062,-0.516,0.21,0.798,3.51,1.86,-3.27,4,0
18688.078,-0.521,0.209,0.803,4.06,2.2,-4.09,4,0
18688.093,-0.529,0.217,0.804,4.39,1.98,-4.55,4,0
18688.093,-0.53,0.22,0.796,4.0,1.31,-4.88,4,0
18688.109,-0.537,0.224,0.797,2.84,0.58,-5.07,4,0
18688.125,-0.534,0.228,0.793,2.14,0.09,-4.79,4,0
18688.125,-0.533,0.232,0.785,2.29,0.18,-4.27,4,0
18688.14,-0.539,0.24,0.782,2.01,0.7,-3.81,4,0
18688.14,-0.543,0.244,0.785,0.98,1.04,-3.3,4,0
18688.156,-0.544,0.248,0.785,0.58,1.19,-2.5,4,0
18688.171,-0.542,0.247,0.779,0.67,1.43,-1.53,4,0
18688.171,-0.547,0.251,0.778,0.27,1.8,-0.58,4,0
18688.187,-0.553,0.253,0.775,-0.82,1.98,0.49,4,0
18688.203,-0.556,0.25,0.773,-1.65,2.04,1.8,4,0
18688.218,-0.561,0.249,0.77,-2.62,1.89,3.51,4,0
18688.218,-0.564,0.247,0.776,-4.43,1.46,5.28,4,0
18688.234,-0.562,0.242,0.781,-5.83,0.95,6.84,4,0
18688.234,-0.564,0.239,0.781,-6.5,0.95,8.3,4,0
18688.25,-0.563,0.234,0.781,-6.87,0.98,9.49,4,0
18688.265,-0.562,0.227,0.781,-7.32,0.67,10.01,4,0
18688.265,-0.566,0.22,0.788,-7.32,0.58,9.92,4,0
18688.281,-0.566,0.211,0.785,-6.44,0.37,9.31,4,0
18688.281,-0.561,0.206,0.778,-5.43,0.18,8.27,4,0
18688.296,-0.558,0.202,0.775,-5.34,0.55,6.93,4,0
18688.312,-0.557,0.202,0.779,-5.19,1.28,5.22,4,0
18688.312,-0.557,0.201,0.789,-4.27,1.59,3.11,4,0
18688.328,-0.557,0.198,0.794,-2.66,1.89,1.07,4,0
18688.343,-0.557,0.202,0.798,-0.89,2.01,-1.01,4,0
18688.359,-0.551,0.204,0.795,0.46,1.98,-2.69,4,0
18688.359,-0.549,0.209,0.794,1.16,2.01,-4.18,4,0
18688.375,-0.546,0.214,0.795,1.65,2.2,-5.28,4,0
18688.375,-0.549,0.22,0.797,2.08,2.32,-5.89,4,0
18688.39,-0.552,0.228,0.799,1.92,2.01,-5.86,4,0
18688.406,-0.55,0.237,0.797,1.43,1.8,-5.1,4,0
18688.406,-0.549,0.241,0.796,0.34,1.86,-4.21,4,0
18688.421,-0.549,0.24,0.799,-0.7,1.95,-2.62,4,0
18688.437,-0.546,0.242,0.798,-1.46,1.89,-0.76,4,0
18688.437,-0.543,0.24,0.799,-2.72,2.08,0.58,4,0
18688.453,-0.545,0.233,0.806,-4.06,2.35,1.53,4,0
18688.453,-0.547,0.224,0.814,-4.94,1.92,1.98,4,0
18688.468,-0.549,0.219,0.828,-5.25,0.89,1.74,4,0
18688.484,-0.545,0.213,0.829,-4.52,-0.58,1.07,4,0
18688.484,-0.536,0.217,0.82,-2.78,-1.74,0.52,4,0
18688.5,-0.531,0.225,0.816,-1.95,-2.38,-0.37,4,0
18688.515,-0.531,0.224,0.818,-2.35,-2.87,-0.82,4,0
18688.515,-0.533,0.23,0.82,-2.9,-3.23,-0.52,4,0
18688.531,-0.536,0.231,0.824,-3.36,-3.81,0.24,4,0
18688.531,-0.535,0.225,0.825,-4.15,-4.33,1.19,4,0
18688.546,-0.538,0.225,0.831,-4.58,-5.1,2.04,4,0
18688.562,-0.546,0.228,0.847,-4.06,-6.32,2.62,4,0
18688.562,-0.561,0.229,0.868,-2.01,-8.58,3.91,4,0
18688.578,-0.572,0.238,0.897,1.34,-12.94,5.95,4,0
18688.593,-0.584,0.247,0.926,6.5,-18.89,8.42,4,0
18688.593,-0.574,0.253,0.908,11.05,-26.73,11.81,4,0
18688.609,-0.546,0.266,0.886,11.57,-33.51,15.41,4,0
18688.625,-0.538,0.261,0.862,11.02,-36.96,18.86,4,0
18688.625,-0.516,0.269,0.851,8.39,-40.19,22.37,4,0
18688.64,-0.515,0.257,0.836,11.23,-41.11,26.03,4,0
18688.656,-0.532,0.27,0.863,12.76,-41.14,30.06,4,0
18688.656,-0.523,0.272,0.877,12.3,-45.01,34.12,4,0
18688.671,-0.51,0.267,0.852,10.38,-48.89,36.77,4,0
18688.671,-0.487,0.264,0.828,6.23,-50.51,39.74,4,0
18688.687,-0.447,0.263,0.807,-0.06,-52.16,40.93,4,0
18688.703,-0.43,0.245,0.78,-6.87,-51.3,39.34,4,0
18688.718,-0.413,0.226,0.78,-11.99,-46.39,37.87,4,0
18688.718,-0.407,0.215,0.785,-13.21,-41.05,35.25,4,0
18688.734,-0.412,0.205,0.804,-11.96,-36.38,31.77,4,0
18688.734,-0.417,0.199,0.831,-9.06,-32.53,27.59,4,0
18688.75,-0.417,0.197,0.847,-4.94,-31.19,22.58,4,0
18688.765,-0.406,0.197,0.854,-1.25,-30.64,17.27,4,0
18688.765,-0.39,0.191,0.829,3.39,-29.11,11.6,4,0
18688.781,-0.373,0.209,0.801,7.57,-25.48,6.56,4,0
18688.796,-0.36,0.22,0.766,9.98,-19.5,2.38,4,0
18688.796,-0.354,0.228,0.736,9.34,-11.35,-1.07,4,0
18688.812,-0.345,0.23,0.72,7.51,-1.37,-3.72,4,0
18688.812,-0.359,0.229,0.715,7.48,9.92,-6.16,4,0
18688.828,-0.382,0.232,0.752,8.67,20.45,-7.78,4,0
18688.843,-0.411,0.256,0.799,10.86,28.23,-9.03,4,0
18688.843,-0.45,0.276,0.861,12.36,31.53,-10.25,4,0
18688.859,-0.506,0.292,0.95,13.4,28.38,-10.41,4,0
18688.875,-0.534,0.306,1.004,13.43,17.91,-9.49,4,0
18688.875,-0.51,0.311,0.988,11.69,3.48,-7.08,4,0
18688.89,-0.456,0.306,0.912,8.85,-8.06,-4.76,4,0
18688.906,-0.407,0.295,0.828,5.71,-12.73,-3.45,4,0
18688.906,-0.392,0.278,0.763,2.59,-10.83,-3.2,4,0
18688.921,-0.4,0.263,0.742,0.24,-4.94,-3.57,4,0
18688.921,-0.42,0.255,0.748,-2.56,6.38,-5.58,4,0
18688.937,-0.429,0.254,0.766,-5.28,9.74,-7.78,4,0
18688.953,-0.43,0.248,0.795,-6.5,11.87,-10.47,4,0
18688.953,-0.447,0.246,0.84,-4.61,11.32,-12.42,4,0
18688.968,-0.477,0.247,0.903,-1.13,7.9,-13.25,4,0
18688.984,-0.476,0.257,0.899,2.69,3.57,-13.58,4,0
18688.984,-0.464,0.259,0.869,4.7,-0.4,-13.7,4,0
18689.0,-0.451,0.265,0.841,4.06,-2.75,-13.89,4,0
18689.015,-0.449,0.262,0.818,2.9,-2.93,-14.1,4,0
18689.015,-0.453,0.262,0.8,1.98,-1.5,-14.1,4,0
18689.031,-0.454,0.266,0.788,0.55,0.95,-13.43,4,0
18689.031,-0.452,0.271,0.777,-1.16,4.12,-12.76,4,0
18689.046,-0.457,0.268,0.78,-3.3,7.84,-12.05,4,0
18689.062,-0.469,0.275,0.815,-6.01,10.77,-11.6,4,0
18689.062,-0.475,0.276,0.842,-7.11,11.47,-11.11,4,0
18689.078,-0.475,0.273,0.861,-6.23,10.74,-10.62,4,0
18689.093,-0.478,0.277,0.867,-4.64,9.67,-10.1,4,0
18689.093,-0.478,0.277,0.874,-2.04,8.15,-9.19,4,0
18689.109,-0.479,0.291,0.871,0.64,6.13,-7.9,4,0
18689.125,-0.473,0.289,0.859,0.79,3.72,-5.74,4,0
18689.125,-0.454,0.29,0.848,-0.95,2.47,-2.81,4,0
18689.14,-0.443,0.29,0.838,-2.9,2.62,-0.58,4,0
18689.156,-0.434,0.283,0.83,-4.76,3.72,1.04,4,0
18689.156,-0.42,0.271,0.824,-6.32,5.16,2.01,4,0
18689.171,-0.408,0.267,0.819,-7.2,7.17,1.71,4,0
18689.171,-0.424,0.264,0.831,-6.81,10.25,-0.06,4,0
18689.187,-0.445,0.266,0.864,-6.07,11.84,-1.8,4,0
18689.203,-0.461,0.273,0.891,-4.76,10.93,-2.78,4,0
18689.218,-0.471,0.273,0.903,-2.17,8.18,-2.66,4,0
18689.218,-0.469,0.279,0.9,-0.92,4.55,-1.71,4,0
18689.234,-0.459,0.279,0.879,-1.19,1.4,-0.61,4,0
18689.234,-0.453,0.274,0.857,-2.26,-0.43,0.31,4,0
18689.25,-0.451,0.264,0.848,-3.48,-0.79,1.16,4,0
18689.265,-0.45,0.26,0.839,-3.02,-0.18,1.5,4,0
18689.265,-0.45,0.255,0.826,-2.32,1.13,1.19,4,0
18689.281,-0.452,0.25,0.821,-2.32,2.9,-0.03,4,0
18689.296,-0.462,0.249,0.829,-2.14,4.52,-1.89,4,0
18689.296,-0.478,0.243,0.841,-0.7,5.22,-3.54,4,0
18689.312,-0.481,0.248,0.844,1.8,5.28,-4.67,4,0
18689.312,-0.494,0.258,0.851,4.49,4.85,-5.46,4,0
18689.328,-0.507,0.262,0.865,6.01,2.93,-4.79,4,0
18689.343,-0.5,0.274,0.866,6.01,-0.64,-2.81,4,0
18689.343,-0.487,0.273,0.85,5.4,-3.81,-0.12,4,0
18689.359,-0.473,0.273,0.831,4.27,-5.31,2.29,4,0
18689.375,-0.468,0.272,0.814,2.26,-5.52,4.09,4,0
18689.39,-0.471,0.258,0.806,-0.15,-4.64,5.13,4,0
18689.39,-0.477,0.246,0.812,-1.43,-3.48,5.62,4,0
18689.406,-0.475,0.235,0.82,-1.86,-2.75,5.43,4,0
18689.406,-0.473,0.227,0.829,-1.31,-2.23,4.88,4,0
18689.421,-0.474,0.234,0.84,0.37,-3.05,2.59,4,0
18689.437,-0.481,0.234,0.852,0.46,-4.27,2.2,4,0
18689.453,-0.477,0.238,0.853,0.21,-6.13,2.26,4,0
18689.453,-0.478,0.24,0.849,-0.85,-7.93,2.01,4,0
18689.468,-0.48,0.234,0.845,-1.68,-9.34,1.86,4,0
18689.484,-0.476,0.236,0.834,-2.08,-10.28,1.68,4,0
18689.484,-0.471,0.233,0.821,-1.8,-10.38,0.92,4,0
18689.5,-0.468,0.233,0.81,-0.98,-9.43,-0.12,4,0
18689.515,-0.463,0.239,0.798,0.06,-8.03,-1.28,4,0
18689.515,-0.46,0.243,0.79,0.7,-5.65,-2.66,4,0
18689.531,-0.463,0.244,0.799,0.46,-3.2,-3.88,4,0
18689.531,-0.468,0.247,0.821,0.58,-1.4,-4.52,4,0
18689.546,-0.465,0.25,0.827,1.53,-0.89,-4.76,4,0
18689.562,-0.459,0.253,0.833,2.11,-1.16,-5.43,4,0
18689.562,-0.471,0.264,0.839,1.56,-1.53,-6.29,4,0
18689.578,-0.481,0.264,0.849,-0.09,-3.11,-7.17,4,0
18689.609,-0.478,0.24,0.85,-2.47,-5.28,-4.76,4,0
18689.609,-0.448,0.217,0.844,0.49,-5.65,-3.11,4,0
18689.625,-0.462,0.223,0.834,5.13,-4.3,-2.2,4,0
18689.625,-0.466,0.249,0.831,8.03,-2.32,-1.13,4,0
18689.64,-0.474,0.243,0.831,7.93,-2.08,-0.7,4,0
18689.656,-0.477,0.25,0.843,6.74,-1.71,0.21,4,0
18689.656,-0.472,0.262,0.846,6.13,-2.32,1.07,4,0
18689.671,-0.466,0.263,0.836,5.04,-3.02,1.59,4,0
18689.671,-0.462,0.265,0.834,2.53,-3.14,1.89,4,0
18689.687,-0.464,0.259,0.831,0.46,-3.63,1.68,4,0
18689.703,-0.459,0.252,0.828,-0.7,-3.88,1.31,4,0
18689.703,-0.451,0.251,0.822,-1.8,-3.45,0.61,4,0
18689.718,-0.45,0.25,0.821,-2.26,-2.32,-0.21,4,0
18689.734,-0.455,0.248,0.826,-2.41,-0.95,-0.82,4,0
18689.734,-0.458,0.245,0.836,-2.04,0.12,-0.49,4,0
18689.75,-0.454,0.251,0.842,-0.46,1.01,0.12,4,0
18689.765,-0.456,0.26,0.838,-0.24,1.62,-0.12,4,0
18689.781,-0.459,0.257,0.85,-2.38,1.1,0.03,4,0
18689.781,-0.459,0.252,0.847,-2.66,0.67,0.55,4,0
18689.796,-0.465,0.254,0.844,-1.74,0.52,1.07,4,0
18689.812,-0.471,0.263,0.847,-1.43,-0.18,1.25,4,0
18689.828,-0.469,0.26,0.839,-1.95,-1.4,1.4,4,0
18689.828,-0.462,0.259,0.831,-1.86,-1.8,1.77,4,0
18689.843,-0.461,0.264,0.823,-1.07,-0.79,2.01,4,0
18689.843,-0.461,0.261,0.82,-1.5,0.06,2.75,4,0
18689.859,-0.456,0.253,0.823,-3.23,1.28,3.69,4,0
18689.875,-0.459,0.242,0.829,-4.55,2.81,3.94,4,0
18689.875,-0.466,0.239,0.851,-4.21,3.45,3.54,4,0
18689.89,-0.465,0.247,0.859,-3.14,2.23,2.69,4,0
18689.906,-0.46,0.245,0.85,-2.5,0.31,1.28,4,0
18689.906,-0.461,0.243,0.849,-1.43,-0.76,-0.15,4,0
18689.921,-0.466,0.248,0.848,1.04,-0.92,-0.76,4,0
18689.937,-0.461,0.26,0.821,-0.49,0.79,0.61,4,0
18689.953,-0.463,0.251,0.823,-0.95,2.69,1.25,4,0
18689.953,-0.47,0.257,0.841,-1.4,3.48,1.46,4,0
18689.968,-0.474,0.251,0.851,-2.29,2.5,1.43,4,0
18689.984,-0.468,0.247,0.856,-2.75,1.13,1.8,4,0
18689.984,-0.468,0.251,0.863,-2.29,-0.18,2.11,4,0
18690.0,-0.471,0.245,0.868,-1.13,-1.65,2.5,4,0
18690.015,-0.465,0.247,0.857,0.09,-3.27,2.96,4,0
18690.015,-0.457,0.25,0.843,0.4,-4.39,2.9,4,0
18690.031,-0.454,0.243,0.834,0.82,-3.97,2.2,4,0
18690.046,-0.454,0.244,0.825,2.66,-2.75,1.95,4,0
18690.046,-0.458,0.254,0.817,4.12,-1.46,1.62,4,0
18690.062,-0.459,0.255,0.819,3.48,-0.24,1.19,4,0
18690.062,-0.462,0.262,0.834,1.01,0.37,0.92,4,0
18690.078,-0.459,0.256,0.841,-0.12,0.24,0.85,4,0
18690.093,-0.46,0.257,0.846,0.58,0.4,1.07,4,0
18690.093,-0.463,0.261,0.851,0.95,-0.03,0.98,4,0
18690.109,-0.47,0.258,0.861,0.73,-0.98,0.64,4,0
18690.125,-0.468,0.256,0.857,0.82,-2.72,0.67,4,0
18690.125,-0.461,0.255,0.847,1.19,-3.97,1.04,4,0
18690.14,-0.458,0.253,0.838,1.31,-4.39,1.31,4,0
18690.14,-0.455,0.248,0.834,1.43,-4.27,1.5,4,0
18690.156,-0.454,0.246,0.833,1.04,-3.81,1.4,4,0
18690.171,-0.455,0.243,0.833,0.46,-3.23,1.1,4,0
18690.171,-0.454,0.239,0.841,-0.49,-2.84,0.76,4,0
18690.187,-0.454,0.235,0.851,-1.22,-2.69,0.15,4,0
18690.203,-0.456,0.232,0.859,-1.37,-3.11,-0.64,4,0
18690.203,-0.454,0.234,0.855,-1.01,-3.97,-1.4,4,0
18690.218,-0.449,0.237,0.847,-0.7,-4.27,-2.2,4,0
18690.234,-0.449,0.242,0.834,-0.95,-3.88,-2.41,4,0
18690.234,-0.444,0.245,0.825,-1.46,-2.96,-2.47,4,0
18690.25,-0.448,0.248,0.829,-2.2,-1.43,-2.59,4,0
18690.265,-0.456,0.248,0.839,-1.92,-0.03,-2.93,4,0
18690.265,-0.464,0.254,0.846,-0.98,0.64,-3.85,4,0
18690.281,-0.475,0.265,0.855,-0.34,0.03,-5.07,4,0
18690.296,-0.481,0.27,0.852,0.31,-1.25,-5.83,4,0
18690.296,-0.484,0.278,0.849,1.16,-2.41,-5.8,4,0
18690.312,-0.482,0.285,0.845,1.65,-3.39,-4.88,4,0
18690.312,-0.481,0.285,0.838,1.5,-3.88,-3.63,4,0
18690.328,-0.476,0.285,0.828,1.28,-3.57,-1.92,4,0
18690.343,-0.472,0.282,0.817,1.01,-2.81,-0.31,4,0
18690.359,-0.469,0.27,0.813,0.61,-1.56,0.98,4,0
18690.359,-0.465,0.266,0.812,0.79,-0.12,2.01,4,0
18690.375,-0.466,0.261,0.812,1.28,1.19,2.41,4,0
18690.375,-0.466,0.254,0.822,1.28,2.38,2.32,4,0
18690.39,-0.466,0.248,0.83,1.8,2.84,1.98,4,0
18690.406,-0.466,0.242,0.836,2.75,3.2,1.83,4,0
18690.406,-0.462,0.244,0.838,3.05,3.17,1.43,4,0
18690.421,-0.462,0.241,0.838,2.35,2.81,0.64,4,0
18690.421,-0.465,0.242,0.847,1.37,2.2,-0.09,4,0
18690.437,-0.463,0.243,0.847,0.79,1.28,-0.24,4,0
18690.453,-0.457,0.244,0.838,0.4,0.79,0.27,4,0
18690.453,-0.449,0.243,0.834,0.0,0.89,0.73,4,0
18690.468,-0.452,0.244,0.836,-1.25,1.34,0.98,4,0
18690.484,-0.453,0.238,0.843,-2.2,1.22,1.37,4,0
18690.484,-0.447,0.238,0.844,-1.98,1.16,1.5,4,0
18690.5,-0.445,0.24,0.838,-1.95,1.13,0.46,4,0
18690.515,-0.449,0.236,0.839,-2.29,0.98,-1.07,4,0
18690.515,-0.449,0.238,0.842,-1.68,0.73,-2.08,4,0
18690.531,-0.448,0.248,0.841,-0.4,0.7,-2.26,4,0
18690.531,-0.449,0.257,0.842,-0.52,0.49,-2.04,4,0
18690.546,-0.45,0.257,0.841,-1.89,-0.06,-1.53,4,0
18690.562,-0.453,0.255,0.847,-3.69,-0.43,-0.55,4,0
18690.578,-0.458,0.255,0.852,-4.85,-1.1,0.46,4,0
18690.578,-0.46,0.251,0.858,-6.59,-2.75,1.19,4,0
18690.593,-0.454,0.241,0.851,-7.97,-4.82,1.19,4,0
18690.593,-0.451,0.236,0.839,-7.08,-5.68,0.85,4,0
18690.609,-0.458,0.24,0.834,-5.68,-5.34,-0.03,4,0
18690.625,-0.468,0.24,0.836,-5.37,-4.94,-1.04,4,0
18690.625,-0.479,0.241,0.841,-5.95,-5.16,-2.04,4,0
18690.64,-0.493,0.24,0.852,-7.32,-5.8,-2.9,4,0
18690.656,-0.5,0.241,0.861,-9.25,-7.6,-3.45,4,0
18690.656,-0.502,0.237,0.864,-11.29,-9.77,-4.12,4,0
18690.671,-0.493,0.233,0.866,-12.63,-12.02,-5.46,4,0
18690.671,-0.485,0.225,0.861,-12.02,-13.49,-7.2,4,0
18690.687,-0.476,0.224,0.853,-9.89,-13.92,-8.94,4,0
18690.703,-0.468,0.227,0.847,-7.6,-13.82,-11.51,4,0
18690.703,-0.463,0.224,0.845,-4.97,-13.0,-14.01,4,0
18690.718,-0.458,0.228,0.839,-2.44,-11.93,-15.53,4,0
18690.734,-0.451,0.236,0.833,-0.7,-10.71,-16.05,4,0
18690.734,-0.453,0.234,0.844,0.06,-9.09,-16.24,4,0
18690.75,-0.453,0.235,0.856,0.64,-8.18,-15.87,4,0
18690.765,-0.447,0.239,0.869,1.19,-8.45,-14.98,4,0
18690.765,-0.445,0.234,0.876,2.99,-9.03,-14.44,4,0
18690.781,-0.438,0.239,0.877,4.91,-9.83,-13.21,4,0
18690.781,-0.425,0.246,0.868,4.73,-10.62,-12.27,4,0
18690.796,-0.416,0.238,0.85,2.87,-10.41,-11.38,4,0
18690.812,-0.412,0.234,0.836,1.13,-8.61,-9.92,4,0
18690.812,-0.422,0.244,0.831,-1.07,-5.4,-8.33,4,0
18690.828,-0.43,0.242,0.84,-4.06,-2.66,-6.59,4,0
18690.843,-0.434,0.235,0.845,-5.71,-0.58,-4.64,4,0
18690.843,-0.442,0.233,0.857,-5.19,1.31,-2.38,4,0
18690.859,-0.449,0.241,0.879,-4.88,1.34,0.0,4,0
18690.875,-0.452,0.247,0.896,-6.2,-1.13,1.98,4,0
18690.875,-0.45,0.244,0.91,-7.97,-5.28,4.39,4,0
18690.89,-0.436,0.241,0.902,-9.37,-10.07,7.72,4,0
18690.89,-0.418,0.233,0.868,-11.05,-14.8,14.04,4,0
18690.906,-0.405,0.223,0.837,-13.28,-14.28,15.35,4,0
18690.921,-0.394,0.205,0.82,-14.4,-12.45,15.26,4,0
18690.937,-0.4,0.199,0.819,-13.52,-10.65,14.53,4,0
18690.937,-0.428,0.194,0.842,-10.62,-9.28,12.97,4,0
18690.953,-0.447,0.19,0.876,-6.23,-9.31,10.1,4,0
18690.953,-0.464,0.197,0.898,-0.09,-10.86,7.78,4,0
18690.968,-0.464,0.222,0.903,5.43,-13.7,6.53,4,0
18690.984,-0.463,0.232,0.902,7.69,-16.97,6.26,4,0
18690.984,-0.449,0.236,0.882,6.68,-19.96,7.81,4,0
18691.0,-0.431,0.239,0.858,3.39,-20.91,10.35,4,0
18691.015,-0.429,0.221,0.86,-0.7,-19.5,12.54,4,0
18691.015,-0.441,0.199,0.871,-2.56,-16.97,14.4,4,0
18691.031,-0.434,0.204,0.871,-2.44,-15.17,15.59,4,0
18691.046,-0.422,0.194,0.886,-2.29,-13.92,14.25,4,0
18691.046,-0.426,0.182,0.898,0.92,-12.18,10.96,4,0
18691.062,-0.423,0.195,0.895,6.04,-11.17,7.29,4,0
18691.078,-0.414,0.203,0.88,9.03,-10.62,3.72,4,0
18691.078,-0.403,0.218,0.877,9.52,-9.58,0.24,4,0
18691.093,-0.402,0.227,0.872,9.06,-7.9,-2.99,4,0
18691.093,-0.397,0.235,0.856,8.61,-5.95,-5.16,4,0
18691.109,-0.395,0.243,0.857,7.87,-2.99,-6.13,4,0
18691.125,-0.407,0.244,0.873,6.9,-0.43,-5.92,4,0
18691.125,-0.415,0.253,0.894,5.89,0.31,-4.21,4,0
18691.14,-0.415,0.255,0.91,4.94,-0.73,-1.37,4,0
18691.156,-0.403,0.25,0.915,3.91,-2.66,1.4,4,0
18691.156,-0.393,0.244,0.914,3.6,-4.21,3.27,4,0
18691.171,-0.387,0.245,0.897,4.06,-4.88,4.85,4,0
18691.171,-0.373,0.25,0.883,3.91,-5.01,6.32,4,0
18691.187,-0.361,0.244,0.876,3.3,-4.55,6.65,4,0
18691.203,-0.359,0.243,0.862,3.66,-2.93,5.98,4,0
18691.203,-0.358,0.252,0.857,4.09,-1.1,5.4,4,0
18691.218,-0.361,0.255,0.862,3.69,0.58,4.88,4,0
18691.234,-0.372,0.259,0.877,2.96,1.56,5.01,4,0
18691.234,-0.372,0.261,0.882,1.65,1.71,6.16,4,0
18691.25,-0.369,0.258,0.889,-0.34,1.83,7.57,4,0
18691.25,-0.383,0.249,0.911,-1.34,1.59,8.61,4,0
18691.265,-0.389,0.244,0.915,-0.92,0.12,9.58,4,0
18691.281,-0.379,0.245,0.899,-1.07,-1.92,9.43,4,0
18691.296,-0.382,0.227,0.888,-1.13,-3.33,8.12,4,0
18691.296,-0.388,0.22,0.883,0.27,-3.81,6.74,4,0
18691.312,-0.386,0.228,0.875,1.28,-4.03,5.28,4,0
18691.312,-0.384,0.22,0.861,1.77,-4.12,3.78,4,0
18691.328,-0.382,0.221,0.855,2.11,-3.39,2.66,4,0
18691.343,-0.387,0.231,0.855,2.11,-2.53,1.65,4,0
18691.343,-0.386,0.232,0.848,1.25,-1.98,0.92,4,0
18691.359,-0.383,0.231,0.845,0.49,-1.1,0.67,4,0
18691.375,-0.391,0.232,0.859,0.58,-0.46,0.55,4,0
18691.375,-0.4,0.232,0.871,0.95,-0.73,1.01,4,0
18691.39,-0.404,0.235,0.876,1.13,-2.17,1.4,4,0
18691.406,-0.408,0.231,0.873,1.28,-3.72,1.62,4,0
18691.406,-0.407,0.238,0.875,1.53,-4.79,2.23,4,0
18691.421,-0.406,0.24,0.869,1.31,-5.46,2.66,4,0
18691.421,-0.398,0.238,0.861,0.24,-5.34,2.9,4,0
18691.437,-0.401,0.239,0.86,-0.61,-4.12,2.81,4,0
18691.453,-0.408,0.236,0.868,-0.82,-2.78,2.53,4,0
18691.468,-0.408,0.237,0.873,-0.46,-1.71,2.11,4,0
18691.468,-0.404,0.233,0.871,-0.03,-0.64,1.46,4,0
18691.484,-0.412,0.229,0.874,0.31,0.55,1.07,4,0
18691.484,-0.417,0.228,0.885,-0.15,1.07,1.19,4,0
18691.5,-0.408,0.22,0.894,-1.25,0.92,1.5,4,0
18691.515,-0.401,0.212,0.896,-1.4,0.76,1.46,4,0
18691.515,-0.391,0.212,0.897,-1.25,0.4,1.07,4,0
18691.531,-0.381,0.212,0.889,-1.19,0.09,-0.09,4,0
18691.546,-0.373,0.208,0.879,-0.82,0.12,-1.86,4,0
18691.546,-0.37,0.209,0.868,-0.06,0.79,-3.94,4,0
18691.562,-0.369,0.216,0.863,1.8,2.04,-5.55,4,0
18691.562,-0.378,0.223,0.858,4.39,3.57,-6.71,4,0
18691.578,-0.388,0.233,0.857,6.56,4.91,-6.65,4,0
18691.593,-0.399,0.242,0.861,7.2,5.62,-5.46,4,0
18691.593,-0.417,0.256,0.895,5.19,4.21,-4.21,4,0
18691.609,-0.424,0.251,0.935,2.75,-0.18,-2.84,4,0
18691.625,-0.419,0.245,0.956,3.6,-6.01,-1.59,4,0
18691.625,-0.417,0.257,0.949,7.78,-11.96,-0.37,4,0
18691.64,-0.401,0.266,0.913,11.72,-17.61,1.28,4,0
18691.656,-0.376,0.27,0.852,13.06,-20.26,2.38,4,0
18691.656,-0.354,0.293,0.807,11.17,-19.32,2.38,4,0
18691.671,-0.347,0.281,0.801,8.33,-15.84,1.92,4,0
18691.687,-0.355,0.285,0.813,6.56,-10.59,2.11,4,0
18691.687,-0.368,0.301,0.858,5.71,-5.89,2.66,4,0
18691.703,-0.387,0.302,0.904,5.34,-3.88,3.05,4,0
18691.703,-0.398,0.308,0.938,4.85,-5.1,4.33,4,0
18691.718,-0.387,0.307,0.949,4.85,-8.36,6.62,4,0
18691.734,-0.357,0.3,0.927,4.36,-11.51,8.97,4,0
18691.734,-0.336,0.29,0.898,3.11,-12.54,10.77,4,0
18691.75,-0.323,0.28,0.884,1.89,-12.02,12.09,4,0
18691.765,-0.308,0.263,0.855,1.59,-9.58,12.05,4,0
18691.765,-0.304,0.258,0.83,0.27,-6.35,10.41,4,0
18691.781,-0.296,0.242,0.811,-1.1,-2.56,7.32,4,0
18691.796,-0.294,0.23,0.79,-1.37,2.66,3.11,4,0
18691.796,-0.296,0.233,0.782,-1.89,8.3,-1.86,4,0
18691.812,-0.317,0.236,0.816,-2.56,13.52,-6.5,4,0
18691.812,-0.355,0.24,0.87,-1.86,16.69,-10.35,4,0
18691.828,-0.408,0.267,0.952,-0.76,16.05,-11.93,4,0
18691.843,-0.44,0.27,0.994,1.68,10.13,-10.19,4,0
18691.843,-0.433,0.287,0.985,3.08,1.68,-6.13,4,0
18691.859,-0.407,0.294,0.93,2.2,-5.55,-1.95,4,0
18691.875,-0.381,0.276,0.868,-1.16,-8.73,1.13,4,0
18691.875,-0.369,0.259,0.821,-5.8,-3.11,4.3,4,0
18691.89,-0.364,0.25,0.8,-7.05,2.29,4.91,4,0
18691.906,-0.37,0.239,0.808,-8.51,6.84,4.3,4,0
18691.906,-0.375,0.235,0.828,-10.22,9.37,2.2,4,0
18691.921,-0.408,0.227,0.931,-9.83,9.13,-0.52,4,0
18691.937,-0.406,0.225,0.946,-6.44,6.1,-2.29,4,0
18691.937,-0.391,0.239,0.934,-2.62,2.32,-3.63,4,0
18691.953,-0.376,0.251,0.907,-1.1,-0.46,-5.28,4,0
18691.953,-0.364,0.255,0.88,-1.28,-1.59,-6.35,4,0
18691.968,-0.36,0.257,0.859,-1.28,-0.82,-6.44,4,0
18691.984,-0.349,0.263,0.844,-1.95,1.07,-6.2,4,0
18691.984,-0.342,0.263,0.823,-4.06,3.91,-6.53,4,0
18692.0,-0.343,0.256,0.825,-6.78,7.6,-7.87,4,0
18692.015,-0.364,0.256,0.873,-8.09,10.71,-9.74,4,0
18692.015,-0.4,0.263,0.936,-6.41,11.14,-10.9,4,0
18692.031,-0.417,0.269,0.963,-2.17,8.06,-9.55,4,0
18692.046,-0.41,0.282,0.967,1.5,3.05,-5.92,4,0
18692.046,-0.402,0.296,0.95,2.96,-2.17,-1.43,4,0
18692.062,-0.383,0.293,0.909,1.22,-6.32,2.66,4,0
18692.062,-0.37,0.279,0.875,-2.38,-7.72,5.62,4,0
18692.078,-0.372,0.26,0.863,-4.82,-7.11,7.17,4,0
18692.093,-0.381,0.249,0.864,-5.74,-5.74,7.26,4,0
18692.093,-0.38,0.236,0.868,-5.8,-4.79,6.04,4,0
18692.109,-0.382,0.23,0.873,-4.18,-3.69,4.27,4,0
18692.125,-0.383,0.232,0.875,-1.71,-2.59,2.23,4,0
18692.14,-0.386,0.24,0.881,0.31,-1.43,0.24,4,0
18692.14,-0.407,0.249,0.897,2.29,-0.76,-1.04,4,0
18692.156,-0.414,0.257,0.908,2.5,-2.69,-0.37,4,0
18692.156,-0.395,0.261,0.898,1.53,-5.74,1.31,4,0
18692.171,-0.376,0.255,0.882,0.7,-7.2,2.75,4,0
18692.171,-0.384,0.251,0.881,-0.21,-7.39,3.51,4,0
18692.187,-0.386,0.248,0.877,-2.01,-7.93,4.33,4,0
18692.203,-0.377,0.241,0.863,-3.05,-7.87,4.88,4,0
18692.218,-0.375,0.237,0.857,-3.23,-6.78,4.82,4,0
18692.218,-0.384,0.237,0.867,-4.09,-5.71,4.06,4,0
18692.234,-0.383,0.229,0.875,-4.09,-5.65,3.36,4,0
18692.234,-0.372,0.224,0.862,-2.08,-5.34,3.2,4,0
18692.25,-0.364,0.229,0.85,-0.43,-3.45,2.38,4,0
18692.265,-0.371,0.234,0.861,-0.31,-1.28,1.1,4,0
18692.265,-0.379,0.235,0.88,-0.31,-0.31,0.37,4,0
18692.281,-0.382,0.237,0.898,2.2,-0.21,0.31,4,0
18692.296,-0.378,0.252,0.899,4.61,-0.89,0.27,4,0
18692.296,-0.378,0.264,0.895,4.85,-2.44,0.06,4,0
18692.312,-0.378,0.27,0.897,4.91,-4.21,0.7,4,0
18692.312,-0.377,0.279,0.91,4.58,-6.59,1.95,4,0
18692.328,-0.362,0.282,0.909,3.57,-9.28,4.03,4,0
18692.343,-0.351,0.276,0.907,3.05,-10.83,6.74,4,0
18692.359,-0.347,0.268,0.892,3.2,-11.05,9.58,4,0
18692.359,-0.342,0.267,0.873,1.8,-10.25,11.17,4,0
18692.375,-0.349,0.256,0.874,-0.73,-8.82,10.83,4,0
18692.375,-0.345,0.238,0.874,-2.17,-7.32,9.58,4,0
18692.39,-0.352,0.236,0.877,-1.68,-4.97,7.02,4,0
18692.406,-0.367,0.24,0.895,-0.12,-3.11,3.81,4,0
18692.406,-0.375,0.242,0.903,1.43,-3.05,1.62,4,0
18692.421,-0.375,0.255,0.911,2.11,-3.94,0.76,4,0
18692.421,-0.37,0.257,0.91,2.23,-5.37,0.98,4,0
18692.437,-0.361,0.261,0.899,1.31,-6.74,1.74,4,0
18692.453,-0.356,0.263,0.894,0.09,-7.29,2.66,4,0
18692.453,-0.36,0.257,0.884,-0.58,-7.11,3.48,4,0
18692.468,-0.361,0.256,0.879,-0.85,-6.56,3.91,4,0
18692.484,-0.363,0.257,0.877,-1.4,-6.04,3.72,4,0
18692.484,-0.356,0.253,0.871,-1.5,-5.71,3.02,4,0
18692.5,-0.349,0.248,0.852,-0.7,-4.52,1.83,4,0
18692.515,-0.339,0.247,0.842,-0.61,-2.5,1.19,4,0
18692.515,-0.341,0.245,0.852,-0.95,0.4,0.58,4,0
18692.531,-0.356,0.249,0.877,-1.56,2.26,-0.06,4,0
18692.546,-0.363,0.25,0.9,-1.92,1.86,-0.49,4,0
18692.546,-0.362,0.246,0.899,-1.28,0.27,-0.73,4,0
18692.562,-0.363,0.249,0.898,-0.18,-0.7,-0.92,4,0
18692.578,-0.363,0.255,0.897,0.21,-1.98,-0.79,4,0
18692.578,-0.363,0.254,0.888,0.12,-3.02,-0.12,4,0
18692.593,-0.359,0.25,0.883,0.12,-3.36,1.62,4,0
18692.593,-0.35,0.248,0.877,-1.07,-3.36,2.9,4,0
18692.609,-0.349,0.24,0.873,-2.69,-2.93,2.59,4,0
18692.625,-0.347,0.231,0.868,-2.87,-2.08,1.53,4,0
18692.625,-0.351,0.233,0.868,-1.65,-0.67,-0.27,4,0
18692.64,-0.362,0.241,0.881,-0.46,0.61,-2.44,4,0
18692.656,-0.373,0.247,0.89,0.52,0.85,-3.66,4,0
18692.656,-0.364,0.257,0.895,-0.15,0.09,-3.57,4,0
18692.671,-0.357,0.261,0.899,-1.83,-0.43,-2.99,4,0
18692.671,-0.357,0.256,0.899,-2.47,-0.55,-2.23,4,0
18692.687,-0.358,0.259,0.898,-1.62,-0.18,-1.25,4,0
18692.703,-0.358,0.262,0.892,-1.43,0.06,-0.73,4,0
18692.703,-0.354,0.261,0.884,-2.32,0.37,-1.01,4,0
18692.718,-0.348,0.258,0.886,-3.51,0.76,-1.43,4,0
18692.734,-0.35,0.255,0.896,-3.69,1.4,-1.59,4,0
18692.734,-0.349,0.264,0.907,-3.6,1.13,-2.01,4,0
18692.75,-0.354,0.264,0.911,-1.71,1.28,-2.01,4,0
18692.765,-0.362,0.28,0.926,-0.92,0.09,-1.56,4,0
18692.765,-0.35,0.279,0.92,-0.73,-2.5,-0.52,4,0
18692.781,-0.346,0.277,0.904,-0.7,-3.75,0.85,4,0
18692.796,-0.336,0.274,0.89,-1.28,-4.0,1.89,4,0
18692.796,-0.329,0.268,0.877,-1.89,-2.93,2.93,4,0
18692.812,-0.333,0.267,0.88,-3.11,-0.82,3.88,4,0
18692.812,-0.339,0.258,0.881,-3.97,0.89,4.18,4,0
18692.828,-0.348,0.256,0.894,-4.3,1.92,3.2,4,0
18692.843,-0.355,0.25,0.902,-3.11,1.77,1.74,4,0
18692.843,-0.36,0.252,0.912,-0.98,0.64,0.52,4,0
18692.859,-0.367,0.26,0.918,1.28,-1.1,-0.43,4,0
18692.875,-0.367,0.263,0.913,1.68,-4.67,1.1,4,0
18692.875,-0.361,0.266,0.905,-0.12,-5.28,2.56,4,0
18692.89,-0.351,0.259,0.891,-0.89,-4.21,3.08,4,0
18692.906,-0.349,0.235,0.867,-0.64,-2.38,3.08,4,0
18692.906,-0.353,0.239,0.875,-1.34,-0.24,1.86,4,0
18692.921,-0.365,0.238,0.892,-1.74,0.76,0.0,4,0
18692.921,-0.377,0.238,0.916,0.49,0.34,-1.07,4,0
18692.937,-0.38,0.252,0.914,3.27,-1.22,-0.61,4,0
18692.953,-0.367,0.263,0.897,3.45,-3.45,0.46,4,0
18692.953,-0.353,0.257,0.879,2.41,-4.49,1.04,4,0
18692.968,-0.349,0.247,0.867,2.08,-3.75,1.56,4,0
18692.984,-0.348,0.246,0.863,2.44,-2.14,2.53,4,0
18692.984,-0.347,0.248,0.862,1.59,-0.76,3.27,4,0
18693.0,-0.346,0.239,0.865,-0.27,0.24,3.27,4,0
18693.015,-0.342,0.228,0.872,-1.28,1.43,3.2,4,0
18693.015,-0.346,0.227,0.887,-0.7,2.84,2.29,4,0
18693.031,-0.36,0.226,0.896,1.07,3.51,0.92,4,0
18693.031,-0.367,0.239,0.905,2.01,2.78,-0.24,4,0
18693.046,-0.371,0.248,0.913,2.99,1.19,-0.73,4,0
18693.062,-0.37,0.251,0.906,3.78,-0.67,-0.46,4,0
18693.062,-0.366,0.267,0.898,2.81,-2.04,0.4,4,0
18693.078,-0.362,0.253,0.897,3.27,-2.11,1.74,4,0
18693.093,-0.353,0.252,0.871,2.84,-1.68,2.78,4,0
18693.109,-0.336,0.252,0.849,1.13,0.0,3.54,4,0
18693.109,-0.328,0.242,0.844,-0.18,3.39,3.72,4,0
18693.125,-0.334,0.238,0.853,-1.86,6.87,2.5,4,0
18693.125,-0.353,0.245,0.888,-2.9,8.91,0.98,4,0
18693.14,-0.373,0.245,0.923,-1.77,8.51,-0.43,4,0
18693.156,-0.385,0.251,0.94,-0.4,5.52,-1.13,4,0
18693.156,-0.383,0.254,0.941,0.73,0.92,-1.59,4,0
18693.171,-0.373,0.252,0.931,1.59,-3.66,-2.62,4,0
18693.171,-0.36,0.249,0.907,2.01,-6.29,-2.75,4,0
18693.187,-0.339,0.246,0.884,2.53,-7.11,-2.44,4,0
18693.203,-0.336,0.255,0.868,3.14,-5.46,-2.2,4,0
18693.203,-0.334,0.263,0.856,2.81,-3.54,-2.32,4,0
18693.218,-0.34,0.27,0.859,1.37,-1.4,-2.62,4,0
18693.234,-0.354,0.274,0.879,0.46,0.21,-2.62,4,0
18693.234,-0.363,0.276,0.901,0.95,0.82,-2.04,4,0
18693.25,-0.362,0.275,0.913,1.86,-0.37,-1.56,4,0
18693.265,-0.355,0.277,0.913,2.47,-2.11,-1.74,4,0
18693.265,-0.355,0.277,0.904,2.87,-3.23,-1.89,4,0
18693.281,-0.349,0.276,0.891,2.08,-3.88,-1.28,4,0
18693.281,-0.344,0.275,0.885,0.76,-3.54,-0.55,4,0
18693.296,-0.35,0.272,0.885,-0.09,-2.75,-0.12,4,0
18693.312,-0.35,0.267,0.883,-0.58,-1.98,0.52,4,0
18693.328,-0.342,0.265,0.876,-0.98,-1.25,0.43,4,0
18693.328,-0.347,0.263,0.882,-1.01,0.0,-0.76,4,0
18693.343,-0.357,0.263,0.893,-0.37,0.31,-1.71,4,0
18693.343,-0.356,0.271,0.896,-0.06,-0.46,-1.83,4,0
18693.359,-0.361,0.272,0.9,-0.09,-1.28,-1.74,4,0
18693.375,-0.357,0.27,0.891,-0.76,-2.35,-0.73,4,0
18693.375,-0.348,0.27,0.881,-2.14,-2.38,0.49,4,0
18693.39,-0.35,0.263,0.883,-3.48,-1.89,1.31,4,0
18693.406,-0.349,0.253,0.878,-4.03,-1.59,1.71,4,0
18693.406,-0.348,0.251,0.871,-4.24,-0.92,1.31,4,0
18693.421,-0.35,0.245,0.873,-4.58,0.06,0.27,4,0
18693.421,-0.353,0.241,0.881,-4.7,0.27,-0.89,4,0
18693.437,-0.358,0.249,0.897,-4.79,0.03,-1.83,4,0
18693.453,-0.368,0.252,0.92,-4.06,-1.19,-2.44,4,0
18693.453,-0.379,0.25,0.924,-2.41,-3.2,-2.08,4,0
18693.468,-0.37,0.255,0.913,-1.98,-5.86,-0.73,4,0
18693.484,-0.351,0.251,0.891,-2.96,-7.39,0.03,4,0
18693.484,-0.34,0.236,0.873,-3.91,-6.81,0.09,4,0
18693.5,-0.341,0.234,0.866,-3.39,-4.24,-0.18,4,0
18693.515,-0.346,0.239,0.871,-2.66,-1.59,-0.79,4,0
18693.515,-0.36,0.243,0.888,-1.92,0.21,-1.62,4,0
18693.531,-0.372,0.248,0.909,-1.31,0.18,-2.14,4,0
18693.546,-0.379,0.253,0.921,-0.34,-1.25,-1.98,4,0
18693.562,-0.368,0.256,0.923,-0.09,-3.6,-1.86,4,0
18693.562,-0.357,0.259,0.911,-0.52,-5.49,-1.46,4,0
18693.562,-0.349,0.25,0.89,-1.34,-6.2,-1.1,4,0
18693.578,-0.342,0.248,0.878,-2.53,-5.52,-0.55,4,0
18693.593,-0.342,0.245,0.872,-3.3,-4.06,-0.24,4,0
18693.593,-0.346,0.24,0.878,-3.05,-2.32,-0.24,4,0
18693.609,-0.349,0.243,0.88,-2.29,-1.07,-0.55,4,0
18693.625,-0.351,0.248,0.892,-1.98,-0.92,-1.37,4,0
18693.64,-0.356,0.245,0.908,-0.73,-1.46,-2.32,4,0
18693.64,-0.355,0.24,0.912,1.77,-2.47,-2.38,4,0
18693.64,-0.344,0.247,0.899,3.48,-2.99,-2.08,4,0
18693.656,-0.343,0.25,0.885,3.39,-2.84,-1.59,4,0
18693.671,-0.34,0.25,0.882,1.28,-2.11,-0.98,4,0
18693.671,-0.337,0.246,0.886,-1.37,-1.07,-0.31,4,0
18693.687,-0.339,0.236,0.887,-2.2,0.21,-0.06,4,0
18693.703,-0.346,0.236,0.896,-1.13,1.5,0.06,4,0
18693.703,-0.351,0.244,0.904,0.37,1.83,0.06,4,0
18693.718,-0.357,0.242,0.898,1.92,1.37,-0.4,4,0
18693.734,-0.357,0.244,0.897,3.36,0.92,-0.52,4,0
18693.734,-0.352,0.253,0.889,4.12,1.04,0.06,4,0
18693.75,-0.347,0.258,0.886,2.11,1.13,0.46,4,0
18693.765,-0.353,0.245,0.896,-1.07,1.1,0.95,4,0
18693.765,-0.355,0.235,0.907,-3.3,0.79,1.83,4,0
18693.781,-0.348,0.225,0.902,-4.27,0.06,2.17,4,0
18693.796,-0.345,0.217,0.904,-5.74,-0.58,1.83,4,0
18693.796,-0.338,0.214,0.906,-5.89,-1.19,0.34,4,0
18693.812,-0.341,0.212,0.906,-3.63,-1.31,-1.89,4,0
18693.812,-0.343,0.221,0.898,-0.61,-1.28,-3.57,4,0
18693.828,-0.343,0.241,0.891,0.24,-1.31,-4.85,4,0
18693.843,-0.343,0.245,0.888,-0.58,-1.31,-5.89,4,0
18693.859,-0.346,0.25,0.891,-0.76,0.21,-5.34,4,0
18693.859,-0.353,0.259,0.89,-1.56,0.52,-4.09,4,0
18693.875,-0.356,0.269,0.901,-1.95,0.06,-2.72,4,0
18693.875,-0.362,0.26,0.903,-2.2,-0.67,-0.79,4,0
18693.89,-0.351,0.256,0.902,-2.72,-1.25,0.24,4,0
18693.906,-0.351,0.245,0.897,-3.54,-1.8,0.27,4,0
18693.906,-0.354,0.238,0.905,-3.36,-1.8,-0.15,4,0
18693.921,-0.353,0.237,0.898,-1.71,-2.14,-0.7,4,0
18693.937,-0.352,0.241,0.891,-0.76,-2.32,-1.1,4,0
18693.937,-0.352,0.242,0.884,-0.67,-2.14,-1.43,4,0
18693.953,-0.349,0.24,0.877,-0.61,-1.5,-1.5,4,0
18693.953,-0.352,0.24,0.884,0.03,0.03,-1.83,4,0
18693.968,-0.367,0.244,0.887,0.58,1.07,-2.29,4,0
18693.984,-0.367,0.245,0.892,0.61,1.01,-2.35,4,0
18693.984,-0.363,0.242,0.896,0.79,0.55,-2.53,4,0
18694.0,-0.37,0.25,0.907,0.79,-0.03,-3.2,4,0
18694.015,-0.375,0.25,0.917,1.28,-1.65,-2.99,4,0
18694.015,-0.365,0.249,0.908,1.86,-3.42,-1.83,4,0
18694.031,-0.359,0.263,0.885,1.43,-4.21,-0.4,4,0
18694.031,-0.351,0.249,0.883,-0.58,-4.03,0.79,4,0
18694.046,-0.349,0.239,0.879,-1.31,-2.44,1.95,4,0
18694.062,-0.349,0.243,0.876,-1.16,-0.95,2.41,4,0
18694.062,-0.348,0.234,0.885,-1.56,0.03,1.83,4,0
18694.078,-0.356,0.23,0.895,-0.76,0.89,0.85,4,0
18694.093,-0.358,0.238,0.894,1.04,1.04,0.03,4,0
18694.093,-0.355,0.238,0.894,2.14,0.85,-0.43,4,0
18694.109,-0.356,0.242,0.899,1.89,0.76,-0.46,4,0
18694.125,-0.355,0.244,0.902,0.89,0.27,-0.24,4,0
18694.125,-0.357,0.24,0.908,-0.18,-0.49,0.09,4,0
18694.14,-0.357,0.238,0.91,-0.18,-1.22,0.43,4,0
18694.156,-0.351,0.246,0.896,0.55,-1.92,0.27,4,0
18694.156,-0.349,0.245,0.881,0.76,-2.08,-0.18,4,0
18694.171,-0.349,0.243,0.877,0.18,-1.37,-0.15,4,0
18694.171,-0.349,0.249,0.884,-0.34,-0.21,0.46,4,0
18694.187,-0.355,0.25,0.89,-0.79,0.64,0.79,4,0
18694.203,-0.362,0.247,0.902,-1.22,0.49,1.1,4,0
18694.203,-0.36,0.245,0.906,-0.82,-0.49,1.56,4,0
18694.218,-0.353,0.245,0.9,-0.21,-1.53,1.77,4,0
18694.234,-0.349,0.243,0.886,-0.18,-1.83,2.04,4,0
18694.234,-0.346,0.242,0.883,-1.19,-1.22,2.29,4,0
18694.25,-0.348,0.236,0.884,-2.04,-0.27,2.56,4,0
18694.265,-0.351,0.232,0.892,-2.17,0.61,2.69,4,0
18694.265,-0.359,0.232,0.906,-2.08,1.07,2.2,4,0
18694.281,-0.365,0.235,0.917,-1.53,0.37,1.68,4,0
18694.296,-0.364,0.236,0.912,-0.64,-1.13,1.22,4,0
18694.296,-0.358,0.237,0.904,0.37,-2.23,0.92,4,0
18694.312,-0.35,0.24,0.892,0.55,-2.53,0.76,4,0
18694.312,-0.349,0.24,0.886,0.18,-2.14,0.37,4,0
18694.328,-0.354,0.238,0.887,-0.06,-1.25,0.58,4,0
18694.343,-0.351,0.24,0.893,-0.67,-0.95,0.98,4,0
18694.343,-0.35,0.239,0.898,-1.34,-0.92,0.76,4,0
18694.359,-0.353,0.235,0.903,-0.89,-1.01,0.15,4,0
18694.375,-0.357,0.241,0.903,0.21,-1.13,-0.27,4,0
18694.39,-0.352,0.25,0.894,0.67,-1.37,-0.37,4,0
18694.39,-0.345,0.249,0.887,0.43,-1.16,-0.09,4,0
18694.406,-0.351,0.246,0.893,0.09,-0.12,0.52,4,0
18694.406,-0.355,0.243,0.905,-0.58,0.06,1.25,4,0
18694.421,-0.357,0.24,0.917,-1.46,-1.19,1.98,4,0
18694.421,-0.354,0.232,0.924,-1.92,-2.81,2.01,4,0
18694.437,-0.354,0.231,0.921,-1.22,-4.24,1.5,4,0
18694.453,-0.351,0.234,0.911,-0.73,-5.77,0.85,4,0
18694.453,-0.343,0.232,0.895,-0.95,-6.53,-0.12,4,0
18694.468,-0.339,0.226,0.88,-0.24,-5.49,-0.79,4,0
18694.484,-0.334,0.234,0.868,0.24,-3.23,-1.16,4,0
18694.484,-0.336,0.235,0.869,-0.92,-1.01,-2.2,4,0
18694.5,-0.352,0.236,0.892,-3.27,0.37,-3.97,4,0
18694.515,-0.371,0.24,0.93,-5.83,-0.82,-5.83,4,0
18694.515,-0.379,0.236,0.953,-7.29,-5.01,-6.56,4,0
18694.531,-0.366,0.228,0.943,-7.26,-9.74,-6.62,4,0
18694.546,-0.352,0.225,0.922,-6.16,-12.45,-6.04,4,0
18694.546,-0.342,0.227,0.899,-4.76,-13.03,-4.73,4,0
18694.562,-0.332,0.228,0.877,-4.73,-12.45,-3.51,4,0
18694.578,-0.323,0.216,0.87,-4.79,-10.65,-3.27,4,0
18694.578,-0.329,0.217,0.876,-3.08,-7.54,-3.57,4,0
18694.593,-0.342,0.225,0.885,-0.79,-4.94,-3.45,4,0
18694.593,-0.346,0.235,0.894,0.15,-4.09,-3.39,4,0
18694.609,-0.346,0.236,0.9,-0.55,-4.3,-3.48,4,0
18694.625,-0.341,0.232,0.912,-1.59,-5.13,-3.85,4,0
18694.625,-0.348,0.233,0.918,-1.65,-5.95,-4.24,4,0
18694.64,-0.349,0.237,0.921,-1.65,-7.2,-4.12,4,0
18694.656,-0.344,0.233,0.911,-1.8,-8.06,-3.33,4,0
18694.656,-0.334,0.226,0.895,-2.29,-8.09,-2.01,4,0
18694.671,-0.325,0.221,0.883,-2.47,-6.68,-0.89,4,0
18694.671,-0.318,0.218,0.872,-1.68,-4.43,-0.21,4,0
18694.687,-0.322,0.224,0.878,-1.07,-1.71,-0.18,4,0
18694.703,-0.336,0.227,0.892,-0.79,0.31,-0.55,4,0
18694.703,-0.344,0.226,0.911,-0.12,0.61,-0.58,4,0
18694.718,-0.345,0.229,0.914,1.37,0.55,-0.21,4,0
18694.734,-0.34,0.238,0.911,2.14,0.03,0.34,4,0
18694.75,-0.34,0.234,0.907,2.08,-0.21,0.85,4,0
18694.75,-0.344,0.235,0.908,1.34,-0.06,1.59,4,0
18694.765,-0.347,0.232,0.911,-0.18,-0.49,1.98,4,0
18694.765,-0.336,0.222,0.904,-0.34,-1.04,2.23,4,0
18694.781,-0.327,0.221,0.892,0.09,-0.15,2.14,4,0
18694.796,-0.327,0.224,0.891,-0.09,1.04,1.28,4,0
18694.796,-0.328,0.221,0.898,0.15,2.23,0.21,4,0
18694.812,-0.337,0.225,0.907,1.53,3.57,-0.4,4,0
18694.828,-0.344,0.23,0.912,2.84,3.97,-0.64,4,0
18694.828,-0.344,0.237,0.913,3.2,3.66,-0.92,4,0
18694.843,-0.347,0.236,0.914,1.22,1.19,-0.58,4,0
18694.843,-0.349,0.237,0.923,-0.4,-0.18,0.21,4,0
18694.859,-0.339,0.233,0.918,-1.95,-0.89,0.79,4,0
18694.875,-0.329,0.223,0.904,-3.14,-0.98,0.92,4,0
18694.875,-0.327,0.213,0.897,-3.3,-0.34,0.24,4,0
18694.89,-0.333,0.211,0.9,-2.01,0.92,-1.22,4,0
18694.906,-0.339,0.219,0.907,-0.58,1.62,-2.75,4,0
18694.906,-0.347,0.223,0.913,0.31,1.25,-3.97,4,0
18694.921,-0.347,0.229,0.923,0.61,0.15,-4.3,4,0
18694.921,-0.342,0.235,0.915,1.16,-1.1,-3.39,4,0
18694.937,-0.339,0.237,0.909,1.04,-1.56,-2.2,4,0
18694.953,-0.344,0.237,0.908,-0.06,-1.74,-0.67,4,0
18694.953,-0.346,0.236,0.912,-1.92,-2.29,0.85,4,0
18694.968,-0.341,0.228,0.909,-2.72,-2.87,1.8,4,0
18694.984,-0.343,0.224,0.914,-2.01,-2.99,1.98,4,0
18694.984,-0.338,0.223,0.895,-0.73,-2.87,1.89,4,0
18695.0,-0.34,0.227,0.893,-0.43,-2.23,1.4,4,0
18695.015,-0.337,0.219,0.888,-0.64,-1.56,1.04,4,0
18695.015,-0.339,0.211,0.885,-0.09,-0.34,1.16,4,0
18695.031,-0.343,0.223,0.898,0.06,0.92,1.04,4,0
18695.046,-0.344,0.225,0.909,-0.52,0.82,0.55,4,0
18695.046,-0.346,0.219,0.915,-0.52,0.12,0.06,4,0
18695.062,-0.35,0.221,0.916,0.03,-0.43,0.4,4,0
18695.062,-0.347,0.229,0.915,-0.98,-1.62,0.49,4,0
18695.078,-0.339,0.224,0.903,-1.89,-2.59,0.61,4,0
18695.093,-0.333,0.22,0.887,-1.43,-2.01,0.85,4,0
18695.093,-0.338,0.226,0.888,-0.67,-0.18,0.73,4,0
18695.109,-0.35,0.228,0.9,-0.52,1.16,0.43,4,0
18695.125,-0.361,0.228,0.921,-0.95,0.4,0.34,4,0
18695.125,-0.349,0.232,0.916,-0.03,-1.22,0.73,4,0
18695.14,-0.329,0.232,0.898,0.61,-1.98,1.53,4,0
18695.156,-0.33,0.229,0.891,0.09,-0.98,1.62,4,0
18695.156,-0.346,0.225,0.902,-0.95,-0.06,1.37,4,0
18695.171,-0.344,0.221,0.905,-1.31,-0.03,1.25,4,0
18695.187,-0.343,0.226,0.913,-1.19,-0.46,0.79,4,0
18695.187,-0.341,0.224,0.909,-0.7,-1.07,-0.15,4,0
18695.203,-0.345,0.227,0.907,0.89,-0.85,-0.61,4,0
18695.203,-0.348,0.236,0.895,1.53,-0.52,-0.27,4,0
18695.218,-0.345,0.236,0.897,0.06,-0.18,0.73,4,0
18695.234,-0.339,0.228,0.898,-1.77,0.15,1.62,4,0
18695.25,-0.336,0.22,0.907,-2.72,0.43,2.26,4,0
18695.25,-0.332,0.22,0.913,-2.41,0.46,2.2,4,0
18695.265,-0.335,0.216,0.914,-1.68,0.31,1.1,4,0
18695.265,-0.341,0.213,0.917,-0.61,-0.03,-0.09,4,0
18695.281,-0.345,0.22,0.922,-0.09,-0.64,-0.92,4,0
18695.281,-0.351,0.225,0.919,-0.03,-1.16,-1.25,4,0
18695.296,-0.348,0.224,0.912,0.24,-1.98,-1.1,4,0
18695.312,-0.341,0.225,0.908,0.4,-2.17,-0.79,4,0
18695.312,-0.34,0.229,0.904,0.55,-1.98,-0.73,4,0
18695.328,-0.336,0.228,0.897,0.85,-1.59,-0.64,4,0
18695.343,-0.335,0.23,0.891,0.67,-0.58,-0.7,4,0
18695.359,-0.339,0.231,0.903,0.21,0.24,-0.79,4,0
18695.359,-0.339,0.224,0.896,-0.52,0.34,-0.15,4,0
