timestamp,ax,ay,az,gx,gy,gz,orient_label,motion_label
18645.312,-0.36,0.339,0.865,1.1,-1.86,-2.29,4,0
18645.312,-0.348,0.328,0.854,1.28,-2.26,-2.5,4,0
18645.328,-0.35,0.321,0.844,1.74,-1.71,-4.18,4,0
18645.343,-0.369,0.337,0.85,2.69,-0.31,-6.5,4,0
18645.343,-0.393,0.356,0.859,4.46,0.82,-6.59,4,0
18645.359,-0.384,0.374,0.862,4.33,0.27,-3.2,4,0
18645.375,-0.361,0.367,0.864,1.59,-0.98,-0.64,4,0
18645.375,-0.36,0.355,0.868,-0.58,-1.43,-0.21,4,0
18645.39,-0.351,0.352,0.863,-1.34,-2.29,0.37,4,0
18645.39,-0.342,0.349,0.855,-1.31,-3.08,1.01,4,0
18645.406,-0.346,0.342,0.85,-1.1,-2.78,0.7,4,0
18645.421,-0.35,0.334,0.851,-0.73,-2.2,0.21,4,0
18645.421,-0.351,0.338,0.848,0.58,-1.86,-0.64,4,0
18645.437,-0.355,0.342,0.851,1.59,-1.62,-1.5,4,0
18645.453,-0.362,0.343,0.856,2.32,-1.25,-1.8,4,0
18645.468,-0.372,0.346,0.858,2.44,-0.82,-1.71,4,0
18645.468,-0.365,0.338,0.86,1.1,-1.37,-1.28,4,0
18645.484,-0.364,0.333,0.854,2.04,-1.86,-2.26,4,0
18645.5,-0.347,0.343,0.845,2.59,-2.08,-1.65,4,0
18645.515,-0.34,0.339,0.843,2.59,-1.13,-2.26,4,0
18645.515,-0.345,0.341,0.848,3.02,0.37,-2.78,4,0
18645.531,-0.353,0.346,0.85,3.91,1.19,-2.99,4,0
18645.546,-0.368,0.348,0.853,3.75,0.95,-2.87,4,0
18645.546,-0.369,0.333,0.853,2.26,0.43,-2.38,4,0
18645.562,-0.358,0.32,0.847,1.37,0.12,-2.56,4,0
18645.562,-0.363,0.317,0.853,2.11,0.24,-4.36,4,0
18645.578,-0.364,0.317,0.856,3.63,0.31,-5.83,4,0
18645.593,-0.357,0.321,0.859,4.39,0.06,-6.68,4,0
18645.593,-0.355,0.32,0.859,4.58,-0.52,-8.73,4,0
18645.609,-0.36,0.316,0.866,4.79,-0.85,-11.17,4,0
18645.609,-0.362,0.315,0.871,5.98,-1.89,-13.46,4,0
18645.625,-0.363,0.311,0.874,9.46,-4.58,-19.32,4,0
18645.64,-0.37,0.304,0.89,11.63,-6.9,-22.8,4,0
18645.656,-0.353,0.201,0.967,16.85,-16.33,-29.82,4,0
18645.671,-0.355,0.139,0.999,19.71,-23.07,-37.08,4,0
18645.671,-0.364,0.075,1.021,24.02,-32.23,-47.85,4,0
18645.687,-0.38,0.031,1.032,30.55,-43.7,-62.32,4,0
18645.703,-0.4,0.011,1.028,38.21,-56.67,-79.99,4,0
18645.703,-0.394,0.007,1.045,47.33,-71.14,-99.55,4,0
18645.718,-0.348,0.004,1.092,60.61,-86.89,-119.82,4,0
18645.734,-0.332,0.038,1.097,77.43,-102.79,-141.39,4,0
18645.75,-0.334,0.113,1.072,88.32,-116.21,-158.18,4,0
18645.75,-0.3,0.183,1.072,90.79,-126.9,-169.1,4,0
18645.765,-0.28,0.241,1.065,90.91,-134.28,-176.03,4,0
18645.765,-0.26,0.283,1.053,91.13,-139.38,-176.89,4,0
18645.781,-0.222,0.309,1.057,91.34,-142.28,-171.97,4,0
18645.781,-0.198,0.337,1.054,90.85,-143.1,-164.22,4,0
18645.796,-0.191,0.362,1.048,89.6,-143.86,-154.27,4,0
18645.812,-0.176,0.363,1.036,86.67,-145.39,-143.35,4,0
18645.812,-0.145,0.369,1.012,81.06,-147.77,-132.51,4,0
18645.828,-0.113,0.381,0.977,72.82,-149.72,-124.21,4,0
18645.843,-0.075,0.374,0.954,64.03,-150.67,-118.38,4,0
18645.843,-0.052,0.35,0.947,57.8,-149.91,-114.41,4,0
18645.859,-0.037,0.332,0.94,54.87,-147.37,-110.84,4,0
18645.875,-0.023,0.334,0.92,55.12,-144.08,-108.07,4,0
18645.875,-0.012,0.352,0.882,57.1,-139.77,-106.66,4,0
18645.89,-0.008,0.401,0.857,55.42,-133.85,-102.69,4,0
18645.89,-0.018,0.412,0.834,51.76,-128.7,-99.15,4,0
18645.906,-0.05,0.434,0.807,47.49,-124.33,-96.47,4,0
18645.921,-0.069,0.457,0.787,41.72,-121.59,-92.07,4,0
18645.921,-0.083,0.452,0.766,38.12,-119.82,-86.0,4,0
18645.937,-0.095,0.465,0.744,38.94,-116.49,-78.16,4,0
18645.953,-0.099,0.502,0.722,41.32,-110.39,-67.9,4,0
18645.968,-0.112,0.542,0.71,39.25,-102.48,-56.7,4,0
18645.968,-0.109,0.561,0.71,31.1,-94.76,-44.65,4,0
18645.984,-0.099,0.549,0.724,9.89,-79.17,-18.71,4,0
18646.0,-0.113,0.519,0.732,2.17,-74.59,-6.84,4,0
18646.0,-0.116,0.465,0.733,0.92,-72.15,4.85,4,0
18646.015,-0.113,0.44,0.728,4.49,-69.55,15.87,4,0
18646.031,-0.133,0.439,0.71,8.76,-66.01,23.74,4,0
18646.031,-0.143,0.451,0.704,7.11,-61.77,28.66,4,0
18646.046,-0.135,0.465,0.731,-0.64,-57.34,32.04,4,0
18646.062,-0.123,0.451,0.777,-8.0,-53.32,35.92,4,0
18646.062,-0.115,0.452,0.811,-10.59,-48.43,42.05,4,0
18646.078,-0.109,0.487,0.846,-9.74,-44.89,49.87,4,0
18646.093,-0.093,0.51,0.87,-10.07,-43.52,58.57,4,0
18646.093,-0.101,0.524,0.896,-15.32,-43.18,66.32,4,0
18646.109,-0.131,0.506,0.907,-22.68,-45.56,71.38,4,0
18646.125,-0.142,0.452,0.92,-27.99,-51.36,75.47,4,0
18646.125,-0.127,0.409,0.879,-29.63,-58.63,77.15,4,0
18646.14,-0.093,0.384,0.809,-28.08,-62.29,75.87,4,0
18646.156,-0.017,0.311,0.742,-15.29,-47.67,66.23,4,0
18646.171,0.016,0.375,0.775,-19.38,-37.02,58.14,4,0
18646.171,0.042,0.365,0.761,-20.36,-24.38,53.13,4,0
18646.187,0.049,0.365,0.782,-23.07,-11.35,49.13,4,0
18646.203,0.037,0.406,0.841,-24.9,-0.76,47.43,4,0
18646.218,0.023,0.442,0.868,-24.48,6.07,49.75,4,0
18646.218,0.035,0.456,0.912,-26.37,7.97,52.98,4,0
18646.218,0.069,0.454,0.95,-28.69,7.32,54.35,4,0
18646.234,0.1,0.467,0.942,-31.31,6.32,53.71,4,0
18646.25,0.119,0.452,0.923,-32.41,5.83,51.27,4,0
18646.265,0.132,0.435,0.883,-31.01,6.68,48.19,4,0
18646.265,0.151,0.438,0.855,-28.6,10.71,46.33,4,0
18646.281,0.151,0.433,0.847,-28.66,17.88,44.28,4,0
18646.281,0.141,0.427,0.864,-33.97,25.21,41.93,4,0
18646.296,0.01,0.451,1.095,-38.79,28.41,40.99,4,0
18646.312,-0.079,0.494,1.321,-29.76,11.9,48.34,4,0
18646.312,0.094,0.466,1.283,-22.52,-17.55,64.15,4,0
18646.328,0.242,0.434,1.145,-20.81,-35.62,66.41,4,0
18646.343,0.309,0.431,0.997,-17.98,-36.1,60.82,4,0
18646.343,0.321,0.43,0.946,-15.14,-27.5,54.81,4,0
18646.359,0.302,0.436,0.919,-13.43,-18.25,48.65,4,0
18646.375,0.262,0.441,0.918,-14.95,-11.26,43.0,4,0
18646.375,0.229,0.438,0.924,-17.37,-7.97,38.97,4,0
18646.39,0.227,0.408,0.904,-19.47,-7.29,37.2,4,0
18646.39,0.24,0.358,0.876,-19.26,-5.62,36.5,4,0
18646.406,0.259,0.336,0.875,-15.84,-0.61,36.74,4,0
18646.421,0.254,0.316,0.89,-10.5,6.1,36.81,4,0
18646.437,0.252,0.29,0.917,-4.03,12.48,37.78,4,0
18646.437,0.234,0.289,0.937,3.23,18.43,38.91,4,0
18646.453,0.185,0.308,0.948,5.55,21.39,38.3,4,0
18646.453,0.174,0.321,0.962,-0.64,18.71,36.35,4,0
18646.468,0.178,0.313,0.959,-8.33,13.64,34.24,4,0
18646.484,0.172,0.296,0.932,-12.09,9.16,33.05,4,0
18646.484,0.175,0.278,0.906,-13.06,5.83,32.65,4,0
18646.5,0.181,0.273,0.88,-13.73,3.57,32.56,4,0
18646.515,0.178,0.257,0.867,-14.98,2.93,32.29,4,0
18646.515,0.162,0.23,0.892,-11.75,3.11,32.01,4,0
18646.531,0.147,0.248,0.894,1.65,2.04,32.29,4,0
18646.531,0.152,0.298,0.881,16.24,-0.24,32.11,4,0
18646.546,0.155,0.35,0.9,19.84,-2.44,30.49,4,0
18646.562,0.178,0.366,0.907,21.76,-5.07,30.03,4,0
18646.562,0.22,0.368,0.918,23.5,-6.2,30.64,4,0
18646.578,0.243,0.377,0.925,22.49,-4.94,29.54,4,0
18646.593,0.268,0.368,0.93,17.18,-2.96,28.47,4,0
18646.593,0.29,0.351,0.952,9.55,0.06,26.86,4,0
18646.609,0.29,0.318,0.949,3.81,4.18,18.19,4,0
18646.625,0.281,0.29,0.944,6.16,4.33,12.94,4,0
18646.625,0.239,0.305,0.979,10.9,0.21,11.78,4,0
18646.64,0.204,0.328,0.979,12.73,-5.65,17.79,4,0
18646.64,0.266,0.375,0.855,12.12,-6.53,27.56,4,0
18646.656,0.28,0.374,0.829,10.59,-1.04,36.99,4,0
18646.671,0.268,0.362,0.828,8.27,6.38,44.98,4,0
18646.687,0.271,0.309,0.855,4.76,12.12,49.65,4,0
18646.687,0.271,0.256,0.881,1.68,14.89,48.04,4,0
18646.703,0.273,0.212,0.859,-1.95,14.5,41.44,4,0
18646.703,0.278,0.203,0.877,-8.7,15.17,32.84,4,0
18646.718,0.269,0.166,1.006,-7.26,17.15,23.59,4,0
18646.734,0.253,0.137,1.023,3.27,13.82,16.33,4,0
18646.734,0.277,0.169,1.047,9.55,8.48,10.99,4,0
18646.75,0.269,0.203,1.053,13.4,4.79,5.13,4,0
18646.765,0.242,0.23,1.01,14.8,1.34,1.92,4,0
18646.765,0.245,0.244,0.945,15.08,-0.95,1.68,4,0
18646.781,0.23,0.268,0.897,16.91,0.15,1.13,4,0
18646.781,0.21,0.315,0.867,17.3,2.78,1.83,4,0
18646.796,0.21,0.35,0.879,13.82,5.16,3.57,4,0
18646.812,0.205,0.372,0.91,8.21,6.32,5.37,4,0
18646.812,0.224,0.385,0.906,2.26,5.62,8.73,4,0
18646.843,0.25,0.305,0.909,-4.0,6.62,11.78,4,0
18646.843,0.259,0.272,0.919,-3.14,7.48,11.44,4,0
18646.859,0.259,0.25,0.933,-2.81,7.26,8.76,4,0
18646.859,0.263,0.241,0.957,-1.86,5.65,4.73,4,0
18646.875,0.271,0.235,0.955,0.67,3.14,0.0,4,0
18646.89,0.27,0.248,0.957,3.33,1.07,-3.88,4,0
18646.89,0.245,0.275,0.957,5.31,-0.31,-5.46,4,0
18646.906,0.226,0.301,0.915,5.25,-1.92,-3.97,4,0
18646.921,0.226,0.309,0.888,2.96,-2.75,-1.62,4,0
18646.921,0.236,0.318,0.886,1.13,-2.2,0.46,4,0
18646.937,0.248,0.326,0.897,-0.79,-1.37,1.98,4,0
18646.953,0.254,0.32,0.91,-3.36,-0.85,2.44,4,0
18646.953,0.258,0.31,0.928,-5.49,-0.82,2.17,4,0
18646.968,0.252,0.305,0.93,-6.84,-1.13,1.62,4,0
18646.984,0.248,0.297,0.931,-8.0,-1.68,1.5,4,0
18646.984,0.222,0.307,0.952,-9.06,-2.11,2.35,4,0
18647.0,0.196,0.317,0.913,-15.53,-9.16,8.36,4,0
18647.015,0.23,0.304,0.877,-21.24,-12.54,10.71,4,0
18647.031,0.262,0.287,0.897,-24.17,-12.18,10.96,4,0
18647.046,0.312,0.243,0.932,-23.44,-11.05,9.4,4,0
18647.046,0.404,0.173,0.995,-21.7,-9.61,3.14,4,0
18647.062,0.456,0.125,1.037,-14.53,-6.9,-10.38,4,0
18647.062,0.421,0.091,1.033,-2.9,-2.96,-27.07,4,0
18647.078,0.387,0.11,1.049,12.54,0.12,-40.71,4,0
18647.093,0.272,0.228,0.985,30.21,1.65,-46.48,4,0
18647.093,0.262,0.304,0.911,37.75,1.8,-41.87,4,0
18647.109,0.228,0.418,0.863,35.83,7.11,-35.98,4,0
18647.109,0.139,0.521,0.842,33.14,18.25,-26.18,4,0
18647.125,0.017,0.546,0.837,28.14,25.61,-8.91,4,0
18647.14,-0.089,0.531,0.801,13.86,22.4,12.39,4,0
18647.14,-0.114,0.378,0.771,-9.09,5.68,30.24,4,0
18647.156,-0.048,0.156,0.779,-25.94,-19.26,38.39,4,0
18647.187,0.378,0.15,1.0,-19.17,-37.81,31.77,4,0
18647.187,0.511,0.242,1.101,-9.86,-32.04,24.6,4,0
18647.203,0.488,0.312,1.16,-4.0,-24.57,19.35,4,0
18647.203,0.435,0.127,1.033,6.99,-21.45,12.39,4,0
18647.218,0.338,-0.025,0.858,18.56,-20.54,-6.47,4,0
18647.234,0.355,0.057,0.788,24.38,-15.81,-19.1,4,0
18647.234,0.371,0.127,0.76,26.25,-3.78,-28.93,4,0
18647.25,0.366,0.247,0.757,27.62,11.38,-35.16,4,0
18647.265,0.383,0.372,0.769,26.86,26.15,-36.26,4,0
18647.265,0.335,0.482,0.852,21.58,38.36,-37.35,4,0
18647.281,0.236,0.531,0.912,13.73,41.63,-36.26,4,0
18647.281,0.137,0.529,1.008,2.66,34.49,-29.91,4,0
18647.296,-0.11,0.554,1.275,3.08,16.39,-17.58,4,0
18647.312,0.057,0.394,1.074,9.34,-19.75,5.49,4,0
18647.312,0.224,0.356,0.816,-12.24,-35.83,6.01,4,0
18647.328,0.181,0.346,0.838,-22.03,-28.32,4.06,4,0
18647.343,0.22,0.294,0.907,-13.79,-19.17,23.9,4,0
18647.359,0.253,0.306,0.932,-13.25,-17.4,27.34,4,0
18647.359,0.263,0.295,0.946,-10.32,-15.96,28.93,4,0
18647.375,0.291,0.291,0.915,-7.54,-16.24,29.21,4,0
18647.39,0.322,0.26,0.876,-6.53,-14.5,25.88,4,0
18647.406,0.347,0.235,0.867,-7.35,-10.38,20.84,4,0
18647.406,0.357,0.22,0.876,-6.87,-5.83,14.44,4,0
18647.421,0.346,0.217,0.897,-4.55,-2.23,7.84,4,0
18647.421,0.32,0.229,0.922,-0.95,-0.58,2.08,4,0
18647.437,0.282,0.269,0.957,3.54,-1.43,-2.62,4,0
18647.453,0.245,0.308,0.945,6.78,-5.04,-4.3,4,0
18647.453,0.225,0.351,0.933,6.04,-9.06,-2.32,4,0
18647.468,0.219,0.383,0.919,1.92,-12.57,1.71,4,0
18647.484,0.212,0.388,0.927,-4.3,-15.66,6.78,4,0
18647.484,0.24,0.371,0.904,-10.16,-18.92,13.58,4,0
18647.5,0.288,0.345,0.867,-15.87,-19.68,19.23,4,0
18647.515,0.314,0.248,0.888,-18.01,-13.31,21.3,4,0
18647.531,0.325,0.213,0.904,-16.17,-11.29,19.81,4,0
18647.531,0.335,0.192,0.921,-14.22,-9.83,16.48,4,0
18647.546,0.337,0.177,0.923,-10.83,-8.51,12.48,4,0
18647.562,0.35,0.159,0.916,-7.14,-6.35,8.79,4,0
18647.562,0.359,0.156,0.913,-2.75,-2.9,3.94,4,0
18647.593,0.355,0.184,0.925,3.42,0.31,-1.53,4,0
18647.593,0.329,0.245,0.925,9.86,0.55,-8.21,4,0
18647.593,0.311,0.31,0.904,6.41,-1.22,-8.64,4,0
18647.609,0.288,0.368,0.906,2.81,-4.58,-6.29,4,0
18647.625,0.26,0.397,0.913,-2.78,-9.09,-1.5,4,0
18647.625,0.281,0.341,0.892,-9.83,-11.08,2.84,4,0
18647.64,0.291,0.3,0.915,-13.09,-12.15,6.1,4,0
18647.64,0.305,0.264,0.918,-14.74,-13.43,8.55,4,0
18647.656,0.311,0.233,0.925,-15.32,-14.04,8.67,4,0
18647.671,0.307,0.236,0.931,-13.55,-14.5,8.21,4,0
18647.687,0.291,0.272,0.911,-14.1,-16.75,9.16,4,0
18647.703,0.307,0.284,0.9,-16.42,-18.07,10.59,4,0
18647.703,0.307,0.309,0.893,-19.1,-18.56,12.57,4,0
18647.718,0.31,0.301,0.872,-23.62,-18.86,15.26,4,0
18647.734,0.338,0.263,0.877,-27.89,-17.73,17.82,4,0
18647.734,0.374,0.211,0.891,-28.5,-15.5,18.43,4,0
18647.75,0.396,0.146,0.9,-25.48,-12.7,15.35,4,0
18647.765,0.417,0.098,0.895,-20.02,-9.31,10.1,4,0
18647.765,0.433,0.088,0.904,-13.67,-4.55,2.81,4,0
18647.781,0.423,0.104,0.924,-6.1,0.4,-4.49,4,0
18647.781,0.411,0.123,0.935,0.76,3.69,-10.25,4,0
18647.796,0.394,0.149,0.927,7.08,6.16,-15.35,4,0
18647.812,0.381,0.174,0.907,12.85,9.0,-18.89,4,0
18647.828,0.389,0.195,0.918,15.2,11.87,-22.03,4,0
18647.828,0.37,0.213,0.931,17.43,13.76,-26.46,4,0
18647.843,0.345,0.224,0.943,19.1,13.15,-30.92,4,0
18647.843,0.36,0.247,0.961,18.04,11.2,-34.7,4,0
18647.859,0.298,0.294,0.98,17.82,10.1,-36.9,4,0
18647.875,0.28,0.283,0.959,19.01,7.66,-33.11,4,0
18647.875,0.285,0.281,0.919,17.61,7.87,-27.86,4,0
18647.89,0.248,0.279,0.902,19.04,12.48,-22.58,4,0
18647.906,0.209,0.289,0.879,21.42,17.82,-16.11,4,0
18647.906,0.174,0.308,0.858,21.61,21.21,-10.41,4,0
18647.921,0.136,0.356,0.848,21.03,20.84,-4.15,4,0
18647.921,0.122,0.421,0.831,16.69,14.71,4.97,4,0
18647.937,0.183,0.395,0.829,3.39,0.92,14.68,4,0
18647.953,0.258,0.313,0.832,-9.37,-11.99,20.45,4,0
18647.953,0.39,0.241,0.864,-14.53,-16.33,21.94,4,0
18647.968,0.38,0.251,0.982,-14.28,-13.92,19.84,4,0
18647.984,0.376,0.261,1.095,-10.86,-15.56,21.7,4,0
18647.984,0.357,0.22,1.08,-7.63,-21.85,23.87,4,0
18648.0,0.385,0.12,1.004,0.43,-29.69,19.81,4,0
18648.0,0.39,0.151,0.863,9.58,-31.19,12.15,4,0
18648.015,0.358,0.191,0.819,11.75,-24.26,5.74,4,0
18648.031,0.353,0.229,0.816,12.12,-16.63,3.72,4,0
18648.046,0.377,0.288,0.786,12.67,-8.51,5.52,4,0
18648.046,0.414,0.329,0.773,12.05,1.22,8.58,4,0
18648.062,0.426,0.323,0.793,8.55,12.12,9.16,4,0
18648.062,0.413,0.301,0.835,4.3,20.72,5.98,4,0
18648.078,0.37,0.288,0.871,0.24,25.36,1.16,4,0
18648.093,0.338,0.245,0.916,-3.88,26.0,-2.99,4,0
18648.093,0.256,0.213,1.098,-6.01,20.94,-7.72,4,0
18648.109,0.29,0.109,1.104,1.13,4.49,-12.05,4,0
18648.109,0.336,0.139,0.915,5.04,-5.28,-21.52,4,0
18648.125,0.332,0.193,0.839,8.51,-0.89,-27.74,4,0
18648.14,0.33,0.235,0.838,13.76,6.81,-28.02,4,0
18648.156,0.324,0.312,0.884,13.89,13.06,-26.52,4,0
18648.156,0.292,0.335,0.943,11.57,14.1,-25.79,4,0
18648.171,0.281,0.322,0.904,8.82,9.49,-25.15,4,0
18648.171,0.317,0.315,0.856,3.02,6.9,-25.94,4,0
18648.187,0.269,0.315,0.897,0.98,9.0,-27.1,4,0
18648.203,0.23,0.341,0.948,2.78,7.63,-21.42,4,0
18648.203,0.236,0.354,0.936,4.43,2.87,-13.34,4,0
18648.218,0.255,0.351,0.903,2.5,-0.89,-8.0,4,0
18648.234,0.264,0.343,0.891,-1.86,-2.69,-5.25,4,0
18648.234,0.279,0.34,0.883,-6.16,-3.57,-2.96,4,0
18648.25,0.301,0.324,0.888,-10.22,-3.2,-0.46,4,0
18648.265,0.316,0.293,0.905,-13.86,-1.98,1.22,4,0
18648.265,0.323,0.256,0.907,-15.38,-1.13,0.73,4,0
18648.281,0.318,0.227,0.909,-12.7,-0.12,-1.4,4,0
18648.281,0.311,0.226,0.916,-7.9,0.76,-3.66,4,0
18648.296,0.313,0.236,0.936,-2.96,1.28,-6.04,4,0
18648.312,0.299,0.259,0.941,1.53,1.43,-7.75,4,0
18648.312,0.293,0.282,0.925,4.3,0.98,-7.66,4,0
18648.328,0.297,0.292,0.909,4.36,0.76,-6.84,4,0
18648.343,0.301,0.295,0.909,3.27,0.85,-6.1,4,0
18648.343,0.304,0.293,0.908,3.11,0.7,-5.28,4,0
18648.375,0.283,0.307,0.893,3.45,1.19,-3.81,4,0
18648.375,0.266,0.319,0.906,2.9,1.22,-3.42,4,0
18648.39,0.249,0.321,0.927,2.75,0.52,-2.23,4,0
18648.39,0.229,0.328,0.958,3.33,-1.34,0.15,4,0
18648.406,0.209,0.34,0.957,2.87,-5.25,3.85,4,0
18648.421,0.213,0.314,0.946,0.52,-9.58,8.79,4,0
18648.421,0.234,0.279,0.922,-2.2,-13.03,13.12,4,0
18648.437,0.231,0.232,1.075,-5.4,-19.04,13.12,4,0
18648.453,0.152,0.257,1.224,7.69,-34.21,14.83,4,0
18648.468,0.209,0.294,1.108,21.67,-57.04,24.26,4,0
18648.468,0.286,0.255,0.969,19.04,-72.3,25.67,4,0
18648.484,0.324,0.203,1.007,18.86,-76.57,21.27,4,0
18648.484,0.374,0.231,0.864,32.35,-77.61,19.5,4,0
18648.5,0.446,0.272,0.725,29.73,-72.76,16.82,4,0
18648.515,0.462,0.265,0.733,22.16,-60.49,10.28,4,0
18648.515,0.474,0.312,0.749,22.06,-49.04,8.18,4,0
18648.531,0.48,0.345,0.736,21.67,-29.69,6.32,4,0
18648.546,0.471,0.353,0.746,19.29,-20.05,6.44,4,0
18648.562,0.457,0.354,0.761,19.26,-10.99,5.98,4,0
18648.562,0.429,0.381,0.822,18.01,-3.97,5.55,4,0
18648.578,0.385,0.362,0.854,23.26,-0.52,9.86,4,0
18648.593,0.377,0.354,0.878,26.8,-1.86,12.82,4,0
18648.593,0.375,0.365,0.883,27.19,-3.08,14.77,4,0
18648.609,0.361,0.342,0.851,21.82,-4.49,16.05,4,0
18648.609,0.435,0.274,0.792,15.87,-2.01,14.01,4,0
18648.625,0.458,0.247,0.784,13.73,3.23,9.49,4,0
18648.64,0.48,0.24,0.753,13.4,10.44,5.25,4,0
18648.656,0.504,0.24,0.743,12.12,18.77,-0.43,4,0
18648.656,0.496,0.242,0.767,8.82,26.31,-8.27,4,0
18648.671,0.454,0.252,0.809,5.65,31.98,-16.57,4,0
18648.671,0.423,0.306,0.855,4.85,34.52,-22.13,4,0
18648.687,0.363,0.37,0.889,5.68,34.06,-25.36,4,0
18648.703,0.289,0.41,0.901,2.35,23.47,-20.87,4,0
18648.718,0.295,0.394,0.87,-2.44,16.88,-17.27,4,0
18648.734,0.316,0.384,0.853,-8.76,12.85,-14.44,4,0
18648.734,0.335,0.369,0.845,-13.95,10.99,-12.85,4,0
18648.75,0.357,0.361,0.84,-17.52,10.56,-11.87,4,0
18648.765,0.365,0.351,0.845,-20.45,11.05,-12.79,4,0
18648.765,0.342,0.339,0.864,-22.1,10.74,-14.71,4,0
18648.781,0.363,0.303,0.864,-24.87,8.97,-16.6,4,0
18648.796,0.368,0.292,0.881,-26.76,7.54,-21.7,4,0
18648.796,0.358,0.278,0.895,-26.09,6.41,-26.76,4,0
18648.812,0.345,0.273,0.919,-24.93,4.7,-31.07,4,0
18648.812,0.325,0.295,0.935,-21.49,2.5,-33.51,4,0
18648.828,0.318,0.309,0.925,-17.55,-0.49,-33.78,4,0
18648.843,0.316,0.32,0.907,-15.47,-3.3,-33.45,4,0
18648.843,0.313,0.338,0.894,-14.5,-5.34,-33.02,4,0
18648.859,0.306,0.354,0.888,-14.47,-6.35,-31.53,4,0
18648.875,0.305,0.38,0.867,-13.18,-6.38,-24.48,4,0
18648.89,0.304,0.385,0.865,-14.01,-4.79,-19.38,4,0
18648.89,0.306,0.367,0.868,-15.87,-3.75,-15.2,4,0
18648.906,0.305,0.355,0.876,-17.52,-3.08,-11.66,4,0
18648.921,0.311,0.343,0.887,-18.71,-2.53,-8.42,4,0
18648.937,0.316,0.325,0.894,-19.14,-2.08,-6.01,4,0
18648.937,0.315,0.306,0.894,-18.37,-1.92,-4.52,4,0
18648.953,0.327,0.286,0.901,-17.52,-2.35,-4.52,4,0
18648.953,0.342,0.272,0.907,-15.47,-2.62,-5.92,4,0
18648.968,0.339,0.273,0.909,-12.76,-2.5,-8.36,4,0
18648.984,0.34,0.271,0.902,-10.44,-2.9,-11.11,4,0
18648.984,0.345,0.275,0.891,-8.48,-3.23,-13.18,4,0
18649.0,0.349,0.29,0.892,-6.81,-2.41,-14.53,4,0
18649.0,0.342,0.293,0.898,-4.73,-0.95,-15.56,4,0
18649.015,0.32,0.3,0.898,-3.02,0.0,-15.93,4,0
18649.031,0.306,0.31,0.894,-3.14,-0.46,-15.23,4,0
18649.031,0.307,0.319,0.896,-5.04,-1.65,-13.89,4,0
18649.046,0.311,0.32,0.897,-5.43,-2.38,-12.21,4,0
18649.062,0.309,0.322,0.899,-4.97,-2.41,-10.19,4,0
18649.062,0.316,0.329,0.897,-5.58,-2.87,-8.39,4,0
18649.078,0.319,0.321,0.89,-6.01,-2.84,-7.02,4,0
18649.093,0.321,0.305,0.886,-7.17,-3.08,-6.62,4,0
18649.093,0.327,0.297,0.89,-8.3,-3.05,-7.11,4,0
18649.109,0.328,0.29,0.896,-7.35,-2.08,-7.26,4,0
18649.125,0.324,0.282,0.903,-4.67,-1.01,-6.87,4,0
18649.125,0.32,0.293,0.914,-2.08,-0.27,-6.81,4,0
18649.14,0.309,0.299,0.915,0.55,-0.46,-6.44,4,0
18649.14,0.3,0.298,0.911,2.11,-1.31,-5.71,4,0
18649.156,0.304,0.307,0.899,1.92,-2.72,-5.01,4,0
18649.171,0.313,0.315,0.885,0.61,-3.57,-4.52,4,0
18649.171,0.324,0.318,0.889,-1.01,-3.97,-4.43,4,0
18649.187,0.329,0.306,0.887,-2.01,-3.94,-4.97,4,0
18649.203,0.329,0.296,0.887,-2.38,-3.27,-5.34,4,0
18649.218,0.329,0.298,0.888,-0.24,-1.19,-5.01,4,0
18649.234,0.326,0.296,0.891,-0.34,-0.52,-5.13,4,0
18649.234,0.319,0.297,0.898,-0.18,-0.21,-4.94,4,0
18649.25,0.315,0.305,0.898,0.61,-0.21,-4.46,4,0
18649.265,0.315,0.308,0.896,0.7,-0.43,-3.72,4,0
18649.265,0.312,0.31,0.893,0.49,-0.61,-2.99,4,0
18649.281,0.312,0.316,0.891,-0.43,-0.7,-2.56,4,0
18649.281,0.314,0.315,0.889,-1.59,-0.82,-2.23,4,0
18649.296,0.318,0.313,0.902,-2.26,-1.13,-1.89,4,0
18649.312,0.319,0.304,0.9,-2.44,-1.5,-1.95,4,0
18649.312,0.324,0.293,0.895,-2.26,-1.56,-2.26,4,0
18649.328,0.327,0.286,0.893,-1.4,-0.82,-2.44,4,0
18649.343,0.326,0.279,0.899,-0.06,0.09,-2.99,4,0
18649.343,0.321,0.293,0.905,1.65,0.67,-3.48,4,0
18649.359,0.316,0.301,0.906,3.63,0.82,-3.17,4,0
18649.359,0.304,0.304,0.897,4.64,0.37,-2.87,4,0
18649.39,0.321,0.32,0.878,2.11,-1.01,-2.04,4,0
18649.39,0.321,0.32,0.886,1.59,-0.06,-1.53,4,0
18649.406,0.315,0.315,0.89,0.61,0.43,-1.25,4,0
18649.421,0.315,0.31,0.89,-0.64,0.43,-1.25,4,0
18649.421,0.318,0.303,0.894,-1.01,0.7,-1.31,4,0
18649.437,0.314,0.296,0.901,-0.73,1.19,-1.53,4,0
18649.453,0.314,0.301,0.898,-0.64,0.98,-1.34,4,0
18649.453,0.318,0.301,0.893,-0.31,0.79,-1.04,4,0
18649.468,0.318,0.297,0.895,-0.24,1.01,-1.1,4,0
18649.484,0.316,0.304,0.895,-0.24,1.1,-1.4,4,0
18649.484,0.315,0.307,0.896,0.0,1.19,-1.4,4,0
18649.5,0.314,0.303,0.895,0.31,1.5,-1.16,4,0
18649.5,0.314,0.304,0.894,0.46,1.83,-1.01,4,0
18649.515,0.313,0.307,0.892,0.46,2.2,-0.79,4,0
18649.531,0.312,0.31,0.889,0.34,2.59,-0.55,4,0
18649.531,0.314,0.306,0.887,0.15,2.9,-0.06,4,0
18649.562,0.31,0.307,0.9,-0.49,3.69,-0.12,4,0
18649.578,0.305,0.309,0.912,-0.18,2.32,-0.34,4,0
18649.578,0.301,0.303,0.914,0.24,1.22,-0.46,4,0
18649.593,0.295,0.302,0.91,0.92,1.13,0.18,4,0
18649.593,0.236,0.327,0.95,2.2,0.52,2.41,4,0
18649.609,0.192,0.386,1.001,4.15,-4.67,7.81,4,0
18649.625,0.146,0.444,1.031,5.95,-14.77,16.79,4,0
18649.625,0.143,0.41,1.016,4.82,-27.13,28.08,4,0
18649.64,0.198,0.273,1.097,2.69,-41.02,35.1,4,0
18649.64,0.247,0.307,1.059,8.67,-56.37,40.35,4,0
18649.656,0.375,0.259,0.894,21.03,-62.41,48.28,4,0
18649.671,0.452,0.149,0.734,25.82,-55.97,44.74,4,0
18649.687,0.502,0.19,0.668,20.39,-42.79,36.5,4,0
18649.687,0.551,0.23,0.684,17.94,-25.82,28.02,4,0
18649.703,0.543,0.275,0.727,19.59,-9.55,19.68,4,0
18649.703,0.517,0.302,0.774,21.7,2.11,13.58,4,0
18649.718,0.464,0.32,0.811,23.99,10.19,8.27,4,0
18649.734,0.385,0.349,0.856,23.77,14.19,4.09,4,0
18649.734,0.322,0.378,0.905,20.94,12.27,4.06,4,0
18649.75,0.295,0.373,0.924,17.24,5.68,6.78,4,0
18649.765,0.308,0.349,0.915,14.1,-1.46,10.16,4,0
18649.765,0.342,0.326,0.892,13.12,-6.53,13.15,4,0
18649.781,0.371,0.306,0.867,13.31,-8.36,13.67,4,0
18649.781,0.389,0.303,0.876,14.31,-8.06,12.15,4,0
18649.796,0.394,0.308,0.86,16.45,-7.32,10.13,4,0
18649.812,0.392,0.321,0.848,18.1,-5.8,9.06,4,0
18649.828,0.386,0.34,0.853,19.29,-4.55,9.19,4,0
18649.828,0.381,0.357,0.845,18.8,-4.03,9.89,4,0
18649.843,0.374,0.357,0.833,16.33,-3.75,10.41,4,0
18649.843,0.369,0.344,0.825,13.03,-3.66,11.02,4,0
18649.859,0.385,0.335,0.822,9.19,-3.66,11.35,4,0
18649.875,0.409,0.311,0.819,6.38,-2.9,10.13,4,0
18649.875,0.429,0.296,0.815,5.07,-0.4,7.51,4,0
18649.89,0.445,0.289,0.816,4.88,3.3,3.81,4,0
18649.89,0.454,0.286,0.798,4.58,7.51,-1.1,4,0
18649.906,0.458,0.294,0.789,4.06,12.33,-6.13,4,0
18649.921,0.449,0.31,0.788,3.72,17.76,-10.68,4,0
18649.937,0.425,0.337,0.802,2.41,22.77,-13.98,4,0
18649.937,0.387,0.356,0.839,0.09,25.45,-16.3,4,0
18649.953,0.325,0.38,0.903,-2.38,24.38,-17.52,4,0
18649.953,0.26,0.374,1.005,-2.78,16.94,-15.87,4,0
18649.968,0.292,0.336,0.977,-1.59,4.09,-13.09,4,0
18649.984,0.334,0.313,0.883,0.46,-2.56,-13.37,4,0
18649.984,0.344,0.323,0.852,2.44,-1.98,-13.7,4,0
18650.0,0.335,0.343,0.875,4.0,0.27,-12.27,4,0
18650.0,0.333,0.356,0.87,5.1,1.19,-10.32,4,0
18650.015,0.338,0.367,0.859,4.73,1.1,-8.91,4,0
18650.031,0.349,0.373,0.847,3.08,0.64,-8.15,4,0
18650.031,0.363,0.371,0.831,0.98,0.61,-7.81,4,0
18650.046,0.369,0.364,0.836,-0.92,1.8,-7.63,4,0
18650.062,0.355,0.368,0.851,-1.71,2.81,-7.66,4,0
18650.062,0.355,0.364,0.854,-2.53,2.38,-7.57,4,0
18650.078,0.345,0.37,0.87,-3.11,1.53,-8.03,4,0
18650.093,0.324,0.377,0.887,-1.83,0.12,-7.51,4,0
18650.093,0.306,0.37,0.882,0.58,-1.62,-5.62,4,0
18650.109,0.302,0.387,0.891,2.78,-4.03,-4.43,4,0
18650.125,0.322,0.455,0.915,0.21,-7.39,-0.85,4,0
18650.125,0.349,0.401,0.852,-4.06,-8.79,4.21,4,0
18650.14,0.361,0.318,0.785,-4.39,-6.68,6.5,4,0
18650.14,0.369,0.363,0.84,-9.7,-4.43,9.77,4,0
18650.156,0.363,0.312,0.856,-12.45,-3.27,11.02,4,0
18650.171,0.363,0.327,0.923,-12.3,-5.95,9.52,4,0
18650.171,0.396,0.39,0.913,-14.4,-13.43,6.93,4,0
18650.187,0.424,0.382,0.897,-20.36,-20.51,-1.34,4,0
18650.203,0.413,0.35,0.877,-24.38,-23.87,-10.96,4,0
18650.203,0.44,0.289,0.814,-26.09,-22.74,-17.4,4,0
18650.218,0.439,0.228,0.875,-22.98,-15.14,-21.45,4,0
18650.234,0.411,0.138,0.91,-7.32,-7.05,-20.91,4,0
18650.234,0.388,0.135,0.91,11.9,-0.09,-18.16,4,0
18650.25,0.325,0.234,0.881,28.9,8.06,-17.52,4,0
18650.25,0.22,0.348,0.814,36.77,12.85,-16.14,4,0
18650.265,0.163,0.517,0.787,32.93,12.45,-9.61,4,0
18650.281,0.2,0.682,0.76,21.52,10.16,4.24,4,0
18650.281,0.245,0.689,0.753,3.85,7.11,21.03,4,0
18650.296,0.293,0.559,0.717,-15.29,6.07,34.33,4,0
18650.312,0.376,0.415,0.743,-33.27,8.55,41.02,4,0
18650.328,0.403,0.288,0.82,-38.18,13.4,42.51,4,0
18650.328,0.45,0.186,0.912,-34.3,14.37,41.38,4,0
18650.343,0.474,0.115,0.977,-25.88,13.03,33.45,4,0
18650.343,0.458,0.089,1.019,-14.4,9.83,20.72,4,0
18650.359,0.435,0.096,1.01,-1.1,4.67,8.36,4,0
18650.375,0.416,0.151,0.98,13.86,-0.34,-1.68,4,0
18650.375,0.384,0.255,0.922,27.65,-3.45,-8.85,4,0
18650.39,0.36,0.35,0.852,34.0,-4.79,-12.12,4,0
18650.39,0.354,0.435,0.81,31.5,-4.46,-11.72,4,0
18650.406,0.341,0.471,0.775,23.65,-2.26,-9.03,4,0
18650.421,0.33,0.464,0.766,12.57,0.61,-5.52,4,0
18650.437,0.335,0.432,0.773,-0.12,2.81,-1.62,4,0
18650.437,0.361,0.371,0.812,-11.47,5.01,0.67,4,0
18650.453,0.362,0.317,0.874,-17.18,7.08,0.37,4,0
18650.453,0.362,0.269,0.884,-16.21,7.54,-0.95,4,0
18650.468,0.404,0.237,0.837,-13.31,8.7,-3.85,4,0
18650.484,0.409,0.267,0.87,-9.13,12.45,-8.51,4,0
18650.484,0.375,0.272,0.885,-4.67,15.02,-13.73,4,0
18650.5,0.362,0.285,0.923,-2.29,14.37,-18.4,4,0
18650.515,0.335,0.307,0.935,2.01,12.09,-22.1,4,0
18650.515,0.319,0.334,0.924,5.58,8.58,-23.01,4,0
18650.531,0.313,0.347,0.899,7.05,5.49,-22.34,4,0
18650.546,0.313,0.358,0.884,6.04,2.96,-21.03,4,0
18650.546,0.324,0.363,0.865,3.51,1.28,-17.67,4,0
18650.562,0.339,0.368,0.861,2.93,2.47,-16.72,4,0
18650.562,0.337,0.374,0.865,2.69,3.36,-15.78,4,0
18650.578,0.309,0.373,0.872,1.28,2.81,-14.83,4,0
18650.593,0.311,0.363,0.874,-0.95,1.1,-14.01,4,0
18650.593,0.314,0.349,0.879,-2.78,-0.52,-13.89,4,0
18650.609,0.316,0.342,0.885,-3.48,-1.5,-14.13,4,0
18650.609,0.313,0.344,0.888,-3.11,-1.98,-13.86,4,0
18650.625,0.323,0.334,0.883,-1.98,-2.5,-13.09,4,0
18650.64,0.327,0.332,0.874,-0.92,-2.17,-13.12,4,0
18650.656,0.322,0.342,0.881,0.43,-1.07,-13.12,4,0
18650.656,0.309,0.354,0.888,1.83,-0.52,-12.85,4,0
18650.671,0.302,0.368,0.887,2.44,-1.16,-11.9,4,0
18650.671,0.302,0.373,0.885,2.84,-1.89,-10.32,4,0
18650.687,0.3,0.372,0.881,3.23,-2.47,-8.67,4,0
18650.703,0.306,0.369,0.873,3.23,-3.14,-6.93,4,0
18650.703,0.317,0.365,0.868,2.9,-3.48,-5.25,4,0
18650.718,0.326,0.362,0.865,2.35,-2.96,-4.55,4,0
18650.734,0.327,0.357,0.868,1.77,-2.35,-4.67,4,0
18650.734,0.327,0.352,0.865,1.43,-1.89,-4.94,4,0
18650.75,0.336,0.35,0.87,1.25,-1.56,-5.07,4,0
18650.765,0.331,0.35,0.875,1.83,-1.04,-5.71,4,0
18650.765,0.325,0.347,0.88,2.9,-0.67,-6.16,4,0
18650.781,0.324,0.353,0.883,4.0,-0.58,-6.26,4,0
18650.796,0.315,0.359,0.886,5.43,-0.61,-6.13,4,0
18650.796,0.307,0.365,0.886,6.87,-0.76,-5.65,4,0
18650.812,0.302,0.361,0.881,7.81,-1.22,-4.88,4,0
18650.812,0.301,0.367,0.868,7.97,-1.68,-3.88,4,0
18650.828,0.31,0.378,0.863,7.17,-1.56,-3.02,4,0
18650.843,0.313,0.383,0.855,6.41,-0.67,-1.95,4,0
18650.843,0.313,0.385,0.848,5.4,0.34,-0.76,4,0
18650.859,0.315,0.383,0.852,3.75,1.13,0.15,4,0
18650.875,0.314,0.376,0.866,2.38,1.43,0.52,4,0
18650.89,0.314,0.367,0.877,1.98,1.28,0.7,4,0
18650.89,0.317,0.359,0.89,3.17,0.92,1.01,4,0
18650.89,0.314,0.359,0.89,5.13,0.58,0.92,4,0
18650.906,0.314,0.355,0.879,7.17,0.15,0.89,4,0
18650.921,0.334,0.371,0.857,8.03,0.7,0.12,4,0
18650.937,0.324,0.379,0.853,8.03,2.38,-0.31,4,0
18650.953,0.319,0.382,0.853,7.39,3.85,-0.24,4,0
18650.953,0.314,0.38,0.855,5.4,4.15,-0.37,4,0
18650.968,0.316,0.382,0.866,3.3,3.85,-0.89,4,0
18650.968,0.311,0.383,0.872,2.23,3.39,-1.43,4,0
18650.984,0.311,0.381,0.87,1.86,2.96,-1.43,4,0
18651.0,0.312,0.377,0.871,1.92,2.87,-1.22,4,0
18651.015,0.307,0.372,0.872,2.62,2.96,-1.13,4,0
18651.015,0.303,0.372,0.866,3.6,3.17,-0.67,4,0
18651.031,0.3,0.375,0.855,3.94,3.17,-0.34,4,0
18651.031,0.302,0.382,0.857,3.14,3.11,0.34,4,0
18651.046,0.306,0.388,0.865,2.78,3.2,1.13,4,0
18651.062,0.308,0.389,0.867,2.99,3.51,1.86,4,0
18651.062,0.309,0.376,0.868,3.48,3.6,1.89,4,0
18651.078,0.309,0.376,0.87,4.06,3.54,1.5,4,0
18651.109,0.308,0.377,0.867,5.77,2.72,0.67,4,0
18651.109,0.305,0.384,0.86,5.68,2.44,0.37,4,0
18651.109,0.304,0.403,0.861,4.82,1.86,0.46,4,0
18651.125,0.309,0.405,0.865,3.33,1.25,0.67,4,0
18651.14,0.309,0.397,0.877,2.01,0.34,0.37,4,0
18651.14,0.302,0.38,0.891,2.11,-0.92,-0.24,4,0
18651.156,0.306,0.366,0.895,4.27,-2.17,-0.24,4,0
18651.171,0.31,0.356,0.896,7.08,-3.02,-0.55,4,0
18651.171,0.303,0.36,0.887,9.25,-3.6,-1.83,4,0
18651.187,0.306,0.369,0.862,10.77,-3.88,-2.66,4,0
18651.203,0.314,0.384,0.827,11.14,-2.87,-3.05,4,0
18651.203,0.331,0.41,0.82,7.81,-0.4,-3.69,4,0
18651.218,0.33,0.42,0.838,3.66,2.23,-5.1,4,0
18651.234,0.318,0.402,0.846,1.13,3.69,-6.96,4,0
18651.234,0.328,0.388,0.841,-1.95,3.94,-8.97,4,0
18651.25,0.314,0.383,0.867,-4.27,5.1,-11.32,4,0
18651.25,0.3,0.374,0.888,-3.6,4.36,-12.36,4,0
18651.265,0.316,0.372,0.879,-0.89,2.62,-12.7,4,0
18651.281,0.321,0.374,0.887,2.14,2.41,-13.92,4,0
18651.281,0.297,0.376,0.9,5.74,2.32,-15.66,4,0
18651.296,0.281,0.363,0.904,9.34,0.61,-16.57,4,0
18651.312,0.276,0.385,0.876,12.51,-1.22,-15.9,4,0
18651.312,0.286,0.384,0.858,17.3,-0.55,-13.73,4,0
18651.328,0.255,0.401,0.837,21.52,1.68,-12.33,4,0
18651.343,0.253,0.459,0.821,19.14,2.87,-9.37,4,0
18651.343,0.241,0.484,0.808,14.89,4.33,-5.58,4,0
18651.359,0.23,0.501,0.798,8.82,5.58,-0.95,4,0
18651.359,0.259,0.503,0.795,1.62,5.31,4.12,4,0
18651.375,0.279,0.48,0.812,-5.1,5.65,7.63,4,0
18651.39,0.281,0.441,0.86,-9.37,5.74,9.64,4,0
18651.39,0.277,0.393,0.95,-9.86,3.27,9.58,4,0
18651.406,0.265,0.375,0.913,-7.29,-2.14,7.9,4,0
18651.421,0.308,0.36,0.885,-6.59,-6.16,6.35,4,0
18651.437,0.334,0.365,0.882,-4.0,-5.95,2.87,4,0
18651.437,0.35,0.395,0.933,-1.5,-5.74,-2.32,4,0
18651.453,0.343,0.375,0.891,3.39,-6.78,-8.42,4,0
18651.453,0.351,0.348,0.87,7.11,-6.16,-13.31,4,0
18651.468,0.31,0.352,0.863,12.48,-3.54,-16.05,4,0
18651.484,0.306,0.361,0.834,12.94,-3.23,-15.44,4,0
18651.484,0.28,0.377,0.807,12.94,-0.64,-17.12,4,0
18651.5,0.248,0.414,0.798,15.08,2.84,-15.75,4,0
18651.5,0.211,0.517,0.801,16.66,6.53,-9.49,4,0
18651.515,0.176,0.584,0.792,15.05,9.03,0.37,4,0
18651.531,0.146,0.603,0.817,-5.13,5.89,20.97,4,0
18651.546,0.16,0.577,0.818,-17.43,0.64,28.5,4,0
18651.546,0.222,0.486,0.842,-21.15,-2.87,30.52,4,0
18651.562,0.316,0.34,0.834,-18.92,-1.71,25.82,4,0
18651.562,0.35,0.29,0.911,-10.8,-0.61,19.78,4,0
18651.578,0.369,0.323,0.867,-4.43,-0.06,14.34,4,0
18651.593,0.371,0.348,0.831,-1.1,1.98,9.55,4,0
18651.593,0.352,0.359,0.848,1.01,4.67,4.76,4,0
18651.609,0.309,0.386,0.887,3.57,5.98,1.07,4,0
18651.609,0.279,0.409,0.914,5.22,3.42,-0.73,4,0
18651.625,0.277,0.416,0.917,6.38,-1.62,-1.34,4,0
18651.64,0.28,0.419,0.889,8.21,-5.8,-1.83,4,0
18651.64,0.279,0.429,0.864,8.76,-8.3,-1.98,4,0
18651.656,0.283,0.439,0.861,7.84,-10.01,-1.59,4,0
18651.671,0.277,0.454,0.849,6.53,-11.6,-0.89,4,0
18651.671,0.269,0.467,0.843,3.23,-12.97,0.12,4,0
18651.687,0.272,0.473,0.833,-1.65,-14.86,1.92,4,0
18651.703,0.296,0.45,0.821,-6.01,-16.08,3.85,4,0
18651.703,0.304,0.435,0.842,-9.8,-14.77,4.79,4,0
18651.718,0.289,0.413,0.859,-10.53,-13.28,5.37,4,0
18651.734,0.291,0.379,0.864,-9.98,-13.58,6.13,4,0
18651.734,0.307,0.376,0.881,-9.03,-14.19,5.98,4,0
18651.75,0.313,0.375,0.892,-5.31,-14.59,4.97,4,0
18651.765,0.301,0.376,0.925,-0.18,-15.59,4.21,4,0
18651.765,0.283,0.365,0.896,4.61,-18.25,3.48,4,0
18651.781,0.308,0.383,0.878,6.29,-21.12,3.48,4,0
18651.781,0.317,0.416,0.856,8.45,-21.67,3.75,4,0
18651.796,0.32,0.435,0.838,8.73,-21.36,5.01,4,0
18651.812,0.323,0.441,0.82,7.35,-20.87,6.65,4,0
18651.812,0.331,0.445,0.817,4.43,-20.05,8.33,4,0
18651.828,0.335,0.445,0.823,1.53,-19.26,9.67,4,0
18651.843,0.338,0.433,0.823,-0.73,-18.74,10.8,4,0
18651.843,0.335,0.415,0.824,-2.99,-18.4,11.41,4,0
18651.859,0.341,0.407,0.829,-5.65,-18.52,11.32,4,0
18651.875,0.355,0.4,0.832,-7.23,-18.49,10.96,4,0
18651.875,0.368,0.381,0.827,-6.93,-17.52,10.53,4,0
18651.89,0.383,0.375,0.814,-5.31,-15.44,9.89,4,0
18651.89,0.393,0.368,0.8,-3.78,-12.05,8.94,4,0
18651.906,0.398,0.355,0.797,-3.05,-8.33,6.68,4,0
18651.921,0.39,0.357,0.806,-2.5,-4.18,3.97,4,0
18651.921,0.375,0.369,0.806,-2.69,-0.34,1.92,4,0
18651.937,0.352,0.406,0.805,-3.69,3.48,0.95,4,0
18651.953,0.267,0.452,0.899,-6.29,3.85,6.65,4,0
18651.968,0.278,0.471,0.993,-4.61,-2.47,13.73,4,0
18651.984,0.301,0.445,0.969,3.45,-11.69,20.02,4,0
18651.984,0.324,0.378,0.861,8.61,-19.65,24.08,4,0
18652.0,0.391,0.35,0.783,7.35,-21.3,26.06,4,0
18652.015,0.455,0.321,0.746,4.79,-16.69,23.93,4,0
18652.015,0.487,0.306,0.744,2.9,-9.7,17.4,4,0
18652.031,0.508,0.312,0.757,2.62,-2.11,9.58,4,0
18652.031,0.509,0.336,0.772,4.61,5.04,1.46,4,0
18652.046,0.458,0.36,0.774,7.14,12.09,-5.74,4,0
18652.062,0.409,0.386,0.777,6.5,17.3,-9.8,4,0
18652.078,0.38,0.416,0.797,3.33,20.17,-11.47,4,0
18652.078,0.342,0.45,0.838,0.34,21.55,-11.35,4,0
18652.093,0.302,0.461,0.875,-1.28,19.99,-8.67,4,0
18652.093,0.286,0.445,0.89,-2.87,15.11,-4.03,4,0
18652.109,0.303,0.419,0.871,-4.76,9.4,0.31,4,0
18652.125,0.382,0.361,0.824,-7.93,4.97,2.23,4,0
18652.14,0.407,0.34,0.804,-8.24,6.93,-0.55,4,0
18652.14,0.427,0.328,0.793,-9.09,10.83,-5.1,4,0
18652.156,0.431,0.326,0.773,-9.67,15.99,-10.93,4,0
18652.171,0.416,0.334,0.768,-10.44,22.31,-16.72,4,0
18652.187,0.388,0.36,0.813,-10.8,28.08,-21.58,4,0
18652.187,0.307,0.403,0.931,-8.91,30.21,-24.26,4,0
18652.203,0.209,0.433,1.041,-3.54,23.41,-22.06,4,0
18652.203,0.214,0.403,1.0,1.65,8.85,-17.06,4,0
18652.218,0.259,0.405,0.882,2.14,-1.04,-14.07,4,0
18652.234,0.296,0.416,0.815,0.24,-3.02,-10.41,4,0
18652.234,0.341,0.415,0.782,-2.29,0.18,-6.35,4,0
18652.25,0.358,0.417,0.807,-5.49,6.13,-4.36,4,0
18652.25,0.339,0.397,0.862,-7.51,10.32,-4.91,4,0
18652.265,0.317,0.37,0.867,-6.68,10.86,-6.1,4,0
18652.281,0.341,0.369,0.842,-6.35,10.47,-7.14,4,0
18652.296,0.294,0.402,0.873,-3.97,10.44,-8.24,4,0
18652.312,0.286,0.407,0.877,-4.58,7.87,-7.48,4,0
18652.312,0.282,0.411,0.883,-5.13,5.1,-6.32,4,0
18652.328,0.281,0.41,0.875,-5.34,2.69,-4.3,4,0
18652.343,0.285,0.396,0.86,-6.2,1.31,-2.53,4,0
18652.343,0.298,0.393,0.855,-7.66,0.34,-1.07,4,0
18652.359,0.316,0.389,0.855,-8.51,0.58,-0.27,4,0
18652.359,0.324,0.378,0.858,-8.45,1.77,-0.24,4,0
18652.375,0.32,0.376,0.862,-7.81,3.27,-0.61,4,0
18652.39,0.312,0.364,0.865,-6.74,4.39,-1.1,4,0
18652.39,0.306,0.358,0.876,-5.68,4.76,-1.37,4,0
18652.406,0.302,0.369,0.89,-4.7,4.3,-1.68,4,0
18652.421,0.294,0.381,0.891,-3.57,2.81,-1.68,4,0
18652.421,0.292,0.386,0.877,-3.33,0.82,-1.4,4,0
18652.437,0.294,0.392,0.861,-4.52,-0.79,-1.16,4,0
18652.453,0.299,0.397,0.859,-6.41,-1.71,-0.49,4,0
18652.468,0.297,0.388,0.864,-7.75,-1.83,1.95,4,0
18652.484,0.296,0.381,0.865,-8.09,-1.86,3.42,4,0
18652.484,0.299,0.374,0.882,-7.69,-1.98,4.64,4,0
18652.5,0.286,0.378,0.907,-6.1,-2.38,5.65,4,0
18652.515,0.274,0.385,0.9,-4.49,-4.36,7.32,4,0
18652.515,0.287,0.38,0.879,-6.23,-8.76,10.35,4,0
18652.531,0.303,0.389,0.873,-7.23,-9.22,10.8,4,0
18652.531,0.306,0.377,0.871,-7.69,-9.7,11.26,4,0
18652.546,0.31,0.368,0.89,-6.93,-9.95,11.9,4,0
18652.562,0.307,0.356,0.893,-5.71,-10.59,12.27,4,0
18652.578,0.303,0.33,0.894,-4.88,-11.9,12.09,4,0
18652.578,0.315,0.329,0.898,-3.6,-13.58,11.78,4,0
18652.593,0.315,0.326,0.921,-1.43,-15.29,11.02,4,0
18652.593,0.299,0.3,0.913,0.92,-18.13,9.74,4,0
18652.609,0.337,0.309,0.894,2.72,-21.3,9.13,4,0
18652.625,0.369,0.331,0.862,5.83,-21.33,8.03,4,0
18652.64,0.381,0.35,0.844,9.77,-16.54,4.12,4,0
18652.64,0.37,0.351,0.848,12.42,-12.63,3.17,4,0
18652.656,0.353,0.354,0.841,14.13,-9.43,2.84,4,0
18652.671,0.343,0.364,0.837,13.34,-7.57,2.87,4,0
18652.687,0.341,0.381,0.836,11.11,-6.53,2.75,4,0
18652.687,0.324,0.403,0.868,7.93,-6.32,3.14,4,0
18652.703,0.274,0.421,0.893,6.99,-8.64,5.95,4,0
18652.703,0.302,0.412,0.818,4.55,-11.81,11.72,4,0
18652.718,0.364,0.409,0.771,-3.05,-10.77,14.68,4,0
18652.734,0.38,0.389,0.772,-8.51,-6.38,15.11,4,0
18652.734,0.378,0.377,0.786,-11.9,-1.8,14.47,4,0
18652.75,0.361,0.399,0.837,-15.14,0.7,13.7,4,0
18652.765,0.328,0.369,0.91,-17.76,-1.01,13.7,4,0
18652.765,0.353,0.293,0.963,-16.97,-7.6,13.79,4,0
18652.781,0.387,0.256,0.945,-11.75,-13.12,10.65,4,0
18652.781,0.375,0.231,0.904,-5.62,-15.05,5.22,4,0
18652.796,0.38,0.249,0.884,0.27,-15.44,2.38,4,0
18652.812,0.401,0.286,0.867,3.66,-14.98,-0.06,4,0
18652.812,0.406,0.326,0.855,5.37,-13.55,-3.66,4,0
18652.828,0.39,0.364,0.837,5.68,-11.99,-6.38,4,0
18652.843,0.376,0.389,0.825,4.21,-10.68,-6.84,4,0
18652.843,0.377,0.399,0.823,1.74,-9.83,-5.55,4,0
18652.859,0.38,0.393,0.822,-1.1,-8.51,-3.63,4,0
18652.859,0.386,0.373,0.824,-3.36,-6.59,-2.14,4,0
18652.875,0.399,0.347,0.825,-4.52,-4.43,-1.07,4,0
18652.89,0.412,0.317,0.828,-4.94,-2.08,-1.43,4,0
18652.89,0.428,0.299,0.833,-4.15,0.18,-3.6,4,0
18652.906,0.428,0.3,0.848,-2.75,2.41,-7.17,4,0
18652.921,0.411,0.325,0.883,-0.09,3.17,-10.53,4,0
18652.921,0.383,0.341,0.887,3.42,1.74,-12.51,4,0
18652.937,0.367,0.353,0.867,5.01,-0.52,-12.57,4,0
18652.953,0.363,0.371,0.857,5.16,-2.29,-11.6,4,0
18652.953,0.363,0.378,0.858,4.58,-3.85,-10.28,4,0
18652.968,0.364,0.385,0.844,3.78,-5.37,-9.31,4,0
18652.984,0.37,0.395,0.815,2.47,-5.28,-8.06,4,0
18652.984,0.374,0.399,0.802,0.98,-3.36,-6.26,4,0
18653.0,0.348,0.406,0.798,-1.4,0.37,-4.12,4,0
18653.0,0.348,0.368,0.864,-4.46,2.04,-0.64,4,0
18653.015,0.381,0.319,0.89,-6.29,-0.46,-0.18,4,0
18653.031,0.382,0.299,0.878,-6.41,-1.19,-3.69,4,0
18653.031,0.366,0.291,0.884,-3.97,-1.34,-6.56,4,0
18653.046,0.387,0.297,0.858,-0.18,-1.04,-7.42,4,0
18653.062,0.397,0.337,0.817,2.26,3.36,-8.76,4,0
18653.062,0.363,0.358,0.818,3.66,9.83,-9.19,4,0
18653.078,0.337,0.372,0.828,2.2,13.76,-7.84,4,0
18653.093,0.317,0.391,0.849,-1.28,15.14,-5.89,4,0
18653.093,0.319,0.4,0.859,-4.73,14.13,-3.2,4,0
18653.109,0.334,0.381,0.841,-7.45,12.82,-0.73,4,0
18653.109,0.368,0.36,0.819,-11.35,12.67,-0.09,4,0
18653.125,0.408,0.342,0.821,-15.41,14.74,-1.5,4,0
18653.14,0.409,0.328,0.845,-16.11,18.8,-4.49,4,0
18653.14,0.394,0.314,0.871,-13.58,21.79,-7.23,4,0
18653.156,0.387,0.302,0.881,-9.77,22.37,-9.7,4,0
18653.171,0.382,0.304,0.881,-6.07,21.7,-12.67,4,0
18653.171,0.37,0.317,0.877,-3.54,20.39,-15.44,4,0
18653.187,0.358,0.338,0.873,-1.98,18.68,-17.64,4,0
18653.203,0.342,0.361,0.858,-1.19,16.69,-18.92,4,0
18653.218,0.335,0.382,0.834,-2.56,15.35,-18.89,4,0
18653.218,0.329,0.394,0.829,-5.71,15.44,-18.19,4,0
18653.234,0.312,0.392,0.852,-7.81,16.94,-16.54,4,0
18653.234,0.299,0.397,0.869,-7.72,18.56,-12.7,4,0
18653.25,0.294,0.376,0.889,-7.11,20.36,-9.0,4,0
18653.265,0.27,0.343,0.903,-7.17,21.33,-7.54,4,0
18653.265,0.252,0.334,0.916,-7.48,20.48,-6.07,4,0
18653.281,0.256,0.328,0.933,-6.96,18.8,-4.27,4,0
18653.281,0.251,0.321,0.945,-5.04,16.6,-3.39,4,0
18653.296,0.254,0.32,0.929,-2.81,13.64,-3.45,4,0
18653.312,0.273,0.322,0.907,-1.86,11.23,-4.03,4,0
18653.328,0.282,0.336,0.901,-0.55,11.11,-4.91,4,0
18653.328,0.279,0.352,0.892,1.59,11.75,-4.91,4,0
18653.343,0.281,0.358,0.89,2.32,11.66,-4.49,4,0
18653.343,0.286,0.357,0.885,2.01,10.9,-4.3,4,0
18653.359,0.303,0.355,0.865,0.31,10.53,-3.97,4,0
18653.375,0.322,0.357,0.876,-1.34,11.81,-4.46,4,0
18653.375,0.312,0.36,0.878,-0.98,13.82,-5.13,4,0
18653.39,0.295,0.359,0.875,-0.34,15.05,-4.88,4,0
18653.39,0.283,0.352,0.886,-0.09,15.5,-4.21,4,0
18653.406,0.267,0.355,0.89,0.0,15.23,-3.48,4,0
18653.421,0.26,0.368,0.877,-0.55,14.71,-1.89,4,0
18653.437,0.265,0.359,0.869,-2.08,14.98,-0.4,4,0
18653.437,0.262,0.346,0.877,-3.72,16.05,0.09,4,0
18653.453,0.247,0.344,0.893,-5.01,17.3,0.21,4,0
18653.453,0.243,0.331,0.922,-5.98,17.3,0.4,4,0
18653.468,0.241,0.315,0.927,-6.62,15.32,-0.95,4,0
18653.484,0.238,0.314,0.93,-6.35,13.55,-2.44,4,0
18653.484,0.243,0.319,0.913,-4.43,12.48,-2.72,4,0
18653.5,0.26,0.316,0.905,-0.61,13.49,-3.97,4,0
18653.515,0.259,0.328,0.897,0.85,14.47,-4.49,4,0
18653.515,0.258,0.339,0.895,1.16,14.62,-5.25,4,0
18653.531,0.258,0.344,0.909,1.92,14.01,-6.01,4,0
18653.531,0.24,0.371,0.902,2.35,13.06,-5.37,4,0
18653.546,0.244,0.358,0.897,1.31,11.75,-5.28,4,0
18653.562,0.233,0.348,0.877,-0.31,10.83,-6.53,4,0
18653.562,0.229,0.356,0.864,-3.3,11.57,-6.38,4,0
18653.578,0.229,0.358,0.894,-5.13,13.31,-5.04,4,0
18653.593,0.22,0.36,0.922,-4.7,13.82,-4.36,4,0
18653.593,0.208,0.363,0.926,-4.79,12.94,-4.03,4,0
18653.609,0.194,0.351,0.917,-5.98,12.05,-3.54,4,0
18653.609,0.19,0.333,0.91,-7.42,11.32,-2.56,4,0
18653.625,0.198,0.314,0.908,-8.55,11.32,-2.41,4,0
18653.64,0.202,0.303,0.936,-8.42,12.21,-3.42,4,0
18653.64,0.186,0.302,0.949,-5.98,12.12,-4.06,4,0
18653.656,0.188,0.303,0.949,-3.08,10.59,-3.54,4,0
18653.671,0.201,0.305,0.945,-0.31,9.28,-3.3,4,0
18653.671,0.204,0.314,0.939,3.08,8.94,-2.87,4,0
18653.687,0.201,0.336,0.934,6.59,9.0,-1.86,4,0
18653.703,0.198,0.363,0.93,9.22,8.85,-0.31,4,0
18653.703,0.124,0.44,0.963,12.24,9.16,2.23,4,0
18653.718,0.067,0.506,0.993,15.72,5.37,9.13,4,0
18653.734,0.03,0.534,1.032,12.18,-7.57,18.01,4,0
18653.734,-0.059,0.524,1.108,3.75,-31.37,30.43,4,0
18653.75,-0.188,0.515,1.368,3.33,-66.47,49.65,4,0
18653.75,-0.003,0.351,1.221,19.99,-108.89,76.78,4,0
18653.765,0.312,0.203,0.917,19.29,-132.79,84.75,4,0
18653.781,0.5,0.086,0.699,20.48,-121.49,67.35,4,0
18653.781,0.515,0.058,0.616,26.12,-89.51,46.05,4,0
18653.796,0.478,0.125,0.669,27.8,-57.59,29.97,4,0
18653.812,0.484,0.231,0.741,29.33,-38.79,22.25,4,0
18653.812,0.487,0.347,0.72,31.95,-25.36,17.24,4,0
18653.828,0.459,0.425,0.687,28.84,-12.48,11.9,4,0
18653.843,0.442,0.456,0.662,17.91,-2.5,8.12,4,0
18653.843,0.45,0.458,0.664,3.78,9.7,5.95,4,0
18653.859,0.453,0.428,0.643,-7.05,25.61,2.84,4,0
18653.875,0.16,0.464,0.931,-15.96,39.43,3.6,4,0
18653.875,0.313,0.242,1.199,-8.33,20.6,18.52,4,0
18653.89,0.412,0.194,0.996,-1.74,0.18,8.7,4,0
18653.89,0.322,0.196,0.9,5.25,-2.93,-10.93,4,0
18653.906,0.362,0.256,0.862,11.72,-4.3,-15.38,4,0
18653.921,0.343,0.31,0.921,13.4,-2.26,-20.05,4,0
18653.921,0.296,0.349,0.937,20.45,-3.48,-23.01,4,0
18653.937,0.281,0.372,0.896,25.18,-4.76,-23.41,4,0
18653.953,0.232,0.412,0.869,29.85,-1.5,-21.64,4,0
18653.968,0.188,0.447,0.825,32.11,2.17,-14.86,4,0
18653.968,0.181,0.457,0.775,27.99,2.75,-6.99,4,0
18653.984,0.246,0.475,0.792,17.52,-0.03,-0.37,4,0
18653.984,0.3,0.481,0.822,5.89,-2.41,2.11,4,0
18654.0,0.325,0.448,0.81,-3.11,-2.41,3.11,4,0
18654.015,0.31,0.404,0.846,-7.42,-1.07,4.49,4,0
18654.015,0.339,0.381,0.815,-9.67,0.09,6.99,4,0
18654.031,0.318,0.375,0.857,-13.28,2.35,7.23,4,0
18654.031,0.302,0.349,0.888,-13.92,0.21,7.48,4,0
18654.046,0.332,0.359,0.905,-14.31,-4.85,7.69,4,0
18654.062,0.367,0.377,0.901,-12.18,-8.3,6.47,4,0
18654.062,0.4,0.347,0.884,-8.94,-9.7,3.72,4,0
18654.078,0.405,0.299,0.864,-3.97,-8.79,-1.13,4,0
18654.093,0.384,0.274,0.874,2.32,-5.92,-7.17,4,0
18654.093,0.351,0.283,0.893,9.09,-3.6,-12.36,4,0
18654.109,0.323,0.327,0.899,15.23,-2.29,-15.96,4,0
18654.125,0.304,0.364,0.886,18.07,-2.35,-18.22,4,0
18654.125,0.278,0.412,0.862,17.18,-3.17,-18.43,4,0
18654.14,0.275,0.436,0.846,13.31,-3.88,-15.87,4,0
18654.14,0.271,0.456,0.841,9.28,-3.63,-12.36,4,0
18654.156,0.263,0.462,0.832,5.37,-3.63,-8.0,4,0
18654.171,0.264,0.461,0.829,-0.09,-3.63,-3.51,4,0
18654.171,0.276,0.447,0.833,-5.55,-3.51,0.58,4,0
18654.187,0.295,0.413,0.845,-10.01,-3.45,3.51,4,0
18654.203,0.322,0.381,0.845,-12.09,-2.81,5.43,4,0
18654.218,0.343,0.357,0.871,-11.14,-1.25,5.89,4,0
18654.218,0.345,0.343,0.881,-7.2,-0.09,4.76,4,0
18654.234,0.346,0.335,0.873,-3.11,0.21,2.81,4,0
18654.234,0.347,0.344,0.87,0.31,0.37,0.31,4,0
18654.25,0.338,0.378,0.87,3.02,0.06,-1.83,4,0
18654.265,0.326,0.402,0.848,4.61,-0.37,-2.47,4,0
18654.265,0.314,0.413,0.834,3.85,-0.4,-2.38,4,0
18654.281,0.304,0.421,0.839,0.79,-0.12,-1.5,4,0
18654.281,0.301,0.413,0.848,-2.84,0.03,-0.18,4,0
18654.296,0.304,0.399,0.857,-5.55,0.06,1.16,4,0
18654.312,0.304,0.383,0.868,-6.65,0.31,2.04,4,0
18654.312,0.306,0.364,0.879,-6.87,0.7,2.5,4,0
18654.328,0.31,0.35,0.904,-5.83,0.31,2.59,4,0
18654.343,0.312,0.345,0.902,-2.99,-1.01,1.74,4,0
18654.343,0.319,0.344,0.922,-0.18,-2.69,0.31,4,0
18654.359,0.31,0.356,0.909,3.23,-5.34,-1.5,4,0
18654.375,0.325,0.376,0.853,4.85,-7.57,-2.44,4,0
18654.375,0.336,0.398,0.827,4.52,-7.23,-2.81,4,0
18654.39,0.343,0.438,0.838,1.8,-6.81,-3.3,4,0
18654.39,0.352,0.443,0.827,-2.44,-6.74,-3.81,4,0
18654.406,0.36,0.399,0.822,-5.31,-5.1,-4.52,4,0
18654.421,0.369,0.359,0.819,-6.1,-1.74,-5.16,4,0
18654.437,0.319,0.327,0.896,-2.53,2.32,-6.9,4,0
18654.437,0.318,0.294,0.908,5.8,3.05,-6.16,4,0
18654.453,0.32,0.287,0.912,12.42,3.66,-7.02,4,0
18654.453,0.282,0.321,0.891,20.54,5.8,-10.35,4,0
18654.468,0.262,0.389,0.876,26.06,6.71,-9.89,4,0
18654.484,0.251,0.462,0.873,26.73,5.74,-6.9,4,0
18654.484,0.24,0.497,0.861,20.72,-0.09,4.46,4,0
18654.5,0.242,0.494,0.847,11.81,-4.58,8.51,4,0
18654.515,0.269,0.454,0.824,4.09,-7.78,10.32,4,0
18654.515,0.355,0.376,0.792,-1.25,-7.26,10.53,4,0
18654.531,0.334,0.394,0.814,-3.72,-3.17,8.33,4,0
18654.531,0.341,0.412,0.813,-5.07,-1.77,8.73,4,0
18654.546,0.348,0.408,0.803,-8.15,-1.16,7.72,4,0
18654.562,0.358,0.41,0.819,-11.17,-0.43,6.26,4,0
18654.562,0.354,0.402,0.844,-12.67,0.46,4.58,4,0
18654.578,0.35,0.378,0.872,-12.18,0.52,2.96,4,0
18654.593,0.34,0.359,0.893,-9.43,-0.21,0.95,4,0
18654.593,0.33,0.353,0.889,-5.65,-1.65,-0.79,4,0
18654.609,0.333,0.358,0.876,-2.81,-3.39,-3.17,4,0
18654.625,0.328,0.369,0.866,-0.31,-4.33,-5.37,4,0
18654.625,0.319,0.385,0.866,0.98,-4.39,-6.81,4,0
18654.64,0.317,0.393,0.86,0.67,-4.76,-8.21,4,0
18654.64,0.31,0.393,0.859,-0.31,-5.1,-8.85,4,0
18654.656,0.305,0.391,0.863,-0.67,-4.7,-8.76,4,0
18654.671,0.305,0.386,0.877,0.55,-4.64,-7.78,4,0
18654.671,0.303,0.4,0.88,2.14,-4.85,-6.41,4,0
18654.687,0.302,0.405,0.869,3.14,-4.85,-4.82,4,0
18654.703,0.303,0.396,0.859,2.75,-4.94,-3.78,4,0
18654.703,0.312,0.39,0.855,2.32,-5.16,-3.05,4,0
18654.718,0.321,0.396,0.86,2.23,-5.04,-2.53,4,0
18654.734,0.319,0.409,0.865,2.44,-5.4,-2.41,4,0
18654.734,0.318,0.41,0.86,2.26,-6.93,-2.38,4,0
18654.75,0.317,0.423,0.853,1.07,-9.06,-2.53,4,0
18654.765,0.312,0.439,0.846,-1.37,-11.05,-1.86,4,0
18654.765,0.313,0.433,0.848,-4.06,-12.97,-0.09,4,0
18654.781,0.312,0.416,0.847,-5.58,-14.74,1.68,4,0
18654.781,0.337,0.4,0.836,-7.39,-15.66,3.42,4,0
18654.796,0.367,0.357,0.839,-8.88,-14.16,2.35,4,0
18654.812,0.362,0.333,0.868,-6.9,-10.83,-0.55,4,0
18654.812,0.334,0.344,0.904,-1.53,-8.61,-2.35,4,0
18654.828,0.314,0.367,0.906,3.78,-9.46,-2.99,4,0
18654.843,0.306,0.379,0.886,7.51,-12.27,-2.78,4,0
18654.843,0.305,0.4,0.863,8.51,-14.65,-1.59,4,0
18654.859,0.316,0.425,0.85,7.81,-15.47,0.7,4,0
18654.875,0.321,0.43,0.833,6.44,-15.66,3.08,4,0
18654.875,0.335,0.431,0.809,4.27,-15.35,5.43,4,0
18654.89,0.363,0.427,0.784,2.04,-13.67,7.75,4,0
18654.906,0.39,0.408,0.769,-0.49,-9.77,8.79,4,0
18654.906,0.403,0.394,0.772,-2.96,-4.64,7.87,4,0
18654.921,0.406,0.373,0.799,-4.61,-0.27,5.46,4,0
18654.921,0.396,0.359,0.832,-4.76,2.2,1.89,4,0
18654.937,0.389,0.349,0.852,-3.45,2.9,-1.74,4,0
18654.953,0.382,0.361,0.857,-1.53,2.72,-5.13,4,0
18654.953,0.351,0.381,0.868,0.82,2.23,-7.54,4,0
18654.968,0.336,0.397,0.861,2.9,1.04,-7.72,4,0
18654.984,0.321,0.422,0.857,3.05,0.18,-6.56,4,0
18654.984,0.314,0.434,0.842,2.26,-0.67,-4.27,4,0
18655.0,0.324,0.433,0.823,-0.46,-1.22,-1.59,4,0
18655.0,0.333,0.427,0.82,-3.33,-0.67,0.7,4,0
18655.015,0.338,0.413,0.829,-6.26,0.15,2.29,4,0
18655.031,0.344,0.388,0.841,-8.0,0.64,3.3,4,0
18655.046,0.356,0.367,0.857,-7.72,1.04,3.63,4,0
18655.046,0.363,0.353,0.87,-5.77,1.5,2.59,4,0
18655.062,0.359,0.348,0.869,-2.93,1.86,0.61,4,0
18655.062,0.357,0.355,0.866,0.34,1.83,-1.1,4,0
18655.078,0.351,0.374,0.867,2.96,1.4,-2.66,4,0
18655.093,0.343,0.392,0.857,5.13,0.34,-3.39,4,0
18655.109,0.339,0.406,0.846,5.55,-0.61,-3.57,4,0
18655.109,0.343,0.42,0.834,4.55,-1.5,-2.81,4,0
18655.125,0.345,0.422,0.818,2.87,-1.53,-1.53,4,0
18655.125,0.345,0.425,0.818,0.82,-0.09,0.46,4,0
18655.14,0.353,0.409,0.829,-0.95,1.31,2.04,4,0
18655.14,0.348,0.393,0.834,-1.77,2.59,2.53,4,0
18655.156,0.349,0.387,0.838,-2.01,3.54,2.62,4,0
18655.171,0.347,0.38,0.847,-1.71,3.94,2.04,4,0
18655.171,0.346,0.376,0.861,-1.04,3.85,1.22,4,0
18655.187,0.348,0.377,0.857,0.06,3.88,0.49,4,0
18655.203,0.351,0.38,0.849,1.04,4.43,-0.27,4,0
18655.203,0.352,0.391,0.835,2.14,5.74,-0.76,4,0
18655.218,0.34,0.405,0.837,2.84,7.75,-0.43,4,0
18655.234,0.32,0.41,0.838,2.29,8.45,0.43,4,0
18655.234,0.318,0.411,0.841,0.03,7.39,1.92,4,0
18655.25,0.324,0.413,0.851,-2.32,6.16,3.27,4,0
18655.265,0.326,0.406,0.857,-3.48,5.07,4.06,4,0
18655.265,0.335,0.391,0.855,-3.85,3.85,4.94,4,0
18655.281,0.35,0.379,0.861,-3.72,3.33,5.04,4,0
18655.281,0.349,0.365,0.861,-2.11,3.75,4.21,4,0
18655.296,0.345,0.368,0.862,0.03,4.09,3.42,4,0
18655.312,0.345,0.374,0.861,1.59,4.15,2.84,4,0
18655.312,0.338,0.375,0.862,3.02,4.15,1.89,4,0
18655.328,0.327,0.382,0.862,3.97,3.48,1.1,4,0
18655.343,0.324,0.389,0.856,3.69,2.29,1.04,4,0
18655.343,0.323,0.392,0.852,2.99,1.59,1.07,4,0
18655.359,0.327,0.401,0.847,1.92,1.13,1.13,4,0
18655.359,0.329,0.392,0.846,0.37,0.73,0.89,4,0
18655.375,0.332,0.393,0.853,-1.56,-0.21,-0.03,4,0
18655.39,0.334,0.394,0.842,-2.84,-0.76,-0.64,4,0
18655.39,0.337,0.4,0.844,-3.91,-0.21,-0.49,4,0
18655.406,0.334,0.4,0.85,-4.24,0.7,0.37,4,0
18655.421,0.337,0.388,0.849,-3.94,0.89,1.04,4,0
18655.421,0.336,0.378,0.849,-3.66,0.85,0.85,4,0
18655.437,0.341,0.374,0.856,-3.51,0.7,0.21,4,0
18655.453,0.345,0.369,0.865,-2.56,0.76,-0.92,4,0
18655.453,0.339,0.364,0.871,-0.4,0.46,-2.35,4,0
18655.468,0.329,0.38,0.865,2.01,0.31,-2.56,4,0
18655.484,0.322,0.399,0.848,0.21,0.27,-1.89,4,0
18655.484,0.319,0.409,0.832,-2.04,0.18,-0.79,4,0
18655.5,0.324,0.408,0.834,-4.18,0.27,-0.18,4,0
18655.5,0.328,0.393,0.849,-5.46,0.55,0.12,4,0
18655.515,0.327,0.383,0.85,-6.01,0.89,0.46,4,0
18655.531,0.333,0.373,0.866,-5.77,1.13,0.58,4,0
18655.531,0.33,0.368,0.878,-4.61,1.04,-0.31,4,0
18655.546,0.328,0.358,0.877,-2.99,0.21,-1.46,4,0
18655.562,0.334,0.358,0.876,-1.56,-0.58,-2.41,4,0
18655.562,0.339,0.361,0.873,0.73,-0.98,-3.2,4,0
18655.578,0.334,0.372,0.863,3.2,-0.58,-3.75,4,0
18655.593,0.324,0.396,0.85,4.3,0.18,-3.08,4,0
18655.593,0.318,0.403,0.847,3.27,0.37,-2.38,4,0
18655.609,0.319,0.403,0.848,1.43,-0.12,-1.65,4,0
18655.625,0.329,0.401,0.854,-0.09,-0.46,-0.49,4,0
18655.625,0.331,0.383,0.856,-0.37,-0.15,-0.24,4,0
18655.64,0.328,0.373,0.863,0.0,-0.37,-0.67,4,0
18655.64,0.329,0.369,0.866,0.7,-0.85,-1.07,4,0
18655.656,0.33,0.37,0.866,1.46,-1.46,-2.08,4,0
18655.671,0.333,0.371,0.86,1.77,-2.38,-3.27,4,0
18655.671,0.337,0.37,0.861,2.41,-2.93,-4.7,4,0
18655.687,0.334,0.368,0.869,4.55,-2.59,-5.49,4,0
18655.703,0.323,0.383,0.866,7.63,-1.37,-4.91,4,0
18655.703,0.308,0.393,0.863,9.31,-1.01,-4.12,4,0
18655.718,0.301,0.405,0.856,8.36,-2.41,-3.54,4,0
18655.734,0.309,0.421,0.846,6.38,-3.75,-2.08,4,0
18655.734,0.314,0.435,0.831,4.39,-4.03,-0.09,4,0
18655.75,0.316,0.444,0.822,1.01,-4.09,2.11,4,0
18655.765,0.323,0.433,0.829,-3.36,-4.46,3.69,4,0
18655.765,0.33,0.405,0.839,-6.59,-4.76,4.7,4,0
18655.781,0.338,0.389,0.856,-7.23,-4.27,5.43,4,0
18655.796,0.344,0.369,0.878,-5.71,-3.75,5.34,4,0
18655.796,0.337,0.352,0.876,-3.51,-3.72,3.75,4,0
18655.812,0.335,0.356,0.871,-1.74,-4.33,2.38,4,0
18655.812,0.335,0.369,0.861,-0.09,-4.76,1.28,4,0
18655.828,0.341,0.394,0.85,1.1,-4.36,1.13,4,0
18655.843,0.333,0.407,0.846,1.56,-3.45,1.46,4,0
18655.843,0.323,0.413,0.83,0.09,-3.33,2.2,4,0
18655.859,0.325,0.422,0.823,-3.63,-3.11,3.45,4,0
18655.875,0.328,0.422,0.824,-7.69,-2.75,4.97,4,0
18655.875,0.333,0.415,0.828,-11.44,-2.11,6.47,4,0
18655.89,0.342,0.402,0.848,-14.28,-1.07,7.84,4,0
18655.89,0.344,0.377,0.887,-15.02,-1.01,7.6,4,0
18655.906,0.337,0.344,0.909,-11.66,-2.69,6.71,4,0
18655.921,0.339,0.332,0.912,-5.89,-4.88,6.2,4,0
18655.937,0.343,0.326,0.897,-1.04,-6.74,4.27,4,0
18655.937,0.349,0.329,0.868,1.89,-8.45,1.37,4,0
18655.953,0.361,0.355,0.838,3.3,-8.48,-0.58,4,0
18655.953,0.359,0.377,0.821,4.36,-6.65,-1.65,4,0
18655.968,0.35,0.405,0.833,3.08,-4.73,-1.77,4,0
18655.984,0.329,0.406,0.839,0.67,-4.33,-1.34,4,0
18655.984,0.329,0.406,0.836,-2.9,-5.28,0.27,4,0
18656.0,0.339,0.401,0.843,-6.07,-5.77,1.95,4,0
18656.0,0.349,0.381,0.855,-7.78,-6.16,2.62,4,0
18656.015,0.35,0.349,0.87,-8.06,-6.35,2.32,4,0
18656.031,0.354,0.345,0.885,-5.98,-6.96,1.86,4,0
18656.046,0.361,0.334,0.878,-2.84,-7.39,1.07,4,0
18656.046,0.361,0.338,0.875,0.4,-7.6,-0.43,4,0
18656.062,0.358,0.342,0.871,3.05,-7.84,-1.86,4,0
18656.062,0.35,0.342,0.859,5.71,-7.97,-3.08,4,0
18656.078,0.355,0.363,0.856,6.96,-8.36,-3.78,4,0
18656.093,0.35,0.375,0.854,7.35,-8.36,-4.82,4,0
18656.093,0.347,0.379,0.853,6.53,-8.91,-5.25,4,0
18656.109,0.344,0.382,0.863,6.01,-9.67,-4.85,4,0
18656.109,0.339,0.393,0.867,5.86,-10.74,-3.81,4,0
18656.125,0.337,0.401,0.875,6.07,-12.6,-2.47,4,0
18656.14,0.331,0.413,0.867,6.93,-14.65,-0.43,4,0
18656.156,0.336,0.407,0.865,6.5,-16.72,2.08,4,0
18656.156,0.336,0.391,0.855,5.4,-18.68,3.72,4,0
18656.171,0.352,0.385,0.844,4.36,-20.2,5.34,4,0
18656.171,0.381,0.374,0.832,4.7,-20.05,6.47,4,0
18656.187,0.39,0.364,0.827,6.23,-18.43,6.04,4,0
18656.203,0.4,0.365,0.827,7.29,-16.85,5.16,4,0
18656.203,0.4,0.367,0.837,8.3,-15.47,3.48,4,0
18656.218,0.39,0.379,0.844,9.31,-15.05,2.26,4,0
18656.234,0.387,0.37,0.83,9.61,-15.63,1.74,4,0
18656.234,0.394,0.372,0.819,8.88,-15.96,0.79,4,0
18656.25,0.402,0.374,0.807,8.12,-15.41,-0.52,4,0
18656.265,0.399,0.371,0.802,7.78,-13.67,-2.23,4,0
18656.265,0.389,0.384,0.809,6.81,-11.57,-3.48,4,0
18656.281,0.373,0.4,0.811,4.97,-10.25,-3.72,4,0
18656.281,0.357,0.427,0.831,3.36,-9.95,-1.98,4,0
18656.296,0.349,0.438,0.843,1.86,-11.47,1.07,4,0
18656.312,0.39,0.423,0.807,-0.79,-14.22,4.3,4,0
18656.328,0.417,0.404,0.775,-2.84,-12.97,5.95,4,0
18656.328,0.447,0.376,0.742,-2.44,-8.58,7.29,4,0
18656.343,0.48,0.34,0.721,-3.23,-1.92,6.59,4,0
18656.343,0.482,0.333,0.716,-5.95,7.14,2.11,4,0
18656.359,0.48,0.336,0.746,-7.05,16.36,-2.66,4,0
18656.375,0.459,0.366,0.775,-6.29,24.45,-6.9,4,0
18656.375,0.433,0.382,0.807,-4.94,29.88,-9.86,4,0
18656.39,0.398,0.382,0.853,-3.72,31.74,-11.6,4,0
18656.406,0.39,0.38,0.864,-2.14,30.03,-12.57,4,0
18656.406,0.382,0.372,0.858,-0.58,27.77,-13.58,4,0
18656.421,0.365,0.385,0.858,0.85,26.06,-14.47,4,0
18656.421,0.377,0.369,0.852,2.17,24.45,-14.8,4,0
18656.437,0.37,0.378,0.852,3.54,24.57,-16.63,4,0
18656.453,0.351,0.415,0.875,2.53,23.44,-18.43,4,0
18656.453,0.345,0.407,0.859,4.21,19.84,-18.1,4,0
18656.468,0.327,0.416,0.849,1.86,17.61,-16.91,4,0
18656.484,0.315,0.434,0.863,0.43,14.16,-15.29,4,0
18656.484,0.209,0.468,0.939,-0.98,8.42,-11.66,4,0
18656.5,0.234,0.46,1.01,0.31,-4.61,-3.39,4,0
18656.5,0.27,0.426,0.927,1.16,-18.46,-0.24,4,0
18656.515,0.272,0.419,0.871,0.31,-25.57,1.59,4,0
18656.531,0.305,0.403,0.865,-0.55,-30.03,6.07,4,0
18656.546,0.344,0.388,0.86,-0.15,-32.17,8.21,4,0
18656.546,0.36,0.406,0.859,2.2,-32.72,9.06,4,0
18656.562,0.363,0.398,0.839,4.39,-32.75,9.19,4,0
18656.562,0.371,0.389,0.816,3.97,-33.05,8.45,4,0
18656.578,0.393,0.382,0.79,2.08,-32.23,7.57,4,0
18656.593,0.416,0.377,0.774,0.43,-29.11,6.23,4,0
18656.609,0.427,0.372,0.768,-0.21,-24.32,4.12,4,0
18656.609,0.437,0.375,0.77,-0.55,-18.68,1.95,4,0
18656.609,0.437,0.374,0.788,0.52,-13.31,-0.34,4,0
18656.625,0.423,0.378,0.808,2.29,-8.76,-2.44,4,0
18656.64,0.403,0.388,0.821,4.39,-5.55,-3.81,4,0
18656.64,0.379,0.395,0.82,5.62,-4.15,-4.3,4,0
18656.656,0.345,0.411,0.824,5.25,-3.08,-3.6,4,0
18656.671,0.316,0.451,0.852,3.02,-3.72,-1.1,4,0
18656.671,0.297,0.458,0.884,0.15,-8.7,2.72,4,0
18656.687,0.266,0.483,0.911,-1.98,-15.75,7.78,4,0
18656.703,0.307,0.482,0.883,-2.47,-25.24,16.3,4,0
18656.703,0.412,0.386,0.857,-3.97,-32.87,22.68,4,0
18656.718,0.463,0.305,0.795,-3.42,-33.11,20.2,4,0
18656.734,0.529,0.24,0.712,1.77,-26.37,14.83,4,0
18656.734,0.546,0.251,0.679,7.05,-14.07,6.87,4,0
18656.75,0.549,0.31,0.705,9.7,-0.79,-0.98,4,0
18656.765,0.533,0.357,0.744,11.96,9.67,-8.15,4,0
18656.765,0.514,0.394,0.764,14.77,16.69,-13.25,4,0
18656.781,0.478,0.416,0.768,17.18,21.88,-16.94,4,0
18656.796,0.41,0.433,0.773,17.33,26.12,-19.81,4,0
18656.796,0.339,0.467,0.803,13.18,27.19,-19.65,4,0
18656.812,0.296,0.495,0.859,6.47,23.07,-15.9,4,0
18656.828,0.293,0.492,0.896,1.04,13.73,-10.56,4,0
18656.828,0.313,0.464,0.882,-1.65,3.14,-5.77,4,0
18656.843,0.337,0.438,0.848,-3.14,-3.88,-2.44,4,0
18656.843,0.37,0.411,0.828,-4.46,-7.57,-0.24,4,0
18656.859,0.398,0.392,0.811,-3.94,-8.0,0.55,4,0
18656.875,0.42,0.383,0.801,-1.65,-6.13,0.0,4,0
18656.875,0.424,0.377,0.801,0.79,-3.02,-1.83,4,0
18656.89,0.415,0.378,0.812,2.56,-0.15,-4.24,4,0
18656.89,0.408,0.377,0.82,3.57,1.28,-6.71,4,0
18656.906,0.404,0.385,0.822,4.46,1.46,-9.25,4,0
18656.921,0.396,0.402,0.834,4.97,0.55,-11.47,4,0
18656.921,0.384,0.417,0.842,4.94,-1.43,-13.52,4,0
18656.937,0.369,0.422,0.843,3.97,-4.73,-14.8,4,0
18656.953,0.37,0.42,0.839,2.72,-8.73,-15.5,4,0
18656.953,0.383,0.42,0.826,1.01,-12.18,-16.17,4,0
18656.968,0.391,0.417,0.811,-0.06,-13.92,-17.33,4,0
18656.984,0.396,0.416,0.803,-0.82,-14.4,-18.68,4,0
18656.984,0.403,0.42,0.803,-0.98,-14.16,-19.5,4,0
18657.0,0.405,0.428,0.803,-0.03,-13.15,-19.87,4,0
18657.015,0.402,0.43,0.796,0.64,-12.02,-20.2,4,0
18657.015,0.39,0.428,0.788,0.06,-11.02,-21.03,4,0
18657.031,0.387,0.428,0.789,-1.89,-10.44,-22.03,4,0
18657.046,0.389,0.428,0.792,-3.39,-10.38,-22.92,4,0
18657.046,0.386,0.434,0.797,-4.33,-10.07,-24.02,4,0
18657.062,0.382,0.44,0.805,-4.94,-9.8,-24.87,4,0
18657.062,0.378,0.441,0.81,-5.49,-10.01,-24.99,4,0
18657.078,0.374,0.441,0.819,-6.07,-10.56,-24.66,4,0
18657.093,0.369,0.429,0.828,-6.35,-11.9,-24.17,4,0
18657.109,0.367,0.431,0.831,-6.29,-13.43,-23.65,4,0
18657.109,0.373,0.431,0.834,-6.07,-15.75,-23.35,4,0
18657.125,0.384,0.42,0.831,-6.32,-18.74,-24.26,4,0
18657.125,0.393,0.405,0.829,-6.26,-21.12,-26.61,4,0
18657.14,0.402,0.394,0.827,-6.2,-22.98,-30.09,4,0
18657.156,0.413,0.388,0.827,-5.62,-24.99,-34.73,4,0
18657.156,0.418,0.38,0.827,-4.97,-26.73,-40.41,4,0
18657.171,0.429,0.368,0.832,-4.3,-28.14,-46.82,4,0
18657.171,0.434,0.354,0.841,-2.87,-29.39,-53.9,4,0
18657.187,0.433,0.347,0.851,0.09,-30.85,-61.8,4,0
18657.203,0.433,0.342,0.865,4.64,-33.05,-69.64,4,0
18657.203,0.428,0.339,0.876,10.04,-36.07,-78.25,4,0
18657.218,0.416,0.345,0.872,16.08,-39.92,-87.5,4,0
18657.234,0.4,0.359,0.858,22.64,-44.04,-96.47,4,0
18657.234,0.4,0.378,0.846,26.98,-48.19,-104.86,4,0
18657.25,0.402,0.391,0.85,29.73,-51.61,-114.17,4,0
18657.265,0.406,0.387,0.867,33.45,-55.33,-123.66,4,0
18657.265,0.444,0.403,0.885,40.31,-58.93,-131.6,4,0
18657.281,0.416,0.428,0.899,51.58,-61.92,-140.6,4,0
18657.281,0.352,0.421,0.902,66.1,-67.26,-148.26,4,0
18657.296,0.304,0.431,0.852,81.7,-74.16,-152.56,4,0
18657.312,0.283,0.47,0.788,95.19,-80.26,-152.26,4,0
18657.312,0.287,0.571,0.741,105.2,-83.41,-148.53,4,0
18657.328,0.278,0.691,0.681,110.75,-84.29,-141.67,4,0
18657.343,0.263,0.759,0.605,106.75,-85.54,-130.1,4,0
18657.343,0.28,0.799,0.519,93.36,-85.33,-115.02,4,0
18657.359,0.292,0.855,0.44,72.54,-81.67,-97.6,4,0
18657.375,0.298,0.863,0.361,47.91,-71.99,-83.41,4,0
18657.375,0.33,0.846,0.322,20.81,-60.09,-70.5,4,0
18657.39,0.331,0.828,0.322,-7.02,-45.78,-59.97,4,0
18657.406,0.318,0.788,0.339,-31.71,-31.5,-55.51,4,0
18657.406,0.283,0.759,0.398,-49.01,-19.56,-54.2,4,0
18657.421,0.226,0.727,0.457,-57.07,-12.12,-55.85,4,0
18657.421,0.172,0.7,0.491,-61.62,-10.44,-60.55,4,0
18657.437,0.16,0.701,0.519,-68.39,-13.0,-66.19,4,0
18657.453,0.155,0.715,0.557,-68.48,-10.62,-66.59,4,0
18657.453,0.178,0.754,0.576,-66.5,-6.2,-64.7,4,0
18657.468,0.188,0.783,0.593,-68.09,1.1,-59.6,4,0
18657.484,0.177,0.8,0.639,-75.44,9.86,-52.16,4,0
18657.484,0.147,0.776,0.683,-84.48,16.33,-43.98,4,0
18657.5,0.138,0.731,0.734,-90.03,18.52,-35.04,4,0
18657.515,0.142,0.7,0.769,-90.03,17.98,-25.24,4,0
18657.515,0.159,0.657,0.783,-86.46,16.57,-16.14,4,0
18657.531,0.197,0.628,0.801,-81.12,16.08,-8.15,4,0
18657.546,0.212,0.609,0.802,-71.54,17.88,-2.35,4,0
18657.546,0.208,0.563,0.787,-60.3,20.45,1.83,4,0
18657.562,0.203,0.541,0.799,-54.48,22.25,3.88,4,0
18657.562,0.22,0.521,0.811,-51.12,23.53,4.36,4,0
18657.578,0.223,0.503,0.802,-46.72,25.82,3.78,4,0
18657.593,0.268,0.525,0.792,-41.17,28.81,2.08,4,0
18657.593,0.222,0.515,0.782,-36.68,36.13,-5.58,4,0
18657.609,0.206,0.454,0.796,-36.47,36.65,-6.13,4,0
18657.625,0.259,0.462,0.811,-28.05,38.15,-7.66,4,0
18657.625,0.213,0.478,0.84,-17.76,41.99,-13.34,4,0
18657.64,0.148,0.531,0.918,-17.76,40.56,-17.18,4,0
18657.64,0.099,0.593,0.969,-20.51,31.25,-17.82,4,0
18657.656,0.166,0.53,0.957,-12.27,19.07,-15.17,4,0
18657.671,0.046,0.556,0.972,-1.8,10.13,-13.92,4,0
18657.687,0.084,0.658,0.927,-3.72,-0.55,-9.83,4,0
18657.687,0.134,0.513,0.816,7.45,-9.58,-5.04,4,0
18657.703,0.129,0.459,0.784,12.27,-9.19,-2.53,4,0
18657.703,0.143,0.478,0.769,15.35,-7.78,-1.5,4,0
18657.718,0.138,0.482,0.751,16.91,-5.55,-2.59,4,0
18657.734,0.118,0.511,0.768,16.48,-4.18,-3.94,4,0
18657.75,0.116,0.562,0.796,18.19,-4.58,-3.05,4,0
18657.75,0.107,0.624,0.813,21.27,-5.83,-0.24,4,0
18657.765,0.11,0.641,0.805,21.45,-9.22,3.36,4,0
18657.765,0.128,0.629,0.811,18.71,-13.21,6.47,4,0
18657.781,0.142,0.631,0.807,15.44,-15.9,8.67,4,0
18657.796,0.13,0.65,0.819,12.21,-17.61,10.86,4,0
18657.796,0.161,0.671,0.772,7.69,-20.51,14.34,4,0
18657.812,0.238,0.536,0.713,6.81,-19.84,15.87,4,0
18657.828,0.207,0.53,0.687,5.43,-13.86,13.92,4,0
18657.828,0.24,0.56,0.714,0.12,-8.33,12.54,4,0
18657.843,0.254,0.553,0.725,-3.91,-4.43,9.74,4,0
18657.843,0.265,0.496,0.689,0.09,1.68,7.05,4,0
18657.859,0.243,0.506,0.698,1.25,8.91,1.8,4,0
18657.875,0.225,0.544,0.733,-1.5,13.61,-3.88,4,0
18657.875,0.2,0.545,0.787,-4.39,14.5,-8.55,4,0
18657.89,0.173,0.545,0.845,-7.14,12.63,-12.27,4,0
18657.906,0.154,0.566,0.89,-7.66,8.3,-14.07,4,0
18657.906,0.141,0.604,0.887,-4.64,2.96,-12.67,4,0
18657.921,0.138,0.609,0.852,0.85,-1.95,-9.8,4,0
18657.921,0.139,0.619,0.814,2.78,-5.16,-7.29,4,0
18657.937,0.141,0.629,0.768,1.71,-6.44,-4.7,4,0
18657.953,0.143,0.615,0.738,-1.19,-6.2,-1.43,4,0
18657.953,0.155,0.607,0.737,-6.01,-4.76,1.86,4,0
18657.968,0.171,0.602,0.743,-9.7,-1.98,5.43,4,0
18657.984,0.176,0.6,0.752,-11.02,1.62,8.73,4,0
18657.984,0.176,0.581,0.768,-11.23,4.82,10.07,4,0
18658.0,0.181,0.56,0.774,-11.17,6.44,9.77,4,0
18658.0,0.179,0.557,0.792,-12.6,6.81,8.76,4,0
18658.015,0.177,0.552,0.82,-13.89,5.95,7.29,4,0
18658.031,0.175,0.545,0.849,-13.52,4.21,5.65,4,0
18658.031,0.174,0.539,0.86,-11.57,1.5,4.55,4,0
18658.046,0.175,0.535,0.853,-9.09,-1.28,4.15,4,0
18658.062,0.174,0.528,0.835,-6.5,-3.33,3.81,4,0
18658.062,0.182,0.523,0.819,-4.18,-4.33,3.3,4,0
18658.078,0.181,0.534,0.804,-1.83,-3.85,2.72,4,0
18658.093,0.181,0.547,0.798,-0.52,-3.17,2.66,4,0
18658.093,0.19,0.55,0.788,0.58,-2.26,2.38,4,0
18658.109,0.195,0.561,0.782,0.34,-1.31,2.66,4,0
18658.125,0.199,0.565,0.78,-0.67,0.46,3.05,4,0
18658.125,0.202,0.563,0.777,-1.1,2.26,3.02,4,0
18658.14,0.197,0.558,0.775,-2.44,4.0,2.32,4,0
18658.14,0.188,0.552,0.783,-4.46,5.07,1.19,4,0
18658.156,0.178,0.551,0.792,-6.16,5.46,0.37,4,0
18658.171,0.181,0.551,0.799,-7.29,5.28,0.0,4,0
18658.171,0.179,0.549,0.803,-8.0,5.16,-0.89,4,0
18658.187,0.168,0.546,0.814,-8.51,4.97,-1.86,4,0
18658.203,0.161,0.544,0.831,-8.36,4.15,-1.92,4,0
18658.203,0.15,0.548,0.844,-7.26,3.05,-1.46,4,0
18658.218,0.137,0.556,0.846,-5.8,0.98,-0.18,4,0
18658.234,0.139,0.556,0.839,-4.7,-1.86,1.34,4,0
18658.234,0.146,0.552,0.827,-4.27,-4.21,2.41,4,0
18658.25,0.159,0.549,0.811,-4.61,-5.71,3.45,4,0
18658.265,0.174,0.546,0.797,-5.13,-5.89,4.3,4,0
18658.265,0.181,0.542,0.782,-4.0,-4.43,4.76,4,0
18658.281,0.186,0.545,0.781,-3.94,-2.72,5.31,4,0
18658.281,0.188,0.549,0.794,-6.56,-1.74,4.94,4,0
18658.296,0.191,0.542,0.808,-7.87,-1.13,4.52,4,0
18658.312,0.193,0.532,0.812,-8.0,-0.58,4.7,4,0
18658.312,0.189,0.527,0.83,-7.97,-0.18,4.09,4,0
18658.328,0.171,0.522,0.851,-6.44,-0.7,2.87,4,0
18658.343,0.167,0.523,0.858,-4.64,-3.23,2.44,4,0
18658.343,0.169,0.524,0.851,-3.51,-6.01,2.04,4,0
18658.359,0.171,0.523,0.841,-1.28,-7.97,1.71,4,0
18658.375,0.173,0.529,0.814,0.85,-9.06,2.11,4,0
18658.375,0.178,0.528,0.809,0.73,-8.85,2.47,4,0
18658.39,0.183,0.524,0.801,-0.43,-8.36,2.2,4,0
18658.406,0.197,0.53,0.79,-1.37,-7.08,2.56,4,0
18658.406,0.2,0.524,0.788,-1.89,-5.13,2.32,4,0
18658.421,0.2,0.519,0.784,-1.07,-2.23,1.28,4,0
18658.421,0.198,0.54,0.798,-2.53,0.64,1.34,4,0
18658.437,0.193,0.546,0.824,-3.05,-0.55,1.04,4,0
18658.453,0.181,0.542,0.851,-1.59,-3.3,1.25,4,0
18658.453,0.188,0.517,0.838,0.34,-5.4,1.1,4,0
18658.468,0.188,0.506,0.815,2.2,-6.13,0.67,4,0
18658.484,0.194,0.502,0.808,3.02,-5.92,0.37,4,0
18658.484,0.2,0.509,0.807,3.51,-4.94,-0.7,4,0
18658.5,0.202,0.519,0.805,3.91,-3.97,-1.65,4,0
18658.515,0.202,0.523,0.807,4.24,-2.75,-2.26,4,0
18658.515,0.193,0.532,0.815,4.3,-1.65,-2.72,4,0
18658.531,0.189,0.539,0.82,3.88,-1.98,-2.93,4,0
18658.531,0.187,0.543,0.818,3.75,-2.62,-2.93,4,0
18658.546,0.184,0.546,0.813,3.48,-3.08,-2.66,4,0
18658.562,0.183,0.547,0.81,3.02,-3.3,-2.11,4,0
18658.562,0.182,0.541,0.804,2.72,-3.39,-1.1,4,0
18658.578,0.188,0.54,0.798,2.26,-3.14,-0.24,4,0
18658.593,0.193,0.541,0.798,1.31,-2.62,-0.09,4,0
18658.593,0.195,0.539,0.805,0.55,-2.14,-0.27,4,0
18658.609,0.196,0.538,0.81,0.21,-1.98,-0.52,4,0
18658.625,0.194,0.544,0.816,0.43,-2.2,-0.52,4,0
18658.625,0.187,0.549,0.821,0.64,-2.47,-0.49,4,0
18658.64,0.191,0.542,0.815,0.4,-3.78,-0.43,4,0
18658.64,0.194,0.535,0.81,-0.09,-4.49,-0.55,4,0
18658.656,0.196,0.532,0.807,-0.37,-4.3,-0.7,4,0
18658.671,0.2,0.529,0.808,0.12,-3.69,-0.49,4,0
18658.671,0.197,0.531,0.81,0.92,-2.9,-0.31,4,0
18658.687,0.197,0.53,0.811,1.56,-2.41,-0.4,4,0
18658.703,0.192,0.53,0.811,1.4,-2.32,-0.79,4,0
18658.703,0.189,0.531,0.811,1.1,-2.75,-1.37,4,0
18658.718,0.189,0.541,0.814,0.34,-3.48,-1.98,4,0
18658.734,0.191,0.544,0.816,-0.24,-4.39,-2.32,4,0
18658.734,0.187,0.541,0.814,-0.67,-5.07,-2.29,4,0
18658.75,0.188,0.532,0.824,-2.41,-6.2,-3.23,4,0
18658.765,0.196,0.535,0.814,-0.15,-7.11,-2.69,4,0
18658.765,0.204,0.534,0.799,2.93,-5.98,-1.31,4,0
18658.781,0.199,0.545,0.797,2.96,-4.55,-1.28,4,0
18658.781,0.197,0.55,0.798,2.23,-3.97,-1.07,4,0
18658.796,0.201,0.552,0.798,1.1,-4.06,-0.76,4,0
18658.812,0.199,0.554,0.801,0.12,-3.69,-0.43,4,0
18658.812,0.199,0.552,0.8,-0.85,-3.54,0.18,4,0
18658.828,0.2,0.543,0.797,-1.62,-3.42,0.64,4,0
18658.843,0.203,0.534,0.796,-2.72,-3.02,0.64,4,0
18658.843,0.21,0.53,0.799,-3.69,-2.75,0.09,4,0
18658.859,0.212,0.523,0.8,-3.78,-1.86,-0.79,4,0
18658.859,0.212,0.52,0.807,-3.33,-0.92,-1.77,4,0
18658.875,0.201,0.522,0.822,-2.11,-0.03,-2.53,4,0
18658.89,0.184,0.532,0.843,-0.52,-0.55,-2.84,4,0
18658.89,0.176,0.541,0.848,0.67,-2.66,-2.87,4,0
18658.906,0.174,0.543,0.837,1.19,-5.74,-2.59,4,0
18658.921,0.18,0.547,0.823,1.1,-8.3,-1.98,4,0
18658.937,0.191,0.542,0.803,0.76,-9.55,-1.16,4,0
18658.937,0.198,0.542,0.792,0.49,-9.16,-0.06,4,0
18658.953,0.207,0.545,0.786,0.06,-8.03,0.82,4,0
18658.953,0.217,0.544,0.782,-0.67,-6.53,1.31,4,0
18658.968,0.216,0.538,0.785,-1.5,-4.61,1.19,4,0
18658.984,0.219,0.531,0.794,-1.74,-3.08,1.13,4,0
18658.984,0.223,0.532,0.803,-1.68,-1.8,0.85,4,0
18659.0,0.219,0.521,0.809,-0.4,-0.85,0.37,4,0
18659.0,0.218,0.516,0.811,1.07,-0.12,-0.06,4,0
18659.015,0.216,0.514,0.803,2.11,0.61,-1.16,4,0
18659.031,0.219,0.515,0.801,1.98,1.68,-2.59,4,0
18659.031,0.224,0.522,0.786,2.69,3.3,-3.63,4,0
18659.046,0.232,0.519,0.78,2.78,5.77,-4.7,4,0
18659.062,0.271,0.523,0.76,1.01,9.95,-6.13,4,0
18659.062,0.278,0.515,0.714,1.53,17.98,-8.36,4,0
18659.078,0.195,0.534,0.797,-6.13,25.91,-12.33,4,0
18659.093,0.179,0.603,0.858,-18.68,23.16,-15.02,4,0
18659.093,0.223,0.503,0.794,-9.55,18.86,-13.7,4,0
18659.109,0.106,0.507,0.872,-4.88,19.75,-14.83,4,0
18659.125,0.102,0.622,0.912,-11.6,11.38,-14.59,4,0
18659.125,0.117,0.546,0.857,-2.75,2.53,-11.29,4,0
18659.14,0.11,0.551,0.833,0.21,-0.95,-7.72,4,0
18659.156,0.114,0.587,0.827,1.1,-3.11,-4.15,4,0
18659.156,0.114,0.593,0.818,2.17,-4.85,1.01,4,0
18659.171,0.125,0.598,0.795,-1.16,-6.59,6.35,4,0
18659.171,0.162,0.569,0.772,-7.29,-7.11,9.95,4,0
18659.187,0.154,0.538,0.861,-11.35,-7.45,11.08,4,0
18659.203,0.185,0.495,0.839,-7.42,-10.86,12.6,4,0
18659.203,0.193,0.507,0.819,-5.98,-9.8,12.21,4,0
18659.218,0.179,0.487,0.858,-3.69,-9.09,11.44,4,0
18659.234,0.154,0.47,0.888,-0.7,-11.78,10.44,4,0
18659.234,0.194,0.523,0.879,-0.31,-17.3,9.8,4,0
18659.25,0.231,0.419,0.82,10.07,-19.26,8.51,4,0
18659.265,0.204,0.466,0.819,12.12,-16.85,3.69,4,0
18659.265,0.229,0.507,0.803,13.61,-15.96,1.56,4,0
18659.281,0.226,0.501,0.782,16.02,-13.79,-0.4,4,0
18659.296,0.232,0.545,0.757,14.68,-10.86,-1.46,4,0
18659.296,0.256,0.546,0.738,15.75,-6.68,-1.28,4,0
18659.312,0.252,0.566,0.737,14.89,-1.25,-1.37,4,0
18659.312,0.243,0.576,0.738,12.76,3.42,-0.79,4,0
18659.328,0.23,0.578,0.753,8.36,7.17,-1.31,4,0
18659.343,0.203,0.58,0.783,3.3,8.88,-2.62,4,0
18659.359,0.177,0.578,0.821,-2.04,7.54,-3.72,4,0
18659.359,0.168,0.567,0.842,-5.92,3.85,-3.51,4,0
18659.375,0.166,0.549,0.846,-6.38,0.15,-2.14,4,0
18659.375,0.167,0.534,0.838,-5.19,-2.75,-0.89,4,0
18659.39,0.178,0.524,0.833,-4.76,-4.97,-0.12,4,0
18659.39,0.184,0.52,0.831,-5.07,-6.78,-0.43,4,0
18659.406,0.197,0.518,0.816,1.68,-5.95,1.16,4,0
18659.421,0.209,0.521,0.8,3.66,-3.72,1.62,4,0
18659.421,0.212,0.538,0.789,4.36,-1.43,1.95,4,0
18659.437,0.215,0.546,0.786,3.94,0.21,1.83,4,0
18659.453,0.207,0.54,0.787,2.81,1.4,1.16,4,0
18659.453,0.208,0.547,0.797,0.7,1.74,0.21,4,0
18659.468,0.205,0.553,0.808,-0.61,1.56,-0.55,4,0
18659.484,0.19,0.549,0.818,-0.55,1.37,-0.98,4,0
18659.484,0.177,0.554,0.831,-1.31,-0.24,-0.92,4,0
18659.5,0.183,0.552,0.829,-2.32,-3.27,-0.55,4,0
18659.515,0.194,0.54,0.812,-1.95,-5.04,0.24,4,0
18659.515,0.206,0.53,0.799,-1.16,-4.97,1.07,4,0
18659.531,0.214,0.53,0.794,-0.46,-3.72,1.53,4,0
18659.531,0.22,0.531,0.792,0.15,-2.08,1.4,4,0
18659.546,0.222,0.528,0.792,0.7,-0.49,0.79,4,0
18659.562,0.219,0.524,0.791,0.76,0.98,-0.37,4,0
18659.578,0.218,0.526,0.792,0.7,2.32,-1.59,4,0
18659.578,0.21,0.531,0.798,1.07,3.6,-2.62,4,0
18659.593,0.197,0.536,0.812,1.59,4.33,-3.36,4,0
18659.593,0.182,0.544,0.83,1.07,3.39,-4.09,4,0
18659.609,0.175,0.554,0.835,0.27,0.85,-4.21,4,0
18659.625,0.178,0.558,0.827,0.7,-1.56,-3.23,4,0
18659.625,0.18,0.558,0.814,1.62,-3.05,-1.53,4,0
18659.64,0.184,0.554,0.799,1.56,-3.57,0.06,4,0
18659.656,0.192,0.553,0.789,0.34,-3.42,1.13,4,0
18659.656,0.199,0.549,0.793,-1.07,-2.99,1.83,4,0
18659.671,0.208,0.547,0.796,-1.77,-2.08,2.2,4,0
18659.671,0.21,0.538,0.798,-1.74,-1.19,2.32,4,0
18659.687,0.212,0.528,0.799,-1.65,-0.37,1.92,4,0
18659.703,0.213,0.524,0.8,-1.37,0.34,1.01,4,0
18659.703,0.21,0.524,0.809,-0.95,0.92,-0.31,4,0
18659.718,0.207,0.529,0.811,-0.46,0.98,-1.34,4,0
18659.734,0.207,0.53,0.809,0.27,0.82,-2.2,4,0
18659.734,0.202,0.534,0.807,1.25,1.1,-2.59,4,0
18659.75,0.199,0.541,0.808,1.77,1.16,-2.66,4,0
18659.765,0.197,0.546,0.803,1.89,1.22,-2.69,4,0
18659.765,0.192,0.55,0.806,1.4,1.25,-2.56,4,0
18659.781,0.189,0.549,0.804,0.46,0.82,-2.38,4,0
18659.781,0.192,0.551,0.8,-0.43,0.64,-1.95,4,0
18659.796,0.193,0.551,0.8,-1.07,1.07,-1.1,4,0
18659.812,0.188,0.549,0.806,-1.92,1.28,-0.89,4,0
18659.812,0.184,0.546,0.812,-2.93,0.95,-0.7,4,0
18659.828,0.187,0.542,0.814,-3.63,0.09,-0.46,4,0
18659.843,0.19,0.538,0.813,-3.54,-0.34,0.0,4,0
18659.843,0.192,0.542,0.815,-2.66,-0.21,0.67,4,0
18659.859,0.191,0.536,0.812,-1.8,-0.24,1.13,4,0
18659.875,0.19,0.53,0.812,-1.1,-0.43,1.28,4,0
18659.875,0.192,0.537,0.812,-0.67,-0.82,1.34,4,0
18659.89,0.193,0.545,0.811,-0.15,-1.07,1.28,4,0
18659.906,0.188,0.551,0.808,0.31,-1.19,1.28,4,0
18659.906,0.186,0.559,0.808,0.03,-2.01,1.92,4,0
18659.921,0.193,0.565,0.802,-0.95,-2.59,2.78,4,0
18659.921,0.205,0.577,0.789,-2.81,-2.26,3.78,4,0
18659.937,0.214,0.581,0.781,-5.16,-0.64,4.82,4,0
18659.953,0.219,0.574,0.776,-6.93,2.87,6.1,4,0
18659.953,0.224,0.574,0.769,-7.42,8.27,7.26,4,0
18659.968,0.241,0.572,0.771,-7.11,13.55,9.61,4,0
18659.984,0.282,0.581,0.768,-3.91,21.06,13.89,4,0
18659.984,0.315,0.583,0.772,0.43,32.14,15.9,4,0
18660.0,0.331,0.572,0.757,2.66,41.38,14.98,4,0
18660.015,0.318,0.573,0.749,3.54,51.3,14.47,4,0
18660.015,0.277,0.56,0.753,3.66,60.7,13.18,4,0
18660.031,0.224,0.547,0.772,2.47,66.56,12.33,4,0
18660.031,0.176,0.536,0.81,1.62,68.48,12.39,4,0
18660.046,0.128,0.514,0.864,3.85,64.94,15.32,4,0
18660.062,0.123,0.507,0.897,5.98,57.28,18.65,4,0
18660.062,0.257,0.513,0.976,10.44,43.31,30.12,4,0
18660.078,0.243,0.585,0.953,35.77,24.81,45.81,4,0
18660.093,0.302,0.594,0.84,57.62,28.99,45.69,4,0
18660.093,0.29,0.606,0.741,43.28,28.17,46.05,4,0
18660.109,0.177,0.581,0.791,23.22,29.6,38.0,4,0
18660.125,0.099,0.525,0.833,0.49,20.42,24.14,4,0
18660.125,0.082,0.522,0.868,-21.24,3.75,13.52,4,0
18660.14,0.091,0.488,0.876,-29.21,-11.32,5.19,4,0
18660.14,0.083,0.44,0.855,-26.7,-21.12,-0.98,4,0
18660.156,0.078,0.422,0.839,-20.33,-26.43,-4.79,4,0
18660.171,0.066,0.426,0.822,-13.21,-28.53,-7.72,4,0
18660.171,0.056,0.432,0.808,-9.28,-28.78,-9.95,4,0
18660.187,0.046,0.446,0.812,-9.34,-26.49,-11.81,4,0
18660.203,0.014,0.456,0.832,-11.26,-22.98,-14.28,4,0
18660.203,-0.007,0.472,0.864,-13.67,-20.63,-16.39,4,0
18660.218,-0.028,0.479,0.891,-14.13,-19.81,-18.19,4,0
18660.234,-0.038,0.475,0.902,-12.24,-19.99,-19.2,4,0
18660.234,-0.034,0.49,0.916,-9.46,-20.6,-19.44,4,0
18660.25,-0.025,0.507,0.924,-4.91,-20.51,-19.71,4,0
18660.265,-0.019,0.519,0.912,-0.46,-19.71,-19.53,4,0
18660.265,-0.012,0.53,0.914,3.51,-18.77,-18.4,4,0
18660.281,-0.011,0.557,0.928,6.99,-17.85,-17.0,4,0
18660.296,-0.019,0.582,0.925,8.33,-18.95,-15.75,4,0
18660.296,-0.01,0.589,0.899,6.96,-21.79,-13.89,4,0
18660.312,0.01,0.58,0.867,4.64,-24.29,-11.41,4,0
18660.328,0.038,0.568,0.834,3.2,-25.12,-8.79,4,0
18660.328,0.063,0.555,0.801,3.97,-23.44,-6.26,4,0
18660.343,0.08,0.539,0.769,5.37,-19.96,-3.63,4,0
18660.343,0.106,0.519,0.743,4.67,-16.08,-1.04,4,0
18660.359,0.14,0.497,0.723,2.29,-11.9,0.58,4,0
18660.375,0.163,0.471,0.708,-0.15,-7.39,0.58,4,0
18660.375,0.188,0.464,0.717,-2.2,-2.23,-0.46,4,0
18660.39,0.203,0.48,0.755,-0.82,8.45,-4.94,4,0
18660.406,0.191,0.489,0.794,2.08,10.38,-6.5,4,0
18660.406,0.174,0.5,0.833,3.66,8.64,-7.39,4,0
18660.421,0.17,0.519,0.866,4.58,4.61,-8.18,4,0
18660.421,0.155,0.541,0.911,8.51,-0.52,-8.18,4,0
18660.437,0.165,0.546,0.899,14.13,-5.62,-6.74,4,0
18660.453,0.179,0.57,0.872,19.17,-8.79,-6.07,4,0
18660.453,0.187,0.579,0.848,23.16,-10.28,-7.29,4,0
18660.468,0.172,0.607,0.863,26.34,-10.41,-9.37,4,0
18660.484,0.137,0.631,0.864,31.89,-11.14,-10.44,4,0
18660.484,0.103,0.656,0.86,38.18,-13.12,-9.55,4,0
18660.5,0.065,0.686,0.86,44.53,-16.66,-7.05,4,0
18660.515,0.059,0.706,0.824,50.17,-21.97,-3.42,4,0
18660.515,0.06,0.726,0.787,53.13,-26.76,-0.06,4,0
18660.531,0.064,0.726,0.742,54.2,-30.09,2.35,4,0
18660.546,0.057,0.729,0.72,55.09,-31.65,4.18,4,0
18660.546,0.028,0.726,0.723,58.35,-33.42,6.59,4,0
18660.562,-0.012,0.725,0.749,65.61,-37.75,11.38,4,0
18660.562,-0.059,0.725,0.789,78.13,-46.17,18.43,4,0
18660.578,-0.083,0.703,0.788,95.34,-59.27,28.32,4,0
18660.593,-0.043,0.663,0.706,112.61,-71.81,39.74,4,0
18660.593,0.045,0.664,0.631,125.0,-76.11,48.8,4,0
18660.609,0.121,0.673,0.558,133.52,-74.37,50.6,4,0
18660.625,0.201,0.664,0.463,135.38,-67.96,45.66,4,0
18660.625,0.261,0.688,0.39,125.19,-55.64,36.44,4,0
18660.64,0.277,0.711,0.385,107.0,-41.26,24.81,4,0
18660.656,0.262,0.709,0.416,90.09,-27.22,14.37,4,0
18660.656,0.24,0.714,0.43,77.73,-14.92,9.28,4,0
18660.671,0.228,0.745,0.475,67.96,-5.86,10.16,4,0
18660.671,0.239,0.76,0.503,61.74,0.73,14.28,4,0
18660.687,0.275,0.752,0.49,56.22,6.32,18.8,4,0
18660.703,0.313,0.757,0.489,48.68,12.94,21.76,4,0
18660.718,0.335,0.754,0.498,41.38,20.57,21.79,4,0
18660.718,0.358,0.733,0.512,34.82,27.28,19.29,4,0
18660.734,0.367,0.713,0.522,30.0,33.14,14.37,4,0
18660.734,0.359,0.696,0.536,26.92,38.09,8.33,4,0
18660.75,0.361,0.678,0.556,24.66,40.86,1.68,4,0
18660.765,0.374,0.654,0.537,24.17,42.45,-6.32,4,0
18660.765,0.399,0.629,0.515,24.05,45.08,-16.42,4,0
18660.781,0.419,0.621,0.514,23.68,49.17,-29.63,4,0
18660.796,0.429,0.617,0.517,26.43,54.23,-45.01,4,0
18660.796,0.426,0.634,0.532,32.29,60.21,-61.1,4,0
18660.812,0.417,0.654,0.55,40.62,65.74,-77.18,4,0
18660.812,0.42,0.655,0.551,51.15,70.83,-93.78,4,0
18660.828,0.416,0.666,0.552,64.33,76.82,-111.0,4,0
18660.843,0.388,0.686,0.546,80.45,83.8,-129.12,4,0
18660.843,0.339,0.689,0.517,97.69,91.53,-145.48,4,0
18660.859,0.294,0.722,0.509,114.05,97.81,-157.57,4,0
18660.875,0.212,0.812,0.538,133.34,106.08,-168.8,4,0
18660.875,0.088,0.877,0.556,154.42,110.39,-172.95,4,0
18660.89,-0.019,0.982,0.554,167.64,106.05,-166.72,4,0
18660.906,-0.086,1.104,0.542,168.71,91.28,-151.01,4,0
18660.906,-0.075,1.206,0.517,157.02,69.15,-129.95,4,0
18660.921,-0.02,1.299,0.485,132.02,47.09,-106.81,4,0
18660.937,0.055,1.33,0.448,95.43,31.65,-84.84,4,0
18660.937,0.102,1.306,0.432,52.28,22.25,-64.67,4,0
18660.953,0.132,1.249,0.441,11.47,16.91,-45.41,4,0
18660.968,0.155,1.168,0.467,-20.08,14.37,-27.44,4,0
18660.968,0.169,1.076,0.494,-39.92,12.94,-10.86,4,0
18660.984,0.174,1.005,0.528,-48.19,11.84,3.17,4,0
18660.984,0.168,0.94,0.542,-47.12,9.16,13.43,4,0
18661.0,0.147,0.882,0.547,-40.59,4.03,20.2,4,0
18661.0,0.125,0.821,0.532,-30.88,-2.99,24.11,4,0
18661.015,0.113,0.775,0.517,-20.75,-10.93,24.11,4,0
18661.031,0.099,0.748,0.491,-10.9,-18.25,20.08,4,0
18661.031,0.065,0.741,0.469,-1.01,-24.96,12.6,4,0
18661.046,0.025,0.734,0.445,8.3,-32.11,3.69,4,0
18661.062,-0.007,0.724,0.417,16.54,-39.52,-4.49,4,0
18661.062,-0.035,0.726,0.387,25.24,-45.38,-11.23,4,0
18661.078,-0.068,0.731,0.352,34.06,-49.1,-16.48,4,0
18661.093,-0.11,0.734,0.32,41.51,-51.85,-19.9,4,0
18661.093,-0.144,0.743,0.283,46.51,-53.9,-21.55,4,0
18661.109,-0.167,0.761,0.238,48.04,-54.93,-22.19,4,0
18661.125,-0.187,0.778,0.204,45.32,-54.11,-22.4,4,0
18661.125,-0.206,0.791,0.176,39.83,-51.7,-23.26,4,0
18661.14,-0.225,0.789,0.148,32.44,-48.16,-23.59,4,0
18661.14,-0.232,0.797,0.129,24.11,-43.55,-23.74,4,0
18661.156,-0.235,0.831,0.122,16.14,-37.54,-23.87,4,0
18661.171,-0.235,0.862,0.121,9.31,-30.49,-24.41,4,0
18661.171,-0.24,0.876,0.13,4.21,-22.34,-24.78,4,0
18661.187,-0.248,0.885,0.153,3.05,-13.25,-24.2,4,0
18661.203,-0.259,0.882,0.178,6.74,-4.73,-22.74,4,0
18661.203,-0.263,0.86,0.188,13.86,2.38,-20.66,4,0
18661.218,-0.26,0.832,0.186,21.52,7.84,-19.68,4,0
18661.234,-0.248,0.804,0.189,27.77,11.11,-21.58,4,0
18661.234,-0.235,0.762,0.193,34.0,13.37,-26.31,4,0
18661.25,-0.228,0.718,0.198,41.44,15.5,-32.9,4,0
18661.265,-0.215,0.697,0.205,49.78,17.73,-40.96,4,0
18661.265,-0.208,0.705,0.223,59.24,20.6,-51.33,4,0
18661.281,-0.214,0.714,0.244,71.02,23.47,-63.51,4,0
18661.296,-0.226,0.716,0.262,85.57,25.48,-74.47,4,0
18661.296,-0.235,0.732,0.26,102.05,27.19,-83.25,4,0
18661.312,-0.243,0.748,0.251,118.9,28.2,-91.25,4,0
18661.312,-0.257,0.742,0.236,134.53,28.26,-98.45,4,0
18661.328,-0.273,0.737,0.212,147.68,27.68,-104.71,4,0
18661.343,-0.289,0.741,0.186,157.63,26.03,-110.08,4,0
18661.343,-0.306,0.764,0.163,163.73,23.38,-115.48,4,0
18661.359,-0.325,0.785,0.143,166.26,19.81,-121.52,4,0
18661.375,-0.347,0.792,0.123,165.81,15.38,-126.99,4,0
18661.375,-0.367,0.796,0.104,156.16,6.5,-131.72,4,0
18661.39,-0.384,0.801,0.085,147.43,1.92,-132.02,4,0
18661.406,-0.405,0.805,0.065,136.85,-3.27,-131.08,4,0
18661.406,-0.472,0.835,0.044,126.32,-9.77,-128.94,4,0
18661.421,-0.481,0.851,0.031,115.73,-17.33,-126.26,4,0
18661.437,-0.492,0.87,0.013,105.11,-23.38,-124.24,4,0
18661.437,-0.516,0.867,-0.006,94.64,-28.72,-122.93,4,0
18661.453,-0.527,0.842,-0.02,84.23,-34.12,-120.15,4,0
18661.453,-0.539,0.825,-0.029,75.44,-37.54,-114.99,4,0
18661.468,-0.563,0.824,-0.039,69.06,-39.86,-109.2,4,0
18661.484,-0.592,0.825,-0.05,65.16,-42.54,-103.34,4,0
18661.484,-0.612,0.81,-0.067,62.2,-46.11,-96.16,4,0
18661.5,-0.625,0.814,-0.088,58.08,-49.71,-88.29,4,0
18661.515,-0.629,0.825,-0.11,51.58,-53.32,-82.98,4,0
18661.515,-0.645,0.825,-0.12,43.15,-56.31,-80.05,4,0
18661.531,-0.648,0.803,-0.134,34.09,-58.9,-76.78,4,0
18661.546,-0.633,0.777,-0.149,24.14,-59.82,-71.69,4,0
18661.546,-0.623,0.763,-0.162,12.45,-57.86,-67.11,4,0
18661.562,-0.624,0.746,-0.164,-0.09,-54.29,-64.49,4,0
18661.562,-0.627,0.724,-0.161,-11.75,-49.81,-62.5,4,0
18661.578,-0.645,0.714,-0.147,-21.85,-45.01,-60.18,4,0
18661.593,-0.659,0.698,-0.136,-29.6,-41.44,-57.77,4,0
18661.593,-0.667,0.687,-0.124,-35.71,-38.48,-55.09,4,0
18661.609,-0.69,0.69,-0.1,-40.44,-35.8,-52.03,4,0
18661.625,-0.728,0.693,-0.081,-42.33,-35.16,-49.23,4,0
18661.625,-0.738,0.697,-0.073,-43.12,-37.69,-47.82,4,0
18661.64,-0.745,0.707,-0.058,-45.59,-42.15,-47.3,4,0
18661.656,-0.769,0.72,-0.033,-50.94,-48.46,-47.43,4,0
18661.656,-0.786,0.73,-0.004,-57.68,-57.31,-46.17,4,0
18661.671,-0.791,0.728,0.029,-64.58,-68.54,-42.27,4,0
18661.671,-0.785,0.743,0.071,-71.63,-79.93,-38.0,4,0
18661.687,-0.77,0.755,0.091,-76.11,-88.69,-35.8,4,0
18661.703,-0.736,0.729,0.087,-79.04,-93.66,-35.22,4,0
18661.703,-0.709,0.701,0.085,-80.78,-93.33,-35.16,4,0
18661.718,-0.714,0.683,0.097,-80.42,-89.33,-36.1,4,0
18661.734,-0.74,0.689,0.133,-81.76,-87.31,-37.87,4,0
18661.734,-0.769,0.705,0.193,-85.7,-89.88,-40.71,4,0
18661.75,-0.77,0.696,0.255,-90.4,-97.75,-44.07,4,0
18661.765,-0.759,0.669,0.304,-91.92,-107.64,-46.36,4,0
18661.765,-0.749,0.643,0.32,-86.76,-113.56,-47.06,4,0
18661.781,-0.732,0.631,0.32,-76.17,-114.26,-48.13,4,0
18661.796,-0.724,0.612,0.329,-63.05,-111.42,-50.29,4,0
18661.796,-0.735,0.585,0.343,-52.4,-108.19,-54.57,4,0
18661.812,-0.741,0.574,0.35,-47.76,-106.51,-60.52,4,0
18661.812,-0.743,0.564,0.364,-47.12,-107.33,-67.66,4,0
18661.828,-0.733,0.531,0.375,-46.48,-109.29,-75.66,4,0
18661.843,-0.732,0.489,0.395,-44.13,-110.17,-83.93,4,0
18661.859,-0.731,0.436,0.432,-37.48,-110.69,-92.96,4,0
18661.859,-0.72,0.38,0.449,-24.69,-109.38,-103.09,4,0
18661.875,-0.723,0.339,0.449,-8.03,-104.98,-114.11,4,0
18661.875,-0.729,0.31,0.443,9.77,-100.44,-126.07,4,0
18661.89,-0.727,0.305,0.425,25.64,-95.52,-138.83,4,0
18661.89,-0.716,0.303,0.412,37.84,-88.69,-151.89,4,0
18661.906,-0.727,0.301,0.406,48.92,-79.93,-166.11,4,0
18661.921,-0.786,0.326,0.418,57.41,-70.16,-179.05,4,0
18661.921,-0.86,0.35,0.442,60.15,-65.0,-189.86,4,0
18661.937,-0.928,0.366,0.497,57.04,-67.78,-199.99,4,0
18661.953,-0.987,0.37,0.553,49.17,-79.71,-207.74,4,0
18661.953,-1.019,0.369,0.603,38.58,-95.49,-211.07,4,0
18661.968,-1.027,0.361,0.651,31.07,-110.97,-206.82,4,0
18661.984,-1.03,0.342,0.664,31.34,-122.32,-193.67,4,0
18661.984,-1.039,0.333,0.638,37.54,-127.75,-174.2,4,0
18662.0,-1.05,0.358,0.592,44.16,-131.02,-152.23,4,0
18662.015,-1.049,0.409,0.559,43.61,-133.34,-130.13,4,0
18662.015,-1.037,0.439,0.556,31.98,-135.32,-110.17,4,0
18662.031,-1.035,0.421,0.57,12.79,-137.39,-95.25,4,0
18662.046,-1.058,0.405,0.591,-9.55,-142.28,-84.6,4,0
18662.046,-1.041,0.378,0.607,-30.61,-150.27,-74.65,4,0
18662.062,-0.993,0.334,0.609,-44.65,-157.14,-64.21,4,0
18662.062,-0.932,0.293,0.597,-49.62,-160.59,-53.1,4,0
18662.078,-0.871,0.247,0.567,-45.14,-159.86,-41.41,4,0
18662.093,-0.815,0.214,0.514,-35.43,-153.78,-30.0,4,0
18662.093,-0.769,0.208,0.481,-27.01,-143.5,-19.84,4,0
18662.109,-0.747,0.208,0.494,-23.56,-130.28,-11.99,4,0
18662.125,-0.769,0.191,0.548,-28.75,-120.12,-5.71,4,0
18662.125,-0.769,0.161,0.616,-39.83,-115.27,2.47,4,0
18662.14,-0.751,0.128,0.68,-50.29,-114.02,11.63,4,0
18662.156,-0.703,0.076,0.705,-57.01,-114.23,20.54,4,0
18662.156,-0.639,0.036,0.715,-61.59,-112.67,27.74,4,0
18662.171,-0.586,-0.007,0.702,-58.87,-104.71,33.39,4,0
18662.171,-0.553,-0.036,0.691,-51.12,-89.97,38.15,4,0
18662.187,-0.555,-0.028,0.728,-44.01,-72.24,39.49,4,0
18662.203,-0.598,-0.018,0.799,-39.67,-58.66,36.71,4,0
18662.203,-0.631,-0.012,0.876,-38.12,-54.08,32.96,4,0
18662.218,-0.633,-0.014,0.925,-35.4,-56.83,29.85,4,0
18662.234,-0.604,-0.034,0.918,-30.06,-62.87,28.08,4,0
18662.234,-0.547,-0.035,0.866,-26.98,-68.61,26.76,4,0
18662.25,-0.481,-0.04,0.771,-25.82,-70.53,25.51,4,0
18662.265,-0.421,-0.059,0.693,-25.27,-67.38,23.65,4,0
18662.265,-0.365,-0.069,0.644,-23.87,-60.4,21.15,4,0
18662.281,-0.322,-0.071,0.609,-23.65,-50.23,18.68,4,0
18662.281,-0.299,-0.079,0.61,-24.54,-39.95,15.96,4,0
18662.296,-0.296,-0.062,0.633,-25.42,-31.25,12.97,4,0
18662.312,-0.301,-0.039,0.673,-26.25,-25.94,9.19,4,0
18662.312,-0.304,-0.026,0.704,-25.73,-24.45,5.16,4,0
18662.328,-0.288,-0.009,0.7,-22.98,-24.57,0.31,4,0
18662.343,-0.261,-0.015,0.671,-19.75,-22.28,-5.55,4,0
18662.343,-0.243,-0.016,0.657,-19.29,-15.72,-11.63,4,0
18662.359,-0.266,-0.01,0.682,-17.88,7.26,-24.08,4,0
18662.375,-0.333,0.005,0.76,-17.43,15.93,-28.53,4,0
18662.375,-0.419,0.028,0.831,-16.48,21.55,-31.86,4,0
18662.39,-0.502,0.048,0.895,-15.93,24.6,-34.15,4,0
18662.406,-0.651,0.077,1.04,-15.35,25.36,-36.44,4,0
18662.406,-0.729,0.098,1.108,-13.82,24.11,-37.08,4,0
18662.421,-0.782,0.117,1.145,-10.41,18.68,-35.0,4,0
18662.421,-0.775,0.143,1.131,-4.06,10.16,-30.7,4,0
18662.437,-0.722,0.167,1.061,3.66,3.11,-25.09,4,0
18662.453,-0.638,0.171,0.966,9.8,0.06,-19.23,4,0
18662.453,-0.557,0.175,0.887,13.67,3.02,-13.55,4,0
18662.468,-0.518,0.175,0.842,16.48,10.35,-8.42,4,0
18662.484,-0.522,0.194,0.834,15.56,18.37,-3.63,4,0
18662.484,-0.543,0.2,0.863,9.52,22.4,2.17,4,0
18662.5,-0.547,0.166,0.883,4.55,22.86,9.98,4,0
18662.515,-0.541,0.132,0.888,5.74,22.71,20.45,4,0
18662.515,-0.529,0.119,0.88,12.12,23.74,31.77,4,0
18662.531,-0.531,0.117,0.846,18.92,25.33,40.83,4,0
18662.546,-0.528,0.098,0.806,23.29,27.47,47.06,4,0
18662.546,-0.52,0.07,0.741,23.87,29.57,48.68,4,0
18662.562,-0.509,0.057,0.691,19.87,34.09,47.58,4,0
18662.562,-0.518,0.053,0.677,15.35,39.83,44.5,4,0
18662.578,-0.528,0.052,0.693,11.93,42.63,40.22,4,0
18662.593,-0.53,0.061,0.708,11.23,41.38,35.62,4,0
18662.593,-0.548,0.082,0.715,13.4,38.15,31.46,4,0
18662.609,-0.544,0.068,0.745,16.17,31.92,30.27,4,0
18662.625,-0.465,0.136,0.749,23.1,25.39,29.33,4,0
18662.625,-0.478,0.158,0.72,30.43,24.35,26.03,4,0
18662.64,-0.46,0.132,0.702,32.9,23.19,25.54,4,0
18662.656,-0.463,0.137,0.668,35.89,25.76,26.25,4,0
18662.656,-0.492,0.126,0.64,39.67,32.29,27.28,4,0
18662.671,-0.522,0.125,0.644,42.73,40.1,26.73,4,0
18662.671,-0.587,0.128,0.67,44.01,48.37,26.76,4,0
18662.687,-0.647,0.135,0.714,39.8,50.69,27.89,4,0
18662.703,-0.669,0.152,0.746,33.05,46.63,27.04,4,0
18662.703,-0.677,0.155,0.779,24.2,39.55,27.07,4,0
18662.718,-0.655,0.138,0.78,16.69,29.57,27.71,4,0
18662.734,-0.606,0.125,0.758,13.55,21.21,28.44,4,0
18662.75,-0.553,0.12,0.735,13.7,16.91,29.08,4,0
18662.75,-0.512,0.119,0.72,15.66,16.51,29.02,4,0
18662.765,-0.498,0.124,0.7,17.58,18.22,27.19,4,0
18662.765,-0.514,0.138,0.699,17.27,20.11,23.74,4,0
18662.781,-0.546,0.155,0.726,14.89,20.54,19.96,4,0
18662.781,-0.58,0.182,0.752,12.27,17.85,17.3,4,0
18662.796,-0.599,0.203,0.76,10.32,12.36,15.11,4,0
18662.812,-0.603,0.227,0.763,8.97,5.71,13.55,4,0
18662.812,-0.589,0.243,0.738,9.13,-1.22,13.28,4,0
18662.828,-0.558,0.252,0.701,10.93,-5.46,14.71,4,0
18662.843,-0.528,0.262,0.663,13.28,-5.07,17.82,4,0
18662.843,-0.512,0.27,0.637,13.25,-0.85,21.52,4,0
18662.859,-0.526,0.282,0.642,10.16,4.97,24.96,4,0
18662.875,-0.545,0.285,0.674,5.49,9.98,28.53,4,0
18662.875,-0.563,0.282,0.699,0.89,13.61,32.5,4,0
18662.89,-0.598,0.276,0.728,-2.81,15.56,35.46,4,0
18662.89,-0.633,0.263,0.762,-4.43,14.37,37.75,4,0
18662.906,-0.659,0.259,0.777,-3.88,10.5,39.86,4,0
18662.921,-0.668,0.254,0.77,-2.29,5.77,41.9,4,0
18662.937,-0.657,0.25,0.757,-0.24,1.95,44.01,4,0
18662.937,-0.635,0.255,0.736,3.2,0.49,45.41,4,0
18662.953,-0.632,0.26,0.727,8.24,2.41,45.59,4,0
18662.953,-0.631,0.266,0.742,13.15,5.92,44.98,4,0
18662.968,-0.634,0.281,0.768,18.92,10.5,42.85,4,0
18662.984,-0.663,0.303,0.782,24.05,14.31,40.25,4,0
18662.984,-0.688,0.323,0.791,26.86,16.02,38.36,4,0
18663.0,-0.711,0.349,0.8,28.44,16.72,37.84,4,0
18663.015,-0.731,0.379,0.805,28.93,18.13,38.18,4,0
18663.015,-0.757,0.411,0.819,27.99,20.63,38.94,4,0
18663.031,-0.77,0.442,0.812,25.73,22.13,41.02,4,0
18663.031,-0.756,0.468,0.773,22.68,22.19,45.41,4,0
18663.046,-0.723,0.497,0.711,19.2,23.44,52.19,4,0
18663.062,-0.696,0.54,0.661,12.97,27.31,60.85,4,0
18663.062,-0.688,0.557,0.663,4.94,32.41,70.35,4,0
18663.078,-0.668,0.513,0.693,2.56,36.47,78.59,4,0
18663.093,-0.678,0.505,0.703,6.32,40.74,83.65,4,0
18663.109,-0.711,0.518,0.732,10.32,43.73,86.06,4,0
18663.109,-0.743,0.492,0.762,14.25,42.97,86.86,4,0
18663.125,-0.758,0.472,0.765,19.04,39.37,86.76,4,0
18663.125,-0.756,0.474,0.757,24.72,35.19,86.09,4,0
18663.14,-0.754,0.481,0.751,30.18,31.77,84.93,4,0
18663.156,-0.751,0.487,0.746,34.18,29.27,84.14,4,0
18663.156,-0.748,0.493,0.732,37.69,28.57,84.75,4,0
18663.171,-0.755,0.506,0.715,39.98,29.91,86.58,4,0
18663.187,-0.752,0.517,0.698,40.77,32.11,89.57,4,0
18663.187,-0.754,0.498,0.693,40.93,35.4,92.96,4,0
18663.203,-0.753,0.492,0.695,42.66,39.64,96.87,4,0
18663.203,-0.746,0.516,0.705,46.05,44.86,99.12,4,0
18663.218,-0.756,0.518,0.719,49.23,49.78,99.95,4,0
18663.234,-0.759,0.521,0.742,52.1,53.5,100.71,4,0
18663.234,-0.764,0.554,0.763,55.15,58.26,100.99,4,0
18663.25,-0.794,0.548,0.782,54.81,60.67,103.61,4,0
18663.265,-0.788,0.527,0.81,53.16,59.48,107.82,4,0
18663.265,-0.777,0.533,0.816,55.15,59.3,109.78,4,0
18663.281,-0.788,0.527,0.81,57.92,60.34,110.45,4,0
18663.296,-0.807,0.511,0.797,59.33,62.23,111.39,4,0
18663.296,-0.847,0.517,0.78,59.05,66.59,113.07,4,0
18663.312,-0.935,0.505,0.774,56.61,74.95,115.05,4,0
18663.312,-1.044,0.491,0.775,51.3,88.75,117.19,4,0
18663.328,-1.2,0.488,0.782,43.28,109.53,119.14,4,0
18663.343,-1.376,0.471,0.819,32.78,136.72,121.34,4,0
18663.343,-1.577,0.464,0.871,8.76,186.93,123.48,4,0
18663.359,-1.763,0.468,0.933,-9.55,190.98,124.33,4,0
18663.375,-1.835,0.481,1.012,-32.32,175.36,125.4,4,0
18663.375,-1.548,0.528,1.116,-49.32,146.58,127.48,4,0
18663.39,-1.158,0.578,1.076,-65.92,113.59,131.14,4,0
18663.406,-0.659,0.647,1.0,-87.01,83.62,136.63,4,0
18663.406,-0.152,0.709,0.936,-110.84,65.68,142.49,4,0
18663.421,0.203,0.727,0.941,-127.72,60.7,145.15,4,0
18663.421,0.338,0.655,0.945,-124.76,63.6,142.95,4,0
18663.437,0.303,0.555,0.925,-107.76,67.54,138.89,4,0
18663.453,0.237,0.487,0.891,-88.93,63.42,132.48,4,0
18663.453,0.183,0.452,0.835,-71.6,48.4,120.79,4,0
18663.468,0.156,0.438,0.743,-57.07,27.1,106.42,4,0
18663.484,0.199,0.444,0.662,-48.83,2.53,93.48,4,0
18663.5,0.272,0.47,0.6,-42.24,-17.49,82.25,4,0
18663.5,0.303,0.536,0.519,-36.35,-28.72,72.88,4,0
18663.515,0.321,0.6,0.436,-36.29,-32.81,67.6,4,0
18663.515,0.341,0.619,0.382,-39.49,-29.97,65.95,4,0
18663.531,0.312,0.622,0.363,-41.17,-20.17,65.22,4,0
18663.546,0.2,0.617,0.364,-39.16,-7.78,63.72,4,0
18663.546,0.044,0.59,0.362,-34.33,3.08,62.99,4,0
18663.562,-0.094,0.562,0.357,-29.24,11.32,63.33,4,0
18663.578,-0.25,0.528,0.362,-25.51,13.98,66.32,4,0
18663.578,-0.343,0.51,0.354,-22.52,10.53,71.26,4,0
18663.593,-0.374,0.499,0.32,-22.92,4.33,73.79,4,0
18663.593,-0.377,0.487,0.303,-28.47,-0.7,71.5,4,0
18663.609,-0.378,0.477,0.31,-35.52,-3.3,64.97,4,0
18663.625,-0.383,0.455,0.32,-39.09,-3.94,55.94,4,0
18663.625,-0.383,0.433,0.324,-37.29,-3.6,45.56,4,0
18663.64,-0.371,0.412,0.33,-30.18,-3.39,34.85,4,0
18663.656,-0.356,0.413,0.336,-18.52,-1.62,23.62,4,0
18663.656,-0.354,0.436,0.335,-4.39,2.35,11.78,4,0
18663.671,-0.344,0.455,0.324,8.03,5.71,0.64,4,0
18663.671,-0.32,0.479,0.313,17.52,8.61,-9.58,4,0
18663.687,-0.301,0.514,0.311,23.53,12.36,-18.19,4,0
18663.703,-0.272,0.553,0.317,24.87,15.29,-24.6,4,0
18663.718,-0.23,0.592,0.326,22.28,17.88,-29.82,4,0
18663.718,-0.192,0.624,0.332,16.97,21.79,-34.55,4,0
18663.734,-0.167,0.651,0.342,9.19,27.25,-38.54,4,0
18663.734,-0.15,0.676,0.367,0.0,32.78,-42.33,4,0
18663.75,-0.142,0.704,0.403,-7.35,37.35,-46.21,4,0
18663.765,-0.16,0.733,0.439,-11.11,40.8,-49.62,4,0
18663.765,-0.173,0.771,0.475,-12.3,41.81,-50.48,4,0
18663.781,-0.182,0.816,0.499,-12.3,41.11,-49.5,4,0
18663.796,-0.197,0.845,0.524,-12.76,38.94,-47.12,4,0
18663.796,-0.203,0.861,0.537,-15.17,34.64,-43.28,4,0
18663.812,-0.203,0.872,0.537,-18.86,29.88,-39.37,4,0
18663.812,-0.206,0.871,0.526,-23.29,25.39,-35.89,4,0
18663.828,-0.207,0.86,0.515,-28.5,21.79,-32.44,4,0
18663.843,-0.207,0.849,0.504,-32.93,19.93,-29.39,4,0
18663.843,-0.214,0.835,0.499,-35.65,20.11,-27.34,4,0
18663.859,-0.232,0.824,0.502,-36.74,21.76,-26.25,4,0
18663.875,-0.253,0.823,0.516,-37.26,23.32,-25.82,4,0
18663.875,-0.266,0.829,0.525,-37.2,24.14,-25.73,4,0
18663.89,-0.285,0.832,0.538,-37.11,24.57,-26.0,4,0
18663.89,-0.316,0.829,0.554,-37.69,23.96,-26.22,4,0
18663.906,-0.346,0.82,0.563,-38.54,22.55,-25.57,4,0
18663.921,-0.365,0.812,0.572,-37.72,21.24,-23.71,4,0
18663.937,-0.388,0.804,0.581,-34.33,20.78,-22.22,4,0
18663.937,-0.406,0.794,0.579,-30.06,19.26,-21.36,4,0
18663.953,-0.406,0.78,0.565,-27.04,16.85,-21.03,4,0
18663.968,-0.401,0.775,0.554,-25.3,16.3,-21.49,4,0
18663.968,-0.398,0.759,0.553,-23.44,17.76,-22.31,4,0
18663.984,-0.396,0.741,0.559,-20.84,20.36,-22.95,4,0
18663.984,-0.404,0.729,0.565,-18.4,23.44,-24.14,4,0
18664.0,-0.417,0.719,0.581,-16.57,25.24,-25.45,4,0
18664.015,-0.421,0.709,0.598,-14.59,25.64,-26.64,4,0
18664.015,-0.42,0.703,0.615,-11.84,25.18,-27.83,4,0
18664.031,-0.415,0.696,0.624,-8.0,24.35,-29.79,4,0
18664.046,-0.412,0.686,0.626,-3.94,23.62,-32.75,4,0
18664.046,-0.411,0.68,0.632,-0.09,23.32,-35.8,4,0
18664.062,-0.408,0.673,0.632,4.36,23.07,-38.58,4,0
18664.062,-0.401,0.665,0.627,9.28,22.52,-40.74,4,0
18664.078,-0.394,0.669,0.624,13.64,22.0,-41.96,4,0
18664.093,-0.385,0.676,0.625,17.3,21.42,-43.18,4,0
18664.093,-0.384,0.678,0.62,20.05,20.57,-45.29,4,0
18664.109,-0.389,0.678,0.617,20.78,19.1,-47.67,4,0
18664.125,-0.405,0.679,0.616,20.33,16.75,-50.02,4,0
18664.125,-0.416,0.678,0.612,19.59,13.09,-51.79,4,0
18664.14,-0.417,0.674,0.607,19.17,9.28,-52.43,4,0
18664.14,-0.42,0.673,0.599,19.62,6.65,-52.64,4,0
18664.156,-0.434,0.666,0.587,20.6,5.22,-52.58,4,0
18664.171,-0.455,0.661,0.578,21.33,4.39,-52.28,4,0
18664.171,-0.48,0.654,0.574,21.88,3.3,-51.88,4,0
18664.187,-0.497,0.65,0.567,22.03,1.71,-51.55,4,0
18664.203,-0.521,0.644,0.561,21.52,-0.27,-51.79,4,0
18664.203,-0.541,0.639,0.552,20.02,-2.56,-52.16,4,0
18664.218,-0.55,0.638,0.541,17.15,-4.64,-52.43,4,0
18664.234,-0.554,0.632,0.532,14.16,-5.83,-52.34,4,0
18664.234,-0.561,0.625,0.53,11.66,-6.5,-51.85,4,0
18664.25,-0.567,0.623,0.519,9.31,-6.62,-50.75,4,0
18664.265,-0.567,0.62,0.51,6.81,-6.26,-49.35,4,0
18664.265,-0.571,0.62,0.515,4.43,-5.52,-47.94,4,0
18664.281,-0.581,0.615,0.516,2.5,-4.21,-46.36,4,0
18664.281,-0.585,0.607,0.524,1.31,-2.9,-44.01,4,0
18664.296,-0.589,0.609,0.531,2.11,-1.43,-40.38,4,0
18664.312,-0.594,0.621,0.531,3.81,-0.09,-36.04,4,0
18664.312,-0.591,0.619,0.53,5.13,0.27,-31.37,4,0
18664.328,-0.595,0.61,0.52,5.8,1.65,-22.4,4,0
18664.343,-0.598,0.609,0.515,4.49,2.08,-18.83,4,0
18664.343,-0.596,0.602,0.503,0.4,2.41,-16.08,4,0
18664.359,-0.586,0.599,0.496,-6.07,2.5,-14.47,4,0
18664.375,-0.555,0.579,0.486,-13.79,3.05,-12.94,4,0
18664.375,-0.547,0.568,0.49,-20.94,4.55,-11.63,4,0
18664.39,-0.547,0.555,0.494,-26.28,6.29,-10.19,4,0
18664.39,-0.555,0.544,0.509,-30.03,8.48,-8.21,4,0
18664.406,-0.578,0.54,0.533,-32.62,10.32,-5.89,4,0
18664.421,-0.601,0.531,0.547,-35.4,10.32,-3.97,4,0
18664.421,-0.627,0.524,0.552,-38.91,9.74,-2.9,4,0
18664.437,-0.661,0.516,0.567,-42.15,9.09,-2.72,4,0
18664.453,-0.692,0.507,0.586,-44.31,7.81,-3.27,4,0
18664.453,-0.727,0.503,0.604,-44.83,5.4,-4.58,4,0
18664.468,-0.752,0.499,0.612,-44.07,1.28,-6.53,4,0
18664.484,-0.759,0.502,0.617,-42.48,-3.45,-9.16,4,0
18664.5,-0.76,0.506,0.614,-39.52,-6.5,-12.79,4,0
18664.5,-0.768,0.495,0.608,-34.49,-8.27,-17.21,4,0
18664.5,-0.781,0.487,0.603,-27.95,-9.0,-22.1,4,0
18664.515,-0.783,0.486,0.596,-19.38,-8.91,-26.58,4,0
18664.531,-0.791,0.493,0.596,-9.16,-7.9,-30.43,4,0
18664.546,-0.799,0.504,0.596,2.32,-6.01,-33.2,4,0
18664.546,-0.803,0.519,0.592,13.03,-4.73,-35.0,4,0
18664.562,-0.789,0.539,0.582,21.03,-5.16,-35.74,4,0
18664.562,-0.771,0.563,0.569,25.48,-6.13,-35.86,4,0
18664.578,-0.754,0.584,0.554,25.7,-7.14,-35.62,4,0
18664.593,-0.73,0.592,0.547,22.25,-9.25,-34.91,4,0
18664.593,-0.699,0.598,0.54,17.46,-11.44,-33.57,4,0
18664.609,-0.666,0.596,0.522,12.76,-13.4,-30.95,4,0
18664.625,-0.644,0.593,0.506,8.12,-13.76,-27.22,4,0
18664.625,-0.626,0.592,0.504,3.94,-12.05,-22.37,4,0
18664.64,-0.622,0.591,0.497,0.21,-9.03,-17.49,4,0
18664.64,-0.623,0.582,0.488,-4.43,-4.97,-13.12,4,0
18664.656,-0.623,0.569,0.48,-10.19,-0.15,-9.37,4,0
18664.671,-0.623,0.553,0.47,-15.93,4.91,-5.65,4,0
18664.671,-0.63,0.535,0.466,-20.6,10.68,-2.01,4,0
18664.687,-0.646,0.522,0.469,-23.74,17.73,1.01,4,0
18664.703,-0.668,0.51,0.47,-26.25,24.54,3.11,4,0
18664.703,-0.688,0.504,0.48,-30.12,29.45,4.79,4,0
18664.718,-0.708,0.493,0.497,-34.76,31.59,5.95,4,0
18664.734,-0.717,0.48,0.507,-38.64,30.98,6.78,4,0
18664.75,-0.707,0.476,0.513,-41.51,29.21,7.54,4,0
18664.75,-0.695,0.467,0.513,-42.79,27.83,7.63,4,0
18664.765,-0.682,0.447,0.508,-42.42,27.65,7.2,4,0
18664.765,-0.665,0.432,0.506,-40.25,28.11,7.08,4,0
18664.781,-0.653,0.423,0.5,-36.23,30.03,6.99,4,0
18664.781,-0.656,0.416,0.487,-31.46,33.02,6.01,4,0
18664.796,-0.665,0.417,0.49,-28.63,35.31,4.49,4,0
18664.812,-0.673,0.412,0.5,-27.34,35.34,2.72,4,0
18664.812,-0.669,0.409,0.503,-26.92,34.09,0.79,4,0
18664.828,-0.667,0.416,0.505,-26.95,33.14,-1.13,4,0
18664.843,-0.668,0.419,0.511,-27.1,32.53,-3.05,4,0
18664.843,-0.669,0.424,0.516,-27.5,32.5,-4.61,4,0
18664.859,-0.673,0.431,0.521,-28.23,32.78,-6.01,4,0
18664.875,-0.681,0.432,0.529,-28.87,32.59,-7.6,4,0
18664.875,-0.694,0.431,0.537,-29.08,32.26,-8.42,4,0
18664.89,-0.706,0.432,0.545,-28.08,31.37,-8.58,4,0
18664.89,-0.716,0.428,0.544,-25.91,29.88,-8.03,4,0
18664.906,-0.717,0.428,0.545,-23.07,28.26,-7.11,4,0
18664.921,-0.714,0.434,0.544,-18.92,27.25,-6.81,4,0
18664.937,-0.715,0.437,0.535,-14.92,26.67,-6.9,4,0
18664.937,-0.721,0.444,0.521,-11.93,26.67,-7.32,4,0
18664.953,-0.736,0.449,0.517,-9.34,27.65,-8.06,4,0
18664.953,-0.752,0.452,0.518,-6.81,28.41,-8.3,4,0
18664.968,-0.768,0.456,0.514,-4.27,28.84,-7.9,4,0
18664.984,-0.788,0.466,0.512,-2.17,28.63,-6.84,4,0
18664.984,-0.801,0.47,0.519,-1.62,25.76,-4.24,4,0
18665.0,-0.794,0.481,0.519,-1.19,22.37,-1.37,4,0
18665.015,-0.799,0.483,0.511,-0.58,20.78,1.62,4,0
18665.015,-0.799,0.478,0.513,-0.7,19.9,4.73,4,0
18665.031,-0.786,0.478,0.515,-1.13,20.08,7.45,4,0
18665.046,-0.785,0.476,0.514,-2.14,21.76,9.92,4,0
18665.046,-0.788,0.469,0.513,-4.18,23.35,12.12,4,0
18665.062,-0.787,0.463,0.514,-6.41,24.75,14.22,4,0
18665.062,-0.786,0.459,0.519,-9.28,26.12,16.05,4,0
18665.078,-0.781,0.452,0.52,-12.94,27.31,17.73,4,0
18665.093,-0.772,0.446,0.523,-16.75,28.2,19.35,4,0
18665.093,-0.762,0.441,0.527,-20.94,28.81,21.12,4,0
18665.109,-0.752,0.434,0.533,-25.39,29.11,22.74,4,0
18665.125,-0.739,0.421,0.537,-29.94,29.66,24.75,4,0
18665.125,-0.731,0.408,0.541,-34.67,30.52,26.92,4,0
18665.14,-0.721,0.391,0.543,-39.0,31.28,29.08,4,0
18665.156,-0.714,0.375,0.551,-41.9,31.34,30.7,4,0
18665.156,-0.708,0.353,0.556,-43.15,29.97,31.68,4,0
18665.171,-0.691,0.335,0.553,-43.55,27.56,31.65,4,0
18665.171,-0.675,0.32,0.544,-43.98,25.57,30.37,4,0
18665.187,-0.663,0.305,0.532,-44.07,24.11,28.14,4,0
18665.203,-0.656,0.292,0.519,-43.43,22.92,25.45,4,0
18665.218,-0.649,0.281,0.506,-41.44,22.55,22.86,4,0
18665.218,-0.641,0.276,0.495,-39.0,22.89,20.2,4,0
18665.234,-0.637,0.275,0.486,-36.47,24.32,17.52,4,0
18665.234,-0.641,0.273,0.477,-34.06,25.97,14.8,4,0
18665.25,-0.642,0.273,0.472,-32.01,26.83,12.48,4,0
18665.25,-0.652,0.279,0.469,-29.66,27.68,10.53,4,0
18665.265,-0.669,0.283,0.468,-27.59,28.53,9.09,4,0
18665.281,-0.687,0.285,0.472,-26.22,28.78,8.33,4,0
18665.296,-0.716,0.291,0.486,-25.3,28.29,7.78,4,0
18665.296,-0.746,0.297,0.491,-24.69,26.89,6.81,4,0
18665.312,-0.773,0.306,0.49,-27.89,22.19,3.45,4,0
18665.312,-0.801,0.312,0.486,-30.09,19.62,1.71,4,0
18665.328,-0.826,0.311,0.484,-30.92,17.43,0.55,4,0
18665.343,-0.845,0.311,0.48,-30.27,15.75,-0.06,4,0
18665.343,-0.866,0.302,0.46,-28.44,14.71,-0.7,4,0
18665.359,-0.873,0.298,0.45,-25.45,14.4,-1.46,4,0
18665.375,-0.887,0.292,0.446,-21.33,15.05,-1.98,4,0
18665.375,-0.901,0.287,0.441,-16.91,15.2,-2.47,4,0
18665.39,-0.909,0.284,0.433,-12.42,15.05,-2.75,4,0
18665.39,-0.912,0.285,0.435,-8.21,14.89,-2.69,4,0
18665.406,-0.913,0.285,0.436,-4.15,14.19,-2.66,4,0
18665.421,-0.913,0.279,0.429,-0.76,12.88,-2.44,4,0
18665.421,-0.904,0.275,0.427,1.56,11.23,-2.35,4,0
18665.437,-0.896,0.273,0.418,3.3,9.46,-3.39,4,0
18665.453,-0.888,0.269,0.411,4.24,8.12,-4.88,4,0
18665.453,-0.876,0.267,0.404,4.49,6.53,-6.29,4,0
18665.468,-0.861,0.265,0.392,4.52,5.13,-7.66,4,0
18665.484,-0.849,0.261,0.381,4.64,4.67,-9.37,4,0
18665.484,-0.836,0.26,0.38,4.85,5.04,-11.08,4,0
18665.5,-0.821,0.26,0.381,5.04,5.65,-12.73,4,0
18665.515,-0.814,0.259,0.376,5.01,6.93,-14.71,4,0
18665.515,-0.806,0.257,0.374,4.85,8.94,-16.75,4,0
18665.531,-0.804,0.261,0.382,4.76,11.17,-19.04,4,0
18665.531,-0.805,0.269,0.393,4.46,13.28,-21.39,4,0
18665.546,-0.816,0.279,0.403,3.78,14.83,-23.35,4,0
18665.562,-0.83,0.284,0.419,2.78,15.72,-24.78,4,0
18665.562,-0.835,0.291,0.432,2.29,15.93,-26.25,4,0
18665.578,-0.837,0.295,0.439,2.04,16.45,-27.38,4,0
18665.593,-0.844,0.301,0.448,1.92,16.54,-28.44,4,0
18665.593,-0.844,0.304,0.454,2.23,15.44,-29.27,4,0
18665.609,-0.847,0.307,0.461,3.2,14.47,-30.15,4,0
18665.625,-0.849,0.312,0.467,4.18,14.04,-31.1,4,0
18665.625,-0.844,0.319,0.474,4.43,13.86,-32.14,4,0
18665.64,-0.85,0.325,0.482,4.15,14.65,-33.36,4,0
18665.656,-0.858,0.329,0.489,3.85,14.89,-34.0,4,0
18665.656,-0.857,0.331,0.498,3.85,14.19,-33.75,4,0
18665.671,-0.858,0.335,0.506,4.79,12.42,-33.27,4,0
18665.671,-0.854,0.335,0.51,6.78,10.22,-32.78,4,0
18665.687,-0.845,0.338,0.513,9.03,8.0,-32.47,4,0
18665.703,-0.841,0.341,0.509,11.63,6.2,-32.2,4,0
18665.703,-0.845,0.342,0.506,14.4,4.58,-31.71,4,0
18665.718,-0.852,0.345,0.509,17.46,2.44,-30.82,4,0
18665.734,-0.86,0.35,0.506,20.75,-0.06,-29.33,4,0
18665.734,-0.863,0.357,0.501,23.68,-2.38,-27.83,4,0
18665.75,-0.862,0.369,0.491,26.18,-3.85,-26.52,4,0
18665.765,-0.871,0.376,0.485,28.23,-4.18,-25.06,4,0
18665.765,-0.885,0.374,0.479,30.82,-4.39,-23.59,4,0
18665.781,-0.887,0.36,0.474,34.82,-5.92,-21.24,4,0
18665.796,-0.882,0.35,0.48,39.95,-8.18,-18.59,4,0
18665.796,-0.885,0.341,0.484,46.97,-11.35,-16.27,4,0
18665.812,-0.892,0.338,0.477,55.06,-15.02,-14.77,4,0
18665.812,-0.901,0.337,0.464,60.88,-18.92,-13.61,4,0
18665.828,-0.918,0.341,0.455,61.13,-23.99,-13.43,4,0
18665.843,-0.932,0.346,0.455,55.67,-31.98,-14.25,4,0
18665.843,-0.932,0.346,0.454,47.12,-40.56,-15.66,4,0
18665.859,-0.926,0.342,0.449,36.84,-48.52,-17.49,4,0
18665.875,-0.905,0.321,0.433,27.77,-54.84,-19.53,4,0
18665.875,-0.883,0.292,0.414,22.03,-57.95,-21.39,4,0
18665.89,-0.882,0.266,0.408,19.38,-57.68,-22.4,4,0
18665.906,-0.882,0.239,0.41,20.84,-56.76,-22.37,4,0
18665.906,-0.89,0.221,0.419,26.0,-56.49,-21.67,4,0
18665.921,-0.904,0.211,0.436,32.56,-58.29,-20.14,4,0
18665.921,-0.917,0.225,0.474,39.03,-64.18,-18.31,4,0
18665.937,-0.909,0.226,0.487,47.3,-72.21,-16.88,4,0
18665.953,-0.904,0.221,0.487,52.95,-79.74,-17.21,4,0
18665.968,-0.893,0.224,0.484,54.54,-85.76,-18.43,4,0
18665.968,-0.885,0.217,0.494,54.32,-92.04,-20.14,4,0
18665.984,-0.882,0.193,0.514,54.02,-99.95,-21.3,4,0
18665.984,-0.895,0.173,0.548,54.51,-110.45,-21.79,4,0
18666.0,-0.893,0.159,0.574,55.85,-123.84,-21.7,4,0
18666.015,-0.872,0.161,0.602,58.14,-138.62,-20.14,4,0
18666.015,-0.805,0.148,0.588,59.3,-150.94,-18.49,4,0
18666.031,-0.724,0.143,0.546,55.6,-157.9,-21.36,4,0
18666.046,-0.677,0.136,0.5,49.35,-157.96,-28.47,4,0
18666.046,-0.647,0.114,0.483,43.49,-152.87,-37.72,4,0
18666.062,-0.638,0.094,0.5,41.02,-145.76,-47.46,4,0
18666.078,-0.626,0.067,0.517,44.56,-136.75,-54.75,4,0
18666.078,-0.627,0.071,0.524,54.57,-125.68,-60.85,4,0
18666.093,-0.624,0.079,0.521,68.39,-116.95,-66.99,4,0
18666.109,-0.614,0.094,0.525,82.55,-107.85,-73.12,4,0
18666.109,-0.609,0.11,0.54,94.88,-98.79,-80.51,4,0
18666.125,-0.604,0.132,0.55,104.59,-90.27,-89.11,4,0
18666.125,-0.605,0.156,0.558,112.37,-80.23,-96.93,4,0
18666.14,-0.618,0.184,0.557,117.28,-69.89,-103.03,4,0
18666.156,-0.623,0.207,0.558,118.87,-59.97,-107.0,4,0
18666.156,-0.64,0.227,0.571,118.2,-51.58,-110.05,4,0
18666.171,-0.671,0.252,0.588,116.43,-44.98,-111.55,4,0
18666.171,-0.685,0.274,0.607,113.28,-41.05,-111.48,4,0
18666.187,-0.697,0.308,0.614,108.34,-38.18,-110.26,4,0
18666.203,-0.706,0.339,0.619,101.44,-36.26,-107.64,4,0
18666.203,-0.709,0.346,0.624,94.49,-34.61,-103.61,4,0
18666.218,-0.708,0.357,0.616,88.47,-31.56,-97.6,4,0
18666.234,-0.698,0.367,0.597,83.68,-27.47,-90.03,4,0
18666.234,-0.666,0.358,0.57,80.42,-21.61,-82.28,4,0
18666.25,-0.642,0.338,0.541,79.71,-12.18,-75.99,4,0
18666.265,-0.643,0.334,0.524,79.59,0.21,-71.23,4,0
18666.265,-0.662,0.327,0.53,77.36,11.87,-68.79,4,0
18666.281,-0.696,0.324,0.55,74.13,21.52,-67.57,4,0
18666.281,-0.743,0.336,0.588,69.98,28.41,-66.44,4,0
18666.296,-0.779,0.339,0.625,57.92,26.95,-61.98,4,0
18666.312,-0.799,0.353,0.643,51.09,22.0,-57.99,4,0
18666.312,-0.801,0.375,0.65,44.22,16.39,-52.28,4,0
18666.328,-0.754,0.381,0.617,38.21,12.73,-46.08,4,0
18666.343,-0.743,0.381,0.592,32.96,12.6,-39.25,4,0
18666.359,-0.73,0.374,0.583,28.26,14.65,-32.04,4,0
18666.359,-0.724,0.366,0.579,24.08,18.01,-24.69,4,0
18666.375,-0.716,0.368,0.574,19.5,22.16,-17.85,4,0
18666.375,-0.719,0.375,0.578,13.06,26.37,-11.69,4,0
18666.39,-0.724,0.369,0.586,4.15,28.57,-6.13,4,0
18666.406,-0.724,0.365,0.593,-5.43,30.34,-1.8,4,0
18666.406,-0.738,0.359,0.606,-15.14,31.59,2.08,4,0
18666.421,-0.748,0.34,0.629,-22.95,31.28,5.43,4,0
18666.421,-0.748,0.318,0.638,-27.13,29.82,8.51,4,0
18666.437,-0.742,0.293,0.65,-28.38,27.99,11.23,4,0
18666.453,-0.718,0.27,0.659,-25.64,26.7,13.09,4,0
18666.453,-0.701,0.253,0.664,-19.26,27.13,13.95,4,0
18666.468,-0.693,0.235,0.655,-11.6,28.47,14.01,4,0
18666.484,-0.693,0.222,0.639,-4.61,30.55,13.67,4,0
18666.5,-0.705,0.213,0.626,0.64,33.05,12.82,4,0
18666.5,-0.724,0.213,0.622,3.6,34.82,11.87,4,0
18666.515,-0.734,0.212,0.612,3.78,34.94,11.35,4,0
18666.515,-0.735,0.218,0.599,1.04,34.21,10.71,4,0
18666.531,-0.731,0.224,0.599,-3.51,33.72,10.1,4,0
18666.531,-0.731,0.217,0.604,-8.76,33.42,9.74,4,0
18666.546,-0.741,0.211,0.615,-13.15,32.56,9.86,4,0
18666.562,-0.76,0.201,0.617,-16.63,29.73,10.38,4,0
18666.562,-0.763,0.185,0.61,-19.71,24.99,11.44,4,0
18666.578,-0.767,0.17,0.604,-20.36,20.94,11.54,4,0
18666.593,-0.782,0.151,0.594,-18.71,17.58,10.83,4,0
18666.593,-0.791,0.141,0.583,-16.36,14.07,9.49,4,0
18666.609,-0.8,0.139,0.57,-12.7,10.8,6.23,4,0
18666.625,-0.815,0.139,0.559,-8.3,7.63,2.14,4,0
18666.625,-0.825,0.147,0.546,-4.58,3.6,-2.08,4,0
18666.64,-0.825,0.167,0.532,-1.71,-0.34,-5.98,4,0
18666.64,-0.829,0.186,0.515,0.31,-2.2,-9.13,4,0
18666.656,-0.843,0.203,0.506,1.8,-2.38,-10.62,4,0
18666.671,-0.849,0.218,0.511,3.94,-1.95,-10.53,4,0
18666.671,-0.846,0.233,0.52,7.78,-1.25,-9.74,4,0
18666.687,-0.834,0.237,0.518,12.27,-0.58,-7.9,4,0
18666.703,-0.831,0.225,0.506,12.48,0.03,-5.86,4,0
18666.703,-0.841,0.215,0.51,8.0,0.92,-4.3,4,0
18666.718,-0.844,0.202,0.529,3.88,0.89,-3.08,4,0
18666.734,-0.85,0.189,0.545,3.88,-0.4,-1.62,4,0
18666.734,-0.851,0.18,0.552,6.38,-2.32,-0.12,4,0
18666.75,-0.848,0.163,0.552,8.82,-5.01,0.85,4,0
18666.765,-0.834,0.163,0.552,10.07,-7.23,1.19,4,0
18666.765,-0.819,0.162,0.546,11.14,-8.79,0.55,4,0
18666.781,-0.814,0.159,0.55,11.87,-9.34,-0.7,4,0
18666.781,-0.802,0.155,0.552,12.67,-9.28,-1.89,4,0
18666.796,-0.796,0.156,0.554,14.31,-8.73,-3.08,4,0
18666.812,-0.79,0.157,0.554,16.48,-7.93,-4.49,4,0
18666.828,-0.786,0.154,0.551,18.98,-6.99,-6.13,4,0
18666.828,-0.792,0.153,0.555,21.76,-5.49,-7.9,4,0
18666.843,-0.797,0.16,0.562,24.72,-4.21,-9.37,4,0
18666.843,-0.803,0.163,0.569,27.53,-2.78,-10.8,4,0
18666.859,-0.805,0.165,0.57,29.63,-1.28,-11.99,4,0
18666.875,-0.807,0.174,0.567,30.49,0.4,-12.91,4,0
18666.875,-0.813,0.17,0.562,30.18,1.68,-13.28,4,0
18666.89,-0.805,0.163,0.555,29.02,3.02,-13.0,4,0
18666.906,-0.799,0.171,0.539,27.83,5.07,-12.85,4,0
18666.906,-0.786,0.171,0.519,26.15,7.17,-12.54,4,0
18666.921,-0.789,0.176,0.517,22.71,10.01,-12.82,4,0
18666.921,-0.8,0.181,0.527,18.86,11.14,-13.12,4,0
18666.937,-0.795,0.182,0.538,15.5,9.74,-13.03,4,0
18666.953,-0.786,0.189,0.543,11.84,7.9,-13.52,4,0
18666.953,-0.781,0.2,0.552,8.48,6.53,-14.65,4,0
18666.968,-0.778,0.199,0.564,6.62,3.94,-15.66,4,0
18666.984,-0.761,0.2,0.556,5.55,-0.85,-15.93,4,0
18666.984,-0.729,0.215,0.54,4.3,-4.7,-15.93,4,0
18667.0,-0.704,0.223,0.522,3.69,-5.95,-16.79,4,0
18667.015,-0.698,0.225,0.506,3.94,-4.73,-18.59,4,0
18667.015,-0.697,0.228,0.489,4.76,-2.66,-20.63,4,0
18667.031,-0.684,0.234,0.473,5.89,0.12,-23.1,4,0
18667.031,-0.682,0.244,0.464,8.42,4.15,-26.89,4,0
18667.046,-0.696,0.254,0.466,12.12,8.18,-31.56,4,0
18667.062,-0.701,0.267,0.464,15.41,10.68,-36.1,4,0
18667.078,-0.705,0.297,0.464,17.43,12.73,-41.66,4,0
18667.078,-0.731,0.323,0.469,18.86,14.53,-47.61,4,0
18667.093,-0.776,0.335,0.475,20.11,15.56,-51.58,4,0
18667.093,-0.832,0.353,0.479,20.84,16.48,-53.38,4,0
18667.109,-0.882,0.366,0.477,21.15,17.46,-53.01,4,0
18667.125,-0.924,0.36,0.469,21.21,18.31,-50.75,4,0
18667.125,-0.972,0.351,0.466,21.36,18.59,-46.69,4,0
18667.14,-1.001,0.342,0.454,22.52,16.27,-40.38,4,0
18667.156,-0.998,0.336,0.42,23.99,12.09,-32.72,4,0
18667.156,-0.98,0.337,0.384,23.44,7.39,-24.93,4,0
18667.171,-0.96,0.335,0.357,20.11,3.57,-17.67,4,0
18667.187,-0.94,0.328,0.33,14.62,1.13,-10.8,4,0
18667.187,-0.921,0.321,0.307,7.23,1.13,-5.01,4,0
18667.203,-0.902,0.308,0.297,-1.43,3.81,-0.06,4,0
18667.218,-0.897,0.297,0.305,-10.13,8.33,4.36,4,0
18667.218,-0.9,0.28,0.315,-17.55,13.86,9.06,4,0
18667.234,-0.895,0.256,0.326,-24.26,20.05,13.89,4,0
18667.234,-0.893,0.23,0.342,-29.42,26.55,18.22,4,0
18667.25,-0.9,0.202,0.365,-31.65,31.4,21.67,4,0
18667.265,-0.9,0.173,0.378,-31.04,33.14,24.17,4,0
18667.265,-0.895,0.159,0.388,-29.48,33.14,25.61,4,0
18667.281,-0.89,0.151,0.4,-27.86,28.53,26.06,4,0
18667.296,-0.89,0.145,0.413,-29.11,25.27,25.09,4,0
18667.296,-0.886,0.147,0.41,-33.27,22.92,22.98,4,0
18667.312,-0.873,0.156,0.408,-38.58,21.91,19.59,4,0
18667.312,-0.849,0.144,0.419,-42.45,22.22,15.53,4,0
18667.328,-0.849,0.143,0.424,-44.34,22.49,12.12,4,0
18667.343,-0.842,0.145,0.426,-45.01,22.06,9.22,4,0
18667.343,-0.845,0.15,0.435,-44.47,21.67,6.35,4,0
18667.359,-0.85,0.153,0.444,-42.6,20.72,3.78,4,0
18667.375,-0.851,0.165,0.441,-40.8,19.26,1.56,4,0
18667.39,-0.847,0.182,0.436,-39.58,18.8,-0.27,4,0
18667.39,-0.852,0.195,0.43,-38.85,19.81,-1.59,4,0
18667.39,-0.865,0.202,0.426,-39.16,21.06,-1.95,4,0
18667.406,-0.873,0.206,0.423,-40.25,21.52,-1.28,4,0
18667.421,-0.869,0.207,0.415,-42.48,21.24,-0.09,4,0
18667.437,-0.861,0.201,0.408,-45.11,21.18,1.4,4,0
18667.437,-0.858,0.19,0.412,-47.36,22.25,2.26,4,0
18667.453,-0.864,0.18,0.427,-48.28,23.8,2.26,4,0
18667.453,-0.872,0.172,0.439,-47.67,24.63,1.56,4,0
18667.468,-0.879,0.167,0.448,-45.99,24.23,0.67,4,0
18667.484,-0.883,0.168,0.455,-43.7,22.43,-0.18,4,0
18667.484,-0.88,0.171,0.455,-41.23,19.14,-0.89,4,0
18667.5,-0.874,0.175,0.446,-39.22,15.84,-1.46,4,0
18667.515,-0.873,0.18,0.437,-37.6,13.79,-1.83,4,0
18667.531,-0.868,0.188,0.431,-36.71,12.73,-1.89,4,0
18667.531,-0.864,0.192,0.425,-36.23,12.51,-1.62,4,0
18667.531,-0.864,0.194,0.416,-35.89,13.31,-0.98,4,0
18667.546,-0.865,0.197,0.405,-35.8,14.83,0.21,4,0
18667.562,-0.862,0.198,0.399,-36.26,16.72,1.65,4,0
18667.578,-0.86,0.192,0.39,-36.81,19.35,3.02,4,0
18667.578,-0.87,0.19,0.388,-37.57,23.1,3.94,4,0
18667.593,-0.886,0.19,0.393,-38.21,26.09,4.58,4,0
18667.593,-0.898,0.183,0.391,-39.12,27.83,5.01,4,0
18667.609,-0.912,0.175,0.4,-39.98,28.96,4.91,4,0
18667.625,-0.931,0.164,0.425,-39.0,28.17,4.3,4,0
18667.625,-0.94,0.159,0.438,-35.95,23.96,3.57,4,0
18667.64,-0.939,0.163,0.437,-32.29,18.46,3.11,4,0
18667.656,-0.931,0.17,0.432,-28.84,13.61,2.96,4,0
18667.656,-0.922,0.179,0.423,-25.67,10.04,3.05,4,0
18667.671,-0.913,0.183,0.41,-23.13,7.51,3.54,4,0
18667.671,-0.91,0.193,0.399,-21.42,6.5,4.3,4,0
18667.687,-0.914,0.201,0.393,-20.45,6.13,5.19,4,0
18667.703,-0.913,0.203,0.388,-19.93,5.83,6.1,4,0
18667.703,-0.907,0.195,0.383,-18.8,5.28,6.99,4,0
18667.718,-0.911,0.184,0.379,-15.96,5.43,7.6,4,0
18667.734,-0.914,0.18,0.377,-11.29,5.52,8.03,4,0
18667.734,-0.913,0.18,0.366,-5.77,4.64,8.58,4,0
18667.75,-0.911,0.181,0.357,-0.67,3.23,9.19,4,0
18667.765,-0.907,0.187,0.35,3.66,1.28,10.04,4,0
18667.765,-0.899,0.194,0.345,6.32,-0.49,11.14,4,0
18667.781,-0.894,0.201,0.34,6.93,-1.83,12.7,4,0
18667.796,-0.888,0.199,0.33,5.71,-2.26,14.44,4,0
18667.796,-0.885,0.188,0.325,3.51,-2.53,16.05,4,0
18667.812,-0.885,0.181,0.319,1.13,-2.56,17.64,4,0
18667.812,-0.884,0.169,0.317,-1.22,-2.62,18.83,4,0
18667.828,-0.886,0.158,0.311,-3.3,-2.38,19.35,4,0
18667.843,-0.887,0.148,0.31,-5.37,-1.92,19.32,4,0
18667.843,-0.892,0.136,0.31,-6.96,-1.43,18.59,4,0
18667.859,-0.9,0.127,0.315,-7.6,-1.04,17.37,4,0
18667.875,-0.907,0.125,0.32,-7.45,-1.5,15.63,4,0
18667.875,-0.911,0.13,0.325,-7.17,-1.89,13.37,4,0
18667.89,-0.917,0.129,0.326,-6.68,-1.83,10.93,4,0
18667.906,-0.925,0.133,0.329,-5.86,-1.65,8.55,4,0
18667.906,-0.929,0.141,0.331,-4.88,-1.83,6.56,4,0
18667.921,-0.928,0.152,0.328,-3.66,-2.26,4.76,4,0
18667.921,-0.918,0.166,0.324,-2.69,-1.95,3.27,4,0
18667.937,-0.907,0.176,0.324,-1.92,-0.7,2.47,4,0
18667.953,-0.902,0.184,0.327,-0.85,1.53,2.29,4,0
18667.953,-0.899,0.194,0.328,0.06,3.94,2.59,4,0
18667.968,-0.892,0.2,0.33,0.31,5.86,3.36,4,0
18668.0,-0.885,0.207,0.329,-0.21,7.97,4.27,4,0
18668.0,-0.882,0.21,0.333,-1.68,9.89,5.46,4,0
18668.015,-0.881,0.212,0.337,-4.06,11.41,6.93,4,0
18668.015,-0.876,0.215,0.339,-7.6,12.57,8.27,4,0
18668.015,-0.865,0.211,0.345,-11.72,13.46,9.37,4,0
18668.031,-0.862,0.202,0.355,-15.14,14.28,10.1,4,0
18668.031,-0.861,0.196,0.36,-17.73,14.56,10.65,4,0
18668.046,-0.863,0.195,0.366,-19.47,13.61,11.26,4,0
18668.062,-0.86,0.19,0.368,-20.51,12.67,11.96,4,0
18668.078,-0.864,0.182,0.37,-20.97,11.93,12.42,4,0
18668.078,-0.876,0.172,0.379,-21.09,11.26,12.76,4,0
18668.093,-0.88,0.166,0.388,-20.23,10.44,12.73,4,0
18668.093,-0.887,0.161,0.394,-18.43,9.52,11.93,4,0
18668.109,-0.896,0.153,0.399,-15.9,7.87,11.17,4,0
18668.125,-0.901,0.153,0.398,-13.09,5.25,10.25,4,0
18668.125,-0.905,0.151,0.392,-10.28,2.44,9.7,4,0
18668.14,-0.906,0.153,0.383,-7.66,0.18,8.82,4,0
18668.156,-0.904,0.153,0.371,-6.13,-1.65,8.09,4,0
18668.156,-0.898,0.159,0.364,-5.68,-2.17,7.05,4,0
18668.171,-0.9,0.166,0.36,-5.68,-1.71,5.52,4,0
18668.187,-0.901,0.17,0.363,-6.07,-0.85,4.09,4,0
18668.187,-0.906,0.175,0.369,-6.84,-0.46,3.17,4,0
18668.203,-0.91,0.183,0.378,-7.29,-1.46,2.62,4,0
18668.203,-0.91,0.185,0.383,-7.39,-3.51,2.29,4,0
18668.218,-0.908,0.186,0.388,-7.26,-6.01,2.2,4,0
18668.234,-0.908,0.192,0.393,-6.84,-9.03,1.86,4,0
18668.234,-0.912,0.199,0.396,-6.53,-12.54,1.4,4,0
18668.25,-0.913,0.201,0.399,-6.78,-16.85,1.34,4,0
18668.265,-0.903,0.198,0.403,-6.99,-20.69,1.37,4,0
18668.265,-0.901,0.197,0.405,-4.55,-27.13,1.65,4,0
18668.281,-0.899,0.191,0.41,-1.95,-30.88,1.8,4,0
18668.296,-0.898,0.185,0.419,0.95,-35.16,1.83,4,0
18668.296,-0.895,0.168,0.425,3.81,-39.95,1.56,4,0
18668.312,-0.892,0.166,0.419,6.87,-44.1,1.04,4,0
18668.312,-0.898,0.162,0.418,10.04,-46.69,0.49,4,0
18668.328,-0.907,0.165,0.435,13.37,-49.13,0.49,4,0
18668.343,-0.916,0.164,0.46,17.49,-52.89,1.07,4,0
18668.343,-0.924,0.162,0.482,22.46,-58.69,1.98,4,0
18668.359,-0.921,0.162,0.492,28.2,-65.52,3.45,4,0
18668.375,-0.908,0.162,0.489,32.96,-71.63,4.97,4,0
18668.375,-0.901,0.168,0.503,36.77,-76.82,5.49,4,0
18668.39,-0.893,0.155,0.499,42.51,-81.06,5.74,4,0
18668.406,-0.903,0.16,0.516,48.25,-84.11,6.38,4,0
18668.406,-0.893,0.153,0.5,53.99,-87.71,8.06,4,0
18668.421,-0.865,0.154,0.491,57.99,-89.82,8.67,4,0
18668.421,-0.859,0.154,0.494,61.83,-88.78,7.66,4,0
18668.437,-0.867,0.157,0.497,65.07,-88.78,4.88,4,0
18668.453,-0.862,0.158,0.505,67.2,-90.85,1.86,4,0
18668.468,-0.846,0.166,0.513,68.97,-92.96,-1.1,4,0
18668.468,-0.819,0.168,0.51,70.53,-93.05,-4.27,4,0
18668.484,-0.801,0.182,0.509,70.83,-90.06,-7.9,4,0
18668.484,-0.787,0.19,0.493,69.7,-85.45,-11.38,4,0
18668.5,-0.767,0.192,0.48,65.83,-80.48,-14.13,4,0
18668.515,-0.747,0.199,0.481,60.85,-73.0,-16.48,4,0
18668.515,-0.742,0.207,0.485,55.76,-64.88,-18.59,4,0
18668.531,-0.751,0.212,0.513,50.66,-58.81,-20.08,4,0
18668.546,-0.754,0.208,0.543,46.94,-54.75,-20.75,4,0
18668.546,-0.753,0.21,0.564,44.92,-51.67,-20.97,4,0
18668.562,-0.749,0.215,0.582,43.7,-49.87,-21.12,4,0
18668.562,-0.744,0.226,0.601,42.91,-48.46,-21.49,4,0
18668.578,-0.738,0.236,0.605,42.91,-46.72,-21.94,4,0
18668.593,-0.734,0.239,0.595,41.05,-44.77,-22.77,4,0
18668.593,-0.73,0.247,0.593,36.07,-43.98,-24.32,4,0
18668.609,-0.726,0.246,0.592,29.97,-43.15,-26.0,4,0
18668.625,-0.722,0.238,0.597,24.84,-42.05,-27.44,4,0
18668.625,-0.734,0.236,0.617,21.7,-40.41,-28.57,4,0
18668.64,-0.73,0.226,0.626,21.33,-39.49,-28.78,4,0
18668.656,-0.723,0.228,0.637,23.01,-38.03,-28.5,4,0
18668.656,-0.738,0.231,0.651,25.27,-36.07,-28.2,4,0
18668.671,-0.753,0.224,0.667,26.09,-36.19,-27.77,4,0
18668.671,-0.756,0.224,0.684,27.25,-37.32,-27.28,4,0
18668.687,-0.746,0.216,0.68,29.3,-37.93,-26.76,4,0
18668.703,-0.724,0.216,0.688,30.43,-37.42,-25.79,4,0
18668.703,-0.707,0.206,0.71,32.11,-35.55,-23.41,4,0
18668.718,-0.676,0.194,0.739,33.11,-33.75,-17.33,4,0
18668.734,-0.638,0.192,0.754,31.19,-31.22,-8.18,4,0
18668.734,-0.63,0.203,0.785,24.11,-27.62,1.95,4,0
18668.75,-0.675,0.214,0.862,13.98,-27.04,11.05,4,0
18668.765,-0.73,0.206,0.929,4.27,-33.14,20.02,4,0
18668.765,-0.751,0.209,0.937,-4.43,-44.62,29.3,4,0
18668.781,-0.718,0.222,0.895,-13.58,-57.53,36.29,4,0
18668.796,-0.685,0.222,0.831,-23.26,-66.47,39.4,4,0
18668.796,-0.643,0.215,0.778,-33.72,-71.14,40.44,4,0
18668.812,-0.613,0.195,0.743,-41.17,-70.35,38.42,4,0
18668.812,-0.594,0.152,0.711,-42.6,-63.11,35.58,4,0
18668.828,-0.585,0.146,0.705,-37.57,-53.99,31.95,4,0
18668.843,-0.609,0.133,0.707,-25.39,-42.24,27.71,4,0
18668.843,-0.609,0.132,0.709,-9.22,-31.5,24.78,4,0
18668.859,-0.59,0.175,0.706,7.87,-19.78,19.68,4,0
18668.875,-0.626,0.234,0.714,21.27,-8.82,10.9,4,0
18668.875,-0.679,0.28,0.718,27.83,-4.52,1.56,4,0
18668.89,-0.7,0.329,0.722,27.62,-7.17,-6.59,4,0
18668.906,-0.704,0.364,0.714,25.15,-12.73,-13.64,4,0
18668.906,-0.695,0.385,0.689,22.43,-18.49,-18.89,4,0
18668.921,-0.674,0.396,0.652,20.36,-22.89,-21.76,4,0
18668.921,-0.646,0.399,0.608,19.96,-25.09,-23.01,4,0
18668.937,-0.623,0.398,0.554,21.42,-24.08,-23.44,4,0
18668.953,-0.608,0.394,0.502,24.05,-19.59,-23.62,4,0
18668.968,-0.604,0.392,0.466,27.16,-12.45,-24.32,4,0
18668.968,-0.614,0.385,0.431,30.49,-3.78,-26.0,4,0
18668.984,-0.616,0.379,0.394,33.05,5.1,-28.66,4,0
18668.984,-0.626,0.401,0.401,34.46,13.86,-32.5,4,0
18669.0,-0.667,0.436,0.433,35.77,18.49,-37.23,4,0
18669.015,-0.689,0.473,0.463,36.71,17.76,-40.93,4,0
18669.015,-0.71,0.52,0.505,38.88,11.08,-43.49,4,0
18669.031,-0.703,0.544,0.52,44.43,-0.85,-44.28,4,0
18669.046,-0.678,0.567,0.507,50.17,-13.28,-43.06,4,0
18669.046,-0.649,0.587,0.481,55.06,-22.1,-40.53,4,0
18669.062,-0.616,0.579,0.437,59.05,-26.28,-36.5,4,0
18669.062,-0.591,0.569,0.385,61.13,-24.14,-31.53,4,0
18669.078,-0.581,0.555,0.327,60.67,-16.82,-26.06,4,0
18669.093,-0.579,0.523,0.282,57.16,-6.44,-20.66,4,0
18669.093,-0.573,0.485,0.257,51.85,5.19,-16.36,4,0
18669.109,-0.582,0.454,0.255,47.46,17.82,-14.01,4,0
18669.125,-0.619,0.419,0.274,46.27,29.05,-13.73,4,0
18669.125,-0.645,0.387,0.316,49.32,36.35,-13.61,4,0
18669.14,-0.663,0.387,0.36,56.52,41.14,-12.73,4,0
18669.156,-0.682,0.412,0.383,65.0,43.98,-11.41,4,0
18669.156,-0.697,0.428,0.397,71.44,43.98,-10.47,4,0
18669.171,-0.705,0.44,0.41,74.4,43.34,-8.85,4,0
18669.171,-0.714,0.455,0.408,73.4,44.43,-5.49,4,0
18669.187,-0.715,0.461,0.397,67.48,46.85,-1.22,4,0
18669.203,-0.709,0.453,0.387,56.67,51.64,3.54,4,0
18669.218,-0.701,0.438,0.39,43.03,59.33,8.03,4,0
18669.218,-0.716,0.408,0.404,28.32,68.3,11.99,4,0
18669.234,-0.721,0.374,0.428,14.56,75.59,15.81,4,0
18669.234,-0.714,0.36,0.455,3.72,84.26,17.67,4,0
18669.25,-0.729,0.35,0.483,-13.52,98.24,16.54,4,0
18669.265,-0.754,0.339,0.532,-17.4,101.99,15.53,4,0
18669.265,-0.785,0.341,0.591,-18.83,100.86,15.75,4,0
18669.281,-0.827,0.349,0.642,-20.23,93.14,17.46,4,0
18669.296,-0.822,0.365,0.708,-22.19,82.19,18.25,4,0
18669.296,-0.807,0.369,0.723,-23.68,72.05,16.88,4,0
18669.312,-0.791,0.361,0.715,-25.03,62.41,14.8,4,0
18669.312,-0.769,0.361,0.698,-25.94,54.6,13.15,4,0
18669.328,-0.746,0.361,0.672,-25.97,49.29,11.84,4,0
18669.343,-0.721,0.352,0.646,-25.51,47.27,10.56,4,0
18669.343,-0.708,0.352,0.621,-24.14,48.28,8.91,4,0
18669.359,-0.698,0.346,0.606,-22.89,50.26,6.59,4,0
18669.375,-0.687,0.335,0.6,-21.03,53.04,3.72,4,0
18669.375,-0.691,0.334,0.598,-18.13,57.19,-0.37,4,0
18669.39,-0.706,0.323,0.602,-15.11,61.37,-4.82,4,0
18669.39,-0.72,0.338,0.624,-12.42,63.48,-9.13,4,0
18669.406,-0.763,0.356,0.647,-9.43,63.14,-13.06,4,0
18669.421,-0.794,0.366,0.669,-7.02,59.05,-13.25,4,0
18669.421,-0.814,0.399,0.68,-5.62,51.45,-11.93,4,0
18669.437,-0.816,0.411,0.68,-7.05,41.26,-9.37,4,0
18669.453,-0.806,0.415,0.669,-11.14,30.95,-7.08,4,0
18669.453,-0.796,0.398,0.653,-16.21,21.39,-5.4,4,0
18669.468,-0.791,0.382,0.632,-19.84,14.47,-4.52,4,0
18669.484,-0.789,0.357,0.605,-21.94,9.0,-3.91,4,0
18669.484,-0.782,0.34,0.581,-23.19,5.62,-3.51,4,0
18669.5,-0.786,0.324,0.556,-23.71,3.57,-4.24,4,0
18669.515,-0.782,0.307,0.541,-23.26,2.5,-6.44,4,0
18669.515,-0.796,0.303,0.534,-21.58,1.31,-9.7,4,0
18669.531,-0.81,0.302,0.535,-19.44,0.18,-12.79,4,0
18669.531,-0.832,0.312,0.54,-17.09,-2.53,-15.69,4,0
18669.546,-0.845,0.318,0.545,-15.08,-7.2,-17.52,4,0
18669.562,-0.855,0.33,0.548,-13.95,-13.76,-19.2,4,0
18669.578,-0.852,0.338,0.548,-13.86,-20.54,-21.0,4,0
18669.578,-0.863,0.348,0.548,-14.71,-27.44,-23.13,4,0
18669.593,-0.865,0.358,0.553,-16.54,-35.13,-24.14,4,0
18669.593,-0.856,0.364,0.545,-18.62,-42.45,-24.32,4,0
18669.609,-0.844,0.364,0.531,-21.3,-49.26,-24.05,4,0
18669.625,-0.829,0.358,0.523,-23.77,-53.44,-23.19,4,0
