timestamp,ax,ay,az,gx,gy,gz,orient_label,motion_label
18861.156,0.318,0.938,-0.11,0.31,0.0,-4.27,4,3
18861.156,0.314,0.945,-0.114,-0.43,-1.89,-2.81,4,3
18861.171,0.324,0.948,-0.118,-1.37,-3.54,-0.85,4,3
18861.187,0.331,0.952,-0.122,-1.86,-4.12,0.76,4,3
18861.187,0.337,0.949,-0.124,-2.2,-4.0,2.01,4,3
18861.203,0.337,0.942,-0.123,-2.5,-3.48,2.78,4,3
18861.218,0.332,0.934,-0.113,-2.78,-3.2,2.93,4,3
18861.218,0.334,0.925,-0.11,-2.04,-3.39,2.32,4,3
18861.234,0.337,0.923,-0.116,-0.89,-3.75,1.5,4,3
18861.25,0.34,0.92,-0.12,0.27,-3.45,0.4,4,3
18861.25,0.34,0.918,-0.12,1.31,-2.81,-0.18,4,3
18861.265,0.329,0.927,-0.111,1.19,-2.47,-0.52,4,3
18861.281,0.325,0.928,-0.106,0.06,-3.6,0.0,4,3
18861.281,0.327,0.928,-0.107,-1.19,-5.1,0.76,4,3
18861.296,0.329,0.922,-0.111,-1.62,-6.35,1.62,4,3
18861.296,0.334,0.919,-0.114,-1.56,-7.08,2.62,4,3
18861.312,0.34,0.917,-0.119,-1.89,-7.54,3.39,4,3
18861.328,0.357,0.906,-0.116,-3.27,-7.14,3.72,4,3
18861.343,0.352,0.903,-0.114,-2.38,-6.16,3.05,4,3
18861.359,0.341,0.903,-0.113,-1.01,-5.34,2.11,4,3
18861.359,0.332,0.909,-0.115,-0.15,-5.62,0.98,4,3
18861.375,0.324,0.911,-0.127,-0.12,-6.44,0.15,4,3
18861.375,0.318,0.912,-0.135,-1.46,-7.54,0.15,4,3
18861.39,0.314,0.912,-0.143,-3.51,-8.79,1.19,4,3
18861.406,0.312,0.909,-0.156,-4.64,-9.52,2.87,4,3
18861.406,0.312,0.908,-0.172,-5.43,-9.06,4.97,4,3
18861.421,0.309,0.912,-0.185,-7.11,-8.51,6.62,4,3
18861.437,0.306,0.907,-0.198,-8.21,-7.6,7.72,4,3
18861.437,0.309,0.901,-0.211,-8.76,-6.29,8.24,4,3
18861.453,0.316,0.895,-0.221,-8.55,-4.24,8.48,4,3
18861.468,0.315,0.888,-0.23,-7.42,-1.59,8.55,4,3
18861.468,0.316,0.881,-0.239,-6.56,1.01,8.64,4,3
18861.484,0.32,0.872,-0.25,-5.95,3.54,8.39,4,3
18861.5,0.313,0.861,-0.267,-5.92,9.55,6.99,4,3
18861.515,0.303,0.86,-0.275,-6.99,12.12,7.39,4,3
18861.515,0.288,0.851,-0.294,-8.39,14.71,9.28,4,3
18861.531,0.279,0.837,-0.318,-10.22,17.12,13.03,4,3
18861.546,0.266,0.817,-0.35,-10.86,20.94,18.25,4,3
18861.562,0.261,0.79,-0.39,-9.77,26.22,24.63,4,3
18861.562,0.262,0.769,-0.424,-6.99,34.15,31.31,4,3
18861.578,0.252,0.76,-0.451,-4.73,43.79,36.44,4,3
18861.578,0.25,0.752,-0.502,-6.62,54.78,39.34,4,3
18861.593,0.243,0.759,-0.539,-12.91,66.68,40.41,4,3
18861.609,0.247,0.747,-0.564,-20.54,79.93,40.71,4,3
18861.609,0.25,0.73,-0.573,-29.88,93.39,39.49,4,3
18861.625,0.259,0.71,-0.572,-38.48,106.78,37.39,4,3
18861.64,0.267,0.677,-0.562,-43.58,120.09,34.24,4,3
18861.64,0.271,0.643,-0.544,-44.86,132.97,30.52,4,3
18861.656,0.276,0.61,-0.508,-40.89,146.0,27.22,4,3
18861.671,0.248,0.576,-0.45,-24.78,173.74,22.61,4,3
18861.687,0.234,0.572,-0.436,-21.0,188.57,21.64,4,3
18861.687,0.211,0.571,-0.427,-24.26,202.55,21.0,4,3
18861.703,0.176,0.591,-0.401,-32.65,216.47,19.1,4,3
18861.718,0.153,0.586,-0.358,-41.35,229.38,17.12,4,3
18861.718,0.136,0.565,-0.308,-48.4,240.73,16.94,4,3
18861.734,0.12,0.537,-0.269,-50.69,251.11,18.31,4,3
18861.75,0.108,0.508,-0.241,-46.24,260.66,20.02,4,3
18861.75,0.111,0.49,-0.227,-38.85,270.55,21.94,4,3
18861.765,0.115,0.509,-0.206,-32.26,283.09,20.97,4,3
18861.781,0.132,0.54,-0.185,-27.34,297.86,13.86,4,3
18861.781,0.002,0.496,-0.171,-26.52,313.97,5.43,4,3
18861.796,-0.021,0.478,-0.129,-29.42,329.36,4.36,4,3
18861.796,-0.061,0.558,-0.094,-28.93,343.97,-2.2,4,3
18861.812,-0.12,0.571,-0.068,-28.17,357.52,-7.45,4,3
18861.828,-0.185,0.582,-0.026,-35.62,365.61,-7.42,4,3
18861.828,-0.256,0.588,0.032,-49.68,369.73,-0.43,4,3
18861.843,-0.3,0.581,0.092,-65.92,371.47,12.63,4,3
18861.859,-0.341,0.566,0.125,-81.76,370.1,26.64,4,3
18861.859,-0.39,0.528,0.135,-99.31,364.18,42.45,4,3
18861.875,-0.407,0.489,0.158,-119.6,357.4,58.66,4,3
18861.89,-0.396,0.504,0.225,-140.48,352.43,70.47,4,3
18861.89,-0.378,0.548,0.319,-158.7,350.26,73.43,4,3
18861.906,-0.424,0.599,0.444,-173.47,348.49,69.28,4,3
18861.921,-0.494,0.592,0.573,-181.89,338.82,69.55,4,3
18861.921,-0.533,0.562,0.712,-181.22,325.6,76.2,4,3
18861.937,-0.603,0.536,0.853,-170.96,305.0,88.56,4,3
18861.953,-0.627,0.517,0.964,-155.0,277.2,105.72,4,3
18861.953,-0.605,0.522,1.026,-141.7,241.28,121.83,4,3
18861.968,-0.553,0.555,1.093,-139.93,202.22,137.46,4,3
18861.984,-0.486,0.606,1.137,-153.57,167.52,153.08,4,3
18861.984,-0.422,0.617,1.164,-178.23,140.51,168.0,4,3
18862.015,-0.244,0.48,1.275,-224.1,115.94,197.39,4,3
18862.015,-0.19,0.449,1.316,-223.33,115.05,211.19,4,3
18862.031,-0.208,0.508,1.357,-199.35,118.26,230.17,4,3
18862.031,-0.326,0.314,1.392,-163.73,118.17,246.38,4,3
18862.046,-0.345,0.289,1.465,-159.52,93.39,242.93,4,3
18862.062,-0.185,0.262,1.475,-155.4,75.08,238.32,4,3
18862.062,-0.216,0.208,1.465,-141.06,64.36,222.05,4,3
18862.078,-0.198,0.202,1.514,-130.22,54.48,201.85,4,3
18862.093,-0.099,0.182,1.579,-97.6,53.5,162.27,4,3
18862.093,-0.039,0.159,1.61,-74.65,54.99,137.46,4,3
18862.109,-0.041,0.191,1.651,-55.02,50.51,113.07,4,3
18862.109,-0.087,0.244,1.684,-39.83,37.97,93.54,4,3
18862.125,-0.064,0.37,1.648,-27.22,23.71,81.33,4,3
18862.125,-0.055,0.397,1.571,-14.62,9.64,74.8,4,3
18862.14,-0.028,0.441,1.473,-11.26,-1.5,71.99,4,3
18862.156,0.015,0.493,1.411,-17.73,-6.35,71.54,4,3
18862.171,0.007,0.485,1.352,-26.76,-7.32,71.29,4,3
18862.171,0.018,0.447,1.313,-34.91,-4.76,72.76,4,3
18862.187,0.051,0.403,1.277,-38.82,1.71,72.63,4,3
18862.187,0.047,0.349,1.243,-38.12,9.98,66.65,4,3
18862.203,0.025,0.309,1.226,-31.34,16.79,57.92,4,3
18862.218,0.008,0.274,1.194,-18.92,21.27,50.69,4,3
18862.218,-0.006,0.267,1.154,-6.74,23.68,43.12,4,3
18862.234,-0.044,0.298,1.111,1.1,22.52,32.93,4,3
18862.25,-0.069,0.339,1.103,-0.82,17.64,22.22,4,3
18862.25,-0.061,0.36,1.121,-8.85,10.16,12.94,4,3
18862.265,-0.049,0.356,1.168,-12.05,3.3,7.11,4,3
18862.265,-0.159,0.411,1.358,-0.95,-4.46,6.68,4,3
18862.281,-0.171,0.541,1.375,22.19,-23.68,20.42,4,3
18862.296,-0.006,0.539,1.272,25.27,-45.14,37.6,4,3
18862.296,0.052,0.506,1.092,19.56,-55.51,38.54,4,3
18862.312,0.052,0.484,0.898,7.23,-55.73,38.64,4,3
18862.328,0.073,0.505,0.864,-4.79,-46.85,41.57,4,3
18862.328,0.039,0.495,0.911,2.04,-34.52,44.53,4,3
18862.343,-0.013,0.395,0.92,9.89,-29.36,47.49,4,3
18862.359,-0.011,0.403,0.975,8.64,-29.57,51.27,4,3
18862.359,0.022,0.365,1.004,11.63,-31.19,54.51,4,3
18862.375,0.072,0.293,1.042,18.83,-31.86,57.25,4,3
18862.39,0.122,0.256,1.048,33.69,-30.49,59.88,4,3
18862.39,0.138,0.289,1.029,45.38,-29.27,60.18,4,3
18862.406,0.166,0.318,1.002,47.91,-27.71,58.6,4,3
18862.406,0.182,0.345,0.98,40.74,-25.88,54.2,4,3
18862.421,0.186,0.364,0.993,28.99,-24.48,46.82,4,3
18862.437,0.169,0.349,0.999,22.92,-23.96,38.15,4,3
18862.437,0.158,0.356,0.974,23.5,-24.72,33.05,4,3
18862.453,0.157,0.383,0.967,26.28,-25.48,31.07,4,3
18862.468,0.175,0.371,0.955,31.71,-23.65,32.75,4,3
18862.484,0.208,0.391,0.924,34.67,-20.2,37.81,4,3
18862.484,0.259,0.386,0.922,33.08,-13.28,41.23,4,3
18862.5,0.286,0.38,0.909,31.65,-3.33,43.43,4,3
18862.5,0.274,0.376,0.926,27.68,6.71,43.0,4,3
18862.515,0.242,0.332,0.961,21.58,13.03,38.42,4,3
18862.531,0.242,0.307,0.966,17.03,14.16,34.39,4,3
18862.531,0.241,0.304,0.964,10.8,12.63,27.68,4,3
18862.546,0.243,0.285,0.955,2.87,9.67,18.59,4,3
18862.546,0.21,0.274,0.949,-0.98,6.53,10.56,4,3
18862.562,0.184,0.273,0.927,-0.37,2.08,5.4,4,3
18862.578,0.173,0.301,0.887,0.79,-1.71,3.97,4,3
18862.578,0.146,0.308,0.858,3.91,-3.14,4.06,4,3
18862.593,0.159,0.298,0.804,8.09,-3.72,6.1,4,3
18862.609,0.222,0.357,0.81,9.98,0.95,9.98,4,3
18862.609,0.192,0.389,0.853,13.18,8.7,13.15,4,3
18862.625,0.155,0.4,0.873,16.24,11.69,17.03,4,3
18862.64,0.173,0.408,0.858,17.79,11.99,22.1,4,3
18862.64,0.175,0.396,0.883,16.63,13.76,24.75,4,3
18862.656,0.154,0.344,0.93,15.84,13.31,23.71,4,3
18862.656,0.151,0.311,0.97,15.53,8.55,19.59,4,3
18862.671,0.149,0.297,0.987,14.8,1.1,12.3,4,3
18862.687,0.162,0.286,0.963,13.37,-5.68,4.52,4,3
18862.687,0.189,0.286,0.933,10.96,-8.27,-2.56,4,3
18862.703,0.198,0.331,0.898,9.43,-5.34,-7.51,4,3
18862.718,0.206,0.351,0.879,8.3,0.82,-8.82,4,3
18862.718,0.191,0.372,0.916,8.09,7.39,-8.58,4,3
18862.734,0.15,0.395,0.958,10.01,8.67,-7.05,4,3
18862.734,0.149,0.392,0.923,9.77,4.36,-4.18,4,3
18862.75,0.172,0.378,0.89,5.89,0.85,-1.62,4,3
18862.765,0.172,0.353,0.877,3.94,-0.06,-0.49,4,3
18862.765,0.175,0.347,0.877,4.79,-0.03,0.55,4,3
18862.781,0.177,0.355,0.893,5.52,-0.37,1.53,4,3
18862.796,0.192,0.393,0.913,3.94,-0.85,2.87,4,3
18862.796,0.198,0.415,0.911,0.85,-1.46,5.34,4,3
18862.812,0.217,0.412,0.883,-3.14,-1.37,7.78,4,3
18862.828,0.227,0.406,0.894,-5.92,0.64,7.84,4,3
18862.828,0.209,0.411,0.911,-5.37,2.62,7.2,4,3
18862.843,0.202,0.407,0.893,-6.84,2.84,7.63,4,3
18862.859,0.196,0.393,0.881,-11.26,3.14,7.14,4,3
18862.859,0.179,0.377,0.894,-13.89,3.66,6.84,4,3
18862.875,0.157,0.385,0.905,-15.29,3.54,7.48,4,3
18862.89,0.16,0.391,0.927,-16.91,1.95,9.09,4,3
18862.89,0.156,0.382,0.935,-18.22,-0.15,11.29,4,3
18862.906,0.149,0.379,0.95,-19.38,-2.53,14.34,4,3
18862.906,0.157,0.335,0.911,-19.59,-5.31,18.52,4,3
18862.921,0.182,0.293,0.888,-20.36,-5.71,21.73,4,3
18862.937,0.201,0.247,0.897,-17.0,-4.73,20.87,4,3
18862.937,0.22,0.226,0.943,-10.83,-4.39,16.05,4,3
18862.953,0.221,0.241,0.965,-5.58,-5.92,8.73,4,3
18862.968,0.224,0.247,0.953,-3.75,-8.79,0.92,4,3
18862.968,0.253,0.265,0.952,-4.7,-11.81,-6.53,4,3
18862.984,0.309,0.303,0.958,-3.17,-13.28,-12.79,4,3
18863.0,0.314,0.361,0.938,-0.12,-11.2,-20.23,4,3
18863.0,0.26,0.412,0.947,-0.92,-7.66,-27.31,4,3
18863.015,0.26,0.408,0.917,-2.62,-5.04,-28.72,4,3
18863.015,0.247,0.398,0.91,-5.31,1.71,-26.06,4,3
18863.031,0.203,0.36,0.93,-5.22,11.17,-19.71,4,3
18863.046,0.191,0.323,0.93,-3.54,17.06,-11.29,4,3
18863.046,0.168,0.329,0.957,-5.89,20.97,-2.75,4,3
18863.062,0.138,0.319,0.963,-5.19,26.18,3.81,4,3
18863.078,0.084,0.285,0.957,2.78,15.78,12.82,4,3
18863.078,0.055,0.29,0.92,-0.18,2.81,15.08,4,3
18863.093,0.05,0.325,0.823,-10.25,-6.23,13.31,4,3
18863.109,0.058,0.326,0.785,-11.75,-8.61,7.81,4,3
18863.109,0.125,0.302,0.8,-4.03,-11.11,6.96,4,3
18863.125,0.189,0.303,0.805,1.92,-11.96,2.84,4,3
18863.14,0.258,0.269,0.834,3.69,-7.69,-3.27,4,3
18863.14,0.281,0.266,0.908,5.83,-0.55,-11.87,4,3
18863.156,0.296,0.331,0.944,12.67,5.89,-16.63,4,3
18863.156,0.226,0.421,1.029,17.33,10.99,-18.04,4,3
18863.171,0.17,0.432,1.153,17.49,5.71,-12.91,4,3
18863.187,0.283,0.403,1.117,8.51,-8.3,-7.11,4,3
18863.187,0.299,0.394,1.02,-6.26,-13.52,-9.74,4,3
18863.203,0.253,0.341,0.968,-13.12,-11.05,-10.83,4,3
18863.218,0.191,0.331,0.949,-7.87,-9.31,-7.02,4,3
18863.218,0.145,0.365,0.896,-2.17,-11.11,-1.19,4,3
18863.234,0.11,0.37,0.84,-6.78,-15.23,3.14,4,3
18863.25,0.104,0.334,0.818,-14.59,-19.17,7.57,4,3
18863.25,0.134,0.282,0.811,-14.83,-20.81,10.96,4,3
18863.265,0.148,0.26,0.843,-5.86,-18.92,12.63,4,3
18863.265,0.158,0.261,0.863,3.72,-17.03,14.07,4,3
18863.281,0.185,0.278,0.889,6.78,-15.35,14.37,4,3
18863.296,0.215,0.285,0.939,8.18,-13.89,13.52,4,3
18863.312,0.22,0.309,0.95,11.44,-13.12,12.97,4,3
18863.312,0.237,0.349,0.932,11.66,-12.33,14.07,4,3
18863.328,0.244,0.374,0.941,7.97,-10.62,14.68,4,3
18863.328,0.234,0.37,0.946,3.48,-10.04,14.4,4,3
18863.343,0.224,0.366,0.938,0.31,-10.59,14.16,4,3
18863.359,0.216,0.362,0.937,-0.03,-11.35,14.77,4,3
18863.359,0.218,0.362,0.914,0.64,-12.21,16.88,4,3
18863.375,0.232,0.354,0.878,-0.67,-11.87,19.14,4,3
18863.39,0.248,0.327,0.87,-3.91,-9.86,19.44,4,3
18863.39,0.251,0.298,0.884,-6.41,-7.51,17.67,4,3
18863.406,0.252,0.278,0.913,-7.6,-6.44,14.37,4,3
18863.406,0.252,0.274,0.944,-5.77,-6.38,10.62,4,3
18863.421,0.254,0.28,0.935,-1.95,-6.71,8.15,4,3
18863.437,0.264,0.303,0.924,-0.43,-6.35,6.9,4,3
18863.437,0.272,0.309,0.921,-0.21,-4.82,6.04,4,3
18863.453,0.26,0.312,0.914,0.0,-3.3,4.91,4,3
18863.468,0.249,0.321,0.897,-0.64,-2.69,3.85,4,3
18863.468,0.252,0.323,0.881,-2.04,-2.14,3.27,4,3
18863.484,0.26,0.316,0.891,-2.99,-0.85,2.56,4,3
18863.5,0.257,0.306,0.908,-2.29,0.4,1.53,4,3
18863.5,0.258,0.304,0.911,-0.43,0.98,0.49,4,3
18863.515,0.25,0.316,0.947,0.43,1.4,-0.73,4,3
18863.531,0.232,0.325,0.955,2.78,0.31,-0.55,4,3
18863.531,0.237,0.321,0.919,2.32,-1.31,0.98,4,3
18863.546,0.237,0.31,0.922,0.21,-0.98,1.34,4,3
18863.546,0.228,0.303,0.933,1.62,-1.25,1.65,4,3
18863.562,0.233,0.314,0.901,2.17,-2.41,2.38,4,3
18863.578,0.235,0.339,0.894,-0.43,-2.41,2.96,4,3
18863.578,0.227,0.354,0.913,-2.08,-2.01,4.7,4,3
18863.593,0.231,0.349,0.898,-3.63,-2.75,7.42,4,3
18863.609,0.25,0.338,0.881,-6.29,-3.42,8.64,4,3
18863.609,0.263,0.316,0.897,-7.48,-2.38,8.36,4,3
18863.625,0.261,0.312,0.922,-7.35,-1.19,7.87,4,3
18863.625,0.266,0.307,0.926,-7.11,-1.04,7.39,4,3
18863.64,0.257,0.312,0.947,-6.5,-1.04,6.26,4,3
18863.656,0.232,0.329,0.941,-5.89,-2.59,6.41,4,3
18863.656,0.222,0.353,0.92,-8.09,-4.94,8.06,4,3
18863.671,0.224,0.356,0.891,-11.99,-6.53,10.35,4,3
18863.687,0.235,0.354,0.876,-15.2,-6.5,12.6,4,3
18863.703,0.251,0.337,0.881,-19.87,-3.72,16.08,4,3
18863.718,0.253,0.308,0.88,-22.89,-1.95,16.75,4,3
18863.734,0.268,0.278,0.906,-24.35,0.06,16.85,4,3
18863.734,0.268,0.254,0.925,-23.16,2.35,16.36,4,3
18863.734,0.274,0.221,0.929,-21.61,3.57,15.75,4,3
18863.75,0.284,0.213,0.968,-18.77,4.61,13.7,4,3
18863.765,0.269,0.217,0.97,-13.37,4.52,11.93,4,3
18863.781,0.282,0.222,0.932,-10.59,2.66,11.32,4,3
18863.781,0.28,0.234,0.925,-9.09,2.69,9.52,4,3
18863.796,0.256,0.253,0.921,-6.32,3.02,8.0,4,3
18863.796,0.254,0.271,0.902,-6.23,2.35,7.9,4,3
18863.812,0.273,0.264,0.896,-8.15,2.69,8.24,4,3
18863.828,0.293,0.243,0.915,-8.15,4.55,6.74,4,3
18863.828,0.333,0.202,0.96,-6.32,6.62,2.29,4,3
18863.843,0.366,0.15,1.035,-1.74,8.67,-5.49,4,3
18863.859,0.354,0.132,1.093,8.03,8.97,-15.84,4,3
18863.875,0.278,0.214,1.012,15.96,3.33,-30.09,4,3
18863.89,0.283,0.29,0.944,10.32,2.23,-28.11,4,3
18863.89,0.288,0.371,0.903,2.44,6.87,-25.39,4,3
18863.906,0.238,0.453,0.902,-4.21,14.77,-18.34,4,3
18863.906,0.159,0.476,0.904,-18.13,21.27,-4.79,4,3
18863.921,0.138,0.397,0.872,-32.75,23.83,10.32,4,3
18863.937,0.142,0.293,0.829,-44.1,25.33,21.18,4,3
18863.953,0.142,0.192,0.855,-48.65,28.63,22.83,4,3
18863.953,0.102,0.127,0.929,-42.27,27.83,17.0,4,3
18863.968,0.036,0.13,0.909,-23.8,19.17,10.5,4,3
18863.968,0.034,0.155,0.826,-5.31,5.71,7.11,4,3
18863.984,0.094,0.189,0.793,5.52,-2.38,1.31,4,3
18864.0,0.024,0.249,0.853,12.33,-6.04,-5.58,4,3
18864.0,0.009,0.28,0.918,15.59,-13.92,-4.21,4,3
18864.015,0.098,0.274,0.961,11.14,-26.98,-0.58,4,3
18864.015,0.254,0.237,1.045,6.35,-36.74,0.61,4,3
18864.046,0.432,0.32,1.076,6.56,-33.57,0.67,4,3
18864.046,0.433,0.282,1.09,-2.17,-27.07,-5.22,4,3
18864.062,0.406,0.3,0.94,-5.95,-21.76,-4.46,4,3
18864.078,0.355,0.293,0.896,-0.27,-15.14,0.95,4,3
18864.078,0.305,0.254,0.87,3.23,-11.99,6.16,4,3
18864.093,0.234,0.286,0.778,-2.04,-8.88,8.73,4,3
18864.109,0.229,0.238,0.807,-7.51,-5.01,9.58,4,3
18864.109,0.277,0.186,0.878,-7.45,-3.08,9.98,4,3
18864.125,0.313,0.154,0.912,-1.34,-1.65,6.87,4,3
18864.125,0.355,0.141,0.912,3.14,1.71,1.01,4,3
18864.14,0.36,0.148,0.94,5.07,7.54,-6.84,4,3
18864.156,0.34,0.162,1.105,12.42,10.28,-10.53,4,3
18864.156,0.419,0.143,1.061,20.29,5.37,-12.21,4,3
18864.171,0.382,0.207,0.961,14.19,7.17,-21.61,4,3
18864.187,0.317,0.187,0.943,13.34,14.34,-28.32,4,3
18864.187,0.214,0.215,0.977,22.4,18.56,-29.69,4,3
18864.218,0.193,0.329,0.87,26.76,12.09,-23.8,4,3
18864.218,0.152,0.343,0.866,17.37,12.91,-21.0,4,3
18864.234,0.143,0.323,0.881,11.51,11.23,-15.11,4,3
18864.25,0.168,0.315,0.894,9.98,9.4,-8.97,4,3
18864.25,0.189,0.322,0.912,9.16,8.21,-4.7,4,3
18864.265,0.218,0.314,0.933,6.16,7.17,-1.98,4,3
18864.265,0.244,0.298,0.951,3.08,6.53,-1.34,4,3
18864.281,0.246,0.278,0.955,2.11,6.29,-2.38,4,3
18864.296,0.246,0.271,0.962,2.29,6.35,-4.18,4,3
18864.296,0.226,0.267,0.975,3.94,6.26,-6.41,4,3
18864.312,0.216,0.262,0.95,6.53,4.7,-6.71,4,3
18864.328,0.222,0.261,0.922,7.48,3.42,-6.68,4,3
18864.343,0.222,0.265,0.914,9.19,3.51,-7.51,4,3
18864.343,0.211,0.287,0.92,12.12,3.63,-7.93,4,3
18864.343,0.202,0.327,0.933,13.28,2.38,-6.99,4,3
18864.359,0.201,0.355,0.926,12.12,-0.09,-4.18,4,3
18864.375,0.215,0.358,0.905,4.73,-2.59,2.78,4,3
18864.39,0.221,0.331,0.916,1.43,-2.23,4.76,4,3
18864.406,0.218,0.306,0.928,0.03,-1.77,5.55,4,3
18864.406,0.222,0.285,0.928,-1.4,-1.95,5.28,4,3
18864.421,0.227,0.265,0.938,-2.38,-2.04,3.72,4,3
18864.437,0.226,0.248,0.934,-0.55,-1.8,2.14,4,3
18864.437,0.229,0.241,0.928,2.11,-1.13,0.43,4,3
18864.453,0.224,0.25,0.947,5.16,0.0,-1.68,4,3
18864.468,0.215,0.266,0.954,9.09,0.31,-2.96,4,3
18864.468,0.217,0.293,0.949,11.2,-0.18,-3.3,4,3
18864.484,0.213,0.326,0.951,11.51,-0.89,-3.57,4,3
18864.5,0.209,0.341,0.951,10.86,-1.86,-2.99,4,3
18864.5,0.208,0.346,0.938,10.07,-3.05,-1.34,4,3
18864.515,0.2,0.337,0.933,9.03,-4.3,0.24,4,3
18864.515,0.185,0.321,0.948,9.4,-6.04,1.86,4,3
18864.531,0.167,0.309,0.965,11.66,-10.07,4.64,4,3
18864.546,0.149,0.291,0.952,13.7,-16.39,7.57,4,3
18864.546,0.172,0.259,0.956,12.02,-23.53,10.56,4,3
18864.562,0.116,0.248,1.153,18.86,-31.74,11.47,4,3
18864.578,0.158,0.306,1.112,38.3,-46.88,20.29,4,3
18864.593,0.289,0.352,1.023,39.34,-59.42,22.03,4,3
18864.593,0.278,0.338,0.933,35.0,-64.36,11.99,4,3
18864.609,0.308,0.297,0.88,31.53,-64.58,6.04,4,3
18864.609,0.334,0.294,0.832,31.65,-60.37,1.22,4,3
18864.625,0.353,0.318,0.802,35.0,-52.49,-2.87,4,3
18864.64,0.355,0.351,0.798,40.16,-43.12,-4.64,4,3
18864.64,0.346,0.376,0.802,45.93,-34.24,-3.45,4,3
18864.656,0.338,0.407,0.813,50.94,-27.16,-1.19,4,3
18864.656,0.33,0.446,0.792,51.21,-22.61,2.11,4,3
18864.671,0.311,0.467,0.769,43.7,-18.49,5.01,4,3
18864.687,0.306,0.474,0.781,33.08,-15.14,9.43,4,3
18864.687,0.313,0.481,0.814,23.47,-13.52,14.62,4,3
18864.703,0.325,0.444,0.831,17.09,-13.79,18.22,4,3
18864.718,0.356,0.377,0.781,9.98,-12.18,17.85,4,3
18864.734,0.378,0.37,0.771,8.36,-7.08,16.33,4,3
18864.75,0.394,0.347,0.777,6.96,-0.98,13.0,4,3
18864.75,0.401,0.332,0.75,4.12,6.04,7.93,4,3
18864.765,0.399,0.323,0.753,3.66,15.96,3.48,4,3
18864.781,0.374,0.329,0.778,5.92,25.45,-0.21,4,3
18864.781,0.348,0.364,0.8,6.84,31.8,-3.2,4,3
18864.796,0.326,0.378,0.822,5.07,34.24,-5.77,4,3
18864.796,0.296,0.396,0.883,0.82,33.51,-8.45,4,3
18864.812,0.198,0.433,1.071,-1.98,26.34,-9.83,4,3
18864.828,0.232,0.357,1.098,0.4,6.29,-7.75,4,3
18864.843,0.322,0.3,0.918,1.25,-9.03,-12.97,4,3
18864.843,0.31,0.323,0.827,-1.34,-10.19,-23.68,4,3
18864.859,0.296,0.344,0.799,-3.14,-8.15,-28.57,4,3
18864.859,0.308,0.367,0.789,-8.42,-5.95,-30.27,4,3
18864.875,0.3,0.389,0.852,-18.49,-4.76,-35.07,4,3
18864.89,0.28,0.388,0.862,-25.12,-7.05,-39.92,4,3
18864.89,0.309,0.379,0.859,-30.49,-10.99,-42.91,4,3
18864.906,0.314,0.385,0.879,-32.41,-12.82,-47.36,4,3
18864.906,0.306,0.385,0.886,-28.23,-13.61,-49.1,4,3
18864.921,0.301,0.397,0.89,-22.1,-14.22,-47.67,4,3
18864.937,0.287,0.428,0.883,-16.48,-13.58,-44.19,4,3
18864.937,0.278,0.437,0.868,-13.37,-12.36,-39.19,4,3
18864.953,0.27,0.437,0.856,-13.4,-11.54,-35.07,4,3
18864.968,0.271,0.425,0.835,-15.56,-10.99,-33.08,4,3
18864.968,0.273,0.42,0.819,-18.28,-9.16,-31.46,4,3
18864.984,0.267,0.412,0.812,-20.75,-6.1,-29.85,4,3
18865.0,0.274,0.41,0.812,-23.41,-2.62,-27.65,4,3
18865.0,0.289,0.393,0.825,-26.31,1.04,-26.0,4,3
18865.015,0.294,0.365,0.851,-26.73,5.4,-25.06,4,3
18865.015,0.277,0.354,0.912,-22.89,9.22,-23.41,4,3
18865.031,0.261,0.362,0.956,-14.37,10.28,-20.48,4,3
18865.046,0.256,0.375,0.953,-2.41,5.4,-14.8,4,3
18865.062,0.252,0.363,0.91,-3.27,0.43,-15.35,4,3
18865.078,0.245,0.398,0.903,-3.17,-1.4,-14.86,4,3
18865.078,0.249,0.412,0.901,-2.38,-2.72,-12.57,4,3
18865.093,0.254,0.413,0.887,-1.62,-3.14,-9.09,4,3
18865.109,0.257,0.407,0.885,-0.64,-2.66,-5.34,4,3
18865.109,0.25,0.402,0.893,1.43,-1.43,-1.4,4,3
18865.125,0.236,0.392,0.906,2.96,-1.34,2.14,4,3
18865.125,0.242,0.383,0.894,2.53,-2.59,4.79,4,3
18865.14,0.259,0.373,0.878,1.5,-3.78,5.92,4,3
18865.156,0.271,0.361,0.862,1.1,-3.81,5.37,4,3
18865.156,0.276,0.367,0.865,0.15,-2.66,4.43,4,3
18865.171,0.282,0.376,0.884,0.18,-1.25,3.85,4,3
18865.187,0.261,0.375,0.909,3.45,-0.15,4.0,4,3
18865.187,0.233,0.404,0.947,5.77,-1.4,5.16,4,3
18865.203,0.222,0.415,0.933,7.14,-5.31,8.33,4,3
18865.218,0.225,0.396,0.889,5.98,-9.06,11.66,4,3
18865.218,0.246,0.396,0.87,3.57,-10.65,14.16,4,3
18865.234,0.26,0.402,0.869,1.95,-10.41,15.9,4,3
18865.25,0.268,0.396,0.868,0.18,-10.13,17.37,4,3
18865.25,0.277,0.387,0.856,-2.04,-9.74,19.04,4,3
18865.265,0.301,0.379,0.856,-3.2,-8.15,20.78,4,3
18865.265,0.308,0.373,0.84,-1.62,-5.89,21.33,4,3
18865.281,0.32,0.355,0.817,-2.66,-3.23,20.26,4,3
18865.296,0.334,0.324,0.829,-6.01,-0.24,16.51,4,3
18865.296,0.334,0.302,0.87,-7.42,2.08,11.11,4,3
18865.312,0.326,0.304,0.924,-5.34,2.08,5.43,4,3
18865.328,0.299,0.336,0.954,-0.24,-0.21,1.07,4,3
18865.328,0.276,0.352,0.904,4.0,-3.72,-0.37,4,3
18865.343,0.279,0.371,0.864,3.75,-5.13,-0.06,4,3
18865.359,0.279,0.391,0.864,3.05,-4.24,0.95,4,3
18865.359,0.275,0.397,0.867,2.26,-2.84,2.96,4,3
18865.375,0.276,0.399,0.87,0.43,-2.41,5.07,4,3
18865.39,0.279,0.4,0.887,-1.59,-2.62,6.26,4,3
18865.39,0.28,0.394,0.88,-2.59,-3.51,7.54,4,3
18865.406,0.293,0.376,0.852,-3.72,-3.91,8.85,4,3
18865.406,0.308,0.354,0.839,-4.91,-2.56,9.13,4,3
18865.421,0.317,0.324,0.853,-5.86,-0.43,7.42,4,3
18865.437,0.325,0.303,0.874,-5.07,1.53,4.46,4,3
18865.453,0.324,0.303,0.89,-2.69,2.78,1.01,4,3
18865.453,0.308,0.323,0.915,0.98,2.93,-2.47,4,3
18865.468,0.289,0.339,0.902,5.01,1.83,-4.27,4,3
18865.468,0.283,0.366,0.893,6.07,0.61,-4.27,4,3
18865.484,0.268,0.399,0.887,5.83,-0.12,-3.11,4,3
18865.5,0.271,0.407,0.866,3.33,-1.13,-0.64,4,3
18865.5,0.288,0.395,0.856,-0.43,-1.83,1.16,4,3
18865.515,0.301,0.382,0.855,-2.62,-1.28,1.77,4,3
18865.515,0.302,0.363,0.861,-4.18,-0.27,1.62,4,3
18865.531,0.309,0.347,0.869,-5.22,0.46,0.76,4,3
18865.546,0.313,0.328,0.876,-4.24,1.19,-0.67,4,3
18865.546,0.313,0.314,0.882,-1.62,2.14,-2.72,4,3
18865.562,0.303,0.315,0.904,1.62,2.96,-4.73,4,3
18865.578,0.289,0.331,0.906,4.91,2.96,-6.04,4,3
18865.578,0.277,0.361,0.897,6.56,1.77,-6.84,4,3
18865.593,0.277,0.384,0.883,6.9,0.27,-7.08,4,3
18865.609,0.275,0.404,0.87,6.23,-0.12,-6.16,4,3
18865.609,0.264,0.424,0.873,3.97,0.4,-4.12,4,3
18865.625,0.261,0.429,0.87,0.4,-0.03,-0.89,4,3
18865.625,0.273,0.407,0.864,-2.53,-0.58,2.2,4,3
18865.64,0.281,0.377,0.869,-4.52,-0.64,3.66,4,3
18865.656,0.291,0.354,0.88,-6.1,-0.61,4.21,4,3
18865.656,0.298,0.33,0.893,-5.89,-0.76,3.54,4,3
18865.671,0.297,0.313,0.902,-3.02,-0.76,1.77,4,3
18865.687,0.286,0.317,0.912,0.95,-0.79,0.46,4,3
18865.687,0.275,0.328,0.914,5.1,-1.04,0.0,4,3
18865.703,0.254,0.35,0.912,9.31,-1.43,0.03,4,3
18865.703,0.228,0.404,0.918,12.97,-3.23,1.59,4,3
18865.718,0.212,0.446,0.941,12.94,-8.73,4.73,4,3
18865.734,0.198,0.481,0.97,8.15,-17.27,9.19,4,3
18865.75,0.245,0.412,0.957,2.78,-35.8,23.41,4,3
18865.765,0.311,0.328,0.863,0.98,-42.45,25.51,4,3
18865.765,0.363,0.306,0.774,0.31,-40.56,23.44,4,3
18865.781,0.405,0.283,0.729,1.28,-31.77,20.14,4,3
18865.796,0.421,0.275,0.725,2.56,-20.66,14.74,4,3
18865.796,0.445,0.309,0.751,3.48,-10.16,9.86,4,3
18865.812,0.463,0.34,0.774,4.39,-0.92,5.31,4,3
18865.828,0.445,0.355,0.78,5.34,7.35,0.12,4,3
18865.828,0.401,0.368,0.8,5.13,14.37,-3.72,4,3
18865.843,0.356,0.377,0.817,4.36,18.89,-5.07,4,3
18865.859,0.313,0.402,0.863,2.38,20.51,-4.82,4,3
18865.859,0.287,0.411,0.9,-0.12,18.68,-2.99,4,3
18865.875,0.283,0.409,0.923,-2.08,14.4,-0.89,4,3
18865.875,0.281,0.388,0.918,-1.98,9.83,0.73,4,3
18865.89,0.286,0.358,0.892,-1.04,6.71,1.59,4,3
18865.906,0.306,0.348,0.871,0.21,6.2,1.92,4,3
18865.921,0.309,0.355,0.863,3.51,10.25,1.74,4,3
18865.937,0.313,0.366,0.879,2.87,10.62,1.74,4,3
18865.937,0.318,0.366,0.881,3.54,10.07,1.71,4,3
18865.953,0.319,0.36,0.879,4.52,9.28,0.76,4,3
18865.968,0.316,0.355,0.871,4.67,9.13,-1.34,4,3
18865.968,0.312,0.354,0.862,4.18,9.64,-3.51,4,3
18865.984,0.31,0.361,0.856,3.08,10.56,-5.86,4,3
18866.0,0.292,0.368,0.842,0.92,11.75,-8.0,4,3
18866.0,0.262,0.381,0.917,-0.92,11.99,-7.45,4,3
18866.015,0.287,0.356,0.943,0.46,7.26,-4.79,4,3
18866.015,0.296,0.363,0.919,3.08,1.89,-6.59,4,3
18866.031,0.281,0.363,0.896,4.91,0.34,-5.31,4,3
18866.046,0.291,0.367,0.881,6.47,0.15,-4.61,4,3
18866.046,0.291,0.37,0.879,8.67,0.37,-3.94,4,3
18866.062,0.283,0.393,0.869,8.82,0.21,-3.36,4,3
18866.078,0.281,0.404,0.861,6.96,-0.31,-3.63,4,3
18866.093,0.295,0.4,0.841,2.17,-0.21,-3.63,4,3
18866.109,0.293,0.398,0.839,0.52,1.19,-3.39,4,3
18866.109,0.286,0.395,0.848,-1.46,2.93,-2.96,4,3
18866.125,0.281,0.389,0.865,-3.33,3.75,-2.35,4,3
18866.14,0.286,0.375,0.897,-4.12,4.15,-1.89,4,3
18866.14,0.301,0.359,0.927,-2.44,4.0,-2.2,4,3
18866.156,0.314,0.327,0.954,0.34,2.5,-5.4,4,3
18866.156,0.311,0.296,0.992,4.39,-1.46,-12.3,4,3
18866.171,0.297,0.292,0.979,9.46,-8.3,-20.72,4,3
18866.187,0.273,0.313,0.888,13.18,-13.98,-25.88,4,3
18866.203,0.267,0.401,0.787,11.26,-15.53,-26.34,4,3
18866.203,0.296,0.489,0.745,6.26,-11.81,-24.2,4,3
18866.218,0.312,0.564,0.744,-1.98,-5.52,-21.27,4,3
18866.218,0.294,0.559,0.805,-11.84,0.27,-16.33,4,3
18866.234,0.254,0.482,0.821,-14.44,4.06,-9.52,4,3
18866.25,0.233,0.408,0.819,-16.66,8.36,-2.26,4,3
18866.265,0.227,0.353,0.867,-9.74,17.88,8.09,4,3
18866.265,0.221,0.363,0.914,-2.93,18.52,10.65,4,3
18866.281,0.239,0.373,0.929,-0.31,15.11,12.45,4,3
18866.296,0.265,0.352,0.896,-0.37,10.59,12.12,4,3
18866.296,0.272,0.334,0.873,-0.79,7.6,9.8,4,3
18866.312,0.263,0.333,0.879,0.46,4.73,8.45,4,3
18866.328,0.308,0.356,0.873,1.43,1.77,8.09,4,3
18866.328,0.282,0.395,0.896,2.01,1.19,6.38,4,3
18866.343,0.276,0.392,0.881,1.31,-2.38,7.11,4,3
18866.359,0.297,0.389,0.871,-2.32,-5.16,6.78,4,3
18866.359,0.302,0.398,0.885,-3.88,-5.89,5.49,4,3
18866.375,0.306,0.376,0.892,-2.84,-6.35,4.94,4,3
18866.375,0.299,0.359,0.901,-0.85,-6.29,2.9,4,3
18866.39,0.284,0.353,0.906,2.14,-6.23,0.46,4,3
18866.406,0.272,0.357,0.901,4.09,-7.17,-1.53,4,3
18866.406,0.267,0.368,0.892,4.61,-8.39,-3.48,4,3
18866.421,0.266,0.387,0.888,4.46,-9.25,-4.03,4,3
18866.437,0.261,0.403,0.878,3.81,-9.8,-3.66,4,3
18866.453,0.261,0.404,0.87,2.01,-10.5,-2.47,4,3
18866.453,0.269,0.41,0.879,-0.52,-10.93,-1.16,4,3
18866.468,0.276,0.415,0.882,-2.14,-11.51,-0.03,4,3
18866.468,0.282,0.399,0.881,-2.96,-11.93,1.13,4,3
18866.484,0.281,0.394,0.878,-3.05,-11.93,2.01,4,3
18866.5,0.284,0.384,0.878,-2.96,-12.24,2.72,4,3
18866.5,0.294,0.363,0.876,-2.53,-12.48,2.84,4,3
18866.515,0.299,0.357,0.879,-1.01,-12.33,2.5,4,3
18866.515,0.298,0.362,0.904,1.28,-12.33,2.26,4,3
18866.531,0.28,0.361,0.918,3.69,-13.92,1.62,4,3
18866.546,0.286,0.359,0.907,5.31,-16.97,1.04,4,3
18866.546,0.291,0.379,0.902,7.54,-19.1,1.13,4,3
18866.562,0.283,0.395,0.887,9.49,-20.72,2.01,4,3
18866.578,0.283,0.401,0.886,9.55,-22.22,3.57,4,3
18866.578,0.289,0.414,0.859,9.89,-23.26,6.2,4,3
18866.593,0.311,0.432,0.834,9.16,-22.46,9.8,4,3
18866.609,0.328,0.429,0.805,7.84,-19.93,12.6,4,3
18866.609,0.334,0.426,0.776,4.46,-15.93,15.08,4,3
18866.625,0.351,0.397,0.779,-0.31,-11.69,16.36,4,3
18866.625,0.366,0.374,0.789,-2.9,-6.87,16.11,4,3
18866.64,0.375,0.346,0.825,-2.53,-2.56,14.74,4,3
18866.656,0.361,0.343,0.867,0.98,0.64,12.67,4,3
18866.671,0.345,0.341,0.881,5.58,1.86,10.83,4,3
18866.671,0.341,0.343,0.885,9.58,1.53,9.37,4,3
18866.687,0.334,0.358,0.883,13.09,1.37,8.06,4,3
18866.687,0.33,0.369,0.871,15.44,1.16,7.51,4,3
18866.703,0.332,0.383,0.857,16.79,1.1,7.72,4,3
18866.718,0.33,0.4,0.851,18.19,1.13,8.85,4,3
18866.734,0.332,0.408,0.841,18.4,1.04,10.01,4,3
18866.734,0.334,0.413,0.829,17.09,1.71,10.53,4,3
18866.75,0.327,0.408,0.829,14.92,2.32,10.5,4,3
18866.75,0.313,0.409,0.828,12.76,2.96,10.74,4,3
18866.765,0.313,0.42,0.836,9.55,3.6,11.08,4,3
18866.781,0.296,0.442,0.848,5.89,2.44,10.65,4,3
18866.781,0.29,0.443,0.86,1.56,-1.25,11.9,4,3
18866.796,0.307,0.406,0.898,-3.02,-6.81,13.64,4,3
18866.796,0.35,0.361,0.879,-4.09,-12.27,13.37,4,3
18866.812,0.391,0.332,0.818,-2.2,-13.09,11.05,4,3
18866.828,0.421,0.297,0.773,0.03,-9.22,6.99,4,3
18866.843,0.445,0.281,0.766,1.01,-2.44,1.16,4,3
18866.843,0.439,0.313,0.771,1.77,6.04,-6.13,4,3
18866.859,0.446,0.372,0.777,4.7,14.16,-11.84,4,3
18866.859,0.38,0.409,0.814,5.43,19.78,-17.24,4,3
18866.875,0.353,0.437,0.85,3.54,20.39,-19.41,4,3
18866.89,0.324,0.435,0.851,6.62,20.91,-17.43,4,3
18866.89,0.306,0.438,0.842,7.2,21.45,-15.29,4,3
18866.906,0.309,0.435,0.826,4.27,21.91,-13.28,4,3
18866.906,0.306,0.408,0.81,1.4,23.56,-12.18,4,3
18866.921,0.319,0.391,0.8,-1.37,25.79,-12.02,4,3
18866.937,0.329,0.39,0.808,-4.18,28.69,-13.28,4,3
18866.937,0.318,0.396,0.839,-5.74,31.28,-15.69,4,3
18866.953,0.29,0.427,0.893,-7.26,31.59,-17.67,4,3
18866.968,0.224,0.451,0.95,-8.76,27.74,-18.28,4,3
18866.968,0.142,0.474,1.054,-7.51,17.0,-14.5,4,3
18866.984,0.195,0.426,1.012,-4.88,-0.92,-7.81,4,3
18867.0,0.244,0.393,0.923,-5.8,-11.69,-7.08,4,3
18867.0,0.261,0.375,0.872,-0.37,-13.58,-4.15,4,3
18867.015,0.278,0.385,0.862,1.37,-12.39,-3.17,4,3
18867.015,0.282,0.393,0.874,1.98,-13.49,-3.17,4,3
18867.031,0.277,0.409,0.883,1.71,-16.21,-3.02,4,3
18867.046,0.284,0.425,0.889,1.31,-18.71,-3.6,4,3
18867.046,0.277,0.412,0.885,0.4,-21.39,-3.36,4,3
18867.062,0.284,0.403,0.877,0.18,-23.56,-2.2,4,3
18867.078,0.291,0.397,0.872,0.58,-25.03,-1.98,4,3
18867.078,0.293,0.397,0.877,0.34,-26.49,-2.72,4,3
18867.093,0.301,0.406,0.87,0.58,-28.11,-3.23,4,3
18867.109,0.315,0.408,0.875,1.77,-29.42,-3.48,4,3
18867.109,0.315,0.409,0.864,3.48,-30.49,-3.97,4,3
18867.125,0.313,0.418,0.847,2.75,-31.34,-4.24,4,3
18867.125,0.315,0.42,0.838,-0.12,-32.23,-4.61,4,3
18867.14,0.324,0.418,0.827,-3.78,-33.45,-5.34,4,3
18867.156,0.336,0.42,0.821,-6.78,-33.85,-5.77,4,3
18867.171,0.341,0.423,0.822,-9.61,-33.66,-6.04,4,3
18867.171,0.355,0.403,0.814,-12.12,-32.99,-6.56,4,3
18867.187,0.369,0.38,0.811,-11.11,-30.88,-6.93,4,3
18867.187,0.377,0.391,0.805,-6.81,-27.56,-6.35,4,3
18867.203,0.381,0.406,0.794,-3.69,-23.26,-5.19,4,3
18867.218,0.379,0.395,0.781,-3.45,-18.89,-4.73,4,3
18867.218,0.388,0.378,0.771,-3.69,-14.47,-4.79,4,3
18867.234,0.399,0.368,0.77,-1.71,-9.16,-5.1,4,3
18867.234,0.395,0.368,0.786,1.83,-3.39,-5.49,4,3
18867.25,0.371,0.383,0.818,5.07,1.74,-5.89,4,3
18867.265,0.342,0.393,0.845,9.4,5.13,-4.85,4,3
18867.281,0.309,0.442,0.877,15.05,6.2,-1.56,4,3
18867.281,0.248,0.471,0.938,19.26,3.33,4.15,4,3
18867.296,0.25,0.462,1.0,21.55,-7.51,11.38,4,3
18867.296,0.323,0.437,0.945,26.4,-20.02,18.1,4,3
18867.312,0.35,0.374,0.837,27.07,-25.39,18.68,4,3
18867.328,0.364,0.318,0.755,24.9,-25.67,17.4,4,3
18867.328,0.443,0.319,0.721,22.52,-23.62,16.3,4,3
18867.343,0.525,0.368,0.721,25.03,-13.98,10.25,4,3
18867.359,0.5,0.397,0.711,27.56,-0.98,2.08,4,3
18867.359,0.503,0.417,0.716,27.28,8.48,-4.06,4,3
18867.375,0.464,0.445,0.705,27.13,16.85,-9.83,4,3
18867.39,0.427,0.47,0.718,25.51,24.66,-12.97,4,3
18867.39,0.383,0.5,0.758,21.97,30.46,-14.04,4,3
18867.406,0.351,0.517,0.788,17.52,31.83,-13.09,4,3
18867.421,0.327,0.522,0.8,12.48,30.64,-11.2,4,3
18867.421,0.307,0.513,0.806,7.32,28.72,-8.76,4,3
18867.437,0.3,0.496,0.815,2.9,25.06,-5.98,4,3
18867.437,0.311,0.475,0.821,-1.28,21.39,-3.97,4,3
18867.453,0.319,0.46,0.815,-4.7,18.83,-3.42,4,3
18867.468,0.328,0.451,0.809,-8.36,17.7,-3.17,4,3
18867.484,0.346,0.441,0.807,-11.44,17.73,-3.54,4,3
18867.484,0.363,0.426,0.796,-12.91,19.47,-4.7,4,3
18867.5,0.315,0.446,0.858,-11.9,23.01,-5.92,4,3
18867.5,0.278,0.429,0.951,-6.13,18.43,-3.81,4,3
18867.515,0.307,0.413,0.93,-2.04,8.82,-3.45,4,3
18867.531,0.306,0.408,0.896,-0.49,4.27,-7.29,4,3
18867.531,0.299,0.412,0.861,2.08,0.76,-10.1,4,3
18867.546,0.308,0.429,0.826,4.67,-1.07,-10.56,4,3
18867.546,0.316,0.453,0.795,6.04,-0.12,-9.98,4,3
18867.562,0.329,0.464,0.794,4.79,1.77,-9.37,4,3
18867.578,0.335,0.464,0.814,4.33,3.6,-9.19,4,3
18867.578,0.325,0.455,0.831,6.16,5.43,-9.09,4,3
18867.593,0.341,0.431,0.834,7.45,6.29,-9.43,4,3
18867.609,0.336,0.435,0.864,8.09,7.26,-12.3,4,3
18867.609,0.302,0.434,0.863,11.66,7.84,-14.44,4,3
18867.625,0.285,0.435,0.855,15.14,6.81,-13.79,4,3
18867.625,0.291,0.465,0.827,18.25,5.4,-12.6,4,3
18867.64,0.295,0.474,0.8,19.53,4.79,-11.51,4,3
18867.656,0.301,0.484,0.786,19.26,5.16,-9.46,4,3
18867.656,0.313,0.495,0.787,18.43,6.41,-7.54,4,3
18867.671,0.323,0.507,0.802,18.01,8.09,-6.68,4,3
18867.687,0.329,0.498,0.825,18.19,9.46,-6.5,4,3
18867.687,0.344,0.492,0.848,19.59,10.25,-6.74,4,3
18867.703,0.336,0.483,0.862,24.6,12.09,-7.23,4,3
18867.718,0.31,0.461,0.863,30.64,10.53,-7.63,4,3
18867.718,0.305,0.463,0.869,35.58,7.29,-9.49,4,3
18867.734,0.265,0.471,0.858,37.9,4.61,-13.18,4,3
18867.75,0.22,0.466,0.834,34.85,-1.13,-17.09,4,3
18867.75,0.181,0.459,0.925,27.16,-12.12,-20.23,4,3
18867.765,0.158,0.434,1.041,22.06,-32.72,-23.29,4,3
18867.765,0.207,0.412,1.01,21.49,-56.22,-26.37,4,3
18867.781,0.246,0.396,0.949,19.38,-72.3,-32.5,4,3
18867.796,0.272,0.378,0.901,17.27,-82.58,-40.38,4,3
18867.796,0.311,0.399,0.85,14.98,-89.69,-49.75,4,3
18867.812,0.326,0.438,0.805,10.74,-93.26,-60.85,4,3
18867.828,0.334,0.463,0.766,0.58,-95.95,-72.27,4,3
18867.843,0.358,0.515,0.734,-14.22,-98.85,-80.29,4,3
18867.843,0.429,0.535,0.72,-29.24,-99.31,-85.21,4,3
18867.859,0.45,0.514,0.686,-37.08,-95.34,-94.85,4,3
18867.875,0.452,0.537,0.668,-44.25,-88.6,-100.22,4,3
18867.875,0.46,0.549,0.685,-52.58,-80.48,-103.0,4,3
18867.89,0.452,0.556,0.718,-55.88,-73.31,-106.88,4,3
18867.89,0.421,0.578,0.73,-55.73,-67.96,-106.27,4,3
18867.906,0.405,0.592,0.732,-56.64,-64.42,-102.79,4,3
18867.921,0.399,0.603,0.724,-62.87,-64.15,-100.22,4,3
18867.921,0.388,0.575,0.702,-72.82,-64.88,-101.17,4,3
18867.937,0.392,0.522,0.693,-78.49,-64.91,-104.4,4,3
18867.937,0.396,0.477,0.677,-76.45,-63.54,-109.29,4,3
18867.953,0.387,0.457,0.635,-69.43,-58.66,-114.14,4,3
18867.968,0.378,0.453,0.625,-59.45,-49.53,-116.31,4,3
18867.984,0.348,0.471,0.677,-46.08,-38.12,-115.21,4,3
18867.984,0.294,0.495,0.716,-27.28,-29.36,-111.27,4,3
18868.0,0.246,0.539,0.72,-2.01,-24.84,-97.57,4,3
18868.0,0.217,0.579,0.72,-5.52,-26.95,-92.81,4,3
18868.015,0.201,0.607,0.726,-15.29,-30.55,-88.72,4,3
18868.031,0.198,0.622,0.744,-25.33,-34.27,-84.23,4,3
18868.031,0.206,0.629,0.802,-31.71,-37.39,-80.66,4,3
18868.046,0.19,0.621,0.793,-36.32,-39.89,-77.24,4,3
18868.062,0.183,0.582,0.784,-45.59,-40.5,-72.73,4,3
18868.062,0.197,0.55,0.83,-53.01,-39.12,-67.08,4,3
18868.078,0.176,0.52,0.88,-43.4,-35.86,-62.23,4,3
18868.078,0.151,0.522,0.879,-25.54,-35.1,-58.93,4,3
18868.093,0.145,0.542,0.855,-15.75,-36.68,-58.32,4,3
18868.109,0.139,0.542,0.858,-14.89,-42.05,-57.34,4,3
18868.109,0.14,0.562,0.863,-17.0,-46.3,-58.66,4,3
18868.14,0.166,0.555,0.813,-24.17,-54.57,-56.89,4,3
18868.14,0.205,0.56,0.782,-27.16,-52.77,-51.85,4,3
18868.156,0.234,0.543,0.743,-30.95,-46.6,-45.2,4,3
18868.156,0.262,0.509,0.721,-36.56,-36.81,-37.63,4,3
18868.171,0.275,0.465,0.736,-40.96,-24.9,-31.04,4,3
18868.187,0.281,0.42,0.761,-39.58,-12.91,-26.12,4,3
18868.187,0.276,0.388,0.788,-32.69,-2.11,-23.99,4,3
18868.203,0.267,0.381,0.811,-23.56,6.59,-26.09,4,3
18868.218,0.254,0.375,0.835,-16.39,11.66,-32.84,4,3
18868.218,0.255,0.374,0.849,-11.69,12.97,-40.89,4,3
18868.234,0.266,0.38,0.861,-6.53,13.43,-48.19,4,3
18868.25,0.288,0.37,0.862,3.27,14.89,-52.86,4,3
18868.25,0.293,0.408,0.881,15.72,18.25,-55.18,4,3
18868.265,0.247,0.541,0.917,27.44,18.19,-51.67,4,3
18868.281,0.239,0.674,0.924,30.49,14.19,-42.3,4,3
18868.281,0.278,0.667,0.861,32.29,10.56,-30.24,4,3
18868.312,0.196,0.75,0.825,24.32,2.72,-12.18,4,3
18868.312,0.217,0.667,0.746,21.42,0.06,-2.59,4,3
18868.328,0.187,0.596,0.705,16.27,0.61,2.93,4,3
18868.328,0.191,0.587,0.716,8.73,0.73,5.55,4,3
18868.343,0.181,0.568,0.713,6.44,1.25,6.56,4,3
18868.359,0.158,0.569,0.74,4.85,0.95,6.78,4,3
18868.375,0.146,0.586,0.808,3.45,-2.23,7.84,4,3
18868.375,0.156,0.598,0.861,2.99,-9.03,10.62,4,3
18868.375,0.191,0.603,0.891,3.14,-16.33,14.31,4,3
18868.39,0.225,0.603,0.92,3.54,-22.49,17.4,4,3
18868.406,0.224,0.59,0.943,2.87,-28.26,19.1,4,3
18868.421,0.203,0.594,0.905,0.37,-36.84,21.36,4,3
18868.421,0.284,0.537,0.773,1.74,-40.8,25.54,4,3
18868.437,0.28,0.405,0.724,8.97,-36.19,25.79,4,3
18868.437,0.289,0.52,0.732,-0.31,-32.59,24.05,4,3
18868.453,0.343,0.48,0.656,2.14,-25.88,23.07,4,3
18868.468,0.364,0.423,0.635,2.69,-0.34,8.18,4,3
18868.484,0.352,0.448,0.68,4.36,10.8,1.16,4,3
18868.5,0.324,0.478,0.75,5.55,18.56,-4.88,4,3
18868.5,0.27,0.533,0.862,5.68,19.84,-9.89,4,3
18868.515,0.224,0.581,0.941,5.25,12.42,-11.78,4,3
18868.531,0.215,0.598,0.962,4.12,-0.24,-11.14,4,3
18868.531,0.223,0.585,0.909,5.46,-11.81,-10.19,4,3
18868.546,0.245,0.569,0.835,5.49,-19.99,-8.7,4,3
18868.546,0.258,0.556,0.772,4.52,-23.1,-6.5,4,3
18868.562,0.272,0.543,0.709,5.55,-21.39,-4.12,4,3
18868.578,0.288,0.54,0.667,6.01,-16.08,-2.84,4,3
18868.578,0.301,0.532,0.644,5.01,-8.24,-3.11,4,3
18868.593,0.311,0.54,0.645,2.93,1.07,-4.7,4,3
18868.609,0.307,0.558,0.688,0.24,9.31,-6.16,4,3
18868.609,0.282,0.578,0.764,-2.32,14.1,-6.93,4,3
18868.625,0.249,0.598,0.823,-4.09,13.92,-5.92,4,3
18868.64,0.231,0.592,0.877,-9.8,2.75,-2.47,4,3
18868.656,0.228,0.568,0.857,-9.0,-3.57,-1.46,4,3
18868.656,0.237,0.545,0.816,-7.45,-8.03,0.49,4,3
18868.671,0.255,0.529,0.779,-5.62,-9.06,2.38,4,3
18868.687,0.268,0.523,0.751,-3.6,-6.9,3.85,4,3
18868.687,0.274,0.507,0.731,-2.78,-3.36,3.57,4,3
18868.703,0.304,0.495,0.73,-3.51,0.15,1.98,4,3
18868.718,0.314,0.492,0.735,-4.3,4.55,-1.65,4,3
18868.734,0.323,0.478,0.733,-2.75,8.73,-6.2,4,3
18868.734,0.322,0.479,0.736,0.43,13.64,-10.56,4,3
18868.75,0.28,0.512,0.775,1.22,16.85,-14.37,4,3
18868.75,0.252,0.578,0.841,-4.18,15.2,-16.05,4,3
18868.765,0.24,0.574,0.85,-5.98,10.59,-15.78,4,3
18868.781,0.227,0.558,0.838,-4.06,6.81,-14.68,4,3
18868.781,0.217,0.565,0.82,-1.65,4.73,-11.87,4,3
18868.796,0.22,0.561,0.793,0.37,3.81,-8.33,4,3
18868.796,0.218,0.552,0.778,-0.73,4.09,-5.92,4,3
18868.812,0.225,0.543,0.779,-3.27,4.91,-4.58,4,3
18868.828,0.24,0.54,0.792,-5.07,5.86,-3.94,4,3
18868.828,0.258,0.539,0.81,-5.22,6.99,-4.15,4,3
18868.843,0.309,0.509,0.77,-3.23,9.34,-5.37,4,3
18868.859,0.171,0.501,0.809,-1.16,12.6,-10.41,4,3
18868.859,0.175,0.668,0.918,-13.06,6.16,-8.51,4,3
18868.875,0.238,0.569,0.843,-5.86,-4.0,-3.39,4,3
18868.89,0.217,0.549,0.792,-2.04,-5.34,-2.81,4,3
18868.89,0.218,0.585,0.807,0.06,-4.88,0.12,4,3
18868.906,0.197,0.581,0.816,4.49,-4.97,3.36,4,3
18868.906,0.176,0.594,0.85,3.08,-8.09,6.62,4,3
18868.921,0.188,0.578,0.88,1.77,-13.7,10.32,4,3
18868.937,0.184,0.568,0.902,2.23,-20.78,12.79,4,3
18868.937,0.162,0.551,0.912,1.13,-29.24,14.92,4,3
18868.953,0.226,0.591,0.83,-5.58,-39.03,17.06,4,3
18868.968,0.296,0.446,0.717,-0.24,-38.79,19.07,4,3
18868.968,0.253,0.465,0.782,-3.63,-33.94,16.91,4,3
18868.984,0.311,0.511,0.728,6.56,-27.28,15.81,4,3
18869.0,0.347,0.437,0.665,7.17,-16.75,11.6,4,3
18869.0,0.366,0.47,0.655,11.41,-5.37,7.93,4,3
18869.015,0.364,0.489,0.653,13.73,5.01,4.85,4,3
18869.015,0.351,0.511,0.675,12.51,13.79,1.92,4,3
18869.031,0.33,0.537,0.719,10.99,20.14,-1.01,4,3
18869.046,0.285,0.575,0.799,9.19,21.94,-4.18,4,3
18869.046,0.252,0.603,0.878,3.6,16.97,-4.79,4,3
18869.062,0.234,0.601,0.908,-2.78,7.78,-4.15,4,3
18869.078,0.224,0.568,0.882,-3.78,-1.28,-3.75,4,3
18869.078,0.236,0.552,0.841,-2.96,-8.06,-2.5,4,3
18869.093,0.255,0.545,0.799,-2.59,-11.87,-1.01,4,3
18869.109,0.269,0.528,0.753,-2.01,-11.84,0.43,4,3
18869.109,0.283,0.517,0.718,-1.43,-8.55,1.28,4,3
18869.125,0.296,0.517,0.704,-1.16,-3.11,1.1,4,3
18869.14,0.301,0.525,0.715,-1.92,2.04,0.58,4,3
18869.14,0.305,0.529,0.731,-3.33,6.35,-0.12,4,3
18869.156,0.305,0.531,0.753,-3.88,10.1,-1.16,4,3
18869.156,0.29,0.541,0.796,-2.11,12.54,-2.17,4,3
18869.171,0.269,0.548,0.821,1.37,12.67,-1.59,4,3
18869.187,0.247,0.556,0.838,4.21,11.05,0.24,4,3
18869.203,0.226,0.564,0.856,5.37,7.29,1.98,4,3
18869.203,0.221,0.569,0.861,3.97,1.37,3.2,4,3
18869.218,0.226,0.56,0.841,1.89,-4.55,3.6,4,3
18869.218,0.242,0.539,0.809,0.21,-8.85,3.33,4,3
18869.234,0.267,0.527,0.781,-1.16,-10.86,3.02,4,3
18869.25,0.288,0.518,0.754,-1.59,-10.07,2.56,4,3
18869.25,0.304,0.514,0.738,-0.73,-7.39,2.08,4,3
18869.265,0.307,0.52,0.741,0.06,-3.69,1.1,4,3
18869.281,0.304,0.528,0.753,0.34,-0.7,-0.06,4,3
18869.281,0.295,0.536,0.771,-0.15,1.28,-1.19,4,3
18869.296,0.28,0.55,0.805,-0.79,1.59,-2.35,4,3
18869.296,0.263,0.554,0.823,0.09,-0.18,-2.62,4,3
18869.312,0.252,0.551,0.82,0.98,-2.93,-1.59,4,3
18869.328,0.256,0.545,0.809,1.53,-5.1,-0.58,4,3
18869.328,0.263,0.536,0.789,2.44,-6.41,-0.06,4,3
18869.343,0.269,0.528,0.766,2.84,-6.5,0.21,4,3
18869.359,0.287,0.53,0.752,1.98,-5.28,0.52,4,3
18869.359,0.294,0.525,0.741,1.4,-2.81,-0.27,4,3
18869.375,0.302,0.525,0.735,0.92,-0.12,-1.13,4,3
18869.39,0.302,0.53,0.739,0.73,2.93,-2.35,4,3
18869.39,0.301,0.536,0.754,-0.15,5.46,-3.72,4,3
18869.406,0.281,0.551,0.784,-0.85,7.02,-4.97,4,3
18869.421,0.261,0.569,0.824,-0.98,6.04,-5.04,4,3
18869.421,0.25,0.571,0.842,-1.16,2.69,-3.81,4,3
18869.437,0.239,0.56,0.835,-0.52,-1.13,-2.59,4,3
18869.437,0.243,0.55,0.818,0.09,-4.52,-1.19,4,3
18869.453,0.255,0.536,0.791,0.52,-6.41,-0.27,4,3
18869.468,0.273,0.533,0.766,0.76,-6.29,0.52,4,3
18869.468,0.282,0.528,0.751,1.01,-4.58,0.61,4,3
18869.484,0.293,0.532,0.743,0.76,-1.98,0.43,4,3
18869.5,0.292,0.536,0.748,0.12,0.64,-0.31,4,3
18869.5,0.292,0.541,0.764,-0.98,2.29,-1.37,4,3
18869.515,0.284,0.548,0.779,-1.13,3.08,-2.32,4,3
18869.531,0.277,0.547,0.786,-0.15,3.27,-2.32,4,3
18869.531,0.274,0.545,0.784,0.43,3.02,-1.77,4,3
18869.546,0.277,0.539,0.774,0.61,3.05,-1.5,4,3
18869.546,0.277,0.539,0.773,0.79,3.6,-1.83,4,3
18869.562,0.277,0.543,0.778,1.59,4.64,-1.95,4,3
18869.578,0.275,0.544,0.78,3.08,5.77,-1.25,4,3
18869.578,0.261,0.546,0.779,4.91,6.99,-0.52,4,3
18869.593,0.245,0.558,0.795,5.22,7.29,0.4,4,3
18869.609,0.232,0.579,0.825,2.08,4.94,1.16,4,3
18869.609,0.232,0.582,0.831,-3.11,-0.06,0.82,4,3
18869.625,0.242,0.553,0.813,-5.8,-4.85,0.67,4,3
18869.64,0.26,0.541,0.792,-6.01,-7.11,1.25,4,3
18869.64,0.269,0.536,0.778,-5.22,-6.93,1.77,4,3
18869.656,0.275,0.527,0.763,-4.43,-5.65,1.86,4,3
18869.656,0.281,0.513,0.757,-3.3,-3.78,1.62,4,3
18869.671,0.29,0.52,0.758,-2.9,-1.59,0.82,4,3
18869.687,0.289,0.52,0.764,-1.86,0.64,-0.37,4,3
18869.687,0.285,0.527,0.776,-0.49,2.2,-1.4,4,3
18869.703,0.277,0.536,0.789,0.7,3.08,-2.14,4,3
18869.718,0.264,0.548,0.807,1.92,3.33,-2.66,4,3
18869.718,0.252,0.558,0.831,3.51,2.14,-2.35,4,3
18869.734,0.245,0.564,0.847,5.65,-0.52,-1.01,4,3
18869.75,0.241,0.557,0.838,8.48,-3.88,1.13,4,3
18869.75,0.247,0.541,0.805,10.5,-6.68,2.9,4,3
18869.765,0.263,0.534,0.771,11.57,-7.45,4.43,4,3
18869.781,0.276,0.538,0.745,12.67,-5.92,5.37,4,3
18869.781,0.287,0.539,0.732,11.51,-3.36,5.55,4,3
18869.796,0.289,0.537,0.734,7.97,-0.61,4.21,4,3
18869.796,0.284,0.54,0.757,4.94,1.25,2.32,4,3
18869.812,0.281,0.55,0.776,3.17,1.53,0.73,4,3
18869.828,0.278,0.56,0.785,1.98,0.79,-0.34,4,3
18869.828,0.271,0.566,0.794,0.85,-0.31,-0.79,4,3
18869.843,0.261,0.562,0.802,1.16,-1.89,-0.79,4,3
18869.859,0.256,0.561,0.797,2.04,-3.57,-0.24,4,3
18869.859,0.258,0.558,0.788,2.44,-5.13,0.18,4,3
18869.875,0.263,0.553,0.772,2.17,-6.23,0.4,4,3
18869.89,0.267,0.55,0.76,1.34,-6.16,0.18,4,3
18869.89,0.277,0.553,0.755,-0.15,-5.8,-0.06,4,3
18869.906,0.285,0.558,0.753,-1.46,-4.85,-0.15,4,3
18869.921,0.287,0.554,0.754,-2.38,-3.45,-0.12,4,3
18869.921,0.287,0.553,0.75,-2.9,-2.08,0.03,4,3
18869.937,0.293,0.545,0.75,-3.36,-0.55,0.15,4,3
18869.937,0.293,0.542,0.752,-4.67,1.1,-0.73,4,3
18869.953,0.282,0.539,0.77,-4.67,2.78,-1.74,4,3
18869.968,0.264,0.555,0.808,-3.08,1.37,-1.65,4,3
18869.968,0.252,0.565,0.828,-1.86,-1.98,-0.95,4,3
18869.984,0.245,0.565,0.828,-1.4,-5.4,-0.37,4,3
18870.0,0.254,0.546,0.808,-2.17,-8.27,-0.09,4,3
18870.0,0.263,0.538,0.782,-1.37,-9.92,0.64,4,3
18870.015,0.278,0.539,0.759,0.4,-9.58,1.56,4,3
18870.015,0.289,0.542,0.748,0.76,-7.9,1.74,4,3
18870.031,0.283,0.547,0.757,0.58,-5.92,1.37,4,3
18870.046,0.279,0.562,0.775,-0.92,-5.34,1.28,4,3
18870.046,0.269,0.573,0.79,-2.29,-6.01,1.25,4,3
18870.062,0.257,0.576,0.806,-3.85,-8.21,1.89,4,3
18870.078,0.258,0.579,0.82,-6.9,-11.87,3.14,4,3
18870.093,0.263,0.571,0.819,-10.07,-15.96,3.91,4,3
18870.093,0.276,0.535,0.791,-10.65,-19.59,4.33,4,3
18870.109,0.301,0.509,0.754,-9.8,-20.29,4.33,4,3
18870.109,0.34,0.488,0.716,-6.96,-16.39,3.2,4,3
18870.125,0.4,0.455,0.66,-1.56,-7.51,-0.12,4,3
18870.14,0.453,0.42,0.61,1.83,6.16,-5.83,4,3
18870.14,0.461,0.38,0.609,5.65,23.16,-14.95,4,3
18870.156,0.414,0.342,0.616,17.67,40.31,-25.18,4,3
18870.156,0.299,0.386,0.713,27.01,53.74,-33.45,4,3
18870.171,0.185,0.648,0.941,3.42,49.01,-40.56,4,3
18870.187,0.089,0.706,1.113,-11.41,29.45,-41.44,4,3
18870.187,0.03,0.744,1.165,-6.13,-1.19,-36.01,4,3
18870.203,0.154,0.637,1.012,16.39,-26.55,-20.08,4,3
18870.218,0.195,0.566,0.827,36.65,-35.25,-8.51,4,3
18870.234,0.187,0.567,0.751,43.43,-33.91,-1.74,4,3
18870.234,0.194,0.571,0.724,41.44,-33.39,0.7,4,3
18870.25,0.195,0.628,0.714,30.85,-33.45,2.47,4,3
18870.25,0.202,0.677,0.735,18.01,-34.61,5.95,4,3
18870.265,0.253,0.71,0.694,8.55,-36.29,12.67,4,3
18870.281,0.279,0.619,0.644,7.11,-30.82,17.55,4,3
18870.281,0.262,0.644,0.68,-7.08,-26.73,17.3,4,3
18870.296,0.316,0.626,0.7,-13.86,-26.0,19.47,4,3
18870.296,0.337,0.591,0.673,-5.74,-20.75,24.87,4,3
18870.312,0.359,0.574,0.664,-2.08,-13.73,28.17,4,3
18870.328,0.358,0.568,0.67,0.55,-6.81,28.66,4,3
18870.328,0.351,0.554,0.677,1.95,-1.56,27.56,4,3
18870.343,0.354,0.548,0.679,-0.34,1.71,25.03,4,3
18870.359,0.357,0.541,0.693,-4.94,4.46,21.42,4,3
18870.359,0.358,0.541,0.715,-9.52,6.65,17.4,4,3
18870.375,0.356,0.529,0.73,-12.12,8.12,13.7,4,3
18870.39,0.351,0.519,0.743,-12.51,9.52,10.07,4,3
18870.39,0.343,0.517,0.759,-11.08,10.65,6.96,4,3
18870.406,0.334,0.517,0.77,-8.3,11.41,4.49,4,3
18870.406,0.319,0.514,0.77,-5.52,11.84,2.47,4,3
18870.421,0.309,0.515,0.781,-3.54,11.72,0.43,4,3
18870.437,0.298,0.524,0.801,-1.65,11.32,-1.4,4,3
18870.437,0.276,0.537,0.816,0.76,9.92,-2.47,4,3
18870.453,0.257,0.553,0.831,1.89,6.59,-2.56,4,3
18870.468,0.259,0.561,0.838,0.46,1.34,-2.5,4,3
18870.468,0.27,0.558,0.821,-0.43,-3.45,-2.56,4,3
18870.484,0.281,0.543,0.785,1.19,-6.16,-2.17,4,3
18870.5,0.293,0.537,0.754,3.36,-6.87,-1.5,4,3
18870.5,0.306,0.549,0.741,5.07,-5.58,-0.92,4,3
18870.515,0.315,0.558,0.736,5.58,-3.94,-0.76,4,3
18870.531,0.322,0.561,0.728,4.76,-2.23,-0.82,4,3
18870.531,0.326,0.56,0.727,4.12,-0.49,-1.22,4,3
18870.546,0.327,0.563,0.736,3.51,1.1,-1.77,4,3
18870.546,0.322,0.575,0.751,3.17,2.14,-2.11,4,3
18870.562,0.313,0.576,0.761,3.42,2.44,-1.8,4,3
18870.578,0.298,0.579,0.771,3.45,1.77,-1.1,4,3
18870.578,0.295,0.58,0.77,2.59,0.27,-0.34,4,3
18870.593,0.299,0.572,0.756,1.16,-1.07,-0.09,4,3
18870.609,0.3,0.562,0.744,0.18,-1.28,-0.06,4,3
18870.609,0.303,0.559,0.739,-0.61,-0.58,0.09,4,3
18870.625,0.312,0.558,0.734,-1.22,0.52,-0.03,4,3
18870.64,0.315,0.554,0.732,-1.56,2.01,-0.4,4,3
18870.64,0.309,0.552,0.741,-1.65,3.81,-0.85,4,3
18870.656,0.305,0.556,0.754,-1.46,4.91,-1.22,4,3
18870.656,0.299,0.562,0.77,-1.07,5.19,-1.53,4,3
18870.671,0.291,0.562,0.777,0.0,4.73,-1.34,4,3
18870.687,0.284,0.562,0.78,1.04,3.78,-0.92,4,3
18870.687,0.286,0.56,0.78,1.46,2.26,-0.7,4,3
18870.703,0.288,0.563,0.783,1.53,0.76,-0.79,4,3
18870.718,0.286,0.564,0.777,2.56,-0.49,-0.67,4,3
18870.718,0.285,0.567,0.768,2.96,-1.59,0.0,4,3
18870.734,0.29,0.572,0.764,2.32,-2.66,0.64,4,3
18870.734,0.294,0.572,0.762,1.31,-3.57,0.73,4,3
18870.75,0.299,0.569,0.755,0.15,-4.12,0.64,4,3
18870.765,0.303,0.563,0.749,-0.27,-4.21,0.73,4,3
18870.765,0.309,0.558,0.747,-0.18,-4.03,0.82,4,3
18870.781,0.316,0.554,0.74,-0.09,-3.42,0.43,4,3
18870.796,0.317,0.551,0.74,-0.03,-2.08,-0.46,4,3
18870.812,0.315,0.55,0.745,0.58,-0.52,-1.31,4,3
18870.812,0.303,0.552,0.754,1.8,0.55,-1.8,4,3
18870.828,0.291,0.564,0.777,2.56,0.21,-1.89,4,3
18870.828,0.284,0.573,0.792,2.08,-1.74,-2.29,4,3
18870.843,0.277,0.576,0.797,1.53,-4.46,-2.38,4,3
18870.859,0.277,0.57,0.791,1.92,-7.26,-1.77,4,3
18870.859,0.284,0.564,0.779,2.44,-9.43,-0.92,4,3
18870.875,0.296,0.562,0.762,2.26,-10.56,-0.31,4,3
18870.89,0.303,0.56,0.747,2.04,-10.5,-0.43,4,3
18870.89,0.311,0.557,0.745,1.98,-9.8,-0.82,4,3
18870.906,0.311,0.558,0.742,2.29,-8.97,-1.25,4,3
18870.906,0.307,0.569,0.739,2.35,-8.51,-1.59,4,3
18870.921,0.313,0.573,0.744,2.08,-8.24,-1.46,4,3
18870.937,0.319,0.564,0.742,2.11,-7.66,-1.13,4,3
18870.953,0.319,0.566,0.745,2.75,-5.83,-1.46,4,3
18870.953,0.326,0.568,0.736,4.21,-4.61,-1.98,4,3
18870.968,0.326,0.552,0.722,3.3,-3.3,-2.9,4,3
18870.968,0.323,0.563,0.721,2.81,-2.04,-3.42,4,3
18870.984,0.311,0.568,0.742,3.11,-1.07,-3.72,4,3
18871.0,0.304,0.576,0.748,3.02,-0.95,-3.57,4,3
18871.0,0.302,0.581,0.756,2.78,-1.37,-3.14,4,3
18871.015,0.299,0.58,0.758,2.53,-1.95,-2.72,4,3
18871.031,0.295,0.58,0.764,1.59,-2.93,-2.11,4,3
18871.031,0.296,0.58,0.762,0.92,-4.15,-1.59,4,3
18871.046,0.297,0.577,0.757,0.58,-5.43,-1.04,4,3
18871.046,0.303,0.574,0.752,0.46,-6.65,-0.4,4,3
18871.062,0.308,0.574,0.744,0.34,-7.08,-0.21,4,3
18871.078,0.314,0.567,0.734,0.55,-6.74,-0.09,4,3
18871.078,0.324,0.563,0.718,1.34,-5.46,-0.18,4,3
18871.093,0.331,0.563,0.716,2.17,-3.66,-0.82,4,3
18871.109,0.334,0.57,0.717,2.47,-1.19,-1.62,4,3
18871.109,0.332,0.568,0.72,3.17,1.31,-2.11,4,3
18871.125,0.321,0.572,0.739,3.54,3.14,-2.38,4,3
18871.14,0.314,0.577,0.75,4.46,3.94,-2.62,4,3
18871.14,0.308,0.582,0.742,5.34,3.88,-2.66,4,3
18871.156,0.293,0.594,0.757,4.33,3.27,-2.47,4,3
18871.156,0.291,0.592,0.774,2.08,1.22,-2.23,4,3
18871.171,0.294,0.583,0.771,0.55,-0.95,-2.38,4,3
18871.187,0.298,0.58,0.758,1.01,-1.83,-1.86,4,3
18871.187,0.306,0.573,0.747,3.27,-1.89,-0.85,4,3
18871.203,0.306,0.574,0.742,4.88,-1.28,-0.15,4,3
18871.218,0.3,0.581,0.745,4.94,-1.1,0.06,4,3
18871.218,0.3,0.58,0.746,3.88,-1.86,-0.15,4,3
18871.234,0.298,0.575,0.756,3.63,-2.87,-0.15,4,3
18871.25,0.292,0.583,0.77,3.81,-4.58,0.0,4,3
18871.25,0.299,0.587,0.781,3.81,-6.74,0.31,4,3
18871.265,0.299,0.585,0.791,5.25,-8.64,0.43,4,3
18871.265,0.29,0.574,0.779,8.58,-10.65,0.92,4,3
18871.281,0.292,0.568,0.758,10.74,-12.82,1.5,4,3
18871.296,0.305,0.564,0.737,11.14,-14.37,1.62,4,3
18871.312,0.31,0.563,0.726,10.32,-15.17,0.58,4,3
18871.312,0.319,0.565,0.728,9.13,-15.63,-0.49,4,3
18871.328,0.332,0.574,0.736,8.79,-15.63,-1.1,4,3
18871.328,0.329,0.581,0.737,10.13,-15.41,-1.53,4,3
18871.343,0.324,0.586,0.74,12.15,-15.72,-1.46,4,3
18871.359,0.326,0.594,0.741,13.12,-16.6,-1.62,4,3
18871.359,0.332,0.598,0.739,13.52,-17.85,-1.95,4,3
18871.375,0.329,0.592,0.736,14.56,-18.25,-2.17,4,3
18871.39,0.324,0.584,0.739,17.7,-18.25,-1.43,4,3
18871.39,0.32,0.6,0.753,22.06,-18.28,-0.76,4,3
18871.406,0.316,0.625,0.757,24.69,-19.59,-0.89,4,3
18871.406,0.317,0.642,0.751,22.74,-21.76,-1.83,4,3
18871.421,0.32,0.648,0.754,18.16,-23.8,-3.11,4,3
18871.437,0.324,0.653,0.761,14.86,-25.88,-3.48,4,3
18871.437,0.328,0.662,0.76,12.24,-28.2,-2.99,4,3
18871.453,0.34,0.661,0.757,8.61,-31.4,-2.2,4,3
18871.468,0.358,0.657,0.756,3.85,-35.13,-1.86,4,3
18871.468,0.371,0.645,0.741,-0.15,-38.06,-2.69,4,3
18871.484,0.395,0.623,0.72,-2.11,-39.58,-4.97,4,3
18871.5,0.403,0.593,0.679,-0.76,-36.29,-12.24,4,3
18871.5,0.332,0.626,0.738,5.89,-27.62,-31.95,4,3
18871.515,0.239,0.633,0.777,17.06,-30.18,-43.03,4,3
18871.515,0.194,0.643,0.769,25.85,-36.62,-47.27,4,3
18871.531,0.187,0.689,0.784,32.14,-47.0,-47.67,4,3
18871.546,0.215,0.714,0.78,37.6,-56.83,-44.16,4,3
18871.546,0.28,0.735,0.752,37.2,-63.2,-40.25,4,3
18871.562,0.341,0.741,0.724,32.87,-64.06,-37.66,4,3
18871.578,0.366,0.735,0.691,29.42,-60.88,-36.38,4,3
18871.593,0.346,0.728,0.669,27.89,-54.81,-34.94,4,3
18871.593,0.32,0.714,0.675,27.74,-49.13,-31.65,4,3
18871.609,0.28,0.713,0.683,26.18,-46.45,-28.17,4,3
18871.609,0.254,0.711,0.694,21.45,-47.94,-25.67,4,3
18871.625,0.252,0.694,0.709,15.41,-52.67,-24.05,4,3
18871.64,0.276,0.672,0.714,11.51,-57.56,-23.29,4,3
18871.64,0.301,0.65,0.71,10.68,-61.25,-23.53,4,3
18871.656,0.334,0.629,0.702,11.63,-62.75,-24.11,4,3
18871.671,0.36,0.616,0.692,12.7,-62.11,-25.94,4,3
18871.671,0.378,0.601,0.684,14.8,-59.91,-28.53,4,3
18871.687,0.379,0.584,0.691,16.88,-56.92,-31.19,4,3
18871.687,0.383,0.577,0.698,17.58,-54.78,-33.94,4,3
18871.703,0.382,0.584,0.703,14.92,-53.44,-37.08,4,3
18871.718,0.377,0.573,0.712,8.82,-53.9,-40.77,4,3
18871.718,0.392,0.544,0.727,3.36,-54.96,-43.95,4,3
18871.734,0.432,0.518,0.737,0.21,-54.05,-46.27,4,3
18871.75,0.475,0.495,0.743,-2.32,-50.66,-47.94,4,3
18871.75,0.532,0.458,0.767,-7.75,-44.68,-47.91,4,3
18871.765,0.563,0.413,0.828,-19.23,-37.29,-45.01,4,3
18871.765,0.513,0.384,0.896,-36.87,-31.83,-42.24,4,3
18871.781,0.383,0.363,0.955,-57.99,-33.2,-43.67,4,3
18871.796,0.236,0.349,1.025,-77.97,-45.17,-52.86,4,3
18871.796,0.129,0.338,1.071,-88.81,-67.9,-71.84,4,3
18871.812,0.079,0.319,1.049,-83.5,-96.29,-99.8,4,3
18871.828,0.062,0.322,0.961,-60.49,-123.2,-134.31,4,3
18871.843,0.046,0.364,0.825,-22.22,-142.92,-172.77,4,3
18871.843,0.009,0.467,0.621,23.74,-152.99,-210.97,4,3
18871.859,-0.047,0.635,0.417,63.11,-153.32,-242.1,4,3
18871.859,-0.113,0.819,0.258,85.63,-146.98,-260.72,4,3
18871.875,-0.142,0.975,0.158,91.13,-136.66,-264.9,4,3
18871.89,-0.135,1.041,0.102,87.28,-122.23,-256.57,4,3
18871.89,-0.11,1.007,0.069,83.8,-104.07,-242.1,4,3
18871.906,-0.047,0.98,0.068,85.24,-82.92,-226.33,4,3
18871.906,0.016,0.98,0.096,88.38,-60.49,-213.66,4,3
18871.921,0.066,0.996,0.123,89.3,-39.55,-206.03,4,3
18871.937,0.057,1.12,0.158,68.36,-4.61,-178.93,4,3
18871.937,0.043,1.228,0.222,48.65,3.69,-157.11,4,3
18871.953,0.066,1.306,0.335,31.31,6.87,-127.45,4,3
18871.968,0.031,1.545,0.481,8.0,4.09,-92.35,4,3
18871.984,0.03,1.52,0.509,-19.23,-4.49,-57.41,4,3
18871.984,0.063,1.455,0.487,-37.05,-14.25,-26.7,4,3
18872.0,0.13,1.385,0.45,-40.71,-21.15,-3.72,4,3
18872.0,0.191,1.307,0.436,-37.6,-25.09,9.74,4,3
18872.015,0.206,1.219,0.422,-33.08,-28.63,13.52,4,3
18872.031,0.207,1.147,0.411,-24.69,-32.75,10.77,4,3
18872.031,0.188,1.085,0.405,-11.75,-38.24,1.86,4,3
18872.046,0.172,1.008,0.402,3.66,-46.72,-11.96,4,3
18872.062,0.168,0.951,0.391,20.05,-57.68,-27.59,4,3
18872.062,0.141,0.92,0.355,36.74,-69.49,-45.66,4,3
18872.078,0.092,0.896,0.296,52.03,-80.69,-64.64,4,3
18872.078,0.051,0.881,0.257,65.89,-90.64,-81.06,4,3
18872.093,0.008,0.935,0.186,80.36,-96.65,-92.84,4,3
18872.109,-0.004,0.987,0.119,88.75,-99.12,-99.89,4,3
18872.109,0.024,0.996,0.071,91.53,-97.48,-102.18,4,3
18872.125,0.041,1.009,0.045,91.22,-92.32,-101.54,4,3
18872.14,0.034,1.003,0.054,90.15,-87.34,-98.97,4,3
18872.14,0.002,0.967,0.065,91.19,-84.17,-95.95,4,3
18872.156,-0.013,0.936,0.063,93.08,-83.29,-92.99,4,3
18872.171,-0.023,0.914,0.034,93.91,-83.22,-90.76,4,3
18872.171,-0.054,0.916,-0.018,91.46,-81.0,-87.19,4,3
18872.187,-0.047,0.9,-0.057,84.99,-77.09,-80.39,4,3
18872.187,-0.022,0.879,-0.073,79.29,-70.5,-71.75,4,3
18872.203,-0.029,0.885,-0.071,77.06,-59.97,-63.2,4,3
18872.218,-0.046,0.876,-0.035,76.42,-49.04,-56.0,4,3
18872.218,-0.084,0.865,0.011,78.65,-40.28,-50.29,4,3
18872.234,-0.152,0.892,0.056,82.13,-34.06,-45.23,4,3
18872.25,-0.194,0.914,0.095,83.22,-32.35,-41.44,4,3
18872.265,-0.208,0.926,0.122,81.97,-32.59,-40.86,4,3
18872.265,-0.218,0.923,0.132,79.93,-33.2,-42.05,4,3
18872.281,-0.189,0.939,0.129,77.58,-33.39,-42.73,4,3
18872.281,-0.173,0.949,0.124,75.81,-30.76,-42.05,4,3
18872.296,-0.18,0.948,0.124,74.22,-27.13,-39.64,4,3
18872.296,-0.214,0.942,0.114,72.3,-22.95,-35.71,4,3
18872.312,-0.214,0.939,0.106,68.85,-19.04,-30.34,4,3
18872.328,-0.228,0.947,0.109,63.05,-14.83,-24.81,4,3
18872.343,-0.237,0.936,0.113,55.21,-11.57,-18.4,4,3
18872.343,-0.209,0.946,0.123,45.75,-9.13,-10.96,4,3
18872.359,-0.2,0.943,0.13,35.19,-6.32,-3.88,4,3
18872.359,-0.205,0.911,0.13,25.18,-4.36,3.36,4,3
18872.375,-0.219,0.881,0.121,17.49,-2.66,10.8,4,3
18872.39,-0.219,0.861,0.121,11.63,-1.65,17.7,4,3
18872.39,-0.196,0.848,0.128,7.02,-1.92,23.53,4,3
18872.406,-0.179,0.829,0.126,3.94,-2.75,26.52,4,3
18872.406,-0.151,0.818,0.14,2.75,-4.39,27.99,4,3
18872.421,-0.147,0.824,0.147,1.98,-6.53,27.74,4,3
18872.437,-0.155,0.801,0.146,1.25,-9.7,26.06,4,3
18872.453,-0.157,0.79,0.141,1.37,-13.37,23.93,4,3
18872.453,-0.151,0.787,0.129,1.77,-16.97,20.23,4,3
18872.468,-0.145,0.778,0.114,1.83,-20.72,14.92,4,3
18872.468,-0.136,0.781,0.107,2.53,-24.14,8.82,4,3
18872.484,-0.134,0.804,0.119,3.2,-27.53,2.69,4,3
18872.5,-0.144,0.813,0.124,3.11,-32.17,-3.23,4,3
18872.5,-0.144,0.821,0.13,3.36,-37.39,-8.61,4,3
18872.515,-0.149,0.828,0.134,5.1,-42.6,-13.76,4,3
18872.531,-0.154,0.824,0.115,9.58,-47.18,-19.14,4,3
18872.531,-0.148,0.844,0.092,14.71,-50.42,-24.66,4,3
18872.546,-0.152,0.86,0.078,18.74,-52.19,-31.59,4,3
18872.546,-0.171,0.862,0.066,21.61,-53.19,-38.21,4,3
18872.562,-0.176,0.88,0.058,22.0,-54.45,-43.55,4,3
18872.578,-0.185,0.908,0.059,21.52,-55.79,-48.07,4,3
18872.593,-0.19,0.932,0.058,22.06,-57.07,-51.58,4,3
18872.593,-0.18,0.968,0.058,22.86,-58.53,-53.74,4,3
18872.609,-0.171,1.005,0.054,24.78,-59.88,-55.18,4,3
18872.609,-0.177,1.042,0.047,27.04,-61.37,-55.76,4,3
18872.625,-0.189,1.07,0.026,29.88,-62.81,-54.63,4,3
18872.64,-0.197,1.108,-0.006,32.87,-63.45,-51.21,4,3
18872.64,-0.205,1.161,-0.044,34.42,-62.47,-45.78,4,3
18872.656,-0.214,1.216,-0.075,31.92,-60.34,-38.06,4,3
18872.671,-0.212,1.254,-0.094,26.52,-57.77,-27.99,4,3
18872.671,-0.207,1.277,-0.113,22.0,-54.45,-16.54,4,3
18872.687,-0.197,1.293,-0.13,20.17,-50.23,-4.49,4,3
18872.687,-0.193,1.3,-0.141,20.08,-45.99,7.17,4,3
18872.703,-0.202,1.312,-0.148,21.76,-41.93,17.67,4,3
18872.718,-0.214,1.314,-0.151,25.18,-38.09,26.31,4,3
18872.718,-0.232,1.318,-0.128,30.52,-36.16,33.75,4,3
18872.734,-0.265,1.33,-0.09,41.05,-36.59,40.56,4,3
18872.75,-0.287,1.333,-0.113,57.07,-39.61,46.63,4,3
18872.75,-0.279,1.35,-0.145,74.5,-44.19,53.44,4,3
18872.765,-0.304,1.367,-0.189,92.41,-49.53,61.71,4,3
18872.781,-0.243,1.434,-0.26,105.44,-57.01,72.42,4,3
18872.781,-0.205,1.521,-0.356,110.57,-58.32,80.94,4,3
18872.796,-0.158,1.532,-0.43,106.72,-55.15,89.57,4,3
18872.796,-0.135,1.512,-0.483,102.15,-45.32,99.09,4,3
18872.812,-0.099,1.497,-0.513,100.01,-31.25,109.74,4,3
18872.828,-0.067,1.473,-0.503,97.51,-14.62,120.24,4,3
18872.828,-0.051,1.437,-0.47,93.6,1.56,130.56,4,3
18872.843,-0.016,1.391,-0.419,87.22,14.74,140.51,4,3
18872.859,0.026,1.325,-0.357,79.2,23.5,148.93,4,3
18872.859,0.092,1.26,-0.295,72.6,27.47,155.16,4,3
18872.875,0.185,1.199,-0.238,67.93,27.77,157.75,4,3
18872.89,0.28,1.132,-0.206,64.33,25.91,155.74,4,3
18872.89,0.358,1.07,-0.179,60.3,23.19,150.43,4,3
18872.906,0.409,1.008,-0.15,56.64,21.06,143.04,4,3
18872.906,0.429,0.949,-0.116,52.28,14.25,127.17,4,3
18872.921,0.418,0.879,-0.095,52.71,9.03,120.82,4,3
18872.937,0.4,0.841,-0.091,51.55,1.95,115.42,4,3
18872.937,0.391,0.81,-0.094,47.55,-6.62,109.01,4,3
18872.953,0.392,0.705,-0.153,41.41,-14.62,101.29,4,3
18872.968,0.396,0.661,-0.191,35.04,-21.36,91.4,4,3
18872.968,0.4,0.622,-0.227,30.03,-27.01,79.23,4,3
18872.984,0.407,0.605,-0.243,27.22,-31.71,64.82,4,3
18873.0,0.388,0.618,-0.216,25.27,-36.38,49.78,4,3
18873.0,0.355,0.578,-0.19,25.64,-43.55,37.23,4,3
18873.015,0.335,0.565,-0.194,29.08,-52.0,28.99,4,3
18873.031,0.344,0.566,-0.224,32.44,-59.36,22.89,4,3
18873.031,0.341,0.572,-0.265,30.73,-63.54,16.17,4,3
18873.046,0.314,0.58,-0.271,23.19,-65.8,8.3,4,3
18873.046,0.277,0.587,-0.253,15.99,-68.73,0.43,4,3
18873.062,0.263,0.595,-0.235,11.99,-72.82,-5.22,4,3
18873.078,0.259,0.618,-0.235,11.32,-76.17,-9.06,4,3
18873.093,0.239,0.649,-0.24,10.16,-77.39,-12.79,4,3
18873.093,0.184,0.677,-0.243,6.16,-77.76,-16.94,4,3
18873.109,0.113,0.707,-0.231,-1.1,-78.74,-19.99,4,3
18873.109,0.055,0.73,-0.212,-9.77,-82.03,-20.94,4,3
18873.125,0.049,0.727,-0.233,-16.02,-87.04,-20.17,4,3
18873.14,0.073,0.724,-0.267,-19.59,-90.24,-18.74,4,3
18873.14,0.091,0.738,-0.284,-23.26,-89.45,-19.17,4,3
18873.156,0.077,0.746,-0.259,-26.95,-86.64,-21.64,4,3
18873.171,0.064,0.741,-0.237,-29.88,-83.93,-23.87,4,3
18873.171,0.071,0.729,-0.231,-32.5,-80.39,-25.79,4,3
18873.187,0.083,0.695,-0.234,-33.75,-74.59,-28.63,4,3
18873.187,0.093,0.661,-0.228,-35.22,-66.23,-33.97,4,3
18873.203,0.069,0.614,-0.201,-37.48,-57.44,-41.9,4,3
18873.218,0.023,0.554,-0.142,-36.04,-50.54,-53.32,4,3
18873.218,-0.083,0.554,-0.052,-26.22,-47.09,-68.21,4,3
18873.234,-0.231,0.634,0.05,-9.86,-50.63,-82.98,4,3
18873.25,-0.372,0.753,0.131,0.18,-65.61,-95.22,4,3
18873.25,-0.409,0.844,0.146,0.09,-90.91,-102.73,4,3
18873.265,-0.381,0.899,0.086,-0.24,-114.17,-104.4,4,3
18873.281,-0.327,0.966,-0.009,2.72,-127.93,-101.93,4,3
18873.281,-0.279,0.994,-0.132,7.32,-131.23,-96.47,4,3
18873.296,-0.242,1.003,-0.238,9.77,-126.32,-86.67,4,3
18873.296,-0.236,1.007,-0.303,12.02,-114.08,-74.04,4,3
18873.312,-0.248,1.007,-0.36,13.55,-98.21,-57.83,4,3
18873.328,-0.247,1.003,-0.403,9.19,-81.33,-38.94,4,3
18873.343,-0.245,0.997,-0.409,-1.5,-64.85,-19.32,4,3
18873.343,-0.245,0.999,-0.379,-13.09,-49.78,-0.85,4,3
18873.359,-0.246,0.971,-0.346,-23.01,-37.32,14.71,4,3
18873.359,-0.275,0.963,-0.3,-29.82,-28.17,28.5,4,3
18873.375,-0.342,0.999,-0.233,-34.06,-25.18,40.19,4,3
18873.39,-0.34,0.973,-0.226,-40.22,-30.98,49.68,4,3
18873.39,-0.295,0.918,-0.262,-48.01,-38.76,55.36,4,3
18873.406,-0.227,0.854,-0.313,-51.0,-41.6,59.76,4,3
18873.421,-0.159,0.817,-0.383,-48.77,-38.0,61.53,4,3
18873.421,-0.105,0.782,-0.429,-45.29,-26.43,60.88,4,3
18873.437,-0.08,0.79,-0.431,-43.15,-13.49,58.78,4,3
18873.437,-0.087,0.799,-0.39,-41.96,-2.04,56.06,4,3
18873.468,-0.093,0.814,-0.333,-41.96,6.74,53.59,4,3
18873.468,-0.097,0.849,-0.282,-42.33,11.17,49.9,4,3
18873.468,-0.099,0.864,-0.244,-42.3,11.99,45.01,4,3
18873.484,-0.088,0.869,-0.214,-40.83,9.74,40.68,4,3
18873.5,-0.063,0.874,-0.21,-36.35,5.92,36.99,4,3
18873.515,-0.031,0.881,-0.228,-31.92,2.44,34.79,4,3
18873.515,0.003,0.876,-0.246,-29.21,0.31,33.17,4,3
18873.531,0.043,0.866,-0.261,-26.28,0.85,31.56,4,3
18873.531,0.079,0.875,-0.27,-21.76,3.54,29.02,4,3
18873.546,0.088,0.895,-0.265,-16.54,7.35,24.66,4,3
18873.546,0.081,0.913,-0.239,-13.15,10.19,19.96,4,3
18873.562,0.064,0.936,-0.211,-11.14,10.44,15.93,4,3
18873.578,0.056,0.957,-0.185,-10.1,6.96,13.55,4,3
18873.578,0.063,0.975,-0.171,-9.86,0.34,11.66,4,3
18873.593,0.076,0.987,-0.176,-10.25,-6.53,9.86,4,3
18873.609,0.091,0.992,-0.194,-10.8,-12.33,8.06,4,3
18873.609,0.101,0.995,-0.212,-9.8,-14.98,6.1,4,3
18873.625,0.097,0.998,-0.237,-7.78,-15.63,4.76,4,3
18873.64,0.103,1.001,-0.267,-6.68,-15.32,4.58,4,3
18873.64,0.111,1.002,-0.282,-6.29,-13.15,4.79,4,3
18873.656,0.115,1.004,-0.291,-5.68,-10.19,4.15,4,3
18873.656,0.114,1.013,-0.283,-5.92,-7.6,3.3,4,3
18873.671,0.087,1.032,-0.251,-6.16,-5.92,2.04,4,3
18873.687,0.05,1.052,-0.213,-5.34,-7.02,0.46,4,3
18873.687,0.016,1.077,-0.202,-4.18,-10.8,-1.31,4,3
18873.703,-0.013,1.089,-0.208,-4.7,-17.21,-2.69,4,3
18873.718,-0.022,1.078,-0.223,-5.34,-24.72,-3.42,4,3
18873.718,-0.022,1.068,-0.248,-4.3,-30.24,-2.87,4,3
18873.734,-0.008,1.049,-0.284,-2.08,-32.65,-0.89,4,3
18873.75,0.015,1.04,-0.309,0.49,-30.95,2.32,4,3
18873.75,0.018,1.04,-0.318,2.35,-25.39,5.55,4,3
18873.765,0.001,1.03,-0.297,0.92,-19.26,8.64,4,3
18873.781,-0.011,1.022,-0.257,-3.54,-15.32,11.29,4,3
18873.781,-0.027,0.999,-0.212,-8.48,-14.37,14.31,4,3
18873.796,-0.021,0.96,-0.181,-12.57,-16.39,18.34,4,3
18873.796,0.013,0.934,-0.172,-14.5,-18.25,22.52,4,3
18873.812,0.057,0.906,-0.182,-15.26,-17.82,24.69,4,3
18873.828,0.083,0.879,-0.173,-15.99,-15.69,24.14,4,3
18873.828,0.095,0.849,-0.142,-15.41,-13.73,21.64,4,3
18873.843,0.099,0.818,-0.116,-10.93,-12.79,17.46,4,3
18873.859,0.094,0.788,-0.106,-2.84,-12.21,12.21,4,3
18873.859,0.09,0.785,-0.11,5.46,-13.18,5.07,4,3
18873.875,0.078,0.806,-0.112,10.41,-15.38,-3.05,4,3
18873.89,0.076,0.828,-0.114,11.32,-19.68,-10.77,4,3
18873.89,0.089,0.835,-0.125,17.33,-23.9,-20.94,4,3
18873.906,0.096,0.85,-0.151,20.6,-22.22,-22.03,4,3
18873.921,0.091,0.868,-0.181,20.78,-19.17,-21.18,4,3
18873.921,0.084,0.897,-0.199,17.61,-16.21,-19.14,4,3
18873.937,0.039,0.976,-0.195,10.74,-15.38,-15.32,4,3
18873.953,0.043,0.993,-0.189,2.56,-16.48,-9.92,4,3
18873.953,0.051,1.0,-0.195,-4.0,-17.58,-3.54,4,3
18873.968,0.062,0.991,-0.214,-8.97,-17.21,3.33,4,3
18873.968,0.06,0.986,-0.219,-14.1,-14.56,10.83,4,3
18873.984,0.066,0.966,-0.215,-19.78,-11.9,17.67,4,3
18874.0,0.082,0.931,-0.201,-22.68,-9.61,22.77,4,3
18874.0,0.083,0.912,-0.186,-22.68,-6.65,25.85,4,3
18874.015,0.083,0.902,-0.169,-23.1,-5.98,26.46,4,3
18874.031,0.095,0.893,-0.153,-23.56,-7.81,24.48,4,3
18874.031,0.105,0.889,-0.135,-21.64,-9.86,21.33,4,3
18874.046,0.113,0.897,-0.125,-18.07,-11.47,18.46,4,3
18874.046,0.113,0.91,-0.124,-15.41,-13.46,15.59,4,3
18874.062,0.119,0.913,-0.124,-14.31,-15.78,12.82,4,3
18874.078,0.115,0.906,-0.129,-13.58,-17.88,9.52,4,3
18874.093,0.113,0.915,-0.125,-13.21,-19.81,6.13,4,3
18874.093,0.115,0.918,-0.125,-11.87,-21.64,3.45,4,3
18874.109,0.115,0.922,-0.136,-9.49,-22.61,1.5,4,3
18874.109,0.113,0.937,-0.141,-9.0,-23.59,-0.24,4,3
18874.125,0.105,0.946,-0.141,-8.39,-25.12,-1.92,4,3
18874.14,0.097,0.961,-0.138,-7.93,-26.92,-2.9,4,3
18874.14,0.084,0.971,-0.141,-7.66,-28.78,-3.14,4,3
18874.156,0.07,0.976,-0.144,-8.45,-30.61,-3.14,4,3
18874.156,0.068,0.98,-0.147,-10.56,-32.38,-2.84,4,3
18874.171,0.086,0.98,-0.15,-13.09,-33.63,-1.13,4,3
18874.187,0.099,0.973,-0.157,-13.79,-33.08,0.82,4,3
18874.187,0.109,0.98,-0.168,-13.34,-30.49,3.23,4,3
18874.203,0.108,0.98,-0.181,-13.18,-26.86,5.71,4,3
18874.218,0.088,0.98,-0.173,-14.98,-23.13,7.75,4,3
18874.218,0.067,0.968,-0.162,-17.03,-20.54,9.49,4,3
18874.234,0.057,0.946,-0.158,-17.0,-19.38,10.86,4,3
18874.25,0.057,0.937,-0.167,-14.65,-18.52,11.38,4,3
18874.25,0.051,0.947,-0.167,-13.58,-18.28,10.38,4,3
18874.265,0.053,0.946,-0.157,-14.04,-18.8,8.3,4,3
18874.281,0.052,0.949,-0.147,-13.43,-19.84,6.04,4,3
18874.281,0.051,0.951,-0.152,-10.83,-20.91,3.6,4,3
18874.296,0.062,0.947,-0.161,-7.66,-21.3,1.46,4,3
18874.296,0.064,0.943,-0.173,-5.34,-20.33,-0.79,4,3
18874.312,0.071,0.938,-0.186,-3.6,-17.82,-2.53,4,3
18874.328,0.077,0.937,-0.189,-1.19,-14.16,-4.24,4,3
18874.343,0.074,0.957,-0.186,1.04,-10.47,-6.35,4,3
18874.343,0.049,0.985,-0.175,1.65,-8.42,-8.82,4,3
18874.359,0.022,1.009,-0.145,-0.18,-9.03,-10.9,4,3
18874.359,0.009,1.019,-0.133,-1.07,-12.39,-11.26,4,3
18874.375,0.013,1.033,-0.139,-1.53,-16.21,-9.31,4,3
18874.39,0.016,1.047,-0.152,-4.3,-19.07,-5.46,4,3
18874.39,0.018,1.044,-0.155,-10.16,-21.18,-0.89,4,3
18874.406,0.027,1.021,-0.161,-15.14,-22.22,3.91,4,3
18874.406,0.038,1.006,-0.168,-16.39,-21.61,7.72,4,3
18874.421,0.03,0.999,-0.177,-14.65,-20.36,9.58,4,3
18874.437,0.026,0.988,-0.176,-13.86,-19.47,9.92,4,3
18874.437,0.028,0.975,-0.173,-13.92,-18.62,9.37,4,3
18874.453,0.025,0.962,-0.168,-12.09,-18.16,8.09,4,3
18874.468,0.038,0.957,-0.177,-7.45,-17.67,6.23,4,3
18874.468,0.052,0.957,-0.195,-1.59,-15.93,3.88,4,3
18874.484,0.047,0.966,-0.203,2.23,-13.09,0.89,4,3
18874.5,0.032,0.98,-0.2,3.14,-9.86,-1.74,4,3
18874.5,0.029,0.99,-0.182,1.34,-7.69,-3.08,4,3
18874.515,0.034,0.998,-0.17,-0.18,-6.35,-3.08,4,3
18874.515,0.033,1.002,-0.165,-0.24,-5.07,-1.98,4,3
18874.531,0.027,1.003,-0.157,-0.61,-4.49,0.03,4,3
18874.546,0.021,0.993,-0.15,-1.89,-4.85,2.41,4,3
18874.546,0.03,0.979,-0.151,-2.59,-5.22,5.01,4,3
18874.562,0.038,0.978,-0.159,-2.99,-5.01,6.38,4,3
18874.578,0.041,0.971,-0.16,-3.36,-4.39,6.56,4,3
18874.578,0.038,0.963,-0.161,-2.04,-3.6,5.95,4,3
18874.593,0.037,0.964,-0.163,0.82,-2.93,5.13,4,3
18874.609,0.041,0.963,-0.169,3.11,-2.69,4.36,4,3
18874.609,0.046,0.963,-0.175,3.63,-1.98,3.51,4,3
18874.625,0.051,0.961,-0.17,3.05,-0.73,3.08,4,3
18874.64,0.059,0.957,-0.162,1.74,0.46,3.23,4,3
18874.64,0.069,0.953,-0.159,0.89,2.11,3.57,4,3
18874.656,0.076,0.957,-0.156,0.98,3.85,4.0,4,3
18874.656,0.073,0.965,-0.148,1.31,5.34,4.12,4,3
18874.671,0.056,0.974,-0.13,0.46,5.55,4.03,4,3
18874.687,0.045,0.973,-0.112,-1.1,3.94,4.39,4,3
18874.687,0.047,0.973,-0.108,-2.56,1.19,5.83,4,3
18874.703,0.063,0.966,-0.115,-4.24,-1.4,7.69,4,3
18874.718,0.086,0.955,-0.128,-5.25,-2.78,9.03,4,3
18874.718,0.101,0.952,-0.144,-4.97,-2.59,9.61,4,3
18874.734,0.096,0.951,-0.143,-5.04,-1.43,8.97,4,3
18874.75,0.091,0.946,-0.138,-5.52,-0.67,7.78,4,3
18874.75,0.089,0.944,-0.133,-4.58,-0.12,6.56,4,3
18874.765,0.089,0.942,-0.125,-2.26,-0.09,5.13,4,3
18874.781,0.087,0.942,-0.121,-0.18,-0.4,3.72,4,3
18874.781,0.094,0.942,-0.124,0.76,-0.76,2.59,4,3
18874.796,0.101,0.945,-0.13,1.13,-0.52,1.71,4,3
18874.796,0.104,0.954,-0.13,0.61,0.21,0.98,4,3
18874.812,0.1,0.962,-0.125,-0.55,0.61,0.37,4,3
18874.828,0.098,0.97,-0.122,-0.98,0.64,0.15,4,3
18874.843,0.095,0.975,-0.125,-1.86,0.31,0.76,4,3
18874.843,0.096,0.972,-0.125,-2.26,-0.03,1.56,4,3
18874.859,0.091,0.969,-0.125,-1.13,-0.43,1.71,4,3
18874.875,0.084,0.974,-0.125,-1.4,-1.5,1.37,4,3
18874.89,0.094,0.963,-0.122,-2.2,-2.99,1.13,4,3
18874.906,0.104,0.96,-0.127,-0.03,-3.23,0.27,4,3
18874.921,0.106,0.958,-0.137,0.24,-1.86,-0.46,4,3
18874.937,0.103,0.955,-0.143,0.27,-0.27,-1.16,4,3
18874.953,0.093,0.955,-0.134,0.34,1.07,-1.86,4,3
18874.968,0.096,0.954,-0.136,1.13,2.2,-2.35,4,3
18874.984,0.094,0.956,-0.133,1.8,3.51,-3.05,4,3
18874.984,0.076,0.96,-0.117,1.98,4.64,-3.78,4,3
18875.015,0.062,0.972,-0.101,1.71,3.97,-4.15,4,3
18875.031,0.053,0.974,-0.092,1.07,1.5,-3.91,4,3
18875.031,0.053,0.976,-0.087,-0.12,-1.77,-2.9,4,3
18875.046,0.075,0.968,-0.096,-0.76,-4.79,-1.28,4,3
18875.046,0.094,0.957,-0.12,0.03,-5.92,0.64,4,3
18875.062,0.099,0.952,-0.144,0.7,-5.01,1.4,4,3
18875.062,0.096,0.952,-0.149,-0.09,-3.08,0.79,4,3
18875.062,0.083,0.948,-0.144,-1.1,-1.13,-0.7,4,3
18875.062,0.079,0.941,-0.14,-0.7,0.49,-2.35,4,3
18875.078,0.079,0.943,-0.144,1.56,1.8,-4.24,4,3
18875.078,0.073,0.956,-0.145,4.09,2.96,-6.59,4,3
18875.078,0.052,0.968,-0.133,5.31,3.42,-8.82,4,3
18875.078,0.038,0.984,-0.115,5.22,2.11,-9.52,4,3
18875.078,0.039,0.998,-0.102,3.94,-0.58,-8.64,4,3
18875.093,0.055,0.998,-0.111,2.5,-3.39,-6.29,4,3
18875.109,0.071,0.997,-0.129,1.31,-4.7,-3.63,4,3
18875.109,0.082,0.992,-0.145,0.09,-4.49,-1.4,4,3
18875.125,0.091,0.98,-0.158,-0.73,-3.23,0.18,4,3
18875.14,0.096,0.97,-0.167,-0.95,-1.59,0.76,4,3
18875.14,0.094,0.963,-0.17,-0.61,0.03,-0.15,4,3
18875.156,0.096,0.961,-0.164,0.34,1.53,-1.8,4,3
18875.171,0.094,0.968,-0.151,2.04,2.75,-3.63,4,3
18875.171,0.078,0.977,-0.134,3.66,3.33,-5.83,4,3
18875.187,0.064,0.989,-0.118,4.39,2.14,-7.35,4,3
18875.187,0.073,0.994,-0.112,5.46,-0.37,-7.66,4,3
18875.203,0.085,0.994,-0.115,7.05,-2.44,-7.63,4,3
18875.218,0.09,0.997,-0.126,7.93,-4.12,-7.57,4,3
18875.218,0.096,0.993,-0.138,8.06,-5.37,-7.93,4,3
18875.234,0.092,0.993,-0.145,8.7,-6.16,-9.13,4,3
18875.25,0.088,0.997,-0.149,9.52,-6.96,-10.25,4,3
18875.25,0.1,0.994,-0.158,10.1,-8.0,-11.11,4,3
18875.265,0.113,0.994,-0.165,11.41,-8.33,-11.9,4,3
18875.281,0.125,1.0,-0.171,13.28,-7.35,-12.12,4,3
18875.281,0.13,1.013,-0.17,14.34,-6.07,-11.75,4,3
18875.296,0.126,1.02,-0.164,13.98,-4.79,-10.74,4,3
18875.296,0.115,1.018,-0.151,12.6,-3.72,-8.85,4,3
18875.312,0.097,1.015,-0.139,11.23,-3.36,-6.44,4,3
18875.328,0.079,1.016,-0.126,9.34,-4.55,-3.88,4,3
18875.328,0.077,1.01,-0.122,6.74,-7.08,-0.58,4,3
18875.343,0.095,0.996,-0.129,4.97,-8.97,2.44,4,3
18875.359,0.113,0.979,-0.143,5.25,-9.13,4.15,4,3
18875.359,0.113,0.968,-0.141,5.68,-7.51,4.43,4,3
18875.375,0.098,0.954,-0.125,6.53,-5.89,3.05,4,3
18875.39,0.087,0.942,-0.095,9.22,-5.65,1.19,4,3
18875.39,0.064,0.949,-0.061,13.4,-6.87,-0.7,4,3
18875.406,0.05,0.965,-0.035,17.18,-9.55,-1.95,4,3
18875.421,0.054,0.984,-0.026,18.59,-13.34,-2.14,4,3
18875.421,0.066,0.999,-0.021,18.65,-17.4,-0.79,4,3
18875.437,0.086,1.012,-0.007,19.04,-22.31,1.8,4,3
18875.437,0.099,1.013,-0.018,21.45,-28.53,5.07,4,3
18875.453,0.108,0.998,-0.065,26.49,-35.28,8.51,4,3
18875.468,0.16,0.978,-0.132,33.05,-40.47,10.96,4,3
18875.468,0.202,0.973,-0.215,40.47,-40.86,10.86,4,3
18875.484,0.228,0.97,-0.304,45.96,-35.43,8.64,4,3
18875.5,0.238,0.974,-0.353,46.88,-21.64,2.47,4,3
18875.5,0.186,0.973,-0.364,40.38,-12.79,-1.56,4,3
18875.515,0.153,1.001,-0.361,28.2,-7.97,-2.99,4,3
18875.515,0.155,1.03,-0.336,11.75,-5.1,-2.29,4,3
18875.531,0.148,1.035,-0.245,-2.72,-1.59,-0.34,4,3
18875.546,0.11,1.021,-0.173,-11.23,3.02,3.97,4,3
18875.546,0.062,1.031,-0.118,-17.33,3.27,11.57,4,3
18875.562,0.0,1.031,-0.043,-22.49,-2.96,21.3,4,3
18875.578,-0.04,1.019,0.008,-26.73,-15.47,30.55,4,3
18875.578,-0.043,0.984,-0.009,-31.95,-31.89,37.69,4,3
18875.593,-0.019,0.951,-0.053,-39.86,-48.43,41.69,4,3
18875.609,0.011,0.898,-0.083,-47.43,-62.23,42.48,4,3
18875.609,0.034,0.831,-0.125,-50.23,-69.46,41.17,4,3
18875.625,0.05,0.794,-0.177,-47.52,-68.51,39.37,4,3
18875.64,0.052,0.793,-0.205,-41.81,-63.84,34.94,4,3
18875.64,0.027,0.792,-0.2,-35.52,-58.44,27.31,4,3
18875.656,-0.025,0.805,-0.16,-31.5,-55.36,17.64,4,3
18875.656,-0.047,0.821,-0.135,-29.91,-57.65,8.85,4,3
18875.671,-0.055,0.855,-0.08,-25.24,-63.84,2.29,4,3
18875.687,-0.05,0.871,-0.109,-15.87,-69.43,-1.59,4,3
18875.703,-0.041,0.913,-0.157,-11.78,-69.55,-4.58,4,3
18875.703,-0.021,0.923,-0.17,-6.93,-62.93,-4.49,4,3
18875.718,-0.03,0.873,-0.19,0.98,-53.44,-1.56,4,3
18875.718,-0.009,0.843,-0.28,7.57,-44.56,2.72,4,3
18875.734,0.002,0.901,-0.239,8.88,-34.18,4.91,4,3
18875.75,-0.088,0.947,-0.077,10.47,-30.06,4.12,4,3
18875.75,-0.131,0.934,-0.026,16.6,-37.84,6.13,4,3
18875.765,-0.075,0.962,-0.085,19.99,-50.29,9.95,4,3
18875.781,0.009,0.964,-0.172,14.22,-58.66,13.06,4,3
18875.781,0.071,0.919,-0.253,3.39,-60.15,12.3,4,3
18875.796,0.089,0.877,-0.306,-4.24,-54.96,7.97,4,3
18875.796,0.093,0.86,-0.322,-5.1,-45.29,2.35,4,3
18875.812,0.079,0.873,-0.337,0.21,-34.3,-3.97,4,3
18875.828,0.059,0.901,-0.316,5.95,-23.9,-10.04,4,3
18875.828,0.018,0.937,-0.291,11.32,-17.03,-15.38,4,3
18875.843,-0.016,0.984,-0.256,14.56,-14.13,-18.89,4,3
18875.859,-0.044,1.021,-0.192,12.73,-14.53,-19.99,4,3
18875.859,0.0,1.004,-0.187,-0.15,-18.52,-15.5,4,3
18875.875,0.08,0.985,-0.212,-3.88,-13.86,-13.79,4,3
18875.89,0.103,0.97,-0.267,-10.25,-6.65,-13.09,4,3
18875.89,0.082,0.971,-0.277,-15.66,-0.7,-12.36,4,3
18875.906,-0.015,0.947,-0.161,-14.74,0.89,-12.67,4,3
18875.906,-0.031,0.953,-0.166,-7.17,-1.46,-13.18,4,3
18875.921,-0.005,0.994,-0.167,-2.41,-4.82,-13.73,4,3
18875.937,0.019,0.985,-0.157,-1.28,-7.78,-14.25,4,3
18875.937,0.032,0.981,-0.15,-1.95,-10.19,-14.22,4,3
18875.953,0.045,0.997,-0.166,-2.75,-11.63,-13.37,4,3
18875.968,0.039,1.009,-0.183,-4.3,-11.14,-12.51,4,3
18875.968,0.019,1.031,-0.187,-5.22,-9.8,-10.38,4,3
18875.984,-0.011,1.068,-0.172,-5.65,-8.97,-6.56,4,3
18876.0,-0.023,1.062,-0.184,-6.2,-9.64,-1.1,4,3
18876.0,0.012,1.046,-0.204,-6.9,-9.43,5.58,4,3
18876.015,0.045,1.02,-0.231,-7.63,-6.53,11.44,4,3
18876.015,0.058,0.997,-0.234,-9.03,-2.17,15.26,4,3
18876.031,0.054,0.969,-0.226,-9.34,1.77,16.33,4,3
18876.046,0.044,0.951,-0.214,-8.58,4.58,14.62,4,3
18876.062,0.031,0.952,-0.19,-7.14,5.92,11.44,4,3
18876.062,0.023,0.953,-0.17,-5.62,5.52,8.0,4,3
18876.078,0.029,0.96,-0.149,-4.91,3.91,4.82,4,3
18876.078,0.045,0.967,-0.142,-3.69,1.53,1.56,4,3
18876.093,0.055,0.982,-0.149,-2.93,-0.27,-1.5,4,3
18876.109,0.049,0.99,-0.164,-2.29,-1.19,-3.97,4,3
18876.109,0.038,1.001,-0.163,-2.11,-1.56,-5.04,4,3
18876.125,0.026,1.012,-0.153,-1.1,-1.56,-4.73,4,3
18876.14,0.023,1.019,-0.169,0.03,-1.98,-2.78,4,3
18876.14,0.041,1.035,-0.181,-1.92,-2.26,-0.4,4,3
18876.156,0.049,1.029,-0.176,-4.67,-2.23,1.19,4,3
18876.156,0.053,1.017,-0.185,-5.19,-2.26,1.92,4,3
18876.171,0.06,1.022,-0.206,-4.97,-1.83,1.98,4,3
18876.187,0.049,1.01,-0.207,-4.36,-0.61,1.53,4,3
18876.187,0.027,1.007,-0.2,-2.69,0.58,0.73,4,3
18876.203,0.012,1.015,-0.195,-1.92,0.95,0.18,4,3
18876.218,0.005,1.003,-0.191,-1.4,0.7,0.03,4,3
18876.218,0.007,1.015,-0.195,0.06,1.13,0.67,4,3
18876.234,-0.005,1.029,-0.211,0.03,2.11,1.5,4,3
18876.25,-0.012,1.014,-0.21,-2.01,3.75,3.14,4,3
18876.25,-0.024,1.007,-0.208,-2.84,5.58,5.68,4,3
18876.265,-0.038,0.998,-0.203,-2.72,6.35,8.06,4,3
18876.281,-0.033,0.981,-0.207,-3.57,5.95,10.07,4,3
18876.281,-0.025,0.962,-0.211,-3.88,5.89,10.99,4,3
18876.296,-0.027,0.941,-0.206,-2.81,6.26,9.95,4,3
18876.296,-0.038,0.928,-0.203,-1.19,6.23,7.48,4,3
18876.312,-0.049,0.921,-0.193,0.79,6.2,4.7,4,3
18876.328,-0.064,0.902,-0.185,3.6,5.62,1.74,4,3
18876.328,-0.074,0.887,-0.179,7.29,4.76,-1.31,4,3
18876.343,-0.105,0.879,-0.166,10.71,3.66,-4.61,4,3
18876.359,-0.101,0.88,-0.167,12.63,0.92,-7.6,4,3
18876.359,-0.081,0.896,-0.18,14.16,-2.17,-10.62,4,3
18876.375,-0.075,0.916,-0.21,14.59,-4.0,-13.21,4,3
18876.39,-0.069,0.924,-0.26,12.94,-3.88,-14.74,4,3
18876.39,-0.067,0.946,-0.289,10.1,-0.98,-13.89,4,3
18876.406,-0.076,0.96,-0.298,6.41,3.57,-11.2,4,3
18876.406,-0.082,0.96,-0.295,2.26,8.24,-7.93,4,3
18876.421,-0.083,0.96,-0.283,0.7,12.94,-5.28,4,3
18876.437,-0.088,0.966,-0.267,0.98,16.57,-3.81,4,3
18876.437,-0.093,0.96,-0.268,1.22,19.2,-2.5,4,3
18876.453,-0.085,0.964,-0.266,0.89,22.4,-0.34,4,3
18876.468,-0.092,0.967,-0.249,0.12,25.67,1.98,4,3
18876.468,-0.096,0.964,-0.242,-1.59,28.05,3.91,4,3
18876.484,-0.095,0.96,-0.214,-3.69,29.21,5.31,4,3
18876.5,-0.09,0.945,-0.198,-4.09,29.21,5.92,4,3
18876.5,-0.08,0.936,-0.21,-3.05,28.75,6.01,4,3
18876.515,-0.074,0.941,-0.226,-2.47,28.99,5.46,4,3
18876.531,-0.071,0.933,-0.227,-3.27,29.94,3.91,4,3
18876.531,-0.068,0.922,-0.223,-3.63,31.28,1.34,4,3
18876.546,-0.07,0.926,-0.221,-1.59,33.3,-1.74,4,3
18876.546,-0.079,0.94,-0.205,0.76,34.82,-4.64,4,3
18876.562,-0.078,0.953,-0.196,1.59,35.16,-6.01,4,3
18876.578,-0.078,0.959,-0.187,0.31,34.97,-6.44,4,3
18876.578,-0.073,0.957,-0.182,-1.56,35.19,-6.56,4,3
18876.593,-0.069,0.963,-0.184,-1.98,35.16,-6.96,4,3
18876.609,-0.07,0.965,-0.197,-0.76,35.25,-7.84,4,3
18876.609,-0.075,0.965,-0.219,0.92,36.35,-9.22,4,3
18876.625,-0.081,0.974,-0.219,2.41,38.27,-10.65,4,3
18876.64,-0.082,0.973,-0.214,2.99,39.98,-11.75,4,3
18876.64,-0.084,0.969,-0.199,3.2,42.15,-12.48,4,3
18876.656,-0.091,0.958,-0.184,3.94,43.89,-13.37,4,3
18876.656,-0.091,0.944,-0.171,5.22,44.68,-15.44,4,3
18876.671,-0.108,0.948,-0.15,7.02,45.2,-18.71,4,3
18876.687,-0.129,0.953,-0.146,8.09,44.37,-21.7,4,3
18876.687,-0.132,0.955,-0.154,7.84,42.97,-23.07,4,3
18876.703,-0.125,0.961,-0.185,7.14,42.91,-23.19,4,3
18876.718,-0.114,0.979,-0.201,5.31,45.14,-22.52,4,3
18876.734,-0.107,0.988,-0.199,3.36,49.44,-20.63,4,3
18876.734,-0.088,0.984,-0.198,3.94,54.2,-17.91,4,3
18876.75,-0.088,0.988,-0.198,5.34,59.33,-15.38,4,3
18876.75,-0.101,0.994,-0.176,4.67,64.0,-12.6,4,3
18876.765,-0.115,0.993,-0.139,1.37,66.56,-9.28,4,3
18876.781,-0.118,0.977,-0.11,-1.89,67.02,-5.71,4,3
18876.781,-0.113,0.974,-0.1,-4.12,66.16,-2.38,4,3
18876.796,-0.094,0.964,-0.096,-6.44,65.37,0.61,4,3
18876.796,-0.081,0.938,-0.096,-7.51,65.61,1.8,4,3
18876.812,-0.08,0.925,-0.096,-6.71,66.47,0.85,4,3
18876.828,-0.061,0.924,-0.094,-4.3,66.96,-2.66,4,3
18876.843,-0.06,0.918,-0.094,0.06,67.35,-8.39,4,3
18876.843,-0.057,0.925,-0.109,4.27,69.22,-17.15,4,3
18876.859,-0.051,0.943,-0.117,2.29,71.35,-19.87,4,3
18876.859,-0.063,0.947,-0.102,2.32,72.85,-21.36,4,3
18876.875,-0.08,0.955,-0.084,2.81,72.85,-21.52,4,3
18876.89,-0.064,0.995,-0.064,0.73,72.05,-21.03,4,3
18876.89,-0.051,0.987,-0.074,-0.98,71.26,-20.17,4,3
18876.906,-0.045,0.998,-0.083,-1.92,72.12,-19.14,4,3
18876.906,-0.063,1.0,-0.081,-3.02,74.07,-18.1,4,3
18876.921,-0.077,0.997,-0.069,-4.55,75.05,-17.15,4,3
18876.937,-0.075,0.989,-0.061,-3.63,74.89,-16.27,4,3
18876.937,-0.062,0.995,-0.077,-1.53,75.01,-15.14,4,3
18876.953,-0.054,1.006,-0.069,-1.92,75.56,-13.73,4,3
18876.968,-0.058,0.993,-0.064,-1.86,76.63,-12.63,4,3
18876.984,-0.055,0.992,-0.068,-1.89,78.25,-10.93,4,3
18876.984,-0.05,0.988,-0.066,-3.05,80.32,-9.43,4,3
18877.0,-0.065,0.975,-0.054,-4.79,82.28,-8.73,4,3
18877.0,-0.066,0.963,-0.045,-6.2,83.1,-8.24,4,3
18877.015,-0.057,0.96,-0.031,-5.25,83.19,-9.16,4,3
18877.031,-0.069,0.96,-0.022,-1.71,82.49,-11.69,4,3
18877.031,-0.069,0.956,-0.028,0.67,81.15,-14.01,4,3
18877.046,-0.083,0.948,-0.025,0.64,80.05,-14.4,4,3
18877.046,-0.057,0.97,-0.029,-0.43,79.13,-15.17,4,3
18877.062,-0.097,0.944,-0.037,-2.04,79.32,-18.25,4,3
18877.078,-0.104,0.927,-0.018,-2.72,79.65,-18.86,4,3
18877.078,-0.117,0.951,-0.026,1.19,81.45,-21.55,4,3
18877.093,-0.181,0.922,-0.032,3.94,83.53,-24.81,4,3
18877.109,-0.191,0.928,-0.024,4.73,83.83,-25.51,4,3
18877.109,-0.197,0.933,-0.019,5.43,84.54,-26.61,4,3
18877.125,-0.199,0.937,0.004,5.22,85.02,-27.53,4,3
18877.14,-0.186,0.97,0.019,4.52,84.57,-28.41,4,3
18877.14,-0.202,1.008,0.026,2.72,84.29,-29.3,4,3
18877.156,-0.239,1.038,0.019,0.61,83.32,-28.57,4,3
18877.156,-0.262,1.024,-0.019,-0.73,83.22,-24.11,4,3
18877.171,-0.245,1.021,-0.066,-3.48,86.58,-15.75,4,3
18877.187,-0.208,1.025,-0.072,-9.03,93.42,-5.71,4,3
18877.187,-0.16,0.991,-0.033,-15.93,99.77,2.99,4,3
18877.203,-0.107,0.976,0.008,-16.82,103.55,6.44,4,3
18877.218,-0.099,0.982,0.029,-11.44,105.87,4.79,4,3
18877.218,-0.094,0.987,0.047,-7.45,106.78,3.39,4,3
18877.234,-0.082,0.992,0.028,-7.14,106.75,3.02,4,3
18877.25,-0.06,0.971,0.006,-10.07,106.57,3.54,4,3
18877.25,-0.021,0.974,0.03,-12.67,107.79,4.24,4,3
18877.265,-0.016,0.973,0.042,-12.02,108.71,2.23,4,3
18877.281,-0.02,0.971,0.052,-10.71,107.73,-1.59,4,3
18877.281,-0.014,0.962,0.027,-8.7,105.41,-7.05,4,3
18877.296,0.011,0.956,0.004,-5.95,104.31,-13.0,4,3
18877.312,0.036,0.979,0.013,-1.8,104.53,-19.23,4,3
18877.312,0.034,1.012,0.035,0.98,104.1,-24.99,4,3
18877.328,0.03,1.018,0.044,1.53,102.33,-28.84,4,3
18877.328,0.045,1.024,0.061,2.35,100.74,-30.55,4,3
18877.343,0.025,1.035,0.082,2.96,100.34,-31.86,4,3
18877.359,0.012,1.029,0.103,2.66,98.79,-32.17,4,3
18877.359,0.017,1.039,0.092,2.23,95.55,-31.71,4,3
18877.375,0.008,1.04,0.075,1.22,92.17,-31.8,4,3
18877.39,0.009,1.033,0.042,1.37,89.08,-32.26,4,3
18877.39,0.024,1.038,0.015,2.47,87.77,-33.2,4,3
18877.406,0.014,1.04,0.004,3.94,88.69,-34.7,4,3
18877.406,-0.018,1.053,0.029,5.98,89.85,-35.62,4,3
18877.421,-0.046,1.061,0.033,6.96,89.39,-35.0,4,3
18877.437,-0.039,1.056,0.032,5.37,87.83,-33.48,4,3
18877.437,-0.038,1.03,0.024,5.4,86.09,-30.49,4,3
18877.453,0.006,1.103,-0.0,5.34,84.66,-31.1,4,3
18877.468,-0.052,1.05,-0.018,5.01,88.17,-32.35,4,3
18877.468,-0.053,1.076,0.006,4.06,88.2,-29.3,4,3
18877.484,-0.057,1.084,-0.002,3.88,89.45,-24.81,4,3
18877.5,-0.075,1.057,0.007,2.69,91.04,-20.33,4,3
18877.5,-0.078,1.057,0.023,0.89,91.86,-16.91,4,3
18877.515,-0.124,1.021,0.013,0.12,92.04,-15.87,4,3
18877.531,-0.137,1.003,0.002,-1.4,90.0,-16.08,4,3
18877.531,-0.146,1.0,0.001,-1.65,89.33,-17.58,4,3
18877.546,-0.168,0.996,-0.011,-1.07,88.96,-20.75,4,3
18877.546,-0.178,0.996,-0.008,-0.49,88.99,-23.01,4,3
18877.562,-0.201,1.015,-0.024,1.46,89.36,-25.18,4,3
18877.578,-0.218,1.005,-0.045,2.23,89.6,-26.7,4,3
18877.593,-0.213,1.012,-0.066,1.62,90.4,-27.19,4,3
18877.593,-0.207,1.024,-0.078,1.22,92.07,-27.47,4,3
18877.609,-0.198,1.043,-0.082,1.59,94.82,-26.67,4,3
18877.609,-0.205,1.076,-0.081,1.4,98.42,-24.29,4,3
18877.625,-0.193,1.093,-0.061,-0.34,102.21,-19.65,4,3
18877.64,-0.162,1.1,-0.032,-2.87,106.3,-12.63,4,3
18877.64,-0.157,1.103,0.001,-6.53,109.1,-5.04,4,3
18877.656,-0.155,1.062,0.01,-9.09,109.29,0.43,4,3
18877.671,-0.134,1.045,0.013,-8.58,108.65,3.36,4,3
18877.671,-0.148,1.038,0.001,-7.14,108.58,3.08,4,3
18877.687,-0.147,1.022,0.004,-5.83,108.52,2.72,4,3
18877.687,-0.128,1.032,-0.005,-5.07,108.43,3.05,4,3
18877.703,-0.082,1.004,-0.016,-4.97,108.74,4.21,4,3
18877.718,-0.051,1.015,0.009,-4.24,109.53,4.3,4,3
18877.718,-0.071,1.024,0.045,-1.22,109.47,2.11,4,3
18877.734,-0.101,1.019,0.043,1.68,107.39,-0.46,4,3
18877.75,-0.086,1.03,0.039,2.93,104.68,-1.07,4,3
18877.75,-0.091,1.041,0.01,3.6,104.04,-0.92,4,3
18877.765,-0.098,1.045,0.002,4.33,104.62,0.64,4,3
18877.765,-0.099,1.061,0.003,5.83,104.31,2.5,4,3
18877.781,-0.103,1.051,-0.007,5.62,103.21,5.04,4,3
18877.796,-0.092,1.004,-0.039,3.69,101.63,7.87,4,3
18877.796,-0.034,0.954,-0.046,3.36,101.69,9.61,4,3
18877.812,-0.028,0.963,-0.021,5.62,104.59,7.72,4,3
18877.828,-0.049,0.968,-0.007,7.45,106.05,4.46,4,3
18877.828,-0.043,0.977,-0.02,7.6,106.17,4.7,4,3
18877.843,-0.029,1.007,-0.028,5.13,106.94,9.31,4,3
18877.859,0.009,1.02,-0.017,2.08,108.22,14.44,4,3
18877.859,0.026,1.027,0.032,-0.09,108.04,18.16,4,3
18877.875,0.037,1.01,0.056,1.71,107.24,20.26,4,3
18877.89,0.024,1.006,0.038,3.17,105.47,20.94,4,3
18877.89,0.055,1.0,0.025,2.35,102.57,20.78,4,3
18877.906,0.073,0.998,0.007,3.69,100.71,18.56,4,3
18877.906,0.079,0.988,0.007,6.07,99.89,15.99,4,3
18877.921,0.088,0.986,0.029,9.16,99.09,13.82,4,3
18877.937,0.084,1.003,0.055,10.41,97.08,11.54,4,3
18877.953,0.09,0.996,0.042,9.86,92.5,8.7,4,3
18877.953,0.111,1.018,0.028,11.47,87.41,3.39,4,3
18877.968,0.098,1.049,0.0,16.33,84.08,-3.54,4,3
18877.968,0.107,1.059,-0.026,21.64,81.73,-8.51,4,3
18877.984,0.12,1.071,-0.028,26.61,82.09,-10.99,4,3
18878.0,0.099,1.093,-0.022,28.53,84.35,-8.48,4,3
18878.0,0.112,1.132,-0.005,26.37,84.14,-3.85,4,3
18878.015,0.085,1.11,-0.017,23.68,84.14,2.41,4,3
18878.031,0.085,1.117,-0.043,20.87,84.87,10.77,4,3
18878.031,0.058,1.093,-0.082,18.1,87.16,19.07,4,3
18878.046,0.043,1.033,-0.083,12.7,90.06,29.82,4,3
18878.046,0.089,1.01,-0.07,11.72,91.83,37.42,4,3
18878.062,0.088,0.975,-0.061,14.1,94.85,38.79,4,3
18878.078,0.073,0.929,-0.042,17.49,95.65,35.92,4,3
18878.078,0.07,0.919,-0.009,25.42,95.49,28.96,4,3
18878.093,0.013,0.946,-0.015,30.61,95.37,22.28,4,3
18878.109,0.02,0.955,-0.013,26.95,93.08,22.58,4,3
18878.125,0.098,0.885,-0.01,22.58,92.41,28.84,4,3
18878.125,0.155,0.814,0.048,21.39,95.37,34.79,4,3
18878.14,0.189,0.749,0.119,23.29,96.99,34.15,4,3
18878.14,0.185,0.716,0.151,26.46,94.0,23.65,4,3
18878.156,0.192,0.712,0.159,31.5,83.5,5.43,4,3
18878.171,0.227,0.719,0.096,37.81,70.01,-14.28,4,3
18878.171,0.283,0.732,0.014,40.53,59.48,-30.15,4,3
18878.187,0.339,0.692,-0.016,43.89,55.18,-42.97,4,3
18878.203,0.317,0.668,0.016,49.9,54.57,-57.31,4,3
18878.203,0.253,0.636,0.043,57.5,50.75,-77.06,4,3
18878.218,0.172,0.649,0.044,63.63,43.52,-103.12,4,3
18878.218,0.098,0.721,-0.009,61.22,33.85,-128.97,4,3
18878.234,0.13,0.83,-0.015,41.32,24.54,-143.04,4,3
18878.25,0.197,0.932,0.005,12.79,18.49,-142.89,4,3
18878.25,0.296,0.974,0.049,-2.87,16.05,-135.62,4,3
18878.265,0.36,0.955,0.047,4.46,15.59,-127.41,4,3
18878.281,0.313,1.048,-0.022,22.0,17.82,-117.13,4,3
18878.281,0.211,1.158,-0.083,28.32,21.3,-100.16,4,3
18878.296,0.181,1.134,-0.15,22.43,22.1,-72.97,4,3
18878.312,0.197,1.166,-0.22,12.36,21.49,-45.87,4,3
18878.312,0.193,1.175,-0.222,1.46,23.83,-28.99,4,3
18878.328,0.124,1.145,-0.237,-6.53,24.08,-21.24,4,3
18878.328,0.112,1.093,-0.307,-8.03,22.16,-16.11,4,3
18878.343,0.101,1.072,-0.34,-2.08,27.31,-11.41,4,3
18878.359,0.074,1.055,-0.335,3.54,36.32,-3.66,4,3
18878.359,0.084,1.054,-0.289,0.09,41.26,9.09,4,3
18878.375,0.132,1.013,-0.219,-6.65,40.93,21.39,4,3
18878.39,0.14,0.975,-0.154,-9.52,39.67,28.63,4,3
18878.39,0.106,0.895,-0.119,-8.82,37.63,32.59,4,3
18878.406,0.08,0.853,-0.111,-7.72,34.39,35.22,4,3
18878.421,0.079,0.812,-0.129,-9.37,29.94,34.91,4,3
18878.421,0.121,0.772,-0.151,-13.28,26.34,31.62,4,3
18878.437,0.143,0.78,-0.133,-14.22,22.22,24.23,4,3
18878.453,0.153,0.792,-0.128,-11.11,16.79,13.49,4,3
18878.453,0.177,0.819,-0.133,-9.67,11.32,3.11,4,3
18878.468,0.181,0.858,-0.152,-7.29,8.64,-3.42,4,3
18878.468,0.196,0.893,-0.129,-5.89,8.85,-3.57,4,3
18878.484,0.214,0.927,-0.113,-6.9,6.93,0.61,4,3
18878.5,0.251,0.962,-0.088,-9.89,2.99,4.82,4,3
18878.5,0.258,0.98,-0.118,-13.76,-2.78,5.37,4,3
18878.515,0.285,1.004,-0.141,-15.87,-9.09,3.69,4,3
18878.531,0.265,1.049,-0.192,-14.31,-13.43,1.19,4,3
18878.531,0.224,1.094,-0.238,-14.19,-16.05,1.16,4,3
18878.546,0.167,1.107,-0.28,-14.65,-16.6,4.15,4,3
18878.546,0.093,1.084,-0.31,-12.91,-14.47,9.77,4,3
18878.562,0.059,1.066,-0.322,-11.11,-12.21,17.21,4,3
18878.578,0.068,1.054,-0.295,-11.47,-9.86,24.08,4,3
18878.578,0.037,1.041,-0.284,-13.15,-8.85,26.98,4,3
18878.593,0.024,0.999,-0.276,-13.55,-10.47,27.38,4,3
18878.609,0.029,0.955,-0.295,-11.44,-11.66,26.0,4,3
18878.609,0.036,0.93,-0.276,-7.97,-10.25,22.95,4,3
18878.625,-0.007,0.902,-0.266,-4.46,-7.9,17.4,4,3
18878.64,-0.045,0.892,-0.253,-2.84,-7.08,11.9,4,3
18878.64,-0.057,0.906,-0.277,-3.85,-10.44,6.62,4,3
18878.656,-0.007,0.92,-0.275,-3.78,-14.04,-0.43,4,3
18878.656,-0.011,0.917,-0.285,2.11,-14.22,-9.74,4,3
18878.671,-0.025,0.918,-0.301,8.79,-10.93,-15.59,4,3
18878.687,-0.042,0.936,-0.303,10.9,-5.52,-14.83,4,3
18878.687,-0.047,0.937,-0.268,8.12,-0.37,-9.92,4,3
18878.703,-0.031,0.929,-0.267,3.78,1.95,-4.85,4,3
18878.718,0.005,0.927,-0.28,0.98,1.74,-2.75,4,3
18878.718,0.014,0.921,-0.272,1.62,3.05,-4.43,4,3
18878.734,-0.016,0.91,-0.255,5.62,5.98,-7.51,4,3
18878.75,-0.021,0.903,-0.267,7.39,7.45,-7.08,4,3
18878.75,0.018,0.893,-0.262,4.79,8.27,-5.31,4,3
18878.765,0.059,0.883,-0.235,2.84,11.11,-5.1,4,3
18878.781,0.066,0.894,-0.216,2.29,12.21,-6.71,4,3
18878.781,0.103,0.919,-0.179,2.62,11.02,-8.09,4,3
18878.796,0.097,0.933,-0.174,2.47,9.46,-9.0,4,3
18878.796,0.102,0.922,-0.173,0.61,7.39,-7.54,4,3
18878.812,0.096,0.931,-0.185,-0.76,2.17,-5.68,4,3
18878.828,0.083,0.928,-0.196,-2.01,-0.43,-5.31,4,3
18878.828,0.098,0.915,-0.241,-3.48,-0.27,-5.31,4,3
18878.843,0.147,0.902,-0.276,-3.85,3.11,-5.58,4,3
18878.859,0.17,0.923,-0.209,-4.06,5.95,-4.85,4,3
18878.875,0.191,0.948,-0.14,-5.43,6.53,-2.72,4,3
18878.875,0.173,0.982,-0.078,-7.78,4.09,-0.24,4,3
18878.89,0.148,1.009,-0.051,-10.32,-2.29,1.86,4,3
18878.89,0.119,1.006,-0.07,-12.94,-10.32,3.05,4,3
18878.906,0.096,0.989,-0.102,-13.52,-16.72,3.51,4,3
18878.921,0.063,0.974,-0.143,-12.67,-20.72,2.14,4,3
18878.921,0.015,0.974,-0.178,-11.29,-23.68,-1.31,4,3
18878.937,-0.022,0.969,-0.228,-9.0,-26.15,-5.8,4,3
18878.937,-0.038,0.967,-0.28,-5.89,-26.25,-10.53,4,3
18878.953,-0.063,0.971,-0.308,-2.23,-22.92,-14.31,4,3
18878.968,-0.072,0.996,-0.316,0.95,-18.04,-15.84,4,3
18878.968,-0.094,1.038,-0.313,1.37,-13.86,-14.86,4,3
18878.984,-0.089,1.043,-0.303,0.24,-11.29,-12.27,4,3
18879.0,-0.084,1.037,-0.296,0.58,-8.09,-9.37,4,3
18879.0,-0.084,1.029,-0.293,0.89,-4.21,-5.34,4,3
18879.015,-0.076,1.008,-0.27,-1.53,-0.58,0.64,4,3
18879.031,-0.064,0.974,-0.247,-4.76,2.08,6.74,4,3
18879.031,-0.054,0.95,-0.241,-6.2,2.72,10.22,4,3
18879.046,-0.034,0.946,-0.242,-6.59,1.65,9.61,4,3
18879.046,-0.02,0.933,-0.242,-5.52,0.79,4.52,4,3
18879.062,-0.018,0.93,-0.234,-1.86,1.34,-1.98,4,3
18879.078,-0.027,0.933,-0.236,2.2,2.69,-6.99,4,3
18879.078,-0.016,0.951,-0.221,2.72,4.46,-8.7,4,3
18879.093,-0.02,0.962,-0.213,1.28,5.04,-7.93,4,3
18879.109,-0.012,0.983,-0.219,0.03,4.76,-5.68,4,3
18879.109,-0.009,0.988,-0.229,-1.01,4.52,-2.99,4,3
18879.125,0.003,0.974,-0.243,-2.93,4.52,0.37,4,3
18879.14,0.018,0.952,-0.247,-4.73,5.89,3.66,4,3
18879.14,0.034,0.932,-0.232,-5.77,7.97,5.86,4,3
18879.156,0.034,0.924,-0.209,-6.9,9.4,6.47,4,3
18879.171,0.039,0.911,-0.193,-8.67,9.55,6.68,4,3
18879.171,0.059,0.899,-0.182,-10.47,9.64,7.29,4,3
18879.187,0.081,0.905,-0.171,-11.11,10.32,8.51,4,3
18879.187,0.108,0.925,-0.172,-11.2,10.68,9.61,4,3
18879.203,0.119,0.955,-0.139,-11.08,10.96,9.0,4,3
18879.218,0.092,0.966,-0.107,-9.25,9.43,7.08,4,3
18879.234,0.082,0.965,-0.106,-9.03,5.4,6.07,4,3
18879.234,0.087,0.965,-0.114,-10.93,0.79,6.07,4,3
18879.25,0.099,0.951,-0.132,-12.09,-3.3,5.16,4,3
18879.25,0.099,0.951,-0.14,-12.24,-5.86,2.5,4,3
18879.265,0.077,0.945,-0.154,-11.6,-7.29,-1.13,4,3
18879.281,0.053,0.933,-0.179,-10.35,-7.9,-4.18,4,3
18879.281,0.036,0.942,-0.192,-9.06,-7.23,-6.65,4,3
18879.296,0.018,0.955,-0.203,-8.33,-6.81,-8.48,4,3
18879.296,0.009,0.974,-0.202,-7.23,-6.93,-10.71,4,3
18879.312,-0.017,0.998,-0.193,-4.73,-6.68,-13.09,4,3
18879.328,-0.051,1.018,-0.201,-3.39,-7.63,-13.31,4,3
18879.328,-0.051,1.019,-0.225,-4.82,-8.97,-11.02,4,3
18879.343,-0.038,1.018,-0.242,-6.53,-8.15,-7.48,4,3
18879.359,-0.041,1.017,-0.257,-8.09,-5.49,-3.54,4,3
18879.359,-0.037,1.006,-0.259,-8.33,-2.62,-0.4,4,3
18879.375,-0.045,1.013,-0.262,-7.87,0.85,1.71,4,3
18879.39,-0.054,0.995,-0.264,-7.69,4.15,2.93,4,3
18879.39,-0.041,0.981,-0.258,-6.5,6.99,3.57,4,3
18879.406,-0.023,0.97,-0.245,-3.91,9.92,2.75,4,3
18879.406,-0.016,0.956,-0.232,-0.31,12.63,0.73,4,3
18879.421,-0.024,0.962,-0.214,3.51,14.65,-1.95,4,3
18879.437,-0.027,0.981,-0.193,5.8,15.53,-3.78,4,3
18879.437,-0.034,0.993,-0.183,4.73,14.25,-4.15,4,3
18879.453,-0.031,1.002,-0.18,1.4,12.09,-3.2,4,3
18879.468,-0.021,1.003,-0.18,-1.37,10.28,-0.82,4,3
18879.468,-0.009,1.004,-0.179,-3.23,9.03,3.14,4,3
18879.484,-0.002,0.988,-0.183,-5.34,7.81,7.05,4,3
18879.5,0.017,0.962,-0.193,-6.01,7.35,9.31,4,3
18879.5,0.006,0.955,-0.201,-4.61,8.36,8.12,4,3
18879.515,-0.007,0.935,-0.197,-0.61,9.58,4.36,4,3
18879.531,-0.011,0.943,-0.2,2.69,9.98,0.58,4,3
18879.531,0.001,0.953,-0.209,4.12,9.49,-2.72,4,3
18879.546,0.02,0.964,-0.202,4.61,9.43,-4.91,4,3
18879.562,0.023,0.977,-0.194,3.85,9.77,-5.58,4,3
18879.562,0.02,0.982,-0.177,1.92,9.86,-4.61,4,3
18879.578,0.009,0.986,-0.171,0.12,8.91,-2.56,4,3
18879.578,0.008,0.99,-0.164,-2.01,7.51,0.06,4,3
18879.593,0.004,0.977,-0.171,-3.6,6.29,2.23,4,3
18879.609,0.019,0.964,-0.186,-3.54,5.62,3.54,4,3
18879.609,0.022,0.965,-0.195,-2.84,5.89,3.27,4,3
18879.625,0.016,0.964,-0.201,-2.81,5.46,1.89,4,3
18879.64,0.027,0.979,-0.208,-1.31,4.58,-1.16,4,3
18879.64,0.02,0.985,-0.232,2.87,4.94,-5.89,4,3
18879.656,0.015,0.993,-0.243,6.32,6.53,-10.41,4,3
18879.656,0.016,1.0,-0.231,8.58,9.19,-13.52,4,3
18879.671,0.01,0.992,-0.215,10.41,12.12,-15.11,4,3
18879.687,0.014,0.991,-0.189,11.78,13.82,-15.63,4,3
18879.687,0.024,0.996,-0.171,13.37,14.04,-16.08,4,3
18879.703,0.024,1.001,-0.176,13.4,13.67,-15.72,4,3
18879.718,0.011,1.01,-0.186,11.29,12.73,-14.83,4,3
18879.718,0.007,1.006,-0.183,9.43,11.75,-12.67,4,3
18879.734,-0.015,1.007,-0.169,7.78,11.02,-9.06,4,3
18879.75,-0.01,0.999,-0.158,5.62,9.28,-3.72,4,3
18879.75,0.014,0.987,-0.151,2.53,7.57,1.89,4,3
18879.765,0.03,0.962,-0.168,-0.09,7.11,7.05,4,3
18879.781,0.035,0.951,-0.174,-2.29,8.3,11.2,4,3
18879.781,0.025,0.941,-0.175,-3.48,9.55,13.58,4,3
18879.796,0.027,0.926,-0.174,-4.03,9.74,13.95,4,3
