timestamp,ax,ay,az,gx,gy,gz,orient_label,motion_label
18889.281,0.086,1.033,-0.031,0.03,-25.12,-30.95,4,3
18889.281,0.069,1.057,-0.039,0.03,-26.06,-31.04,4,3
18889.296,0.054,1.074,-0.064,0.06,-26.37,-29.91,4,3
18889.296,0.043,1.086,-0.1,-0.27,-25.85,-28.08,4,3
18889.312,0.04,1.091,-0.134,-0.55,-24.38,-25.57,4,3
18889.328,0.037,1.1,-0.146,0.61,-20.51,-22.83,4,3
18889.343,0.005,1.112,-0.148,2.84,-15.56,-19.5,4,3
18889.343,0.004,1.116,-0.14,3.91,-11.57,-14.16,4,3
18889.359,0.005,1.129,-0.141,3.08,-7.63,-7.97,4,3
18889.359,0.018,1.117,-0.127,1.25,-4.27,-1.13,4,3
18889.375,0.035,1.102,-0.12,0.03,-1.1,5.22,4,3
18889.39,0.04,1.095,-0.09,-0.34,2.11,10.53,4,3
18889.39,0.024,1.074,-0.078,-1.01,4.0,14.44,4,3
18889.406,0.034,1.047,-0.079,-1.74,3.54,17.82,4,3
18889.406,0.072,1.037,-0.091,-1.4,3.36,20.33,4,3
18889.421,0.102,1.016,-0.107,-0.89,5.49,21.3,4,3
18889.437,0.117,0.999,-0.094,-0.4,8.88,20.84,4,3
18889.437,0.123,0.997,-0.048,1.13,13.12,20.14,4,3
18889.453,0.101,0.998,-0.021,1.68,15.78,19.99,4,3
18889.468,0.107,0.992,-0.002,0.03,14.86,21.21,4,3
18889.468,0.131,0.986,-0.0,-1.8,12.6,22.46,4,3
18889.484,0.16,0.96,-0.021,-1.28,11.14,22.92,4,3
18889.5,0.178,0.947,-0.031,0.79,11.63,22.31,4,3
18889.5,0.185,0.937,-0.02,3.51,13.12,21.3,4,3
18889.515,0.187,0.931,0.0,5.19,15.29,20.39,4,3
18889.531,0.177,0.92,0.013,4.61,16.33,20.02,4,3
18889.531,0.182,0.911,0.028,2.9,15.99,20.14,4,3
18889.546,0.184,0.905,0.031,2.47,15.56,19.56,4,3
18889.546,0.183,0.89,0.026,4.09,15.53,18.4,4,3
18889.562,0.183,0.882,0.017,6.87,16.11,16.79,4,3
18889.578,0.169,0.889,0.008,10.32,18.07,14.31,4,3
18889.578,0.147,0.888,0.008,14.95,20.63,10.96,4,3
18889.593,0.143,0.883,0.017,22.0,23.53,7.66,4,3
18889.609,0.132,0.891,0.027,31.07,27.04,4.03,4,3
18889.609,0.104,0.894,0.024,40.38,31.83,1.65,4,3
18889.625,0.083,0.887,0.025,48.77,38.7,2.08,4,3
18889.64,0.06,0.877,0.041,57.47,48.92,4.49,4,3
18889.64,0.009,0.868,0.066,70.07,77.94,13.73,4,3
18889.656,-0.045,0.837,0.067,69.64,97.99,21.18,4,3
18889.656,-0.118,0.789,0.044,63.54,119.63,30.0,4,3
18889.671,-0.177,0.68,0.056,58.26,140.9,38.58,4,3
18889.687,-0.194,0.638,0.068,54.02,161.38,45.05,4,3
18889.687,-0.19,0.592,0.09,50.45,180.18,48.25,4,3
18889.703,-0.149,0.577,0.135,50.05,198.92,46.57,4,3
18889.718,-0.117,0.596,0.201,53.71,219.34,40.1,4,3
18889.718,-0.12,0.6,0.252,58.72,241.04,30.49,4,3
18889.734,-0.154,0.596,0.307,62.29,261.42,20.08,4,3
18889.75,-0.203,0.573,0.355,65.52,280.59,11.93,4,3
18889.75,-0.184,0.566,0.348,69.61,299.78,5.92,4,3
18889.765,-0.272,0.579,0.304,67.57,320.38,-3.3,4,3
18889.781,-0.355,0.481,0.275,55.7,336.83,-3.88,4,3
18889.781,-0.339,0.447,0.259,38.79,339.18,1.1,4,3
18889.796,-0.3,0.479,0.263,23.59,336.59,3.45,4,3
18889.796,-0.252,0.498,0.282,10.16,333.63,0.61,4,3
18889.812,-0.242,0.509,0.324,-3.94,335.18,-5.86,4,3
18889.828,-0.283,0.514,0.393,-18.59,334.88,-16.88,4,3
18889.828,-0.322,0.54,0.481,-38.09,328.87,-33.51,4,3
18889.843,-0.355,0.541,0.56,-64.67,313.73,-55.82,4,3
18889.859,-0.379,0.486,0.623,-90.21,284.49,-78.19,4,3
18889.875,-0.339,0.448,0.685,-107.91,241.52,-93.57,4,3
18889.875,-0.272,0.443,0.737,-115.05,193.73,-99.86,4,3
18889.89,-0.239,0.453,0.767,-113.53,148.72,-103.06,4,3
18889.89,-0.214,0.47,0.773,-105.87,108.58,-109.84,4,3
18889.906,-0.188,0.505,0.767,-92.81,72.7,-122.75,4,3
18889.921,-0.106,0.571,0.766,-80.2,42.21,-137.82,4,3
18889.921,0.011,0.635,0.78,-70.25,17.24,-155.0,4,3
18889.937,0.079,0.703,0.785,-58.6,-2.26,-173.8,4,3
18889.953,-0.041,0.924,0.795,-24.93,-41.78,-216.41,4,3
18889.968,-0.172,1.091,0.803,0.21,-71.44,-239.91,4,3
18889.968,-0.318,1.301,0.804,29.05,-105.69,-256.87,4,3
18889.984,-0.433,1.521,0.759,54.11,-142.77,-260.14,4,3
18890.0,-0.44,1.735,0.704,64.12,-179.2,-247.87,4,3
18890.0,-0.381,1.851,0.618,55.67,-211.55,-227.36,4,3
18890.015,-0.358,1.831,0.522,32.38,-235.63,-207.13,4,3
18890.031,-0.339,1.761,0.409,2.78,-248.63,-188.12,4,3
18890.031,-0.308,1.679,0.306,-24.11,-253.12,-173.07,4,3
18890.046,-0.281,1.567,0.238,-43.73,-253.12,-164.71,4,3
18890.062,-0.25,1.439,0.193,-55.54,-250.5,-160.77,4,3
18890.062,-0.208,1.351,0.173,-60.3,-243.84,-159.34,4,3
18890.078,-0.155,1.319,0.164,-61.49,-234.26,-160.22,4,3
18890.093,-0.129,1.29,0.151,-62.26,-222.05,-162.48,4,3
18890.093,-0.149,1.28,0.149,-67.11,-209.81,-164.43,4,3
18890.109,-0.18,1.293,0.158,-76.2,-201.45,-164.83,4,3
18890.125,-0.192,1.272,0.157,-85.6,-196.2,-161.84,4,3
18890.125,-0.208,1.27,0.148,-95.31,-191.14,-151.65,4,3
18890.14,-0.185,1.304,0.13,-104.74,-185.37,-131.99,4,3
18890.14,-0.109,1.328,0.136,-113.22,-176.95,-106.45,4,3
18890.156,-0.056,1.313,0.162,-120.58,-162.6,-81.24,4,3
18890.156,-0.051,1.281,0.18,-126.59,-141.39,-60.27,4,3
18890.171,-0.064,1.236,0.199,-134.89,-120.82,-43.37,4,3
18890.187,-0.102,1.19,0.245,-145.57,-105.2,-30.7,4,3
18890.187,-0.147,1.132,0.309,-155.16,-95.19,-20.84,4,3
18890.203,-0.2,1.083,0.39,-161.53,-92.53,-12.12,4,3
18890.218,-0.263,1.056,0.482,-160.83,-97.29,-1.74,4,3
18890.218,-0.318,1.03,0.565,-150.33,-111.0,12.7,4,3
18890.234,-0.354,1.033,0.642,-126.07,-129.76,34.21,4,3
18890.25,-0.316,1.014,0.584,-92.84,-146.31,59.6,4,3
18890.25,-0.222,1.061,0.51,-67.14,-153.66,84.02,4,3
18890.265,-0.134,1.104,0.493,-52.8,-147.31,102.18,4,3
18890.281,-0.093,1.1,0.597,-43.28,-111.67,120.82,4,3
18890.296,-0.135,1.044,0.657,-36.23,-97.6,130.16,4,3
18890.312,-0.169,0.967,0.665,-29.27,-90.82,141.21,4,3
18890.312,-0.156,0.919,0.653,-31.01,-89.27,149.66,4,3
18890.328,-0.084,0.872,0.622,-40.74,-88.63,149.17,4,3
18890.343,-0.007,0.791,0.59,-54.38,-83.83,138.68,4,3
18890.343,0.036,0.711,0.585,-67.2,-73.92,121.25,4,3
18890.359,0.058,0.635,0.61,-72.08,-59.76,101.29,4,3
18890.359,0.072,0.577,0.657,-66.59,-42.85,81.85,4,3
18890.375,0.058,0.573,0.735,-52.0,-25.76,64.21,4,3
18890.39,0.035,0.568,0.791,-31.68,-13.37,48.92,4,3
18890.39,0.002,0.601,0.818,-13.28,-6.99,35.71,4,3
18890.406,-0.006,0.626,0.835,-0.12,-5.71,26.25,4,3
18890.421,0.045,0.678,0.812,6.53,-7.14,16.69,4,3
18890.421,0.058,0.726,0.794,3.11,-6.84,6.41,4,3
18890.437,0.031,0.721,0.825,-2.17,-4.67,1.01,4,3
18890.453,0.023,0.734,0.867,8.03,0.0,9.58,4,3
18890.468,0.038,0.745,0.842,13.52,1.5,16.79,4,3
18890.468,0.073,0.717,0.819,13.92,1.34,22.46,4,3
18890.484,0.092,0.708,0.821,11.75,1.01,26.09,4,3
18890.5,0.087,0.709,0.846,8.09,0.92,28.29,4,3
18890.5,0.085,0.705,0.86,3.63,-0.52,28.29,4,3
18890.515,0.08,0.685,0.877,-0.15,-3.27,27.44,4,3
18890.531,0.098,0.644,0.876,0.27,-6.32,26.18,4,3
18890.531,0.138,0.627,0.863,6.41,-7.14,22.77,4,3
18890.546,0.158,0.628,0.839,15.87,-4.55,17.43,4,3
18890.562,0.154,0.637,0.827,23.01,-0.4,12.24,4,3
18890.562,0.144,0.638,0.827,27.13,3.91,7.9,4,3
18890.578,0.14,0.624,0.822,31.46,8.06,5.37,4,3
18890.578,0.125,0.63,0.829,35.92,12.57,5.65,4,3
18890.593,0.112,0.64,0.839,38.79,15.26,8.24,4,3
18890.609,0.094,0.657,0.856,37.17,14.31,10.71,4,3
18890.625,0.111,0.656,0.859,6.99,-2.69,16.72,4,3
18890.64,0.14,0.631,0.846,-3.3,-4.52,16.02,4,3
18890.64,0.162,0.584,0.816,-9.19,-2.62,13.7,4,3
18890.656,0.192,0.538,0.779,-10.35,3.48,8.85,4,3
18890.656,0.223,0.472,0.722,-10.77,12.88,1.28,4,3
18890.671,0.197,0.485,0.79,-12.39,22.8,-8.67,4,3
18890.687,0.118,0.484,0.877,-9.8,28.02,-17.82,4,3
18890.703,0.047,0.467,0.929,-3.6,25.15,-21.27,4,3
18890.703,0.017,0.482,0.952,4.82,16.57,-18.34,4,3
18890.718,0.023,0.53,0.944,13.31,6.2,-12.67,4,3
18890.718,0.038,0.593,0.919,13.34,-4.55,-9.43,4,3
18890.734,0.071,0.615,0.883,3.94,-13.03,-8.39,4,3
18890.75,0.11,0.609,0.827,-6.44,-16.57,-7.35,4,3
18890.75,0.135,0.597,0.78,-13.25,-14.01,-6.29,4,3
18890.765,0.146,0.6,0.768,-20.63,-7.29,-7.17,4,3
18890.781,0.141,0.571,0.778,-22.77,1.74,-9.92,4,3
18890.796,0.001,0.584,0.866,-20.63,13.37,-16.85,4,3
18890.796,-0.025,0.595,0.908,-20.11,8.97,-16.94,4,3
18890.812,-0.009,0.547,0.898,-12.24,1.53,-13.7,4,3
18890.828,0.032,0.53,0.859,-0.79,-3.2,-9.55,4,3
18890.828,0.034,0.559,0.829,8.7,-4.06,-7.93,4,3
18890.843,0.047,0.558,0.816,15.38,-4.0,-7.29,4,3
18890.859,0.075,0.533,0.763,20.2,-2.72,-7.23,4,3
18890.859,0.11,0.443,0.732,25.09,2.9,-10.44,4,3
18890.875,-0.108,0.631,0.84,22.61,4.18,-15.08,4,3
18890.89,0.012,0.794,0.91,14.16,-5.25,-0.61,4,3
18890.89,0.118,0.698,0.854,12.3,-12.05,8.45,4,3
18890.906,0.134,0.654,0.843,6.2,-8.58,10.9,4,3
18890.906,0.121,0.65,0.884,4.79,-4.7,12.6,4,3
18890.921,0.085,0.614,0.89,11.93,-3.02,14.8,4,3
18890.937,0.021,0.609,0.913,18.16,-5.68,16.39,4,3
18890.953,-0.036,0.615,0.936,22.89,-15.02,18.49,4,3
18890.968,-0.031,0.717,0.856,17.58,-49.93,28.69,4,3
18890.968,0.188,0.557,0.736,7.35,-59.66,33.85,4,3
18890.984,0.175,0.583,0.782,-20.33,-62.93,26.22,4,3
18891.0,0.25,0.582,0.679,-20.84,-55.33,29.85,4,3
18891.0,0.3,0.457,0.655,-11.38,-43.92,29.79,4,3
18891.015,0.298,0.468,0.659,-6.44,-27.56,24.57,4,3
18891.031,0.288,0.478,0.684,3.48,-11.08,19.29,4,3
18891.031,0.246,0.461,0.683,16.24,0.52,13.31,4,3
18891.046,0.19,0.481,0.692,24.41,7.26,7.93,4,3
18891.046,0.158,0.529,0.714,25.82,9.31,3.14,4,3
18891.062,0.14,0.577,0.722,18.89,6.96,-1.92,4,3
18891.078,0.135,0.601,0.75,6.04,2.04,-5.46,4,3
18891.078,0.145,0.601,0.769,-4.67,-2.84,-5.89,4,3
18891.093,0.167,0.585,0.773,-8.06,-5.83,-2.53,4,3
18891.109,0.177,0.583,0.776,-4.61,-6.1,2.99,4,3
18891.109,0.183,0.591,0.767,1.28,-5.37,8.73,4,3
18891.14,0.235,0.608,0.746,1.34,-2.2,13.37,4,3
18891.14,0.245,0.598,0.735,-3.85,1.59,11.05,4,3
18891.156,0.246,0.579,0.722,-9.49,6.01,6.44,4,3
18891.171,0.232,0.563,0.732,-12.39,10.5,0.92,4,3
18891.171,0.195,0.554,0.751,-10.62,14.04,-4.0,4,3
18891.187,0.163,0.554,0.76,-5.62,14.89,-7.51,4,3
18891.187,0.157,0.549,0.762,-0.12,14.34,-9.61,4,3
18891.203,0.16,0.541,0.752,5.31,14.31,-11.38,4,3
18891.218,0.177,0.532,0.73,11.72,16.82,-13.55,4,3
18891.218,0.191,0.527,0.693,17.55,23.13,-16.75,4,3
18891.234,0.157,0.526,0.643,22.34,33.11,-20.81,4,3
18891.25,0.049,0.647,0.773,4.85,35.74,-25.51,4,3
18891.25,0.164,0.783,0.833,-25.76,30.76,-25.33,4,3
18891.265,0.027,0.605,0.86,-25.48,32.56,-25.45,4,3
18891.265,-0.068,0.79,1.04,-42.51,20.48,-22.28,4,3
18891.281,0.024,0.816,1.072,-34.79,5.13,-5.86,4,3
18891.312,0.1,0.598,0.877,4.58,-10.41,17.73,4,3
18891.312,0.093,0.599,0.817,12.02,-11.08,17.3,4,3
18891.328,0.073,0.54,0.791,16.48,-12.33,15.44,4,3
18891.328,0.063,0.538,0.784,13.03,-15.81,12.6,4,3
18891.343,0.048,0.558,0.795,7.26,-21.09,9.86,4,3
18891.359,0.092,0.61,0.799,0.55,-27.99,9.92,4,3
18891.359,0.187,0.519,0.715,7.02,-26.86,13.03,4,3
18891.375,0.124,0.521,0.709,11.84,-20.78,12.3,4,3
18891.39,0.184,0.657,0.757,5.77,-17.88,17.37,4,3
18891.39,0.208,0.601,0.741,5.98,-12.79,19.65,4,3
18891.406,0.183,0.545,0.739,2.93,-8.15,18.13,4,3
18891.406,0.165,0.577,0.783,0.27,-5.52,17.4,4,3
18891.421,0.166,0.579,0.8,-0.58,-6.93,15.99,4,3
18891.437,0.158,0.576,0.808,-1.1,-9.67,13.79,4,3
18891.453,0.151,0.568,0.807,-1.53,-13.0,11.47,4,3
18891.453,0.169,0.567,0.808,-4.03,-17.21,9.46,4,3
18891.468,0.235,0.542,0.758,-6.99,-19.96,4.88,4,3
18891.484,0.253,0.529,0.731,-5.58,-15.81,2.17,4,3
18891.5,0.267,0.52,0.711,-4.0,-9.46,-0.85,4,3
18891.5,0.274,0.511,0.699,-1.43,-1.46,-4.12,4,3
18891.515,0.239,0.523,0.733,2.72,7.32,-7.57,4,3
18891.531,0.17,0.533,0.767,9.13,12.21,-9.34,4,3
18891.531,0.147,0.555,0.793,12.63,11.17,-7.63,4,3
18891.546,0.141,0.589,0.809,11.93,7.51,-5.89,4,3
18891.562,0.127,0.62,0.843,7.6,2.14,-5.28,4,3
18891.562,0.131,0.633,0.859,0.58,-5.46,-3.72,4,3
18891.578,0.165,0.619,0.841,-4.43,-12.63,-1.1,4,3
18891.578,0.199,0.6,0.808,-4.73,-15.81,1.28,4,3
18891.593,0.223,0.591,0.775,-3.05,-14.8,2.47,4,3
18891.609,0.222,0.594,0.762,-2.5,-8.12,2.44,4,3
18891.609,0.217,0.579,0.75,-3.57,-4.76,2.11,4,3
18891.625,0.221,0.57,0.749,-3.3,-1.56,0.98,4,3
18891.64,0.18,0.55,0.781,1.22,0.03,-1.22,4,3
18891.656,0.178,0.554,0.778,4.52,-0.61,-2.14,4,3
18891.656,0.17,0.57,0.78,6.87,-1.37,-2.96,4,3
18891.671,0.172,0.586,0.78,6.81,-2.87,-3.17,4,3
18891.687,0.188,0.587,0.768,5.01,-4.3,-3.02,4,3
18891.687,0.205,0.582,0.751,2.59,-3.94,-3.14,4,3
18891.703,0.219,0.57,0.743,0.4,-1.98,-3.78,4,3
18891.718,0.225,0.557,0.74,-1.16,1.43,-5.86,4,3
18891.718,0.229,0.535,0.736,-1.43,6.16,-9.61,4,3
18891.734,0.226,0.486,0.731,0.27,12.05,-15.72,4,3
18891.75,0.227,0.417,0.698,4.36,19.17,-24.57,4,3
18891.75,0.176,0.401,0.691,11.44,26.98,-35.1,4,3
18891.765,0.102,0.588,0.824,1.8,27.99,-43.52,4,3
18891.765,0.189,0.66,0.86,-9.86,25.45,-44.19,4,3
18891.781,-0.035,0.684,0.961,-11.69,21.67,-45.78,4,3
18891.796,-0.014,0.971,1.075,-23.93,7.14,-28.63,4,3
18891.812,0.138,0.673,0.789,3.17,-11.05,14.28,4,3
18891.828,0.128,0.616,0.744,1.31,-7.35,17.09,4,3
18891.828,0.076,0.535,0.726,4.61,-4.36,14.86,4,3
18891.843,0.051,0.522,0.741,4.58,-7.08,11.81,4,3
18891.859,0.041,0.553,0.761,3.91,-12.3,8.97,4,3
18891.859,0.069,0.531,0.772,4.7,-17.79,7.72,4,3
18891.875,0.094,0.618,0.754,4.67,-22.46,9.13,4,3
18891.89,0.232,0.561,0.687,9.55,-18.56,13.28,4,3
18891.89,0.162,0.541,0.683,12.21,-8.67,8.48,4,3
18891.906,0.186,0.603,0.727,9.13,-1.04,9.86,4,3
18891.921,0.172,0.584,0.747,10.71,4.12,11.02,4,3
18891.921,0.159,0.58,0.771,10.07,7.02,12.15,4,3
18891.937,0.147,0.607,0.814,7.66,6.68,12.3,4,3
18891.937,0.137,0.613,0.837,5.83,2.56,11.75,4,3
18891.953,0.145,0.6,0.845,0.92,-4.33,9.7,4,3
18891.968,0.167,0.584,0.832,-2.11,-10.83,7.42,4,3
18891.984,0.215,0.568,0.769,4.36,-14.56,6.16,4,3
18892.0,0.231,0.574,0.736,6.23,-12.05,4.88,4,3
18892.0,0.241,0.569,0.717,4.97,-7.97,2.66,4,3
18892.015,0.241,0.563,0.703,2.04,-2.75,-0.82,4,3
18892.031,0.219,0.558,0.71,-0.12,2.75,-4.7,4,3
18892.031,0.186,0.56,0.734,-0.67,6.07,-8.03,4,3
18892.046,0.164,0.579,0.778,0.06,6.04,-9.7,4,3
18892.046,0.13,0.605,0.814,4.06,3.08,-9.77,4,3
18892.062,0.124,0.616,0.814,7.54,-3.48,-7.42,4,3
18892.078,0.156,0.636,0.798,6.81,-10.56,-4.21,4,3
18892.078,0.196,0.631,0.765,5.25,-14.37,-2.87,4,3
18892.093,0.217,0.625,0.736,3.85,-13.46,-2.72,4,3
18892.109,0.219,0.622,0.716,2.14,-9.7,-2.72,4,3
18892.109,0.219,0.616,0.708,0.15,-5.04,-2.81,4,3
18892.125,0.218,0.609,0.705,-1.62,0.06,-3.42,4,3
18892.14,0.206,0.599,0.708,-2.29,5.1,-4.64,4,3
18892.14,0.18,0.59,0.73,-0.89,9.16,-5.83,4,3
18892.156,0.137,0.601,0.767,2.81,10.62,-6.44,4,3
18892.156,0.106,0.611,0.796,7.35,7.6,-5.22,4,3
18892.171,0.105,0.631,0.806,8.73,1.53,-2.69,4,3
18892.187,0.13,0.65,0.812,6.35,-4.76,-0.18,4,3
18892.187,0.165,0.649,0.795,3.2,-9.13,1.5,4,3
18892.203,0.194,0.637,0.768,0.43,-9.89,2.78,4,3
18892.218,0.207,0.624,0.75,-1.25,-7.63,3.51,4,3
18892.218,0.21,0.614,0.743,-2.14,-3.42,3.69,4,3
18892.234,0.201,0.606,0.746,-2.53,0.55,2.93,4,3
18892.25,0.18,0.597,0.759,-2.38,3.45,1.4,4,3
18892.25,0.156,0.587,0.781,-0.52,4.18,0.4,4,3
18892.265,0.132,0.589,0.811,3.66,2.5,0.09,4,3
18892.281,0.109,0.601,0.829,9.03,-1.92,0.7,4,3
18892.281,0.117,0.613,0.827,11.75,-8.45,2.47,4,3
18892.296,0.15,0.619,0.814,10.86,-14.28,3.91,4,3
18892.296,0.187,0.609,0.786,9.16,-17.4,3.94,4,3
18892.312,0.209,0.592,0.758,7.32,-17.15,3.17,4,3
18892.328,0.217,0.586,0.748,6.74,-14.59,1.89,4,3
18892.343,0.213,0.589,0.748,7.08,-11.41,0.37,4,3
18892.343,0.205,0.594,0.749,7.02,-8.7,-1.22,4,3
18892.359,0.203,0.594,0.749,6.29,-6.84,-3.08,4,3
18892.359,0.205,0.592,0.753,5.52,-5.83,-5.1,4,3
18892.375,0.195,0.596,0.763,6.01,-5.01,-7.23,4,3
18892.39,0.178,0.601,0.769,7.87,-5.31,-8.33,4,3
18892.39,0.167,0.613,0.767,8.97,-6.99,-8.0,4,3
18892.406,0.179,0.628,0.758,7.42,-9.13,-7.23,4,3
18892.406,0.192,0.627,0.738,4.06,-9.98,-7.35,4,3
18892.421,0.199,0.615,0.714,0.61,-9.09,-7.84,4,3
18892.437,0.208,0.607,0.709,-1.89,-6.59,-8.0,4,3
18892.437,0.199,0.614,0.716,-2.69,-3.02,-8.21,4,3
18892.453,0.189,0.61,0.716,-2.69,-0.46,-8.18,4,3
18892.468,0.186,0.608,0.723,-3.14,1.25,-7.78,4,3
18892.468,0.16,0.62,0.751,-2.62,2.47,-8.06,4,3
18892.484,0.126,0.634,0.77,-1.07,0.89,-7.26,4,3
18892.5,0.166,0.642,0.754,-4.21,-7.17,-2.2,4,3
18892.515,0.192,0.624,0.738,-6.62,-7.97,-1.65,4,3
18892.531,0.2,0.603,0.72,-7.32,-6.2,-2.04,4,3
18892.531,0.203,0.586,0.703,-6.68,-2.96,-2.75,4,3
18892.546,0.208,0.577,0.702,-5.77,1.1,-4.46,4,3
18892.562,0.205,0.564,0.699,-4.88,5.4,-7.17,4,3
18892.562,0.165,0.575,0.735,-3.08,9.16,-10.47,4,3
18892.578,0.124,0.579,0.753,0.27,9.13,-11.99,4,3
18892.578,0.127,0.59,0.762,2.08,5.71,-11.05,4,3
18892.593,0.137,0.604,0.755,2.62,1.95,-9.49,4,3
18892.609,0.151,0.61,0.74,0.37,2.75,-9.61,4,3
18892.609,0.164,0.608,0.722,-2.32,5.19,-9.89,4,3
18892.625,0.175,0.587,0.699,-5.07,8.85,-11.2,4,3
18892.64,0.176,0.572,0.699,-7.35,13.34,-13.61,4,3
18892.64,0.157,0.561,0.706,-6.87,18.01,-16.97,4,3
18892.656,0.147,0.545,0.705,-4.61,21.55,-20.14,4,3
18892.671,0.101,0.579,0.728,-3.48,25.79,-26.89,4,3
18892.687,0.133,0.624,0.769,-10.65,24.48,-27.77,4,3
18892.687,0.143,0.612,0.771,-14.22,26.09,-29.97,4,3
18892.703,0.198,0.584,0.741,-14.47,30.52,-32.41,4,3
18892.718,0.004,0.591,0.848,-8.3,38.54,-38.09,4,3
18892.734,-0.074,0.864,1.038,-11.17,29.48,-30.55,4,3
18892.734,0.055,0.851,1.049,0.52,11.23,-13.7,4,3
18892.75,0.073,0.727,0.97,16.14,2.14,-8.42,4,3
18892.75,0.108,0.657,0.894,28.66,0.67,-5.49,4,3
18892.765,0.088,0.668,0.881,43.21,1.8,-4.49,4,3
18892.781,0.03,0.69,0.891,58.63,0.82,-5.65,4,3
18892.781,-0.042,0.704,0.923,68.42,-6.29,-4.88,4,3
18892.796,-0.046,0.714,0.918,70.01,-20.08,-0.76,4,3
18892.812,-0.033,0.809,0.897,61.62,-35.19,2.56,4,3
18892.812,0.079,0.828,0.829,49.44,-45.2,6.9,4,3
18892.828,0.089,0.726,0.799,30.98,-47.3,1.5,4,3
18892.843,0.124,0.77,0.799,14.07,-41.75,9.86,4,3
18892.859,0.137,0.72,0.764,16.24,-33.72,14.34,4,3
18892.875,0.114,0.753,0.797,13.46,-23.26,14.34,4,3
18892.875,0.082,0.715,0.826,17.43,-16.79,13.15,4,3
18892.89,0.061,0.705,0.842,24.75,-13.55,11.38,4,3
18892.89,0.047,0.731,0.882,33.08,-12.45,9.22,4,3
18892.906,0.035,0.763,0.915,42.97,-14.16,5.37,4,3
18892.921,0.025,0.805,0.946,51.64,-17.52,0.49,4,3
18892.921,0.01,0.838,0.968,58.75,-21.73,-4.85,4,3
18892.937,0.009,0.865,0.975,64.0,-26.61,-9.19,4,3
18892.953,0.015,0.891,0.972,68.06,-30.85,-13.49,4,3
18892.953,0.019,0.915,0.985,71.63,-34.03,-18.4,4,3
18892.968,0.002,0.926,1.008,77.15,-37.39,-23.65,4,3
18892.968,0.001,0.938,1.02,86.64,-42.39,-27.68,4,3
18892.984,0.012,0.993,1.006,99.31,-46.14,-32.01,4,3
18893.0,-0.005,1.004,0.974,111.18,-48.01,-36.99,4,3
18893.0,0.0,1.016,0.967,119.21,-50.63,-40.41,4,3
18893.015,0.015,1.056,0.967,127.78,-52.13,-43.03,4,3
18893.031,-0.003,1.062,0.963,136.91,-53.65,-44.65,4,3
18893.031,0.007,1.081,0.955,144.51,-57.89,-43.89,4,3
18893.046,0.021,1.116,0.945,150.88,-61.49,-43.15,4,3
18893.062,0.024,1.155,0.948,154.82,-65.25,-43.86,4,3
18893.062,-0.014,1.2,0.971,155.92,-71.69,-45.93,4,3
18893.078,-0.029,1.209,0.962,153.97,-84.2,-46.72,4,3
18893.078,0.0,1.206,0.933,147.5,-101.02,-45.99,4,3
18893.093,0.069,1.181,0.895,138.95,-117.62,-45.14,4,3
18893.109,0.136,1.121,0.859,131.57,-130.22,-46.69,4,3
18893.109,0.183,1.073,0.858,130.59,-138.16,-48.22,4,3
18893.125,0.205,1.062,0.854,136.66,-143.56,-47.03,4,3
18893.14,0.206,1.074,0.837,144.11,-148.93,-41.72,4,3
18893.14,0.21,1.099,0.805,145.3,-156.47,-32.38,4,3
18893.156,0.228,1.114,0.764,136.36,-166.08,-19.93,4,3
18893.171,0.266,1.091,0.707,88.23,-189.61,8.64,4,3
18893.187,0.287,1.071,0.725,59.08,-202.28,21.18,4,3
18893.187,0.285,1.029,0.705,37.32,-215.89,30.88,4,3
18893.203,0.298,0.907,0.662,23.74,-229.62,39.06,4,3
18893.218,0.325,0.791,0.622,19.01,-240.06,44.71,4,3
18893.234,0.336,0.734,0.572,23.77,-246.56,46.3,4,3
18893.234,0.325,0.733,0.512,32.69,-250.5,43.82,4,3
18893.25,0.291,0.746,0.448,38.85,-254.19,38.88,4,3
18893.25,0.257,0.771,0.404,38.12,-259.35,35.49,4,3
18893.265,0.237,0.801,0.372,33.36,-264.99,34.24,4,3
18893.281,0.22,0.805,0.333,30.27,-269.91,33.08,4,3
18893.281,0.208,0.785,0.3,32.69,-273.35,29.97,4,3
18893.296,0.189,0.759,0.247,42.36,-274.15,25.82,4,3
18893.296,0.189,0.71,0.173,52.86,-271.34,27.56,4,3
18893.312,0.172,0.686,0.122,55.12,-264.14,34.94,4,3
18893.328,0.119,0.691,0.094,49.44,-254.8,44.68,4,3
18893.343,0.108,0.667,-0.002,19.04,-237.65,69.03,4,3
18893.359,0.124,0.637,-0.016,-2.96,-226.84,79.53,4,3
18893.375,0.086,0.636,-0.012,-22.98,-214.3,85.36,4,3
18893.375,0.027,0.647,0.015,-36.01,-205.3,84.63,4,3
18893.39,-0.005,0.618,0.052,-40.8,-200.75,83.13,4,3
18893.39,-0.048,0.647,0.079,-40.68,-199.07,80.05,4,3
18893.406,-0.093,0.702,0.092,-39.61,-200.87,74.68,4,3
18893.406,-0.125,0.731,0.098,-41.81,-207.62,68.54,4,3
18893.421,-0.185,0.762,0.123,-47.88,-218.27,63.57,4,3
18893.437,-0.25,0.775,0.136,-50.66,-233.07,58.87,4,3
18893.437,-0.267,0.763,0.102,-43.95,-248.33,53.68,4,3
18893.453,-0.199,0.732,0.034,-32.17,-257.88,48.74,4,3
18893.468,-0.09,0.711,-0.07,-22.89,-257.36,42.09,4,3
18893.468,-0.013,0.702,-0.145,-19.62,-245.74,32.44,4,3
18893.484,-0.027,0.693,-0.174,-18.37,-227.3,19.17,4,3
18893.5,-0.16,0.754,-0.156,-14.31,-209.85,0.7,4,3
18893.515,-0.312,0.829,-0.065,-10.86,-201.64,-15.72,4,3
18893.515,-0.481,0.906,0.042,-9.58,-209.33,-26.15,4,3
18893.531,-0.654,0.914,0.01,3.33,-228.64,-33.63,4,3
18893.531,-0.702,0.915,-0.133,20.48,-253.58,-36.62,4,3
18893.546,-0.566,0.913,-0.275,32.9,-274.36,-33.02,4,3
18893.562,-0.386,0.893,-0.415,39.95,-277.32,-30.34,4,3
18893.562,-0.241,0.869,-0.536,39.86,-262.0,-30.43,4,3
18893.578,-0.114,0.824,-0.626,29.6,-198.92,-30.09,4,3
18893.593,-0.012,0.781,-0.669,23.62,-157.14,-29.94,4,3
18893.593,0.031,0.768,-0.662,16.17,-115.73,-29.79,4,3
18893.609,-0.001,0.789,-0.616,6.68,-85.42,-26.0,4,3
18893.625,-0.282,0.919,-0.364,-10.16,-75.08,-13.76,4,3
18893.625,-0.371,0.965,-0.235,-37.14,-83.5,2.69,4,3
18893.64,-0.43,0.961,-0.135,-62.62,-104.68,20.17,4,3
18893.64,-0.396,0.892,-0.11,-74.8,-129.18,38.54,4,3
18893.656,-0.313,0.811,-0.161,-73.06,-145.85,53.53,4,3
18893.671,-0.22,0.741,-0.267,-62.14,-151.95,60.67,4,3
18893.671,-0.149,0.676,-0.324,-50.78,-149.33,58.41,4,3
18893.687,-0.095,0.627,-0.369,-41.26,-140.08,48.74,4,3
18893.687,-0.083,0.597,-0.413,-32.75,-125.83,35.13,4,3
18893.703,-0.127,0.614,-0.431,-29.42,-110.69,20.26,4,3
18893.718,-0.195,0.656,-0.386,-34.0,-101.35,7.63,4,3
18893.734,-0.265,0.709,-0.292,-42.97,-102.94,-1.71,4,3
18893.734,-0.288,0.744,-0.238,-50.39,-110.17,-8.18,4,3
18893.75,-0.314,0.78,-0.175,-57.22,-117.89,-12.05,4,3
18893.75,-0.318,0.776,-0.149,-59.88,-127.26,-14.34,4,3
18893.765,-0.289,0.761,-0.158,-52.77,-135.04,-14.25,4,3
18893.781,-0.249,0.777,-0.197,-37.02,-135.47,-13.25,4,3
18893.781,-0.207,0.8,-0.266,-21.12,-130.8,-14.62,4,3
18893.796,-0.177,0.807,-0.326,-10.1,-122.68,-18.65,4,3
18893.796,-0.174,0.818,-0.376,-6.65,-109.93,-22.71,4,3
18893.812,-0.192,0.834,-0.403,-9.49,-95.31,-25.57,4,3
18893.828,-0.212,0.861,-0.401,-15.08,-82.71,-27.13,4,3
18893.843,-0.228,0.894,-0.376,-20.14,-73.24,-27.25,4,3
18893.843,-0.234,0.909,-0.358,-23.35,-67.57,-26.76,4,3
18893.859,-0.25,0.913,-0.351,-25.18,-65.4,-25.7,4,3
18893.859,-0.27,0.923,-0.329,-26.22,-65.95,-22.92,4,3
18893.875,-0.261,0.911,-0.335,-23.62,-68.58,-19.1,4,3
18893.89,-0.253,0.903,-0.349,-19.68,-71.26,-15.99,4,3
18893.89,-0.229,0.881,-0.383,-14.59,-74.31,-13.67,4,3
18893.906,-0.198,0.863,-0.422,-9.31,-75.93,-12.48,4,3
18893.921,-0.174,0.857,-0.456,-3.69,-74.28,-12.79,4,3
18893.921,-0.153,0.861,-0.476,1.46,-71.02,-13.58,4,3
18893.937,-0.14,0.87,-0.483,6.32,-66.77,-14.83,4,3
18893.937,-0.124,0.879,-0.487,11.2,-61.4,-15.9,4,3
18893.953,-0.107,0.902,-0.487,15.38,-55.36,-16.36,4,3
18893.968,-0.104,0.924,-0.483,18.95,-48.8,-16.42,4,3
18893.968,-0.116,0.943,-0.47,21.03,-43.79,-16.17,4,3
18893.984,-0.121,0.962,-0.454,21.88,-40.53,-14.71,4,3
18894.0,-0.119,0.975,-0.454,21.27,-36.99,-11.84,4,3
18894.0,-0.109,0.99,-0.46,17.82,-32.84,-8.18,4,3
18894.015,-0.099,1.006,-0.46,12.54,-29.18,-4.97,4,3
18894.015,-0.072,1.015,-0.455,6.29,-24.38,-2.2,4,3
18894.031,-0.036,1.022,-0.449,-0.64,-19.93,-1.19,4,3
18894.046,-0.02,1.02,-0.437,-7.45,-13.86,-1.92,4,3
18894.062,-0.038,0.999,-0.411,-12.7,-6.47,-2.93,4,3
18894.062,-0.071,0.98,-0.388,-15.87,-0.61,-3.27,4,3
18894.078,-0.053,1.002,-0.363,-17.55,2.08,-3.39,4,3
18894.078,-0.104,1.002,-0.337,-19.32,0.06,-6.35,4,3
18894.093,-0.114,0.969,-0.309,-20.63,0.52,-4.09,4,3
18894.109,-0.093,0.977,-0.293,-19.07,-1.71,0.18,4,3
18894.125,-0.062,1.021,-0.295,-15.56,-10.74,1.43,4,3
18894.125,-0.088,0.983,-0.303,-12.7,-13.4,1.31,4,3
18894.14,-0.074,0.935,-0.297,-10.47,-4.18,8.73,4,3
18894.14,-0.062,0.986,-0.308,-6.44,1.98,13.95,4,3
18894.156,-0.052,0.97,-0.331,-4.76,2.26,15.75,4,3
18894.171,-0.032,0.942,-0.331,-8.15,2.78,15.29,4,3
18894.171,-0.043,0.941,-0.33,-11.84,1.59,10.99,4,3
18894.187,-0.05,0.92,-0.31,-14.74,2.53,7.39,4,3
18894.187,-0.068,0.924,-0.285,-15.41,3.63,4.43,4,3
18894.203,-0.083,0.924,-0.265,-12.82,1.89,2.26,4,3
18894.218,-0.093,0.931,-0.25,-9.13,-1.22,1.25,4,3
18894.234,-0.089,0.942,-0.239,-6.01,-5.89,1.1,4,3
18894.234,-0.077,0.944,-0.24,-2.29,-7.81,1.65,4,3
18894.25,-0.079,0.949,-0.256,0.73,-8.09,2.11,4,3
18894.25,-0.072,0.942,-0.272,1.37,-8.12,3.23,4,3
18894.265,-0.075,0.933,-0.291,0.55,-6.47,4.24,4,3
18894.281,-0.076,0.923,-0.306,-1.53,-3.78,4.27,4,3
18894.281,-0.064,0.917,-0.308,-3.88,-1.65,3.33,4,3
18894.296,-0.089,0.925,-0.3,-4.52,0.58,1.89,4,3
18894.296,-0.135,0.935,-0.287,-4.27,0.55,1.04,4,3
18894.312,-0.155,0.942,-0.273,-3.39,-3.3,2.17,4,3
18894.328,-0.154,0.963,-0.276,-0.67,-8.27,4.27,4,3
18894.328,-0.136,0.991,-0.294,1.86,-13.61,6.23,4,3
18894.343,-0.113,1.006,-0.301,1.62,-18.65,7.05,4,3
18894.359,-0.104,1.007,-0.307,0.73,-21.73,7.17,4,3
18894.375,-0.102,1.002,-0.322,0.37,-22.68,8.06,4,3
18894.375,-0.1,1.0,-0.33,-0.34,-22.43,9.74,4,3
18894.39,-0.091,1.011,-0.344,-1.83,-21.85,11.11,4,3
18894.39,-0.099,1.016,-0.358,-2.99,-19.47,11.9,4,3
18894.406,-0.121,1.008,-0.372,-3.88,-16.36,13.0,4,3
18894.421,-0.127,1.007,-0.37,-5.37,-14.77,14.95,4,3
18894.421,-0.142,1.004,-0.367,-4.33,-13.79,16.6,4,3
18894.437,-0.161,0.996,-0.371,-0.85,-13.95,18.98,4,3
18894.437,-0.156,0.999,-0.382,1.62,-15.5,22.13,4,3
18894.453,-0.146,0.995,-0.389,0.92,-16.45,24.66,4,3
18894.468,-0.146,0.975,-0.398,-3.08,-16.21,26.12,4,3
18894.468,-0.122,0.953,-0.403,-9.43,-15.47,26.7,4,3
18894.484,-0.093,0.941,-0.388,-15.41,-12.21,26.49,4,3
18894.5,-0.097,0.925,-0.359,-17.88,-6.68,25.24,4,3
18894.5,-0.115,0.919,-0.331,-15.78,-2.17,24.38,4,3
18894.515,-0.136,0.931,-0.308,-11.35,-0.06,24.75,4,3
18894.515,-0.153,0.942,-0.291,-8.88,-0.61,25.85,4,3
18894.531,-0.159,0.945,-0.275,-8.91,-3.88,26.7,4,3
18894.546,-0.152,0.95,-0.258,-8.58,-8.45,27.01,4,3
18894.546,-0.126,0.945,-0.269,-8.94,-13.21,26.49,4,3
18894.562,-0.096,0.927,-0.286,-15.75,-15.9,21.88,4,3
18894.578,-0.069,0.913,-0.297,-17.33,-12.45,19.32,4,3
18894.578,-0.046,0.918,-0.301,-19.44,-7.81,17.18,4,3
18894.593,-0.044,0.928,-0.268,-20.42,-3.17,16.02,4,3
18894.609,-0.039,0.926,-0.256,-18.34,1.5,16.69,4,3
18894.609,-0.032,0.905,-0.254,-15.11,6.16,17.37,4,3
18894.625,-0.034,0.898,-0.257,-12.12,11.69,16.24,4,3
18894.64,-0.035,0.906,-0.253,-10.93,18.19,14.07,4,3
18894.656,-0.016,0.907,-0.242,-11.63,23.35,10.9,4,3
18894.656,0.002,0.905,-0.248,-11.02,29.36,7.45,4,3
18894.656,0.05,0.909,-0.248,-8.88,36.13,4.46,4,3
18894.671,0.086,0.93,-0.238,-4.58,44.19,1.62,4,3
18894.687,0.073,0.955,-0.234,1.68,54.08,0.06,4,3
18894.703,0.034,0.998,-0.219,4.88,60.73,-0.21,4,3
18894.703,-0.029,1.056,-0.192,2.41,62.11,0.58,4,3
18894.718,-0.101,1.102,-0.148,-5.43,56.95,2.26,4,3
18894.718,-0.133,1.103,-0.125,-14.89,44.62,6.04,4,3
18894.734,-0.113,1.069,-0.156,-21.55,31.01,11.23,4,3
18894.75,-0.056,1.027,-0.217,-24.23,23.01,16.97,4,3
18894.75,0.009,0.99,-0.289,-24.17,23.32,21.21,4,3
18894.765,0.032,0.963,-0.331,-23.68,30.82,22.43,4,3
18894.781,0.005,0.919,-0.341,-22.16,42.36,21.39,4,3
18894.781,-0.038,0.882,-0.328,-19.44,54.02,20.08,4,3
18894.796,-0.096,0.877,-0.293,-14.04,63.72,18.43,4,3
18894.796,-0.161,0.881,-0.259,-8.12,69.03,16.17,4,3
18894.812,-0.197,0.892,-0.212,-4.94,67.23,13.67,4,3
18894.828,-0.181,0.905,-0.176,-3.48,60.52,11.57,4,3
18894.843,-0.152,0.909,-0.158,-1.53,53.83,9.55,4,3
18894.843,-0.106,0.901,-0.165,1.62,49.17,8.33,4,3
18894.859,-0.04,0.901,-0.175,3.69,47.61,7.23,4,3
18894.859,-0.008,0.902,-0.171,4.61,51.21,5.37,4,3
18894.875,0.002,0.891,-0.157,4.85,57.99,3.54,4,3
18894.89,0.004,0.894,-0.133,4.88,63.66,2.01,4,3
18894.89,0.004,0.902,-0.107,4.82,68.27,1.19,4,3
18894.906,-0.012,0.923,-0.064,5.89,70.56,0.89,4,3
18894.906,-0.032,0.935,-0.042,7.45,69.12,1.22,4,3
18894.921,-0.034,0.951,-0.019,7.08,63.2,2.99,4,3
18894.937,-0.002,0.948,-0.034,5.37,56.49,4.43,4,3
18894.937,0.051,0.933,-0.063,1.83,51.48,4.49,4,3
18894.953,0.102,0.924,-0.074,-0.79,50.6,2.96,4,3
18894.968,0.131,0.919,-0.078,-0.52,54.26,-0.34,4,3
18894.968,0.145,0.915,-0.077,1.77,59.79,-4.15,4,3
18894.984,0.142,0.926,-0.064,4.58,65.07,-7.97,4,3
18895.0,0.118,0.95,-0.041,6.04,68.76,-11.47,4,3
18895.015,0.099,0.962,-0.025,3.97,68.85,-13.52,4,3
18895.015,0.092,0.985,0.003,0.55,65.92,-13.43,4,3
18895.031,0.079,1.002,0.023,-2.5,60.95,-11.63,4,3
18895.031,0.084,0.996,0.025,-6.29,54.35,-9.03,4,3
18895.046,0.11,0.995,0.029,-10.22,48.04,-6.71,4,3
18895.062,0.141,0.978,0.01,-11.84,43.52,-5.43,4,3
18895.062,0.168,0.952,-0.014,-10.07,41.99,-5.13,4,3
18895.078,0.177,0.946,-0.039,-5.49,44.34,-5.58,4,3
18895.078,0.169,0.955,-0.062,-0.89,49.47,-5.89,4,3
18895.093,0.142,0.97,-0.08,1.25,54.9,-6.1,4,3
18895.109,0.108,0.988,-0.081,0.31,59.36,-6.2,4,3
18895.109,0.102,1.002,-0.063,-1.71,60.85,-5.46,4,3
18895.125,0.129,1.017,-0.058,-1.65,61.31,-3.97,4,3
18895.14,0.148,1.027,-0.061,1.13,64.09,-2.32,4,3
18895.14,0.139,1.04,-0.055,2.99,67.51,-0.27,4,3
18895.156,0.121,1.041,-0.048,1.01,68.21,1.68,4,3
18895.171,0.127,1.011,-0.026,-2.08,69.31,5.19,4,3
18895.171,0.139,1.018,-0.021,-2.26,69.86,7.69,4,3
18895.187,0.148,1.025,-0.008,-2.29,67.11,8.09,4,3
18895.187,0.141,0.994,0.005,-1.46,66.07,8.55,4,3
18895.203,0.131,0.986,0.01,0.24,65.0,10.13,4,3
18895.218,0.138,0.979,-0.002,1.1,63.02,11.9,4,3
18895.234,0.15,0.959,-0.023,0.89,61.43,10.96,4,3
18895.234,0.145,0.959,-0.029,-0.76,60.7,7.32,4,3
18895.25,0.135,0.94,-0.02,-2.04,60.21,2.62,4,3
18895.25,0.14,0.926,-0.01,-0.95,58.69,-1.62,4,3
18895.265,0.134,0.933,-0.0,2.81,58.14,-4.36,4,3
18895.281,0.12,0.97,0.011,6.74,57.62,-5.89,4,3
18895.281,0.138,1.002,0.015,7.48,53.71,-6.29,4,3
18895.296,0.163,1.01,0.006,5.71,49.65,-6.71,4,3
18895.296,0.176,0.998,0.003,5.07,47.49,-6.84,4,3
18895.312,0.175,0.981,-0.013,7.48,47.82,-5.92,4,3
18895.328,0.167,0.973,-0.041,9.58,49.68,-5.1,4,3
18895.343,0.147,0.969,-0.057,9.7,52.22,-6.01,4,3
18895.343,0.104,0.949,-0.067,9.4,54.66,-8.79,4,3
18895.359,0.077,0.934,-0.069,9.22,55.54,-11.35,4,3
18895.359,0.066,0.938,-0.074,10.68,54.69,-13.92,4,3
18895.375,0.074,0.952,-0.086,13.28,53.99,-16.45,4,3
18895.39,0.117,0.982,-0.074,14.31,52.25,-19.41,4,3
18895.39,0.134,1.003,-0.064,16.63,52.58,-24.14,4,3
18895.406,0.119,0.989,-0.061,21.64,53.35,-28.81,4,3
18895.421,0.089,0.983,-0.065,28.99,53.29,-32.78,4,3
18895.421,0.056,0.976,-0.09,36.68,52.86,-37.69,4,3
18895.437,0.026,0.972,-0.109,41.08,51.91,-43.89,4,3
18895.437,0.007,0.978,-0.121,42.79,51.73,-48.8,4,3
18895.453,0.015,0.997,-0.125,43.09,52.1,-51.33,4,3
18895.468,0.015,1.03,-0.124,42.76,54.02,-52.0,4,3
18895.468,-0.006,1.062,-0.119,41.47,56.92,-49.96,4,3
18895.484,-0.008,1.108,-0.117,36.1,58.05,-44.56,4,3
18895.5,-0.009,1.137,-0.118,27.65,59.33,-36.87,4,3
18895.5,-0.004,1.128,-0.116,19.38,60.7,-27.41,4,3
18895.515,0.01,1.113,-0.119,12.67,62.32,-16.51,4,3
18895.531,0.026,1.096,-0.122,7.23,65.68,-6.26,4,3
18895.531,0.016,1.068,-0.127,4.12,70.65,1.5,4,3
18895.546,0.012,1.039,-0.124,1.65,77.12,11.23,4,3
18895.546,0.007,1.023,-0.112,2.08,78.52,13.98,4,3
18895.562,0.003,0.999,-0.105,1.16,77.55,15.96,4,3
18895.578,0.01,0.991,-0.079,-0.12,75.41,16.17,4,3
18895.578,0.017,0.971,-0.042,-1.1,72.02,15.53,4,3
18895.593,0.029,0.964,-0.028,-1.74,66.81,14.25,4,3
18895.609,0.022,0.96,-0.033,-0.85,62.17,11.75,4,3
18895.609,0.039,0.915,-0.048,1.16,60.0,11.32,4,3
18895.625,0.062,0.948,-0.072,3.2,57.71,10.01,4,3
18895.64,0.08,0.916,-0.087,3.57,60.79,8.58,4,3
18895.64,0.082,0.891,-0.093,2.66,64.42,7.66,4,3
18895.656,0.105,0.895,-0.086,3.23,66.38,5.98,4,3
18895.656,0.111,0.888,-0.089,3.97,71.9,2.96,4,3
18895.671,0.088,0.898,-0.073,2.87,76.51,-1.59,4,3
18895.687,0.058,0.908,-0.038,0.92,78.4,-6.23,4,3
18895.703,0.021,0.89,-0.027,1.77,77.7,-9.0,4,3
18895.703,0.049,0.912,-0.048,4.06,73.67,-9.49,4,3
18895.718,0.057,0.937,-0.066,4.49,70.44,-12.39,4,3
18895.718,0.072,0.91,-0.069,3.2,68.76,-15.08,4,3
18895.734,0.088,0.928,-0.071,3.91,65.58,-19.87,4,3
18895.75,0.073,0.932,-0.079,8.67,64.06,-25.18,4,3
18895.765,0.043,0.938,-0.088,12.94,62.11,-28.84,4,3
18895.765,0.058,0.985,-0.11,15.96,59.82,-30.76,4,3
18895.781,0.081,0.987,-0.13,16.63,60.58,-32.04,4,3
18895.781,0.089,0.993,-0.128,15.69,64.39,-30.79,4,3
18895.796,0.085,1.019,-0.114,14.86,65.61,-28.29,4,3
18895.812,0.086,1.023,-0.086,13.46,66.1,-23.77,4,3
18895.812,0.074,1.04,-0.07,12.94,67.6,-18.86,4,3
18895.828,0.065,1.048,-0.067,12.48,67.29,-14.22,4,3
18895.843,0.069,1.031,-0.078,10.32,66.68,-9.61,4,3
18895.843,0.066,1.02,-0.082,7.05,66.32,-5.49,4,3
18895.859,0.071,0.994,-0.085,4.27,65.55,-2.41,4,3
18895.859,0.082,0.954,-0.101,3.94,65.95,-0.58,4,3
18895.875,0.097,0.936,-0.109,6.41,67.23,-0.46,4,3
18895.89,0.101,0.941,-0.098,9.09,68.82,-2.44,4,3
18895.89,0.1,0.944,-0.083,10.56,69.7,-5.13,4,3
18895.906,0.115,0.955,-0.056,10.83,70.25,-6.9,4,3
18895.906,0.098,0.978,-0.048,12.3,70.8,-8.51,4,3
18895.921,0.078,0.971,-0.028,12.94,70.47,-8.09,4,3
18895.937,0.074,0.989,-0.03,12.79,69.12,-4.91,4,3
18895.937,0.099,0.993,-0.056,11.11,67.11,-0.7,4,3
18895.953,0.112,0.988,-0.066,5.95,67.38,3.42,4,3
18895.968,0.105,0.982,-0.064,1.95,68.33,6.23,4,3
18895.968,0.096,0.976,-0.078,1.65,69.55,9.31,4,3
18895.984,0.096,0.977,-0.095,1.34,70.83,12.51,4,3
18896.0,0.11,0.978,-0.098,-1.68,71.99,14.98,4,3
18896.0,0.127,0.957,-0.092,-4.67,74.19,16.91,4,3
18896.015,0.131,0.941,-0.073,-5.16,77.27,18.1,4,3
18896.031,0.108,0.931,-0.046,-3.48,79.65,17.82,4,3
18896.031,0.094,0.92,-0.007,-2.01,78.65,16.82,4,3
18896.046,0.092,0.917,0.022,-1.07,74.74,14.62,4,3
18896.046,0.093,0.908,0.03,0.55,69.55,10.93,4,3
18896.062,0.102,0.906,0.024,3.36,63.3,5.58,4,3
18896.078,0.11,0.913,0.011,6.35,56.34,-0.64,4,3
18896.078,0.111,0.928,-0.014,8.94,50.48,-7.57,4,3
18896.093,0.098,0.929,-0.046,11.17,46.78,-13.43,4,3
18896.109,0.107,0.93,-0.078,13.61,44.83,-17.27,4,3
18896.109,0.114,0.959,-0.111,16.3,45.56,-20.75,4,3
18896.125,0.099,0.983,-0.134,17.4,48.62,-23.74,4,3
18896.14,0.1,0.994,-0.147,17.33,51.67,-25.06,4,3
18896.14,0.114,1.006,-0.159,18.74,55.76,-26.0,4,3
18896.156,0.097,1.008,-0.171,21.36,62.65,-27.77,4,3
18896.171,0.061,1.002,-0.168,22.86,70.71,-29.69,4,3
18896.171,0.027,0.991,-0.163,23.77,78.19,-31.37,4,3
18896.187,0.001,0.979,-0.164,23.56,84.6,-33.17,4,3
18896.187,0.01,0.967,-0.166,21.97,89.24,-35.37,4,3
18896.203,0.005,0.985,-0.12,21.24,93.69,-39.03,4,3
18896.218,-0.058,1.016,-0.059,26.34,95.77,-42.36,4,3
18896.218,-0.098,1.063,-0.017,30.88,89.85,-39.61,4,3
18896.234,-0.086,1.126,-0.012,28.9,78.71,-32.41,4,3
18896.25,-0.056,1.135,-0.052,19.93,67.45,-25.06,4,3
18896.265,-0.009,1.096,-0.104,7.87,59.57,-17.43,4,3
18896.265,0.051,1.048,-0.154,-0.12,58.41,-9.92,4,3
18896.281,0.093,1.001,-0.198,-2.59,63.57,-4.79,4,3
18896.281,0.122,0.979,-0.203,-1.86,72.27,-2.26,4,3
18896.296,0.115,0.986,-0.177,1.53,81.61,-2.29,4,3
18896.312,0.096,1.003,-0.126,6.07,86.83,-2.41,4,3
18896.312,0.094,1.031,-0.078,9.52,86.43,-1.95,4,3
18896.328,0.122,1.041,-0.04,9.55,81.91,-0.15,4,3
18896.328,0.156,1.03,-0.029,8.12,76.94,1.92,4,3
18896.343,0.188,1.021,-0.018,7.42,72.88,4.61,4,3
18896.359,0.21,1.017,-0.017,5.4,70.99,8.55,4,3
18896.375,0.222,1.0,-0.016,0.49,70.35,12.51,4,3
18896.375,0.248,0.964,-0.011,-3.33,70.13,16.85,4,3
18896.39,0.27,0.935,-0.011,-3.88,72.45,21.21,4,3
18896.39,0.27,0.912,-0.006,-3.81,76.78,25.54,4,3
18896.406,0.262,0.875,-0.005,-5.74,80.23,30.64,4,3
18896.421,0.282,0.851,0.018,-10.38,81.91,36.26,4,3
18896.421,0.292,0.837,0.044,-16.51,82.77,40.25,4,3
18896.437,0.302,0.805,0.076,-23.1,81.58,42.09,4,3
18896.437,0.305,0.795,0.1,-27.13,78.4,41.81,4,3
18896.453,0.299,0.807,0.11,-28.53,72.6,38.33,4,3
18896.468,0.283,0.811,0.105,-27.77,64.39,32.01,4,3
18896.468,0.278,0.819,0.099,-24.78,54.38,23.65,4,3
18896.484,0.271,0.849,0.078,-19.17,44.68,13.4,4,3
18896.5,0.247,0.876,0.044,-12.7,36.44,1.98,4,3
18896.5,0.218,0.918,0.002,-6.99,29.73,-8.51,4,3
18896.515,0.188,0.96,-0.039,-1.31,24.96,-17.79,4,3
18896.531,0.166,0.991,-0.073,9.46,21.09,-29.82,4,3
18896.531,0.153,1.006,-0.113,13.89,22.61,-30.12,4,3
18896.546,0.167,1.014,-0.151,15.11,27.1,-26.95,4,3
18896.546,0.2,1.049,-0.161,14.28,33.72,-22.58,4,3
18896.562,0.164,1.089,-0.099,12.67,39.16,-17.12,4,3
18896.578,0.14,1.096,-0.069,10.01,39.92,-10.35,4,3
18896.578,0.152,1.084,-0.067,8.18,38.27,-3.94,4,3
18896.593,0.163,1.056,-0.087,8.15,38.27,0.46,4,3
18896.609,0.161,1.022,-0.11,9.58,40.93,3.51,4,3
18896.609,0.148,0.995,-0.129,10.47,45.66,5.49,4,3
18896.625,0.153,0.978,-0.117,10.13,51.03,6.47,4,3
18896.64,0.15,0.97,-0.091,9.67,56.09,5.77,4,3
18896.64,0.141,0.97,-0.064,9.83,59.42,4.18,4,3
18896.656,0.121,0.982,-0.027,10.53,59.48,2.23,4,3
18896.671,0.088,1.0,0.001,11.35,55.91,0.79,4,3
18896.671,0.086,1.002,0.0,11.6,49.78,0.24,4,3
18896.687,0.115,0.992,-0.03,11.35,44.31,0.06,4,3
18896.687,0.142,0.967,-0.053,12.24,42.36,-0.95,4,3
18896.703,0.131,0.953,-0.074,15.41,43.58,-3.11,4,3
18896.718,0.101,0.953,-0.082,17.82,46.21,-5.04,4,3
18896.718,0.06,0.961,-0.074,18.52,49.84,-6.59,4,3
18896.734,0.017,0.985,-0.054,18.01,53.47,-6.81,4,3
18896.75,-0.018,1.004,-0.068,16.91,55.94,-4.27,4,3
18896.75,-0.048,1.04,-0.099,14.07,58.11,0.0,4,3
18896.765,-0.082,1.072,-0.13,8.76,60.3,6.81,4,3
18896.781,-0.057,1.064,-0.162,0.55,61.71,17.82,4,3
18896.781,0.013,1.055,-0.185,-8.21,65.74,30.58,4,3
18896.796,0.058,1.047,-0.192,-13.92,74.25,41.96,4,3
18896.812,0.075,1.044,-0.177,-16.75,83.19,50.78,4,3
18896.812,0.072,1.028,-0.136,-15.17,89.6,56.61,4,3
18896.828,0.057,0.984,-0.109,-9.74,93.02,60.91,4,3
18896.828,0.093,0.936,-0.081,-6.04,92.93,63.88,4,3
18896.843,0.157,0.905,-0.043,-6.07,92.32,63.81,4,3
18896.859,0.212,0.848,-0.022,-4.21,91.98,59.66,4,3
18896.875,0.268,0.849,-0.007,-0.92,92.78,53.62,4,3
18896.875,0.29,0.896,0.012,-0.21,94.45,48.43,4,3
18896.89,0.298,0.918,0.024,-5.71,93.42,46.17,4,3
18896.89,0.335,0.917,0.067,-11.2,90.95,46.72,4,3
18896.906,0.352,0.898,0.099,-9.13,90.09,47.61,4,3
18896.921,0.339,0.875,0.132,-3.17,89.57,47.36,4,3
18896.921,0.311,0.845,0.141,2.84,86.83,45.29,4,3
18896.937,0.331,0.817,0.162,6.68,80.72,41.99,4,3
18896.937,0.378,0.798,0.184,11.08,73.98,37.05,4,3
18896.953,0.412,0.782,0.168,13.52,67.66,30.52,4,3
18896.968,0.437,0.783,0.14,13.21,61.19,23.26,4,3
18896.968,0.472,0.789,0.094,11.35,55.97,15.84,4,3
18896.984,0.477,0.793,0.064,9.19,54.48,8.79,4,3
18897.0,0.469,0.791,0.071,11.72,55.6,1.86,4,3
18897.015,0.439,0.788,0.085,19.35,57.74,-4.24,4,3
18897.015,0.409,0.767,0.083,28.84,58.5,-8.91,4,3
18897.031,0.399,0.791,0.082,36.59,57.59,-12.94,4,3
18897.031,0.389,0.778,0.064,38.64,56.31,-16.82,4,3
18897.046,0.398,0.751,0.045,35.31,52.74,-19.2,4,3
18897.062,0.417,0.771,0.029,33.36,47.7,-22.46,4,3
18897.062,0.397,0.789,0.032,34.3,45.17,-28.08,4,3
18897.078,0.318,0.791,0.02,33.66,43.28,-33.75,4,3
18897.093,0.27,0.789,-0.0,32.38,40.53,-38.76,4,3
18897.093,0.227,0.807,-0.005,34.88,40.62,-44.74,4,3
18897.109,0.159,0.842,0.022,37.81,42.97,-50.48,4,3
18897.109,0.106,0.897,0.023,37.78,42.39,-53.22,4,3
18897.125,0.152,0.934,-0.022,32.75,39.49,-51.88,4,3
18897.14,0.212,0.964,-0.062,28.05,39.83,-48.89,4,3
18897.14,0.239,0.986,-0.119,26.55,43.61,-45.87,4,3
18897.156,0.281,1.016,-0.113,24.63,49.07,-41.66,4,3
18897.171,0.272,1.059,-0.044,25.3,57.95,-38.0,4,3
18897.171,0.207,1.08,0.023,27.99,65.37,-32.72,4,3
18897.187,0.198,1.076,0.064,25.94,66.35,-24.2,4,3
18897.187,0.231,1.051,0.089,21.45,64.94,-15.93,4,3
18897.203,0.245,1.015,0.073,18.1,64.3,-9.92,4,3
18897.218,0.302,0.98,0.042,12.02,61.56,-5.25,4,3
18897.218,0.361,0.96,0.046,6.93,60.24,-2.99,4,3
18897.234,0.34,0.947,0.047,7.93,63.23,-3.69,4,3
18897.25,0.301,0.973,0.055,9.4,63.33,-5.65,4,3
18897.25,0.272,1.005,0.074,9.13,59.69,-7.87,4,3
18897.265,0.235,0.998,0.062,8.03,56.83,-8.33,4,3
18897.281,0.25,0.972,0.017,8.3,53.96,-5.43,4,3
18897.281,0.309,0.983,-0.033,10.59,54.02,-2.53,4,3
18897.296,0.322,0.984,-0.028,13.73,59.6,-2.9,4,3
18897.296,0.279,0.958,0.014,18.62,65.77,-4.67,4,3
18897.312,0.25,0.959,0.056,24.11,69.8,-4.97,4,3
18897.328,0.213,0.955,0.07,25.73,72.85,-4.46,4,3
18897.328,0.197,0.933,0.081,23.68,73.12,-3.94,4,3
18897.343,0.221,0.915,0.073,22.77,70.93,-4.91,4,3
18897.359,0.243,0.929,0.082,25.27,69.64,-8.06,4,3
18897.375,0.256,0.959,0.107,28.75,68.36,-10.56,4,3
18897.375,0.258,0.988,0.113,27.77,66.99,-10.07,4,3
18897.39,0.266,0.996,0.104,20.75,64.36,-7.02,4,3
18897.39,0.289,0.986,0.1,13.82,60.7,-3.54,4,3
18897.406,0.295,0.978,0.099,10.53,57.22,-2.35,4,3
18897.406,0.298,0.952,0.098,12.73,53.93,-4.49,4,3
18897.421,0.298,0.942,0.068,18.28,52.03,-8.21,4,3
18897.437,0.295,0.948,0.04,20.81,51.06,-11.14,4,3
18897.453,0.303,0.934,0.032,21.33,50.51,-14.4,4,3
18897.453,0.299,0.951,0.059,25.09,50.6,-19.1,4,3
18897.468,0.287,0.956,0.076,31.04,48.46,-23.87,4,3
18897.468,0.305,0.954,0.066,33.05,43.73,-25.91,4,3
18897.484,0.343,0.965,0.045,30.58,39.92,-25.33,4,3
18897.5,0.375,0.961,0.042,26.89,39.03,-23.44,4,3
18897.5,0.382,0.964,0.047,24.35,39.06,-21.67,4,3
18897.515,0.384,0.974,0.048,25.48,36.41,-21.7,4,3
18897.531,0.371,0.984,0.044,26.37,35.07,-21.58,4,3
18897.531,0.336,0.993,0.04,23.41,32.9,-20.2,4,3
18897.546,0.297,0.987,0.036,19.75,30.67,-18.13,4,3
18897.546,0.285,0.976,0.014,18.37,29.73,-15.38,4,3
18897.562,0.275,0.98,-0.0,16.97,30.27,-11.72,4,3
18897.578,0.243,0.989,-0.019,12.3,31.65,-6.2,4,3
18897.578,0.224,0.975,-0.03,4.85,31.89,0.89,4,3
18897.593,0.229,0.957,-0.033,-0.79,32.14,7.48,4,3
18897.609,0.224,0.955,-0.043,-2.75,32.72,12.73,4,3
18897.625,0.237,0.965,-0.055,-4.33,33.45,17.67,4,3
18897.625,0.242,0.998,-0.047,-9.31,34.91,24.29,4,3
18897.64,0.243,1.003,-0.032,-17.7,35.52,34.21,4,3
18897.64,0.249,0.978,-0.029,-27.16,34.85,45.63,4,3
18897.656,0.269,0.932,-0.058,-35.34,33.78,56.25,4,3
18897.671,0.318,0.882,-0.092,-41.51,33.36,63.11,4,3
18897.671,0.35,0.836,-0.112,-42.91,35.83,63.23,4,3
18897.687,0.359,0.808,-0.112,-40.77,40.13,57.44,4,3
18897.687,0.365,0.795,-0.099,-36.9,43.49,48.19,4,3
18897.703,0.374,0.816,-0.052,-30.92,44.71,36.38,4,3
18897.718,0.365,0.839,0.002,-22.68,43.0,21.91,4,3
18897.718,0.353,0.869,0.054,-12.18,38.61,6.59,4,3
18897.734,0.312,0.911,0.101,-0.49,32.14,-7.45,4,3
18897.75,0.282,0.936,0.109,7.93,22.25,-17.33,4,3
18897.75,0.301,0.947,0.065,10.8,12.51,-22.64,4,3
18897.765,0.336,0.954,0.005,10.74,8.0,-24.51,4,3
18897.781,0.346,0.971,-0.017,8.58,7.75,-23.9,4,3
18897.781,0.363,0.977,-0.017,6.87,8.7,-23.26,4,3
18897.796,0.376,0.987,-0.013,6.99,10.28,-23.26,4,3
18897.812,0.36,0.996,-0.007,7.84,12.15,-23.68,4,3
18897.812,0.35,0.995,-0.008,8.67,12.7,-24.41,4,3
18897.828,0.337,1.019,-0.002,10.04,13.49,-25.06,4,3
18897.828,0.314,1.033,-0.001,11.57,15.05,-24.32,4,3
18897.843,0.318,1.042,-0.001,11.81,15.56,-21.97,4,3
18897.859,0.338,1.054,-0.014,11.75,15.81,-19.14,4,3
18897.859,0.362,1.059,-0.01,11.63,16.36,-17.12,4,3
18897.875,0.365,1.061,0.002,12.54,17.43,-15.87,4,3
18897.89,0.348,1.061,0.024,14.83,18.52,-14.13,4,3
18897.89,0.324,1.055,0.043,17.15,18.8,-11.11,4,3
18897.906,0.29,1.046,0.064,16.72,16.88,-6.74,4,3
18897.921,0.288,1.032,0.045,15.69,12.67,-1.16,4,3
18897.921,0.306,1.023,0.004,12.02,9.25,4.85,4,3
18897.937,0.311,0.998,-0.01,6.96,8.36,8.76,4,3
18897.937,0.303,0.964,-0.019,6.2,9.19,8.97,4,3
18897.953,0.301,0.943,-0.035,10.47,10.5,6.2,4,3
18897.968,0.3,0.937,-0.057,14.74,12.91,2.72,4,3
18897.968,0.281,0.932,-0.058,15.29,15.75,-1.22,4,3
18897.984,0.27,0.92,-0.037,15.53,18.43,-5.65,4,3
18898.0,0.242,0.939,0.003,18.4,20.08,-9.67,4,3
18898.0,0.21,0.966,0.033,22.37,19.04,-12.09,4,3
18898.015,0.211,0.974,0.031,22.92,14.47,-11.41,4,3
18898.031,0.231,0.967,0.016,19.17,9.0,-9.03,4,3
18898.031,0.261,0.944,-0.012,15.78,5.28,-6.5,4,3
18898.046,0.279,0.928,-0.035,13.82,3.94,-3.88,4,3
18898.046,0.28,0.931,-0.043,13.0,4.3,-2.26,4,3
18898.062,0.26,0.932,-0.043,11.75,4.7,-1.92,4,3
18898.078,0.255,0.924,-0.043,10.07,4.39,-2.41,4,3
18898.093,0.258,0.914,-0.046,10.41,4.12,-3.97,4,3
18898.093,0.259,0.912,-0.054,13.06,4.46,-6.32,4,3
18898.109,0.256,0.923,-0.062,16.27,5.46,-8.45,4,3
18898.109,0.253,0.946,-0.068,18.34,6.44,-8.91,4,3
18898.125,0.268,0.97,-0.064,18.22,7.6,-7.45,4,3
18898.14,0.28,0.992,-0.061,16.51,9.0,-3.85,4,3
18898.14,0.312,1.014,-0.059,12.15,10.5,3.05,4,3
18898.156,0.334,1.032,-0.051,4.0,11.96,13.31,4,3
18898.156,0.349,1.02,-0.05,-7.08,12.91,26.06,4,3
18898.171,0.357,0.989,-0.041,-18.46,13.46,38.45,4,3
18898.187,0.364,0.949,-0.037,-27.16,13.25,48.65,4,3
18898.187,0.36,0.91,-0.024,-32.56,12.73,53.93,4,3
18898.203,0.353,0.869,-0.018,-32.47,11.29,53.5,4,3
18898.218,0.349,0.852,-0.008,-28.05,9.95,48.22,4,3
18898.234,0.324,0.841,0.01,-22.22,8.06,39.49,4,3
18898.234,0.305,0.83,0.023,-16.17,4.61,28.53,4,3
18898.25,0.295,0.844,0.028,-9.89,0.24,16.48,4,3
18898.25,0.279,0.862,0.028,-3.14,-4.52,4.03,4,3
18898.265,0.265,0.878,0.027,3.2,-9.98,-7.54,4,3
18898.281,0.246,0.9,0.018,9.31,-15.26,-16.69,4,3
18898.281,0.236,0.909,-0.012,13.82,-20.72,-22.64,4,3
18898.296,0.248,0.909,-0.045,17.03,-24.45,-26.34,4,3
18898.296,0.251,0.917,-0.081,19.2,-24.93,-28.23,4,3
18898.312,0.243,0.932,-0.105,18.62,-23.71,-28.2,4,3
18898.328,0.238,0.942,-0.112,16.97,-21.49,-27.68,4,3
18898.328,0.226,0.947,-0.104,16.21,-18.83,-26.4,4,3
18898.343,0.216,0.957,-0.103,16.69,-16.48,-24.26,4,3
18898.359,0.206,0.964,-0.103,17.06,-14.5,-22.71,4,3
18898.375,0.196,0.957,-0.109,17.43,-12.6,-22.1,4,3
18898.375,0.182,0.959,-0.114,16.69,-11.23,-20.97,4,3
18898.39,0.181,0.965,-0.115,15.32,-10.44,-19.26,4,3
18898.39,0.184,0.965,-0.12,13.82,-9.58,-17.37,4,3
18898.406,0.185,0.971,-0.125,12.79,-7.48,-15.69,4,3
18898.421,0.188,0.968,-0.132,12.3,-5.04,-13.46,4,3
18898.421,0.197,0.969,-0.133,12.27,-2.5,-10.71,4,3
