timestamp,ax,ay,az,gx,gy,gz,orient_label,motion_label
18879.812,0.032,0.926,-0.17,-2.01,9.34,9.16,4,3
18879.812,0.031,0.916,-0.164,-0.4,8.94,6.59,4,3
18879.828,0.024,0.906,-0.159,0.52,8.94,4.94,4,3
18879.828,0.013,0.915,-0.14,-0.46,8.91,4.39,4,3
18879.843,0.007,0.916,-0.121,-3.11,7.39,4.79,4,3
18879.859,0.017,0.915,-0.12,-5.52,4.36,5.1,4,3
18879.859,0.022,0.911,-0.135,-6.68,1.46,4.52,4,3
18879.875,0.035,0.9,-0.159,-5.74,-0.37,3.2,4,3
18879.89,0.049,0.89,-0.177,-3.42,-0.58,0.73,4,3
18879.89,0.043,0.897,-0.171,-1.56,0.76,-2.78,4,3
18879.906,0.02,0.917,-0.15,-0.61,2.14,-6.29,4,3
18879.906,0.004,0.946,-0.146,-0.58,0.52,-9.06,4,3
18879.921,0.012,0.979,-0.164,-0.55,-3.3,-11.99,4,3
18879.937,0.011,0.995,-0.194,0.92,-6.38,-16.45,4,3
18879.953,0.007,0.998,-0.219,5.04,-7.17,-22.28,4,3
18879.953,-0.012,1.01,-0.23,11.17,-4.94,-28.02,4,3
18879.968,-0.041,1.028,-0.231,16.21,-1.68,-31.83,4,3
18879.984,-0.05,1.092,-0.211,15.35,-0.43,-33.23,4,3
18880.0,-0.04,1.098,-0.203,13.61,-0.58,-30.92,4,3
18880.0,-0.037,1.095,-0.201,14.22,0.67,-25.51,4,3
18880.015,-0.038,1.108,-0.216,14.44,2.78,-16.05,4,3
18880.031,-0.02,1.112,-0.231,9.67,4.03,-3.27,4,3
18880.031,0.004,1.08,-0.234,1.77,5.49,9.25,4,3
18880.046,0.02,1.03,-0.236,-4.24,7.51,19.41,4,3
18880.046,0.03,0.991,-0.238,-5.43,9.03,25.39,4,3
18880.062,0.034,0.967,-0.242,-4.94,10.38,27.86,4,3
18880.078,0.04,0.949,-0.227,-4.58,10.86,27.68,4,3
18880.078,0.031,0.916,-0.215,-2.01,11.44,25.09,4,3
18880.093,0.019,0.895,-0.2,1.43,12.6,21.82,4,3
18880.109,0.006,0.88,-0.178,3.88,14.25,19.23,4,3
18880.109,0.002,0.865,-0.16,3.08,15.59,18.59,4,3
18880.125,0.021,0.864,-0.137,0.06,15.26,18.71,4,3
18880.14,0.047,0.867,-0.098,-3.51,13.73,17.98,4,3
18880.156,0.031,0.838,-0.079,-5.71,8.12,14.74,4,3
18880.156,0.038,0.83,-0.113,-4.36,4.06,13.28,4,3
18880.171,0.061,0.827,-0.141,-3.57,2.01,10.53,4,3
18880.187,0.065,0.814,-0.16,-3.05,3.14,6.35,4,3
18880.187,0.05,0.808,-0.157,-1.07,6.35,2.26,4,3
18880.203,0.029,0.817,-0.137,2.23,10.04,-0.03,4,3
18880.218,0.007,0.833,-0.13,3.17,12.85,-0.24,4,3
18880.218,-0.003,0.852,-0.111,1.83,13.98,0.73,4,3
18880.234,-0.017,0.865,-0.102,1.86,15.11,1.8,4,3
18880.25,-0.017,0.871,-0.105,4.03,17.4,3.11,4,3
18880.25,-0.02,0.873,-0.113,7.66,21.36,4.24,4,3
18880.265,-0.039,0.855,-0.113,11.96,28.17,5.62,4,3
18880.281,-0.07,0.834,-0.097,16.72,37.32,8.06,4,3
18880.281,-0.107,0.824,-0.072,20.29,46.42,12.02,4,3
18880.296,-0.132,0.822,-0.024,22.34,53.96,16.69,4,3
18880.312,-0.144,0.822,0.022,24.17,60.37,21.24,4,3
18880.328,-0.154,0.826,0.095,27.22,70.89,28.14,4,3
18880.328,-0.165,0.81,0.116,31.62,76.45,29.91,4,3
18880.343,-0.171,0.776,0.135,38.64,83.1,31.01,4,3
18880.359,-0.181,0.765,0.152,48.37,92.5,31.25,4,3
18880.359,-0.214,0.745,0.164,56.31,102.18,32.84,4,3
18880.375,-0.205,0.725,0.204,59.02,108.49,35.98,4,3
18880.39,-0.145,0.736,0.256,58.32,113.53,37.6,4,3
18880.39,-0.132,0.743,0.29,55.51,118.78,35.49,4,3
18880.406,-0.185,0.738,0.316,49.47,122.99,32.47,4,3
18880.421,-0.262,0.712,0.308,39.58,123.45,31.56,4,3
18880.421,-0.268,0.687,0.288,25.67,120.24,31.1,4,3
18880.437,-0.205,0.683,0.282,12.7,117.98,27.41,4,3
18880.437,-0.157,0.664,0.257,3.94,118.72,19.93,4,3
18880.453,-0.105,0.622,0.224,-1.37,121.71,11.14,4,3
18880.468,-0.025,0.605,0.181,-3.91,127.05,2.81,4,3
18880.468,0.042,0.603,0.139,-5.65,132.79,-4.3,4,3
18880.484,0.096,0.607,0.118,-7.72,139.13,-10.04,4,3
18880.5,0.16,0.612,0.118,-10.56,145.09,-16.57,4,3
18880.5,0.183,0.616,0.14,-12.6,151.37,-25.7,4,3
18880.515,0.188,0.622,0.186,-12.73,159.22,-36.56,4,3
18880.531,0.193,0.619,0.246,-8.73,167.52,-50.05,4,3
18880.531,0.189,0.631,0.273,-0.4,174.54,-64.21,4,3
18880.546,0.15,0.658,0.285,3.23,175.21,-73.06,4,3
18880.562,0.139,0.696,0.306,-2.53,176.24,-76.94,4,3
18880.562,0.121,0.747,0.315,-18.04,167.58,-82.4,4,3
18880.578,0.083,0.767,0.301,-37.08,153.36,-93.2,4,3
18880.578,0.022,0.787,0.294,-54.54,138.77,-107.7,4,3
18880.593,-0.031,0.799,0.312,-67.75,121.34,-124.88,4,3
18880.609,-0.04,0.777,0.33,-77.39,98.42,-142.37,4,3
18880.609,-0.088,0.781,0.342,-84.54,75.08,-157.35,4,3
18880.625,-0.173,0.846,0.359,-86.03,51.94,-172.25,4,3
18880.64,-0.175,0.961,0.356,-83.29,21.73,-187.48,4,3
18880.656,-0.063,1.219,0.294,-78.62,-36.23,-207.86,4,3
18880.671,-0.063,1.33,0.276,-76.33,-56.09,-209.94,4,3
18880.671,-0.135,1.422,0.257,-72.27,-72.21,-208.56,4,3
18880.687,-0.209,1.46,0.204,-69.73,-85.91,-203.1,4,3
18880.703,-0.266,1.499,0.127,-76.08,-96.5,-194.59,4,3
18880.703,-0.305,1.537,0.028,-93.72,-106.2,-184.42,4,3
18880.718,-0.302,1.51,-0.064,-121.62,-120.73,-174.11,4,3
18880.718,-0.307,1.467,-0.093,-151.31,-138.37,-169.35,4,3
18880.734,-0.34,1.444,-0.096,-167.12,-156.56,-174.11,4,3
18880.75,-0.361,1.424,-0.091,-163.61,-173.62,-183.75,4,3
18880.75,-0.368,1.414,-0.064,-143.41,-185.37,-192.3,4,3
18880.765,-0.347,1.439,-0.06,-113.74,-190.31,-194.65,4,3
18880.781,-0.297,1.492,-0.091,-87.1,-188.39,-188.73,4,3
18880.781,-0.264,1.523,-0.141,-71.72,-175.51,-165.26,4,3
18880.796,-0.242,1.537,-0.207,-87.92,-166.17,-149.63,4,3
18880.796,-0.227,1.564,-0.234,-111.97,-153.72,-134.16,4,3
18880.812,-0.214,1.529,-0.241,-136.69,-137.73,-118.2,4,3
18880.828,-0.235,1.416,-0.17,-155.22,-120.24,-100.01,4,3
18880.828,-0.265,1.335,-0.092,-159.67,-104.68,-78.31,4,3
18880.843,-0.272,1.239,-0.029,-150.21,-93.87,-54.9,4,3
18880.859,-0.263,1.192,0.027,-137.18,-86.7,-34.33,4,3
18880.859,-0.263,1.165,0.084,-130.04,-82.61,-20.05,4,3
18880.875,-0.272,1.127,0.129,-130.89,-81.42,-13.06,4,3
18880.89,-0.276,1.085,0.199,-136.6,-82.98,-10.38,4,3
18880.89,-0.275,1.049,0.27,-141.48,-84.44,-9.49,4,3
18880.906,-0.257,1.019,0.334,-144.41,-82.83,-8.12,4,3
18880.906,-0.248,0.974,0.409,-142.7,-78.28,-6.26,4,3
18880.921,-0.257,0.912,0.468,-132.36,-73.34,-4.46,4,3
18880.937,-0.275,0.858,0.507,-115.51,-69.03,-1.86,4,3
18880.937,-0.3,0.845,0.547,-98.82,-66.23,2.14,4,3
18880.953,-0.342,0.865,0.597,-83.71,-65.46,7.05,4,3
18880.968,-0.379,0.869,0.63,-69.25,-66.81,13.03,4,3
18880.984,-0.388,0.931,0.716,-47.58,-66.71,29.36,4,3
18881.0,-0.37,0.918,0.763,-40.99,-63.97,37.45,4,3
18881.0,-0.368,0.871,0.818,-37.81,-60.95,43.98,4,3
18881.015,-0.387,0.833,0.854,-35.83,-60.21,47.98,4,3
18881.015,-0.394,0.782,0.861,-34.58,-63.94,49.32,4,3
18881.031,-0.399,0.745,0.858,-35.37,-70.22,48.19,4,3
18881.046,-0.391,0.722,0.841,-36.99,-77.36,45.41,4,3
18881.046,-0.361,0.698,0.806,-37.17,-82.19,42.05,4,3
18881.062,-0.326,0.668,0.784,-35.0,-80.32,39.46,4,3
18881.078,-0.298,0.663,0.78,-30.76,-73.03,37.08,4,3
18881.093,-0.285,0.662,0.796,-23.38,-63.54,36.68,4,3
18881.093,-0.262,0.649,0.795,-11.08,-54.26,38.0,4,3
18881.109,-0.278,0.664,0.798,0.18,-43.52,37.69,4,3
18881.109,-0.336,0.654,0.835,6.16,-37.69,40.22,4,3
18881.125,-0.346,0.617,0.857,10.07,-38.91,46.17,4,3
18881.14,-0.289,0.658,0.85,12.05,-40.93,47.03,4,3
18881.156,-0.32,0.666,0.826,-0.12,-42.05,42.33,4,3
18881.156,-0.318,0.645,0.836,-8.12,-46.27,43.49,4,3
18881.171,-0.29,0.626,0.849,-10.44,-49.53,46.82,4,3
18881.187,-0.235,0.613,0.868,-8.09,-49.87,51.42,4,3
18881.187,-0.203,0.591,0.87,-3.57,-46.94,55.36,4,3
18881.203,-0.182,0.574,0.863,-1.4,-42.63,57.89,4,3
18881.218,-0.146,0.581,0.859,-3.85,-38.21,56.7,4,3
18881.218,-0.126,0.6,0.853,-10.74,-35.1,51.24,4,3
18881.234,-0.118,0.599,0.847,-20.17,-34.36,44.13,4,3
18881.25,-0.106,0.572,0.863,-28.69,-34.21,38.21,4,3
18881.25,-0.09,0.547,0.868,-32.14,-33.27,34.61,4,3
18881.265,-0.069,0.524,0.855,-27.74,-30.37,33.48,4,3
18881.265,-0.055,0.496,0.843,-18.16,-24.78,33.27,4,3
18881.281,-0.051,0.48,0.835,-7.97,-18.25,31.95,4,3
18881.296,-0.046,0.473,0.828,1.62,-12.33,30.12,4,3
18881.312,-0.045,0.464,0.819,8.51,-6.78,27.77,4,3
18881.312,-0.045,0.462,0.818,10.71,-2.62,24.6,4,3
18881.328,-0.034,0.457,0.817,7.45,-0.64,20.05,4,3
18881.328,-0.025,0.457,0.816,-0.4,-0.15,13.46,4,3
18881.343,-0.012,0.462,0.838,-8.82,0.06,5.62,4,3
18881.359,-0.048,0.5,0.88,-14.62,0.27,-0.79,4,3
18881.375,-0.067,0.566,0.911,-17.73,-1.89,-1.65,4,3
18881.375,-0.019,0.586,0.921,-16.79,-5.01,1.16,4,3
18881.375,-0.025,0.585,0.931,-11.81,-3.57,3.36,4,3
18881.39,-0.093,0.624,0.925,-5.16,-2.62,7.48,4,3
18881.406,-0.057,0.668,0.938,0.49,-3.88,17.52,4,3
18881.406,-0.081,0.673,0.942,6.41,-4.73,23.62,4,3
18881.421,-0.063,0.652,0.941,3.81,-8.09,24.66,4,3
18881.437,-0.087,0.626,0.948,-1.04,-12.45,20.05,4,3
18881.437,-0.073,0.619,0.947,-5.62,-19.87,14.92,4,3
18881.453,-0.038,0.581,0.938,-0.58,-25.94,13.34,4,3
18881.468,-0.036,0.575,0.893,10.25,-27.38,11.96,4,3
18881.468,-0.003,0.568,0.856,18.49,-27.31,11.41,4,3
18881.484,0.016,0.559,0.811,20.75,-27.68,8.48,4,3
18881.5,0.1,0.509,0.748,14.44,-26.7,3.42,4,3
18881.5,0.159,0.436,0.824,4.12,-21.91,-7.6,4,3
18881.515,0.088,0.472,0.847,6.41,-14.56,-18.77,4,3
18881.531,0.066,0.549,0.828,20.66,-8.67,-15.72,4,3
18881.531,0.07,0.534,0.79,37.29,-2.66,-9.8,4,3
18881.546,0.052,0.591,0.775,40.38,0.89,-6.96,4,3
18881.546,0.023,0.666,0.768,31.83,3.39,-4.61,4,3
18881.562,-0.022,0.676,0.771,15.93,3.39,-1.07,4,3
18881.578,-0.033,0.679,0.782,-5.46,-0.03,4.82,4,3
18881.578,-0.012,0.654,0.768,-24.02,-3.72,10.99,4,3
18881.593,0.015,0.592,0.756,-36.77,-5.8,14.31,4,3
18881.609,0.043,0.526,0.74,-42.36,-4.49,14.22,4,3
18881.609,0.049,0.469,0.728,-40.44,-0.76,10.68,4,3
18881.625,0.039,0.425,0.74,-32.81,3.3,4.73,4,3
18881.64,0.007,0.413,0.775,-18.74,5.92,-1.65,4,3
18881.64,-0.017,0.413,0.798,0.7,6.04,-7.35,4,3
18881.656,-0.006,0.471,0.798,15.75,4.97,-12.94,4,3
18881.656,0.014,0.5,0.779,27.34,6.96,-17.3,4,3
18881.671,-0.127,0.626,0.832,22.16,4.64,-21.7,4,3
18881.687,-0.055,0.84,0.889,-0.46,-1.62,-14.19,4,3
18881.687,-0.01,0.807,0.856,-6.68,-3.17,0.21,4,3
18881.703,0.039,0.725,0.817,-19.44,-0.21,11.66,4,3
18881.718,0.045,0.681,0.839,-33.2,6.71,15.84,4,3
18881.734,-0.006,0.593,0.887,-35.07,11.81,17.0,4,3
18881.734,-0.049,0.529,0.91,-29.15,9.89,16.14,4,3
18881.75,-0.053,0.496,0.936,-20.02,2.93,12.88,4,3
18881.75,-0.093,0.486,0.952,-5.52,-7.35,8.18,4,3
18881.765,-0.096,0.471,0.924,20.02,-34.58,7.39,4,3
18881.781,-0.043,0.529,0.884,22.58,-42.36,9.09,4,3
18881.781,-0.015,0.614,0.862,18.74,-44.37,13.09,4,3
18881.796,0.132,0.588,0.78,14.86,-36.16,11.51,4,3
18881.796,0.129,0.601,0.745,-2.11,-24.96,9.98,4,3
18881.812,0.146,0.584,0.765,-10.83,-15.5,11.87,4,3
18881.828,0.123,0.504,0.747,-8.88,-7.11,13.31,4,3
18881.828,0.111,0.526,0.783,-9.95,-0.61,12.67,4,3
18881.843,0.042,0.525,0.826,-5.04,2.56,10.5,4,3
18881.859,-0.004,0.525,0.872,-0.95,-2.56,10.35,4,3
18881.859,0.004,0.558,0.885,-0.64,-12.76,11.47,4,3
18881.875,0.042,0.549,0.852,-1.89,-22.19,12.18,4,3
18881.89,0.093,0.543,0.824,-5.68,-27.41,12.18,4,3
18881.89,0.136,0.536,0.797,-8.12,-27.77,10.65,4,3
18881.906,0.158,0.522,0.761,-8.58,-23.29,7.78,4,3
18881.906,0.168,0.499,0.732,-8.67,-15.29,4.91,4,3
18881.921,0.179,0.468,0.708,-7.66,-5.46,1.71,4,3
18881.937,0.172,0.457,0.696,-5.28,5.65,-2.66,4,3
18881.937,0.127,0.47,0.73,-2.59,15.75,-7.54,4,3
18881.953,0.065,0.48,0.776,1.68,21.27,-11.05,4,3
18881.968,0.019,0.49,0.801,6.81,21.33,-11.11,4,3
18881.968,0.002,0.521,0.824,9.74,17.76,-9.09,4,3
18881.984,0.003,0.538,0.815,9.86,12.36,-7.2,4,3
18882.0,0.014,0.54,0.789,5.74,7.97,-5.98,4,3
18882.0,0.037,0.531,0.763,-0.79,7.11,-5.71,4,3
18882.015,0.051,0.509,0.738,-5.16,10.59,-6.41,4,3
18882.031,0.016,0.501,0.761,-10.65,15.2,-8.24,4,3
18882.031,-0.017,0.594,0.857,-23.68,16.17,-9.16,4,3
18882.046,0.015,0.582,0.924,-28.41,14.59,-5.68,4,3
18882.046,0.109,0.491,0.85,-25.88,14.34,-3.45,4,3
18882.062,-0.072,0.538,0.958,-20.57,19.65,-8.21,4,3
18882.078,-0.044,0.625,1.078,-21.97,9.98,-2.17,4,3
18882.078,0.036,0.548,1.002,-14.65,-2.93,2.26,4,3
18882.093,0.035,0.504,0.939,-7.29,-5.83,1.77,4,3
18882.109,0.059,0.499,0.909,-1.8,-7.45,1.65,4,3
18882.109,0.057,0.486,0.874,4.67,-7.11,-0.52,4,3
18882.125,0.046,0.501,0.852,7.11,-6.59,-3.17,4,3
18882.14,0.041,0.525,0.836,5.71,-6.84,-4.15,4,3
18882.14,0.04,0.524,0.835,3.02,-6.9,-3.85,4,3
18882.156,0.035,0.53,0.841,0.98,-6.96,-2.62,4,3
18882.156,0.04,0.538,0.846,-0.27,-7.35,-1.13,4,3
18882.171,0.037,0.533,0.857,1.04,-7.54,0.73,4,3
18882.187,0.025,0.532,0.871,3.66,-8.36,3.14,4,3
18882.187,0.023,0.593,0.908,4.58,-11.63,6.78,4,3
18882.203,0.137,0.515,0.829,5.62,-14.8,8.82,4,3
18882.218,0.073,0.449,0.801,7.72,-10.13,0.52,4,3
18882.218,0.05,0.511,0.852,7.29,-8.51,-2.38,4,3
18882.234,0.061,0.527,0.845,10.77,-11.02,-2.41,4,3
18882.25,0.059,0.541,0.837,9.22,-12.39,-2.75,4,3
18882.25,0.065,0.554,0.844,4.21,-13.37,-2.01,4,3
18882.265,0.079,0.53,0.835,-1.56,-14.68,-2.59,4,3
18882.265,0.079,0.521,0.825,-4.39,-14.83,-2.53,4,3
18882.281,0.091,0.519,0.817,-4.21,-12.88,-0.27,4,3
18882.296,0.107,0.501,0.797,-3.36,-10.16,0.58,4,3
18882.296,0.102,0.492,0.792,-2.29,-5.83,-0.34,4,3
18882.312,0.085,0.497,0.809,-0.4,-1.68,-2.01,4,3
18882.328,0.065,0.496,0.821,1.22,-0.12,-2.96,4,3
18882.328,0.072,0.502,0.827,0.89,-0.76,-2.81,4,3
18882.343,0.081,0.5,0.825,0.89,-1.16,-3.2,4,3
18882.359,0.072,0.505,0.835,0.73,-0.73,-4.58,4,3
18882.375,0.061,0.523,0.846,-0.09,-1.37,-5.28,4,3
18882.375,0.067,0.532,0.845,-0.7,-2.81,-4.82,4,3
18882.375,0.068,0.531,0.841,-0.55,-3.39,-3.94,4,3
18882.39,0.068,0.534,0.84,-0.15,-3.39,-3.17,4,3
18882.406,0.076,0.535,0.841,0.12,-3.27,-2.11,4,3
18882.406,0.08,0.531,0.835,0.31,-2.66,-1.22,4,3
18882.421,0.079,0.529,0.831,0.18,-1.59,-1.04,4,3
18882.437,0.07,0.531,0.839,-0.27,-0.82,-1.31,4,3
18882.453,0.062,0.534,0.846,-1.01,-1.34,-1.65,4,3
18882.453,0.063,0.536,0.842,-2.62,-3.05,-1.98,4,3
18882.468,0.068,0.532,0.84,-4.06,-4.3,-2.26,4,3
18882.468,0.063,0.528,0.847,-3.2,-4.58,-2.38,4,3
18882.484,0.061,0.528,0.844,-2.14,-5.71,-1.22,4,3
18882.5,0.076,0.529,0.841,-2.56,-6.93,-0.06,4,3
18882.515,0.084,0.523,0.844,-3.85,-5.65,-0.52,4,3
18882.531,0.087,0.515,0.839,-3.75,-4.85,-1.13,4,3
18882.531,0.09,0.506,0.83,-2.66,-3.72,-1.86,4,3
18882.546,0.087,0.502,0.815,-0.4,-1.8,-3.14,4,3
18882.562,0.084,0.5,0.807,2.08,0.43,-4.64,4,3
18882.562,0.083,0.499,0.794,3.6,2.44,-6.26,4,3
18882.578,0.074,0.496,0.787,4.06,4.64,-8.09,4,3
18882.578,0.064,0.492,0.787,4.03,6.53,-9.43,4,3
18882.593,0.066,0.49,0.794,3.45,8.0,-10.56,4,3
18882.609,0.067,0.488,0.806,3.51,10.01,-12.21,4,3
18882.609,0.058,0.492,0.805,3.78,12.21,-14.13,4,3
18882.625,0.052,0.528,0.806,0.89,13.92,-15.5,4,3
18882.64,0.114,0.521,0.775,-1.22,17.94,-16.05,4,3
18882.64,-0.039,0.5,0.827,-1.4,22.98,-21.52,4,3
18882.656,-0.073,0.696,0.962,-14.56,16.94,-18.89,4,3
18882.671,-0.007,0.657,0.944,-11.87,7.2,-8.3,4,3
18882.687,0.019,0.591,0.912,-3.48,0.61,4.15,4,3
18882.687,0.025,0.549,0.892,2.99,-0.24,6.81,4,3
18882.703,0.013,0.521,0.878,5.46,-1.98,5.71,4,3
18882.718,0.005,0.518,0.866,4.27,-4.91,4.49,4,3
18882.718,0.001,0.514,0.867,3.33,-8.42,4.09,4,3
18882.734,0.002,0.519,0.871,2.81,-12.24,4.12,4,3
18882.75,-0.015,0.531,0.891,2.84,-16.42,4.67,4,3
18882.75,0.024,0.573,0.901,7.69,-21.79,11.29,4,3
18882.765,0.126,0.491,0.818,14.77,-14.71,8.3,4,3
18882.781,0.066,0.467,0.794,11.35,-10.35,8.27,4,3
18882.781,0.069,0.527,0.817,9.83,-7.14,5.77,4,3
18882.796,0.045,0.529,0.833,4.0,-6.87,4.58,4,3
18882.812,0.046,0.539,0.86,-0.98,-9.19,4.73,4,3
18882.812,0.027,0.535,0.882,-2.93,-13.67,4.52,4,3
18882.828,0.034,0.534,0.881,-2.72,-19.59,6.01,4,3
18882.828,0.07,0.528,0.861,-1.83,-24.32,8.06,4,3
18882.859,0.133,0.501,0.792,0.12,-22.1,7.26,4,3
18882.859,0.146,0.492,0.768,0.09,-16.17,4.49,4,3
18882.875,0.157,0.478,0.748,0.37,-8.88,1.34,4,3
18882.89,0.154,0.464,0.737,1.62,-0.27,-2.38,4,3
18882.89,0.127,0.47,0.755,3.36,7.63,-6.59,4,3
18882.906,0.088,0.479,0.794,5.74,12.15,-10.13,4,3
18882.921,0.047,0.492,0.831,9.4,12.3,-11.41,4,3
18882.921,0.013,0.519,0.861,12.63,8.39,-10.22,4,3
18882.937,0.018,0.548,0.875,11.78,0.43,-7.78,4,3
18882.953,0.056,0.567,0.858,7.11,-7.45,-5.71,4,3
18882.953,0.09,0.555,0.829,2.35,-11.38,-4.18,4,3
18882.968,0.113,0.548,0.81,-1.5,-10.9,-2.69,4,3
18882.968,0.127,0.546,0.796,-3.85,-7.81,-1.46,4,3
18882.984,0.129,0.536,0.788,-4.91,-3.33,-0.85,4,3
18883.0,0.123,0.529,0.794,-5.4,1.4,-1.01,4,3
18883.0,0.11,0.528,0.814,-5.13,4.94,-2.01,4,3
18883.031,0.064,0.53,0.863,0.18,6.56,-4.55,4,3
18883.031,0.048,0.541,0.881,3.91,3.51,-4.09,4,3
18883.046,0.051,0.565,0.885,5.1,-1.53,-3.33,4,3
18883.046,0.067,0.571,0.871,2.66,-6.44,-3.36,4,3
18883.062,0.087,0.561,0.857,-1.43,-9.28,-3.69,4,3
18883.078,0.097,0.546,0.845,-3.3,-9.31,-3.57,4,3
18883.093,0.098,0.542,0.838,-2.99,-7.48,-3.36,4,3
18883.093,0.089,0.539,0.834,-1.86,-5.25,-3.48,4,3
18883.109,0.076,0.543,0.846,-0.7,-3.54,-3.97,4,3
18883.109,0.054,0.548,0.854,0.67,-3.45,-4.64,4,3
18883.125,0.051,0.547,0.856,1.1,-5.55,-4.82,4,3
18883.14,0.061,0.547,0.857,1.1,-7.81,-4.76,4,3
18883.14,0.061,0.55,0.857,2.01,-9.16,-5.04,4,3
18883.156,0.068,0.552,0.847,2.23,-10.59,-5.04,4,3
18883.156,0.081,0.547,0.836,1.77,-10.68,-5.1,4,3
18883.171,0.079,0.539,0.83,1.83,-9.25,-5.31,4,3
18883.187,0.069,0.537,0.831,2.96,-7.54,-5.16,4,3
18883.187,0.067,0.536,0.831,3.85,-6.41,-4.46,4,3
18883.203,0.069,0.53,0.826,4.49,-5.58,-4.03,4,3
18883.218,0.074,0.517,0.818,5.04,-4.55,-4.0,4,3
18883.218,0.074,0.512,0.819,5.8,-3.27,-4.33,4,3
18883.234,0.066,0.511,0.824,7.2,-2.17,-5.13,4,3
18883.25,0.062,0.512,0.826,8.09,-2.08,-5.95,4,3
18883.25,0.065,0.511,0.828,7.87,-2.38,-7.2,4,3
18883.265,0.073,0.504,0.822,7.69,-2.44,-8.64,4,3
18883.281,0.077,0.506,0.818,8.39,-1.62,-10.07,4,3
18883.281,0.081,0.506,0.803,9.03,-0.27,-11.14,4,3
18883.296,0.094,0.502,0.786,9.28,1.37,-11.84,4,3
18883.296,0.104,0.501,0.776,10.13,4.61,-13.03,4,3
18883.312,0.082,0.515,0.784,12.3,9.13,-14.22,4,3
18883.328,0.056,0.535,0.811,13.76,11.54,-14.5,4,3
18883.328,0.052,0.557,0.836,13.92,11.02,-13.64,4,3
18883.343,0.06,0.559,0.842,15.08,10.07,-12.63,4,3
18883.359,0.06,0.539,0.836,18.92,10.5,-11.47,4,3
18883.359,0.054,0.555,0.831,24.57,12.18,-10.04,4,3
18883.375,0.051,0.591,0.855,29.88,14.5,-8.85,4,3
18883.39,0.042,0.607,0.908,37.48,16.39,-8.7,4,3
18883.39,-0.002,0.64,0.997,51.39,16.72,-8.21,4,3
18883.406,-0.022,0.666,1.089,77.06,13.18,-3.94,4,3
18883.421,-0.023,0.692,1.132,113.9,7.69,4.49,4,3
18883.421,-0.03,0.709,1.086,152.56,3.81,17.79,4,3
18883.437,0.074,0.793,1.026,182.84,2.32,31.28,4,3
18883.437,0.026,0.866,0.935,199.77,5.77,34.06,4,3
18883.453,-0.007,0.906,0.893,190.44,-0.49,32.53,4,3
18883.468,0.021,0.941,0.887,162.63,-5.49,25.79,4,3
18883.468,-0.008,0.932,0.882,128.94,-11.63,15.93,4,3
18883.484,-0.042,0.877,0.89,97.99,-22.74,5.77,4,3
18883.5,-0.04,0.819,0.912,75.69,-33.57,-1.53,4,3
18883.5,-0.02,0.777,0.93,66.23,-41.78,-6.38,4,3
18883.515,0.009,0.756,0.924,69.34,-45.96,-10.19,4,3
18883.531,0.039,0.772,0.93,80.23,-45.93,-14.8,4,3
18883.531,0.031,0.782,0.946,97.05,-43.92,-21.85,4,3
18883.546,0.012,0.788,0.947,117.44,-42.57,-27.95,4,3
18883.562,-0.011,0.825,0.934,137.46,-44.13,-32.59,4,3
18883.562,-0.025,0.856,0.9,154.03,-49.47,-36.56,4,3
18883.578,-0.037,0.894,0.862,162.97,-57.01,-39.55,4,3
18883.593,-0.05,0.933,0.83,163.21,-65.61,-42.05,4,3
18883.593,-0.058,0.946,0.818,155.83,-76.24,-43.34,4,3
18883.609,-0.047,0.958,0.806,145.45,-87.34,-43.43,4,3
18883.609,-0.043,1.001,0.798,137.46,-95.46,-43.09,4,3
18883.625,-0.048,1.035,0.8,132.33,-100.77,-42.94,4,3
18883.64,-0.066,1.054,0.805,131.6,-105.72,-41.66,4,3
18883.64,-0.085,1.065,0.781,135.56,-111.18,-37.84,4,3
18883.656,-0.114,1.082,0.751,141.48,-117.5,-33.66,4,3
18883.656,-0.129,1.088,0.697,148.01,-126.13,-29.66,4,3
18883.671,-0.129,1.108,0.628,150.64,-135.04,-25.51,4,3
18883.687,-0.13,1.121,0.562,147.95,-143.35,-22.1,4,3
18883.703,-0.115,1.122,0.473,131.17,-161.08,-15.99,4,3
18883.718,-0.106,1.104,0.433,126.9,-167.7,-12.3,4,3
18883.718,-0.098,1.071,0.39,129.58,-171.91,-5.71,4,3
18883.734,-0.061,1.039,0.338,147.98,-171.12,11.32,4,3
18883.75,-0.044,1.023,0.291,159.86,-167.64,16.3,4,3
18883.75,-0.041,1.016,0.24,165.93,-165.68,18.74,4,3
18883.765,-0.036,1.031,0.206,165.35,-166.72,18.01,4,3
18883.781,-0.09,1.074,0.14,159.37,-172.46,16.48,4,3
18883.781,-0.098,1.095,0.08,149.05,-181.19,17.09,4,3
18883.796,-0.081,1.103,0.058,135.01,-187.75,20.97,4,3
18883.812,-0.083,1.102,0.043,123.72,-190.68,26.55,4,3
18883.812,-0.068,1.104,-0.0,115.85,-191.56,33.27,4,3
18883.828,-0.027,1.089,-0.039,110.17,-190.83,40.31,4,3
18883.843,0.002,1.109,-0.054,106.23,-184.97,46.85,4,3
18883.843,-0.014,1.152,-0.067,100.13,-178.29,52.22,4,3
18883.859,-0.023,1.169,-0.096,90.58,-176.43,57.68,4,3
18883.859,-0.009,1.162,-0.114,78.49,-176.67,65.25,4,3
18883.875,-0.005,1.14,-0.12,67.38,-176.03,72.85,4,3
18883.89,-0.003,1.102,-0.142,57.31,-175.54,79.23,4,3
18883.89,0.002,1.058,-0.149,46.54,-174.93,84.38,4,3
18883.906,-0.022,1.022,-0.147,39.52,-174.44,88.08,4,3
18883.921,-0.053,0.998,-0.173,36.16,-175.91,93.81,4,3
18883.921,-0.032,0.97,-0.208,29.91,-180.55,101.72,4,3
18883.937,0.024,0.916,-0.226,23.16,-185.52,108.74,4,3
18883.953,0.102,0.867,-0.242,16.48,-187.69,115.51,4,3
18883.953,0.174,0.833,-0.259,5.8,-184.55,122.5,4,3
18883.968,0.226,0.789,-0.275,-9.09,-177.95,126.53,4,3
18883.968,0.246,0.775,-0.276,-25.33,-169.62,126.13,4,3
18883.984,0.239,0.775,-0.263,-39.58,-162.11,122.53,4,3
18884.0,0.224,0.762,-0.23,-50.63,-159.31,118.26,4,3
18884.0,0.205,0.762,-0.19,-54.08,-160.28,113.8,4,3
18884.015,0.18,0.777,-0.184,-49.35,-164.59,108.74,4,3
18884.031,0.231,0.761,-0.263,-38.91,-182.65,94.61,4,3
18884.046,0.284,0.749,-0.278,-38.61,-189.98,84.35,4,3
18884.062,0.321,0.724,-0.283,-37.69,-193.88,72.54,4,3
18884.062,0.351,0.716,-0.295,-33.42,-194.22,62.69,4,3
18884.078,0.369,0.708,-0.293,-26.09,-190.74,54.93,4,3
18884.078,0.366,0.714,-0.281,-17.73,-185.28,48.55,4,3
18884.093,0.337,0.731,-0.263,-11.81,-178.96,44.22,4,3
18884.109,0.283,0.739,-0.249,-8.61,-174.66,40.13,4,3
18884.109,0.183,0.759,-0.229,-6.35,-173.77,34.79,4,3
18884.125,0.103,0.766,-0.214,-4.49,-180.27,29.76,4,3
18884.14,0.076,0.779,-0.219,-6.93,-189.4,28.14,4,3
18884.14,0.031,0.834,-0.233,-18.4,-196.39,27.28,4,3
18884.156,-0.056,0.86,-0.242,-38.18,-206.09,24.26,4,3
18884.171,-0.178,0.814,-0.249,-55.48,-219.03,23.19,4,3
18884.171,-0.322,0.752,-0.245,-59.57,-230.99,27.99,4,3
18884.187,-0.494,0.712,-0.255,-45.17,-238.38,35.37,4,3
18884.187,-0.615,0.674,-0.334,-21.88,-243.93,42.76,4,3
18884.203,-0.641,0.658,-0.432,-6.74,-247.38,49.32,4,3
18884.218,-0.615,0.665,-0.541,-2.5,-243.39,51.3,4,3
18884.218,-0.552,0.667,-0.622,-9.4,-232.0,48.46,4,3
18884.234,-0.485,0.687,-0.636,-26.52,-212.53,44.25,4,3
18884.25,-0.464,0.725,-0.567,-47.46,-190.77,37.84,4,3
18884.25,-0.503,0.731,-0.474,-67.96,-171.21,30.82,4,3
18884.265,-0.549,0.712,-0.373,-86.55,-158.15,25.18,4,3
18884.281,-0.591,0.668,-0.257,-93.54,-152.44,22.74,4,3
18884.281,-0.644,0.632,-0.161,-86.61,-148.84,25.64,4,3
18884.296,-0.687,0.641,-0.093,-71.38,-147.4,32.32,4,3
18884.296,-0.7,0.651,-0.086,-55.09,-150.61,37.66,4,3
18884.312,-0.681,0.66,-0.14,-45.41,-156.9,39.25,4,3
18884.328,-0.623,0.668,-0.198,-43.0,-162.21,36.84,4,3
18884.328,-0.573,0.657,-0.244,-41.6,-165.81,29.48,4,3
18884.343,-0.507,0.653,-0.29,-36.62,-166.02,21.42,4,3
18884.359,-0.433,0.669,-0.331,-28.14,-161.38,15.66,4,3
18884.359,-0.391,0.702,-0.372,-18.34,-153.75,10.47,4,3
18884.375,-0.348,0.736,-0.414,-11.11,-147.28,6.44,4,3
18884.39,-0.294,0.767,-0.441,-7.08,-142.67,3.33,4,3
18884.39,-0.246,0.789,-0.452,-4.12,-137.58,1.56,4,3
18884.406,-0.192,0.805,-0.477,-1.53,-131.69,2.41,4,3
18884.406,-0.133,0.827,-0.505,-0.4,-124.42,5.04,4,3
18884.421,-0.098,0.85,-0.514,-2.96,-115.3,7.87,4,3
18884.437,-0.089,0.856,-0.509,-9.06,-105.96,10.22,4,3
18884.453,-0.078,0.843,-0.487,-16.79,-97.17,12.63,4,3
18884.453,-0.067,0.818,-0.461,-22.55,-89.82,14.4,4,3
18884.468,-0.058,0.797,-0.453,-25.73,-83.13,16.14,4,3
18884.484,-0.057,0.787,-0.438,-28.23,-78.52,17.15,4,3
18884.484,-0.047,0.781,-0.422,-29.88,-75.84,17.43,4,3
18884.5,-0.027,0.772,-0.416,-28.87,-72.91,17.33,4,3
18884.5,0.008,0.766,-0.423,-24.57,-69.22,15.93,4,3
18884.515,0.034,0.763,-0.435,-17.91,-62.32,13.09,4,3
18884.531,0.03,0.759,-0.438,-11.23,-52.98,7.78,4,3
18884.531,0.021,0.75,-0.446,-5.89,-45.41,0.15,4,3
18884.546,0.005,0.754,-0.461,-0.95,-37.17,-7.26,4,3
18884.562,-0.03,0.781,-0.478,4.39,-28.02,-13.31,4,3
18884.562,-0.07,0.832,-0.494,8.3,-19.75,-17.18,4,3
18884.578,-0.114,0.887,-0.483,7.32,-14.65,-18.52,4,3
18884.578,-0.149,0.921,-0.467,2.96,-12.33,-16.97,4,3
18884.593,-0.192,0.954,-0.436,-3.23,-12.45,-12.82,4,3
18884.609,-0.219,0.974,-0.386,-12.15,-16.75,-5.86,4,3
18884.625,-0.207,0.952,-0.36,-20.05,-24.11,1.89,4,3
18884.625,-0.172,0.921,-0.357,-22.58,-27.59,8.03,4,3
18884.64,-0.134,0.906,-0.375,-20.14,-25.15,11.14,4,3
18884.64,-0.11,0.888,-0.397,-15.63,-19.1,10.93,4,3
18884.656,-0.102,0.886,-0.411,-13.21,-11.14,8.51,4,3
18884.656,-0.103,0.898,-0.407,-14.65,-2.38,5.52,4,3
18884.671,-0.112,0.924,-0.383,-20.78,4.82,3.02,4,3
18884.687,-0.12,0.95,-0.344,-28.2,10.71,1.95,4,3
18884.687,-0.135,0.965,-0.308,-34.21,16.42,2.14,4,3
18884.703,-0.112,0.98,-0.268,-40.07,22.83,3.51,4,3
18884.718,-0.149,0.975,-0.235,-45.14,27.07,3.85,4,3
18884.718,-0.163,0.968,-0.217,-43.95,28.57,5.49,4,3
18884.734,-0.196,0.924,-0.165,-37.2,27.83,11.44,4,3
18884.75,-0.16,0.925,-0.135,-28.96,14.22,6.62,4,3
18884.765,-0.136,0.967,-0.126,-20.57,1.68,2.66,4,3
18884.765,-0.13,0.984,-0.115,-9.31,-10.83,0.46,4,3
18884.781,-0.115,1.018,-0.106,5.37,-21.21,2.96,4,3
18884.781,-0.116,1.035,-0.114,18.77,-30.12,5.89,4,3
18884.796,-0.156,1.048,-0.137,29.24,-40.99,8.0,4,3
18884.812,-0.157,1.087,-0.164,34.36,-54.6,11.72,4,3
18884.812,-0.129,1.109,-0.17,34.88,-67.35,16.08,4,3
18884.828,-0.085,1.089,-0.19,32.17,-78.01,19.47,4,3
18884.828,-0.005,1.059,-0.253,27.8,-80.72,22.68,4,3
18884.843,0.063,1.024,-0.333,24.87,-70.31,25.45,4,3
18884.859,0.075,1.0,-0.391,20.2,-52.43,25.97,4,3
18884.859,0.027,0.993,-0.405,9.86,-34.46,24.87,4,3
18884.875,-0.044,1.0,-0.368,-5.89,-22.92,23.62,4,3
18884.89,-0.081,1.0,-0.29,-21.61,-20.97,23.68,4,3
18884.89,-0.075,0.986,-0.234,-32.01,-23.59,24.45,4,3
18884.906,-0.042,0.975,-0.209,-35.34,-25.39,26.09,4,3
18884.921,-0.008,0.961,-0.206,-31.65,-25.3,27.53,4,3
18884.921,0.002,0.955,-0.216,-24.96,-22.58,27.38,4,3
18884.937,0.021,0.943,-0.225,-20.81,-19.68,25.61,4,3
18884.937,0.055,0.91,-0.254,-17.73,-16.14,21.18,4,3
18884.953,0.086,0.863,-0.304,-11.41,-10.04,15.96,4,3
18884.968,0.082,0.849,-0.332,-3.11,-0.73,10.32,4,3
18884.968,0.033,0.883,-0.329,0.82,8.06,2.66,4,3
18884.984,-0.038,0.929,-0.273,-2.75,10.47,-5.22,4,3
18884.984,-0.106,0.943,-0.189,-5.98,3.39,-12.18,4,3
18885.0,-0.092,0.93,-0.179,-3.66,-9.09,-15.9,4,3
18885.015,-0.026,0.926,-0.219,2.66,-16.51,-16.72,4,3
18885.031,0.014,0.936,-0.269,11.05,-17.15,-17.88,4,3
18885.031,0.056,0.925,-0.311,16.97,-14.19,-19.32,4,3
18885.046,0.073,0.917,-0.346,20.97,-5.46,-19.78,4,3
18885.046,0.057,0.926,-0.353,23.38,6.35,-18.95,4,3
18885.062,0.028,0.951,-0.325,22.8,16.42,-17.12,4,3
18885.078,0.001,0.992,-0.284,18.16,21.39,-14.74,4,3
18885.078,-0.035,1.027,-0.23,10.38,22.0,-11.87,4,3
18885.093,-0.062,1.029,-0.173,2.41,18.34,-6.07,4,3
18885.109,-0.071,1.028,-0.133,-4.0,11.9,3.91,4,3
18885.125,-0.032,1.012,-0.131,-7.87,6.23,16.27,4,3
18885.125,0.021,0.992,-0.17,-10.68,4.52,26.64,4,3
18885.14,0.047,0.961,-0.213,-15.47,6.44,32.9,4,3
18885.14,0.054,0.93,-0.243,-22.61,9.86,35.04,4,3
18885.156,0.057,0.915,-0.255,-27.41,12.88,33.94,4,3
18885.171,0.031,0.919,-0.235,-27.34,14.22,30.12,4,3
18885.171,0.009,0.927,-0.212,-24.51,10.99,24.9,4,3
18885.187,0.016,0.931,-0.209,-22.13,4.82,19.5,4,3
18885.187,0.024,0.924,-0.214,-18.95,-0.15,14.13,4,3
18885.203,0.02,0.914,-0.229,-14.8,-3.02,9.67,4,3
18885.218,0.029,0.915,-0.246,-11.41,-4.55,6.1,4,3
18885.218,0.061,0.91,-0.254,-8.0,-3.66,3.39,4,3
18885.234,0.081,0.922,-0.268,-3.85,0.7,1.34,4,3
18885.25,0.089,0.932,-0.283,-0.92,7.02,-0.37,4,3
18885.25,0.085,0.938,-0.28,-0.27,13.86,-2.17,4,3
18885.265,0.061,0.953,-0.25,-1.07,19.1,-3.6,4,3
18885.281,0.033,0.972,-0.211,-2.04,21.06,-4.09,4,3
18885.281,0.014,0.985,-0.175,-2.14,19.44,-3.57,4,3
18885.296,0.027,1.002,-0.151,-1.74,15.47,-1.37,4,3
18885.296,0.056,1.019,-0.138,-3.17,10.96,0.89,4,3
18885.312,0.082,1.027,-0.143,-5.77,7.35,4.49,4,3
18885.328,0.095,1.031,-0.159,-8.67,6.07,9.28,4,3
18885.343,0.106,1.021,-0.175,-13.03,6.04,13.79,4,3
18885.343,0.12,1.011,-0.182,-17.82,7.29,18.19,4,3
18885.359,0.112,1.012,-0.181,-21.67,9.25,21.76,4,3
18885.359,0.101,1.009,-0.179,-24.81,9.98,24.26,4,3
18885.375,0.114,1.006,-0.173,-27.5,9.86,26.46,4,3
18885.39,0.132,1.005,-0.173,-28.08,9.95,27.68,4,3
18885.39,0.138,0.993,-0.175,-26.73,11.11,28.38,4,3
18885.406,0.141,0.972,-0.17,-24.17,12.97,29.42,4,3
18885.406,0.133,0.963,-0.165,-20.91,15.41,30.37,4,3
18885.421,0.129,0.962,-0.159,-19.59,16.91,30.21,4,3
18885.437,0.132,0.954,-0.144,-20.97,16.51,28.72,4,3
18885.437,0.139,0.936,-0.127,-23.01,15.41,27.04,4,3
18885.453,0.145,0.922,-0.107,-22.83,14.16,25.12,4,3
18885.468,0.132,0.904,-0.091,-19.62,13.52,22.61,4,3
18885.468,0.11,0.902,-0.078,-15.08,11.78,19.71,4,3
18885.484,0.109,0.902,-0.068,-10.5,7.6,16.3,4,3
18885.5,0.108,0.901,-0.068,-6.2,2.41,11.51,4,3
18885.5,0.108,0.89,-0.071,-1.86,-2.72,6.13,4,3
18885.515,0.121,0.884,-0.087,2.41,-7.14,1.62,4,3
18885.531,0.13,0.889,-0.116,5.74,-9.34,-2.41,4,3
18885.531,0.126,0.898,-0.144,7.75,-9.8,-5.98,4,3
18885.546,0.118,0.907,-0.168,7.97,-9.95,-9.58,4,3
18885.546,0.107,0.913,-0.188,7.63,-9.13,-12.51,4,3
18885.562,0.106,0.927,-0.195,7.17,-7.78,-14.13,4,3
18885.578,0.09,0.95,-0.191,6.78,-5.89,-15.2,4,3
18885.593,0.06,0.965,-0.185,6.26,-4.82,-15.29,4,3
18885.593,0.043,0.978,-0.179,5.1,-5.04,-13.92,4,3
18885.609,0.042,0.992,-0.18,3.36,-6.23,-11.96,4,3
18885.609,0.045,0.986,-0.183,2.01,-6.78,-9.77,4,3
18885.625,0.048,0.976,-0.199,0.85,-6.13,-6.62,4,3
18885.64,0.048,0.969,-0.215,-0.34,-4.36,-3.36,4,3
18885.64,0.044,0.952,-0.216,-1.25,-1.56,-0.52,4,3
18885.656,0.036,0.95,-0.217,-1.77,1.65,1.68,4,3
18885.656,0.027,0.949,-0.218,-2.87,4.06,2.72,4,3
18885.671,0.022,0.947,-0.217,-4.09,5.37,2.5,4,3
18885.687,0.024,0.956,-0.206,-4.12,6.44,1.8,4,3
18885.687,0.018,0.967,-0.193,-2.78,6.74,0.85,4,3
18885.703,0.009,0.962,-0.201,-2.04,6.32,1.74,4,3
18885.718,0.008,0.957,-0.22,-2.72,7.51,2.53,4,3
18885.734,0.008,0.954,-0.234,-3.54,9.77,2.99,4,3
18885.734,0.003,0.945,-0.246,-3.91,12.45,2.72,4,3
18885.75,0.021,0.944,-0.258,-2.69,15.78,1.56,4,3
18885.75,0.02,0.947,-0.249,-0.37,20.17,0.21,4,3
18885.765,0.007,0.954,-0.238,0.67,24.23,0.21,4,3
18885.781,-0.001,0.967,-0.22,-1.5,26.58,1.74,4,3
18885.781,-0.017,0.973,-0.192,-5.16,26.61,3.42,4,3
18885.796,-0.041,0.969,-0.175,-7.72,24.96,4.39,4,3
18885.796,-0.062,0.962,-0.178,-8.21,21.79,4.85,4,3
18885.812,-0.06,0.951,-0.195,-8.06,17.21,4.7,4,3
18885.828,-0.049,0.935,-0.217,-6.99,14.62,3.27,4,3
18885.828,-0.042,0.92,-0.246,-3.72,14.83,1.37,4,3
18885.843,-0.024,0.926,-0.268,-0.61,17.21,-0.46,4,3
18885.859,-0.03,0.939,-0.282,1.13,22.46,-3.63,4,3
18885.859,-0.044,0.936,-0.278,1.89,28.02,-7.26,4,3
18885.875,-0.05,0.941,-0.26,2.93,32.26,-9.34,4,3
18885.89,-0.073,0.96,-0.247,5.28,36.84,-9.7,4,3
18885.89,-0.079,0.98,-0.232,5.52,39.09,-8.33,4,3
18885.906,-0.058,1.001,-0.206,2.47,38.85,-6.29,4,3
18885.906,-0.067,1.009,-0.185,-0.58,39.22,-3.72,4,3
18885.921,-0.073,1.001,-0.167,-3.66,38.06,-0.09,4,3
18885.937,-0.063,0.988,-0.168,-5.55,36.29,3.94,4,3
18885.937,-0.061,0.97,-0.19,-6.29,36.26,7.45,4,3
18885.953,-0.078,0.949,-0.21,-7.66,38.0,9.0,4,3
18885.968,-0.069,0.925,-0.23,-9.58,39.55,8.33,4,3
18885.968,-0.034,0.925,-0.227,-10.13,42.18,5.71,4,3
18885.984,-0.027,0.928,-0.206,-6.84,46.24,1.34,4,3
18886.0,-0.04,0.94,-0.185,-2.47,49.38,-2.38,4,3
18886.0,-0.047,0.953,-0.168,0.15,50.63,-4.82,4,3
18886.015,-0.057,0.95,-0.154,1.01,51.09,-5.92,4,3
18886.031,-0.084,0.937,-0.15,1.77,52.22,-6.16,4,3
18886.031,-0.086,0.942,-0.156,1.77,53.01,-5.13,4,3
18886.046,-0.063,0.952,-0.148,0.64,53.68,-4.43,4,3
18886.046,-0.063,0.948,-0.151,1.28,55.45,-5.13,4,3
18886.062,-0.055,0.955,-0.156,2.14,57.47,-5.43,4,3
18886.078,-0.042,0.97,-0.139,2.26,59.72,-5.8,4,3
18886.078,-0.04,0.976,-0.118,2.5,61.71,-6.65,4,3
18886.093,-0.03,0.983,-0.086,2.17,62.44,-6.78,4,3
18886.109,-0.023,0.984,-0.064,2.99,62.59,-6.32,4,3
18886.109,-0.015,0.973,-0.057,4.24,61.8,-5.01,4,3
18886.125,0.002,0.968,-0.059,5.46,60.76,-3.54,4,3
18886.14,0.015,0.965,-0.074,6.41,60.79,-3.36,4,3
18886.14,0.026,0.959,-0.089,5.89,61.77,-4.73,4,3
18886.156,0.017,0.963,-0.088,4.85,64.09,-6.9,4,3
18886.156,0.01,0.971,-0.082,4.21,65.92,-8.79,4,3
18886.171,0.015,0.983,-0.07,3.54,67.02,-9.49,4,3
18886.187,0.03,1.0,-0.062,4.06,68.58,-9.19,4,3
18886.187,0.038,1.025,-0.06,4.27,69.73,-8.24,4,3
18886.203,0.028,1.031,-0.061,2.47,70.68,-6.99,4,3
18886.218,0.048,1.012,-0.064,0.37,71.26,-4.73,4,3
18886.218,0.085,1.006,-0.076,0.43,73.76,-2.17,4,3
18886.234,0.137,1.007,-0.085,0.52,78.43,-0.06,4,3
18886.25,0.17,1.012,-0.061,0.21,83.83,0.73,4,3
18886.25,0.163,1.016,-0.029,1.65,89.08,1.34,4,3
18886.265,0.142,1.03,0.008,3.39,91.92,2.62,4,3
18886.265,0.115,1.038,0.041,4.21,91.37,4.15,4,3
18886.281,0.082,1.032,0.064,3.08,87.62,4.85,4,3
18886.296,0.047,1.012,0.064,0.95,81.91,4.97,4,3
18886.312,0.053,0.986,0.038,-0.46,75.99,4.52,4,3
18886.312,0.094,0.984,0.01,0.27,72.36,2.47,4,3
18886.328,0.13,0.992,-0.008,3.05,71.75,-1.83,4,3
18886.328,0.15,1.006,0.0,6.56,73.09,-7.2,4,3
18886.343,0.129,1.022,0.017,10.28,74.19,-11.23,4,3
18886.359,0.099,1.026,0.031,12.3,73.46,-12.05,4,3
18886.359,0.069,1.033,0.038,11.66,71.87,-10.62,4,3
18886.375,0.019,1.024,0.039,9.58,70.04,-9.0,4,3
18886.39,-0.01,1.0,0.024,7.39,66.93,-7.32,4,3
18886.39,-0.002,0.976,-0.001,6.29,63.69,-6.07,4,3
18886.406,0.003,0.959,-0.029,6.96,62.78,-6.41,4,3
18886.421,0.023,0.96,-0.031,7.39,63.33,-8.12,4,3
18886.421,0.023,0.966,-0.017,7.45,64.97,-10.93,4,3
18886.437,0.027,0.959,-0.009,8.67,66.23,-13.55,4,3
18886.437,0.016,0.964,-0.009,11.11,67.17,-15.75,4,3
18886.453,-0.007,0.965,-0.009,13.37,68.21,-17.43,4,3
18886.468,-0.032,0.96,-0.011,14.8,69.34,-18.31,4,3
18886.468,-0.04,0.958,-0.019,15.14,70.16,-18.13,4,3
18886.484,-0.013,0.965,-0.019,14.25,71.41,-17.37,4,3
18886.5,0.023,0.976,-0.016,13.67,73.73,-16.94,4,3
18886.5,0.015,0.995,-0.002,12.88,76.57,-16.39,4,3
18886.515,-0.008,0.992,0.005,12.09,78.37,-14.86,4,3
18886.531,-0.011,0.996,0.013,11.72,79.07,-12.63,4,3
18886.531,-0.012,1.006,0.016,11.44,79.13,-10.62,4,3
18886.546,-0.012,1.004,0.026,10.16,78.28,-9.34,4,3
18886.546,0.0,0.985,0.031,10.04,77.03,-8.21,4,3
18886.562,0.018,0.968,0.023,11.32,76.45,-7.93,4,3
18886.578,0.027,0.954,0.019,13.86,77.15,-8.58,4,3
18886.593,0.047,0.949,0.012,15.56,78.46,-9.86,4,3
18886.593,0.045,0.956,0.016,15.5,80.39,-11.75,4,3
18886.609,0.031,0.956,0.027,14.77,81.97,-13.98,4,3
18886.609,0.019,0.958,0.032,14.44,82.52,-15.75,4,3
18886.625,0.014,0.98,0.035,14.16,82.52,-16.33,4,3
18886.64,0.028,0.989,0.037,13.09,81.7,-15.93,4,3
18886.64,0.062,0.997,0.034,10.93,80.14,-15.11,4,3
18886.656,0.075,1.007,0.039,9.52,79.59,-14.65,4,3
18886.671,0.072,0.997,0.025,10.16,79.59,-14.31,4,3
18886.671,0.088,0.989,-0.002,10.9,79.78,-13.31,4,3
18886.687,0.083,1.005,-0.005,10.5,83.35,-11.2,4,3
18886.687,0.096,0.999,0.017,11.02,83.96,-11.75,4,3
18886.703,0.088,1.027,0.012,9.4,84.2,-10.74,4,3
18886.718,0.05,1.007,0.012,6.26,83.07,-6.16,4,3
18886.718,0.111,1.036,-0.007,5.07,83.83,-4.24,4,3
18886.734,0.097,1.0,-0.01,3.97,86.03,-2.44,4,3
18886.75,0.125,1.022,-0.001,4.3,88.05,0.52,4,3
18886.75,0.11,1.038,-0.009,4.39,90.52,2.2,4,3
18886.765,0.111,1.013,0.003,0.64,91.46,4.79,4,3
18886.765,0.128,1.017,0.022,-3.11,92.84,7.29,4,3
18886.781,0.125,1.007,0.034,-5.1,94.33,9.83,4,3
18886.796,0.139,0.985,0.037,-5.71,94.64,12.54,4,3
18886.796,0.149,0.991,0.038,-4.49,94.91,14.34,4,3
18886.812,0.143,0.991,0.049,-2.53,94.49,14.92,4,3
18886.828,0.158,0.984,0.052,-1.62,92.56,15.56,4,3
18886.828,0.174,0.983,0.057,-1.13,89.91,14.77,4,3
18886.843,0.173,0.975,0.066,-0.95,87.62,12.7,4,3
18886.859,0.162,0.972,0.07,-1.43,85.3,10.13,4,3
18886.875,0.162,0.97,0.073,-1.13,82.46,7.9,4,3
18886.875,0.157,0.968,0.065,0.21,80.11,5.89,4,3
18886.89,0.164,0.96,0.044,2.38,77.91,4.09,4,3
18886.89,0.176,0.966,0.033,3.69,76.6,2.08,4,3
18886.906,0.166,0.957,0.027,5.01,75.99,-0.76,4,3
18886.906,0.169,0.967,0.039,6.87,74.31,-3.69,4,3
18886.921,0.162,0.985,0.058,9.7,71.6,-6.81,4,3
18886.937,0.153,0.989,0.054,11.99,68.09,-9.4,4,3
18886.937,0.163,0.991,0.034,13.43,64.79,-10.47,4,3
18886.953,0.181,0.996,0.014,13.95,63.02,-10.96,4,3
18886.968,0.168,0.996,0.003,13.61,62.69,-12.18,4,3
18886.968,0.154,0.999,-0.012,13.21,62.35,-12.88,4,3
18886.984,0.159,1.004,-0.039,14.01,61.92,-13.03,4,3
18887.0,0.178,1.001,-0.061,15.93,62.01,-13.82,4,3
18887.0,0.188,1.006,-0.068,19.01,62.65,-15.63,4,3
18887.015,0.189,1.017,-0.056,23.77,62.87,-18.07,4,3
18887.031,0.147,1.009,-0.052,29.54,61.71,-19.81,4,3
18887.031,0.191,1.028,-0.068,33.72,57.99,-19.59,4,3
18887.046,0.185,1.08,-0.106,34.0,57.25,-25.42,4,3
18887.046,0.085,0.99,-0.101,30.09,59.82,-24.08,4,3
18887.062,0.156,1.047,-0.089,29.54,59.88,-17.09,4,3
18887.078,0.123,1.084,-0.128,32.69,64.7,-13.98,4,3
18887.093,0.069,1.022,-0.118,27.44,68.76,-8.24,4,3
18887.093,0.079,1.03,-0.092,23.01,70.74,-0.79,4,3
18887.109,0.061,1.025,-0.078,22.89,72.45,3.91,4,3
18887.109,0.047,0.988,-0.064,22.1,73.4,8.27,4,3
18887.125,0.045,1.004,-0.054,21.12,74.07,10.74,4,3
18887.14,0.018,0.977,-0.05,18.25,74.56,12.39,4,3
18887.14,0.032,0.95,-0.044,14.04,73.49,14.44,4,3
18887.156,0.033,0.938,-0.051,11.26,72.57,15.08,4,3
18887.171,0.024,0.914,-0.056,8.73,71.6,14.74,4,3
18887.171,0.019,0.913,-0.044,7.17,70.89,12.33,4,3
18887.187,0.014,0.909,-0.038,7.29,69.86,8.64,4,3
18887.187,0.023,0.905,-0.029,7.2,67.17,5.89,4,3
18887.203,0.042,0.889,-0.039,7.17,63.02,2.62,4,3
18887.218,0.063,0.867,-0.069,8.33,59.85,-2.04,4,3
18887.234,0.083,0.849,-0.096,11.69,58.69,-8.24,4,3
18887.234,0.067,0.866,-0.125,15.29,60.52,-15.44,4,3
18887.25,0.059,0.871,-0.141,16.6,63.33,-22.1,4,3
18887.25,0.052,0.885,-0.126,16.69,67.2,-27.99,4,3
18887.265,0.039,0.902,-0.087,16.21,71.26,-32.14,4,3
18887.265,0.017,0.913,-0.045,15.96,73.43,-35.04,4,3
18887.281,-0.015,0.916,-0.012,15.17,71.93,-35.95,4,3
18887.296,-0.024,0.929,-0.004,12.12,67.23,-34.24,4,3
18887.312,-0.032,0.96,-0.034,7.05,63.48,-29.82,4,3
18887.312,-0.015,0.989,-0.064,-2.04,61.37,-22.19,4,3
18887.328,0.028,1.012,-0.083,-11.05,61.53,-13.12,4,3
18887.328,0.043,1.03,-0.091,-16.88,64.03,-5.4,4,3
18887.343,0.039,1.016,-0.095,-18.83,66.74,1.31,4,3
18887.359,0.05,1.004,-0.091,-17.0,69.12,5.83,4,3
18887.359,0.037,1.005,-0.078,-13.76,71.47,6.62,4,3
18887.375,0.032,0.988,-0.068,-10.83,71.69,4.64,4,3
18887.39,0.045,1.002,-0.067,-6.74,70.65,1.04,4,3
18887.39,0.047,1.024,-0.06,-0.98,70.16,-3.54,4,3
18887.406,0.062,1.028,-0.06,5.92,69.86,-7.57,4,3
18887.421,0.074,1.051,-0.055,13.12,70.86,-10.25,4,3
18887.421,0.073,1.065,-0.043,18.77,73.15,-9.49,4,3
18887.437,0.099,1.07,-0.033,18.83,74.37,-5.46,4,3
18887.437,0.147,1.078,-0.004,14.56,75.69,-0.61,4,3
18887.453,0.131,1.064,0.016,10.62,77.97,2.87,4,3
18887.468,0.13,1.035,0.014,9.52,77.15,6.04,4,3
18887.468,0.157,1.034,-0.007,8.45,75.05,8.7,4,3
18887.484,0.169,1.01,-0.037,6.71,74.07,10.25,4,3
18887.5,0.21,0.963,-0.054,6.07,73.49,12.3,4,3
18887.515,0.25,0.94,-0.049,8.55,75.11,13.61,4,3
18887.515,0.242,0.904,-0.04,14.1,78.34,12.6,4,3
18887.531,0.216,0.867,-0.044,19.96,80.72,9.98,4,3
18887.531,0.201,0.87,-0.047,22.83,81.3,6.01,4,3
18887.546,0.193,0.892,-0.033,23.87,80.75,1.56,4,3
18887.562,0.151,0.93,-0.02,23.16,79.71,-1.07,4,3
18887.562,0.133,0.967,0.007,19.47,76.75,1.16,4,3
18887.578,0.14,0.979,0.001,14.77,73.27,6.01,4,3
18887.578,0.154,0.971,-0.004,10.32,71.72,11.57,4,3
18887.593,0.151,0.933,-0.009,9.09,72.73,16.42,4,3
18887.609,0.134,0.902,-0.005,8.21,74.95,19.23,4,3
18887.609,0.107,0.897,0.019,5.46,76.3,18.74,4,3
18887.625,0.082,0.893,0.037,2.29,74.89,15.38,4,3
18887.64,0.095,0.915,0.038,0.31,69.83,9.43,4,3
18887.64,0.109,0.957,0.031,2.35,63.33,-0.43,4,3
18887.656,0.083,0.993,0.007,9.67,57.56,-13.28,4,3
18887.656,0.054,1.03,-0.022,19.14,51.55,-25.85,4,3
18887.671,0.024,1.06,-0.072,40.22,41.17,-48.43,4,3
18887.687,0.013,1.046,-0.138,53.96,40.8,-53.83,4,3
18887.687,0.086,1.03,-0.19,61.59,47.43,-57.28,4,3
18887.703,0.116,1.069,-0.165,62.59,54.81,-59.21,4,3
18887.718,0.107,1.1,-0.087,60.82,61.13,-59.14,4,3
18887.734,0.067,1.129,-0.029,56.79,62.47,-58.32,4,3
18887.734,0.062,1.125,0.023,48.68,59.94,-53.83,4,3
18887.75,0.035,1.137,0.052,39.34,58.96,-43.09,4,3
18887.75,0.024,1.119,0.032,29.48,57.07,-27.34,4,3
18887.765,0.058,1.089,-0.023,18.92,55.73,-8.73,4,3
18887.781,0.114,1.03,-0.062,10.44,56.52,7.87,4,3
18887.781,0.178,0.937,-0.058,6.26,60.64,18.04,4,3
18887.796,0.188,0.864,-0.019,6.93,66.87,19.9,4,3
18887.812,0.16,0.847,0.02,7.2,70.56,16.69,4,3
18887.812,0.156,0.847,0.032,2.53,66.41,11.32,4,3
18887.828,0.2,0.852,0.019,-1.98,56.98,2.87,4,3
18887.828,0.235,0.859,-0.017,-0.95,48.74,-8.36,4,3
18887.843,0.217,0.887,-0.045,6.74,44.68,-21.52,4,3
18887.859,0.162,0.929,-0.089,13.67,44.01,-31.68,4,3
18887.875,0.153,0.943,-0.111,14.77,41.9,-36.87,4,3
18887.875,0.166,0.967,-0.113,16.72,40.35,-41.54,4,3
18887.89,0.153,1.0,-0.109,20.57,40.62,-47.12,4,3
18887.89,0.12,1.037,-0.09,24.75,41.54,-51.21,4,3
18887.906,0.073,1.047,-0.103,25.48,42.42,-51.27,4,3
18887.921,0.075,1.055,-0.107,21.18,43.98,-45.35,4,3
18887.921,0.107,1.066,-0.116,13.67,47.15,-35.58,4,3
18887.937,0.155,1.076,-0.091,5.83,50.97,-24.72,4,3
18887.953,0.149,1.09,-0.047,0.43,55.73,-15.29,4,3
18887.953,0.122,1.072,-0.019,-4.3,58.35,-5.74,4,3
18887.968,0.12,1.081,0.003,-10.41,58.93,5.31,4,3
18887.968,0.113,1.07,-0.001,-18.74,59.36,15.5,4,3
18887.984,0.131,1.024,0.013,-27.86,60.21,24.2,4,3
18888.0,0.166,0.98,-0.001,-32.72,60.76,30.4,4,3
18888.0,0.234,0.965,-0.019,-34.52,59.97,32.41,4,3
18888.015,0.279,0.97,0.003,-33.69,59.88,28.72,4,3
18888.031,0.274,0.944,0.048,-31.07,59.21,21.94,4,3
18888.031,0.277,0.879,0.077,-22.89,55.79,17.3,4,3
18888.046,0.292,0.865,0.065,-8.7,52.86,14.53,4,3
18888.046,0.31,0.897,0.035,5.31,52.22,13.21,4,3
18888.062,0.307,0.911,0.005,8.58,51.48,15.44,4,3
18888.078,0.33,0.888,-0.016,0.82,48.37,19.04,4,3
18888.093,0.372,0.868,-0.013,-6.13,43.73,21.64,4,3
18888.093,0.404,0.883,0.001,-7.45,39.4,21.79,4,3
18888.109,0.384,0.906,0.017,-7.08,34.55,18.01,4,3
18888.109,0.351,0.891,0.015,-6.9,27.74,12.7,4,3
18888.125,0.314,0.882,0.005,-6.44,21.97,8.55,4,3
18888.14,0.272,0.867,-0.018,-6.62,18.95,6.35,4,3
18888.14,0.253,0.877,-0.035,-10.53,17.21,6.59,4,3
18888.156,0.258,0.887,-0.017,-15.69,14.98,6.84,4,3
18888.171,0.243,0.899,-0.015,-18.34,12.39,5.04,4,3
18888.171,0.223,0.905,-0.015,-18.52,9.22,2.66,4,3
18888.187,0.206,0.912,-0.037,-17.18,5.49,0.34,4,3
18888.187,0.211,0.917,-0.059,-17.06,2.75,-1.68,4,3
18888.203,0.202,0.918,-0.087,-18.74,0.7,-4.7,4,3
18888.218,0.218,0.904,-0.113,-18.43,-0.64,-8.79,4,3
18888.218,0.225,0.914,-0.134,-13.46,-0.18,-14.34,4,3
18888.234,0.219,0.927,-0.148,-6.62,1.65,-20.63,4,3
18888.25,0.212,0.945,-0.133,-0.37,3.88,-25.88,4,3
18888.25,0.182,0.979,-0.089,5.28,6.87,-29.3,4,3
18888.265,0.136,0.999,-0.071,7.63,8.58,-29.57,4,3
18888.265,0.132,1.011,-0.071,4.76,7.05,-25.61,4,3
18888.281,0.17,1.021,-0.087,1.34,5.04,-20.63,4,3
18888.296,0.22,1.038,-0.1,-1.95,4.61,-16.51,4,3
18888.296,0.244,1.053,-0.087,-3.39,6.78,-13.34,4,3
18888.312,0.197,1.061,-0.071,-3.6,10.13,-9.37,4,3
18888.328,0.166,1.062,-0.058,-5.71,10.62,-1.95,4,3
18888.328,0.171,1.058,-0.068,-8.85,8.55,6.23,4,3
18888.343,0.183,1.035,-0.089,-11.26,6.99,11.99,4,3
18888.359,0.198,0.996,-0.09,-10.99,7.45,14.44,4,3
18888.359,0.178,0.974,-0.088,-8.51,9.7,14.56,4,3
18888.375,0.159,0.962,-0.074,-7.66,11.11,14.62,4,3
18888.39,0.155,0.952,-0.049,-7.78,10.59,13.15,4,3
18888.39,0.142,0.942,-0.033,-6.68,9.25,9.61,4,3
18888.406,0.14,0.929,-0.031,-4.36,7.08,5.77,4,3
18888.406,0.152,0.928,-0.043,-1.92,5.16,3.27,4,3
18888.421,0.158,0.942,-0.054,-0.92,4.0,1.59,4,3
18888.437,0.166,0.938,-0.069,-2.14,3.42,1.13,4,3
18888.437,0.191,0.925,-0.079,-2.84,3.81,1.71,4,3
18888.453,0.206,0.929,-0.072,-1.13,5.4,1.62,4,3
18888.468,0.199,0.932,-0.043,0.85,7.14,0.52,4,3
18888.468,0.164,0.953,0.006,2.17,7.11,0.15,4,3
18888.484,0.148,0.956,0.011,0.79,3.17,1.98,4,3
18888.5,0.189,0.928,-0.022,-3.85,-2.78,4.55,4,3
18888.5,0.237,0.914,-0.06,-6.07,-5.34,4.76,4,3
18888.515,0.239,0.916,-0.074,-5.62,-3.48,2.5,4,3
18888.531,0.214,0.921,-0.051,-4.64,-1.19,-0.31,4,3
18888.531,0.188,0.929,-0.029,-4.39,-0.7,-2.14,4,3
18888.546,0.178,0.938,-0.02,-5.58,-1.95,-2.35,4,3
18888.546,0.19,0.942,-0.017,-7.97,-4.61,-1.71,4,3
18888.562,0.219,0.944,-0.031,-10.38,-7.57,-1.22,4,3
18888.578,0.254,0.953,-0.042,-9.31,-10.74,-2.87,4,3
18888.578,0.265,0.98,-0.05,-5.13,-12.15,-6.93,4,3
18888.593,0.237,0.985,-0.046,-1.43,-12.97,-12.18,4,3
18888.609,0.2,0.994,-0.033,2.11,-13.58,-16.75,4,3
18888.625,0.156,1.012,-0.041,3.78,-13.95,-18.71,4,3
18888.625,0.142,1.014,-0.052,2.04,-13.92,-16.72,4,3
18888.64,0.14,1.012,-0.076,-1.04,-13.0,-12.91,4,3
18888.64,0.152,1.019,-0.073,-4.24,-11.78,-8.94,4,3
18888.656,0.166,1.017,-0.066,-8.45,-11.6,-4.97,4,3
18888.671,0.178,1.008,-0.063,-9.22,-11.35,-4.79,4,3
18888.671,0.177,0.996,-0.074,-9.74,-10.68,-5.28,4,3
18888.687,0.171,0.987,-0.085,-9.98,-8.94,-6.35,4,3
18888.687,0.14,0.969,-0.07,-10.41,-7.05,-7.39,4,3
18888.703,0.107,0.966,-0.052,-9.09,-6.16,-7.81,4,3
18888.718,0.087,0.982,-0.042,-7.17,-6.47,-6.93,4,3
18888.718,0.086,0.98,-0.047,-6.41,-8.18,-4.82,4,3
18888.734,0.09,0.971,-0.071,-6.35,-9.4,-2.87,4,3
18888.75,0.099,0.975,-0.084,-6.26,-9.03,-1.5,4,3
18888.75,0.102,0.976,-0.071,-6.13,-7.05,-0.89,4,3
18888.765,0.078,0.978,-0.053,-7.11,-5.04,-0.76,4,3
18888.781,0.059,0.98,-0.032,-8.39,-5.55,-0.46,4,3
18888.781,0.054,0.981,-0.039,-9.0,-8.0,0.15,4,3
18888.796,0.065,0.986,-0.062,-8.48,-10.16,0.49,4,3
18888.812,0.068,0.986,-0.094,-7.17,-10.53,0.43,4,3
18888.812,0.07,0.98,-0.115,-5.34,-8.88,0.31,4,3
18888.828,0.062,0.996,-0.102,-2.62,-5.52,0.27,4,3
18888.828,0.029,1.012,-0.102,-0.89,-3.42,0.92,4,3
18888.843,0.041,1.008,-0.091,-2.01,-3.2,2.75,4,3
18888.859,0.045,1.004,-0.094,-3.17,-2.72,3.11,4,3
18888.859,0.054,0.981,-0.105,-1.95,-2.17,2.53,4,3
18888.875,0.068,0.985,-0.113,0.98,-0.49,2.29,4,3
18888.89,0.064,0.988,-0.118,2.87,2.41,2.53,4,3
18888.89,0.081,0.982,-0.109,2.23,4.85,4.0,4,3
18888.906,0.099,0.983,-0.089,1.25,7.02,5.19,4,3
18888.906,0.104,0.96,-0.075,2.87,8.88,5.55,4,3
18888.921,0.102,0.954,-0.07,5.62,10.04,5.43,4,3
18888.937,0.103,0.951,-0.063,6.5,11.05,5.28,4,3
18888.953,0.117,0.938,-0.055,4.85,12.42,5.86,4,3
18888.953,0.137,0.934,-0.027,2.62,13.95,7.2,4,3
18888.968,0.147,0.946,0.006,0.89,13.76,8.3,4,3
18888.968,0.159,0.945,0.009,0.24,11.47,9.03,4,3
18888.984,0.174,0.941,-0.013,-0.24,9.22,9.46,4,3
18889.0,0.184,0.937,-0.024,-1.71,8.64,9.34,4,3
18889.0,0.184,0.93,-0.022,-4.12,8.36,9.25,4,3
18889.015,0.198,0.929,-0.01,-5.92,6.9,9.19,4,3
18889.015,0.205,0.924,-0.001,-5.89,5.58,7.63,4,3
18889.031,0.199,0.912,-0.005,-4.18,4.27,4.52,4,3
18889.046,0.197,0.917,-0.006,-2.14,2.41,1.13,4,3
18889.046,0.194,0.921,-0.006,-1.22,1.01,-2.08,4,3
18889.062,0.195,0.908,-0.01,-0.34,-0.06,-5.25,4,3
18889.078,0.2,0.919,-0.011,1.53,-0.43,-8.12,4,3
18889.093,0.194,0.921,-0.004,3.91,0.03,-10.32,4,3
18889.093,0.183,0.924,0.012,5.31,0.61,-11.02,4,3
18889.109,0.168,0.934,0.024,5.52,1.43,-9.86,4,3
18889.109,0.172,0.941,0.035,3.02,1.95,-5.92,4,3
18889.125,0.192,0.95,0.038,-3.3,1.37,-0.06,4,3
18889.14,0.227,0.955,0.041,-10.68,0.55,6.81,4,3
18889.14,0.266,0.955,0.049,-16.05,-0.03,13.46,4,3
18889.156,0.286,0.948,0.061,-18.74,0.0,18.31,4,3
18889.156,0.271,0.942,0.076,-20.33,0.12,21.64,4,3
18889.171,0.241,0.934,0.099,-22.77,-1.22,23.93,4,3
18889.187,0.207,0.924,0.093,-25.61,-4.7,24.45,4,3
18889.203,0.199,0.902,0.074,-27.28,-9.46,22.55,4,3
18889.203,0.205,0.89,0.045,-25.51,-13.31,17.55,4,3
18889.218,0.207,0.892,0.02,-21.3,-15.35,9.92,4,3
18889.218,0.192,0.91,0.008,-16.82,-16.24,0.73,4,3
18889.234,0.176,0.932,0.008,-12.45,-17.52,-8.61,4,3
18889.25,0.151,0.957,0.007,-7.81,-19.99,-17.03,4,3
18889.25,0.134,0.986,-0.008,-3.6,-22.49,-23.77,4,3
18889.265,0.118,1.012,-0.021,-0.85,-24.08,-28.38,4,3
