timestamp,ax,ay,az,gx,gy,gz,orient_label,motion_label
18402.656,0.265,-0.613,0.838,11.72,-13.67,13.82,3,3
18402.656,0.261,-0.6,0.84,12.88,-19.65,18.65,3,3
18402.671,0.277,-0.613,0.805,12.79,-26.73,23.8,3,3
18402.687,0.315,-0.634,0.764,10.16,-31.43,27.25,3,3
18402.687,0.348,-0.64,0.738,5.74,-32.11,27.04,3,3
18402.703,0.373,-0.67,0.712,2.47,-30.09,24.05,3,3
18402.703,0.386,-0.693,0.694,1.34,-25.67,20.39,3,3
18402.718,0.386,-0.702,0.689,2.11,-19.68,16.85,3,3
18402.734,0.379,-0.698,0.696,3.39,-14.19,12.7,3,3
18402.75,0.373,-0.687,0.705,4.06,-10.41,8.09,3,3
18402.75,0.365,-0.686,0.703,4.39,-7.45,3.27,3,3
18402.765,0.353,-0.666,0.721,4.15,-5.4,-1.16,3,3
18402.765,0.336,-0.652,0.733,4.79,-4.7,-4.46,3,3
18402.781,0.334,-0.633,0.733,5.01,-5.25,-6.1,3,3
18402.796,0.327,-0.615,0.734,4.7,-5.16,-6.41,3,3
18402.796,0.317,-0.6,0.737,4.21,-5.16,-6.32,3,3
18402.828,0.328,-0.59,0.718,2.84,-4.97,-5.34,3,3
18402.828,0.333,-0.585,0.714,2.62,-3.42,-4.43,3,3
18402.843,0.336,-0.58,0.713,2.44,-1.83,-3.3,3,3
18402.843,0.34,-0.581,0.708,1.16,0.37,-1.8,3,3
18402.859,0.341,-0.583,0.718,-0.92,2.62,-0.31,3,3
18402.875,0.332,-0.587,0.734,-2.62,4.43,0.95,3,3
18402.89,0.325,-0.593,0.745,-3.69,5.1,1.98,3,3
18402.89,0.327,-0.602,0.748,-3.88,5.01,2.29,3,3
18402.906,0.318,-0.607,0.761,-3.17,4.61,1.77,3,3
18402.906,0.308,-0.61,0.763,-1.95,3.42,1.43,3,3
18402.921,0.322,-0.612,0.755,-1.68,1.07,1.28,3,3
18402.937,0.333,-0.616,0.748,-1.65,-0.21,0.09,3,3
18402.937,0.321,-0.611,0.75,-0.79,-0.61,-2.01,3,3
18402.953,0.319,-0.607,0.744,0.76,-1.86,-3.6,3,3
18402.968,0.332,-0.595,0.736,2.01,-3.02,-4.73,3,3
18402.968,0.335,-0.584,0.725,2.96,-2.75,-5.74,3,3
18402.984,0.334,-0.582,0.717,3.3,-2.01,-6.35,3,3
18402.984,0.34,-0.575,0.718,3.14,-1.19,-5.92,3,3
18403.0,0.33,-0.564,0.726,3.08,0.0,-5.43,3,3
18403.015,0.309,-0.56,0.736,3.11,0.37,-5.01,3,3
18403.015,0.312,-0.558,0.739,2.96,-0.92,-4.43,3,3
18403.031,0.331,-0.563,0.726,3.17,-1.95,-4.12,3,3
18403.046,0.34,-0.56,0.723,3.78,-1.19,-4.27,3,3
18403.046,0.329,-0.55,0.729,4.88,0.61,-4.61,3,3
18403.062,0.313,-0.537,0.738,5.37,1.5,-4.21,3,3
18403.078,0.312,-0.528,0.745,5.22,0.82,-2.87,3,3
18403.078,0.319,-0.525,0.747,5.13,0.09,-1.31,3,3
18403.093,0.323,-0.524,0.748,5.28,-0.03,0.4,3,3
18403.109,0.324,-0.52,0.752,5.4,-0.18,2.11,3,3
18403.109,0.318,-0.525,0.757,5.83,-0.03,3.33,3,3
18403.125,0.313,-0.525,0.766,6.35,-0.46,3.88,3,3
18403.125,0.313,-0.525,0.768,6.99,-1.46,4.03,3,3
18403.14,0.315,-0.522,0.762,8.03,-2.93,3.69,3,3
18403.156,0.319,-0.515,0.76,9.37,-4.27,2.75,3,3
18403.156,0.321,-0.5,0.754,11.44,-4.79,1.19,3,3
18403.171,0.311,-0.477,0.755,13.4,-5.04,-0.64,3,3
18403.187,0.292,-0.454,0.755,15.93,-5.4,-1.68,3,3
18403.187,0.263,-0.429,0.758,18.4,-6.38,-1.4,3,3
18403.203,0.23,-0.404,0.758,20.42,-8.67,-0.76,3,3
18403.218,0.197,-0.384,0.753,22.16,-12.94,-0.52,3,3
18403.218,0.201,-0.363,0.731,23.87,-19.23,-1.16,3,3
18403.234,0.221,-0.329,0.7,26.12,-24.14,-2.23,3,3
18403.25,0.233,-0.29,0.67,28.96,-25.67,-2.2,3,3
18403.25,0.241,-0.257,0.643,30.88,-24.63,-0.03,3,3
18403.265,0.237,-0.226,0.631,31.1,-20.78,3.36,3,3
18403.265,0.218,-0.21,0.635,30.09,-15.23,6.99,3,3
18403.281,0.195,-0.218,0.661,30.0,-10.04,10.68,3,3
18403.296,0.162,-0.235,0.686,32.44,-5.83,12.54,3,3
18403.296,0.136,-0.256,0.701,38.09,-4.12,11.11,3,3
18403.312,0.131,-0.277,0.71,45.87,-4.91,7.9,3,3
18403.328,0.134,-0.288,0.713,54.63,-6.68,2.41,3,3
18403.328,0.146,-0.292,0.715,63.57,-8.67,-4.3,3,3
18403.343,0.15,-0.291,0.722,71.57,-9.06,-10.86,3,3
18403.359,0.134,-0.283,0.738,77.7,-8.33,-16.57,3,3
18403.359,0.117,-0.283,0.758,81.18,-8.51,-21.67,3,3
18403.375,0.099,-0.303,0.775,82.92,-9.95,-27.74,3,3
18403.39,0.094,-0.326,0.794,84.63,-12.54,-35.68,3,3
18403.39,0.095,-0.337,0.79,90.58,-15.14,-45.81,3,3
18403.406,0.107,-0.347,0.753,113.07,-17.85,-63.3,3,3
18403.421,0.152,-0.33,0.753,121.43,-13.58,-66.87,3,3
18403.421,0.182,-0.305,0.759,125.13,-6.78,-66.77,3,3
18403.437,0.212,-0.285,0.767,122.29,2.81,-65.34,3,3
18403.437,0.185,-0.293,0.806,117.13,13.34,-65.4,3,3
18403.453,0.138,-0.321,0.857,112.22,20.51,-67.66,3,3
18403.468,0.093,-0.341,0.908,109.87,22.19,-72.51,3,3
18403.468,0.076,-0.35,0.932,111.36,18.4,-80.57,3,3
18403.484,0.084,-0.343,0.931,115.12,11.57,-91.4,3,3
18403.5,0.122,-0.281,0.918,124.67,2.08,-117.16,3,3
18403.515,0.126,-0.244,0.911,124.88,1.37,-127.75,3,3
18403.531,0.131,-0.201,0.927,121.31,4.03,-135.44,3,3
18403.531,0.118,-0.178,0.953,116.49,9.46,-141.61,3,3
18403.546,0.083,-0.173,0.967,110.54,14.4,-147.47,3,3
18403.562,0.063,-0.164,0.976,104.62,16.42,-153.48,3,3
18403.562,0.067,-0.167,0.98,101.66,15.26,-160.8,3,3
18403.578,0.078,-0.16,0.962,102.27,12.21,-168.71,3,3
18403.578,0.106,-0.125,0.954,103.09,9.19,-176.4,3,3
18403.593,0.149,-0.063,0.974,101.54,9.19,-184.85,3,3
18403.609,0.168,-0.003,1.006,98.57,13.4,-194.46,3,3
18403.609,0.133,0.053,1.038,95.46,19.59,-203.96,3,3
18403.625,0.09,0.108,1.073,91.46,24.26,-212.41,3,3
18403.625,0.063,0.152,1.097,86.12,25.54,-219.52,3,3
18403.64,0.054,0.189,1.108,80.26,24.08,-225.29,3,3
18403.656,0.059,0.227,1.118,75.78,22.31,-230.6,3,3
18403.671,0.1,0.299,1.128,69.67,20.11,-238.81,3,3
18403.687,0.122,0.348,1.144,68.36,22.31,-242.44,3,3
18403.687,0.117,0.414,1.165,66.71,26.03,-246.96,3,3
18403.703,0.097,0.477,1.182,65.28,28.53,-252.6,3,3
18403.718,0.058,0.544,1.193,64.55,28.2,-259.13,3,3
18403.718,-0.002,0.615,1.191,65.07,23.13,-266.43,3,3
18403.734,-0.034,0.691,1.184,66.5,12.36,-271.34,3,3
18403.734,-0.049,0.788,1.176,67.35,-0.46,-272.84,3,3
18403.75,-0.035,0.857,1.139,65.19,-13.12,-270.42,3,3
18403.765,-0.0,0.913,1.099,58.44,-22.64,-264.78,3,3
18403.765,0.026,0.966,1.062,48.74,-26.95,-257.7,3,3
18403.781,0.048,0.991,1.031,37.78,-28.2,-249.55,3,3
18403.796,0.059,0.988,0.998,27.07,-27.07,-240.73,3,3
18403.796,0.05,0.99,0.97,16.21,-26.31,-232.06,3,3
18403.812,0.061,0.97,0.979,7.54,-20.63,-221.99,3,3
18403.828,0.057,0.887,0.97,4.94,-16.88,-205.48,3,3
18403.828,0.1,0.964,0.934,7.35,-15.81,-200.51,3,3
18403.843,0.079,0.927,0.908,10.19,-16.63,-201.82,3,3
18403.859,0.078,0.871,0.921,11.9,-16.17,-199.16,3,3
18403.859,0.05,0.925,0.905,20.29,-17.24,-198.16,3,3
18403.875,0.03,0.951,0.868,28.81,-21.24,-193.37,3,3
18403.875,0.044,1.018,0.829,28.41,-25.91,-185.43,3,3
18403.89,0.06,1.037,0.805,21.55,-27.47,-175.97,3,3
18403.906,0.071,1.006,0.787,13.64,-25.27,-163.34,3,3
18403.906,0.085,0.996,0.761,7.32,-24.08,-150.12,3,3
18403.921,0.104,0.97,0.737,3.05,-23.71,-139.62,3,3
18403.937,0.112,0.926,0.722,-1.37,-23.44,-131.63,3,3
18403.937,0.124,0.877,0.713,-5.43,-24.51,-126.93,3,3
18403.953,0.133,0.83,0.716,-6.23,-25.3,-125.55,3,3
18403.968,0.14,0.776,0.723,-1.98,-25.54,-126.16,3,3
18403.968,0.134,0.74,0.728,7.57,-25.67,-128.57,3,3
18403.984,0.113,0.743,0.726,21.39,-25.36,-129.89,3,3
18404.0,0.088,0.817,0.673,38.61,-27.86,-123.36,3,3
18404.015,0.098,0.848,0.666,39.25,-29.82,-117.59,3,3
18404.015,0.082,0.859,0.663,37.23,-30.49,-112.37,3,3
18404.031,0.078,0.845,0.676,31.53,-31.89,-103.12,3,3
18404.046,0.086,0.832,0.694,25.64,-33.48,-91.8,3,3
18404.062,0.109,0.797,0.693,21.27,-35.13,-81.12,3,3
18404.062,0.125,0.761,0.691,18.19,-36.41,-74.07,3,3
18404.078,0.131,0.714,0.69,18.01,-37.78,-70.47,3,3
18404.078,0.133,0.67,0.697,22.37,-39.74,-69.77,3,3
18404.093,0.125,0.646,0.696,31.34,-41.57,-70.96,3,3
18404.109,0.11,0.642,0.694,43.03,-43.34,-72.82,3,3
18404.109,0.094,0.649,0.684,54.81,-45.53,-74.53,3,3
18404.125,0.068,0.658,0.669,64.33,-48.62,-75.9,3,3
18404.14,0.047,0.666,0.653,71.32,-53.1,-75.23,3,3
18404.14,0.035,0.687,0.635,75.14,-57.01,-71.99,3,3
18404.156,0.044,0.702,0.618,74.04,-60.24,-66.5,3,3
18404.171,0.068,0.724,0.584,61.37,-60.61,-51.52,3,3
18404.187,0.081,0.716,0.574,54.26,-57.62,-43.18,3,3
18404.187,0.074,0.718,0.569,47.55,-52.64,-34.55,3,3
18404.203,0.068,0.72,0.587,41.81,-47.98,-25.64,3,3
18404.218,0.076,0.711,0.601,38.33,-44.01,-17.67,3,3
18404.218,0.072,0.704,0.612,35.89,-40.22,-11.47,3,3
18404.234,0.082,0.695,0.629,34.73,-36.59,-6.07,3,3
18404.25,0.101,0.679,0.653,35.16,-32.29,-0.64,3,3
18404.25,0.102,0.691,0.673,35.83,-27.68,4.64,3,3
18404.265,0.093,0.709,0.688,35.65,-24.14,9.43,3,3
18404.265,0.083,0.712,0.712,34.24,-21.67,14.22,3,3
18404.281,0.057,0.71,0.739,32.14,-20.72,19.1,3,3
18404.296,0.045,0.704,0.759,30.52,-22.13,24.35,3,3
18404.312,0.036,0.692,0.757,30.24,-24.45,30.27,3,3
18404.312,0.048,0.668,0.751,29.66,-26.09,37.39,3,3
18404.328,0.082,0.659,0.749,28.08,-25.64,44.71,3,3
18404.343,0.125,0.635,0.756,22.16,-16.51,55.6,3,3
18404.359,0.133,0.627,0.768,18.04,-9.74,58.75,3,3
18404.359,0.112,0.625,0.791,14.37,-3.3,59.94,3,3
18404.375,0.068,0.621,0.818,11.23,0.64,59.14,3,3
18404.39,0.012,0.613,0.853,8.48,-5.74,55.33,3,3
18404.39,-0.046,0.596,0.879,12.3,-14.71,53.99,3,3
18404.406,-0.097,0.576,0.886,17.64,-25.21,53.38,3,3
18404.406,-0.121,0.57,0.87,22.25,-34.82,52.95,3,3
18404.421,-0.078,0.593,0.801,23.56,-40.59,51.36,3,3
18404.437,-0.067,0.611,0.766,19.81,-41.69,48.01,3,3
18404.437,-0.071,0.607,0.75,13.25,-40.01,44.5,3,3
18404.453,-0.076,0.598,0.751,7.72,-36.77,41.75,3,3
18404.468,-0.089,0.601,0.762,4.73,-32.72,39.19,3,3
18404.468,-0.113,0.602,0.783,4.09,-29.76,36.35,3,3
18404.484,-0.136,0.603,0.808,5.31,-29.45,33.91,3,3
18404.484,-0.145,0.608,0.822,7.66,-31.8,32.56,3,3
18404.5,-0.139,0.616,0.814,9.55,-35.31,31.77,3,3
18404.515,-0.13,0.62,0.789,10.16,-38.76,30.46,3,3
18404.515,-0.117,0.623,0.762,8.15,-41.14,28.75,3,3
18404.531,-0.097,0.625,0.738,2.5,-41.47,27.44,3,3
18404.546,-0.076,0.622,0.718,-4.79,-38.64,26.55,3,3
18404.546,-0.062,0.62,0.711,-10.77,-33.48,26.64,3,3
18404.562,-0.057,0.619,0.713,-13.64,-27.92,28.08,3,3
18404.578,-0.051,0.62,0.718,-14.16,-23.1,30.09,3,3
18404.578,-0.044,0.628,0.724,-14.34,-20.02,31.71,3,3
18404.593,-0.031,0.653,0.732,-15.9,-18.22,32.99,3,3
18404.609,-0.008,0.675,0.739,-19.38,-16.94,34.27,3,3
18404.609,0.018,0.691,0.745,-24.57,-14.98,35.98,3,3
18404.625,0.036,0.699,0.752,-30.03,-11.51,37.9,3,3
18404.625,0.043,0.69,0.762,-34.3,-7.51,39.58,3,3
18404.64,0.054,0.678,0.782,-36.62,-3.57,40.89,3,3
18404.656,0.068,0.663,0.797,-36.5,0.09,41.57,3,3
18404.656,0.082,0.662,0.813,-33.97,3.33,40.96,3,3
18404.671,0.09,0.668,0.83,-29.54,5.65,38.33,3,3
18404.687,0.098,0.67,0.834,-24.41,6.26,34.09,3,3
18404.703,0.105,0.674,0.829,-19.35,5.65,28.81,3,3
18404.703,0.12,0.682,0.82,-14.5,4.61,23.53,3,3
18404.703,0.144,0.7,0.807,-9.86,4.7,18.98,3,3
18404.718,0.157,0.714,0.789,-6.04,6.78,15.69,3,3
18404.734,0.156,0.725,0.785,-3.57,9.34,13.73,3,3
18404.75,0.15,0.728,0.787,-2.75,11.2,12.85,3,3
18404.75,0.145,0.74,0.796,-6.93,11.47,12.15,3,3
18404.765,0.14,0.721,0.799,-13.43,9.49,10.59,3,3
18404.765,0.138,0.689,0.802,-17.76,6.81,8.91,3,3
18404.781,0.142,0.682,0.81,-18.4,4.79,8.36,3,3
18404.796,0.149,0.678,0.813,-14.65,3.6,8.45,3,3
18404.812,0.153,0.673,0.806,-8.94,3.63,9.55,3,3
18404.812,0.163,0.675,0.793,-5.19,4.91,12.82,3,3
18404.828,0.171,0.672,0.783,-5.74,7.02,16.88,3,3
18404.828,0.168,0.648,0.763,-10.47,9.43,21.0,3,3
18404.843,0.166,0.619,0.763,-17.37,11.23,24.87,3,3
18404.859,0.176,0.583,0.757,-22.0,12.97,27.41,3,3
18404.859,0.17,0.555,0.753,-25.51,15.87,28.29,3,3
18404.875,0.171,0.545,0.75,-28.78,19.04,28.53,3,3
18404.875,0.181,0.521,0.751,-31.5,22.16,28.57,3,3
18404.89,0.171,0.506,0.756,-34.55,25.82,27.56,3,3
18404.906,0.158,0.495,0.775,-37.39,29.05,25.57,3,3
18404.906,0.149,0.485,0.808,-39.03,31.59,23.35,3,3
18404.921,0.143,0.475,0.829,-39.37,33.39,20.26,3,3
18404.937,0.144,0.485,0.847,-37.66,33.85,16.97,3,3
18404.937,0.132,0.494,0.87,-32.81,33.23,13.89,3,3
18404.953,0.119,0.49,0.88,-25.06,32.04,10.65,3,3
18404.968,0.125,0.496,0.883,-17.82,30.12,7.35,3,3
18404.968,0.135,0.536,0.858,-13.98,29.27,3.14,3,3
18404.984,0.133,0.557,0.86,-13.37,29.79,0.15,3,3
18404.984,0.152,0.552,0.863,-14.62,28.99,-2.84,3,3
18405.0,0.136,0.557,0.858,-16.75,31.1,-5.22,3,3
18405.015,0.138,0.551,0.843,-17.49,31.89,-7.2,3,3
18405.031,0.138,0.519,0.853,-13.98,35.43,-9.64,3,3
18405.031,0.091,0.54,0.852,-6.87,34.52,-13.49,3,3
18405.046,0.114,0.609,0.844,-2.47,34.15,-11.63,3,3
18405.046,0.112,0.585,0.818,-0.06,35.83,-11.11,3,3
18405.062,0.078,0.568,0.822,-5.52,37.45,-12.42,3,3
18405.078,0.089,0.579,0.829,-8.15,36.59,-10.25,3,3
18405.078,0.09,0.577,0.836,-8.61,36.41,-9.22,3,3
18405.093,0.08,0.565,0.846,-9.16,36.53,-9.13,3,3
18405.109,0.043,0.573,0.88,-9.55,35.77,-9.31,3,3
18405.109,0.001,0.568,0.901,-7.02,31.74,-8.12,3,3
18405.125,0.004,0.567,0.899,-4.52,24.81,-4.58,3,3
18405.125,0.012,0.569,0.889,-2.66,18.59,-2.93,3,3
18405.14,0.027,0.556,0.87,-1.01,13.55,-2.04,3,3
18405.156,0.054,0.56,0.843,0.18,11.11,-1.68,3,3
18405.156,0.062,0.563,0.825,-0.52,11.99,-1.19,3,3
18405.171,0.068,0.545,0.812,-3.48,14.47,-0.34,3,3
18405.187,0.056,0.519,0.801,-8.67,16.79,-1.1,3,3
18405.187,0.047,0.503,0.803,-13.95,19.1,-1.95,3,3
18405.203,0.035,0.486,0.825,-16.48,20.17,-2.62,3,3
18405.218,0.03,0.469,0.841,-17.33,19.96,-3.23,3,3
18405.218,0.032,0.463,0.861,-16.79,18.43,-4.15,3,3
18405.234,0.032,0.462,0.871,-14.25,16.51,-5.77,3,3
18405.25,0.023,0.449,0.876,-12.12,13.76,-7.14,3,3
18405.25,0.048,0.457,0.876,-10.25,10.68,-8.51,3,3
18405.265,0.049,0.475,0.888,-8.45,10.28,-9.92,3,3
18405.265,0.045,0.486,0.894,-7.93,10.96,-10.47,3,3
18405.281,0.04,0.503,0.904,-8.51,11.66,-9.16,3,3
18405.296,0.01,0.498,0.91,-8.0,10.86,-8.39,3,3
18405.296,-0.019,0.483,0.909,-5.74,7.75,-7.2,3,3
18405.312,-0.021,0.489,0.905,-3.27,2.75,-5.55,3,3
18405.328,-0.014,0.491,0.89,-1.95,-1.65,-4.91,3,3
18405.328,-0.004,0.493,0.876,-2.75,-5.19,-5.07,3,3
18405.343,0.012,0.494,0.868,-4.0,-6.65,-5.49,3,3
18405.359,0.019,0.497,0.855,-4.85,-5.46,-5.95,3,3
18405.359,0.022,0.499,0.855,-6.07,-2.59,-6.16,3,3
18405.375,0.016,0.498,0.855,-8.79,1.86,-5.58,3,3
18405.375,0.015,0.5,0.856,-9.61,2.62,-5.83,3,3
18405.39,0.021,0.506,0.868,-9.58,1.89,-5.34,3,3
18405.406,0.016,0.473,0.885,-8.94,-1.37,-2.53,3,3
18405.406,0.028,0.47,0.873,-7.26,-2.78,-1.86,3,3
18405.421,0.027,0.471,0.868,-6.29,-3.17,-1.8,3,3
18405.437,0.031,0.468,0.863,-5.13,-3.75,-1.16,3,3
18405.437,0.031,0.474,0.86,-4.43,-3.91,-1.01,3,3
18405.453,0.021,0.484,0.858,-4.58,-3.91,-1.19,3,3
18405.468,0.017,0.489,0.864,-5.68,-4.91,-1.31,3,3
18405.468,0.018,0.483,0.864,-6.96,-6.16,-1.34,3,3
18405.484,0.026,0.466,0.859,-8.55,-7.14,-2.26,3,3
18405.5,0.033,0.446,0.86,-10.22,-7.75,-4.09,3,3
18405.5,0.035,0.438,0.862,-12.02,-7.6,-6.35,3,3
18405.515,0.045,0.431,0.889,-12.79,-6.35,-8.7,3,3
18405.515,0.036,0.434,0.942,-9.52,-5.1,-10.8,3,3
18405.531,0.006,0.456,0.95,-1.28,-3.45,-10.71,3,3
18405.546,-0.01,0.484,0.947,5.83,-3.97,-6.9,3,3
18405.546,-0.009,0.485,0.924,9.98,-6.04,-4.03,3,3
18405.562,-0.017,0.49,0.892,10.35,-7.32,-2.62,3,3
18405.578,-0.013,0.481,0.867,8.91,-8.97,-1.25,3,3
18405.578,-0.003,0.483,0.855,7.08,-9.7,0.55,3,3
18405.593,0.013,0.482,0.843,4.91,-9.83,1.98,3,3
18405.609,0.028,0.484,0.84,2.26,-9.28,2.9,3,3
18405.609,0.041,0.476,0.853,-0.31,-8.51,2.9,3,3
18405.625,0.044,0.47,0.875,-2.11,-8.0,1.89,3,3
18405.64,0.032,0.463,0.895,-2.72,-8.85,0.43,3,3
18405.64,0.036,0.453,0.881,-2.29,-11.93,-0.7,3,3
18405.656,0.046,0.45,0.892,-2.69,-13.98,-1.8,3,3
18405.656,0.072,0.444,0.89,-0.31,-16.11,-4.61,3,3
18405.671,0.063,0.44,0.875,3.11,-13.15,-6.96,3,3
18405.687,0.07,0.456,0.854,5.77,-11.9,-7.35,3,3
18405.703,0.063,0.465,0.824,6.96,-9.4,-8.45,3,3
18405.703,0.05,0.487,0.833,5.95,-6.23,-8.42,3,3
18405.718,0.044,0.508,0.845,4.06,-4.33,-7.14,3,3
18405.718,0.034,0.523,0.846,1.46,-3.78,-5.28,3,3
18405.734,0.034,0.518,0.86,-1.13,-3.51,-2.99,3,3
18405.75,0.027,0.502,0.869,-2.81,-3.72,-1.1,3,3
18405.75,0.025,0.494,0.872,-5.34,-4.82,-0.03,3,3
18405.765,0.024,0.477,0.866,-7.14,-6.32,0.46,3,3
18405.781,0.038,0.461,0.879,-7.05,-6.87,1.34,3,3
18405.781,0.025,0.452,0.898,-4.39,-7.45,1.68,3,3
18405.796,0.016,0.455,0.895,-1.59,-9.16,2.5,3,3
18405.796,0.029,0.45,0.891,-0.12,-11.2,3.3,3,3
18405.812,0.045,0.461,0.88,1.43,-11.87,3.54,3,3
18405.828,0.055,0.474,0.87,2.47,-11.02,4.0,3,3
18405.828,0.067,0.474,0.86,2.53,-9.13,4.33,3,3
18405.843,0.076,0.473,0.849,2.11,-6.93,4.33,3,3
18405.843,0.079,0.471,0.84,0.67,-4.52,4.0,3,3
18405.875,0.071,0.469,0.863,-3.45,-1.4,2.04,3,3
18405.875,0.061,0.471,0.882,-3.05,-1.34,1.59,3,3
18405.89,0.058,0.468,0.871,-1.98,-1.89,1.83,3,3
18405.906,0.06,0.458,0.869,-2.26,-2.32,1.62,3,3
18405.921,0.068,0.459,0.871,-2.2,-1.89,1.1,3,3
18405.921,0.071,0.468,0.873,-0.85,0.18,1.37,3,3
18405.937,0.068,0.467,0.872,1.31,2.2,1.92,3,3
18405.937,0.065,0.469,0.865,3.33,4.09,2.32,3,3
18405.953,0.062,0.468,0.862,4.21,4.91,2.23,3,3
18405.968,0.063,0.466,0.857,3.97,5.58,1.62,3,3
18405.968,0.053,0.469,0.858,3.42,6.5,0.73,3,3
18405.984,0.043,0.466,0.863,3.63,7.26,0.85,3,3
18405.984,0.05,0.469,0.86,4.36,7.26,2.04,3,3
18406.0,0.057,0.482,0.855,5.71,9.0,3.88,3,3
18406.015,0.053,0.469,0.871,8.18,11.99,6.35,3,3
18406.015,0.046,0.459,0.875,12.97,14.8,9.77,3,3
18406.046,0.053,0.527,0.844,18.25,20.26,17.55,3,3
18406.046,0.05,0.509,0.844,13.73,21.0,16.79,3,3
18406.062,0.051,0.501,0.838,8.82,20.33,14.89,3,3
18406.078,0.052,0.494,0.837,4.55,19.75,12.51,3,3
18406.093,0.046,0.484,0.846,0.12,19.81,9.49,3,3
18406.093,0.026,0.479,0.87,-4.61,19.14,6.56,3,3
18406.093,0.022,0.477,0.889,-6.81,16.97,5.49,3,3
18406.109,0.05,0.477,0.899,-4.88,15.38,6.07,3,3
18406.125,0.032,0.464,0.903,0.7,16.97,6.26,3,3
18406.125,0.009,0.462,0.887,5.92,17.12,6.9,3,3
18406.14,-0.006,0.476,0.871,7.2,15.35,6.96,3,3
18406.156,-0.007,0.487,0.863,4.61,12.63,6.29,3,3
18406.156,0.002,0.499,0.863,0.73,9.16,5.86,3,3
18406.171,0.011,0.492,0.865,-2.23,6.13,4.85,3,3
18406.187,0.026,0.494,0.857,-4.09,4.73,4.36,3,3
18406.187,0.029,0.495,0.851,-4.97,4.73,3.94,3,3
18406.218,0.027,0.487,0.845,-7.51,6.23,2.72,3,3
18406.218,0.03,0.49,0.854,-8.0,7.87,3.05,3,3
18406.234,0.018,0.485,0.875,-7.2,9.16,3.23,3,3
18406.234,0.004,0.479,0.882,-5.62,8.79,3.72,3,3
18406.25,0.0,0.485,0.879,-4.7,7.75,4.88,3,3
18406.265,-0.002,0.487,0.887,-5.58,6.16,4.85,3,3
18406.265,-0.007,0.473,0.892,-7.05,3.3,4.06,3,3
18406.281,0.006,0.464,0.885,-8.12,0.37,3.72,3,3
18406.296,0.017,0.458,0.877,-7.72,-0.7,3.33,3,3
18406.296,0.021,0.45,0.874,-6.35,-0.67,3.05,3,3
18406.312,0.032,0.451,0.87,-5.19,-0.18,2.56,3,3
18406.328,0.037,0.449,0.88,-4.61,0.49,1.25,3,3
18406.328,0.028,0.446,0.883,-2.93,0.79,-0.34,3,3
18406.343,0.021,0.452,0.88,-1.37,0.64,-1.53,3,3
18406.359,0.015,0.462,0.875,0.64,0.15,-2.5,3,3
18406.359,0.008,0.476,0.876,0.37,-0.58,-2.08,3,3
18406.375,0.002,0.485,0.882,0.18,-1.59,-1.19,3,3
18406.375,0.001,0.483,0.881,0.12,-2.01,0.15,3,3
18406.39,0.001,0.477,0.871,-0.37,-2.53,1.07,3,3
18406.406,0.005,0.47,0.869,-0.95,-2.96,1.62,3,3
18406.406,0.011,0.466,0.87,-1.04,-3.2,1.89,3,3
18406.421,0.014,0.465,0.876,-0.76,-3.54,1.98,3,3
18406.437,0.014,0.467,0.88,-0.27,-3.85,1.86,3,3
18406.453,0.015,0.471,0.88,0.24,-4.67,1.68,3,3
18406.453,0.01,0.476,0.883,0.79,-5.55,1.59,3,3
18406.468,0.005,0.485,0.891,1.1,-7.23,1.8,3,3
18406.468,-0.008,0.488,0.902,1.04,-9.74,2.66,3,3
18406.484,-0.012,0.486,0.903,0.98,-13.06,4.21,3,3
18406.5,-0.017,0.491,0.916,0.7,-17.33,6.07,3,3
18406.5,-0.01,0.49,0.915,1.01,-21.91,7.97,3,3
18406.515,-0.011,0.48,0.925,0.82,-26.67,9.31,3,3
18406.515,0.003,0.472,0.913,1.71,-31.19,10.53,3,3
18406.531,0.009,0.47,0.898,1.77,-34.39,10.68,3,3
18406.546,0.017,0.47,0.899,1.34,-37.17,10.83,3,3
18406.546,0.028,0.467,0.892,1.83,-39.55,11.57,3,3
18406.562,0.038,0.469,0.893,2.5,-41.9,11.81,3,3
18406.578,0.04,0.479,0.9,2.53,-44.47,11.32,3,3
18406.578,0.043,0.484,0.906,1.68,-48.4,10.56,3,3
18406.593,0.058,0.481,0.897,0.85,-52.67,10.41,3,3
18406.609,0.084,0.472,0.873,0.95,-55.12,11.2,3,3
18406.609,0.113,0.466,0.857,1.59,-54.66,11.72,3,3
18406.625,0.124,0.474,0.863,2.08,-51.76,11.66,3,3
18406.64,0.121,0.473,0.857,1.74,-49.62,11.2,3,3
18406.64,0.135,0.466,0.839,0.98,-48.59,11.11,3,3
18406.656,0.162,0.459,0.832,0.43,-46.82,10.8,3,3
18406.656,0.186,0.45,0.824,-0.15,-43.24,9.22,3,3
18406.671,0.204,0.443,0.818,-1.04,-38.85,7.14,3,3
18406.687,0.221,0.431,0.823,-2.38,-34.42,4.27,3,3
18406.687,0.226,0.415,0.841,-1.89,-30.0,0.12,3,3
18406.703,0.224,0.403,0.855,1.4,-25.21,-4.0,3,3
18406.718,0.221,0.407,0.855,6.26,-20.72,-7.54,3,3
18406.718,0.214,0.416,0.853,10.1,-17.3,-11.32,3,3
18406.734,0.197,0.425,0.853,11.78,-15.05,-15.59,3,3
18406.75,0.186,0.44,0.855,12.18,-13.25,-18.74,3,3
18406.75,0.177,0.455,0.856,12.3,-12.45,-20.84,3,3
18406.765,0.172,0.464,0.851,12.12,-12.15,-22.22,3,3
18406.765,0.179,0.481,0.855,11.26,-12.33,-23.41,3,3
18406.781,0.172,0.498,0.863,11.38,-11.69,-24.84,3,3
18406.796,0.157,0.508,0.873,12.54,-11.57,-25.73,3,3
18406.796,0.149,0.518,0.88,13.18,-13.4,-26.09,3,3
18406.812,0.139,0.526,0.877,12.02,-16.85,-27.04,3,3
18406.828,0.124,0.539,0.868,7.81,-22.37,-28.81,3,3
18406.828,0.133,0.552,0.864,-1.25,-28.23,-30.12,3,3
18406.843,0.151,0.533,0.864,-12.39,-33.23,-32.93,3,3
18406.859,0.145,0.488,0.845,-20.66,-36.19,-35.98,3,3
18406.859,0.162,0.462,0.849,-23.53,-37.02,-37.14,3,3
18406.875,0.16,0.455,0.849,-17.49,-34.12,-35.71,3,3
18406.89,0.136,0.463,0.822,-9.13,-28.81,-33.75,3,3
18406.89,0.107,0.475,0.843,-8.91,-24.54,-31.22,3,3
18406.906,0.091,0.474,0.87,-8.88,-26.09,-27.53,3,3
18406.906,0.103,0.5,0.872,-7.66,-29.57,-22.4,3,3
18406.921,0.124,0.505,0.851,-6.99,-32.78,-18.04,3,3
18406.937,0.149,0.494,0.822,-9.06,-34.21,-16.72,3,3
18406.937,0.167,0.475,0.799,-12.57,-33.57,-18.16,3,3
18406.953,0.174,0.461,0.79,-14.98,-30.92,-20.11,3,3
18406.968,0.176,0.455,0.794,-16.24,-27.13,-21.33,3,3
18406.968,0.178,0.45,0.808,-17.64,-24.54,-22.37,3,3
18406.984,0.178,0.449,0.817,-19.26,-22.92,-23.56,3,3
18407.0,0.182,0.447,0.822,-21.24,-22.0,-24.93,3,3
18407.0,0.183,0.442,0.825,-22.83,-21.06,-26.76,3,3
18407.015,0.181,0.448,0.824,-23.16,-19.99,-28.32,3,3
18407.015,0.184,0.458,0.831,-23.1,-19.56,-29.02,3,3
18407.031,0.19,0.455,0.834,-22.86,-19.53,-29.57,3,3
18407.046,0.197,0.449,0.832,-20.11,-18.83,-28.32,3,3
18407.062,0.218,0.467,0.825,-11.9,-14.25,-23.5,3,3
18407.078,0.219,0.478,0.822,-10.9,-12.05,-22.16,3,3
18407.093,0.216,0.475,0.825,-11.35,-10.56,-21.27,3,3
18407.093,0.22,0.468,0.826,-11.23,-9.92,-19.99,3,3
18407.109,0.229,0.471,0.82,-10.8,-8.85,-18.37,3,3
18407.109,0.238,0.47,0.808,-10.59,-6.81,-17.43,3,3
18407.125,0.243,0.455,0.802,-10.5,-4.55,-17.27,3,3
18407.14,0.248,0.45,0.82,-8.15,-2.04,-16.82,3,3
18407.14,0.248,0.482,0.834,-2.17,0.7,-15.26,3,3
18407.156,0.252,0.521,0.853,2.5,2.11,-12.97,3,3
18407.156,0.252,0.553,0.877,3.66,1.4,-10.44,3,3
18407.171,0.253,0.577,0.894,1.89,-0.24,-7.29,3,3
18407.187,0.242,0.575,0.896,-0.09,-2.99,-3.2,3,3
18407.187,0.235,0.56,0.885,-1.53,-5.74,-0.03,3,3
18407.203,0.22,0.519,0.846,-2.32,-6.96,1.04,3,3
18407.218,0.204,0.477,0.824,-4.46,-7.42,0.27,3,3
18407.234,0.187,0.439,0.822,-6.26,-5.13,-0.76,3,3
18407.234,0.167,0.438,0.841,-7.51,-4.21,-0.82,3,3
18407.25,0.154,0.44,0.877,-11.6,-5.58,-1.65,3,3
18407.265,0.145,0.442,0.914,-14.95,-9.28,-2.72,3,3
18407.281,0.153,0.442,0.932,-15.69,-14.22,-2.2,3,3
18407.281,0.192,0.425,0.937,-16.75,-18.4,-2.01,3,3
18407.296,0.219,0.394,0.933,-16.51,-20.97,-4.3,3,3
18407.296,0.223,0.372,0.899,-8.88,-19.38,-5.13,3,3
18407.312,0.221,0.38,0.869,-1.74,-15.81,-5.49,3,3
18407.328,0.203,0.396,0.85,1.01,-13.06,-7.81,3,3
18407.328,0.199,0.399,0.858,-0.37,-12.57,-10.77,3,3
18407.343,0.202,0.412,0.865,-1.13,-13.34,-12.94,3,3
18407.359,0.212,0.427,0.867,-1.65,-13.37,-13.4,3,3
18407.359,0.223,0.44,0.873,-1.04,-13.0,-13.7,3,3
18407.375,0.221,0.457,0.862,-0.06,-12.48,-13.4,3,3
18407.375,0.226,0.462,0.85,-0.46,-12.18,-13.21,3,3
18407.406,0.24,0.454,0.812,-3.27,-9.46,-13.86,3,3
18407.406,0.243,0.449,0.804,-3.11,-5.86,-12.82,3,3
18407.421,0.239,0.472,0.822,-2.35,-1.62,-10.74,3,3
18407.437,0.221,0.494,0.844,-1.62,1.59,-7.93,3,3
18407.437,0.201,0.494,0.866,-4.03,1.92,-5.62,3,3
18407.453,0.197,0.485,0.881,-8.27,0.09,-3.85,3,3
18407.468,0.193,0.463,0.868,-8.79,-1.1,-2.01,3,3
18407.468,0.19,0.446,0.868,-8.51,-1.37,-0.89,3,3
18407.484,0.194,0.429,0.882,-8.94,-2.41,-0.76,3,3
18407.5,0.198,0.422,0.889,-9.22,-3.66,-0.61,3,3
18407.5,0.202,0.417,0.895,-8.45,-4.46,-0.64,3,3
18407.515,0.203,0.414,0.895,-7.39,-5.4,-1.25,3,3
18407.515,0.205,0.405,0.884,-6.38,-6.13,-2.17,3,3
18407.531,0.211,0.39,0.887,-6.87,-6.71,-4.33,3,3
18407.546,0.22,0.384,0.878,-5.16,-7.48,-6.5,3,3
18407.546,0.232,0.396,0.868,-2.5,-6.65,-7.17,3,3
18407.578,0.218,0.429,0.878,-0.79,-5.04,-9.7,3,3
18407.578,0.213,0.432,0.879,-1.16,-6.32,-10.44,3,3
18407.593,0.212,0.436,0.866,-1.34,-7.35,-10.41,3,3
18407.609,0.215,0.436,0.849,-1.1,-7.14,-10.1,3,3
18407.609,0.221,0.438,0.835,-1.89,-6.1,-9.83,3,3
18407.625,0.229,0.435,0.831,-3.36,-4.52,-9.74,3,3
18407.64,0.235,0.437,0.832,-4.21,-2.38,-9.52,3,3
18407.64,0.238,0.436,0.833,-3.91,0.46,-8.91,3,3
18407.656,0.238,0.425,0.841,-2.75,3.6,-8.24,3,3
18407.656,0.239,0.418,0.842,-1.59,6.29,-7.93,3,3
18407.671,0.236,0.413,0.84,-1.22,8.79,-7.93,3,3
18407.687,0.218,0.43,0.872,-2.9,10.56,-8.42,3,3
18407.687,0.201,0.449,0.904,-3.63,10.22,-8.64,3,3
18407.703,0.22,0.418,0.89,1.31,9.83,-7.08,3,3
18407.718,0.113,0.421,0.933,6.93,10.07,-5.89,3,3
18407.718,0.162,0.543,0.978,-5.01,0.64,-4.36,3,3
18407.75,0.171,0.449,0.871,5.16,-4.7,0.46,3,3
18407.75,0.192,0.446,0.838,4.43,-5.31,1.4,3,3
18407.765,0.206,0.427,0.83,1.53,-4.39,1.46,3,3
18407.781,0.213,0.434,0.852,-1.37,-2.72,1.28,3,3
18407.781,0.197,0.44,0.879,-1.28,-2.08,1.16,3,3
18407.796,0.192,0.44,0.897,0.4,-2.93,1.77,3,3
18407.796,0.189,0.44,0.909,2.75,-4.18,2.44,3,3
18407.812,0.179,0.442,0.918,6.5,-5.43,3.94,3,3
18407.828,0.176,0.44,0.902,9.03,-6.9,6.65,3,3
18407.828,0.188,0.432,0.871,10.28,-8.03,8.18,3,3
18407.843,0.199,0.426,0.846,9.25,-7.75,8.55,3,3
18407.859,0.187,0.438,0.863,5.01,-7.84,8.0,3,3
18407.859,0.243,0.48,0.848,-1.13,-9.34,7.87,3,3
18407.875,0.255,0.344,0.766,9.43,-3.48,8.97,3,3
18407.875,0.256,0.45,0.81,2.93,1.4,7.35,3,3
18407.89,0.249,0.452,0.863,-1.07,3.11,4.58,3,3
18407.906,0.219,0.426,0.894,0.34,3.3,3.3,3,3
18407.906,0.222,0.457,0.902,0.7,0.76,3.85,3,3
18407.921,0.222,0.439,0.881,1.83,-1.07,3.14,3,3
18407.937,0.217,0.431,0.87,2.11,-2.01,1.31,3,3
18407.937,0.205,0.443,0.868,2.44,-2.2,0.73,3,3
18407.953,0.204,0.442,0.861,2.23,-2.75,1.68,3,3
18407.953,0.214,0.436,0.848,1.83,-2.53,2.44,3,3
18407.968,0.22,0.433,0.84,1.92,-1.4,2.32,3,3
18407.984,0.217,0.434,0.845,0.58,0.03,1.56,3,3
18408.0,0.221,0.438,0.852,-1.46,0.85,0.89,3,3
18408.0,0.224,0.433,0.852,-2.04,1.68,0.55,3,3
18408.015,0.217,0.428,0.861,-1.46,2.69,0.12,3,3
18408.015,0.204,0.436,0.882,-1.07,2.75,-0.21,3,3
18408.031,0.197,0.451,0.903,-1.13,0.95,0.15,3,3
18408.046,0.208,0.443,0.901,-0.55,-1.34,1.1,3,3
18408.046,0.203,0.436,0.886,1.74,-2.38,1.43,3,3
18408.062,0.195,0.442,0.875,3.42,-2.99,1.68,3,3
18408.078,0.202,0.446,0.86,2.81,-4.15,2.35,3,3
18408.093,0.233,0.442,0.83,-0.34,-3.45,3.14,3,3
18408.093,0.24,0.439,0.834,-1.19,-1.25,3.11,3,3
18408.109,0.238,0.436,0.842,-2.35,0.52,2.32,3,3
18408.125,0.236,0.429,0.848,-3.57,1.37,1.25,3,3
18408.125,0.237,0.422,0.85,-3.48,2.29,0.43,3,3
18408.14,0.225,0.425,0.861,-1.89,3.45,-0.15,3,3
18408.156,0.209,0.431,0.887,-2.17,3.2,-1.13,3,3
18408.156,0.204,0.427,0.903,-2.9,1.25,-1.71,3,3
18408.171,0.201,0.422,0.901,-1.19,-0.15,-1.83,3,3
18408.187,0.191,0.423,0.902,1.98,-1.1,-1.8,3,3
18408.187,0.185,0.44,0.899,3.2,-2.9,-1.25,3,3
18408.203,0.199,0.445,0.883,3.02,-5.04,-0.09,3,3
18408.218,0.211,0.445,0.859,3.17,-5.83,0.58,3,3
18408.218,0.218,0.449,0.842,2.59,-5.04,1.13,3,3
18408.234,0.227,0.447,0.83,1.68,-4.0,1.74,3,3
18408.234,0.236,0.449,0.826,0.15,-2.32,2.44,3,3
18408.265,0.236,0.425,0.844,-2.66,1.92,1.16,3,3
18408.265,0.22,0.434,0.867,-2.66,3.3,0.67,3,3
18408.281,0.209,0.438,0.897,-3.23,2.26,0.27,3,3
18408.296,0.203,0.431,0.912,-2.69,-0.21,-0.31,3,3
18408.312,0.197,0.423,0.907,-0.24,-2.44,-0.43,3,3
18408.312,0.207,0.424,0.887,2.01,-4.06,-0.09,3,3
18408.328,0.21,0.425,0.866,2.2,-4.73,-0.61,3,3
18408.328,0.211,0.428,0.856,1.1,-4.61,-0.12,3,3
18408.343,0.221,0.437,0.854,0.27,-3.75,0.09,3,3
18408.359,0.231,0.443,0.845,0.03,-2.23,-0.21,3,3
18408.359,0.236,0.44,0.845,-0.95,-0.85,-0.31,3,3
18408.375,0.23,0.438,0.854,-1.34,0.03,-0.49,3,3
18408.375,0.225,0.437,0.867,-1.74,0.18,-0.34,3,3
18408.39,0.225,0.434,0.876,-1.68,-0.09,-0.49,3,3
18408.406,0.219,0.429,0.875,-1.4,-0.67,-1.07,3,3
18408.406,0.213,0.425,0.871,-0.95,-0.95,-1.68,3,3
18408.437,0.214,0.43,0.872,0.09,-0.92,-1.98,3,3
18408.437,0.213,0.438,0.871,0.4,-0.98,-1.83,3,3
18408.453,0.211,0.441,0.871,0.55,-1.31,-1.62,3,3
18408.468,0.213,0.443,0.867,0.73,-1.74,-1.22,3,3
18408.468,0.218,0.443,0.862,0.58,-1.8,-0.7,3,3
18408.484,0.219,0.443,0.863,0.15,-1.62,-0.12,3,3
18408.484,0.215,0.442,0.869,-0.37,-1.59,0.4,3,3
18408.5,0.218,0.438,0.869,-1.07,-2.17,0.7,3,3
18408.515,0.223,0.438,0.869,-1.5,-2.72,0.82,3,3
18408.531,0.225,0.431,0.862,-1.25,-2.84,0.79,3,3
18408.531,0.227,0.428,0.864,-0.89,-2.47,0.67,3,3
18408.546,0.224,0.425,0.864,-0.31,-2.17,0.58,3,3
18408.546,0.226,0.425,0.86,-0.09,-2.01,0.58,3,3
18408.562,0.228,0.428,0.859,-0.06,-1.56,-0.09,3,3
18408.578,0.225,0.434,0.866,0.03,-1.22,-0.82,3,3
18408.578,0.218,0.439,0.876,0.34,-0.92,-1.07,3,3
18408.593,0.204,0.441,0.883,0.7,-1.34,-1.01,3,3
18408.609,0.196,0.439,0.879,0.43,-2.53,-0.67,3,3
18408.609,0.207,0.443,0.875,0.0,-4.43,0.21,3,3
18408.625,0.216,0.446,0.872,-0.73,-4.91,1.16,3,3
18408.625,0.225,0.44,0.864,-1.1,-4.94,1.86,3,3
18408.64,0.232,0.435,0.852,-0.85,-4.7,2.47,3,3
18408.656,0.236,0.425,0.841,-1.01,-3.72,2.26,3,3
18408.656,0.242,0.422,0.839,-1.86,-2.56,1.5,3,3
18408.671,0.243,0.414,0.841,-2.29,-0.98,0.34,3,3
18408.687,0.247,0.413,0.852,-1.83,0.7,-0.79,3,3
18408.687,0.247,0.402,0.868,0.37,2.69,-2.14,3,3
18408.703,0.242,0.397,0.863,3.05,4.91,-3.81,3,3
18408.718,0.231,0.397,0.877,6.04,5.8,-5.83,3,3
18408.718,0.226,0.426,0.893,2.62,4.85,-7.6,3,3
18408.734,0.238,0.402,0.85,1.16,3.45,-9.19,3,3
18408.75,0.233,0.401,0.835,-0.67,4.46,-12.09,3,3
18408.75,0.245,0.428,0.794,-3.63,6.59,-14.8,3,3
18408.765,0.265,0.34,0.741,-0.79,14.22,-17.3,3,3
18408.765,0.146,0.494,0.866,-14.5,16.42,-22.03,3,3
18408.781,0.177,0.573,0.963,-27.25,10.96,-19.53,3,3
18408.796,0.13,0.504,0.984,-13.37,5.43,-12.97,3,3
18408.796,0.141,0.536,0.969,-5.83,-0.03,-2.32,3,3
18408.812,0.165,0.491,0.902,-0.4,-4.09,4.06,3,3
18408.828,0.174,0.426,0.863,-0.61,-5.86,5.68,3,3
18408.828,0.188,0.404,0.855,-1.95,-6.65,6.07,3,3
18408.843,0.193,0.405,0.873,-0.64,-6.32,7.39,3,3
18408.859,0.202,0.409,0.898,1.46,-6.23,8.3,3,3
18408.859,0.205,0.413,0.923,3.39,-7.6,7.57,3,3
18408.875,0.199,0.42,0.938,6.53,-10.01,6.62,3,3
18408.875,0.198,0.417,0.924,9.13,-13.34,7.17,3,3
18408.89,0.198,0.422,0.903,8.97,-16.72,7.39,3,3
18408.906,0.198,0.486,0.882,5.25,-19.87,7.87,3,3
18408.906,0.27,0.387,0.787,12.6,-17.15,10.56,3,3
18408.921,0.228,0.394,0.774,15.9,-10.56,10.32,3,3
18408.937,0.254,0.477,0.816,4.36,-8.09,10.07,3,3
18408.937,0.237,0.431,0.85,-0.03,-6.47,8.0,3,3
18408.953,0.247,0.414,0.83,1.46,-4.85,7.26,3,3
18408.968,0.253,0.434,0.849,2.2,-2.72,6.13,3,3
18408.968,0.236,0.451,0.873,0.37,-1.5,5.31,3,3
18408.984,0.236,0.432,0.878,1.1,-2.44,5.55,3,3
18408.984,0.238,0.434,0.861,2.04,-3.08,6.2,3,3
18409.0,0.249,0.429,0.842,1.77,-2.99,5.83,3,3
18409.015,0.258,0.419,0.832,0.95,-1.53,4.61,3,3
18409.015,0.26,0.409,0.817,0.61,0.73,2.56,3,3
18409.031,0.267,0.408,0.813,-0.37,3.57,0.64,3,3
18409.046,0.271,0.401,0.821,-0.92,7.08,-1.83,3,3
18409.046,0.285,0.383,0.821,0.79,11.57,-4.58,3,3
18409.062,0.282,0.37,0.821,4.43,16.69,-8.0,3,3
18409.078,0.237,0.373,0.85,3.81,20.54,-12.6,3,3
18409.078,0.209,0.448,0.922,-9.37,17.79,-16.85,3,3
18409.093,0.245,0.435,0.891,-12.67,12.6,-19.93,3,3
18409.109,0.217,0.308,0.848,-1.53,14.01,-22.28,3,3
18409.109,0.142,0.553,0.976,-13.76,10.99,-24.99,3,3
18409.125,0.138,0.535,0.994,-6.62,3.48,-19.65,3,3
18409.125,0.115,0.481,0.944,5.86,-2.56,-10.38,3,3
18409.14,0.154,0.51,0.888,6.65,-6.41,-2.78,3,3
18409.156,0.155,0.475,0.843,7.29,-6.07,0.61,3,3
18409.171,0.169,0.46,0.843,4.39,-6.35,3.27,3,3
18409.171,0.198,0.467,0.86,2.01,-6.71,6.78,3,3
18409.187,0.209,0.455,0.88,1.89,-6.35,9.46,3,3
18409.187,0.204,0.43,0.876,3.78,-6.13,10.07,3,3
18409.203,0.209,0.415,0.871,5.34,-7.23,9.19,3,3
18409.218,0.222,0.415,0.875,5.71,-8.51,8.18,3,3
18409.218,0.218,0.431,0.884,5.92,-9.16,7.81,3,3
18409.234,0.221,0.424,0.871,6.53,-9.86,7.87,3,3
18409.25,0.213,0.425,0.877,6.59,-10.35,7.23,3,3
18409.25,0.197,0.483,0.909,2.66,-13.31,6.59,3,3
18409.265,0.269,0.412,0.823,7.6,-13.46,8.3,3,3
18409.265,0.233,0.382,0.783,14.5,-8.36,8.18,3,3
18409.296,0.246,0.44,0.829,2.75,-4.85,6.32,3,3
18409.312,0.258,0.434,0.824,1.28,-2.75,6.07,3,3
18409.312,0.259,0.457,0.833,2.23,1.92,5.13,3,3
18409.328,0.244,0.453,0.846,3.2,2.14,5.62,3,3
18409.328,0.231,0.45,0.868,4.36,1.5,6.9,3,3
18409.343,0.238,0.452,0.86,5.1,0.95,8.15,3,3
18409.359,0.221,0.455,0.866,5.28,1.25,8.36,3,3
18409.359,0.216,0.453,0.857,4.36,0.34,8.09,3,3
18409.375,0.222,0.451,0.854,2.41,-0.85,8.42,3,3
18409.39,0.229,0.453,0.85,-0.21,-1.34,8.09,3,3
18409.39,0.244,0.436,0.835,-2.2,-1.28,7.57,3,3
18409.406,0.249,0.428,0.839,-3.11,-0.03,6.56,3,3
18409.406,0.248,0.428,0.853,-1.43,1.83,6.04,3,3
18409.421,0.242,0.428,0.858,1.25,3.11,6.16,3,3
18409.437,0.242,0.436,0.871,2.96,3.72,5.98,3,3
18409.437,0.238,0.444,0.879,4.52,4.39,5.65,3,3
18409.468,0.238,0.444,0.852,7.23,4.7,5.62,3,3
18409.468,0.237,0.452,0.843,6.44,5.13,5.43,3,3
18409.484,0.237,0.455,0.838,4.3,5.43,5.19,3,3
18409.5,0.234,0.454,0.851,2.29,5.22,4.97,3,3
18409.5,0.229,0.454,0.869,1.59,4.79,5.13,3,3
18409.515,0.226,0.456,0.871,2.35,4.03,6.16,3,3
18409.531,0.224,0.453,0.861,3.17,3.39,7.54,3,3
18409.531,0.228,0.449,0.854,2.69,2.9,8.12,3,3
18409.546,0.222,0.445,0.868,2.17,2.53,7.75,3,3
18409.546,0.213,0.442,0.874,2.44,1.62,8.0,3,3
18409.562,0.222,0.444,0.882,2.08,0.49,9.03,3,3
18409.578,0.229,0.437,0.884,2.66,-0.24,9.52,3,3
18409.578,0.231,0.428,0.887,4.49,-0.27,9.4,3,3
18409.593,0.236,0.426,0.902,7.6,-0.18,9.61,3,3
18409.609,0.246,0.432,0.917,11.14,0.27,9.92,3,3
18409.609,0.263,0.445,0.942,14.8,1.46,9.25,3,3
18409.625,0.286,0.473,0.983,18.59,4.0,8.36,3,3
18409.64,0.31,0.522,1.036,22.71,8.09,7.17,3,3
18409.64,0.322,0.581,1.097,26.8,13.28,6.87,3,3
18409.656,0.309,0.638,1.157,29.82,18.25,9.31,3,3
18409.656,0.296,0.69,1.215,30.4,20.48,15.02,3,3
18409.671,0.293,0.723,1.245,26.06,18.8,24.32,3,3
18409.687,0.196,0.718,1.306,16.39,18.71,26.86,3,3
18409.703,0.138,0.596,1.271,14.13,9.13,30.52,3,3
18409.703,0.172,0.553,1.215,11.08,-1.95,36.62,3,3
18409.718,0.22,0.521,1.146,10.22,-7.78,38.51,3,3
18409.718,0.27,0.464,1.079,8.82,-6.53,36.77,3,3
18409.734,0.281,0.412,1.033,6.35,0.85,33.08,3,3
18409.75,0.279,0.403,1.047,5.19,10.99,29.97,3,3
18409.75,0.244,0.403,1.116,9.06,22.31,28.66,3,3
18409.765,0.178,0.412,1.174,18.1,29.85,30.88,3,3
18409.765,0.145,0.452,1.2,24.54,30.58,38.79,3,3
18409.781,0.158,0.5,1.236,21.36,27.16,49.56,3,3
18409.796,0.168,0.514,1.259,9.4,22.06,59.97,3,3
18409.796,0.188,0.484,1.268,-11.72,13.79,70.25,3,3
18409.812,0.232,0.416,1.265,-36.23,4.94,81.21,3,3
18409.828,0.293,0.325,1.254,-58.02,-0.52,92.62,3,3
18409.828,0.363,0.223,1.256,-74.62,-1.56,103.18,3,3
18409.843,0.412,0.129,1.246,-84.48,3.42,110.87,3,3
18409.859,0.417,0.039,1.235,-88.72,12.51,114.02,3,3
18409.859,0.405,-0.018,1.238,-87.19,21.7,112.98,3,3
18409.875,0.388,-0.043,1.228,-80.17,29.45,108.46,3,3
18409.875,0.363,-0.025,1.229,-72.24,34.55,101.08,3,3
18409.89,0.327,0.031,1.24,-67.02,35.37,92.38,3,3
18409.906,0.301,0.098,1.248,-67.75,30.67,83.9,3,3
18409.921,0.292,0.165,1.247,-77.97,21.15,76.85,3,3
18409.921,0.307,0.197,1.224,-92.53,9.55,71.23,3,3
18409.937,0.311,0.208,1.185,-106.45,-0.61,67.05,3,3
18409.937,0.322,0.201,1.129,-118.14,-8.39,65.13,3,3
18409.953,0.351,0.191,1.067,-127.02,-12.18,65.43,3,3
18409.968,0.37,0.178,1.021,-132.88,-11.51,65.65,3,3
18409.968,0.367,0.155,0.965,-136.54,-8.36,65.43,3,3
18409.984,0.365,0.155,0.923,-141.67,-4.49,64.39,3,3
18409.984,0.356,0.152,0.897,-149.51,-0.37,61.31,3,3
18410.0,0.336,0.138,0.889,-157.54,3.45,56.67,3,3
18410.015,0.32,0.126,0.877,-163.85,6.47,52.0,3,3
18410.031,0.311,0.104,0.868,-169.53,10.25,46.85,3,3
18410.031,0.294,0.077,0.867,-173.74,15.81,41.47,3,3
18410.046,0.265,0.053,0.884,-175.51,22.55,36.59,3,3
18410.046,0.223,0.025,0.892,-173.41,27.71,30.46,3,3
18410.062,0.173,-0.011,0.905,-172.43,30.06,26.8,3,3
18410.078,0.147,-0.062,0.913,-168.68,29.18,26.4,3,3
18410.078,0.133,-0.05,0.867,-158.15,24.08,19.59,3,3
18410.093,0.076,-0.104,0.804,-150.91,18.74,14.07,3,3
18410.109,0.122,-0.143,0.77,-149.02,17.64,13.73,3,3
18410.109,0.126,-0.159,0.716,-145.02,21.21,10.07,3,3
18410.125,0.135,-0.203,0.687,-144.84,26.7,8.27,3,3
18410.14,0.204,-0.201,0.693,-149.97,47.98,-1.1,3,3
18410.156,0.212,-0.193,0.753,-158.79,62.69,-6.53,3,3
18410.156,0.174,-0.199,0.835,-164.95,75.05,-12.24,3,3
18410.171,0.132,-0.204,0.918,-164.37,81.18,-17.73,3,3
18410.187,0.103,-0.205,0.987,-155.86,80.97,-21.91,3,3
18410.187,0.065,-0.22,1.018,-142.03,75.62,-23.56,3,3
18410.203,0.054,-0.229,1.016,-126.65,66.93,-22.55,3,3
18410.218,0.073,-0.23,0.978,-112.98,57.62,-20.33,3,3
18410.218,0.091,-0.235,0.901,-105.14,49.78,-18.89,3,3
18410.234,0.117,-0.261,0.826,-104.95,44.13,-18.95,3,3
18410.25,0.145,-0.302,0.765,-108.68,42.33,-19.56,3,3
18410.25,0.15,-0.351,0.721,-111.58,43.76,-20.11,3,3
18410.265,0.148,-0.397,0.694,-112.31,47.21,-20.48,3,3
18410.281,0.151,-0.433,0.677,-108.86,52.22,-22.28,3,3
18410.281,0.125,-0.471,0.679,-101.02,57.99,-25.48,3,3
18410.296,0.111,-0.462,0.697,-81.18,60.03,-35.22,3,3
18410.296,0.092,-0.451,0.699,-76.66,59.42,-37.32,3,3
18410.312,0.083,-0.472,0.718,-72.94,59.21,-36.68,3,3
18410.328,0.083,-0.469,0.729,-68.97,58.29,-35.25,3,3
18410.328,0.077,-0.473,0.761,-66.59,58.14,-33.05,3,3
18410.343,0.076,-0.5,0.788,-65.89,57.41,-29.6,3,3
18410.359,0.086,-0.51,0.807,-68.0,56.06,-26.58,3,3
18410.359,0.089,-0.541,0.819,-73.61,53.56,-25.42,3,3
18410.375,0.096,-0.595,0.835,-82.28,51.0,-25.12,3,3
18410.375,0.097,-0.651,0.843,-87.71,49.13,-26.0,3,3
18410.39,0.098,-0.702,0.837,-87.13,47.27,-29.11,3,3
18410.406,0.091,-0.743,0.824,-81.12,45.11,-36.1,3,3
18410.406,0.084,-0.767,0.8,-71.29,42.79,-46.78,3,3
18410.421,0.077,-0.766,0.765,-58.78,40.68,-59.66,3,3
18410.437,0.079,-0.751,0.727,-45.87,38.51,-72.42,3,3
18410.437,0.076,-0.717,0.694,-34.42,37.69,-83.1,3,3
18410.453,0.071,-0.666,0.681,-25.33,38.48,-90.7,3,3
18410.484,0.035,-0.571,0.68,-13.18,41.23,-92.26,3,3
18410.484,0.025,-0.536,0.672,-14.83,38.94,-86.25,3,3
18410.5,0.045,-0.526,0.665,-23.04,34.52,-78.98,3,3
18410.5,0.077,-0.545,0.656,-33.08,30.88,-71.63,3,3
18410.515,0.102,-0.582,0.646,-41.6,29.6,-65.92,3,3
18410.515,0.12,-0.62,0.639,-47.06,31.28,-61.89,3,3
18410.531,0.132,-0.655,0.631,-47.91,34.12,-60.24,3,3
18410.546,0.136,-0.674,0.625,-44.59,37.08,-61.53,3,3
18410.562,0.127,-0.676,0.613,-39.22,39.55,-64.64,3,3
18410.562,0.109,-0.667,0.604,-33.05,40.13,-68.82,3,3
18410.578,0.095,-0.647,0.595,-26.7,38.67,-72.02,3,3
18410.578,0.099,-0.626,0.575,-21.58,36.23,-72.18,3,3
18410.593,0.111,-0.6,0.557,-19.75,34.67,-70.01,3,3
18410.609,0.124,-0.58,0.542,-20.87,33.97,-67.51,3,3
18410.609,0.151,-0.568,0.536,-24.11,33.78,-65.16,3,3
18410.625,0.175,-0.556,0.531,-28.14,35.86,-63.45,3,3
18410.64,0.214,-0.559,0.57,-34.49,43.58,-60.76,3,3
18410.656,0.23,-0.569,0.607,-34.73,48.62,-57.89,3,3
18410.656,0.226,-0.572,0.644,-33.14,52.71,-55.7,3,3
18410.671,0.212,-0.574,0.689,-30.79,53.68,-55.39,3,3
18410.687,0.209,-0.58,0.727,-27.59,50.66,-55.97,3,3
18410.687,0.205,-0.57,0.762,-22.8,45.72,-57.53,3,3
18410.703,0.2,-0.555,0.78,-15.69,39.12,-59.51,3,3
18410.718,0.213,-0.534,0.785,-8.36,31.92,-60.85,3,3
18410.718,0.246,-0.51,0.783,-2.75,26.58,-60.73,3,3
18410.734,0.274,-0.489,0.771,-0.24,24.11,-59.21,3,3
18410.75,0.284,-0.474,0.757,-0.73,23.68,-57.8,3,3
18410.75,0.288,-0.471,0.75,-2.81,22.8,-56.06,3,3
18410.765,0.295,-0.47,0.746,-4.49,21.45,-53.19,3,3
18410.765,0.305,-0.471,0.736,-4.61,20.33,-49.62,3,3
18410.781,0.313,-0.479,0.729,-3.51,19.38,-45.78,3,3
18410.796,0.308,-0.483,0.73,-1.5,18.89,-41.87,3,3
18410.812,0.306,-0.49,0.722,2.32,15.87,-31.31,3,3
18410.828,0.316,-0.503,0.711,2.14,14.53,-24.48,3,3
18410.828,0.316,-0.512,0.699,-0.46,13.98,-17.61,3,3
18410.843,0.308,-0.532,0.686,-4.36,12.91,-10.8,3,3
18410.859,0.308,-0.565,0.68,-8.88,10.86,-3.88,3,3
18410.859,0.316,-0.602,0.669,-12.36,8.48,2.44,3,3
18410.875,0.33,-0.647,0.655,-14.13,6.93,7.6,3,3
18410.875,0.336,-0.687,0.638,-14.92,7.14,11.05,3,3
18410.89,0.335,-0.721,0.627,-15.32,7.81,11.96,3,3
18410.906,0.334,-0.748,0.615,-14.25,7.75,10.13,3,3
18410.906,0.329,-0.776,0.603,-10.65,7.81,6.99,3,3
18410.921,0.328,-0.787,0.597,-6.41,7.81,2.99,3,3
18410.937,0.321,-0.793,0.588,-2.14,8.79,-0.06,3,3
18410.937,0.307,-0.801,0.576,0.34,9.7,-0.98,3,3
18410.953,0.291,-0.801,0.574,-0.58,9.74,-0.49,3,3
18410.968,0.277,-0.815,0.572,-4.3,8.15,-0.18,3,3
18410.968,0.289,-0.839,0.57,-8.42,4.97,-0.52,3,3
18410.984,0.299,-0.851,0.568,-10.22,3.48,-1.98,3,3
18411.0,0.298,-0.856,0.572,-9.7,3.48,-4.64,3,3
18411.0,0.294,-0.848,0.585,-8.3,3.85,-7.45,3,3
18411.015,0.274,-0.834,0.588,-6.74,4.03,-9.4,3,3
18411.015,0.264,-0.837,0.581,-6.96,2.56,-10.41,3,3
18411.031,0.264,-0.835,0.584,-8.67,0.89,-11.02,3,3
18411.046,0.262,-0.825,0.593,-9.83,0.12,-12.39,3,3
18411.046,0.255,-0.786,0.593,-8.97,0.37,-14.89,3,3
18411.062,0.259,-0.726,0.585,-7.14,-3.11,-18.8,3,3
18411.078,0.278,-0.695,0.575,-5.89,-3.72,-19.23,3,3
18411.078,0.278,-0.648,0.57,-3.85,-0.55,-16.94,3,3
18411.093,0.265,-0.584,0.559,-0.55,0.92,-13.95,3,3
18411.109,0.242,-0.541,0.521,-0.24,-0.52,-9.98,3,3
18411.109,0.267,-0.544,0.507,-6.47,-2.23,-1.83,3,3
18411.125,0.314,-0.572,0.516,-15.96,0.34,10.71,3,3
18411.125,0.341,-0.61,0.531,-26.12,5.68,23.93,3,3
18411.14,0.368,-0.677,0.563,-37.05,10.9,35.22,3,3
18411.156,0.362,-0.744,0.611,-45.66,15.69,41.29,3,3
18411.156,0.325,-0.801,0.661,-48.13,18.13,40.19,3,3
18411.171,0.296,-0.809,0.699,-41.08,15.14,32.32,3,3
18411.187,0.263,-0.79,0.672,-24.17,8.85,19.32,3,3
18411.187,0.239,-0.724,0.607,-4.64,2.04,5.71,3,3
18411.203,0.257,-0.648,0.553,11.47,-1.8,-1.68,3,3
18411.218,0.293,-0.626,0.532,16.85,-0.09,5.1,3,3
18411.218,0.303,-0.634,0.556,8.97,7.29,24.54,3,3
18411.234,0.27,-0.67,0.595,-7.81,13.82,44.25,3,3
18411.25,0.242,-0.754,0.641,-27.47,12.97,56.37,3,3
18411.25,0.243,-0.851,0.684,-41.6,5.37,55.64,3,3
18411.265,0.3,-0.93,0.693,-40.56,-5.07,42.6,3,3
18411.265,0.378,-0.962,0.67,-2.11,-16.97,-6.47,3,3
18411.281,0.446,-0.926,0.632,19.35,-15.72,-31.8,3,3
18411.296,0.476,-0.825,0.626,35.65,-12.15,-51.55,3,3
18411.296,0.477,-0.713,0.65,42.6,-7.32,-60.73,3,3
18411.312,0.446,-0.502,0.794,41.44,-4.43,-59.33,3,3
18411.328,0.344,-0.491,0.847,34.61,-5.92,-49.1,3,3
18411.328,0.28,-0.503,0.852,22.61,-14.37,-34.09,3,3
18411.343,0.261,-0.554,0.795,11.63,-25.91,-19.87,3,3
18411.359,0.255,-0.643,0.698,4.46,-35.1,-9.86,3,3
18411.359,0.256,-0.722,0.584,1.95,-38.15,-5.71,3,3
18411.375,0.202,-0.794,0.44,1.98,-33.81,-4.39,3,3
18411.375,0.154,-0.836,0.321,0.61,-26.4,-4.27,3,3
18411.39,0.143,-0.844,0.224,-0.34,-14.77,-3.81,3,3
18411.406,0.142,-0.828,0.205,-2.35,3.91,-1.59,3,3
18411.406,0.125,-0.782,0.266,-6.35,27.1,3.85,3,3
18411.421,0.085,-0.732,0.38,-13.79,50.14,14.59,3,3
18411.437,0.009,-0.721,0.498,-25.73,68.42,29.33,3,3
18411.453,-0.022,-0.777,0.601,-40.13,77.61,44.8,3,3
18411.453,-0.025,-0.847,0.67,-51.15,80.57,54.99,3,3
18411.468,-0.035,-0.957,0.672,-55.82,80.63,57.22,3,3
18411.468,0.022,-1.043,0.671,-55.09,78.65,51.39,3,3
18411.484,0.039,-1.084,0.661,-48.01,81.0,37.66,3,3
18411.5,0.011,-1.112,0.667,-41.78,84.81,19.35,3,3
18411.5,-0.003,-1.116,0.725,-38.15,84.81,0.73,3,3
18411.515,-0.072,-1.1,0.744,-30.76,81.88,-16.82,3,3
18411.531,-0.058,-1.04,0.793,-21.97,70.8,-33.17,3,3
18411.531,0.005,-0.961,0.802,-8.94,58.08,-46.42,3,3
18411.546,0.034,-0.889,0.775,1.34,48.55,-52.55,3,3
18411.546,0.065,-0.797,0.772,5.1,39.95,-52.43,3,3
18411.562,0.039,-0.728,0.729,4.03,32.23,-47.79,3,3
18411.578,0.046,-0.723,0.665,-4.52,24.93,-37.69,3,3
18411.578,0.115,-0.74,0.609,-14.37,21.33,-24.78,3,3
18411.593,0.167,-0.771,0.566,-19.96,24.41,-14.04,3,3
18411.609,0.207,-0.798,0.587,-21.91,30.4,-7.23,3,3
18411.609,0.222,-0.816,0.646,-18.68,35.77,-4.27,3,3
18411.625,0.212,-0.839,0.673,-12.45,36.93,-4.43,3,3
18411.625,0.199,-0.845,0.683,-6.96,34.52,-7.08,3,3
18411.64,0.15,-0.846,0.7,-2.9,30.76,-11.32,3,3
18411.656,0.144,-0.86,0.733,-1.62,22.58,-14.31,3,3
18411.671,0.18,-0.849,0.751,-1.62,12.7,-16.69,3,3
18411.671,0.199,-0.826,0.731,-1.1,4.18,-20.29,3,3
18411.687,0.218,-0.81,0.703,-0.58,-2.44,-22.98,3,3
18411.687,0.228,-0.776,0.671,0.82,-6.38,-25.33,3,3
18411.703,0.236,-0.751,0.64,3.57,-8.79,-27.1,3,3
18411.718,0.251,-0.717,0.619,6.1,-9.13,-25.94,3,3
18411.718,0.235,-0.685,0.602,6.84,-7.26,-22.77,3,3
18411.734,0.216,-0.674,0.595,4.43,-6.35,-18.8,3,3
18411.734,0.219,-0.685,0.591,0.27,-5.68,-13.06,3,3
18411.75,0.193,-0.698,0.585,-2.69,-3.69,-7.32,3,3
18411.765,0.186,-0.705,0.58,-3.45,-3.36,-2.41,3,3
18411.765,0.216,-0.712,0.581,-3.97,-4.09,2.29,3,3
18411.781,0.236,-0.722,0.584,-4.21,-3.14,6.29,3,3
18411.796,0.239,-0.728,0.583,-4.52,-3.14,8.48,3,3
18411.796,0.221,-0.747,0.583,-5.92,-3.33,9.95,3,3
18411.812,0.202,-0.768,0.58,-7.42,-3.23,11.2,3,3
18411.828,0.217,-0.786,0.566,-7.97,-3.36,11.26,3,3
18411.828,0.241,-0.793,0.549,-7.45,-2.32,10.47,3,3
18411.843,0.261,-0.786,0.55,-5.92,-0.37,8.58,3,3
18411.859,0.254,-0.772,0.588,-3.17,1.1,6.13,3,3
18411.859,0.204,-0.767,0.625,2.26,0.73,5.22,3,3
18411.875,0.183,-0.769,0.634,7.08,-2.66,6.59,3,3
18411.875,0.215,-0.77,0.632,10.65,-7.26,7.6,3,3
18411.89,0.217,-0.787,0.62,15.72,-9.52,6.81,3,3
18411.906,0.227,-0.801,0.605,22.74,-10.5,5.74,3,3
18411.906,0.241,-0.779,0.576,32.07,-9.77,4.85,3,3
18411.921,0.228,-0.76,0.536,38.85,-6.35,5.31,3,3
18411.937,0.207,-0.759,0.495,39.89,-1.01,6.44,3,3
18411.937,0.165,-0.756,0.46,35.86,5.86,7.2,3,3
18411.953,0.109,-0.746,0.502,23.99,11.23,7.54,3,3
18411.968,0.04,-0.774,0.607,10.68,11.11,7.9,3,3
18411.968,0.023,-0.834,0.66,6.2,4.73,9.37,3,3
18411.984,0.042,-0.853,0.674,9.58,-3.88,11.69,3,3
18411.984,0.078,-0.868,0.656,14.04,-11.63,12.3,3,3
18412.0,0.142,-0.875,0.61,15.29,-18.22,8.76,3,3
18412.015,0.177,-0.867,0.567,15.02,-19.9,2.53,3,3
18412.031,0.191,-0.853,0.538,14.5,-17.33,-2.23,3,3
18412.031,0.177,-0.817,0.534,13.28,-12.91,-3.88,3,3
18412.046,0.144,-0.795,0.551,9.43,-9.03,-2.81,3,3
18412.046,0.141,-0.796,0.577,4.21,-7.87,0.21,3,3
18412.062,0.14,-0.804,0.586,0.76,-7.72,4.03,3,3
18412.078,0.144,-0.819,0.591,-2.32,-7.97,6.78,3,3
18412.078,0.162,-0.835,0.601,-4.24,-8.7,6.84,3,3
18412.093,0.157,-0.849,0.609,-3.51,-8.91,4.27,3,3
18412.109,0.154,-0.85,0.604,-2.08,-9.86,1.25,3,3
18412.109,0.175,-0.844,0.583,-0.98,-10.44,-1.68,3,3
18412.125,0.186,-0.835,0.568,-0.52,-8.76,-4.58,3,3
18412.125,0.181,-0.819,0.58,0.06,-5.95,-7.17,3,3
18412.14,0.181,-0.801,0.609,1.59,-4.33,-8.12,3,3
18412.156,0.186,-0.79,0.624,4.0,-4.06,-7.6,3,3
18412.171,0.197,-0.779,0.631,5.52,-4.97,-7.29,3,3
18412.171,0.203,-0.774,0.631,6.93,-5.77,-7.02,3,3
18412.187,0.215,-0.763,0.643,8.18,-6.53,-6.16,3,3
18412.187,0.228,-0.748,0.656,8.88,-7.87,-5.68,3,3
18412.203,0.252,-0.742,0.673,8.58,-10.1,-5.13,3,3
18412.218,0.277,-0.732,0.685,9.19,-12.45,-4.94,3,3
18412.218,0.284,-0.722,0.688,11.96,-15.26,-6.01,3,3
18412.234,0.272,-0.713,0.694,14.28,-18.43,-8.0,3,3
18412.234,0.226,-0.699,0.686,15.35,-21.42,-9.22,3,3
18412.25,0.206,-0.693,0.649,15.05,-25.24,-7.14,3,3
18412.265,0.245,-0.685,0.615,12.97,-26.43,1.77,3,3
18412.281,0.288,-0.696,0.576,10.44,-21.73,5.46,3,3
18412.281,0.338,-0.7,0.57,8.82,-15.5,6.9,3,3
18412.296,0.359,-0.689,0.609,8.51,-11.29,7.05,3,3
18412.296,0.334,-0.669,0.718,8.03,-11.51,7.78,3,3
18412.312,0.322,-0.651,0.759,8.39,-14.65,10.56,3,3
18412.328,0.302,-0.64,0.765,8.33,-19.17,15.41,3,3
18412.328,0.307,-0.649,0.74,5.92,-23.87,20.66,3,3
18412.343,0.33,-0.67,0.716,2.32,-27.19,24.45,3,3
18412.359,0.35,-0.684,0.702,0.4,-28.72,26.46,3,3
18412.359,0.358,-0.695,0.68,0.27,-28.6,27.47,3,3
18412.375,0.358,-0.705,0.673,-0.73,-27.34,28.17,3,3
18412.39,0.352,-0.702,0.689,-1.98,-25.48,29.24,3,3
18412.39,0.328,-0.699,0.712,-2.47,-23.74,31.5,3,3
18412.406,0.307,-0.708,0.738,-3.42,-23.77,34.42,3,3
18412.406,0.303,-0.722,0.76,-3.27,-26.15,36.74,3,3
18412.421,0.305,-0.73,0.772,-1.86,-30.15,37.39,3,3
18412.437,0.298,-0.727,0.783,0.98,-34.33,36.65,3,3
18412.437,0.294,-0.73,0.784,3.33,-38.48,36.71,3,3
18412.453,0.294,-0.721,0.782,2.53,-42.54,36.96,3,3
18412.468,0.288,-0.729,0.757,1.56,-46.21,36.81,3,3
18412.468,0.287,-0.736,0.732,1.4,-49.07,36.53,3,3
18412.484,0.278,-0.738,0.711,1.86,-49.93,36.5,3,3
18412.5,0.27,-0.734,0.694,1.56,-49.65,36.93,3,3
18412.5,0.262,-0.733,0.685,0.85,-49.1,37.17,3,3
18412.515,0.258,-0.74,0.695,0.58,-48.55,37.39,3,3
18412.515,0.251,-0.734,0.71,1.5,-48.25,37.63,3,3
18412.531,0.223,-0.724,0.716,2.23,-48.62,37.97,3,3
18412.546,0.215,-0.725,0.721,0.12,-50.33,39.09,3,3
18412.546,0.214,-0.741,0.725,-1.59,-52.34,40.59,3,3
18412.562,0.212,-0.756,0.717,-0.67,-54.05,41.81,3,3
18412.578,0.228,-0.754,0.712,0.64,-55.94,41.29,3,3
18412.578,0.231,-0.752,0.719,1.74,-56.79,39.49,3,3
18412.593,0.217,-0.741,0.724,3.17,-57.56,38.42,3,3
18412.609,0.219,-0.725,0.719,3.75,-59.54,37.29,3,3
18412.609,0.231,-0.713,0.711,3.14,-61.74,36.29,3,3
18412.625,0.228,-0.706,0.706,2.9,-62.53,36.35,3,3
18412.625,0.205,-0.695,0.699,3.11,-61.92,38.06,3,3
18412.64,0.193,-0.688,0.695,1.95,-62.01,40.65,3,3
18412.656,0.188,-0.695,0.692,0.4,-62.93,43.46,3,3
18412.656,0.197,-0.708,0.688,-0.06,-63.84,45.44,3,3
18412.671,0.215,-0.712,0.686,0.92,-64.79,45.87,3,3
18412.687,0.232,-0.709,0.695,2.59,-65.55,45.38,3,3
18412.687,0.224,-0.706,0.705,3.91,-65.13,45.66,3,3
18412.703,0.203,-0.695,0.724,3.54,-65.43,47.15,3,3
18412.718,0.184,-0.692,0.731,2.35,-67.29,48.55,3,3
18412.718,0.176,-0.708,0.722,1.31,-70.01,50.66,3,3
18412.734,0.19,-0.716,0.723,0.76,-72.6,51.82,3,3
18412.75,0.194,-0.723,0.716,2.56,-73.95,51.09,3,3
18412.75,0.188,-0.723,0.706,4.61,-74.95,50.05,3,3
18412.765,0.199,-0.721,0.704,5.62,-76.05,48.86,3,3
18412.765,0.194,-0.719,0.693,6.47,-76.02,47.4,3,3
18412.781,0.182,-0.722,0.69,6.9,-75.41,46.24,3,3
18412.796,0.177,-0.722,0.698,7.35,-75.11,45.23,3,3
18412.812,0.167,-0.729,0.696,8.64,-75.47,44.25,3,3
18412.812,0.167,-0.736,0.701,9.67,-76.11,43.4,3,3
18412.828,0.168,-0.727,0.713,10.93,-76.78,42.09,3,3
18412.828,0.156,-0.725,0.709,12.36,-77.94,41.02,3,3
18412.843,0.16,-0.736,0.707,13.52,-79.38,40.8,3,3
18412.859,0.165,-0.736,0.704,15.35,-79.78,40.5,3,3
18412.859,0.164,-0.742,0.695,17.27,-79.5,40.31,3,3
18412.875,0.168,-0.76,0.698,18.22,-78.83,40.19,3,3
18412.89,0.168,-0.78,0.705,20.11,-77.64,39.0,3,3
18412.89,0.161,-0.814,0.705,23.26,-76.27,36.84,3,3
18412.906,0.179,-0.854,0.721,28.05,-75.14,34.3,3,3
18412.906,0.197,-0.883,0.73,36.99,-72.63,30.82,3,3
18412.921,0.185,-0.89,0.715,49.13,-68.09,26.18,3,3
18412.937,0.158,-0.866,0.712,61.07,-63.3,22.25,3,3
18412.937,0.129,-0.814,0.736,70.44,-59.88,20.97,3,3
18412.953,0.089,-0.743,0.756,73.85,-58.75,22.52,3,3
18412.968,0.064,-0.674,0.776,68.76,-61.8,27.13,3,3
18412.968,0.055,-0.642,0.787,56.15,-68.18,32.59,3,3
18412.984,0.082,-0.653,0.787,39.95,-75.56,36.77,3,3
18413.0,0.111,-0.688,0.779,28.05,-81.42,38.88,3,3
18413.0,0.131,-0.713,0.764,23.04,-84.66,38.61,3,3
18413.015,0.158,-0.729,0.753,23.07,-85.45,37.29,3,3
18413.015,0.147,-0.72,0.743,25.85,-83.59,35.83,3,3
18413.031,0.107,-0.696,0.741,28.17,-81.82,34.79,3,3
18413.046,0.089,-0.684,0.729,27.92,-82.49,36.38,3,3
18413.046,0.095,-0.673,0.711,25.3,-83.74,40.44,3,3
18413.062,0.107,-0.668,0.71,21.12,-84.69,44.8,3,3
18413.078,0.121,-0.681,0.699,17.15,-84.66,49.04,3,3
18413.093,0.139,-0.685,0.685,13.86,-83.83,52.43,3,3
18413.093,0.151,-0.678,0.677,12.02,-82.46,53.99,3,3
18413.109,0.149,-0.683,0.662,10.38,-80.63,55.85,3,3
18413.109,0.154,-0.685,0.658,8.39,-78.55,57.86,3,3
18413.125,0.144,-0.695,0.667,8.06,-76.39,58.23,3,3
18413.125,0.141,-0.714,0.695,10.38,-73.76,57.74,3,3
18413.14,0.122,-0.707,0.69,14.98,-72.51,55.88,3,3
18413.156,0.115,-0.703,0.704,14.07,-76.57,53.96,3,3
18413.171,0.109,-0.705,0.713,13.43,-74.43,55.97,3,3
18413.171,0.116,-0.634,0.668,15.32,-79.26,54.05,3,3
18413.187,0.151,-0.625,0.65,10.8,-81.64,54.78,3,3
18413.187,0.128,-0.654,0.651,2.35,-75.84,63.72,3,3
18413.203,0.112,-0.679,0.647,-1.4,-71.69,73.43,3,3
18413.218,0.098,-0.696,0.627,-1.62,-72.18,78.07,3,3
18413.218,0.093,-0.734,0.628,-3.69,-71.9,79.9,3,3
18413.234,0.071,-0.766,0.634,-3.54,-70.59,79.23,3,3
18413.25,0.086,-0.78,0.629,5.46,-70.65,73.43,3,3
18413.25,0.096,-0.766,0.61,6.01,-71.23,69.89,3,3
18413.265,0.122,-0.768,0.617,6.65,-70.68,66.07,3,3
18413.265,0.115,-0.744,0.615,5.92,-71.69,62.5,3,3
18413.281,0.106,-0.708,0.606,2.69,-72.48,60.52,3,3
18413.296,0.103,-0.719,0.62,0.09,-70.5,61.68,3,3
18413.312,0.101,-0.704,0.62,1.77,-68.03,63.05,3,3
18413.312,0.12,-0.71,0.609,3.66,-67.63,64.61,3,3
18413.328,0.143,-0.717,0.602,2.38,-66.26,66.84,3,3
18413.328,0.155,-0.729,0.61,0.79,-64.61,66.65,3,3
18413.343,0.154,-0.75,0.632,1.25,-63.17,64.82,3,3
18413.359,0.147,-0.755,0.649,2.99,-62.35,62.69,3,3
18413.359,0.148,-0.751,0.664,4.39,-63.39,59.72,3,3
18413.375,0.149,-0.752,0.674,6.04,-65.28,56.55,3,3
18413.375,0.161,-0.748,0.675,7.35,-66.87,54.45,3,3
18413.39,0.165,-0.743,0.69,8.3,-67.29,52.98,3,3
18413.406,0.141,-0.74,0.704,9.64,-67.54,52.43,3,3
18413.406,0.122,-0.74,0.712,10.62,-69.43,52.64,3,3
18413.421,0.116,-0.76,0.7,12.67,-71.44,51.3,3,3
18413.437,0.109,-0.753,0.667,15.02,-77.27,47.27,3,3
18413.453,0.146,-0.772,0.67,17.43,-77.94,44.92,3,3
18413.453,0.144,-0.739,0.635,22.98,-76.3,42.76,3,3
18413.468,0.168,-0.697,0.623,24.99,-78.04,39.95,3,3
18413.468,0.147,-0.717,0.637,20.75,-74.53,40.59,3,3
18413.484,0.122,-0.75,0.674,17.0,-71.35,45.17,3,3
18413.5,0.115,-0.745,0.67,20.66,-73.52,47.09,3,3
18413.5,0.113,-0.739,0.656,23.87,-75.66,47.43,3,3
18413.515,0.103,-0.748,0.66,22.92,-75.62,48.62,3,3
18413.531,0.101,-0.755,0.661,22.28,-76.69,50.23,3,3
18413.531,0.101,-0.765,0.665,22.16,-77.64,51.15,3,3
18413.546,0.099,-0.783,0.672,21.18,-78.16,50.6,3,3
18413.546,0.092,-0.815,0.681,21.64,-79.44,48.65,3,3
18413.562,0.068,-0.845,0.707,24.45,-81.06,45.41,3,3
18413.578,0.042,-0.885,0.73,28.99,-83.83,40.62,3,3
18413.578,0.044,-0.944,0.743,35.07,-88.6,33.63,3,3
18413.593,0.064,-0.961,0.747,43.03,-94.88,23.62,3,3
18413.609,0.07,-0.921,0.719,50.97,-101.05,11.54,3,3
18413.609,0.084,-0.816,0.679,56.15,-105.56,1.04,3,3
18413.625,0.087,-0.728,0.668,58.81,-107.3,-3.63,3,3
18413.625,0.047,-0.644,0.645,58.29,-104.04,1.53,3,3
18413.64,0.005,-0.607,0.611,53.38,-99.58,15.63,3,3
18413.656,0.028,-0.626,0.599,45.14,-95.52,35.22,3,3
18413.656,0.068,-0.675,0.582,36.23,-88.47,53.83,3,3
18413.671,0.091,-0.751,0.579,26.95,-80.02,66.99,3,3
18413.687,0.119,-0.844,0.599,20.57,-72.94,72.45,3,3
18413.687,0.121,-0.889,0.623,19.56,-67.02,70.93,3,3
18413.703,0.15,-0.889,0.651,23.53,-63.05,64.58,3,3
18413.718,0.165,-0.837,0.669,27.99,-62.07,54.63,3,3
18413.718,0.15,-0.805,0.703,27.5,-62.56,47.98,3,3
18413.734,0.153,-0.807,0.749,25.18,-62.44,48.65,3,3
18413.75,0.167,-0.792,0.735,25.18,-62.96,51.27,3,3
18413.75,0.188,-0.797,0.7,21.52,-64.06,52.22,3,3
18413.765,0.189,-0.834,0.694,15.05,-63.3,52.67,3,3
18413.765,0.198,-0.857,0.693,13.15,-62.84,51.15,3,3
18413.781,0.204,-0.849,0.664,15.59,-62.93,45.87,3,3
18413.796,0.191,-0.835,0.638,17.55,-61.62,39.74,3,3
18413.812,0.19,-0.818,0.632,18.65,-60.15,35.4,3,3
18413.812,0.191,-0.801,0.618,19.62,-57.62,33.27,3,3
18413.828,0.194,-0.78,0.615,19.2,-54.75,32.62,3,3
18413.828,0.193,-0.772,0.641,18.8,-52.8,32.41,3,3
18413.843,0.169,-0.767,0.654,18.89,-51.24,33.02,3,3
18413.859,0.145,-0.752,0.654,18.92,-51.7,32.9,3,3
18413.859,0.137,-0.735,0.642,17.67,-54.99,30.55,3,3
18413.875,0.152,-0.725,0.63,15.53,-58.6,28.26,3,3
18413.89,0.19,-0.727,0.619,14.65,-59.63,28.87,3,3
18413.89,0.208,-0.728,0.603,15.23,-56.4,31.77,3,3
18413.906,0.206,-0.729,0.594,13.86,-51.3,35.25,3,3
18413.906,0.189,-0.741,0.603,10.32,-47.0,37.35,3,3
18413.921,0.162,-0.767,0.612,8.06,-44.65,37.51,3,3
18413.937,0.141,-0.779,0.607,8.12,-44.16,36.19,3,3
18413.937,0.126,-0.776,0.592,10.07,-44.28,33.36,3,3
18413.953,0.107,-0.772,0.579,13.34,-44.43,29.94,3,3
18413.968,0.1,-0.76,0.575,15.44,-44.16,27.31,3,3
18413.968,0.095,-0.756,0.574,16.39,-43.79,24.45,3,3
18413.984,0.088,-0.76,0.563,18.4,-44.5,20.87,3,3
18413.984,0.098,-0.756,0.553,21.79,-45.56,18.28,3,3
18414.0,0.099,-0.73,0.534,24.32,-45.05,16.91,3,3
18414.015,0.092,-0.711,0.525,24.96,-42.91,16.24,3,3
18414.015,0.075,-0.694,0.513,25.18,-41.54,16.63,3,3
18414.031,0.06,-0.689,0.498,24.14,-40.65,19.62,3,3
18414.046,0.078,-0.703,0.481,20.69,-39.16,25.09,3,3
18414.046,0.107,-0.734,0.465,16.54,-35.43,29.97,3,3
18414.062,0.142,-0.773,0.467,14.04,-30.12,32.07,3,3
18414.078,0.176,-0.801,0.496,13.64,-24.32,31.92,3,3
18414.093,0.185,-0.803,0.535,14.8,-18.16,30.79,3,3
18414.093,0.193,-0.806,0.58,15.9,-13.98,29.45,3,3
18414.109,0.196,-0.803,0.627,16.82,-11.96,28.26,3,3
18414.109,0.179,-0.795,0.647,18.34,-12.18,25.94,3,3
18414.125,0.185,-0.785,0.665,18.71,-15.08,23.01,3,3
18414.125,0.193,-0.782,0.675,17.46,-17.76,20.45,3,3
18414.14,0.209,-0.784,0.682,16.21,-19.5,18.59,3,3
18414.156,0.232,-0.778,0.693,17.0,-20.42,16.48,3,3
18414.171,0.249,-0.77,0.696,20.51,-20.54,12.97,3,3
18414.171,0.265,-0.747,0.708,25.06,-20.51,8.64,3,3
18414.187,0.276,-0.726,0.726,30.52,-20.54,4.27,3,3
18414.187,0.273,-0.714,0.741,35.49,-20.57,1.34,3,3
18414.203,0.257,-0.706,0.738,38.33,-20.75,-0.09,3,3
18414.218,0.256,-0.722,0.732,38.48,-21.73,-2.5,3,3
18414.218,0.243,-0.736,0.726,39.28,-23.07,-7.29,3,3
18414.234,0.211,-0.74,0.726,45.63,-31.92,-19.56,3,3
18414.25,0.196,-0.727,0.737,50.9,-38.51,-20.97,3,3
18414.25,0.195,-0.688,0.737,55.15,-45.26,-20.45,3,3
18414.265,0.215,-0.655,0.73,56.83,-49.9,-17.09,3,3
18414.265,0.255,-0.612,0.687,55.18,-51.27,-10.93,3,3
18414.281,0.273,-0.599,0.672,50.36,-50.72,-4.97,3,3
18414.296,0.29,-0.604,0.66,44.53,-48.62,0.85,3,3
18414.296,0.278,-0.623,0.659,40.71,-45.05,6.62,3,3
18414.312,0.277,-0.624,0.653,36.13,-42.7,12.05,3,3
18414.328,0.271,-0.643,0.662,31.43,-41.14,15.59,3,3
18414.328,0.243,-0.656,0.688,26.89,-41.78,16.21,3,3
18414.343,0.204,-0.648,0.715,19.71,-46.88,15.32,3,3
18414.359,0.178,-0.661,0.744,10.5,-56.61,12.6,3,3
18414.359,0.171,-0.698,0.76,6.74,-68.54,8.82,3,3
18414.375,0.2,-0.712,0.745,10.16,-79.56,6.74,3,3
18414.39,0.238,-0.694,0.717,16.91,-84.35,7.02,3,3
18414.39,0.256,-0.691,0.691,24.11,-84.57,7.78,3,3
18414.406,0.312,-0.666,0.691,27.28,-82.22,10.16,3,3
18414.406,0.287,-0.678,0.664,31.83,-74.25,13.06,3,3
18414.421,0.267,-0.667,0.677,31.68,-70.59,14.86,3,3
18414.437,0.276,-0.671,0.686,31.89,-69.8,14.8,3,3
18414.437,0.277,-0.674,0.673,34.3,-68.09,13.89,3,3
18414.453,0.282,-0.68,0.671,37.57,-66.38,13.18,3,3
18414.468,0.303,-0.68,0.658,43.03,-63.23,13.34,3,3
18414.468,0.327,-0.655,0.641,49.26,-56.95,15.11,3,3
18414.484,0.339,-0.627,0.633,52.49,-48.8,18.07,3,3
18414.484,0.337,-0.609,0.638,50.33,-40.86,23.04,3,3
18414.5,0.323,-0.593,0.651,44.62,-33.36,29.85,3,3
18414.515,0.281,-0.592,0.65,34.94,-26.83,39.34,3,3
18414.515,0.269,-0.646,0.636,20.81,-24.54,51.09,3,3
18414.531,0.3,-0.718,0.621,8.79,-24.02,60.98,3,3
18414.546,0.332,-0.786,0.608,3.51,-21.3,65.22,3,3
18414.546,0.365,-0.832,0.6,3.51,-16.79,64.09,3,3
18414.562,0.389,-0.84,0.615,6.87,-10.41,58.23,3,3
18414.578,0.387,-0.834,0.641,11.78,-3.69,48.92,3,3
18414.578,0.382,-0.825,0.674,16.88,0.92,38.54,3,3
18414.593,0.381,-0.787,0.714,21.36,2.99,28.14,3,3
18414.593,0.37,-0.744,0.735,24.87,3.75,18.25,3,3
18414.609,0.359,-0.699,0.739,25.67,4.0,11.84,3,3
18414.625,0.349,-0.653,0.749,22.06,2.9,8.82,3,3
18414.625,0.348,-0.641,0.757,16.91,0.12,6.56,3,3
18414.64,0.353,-0.639,0.752,13.18,-2.44,3.66,3,3
18414.656,0.345,-0.643,0.741,12.02,-4.33,-1.34,3,3
18414.656,0.342,-0.641,0.729,14.04,-6.41,-9.19,3,3
18414.671,0.328,-0.622,0.721,18.16,-8.33,-20.51,3,3
18414.687,0.311,-0.609,0.707,22.43,-11.81,-34.36,3,3
18414.703,0.319,-0.603,0.678,25.51,-17.09,-47.06,3,3
18414.703,0.344,-0.581,0.649,27.47,-20.17,-56.06,3,3
18414.718,0.365,-0.571,0.614,28.63,-20.23,-60.24,3,3
18414.718,0.372,-0.572,0.572,27.8,-17.4,-58.78,3,3
18414.734,0.37,-0.568,0.548,25.24,-12.63,-53.5,3,3
18414.734,0.368,-0.577,0.547,21.88,-8.21,-46.39,3,3
18414.75,0.365,-0.583,0.556,19.04,-4.55,-38.82,3,3
18414.765,0.359,-0.595,0.558,19.53,-2.41,-32.17,3,3
18414.765,0.373,-0.613,0.563,22.13,-2.2,-25.64,3,3
18414.781,0.409,-0.621,0.575,25.12,-1.34,-20.2,3,3
18414.796,0.447,-0.625,0.584,27.44,1.83,-16.66,3,3
18414.796,0.47,-0.623,0.592,26.58,6.99,-15.08,3,3
18414.812,0.489,-0.631,0.613,21.55,11.93,-14.22,3,3
18414.828,0.509,-0.646,0.648,15.72,16.79,-12.7,3,3
18414.828,0.503,-0.653,0.676,11.47,22.46,-9.89,3,3
18414.843,0.493,-0.664,0.696,6.93,26.46,-5.52,3,3
18414.859,0.499,-0.681,0.726,2.35,28.99,-0.43,3,3
18414.859,0.491,-0.696,0.752,-0.64,32.29,3.54,3,3
18414.875,0.474,-0.706,0.788,-2.59,34.3,5.89,3,3
18414.89,0.458,-0.719,0.82,-2.56,34.27,7.05,3,3
18414.89,0.452,-0.728,0.839,-1.13,33.02,7.26,3,3
18414.906,0.441,-0.731,0.853,1.1,30.85,6.04,3,3
18414.906,0.442,-0.729,0.858,3.54,27.53,3.33,3,3
18414.921,0.449,-0.72,0.856,6.78,24.81,-1.31,3,3
18414.937,0.441,-0.695,0.853,9.83,23.68,-6.87,3,3
18414.953,0.428,-0.671,0.85,11.51,22.34,-11.63,3,3
18414.953,0.422,-0.648,0.844,12.7,20.69,-15.44,3,3
18414.968,0.407,-0.62,0.837,13.21,18.98,-18.19,3,3
18414.968,0.395,-0.596,0.829,12.91,15.99,-20.33,3,3
18414.984,0.386,-0.574,0.822,13.03,12.42,-21.85,3,3
18415.0,0.376,-0.555,0.815,13.92,8.21,-22.46,3,3
18415.0,0.374,-0.524,0.804,13.58,3.48,-22.19,3,3
18415.015,0.381,-0.502,0.79,10.65,-1.4,-21.82,3,3
18415.031,0.401,-0.502,0.774,8.33,-5.58,-21.03,3,3
18415.031,0.42,-0.5,0.757,7.9,-7.23,-20.48,3,3
18415.046,0.428,-0.495,0.738,8.61,-6.29,-20.66,3,3
18415.046,0.427,-0.492,0.725,9.19,-4.27,-21.12,3,3
18415.062,0.423,-0.489,0.719,8.27,-2.38,-22.03,3,3
18415.078,0.417,-0.492,0.716,6.44,-2.08,-23.71,3,3
18415.093,0.415,-0.507,0.708,4.88,-2.38,-25.79,3,3
18415.093,0.413,-0.526,0.688,3.6,-2.66,-27.95,3,3
18415.093,0.426,-0.542,0.675,3.14,-2.5,-30.4,3,3
18415.109,0.434,-0.551,0.668,4.27,0.06,-33.14,3,3
18415.125,0.425,-0.539,0.68,6.68,4.03,-35.37,3,3
18415.14,0.42,-0.524,0.688,9.37,7.75,-35.34,3,3
18415.14,0.416,-0.496,0.701,9.64,11.23,-32.9,3,3
18415.156,0.415,-0.485,0.72,7.72,13.79,-29.6,3,3
18415.156,0.416,-0.474,0.745,5.1,15.9,-26.46,3,3
18415.171,0.407,-0.461,0.776,2.59,17.33,-23.1,3,3
18415.187,0.402,-0.459,0.801,1.28,17.21,-19.32,3,3
18415.203,0.399,-0.449,0.828,0.37,15.44,-15.59,3,3
18415.203,0.406,-0.443,0.839,-0.24,12.82,-12.09,3,3
18415.218,0.415,-0.438,0.848,-1.8,8.82,-6.53,3,3
18415.218,0.418,-0.434,0.851,-2.87,7.39,-4.18,3,3
18415.234,0.425,-0.436,0.852,-4.09,6.74,-2.41,3,3
18415.25,0.433,-0.437,0.853,-5.68,6.65,-1.71,3,3
18415.25,0.438,-0.454,0.856,-6.81,6.23,-1.92,3,3
18415.265,0.44,-0.458,0.857,-6.5,6.07,-2.29,3,3
18415.265,0.434,-0.457,0.852,-5.19,6.01,-2.75,3,3
18415.281,0.424,-0.455,0.849,-4.27,5.1,-3.54,3,3
18415.296,0.421,-0.455,0.843,-3.6,3.48,-4.79,3,3
18415.296,0.421,-0.448,0.828,-2.93,1.5,-5.65,3,3
18415.312,0.42,-0.44,0.812,-2.2,0.06,-6.13,3,3
18415.328,0.421,-0.427,0.801,-1.4,-0.4,-5.65,3,3
18415.343,0.412,-0.411,0.791,-0.58,0.49,-3.63,3,3
18415.343,0.401,-0.401,0.788,-0.34,1.28,0.46,3,3
18415.359,0.396,-0.408,0.783,-1.62,1.71,5.49,3,3
18415.359,0.399,-0.416,0.778,-4.79,2.17,10.1,3,3
18415.375,0.405,-0.445,0.775,-8.48,1.92,12.51,3,3
18415.375,0.415,-0.477,0.776,-10.04,1.83,12.91,3,3
18415.39,0.421,-0.487,0.775,-8.3,2.99,12.36,3,3
18415.406,0.417,-0.489,0.771,-6.07,4.36,11.66,3,3
18415.406,0.417,-0.494,0.776,-5.13,4.91,10.44,3,3
18415.421,0.417,-0.498,0.784,-4.12,5.58,9.4,3,3
18415.437,0.409,-0.503,0.787,-3.45,5.95,8.55,3,3
18415.437,0.404,-0.508,0.792,-3.45,5.16,8.03,3,3
18415.453,0.408,-0.517,0.799,-3.45,3.69,7.2,3,3
18415.468,0.412,-0.523,0.801,-2.87,2.29,5.86,3,3
18415.468,0.409,-0.516,0.8,-1.53,1.68,4.24,3,3
18415.484,0.401,-0.515,0.801,-0.24,1.13,3.14,3,3
18415.484,0.392,-0.507,0.81,0.98,0.03,2.2,3,3
18415.5,0.385,-0.501,0.815,1.95,-1.86,1.34,3,3
18415.515,0.391,-0.502,0.808,2.47,-4.27,0.92,3,3
18415.515,0.396,-0.505,0.802,2.84,-6.32,0.49,3,3
18415.531,0.406,-0.498,0.794,3.08,-7.42,-0.34,3,3
18415.546,0.408,-0.496,0.78,2.87,-7.11,-1.83,3,3
18415.546,0.399,-0.494,0.771,2.84,-6.26,-3.51,3,3
18415.562,0.39,-0.484,0.762,3.63,-5.8,-4.61,3,3
18415.578,0.389,-0.474,0.751,4.39,-5.37,-4.88,3,3
18415.578,0.389,-0.463,0.738,4.3,-4.55,-4.7,3,3
18415.593,0.394,-0.454,0.731,2.81,-3.69,-4.58,3,3
18415.609,0.396,-0.449,0.729,0.49,-3.36,-5.13,3,3
18415.609,0.398,-0.45,0.737,-2.04,-3.39,-5.1,3,3
18415.625,0.399,-0.444,0.746,-3.33,-3.23,-3.91,3,3
18415.625,0.399,-0.445,0.749,-2.81,-2.69,-1.34,3,3
18415.64,0.402,-0.442,0.753,-2.17,-1.65,2.17,3,3
18415.656,0.404,-0.44,0.748,-2.08,-0.37,6.29,3,3
18415.656,0.406,-0.447,0.743,-2.84,0.95,10.04,3,3
18415.671,0.412,-0.459,0.743,-3.94,2.14,12.76,3,3
18415.687,0.417,-0.477,0.745,-4.21,3.85,14.31,3,3
18415.687,0.417,-0.492,0.747,-4.3,6.16,14.95,3,3
18415.703,0.416,-0.507,0.753,-4.21,8.45,14.62,3,3
18415.718,0.413,-0.526,0.768,-3.69,10.35,13.34,3,3
18415.718,0.406,-0.532,0.784,-2.62,11.57,12.15,3,3
18415.734,0.395,-0.537,0.797,-2.66,11.29,10.35,3,3
18415.75,0.393,-0.551,0.814,-3.54,9.28,8.36,3,3
18415.75,0.393,-0.561,0.821,-2.93,7.17,6.41,3,3
18415.765,0.388,-0.561,0.826,-0.64,5.52,4.49,3,3
18415.765,0.384,-0.561,0.825,1.98,3.66,3.05,3,3
18415.781,0.392,-0.559,0.82,3.72,1.4,2.01,3,3
18415.796,0.398,-0.553,0.81,4.88,-0.24,0.7,3,3
18415.812,0.4,-0.547,0.802,5.01,-0.92,-0.82,3,3
18415.812,0.401,-0.542,0.801,4.09,-0.98,-1.68,3,3
18415.828,0.401,-0.537,0.799,3.2,-0.73,-2.08,3,3
18415.828,0.398,-0.537,0.796,2.53,-0.4,-2.44,3,3
18415.843,0.399,-0.538,0.797,1.74,-0.43,-3.08,3,3
18415.859,0.401,-0.535,0.795,1.71,-0.67,-3.6,3,3
18415.859,0.402,-0.53,0.79,2.32,-0.34,-4.03,3,3
18415.875,0.399,-0.523,0.784,2.75,0.34,-4.46,3,3
