timestamp,ax,ay,az,gx,gy,gz,orient_label,motion_label
18377.218,0.092,-0.819,0.537,2.66,2.59,-2.08,3,3
18377.218,0.102,-0.825,0.538,1.65,2.41,-0.06,3,3
18377.234,0.115,-0.836,0.545,0.46,2.41,1.5,3,3
18377.234,0.12,-0.851,0.552,0.09,2.84,2.04,3,3
18377.25,0.114,-0.856,0.557,0.37,3.2,1.65,3,3
18377.265,0.104,-0.861,0.558,0.27,2.47,1.16,3,3
18377.265,0.11,-0.872,0.554,-0.12,0.89,0.43,3,3
18377.281,0.112,-0.878,0.545,0.34,0.15,-1.07,3,3
18377.296,0.105,-0.877,0.54,1.28,-0.03,-2.66,3,3
18377.296,0.11,-0.87,0.538,2.35,0.12,-4.06,3,3
18377.312,0.118,-0.859,0.537,2.96,0.46,-5.22,3,3
18377.328,0.115,-0.847,0.546,3.42,1.07,-6.1,3,3
18377.328,0.107,-0.836,0.551,3.3,1.43,-5.58,3,3
18377.343,0.111,-0.831,0.555,2.17,0.82,-4.09,3,3
18377.359,0.12,-0.842,0.551,1.07,0.03,-3.08,3,3
18377.359,0.125,-0.85,0.547,0.82,0.03,-2.41,3,3
18377.375,0.121,-0.847,0.545,1.01,0.34,-2.47,3,3
18377.39,0.121,-0.846,0.546,1.13,-0.03,-3.57,3,3
18377.406,0.117,-0.839,0.55,1.95,0.09,-3.69,3,3
18377.406,0.109,-0.829,0.547,2.41,0.21,-2.93,3,3
18377.421,0.11,-0.826,0.546,1.07,-0.24,-1.4,3,3
18377.437,0.118,-0.84,0.538,-0.24,-0.58,-0.37,3,3
18377.437,0.124,-0.845,0.534,-0.31,-0.09,-0.37,3,3
18377.453,0.12,-0.845,0.532,0.24,0.92,-0.92,3,3
18377.453,0.118,-0.844,0.536,0.61,1.8,-1.31,3,3
18377.468,0.115,-0.838,0.542,0.82,2.2,-1.77,3,3
18377.484,0.106,-0.837,0.547,1.1,2.17,-2.23,3,3
18377.484,0.095,-0.838,0.55,1.5,1.25,-2.29,3,3
18377.5,0.104,-0.844,0.545,1.28,-0.24,-1.83,3,3
18377.515,0.12,-0.846,0.541,0.95,-0.85,-1.68,3,3
18377.515,0.118,-0.846,0.542,1.46,-0.27,-1.98,3,3
18377.531,0.115,-0.841,0.543,1.53,0.24,-1.71,3,3
18377.546,0.118,-0.839,0.546,1.07,0.34,-1.4,3,3
18377.562,0.112,-0.839,0.549,1.22,0.24,-1.56,3,3
18377.578,0.12,-0.84,0.549,1.37,-0.03,-1.37,3,3
18377.578,0.122,-0.844,0.543,1.46,0.03,-1.56,3,3
18377.593,0.121,-0.848,0.537,1.31,0.52,-1.62,3,3
18377.593,0.12,-0.848,0.537,1.22,1.1,-1.95,3,3
18377.609,0.113,-0.843,0.545,1.16,1.53,-2.29,3,3
18377.625,0.105,-0.838,0.554,1.71,1.4,-2.69,3,3
18377.625,0.103,-0.829,0.566,2.2,0.55,-2.23,3,3
18377.64,0.113,-0.825,0.566,2.04,-0.76,-1.74,3,3
18377.656,0.116,-0.827,0.571,2.01,-1.68,-1.65,3,3
18377.671,0.113,-0.825,0.572,2.41,-2.26,-1.62,3,3
18377.671,0.109,-0.827,0.568,2.29,-2.78,-1.62,3,3
18377.687,0.105,-0.833,0.56,2.2,-3.48,-2.04,3,3
18377.687,0.105,-0.836,0.552,2.26,-3.75,-2.84,3,3
18377.703,0.108,-0.837,0.538,2.69,-3.45,-3.63,3,3
18377.718,0.103,-0.839,0.532,3.42,-2.87,-4.79,3,3
18377.718,0.096,-0.835,0.535,4.21,-2.11,-5.89,3,3
18377.734,0.09,-0.832,0.545,4.97,-1.31,-6.53,3,3
18377.734,0.084,-0.825,0.557,4.97,-0.89,-7.02,3,3
18377.75,0.084,-0.826,0.569,4.88,-1.5,-8.24,3,3
18377.765,0.086,-0.822,0.581,5.92,-2.59,-9.98,3,3
18377.765,0.086,-0.811,0.591,7.69,-3.91,-12.39,3,3
18377.781,0.084,-0.795,0.598,9.67,-5.4,-15.26,3,3
18377.796,0.082,-0.777,0.609,11.99,-7.02,-18.13,3,3
18377.812,0.085,-0.762,0.618,17.79,-11.26,-24.6,3,3
18377.812,0.091,-0.749,0.622,22.13,-14.1,-28.69,3,3
18377.828,0.097,-0.736,0.629,27.19,-16.85,-32.62,3,3
18377.828,0.106,-0.704,0.644,32.32,-19.17,-36.56,3,3
18377.843,0.107,-0.679,0.655,36.9,-20.26,-40.99,3,3
18377.859,0.101,-0.661,0.673,41.29,-19.75,-45.56,3,3
18377.859,0.083,-0.639,0.706,44.92,-18.37,-50.2,3,3
18377.875,0.065,-0.611,0.731,48.01,-17.27,-55.24,3,3
18377.89,0.05,-0.607,0.732,52.64,-17.79,-61.83,3,3
18377.906,0.038,-0.563,0.72,65.37,-26.0,-80.69,3,3
18377.906,0.072,-0.563,0.7,72.66,-32.32,-89.42,3,3
18377.921,0.118,-0.542,0.693,79.87,-34.21,-93.75,3,3
18377.937,0.121,-0.497,0.705,84.51,-30.49,-94.64,3,3
18377.937,0.109,-0.451,0.718,84.05,-24.38,-90.33,3,3
18377.953,0.093,-0.425,0.719,78.62,-16.91,-80.87,3,3
18377.968,0.073,-0.423,0.73,70.01,-9.25,-68.82,3,3
18377.968,0.073,-0.446,0.726,62.23,-1.31,-57.25,3,3
18377.984,0.073,-0.474,0.712,57.1,8.97,-48.71,3,3
18377.984,0.098,-0.499,0.7,55.67,19.38,-44.56,3,3
18378.0,0.089,-0.542,0.686,59.51,28.87,-45.29,3,3
18378.015,0.117,-0.56,0.705,66.93,40.93,-46.6,3,3
18378.015,0.066,-0.564,0.718,76.51,50.08,-49.53,3,3
18378.031,0.023,-0.555,0.771,80.63,53.22,-50.87,3,3
18378.046,-0.061,-0.565,0.832,81.94,55.06,-49.35,3,3
18378.046,-0.031,-0.547,0.872,80.81,45.41,-46.75,3,3
18378.078,-0.067,-0.604,0.857,81.12,21.94,-51.61,3,3
18378.078,0.006,-0.621,0.859,78.92,9.46,-48.8,3,3
18378.093,0.059,-0.632,0.845,79.23,2.99,-48.28,3,3
18378.093,0.096,-0.654,0.814,79.99,1.4,-49.2,3,3
18378.109,0.155,-0.646,0.802,78.16,1.34,-52.22,3,3
18378.125,0.184,-0.661,0.8,74.86,3.48,-58.17,3,3
18378.14,0.217,-0.692,0.801,70.86,6.87,-64.12,3,3
18378.14,0.267,-0.703,0.824,67.2,11.75,-70.22,3,3
18378.156,0.288,-0.717,0.85,66.71,18.62,-77.55,3,3
18378.156,0.298,-0.717,0.884,67.23,25.61,-86.28,3,3
18378.171,0.295,-0.701,0.937,69.8,30.7,-97.93,3,3
18378.187,0.277,-0.694,0.995,76.57,32.32,-110.78,3,3
18378.187,0.265,-0.659,1.066,84.69,30.43,-122.71,3,3
18378.203,0.246,-0.608,1.112,94.79,25.03,-133.03,3,3
18378.218,0.225,-0.558,1.128,104.59,15.05,-140.35,3,3
18378.218,0.258,-0.495,1.116,109.71,-0.76,-144.23,3,3
18378.234,0.292,-0.428,1.091,108.07,-15.9,-146.73,3,3
18378.25,0.35,-0.38,1.065,100.77,-28.11,-149.36,3,3
18378.25,0.402,-0.338,1.052,89.21,-37.17,-155.13,3,3
18378.265,0.426,-0.323,1.036,76.51,-42.12,-163.46,3,3
18378.281,0.45,-0.322,1.025,65.68,-44.89,-172.4,3,3
18378.281,0.462,-0.318,1.016,59.14,-45.41,-181.74,3,3
18378.296,0.472,-0.307,0.996,59.11,-45.99,-191.17,3,3
18378.312,0.504,-0.27,0.975,64.21,-46.57,-200.57,3,3
18378.312,0.497,-0.239,0.951,73.73,-45.87,-210.3,3,3
18378.328,0.469,-0.179,0.939,86.73,-46.51,-219.24,3,3
18378.328,0.439,-0.122,0.934,102.73,-50.63,-224.43,3,3
18378.343,0.437,-0.073,0.905,117.86,-58.96,-224.95,3,3
18378.359,0.456,0.014,0.868,127.57,-68.21,-223.4,3,3
18378.359,0.481,0.106,0.828,129.7,-77.58,-222.21,3,3
18378.375,0.5,0.19,0.788,123.17,-87.59,-222.91,3,3
18378.375,0.511,0.271,0.744,109.07,-98.57,-224.59,3,3
18378.406,0.538,0.375,0.662,70.16,-115.09,-219.43,3,3
18378.406,0.588,0.411,0.637,48.71,-117.47,-213.02,3,3
18378.421,0.651,0.438,0.626,28.72,-112.89,-206.4,3,3
18378.437,0.697,0.455,0.623,11.17,-101.99,-200.81,3,3
18378.437,0.729,0.454,0.622,-4.15,-89.48,-196.23,3,3
18378.453,0.722,0.455,0.617,-15.69,-77.18,-192.48,3,3
18378.468,0.705,0.453,0.609,-23.01,-68.12,-188.82,3,3
18378.468,0.703,0.457,0.598,-28.02,-63.66,-185.03,3,3
18378.484,0.688,0.494,0.593,-32.35,-61.56,-182.07,3,3
18378.484,0.659,0.533,0.602,-36.38,-62.04,-178.99,3,3
18378.5,0.661,0.549,0.61,-41.35,-65.49,-172.7,3,3
18378.515,0.689,0.578,0.621,-47.7,-69.22,-164.1,3,3
18378.515,0.695,0.595,0.628,-53.56,-72.39,-155.4,3,3
18378.531,0.698,0.567,0.63,-58.78,-77.88,-146.34,3,3
18378.546,0.718,0.543,0.628,-63.08,-85.12,-137.42,3,3
18378.546,0.729,0.524,0.61,-64.18,-90.06,-130.19,3,3
18378.562,0.73,0.491,0.58,-64.33,-92.96,-123.94,3,3
18378.578,0.75,0.473,0.553,-65.19,-93.81,-118.59,3,3
18378.578,0.763,0.471,0.52,-66.32,-89.94,-115.7,3,3
18378.593,0.758,0.466,0.495,-69.52,-82.46,-114.99,3,3
18378.609,0.764,0.467,0.481,-74.47,-72.33,-115.39,3,3
18378.609,0.777,0.48,0.47,-80.6,-59.14,-117.34,3,3
18378.625,0.769,0.491,0.465,-86.92,-43.55,-122.47,3,3
18378.64,0.761,0.488,0.469,-93.3,-27.22,-129.4,3,3
18378.64,0.726,0.48,0.492,-98.03,-10.5,-138.37,3,3
18378.656,0.667,0.463,0.526,-98.67,3.88,-145.6,3,3
18378.656,0.594,0.493,0.602,-92.93,14.04,-147.22,3,3
18378.671,0.522,0.51,0.655,-79.71,18.59,-142.28,3,3
18378.687,0.488,0.498,0.671,-64.42,17.88,-132.97,3,3
18378.687,0.488,0.511,0.686,-47.64,15.56,-122.71,3,3
18378.703,0.5,0.532,0.679,-29.18,12.63,-118.5,3,3
18378.718,0.497,0.524,0.651,-12.82,9.77,-119.75,3,3
18378.718,0.489,0.509,0.617,-2.29,8.97,-122.44,3,3
18378.734,0.463,0.527,0.582,3.78,9.74,-125.16,3,3
18378.734,0.433,0.557,0.57,7.9,12.27,-125.55,3,3
18378.75,0.406,0.584,0.585,10.74,16.75,-120.21,3,3
18378.765,0.366,0.625,0.599,11.93,21.79,-111.09,3,3
18378.765,0.329,0.644,0.596,11.96,25.85,-100.47,3,3
18378.781,0.313,0.643,0.601,0.7,32.44,-86.21,3,3
18378.796,0.303,0.652,0.611,-7.66,33.05,-85.54,3,3
18378.796,0.289,0.655,0.603,-15.96,34.67,-85.91,3,3
18378.812,0.271,0.642,0.596,-24.02,36.65,-84.93,3,3
18378.828,0.183,0.71,0.677,-28.17,38.12,-79.38,3,3
18378.828,0.133,0.716,0.712,-28.69,36.81,-69.25,3,3
18378.843,0.107,0.707,0.75,-24.26,34.06,-55.45,3,3
18378.843,0.099,0.685,0.779,-15.11,30.24,-41.81,3,3
18378.859,0.098,0.665,0.796,-4.85,24.54,-32.17,3,3
18378.875,0.103,0.668,0.799,4.21,19.35,-26.73,3,3
18378.875,0.103,0.67,0.807,9.37,15.53,-24.66,3,3
18378.906,0.111,0.673,0.789,4.43,10.32,-22.77,3,3
18378.906,0.131,0.651,0.788,-2.75,8.94,-21.88,3,3
18378.921,0.154,0.618,0.791,-8.39,7.48,-20.91,3,3
18378.937,0.165,0.59,0.806,-9.22,7.32,-19.78,3,3
18378.937,0.172,0.575,0.825,-2.59,8.61,-18.4,3,3
18378.953,0.172,0.575,0.845,9.83,10.28,-17.18,3,3
18378.968,0.166,0.585,0.854,26.06,11.63,-16.85,3,3
18378.968,0.164,0.59,0.841,42.33,11.02,-16.75,3,3
18378.984,0.169,0.621,0.823,53.77,9.16,-17.06,3,3
18378.984,0.168,0.654,0.792,59.21,9.03,-16.72,3,3
18379.0,0.171,0.672,0.766,53.71,10.47,-16.45,3,3
18379.015,0.176,0.692,0.756,35.55,12.79,-15.41,3,3
18379.031,0.168,0.679,0.769,8.06,16.48,-15.38,3,3
18379.031,0.164,0.619,0.812,-20.11,20.57,-17.94,3,3
18379.046,0.188,0.564,0.845,-39.43,23.8,-24.38,3,3
18379.046,0.167,0.516,0.863,-46.6,26.12,-32.44,3,3
18379.078,0.151,0.45,0.885,-35.4,18.86,-38.09,3,3
18379.078,0.154,0.479,0.874,-23.29,14.98,-37.69,3,3
18379.093,0.153,0.506,0.845,-12.39,13.0,-36.23,3,3
18379.109,0.162,0.527,0.813,-5.83,12.73,-33.94,3,3
18379.109,0.171,0.552,0.808,-2.72,15.23,-31.74,3,3
18379.125,0.158,0.589,0.829,1.19,19.17,-29.6,3,3
18379.125,0.11,0.653,0.844,7.05,21.67,-27.22,3,3
18379.14,0.088,0.68,0.85,6.13,17.76,-22.61,3,3
18379.156,0.077,0.69,0.863,0.06,11.57,-17.91,3,3
18379.156,0.064,0.687,0.856,-6.01,3.51,-13.76,3,3
18379.171,0.071,0.633,0.816,-9.89,-5.58,-10.22,3,3
18379.187,0.095,0.585,0.781,-13.31,-12.36,-8.64,3,3
18379.187,0.146,0.534,0.691,-17.43,-14.13,-8.58,3,3
18379.203,0.184,0.446,0.713,-34.0,-13.46,-16.63,3,3
18379.203,0.156,0.44,0.804,-52.06,-16.48,-27.77,3,3
18379.218,0.169,0.456,0.823,-54.02,-17.27,-31.07,3,3
18379.25,0.183,0.494,0.836,-43.24,-5.52,-27.65,3,3
18379.25,0.179,0.481,0.863,-31.95,3.72,-24.84,3,3
18379.265,0.155,0.491,0.878,-15.84,12.33,-20.11,3,3
18379.265,0.138,0.558,0.872,7.51,23.38,-8.03,3,3
18379.281,0.097,0.624,0.87,21.91,31.77,6.1,3,3
18379.296,0.08,0.649,0.886,21.79,31.5,12.85,3,3
18379.296,0.135,0.565,0.847,20.08,26.15,13.06,3,3
18379.312,0.137,0.437,0.774,24.32,25.15,8.03,3,3
18379.328,0.018,0.557,0.851,18.1,25.18,4.88,3,3
18379.343,0.081,0.619,0.899,9.46,14.31,6.81,3,3
18379.343,0.068,0.529,0.833,10.9,2.53,3.39,3,3
18379.343,0.086,0.555,0.789,3.17,-4.58,2.23,3,3
18379.359,0.114,0.581,0.771,-3.94,-8.03,2.41,3,3
18379.375,0.11,0.542,0.778,-6.59,-8.06,2.99,3,3
18379.375,0.104,0.523,0.812,-7.48,-7.02,4.15,3,3
18379.39,0.108,0.514,0.851,-6.2,-7.05,4.52,3,3
18379.406,0.102,0.493,0.904,2.75,-10.96,2.44,3,3
18379.421,0.114,0.486,0.884,10.38,-12.67,2.01,3,3
18379.437,0.117,0.509,0.874,15.63,-12.7,2.53,3,3
18379.437,0.119,0.533,0.858,19.35,-13.21,3.75,3,3
18379.453,0.106,0.552,0.843,21.76,-14.04,5.28,3,3
18379.468,0.1,0.616,0.832,17.64,-17.27,8.55,3,3
18379.468,0.179,0.544,0.739,18.34,-18.77,10.32,3,3
18379.484,0.141,0.524,0.698,19.56,-12.18,8.39,3,3
18379.484,0.156,0.624,0.735,10.28,-6.65,9.92,3,3
18379.5,0.16,0.634,0.743,7.6,-3.63,12.05,3,3
18379.515,0.154,0.624,0.754,2.5,-0.82,17.3,3,3
18379.515,0.16,0.603,0.759,-6.84,-1.07,18.4,3,3
18379.531,0.162,0.576,0.757,-12.45,-0.43,16.45,3,3
18379.546,0.165,0.559,0.775,-17.37,0.95,14.37,3,3
18379.562,0.16,0.539,0.803,-22.58,0.64,11.6,3,3
18379.562,0.163,0.522,0.821,-27.44,-1.31,8.94,3,3
18379.578,0.168,0.51,0.859,-30.95,-5.89,2.81,3,3
18379.593,0.166,0.512,0.876,-30.61,-8.61,0.98,3,3
18379.609,0.165,0.521,0.892,-28.11,-11.57,0.4,3,3
18379.609,0.165,0.517,0.884,-22.49,-14.1,1.53,3,3
18379.625,0.165,0.509,0.868,-16.63,-15.81,3.3,3,3
18379.625,0.173,0.51,0.849,-11.51,-16.27,5.1,3,3
18379.64,0.182,0.505,0.827,-7.63,-15.32,6.29,3,3
18379.656,0.188,0.491,0.805,-5.55,-13.18,6.65,3,3
18379.671,0.194,0.485,0.792,-4.88,-10.13,6.07,3,3
18379.671,0.194,0.478,0.788,-5.04,-6.35,4.85,3,3
18379.687,0.195,0.476,0.795,-5.71,-2.38,2.81,3,3
18379.687,0.19,0.48,0.804,-7.05,0.98,0.89,3,3
18379.703,0.184,0.485,0.818,-8.12,3.72,-0.89,3,3
18379.718,0.177,0.487,0.839,-8.7,4.97,-2.01,3,3
18379.718,0.17,0.496,0.86,-8.58,4.82,-2.87,3,3
18379.734,0.161,0.504,0.882,-8.06,3.14,-3.05,3,3
18379.75,0.148,0.501,0.901,-3.94,-3.81,-1.65,3,3
18379.765,0.15,0.497,0.887,3.42,-9.7,-0.7,3,3
18379.765,0.158,0.495,0.863,5.31,-10.68,-0.7,3,3
18379.781,0.164,0.495,0.84,6.04,-10.35,-0.76,3,3
18379.796,0.172,0.499,0.825,6.13,-9.52,-0.34,3,3
18379.796,0.179,0.506,0.803,5.86,-7.6,-0.21,3,3
18379.812,0.188,0.517,0.798,5.16,-5.28,0.03,3,3
18379.812,0.189,0.526,0.799,3.27,-3.02,0.52,3,3
18379.828,0.187,0.523,0.801,1.16,-1.19,1.1,3,3
18379.843,0.189,0.516,0.808,-0.61,0.43,1.62,3,3
18379.843,0.187,0.513,0.819,-2.44,1.43,1.83,3,3
18379.859,0.185,0.516,0.838,-5.07,1.65,1.46,3,3
18379.875,0.184,0.505,0.844,-7.29,0.85,0.89,3,3
18379.875,0.182,0.491,0.845,-8.24,-0.37,0.43,3,3
18379.89,0.183,0.49,0.85,-8.51,-1.22,-0.09,3,3
18379.906,0.183,0.489,0.848,-7.93,-1.92,-0.79,3,3
18379.921,0.186,0.489,0.834,-3.81,-1.28,-1.16,3,3
18379.937,0.189,0.495,0.833,-1.5,-0.06,-1.04,3,3
18379.937,0.186,0.499,0.832,0.03,1.16,-1.13,3,3
18379.953,0.185,0.502,0.829,1.13,2.11,-0.79,3,3
18379.968,0.183,0.508,0.83,1.71,2.78,-0.37,3,3
18379.968,0.178,0.509,0.829,1.34,3.08,-0.03,3,3
18379.984,0.175,0.498,0.823,1.22,2.78,0.09,3,3
18379.984,0.174,0.503,0.829,-0.24,3.11,0.06,3,3
18380.0,0.169,0.52,0.841,-3.14,3.85,-0.82,3,3
18380.015,0.157,0.514,0.845,-5.68,3.78,-1.46,3,3
18380.031,0.152,0.484,0.849,-5.43,2.41,-1.19,3,3
18380.031,0.151,0.49,0.867,-5.37,0.95,-0.12,3,3
18380.046,0.152,0.5,0.885,-5.37,-1.01,0.15,3,3
18380.046,0.151,0.495,0.897,-3.94,-3.54,0.98,3,3
18380.062,0.157,0.499,0.888,-0.58,-6.53,2.56,3,3
18380.078,0.174,0.494,0.866,3.97,-9.13,3.94,3,3
18380.078,0.197,0.498,0.845,6.41,-9.8,4.49,3,3
18380.093,0.213,0.499,0.824,6.99,-8.79,3.2,3,3
18380.109,0.219,0.484,0.812,8.36,-6.29,1.43,3,3
18380.109,0.229,0.483,0.805,9.83,-3.14,-0.31,3,3
18380.125,0.245,0.489,0.803,12.67,0.98,-1.92,3,3
18380.125,0.256,0.507,0.816,16.24,7.08,-2.96,3,3
18380.14,0.272,0.516,0.831,21.3,14.28,-2.9,3,3
18380.156,0.266,0.503,0.841,28.26,22.16,-2.08,3,3
18380.171,0.253,0.533,0.894,37.05,31.04,2.04,3,3
18380.171,0.24,0.514,0.907,55.06,38.12,6.9,3,3
18380.187,0.209,0.515,0.887,69.61,43.37,9.55,3,3
18380.187,0.197,0.571,0.865,74.01,47.0,11.84,3,3
18380.203,0.184,0.617,0.835,71.47,47.15,14.5,3,3
18380.218,0.17,0.643,0.793,59.51,44.62,15.32,3,3
18380.218,0.159,0.661,0.743,39.37,41.41,14.56,3,3
18380.234,0.143,0.657,0.718,14.37,38.64,10.28,3,3
18380.25,0.129,0.624,0.719,-9.92,36.44,1.37,3,3
18380.25,0.145,0.582,0.731,-26.12,34.52,-7.69,3,3
18380.265,0.22,0.564,0.788,-32.07,32.41,-8.76,3,3
18380.265,0.235,0.586,0.871,-32.65,20.69,8.21,3,3
18380.281,0.064,0.668,0.802,-17.73,18.16,16.75,3,3
18380.296,0.235,0.55,0.783,-5.13,16.91,20.2,3,3
18380.296,0.212,0.532,0.772,-5.25,22.34,15.56,3,3
18380.312,0.195,0.536,0.753,-4.61,29.45,6.01,3,3
18380.328,0.194,0.555,0.749,-3.88,37.02,-2.14,3,3
18380.328,0.184,0.568,0.739,-5.49,44.71,-6.53,3,3
18380.343,0.175,0.547,0.725,-8.82,50.75,-9.98,3,3
18380.343,0.163,0.54,0.722,-13.95,56.37,-12.3,3,3
18380.359,0.14,0.546,0.72,-20.75,61.22,-14.98,3,3
18380.375,0.095,0.534,0.734,-29.21,62.56,-15.93,3,3
18380.39,0.057,0.527,0.768,-35.58,61.04,-13.61,3,3
18380.39,0.033,0.53,0.8,-37.72,57.37,-8.06,3,3
18380.406,-0.007,0.538,0.831,-35.37,52.83,0.15,3,3
18380.406,-0.042,0.532,0.853,-29.24,45.63,9.37,3,3
18380.421,-0.043,0.515,0.871,-21.0,36.1,17.24,3,3
18380.437,-0.049,0.496,0.881,-10.93,27.04,21.82,3,3
18380.437,-0.041,0.477,0.864,-0.61,18.77,22.92,3,3
18380.453,-0.025,0.466,0.839,5.49,11.63,20.33,3,3
18380.468,-0.015,0.461,0.81,7.11,7.35,15.38,3,3
18380.468,-0.005,0.46,0.788,4.3,5.22,10.07,3,3
18380.484,-0.008,0.467,0.78,-1.4,6.41,4.67,3,3
18380.484,-0.017,0.484,0.784,-9.83,9.49,-0.21,3,3
18380.5,-0.034,0.5,0.807,-18.83,12.76,-3.2,3,3
18380.515,-0.053,0.501,0.83,-24.96,15.93,-5.04,3,3
18380.515,-0.062,0.488,0.848,-28.23,17.3,-5.62,3,3
18380.531,-0.071,0.48,0.862,-29.6,16.48,-5.25,3,3
18380.546,-0.07,0.479,0.876,-28.35,14.59,-4.33,3,3
18380.546,-0.067,0.477,0.881,-25.51,12.67,-3.54,3,3
18380.562,-0.075,0.473,0.883,-23.26,10.77,-3.02,3,3
18380.578,-0.082,0.465,0.887,-22.92,9.09,-2.66,3,3
18380.578,-0.078,0.465,0.888,-23.29,7.2,-1.68,3,3
18380.593,-0.064,0.456,0.879,-21.18,5.04,0.34,3,3
18380.593,-0.058,0.438,0.865,-15.93,3.72,1.92,3,3
18380.609,-0.06,0.426,0.863,-9.67,3.36,2.17,3,3
18380.625,-0.048,0.426,0.86,-4.18,3.39,1.5,3,3
18380.625,-0.047,0.429,0.858,0.09,4.24,0.03,3,3
18380.64,-0.068,0.45,0.876,1.4,4.91,-3.39,3,3
18380.656,-0.081,0.472,0.91,-1.53,2.04,-6.2,3,3
18380.656,-0.096,0.503,0.944,-5.98,-3.42,-5.77,3,3
18380.671,-0.1,0.51,0.96,-8.88,-10.16,-2.99,3,3
18380.687,-0.082,0.494,0.942,-11.17,-16.94,0.4,3,3
18380.687,-0.039,0.493,0.922,-12.42,-19.99,2.29,3,3
18380.703,-0.029,0.479,0.906,-11.81,-19.01,1.37,3,3
18380.718,-0.014,0.458,0.892,-10.32,-17.91,1.4,3,3
18380.718,0.006,0.445,0.883,-7.97,-16.02,1.77,3,3
18380.734,0.011,0.433,0.881,-5.43,-14.5,2.35,3,3
18380.734,0.031,0.432,0.877,-3.02,-14.19,3.2,3,3
18380.75,0.031,0.435,0.866,0.12,-12.6,1.92,3,3
18380.765,0.021,0.426,0.86,0.24,-11.51,1.77,3,3
18380.765,0.033,0.436,0.869,1.71,-9.95,1.56,3,3
18380.781,0.039,0.468,0.872,3.36,-8.51,1.8,3,3
18380.796,0.017,0.486,0.872,3.48,-5.49,1.16,3,3
18380.796,0.001,0.485,0.882,1.62,-4.24,1.65,3,3
18380.812,0.007,0.49,0.889,0.27,-4.36,2.56,3,3
18380.828,0.007,0.483,0.889,-0.7,-5.8,3.57,3,3
18380.828,0.016,0.477,0.886,-2.26,-6.99,4.36,3,3
18380.843,0.021,0.47,0.882,-2.59,-6.81,4.18,3,3
18380.843,0.014,0.454,0.872,-3.08,-6.38,3.97,3,3
18380.859,0.026,0.45,0.876,-4.27,-6.5,4.55,3,3
18380.875,0.037,0.445,0.883,-4.03,-6.01,4.55,3,3
18380.875,0.038,0.435,0.887,-3.02,-4.76,4.0,3,3
18380.89,0.038,0.431,0.896,-1.98,-4.0,3.48,3,3
18380.906,0.049,0.435,0.904,-0.18,-3.36,2.99,3,3
18380.921,0.051,0.444,0.904,2.29,-2.78,2.01,3,3
18380.921,0.048,0.452,0.902,4.46,-2.62,1.37,3,3
18380.921,0.05,0.461,0.902,5.49,-3.2,1.1,3,3
18380.937,0.048,0.473,0.9,5.58,-3.66,0.49,3,3
18380.953,0.039,0.479,0.898,4.85,-4.64,0.18,3,3
18380.968,0.04,0.479,0.887,4.06,-5.52,-0.03,3,3
18380.968,0.04,0.479,0.869,3.63,-5.58,-0.58,3,3
18380.984,0.037,0.478,0.858,2.17,-5.55,-1.37,3,3
18381.0,0.039,0.483,0.852,-0.24,-5.16,-1.25,3,3
18381.0,0.042,0.488,0.85,-2.56,-4.82,-0.98,3,3
18381.015,0.044,0.489,0.85,-5.46,-4.55,-1.07,3,3
18381.015,0.045,0.49,0.856,-8.33,-4.15,-1.19,3,3
18381.031,0.045,0.485,0.864,-10.44,-3.72,-0.95,3,3
18381.046,0.043,0.472,0.875,-11.11,-3.05,-0.64,3,3
18381.046,0.039,0.454,0.887,-10.38,-2.56,-0.21,3,3
18381.062,0.039,0.443,0.898,-9.37,-2.17,0.21,3,3
18381.078,0.038,0.43,0.901,-8.0,-2.14,0.0,3,3
18381.078,0.035,0.416,0.901,-5.37,-2.69,-0.61,3,3
18381.093,0.035,0.429,0.893,-3.81,-2.81,-0.89,3,3
18381.109,0.033,0.445,0.89,-3.2,-2.23,-1.65,3,3
18381.125,0.026,0.437,0.896,-1.59,-1.89,-1.07,3,3
18381.14,0.031,0.433,0.882,0.73,-2.87,-0.18,3,3
18381.14,0.037,0.434,0.877,1.8,-2.66,-0.4,3,3
18381.156,0.036,0.449,0.881,1.65,-2.11,-1.01,3,3
18381.156,0.037,0.457,0.883,2.47,-1.89,-0.64,3,3
18381.171,0.041,0.457,0.876,3.33,-1.86,-0.24,3,3
18381.187,0.042,0.463,0.874,3.23,-1.98,-0.46,3,3
18381.187,0.04,0.47,0.876,2.29,-2.26,-0.52,3,3
18381.203,0.04,0.471,0.873,1.07,-2.53,-0.31,3,3
18381.218,0.041,0.463,0.868,-0.67,-2.72,-0.06,3,3
18381.218,0.043,0.458,0.869,-2.66,-2.69,-0.21,3,3
18381.234,0.046,0.452,0.875,-4.12,-2.38,-0.49,3,3
18381.234,0.045,0.451,0.88,-4.73,-1.86,-0.7,3,3
18381.25,0.046,0.448,0.884,-4.85,-1.56,-0.98,3,3
18381.265,0.047,0.443,0.884,-4.97,-1.34,-1.53,3,3
18381.265,0.046,0.444,0.886,-4.82,-0.79,-1.71,3,3
18381.296,0.045,0.432,0.89,-2.53,-0.67,-1.46,3,3
18381.296,0.038,0.439,0.891,-0.61,-0.95,-1.04,3,3
18381.312,0.038,0.46,0.897,-1.28,-0.24,-1.56,3,3
18381.328,0.028,0.457,0.899,-1.95,-0.73,-2.01,3,3
18381.328,0.034,0.459,0.891,-1.62,-2.53,-1.25,3,3
18381.343,0.039,0.457,0.874,-0.98,-3.91,-0.58,3,3
18381.359,0.04,0.458,0.867,-1.62,-3.3,-0.21,3,3
18381.359,0.043,0.468,0.863,-3.27,-2.32,-0.58,3,3
18381.375,0.04,0.469,0.867,-5.07,-2.5,-0.49,3,3
18381.375,0.043,0.456,0.879,-6.41,-2.5,0.4,3,3
18381.39,0.04,0.448,0.888,-7.42,-2.41,0.52,3,3
18381.406,0.038,0.432,0.898,-7.2,-2.72,0.61,3,3
18381.406,0.036,0.426,0.899,-5.83,-3.48,0.46,3,3
18381.421,0.037,0.431,0.9,-4.67,-3.97,0.18,3,3
18381.437,0.039,0.421,0.898,-2.44,-3.72,0.31,3,3
18381.437,0.041,0.414,0.888,-0.12,-3.11,0.46,3,3
18381.468,0.042,0.433,0.881,1.25,-1.65,0.37,3,3
18381.468,0.035,0.439,0.89,1.34,-1.43,0.55,3,3
18381.484,0.037,0.448,0.893,1.65,-1.83,1.56,3,3
18381.5,0.042,0.454,0.888,1.37,-2.35,2.14,3,3
18381.5,0.048,0.453,0.882,0.7,-3.02,2.14,3,3
18381.515,0.054,0.45,0.875,-0.37,-3.33,1.83,3,3
18381.515,0.059,0.44,0.871,-1.31,-3.2,1.4,3,3
18381.531,0.062,0.441,0.877,-2.14,-2.2,0.82,3,3
18381.546,0.061,0.448,0.887,-3.17,-0.7,-0.34,3,3
18381.546,0.052,0.444,0.888,-3.66,-0.12,-1.19,3,3
18381.562,0.051,0.443,0.892,-4.27,0.31,-1.5,3,3
18381.578,0.047,0.441,0.894,-4.67,0.55,-1.86,3,3
18381.578,0.044,0.439,0.89,-4.76,0.31,-2.01,3,3
18381.593,0.048,0.437,0.882,-5.19,-0.31,-1.77,3,3
18381.593,0.046,0.435,0.879,-5.89,-0.98,-1.25,3,3
18381.609,0.047,0.438,0.879,-6.23,-0.09,-1.34,3,3
18381.625,0.045,0.443,0.882,-7.39,0.7,-1.71,3,3
18381.625,0.042,0.434,0.888,-8.06,0.79,-1.74,3,3
18381.64,0.04,0.43,0.891,-8.27,0.67,-1.65,3,3
18381.656,0.071,0.4,0.854,-8.3,0.67,-1.98,3,3
18381.671,0.039,0.402,0.87,-9.64,2.66,-5.07,3,3
18381.671,0.009,0.448,0.949,-6.93,4.15,-2.87,3,3
18381.671,0.019,0.451,0.93,-5.71,-1.13,-1.8,3,3
18381.687,0.023,0.442,0.933,-8.58,-3.72,-1.92,3,3
18381.703,0.035,0.412,0.922,-7.48,-5.74,-1.5,3,3
18381.718,0.048,0.405,0.899,-4.06,-6.44,-1.5,3,3
18381.718,0.056,0.397,0.881,-0.37,-4.94,-1.19,3,3
18381.734,0.049,0.395,0.889,3.85,-1.31,-1.22,3,3
18381.734,0.039,0.409,0.901,5.22,-1.37,-0.92,3,3
18381.75,0.037,0.422,0.902,5.34,-1.77,-0.82,3,3
18381.765,0.038,0.429,0.897,5.52,-1.98,-0.67,3,3
18381.765,0.035,0.433,0.891,5.8,-2.29,-0.31,3,3
18381.781,0.041,0.443,0.89,4.85,-3.11,-0.09,3,3
18381.796,0.048,0.444,0.883,3.02,-3.69,-0.03,3,3
18381.796,0.051,0.437,0.877,1.43,-3.3,0.52,3,3
18381.812,0.051,0.435,0.888,0.76,-2.38,1.28,3,3
18381.828,0.01,0.464,0.928,1.59,-1.59,2.53,3,3
18381.828,0.066,0.414,0.915,3.23,-3.39,5.49,3,3
18381.843,0.059,0.4,0.865,0.58,-4.79,0.92,3,3
18381.843,0.047,0.41,0.902,1.8,-1.77,1.16,3,3
18381.859,0.058,0.408,0.89,5.07,-2.35,1.07,3,3
18381.875,0.053,0.429,0.884,4.67,-1.1,0.52,3,3
18381.89,0.051,0.439,0.895,3.85,-0.27,0.0,3,3
18381.89,0.047,0.446,0.895,3.88,-0.55,-0.06,3,3
18381.906,0.044,0.444,0.887,4.33,-1.19,0.64,3,3
18381.906,0.04,0.444,0.889,3.36,-1.46,0.98,3,3
18381.921,0.037,0.441,0.889,2.26,-2.38,1.25,3,3
18381.937,0.04,0.441,0.89,1.59,-3.45,1.31,3,3
18381.937,0.042,0.442,0.889,0.67,-4.06,1.28,3,3
18381.953,0.043,0.442,0.891,-0.03,-4.82,1.5,3,3
18381.968,0.039,0.44,0.894,-0.24,-5.49,1.34,3,3
18381.968,0.04,0.435,0.898,-0.7,-6.26,0.89,3,3
18381.984,0.042,0.433,0.904,-0.7,-6.9,0.58,3,3
18381.984,0.034,0.426,0.912,-0.15,-8.61,0.49,3,3
18382.0,0.028,0.415,0.926,0.46,-11.14,-0.67,3,3
18382.015,0.025,0.411,0.937,1.98,-14.44,-3.2,3,3
18382.015,0.012,0.409,0.954,2.2,-19.59,-6.01,3,3
18382.031,0.005,0.395,0.977,-0.21,-27.07,-12.21,3,3
18382.046,0.041,0.369,0.986,-6.04,-37.81,-22.92,3,3
18382.046,0.004,0.351,1.021,-18.8,-52.31,-41.78,3,3
18382.062,0.026,0.351,1.028,-31.16,-68.58,-54.51,3,3
18382.078,0.066,0.381,1.018,-43.06,-80.94,-62.99,3,3
18382.078,0.075,0.362,1.023,-50.23,-89.85,-71.78,3,3
18382.093,0.104,0.339,1.005,-50.78,-95.58,-77.49,3,3
18382.109,0.129,0.339,0.954,-43.79,-96.59,-79.5,3,3
18382.109,0.153,0.342,0.897,-32.44,-92.26,-76.75,3,3
18382.125,0.177,0.354,0.845,-19.26,-82.25,-70.22,3,3
18382.125,0.199,0.37,0.797,-6.87,-69.03,-62.32,3,3
18382.14,0.216,0.38,0.748,3.48,-53.99,-56.15,3,3
18382.156,0.238,0.402,0.705,10.59,-36.41,-51.15,3,3
18382.156,0.255,0.413,0.671,15.08,-17.18,-46.3,3,3
18382.171,0.254,0.383,0.66,19.2,2.38,-40.47,3,3
18382.187,0.252,0.371,0.652,24.29,21.91,-34.52,3,3
18382.187,0.234,0.381,0.669,30.58,41.23,-31.56,3,3
18382.203,0.16,0.399,0.751,37.42,57.68,-31.53,3,3
18382.218,0.03,0.561,0.901,30.98,63.08,-28.96,3,3
18382.218,-0.021,0.722,1.042,10.71,55.73,-19.5,3,3
18382.234,-0.069,0.71,1.097,-3.39,41.44,-5.86,3,3
18382.25,-0.084,0.649,1.101,-12.27,24.51,7.6,3,3
18382.25,-0.025,0.581,1.053,-11.75,9.74,17.3,3,3
18382.265,0.002,0.474,0.949,-3.91,-0.37,22.22,3,3
18382.265,0.008,0.408,0.889,2.93,-7.17,22.52,3,3
18382.281,0.023,0.396,0.858,10.13,-11.87,19.44,3,3
18382.296,0.048,0.407,0.815,13.03,-15.41,14.34,3,3
18382.296,0.074,0.417,0.785,8.73,-16.21,9.37,3,3
18382.312,0.098,0.403,0.791,2.35,-13.67,6.68,3,3
18382.328,0.113,0.379,0.818,-1.56,-8.24,6.93,3,3
18382.328,0.108,0.348,0.864,-0.34,-2.08,6.26,3,3
18382.343,0.106,0.323,0.922,6.01,1.25,2.32,3,3
18382.359,0.11,0.337,0.953,13.67,1.95,-3.36,3,3
18382.359,0.125,0.364,0.965,19.47,0.85,-8.06,3,3
18382.375,0.148,0.353,0.98,24.54,-0.09,-9.25,3,3
18382.375,0.168,0.352,0.994,30.24,0.55,-6.71,3,3
18382.39,0.155,0.35,1.002,39.8,3.11,-4.46,3,3
18382.406,0.128,0.386,0.984,50.42,2.93,-5.01,3,3
18382.406,0.162,0.381,0.9,62.5,0.82,-8.42,3,3
18382.421,0.162,0.339,0.837,74.22,1.53,-14.34,3,3
18382.437,0.109,0.452,0.815,71.23,2.75,-21.12,3,3
18382.437,0.064,0.592,0.832,58.66,1.95,-27.22,3,3
18382.453,0.006,0.672,0.818,42.97,-2.59,-29.85,3,3
18382.468,-0.011,0.676,0.783,28.38,-7.57,-29.39,3,3
18382.468,0.001,0.682,0.766,15.02,-11.41,-23.59,3,3
18382.484,0.046,0.688,0.731,2.04,-12.39,-12.33,3,3
18382.5,-0.003,0.619,0.762,-17.03,-11.26,-3.94,3,3
18382.5,0.01,0.511,0.76,-17.88,-12.18,-6.65,3,3
18382.515,0.032,0.488,0.739,-7.48,-10.13,-6.68,3,3
18382.515,0.033,0.526,0.729,-2.59,-7.08,-8.3,3,3
18382.531,0.038,0.532,0.749,-4.55,-5.58,-10.96,3,3
18382.546,0.031,0.539,0.777,-9.86,-4.03,-12.42,3,3
18382.546,0.014,0.554,0.815,-15.08,-3.97,-11.69,3,3
18382.562,0.003,0.553,0.868,-19.71,-6.38,-8.06,3,3
18382.578,-0.012,0.548,0.928,-24.29,-10.74,-2.11,3,3
18382.578,-0.016,0.518,0.957,-23.38,-14.25,4.76,3,3
18382.593,-0.032,0.511,1.004,-19.87,-18.98,10.68,3,3
18382.609,-0.044,0.556,1.009,-17.67,-30.21,20.75,3,3
18382.609,0.011,0.49,0.959,-18.62,-38.33,27.01,3,3
18382.625,-0.009,0.397,0.984,-21.0,-46.69,21.3,3,3
18382.625,0.001,0.45,0.994,-25.57,-63.48,26.28,3,3
18382.64,0.064,0.512,0.951,-21.73,-75.5,34.42,3,3
18382.656,0.115,0.49,0.898,-16.63,-76.82,36.59,3,3
18382.656,0.143,0.434,0.867,-14.83,-74.56,32.59,3,3
18382.671,0.159,0.401,0.853,-16.57,-74.83,25.42,3,3
18382.687,0.179,0.406,0.831,-15.72,-74.98,20.69,3,3
18382.687,0.192,0.417,0.814,-12.54,-71.87,18.59,3,3
18382.703,0.203,0.408,0.829,-11.69,-67.45,17.18,3,3
18382.718,0.207,0.405,0.824,-12.21,-63.81,12.73,3,3
18382.718,0.225,0.397,0.812,-17.09,-56.15,-0.7,3,3
18382.734,0.226,0.395,0.809,-20.84,-55.3,-4.0,3,3
18382.734,0.242,0.388,0.817,-23.16,-53.93,-7.02,3,3
18382.75,0.276,0.378,0.891,-23.26,-53.65,-11.75,3,3
18382.765,0.295,0.37,0.923,-25.48,-56.79,-18.89,3,3
18382.781,0.333,0.392,0.933,-27.77,-61.19,-27.22,3,3
18382.781,0.363,0.41,0.888,-28.23,-63.75,-32.75,3,3
18382.796,0.383,0.427,0.845,-28.38,-62.29,-32.29,3,3
18382.796,0.407,0.438,0.789,-26.8,-55.94,-27.34,3,3
18382.828,0.436,0.388,0.703,-17.24,-34.88,-21.06,3,3
18382.828,0.448,0.362,0.661,-8.12,-20.36,-21.64,3,3
18382.843,0.443,0.364,0.63,1.89,-3.85,-23.38,3,3
18382.859,0.427,0.357,0.613,11.44,12.91,-25.7,3,3
18382.859,0.417,0.366,0.601,17.7,29.88,-29.39,3,3
18382.875,0.409,0.395,0.594,18.22,47.73,-34.88,3,3
18382.875,0.377,0.402,0.607,13.92,64.88,-41.23,3,3
18382.89,0.267,0.416,0.733,7.05,77.76,-46.72,3,3
18382.906,0.12,0.649,0.998,-19.14,69.98,-45.14,3,3
18382.906,0.041,0.701,1.185,-37.57,47.82,-35.49,3,3
18382.921,0.043,0.731,1.228,-50.97,17.09,-24.48,3,3
18382.937,0.116,0.556,1.087,-39.43,-2.08,-10.9,3,3
18382.937,0.134,0.474,0.93,-21.76,-7.75,-1.28,3,3
18382.953,0.159,0.454,0.858,-9.28,-7.54,7.78,3,3
18382.968,0.168,0.44,0.872,-2.84,-7.93,13.06,3,3
18382.968,0.162,0.416,0.894,-1.59,-9.8,16.91,3,3
18383.0,0.178,0.334,0.95,0.31,-22.43,18.46,3,3
18383.0,0.232,0.266,0.96,12.12,-27.83,15.59,3,3
18383.015,0.264,0.339,1.011,21.33,-26.4,10.25,3,3
18383.015,0.236,0.37,1.022,29.02,-27.83,6.32,3,3
18383.031,0.183,0.386,1.004,32.78,-39.03,6.74,3,3
18383.046,0.276,0.334,0.895,39.95,-50.39,11.54,3,3
18383.046,0.266,0.347,0.841,52.4,-49.96,11.99,3,3
18383.062,0.271,0.512,0.814,46.66,-46.66,15.38,3,3
18383.078,0.301,0.483,0.767,37.54,-47.4,13.52,3,3
18383.078,0.279,0.458,0.734,27.92,-44.71,11.38,3,3
18383.093,0.313,0.493,0.725,17.49,-40.99,12.51,3,3
18383.109,0.349,0.507,0.706,11.38,-33.94,12.48,3,3
18383.109,0.338,0.49,0.693,8.76,-24.02,12.48,3,3
18383.125,0.342,0.467,0.704,7.45,-17.06,13.7,3,3
18383.125,0.365,0.464,0.713,7.9,-9.28,14.1,3,3
18383.14,0.382,0.464,0.711,7.32,-0.12,12.15,3,3
18383.156,0.372,0.415,0.709,1.22,18.04,5.74,3,3
18383.171,0.374,0.398,0.722,-0.46,24.81,2.9,3,3
18383.187,0.377,0.393,0.732,0.21,32.04,-1.68,3,3
18383.187,0.363,0.397,0.752,0.37,39.8,-7.29,3,3
18383.203,0.354,0.406,0.764,-0.27,47.7,-12.02,3,3
18383.218,0.348,0.385,0.728,1.53,57.59,-16.79,3,3
18383.218,0.337,0.384,0.689,1.77,68.73,-22.03,3,3
18383.234,0.31,0.411,0.733,-0.64,80.48,-25.85,3,3
18383.234,0.137,0.588,0.94,-19.71,78.74,-29.11,3,3
18383.25,0.06,0.638,1.141,-43.21,60.61,-24.96,3,3
18383.265,-0.021,0.749,1.222,-60.58,27.04,-19.62,3,3
18383.281,0.08,0.596,1.122,-53.5,-0.31,-4.09,3,3
18383.281,0.133,0.461,0.933,-31.43,-13.18,5.34,3,3
18383.296,0.193,0.45,0.827,-15.96,-11.99,13.15,3,3
18383.296,0.2,0.436,0.831,-7.63,-8.91,17.12,3,3
18383.312,0.203,0.385,0.867,-4.49,-7.69,19.53,3,3
18383.328,0.258,0.332,0.877,-3.45,-10.96,16.85,3,3
18383.343,0.269,0.299,0.895,0.46,-10.71,11.78,3,3
18383.359,0.269,0.317,0.915,7.2,-10.77,6.41,3,3
18383.359,0.271,0.364,0.922,14.56,-10.71,3.72,3,3
18383.375,0.26,0.387,0.922,20.54,-11.32,2.99,3,3
18383.375,0.205,0.421,0.953,22.03,-14.53,2.9,3,3
18383.39,0.249,0.48,0.943,20.36,-21.97,4.43,3,3
18383.406,0.264,0.342,0.853,38.58,-20.11,7.35,3,3
18383.406,0.209,0.455,0.861,38.79,-18.89,7.45,3,3
18383.421,0.224,0.538,0.871,41.51,-20.2,15.81,3,3
18383.437,0.238,0.541,0.84,40.86,-25.91,20.36,3,3
18383.437,0.268,0.517,0.819,24.05,-30.58,17.46,3,3
18383.453,0.246,0.539,0.807,8.58,-32.14,14.77,3,3
18383.468,0.28,0.516,0.798,-2.38,-36.29,15.84,3,3
18383.468,0.305,0.495,0.784,-8.97,-36.99,16.42,3,3
18383.484,0.318,0.487,0.775,-10.93,-33.39,18.07,3,3
18383.5,0.338,0.441,0.762,-4.61,-23.19,20.69,3,3
18383.515,0.345,0.432,0.76,-0.67,-17.37,21.18,3,3
18383.515,0.353,0.432,0.758,2.11,-11.75,20.14,3,3
18383.531,0.352,0.44,0.757,1.71,-6.32,19.17,3,3
18383.546,0.35,0.434,0.758,-1.37,-1.34,17.98,3,3
18383.546,0.349,0.426,0.771,-4.52,3.08,15.84,3,3
18383.562,0.342,0.422,0.786,-6.59,6.5,13.43,3,3
18383.578,0.341,0.424,0.802,-8.24,8.91,11.23,3,3
18383.578,0.334,0.428,0.816,-9.25,10.5,9.77,3,3
18383.593,0.323,0.422,0.839,-9.13,11.41,8.58,3,3
18383.609,0.318,0.421,0.857,-8.51,11.41,7.11,3,3
18383.609,0.309,0.428,0.863,-8.06,10.56,6.5,3,3
18383.625,0.299,0.427,0.865,-8.09,8.97,6.01,3,3
18383.625,0.301,0.42,0.868,-8.03,7.32,5.16,3,3
18383.64,0.303,0.416,0.863,-7.08,6.04,4.21,3,3
18383.656,0.307,0.411,0.858,-5.19,5.52,3.6,3,3
18383.671,0.31,0.399,0.839,0.82,6.47,3.69,3,3
18383.687,0.313,0.387,0.84,4.39,7.87,3.3,3,3
18383.687,0.316,0.388,0.845,7.97,9.03,2.08,3,3
18383.703,0.31,0.4,0.848,10.13,9.09,-1.77,3,3
18383.718,0.301,0.417,0.86,8.06,6.99,-3.2,3,3
18383.718,0.301,0.435,0.866,6.07,4.7,-4.09,3,3
18383.734,0.298,0.446,0.861,4.88,3.11,-4.43,3,3
18383.734,0.293,0.455,0.842,4.55,1.95,-4.21,3,3
18383.75,0.297,0.46,0.834,4.58,1.19,-3.42,3,3
18383.765,0.302,0.463,0.822,4.64,1.07,-2.38,3,3
18383.781,0.304,0.46,0.818,4.79,2.04,-1.01,3,3
18383.781,0.302,0.457,0.822,5.37,3.51,0.55,3,3
18383.796,0.3,0.455,0.821,5.65,4.58,2.17,3,3
18383.796,0.298,0.449,0.826,5.46,5.1,2.99,3,3
18383.812,0.304,0.444,0.831,5.28,5.68,3.05,3,3
18383.828,0.296,0.444,0.834,5.19,6.13,2.81,3,3
18383.843,0.289,0.454,0.855,1.77,3.39,1.1,3,3
18383.843,0.286,0.454,0.862,-0.31,0.95,0.03,3,3
18383.859,0.289,0.452,0.86,-1.65,-1.4,-0.43,3,3
18383.875,0.296,0.449,0.854,-1.98,-3.2,-0.12,3,3
18383.875,0.303,0.439,0.845,-1.22,-4.21,0.4,3,3
18383.89,0.323,0.434,0.833,0.12,-4.18,0.79,3,3
18383.906,0.344,0.437,0.811,1.89,-2.35,0.52,3,3
18383.906,0.362,0.437,0.789,3.17,0.58,-0.18,3,3
18383.921,0.396,0.416,0.786,2.99,4.24,-1.04,3,3
18383.937,0.426,0.395,0.781,3.39,9.09,-2.84,3,3
18383.937,0.449,0.365,0.781,7.6,14.19,-5.58,3,3
18383.953,0.486,0.37,0.766,7.2,18.83,-8.48,3,3
18383.968,0.511,0.406,0.775,3.81,25.79,-9.83,3,3
18383.968,0.501,0.399,0.762,6.26,32.14,-12.3,3,3
18383.984,0.473,0.392,0.741,6.38,39.52,-16.72,3,3
18383.984,0.424,0.413,0.729,4.49,49.1,-22.95,3,3
18384.0,0.364,0.414,0.727,2.11,57.25,-31.13,3,3
18384.015,0.301,0.411,0.735,-2.32,65.31,-40.8,3,3
18384.031,0.263,0.402,0.711,-3.85,76.27,-49.04,3,3
18384.031,0.199,0.397,0.696,-1.19,91.98,-54.51,3,3
18384.046,0.138,0.444,0.709,0.85,107.09,-53.59,3,3
18384.046,0.114,0.5,0.727,5.25,121.31,-47.88,3,3
18384.062,0.063,0.482,0.738,14.74,133.4,-41.75,3,3
18384.078,-0.046,0.491,0.809,19.07,140.23,-36.16,3,3
18384.078,-0.248,0.74,1.073,-1.25,127.02,-30.82,3,3
18384.093,-0.308,1.029,1.295,-60.03,72.57,-2.93,3,3
18384.109,-0.233,0.784,1.264,-86.37,25.91,22.71,3,3
18384.109,-0.163,0.493,1.185,-96.44,-4.94,32.04,3,3
18384.125,-0.092,0.435,1.08,-105.81,-26.95,32.9,3,3
18384.125,0.038,0.281,0.976,-88.96,-34.42,31.01,3,3
18384.14,0.061,0.128,0.901,-51.64,-28.75,25.67,3,3
18384.156,0.057,0.12,0.865,-12.79,-19.87,19.2,3,3
18384.156,0.079,0.185,0.834,21.18,-12.05,12.67,3,3
18384.187,0.053,0.323,0.817,41.9,-3.39,-1.5,3,3
18384.187,0.045,0.361,0.844,35.68,-4.97,-4.27,3,3
18384.203,0.045,0.395,0.867,30.73,-7.81,-5.52,3,3
18384.203,0.061,0.449,0.879,26.31,-9.74,-4.82,3,3
18384.218,0.077,0.495,0.9,21.73,-9.89,-3.66,3,3
18384.234,0.072,0.514,0.928,17.52,-9.43,-2.17,3,3
18384.234,0.044,0.538,0.966,12.09,-11.63,1.25,3,3
18384.25,0.109,0.559,0.958,2.99,-18.71,7.42,3,3
18384.265,0.137,0.417,0.905,7.81,-21.36,9.77,3,3
18384.265,0.109,0.441,0.902,4.82,-23.38,9.09,3,3
18384.281,0.157,0.478,0.918,-0.58,-27.89,10.96,3,3
18384.296,0.166,0.435,0.91,0.12,-30.43,11.08,3,3
18384.312,0.141,0.435,0.926,-3.78,-32.9,10.35,3,3
18384.312,0.16,0.447,0.927,-6.47,-38.3,9.83,3,3
18384.328,0.169,0.425,0.926,-5.07,-42.63,10.25,3,3
18384.328,0.18,0.427,0.925,-5.16,-45.96,10.53,3,3
18384.359,0.191,0.425,0.904,-2.01,-49.01,9.16,3,3
18384.359,0.192,0.43,0.887,-1.89,-50.08,7.93,3,3
18384.375,0.197,0.419,0.876,-2.84,-50.26,6.62,3,3
18384.375,0.198,0.413,0.883,-5.46,-50.42,3.42,3,3
18384.39,0.195,0.422,0.888,-9.03,-52.25,-1.34,3,3
18384.406,0.201,0.417,0.877,-10.71,-54.51,-5.19,3,3
18384.421,0.21,0.405,0.862,-12.3,-54.99,-7.48,3,3
18384.421,0.214,0.407,0.874,-13.03,-53.99,-7.08,3,3
18384.437,0.228,0.411,0.88,-11.99,-52.28,-5.04,3,3
18384.437,0.24,0.408,0.871,-10.96,-49.59,-3.08,3,3
18384.453,0.238,0.414,0.866,-9.83,-45.5,-1.65,3,3
18384.468,0.235,0.415,0.862,-8.27,-41.66,-1.01,3,3
18384.468,0.233,0.404,0.838,-7.2,-37.87,-2.35,3,3
18384.484,0.237,0.396,0.834,-11.2,-31.04,-4.82,3,3
18384.484,0.232,0.374,0.837,-13.95,-27.74,-8.79,3,3
18384.5,0.26,0.36,0.839,-11.84,-27.59,-8.61,3,3
18384.515,0.31,0.38,0.827,-2.96,-20.57,-5.31,3,3
18384.531,0.331,0.371,0.83,0.55,-16.11,-4.49,3,3
18384.546,0.344,0.378,0.823,3.63,-11.57,-4.43,3,3
18384.546,0.356,0.38,0.811,6.65,-7.72,-4.61,3,3
18384.562,0.359,0.382,0.807,8.7,-3.2,-4.27,3,3
18384.578,0.349,0.383,0.805,9.28,0.7,-4.55,3,3
18384.578,0.333,0.391,0.819,8.82,3.14,-5.55,3,3
18384.593,0.313,0.403,0.848,8.33,4.7,-6.32,3,3
18384.593,0.287,0.409,0.873,9.34,5.31,-6.35,3,3
18384.609,0.261,0.423,0.904,11.81,5.07,-5.16,3,3
18384.625,0.241,0.437,0.934,14.89,3.33,-2.87,3,3
18384.625,0.225,0.46,0.957,17.52,1.37,-0.21,3,3
18384.64,0.148,0.453,0.951,19.5,-0.7,3.6,3,3
18384.656,0.117,0.438,0.962,19.68,-4.33,9.16,3,3
18384.656,0.166,0.472,0.974,22.31,-4.24,10.35,3,3
18384.671,0.144,0.465,0.953,27.28,-2.35,10.13,3,3
18384.687,0.196,0.46,0.928,29.11,-8.27,11.54,3,3
18384.703,0.212,0.465,0.905,27.5,-9.09,11.72,3,3
18384.718,0.241,0.482,0.88,23.87,-8.0,13.09,3,3
18384.718,0.262,0.457,0.849,19.96,-6.41,15.56,3,3
18384.734,0.271,0.451,0.836,17.37,-3.6,18.16,3,3
18384.75,0.278,0.452,0.834,15.41,0.27,20.57,3,3
18384.75,0.29,0.452,0.831,13.95,4.58,24.29,3,3
18384.765,0.305,0.45,0.829,13.55,9.98,29.42,3,3
18384.765,0.314,0.434,0.826,13.28,15.17,33.54,3,3
18384.781,0.318,0.429,0.847,11.87,17.73,35.74,3,3
18384.796,0.31,0.429,0.864,11.29,17.79,37.9,3,3
18384.796,0.298,0.41,0.875,11.51,15.99,38.94,3,3
18384.812,0.301,0.396,0.884,10.5,12.24,37.72,3,3
18384.828,0.297,0.404,0.894,8.97,7.48,35.28,3,3
18384.828,0.299,0.434,0.902,6.29,2.5,32.87,3,3
18384.843,0.304,0.451,0.902,3.05,-1.98,32.93,3,3
18384.859,0.308,0.463,0.894,-0.37,-4.58,36.23,3,3
18384.859,0.308,0.477,0.883,-4.3,-5.37,41.47,3,3
18384.875,0.313,0.479,0.878,-8.06,-4.0,47.91,3,3
18384.89,0.31,0.472,0.871,-10.25,-0.49,55.06,3,3
18384.89,0.299,0.448,0.866,-10.8,4.24,63.14,3,3
18384.906,0.295,0.409,0.866,-10.62,9.09,70.1,3,3
18384.906,0.304,0.39,0.872,-10.74,12.7,72.66,3,3
18384.921,0.302,0.378,0.878,-10.53,15.56,71.9,3,3
18384.937,0.294,0.356,0.885,-10.62,17.03,70.07,3,3
18384.937,0.293,0.347,0.896,-12.48,16.08,68.12,3,3
18384.953,0.293,0.363,0.905,-13.95,14.28,67.17,3,3
18384.968,0.286,0.379,0.917,-14.98,12.82,67.87,3,3
18384.968,0.283,0.398,0.928,-16.88,12.18,71.14,3,3
18384.984,0.278,0.397,0.927,-19.41,11.47,75.72,3,3
18384.984,0.28,0.389,0.925,-24.66,9.83,79.5,3,3
18385.0,0.295,0.387,0.92,-30.7,9.49,82.95,3,3
18385.015,0.299,0.383,0.907,-36.59,10.01,87.07,3,3
18385.031,0.318,0.369,0.903,-49.38,13.46,96.71,3,3
18385.046,0.326,0.36,0.899,-55.18,15.08,102.02,3,3
18385.062,0.341,0.351,0.884,-61.86,16.94,107.39,3,3
18385.062,0.346,0.341,0.874,-69.49,20.39,112.7,3,3
18385.078,0.33,0.319,0.878,-77.33,23.8,118.81,3,3
18385.078,0.326,0.286,0.892,-84.9,26.03,125.68,3,3
18385.093,0.323,0.275,0.909,-92.75,25.91,130.56,3,3
18385.109,0.33,0.24,0.892,-100.13,23.99,134.59,3,3
18385.109,0.341,0.2,0.869,-107.27,23.65,138.46,3,3
18385.125,0.373,0.164,0.861,-113.13,26.61,141.15,3,3
18385.125,0.398,0.104,0.862,-114.87,33.45,142.34,3,3
18385.14,0.429,0.02,0.858,-109.96,43.52,141.67,3,3
18385.156,0.428,-0.044,0.849,-99.64,53.96,136.69,3,3
18385.156,0.427,-0.089,0.865,-88.23,61.59,129.18,3,3
18385.171,0.43,-0.115,0.888,-76.63,65.55,118.66,3,3
18385.187,0.412,-0.125,0.901,-65.46,67.08,105.66,3,3
18385.203,0.352,-0.065,0.918,-54.81,65.49,86.37,3,3
18385.218,0.337,-0.046,0.914,-54.17,63.84,83.01,3,3
18385.218,0.344,-0.059,0.907,-57.83,62.35,81.33,3,3
18385.234,0.346,-0.066,0.912,-64.7,62.11,79.1,3,3
18385.234,0.347,-0.09,0.916,-72.21,62.84,75.53,3,3
18385.25,0.347,-0.131,0.929,-79.17,64.73,70.01,3,3
18385.265,0.331,-0.175,0.948,-83.5,66.62,62.69,3,3
18385.265,0.31,-0.225,0.965,-83.96,66.9,55.21,3,3
18385.281,0.288,-0.276,0.981,-80.9,64.91,48.98,3,3
18385.296,0.267,-0.319,0.996,-75.62,60.49,43.15,3,3
18385.312,0.248,-0.357,0.993,-68.18,54.51,37.14,3,3
18385.312,0.228,-0.388,0.991,-60.03,46.78,30.82,3,3
18385.328,0.213,-0.414,0.985,-52.74,37.14,24.93,3,3
18385.328,0.208,-0.442,0.973,-46.85,26.06,19.5,3,3
18385.343,0.217,-0.45,0.962,-42.63,16.24,13.86,3,3
18385.343,0.233,-0.443,0.939,-40.62,9.34,6.74,3,3
18385.359,0.248,-0.427,0.922,-41.05,6.07,-1.83,3,3
18385.375,0.246,-0.394,0.918,-43.49,6.47,-10.71,3,3
18385.39,0.229,-0.373,0.908,-46.39,7.97,-18.59,3,3
18385.39,0.224,-0.361,0.897,-49.01,9.09,-24.81,3,3
18385.406,0.22,-0.344,0.899,-50.02,10.5,-30.3,3,3
18385.406,0.206,-0.324,0.912,-48.01,11.93,-34.58,3,3
18385.421,0.192,-0.306,0.915,-43.43,11.14,-37.14,3,3
18385.437,0.188,-0.294,0.915,-38.18,8.15,-37.9,3,3
18385.437,0.181,-0.279,0.923,-31.95,4.49,-37.26,3,3
18385.453,0.182,-0.292,0.925,-24.78,0.37,-34.7,3,3
18385.468,0.186,-0.286,0.927,-16.21,-3.3,-31.01,3,3
18385.468,0.187,-0.277,0.911,-8.55,-7.72,-26.64,3,3
18385.484,0.201,-0.274,0.88,-5.65,-12.12,-21.82,3,3
18385.484,0.216,-0.276,0.854,-7.17,-14.56,-17.82,3,3
18385.5,0.235,-0.278,0.839,-14.22,-15.44,-15.32,3,3
18385.515,0.246,-0.277,0.834,-25.48,-15.02,-14.19,3,3
18385.531,0.25,-0.299,0.841,-37.17,-14.25,-13.37,3,3
18385.531,0.251,-0.338,0.86,-47.09,-14.25,-13.06,3,3
18385.546,0.26,-0.383,0.878,-52.22,-14.16,-13.06,3,3
18385.546,0.263,-0.416,0.898,-51.55,-13.95,-14.65,3,3
18385.562,0.257,-0.441,0.919,-45.08,-14.68,-17.4,3,3
18385.578,0.248,-0.464,0.925,-34.88,-17.09,-20.14,3,3
18385.578,0.257,-0.464,0.929,-23.74,-20.42,-22.19,3,3
18385.593,0.266,-0.454,0.918,-12.97,-22.28,-24.05,3,3
18385.609,0.267,-0.43,0.896,-6.38,-22.55,-25.73,3,3
18385.609,0.274,-0.387,0.882,-6.26,-21.85,-26.83,3,3
18385.625,0.256,-0.362,0.856,-12.97,-20.33,-26.52,3,3
18385.625,0.257,-0.339,0.84,-26.83,-18.77,-23.71,3,3
18385.64,0.25,-0.331,0.844,-43.95,-17.12,-20.84,3,3
18385.656,0.252,-0.355,0.85,-59.72,-16.54,-17.58,3,3
18385.656,0.276,-0.383,0.851,-71.54,-16.08,-14.86,3,3
18385.671,0.293,-0.404,0.866,-76.02,-8.24,-16.88,3,3
18385.687,0.292,-0.42,0.893,-70.1,-4.61,-20.17,3,3
18385.703,0.294,-0.421,0.918,-60.7,-2.56,-24.57,3,3
18385.703,0.287,-0.411,0.936,-49.75,-1.19,-28.72,3,3
18385.718,0.257,-0.361,0.96,-39.8,-0.7,-30.73,3,3
18385.718,0.257,-0.317,0.97,-32.72,-2.9,-28.96,3,3
18385.734,0.254,-0.288,0.964,-30.43,-5.55,-24.99,3,3
18385.734,0.276,-0.269,0.961,-33.72,-8.42,-20.23,3,3
18385.75,0.299,-0.277,0.944,-40.62,-10.38,-16.3,3,3
18385.765,0.31,-0.29,0.925,-49.53,-9.86,-13.52,3,3
18385.765,0.315,-0.316,0.917,-58.14,-7.57,-11.05,3,3
18385.781,0.315,-0.351,0.908,-64.36,-4.49,-8.42,3,3
18385.796,0.319,-0.384,0.905,-67.11,-1.43,-6.78,3,3
18385.796,0.323,-0.402,0.919,-66.01,0.95,-7.11,3,3
18385.812,0.317,-0.417,0.938,-62.04,2.62,-8.94,3,3
18385.828,0.308,-0.431,0.954,-55.48,2.78,-11.14,3,3
18385.828,0.295,-0.426,0.963,-46.63,1.56,-13.0,3,3
18385.843,0.297,-0.411,0.965,-37.35,-0.73,-14.22,3,3
18385.843,0.313,-0.398,0.955,-29.76,-3.02,-15.08,3,3
18385.859,0.333,-0.391,0.935,-25.03,-3.94,-15.5,3,3
18385.875,0.36,-0.384,0.91,-23.87,-2.5,-15.59,3,3
18385.89,0.371,-0.376,0.878,-25.61,1.71,-15.35,3,3
18385.89,0.371,-0.389,0.869,-30.55,8.27,-13.76,3,3
18385.906,0.354,-0.402,0.874,-35.58,16.36,-10.5,3,3
18385.906,0.352,-0.396,0.879,-38.85,20.91,-7.75,3,3
18385.921,0.324,-0.404,0.889,-40.8,24.75,-5.37,3,3
18385.937,0.271,-0.443,0.906,-44.62,25.09,-0.09,3,3
18385.937,0.253,-0.472,0.932,-49.2,22.22,8.24,3,3
18385.953,0.239,-0.508,0.93,-50.29,15.05,14.19,3,3
18385.968,0.265,-0.55,0.902,-49.56,5.1,16.88,3,3
18385.968,0.294,-0.586,0.859,-46.78,-2.08,14.56,3,3
18385.984,0.308,-0.62,0.828,-42.88,-5.1,10.1,3,3
18385.984,0.317,-0.63,0.8,-37.93,-5.43,5.65,3,3
18386.0,0.323,-0.622,0.768,-32.5,-2.99,1.71,3,3
18386.015,0.303,-0.604,0.75,-28.93,1.56,-1.28,3,3
18386.015,0.285,-0.596,0.743,-27.59,5.68,-2.47,3,3
18386.031,0.274,-0.572,0.754,-27.34,8.85,-2.93,3,3
18386.046,0.254,-0.564,0.751,-27.74,10.62,-2.66,3,3
18386.046,0.24,-0.564,0.747,-30.43,11.02,-1.13,3,3
18386.062,0.241,-0.572,0.74,-33.39,9.89,0.03,3,3
18386.078,0.248,-0.595,0.726,-35.0,8.58,0.43,3,3
18386.078,0.254,-0.613,0.711,-34.33,7.6,0.0,3,3
18386.093,0.261,-0.629,0.692,-31.59,7.81,-0.67,3,3
18386.093,0.27,-0.626,0.681,-28.35,9.09,-2.62,3,3
18386.109,0.259,-0.612,0.683,-24.35,11.08,-4.82,3,3
18386.125,0.241,-0.606,0.679,-21.18,12.76,-5.98,3,3
18386.14,0.238,-0.601,0.673,-20.75,13.55,-5.65,3,3
18386.14,0.24,-0.599,0.67,-22.52,14.98,-5.16,3,3
18386.156,0.245,-0.606,0.669,-25.15,16.72,-4.36,3,3
18386.156,0.248,-0.617,0.675,-28.2,18.28,-4.09,3,3
18386.171,0.249,-0.631,0.675,-30.55,19.53,-4.33,3,3
18386.187,0.255,-0.643,0.683,-30.88,20.54,-5.43,3,3
18386.187,0.249,-0.648,0.701,-28.11,21.33,-7.48,3,3
18386.203,0.239,-0.647,0.707,-23.07,21.52,-9.03,3,3
18386.218,0.235,-0.63,0.711,-18.65,21.09,-9.95,3,3
18386.218,0.237,-0.616,0.72,-15.87,19.14,-11.57,3,3
18386.234,0.24,-0.608,0.717,-14.37,16.79,-13.49,3,3
18386.234,0.247,-0.599,0.718,-15.2,14.71,-14.83,3,3
18386.25,0.257,-0.597,0.726,-17.4,13.79,-15.93,3,3
18386.265,0.261,-0.603,0.732,-19.47,13.15,-17.06,3,3
18386.281,0.265,-0.613,0.74,-20.39,12.02,-18.13,3,3
18386.281,0.265,-0.62,0.753,-19.29,10.62,-18.98,3,3
18386.296,0.265,-0.627,0.757,-15.93,8.21,-19.56,3,3
18386.296,0.273,-0.63,0.753,-11.78,5.28,-20.6,3,3
18386.312,0.274,-0.628,0.737,-7.42,2.44,-23.35,3,3
18386.328,0.282,-0.617,0.724,-4.27,-0.92,-27.28,3,3
18386.328,0.285,-0.596,0.72,-2.01,-3.48,-31.22,3,3
18386.343,0.279,-0.579,0.716,0.06,-5.52,-33.85,3,3
18386.359,0.281,-0.561,0.713,0.85,-8.58,-34.3,3,3
18386.359,0.282,-0.544,0.707,0.98,-11.44,-34.24,3,3
18386.375,0.277,-0.535,0.699,0.55,-14.56,-34.06,3,3
18386.375,0.286,-0.527,0.69,-0.89,-17.58,-32.81,3,3
18386.39,0.294,-0.529,0.68,-2.44,-20.17,-30.73,3,3
18386.406,0.308,-0.534,0.671,-3.02,-22.77,-27.34,3,3
18386.421,0.331,-0.537,0.66,-2.08,-23.47,-23.1,3,3
18386.421,0.365,-0.542,0.646,-1.98,-22.22,-19.5,3,3
18386.437,0.38,-0.562,0.639,-2.81,-18.25,-16.91,3,3
18386.437,0.378,-0.579,0.637,-3.88,-13.92,-14.83,3,3
18386.453,0.391,-0.59,0.642,-5.95,-10.53,-13.15,3,3
18386.468,0.4,-0.604,0.651,-7.23,-6.23,-12.6,3,3
18386.468,0.401,-0.616,0.662,-7.45,-2.38,-12.51,3,3
18386.484,0.408,-0.621,0.676,-7.02,0.85,-12.18,3,3
18386.484,0.394,-0.621,0.692,-5.4,4.33,-11.57,3,3
18386.5,0.37,-0.619,0.706,-2.99,6.13,-9.89,3,3
18386.515,0.362,-0.612,0.72,-1.8,5.16,-6.65,3,3
18386.515,0.356,-0.602,0.72,-1.74,3.75,-2.5,3,3
18386.531,0.355,-0.602,0.717,-3.3,2.04,2.04,3,3
18386.546,0.361,-0.615,0.716,-6.5,0.43,6.5,3,3
18386.546,0.375,-0.638,0.712,-10.07,-0.76,9.49,3,3
18386.562,0.393,-0.66,0.708,-12.51,-0.34,10.96,3,3
18386.578,0.397,-0.683,0.703,-13.46,1.65,11.02,3,3
18386.578,0.392,-0.702,0.701,-13.7,4.12,9.95,3,3
18386.593,0.388,-0.713,0.706,-13.12,6.13,8.18,3,3
18386.593,0.381,-0.722,0.709,-11.57,7.69,6.23,3,3
18386.609,0.375,-0.723,0.714,-9.28,8.7,3.97,3,3
18386.625,0.351,-0.716,0.723,-5.95,9.22,1.86,3,3
18386.625,0.33,-0.708,0.727,-3.48,7.9,0.7,3,3
18386.64,0.325,-0.692,0.728,-2.59,4.82,0.21,3,3
18386.656,0.324,-0.688,0.722,-3.08,1.4,0.43,3,3
18386.656,0.327,-0.69,0.713,-5.43,-3.23,1.86,3,3
18386.671,0.321,-0.68,0.71,-5.04,-4.55,2.96,3,3
18386.687,0.312,-0.678,0.696,-5.68,-6.47,4.82,3,3
18386.687,0.319,-0.673,0.672,-7.39,-7.29,6.53,3,3
18386.703,0.324,-0.679,0.664,-10.13,-7.54,7.72,3,3
18386.718,0.321,-0.684,0.659,-12.33,-7.02,8.91,3,3
18386.718,0.317,-0.686,0.658,-13.82,-6.23,9.92,3,3
18386.734,0.32,-0.695,0.664,-14.95,-6.13,10.68,3,3
18386.75,0.325,-0.702,0.668,-14.62,-6.26,10.83,3,3
18386.765,0.331,-0.709,0.667,-13.64,-6.26,10.01,3,3
18386.765,0.346,-0.715,0.664,-12.6,-5.46,8.36,3,3
18386.781,0.354,-0.722,0.654,-11.02,-3.11,5.86,3,3
18386.796,0.349,-0.717,0.654,-8.67,0.09,2.93,3,3
18386.796,0.337,-0.711,0.661,-6.04,2.9,-0.18,3,3
18386.796,0.33,-0.705,0.671,-3.81,4.91,-2.62,3,3
18386.812,0.32,-0.679,0.679,-1.04,5.89,-5.04,3,3
18386.828,0.304,-0.653,0.679,0.95,4.67,-7.42,3,3
18386.828,0.298,-0.661,0.697,-0.15,3.48,-7.29,3,3
18386.843,0.286,-0.648,0.709,-0.85,2.62,-5.4,3,3
18386.859,0.286,-0.638,0.706,-0.18,0.61,-3.81,3,3
18386.859,0.287,-0.637,0.688,-0.4,-2.69,-3.2,3,3
18386.875,0.309,-0.649,0.677,-1.98,-5.62,-2.53,3,3
18386.875,0.314,-0.66,0.663,-2.72,-5.71,-1.5,3,3
18386.89,0.326,-0.668,0.652,-2.96,-3.6,-0.12,3,3
18386.906,0.334,-0.678,0.646,-2.41,-0.46,0.12,3,3
18386.906,0.322,-0.681,0.652,-1.13,3.05,-0.82,3,3
18386.921,0.307,-0.675,0.667,0.0,4.79,-1.65,3,3
18386.937,0.303,-0.671,0.677,0.24,4.61,-2.2,3,3
18386.937,0.298,-0.666,0.684,0.64,3.88,-2.62,3,3
18386.953,0.285,-0.658,0.688,1.53,3.14,-2.11,3,3
18386.968,0.282,-0.657,0.687,1.4,1.53,-0.82,3,3
18386.968,0.29,-0.662,0.682,0.18,-0.52,0.79,3,3
18386.984,0.3,-0.673,0.674,-1.4,-1.71,2.11,3,3
18387.0,0.302,-0.687,0.668,-2.04,-1.22,3.17,3,3
18387.0,0.306,-0.694,0.666,-2.56,0.12,4.12,3,3
18387.015,0.314,-0.706,0.665,-3.72,1.59,4.27,3,3
18387.015,0.309,-0.712,0.666,-4.24,3.57,4.06,3,3
18387.031,0.299,-0.714,0.677,-4.06,4.88,4.06,3,3
18387.046,0.293,-0.722,0.681,-4.58,4.76,3.85,3,3
18387.046,0.299,-0.737,0.678,-5.83,4.27,3.42,3,3
18387.062,0.298,-0.747,0.679,-6.47,4.52,2.66,3,3
18387.078,0.298,-0.758,0.679,-6.47,4.36,1.13,3,3
18387.078,0.301,-0.765,0.685,-5.65,4.06,-1.19,3,3
18387.093,0.289,-0.762,0.696,-2.75,4.0,-3.72,3,3
18387.109,0.282,-0.749,0.705,0.67,2.69,-5.49,3,3
18387.109,0.29,-0.737,0.698,2.41,0.61,-6.71,3,3
18387.125,0.287,-0.721,0.688,2.5,-0.34,-7.87,3,3
18387.125,0.286,-0.716,0.686,1.01,-0.79,-7.69,3,3
18387.14,0.292,-0.711,0.681,-1.59,-1.59,-6.99,3,3
18387.156,0.3,-0.718,0.668,-4.61,-1.53,-6.26,3,3
18387.156,0.302,-0.729,0.664,-7.29,-0.27,-6.23,3,3
18387.171,0.306,-0.743,0.657,-8.45,1.46,-6.47,3,3
18387.187,0.304,-0.749,0.652,-8.33,3.69,-6.81,3,3
18387.187,0.286,-0.748,0.654,-6.96,5.83,-7.72,3,3
18387.203,0.273,-0.75,0.652,-5.55,6.47,-8.0,3,3
18387.218,0.269,-0.754,0.642,-6.04,6.16,-7.32,3,3
18387.218,0.257,-0.77,0.63,-9.0,6.07,-6.41,3,3
18387.234,0.25,-0.794,0.614,-14.07,5.34,-5.16,3,3
18387.234,0.253,-0.813,0.601,-18.83,4.36,-4.76,3,3
18387.25,0.255,-0.822,0.594,-21.3,4.67,-5.83,3,3
18387.265,0.249,-0.83,0.589,-20.02,6.5,-7.48,3,3
18387.265,0.224,-0.822,0.588,-16.42,8.45,-8.45,3,3
18387.281,0.212,-0.799,0.588,-13.7,9.03,-7.69,3,3
18387.296,0.213,-0.777,0.576,-13.79,9.16,-6.53,3,3
18387.296,0.218,-0.773,0.555,-17.03,9.52,-5.74,3,3
18387.312,0.226,-0.766,0.534,-21.73,10.93,-5.25,3,3
18387.328,0.211,-0.765,0.522,-25.09,13.92,-6.01,3,3
18387.328,0.174,-0.767,0.515,-26.98,15.59,-6.59,3,3
18387.343,0.17,-0.75,0.504,-27.53,14.47,-7.02,3,3
18387.343,0.15,-0.754,0.467,-27.16,14.71,-8.09,3,3
18387.359,0.177,-0.735,0.448,-27.38,14.8,-9.31,3,3
18387.375,0.214,-0.713,0.417,-25.42,19.44,-10.65,3,3
18387.39,0.254,-0.675,0.413,-24.08,30.03,-10.1,3,3
18387.39,0.27,-0.642,0.462,-24.78,44.5,-7.42,3,3
18387.406,0.245,-0.601,0.512,-29.54,59.3,-0.82,3,3
18387.406,0.218,-0.592,0.582,-39.8,69.37,8.0,3,3
18387.421,0.206,-0.641,0.65,-49.47,72.76,16.63,3,3
18387.437,0.215,-0.697,0.687,-54.51,72.79,23.8,3,3
18387.437,0.251,-0.747,0.727,-54.6,71.08,25.51,3,3
18387.453,0.273,-0.796,0.748,-49.75,68.85,21.45,3,3
18387.468,0.265,-0.813,0.773,-41.29,65.37,13.76,3,3
18387.468,0.246,-0.812,0.785,-30.34,58.87,4.27,3,3
18387.484,0.261,-0.804,0.794,-22.64,49.99,-4.33,3,3
18387.484,0.276,-0.786,0.788,-17.46,41.96,-11.87,3,3
18387.5,0.291,-0.783,0.767,-14.77,36.74,-16.54,3,3
18387.515,0.319,-0.77,0.76,-13.92,34.09,-19.1,3,3
18387.515,0.312,-0.75,0.749,-12.15,33.36,-21.39,3,3
18387.531,0.295,-0.731,0.757,-13.28,31.62,-22.28,3,3
18387.546,0.277,-0.735,0.758,-15.84,27.53,-22.64,3,3
18387.562,0.275,-0.753,0.729,-17.33,22.34,-23.65,3,3
18387.562,0.282,-0.763,0.686,-16.69,17.88,-25.51,3,3
18387.578,0.301,-0.762,0.656,-14.22,15.17,-27.95,3,3
18387.578,0.339,-0.743,0.65,-10.38,14.83,-31.13,3,3
18387.593,0.353,-0.711,0.644,-6.32,17.67,-34.27,3,3
18387.593,0.334,-0.69,0.656,-5.86,21.79,-34.24,3,3
18387.609,0.305,-0.673,0.696,-6.56,23.5,-31.28,3,3
18387.625,0.244,-0.675,0.7,-4.94,21.79,-25.27,3,3
18387.64,0.235,-0.68,0.673,-6.84,16.33,-16.17,3,3
18387.64,0.264,-0.686,0.647,-18.8,7.66,-2.69,3,3
18387.656,0.278,-0.729,0.618,-24.05,7.32,1.25,3,3
18387.656,0.314,-0.782,0.611,-22.25,10.1,2.5,3,3
18387.671,0.337,-0.813,0.613,-16.66,13.12,1.01,3,3
18387.687,0.301,-0.795,0.626,-12.94,13.95,-2.17,3,3
18387.687,0.254,-0.79,0.627,-11.32,12.42,-4.15,3,3
18387.703,0.248,-0.788,0.627,-10.74,7.97,-4.12,3,3
18387.718,0.29,-0.777,0.61,-9.92,3.3,-3.69,3,3
18387.718,0.325,-0.761,0.582,-9.92,1.98,-3.85,3,3
18387.734,0.36,-0.75,0.584,-11.78,2.9,-4.52,3,3
18387.734,0.388,-0.732,0.609,-13.03,3.91,-5.55,3,3
18387.75,0.389,-0.712,0.638,-12.51,4.55,-6.78,3,3
18387.765,0.374,-0.683,0.653,-10.68,3.69,-7.35,3,3
18387.765,0.355,-0.67,0.653,-8.0,0.24,-7.17,3,3
18387.781,0.347,-0.664,0.639,-4.76,-5.52,-6.62,3,3
18387.796,0.346,-0.654,0.61,-1.5,-11.2,-5.86,3,3
18387.796,0.365,-0.642,0.585,0.03,-15.47,-4.76,3,3
18387.812,0.395,-0.628,0.587,0.24,-18.34,-3.94,3,3
18387.828,0.407,-0.619,0.598,1.43,-19.78,-4.18,3,3
18387.828,0.394,-0.598,0.621,4.97,-21.49,-4.52,3,3
18387.843,0.371,-0.572,0.639,8.88,-24.78,-2.93,3,3
18387.843,0.356,-0.561,0.636,9.89,-29.76,0.92,3,3
18387.859,0.342,-0.573,0.62,9.34,-34.64,6.26,3,3
18387.875,0.337,-0.593,0.603,8.27,-37.9,13.09,3,3
18387.875,0.338,-0.626,0.59,7.29,-39.4,20.36,3,3
18387.89,0.342,-0.66,0.587,7.81,-40.19,26.12,3,3
18387.906,0.335,-0.689,0.569,9.61,-40.1,30.27,3,3
18387.921,0.306,-0.726,0.558,10.01,-38.94,33.91,3,3
18387.921,0.306,-0.766,0.56,8.42,-38.7,36.74,3,3
18387.937,0.304,-0.797,0.569,8.21,-38.3,37.72,3,3
18387.937,0.278,-0.831,0.571,8.48,-37.05,37.63,3,3
18387.953,0.275,-0.865,0.574,8.12,-37.32,36.99,3,3
18387.968,0.286,-0.877,0.576,9.52,-38.58,34.3,3,3
18387.968,0.288,-0.875,0.577,11.69,-38.97,30.4,3,3
18387.984,0.294,-0.873,0.591,12.85,-39.25,26.92,3,3
18387.984,0.304,-0.863,0.601,14.47,-39.61,23.74,3,3
18388.0,0.312,-0.842,0.604,16.69,-39.58,20.94,3,3
18388.015,0.303,-0.82,0.604,17.64,-38.64,19.81,3,3
18388.015,0.305,-0.799,0.6,17.0,-38.36,20.29,3,3
18388.031,0.31,-0.784,0.608,15.35,-38.24,21.33,3,3
18388.046,0.293,-0.779,0.62,13.98,-37.72,23.07,3,3
18388.046,0.286,-0.789,0.613,12.76,-38.85,25.7,3,3
18388.062,0.298,-0.807,0.597,11.38,-40.71,27.74,3,3
18388.078,0.306,-0.818,0.576,10.04,-41.57,28.23,3,3
18388.078,0.319,-0.829,0.564,8.39,-41.47,27.22,3,3
18388.093,0.327,-0.842,0.563,9.06,-40.01,25.45,3,3
18388.093,0.331,-0.821,0.567,11.32,-38.12,23.59,3,3
18388.109,0.326,-0.79,0.582,13.09,-35.74,22.61,3,3
18388.125,0.313,-0.763,0.591,13.0,-35.04,22.52,3,3
18388.125,0.308,-0.749,0.591,12.02,-36.07,24.05,3,3
18388.14,0.316,-0.745,0.59,11.44,-36.71,26.8,3,3
18388.156,0.308,-0.744,0.587,10.19,-36.07,28.72,3,3
18388.156,0.3,-0.753,0.592,8.61,-36.01,29.36,3,3
18388.171,0.298,-0.761,0.598,8.06,-36.9,28.78,3,3
18388.187,0.297,-0.765,0.61,9.16,-37.78,27.13,3,3
18388.187,0.293,-0.762,0.618,11.02,-38.88,25.27,3,3
18388.203,0.289,-0.756,0.615,12.33,-40.01,23.87,3,3
18388.218,0.276,-0.746,0.616,12.63,-40.83,23.41,3,3
18388.218,0.26,-0.743,0.613,12.21,-41.54,24.17,3,3
18388.234,0.259,-0.742,0.613,11.51,-42.33,25.97,3,3
18388.234,0.252,-0.743,0.612,11.2,-42.21,27.53,3,3
18388.25,0.253,-0.746,0.61,10.62,-42.15,29.42,3,3
18388.265,0.259,-0.746,0.618,9.64,-41.78,30.55,3,3
18388.265,0.249,-0.751,0.624,9.95,-41.26,30.7,3,3
18388.281,0.233,-0.746,0.634,11.17,-41.63,31.22,3,3
18388.296,0.227,-0.754,0.63,11.72,-42.76,31.56,3,3
18388.296,0.233,-0.772,0.628,12.42,-44.1,31.86,3,3
18388.312,0.237,-0.779,0.625,13.0,-44.62,32.11,3,3
18388.328,0.24,-0.789,0.62,12.97,-45.14,31.77,3,3
18388.328,0.234,-0.793,0.621,13.46,-45.59,30.73,3,3
18388.343,0.226,-0.787,0.626,14.44,-45.9,30.06,3,3
18388.359,0.22,-0.775,0.627,14.83,-46.48,30.12,3,3
18388.359,0.214,-0.776,0.613,14.13,-46.66,31.31,3,3
18388.375,0.217,-0.791,0.594,12.18,-46.54,33.51,3,3
18388.375,0.232,-0.805,0.578,10.32,-45.63,35.04,3,3
18388.39,0.227,-0.81,0.566,9.37,-43.06,35.4,3,3
18388.406,0.221,-0.812,0.572,8.73,-40.31,35.1,3,3
18388.406,0.219,-0.805,0.585,8.27,-37.84,34.46,3,3
18388.421,0.214,-0.796,0.602,7.93,-36.01,34.0,3,3
18388.437,0.224,-0.796,0.625,7.51,-35.55,33.63,3,3
18388.437,0.222,-0.788,0.638,8.15,-35.95,33.17,3,3
18388.453,0.217,-0.779,0.637,9.74,-37.29,32.96,3,3
18388.468,0.219,-0.764,0.639,10.25,-39.06,33.23,3,3
18388.468,0.219,-0.752,0.631,9.0,-39.95,34.03,3,3
18388.484,0.204,-0.747,0.631,5.55,-41.26,35.13,3,3
18388.484,0.233,-0.786,0.661,4.3,-38.94,38.3,3,3
18388.5,0.213,-0.74,0.621,8.18,-42.54,37.9,3,3
18388.515,0.247,-0.743,0.633,6.16,-45.32,35.13,3,3
18388.515,0.21,-0.767,0.644,3.45,-43.52,33.54,3,3
18388.531,0.223,-0.758,0.648,5.86,-45.41,33.78,3,3
18388.546,0.208,-0.75,0.628,9.86,-44.31,33.85,3,3
18388.546,0.191,-0.75,0.645,10.62,-44.19,35.52,3,3
18388.562,0.192,-0.749,0.643,11.26,-46.27,37.05,3,3
18388.578,0.202,-0.754,0.642,10.59,-47.98,37.93,3,3
18388.578,0.209,-0.768,0.645,9.28,-48.07,38.09,3,3
18388.593,0.218,-0.764,0.647,9.4,-47.52,38.27,3,3
18388.609,0.211,-0.76,0.643,9.25,-46.91,38.48,3,3
18388.609,0.211,-0.777,0.65,7.63,-46.91,39.25,3,3
18388.625,0.208,-0.787,0.661,8.33,-46.75,40.07,3,3
18388.625,0.197,-0.783,0.659,10.41,-48.07,38.7,3,3
18388.64,0.204,-0.797,0.649,12.02,-49.68,35.98,3,3
18388.656,0.232,-0.81,0.644,15.59,-49.53,32.99,3,3
18388.656,0.233,-0.773,0.636,16.75,-48.25,31.19,3,3
18388.671,0.218,-0.759,0.644,15.41,-47.27,31.34,3,3
18388.687,0.207,-0.747,0.647,12.97,-47.36,33.3,3,3
18388.687,0.212,-0.749,0.647,10.56,-48.22,35.77,3,3
18388.703,0.215,-0.742,0.64,9.83,-48.07,38.33,3,3
18388.703,0.205,-0.738,0.633,9.31,-47.55,40.01,3,3
18388.718,0.194,-0.741,0.624,8.09,-47.73,39.98,3,3
18388.734,0.189,-0.74,0.613,8.39,-48.31,39.0,3,3
18388.75,0.19,-0.741,0.605,9.09,-48.13,38.51,3,3
18388.75,0.201,-0.733,0.604,9.09,-46.82,38.94,3,3
18388.765,0.2,-0.727,0.624,8.45,-44.19,39.95,3,3
18388.765,0.183,-0.737,0.648,7.48,-41.32,42.66,3,3
18388.781,0.166,-0.75,0.661,5.65,-40.77,46.05,3,3
18388.796,0.165,-0.775,0.673,3.6,-42.63,48.1,3,3
18388.796,0.158,-0.806,0.67,2.26,-44.83,48.07,3,3
18388.812,0.166,-0.836,0.664,1.25,-48.55,46.51,3,3
18388.828,0.171,-0.868,0.664,1.59,-51.09,43.82,3,3
18388.828,0.183,-0.902,0.69,5.31,-49.38,40.71,3,3
18388.843,0.135,-0.871,0.636,14.37,-50.33,33.78,3,3
18388.859,0.192,-0.859,0.632,17.52,-58.29,25.61,3,3
18388.859,0.145,-0.853,0.63,17.18,-55.27,20.2,3,3
18388.875,0.124,-0.85,0.637,17.73,-57.37,17.58,3,3
18388.875,0.115,-0.832,0.632,19.35,-59.48,15.66,3,3
18388.89,0.095,-0.835,0.616,20.23,-59.91,13.89,3,3
18388.906,0.096,-0.838,0.592,21.06,-61.92,12.6,3,3
18388.921,0.102,-0.836,0.548,21.0,-63.36,10.99,3,3
18388.921,0.108,-0.842,0.51,20.11,-62.32,8.51,3,3
18388.937,0.122,-0.842,0.493,18.95,-59.57,6.29,3,3
18388.937,0.126,-0.834,0.496,18.46,-54.75,3.72,3,3
18388.953,0.121,-0.828,0.511,20.94,-50.63,0.43,3,3
18388.968,0.131,-0.808,0.527,25.24,-48.19,-1.77,3,3
18388.968,0.135,-0.77,0.524,28.6,-45.78,-2.04,3,3
18388.984,0.155,-0.727,0.519,29.66,-43.67,0.03,3,3
18388.984,0.167,-0.693,0.515,27.31,-40.22,5.04,3,3
18389.0,0.176,-0.682,0.524,21.82,-35.13,13.28,3,3
18389.015,0.167,-0.71,0.533,14.31,-30.15,24.35,3,3
18389.015,0.194,-0.726,0.573,7.51,-27.5,33.72,3,3
18389.031,0.157,-0.767,0.574,6.78,-21.94,39.09,3,3
18389.046,0.21,-0.756,0.589,5.8,-27.34,36.56,3,3
18389.046,0.195,-0.796,0.595,4.91,-24.32,34.3,3,3
18389.062,0.201,-0.808,0.6,5.19,-23.77,34.36,3,3
18389.078,0.217,-0.812,0.601,5.62,-22.19,35.46,3,3
18389.078,0.214,-0.807,0.606,5.1,-18.8,35.52,3,3
18389.093,0.19,-0.826,0.623,3.02,-17.55,35.31,3,3
18389.109,0.182,-0.841,0.641,1.89,-18.43,35.62,3,3
18389.109,0.189,-0.843,0.64,2.72,-19.96,35.49,3,3
18389.125,0.202,-0.844,0.64,3.3,-20.57,34.82,3,3
18389.125,0.192,-0.849,0.63,3.97,-21.24,33.69,3,3
18389.14,0.202,-0.848,0.633,3.85,-21.94,33.45,3,3
18389.156,0.194,-0.843,0.618,3.81,-21.79,32.32,3,3
18389.156,0.189,-0.845,0.61,3.2,-22.68,29.97,3,3
18389.171,0.195,-0.845,0.607,2.62,-23.19,28.44,3,3
18389.187,0.2,-0.829,0.609,2.56,-22.64,27.83,3,3
18389.187,0.19,-0.808,0.607,2.69,-21.3,28.02,3,3
18389.203,0.187,-0.802,0.612,1.95,-20.42,29.11,3,3
18389.218,0.186,-0.8,0.616,0.67,-19.68,30.43,3,3
18389.218,0.181,-0.803,0.619,0.52,-19.96,31.31,3,3
18389.234,0.187,-0.793,0.627,0.64,-21.45,31.59,3,3
18389.234,0.179,-0.802,0.63,0.76,-23.01,31.62,3,3
18389.25,0.178,-0.802,0.622,1.77,-24.78,33.14,3,3
18389.265,0.184,-0.786,0.601,2.47,-26.83,34.46,3,3
18389.265,0.176,-0.792,0.575,0.49,-27.89,34.82,3,3
18389.281,0.177,-0.808,0.562,-2.35,-28.72,35.37,3,3
18389.296,0.174,-0.823,0.554,-3.97,-28.44,34.7,3,3
18389.296,0.157,-0.854,0.553,-4.82,-27.41,32.99,3,3
18389.312,0.149,-0.871,0.56,-3.57,-27.04,31.25,3,3
18389.328,0.156,-0.862,0.564,-0.46,-26.89,28.99,3,3
18389.343,0.15,-0.844,0.55,2.04,-26.67,26.55,3,3
18389.343,0.15,-0.835,0.545,2.23,-26.09,26.12,3,3
18389.359,0.152,-0.811,0.543,2.35,-24.96,26.76,3,3
18389.359,0.151,-0.783,0.542,1.83,-23.35,28.17,3,3
18389.375,0.145,-0.768,0.536,-0.76,-21.64,29.94,3,3
18389.375,0.141,-0.772,0.532,-4.21,-20.2,32.32,3,3
18389.39,0.138,-0.774,0.519,-6.62,-18.37,35.16,3,3
18389.406,0.152,-0.773,0.501,-8.3,-16.08,37.17,3,3
18389.406,0.162,-0.78,0.497,-8.79,-12.51,38.42,3,3
18389.421,0.158,-0.778,0.504,-9.77,-7.54,40.41,3,3
18389.437,0.137,-0.781,0.517,-11.57,-3.33,41.84,3,3
18389.437,0.124,-0.797,0.543,-13.06,-1.22,41.93,3,3
18389.453,0.121,-0.805,0.561,-11.81,-0.98,40.56,3,3
18389.468,0.114,-0.804,0.581,-8.27,-1.43,38.3,3,3
18389.468,0.114,-0.797,0.595,-4.06,-2.56,36.93,3,3
18389.484,0.112,-0.778,0.596,-1.4,-4.21,36.59,3,3
18389.484,0.104,-0.787,0.601,-2.04,-5.68,37.11,3,3
18389.5,0.1,-0.789,0.603,-3.3,-6.99,37.54,3,3
18389.515,0.099,-0.797,0.603,-3.88,-9.86,36.29,3,3
18389.515,0.099,-0.816,0.605,-4.67,-12.48,35.37,3,3
18389.531,0.104,-0.826,0.599,-4.0,-14.71,33.78,3,3
18389.546,0.109,-0.826,0.592,-2.14,-17.52,30.95,3,3
18389.546,0.103,-0.819,0.586,-0.4,-19.47,27.68,3,3
18389.562,0.096,-0.809,0.583,1.46,-21.36,25.82,3,3
18389.578,0.103,-0.785,0.574,2.81,-21.97,26.09,3,3
18389.578,0.104,-0.776,0.561,2.53,-22.25,27.04,3,3
18389.593,0.095,-0.786,0.563,0.43,-21.15,29.36,3,3
18389.593,0.082,-0.79,0.569,-1.62,-20.87,31.28,3,3
18389.609,0.082,-0.806,0.583,-1.53,-23.26,31.4,3,3
18389.625,0.073,-0.808,0.584,0.61,-25.7,29.39,3,3
18389.625,0.077,-0.81,0.585,3.66,-27.31,27.25,3,3
18389.64,0.079,-0.797,0.585,6.78,-28.78,26.28,3,3
18389.656,0.062,-0.761,0.56,7.54,-28.81,28.32,3,3
18389.656,0.056,-0.752,0.564,6.23,-27.74,31.89,3,3
18389.671,0.047,-0.757,0.551,5.01,-27.92,34.61,3,3
18389.687,0.044,-0.781,0.556,3.02,-27.5,37.23,3,3
18389.687,0.043,-0.798,0.554,2.62,-26.67,38.88,3,3
18389.703,0.053,-0.816,0.561,2.56,-26.95,38.97,3,3
18389.718,0.047,-0.827,0.567,2.9,-26.8,37.51,3,3
18389.718,0.037,-0.831,0.578,4.27,-27.44,36.07,3,3
18389.734,0.033,-0.824,0.578,5.16,-28.38,34.55,3,3
18389.734,0.018,-0.825,0.569,5.01,-29.11,32.87,3,3
18389.75,0.009,-0.841,0.569,4.33,-29.66,31.98,3,3
18389.765,0.022,-0.852,0.569,4.61,-29.88,31.22,3,3
18389.781,0.039,-0.845,0.561,5.95,-29.05,29.02,3,3
18389.781,0.03,-0.832,0.568,7.63,-27.68,26.06,3,3
18389.796,0.015,-0.82,0.577,9.09,-27.62,23.56,3,3
18389.796,0.011,-0.813,0.581,10.5,-28.57,22.34,3,3
18389.812,0.005,-0.815,0.591,10.53,-29.11,22.64,3,3
18389.828,0.011,-0.833,0.607,9.0,-29.97,23.22,3,3
18389.828,0.028,-0.857,0.617,8.61,-31.37,21.76,3,3
18389.843,0.033,-0.869,0.625,10.22,-32.9,17.33,3,3
18389.859,0.041,-0.872,0.631,13.55,-35.52,11.23,3,3
18389.859,0.047,-0.845,0.635,17.61,-38.45,6.26,3,3
18389.875,0.041,-0.804,0.632,20.63,-40.28,4.24,3,3
18389.875,0.023,-0.766,0.616,21.42,-41.29,5.55,3,3
18389.89,0.002,-0.737,0.596,18.25,-41.6,9.43,3,3
18389.906,-0.013,-0.742,0.578,13.18,-41.05,14.28,3,3
18389.906,-0.01,-0.757,0.563,9.58,-39.61,18.86,3,3
18389.921,0.001,-0.767,0.554,9.19,-36.99,20.91,3,3
18389.937,0.016,-0.757,0.554,10.07,-33.69,21.73,3,3
18389.937,0.014,-0.724,0.565,10.5,-30.24,22.98,3,3
18389.953,-0.001,-0.704,0.582,9.61,-26.92,25.51,3,3
18389.953,-0.027,-0.693,0.592,8.09,-24.87,29.85,3,3
18389.968,-0.042,-0.7,0.6,5.4,-23.62,36.19,3,3
18389.984,-0.059,-0.737,0.608,1.77,-22.55,43.24,3,3
18390.0,-0.066,-0.787,0.606,-1.13,-22.1,48.71,3,3
18390.0,-0.068,-0.84,0.605,-1.37,-22.68,50.08,3,3
18390.015,-0.07,-0.871,0.602,0.49,-23.77,47.76,3,3
18390.015,-0.074,-0.889,0.597,3.39,-24.93,43.28,3,3
18390.031,-0.081,-0.896,0.595,7.11,-26.4,37.97,3,3
18390.046,-0.091,-0.886,0.579,10.38,-26.86,34.61,3,3
18390.046,-0.091,-0.876,0.565,10.71,-26.15,33.36,3,3
18390.062,-0.088,-0.871,0.555,8.61,-24.41,32.78,3,3
18390.078,-0.086,-0.879,0.564,5.55,-21.79,32.38,3,3
18390.093,-0.083,-0.883,0.59,3.6,-20.11,30.98,3,3
18390.093,-0.078,-0.891,0.611,4.85,-19.84,28.14,3,3
18390.109,-0.073,-0.887,0.623,8.15,-20.48,24.93,3,3
18390.109,-0.08,-0.877,0.631,12.15,-21.36,21.27,3,3
18390.125,-0.098,-0.861,0.636,15.02,-23.26,17.27,3,3
18390.125,-0.119,-0.854,0.632,16.88,-26.09,13.03,3,3
18390.14,-0.14,-0.85,0.622,19.38,-29.15,8.27,3,3
18390.156,-0.154,-0.845,0.602,22.8,-31.77,3.78,3,3
18390.156,-0.137,-0.83,0.573,25.76,-33.81,0.4,3,3
18390.171,-0.103,-0.807,0.544,28.32,-33.91,-2.29,3,3
18390.187,-0.079,-0.772,0.532,30.09,-30.73,-3.42,3,3
18390.187,-0.076,-0.739,0.536,30.21,-24.81,-1.53,3,3
18390.203,-0.083,-0.714,0.55,28.08,-18.25,3.94,3,3
18390.218,-0.097,-0.706,0.57,22.61,-12.18,12.76,3,3
18390.218,-0.121,-0.728,0.584,14.77,-7.02,23.04,3,3
18390.234,-0.113,-0.765,0.602,6.99,-4.12,32.38,3,3
18390.234,-0.095,-0.813,0.614,2.14,-2.69,37.48,3,3
18390.25,-0.08,-0.867,0.632,0.55,-2.14,37.48,3,3
18390.265,-0.076,-0.901,0.651,2.87,-2.04,33.88,3,3
18390.281,-0.076,-0.914,0.672,7.26,-3.27,27.22,3,3
18390.281,-0.071,-0.919,0.683,11.72,-6.35,19.35,3,3
18390.296,-0.057,-0.902,0.69,16.27,-10.68,11.63,3,3
18390.296,-0.034,-0.872,0.69,20.78,-14.37,4.85,3,3
18390.312,-0.018,-0.834,0.69,23.13,-16.97,0.34,3,3
18390.328,-0.013,-0.806,0.68,23.38,-18.43,-1.74,3,3
18390.328,-0.016,-0.779,0.663,22.16,-19.62,-1.19,3,3
18390.343,-0.017,-0.77,0.641,19.56,-20.75,1.1,3,3
18390.359,0.002,-0.776,0.614,16.51,-20.69,5.25,3,3
18390.359,0.034,-0.777,0.59,13.15,-18.49,9.4,3,3
18390.375,0.052,-0.786,0.583,9.49,-13.98,12.54,3,3
18390.375,0.057,-0.795,0.601,6.07,-8.7,14.59,3,3
18390.39,0.065,-0.796,0.635,4.36,-4.52,15.78,3,3
18390.406,0.068,-0.795,0.663,4.33,-2.53,15.66,3,3
18390.406,0.067,-0.791,0.695,5.1,-2.17,14.68,3,3
18390.421,0.049,-0.778,0.718,7.08,-2.99,13.76,3,3
18390.437,0.018,-0.773,0.72,8.12,-5.71,14.37,3,3
18390.437,0.016,-0.778,0.708,6.62,-9.95,16.02,3,3
18390.453,0.025,-0.794,0.692,4.36,-13.12,16.79,3,3
18390.468,0.026,-0.806,0.677,2.84,-14.31,16.48,3,3
18390.468,0.026,-0.813,0.667,3.39,-14.22,14.37,3,3
18390.484,0.015,-0.81,0.663,5.89,-13.79,10.8,3,3
18390.5,-0.003,-0.804,0.667,9.25,-13.06,7.48,3,3
18390.5,-0.017,-0.78,0.672,13.03,-12.73,5.22,3,3
18390.515,-0.04,-0.751,0.665,14.59,-12.54,4.64,3,3
18390.531,-0.047,-0.744,0.672,10.83,-13.52,5.8,3,3
18390.531,-0.037,-0.748,0.678,5.89,-14.92,7.97,3,3
18390.546,-0.029,-0.754,0.675,3.08,-15.02,10.5,3,3
18390.546,-0.017,-0.76,0.672,0.55,-14.07,13.06,3,3
18390.562,-0.023,-0.764,0.674,-2.14,-12.57,14.74,3,3
18390.578,-0.043,-0.775,0.671,-5.13,-11.63,15.26,3,3
18390.578,-0.045,-0.79,0.67,-7.57,-11.84,14.65,3,3
18390.593,-0.049,-0.806,0.673,-7.17,-12.02,13.0,3,3
18390.593,-0.046,-0.806,0.674,-1.19,-11.75,8.03,3,3
18390.609,-0.035,-0.795,0.677,1.1,-10.96,5.68,3,3
18390.625,-0.036,-0.781,0.684,1.62,-10.38,5.58,3,3
18390.625,-0.037,-0.75,0.692,-0.18,-10.56,6.93,3,3
18390.64,-0.035,-0.752,0.688,-2.75,-10.53,8.39,3,3
18390.656,-0.034,-0.757,0.69,-5.25,-10.28,9.98,3,3
18390.656,-0.03,-0.762,0.696,-6.5,-10.04,11.54,3,3
18390.671,-0.03,-0.764,0.696,-6.26,-9.95,12.91,3,3
18390.687,-0.029,-0.769,0.693,-6.81,-9.86,13.64,3,3
18390.687,-0.032,-0.78,0.701,-7.11,-10.01,13.06,3,3
18390.703,-0.037,-0.789,0.706,-5.28,-10.77,11.66,3,3
18390.718,-0.032,-0.789,0.696,-3.14,-12.42,9.49,3,3
18390.718,-0.02,-0.784,0.687,-1.86,-13.4,7.11,3,3
18390.734,-0.021,-0.774,0.686,-1.16,-13.09,4.79,3,3
18390.734,-0.031,-0.764,0.689,-0.46,-12.48,3.3,3,3
18390.75,-0.045,-0.751,0.687,0.43,-12.54,2.84,3,3
18390.765,-0.056,-0.743,0.683,0.24,-13.4,3.11,3,3
18390.765,-0.06,-0.747,0.677,-0.73,-14.74,3.97,3,3
18390.781,-0.057,-0.766,0.666,-1.46,-15.96,5.19,3,3
18390.796,-0.044,-0.777,0.653,-1.19,-16.75,5.52,3,3
18390.796,-0.039,-0.782,0.636,-0.12,-16.51,3.72,3,3
18390.812,-0.043,-0.785,0.63,0.58,-15.5,1.22,3,3
18390.828,-0.047,-0.781,0.628,1.68,-14.5,-1.13,3,3
18390.828,-0.048,-0.764,0.623,3.45,-13.67,-3.17,3,3
18390.843,-0.052,-0.744,0.617,3.94,-12.54,-4.15,3,3
18390.859,-0.058,-0.73,0.61,2.14,-11.32,-3.33,3,3
18390.859,-0.05,-0.735,0.602,-0.46,-10.32,-1.5,3,3
18390.875,-0.038,-0.739,0.6,-1.46,-8.55,0.46,3,3
18390.875,-0.037,-0.737,0.604,-1.46,-5.34,2.23,3,3
18390.89,-0.041,-0.737,0.611,-1.65,-2.96,3.3,3,3
18390.906,-0.045,-0.746,0.626,-1.53,-1.71,3.88,3,3
18390.906,-0.044,-0.743,0.638,-1.46,-0.92,4.88,3,3
18390.921,-0.039,-0.747,0.648,-1.34,-0.79,5.71,3,3
18390.937,-0.042,-0.75,0.656,-0.85,-0.79,6.04,3,3
18390.937,-0.039,-0.754,0.664,-0.46,-1.34,6.23,3,3
18390.953,-0.035,-0.765,0.66,-0.89,-2.17,5.83,3,3
18390.968,-0.029,-0.773,0.654,-1.28,-2.44,5.22,3,3
18390.968,-0.029,-0.776,0.655,-1.68,-2.14,4.55,3,3
18390.984,-0.022,-0.788,0.657,-2.23,-1.92,3.36,3,3
18391.0,-0.016,-0.798,0.665,-1.89,-1.37,1.4,3,3
18391.0,-0.02,-0.8,0.667,-0.52,-0.98,-1.07,3,3
18391.015,-0.021,-0.798,0.671,0.76,-1.31,-3.3,3,3
18391.015,-0.02,-0.792,0.674,1.83,-1.8,-5.07,3,3
18391.031,-0.025,-0.784,0.671,2.69,-2.08,-5.92,3,3
18391.046,-0.025,-0.775,0.674,2.96,-2.56,-6.01,3,3
18391.046,-0.024,-0.772,0.668,3.2,-3.42,-5.34,3,3
18391.062,-0.019,-0.768,0.659,2.47,-3.81,-4.15,3,3
18391.078,-0.013,-0.772,0.657,0.49,-4.06,-3.36,3,3
18391.078,-0.001,-0.784,0.656,-1.34,-4.0,-3.17,3,3
18391.093,0.009,-0.797,0.665,-1.62,-2.87,-2.69,3,3
18391.093,0.021,-0.804,0.677,-1.95,-0.92,-1.98,3,3
18391.109,0.021,-0.822,0.694,-3.6,0.82,-2.08,3,3
18391.125,0.006,-0.839,0.708,-5.31,1.28,-2.84,3,3
18391.125,-0.004,-0.852,0.718,-6.41,-0.06,-4.09,3,3
18391.14,-0.008,-0.863,0.718,-6.26,-3.51,-6.84,3,3
18391.156,0.001,-0.875,0.706,-3.69,-8.09,-11.2,3,3
18391.156,0.02,-0.858,0.691,0.58,-11.08,-15.41,3,3
18391.171,0.037,-0.826,0.668,3.08,-11.69,-18.46,3,3
18391.187,0.037,-0.8,0.657,2.29,-10.59,-20.02,3,3
18391.187,0.033,-0.789,0.657,-0.34,-9.03,-19.99,3,3
18391.203,0.023,-0.777,0.658,-2.29,-7.45,-19.07,3,3
18391.203,0.01,-0.769,0.659,-2.87,-6.59,-17.91,3,3
18391.218,0.014,-0.763,0.654,-2.72,-7.11,-16.72,3,3
18391.234,0.029,-0.755,0.646,-2.26,-7.75,-16.33,3,3
18391.234,0.041,-0.754,0.635,-1.89,-7.57,-16.27,3,3
18391.25,0.046,-0.744,0.632,-2.41,-6.26,-15.99,3,3
18391.265,0.049,-0.741,0.633,-2.87,-4.82,-15.9,3,3
18391.265,0.05,-0.733,0.638,-2.26,-3.66,-16.02,3,3
18391.281,0.05,-0.721,0.637,-0.92,-2.69,-15.96,3,3
18391.296,0.052,-0.701,0.64,-0.58,-1.59,-15.08,3,3
18391.296,0.038,-0.684,0.648,-1.28,-0.58,-12.79,3,3
18391.312,0.032,-0.684,0.651,-2.38,-1.13,-8.91,3,3
18391.328,0.041,-0.694,0.644,-3.88,-2.01,-5.01,3,3
18391.328,0.054,-0.71,0.628,-5.1,-2.14,-2.62,3,3
18391.343,0.069,-0.723,0.622,-4.88,-1.53,-1.71,3,3
18391.343,0.076,-0.726,0.625,-3.88,0.37,-1.59,3,3
18391.359,0.072,-0.724,0.637,-3.23,2.78,-1.4,3,3
18391.375,0.061,-0.729,0.657,-2.9,4.46,-1.04,3,3
18391.375,0.043,-0.736,0.671,-2.93,4.3,-0.21,3,3
18391.39,0.044,-0.753,0.674,-2.96,2.38,0.37,3,3
18391.406,0.06,-0.765,0.675,-2.26,0.03,-0.34,3,3
18391.406,0.057,-0.761,0.667,-0.89,-0.85,-1.46,3,3
18391.421,0.054,-0.759,0.664,-0.7,-1.98,-2.32,3,3
18391.437,0.064,-0.765,0.659,-0.73,-3.48,-3.17,3,3
18391.437,0.067,-0.768,0.652,-0.09,-3.91,-4.49,3,3
18391.453,0.063,-0.771,0.646,1.16,-3.33,-5.86,3,3
18391.468,0.063,-0.77,0.646,1.83,-2.99,-6.5,3,3
18391.468,0.077,-0.765,0.645,1.86,-3.08,-6.71,3,3
18391.484,0.082,-0.762,0.643,1.74,-2.11,-6.62,3,3
18391.484,0.077,-0.757,0.648,1.13,-0.49,-5.68,3,3
18391.5,0.073,-0.752,0.654,0.21,0.4,-4.15,3,3
18391.515,0.063,-0.753,0.659,-0.7,0.37,-2.81,3,3
18391.515,0.06,-0.761,0.661,-1.28,-0.15,-1.71,3,3
18391.531,0.063,-0.764,0.659,-1.56,-1.1,-0.92,3,3
18391.546,0.072,-0.771,0.659,-1.28,-2.29,-1.01,3,3
18391.546,0.074,-0.767,0.651,-0.24,-2.78,-1.4,3,3
18391.562,0.071,-0.76,0.642,0.31,-2.81,-1.25,3,3
18391.578,0.079,-0.76,0.632,-0.09,-2.81,-1.19,3,3
18391.578,0.084,-0.766,0.629,-0.52,-0.64,-0.89,3,3
18391.593,0.083,-0.765,0.636,-0.64,0.89,0.61,3,3
18391.593,0.083,-0.758,0.648,-1.46,1.8,2.41,3,3
18391.609,0.084,-0.756,0.659,-2.9,1.71,3.63,3,3
18391.625,0.087,-0.771,0.687,-3.36,1.01,4.39,3,3
18391.625,0.083,-0.78,0.695,-2.41,-0.03,4.85,3,3
18391.64,0.081,-0.782,0.69,-1.5,-1.43,4.55,3,3
18391.656,0.075,-0.786,0.682,-1.34,-2.87,3.39,3,3
18391.656,0.071,-0.799,0.676,-1.77,-4.52,2.04,3,3
18391.671,0.083,-0.803,0.669,-1.62,-5.92,0.52,3,3
18391.687,0.078,-0.798,0.665,0.27,-6.44,-1.86,3,3
18391.687,0.068,-0.782,0.663,2.26,-6.65,-3.23,3,3
18391.703,0.071,-0.772,0.663,2.14,-7.35,-2.99,3,3
18391.703,0.076,-0.769,0.658,1.01,-7.6,-2.44,3,3
18391.718,0.071,-0.772,0.659,-0.03,-6.99,-2.26,3,3
