timestamp,ax,ay,az,gx,gy,gz,orient_label,motion_label
18363.187,0.154,-0.865,0.538,-1.86,1.31,1.34,3,3
18363.187,0.15,-0.866,0.539,-0.43,1.16,0.89,3,3
18363.203,0.146,-0.863,0.535,0.0,0.79,-0.21,3,3
18363.203,0.154,-0.868,0.532,-0.18,-0.21,-1.8,3,3
18363.218,0.159,-0.863,0.533,0.58,-0.7,-3.2,3,3
18363.234,0.153,-0.848,0.537,1.46,-0.67,-3.66,3,3
18363.234,0.15,-0.839,0.537,1.1,-0.98,-3.23,3,3
18363.25,0.144,-0.841,0.536,0.49,-1.53,-2.35,3,3
18363.265,0.142,-0.845,0.526,-0.55,-2.23,-1.25,3,3
18363.281,0.147,-0.853,0.517,-1.31,-2.56,-0.52,3,3
18363.281,0.155,-0.858,0.509,-1.13,-1.86,-0.21,3,3
18363.296,0.16,-0.856,0.506,-0.89,-0.64,-0.34,3,3
18363.296,0.154,-0.854,0.512,-1.1,0.76,-0.76,3,3
18363.312,0.153,-0.854,0.521,-1.07,1.56,-1.46,3,3
18363.328,0.152,-0.849,0.527,-0.24,1.71,-2.23,3,3
18363.328,0.155,-0.841,0.537,0.79,1.25,-2.78,3,3
18363.343,0.159,-0.834,0.542,1.46,0.61,-2.93,3,3
18363.359,0.16,-0.832,0.542,0.58,-0.76,-1.62,3,3
18363.375,0.164,-0.838,0.532,0.0,-1.43,-0.98,3,3
18363.375,0.173,-0.845,0.52,-0.06,-1.65,-0.46,3,3
18363.39,0.175,-0.848,0.514,-0.27,-1.19,-0.06,3,3
18363.406,0.178,-0.852,0.507,-0.73,-0.43,-0.21,3,3
18363.406,0.184,-0.854,0.508,-1.07,0.27,-0.79,3,3
18363.421,0.181,-0.85,0.51,-0.73,1.13,-1.5,3,3
18363.437,0.178,-0.848,0.519,0.12,1.68,-2.23,3,3
18363.437,0.173,-0.84,0.53,0.55,1.98,-2.41,3,3
18363.453,0.163,-0.834,0.537,0.61,1.53,-2.47,3,3
18363.468,0.154,-0.834,0.544,0.61,0.24,-2.14,3,3
18363.468,0.155,-0.838,0.541,1.1,-1.59,-1.53,3,3
18363.484,0.173,-0.844,0.528,1.01,-2.96,-0.92,3,3
18363.484,0.179,-0.85,0.522,0.73,-3.08,-1.34,3,3
18363.5,0.183,-0.857,0.5,0.61,-2.14,-2.35,3,3
18363.515,0.182,-0.853,0.523,1.1,-0.76,-3.14,3,3
18363.531,0.172,-0.828,0.538,1.53,1.22,-2.78,3,3
18363.546,0.164,-0.827,0.542,0.73,0.73,-2.41,3,3
18363.546,0.16,-0.834,0.542,0.24,-0.4,-2.2,3,3
18363.562,0.155,-0.837,0.538,1.04,-1.46,-2.5,3,3
18363.578,0.166,-0.837,0.528,2.29,-2.29,-2.66,3,3
18363.578,0.168,-0.828,0.522,2.41,-2.11,-2.5,3,3
18363.593,0.161,-0.827,0.519,1.46,-1.62,-2.26,3,3
18363.593,0.161,-0.833,0.522,0.92,-1.34,-1.71,3,3
18363.609,0.158,-0.832,0.521,1.01,-1.07,-1.25,3,3
18363.625,0.159,-0.834,0.523,1.46,-0.79,-1.37,3,3
18363.625,0.161,-0.833,0.526,1.95,-0.24,-1.59,3,3
18363.64,0.158,-0.829,0.532,2.08,0.37,-1.4,3,3
18363.656,0.156,-0.825,0.541,1.95,0.85,-0.61,3,3
18363.656,0.152,-0.828,0.553,1.28,0.92,0.49,3,3
18363.671,0.147,-0.835,0.56,0.82,0.24,1.34,3,3
18363.687,0.142,-0.842,0.565,0.64,-0.95,1.62,3,3
18363.703,0.139,-0.852,0.57,1.46,-2.72,0.49,3,3
18363.718,0.127,-0.848,0.575,2.14,-2.72,-0.95,3,3
18363.718,0.113,-0.84,0.585,2.44,-2.78,-2.41,3,3
18363.734,0.108,-0.831,0.596,2.69,-3.51,-3.75,3,3
18363.734,0.108,-0.818,0.609,3.57,-4.82,-5.13,3,3
18363.75,0.107,-0.8,0.632,5.46,-6.26,-6.81,3,3
18363.765,0.109,-0.767,0.668,7.78,-7.63,-8.67,3,3
18363.765,0.1,-0.744,0.708,10.07,-9.67,-10.83,3,3
18363.781,0.075,-0.728,0.753,11.81,-13.76,-13.15,3,3
18363.796,0.052,-0.713,0.772,14.86,-19.84,-15.81,3,3
18363.796,0.046,-0.694,0.783,20.02,-27.44,-18.77,3,3
18363.812,0.052,-0.666,0.76,25.21,-35.52,-22.74,3,3
18363.828,0.061,-0.653,0.756,29.66,-41.84,-26.89,3,3
18363.828,0.066,-0.64,0.747,36.1,-45.78,-30.79,3,3
18363.843,0.07,-0.613,0.725,44.01,-47.82,-34.79,3,3
18363.859,0.084,-0.599,0.709,51.67,-47.55,-38.88,3,3
18363.875,0.093,-0.562,0.692,65.37,-39.09,-50.54,3,3
18363.875,0.082,-0.532,0.679,74.83,-29.85,-56.18,3,3
18363.89,0.045,-0.499,0.662,83.04,-18.4,-61.68,3,3
18363.906,-0.004,-0.449,0.695,88.11,-7.81,-65.86,3,3
18363.921,-0.082,-0.392,0.751,93.11,-0.21,-66.23,3,3
18363.921,-0.132,-0.318,0.779,95.55,2.44,-62.32,3,3
18363.937,-0.192,-0.284,0.805,91.28,-0.03,-54.69,3,3
18363.937,-0.211,-0.308,0.821,81.7,-8.91,-42.15,3,3
18363.953,-0.176,-0.344,0.8,73.73,-18.98,-29.88,3,3
18363.968,-0.127,-0.386,0.769,68.82,-25.33,-19.62,3,3
18363.968,-0.074,-0.452,0.737,65.46,-26.03,-10.71,3,3
18363.984,0.031,-0.499,0.699,64.82,-20.2,-6.01,3,3
18364.0,0.08,-0.512,0.652,65.4,-7.08,-9.13,3,3
18364.0,0.048,-0.594,0.625,63.69,12.88,-13.64,3,3
18364.015,0.068,-0.633,0.636,59.79,41.78,-25.03,3,3
18364.015,0.09,-0.671,0.636,60.98,58.63,-30.61,3,3
18364.046,0.07,-0.783,0.682,68.18,80.87,-44.98,3,3
18364.046,-0.28,-0.912,0.75,67.51,75.5,-49.96,3,3
18364.062,0.071,-0.9,0.856,63.51,49.23,-45.01,3,3
18364.078,-0.003,-0.84,0.817,81.36,46.66,-61.8,3,3
18364.078,-0.012,-0.939,0.791,89.14,39.19,-71.78,3,3
18364.093,0.132,-0.898,0.77,89.11,23.19,-86.03,3,3
18364.093,0.198,-0.939,0.741,91.89,18.07,-104.13,3,3
18364.109,0.163,-0.949,0.761,82.49,20.81,-116.67,3,3
18364.125,0.135,-0.993,0.788,67.32,12.36,-122.23,3,3
18364.125,0.301,-0.974,0.849,57.95,-2.56,-130.59,3,3
18364.14,0.299,-0.975,0.846,60.24,-6.99,-146.24,3,3
18364.156,0.342,-0.967,0.847,58.75,-10.83,-161.26,3,3
18364.156,0.412,-0.969,0.856,56.55,-14.44,-175.08,3,3
18364.171,0.475,-0.951,0.86,58.23,-13.06,-188.09,3,3
18364.187,0.507,-0.901,0.869,61.16,-9.22,-199.74,3,3
18364.203,0.512,-0.85,0.875,64.06,-2.47,-211.49,3,3
18364.203,0.492,-0.773,0.904,67.57,4.33,-225.23,3,3
18364.218,0.46,-0.708,0.943,72.45,8.21,-239.14,3,3
18364.218,0.464,-0.64,0.959,78.01,7.51,-251.32,3,3
18364.234,0.45,-0.548,0.96,84.14,4.3,-261.64,3,3
18364.234,0.459,-0.454,0.944,90.09,-3.6,-269.11,3,3
18364.25,0.502,-0.338,0.917,94.09,-15.26,-274.48,3,3
18364.265,0.513,-0.221,0.894,96.62,-24.93,-278.66,3,3
18364.265,0.527,-0.114,0.877,94.55,-32.41,-281.41,3,3
18364.281,0.559,-0.016,0.867,86.98,-37.63,-283.24,3,3
18364.296,0.581,0.066,0.855,77.18,-40.28,-283.85,3,3
18364.312,0.585,0.134,0.835,68.12,-40.93,-283.18,3,3
18364.312,0.592,0.189,0.799,61.28,-42.79,-279.98,3,3
18364.328,0.592,0.253,0.759,56.76,-44.89,-273.23,3,3
18364.328,0.588,0.316,0.714,54.02,-45.9,-263.56,3,3
18364.343,0.61,0.372,0.649,48.98,-46.54,-252.11,3,3
18364.343,0.637,0.428,0.588,39.74,-45.81,-240.49,3,3
18364.375,0.672,0.526,0.541,13.52,-38.48,-222.24,3,3
18364.375,0.679,0.583,0.539,0.24,-33.39,-215.31,3,3
18364.39,0.672,0.635,0.552,-11.23,-27.86,-208.29,3,3
18364.406,0.665,0.66,0.569,-21.15,-24.48,-200.14,3,3
18364.406,0.668,0.662,0.582,-29.85,-24.17,-191.29,3,3
18364.421,0.662,0.653,0.587,-34.24,-24.81,-182.78,3,3
18364.437,0.656,0.641,0.591,-32.78,-24.63,-174.2,3,3
18364.437,0.65,0.61,0.603,-27.95,-23.16,-165.17,3,3
18364.453,0.641,0.575,0.61,-21.7,-19.68,-157.08,3,3
18364.468,0.615,0.546,0.607,-14.1,-15.02,-151.49,3,3
18364.468,0.584,0.523,0.606,-5.62,-11.26,-147.68,3,3
18364.484,0.563,0.523,0.607,2.96,-6.99,-145.57,3,3
18364.484,0.531,0.534,0.605,9.98,-2.78,-145.15,3,3
18364.5,0.5,0.537,0.604,15.9,0.37,-145.79,3,3
18364.515,0.466,0.563,0.613,20.57,2.78,-146.15,3,3
18364.531,0.426,0.62,0.643,23.77,5.01,-144.66,3,3
18364.546,0.329,0.665,0.672,27.68,5.58,-129.06,3,3
18364.546,0.293,0.685,0.687,28.66,3.6,-115.39,3,3
18364.562,0.277,0.7,0.693,29.48,1.31,-101.08,3,3
18364.578,0.283,0.709,0.693,28.84,-0.92,-89.02,3,3
18364.578,0.285,0.714,0.701,25.61,-1.71,-81.06,3,3
18364.593,0.273,0.691,0.706,21.24,-2.96,-77.0,3,3
18364.609,0.281,0.651,0.709,16.79,-5.43,-75.11,3,3
18364.609,0.287,0.627,0.71,12.24,-6.65,-74.43,3,3
18364.625,0.282,0.606,0.704,8.94,-6.53,-75.2,3,3
18364.625,0.287,0.591,0.701,7.29,-4.09,-76.69,3,3
18364.64,0.287,0.581,0.721,6.68,2.84,-76.33,3,3
18364.656,0.273,0.584,0.763,6.78,11.47,-72.97,3,3
18364.671,0.258,0.594,0.797,7.87,16.91,-67.78,3,3
18364.671,0.24,0.593,0.814,10.71,18.34,-61.68,3,3
18364.671,0.214,0.587,0.82,14.19,16.08,-56.15,3,3
18364.687,0.206,0.595,0.82,17.37,11.23,-52.43,3,3
18364.703,0.201,0.608,0.809,19.71,6.29,-50.87,3,3
18364.703,0.198,0.628,0.791,20.05,2.93,-50.63,3,3
18364.718,0.205,0.655,0.774,17.12,2.2,-50.36,3,3
18364.734,0.195,0.698,0.781,11.81,3.27,-48.62,3,3
18364.734,0.18,0.726,0.793,5.04,2.93,-42.66,3,3
18364.75,0.175,0.727,0.806,-1.31,0.21,-33.11,3,3
18364.765,0.176,0.72,0.81,-5.65,-3.81,-23.13,3,3
18364.765,0.187,0.716,0.807,-8.55,-7.17,-15.87,3,3
18364.781,0.203,0.71,0.803,-10.77,-8.18,-11.81,3,3
18364.796,0.214,0.684,0.801,-12.36,-6.62,-9.28,3,3
18364.796,0.215,0.661,0.8,-13.21,-3.75,-6.9,3,3
18364.812,0.221,0.636,0.797,-12.67,0.21,-4.79,3,3
18364.828,0.229,0.617,0.795,-11.66,4.39,-4.18,3,3
18364.828,0.245,0.605,0.786,-9.8,8.82,-5.04,3,3
18364.843,0.239,0.592,0.782,-7.17,13.21,-6.62,3,3
18364.843,0.241,0.583,0.785,-4.46,16.14,-7.14,3,3
18364.859,0.236,0.577,0.786,-0.7,18.01,-7.75,3,3
18364.875,0.229,0.578,0.791,2.78,18.8,-8.45,3,3
18364.875,0.226,0.586,0.799,4.73,19.01,-9.28,3,3
18364.89,0.219,0.594,0.801,4.85,18.86,-10.07,3,3
18364.906,0.221,0.602,0.798,2.5,18.13,-9.8,3,3
18364.906,0.221,0.6,0.796,-1.5,18.04,-9.37,3,3
18364.921,0.222,0.588,0.796,-6.5,18.1,-9.16,3,3
18364.937,0.236,0.582,0.808,-12.85,19.47,-9.16,3,3
18364.937,0.239,0.583,0.821,-19.87,21.97,-10.1,3,3
18364.953,0.242,0.564,0.837,-25.91,23.62,-11.72,3,3
18364.968,0.234,0.545,0.85,-29.3,23.47,-13.25,3,3
18364.968,0.224,0.533,0.851,-28.35,21.3,-13.61,3,3
18364.984,0.219,0.532,0.845,-24.69,18.16,-12.57,3,3
18364.984,0.197,0.547,0.839,-16.3,11.66,-7.42,3,3
18365.0,0.2,0.551,0.839,-13.98,10.38,-5.04,3,3
18365.015,0.2,0.533,0.832,-12.94,10.59,-4.21,3,3
18365.015,0.201,0.513,0.827,-12.51,11.63,-4.36,3,3
18365.031,0.227,0.474,0.818,-12.82,13.28,-6.13,3,3
18365.046,0.214,0.461,0.815,-13.06,14.56,-9.4,3,3
18365.062,0.219,0.463,0.807,-13.4,15.69,-12.54,3,3
18365.062,0.204,0.468,0.793,-13.79,17.94,-15.96,3,3
18365.078,0.173,0.472,0.805,-16.33,21.0,-19.56,3,3
18365.078,0.147,0.493,0.825,-19.04,23.44,-21.58,3,3
18365.093,0.111,0.501,0.861,-21.21,23.99,-21.24,3,3
18365.093,0.061,0.541,0.91,-24.14,20.75,-17.91,3,3
18365.109,0.053,0.567,0.95,-26.76,13.37,-12.85,3,3
18365.125,0.058,0.538,0.96,-26.0,5.43,-8.48,3,3
18365.125,0.066,0.521,0.938,-23.41,-1.22,-5.55,3,3
18365.14,0.088,0.485,0.896,-19.26,-5.22,-3.27,3,3
18365.156,0.104,0.461,0.881,-16.91,-5.58,-2.44,3,3
18365.156,0.111,0.464,0.87,-16.94,-5.25,-3.11,3,3
18365.171,0.121,0.451,0.851,-15.53,-5.4,-3.94,3,3
18365.187,0.138,0.45,0.845,-15.66,-5.28,-4.03,3,3
18365.187,0.17,0.445,0.796,-13.12,-3.91,-2.47,3,3
18365.203,0.193,0.374,0.781,-2.99,3.14,-1.8,3,3
18365.203,0.075,0.494,0.861,-4.85,5.16,-2.08,3,3
18365.218,0.141,0.574,0.911,-13.82,-0.67,2.14,3,3
18365.234,0.14,0.514,0.88,-9.22,-4.7,3.81,3,3
18365.234,0.13,0.516,0.876,-10.07,-7.02,6.07,3,3
18365.25,0.146,0.524,0.867,-8.91,-10.22,10.93,3,3
18365.265,0.146,0.471,0.847,-3.69,-11.23,14.28,3,3
18365.265,0.147,0.456,0.877,0.18,-11.41,15.11,3,3
18365.281,0.149,0.465,0.89,3.14,-12.48,14.89,3,3
18365.296,0.141,0.477,0.896,2.72,-15.17,14.28,3,3
18365.296,0.136,0.483,0.916,0.31,-18.59,14.71,3,3
18365.312,0.122,0.526,0.916,-4.27,-25.06,16.57,3,3
18365.328,0.217,0.464,0.857,-3.2,-28.96,20.51,3,3
18365.328,0.175,0.405,0.856,-5.07,-27.53,19.65,3,3
18365.343,0.166,0.491,0.872,-14.98,-29.08,19.5,3,3
18365.359,0.204,0.472,0.864,-15.69,-31.25,19.01,3,3
18365.359,0.21,0.431,0.837,-17.79,-32.41,17.27,3,3
18365.375,0.228,0.438,0.827,-22.28,-31.53,16.82,3,3
18365.375,0.247,0.436,0.822,-23.83,-29.57,15.32,3,3
18365.39,0.261,0.417,0.814,-23.9,-26.12,13.89,3,3
18365.406,0.275,0.402,0.809,-23.71,-21.61,11.93,3,3
18365.406,0.287,0.401,0.815,-23.01,-16.97,9.16,3,3
18365.421,0.296,0.407,0.829,-22.28,-12.82,6.81,3,3
18365.437,0.297,0.406,0.851,-20.54,-9.7,5.19,3,3
18365.437,0.295,0.407,0.867,-18.13,-7.32,4.64,3,3
18365.453,0.297,0.411,0.878,-15.26,-6.2,4.27,3,3
18365.453,0.295,0.406,0.883,-12.09,-5.86,3.48,3,3
18365.468,0.293,0.401,0.881,-9.77,-6.44,1.92,3,3
18365.484,0.29,0.397,0.884,-9.52,-7.93,-1.16,3,3
18365.484,0.285,0.386,0.884,-11.14,-9.89,-5.31,3,3
18365.5,0.285,0.381,0.877,-13.0,-11.96,-10.22,3,3
18365.515,0.282,0.373,0.861,-14.4,-12.76,-14.86,3,3
18365.515,0.278,0.368,0.853,-15.87,-12.36,-18.77,3,3
18365.531,0.277,0.375,0.849,-16.48,-10.93,-21.36,3,3
18365.546,0.274,0.381,0.847,-15.75,-8.15,-22.58,3,3
18365.546,0.266,0.384,0.85,-14.1,-4.79,-22.86,3,3
18365.562,0.26,0.394,0.861,-11.38,-1.59,-22.25,3,3
18365.578,0.251,0.405,0.87,-7.97,1.53,-20.6,3,3
18365.578,0.245,0.405,0.877,-4.3,3.81,-18.01,3,3
18365.593,0.239,0.402,0.89,-0.73,5.19,-15.69,3,3
18365.609,0.238,0.413,0.893,2.53,5.55,-13.95,3,3
18365.609,0.23,0.418,0.89,4.67,5.55,-12.67,3,3
18365.625,0.221,0.414,0.892,5.31,4.61,-11.47,3,3
18365.625,0.219,0.412,0.897,4.94,2.53,-11.44,3,3
18365.64,0.222,0.415,0.893,3.78,0.15,-12.82,3,3
18365.656,0.221,0.413,0.886,2.26,-2.04,-14.28,3,3
18365.656,0.224,0.411,0.877,-0.34,-4.03,-15.08,3,3
18365.671,0.232,0.407,0.869,-2.29,-5.13,-15.23,3,3
18365.687,0.239,0.407,0.865,-2.69,-4.67,-14.8,3,3
18365.687,0.241,0.412,0.861,-2.01,-3.02,-13.73,3,3
18365.703,0.243,0.414,0.86,-0.21,-0.85,-12.02,3,3
18365.718,0.243,0.419,0.864,1.98,1.83,-9.83,3,3
18365.718,0.24,0.423,0.86,5.07,4.76,-7.26,3,3
18365.734,0.237,0.424,0.855,8.33,7.6,-4.79,3,3
18365.734,0.235,0.424,0.852,10.77,10.35,-2.53,3,3
18365.75,0.239,0.425,0.851,11.66,12.7,-1.68,3,3
18365.765,0.232,0.429,0.855,11.44,15.26,-2.53,3,3
18365.781,0.206,0.414,0.862,9.61,14.68,-3.08,3,3
18365.781,0.221,0.427,0.878,7.32,13.09,-3.48,3,3
18365.796,0.2,0.457,0.887,4.0,11.54,-4.64,3,3
18365.796,0.191,0.451,0.888,1.19,8.67,-4.58,3,3
18365.812,0.19,0.448,0.881,-0.34,6.23,-3.6,3,3
18365.828,0.195,0.449,0.874,-1.19,4.58,-2.66,3,3
18365.828,0.197,0.443,0.869,-2.62,3.78,-1.89,3,3
18365.843,0.199,0.427,0.868,-3.72,3.54,-1.74,3,3
18365.843,0.201,0.424,0.876,-5.37,3.14,-1.8,3,3
18365.859,0.202,0.425,0.882,-7.11,2.69,-2.17,3,3
18365.875,0.203,0.418,0.888,-7.05,2.26,-2.2,3,3
18365.875,0.206,0.415,0.893,-5.83,2.23,-1.68,3,3
18365.89,0.209,0.412,0.903,-4.39,2.01,-1.71,3,3
18365.906,0.211,0.411,0.909,-3.27,1.34,-2.14,3,3
18365.921,0.202,0.404,0.897,-1.83,0.49,-2.87,3,3
18365.921,0.203,0.403,0.891,0.12,-0.79,-2.93,3,3
18365.937,0.213,0.405,0.881,1.77,-1.4,-2.69,3,3
18365.937,0.216,0.409,0.875,2.84,-0.98,-2.78,3,3
18365.953,0.216,0.415,0.86,3.72,0.15,-2.96,3,3
18365.953,0.24,0.415,0.82,4.94,2.01,-3.11,3,3
18365.968,0.261,0.346,0.788,9.28,8.39,-3.72,3,3
18365.984,0.126,0.463,0.89,-3.3,8.36,-2.01,3,3
18366.0,0.176,0.534,0.953,-0.76,1.89,-1.43,3,3
18366.0,0.151,0.452,0.886,-4.06,-0.49,1.19,3,3
18366.015,0.186,0.444,0.856,-3.94,-0.55,3.91,3,3
18366.015,0.18,0.438,0.874,-4.43,0.82,5.46,3,3
18366.031,0.165,0.44,0.916,-6.13,0.0,6.23,3,3
18366.046,0.166,0.417,0.963,-2.08,-3.66,6.99,3,3
18366.046,0.17,0.394,1.001,4.82,-8.73,7.72,3,3
18366.078,0.166,0.374,1.002,21.03,-18.89,9.74,3,3
18366.078,0.141,0.407,0.986,23.96,-26.86,9.8,3,3
18366.093,0.253,0.382,0.869,30.06,-32.96,10.53,3,3
18366.109,0.23,0.333,0.79,41.99,-29.97,10.93,3,3
18366.109,0.224,0.468,0.842,29.73,-25.39,12.76,3,3
18366.125,0.267,0.452,0.798,23.1,-25.48,9.49,3,3
18366.125,0.243,0.399,0.762,21.27,-22.8,5.43,3,3
18366.14,0.272,0.453,0.764,15.26,-18.37,4.58,3,3
18366.156,0.288,0.482,0.752,11.72,-13.4,3.57,3,3
18366.156,0.287,0.467,0.741,8.24,-6.68,2.99,3,3
18366.171,0.285,0.474,0.75,3.72,-0.24,2.2,3,3
18366.187,0.277,0.484,0.773,1.04,5.58,2.08,3,3
18366.187,0.265,0.482,0.81,-0.49,9.77,2.11,3,3
18366.203,0.25,0.483,0.845,-1.8,11.66,1.98,3,3
18366.218,0.24,0.478,0.871,-3.2,11.14,1.71,3,3
18366.218,0.235,0.462,0.883,-3.45,9.28,0.98,3,3
18366.234,0.229,0.445,0.871,-3.6,5.46,-0.92,3,3
18366.25,0.23,0.438,0.86,-3.42,4.64,-1.34,3,3
18366.265,0.228,0.431,0.848,-2.72,4.7,-1.83,3,3
18366.265,0.231,0.432,0.844,-2.59,5.71,-1.83,3,3
18366.281,0.231,0.439,0.847,-2.38,6.96,-1.74,3,3
18366.296,0.227,0.439,0.853,-1.95,8.0,-1.65,3,3
18366.296,0.225,0.442,0.859,-1.53,8.36,-1.62,3,3
18366.312,0.221,0.445,0.863,-1.28,8.45,-1.68,3,3
18366.328,0.213,0.444,0.874,-1.16,8.21,-1.8,3,3
18366.328,0.205,0.447,0.889,-0.85,6.71,-1.89,3,3
18366.343,0.203,0.451,0.899,-0.4,4.24,-1.95,3,3
18366.343,0.202,0.453,0.894,0.12,1.43,-2.01,3,3
18366.359,0.203,0.448,0.883,0.64,-0.92,-1.83,3,3
18366.375,0.206,0.447,0.871,1.25,-2.59,-1.8,3,3
18366.375,0.214,0.448,0.858,2.08,-3.51,-1.34,3,3
18366.39,0.22,0.453,0.846,2.44,-3.39,-0.82,3,3
18366.406,0.229,0.457,0.835,1.89,-1.16,-0.43,3,3
18366.421,0.229,0.458,0.834,1.19,0.15,-0.31,3,3
18366.437,0.228,0.459,0.833,0.09,1.43,-0.12,3,3
18366.453,0.227,0.455,0.838,-1.46,2.84,-0.27,3,3
18366.453,0.222,0.453,0.846,-2.96,3.72,-0.46,3,3
18366.453,0.219,0.452,0.857,-3.94,3.97,-0.52,3,3
18366.468,0.211,0.451,0.871,-4.27,3.88,-0.27,3,3
18366.484,0.205,0.449,0.881,-3.97,3.11,0.09,3,3
18366.484,0.203,0.448,0.887,-3.33,1.71,0.52,3,3
18366.5,0.203,0.442,0.89,-2.38,-0.06,0.73,3,3
18366.515,0.207,0.437,0.882,-1.16,-1.83,0.61,3,3
18366.531,0.213,0.434,0.871,-0.09,-3.11,0.27,3,3
18366.531,0.215,0.436,0.863,0.58,-3.69,-0.24,3,3
18366.546,0.219,0.442,0.854,1.01,-3.42,-0.49,3,3
18366.546,0.224,0.447,0.845,1.71,-2.53,-0.52,3,3
18366.562,0.226,0.449,0.842,2.14,-1.28,-0.27,3,3
18366.578,0.225,0.454,0.849,1.4,1.01,-0.09,3,3
18366.593,0.223,0.454,0.853,0.43,1.5,-0.15,3,3
18366.593,0.221,0.451,0.857,-0.34,1.65,-0.24,3,3
18366.609,0.219,0.451,0.857,-0.85,1.53,-0.52,3,3
18366.625,0.216,0.448,0.858,-1.19,1.5,-0.79,3,3
18366.625,0.214,0.444,0.858,-1.37,1.62,-0.89,3,3
18366.64,0.21,0.441,0.857,-1.31,2.01,-0.89,3,3
18366.656,0.212,0.442,0.86,-1.16,2.17,-0.89,3,3
18366.656,0.211,0.444,0.86,-1.16,2.29,-1.31,3,3
18366.671,0.208,0.446,0.861,-1.43,2.41,-1.46,3,3
18366.687,0.206,0.447,0.864,-1.5,2.29,-1.43,3,3
18366.687,0.207,0.449,0.866,-1.34,2.08,-1.16,3,3
18366.703,0.208,0.448,0.867,-0.95,1.92,-0.76,3,3
18366.703,0.207,0.447,0.869,-0.79,1.59,-0.52,3,3
18366.718,0.205,0.451,0.872,-0.79,1.13,-0.24,3,3
18366.734,0.204,0.45,0.872,-0.61,0.43,0.12,3,3
18366.75,0.205,0.448,0.871,-0.4,-0.37,0.31,3,3
18366.75,0.207,0.445,0.868,-0.24,-1.13,0.34,3,3
18366.765,0.208,0.442,0.866,-0.12,-1.4,0.34,3,3
18366.765,0.213,0.442,0.861,-0.06,-1.74,0.21,3,3
18366.781,0.216,0.44,0.855,0.03,-1.68,0.03,3,3
18366.796,0.218,0.442,0.855,0.09,-1.04,-0.24,3,3
18366.796,0.216,0.444,0.855,-0.03,-0.4,-0.55,3,3
18366.812,0.213,0.447,0.858,-0.06,0.12,-0.73,3,3
18366.828,0.21,0.447,0.859,-0.27,0.43,-0.73,3,3
18366.828,0.21,0.447,0.86,-0.61,0.58,-0.76,3,3
18366.843,0.21,0.446,0.861,-0.7,0.67,-0.92,3,3
18366.843,0.207,0.446,0.862,-0.7,0.64,-0.89,3,3
18366.859,0.205,0.446,0.865,-0.79,0.58,-0.7,3,3
18366.875,0.204,0.446,0.868,-0.79,0.46,-0.67,3,3
18366.875,0.203,0.45,0.874,-0.64,0.03,-0.4,3,3
18366.89,0.203,0.451,0.875,-0.27,-0.67,-0.06,3,3
18366.906,0.205,0.446,0.871,0.18,-1.34,0.31,3,3
18366.906,0.208,0.44,0.865,0.67,-1.65,0.46,3,3
18366.921,0.209,0.438,0.862,1.01,-1.68,0.55,3,3
18366.937,0.212,0.441,0.859,0.95,-1.53,0.31,3,3
18366.937,0.212,0.443,0.856,0.82,-1.16,0.12,3,3
18366.953,0.212,0.445,0.859,0.58,-0.82,0.03,3,3
18366.968,0.214,0.448,0.86,0.03,-0.37,-0.46,3,3
18366.968,0.212,0.448,0.86,-0.15,-0.34,-0.43,3,3
18366.984,0.21,0.448,0.859,-0.43,-0.12,-0.37,3,3
18366.984,0.209,0.447,0.859,-0.52,0.12,-0.52,3,3
18367.0,0.205,0.448,0.862,-0.31,0.21,-0.31,3,3
18367.015,0.206,0.442,0.864,0.09,0.12,-0.31,3,3
18367.015,0.203,0.444,0.87,-0.34,0.03,-0.43,3,3
18367.031,0.201,0.449,0.87,-0.03,-0.4,-0.31,3,3
18367.046,0.202,0.445,0.869,0.4,-0.79,-0.06,3,3
18367.046,0.204,0.443,0.861,0.67,-1.1,0.21,3,3
18367.062,0.206,0.443,0.859,0.85,-1.13,0.37,3,3
18367.062,0.209,0.444,0.859,0.67,-0.85,0.43,3,3
18367.078,0.213,0.447,0.857,0.34,-0.64,0.4,3,3
18367.093,0.212,0.447,0.859,-0.12,-0.37,0.15,3,3
18367.109,0.213,0.446,0.86,-0.49,-0.12,0.0,3,3
18367.125,0.211,0.446,0.861,-0.95,-0.03,-0.34,3,3
18367.125,0.208,0.445,0.864,-1.1,0.03,-0.4,3,3
18367.14,0.208,0.445,0.866,-1.1,0.06,-0.31,3,3
18367.156,0.206,0.443,0.869,-0.73,-0.03,-0.31,3,3
18367.156,0.204,0.443,0.871,-0.46,-0.21,-0.46,3,3
18367.171,0.204,0.442,0.867,-0.03,-0.61,-0.46,3,3
18367.187,0.203,0.441,0.863,0.37,-0.67,-0.4,3,3
18367.187,0.203,0.443,0.862,0.49,-0.64,-0.37,3,3
18367.203,0.201,0.447,0.867,0.61,-0.85,-0.15,3,3
18367.203,0.202,0.449,0.867,0.49,-1.04,0.03,3,3
18367.218,0.205,0.446,0.865,0.46,-1.28,0.18,3,3
18367.234,0.208,0.448,0.863,0.49,-1.43,0.24,3,3
18367.234,0.21,0.445,0.859,0.37,-1.46,0.18,3,3
18367.25,0.209,0.441,0.857,0.34,-1.1,0.09,3,3
18367.281,0.206,0.444,0.859,0.92,-0.06,-0.67,3,3
18367.281,0.202,0.448,0.862,1.04,0.49,-0.73,3,3
18367.296,0.202,0.452,0.865,1.37,0.58,-0.58,3,3
18367.296,0.201,0.449,0.865,1.46,0.24,-0.21,3,3
18367.312,0.202,0.449,0.864,0.95,-0.12,-0.06,3,3
18367.328,0.203,0.451,0.862,0.06,-0.46,0.12,3,3
18367.328,0.205,0.447,0.865,-0.64,-0.89,0.4,3,3
18367.343,0.208,0.445,0.868,-0.98,-1.34,0.46,3,3
18367.359,0.211,0.44,0.866,-0.98,-1.65,0.49,3,3
18367.359,0.212,0.435,0.864,-0.85,-1.46,0.21,3,3
18367.375,0.212,0.434,0.866,-0.79,-1.37,0.03,3,3
18367.375,0.213,0.436,0.865,-0.09,-1.34,-0.21,3,3
18367.39,0.211,0.44,0.863,0.79,-1.1,-0.58,3,3
18367.406,0.209,0.441,0.862,1.34,-0.82,-0.92,3,3
18367.406,0.207,0.447,0.86,1.74,-0.55,-1.1,3,3
18367.421,0.204,0.455,0.858,1.98,-0.37,-1.1,3,3
18367.437,0.199,0.455,0.853,1.4,-0.12,-0.67,3,3
18367.453,0.198,0.455,0.856,0.37,-0.18,-0.37,3,3
18367.468,0.199,0.457,0.86,-0.64,-0.34,-0.09,3,3
18367.468,0.198,0.455,0.865,-1.28,-0.43,0.4,3,3
18367.484,0.199,0.449,0.869,-1.71,-0.85,0.67,3,3
18367.484,0.204,0.447,0.871,-2.04,-1.71,0.95,3,3
18367.5,0.208,0.437,0.869,-2.11,-2.17,0.85,3,3
18367.515,0.208,0.431,0.869,-1.68,-2.14,0.85,3,3
18367.515,0.212,0.431,0.87,-0.98,-2.2,0.58,3,3
18367.531,0.213,0.434,0.868,0.03,-1.98,0.4,3,3
18367.546,0.214,0.435,0.865,1.1,-1.62,0.03,3,3
18367.546,0.214,0.439,0.863,2.08,-1.25,-0.4,3,3
18367.562,0.212,0.443,0.86,2.96,-0.98,-0.7,3,3
18367.578,0.211,0.447,0.857,3.33,-0.64,-1.1,3,3
18367.578,0.207,0.453,0.854,3.23,-0.12,-1.1,3,3
18367.593,0.202,0.456,0.854,2.93,0.24,-1.07,3,3
18367.593,0.199,0.46,0.857,2.17,0.15,-0.82,3,3
18367.609,0.199,0.461,0.86,1.13,0.0,-0.43,3,3
18367.625,0.198,0.46,0.863,0.06,-0.49,0.03,3,3
18367.625,0.201,0.455,0.862,-0.89,-1.04,0.46,3,3
18367.64,0.204,0.451,0.862,-1.59,-1.71,0.79,3,3
18367.656,0.208,0.444,0.863,-1.86,-1.89,0.89,3,3
18367.656,0.209,0.439,0.864,-1.71,-1.65,0.76,3,3
18367.671,0.212,0.433,0.863,-1.16,-1.4,0.46,3,3
18367.687,0.212,0.433,0.865,-0.55,-1.07,-0.12,3,3
18367.687,0.211,0.436,0.867,0.34,-0.7,-0.43,3,3
18367.703,0.208,0.44,0.868,1.19,-0.55,-0.82,3,3
18367.718,0.206,0.445,0.862,1.83,-0.55,-1.07,3,3
18367.718,0.203,0.45,0.861,2.08,-0.52,-1.04,3,3
18367.734,0.203,0.453,0.86,2.08,-0.58,-0.85,3,3
18367.734,0.202,0.456,0.858,1.65,-0.79,-0.61,3,3
18367.75,0.2,0.457,0.859,1.16,-0.95,-0.31,3,3
18367.765,0.204,0.458,0.858,0.49,-1.16,0.03,3,3
18367.765,0.207,0.455,0.861,-0.4,-1.34,0.24,3,3
18367.781,0.208,0.451,0.859,-0.92,-1.46,0.27,3,3
18367.796,0.211,0.448,0.859,-1.04,-1.46,0.18,3,3
18367.812,0.212,0.443,0.86,-0.95,-1.22,0.18,3,3
18367.812,0.212,0.441,0.858,-0.89,-0.79,0.03,3,3
18367.812,0.211,0.438,0.86,-0.76,-0.4,-0.43,3,3
18367.828,0.209,0.441,0.865,-0.58,0.03,-0.82,3,3
18367.843,0.211,0.44,0.867,0.18,0.15,-1.1,3,3
18367.843,0.212,0.439,0.868,1.77,0.58,-1.4,3,3
18367.859,0.216,0.438,0.88,2.56,1.01,-1.89,3,3
18367.875,0.211,0.439,0.874,1.98,1.98,-3.17,3,3
18367.875,0.202,0.435,0.868,4.64,1.4,-4.7,3,3
18367.89,0.208,0.451,0.886,5.43,1.43,-3.75,3,3
18367.906,0.203,0.458,0.886,5.83,1.13,-4.3,3,3
18367.906,0.188,0.447,0.885,8.0,0.55,-5.13,3,3
18367.921,0.184,0.469,0.899,7.78,-0.55,-4.3,3,3
18367.937,0.177,0.476,0.887,7.97,-3.81,-3.48,3,3
18367.937,0.191,0.45,0.83,8.7,-5.58,-1.16,3,3
18367.953,0.288,0.377,0.734,6.68,11.9,-1.37,3,3
18367.968,0.132,0.479,0.831,-6.47,7.78,0.15,3,3
18367.984,0.171,0.491,0.883,-0.43,0.37,2.99,3,3
18367.984,0.18,0.483,0.844,-2.53,-2.26,3.42,3,3
18368.0,0.203,0.489,0.842,-5.31,-1.8,3.85,3,3
18368.015,0.189,0.425,0.833,-3.17,-0.82,4.88,3,3
18368.031,0.202,0.426,0.845,-4.0,-0.76,6.04,3,3
18368.031,0.205,0.455,0.857,-3.91,-0.4,5.83,3,3
18368.046,0.204,0.435,0.867,-1.71,-0.03,5.28,3,3
18368.046,0.204,0.427,0.878,-0.27,-0.49,4.88,3,3
18368.062,0.2,0.442,0.889,2.69,-0.92,4.85,3,3
18368.078,0.198,0.445,0.896,5.52,-2.17,4.76,3,3
18368.078,0.2,0.443,0.894,6.35,-4.46,4.15,3,3
18368.093,0.18,0.454,0.903,5.74,-6.74,3.51,3,3
18368.093,0.183,0.503,0.897,1.98,-11.78,3.17,3,3
18368.109,0.273,0.425,0.815,7.42,-13.18,4.67,3,3
18368.125,0.235,0.488,0.816,3.57,-2.23,2.78,3,3
18368.14,0.237,0.482,0.827,4.0,-0.03,2.66,3,3
18368.156,0.218,0.461,0.82,3.48,2.01,2.26,3,3
18368.171,0.219,0.484,0.832,0.03,2.93,1.68,3,3
18368.171,0.216,0.487,0.844,-1.98,3.51,1.01,3,3
18368.187,0.207,0.475,0.848,-3.75,3.81,0.55,3,3
18368.187,0.201,0.473,0.852,-5.37,3.42,0.61,3,3
18368.203,0.201,0.468,0.859,-6.68,2.66,0.98,3,3
18368.218,0.198,0.46,0.865,-7.57,2.11,1.16,3,3
18368.218,0.196,0.453,0.869,-7.87,1.62,1.37,3,3
18368.234,0.198,0.448,0.871,-7.51,0.89,1.77,3,3
18368.234,0.199,0.438,0.869,-6.38,0.46,1.98,3,3
18368.25,0.201,0.438,0.868,-5.07,0.46,2.11,3,3
18368.265,0.203,0.44,0.867,-3.69,0.52,1.86,3,3
18368.265,0.206,0.444,0.864,-2.32,0.7,1.59,3,3
18368.281,0.209,0.448,0.861,-1.04,0.67,1.43,3,3
18368.296,0.208,0.455,0.859,-0.31,0.58,1.4,3,3
18368.296,0.208,0.458,0.858,0.15,0.61,1.19,3,3
18368.312,0.209,0.463,0.857,0.15,0.37,1.13,3,3
18368.328,0.21,0.464,0.855,-0.46,0.24,1.22,3,3
18368.328,0.209,0.465,0.855,-1.25,0.09,1.31,3,3
18368.343,0.207,0.461,0.852,-2.44,-0.18,1.31,3,3
18368.343,0.208,0.455,0.853,-3.69,-0.21,1.37,3,3
18368.359,0.208,0.45,0.855,-4.85,-0.15,1.4,3,3
18368.375,0.206,0.448,0.858,-5.98,0.09,1.37,3,3
18368.375,0.203,0.446,0.863,-6.53,0.27,1.4,3,3
18368.39,0.199,0.441,0.868,-6.68,0.31,1.34,3,3
18368.406,0.197,0.44,0.874,-6.23,-0.18,1.31,3,3
18368.406,0.198,0.44,0.877,-5.83,-0.82,1.19,3,3
18368.421,0.199,0.441,0.874,-5.16,-1.19,0.95,3,3
18368.437,0.202,0.437,0.87,-4.15,-1.62,1.01,3,3
18368.437,0.206,0.438,0.865,-3.17,-1.71,0.98,3,3
18368.453,0.206,0.441,0.863,-2.56,-1.25,0.95,3,3
18368.468,0.208,0.444,0.864,-2.26,-0.95,0.7,3,3
18368.468,0.211,0.444,0.863,-1.83,-0.98,0.67,3,3
18368.484,0.21,0.442,0.859,-1.68,-0.98,0.49,3,3
18368.484,0.211,0.444,0.859,-2.01,-0.85,0.24,3,3
18368.5,0.208,0.446,0.861,-2.5,-0.64,0.12,3,3
18368.515,0.206,0.441,0.862,-2.99,-0.4,0.12,3,3
18368.515,0.207,0.437,0.86,-3.57,-0.31,0.03,3,3
18368.531,0.206,0.436,0.864,-4.27,-0.18,-0.12,3,3
18368.546,0.208,0.436,0.87,-4.52,0.03,-0.37,3,3
18368.546,0.21,0.435,0.87,-4.52,0.06,-0.43,3,3
18368.562,0.207,0.433,0.872,-4.61,0.0,-0.31,3,3
18368.578,0.21,0.43,0.875,-4.33,-0.24,-0.37,3,3
18368.578,0.208,0.426,0.877,-3.51,-0.61,-0.73,3,3
18368.593,0.211,0.424,0.879,-2.81,-0.92,-1.07,3,3
18368.593,0.214,0.422,0.875,-1.98,-1.22,-1.56,3,3
18368.609,0.214,0.42,0.869,-1.04,-1.1,-2.04,3,3
18368.625,0.213,0.422,0.87,-0.27,-1.07,-2.53,3,3
18368.625,0.212,0.426,0.87,0.58,-0.7,-2.78,3,3
18368.64,0.207,0.428,0.867,1.4,-0.21,-3.08,3,3
18368.656,0.21,0.43,0.87,1.89,0.0,-3.42,3,3
18368.656,0.205,0.439,0.873,2.2,-0.18,-3.45,3,3
18368.671,0.205,0.441,0.876,3.02,-0.55,-3.14,3,3
18368.687,0.205,0.441,0.872,3.69,-1.28,-3.14,3,3
18368.687,0.201,0.443,0.868,3.57,-1.53,-3.45,3,3
18368.703,0.198,0.439,0.865,3.08,-1.37,-3.91,3,3
18368.703,0.197,0.436,0.859,2.62,-1.16,-4.09,3,3
18368.718,0.194,0.439,0.859,1.92,-0.98,-4.06,3,3
18368.734,0.195,0.44,0.862,1.37,-0.7,-3.85,3,3
18368.734,0.196,0.445,0.869,0.58,-0.55,-3.94,3,3
18368.75,0.192,0.449,0.874,-0.09,-0.82,-4.0,3,3
18368.765,0.184,0.438,0.875,0.12,-1.77,-3.66,3,3
18368.765,0.191,0.442,0.878,0.89,-2.93,-2.81,3,3
18368.781,0.198,0.454,0.881,0.24,-3.48,-2.35,3,3
18368.796,0.194,0.444,0.882,0.03,-3.88,-1.95,3,3
18368.796,0.198,0.431,0.874,1.37,-4.73,-1.1,3,3
18368.828,0.208,0.435,0.863,3.17,-5.07,-0.79,3,3
18368.828,0.211,0.435,0.864,3.14,-4.49,-1.28,3,3
18368.843,0.211,0.44,0.862,3.42,-4.06,-1.74,3,3
18368.843,0.216,0.439,0.86,4.12,-3.88,-1.83,3,3
18368.859,0.217,0.445,0.858,4.46,-3.42,-1.65,3,3
18368.875,0.214,0.452,0.857,4.82,-2.75,-1.59,3,3
18368.875,0.216,0.447,0.851,5.13,-1.83,-1.71,3,3
18368.89,0.214,0.443,0.848,4.88,-0.98,-2.47,3,3
18368.906,0.211,0.439,0.842,4.61,0.55,-3.14,3,3
18368.921,0.208,0.443,0.844,4.15,1.95,-3.75,3,3
18368.921,0.203,0.453,0.85,3.17,3.02,-4.33,3,3
18368.937,0.197,0.461,0.854,0.61,3.36,-4.21,3,3
18368.937,0.191,0.465,0.859,-0.46,3.08,-3.54,3,3
18368.953,0.186,0.468,0.863,-1.25,2.59,-2.5,3,3
18368.953,0.182,0.468,0.866,-2.32,1.89,-1.4,3,3
18368.968,0.181,0.463,0.867,-3.48,1.1,-0.06,3,3
18369.0,0.188,0.453,0.87,-4.85,-0.73,2.5,3,3
18369.0,0.195,0.448,0.873,-5.13,-1.43,3.63,3,3
18369.015,0.203,0.443,0.87,-4.94,-1.95,4.49,3,3
18369.015,0.206,0.439,0.87,-4.43,-2.17,5.22,3,3
18369.031,0.216,0.437,0.869,-3.3,-1.95,5.8,3,3
18369.046,0.216,0.435,0.866,-1.65,-1.25,5.74,3,3
18369.046,0.212,0.429,0.863,-0.37,-0.64,5.52,3,3
18369.062,0.213,0.433,0.864,0.79,-0.31,4.97,3,3
18369.078,0.214,0.433,0.87,1.65,-0.03,4.0,3,3
18369.078,0.209,0.435,0.871,1.89,-0.58,2.78,3,3
18369.093,0.211,0.434,0.867,2.14,-1.07,1.46,3,3
18369.093,0.206,0.436,0.864,2.59,-1.13,-0.06,3,3
18369.109,0.202,0.439,0.865,2.84,-1.13,-1.01,3,3
18369.125,0.2,0.439,0.868,2.87,-1.16,-1.68,3,3
18369.125,0.2,0.442,0.867,3.05,-1.28,-2.14,3,3
18369.14,0.199,0.446,0.864,3.11,-1.43,-2.62,3,3
18369.156,0.198,0.446,0.859,2.99,-1.5,-2.9,3,3
18369.156,0.198,0.449,0.859,2.53,-1.43,-3.02,3,3
18369.171,0.197,0.449,0.86,1.83,-1.25,-2.84,3,3
18369.187,0.198,0.449,0.864,1.34,-1.22,-2.75,3,3
18369.187,0.196,0.452,0.865,1.01,-1.5,-2.72,3,3
18369.203,0.199,0.447,0.865,1.04,-2.17,-2.26,3,3
18369.218,0.202,0.448,0.865,1.13,-2.23,-2.35,3,3
18369.218,0.203,0.449,0.864,1.16,-2.32,-2.78,3,3
18369.234,0.205,0.45,0.866,1.34,-2.32,-2.81,3,3
18369.234,0.205,0.451,0.868,1.92,-2.17,-2.41,3,3
18369.25,0.202,0.453,0.872,3.02,-1.98,-1.74,3,3
18369.265,0.197,0.454,0.882,4.61,-2.56,-1.25,3,3
18369.265,0.19,0.448,0.889,6.07,-3.36,-0.49,3,3
18369.281,0.195,0.434,0.891,7.72,-4.91,0.67,3,3
18369.296,0.202,0.427,0.889,9.77,-6.1,1.31,3,3
18369.296,0.199,0.432,0.892,12.36,-6.59,1.25,3,3
18369.312,0.189,0.448,0.91,15.9,-6.99,1.74,3,3
18369.328,0.184,0.462,0.917,20.05,-8.61,3.69,3,3
18369.328,0.186,0.47,0.914,23.65,-11.51,6.93,3,3
18369.343,0.2,0.473,0.903,26.15,-14.31,9.67,3,3
18369.343,0.203,0.468,0.892,28.05,-16.94,11.32,3,3
18369.359,0.205,0.481,0.899,28.69,-19.44,14.5,3,3
18369.375,0.223,0.452,0.879,32.72,-20.75,16.45,3,3
18369.39,0.216,0.427,0.861,37.17,-19.32,16.45,3,3
18369.39,0.222,0.43,0.86,41.08,-17.37,16.94,3,3
18369.406,0.218,0.441,0.877,47.4,-15.38,16.85,3,3
18369.406,0.211,0.459,0.884,55.45,-13.03,17.3,3,3
18369.421,0.201,0.483,0.89,64.06,-11.99,18.07,3,3
18369.437,0.194,0.52,0.885,71.69,-13.18,20.63,3,3
18369.437,0.198,0.542,0.873,78.4,-15.47,24.23,3,3
18369.453,0.21,0.566,0.856,81.55,-18.34,27.07,3,3
18369.468,0.212,0.591,0.852,80.29,-19.2,30.88,3,3
18369.468,0.208,0.606,0.858,76.14,-18.86,34.82,3,3
18369.484,0.207,0.612,0.868,70.04,-17.52,38.3,3,3
18369.484,0.224,0.641,0.88,60.91,-16.54,40.28,3,3
18369.5,0.233,0.674,0.891,47.85,-15.29,39.12,3,3
18369.515,0.23,0.683,0.91,31.25,-15.81,33.69,3,3
18369.515,0.235,0.685,0.926,15.56,-21.64,28.2,3,3
18369.531,0.246,0.696,0.909,8.91,-30.34,26.0,3,3
18369.546,0.348,0.814,0.977,-9.09,-14.77,37.9,3,3
18369.546,0.214,0.902,1.064,-65.52,14.34,37.39,3,3
18369.562,0.145,0.572,1.092,-99.0,0.95,44.56,3,3
18369.578,0.209,0.558,1.207,-117.92,-9.67,56.86,3,3
18369.578,0.195,0.562,1.204,-121.43,-22.86,67.57,3,3
18369.593,0.246,0.418,1.188,-117.77,-37.87,77.64,3,3
18369.593,0.308,0.334,1.191,-115.18,-48.37,81.48,3,3
18369.609,0.336,0.291,1.168,-111.82,-57.5,77.3,3,3
18369.625,0.388,0.254,1.148,-109.65,-67.72,69.46,3,3
18369.625,0.416,0.23,1.111,-108.65,-75.62,61.71,3,3
18369.64,0.43,0.231,1.076,-109.04,-79.35,58.11,3,3
18369.656,0.432,0.245,1.041,-111.58,-80.29,59.48,3,3
18369.671,0.441,0.234,0.99,-133.21,-85.3,70.59,3,3
18369.687,0.455,0.261,0.976,-152.47,-88.99,75.26,3,3
18369.687,0.446,0.213,0.965,-172.98,-94.82,80.75,3,3
18369.703,0.463,0.145,0.945,-191.14,-101.9,86.89,3,3
18369.718,0.465,0.087,0.912,-202.55,-106.91,93.17,3,3
18369.718,0.463,0.038,0.885,-207.8,-111.91,100.34,3,3
18369.734,0.468,-0.018,0.863,-206.0,-116.76,107.67,3,3
18369.734,0.498,-0.086,0.825,-200.66,-117.4,113.77,3,3
18369.75,0.527,-0.119,0.789,-193.24,-111.18,117.5,3,3
18369.765,0.536,-0.148,0.755,-183.02,-100.71,119.91,3,3
18369.765,0.534,-0.167,0.687,-173.71,-89.91,120.33,3,3
18369.781,0.529,-0.209,0.628,-167.94,-80.05,120.58,3,3
18369.796,0.552,-0.229,0.612,-162.6,-69.12,120.09,3,3
18369.796,0.554,-0.261,0.572,-155.4,-54.75,118.84,3,3
18369.812,0.552,-0.27,0.536,-150.58,-40.1,117.47,3,3
18369.828,0.545,-0.29,0.484,-149.05,-22.4,116.21,3,3
18369.828,0.53,-0.289,0.501,-154.94,-4.64,115.79,3,3
18369.843,0.484,-0.298,0.536,-161.93,9.49,115.27,3,3
18369.843,0.435,-0.355,0.549,-169.01,19.29,117.04,3,3
18369.859,0.425,-0.349,0.607,-177.77,24.38,120.06,3,3
18369.875,0.388,-0.351,0.636,-182.07,27.22,120.76,3,3
18369.875,0.379,-0.4,0.653,-185.19,23.77,122.07,3,3
18369.89,0.446,-0.433,0.656,-186.01,19.2,121.86,3,3
18369.906,0.506,-0.471,0.642,-181.71,21.82,117.83,3,3
18369.906,0.536,-0.521,0.636,-172.98,29.6,111.61,3,3
18369.921,0.576,-0.533,0.635,-156.04,54.02,95.4,3,3
18369.937,0.54,-0.531,0.661,-149.75,60.52,88.75,3,3
18369.937,0.489,-0.551,0.705,-146.03,60.76,84.54,3,3
18369.953,0.494,-0.552,0.779,-142.12,58.72,80.17,3,3
18369.968,0.498,-0.589,0.788,-134.46,55.45,75.41,3,3
18369.968,0.541,-0.624,0.766,-124.39,51.36,71.08,3,3
18369.984,0.563,-0.618,0.738,-113.83,52.52,65.25,3,3
18370.0,0.562,-0.621,0.618,-97.93,56.67,50.78,3,3
18370.015,0.585,-0.622,0.582,-97.05,57.19,41.38,3,3
18370.015,0.577,-0.614,0.574,-95.92,58.02,28.44,3,3
18370.031,0.578,-0.61,0.545,-94.85,57.28,18.49,3,3
18370.046,0.526,-0.627,0.547,-95.86,58.93,13.03,3,3
18370.046,0.507,-0.653,0.566,-97.81,61.71,11.14,3,3
18370.062,0.488,-0.688,0.565,-97.72,63.48,9.25,3,3
18370.078,0.457,-0.719,0.576,-95.89,64.06,6.96,3,3
18370.078,0.43,-0.733,0.58,-91.19,62.69,3.69,3,3
18370.093,0.43,-0.719,0.584,-84.93,58.81,-0.37,3,3
18370.093,0.423,-0.731,0.558,-78.46,56.79,-3.45,3,3
18370.109,0.457,-0.73,0.539,-74.43,55.6,-4.3,3,3
18370.125,0.475,-0.723,0.536,-71.9,58.29,-5.43,3,3
18370.125,0.447,-0.713,0.549,-70.65,62.65,-6.56,3,3
18370.14,0.393,-0.712,0.542,-70.19,63.78,-6.93,3,3
18370.156,0.432,-0.714,0.547,-70.47,61.1,-3.85,3,3
18370.171,0.423,-0.702,0.476,-73.61,57.37,-9.92,3,3
18370.187,0.431,-0.732,0.479,-79.44,59.66,-9.61,3,3
18370.187,0.411,-0.744,0.497,-77.46,63.26,-11.51,3,3
18370.203,0.386,-0.723,0.545,-69.8,63.97,-13.86,3,3
18370.218,0.379,-0.687,0.552,-59.51,62.04,-13.09,3,3
18370.218,0.426,-0.638,0.561,-51.03,57.53,-10.9,3,3
18370.234,0.431,-0.614,0.544,-45.87,54.6,-8.24,3,3
18370.234,0.418,-0.607,0.532,-46.17,52.03,-1.28,3,3
18370.25,0.41,-0.621,0.512,-50.84,48.16,6.93,3,3
18370.265,0.383,-0.688,0.478,-55.45,44.62,14.83,3,3
18370.281,0.385,-0.744,0.444,-54.78,41.93,22.74,3,3
18370.281,0.4,-0.749,0.407,-48.77,41.29,29.36,3,3
18370.296,0.401,-0.744,0.386,-44.62,42.63,32.9,3,3
18370.296,0.353,-0.763,0.389,-44.86,45.41,36.26,3,3
18370.312,0.302,-0.809,0.428,-47.09,44.8,40.99,3,3
18370.328,0.265,-0.852,0.462,-47.27,43.89,46.91,3,3
18370.328,0.265,-0.877,0.46,-42.97,36.65,48.71,3,3
18370.343,0.29,-0.886,0.442,-36.71,29.36,46.6,3,3
18370.359,0.264,-0.879,0.416,-31.92,24.69,41.14,3,3
18370.359,0.246,-0.897,0.406,-30.37,21.21,37.45,3,3
18370.375,0.229,-0.915,0.392,-28.35,17.85,34.91,3,3
18370.375,0.23,-0.94,0.365,-25.24,15.08,32.84,3,3
18370.39,0.249,-0.953,0.337,-22.1,13.52,28.78,3,3
18370.406,0.239,-0.948,0.318,-19.01,13.52,21.52,3,3
18370.406,0.228,-0.931,0.303,-17.52,13.79,14.89,3,3
18370.421,0.232,-0.912,0.289,-19.01,13.73,10.22,3,3
18370.437,0.226,-0.906,0.287,-20.48,14.92,6.53,3,3
18370.437,0.202,-0.907,0.272,-19.84,16.21,4.21,3,3
18370.453,0.197,-0.906,0.269,-20.72,16.85,4.03,3,3
18370.468,0.181,-0.923,0.275,-20.84,17.85,3.97,3,3
18370.468,0.154,-0.952,0.248,-18.86,18.34,4.03,3,3
18370.484,0.183,-0.968,0.225,-19.32,17.85,1.77,3,3
18370.484,0.218,-0.987,0.217,-18.56,18.89,-5.01,3,3
18370.5,0.226,-0.983,0.24,-15.23,21.42,-12.6,3,3
18370.515,0.231,-0.951,0.266,-11.75,22.89,-19.87,3,3
18370.531,0.229,-0.922,0.285,-8.85,22.8,-26.18,3,3
18370.531,0.223,-0.893,0.294,-7.45,21.82,-29.76,3,3
18370.546,0.222,-0.881,0.286,-8.21,20.17,-30.4,3,3
18370.546,0.224,-0.888,0.274,-8.73,19.59,-29.51,3,3
18370.562,0.216,-0.885,0.252,-8.24,20.33,-27.62,3,3
18370.578,0.221,-0.885,0.241,-9.09,21.73,-26.34,3,3
18370.578,0.221,-0.905,0.226,-9.86,23.56,-27.22,3,3
18370.593,0.233,-0.909,0.237,-8.27,25.61,-29.66,3,3
18370.593,0.241,-0.874,0.264,-4.24,27.65,-33.39,3,3
18370.609,0.248,-0.837,0.294,-0.61,28.47,-35.22,3,3
18370.625,0.269,-0.799,0.323,0.82,27.38,-34.12,3,3
18370.625,0.258,-0.789,0.327,1.04,26.28,-31.13,3,3
18370.64,0.257,-0.793,0.324,-1.1,24.72,-26.4,3,3
18370.656,0.256,-0.809,0.319,-3.48,23.8,-21.97,3,3
18370.671,0.243,-0.836,0.314,-5.31,23.65,-17.98,3,3
18370.671,0.258,-0.866,0.309,-7.23,22.58,-17.03,3,3
18370.687,0.285,-0.895,0.301,-4.91,21.58,-20.26,3,3
18370.687,0.298,-0.882,0.313,0.06,22.0,-23.44,3,3
18370.703,0.308,-0.848,0.347,4.79,22.49,-25.82,3,3
18370.718,0.315,-0.811,0.379,7.75,21.55,-26.18,3,3
18370.718,0.312,-0.796,0.398,6.81,19.14,-24.02,3,3
18370.734,0.321,-0.804,0.394,3.45,15.84,-20.69,3,3
18370.734,0.333,-0.826,0.378,1.62,12.6,-17.18,3,3
18370.75,0.341,-0.852,0.365,1.04,10.62,-14.04,3,3
18370.765,0.34,-0.862,0.357,0.89,9.74,-11.9,3,3
18370.765,0.339,-0.869,0.366,1.31,8.91,-10.32,3,3
18370.781,0.341,-0.866,0.389,2.26,7.54,-9.19,3,3
18370.796,0.324,-0.855,0.423,4.79,5.31,-7.97,3,3
18370.796,0.297,-0.848,0.422,7.87,1.46,-4.7,3,3
18370.812,0.301,-0.856,0.405,7.69,-3.11,0.12,3,3
18370.828,0.292,-0.888,0.374,6.5,-6.16,3.85,3,3
18370.828,0.309,-0.91,0.356,5.43,-7.81,7.17,3,3
18370.843,0.321,-0.922,0.349,4.46,-7.39,8.45,3,3
18370.843,0.3,-0.944,0.356,4.76,-5.58,8.3,3,3
18370.859,0.274,-0.95,0.354,6.01,-4.82,8.0,3,3
18370.875,0.255,-0.967,0.329,6.04,-4.64,7.72,3,3
18370.875,0.259,-0.986,0.319,4.27,-4.0,6.81,3,3
18370.89,0.264,-0.999,0.325,4.27,-2.08,4.52,3,3
18370.906,0.258,-0.996,0.337,7.6,-0.06,-2.5,3,3
18370.921,0.246,-0.977,0.365,11.05,-1.37,-5.28,3,3
18370.921,0.215,-0.946,0.39,11.93,-4.49,-3.54,3,3
18370.937,0.204,-0.908,0.391,7.45,-7.72,-0.27,3,3
18370.937,0.253,-0.93,0.348,2.81,-9.16,0.79,3,3
18370.953,0.248,-0.941,0.338,3.05,-8.58,0.79,3,3
18370.968,0.232,-0.938,0.318,4.12,-7.57,0.79,3,3
18370.968,0.239,-0.941,0.304,3.14,-6.44,0.43,3,3
18370.984,0.252,-0.946,0.3,3.11,-4.64,-0.76,3,3
18370.984,0.244,-0.938,0.307,4.18,-2.01,-1.25,3,3
18371.0,0.242,-0.934,0.316,3.97,0.31,-1.34,3,3
18371.015,0.245,-0.928,0.336,3.72,1.74,-2.04,3,3
18371.015,0.218,-0.922,0.357,4.76,2.44,-2.41,3,3
18371.031,0.219,-0.915,0.366,4.88,0.95,-1.07,3,3
18371.046,0.247,-0.919,0.358,3.94,-1.01,-0.7,3,3
18371.062,0.244,-0.925,0.359,3.88,-1.62,-1.43,3,3
18371.062,0.236,-0.927,0.354,4.64,-1.53,-1.16,3,3
18371.078,0.247,-0.924,0.35,4.09,-1.43,-0.03,3,3
18371.078,0.247,-0.931,0.349,2.87,-0.95,0.46,3,3
18371.093,0.24,-0.94,0.347,1.65,-0.58,0.15,3,3
18371.109,0.242,-0.945,0.349,1.68,-1.1,-1.01,3,3
18371.109,0.24,-0.94,0.347,2.38,-1.28,-2.38,3,3
18371.125,0.239,-0.927,0.343,3.23,-1.19,-3.23,3,3
18371.14,0.247,-0.914,0.339,3.88,-1.04,-3.57,3,3
18371.14,0.255,-0.907,0.341,3.94,-0.58,-4.15,3,3
18371.156,0.258,-0.903,0.347,4.33,-0.15,-4.94,3,3
18371.156,0.267,-0.894,0.354,5.71,0.18,-5.04,3,3
18371.171,0.253,-0.883,0.362,6.78,0.24,-5.25,3,3
18371.187,0.245,-0.884,0.372,6.47,-0.55,-4.21,3,3
18371.187,0.257,-0.886,0.367,5.74,-2.87,-2.08,3,3
18371.203,0.26,-0.892,0.354,4.52,-3.48,-0.03,3,3
18371.218,0.251,-0.906,0.345,3.36,-2.75,1.4,3,3
18371.218,0.248,-0.918,0.331,2.96,-1.83,2.2,3,3
18371.234,0.25,-0.925,0.331,2.99,-0.43,2.41,3,3
18371.234,0.246,-0.924,0.339,4.21,1.5,2.2,3,3
18371.25,0.24,-0.915,0.352,4.21,2.59,2.38,3,3
18371.265,0.236,-0.913,0.377,2.59,2.32,2.87,3,3
18371.265,0.245,-0.919,0.382,2.01,0.73,3.27,3,3
18371.281,0.254,-0.928,0.374,1.74,-0.52,3.42,3,3
18371.296,0.264,-0.936,0.364,1.77,-1.07,2.59,3,3
18371.296,0.266,-0.942,0.358,2.84,-0.98,0.7,3,3
18371.312,0.261,-0.937,0.357,3.72,-0.7,-1.53,3,3
18371.328,0.258,-0.927,0.363,3.78,-0.92,-3.6,3,3
18371.328,0.26,-0.919,0.369,4.24,-2.08,-5.52,3,3
18371.343,0.265,-0.908,0.366,5.13,-3.08,-6.56,3,3
18371.359,0.267,-0.888,0.351,5.83,-3.33,-5.95,3,3
18371.375,0.258,-0.887,0.349,4.3,-2.56,-4.15,3,3
18371.375,0.257,-0.893,0.345,2.17,-1.68,-1.83,3,3
18371.39,0.26,-0.904,0.345,0.31,-0.67,0.34,3,3
18371.406,0.272,-0.912,0.346,-0.85,0.37,1.74,3,3
18371.406,0.277,-0.916,0.352,-1.25,1.5,1.74,3,3
18371.421,0.271,-0.914,0.367,-0.58,2.26,0.46,3,3
18371.437,0.264,-0.906,0.372,0.27,2.17,-0.09,3,3
18371.437,0.268,-0.901,0.376,-0.58,1.68,0.21,3,3
18371.453,0.263,-0.902,0.385,-1.19,1.13,0.06,3,3
18371.453,0.249,-0.903,0.384,0.06,0.27,0.58,3,3
18371.468,0.264,-0.901,0.371,-0.12,-1.4,1.4,3,3
18371.484,0.277,-0.908,0.353,-1.16,-1.98,0.73,3,3
18371.484,0.28,-0.914,0.351,-0.82,-1.46,-0.58,3,3
18371.5,0.282,-0.909,0.346,0.31,-0.58,-1.74,3,3
18371.515,0.271,-0.909,0.341,0.76,0.76,-3.33,3,3
18371.531,0.257,-0.898,0.356,2.01,1.92,-5.34,3,3
18371.546,0.256,-0.885,0.373,1.89,1.77,-4.21,3,3
18371.546,0.252,-0.883,0.386,1.46,1.01,-2.81,3,3
18371.562,0.25,-0.884,0.383,1.43,-0.49,-0.79,3,3
18371.578,0.261,-0.887,0.369,0.15,-2.29,0.64,3,3
18371.578,0.266,-0.909,0.347,-0.85,-2.84,0.58,3,3
18371.593,0.276,-0.918,0.336,-0.43,-2.2,0.58,3,3
18371.593,0.272,-0.918,0.323,0.21,-0.18,0.12,3,3
18371.609,0.272,-0.918,0.331,-0.15,2.26,-0.46,3,3
18371.625,0.269,-0.91,0.354,-0.21,4.15,-0.92,3,3
18371.625,0.262,-0.905,0.369,0.27,4.82,-1.34,3,3
18371.64,0.259,-0.894,0.392,0.7,4.0,-1.98,3,3
18371.656,0.259,-0.887,0.395,1.83,1.89,-2.69,3,3
18371.656,0.259,-0.879,0.384,2.69,-0.21,-2.47,3,3
18371.671,0.266,-0.877,0.375,2.23,-1.53,-1.89,3,3
18371.687,0.273,-0.886,0.37,2.01,-2.14,-1.01,3,3
18371.687,0.269,-0.889,0.366,2.29,-1.68,0.4,3,3
18371.703,0.27,-0.897,0.367,1.65,-1.25,1.68,3,3
18371.718,0.26,-0.909,0.369,0.98,-1.13,2.2,3,3
18371.718,0.25,-0.923,0.359,0.76,-0.92,2.84,3,3
18371.734,0.261,-0.927,0.347,-0.34,-0.52,3.45,3,3
18371.734,0.271,-0.931,0.347,-1.28,1.1,2.69,3,3
18371.75,0.266,-0.933,0.364,-0.55,3.02,1.16,3,3
18371.765,0.259,-0.922,0.383,1.04,4.18,0.06,3,3
18371.765,0.258,-0.903,0.404,1.8,4.03,-0.55,3,3
18371.781,0.256,-0.908,0.412,1.74,2.29,-0.79,3,3
18371.796,0.256,-0.919,0.404,1.65,0.27,-0.27,3,3
18371.812,0.261,-0.921,0.386,0.52,-1.19,0.43,3,3
18371.812,0.264,-0.923,0.371,-1.37,-1.46,0.46,3,3
18371.812,0.257,-0.92,0.363,-2.59,-0.85,0.4,3,3
18371.828,0.252,-0.908,0.358,-2.5,0.0,-0.03,3,3
18371.843,0.255,-0.898,0.365,-1.59,0.55,-0.7,3,3
18371.859,0.252,-0.887,0.367,-0.58,0.76,-1.04,3,3
18371.859,0.256,-0.881,0.367,0.0,0.46,-0.73,3,3
18371.875,0.249,-0.884,0.362,0.55,0.15,0.03,3,3
18371.89,0.244,-0.888,0.349,-0.06,-0.09,1.46,3,3
18371.89,0.246,-0.899,0.341,-2.96,0.92,2.75,3,3
18371.906,0.252,-0.917,0.34,-2.23,1.98,2.35,3,3
18371.906,0.26,-0.923,0.341,-1.07,3.3,0.92,3,3
18371.921,0.26,-0.918,0.357,-0.03,3.66,-0.7,3,3
18371.937,0.25,-0.911,0.36,0.58,3.57,-1.59,3,3
18371.937,0.252,-0.912,0.357,0.18,2.93,-1.31,3,3
18371.953,0.266,-0.918,0.353,-0.49,2.62,-1.04,3,3
18371.968,0.276,-0.917,0.358,-0.79,3.2,-1.34,3,3
18371.968,0.276,-0.91,0.368,-0.55,4.12,-2.11,3,3
18371.984,0.274,-0.902,0.379,-0.31,4.43,-2.41,3,3
18371.984,0.268,-0.9,0.382,-0.49,3.69,-2.75,3,3
18372.0,0.27,-0.908,0.376,-0.85,2.17,-3.02,3,3
18372.015,0.274,-0.909,0.36,-0.7,0.92,-3.85,3,3
18372.015,0.278,-0.909,0.349,-0.4,0.82,-5.4,3,3
18372.031,0.275,-0.9,0.348,0.58,1.77,-6.5,3,3
18372.046,0.275,-0.884,0.356,1.4,2.81,-6.59,3,3
18372.046,0.271,-0.87,0.364,1.34,2.99,-6.16,3,3
18372.062,0.278,-0.864,0.37,0.89,2.72,-5.01,3,3
18372.078,0.282,-0.86,0.369,0.58,2.69,-3.05,3,3
18372.078,0.273,-0.864,0.371,-0.06,2.96,-0.52,3,3
18372.093,0.267,-0.875,0.369,-1.25,2.78,1.68,3,3
18372.109,0.276,-0.89,0.365,-2.26,2.47,2.93,3,3
18372.109,0.283,-0.903,0.364,-1.77,2.5,2.78,3,3
18372.125,0.285,-0.906,0.366,-0.06,2.96,2.14,3,3
18372.125,0.283,-0.9,0.369,0.61,3.05,1.5,3,3
18372.14,0.274,-0.899,0.369,0.0,3.02,1.1,3,3
18372.156,0.274,-0.907,0.378,-0.58,2.5,1.1,3,3
18372.156,0.281,-0.903,0.377,0.09,2.47,1.1,3,3
18372.171,0.278,-0.894,0.378,0.37,2.72,0.89,3,3
18372.187,0.263,-0.892,0.387,0.4,2.38,0.82,3,3
18372.187,0.253,-0.896,0.383,0.98,0.85,1.53,3,3
18372.203,0.258,-0.896,0.368,0.95,-0.37,2.47,3,3
18372.203,0.27,-0.906,0.36,0.95,-0.37,3.02,3,3
18372.218,0.265,-0.904,0.355,1.5,1.07,3.81,3,3
18372.234,0.255,-0.901,0.362,0.79,2.75,5.22,3,3
18372.25,0.247,-0.904,0.374,-0.58,3.75,6.35,3,3
18372.25,0.239,-0.914,0.375,-1.92,3.97,7.29,3,3
18372.265,0.24,-0.932,0.371,-3.39,3.85,7.51,3,3
18372.265,0.248,-0.94,0.375,-3.45,3.66,6.2,3,3
18372.281,0.248,-0.944,0.375,-2.01,3.72,3.51,3,3
18372.296,0.249,-0.94,0.379,-0.61,3.63,1.31,3,3
18372.296,0.249,-0.935,0.39,0.21,3.39,-0.4,3,3
18372.312,0.244,-0.936,0.405,0.4,2.84,-2.11,3,3
18372.328,0.241,-0.938,0.413,0.79,1.46,-3.85,3,3
18372.343,0.236,-0.941,0.407,1.83,-0.92,-6.23,3,3
18372.343,0.237,-0.938,0.393,3.57,-3.66,-9.03,3,3
18372.343,0.242,-0.921,0.381,5.07,-5.34,-11.08,3,3
18372.359,0.243,-0.903,0.363,4.88,-5.52,-11.63,3,3
18372.375,0.248,-0.894,0.358,3.45,-4.7,-10.99,3,3
18372.375,0.261,-0.892,0.355,2.35,-3.33,-9.77,3,3
18372.39,0.267,-0.891,0.352,2.14,-1.62,-9.09,3,3
18372.406,0.26,-0.885,0.353,2.38,-0.09,-8.64,3,3
18372.406,0.255,-0.876,0.351,2.26,0.76,-7.39,3,3
18372.421,0.253,-0.871,0.357,1.37,1.22,-5.31,3,3
18372.437,0.249,-0.878,0.355,0.09,1.95,-2.9,3,3
18372.437,0.252,-0.885,0.355,-1.19,2.87,-0.46,3,3
18372.453,0.257,-0.893,0.357,-2.01,3.97,1.22,3,3
18372.468,0.252,-0.897,0.36,-2.14,4.64,1.5,3,3
18372.468,0.247,-0.901,0.364,-1.89,4.73,0.89,3,3
18372.484,0.256,-0.903,0.367,-1.34,4.15,-0.03,3,3
18372.484,0.255,-0.904,0.363,-0.55,3.66,-1.28,3,3
18372.5,0.258,-0.906,0.364,-0.34,3.57,-2.32,3,3
18372.515,0.263,-0.904,0.37,0.15,3.75,-3.27,3,3
18372.515,0.261,-0.899,0.37,1.1,4.09,-3.75,3,3
18372.531,0.261,-0.892,0.376,1.37,4.06,-3.94,3,3
18372.546,0.264,-0.893,0.384,1.28,3.6,-4.43,3,3
18372.562,0.257,-0.892,0.387,2.01,3.02,-4.61,3,3
18372.562,0.254,-0.89,0.387,2.9,2.14,-3.85,3,3
18372.562,0.259,-0.886,0.378,2.93,0.95,-3.05,3,3
18372.578,0.254,-0.89,0.365,2.53,0.46,-2.2,3,3
18372.593,0.254,-0.891,0.353,1.4,1.31,-0.82,3,3
18372.609,0.255,-0.89,0.351,0.09,3.3,1.25,3,3
18372.609,0.251,-0.888,0.352,-1.43,6.32,3.91,3,3
18372.625,0.245,-0.89,0.365,-3.66,8.73,6.84,3,3
18372.625,0.247,-0.902,0.38,-4.52,9.64,8.7,3,3
18372.64,0.25,-0.911,0.391,-4.49,9.37,9.19,3,3
18372.656,0.252,-0.919,0.398,-4.39,8.18,8.09,3,3
18372.656,0.249,-0.93,0.398,-3.81,6.9,6.29,3,3
18372.671,0.258,-0.94,0.39,-3.69,5.74,4.88,3,3
18372.687,0.272,-0.94,0.381,-3.45,5.37,3.11,3,3
18372.687,0.265,-0.932,0.379,-2.93,5.8,0.82,3,3
18372.703,0.257,-0.925,0.383,-2.32,5.8,-0.95,3,3
18372.718,0.258,-0.913,0.384,-1.53,5.25,-2.08,3,3
18372.718,0.257,-0.904,0.377,-0.95,4.55,-2.5,3,3
18372.734,0.26,-0.894,0.379,-1.13,4.06,-2.29,3,3
18372.734,0.268,-0.892,0.377,-1.34,3.45,-2.2,3,3
18372.75,0.265,-0.894,0.372,-1.1,3.14,-2.75,3,3
18372.765,0.27,-0.894,0.363,-0.82,2.62,-3.14,3,3
18372.781,0.285,-0.891,0.356,-0.55,2.23,-4.06,3,3
18372.781,0.295,-0.884,0.361,0.15,2.72,-5.34,3,3
18372.796,0.297,-0.87,0.365,0.82,3.54,-5.68,3,3
18372.796,0.296,-0.86,0.376,0.92,3.72,-4.91,3,3
18372.812,0.293,-0.855,0.383,0.46,3.48,-3.97,3,3
18372.828,0.293,-0.857,0.386,-0.03,2.47,-2.84,3,3
18372.828,0.296,-0.863,0.383,-0.06,1.07,-1.95,3,3
18372.843,0.304,-0.864,0.371,0.49,-0.31,-2.32,3,3
18372.859,0.311,-0.859,0.358,1.71,-1.43,-3.6,3,3
18372.859,0.318,-0.85,0.341,3.45,-2.26,-4.64,3,3
18372.875,0.323,-0.832,0.326,5.49,-1.4,-4.73,3,3
18372.875,0.324,-0.816,0.321,5.22,0.67,-2.53,3,3
18372.89,0.327,-0.807,0.333,4.21,3.54,2.14,3,3
18372.906,0.328,-0.798,0.347,1.4,5.92,7.87,3,3
18372.906,0.325,-0.817,0.396,-1.65,6.26,12.45,3,3
18372.921,0.342,-0.837,0.418,-2.14,5.34,14.98,3,3
18372.937,0.341,-0.845,0.438,-1.37,4.21,15.56,3,3
18372.937,0.33,-0.856,0.449,-0.61,1.77,15.11,3,3
18372.953,0.322,-0.866,0.454,0.79,-2.62,14.16,3,3
18372.968,0.308,-0.879,0.437,3.39,-7.23,12.63,3,3
18372.968,0.313,-0.886,0.407,4.88,-11.23,11.23,3,3
18372.984,0.322,-0.891,0.386,5.98,-13.18,9.28,3,3
18372.984,0.321,-0.895,0.373,7.6,-13.25,7.35,3,3
18373.0,0.313,-0.889,0.367,9.03,-12.57,5.98,3,3
18373.015,0.316,-0.887,0.38,10.28,-12.33,4.33,3,3
18373.015,0.324,-0.878,0.402,12.18,-12.02,3.05,3,3
18373.031,0.319,-0.859,0.422,13.37,-12.33,3.08,3,3
18373.046,0.312,-0.85,0.431,12.85,-13.98,3.88,3,3
18373.046,0.316,-0.855,0.428,11.72,-16.39,4.97,3,3
18373.062,0.323,-0.856,0.416,11.11,-18.19,7.23,3,3
18373.078,0.326,-0.858,0.396,10.04,-18.25,9.7,3,3
18373.078,0.325,-0.871,0.388,8.51,-16.94,11.57,3,3
18373.093,0.324,-0.88,0.393,7.69,-15.38,12.7,3,3
18373.093,0.328,-0.884,0.41,7.6,-14.19,12.63,3,3
18373.109,0.324,-0.88,0.428,8.33,-13.7,11.93,3,3
18373.125,0.323,-0.877,0.442,9.09,-14.53,11.29,3,3
18373.125,0.328,-0.874,0.449,9.52,-16.36,10.5,3,3
18373.14,0.332,-0.867,0.462,9.49,-17.82,9.98,3,3
18373.156,0.322,-0.864,0.465,9.89,-19.29,10.35,3,3
18373.156,0.322,-0.864,0.466,9.77,-21.27,11.9,3,3
18373.171,0.335,-0.867,0.454,7.97,-23.1,13.03,3,3
18373.187,0.339,-0.885,0.443,6.56,-24.08,12.94,3,3
18373.187,0.346,-0.888,0.446,7.26,-24.26,12.45,3,3
18373.203,0.34,-0.874,0.449,8.73,-23.99,11.51,3,3
18373.218,0.326,-0.862,0.46,9.22,-24.11,11.51,3,3
18373.218,0.316,-0.852,0.468,8.24,-24.81,13.55,3,3
18373.234,0.309,-0.855,0.475,6.1,-25.94,16.54,3,3
18373.234,0.3,-0.876,0.472,4.76,-27.1,19.2,3,3
18373.25,0.306,-0.894,0.461,4.43,-28.6,21.21,3,3
18373.265,0.308,-0.906,0.454,4.67,-29.39,21.36,3,3
18373.281,0.304,-0.913,0.458,5.52,-29.82,20.48,3,3
18373.281,0.297,-0.911,0.461,6.62,-30.61,19.26,3,3
18373.296,0.291,-0.906,0.463,7.48,-31.53,17.64,3,3
18373.296,0.285,-0.901,0.468,8.58,-32.78,15.63,3,3
18373.312,0.274,-0.891,0.464,10.1,-34.21,14.1,3,3
18373.328,0.274,-0.883,0.456,11.08,-35.89,13.15,3,3
18373.328,0.284,-0.875,0.444,11.66,-37.23,13.18,3,3
18373.343,0.297,-0.869,0.432,11.41,-37.26,14.25,3,3
18373.359,0.298,-0.861,0.433,10.5,-36.01,16.24,3,3
18373.359,0.296,-0.857,0.446,9.28,-34.64,18.65,3,3
18373.375,0.297,-0.859,0.453,7.93,-33.6,21.39,3,3
18373.39,0.286,-0.871,0.462,6.32,-32.93,23.41,3,3
18373.39,0.285,-0.885,0.468,4.82,-33.08,24.63,3,3
18373.406,0.287,-0.892,0.472,3.6,-33.81,24.69,3,3
18373.406,0.29,-0.901,0.475,3.54,-34.97,23.8,3,3
18373.421,0.293,-0.896,0.482,4.18,-36.04,22.31,3,3
18373.437,0.29,-0.889,0.492,5.13,-37.26,20.14,3,3
18373.437,0.286,-0.878,0.504,6.13,-38.7,18.59,3,3
18373.453,0.276,-0.87,0.51,7.02,-40.59,18.25,3,3
18373.453,0.27,-0.867,0.509,6.78,-43.18,18.19,3,3
18373.468,0.268,-0.866,0.502,6.56,-45.69,17.58,3,3
18373.484,0.271,-0.862,0.501,7.32,-47.67,16.72,3,3
18373.484,0.268,-0.849,0.502,8.67,-48.86,15.87,3,3
18373.5,0.265,-0.84,0.501,9.4,-49.84,15.38,3,3
18373.515,0.268,-0.836,0.498,9.4,-51.12,16.6,3,3
18373.515,0.264,-0.835,0.488,8.15,-51.55,19.17,3,3
18373.531,0.256,-0.843,0.482,5.8,-51.61,21.03,3,3
18373.546,0.246,-0.859,0.487,5.01,-52.16,21.7,3,3
18373.546,0.241,-0.865,0.482,6.93,-53.1,21.76,3,3
18373.562,0.236,-0.864,0.476,9.09,-54.35,21.67,3,3
18373.578,0.226,-0.865,0.477,10.07,-55.57,21.33,3,3
18373.578,0.216,-0.873,0.476,10.44,-56.89,21.49,3,3
18373.593,0.21,-0.885,0.465,10.47,-58.11,21.27,3,3
18373.609,0.207,-0.892,0.455,10.62,-58.87,19.38,3,3
18373.609,0.199,-0.888,0.451,12.12,-59.42,16.36,3,3
18373.625,0.192,-0.876,0.444,14.53,-60.03,14.5,3,3
18373.64,0.193,-0.856,0.434,15.63,-60.43,14.53,3,3
18373.64,0.197,-0.848,0.427,15.05,-60.24,15.26,3,3
18373.656,0.194,-0.85,0.418,14.19,-59.02,16.97,3,3
18373.656,0.194,-0.845,0.411,13.46,-57.28,18.52,3,3
18373.671,0.19,-0.857,0.414,12.09,-56.83,19.01,3,3
18373.687,0.183,-0.878,0.43,12.67,-54.29,21.09,3,3
18373.687,0.186,-0.868,0.428,16.08,-53.83,22.25,3,3
18373.703,0.188,-0.85,0.421,17.37,-55.36,20.97,3,3
18373.718,0.173,-0.863,0.432,14.65,-56.49,19.07,3,3
18373.718,0.16,-0.897,0.438,12.45,-56.89,18.68,3,3
18373.734,0.161,-0.916,0.434,13.46,-56.58,18.22,3,3
18373.734,0.172,-0.923,0.419,15.87,-56.22,15.02,3,3
18373.75,0.198,-0.931,0.41,17.46,-55.39,11.41,3,3
18373.765,0.244,-0.915,0.412,18.13,-53.53,9.98,3,3
18373.765,0.264,-0.883,0.42,16.75,-50.94,10.47,3,3
18373.781,0.239,-0.868,0.444,12.82,-48.31,13.34,3,3
18373.796,0.209,-0.873,0.465,8.42,-47.21,18.13,3,3
18373.796,0.199,-0.886,0.473,5.01,-47.64,23.53,3,3
18373.812,0.204,-0.913,0.468,2.59,-48.07,27.53,3,3
18373.828,0.216,-0.927,0.468,1.8,-47.76,28.93,3,3
18373.828,0.213,-0.932,0.471,2.81,-47.61,27.22,3,3
18373.843,0.191,-0.918,0.472,4.94,-48.37,23.47,3,3
18373.859,0.175,-0.906,0.467,8.21,-50.84,18.89,3,3
18373.859,0.16,-0.891,0.444,14.31,-55.91,13.79,3,3
18373.875,0.155,-0.882,0.417,16.08,-55.91,13.95,3,3
18373.89,0.153,-0.867,0.391,15.99,-54.17,15.26,3,3
18373.89,0.15,-0.851,0.351,14.83,-51.52,18.04,3,3
18373.906,0.17,-0.839,0.348,12.82,-48.1,22.61,3,3
18373.906,0.164,-0.832,0.356,9.95,-43.21,27.5,3,3
18373.921,0.148,-0.84,0.382,6.1,-39.61,33.23,3,3
18373.937,0.142,-0.844,0.398,3.78,-37.05,39.19,3,3
18373.937,0.147,-0.853,0.401,1.43,-37.29,42.24,3,3
18373.953,0.137,-0.881,0.4,-2.5,-37.93,43.24,3,3
18373.968,0.153,-0.923,0.417,-4.52,-38.03,43.52,3,3
18373.968,0.153,-0.946,0.421,-1.37,-34.52,42.76,3,3
18373.984,0.17,-0.95,0.424,2.44,-33.88,39.61,3,3
18373.984,0.175,-0.948,0.426,5.95,-33.66,34.55,3,3
18374.0,0.171,-0.934,0.435,6.96,-37.51,28.32,3,3
18374.015,0.189,-0.931,0.458,6.87,-39.92,23.26,3,3
18374.031,0.185,-0.933,0.488,9.98,-41.32,19.96,3,3
18374.031,0.172,-0.908,0.495,15.05,-44.43,19.1,3,3
18374.046,0.177,-0.881,0.477,16.91,-49.07,18.46,3,3
18374.046,0.178,-0.886,0.459,13.89,-52.43,17.06,3,3
18374.062,0.18,-0.918,0.443,10.53,-53.47,15.93,3,3
18374.078,0.205,-0.923,0.427,10.41,-52.8,15.5,3,3
18374.078,0.221,-0.914,0.411,11.26,-50.69,14.01,3,3
18374.093,0.218,-0.91,0.427,10.5,-48.04,12.79,3,3
18374.109,0.221,-0.905,0.453,10.22,-46.24,12.54,3,3
18374.109,0.228,-0.894,0.481,11.54,-46.24,13.18,3,3
18374.125,0.24,-0.875,0.504,12.82,-48.07,13.76,3,3
18374.125,0.251,-0.861,0.516,13.09,-50.81,13.25,3,3
18374.14,0.25,-0.858,0.523,12.91,-53.96,11.81,3,3
18374.156,0.255,-0.848,0.529,14.31,-57.22,9.58,3,3
18374.156,0.261,-0.83,0.523,18.22,-60.64,5.86,3,3
18374.171,0.26,-0.784,0.516,22.98,-63.97,1.34,3,3
18374.187,0.245,-0.735,0.512,27.74,-67.14,-2.47,3,3
18374.187,0.245,-0.688,0.503,31.34,-70.25,-3.3,3,3
18374.203,0.252,-0.658,0.482,33.3,-72.15,0.15,3,3
18374.218,0.248,-0.648,0.454,32.23,-71.44,8.06,3,3
18374.218,0.251,-0.672,0.43,27.59,-68.64,18.07,3,3
18374.234,0.256,-0.712,0.421,21.79,-64.55,27.16,3,3
18374.25,0.245,-0.763,0.427,18.07,-59.82,33.88,3,3
18374.25,0.252,-0.789,0.439,16.39,-56.92,37.6,3,3
18374.265,0.236,-0.841,0.454,15.29,-55.15,39.52,3,3
18374.281,0.226,-0.901,0.487,14.95,-54.14,43.7,3,3
18374.281,0.224,-0.913,0.495,17.06,-53.8,46.02,3,3
18374.296,0.224,-0.916,0.5,17.37,-54.99,44.43,3,3
18374.296,0.206,-0.933,0.516,13.92,-55.97,40.8,3,3
18374.312,0.202,-0.977,0.527,10.9,-57.86,38.03,3,3
18374.328,0.209,-0.988,0.527,11.57,-59.94,36.35,3,3
18374.328,0.194,-0.989,0.509,14.13,-59.54,33.66,3,3
18374.343,0.192,-0.99,0.495,15.11,-59.88,30.58,3,3
18374.359,0.199,-0.99,0.498,14.89,-60.0,27.41,3,3
18374.359,0.189,-0.981,0.498,14.62,-59.11,24.69,3,3
18374.375,0.181,-0.975,0.499,15.17,-59.42,22.49,3,3
18374.375,0.183,-0.956,0.493,15.35,-60.52,21.61,3,3
18374.39,0.177,-0.934,0.48,14.4,-61.49,21.36,3,3
18374.406,0.162,-0.921,0.466,12.73,-62.07,22.31,3,3
18374.406,0.149,-0.916,0.462,10.35,-61.8,24.57,3,3
18374.421,0.141,-0.919,0.453,8.76,-61.01,27.99,3,3
18374.437,0.147,-0.919,0.439,7.6,-59.79,30.7,3,3
18374.437,0.138,-0.93,0.426,6.41,-57.71,30.73,3,3
18374.453,0.129,-0.949,0.423,6.04,-56.46,29.48,3,3
18374.468,0.134,-0.957,0.412,7.14,-55.21,27.77,3,3
18374.468,0.15,-0.961,0.398,7.72,-53.38,24.87,3,3
18374.484,0.18,-0.964,0.398,7.39,-51.27,21.45,3,3
18374.484,0.215,-0.957,0.413,7.42,-48.62,18.43,3,3
18374.5,0.257,-0.934,0.439,7.84,-47.03,15.59,3,3
18374.515,0.271,-0.906,0.473,8.76,-47.88,13.12,3,3
18374.531,0.274,-0.872,0.504,10.32,-51.0,12.09,3,3
18374.531,0.268,-0.838,0.51,11.11,-55.76,11.75,3,3
18374.546,0.251,-0.816,0.514,12.05,-61.43,10.56,3,3
18374.546,0.243,-0.795,0.506,14.83,-66.53,9.43,3,3
18374.562,0.241,-0.757,0.482,17.21,-69.8,10.04,3,3
18374.578,0.229,-0.736,0.454,17.88,-70.93,12.33,3,3
18374.578,0.241,-0.732,0.441,16.91,-70.38,16.75,3,3
18374.593,0.254,-0.732,0.437,16.08,-68.21,22.77,3,3
18374.609,0.238,-0.735,0.447,15.66,-65.19,29.42,3,3
18374.609,0.209,-0.742,0.473,15.47,-63.81,35.98,3,3
18374.625,0.172,-0.756,0.496,15.2,-64.27,42.18,3,3
18374.625,0.144,-0.79,0.487,14.1,-66.13,48.1,3,3
18374.64,0.133,-0.825,0.468,11.72,-68.3,53.01,3,3
18374.656,0.122,-0.876,0.437,9.25,-68.97,55.12,3,3
18374.656,0.125,-0.926,0.419,7.29,-67.32,55.02,3,3
18374.671,0.124,-0.95,0.42,6.84,-63.91,52.95,3,3
18374.687,0.113,-0.965,0.44,8.18,-60.52,50.26,3,3
18374.687,0.086,-0.962,0.463,10.32,-59.05,47.09,3,3
18374.703,0.081,-0.966,0.491,12.3,-59.63,43.09,3,3
18374.718,0.112,-0.963,0.512,15.02,-61.74,38.0,3,3
18374.718,0.13,-0.954,0.527,18.13,-63.91,31.77,3,3
18374.734,0.145,-0.934,0.55,20.54,-65.37,25.12,3,3
18374.734,0.163,-0.89,0.575,23.53,-67.45,17.49,3,3
18374.75,0.18,-0.825,0.592,29.63,-71.93,8.58,3,3
18374.765,0.199,-0.724,0.592,37.2,-77.55,2.47,3,3
18374.765,0.19,-0.625,0.564,41.72,-82.16,3.88,3,3
18374.781,0.169,-0.583,0.511,39.8,-83.38,15.81,3,3
18374.796,0.137,-0.595,0.414,30.18,-78.95,35.65,3,3
18374.796,0.172,-0.663,0.354,15.99,-71.2,57.13,3,3
18374.812,0.205,-0.742,0.369,5.89,-59.3,73.46,3,3
18374.828,0.183,-0.817,0.43,3.6,-46.97,82.28,3,3
18374.828,0.167,-0.87,0.52,7.84,-41.87,83.38,3,3
18374.843,0.124,-0.896,0.593,25.42,-52.25,65.55,3,3
18374.843,0.054,-0.944,0.617,27.59,-64.61,57.83,3,3
18374.859,0.079,-0.987,0.623,29.3,-73.92,49.26,3,3
18374.875,0.08,-1.002,0.6,31.65,-80.42,39.46,3,3
18374.875,0.043,-1.033,0.481,34.55,-86.37,29.42,3,3
18374.89,0.049,-1.009,0.433,40.16,-87.8,20.02,3,3
18374.906,0.025,-0.963,0.4,43.82,-84.26,15.11,3,3
18374.906,0.025,-0.922,0.368,42.91,-78.98,14.74,3,3
18374.921,0.071,-0.89,0.383,37.39,-72.7,19.04,3,3
18374.937,0.064,-0.859,0.407,30.24,-63.54,26.25,3,3
18374.937,0.021,-0.862,0.443,23.16,-55.6,35.37,3,3
18374.953,0.007,-0.875,0.497,17.15,-50.9,44.56,3,3
18374.968,-0.021,-0.903,0.51,13.7,-48.65,50.33,3,3
18374.968,-0.032,-0.95,0.516,10.56,-49.1,52.52,3,3
18374.984,-0.011,-0.992,0.52,11.11,-51.12,48.95,3,3
18374.984,-0.002,-1.019,0.522,15.59,-52.98,41.38,3,3
18375.0,-0.027,-1.006,0.521,20.39,-53.19,33.39,3,3
18375.015,-0.037,-1.003,0.508,24.02,-54.45,26.34,3,3
18375.031,-0.031,-0.989,0.495,25.06,-55.27,23.41,3,3
18375.031,-0.017,-0.966,0.472,22.64,-53.8,22.61,3,3
18375.046,-0.005,-0.947,0.466,19.5,-51.67,19.78,3,3
18375.046,-0.006,-0.926,0.483,19.68,-49.01,16.51,3,3
18375.062,0.01,-0.87,0.501,21.7,-45.87,17.46,3,3
18375.078,0.052,-0.819,0.527,20.78,-42.82,21.97,3,3
18375.078,0.057,-0.803,0.556,17.49,-39.74,27.89,3,3
18375.093,0.07,-0.819,0.589,14.1,-39.61,33.05,3,3
18375.109,0.086,-0.829,0.595,13.12,-41.72,34.97,3,3
18375.109,0.086,-0.831,0.584,14.19,-44.5,34.21,3,3
18375.125,0.123,-0.82,0.576,15.81,-47.3,32.84,3,3
18375.125,0.113,-0.802,0.544,17.49,-47.98,31.5,3,3
18375.14,0.058,-0.812,0.499,16.33,-47.85,31.16,3,3
18375.156,0.046,-0.836,0.438,13.46,-48.01,31.5,3,3
18375.156,0.076,-0.854,0.4,12.67,-47.49,29.57,3,3
18375.171,0.071,-0.859,0.371,15.44,-44.07,25.06,3,3
18375.187,0.079,-0.852,0.381,19.9,-40.04,21.91,3,3
18375.187,0.083,-0.82,0.416,25.18,-35.95,20.97,3,3
18375.203,0.051,-0.799,0.441,27.65,-32.2,23.74,3,3
18375.218,0.04,-0.805,0.472,23.32,-29.79,31.1,3,3
18375.218,0.037,-0.822,0.491,17.0,-28.96,38.33,3,3
18375.234,0.008,-0.872,0.498,12.48,-28.96,42.73,3,3
18375.234,-0.023,-0.928,0.475,8.73,-28.81,46.42,3,3
18375.25,-0.027,-0.995,0.438,5.62,-27.83,47.27,3,3
18375.265,-0.021,-1.048,0.415,4.97,-25.76,43.92,3,3
18375.281,-0.041,-1.064,0.399,6.2,-21.27,37.2,3,3
18375.281,-0.047,-1.064,0.414,7.57,-16.94,29.33,3,3
18375.296,-0.051,-1.046,0.441,10.47,-12.79,21.58,3,3
18375.296,-0.056,-1.003,0.486,13.4,-9.34,16.24,3,3
18375.312,-0.104,-0.964,0.519,14.68,-6.62,14.1,3,3
18375.328,-0.14,-0.937,0.539,13.52,-7.48,15.72,3,3
18375.328,-0.112,-0.917,0.548,10.93,-12.12,19.1,3,3
18375.343,-0.099,-0.931,0.515,6.68,-14.8,23.32,3,3
18375.359,-0.069,-0.97,0.489,0.09,-15.53,27.22,3,3
18375.359,-0.051,-1.011,0.465,-4.67,-12.82,27.34,3,3
18375.375,-0.068,-1.044,0.46,-5.62,-8.61,22.74,3,3
18375.375,-0.066,-1.058,0.441,-3.69,-5.13,15.9,3,3
18375.39,-0.038,-1.032,0.458,-0.73,-2.56,8.61,3,3
18375.406,-0.032,-0.991,0.473,1.98,0.52,1.68,3,3
18375.406,-0.031,-0.954,0.512,2.2,2.35,-2.17,3,3
18375.421,-0.024,-0.907,0.559,2.32,1.68,-4.52,3,3
18375.437,-0.028,-0.879,0.583,3.91,-1.01,-6.1,3,3
18375.437,-0.023,-0.861,0.568,4.18,-5.25,-5.8,3,3
18375.453,0.012,-0.86,0.532,2.59,-9.92,-5.37,3,3
18375.453,0.039,-0.869,0.498,2.2,-11.47,-4.91,3,3
18375.468,0.054,-0.862,0.454,1.5,-10.07,-3.57,3,3
18375.484,0.074,-0.862,0.44,-0.79,-6.87,-2.99,3,3
18375.5,0.077,-0.857,0.449,-2.62,-2.32,-3.11,3,3
18375.5,0.07,-0.85,0.461,-2.81,1.83,-2.93,3,3
18375.515,0.053,-0.842,0.467,-2.56,4.52,-2.26,3,3
18375.515,0.046,-0.843,0.469,-2.81,5.01,-1.01,3,3
18375.531,0.054,-0.84,0.476,-3.27,4.94,0.92,3,3
18375.546,0.06,-0.846,0.471,-4.0,5.19,2.11,3,3
18375.546,0.069,-0.86,0.479,-4.03,5.34,2.59,3,3
18375.562,0.075,-0.854,0.489,-2.62,5.68,2.35,3,3
18375.578,0.076,-0.847,0.489,-1.07,5.55,0.95,3,3
18375.578,0.07,-0.848,0.478,-0.61,5.19,-0.21,3,3
18375.593,0.078,-0.851,0.473,-0.73,5.22,-0.15,3,3
18375.593,0.079,-0.851,0.471,-1.46,6.68,0.55,3,3
18375.609,0.072,-0.864,0.468,-2.29,8.09,0.73,3,3
18375.625,0.083,-0.875,0.47,-1.71,8.61,0.18,3,3
18375.625,0.112,-0.871,0.483,0.09,9.25,-0.73,3,3
18375.64,0.114,-0.851,0.501,1.01,10.8,-1.37,3,3
18375.656,0.097,-0.843,0.522,-0.4,11.08,-1.62,3,3
18375.656,0.086,-0.854,0.538,-1.77,9.06,-1.68,3,3
18375.671,0.09,-0.866,0.536,-1.31,5.74,-2.01,3,3
18375.687,0.114,-0.878,0.519,0.58,2.75,-3.11,3,3
18375.687,0.137,-0.881,0.498,1.86,2.35,-4.3,3,3
18375.703,0.141,-0.883,0.497,1.77,3.3,-6.44,3,3
18375.718,0.13,-0.881,0.509,1.89,4.03,-9.34,3,3
18375.718,0.122,-0.869,0.523,3.05,3.85,-11.35,3,3
18375.734,0.122,-0.851,0.53,4.55,3.11,-12.02,3,3
18375.734,0.12,-0.838,0.528,5.71,1.89,-11.63,3,3
18375.75,0.119,-0.824,0.525,5.19,0.73,-10.1,3,3
18375.765,0.126,-0.83,0.525,3.6,-0.03,-7.93,3,3
18375.781,0.139,-0.836,0.528,2.17,-0.21,-5.46,3,3
18375.781,0.138,-0.85,0.522,1.5,0.85,-3.45,3,3
18375.796,0.141,-0.863,0.527,0.92,2.14,-1.65,3,3
18375.796,0.144,-0.868,0.536,0.43,3.08,-0.58,3,3
18375.812,0.133,-0.871,0.548,-0.09,3.51,-0.52,3,3
18375.828,0.121,-0.879,0.559,-0.34,2.9,-1.4,3,3
18375.828,0.113,-0.882,0.562,3.02,-1.22,-4.58,3,3
18375.843,0.096,-0.877,0.552,3.57,-3.3,-4.85,3,3
18375.859,0.094,-0.87,0.534,2.81,-4.39,-4.79,3,3
18375.859,0.087,-0.875,0.499,2.01,-4.0,-4.64,3,3
18375.875,0.082,-0.882,0.491,1.13,-2.9,-3.88,3,3
18375.875,0.08,-0.88,0.491,0.76,-1.53,-3.91,3,3
18375.89,0.063,-0.871,0.499,1.22,-0.82,-5.55,3,3
18375.906,0.056,-0.86,0.501,2.81,-1.56,-6.01,3,3
18375.906,0.079,-0.85,0.485,3.17,-2.29,-4.15,3,3
18375.921,0.113,-0.85,0.478,1.95,-1.31,-2.23,3,3
18375.937,0.118,-0.855,0.492,1.13,1.37,-1.4,3,3
18375.937,0.115,-0.854,0.518,0.98,3.51,-0.12,3,3
18375.953,0.106,-0.844,0.545,0.73,4.21,2.01,3,3
18375.968,0.095,-0.848,0.557,-0.15,3.48,4.61,3,3
18375.968,0.1,-0.868,0.553,-1.71,1.22,6.13,3,3
18375.984,0.122,-0.896,0.54,-2.69,-1.07,5.52,3,3
18375.984,0.135,-0.913,0.523,-1.56,-1.56,2.44,3,3
18376.0,0.133,-0.908,0.513,-0.09,-0.58,-1.13,3,3
18376.015,0.126,-0.895,0.509,0.73,0.31,-4.58,3,3
18376.015,0.119,-0.881,0.514,1.13,0.73,-7.51,3,3
18376.031,0.107,-0.862,0.528,1.92,1.13,-9.13,3,3
18376.046,0.089,-0.84,0.549,3.51,0.61,-9.25,3,3
18376.046,0.087,-0.825,0.551,4.58,-1.62,-7.48,3,3
18376.062,0.101,-0.824,0.537,3.94,-4.61,-5.16,3,3
18376.078,0.111,-0.833,0.522,2.66,-6.84,-3.94,3,3
18376.078,0.114,-0.84,0.5,2.17,-7.87,-2.81,3,3
18376.093,0.116,-0.843,0.473,1.5,-7.54,-1.59,3,3
18376.093,0.117,-0.851,0.457,0.67,-5.95,-1.07,3,3
18376.109,0.12,-0.855,0.445,0.43,-3.33,-0.43,3,3
18376.125,0.132,-0.855,0.446,-0.03,0.12,0.55,3,3
18376.125,0.141,-0.862,0.46,-0.27,3.91,1.43,3,3
18376.14,0.128,-0.855,0.491,-0.03,7.48,1.86,3,3
18376.156,0.104,-0.848,0.526,0.12,8.7,1.92,3,3
18376.156,0.096,-0.846,0.558,0.27,6.74,1.83,3,3
18376.171,0.101,-0.849,0.572,1.43,3.11,1.5,3,3
18376.187,0.118,-0.847,0.57,2.78,-0.7,0.76,3,3
18376.187,0.13,-0.846,0.557,2.96,-3.48,-0.09,3,3
18376.203,0.131,-0.848,0.546,2.5,-5.34,-1.16,3,3
18376.218,0.112,-0.844,0.536,2.96,-6.04,-2.32,3,3
18376.218,0.104,-0.839,0.523,3.08,-6.81,-1.98,3,3
18376.234,0.12,-0.84,0.511,2.93,-6.96,-1.25,3,3
18376.234,0.129,-0.846,0.502,3.2,-5.43,-0.95,3,3
18376.25,0.115,-0.839,0.502,3.17,-3.02,-0.7,3,3
18376.265,0.093,-0.834,0.507,2.69,-1.65,-0.24,3,3
18376.265,0.087,-0.834,0.506,2.38,-1.16,0.98,3,3
18376.281,0.085,-0.836,0.51,2.59,-0.31,2.62,3,3
18376.296,0.077,-0.843,0.516,2.75,0.4,4.76,3,3
18376.312,0.088,-0.855,0.517,1.59,0.12,7.02,3,3
18376.312,0.103,-0.873,0.519,0.21,0.06,7.39,3,3
18376.312,0.1,-0.886,0.527,0.4,0.76,5.74,3,3
18376.328,0.093,-0.886,0.537,1.68,1.07,3.63,3,3
18376.343,0.092,-0.873,0.542,3.2,0.52,1.98,3,3
18376.343,0.094,-0.858,0.546,3.2,-0.4,1.37,3,3
18376.359,0.101,-0.863,0.537,1.46,-1.34,1.37,3,3
18376.375,0.108,-0.88,0.529,0.21,-1.59,1.07,3,3
18376.39,0.11,-0.889,0.524,0.76,-1.19,0.27,3,3
18376.39,0.111,-0.876,0.527,1.92,-0.49,0.03,3,3
18376.406,0.105,-0.857,0.53,2.04,0.31,0.52,3,3
18376.406,0.105,-0.858,0.534,0.67,0.52,1.74,3,3
18376.421,0.109,-0.869,0.538,-0.55,0.49,2.59,3,3
18376.437,0.113,-0.88,0.54,-0.64,0.4,2.23,3,3
18376.437,0.108,-0.877,0.55,0.27,-0.06,0.58,3,3
18376.453,0.094,-0.866,0.563,1.74,-1.4,-0.64,3,3
18376.468,0.104,-0.858,0.55,1.95,-3.63,-0.7,3,3
18376.468,0.121,-0.86,0.548,1.25,-5.46,-1.74,3,3
18376.484,0.126,-0.867,0.527,2.01,-6.26,-3.42,3,3
18376.484,0.118,-0.861,0.523,3.57,-5.65,-4.64,3,3
18376.5,0.112,-0.836,0.527,4.46,-4.73,-4.73,3,3
18376.515,0.094,-0.814,0.527,4.36,-4.03,-2.84,3,3
18376.515,0.098,-0.816,0.524,2.26,-4.18,0.61,3,3
18376.531,0.119,-0.836,0.517,0.03,-4.03,2.96,3,3
18376.546,0.13,-0.848,0.518,-0.15,-2.69,3.72,3,3
18376.546,0.127,-0.85,0.521,0.73,-0.67,3.3,3,3
18376.562,0.113,-0.847,0.53,1.31,0.4,2.47,3,3
18376.578,0.097,-0.841,0.546,1.53,0.18,1.71,3,3
18376.578,0.088,-0.836,0.558,1.25,-1.19,2.01,3,3
18376.593,0.092,-0.847,0.543,0.73,-3.23,2.81,3,3
18376.609,0.103,-0.869,0.527,0.58,-4.39,2.96,3,3
18376.609,0.112,-0.873,0.517,0.85,-4.09,2.01,3,3
18376.625,0.103,-0.871,0.518,1.56,-2.69,0.34,3,3
18376.625,0.094,-0.861,0.542,2.26,-1.77,-1.16,3,3
18376.64,0.082,-0.846,0.556,3.88,-2.04,-1.56,3,3
18376.656,0.085,-0.835,0.556,4.0,-3.69,-0.79,3,3
18376.656,0.102,-0.836,0.551,2.66,-5.16,-0.64,3,3
18376.671,0.107,-0.837,0.557,2.66,-5.92,-0.98,3,3
18376.687,0.089,-0.83,0.549,3.85,-5.74,-0.46,3,3
18376.687,0.083,-0.829,0.536,2.9,-6.26,1.46,3,3
18376.703,0.095,-0.847,0.52,0.85,-6.71,2.9,3,3
18376.718,0.114,-0.869,0.509,0.12,-5.89,2.96,3,3
18376.718,0.119,-0.872,0.507,1.1,-3.42,2.23,3,3
18376.734,0.105,-0.866,0.52,2.29,-0.82,1.37,3,3
18376.734,0.092,-0.857,0.541,2.5,0.31,0.61,3,3
18376.75,0.077,-0.847,0.561,2.62,-0.21,0.43,3,3
18376.765,0.068,-0.846,0.562,2.87,-1.8,1.46,3,3
18376.765,0.077,-0.848,0.563,1.95,-4.24,2.56,3,3
18376.781,0.085,-0.857,0.554,1.22,-6.13,2.47,3,3
18376.796,0.091,-0.862,0.543,1.83,-7.14,2.41,3,3
18376.796,0.107,-0.859,0.532,2.2,-7.11,2.75,3,3
18376.812,0.107,-0.864,0.52,0.4,-4.03,2.32,3,3
18376.828,0.104,-0.874,0.51,0.03,-2.32,1.77,3,3
18376.828,0.095,-0.886,0.504,0.06,-0.61,0.89,3,3
18376.843,0.093,-0.889,0.499,0.31,1.31,-0.27,3,3
18376.843,0.087,-0.876,0.532,0.82,2.75,-1.07,3,3
18376.859,0.079,-0.862,0.545,1.4,2.96,-1.62,3,3
18376.875,0.083,-0.853,0.559,1.46,1.8,-1.34,3,3
18376.875,0.09,-0.846,0.565,1.19,0.18,-1.01,3,3
18376.89,0.094,-0.845,0.568,0.89,-1.13,-0.64,3,3
18376.906,0.097,-0.843,0.563,0.06,-2.23,0.09,3,3
18376.906,0.097,-0.851,0.552,-0.79,-3.23,0.18,3,3
18376.921,0.1,-0.864,0.545,-0.89,-3.88,-0.27,3,3
18376.937,0.107,-0.866,0.531,-0.06,-3.72,-0.98,3,3
18376.937,0.116,-0.862,0.525,0.24,-2.93,-1.71,3,3
18376.953,0.112,-0.859,0.525,0.03,-1.62,-2.69,3,3
18376.968,0.101,-0.855,0.533,-0.18,-0.67,-3.23,3,3
18376.968,0.094,-0.845,0.547,0.09,-0.61,-3.23,3,3
18376.984,0.089,-0.832,0.554,1.01,-1.13,-2.53,3,3
18376.984,0.091,-0.825,0.552,0.64,-2.11,-1.31,3,3
18377.0,0.107,-0.835,0.543,-0.49,-3.17,-0.15,3,3
18377.015,0.118,-0.848,0.534,-1.1,-3.33,0.18,3,3
18377.015,0.114,-0.853,0.527,-0.67,-2.59,-0.15,3,3
18377.031,0.108,-0.854,0.521,-0.24,-2.26,-0.92,3,3
18377.046,0.108,-0.853,0.517,0.27,-2.2,-1.89,3,3
18377.046,0.114,-0.85,0.515,1.04,-1.68,-2.84,3,3
18377.062,0.105,-0.843,0.516,1.59,-0.58,-3.45,3,3
18377.078,0.103,-0.84,0.523,1.28,0.18,-3.17,3,3
18377.078,0.105,-0.841,0.527,0.64,0.7,-2.47,3,3
18377.093,0.101,-0.844,0.535,0.18,0.76,-1.71,3,3
18377.109,0.088,-0.844,0.544,0.18,0.4,-0.95,3,3
18377.109,0.091,-0.845,0.543,-0.06,-0.82,-0.24,3,3
18377.125,0.104,-0.853,0.536,-0.4,-2.11,-0.61,3,3
18377.14,0.107,-0.857,0.531,0.58,-2.38,-1.71,3,3
18377.14,0.099,-0.854,0.525,1.8,-2.29,-2.66,3,3
18377.156,0.097,-0.85,0.516,1.89,-2.47,-3.36,3,3
18377.156,0.102,-0.853,0.508,1.74,-2.69,-4.18,3,3
18377.171,0.11,-0.853,0.503,2.29,-1.74,-4.79,3,3
18377.187,0.106,-0.845,0.504,2.56,0.15,-4.94,3,3
18377.187,0.099,-0.835,0.52,2.56,1.8,-4.73,3,3
18377.203,0.092,-0.825,0.533,2.9,2.5,-3.75,3,3
