timestamp,ax,ay,az,gx,gy,gz,orient_label,motion_label
18391.734,0.06,-0.779,0.659,-0.15,-6.93,-2.29,3,3
18391.734,0.052,-0.783,0.648,0.21,-7.6,-2.44,3,3
18391.75,0.056,-0.779,0.634,-0.34,-8.03,-2.56,3,3
18391.765,0.064,-0.785,0.627,-0.89,-7.66,-2.69,3,3
18391.781,0.06,-0.783,0.63,-0.98,-6.16,-2.72,3,3
18391.781,0.056,-0.781,0.639,-0.67,-5.46,-2.96,3,3
18391.796,0.059,-0.774,0.646,0.03,-5.62,-3.14,3,3
18391.796,0.063,-0.765,0.649,0.03,-5.92,-2.75,3,3
18391.812,0.07,-0.763,0.65,-1.04,-5.65,-2.17,3,3
18391.828,0.072,-0.766,0.654,-2.11,-4.97,-1.25,3,3
18391.828,0.072,-0.771,0.659,-2.44,-4.27,-0.37,3,3
18391.843,0.068,-0.774,0.656,-2.78,-3.69,-0.06,3,3
18391.843,0.063,-0.786,0.657,-3.23,-3.94,-0.64,3,3
18391.859,0.058,-0.795,0.661,-2.99,-4.73,-1.53,3,3
18391.875,0.057,-0.8,0.665,-1.8,-5.86,-2.47,3,3
18391.875,0.058,-0.807,0.672,-0.82,-6.99,-3.17,3,3
18391.89,0.053,-0.815,0.669,-1.25,-7.87,-3.88,3,3
18391.906,0.048,-0.853,0.647,-3.91,-10.71,-7.17,3,3
18391.921,0.056,-0.862,0.629,-3.51,-11.44,-9.49,3,3
18391.937,0.061,-0.857,0.612,-1.86,-10.9,-12.21,3,3
18391.937,0.065,-0.842,0.602,-0.64,-9.4,-15.05,3,3
18391.953,0.06,-0.821,0.606,-0.79,-7.17,-17.21,3,3
18391.968,0.049,-0.808,0.62,-0.79,-5.68,-18.46,3,3
18391.968,0.052,-0.784,0.628,-0.58,-4.94,-18.19,3,3
18391.984,0.057,-0.767,0.637,-0.89,-4.49,-17.79,3,3
18391.984,0.061,-0.76,0.643,-0.61,-4.58,-17.43,3,3
18392.0,0.068,-0.749,0.647,0.06,-4.88,-17.03,3,3
18392.015,0.072,-0.738,0.641,0.24,-5.43,-16.97,3,3
18392.015,0.078,-0.732,0.639,0.49,-5.68,-17.12,3,3
18392.031,0.078,-0.724,0.636,1.16,-5.77,-16.75,3,3
18392.046,0.08,-0.717,0.621,1.4,-5.74,-16.05,3,3
18392.046,0.092,-0.713,0.613,1.04,-5.37,-15.11,3,3
18392.062,0.096,-0.707,0.612,0.95,-4.09,-14.31,3,3
18392.078,0.096,-0.704,0.62,1.19,-2.35,-12.82,3,3
18392.078,0.097,-0.702,0.629,1.46,-0.31,-10.83,3,3
18392.093,0.091,-0.701,0.642,1.28,1.07,-8.82,3,3
18392.093,0.08,-0.709,0.659,0.85,1.28,-7.35,3,3
18392.109,0.074,-0.715,0.673,1.04,0.64,-6.35,3,3
18392.125,0.075,-0.72,0.685,1.8,-0.4,-5.95,3,3
18392.125,0.078,-0.727,0.698,3.2,-1.16,-5.98,3,3
18392.14,0.07,-0.726,0.712,4.58,-0.92,-6.65,3,3
18392.156,0.053,-0.724,0.724,5.19,-0.61,-7.97,3,3
18392.171,0.035,-0.72,0.742,5.62,-0.61,-10.41,3,3
18392.171,0.021,-0.712,0.758,7.78,-1.31,-13.61,3,3
18392.187,0.021,-0.705,0.771,12.6,-3.48,-16.54,3,3
18392.187,0.046,-0.686,0.781,19.07,-5.22,-17.3,3,3
18392.203,0.067,-0.661,0.778,23.62,-4.43,-15.66,3,3
18392.218,0.073,-0.652,0.771,24.69,-2.56,-13.21,3,3
18392.218,0.074,-0.659,0.776,23.68,-0.82,-11.57,3,3
18392.234,0.071,-0.671,0.789,23.22,0.82,-12.05,3,3
18392.234,0.064,-0.674,0.803,25.36,2.93,-15.11,3,3
18392.25,0.043,-0.658,0.823,30.46,5.46,-20.45,3,3
18392.265,0.028,-0.649,0.834,37.05,6.1,-27.68,3,3
18392.265,0.009,-0.634,0.846,44.47,4.36,-36.32,3,3
18392.281,-0.018,-0.587,0.849,53.83,-0.15,-44.1,3,3
18392.296,-0.038,-0.535,0.866,61.62,-7.2,-49.01,3,3
18392.296,-0.057,-0.505,0.9,66.26,-16.97,-49.9,3,3
18392.312,-0.033,-0.45,0.913,67.75,-26.98,-44.74,3,3
18392.328,-0.001,-0.434,0.888,66.99,-33.57,-37.93,3,3
18392.328,0.017,-0.437,0.861,61.62,-34.85,-32.07,3,3
18392.343,0.036,-0.452,0.844,54.35,-32.14,-28.08,3,3
18392.359,0.048,-0.477,0.832,48.8,-25.85,-27.99,3,3
18392.359,0.046,-0.51,0.804,48.13,-18.13,-32.96,3,3
18392.375,0.053,-0.555,0.785,53.16,-13.89,-39.0,3,3
18392.375,0.103,-0.544,0.788,66.1,-9.09,-45.08,3,3
18392.39,0.098,-0.524,0.775,84.14,1.16,-51.39,3,3
18392.406,0.065,-0.485,0.763,98.09,11.69,-55.79,3,3
18392.406,0.011,-0.438,0.782,106.72,19.56,-58.02,3,3
18392.421,-0.048,-0.408,0.8,109.71,21.88,-56.98,3,3
18392.437,-0.094,-0.384,0.798,103.82,17.27,-51.79,3,3
18392.437,-0.085,-0.371,0.806,90.52,7.35,-44.34,3,3
18392.453,-0.053,-0.393,0.808,75.44,-2.93,-38.21,3,3
18392.468,-0.011,-0.435,0.8,62.29,-11.26,-33.88,3,3
18392.468,0.035,-0.48,0.791,53.47,-16.91,-32.07,3,3
18392.484,0.09,-0.524,0.783,50.33,-20.36,-33.54,3,3
18392.484,0.131,-0.559,0.773,51.94,-21.79,-36.71,3,3
18392.5,0.166,-0.58,0.763,55.91,-19.56,-40.31,3,3
18392.515,0.166,-0.598,0.738,59.33,-14.53,-45.29,3,3
18392.515,0.171,-0.615,0.735,58.66,-10.1,-51.36,3,3
18392.531,0.202,-0.631,0.752,55.73,-4.36,-58.14,3,3
18392.546,0.212,-0.661,0.779,56.09,4.67,-66.04,3,3
18392.562,0.216,-0.686,0.801,58.66,10.77,-74.1,3,3
18392.562,0.26,-0.689,0.825,64.33,16.14,-86.25,3,3
18392.578,0.283,-0.699,0.837,77.15,18.25,-100.38,3,3
18392.593,0.284,-0.692,0.854,81.51,16.11,-108.49,3,3
18392.609,0.269,-0.686,0.887,83.25,12.39,-116.86,3,3
18392.609,0.304,-0.674,0.915,82.09,8.51,-125.4,3,3
18392.625,0.328,-0.67,0.942,78.16,6.23,-135.2,3,3
18392.64,0.324,-0.667,0.957,72.15,4.09,-145.76,3,3
18392.64,0.306,-0.663,0.965,65.95,0.21,-157.78,3,3
18392.656,0.286,-0.652,0.977,62.04,-5.95,-170.2,3,3
18392.671,0.266,-0.629,0.988,62.44,-12.88,-182.9,3,3
18392.671,0.237,-0.612,0.985,66.65,-21.61,-195.01,3,3
18392.687,0.247,-0.577,0.981,72.85,-30.58,-204.75,3,3
18392.687,0.286,-0.524,0.961,79.41,-38.18,-213.39,3,3
18392.703,0.306,-0.442,0.927,84.44,-44.71,-221.2,3,3
18392.718,0.315,-0.356,0.899,88.11,-50.11,-228.4,3,3
18392.718,0.34,-0.269,0.868,88.44,-56.64,-234.78,3,3
18392.734,0.356,-0.193,0.837,87.01,-62.29,-240.09,3,3
18392.75,0.42,-0.06,0.799,76.91,-66.19,-245.34,3,3
18392.765,0.449,0.011,0.799,65.46,-61.34,-249.37,3,3
18392.781,0.449,0.079,0.82,50.72,-55.57,-254.19,3,3
18392.781,0.432,0.158,0.85,36.38,-52.92,-256.81,3,3
18392.796,0.419,0.218,0.855,24.45,-56.89,-255.59,3,3
18392.812,0.417,0.275,0.838,13.67,-66.16,-251.44,3,3
18392.812,0.429,0.315,0.817,4.91,-80.63,-244.85,3,3
18392.828,0.469,0.345,0.797,-0.89,-96.68,-237.1,3,3
18392.828,0.519,0.373,0.768,-3.72,-109.47,-229.59,3,3
18392.843,0.552,0.411,0.715,-6.35,-116.58,-224.04,3,3
18392.859,0.587,0.46,0.66,-12.39,-118.35,-220.28,3,3
18392.859,0.64,0.51,0.609,-21.64,-115.51,-218.51,3,3
18392.875,0.679,0.569,0.56,-32.78,-107.27,-218.63,3,3
18392.89,0.691,0.625,0.516,-43.12,-93.69,-219.12,3,3
18392.89,0.687,0.666,0.504,-51.82,-75.17,-216.71,3,3
18392.906,0.681,0.702,0.543,-56.67,-53.56,-208.59,3,3
18392.921,0.661,0.732,0.582,-55.97,-30.27,-198.55,3,3
18392.921,0.587,0.694,0.597,-54.26,-14.28,-186.41,3,3
18392.937,0.554,0.701,0.635,-54.57,-9.4,-176.82,3,3
18392.953,0.535,0.707,0.67,-54.57,-12.18,-172.31,3,3
18392.953,0.523,0.694,0.685,-53.59,-19.26,-171.42,3,3
18392.968,0.515,0.695,0.699,-51.55,-26.83,-174.96,3,3
18392.968,0.5,0.686,0.691,-46.54,-29.48,-182.65,3,3
18392.984,0.474,0.689,0.707,-38.7,-26.18,-189.95,3,3
18392.984,0.409,0.703,0.728,-23.93,-19.71,-190.98,3,3
18393.0,0.359,0.672,0.719,-6.9,-14.74,-180.36,3,3
18393.015,0.337,0.672,0.705,9.67,-11.11,-162.14,3,3
18393.015,0.328,0.683,0.671,27.25,-7.63,-141.48,3,3
18393.031,0.33,0.714,0.658,39.19,-3.63,-122.23,3,3
18393.046,0.33,0.754,0.667,43.34,4.27,-104.04,3,3
18393.062,0.312,0.774,0.671,38.91,14.56,-89.08,3,3
18393.062,0.3,0.777,0.667,26.43,23.8,-78.31,3,3
18393.078,0.273,0.764,0.699,-9.28,45.63,-67.32,3,3
18393.093,0.236,0.703,0.712,-25.24,52.13,-60.15,3,3
18393.109,0.227,0.658,0.732,-35.43,55.15,-50.69,3,3
18393.109,0.202,0.615,0.745,-36.53,55.67,-40.8,3,3
18393.125,0.19,0.587,0.76,-31.65,54.14,-30.52,3,3
18393.14,0.177,0.58,0.793,-21.55,52.1,-19.93,3,3
18393.14,0.173,0.538,0.818,-7.39,49.87,-8.88,3,3
18393.156,0.167,0.499,0.848,5.52,47.15,-0.82,3,3
18393.156,0.179,0.483,0.871,15.32,42.6,3.14,3,3
18393.171,0.19,0.476,0.875,19.41,34.7,3.66,3,3
18393.187,0.201,0.476,0.865,17.76,25.21,2.29,3,3
18393.203,0.22,0.469,0.847,11.84,16.94,0.61,3,3
18393.203,0.235,0.462,0.83,3.66,10.62,-0.58,3,3
18393.218,0.239,0.462,0.818,-4.61,7.72,-1.62,3,3
18393.218,0.247,0.459,0.822,-12.76,8.27,-2.69,3,3
18393.234,0.24,0.449,0.845,-20.42,10.25,-4.27,3,3
18393.25,0.217,0.456,0.892,-22.43,13.86,-8.24,3,3
18393.265,0.199,0.451,0.902,-18.59,14.13,-7.87,3,3
18393.265,0.19,0.465,0.908,-12.79,12.42,-5.95,3,3
18393.281,0.19,0.474,0.907,-4.64,10.07,-6.04,3,3
18393.296,0.175,0.477,0.897,3.2,6.87,-7.48,3,3
18393.296,0.173,0.493,0.887,7.66,3.66,-9.09,3,3
18393.312,0.188,0.513,0.869,9.28,0.52,-10.25,3,3
18393.328,0.182,0.524,0.847,9.77,-2.04,-9.86,3,3
18393.328,0.195,0.525,0.836,8.45,-2.87,-6.53,3,3
18393.343,0.208,0.511,0.834,5.52,-1.37,-2.84,3,3
18393.359,0.21,0.495,0.84,2.38,1.83,-1.5,3,3
18393.359,0.197,0.472,0.848,-1.16,4.0,-3.14,3,3
18393.375,0.19,0.455,0.857,-5.52,3.91,-7.14,3,3
18393.375,0.189,0.452,0.862,-8.55,2.75,-12.3,3,3
18393.39,0.166,0.45,0.864,-11.23,-2.17,-15.2,3,3
18393.406,0.168,0.45,0.883,-14.31,-8.48,-15.41,3,3
18393.421,0.201,0.4,0.892,-17.24,-15.26,-19.62,3,3
18393.437,0.205,0.395,0.891,-16.42,-14.83,-26.0,3,3
18393.437,0.213,0.41,0.878,-14.83,-13.79,-32.93,3,3
18393.453,0.216,0.41,0.86,-11.23,-11.93,-37.23,3,3
18393.468,0.208,0.413,0.84,-7.32,-9.77,-39.03,3,3
18393.468,0.2,0.439,0.82,-5.31,-7.6,-38.06,3,3
18393.484,0.214,0.441,0.803,-3.08,-4.39,-36.84,3,3
18393.484,0.233,0.449,0.792,-1.77,2.32,-37.08,3,3
18393.5,0.248,0.476,0.805,-2.14,13.55,-37.72,3,3
18393.515,0.265,0.498,0.806,-2.99,27.65,-37.29,3,3
18393.515,0.202,0.535,0.849,-3.14,42.18,-35.92,3,3
18393.531,0.118,0.694,0.991,-15.84,46.11,-28.02,3,3
18393.546,0.194,0.691,1.01,-22.8,41.93,-15.2,3,3
18393.546,0.078,0.554,1.004,-28.93,18.68,1.13,3,3
18393.562,0.072,0.683,1.047,-20.78,4.03,11.29,3,3
18393.578,0.185,0.537,0.928,-14.92,-0.61,10.96,3,3
18393.593,0.175,0.443,0.841,-18.13,0.31,7.78,3,3
18393.609,0.124,0.44,0.893,-17.18,-3.54,9.31,3,3
18393.609,0.112,0.435,0.938,-15.87,-12.67,12.85,3,3
18393.625,0.136,0.4,0.939,-8.61,-22.74,15.72,3,3
18393.625,0.157,0.38,0.949,0.43,-28.26,15.53,3,3
18393.64,0.185,0.417,0.974,4.0,-29.79,13.06,3,3
18393.656,0.205,0.419,0.975,4.76,-29.33,10.16,3,3
18393.656,0.19,0.381,0.954,8.3,-29.85,8.61,3,3
18393.671,0.159,0.412,0.954,9.06,-34.46,9.95,3,3
18393.687,0.283,0.458,0.867,15.47,-38.06,15.38,3,3
18393.687,0.28,0.316,0.793,38.09,-27.83,19.65,3,3
18393.703,0.225,0.467,0.806,28.66,-21.36,19.04,3,3
18393.718,0.283,0.477,0.788,19.93,-19.17,18.07,3,3
18393.718,0.259,0.435,0.774,14.53,-15.02,13.31,3,3
18393.734,0.259,0.444,0.782,3.48,-11.47,10.19,3,3
18393.75,0.258,0.457,0.798,-5.58,-9.25,7.11,3,3
18393.765,0.244,0.451,0.849,-11.05,-6.5,5.13,3,3
18393.765,0.24,0.462,0.869,-11.66,-5.19,5.25,3,3
18393.781,0.239,0.439,0.878,-10.9,-4.85,4.91,3,3
18393.796,0.23,0.422,0.878,-9.06,-5.22,4.03,3,3
18393.796,0.23,0.416,0.869,-7.69,-6.56,2.62,3,3
18393.812,0.242,0.412,0.859,-7.14,-7.81,0.37,3,3
18393.828,0.245,0.418,0.849,-8.33,-7.54,-2.59,3,3
18393.828,0.257,0.412,0.832,-10.22,-6.01,-4.58,3,3
18393.843,0.286,0.399,0.808,-9.25,-1.68,-5.46,3,3
18393.843,0.314,0.4,0.774,-6.96,7.6,-6.04,3,3
18393.859,0.345,0.381,0.701,-4.27,21.33,-7.78,3,3
18393.875,0.335,0.362,0.679,-4.88,39.06,-10.13,3,3
18393.89,0.234,0.383,0.762,-6.81,54.23,-10.28,3,3
18393.89,0.181,0.528,0.92,-23.5,52.49,-4.94,3,3
18393.906,0.173,0.448,0.966,-24.81,46.91,-1.86,3,3
18393.906,0.0,0.568,1.054,-40.28,29.45,-7.97,3,3
18393.937,0.127,0.47,0.982,-35.86,-9.28,1.53,3,3
18393.953,0.169,0.407,0.913,-25.48,-14.31,9.52,3,3
18393.953,0.203,0.391,0.911,-19.1,-14.4,15.41,3,3
18393.968,0.202,0.326,0.93,-9.16,-13.12,16.21,3,3
18393.968,0.195,0.285,0.955,0.58,-14.07,15.29,3,3
18393.984,0.201,0.316,0.972,7.93,-16.85,14.22,3,3
18394.0,0.207,0.334,0.974,13.95,-20.66,13.03,3,3
18394.0,0.169,0.34,0.989,16.14,-25.73,11.47,3,3
18394.015,0.226,0.388,0.958,14.07,-34.15,10.9,3,3
18394.031,0.262,0.286,0.869,31.1,-34.24,9.92,3,3
18394.031,0.226,0.387,0.874,33.94,-31.74,6.56,3,3
18394.046,0.243,0.492,0.855,33.02,-29.76,11.66,3,3
18394.046,0.259,0.444,0.812,26.46,-29.94,11.93,3,3
18394.062,0.249,0.398,0.811,13.58,-30.55,8.3,3,3
18394.078,0.258,0.442,0.812,4.91,-29.91,7.54,3,3
18394.078,0.284,0.439,0.801,-0.98,-29.45,6.9,3,3
18394.109,0.302,0.419,0.803,-10.93,-23.56,4.27,3,3
18394.109,0.311,0.397,0.801,-12.02,-19.9,3.57,3,3
18394.125,0.325,0.391,0.801,-11.57,-14.8,3.08,3,3
18394.125,0.33,0.395,0.808,-9.95,-9.52,1.8,3,3
18394.14,0.333,0.387,0.82,-8.55,-4.18,0.43,3,3
18394.156,0.33,0.384,0.829,-7.35,1.13,-1.01,3,3
18394.156,0.321,0.376,0.833,-4.97,5.4,-2.2,3,3
18394.171,0.324,0.375,0.839,-1.89,9.13,-2.75,3,3
18394.187,0.327,0.374,0.839,2.14,13.34,-4.18,3,3
18394.187,0.32,0.363,0.826,7.42,18.8,-6.04,3,3
18394.203,0.317,0.357,0.831,10.59,24.2,-8.27,3,3
18394.218,0.319,0.372,0.826,11.9,28.87,-10.93,3,3
18394.218,0.323,0.361,0.793,15.41,35.25,-14.16,3,3
18394.234,0.317,0.342,0.757,17.06,43.34,-18.37,3,3
18394.25,0.312,0.378,0.742,13.06,52.49,-22.25,3,3
18394.25,0.228,0.4,0.805,6.93,60.21,-26.22,3,3
18394.281,0.142,0.54,1.054,-27.83,40.74,-21.88,3,3
18394.281,-0.034,0.619,1.118,-29.51,20.6,-19.68,3,3
18394.296,0.12,0.618,1.078,-31.62,-2.08,-4.88,3,3
18394.296,0.158,0.441,0.911,-15.5,-12.63,1.22,3,3
18394.312,0.172,0.397,0.848,-10.77,-11.57,5.86,3,3
18394.328,0.188,0.393,0.845,-6.35,-9.13,9.4,3,3
18394.328,0.182,0.354,0.878,-0.82,-6.62,12.73,3,3
18394.343,0.185,0.341,0.934,1.53,-9.09,12.88,3,3
18394.359,0.199,0.346,0.962,3.72,-13.25,10.74,3,3
18394.359,0.201,0.342,0.97,8.73,-16.85,7.81,3,3
18394.375,0.2,0.363,0.971,13.06,-20.84,6.78,3,3
18394.375,0.167,0.393,0.978,16.02,-25.33,7.6,3,3
18394.39,0.232,0.45,0.943,14.47,-32.2,9.86,3,3
18394.406,0.251,0.334,0.836,28.66,-31.01,12.05,3,3
18394.421,0.201,0.398,0.843,27.16,-27.28,12.12,3,3
18394.421,0.229,0.468,0.888,21.64,-27.71,15.44,3,3
18394.437,0.232,0.443,0.854,19.35,-32.23,18.98,3,3
18394.453,0.241,0.467,0.852,11.9,-34.97,18.77,3,3
18394.468,0.261,0.464,0.834,6.56,-37.2,19.01,3,3
18394.468,0.283,0.448,0.81,2.78,-37.9,18.89,3,3
18394.484,0.302,0.451,0.797,0.0,-35.55,19.07,3,3
18394.5,0.313,0.444,0.79,-1.59,-31.65,19.9,3,3
18394.5,0.328,0.434,0.784,-1.25,-27.22,20.48,3,3
18394.515,0.339,0.434,0.788,-0.09,-21.91,21.52,3,3
18394.515,0.336,0.431,0.801,1.89,-16.3,23.38,3,3
18394.531,0.339,0.424,0.819,6.47,-8.67,26.43,3,3
18394.546,0.345,0.422,0.836,7.02,-7.17,26.58,3,3
18394.562,0.34,0.416,0.843,5.68,-7.78,26.03,3,3
18394.562,0.336,0.413,0.845,2.29,-9.61,25.09,3,3
18394.578,0.339,0.404,0.843,-2.56,-11.6,23.01,3,3
18394.578,0.341,0.393,0.836,-7.42,-13.4,20.17,3,3
18394.593,0.337,0.382,0.838,-10.32,-14.8,18.13,3,3
18394.609,0.364,0.399,0.849,-7.42,-15.32,17.91,3,3
18394.625,0.361,0.395,0.843,-3.17,-13.79,18.16,3,3
18394.625,0.367,0.393,0.84,0.82,-12.57,19.23,3,3
18394.64,0.372,0.399,0.831,4.64,-11.17,19.5,3,3
18394.656,0.372,0.395,0.809,7.23,-9.52,18.52,3,3
18394.656,0.357,0.411,0.816,7.6,-7.9,16.02,3,3
18394.671,0.341,0.432,0.832,6.13,-7.84,14.28,3,3
18394.687,0.328,0.43,0.833,1.95,-10.16,14.34,3,3
18394.687,0.324,0.42,0.834,-3.51,-12.79,15.17,3,3
18394.703,0.328,0.407,0.845,-8.27,-14.83,15.35,3,3
18394.718,0.338,0.397,0.864,-12.09,-17.82,14.04,3,3
18394.718,0.348,0.39,0.899,-14.4,-22.0,13.28,3,3
18394.734,0.372,0.397,0.954,-14.77,-28.08,13.95,3,3
18394.75,0.373,0.383,0.995,-11.32,-36.23,16.3,3,3
18394.75,0.396,0.364,1.013,-4.15,-47.06,20.29,3,3
18394.765,0.374,0.357,1.0,6.38,-58.14,21.27,3,3
18394.781,0.408,0.362,0.865,14.22,-79.47,17.0,3,3
18394.796,0.41,0.371,0.855,8.67,-84.38,10.99,3,3
18394.796,0.382,0.405,0.959,4.64,-87.59,5.58,3,3
18394.812,0.307,0.44,1.104,11.63,-94.24,7.05,3,3
18394.828,0.236,0.511,1.271,29.51,-109.78,19.04,3,3
18394.828,0.191,0.532,1.326,54.26,-134.31,38.54,3,3
18394.843,0.104,0.532,1.268,75.01,-162.51,60.03,3,3
18394.859,0.106,0.462,1.027,86.58,-196.66,82.28,3,3
18394.859,0.18,0.35,0.618,84.78,-224.89,92.35,3,3
18394.875,0.367,0.235,0.284,63.97,-238.81,92.04,3,3
18394.875,0.669,0.195,0.094,33.94,-235.63,79.07,3,3
18394.89,0.925,0.22,0.008,4.79,-202.49,57.95,3,3
18394.906,1.011,0.21,-0.005,-16.14,-148.11,36.26,3,3
18394.906,1.04,0.181,0.035,-21.03,-93.2,21.15,3,3
18394.921,1.023,0.192,0.156,-6.78,-42.42,13.12,3,3
18394.937,0.964,0.208,0.272,19.2,-1.4,9.7,3,3
18394.937,0.894,0.259,0.346,41.87,27.01,8.24,3,3
18394.953,0.859,0.362,0.41,55.12,43.06,5.22,3,3
18394.968,0.815,0.452,0.485,57.19,50.23,-0.76,3,3
18394.968,0.738,0.48,0.557,47.27,49.04,-6.04,3,3
18394.984,0.73,0.468,0.605,32.53,41.23,-8.39,3,3
18395.0,0.74,0.436,0.618,23.62,34.73,-13.12,3,3
18395.0,0.744,0.362,0.612,21.73,32.84,-18.89,3,3
18395.015,0.811,0.326,0.637,28.84,37.32,-25.42,3,3
18395.015,0.838,0.293,0.649,49.81,51.67,-35.16,3,3
18395.031,0.755,0.248,0.6,78.46,68.64,-44.77,3,3
18395.046,0.73,0.298,0.654,104.74,78.62,-52.31,3,3
18395.046,1.018,0.749,0.827,126.68,91.98,-65.1,3,3
18395.062,1.133,1.162,1.041,130.99,115.05,-81.21,3,3
18395.078,0.93,1.427,1.237,126.93,126.29,-95.65,3,3
18395.078,0.68,1.643,1.362,100.38,118.08,-80.54,3,3
18395.093,0.538,1.66,1.391,52.86,94.82,-43.24,3,3
18395.109,0.619,1.526,1.4,-0.34,58.53,2.23,3,3
18395.109,0.719,1.274,1.293,-38.64,30.64,39.03,3,3
18395.125,0.782,1.011,1.174,-62.72,16.57,64.73,3,3
18395.125,0.775,0.775,1.117,-72.12,13.46,79.38,3,3
18395.14,0.73,0.555,1.075,-68.61,17.12,88.41,3,3
18395.156,0.679,0.438,1.033,-59.85,22.06,90.64,3,3
18395.156,0.647,0.369,1.017,-52.16,24.72,86.86,3,3
18395.171,0.62,0.324,1.033,-48.37,26.52,79.23,3,3
18395.187,0.585,0.286,1.032,-48.13,25.12,69.4,3,3
18395.187,0.585,0.254,1.034,-51.06,21.3,60.43,3,3
18395.203,0.599,0.224,1.039,-54.35,18.8,52.52,3,3
18395.218,0.617,0.198,1.04,-55.57,18.22,44.98,3,3
18395.218,0.628,0.18,1.015,-54.2,18.86,36.59,3,3
18395.234,0.629,0.182,0.978,-52.19,18.77,27.95,3,3
18395.234,0.624,0.203,0.957,-50.51,17.79,19.59,3,3
18395.25,0.605,0.239,0.947,-49.38,16.14,13.43,3,3
18395.265,0.613,0.279,0.921,-49.68,13.49,11.54,3,3
18395.265,0.632,0.333,0.885,-53.22,11.57,11.78,3,3
18395.281,0.639,0.362,0.859,-62.59,10.96,12.57,3,3
18395.296,0.665,0.374,0.86,-77.33,11.23,15.14,3,3
18395.312,0.672,0.366,0.86,-92.59,13.46,17.94,3,3
18395.312,0.674,0.318,0.869,-106.2,16.82,22.37,3,3
18395.328,0.693,0.272,0.871,-116.15,20.05,26.89,3,3
18395.328,0.697,0.245,0.851,-122.87,24.96,29.39,3,3
18395.343,0.669,0.208,0.86,-129.58,32.2,31.5,3,3
18395.359,0.629,0.168,0.875,-134.59,39.7,35.0,3,3
18395.359,0.595,0.15,0.883,-136.97,46.45,40.31,3,3
18395.375,0.536,0.148,0.889,-137.82,52.71,47.49,3,3
18395.375,0.469,0.152,0.897,-141.54,55.51,56.95,3,3
18395.39,0.429,0.145,0.891,-151.89,54.45,69.34,3,3
18395.406,0.42,0.104,0.869,-167.24,51.06,82.16,3,3
18395.421,0.425,0.039,0.831,-183.45,45.96,91.04,3,3
18395.421,0.437,-0.026,0.778,-196.2,41.54,95.22,3,3
18395.437,0.464,-0.097,0.721,-204.17,40.31,97.02,3,3
18395.453,0.456,-0.213,0.609,-206.37,48.43,92.68,3,3
18395.468,0.44,-0.259,0.555,-204.99,54.38,88.93,3,3
18395.468,0.419,-0.282,0.511,-205.27,60.85,84.35,3,3
18395.484,0.384,-0.296,0.483,-206.88,65.46,78.8,3,3
18395.5,0.333,-0.315,0.458,-209.54,69.03,73.46,3,3
18395.5,0.291,-0.345,0.449,-212.87,71.17,69.37,3,3
18395.515,0.256,-0.379,0.457,-212.99,71.38,66.65,3,3
18395.515,0.227,-0.409,0.448,-202.64,71.96,65.43,3,3
18395.531,0.209,-0.429,0.429,-199.68,74.83,65.98,3,3
18395.546,0.193,-0.457,0.415,-198.86,79.9,66.26,3,3
18395.546,0.163,-0.513,0.413,-200.87,85.6,65.43,3,3
18395.562,0.156,-0.556,0.431,-204.66,91.56,63.75,3,3
18395.578,0.149,-0.599,0.443,-207.46,95.25,59.36,3,3
18395.593,0.164,-0.674,0.466,-209.3,98.79,53.65,3,3
18395.593,0.172,-0.756,0.51,-207.22,107.15,48.65,3,3
18395.609,0.155,-0.826,0.578,-195.07,115.05,42.24,3,3
18395.609,0.164,-0.855,0.64,-173.89,119.36,34.76,3,3
18395.625,0.161,-0.833,0.698,-149.57,121.49,25.21,3,3
18395.625,0.161,-0.813,0.735,-126.13,120.46,13.76,3,3
18395.64,0.158,-0.749,0.765,-108.34,116.09,1.62,3,3
18395.656,0.153,-0.676,0.783,-95.13,108.28,-10.32,3,3
18395.656,0.153,-0.605,0.803,-87.77,97.38,-19.01,3,3
18395.671,0.155,-0.556,0.792,-86.58,85.85,-22.46,3,3
18395.687,0.191,-0.527,0.746,-90.33,74.71,-21.36,3,3
18395.687,0.257,-0.513,0.704,-94.49,66.26,-18.86,3,3
18395.703,0.288,-0.488,0.648,-96.65,63.66,-16.82,3,3
18395.718,0.296,-0.434,0.638,-103.92,62.14,-16.91,3,3
18395.718,0.33,-0.445,0.665,-107.15,57.01,-19.96,3,3
18395.734,0.358,-0.438,0.68,-98.21,53.35,-21.67,3,3
18395.734,0.374,-0.39,0.668,-82.25,52.71,-20.6,3,3
18395.75,0.416,-0.36,0.647,-69.95,51.39,-18.92,3,3
18395.765,0.457,-0.343,0.633,-62.69,51.03,-18.68,3,3
18395.765,0.488,-0.348,0.628,-58.32,52.0,-20.75,3,3
18395.781,0.508,-0.373,0.626,-57.07,53.87,-23.99,3,3
18395.796,0.519,-0.422,0.632,-57.01,56.49,-27.95,3,3
18395.812,0.489,-0.462,0.646,-54.23,59.24,-33.81,3,3
18395.812,0.417,-0.511,0.616,-49.62,60.73,-40.07,3,3
18395.828,0.387,-0.562,0.574,-48.34,58.84,-46.48,3,3
18395.828,0.367,-0.625,0.522,-47.58,58.81,-54.66,3,3
18395.843,0.295,-0.689,0.515,-44.43,62.04,-63.42,3,3
18395.859,0.137,-0.714,0.597,-33.48,63.39,-68.27,3,3
18395.859,-0.016,-0.712,0.674,-17.67,53.35,-64.09,3,3
18395.875,-0.083,-0.715,0.666,-5.22,30.88,-52.77,3,3
18395.89,-0.02,-0.743,0.552,1.4,5.31,-39.0,3,3
18395.89,0.07,-0.761,0.419,-0.37,-10.07,-28.08,3,3
18395.906,0.115,-0.815,0.27,-9.55,-9.43,-20.66,3,3
18395.906,0.157,-0.864,0.206,-21.94,0.06,-15.44,3,3
18395.921,0.154,-0.877,0.229,-27.99,15.96,-14.53,3,3
18395.937,0.134,-0.856,0.302,-29.11,30.92,-16.39,3,3
18395.953,0.059,-0.73,0.537,-20.11,44.95,-24.9,3,3
18395.968,0.002,-0.63,0.637,-10.47,40.1,-24.78,3,3
18395.968,0.032,-0.537,0.692,-10.53,25.82,-18.59,3,3
18395.984,0.108,-0.505,0.696,-17.82,12.63,-10.44,3,3
18395.984,0.159,-0.514,0.672,-24.38,7.87,-2.08,3,3
18396.0,0.184,-0.548,0.654,-25.7,8.79,7.48,3,3
18396.015,0.213,-0.548,0.647,-22.89,11.75,17.27,3,3
18396.015,0.212,-0.517,0.636,-17.91,15.56,24.23,3,3
18396.031,0.155,-0.51,0.64,-13.95,17.4,29.69,3,3
18396.046,0.107,-0.523,0.644,-10.74,13.7,36.9,3,3
18396.046,0.098,-0.514,0.64,-7.69,5.68,44.92,3,3
18396.062,0.093,-0.529,0.599,-4.03,-1.53,52.25,3,3
18396.078,0.111,-0.545,0.564,-4.43,-6.44,60.34,3,3
18396.078,0.118,-0.578,0.557,-4.21,-8.12,68.06,3,3
18396.093,0.087,-0.644,0.52,-2.01,-7.6,76.51,3,3
18396.109,0.031,-0.731,0.475,-3.6,-6.38,86.76,3,3
18396.125,-0.099,-0.954,0.302,-6.78,-10.32,94.67,3,3
18396.125,-0.18,-1.112,0.161,-8.39,-12.51,91.28,3,3
18396.14,-0.088,-1.2,0.057,-6.32,-14.13,80.05,3,3
18396.156,-0.048,-1.244,-0.026,5.16,-2.08,59.05,3,3
18396.171,-0.057,-1.259,-0.047,13.0,18.37,36.38,3,3
18396.171,-0.06,-1.238,-0.012,15.63,39.98,15.93,3,3
18396.187,-0.134,-1.228,0.077,17.46,62.78,2.69,3,3
18396.187,-0.293,-1.201,0.178,18.83,80.63,-1.28,3,3
18396.203,-0.431,-1.191,0.234,13.89,85.67,3.36,3,3
18396.218,-0.454,-1.195,0.313,2.14,76.91,9.25,3,3
18396.218,-0.347,-1.222,0.302,-6.16,64.85,9.19,3,3
18396.234,-0.188,-1.207,0.322,-10.44,60.09,1.19,3,3
18396.234,-0.088,-1.159,0.353,-5.83,65.8,-13.82,3,3
18396.25,-0.046,-1.027,0.44,1.16,74.86,-29.11,3,3
18396.265,0.004,-0.836,0.569,7.29,80.45,-41.41,3,3
18396.265,-0.026,-0.712,0.616,7.26,83.59,-47.85,3,3
18396.281,-0.031,-0.699,0.63,-6.71,79.32,-44.59,3,3
18396.296,0.019,-0.762,0.615,-21.27,73.31,-37.72,3,3
18396.312,0.059,-0.858,0.576,-27.95,73.31,-33.08,3,3
18396.312,0.057,-0.899,0.573,-28.9,76.39,-34.21,3,3
18396.328,0.006,-0.932,0.553,-25.79,78.89,-39.8,3,3
18396.328,-0.011,-0.932,0.585,-20.94,76.63,-46.88,3,3
18396.343,-0.012,-0.889,0.607,-11.11,73.79,-53.32,3,3
18396.343,-0.037,-0.823,0.601,-4.85,71.5,-55.6,3,3
18396.359,-0.054,-0.771,0.584,-6.01,69.34,-53.44,3,3
18396.375,-0.065,-0.775,0.524,-11.54,68.61,-47.73,3,3
18396.375,-0.091,-0.784,0.478,-17.76,70.77,-41.05,3,3
18396.39,-0.086,-0.768,0.449,-21.7,74.89,-34.33,3,3
18396.406,-0.051,-0.718,0.469,-26.0,79.99,-27.41,3,3
18396.406,-0.027,-0.665,0.505,-27.86,86.43,-19.78,3,3
18396.421,0.005,-0.604,0.562,-29.24,92.07,-8.58,3,3
18396.437,-0.015,-0.582,0.597,-32.84,96.71,5.43,3,3
18396.437,-0.071,-0.641,0.581,-39.03,98.3,20.97,3,3
18396.453,-0.081,-0.725,0.535,-44.62,96.68,34.58,3,3
18396.468,-0.093,-0.803,0.554,-46.66,95.74,41.6,3,3
18396.468,-0.141,-0.902,0.576,-38.54,94.24,44.5,3,3
18396.484,-0.16,-0.957,0.534,-28.2,90.18,47.61,3,3
18396.484,-0.118,-0.973,0.501,-22.95,85.39,46.94,3,3
18396.5,-0.149,-1.006,0.462,-26.49,81.3,35.8,3,3
18396.515,-0.198,-1.056,0.445,-29.85,76.14,27.62,3,3
18396.515,-0.168,-1.096,0.426,-28.93,74.83,17.24,3,3
18396.531,-0.13,-1.125,0.399,-25.82,76.3,4.97,3,3
18396.546,-0.122,-1.057,0.441,-21.67,76.54,-8.45,3,3
18396.562,-0.15,-0.993,0.523,-15.35,73.73,-19.96,3,3
18396.562,-0.257,-0.918,0.556,-8.18,68.12,-25.57,3,3
18396.578,-0.282,-0.876,0.517,-8.55,56.31,-22.61,3,3
18396.578,-0.176,-0.867,0.499,-16.42,41.08,-16.82,3,3
18396.593,-0.159,-0.908,0.437,-18.95,35.28,-11.99,3,3
18396.609,-0.137,-0.93,0.367,-17.61,34.03,-6.04,3,3
18396.625,-0.097,-0.912,0.295,-15.35,42.39,0.34,3,3
18396.625,-0.091,-0.91,0.325,-18.43,46.69,3.42,3,3
18396.64,-0.102,-0.909,0.359,-19.47,49.35,5.8,3,3
18396.656,-0.12,-0.943,0.383,-19.87,49.13,7.05,3,3
18396.656,-0.118,-0.959,0.394,-20.17,46.24,5.68,3,3
18396.671,-0.125,-0.986,0.4,-19.44,42.76,1.92,3,3
18396.687,-0.125,-0.982,0.413,-18.16,38.7,-2.69,3,3
18396.687,-0.169,-0.939,0.451,-13.92,35.8,-7.45,3,3
18396.703,-0.184,-0.913,0.445,-8.42,29.63,-7.97,3,3
18396.703,-0.153,-0.873,0.428,-5.86,21.49,-4.85,3,3
18396.718,-0.125,-0.871,0.402,-6.01,15.84,-1.92,3,3
18396.734,-0.134,-0.913,0.379,-8.91,12.18,-0.52,3,3
18396.75,-0.125,-0.945,0.386,-10.59,7.93,-0.73,3,3
18396.75,-0.126,-0.958,0.373,-7.2,4.91,-2.04,3,3
18396.765,-0.129,-0.958,0.355,-2.84,2.66,-3.91,3,3
18396.765,-0.117,-0.945,0.339,0.15,0.85,-6.71,3,3
18396.796,-0.189,-0.936,0.296,3.48,1.31,-6.65,3,3
18396.796,-0.156,-0.947,0.275,1.95,0.21,-3.91,3,3
18396.812,-0.129,-0.96,0.265,0.95,1.25,-3.57,3,3
18396.828,-0.137,-0.97,0.264,1.62,4.33,-4.3,3,3
18396.828,-0.164,-0.947,0.297,3.54,6.41,-5.01,3,3
18396.843,-0.209,-0.923,0.307,5.74,6.62,-4.06,3,3
18396.843,-0.22,-0.898,0.319,4.55,3.97,-0.34,3,3
18396.859,-0.204,-0.904,0.302,2.17,1.5,4.55,3,3
18396.875,-0.172,-0.921,0.283,-1.01,0.49,8.3,3,3
18396.875,-0.145,-0.963,0.271,-2.53,0.98,8.27,3,3
18396.89,-0.13,-1.002,0.281,-1.43,2.93,4.97,3,3
18396.906,-0.137,-1.008,0.308,2.62,5.13,-0.24,3,3
18396.906,-0.15,-1.007,0.325,7.63,5.49,-6.93,3,3
18396.921,-0.147,-0.989,0.342,11.08,3.42,-13.92,3,3
18396.937,-0.147,-0.962,0.353,13.82,0.21,-19.44,3,3
18396.937,-0.169,-0.902,0.369,15.35,-2.66,-22.16,3,3
18396.968,-0.171,-0.87,0.33,9.83,-7.54,-12.39,3,3
18396.968,-0.146,-0.866,0.314,5.55,-8.03,-5.37,3,3
18396.984,-0.147,-0.898,0.3,2.17,-6.26,-0.89,3,3
18396.984,-0.126,-0.925,0.303,-0.49,-4.73,0.98,3,3
18397.0,-0.112,-0.935,0.315,0.06,-2.35,1.16,3,3
18397.015,-0.114,-0.943,0.33,1.4,0.18,1.43,3,3
18397.031,-0.124,-0.941,0.353,1.65,1.53,1.19,3,3
18397.031,-0.142,-0.941,0.372,-0.06,0.58,0.27,3,3
18397.046,-0.157,-0.962,0.377,-3.36,-2.9,-1.65,3,3
18397.046,-0.151,-0.985,0.376,-5.31,-7.11,-4.55,3,3
18397.062,-0.144,-0.991,0.385,-3.36,-9.58,-8.18,3,3
18397.078,-0.15,-0.971,0.374,0.49,-12.36,-12.36,3,3
18397.078,-0.119,-0.954,0.355,2.32,-15.02,-15.17,3,3
18397.093,-0.12,-0.93,0.312,3.42,-14.53,-17.12,3,3
18397.109,-0.124,-0.923,0.291,2.01,-12.88,-16.82,3,3
18397.109,-0.13,-0.907,0.32,-0.58,-11.02,-14.16,3,3
18397.125,-0.183,-0.896,0.33,0.79,-9.46,-4.73,3,3
18397.14,-0.166,-0.906,0.307,0.0,-10.47,0.52,3,3
18397.156,-0.135,-0.925,0.293,-1.43,-10.28,4.09,3,3
18397.156,-0.128,-0.946,0.29,-2.87,-8.09,5.71,3,3
18397.171,-0.134,-0.974,0.299,-4.0,-5.52,6.07,3,3
18397.187,-0.126,-0.998,0.325,-4.27,-4.85,5.43,3,3
18397.187,-0.128,-1.011,0.335,-3.02,-4.24,3.02,3,3
18397.203,-0.135,-1.023,0.334,-1.01,-3.75,-0.31,3,3
18397.218,-0.137,-1.021,0.32,0.89,-3.42,-3.72,3,3
18397.218,-0.127,-1.002,0.301,1.22,-1.89,-6.68,3,3
18397.234,-0.111,-0.99,0.303,1.07,0.31,-8.42,3,3
18397.234,-0.113,-0.976,0.321,2.04,3.11,-9.16,3,3
18397.25,-0.141,-0.942,0.369,3.81,4.46,-9.19,3,3
18397.265,-0.182,-0.933,0.388,6.68,2.53,-8.24,3,3
18397.265,-0.194,-0.94,0.363,7.81,-1.59,-5.19,3,3
18397.281,-0.165,-0.945,0.331,6.81,-5.13,-1.92,3,3
18397.296,-0.118,-0.965,0.287,3.42,-5.13,-0.4,3,3
18397.312,-0.122,-0.97,0.292,2.59,-3.3,-2.11,3,3
18397.328,-0.139,-0.963,0.312,2.78,-1.89,-3.85,3,3
18397.328,-0.166,-0.959,0.322,3.11,-1.62,-4.18,3,3
18397.343,-0.179,-0.963,0.311,2.17,-2.41,-3.42,3,3
18397.359,-0.173,-0.972,0.297,0.76,-2.96,-2.62,3,3
18397.359,-0.154,-0.981,0.279,-0.18,-2.44,-1.56,3,3
18397.375,-0.142,-0.976,0.272,-1.19,-0.21,-1.34,3,3
18397.375,-0.144,-0.968,0.29,-1.74,2.17,-1.86,3,3
18397.39,-0.152,-0.955,0.311,-1.28,3.39,-2.53,3,3
18397.406,-0.159,-0.94,0.334,-0.95,2.78,-3.14,3,3
18397.406,-0.158,-0.935,0.338,-0.15,1.43,-3.14,3,3
18397.421,-0.155,-0.928,0.332,1.25,0.06,-2.59,3,3
18397.437,-0.176,-0.927,0.324,2.62,-1.13,-1.07,3,3
18397.453,-0.207,-0.945,0.31,3.14,-2.29,2.11,3,3
18397.453,-0.199,-0.954,0.291,2.72,-3.6,6.38,3,3
18397.468,-0.166,-0.97,0.268,0.49,-2.72,10.71,3,3
18397.484,-0.181,-0.973,0.271,0.92,-0.4,10.38,3,3
18397.5,-0.195,-0.971,0.283,2.66,2.32,7.93,3,3
18397.5,-0.225,-0.967,0.289,1.1,2.59,8.24,3,3
18397.515,-0.23,-0.973,0.283,-1.37,1.92,7.78,3,3
18397.515,-0.162,-0.995,0.291,-1.25,3.2,5.65,3,3
18397.531,-0.165,-0.983,0.293,0.34,5.13,2.29,3,3
18397.546,-0.168,-0.961,0.3,1.68,5.22,-1.13,3,3
18397.546,-0.184,-0.944,0.298,2.41,5.01,-2.81,3,3
18397.562,-0.166,-0.929,0.294,1.07,4.24,-1.83,3,3
18397.578,-0.133,-0.925,0.293,-0.82,4.79,-0.31,3,3
18397.593,-0.116,-0.926,0.305,-1.68,6.74,0.06,3,3
18397.593,-0.11,-0.926,0.324,-1.92,7.81,-0.61,3,3
18397.593,-0.112,-0.925,0.345,-1.46,7.66,-2.23,3,3
18397.609,-0.114,-0.927,0.354,0.12,5.8,-3.85,3,3
18397.625,-0.118,-0.917,0.351,1.77,3.33,-4.39,3,3
18397.64,-0.135,-0.9,0.344,2.96,-0.79,-1.56,3,3
18397.656,-0.114,-0.905,0.327,0.89,-2.56,1.04,3,3
18397.671,-0.097,-0.922,0.313,-0.61,-3.14,1.65,3,3
18397.671,-0.086,-0.938,0.305,-0.24,-2.11,1.25,3,3
18397.687,-0.075,-0.942,0.291,0.92,-0.34,-0.15,3,3
18397.687,-0.076,-0.944,0.278,1.13,2.17,-1.95,3,3
18397.703,-0.092,-0.949,0.275,-0.31,5.16,-3.05,3,3
18397.718,-0.106,-0.941,0.293,-1.95,7.81,-3.54,3,3
18397.718,-0.132,-0.934,0.319,-2.14,9.37,-3.6,3,3
18397.734,-0.138,-0.93,0.338,-1.68,8.15,-3.39,3,3
18397.734,-0.125,-0.928,0.351,-0.24,5.77,-2.62,3,3
18397.75,-0.126,-0.925,0.339,0.79,3.57,-1.71,3,3
18397.765,-0.115,-0.931,0.325,-0.15,1.37,-0.64,3,3
18397.765,-0.115,-0.948,0.316,-1.37,0.55,0.52,3,3
18397.781,-0.113,-0.956,0.296,-2.62,0.85,1.07,3,3
18397.796,-0.114,-0.955,0.294,-3.42,2.26,0.27,3,3
18397.796,-0.123,-0.968,0.31,-3.39,3.33,-1.59,3,3
18397.812,-0.122,-0.975,0.321,-1.83,2.47,-3.85,3,3
18397.828,-0.131,-0.979,0.319,0.49,0.82,-6.53,3,3
18397.828,-0.143,-0.987,0.307,1.68,-1.46,-8.94,3,3
18397.843,-0.135,-0.991,0.285,2.41,-3.85,-10.74,3,3
18397.859,-0.125,-0.994,0.267,3.17,-4.94,-12.27,3,3
18397.859,-0.12,-0.982,0.27,4.03,-4.33,-13.86,3,3
18397.875,-0.13,-0.966,0.282,5.22,-3.78,-15.35,3,3
18397.875,-0.131,-0.958,0.294,6.41,-4.7,-16.3,3,3
18397.89,-0.123,-0.95,0.287,7.87,-5.8,-16.94,3,3
18397.906,-0.115,-0.94,0.272,8.18,-5.95,-17.06,3,3
18397.906,-0.104,-0.922,0.267,7.11,-5.25,-17.18,3,3
18397.921,-0.093,-0.919,0.269,5.86,-3.69,-17.12,3,3
18397.937,-0.087,-0.926,0.274,6.41,-1.8,-16.39,3,3
18397.937,-0.092,-0.917,0.279,7.72,0.15,-15.02,3,3
18397.953,-0.105,-0.91,0.291,6.96,1.71,-13.61,3,3
18397.968,-0.115,-0.917,0.304,5.74,1.77,-12.67,3,3
18397.968,-0.117,-0.923,0.302,6.01,1.22,-11.41,3,3
18397.984,-0.115,-0.912,0.311,6.29,1.1,-10.62,3,3
18398.0,-0.118,-0.91,0.313,6.26,1.01,-10.83,3,3
18398.0,-0.12,-0.908,0.317,6.13,0.73,-11.41,3,3
18398.015,-0.118,-0.906,0.318,6.65,1.16,-13.0,3,3
18398.015,-0.118,-0.907,0.318,7.69,1.43,-14.59,3,3
18398.031,-0.123,-0.908,0.333,8.97,2.14,-15.99,3,3
18398.046,-0.138,-0.907,0.343,11.87,2.38,-16.57,3,3
18398.046,-0.132,-0.904,0.327,14.19,1.4,-15.69,3,3
18398.062,-0.093,-0.899,0.31,13.55,0.46,-14.74,3,3
18398.078,-0.067,-0.903,0.3,12.12,1.74,-14.56,3,3
18398.078,-0.066,-0.903,0.323,11.08,4.21,-13.52,3,3
18398.093,-0.072,-0.901,0.333,11.57,6.07,-10.32,3,3
18398.109,-0.079,-0.888,0.355,9.49,6.71,-5.68,3,3
18398.109,-0.082,-0.899,0.379,6.59,6.2,-1.59,3,3
18398.125,-0.075,-0.919,0.369,2.96,4.39,1.8,3,3
18398.14,-0.038,-0.959,0.361,-1.92,2.62,3.17,3,3
18398.14,0.001,-0.995,0.343,-3.27,3.17,1.01,3,3
18398.156,0.014,-1.01,0.34,-0.09,5.65,-4.39,3,3
18398.171,-0.007,-0.987,0.354,4.67,8.94,-10.44,3,3
18398.171,-0.037,-0.946,0.371,6.65,10.1,-14.25,3,3
18398.187,-0.059,-0.92,0.4,6.07,8.58,-15.47,3,3
18398.187,-0.057,-0.913,0.4,7.05,5.89,-13.79,3,3
18398.203,-0.027,-0.887,0.385,7.17,3.85,-10.25,3,3
18398.218,-0.006,-0.87,0.366,5.01,3.23,-7.87,3,3
18398.218,0.002,-0.874,0.365,2.14,3.69,-5.89,3,3
18398.234,0.002,-0.878,0.38,0.09,4.82,-3.45,3,3
18398.234,0.007,-0.896,0.388,-1.68,6.07,-1.56,3,3
18398.25,0.014,-0.912,0.418,-1.89,6.16,-1.31,3,3
18398.265,-0.0,-0.923,0.444,1.56,4.94,-1.62,3,3
18398.265,-0.013,-0.926,0.423,4.15,1.65,-1.43,3,3
18398.281,0.001,-0.926,0.399,2.81,-1.19,-0.79,3,3
18398.296,0.008,-0.938,0.381,0.27,-1.43,-0.31,3,3
18398.312,0.01,-0.952,0.372,-1.34,-0.34,-0.46,3,3
18398.312,0.002,-0.952,0.37,-2.47,1.62,-1.16,3,3
18398.328,-0.003,-0.971,0.36,-3.63,3.2,-2.01,3,3
18398.328,0.001,-0.994,0.352,-4.52,4.67,-3.57,3,3
18398.343,0.007,-0.99,0.356,-5.07,6.81,-5.77,3,3
18398.359,-0.02,-0.972,0.413,-5.13,8.45,-8.7,3,3
18398.359,-0.057,-0.968,0.462,-1.71,7.17,-10.62,3,3
18398.375,-0.065,-0.942,0.48,2.96,2.93,-9.64,3,3
18398.375,-0.042,-0.92,0.473,5.92,-2.59,-7.02,3,3
18398.39,0.0,-0.911,0.447,6.26,-7.81,-4.58,3,3
18398.406,0.029,-0.913,0.429,5.19,-10.32,-2.72,3,3
18398.406,0.016,-0.92,0.437,4.85,-10.68,-1.16,3,3
18398.421,0.002,-0.92,0.446,5.92,-12.15,1.22,3,3
18398.437,0.017,-0.918,0.446,5.83,-14.98,4.58,3,3
18398.437,0.026,-0.931,0.436,3.69,-16.42,7.84,3,3
18398.453,0.031,-0.952,0.43,1.25,-16.79,9.83,3,3
18398.468,0.038,-0.969,0.428,0.4,-17.24,10.38,3,3
18398.468,0.036,-0.976,0.421,0.64,-17.58,9.03,3,3
18398.484,0.05,-0.974,0.432,0.58,-17.79,7.17,3,3
18398.5,0.057,-0.96,0.466,2.69,-18.89,5.28,3,3
18398.5,0.036,-0.945,0.496,4.36,-22.37,4.73,3,3
18398.515,0.028,-0.903,0.521,5.62,-27.28,4.76,3,3
18398.515,0.021,-0.894,0.497,6.41,-32.07,5.4,3,3
18398.531,0.044,-0.889,0.471,5.19,-36.87,6.65,3,3
18398.546,0.06,-0.888,0.448,4.27,-39.09,7.11,3,3
18398.562,0.064,-0.884,0.44,4.46,-38.94,7.54,3,3
18398.562,0.05,-0.863,0.447,4.58,-38.12,8.64,3,3
18398.578,0.018,-0.853,0.457,4.49,-37.87,10.25,3,3
18398.578,-0.009,-0.863,0.449,2.96,-38.85,13.58,3,3
18398.593,0.016,-0.879,0.438,1.25,-40.47,16.63,3,3
18398.609,0.033,-0.892,0.445,1.46,-40.62,18.04,3,3
18398.609,0.024,-0.905,0.452,3.11,-39.74,18.34,3,3
18398.625,0.034,-0.905,0.468,4.15,-40.44,18.37,3,3
18398.625,0.03,-0.896,0.505,5.07,-41.87,17.64,3,3
18398.64,-0.005,-0.898,0.526,6.29,-44.47,17.64,3,3
18398.656,-0.012,-0.9,0.516,5.68,-49.23,19.38,3,3
18398.656,0.014,-0.906,0.497,4.27,-53.59,20.17,3,3
18398.671,0.03,-0.908,0.471,4.09,-55.7,20.23,3,3
18398.687,0.039,-0.904,0.46,3.54,-55.57,20.33,3,3
18398.703,0.037,-0.898,0.463,2.93,-54.35,19.99,3,3
18398.703,0.01,-0.893,0.492,3.14,-53.87,19.75,3,3
18398.718,-0.018,-0.896,0.509,4.85,-54.93,20.36,3,3
18398.718,-0.014,-0.9,0.506,5.68,-57.5,21.64,3,3
18398.734,-0.001,-0.916,0.489,4.97,-60.18,21.15,3,3
18398.75,-0.0,-0.94,0.477,4.7,-61.34,18.37,3,3
18398.75,0.002,-0.954,0.467,6.01,-61.68,13.31,3,3
18398.765,0.018,-0.946,0.463,9.0,-61.71,6.53,3,3
18398.765,0.01,-0.925,0.472,13.15,-60.73,-0.73,3,3
18398.781,-0.015,-0.884,0.471,17.43,-60.34,-7.2,3,3
18398.796,-0.049,-0.838,0.487,20.57,-61.68,-10.04,3,3
18398.796,-0.102,-0.816,0.493,21.91,-63.6,-6.44,3,3
18398.812,-0.13,-0.824,0.482,17.94,-66.1,2.47,3,3
18398.828,-0.091,-0.858,0.456,11.93,-68.18,12.76,3,3
18398.828,-0.033,-0.892,0.436,7.78,-67.26,20.51,3,3
18398.843,-0.005,-0.916,0.448,5.65,-64.06,23.59,3,3
18398.843,-0.005,-0.922,0.508,5.77,-61.56,23.8,3,3
18398.859,-0.022,-0.92,0.56,8.76,-61.68,23.62,3,3
18398.875,-0.054,-0.918,0.564,9.86,-64.24,23.62,3,3
18398.89,-0.047,-0.933,0.548,8.15,-68.73,22.25,3,3
18398.89,-0.016,-0.933,0.518,7.23,-71.66,18.92,3,3
18398.906,-0.005,-0.904,0.504,7.26,-71.87,15.35,3,3
18398.906,-0.001,-0.859,0.504,8.42,-71.14,13.21,3,3
18398.921,0.01,-0.809,0.516,9.55,-71.17,13.79,3,3
18398.937,0.01,-0.77,0.532,9.58,-71.11,17.64,3,3
18398.937,0.018,-0.75,0.543,8.12,-71.6,24.2,3,3
18398.953,0.038,-0.761,0.564,6.32,-73.03,31.25,3,3
18398.968,0.057,-0.791,0.565,5.22,-74.31,36.41,3,3
18398.968,0.098,-0.825,0.587,5.46,-76.39,37.29,3,3
18398.984,0.13,-0.849,0.629,9.67,-79.01,33.54,3,3
18399.0,0.117,-0.841,0.663,15.32,-81.82,27.28,3,3
18399.0,0.088,-0.814,0.69,19.75,-87.01,20.26,3,3
18399.015,0.073,-0.782,0.694,24.05,-93.81,15.44,3,3
18399.031,0.11,-0.725,0.688,26.52,-99.31,15.96,3,3
18399.031,0.131,-0.652,0.699,26.03,-102.3,20.97,3,3
18399.046,0.057,-0.625,0.707,23.41,-103.79,29.91,3,3
18399.062,-0.075,-0.671,0.676,18.25,-106.3,43.0,3,3
18399.062,-0.137,-0.772,0.58,11.32,-109.23,56.89,3,3
18399.078,-0.055,-0.874,0.479,5.01,-108.62,66.62,3,3
18399.078,0.055,-0.95,0.423,2.44,-101.05,67.05,3,3
18399.093,0.108,-0.969,0.454,3.81,-89.88,59.02,3,3
18399.109,0.085,-0.947,0.525,7.05,-80.45,47.15,3,3
18399.109,-0.023,-0.928,0.576,8.67,-76.3,36.56,3,3
18399.125,-0.094,-0.899,0.644,7.05,-78.37,30.76,3,3
18399.125,-0.11,-0.857,0.713,8.15,-85.21,28.69,3,3
18399.14,-0.113,-0.834,0.68,11.96,-91.86,30.34,3,3
18399.156,-0.063,-0.795,0.655,12.02,-96.68,34.82,3,3
18399.156,-0.039,-0.79,0.631,12.51,-98.33,41.14,3,3
18399.171,-0.025,-0.792,0.581,11.69,-98.06,49.29,3,3
18399.187,-0.007,-0.787,0.546,6.9,-95.95,55.76,3,3
18399.187,-0.031,-0.82,0.535,0.73,-91.74,59.42,3,3
18399.203,-0.044,-0.862,0.553,-4.09,-87.83,62.35,3,3
18399.218,-0.045,-0.877,0.581,-6.13,-84.87,63.94,3,3
18399.218,-0.042,-0.902,0.611,-6.1,-83.16,62.99,3,3
18399.234,-0.041,-0.897,0.654,-6.23,-83.44,59.08,3,3
18399.25,-0.062,-0.881,0.687,-4.24,-85.79,52.92,3,3
18399.25,-0.081,-0.875,0.675,-1.4,-89.57,48.86,3,3
18399.265,-0.087,-0.826,0.642,-0.37,-94.49,47.67,3,3
18399.281,-0.081,-0.819,0.605,-0.58,-95.34,50.6,3,3
18399.281,-0.074,-0.783,0.561,-1.8,-95.46,55.24,3,3
18399.296,-0.047,-0.782,0.555,-4.15,-92.65,59.72,3,3
18399.296,-0.065,-0.794,0.555,-6.62,-88.35,63.69,3,3
18399.312,-0.068,-0.819,0.584,-9.7,-85.63,66.93,3,3
18399.328,-0.068,-0.857,0.61,-9.7,-83.96,68.0,3,3
18399.328,-0.08,-0.868,0.618,-7.57,-83.35,66.87,3,3
18399.343,-0.082,-0.88,0.629,-6.5,-85.06,62.29,3,3
18399.359,-0.076,-0.899,0.648,-6.78,-87.25,56.03,3,3
18399.359,-0.113,-0.903,0.676,-5.37,-88.41,49.53,3,3
18399.375,-0.125,-0.894,0.69,-0.85,-92.84,43.98,3,3
18399.375,-0.093,-0.866,0.673,4.3,-98.3,40.01,3,3
18399.39,-0.05,-0.84,0.665,6.78,-102.18,36.84,3,3
18399.406,-0.026,-0.841,0.666,7.66,-103.37,34.09,3,3
18399.421,-0.029,-0.844,0.676,7.75,-102.54,31.95,3,3
18399.421,-0.034,-0.862,0.676,8.18,-102.63,28.02,3,3
18399.437,-0.007,-0.873,0.677,9.25,-104.04,21.79,3,3
18399.437,0.023,-0.842,0.707,13.03,-104.56,13.25,3,3
18399.453,0.002,-0.789,0.731,19.75,-105.35,7.08,3,3
18399.468,-0.021,-0.706,0.735,21.82,-112.06,14.53,3,3
18399.468,-0.022,-0.652,0.722,17.52,-114.96,23.87,3,3
18399.484,-0.039,-0.658,0.692,11.2,-115.33,34.49,3,3
18399.5,-0.04,-0.73,0.649,7.26,-113.13,40.65,3,3
18399.5,-0.036,-0.784,0.644,8.33,-109.81,40.71,3,3
18399.515,-0.019,-0.776,0.647,12.6,-106.69,35.62,3,3
18399.531,0.022,-0.779,0.664,18.25,-104.89,28.41,3,3
18399.531,0.034,-0.748,0.692,22.55,-102.85,23.5,3,3
18399.546,0.016,-0.712,0.717,25.12,-102.15,20.05,3,3
18399.546,0.001,-0.687,0.718,26.31,-104.04,18.77,3,3
18399.562,-0.002,-0.669,0.703,25.06,-106.08,22.89,3,3
18399.578,-0.0,-0.666,0.692,21.06,-106.48,29.11,3,3
18399.578,-0.021,-0.692,0.676,18.46,-106.3,33.39,3,3
18399.593,-0.029,-0.731,0.664,18.07,-105.99,36.47,3,3
18399.609,-0.037,-0.751,0.643,19.07,-103.58,39.37,3,3
18399.609,-0.042,-0.756,0.651,21.03,-100.71,41.05,3,3
18399.625,-0.066,-0.765,0.647,23.29,-96.38,42.45,3,3
18399.64,-0.096,-0.752,0.646,23.59,-96.19,43.37,3,3
18399.64,-0.111,-0.767,0.661,20.57,-96.19,45.44,3,3
18399.656,-0.124,-0.785,0.668,17.24,-95.03,47.91,3,3
18399.656,-0.119,-0.802,0.662,18.01,-95.49,48.8,3,3
18399.671,-0.107,-0.791,0.65,21.0,-95.46,48.16,3,3
18399.687,-0.106,-0.765,0.635,22.8,-94.97,47.21,3,3
18399.687,-0.114,-0.752,0.615,22.25,-95.03,49.5,3,3
18399.703,-0.12,-0.739,0.584,19.87,-94.03,54.29,3,3
18399.718,-0.148,-0.738,0.541,15.63,-90.91,60.06,3,3
18399.718,-0.148,-0.77,0.525,8.91,-86.0,67.81,3,3
18399.734,-0.132,-0.798,0.531,3.17,-78.92,75.08,3,3
18399.734,-0.124,-0.83,0.555,0.21,-72.05,77.91,3,3
18399.75,-0.131,-0.862,0.604,0.0,-67.78,76.45,3,3
18399.765,-0.134,-0.887,0.64,2.47,-67.48,70.1,3,3
18399.765,-0.123,-0.898,0.665,7.2,-71.08,60.76,3,3
18399.781,-0.123,-0.87,0.666,13.0,-74.98,52.52,3,3
18399.796,-0.109,-0.846,0.66,16.54,-78.25,47.33,3,3
18399.812,-0.11,-0.814,0.639,18.25,-79.5,43.58,3,3
18399.812,-0.121,-0.795,0.62,19.32,-79.56,40.83,3,3
18399.828,-0.107,-0.788,0.605,19.99,-79.5,38.97,3,3
18399.828,-0.07,-0.791,0.582,21.39,-78.55,37.05,3,3
18399.843,-0.059,-0.796,0.581,23.1,-76.88,35.43,3,3
18399.859,-0.058,-0.799,0.59,25.18,-75.35,34.97,3,3
18399.859,-0.049,-0.788,0.584,25.61,-73.92,36.96,3,3
18399.875,-0.044,-0.77,0.584,21.79,-71.41,40.28,3,3
18399.89,-0.044,-0.758,0.591,15.38,-68.97,42.39,3,3
18399.89,-0.035,-0.771,0.614,11.14,-65.68,43.4,3,3
18399.906,-0.052,-0.769,0.634,11.75,-61.8,42.85,3,3
18399.906,-0.014,-0.761,0.627,15.47,-61.95,39.83,3,3
18399.921,0.043,-0.738,0.619,18.95,-62.29,38.64,3,3
18399.937,0.066,-0.718,0.639,18.83,-59.82,43.61,3,3
18399.937,0.074,-0.723,0.654,14.77,-56.79,50.97,3,3
18399.953,0.071,-0.761,0.678,9.13,-55.15,55.6,3,3
18399.968,0.055,-0.833,0.713,4.46,-53.83,56.43,3,3
18399.968,0.062,-0.919,0.751,3.57,-54.14,52.46,3,3
18399.984,0.064,-1.012,0.791,9.7,-56.34,39.61,3,3
18400.0,0.036,-1.043,0.806,23.35,-61.62,15.29,3,3
18400.0,0.015,-0.946,0.753,41.87,-73.09,-14.86,3,3
18400.015,-0.006,-0.803,0.73,56.83,-86.18,-33.6,3,3
18400.015,-0.014,-0.705,0.676,61.07,-92.81,-29.42,3,3
18400.031,-0.034,-0.622,0.586,52.34,-93.2,-11.08,3,3
18400.046,-0.049,-0.62,0.523,37.39,-89.24,10.5,3,3
18400.046,-0.039,-0.711,0.508,23.53,-82.49,29.42,3,3
18400.062,-0.024,-0.822,0.551,18.13,-74.28,37.57,3,3
18400.078,-0.019,-0.96,0.634,24.78,-68.88,34.27,3,3
18400.078,-0.043,-1.068,0.685,39.09,-67.26,23.1,3,3
18400.093,-0.067,-1.023,0.657,53.77,-72.08,4.91,3,3
18400.093,-0.078,-0.956,0.617,64.64,-81.21,-17.27,3,3
18400.109,-0.07,-0.904,0.584,67.9,-86.06,-31.04,3,3
18400.125,-0.054,-0.81,0.516,65.58,-84.38,-30.52,3,3
18400.14,-0.02,-0.767,0.482,56.34,-77.18,-18.74,3,3
18400.14,-0.017,-0.776,0.485,43.89,-65.03,-4.21,3,3
18400.156,-0.022,-0.813,0.53,35.71,-53.74,7.72,3,3
18400.156,-0.029,-0.888,0.592,34.39,-45.5,13.73,3,3
18400.171,-0.005,-0.973,0.64,37.54,-41.99,11.9,3,3
18400.187,0.036,-1.0,0.664,43.28,-42.54,3.08,3,3
18400.187,0.064,-0.97,0.669,50.42,-44.65,-11.17,3,3
18400.203,0.099,-0.9,0.646,56.25,-47.43,-25.27,3,3
18400.218,0.133,-0.829,0.628,57.92,-47.24,-35.25,3,3
18400.218,0.128,-0.744,0.628,57.56,-43.4,-40.89,3,3
18400.234,0.097,-0.682,0.625,56.18,-39.55,-41.54,3,3
18400.25,0.072,-0.629,0.644,53.83,-36.29,-37.2,3,3
18400.25,0.082,-0.583,0.645,52.67,-35.16,-29.69,3,3
18400.265,0.126,-0.57,0.641,50.9,-34.06,-18.59,3,3
18400.265,0.189,-0.573,0.652,46.14,-29.42,-3.75,3,3
18400.281,0.239,-0.59,0.69,35.98,-21.82,14.16,3,3
18400.296,0.242,-0.632,0.749,21.0,-13.79,29.02,3,3
18400.296,0.211,-0.699,0.798,6.29,-9.4,35.74,3,3
18400.312,0.162,-0.757,0.856,-2.47,-11.02,34.88,3,3
18400.328,0.111,-0.792,0.89,-1.01,-16.85,29.42,3,3
18400.328,0.107,-0.801,0.888,7.66,-24.45,22.77,3,3
18400.343,0.135,-0.782,0.862,15.96,-29.73,19.2,3,3
18400.359,0.152,-0.754,0.819,18.86,-31.62,18.25,3,3
18400.359,0.139,-0.737,0.799,15.93,-32.44,18.1,3,3
18400.375,0.12,-0.754,0.778,10.86,-34.3,18.43,3,3
18400.39,0.112,-0.774,0.748,7.02,-36.13,19.99,3,3
18400.39,0.095,-0.778,0.699,5.98,-35.65,22.13,3,3
18400.406,0.089,-0.795,0.643,4.27,-34.06,24.66,3,3
18400.406,0.094,-0.807,0.605,1.86,-30.73,24.99,3,3
18400.421,0.112,-0.825,0.584,0.85,-26.31,22.19,3,3
18400.437,0.131,-0.826,0.578,0.79,-20.02,17.98,3,3
18400.437,0.152,-0.817,0.59,3.72,-8.03,6.56,3,3
18400.453,0.171,-0.796,0.616,5.74,-3.39,2.38,3,3
18400.468,0.169,-0.76,0.661,7.66,-2.14,-0.12,3,3
18400.468,0.179,-0.737,0.695,9.0,-3.42,-0.76,3,3
18400.484,0.2,-0.689,0.738,9.16,-4.15,-0.95,3,3
18400.5,0.201,-0.684,0.737,7.17,-7.51,-1.22,3,3
18400.5,0.209,-0.694,0.724,4.39,-11.51,-1.65,3,3
18400.515,0.232,-0.727,0.697,2.75,-14.37,-3.14,3,3
18400.515,0.245,-0.739,0.686,3.23,-14.65,-6.47,3,3
18400.531,0.228,-0.745,0.682,6.44,-13.12,-13.25,3,3
18400.546,0.229,-0.735,0.694,10.71,-12.97,-21.82,3,3
18400.562,0.218,-0.698,0.697,15.9,-13.55,-30.67,3,3
18400.562,0.196,-0.66,0.687,20.72,-15.35,-37.9,3,3
18400.578,0.222,-0.627,0.67,24.32,-18.77,-40.8,3,3
18400.578,0.245,-0.587,0.635,25.18,-19.68,-38.3,3,3
18400.593,0.251,-0.563,0.618,20.94,-17.85,-32.44,3,3
18400.609,0.262,-0.557,0.627,14.1,-15.2,-24.72,3,3
18400.609,0.266,-0.574,0.641,8.18,-11.51,-16.36,3,3
18400.625,0.266,-0.595,0.659,5.28,-7.08,-10.59,3,3
18400.625,0.276,-0.626,0.671,5.31,-3.94,-7.81,3,3
18400.64,0.287,-0.646,0.687,6.26,-1.59,-7.29,3,3
18400.656,0.307,-0.663,0.7,8.15,-0.18,-9.58,3,3
18400.656,0.33,-0.675,0.712,9.95,0.85,-12.18,3,3
18400.671,0.327,-0.673,0.716,10.8,2.78,-14.71,3,3
18400.687,0.331,-0.658,0.72,11.08,3.23,-18.28,3,3
18400.703,0.325,-0.626,0.726,11.38,2.99,-21.85,3,3
18400.703,0.319,-0.604,0.738,10.1,1.86,-22.8,3,3
18400.718,0.341,-0.586,0.749,8.06,0.06,-20.51,3,3
18400.718,0.363,-0.585,0.739,6.38,-0.37,-15.93,3,3
18400.734,0.389,-0.59,0.732,2.81,0.52,-10.25,3,3
18400.734,0.408,-0.607,0.734,-0.24,2.41,-6.84,3,3
18400.75,0.396,-0.62,0.749,-1.43,4.76,-5.89,3,3
18400.765,0.374,-0.629,0.763,-1.04,5.98,-5.49,3,3
18400.765,0.373,-0.628,0.778,-0.85,5.43,-4.55,3,3
18400.781,0.373,-0.627,0.77,-0.73,4.18,-4.27,3,3
18400.796,0.384,-0.63,0.766,-1.59,2.41,-3.85,3,3
18400.796,0.39,-0.626,0.763,-2.78,1.92,-3.45,3,3
18400.812,0.39,-0.623,0.758,-3.75,1.74,-4.46,3,3
18400.828,0.389,-0.616,0.766,-3.51,1.53,-6.23,3,3
18400.828,0.382,-0.609,0.763,-2.08,0.58,-6.99,3,3
18400.843,0.37,-0.609,0.75,-1.62,0.03,-6.04,3,3
18400.843,0.386,-0.623,0.744,-2.23,-0.98,-5.65,3,3
18400.859,0.386,-0.645,0.746,-0.85,0.82,-5.43,3,3
18400.875,0.372,-0.631,0.741,2.81,1.25,-7.54,3,3
18400.875,0.368,-0.617,0.731,4.61,-1.43,-12.45,3,3
18400.89,0.364,-0.633,0.742,2.44,-3.54,-16.97,3,3
18400.906,0.341,-0.668,0.768,3.3,-4.91,-20.69,3,3
18400.906,0.329,-0.659,0.777,10.41,-7.48,-24.2,3,3
18400.921,0.306,-0.589,0.743,16.88,-10.53,-26.98,3,3
18400.937,0.309,-0.546,0.711,15.47,-15.08,-28.26,3,3
18400.953,0.347,-0.532,0.706,10.5,-18.92,-25.85,3,3
18400.953,0.379,-0.527,0.662,6.9,-18.74,-19.84,3,3
18400.968,0.396,-0.513,0.629,1.22,-14.22,-11.66,3,3
18400.968,0.411,-0.521,0.642,-5.25,-7.69,-4.33,3,3
18400.984,0.404,-0.556,0.649,-9.06,-1.13,0.24,3,3
18401.0,0.394,-0.592,0.662,-10.93,4.52,1.86,3,3
18401.0,0.391,-0.612,0.692,-11.26,9.06,1.46,3,3
18401.015,0.38,-0.621,0.724,-8.7,11.78,-0.89,3,3
18401.015,0.369,-0.608,0.752,-5.65,11.9,-3.48,3,3
18401.031,0.363,-0.583,0.775,-3.94,9.31,-6.23,3,3
18401.046,0.373,-0.573,0.777,-3.78,4.61,-7.93,3,3
18401.046,0.396,-0.567,0.768,-3.63,0.58,-8.15,3,3
18401.062,0.416,-0.551,0.756,-1.4,-1.19,-8.51,3,3
18401.078,0.418,-0.534,0.742,1.89,-0.95,-8.45,3,3
18401.078,0.416,-0.521,0.731,2.75,-0.15,-6.47,3,3
18401.093,0.415,-0.522,0.727,1.1,0.76,-2.87,3,3
18401.109,0.422,-0.541,0.726,-0.7,1.8,0.73,3,3
18401.109,0.417,-0.548,0.735,-1.43,3.45,3.42,3,3
18401.125,0.401,-0.549,0.745,-1.62,4.15,4.61,3,3
18401.125,0.391,-0.557,0.742,-1.46,3.33,4.73,3,3
18401.14,0.382,-0.557,0.75,-0.92,2.11,4.58,3,3
18401.156,0.383,-0.566,0.743,-0.09,0.43,4.91,3,3
18401.156,0.387,-0.575,0.73,-0.79,-0.89,5.8,3,3
18401.171,0.398,-0.597,0.728,-2.23,-1.59,5.65,3,3
18401.187,0.403,-0.615,0.733,-1.59,-1.19,3.97,3,3
18401.187,0.395,-0.615,0.734,0.95,-0.37,1.83,3,3
18401.203,0.386,-0.611,0.736,3.11,-0.18,0.15,3,3
18401.218,0.38,-0.611,0.73,4.73,-0.31,-1.71,3,3
18401.218,0.374,-0.612,0.722,5.65,-0.55,-3.45,3,3
18401.234,0.37,-0.609,0.723,5.86,-1.31,-5.25,3,3
18401.234,0.375,-0.615,0.729,6.44,-2.72,-7.45,3,3
18401.25,0.386,-0.627,0.742,8.73,-4.39,-9.98,3,3
18401.265,0.391,-0.623,0.746,12.05,-5.95,-12.33,3,3
18401.265,0.384,-0.632,0.745,14.34,-7.17,-15.35,3,3
18401.281,0.382,-0.637,0.746,16.17,-8.73,-18.89,3,3
18401.296,0.375,-0.609,0.736,17.85,-9.7,-21.85,3,3
18401.296,0.373,-0.571,0.726,17.58,-10.38,-22.61,3,3
18401.312,0.383,-0.531,0.72,15.08,-9.89,-20.11,3,3
18401.328,0.388,-0.503,0.71,11.35,-7.84,-15.2,3,3
18401.328,0.389,-0.487,0.701,7.23,-5.31,-8.91,3,3
18401.343,0.389,-0.495,0.687,3.72,-2.5,-2.5,3,3
18401.343,0.397,-0.512,0.68,1.07,0.15,3.39,3,3
18401.359,0.401,-0.532,0.682,-0.46,3.57,7.69,3,3
18401.375,0.402,-0.548,0.698,-1.31,6.78,10.16,3,3
18401.375,0.402,-0.565,0.719,-2.14,9.06,11.23,3,3
18401.39,0.401,-0.584,0.731,-2.29,9.98,11.11,3,3
18401.406,0.397,-0.59,0.751,-2.08,10.38,10.56,3,3
18401.406,0.382,-0.584,0.764,-1.92,9.92,9.95,3,3
18401.421,0.371,-0.588,0.761,-2.87,8.12,9.74,3,3
18401.437,0.377,-0.595,0.766,-3.91,4.18,9.98,3,3
18401.437,0.381,-0.604,0.761,-3.72,3.57,10.5,3,3
18401.453,0.385,-0.603,0.753,-3.75,3.51,10.62,3,3
18401.468,0.381,-0.604,0.746,-3.57,3.51,9.8,3,3
18401.468,0.376,-0.603,0.742,-3.6,3.66,9.09,3,3
18401.484,0.37,-0.595,0.742,-3.57,4.15,8.85,3,3
18401.5,0.367,-0.598,0.736,-3.91,4.09,8.94,3,3
18401.5,0.364,-0.594,0.733,-4.91,4.21,9.25,3,3
18401.515,0.36,-0.595,0.724,-5.92,4.24,9.0,3,3
18401.515,0.358,-0.585,0.72,-5.98,3.91,8.36,3,3
18401.531,0.354,-0.573,0.725,-4.82,3.94,8.3,3,3
18401.546,0.338,-0.553,0.739,-3.42,4.39,10.07,3,3
18401.546,0.318,-0.54,0.748,-2.56,3.91,13.76,3,3
18401.562,0.313,-0.548,0.746,-3.51,2.29,18.04,3,3
18401.578,0.318,-0.573,0.742,-4.97,0.49,21.3,3,3
18401.578,0.339,-0.594,0.736,-5.13,-0.95,23.32,3,3
18401.593,0.353,-0.606,0.726,-4.76,-0.52,23.47,3,3
18401.609,0.362,-0.619,0.72,-5.04,0.49,21.82,3,3
18401.609,0.352,-0.62,0.732,-5.07,1.65,18.95,3,3
18401.625,0.334,-0.626,0.745,-3.97,1.43,16.14,3,3
18401.625,0.336,-0.628,0.749,-3.05,-0.06,14.4,3,3
18401.64,0.34,-0.63,0.742,-2.04,-1.28,12.36,3,3
18401.656,0.339,-0.634,0.732,-1.1,-2.32,9.64,3,3
18401.656,0.343,-0.641,0.723,-0.03,-2.96,6.29,3,3
18401.671,0.347,-0.638,0.709,1.28,-2.99,2.78,3,3
18401.687,0.352,-0.632,0.695,2.66,-2.38,-0.89,3,3
18401.687,0.355,-0.614,0.687,3.91,-0.89,-4.24,3,3
18401.703,0.348,-0.592,0.691,4.97,1.46,-6.53,3,3
18401.718,0.336,-0.573,0.705,5.22,3.51,-7.35,3,3
18401.718,0.331,-0.562,0.719,5.31,4.39,-6.71,3,3
18401.734,0.332,-0.548,0.724,4.7,4.61,-5.31,3,3
18401.734,0.342,-0.546,0.732,3.54,4.52,-4.79,3,3
18401.75,0.358,-0.556,0.737,3.33,4.21,-5.34,3,3
18401.765,0.371,-0.56,0.744,4.36,4.33,-5.86,3,3
18401.765,0.378,-0.557,0.746,4.97,4.09,-6.53,3,3
18401.781,0.38,-0.553,0.747,5.16,3.14,-7.26,3,3
18401.796,0.377,-0.554,0.741,5.16,2.29,-7.9,3,3
18401.812,0.37,-0.552,0.746,5.86,1.56,-8.06,3,3
18401.812,0.361,-0.543,0.753,7.51,0.18,-7.72,3,3
18401.828,0.356,-0.55,0.746,9.7,-1.5,-6.5,3,3
18401.828,0.358,-0.549,0.737,11.17,-2.32,-3.6,3,3
18401.843,0.359,-0.55,0.73,10.59,-2.44,-0.61,3,3
18401.859,0.349,-0.56,0.736,9.28,-2.01,1.56,3,3
18401.859,0.34,-0.573,0.736,8.33,-1.53,3.63,3,3
18401.875,0.339,-0.585,0.731,7.57,-1.37,4.91,3,3
18401.875,0.343,-0.595,0.73,6.65,-0.92,5.58,3,3
18401.89,0.349,-0.609,0.73,5.77,-0.34,6.07,3,3
18401.906,0.353,-0.618,0.732,4.85,0.49,6.29,3,3
18401.906,0.349,-0.621,0.74,3.85,1.65,5.49,3,3
18401.921,0.34,-0.623,0.748,3.2,2.32,4.0,3,3
18401.937,0.333,-0.624,0.757,3.33,2.23,3.23,3,3
18401.953,0.328,-0.619,0.77,4.0,2.11,2.99,3,3
18401.953,0.324,-0.617,0.772,4.82,1.65,2.9,3,3
18401.953,0.325,-0.617,0.771,4.94,0.89,2.87,3,3
18401.968,0.33,-0.617,0.763,4.43,0.67,2.75,3,3
18401.984,0.331,-0.615,0.763,3.94,0.79,2.23,3,3
18401.984,0.326,-0.609,0.768,3.6,1.07,2.2,3,3
18402.0,0.327,-0.606,0.77,2.62,1.34,2.69,3,3
18402.015,0.332,-0.61,0.774,1.8,1.31,3.45,3,3
18402.031,0.34,-0.615,0.774,1.71,1.04,3.94,3,3
18402.031,0.345,-0.616,0.777,1.46,0.98,3.88,3,3
18402.046,0.345,-0.617,0.778,0.49,0.89,3.36,3,3
18402.046,0.348,-0.625,0.774,-0.46,0.4,2.35,3,3
18402.062,0.352,-0.633,0.772,-0.31,0.37,1.16,3,3
18402.078,0.352,-0.629,0.767,0.55,0.64,-0.46,3,3
18402.078,0.344,-0.621,0.765,1.16,1.01,-2.41,3,3
18402.093,0.346,-0.621,0.762,1.25,1.01,-4.36,3,3
18402.109,0.35,-0.611,0.763,1.59,1.4,-6.01,3,3
18402.109,0.334,-0.593,0.775,2.81,2.04,-6.93,3,3
18402.125,0.314,-0.584,0.773,3.3,2.08,-5.34,3,3
18402.125,0.312,-0.574,0.771,1.46,0.73,-2.53,3,3
18402.14,0.318,-0.586,0.764,-0.58,-1.71,-0.7,3,3
18402.156,0.335,-0.603,0.758,-1.68,-3.85,0.09,3,3
18402.156,0.353,-0.62,0.752,-1.1,-3.69,-0.15,3,3
18402.171,0.368,-0.626,0.75,0.34,-2.11,-0.89,3,3
18402.187,0.372,-0.629,0.754,0.58,-0.12,-1.68,3,3
18402.187,0.37,-0.64,0.77,-0.89,1.19,-2.5,3,3
18402.203,0.36,-0.654,0.789,-2.17,1.74,-4.12,3,3
18402.218,0.352,-0.665,0.803,-1.43,1.28,-6.5,3,3
18402.218,0.339,-0.65,0.81,0.7,0.24,-8.82,3,3
18402.234,0.326,-0.629,0.809,2.32,-1.4,-10.83,3,3
18402.25,0.322,-0.6,0.802,2.26,-3.75,-11.51,3,3
18402.25,0.329,-0.582,0.789,1.22,-6.16,-10.68,3,3
18402.265,0.341,-0.569,0.773,-0.92,-6.78,-8.58,3,3
18402.265,0.344,-0.563,0.763,-3.39,-5.92,-5.71,3,3
18402.281,0.345,-0.562,0.755,-5.92,-4.58,-2.5,3,3
18402.296,0.344,-0.562,0.75,-8.24,-2.78,0.7,3,3
18402.296,0.341,-0.564,0.745,-10.13,-1.07,2.75,3,3
18402.312,0.341,-0.57,0.741,-11.38,0.49,3.78,3,3
18402.328,0.339,-0.568,0.744,-12.12,2.04,4.12,3,3
18402.328,0.333,-0.567,0.746,-12.48,3.3,3.69,3,3
18402.343,0.335,-0.567,0.75,-12.33,4.15,3.17,3,3
18402.359,0.338,-0.565,0.748,-11.14,4.88,2.84,3,3
18402.359,0.34,-0.559,0.747,-9.83,5.16,2.47,3,3
18402.375,0.336,-0.547,0.753,-8.61,5.04,2.17,3,3
18402.375,0.335,-0.537,0.756,-7.39,4.39,2.08,3,3
18402.39,0.344,-0.53,0.757,-6.65,3.2,2.75,3,3
18402.406,0.363,-0.52,0.755,-6.53,2.35,4.03,3,3
18402.406,0.368,-0.514,0.748,-7.39,2.32,6.16,3,3
18402.421,0.362,-0.52,0.743,-7.48,1.46,6.84,3,3
18402.437,0.358,-0.526,0.743,-6.68,0.24,7.11,3,3
18402.453,0.356,-0.524,0.74,-5.19,-0.85,7.32,3,3
18402.453,0.346,-0.542,0.732,-3.54,-1.98,7.6,3,3
18402.453,0.343,-0.546,0.727,-1.89,-3.11,7.84,3,3
18402.468,0.336,-0.544,0.724,-0.7,-4.27,7.75,3,3
18402.484,0.331,-0.55,0.718,0.46,-5.77,7.2,3,3
18402.5,0.324,-0.552,0.716,1.71,-6.65,7.08,3,3
18402.5,0.318,-0.552,0.708,3.33,-7.14,7.29,3,3
18402.515,0.323,-0.552,0.701,4.67,-7.66,7.66,3,3
18402.531,0.331,-0.551,0.693,5.46,-7.11,8.42,3,3
18402.531,0.331,-0.551,0.694,4.85,-5.46,9.31,3,3
18402.546,0.333,-0.563,0.7,3.63,-4.06,10.5,3,3
18402.546,0.329,-0.579,0.706,2.35,-2.66,11.29,3,3
18402.562,0.315,-0.596,0.709,2.2,-1.59,11.32,3,3
18402.578,0.307,-0.606,0.716,3.17,-1.65,10.9,3,3
18402.593,0.308,-0.615,0.721,4.67,-2.2,10.35,3,3
18402.593,0.32,-0.617,0.726,6.13,-2.59,9.67,3,3
18402.593,0.318,-0.615,0.738,7.26,-2.44,9.25,3,3
18402.609,0.313,-0.616,0.752,7.32,-2.69,9.22,3,3
18402.625,0.306,-0.62,0.771,6.71,-3.85,9.43,3,3
18402.625,0.298,-0.62,0.794,6.93,-5.86,9.92,3,3
18402.64,0.278,-0.613,0.829,8.61,-8.94,10.93,3,3
