timestamp,ax,ay,az,gx,gy,gz,orient_label,motion_label
18774.843,0.315,0.957,-0.025,23.41,-24.72,-46.42,4,1
18774.843,0.296,0.982,-0.036,28.99,-21.27,-50.9,4,1
18774.859,0.273,1.003,-0.031,31.77,-17.61,-52.31,4,1
18774.875,0.251,1.024,-0.016,31.4,-14.95,-49.47,4,1
18774.89,0.246,1.058,-0.002,27.95,-13.89,-43.49,4,1
18774.89,0.245,1.063,0.013,21.33,-14.16,-35.74,4,1
18774.906,0.247,1.049,0.022,14.53,-14.62,-28.26,4,1
18774.906,0.243,1.025,0.016,10.74,-14.71,-22.13,4,1
18774.921,0.243,1.004,0.002,8.42,-14.59,-17.21,4,1
18774.937,0.253,0.988,-0.012,7.26,-14.71,-14.44,4,1
18774.937,0.257,0.975,-0.03,7.6,-13.76,-13.52,4,1
18774.953,0.26,0.964,-0.043,8.7,-11.87,-13.52,4,1
18774.968,0.258,0.965,-0.045,10.22,-9.09,-13.64,4,1
18774.968,0.246,0.967,-0.042,11.69,-5.43,-13.06,4,1
18774.984,0.235,0.975,-0.036,11.84,-2.2,-11.08,4,1
18774.984,0.236,0.988,-0.025,9.86,-0.49,-7.72,4,1
18775.0,0.247,0.986,-0.018,5.43,0.49,-2.59,4,1
18775.015,0.24,0.975,-0.013,0.37,1.89,3.3,4,1
18775.015,0.242,0.96,-0.001,-4.52,2.72,8.76,4,1
18775.031,0.244,0.946,0.003,-8.85,3.33,13.52,4,1
18775.046,0.243,0.93,0.004,-12.67,3.63,17.3,4,1
18775.046,0.26,0.909,0.005,-15.26,3.3,20.26,4,1
18775.062,0.288,0.891,0.003,-15.93,3.66,21.3,4,1
18775.078,0.3,0.871,0.005,-14.22,5.34,19.99,4,1
18775.078,0.302,0.858,0.016,-11.26,7.63,17.09,4,1
18775.093,0.298,0.855,0.035,-8.39,9.4,13.58,4,1
18775.093,0.299,0.849,0.055,-5.62,9.92,10.22,4,1
18775.109,0.298,0.857,0.077,-4.15,9.09,7.11,4,1
18775.125,0.299,0.871,0.099,-3.3,6.65,3.57,4,1
18775.125,0.302,0.874,0.103,-1.68,3.54,0.49,4,1
18775.14,0.302,0.882,0.095,0.31,0.76,-2.2,4,1
18775.156,0.303,0.889,0.076,2.5,-1.37,-4.58,4,1
18775.156,0.308,0.896,0.052,4.64,-2.2,-6.38,4,1
18775.171,0.308,0.904,0.042,6.01,-1.4,-7.57,4,1
18775.187,0.302,0.918,0.039,7.26,0.03,-8.0,4,1
18775.187,0.303,0.926,0.038,8.97,1.83,-7.87,4,1
18775.203,0.305,0.929,0.035,11.05,4.33,-7.32,4,1
18775.218,0.289,0.943,0.042,12.6,7.6,-5.43,4,1
18775.218,0.264,0.939,0.05,13.31,11.05,-1.5,4,1
18775.234,0.255,0.929,0.063,12.3,14.13,4.09,4,1
18775.234,0.231,0.907,0.072,12.67,18.07,10.01,4,1
18775.25,0.188,0.856,0.055,13.67,22.49,16.42,4,1
18775.265,0.162,0.815,0.016,12.85,26.37,24.54,4,1
18775.265,0.186,0.796,-0.012,8.82,29.05,32.56,4,1
18775.281,0.214,0.766,-0.027,4.79,33.75,38.76,4,1
18775.296,0.225,0.736,-0.028,3.02,41.69,43.0,4,1
18775.296,0.21,0.706,-0.018,3.97,52.22,46.27,4,1
18775.312,0.176,0.664,-0.008,6.47,64.49,49.56,4,1
18775.328,0.139,0.627,0.001,8.21,77.79,52.52,4,1
18775.328,0.093,0.584,0.027,9.34,91.22,54.66,4,1
18775.343,0.049,0.547,0.036,12.88,105.35,56.06,4,1
18775.359,0.023,0.552,0.026,15.08,119.02,57.37,4,1
18775.359,0.021,0.58,0.032,13.15,132.73,57.77,4,1
18775.375,0.017,0.583,0.045,7.93,148.44,56.7,4,1
18775.39,-0.004,0.574,0.059,-0.06,165.75,56.58,4,1
18775.39,-0.023,0.554,0.071,-10.19,185.49,57.86,4,1
18775.406,-0.033,0.541,0.077,-24.32,205.33,58.57,4,1
18775.406,-0.047,0.553,0.082,-41.05,226.23,54.96,4,1
18775.421,-0.156,0.482,0.09,-59.82,246.74,51.67,4,1
18775.437,-0.239,0.41,0.135,-80.78,258.16,50.94,4,1
18775.437,-0.268,0.352,0.168,-95.61,263.22,49.84,4,1
18775.453,-0.286,0.306,0.204,-102.33,262.15,47.18,4,1
18775.453,-0.288,0.282,0.253,-99.31,256.23,42.27,4,1
18775.468,-0.296,0.269,0.313,-88.44,248.79,33.6,4,1
18775.484,-0.287,0.293,0.365,-74.53,240.91,23.22,4,1
18775.5,-0.255,0.35,0.389,-59.36,233.65,10.25,4,1
18775.5,-0.224,0.366,0.402,-37.87,217.11,-19.84,4,1
18775.515,-0.138,0.391,0.413,-31.01,210.7,-38.12,4,1
18775.531,-0.079,0.446,0.399,-29.82,206.52,-54.29,4,1
18775.531,-0.016,0.535,0.399,-34.3,201.88,-70.35,4,1
18775.546,-0.003,0.559,0.425,-39.8,199.5,-87.5,4,1
18775.546,-0.008,0.561,0.449,-45.99,199.07,-102.94,4,1
18775.562,-0.035,0.59,0.47,-51.52,195.44,-117.68,4,1
18775.578,-0.086,0.593,0.498,-53.04,189.37,-129.98,4,1
18775.578,-0.106,0.623,0.517,-51.76,179.24,-140.08,4,1
18775.593,-0.107,0.684,0.518,-48.83,165.75,-148.5,4,1
18775.609,-0.114,0.758,0.525,-45.63,153.84,-155.55,4,1
18775.609,-0.118,0.825,0.55,-43.43,145.02,-162.02,4,1
18775.625,-0.131,0.878,0.58,-41.32,139.59,-166.6,4,1
18775.625,-0.148,0.934,0.615,-38.03,137.03,-167.09,4,1
18775.64,-0.175,0.989,0.641,-33.23,135.04,-163.21,4,1
18775.656,-0.203,1.051,0.66,-30.49,131.02,-155.77,4,1
18775.656,-0.225,1.123,0.689,-32.81,124.97,-147.53,4,1
18775.671,-0.258,1.184,0.74,-39.25,116.89,-140.42,4,1
18775.687,-0.281,1.281,0.839,-67.42,96.5,-124.42,4,1
18775.703,-0.285,1.26,0.876,-84.81,80.26,-112.52,4,1
18775.718,-0.288,1.226,0.912,-98.82,62.65,-97.54,4,1
18775.718,-0.268,1.209,0.936,-110.17,46.24,-80.29,4,1
18775.734,-0.251,1.193,0.946,-120.18,30.98,-63.11,4,1
18775.75,-0.25,1.147,0.962,-127.29,18.16,-47.06,4,1
18775.75,-0.251,1.084,0.982,-131.23,9.89,-32.26,4,1
18775.765,-0.247,1.049,1.015,-133.4,5.98,-19.41,4,1
18775.765,-0.248,1.034,1.076,-134.43,5.34,-8.09,4,1
18775.781,-0.267,1.018,1.147,-136.14,4.82,1.28,4,1
18775.796,-0.288,1.006,1.224,-138.68,0.79,8.61,4,1
18775.796,-0.292,0.971,1.301,-140.32,-8.85,15.63,4,1
18775.812,-0.27,0.881,1.347,-138.16,-23.87,23.71,4,1
18775.828,-0.237,0.779,1.344,-129.92,-40.99,32.62,4,1
18775.828,-0.195,0.708,1.308,-116.03,-55.24,41.23,4,1
18775.843,-0.142,0.672,1.247,-98.94,-63.36,46.91,4,1
18775.843,-0.096,0.656,1.194,-83.74,-62.99,48.43,4,1
18775.859,-0.075,0.645,1.166,-71.63,-54.78,46.14,4,1
18775.875,-0.108,0.636,1.186,-60.85,-44.13,43.15,4,1
18775.875,-0.153,0.631,1.221,-48.31,-38.42,43.09,4,1
18775.89,-0.169,0.635,1.241,-32.65,-39.49,45.11,4,1
18775.906,-0.174,0.632,1.241,-16.27,-45.99,46.42,4,1
18775.921,-0.162,0.634,1.219,-3.88,-56.25,46.36,4,1
18775.921,-0.14,0.627,1.155,2.14,-67.29,45.56,4,1
18775.937,-0.119,0.608,1.085,1.04,-75.62,45.14,4,1
18775.937,-0.084,0.602,1.028,-4.03,-78.19,45.81,4,1
18775.953,-0.052,0.605,0.975,-8.09,-73.09,48.07,4,1
18775.968,-0.044,0.587,0.949,-8.91,-62.53,51.09,4,1
18775.968,-0.058,0.564,0.945,-6.65,-51.06,53.56,4,1
18775.984,-0.063,0.546,0.947,-2.26,-42.73,55.6,4,1
18775.984,-0.056,0.541,0.956,5.07,-36.81,55.57,4,1
18776.0,-0.064,0.537,0.971,14.71,-33.72,52.92,4,1
18776.015,-0.122,0.553,0.982,34.73,-41.38,47.52,4,1
18776.031,-0.106,0.612,0.974,39.19,-49.2,47.7,4,1
18776.046,-0.07,0.665,0.949,36.35,-55.91,48.49,4,1
18776.046,-0.031,0.675,0.902,26.7,-58.57,49.65,4,1
18776.062,0.004,0.662,0.857,13.76,-56.12,51.15,4,1
18776.078,0.03,0.63,0.828,1.5,-49.32,53.77,4,1
18776.078,0.046,0.584,0.806,-7.32,-40.25,56.61,4,1
18776.093,0.05,0.547,0.814,-12.05,-30.88,58.08,4,1
18776.109,0.052,0.515,0.841,-12.6,-23.62,57.41,4,1
18776.109,0.053,0.491,0.862,-10.9,-18.98,54.63,4,1
18776.125,0.039,0.469,0.881,-7.02,-16.88,50.29,4,1
18776.14,0.026,0.453,0.89,0.31,-16.27,46.33,4,1
18776.14,0.007,0.461,0.885,8.55,-16.45,43.18,4,1
18776.156,0.004,0.479,0.882,14.25,-18.56,40.1,4,1
18776.156,0.018,0.509,0.879,13.67,-21.67,36.13,4,1
18776.171,0.013,0.53,0.874,7.84,-23.9,30.76,4,1
18776.187,0.033,0.519,0.861,-7.14,-28.44,21.88,4,1
18776.203,0.06,0.508,0.838,-11.32,-27.59,16.66,4,1
18776.218,0.067,0.483,0.812,-12.51,-23.59,9.46,4,1
18776.218,0.074,0.463,0.802,-10.35,-17.58,1.4,4,1
18776.234,0.077,0.445,0.776,-2.59,-9.55,-7.45,4,1
18776.234,0.063,0.437,0.741,8.06,0.64,-16.6,4,1
18776.25,0.002,0.467,0.743,15.72,12.12,-25.57,4,1
18776.265,-0.122,0.584,0.822,13.21,17.3,-32.14,4,1
18776.281,-0.123,0.69,0.891,2.81,11.44,-31.98,4,1
18776.281,-0.181,0.701,0.93,3.88,2.41,-26.8,4,1
18776.296,-0.195,0.763,0.981,6.44,-7.26,-12.48,4,1
18776.296,-0.099,0.757,0.925,11.17,-17.67,7.29,4,1
18776.312,-0.005,0.639,0.845,9.98,-22.74,14.44,4,1
18776.328,-0.008,0.598,0.834,2.96,-19.59,8.61,4,1
18776.328,-0.022,0.604,0.853,-0.15,-17.27,2.56,4,1
18776.343,-0.004,0.592,0.854,4.58,-18.07,-0.43,4,1
18776.359,-0.025,0.605,0.868,25.94,-15.84,-1.19,4,1
18776.375,-0.04,0.614,0.87,36.01,-18.95,0.21,4,1
18776.39,-0.016,0.604,0.844,43.76,-24.14,3.72,4,1
18776.39,0.007,0.611,0.82,46.02,-27.68,6.41,4,1
18776.406,0.001,0.6,0.797,41.32,-30.61,5.58,4,1
18776.406,-0.037,0.608,0.811,29.88,-36.01,4.82,4,1
18776.421,0.012,0.65,0.802,16.45,-46.69,8.12,4,1
18776.437,0.104,0.57,0.727,15.87,-51.0,14.47,4,1
18776.437,0.041,0.575,0.692,16.91,-45.11,18.71,4,1
18776.453,0.141,0.628,0.705,0.76,-42.7,22.4,4,1
18776.468,0.143,0.559,0.691,-9.95,-40.86,19.14,4,1
18776.468,0.118,0.502,0.718,-11.99,-35.83,17.88,4,1
18776.484,0.118,0.509,0.753,-1.04,-32.38,20.2,4,1
18776.484,0.122,0.508,0.778,9.55,-32.14,20.69,4,1
18776.5,0.122,0.496,0.769,16.48,-31.98,20.72,4,1
18776.515,0.147,0.498,0.746,17.82,-29.79,18.04,4,1
18776.531,0.205,0.567,0.73,12.18,-16.24,7.45,4,1
18776.546,0.199,0.58,0.746,4.94,-10.38,4.36,4,1
18776.562,0.195,0.587,0.767,-1.16,-6.04,2.29,4,1
18776.562,0.181,0.578,0.775,-4.03,-2.53,0.82,4,1
18776.578,0.158,0.564,0.79,-3.69,-0.18,0.64,4,1
18776.578,0.148,0.55,0.798,0.52,0.15,1.8,4,1
18776.593,0.143,0.554,0.802,7.63,-0.4,3.48,4,1
18776.593,0.148,0.561,0.798,14.68,-1.19,4.64,4,1
18776.609,0.161,0.573,0.798,18.01,-2.62,3.33,4,1
18776.625,0.172,0.574,0.793,18.04,-4.24,-0.4,4,1
18776.625,0.181,0.581,0.793,16.85,-4.64,-4.91,4,1
18776.64,0.176,0.589,0.805,16.57,-4.43,-9.09,4,1
18776.656,0.165,0.603,0.811,17.33,-4.61,-12.05,4,1
18776.656,0.147,0.661,0.829,15.41,-5.65,-12.42,4,1
18776.671,0.146,0.682,0.839,13.73,-7.72,-10.68,4,1
18776.687,0.143,0.666,0.824,14.44,-9.55,-8.45,4,1
18776.703,0.146,0.636,0.774,16.24,-10.47,-5.62,4,1
18776.718,0.14,0.618,0.756,16.36,-9.7,-6.16,4,1
18776.718,0.129,0.604,0.743,15.84,-9.61,-7.6,4,1
18776.734,0.128,0.598,0.734,15.26,-9.49,-8.76,4,1
18776.734,0.127,0.6,0.741,14.92,-9.74,-9.8,4,1
18776.75,0.129,0.609,0.747,16.02,-10.59,-10.04,4,1
18776.765,0.133,0.628,0.756,17.55,-11.32,-9.4,4,1
18776.781,0.138,0.642,0.768,19.17,-12.21,-7.66,4,1
18776.781,0.148,0.657,0.769,21.12,-13.28,-5.04,4,1
18776.796,0.15,0.682,0.756,22.43,-13.61,-2.56,4,1
18776.796,0.154,0.68,0.741,21.36,-13.79,-1.62,4,1
18776.812,0.16,0.666,0.724,20.17,-13.95,-1.86,4,1
18776.828,0.161,0.666,0.702,18.92,-12.88,-2.32,4,1
18776.828,0.152,0.68,0.703,16.94,-11.44,-2.5,4,1
18776.843,0.136,0.685,0.706,15.17,-10.77,-1.43,4,1
18776.843,0.141,0.685,0.69,12.42,-11.35,1.53,4,1
18776.875,0.167,0.677,0.688,6.38,-10.32,6.38,4,1
18776.875,0.178,0.67,0.683,4.18,-9.19,7.42,4,1
18776.89,0.188,0.665,0.682,1.98,-7.54,7.81,4,1
18776.906,0.193,0.656,0.692,0.15,-5.8,6.74,4,1
18776.906,0.186,0.648,0.707,-0.34,-4.27,5.01,4,1
18776.921,0.183,0.648,0.713,-0.15,-3.39,3.69,4,1
18776.937,0.184,0.647,0.724,-0.12,-3.08,2.2,4,1
18776.937,0.168,0.647,0.746,0.82,-3.3,0.4,4,1
18776.953,0.151,0.654,0.75,2.38,-4.91,-0.24,4,1
18776.953,0.152,0.669,0.751,3.51,-7.17,0.61,4,1
18776.968,0.153,0.671,0.746,4.55,-9.31,1.92,4,1
18776.984,0.161,0.668,0.723,4.73,-11.14,3.23,4,1
18776.984,0.178,0.666,0.699,4.15,-11.44,4.12,4,1
18777.0,0.185,0.657,0.679,3.11,-9.83,4.39,4,1
18777.015,0.197,0.653,0.673,1.46,-7.45,4.24,4,1
18777.031,0.203,0.65,0.671,-0.27,-4.67,3.66,4,1
18777.046,0.194,0.663,0.702,-3.14,0.06,2.08,4,1
18777.046,0.173,0.668,0.73,-3.11,-0.09,1.74,4,1
18777.062,0.168,0.674,0.746,-2.38,-2.26,2.53,4,1
18777.078,0.164,0.677,0.759,-0.52,-5.31,3.75,4,1
18777.078,0.159,0.667,0.753,1.25,-8.58,4.88,4,1
18777.093,0.17,0.651,0.734,1.65,-11.93,5.68,4,1
18777.093,0.187,0.64,0.71,1.65,-13.86,5.52,4,1
18777.109,0.202,0.639,0.695,1.5,-13.55,4.67,4,1
18777.125,0.207,0.639,0.686,1.28,-11.66,3.45,4,1
18777.125,0.209,0.643,0.682,0.21,-9.4,2.35,4,1
18777.14,0.217,0.651,0.681,-1.16,-7.17,1.22,4,1
18777.156,0.216,0.656,0.69,-1.92,-4.76,0.12,4,1
18777.171,0.203,0.668,0.706,-1.68,-2.78,-0.31,4,1
18777.171,0.193,0.68,0.723,-1.46,-2.53,0.43,4,1
18777.187,0.187,0.673,0.731,-1.37,-3.72,1.01,4,1
18777.187,0.185,0.667,0.726,-1.53,-5.49,1.62,4,1
18777.203,0.194,0.657,0.712,-1.74,-7.11,1.8,4,1
18777.203,0.203,0.647,0.7,-2.32,-7.57,1.43,4,1
18777.218,0.203,0.64,0.7,-3.57,-6.81,0.03,4,1
18777.234,0.203,0.638,0.704,-4.82,-6.47,-1.77,4,1
18777.234,0.212,0.647,0.705,-4.49,-5.95,-2.01,4,1
18777.25,0.216,0.657,0.702,-3.63,-4.85,-1.8,4,1
18777.265,0.216,0.656,0.706,-2.84,-3.33,-1.65,4,1
18777.265,0.207,0.658,0.709,-1.95,-2.04,-1.22,4,1
18777.281,0.202,0.662,0.711,-1.4,-1.62,-0.4,4,1
18777.296,0.204,0.652,0.715,-1.77,-1.8,-0.06,4,1
18777.296,0.203,0.641,0.711,-1.89,-1.89,-0.31,4,1
18777.312,0.204,0.644,0.715,-1.34,-1.34,-0.37,4,1
18777.328,0.202,0.641,0.716,-0.15,-0.52,-0.43,4,1
18777.328,0.2,0.64,0.713,0.34,-0.12,-0.67,4,1
18777.343,0.207,0.645,0.707,0.15,0.21,-1.22,4,1
18777.343,0.206,0.648,0.703,0.12,0.95,-1.74,4,1
18777.359,0.205,0.651,0.706,-0.4,1.68,-2.01,4,1
18777.375,0.202,0.662,0.721,-0.09,2.26,-2.14,4,1
18777.39,0.19,0.669,0.73,1.34,2.29,-1.28,4,1
18777.39,0.184,0.668,0.73,2.08,1.37,0.34,4,1
18777.406,0.189,0.654,0.722,2.29,-0.09,1.22,4,1
18777.406,0.196,0.643,0.714,2.17,-1.22,1.04,4,1
18777.421,0.2,0.645,0.714,2.01,-1.31,0.49,4,1
18777.437,0.197,0.648,0.718,1.89,-1.43,0.03,4,1
18777.437,0.201,0.652,0.716,1.71,-2.41,-0.49,4,1
18777.453,0.206,0.652,0.711,1.68,-2.9,-0.85,4,1
18777.468,0.207,0.65,0.706,1.19,-1.86,-1.59,4,1
18777.468,0.206,0.647,0.703,1.04,-1.13,-1.77,4,1
18777.484,0.21,0.646,0.698,0.61,-0.18,-2.29,4,1
18777.484,0.213,0.649,0.695,0.37,1.19,-3.2,4,1
18777.5,0.202,0.656,0.706,1.04,2.26,-3.54,4,1
18777.515,0.2,0.661,0.709,1.16,2.72,-3.45,4,1
18777.515,0.195,0.66,0.713,1.04,2.59,-3.54,4,1
18777.531,0.189,0.662,0.719,0.76,1.86,-3.63,4,1
18777.546,0.187,0.667,0.724,0.98,0.95,-3.11,4,1
18777.546,0.179,0.674,0.728,1.19,-0.15,-2.41,4,1
18777.562,0.171,0.675,0.731,0.98,-1.62,-1.56,4,1
18777.578,0.173,0.669,0.728,0.37,-4.06,-0.64,4,1
18777.578,0.191,0.659,0.714,0.06,-5.95,0.4,4,1
18777.593,0.2,0.649,0.702,0.18,-5.77,0.73,4,1
18777.609,0.203,0.643,0.7,0.18,-4.43,0.64,4,1
18777.609,0.205,0.645,0.702,0.03,-3.27,0.4,4,1
18777.625,0.21,0.646,0.704,0.06,-2.44,-0.37,4,1
18777.625,0.21,0.645,0.707,0.82,-1.43,-1.37,4,1
18777.64,0.206,0.653,0.709,1.71,-0.46,-1.86,4,1
18777.656,0.202,0.657,0.709,2.35,0.09,-2.26,4,1
18777.656,0.196,0.657,0.71,2.72,0.15,-2.69,4,1
18777.671,0.189,0.664,0.715,2.72,-0.12,-2.84,4,1
18777.687,0.185,0.668,0.717,2.96,-0.61,-2.2,4,1
18777.687,0.19,0.666,0.713,2.78,-1.56,-1.43,4,1
18777.703,0.192,0.665,0.709,2.87,-1.98,-0.79,4,1
18777.703,0.189,0.666,0.71,2.59,-1.92,-0.34,4,1
18777.734,0.2,0.662,0.702,1.25,-2.99,0.58,4,1
18777.734,0.206,0.653,0.696,0.67,-2.59,0.31,4,1
18777.75,0.206,0.652,0.697,0.67,-1.28,-0.03,4,1
18777.765,0.201,0.655,0.702,0.55,-0.06,-0.49,4,1
18777.765,0.198,0.658,0.709,0.46,0.24,-0.89,4,1
18777.781,0.194,0.658,0.715,0.73,0.21,-1.16,4,1
18777.796,0.188,0.665,0.719,1.77,0.0,-0.98,4,1
18777.796,0.184,0.667,0.718,2.96,-0.55,-0.15,4,1
18777.812,0.182,0.667,0.715,3.63,-1.43,0.46,4,1
18777.828,0.188,0.664,0.711,3.91,-2.32,1.16,4,1
18777.828,0.197,0.662,0.702,3.57,-2.69,1.59,4,1
18777.843,0.203,0.662,0.696,3.39,-2.56,1.62,4,1
18777.843,0.203,0.662,0.693,3.14,-1.83,1.4,4,1
18777.859,0.201,0.665,0.695,2.29,-1.37,1.01,4,1
18777.875,0.201,0.668,0.698,1.59,-1.28,0.73,4,1
18777.875,0.199,0.667,0.701,1.13,-1.19,0.58,4,1
18777.906,0.188,0.669,0.711,0.49,-1.59,0.67,4,1
18777.921,0.188,0.669,0.714,0.4,-2.41,1.1,4,1
18777.921,0.187,0.67,0.716,0.82,-3.23,1.68,4,1
18777.921,0.193,0.663,0.714,1.5,-4.09,2.62,4,1
18777.937,0.201,0.657,0.705,1.77,-4.12,3.11,4,1
18777.953,0.203,0.666,0.686,2.26,-3.42,3.08,4,1
18777.953,0.21,0.635,0.669,2.08,-2.56,2.53,4,1
18777.968,0.189,0.654,0.754,-5.07,-3.94,-1.95,4,1
18777.984,0.209,0.647,0.727,0.34,-6.87,-1.19,4,1
18777.984,0.208,0.644,0.701,7.05,-6.07,0.09,4,1
18778.0,0.196,0.69,0.705,5.92,-5.04,-0.37,4,1
18778.015,0.189,0.673,0.707,4.39,-6.32,-0.61,4,1
18778.015,0.186,0.674,0.701,3.94,-7.66,0.09,4,1
18778.031,0.194,0.68,0.698,3.2,-8.91,1.34,4,1
18778.046,0.196,0.682,0.695,2.17,-9.46,2.23,4,1
18778.046,0.201,0.678,0.692,1.1,-9.95,2.93,4,1
18778.062,0.203,0.672,0.682,0.7,-10.16,3.48,4,1
18778.078,0.211,0.671,0.684,-1.31,-10.38,3.88,4,1
18778.078,0.226,0.667,0.681,-3.3,-10.25,3.66,4,1
18778.093,0.24,0.654,0.672,-2.84,-8.67,3.33,4,1
18778.093,0.237,0.653,0.672,-1.5,-5.62,2.96,4,1
18778.109,0.23,0.669,0.687,-0.49,-2.87,2.87,4,1
18778.125,0.225,0.669,0.685,-0.27,-1.71,2.81,4,1
18778.14,0.222,0.67,0.691,-1.4,-1.13,2.26,4,1
18778.14,0.218,0.667,0.703,-1.98,-1.16,1.68,4,1
18778.156,0.209,0.664,0.703,-1.74,-1.59,1.43,4,1
18778.156,0.209,0.668,0.704,-1.92,-2.62,1.71,4,1
18778.171,0.216,0.663,0.696,-2.08,-3.54,1.95,4,1
18778.187,0.227,0.655,0.681,-1.86,-3.08,2.01,4,1
18778.187,0.238,0.649,0.672,-1.71,-1.5,1.74,4,1
18778.203,0.241,0.65,0.666,-1.74,1.01,1.16,4,1
18778.203,0.251,0.652,0.663,-2.47,4.06,0.18,4,1
18778.218,0.249,0.639,0.657,-2.44,7.32,-1.46,4,1
18778.234,0.26,0.639,0.666,-3.39,10.77,-3.27,4,1
18778.234,0.264,0.642,0.679,-4.06,14.25,-6.23,4,1
18778.25,0.275,0.621,0.66,-0.89,18.28,-9.25,4,1
18778.265,0.283,0.594,0.623,1.62,24.38,-12.76,4,1
18778.265,0.217,0.613,0.645,0.98,32.93,-17.09,4,1
18778.281,0.113,0.75,0.792,-9.4,32.32,-20.2,4,1
18778.296,0.103,0.774,0.853,-14.01,18.74,-16.57,4,1
18778.296,0.103,0.71,0.81,-7.11,6.47,-10.65,4,1
18778.312,0.184,0.684,0.71,-1.83,0.34,-5.22,4,1
18778.312,0.181,0.572,0.666,2.84,2.87,-3.91,4,1
18778.328,0.094,0.72,0.738,-6.44,4.43,-5.4,4,1
18778.343,0.173,0.688,0.732,-5.89,-1.53,0.03,4,1
18778.359,0.176,0.64,0.698,-3.6,-1.56,1.31,4,1
18778.359,0.195,0.649,0.707,-5.04,-0.37,1.25,4,1
18778.375,0.193,0.641,0.699,-3.42,0.82,0.64,4,1
18778.39,0.195,0.635,0.707,-4.55,1.25,-0.82,4,1
18778.39,0.192,0.637,0.72,-4.76,1.53,-2.35,4,1
18778.406,0.173,0.663,0.74,-2.35,1.98,-2.66,4,1
18778.406,0.148,0.692,0.759,0.24,0.64,-1.77,4,1
18778.421,0.142,0.688,0.755,1.59,-3.11,-0.18,4,1
18778.437,0.145,0.677,0.736,2.81,-6.62,2.23,4,1
18778.437,0.159,0.674,0.715,2.62,-8.76,4.39,4,1
18778.453,0.17,0.674,0.705,0.79,-9.8,7.54,4,1
18778.468,0.159,0.675,0.721,-2.04,-11.96,9.8,4,1
18778.468,0.138,0.73,0.748,-0.58,-15.53,14.1,4,1
18778.484,0.211,0.574,0.652,2.78,-9.77,10.96,4,1
18778.484,0.21,0.664,0.707,-4.03,-7.39,8.55,4,1
18778.5,0.225,0.642,0.717,-2.2,-7.9,8.45,4,1
18778.515,0.215,0.629,0.717,-1.37,-6.9,6.65,4,1
18778.515,0.214,0.638,0.714,-0.06,-6.99,4.91,4,1
18778.531,0.207,0.629,0.732,0.58,-7.23,3.17,4,1
18778.546,0.212,0.636,0.723,-0.24,-8.94,1.37,4,1
18778.546,0.229,0.616,0.699,3.72,-8.73,1.16,4,1
18778.562,0.232,0.646,0.69,5.83,-5.65,0.21,4,1
18778.578,0.217,0.664,0.691,6.87,-2.59,-0.4,4,1
18778.593,0.216,0.669,0.681,5.19,-0.15,-0.46,4,1
18778.609,0.201,0.681,0.69,4.0,1.31,-0.43,4,1
18778.609,0.188,0.688,0.705,2.14,1.04,0.18,4,1
18778.625,0.194,0.687,0.712,-0.46,-0.92,1.07,4,1
18778.625,0.208,0.666,0.703,-1.43,-2.2,1.65,4,1
18778.64,0.212,0.646,0.695,-1.43,-1.8,1.77,4,1
18778.656,0.212,0.642,0.697,-1.74,-1.01,1.65,4,1
18778.656,0.217,0.641,0.705,-1.83,-0.43,1.31,4,1
18778.671,0.219,0.644,0.717,-0.79,0.12,0.55,4,1
18778.687,0.21,0.648,0.72,1.13,0.76,-0.15,4,1
18778.687,0.191,0.655,0.721,2.29,0.43,-0.31,4,1
18778.703,0.186,0.667,0.726,1.68,-1.4,-0.06,4,1
18778.703,0.196,0.666,0.722,1.34,-3.69,0.37,4,1
18778.718,0.199,0.661,0.711,1.74,-4.91,0.98,4,1
18778.734,0.204,0.66,0.7,1.8,-5.31,1.8,4,1
18778.734,0.218,0.66,0.688,1.86,-4.88,2.41,4,1
18778.765,0.235,0.642,0.675,0.89,-2.01,1.19,4,1
18778.765,0.239,0.643,0.674,0.37,0.06,-0.21,4,1
18778.781,0.238,0.644,0.681,-0.12,2.35,-2.01,4,1
18778.796,0.226,0.653,0.694,-0.24,4.33,-3.63,4,1
18778.796,0.209,0.667,0.712,0.21,5.52,-4.43,4,1
18778.812,0.189,0.676,0.728,1.28,5.1,-4.21,4,1
18778.828,0.175,0.674,0.736,1.37,2.96,-3.3,4,1
18778.828,0.177,0.671,0.735,1.01,-0.18,-1.92,4,1
18778.843,0.189,0.664,0.721,1.25,-2.32,-0.4,4,1
18778.843,0.198,0.656,0.702,2.5,-2.87,0.76,4,1
18778.859,0.203,0.656,0.692,2.5,-2.35,1.43,4,1
18778.875,0.206,0.659,0.692,1.13,-1.98,1.34,4,1
18778.875,0.211,0.663,0.697,-0.27,-1.83,1.04,4,1
18778.89,0.214,0.662,0.699,-0.4,-1.53,1.01,4,1
18778.906,0.214,0.661,0.699,-0.06,-0.85,0.79,4,1
18778.906,0.212,0.66,0.701,0.15,-0.49,0.27,4,1
18778.921,0.209,0.659,0.703,0.43,-0.43,0.09,4,1
18778.937,0.207,0.657,0.706,0.67,-0.34,-0.12,4,1
18778.937,0.204,0.659,0.711,1.25,-0.46,-0.12,4,1
18778.953,0.201,0.658,0.71,1.77,-0.76,-0.15,4,1
18778.968,0.205,0.656,0.703,2.01,-1.31,-0.27,4,1
18778.968,0.209,0.657,0.698,1.98,-1.28,-0.55,4,1
18778.984,0.208,0.66,0.695,1.74,-0.95,-0.92,4,1
18778.984,0.208,0.665,0.694,0.76,-0.76,-1.1,4,1
18779.0,0.21,0.666,0.687,0.03,-0.43,-1.1,4,1
18779.015,0.209,0.665,0.686,-0.92,0.21,-1.19,4,1
18779.015,0.209,0.665,0.692,-2.17,0.92,-1.43,4,1
18779.031,0.21,0.663,0.701,-2.56,1.22,-1.53,4,1
18779.046,0.204,0.668,0.709,-1.71,1.92,-1.25,4,1
18779.046,0.196,0.664,0.716,-0.85,2.11,-0.82,4,1
18779.062,0.191,0.658,0.72,-0.49,1.07,-0.4,4,1
18779.078,0.195,0.656,0.718,-0.06,-0.37,-0.15,4,1
18779.078,0.204,0.654,0.709,0.67,-1.22,-0.06,4,1
18779.093,0.209,0.652,0.702,1.13,-1.28,-0.18,4,1
18779.109,0.209,0.654,0.7,1.19,-1.07,-0.43,4,1
18779.109,0.212,0.658,0.7,1.19,-0.64,-0.85,4,1
18779.125,0.207,0.665,0.701,1.22,0.0,-1.16,4,1
18779.14,0.201,0.67,0.703,1.07,-0.03,-1.19,4,1
18779.14,0.202,0.667,0.7,0.73,-0.52,-0.92,4,1
18779.156,0.201,0.665,0.699,0.37,-0.73,-0.89,4,1
18779.156,0.197,0.664,0.701,0.31,-0.67,-0.89,4,1
18779.171,0.195,0.669,0.703,0.21,-0.67,-0.4,4,1
18779.187,0.197,0.667,0.703,-0.12,-0.95,-0.15,4,1
18779.187,0.195,0.667,0.702,-0.46,-1.25,0.0,4,1
18779.203,0.202,0.669,0.7,-0.67,-1.53,0.43,4,1
18779.218,0.207,0.664,0.698,-0.76,-1.34,0.67,4,1
18779.218,0.206,0.659,0.702,-1.25,-0.85,0.46,4,1
18779.234,0.203,0.655,0.707,-1.25,-0.76,0.37,4,1
18779.234,0.204,0.657,0.711,-0.7,-0.98,0.52,4,1
18779.25,0.203,0.659,0.711,-0.43,-1.07,0.34,4,1
18779.265,0.198,0.662,0.716,0.0,-1.62,0.4,4,1
18779.281,0.19,0.669,0.718,0.64,-3.94,1.4,4,1
18779.296,0.195,0.665,0.71,0.76,-5.28,2.01,4,1
18779.296,0.197,0.665,0.705,0.58,-5.89,2.5,4,1
18779.312,0.201,0.667,0.705,0.06,-6.41,2.69,4,1
18779.312,0.206,0.662,0.697,-0.06,-7.08,2.81,4,1
18779.328,0.207,0.662,0.696,-0.79,-7.11,2.69,4,1
18779.343,0.211,0.668,0.699,-1.77,-7.2,2.44,4,1
18779.359,0.212,0.664,0.701,-2.35,-7.51,2.41,4,1
18779.359,0.221,0.66,0.704,-2.56,-7.66,2.62,4,1
18779.375,0.219,0.654,0.704,-1.5,-7.17,2.69,4,1
18779.375,0.223,0.65,0.697,-0.7,-6.74,2.96,4,1
18779.39,0.223,0.644,0.685,-0.89,-5.98,2.41,4,1
18779.406,0.241,0.625,0.644,-2.01,-4.43,1.71,4,1
18779.406,0.276,0.618,0.584,-6.74,0.67,-0.06,4,1
18779.421,0.324,0.622,0.573,-13.31,11.08,-2.66,4,1
18779.437,0.348,0.593,0.595,-19.96,39.37,-15.29,4,1
18779.453,0.372,0.54,0.496,-16.36,74.59,-29.91,4,1
18779.468,0.327,0.55,0.543,-22.55,86.4,-38.7,4,1
18779.468,0.002,0.88,0.93,-43.43,73.95,-39.83,4,1
18779.484,-0.123,0.848,1.019,-39.95,48.07,-31.95,4,1
18779.484,-0.131,0.904,0.972,-33.45,19.59,-15.41,4,1
18779.5,0.068,0.664,0.794,-24.69,-2.78,3.27,4,1
18779.515,0.092,0.558,0.741,-24.41,-6.41,5.4,4,1
18779.515,0.092,0.555,0.784,-23.8,-7.08,5.55,4,1
18779.531,0.103,0.572,0.824,-19.14,-10.25,7.32,4,1
18779.546,0.12,0.583,0.856,-13.18,-14.04,8.0,4,1
18779.546,0.127,0.58,0.875,-4.39,-18.13,8.21,4,1
18779.562,0.113,0.592,0.881,6.99,-22.8,8.76,4,1
18779.578,0.095,0.586,0.887,15.53,-30.06,8.88,4,1
18779.578,0.086,0.638,0.835,20.97,-38.94,10.93,4,1
18779.593,0.228,0.55,0.744,27.71,-43.7,14.86,4,1
18779.609,0.198,0.528,0.667,32.5,-38.58,10.28,4,1
18779.625,0.231,0.615,0.729,12.97,-31.98,-0.76,4,1
18779.625,0.241,0.583,0.676,18.13,-28.44,-2.35,4,1
18779.64,0.237,0.613,0.651,22.06,-21.76,-3.75,4,1
18779.656,0.243,0.687,0.669,18.74,-15.75,-5.62,4,1
18779.656,0.23,0.681,0.679,18.1,-11.93,-6.5,4,1
18779.671,0.203,0.696,0.68,17.27,-9.09,-6.04,4,1
18779.687,0.188,0.721,0.687,15.29,-7.87,-3.66,4,1
18779.687,0.183,0.715,0.688,12.42,-7.78,-0.79,4,1
18779.703,0.175,0.709,0.692,8.7,-8.21,1.5,4,1
18779.718,0.17,0.7,0.69,4.49,-8.76,3.48,4,1
18779.718,0.184,0.681,0.69,-0.24,-9.43,5.07,4,1
18779.734,0.197,0.657,0.697,-3.69,-9.58,6.13,4,1
18779.734,0.215,0.631,0.694,-4.33,-8.12,6.62,4,1
18779.75,0.229,0.621,0.696,-3.05,-4.91,6.71,4,1
18779.765,0.235,0.611,0.696,-1.28,-1.28,5.83,4,1
18779.765,0.242,0.6,0.702,0.31,1.65,3.72,4,1
18779.796,0.223,0.624,0.743,4.55,4.46,-1.86,4,1
18779.796,0.206,0.637,0.759,8.0,3.36,-3.91,4,1
18779.812,0.182,0.645,0.758,11.08,0.52,-5.25,4,1
18779.828,0.171,0.655,0.761,12.6,-3.91,-5.92,4,1
18779.828,0.171,0.669,0.757,13.92,-8.21,-5.71,4,1
18779.843,0.168,0.673,0.74,15.63,-11.35,-4.39,4,1
18779.859,0.176,0.675,0.717,15.63,-13.64,-2.47,4,1
18779.859,0.192,0.675,0.693,14.98,-14.65,-0.92,4,1
18779.875,0.206,0.67,0.67,13.89,-14.01,-0.06,4,1
18779.875,0.221,0.668,0.658,12.3,-12.24,0.27,4,1
18779.89,0.235,0.67,0.652,11.02,-9.49,0.15,4,1
18779.906,0.242,0.671,0.65,10.22,-6.04,-0.31,4,1
18779.906,0.24,0.671,0.651,9.58,-2.29,-1.07,4,1
18779.921,0.229,0.673,0.653,7.9,0.76,-2.2,4,1
18779.937,0.218,0.675,0.666,4.85,2.01,-3.66,4,1
18779.937,0.213,0.672,0.681,1.86,1.74,-5.43,4,1
18779.968,0.222,0.686,0.686,-1.92,-0.92,-8.7,4,1
18779.968,0.222,0.672,0.688,-3.17,-1.83,-10.28,4,1
18779.984,0.212,0.669,0.691,-2.11,-1.22,-10.86,4,1
18779.984,0.195,0.678,0.703,0.31,-0.18,-10.13,4,1
18780.0,0.187,0.679,0.699,1.43,-0.27,-8.97,4,1
18780.015,0.188,0.677,0.69,0.64,-0.95,-8.03,4,1
18780.015,0.186,0.674,0.684,-0.03,-0.67,-7.29,4,1
18780.031,0.179,0.68,0.69,-0.76,-0.21,-6.62,4,1
18780.046,0.169,0.69,0.703,-2.47,-0.7,-5.83,4,1
18780.046,0.162,0.7,0.716,-4.67,-2.53,-4.7,4,1
18780.062,0.168,0.697,0.72,-6.35,-5.71,-3.14,4,1
18780.078,0.182,0.682,0.707,-7.9,-8.64,-1.89,4,1
18780.078,0.194,0.666,0.707,-7.72,-10.25,-0.95,4,1
18780.093,0.196,0.663,0.705,-5.37,-10.1,-0.06,4,1
18780.109,0.205,0.661,0.697,-3.14,-9.58,0.76,4,1
18780.109,0.214,0.659,0.677,-2.29,-8.55,0.79,4,1
18780.125,0.224,0.658,0.656,-0.79,-3.42,-1.62,4,1
18780.14,0.222,0.667,0.653,-0.49,-0.4,-2.59,4,1
18780.156,0.216,0.683,0.669,-1.4,2.08,-3.11,4,1
18780.156,0.191,0.707,0.707,-2.11,3.17,-2.9,4,1
18780.171,0.168,0.716,0.744,-2.23,1.71,-1.53,4,1
18780.187,0.157,0.704,0.757,-1.43,-1.95,0.98,4,1
18780.187,0.156,0.697,0.77,0.58,-5.8,5.01,4,1
18780.203,0.147,0.706,0.79,3.17,-9.43,9.67,4,1
18780.203,0.154,0.704,0.794,7.11,-13.58,13.31,4,1
18780.218,0.165,0.708,0.795,10.53,-16.54,16.42,4,1
18780.234,0.172,0.697,0.797,15.81,-17.88,19.2,4,1
18780.234,0.184,0.705,0.804,23.1,-18.22,21.67,4,1
18780.25,0.175,0.727,0.809,31.01,-18.71,24.35,4,1
18780.265,0.247,0.797,0.834,36.68,-19.62,25.73,4,1
18780.281,0.238,0.86,0.831,40.44,-14.1,20.2,4,1
18780.281,0.199,0.858,0.837,37.97,-10.9,13.4,4,1
18780.296,0.217,0.916,0.982,33.39,-15.14,-2.23,4,1
18780.312,0.157,1.032,1.033,47.49,-19.93,-15.02,4,1
18780.328,0.11,0.991,1.077,54.45,-28.14,-21.67,4,1
18780.328,0.107,0.994,1.096,58.96,-40.53,-22.28,4,1
18780.343,0.137,0.999,1.055,65.1,-53.56,-21.36,4,1
18780.359,0.209,1.008,1.002,66.9,-62.9,-20.33,4,1
18780.359,0.274,0.984,0.975,63.33,-67.35,-22.49,4,1
18780.375,0.33,0.969,0.973,57.1,-67.54,-24.69,4,1
18780.375,0.389,0.969,0.999,50.45,-64.52,-24.75,4,1
18780.39,0.418,0.985,1.042,42.63,-59.72,-22.77,4,1
18780.406,0.399,1.017,1.111,31.74,-56.46,-19.75,4,1
18780.406,0.339,1.034,1.172,18.71,-59.48,-16.82,4,1
18780.421,0.278,1.021,1.206,-6.44,-90.33,-12.51,4,1
18780.437,0.246,0.979,1.193,-11.63,-112.09,-13.52,4,1
18780.453,0.239,0.918,1.139,-6.35,-132.02,-16.69,4,1
18780.453,0.253,0.77,0.969,8.97,-147.4,-20.87,4,1
18780.468,0.253,0.725,0.75,53.74,-160.37,-31.95,4,1
18780.484,0.263,0.736,0.659,73.52,-160.47,-39.25,4,1
18780.484,0.252,0.763,0.601,90.03,-157.38,-47.98,4,1
18780.5,0.218,0.792,0.553,105.56,-154.18,-57.13,4,1
18780.515,0.178,0.811,0.512,120.3,-153.48,-64.85,4,1
18780.515,0.151,0.83,0.468,133.95,-155.55,-70.16,4,1
18780.531,0.133,0.862,0.425,147.28,-159.06,-74.43,4,1
18780.546,0.119,0.872,0.367,162.54,-162.97,-78.74,4,1
18780.546,0.109,0.881,0.291,179.91,-165.59,-82.28,4,1
18780.562,0.112,0.909,0.217,197.94,-165.47,-84.96,4,1
18780.578,0.098,0.961,0.142,216.56,-162.11,-87.47,4,1
18780.578,0.052,1.048,0.09,235.72,-156.22,-86.4,4,1
18780.593,0.076,1.174,0.027,255.26,-150.27,-81.58,4,1
18780.609,0.026,1.284,-0.044,273.02,-141.97,-76.33,4,1
18780.609,-0.022,1.353,-0.133,287.27,-136.02,-67.23,4,1
18780.625,-0.019,1.375,-0.274,293.01,-132.63,-54.26,4,1
18780.64,-0.042,1.369,-0.413,283.09,-131.32,-37.84,4,1
18780.64,-0.039,1.355,-0.528,260.84,-130.62,-21.49,4,1
18780.656,-0.017,1.313,-0.616,229.93,-127.9,-5.65,4,1
18780.671,-0.009,1.24,-0.679,192.45,-121.25,11.96,4,1
18780.671,-0.005,1.179,-0.683,153.84,-111.0,27.62,4,1
18780.687,0.017,1.061,-0.682,123.11,-101.02,41.9,4,1
18780.703,0.026,0.965,-0.651,96.38,-87.25,60.15,4,1
18780.703,0.054,0.914,-0.576,72.63,-74.74,77.12,4,1
18780.703,0.091,0.812,-0.491,53.71,-67.93,93.39,4,1
18780.718,0.092,0.74,-0.409,39.31,-61.89,109.5,4,1
18780.734,0.071,0.666,-0.364,28.14,-62.53,127.05,4,1
18780.734,0.079,0.577,-0.339,13.95,-69.58,144.78,4,1
18780.75,0.107,0.491,-0.331,-3.6,-77.09,161.6,4,1
18780.765,0.117,0.404,-0.354,-19.53,-83.47,173.25,4,1
18780.781,0.154,0.277,-0.403,-33.05,-88.81,178.17,4,1
18780.781,0.268,0.153,-0.453,-40.8,-87.41,180.12,4,1
18780.812,0.497,0.041,-0.526,-36.9,-54.81,176.82,4,1
18780.812,0.523,0.026,-0.528,-34.12,-31.04,167.94,4,1
18780.828,0.517,0.011,-0.492,-35.86,-7.11,156.68,4,1
18780.828,0.527,-0.018,-0.436,-44.71,15.5,145.97,4,1
18780.843,0.501,-0.027,-0.349,-61.25,33.66,133.34,4,1
18780.859,0.486,-0.029,-0.241,-78.59,47.12,123.02,4,1
18780.859,0.494,-0.036,-0.115,-92.99,57.1,114.08,4,1
18780.875,0.506,-0.062,-0.011,-101.29,64.46,104.65,4,1
18780.875,0.501,-0.043,0.065,-104.07,70.41,96.22,4,1
18780.89,0.509,0.016,0.145,-106.66,73.79,87.83,4,1
18780.906,0.551,0.087,0.231,-109.38,73.24,75.38,4,1
18780.921,0.569,0.153,0.282,-110.32,67.57,57.44,4,1
18780.921,0.561,0.233,0.319,-107.88,57.28,33.33,4,1
18780.937,0.543,0.31,0.338,-99.55,43.55,5.04,4,1
18780.937,0.508,0.404,0.326,-86.28,26.22,-25.18,4,1
18780.953,0.471,0.505,0.296,-71.66,5.16,-54.2,4,1
18780.953,0.458,0.573,0.235,-57.62,-17.91,-80.45,4,1
18780.968,0.451,0.645,0.155,-45.69,-39.0,-102.91,4,1
18780.984,0.441,0.708,0.045,-34.24,-54.81,-118.99,4,1
18781.0,0.434,0.782,-0.07,-26.73,-65.49,-128.15,4,1
18781.0,0.421,0.856,-0.16,-25.15,-71.9,-132.63,4,1
18781.015,0.409,0.907,-0.232,-26.89,-74.77,-130.5,4,1
18781.031,0.402,0.968,-0.286,-31.37,-74.37,-121.95,4,1
18781.031,0.393,1.034,-0.307,-36.77,-71.81,-110.05,4,1
18781.046,0.383,1.076,-0.307,-42.54,-69.52,-95.61,4,1
18781.062,0.375,1.096,-0.303,-49.53,-68.67,-79.62,4,1
18781.062,0.378,1.104,-0.3,-55.57,-69.06,-63.72,4,1
18781.078,0.386,1.101,-0.31,-57.04,-69.0,-49.1,4,1
18781.078,0.387,1.095,-0.318,-55.94,-67.9,-37.08,4,1
18781.093,0.384,1.077,-0.309,-54.45,-67.23,-28.11,4,1
18781.093,0.39,1.038,-0.31,-51.39,-67.51,-21.82,4,1
18781.109,0.397,1.005,-0.318,-46.85,-68.21,-18.16,4,1
18781.14,0.411,0.97,-0.338,-34.52,-68.3,-12.02,4,1
18781.14,0.43,0.965,-0.347,-30.61,-66.29,-9.43,4,1
18781.156,0.436,0.967,-0.35,-27.16,-61.86,-7.26,4,1
18781.156,0.439,0.944,-0.345,-23.96,-56.37,-5.16,4,1
18781.171,0.432,0.923,-0.326,-21.03,-50.84,-3.6,4,1
18781.187,0.433,0.897,-0.298,-16.27,-46.08,-1.89,4,1
18781.187,0.437,0.861,-0.272,-8.33,-42.15,0.18,4,1
18781.203,0.437,0.83,-0.265,3.51,-38.54,2.14,4,1
18781.203,0.432,0.826,-0.258,16.14,-35.43,3.02,4,1
18781.218,0.434,0.841,-0.264,26.43,-34.09,3.33,4,1
18781.234,0.444,0.845,-0.285,34.76,-32.5,2.59,4,1
18781.234,0.441,0.85,-0.304,37.81,-31.56,-0.06,4,1
18781.25,0.409,0.871,-0.304,35.83,-30.58,-4.39,4,1
18781.265,0.371,0.845,-0.264,33.54,-29.33,-5.65,4,1
18781.265,0.378,0.859,-0.23,36.13,-29.05,-5.13,4,1
18781.281,0.338,0.881,-0.235,42.82,-28.57,-6.32,4,1
18781.296,0.33,0.843,-0.233,40.77,-30.09,3.45,4,1
18781.312,0.367,0.857,-0.253,37.93,-29.88,9.89,4,1
18781.328,0.383,0.865,-0.272,31.01,-27.71,14.65,4,1
18781.328,0.382,0.836,-0.257,19.71,-26.06,18.77,4,1
18781.343,0.382,0.802,-0.246,10.9,-25.48,22.74,4,1
18781.359,0.387,0.781,-0.248,7.87,-24.84,26.73,4,1
18781.359,0.393,0.776,-0.254,6.16,-24.02,29.48,4,1
18781.375,0.409,0.762,-0.263,3.02,-23.1,29.82,4,1
18781.375,0.417,0.733,-0.27,-0.7,-23.07,27.86,4,1
18781.39,0.431,0.721,-0.268,-2.56,-23.26,24.69,4,1
18781.406,0.448,0.733,-0.282,-2.87,-22.83,14.37,4,1
18781.406,0.467,0.716,-0.307,-5.49,-22.13,6.71,4,1
18781.421,0.469,0.717,-0.312,-8.03,-21.18,-0.27,4,1
18781.437,0.475,0.725,-0.301,-9.03,-20.84,-7.26,4,1
18781.437,0.443,0.757,-0.258,-7.63,-21.3,-12.82,4,1
18781.453,0.433,0.766,-0.229,-5.25,-23.32,-16.48,4,1
18781.468,0.417,0.842,-0.243,6.44,-27.34,-18.77,4,1
18781.484,0.417,0.866,-0.268,10.13,-27.99,-17.52,4,1
18781.484,0.412,0.892,-0.297,9.92,-27.71,-14.8,4,1
18781.5,0.413,0.911,-0.312,6.29,-26.31,-10.96,4,1
18781.515,0.406,0.926,-0.309,1.25,-24.38,-6.93,4,1
18781.531,0.4,0.927,-0.3,-3.08,-22.49,-2.26,4,1
18781.531,0.401,0.93,-0.293,-5.74,-21.09,2.26,4,1
18781.546,0.405,0.927,-0.284,-6.96,-20.23,6.81,4,1
18781.546,0.404,0.915,-0.264,-5.83,-19.68,11.02,4,1
18781.562,0.398,0.909,-0.251,-1.77,-19.68,15.96,4,1
18781.578,0.403,0.905,-0.244,0.31,-21.15,21.36,4,1
18781.578,0.412,0.905,-0.235,-0.55,-23.96,24.75,4,1
18781.593,0.414,0.907,-0.237,-2.96,-26.89,26.58,4,1
18781.593,0.419,0.891,-0.245,-6.56,-29.57,27.28,4,1
18781.609,0.43,0.866,-0.265,-8.21,-30.73,27.44,4,1
18781.625,0.446,0.856,-0.27,-8.45,-30.58,26.73,4,1
18781.64,0.452,0.847,-0.269,-5.98,-29.27,24.45,4,1
18781.64,0.452,0.835,-0.268,-1.04,-27.25,22.34,4,1
18781.656,0.458,0.83,-0.269,4.12,-25.21,20.97,4,1
18781.671,0.465,0.83,-0.278,8.15,-23.32,20.11,4,1
18781.671,0.468,0.826,-0.282,10.35,-21.39,19.84,4,1
18781.687,0.464,0.823,-0.281,11.17,-20.02,20.17,4,1
18781.687,0.468,0.822,-0.27,9.55,-19.41,20.72,4,1
18781.703,0.476,0.808,-0.26,6.87,-19.56,21.52,4,1
18781.718,0.477,0.797,-0.255,4.64,-20.26,22.0,4,1
18781.718,0.481,0.802,-0.259,3.39,-21.12,21.52,4,1
18781.734,0.49,0.797,-0.26,2.84,-21.85,20.91,4,1
18781.734,0.497,0.798,-0.27,2.72,-22.34,20.08,4,1
18781.75,0.501,0.793,-0.279,3.3,-22.28,18.65,4,1
18781.765,0.492,0.783,-0.281,5.01,-21.12,17.18,4,1
18781.765,0.481,0.79,-0.287,7.81,-19.47,16.33,4,1
18781.781,0.464,0.805,-0.288,9.67,-17.67,15.53,4,1
18781.796,0.437,0.81,-0.281,10.44,-16.54,15.59,4,1
18781.812,0.414,0.814,-0.28,10.62,-17.15,16.51,4,1
18781.812,0.415,0.817,-0.292,9.83,-19.04,18.19,4,1
18781.828,0.42,0.817,-0.317,7.78,-20.6,19.71,4,1
18781.828,0.428,0.807,-0.334,4.09,-21.15,21.18,4,1
18781.843,0.442,0.797,-0.347,0.89,-20.72,21.55,4,1
18781.859,0.451,0.78,-0.355,-0.85,-19.07,20.45,4,1
18781.859,0.444,0.766,-0.362,-2.01,-16.21,18.77,4,1
18781.875,0.437,0.757,-0.361,-2.44,-13.67,16.45,4,1
18781.875,0.432,0.75,-0.354,-1.98,-11.69,13.86,4,1
18781.89,0.418,0.744,-0.341,-0.76,-9.98,12.42,4,1
18781.906,0.416,0.746,-0.336,-0.21,-9.95,11.2,4,1
18781.906,0.413,0.751,-0.338,-1.28,-11.2,9.7,4,1
18781.921,0.416,0.748,-0.339,-3.72,-12.91,8.58,4,1
18781.937,0.429,0.738,-0.344,-5.98,-14.37,6.62,4,1
18781.937,0.436,0.73,-0.357,-5.8,-15.14,4.06,4,1
18781.953,0.437,0.723,-0.368,-4.46,-14.37,0.89,4,1
18781.968,0.43,0.725,-0.381,-2.96,-12.6,-2.9,4,1
18781.968,0.431,0.747,-0.394,-3.14,-10.22,-5.92,4,1
18781.984,0.405,0.751,-0.419,-6.16,-7.14,-8.36,4,1
18781.984,0.401,0.75,-0.425,-11.87,-4.39,-7.42,4,1
18782.0,0.441,0.801,-0.432,-16.33,-1.92,-8.55,4,1
18782.015,0.432,0.813,-0.448,-18.46,1.62,-13.4,4,1
18782.015,0.43,0.8,-0.44,-19.59,5.83,-18.22,4,1
18782.031,0.432,0.84,-0.426,-16.82,10.35,-22.92,4,1
18782.046,0.413,0.873,-0.412,-12.79,14.71,-27.16,4,1
18782.046,0.401,0.884,-0.381,-10.1,18.37,-29.88,4,1
18782.062,0.398,0.902,-0.354,-7.75,20.33,-30.67,4,1
18782.078,0.401,0.908,-0.333,-6.93,21.24,-28.63,4,1
18782.078,0.404,0.9,-0.319,-8.88,21.58,-23.41,4,1
18782.093,0.426,0.89,-0.311,-12.05,21.76,-15.78,4,1
18782.109,0.447,0.869,-0.301,-15.23,21.82,-7.9,4,1
18782.109,0.456,0.849,-0.284,-18.49,21.55,-1.25,4,1
18782.125,0.462,0.833,-0.262,-21.24,20.29,3.91,4,1
18782.125,0.474,0.809,-0.243,-22.06,17.55,8.45,4,1
18782.14,0.498,0.804,-0.243,-20.36,13.52,10.01,4,1
18782.156,0.504,0.786,-0.259,-17.58,9.16,8.67,4,1
18782.156,0.516,0.774,-0.271,-15.87,4.82,6.32,4,1
18782.171,0.528,0.768,-0.285,-12.85,1.68,2.81,4,1
18782.187,0.521,0.759,-0.296,-7.93,-0.15,-1.34,4,1
18782.187,0.514,0.76,-0.301,-2.17,-1.31,-5.04,4,1
18782.203,0.504,0.78,-0.311,3.14,-1.8,-7.6,4,1
18782.218,0.495,0.788,-0.319,5.98,-2.01,-8.91,4,1
18782.218,0.487,0.792,-0.333,6.99,-1.74,-9.31,4,1
18782.234,0.48,0.803,-0.339,6.74,-0.43,-8.51,4,1
18782.234,0.472,0.802,-0.338,6.81,1.77,-7.29,4,1
18782.25,0.458,0.797,-0.336,7.63,4.43,-5.58,4,1
18782.265,0.451,0.792,-0.339,9.52,6.62,-3.72,4,1
18782.265,0.451,0.782,-0.353,12.33,8.42,-2.04,4,1
18782.281,0.455,0.775,-0.365,15.63,10.56,-1.04,4,1
18782.296,0.453,0.778,-0.378,19.01,12.85,-1.62,4,1
18782.296,0.443,0.798,-0.38,21.73,15.14,-3.27,4,1
18782.312,0.425,0.82,-0.376,22.31,16.42,-5.58,4,1
18782.328,0.417,0.832,-0.364,21.49,16.42,-8.09,4,1
18782.328,0.415,0.85,-0.351,20.6,15.75,-10.41,4,1
18782.343,0.414,0.859,-0.336,20.78,14.86,-12.3,4,1
18782.343,0.414,0.868,-0.322,21.49,14.25,-12.67,4,1
18782.359,0.416,0.873,-0.313,22.06,14.1,-11.99,4,1
18782.375,0.418,0.874,-0.308,22.49,14.25,-10.71,4,1
18782.375,0.424,0.871,-0.302,21.24,15.02,-7.42,4,1
18782.39,0.429,0.872,-0.291,19.96,15.26,-6.99,4,1
18782.406,0.429,0.871,-0.281,18.37,15.23,-6.13,4,1
18782.421,0.429,0.86,-0.273,16.75,15.05,-4.55,4,1
18782.421,0.447,0.856,-0.263,14.95,14.89,-2.84,4,1
18782.437,0.446,0.859,-0.256,12.82,14.34,-1.77,4,1
18782.437,0.449,0.855,-0.254,11.32,12.33,-1.37,4,1
18782.453,0.462,0.848,-0.266,11.78,9.74,-2.32,4,1
18782.468,0.476,0.845,-0.284,14.22,7.02,-4.46,4,1
18782.468,0.489,0.855,-0.302,17.4,4.46,-7.81,4,1
18782.484,0.497,0.866,-0.32,20.42,2.08,-10.96,4,1
18782.484,0.488,0.876,-0.331,22.31,0.27,-13.21,4,1
18782.5,0.478,0.891,-0.341,22.89,-1.5,-14.5,4,1
18782.515,0.451,0.906,-0.35,22.31,-3.33,-14.28,4,1
18782.531,0.439,0.901,-0.351,20.36,-6.13,-12.36,4,1
18782.531,0.435,0.897,-0.362,19.62,-8.39,-8.88,4,1
18782.546,0.443,0.886,-0.369,20.2,-9.0,-3.91,4,1
18782.546,0.442,0.872,-0.38,21.06,-8.12,1.22,4,1
18782.562,0.429,0.868,-0.383,21.27,-6.68,6.56,4,1
18782.578,0.421,0.851,-0.386,20.72,-5.71,10.99,4,1
18782.578,0.42,0.831,-0.395,19.99,-5.16,13.92,4,1
18782.593,0.444,0.805,-0.398,19.78,-4.24,15.41,4,1
18782.593,0.459,0.791,-0.394,19.81,-1.4,15.44,4,1
18782.609,0.453,0.779,-0.387,19.38,1.77,14.68,4,1
18782.625,0.443,0.763,-0.372,17.67,4.24,13.7,4,1
18782.625,0.43,0.745,-0.361,15.72,5.37,12.57,4,1
18782.64,0.421,0.724,-0.357,15.47,4.97,11.11,4,1
18782.656,0.438,0.714,-0.353,16.66,4.21,9.52,4,1
18782.656,0.472,0.723,-0.346,16.72,4.39,6.87,4,1
18782.671,0.476,0.721,-0.338,14.83,5.46,3.08,4,1
18782.687,0.467,0.716,-0.325,11.66,5.77,0.12,4,1
18782.687,0.457,0.719,-0.32,8.42,4.91,-1.46,4,1
18782.703,0.457,0.712,-0.335,5.25,2.47,-2.47,4,1
18782.718,0.473,0.712,-0.359,3.39,-0.21,-4.3,4,1
18782.718,0.5,0.72,-0.378,3.54,-1.1,-7.45,4,1
18782.734,0.513,0.731,-0.382,3.91,1.07,-11.02,4,1
18782.75,0.498,0.75,-0.371,2.96,3.69,-14.07,4,1
18782.75,0.464,0.76,-0.347,0.73,4.82,-15.72,4,1
18782.765,0.437,0.758,-0.337,-1.01,3.97,-15.44,4,1
18782.765,0.418,0.769,-0.342,-2.9,1.31,-14.19,4,1
18782.781,0.414,0.774,-0.357,-3.69,-1.74,-13.28,4,1
18782.796,0.423,0.78,-0.373,-4.88,-4.12,-12.18,4,1
18782.796,0.449,0.768,-0.383,-6.93,-5.01,-10.68,4,1
18782.812,0.458,0.758,-0.391,-9.86,-3.48,-8.45,4,1
18782.828,0.461,0.749,-0.379,-13.43,-1.4,-6.23,4,1
18782.828,0.453,0.737,-0.359,-15.63,0.27,-5.52,4,1
18782.843,0.432,0.727,-0.344,-15.44,0.52,-6.1,4,1
18782.859,0.425,0.716,-0.336,-13.82,-1.28,-6.59,4,1
18782.859,0.426,0.727,-0.34,-12.6,-3.78,-7.35,4,1
18782.875,0.431,0.744,-0.335,-13.82,-6.01,-9.34,4,1
18782.875,0.433,0.744,-0.327,-14.86,-7.69,-12.12,4,1
18782.89,0.428,0.753,-0.331,-13.86,-8.82,-14.22,4,1
18782.906,0.432,0.763,-0.337,-12.05,-9.83,-14.92,4,1
18782.921,0.462,0.776,-0.35,-10.53,-12.09,-15.53,4,1
18782.921,0.51,0.79,-0.369,-10.41,-16.72,-16.17,4,1
18782.937,0.536,0.798,-0.379,-11.99,-22.55,-16.72,4,1
18782.937,0.549,0.798,-0.383,-15.75,-27.59,-17.37,4,1
18782.953,0.542,0.78,-0.383,-21.67,-30.82,-17.98,4,1
18782.968,0.499,0.756,-0.376,-27.68,-33.05,-18.68,4,1
18782.968,0.439,0.739,-0.349,-31.16,-34.52,-18.28,4,1
18782.984,0.386,0.74,-0.327,-30.98,-36.19,-17.24,4,1
18783.0,0.335,0.76,-0.304,-26.83,-39.0,-16.63,4,1
18783.0,0.334,0.78,-0.316,-18.01,-42.18,-17.06,4,1
18783.015,0.343,0.825,-0.35,-7.08,-43.37,-20.11,4,1
18783.015,0.355,0.869,-0.407,3.75,-41.9,-24.17,4,1
18783.031,0.379,0.899,-0.443,9.25,-37.87,-26.67,4,1
18783.046,0.389,0.917,-0.471,7.66,-30.73,-26.73,4,1
18783.046,0.373,0.936,-0.485,-1.31,-22.52,-23.04,4,1
18783.062,0.367,0.931,-0.468,-13.64,-15.08,-15.99,4,1
18783.078,0.371,0.908,-0.436,-23.32,-9.28,-9.86,4,1
18783.078,0.358,0.868,-0.399,-26.83,-6.07,-5.34,4,1
18783.093,0.366,0.841,-0.37,-26.03,-5.55,-2.69,4,1
18783.093,0.369,0.821,-0.356,-22.31,-5.8,-2.81,4,1
18783.109,0.366,0.805,-0.366,-17.7,-5.58,-4.64,4,1
18783.125,0.356,0.805,-0.363,-15.75,-4.73,-6.93,4,1
18783.14,0.345,0.808,-0.365,-14.47,-3.08,-10.8,4,1
18783.14,0.323,0.829,-0.375,-13.21,-0.06,-15.38,4,1
18783.156,0.297,0.859,-0.374,-13.43,3.97,-20.72,4,1
18783.156,0.268,0.879,-0.34,-12.85,7.66,-28.26,4,1
18783.171,0.228,0.88,-0.305,-7.45,9.7,-35.49,4,1
18783.187,0.191,0.905,-0.302,-0.37,9.89,-39.28,4,1
18783.203,0.174,0.942,-0.33,3.11,8.64,-38.85,4,1
18783.203,0.175,0.95,-0.368,0.27,7.35,-34.55,4,1
18783.218,0.176,0.94,-0.396,-5.31,8.67,-26.7,4,1
18783.218,0.187,0.948,-0.411,-11.75,12.39,-16.6,4,1
18783.234,0.212,0.937,-0.42,-20.14,17.58,-6.68,4,1
18783.25,0.22,0.902,-0.401,-29.45,22.58,0.85,4,1
18783.25,0.229,0.858,-0.368,-33.36,26.89,3.51,4,1
18783.265,0.253,0.831,-0.344,-31.68,29.08,1.22,4,1
18783.265,0.249,0.816,-0.307,-26.8,28.44,-4.64,4,1
18783.281,0.24,0.817,-0.284,-17.98,26.09,-13.0,4,1
18783.296,0.231,0.839,-0.289,-9.06,23.87,-22.16,4,1
18783.296,0.21,0.852,-0.287,-2.35,22.61,-30.73,4,1
18783.312,0.199,0.879,-0.285,4.58,22.22,-38.36,4,1
18783.328,0.206,0.913,-0.307,10.9,22.25,-44.95,4,1
18783.328,0.215,0.95,-0.333,14.53,23.35,-50.78,4,1
18783.343,0.215,0.992,-0.348,16.82,25.91,-55.42,4,1
18783.359,0.208,1.031,-0.349,19.62,29.11,-57.22,4,1
18783.359,0.198,1.08,-0.351,23.16,32.07,-53.93,4,1
18783.375,0.227,1.116,-0.345,16.39,33.3,-34.76,4,1
18783.375,0.253,1.126,-0.318,9.61,31.8,-22.95,4,1
18783.39,0.243,1.096,-0.28,5.25,29.91,-11.72,4,1
18783.406,0.231,0.996,-0.243,1.65,27.13,-2.96,4,1
18783.406,0.225,0.935,-0.238,-0.34,23.96,2.11,4,1
18783.421,0.23,0.885,-0.245,0.67,21.21,3.36,4,1
18783.437,0.24,0.86,-0.264,3.42,18.68,1.31,4,1
18783.437,0.269,0.854,-0.295,6.9,17.49,-3.88,4,1
18783.453,0.311,0.863,-0.32,11.14,19.01,-11.63,4,1
18783.468,0.313,0.882,-0.328,14.34,23.04,-19.93,4,1
18783.468,0.28,0.922,-0.312,16.27,27.65,-26.55,4,1
18783.484,0.249,0.965,-0.286,17.21,30.34,-29.27,4,1
18783.484,0.228,0.995,-0.275,17.3,30.21,-27.8,4,1
18783.5,0.215,1.025,-0.277,15.84,28.72,-22.98,4,1
18783.515,0.22,1.027,-0.293,13.34,26.28,-16.08,4,1
18783.515,0.248,1.016,-0.318,10.1,24.32,-8.82,4,1
18783.531,0.271,0.999,-0.331,6.84,23.87,-2.75,4,1
18783.546,0.279,0.966,-0.329,3.97,24.2,2.2,4,1
18783.546,0.283,0.939,-0.318,1.83,24.96,5.95,4,1
18783.562,0.268,0.922,-0.303,1.04,25.54,7.45,4,1
18783.578,0.253,0.912,-0.297,0.98,25.18,7.57,4,1
18783.578,0.245,0.902,-0.298,1.46,23.9,7.11,4,1
18783.593,0.241,0.899,-0.303,2.59,22.89,6.38,4,1
18783.593,0.239,0.906,-0.313,3.81,21.73,5.25,4,1
18783.609,0.255,0.907,-0.317,4.85,20.6,4.15,4,1
18783.625,0.275,0.911,-0.318,5.95,20.57,3.02,4,1
18783.625,0.28,0.919,-0.314,7.02,21.15,1.74,4,1
18783.64,0.274,0.919,-0.302,6.9,21.39,0.98,4,1
18783.656,0.266,0.914,-0.3,5.43,20.87,1.19,4,1
18783.656,0.262,0.901,-0.304,3.2,19.87,2.08,4,1
18783.671,0.259,0.884,-0.3,1.8,18.86,2.87,4,1
18783.687,0.258,0.868,-0.3,2.38,17.91,3.3,4,1
18783.687,0.262,0.863,-0.299,4.58,17.21,3.11,4,1
18783.703,0.273,0.873,-0.307,7.69,17.4,1.28,4,1
18783.718,0.28,0.895,-0.312,9.77,18.49,-1.28,4,1
18783.718,0.287,0.903,-0.311,10.04,19.68,-3.54,4,1
18783.734,0.281,0.916,-0.309,9.37,21.42,-4.46,4,1
18783.734,0.261,0.93,-0.302,6.47,22.86,-3.14,4,1
18783.75,0.248,0.928,-0.293,2.47,22.98,0.4,4,1
18783.765,0.239,0.923,-0.289,-0.58,22.06,5.16,4,1
18783.765,0.253,0.911,-0.304,-2.53,21.18,9.83,4,1
18783.781,0.276,0.898,-0.312,-5.31,21.64,12.97,4,1
18783.796,0.289,0.876,-0.304,-7.11,23.1,14.13,4,1
18783.796,0.292,0.867,-0.278,-6.62,24.96,13.61,4,1
18783.812,0.289,0.869,-0.252,-4.43,26.06,11.35,4,1
18783.828,0.294,0.872,-0.242,-2.99,25.09,8.39,4,1
18783.828,0.282,0.888,-0.247,-1.71,23.22,5.8,4,1
18783.843,0.285,0.905,-0.263,-1.37,21.3,5.1,4,1
18783.843,0.303,0.914,-0.27,-1.68,20.17,5.07,4,1
18783.859,0.301,0.917,-0.261,-1.34,20.39,5.19,4,1
18783.875,0.304,0.913,-0.252,-0.46,20.42,6.26,4,1
18783.875,0.308,0.923,-0.256,1.43,20.63,8.06,4,1
18783.89,0.302,0.929,-0.275,1.34,20.63,9.83,4,1
18783.906,0.309,0.907,-0.286,-1.71,20.54,11.6,4,1
18783.906,0.318,0.884,-0.28,-4.52,21.21,12.27,4,1
18783.921,0.318,0.869,-0.269,-5.22,22.46,11.96,4,1
18783.937,0.314,0.867,-0.253,-4.94,23.22,11.44,4,1
18783.953,0.321,0.862,-0.246,-4.39,22.68,10.8,4,1
18783.953,0.327,0.86,-0.247,-4.97,21.06,9.55,4,1
18783.953,0.342,0.838,-0.255,-5.77,19.17,7.45,4,1
18783.968,0.361,0.817,-0.248,-6.01,18.34,4.79,4,1
18783.984,0.365,0.815,-0.231,-3.78,18.92,1.1,4,1
18783.984,0.353,0.834,-0.217,-1.4,19.56,-3.05,4,1
18784.0,0.339,0.84,-0.209,0.18,18.71,-6.01,4,1
18784.015,0.332,0.859,-0.221,0.31,16.97,-6.84,4,1
18784.015,0.321,0.887,-0.245,-1.62,15.63,-4.76,4,1
18784.031,0.319,0.912,-0.269,-5.8,15.38,0.27,4,1
18784.046,0.322,0.929,-0.273,-12.63,16.48,7.2,4,1
18784.062,0.326,0.913,-0.251,-19.81,17.15,14.44,4,1
18784.062,0.317,0.887,-0.224,-23.01,17.15,19.81,4,1
18784.078,0.323,0.865,-0.215,-21.76,16.66,23.19,4,1
18784.078,0.342,0.85,-0.21,-20.42,15.72,21.97,4,1
18784.093,0.354,0.82,-0.198,-17.91,14.83,14.44,4,1
18784.093,0.367,0.792,-0.189,-11.26,14.25,3.27,4,1
18784.109,0.372,0.783,-0.185,-0.4,14.07,-10.62,4,1
18784.125,0.354,0.834,-0.191,9.98,14.98,-25.79,4,1
18784.125,0.312,0.911,-0.202,13.28,15.14,-37.26,4,1
18784.14,0.292,0.967,-0.217,9.7,13.82,-40.47,4,1
18784.156,0.288,1.013,-0.246,2.32,13.61,-34.58,4,1
18784.156,0.298,1.036,-0.271,-7.48,14.92,-22.68,4,1
18784.171,0.302,1.026,-0.287,-18.1,17.79,-9.7,4,1
18784.187,0.318,0.985,-0.298,-28.35,21.42,1.5,4,1
18784.203,0.346,0.933,-0.302,-37.02,26.25,7.84,4,1
18784.203,0.383,0.879,-0.294,-41.51,32.47,8.3,4,1
18784.218,0.412,0.843,-0.27,-41.47,39.86,4.55,4,1
18784.218,0.431,0.83,-0.251,-39.09,47.79,-0.95,4,1
18784.234,0.434,0.826,-0.221,-38.12,55.51,-7.35,4,1
18784.234,0.427,0.828,-0.167,-37.45,62.35,-13.58,4,1
18784.25,0.37,0.879,-0.062,-36.35,64.09,-19.99,4,1
18784.265,0.276,0.863,0.029,-32.59,60.0,-21.88,4,1
18784.281,0.204,0.886,0.127,-28.17,49.44,-17.73,4,1
18784.281,0.172,0.95,0.182,-20.91,29.54,-12.7,4,1
18784.296,0.227,0.996,0.128,-16.51,8.3,-7.02,4,1
18784.296,0.312,1.018,0.035,-17.64,-5.92,-2.01,4,1
18784.312,0.36,1.015,-0.051,-21.15,-11.51,2.17,4,1
18784.328,0.371,0.992,-0.118,-23.47,-9.67,7.66,4,1
18784.328,0.37,0.977,-0.167,-23.74,-4.27,13.0,4,1
18784.343,0.348,0.961,-0.191,-24.26,1.5,16.85,4,1
18784.359,0.334,0.931,-0.196,-30.3,11.99,17.03,4,1
18784.359,0.325,0.91,-0.159,-30.79,14.92,14.07,4,1
18784.375,0.3,0.885,-0.095,-28.08,14.4,11.9,4,1
18784.375,0.289,0.867,-0.039,-23.41,11.35,9.52,4,1
18784.39,0.313,0.905,0.011,-19.07,6.44,6.26,4,1
18784.406,0.344,0.915,0.002,-16.69,1.19,3.2,4,1
18784.406,0.367,0.908,-0.019,-13.67,-1.92,0.89,4,1
18784.421,0.376,0.912,-0.032,-8.94,-2.14,-1.13,4,1
18784.437,0.366,0.914,-0.037,-3.97,-0.67,-3.88,4,1
18784.437,0.353,0.916,-0.038,-0.18,0.73,-7.48,4,1
18784.453,0.337,0.932,-0.04,2.81,1.37,-11.87,4,1
18784.468,0.33,0.954,-0.045,3.97,1.28,-15.63,4,1
18784.468,0.319,0.974,-0.056,2.5,0.55,-16.45,4,1
18784.484,0.316,0.983,-0.076,-1.71,0.18,-13.89,4,1
18784.484,0.331,0.971,-0.103,-7.93,0.76,-9.16,4,1
18784.5,0.344,0.935,-0.117,-14.31,2.99,-4.36,4,1
18784.515,0.341,0.899,-0.115,-18.98,6.1,-2.47,4,1
18784.515,0.336,0.871,-0.095,-20.48,9.0,-3.97,4,1
18784.531,0.328,0.858,-0.067,-17.46,10.96,-7.72,4,1
18784.546,0.32,0.882,-0.048,-12.15,11.96,-11.47,4,1
18784.546,0.295,0.944,-0.034,-8.64,12.15,-11.96,4,1
18784.562,0.297,0.979,-0.017,-9.4,9.22,-6.59,4,1
18784.578,0.322,1.004,-0.024,-14.16,5.25,2.2,4,1
18784.578,0.333,0.982,-0.038,-21.58,2.72,11.05,4,1
18784.593,0.338,0.946,-0.051,-28.35,1.1,18.13,4,1
18784.593,0.325,0.911,-0.078,-31.65,0.27,21.45,4,1
18784.609,0.308,0.877,-0.115,-33.72,0.92,21.94,4,1
18784.625,0.302,0.868,-0.148,-35.95,3.02,19.96,4,1
18784.625,0.313,0.859,-0.167,-37.42,7.17,16.51,4,1
18784.64,0.335,0.859,-0.142,-38.18,13.28,12.18,4,1
18784.656,0.345,0.859,-0.082,-37.17,18.74,7.02,4,1
18784.656,0.329,0.857,-0.002,-33.48,22.06,2.59,4,1
18784.671,0.313,0.855,0.074,-26.83,21.73,-0.58,4,1
18784.687,0.31,0.847,0.097,-17.94,17.79,-3.33,4,1
18784.703,0.323,0.861,0.088,-10.68,12.85,-6.16,4,1
18784.703,0.33,0.876,0.074,-6.07,8.55,-9.74,4,1
18784.703,0.339,0.883,0.07,-4.12,5.01,-13.12,4,1
18784.718,0.342,0.889,0.071,-2.38,3.54,-16.02,4,1
18784.734,0.317,0.909,0.073,0.85,3.78,-17.67,4,1
18784.75,0.302,0.93,0.05,3.94,3.72,-17.03,4,1
18784.75,0.305,0.954,0.036,3.3,3.97,-14.19,4,1
18784.765,0.304,0.971,0.04,-0.7,4.97,-10.38,4,1
18784.765,0.317,0.972,0.049,-3.75,6.47,-5.95,4,1
18784.781,0.327,0.978,0.059,-4.58,8.88,-0.67,4,1
18784.796,0.338,0.981,0.083,-5.58,11.2,4.33,4,1
18784.796,0.32,0.985,0.108,-7.9,13.09,8.0,4,1
18784.812,0.292,0.982,0.132,-11.54,13.15,10.99,4,1
18784.828,0.284,0.964,0.14,-14.86,10.9,13.46,4,1
18784.828,0.293,0.949,0.137,-16.57,8.12,15.05,4,1
18784.843,0.326,0.934,0.123,-16.82,5.46,15.96,4,1
18784.859,0.359,0.923,0.102,-15.66,3.97,15.23,4,1
18784.859,0.379,0.907,0.089,-12.91,4.46,13.0,4,1
18784.875,0.389,0.901,0.102,-8.27,6.47,9.86,4,1
18784.875,0.379,0.919,0.1,-3.48,8.58,6.04,4,1
18784.89,0.353,0.942,0.097,-0.98,9.7,3.33,4,1
18784.906,0.343,0.951,0.107,-1.77,9.0,2.75,4,1
18784.906,0.345,0.962,0.107,-2.56,7.63,4.03,4,1
18784.921,0.358,0.971,0.094,-2.59,6.78,6.65,4,1
18784.937,0.374,0.981,0.086,-3.85,6.38,9.8,4,1
18784.937,0.383,0.981,0.083,-6.99,6.29,12.21,4,1
18784.953,0.38,0.961,0.081,-10.83,7.05,13.67,4,1
18784.968,0.371,0.934,0.086,-13.18,8.09,14.28,4,1
18784.968,0.367,0.897,0.095,-11.51,8.48,13.95,4,1
18784.984,0.369,0.872,0.108,-6.04,8.33,13.28,4,1
18784.984,0.367,0.864,0.112,1.59,7.2,10.96,4,1
18785.0,0.373,0.857,0.11,8.39,5.37,6.9,4,1
18785.015,0.37,0.866,0.107,12.3,3.75,1.37,4,1
18785.015,0.365,0.871,0.116,13.73,1.5,-5.16,4,1
18785.031,0.359,0.862,0.121,15.69,-1.19,-11.57,4,1
18785.046,0.353,0.865,0.128,19.2,-4.18,-16.48,4,1
18785.046,0.337,0.885,0.112,23.62,-6.9,-19.78,4,1
18785.062,0.306,0.931,0.071,24.69,-8.48,-20.05,4,1
18785.078,0.304,0.962,0.05,19.35,-9.95,-17.33,4,1
18785.078,0.302,0.987,0.036,12.05,-10.77,-12.67,4,1
18785.093,0.313,1.002,0.012,4.15,-10.77,-5.71,4,1
18785.093,0.341,0.996,-0.004,-3.88,-8.97,2.23,4,1
18785.109,0.354,0.982,-0.013,-10.13,-5.16,9.49,4,1
18785.125,0.358,0.961,0.005,-15.05,-0.76,15.05,4,1
18785.14,0.353,0.943,0.039,-17.09,2.75,18.46,4,1
18785.14,0.357,0.923,0.063,-16.88,3.39,20.39,4,1
18785.156,0.372,0.912,0.082,-16.45,2.17,20.45,4,1
18785.156,0.387,0.896,0.096,-14.89,0.15,17.49,4,1
18785.171,0.393,0.885,0.09,-12.27,-2.2,11.78,4,1
18785.187,0.387,0.874,0.089,-8.61,-4.46,4.85,4,1
18785.187,0.384,0.859,0.083,-2.87,-6.93,-3.14,4,1
18785.203,0.39,0.846,0.07,3.75,-10.32,-12.09,4,1
18785.218,0.396,0.83,0.053,11.47,-12.39,-21.64,4,1
18785.218,0.395,0.833,0.038,19.71,-12.76,-31.65,4,1
18785.234,0.374,0.853,0.026,26.76,-11.6,-41.66,4,1
18785.234,0.339,0.884,0.027,30.24,-9.25,-49.68,4,1
18785.25,0.306,0.912,0.028,31.1,-8.24,-55.18,4,1
18785.265,0.279,0.951,0.028,30.85,-8.0,-56.73,4,1
18785.265,0.255,1.006,0.023,28.23,-8.06,-52.86,4,1
18785.281,0.261,1.062,0.031,21.42,-9.19,-43.92,4,1
18785.296,0.265,1.087,0.03,12.79,-9.95,-31.59,4,1
18785.296,0.256,1.096,0.011,2.53,-9.06,-16.75,4,1
18785.312,0.265,1.082,-0.003,-8.24,-6.44,-1.04,4,1
18785.328,0.27,1.04,-0.023,-17.43,-1.77,13.21,4,1
18785.328,0.288,0.997,-0.029,-25.24,2.93,24.38,4,1
18785.343,0.313,0.957,-0.016,-28.44,11.93,34.64,4,1
18785.359,0.316,0.928,0.002,-25.91,16.02,35.49,4,1
18785.359,0.296,0.902,0.03,-22.83,17.7,35.46,4,1
18785.375,0.274,0.868,0.059,-20.97,17.21,34.64,4,1
18785.375,0.292,0.851,0.067,-20.81,15.99,31.86,4,1
18785.39,0.307,0.839,0.089,-21.39,14.83,26.73,4,1
18785.406,0.311,0.821,0.107,-20.02,13.46,19.17,4,1
18785.421,0.316,0.802,0.125,-15.66,11.14,11.41,4,1
18785.421,0.32,0.81,0.128,-9.55,8.36,4.97,4,1
18785.437,0.312,0.801,0.112,-3.85,5.22,-0.21,4,1
18785.437,0.339,0.802,0.094,0.03,1.34,-3.63,4,1
18785.453,0.369,0.835,0.075,2.59,-0.82,-7.17,4,1
18785.468,0.353,0.836,0.052,4.06,-0.06,-11.29,4,1
18785.468,0.338,0.846,0.066,4.52,1.07,-14.19,4,1
18785.484,0.327,0.868,0.079,6.2,1.74,-16.75,4,1
18785.484,0.324,0.877,0.085,7.9,2.14,-19.1,4,1
18785.5,0.323,0.897,0.093,9.74,2.08,-21.94,4,1
18785.515,0.303,0.908,0.084,12.45,2.38,-24.75,4,1
18785.515,0.303,0.917,0.089,13.89,1.71,-25.64,4,1
18785.531,0.312,0.939,0.082,15.99,0.98,-26.31,4,1
18785.546,0.303,0.932,0.073,17.61,0.89,-25.45,4,1
18785.546,0.319,0.946,0.071,17.67,0.61,-22.86,4,1
18785.562,0.328,0.966,0.068,16.66,1.37,-20.23,4,1
18785.578,0.314,0.959,0.071,13.06,3.97,-16.3,4,1
18785.578,0.304,0.979,0.078,7.97,5.95,-10.41,4,1
18785.593,0.302,0.978,0.091,2.59,6.59,-3.45,4,1
18785.593,0.311,0.974,0.092,-1.98,6.13,2.29,4,1
18785.609,0.315,0.964,0.082,-5.01,5.19,5.95,4,1
18785.625,0.338,0.93,0.089,-7.45,4.73,8.58,4,1
18785.625,0.36,0.925,0.095,-7.66,4.55,9.37,4,1
18785.64,0.344,0.901,0.108,-6.99,5.83,9.67,4,1
18785.656,0.334,0.894,0.127,-7.87,5.89,10.32,4,1
18785.656,0.313,0.889,0.134,-8.51,4.97,10.47,4,1
18785.671,0.304,0.88,0.131,-9.52,3.42,10.99,4,1
18785.687,0.321,0.893,0.115,-9.7,0.12,10.35,4,1
18785.687,0.34,0.892,0.098,-9.28,-3.2,8.0,4,1
18785.703,0.365,0.89,0.084,-8.27,-5.74,4.61,4,1
18785.718,0.379,0.898,0.079,-4.73,-6.41,1.46,4,1
18785.718,0.362,0.906,0.074,-0.18,-5.04,-0.43,4,1
18785.734,0.331,0.913,0.07,2.26,-3.51,-1.95,4,1
18785.734,0.299,0.912,0.078,1.68,-2.96,-3.2,4,1
18785.75,0.273,0.913,0.088,-0.61,-3.39,-4.58,4,1
18785.765,0.275,0.913,0.094,-1.86,-5.86,-5.52,4,1
18785.765,0.298,0.926,0.085,-1.13,-8.82,-5.89,4,1
18785.781,0.315,0.945,0.063,-0.52,-10.71,-5.55,4,1
18785.796,0.32,0.946,0.048,-0.34,-11.35,-4.76,4,1
18785.796,0.309,0.941,0.026,0.15,-10.65,-3.66,4,1
18785.812,0.299,0.927,0.014,0.49,-8.55,-1.86,4,1
18785.828,0.296,0.925,0.008,0.09,-5.68,-0.21,4,1
18785.828,0.297,0.937,0.025,-1.4,-2.66,0.76,4,1
18785.843,0.29,0.947,0.057,-3.33,-0.21,1.04,4,1
18785.859,0.282,0.957,0.084,-4.21,0.89,1.53,4,1
18785.859,0.274,0.96,0.094,-3.69,0.76,3.02,4,1
18785.875,0.267,0.949,0.082,-3.17,-0.34,4.85,4,1
18785.875,0.273,0.94,0.082,-3.57,-1.1,6.62,4,1
18785.89,0.267,0.935,0.095,-3.94,-0.64,6.81,4,1
18785.906,0.24,0.929,0.1,-2.5,0.49,6.74,4,1
18785.921,0.229,0.936,0.099,-1.16,-0.15,8.09,4,1
18785.921,0.246,0.959,0.077,-0.95,-1.74,10.32,4,1
18785.937,0.273,0.98,0.047,-3.63,-2.17,14.19,4,1
18785.937,0.319,0.989,0.04,-7.23,-2.08,20.17,4,1
18785.953,0.367,0.993,0.036,-9.4,-0.4,26.43,4,1
18785.968,0.38,0.985,0.036,-12.45,3.2,31.68,4,1
18785.968,0.378,0.962,0.054,-16.33,6.2,35.92,4,1
18785.984,0.37,0.934,0.072,-18.65,8.0,38.3,4,1
18785.984,0.358,0.911,0.087,-18.77,8.91,38.42,4,1
18786.0,0.354,0.883,0.094,-18.1,8.51,35.8,4,1
18786.015,0.36,0.859,0.095,-16.02,7.2,30.49,4,1
18786.015,0.372,0.837,0.093,-12.67,6.2,23.29,4,1
18786.031,0.384,0.823,0.096,-7.54,5.49,14.37,4,1
18786.046,0.379,0.817,0.104,-0.55,5.01,4.85,4,1
18786.062,0.365,0.824,0.109,6.71,3.97,-3.85,4,1
18786.062,0.361,0.842,0.116,11.93,2.01,-10.32,4,1
18786.078,0.359,0.862,0.12,15.05,-0.64,-15.35,4,1
18786.078,0.363,0.882,0.121,16.66,-3.66,-18.86,4,1
18786.093,0.372,0.909,0.126,17.52,-6.74,-20.91,4,1
18786.093,0.355,0.942,0.114,18.16,-9.28,-21.52,4,1
18786.109,0.332,0.965,0.089,16.54,-11.38,-19.65,4,1
18786.125,0.333,0.964,0.051,12.09,-12.45,-15.72,4,1
18786.14,0.349,0.959,0.019,6.93,-11.08,-10.65,4,1
18786.14,0.361,0.956,-0.01,2.56,-6.71,-5.01,4,1
18786.156,0.36,0.941,-0.018,-1.68,-0.24,0.18,4,1
18786.156,0.367,0.922,-0.003,-5.43,5.74,4.3,4,1
18786.171,0.371,0.915,0.03,-7.08,10.68,6.65,4,1
18786.187,0.354,0.916,0.062,-6.68,14.47,7.72,4,1
18786.203,0.335,0.907,0.087,-5.37,15.99,8.55,4,1
18786.203,0.327,0.899,0.095,-5.04,14.83,9.03,4,1
18786.218,0.324,0.89,0.092,-6.23,12.48,8.79,4,1
18786.218,0.333,0.874,0.088,-8.45,10.04,8.42,4,1
18786.234,0.365,0.875,0.083,-10.8,8.36,7.69,4,1
18786.234,0.371,0.874,0.083,-11.38,9.52,6.41,4,1
18786.25,0.358,0.875,0.094,-10.44,11.29,5.31,4,1
18786.265,0.346,0.878,0.098,-9.28,11.32,4.49,4,1
18786.265,0.344,0.878,0.105,-9.09,10.47,3.45,4,1
18786.281,0.346,0.879,0.116,-8.85,8.61,1.83,4,1
18786.296,0.349,0.882,0.12,-7.72,5.83,-0.31,4,1
18786.296,0.363,0.883,0.113,-7.08,3.33,-2.72,4,1
18786.312,0.366,0.891,0.105,-6.71,2.2,-5.58,4,1
18786.328,0.349,0.887,0.102,-7.75,1.13,-9.67,4,1
18786.328,0.346,0.883,0.103,-8.33,1.04,-10.68,4,1
18786.343,0.351,0.891,0.107,-5.68,1.86,-10.86,4,1
18786.343,0.35,0.88,0.116,-1.04,1.89,-10.35,4,1
18786.359,0.354,0.913,0.124,3.94,1.71,-9.67,4,1
18786.375,0.343,0.916,0.122,7.2,1.22,-9.25,4,1
18786.39,0.334,0.922,0.131,8.27,0.55,-8.18,4,1
18786.39,0.331,0.929,0.137,8.48,-1.22,-6.47,4,1
18786.406,0.331,0.945,0.131,8.36,-3.45,-5.01,4,1
18786.406,0.332,0.953,0.111,6.56,-5.01,-2.78,4,1
18786.421,0.358,0.958,0.1,3.39,-6.26,0.03,4,1
18786.437,0.367,0.954,0.085,0.73,-5.19,2.59,4,1
18786.437,0.353,0.938,0.086,-1.86,-2.44,5.52,4,1
18786.453,0.341,0.928,0.095,-3.05,-0.03,8.73,4,1
18786.468,0.34,0.91,0.094,-2.93,1.53,11.51,4,1
18786.468,0.359,0.902,0.098,-2.99,2.66,13.49,4,1
18786.484,0.382,0.905,0.103,-2.72,3.63,13.15,4,1
18786.484,0.379,0.897,0.111,-2.72,4.85,11.2,4,1
18786.5,0.376,0.882,0.117,-3.51,5.13,9.34,4,1
18786.515,0.366,0.881,0.121,-3.97,4.52,6.96,4,1
18786.531,0.359,0.875,0.144,-4.27,2.93,5.62,4,1
18786.531,0.358,0.877,0.156,-3.85,0.4,4.61,4,1
18786.546,0.36,0.873,0.146,-2.93,-2.35,3.33,4,1
18786.546,0.367,0.875,0.134,-2.14,-4.52,2.35,4,1
18786.562,0.373,0.885,0.11,-0.92,-5.19,1.07,4,1
