timestamp,ax,ay,az,gx,gy,gz,orient_label,motion_label
18796.031,0.231,0.932,0.237,-1.5,-3.97,-3.3,4,1
18796.046,0.231,0.928,0.22,-0.4,-4.73,-4.21,4,1
18796.046,0.232,0.932,0.208,1.31,-4.36,-4.7,4,1
18796.062,0.234,0.928,0.193,3.66,-2.87,-5.19,4,1
18796.078,0.238,0.928,0.185,5.25,-0.85,-5.37,4,1
18796.078,0.233,0.933,0.185,5.62,1.89,-5.25,4,1
18796.093,0.228,0.935,0.194,5.01,4.12,-5.25,4,1
18796.093,0.226,0.945,0.2,3.81,5.83,-5.68,4,1
18796.109,0.213,0.946,0.213,2.9,7.35,-6.16,4,1
18796.125,0.208,0.958,0.227,1.8,7.14,-5.8,4,1
18796.125,0.196,0.972,0.24,0.67,5.37,-5.28,4,1
18796.14,0.182,0.969,0.251,-0.73,2.99,-3.51,4,1
18796.156,0.181,0.97,0.253,-1.77,-0.46,-1.13,4,1
18796.156,0.186,0.963,0.235,-3.88,-7.2,3.88,4,1
18796.171,0.211,0.947,0.214,-4.61,-7.2,4.43,4,1
18796.187,0.234,0.948,0.192,-5.37,-4.7,3.75,4,1
18796.187,0.23,0.933,0.178,-6.71,-2.04,3.48,4,1
18796.218,0.214,0.91,0.206,-2.32,2.72,1.92,4,1
18796.218,0.212,0.914,0.218,0.4,3.66,1.34,4,1
18796.234,0.211,0.923,0.215,1.83,3.75,0.89,4,1
18796.234,0.212,0.924,0.22,1.56,3.3,0.55,4,1
18796.25,0.206,0.934,0.233,1.22,2.53,0.34,4,1
18796.265,0.204,0.936,0.229,0.4,1.25,0.73,4,1
18796.265,0.208,0.926,0.225,-1.16,-0.27,1.53,4,1
18796.281,0.217,0.92,0.219,-2.14,-0.76,2.08,4,1
18796.296,0.22,0.919,0.211,-2.14,-0.34,2.66,4,1
18796.296,0.218,0.912,0.204,-2.59,0.58,3.36,4,1
18796.312,0.225,0.911,0.2,-4.06,1.68,4.33,4,1
18796.328,0.225,0.908,0.203,-5.89,3.2,5.07,4,1
18796.328,0.221,0.897,0.21,-6.96,4.82,5.8,4,1
18796.343,0.22,0.892,0.215,-6.26,6.16,6.71,4,1
18796.359,0.221,0.886,0.216,-4.88,7.2,7.42,4,1
18796.359,0.218,0.884,0.217,-4.0,7.93,7.57,4,1
18796.375,0.209,0.879,0.226,-3.78,7.97,7.14,4,1
18796.375,0.214,0.881,0.234,-3.88,6.71,6.59,4,1
18796.39,0.214,0.879,0.24,-3.78,5.22,5.95,4,1
18796.406,0.22,0.868,0.242,-3.27,4.24,5.65,4,1
18796.406,0.222,0.868,0.231,-2.11,4.46,4.73,4,1
18796.421,0.209,0.848,0.223,-1.19,5.83,4.49,4,1
18796.437,0.223,0.848,0.226,-0.58,7.2,4.58,4,1
18796.437,0.208,0.849,0.222,1.4,9.83,4.09,4,1
18796.453,0.199,0.845,0.218,2.56,12.3,4.79,4,1
18796.468,0.2,0.857,0.21,3.42,14.22,5.83,4,1
18796.468,0.206,0.854,0.203,3.39,16.33,7.02,4,1
18796.484,0.208,0.857,0.203,4.97,19.26,7.32,4,1
18796.484,0.17,0.858,0.199,9.4,23.65,7.87,4,1
18796.5,0.153,0.851,0.205,13.49,26.89,10.28,4,1
18796.515,0.149,0.858,0.215,17.76,30.58,12.48,4,1
18796.515,0.128,0.841,0.231,23.38,36.56,13.89,4,1
18796.531,0.101,0.823,0.249,31.5,44.28,13.49,4,1
18796.546,0.047,0.793,0.237,43.15,53.32,10.93,4,1
18796.546,0.01,0.752,0.203,53.77,60.61,7.6,4,1
18796.562,0.005,0.722,0.148,65.65,65.92,1.71,4,1
18796.578,0.031,0.7,0.101,82.49,73.06,-6.78,4,1
18796.578,0.058,0.717,0.066,104.65,85.36,-18.86,4,1
18796.593,0.029,0.76,0.055,132.91,105.93,-34.49,4,1
18796.593,-0.08,0.777,0.05,166.66,134.16,-50.69,4,1
18796.609,-0.221,0.794,0.036,198.86,164.22,-61.22,4,1
18796.625,-0.37,0.851,0.022,223.58,192.75,-64.33,4,1
18796.64,-0.51,0.924,0.017,233.8,216.13,-60.64,4,1
18796.64,-0.616,0.976,0.028,225.26,230.6,-50.29,4,1
18796.656,-0.661,1.006,0.033,198.74,235.3,-34.85,4,1
18796.656,-0.63,1.011,0.052,159.76,233.47,-17.24,4,1
18796.671,-0.57,0.978,0.047,111.88,228.52,0.31,4,1
18796.687,-0.543,0.926,0.06,57.59,223.49,19.01,4,1
18796.687,-0.466,0.849,0.078,4.76,220.5,35.4,4,1
18796.703,-0.415,0.746,0.088,-41.57,220.01,46.21,4,1
18796.718,-0.299,0.579,0.141,-109.87,226.69,52.22,4,1
18796.734,-0.248,0.515,0.167,-129.43,228.4,50.2,4,1
18796.75,-0.216,0.484,0.195,-140.02,227.88,46.6,4,1
18796.75,-0.177,0.443,0.226,-144.08,224.95,41.93,4,1
18796.765,-0.129,0.393,0.258,-144.32,222.63,35.46,4,1
18796.781,-0.123,0.368,0.296,-141.48,217.54,24.99,4,1
18796.781,-0.082,0.341,0.329,-134.62,209.27,10.56,4,1
18796.796,-0.015,0.324,0.355,-125.49,199.04,-7.29,4,1
18796.796,0.002,0.306,0.379,-113.04,190.22,-28.47,4,1
18796.812,-0.007,0.274,0.399,-96.99,179.6,-49.26,4,1
18796.828,-0.014,0.276,0.409,-75.66,165.78,-68.12,4,1
18796.828,-0.014,0.32,0.403,-48.49,151.1,-85.63,4,1
18796.843,-0.045,0.408,0.394,-19.68,138.55,-103.31,4,1
18796.859,-0.082,0.536,0.394,4.94,128.67,-121.1,4,1
18796.859,-0.096,0.663,0.389,23.29,120.52,-137.33,4,1
18796.875,-0.123,0.773,0.389,36.01,115.05,-150.43,4,1
18796.89,-0.187,0.859,0.413,44.47,111.18,-160.16,4,1
18796.89,-0.277,0.908,0.449,52.22,101.72,-166.69,4,1
18796.906,-0.359,0.936,0.472,62.78,79.62,-170.14,4,1
18796.906,-0.383,0.991,0.461,76.97,46.85,-171.36,4,1
18796.921,-0.38,1.066,0.42,94.85,9.49,-171.73,4,1
18796.937,-0.378,1.132,0.329,113.22,-26.86,-171.39,4,1
18796.953,-0.357,1.226,0.254,125.0,-55.57,-169.84,4,1
18796.953,-0.334,1.328,0.18,129.61,-73.21,-169.99,4,1
18796.968,-0.311,1.414,0.129,129.06,-80.32,-172.58,4,1
18796.968,-0.285,1.476,0.104,125.25,-77.88,-174.54,4,1
18796.984,-0.282,1.526,0.093,120.67,-69.34,-174.96,4,1
18796.984,-0.306,1.588,0.07,116.52,-60.09,-173.28,4,1
18797.0,-0.32,1.698,0.027,109.2,-55.12,-168.22,4,1
18797.015,-0.33,1.832,-0.018,91.65,-53.07,-158.73,4,1
18797.015,-0.336,1.919,-0.034,61.92,-52.8,-146.31,4,1
18797.031,-0.323,1.95,-0.026,24.84,-53.16,-132.05,4,1
18797.046,-0.271,1.882,0.024,-39.83,-45.9,-101.14,4,1
18797.062,-0.248,1.794,0.069,-57.34,-36.38,-85.45,4,1
18797.078,-0.207,1.709,0.135,-64.55,-23.93,-70.53,4,1
18797.078,-0.172,1.631,0.216,-63.97,-6.96,-57.37,4,1
18797.093,-0.171,1.548,0.273,-59.45,11.14,-47.85,4,1
18797.109,-0.17,1.472,0.323,-55.36,26.43,-40.68,4,1
18797.109,-0.187,1.387,0.362,-51.76,37.78,-34.42,4,1
18797.125,-0.215,1.293,0.391,-48.13,42.94,-29.27,4,1
18797.125,-0.244,1.213,0.414,-44.53,41.23,-26.52,4,1
18797.14,-0.264,1.149,0.423,-35.28,23.83,-27.07,4,1
18797.156,-0.281,1.09,0.415,-29.63,10.71,-28.6,4,1
18797.156,-0.295,1.04,0.396,-22.74,-3.39,-29.18,4,1
18797.171,-0.306,1.005,0.36,-15.14,-16.11,-27.99,4,1
18797.187,-0.299,0.965,0.266,-8.21,-24.66,-25.51,4,1
18797.187,-0.289,0.956,0.229,-2.5,-27.77,-24.11,4,1
18797.203,-0.28,0.945,0.2,1.07,-26.8,-23.59,4,1
18797.218,-0.274,0.955,0.189,-2.41,-14.25,-21.97,4,1
18797.234,-0.299,0.956,0.195,-7.32,-7.05,-21.79,4,1
18797.25,-0.329,0.948,0.205,-13.25,-2.56,-21.88,4,1
18797.25,-0.352,0.943,0.215,-19.32,-1.86,-22.25,4,1
18797.265,-0.362,0.94,0.221,-25.48,-3.91,-22.74,4,1
18797.265,-0.368,0.929,0.219,-31.83,-7.9,-23.74,4,1
18797.281,-0.377,0.919,0.212,-39.16,-12.79,-24.11,4,1
18797.296,-0.389,0.914,0.211,-49.04,-18.77,-22.74,4,1
18797.296,-0.387,0.906,0.201,-60.21,-25.06,-18.43,4,1
18797.312,-0.369,0.894,0.195,-71.63,-30.24,-11.75,4,1
18797.328,-0.356,0.879,0.197,-80.87,-33.02,-3.66,4,1
18797.343,-0.357,0.873,0.196,-87.68,-32.47,4.27,4,1
18797.343,-0.355,0.862,0.194,-93.51,-29.48,9.37,4,1
18797.343,-0.352,0.833,0.211,-98.09,-24.93,11.87,4,1
18797.359,-0.357,0.809,0.242,-100.01,-19.23,12.79,4,1
18797.375,-0.36,0.781,0.269,-99.55,-14.16,13.15,4,1
18797.375,-0.366,0.756,0.282,-98.42,-10.96,13.31,4,1
18797.39,-0.37,0.729,0.301,-99.4,-10.86,12.85,4,1
18797.406,-0.363,0.71,0.318,-103.49,-13.7,12.48,4,1
18797.421,-0.357,0.707,0.326,-110.9,-17.15,11.6,4,1
18797.421,-0.351,0.693,0.326,-121.34,-19.56,9.86,4,1
18797.437,-0.344,0.669,0.327,-133.92,-19.32,6.99,4,1
18797.437,-0.351,0.656,0.344,-145.82,-15.44,3.42,4,1
18797.453,-0.372,0.631,0.371,-152.71,-9.83,2.53,4,1
18797.468,-0.412,0.607,0.407,-151.46,-5.13,5.4,4,1
18797.468,-0.445,0.592,0.465,-143.56,-4.3,10.35,4,1
18797.484,-0.454,0.577,0.487,-131.9,-6.32,14.25,4,1
18797.5,-0.47,0.571,0.506,-122.23,-10.38,16.02,4,1
18797.5,-0.472,0.564,0.53,-113.93,-16.27,17.43,4,1
18797.515,-0.481,0.58,0.565,-104.92,-21.03,19.81,4,1
18797.515,-0.507,0.594,0.587,-93.23,-24.78,25.18,4,1
18797.531,-0.522,0.606,0.606,-79.65,-26.98,33.36,4,1
18797.546,-0.538,0.607,0.639,-50.05,-23.87,49.84,4,1
18797.562,-0.551,0.614,0.643,-39.77,-20.72,54.63,4,1
18797.578,-0.56,0.637,0.641,-35.37,-18.13,57.37,4,1
18797.578,-0.578,0.649,0.652,-39.16,-18.1,57.56,4,1
18797.593,-0.591,0.632,0.66,-49.29,-22.92,55.73,4,1
18797.609,-0.582,0.611,0.663,-62.75,-30.43,53.19,4,1
18797.609,-0.559,0.58,0.664,-75.17,-37.87,50.78,4,1
18797.625,-0.533,0.536,0.659,-83.53,-43.03,48.71,4,1
18797.625,-0.501,0.488,0.641,-86.49,-42.57,47.94,4,1
18797.64,-0.485,0.464,0.617,-83.32,-35.68,48.55,4,1
18797.656,-0.482,0.479,0.609,-78.19,-27.65,48.19,4,1
18797.656,-0.48,0.492,0.613,-73.95,-19.9,46.91,4,1
18797.671,-0.498,0.521,0.64,-71.96,-12.63,44.74,4,1
18797.687,-0.531,0.558,0.673,-71.63,-7.11,43.28,4,1
18797.687,-0.57,0.57,0.704,-71.11,-5.16,42.91,4,1
18797.703,-0.598,0.575,0.734,-69.37,-6.9,44.71,4,1
18797.718,-0.597,0.551,0.736,-63.17,-16.11,50.72,4,1
18797.734,-0.57,0.527,0.71,-61.1,-19.62,51.3,4,1
18797.734,-0.54,0.492,0.679,-59.02,-19.56,49.07,4,1
18797.75,-0.514,0.461,0.656,-55.82,-15.41,44.71,4,1
18797.765,-0.494,0.442,0.657,-50.57,-8.7,39.43,4,1
18797.765,-0.485,0.434,0.68,-42.3,-1.25,34.49,4,1
18797.781,-0.49,0.448,0.728,-32.04,5.71,30.95,4,1
18797.796,-0.521,0.48,0.761,-21.52,10.5,29.66,4,1
18797.796,-0.537,0.504,0.791,-16.42,10.56,30.43,4,1
18797.812,-0.527,0.537,0.832,-20.2,5.86,31.86,4,1
18797.828,-0.496,0.548,0.843,-28.6,-1.34,32.72,4,1
18797.828,-0.458,0.521,0.833,-36.59,-7.29,32.9,4,1
18797.843,-0.424,0.493,0.831,-41.96,-9.95,32.59,4,1
18797.859,-0.395,0.472,0.845,-43.58,-9.74,31.34,4,1
18797.859,-0.394,0.458,0.867,-42.48,-9.19,28.87,4,1
18797.875,-0.415,0.452,0.896,-41.14,-11.23,25.51,4,1
18797.875,-0.421,0.449,0.915,-41.44,-18.31,21.7,4,1
18797.89,-0.403,0.449,0.926,-43.09,-27.25,17.09,4,1
18797.906,-0.378,0.453,0.922,-44.01,-34.12,12.76,4,1
18797.921,-0.342,0.415,0.892,-40.93,-38.24,9.31,4,1
18797.921,-0.307,0.391,0.857,-33.2,-37.29,6.2,4,1
18797.937,-0.283,0.402,0.83,-21.91,-30.67,2.26,4,1
18797.937,-0.28,0.391,0.814,-9.25,-22.13,-3.39,4,1
18797.953,-0.299,0.373,0.815,2.11,-14.13,-10.77,4,1
18797.968,-0.35,0.41,0.837,11.29,-8.51,-17.18,4,1
18797.968,-0.405,0.477,0.904,17.73,-9.22,-19.47,4,1
18797.984,-0.399,0.543,0.95,20.14,-17.27,-17.3,4,1
18797.984,-0.295,0.482,0.888,27.5,-24.26,-11.08,4,1
18798.0,-0.449,0.509,0.914,30.27,-21.58,-10.44,4,1
18798.015,-0.366,0.64,0.955,13.49,-29.63,-3.08,4,1
18798.015,-0.286,0.508,0.875,12.79,-36.41,2.38,4,1
18798.031,-0.292,0.463,0.819,11.54,-31.43,2.32,4,1
18798.046,-0.257,0.497,0.814,7.63,-24.63,2.47,4,1
18798.062,-0.254,0.484,0.807,8.85,-17.61,-0.24,4,1
18798.062,-0.267,0.511,0.816,9.83,-10.5,-2.78,4,1
18798.078,-0.275,0.573,0.864,9.86,-5.25,-3.72,4,1
18798.078,-0.296,0.594,0.89,13.03,-2.44,-3.08,4,1
18798.093,-0.301,0.585,0.894,15.78,-2.84,0.34,4,1
18798.109,-0.288,0.564,0.882,16.69,-4.7,3.69,4,1
18798.109,-0.279,0.537,0.859,16.27,-6.9,4.24,4,1
18798.125,-0.273,0.51,0.843,14.22,-8.76,2.75,4,1
18798.125,-0.267,0.496,0.824,12.27,-11.51,-0.4,4,1
18798.14,-0.249,0.485,0.804,11.81,-10.9,-1.16,4,1
18798.156,-0.26,0.493,0.816,7.54,-11.84,0.12,4,1
18798.171,-0.14,0.447,0.752,6.99,-10.01,2.17,4,1
18798.171,-0.211,0.428,0.737,7.39,-1.34,-3.23,4,1
18798.187,-0.206,0.472,0.784,5.65,5.01,-3.94,4,1
18798.187,-0.222,0.451,0.783,9.95,8.36,-5.1,4,1
18798.203,-0.247,0.468,0.799,12.88,10.96,-5.74,4,1
18798.218,-0.272,0.516,0.833,14.44,11.11,-5.68,4,1
18798.218,-0.289,0.519,0.842,14.44,7.42,-5.31,4,1
18798.234,-0.279,0.524,0.834,10.8,2.53,-4.33,4,1
18798.234,-0.264,0.524,0.827,6.62,-1.01,-3.14,4,1
18798.25,-0.253,0.511,0.802,2.53,-2.53,-2.47,4,1
18798.265,-0.236,0.489,0.79,0.31,-2.69,-1.34,4,1
18798.265,-0.219,0.51,0.798,-2.66,-1.13,0.27,4,1
18798.281,-0.216,0.503,0.799,-4.12,0.89,1.37,4,1
18798.296,-0.23,0.479,0.802,-3.48,2.81,2.2,4,1
18798.296,-0.235,0.481,0.805,-1.98,3.78,3.11,4,1
18798.312,-0.23,0.481,0.807,-0.89,3.57,2.56,4,1
18798.328,-0.218,0.466,0.808,-0.18,2.81,0.82,4,1
18798.328,-0.21,0.443,0.798,2.29,3.36,-1.53,4,1
18798.343,-0.204,0.429,0.782,7.35,6.04,-3.57,4,1
18798.359,-0.203,0.435,0.781,14.53,10.38,-5.04,4,1
18798.359,-0.22,0.449,0.778,22.77,15.02,-6.47,4,1
18798.375,-0.243,0.474,0.79,26.67,17.98,-8.18,4,1
18798.375,-0.266,0.495,0.806,26.64,18.65,-10.28,4,1
18798.39,-0.304,0.526,0.824,24.29,16.88,-11.69,4,1
18798.406,-0.338,0.595,0.861,17.91,12.21,-10.13,4,1
18798.406,-0.352,0.641,0.863,8.03,4.55,-5.8,4,1
18798.421,-0.319,0.624,0.835,-3.57,-4.0,-0.73,4,1
18798.437,-0.274,0.587,0.794,-12.15,-7.97,2.66,4,1
18798.437,-0.26,0.553,0.768,-15.63,-6.29,3.57,4,1
18798.453,-0.251,0.534,0.768,-16.17,-2.84,3.39,4,1
18798.468,-0.254,0.519,0.783,-13.06,0.46,1.8,4,1
18798.468,-0.271,0.515,0.793,-7.48,2.9,-0.34,4,1
18798.484,-0.272,0.495,0.795,-1.86,3.48,-2.29,4,1
18798.484,-0.291,0.505,0.841,-0.85,2.35,-5.83,4,1
18798.5,-0.307,0.514,0.84,3.81,-0.7,-5.62,4,1
18798.515,-0.307,0.505,0.827,9.95,-4.36,-3.11,4,1
18798.515,-0.289,0.541,0.814,9.89,-7.72,-0.76,4,1
18798.531,-0.265,0.538,0.798,7.75,-9.86,0.98,4,1
18798.546,-0.243,0.516,0.779,4.03,-10.38,2.23,4,1
18798.546,-0.226,0.511,0.769,-0.46,-9.34,3.6,4,1
18798.562,-0.216,0.496,0.771,-4.06,-7.32,3.81,4,1
18798.578,-0.207,0.476,0.777,-5.71,-5.31,2.59,4,1
18798.578,-0.21,0.472,0.788,-4.79,-3.6,-0.03,4,1
18798.593,-0.212,0.471,0.803,-2.56,-3.72,-2.99,4,1
18798.609,-0.203,0.478,0.811,-0.7,-5.89,-5.37,4,1
18798.609,-0.193,0.49,0.818,0.92,-7.93,-7.08,4,1
18798.625,-0.18,0.506,0.809,0.82,-8.88,-7.51,4,1
18798.625,-0.156,0.495,0.787,0.73,-7.51,-6.74,4,1
18798.64,-0.16,0.501,0.8,2.08,-3.66,-5.49,4,1
18798.656,-0.183,0.53,0.8,3.63,-0.06,-4.0,4,1
18798.656,-0.198,0.551,0.796,3.08,1.89,-2.62,4,1
18798.671,-0.209,0.554,0.797,0.06,2.08,-2.23,4,1
18798.687,-0.204,0.548,0.786,-4.82,1.5,-2.66,4,1
18798.703,-0.187,0.538,0.763,-9.61,2.47,-4.09,4,1
18798.703,-0.177,0.503,0.734,-11.54,7.05,-6.04,4,1
18798.718,-0.183,0.483,0.718,-10.32,14.89,-7.9,4,1
18798.718,-0.198,0.488,0.708,-6.81,24.14,-9.37,4,1
18798.75,-0.261,0.474,0.688,-5.49,42.02,-12.85,4,1
18798.75,-0.299,0.464,0.71,-7.48,48.37,-14.16,4,1
18798.765,-0.333,0.467,0.742,-7.05,52.19,-14.16,4,1
18798.765,-0.348,0.462,0.739,-2.41,54.99,-12.73,4,1
18798.781,-0.361,0.458,0.729,3.08,58.2,-12.27,4,1
18798.796,-0.436,0.481,0.743,5.04,61.56,-14.07,4,1
18798.796,-0.568,0.572,0.845,-6.07,55.6,-17.61,4,1
18798.812,-0.565,0.671,0.965,-27.19,36.41,-15.5,4,1
18798.828,-0.639,0.657,0.991,-34.94,15.44,-8.58,4,1
18798.828,-0.517,0.662,0.992,-47.43,-8.03,5.92,4,1
18798.843,-0.384,0.533,0.916,-47.36,-22.92,16.39,4,1
18798.859,-0.402,0.438,0.835,-39.92,-24.69,15.72,4,1
18798.859,-0.384,0.425,0.809,-35.25,-23.99,14.53,4,1
18798.875,-0.381,0.405,0.797,-27.89,-22.55,10.53,4,1
18798.89,-0.403,0.397,0.788,-19.65,-22.74,5.22,4,1
18798.89,-0.398,0.403,0.798,-10.65,-24.41,3.45,4,1
18798.906,-0.38,0.441,0.788,1.46,-25.21,5.13,4,1
18798.921,-0.277,0.425,0.772,9.16,-25.94,8.67,4,1
18798.921,-0.299,0.416,0.743,8.67,-22.71,1.92,4,1
18798.937,-0.281,0.432,0.735,6.1,-18.13,-1.4,4,1
18798.937,-0.288,0.427,0.715,4.76,-11.54,-3.81,4,1
18798.953,-0.298,0.426,0.705,-0.43,-5.01,-7.05,4,1
18798.968,-0.288,0.419,0.705,-4.24,2.75,-9.8,4,1
18798.968,-0.305,0.412,0.701,-4.91,11.57,-13.55,4,1
18798.984,-0.345,0.428,0.728,-4.88,18.65,-17.03,4,1
18799.0,-0.383,0.472,0.781,-4.21,22.19,-17.79,4,1
18799.0,-0.384,0.507,0.815,-2.69,22.31,-15.9,4,1
18799.015,-0.38,0.55,0.865,-2.35,20.39,-12.73,4,1
18799.015,-0.343,0.541,0.884,-1.5,17.4,-8.85,4,1
18799.031,-0.365,0.51,0.859,-1.56,15.5,-8.48,4,1
18799.046,-0.491,0.561,0.963,-4.97,10.99,-6.99,4,1
18799.046,-0.41,0.541,0.949,-11.96,-5.07,0.92,4,1
18799.062,-0.377,0.485,0.875,-13.92,-15.56,3.75,4,1
18799.078,-0.365,0.437,0.829,-14.71,-19.9,4.06,4,1
18799.078,-0.383,0.445,0.836,-14.68,-22.8,3.14,4,1
18799.093,-0.339,0.423,0.788,-14.89,-26.95,3.51,4,1
18799.109,-0.211,0.334,0.674,-16.36,-27.1,0.61,4,1
18799.109,-0.224,0.274,0.721,-3.69,-3.81,-14.37,4,1
18799.125,-0.287,0.371,0.741,13.92,5.04,-9.64,4,1
18799.125,-0.269,0.367,0.696,21.55,15.02,-10.77,4,1
18799.14,-0.272,0.371,0.697,23.1,23.8,-14.34,4,1
18799.156,-0.356,0.47,0.764,21.67,27.8,-15.9,4,1
18799.156,-0.368,0.508,0.828,17.64,27.92,-17.06,4,1
18799.171,-0.558,0.62,0.963,19.38,24.87,-14.5,4,1
18799.187,-0.527,0.62,0.983,13.52,4.12,-1.04,4,1
18799.187,-0.376,0.591,0.886,-3.78,-18.25,6.38,4,1
18799.203,-0.355,0.496,0.831,-12.7,-22.74,6.99,4,1
18799.218,-0.398,0.453,0.829,-17.7,-25.15,6.2,4,1
18799.218,-0.408,0.453,0.84,-18.52,-30.18,7.05,4,1
18799.234,-0.292,0.38,0.749,-17.0,-34.46,8.88,4,1
18799.234,-0.186,0.287,0.672,-14.62,-27.86,2.96,4,1
18799.25,-0.229,0.284,0.692,-7.51,-10.83,-7.72,4,1
18799.265,-0.208,0.323,0.656,7.35,3.69,-12.79,4,1
18799.265,-0.225,0.385,0.651,24.23,20.66,-15.44,4,1
18799.281,-0.32,0.41,0.694,37.69,36.65,-17.06,4,1
18799.296,-0.372,0.475,0.805,30.61,41.17,-19.26,4,1
18799.296,-0.586,0.691,0.982,17.37,35.07,-18.4,4,1
18799.312,-0.555,0.658,1.033,2.47,11.44,-1.83,4,1
18799.328,-0.379,0.577,0.929,-21.45,-16.57,8.73,4,1
18799.328,-0.358,0.459,0.874,-29.94,-23.16,9.22,4,1
18799.343,-0.388,0.402,0.848,-28.96,-26.52,7.23,4,1
18799.343,-0.377,0.38,0.838,-21.67,-30.4,6.35,4,1
18799.359,-0.38,0.402,0.82,-11.93,-32.69,5.89,4,1
18799.375,-0.242,0.341,0.729,-6.9,-32.81,6.07,4,1
18799.375,-0.16,0.339,0.679,-1.62,-21.33,-2.47,4,1
18799.39,-0.209,0.361,0.694,10.5,0.67,-10.04,4,1
18799.406,-0.252,0.405,0.717,20.57,17.52,-13.4,4,1
18799.406,-0.347,0.465,0.808,25.33,29.82,-14.34,4,1
18799.421,-0.393,0.548,0.902,18.92,31.1,-12.79,4,1
18799.437,-0.415,0.55,0.918,8.64,25.39,-11.44,4,1
18799.437,-0.57,0.587,1.013,4.06,16.85,-6.99,4,1
18799.453,-0.519,0.55,0.995,-2.41,-4.46,3.78,4,1
18799.468,-0.475,0.518,0.951,-8.18,-23.26,6.87,4,1
18799.468,-0.526,0.495,0.916,-6.65,-34.76,8.48,4,1
18799.484,-0.399,0.419,0.806,-9.74,-46.75,10.65,4,1
18799.484,-0.411,0.409,0.726,-12.67,-47.36,0.37,4,1
18799.5,-0.449,0.414,0.792,-6.16,-42.7,-2.72,4,1
18799.515,-0.421,0.444,0.828,-3.08,-44.56,-2.35,4,1
18799.515,-0.436,0.45,0.814,-4.46,-49.1,-6.59,4,1
18799.531,-0.424,0.424,0.808,-4.82,-53.38,-8.18,4,1
18799.546,-0.395,0.413,0.819,-0.64,-57.99,-8.0,4,1
18799.546,-0.372,0.408,0.798,6.26,-61.65,-7.6,4,1
18799.562,-0.313,0.406,0.77,10.9,-63.39,-4.94,4,1
18799.578,-0.196,0.408,0.699,17.21,-50.48,-1.59,4,1
18799.593,-0.162,0.394,0.673,18.28,-38.09,-1.86,4,1
18799.593,-0.136,0.371,0.662,18.49,-24.54,-3.48,4,1
18799.609,-0.126,0.375,0.663,20.36,-10.25,-5.43,4,1
18799.625,-0.132,0.397,0.675,21.15,3.54,-7.6,4,1
18799.64,-0.142,0.407,0.718,17.46,14.31,-10.59,4,1
18799.64,-0.163,0.41,0.752,10.74,21.49,-14.25,4,1
18799.656,-0.198,0.417,0.811,2.62,24.81,-16.82,4,1
18799.656,-0.237,0.454,0.885,-3.72,23.13,-15.14,4,1
18799.671,-0.219,0.511,0.927,-8.97,18.16,-9.16,4,1
18799.687,-0.214,0.487,0.918,-7.39,14.25,-2.08,4,1
18799.687,-0.219,0.494,0.914,-5.04,12.21,4.73,4,1
18799.703,-0.189,0.515,0.908,-3.27,10.86,10.25,4,1
18799.718,-0.189,0.499,0.901,-1.86,12.21,11.26,4,1
18799.718,-0.209,0.488,0.919,-2.32,13.79,9.8,4,1
18799.734,-0.232,0.49,0.954,-1.65,13.61,7.97,4,1
18799.75,-0.233,0.439,0.919,12.02,10.01,4.39,4,1
18799.765,-0.158,0.418,0.86,24.63,13.82,2.66,4,1
18799.765,-0.315,0.37,0.877,41.26,22.68,-4.61,4,1
18799.781,-0.385,0.525,0.964,38.73,20.75,-6.74,4,1
18799.796,-0.319,0.532,0.929,39.89,11.44,-2.41,4,1
18799.796,-0.327,0.485,0.859,41.17,7.35,-3.39,4,1
18799.812,-0.315,0.506,0.825,37.11,8.15,-3.36,4,1
18799.828,-0.329,0.538,0.801,35.52,9.31,-4.03,4,1
18799.828,-0.357,0.552,0.792,34.82,9.13,-3.48,4,1
18799.843,-0.376,0.568,0.793,32.9,6.44,-0.76,4,1
18799.843,-0.379,0.571,0.788,30.82,0.89,4.21,4,1
18799.859,-0.388,0.578,0.773,27.53,-5.74,10.56,4,1
18799.875,-0.401,0.571,0.754,17.82,-13.79,16.88,4,1
18799.89,-0.4,0.573,0.768,-2.44,-24.2,21.18,4,1
18799.89,-0.298,0.601,0.687,-24.05,-35.04,23.93,4,1
18799.906,-0.179,0.462,0.738,-38.61,-36.01,23.93,4,1
18799.921,-0.16,0.457,0.733,-46.91,-23.62,23.32,4,1
18799.937,-0.154,0.358,0.725,-33.45,-14.77,21.27,4,1
18799.937,-0.144,0.375,0.738,-20.17,-4.91,17.15,4,1
18799.953,-0.153,0.382,0.739,-1.5,4.61,11.9,4,1
18799.968,-0.169,0.367,0.739,15.87,12.05,5.19,4,1
18799.968,-0.179,0.379,0.73,28.72,18.43,-2.41,4,1
18799.984,-0.186,0.408,0.721,37.78,24.9,-9.52,4,1
18799.984,-0.211,0.435,0.711,43.82,30.98,-15.53,4,1
18800.0,-0.261,0.474,0.72,46.82,35.68,-20.29,4,1
18800.015,-0.307,0.506,0.742,44.53,36.13,-22.98,4,1
18800.015,-0.349,0.522,0.76,37.26,31.89,-23.41,4,1
18800.031,-0.385,0.584,0.83,21.67,22.71,-21.49,4,1
18800.046,-0.33,0.626,0.835,4.73,12.3,-15.56,4,1
18800.046,-0.245,0.536,0.764,-0.49,8.64,-11.32,4,1
18800.062,-0.277,0.391,0.728,5.04,16.48,-11.38,4,1
18800.078,-0.47,0.535,0.839,-2.01,20.48,-18.19,4,1
18800.093,-0.429,0.612,0.947,5.46,-4.21,-3.6,4,1
18800.109,-0.396,0.615,0.892,5.83,-6.71,1.74,4,1
18800.109,-0.33,0.64,0.842,9.4,-3.33,3.17,4,1
18800.125,-0.342,0.584,0.808,10.19,-1.53,4.0,4,1
18800.125,-0.384,0.553,0.784,8.45,-3.08,5.13,4,1
18800.14,-0.388,0.524,0.769,6.01,-6.29,5.65,4,1
18800.156,-0.408,0.517,0.765,2.2,-10.65,5.62,4,1
18800.156,-0.416,0.532,0.798,-2.41,-16.69,6.2,4,1
18800.171,-0.427,0.57,0.819,-6.41,-24.41,8.64,4,1
18800.187,-0.272,0.53,0.761,-8.58,-31.22,13.89,4,1
18800.187,-0.295,0.451,0.704,-4.91,-26.86,10.41,4,1
18800.203,-0.296,0.487,0.771,-10.35,-22.49,5.25,4,1
18800.218,-0.236,0.489,0.8,-14.22,-22.46,0.37,4,1
18800.218,-0.239,0.427,0.755,-1.89,-16.75,-1.74,4,1
18800.234,-0.237,0.436,0.741,11.26,-8.48,-3.23,4,1
18800.234,-0.245,0.472,0.741,20.91,-2.26,-7.2,4,1
18800.265,-0.31,0.528,0.774,27.01,0.46,-14.13,4,1
18800.265,-0.33,0.553,0.784,24.11,-3.72,-14.71,4,1
18800.281,-0.312,0.565,0.785,18.34,-9.13,-12.85,4,1
18800.296,-0.274,0.576,0.778,11.75,-12.7,-9.92,4,1
18800.296,-0.255,0.575,0.762,6.99,-12.51,-6.99,4,1
18800.312,-0.245,0.571,0.746,2.9,-9.74,-3.97,4,1
18800.328,-0.233,0.561,0.739,0.03,-5.37,-1.62,4,1
18800.328,-0.229,0.548,0.737,-0.7,0.31,-0.73,4,1
18800.343,-0.234,0.539,0.748,0.55,6.68,-1.31,4,1
18800.343,-0.268,0.55,0.784,3.97,12.57,-2.72,4,1
18800.359,-0.309,0.576,0.822,8.61,16.02,-3.54,4,1
18800.375,-0.343,0.6,0.855,12.45,15.81,-3.17,4,1
18800.375,-0.359,0.626,0.881,14.65,12.88,-2.2,4,1
18800.39,-0.368,0.657,0.905,15.9,9.06,-1.28,4,1
18800.406,-0.374,0.682,0.933,17.64,6.44,0.03,4,1
18800.406,-0.392,0.706,0.966,20.72,5.49,1.83,4,1
18800.437,-0.437,0.724,1.02,32.87,9.34,7.26,4,1
18800.437,-0.465,0.718,1.027,42.82,12.36,9.92,4,1
18800.453,-0.511,0.722,1.029,55.24,14.44,11.78,4,1
18800.453,-0.599,0.74,1.032,65.8,12.82,12.33,4,1
18800.468,-0.658,0.767,1.062,67.08,0.37,12.7,4,1
18800.484,-0.633,0.773,1.082,62.9,-18.65,12.24,4,1
18800.5,-0.614,0.758,1.077,59.88,-34.76,9.52,4,1
18800.5,-0.6,0.73,1.053,60.4,-44.34,6.56,4,1
18800.515,-0.583,0.7,1.031,67.87,-48.68,5.04,4,1
18800.515,-0.574,0.693,1.012,81.27,-49.26,3.66,4,1
18800.531,-0.568,0.697,1.004,97.42,-47.73,0.82,4,1
18800.546,-0.581,0.689,0.984,116.12,-45.17,-2.87,4,1
18800.546,-0.617,0.66,0.948,136.08,-45.44,-4.21,4,1
18800.562,-0.594,0.716,0.945,156.65,-47.03,-5.19,4,1
18800.578,-0.652,0.761,0.925,176.34,-47.76,-10.07,4,1
18800.578,-0.674,0.798,0.915,185.4,-57.74,-13.86,4,1
18800.593,-0.674,0.853,0.903,187.87,-72.15,-17.55,4,1
18800.593,-0.647,0.87,0.881,189.55,-86.21,-19.71,4,1
18800.609,-0.611,0.86,0.829,192.54,-98.7,-19.65,4,1
18800.625,-0.565,0.854,0.766,199.44,-107.85,-17.12,4,1
18800.625,-0.518,0.846,0.686,210.76,-112.37,-13.03,4,1
18800.64,-0.476,0.846,0.6,221.5,-113.47,-8.24,4,1
18800.656,-0.456,0.88,0.559,226.72,-112.8,-4.46,4,1
18800.656,-0.458,0.911,0.537,229.5,-113.13,-2.29,4,1
18800.671,-0.466,0.936,0.514,230.69,-117.19,0.79,4,1
18800.687,-0.462,0.985,0.465,228.31,-125.46,5.52,4,1
18800.687,-0.421,0.99,0.4,220.37,-136.57,10.47,4,1
18800.703,-0.375,0.962,0.36,210.09,-146.7,14.83,4,1
18800.718,-0.322,0.946,0.309,202.7,-152.47,17.76,4,1
18800.718,-0.27,0.953,0.251,199.62,-154.36,20.05,4,1
18800.734,-0.214,0.92,0.207,200.38,-149.85,22.03,4,1
18800.75,-0.2,0.868,0.151,204.26,-141.94,25.51,4,1
18800.75,-0.201,0.878,0.091,205.39,-134.71,33.66,4,1
18800.765,-0.2,0.939,0.067,200.29,-131.38,41.02,4,1
18800.781,-0.179,0.906,0.01,190.92,-133.98,46.42,4,1
18800.781,-0.18,0.892,-0.018,172.22,-136.66,52.25,4,1
18800.796,-0.171,0.893,-0.035,152.68,-140.81,56.37,4,1
18800.812,-0.155,0.858,-0.069,135.01,-146.18,62.96,4,1
18800.812,-0.139,0.846,-0.086,115.6,-148.72,70.71,4,1
18800.828,-0.115,0.825,-0.116,97.99,-150.4,75.84,4,1
18800.828,-0.108,0.814,-0.14,83.5,-151.4,77.91,4,1
18800.843,-0.089,0.794,-0.17,73.55,-153.02,78.43,4,1
18800.843,-0.074,0.788,-0.199,66.5,-153.45,77.43,4,1
18800.875,-0.079,0.773,-0.206,62.44,-153.29,76.33,4,1
18800.875,-0.08,0.741,-0.214,60.67,-155.34,77.12,4,1
18800.89,-0.069,0.71,-0.245,58.32,-157.44,79.38,4,1
18800.89,-0.083,0.665,-0.284,54.05,-157.14,83.56,4,1
18800.906,-0.091,0.62,-0.316,47.76,-156.47,88.02,4,1
18800.906,-0.07,0.563,-0.344,38.27,-154.45,93.63,4,1
18800.937,-0.036,0.491,-0.39,17.3,-138.83,102.57,4,1
18800.937,-0.013,0.477,-0.415,5.1,-127.96,103.85,4,1
18800.953,0.004,0.513,-0.416,-8.7,-117.28,99.92,4,1
18800.968,0.012,0.534,-0.398,-16.88,-109.1,92.07,4,1
18800.968,0.023,0.561,-0.381,-16.42,-102.42,81.45,4,1
18800.984,0.038,0.606,-0.373,-9.61,-97.75,68.54,4,1
18800.984,0.047,0.665,-0.383,0.92,-93.97,55.79,4,1
18801.0,0.073,0.71,-0.404,12.82,-90.21,45.72,4,1
18801.015,0.106,0.766,-0.42,21.94,-85.15,39.09,4,1
18801.015,0.145,0.825,-0.431,25.85,-79.41,35.04,4,1
18801.031,0.17,0.874,-0.422,22.95,-74.28,33.42,4,1
18801.046,0.199,0.894,-0.409,15.59,-69.7,34.03,4,1
18801.046,0.24,0.905,-0.377,6.56,-65.28,36.87,4,1
18801.062,0.247,0.936,-0.338,-0.12,-60.15,40.68,4,1
18801.078,0.244,0.944,-0.302,-3.63,-56.58,45.56,4,1
18801.078,0.259,0.95,-0.273,-5.13,-56.12,55.33,4,1
18801.093,0.286,0.953,-0.25,-4.21,-56.18,58.66,4,1
18801.109,0.303,0.941,-0.23,-3.97,-57.59,61.71,4,1
18801.109,0.294,0.912,-0.181,-2.14,-60.58,64.27,4,1
18801.125,0.292,0.891,-0.18,-0.61,-63.97,66.47,4,1
18801.125,0.283,0.881,-0.182,0.15,-67.63,67.35,4,1
18801.14,0.265,0.877,-0.183,0.27,-70.62,68.18,4,1
18801.156,0.235,0.88,-0.18,-0.95,-74.16,69.83,4,1
18801.156,0.224,0.871,-0.177,-4.76,-80.69,72.54,4,1
18801.171,0.21,0.853,-0.176,-10.25,-88.41,74.98,4,1
18801.187,0.199,0.838,-0.186,-12.67,-94.61,76.48,4,1
18801.187,0.203,0.818,-0.21,-11.99,-99.86,78.07,4,1
18801.203,0.21,0.795,-0.241,-11.11,-103.67,78.95,4,1
18801.218,0.225,0.777,-0.28,-11.87,-105.9,78.19,4,1
18801.218,0.199,0.728,-0.3,-14.59,-105.01,77.39,4,1
18801.234,0.27,0.725,-0.318,-15.72,-103.15,76.17,4,1
18801.234,0.274,0.742,-0.351,-15.11,-99.43,67.51,4,1
18801.25,0.256,0.693,-0.365,-18.25,-94.7,60.82,4,1
18801.265,0.251,0.673,-0.366,-21.0,-91.1,54.6,4,1
18801.265,0.248,0.642,-0.357,-19.78,-86.86,49.99,4,1
18801.281,0.264,0.626,-0.376,-14.95,-82.89,45.38,4,1
18801.296,0.271,0.606,-0.403,-10.47,-76.66,40.38,4,1
18801.296,0.287,0.589,-0.42,-9.74,-68.0,36.93,4,1
18801.312,0.314,0.569,-0.424,-12.18,-58.66,33.17,4,1
18801.328,0.336,0.542,-0.422,-15.66,-47.52,30.12,4,1
18801.328,0.369,0.542,-0.412,-19.07,-36.29,27.38,4,1
18801.343,0.403,0.554,-0.386,-22.8,-25.03,22.43,4,1
18801.359,0.411,0.576,-0.35,-25.64,-15.11,14.89,4,1
18801.359,0.402,0.612,-0.301,-26.67,-9.7,4.43,4,1
18801.375,0.392,0.644,-0.255,-24.14,-8.97,-7.48,4,1
18801.375,0.37,0.673,-0.232,-18.01,-11.26,-19.07,4,1
18801.39,0.363,0.742,-0.21,-12.12,-17.7,-31.04,4,1
18801.406,0.349,0.773,-0.208,-1.95,-26.98,-42.54,4,1
18801.406,0.348,0.797,-0.232,9.64,-35.0,-51.79,4,1
18801.437,0.311,0.882,-0.334,27.83,-42.02,-65.1,4,1
18801.453,0.314,0.892,-0.365,29.45,-43.58,-64.36,4,1
18801.453,0.319,0.941,-0.398,31.34,-41.93,-62.62,4,1
18801.468,0.311,0.966,-0.43,32.44,-36.1,-58.5,4,1
18801.468,0.269,0.983,-0.431,29.73,-28.69,-51.7,4,1
18801.484,0.232,1.002,-0.408,23.16,-23.47,-41.6,4,1
18801.484,0.23,1.01,-0.388,14.77,-22.0,-29.6,4,1
18801.5,0.254,1.008,-0.379,6.81,-21.61,-17.88,4,1
18801.515,0.276,0.994,-0.378,0.58,-21.15,-8.73,4,1
18801.531,0.307,0.957,-0.376,-3.3,-19.78,-1.34,4,1
18801.531,0.337,0.932,-0.371,-4.58,-17.15,3.88,4,1
18801.546,0.357,0.901,-0.367,-3.57,-13.92,7.35,4,1
18801.546,0.36,0.878,-0.364,-1.98,-10.62,8.79,4,1
18801.562,0.347,0.85,-0.348,-0.21,-8.12,9.25,4,1
18801.578,0.344,0.853,-0.329,1.95,-7.81,9.83,4,1
18801.578,0.344,0.883,-0.321,3.69,-8.24,8.79,4,1
18801.593,0.33,0.885,-0.319,4.76,-8.64,8.06,4,1
18801.593,0.325,0.899,-0.316,5.22,-9.52,8.21,4,1
18801.609,0.318,0.918,-0.321,6.96,-10.83,8.85,4,1
18801.625,0.309,0.92,-0.333,7.81,-11.38,10.22,4,1
18801.625,0.29,0.928,-0.341,7.39,-11.66,10.68,4,1
18801.64,0.28,0.921,-0.352,8.09,-11.6,9.92,4,1
18801.656,0.266,0.911,-0.362,10.35,-10.59,8.94,4,1
18801.656,0.249,0.908,-0.382,13.18,-8.61,8.58,4,1
18801.671,0.24,0.902,-0.397,14.28,-6.41,8.64,4,1
18801.687,0.242,0.886,-0.41,14.01,-3.51,9.06,4,1
18801.687,0.249,0.868,-0.421,12.79,0.12,10.38,4,1
18801.703,0.255,0.851,-0.42,11.63,4.0,12.45,4,1
18801.718,0.27,0.846,-0.412,10.77,7.48,13.95,4,1
18801.718,0.282,0.847,-0.406,9.06,10.04,13.46,4,1
18801.734,0.286,0.841,-0.405,8.3,10.96,11.32,4,1
18801.75,0.296,0.835,-0.412,9.7,10.74,8.64,4,1
18801.75,0.31,0.836,-0.429,12.24,10.47,4.39,4,1
18801.765,0.315,0.832,-0.443,14.53,10.83,-0.7,4,1
18801.765,0.308,0.829,-0.457,16.45,11.47,-5.46,4,1
18801.781,0.298,0.831,-0.453,17.91,12.36,-8.76,4,1
18801.796,0.296,0.835,-0.436,18.37,13.43,-9.74,4,1
18801.812,0.29,0.83,-0.431,18.68,14.4,-9.0,4,1
18801.812,0.288,0.837,-0.433,18.74,16.02,-6.87,4,1
18801.828,0.284,0.835,-0.429,18.59,18.37,-3.48,4,1
18801.828,0.283,0.844,-0.427,16.79,20.6,-0.27,4,1
18801.843,0.292,0.849,-0.417,13.67,22.83,1.92,4,1
18801.859,0.291,0.845,-0.397,10.13,24.32,3.36,4,1
18801.859,0.292,0.848,-0.375,6.29,24.69,4.21,4,1
18801.875,0.285,0.842,-0.36,4.15,23.87,4.61,4,1
18801.875,0.276,0.84,-0.349,4.15,21.82,5.13,4,1
18801.89,0.276,0.851,-0.343,4.82,18.92,5.28,4,1
18801.906,0.269,0.86,-0.345,4.94,15.35,4.12,4,1
18801.906,0.273,0.853,-0.351,4.73,11.78,2.66,4,1
18801.921,0.282,0.855,-0.358,5.01,9.25,1.8,4,1
18801.937,0.281,0.866,-0.365,5.16,8.06,1.01,4,1
18801.937,0.278,0.872,-0.361,4.0,7.2,0.73,4,1
18801.953,0.274,0.873,-0.355,1.65,6.16,1.25,4,1
18801.968,0.271,0.872,-0.35,0.27,4.61,1.98,4,1
18801.968,0.267,0.878,-0.354,1.13,3.45,2.96,4,1
18801.984,0.269,0.906,-0.365,1.56,3.23,4.85,4,1
18801.984,0.262,0.931,-0.374,-0.92,3.81,7.9,4,1
18802.0,0.261,0.936,-0.371,-5.07,4.36,11.78,4,1
18802.015,0.263,0.949,-0.363,-9.37,5.4,15.35,4,1
18802.015,0.257,0.918,-0.352,-13.64,7.11,20.78,4,1
18802.031,0.277,0.927,-0.334,-17.67,8.42,25.54,4,1
18802.046,0.289,0.938,-0.34,-19.93,10.01,28.81,4,1
18802.046,0.315,0.937,-0.337,-24.08,10.07,30.4,4,1
18802.062,0.308,0.888,-0.323,-33.97,10.1,32.96,4,1
18802.078,0.337,0.871,-0.304,-31.83,9.55,32.75,4,1
18802.078,0.355,0.843,-0.287,-26.28,8.91,31.98,4,1
18802.093,0.371,0.825,-0.274,-20.05,8.15,29.57,4,1
18802.109,0.389,0.806,-0.272,-13.58,7.35,25.73,4,1
18802.109,0.394,0.803,-0.278,-6.29,6.26,20.63,4,1
18802.125,0.395,0.794,-0.286,-0.18,5.01,14.83,4,1
18802.125,0.412,0.8,-0.302,5.1,3.85,8.82,4,1
18802.14,0.418,0.808,-0.314,10.68,3.45,1.95,4,1
18802.156,0.417,0.818,-0.321,15.35,2.99,-5.04,4,1
18802.156,0.407,0.832,-0.329,18.68,2.72,-10.86,4,1
18802.171,0.396,0.848,-0.328,21.88,2.04,-14.56,4,1
18802.187,0.381,0.875,-0.327,24.54,0.73,-16.6,4,1
18802.187,0.37,0.884,-0.332,24.9,-0.89,-17.55,4,1
18802.203,0.366,0.892,-0.347,24.14,-2.47,-18.31,4,1
18802.218,0.363,0.892,-0.362,23.47,-3.33,-18.04,4,1
18802.218,0.362,0.889,-0.379,22.13,-3.81,-17.88,4,1
18802.234,0.363,0.886,-0.399,22.22,-3.05,-16.97,4,1
18802.234,0.366,0.878,-0.415,23.29,-0.58,-15.44,4,1
18802.25,0.361,0.881,-0.412,21.21,2.47,-13.49,4,1
18802.265,0.351,0.875,-0.402,17.33,5.28,-10.77,4,1
18802.281,0.333,0.857,-0.391,13.37,7.14,-7.26,4,1
18802.281,0.323,0.844,-0.386,9.31,8.39,-3.51,4,1
18802.296,0.318,0.831,-0.385,5.46,8.45,-0.95,4,1
18802.296,0.334,0.81,-0.388,2.75,7.87,0.37,4,1
18802.312,0.356,0.792,-0.389,0.18,8.36,0.0,4,1
18802.328,0.378,0.775,-0.39,-2.11,9.74,-1.74,4,1
18802.328,0.396,0.766,-0.387,-4.15,12.12,-3.81,4,1
18802.343,0.384,0.752,-0.382,-6.65,14.22,-6.47,4,1
18802.359,0.369,0.74,-0.366,-10.59,14.86,-8.03,4,1
18802.359,0.354,0.733,-0.352,-13.76,14.13,-9.28,4,1
18802.375,0.343,0.727,-0.352,-13.92,12.21,-12.76,4,1
18802.375,0.358,0.729,-0.366,-10.9,10.47,-18.1,4,1
18802.39,0.371,0.74,-0.374,-6.93,10.59,-23.44,4,1
18802.406,0.374,0.757,-0.377,-4.03,11.54,-28.57,4,1
18802.406,0.382,0.76,-0.377,-1.43,12.97,-32.56,4,1
18802.421,0.385,0.78,-0.367,0.34,15.2,-34.12,4,1
18802.437,0.389,0.796,-0.362,-0.73,17.33,-32.32,4,1
18802.437,0.408,0.808,-0.35,-7.39,19.99,-27.28,4,1
18802.453,0.423,0.812,-0.329,-18.16,23.01,-20.39,4,1
18802.468,0.421,0.817,-0.315,-29.39,26.95,-14.74,4,1
18802.468,0.411,0.837,-0.298,-37.57,32.2,-14.13,4,1
18802.484,0.365,0.848,-0.266,-38.85,36.71,-18.37,4,1
18802.5,0.291,0.84,-0.24,-31.5,38.27,-24.72,4,1
18802.5,0.241,0.852,-0.23,-20.78,35.31,-28.84,4,1
18802.515,0.233,0.879,-0.238,-11.41,29.05,-30.61,4,1
18802.531,0.233,0.906,-0.254,-5.16,22.25,-32.53,4,1
18802.531,0.223,0.93,-0.274,-3.39,15.14,-35.74,4,1
18802.546,0.216,0.937,-0.283,-4.94,7.26,-38.42,4,1
18802.546,0.207,0.949,-0.276,-7.14,-0.82,-39.64,4,1
18802.562,0.23,0.965,-0.298,-6.2,-6.84,-39.09,4,1
18802.578,0.237,0.973,-0.308,-6.53,-9.37,-35.07,4,1
18802.578,0.231,0.972,-0.317,-7.78,-9.03,-27.47,4,1
18802.593,0.23,0.984,-0.343,-8.58,-8.0,-18.52,4,1
18802.609,0.226,0.999,-0.359,-8.67,-5.62,-11.9,4,1
18802.609,0.225,1.001,-0.362,-6.87,-1.65,-8.76,4,1
18802.625,0.214,0.998,-0.367,-4.82,2.47,-6.35,4,1
18802.625,0.2,0.982,-0.374,-3.05,5.49,-3.91,4,1
18802.64,0.182,0.962,-0.379,-1.31,6.68,-2.11,4,1
18802.656,0.172,0.969,-0.405,0.21,5.65,-2.26,4,1
18802.656,0.192,0.98,-0.429,1.31,3.81,-3.75,4,1
18802.671,0.223,0.999,-0.44,3.2,5.62,-5.62,4,1
18802.687,0.228,1.023,-0.452,4.73,10.86,-7.17,4,1
18802.687,0.22,1.04,-0.449,4.52,17.0,-6.9,4,1
18802.703,0.204,1.054,-0.433,3.48,23.29,-4.3,4,1
18802.718,0.2,1.046,-0.418,1.22,27.44,0.58,4,1
18802.718,0.212,1.03,-0.413,-1.68,29.45,6.9,4,1
18802.734,0.225,1.023,-0.398,-3.85,30.15,13.49,4,1
18802.734,0.219,1.015,-0.358,-2.47,31.37,19.96,4,1
18802.75,0.225,1.022,-0.33,-0.76,33.57,24.6,4,1
18802.765,0.223,1.015,-0.305,-3.14,34.79,26.89,4,1
18802.765,0.207,0.98,-0.269,-4.88,34.67,27.53,4,1
18802.781,0.216,0.944,-0.26,-2.53,33.42,28.35,4,1
18802.796,0.238,0.919,-0.285,0.64,31.4,29.69,4,1
18802.812,0.269,0.907,-0.32,1.89,29.48,29.88,4,1
18802.812,0.302,0.889,-0.35,3.05,28.93,28.2,4,1
18802.828,0.332,0.862,-0.368,4.33,30.95,26.86,4,1
18802.828,0.356,0.859,-0.357,5.25,36.04,26.8,4,1
18802.843,0.356,0.854,-0.325,5.07,42.39,27.13,4,1
18802.859,0.33,0.855,-0.267,3.75,46.36,26.46,4,1
18802.859,0.309,0.852,-0.22,4.55,46.51,23.87,4,1
18802.875,0.297,0.859,-0.199,9.0,43.67,19.38,4,1
18802.875,0.302,0.866,-0.201,15.11,39.12,13.86,4,1
18802.89,0.31,0.871,-0.217,22.22,34.55,7.17,4,1
18802.906,0.324,0.878,-0.243,30.27,31.37,0.67,4,1
18802.906,0.337,0.896,-0.27,35.8,30.06,-3.69,4,1
18802.921,0.341,0.909,-0.285,36.47,30.79,-5.19,4,1
18802.937,0.332,0.921,-0.281,32.96,32.14,-4.58,4,1
18802.953,0.321,0.918,-0.275,28.2,32.93,-1.98,4,1
18802.953,0.305,0.919,-0.264,23.87,33.48,1.98,4,1
18802.968,0.283,0.918,-0.254,20.33,33.54,6.01,4,1
18802.968,0.274,0.906,-0.257,16.91,31.95,9.4,4,1
18802.984,0.29,0.884,-0.273,13.18,30.21,11.69,4,1
18803.0,0.312,0.868,-0.286,10.68,30.0,12.05,4,1
18803.0,0.339,0.857,-0.295,9.86,31.65,10.41,4,1
18803.015,0.361,0.849,-0.301,9.86,34.91,7.78,4,1
18803.015,0.368,0.839,-0.299,10.13,39.09,5.04,4,1
18803.031,0.369,0.836,-0.283,10.5,42.76,2.44,4,1
18803.046,0.371,0.841,-0.263,9.98,45.01,0.43,4,1
18803.046,0.378,0.83,-0.244,5.4,43.7,1.31,4,1
18803.062,0.378,0.828,-0.212,3.75,40.5,2.59,4,1
18803.078,0.384,0.832,-0.193,2.2,36.29,3.51,4,1
18803.078,0.41,0.841,-0.177,1.77,32.38,3.63,4,1
18803.093,0.427,0.844,-0.187,3.08,29.76,3.36,4,1
18803.109,0.451,0.854,-0.202,4.58,28.81,2.04,4,1
18803.109,0.45,0.864,-0.199,6.16,29.6,-0.52,4,1
18803.125,0.438,0.876,-0.193,9.03,30.4,-3.88,4,1
18803.125,0.427,0.887,-0.187,13.28,30.18,-6.71,4,1
18803.14,0.428,0.893,-0.193,16.45,29.05,-8.36,4,1
18803.156,0.425,0.898,-0.204,17.3,27.8,-9.83,4,1
18803.156,0.409,0.887,-0.204,15.87,25.64,-10.13,4,1
18803.171,0.424,0.87,-0.221,13.0,22.22,-7.78,4,1
18803.187,0.47,0.87,-0.25,8.3,20.54,-3.45,4,1
18803.187,0.514,0.867,-0.268,1.53,22.46,0.95,4,1
18803.203,0.549,0.865,-0.263,-6.5,27.5,4.18,4,1
18803.218,0.535,0.871,-0.218,-13.0,32.96,6.04,4,1
18803.218,0.484,0.849,-0.171,-13.46,35.04,7.75,4,1
18803.234,0.451,0.835,-0.153,-8.39,33.08,9.25,4,1
18803.234,0.441,0.834,-0.155,-2.32,28.81,9.7,4,1
18803.25,0.451,0.825,-0.175,1.34,24.32,8.0,4,1
18803.265,0.46,0.816,-0.201,2.29,21.73,4.52,4,1
18803.265,0.447,0.813,-0.23,2.41,21.03,-0.03,4,1
18803.281,0.411,0.817,-0.214,0.92,20.39,-3.85,4,1
18803.296,0.358,0.854,-0.147,-0.95,16.3,-7.48,4,1
18803.296,0.347,0.881,-0.156,2.26,8.33,-12.15,4,1
18803.312,0.37,0.911,-0.189,7.39,1.68,-15.56,4,1
18803.328,0.392,0.942,-0.224,11.69,-1.59,-17.27,4,1
18803.328,0.42,0.964,-0.256,14.44,-2.08,-18.34,4,1
18803.343,0.432,0.953,-0.289,15.59,0.15,-16.66,4,1
18803.359,0.444,0.944,-0.301,13.15,3.42,-11.78,4,1
18803.359,0.432,0.94,-0.298,10.38,6.62,-7.26,4,1
18803.375,0.416,0.916,-0.304,7.72,8.88,-3.97,4,1
18803.375,0.41,0.889,-0.295,4.21,10.77,-1.04,4,1
18803.39,0.382,0.873,-0.277,1.5,12.3,1.98,4,1
18803.406,0.367,0.873,-0.258,-2.44,11.96,5.31,4,1
18803.406,0.372,0.875,-0.223,-6.78,9.67,6.56,4,1
18803.421,0.38,0.861,-0.216,-7.17,6.68,4.79,4,1
18803.437,0.39,0.857,-0.229,-3.36,4.94,1.83,4,1
18803.437,0.405,0.854,-0.249,1.77,5.43,-2.2,4,1
18803.453,0.411,0.832,-0.28,5.92,7.84,-5.89,4,1
18803.468,0.402,0.817,-0.316,8.21,11.51,-8.51,4,1
18803.468,0.406,0.793,-0.34,6.68,16.36,-10.47,4,1
18803.484,0.403,0.799,-0.31,3.27,22.31,-11.38,4,1
18803.484,0.362,0.809,-0.273,4.97,25.94,-14.28,4,1
18803.5,0.289,0.83,-0.222,8.03,26.83,-14.4,4,1
18803.515,0.256,0.865,-0.174,9.37,20.72,-11.57,4,1
18803.515,0.256,0.901,-0.154,7.23,9.89,-9.74,4,1
18803.531,0.275,0.914,-0.149,4.7,-0.92,-9.37,4,1
18803.546,0.309,0.908,-0.176,5.74,-8.24,-9.77,4,1
18803.546,0.342,0.909,-0.222,8.0,-10.44,-10.13,4,1
18803.562,0.394,0.912,-0.27,9.28,-8.48,-11.66,4,1
18803.578,0.429,0.899,-0.313,8.67,-3.2,-13.15,4,1
18803.578,0.452,0.879,-0.34,5.89,4.52,-13.06,4,1
18803.593,0.464,0.87,-0.35,1.13,14.31,-11.47,4,1
18803.593,0.459,0.85,-0.352,-4.52,26.25,-9.83,4,1
18803.609,0.432,0.839,-0.337,-10.9,39.09,-10.8,4,1
18803.625,0.376,0.848,-0.29,-15.41,49.93,-14.56,4,1
18803.625,0.309,0.853,-0.203,-17.67,56.49,-17.33,4,1
18803.64,0.221,0.854,-0.112,-14.89,56.55,-18.56,4,1
18803.656,0.174,0.875,-0.052,-9.61,48.55,-16.79,4,1
18803.656,0.183,0.9,-0.037,-2.78,34.91,-10.71,4,1
18803.671,0.236,0.938,-0.071,1.89,21.03,-3.23,4,1
18803.687,0.291,0.982,-0.109,-0.98,10.01,0.7,4,1
18803.703,0.344,0.976,-0.146,-9.13,3.02,2.17,4,1
18803.703,0.386,0.941,-0.158,-17.46,-0.06,4.85,4,1
18803.703,0.409,0.916,-0.167,-20.75,-0.21,8.61,4,1
18803.718,0.429,0.902,-0.193,-19.62,0.37,11.78,4,1
18803.734,0.448,0.897,-0.204,-18.59,0.89,13.7,4,1
18803.75,0.445,0.89,-0.217,-18.43,0.7,13.21,4,1
18803.75,0.437,0.887,-0.212,-18.77,-0.85,12.05,4,1
18803.765,0.453,0.885,-0.208,-18.56,-3.51,11.57,4,1
18803.765,0.468,0.887,-0.214,-19.26,-4.67,11.14,4,1
18803.781,0.483,0.874,-0.221,-21.85,-4.91,11.26,4,1
18803.796,0.508,0.862,-0.217,-26.46,-5.28,11.51,4,1
18803.796,0.517,0.855,-0.203,-30.58,-4.91,10.44,4,1
18803.812,0.494,0.851,-0.183,-31.86,-4.82,8.18,4,1
18803.828,0.468,0.859,-0.157,-29.54,-6.01,5.37,4,1
18803.828,0.436,0.892,-0.125,-24.23,-8.61,0.67,4,1
18803.843,0.4,0.916,-0.086,-16.85,-12.73,-3.3,4,1
18803.859,0.394,0.893,-0.08,-8.64,-18.1,-5.52,4,1
18803.859,0.383,0.898,-0.164,-3.91,-18.98,-6.35,4,1
18803.875,0.383,0.941,-0.226,-8.94,-16.48,-4.36,4,1
18803.875,0.388,0.927,-0.241,-19.99,-14.98,0.12,4,1
18803.89,0.414,0.887,-0.268,-33.45,-11.78,6.35,4,1
18803.906,0.446,0.864,-0.277,-47.36,-4.61,11.17,4,1
18803.906,0.453,0.836,-0.203,-58.08,5.04,13.64,4,1
18803.921,0.4,0.81,-0.093,-58.78,11.93,13.79,4,1
18803.937,0.323,0.81,0.006,-49.38,13.06,12.6,4,1
18803.937,0.277,0.824,0.031,-36.19,7.23,9.64,4,1
18803.953,0.27,0.85,0.029,-26.4,-4.09,5.1,4,1
18803.953,0.28,0.879,0.009,-21.18,-14.37,0.27,4,1
18803.968,0.301,0.912,-0.041,-20.51,-20.78,-4.36,4,1
18803.984,0.329,0.923,-0.097,-23.01,-23.22,-6.44,4,1
18804.0,0.38,0.921,-0.101,-26.83,-21.24,-5.8,4,1
18804.0,0.402,0.918,-0.099,-28.93,-13.64,-4.15,4,1
18804.015,0.385,0.901,-0.092,-29.88,-3.91,-1.5,4,1
18804.015,0.318,0.886,-0.046,-30.67,5.58,1.77,4,1
18804.031,0.274,0.853,-0.013,-35.49,10.62,10.93,4,1
18804.046,0.267,0.841,0.016,-38.42,7.29,13.18,4,1
18804.046,0.277,0.843,0.069,-37.93,1.77,11.05,4,1
18804.062,0.297,0.822,0.097,-34.18,-4.39,5.86,4,1
18804.078,0.368,0.783,0.09,-27.28,-9.4,-1.01,4,1
18804.078,0.392,0.792,0.082,-17.98,-11.47,-9.28,4,1
18804.093,0.385,0.784,0.051,-8.48,-12.6,-18.34,4,1
18804.109,0.37,0.792,0.023,-0.52,-13.7,-25.54,4,1
18804.109,0.363,0.847,-0.013,3.88,-13.4,-29.88,4,1
18804.125,0.374,0.884,-0.042,1.83,-12.18,-31.01,4,1
18804.125,0.387,0.898,-0.035,-3.17,-8.79,-30.46,4,1
18804.14,0.383,0.912,-0.023,-7.17,-3.05,-28.87,4,1
18804.156,0.373,0.911,-0.003,-10.71,2.62,-25.64,4,1
18804.156,0.336,0.897,0.013,-14.53,8.33,-22.43,4,1
18804.171,0.29,0.878,0.021,-20.02,12.39,-19.1,4,1
18804.187,0.283,0.858,0.037,-26.64,13.03,-16.08,4,1
18804.187,0.292,0.848,0.055,-31.5,12.54,-15.5,4,1
18804.203,0.302,0.835,0.074,-34.0,10.77,-17.43,4,1
18804.218,0.342,0.836,0.082,-33.3,7.69,-20.48,4,1
18804.218,0.358,0.864,0.078,-29.08,5.95,-24.48,4,1
18804.234,0.369,0.878,0.068,-23.71,5.55,-28.32,4,1
18804.234,0.381,0.891,0.061,-19.56,5.49,-31.43,4,1
18804.25,0.369,0.914,0.064,-15.35,7.26,-33.2,4,1
18804.265,0.329,0.925,0.058,-11.23,10.56,-33.69,4,1
18804.265,0.316,0.933,0.043,-9.61,11.66,-32.93,4,1
18804.281,0.312,0.956,0.031,-10.5,12.45,-31.65,4,1
18804.296,0.3,0.971,0.044,-13.0,12.36,-30.61,4,1
18804.296,0.293,0.982,0.087,-15.05,10.19,-28.96,4,1
18804.312,0.27,0.995,0.127,-13.67,6.32,-26.52,4,1
18804.328,0.252,1.004,0.155,-9.13,-0.73,-22.68,4,1
18804.328,0.243,1.003,0.176,-2.23,-9.09,-17.61,4,1
18804.343,0.246,1.016,0.164,4.76,-16.75,-11.9,4,1
18804.359,0.294,1.023,0.111,8.64,-23.56,-5.49,4,1
18804.359,0.34,0.993,0.04,10.16,-24.75,-0.31,4,1
18804.375,0.358,0.957,-0.04,8.79,-23.32,2.9,4,1
18804.375,0.416,0.96,-0.07,5.86,-17.79,5.74,4,1
18804.39,0.406,0.96,-0.074,4.36,-9.52,7.54,4,1
18804.406,0.387,0.968,-0.039,-0.92,-7.57,12.63,4,1
18804.406,0.382,0.988,0.022,-6.26,-5.49,15.17,4,1
18804.421,0.347,0.974,0.054,-9.34,-3.88,16.75,4,1
18804.437,0.338,0.967,0.058,-14.16,-6.2,19.68,4,1
18804.437,0.366,0.962,0.044,-20.87,-11.08,21.52,4,1
18804.453,0.389,0.935,0.034,-26.34,-13.98,21.09,4,1
18804.468,0.421,0.908,0.027,-29.6,-15.78,18.65,4,1
18804.468,0.427,0.889,0.057,-29.24,-17.49,12.48,4,1
18804.484,0.427,0.865,0.064,-22.95,-18.07,3.11,4,1
18804.484,0.42,0.869,0.048,-13.06,-17.15,-7.54,4,1
18804.5,0.399,0.897,0.035,-2.75,-15.2,-18.31,4,1
18804.515,0.377,0.93,0.036,6.01,-11.96,-28.02,4,1
18804.531,0.368,0.957,0.018,12.88,-10.62,-34.7,4,1
18804.531,0.365,1.01,-0.003,15.5,-7.69,-37.63,4,1
18804.546,0.343,1.042,-0.035,14.37,-2.41,-39.16,4,1
18804.546,0.324,1.03,-0.069,9.43,3.23,-38.27,4,1
18804.562,0.317,1.027,-0.045,2.11,10.47,-36.07,4,1
18804.578,0.272,1.025,0.017,-0.61,18.95,-33.57,4,1
18804.578,0.221,0.995,0.045,1.16,26.67,-27.71,4,1
18804.593,0.193,0.989,0.041,1.13,32.53,-18.37,4,1
18804.593,0.198,0.989,0.037,-1.83,34.36,-9.8,4,1
18804.609,0.191,0.991,0.038,-7.87,34.67,-5.04,4,1
18804.625,0.191,0.981,0.036,-17.4,31.77,-3.85,4,1
18804.625,0.217,0.93,0.02,-30.49,26.89,-5.16,4,1
18804.64,0.19,0.905,0.015,-45.2,26.4,-7.66,4,1
18804.656,0.15,0.902,0.021,-54.2,27.95,-10.25,4,1
18804.671,0.128,0.919,0.077,-59.94,28.57,-10.04,4,1
18804.671,0.104,0.933,0.132,-58.72,28.53,-7.14,4,1
18804.687,0.116,0.94,0.167,-52.61,23.62,-1.95,4,1
18804.687,0.149,0.951,0.211,-44.89,12.3,1.65,4,1
18804.703,0.173,0.926,0.224,-33.57,0.03,-0.43,4,1
18804.718,0.202,0.876,0.203,-20.63,-9.0,-5.65,4,1
18804.718,0.213,0.845,0.175,-6.78,-12.09,-12.51,4,1
18804.734,0.203,0.831,0.153,8.67,-13.61,-19.04,4,1
18804.734,0.23,0.798,0.113,21.73,-16.82,-25.27,4,1
18804.75,0.25,0.784,0.076,29.85,-14.37,-32.38,4,1
18804.765,0.229,0.808,0.077,34.0,-5.74,-38.64,4,1
18804.765,0.188,0.827,0.094,36.47,1.74,-42.27,4,1
18804.781,0.169,0.848,0.099,37.26,4.67,-43.0,4,1
18804.796,0.169,0.904,0.092,36.68,5.58,-41.87,4,1
18804.812,0.184,0.957,0.089,34.85,4.49,-39.61,4,1
18804.812,0.214,0.977,0.095,32.17,2.38,-37.84,4,1
18804.828,0.221,0.988,0.101,31.01,2.35,-36.23,4,1
18804.828,0.201,0.972,0.094,32.26,2.78,-33.23,4,1
18804.843,0.192,0.951,0.091,33.69,3.08,-29.21,4,1
18804.859,0.195,0.932,0.079,36.74,5.16,-25.3,4,1
18804.859,0.193,0.915,0.083,42.21,9.46,-21.58,4,1
18804.875,0.197,0.901,0.073,50.57,12.7,-18.8,4,1
18804.875,0.213,0.897,0.033,57.13,14.8,-18.16,4,1
18804.89,0.218,0.912,-0.001,57.47,15.23,-20.48,4,1
18804.906,0.225,0.932,-0.015,51.73,15.41,-24.6,4,1
18804.906,0.209,0.94,-0.002,43.95,17.7,-29.05,4,1
18804.921,0.17,0.944,0.018,39.25,20.91,-31.65,4,1
18804.937,0.149,0.963,0.014,38.12,22.37,-31.28,4,1
18804.937,0.14,1.015,0.006,35.62,21.52,-29.57,4,1
18804.953,0.114,1.078,0.001,29.69,19.53,-26.76,4,1
18804.968,0.104,1.112,-0.009,20.08,15.5,-22.1,4,1
18804.968,0.1,1.136,-0.009,8.79,11.54,-14.25,4,1
18804.984,0.108,1.138,-0.025,-1.71,8.85,-3.6,4,1
18804.984,0.12,1.114,-0.036,-11.78,7.23,7.23,4,1
18805.0,0.135,1.078,-0.048,-19.84,6.41,16.02,4,1
18805.015,0.144,1.04,-0.059,-31.77,8.48,26.03,4,1
18805.031,0.158,1.005,-0.069,-36.19,10.9,26.98,4,1
18805.031,0.182,0.975,-0.069,-38.82,14.16,26.03,4,1
18805.046,0.204,0.962,-0.053,-40.01,17.94,23.04,4,1
18805.046,0.176,0.945,0.015,-40.35,19.23,19.04,4,1
18805.062,0.163,0.931,0.053,-38.64,18.83,16.08,4,1
18805.078,0.14,0.934,0.085,-33.6,17.67,14.74,4,1
18805.078,0.137,0.927,0.1,-28.11,13.67,14.07,4,1
18805.093,0.163,0.925,0.117,-23.41,7.6,13.18,4,1
18805.109,0.183,0.94,0.103,-17.52,3.63,11.38,4,1
18805.109,0.193,0.955,0.074,-12.63,1.13,8.85,4,1
18805.125,0.193,0.955,0.053,-9.74,0.09,6.47,4,1
18805.125,0.185,0.95,0.038,-8.06,0.76,5.37,4,1
18805.14,0.184,0.947,0.033,-5.89,1.89,5.28,4,1
18805.156,0.185,0.952,0.038,-3.75,2.56,5.19,4,1
18805.156,0.184,0.958,0.048,-2.41,3.02,4.55,4,1
18805.171,0.19,0.959,0.053,-2.75,2.59,4.43,4,1
18805.187,0.199,0.964,0.063,-4.18,2.23,3.51,4,1
18805.187,0.182,0.951,0.065,-3.57,2.17,1.13,4,1
18805.203,0.171,0.932,0.065,-0.67,0.64,-0.95,4,1
18805.218,0.175,0.932,0.065,3.45,-1.1,-2.59,4,1
18805.218,0.188,0.937,0.057,7.6,-2.11,-4.06,4,1
18805.234,0.199,0.939,0.046,10.25,-2.84,-5.37,4,1
18805.234,0.205,0.95,0.052,11.02,-2.59,-6.32,4,1
18805.25,0.193,0.951,0.06,12.39,-1.1,-6.47,4,1
18805.265,0.172,0.943,0.068,16.08,0.24,-6.38,4,1
18805.265,0.159,0.928,0.078,22.98,-0.58,-5.92,4,1
18805.281,0.159,0.919,0.086,34.94,-1.8,-5.19,4,1
18805.296,0.175,0.899,0.085,51.12,-3.23,-4.79,4,1
18805.296,0.181,0.901,0.066,66.19,-4.33,-5.98,4,1
18805.312,0.19,0.9,0.039,76.82,-5.74,-10.35,4,1
18805.328,0.187,0.895,0.014,82.0,-6.59,-16.24,4,1
18805.328,0.164,0.917,-0.022,81.91,-6.99,-20.84,4,1
18805.343,0.158,0.956,-0.046,75.23,-7.48,-21.82,4,1
18805.359,0.165,0.99,-0.058,64.33,-7.26,-20.78,4,1
18805.359,0.156,1.01,-0.073,50.14,-6.04,-18.49,4,1
18805.375,0.144,1.018,-0.076,32.93,-4.64,-14.71,4,1
18805.375,0.14,1.01,-0.067,17.85,-4.3,-9.58,4,1
18805.39,0.15,0.987,-0.068,7.57,-4.46,-4.06,4,1
18805.406,0.163,0.979,-0.066,1.5,-3.63,0.82,4,1
18805.406,0.177,0.978,-0.068,-0.31,-1.77,3.36,4,1
18805.421,0.182,0.962,-0.078,0.73,-0.03,3.45,4,1
18805.437,0.177,0.956,-0.083,2.84,1.83,2.56,4,1
18805.437,0.166,0.958,-0.085,5.62,4.06,0.37,4,1
18805.453,0.152,0.96,-0.077,8.36,5.68,-1.53,4,1
18805.468,0.149,0.969,-0.085,9.03,6.56,-2.23,4,1
18805.468,0.142,0.989,-0.087,5.62,7.35,-2.78,4,1
18805.484,0.127,1.013,-0.076,-1.59,7.32,-2.62,4,1
18805.5,0.125,1.014,-0.068,-8.94,5.43,-1.46,4,1
18805.5,0.134,1.016,-0.066,-13.55,4.33,1.22,4,1
18805.515,0.146,1.02,-0.067,-16.42,3.66,4.33,4,1
18805.515,0.154,1.013,-0.07,-19.41,3.51,7.08,4,1
18805.531,0.157,1.003,-0.063,-21.21,4.33,9.09,4,1
18805.546,0.146,0.989,-0.056,-20.26,5.58,11.08,4,1
18805.562,0.149,0.986,-0.048,-17.58,5.52,12.24,4,1
18805.562,0.155,0.974,-0.05,-14.62,4.97,11.54,4,1
18805.578,0.16,0.956,-0.054,-12.79,4.73,10.04,4,1
18805.578,0.171,0.95,-0.055,-11.78,3.94,8.51,4,1
18805.593,0.173,0.954,-0.041,-11.6,3.97,7.54,4,1
18805.609,0.162,0.967,-0.015,-11.41,4.0,7.02,4,1
18805.609,0.161,0.982,-0.015,-10.62,2.72,6.84,4,1
18805.625,0.153,0.983,-0.026,-10.38,2.01,7.39,4,1
18805.625,0.156,0.979,-0.024,-10.93,1.89,8.61,4,1
18805.64,0.155,0.971,-0.016,-10.65,0.82,9.19,4,1
18805.656,0.167,0.962,-0.023,-9.58,-0.34,10.41,4,1
18805.671,0.175,0.964,-0.02,-9.46,-0.21,11.9,4,1
18805.671,0.178,0.962,-0.008,-8.61,-0.12,11.93,4,1
18805.687,0.177,0.955,-0.0,-5.65,-1.04,11.02,4,1
18805.687,0.191,0.944,0.001,-0.85,-2.96,10.44,4,1
18805.703,0.199,0.943,-0.004,4.24,-4.24,9.55,4,1
18805.718,0.204,0.93,-0.011,8.45,-4.76,8.15,4,1
18805.718,0.21,0.937,-0.021,9.92,-5.49,6.23,4,1
18805.734,0.207,0.944,-0.024,8.97,-5.77,3.57,4,1
18805.734,0.206,0.951,-0.026,6.29,-6.62,0.7,4,1
18805.75,0.203,0.967,-0.017,2.01,-7.05,-0.95,4,1
18805.765,0.197,0.971,-0.009,-1.89,-8.24,-1.59,4,1
18805.765,0.207,0.962,-0.012,-5.62,-10.16,-1.01,4,1
18805.781,0.224,0.956,-0.013,-8.36,-10.32,0.27,4,1
18805.796,0.212,0.953,-0.004,-8.82,-8.09,1.43,4,1
18805.796,0.198,0.952,0.007,-6.1,-7.75,1.62,4,1
18805.812,0.182,0.954,0.003,-1.95,-9.09,1.43,4,1
18805.828,0.173,0.966,0.002,0.31,-11.2,1.1,4,1
18805.828,0.166,0.983,-0.009,0.27,-13.61,0.89,4,1
18805.843,0.164,0.997,-0.017,-3.17,-16.63,0.4,4,1
18805.859,0.174,0.991,-0.021,-8.64,-19.84,0.82,4,1
18805.859,0.171,0.98,-0.018,-12.39,-21.3,1.1,4,1
18805.875,0.146,0.972,-0.009,-12.36,-21.27,0.58,4,1
18805.875,0.112,0.965,-0.008,-10.8,-23.35,-1.25,4,1
18805.89,0.085,0.966,0.003,-9.98,-28.17,-4.33,4,1
18805.906,0.054,0.988,0.017,-9.52,-35.31,-8.33,4,1
18805.921,0.049,1.0,0.02,-8.3,-46.36,-12.94,4,1
18805.921,0.074,1.003,-0.001,-5.16,-58.35,-17.4,4,1
18805.937,0.098,0.993,-0.039,-0.27,-67.26,-21.97,4,1
18805.937,0.112,0.986,-0.085,7.45,-72.08,-25.42,4,1
18805.953,0.133,0.997,-0.126,16.75,-73.03,-26.92,4,1
18805.968,0.156,1.012,-0.167,22.98,-71.38,-27.13,4,1
18805.968,0.176,1.032,-0.195,24.45,-66.29,-26.12,4,1
18805.984,0.189,1.047,-0.198,21.97,-58.9,-22.52,4,1
18806.0,0.198,1.051,-0.19,15.78,-51.52,-17.27,4,1
18806.0,0.196,1.052,-0.163,-3.45,-34.88,-2.69,4,1
18806.015,0.186,1.028,-0.134,-11.17,-28.75,4.39,4,1
18806.015,0.18,0.988,-0.091,-11.87,-24.96,11.05,4,1
18806.031,0.2,0.947,-0.065,-6.9,-22.06,15.9,4,1
18806.046,0.203,0.932,-0.073,-2.9,-20.02,18.46,4,1
18806.046,0.211,0.914,-0.077,-0.95,-18.28,18.59,4,1
18806.062,0.205,0.915,-0.082,-0.92,-15.59,17.73,4,1
18806.078,0.198,0.916,-0.069,-4.21,-13.52,16.91,4,1
18806.078,0.203,0.915,-0.041,-9.09,-12.88,16.08,4,1
18806.093,0.203,0.932,-0.007,-12.51,-14.07,15.05,4,1
18806.109,0.185,0.932,0.027,-14.86,-16.63,13.92,4,1
18806.109,0.18,0.914,0.049,-15.56,-22.1,12.79,4,1
18806.125,0.184,0.899,0.041,-11.38,-27.92,12.15,4,1
18806.14,0.182,0.881,-0.002,-5.28,-31.95,10.01,4,1
18806.14,0.18,0.87,-0.051,-0.34,-33.97,5.58,4,1
18806.156,0.172,0.846,-0.079,4.21,-34.49,-2.14,4,1
18806.156,0.156,0.8,-0.106,10.41,-35.68,-14.62,4,1
18806.171,0.152,0.779,-0.135,19.68,-35.8,-29.18,4,1
18806.187,0.166,0.776,-0.147,30.55,-34.03,-44.5,4,1
18806.187,0.185,0.803,-0.139,39.43,-31.46,-60.24,4,1
18806.203,0.182,0.853,-0.119,46.21,-27.89,-73.64,4,1
18806.218,0.13,0.907,-0.094,52.19,-23.83,-82.0,4,1
18806.218,0.047,0.973,-0.095,55.88,-22.52,-83.38,4,1
18806.234,0.003,1.039,-0.127,52.77,-25.48,-77.85,4,1
18806.234,0.002,1.133,-0.172,40.41,-27.86,-65.03,4,1
18806.25,0.04,1.19,-0.203,20.72,-27.31,-45.32,4,1
18806.265,0.088,1.191,-0.219,0.37,-23.9,-23.1,4,1
18806.265,0.135,1.154,-0.217,-14.71,-17.37,-0.92,4,1
18806.281,0.157,1.1,-0.224,-21.03,-8.21,16.66,4,1
18806.296,0.144,1.071,-0.221,-22.46,1.77,28.5,4,1
18806.296,0.122,1.012,-0.194,-21.15,9.67,36.01,4,1
18806.312,0.113,0.961,-0.171,-18.19,15.08,38.27,4,1
18806.328,0.116,0.93,-0.147,-14.53,18.71,37.66,4,1
18806.328,0.126,0.907,-0.108,-11.05,20.69,34.73,4,1
18806.343,0.136,0.902,-0.063,-9.31,21.03,29.69,4,1
18806.359,0.137,0.903,-0.026,-9.34,19.2,22.98,4,1
18806.359,0.121,0.905,0.005,-9.28,14.89,14.92,4,1
18806.375,0.107,0.911,0.024,-7.9,8.55,7.66,4,1
18806.375,0.109,0.918,0.015,-5.13,1.71,2.35,4,1
18806.39,0.129,0.93,-0.014,-1.28,-3.2,-1.37,4,1
18806.406,0.148,0.936,-0.061,1.89,-5.22,-3.57,4,1
18806.406,0.16,0.943,-0.098,2.59,-4.97,-5.22,4,1
18806.421,0.168,0.963,-0.113,2.35,-3.02,-7.51,4,1
18806.437,0.15,0.977,-0.104,2.81,-0.49,-9.4,4,1
18806.437,0.134,1.005,-0.076,4.06,0.21,-10.62,4,1
