timestamp,ax,ay,az,gx,gy,gz,orient_label,motion_label
18764.234,0.208,0.928,0.122,0.92,0.27,-2.72,4,1
18764.25,0.216,0.936,0.119,2.5,-0.27,-3.33,4,1
18764.265,0.225,0.943,0.111,3.51,-0.43,-3.17,4,1
18764.265,0.228,0.954,0.103,3.14,-0.15,-2.41,4,1
18764.281,0.23,0.955,0.106,1.5,0.24,-1.34,4,1
18764.296,0.231,0.952,0.113,-0.49,0.52,0.24,4,1
18764.296,0.234,0.95,0.116,-1.1,0.85,1.71,4,1
18764.312,0.233,0.95,0.117,-0.95,1.07,2.41,4,1
18764.328,0.229,0.954,0.121,-1.19,0.85,2.44,4,1
18764.328,0.233,0.953,0.124,-1.89,0.0,2.38,4,1
18764.343,0.234,0.949,0.125,-1.5,-0.46,2.2,4,1
18764.343,0.23,0.951,0.12,-0.95,-0.4,2.26,4,1
18764.359,0.223,0.957,0.118,-1.28,-0.31,2.11,4,1
18764.375,0.216,0.954,0.115,-1.22,-0.27,1.89,4,1
18764.375,0.217,0.96,0.114,-0.4,-0.34,1.95,4,1
18764.39,0.219,0.967,0.111,0.03,-0.55,1.89,4,1
18764.406,0.228,0.97,0.11,-0.43,-1.22,2.04,4,1
18764.421,0.234,0.97,0.11,-0.61,-0.67,2.99,4,1
18764.437,0.232,0.965,0.109,-0.92,-0.21,3.6,4,1
18764.437,0.234,0.96,0.108,-1.1,0.27,3.88,4,1
18764.453,0.227,0.957,0.112,-1.22,0.89,4.03,4,1
18764.468,0.219,0.956,0.12,-1.4,0.98,4.43,4,1
18764.468,0.218,0.953,0.121,-1.56,0.61,4.82,4,1
18764.484,0.216,0.949,0.116,-1.1,0.52,5.28,4,1
18764.484,0.219,0.944,0.113,-0.82,0.85,5.25,4,1
18764.5,0.223,0.94,0.121,-0.98,0.98,4.97,4,1
18764.515,0.231,0.934,0.116,-0.43,0.92,4.67,4,1
18764.515,0.23,0.942,0.131,0.15,1.01,4.91,4,1
18764.531,0.23,0.942,0.134,0.46,0.79,5.8,4,1
18764.546,0.233,0.938,0.13,0.15,0.49,7.17,4,1
18764.546,0.234,0.933,0.128,0.0,0.34,7.84,4,1
18764.562,0.229,0.933,0.125,0.89,0.15,7.51,4,1
18764.578,0.23,0.935,0.123,2.78,0.34,7.26,4,1
18764.578,0.24,0.942,0.121,4.3,0.92,7.69,4,1
18764.593,0.249,0.943,0.126,5.37,1.92,8.15,4,1
18764.593,0.251,0.941,0.131,6.29,3.48,9.16,4,1
18764.609,0.25,0.938,0.144,6.26,4.64,11.02,4,1
18764.625,0.245,0.931,0.161,6.07,5.49,12.94,4,1
18764.625,0.228,0.919,0.179,7.42,6.38,14.47,4,1
18764.64,0.205,0.903,0.196,10.35,6.53,15.66,4,1
18764.656,0.177,0.878,0.208,14.68,6.56,15.59,4,1
18764.656,0.144,0.849,0.213,22.06,6.9,13.31,4,1
18764.671,0.104,0.831,0.22,33.39,7.69,9.52,4,1
18764.687,0.079,0.818,0.227,62.38,10.16,1.01,4,1
18764.687,0.104,0.816,0.237,73.37,12.45,-1.46,4,1
18764.703,0.133,0.821,0.246,80.29,14.62,-1.43,4,1
18764.718,0.158,0.788,0.232,83.47,15.41,1.37,4,1
18764.718,0.161,0.776,0.245,84.96,15.87,5.01,4,1
18764.734,0.14,0.77,0.276,86.49,17.4,8.58,4,1
18764.734,0.114,0.772,0.3,87.8,18.59,11.38,4,1
18764.75,0.091,0.774,0.333,87.62,19.32,14.5,4,1
18764.765,0.058,0.782,0.35,87.89,20.33,16.6,4,1
18764.765,0.022,0.787,0.323,87.65,21.06,19.04,4,1
18764.781,-0.009,0.781,0.217,82.61,20.94,23.9,4,1
18764.796,-0.015,0.751,0.124,73.21,21.21,31.65,4,1
18764.812,0.012,0.721,0.077,66.16,25.06,41.41,4,1
18764.812,0.088,0.722,0.039,61.37,32.65,51.64,4,1
18764.828,0.155,0.744,0.023,52.13,44.65,59.76,4,1
18764.828,0.199,0.749,0.079,36.16,58.63,64.7,4,1
18764.843,0.169,0.75,0.165,19.9,71.38,67.29,4,1
18764.843,0.132,0.739,0.228,6.78,78.8,69.22,4,1
18764.859,0.096,0.706,0.278,-2.9,79.17,70.62,4,1
18764.875,0.061,0.683,0.302,-10.25,75.44,71.32,4,1
18764.89,0.057,0.655,0.251,-17.12,64.58,68.42,4,1
18764.89,0.08,0.6,0.143,-25.61,50.51,63.3,4,1
18764.906,0.153,0.548,0.031,-32.78,40.07,58.72,4,1
18764.906,0.255,0.534,-0.028,-35.77,37.39,52.52,4,1
18764.921,0.339,0.549,-0.054,-33.36,44.83,44.04,4,1
18764.937,0.37,0.599,-0.031,-27.25,59.24,35.0,4,1
18764.937,0.364,0.648,-0.01,-21.18,75.08,25.57,4,1
18764.953,0.361,0.658,0.005,-22.06,88.69,15.75,4,1
18764.968,0.326,0.652,0.013,-29.45,100.5,7.29,4,1
18764.968,0.278,0.653,-0.003,-39.0,102.85,1.83,4,1
18764.984,0.275,0.652,-0.036,-47.12,97.35,-0.49,4,1
18764.984,0.275,0.673,-0.038,-54.23,94.3,-1.59,4,1
18765.0,0.274,0.693,-0.016,-61.77,93.91,-5.04,4,1
18765.015,0.317,0.702,0.009,-69.7,94.0,-10.65,4,1
18765.015,0.358,0.72,0.024,-73.61,96.04,-19.56,4,1
18765.031,0.411,0.722,0.022,-69.0,100.44,-29.11,4,1
18765.046,0.392,0.707,-0.0,-58.69,106.66,-36.32,4,1
18765.062,0.415,0.716,-0.038,-52.13,114.44,-40.53,4,1
18765.062,0.428,0.768,-0.075,-51.97,120.67,-44.89,4,1
18765.078,0.433,0.816,-0.12,-56.52,130.92,-47.64,4,1
18765.078,0.423,0.861,-0.14,-68.64,143.04,-49.59,4,1
18765.093,0.443,0.894,-0.035,-98.79,172.52,-52.25,4,1
18765.109,0.458,0.869,-0.003,-108.31,190.04,-54.66,4,1
18765.125,0.462,0.844,0.014,-112.89,210.43,-57.95,4,1
18765.125,0.441,0.841,0.023,-109.53,227.39,-62.11,4,1
18765.14,0.43,0.84,0.041,-100.34,243.78,-67.2,4,1
18765.156,0.417,0.849,0.049,-87.19,264.11,-74.31,4,1
18765.156,0.37,0.892,0.014,-76.97,281.9,-85.12,4,1
18765.171,0.352,0.911,0.036,-73.67,305.19,-98.12,4,1
18765.187,0.299,0.907,0.093,-73.18,332.13,-111.36,4,1
18765.187,0.188,0.931,0.175,-73.03,352.0,-122.59,4,1
18765.203,0.045,0.957,0.264,-71.72,362.16,-129.37,4,1
18765.218,-0.068,0.96,0.38,-74.89,362.74,-130.44,4,1
18765.218,-0.179,1.019,0.572,-83.29,353.04,-128.57,4,1
18765.234,-0.307,1.078,0.751,-92.23,331.06,-122.96,4,1
18765.25,-0.415,1.134,0.892,-108.43,289.77,-110.69,4,1
18765.25,-0.439,1.18,1.014,-130.31,230.29,-91.1,4,1
18765.265,-0.368,1.154,1.075,-149.51,165.81,-69.98,4,1
18765.281,-0.271,1.117,1.112,-165.99,108.8,-52.83,4,1
18765.281,-0.187,1.079,1.126,-178.23,66.41,-39.77,4,1
18765.296,-0.124,1.0,1.104,-183.69,38.48,-29.11,4,1
18765.296,-0.085,0.905,1.073,-179.78,23.9,-19.96,4,1
18765.312,-0.076,0.832,1.038,-165.29,19.01,-12.42,4,1
18765.328,-0.076,0.808,0.998,-144.99,19.5,-7.26,4,1
18765.328,-0.087,0.797,0.973,-124.42,21.82,-4.24,4,1
18765.343,-0.119,0.775,0.966,-104.77,21.18,-3.69,4,1
18765.359,-0.152,0.762,0.971,-86.15,15.53,-4.52,4,1
18765.359,-0.171,0.775,0.963,-71.78,6.32,-5.34,4,1
18765.375,-0.181,0.777,0.942,-62.84,-4.0,-5.65,4,1
18765.375,-0.187,0.751,0.914,-57.13,-13.03,-5.1,4,1
18765.39,-0.192,0.726,0.878,-52.37,-18.28,-3.17,4,1
18765.406,-0.2,0.717,0.84,-48.07,-19.9,0.12,4,1
18765.406,-0.208,0.698,0.798,-44.28,-17.21,5.04,4,1
18765.437,-0.254,0.65,0.806,-40.1,-6.59,14.04,4,1
18765.437,-0.296,0.64,0.83,-40.65,-4.06,17.4,4,1
18765.453,-0.326,0.609,0.854,-41.51,-5.77,20.72,4,1
18765.453,-0.344,0.601,0.886,-41.84,-9.34,23.47,4,1
18765.468,-0.357,0.611,0.916,-40.99,-13.46,25.64,4,1
18765.484,-0.353,0.605,0.929,-40.53,-18.01,27.22,4,1
18765.484,-0.343,0.597,0.939,-39.74,-20.6,27.5,4,1
18765.5,-0.357,0.6,0.962,-36.87,-21.15,26.0,4,1
18765.515,-0.365,0.599,0.973,-33.11,-21.94,23.9,4,1
18765.531,-0.364,0.617,1.0,-30.37,-22.77,22.06,4,1
18765.531,-0.368,0.627,1.021,-26.58,-23.41,20.84,4,1
18765.546,-0.375,0.618,1.033,-22.28,-25.3,20.84,4,1
18765.546,-0.365,0.606,1.029,-17.94,-28.75,22.74,4,1
18765.562,-0.329,0.604,1.015,-14.74,-32.78,25.12,4,1
18765.578,-0.282,0.592,0.99,-12.76,-35.95,25.97,4,1
18765.578,-0.247,0.573,0.961,-10.41,-37.32,25.54,4,1
18765.609,-0.192,0.553,0.895,-6.5,-32.44,22.74,4,1
18765.609,-0.193,0.55,0.881,-7.02,-27.44,20.51,4,1
18765.625,-0.201,0.54,0.876,-8.36,-23.9,18.46,4,1
18765.625,-0.189,0.529,0.889,-11.23,-23.13,16.48,4,1
18765.64,-0.161,0.529,0.902,-13.15,-23.68,14.16,4,1
18765.656,-0.147,0.529,0.897,-12.54,-21.85,11.9,4,1
18765.656,-0.145,0.522,0.892,-9.22,-15.5,7.51,4,1
18765.671,-0.135,0.505,0.885,-4.09,-10.96,4.73,4,1
18765.687,-0.13,0.498,0.877,4.7,-5.68,2.38,4,1
18765.687,-0.139,0.507,0.862,15.02,-2.08,1.25,4,1
18765.703,-0.155,0.552,0.848,22.95,-0.55,0.64,4,1
18765.703,-0.158,0.584,0.85,25.3,0.34,-0.95,4,1
18765.718,-0.174,0.625,0.853,21.21,-0.79,-2.01,4,1
18765.734,-0.16,0.629,0.854,10.93,-4.09,-1.86,4,1
18765.734,-0.136,0.609,0.85,0.95,-6.38,-0.98,4,1
18765.75,-0.12,0.589,0.824,-2.62,-5.13,1.65,4,1
18765.781,-0.078,0.56,0.783,2.29,8.45,6.9,4,1
18765.781,-0.093,0.566,0.765,7.84,17.37,6.93,4,1
18765.796,-0.108,0.547,0.744,12.36,24.29,5.34,4,1
18765.796,-0.132,0.553,0.738,13.12,30.12,2.72,4,1
18765.812,-0.172,0.578,0.747,10.25,33.6,0.43,4,1
18765.828,-0.213,0.583,0.788,4.03,33.14,-1.01,4,1
18765.828,-0.277,0.597,0.857,-5.4,27.8,-1.86,4,1
18765.843,-0.312,0.621,0.893,-15.59,16.54,0.67,4,1
18765.843,-0.283,0.616,0.896,-24.51,3.75,6.32,4,1
18765.859,-0.194,0.547,0.838,-25.79,-3.6,11.44,4,1
18765.875,-0.128,0.465,0.779,-18.04,-0.79,13.15,4,1
18765.875,-0.192,0.497,0.777,-9.46,7.6,9.55,4,1
18765.89,-0.201,0.526,0.797,-4.76,10.74,7.35,4,1
18765.906,-0.258,0.539,0.814,-4.24,9.8,3.72,4,1
18765.906,-0.263,0.566,0.822,-11.41,4.88,2.11,4,1
18765.921,-0.235,0.558,0.814,-18.62,0.64,1.89,4,1
18765.953,-0.238,0.494,0.792,-17.52,1.92,2.69,4,1
18765.953,-0.233,0.494,0.824,-11.6,3.75,3.42,4,1
18765.953,-0.242,0.51,0.857,-4.21,3.88,2.96,4,1
18765.968,-0.251,0.54,0.881,0.92,1.56,1.65,4,1
18765.984,-0.257,0.584,0.9,4.55,-1.31,1.13,4,1
18765.984,-0.264,0.604,0.893,8.67,-4.79,3.39,4,1
18766.0,-0.25,0.596,0.881,11.05,-9.37,6.5,4,1
18766.015,-0.238,0.589,0.86,13.21,-13.86,8.82,4,1
18766.015,-0.228,0.58,0.842,16.69,-17.3,10.9,4,1
18766.031,-0.223,0.581,0.822,19.07,-19.56,12.7,4,1
18766.046,-0.197,0.582,0.794,17.18,-21.88,13.79,4,1
18766.062,-0.209,0.589,0.791,11.26,-22.68,13.09,4,1
18766.062,-0.139,0.604,0.771,0.92,-24.6,13.03,4,1
18766.062,-0.093,0.514,0.725,-1.56,-21.67,12.57,4,1
18766.078,-0.132,0.487,0.75,-3.66,-15.56,8.42,4,1
18766.093,-0.128,0.576,0.841,-12.45,-14.4,6.68,4,1
18766.109,-0.118,0.464,0.8,-5.04,-15.56,5.55,4,1
18766.125,-0.114,0.495,0.808,-1.62,-13.95,3.63,4,1
18766.125,-0.105,0.512,0.806,1.28,-13.46,1.28,4,1
18766.14,-0.095,0.503,0.802,3.85,-13.46,-0.58,4,1
18766.156,-0.079,0.5,0.778,8.42,-11.57,-1.86,4,1
18766.156,-0.064,0.506,0.747,13.61,-6.47,-3.27,4,1
18766.171,-0.062,0.517,0.728,15.59,0.18,-5.46,4,1
18766.187,-0.062,0.517,0.716,14.71,6.99,-7.97,4,1
18766.187,-0.084,0.523,0.72,11.87,14.1,-10.47,4,1
18766.203,-0.118,0.534,0.752,8.48,19.53,-11.87,4,1
18766.203,-0.16,0.548,0.799,6.01,21.52,-11.9,4,1
18766.218,-0.197,0.558,0.828,3.81,18.95,-10.25,4,1
18766.234,-0.213,0.565,0.862,1.46,12.97,-7.08,4,1
18766.234,-0.21,0.567,0.871,-0.61,5.46,-3.97,4,1
18766.25,-0.193,0.575,0.872,-3.72,-1.71,-1.22,4,1
18766.265,-0.17,0.553,0.857,-4.49,-6.38,0.67,4,1
18766.281,-0.134,0.54,0.812,-4.85,-8.58,0.49,4,1
18766.296,-0.127,0.533,0.804,-4.39,-6.81,-1.4,4,1
18766.296,-0.125,0.534,0.796,-2.87,-4.24,-2.84,4,1
18766.312,-0.127,0.538,0.796,-1.13,-1.16,-3.75,4,1
18766.328,-0.14,0.547,0.802,1.07,2.17,-4.06,4,1
18766.328,-0.164,0.565,0.818,2.35,4.09,-3.63,4,1
18766.343,-0.18,0.571,0.838,1.46,3.27,-2.38,4,1
18766.343,-0.183,0.569,0.843,-0.24,0.85,-0.98,4,1
18766.359,-0.179,0.565,0.84,-1.53,-1.65,0.55,4,1
18766.375,-0.169,0.551,0.83,-1.53,-3.14,1.98,4,1
18766.375,-0.17,0.543,0.819,-1.5,-3.51,2.29,4,1
18766.39,-0.176,0.54,0.815,-2.14,-3.88,1.86,4,1
18766.406,-0.169,0.534,0.808,-3.05,-5.1,1.43,4,1
18766.421,-0.156,0.531,0.799,-3.3,-5.74,0.98,4,1
18766.421,-0.144,0.529,0.788,-3.08,-4.85,0.21,4,1
18766.437,-0.14,0.527,0.787,-2.69,-2.81,-0.58,4,1
18766.453,-0.15,0.542,0.803,-2.2,1.28,-1.19,4,1
18766.453,-0.151,0.543,0.813,-3.02,1.74,-1.13,4,1
18766.468,-0.157,0.541,0.826,-3.97,1.5,-0.85,4,1
18766.484,-0.164,0.544,0.837,-4.46,0.64,0.0,4,1
18766.484,-0.164,0.545,0.843,-4.46,-0.82,0.89,4,1
18766.5,-0.164,0.538,0.846,-3.91,-2.29,1.59,4,1
18766.515,-0.161,0.532,0.844,-2.59,-3.66,1.83,4,1
18766.515,-0.154,0.527,0.835,-0.92,-4.85,1.31,4,1
18766.531,-0.148,0.527,0.825,0.49,-5.28,0.0,4,1
18766.546,-0.143,0.527,0.818,2.08,-4.79,-1.19,4,1
18766.546,-0.151,0.534,0.817,3.88,-3.81,-1.95,4,1
18766.562,-0.158,0.548,0.818,4.73,-3.75,-2.41,4,1
18766.578,-0.165,0.563,0.82,4.73,-4.55,-2.29,4,1
18766.578,-0.166,0.562,0.817,4.36,-6.01,-1.59,4,1
18766.593,-0.155,0.558,0.811,3.75,-7.45,-0.64,4,1
18766.593,-0.139,0.555,0.797,3.45,-7.84,-0.43,4,1
18766.625,-0.133,0.568,0.838,-3.97,-8.67,-4.0,4,1
18766.64,-0.121,0.526,0.814,1.89,-7.97,-1.92,4,1
18766.64,-0.128,0.53,0.795,7.51,-3.2,-1.01,4,1
18766.656,-0.132,0.573,0.806,6.56,-3.02,-2.04,4,1
18766.656,-0.154,0.563,0.816,4.33,-4.7,-2.2,4,1
18766.671,-0.16,0.56,0.813,2.38,-6.29,-1.28,4,1
18766.687,-0.144,0.548,0.801,1.56,-6.68,-0.61,4,1
18766.687,-0.137,0.54,0.794,1.4,-6.44,-0.09,4,1
18766.703,-0.132,0.533,0.786,1.37,-5.77,-0.12,4,1
18766.718,-0.134,0.528,0.787,0.85,-4.55,-0.79,4,1
18766.718,-0.145,0.528,0.787,0.92,-3.6,-1.68,4,1
18766.734,-0.149,0.537,0.792,1.34,-3.48,-2.11,4,1
18766.734,-0.147,0.539,0.794,1.98,-3.85,-2.41,4,1
18766.75,-0.142,0.539,0.787,2.01,-3.78,-3.17,4,1
18766.765,-0.131,0.538,0.78,1.86,-3.23,-4.03,4,1
18766.765,-0.131,0.538,0.772,2.75,-1.22,-4.64,4,1
18766.781,-0.135,0.534,0.77,3.66,1.16,-5.04,4,1
18766.796,-0.143,0.537,0.78,3.63,2.84,-5.25,4,1
18766.796,-0.163,0.546,0.79,3.6,3.48,-5.34,4,1
18766.812,-0.174,0.549,0.795,3.05,2.66,-4.46,4,1
18766.828,-0.166,0.549,0.8,1.46,0.95,-2.99,4,1
18766.828,-0.156,0.544,0.793,0.49,-0.27,-1.98,4,1
18766.843,-0.15,0.533,0.782,1.07,-0.24,-1.56,4,1
18766.859,-0.146,0.525,0.775,3.14,0.92,-1.86,4,1
18766.859,-0.149,0.517,0.773,5.58,2.59,-2.84,4,1
18766.875,-0.151,0.523,0.774,6.47,4.09,-4.33,4,1
18766.875,-0.15,0.519,0.776,6.99,5.37,-5.77,4,1
18766.89,-0.146,0.501,0.775,8.58,7.17,-7.11,4,1
18766.906,-0.147,0.514,0.791,10.77,9.92,-8.36,4,1
18766.906,-0.15,0.552,0.823,11.87,11.81,-9.67,4,1
18766.921,-0.14,0.567,0.832,13.0,12.12,-11.35,4,1
18766.937,-0.123,0.548,0.813,14.44,13.09,-13.52,4,1
18766.937,-0.235,0.602,0.851,12.15,14.95,-16.6,4,1
18766.953,-0.209,0.729,0.908,1.13,9.34,-12.18,4,1
18766.968,-0.186,0.686,0.892,-0.95,3.48,-4.73,4,1
18766.968,-0.203,0.651,0.864,-4.79,0.4,-0.31,4,1
18766.984,-0.181,0.621,0.847,-8.88,-3.14,3.11,4,1
18766.984,-0.177,0.555,0.826,-6.81,-5.43,4.0,4,1
18767.0,-0.171,0.533,0.81,-3.3,-7.26,3.6,4,1
18767.015,-0.158,0.546,0.804,1.37,-7.72,2.72,4,1
18767.015,-0.166,0.548,0.799,5.89,-7.63,1.1,4,1
18767.031,-0.173,0.553,0.796,6.56,-8.24,0.15,4,1
18767.046,-0.168,0.566,0.795,5.37,-9.19,0.06,4,1
18767.062,-0.182,0.58,0.804,3.91,-9.22,0.15,4,1
18767.062,-0.188,0.61,0.817,0.18,-10.71,1.92,4,1
18767.062,-0.101,0.556,0.769,-1.62,-11.72,5.34,4,1
18767.078,-0.155,0.497,0.758,2.29,-6.71,2.53,4,1
18767.093,-0.15,0.548,0.777,-0.06,-4.49,0.98,4,1
18767.093,-0.134,0.529,0.771,0.79,-3.94,-0.61,4,1
18767.109,-0.147,0.524,0.773,2.14,-1.68,-2.29,4,1
18767.125,-0.152,0.549,0.782,1.65,-0.12,-2.99,4,1
18767.125,-0.156,0.551,0.786,0.73,0.67,-3.48,4,1
18767.14,-0.156,0.549,0.792,-0.12,1.19,-3.27,4,1
18767.156,-0.166,0.553,0.8,-0.03,1.37,-2.87,4,1
18767.156,-0.168,0.55,0.801,1.01,0.67,-2.2,4,1
18767.171,-0.163,0.553,0.798,1.95,-0.24,-1.74,4,1
18767.187,-0.163,0.558,0.797,2.87,-1.07,-1.98,4,1
18767.187,-0.164,0.557,0.791,3.2,-1.77,-2.14,4,1
18767.203,-0.164,0.559,0.784,3.02,-1.86,-2.29,4,1
18767.203,-0.159,0.557,0.779,2.35,-1.59,-2.29,4,1
18767.218,-0.155,0.554,0.774,1.86,-0.52,-2.35,4,1
18767.234,-0.156,0.555,0.775,1.34,1.07,-2.47,4,1
18767.234,-0.155,0.561,0.78,1.13,2.78,-2.29,4,1
18767.25,-0.156,0.564,0.783,0.98,4.33,-2.01,4,1
18767.265,-0.16,0.568,0.793,1.04,5.74,-1.59,4,1
18767.281,-0.172,0.574,0.806,0.98,6.41,-1.19,4,1
18767.281,-0.177,0.569,0.81,0.58,5.4,-0.7,4,1
18767.296,-0.171,0.565,0.808,0.55,3.91,-0.31,4,1
18767.296,-0.178,0.564,0.802,0.64,2.78,-0.49,4,1
18767.312,-0.179,0.56,0.797,0.21,0.98,-0.73,4,1
18767.328,-0.171,0.556,0.788,0.06,-0.52,-0.95,4,1
18767.328,-0.166,0.562,0.78,0.7,-0.64,-0.89,4,1
18767.343,-0.168,0.568,0.778,0.98,-0.24,-0.98,4,1
18767.343,-0.169,0.565,0.781,0.61,0.15,-0.76,4,1
18767.359,-0.167,0.569,0.782,0.03,0.73,-0.37,4,1
18767.375,-0.169,0.571,0.784,-0.31,1.31,-0.15,4,1
18767.375,-0.168,0.566,0.785,-0.18,1.71,0.09,4,1
18767.39,-0.169,0.565,0.792,0.34,1.95,0.58,4,1
18767.406,-0.169,0.567,0.797,0.85,1.92,1.07,4,1
18767.406,-0.173,0.564,0.794,0.98,1.74,1.43,4,1
18767.421,-0.172,0.56,0.794,0.55,1.28,1.59,4,1
18767.437,-0.169,0.555,0.79,0.06,0.64,1.46,4,1
18767.437,-0.174,0.557,0.787,-0.43,0.58,0.95,4,1
18767.453,-0.189,0.566,0.794,-1.16,0.03,0.92,4,1
18767.453,-0.182,0.563,0.795,-2.29,-1.89,1.59,4,1
18767.484,-0.167,0.559,0.785,-3.66,-3.51,0.85,4,1
18767.5,-0.168,0.558,0.784,-3.6,-3.05,0.21,4,1
18767.5,-0.165,0.56,0.783,-3.23,-2.44,-0.15,4,1
18767.515,-0.164,0.563,0.784,-2.5,-1.62,-0.58,4,1
18767.515,-0.168,0.565,0.789,-2.01,-0.61,-0.82,4,1
18767.531,-0.175,0.567,0.796,-1.56,-0.03,-1.46,4,1
18767.546,-0.178,0.57,0.8,-1.07,-0.21,-1.46,4,1
18767.546,-0.181,0.577,0.803,-0.52,-0.67,-1.37,4,1
18767.562,-0.174,0.578,0.803,-0.18,-1.31,-1.19,4,1
18767.578,-0.171,0.578,0.799,-0.18,-1.53,-1.43,4,1
18767.578,-0.173,0.578,0.8,0.12,-1.16,-1.59,4,1
18767.593,-0.175,0.578,0.805,0.37,-1.01,-1.31,4,1
18767.593,-0.169,0.578,0.801,0.15,-1.22,-0.95,4,1
18767.609,-0.167,0.575,0.8,-0.27,-1.16,-0.67,4,1
18767.625,-0.171,0.567,0.799,-0.76,-0.95,-0.27,4,1
18767.625,-0.169,0.56,0.798,-1.4,-1.43,-0.09,4,1
18767.656,-0.17,0.549,0.792,-0.4,-2.01,-0.61,4,1
18767.656,-0.164,0.548,0.781,0.21,-1.37,-0.95,4,1
18767.671,-0.171,0.554,0.781,0.61,-1.07,-1.19,4,1
18767.687,-0.17,0.556,0.78,0.21,-1.43,-1.1,4,1
18767.687,-0.171,0.553,0.784,-0.67,-1.68,-0.92,4,1
18767.703,-0.175,0.54,0.787,-0.43,-2.2,-0.49,4,1
18767.718,-0.177,0.526,0.787,1.92,-2.35,0.31,4,1
18767.718,-0.182,0.531,0.796,6.71,-2.2,1.4,4,1
18767.734,-0.177,0.537,0.796,12.45,-2.99,2.08,4,1
18767.734,-0.177,0.508,0.783,18.83,-2.99,0.67,4,1
18767.75,-0.186,0.519,0.764,25.03,-2.2,-1.65,4,1
18767.765,-0.133,0.482,0.72,37.23,0.55,-1.46,4,1
18767.765,-0.268,0.463,0.757,54.29,5.13,-4.33,4,1
18767.781,-0.281,0.592,0.773,58.87,0.55,-4.67,4,1
18767.796,-0.205,0.575,0.741,65.25,-5.34,-1.28,4,1
18767.796,-0.26,0.533,0.729,69.25,-7.63,-3.88,4,1
18767.828,-0.177,0.685,0.695,52.58,-15.66,-3.11,4,1
18767.843,-0.175,0.713,0.694,39.64,-13.12,-1.89,4,1
18767.843,-0.179,0.769,0.712,22.0,-9.34,2.62,4,1
18767.859,-0.171,0.81,0.727,1.43,-6.68,9.31,4,1
18767.859,-0.163,0.79,0.759,-19.29,-5.55,14.71,4,1
18767.875,-0.19,0.75,0.803,-36.04,-6.62,17.3,4,1
18767.89,-0.158,0.728,0.828,-46.02,-10.41,20.91,4,1
18767.89,-0.075,0.61,0.815,-47.79,-11.9,20.48,4,1
18767.906,-0.125,0.574,0.823,-42.7,-11.32,12.36,4,1
18767.906,-0.12,0.569,0.856,-32.81,-11.54,7.51,4,1
18767.921,-0.113,0.549,0.849,-18.56,-14.01,2.5,4,1
18767.937,-0.11,0.553,0.829,-4.61,-15.2,-1.74,4,1
18767.937,-0.103,0.575,0.811,6.16,-14.68,-4.55,4,1
18767.953,-0.091,0.576,0.788,13.49,-13.95,-6.53,4,1
18767.968,-0.086,0.584,0.76,16.63,-11.99,-8.42,4,1
18767.968,-0.091,0.599,0.751,15.78,-9.37,-10.04,4,1
18767.984,-0.1,0.597,0.742,9.64,-5.4,-11.63,4,1
18768.0,-0.1,0.598,0.74,6.23,-3.63,-11.47,4,1
18768.015,-0.103,0.598,0.745,3.48,-1.5,-11.54,4,1
18768.015,-0.118,0.596,0.751,2.04,0.55,-11.87,4,1
18768.031,-0.134,0.6,0.763,2.35,1.46,-11.47,4,1
18768.046,-0.137,0.605,0.771,3.36,1.34,-10.74,4,1
18768.046,-0.141,0.609,0.778,4.46,0.49,-10.35,4,1
18768.062,-0.141,0.608,0.768,6.13,-0.06,-10.07,4,1
18768.078,-0.141,0.61,0.762,7.66,-0.15,-9.8,4,1
18768.078,-0.142,0.614,0.757,8.3,0.18,-9.74,4,1
18768.093,-0.135,0.617,0.75,7.84,0.67,-9.61,4,1
18768.109,-0.143,0.618,0.745,7.02,1.86,-9.52,4,1
18768.109,-0.151,0.619,0.747,4.97,2.56,-9.03,4,1
18768.125,-0.147,0.617,0.751,2.41,2.75,-8.09,4,1
18768.125,-0.153,0.608,0.755,1.4,3.33,-7.29,4,1
18768.14,-0.16,0.605,0.755,1.34,3.85,-6.5,4,1
18768.156,-0.158,0.589,0.748,1.5,3.91,-5.04,4,1
18768.171,-0.161,0.584,0.739,2.2,4.73,-4.73,4,1
18768.187,-0.163,0.586,0.737,3.2,6.1,-4.88,4,1
18768.187,-0.172,0.59,0.741,4.0,7.26,-5.4,4,1
18768.203,-0.191,0.604,0.752,3.88,7.45,-5.68,4,1
18768.203,-0.199,0.619,0.754,1.95,6.01,-5.43,4,1
18768.218,-0.195,0.615,0.746,-0.03,3.88,-4.36,4,1
18768.234,-0.19,0.613,0.742,-1.34,2.78,-3.3,4,1
18768.234,-0.188,0.614,0.738,-1.98,2.81,-2.56,4,1
18768.25,-0.191,0.609,0.737,-1.95,2.99,-1.89,4,1
18768.265,-0.193,0.61,0.74,-1.28,3.11,-1.31,4,1
18768.265,-0.196,0.621,0.743,-0.34,3.33,-0.64,4,1
18768.281,-0.196,0.621,0.744,0.7,3.17,-0.31,4,1
18768.296,-0.196,0.623,0.742,1.13,2.78,-0.31,4,1
18768.296,-0.198,0.628,0.741,0.85,2.11,-0.34,4,1
18768.312,-0.2,0.627,0.738,-0.15,1.4,-0.18,4,1
18768.328,-0.187,0.607,0.724,-1.22,0.4,0.31,4,1
18768.343,-0.186,0.606,0.732,-1.07,0.67,0.43,4,1
18768.343,-0.193,0.616,0.743,-0.61,0.52,0.46,4,1
18768.359,-0.198,0.625,0.756,-0.76,-0.76,1.1,4,1
18768.375,-0.181,0.622,0.754,-1.71,-2.84,1.71,4,1
18768.375,-0.165,0.616,0.748,-2.44,-3.94,1.53,4,1
18768.39,-0.161,0.618,0.745,-2.08,-3.51,0.64,4,1
18768.406,-0.161,0.618,0.744,-1.34,-2.66,-0.37,4,1
18768.406,-0.164,0.611,0.745,-0.18,-2.04,-0.98,4,1
18768.421,-0.168,0.617,0.744,1.53,-1.46,-0.95,4,1
18768.421,-0.17,0.621,0.745,3.02,-1.46,-0.46,4,1
18768.437,-0.17,0.617,0.746,3.27,-1.89,-0.61,4,1
18768.453,-0.171,0.618,0.746,2.75,-2.29,-0.85,4,1
18768.468,-0.169,0.616,0.744,1.98,-2.9,-0.85,4,1
18768.468,-0.163,0.621,0.743,1.04,-3.08,-1.04,4,1
18768.484,-0.157,0.622,0.743,0.15,-2.72,-1.43,4,1
18768.484,-0.163,0.617,0.745,-0.21,-2.08,-1.8,4,1
18768.5,-0.17,0.619,0.752,-0.43,-1.83,-1.77,4,1
18768.515,-0.173,0.62,0.754,-0.43,-2.35,-1.31,4,1
18768.515,-0.169,0.622,0.753,-0.52,-2.78,-0.85,4,1
18768.531,-0.169,0.61,0.748,-0.49,-3.02,-1.13,4,1
18768.546,-0.168,0.608,0.745,-0.52,-2.81,-1.95,4,1
18768.562,-0.168,0.62,0.746,-0.43,-1.77,-2.41,4,1
18768.562,-0.178,0.62,0.751,-0.21,-1.01,-2.72,4,1
18768.578,-0.184,0.618,0.754,-0.12,-0.67,-2.62,4,1
18768.578,-0.184,0.618,0.755,-0.03,-0.98,-2.29,4,1
18768.593,-0.183,0.616,0.755,-0.15,-1.46,-1.83,4,1
18768.593,-0.177,0.609,0.751,-0.7,-1.68,-1.77,4,1
18768.609,-0.176,0.604,0.745,-2.66,-1.43,-2.44,4,1
18768.625,-0.182,0.602,0.751,-2.9,-1.46,-2.53,4,1
18768.64,-0.187,0.602,0.752,-3.39,-1.68,-2.35,4,1
18768.64,-0.182,0.602,0.743,-4.0,-1.25,-2.75,4,1
18768.656,-0.182,0.587,0.741,-3.51,-0.18,-3.14,4,1
18768.656,-0.186,0.58,0.744,-1.56,0.67,-3.02,4,1
18768.671,-0.183,0.582,0.746,1.37,1.37,-2.59,4,1
18768.687,-0.186,0.57,0.752,5.49,2.47,-3.23,4,1
18768.687,-0.189,0.547,0.748,9.49,2.87,-5.19,4,1
18768.703,-0.191,0.538,0.739,13.09,2.9,-7.75,4,1
18768.703,-0.149,0.51,0.728,17.94,3.33,-10.41,4,1
18768.718,-0.236,0.494,0.742,25.18,5.16,-15.38,4,1
18768.734,-0.277,0.594,0.803,26.7,1.5,-15.63,4,1
18768.734,-0.221,0.631,0.789,29.54,-6.41,-10.13,4,1
18768.75,-0.2,0.659,0.741,28.72,-9.37,-6.87,4,1
18768.765,-0.173,0.733,0.724,21.15,-7.05,-2.41,4,1
18768.765,-0.164,0.773,0.706,9.74,-3.02,2.35,4,1
18768.781,-0.146,0.744,0.695,-4.7,1.59,6.13,4,1
18768.796,-0.152,0.708,0.711,-17.46,6.87,7.6,4,1
18768.796,-0.142,0.699,0.745,-23.38,11.02,8.12,4,1
18768.812,-0.176,0.691,0.783,-22.28,15.11,6.5,4,1
18768.828,-0.208,0.65,0.828,-19.38,14.44,5.04,4,1
18768.828,-0.215,0.636,0.857,-15.81,9.37,4.0,4,1
18768.843,-0.213,0.62,0.855,-10.1,2.9,2.53,4,1
18768.843,-0.204,0.6,0.833,-4.06,-2.81,0.92,4,1
18768.859,-0.197,0.606,0.806,1.13,-6.81,-0.37,4,1
18768.875,-0.224,0.659,0.802,3.57,-9.67,-1.1,4,1
18768.875,-0.137,0.65,0.758,1.16,-13.09,1.83,4,1
18768.89,-0.124,0.588,0.705,-0.58,-10.86,-0.98,4,1
18768.906,-0.17,0.611,0.719,-0.49,-4.91,-3.14,4,1
18768.906,-0.174,0.613,0.732,1.71,-3.11,-2.72,4,1
18768.921,-0.185,0.604,0.728,3.2,-2.66,-2.9,4,1
18768.937,-0.174,0.602,0.731,3.78,-2.81,-2.84,4,1
18768.937,-0.174,0.593,0.788,3.91,-2.87,-3.45,4,1
18768.953,-0.17,0.61,0.803,3.17,-4.79,-3.91,4,1
18768.953,-0.176,0.604,0.795,8.03,-5.01,-2.69,4,1
18768.968,-0.196,0.625,0.814,11.57,-4.46,-1.68,4,1
18768.984,-0.195,0.631,0.815,12.3,-7.02,-1.31,4,1
18768.984,-0.196,0.624,0.808,13.61,-9.34,-2.44,4,1
18769.0,-0.202,0.628,0.809,16.91,-9.74,-4.21,4,1
18769.015,-0.211,0.653,0.82,21.79,-8.42,-6.2,4,1
18769.015,-0.239,0.68,0.84,28.35,-4.94,-8.15,4,1
18769.031,-0.278,0.708,0.87,35.46,-0.49,-9.22,4,1
18769.046,-0.33,0.739,0.895,42.39,2.66,-9.28,4,1
18769.046,-0.403,0.757,0.922,47.61,-0.73,-7.72,4,1
18769.062,-0.395,0.818,0.968,51.21,-6.9,-5.46,4,1
18769.078,-0.462,0.844,0.984,53.16,-11.57,-6.81,4,1
18769.078,-0.469,0.842,1.009,48.16,-24.29,-6.74,4,1
18769.093,-0.449,0.863,1.038,44.92,-37.48,-8.7,4,1
18769.109,-0.447,0.854,1.046,50.33,-46.94,-11.78,4,1
18769.109,-0.433,0.858,1.061,60.88,-53.99,-14.16,4,1
18769.125,-0.428,0.856,1.056,77.12,-58.26,-16.57,4,1
18769.125,-0.424,0.856,1.032,96.29,-60.49,-18.49,4,1
18769.14,-0.427,0.872,1.018,114.17,-61.28,-19.93,4,1
18769.156,-0.449,0.867,0.989,128.03,-64.33,-21.27,4,1
18769.156,-0.426,0.892,0.976,136.2,-70.62,-22.13,4,1
18769.187,-0.421,0.915,0.947,141.54,-85.76,-25.18,4,1
18769.187,-0.42,0.933,0.936,140.35,-95.58,-24.75,4,1
18769.203,-0.392,0.947,0.912,139.62,-106.14,-23.5,4,1
18769.218,-0.365,0.963,0.875,139.96,-114.69,-22.55,4,1
18769.218,-0.351,0.955,0.824,142.31,-120.82,-21.3,4,1
18769.234,-0.347,0.932,0.767,147.34,-125.37,-18.25,4,1
18769.25,-0.321,0.934,0.7,151.4,-129.0,-13.25,4,1
18769.25,-0.298,0.969,0.656,152.44,-131.57,-9.67,4,1
18769.265,-0.282,0.951,0.603,154.36,-134.25,-8.12,4,1
18769.265,-0.268,0.935,0.546,154.33,-137.06,-7.02,4,1
18769.281,-0.272,0.923,0.493,152.78,-140.78,-6.1,4,1
18769.296,-0.246,0.908,0.448,152.23,-145.02,-5.04,4,1
18769.296,-0.227,0.9,0.403,153.72,-148.47,-3.88,4,1
18769.312,-0.206,0.887,0.345,156.68,-150.33,-1.46,4,1
18769.328,-0.178,0.89,0.292,160.83,-149.17,1.37,4,1
18769.328,-0.153,0.904,0.233,167.52,-145.27,3.23,4,1
18769.343,-0.145,0.911,0.179,173.25,-139.99,4.0,4,1
18769.359,-0.14,0.927,0.144,174.99,-135.9,5.31,4,1
18769.359,-0.141,0.943,0.108,173.53,-132.18,7.57,4,1
18769.375,-0.146,0.971,0.083,168.68,-129.92,11.75,4,1
18769.39,-0.13,0.994,0.047,160.71,-128.45,16.88,4,1
18769.39,-0.093,0.995,0.001,148.84,-126.62,21.7,4,1
18769.406,-0.093,0.984,-0.024,136.88,-122.62,26.61,4,1
18769.421,-0.108,0.982,-0.027,129.09,-118.32,32.53,4,1
18769.421,-0.09,0.954,-0.069,123.08,-115.33,41.44,4,1
18769.437,-0.073,0.95,-0.102,112.77,-111.61,52.46,4,1
18769.453,-0.091,0.948,-0.111,101.81,-108.1,64.36,4,1
18769.453,-0.068,0.929,-0.141,89.08,-108.07,75.69,4,1
18769.468,-0.036,0.938,-0.141,71.38,-110.39,84.29,4,1
18769.468,-0.014,0.898,-0.159,56.83,-112.52,89.11,4,1
18769.484,0.022,0.857,-0.175,43.03,-115.12,92.72,4,1
18769.484,0.036,0.834,-0.164,31.59,-116.61,94.09,4,1
18769.5,0.073,0.802,-0.169,26.34,-118.14,92.59,4,1
18769.515,0.121,0.774,-0.186,25.18,-116.64,91.07,4,1
18769.515,0.133,0.766,-0.196,25.88,-111.7,89.69,4,1
18769.531,0.129,0.76,-0.201,27.99,-107.88,88.41,4,1
18769.546,0.116,0.766,-0.211,30.55,-105.9,86.92,4,1
18769.546,0.117,0.787,-0.191,31.56,-106.48,85.79,4,1
18769.562,0.117,0.802,-0.168,32.65,-108.68,85.12,4,1
18769.578,0.13,0.797,-0.172,33.2,-114.44,85.48,4,1
18769.578,0.169,0.786,-0.183,31.31,-119.91,88.78,4,1
18769.593,0.209,0.78,-0.202,19.87,-122.04,99.73,4,1
18769.593,0.257,0.777,-0.233,11.75,-118.84,102.42,4,1
18769.609,0.291,0.755,-0.256,6.26,-113.44,103.34,4,1
18769.625,0.294,0.718,-0.262,3.6,-107.85,105.23,4,1
18769.625,0.301,0.687,-0.282,-2.26,-101.32,109.01,4,1
18769.64,0.311,0.685,-0.256,-11.51,-96.5,109.99,4,1
18769.656,0.32,0.685,-0.228,-21.18,-93.08,108.74,4,1
18769.656,0.331,0.684,-0.197,-29.66,-90.76,105.44,4,1
18769.687,0.334,0.669,-0.099,-34.67,-89.57,92.2,4,1
18769.687,0.326,0.658,-0.083,-29.02,-91.65,85.33,4,1
18769.703,0.339,0.667,-0.101,-21.76,-94.97,79.71,4,1
18769.703,0.361,0.688,-0.135,-16.3,-97.99,73.85,4,1
18769.718,0.363,0.694,-0.167,-14.89,-99.86,67.2,4,1
18769.734,0.347,0.687,-0.19,-17.67,-101.29,62.14,4,1
18769.75,0.342,0.692,-0.207,-22.61,-103.06,59.08,4,1
18769.75,0.348,0.679,-0.245,-27.68,-104.86,57.01,4,1
18769.765,0.345,0.667,-0.272,-33.11,-105.84,55.67,4,1
18769.765,0.356,0.651,-0.304,-38.36,-106.48,55.33,4,1
18769.781,0.378,0.626,-0.335,-42.79,-105.14,55.15,4,1
18769.796,0.397,0.61,-0.35,-44.5,-101.6,53.9,4,1
18769.796,0.418,0.6,-0.371,-42.79,-96.35,50.75,4,1
18769.812,0.418,0.593,-0.391,-40.59,-90.82,44.92,4,1
18769.828,0.422,0.581,-0.406,-39.31,-85.63,38.24,4,1
18769.828,0.428,0.581,-0.413,-38.45,-80.39,30.82,4,1
18769.843,0.421,0.595,-0.419,-37.26,-74.98,23.16,4,1
18769.843,0.42,0.603,-0.414,-38.42,-69.55,16.69,4,1
18769.859,0.412,0.604,-0.396,-42.02,-64.27,11.87,4,1
18769.875,0.395,0.621,-0.363,-44.68,-59.57,8.06,4,1
18769.875,0.374,0.642,-0.332,-45.08,-56.95,3.72,4,1
18769.89,0.349,0.663,-0.316,-43.0,-56.31,-0.73,4,1
18769.906,0.334,0.691,-0.312,-38.76,-57.25,-4.85,4,1
18769.906,0.337,0.714,-0.334,-34.18,-59.27,-8.76,4,1
18769.921,0.346,0.738,-0.362,-30.95,-60.4,-12.36,4,1
18769.937,0.346,0.777,-0.381,-26.92,-60.0,-16.24,4,1
18769.937,0.346,0.799,-0.396,-22.43,-58.9,-19.2,4,1
18769.953,0.348,0.811,-0.417,-18.86,-57.1,-20.11,4,1
18769.968,0.357,0.825,-0.428,-16.05,-54.32,-20.39,4,1
18769.968,0.356,0.835,-0.431,-11.93,-50.6,-21.03,4,1
18769.984,0.34,0.846,-0.424,-6.87,-47.12,-22.25,4,1
18769.984,0.336,0.851,-0.42,-2.69,-44.92,-23.44,4,1
18770.0,0.343,0.856,-0.421,0.55,-43.31,-24.75,4,1
18770.015,0.358,0.844,-0.424,3.23,-41.54,-25.03,4,1
18770.015,0.378,0.844,-0.436,5.01,-39.25,-24.9,4,1
18770.031,0.386,0.856,-0.44,4.0,-34.88,-24.02,4,1
18770.046,0.379,0.853,-0.422,1.31,-30.09,-23.1,4,1
18770.046,0.378,0.839,-0.398,0.27,-25.42,-21.24,4,1
18770.062,0.384,0.833,-0.389,2.56,-20.39,-18.92,4,1
18770.078,0.389,0.831,-0.38,4.82,-15.5,-17.64,4,1
18770.078,0.393,0.806,-0.366,6.04,-11.32,-17.33,4,1
18770.093,0.402,0.791,-0.344,7.45,-7.63,-18.13,4,1
18770.109,0.404,0.773,-0.321,10.25,-5.28,-21.15,4,1
18770.109,0.404,0.764,-0.295,14.28,-4.49,-26.28,4,1
18770.125,0.394,0.779,-0.279,19.99,-5.04,-33.42,4,1
18770.125,0.361,0.807,-0.277,25.33,-6.59,-39.09,4,1
18770.14,0.344,0.844,-0.288,28.38,-9.77,-41.17,4,1
18770.156,0.344,0.884,-0.311,28.69,-12.82,-40.53,4,1
18770.156,0.336,0.919,-0.335,26.12,-13.98,-38.12,4,1
18770.171,0.332,0.937,-0.348,22.0,-13.76,-33.54,4,1
18770.187,0.32,0.954,-0.357,18.68,-11.99,-27.68,4,1
18770.203,0.298,0.961,-0.36,16.51,-9.13,-21.09,4,1
18770.203,0.283,0.968,-0.361,14.16,-5.95,-13.76,4,1
18770.218,0.274,0.972,-0.358,10.59,-3.08,-6.62,4,1
18770.218,0.267,0.961,-0.347,6.16,-1.01,-0.95,4,1
18770.234,0.266,0.937,-0.33,2.26,0.24,4.03,4,1
18770.234,0.274,0.918,-0.324,-0.24,0.92,8.73,4,1
18770.25,0.289,0.9,-0.323,-2.38,1.1,12.73,4,1
18770.265,0.31,0.876,-0.321,-4.58,1.04,15.56,4,1
18770.265,0.326,0.862,-0.322,-5.46,0.95,16.11,4,1
18770.281,0.331,0.85,-0.322,-4.55,1.16,14.4,4,1
18770.296,0.325,0.839,-0.32,-2.29,1.22,11.47,4,1
18770.296,0.319,0.831,-0.318,1.16,1.16,7.78,4,1
18770.312,0.314,0.836,-0.314,5.31,1.68,4.24,4,1
18770.328,0.305,0.851,-0.312,8.24,2.2,1.28,4,1
18770.328,0.299,0.862,-0.308,8.0,2.11,-0.09,4,1
18770.343,0.301,0.868,-0.3,4.97,1.68,0.7,4,1
18770.343,0.307,0.872,-0.296,0.89,1.43,4.03,4,1
18770.359,0.311,0.871,-0.293,-3.94,1.28,8.82,4,1
18770.375,0.321,0.87,-0.29,-8.67,1.1,13.64,4,1
18770.39,0.326,0.873,-0.291,-13.12,1.62,17.76,4,1
18770.39,0.329,0.869,-0.289,-17.24,1.95,20.2,4,1
18770.406,0.328,0.857,-0.284,-19.29,1.86,21.12,4,1
18770.406,0.329,0.849,-0.276,-18.92,1.19,20.02,4,1
18770.421,0.335,0.847,-0.269,-16.69,0.31,16.69,4,1
18770.437,0.345,0.836,-0.262,-13.31,-1.62,12.27,4,1
18770.437,0.361,0.842,-0.258,-8.3,-3.57,7.51,4,1
18770.453,0.368,0.857,-0.265,-2.38,-5.13,2.47,4,1
18770.453,0.366,0.872,-0.275,1.13,-6.5,-1.83,4,1
18770.468,0.366,0.877,-0.283,1.68,-7.51,-4.43,4,1
18770.484,0.367,0.881,-0.293,1.71,-7.26,-5.07,4,1
18770.484,0.364,0.887,-0.307,1.86,-6.01,-3.75,4,1
18770.5,0.361,0.897,-0.319,0.31,-4.21,-0.95,4,1
18770.515,0.358,0.9,-0.313,-2.69,-2.08,1.71,4,1
18770.515,0.354,0.889,-0.297,-5.34,-0.12,4.64,4,1
18770.531,0.355,0.886,-0.284,-6.78,0.82,7.6,4,1
18770.546,0.356,0.884,-0.277,-6.84,1.1,9.55,4,1
18770.546,0.344,0.883,-0.278,-7.23,0.89,11.05,4,1
18770.562,0.347,0.882,-0.279,-8.76,0.4,12.97,4,1
18770.578,0.348,0.882,-0.279,-10.74,0.24,14.5,4,1
18770.578,0.348,0.873,-0.278,-15.05,0.49,15.87,4,1
18770.593,0.363,0.867,-0.276,-15.32,1.28,15.35,4,1
18770.593,0.376,0.864,-0.267,-14.47,2.84,15.53,4,1
18770.609,0.38,0.859,-0.255,-13.89,4.27,16.27,4,1
18770.625,0.379,0.859,-0.248,-13.46,4.94,17.0,4,1
18770.625,0.374,0.855,-0.243,-13.4,4.73,17.37,4,1
18770.64,0.373,0.853,-0.234,-13.12,3.48,17.55,4,1
18770.656,0.373,0.85,-0.227,-12.82,1.59,17.12,4,1
18770.671,0.367,0.854,-0.219,-13.67,-0.82,16.14,4,1
18770.671,0.366,0.86,-0.219,-15.08,-3.88,15.05,4,1
18770.687,0.374,0.854,-0.217,-16.33,-7.05,14.16,4,1
18770.687,0.379,0.85,-0.22,-16.08,-9.43,13.31,4,1
18770.703,0.382,0.852,-0.229,-15.2,-11.66,12.18,4,1
18770.718,0.387,0.852,-0.243,-14.07,-13.67,10.22,4,1
18770.718,0.395,0.843,-0.252,-11.47,-15.14,7.45,4,1
18770.734,0.39,0.849,-0.257,-6.99,-15.81,4.61,4,1
18770.734,0.402,0.859,-0.285,-2.04,-16.02,2.44,4,1
18770.75,0.419,0.865,-0.304,0.92,-14.89,1.68,4,1
18770.765,0.441,0.877,-0.321,0.89,-13.43,1.34,4,1
18770.765,0.417,0.848,-0.325,-0.61,-11.41,2.23,4,1
18770.781,0.432,0.841,-0.319,-2.2,-11.05,5.49,4,1
18770.796,0.445,0.855,-0.323,-2.01,-11.11,6.99,4,1
18770.796,0.434,0.836,-0.334,-2.44,-11.17,7.66,4,1
18770.812,0.426,0.836,-0.348,-3.48,-12.02,8.61,4,1
18770.828,0.423,0.82,-0.363,-3.45,-12.54,10.62,4,1
18770.828,0.427,0.808,-0.373,-1.68,-11.81,12.73,4,1
18770.843,0.433,0.8,-0.382,1.65,-10.8,13.4,4,1
18770.843,0.438,0.778,-0.395,4.12,-9.34,13.64,4,1
18770.859,0.45,0.768,-0.402,5.95,-7.63,12.91,4,1
18770.875,0.457,0.773,-0.401,7.78,-5.19,10.86,4,1
18770.875,0.465,0.769,-0.389,8.85,-2.59,8.33,4,1
18770.89,0.452,0.774,-0.372,10.99,-0.03,5.52,4,1
18770.906,0.438,0.771,-0.364,13.82,1.28,4.49,4,1
18770.906,0.436,0.767,-0.368,16.27,0.27,4.73,4,1
18770.921,0.451,0.756,-0.382,18.4,-0.98,6.93,4,1
18770.937,0.472,0.746,-0.405,18.22,-1.07,10.16,4,1
18770.937,0.48,0.747,-0.414,15.44,0.85,13.06,4,1
18770.953,0.473,0.735,-0.409,11.29,3.69,15.29,4,1
18770.968,0.444,0.733,-0.395,6.38,6.65,17.03,4,1
18770.968,0.426,0.732,-0.387,2.78,8.24,17.03,4,1
18770.984,0.41,0.723,-0.379,1.65,8.91,15.72,4,1
18770.984,0.403,0.725,-0.379,2.66,8.51,13.25,4,1
18771.0,0.418,0.734,-0.381,4.7,8.18,8.45,4,1
18771.015,0.425,0.745,-0.382,6.96,8.61,2.38,4,1
18771.015,0.423,0.746,-0.375,7.93,9.03,-2.2,4,1
18771.031,0.434,0.754,-0.374,8.21,9.28,-3.27,4,1
18771.046,0.438,0.772,-0.381,6.53,9.7,-1.19,4,1
18771.062,0.45,0.777,-0.387,1.83,10.8,3.69,4,1
18771.062,0.449,0.792,-0.396,-7.23,14.34,13.52,4,1
18771.078,0.424,0.836,-0.388,-21.58,18.92,25.97,4,1
18771.078,0.419,0.854,-0.357,-37.08,22.06,36.07,4,1
18771.093,0.411,0.835,-0.316,-47.03,24.23,41.63,4,1
18771.093,0.415,0.814,-0.295,-46.78,24.48,42.18,4,1
18771.109,0.433,0.808,-0.296,-40.04,23.07,37.54,4,1
18771.125,0.454,0.802,-0.31,-30.82,20.78,27.28,4,1
18771.14,0.472,0.808,-0.316,-19.81,18.92,13.76,4,1
18771.14,0.475,0.825,-0.33,-8.45,18.13,-0.15,4,1
18771.156,0.46,0.853,-0.338,1.19,18.68,-12.6,4,1
18771.156,0.443,0.876,-0.334,8.18,20.72,-21.79,4,1
18771.171,0.413,0.891,-0.325,11.35,23.01,-25.88,4,1
18771.187,0.395,0.908,-0.316,12.39,24.11,-26.46,4,1
18771.187,0.39,0.907,-0.318,12.48,24.23,-25.73,4,1
18771.203,0.392,0.917,-0.326,11.75,23.87,-23.56,4,1
18771.218,0.396,0.933,-0.344,10.99,23.53,-20.33,4,1
18771.218,0.419,0.933,-0.357,10.22,24.48,-17.27,4,1
18771.234,0.433,0.928,-0.357,8.85,27.44,-14.86,4,1
18771.234,0.422,0.914,-0.347,7.6,30.76,-13.21,4,1
18771.25,0.405,0.911,-0.33,7.84,33.14,-14.62,4,1
18771.265,0.383,0.883,-0.317,10.74,33.36,-19.01,4,1
18771.265,0.37,0.849,-0.31,17.33,32.01,-23.8,4,1
18771.281,0.377,0.842,-0.321,27.1,29.36,-29.36,4,1
18771.296,0.384,0.826,-0.338,36.41,26.67,-35.49,4,1
18771.296,0.388,0.81,-0.354,42.6,24.29,-41.38,4,1
18771.312,0.395,0.83,-0.376,47.91,22.4,-48.22,4,1
18771.328,0.394,0.841,-0.389,53.19,21.85,-55.18,4,1
18771.328,0.387,0.849,-0.399,57.41,22.03,-59.39,4,1
18771.343,0.379,0.879,-0.417,59.66,22.8,-58.6,4,1
18771.343,0.383,0.9,-0.43,56.98,24.14,-53.71,4,1
18771.359,0.37,0.912,-0.418,50.9,25.97,-48.25,4,1
18771.375,0.351,0.915,-0.402,45.9,28.44,-44.56,4,1
18771.39,0.338,0.907,-0.381,41.29,30.85,-41.9,4,1
18771.39,0.32,0.898,-0.357,37.75,33.39,-40.19,4,1
18771.406,0.312,0.901,-0.326,35.31,35.95,-39.89,4,1
18771.406,0.295,0.901,-0.29,33.66,36.59,-41.14,4,1
18771.421,0.284,0.898,-0.268,35.28,35.58,-45.14,4,1
18771.437,0.294,0.895,-0.262,40.04,34.88,-51.55,4,1
18771.437,0.3,0.886,-0.263,44.8,33.75,-57.59,4,1
18771.453,0.295,0.93,-0.272,47.76,33.23,-61.28,4,1
18771.468,0.282,0.991,-0.296,44.65,32.96,-58.75,4,1
18771.468,0.314,1.001,-0.303,33.69,32.29,-48.46,4,1
18771.484,0.348,0.995,-0.312,21.24,33.72,-33.27,4,1
18771.484,0.363,0.993,-0.302,9.98,36.59,-17.3,4,1
18771.5,0.362,0.998,-0.271,0.18,39.4,-3.6,4,1
18771.515,0.344,0.999,-0.237,-6.59,40.07,4.88,4,1
18771.515,0.34,0.978,-0.24,-10.53,38.94,9.64,4,1
18771.531,0.353,0.97,-0.231,-14.83,37.05,12.02,4,1
18771.546,0.372,0.933,-0.228,-16.36,33.88,12.09,4,1
18771.562,0.391,0.894,-0.251,-16.17,30.64,11.41,4,1
18771.562,0.393,0.893,-0.253,-16.66,26.67,4.55,4,1
18771.578,0.39,0.886,-0.243,-14.37,25.12,-3.02,4,1
18771.578,0.39,0.883,-0.226,-8.12,23.59,-13.52,4,1
18771.593,0.403,0.885,-0.24,-1.31,23.44,-24.96,4,1
18771.609,0.403,0.871,-0.268,4.3,24.57,-34.79,4,1
18771.609,0.402,0.865,-0.314,6.59,26.46,-41.26,4,1
18771.625,0.407,0.855,-0.367,0.27,30.21,-44.83,4,1
18771.625,0.405,0.835,-0.388,-14.4,35.0,-46.6,4,1
18771.64,0.365,0.848,-0.332,-28.47,39.55,-47.27,4,1
18771.656,0.25,0.894,-0.191,-32.99,38.85,-43.73,4,1
18771.656,0.165,0.913,-0.131,-28.5,29.6,-33.85,4,1
18771.671,0.183,0.966,-0.159,-30.03,17.15,-20.94,4,1
18771.687,0.249,0.955,-0.198,-35.98,8.36,-10.53,4,1
18771.687,0.313,0.949,-0.244,-39.8,6.41,-5.46,4,1
18771.703,0.362,0.964,-0.249,-37.75,10.13,-4.55,4,1
18771.703,0.373,0.964,-0.245,-32.17,16.6,-5.92,4,1
18771.718,0.341,0.975,-0.221,-30.21,22.13,-8.09,4,1
18771.734,0.294,0.977,-0.184,-30.95,25.12,-9.67,4,1
18771.75,0.243,0.998,-0.129,-32.9,24.63,-10.22,4,1
18771.75,0.202,0.996,-0.102,-32.72,19.17,-10.53,4,1
18771.765,0.202,0.981,-0.108,-31.13,11.99,-9.86,4,1
18771.765,0.223,0.964,-0.123,-28.53,6.78,-8.24,4,1
18771.781,0.255,0.957,-0.162,-24.17,4.55,-5.89,4,1
18771.796,0.289,0.961,-0.192,-22.92,5.71,-3.97,4,1
18771.796,0.309,0.95,-0.211,-26.86,9.52,-3.54,4,1
18771.812,0.312,0.936,-0.199,-31.19,15.41,-4.67,4,1
18771.828,0.28,0.944,-0.143,-32.5,21.67,-4.39,4,1
18771.843,0.235,0.944,-0.096,-32.14,24.63,-0.46,4,1
18771.843,0.226,0.964,-0.061,-34.3,23.99,5.86,4,1
18771.859,0.202,0.989,-0.012,-36.59,21.27,9.52,4,1
18771.859,0.206,0.99,0.001,-36.44,16.05,8.21,4,1
18771.875,0.219,0.974,-0.0,-33.3,10.71,3.39,4,1
18771.89,0.231,0.952,-0.02,-25.03,6.26,-3.05,4,1
18771.89,0.254,0.944,-0.068,-14.83,3.27,-9.74,4,1
18771.906,0.261,0.934,-0.1,-8.36,2.44,-15.56,4,1
18771.906,0.311,0.974,-0.103,-5.34,3.6,-19.26,4,1
18771.921,0.289,0.984,-0.096,-4.39,5.52,-24.14,4,1
18771.937,0.262,0.942,-0.051,-5.62,7.54,-21.91,4,1
18771.937,0.276,1.007,-0.019,-2.96,7.05,-17.49,4,1
18771.953,0.246,1.017,-0.036,-0.98,3.6,-14.65,4,1
18771.953,0.237,0.995,-0.054,-5.68,-0.98,-10.62,4,1
18771.968,0.268,1.017,-0.102,-10.56,-3.75,-7.14,4,1
18771.984,0.27,0.997,-0.137,-15.44,-2.47,-4.09,4,1
18771.984,0.278,0.973,-0.134,-20.69,0.67,1.1,4,1
18772.0,0.28,1.012,-0.12,-23.96,4.91,6.68,4,1
18772.015,0.262,1.002,-0.098,-27.92,8.27,11.08,4,1
18772.015,0.252,0.972,-0.081,-31.59,8.94,15.2,4,1
18772.031,0.276,0.947,-0.066,-32.01,8.18,18.43,4,1
18772.046,0.287,0.913,-0.068,-29.08,7.11,19.26,4,1
18772.062,0.274,0.889,-0.061,-24.66,6.41,18.8,4,1
18772.062,0.272,0.875,-0.049,-19.87,5.71,17.33,4,1
18772.078,0.268,0.885,-0.049,-17.55,6.23,13.73,4,1
18772.078,0.264,0.889,-0.015,-18.1,8.39,8.94,4,1
18772.093,0.256,0.904,0.008,-18.4,8.3,4.49,4,1
18772.109,0.264,0.926,0.011,-15.23,6.13,1.5,4,1
18772.109,0.28,0.949,-0.001,-11.63,2.96,-0.67,4,1
18772.125,0.29,0.955,-0.034,-9.58,0.24,-2.69,4,1
18772.125,0.288,0.947,-0.056,-8.09,-0.46,-4.46,4,1
18772.14,0.266,0.938,-0.075,-7.26,0.18,-6.78,4,1
18772.156,0.222,0.926,-0.067,-6.29,3.36,-9.34,4,1
18772.156,0.195,0.91,-0.061,-5.83,8.21,-10.99,4,1
18772.171,0.191,0.908,-0.077,-6.44,11.96,-11.29,4,1
18772.187,0.201,0.903,-0.09,-8.67,14.77,-10.07,4,1
18772.187,0.207,0.914,-0.08,-13.21,17.64,-7.93,4,1
18772.203,0.193,0.923,-0.044,-17.0,21.42,-5.19,4,1
18772.218,0.169,0.93,-0.0,-19.84,25.12,-2.72,4,1
18772.218,0.144,0.943,0.047,-22.1,27.13,-0.82,4,1
18772.234,0.151,0.948,0.066,-23.5,25.51,0.85,4,1
18772.234,0.19,0.963,0.054,-25.15,21.39,3.54,4,1
18772.25,0.266,0.972,0.03,-27.41,17.58,6.04,4,1
18772.265,0.336,0.982,0.02,-26.49,17.06,6.13,4,1
18772.265,0.35,1.01,0.011,-21.55,20.02,4.64,4,1
18772.281,0.317,1.014,0.0,-16.94,23.71,3.48,4,1
18772.296,0.282,1.004,-0.013,-14.65,28.29,3.72,4,1
18772.296,0.238,1.0,-0.018,-13.34,32.72,4.09,4,1
18772.312,0.233,1.0,0.005,-12.91,36.53,5.19,4,1
18772.328,0.24,1.013,0.029,-12.48,39.98,5.65,4,1
18772.328,0.243,1.008,0.062,-11.2,43.03,5.52,4,1
18772.343,0.235,1.003,0.101,-9.25,44.59,6.44,4,1
18772.359,0.23,0.997,0.133,-6.78,43.58,8.42,4,1
18772.359,0.232,0.976,0.143,-3.48,41.02,11.63,4,1
18772.375,0.254,0.961,0.138,-1.4,37.63,16.39,4,1
18772.375,0.28,0.952,0.136,0.24,35.4,20.42,4,1
18772.39,0.293,0.933,0.14,1.5,34.09,22.8,4,1
18772.406,0.305,0.913,0.137,1.98,32.96,24.69,4,1
18772.421,0.323,0.903,0.138,0.64,32.01,26.12,4,1
18772.421,0.332,0.891,0.147,-1.16,30.73,26.31,4,1
18772.437,0.33,0.876,0.152,-2.23,28.26,25.88,4,1
18772.437,0.351,0.866,0.139,-3.14,25.3,25.48,4,1
18772.453,0.382,0.865,0.125,-2.96,23.38,24.05,4,1
18772.468,0.386,0.858,0.112,-1.4,23.19,21.24,4,1
18772.468,0.381,0.855,0.114,0.34,23.53,18.07,4,1
18772.484,0.366,0.847,0.115,2.84,24.45,15.66,4,1
18772.484,0.356,0.842,0.111,4.61,24.63,14.59,4,1
18772.5,0.362,0.846,0.109,4.58,24.17,13.43,4,1
18772.515,0.366,0.845,0.106,2.72,23.93,11.51,4,1
18772.515,0.354,0.827,0.103,1.92,24.6,9.61,4,1
18772.531,0.342,0.812,0.096,2.59,26.28,8.79,4,1
18772.546,0.326,0.814,0.099,2.23,28.9,8.85,4,1
18772.546,0.304,0.822,0.114,-8.0,31.43,9.7,4,1
18772.562,0.296,0.812,0.134,-12.36,30.64,10.59,4,1
18772.578,0.302,0.8,0.164,-12.67,28.44,11.63,4,1
18772.578,0.344,0.824,0.169,-11.11,24.14,12.57,4,1
18772.593,0.394,0.839,0.143,-11.2,18.68,12.76,4,1
18772.609,0.451,0.858,0.118,-13.79,13.98,11.66,4,1
18772.609,0.495,0.868,0.103,-15.56,11.2,8.94,4,1
18772.625,0.498,0.878,0.104,-14.4,11.17,4.55,4,1
18772.625,0.458,0.895,0.117,-10.96,12.3,-0.52,4,1
18772.64,0.413,0.912,0.124,-7.51,11.41,-5.1,4,1
18772.656,0.399,0.925,0.122,-4.24,8.3,-8.79,4,1
18772.656,0.398,0.931,0.11,-0.31,5.77,-11.75,4,1
18772.671,0.395,0.935,0.086,3.66,5.4,-14.1,4,1
18772.687,0.387,0.935,0.062,6.13,6.9,-15.72,4,1
18772.687,0.382,0.943,0.055,6.47,8.97,-15.81,4,1
18772.703,0.39,0.956,0.053,5.43,11.54,-14.47,4,1
18772.718,0.398,0.955,0.05,3.51,14.07,-12.51,4,1
18772.718,0.41,0.951,0.058,0.95,17.0,-9.49,4,1
18772.734,0.409,0.942,0.078,-1.1,20.63,-5.68,4,1
18772.734,0.397,0.921,0.094,-2.69,24.02,-1.71,4,1
18772.75,0.373,0.91,0.123,-4.43,26.09,2.11,4,1
18772.765,0.357,0.9,0.147,-5.52,26.22,5.8,4,1
18772.765,0.36,0.9,0.166,-7.9,23.77,9.8,4,1
18772.781,0.381,0.886,0.178,-9.98,19.44,12.54,4,1
18772.796,0.389,0.874,0.197,-10.07,16.45,13.86,4,1
18772.796,0.369,0.849,0.2,-7.87,12.88,14.47,4,1
18772.812,0.374,0.814,0.195,-5.13,7.93,14.25,4,1
18772.828,0.397,0.772,0.176,-0.7,3.69,11.08,4,1
18772.828,0.426,0.745,0.169,6.16,0.85,4.21,4,1
18772.843,0.431,0.733,0.179,15.78,0.06,-6.32,4,1
18772.859,0.434,0.717,0.176,27.89,-0.7,-17.4,4,1
18772.859,0.446,0.724,0.162,40.74,-0.4,-27.68,4,1
18772.875,0.443,0.74,0.125,52.71,3.33,-37.05,4,1
18772.875,0.431,0.747,0.079,60.15,8.55,-44.86,4,1
18772.89,0.424,0.769,0.038,64.0,15.87,-50.84,4,1
18772.906,0.353,0.828,0.038,66.65,25.48,-54.78,4,1
18772.921,0.231,0.877,0.073,67.57,29.45,-54.72,4,1
18772.921,0.166,0.937,0.143,61.74,22.1,-49.59,4,1
18772.937,0.175,0.993,0.196,53.71,7.48,-42.66,4,1
18772.937,0.203,1.013,0.192,45.32,-8.18,-37.78,4,1
18772.953,0.232,1.013,0.174,36.59,-19.65,-32.11,4,1
18772.968,0.235,0.986,0.112,31.77,-25.7,-26.15,4,1
18772.968,0.248,0.961,0.044,28.32,-27.1,-20.36,4,1
18772.984,0.254,0.952,-0.017,25.7,-23.19,-15.47,4,1
18773.0,0.255,0.943,-0.071,23.26,-16.51,-11.81,4,1
18773.0,0.278,0.954,-0.084,19.23,-9.0,-8.76,4,1
18773.015,0.266,0.986,-0.053,14.59,1.13,-6.78,4,1
18773.015,0.191,0.998,-0.011,9.8,9.46,-4.0,4,1
18773.031,0.149,0.991,0.033,3.08,11.6,2.5,4,1
18773.046,0.141,1.007,0.059,-3.75,10.19,10.71,4,1
18773.062,0.148,1.012,0.057,-9.92,5.43,18.16,4,1
18773.062,0.196,0.999,0.06,-17.73,-0.73,23.65,4,1
18773.078,0.241,0.968,0.043,-21.58,-4.61,25.82,4,1
18773.078,0.275,0.944,0.03,-20.05,-4.24,26.46,4,1
18773.093,0.266,0.942,0.027,-16.33,0.09,23.83,4,1
18773.109,0.243,0.915,0.025,-11.78,3.97,19.99,4,1
18773.109,0.229,0.914,0.032,-8.33,6.5,16.91,4,1
18773.125,0.236,0.925,0.035,-6.5,6.99,14.04,4,1
18773.125,0.252,0.929,0.053,-5.8,6.44,11.44,4,1
18773.14,0.261,0.932,0.075,-4.67,5.31,9.43,4,1
18773.156,0.277,0.934,0.085,-3.78,4.3,8.33,4,1
18773.171,0.259,0.926,0.097,-1.92,4.09,6.96,4,1
18773.171,0.232,0.917,0.095,-1.37,2.41,5.98,4,1
18773.171,0.242,0.904,0.09,-4.64,-0.98,5.25,4,1
18773.187,0.255,0.882,0.078,-7.48,-3.57,4.61,4,1
18773.203,0.277,0.866,0.046,-8.0,-4.88,4.33,4,1
18773.218,0.323,0.886,0.03,-8.39,-5.49,2.96,4,1
18773.218,0.349,0.903,0.042,-7.72,-3.75,-0.92,4,1
18773.234,0.327,0.898,0.051,-3.33,-0.03,-5.31,4,1
18773.234,0.293,0.903,0.055,3.23,3.05,-8.24,4,1
18773.25,0.266,0.919,0.051,8.82,4.46,-10.44,4,1
18773.265,0.235,0.95,0.069,10.25,3.54,-12.15,4,1
18773.265,0.219,0.97,0.093,6.84,-1.53,-12.18,4,1
18773.281,0.257,0.968,0.091,0.92,-8.91,-9.4,4,1
18773.296,0.273,0.96,0.084,-2.69,-12.42,-5.55,4,1
18773.296,0.277,0.942,0.053,-4.52,-14.37,-1.4,4,1
18773.312,0.304,0.919,0.014,-7.39,-15.32,1.31,4,1
18773.328,0.311,0.889,-0.014,-8.64,-12.91,1.59,4,1
18773.328,0.311,0.872,-0.03,-8.09,-9.49,0.27,4,1
18773.343,0.318,0.874,-0.036,-6.01,-5.34,-2.17,4,1
18773.343,0.328,0.882,-0.026,-2.11,-1.56,-5.89,4,1
18773.359,0.319,0.906,0.002,3.08,2.01,-10.74,4,1
18773.375,0.293,0.931,0.022,8.64,3.81,-15.17,4,1
18773.375,0.276,0.961,0.029,11.23,2.93,-17.33,4,1
18773.39,0.28,0.99,0.035,10.35,0.06,-17.52,4,1
18773.406,0.295,1.002,0.035,8.12,-3.05,-16.39,4,1
18773.421,0.301,1.004,0.025,5.8,-4.73,-13.89,4,1
18773.421,0.309,1.01,0.013,3.97,-4.7,-10.1,4,1
18773.437,0.302,1.014,0.015,2.08,-2.78,-5.8,4,1
18773.437,0.28,0.996,0.002,0.0,-0.52,-1.43,4,1
18773.453,0.275,0.978,0.004,-3.45,1.71,2.93,4,1
18773.453,0.281,0.951,0.01,-5.65,3.57,5.43,4,1
18773.468,0.285,0.936,0.017,-6.2,4.91,6.53,4,1
18773.484,0.282,0.939,0.034,-6.35,5.4,6.44,4,1
18773.484,0.292,0.931,0.044,-7.11,3.72,6.62,4,1
18773.5,0.29,0.926,0.051,-7.87,2.2,6.56,4,1
18773.515,0.281,0.915,0.059,-8.33,1.01,7.14,4,1
18773.515,0.286,0.914,0.063,-10.04,-0.18,7.93,4,1
18773.531,0.28,0.902,0.059,-10.65,-1.19,7.57,4,1
18773.546,0.267,0.884,0.055,-8.55,-1.74,6.5,4,1
18773.562,0.262,0.885,0.053,-6.41,-1.86,4.12,4,1
18773.562,0.258,0.891,0.041,-5.52,-1.34,0.67,4,1
18773.562,0.259,0.873,0.032,-3.72,-0.12,-2.93,4,1
18773.578,0.256,0.884,0.039,-0.06,2.26,-5.62,4,1
18773.593,0.246,0.903,0.034,3.81,4.06,-7.84,4,1
18773.593,0.226,0.921,0.043,4.27,4.64,-9.25,4,1
18773.609,0.203,0.922,0.059,1.31,2.9,-8.91,4,1
18773.625,0.21,0.917,0.053,-2.04,-0.55,-7.08,4,1
18773.64,0.211,0.912,0.047,-4.49,-3.05,-4.64,4,1
18773.64,0.216,0.9,0.025,-8.36,-4.82,-2.08,4,1
18773.656,0.231,0.876,0.001,-12.3,-5.1,-0.15,4,1
18773.656,0.24,0.853,-0.016,-14.07,-3.63,0.61,4,1
18773.671,0.253,0.846,-0.032,-14.16,-1.62,-0.43,4,1
18773.687,0.265,0.848,-0.035,-12.02,0.67,-3.39,4,1
18773.687,0.27,0.857,-0.032,-8.7,3.72,-7.57,4,1
18773.703,0.27,0.884,-0.018,-5.37,6.44,-11.2,4,1
18773.703,0.267,0.929,0.02,-2.99,7.81,-13.31,4,1
18773.718,0.261,0.965,0.052,-1.89,6.65,-13.64,4,1
18773.734,0.27,0.986,0.064,-1.04,3.42,-12.54,4,1
18773.734,0.288,1.007,0.059,-0.34,-0.58,-10.65,4,1
18773.75,0.314,1.017,0.035,-1.07,-4.36,-8.48,4,1
18773.765,0.338,1.023,0.021,-1.92,-6.01,-6.81,4,1
18773.765,0.337,1.02,0.015,-0.89,-4.79,-5.43,4,1
18773.781,0.332,1.021,0.017,0.92,-2.14,-3.69,4,1
18773.796,0.327,1.029,0.027,2.81,0.18,-1.65,4,1
18773.796,0.32,1.044,0.043,2.78,1.31,0.49,4,1
18773.812,0.305,1.046,0.062,0.85,0.61,2.56,4,1
18773.828,0.29,1.032,0.078,-1.31,-1.28,5.49,4,1
18773.828,0.289,1.03,0.091,-2.2,-3.23,8.94,4,1
18773.843,0.289,1.022,0.082,-2.78,-5.13,11.66,4,1
18773.843,0.296,1.004,0.072,-4.43,-6.35,13.92,4,1
18773.859,0.291,0.994,0.059,-6.44,-7.08,15.11,4,1
18773.875,0.295,0.967,0.048,-8.27,-7.23,15.44,4,1
18773.875,0.309,0.949,0.05,-8.06,-6.16,14.59,4,1
18773.89,0.306,0.943,0.053,-5.04,-3.6,12.94,4,1
18773.906,0.291,0.948,0.068,-2.72,-1.46,10.56,4,1
18773.906,0.282,0.94,0.067,-0.52,-0.79,8.03,4,1
18773.921,0.275,0.947,0.077,0.15,-0.98,6.41,4,1
18773.937,0.272,0.943,0.079,1.04,-1.98,5.58,4,1
18773.937,0.287,0.939,0.08,1.16,-2.84,4.91,4,1
18773.953,0.288,0.948,0.089,0.31,-3.05,4.06,4,1
18773.968,0.296,0.939,0.096,-1.01,-3.72,3.6,4,1
18773.968,0.314,0.94,0.103,-2.32,-4.43,3.54,4,1
18773.984,0.304,0.94,0.103,-2.38,-3.51,3.17,4,1
18773.984,0.281,0.929,0.091,-2.08,-2.41,2.69,4,1
18774.0,0.27,0.924,0.078,-1.4,-1.83,1.98,4,1
18774.015,0.26,0.925,0.065,-0.64,-1.25,0.67,4,1
18774.015,0.251,0.913,0.05,0.76,-0.58,-1.31,4,1
18774.031,0.251,0.921,0.048,2.69,1.07,-2.99,4,1
18774.046,0.244,0.934,0.044,4.33,2.93,-4.3,4,1
18774.046,0.245,0.942,0.05,4.49,4.55,-4.85,4,1
18774.062,0.229,0.956,0.062,3.05,5.77,-4.7,4,1
18774.078,0.229,0.967,0.066,0.55,4.61,-3.23,4,1
18774.078,0.247,0.974,0.077,-1.71,2.17,-1.07,4,1
18774.093,0.26,0.981,0.072,-3.2,0.31,0.4,4,1
18774.093,0.275,0.968,0.052,-3.54,-0.79,2.41,4,1
18774.109,0.298,0.963,0.039,-3.36,-0.76,5.31,4,1
18774.125,0.315,0.964,0.025,-3.39,1.13,7.72,4,1
18774.125,0.318,0.951,0.016,-3.75,3.54,8.91,4,1
18774.14,0.322,0.936,0.024,-4.43,5.92,8.88,4,1
18774.156,0.324,0.933,0.036,-4.36,7.66,8.33,4,1
18774.156,0.33,0.939,0.062,-3.17,8.94,7.75,4,1
18774.171,0.322,0.945,0.089,-1.98,9.09,6.78,4,1
18774.187,0.319,0.952,0.105,-1.86,7.42,6.2,4,1
18774.187,0.316,0.951,0.107,-2.59,4.52,6.13,4,1
18774.203,0.324,0.944,0.102,-3.45,1.43,6.29,4,1
18774.203,0.325,0.931,0.091,-3.42,0.06,6.2,4,1
18774.218,0.319,0.929,0.081,-2.44,-0.06,5.95,4,1
18774.234,0.32,0.928,0.079,-0.31,-0.21,5.25,4,1
18774.234,0.325,0.923,0.076,2.96,-0.43,4.15,4,1
18774.25,0.332,0.927,0.07,6.2,-0.52,3.51,4,1
18774.265,0.342,0.93,0.059,7.97,-0.12,3.05,4,1
18774.265,0.341,0.93,0.053,8.85,1.4,2.32,4,1
18774.281,0.328,0.926,0.05,9.95,3.72,1.8,4,1
18774.296,0.309,0.934,0.052,9.95,6.16,1.77,4,1
18774.296,0.284,0.951,0.059,8.51,7.14,2.66,4,1
18774.312,0.282,0.948,0.067,5.55,5.74,4.46,4,1
18774.328,0.294,0.953,0.081,1.4,3.14,6.68,4,1
18774.328,0.302,0.944,0.086,-2.2,1.01,8.58,4,1
18774.343,0.311,0.918,0.076,-4.3,0.03,10.35,4,1
18774.343,0.316,0.898,0.063,-5.19,0.31,11.29,4,1
18774.359,0.324,0.884,0.06,-5.31,1.01,11.17,4,1
18774.375,0.324,0.886,0.07,-4.7,1.83,9.74,4,1
18774.375,0.316,0.893,0.088,-3.05,2.08,7.14,4,1
18774.39,0.31,0.901,0.104,-0.98,1.1,4.85,4,1
18774.406,0.297,0.916,0.124,1.31,-1.62,3.45,4,1
18774.406,0.286,0.924,0.125,3.05,-6.01,3.66,4,1
18774.421,0.283,0.937,0.117,1.56,-11.2,5.46,4,1
18774.437,0.283,0.947,0.133,-2.69,-17.03,8.3,4,1
18774.437,0.302,0.933,0.12,-8.76,-23.32,10.86,4,1
18774.453,0.343,0.917,0.094,-15.14,-28.35,12.15,4,1
18774.468,0.375,0.889,0.064,-16.08,-28.72,13.0,4,1
18774.468,0.401,0.874,0.031,-12.36,-25.67,13.03,4,1
18774.484,0.418,0.877,0.002,-7.39,-19.96,11.51,4,1
18774.484,0.414,0.869,-0.019,-3.23,-12.79,6.81,4,1
18774.5,0.401,0.857,-0.035,-0.24,-5.8,0.37,4,1
18774.515,0.378,0.863,-0.015,9.7,5.52,-12.39,4,1
18774.515,0.342,0.899,0.017,13.09,7.17,-15.17,4,1
18774.531,0.312,0.935,0.051,13.7,5.74,-15.47,4,1
18774.546,0.296,0.958,0.082,11.66,2.35,-13.55,4,1
18774.546,0.303,0.982,0.088,7.29,-0.76,-9.98,4,1
18774.562,0.304,0.977,0.08,2.72,-2.9,-5.16,4,1
18774.578,0.306,0.962,0.064,-1.19,-4.18,0.03,4,1
18774.578,0.316,0.947,0.055,-5.13,-4.15,3.88,4,1
18774.593,0.325,0.922,0.045,-5.92,-2.99,6.1,4,1
18774.593,0.327,0.903,0.04,-5.04,-0.64,7.08,4,1
18774.609,0.325,0.894,0.041,-3.94,2.23,7.51,4,1
18774.625,0.329,0.892,0.055,-3.42,4.94,7.57,4,1
18774.64,0.334,0.891,0.074,-2.69,7.32,7.75,4,1
18774.64,0.345,0.892,0.091,-1.59,9.43,8.42,4,1
18774.656,0.338,0.893,0.104,-0.67,11.05,9.74,4,1
18774.656,0.34,0.897,0.11,-2.44,10.5,11.32,4,1
18774.671,0.335,0.889,0.12,-5.19,9.43,12.85,4,1
18774.687,0.332,0.876,0.126,-7.45,7.97,14.47,4,1
18774.703,0.336,0.866,0.123,-8.7,6.16,16.14,4,1
18774.703,0.352,0.847,0.111,-9.52,4.09,17.88,4,1
18774.703,0.387,0.835,0.103,-10.65,2.47,19.26,4,1
18774.718,0.414,0.836,0.106,-10.96,2.78,19.14,4,1
18774.734,0.42,0.834,0.108,-11.26,3.97,17.21,4,1
18774.75,0.407,0.828,0.115,-12.54,4.61,14.68,4,1
18774.75,0.405,0.83,0.12,-14.07,3.27,11.96,4,1
18774.765,0.408,0.829,0.136,-15.26,1.16,8.55,4,1
18774.765,0.394,0.833,0.148,-15.23,-1.68,4.73,4,1
18774.781,0.39,0.856,0.156,-12.79,-5.92,0.06,4,1
18774.796,0.374,0.887,0.148,-8.58,-10.56,-6.62,4,1
18774.812,0.342,0.909,0.119,-3.94,-15.75,-14.98,4,1
18774.812,0.32,0.92,0.083,0.49,-21.18,-23.93,4,1
18774.828,0.316,0.925,0.04,6.96,-25.24,-32.17,4,1
18774.828,0.321,0.941,0.0,15.32,-26.58,-39.89,4,1
