timestamp,ax,ay,az,gx,gy,gz,orient_label,motion_label
18732.531,-0.348,0.229,0.89,0.55,-1.37,0.58,4,1
18732.546,-0.359,0.234,0.888,0.67,-0.27,0.52,4,1
18732.546,-0.37,0.235,0.903,-1.07,0.06,1.16,4,1
18732.562,-0.363,0.222,0.904,-2.75,-0.49,2.17,4,1
18732.562,-0.349,0.216,0.899,-2.59,-0.46,2.75,4,1
18732.578,-0.354,0.215,0.895,-1.37,0.18,1.62,4,1
18732.593,-0.368,0.219,0.906,0.0,0.06,-0.06,4,1
18732.593,-0.369,0.228,0.902,1.28,-1.16,-1.22,4,1
18732.609,-0.358,0.236,0.888,2.29,-1.86,-1.59,4,1
18732.625,-0.355,0.244,0.88,2.32,-1.34,-1.1,4,1
18732.625,-0.357,0.248,0.875,1.19,-0.4,-0.12,4,1
18732.64,-0.36,0.245,0.878,-0.4,0.61,1.4,4,1
18732.656,-0.361,0.235,0.877,-1.68,1.5,3.23,4,1
18732.656,-0.361,0.226,0.88,-2.75,2.47,4.55,4,1
18732.671,-0.363,0.218,0.895,-3.63,2.96,4.33,4,1
18732.687,-0.371,0.206,0.905,-3.02,2.35,2.87,4,1
18732.687,-0.374,0.204,0.906,-0.64,1.1,0.85,4,1
18732.703,-0.371,0.225,0.892,3.27,-1.22,-3.23,4,1
18732.718,-0.367,0.227,0.879,3.08,-1.19,-3.6,4,1
18732.734,-0.366,0.234,0.876,2.56,0.06,-2.62,4,1
18732.734,-0.369,0.239,0.875,1.4,1.37,-1.19,4,1
18732.75,-0.371,0.236,0.881,-0.46,2.08,-0.12,4,1
18732.765,-0.368,0.23,0.893,-1.1,2.26,0.52,4,1
18732.781,-0.369,0.231,0.896,0.64,2.08,0.52,4,1
18732.781,-0.372,0.232,0.884,2.38,1.34,0.34,4,1
18732.781,-0.369,0.239,0.886,2.44,1.07,0.37,4,1
18732.796,-0.37,0.235,0.883,1.65,1.13,1.19,4,1
18732.812,-0.367,0.228,0.885,0.0,1.31,2.56,4,1
18732.812,-0.373,0.225,0.894,-1.53,1.86,3.72,4,1
18732.828,-0.37,0.213,0.898,-2.72,1.34,3.91,4,1
18732.843,-0.369,0.201,0.898,-2.75,0.73,3.14,4,1
18732.859,-0.365,0.197,0.894,-1.28,0.27,1.5,4,1
18732.859,-0.365,0.199,0.89,1.4,0.34,-0.79,4,1
18732.875,-0.371,0.222,0.89,5.86,1.37,-4.03,4,1
18732.89,-0.371,0.231,0.882,6.01,1.68,-4.43,4,1
18732.906,-0.372,0.233,0.89,5.13,2.35,-3.88,4,1
18732.906,-0.374,0.234,0.896,4.33,2.84,-3.05,4,1
18732.921,-0.381,0.233,0.901,4.64,3.05,-2.93,4,1
18732.921,-0.388,0.237,0.91,5.58,2.75,-3.08,4,1
18732.937,-0.381,0.242,0.912,6.9,1.65,-3.05,4,1
18732.953,-0.371,0.246,0.91,8.64,0.79,-3.17,4,1
18732.953,-0.363,0.25,0.914,10.56,0.43,-3.3,4,1
18732.968,-0.359,0.252,0.917,12.54,0.4,-3.45,4,1
18732.984,-0.361,0.262,0.92,15.02,1.04,-3.51,4,1
18733.0,-0.356,0.273,0.922,17.24,1.43,-2.93,4,1
18733.0,-0.344,0.287,0.923,19.35,1.53,-1.74,4,1
18733.015,-0.341,0.309,0.926,22.1,2.04,-0.76,4,1
18733.015,-0.342,0.33,0.934,25.82,1.95,-0.27,4,1
18733.031,-0.353,0.349,0.948,31.01,1.34,0.31,4,1
18733.046,-0.37,0.382,0.955,38.09,0.21,2.04,4,1
18733.046,-0.378,0.41,0.958,46.63,-1.16,5.19,4,1
18733.062,-0.378,0.448,0.95,54.11,-1.86,8.15,4,1
18733.078,-0.381,0.474,0.951,59.82,-1.71,11.26,4,1
18733.078,-0.39,0.496,0.956,65.98,-1.13,14.83,4,1
18733.093,-0.397,0.519,0.957,71.84,-0.92,18.98,4,1
18733.109,-0.401,0.544,0.954,77.58,-0.95,23.62,4,1
18733.109,-0.409,0.542,0.963,85.82,-1.37,26.98,4,1
18733.125,-0.433,0.574,0.972,98.97,-2.11,29.08,4,1
18733.125,-0.465,0.625,0.965,115.85,-3.72,30.34,4,1
18733.14,-0.513,0.671,0.981,131.87,-6.99,29.85,4,1
18733.156,-0.61,0.749,0.98,150.52,-11.26,29.88,4,1
18733.156,-0.686,0.882,0.872,166.94,-16.45,35.07,4,1
18733.171,-0.667,1.023,0.754,166.97,-17.85,49.29,4,1
18733.187,-0.613,1.123,0.644,150.15,-10.8,71.47,4,1
18733.187,-0.576,1.172,0.537,97.35,35.31,133.85,4,1
18733.203,-0.557,1.167,0.449,67.96,69.83,171.21,4,1
18733.218,-0.679,1.127,0.494,16.42,131.87,241.83,4,1
18733.234,-0.793,0.996,0.726,-0.27,153.75,268.04,4,1
18733.25,-0.815,0.925,0.819,-11.72,167.12,288.34,4,1
18733.25,-0.79,0.855,0.907,-19.47,173.16,302.1,4,1
18733.265,-0.743,0.802,0.994,-21.24,174.14,308.57,4,1
18733.281,-0.674,0.774,1.051,-15.84,170.35,309.67,4,1
18733.281,-0.578,0.791,1.087,-7.2,162.85,307.99,4,1
18733.296,-0.491,0.82,1.108,1.16,151.77,303.57,4,1
18733.296,-0.431,0.836,1.134,7.97,136.6,297.74,4,1
18733.312,-0.377,0.827,1.137,16.75,117.8,291.51,4,1
18733.312,-0.305,0.838,1.113,28.57,97.75,284.62,4,1
18733.328,-0.222,0.861,1.045,41.54,78.74,276.44,4,1
18733.343,-0.157,0.876,0.986,50.51,61.28,269.23,4,1
18733.343,-0.114,0.892,0.94,55.54,44.86,262.49,4,1
18733.359,-0.089,0.893,0.891,58.96,28.38,256.32,4,1
18733.375,-0.038,0.884,0.829,61.92,12.94,252.17,4,1
18733.375,0.024,0.887,0.78,65.86,1.5,248.51,4,1
18733.39,0.075,0.877,0.723,71.29,-5.89,244.97,4,1
18733.406,0.144,0.878,0.643,73.46,-9.58,242.23,4,1
18733.406,0.202,0.877,0.603,72.18,-10.1,237.77,4,1
18733.421,0.232,0.834,0.57,71.02,-9.0,232.18,4,1
18733.437,0.253,0.786,0.538,69.03,-8.06,228.34,4,1
18733.437,0.276,0.757,0.514,66.99,-6.53,227.06,4,1
18733.453,0.307,0.749,0.519,64.91,-5.04,225.35,4,1
18733.453,0.334,0.736,0.529,63.88,-4.94,221.66,4,1
18733.468,0.35,0.713,0.504,63.51,-5.07,217.6,4,1
18733.484,0.354,0.672,0.5,63.2,-5.07,214.21,4,1
18733.5,0.36,0.625,0.487,63.66,-5.1,210.85,4,1
18733.5,0.375,0.626,0.51,63.81,-5.89,206.61,4,1
18733.515,0.37,0.581,0.483,69.06,-7.05,200.87,4,1
18733.515,0.38,0.508,0.413,73.03,-6.68,196.45,4,1
18733.531,0.4,0.43,0.353,74.43,-3.78,191.75,4,1
18733.546,0.419,0.351,0.295,75.75,3.72,185.09,4,1
18733.546,0.389,0.263,0.233,72.88,13.67,177.01,4,1
18733.562,0.351,0.198,0.212,62.2,20.14,171.85,4,1
18733.578,0.373,0.211,0.23,49.01,22.13,164.83,4,1
18733.578,0.359,0.211,0.263,36.41,24.14,153.23,4,1
18733.593,0.351,0.168,0.284,24.75,25.06,144.38,4,1
18733.609,0.364,0.141,0.292,15.96,23.32,140.42,4,1
18733.609,0.423,0.149,0.27,10.62,21.09,137.52,4,1
18733.625,0.501,0.141,0.236,9.19,24.41,132.73,4,1
18733.625,0.575,0.14,0.203,10.07,35.83,124.18,4,1
18733.64,0.613,0.158,0.174,13.4,52.34,113.22,4,1
18733.656,0.604,0.178,0.153,19.01,74.31,99.43,4,1
18733.656,0.565,0.221,0.151,21.52,96.59,84.81,4,1
18733.671,0.516,0.267,0.17,18.34,113.62,71.75,4,1
18733.687,0.466,0.323,0.201,10.5,126.59,61.95,4,1
18733.687,0.399,0.384,0.252,-0.55,136.08,56.12,4,1
18733.703,0.34,0.427,0.335,-15.2,141.3,55.21,4,1
18733.718,0.276,0.489,0.445,-27.38,141.88,58.17,4,1
18733.718,0.187,0.554,0.553,-38.82,128.64,63.78,4,1
18733.734,0.178,0.561,0.622,-51.73,102.54,73.06,4,1
18733.734,0.198,0.532,0.659,-61.95,76.54,83.8,4,1
18733.75,0.23,0.492,0.659,-65.71,53.38,94.55,4,1
18733.765,0.323,0.42,0.58,-62.5,33.02,101.81,4,1
18733.765,0.443,0.384,0.497,-57.01,24.48,101.87,4,1
18733.781,0.526,0.338,0.427,-48.59,30.73,94.73,4,1
18733.796,0.601,0.328,0.413,-42.05,48.1,83.86,4,1
18733.796,0.648,0.325,0.428,-34.09,73.03,71.29,4,1
18733.812,0.623,0.343,0.441,-28.69,102.88,56.64,4,1
18733.828,0.579,0.38,0.475,-33.11,128.97,41.05,4,1
18733.828,0.52,0.375,0.509,-45.9,149.24,24.38,4,1
18733.843,0.431,0.351,0.574,-59.97,163.73,9.34,4,1
18733.843,0.367,0.333,0.662,-67.84,168.25,-1.25,4,1
18733.859,0.318,0.339,0.751,-65.61,166.11,-7.45,4,1
18733.875,0.262,0.355,0.821,-53.35,161.26,-8.73,4,1
18733.89,0.242,0.452,0.899,-23.26,134.34,-2.23,4,1
18733.906,0.247,0.593,0.915,-16.33,125.34,-5.07,4,1
18733.906,0.26,0.719,0.997,-23.87,113.8,-5.34,4,1
18733.921,0.105,0.905,1.554,-30.37,91.04,-6.71,4,1
18733.937,0.014,0.847,1.581,-15.84,36.68,12.48,4,1
18733.937,0.337,0.716,1.192,-23.07,-8.88,40.53,4,1
18733.953,0.531,0.468,0.867,-35.71,-16.63,52.28,4,1
18733.953,0.532,0.266,0.694,-29.48,1.13,51.3,4,1
18733.968,0.496,0.194,0.606,-8.58,22.52,50.23,4,1
18733.984,0.459,0.173,0.602,1.46,37.08,47.76,4,1
18734.0,0.404,0.159,0.673,-0.73,40.56,36.99,4,1
18734.0,0.373,0.181,0.754,-7.75,34.36,29.24,4,1
18734.015,0.381,0.193,0.764,-12.85,25.27,26.06,4,1
18734.015,0.42,0.18,0.74,-14.95,20.29,25.03,4,1
18734.031,0.452,0.159,0.711,-15.9,21.52,21.3,4,1
18734.031,0.47,0.145,0.693,-17.37,27.47,15.96,4,1
18734.062,0.466,0.179,0.833,-16.48,48.07,2.56,4,1
18734.078,0.412,0.226,0.991,-11.02,53.8,-3.36,4,1
18734.078,0.369,0.292,1.109,-1.43,50.02,-4.27,4,1
18734.093,0.364,0.329,1.186,6.96,40.1,-2.93,4,1
18734.093,0.362,0.323,1.169,13.25,26.83,-2.72,4,1
18734.109,0.359,0.298,1.066,17.82,15.26,-1.83,4,1
18734.125,0.389,0.236,0.934,21.27,9.46,-0.27,4,1
18734.14,0.398,0.198,0.831,23.5,9.74,-1.43,4,1
18734.14,0.379,0.201,0.76,25.48,12.94,-3.48,4,1
18734.156,0.355,0.216,0.753,26.18,16.05,-3.88,4,1
18734.156,0.331,0.227,0.781,26.98,17.37,-3.27,4,1
18734.171,0.329,0.263,0.8,26.67,16.42,-2.2,4,1
18734.187,0.346,0.301,0.831,20.72,15.02,-3.08,4,1
18734.187,0.347,0.34,0.862,14.13,15.11,-4.09,4,1
18734.203,0.33,0.359,0.877,6.53,14.62,-3.08,4,1
18734.203,0.34,0.369,0.883,1.37,15.26,-0.34,4,1
18734.234,0.346,0.341,0.898,0.21,18.71,7.51,4,1
18734.234,0.324,0.331,0.906,-1.34,15.93,8.48,4,1
18734.25,0.32,0.335,0.923,-5.43,9.89,9.58,4,1
18734.265,0.302,0.34,0.945,-8.61,2.72,12.42,4,1
18734.265,0.301,0.32,0.914,-10.47,-4.21,18.52,4,1
18734.281,0.342,0.293,0.87,-12.02,-7.54,24.9,4,1
18734.296,0.372,0.297,0.855,-11.69,-5.34,28.2,4,1
18734.296,0.371,0.291,0.845,-7.48,-0.09,30.95,4,1
18734.312,0.377,0.292,0.869,-1.89,5.62,35.4,4,1
18734.312,0.378,0.314,0.895,3.85,9.8,39.0,4,1
18734.328,0.366,0.315,0.903,5.95,9.7,40.19,4,1
18734.343,0.365,0.294,0.914,2.66,5.34,38.88,4,1
18734.343,0.373,0.281,0.918,-2.62,-0.31,35.92,4,1
18734.359,0.381,0.251,0.917,-7.32,-6.32,33.08,4,1
18734.375,0.405,0.219,0.907,-9.4,-11.35,30.18,4,1
18734.375,0.419,0.208,0.887,-7.69,-13.25,25.7,4,1
18734.406,0.437,0.205,0.865,-3.66,-11.08,17.18,4,1
18734.406,0.447,0.202,0.861,-3.33,-9.25,12.94,4,1
18734.421,0.446,0.212,0.855,-3.6,-7.66,8.61,4,1
18734.421,0.448,0.214,0.858,-5.22,-6.74,4.15,4,1
18734.437,0.45,0.223,0.859,-7.11,-6.1,0.37,4,1
18734.453,0.453,0.24,0.855,-7.72,-5.22,-1.95,4,1
18734.468,0.45,0.242,0.867,-6.78,-3.85,-2.93,4,1
18734.468,0.439,0.25,0.88,-5.19,-2.81,-3.14,4,1
18734.484,0.426,0.243,0.885,-3.2,-2.26,-3.23,4,1
18734.484,0.416,0.235,0.882,-1.77,-1.8,-2.96,4,1
18734.5,0.423,0.229,0.877,-0.55,-2.17,-3.6,4,1
18734.515,0.419,0.223,0.874,-0.27,-3.23,-6.68,4,1
18734.515,0.414,0.229,0.881,-1.1,-4.0,-9.64,4,1
18734.531,0.415,0.232,0.873,-2.29,-5.58,-12.88,4,1
18734.546,0.407,0.245,0.868,-6.23,-8.27,-17.27,4,1
18734.546,0.386,0.262,0.882,-10.56,-10.93,-20.51,4,1
18734.562,0.386,0.292,0.882,-5.77,-10.86,-11.2,4,1
18734.578,0.395,0.288,0.876,-3.66,-9.28,-6.35,4,1
18734.593,0.398,0.278,0.877,-4.33,-8.85,-4.0,4,1
18734.593,0.393,0.269,0.886,-5.16,-9.06,-2.53,4,1
18734.609,0.396,0.268,0.88,-4.7,-9.37,-0.34,4,1
18734.625,0.41,0.262,0.871,-3.88,-9.28,2.35,4,1
18734.625,0.417,0.248,0.874,-3.85,-9.13,3.02,4,1
18734.64,0.415,0.249,0.879,-4.03,-9.37,3.14,4,1
18734.656,0.426,0.249,0.892,-3.23,-9.89,3.69,4,1
18734.656,0.443,0.237,0.903,-1.4,-10.32,3.48,4,1
18734.671,0.438,0.23,0.882,0.58,-10.13,1.86,4,1
18734.671,0.438,0.226,0.821,0.52,-9.0,0.89,4,1
18734.687,0.474,0.223,0.803,-3.54,-5.37,-1.1,4,1
18734.703,0.46,0.226,0.821,-6.59,0.31,-4.76,4,1
18734.703,0.435,0.232,0.869,-6.71,4.03,-6.01,4,1
18734.718,0.441,0.236,0.942,-5.52,2.72,-6.62,4,1
18734.734,0.461,0.244,0.912,-5.77,-3.72,-11.6,4,1
18734.75,0.436,0.27,0.925,-8.94,-4.61,-15.29,4,1
18734.765,0.432,0.281,0.896,-8.39,-3.11,-14.77,4,1
18734.765,0.413,0.261,0.862,-5.34,1.4,-12.24,4,1
18734.781,0.368,0.244,0.827,1.56,11.05,-7.39,4,1
18734.796,0.323,0.247,0.815,7.35,19.44,-0.64,4,1
18734.796,0.282,0.246,0.788,7.45,20.75,6.1,4,1
18734.812,0.267,0.208,0.706,3.02,18.01,12.27,4,1
18734.812,0.325,0.214,0.708,-6.16,13.79,16.36,4,1
18734.828,0.411,0.245,0.905,-9.37,6.04,12.18,4,1
18734.843,0.413,0.272,0.971,-2.62,-9.4,12.85,4,1
18734.843,0.552,0.34,0.973,-8.48,-18.77,15.87,4,1
18734.859,0.529,0.268,0.969,-16.75,-19.14,3.63,4,1
18734.875,0.386,0.109,1.098,-18.98,-23.65,-7.69,4,1
18734.875,0.33,0.099,1.049,-2.14,-37.02,-6.65,4,1
18734.89,0.455,0.108,0.944,6.9,-48.4,-2.56,4,1
18734.906,0.551,0.034,0.916,13.79,-44.65,-25.91,4,1
18734.921,0.531,0.101,0.798,24.96,-36.96,-38.51,4,1
18734.937,0.504,0.193,0.734,27.38,-27.62,-47.61,4,1
18734.937,0.526,0.268,0.699,22.0,-21.03,-55.48,4,1
18734.953,0.51,0.347,0.673,7.66,-15.26,-63.75,4,1
18734.953,0.468,0.389,0.671,-11.11,-11.14,-70.1,4,1
18734.968,0.441,0.392,0.659,-28.75,-8.79,-72.21,4,1
18734.984,0.434,0.41,0.683,-40.99,-3.08,-66.07,4,1
18734.984,0.46,0.428,0.74,-44.28,7.51,-51.0,4,1
18735.0,0.461,0.438,0.808,-42.36,19.35,-35.77,4,1
18735.015,0.426,0.407,0.885,-41.26,26.92,-26.49,4,1
18735.015,0.302,0.343,0.972,-42.6,24.93,-21.45,4,1
18735.031,0.23,0.295,1.081,-41.99,9.28,-12.12,4,1
18735.031,0.344,0.212,1.037,-38.06,-10.41,-3.14,4,1
18735.046,0.375,0.156,0.938,-33.78,-17.98,-3.51,4,1
18735.062,0.379,0.134,0.898,-25.03,-16.39,-2.38,4,1
18735.078,0.408,0.194,0.909,-6.59,-7.2,5.13,4,1
18735.093,0.39,0.226,0.938,-0.52,-4.15,8.76,4,1
18735.093,0.392,0.256,0.95,5.98,-4.55,13.55,4,1
18735.109,0.388,0.277,0.933,10.38,-8.09,16.72,4,1
18735.125,0.389,0.275,0.888,11.69,-12.02,19.68,4,1
18735.125,0.411,0.261,0.85,10.62,-14.59,22.77,4,1
18735.14,0.44,0.256,0.819,7.78,-14.4,24.6,4,1
18735.156,0.463,0.246,0.806,4.03,-11.32,25.45,4,1
18735.156,0.476,0.223,0.806,-1.43,-4.18,22.25,4,1
18735.187,0.49,0.21,0.819,-2.99,-1.37,18.68,4,1
18735.187,0.495,0.194,0.834,-3.08,0.79,15.32,4,1
18735.187,0.496,0.178,0.842,-2.56,1.86,11.41,4,1
18735.203,0.49,0.18,0.862,-2.47,2.2,7.48,4,1
18735.203,0.483,0.187,0.868,-2.66,2.23,4.21,4,1
18735.218,0.474,0.194,0.876,-1.74,1.46,1.46,4,1
18735.234,0.465,0.214,0.875,0.06,0.76,-0.49,4,1
18735.25,0.444,0.22,0.872,2.26,1.04,-1.98,4,1
18735.265,0.436,0.22,0.874,3.17,1.59,-1.46,4,1
18735.265,0.429,0.217,0.875,4.58,2.32,-0.21,4,1
18735.281,0.427,0.217,0.879,5.28,2.41,0.34,4,1
18735.296,0.426,0.215,0.882,5.19,1.59,0.15,4,1
18735.296,0.436,0.224,0.878,4.7,0.09,-0.18,4,1
18735.312,0.437,0.238,0.869,3.54,-1.8,-1.22,4,1
18735.328,0.44,0.246,0.863,2.26,-3.33,-1.28,4,1
18735.328,0.441,0.261,0.864,1.92,-3.54,0.18,4,1
18735.343,0.431,0.263,0.865,1.68,-3.33,2.44,4,1
18735.343,0.428,0.252,0.865,1.31,-3.57,5.22,4,1
18735.359,0.436,0.247,0.863,2.01,-3.57,8.0,4,1
18735.375,0.447,0.256,0.86,4.55,-2.35,10.9,4,1
18735.375,0.446,0.246,0.862,4.52,-1.01,12.63,4,1
18735.39,0.439,0.217,0.86,1.22,-1.86,11.69,4,1
18735.406,0.456,0.208,0.863,-2.32,-3.33,10.5,4,1
18735.406,0.454,0.207,0.863,-5.22,-4.88,8.12,4,1
18735.421,0.453,0.201,0.859,-6.65,-6.1,6.87,4,1
18735.421,0.459,0.203,0.859,-6.26,-6.2,6.93,4,1
18735.437,0.459,0.203,0.863,-4.18,-5.07,8.06,4,1
18735.453,0.463,0.204,0.872,-2.41,-3.72,8.85,4,1
18735.468,0.453,0.2,0.87,-1.22,-3.05,8.94,4,1
18735.468,0.454,0.202,0.874,-0.03,-2.59,9.67,4,1
18735.484,0.443,0.213,0.878,1.22,-3.3,9.52,4,1
18735.484,0.442,0.226,0.86,1.34,-4.27,10.04,4,1
18735.5,0.459,0.229,0.842,-0.09,-5.04,10.8,4,1
18735.515,0.47,0.221,0.843,-1.46,-4.97,10.28,4,1
18735.515,0.472,0.214,0.845,-2.01,-4.0,9.7,4,1
18735.531,0.477,0.205,0.846,-2.01,-2.66,9.61,4,1
18735.531,0.485,0.199,0.856,-2.5,-1.92,7.93,4,1
18735.546,0.475,0.206,0.858,-3.57,-1.98,5.19,4,1
18735.562,0.465,0.213,0.853,-4.67,-2.29,4.7,4,1
18735.562,0.468,0.212,0.852,-5.19,-2.5,5.1,4,1
18735.578,0.467,0.21,0.848,-5.92,-2.78,4.76,4,1
18735.593,0.462,0.215,0.848,-7.84,-2.93,4.46,4,1
18735.609,0.456,0.218,0.844,-10.1,-2.66,4.91,4,1
18735.609,0.456,0.222,0.844,-12.42,-2.53,6.01,4,1
18735.625,0.46,0.217,0.842,-14.34,-1.83,7.81,4,1
18735.625,0.47,0.209,0.84,-15.66,0.03,9.55,4,1
18735.64,0.472,0.195,0.859,-17.27,2.01,9.7,4,1
18735.656,0.47,0.184,0.886,-18.4,2.69,9.28,4,1
18735.656,0.468,0.168,0.888,-16.94,3.02,9.4,4,1
18735.671,0.465,0.161,0.878,-15.11,2.96,8.91,4,1
18735.671,0.466,0.163,0.891,-13.98,2.26,8.27,4,1
18735.687,0.464,0.164,0.845,-13.0,1.59,7.87,4,1
18735.703,0.467,0.178,0.86,-14.74,2.59,7.32,4,1
18735.718,0.459,0.152,0.863,-14.5,1.92,7.81,4,1
18735.718,0.508,0.151,0.865,-16.39,0.79,6.59,4,1
18735.734,0.495,0.122,0.904,-14.74,4.09,3.6,4,1
18735.734,0.469,0.072,0.914,-8.61,5.8,0.55,4,1
18735.75,0.47,0.068,0.901,-2.9,4.91,-3.57,4,1
18735.765,0.455,0.085,0.897,2.35,4.24,-8.24,4,1
18735.765,0.418,0.109,0.886,8.3,4.39,-10.13,4,1
18735.781,0.402,0.141,0.879,12.97,3.97,-8.7,4,1
18735.796,0.401,0.146,0.846,14.5,1.46,-7.78,4,1
18735.796,0.434,0.145,0.82,11.84,-2.35,-8.21,4,1
18735.812,0.458,0.168,0.838,9.09,-6.96,-10.65,4,1
18735.812,0.505,0.204,0.799,5.31,-10.53,-12.18,4,1
18735.828,0.511,0.278,0.891,-1.86,-10.47,-15.44,4,1
18735.843,0.39,0.343,0.993,-0.95,-11.05,-13.55,4,1
18735.859,0.352,0.346,0.927,-4.18,-20.78,-1.92,4,1
18735.859,0.448,0.258,0.969,-16.75,-31.37,7.48,4,1
18735.875,0.501,0.1,0.955,-20.48,-35.74,7.35,4,1
18735.89,0.485,0.043,0.945,-13.0,-34.39,5.16,4,1
18735.89,0.531,0.014,0.924,5.95,-31.86,4.67,4,1
18735.906,0.557,0.056,0.886,22.13,-28.63,-0.12,4,1
18735.906,0.556,0.093,0.864,30.79,-25.64,-7.66,4,1
18735.921,0.547,0.132,0.835,32.32,-23.07,-14.31,4,1
18735.937,0.544,0.163,0.8,33.23,-19.78,-18.49,4,1
18735.937,0.529,0.184,0.755,34.3,-15.38,-21.06,4,1
18735.953,0.515,0.223,0.729,29.82,-11.05,-22.74,4,1
18735.953,0.515,0.254,0.736,20.69,-7.35,-23.53,4,1
18735.968,0.497,0.266,0.736,11.26,-4.0,-23.59,4,1
18735.984,0.496,0.271,0.746,2.9,-1.04,-22.43,4,1
18735.984,0.5,0.277,0.746,-4.73,2.41,-21.21,4,1
18736.0,0.486,0.289,0.751,-12.18,6.71,-19.44,4,1
18736.015,0.476,0.284,0.776,-19.41,9.49,-16.14,4,1
18736.031,0.485,0.26,0.79,-26.43,10.44,-12.21,4,1
18736.031,0.512,0.211,0.787,-31.59,11.9,-9.4,4,1
18736.046,0.543,0.165,0.784,-33.88,15.44,-9.03,4,1
18736.046,0.536,0.138,0.816,-33.66,21.06,-11.93,4,1
18736.062,0.493,0.115,0.898,-31.34,23.41,-16.27,4,1
18736.062,0.484,0.107,0.946,-27.47,19.9,-21.06,4,1
18736.078,0.496,0.105,0.934,-21.85,16.57,-26.46,4,1
18736.093,0.49,0.102,0.923,-12.91,17.67,-31.19,4,1
18736.093,0.461,0.132,0.925,-2.08,20.87,-32.96,4,1
18736.109,0.411,0.179,0.922,5.55,21.67,-31.31,4,1
18736.125,0.393,0.21,0.908,7.63,18.31,-27.13,4,1
18736.125,0.401,0.235,0.878,6.13,13.64,-22.89,4,1
18736.14,0.416,0.244,0.836,-2.35,10.07,-18.1,4,1
18736.156,0.446,0.25,0.817,-6.01,12.54,-17.52,4,1
18736.156,0.449,0.262,0.837,-7.66,13.92,-17.12,4,1
18736.171,0.421,0.264,0.885,-7.63,11.32,-15.08,4,1
18736.171,0.404,0.253,0.932,-7.69,6.93,-12.33,4,1
18736.187,0.386,0.241,0.953,-6.87,1.71,-9.58,4,1
18736.203,0.383,0.198,0.918,-4.27,-4.33,-5.46,4,1
18736.218,0.43,0.169,0.861,-3.6,-8.21,-1.77,4,1
18736.218,0.462,0.173,0.854,-4.09,-6.93,-1.43,4,1
18736.234,0.456,0.177,0.869,-2.11,-3.45,-2.32,4,1
18736.234,0.451,0.197,0.878,0.18,-1.37,-2.87,4,1
18736.25,0.453,0.212,0.877,0.82,-0.43,-3.69,4,1
18736.265,0.44,0.204,0.874,1.22,0.46,-4.15,4,1
18736.265,0.429,0.193,0.876,1.31,0.73,-3.85,4,1
18736.281,0.424,0.196,0.878,0.82,0.52,-3.08,4,1
18736.296,0.425,0.198,0.873,0.46,0.18,-1.62,4,1
18736.296,0.432,0.199,0.876,0.18,0.37,-0.34,4,1
18736.312,0.435,0.199,0.883,0.55,1.13,0.34,4,1
18736.312,0.433,0.2,0.879,2.47,1.98,0.76,4,1
18736.328,0.434,0.198,0.877,4.36,2.93,0.89,4,1
18736.343,0.427,0.2,0.866,6.26,3.94,0.85,4,1
18736.343,0.427,0.213,0.867,7.78,5.07,1.71,4,1
18736.359,0.413,0.229,0.874,8.91,6.13,2.53,4,1
18736.375,0.39,0.259,0.892,8.91,6.04,4.67,4,1
18736.375,0.362,0.285,0.908,7.93,2.93,8.67,4,1
18736.39,0.345,0.276,0.906,3.17,-3.54,13.89,4,1
18736.406,0.293,0.253,1.026,-2.38,-17.3,15.47,4,1
18736.406,0.3,0.29,1.031,-0.03,-37.02,23.56,4,1
18736.421,0.358,0.27,0.943,-1.95,-54.45,30.85,4,1
18736.437,0.441,0.188,0.88,-7.69,-64.0,32.32,4,1
18736.453,0.568,0.095,0.802,-3.42,-51.09,25.79,4,1
18736.453,0.582,0.089,0.777,5.55,-36.59,20.54,4,1
18736.468,0.58,0.122,0.782,10.71,-24.75,15.47,4,1
18736.484,0.579,0.164,0.796,11.17,-17.15,10.96,4,1
18736.484,0.556,0.194,0.827,10.04,-12.82,7.14,4,1
18736.5,0.542,0.221,0.841,10.77,-12.15,6.5,4,1
18736.515,0.543,0.232,0.828,12.85,-12.42,7.66,4,1
18736.515,0.54,0.222,0.816,13.52,-11.29,7.75,4,1
18736.531,0.535,0.198,0.81,13.52,-9.74,6.78,4,1
18736.531,0.548,0.174,0.805,12.54,-7.32,5.43,4,1
18736.546,0.566,0.16,0.788,12.42,-2.32,3.14,4,1
18736.562,0.564,0.161,0.772,15.35,5.68,0.31,4,1
18736.578,0.556,0.16,0.785,17.15,13.37,-2.44,4,1
18736.578,0.541,0.187,0.788,15.53,19.14,-6.44,4,1
18736.593,0.536,0.211,0.802,13.58,23.96,-9.09,4,1
18736.593,0.517,0.205,0.82,11.54,26.55,-11.23,4,1
18736.609,0.492,0.22,0.814,8.24,26.03,-14.86,4,1
18736.625,0.446,0.23,0.86,2.35,24.23,-17.09,4,1
18736.625,0.388,0.215,0.978,-3.05,14.98,-18.52,4,1
18736.64,0.423,0.174,0.978,-3.6,-0.67,-19.56,4,1
18736.656,0.453,0.171,0.848,-0.82,-9.67,-22.25,4,1
18736.656,0.509,0.183,0.776,-1.95,-8.12,-24.72,4,1
18736.671,0.515,0.182,0.76,-5.86,-3.27,-30.34,4,1
18736.687,0.508,0.197,0.77,-12.51,0.64,-36.62,4,1
18736.687,0.495,0.224,0.79,-18.89,3.72,-40.62,4,1
18736.703,0.484,0.255,0.82,-20.69,7.39,-39.64,4,1
18736.718,0.474,0.29,0.855,-15.69,12.67,-33.45,4,1
18736.718,0.449,0.299,0.88,-8.97,17.0,-26.37,4,1
18736.734,0.419,0.279,0.894,-6.9,16.33,-21.85,4,1
18736.734,0.403,0.251,0.901,-8.76,11.78,-18.98,4,1
18736.75,0.407,0.237,0.906,-9.55,6.84,-16.42,4,1
18736.765,0.41,0.235,0.902,-7.69,3.27,-13.61,4,1
18736.765,0.418,0.236,0.885,-5.25,1.31,-11.17,4,1
18736.781,0.42,0.23,0.869,-4.85,-0.09,-9.58,4,1
18736.796,0.434,0.237,0.857,-5.68,-1.04,-7.93,4,1
18736.796,0.448,0.242,0.852,-6.23,-0.37,-6.23,4,1
18736.812,0.45,0.232,0.85,-6.78,0.95,-5.52,4,1
18736.812,0.455,0.224,0.853,-7.69,1.89,-5.55,4,1
18736.828,0.455,0.22,0.857,-7.93,2.66,-5.62,4,1
18736.843,0.454,0.221,0.862,-7.35,2.99,-5.58,4,1
18736.843,0.457,0.224,0.863,-6.62,2.75,-5.86,4,1
18736.859,0.458,0.226,0.858,-6.35,2.44,-6.59,4,1
18736.875,0.457,0.226,0.857,-6.74,2.72,-7.08,4,1
18736.875,0.457,0.231,0.861,-6.59,3.54,-6.65,4,1
18736.89,0.453,0.227,0.867,-5.77,4.49,-5.86,4,1
18736.906,0.447,0.216,0.871,-5.62,4.58,-6.16,4,1
18736.906,0.44,0.209,0.877,-5.31,4.36,-6.47,4,1
18736.921,0.44,0.216,0.876,-4.52,3.6,-6.2,4,1
18736.921,0.44,0.217,0.874,-4.21,2.44,-6.56,4,1
18736.937,0.435,0.219,0.876,-4.36,1.31,-7.45,4,1
18736.953,0.429,0.235,0.9,-3.6,-0.76,-6.41,4,1
18736.968,0.422,0.237,0.894,-1.01,-1.53,-4.52,4,1
18736.984,0.431,0.226,0.877,0.61,-1.89,-2.5,4,1
18737.0,0.435,0.205,0.866,0.37,-1.59,-2.23,4,1
18737.0,0.437,0.2,0.866,1.16,-0.89,-2.01,4,1
18737.015,0.441,0.214,0.868,2.26,-0.12,-1.98,4,1
18737.015,0.435,0.228,0.87,2.2,-0.18,-3.02,4,1
18737.031,0.442,0.237,0.867,1.31,-1.53,-3.48,4,1
18737.046,0.45,0.242,0.854,0.55,-1.92,-3.48,4,1
18737.046,0.45,0.234,0.851,-0.43,-1.16,-3.39,4,1
18737.062,0.444,0.224,0.856,-1.56,-0.4,-3.36,4,1
18737.062,0.442,0.223,0.869,-1.92,0.27,-2.84,4,1
18737.078,0.441,0.214,0.89,-1.04,0.43,-2.5,4,1
18737.093,0.44,0.203,0.911,0.18,-0.18,-3.3,4,1
18737.093,0.438,0.204,0.918,3.14,-1.68,-4.03,4,1
18737.109,0.448,0.195,0.905,6.84,-3.3,-5.13,4,1
18737.14,0.457,0.18,0.863,14.83,0.09,-11.38,4,1
18737.14,0.45,0.204,0.846,14.44,1.89,-12.36,4,1
18737.156,0.453,0.235,0.85,12.67,2.87,-13.31,4,1
18737.156,0.437,0.276,0.854,10.19,2.69,-14.31,4,1
18737.171,0.45,0.29,0.858,6.07,2.69,-14.19,4,1
18737.187,0.472,0.286,0.867,2.59,4.52,-14.28,4,1
18737.187,0.458,0.263,0.868,2.01,8.09,-14.25,4,1
18737.203,0.431,0.241,0.876,2.99,11.81,-12.85,4,1
18737.203,0.425,0.251,0.85,3.66,13.79,-11.26,4,1
18737.218,0.386,0.255,0.852,4.58,14.4,-10.01,4,1
18737.234,0.38,0.227,0.825,5.25,13.0,-7.51,4,1
18737.234,0.381,0.221,0.823,4.67,13.55,-4.76,4,1
18737.25,0.364,0.22,0.841,6.93,16.17,-2.41,4,1
18737.265,0.348,0.241,0.881,9.7,16.97,0.64,4,1
18737.265,0.348,0.274,0.888,11.96,11.99,3.57,4,1
18737.281,0.37,0.314,0.868,11.9,7.11,6.9,4,1
18737.296,0.355,0.399,0.865,-2.11,-7.29,11.02,4,1
18737.312,0.379,0.399,0.758,-16.05,-17.46,14.31,4,1
18737.312,0.454,0.361,0.736,-34.33,-16.94,17.55,4,1
18737.328,0.434,0.297,0.795,-44.37,-8.42,19.38,4,1
18737.343,0.415,0.234,0.875,-47.24,-2.72,22.4,4,1
18737.343,0.418,0.181,0.958,-45.59,-2.56,23.01,4,1
18737.359,0.426,0.12,1.001,-39.7,-5.86,21.09,4,1
18737.375,0.451,0.084,0.996,-28.78,-9.09,18.77,4,1
18737.375,0.482,0.069,0.964,-15.23,-9.95,15.11,4,1
18737.39,0.49,0.091,0.957,-1.95,-8.3,9.31,4,1
18737.406,0.46,0.12,0.946,10.62,-6.68,4.0,4,1
18737.406,0.445,0.152,0.927,20.17,-7.48,1.83,4,1
18737.421,0.442,0.198,0.907,26.46,-8.61,0.82,4,1
18737.437,0.426,0.22,0.87,29.15,-9.74,-0.09,4,1
18737.437,0.427,0.243,0.875,27.83,-10.32,0.0,4,1
18737.453,0.387,0.272,0.876,27.22,-11.32,1.04,4,1
18737.468,0.409,0.298,0.819,17.3,-11.81,9.13,4,1
18737.484,0.404,0.297,0.838,11.41,-10.74,12.57,4,1
18737.5,0.415,0.289,0.863,6.87,-12.02,16.45,4,1
18737.5,0.432,0.269,0.868,3.02,-14.47,18.92,4,1
18737.515,0.446,0.251,0.848,2.44,-15.69,20.29,4,1
18737.515,0.469,0.236,0.855,3.39,-14.01,22.92,4,1
18737.531,0.479,0.215,0.874,7.02,-10.93,24.51,4,1
18737.546,0.471,0.201,0.885,12.51,-8.39,24.72,4,1
18737.546,0.465,0.207,0.901,17.27,-7.87,24.29,4,1
18737.562,0.442,0.212,0.902,22.46,-7.87,25.21,4,1
18737.562,0.453,0.206,0.884,27.65,-8.03,27.65,4,1
18737.578,0.457,0.204,0.861,30.58,-8.85,27.77,4,1
18737.593,0.459,0.228,0.836,31.01,-9.43,26.76,4,1
18737.593,0.479,0.244,0.796,29.02,-8.03,27.04,4,1
18737.609,0.494,0.24,0.793,25.79,-3.75,26.95,4,1
18737.625,0.481,0.237,0.818,25.12,1.65,27.31,4,1
18737.64,0.502,0.24,0.842,28.81,6.62,29.02,4,1
18737.656,0.483,0.237,0.84,26.89,5.86,24.63,4,1
18737.656,0.469,0.239,0.839,24.23,3.85,21.97,4,1
18737.671,0.482,0.25,0.838,23.41,2.9,22.86,4,1
18737.687,0.485,0.258,0.852,23.68,2.72,22.98,4,1
18737.687,0.472,0.262,0.852,24.54,2.04,22.71,4,1
18737.703,0.478,0.263,0.84,25.88,1.83,24.02,4,1
18737.703,0.482,0.253,0.815,26.4,2.35,24.02,4,1
18737.718,0.485,0.249,0.81,23.77,3.11,22.89,4,1
18737.734,0.485,0.242,0.823,22.13,4.33,21.58,4,1
18737.734,0.481,0.246,0.821,21.64,5.8,21.18,4,1
18737.75,0.484,0.253,0.832,20.6,6.41,20.75,4,1
18737.765,0.472,0.268,0.84,19.47,6.47,20.6,4,1
18737.781,0.474,0.274,0.84,19.47,5.95,21.85,4,1
18737.781,0.473,0.271,0.839,18.83,4.64,22.1,4,1
18737.796,0.467,0.276,0.838,16.63,2.59,21.21,4,1
18737.812,0.479,0.272,0.84,12.15,-2.5,17.94,4,1
18737.828,0.486,0.276,0.838,12.57,-4.03,17.76,4,1
18737.828,0.504,0.272,0.815,14.56,-3.27,18.22,4,1
18737.843,0.507,0.259,0.801,14.86,-1.37,16.97,4,1
18737.843,0.493,0.255,0.806,13.15,0.7,14.62,4,1
18737.859,0.482,0.256,0.815,11.23,1.65,13.43,4,1
18737.875,0.489,0.257,0.818,8.73,0.85,12.91,4,1
18737.875,0.5,0.256,0.819,6.07,-0.49,11.41,4,1
18737.89,0.507,0.253,0.817,4.03,-1.25,8.91,4,1
18737.906,0.509,0.252,0.808,2.29,-1.62,5.83,4,1
18737.906,0.512,0.252,0.797,-0.18,-2.14,2.66,4,1
18737.921,0.511,0.257,0.782,-3.3,-2.47,-1.1,4,1
18737.937,0.511,0.27,0.795,-5.13,-1.53,-2.81,4,1
18737.937,0.499,0.292,0.846,-4.18,1.68,-1.74,4,1
18737.953,0.473,0.278,0.882,-1.31,2.9,-0.98,4,1
18737.953,0.455,0.251,0.869,0.89,-0.06,-0.58,4,1
18737.968,0.481,0.253,0.836,2.14,-2.5,0.67,4,1
18737.984,0.482,0.258,0.826,3.72,-1.62,0.82,4,1
18737.984,0.482,0.272,0.824,4.67,-1.19,1.46,4,1
18738.0,0.49,0.286,0.816,3.94,-1.71,1.37,4,1
18738.015,0.49,0.28,0.809,2.29,-1.92,0.58,4,1
18738.015,0.478,0.283,0.812,1.4,-1.59,0.43,4,1
18738.031,0.465,0.291,0.823,0.67,-1.13,1.56,4,1
18738.046,0.451,0.303,0.831,-0.92,-2.08,2.81,4,1
18738.046,0.436,0.318,0.843,-2.66,-4.61,4.39,4,1
18738.062,0.408,0.331,0.857,-5.13,-10.19,7.02,4,1
18738.078,0.415,0.314,0.879,-8.09,-19.38,11.17,4,1
18738.078,0.453,0.251,0.859,-12.85,-32.17,12.54,4,1
18738.093,0.48,0.198,0.835,-18.65,-41.05,9.83,4,1
18738.093,0.534,0.142,0.876,-20.51,-44.62,6.96,4,1
18738.109,0.555,0.157,0.871,-5.04,-36.53,2.38,4,1
18738.125,0.589,0.205,0.811,3.2,-28.23,0.67,4,1
18738.14,0.606,0.211,0.783,8.58,-21.94,-2.99,4,1
18738.14,0.595,0.221,0.77,9.77,-16.39,-6.59,4,1
18738.156,0.582,0.259,0.734,8.55,-11.47,-8.82,4,1
18738.156,0.588,0.273,0.73,8.3,-5.98,-9.43,4,1
18738.171,0.578,0.304,0.724,7.32,0.18,-9.86,4,1
18738.187,0.549,0.306,0.723,3.75,5.31,-10.9,4,1
18738.187,0.528,0.315,0.742,-1.5,8.88,-9.8,4,1
18738.203,0.524,0.325,0.77,-6.87,10.38,-7.57,4,1
18738.203,0.513,0.301,0.79,-9.43,10.8,-5.95,4,1
18738.218,0.504,0.296,0.807,-12.36,10.99,-3.45,4,1
18738.234,0.498,0.277,0.826,-14.01,10.38,-1.62,4,1
18738.234,0.494,0.268,0.838,-14.07,8.39,-0.18,4,1
18738.25,0.499,0.256,0.85,-13.86,6.07,1.19,4,1
18738.265,0.507,0.234,0.858,-11.9,4.18,1.92,4,1
18738.265,0.52,0.235,0.855,-8.67,3.23,2.5,4,1
18738.281,0.528,0.217,0.846,-4.03,3.36,1.77,4,1
18738.296,0.526,0.212,0.834,0.58,4.0,0.76,4,1
18738.296,0.53,0.218,0.826,3.17,4.33,-0.79,4,1
18738.312,0.532,0.217,0.827,4.91,4.3,-2.9,4,1
18738.328,0.531,0.231,0.817,6.41,4.94,-4.7,4,1
18738.328,0.53,0.25,0.808,7.63,6.41,-5.98,4,1
18738.343,0.532,0.254,0.806,8.21,7.6,-6.93,4,1
18738.343,0.531,0.261,0.79,7.87,8.88,-8.03,4,1
18738.359,0.528,0.267,0.773,7.17,11.17,-9.06,4,1
18738.375,0.52,0.264,0.785,4.67,13.31,-10.01,4,1
18738.39,0.523,0.266,0.792,1.74,14.34,-11.44,4,1
18738.39,0.522,0.275,0.78,-0.55,15.87,-12.67,4,1
18738.406,0.509,0.269,0.783,-2.47,18.28,-13.31,4,1
18738.406,0.502,0.266,0.8,-4.09,20.39,-13.31,4,1
18738.421,0.489,0.28,0.821,-5.52,21.0,-13.61,4,1
18738.437,0.465,0.285,0.84,-7.29,19.75,-13.46,4,1
18738.437,0.439,0.289,0.88,-8.61,15.84,-12.36,4,1
18738.453,0.435,0.282,0.91,-7.26,9.25,-9.86,4,1
18738.453,0.444,0.265,0.9,-5.13,2.72,-8.06,4,1
18738.468,0.455,0.246,0.88,-2.78,-1.68,-7.29,4,1
18738.484,0.469,0.233,0.863,-0.27,-3.78,-7.81,4,1
18738.484,0.469,0.245,0.849,1.98,-4.67,-9.13,4,1
18738.5,0.48,0.262,0.837,3.94,-4.24,-8.97,4,1
18738.515,0.478,0.271,0.827,5.71,-2.59,-8.3,4,1
18738.515,0.474,0.27,0.819,6.1,-1.86,-7.75,4,1
18738.531,0.477,0.276,0.814,4.15,-2.78,-8.45,4,1
18738.546,0.477,0.285,0.808,0.92,-4.09,-9.58,4,1
18738.546,0.476,0.298,0.811,-1.59,-4.3,-9.13,4,1
18738.562,0.482,0.301,0.813,-2.87,-3.51,-7.39,4,1
18738.578,0.482,0.29,0.816,-3.2,-2.32,-5.83,4,1
18738.578,0.481,0.281,0.833,-2.66,-0.92,-4.3,4,1
18738.593,0.473,0.275,0.843,-0.89,0.34,-3.02,4,1
18738.593,0.469,0.263,0.841,0.73,0.82,-2.11,4,1
18738.609,0.475,0.261,0.838,1.56,0.4,-1.98,4,1
18738.625,0.478,0.269,0.838,2.99,0.79,-1.4,4,1
18738.625,0.481,0.276,0.842,4.76,1.68,-0.46,4,1
18738.64,0.478,0.273,0.835,5.58,1.86,-0.49,4,1
18738.656,0.474,0.274,0.822,5.04,1.28,-1.04,4,1
18738.671,0.472,0.291,0.829,4.76,2.41,0.06,4,1
18738.687,0.463,0.291,0.835,4.58,2.93,0.64,4,1
18738.687,0.446,0.297,0.84,4.27,2.47,1.68,4,1
18738.703,0.433,0.311,0.846,4.36,1.98,3.91,4,1
18738.703,0.415,0.335,0.858,3.78,-0.31,6.81,4,1
18738.718,0.39,0.359,0.867,1.86,-6.29,10.47,4,1
18738.734,0.38,0.358,0.908,-1.74,-15.29,15.69,4,1
18738.734,0.411,0.311,0.92,-4.12,-29.76,19.81,4,1
18738.75,0.433,0.269,0.863,-8.91,-41.63,21.06,4,1
18738.765,0.476,0.203,0.835,-12.51,-47.91,20.69,4,1
18738.765,0.555,0.168,0.804,-12.33,-48.68,18.49,4,1
18738.781,0.592,0.181,0.756,-9.67,-44.22,11.54,4,1
18738.781,0.619,0.193,0.725,-6.68,-34.46,4.85,4,1
18738.796,0.633,0.201,0.713,-4.39,-23.26,-1.71,4,1
18738.812,0.631,0.221,0.713,-2.9,-12.7,-8.91,4,1
18738.828,0.623,0.239,0.72,-3.3,-3.72,-14.59,4,1
18738.843,0.589,0.269,0.721,-9.64,8.97,-21.45,4,1
18738.843,0.573,0.285,0.718,-11.96,15.26,-22.28,4,1
18738.859,0.561,0.298,0.738,-13.98,21.55,-21.55,4,1
18738.875,0.549,0.285,0.76,-15.75,27.25,-22.0,4,1
18738.875,0.516,0.275,0.781,-18.56,30.98,-23.83,4,1
18738.89,0.491,0.281,0.812,-20.91,32.38,-24.2,4,1
18738.906,0.469,0.285,0.841,-22.22,31.95,-23.53,4,1
18738.921,0.453,0.282,0.857,-23.1,29.42,-22.03,4,1
18738.921,0.449,0.279,0.876,-24.45,25.51,-20.33,4,1
18738.937,0.451,0.261,0.893,-25.24,21.3,-19.84,4,1
18738.937,0.44,0.245,0.887,-24.38,17.7,-19.78,4,1
18738.953,0.443,0.248,0.896,-21.45,15.41,-18.22,4,1
18738.968,0.436,0.254,0.897,-16.24,15.2,-15.72,4,1
18738.968,0.426,0.248,0.895,-10.59,16.14,-12.48,4,1
18738.984,0.427,0.246,0.899,-5.37,16.66,-9.28,4,1
18739.0,0.407,0.244,0.904,-1.59,15.47,-7.26,4,1
18739.0,0.388,0.238,0.938,1.13,11.75,-4.21,4,1
18739.015,0.413,0.224,0.931,3.69,4.03,-1.8,4,1
18739.015,0.43,0.229,0.9,5.65,-2.23,-1.71,4,1
18739.031,0.451,0.242,0.873,9.83,-4.15,-0.03,4,1
18739.046,0.456,0.272,0.853,13.58,-3.48,1.77,4,1
18739.046,0.462,0.28,0.838,15.29,-2.01,3.39,4,1
18739.062,0.455,0.277,0.839,14.86,-1.01,4.0,4,1
18739.078,0.449,0.277,0.845,15.08,-0.06,5.62,4,1
18739.078,0.45,0.277,0.848,15.93,0.76,7.75,4,1
18739.093,0.457,0.271,0.848,16.02,0.95,8.61,4,1
18739.093,0.45,0.266,0.846,15.05,-0.09,8.79,4,1
18739.109,0.447,0.266,0.857,15.05,-1.34,9.0,4,1
18739.125,0.447,0.265,0.863,15.32,-2.87,8.79,4,1
18739.125,0.438,0.293,0.862,15.93,-4.09,9.43,4,1
18739.14,0.439,0.293,0.855,17.03,-4.97,11.32,4,1
18739.156,0.445,0.287,0.839,17.43,-5.89,12.7,4,1
18739.156,0.452,0.282,0.824,16.21,-6.53,13.37,4,1
18739.187,0.469,0.285,0.808,10.99,-6.9,13.18,4,1
18739.187,0.488,0.29,0.81,8.58,-6.16,13.4,4,1
18739.203,0.502,0.277,0.8,6.26,-5.22,11.69,4,1
18739.203,0.499,0.268,0.786,3.78,-3.91,8.48,4,1
18739.218,0.506,0.262,0.793,1.62,-1.98,6.2,4,1
18739.234,0.506,0.255,0.809,0.34,0.43,3.88,4,1
18739.234,0.501,0.254,0.827,0.06,2.59,1.56,4,1
18739.25,0.488,0.252,0.84,0.79,3.48,-1.1,4,1
18739.265,0.477,0.259,0.855,2.29,3.66,-2.59,4,1
18739.265,0.465,0.264,0.856,4.24,3.57,-3.3,4,1
18739.281,0.46,0.269,0.852,5.49,2.35,-3.91,4,1
18739.296,0.458,0.281,0.843,6.07,1.13,-4.49,4,1
18739.296,0.458,0.299,0.836,6.41,0.67,-4.15,4,1
18739.312,0.459,0.307,0.828,5.95,0.34,-3.45,4,1
18739.312,0.459,0.305,0.82,4.24,-0.64,-3.14,4,1
18739.328,0.467,0.304,0.818,2.08,-1.34,-2.56,4,1
18739.343,0.467,0.297,0.812,-3.05,-2.14,-2.44,4,1
18739.359,0.473,0.293,0.823,-4.88,-1.74,-1.65,4,1
18739.375,0.472,0.275,0.846,-4.73,-0.4,-1.01,4,1
18739.39,0.463,0.256,0.856,-3.33,0.03,-1.5,4,1
18739.39,0.465,0.253,0.855,-1.56,-0.95,-2.9,4,1
18739.406,0.465,0.266,0.848,0.61,-1.28,-4.09,4,1
18739.406,0.463,0.276,0.84,2.17,-0.79,-4.55,4,1
18739.421,0.462,0.286,0.834,2.87,-0.55,-4.7,4,1
18739.437,0.461,0.296,0.833,2.53,-0.92,-4.49,4,1
18739.437,0.457,0.297,0.829,1.53,-1.25,-4.27,4,1
18739.453,0.458,0.303,0.834,1.46,-0.85,-2.9,4,1
18739.453,0.458,0.302,0.836,1.8,-0.31,-1.46,4,1
18739.468,0.455,0.289,0.83,1.4,-0.43,-1.53,4,1
18739.484,0.455,0.288,0.829,0.64,-1.01,-1.95,4,1
18739.484,0.46,0.293,0.827,0.06,-1.01,-1.86,4,1
18739.5,0.462,0.298,0.829,-0.73,-0.85,-1.5,4,1
18739.515,0.472,0.283,0.826,-3.05,-1.71,-1.77,4,1
18739.531,0.474,0.289,0.835,-3.66,-1.62,-1.43,4,1
18739.546,0.474,0.287,0.839,-3.2,-1.86,-1.43,4,1
18739.546,0.47,0.283,0.845,-2.01,-2.04,-1.62,4,1
18739.562,0.472,0.284,0.847,0.03,-1.46,-1.31,4,1
18739.562,0.465,0.276,0.843,2.56,-0.89,-1.71,4,1
18739.578,0.461,0.278,0.839,3.91,-0.82,-2.41,4,1
18739.593,0.458,0.29,0.837,3.94,-1.01,-2.81,4,1
18739.609,0.456,0.297,0.829,4.27,-0.89,-2.5,4,1
18739.609,0.456,0.301,0.823,4.0,-0.64,-1.65,4,1
18739.625,0.46,0.299,0.819,2.62,-0.52,-1.1,4,1
18739.625,0.457,0.301,0.825,1.07,-0.31,-0.52,4,1
18739.64,0.458,0.296,0.826,-0.24,-0.27,0.0,4,1
18739.656,0.458,0.295,0.828,-1.28,-0.12,0.24,4,1
18739.656,0.462,0.293,0.829,-2.17,0.09,0.52,4,1
18739.671,0.465,0.287,0.831,-2.69,0.15,0.46,4,1
18739.687,0.464,0.29,0.838,-2.84,0.21,0.18,4,1
18739.687,0.467,0.291,0.839,-2.29,0.21,0.4,4,1
18739.703,0.468,0.283,0.843,-1.8,0.06,0.31,4,1
18739.703,0.466,0.277,0.845,-1.22,-0.31,-0.24,4,1
18739.718,0.469,0.272,0.845,0.06,-0.61,-0.24,4,1
18739.734,0.469,0.277,0.838,1.65,-0.49,-0.55,4,1
18739.734,0.466,0.285,0.831,2.72,-0.24,-1.25,4,1
18739.75,0.463,0.305,0.837,2.35,-0.21,-1.01,4,1
18739.765,0.463,0.294,0.821,1.89,-0.52,-1.13,4,1
18739.765,0.46,0.298,0.831,1.04,-0.24,-0.95,4,1
18739.781,0.454,0.294,0.838,0.18,-0.46,-0.92,4,1
18739.781,0.449,0.289,0.839,-0.15,-0.64,-0.64,4,1
18739.796,0.454,0.294,0.841,-0.34,-0.92,-0.31,4,1
18739.812,0.452,0.284,0.839,0.03,-0.82,-0.61,4,1
18739.828,0.451,0.289,0.847,0.37,-0.55,-0.34,4,1
18739.828,0.454,0.292,0.848,1.1,-0.58,-0.09,4,1
18739.843,0.455,0.287,0.839,1.53,-1.43,-0.4,4,1
18739.843,0.461,0.296,0.83,1.25,-2.08,-0.09,4,1
18739.859,0.464,0.295,0.821,0.76,-1.83,0.49,4,1
18739.875,0.465,0.299,0.829,-0.61,-1.77,0.82,4,1
18739.875,0.469,0.3,0.83,-1.68,-2.2,0.61,4,1
18739.89,0.473,0.296,0.823,-2.41,-2.66,0.09,4,1
18739.906,0.472,0.294,0.828,-3.36,-2.66,-0.73,4,1
18739.906,0.478,0.291,0.813,-4.79,-2.84,-1.89,4,1
18739.921,0.501,0.292,0.787,-8.91,-2.84,-4.0,4,1
18739.921,0.52,0.29,0.783,-15.08,-1.62,-8.03,4,1
18739.937,0.525,0.27,0.827,-20.97,-1.74,-13.86,4,1
18739.953,0.501,0.26,0.856,-25.61,-3.85,-21.27,4,1
18739.968,0.496,0.259,0.878,-28.38,-6.53,-26.52,4,1
18739.968,0.451,0.277,0.888,-25.67,-9.4,-30.76,4,1
18739.984,0.43,0.284,0.86,-22.4,-12.42,-30.92,4,1
18739.984,0.414,0.309,0.851,-19.1,-12.33,-27.38,4,1
18740.0,0.389,0.292,0.866,-7.54,-5.37,-15.69,4,1
18740.015,0.37,0.258,0.863,5.77,2.62,-2.2,4,1
18740.015,0.354,0.245,0.843,10.22,6.84,4.24,4,1
18740.031,0.355,0.268,0.842,8.3,5.49,7.48,4,1
18740.031,0.405,0.331,0.83,6.13,0.98,11.63,4,1
18740.046,0.438,0.386,0.864,4.88,-4.33,15.96,4,1
18740.062,0.422,0.395,0.871,2.78,-12.21,19.23,4,1
18740.078,0.508,0.312,0.789,-2.41,-16.17,23.1,4,1
18740.078,0.501,0.236,0.815,-1.46,-8.21,20.36,4,1
18740.093,0.457,0.195,0.86,-0.15,-11.75,18.95,4,1
18740.093,0.428,0.181,0.917,4.88,-19.71,17.82,4,1
18740.109,0.454,0.203,0.951,12.51,-25.36,17.15,4,1
18740.125,0.525,0.177,0.912,19.68,-27.68,12.24,4,1
18740.125,0.536,0.176,0.88,27.01,-28.41,6.62,4,1
18740.14,0.552,0.206,0.838,32.78,-28.05,1.28,4,1
18740.156,0.553,0.252,0.774,35.1,-25.06,-3.57,4,1
18740.156,0.565,0.29,0.697,35.0,-18.49,-6.26,4,1
18740.171,0.585,0.317,0.663,34.42,-7.75,-6.29,4,1
18740.171,0.579,0.354,0.647,32.01,5.92,-6.2,4,1
18740.187,0.56,0.394,0.655,25.51,17.98,-5.92,4,1
18740.203,0.506,0.402,0.684,14.74,24.66,-6.78,4,1
18740.218,0.473,0.393,0.721,1.92,25.79,-6.16,4,1
18740.218,0.465,0.404,0.767,-8.88,24.45,-3.91,4,1
18740.234,0.438,0.393,0.805,-16.14,21.39,-2.29,4,1
18740.234,0.415,0.368,0.835,-21.97,16.48,0.37,4,1
18740.25,0.415,0.347,0.858,-27.22,10.1,4.15,4,1
18740.265,0.428,0.311,0.863,-30.03,3.23,6.44,4,1
18740.265,0.444,0.279,0.863,-31.1,-1.4,7.69,4,1
18740.281,0.455,0.261,0.86,-30.67,-3.6,8.51,4,1
18740.296,0.466,0.253,0.856,-28.75,-4.55,9.28,4,1
18740.296,0.484,0.242,0.861,-25.79,-4.58,9.55,4,1
18740.312,0.503,0.229,0.864,-22.1,-4.18,8.42,4,1
18740.328,0.517,0.218,0.858,-18.49,-3.75,5.68,4,1
18740.328,0.512,0.214,0.832,-15.41,-3.17,1.46,4,1
18740.343,0.512,0.216,0.832,-12.51,-1.59,-1.62,4,1
18740.359,0.518,0.224,0.837,-10.47,0.24,-4.24,4,1
18740.359,0.518,0.225,0.81,-9.22,2.32,-7.81,4,1
18740.375,0.514,0.23,0.807,-8.82,4.76,-10.8,4,1
18740.39,0.509,0.24,0.819,-9.03,6.9,-13.49,4,1
18740.39,0.489,0.257,0.83,-8.27,8.79,-14.92,4,1
18740.406,0.478,0.263,0.856,-6.2,9.83,-14.19,4,1
18740.406,0.468,0.258,0.888,-3.63,8.64,-13.98,4,1
18740.421,0.447,0.25,0.869,-0.79,5.49,-14.86,4,1
18740.437,0.469,0.249,0.856,1.28,3.57,-14.74,4,1
18740.437,0.46,0.253,0.844,3.11,3.51,-15.23,4,1
18740.453,0.456,0.26,0.837,4.09,4.33,-14.77,4,1
18740.453,0.454,0.276,0.829,4.64,5.55,-13.31,4,1
18740.468,0.477,0.279,0.823,3.66,7.32,-11.84,4,1
18740.484,0.481,0.269,0.826,2.41,9.98,-12.18,4,1
18740.484,0.465,0.254,0.831,1.98,12.27,-12.7,4,1
18740.5,0.464,0.253,0.836,1.77,13.28,-12.57,4,1
18740.515,0.463,0.257,0.838,2.14,13.98,-13.4,4,1
18740.515,0.452,0.262,0.846,2.81,14.92,-14.16,4,1
18740.531,0.444,0.269,0.855,4.24,15.75,-13.79,4,1
18740.546,0.434,0.275,0.858,6.01,16.36,-13.34,4,1
18740.546,0.425,0.279,0.857,6.71,15.96,-13.18,4,1
18740.562,0.416,0.288,0.872,6.99,14.62,-12.51,4,1
18740.562,0.41,0.305,0.871,7.93,12.88,-10.86,4,1
18740.578,0.41,0.316,0.855,8.0,11.02,-9.13,4,1
18740.593,0.408,0.317,0.848,6.68,9.16,-7.35,4,1
18740.609,0.406,0.323,0.848,5.49,7.69,-5.07,4,1
18740.609,0.403,0.328,0.848,4.39,6.5,-2.62,4,1
18740.625,0.399,0.321,0.852,2.99,5.62,-0.49,4,1
18740.625,0.394,0.316,0.845,2.01,5.22,1.95,4,1
18740.64,0.399,0.319,0.838,0.46,5.31,4.21,4,1
18740.656,0.407,0.322,0.844,-1.4,5.52,5.55,4,1
18740.656,0.384,0.339,0.865,-3.08,4.79,7.14,4,1
18740.671,0.358,0.365,0.895,-4.43,1.95,10.77,4,1
18740.687,0.329,0.362,0.878,-7.75,-4.73,15.78,4,1
18740.687,0.298,0.342,0.977,-14.98,-16.14,19.87,4,1
18740.703,0.3,0.349,1.028,-13.95,-33.33,27.34,4,1
18740.718,0.35,0.318,0.994,-12.18,-49.53,35.86,4,1
18740.718,0.399,0.242,0.962,-9.55,-61.25,38.85,4,1
18740.734,0.456,0.199,0.877,-3.85,-67.17,39.77,4,1
18740.734,0.515,0.189,0.804,1.22,-65.65,37.93,4,1
18740.75,0.56,0.176,0.777,6.65,-56.86,34.82,4,1
18740.765,0.593,0.174,0.753,13.15,-45.78,30.37,4,1
18740.765,0.62,0.19,0.736,17.67,-35.19,24.87,4,1
18740.781,0.639,0.193,0.72,19.23,-24.45,18.16,4,1
18740.796,0.635,0.187,0.719,20.14,-13.18,10.99,4,1
18740.796,0.615,0.204,0.729,20.97,-2.47,4.85,4,1
18740.812,0.59,0.22,0.744,21.82,6.99,-0.52,4,1
18740.812,0.558,0.258,0.761,21.52,13.98,-4.64,4,1
18740.828,0.516,0.293,0.776,19.53,18.46,-6.41,4,1
18740.843,0.499,0.311,0.804,17.24,20.54,-5.65,4,1
18740.859,0.477,0.323,0.812,15.38,21.03,-4.61,4,1
18740.859,0.453,0.319,0.81,12.24,19.53,-3.2,4,1
18740.875,0.462,0.314,0.813,8.45,17.79,-0.09,4,1
18740.875,0.472,0.309,0.814,6.13,16.54,1.95,4,1
18740.89,0.473,0.296,0.807,4.33,15.9,2.5,4,1
18740.906,0.48,0.294,0.803,2.38,16.36,2.9,4,1
18740.906,0.488,0.286,0.812,0.52,17.18,2.78,4,1
18740.921,0.498,0.272,0.818,-0.09,18.4,1.71,4,1
18740.921,0.508,0.261,0.815,1.28,21.3,0.58,4,1
18740.937,0.503,0.251,0.796,4.09,25.67,-0.89,4,1
18740.953,0.495,0.269,0.785,4.27,30.88,-2.59,4,1
18740.953,0.495,0.27,0.797,3.48,35.52,-4.39,4,1
18740.968,0.486,0.257,0.803,2.32,37.9,-7.6,4,1
18740.984,0.453,0.273,0.848,-1.43,37.81,-12.12,4,1
18740.984,0.372,0.292,1.001,-2.9,30.82,-14.44,4,1
18741.0,0.387,0.275,1.014,2.08,13.82,-13.03,4,1
18741.015,0.416,0.278,0.896,4.85,0.12,-14.59,4,1
18741.031,0.412,0.286,0.831,5.22,-4.0,-15.44,4,1
18741.031,0.421,0.293,0.815,1.95,-5.19,-14.98,4,1
18741.046,0.413,0.326,0.825,-3.66,-7.29,-15.78,4,1
18741.046,0.424,0.361,0.824,-10.07,-10.5,-15.32,4,1
18741.062,0.442,0.354,0.818,-22.83,-15.35,-17.52,4,1
18741.078,0.445,0.328,0.814,-25.3,-14.74,-17.82,4,1
18741.078,0.448,0.301,0.819,-27.01,-14.5,-19.01,4,1
18741.093,0.445,0.287,0.836,-29.02,-15.38,-20.57,4,1
18741.093,0.439,0.263,0.857,-30.49,-15.93,-21.7,4,1
18741.109,0.442,0.268,0.872,-29.27,-14.83,-20.87,4,1
18741.125,0.447,0.265,0.877,-23.35,-12.63,-18.49,4,1
18741.125,0.454,0.262,0.858,-16.69,-10.41,-16.3,4,1
18741.14,0.454,0.259,0.845,-14.44,-9.37,-16.45,4,1
18741.156,0.455,0.26,0.839,-15.5,-9.49,-17.94,4,1
18741.156,0.458,0.267,0.832,-17.3,-9.7,-19.01,4,1
18741.171,0.461,0.274,0.828,-18.71,-9.64,-19.41,4,1
18741.187,0.466,0.286,0.832,-19.56,-9.16,-19.41,4,1
18741.187,0.465,0.291,0.825,-20.84,-8.51,-19.65,4,1
18741.203,0.462,0.285,0.827,-24.08,-8.64,-21.12,4,1
18741.203,0.454,0.269,0.841,-27.16,-8.48,-22.49,4,1
18741.218,0.447,0.264,0.863,-26.52,-7.17,-21.91,4,1
18741.234,0.441,0.261,0.874,-22.34,-5.04,-19.07,4,1
18741.25,0.436,0.249,0.89,-18.04,-3.39,-16.3,4,1
18741.25,0.439,0.228,0.887,-14.95,-3.97,-15.75,4,1
18741.265,0.45,0.214,0.87,-14.1,-5.86,-17.79,4,1
18741.265,0.466,0.21,0.857,-15.56,-7.6,-21.61,4,1
18741.281,0.473,0.209,0.841,-16.79,-8.0,-26.0,4,1
18741.296,0.471,0.219,0.836,-16.48,-6.68,-29.3,4,1
18741.296,0.468,0.243,0.84,-14.89,-4.64,-30.46,4,1
18741.312,0.466,0.265,0.85,-12.45,-2.01,-29.88,4,1
18741.312,0.452,0.271,0.855,-9.09,0.92,-28.14,4,1
18741.328,0.446,0.277,0.861,-6.47,2.87,-25.94,4,1
18741.343,0.439,0.27,0.87,-4.43,3.48,-24.66,4,1
18741.343,0.424,0.26,0.868,-2.32,3.42,-23.47,4,1
18741.359,0.419,0.26,0.865,-0.18,3.33,-21.3,4,1
18741.375,0.421,0.263,0.863,1.01,3.05,-19.99,4,1
18741.375,0.419,0.268,0.861,0.31,2.23,-19.93,4,1
18741.39,0.414,0.276,0.854,-0.67,1.34,-19.41,4,1
18741.406,0.414,0.291,0.856,-1.71,0.89,-17.61,4,1
18741.406,0.411,0.297,0.871,-2.5,0.82,-15.5,4,1
18741.421,0.405,0.303,0.873,-1.95,0.64,-12.42,4,1
18741.421,0.408,0.301,0.869,-0.7,0.06,-8.51,4,1
18741.437,0.411,0.291,0.867,-0.34,-0.7,-5.68,4,1
18741.453,0.41,0.281,0.864,-0.89,-1.68,-3.75,4,1
18741.453,0.421,0.279,0.856,-1.31,-2.53,-1.92,4,1
18741.468,0.432,0.274,0.851,-2.11,-2.81,-1.07,4,1
18741.484,0.434,0.27,0.855,-3.39,-3.08,-1.5,4,1
18741.484,0.433,0.27,0.852,-4.27,-3.3,-2.01,4,1
18741.5,0.439,0.267,0.855,-4.52,-2.84,-1.77,4,1
18741.515,0.439,0.26,0.86,-4.52,-2.47,-2.5,4,1
18741.515,0.435,0.258,0.862,-5.01,-2.69,-3.91,4,1
18741.531,0.434,0.257,0.867,-4.79,-3.23,-4.3,4,1
18741.546,0.443,0.248,0.85,-3.85,-2.62,-3.88,4,1
18741.546,0.439,0.24,0.875,-4.09,-1.68,-5.25,4,1
18741.562,0.427,0.266,0.876,-1.56,-1.62,-5.19,4,1
18741.562,0.439,0.269,0.864,1.43,-0.82,-3.05,4,1
18741.578,0.432,0.265,0.869,3.27,0.58,-2.35,4,1
18741.593,0.429,0.259,0.865,4.94,0.92,-1.95,4,1
18741.593,0.434,0.265,0.854,5.04,0.85,-2.04,4,1
18741.609,0.428,0.272,0.853,4.88,1.65,-2.93,4,1
18741.625,0.416,0.271,0.858,4.82,0.98,-3.3,4,1
18741.625,0.44,0.284,0.822,4.18,0.12,-3.02,4,1
18741.64,0.434,0.284,0.843,1.4,1.46,-4.64,4,1
18741.656,0.416,0.291,0.848,0.37,1.8,-4.97,4,1
18741.656,0.426,0.291,0.851,-1.89,1.34,-4.43,4,1
18741.671,0.419,0.286,0.859,-3.57,1.53,-4.06,4,1
18741.671,0.416,0.27,0.866,-3.45,1.95,-2.44,4,1
18741.687,0.418,0.265,0.878,-2.87,2.01,-1.1,4,1
18741.703,0.418,0.256,0.884,-1.8,1.95,-0.52,4,1
18741.703,0.418,0.252,0.883,-0.43,1.46,-0.52,4,1
18741.718,0.417,0.254,0.878,0.89,0.58,-0.92,4,1
18741.734,0.423,0.261,0.866,2.23,-0.55,-0.92,4,1
18741.734,0.436,0.271,0.854,2.62,-0.73,-1.13,4,1
18741.75,0.44,0.279,0.854,2.01,-0.12,-1.95,4,1
18741.765,0.431,0.281,0.849,1.56,0.18,-2.53,4,1
18741.765,0.434,0.282,0.847,0.79,0.37,-2.38,4,1
18741.781,0.435,0.279,0.854,0.09,1.22,-2.69,4,1
18741.781,0.426,0.269,0.853,0.31,1.89,-3.48,4,1
18741.796,0.441,0.261,0.815,-0.09,3.75,-3.72,4,1
18741.812,0.422,0.279,0.861,-0.92,6.84,-4.39,4,1
18741.828,0.411,0.278,0.873,0.52,7.32,-3.97,4,1
18741.828,0.41,0.287,0.88,-0.21,6.32,-3.63,4,1
18741.843,0.408,0.275,0.872,-0.34,4.91,-3.72,4,1
18741.859,0.407,0.269,0.868,-0.49,3.75,-3.91,4,1
18741.859,0.404,0.28,0.874,-0.37,3.08,-3.36,4,1
18741.875,0.399,0.283,0.874,-0.89,1.68,-2.53,4,1
18741.875,0.398,0.286,0.869,-1.65,0.31,-1.13,4,1
18741.89,0.412,0.281,0.866,-2.41,-0.64,0.06,4,1
18741.906,0.421,0.269,0.862,-3.27,-1.16,0.03,4,1
18741.906,0.423,0.266,0.861,-3.94,-0.95,-0.55,4,1
18741.921,0.426,0.264,0.86,-3.51,-0.21,-1.01,4,1
18741.921,0.427,0.262,0.865,-2.53,0.4,-1.5,4,1
18741.937,0.428,0.256,0.838,-1.25,1.13,-2.32,4,1
18741.953,0.435,0.276,0.855,-2.04,3.51,-3.27,4,1
18741.953,0.404,0.271,0.877,-1.22,4.36,-4.52,4,1
18741.968,0.396,0.271,0.878,-1.22,2.9,-4.33,4,1
18741.984,0.398,0.289,0.884,-1.83,1.53,-3.2,4,1
18741.984,0.399,0.279,0.89,-2.38,0.46,-2.66,4,1
18742.0,0.392,0.27,0.886,-1.83,-0.31,-2.04,4,1
18742.015,0.391,0.266,0.869,0.4,-1.04,-1.28,4,1
18742.015,0.397,0.272,0.866,2.04,-0.85,-0.24,4,1
18742.031,0.401,0.29,0.868,2.35,-0.24,1.04,4,1
18742.046,0.407,0.295,0.859,1.43,-0.15,2.2,4,1
18742.046,0.413,0.277,0.852,-0.76,-0.27,1.65,4,1
18742.062,0.416,0.259,0.849,-1.59,-0.27,0.89,4,1
18742.078,0.416,0.271,0.862,-2.47,-0.21,0.03,4,1
18742.078,0.414,0.283,0.875,-2.56,-0.03,-0.46,4,1
18742.093,0.407,0.275,0.874,-1.62,0.09,-0.46,4,1
18742.093,0.403,0.266,0.877,-1.56,0.34,0.46,4,1
18742.109,0.403,0.257,0.881,-1.22,0.27,1.59,4,1
18742.125,0.4,0.254,0.886,0.55,0.49,3.2,4,1
18742.125,0.392,0.259,0.902,3.05,1.34,5.55,4,1
18742.14,0.378,0.287,0.933,5.68,0.7,7.78,4,1
18742.156,0.348,0.312,0.941,8.24,-3.88,9.4,4,1
18742.156,0.308,0.316,0.938,8.42,-13.37,13.12,4,1
18742.171,0.299,0.341,0.904,5.31,-23.74,19.9,4,1
18742.187,0.331,0.338,1.022,1.59,-35.49,26.7,4,1
18742.187,0.375,0.262,0.914,3.6,-50.66,28.75,4,1
18742.203,0.418,0.243,0.822,1.16,-55.42,29.97,4,1
18742.203,0.502,0.2,0.795,3.66,-50.23,31.46,4,1
18742.218,0.552,0.178,0.782,8.09,-39.31,28.02,4,1
18742.234,0.548,0.193,0.758,12.33,-26.58,21.52,4,1
18742.25,0.546,0.213,0.749,15.02,-15.08,16.05,4,1
18742.25,0.548,0.247,0.762,14.89,-5.89,11.29,4,1
18742.265,0.524,0.267,0.766,13.0,0.76,6.44,4,1
18742.265,0.511,0.277,0.779,9.09,4.94,3.66,4,1
18742.281,0.497,0.284,0.794,4.73,7.11,1.46,4,1
18742.296,0.48,0.288,0.809,0.49,7.54,-0.46,4,1
18742.296,0.467,0.296,0.832,-4.09,6.01,-1.56,4,1
18742.312,0.464,0.291,0.844,-7.54,3.48,-1.98,4,1
18742.312,0.46,0.282,0.846,-8.67,1.53,-1.71,4,1
18742.328,0.452,0.278,0.849,-8.45,0.73,-0.49,4,1
18742.343,0.445,0.28,0.864,-7.48,0.58,2.08,4,1
18742.343,0.431,0.275,0.874,-6.13,-0.34,4.58,4,1
18742.359,0.428,0.261,0.885,-5.28,-2.75,6.9,4,1
18742.375,0.423,0.256,0.897,-4.21,-5.8,8.73,4,1
18742.39,0.419,0.256,0.901,-3.17,-10.07,9.74,4,1
18742.39,0.418,0.254,0.895,-2.35,-14.92,10.44,4,1
18742.406,0.431,0.255,0.882,-1.13,-19.62,11.51,4,1
18742.406,0.444,0.26,0.867,-0.03,-23.01,12.21,4,1
18742.421,0.455,0.265,0.851,0.82,-24.87,12.88,4,1
18742.437,0.47,0.269,0.836,0.79,-25.33,13.55,4,1
18742.437,0.484,0.263,0.821,1.04,-24.29,14.59,4,1
18742.453,0.494,0.255,0.815,1.56,-22.16,15.96,4,1
18742.453,0.504,0.255,0.817,1.62,-20.6,16.3,4,1
18742.468,0.503,0.26,0.818,1.13,-19.53,16.21,4,1
18742.484,0.494,0.262,0.821,0.37,-19.81,16.21,4,1
18742.484,0.497,0.252,0.83,0.03,-21.52,16.42,4,1
18742.5,0.517,0.284,0.833,-1.71,-23.26,17.15,4,1
18742.515,0.487,0.264,0.821,-3.54,-23.99,16.63,4,1
18742.515,0.49,0.224,0.824,-2.5,-26.61,17.67,4,1
18742.531,0.532,0.27,0.825,-3.11,-26.89,21.21,4,1
18742.546,0.518,0.235,0.805,-2.84,-25.42,20.36,4,1
18742.546,0.533,0.194,0.814,-3.08,-24.32,19.65,4,1
18742.562,0.549,0.195,0.818,-1.19,-21.61,19.23,4,1
18742.578,0.556,0.183,0.812,3.05,-18.65,16.91,4,1
18742.578,0.565,0.183,0.805,4.52,-15.75,14.22,4,1
18742.593,0.561,0.175,0.798,6.35,-12.73,10.47,4,1
18742.593,0.562,0.179,0.801,7.48,-10.77,6.93,4,1
18742.609,0.562,0.203,0.793,7.08,-9.52,3.72,4,1
18742.625,0.563,0.211,0.781,7.05,-7.66,1.22,4,1
18742.64,0.563,0.236,0.79,7.66,-4.49,2.04,4,1
18742.64,0.566,0.236,0.807,10.86,-1.92,3.17,4,1
18742.656,0.559,0.231,0.804,14.37,0.06,3.23,4,1
18742.656,0.553,0.235,0.796,15.23,1.31,3.36,4,1
18742.671,0.56,0.22,0.801,15.69,1.92,2.59,4,1
18742.687,0.56,0.212,0.801,15.84,1.92,0.58,4,1
18742.687,0.564,0.215,0.791,15.5,2.41,-2.11,4,1
18742.703,0.552,0.221,0.78,14.95,3.66,-4.91,4,1
18742.703,0.544,0.234,0.779,13.4,4.39,-6.71,4,1
18742.718,0.538,0.259,0.778,11.6,5.86,-7.29,4,1
18742.734,0.529,0.278,0.782,10.16,8.18,-5.8,4,1
18742.734,0.53,0.282,0.795,9.13,10.59,-3.39,4,1
18742.75,0.518,0.282,0.805,8.45,12.36,-1.5,4,1
18742.765,0.509,0.273,0.81,7.32,11.35,-0.03,4,1
18742.765,0.519,0.27,0.811,5.83,9.4,1.19,4,1
18742.781,0.521,0.27,0.808,4.27,7.97,0.67,4,1
18742.796,0.52,0.259,0.798,1.98,5.68,-0.67,4,1
18742.796,0.53,0.261,0.791,-0.85,3.36,-1.1,4,1
18742.812,0.527,0.278,0.783,-2.69,2.84,-1.07,4,1
18742.828,0.523,0.298,0.769,-3.81,4.55,2.41,4,1
18742.828,0.55,0.309,0.788,-3.48,7.51,7.57,4,1
18742.843,0.542,0.287,0.795,-1.07,10.32,9.52,4,1
18742.843,0.53,0.263,0.789,0.09,12.36,10.5,4,1
18742.859,0.531,0.253,0.786,-0.85,13.28,10.13,4,1
18742.875,0.533,0.248,0.795,-2.84,14.22,8.76,4,1
18742.875,0.527,0.244,0.798,-4.76,14.86,7.02,4,1
18742.89,0.524,0.24,0.805,-6.59,15.66,5.68,4,1
18742.906,0.533,0.236,0.815,-7.72,16.88,4.49,4,1
18742.906,0.528,0.229,0.819,-7.23,18.65,2.96,4,1
18742.921,0.522,0.22,0.823,-5.71,20.29,2.08,4,1
18742.937,0.525,0.225,0.826,-3.66,22.46,1.71,4,1
18742.937,0.515,0.231,0.83,-0.89,25.27,1.31,4,1
18742.953,0.491,0.231,0.842,2.38,27.28,1.37,4,1
18742.953,0.484,0.242,0.849,4.43,27.31,2.23,4,1
18742.968,0.467,0.252,0.854,4.58,25.24,2.08,4,1
18742.984,0.469,0.258,0.858,3.57,21.73,2.2,4,1
18743.0,0.452,0.255,0.852,2.93,18.59,2.62,4,1
18743.0,0.46,0.262,0.849,2.26,14.71,4.24,4,1
18743.015,0.474,0.273,0.842,1.13,12.67,6.2,4,1
18743.015,0.462,0.261,0.834,0.18,11.51,7.78,4,1
18743.031,0.472,0.258,0.834,-3.27,10.22,11.2,4,1
18743.046,0.467,0.255,0.84,-4.82,8.7,12.12,4,1
18743.046,0.467,0.251,0.847,-5.77,7.57,12.15,4,1
18743.062,0.47,0.245,0.847,-6.04,7.26,12.09,4,1
18743.062,0.465,0.243,0.851,-6.2,7.51,13.06,4,1
18743.078,0.463,0.239,0.851,-5.4,7.78,14.01,4,1
18743.093,0.462,0.237,0.854,-4.91,7.63,14.71,4,1
18743.109,0.458,0.235,0.857,-5.07,6.59,14.71,4,1
18743.109,0.465,0.233,0.859,-5.52,4.52,15.05,4,1
18743.125,0.469,0.239,0.86,-6.29,2.81,15.38,4,1
18743.125,0.466,0.232,0.859,-6.62,1.01,14.83,4,1
18743.14,0.475,0.225,0.856,-6.32,-0.18,15.26,4,1
18743.156,0.48,0.223,0.856,-5.49,-0.43,15.84,4,1
18743.156,0.489,0.214,0.857,-3.78,-0.61,15.32,4,1
18743.171,0.49,0.203,0.851,-1.98,-0.37,14.25,4,1
18743.187,0.489,0.198,0.847,-0.76,0.21,12.85,4,1
18743.187,0.494,0.197,0.849,-0.27,0.79,11.32,4,1
18743.203,0.492,0.193,0.85,-0.52,1.07,9.4,4,1
18743.203,0.488,0.192,0.858,-1.16,0.73,7.32,4,1
18743.218,0.484,0.195,0.861,-1.92,-0.55,5.22,4,1
18743.234,0.485,0.197,0.863,-2.66,-2.53,3.2,4,1
18743.234,0.485,0.195,0.859,-2.93,-4.24,1.19,4,1
18743.25,0.484,0.201,0.85,-2.17,-5.16,0.03,4,1
18743.265,0.487,0.212,0.847,-1.86,-5.22,-0.46,4,1
18743.265,0.485,0.211,0.845,-1.89,-4.33,-0.52,4,1
18743.281,0.483,0.21,0.847,-1.8,-3.57,-0.49,4,1
18743.296,0.482,0.209,0.852,-1.53,-3.23,-0.4,4,1
18743.296,0.479,0.208,0.857,-1.19,-3.23,-0.15,4,1
18743.312,0.48,0.209,0.857,-0.73,-3.66,-0.18,4,1
18743.312,0.484,0.208,0.857,-0.49,-4.67,-0.82,4,1
18743.328,0.482,0.21,0.853,-0.58,-5.62,-1.71,4,1
18743.343,0.477,0.216,0.85,-0.7,-6.2,-2.14,4,1
18743.343,0.476,0.221,0.849,-0.73,-6.32,-1.19,4,1
18743.359,0.48,0.224,0.849,-0.18,-5.71,0.76,4,1
18743.375,0.48,0.216,0.849,0.64,-4.85,2.32,4,1
18743.39,0.485,0.206,0.849,0.43,-4.52,2.69,4,1
18743.39,0.482,0.201,0.846,0.24,-4.12,2.53,4,1
18743.39,0.479,0.199,0.845,0.58,-3.63,2.87,4,1
18743.406,0.484,0.204,0.851,1.28,-2.96,3.66,4,1
18743.421,0.48,0.211,0.855,2.17,-2.01,4.58,4,1
18743.421,0.481,0.216,0.858,2.96,-1.46,5.58,4,1
18743.437,0.473,0.212,0.858,3.94,-1.31,6.38,4,1
18743.453,0.478,0.218,0.857,5.22,-1.34,8.48,4,1
18743.453,0.483,0.224,0.857,7.14,-0.76,10.41,4,1
18743.468,0.481,0.213,0.853,9.77,-0.31,12.09,4,1
18743.484,0.482,0.214,0.841,11.54,0.15,13.67,4,1
18743.484,0.494,0.223,0.833,11.75,0.67,14.65,4,1
18743.5,0.511,0.219,0.818,11.66,1.68,14.71,4,1
18743.515,0.507,0.215,0.803,10.22,3.78,13.46,4,1
18743.515,0.516,0.202,0.777,7.32,6.53,11.75,4,1
18743.531,0.53,0.197,0.757,3.66,11.84,9.77,4,1
18743.546,0.544,0.176,0.746,0.03,19.35,6.84,4,1
18743.546,0.578,0.159,0.732,-2.62,29.85,2.53,4,1
18743.562,0.565,0.15,0.738,-3.78,42.73,-4.97,4,1
18743.578,0.552,0.136,0.763,-4.76,54.41,-14.34,4,1
18743.578,0.556,0.157,0.78,-6.56,65.13,-24.2,4,1
18743.593,0.521,0.184,0.772,-7.54,77.03,-33.72,4,1
18743.593,0.377,0.249,0.947,-6.96,85.24,-39.4,4,1
18743.609,0.184,0.329,1.324,1.25,70.16,-31.95,4,1
18743.625,0.274,0.247,1.212,0.34,25.82,-20.02,4,1
18743.625,0.32,0.202,0.992,-10.04,-2.93,-17.88,4,1
18743.64,0.415,0.113,0.862,2.41,-5.68,-7.97,4,1
18743.656,0.448,0.112,0.824,21.03,2.56,-0.73,4,1
18743.656,0.403,0.204,0.851,27.41,10.44,0.58,4,1
18743.671,0.395,0.258,0.901,23.47,12.67,0.43,4,1
18743.671,0.399,0.275,0.885,19.53,10.74,0.85,4,1
18743.687,0.42,0.286,0.845,16.94,9.25,1.28,4,1
18743.703,0.431,0.284,0.833,13.64,11.23,1.22,4,1
18743.718,0.37,0.278,0.889,10.93,11.54,1.19,4,1
18743.718,0.371,0.25,0.867,8.48,6.41,3.81,4,1
18743.734,0.393,0.263,0.847,3.69,2.93,4.7,4,1
18743.734,0.396,0.265,0.852,0.12,2.11,4.43,4,1
18743.75,0.395,0.258,0.866,-2.29,2.26,4.09,4,1
18743.765,0.388,0.257,0.88,-4.03,2.2,4.21,4,1
18743.765,0.397,0.252,0.888,-4.67,2.04,5.34,4,1
18743.781,0.402,0.221,0.884,-3.02,1.62,5.28,4,1
18743.796,0.402,0.194,0.891,-0.49,1.13,3.72,4,1
18743.796,0.399,0.191,0.9,3.02,0.37,1.77,4,1
18743.812,0.394,0.206,0.909,6.71,-0.92,-0.15,4,1
18743.828,0.389,0.224,0.911,10.1,-4.3,-0.64,4,1
18743.828,0.397,0.243,0.942,13.25,-8.18,-0.34,4,1
18743.843,0.37,0.261,0.938,17.88,-13.67,0.24,4,1
18743.859,0.414,0.272,0.879,17.0,-18.98,0.43,4,1
18743.859,0.397,0.31,0.859,12.12,-21.61,-3.05,4,1
18743.875,0.387,0.292,0.865,7.75,-21.76,-2.32,4,1
18743.875,0.376,0.301,0.865,5.58,-22.03,0.55,4,1
18743.89,0.42,0.252,0.867,1.5,-23.26,4.88,4,1
18743.906,0.432,0.158,0.854,-6.87,-26.95,-1.19,4,1
18743.906,0.451,0.147,0.854,-11.47,-27.74,-6.78,4,1
18743.921,0.483,0.157,0.846,-9.74,-24.69,-10.83,4,1
18743.921,0.499,0.184,0.831,-6.71,-17.7,-14.47,4,1
18743.937,0.505,0.223,0.819,-3.11,-9.55,-17.76,4,1
18743.953,0.507,0.256,0.82,-0.31,-1.04,-21.15,4,1
18743.953,0.481,0.256,0.799,1.59,6.71,-24.14,4,1
18743.968,0.464,0.278,0.802,1.71,13.34,-24.35,4,1
18743.984,0.457,0.3,0.798,0.58,18.95,-23.47,4,1
18743.984,0.434,0.309,0.793,-3.39,23.22,-23.32,4,1
18744.0,0.414,0.303,0.808,-9.7,26.18,-22.46,4,1
18744.015,0.404,0.295,0.833,-21.88,26.98,-20.51,4,1
18744.015,0.393,0.288,0.852,-26.12,25.27,-19.59,4,1
18744.031,0.391,0.279,0.867,-29.63,23.56,-19.32,4,1
18744.046,0.389,0.272,0.875,-31.71,22.52,-18.83,4,1
18744.046,0.324,0.277,0.975,-30.18,20.45,-17.64,4,1
18744.062,0.265,0.281,1.087,-23.38,13.06,-11.2,4,1
18744.078,0.302,0.205,1.07,-16.91,-2.17,-5.98,4,1
18744.078,0.331,0.145,1.006,-10.99,-13.21,-6.04,4,1
18744.093,0.354,0.118,0.972,0.31,-16.3,-5.22,4,1
18744.093,0.352,0.147,0.947,11.14,-17.06,-4.46,4,1
18744.109,0.347,0.203,0.923,17.55,-18.16,-3.48,4,1
18744.125,0.357,0.251,0.91,18.52,-19.93,-2.38,4,1
18744.125,0.359,0.266,0.913,15.29,-22.19,-2.38,4,1
18744.14,0.369,0.252,0.899,13.79,-24.69,-1.71,4,1
18744.156,0.38,0.254,0.891,14.74,-25.79,0.82,4,1
18744.156,0.396,0.259,0.877,16.66,-25.94,3.11,4,1
18744.171,0.408,0.258,0.868,17.09,-25.67,4.27,4,1
18744.187,0.418,0.256,0.869,16.51,-25.48,4.21,4,1
18744.187,0.427,0.259,0.872,16.48,-25.91,3.75,4,1
18744.203,0.434,0.263,0.862,16.72,-26.8,3.2,4,1
18744.203,0.444,0.27,0.839,15.81,-27.34,2.84,4,1
18744.218,0.46,0.273,0.823,14.25,-26.06,2.66,4,1
18744.234,0.473,0.267,0.808,14.01,-22.1,2.53,4,1
18744.234,0.478,0.263,0.788,14.13,-16.54,2.2,4,1
18744.25,0.485,0.262,0.785,12.91,-10.47,1.07,4,1
18744.265,0.486,0.26,0.793,10.59,-4.27,-1.68,4,1
18744.265,0.465,0.257,0.802,8.27,1.25,-4.91,4,1
18744.281,0.446,0.271,0.825,5.71,5.43,-6.93,4,1
18744.296,0.428,0.277,0.847,4.15,7.72,-7.75,4,1
18744.296,0.42,0.292,0.861,2.87,7.23,-7.14,4,1
18744.312,0.409,0.302,0.864,2.32,6.2,-5.31,4,1
18744.328,0.403,0.306,0.868,2.93,5.77,-2.44,4,1
18744.328,0.393,0.31,0.865,3.42,5.04,1.01,4,1
18744.343,0.386,0.278,0.872,1.89,2.9,2.93,4,1
18744.359,0.395,0.283,0.893,1.07,-1.01,4.03,4,1
18744.359,0.417,0.298,0.889,3.54,-2.99,6.47,4,1
18744.375,0.418,0.293,0.867,5.07,-4.46,7.51,4,1
18744.375,0.425,0.281,0.866,4.33,-6.26,7.45,4,1
18744.39,0.448,0.277,0.855,2.75,-7.75,6.84,4,1
18744.406,0.458,0.27,0.833,2.23,-7.84,5.13,4,1
18744.406,0.465,0.264,0.817,1.4,-6.32,3.36,4,1
18744.421,0.474,0.264,0.813,0.27,-3.51,1.37,4,1
18744.437,0.479,0.263,0.809,-0.64,0.21,-1.01,4,1
18744.437,0.473,0.265,0.81,-1.92,4.21,-3.48,4,1
18744.453,0.464,0.267,0.817,-3.23,7.84,-5.89,4,1
18744.453,0.459,0.279,0.832,-5.13,10.9,-7.57,4,1
18744.468,0.443,0.271,0.841,-5.92,12.85,-9.43,4,1
18744.484,0.434,0.264,0.853,-6.07,14.01,-10.22,4,1
18744.484,0.429,0.269,0.872,-6.13,14.22,-11.14,4,1
18744.5,0.416,0.263,0.875,-4.76,13.76,-12.63,4,1
18744.515,0.405,0.266,0.879,-2.78,13.12,-13.76,4,1
18744.515,0.387,0.28,0.889,-1.13,12.02,-13.76,4,1
18744.531,0.375,0.305,0.901,-0.4,9.31,-12.88,4,1
18744.546,0.372,0.317,0.905,0.46,6.07,-10.22,4,1
18744.546,0.372,0.308,0.905,1.83,2.59,-6.9,4,1
18744.562,0.37,0.299,0.899,2.14,-1.19,-3.63,4,1
18744.562,0.373,0.291,0.889,1.56,-5.58,-0.92,4,1
18744.578,0.388,0.288,0.877,0.67,-9.19,1.46,4,1
18744.593,0.407,0.286,0.873,-0.06,-11.17,3.08,4,1
18744.593,0.413,0.269,0.866,0.12,-11.38,3.6,4,1
18744.609,0.421,0.263,0.864,0.98,-10.56,3.72,4,1
18744.625,0.425,0.259,0.863,2.32,-9.09,3.6,4,1
18744.625,0.426,0.269,0.864,3.69,-7.32,3.45,4,1
18744.64,0.425,0.273,0.866,4.64,-5.86,3.45,4,1
18744.656,0.431,0.278,0.862,5.92,-4.76,3.81,4,1
18744.656,0.433,0.27,0.851,7.45,-3.42,3.48,4,1
18744.671,0.436,0.269,0.848,8.21,-1.83,2.59,4,1
18744.687,0.437,0.28,0.836,7.87,-0.03,1.56,4,1
18744.687,0.451,0.288,0.819,6.74,2.69,0.76,4,1
18744.703,0.476,0.285,0.823,6.44,7.39,-0.55,4,1
18744.703,0.484,0.269,0.832,7.51,13.61,-3.42,4,1
18744.718,0.486,0.242,0.837,10.77,21.27,-7.11,4,1
18744.734,0.471,0.235,0.837,16.63,30.67,-10.32,4,1
18744.75,0.381,0.266,0.881,23.41,37.93,-12.7,4,1
18744.75,0.311,0.245,1.036,27.41,33.33,-11.44,4,1
18744.765,0.35,0.23,1.017,27.56,13.15,-15.41,4,1
18744.765,0.353,0.275,0.916,31.43,-0.55,-19.44,4,1
18744.781,0.384,0.316,0.841,37.81,-3.17,-16.27,4,1
18744.796,0.375,0.364,0.828,38.24,-1.1,-13.58,4,1
18744.796,0.343,0.404,0.851,35.55,0.49,-8.94,4,1
18744.812,0.347,0.419,0.866,33.51,-0.43,-1.46,4,1
18744.812,0.349,0.4,0.861,31.43,-3.69,3.33,4,1
18744.828,0.353,0.377,0.86,29.45,-7.48,6.68,4,1
18744.843,0.36,0.379,0.863,28.47,-11.6,9.49,4,1
18744.843,0.368,0.373,0.86,27.34,-15.59,10.99,4,1
18744.859,0.383,0.359,0.835,25.48,-18.49,11.96,4,1
18744.875,0.4,0.362,0.806,23.29,-19.5,12.3,4,1
18744.89,0.413,0.375,0.795,20.51,-19.2,12.02,4,1
18744.89,0.421,0.387,0.791,17.43,-17.82,12.02,4,1
18744.906,0.422,0.395,0.793,14.5,-16.36,12.12,4,1
18744.906,0.419,0.396,0.8,11.44,-15.59,12.27,4,1
18744.921,0.426,0.386,0.785,8.79,-15.02,12.33,4,1
18744.921,0.433,0.379,0.77,5.37,-13.18,12.05,4,1
18744.937,0.441,0.368,0.768,2.04,-10.59,11.63,4,1
18744.953,0.449,0.361,0.772,-1.4,-7.9,10.16,4,1
18744.953,0.451,0.354,0.784,-5.13,-5.34,7.78,4,1
18744.968,0.448,0.349,0.794,-8.33,-3.36,5.4,4,1
18744.984,0.449,0.351,0.813,-10.86,-2.44,3.33,4,1
18744.984,0.437,0.354,0.832,-12.6,-3.27,1.16,4,1
18745.0,0.429,0.34,0.854,-12.39,-10.59,-1.07,4,1
18745.015,0.452,0.334,0.859,-9.83,-12.02,-3.05,4,1
18745.015,0.455,0.313,0.845,-7.57,-12.05,-5.8,4,1
18745.031,0.461,0.292,0.821,-6.99,-12.05,-9.77,4,1
18745.046,0.457,0.304,0.816,-7.66,-11.51,-13.98,4,1
18745.046,0.451,0.324,0.812,-8.73,-10.07,-16.63,4,1
18745.062,0.448,0.353,0.804,-8.21,-7.75,-17.46,4,1
18745.078,0.44,0.379,0.804,-6.53,-4.61,-16.63,4,1
18745.078,0.432,0.386,0.811,-5.52,-2.32,-15.23,4,1
18745.093,0.417,0.386,0.812,-5.98,-2.62,-13.76,4,1
18745.093,0.426,0.397,0.816,-7.87,-4.18,-11.72,4,1
18745.109,0.421,0.399,0.805,-11.99,-4.03,-9.58,4,1
18745.125,0.404,0.358,0.797,-14.01,-4.18,-8.64,4,1
18745.125,0.426,0.37,0.8,-15.47,-3.75,-5.58,4,1
18745.14,0.433,0.378,0.803,-19.17,-1.5,-4.52,4,1
18745.156,0.426,0.339,0.811,-22.77,0.18,-5.68,4,1
18745.156,0.432,0.324,0.827,-24.87,1.07,-5.58,4,1
18745.171,0.438,0.312,0.835,-24.23,2.17,-5.83,4,1
18745.171,0.436,0.304,0.847,-22.64,4.0,-6.2,4,1
18745.187,0.433,0.307,0.856,-19.93,6.23,-6.07,4,1
18745.203,0.435,0.307,0.866,-15.26,8.06,-5.58,4,1
18745.218,0.429,0.312,0.871,-11.35,8.85,-5.25,4,1
18745.218,0.417,0.311,0.875,-8.3,7.93,-5.68,4,1
18745.234,0.415,0.31,0.877,-5.37,5.65,-5.62,4,1
18745.234,0.42,0.31,0.872,-2.84,2.87,-6.23,4,1
18745.25,0.428,0.312,0.858,-1.71,-0.31,-7.81,4,1
18745.265,0.433,0.311,0.847,-2.81,-3.08,-10.35,4,1
18745.265,0.433,0.305,0.846,-3.85,-4.52,-12.73,4,1
18745.281,0.434,0.305,0.842,-4.03,-5.13,-14.62,4,1
18745.296,0.432,0.311,0.84,-3.14,-4.58,-15.66,4,1
18745.296,0.432,0.318,0.854,-1.43,-2.81,-15.69,4,1
18745.312,0.425,0.33,0.859,0.95,-0.7,-15.26,4,1
18745.328,0.418,0.333,0.847,2.66,-0.58,-15.08,4,1
18745.328,0.419,0.329,0.843,2.35,-1.4,-15.78,4,1
18745.343,0.416,0.324,0.848,-0.12,-3.6,-18.28,4,1
18745.343,0.415,0.322,0.847,-3.45,-6.87,-21.76,4,1
18745.359,0.413,0.33,0.848,-8.45,-11.11,-25.27,4,1
18745.375,0.419,0.326,0.846,-14.13,-16.42,-29.69,4,1
18745.39,0.422,0.317,0.839,-19.75,-22.19,-35.55,4,1
18745.39,0.425,0.323,0.829,-25.64,-27.8,-41.41,4,1
18745.406,0.429,0.332,0.823,-30.37,-31.16,-45.29,4,1
18745.406,0.45,0.345,0.827,-32.35,-31.68,-47.18,4,1
18745.421,0.459,0.319,0.839,-30.67,-30.18,-49.87,4,1
18745.437,0.461,0.281,0.857,-29.54,-29.54,-54.78,4,1
18745.437,0.466,0.259,0.88,-30.15,-30.98,-62.69,4,1
18745.453,0.462,0.235,0.914,-30.67,-33.54,-72.73,4,1
18745.468,0.462,0.2,0.953,-28.08,-35.62,-82.16,4,1
18745.468,0.457,0.187,0.979,-20.33,-36.77,-91.19,4,1
18745.484,0.489,0.168,1.003,-9.28,-38.51,-101.32,4,1
18745.484,0.502,0.139,1.016,6.84,-37.81,-112.46,4,1
18745.5,0.495,0.124,1.034,26.09,-34.76,-121.62,4,1
18745.515,0.477,0.123,1.031,45.69,-34.12,-132.11,4,1
18745.515,0.453,0.135,1.014,63.94,-35.1,-142.7,4,1
18745.531,0.421,0.186,0.985,79.35,-36.68,-151.68,4,1
18745.546,0.396,0.259,0.913,90.27,-38.27,-157.41,4,1
18745.546,0.387,0.312,0.838,94.76,-38.42,-160.04,4,1
18745.562,0.396,0.378,0.772,92.96,-35.74,-157.69,4,1
18745.578,0.385,0.478,0.734,82.19,-29.39,-152.04,4,1
18745.578,0.395,0.567,0.709,66.59,-22.74,-146.86,4,1
18745.593,0.403,0.627,0.686,43.67,-17.0,-135.78,4,1
18745.609,0.345,0.644,0.709,12.02,-10.01,-123.08,4,1
18745.609,0.312,0.608,0.717,-11.2,-6.74,-116.34,4,1
18745.625,0.298,0.6,0.726,-29.79,-6.93,-108.49,4,1
18745.625,0.266,0.614,0.738,-47.09,-8.48,-102.82,4,1
18745.64,0.236,0.589,0.756,-58.93,-12.48,-99.25,4,1
18745.656,0.229,0.582,0.777,-64.39,-17.46,-94.85,4,1
18745.656,0.204,0.59,0.788,-66.29,-24.08,-86.98,4,1
18745.671,0.198,0.575,0.772,-61.65,-30.37,-79.13,4,1
18745.687,0.202,0.565,0.75,-52.83,-34.85,-70.16,4,1
18745.687,0.208,0.571,0.722,-42.27,-37.45,-61.98,4,1
18745.703,0.208,0.584,0.7,-32.99,-37.23,-55.33,4,1
18745.703,0.209,0.591,0.681,-26.4,-35.19,-49.99,4,1
18745.718,0.219,0.586,0.654,-21.88,-32.2,-45.63,4,1
18745.734,0.227,0.577,0.625,-18.68,-27.56,-42.42,4,1
18745.734,0.239,0.578,0.61,-16.79,-20.51,-39.67,4,1
18745.75,0.242,0.568,0.599,-15.84,-10.65,-38.03,4,1
18745.765,0.237,0.558,0.609,-16.33,-0.34,-39.37,4,1
18745.781,0.233,0.549,0.632,-15.99,9.31,-42.33,4,1
18745.781,0.212,0.554,0.659,-14.04,16.88,-46.24,4,1
18745.796,0.192,0.541,0.675,-11.87,20.69,-49.84,4,1
18745.796,0.189,0.546,0.682,-11.14,20.54,-51.94,4,1
18745.812,0.191,0.568,0.685,-9.64,20.11,-50.57,4,1
18745.812,0.195,0.559,0.688,-7.05,20.42,-45.69,4,1
18745.828,0.195,0.546,0.702,-4.18,20.97,-39.09,4,1
18745.843,0.182,0.545,0.726,-0.43,22.4,-30.7,4,1
18745.859,0.206,0.491,0.718,4.76,24.72,-23.13,4,1
18745.859,0.23,0.464,0.719,6.07,27.47,-23.93,4,1
18745.875,0.215,0.534,0.721,-0.03,31.92,-26.52,4,1
18745.875,0.214,0.54,0.748,-9.19,38.7,-28.2,4,1
18745.89,0.212,0.5,0.789,-15.87,46.54,-32.75,4,1
18745.906,0.114,0.513,0.895,-16.39,53.74,-37.84,4,1
18745.906,-0.04,0.723,1.134,-32.78,44.01,-35.83,4,1
18745.921,-0.174,0.997,1.345,-53.8,19.41,-23.99,4,1
18745.937,-0.13,0.978,1.315,-52.8,-11.93,0.61,4,1
18745.937,0.096,0.581,1.015,-38.36,-33.39,18.95,4,1
18745.953,0.193,0.387,0.778,-30.7,-33.11,16.94,4,1
18745.953,0.207,0.317,0.714,-13.0,-18.13,12.48,4,1
18745.968,0.181,0.35,0.728,4.64,-6.56,10.86,4,1
18745.984,0.15,0.415,0.738,-2.47,-9.55,8.85,4,1
18746.0,0.136,0.448,0.776,-12.05,-15.96,8.48,4,1
18746.0,0.116,0.444,0.817,-14.34,-20.2,9.8,4,1
18746.015,0.127,0.444,0.843,-10.1,-18.98,11.96,4,1
18746.015,0.187,0.48,0.878,-3.3,-12.88,13.73,4,1
18746.031,0.18,0.481,0.897,2.53,-5.49,15.23,4,1
18746.046,0.178,0.468,0.897,8.0,-0.82,16.85,4,1
18746.046,0.178,0.45,0.89,13.76,0.03,17.88,4,1
18746.062,0.162,0.48,0.9,14.31,-3.45,17.4,4,1
18746.078,0.224,0.495,0.868,11.32,-9.4,16.45,4,1
18746.078,0.247,0.405,0.824,18.25,-9.13,12.39,4,1
18746.093,0.245,0.475,0.833,16.57,-8.27,8.33,4,1
18746.093,0.255,0.543,0.843,12.73,-6.68,10.5,4,1
18746.109,0.256,0.52,0.838,8.18,-5.92,9.09,4,1
18746.125,0.252,0.471,0.826,5.13,-6.32,6.23,4,1
18746.125,0.252,0.481,0.813,4.73,-5.04,4.67,4,1
18746.14,0.259,0.492,0.794,6.71,-2.32,3.69,4,1
18746.156,0.256,0.487,0.779,8.15,1.22,2.75,4,1
18746.156,0.252,0.488,0.774,8.91,5.58,1.53,4,1
18746.171,0.242,0.501,0.777,9.55,10.13,0.27,4,1
18746.187,0.223,0.516,0.795,8.91,13.34,-0.89,4,1
18746.187,0.209,0.522,0.817,7.63,14.65,-1.71,4,1
18746.203,0.2,0.53,0.842,6.01,14.01,-2.23,4,1
18746.218,0.187,0.536,0.862,4.58,11.9,-2.41,4,1
18746.218,0.18,0.544,0.87,2.69,7.87,-1.98,4,1
18746.234,0.175,0.546,0.869,0.21,3.23,-1.43,4,1
18746.234,0.175,0.542,0.86,-2.08,-1.28,-1.16,4,1
18746.25,0.181,0.536,0.846,-4.3,-4.82,-0.89,4,1
18746.265,0.186,0.531,0.828,-6.29,-7.17,-0.21,4,1
18746.265,0.194,0.523,0.817,-7.84,-8.09,1.25,4,1
18746.281,0.204,0.511,0.813,-8.7,-7.66,2.53,4,1
18746.296,0.207,0.502,0.808,-8.82,-6.5,3.3,4,1
18746.296,0.216,0.495,0.808,-8.58,-4.46,3.17,4,1
18746.312,0.22,0.488,0.81,-8.79,-2.93,2.78,4,1
18746.312,0.216,0.48,0.82,-8.91,-1.13,2.29,4,1
18746.328,0.215,0.481,0.831,-8.45,-0.34,1.37,4,1
18746.343,0.218,0.483,0.846,-8.55,-0.64,0.43,4,1
18746.343,0.213,0.477,0.862,-9.4,-1.22,-0.98,4,1
18746.359,0.205,0.471,0.875,-8.88,-2.62,-2.29,4,1
18746.375,0.2,0.475,0.885,-7.02,-5.37,-3.02,4,1
18746.375,0.201,0.478,0.876,-5.01,-8.0,-3.48,4,1
18746.39,0.204,0.474,0.857,-2.41,-9.13,-3.88,4,1
18746.406,0.205,0.47,0.836,0.92,-8.67,-3.97,4,1
18746.406,0.207,0.474,0.82,4.12,-7.08,-3.85,4,1
18746.421,0.209,0.481,0.814,6.13,-5.13,-3.78,4,1
18746.437,0.21,0.493,0.813,5.83,-3.3,-4.49,4,1
18746.437,0.209,0.498,0.815,3.97,-2.53,-5.65,4,1
18746.453,0.206,0.499,0.822,2.01,-2.56,-6.5,4,1
18746.453,0.207,0.502,0.833,0.43,-2.81,-6.84,4,1
18746.468,0.21,0.506,0.84,-0.58,-3.14,-7.11,4,1
18746.484,0.208,0.505,0.846,-1.04,-3.72,-6.84,4,1
18746.484,0.204,0.505,0.849,-0.92,-4.76,-6.2,4,1
18746.5,0.207,0.506,0.851,-0.79,-6.32,-5.43,4,1
18746.515,0.207,0.505,0.848,-1.01,-7.63,-4.85,4,1
18746.531,0.209,0.497,0.842,-0.98,-8.27,-4.3,4,1
18746.531,0.21,0.486,0.833,-0.15,-8.48,-4.0,4,1
18746.546,0.216,0.487,0.823,0.18,-8.15,-4.3,4,1
18746.546,0.221,0.491,0.815,0.18,-7.05,-4.91,4,1
18746.562,0.223,0.492,0.809,0.21,-5.52,-5.28,4,1
18746.562,0.223,0.49,0.807,1.01,-3.14,-5.04,4,1
18746.578,0.222,0.497,0.808,2.62,-0.61,-4.39,4,1
18746.593,0.218,0.508,0.81,3.69,1.62,-3.54,4,1
18746.593,0.215,0.515,0.811,4.0,3.48,-2.72,4,1
18746.609,0.21,0.514,0.817,3.39,4.39,-1.92,4,1
18746.625,0.208,0.515,0.828,1.95,4.24,-1.65,4,1
18746.625,0.202,0.516,0.832,-0.21,3.45,-1.95,4,1
18746.64,0.197,0.516,0.839,-2.72,2.11,-2.32,4,1
18746.656,0.195,0.509,0.845,-5.13,0.43,-2.53,4,1
18746.656,0.195,0.503,0.848,-6.62,-1.68,-2.87,4,1
18746.671,0.197,0.499,0.848,-7.42,-3.36,-2.96,4,1
18746.687,0.201,0.489,0.845,-7.45,-4.09,-2.96,4,1
18746.687,0.202,0.478,0.839,-5.98,-4.06,-2.62,4,1
18746.703,0.208,0.473,0.832,-3.33,-3.39,-2.38,4,1
18746.703,0.216,0.478,0.832,-1.37,-1.46,-1.98,4,1
18746.718,0.208,0.478,0.831,0.55,0.55,-2.14,4,1
18746.734,0.208,0.481,0.834,2.99,1.8,-1.8,4,1
18746.75,0.209,0.492,0.834,4.73,2.62,-1.53,4,1
18746.75,0.207,0.491,0.834,5.77,3.2,-1.77,4,1
18746.765,0.208,0.498,0.839,6.44,3.69,-1.98,4,1
18746.765,0.213,0.489,0.827,7.78,3.88,-2.5,4,1
18746.781,0.221,0.489,0.815,8.27,4.97,-3.27,4,1
18746.796,0.231,0.496,0.799,7.54,8.15,-4.0,4,1
18746.796,0.258,0.485,0.777,5.28,14.56,-4.06,4,1
18746.812,0.274,0.48,0.763,2.66,23.74,-4.58,4,1
18746.812,0.251,0.488,0.779,1.37,33.81,-4.36,4,1
18746.828,0.203,0.566,0.837,-3.39,39.49,-3.81,4,1
18746.843,0.182,0.611,0.835,-9.34,39.31,-0.82,4,1
18746.843,0.132,0.542,0.846,-6.99,38.73,4.18,4,1
18746.859,0.003,0.661,0.909,-17.85,29.36,5.8,4,1
18746.875,0.052,0.702,0.905,-33.33,13.98,12.48,4,1
18746.875,0.062,0.581,0.824,-32.01,2.29,18.8,4,1
18746.89,0.084,0.509,0.791,-34.33,-4.24,22.19,4,1
18746.906,0.142,0.49,0.781,-34.91,-7.08,23.19,4,1
18746.921,0.169,0.451,0.794,-33.91,-6.35,21.39,4,1
18746.921,0.17,0.386,0.839,-31.95,-5.07,16.85,4,1
18746.937,0.188,0.354,0.901,-26.67,-5.07,10.93,4,1
18746.937,0.204,0.359,0.929,-17.15,-5.71,5.71,4,1
18746.953,0.206,0.36,0.947,-8.91,-6.53,2.84,4,1
18746.953,0.199,0.356,0.966,-2.26,-8.55,2.29,4,1
18746.968,0.195,0.367,0.973,11.17,-14.44,3.17,4,1
18746.984,0.192,0.371,0.962,18.4,-16.48,1.83,4,1
18746.984,0.171,0.372,0.942,19.87,-21.03,-1.16,4,1
18747.0,0.226,0.447,0.866,23.83,-25.33,-1.34,4,1
18747.015,0.217,0.399,0.811,36.35,-21.7,-2.23,4,1
18747.031,0.2,0.485,0.824,30.34,-18.16,-3.75,4,1
18747.031,0.213,0.532,0.835,30.03,-14.95,-1.62,4,1
18747.046,0.187,0.544,0.777,37.69,-11.05,4.61,4,1
18747.046,0.216,0.553,0.778,31.07,-7.63,7.48,4,1
18747.062,0.227,0.53,0.779,20.36,-5.55,5.49,4,1
18747.078,0.207,0.516,0.775,16.6,-3.42,4.0,4,1
18747.078,0.219,0.527,0.768,14.34,0.0,5.28,4,1
18747.093,0.228,0.524,0.766,10.59,3.2,5.86,4,1
18747.093,0.221,0.518,0.782,6.38,5.98,5.28,4,1
18747.109,0.221,0.522,0.804,2.56,7.75,4.67,4,1
18747.125,0.218,0.525,0.816,-0.7,8.3,3.72,4,1
18747.125,0.211,0.516,0.828,-3.54,8.3,3.3,4,1
18747.14,0.207,0.508,0.842,-5.43,7.66,3.17,4,1
18747.156,0.199,0.505,0.86,-5.4,6.74,3.14,4,1
18747.156,0.186,0.501,0.876,-4.27,4.73,3.23,4,1
18747.171,0.183,0.501,0.885,-3.17,1.16,3.27,4,1
18747.187,0.183,0.493,0.875,-2.47,-2.56,3.02,4,1
18747.187,0.187,0.485,0.858,-1.95,-5.43,2.53,4,1
18747.203,0.195,0.48,0.845,-1.04,-6.71,2.2,4,1
18747.218,0.199,0.478,0.83,0.55,-6.5,2.2,4,1
18747.218,0.202,0.483,0.822,1.68,-5.71,2.44,4,1
18747.234,0.208,0.491,0.822,2.08,-4.73,2.32,4,1
18747.234,0.212,0.494,0.822,2.04,-4.0,2.17,4,1
18747.25,0.216,0.497,0.827,2.01,-3.14,1.92,4,1
18747.265,0.219,0.495,0.831,2.44,-2.41,1.62,4,1
18747.265,0.22,0.493,0.824,2.69,-1.71,1.1,4,1
18747.281,0.216,0.492,0.822,2.35,-1.16,0.34,4,1
18747.296,0.216,0.491,0.824,1.43,-0.98,-0.92,4,1
18747.296,0.215,0.492,0.826,-0.21,-1.04,-2.23,4,1
18747.312,0.21,0.495,0.832,-1.07,-1.13,-2.99,4,1
18747.312,0.212,0.501,0.838,-1.31,-1.16,-3.2,4,1
18747.328,0.213,0.494,0.833,-0.98,-1.34,-3.54,4,1
18747.343,0.207,0.487,0.831,-0.27,-1.01,-4.03,4,1
18747.343,0.206,0.485,0.83,-0.12,-0.76,-4.7,4,1
18747.359,0.208,0.485,0.827,-0.18,-0.67,-5.62,4,1
18747.375,0.206,0.488,0.826,-0.18,0.09,-6.5,4,1
18747.375,0.203,0.493,0.83,0.03,1.07,-6.87,4,1
18747.39,0.2,0.49,0.831,0.98,1.77,-6.84,4,1
18747.406,0.202,0.491,0.837,2.2,2.41,-6.29,4,1
18747.406,0.202,0.496,0.838,3.2,3.05,-6.04,4,1
18747.421,0.2,0.5,0.841,4.06,2.99,-5.71,4,1
18747.437,0.199,0.503,0.845,4.64,2.59,-5.13,4,1
18747.437,0.198,0.507,0.841,5.4,2.04,-4.67,4,1
18747.453,0.199,0.51,0.84,6.16,1.83,-3.94,4,1
18747.453,0.205,0.507,0.839,7.51,1.8,-3.85,4,1
18747.468,0.21,0.5,0.837,8.94,2.23,-4.43,4,1
18747.484,0.215,0.495,0.818,10.77,2.96,-5.71,4,1
18747.484,0.214,0.489,0.81,10.47,4.18,-8.03,4,1
18747.5,0.207,0.494,0.815,9.28,5.74,-9.67,4,1
18747.515,0.193,0.506,0.822,9.31,7.11,-10.22,4,1
18747.515,0.182,0.535,0.834,8.73,7.02,-9.58,4,1
18747.531,0.181,0.55,0.84,8.61,6.87,-8.03,4,1
18747.546,0.166,0.55,0.839,8.55,6.29,-6.96,4,1
18747.546,0.162,0.56,0.857,7.57,5.37,-5.92,4,1
18747.562,0.165,0.568,0.858,7.35,4.58,-4.43,4,1
18747.578,0.159,0.552,0.837,7.63,3.02,-3.33,4,1
18747.578,0.176,0.534,0.789,5.46,0.98,-2.29,4,1
18747.593,0.21,0.465,0.762,6.41,3.45,-0.85,4,1
18747.593,0.117,0.521,0.807,3.88,5.28,-2.5,4,1
18747.609,0.145,0.607,0.853,-5.16,2.59,0.03,4,1
18747.625,0.166,0.533,0.832,-1.19,-1.4,4.24,4,1
18747.625,0.169,0.507,0.813,-1.92,-3.91,4.46,4,1
18747.64,0.184,0.513,0.802,-1.83,-3.85,5.04,4,1
18747.656,0.179,0.498,0.822,1.13,-2.47,5.16,4,1
18747.656,0.172,0.49,0.846,3.2,-2.72,4.49,4,1
18747.671,0.178,0.481,0.856,5.4,-4.79,2.93,4,1
18747.687,0.178,0.468,0.857,9.03,-7.11,0.82,4,1
18747.687,0.179,0.467,0.866,13.03,-9.52,-1.19,4,1
18747.703,0.175,0.496,0.859,14.92,-11.99,-2.2,4,1
18747.703,0.17,0.512,0.838,16.79,-13.64,-1.53,4,1
18747.718,0.142,0.549,0.834,16.94,-14.83,0.31,4,1
18747.734,0.215,0.575,0.795,14.65,-16.51,3.33,4,1
18747.734,0.228,0.497,0.729,22.16,-12.45,4.97,4,1
18747.75,0.2,0.552,0.742,17.3,-5.65,4.33,4,1
18747.765,0.223,0.587,0.757,13.79,-0.55,6.41,4,1
18747.781,0.213,0.565,0.757,13.34,3.17,7.11,4,1
18747.781,0.198,0.558,0.765,9.19,5.46,7.14,4,1
18747.796,0.205,0.574,0.786,4.03,5.43,6.62,4,1
18747.796,0.209,0.581,0.79,0.92,5.07,5.4,4,1
18747.812,0.201,0.571,0.792,-2.35,4.7,4.36,4,1
18747.828,0.194,0.563,0.806,-4.85,3.51,3.36,4,1
18747.828,0.195,0.563,0.819,-6.38,1.8,2.9,4,1
18747.843,0.2,0.556,0.817,-7.39,-0.31,2.32,4,1
18747.843,0.203,0.541,0.805,-7.66,-1.22,1.62,4,1
18747.859,0.203,0.531,0.8,-7.14,-0.79,1.37,4,1
18747.875,0.199,0.526,0.803,-6.1,0.37,1.19,4,1
18747.875,0.197,0.527,0.808,-5.62,1.04,0.95,4,1
18747.89,0.192,0.527,0.813,-5.77,1.31,0.49,4,1
18747.906,0.189,0.532,0.821,-5.89,0.82,0.0,4,1
18747.906,0.192,0.539,0.822,-6.01,0.03,-0.21,4,1
18747.921,0.196,0.538,0.815,-5.13,-0.27,0.06,4,1
18747.937,0.191,0.537,0.811,-2.59,0.58,1.86,4,1
18747.937,0.194,0.538,0.811,-2.01,1.53,3.45,4,1
18747.953,0.193,0.52,0.81,-1.74,2.11,2.81,4,1
18747.953,0.186,0.525,0.812,-2.38,1.83,2.84,4,1
18747.968,0.19,0.535,0.819,-2.81,1.37,2.26,4,1
18747.984,0.188,0.535,0.822,-2.23,0.76,2.01,4,1
18748.0,0.189,0.531,0.828,-1.16,-0.15,2.44,4,1
18748.0,0.192,0.53,0.82,-0.06,-0.64,2.78,4,1
18748.015,0.193,0.527,0.814,0.4,-0.79,2.9,4,1
18748.015,0.194,0.53,0.816,0.24,-1.04,2.41,4,1
18748.031,0.195,0.534,0.812,-0.21,-1.46,1.92,4,1
18748.046,0.195,0.537,0.809,-1.01,-1.5,2.01,4,1
18748.046,0.194,0.534,0.81,-0.79,-0.89,2.62,4,1
18748.062,0.198,0.53,0.808,-0.12,-0.03,3.39,4,1
18748.078,0.197,0.53,0.812,0.46,0.61,3.97,4,1
18748.078,0.197,0.529,0.818,0.58,0.82,3.78,4,1
18748.093,0.198,0.523,0.817,0.31,0.55,3.08,4,1
18748.093,0.2,0.522,0.814,-0.06,0.15,2.29,4,1
18748.109,0.204,0.522,0.813,-0.85,-0.27,1.19,4,1
18748.125,0.204,0.524,0.809,-1.46,-0.27,0.03,4,1
18748.125,0.205,0.526,0.805,-1.34,0.21,-0.73,4,1
18748.14,0.206,0.527,0.803,-0.92,1.22,-0.85,4,1
18748.156,0.204,0.531,0.805,-0.55,2.32,-0.82,4,1
18748.156,0.197,0.531,0.806,-0.46,3.3,-0.7,4,1
18748.171,0.191,0.529,0.811,-0.46,3.88,-0.49,4,1
18748.187,0.184,0.533,0.826,-1.07,3.51,-0.7,4,1
18748.187,0.178,0.536,0.837,-1.98,1.95,-1.4,4,1
18748.203,0.176,0.532,0.839,-1.89,-0.31,-1.59,4,1
18748.203,0.176,0.53,0.832,-1.37,-1.89,-1.43,4,1
18748.218,0.181,0.532,0.824,-0.98,-2.99,-1.07,4,1
18748.234,0.185,0.525,0.815,-0.52,-3.33,-0.64,4,1
18748.234,0.185,0.527,0.814,-1.34,-3.23,-0.43,4,1
18748.25,0.19,0.529,0.81,-1.19,-3.23,-0.09,4,1
18748.265,0.198,0.527,0.804,-0.24,-2.32,0.89,4,1
18748.265,0.2,0.532,0.807,-0.58,-0.64,1.43,4,1
18748.281,0.2,0.521,0.814,-0.15,0.31,1.56,4,1
18748.296,0.197,0.516,0.818,0.79,0.49,1.62,4,1
18748.296,0.197,0.528,0.824,0.18,0.06,1.1,4,1
18748.312,0.194,0.531,0.827,-1.4,-1.01,-0.37,4,1
18748.312,0.192,0.525,0.821,-1.71,-2.23,-1.25,4,1
18748.328,0.195,0.53,0.817,-1.28,-2.93,-1.16,4,1
18748.343,0.197,0.534,0.812,-1.04,-2.84,-1.07,4,1
18748.343,0.196,0.528,0.807,-0.7,-2.29,-1.01,4,1
18748.359,0.195,0.524,0.804,-0.55,-1.65,-0.73,4,1
18748.375,0.197,0.53,0.806,-0.89,-0.82,-0.79,4,1
18748.375,0.194,0.526,0.808,-1.28,-0.06,-0.98,4,1
18748.39,0.192,0.523,0.811,-1.31,0.64,-0.7,4,1
18748.406,0.194,0.531,0.813,-1.46,1.28,-0.18,4,1
18748.406,0.187,0.528,0.819,-1.62,1.56,-0.09,4,1
18748.421,0.182,0.524,0.829,-1.59,1.16,0.03,4,1
18748.437,0.182,0.531,0.837,-1.86,-0.18,-0.18,4,1
18748.437,0.185,0.528,0.834,-2.04,-1.92,-0.55,4,1
18748.453,0.189,0.523,0.83,-1.13,-2.9,-0.43,4,1
18748.453,0.192,0.519,0.819,0.03,-3.14,-0.06,4,1
18748.468,0.197,0.517,0.813,0.61,-2.87,0.12,4,1
18748.484,0.2,0.52,0.813,0.67,-2.35,0.0,4,1
18748.484,0.201,0.522,0.809,0.73,-1.74,-0.12,4,1
18748.5,0.202,0.524,0.807,0.61,-0.95,-0.37,4,1
18748.515,0.202,0.526,0.807,0.61,-0.18,-0.37,4,1
18748.531,0.197,0.528,0.807,0.52,0.64,-0.58,4,1
18748.531,0.193,0.528,0.815,0.06,1.22,-0.89,4,1
18748.546,0.189,0.529,0.818,-0.49,1.04,-1.1,4,1
18748.546,0.183,0.535,0.82,-1.07,0.55,-1.4,4,1
18748.562,0.183,0.539,0.822,-1.95,-0.49,-1.37,4,1
18748.562,0.187,0.538,0.818,-2.62,-1.56,-1.25,4,1
18748.578,0.186,0.534,0.814,-3.08,-1.95,-0.92,4,1
18748.593,0.188,0.526,0.811,-3.69,-1.89,-0.27,4,1
18748.593,0.189,0.522,0.814,-4.3,-1.43,0.24,4,1
18748.609,0.191,0.519,0.818,-4.3,-1.07,0.43,4,1
18748.625,0.191,0.513,0.823,-3.88,-0.79,0.52,4,1
18748.625,0.189,0.516,0.829,-3.54,-0.95,0.43,4,1
18748.64,0.19,0.518,0.832,-3.17,-1.5,0.06,4,1
18748.656,0.192,0.515,0.831,-2.14,-2.08,-0.34,4,1
18748.656,0.194,0.513,0.828,-1.19,-2.59,-0.67,4,1
18748.671,0.196,0.514,0.822,-0.64,-2.59,-0.95,4,1
18748.687,0.197,0.516,0.816,-0.4,-2.44,-1.22,4,1
18748.687,0.198,0.516,0.814,-0.31,-1.92,-1.4,4,1
18748.703,0.2,0.521,0.812,-0.21,-1.34,-1.56,4,1
18748.703,0.198,0.522,0.81,-0.52,-0.58,-1.68,4,1
18748.718,0.195,0.524,0.81,-1.07,0.06,-1.86,4,1
18748.734,0.195,0.522,0.813,-1.4,0.82,-1.89,4,1
18748.75,0.19,0.521,0.821,-1.46,1.34,-1.86,4,1
18748.75,0.184,0.522,0.834,-1.53,1.1,-1.74,4,1
18748.765,0.178,0.525,0.837,-1.43,0.09,-1.59,4,1
18748.765,0.176,0.527,0.841,-1.53,-1.37,-1.46,4,1
18748.781,0.177,0.527,0.836,-1.37,-2.81,-0.98,4,1
18748.796,0.182,0.527,0.824,-1.31,-3.88,-0.21,4,1
18748.796,0.187,0.529,0.816,-1.74,-3.85,0.92,4,1
18748.812,0.189,0.526,0.814,-1.34,-2.75,2.29,4,1
18748.828,0.196,0.523,0.812,-0.37,-1.43,3.57,4,1
18748.828,0.193,0.518,0.812,-0.43,-0.67,4.09,4,1
18748.843,0.192,0.516,0.813,-0.98,-0.27,4.09,4,1
18748.843,0.196,0.517,0.819,-1.53,0.18,3.88,4,1
18748.859,0.196,0.516,0.823,-1.71,0.15,3.27,4,1
18748.875,0.191,0.516,0.829,-2.08,-0.18,2.47,4,1
18748.875,0.184,0.518,0.837,-2.62,-1.19,1.83,4,1
18748.89,0.188,0.516,0.842,-2.5,-2.84,1.5,4,1
18748.906,0.19,0.516,0.838,-2.26,-4.27,1.1,4,1
18748.906,0.193,0.513,0.831,-2.14,-5.13,1.04,4,1
18748.921,0.199,0.509,0.824,-1.92,-5.49,0.79,4,1
18748.921,0.198,0.506,0.817,-1.53,-5.19,0.09,4,1
18748.937,0.202,0.509,0.814,-2.53,-4.52,-0.73,4,1
18748.953,0.205,0.518,0.816,-3.39,-3.85,-1.46,4,1
18748.968,0.2,0.516,0.819,-3.02,-3.48,-1.4,4,1
18748.968,0.198,0.515,0.825,-2.44,-3.57,-0.89,4,1
18748.984,0.198,0.518,0.829,-2.59,-3.54,-0.85,4,1
18748.984,0.192,0.516,0.832,-2.69,-3.66,-1.19,4,1
18749.0,0.188,0.509,0.829,-2.41,-4.7,-0.95,4,1
18749.015,0.193,0.514,0.827,-1.98,-5.49,-0.37,4,1
18749.015,0.192,0.526,0.833,-1.98,-5.52,-0.09,4,1
18749.031,0.185,0.519,0.834,-1.92,-6.07,0.09,4,1
18749.046,0.187,0.511,0.836,-1.86,-7.69,0.73,4,1
18749.046,0.196,0.519,0.835,-2.14,-9.13,1.22,4,1
18749.062,0.195,0.523,0.832,-3.72,-9.92,1.1,4,1
18749.062,0.2,0.512,0.828,-4.43,-10.65,1.19,4,1
18749.078,0.202,0.508,0.82,-4.33,-11.11,1.5,4,1
18749.093,0.207,0.513,0.818,-4.61,-11.17,2.04,4,1
18749.093,0.213,0.516,0.821,-5.34,-10.8,2.17,4,1
18749.109,0.211,0.513,0.819,-5.62,-10.44,2.08,4,1
18749.125,0.21,0.507,0.816,-5.77,-10.22,2.11,4,1
18749.125,0.212,0.504,0.823,-6.04,-10.16,2.11,4,1
18749.14,0.212,0.508,0.833,-6.29,-10.47,2.01,4,1
18749.156,0.213,0.514,0.836,-6.84,-11.35,1.98,4,1
18749.156,0.215,0.515,0.839,-7.26,-12.33,2.32,4,1
18749.171,0.216,0.508,0.836,-6.81,-13.06,2.96,4,1
18749.187,0.215,0.503,0.83,-5.86,-13.79,3.97,4,1
18749.187,0.221,0.508,0.833,-5.71,-14.4,4.7,4,1
18749.203,0.223,0.511,0.835,-5.89,-14.8,5.43,4,1
18749.218,0.228,0.504,0.825,-5.65,-15.17,6.5,4,1
18749.218,0.228,0.5,0.825,-5.68,-15.08,7.69,4,1
18749.234,0.231,0.502,0.828,-5.43,-14.92,8.51,4,1
18749.234,0.236,0.497,0.82,-4.76,-14.74,8.97,4,1
18749.25,0.24,0.496,0.82,-5.13,-14.65,8.97,4,1
18749.265,0.246,0.491,0.821,-5.92,-14.59,8.76,4,1
18749.265,0.249,0.484,0.821,-6.68,-14.22,8.09,4,1
18749.281,0.253,0.477,0.815,-7.2,-13.67,7.42,4,1
18749.296,0.255,0.472,0.819,-7.26,-12.91,6.78,4,1
18749.296,0.253,0.468,0.835,-6.5,-12.54,5.83,4,1
18749.312,0.25,0.475,0.855,-4.67,-13.49,5.43,4,1
18749.312,0.251,0.489,0.864,-2.5,-15.44,5.49,4,1
18749.328,0.255,0.494,0.862,-1.01,-17.85,6.04,4,1
18749.343,0.26,0.495,0.853,-0.4,-20.36,6.68,4,1
18749.343,0.265,0.492,0.838,0.06,-22.19,7.42,4,1
18749.359,0.267,0.488,0.823,0.18,-23.16,8.58,4,1
18749.375,0.277,0.49,0.819,0.21,-23.35,9.92,4,1
18749.375,0.278,0.485,0.81,0.61,-22.77,10.83,4,1
18749.39,0.282,0.482,0.803,0.52,-21.7,11.96,4,1
18749.406,0.277,0.483,0.824,0.52,-20.72,12.76,4,1
18749.406,0.274,0.485,0.845,2.41,-21.39,13.06,4,1
18749.421,0.277,0.49,0.847,3.97,-23.41,13.09,4,1
18749.437,0.277,0.488,0.848,3.27,-25.48,13.06,4,1
18749.437,0.279,0.482,0.84,0.95,-28.47,12.6,4,1
18749.453,0.279,0.472,0.831,-2.08,-32.01,12.05,4,1
18749.453,0.289,0.472,0.827,-5.4,-35.0,11.84,4,1
18749.468,0.299,0.481,0.829,-7.08,-37.26,11.57,4,1
18749.484,0.306,0.481,0.834,-6.59,-38.51,11.9,4,1
18749.5,0.31,0.476,0.848,-3.69,-39.77,12.76,4,1
18749.5,0.306,0.483,0.842,0.49,-42.05,13.43,4,1
18749.515,0.316,0.487,0.848,2.5,-45.29,15.41,4,1
18749.515,0.325,0.496,0.854,3.14,-49.07,16.57,4,1
18749.531,0.344,0.496,0.838,2.72,-53.47,17.3,4,1
18749.546,0.361,0.488,0.818,-0.21,-57.25,18.1,4,1
18749.546,0.374,0.479,0.81,-4.09,-60.76,19.14,4,1
18749.562,0.386,0.479,0.812,-6.53,-63.81,21.03,4,1
18749.578,0.396,0.485,0.809,-6.5,-66.04,22.58,4,1
18749.578,0.399,0.475,0.803,-4.85,-67.96,24.2,4,1
18749.593,0.413,0.472,0.786,-3.63,-69.73,25.42,4,1
18749.593,0.419,0.464,0.768,-2.99,-70.44,26.25,4,1
18749.609,0.434,0.456,0.754,-2.5,-69.98,27.53,4,1
18749.625,0.451,0.46,0.743,-1.28,-69.09,28.66,4,1
18749.64,0.466,0.458,0.725,-0.64,-68.15,29.15,4,1
18749.64,0.477,0.456,0.71,-1.68,-66.68,28.99,4,1
18749.656,0.491,0.451,0.698,-2.47,-64.85,28.75,4,1
18749.656,0.498,0.449,0.682,-3.08,-62.65,28.02,4,1
18749.671,0.51,0.446,0.671,-5.4,-60.49,27.1,4,1
18749.687,0.52,0.441,0.672,-8.7,-57.74,25.73,4,1
18749.687,0.531,0.429,0.686,-10.35,-54.51,25.12,4,1
18749.703,0.527,0.424,0.688,-9.22,-51.21,24.05,4,1
18749.703,0.53,0.416,0.687,-8.67,-48.77,23.74,4,1
18749.718,0.541,0.419,0.687,-8.91,-46.48,23.53,4,1
18749.734,0.545,0.42,0.688,-9.28,-44.53,22.89,4,1
18749.734,0.549,0.421,0.687,-10.28,-43.52,22.77,4,1
18749.75,0.563,0.423,0.689,-11.84,-43.0,23.13,4,1
18749.765,0.569,0.426,0.687,-13.52,-42.15,23.29,4,1
18749.781,0.57,0.416,0.677,-15.17,-41.35,23.1,4,1
18749.781,0.575,0.402,0.668,-17.12,-39.98,23.1,4,1
18749.796,0.593,0.393,0.665,-18.13,-37.93,23.01,4,1
18749.796,0.605,0.386,0.661,-16.82,-35.07,21.79,4,1
18749.812,0.608,0.374,0.657,-15.23,-31.59,20.81,4,1
18749.828,0.618,0.373,0.652,-15.02,-28.44,20.48,4,1
18749.828,0.63,0.375,0.661,-14.1,-25.57,20.51,4,1
18749.843,0.628,0.374,0.656,-11.81,-22.86,20.6,4,1
18749.859,0.637,0.369,0.646,-11.38,-21.12,20.39,4,1
18749.859,0.644,0.366,0.648,-12.6,-19.26,19.32,4,1
18749.875,0.64,0.358,0.648,-13.55,-17.37,18.01,4,1
18749.875,0.643,0.346,0.647,-14.71,-15.59,17.03,4,1
18749.89,0.642,0.341,0.656,-15.11,-13.76,16.24,4,1
18749.906,0.642,0.344,0.676,-14.47,-12.57,15.96,4,1
18749.906,0.646,0.344,0.685,-13.31,-12.39,15.75,4,1
18749.921,0.649,0.334,0.683,-11.72,-12.54,15.78,4,1
18749.937,0.65,0.329,0.686,-9.89,-12.57,16.21,4,1
18749.937,0.651,0.332,0.694,-7.42,-13.0,16.33,4,1
18749.953,0.65,0.317,0.681,-6.59,-13.37,15.9,4,1
18749.968,0.64,0.319,0.685,-6.93,-13.89,15.11,4,1
18749.968,0.647,0.319,0.701,-7.35,-15.81,15.14,4,1
18749.984,0.668,0.331,0.707,-6.35,-17.61,15.05,4,1
18749.984,0.666,0.322,0.695,-3.81,-18.52,14.71,4,1
18750.0,0.671,0.308,0.679,-1.4,-19.1,14.83,4,1
18750.015,0.676,0.307,0.661,1.16,-19.17,14.07,4,1
18750.031,0.682,0.305,0.646,3.54,-18.46,12.85,4,1
18750.031,0.683,0.306,0.637,4.49,-16.66,11.9,4,1
18750.046,0.678,0.311,0.638,4.55,-14.34,11.14,4,1
18750.046,0.668,0.32,0.64,3.75,-13.09,10.53,4,1
18750.062,0.678,0.331,0.651,1.1,-13.21,10.96,4,1
18750.078,0.679,0.339,0.661,-0.95,-13.28,11.57,4,1
18750.078,0.671,0.331,0.66,-0.85,-12.97,13.15,4,1
18750.093,0.672,0.324,0.664,1.16,-12.97,15.35,4,1
18750.093,0.67,0.33,0.669,4.24,-13.28,17.21,4,1
18750.109,0.668,0.336,0.672,6.29,-14.13,19.07,4,1
18750.125,0.662,0.339,0.676,7.42,-15.41,21.21,4,1
18750.125,0.662,0.344,0.682,8.39,-17.49,24.14,4,1
18750.14,0.662,0.351,0.684,9.55,-20.23,27.01,4,1
18750.156,0.657,0.352,0.674,9.03,-23.99,29.54,4,1
18750.171,0.674,0.34,0.66,7.23,-27.62,32.56,4,1
18750.171,0.696,0.339,0.637,6.71,-29.15,35.04,4,1
18750.187,0.693,0.321,0.616,6.38,-28.66,36.38,4,1
18750.187,0.698,0.296,0.6,4.7,-28.02,37.54,4,1
18750.203,0.714,0.285,0.596,3.88,-27.1,38.58,4,1
18750.218,0.727,0.285,0.589,3.39,-25.61,38.06,4,1
18750.218,0.738,0.276,0.582,0.34,-23.99,36.47,4,1
18750.234,0.745,0.26,0.583,-4.3,-22.68,33.97,4,1
18750.234,0.756,0.243,0.586,-7.75,-21.45,31.46,4,1
18750.25,0.763,0.226,0.582,-8.76,-19.87,28.66,4,1
18750.265,0.761,0.213,0.577,-9.03,-17.82,25.54,4,1
18750.265,0.769,0.204,0.583,-9.7,-16.11,22.49,4,1
18750.281,0.773,0.2,0.6,-8.58,-14.07,20.02,4,1
18750.296,0.776,0.195,0.604,-4.73,-11.81,18.31,4,1
18750.296,0.778,0.19,0.612,1.68,-9.67,17.18,4,1
18750.312,0.778,0.193,0.61,9.03,-8.0,15.44,4,1
18750.312,0.781,0.202,0.596,12.76,-7.66,12.36,4,1
18750.328,0.786,0.204,0.589,11.93,-7.54,8.7,4,1
18750.343,0.787,0.202,0.586,10.35,-7.23,4.58,4,1
18750.343,0.78,0.194,0.582,9.83,-6.59,0.89,4,1
18750.359,0.773,0.197,0.59,9.52,-6.16,-2.26,4,1
18750.375,0.767,0.2,0.621,8.0,-6.5,-5.4,4,1
18750.375,0.761,0.206,0.647,4.67,-7.48,-9.74,4,1
18750.39,0.754,0.19,0.66,2.44,-10.28,-15.29,4,1
18750.406,0.755,0.172,0.69,5.13,-13.03,-19.14,4,1
18750.406,0.754,0.181,0.707,14.04,-15.17,-21.42,4,1
18750.421,0.754,0.186,0.716,25.85,-17.03,-23.71,4,1
18750.437,0.738,0.189,0.732,36.07,-18.95,-26.98,4,1
18750.437,0.708,0.193,0.738,43.73,-23.07,-31.43,4,1
18750.453,0.701,0.202,0.743,49.35,-29.51,-36.04,4,1
18750.468,0.675,0.198,0.74,54.02,-34.88,-40.1,4,1
18750.468,0.691,0.252,0.694,57.44,-33.11,-48.62,4,1
18750.484,0.543,0.224,0.661,61.1,-22.86,-69.22,4,1
18750.484,0.509,0.211,0.681,64.94,-19.07,-85.48,4,1
18750.5,0.493,0.338,0.729,71.87,-11.51,-95.37,4,1
18750.515,0.451,0.398,0.778,83.44,-8.76,-98.33,4,1
18750.515,0.389,0.44,0.825,98.61,-13.58,-93.17,4,1
18750.531,0.334,0.504,0.87,111.76,-26.06,-81.79,4,1
18750.546,0.334,0.538,0.84,119.6,-44.92,-67.81,4,1
18750.546,0.379,0.56,0.747,116.49,-62.2,-54.81,4,1
18750.562,0.394,0.559,0.665,103.34,-73.0,-43.4,4,1
18750.578,0.496,0.573,0.593,84.81,-80.97,-34.03,4,1
18750.578,0.516,0.57,0.502,65.1,-81.73,-29.15,4,1
18750.593,0.516,0.541,0.489,44.37,-77.3,-23.13,4,1
18750.593,0.51,0.511,0.51,30.82,-74.65,-17.21,4,1
18750.609,0.506,0.469,0.485,26.55,-72.82,-11.32,4,1
18750.625,0.501,0.434,0.421,25.73,-70.07,-5.68,4,1
18750.625,0.536,0.426,0.367,25.45,-67.23,-2.29,4,1
18750.64,0.581,0.431,0.302,22.98,-64.15,-3.42,4,1
18750.656,0.591,0.436,0.241,16.24,-60.18,-8.45,4,1
18750.671,0.603,0.416,0.218,9.67,-55.76,-14.8,4,1
18750.671,0.631,0.384,0.175,9.09,-50.36,-20.87,4,1
18750.687,0.644,0.373,0.111,13.76,-39.64,-25.73,4,1
18750.687,0.635,0.377,0.076,19.81,-25.67,-30.27,4,1
18750.703,0.639,0.368,0.041,26.61,-13.09,-34.97,4,1
18750.703,0.659,0.386,0.034,31.25,-0.06,-40.68,4,1
18750.718,0.658,0.425,0.054,34.27,11.63,-48.98,4,1
18750.734,0.612,0.381,0.081,35.25,21.15,-53.71,4,1
18750.734,0.614,0.378,0.105,33.27,28.96,-53.35,4,1
18750.75,0.639,0.399,0.128,29.76,34.67,-52.34,4,1
18750.765,0.678,0.417,0.119,21.97,38.39,-51.61,4,1
18750.765,0.666,0.427,0.125,7.48,42.02,-53.25,4,1
18750.781,0.641,0.395,0.188,-8.3,43.06,-53.56,4,1
18750.796,0.643,0.37,0.203,-18.37,41.6,-53.93,4,1
18750.796,0.631,0.329,0.171,-26.25,40.47,-53.62,4,1
18750.812,0.652,0.313,0.161,-35.77,39.8,-52.28,4,1
18750.828,0.684,0.325,0.201,-43.55,40.68,-53.47,4,1
18750.828,0.729,0.335,0.24,-47.64,40.74,-58.81,4,1
18750.843,0.76,0.381,0.279,-49.29,42.18,-65.98,4,1
18750.843,0.754,0.397,0.311,-46.27,45.87,-74.74,4,1
18750.859,0.752,0.403,0.316,-39.22,48.52,-83.96,4,1
18750.875,0.719,0.42,0.304,-30.61,51.52,-92.44,4,1
18750.875,0.651,0.446,0.305,-25.39,53.16,-99.4,4,1
18750.89,0.621,0.473,0.302,-26.03,50.84,-104.34,4,1
18750.906,0.613,0.491,0.28,-34.64,50.11,-112.46,4,1
18750.921,0.643,0.504,0.275,-36.84,56.03,-117.98,4,1
18750.921,0.644,0.534,0.298,-36.04,64.49,-124.12,4,1
18750.937,0.616,0.558,0.329,-34.49,70.47,-131.96,4,1
18750.937,0.507,0.618,0.454,-29.82,73.7,-140.6,4,1
18750.953,0.442,0.653,0.492,-24.51,72.42,-146.89,4,1
18750.968,0.388,0.672,0.513,-19.17,67.02,-151.46,4,1
18750.968,0.338,0.708,0.504,-16.17,59.79,-154.24,4,1
18750.984,0.362,0.754,0.493,-19.5,50.54,-156.65,4,1
18750.984,0.388,0.794,0.456,-22.83,45.63,-163.4,4,1
18751.0,0.386,0.817,0.391,-27.65,47.85,-169.9,4,1
18751.015,0.389,0.872,0.415,-37.26,54.14,-174.47,4,1
18751.015,0.311,0.9,0.496,-39.28,63.23,-179.39,4,1
18751.031,0.19,0.919,0.572,-34.97,68.61,-179.91,4,1
18751.046,0.099,0.933,0.616,-30.46,65.92,-173.74,4,1
18751.046,0.057,0.954,0.655,-29.33,57.53,-165.75,4,1
18751.062,0.047,0.967,0.71,-27.89,46.36,-162.36,4,1
18751.078,-0.0,0.935,0.671,-23.16,32.11,-164.56,4,1
18751.078,0.089,0.997,0.66,-25.21,17.18,-171.3,4,1
18751.093,0.045,0.924,0.66,-23.1,24.26,-170.26,4,1
18751.093,-0.021,0.982,0.603,-15.56,23.22,-169.04,4,1
18751.109,0.048,1.029,0.564,-17.12,21.3,-164.07,4,1
18751.125,-0.003,0.986,0.531,-24.32,32.07,-155.67,4,1
18751.125,-0.059,0.978,0.573,-32.44,34.09,-149.17,4,1
18751.14,-0.108,0.959,0.659,-35.86,34.36,-143.28,4,1
18751.156,-0.186,0.904,0.7,-33.42,31.53,-134.28,4,1
18751.156,-0.194,0.905,0.727,-29.54,20.54,-129.83,4,1
18751.171,-0.208,0.913,0.739,-23.19,12.88,-129.03,4,1
18751.187,-0.227,0.898,0.721,-17.7,6.81,-130.5,4,1
18751.187,-0.215,0.885,0.707,-16.75,1.31,-133.49,4,1
18751.203,-0.253,0.92,0.721,-13.76,-1.31,-136.02,4,1
18751.203,-0.285,0.929,0.712,-8.85,-6.01,-132.85,4,1
18751.218,-0.261,0.926,0.679,-11.02,-8.94,-126.93,4,1
18751.234,-0.258,0.914,0.672,-15.96,-9.13,-120.61,4,1
18751.234,-0.275,0.893,0.678,-17.73,-7.02,-112.89,4,1
18751.25,-0.307,0.887,0.692,-18.07,-4.67,-104.65,4,1
18751.265,-0.346,0.864,0.705,-18.37,-4.55,-96.68,4,1
18751.281,-0.348,0.851,0.7,-19.87,-6.68,-88.53,4,1
18751.281,-0.337,0.844,0.683,-22.46,-7.9,-84.9,4,1
18751.296,-0.343,0.814,0.671,-26.03,-7.66,-84.81,4,1
18751.296,-0.349,0.786,0.685,-29.24,-5.65,-83.99,4,1
18751.312,-0.363,0.767,0.716,-29.76,-3.14,-82.77,4,1
18751.328,-0.382,0.73,0.73,-26.15,-2.69,-80.97,4,1
18751.328,-0.388,0.716,0.716,-21.64,-1.13,-77.33,4,1
18751.343,-0.379,0.717,0.696,-19.65,1.16,-73.31,4,1
18751.343,-0.361,0.7,0.668,-21.76,3.81,-70.74,4,1
18751.359,-0.354,0.684,0.657,-26.76,8.15,-69.12,4,1
18751.375,-0.361,0.665,0.654,-31.19,13.86,-66.74,4,1
18751.375,-0.375,0.646,0.663,-35.1,20.45,-63.75,4,1
18751.39,-0.387,0.626,0.677,-38.27,26.0,-60.52,4,1
18751.406,-0.385,0.605,0.678,-40.59,31.86,-58.14,4,1
18751.406,-0.404,0.581,0.683,-40.99,39.37,-56.61,4,1
18751.421,-0.436,0.547,0.693,-37.14,43.86,-54.02,4,1
18751.437,-0.406,0.504,0.709,-25.7,46.88,-48.59,4,1
18751.437,-0.393,0.552,0.689,-5.25,60.85,-45.2,4,1
18751.453,-0.417,0.582,0.635,11.54,73.76,-42.94,4,1
18751.453,-0.454,0.617,0.616,16.66,83.53,-45.63,4,1
18751.468,-0.553,0.671,0.635,7.75,86.52,-51.67,4,1
18751.484,-0.61,0.708,0.689,-11.99,81.73,-58.57,4,1
18751.5,-0.652,0.695,0.774,-31.98,72.36,-61.92,4,1
18751.5,-0.679,0.679,0.846,-41.75,61.37,-58.63,4,1
18751.515,-0.684,0.672,0.866,-42.05,49.56,-51.15,4,1
18751.515,-0.664,0.673,0.856,-37.48,38.94,-42.57,4,1
18751.531,-0.636,0.677,0.829,-31.4,30.27,-34.06,4,1
18751.546,-0.62,0.66,0.787,-25.61,23.62,-28.08,4,1
18751.546,-0.622,0.648,0.757,-21.58,18.49,-25.09,4,1
18751.562,-0.629,0.633,0.757,-18.92,14.34,-24.87,4,1
18751.578,-0.643,0.616,0.757,-17.33,8.51,-25.61,4,1
18751.578,-0.632,0.61,0.76,-14.04,0.61,-26.15,4,1
18751.593,-0.612,0.61,0.746,-7.23,-5.89,-26.8,4,1
18751.593,-0.591,0.614,0.736,-1.4,-10.71,-27.56,4,1
18751.609,-0.567,0.615,0.726,2.99,-14.16,-27.99,4,1
18751.625,-0.557,0.624,0.718,6.13,-15.72,-28.44,4,1
18751.625,-0.56,0.636,0.725,6.44,-17.61,-29.21,4,1
18751.64,-0.56,0.637,0.743,5.4,-20.91,-28.9,4,1
18751.656,-0.557,0.636,0.755,4.94,-24.48,-27.68,4,1
18751.671,-0.557,0.629,0.767,5.01,-28.81,-25.15,4,1
18751.671,-0.553,0.614,0.784,6.26,-33.81,-20.17,4,1
18751.687,-0.539,0.593,0.796,10.07,-38.51,-14.16,4,1
18751.687,-0.524,0.596,0.779,15.2,-42.39,-9.28,4,1
18751.703,-0.531,0.585,0.762,17.27,-46.82,-6.23,4,1
18751.718,-0.521,0.565,0.753,16.88,-51.61,-2.9,4,1
18751.718,-0.505,0.557,0.73,16.36,-55.12,-0.03,4,1
18751.734,-0.514,0.543,0.713,14.37,-57.83,1.25,4,1
18751.734,-0.527,0.518,0.709,11.51,-60.7,2.38,4,1
18751.75,-0.52,0.517,0.692,9.4,-63.66,3.75,4,1
18751.765,-0.527,0.506,0.681,6.99,-66.5,3.45,4,1
18751.765,-0.531,0.468,0.68,7.39,-69.37,3.3,4,1
18751.781,-0.522,0.433,0.676,13.09,-71.02,3.39,4,1
18751.796,-0.522,0.407,0.668,23.93,-72.91,1.19,4,1
18751.796,-0.515,0.392,0.629,36.04,-75.11,-2.53,4,1
18751.812,-0.491,0.38,0.584,43.61,-75.11,-8.24,4,1
18751.828,-0.479,0.379,0.557,45.84,-73.21,-16.97,4,1
18751.828,-0.476,0.383,0.55,45.38,-71.11,-25.7,4,1
18751.843,-0.464,0.381,0.539,46.21,-69.03,-32.5,4,1
18751.859,-0.439,0.387,0.516,47.76,-66.19,-37.48,4,1
18751.859,-0.417,0.397,0.494,46.27,-60.85,-42.21,4,1
18751.875,-0.407,0.416,0.493,41.2,-53.13,-45.93,4,1
18751.875,-0.392,0.414,0.498,30.0,-36.01,-49.44,4,1
18751.89,-0.383,0.419,0.502,25.51,-26.25,-49.1,4,1
18751.906,-0.393,0.437,0.52,20.51,-17.73,-46.57,4,1
18751.906,-0.39,0.448,0.547,15.69,-9.31,-43.89,4,1
18751.921,-0.376,0.466,0.582,11.41,-0.79,-41.87,4,1
18751.937,-0.384,0.479,0.611,7.93,7.42,-39.92,4,1
18751.937,-0.401,0.494,0.649,4.18,13.43,-37.84,4,1
18751.953,-0.418,0.501,0.685,0.52,16.51,-35.92,4,1
18751.953,-0.424,0.508,0.711,-2.01,17.58,-33.85,4,1
18751.968,-0.419,0.519,0.728,-2.41,17.91,-30.85,4,1
18751.984,-0.422,0.531,0.739,-2.32,17.91,-27.01,4,1
18751.984,-0.421,0.545,0.753,-3.42,16.6,-22.46,4,1
18752.0,-0.404,0.536,0.748,-4.7,14.74,-18.13,4,1
18752.015,-0.386,0.524,0.729,-5.4,15.63,-15.11,4,1
18752.015,-0.369,0.516,0.709,-4.64,18.98,-13.31,4,1
18752.031,-0.366,0.515,0.701,-3.23,24.35,-12.54,4,1
18752.046,-0.376,0.52,0.707,-2.44,31.07,-13.49,4,1
18752.046,-0.403,0.525,0.726,-2.53,37.42,-15.02,4,1
18752.062,-0.447,0.543,0.752,-3.54,41.72,-15.41,4,1
18752.062,-0.481,0.558,0.783,-6.13,41.87,-14.62,4,1
18752.078,-0.496,0.558,0.787,-7.87,39.67,-13.49,4,1
18752.093,-0.522,0.547,0.78,-8.15,35.46,-13.31,4,1
18752.093,-0.532,0.539,0.788,-6.87,28.87,-12.67,4,1
18752.109,-0.521,0.542,0.774,-3.05,21.55,-10.68,4,1
18752.125,-0.511,0.539,0.736,1.1,15.9,-8.88,4,1
18752.14,-0.502,0.53,0.702,3.48,12.63,-6.99,4,1
18752.14,-0.496,0.518,0.674,5.49,11.87,-5.46,4,1
18752.156,-0.487,0.492,0.65,7.2,14.13,-2.69,4,1
18752.156,-0.49,0.481,0.63,5.8,18.98,0.73,4,1
18752.171,-0.498,0.475,0.619,0.52,24.57,2.26,4,1
18752.187,-0.517,0.474,0.617,-6.1,29.76,2.11,4,1
18752.187,-0.558,0.472,0.647,-13.15,33.3,1.95,4,1
18752.203,-0.602,0.478,0.695,-19.78,32.65,2.59,4,1
18752.203,-0.622,0.472,0.733,-23.19,27.77,4.21,4,1
18752.218,-0.621,0.467,0.748,-21.36,21.15,7.02,4,1
18752.234,-0.596,0.459,0.72,-17.79,14.59,9.55,4,1
18752.234,-0.567,0.447,0.686,-16.66,9.77,9.86,4,1
18752.25,-0.54,0.424,0.657,-16.63,8.21,8.33,4,1
18752.265,-0.519,0.408,0.634,-15.26,10.16,5.49,4,1
18752.265,-0.526,0.409,0.622,-12.94,13.43,0.76,4,1
18752.281,-0.544,0.415,0.623,-10.99,16.54,-4.09,4,1
18752.296,-0.563,0.434,0.634,-9.31,18.25,-8.33,4,1
18752.296,-0.576,0.451,0.648,-8.0,17.85,-11.35,4,1
18752.312,-0.576,0.467,0.654,-6.32,16.72,-13.49,4,1
18752.328,-0.588,0.477,0.654,-3.85,16.17,-15.35,4,1
18752.328,-0.608,0.501,0.678,-0.27,15.59,-15.56,4,1
18752.343,-0.65,0.534,0.724,5.83,13.79,-13.28,4,1
18752.343,-0.669,0.558,0.738,11.75,8.27,-7.54,4,1
18752.359,-0.668,0.581,0.71,14.65,1.4,-1.53,4,1
18752.375,-0.678,0.577,0.678,13.0,-4.85,5.71,4,1
18752.375,-0.662,0.578,0.659,8.67,-10.93,12.97,4,1
18752.39,-0.643,0.556,0.631,4.73,-14.77,18.07,4,1
18752.406,-0.606,0.531,0.615,1.13,-15.78,21.82,4,1
18752.406,-0.583,0.506,0.598,-0.95,-13.86,23.32,4,1
18752.421,-0.561,0.471,0.574,-1.62,-10.28,22.74,4,1
18752.437,-0.549,0.463,0.565,-0.55,-4.64,20.57,4,1
18752.437,-0.548,0.46,0.574,1.56,1.1,16.91,4,1
18752.453,-0.55,0.45,0.579,2.93,5.13,11.78,4,1
18752.453,-0.552,0.444,0.589,3.6,7.97,6.56,4,1
18752.468,-0.565,0.452,0.613,4.94,9.8,1.77,4,1
18752.484,-0.59,0.46,0.644,6.23,9.98,-1.89,4,1
18752.484,-0.604,0.467,0.663,6.1,7.32,-3.14,4,1
18752.5,-0.592,0.475,0.662,5.62,3.78,-2.81,4,1
18752.515,-0.582,0.463,0.647,5.58,1.56,-2.62,4,1
18752.515,-0.571,0.461,0.637,6.53,1.4,-2.26,4,1
18752.531,-0.572,0.468,0.633,7.29,2.9,-2.29,4,1
18752.546,-0.583,0.473,0.636,6.47,3.85,-2.32,4,1
18752.546,-0.584,0.476,0.639,2.84,3.39,-1.53,4,1
18752.562,-0.562,0.465,0.64,-0.61,3.11,-1.43,4,1
18752.578,-0.568,0.461,0.651,-2.2,4.97,-1.92,4,1
18752.578,-0.576,0.468,0.671,-1.74,5.98,-1.83,4,1
18752.593,-0.57,0.472,0.682,-0.18,5.19,-1.92,4,1
18752.593,-0.56,0.476,0.679,-0.09,4.15,-2.75,4,1
18752.609,-0.55,0.478,0.672,-1.68,3.6,-4.82,4,1
18752.625,-0.553,0.473,0.673,-2.96,4.18,-7.54,4,1
18752.625,-0.563,0.476,0.683,-3.72,4.67,-9.37,4,1
18752.64,-0.569,0.477,0.698,-3.69,4.55,-9.49,4,1
18752.656,-0.569,0.482,0.704,-2.38,3.75,-8.67,4,1
18752.671,-0.574,0.498,0.708,-1.28,2.59,-7.6,4,1
18752.671,-0.587,0.505,0.72,-1.34,0.31,-6.01,4,1
18752.671,-0.597,0.509,0.72,-2.66,-3.45,-3.57,4,1
18752.687,-0.589,0.506,0.716,-3.63,-7.93,-0.27,4,1
18752.703,-0.579,0.503,0.703,-2.75,-11.99,2.69,4,1
18752.703,-0.566,0.501,0.68,-2.17,-14.83,4.27,4,1
18752.718,-0.555,0.496,0.67,-2.32,-16.05,4.43,4,1
18752.734,-0.561,0.482,0.663,-2.04,-17.0,4.61,4,1
18752.734,-0.56,0.48,0.659,-1.46,-17.98,5.19,4,1
18752.75,-0.558,0.474,0.65,-0.27,-18.25,5.28,4,1
18752.765,-0.551,0.468,0.643,0.58,-17.7,4.79,4,1
18752.765,-0.548,0.469,0.639,1.07,-16.69,3.63,4,1
18752.781,-0.549,0.466,0.638,1.22,-15.72,1.83,4,1
18752.796,-0.559,0.468,0.639,1.01,-14.74,0.18,4,1
18752.796,-0.573,0.477,0.644,1.34,-13.98,-0.61,4,1
18752.812,-0.585,0.489,0.663,1.71,-14.04,-0.21,4,1
18752.828,-0.591,0.501,0.676,1.56,-15.35,0.79,4,1
18752.828,-0.588,0.501,0.681,1.19,-17.12,2.08,4,1
18752.843,-0.575,0.495,0.682,1.59,-18.59,3.72,4,1
18752.859,-0.563,0.488,0.668,2.72,-18.49,5.83,4,1
18752.859,-0.555,0.485,0.653,3.11,-17.33,7.2,4,1
18752.875,-0.554,0.486,0.654,1.07,-14.77,8.88,4,1
18752.875,-0.552,0.482,0.665,0.92,-14.28,10.07,4,1
18752.89,-0.544,0.479,0.667,-0.24,-13.82,10.77,4,1
18752.906,-0.53,0.474,0.665,-2.04,-13.79,10.47,4,1
18752.906,-0.523,0.457,0.67,-3.81,-13.79,10.16,4,1
18752.921,-0.512,0.443,0.671,-4.52,-12.82,9.92,4,1
18752.937,-0.51,0.433,0.671,-4.18,-11.32,9.49,4,1
18752.937,-0.508,0.437,0.682,-3.66,-9.7,9.13,4,1
18752.953,-0.501,0.435,0.68,-3.6,-8.88,7.84,4,1
18752.968,-0.503,0.43,0.679,-4.49,-8.21,5.92,4,1
18752.968,-0.505,0.427,0.681,-4.67,-7.48,3.97,4,1
18752.984,-0.501,0.427,0.681,-3.3,-6.59,1.89,4,1
18752.984,-0.509,0.436,0.687,-0.89,-5.46,-0.55,4,1
18753.0,-0.524,0.451,0.704,2.08,-5.19,-2.78,4,1
18753.015,-0.534,0.457,0.715,5.01,-6.68,-4.43,4,1
18753.015,-0.537,0.462,0.712,7.69,-8.97,-5.86,4,1
18753.031,-0.546,0.475,0.713,9.55,-11.35,-7.32,4,1
18753.046,-0.544,0.482,0.713,10.41,-14.56,-7.9,4,1
18753.046,-0.524,0.48,0.698,10.83,-17.4,-7.93,4,1
18753.062,-0.506,0.475,0.689,12.24,-17.58,-8.09,4,1
18753.078,-0.504,0.478,0.687,15.05,-16.24,-8.7,4,1
18753.078,-0.508,0.482,0.695,18.01,-15.05,-9.64,4,1
18753.093,-0.517,0.491,0.711,21.15,-14.71,-10.5,4,1
18753.093,-0.536,0.502,0.734,24.78,-15.78,-11.41,4,1
18753.109,-0.543,0.515,0.747,29.18,-18.95,-11.84,4,1
18753.125,-0.55,0.537,0.756,34.82,-22.95,-12.02,4,1
18753.125,-0.555,0.558,0.757,41.6,-27.38,-12.36,4,1
18753.14,-0.556,0.582,0.747,47.98,-32.29,-12.48,4,1
18753.156,-0.546,0.605,0.73,53.35,-36.68,-12.45,4,1
18753.171,-0.54,0.617,0.71,58.87,-39.34,-12.48,4,1
18753.171,-0.536,0.635,0.703,66.29,-39.92,-11.14,4,1
18753.187,-0.535,0.666,0.705,75.81,-39.19,-8.97,4,1
18753.187,-0.555,0.699,0.698,82.92,-39.03,-6.74,4,1
18753.203,-0.577,0.72,0.701,86.89,-40.04,-4.03,4,1
18753.218,-0.58,0.738,0.699,90.7,-41.17,-0.52,4,1
18753.218,-0.563,0.758,0.682,93.14,-41.54,3.17,4,1
18753.234,-0.543,0.77,0.665,93.81,-40.28,6.65,4,1
18753.234,-0.523,0.779,0.651,95.55,-36.29,9.28,4,1
18753.25,-0.513,0.789,0.626,98.54,-29.39,11.87,4,1
18753.265,-0.501,0.797,0.608,101.81,-19.38,13.95,4,1
18753.265,-0.501,0.82,0.6,104.59,-7.29,14.86,4,1
18753.281,-0.524,0.849,0.61,105.59,3.91,16.02,4,1
18753.296,-0.555,0.895,0.631,104.19,12.45,18.8,4,1
18753.296,-0.593,0.958,0.667,98.03,15.96,24.75,4,1
18753.312,-0.616,1.004,0.714,86.4,12.18,33.97,4,1
18753.328,-0.583,1.024,0.736,74.37,2.38,46.11,4,1
18753.328,-0.489,1.029,0.705,65.83,-8.18,59.6,4,1
18753.343,-0.391,1.043,0.654,60.12,-13.52,72.57,4,1
18753.343,-0.318,1.056,0.605,54.23,-12.94,81.88,4,1
18753.359,-0.281,1.053,0.598,46.33,-9.34,87.98,4,1
18753.375,-0.281,1.052,0.626,40.56,-5.16,92.41,4,1
18753.375,-0.315,1.055,0.683,37.26,-3.42,97.23,4,1
18753.39,-0.344,1.065,0.729,35.04,-8.33,103.18,4,1
18753.406,-0.367,1.074,0.785,32.84,-19.9,109.65,4,1
18753.421,-0.366,1.058,0.819,33.54,-37.17,115.63,4,1
18753.421,-0.338,1.019,0.813,40.19,-56.31,120.46,4,1
18753.437,-0.299,0.98,0.763,55.02,-72.51,123.69,4,1
18753.453,-0.261,0.981,0.69,71.54,-84.17,123.39,4,1
18753.453,-0.234,0.982,0.62,83.44,-92.87,118.56,4,1
18753.453,-0.213,0.936,0.532,93.48,-97.75,111.27,4,1
18753.468,-0.19,0.915,0.474,101.78,-98.15,103.24,4,1
18753.484,-0.171,0.919,0.427,109.9,-94.24,95.25,4,1
18753.484,-0.188,0.941,0.404,116.4,-88.29,87.19,4,1
18753.5,-0.209,0.972,0.395,120.64,-83.71,79.71,4,1
18753.515,-0.206,0.993,0.389,122.14,-81.45,74.16,4,1
18753.515,-0.206,0.999,0.391,125.16,-78.95,70.22,4,1
18753.531,-0.198,0.989,0.375,129.95,-76.82,67.78,4,1
18753.546,-0.185,1.004,0.366,136.63,-74.4,66.16,4,1
18753.562,-0.169,1.02,0.356,143.1,-71.54,65.03,4,1
18753.562,-0.145,1.036,0.331,145.79,-69.8,65.1,4,1
18753.578,-0.122,1.051,0.301,145.05,-68.85,68.51,4,1
18753.578,-0.102,1.009,0.249,143.01,-68.97,73.31,4,1
18753.593,-0.071,0.985,0.204,140.32,-67.84,77.24,4,1
18753.593,-0.013,0.992,0.168,136.45,-68.73,80.87,4,1
18753.609,-0.01,0.923,0.133,133.03,-64.91,86.67,4,1
18753.625,-0.018,0.872,0.067,131.96,-62.93,95.95,4,1
18753.625,0.09,0.886,0.047,130.19,-58.9,99.0,4,1
18753.64,0.046,0.877,0.014,127.23,-53.07,94.73,4,1
18753.656,0.05,0.854,0.053,119.3,-49.38,91.31,4,1
18753.656,0.011,0.838,0.114,119.42,-42.73,89.97,4,1
18753.671,-0.042,0.796,0.122,127.57,-41.35,95.68,4,1
18753.687,-0.026,0.794,0.128,131.5,-42.54,92.23,4,1
18753.687,0.041,0.789,0.125,130.07,-44.95,89.11,4,1
18753.703,0.383,1.05,0.053,125.92,-42.91,67.23,4,1
18753.703,-0.135,0.876,-0.014,105.32,-29.33,24.14,4,1
18753.718,-0.056,0.542,0.145,82.06,-34.52,45.99,4,1
18753.734,0.087,0.912,0.054,111.82,-34.27,42.42,4,1
18753.734,-0.082,0.794,-0.052,128.3,-24.14,31.43,4,1
18753.75,-0.06,0.745,-0.072,116.55,-21.97,28.9,4,1
18753.765,0.009,0.808,-0.097,116.43,-17.09,22.49,4,1
18753.765,-0.031,0.773,-0.078,116.37,-8.27,17.21,4,1
18753.781,-0.009,0.77,-0.059,112.46,-0.92,18.65,4,1
18753.796,0.004,0.799,-0.103,113.56,5.58,19.99,4,1
18753.796,-0.01,0.791,-0.18,109.5,11.14,23.19,4,1
18753.812,0.018,0.784,-0.199,96.93,15.72,27.59,4,1
18753.828,0.013,0.814,-0.176,87.25,20.91,30.88,4,1
18753.828,-0.007,0.869,-0.158,82.31,23.96,34.91,4,1
18753.843,0.015,0.884,-0.184,74.22,21.52,38.88,4,1
18753.843,0.077,0.908,-0.217,56.61,18.37,43.73,4,1
18753.859,0.164,0.921,-0.248,49.41,22.37,46.05,4,1
18753.875,0.13,0.87,-0.276,41.2,26.55,48.22,4,1
18753.875,0.23,0.933,-0.295,32.26,30.82,41.84,4,1
18753.89,0.221,0.857,-0.31,15.56,31.71,38.03,4,1
18753.906,0.255,0.88,-0.26,7.9,31.43,31.59,4,1
18753.921,0.212,0.844,-0.15,16.88,30.46,30.4,4,1
18753.921,0.24,0.845,-0.139,31.83,27.92,36.99,4,1
18753.937,0.287,0.918,-0.183,34.27,20.11,39.58,4,1
18753.937,0.267,0.885,-0.161,26.92,16.97,45.38,4,1
18753.953,0.291,0.883,-0.158,19.35,11.87,53.77,4,1
18753.968,0.335,0.929,-0.192,10.62,2.9,57.62,4,1
18753.968,0.367,0.89,-0.219,-1.07,-2.5,61.62,4,1
18753.984,0.404,0.895,-0.233,-14.53,-5.8,64.7,4,1
18753.984,0.409,0.893,-0.27,-27.56,-7.26,66.01,4,1
18754.0,0.43,0.81,-0.262,-39.19,-6.99,68.88,4,1
18754.015,0.441,0.798,-0.113,-32.23,-2.69,74.25,4,1
18754.015,0.427,0.806,-0.106,-6.26,-0.21,80.17,4,1
18754.031,0.453,0.815,-0.21,1.28,-5.65,84.72,4,1
18754.046,0.522,0.823,-0.202,-8.7,-8.85,87.41,4,1
18754.046,0.551,0.796,-0.168,-14.01,-11.32,87.34,4,1
18754.062,0.558,0.761,-0.182,-16.21,-16.45,90.27,4,1
18754.062,0.626,0.747,-0.218,-22.03,-21.49,95.0,4,1
18754.078,0.672,0.718,-0.261,-29.63,-23.93,97.2,4,1
18754.093,0.687,0.684,-0.286,-39.0,-23.62,94.49,4,1
18754.093,0.67,0.642,-0.283,-50.94,-23.19,86.52,4,1
18754.109,0.645,0.585,-0.278,-64.82,-25.51,76.85,4,1
18754.125,0.684,0.536,-0.269,-76.72,-28.78,66.99,4,1
18754.14,0.7,0.534,-0.242,-84.2,-28.72,50.17,4,1
18754.14,0.698,0.461,-0.195,-90.21,-35.98,39.19,4,1
18754.156,0.74,0.464,-0.108,-88.47,-47.09,30.67,4,1
18754.156,0.7,0.485,-0.031,-73.21,-61.07,22.49,4,1
18754.171,0.714,0.502,-0.032,-49.71,-79.68,15.5,4,1
18754.187,0.727,0.541,-0.076,-27.19,-93.45,2.93,4,1
18754.187,0.726,0.584,-0.108,-6.84,-102.18,-9.92,4,1
18754.203,0.667,0.623,-0.177,15.78,-104.8,-26.43,4,1
18754.218,0.587,0.658,-0.289,36.84,-103.79,-42.12,4,1
18754.218,0.532,0.73,-0.416,54.81,-97.17,-54.78,4,1
18754.234,0.446,0.763,-0.542,70.1,-84.6,-63.39,4,1
18754.234,0.363,0.824,-0.625,78.28,-69.61,-63.78,4,1
18754.25,0.252,0.917,-0.693,79.53,-50.48,-59.3,4,1
18754.265,0.096,0.945,-0.733,71.5,-33.91,-48.92,4,1
18754.265,0.038,0.963,-0.79,57.5,-24.32,-29.6,4,1
18754.281,0.016,1.027,-0.87,36.07,-13.58,-10.86,4,1
18754.296,0.001,1.006,-0.851,5.74,-1.13,10.74,4,1
18754.296,-0.006,0.944,-0.741,-22.61,7.9,31.98,4,1
18754.312,-0.011,0.869,-0.62,-35.74,12.82,47.91,4,1
18754.312,-0.009,0.76,-0.537,-34.49,12.88,60.0,4,1
18754.328,0.057,0.699,-0.461,-30.37,9.34,70.8,4,1
18754.343,0.167,0.709,-0.429,-22.98,2.72,76.69,4,1
18754.343,0.201,0.688,-0.412,-14.86,-0.12,77.46,4,1
18754.359,0.259,0.658,-0.377,-11.35,0.52,80.26,4,1
18754.375,0.307,0.688,-0.374,-11.93,-2.96,77.88,4,1
18754.375,0.278,0.644,-0.359,-20.78,-5.22,76.27,4,1
18754.39,0.379,0.592,-0.283,-30.43,-6.35,86.43,4,1
18754.406,0.431,0.687,-0.258,-36.71,-15.14,91.46,4,1
18754.406,0.4,0.604,-0.216,-49.65,-26.67,95.19,4,1
18754.421,0.453,0.547,-0.159,-64.97,-45.38,100.96,4,1
18754.437,0.492,0.495,-0.15,-73.37,-68.42,103.43,4,1
18754.437,0.571,0.424,-0.179,-80.9,-88.44,104.31,4,1
18754.453,0.651,0.357,-0.212,-83.32,-103.49,100.5,4,1
18754.468,0.751,0.243,-0.247,-69.98,-111.36,96.53,4,1
18754.468,0.824,0.238,-0.354,-47.7,-111.97,87.22,4,1
18754.484,0.863,0.203,-0.45,-29.02,-100.34,73.92,4,1
18754.484,0.859,0.212,-0.522,-13.0,-83.59,53.59,4,1
18754.5,0.814,0.25,-0.591,1.01,-61.59,31.83,4,1
18754.515,0.733,0.327,-0.667,11.72,-42.18,15.56,4,1
18754.515,0.673,0.394,-0.726,18.71,-26.15,7.57,4,1
18754.531,0.65,0.468,-0.74,16.66,-11.14,6.01,4,1
18754.546,0.661,0.504,-0.699,5.1,0.89,8.58,4,1
18754.546,0.647,0.512,-0.636,-10.13,9.83,10.32,4,1
18754.562,0.634,0.514,-0.564,-24.41,15.5,10.47,4,1
18754.578,0.659,0.532,-0.478,-35.07,20.69,9.16,4,1
18754.578,0.667,0.548,-0.408,-39.46,26.64,6.26,4,1
18754.593,0.661,0.573,-0.35,-38.79,32.59,2.56,4,1
18754.593,0.654,0.61,-0.306,-35.58,38.82,-1.74,4,1
18754.609,0.65,0.652,-0.265,-32.53,44.43,-5.49,4,1
18754.625,0.627,0.689,-0.211,-31.43,48.28,-9.09,4,1
18754.625,0.615,0.716,-0.157,-31.31,49.93,-13.34,4,1
18754.64,0.579,0.754,-0.112,-28.78,49.93,-17.43,4,1
18754.656,0.545,0.792,-0.096,-23.74,47.46,-19.35,4,1
18754.656,0.529,0.841,-0.098,-19.87,42.82,-18.59,4,1
18754.671,0.494,0.881,-0.111,-18.49,37.23,-15.81,4,1
18754.687,0.473,0.908,-0.132,-22.37,28.11,-10.47,4,1
18754.687,0.51,0.913,-0.147,-29.24,17.24,-2.96,4,1
18754.703,0.53,0.892,-0.164,-35.0,10.1,3.45,4,1
18754.703,0.566,0.857,-0.169,-39.83,5.31,7.51,4,1
18754.718,0.601,0.837,-0.16,-42.88,1.19,9.03,4,1
18754.734,0.599,0.821,-0.175,-41.38,-2.32,8.51,4,1
18754.734,0.59,0.794,-0.199,-36.35,-5.52,7.81,4,1
18754.75,0.581,0.793,-0.229,-30.79,-7.84,7.42,4,1
18754.765,0.571,0.807,-0.262,-27.53,-9.55,7.54,4,1
18754.765,0.554,0.817,-0.296,-27.1,-10.16,8.94,4,1
18754.781,0.547,0.813,-0.321,-28.11,-9.7,11.54,4,1
18754.796,0.578,0.811,-0.326,-31.34,-9.09,15.05,4,1
18754.796,0.604,0.81,-0.31,-37.2,-8.03,17.61,4,1
18754.812,0.61,0.778,-0.294,-41.51,-7.29,19.62,4,1
18754.828,0.607,0.738,-0.29,-42.33,-6.65,21.64,4,1
18754.828,0.594,0.711,-0.291,-40.41,-5.52,22.83,4,1
18754.843,0.587,0.679,-0.305,-32.53,-0.98,23.29,4,1
18754.843,0.612,0.656,-0.321,-29.11,5.19,22.68,4,1
18754.859,0.653,0.637,-0.321,-24.48,12.39,18.68,4,1
18754.875,0.674,0.594,-0.247,-19.23,16.94,11.84,4,1
18754.875,0.672,0.591,-0.24,-12.7,17.85,5.01,4,1
18754.89,0.66,0.592,-0.251,-3.27,18.59,-0.18,4,1
18754.906,0.646,0.605,-0.26,6.01,19.9,-3.69,4,1
18754.906,0.615,0.614,-0.285,13.31,21.3,-6.38,4,1
18754.921,0.601,0.614,-0.34,18.07,22.49,-7.87,4,1
18754.937,0.63,0.641,-0.36,17.64,24.78,-8.33,4,1
18754.937,0.642,0.669,-0.351,14.19,27.65,-8.09,4,1
18754.953,0.623,0.673,-0.336,8.21,28.84,-6.93,4,1
18754.968,0.626,0.678,-0.31,-0.67,26.49,-5.28,4,1
18754.968,0.634,0.669,-0.297,-5.74,23.62,-5.52,4,1
18754.984,0.637,0.673,-0.299,-10.22,20.91,-7.93,4,1
18754.984,0.647,0.664,-0.297,-13.21,17.98,-10.65,4,1
18755.0,0.649,0.642,-0.3,-9.64,16.82,-12.63,4,1
18755.015,0.656,0.643,-0.318,-2.53,16.24,-14.34,4,1
18755.031,0.668,0.643,-0.342,4.15,16.3,-16.27,4,1
18755.031,0.685,0.653,-0.364,8.7,18.16,-18.4,4,1
18755.046,0.685,0.67,-0.39,11.02,20.72,-19.96,4,1
18755.046,0.694,0.687,-0.398,10.74,25.06,-21.15,4,1
18755.062,0.691,0.719,-0.386,7.75,31.28,-23.26,4,1
18755.078,0.673,0.724,-0.363,4.76,37.23,-25.24,4,1
18755.078,0.655,0.719,-0.333,3.69,40.93,-26.12,4,1
18755.093,0.644,0.728,-0.318,3.85,42.45,-24.84,4,1
18755.093,0.642,0.732,-0.297,4.0,42.63,-22.16,4,1
18755.109,0.651,0.749,-0.25,5.89,43.49,-19.53,4,1
18755.125,0.662,0.769,-0.222,9.09,45.32,-18.4,4,1
18755.125,0.667,0.774,-0.205,10.59,48.19,-18.52,4,1
18755.14,0.66,0.776,-0.179,10.59,50.72,-18.98,4,1
18755.156,0.658,0.772,-0.151,11.47,53.13,-18.83,4,1
18755.171,0.638,0.796,-0.121,12.15,55.3,-19.23,4,1
18755.171,0.615,0.791,-0.084,12.18,54.96,-19.99,4,1
18755.187,0.58,0.773,-0.063,13.98,50.66,-20.66,4,1
18755.187,0.569,0.775,-0.049,18.52,45.69,-18.34,4,1
18755.203,0.553,0.792,-0.057,24.38,40.16,-15.08,4,1
18755.218,0.553,0.791,-0.061,27.65,36.13,-10.74,4,1
18755.218,0.557,0.815,-0.043,27.25,32.47,-7.78,4,1
18755.234,0.545,0.8,-0.042,26.31,28.53,-5.52,4,1
18755.25,0.551,0.782,-0.05,24.84,24.78,-2.41,4,1
18755.25,0.549,0.779,-0.057,23.8,21.39,0.58,4,1
18755.265,0.541,0.768,-0.066,23.07,18.46,2.96,4,1
18755.265,0.541,0.764,-0.08,22.1,15.05,5.62,4,1
18755.281,0.559,0.763,-0.1,20.69,13.06,8.91,4,1
18755.296,0.561,0.759,-0.111,16.66,13.06,10.74,4,1
18755.296,0.571,0.74,-0.098,11.51,13.98,11.35,4,1
18755.312,0.568,0.73,-0.089,8.64,15.75,10.22,4,1
18755.328,0.566,0.705,-0.091,7.63,17.15,9.43,4,1
18755.328,0.576,0.697,-0.074,6.71,18.98,9.4,4,1
18755.343,0.582,0.699,-0.056,7.26,21.3,9.0,4,1
18755.343,0.59,0.686,-0.059,8.12,22.8,7.78,4,1
18755.359,0.596,0.682,-0.054,7.9,23.87,6.1,4,1
18755.375,0.589,0.673,-0.034,9.92,24.93,4.85,4,1
18755.375,0.576,0.659,-0.025,12.76,25.33,5.1,4,1
18755.39,0.563,0.657,-0.022,12.97,24.87,5.19,4,1
18755.406,0.558,0.649,-0.028,12.79,22.86,3.63,4,1
18755.406,0.55,0.644,-0.054,12.7,20.33,1.37,4,1
18755.421,0.543,0.641,-0.073,10.1,18.52,-0.21,4,1
18755.437,0.547,0.645,-0.094,6.41,16.79,-2.11,4,1
18755.453,0.553,0.648,-0.114,4.61,16.36,-3.45,4,1
18755.453,0.554,0.65,-0.128,5.34,17.33,-3.27,4,1
18755.453,0.546,0.643,-0.145,7.11,19.17,-1.56,4,1
18755.468,0.549,0.641,-0.161,8.76,21.55,1.92,4,1
18755.484,0.543,0.632,-0.156,10.47,24.78,7.11,4,1
18755.5,0.529,0.621,-0.149,11.23,27.13,12.48,4,1
18755.5,0.535,0.606,-0.15,7.63,28.57,16.33,4,1
18755.515,0.565,0.599,-0.149,-0.92,29.42,16.57,4,1
18755.515,0.584,0.59,-0.154,-9.25,29.97,12.6,4,1
18755.531,0.614,0.586,-0.142,-15.75,30.55,7.87,4,1
18755.546,0.653,0.624,-0.103,-18.16,30.76,2.04,4,1
18755.546,0.675,0.634,-0.09,-12.63,32.81,-3.2,4,1
18755.562,0.689,0.656,-0.09,-2.44,34.76,-6.26,4,1
18755.578,0.695,0.684,-0.076,13.86,37.97,-6.47,4,1
18755.578,0.7,0.713,-0.09,35.52,43.28,-5.13,4,1
18755.593,0.712,0.767,-0.128,53.29,45.53,-7.57,4,1
18755.609,0.714,0.839,-0.155,56.25,43.4,-12.36,4,1
18755.609,0.736,0.906,-0.147,46.91,39.25,-17.76,4,1
18755.625,0.754,0.922,-0.138,34.03,34.88,-22.89,4,1
18755.64,0.772,0.905,-0.124,21.42,31.16,-23.9,4,1
18755.64,0.794,0.901,-0.109,14.01,28.66,-22.95,4,1
18755.656,0.804,0.878,-0.097,15.05,27.71,-20.11,4,1
18755.656,0.811,0.851,-0.094,21.73,26.95,-16.02,4,1
18755.671,0.827,0.851,-0.114,28.32,26.28,-14.44,4,1
18755.687,0.829,0.88,-0.155,30.12,27.04,-13.31,4,1
18755.687,0.789,0.91,-0.158,25.73,27.95,-9.4,4,1
18755.703,0.762,0.92,-0.133,20.54,26.03,-3.27,4,1
18755.718,0.751,0.911,-0.136,15.63,22.13,3.85,4,1
18755.718,0.741,0.892,-0.165,9.4,17.98,10.41,4,1
18755.734,0.741,0.867,-0.179,2.9,14.62,15.81,4,1
18755.734,0.729,0.833,-0.19,-1.19,12.94,20.29,4,1
18755.75,0.73,0.803,-0.209,-4.0,11.87,24.75,4,1
18755.765,0.746,0.778,-0.231,-5.52,12.24,27.77,4,1
18755.765,0.76,0.753,-0.237,-4.94,15.14,29.88,4,1
18755.781,0.761,0.737,-0.227,-2.62,19.56,32.07,4,1
18755.796,0.759,0.72,-0.224,0.4,24.05,34.39,4,1
18755.796,0.778,0.724,-0.223,1.43,27.92,36.35,4,1
18755.812,0.774,0.726,-0.198,-0.52,32.07,36.99,4,1
18755.828,0.798,0.731,-0.168,-3.02,37.42,32.9,4,1
18755.828,0.813,0.744,-0.119,-0.76,41.84,29.08,4,1
18755.843,0.803,0.745,-0.063,-0.85,44.07,23.01,4,1
18755.859,0.812,0.772,-0.005,-1.8,46.02,11.81,4,1
18755.859,0.781,0.786,0.122,-1.92,46.57,-0.98,4,1
18755.875,0.752,0.775,0.189,-0.15,43.61,-13.4,4,1
18755.875,0.736,0.778,0.236,7.08,37.66,-23.62,4,1
18755.89,0.715,0.799,0.261,16.02,30.46,-30.09,4,1
18755.906,0.695,0.814,0.266,23.93,21.52,-36.29,4,1
18755.906,0.682,0.823,0.25,31.13,11.99,-42.39,4,1
18755.921,0.68,0.824,0.203,35.52,1.92,-48.07,4,1
18755.937,0.7,0.852,0.136,35.74,-7.23,-54.29,4,1
18755.937,0.763,0.862,0.085,34.18,-12.76,-57.28,4,1
18755.953,0.833,0.884,0.081,34.36,-13.15,-58.53,4,1
18755.968,0.852,0.902,0.081,37.42,-9.09,-59.11,4,1
18755.968,0.866,0.921,0.067,40.1,-5.25,-57.74,4,1
18755.984,0.865,0.942,0.084,39.8,-0.7,-54.99,4,1
18756.0,0.855,0.938,0.134,38.7,2.47,-52.95,4,1
18756.0,0.801,0.889,0.176,44.07,2.87,-51.76,4,1
18756.015,0.829,0.85,0.206,56.03,-1.86,-45.08,4,1
18756.015,0.858,0.866,0.196,76.82,-6.47,-41.23,4,1
18756.031,0.863,0.88,0.15,100.77,-11.05,-40.77,4,1
18756.046,0.822,0.961,0.067,119.54,-15.75,-40.93,4,1
18756.046,0.795,1.06,0.01,123.81,-22.31,-41.17,4,1
18756.062,0.796,1.127,-0.043,118.5,-31.56,-44.77,4,1
18756.078,0.84,1.199,-0.114,105.38,-39.8,-47.46,4,1
18756.078,0.875,1.282,-0.12,81.21,-44.71,-53.96,4,1
18756.093,0.844,1.25,-0.117,64.27,-47.12,-61.86,4,1
18756.093,0.815,1.23,-0.132,59.97,-48.62,-63.97,4,1
18756.109,0.765,1.262,-0.178,64.21,-48.92,-62.9,4,1
18756.125,0.718,1.271,-0.211,68.33,-49.32,-60.06,4,1
18756.125,0.699,1.252,-0.234,70.07,-49.71,-56.61,4,1
18756.14,0.67,1.221,-0.264,70.28,-47.7,-52.61,4,1
18756.156,0.632,1.203,-0.295,68.42,-44.07,-47.82,4,1
18756.156,0.58,1.188,-0.293,61.46,-39.03,-41.96,4,1
18756.171,0.522,1.15,-0.254,51.03,-34.15,-35.52,4,1
18756.187,0.495,1.087,-0.224,42.76,-29.42,-28.38,4,1
18756.203,0.472,1.049,-0.205,36.23,-23.56,-18.31,4,1
18756.203,0.417,1.01,-0.177,29.33,-17.52,-7.42,4,1
18756.203,0.371,0.944,-0.155,21.21,-14.25,3.54,4,1
18756.218,0.327,0.868,-0.147,10.71,-13.95,14.47,4,1
18756.234,0.282,0.784,-0.15,1.43,-15.99,23.99,4,1
18756.234,0.266,0.709,-0.163,-4.64,-19.41,31.16,4,1
18756.25,0.261,0.654,-0.212,-8.7,-23.22,34.0,4,1
18756.265,0.243,0.631,-0.281,-14.5,-25.7,34.06,4,1
18756.265,0.251,0.603,-0.313,-23.59,-27.22,32.47,4,1
18756.281,0.274,0.579,-0.332,-30.3,-26.89,29.57,4,1
18756.296,0.302,0.563,-0.341,-30.82,-24.32,27.62,4,1
18756.296,0.335,0.575,-0.36,-28.35,-20.33,26.22,4,1
18756.312,0.354,0.613,-0.364,-28.2,-15.69,23.56,4,1
18756.328,0.343,0.649,-0.331,-30.55,-12.67,19.87,4,1
18756.328,0.345,0.672,-0.292,-31.19,-13.12,16.97,4,1
18756.343,0.356,0.704,-0.282,-29.73,-16.88,14.74,4,1
18756.343,0.384,0.727,-0.279,-28.35,-22.16,12.15,4,1
18756.359,0.416,0.737,-0.271,-25.54,-27.25,10.01,4,1
18756.375,0.435,0.739,-0.272,-19.96,-30.88,9.28,4,1
18756.375,0.457,0.75,-0.281,-13.58,-32.99,10.35,4,1
18756.39,0.467,0.773,-0.278,-9.55,-33.57,12.7,4,1
18756.406,0.47,0.778,-0.272,-9.16,-34.27,16.6,4,1
18756.406,0.472,0.782,-0.276,-13.73,-35.13,21.3,4,1
18756.421,0.484,0.791,-0.238,-19.84,-36.01,26.8,4,1
18756.437,0.48,0.778,-0.218,-21.97,-37.11,32.75,4,1
18756.437,0.475,0.764,-0.233,-23.87,-38.15,39.19,4,1
18756.453,0.481,0.759,-0.24,-28.08,-38.61,45.99,4,1
18756.453,0.477,0.74,-0.243,-33.11,-38.42,51.33,4,1
18756.468,0.462,0.709,-0.241,-40.1,-38.39,54.99,4,1
18756.484,0.438,0.667,-0.228,-45.41,-38.88,57.8,4,1
18756.484,0.409,0.625,-0.191,-44.16,-40.19,61.22,4,1
18756.5,0.349,0.566,-0.132,-33.33,-43.46,66.16,4,1
18756.515,0.318,0.547,-0.12,-11.75,-49.38,75.38,4,1
18756.531,0.359,0.628,-0.198,2.53,-57.04,83.62,4,1
18756.531,0.4,0.633,-0.29,-4.0,-64.64,81.7,4,1
18756.546,0.416,0.575,-0.353,-24.17,-68.7,79.07,4,1
18756.546,0.482,0.54,-0.364,-40.44,-69.31,78.22,4,1
18756.562,0.516,0.506,-0.394,-44.8,-64.7,74.98,4,1
18756.578,0.521,0.495,-0.439,-48.31,-58.32,70.04,4,1
18756.578,0.52,0.475,-0.428,-53.99,-51.64,64.36,4,1
18756.593,0.503,0.458,-0.394,-54.93,-45.59,57.22,4,1
18756.609,0.498,0.462,-0.388,-50.29,-42.54,48.4,4,1
18756.609,0.488,0.472,-0.383,-43.52,-41.2,38.82,4,1
18756.625,0.477,0.485,-0.386,-35.25,-40.74,28.84,4,1
18756.625,0.485,0.516,-0.422,-28.69,-41.44,18.86,4,1
18756.64,0.506,0.535,-0.452,-26.67,-41.63,8.45,4,1
18756.656,0.526,0.533,-0.476,-26.06,-40.16,-1.1,4,1
18756.656,0.54,0.519,-0.486,-21.67,-36.23,-8.58,4,1
18756.671,0.551,0.522,-0.504,-14.47,-29.76,-13.92,4,1
18756.687,0.553,0.543,-0.521,-8.21,-22.64,-18.28,4,1
18756.687,0.544,0.564,-0.541,-5.04,-15.38,-21.79,4,1
18756.703,0.533,0.581,-0.538,-4.94,-8.33,-23.8,4,1
18756.703,0.523,0.603,-0.518,-3.91,-1.4,-23.56,4,1
18756.718,0.51,0.624,-0.5,-1.1,4.15,-21.67,4,1
18756.734,0.503,0.63,-0.483,2.17,8.27,-18.95,4,1
18756.734,0.505,0.643,-0.465,5.22,11.05,-15.56,4,1
18756.75,0.526,0.666,-0.469,6.56,13.03,-12.79,4,1
18756.765,0.561,0.687,-0.468,5.22,15.05,-12.18,4,1
18756.765,0.585,0.715,-0.442,3.3,18.01,-14.34,4,1
18756.781,0.584,0.751,-0.39,3.2,20.78,-18.74,4,1
18756.796,0.576,0.785,-0.339,8.0,22.28,-23.04,4,1
18756.796,0.561,0.814,-0.309,19.99,21.0,-27.19,4,1
18756.812,0.549,0.848,-0.29,19.68,18.25,-27.44,4,1
18756.828,0.546,0.862,-0.267,21.27,16.24,-24.66,4,1
18756.828,0.544,0.854,-0.232,25.18,15.32,-18.46,4,1
18756.843,0.535,0.883,-0.203,23.59,12.85,-10.53,4,1
18756.843,0.536,0.875,-0.195,15.9,10.04,-0.67,4,1
18756.859,0.53,0.854,-0.171,7.45,8.0,10.41,4,1
18756.875,0.518,0.838,-0.141,0.46,5.77,22.86,4,1
18756.875,0.521,0.811,-0.12,-6.74,2.17,35.43,4,1
18756.89,0.538,0.773,-0.107,-14.77,-2.44,46.3,4,1
18756.906,0.542,0.721,-0.077,-19.35,-6.56,54.48,4,1
18756.906,0.544,0.683,-0.067,-17.52,-11.05,60.61,4,1
18756.921,0.548,0.657,-0.1,-15.35,-16.27,63.54,4,1
18756.937,0.555,0.626,-0.118,-16.48,-21.36,62.75,4,1
18756.937,0.562,0.594,-0.132,-16.48,-26.06,59.21,4,1
18756.953,0.581,0.566,-0.17,-12.67,-29.21,54.26,4,1
