timestamp,ax,ay,az,gx,gy,gz,orient_label,motion_label
17433.046,0.313,0.202,0.895,15.59,-10.16,25.73,2,4
17433.046,0.318,0.206,0.887,20.14,-6.74,33.14,2,4
17433.062,0.323,0.204,0.877,24.63,-1.98,41.93,2,4
17433.062,0.328,0.205,0.866,27.89,3.2,50.6,2,4
17433.078,0.34,0.188,0.869,30.27,8.97,57.16,2,4
17433.093,0.333,0.176,0.884,32.56,15.41,60.52,2,4
17433.093,0.327,0.173,0.907,34.18,19.87,57.65,2,4
17433.109,0.306,0.185,0.927,31.59,20.42,48.8,2,4
17433.125,0.276,0.174,0.954,23.8,17.15,39.46,2,4
17433.125,0.267,0.148,0.991,15.44,11.05,30.49,2,4
17433.14,0.261,0.118,1.015,10.9,4.03,20.78,2,4
17433.14,0.257,0.123,1.016,8.73,-3.69,10.5,2,4
17433.156,0.248,0.12,0.999,6.53,-10.68,2.75,2,4
17433.171,0.264,0.148,0.98,0.79,-19.75,-11.35,2,4
17433.171,0.295,0.164,0.956,-2.38,-21.97,-19.2,2,4
17433.187,0.307,0.179,0.937,-5.43,-23.74,-26.22,2,4
17433.203,0.283,0.204,0.906,-8.64,-25.09,-30.73,2,4
17433.203,0.276,0.205,0.903,-11.51,-25.7,-31.62,2,4
17433.218,0.275,0.203,0.909,-12.33,-24.72,-29.05,2,4
17433.234,0.285,0.204,0.916,-10.28,-21.76,-22.4,2,4
17433.234,0.3,0.198,0.923,-5.01,-17.37,-14.98,2,4
17433.25,0.301,0.219,0.925,1.25,-13.09,-10.59,2,4
17433.265,0.287,0.237,0.928,2.78,-10.74,-7.75,2,4
17433.265,0.287,0.239,0.943,0.4,-10.44,-5.46,2,4
17433.281,0.296,0.239,0.96,-1.71,-11.9,-4.73,2,4
17433.281,0.299,0.233,0.968,-3.02,-14.98,-5.55,2,4
17433.296,0.297,0.23,0.951,-4.15,-18.83,-6.16,2,4
17433.312,0.303,0.236,0.929,-5.58,-21.7,-5.07,2,4
17433.328,0.324,0.218,0.905,-6.2,-22.13,-1.71,2,4
17433.328,0.349,0.204,0.888,-3.97,-19.99,2.41,2,4
17433.343,0.363,0.203,0.868,0.58,-16.05,6.29,2,4
17433.343,0.362,0.209,0.846,4.09,-10.65,10.04,2,4
17433.359,0.366,0.218,0.839,4.85,-4.03,13.03,2,4
17433.375,0.366,0.217,0.846,4.82,2.99,15.56,2,4
17433.375,0.357,0.21,0.871,5.04,8.94,17.46,2,4
17433.39,0.347,0.206,0.901,5.43,13.03,19.04,2,4
17433.39,0.345,0.212,0.924,6.2,14.65,20.17,2,4
17433.406,0.343,0.203,0.943,6.13,14.13,20.05,2,4
17433.421,0.335,0.202,0.949,5.25,11.69,17.7,2,4
17433.437,0.323,0.206,0.945,3.45,8.36,14.07,2,4
17433.437,0.32,0.207,0.937,0.58,4.64,9.74,2,4
17433.453,0.319,0.204,0.925,-2.08,1.25,5.52,2,4
17433.453,0.32,0.203,0.912,-3.97,-1.07,2.81,2,4
17433.468,0.333,0.202,0.901,-4.55,-1.59,2.14,2,4
17433.484,0.343,0.195,0.894,-4.46,-0.31,2.01,2,4
17433.484,0.344,0.197,0.886,-4.12,1.59,1.68,2,4
17433.5,0.348,0.207,0.883,-4.0,3.75,1.68,2,4
17433.515,0.355,0.217,0.888,-5.16,5.8,1.83,2,4
17433.515,0.353,0.222,0.895,-6.26,7.26,2.29,2,4
17433.531,0.349,0.236,0.9,-6.53,8.09,3.48,2,4
17433.531,0.338,0.251,0.901,-6.5,8.42,5.55,2,4
17433.562,0.331,0.265,0.888,-7.17,9.16,13.98,2,4
17433.578,0.333,0.269,0.882,-6.16,10.65,20.69,2,4
17433.578,0.333,0.277,0.87,-3.57,12.63,27.38,2,4
17433.593,0.331,0.3,0.865,-1.59,14.8,34.91,2,4
17433.593,0.324,0.328,0.859,-1.16,16.88,43.46,2,4
17433.609,0.321,0.353,0.86,-2.14,19.14,54.02,2,4
17433.625,0.304,0.382,0.875,-2.53,21.82,67.14,2,4
17433.625,0.28,0.409,0.889,-1.56,23.87,83.47,2,4
17433.64,0.255,0.437,0.901,1.04,25.51,103.31,2,4
17433.656,0.232,0.447,0.907,5.58,27.28,126.74,2,4
17433.656,0.212,0.434,0.917,11.9,29.27,151.01,2,4
17433.671,0.18,0.395,0.919,19.35,30.76,173.1,2,4
17433.671,0.163,0.355,0.92,25.91,31.22,192.24,2,4
17433.687,0.169,0.286,0.917,31.83,30.52,207.43,2,4
17433.703,0.172,0.19,0.908,38.03,28.57,216.65,2,4
17433.703,0.164,0.127,0.895,43.03,25.82,219.76,2,4
17433.734,0.201,0.069,0.864,43.09,16.82,211.58,2,4
17433.734,0.203,0.079,0.846,34.97,11.11,199.38,2,4
17433.75,0.196,0.093,0.82,21.27,3.54,182.9,2,4
17433.765,0.194,0.104,0.784,3.36,-5.92,164.07,2,4
17433.765,0.182,0.113,0.742,-16.14,-16.39,144.32,2,4
17433.781,0.182,0.119,0.697,-34.33,-26.8,125.95,2,4
17433.781,0.23,0.117,0.662,-50.11,-34.94,113.07,2,4
17433.796,0.261,0.094,0.641,-61.83,-37.66,108.92,2,4
17433.812,0.268,0.068,0.629,-66.16,-36.81,110.63,2,4
17433.812,0.278,0.061,0.607,-64.0,-34.79,115.05,2,4
17433.828,0.258,0.042,0.577,-56.92,-31.13,120.33,2,4
17433.843,0.227,0.042,0.561,-49.78,-27.47,123.97,2,4
17433.843,0.198,0.059,0.554,-46.11,-26.4,125.28,2,4
17433.859,0.205,0.055,0.545,-47.79,-28.41,123.45,2,4
17433.875,0.235,0.028,0.538,-52.8,-31.25,119.36,2,4
17433.875,0.252,0.018,0.515,-59.57,-34.06,115.94,2,4
17433.89,0.236,0.042,0.495,-68.24,-36.74,113.07,2,4
17433.906,0.192,0.065,0.47,-78.37,-40.86,112.03,2,4
17433.906,0.141,0.057,0.445,-88.9,-46.91,115.7,2,4
17433.921,0.099,0.053,0.426,-97.42,-54.99,124.97,2,4
17433.921,0.07,0.04,0.412,-100.41,-63.33,137.85,2,4
17433.937,0.111,-0.027,0.412,-96.32,-68.45,152.32,2,4
17433.953,0.162,-0.123,0.408,-83.41,-67.84,162.79,2,4
17433.953,0.197,-0.169,0.389,-65.43,-62.47,163.82,2,4
17433.968,0.259,-0.19,0.37,-50.39,-55.15,156.68,2,4
17433.984,0.283,-0.217,0.334,-41.54,-47.76,145.88,2,4
17433.984,0.243,-0.253,0.297,-39.74,-41.9,135.84,2,4
17434.0,0.212,-0.263,0.285,-43.18,-37.84,127.81,2,4
17434.015,0.282,-0.275,0.287,-49.81,-34.21,124.45,2,4
17434.015,0.402,-0.242,0.294,-59.69,-28.5,122.71,2,4
17434.031,0.414,-0.162,0.276,-71.41,-19.35,119.54,2,4
17434.046,0.328,-0.138,0.242,-84.81,-9.52,117.95,2,4
17434.062,0.176,-0.231,0.309,-103.76,8.64,128.73,2,4
17434.062,0.189,-0.334,0.382,-97.45,18.19,142.89,2,4
17434.078,0.226,-0.429,0.428,-78.25,31.28,159.49,2,4
17434.093,0.235,-0.436,0.448,-50.57,50.23,174.26,2,4
17434.093,0.222,-0.413,0.447,-19.41,72.15,186.32,2,4
17434.109,0.195,-0.398,0.428,10.16,94.15,196.08,2,4
17434.125,0.147,-0.365,0.421,34.52,114.99,204.44,2,4
17434.125,0.104,-0.321,0.432,52.37,132.88,213.81,2,4
17434.14,0.045,-0.276,0.451,64.21,147.31,223.52,2,4
17434.156,-0.042,-0.256,0.468,76.94,169.71,242.93,2,4
17434.156,-0.079,-0.281,0.513,83.83,178.78,250.04,2,4
17434.171,-0.077,-0.293,0.567,96.26,186.38,253.09,2,4
17434.187,-0.085,-0.272,0.594,111.76,192.97,252.54,2,4
17434.187,-0.172,-0.203,0.619,127.63,199.19,251.41,2,4
17434.203,-0.253,-0.17,0.647,143.65,204.54,252.88,2,4
17434.203,-0.347,-0.164,0.684,163.61,208.84,259.44,2,4
17434.218,-0.432,-0.156,0.718,190.1,212.13,268.11,2,4
17434.234,-0.455,-0.066,0.736,221.08,213.6,276.19,2,4
17434.234,-0.448,0.044,0.713,254.16,212.99,281.75,2,4
17434.25,-0.492,0.107,0.661,287.97,211.89,281.23,2,4
17434.265,-0.551,0.195,0.625,318.67,213.08,274.39,2,4
17434.265,-0.566,0.319,0.603,342.42,215.92,265.11,2,4
17434.281,-0.622,0.44,0.568,357.55,217.17,250.5,2,4
17434.281,-0.631,0.565,0.609,362.71,218.02,233.95,2,4
17434.296,-0.724,0.74,0.518,363.81,208.41,213.51,2,4
17434.312,-0.739,0.784,0.454,351.97,207.28,219.18,2,4
17434.312,-0.63,0.955,0.444,335.7,172.37,214.42,2,4
17434.328,-0.61,0.962,0.308,352.0,152.84,209.85,2,4
17434.343,-0.607,0.944,0.057,367.44,132.57,209.11,2,4
17434.343,-0.561,1.028,0.133,362.29,113.71,178.08,2,4
17434.359,-0.579,1.079,0.125,362.41,109.5,155.28,2,4
17434.375,-0.647,1.31,0.009,353.62,103.31,133.37,2,4
17434.39,-0.676,1.609,-0.008,310.13,98.76,97.6,2,4
17434.406,-0.717,1.749,-0.038,287.45,94.12,95.55,2,4
17434.406,-0.748,1.695,-0.032,269.57,85.39,104.43,2,4
17434.421,-0.826,1.585,0.027,266.43,71.35,111.06,2,4
17434.437,-0.875,1.536,0.105,285.78,49.9,124.12,2,4
17434.437,-0.653,1.643,0.069,312.14,23.26,124.79,2,4
17434.453,-0.606,1.624,0.127,317.39,12.39,96.1,2,4
17434.468,-0.834,1.337,0.268,310.71,1.28,77.21,2,4
17434.468,-0.887,1.403,0.105,289.1,-27.8,75.14,2,4
17434.484,-0.804,1.732,-0.007,243.87,-45.38,71.32,2,4
17434.484,-0.794,1.553,0.068,197.73,-42.18,67.78,2,4
17434.5,-0.849,1.398,0.151,170.75,-33.97,55.7,2,4
17434.515,-0.847,1.482,0.102,156.38,-35.65,44.43,2,4
17434.515,-0.826,1.582,0.06,136.3,-45.59,30.3,2,4
17434.531,-0.817,1.581,0.062,114.54,-54.99,19.56,2,4
17434.531,-0.821,1.588,0.033,98.39,-63.78,12.39,2,4
17434.546,-0.781,1.59,-0.001,82.8,-72.82,13.98,2,4
17434.562,-0.762,1.551,-0.0,69.37,-82.06,18.98,2,4
17434.578,-0.741,1.507,-0.029,58.72,-91.1,25.39,2,4
17434.578,-0.724,1.47,-0.08,43.73,-98.91,28.11,2,4
17434.593,-0.698,1.403,-0.109,23.04,-100.83,25.79,2,4
17434.593,-0.663,1.372,-0.095,-2.23,-95.28,15.32,2,4
17434.609,-0.654,1.399,-0.064,-29.33,-84.72,0.09,2,4
17434.625,-0.696,1.425,-0.012,-50.6,-74.47,-12.63,2,4
17434.625,-0.742,1.414,0.042,-66.19,-70.8,-15.2,2,4
17434.64,-0.755,1.361,0.107,-78.43,-75.93,-7.75,2,4
17434.656,-0.718,1.259,0.184,-82.34,-86.21,3.11,2,4
17434.656,-0.661,1.17,0.221,-77.12,-98.27,10.93,2,4
17434.671,-0.628,1.103,0.204,-67.93,-106.88,16.51,2,4
17434.671,-0.586,1.047,0.18,-57.65,-110.11,20.84,2,4
17434.687,-0.558,1.02,0.147,-47.7,-105.9,24.81,2,4
17434.703,-0.526,1.021,0.12,-39.89,-94.09,31.4,2,4
17434.703,-0.487,1.022,0.125,-35.46,-76.91,37.9,2,4
17434.718,-0.468,1.041,0.165,-35.46,-59.27,40.99,2,4
17434.734,-0.486,1.076,0.215,-39.86,-46.14,42.54,2,4
17434.734,-0.531,1.115,0.249,-50.81,-42.3,46.36,2,4
17434.75,-0.543,1.123,0.296,-68.27,-49.29,52.58,2,4
17434.765,-0.508,1.073,0.348,-86.46,-64.3,55.94,2,4
17434.765,-0.454,1.012,0.384,-101.47,-81.0,52.34,2,4
17434.781,-0.412,1.009,0.42,-112.03,-93.39,42.63,2,4
17434.781,-0.377,0.982,0.433,-115.79,-101.29,33.63,2,4
17434.796,-0.347,0.967,0.469,-112.8,-105.47,26.95,2,4
17434.812,-0.34,0.961,0.492,-101.96,-107.58,23.16,2,4
17434.812,-0.317,0.963,0.48,-85.97,-109.5,21.49,2,4
17434.828,-0.307,0.924,0.464,-68.09,-109.01,20.48,2,4
17434.843,-0.301,0.901,0.429,-47.85,-110.14,20.33,2,4
17434.843,-0.281,0.913,0.389,-27.13,-109.71,20.17,2,4
17434.859,-0.288,0.915,0.346,-9.61,-107.76,20.81,2,4
17434.875,-0.274,0.919,0.302,4.61,-104.25,22.95,2,4
17434.89,-0.283,0.918,0.212,23.5,-92.1,21.45,2,4
17434.906,-0.296,0.904,0.179,26.98,-86.25,18.98,2,4
17434.906,-0.304,0.884,0.155,28.81,-83.04,18.22,2,4
17434.921,-0.286,0.873,0.124,30.61,-81.3,18.83,2,4
17434.921,-0.275,0.89,0.11,30.49,-80.39,17.43,2,4
17434.937,-0.261,0.887,0.108,28.57,-79.71,14.83,2,4
17434.953,-0.25,0.894,0.101,27.13,-77.91,11.11,2,4
17434.953,-0.239,0.906,0.097,26.61,-75.11,6.07,2,4
17434.968,-0.217,0.915,0.097,26.98,-71.41,1.25,2,4
17434.984,-0.194,0.946,0.112,26.31,-66.38,-3.08,2,4
17434.984,-0.181,0.976,0.122,26.25,-60.98,-6.74,2,4
17435.0,-0.165,1.007,0.132,25.3,-56.09,-9.74,2,4
17435.015,-0.173,1.056,0.14,21.33,-51.85,-12.33,2,4
17435.015,-0.175,1.101,0.141,12.67,-49.23,-13.98,2,4
17435.031,-0.146,1.124,0.153,1.22,-46.88,-14.07,2,4
17435.046,-0.106,1.145,0.161,-10.04,-43.89,-13.92,2,4
17435.046,-0.059,1.175,0.175,-18.34,-41.38,-14.13,2,4
17435.062,-0.034,1.197,0.217,-22.49,-38.12,-15.38,2,4
17435.062,-0.026,1.222,0.271,-23.62,-33.75,-14.95,2,4
17435.078,-0.026,1.239,0.309,-21.73,-30.55,-11.14,2,4
17435.093,-0.036,1.231,0.324,-18.13,-30.37,-3.94,2,4
17435.093,-0.028,1.222,0.311,-16.72,-32.44,5.43,2,4
17435.109,0.002,1.201,0.268,-18.49,-33.75,14.68,2,4
17435.125,0.031,1.181,0.25,-25.88,-34.06,20.23,2,4
17435.125,0.013,1.138,0.247,-34.94,-34.91,23.77,2,4
17435.14,0.044,1.054,0.223,-45.41,-32.9,30.7,2,4
17435.156,0.054,1.022,0.183,-51.48,-29.05,29.21,2,4
17435.156,0.081,0.967,0.143,-62.07,-23.65,21.82,2,4
17435.171,0.097,0.843,0.06,-76.54,-16.21,12.45,2,4
17435.171,0.085,0.812,0.089,-89.66,-5.07,4.0,2,4
17435.187,0.04,0.786,0.117,-96.32,7.02,-2.41,2,4
17435.203,0.008,0.76,0.12,-99.73,17.76,-6.1,2,4
17435.218,-0.027,0.735,0.159,-101.32,27.83,-8.64,2,4
17435.218,-0.055,0.702,0.174,-98.39,34.91,-12.12,2,4
17435.234,-0.085,0.68,0.191,-95.03,39.19,-17.3,2,4
17435.234,-0.127,0.683,0.238,-91.4,42.21,-23.83,2,4
17435.25,-0.232,0.715,0.324,-83.68,41.69,-28.32,2,4
17435.265,-0.294,0.678,0.288,-69.31,40.96,-24.6,2,4
17435.265,-0.306,0.73,0.334,-66.5,38.42,-21.0,2,4
17435.281,-0.379,0.779,0.461,-65.92,26.83,-19.35,2,4
17435.296,-0.435,0.812,0.386,-65.16,17.61,-9.7,2,4
17435.296,-0.422,0.814,0.39,-75.14,3.33,-2.87,2,4
17435.312,-0.42,0.835,0.409,-78.52,-2.99,10.99,2,4
17435.312,-0.395,0.77,0.377,-71.5,-6.23,21.79,2,4
17435.328,-0.402,0.726,0.39,-66.29,-8.09,24.99,2,4
17435.343,-0.395,0.685,0.411,-58.72,-10.13,23.44,2,4
17435.343,-0.402,0.64,0.429,-43.18,-11.93,18.89,2,4
17435.359,-0.397,0.629,0.435,-22.13,-10.93,14.22,2,4
17435.375,-0.37,0.721,0.443,-4.43,-1.4,10.38,2,4
17435.375,-0.343,0.78,0.421,9.22,13.31,7.87,2,4
17435.39,-0.35,0.776,0.392,12.21,27.68,3.2,2,4
17435.406,-0.338,0.759,0.414,5.68,38.91,-0.95,2,4
17435.406,-0.39,0.631,0.426,12.51,51.67,-5.37,2,4
17435.421,-0.435,0.67,0.522,5.49,49.29,-14.95,2,4
17435.421,-0.349,0.749,0.554,7.48,43.58,-18.65,2,4
17435.437,-0.398,0.752,0.553,16.91,38.97,-20.51,2,4
17435.453,-0.458,0.688,0.579,25.82,32.69,-22.49,2,4
17435.453,-0.413,0.707,0.61,37.51,21.58,-18.65,2,4
17435.468,-0.367,0.732,0.602,51.82,10.53,-14.86,2,4
17435.484,-0.344,0.725,0.566,63.42,1.65,-16.14,2,4
17435.484,-0.309,0.771,0.522,63.45,-5.43,-17.98,2,4
17435.5,-0.294,0.848,0.458,53.47,-6.78,-19.75,2,4
17435.515,-0.297,0.943,0.449,32.26,-4.79,-19.56,2,4
17435.515,-0.292,0.968,0.462,5.77,0.34,-16.39,2,4
17435.531,-0.326,0.925,0.465,-16.21,5.19,-12.05,2,4
17435.531,-0.357,0.872,0.512,-29.24,5.62,-6.62,2,4
17435.562,-0.48,0.845,0.72,-12.42,-16.51,7.05,2,4
17435.562,-0.391,0.828,0.622,0.27,-32.59,13.03,2,4
17435.578,-0.296,0.858,0.535,4.82,-33.69,13.89,2,4
17435.593,-0.278,0.794,0.426,10.59,-24.05,10.9,2,4
17435.593,-0.21,0.74,0.369,11.6,-8.03,4.3,2,4
17435.609,-0.185,0.736,0.394,15.56,10.28,-2.56,2,4
17435.625,-0.277,0.73,0.42,26.92,20.75,-10.28,2,4
17435.625,-0.345,0.719,0.449,38.12,20.17,-17.61,2,4
17435.64,-0.323,0.763,0.463,47.55,13.67,-21.0,2,4
17435.656,-0.312,0.826,0.426,53.59,6.56,-22.31,2,4
17435.656,-0.301,0.889,0.383,51.61,4.27,-19.78,2,4
17435.671,-0.299,0.925,0.355,47.06,8.79,-13.52,2,4
17435.671,-0.304,0.931,0.326,43.09,16.82,-5.8,2,4
17435.687,-0.302,0.936,0.313,40.53,25.64,2.41,2,4
17435.703,-0.308,0.914,0.313,39.83,33.63,7.17,2,4
17435.718,-0.367,0.904,0.389,39.52,38.0,8.12,2,4
17435.734,-0.358,0.837,0.521,57.31,11.9,11.63,2,4
17435.734,-0.307,0.941,0.459,49.5,-2.08,8.03,2,4
17435.75,-0.286,0.936,0.443,37.75,-6.71,4.06,2,4
17435.765,-0.299,0.91,0.409,28.78,-8.03,2.62,2,4
17435.765,-0.288,0.944,0.383,21.18,-6.1,4.36,2,4
17435.781,-0.29,0.961,0.372,17.0,-3.2,7.29,2,4
17435.781,-0.296,0.95,0.351,14.31,-0.7,10.38,2,4
17435.796,-0.279,0.921,0.317,10.83,1.04,12.3,2,4
17435.812,-0.285,0.895,0.316,8.67,1.92,11.11,2,4
17435.828,-0.303,0.862,0.33,11.35,0.95,9.34,2,4
17435.828,-0.292,0.862,0.303,16.66,-1.31,8.64,2,4
17435.843,-0.269,0.897,0.274,19.56,-1.04,9.0,2,4
17435.843,-0.258,0.914,0.269,18.92,3.23,8.33,2,4
17435.859,-0.276,0.927,0.326,13.58,8.0,6.81,2,4
17435.875,-0.333,0.949,0.458,7.81,10.13,6.38,2,4
17435.875,-0.427,0.923,0.595,6.23,-0.43,9.22,2,4
17435.89,-0.291,0.983,0.468,-11.23,-23.9,8.55,2,4
17435.906,-0.318,0.95,0.463,-20.14,-20.72,2.75,2,4
17435.921,-0.375,0.895,0.486,-16.94,-16.45,1.62,2,4
17435.937,-0.411,0.872,0.469,-4.24,-17.15,4.73,2,4
17435.937,-0.415,0.868,0.425,11.41,-20.08,7.2,2,4
17435.953,-0.418,0.88,0.384,25.42,-20.97,9.22,2,4
17435.953,-0.419,0.911,0.323,35.68,-19.38,11.93,2,4
17435.968,-0.41,0.934,0.293,39.86,-16.24,15.29,2,4
17435.984,-0.398,0.927,0.286,37.69,-12.48,17.79,2,4
17435.984,-0.393,0.91,0.302,30.52,-10.35,17.73,2,4
17436.0,-0.357,0.917,0.329,17.7,-12.33,14.59,2,4
17436.015,-0.319,0.907,0.341,1.04,-14.95,8.33,2,4
17436.015,-0.3,0.832,0.345,-10.47,-15.72,3.75,2,4
17436.031,-0.3,0.781,0.376,-15.26,-16.79,1.1,2,4
17436.031,-0.301,0.768,0.401,-14.95,-19.47,-1.04,2,4
17436.046,-0.267,0.777,0.397,-10.86,-21.21,-2.38,2,4
17436.062,-0.296,0.798,0.388,6.2,-16.66,-4.91,2,4
17436.078,-0.307,0.826,0.394,18.77,-13.86,-5.25,2,4
17436.093,-0.303,0.848,0.383,31.34,-12.91,-4.7,2,4
17436.093,-0.26,0.872,0.343,39.49,-14.04,-3.91,2,4
17436.109,-0.251,0.91,0.319,42.45,-13.79,-3.6,2,4
17436.125,-0.25,0.936,0.294,34.42,-15.78,-2.2,2,4
17436.125,-0.254,0.931,0.289,28.93,-18.65,-0.98,2,4
17436.14,-0.246,0.935,0.295,24.72,-22.61,0.46,2,4
17436.14,-0.238,0.946,0.284,18.4,-26.34,1.5,2,4
17436.156,-0.189,0.926,0.243,12.67,-28.08,2.84,2,4
17436.171,-0.187,0.923,0.226,8.61,-28.84,5.49,2,4
17436.171,-0.064,0.891,0.216,5.98,-30.46,10.19,2,4
17436.187,-0.106,0.855,0.204,0.95,-29.94,3.48,2,4
17436.203,-0.106,0.806,0.222,-4.24,-31.4,-0.89,2,4
17436.203,-0.06,0.833,0.244,-3.54,-33.39,-0.76,2,4
17436.218,-0.058,0.859,0.236,1.37,-33.51,-3.11,2,4
17436.234,-0.028,0.895,0.251,2.84,-31.8,-9.89,2,4
17436.25,-0.032,0.885,0.238,3.23,-29.11,-12.94,2,4
17436.265,-0.042,0.902,0.23,2.75,-26.03,-14.83,2,4
17436.265,-0.052,0.922,0.228,3.91,-22.95,-14.83,2,4
17436.281,-0.06,0.93,0.224,6.44,-19.87,-12.51,2,4
17436.281,-0.079,0.966,0.22,8.27,-16.11,-9.37,2,4
17436.296,-0.055,0.987,0.248,13.37,-12.76,-2.75,2,4
17436.312,-0.099,0.903,0.198,11.17,-12.39,-2.14,2,4
17436.328,-0.106,0.928,0.218,-1.59,-13.31,-5.71,2,4
17436.328,-0.078,0.952,0.228,-3.72,-13.12,-0.98,2,4
17436.343,-0.098,0.948,0.219,-0.21,-11.6,6.01,2,4
17436.343,-0.099,0.923,0.223,-2.78,-11.72,9.0,2,4
17436.359,-0.094,0.927,0.219,-7.35,-11.84,8.51,2,4
17436.375,-0.095,0.92,0.203,-7.84,-9.43,9.13,2,4
17436.39,-0.107,0.909,0.203,-6.16,-6.1,8.79,2,4
17436.39,-0.124,0.887,0.211,-3.51,-2.84,6.81,2,4
17436.406,-0.146,0.887,0.224,6.87,1.83,2.44,2,4
17436.421,-0.153,0.914,0.227,11.02,3.2,2.17,2,4
17436.421,-0.166,0.928,0.226,12.18,3.66,1.74,2,4
17436.437,-0.17,0.931,0.235,10.04,3.3,1.89,2,4
17436.453,-0.181,0.941,0.245,7.23,2.08,2.14,2,4
17436.453,-0.183,0.952,0.237,4.94,0.4,2.99,2,4
17436.468,-0.176,0.958,0.23,1.65,-0.89,4.33,2,4
17436.484,-0.173,0.962,0.232,-2.04,-1.77,5.34,2,4
17436.484,-0.168,0.971,0.236,-5.95,-1.98,5.25,2,4
17436.5,-0.166,0.971,0.237,-9.67,-1.07,4.94,2,4
17436.515,-0.168,0.955,0.245,-12.54,0.49,4.55,2,4
17436.515,-0.175,0.939,0.254,-13.25,2.56,3.78,2,4
17436.531,-0.183,0.928,0.266,-11.35,4.49,3.36,2,4
17436.531,-0.188,0.911,0.284,-7.63,5.46,3.33,2,4
17436.546,-0.195,0.91,0.293,-3.85,5.4,2.78,2,4
17436.562,-0.194,0.923,0.283,-0.61,4.67,1.98,2,4
17436.578,-0.183,0.924,0.27,2.14,2.93,3.39,2,4
17436.593,-0.177,0.928,0.262,1.53,1.5,4.0,2,4
17436.593,-0.165,0.922,0.255,-0.31,0.58,4.06,2,4
17436.609,-0.148,0.924,0.25,-2.75,-0.31,3.75,2,4
17436.609,-0.135,0.927,0.253,-4.33,-0.85,2.75,2,4
17436.625,-0.123,0.911,0.244,-3.6,-0.82,1.95,2,4
17436.64,-0.114,0.904,0.242,-1.59,-0.85,0.82,2,4
17436.64,-0.101,0.9,0.24,2.17,-0.98,-0.31,2,4
17436.656,-0.087,0.904,0.231,6.01,-0.85,-1.28,2,4
17436.671,-0.068,0.897,0.219,8.61,-0.58,-1.83,2,4
17436.671,-0.056,0.888,0.207,10.83,0.37,-1.4,2,4
17436.687,-0.049,0.897,0.195,12.57,2.47,-0.64,2,4
17436.703,-0.044,0.918,0.188,12.54,5.8,0.27,2,4
17436.703,-0.051,0.946,0.202,10.38,10.68,0.64,2,4
17436.718,-0.055,0.953,0.198,6.5,15.66,0.79,2,4
17436.734,-0.062,0.951,0.198,0.95,19.26,0.37,2,4
17436.75,-0.092,0.94,0.21,-3.02,24.35,-0.79,2,4
17436.75,-0.094,0.924,0.211,-2.2,25.21,-0.95,2,4
17436.765,-0.095,0.911,0.209,-0.37,25.7,-0.03,2,4
17436.781,-0.091,0.895,0.205,1.07,25.94,1.4,2,4
17436.781,-0.085,0.883,0.204,1.22,26.37,2.96,2,4
17436.796,-0.09,0.883,0.211,0.58,27.44,4.61,2,4
17436.812,-0.12,0.889,0.241,1.19,28.66,5.22,2,4
17436.812,-0.155,0.923,0.257,3.54,29.79,4.46,2,4
17436.828,-0.18,0.955,0.258,4.7,30.0,3.69,2,4
17436.843,-0.198,0.974,0.262,2.47,28.99,3.78,2,4
17436.843,-0.205,0.966,0.251,-3.05,26.83,5.1,2,4
17436.859,-0.2,0.942,0.237,-11.9,24.54,7.2,2,4
17436.875,-0.197,0.923,0.252,-20.57,23.56,8.64,2,4
17436.875,-0.207,0.893,0.282,-24.35,23.47,8.39,2,4
17436.89,-0.226,0.859,0.302,-21.97,22.68,7.35,2,4
17436.89,-0.225,0.837,0.312,-15.29,21.79,5.16,2,4
17436.921,-0.224,0.855,0.279,-3.2,22.8,-0.15,2,4
17436.921,-0.228,0.86,0.282,-2.38,25.06,-2.26,2,4
17436.937,-0.242,0.86,0.301,-2.93,27.38,-4.76,2,4
17436.953,-0.274,0.845,0.324,-2.99,28.23,-6.65,2,4
17436.953,-0.303,0.851,0.332,-1.77,26.7,-8.7,2,4
17436.968,-0.313,0.865,0.318,-0.49,24.02,-10.59,2,4
17436.984,-0.321,0.869,0.322,0.76,20.54,-11.2,2,4
17436.984,-0.337,0.882,0.309,3.45,17.12,-11.69,2,4
17437.0,-0.318,0.895,0.297,4.58,13.58,-12.67,2,4
17437.015,-0.306,0.892,0.289,5.34,12.05,-13.4,2,4
17437.015,-0.289,0.894,0.284,6.35,12.09,-13.09,2,4
17437.031,-0.28,0.908,0.297,5.58,12.91,-12.02,2,4
17437.046,-0.284,0.916,0.309,2.56,13.52,-10.77,2,4
17437.046,-0.282,0.908,0.317,-2.84,12.7,-9.03,2,4
17437.062,-0.287,0.909,0.328,-8.88,11.84,-7.84,2,4
17437.062,-0.299,0.919,0.335,-11.81,11.9,-8.45,2,4
17437.093,-0.3,0.891,0.336,-8.15,12.57,-10.07,2,4
17437.093,-0.301,0.871,0.318,1.37,10.62,-8.3,2,4
17437.109,-0.288,0.865,0.302,3.14,10.19,-7.02,2,4
17437.125,-0.286,0.881,0.301,2.96,10.32,-5.49,2,4
17437.125,-0.284,0.896,0.303,0.43,10.62,-4.91,2,4
17437.14,-0.302,0.912,0.321,-2.26,10.19,-5.89,2,4
17437.156,-0.494,0.973,0.558,-0.06,4.52,-4.3,2,4
17437.156,-0.304,1.025,0.293,11.72,-14.86,12.88,2,4
17437.171,-0.156,1.108,0.239,-9.67,-13.58,15.38,2,4
17437.171,-0.278,0.897,0.294,-16.57,-3.14,3.3,2,4
17437.187,-0.3,0.937,0.319,-18.19,-2.29,2.99,2,4
17437.203,-0.241,0.981,0.316,-16.08,-3.33,6.81,2,4
17437.218,-0.245,0.93,0.302,-12.73,-2.75,3.2,2,4
17437.218,-0.256,0.911,0.294,-11.29,-0.95,0.73,2,4
17437.234,-0.308,0.95,0.399,-7.48,-0.73,0.98,2,4
17437.234,-0.349,0.943,0.328,1.13,-7.57,3.08,2,4
17437.265,-0.237,0.91,0.228,-8.64,-3.36,3.69,2,4
17437.265,-0.277,0.865,0.271,-7.63,2.08,3.72,2,4
17437.281,-0.272,0.851,0.305,-5.65,1.59,4.15,2,4
17437.281,-0.247,0.868,0.314,-3.05,-1.53,2.93,2,4
17437.296,-0.239,0.88,0.305,1.53,-4.24,1.46,2,4
17437.312,-0.242,0.907,0.297,5.37,-5.19,0.24,2,4
17437.312,-0.242,0.94,0.291,6.04,-4.12,-0.21,2,4
17437.328,-0.236,0.946,0.285,4.43,-1.62,-1.1,2,4
17437.343,-0.254,0.924,0.305,2.01,0.49,-1.62,2,4
17437.359,-0.248,0.909,0.3,0.21,1.34,-1.34,2,4
17437.359,-0.242,0.888,0.313,-1.53,3.6,-1.65,2,4
17437.375,-0.261,0.853,0.338,-1.74,5.71,-3.54,2,4
17437.375,-0.268,0.837,0.354,-0.73,6.32,-4.58,2,4
17437.39,-0.268,0.833,0.351,1.95,5.92,-4.73,2,4
17437.406,-0.266,0.826,0.33,4.88,5.52,-5.37,2,4
17437.406,-0.265,0.832,0.319,7.66,4.94,-6.93,2,4
17437.421,-0.272,0.845,0.294,13.18,-0.24,-13.21,2,4
17437.437,-0.28,0.861,0.279,14.89,-3.36,-16.24,2,4
17437.453,-0.272,0.884,0.259,16.02,-7.54,-17.37,2,4
17437.453,-0.265,0.913,0.215,16.39,-11.02,-15.23,2,4
17437.468,-0.254,0.967,0.186,13.92,-10.56,-9.89,2,4
17437.484,-0.25,1.005,0.22,9.4,-5.83,-4.09,2,4
17437.484,-0.25,0.999,0.229,3.23,-1.83,0.89,2,4
17437.5,-0.251,0.981,0.235,-3.85,1.62,4.88,2,4
17437.515,-0.245,0.959,0.264,-7.57,4.67,7.93,2,4
17437.515,-0.243,0.918,0.287,-7.42,6.26,9.49,2,4
17437.531,-0.237,0.886,0.301,-7.02,5.68,9.16,2,4
17437.546,-0.229,0.865,0.304,-5.01,4.3,7.51,2,4
17437.546,-0.22,0.869,0.297,-0.64,3.14,5.4,2,4
17437.562,-0.21,0.876,0.287,4.76,1.95,2.93,2,4
17437.562,-0.215,0.882,0.274,10.01,-0.03,0.06,2,4
17437.578,-0.212,0.903,0.265,14.28,-2.29,-1.56,2,4
17437.593,-0.223,0.941,0.243,16.02,-6.71,-3.14,2,4
17437.609,-0.228,0.949,0.25,12.57,-7.9,-3.91,2,4
17437.625,-0.236,0.95,0.254,8.18,-8.64,-4.12,2,4
17437.625,-0.236,0.947,0.259,3.91,-9.22,-3.91,2,4
17437.64,-0.234,0.941,0.267,1.04,-8.94,-2.87,2,4
17437.656,-0.239,0.931,0.277,0.61,-8.09,-2.17,2,4
17437.656,-0.248,0.913,0.287,2.01,-7.81,-2.38,2,4
17437.671,-0.253,0.897,0.29,3.94,-8.67,-3.42,2,4
17437.687,-0.252,0.888,0.286,6.1,-10.01,-4.73,2,4
17437.687,-0.249,0.878,0.283,8.82,-10.86,-5.89,2,4
17437.703,-0.246,0.875,0.273,11.11,-10.68,-6.9,2,4
17437.703,-0.24,0.886,0.264,11.54,-9.77,-7.6,2,4
17437.718,-0.24,0.895,0.266,10.77,-8.88,-7.69,2,4
17437.734,-0.253,0.912,0.255,10.25,-8.55,-6.81,2,4
17437.734,-0.244,0.933,0.232,8.58,-8.18,-4.76,2,4
17437.75,-0.232,0.949,0.227,5.13,-6.23,-1.74,2,4
17437.75,-0.241,0.948,0.228,1.77,-3.14,0.58,2,4
17437.765,-0.256,0.935,0.236,-1.92,-1.16,1.34,2,4
17437.781,-0.261,0.916,0.25,-5.71,-1.31,1.19,2,4
17437.781,-0.263,0.902,0.262,-7.26,-2.23,1.04,2,4
17437.796,-0.261,0.898,0.269,-6.41,-3.02,1.01,2,4
17437.812,-0.255,0.901,0.269,-5.58,-3.54,0.73,2,4
17437.812,-0.255,0.899,0.271,-5.1,-4.21,-0.12,2,4
17437.828,-0.261,0.895,0.279,-3.94,-4.97,-1.1,2,4
17437.843,-0.275,0.896,0.279,-2.75,-6.07,-1.95,2,4
17437.843,-0.274,0.907,0.276,-2.11,-7.35,-2.72,2,4
17437.859,-0.281,0.918,0.283,-1.83,-9.0,-3.23,2,4
17437.875,-0.275,0.92,0.28,-1.92,-10.68,-2.41,2,4
17437.875,-0.265,0.908,0.272,-6.07,-11.93,-3.48,2,4
17437.89,-0.275,0.895,0.297,-13.79,-12.91,-8.15,2,4
17437.89,-0.289,0.903,0.301,-18.37,-14.53,-10.71,2,4
17437.906,-0.289,0.922,0.303,-20.36,-14.77,-8.18,2,4
17437.921,-0.284,0.933,0.304,-19.01,-12.97,-3.45,2,4
17437.937,-0.304,0.868,0.32,-17.55,-10.86,-2.47,2,4
17437.953,-0.318,0.869,0.33,-15.2,-10.47,-2.66,2,4
17437.953,-0.335,0.891,0.353,-9.67,-10.22,-0.61,2,4
17437.968,-0.332,0.887,0.346,-2.44,-10.44,1.22,2,4
17437.984,-0.364,0.877,0.355,2.2,-11.6,1.13,2,4
17437.984,-0.378,0.876,0.356,5.43,-16.14,-0.27,2,4
17438.0,-0.363,0.9,0.357,5.4,-21.39,-2.66,2,4
17438.0,-0.354,0.926,0.354,3.78,-24.9,-5.52,2,4
17438.015,-0.368,0.943,0.342,0.82,-26.06,-8.33,2,4
17438.031,-0.378,0.954,0.344,-2.99,-25.61,-9.8,2,4
17438.046,-0.377,0.946,0.338,-6.47,-24.2,-11.66,2,4
17438.046,-0.4,0.945,0.34,-8.58,-21.45,-14.31,2,4
17438.062,-0.42,0.932,0.338,-8.61,-19.38,-14.44,2,4
17438.062,-0.431,0.912,0.332,-5.71,-17.0,-11.78,2,4
17438.078,-0.439,0.901,0.325,-0.52,-14.19,-10.22,2,4
17438.093,-0.465,0.886,0.312,6.53,-8.58,-10.19,2,4
17438.109,-0.481,0.888,0.32,4.52,-1.1,-14.74,2,4
17438.125,-0.519,0.909,0.333,1.74,1.53,-13.03,2,4
17438.125,-0.49,0.907,0.327,2.69,1.34,-8.76,2,4
17438.14,-0.489,0.891,0.316,2.66,-0.4,-6.04,2,4
17438.14,-0.481,0.876,0.302,1.13,-2.23,-0.89,2,4
17438.156,-0.437,0.885,0.285,1.98,-2.11,7.11,2,4
17438.171,-0.415,0.855,0.263,6.13,-1.53,14.86,2,4
17438.171,-0.398,0.834,0.244,9.49,-1.22,20.87,2,4
17438.187,-0.388,0.831,0.228,8.39,0.0,22.71,2,4
17438.203,-0.371,0.824,0.223,4.67,1.4,20.2,2,4
17438.218,-0.37,0.817,0.22,-1.07,3.66,14.1,2,4
17438.218,-0.376,0.804,0.211,-7.54,5.74,6.96,2,4
17438.234,-0.377,0.804,0.221,-13.37,7.39,-0.24,2,4
17438.234,-0.375,0.822,0.231,-18.46,6.56,-8.06,2,4
17438.25,-0.361,0.827,0.227,-23.22,4.88,-14.98,2,4
17438.265,-0.35,0.821,0.22,-28.17,5.34,-19.62,2,4
17438.281,-0.35,0.783,0.205,-38.58,9.4,-27.16,2,4
17438.281,-0.348,0.758,0.207,-41.2,12.51,-30.49,2,4
17438.296,-0.351,0.738,0.212,-40.8,16.11,-34.36,2,4
17438.312,-0.354,0.717,0.227,-39.03,19.41,-38.7,2,4
17438.312,-0.374,0.684,0.234,-36.26,21.18,-45.11,2,4
17438.328,-0.381,0.678,0.256,-32.62,21.0,-54.38,2,4
17438.343,-0.379,0.685,0.266,-29.42,17.88,-64.97,2,4
17438.359,-0.395,0.68,0.256,-29.08,14.34,-75.99,2,4
17438.359,-0.393,0.684,0.246,-31.65,12.76,-84.69,2,4
17438.375,-0.386,0.72,0.24,-33.72,15.44,-90.3,2,4
17438.375,-0.359,0.679,0.243,-32.5,21.88,-93.69,2,4
17438.39,-0.395,0.641,0.236,-23.74,32.84,-96.93,2,4
17438.406,-0.385,0.671,0.254,-11.6,43.73,-94.55,2,4
17438.406,-0.372,0.68,0.279,0.64,52.92,-91.59,2,4
17438.421,-0.411,0.694,0.28,11.14,61.86,-92.75,2,4
17438.437,-0.412,0.702,0.305,19.2,68.06,-95.16,2,4
17438.453,-0.462,0.679,0.336,29.39,67.11,-107.46,2,4
17438.468,-0.449,0.67,0.354,28.47,60.61,-114.44,2,4
17438.468,-0.402,0.623,0.352,24.17,49.71,-127.45,2,4
17438.484,-0.427,0.582,0.336,17.67,40.04,-144.69,2,4
17438.484,-0.443,0.583,0.324,14.95,36.16,-149.21,2,4
17438.5,-0.38,0.569,0.323,20.11,32.78,-146.76,2,4
17438.515,-0.369,0.539,0.294,28.05,29.33,-146.34,2,4
17438.515,-0.379,0.518,0.279,33.91,28.41,-141.36,2,4
17438.531,-0.365,0.526,0.263,39.31,30.03,-133.88,2,4
17438.531,-0.398,0.547,0.262,42.63,34.24,-129.4,2,4
17438.546,-0.452,0.574,0.288,45.93,37.32,-129.46,2,4
17438.562,-0.495,0.571,0.297,51.73,36.26,-132.45,2,4
17438.578,-0.544,0.563,0.288,59.69,31.8,-135.96,2,4
17438.578,-0.562,0.559,0.254,69.34,25.64,-136.72,2,4
17438.593,-0.594,0.58,0.22,78.71,20.14,-133.21,2,4
17438.593,-0.628,0.634,0.226,87.74,16.42,-124.45,2,4
17438.609,-0.664,0.647,0.252,95.4,5.77,-119.21,2,4
17438.625,-0.672,0.613,0.216,102.18,-7.2,-115.21,2,4
17438.625,-0.669,0.644,0.185,104.86,-13.92,-110.05,2,4
17438.64,-0.679,0.687,0.151,104.46,-20.48,-110.23,2,4
17438.656,-0.661,0.663,0.099,101.05,-23.99,-108.37,2,4
17438.656,-0.646,0.667,0.047,96.53,-19.93,-103.21,2,4
17438.671,-0.635,0.677,-0.001,93.42,-8.94,-98.85,2,4
17438.671,-0.613,0.64,-0.066,89.6,5.1,-93.02,2,4
17438.687,-0.669,0.644,-0.103,84.38,22.95,-88.63,2,4
17438.703,-0.821,0.697,-0.101,83.9,41.32,-91.16,2,4
17438.718,-0.943,0.713,-0.085,90.98,52.0,-97.51,2,4
17438.718,-1.015,0.693,-0.053,103.34,52.58,-98.82,2,4
17438.734,-1.072,0.713,-0.059,117.59,48.55,-95.31,2,4
17438.734,-1.073,0.787,-0.082,126.74,42.63,-88.11,2,4
17438.75,-1.075,0.812,-0.134,133.21,37.54,-78.46,2,4
17438.765,-1.074,0.795,-0.221,138.07,36.41,-67.08,2,4
17438.781,-1.028,0.818,-0.353,143.31,53.29,-43.31,2,4
17438.781,-0.991,0.807,-0.394,140.63,68.79,-33.54,2,4
17438.796,-0.984,0.78,-0.416,133.85,85.67,-26.83,2,4
17438.812,-0.976,0.751,-0.434,122.68,102.33,-21.94,2,4
17438.828,-0.965,0.728,-0.432,106.63,116.79,-17.82,2,4
17438.828,-1.005,0.715,-0.421,88.26,127.02,-14.31,2,4
17438.843,-1.057,0.702,-0.415,70.35,130.86,-7.87,2,4
17438.859,-1.08,0.706,-0.4,52.16,128.94,1.34,2,4
17438.859,-1.089,0.712,-0.381,34.61,122.38,9.46,2,4
17438.875,-1.089,0.703,-0.372,17.49,111.94,15.41,2,4
17438.875,-1.063,0.679,-0.37,0.46,99.61,21.09,2,4
17438.89,-1.019,0.658,-0.366,-15.99,88.44,27.62,2,4
17438.906,-0.975,0.638,-0.35,-30.12,80.54,33.94,2,4
17438.906,-0.938,0.6,-0.335,-41.2,74.77,39.67,2,4
17438.921,-0.912,0.564,-0.327,-49.9,70.83,45.69,2,4
17438.937,-0.905,0.55,-0.331,-55.82,69.31,51.18,2,4
17438.953,-0.884,0.521,-0.294,-60.3,72.27,58.08,2,4
17438.953,-0.881,0.51,-0.281,-61.13,72.21,57.99,2,4
17438.968,-0.882,0.504,-0.269,-60.61,70.16,56.49,2,4
17438.984,-0.886,0.501,-0.261,-58.6,66.16,54.78,2,4
17438.984,-0.87,0.499,-0.257,-55.39,60.61,54.75,2,4
17439.0,-0.853,0.512,-0.257,-50.97,54.81,56.18,2,4
17439.015,-0.812,0.495,-0.252,-46.11,51.97,59.94,2,4
17439.015,-0.78,0.503,-0.258,-41.51,51.58,63.81,2,4
17439.031,-0.79,0.527,-0.269,-39.64,45.38,62.47,2,4
17439.031,-0.783,0.517,-0.272,-40.93,38.06,59.6,2,4
17439.046,-0.767,0.526,-0.272,-42.12,39.09,57.86,2,4
17439.062,-0.779,0.568,-0.275,-42.18,40.93,57.44,2,4
17439.062,-0.771,0.596,-0.278,-43.52,33.39,56.98,2,4
17439.078,-0.782,0.605,-0.294,-47.36,25.64,57.92,2,4
17439.093,-0.779,0.634,-0.315,-54.69,19.07,60.49,2,4
17439.093,-0.762,0.706,-0.347,-67.78,13.58,64.79,2,4
17439.109,-0.735,0.835,-0.382,-86.28,10.25,70.44,2,4
17439.125,-0.72,0.864,-0.381,-107.73,9.64,76.82,2,4
17439.125,-0.69,0.868,-0.362,-131.87,9.37,83.32,2,4
17439.14,-0.666,0.852,-0.325,-155.55,8.12,88.66,2,4
17439.156,-0.662,0.833,-0.292,-174.44,6.56,93.23,2,4
17439.156,-0.649,0.827,-0.255,-187.29,3.94,98.64,2,4
17439.171,-0.633,0.835,-0.219,-194.83,-0.24,103.95,2,4
17439.187,-0.622,0.862,-0.187,-199.13,-5.68,109.38,2,4
17439.187,-0.608,0.887,-0.156,-201.76,-12.36,115.57,2,4
17439.203,-0.614,0.911,-0.13,-205.05,-21.12,122.47,2,4
17439.203,-0.618,0.913,-0.096,-212.68,-31.8,131.05,2,4
17439.218,-0.604,0.903,-0.046,-224.83,-43.37,138.86,2,4
17439.234,-0.576,0.888,-0.0,-236.43,-53.19,144.17,2,4
17439.234,-0.539,0.851,0.019,-243.87,-60.52,147.37,2,4
17439.25,-0.514,0.843,0.02,-250.19,-64.21,149.3,2,4
17439.265,-0.496,0.851,0.036,-259.59,-66.23,150.88,2,4
17439.281,-0.459,0.775,0.103,-288.22,-79.9,148.53,2,4
17439.296,-0.429,0.736,0.14,-303.14,-90.4,145.42,2,4
17439.296,-0.403,0.7,0.184,-317.97,-101.32,140.6,2,4
17439.312,-0.376,0.641,0.226,-331.31,-111.09,133.49,2,4
17439.328,-0.338,0.562,0.258,-340.83,-119.88,125.16,2,4
17439.328,-0.285,0.473,0.286,-342.72,-125.8,117.68,2,4
17439.343,-0.238,0.435,0.345,-330.27,-123.87,113.59,2,4
17439.359,-0.219,0.454,0.385,-303.57,-110.42,116.49,2,4
17439.359,-0.176,0.391,0.417,-269.57,-92.65,123.14,2,4
17439.375,-0.158,0.305,0.412,-233.28,-72.51,125.13,2,4
17439.39,-0.198,0.31,0.404,-210.33,-61.77,118.5,2,4
17439.39,-0.192,0.323,0.426,-204.08,-57.99,107.12,2,4
17439.406,-0.178,0.346,0.448,-207.77,-55.64,92.78,2,4
17439.406,-0.176,0.344,0.488,-212.78,-52.49,78.46,2,4
17439.421,-0.187,0.3,0.533,-210.55,-47.06,66.41,2,4
17439.421,-0.217,0.259,0.621,-203.28,-42.85,55.54,2,4
17439.437,-0.177,0.256,0.703,-188.06,-37.75,49.29,2,4
17439.453,-0.162,0.247,0.758,-159.43,-28.99,44.56,2,4
17439.453,-0.16,0.291,0.839,-129.09,-19.29,39.64,2,4
17439.468,-0.138,0.362,0.907,-101.87,-9.09,35.0,2,4
17439.484,-0.132,0.434,0.947,-79.99,2.26,30.67,2,4
17439.484,-0.166,0.494,0.97,-66.04,11.35,26.37,2,4
17439.5,-0.207,0.528,0.985,-60.95,14.07,23.96,2,4
17439.515,-0.222,0.545,0.985,-63.63,12.12,23.87,2,4
17439.515,-0.229,0.552,0.973,-70.59,7.87,25.12,2,4
17439.531,-0.213,0.53,0.957,-76.27,3.66,27.89,2,4
17439.531,-0.207,0.523,0.984,-76.82,3.54,33.08,2,4
17439.546,-0.28,0.571,1.081,-67.63,5.74,43.76,2,4
17439.562,-0.239,0.566,1.104,-53.93,4.21,59.51,2,4
17439.578,-0.172,0.54,1.073,-51.76,-1.74,68.09,2,4
17439.578,-0.148,0.51,1.038,-59.66,-7.39,66.32,2,4
17439.593,-0.134,0.45,1.023,-66.99,-11.11,61.43,2,4
17439.609,-0.113,0.345,1.011,-57.74,-13.52,48.46,2,4
17439.625,-0.139,0.318,0.997,-41.63,-12.6,42.48,2,4
17439.625,-0.138,0.362,0.98,-22.58,-11.02,41.57,2,4
17439.64,-0.114,0.392,0.939,-1.62,-6.87,44.89,2,4
17439.64,-0.097,0.413,0.866,14.16,0.79,49.65,2,4
17439.656,-0.079,0.454,0.829,18.19,10.25,55.51,2,4
17439.671,-0.069,0.46,0.824,12.18,20.29,59.82,2,4
17439.671,-0.092,0.419,0.846,0.27,27.5,60.52,2,4
17439.687,-0.114,0.377,0.898,-13.64,29.15,58.38,2,4
17439.703,-0.112,0.342,0.951,-25.82,25.73,53.96,2,4
17439.703,-0.103,0.285,0.987,-30.55,20.23,47.67,2,4
17439.718,-0.096,0.238,1.023,-26.15,15.56,40.65,2,4
17439.734,-0.1,0.219,1.026,-14.25,11.6,34.24,2,4
17439.734,-0.082,0.232,1.006,-0.95,7.9,30.06,2,4
17439.75,-0.057,0.258,0.983,8.79,5.28,26.03,2,4
17439.75,-0.052,0.275,0.956,13.82,4.18,21.21,2,4
17439.781,-0.028,0.32,0.917,14.62,6.71,21.24,2,4
17439.796,-0.028,0.32,0.92,12.82,8.61,21.67,2,4
17439.796,-0.031,0.323,0.925,10.59,9.31,21.61,2,4
17439.812,-0.024,0.319,0.926,9.34,8.88,21.3,2,4
17439.812,-0.018,0.299,0.919,8.06,7.69,19.68,2,4
17439.828,-0.003,0.286,0.923,4.85,6.32,16.17,2,4
17439.843,0.018,0.276,0.924,1.34,4.7,10.68,2,4
17439.843,0.037,0.259,0.921,-0.61,4.58,4.91,2,4
17439.859,0.053,0.272,0.955,2.04,7.75,1.4,2,4
17439.859,0.032,0.331,1.016,9.95,11.44,-0.09,2,4
17439.875,-0.025,0.371,1.04,17.7,10.99,-0.15,2,4
17439.89,-0.035,0.402,1.033,20.63,6.1,1.92,2,4
17439.89,-0.012,0.434,1.005,20.66,-0.46,4.36,2,4
17439.906,-0.014,0.429,0.957,18.43,-4.76,5.52,2,4
17439.921,-0.005,0.423,0.925,18.01,-5.71,8.73,2,4
17439.921,0.005,0.414,0.889,21.49,-3.66,13.46,2,4
17439.953,0.011,0.385,0.862,17.03,0.27,11.69,2,4
17439.968,-0.002,0.369,0.88,6.23,-0.58,5.4,2,4
17439.968,-0.009,0.353,0.897,-5.8,-5.04,-1.95,2,4
17439.984,-0.006,0.328,0.904,-13.28,-9.03,-7.02,2,4
17439.984,0.002,0.304,0.892,-14.98,-9.89,-10.07,2,4
17440.0,0.011,0.297,0.866,-12.76,-7.48,-12.3,2,4
17440.015,0.012,0.31,0.861,-7.87,-2.56,-14.34,2,4
17440.015,-0.004,0.319,0.871,-2.56,2.99,-16.36,2,4
17440.031,-0.023,0.346,0.889,-0.76,6.5,-18.49,2,4
17440.031,-0.04,0.377,0.922,-2.56,6.74,-21.33,2,4
17440.046,-0.064,0.383,0.952,-2.96,2.96,-21.36,2,4
17440.062,-0.072,0.393,0.971,0.76,0.15,-17.61,2,4
17440.062,-0.07,0.402,0.972,5.65,-1.16,-13.46,2,4
17440.078,-0.067,0.407,0.959,8.7,-0.73,-9.34,2,4
17440.093,-0.067,0.41,0.93,9.64,-0.24,-6.2,2,4
17440.093,-0.065,0.39,0.917,7.54,-0.31,-4.15,2,4
17440.109,-0.072,0.369,0.909,2.96,0.06,-4.27,2,4
17440.125,-0.074,0.351,0.897,2.72,-0.21,-4.67,2,4
17440.14,-0.063,0.351,0.894,2.62,-0.15,-5.71,2,4
17440.156,-0.062,0.355,0.891,3.85,0.85,-7.45,2,4
17440.156,-0.062,0.353,0.88,6.29,2.14,-7.9,2,4
17440.171,-0.054,0.36,0.874,7.57,3.85,-7.93,2,4
17440.171,-0.052,0.367,0.876,7.63,5.55,-8.58,2,4
17440.187,-0.052,0.368,0.882,6.96,7.32,-8.7,2,4
17440.203,-0.052,0.381,0.908,5.89,8.94,-8.64,2,4
17440.203,-0.071,0.393,0.939,5.28,9.58,-8.24,2,4
17440.218,-0.081,0.404,0.946,4.36,8.12,-6.16,2,4
17440.234,-0.073,0.41,0.945,1.86,5.01,-3.69,2,4
17440.234,-0.066,0.404,0.932,-1.07,2.41,-2.38,2,4
17440.25,-0.054,0.398,0.92,-3.91,1.31,-1.65,2,4
17440.25,-0.048,0.386,0.914,-5.65,1.16,-1.89,2,4
17440.265,-0.047,0.371,0.923,-5.95,1.65,-2.29,2,4
17440.281,-0.047,0.364,0.92,-5.13,1.59,-2.75,2,4
17440.281,-0.045,0.358,0.906,-4.39,1.71,-3.66,2,4
17440.296,-0.026,0.355,0.894,-4.46,3.88,-4.27,2,4
17440.312,-0.017,0.351,0.898,-3.48,7.93,-5.46,2,4
17440.312,-0.033,0.345,0.901,-1.13,12.6,-7.2,2,4
17440.328,-0.048,0.351,0.906,0.76,15.66,-8.18,2,4
17440.343,-0.051,0.367,0.918,1.5,16.91,-9.22,2,4
17440.343,-0.066,0.38,0.928,1.86,16.45,-10.32,2,4
17440.359,-0.076,0.387,0.942,2.41,14.5,-9.89,2,4
17440.375,-0.081,0.409,0.963,2.69,11.75,-8.73,2,4
17440.375,-0.107,0.423,0.973,2.93,7.75,-7.05,2,4
17440.39,-0.108,0.417,0.964,2.23,2.72,-3.6,2,4
17440.39,-0.099,0.406,0.949,1.07,-1.77,-0.82,2,4
17440.406,-0.091,0.395,0.928,0.03,-4.64,0.27,2,4
17440.421,-0.084,0.386,0.906,-0.85,-5.83,1.04,2,4
17440.437,-0.079,0.37,0.893,-1.74,-5.86,1.04,2,4
17440.437,-0.076,0.362,0.896,-2.41,-5.31,0.67,2,4
17440.453,-0.073,0.362,0.9,-2.59,-4.49,0.43,2,4
17440.453,-0.075,0.359,0.897,-2.5,-3.85,-0.27,2,4
17440.468,-0.074,0.362,0.898,-2.38,-3.3,-1.01,2,4
17440.484,-0.075,0.368,0.895,-2.2,-2.81,-1.28,2,4
17440.484,-0.075,0.371,0.895,-1.92,-1.8,-1.46,2,4
17440.5,-0.077,0.379,0.9,-1.65,-0.76,-1.56,2,4
17440.515,-0.082,0.392,0.902,-1.74,0.37,-1.31,2,4
17440.515,-0.088,0.403,0.91,-3.08,1.28,-0.49,2,4
17440.531,-0.098,0.402,0.918,-5.07,1.07,0.15,2,4
17440.531,-0.101,0.399,0.918,-8.0,0.31,1.07,2,4
17440.546,-0.101,0.394,0.918,-11.57,-0.52,2.2,2,4
17440.562,-0.096,0.391,0.925,-14.74,-1.01,3.3,2,4
17440.578,-0.098,0.37,0.936,-15.93,-1.5,4.18,2,4
17440.578,-0.099,0.35,0.931,-15.78,-2.41,4.49,2,4
17440.593,-0.083,0.338,0.919,-14.77,-3.57,3.94,2,4
17440.593,-0.075,0.33,0.906,-12.27,-3.17,2.47,2,4
17440.609,-0.075,0.335,0.907,-9.37,-1.59,1.25,2,4
17440.625,-0.081,0.351,0.908,-7.14,-0.09,0.67,2,4
17440.625,-0.085,0.362,0.909,-6.29,0.85,0.58,2,4
17440.64,-0.091,0.365,0.91,-7.48,0.89,0.4,2,4
17440.656,-0.092,0.364,0.897,-10.19,0.18,0.85,2,4
17440.656,-0.069,0.35,0.885,-14.56,0.21,1.13,2,4
17440.671,-0.072,0.327,0.89,-19.81,0.4,-0.43,2,4
17440.671,-0.074,0.303,0.839,-23.68,-0.46,-1.62,2,4
17440.687,-0.037,0.312,0.807,-30.88,-1.56,-2.08,2,4
17440.703,-0.044,0.349,0.86,-40.44,-1.19,-1.77,2,4
17440.703,-0.073,0.397,0.923,-45.32,-1.46,-1.65,2,4
17440.718,-0.069,0.451,0.956,-48.1,-3.63,-2.41,2,4
17440.734,-0.039,0.492,0.991,-49.56,-1.98,-1.07,2,4
17440.734,-0.026,0.482,1.042,-49.32,4.12,4.43,2,4
17440.75,-0.01,0.428,1.082,-51.06,11.05,9.34,2,4
17440.765,-0.024,0.345,1.152,-51.7,16.69,10.13,2,4
17440.765,-0.046,0.252,1.204,-44.74,19.81,8.61,2,4
17440.781,-0.065,0.172,1.191,-29.21,19.59,6.07,2,4
17440.781,-0.068,0.117,1.129,-10.16,15.87,1.65,2,4
17440.796,-0.083,0.086,1.04,10.5,11.14,-3.33,2,4
17440.812,-0.117,0.111,0.947,26.8,7.35,-6.68,2,4
17440.812,-0.121,0.158,0.873,33.23,2.87,-8.64,2,4
17440.828,-0.128,0.214,0.835,31.8,-0.34,-10.83,2,4
17440.843,-0.154,0.247,0.798,27.38,-2.14,-9.64,2,4
17440.843,-0.138,0.268,0.775,19.17,-1.98,-5.98,2,4
17440.859,-0.126,0.284,0.791,10.5,1.8,-2.53,2,4
17440.875,-0.134,0.272,0.809,5.28,6.44,0.27,2,4
17440.875,-0.136,0.262,0.846,3.42,10.9,2.41,2,4
17440.89,-0.15,0.265,0.885,6.29,14.31,3.39,2,4
17440.906,-0.16,0.274,0.907,11.41,15.99,4.43,2,4
17440.906,-0.167,0.292,0.929,13.95,16.05,6.13,2,4
17440.921,-0.163,0.3,0.946,12.39,14.59,7.75,2,4
17440.921,-0.148,0.294,0.968,7.9,12.42,9.43,2,4
17440.937,-0.135,0.282,0.985,3.69,10.13,11.32,2,4
17440.953,-0.126,0.272,1.005,0.73,7.14,12.48,2,4
17440.953,-0.11,0.258,1.006,0.03,3.39,11.32,2,4
17440.968,-0.097,0.262,1.004,1.46,0.15,8.0,2,4
17440.984,-0.092,0.287,1.004,4.88,-2.01,3.23,2,4
17440.984,-0.095,0.314,0.992,10.28,-3.45,-1.4,2,4
17441.0,-0.108,0.327,0.976,15.5,-4.49,-4.97,2,4
17441.0,-0.111,0.334,0.957,19.53,-5.74,-6.74,2,4
17441.015,-0.105,0.35,0.93,21.73,-6.71,-7.14,2,4
17441.031,-0.099,0.362,0.903,21.33,-6.87,-6.87,2,4
17441.031,-0.099,0.364,0.89,14.25,-6.16,-6.26,2,4
17441.046,-0.099,0.357,0.882,10.47,-4.52,-5.58,2,4
17441.062,-0.095,0.353,0.886,8.45,-2.96,-4.58,2,4
17441.062,-0.1,0.345,0.909,7.93,-2.78,-3.3,2,4
17441.078,-0.089,0.336,0.92,7.2,-3.69,-2.87,2,4
17441.093,-0.08,0.336,0.939,6.9,-4.39,-3.48,2,4
17441.109,-0.082,0.335,0.938,8.12,-5.65,-4.64,2,4
17441.109,-0.074,0.337,0.941,9.74,-6.71,-5.16,2,4
17441.125,-0.073,0.356,0.948,11.78,-6.99,-5.71,2,4
17441.125,-0.079,0.361,0.937,13.52,-7.26,-6.07,2,4
17441.14,-0.075,0.363,0.921,12.73,-7.6,-5.8,2,4
17441.14,-0.073,0.381,0.938,10.19,-6.41,-5.31,2,4
17441.156,-0.095,0.378,0.955,8.55,-4.76,-4.21,2,4
17441.171,-0.105,0.361,0.954,6.23,-5.34,-2.78,2,4
17441.171,-0.099,0.353,0.955,3.23,-6.96,-2.17,2,4
17441.187,-0.095,0.337,0.947,1.77,-7.93,-3.2,2,4
17441.203,-0.09,0.319,0.932,2.23,-8.36,-4.61,2,4
17441.203,-0.083,0.316,0.921,4.06,-8.15,-5.77,2,4
17441.218,-0.079,0.321,0.911,6.56,-6.9,-6.38,2,4
17441.234,-0.074,0.318,0.903,8.0,-5.74,-6.2,2,4
17441.234,-0.073,0.314,0.908,7.2,-4.33,-4.88,2,4
17441.25,-0.08,0.315,0.918,3.81,-3.39,-2.99,2,4
17441.25,-0.083,0.3,0.918,-0.31,-3.85,-1.5,2,4
17441.265,-0.085,0.289,0.906,-3.81,-5.01,-1.28,2,4
17441.281,-0.075,0.303,0.873,-6.26,-5.62,-2.26,2,4
17441.281,-0.056,0.322,0.878,-6.1,-3.33,-3.69,2,4
17441.296,-0.062,0.336,0.886,0.37,1.34,-4.43,2,4
17441.312,-0.083,0.365,0.908,10.13,5.16,-4.0,2,4
17441.312,-0.097,0.395,0.924,18.83,6.2,-2.56,2,4
17441.328,-0.101,0.424,0.93,21.82,4.88,-1.04,2,4
17441.343,-0.103,0.44,0.931,18.65,2.53,-0.79,2,4
17441.343,-0.096,0.433,0.92,12.09,0.43,-1.4,2,4
17441.359,-0.089,0.429,0.913,5.4,-0.37,-0.98,2,4
17441.375,-0.093,0.418,0.908,0.31,0.06,-0.34,2,4
17441.375,-0.097,0.402,0.913,-3.72,0.49,0.21,2,4
17441.39,-0.089,0.384,0.921,-6.26,1.13,0.21,2,4
17441.39,-0.095,0.371,0.928,-6.65,1.92,-0.46,2,4
17441.406,-0.103,0.354,0.925,-4.97,2.01,-0.98,2,4
17441.421,-0.102,0.349,0.927,-3.2,2.11,-0.98,2,4
17441.421,-0.114,0.357,0.925,-2.23,2.41,-1.28,2,4
17441.437,-0.124,0.359,0.914,-3.63,1.56,-1.25,2,4
17441.453,-0.12,0.371,0.911,-7.75,0.15,-0.64,2,4
17441.453,-0.12,0.371,0.907,-12.7,-0.85,0.55,2,4
17441.468,-0.125,0.36,0.906,-17.43,-1.59,2.14,2,4
17441.484,-0.121,0.344,0.914,-20.78,-2.53,3.54,2,4
17441.484,-0.125,0.326,0.93,-20.63,-2.9,3.97,2,4
17441.5,-0.122,0.311,0.943,-16.94,-3.33,4.0,2,4
17441.515,-0.11,0.323,0.958,-11.87,-3.2,3.54,2,4
17441.515,-0.108,0.33,0.953,-6.5,-2.72,1.92,2,4
17441.531,-0.105,0.329,0.94,-2.23,-2.53,0.27,2,4
17441.531,-0.111,0.346,0.933,0.52,-2.08,-0.61,2,4
17441.546,-0.12,0.362,0.907,1.25,-1.98,-0.95,2,4
17441.562,-0.11,0.362,0.884,-0.95,-2.26,-0.4,2,4
17441.562,-0.108,0.363,0.89,-4.61,-1.22,0.58,2,4
17441.578,-0.119,0.362,0.9,-7.72,-0.09,2.38,2,4
17441.593,-0.119,0.352,0.902,-10.47,-0.18,5.01,2,4
17441.593,-0.11,0.334,0.906,-12.88,-0.49,7.32,2,4
17441.609,-0.103,0.319,0.917,-14.13,-0.46,8.36,2,4
17441.625,-0.1,0.316,0.92,-14.16,0.03,9.06,2,4
17441.625,-0.089,0.3,0.921,-13.73,0.34,8.73,2,4
17441.64,-0.088,0.292,0.933,-12.57,1.07,7.66,2,4
17441.64,-0.089,0.302,0.945,-10.5,1.71,7.08,2,4
17441.656,-0.081,0.301,0.937,-8.24,1.92,6.62,2,4
17441.671,-0.072,0.296,0.936,-6.81,2.53,6.04,2,4
17441.671,-0.071,0.292,0.941,-6.2,3.66,5.07,2,4
17441.687,-0.074,0.291,0.937,-6.71,4.33,3.54,2,4
17441.703,-0.069,0.302,0.931,-9.7,5.25,2.35,2,4
17441.718,-0.061,0.317,0.941,-13.92,7.08,1.25,2,4
17441.718,-0.082,0.315,0.929,-18.25,8.58,0.64,2,4
17441.734,-0.08,0.311,0.903,-25.54,8.91,0.67,2,4
17441.734,-0.071,0.311,0.946,-34.0,8.97,2.08,2,4
17441.75,-0.083,0.286,0.977,-36.87,7.81,3.88,2,4
17441.765,-0.091,0.277,0.994,-35.89,5.71,3.66,2,4
17441.765,-0.086,0.271,1.016,-30.76,2.56,3.2,2,4
17441.781,-0.055,0.282,1.027,-23.16,1.5,2.29,2,4
17441.781,-0.052,0.301,1.061,-14.62,3.45,1.74,2,4
17441.796,-0.066,0.302,1.085,-5.98,5.86,0.95,2,4
17441.812,-0.08,0.301,1.084,-1.5,6.93,-0.4,2,4
17441.812,-0.086,0.293,1.076,-1.34,7.69,-2.66,2,4
17441.828,-0.107,0.281,1.069,-0.58,9.43,-5.37,2,4
17441.843,-0.123,0.264,1.079,4.27,10.35,-8.18,2,4
17441.843,-0.148,0.231,1.081,12.24,6.26,-12.57,2,4
17441.859,-0.196,0.209,1.066,23.83,-3.97,-16.91,2,4
17441.875,-0.198,0.193,0.99,40.13,-15.23,-19.65,2,4
17441.875,-0.273,0.255,0.92,59.21,-24.66,-17.64,2,4
17441.89,-0.341,0.343,0.874,75.56,-36.23,-9.86,2,4
17441.89,-0.344,0.437,0.913,78.89,-49.87,3.66,2,4
17441.906,-0.201,0.468,0.884,65.83,-65.37,19.29,2,4
17441.921,-0.118,0.509,0.8,37.2,-70.99,30.76,2,4
17441.921,-0.104,0.417,0.828,9.06,-69.19,38.48,2,4
17441.937,-0.07,0.294,0.847,-5.71,-68.64,40.96,2,4
17441.953,-0.029,0.241,0.84,-8.09,-67.14,37.69,2,4
17441.953,0.02,0.198,0.828,0.15,-62.14,30.4,2,4
17441.968,0.072,0.19,0.769,13.58,-51.27,21.97,2,4
17441.984,0.12,0.225,0.716,22.46,-34.73,13.03,2,4
17441.984,0.146,0.258,0.699,24.23,-13.98,3.78,2,4
17442.0,0.14,0.296,0.702,19.35,8.3,-4.76,2,4
17442.015,0.079,0.316,0.736,9.19,27.89,-12.54,2,4
17442.015,0.001,0.315,0.809,-15.56,42.27,-24.6,2,4
17442.031,-0.073,0.32,0.91,-21.45,33.6,-29.33,2,4
17442.031,-0.097,0.307,0.992,-21.49,21.24,-32.56,2,4
17442.046,-0.098,0.3,1.011,-14.74,11.6,-31.37,2,4
17442.062,-0.09,0.381,1.146,9.95,2.75,-16.57,2,4
17442.062,0.014,0.459,1.001,27.44,-2.44,-1.22,2,4
17442.078,-0.006,0.523,0.962,22.06,0.09,3.6,2,4
17442.093,0.007,0.45,0.922,10.25,1.5,6.01,2,4
17442.093,0.015,0.419,0.887,-2.62,5.28,8.94,2,4
17442.109,0.0,0.358,0.895,-11.38,8.82,8.79,2,4
17442.125,-0.01,0.308,0.91,-13.79,9.86,7.39,2,4
17442.125,-0.021,0.297,0.914,-9.4,10.83,6.41,2,4
17442.14,-0.035,0.297,0.923,-1.59,11.96,5.68,2,4
17442.14,-0.045,0.304,0.934,6.16,11.99,4.91,2,4
17442.156,-0.055,0.323,0.935,11.93,10.8,4.21,2,4
17442.171,-0.063,0.347,0.949,14.8,9.31,4.06,2,4
17442.171,-0.069,0.378,0.966,14.71,7.17,4.39,2,4
17442.187,-0.075,0.396,0.965,11.26,4.18,4.85,2,4
17442.203,-0.065,0.402,0.953,5.25,1.34,5.19,2,4
17442.203,-0.059,0.398,0.947,0.09,0.46,5.07,2,4
17442.218,-0.061,0.384,0.938,-1.65,0.98,5.04,2,4
17442.234,-0.067,0.377,0.935,-0.76,2.2,5.13,2,4
17442.234,-0.073,0.372,0.929,1.31,2.87,5.04,2,4
17442.25,-0.073,0.369,0.928,2.59,2.78,4.64,2,4
17442.25,-0.08,0.362,0.931,3.72,2.72,3.75,2,4
17442.265,-0.082,0.357,0.916,3.78,2.47,2.75,2,4
17442.281,-0.071,0.36,0.911,2.38,2.47,1.98,2,4
17442.281,-0.069,0.355,0.907,2.5,3.81,1.46,2,4
17442.296,-0.077,0.361,0.902,3.27,5.34,1.71,2,4
17442.312,-0.074,0.367,0.897,3.11,6.1,1.74,2,4
17442.328,-0.077,0.368,0.904,2.29,6.84,1.1,2,4
17442.328,-0.087,0.373,0.916,2.35,7.26,0.73,2,4
17442.343,-0.089,0.375,0.916,2.96,6.68,0.76,2,4
17442.343,-0.082,0.376,0.911,2.9,5.74,0.49,2,4
17442.359,-0.075,0.381,0.906,2.32,5.46,-0.55,2,4
17442.375,-0.077,0.381,0.91,1.98,6.26,-0.98,2,4
17442.375,-0.077,0.372,0.918,2.53,7.26,0.12,2,4
17442.39,-0.077,0.362,0.924,3.2,7.81,1.71,2,4
17442.39,-0.065,0.36,0.924,4.61,8.42,2.99,2,4
17442.406,-0.064,0.368,0.94,5.46,9.43,3.54,2,4
17442.421,-0.078,0.37,0.969,5.49,9.92,3.27,2,4
17442.421,-0.094,0.376,0.996,5.04,8.79,3.33,2,4
17442.437,-0.104,0.377,1.007,5.62,6.35,4.06,2,4
17442.453,-0.113,0.369,1.012,7.84,2.9,4.85,2,4
17442.453,-0.133,0.365,1.013,12.57,-2.29,5.4,2,4
17442.468,-0.137,0.353,0.978,19.41,-9.0,6.53,2,4
17442.484,-0.139,0.349,0.896,25.21,-15.5,7.54,2,4
17442.484,-0.127,0.391,0.924,26.76,-21.33,8.58,2,4
17442.5,-0.163,0.39,1.018,28.96,-31.22,10.01,2,4
17442.515,-0.156,0.404,0.975,26.67,-46.6,11.17,2,4
17442.515,-0.106,0.427,0.962,14.77,-58.35,12.33,2,4
17442.531,-0.118,0.398,0.974,6.26,-65.16,11.29,2,4
17442.531,-0.126,0.358,0.943,4.33,-69.61,13.73,2,4
17442.546,-0.086,0.356,0.913,3.36,-73.58,18.89,2,4
17442.562,-0.042,0.347,0.885,3.39,-76.69,21.27,2,4
17442.562,-0.009,0.327,0.868,3.11,-78.37,20.14,2,4
17442.578,0.028,0.325,0.844,2.41,-77.91,16.63,2,4
17442.593,0.072,0.332,0.814,1.4,-75.17,11.87,2,4
17442.593,0.093,0.341,0.803,0.43,-69.46,6.32,2,4
17442.609,0.102,0.348,0.803,-0.03,-62.04,1.13,2,4
17442.625,0.106,0.373,0.82,0.0,-54.45,-2.11,2,4
17442.625,0.1,0.402,0.851,2.01,-46.78,-2.47,2,4
17442.64,0.096,0.425,0.88,4.7,-40.68,-1.22,2,4
17442.64,0.093,0.44,0.907,6.1,-37.08,0.09,2,4
17442.656,0.095,0.447,0.914,5.31,-35.43,0.89,2,4
17442.671,0.112,0.452,0.921,3.97,-33.66,1.46,2,4
17442.671,0.128,0.443,0.885,5.07,-30.37,2.38,2,4
17442.687,0.145,0.447,0.845,5.4,-25.64,4.61,2,4
17442.703,0.162,0.445,0.815,4.36,-18.8,6.84,2,4
17442.703,0.176,0.434,0.803,1.95,-10.96,7.35,2,4
17442.718,0.173,0.42,0.813,-0.31,-3.27,6.1,2,4
17442.734,0.159,0.41,0.819,-1.59,3.91,4.7,2,4
17442.734,0.154,0.407,0.835,-3.08,9.55,2.87,2,4
17442.75,0.121,0.411,0.87,-2.75,12.79,-0.09,2,4
17442.765,0.096,0.4,0.881,-0.31,12.94,-1.28,2,4
17442.765,0.097,0.41,0.895,1.74,12.3,-0.95,2,4
17442.781,0.103,0.416,0.889,2.99,11.44,-1.01,2,4
17442.796,0.107,0.419,0.869,1.77,11.35,-1.07,2,4
17442.796,0.117,0.417,0.855,-1.56,12.54,-0.58,2,4
17442.812,0.128,0.406,0.848,-5.52,15.02,-0.7,2,4
17442.812,0.127,0.393,0.842,-7.84,19.29,-1.71,2,4
17442.828,0.119,0.379,0.845,-8.76,24.29,-3.14,2,4
17442.843,0.102,0.372,0.861,-10.77,27.8,-5.83,2,4
17442.843,0.088,0.372,0.876,-12.02,29.18,-8.79,2,4
17442.859,0.073,0.372,0.901,-10.41,29.88,-10.19,2,4
17442.875,0.056,0.368,0.903,-7.05,30.03,-10.56,2,4
17442.875,0.033,0.387,0.964,-5.34,28.32,-10.32,2,4
17442.89,-0.032,0.428,1.088,-0.89,20.87,-9.22,2,4
17442.89,0.004,0.446,1.066,1.04,6.93,-3.57,2,4
17442.906,0.072,0.473,1.021,-4.85,-4.67,0.18,2,4
17442.921,0.119,0.449,0.964,-8.3,-8.06,1.71,2,4
17442.921,0.125,0.426,0.92,-9.22,-5.77,2.53,2,4
17442.937,0.108,0.396,0.903,-9.13,-2.04,2.29,2,4
17442.953,0.082,0.382,0.918,-8.67,0.18,1.5,2,4
17442.968,0.077,0.36,0.919,-5.65,-0.06,0.03,2,4
17442.968,0.078,0.34,0.916,-1.95,-0.58,-2.2,2,4
17442.984,0.077,0.349,0.916,2.29,-0.73,-4.73,2,4
17442.984,0.074,0.368,0.913,6.35,-0.73,-6.59,2,4
17443.0,0.076,0.385,0.913,8.76,-0.89,-7.23,2,4
17443.015,0.074,0.407,0.915,5.58,-0.95,-7.14,2,4
17443.015,0.067,0.426,0.919,1.92,-1.28,-5.98,2,4
17443.031,0.059,0.427,0.922,-0.98,-2.11,-4.52,2,4
17443.046,0.053,0.413,0.919,-2.53,-3.05,-3.3,2,4
17443.046,0.056,0.403,0.913,-3.14,-3.97,-3.33,2,4
17443.062,0.058,0.396,0.905,-2.75,-4.36,-4.09,2,4
17443.062,0.052,0.39,0.897,-0.79,-4.12,-4.58,2,4
17443.078,0.047,0.393,0.891,2.04,-3.27,-4.06,2,4
17443.093,0.049,0.399,0.891,4.73,-2.11,-3.6,2,4
17443.093,0.044,0.407,0.891,7.02,-0.43,-2.93,2,4
17443.109,0.038,0.414,0.892,7.57,1.28,-2.08,2,4
17443.109,0.027,0.411,0.906,6.23,2.78,-1.34,2,4
17443.125,0.015,0.407,0.92,4.15,3.08,-0.31,2,4
17443.14,0.01,0.4,0.925,1.71,1.4,-0.12,2,4
17443.14,0.021,0.388,0.918,-0.7,-1.65,-1.25,2,4
17443.156,0.033,0.386,0.907,-2.14,-3.63,-2.96,2,4
17443.171,0.039,0.377,0.898,-0.92,-3.39,-4.12,2,4
17443.171,0.044,0.381,0.894,1.71,-2.14,-4.73,2,4
17443.187,0.052,0.389,0.891,4.06,-0.82,-5.71,2,4
17443.203,0.05,0.403,0.897,5.04,0.43,-6.38,2,4
17443.203,0.047,0.413,0.894,4.91,1.37,-6.41,2,4
17443.218,0.055,0.417,0.887,3.6,2.17,-6.44,2,4
17443.234,0.058,0.418,0.884,1.56,3.63,-6.65,2,4
17443.234,0.051,0.418,0.891,-0.4,5.52,-6.78,2,4
17443.25,0.044,0.413,0.906,-1.56,6.71,-6.99,2,4
17443.265,0.036,0.408,0.92,-1.8,6.81,-7.48,2,4
17443.265,0.027,0.402,0.923,-0.73,5.89,-7.48,2,4
17443.281,0.031,0.406,0.921,1.16,4.7,-7.05,2,4
17443.281,0.034,0.407,0.923,2.72,3.69,-6.99,2,4
17443.296,0.036,0.407,0.92,3.63,2.23,-7.26,2,4
17443.312,0.044,0.411,0.914,3.54,0.95,-7.57,2,4
17443.312,0.048,0.415,0.911,3.51,0.7,-7.39,2,4
17443.328,0.05,0.417,0.907,3.54,1.04,-7.11,2,4
17443.343,0.044,0.423,0.901,3.14,1.86,-6.29,2,4
17443.343,0.035,0.429,0.903,1.53,2.44,-5.19,2,4
17443.359,0.024,0.425,0.916,-0.61,1.89,-4.49,2,4
17443.375,0.018,0.412,0.917,-1.68,0.37,-3.6,2,4
17443.375,0.023,0.4,0.915,-1.95,-1.46,-2.41,2,4
17443.39,0.03,0.39,0.904,-1.31,-2.72,-2.11,2,4
17443.39,0.031,0.385,0.891,-0.52,-2.62,-2.26,2,4
17443.406,0.028,0.391,0.893,0.49,-1.65,-2.26,2,4
17443.421,0.021,0.397,0.896,1.68,-0.76,-2.38,2,4
17443.421,0.008,0.408,0.899,1.68,-0.64,-2.38,2,4
17443.437,0.003,0.417,0.904,-0.06,-1.13,-1.83,2,4
17443.453,0.003,0.422,0.909,-2.59,-1.62,-0.82,2,4
17443.453,0.001,0.415,0.918,-4.43,-1.65,0.18,2,4
17443.468,0.005,0.408,0.915,-5.07,-2.14,1.1,2,4
17443.484,0.018,0.405,0.913,-6.07,-2.47,1.31,2,4
17443.484,0.028,0.396,0.917,-6.78,-2.62,0.4,2,4
17443.5,0.028,0.39,0.921,-6.74,-2.5,-0.43,2,4
17443.5,0.028,0.385,0.923,-6.29,-1.95,-1.4,2,4
17443.515,0.021,0.381,0.931,-5.68,-1.46,-2.84,2,4
17443.531,0.013,0.38,0.934,-4.88,-1.77,-3.91,2,4
17443.531,0.011,0.383,0.93,-3.69,-2.84,-4.73,2,4
17443.546,0.009,0.386,0.928,-1.62,-3.57,-4.82,2,4
17443.562,0.011,0.385,0.919,1.22,-4.15,-4.61,2,4
17443.578,0.02,0.388,0.908,3.6,-4.43,-4.36,2,4
17443.578,0.026,0.394,0.91,5.04,-3.81,-4.52,2,4
17443.593,0.025,0.392,0.903,6.01,-3.02,-4.52,2,4
17443.593,0.026,0.395,0.897,5.86,-3.05,-4.0,2,4
17443.609,0.028,0.399,0.895,4.36,-3.17,-3.91,2,4
17443.625,0.027,0.402,0.893,2.78,-3.27,-4.06,2,4
17443.625,0.033,0.402,0.89,2.29,-3.51,-3.85,2,4
17443.64,0.042,0.401,0.884,2.44,-2.69,-3.66,2,4
17443.64,0.042,0.404,0.884,2.9,-1.31,-3.42,2,4
17443.656,0.037,0.408,0.885,3.45,-0.34,-3.08,2,4
17443.671,0.037,0.412,0.886,3.66,0.0,-2.81,2,4
17443.671,0.036,0.423,0.894,3.88,-0.18,-2.69,2,4
17443.687,0.035,0.43,0.894,4.52,-0.76,-2.38,2,4
17443.703,0.041,0.437,0.893,5.1,-1.16,-1.74,2,4
17443.703,0.039,0.443,0.894,5.43,-1.37,-1.1,2,4
17443.718,0.034,0.439,0.899,4.91,-1.5,0.03,2,4
17443.734,0.029,0.43,0.906,3.75,-1.4,1.1,2,4
17443.734,0.031,0.416,0.903,2.72,-1.68,2.01,2,4
17443.75,0.037,0.406,0.9,1.19,-2.04,2.38,2,4
17443.75,0.042,0.398,0.904,-0.46,-2.23,1.98,2,4
17443.765,0.047,0.39,0.907,-1.1,-2.04,1.22,2,4
17443.781,0.048,0.388,0.911,-0.82,-1.43,0.27,2,4
17443.796,0.044,0.393,0.918,-0.06,-0.95,-0.58,2,4
17443.796,0.041,0.399,0.922,1.01,-1.04,-1.13,2,4
17443.812,0.035,0.406,0.917,1.74,-1.34,-0.98,2,4
17443.812,0.042,0.406,0.909,2.11,-1.62,-0.4,2,4
17443.828,0.045,0.404,0.903,1.86,-1.56,-0.12,2,4
17443.843,0.047,0.399,0.9,1.19,-1.34,-0.27,2,4
17443.843,0.05,0.4,0.903,0.55,-0.76,-0.52,2,4
17443.859,0.049,0.404,0.91,0.46,0.06,-0.7,2,4
17443.875,0.04,0.409,0.916,1.16,0.31,-0.79,2,4
17443.875,0.032,0.413,0.914,1.83,-0.18,-0.4,2,4
17443.89,0.034,0.415,0.905,2.08,-1.04,0.15,2,4
17443.89,0.033,0.413,0.901,1.95,-1.25,0.55,2,4
17443.906,0.024,0.414,0.899,1.65,-1.07,0.55,2,4
17443.921,0.025,0.417,0.892,0.92,-1.4,1.04,2,4
17443.921,0.03,0.423,0.894,-0.61,-1.56,1.98,2,4
17443.937,0.032,0.426,0.898,-2.62,-1.4,2.56,2,4
17443.953,0.034,0.421,0.899,-4.09,-1.53,3.2,2,4
17443.953,0.035,0.418,0.9,-5.1,-1.46,3.75,2,4
17443.968,0.029,0.416,0.907,-5.25,-1.01,3.72,2,4
17443.984,0.024,0.402,0.908,-4.85,-1.37,3.78,2,4
17443.984,0.033,0.393,0.907,-2.96,-2.14,3.08,2,4
17444.0,0.04,0.389,0.908,-1.28,-1.62,2.23,2,4
17444.015,0.04,0.392,0.909,0.06,-1.1,1.59,2,4
17444.015,0.039,0.392,0.911,0.7,-0.82,0.92,2,4
17444.031,0.039,0.402,0.908,0.46,-0.89,0.24,2,4
17444.031,0.033,0.404,0.909,-0.18,-0.85,-0.24,2,4
17444.046,0.034,0.406,0.903,-0.79,-1.13,0.0,2,4
17444.062,0.04,0.412,0.906,-0.95,-1.1,0.46,2,4
17444.062,0.034,0.421,0.913,-0.52,-0.15,0.67,2,4
17444.078,0.026,0.419,0.912,-0.67,0.46,1.31,2,4
17444.093,0.026,0.417,0.907,-1.37,0.15,1.5,2,4
17444.093,0.027,0.409,0.899,-2.04,-0.37,1.34,2,4
17444.109,0.032,0.4,0.89,-2.53,-0.79,1.01,2,4
17444.125,0.038,0.4,0.891,-2.47,-0.85,0.52,2,4
17444.125,0.033,0.405,0.894,-1.83,-0.73,0.24,2,4
17444.14,0.028,0.407,0.894,-1.65,-0.82,0.21,2,4
17444.14,0.029,0.404,0.892,-2.26,-1.65,0.55,2,4
17444.156,0.036,0.4,0.895,-3.14,-2.11,1.13,2,4
17444.171,0.04,0.395,0.904,-3.51,-1.92,1.28,2,4
17444.171,0.045,0.393,0.909,-2.78,-1.53,0.92,2,4
17444.187,0.05,0.394,0.908,-1.37,-1.1,0.85,2,4
17444.203,0.049,0.394,0.907,-0.27,-0.61,1.1,2,4
17444.203,0.051,0.392,0.909,0.06,-0.52,0.73,2,4
17444.218,0.052,0.394,0.91,-0.06,-0.64,-0.06,2,4
17444.234,0.05,0.398,0.917,-0.21,-1.01,-0.76,2,4
17444.25,0.041,0.414,0.927,-0.03,-1.4,-0.82,2,4
17444.25,0.039,0.422,0.924,0.18,-2.11,-0.09,2,4
17444.25,0.038,0.422,0.921,-0.7,-2.69,0.58,2,4
17444.265,0.036,0.422,0.918,-2.41,-3.2,1.01,2,4
17444.281,0.041,0.415,0.91,-3.63,-3.66,1.28,2,4
17444.281,0.043,0.404,0.903,-3.97,-3.45,1.59,2,4
17444.296,0.038,0.393,0.899,-3.91,-3.02,1.65,2,4
17444.312,0.032,0.39,0.907,-3.2,-2.93,1.37,2,4
17444.328,0.029,0.39,0.906,-2.5,-3.6,1.59,2,4
17444.328,0.038,0.394,0.909,-2.75,-4.67,1.83,2,4
17444.343,0.039,0.398,0.91,-3.23,-5.49,2.04,2,4
17444.343,0.041,0.395,0.91,-3.45,-5.8,2.53,2,4
17444.359,0.047,0.394,0.906,-3.6,-5.89,2.81,2,4
17444.375,0.048,0.391,0.902,-3.91,-5.28,2.53,2,4
17444.375,0.045,0.386,0.901,-3.88,-4.36,2.11,2,4
17444.39,0.044,0.38,0.899,-3.51,-3.69,2.29,2,4
17444.39,0.048,0.38,0.904,-2.87,-3.3,2.14,2,4
17444.406,0.043,0.382,0.91,-1.83,-2.9,2.04,2,4
17444.421,0.044,0.381,0.905,-1.34,-3.11,2.41,2,4
17444.421,0.045,0.388,0.906,-1.8,-3.54,2.66,2,4
17444.437,0.04,0.396,0.906,-3.11,-3.75,2.84,2,4
17444.453,0.041,0.398,0.912,-4.55,-4.12,3.42,2,4
17444.453,0.041,0.399,0.911,-5.55,-4.24,4.3,2,4
17444.468,0.047,0.393,0.91,-6.23,-4.15,4.52,2,4
17444.484,0.056,0.388,0.917,-6.04,-3.69,4.09,2,4
17444.484,0.058,0.384,0.922,-4.61,-2.9,3.23,2,4
17444.5,0.061,0.385,0.929,-2.59,-2.26,2.04,2,4
17444.5,0.06,0.391,0.933,-0.61,-2.08,1.19,2,4
17444.515,0.057,0.399,0.936,0.61,-2.41,0.49,2,4
17444.531,0.06,0.404,0.929,0.89,-3.39,0.49,2,4
17444.546,0.063,0.403,0.918,0.15,-4.33,0.76,2,4
17444.546,0.064,0.402,0.906,-1.01,-4.55,0.7,2,4
17444.562,0.063,0.399,0.901,-2.01,-4.24,0.92,2,4
17444.562,0.066,0.392,0.898,-2.53,-3.57,1.04,2,4
17444.578,0.067,0.388,0.907,-2.78,-2.96,0.98,2,4
17444.593,0.062,0.383,0.919,-2.38,-2.62,0.73,2,4
17444.593,0.062,0.379,0.916,-0.73,-2.69,0.58,2,4
17444.609,0.064,0.385,0.911,0.64,-2.87,0.27,2,4
17444.625,0.066,0.383,0.91,1.01,-2.53,-0.52,2,4
17444.625,0.066,0.387,0.92,0.52,-2.04,-1.25,2,4
17444.64,0.058,0.387,0.928,0.43,-1.59,-1.53,2,4
17444.64,0.046,0.384,0.937,0.98,-1.53,-1.04,2,4
17444.656,0.037,0.38,0.946,1.92,-2.81,-0.15,2,4
17444.671,0.028,0.382,0.943,2.41,-5.89,-0.21,2,4
17444.671,0.027,0.388,0.938,2.78,-11.54,-1.43,2,4
17444.687,0.022,0.388,0.923,5.37,-16.48,-2.35,2,4
17444.703,0.024,0.395,0.917,9.7,-19.5,-2.2,2,4
17444.703,0.033,0.408,0.91,14.4,-22.16,-1.31,2,4
17444.718,0.082,0.421,0.917,16.02,-24.26,-0.12,2,4
17444.734,0.12,0.428,0.926,14.4,-25.61,-0.24,2,4
17444.734,0.125,0.438,0.882,10.86,-24.08,-0.43,2,4
17444.75,0.127,0.431,0.877,6.32,-20.57,0.98,2,4
17444.75,0.112,0.41,0.886,5.1,-17.18,3.05,2,4
17444.765,0.113,0.402,0.886,4.88,-14.89,5.86,2,4
17444.781,0.124,0.402,0.888,3.6,-12.67,8.0,2,4
17444.781,0.12,0.395,0.899,3.05,-10.25,8.73,2,4
17444.796,0.105,0.38,0.903,3.3,-8.94,8.88,2,4
17444.812,0.116,0.37,0.906,3.3,-9.4,8.79,2,4
17444.812,0.135,0.37,0.898,3.2,-9.13,7.69,2,4
17444.828,0.139,0.366,0.888,3.02,-7.35,5.49,2,4
17444.843,0.139,0.363,0.887,3.14,-4.91,3.57,2,4
17444.843,0.124,0.368,0.893,3.78,-2.9,2.2,2,4
17444.859,0.114,0.37,0.896,4.61,-2.04,1.53,2,4
17444.875,0.108,0.376,0.896,6.01,-2.23,1.43,2,4
17444.875,0.11,0.386,0.895,8.3,-2.53,2.08,2,4
17444.89,0.116,0.398,0.886,9.55,-2.56,2.69,2,4
17444.89,0.121,0.408,0.877,8.7,-1.71,3.2,2,4
17444.906,0.116,0.413,0.87,6.71,-0.46,3.42,2,4
17444.921,0.108,0.413,0.866,3.81,0.49,3.94,2,4
17444.921,0.106,0.412,0.869,1.13,1.04,4.36,2,4
17444.937,0.109,0.402,0.87,-0.12,2.14,4.61,2,4
17444.953,0.114,0.405,0.869,-0.4,3.78,4.24,2,4
17444.953,0.113,0.401,0.871,0.21,5.55,2.78,2,4
17444.968,0.107,0.401,0.87,1.62,8.21,0.12,2,4
17444.984,0.097,0.418,0.873,1.04,8.73,-0.4,2,4
17444.984,0.091,0.423,0.881,-0.12,8.97,-0.46,2,4
17445.0,0.089,0.422,0.882,-0.64,9.31,-0.4,2,4
17445.0,0.074,0.417,0.922,4.18,10.68,-0.37,2,4
17445.015,0.07,0.44,0.895,10.19,11.69,-1.34,2,4
17445.031,0.064,0.454,0.899,8.97,11.84,-3.54,2,4
17445.031,0.053,0.453,0.9,5.49,11.35,-5.98,2,4
17445.046,0.043,0.461,0.911,3.51,11.47,-7.23,2,4
17445.062,0.023,0.452,0.911,4.33,11.99,-7.17,2,4
17445.062,-0.017,0.453,0.877,5.89,12.33,-4.52,2,4
17445.078,0.009,0.444,0.914,4.52,10.44,2.17,2,4
17445.093,0.057,0.437,0.926,-1.1,7.51,6.44,2,4
17445.093,0.054,0.428,0.954,-4.67,8.36,8.58,2,4
17445.109,0.057,0.368,0.959,0.43,8.88,8.79,2,4
17445.125,0.057,0.368,0.933,3.97,7.29,5.46,2,4
17445.125,0.052,0.39,0.915,1.8,4.67,0.89,2,4
17445.14,0.052,0.384,0.92,-0.92,2.29,-2.69,2,4
17445.156,0.053,0.378,0.921,-0.85,0.7,-4.67,2,4
17445.156,0.057,0.396,0.912,1.04,0.24,-5.77,2,4
17445.171,0.058,0.413,0.901,1.59,0.4,-6.56,2,4
17445.171,0.056,0.422,0.903,-0.55,0.7,-6.81,2,4
17445.187,0.052,0.422,0.908,-3.02,0.64,-6.35,2,4
17445.203,0.051,0.422,0.913,-4.55,0.0,-5.4,2,4
17445.203,0.054,0.421,0.91,-4.18,-0.82,-4.52,2,4
17445.218,0.059,0.412,0.904,-3.27,-1.4,-4.24,2,4
17445.234,0.06,0.407,0.898,-2.75,-1.92,-4.27,2,4
17445.234,0.065,0.401,0.891,-1.77,-2.08,-4.27,2,4
17445.25,0.068,0.401,0.888,0.15,-1.65,-4.27,2,4
17445.265,0.071,0.404,0.886,1.65,-1.01,-4.58,2,4
17445.265,0.073,0.409,0.888,1.59,-0.67,-4.97,2,4
17445.281,0.068,0.409,0.891,0.85,-0.64,-5.43,2,4
17445.281,0.066,0.408,0.896,0.18,-1.34,-5.49,2,4
17445.296,0.069,0.405,0.897,-0.03,-2.14,-5.25,2,4
17445.312,0.072,0.4,0.895,0.03,-2.72,-5.46,2,4
17445.312,0.075,0.407,0.904,0.15,-3.2,-5.68,2,4
17445.328,0.076,0.413,0.907,1.07,-3.75,-5.49,2,4
17445.343,0.077,0.414,0.908,1.98,-4.64,-5.46,2,4
17445.343,0.08,0.417,0.907,3.08,-5.4,-5.65,2,4
17445.359,0.081,0.42,0.901,4.64,-5.92,-5.89,2,4
17445.375,0.084,0.42,0.892,5.86,-5.92,-5.92,2,4
17445.375,0.085,0.424,0.883,6.47,-5.71,-5.95,2,4
17445.39,0.086,0.435,0.887,6.44,-5.13,-5.74,2,4
17445.39,0.083,0.439,0.883,5.89,-4.64,-5.19,2,4
17445.406,0.079,0.442,0.891,4.36,-4.67,-4.88,2,4
17445.421,0.082,0.438,0.895,3.45,-5.16,-4.64,2,4
17445.421,0.085,0.435,0.888,3.72,-5.37,-4.24,2,4
17445.437,0.086,0.436,0.883,3.85,-4.97,-4.15,2,4
17445.453,0.081,0.435,0.882,3.63,-4.64,-4.33,2,4
17445.453,0.085,0.444,0.88,3.45,-4.24,-4.39,2,4
17445.468,0.088,0.449,0.88,3.57,-3.51,-4.27,2,4
17445.484,0.086,0.446,0.881,3.72,-2.44,-3.85,2,4
17445.484,0.083,0.448,0.889,3.88,-1.43,-3.2,2,4
17445.5,0.084,0.451,0.892,4.18,-1.34,-2.38,2,4
17445.515,0.087,0.444,0.888,4.94,-1.43,-1.74,2,4
17445.515,0.089,0.441,0.882,5.4,-1.43,-1.53,2,4
17445.531,0.079,0.442,0.89,5.28,-1.19,-1.65,2,4
17445.531,0.073,0.435,0.892,4.91,-2.01,-1.65,2,4
17445.546,0.077,0.428,0.885,4.39,-3.08,-1.19,2,4
17445.562,0.078,0.423,0.881,4.36,-3.27,-1.19,2,4
17445.562,0.079,0.423,0.885,4.3,-2.81,-1.34,2,4
17445.578,0.081,0.427,0.892,4.58,-2.41,-1.04,2,4
17445.593,0.08,0.435,0.896,4.36,-2.08,-0.46,2,4
17445.609,0.079,0.441,0.899,2.96,-1.77,-0.09,2,4
17445.609,0.073,0.434,0.904,1.28,-1.8,-0.27,2,4
17445.609,0.069,0.43,0.907,0.52,-2.23,-0.34,2,4
17445.625,0.067,0.429,0.904,0.92,-2.11,-0.52,2,4
17445.64,0.06,0.428,0.899,1.98,-1.4,-0.7,2,4
17445.64,0.053,0.428,0.897,2.72,-1.01,-0.89,2,4
17445.656,0.052,0.432,0.895,2.81,-0.79,-1.04,2,4
17445.671,0.047,0.435,0.892,2.9,-0.46,-0.85,2,4
17445.687,0.046,0.437,0.886,2.44,-0.21,-0.27,2,4
17445.687,0.05,0.439,0.885,1.13,0.15,0.15,2,4
17445.703,0.05,0.441,0.89,-0.09,0.7,0.58,2,4
17445.703,0.038,0.438,0.897,-0.85,0.73,0.98,2,4
17445.718,0.039,0.426,0.89,-1.8,0.12,1.19,2,4
17445.734,0.045,0.422,0.898,-2.9,0.31,0.82,2,4
17445.734,0.041,0.415,0.905,-2.38,0.79,0.0,2,4
17445.75,0.041,0.415,0.913,-1.07,0.76,-0.55,2,4
17445.75,0.042,0.419,0.909,-0.34,0.21,-1.1,2,4
17445.765,0.043,0.421,0.91,-0.34,-0.37,-1.43,2,4
17445.781,0.048,0.416,0.907,-0.67,-1.62,-1.95,2,4
17445.781,0.051,0.406,0.899,-0.95,-3.11,-2.99,2,4
17445.796,0.055,0.401,0.895,-0.98,-4.61,-3.81,2,4
17445.812,0.062,0.394,0.886,-0.24,-6.07,-5.01,2,4
17445.812,0.07,0.389,0.879,1.1,-7.26,-6.16,2,4
17445.828,0.078,0.386,0.874,3.91,-7.51,-6.87,2,4
17445.843,0.073,0.39,0.867,8.48,-6.93,-7.23,2,4
17445.843,0.075,0.39,0.861,14.13,-6.53,-6.81,2,4
17445.859,0.078,0.395,0.864,20.08,-6.13,-6.38,2,4
17445.875,0.075,0.402,0.871,26.76,-6.04,-6.44,2,4
17445.875,0.085,0.417,0.882,33.42,-6.41,-7.23,2,4
17445.89,0.089,0.446,0.879,38.12,-7.02,-8.97,2,4
17445.89,0.083,0.495,0.857,38.64,-7.6,-9.64,2,4
17445.906,0.09,0.537,0.834,32.93,-8.76,-8.03,2,4
17445.921,0.093,0.558,0.829,23.5,-9.19,-5.34,2,4
17445.921,0.096,0.567,0.835,13.55,-9.25,-1.65,2,4
17445.937,0.103,0.561,0.841,5.58,-9.03,2.08,2,4
17445.953,0.104,0.545,0.848,0.82,-8.64,5.07,2,4
17445.953,0.107,0.527,0.86,0.0,-6.87,6.96,2,4
17445.968,0.101,0.513,0.864,1.68,-6.23,6.78,2,4
17445.984,0.101,0.505,0.864,3.14,-5.8,6.2,2,4
17445.984,0.094,0.504,0.86,3.54,-5.52,5.28,2,4
17446.0,0.091,0.493,0.856,2.35,-5.34,4.79,2,4
17446.015,0.098,0.492,0.866,1.19,-4.85,5.34,2,4
17446.015,0.111,0.508,0.866,1.59,-3.85,4.67,2,4
17446.031,0.089,0.498,0.864,0.27,-2.9,2.5,2,4
17446.031,0.085,0.486,0.875,-3.3,-3.42,1.31,2,4
17446.046,0.089,0.476,0.875,-4.52,-3.97,0.61,2,4
17446.062,0.089,0.463,0.866,-3.75,-3.78,-0.4,2,4
17446.062,0.086,0.463,0.863,-2.75,-2.66,-1.25,2,4
17446.078,0.082,0.466,0.866,-1.56,-1.5,-1.83,2,4
17446.093,0.082,0.467,0.872,-0.15,-0.76,-1.8,2,4
17446.109,0.081,0.467,0.875,1.62,-0.12,-1.59,2,4
17446.109,0.08,0.468,0.872,2.9,0.03,-1.4,2,4
17446.125,0.084,0.469,0.871,3.23,-0.03,-1.77,2,4
17446.125,0.079,0.471,0.872,3.88,-0.03,-2.23,2,4
17446.14,0.073,0.478,0.868,3.27,-0.52,-2.32,2,4
17446.156,0.075,0.48,0.863,2.23,-1.04,-2.04,2,4
17446.156,0.077,0.472,0.86,2.26,-0.98,-1.65,2,4
17446.171,0.077,0.467,0.857,2.47,-0.61,-1.37,2,4
17446.187,0.078,0.465,0.853,2.47,-0.43,-1.5,2,4
17446.187,0.082,0.465,0.852,2.56,-0.06,-1.86,2,4
17446.203,0.085,0.473,0.855,2.93,0.55,-2.11,2,4
17446.203,0.088,0.479,0.855,3.54,1.4,-1.83,2,4
17446.218,0.094,0.487,0.853,3.88,2.47,-0.98,2,4
17446.234,0.095,0.497,0.857,3.51,3.57,-0.18,2,4
17446.234,0.093,0.501,0.868,2.84,4.21,0.55,2,4
17446.25,0.088,0.501,0.877,2.44,4.18,1.31,2,4
17446.265,0.091,0.504,0.879,2.23,3.39,2.44,2,4
17446.265,0.097,0.5,0.876,2.75,2.69,3.88,2,4
17446.281,0.102,0.498,0.882,4.33,2.78,5.16,2,4
17446.281,0.108,0.498,0.904,7.2,3.2,5.89,2,4
17446.296,0.11,0.496,0.924,11.17,3.81,6.29,2,4
17446.312,0.122,0.522,0.944,15.72,3.39,6.04,2,4
17446.328,0.099,0.543,0.954,21.06,1.34,4.12,2,4
17446.328,0.063,0.56,0.976,25.15,-4.97,2.44,2,4
17446.343,0.066,0.544,1.024,26.67,-17.12,0.64,2,4
17446.343,0.121,0.553,1.019,32.81,-30.21,1.13,2,4
17446.359,0.216,0.589,0.912,39.03,-37.51,4.88,2,4
17446.375,0.251,0.583,0.835,37.32,-37.84,4.58,2,4
17446.375,0.229,0.536,0.808,33.3,-34.06,6.99,2,4
17446.39,0.323,0.577,0.79,29.54,-30.95,10.65,2,4
17446.39,0.293,0.569,0.751,25.64,-25.73,7.45,2,4
17446.406,0.292,0.53,0.761,16.08,-22.49,8.42,2,4
17446.421,0.298,0.511,0.783,9.52,-19.59,10.68,2,4
17446.421,0.298,0.483,0.791,8.09,-17.33,12.39,2,4
17446.437,0.303,0.46,0.791,7.51,-15.75,13.98,2,4
17446.453,0.3,0.443,0.796,6.78,-14.22,14.07,2,4
17446.468,0.29,0.427,0.803,4.33,-13.89,13.64,2,4
17446.468,0.287,0.417,0.82,0.21,-15.72,11.96,2,4
17446.484,0.291,0.413,0.836,-3.45,-18.37,9.46,2,4
17446.484,0.293,0.398,0.842,-5.1,-20.75,6.41,2,4
17446.5,0.282,0.393,0.839,-3.05,-21.73,3.3,2,4
17446.515,0.29,0.406,0.835,2.26,-21.42,1.62,2,4
17446.515,0.299,0.424,0.813,10.25,-18.52,-0.03,2,4
17446.531,0.304,0.445,0.781,17.12,-12.6,-2.11,2,4
17446.531,0.307,0.465,0.765,20.51,-4.49,-4.94,2,4
17446.546,0.285,0.476,0.752,22.58,5.28,-8.51,2,4
17446.562,0.252,0.503,0.73,19.65,14.44,-12.54,2,4
17446.578,0.229,0.545,0.712,8.7,21.52,-16.69,2,4
17446.578,0.198,0.549,0.724,-6.16,27.8,-20.72,2,4
17446.593,0.161,0.524,0.75,-20.91,32.01,-24.54,2,4
17446.593,0.127,0.498,0.782,-31.83,34.15,-27.38,2,4
17446.609,0.096,0.48,0.812,-36.04,35.86,-28.44,2,4
17446.625,0.068,0.475,0.841,-33.97,37.6,-27.1,2,4
17446.625,0.045,0.482,0.865,-27.59,38.88,-24.84,2,4
17446.64,0.026,0.489,0.861,-18.59,39.74,-23.16,2,4
17446.656,0.023,0.489,0.821,-12.91,40.38,-22.46,2,4
17446.656,0.008,0.538,0.799,-15.5,41.51,-23.83,2,4
17446.671,-0.024,0.535,0.832,-19.47,41.17,-26.89,2,4
17446.671,-0.042,0.515,0.808,-25.79,38.15,-31.89,2,4
17446.687,-0.041,0.535,0.775,-34.82,37.75,-33.14,2,4
17446.703,-0.059,0.515,0.745,-41.41,38.24,-34.42,2,4
17446.703,-0.07,0.5,0.762,-47.61,38.3,-34.42,2,4
17446.718,-0.071,0.498,0.818,-47.4,39.77,-33.36,2,4
17446.734,-0.094,0.469,0.849,-36.68,42.27,-32.01,2,4
17446.734,-0.112,0.48,0.844,-23.56,44.37,-29.48,2,4
17446.75,-0.102,0.519,0.832,-12.76,46.69,-26.76,2,4
17446.765,-0.09,0.532,0.802,-6.01,50.05,-25.79,2,4
17446.765,-0.094,0.536,0.777,-5.34,54.29,-26.22,2,4
17446.781,-0.096,0.541,0.752,-9.06,60.09,-27.07,2,4
17446.781,-0.108,0.545,0.746,-15.93,67.26,-27.5,2,4
17446.796,-0.144,0.544,0.769,-20.54,74.16,-27.1,2,4
17446.812,-0.198,0.535,0.799,-19.1,78.19,-23.35,2,4
17446.812,-0.226,0.526,0.853,-13.43,78.19,-15.75,2,4
17446.828,-0.23,0.519,0.893,-2.29,74.74,-7.66,2,4
17446.843,-0.222,0.53,0.88,9.43,69.34,-2.14,2,4
17446.843,-0.209,0.567,0.844,14.62,63.48,0.52,2,4
17446.859,-0.207,0.583,0.814,11.66,59.69,1.53,2,4
17446.875,-0.199,0.585,0.8,2.41,57.95,1.62,2,4
17446.875,-0.206,0.569,0.78,-8.7,58.69,1.46,2,4
17446.89,-0.209,0.544,0.765,-19.93,60.91,1.04,2,4
17446.906,-0.213,0.502,0.77,-29.63,63.39,0.03,2,4
17446.906,-0.216,0.459,0.799,-35.16,65.92,-1.01,2,4
17446.921,-0.231,0.428,0.831,-34.46,67.51,-2.26,2,4
17446.921,-0.252,0.413,0.85,-28.72,67.32,-4.09,2,4
17446.937,-0.269,0.414,0.866,-10.16,62.07,-4.09,2,4
17446.953,-0.278,0.42,0.872,-2.84,57.95,-4.82,2,4
17446.953,-0.282,0.436,0.86,-0.76,54.11,-6.23,2,4
17446.968,-0.281,0.455,0.832,-4.52,51.61,-7.05,2,4
17446.984,-0.277,0.451,0.798,-13.34,50.17,-8.88,2,4
17446.984,-0.291,0.43,0.797,-23.74,49.96,-11.99,2,4
17447.0,-0.307,0.408,0.815,-32.41,49.71,-14.56,2,4
17447.015,-0.357,0.408,0.878,-35.83,48.46,-15.35,2,4
17447.015,-0.526,0.424,1.091,-30.79,39.31,-10.25,2,4
17447.031,-0.388,0.399,1.101,-18.89,16.24,4.43,2,4
17447.031,-0.299,0.444,1.05,-17.82,-3.33,7.57,2,4
17447.046,-0.329,0.362,1.008,-19.68,-14.4,2.47,2,4
17447.062,-0.269,0.324,0.91,-16.33,-15.26,3.36,2,4
17447.062,-0.263,0.324,0.855,-9.7,-9.4,3.02,2,4
17447.078,-0.275,0.325,0.864,-4.61,-3.91,1.13,2,4
17447.093,-0.267,0.374,0.874,-0.49,0.79,1.65,2,4
17447.093,-0.286,0.371,0.865,1.74,2.38,0.89,2,4
17447.109,-0.289,0.393,0.878,-0.24,1.92,1.31,2,4
17447.125,-0.281,0.404,0.873,-1.8,1.16,2.56,2,4
17447.125,-0.27,0.392,0.857,-2.59,1.5,3.75,2,4
17447.14,-0.268,0.387,0.854,-3.08,2.41,3.57,2,4
17447.14,-0.272,0.382,0.854,-2.41,3.3,2.29,2,4
17447.156,-0.276,0.386,0.863,-2.29,3.14,1.13,2,4
17447.171,-0.279,0.387,0.879,-2.41,1.98,0.46,2,4
17447.171,-0.285,0.38,0.885,-2.11,1.37,0.37,2,4
17447.187,-0.288,0.373,0.9,-3.05,0.49,-0.24,2,4
17447.203,-0.288,0.363,0.911,-3.27,-1.1,-1.43,2,4
17447.203,-0.295,0.356,0.921,-3.05,-3.3,-2.62,2,4
17447.218,-0.294,0.337,0.925,-2.62,-7.02,-5.25,2,4
17447.234,-0.287,0.331,0.929,-2.5,-11.99,-8.36,2,4
17447.234,-0.287,0.316,0.927,-1.92,-17.33,-10.44,2,4
17447.25,-0.287,0.302,0.933,-3.27,-23.68,-12.6,2,4
17447.265,-0.288,0.308,0.943,-4.7,-31.53,-14.4,2,4
17447.265,-0.279,0.32,0.953,-4.79,-39.0,-14.04,2,4
17447.281,-0.249,0.311,0.931,-2.35,-44.37,-12.88,2,4
17447.296,-0.238,0.305,0.916,0.37,-46.82,-10.5,2,4
17447.296,-0.211,0.305,0.914,5.55,-45.38,-5.04,2,4
17447.312,-0.179,0.304,0.895,12.6,-41.23,-1.95,2,4
17447.312,-0.17,0.319,0.873,16.75,-35.22,-2.5,2,4
17447.328,-0.172,0.341,0.866,15.96,-28.93,-4.46,2,4
17447.343,-0.165,0.341,0.872,12.6,-24.81,-9.37,2,4
17447.343,-0.171,0.354,0.879,9.64,-22.64,-15.63,2,4
17447.359,-0.185,0.362,0.88,9.09,-21.42,-19.56,2,4
17447.375,-0.186,0.37,0.882,10.62,-21.33,-21.49,2,4
17447.375,-0.189,0.39,0.879,13.86,-21.52,-22.25,2,4
17447.39,-0.196,0.4,0.873,18.04,-21.49,-21.64,2,4
17447.406,-0.193,0.412,0.856,20.54,-21.0,-20.75,2,4
17447.406,-0.188,0.424,0.843,19.96,-19.87,-21.12,2,4
17447.421,-0.194,0.443,0.834,16.27,-17.88,-22.98,2,4
17447.437,-0.199,0.454,0.833,10.96,-16.27,-24.6,2,4
17447.437,-0.205,0.446,0.845,5.95,-15.38,-25.42,2,4
17447.453,-0.221,0.452,0.87,1.71,-15.66,-26.98,2,4
17447.453,-0.239,0.47,0.895,-1.71,-18.49,-28.72,2,4
17447.468,-0.251,0.469,0.905,-2.26,-22.77,-28.99,2,4
17447.484,-0.251,0.479,0.912,-0.61,-26.86,-28.41,2,4
17447.5,-0.251,0.491,0.917,2.26,-29.97,-27.83,2,4
17447.5,-0.257,0.492,0.928,4.58,-33.63,-28.53,2,4
17447.515,-0.272,0.48,0.935,5.83,-38.39,-31.19,2,4
17447.515,-0.28,0.467,0.918,7.11,-43.52,-34.76,2,4
17447.531,-0.27,0.454,0.896,8.33,-47.55,-39.4,2,4
17447.531,-0.263,0.451,0.857,9.16,-49.81,-43.92,2,4
17447.546,-0.262,0.472,0.817,7.17,-50.05,-44.43,2,4
17447.562,-0.238,0.498,0.796,2.96,-48.86,-39.12,2,4
17447.562,-0.205,0.51,0.793,0.85,-45.17,-30.82,2,4
17447.578,-0.185,0.506,0.789,1.16,-39.4,-23.41,2,4
17447.593,-0.185,0.491,0.782,0.82,-33.11,-17.55,2,4
17447.593,-0.188,0.463,0.793,-0.98,-27.44,-11.9,2,4
17447.609,-0.177,0.436,0.825,-2.78,-24.38,-8.64,2,4
17447.625,-0.171,0.411,0.846,-2.78,-24.35,-9.95,2,4
17447.625,-0.163,0.402,0.846,-2.41,-26.03,-13.86,2,4
17447.64,-0.146,0.406,0.84,-3.39,-27.34,-17.79,2,4
17447.656,-0.13,0.4,0.846,-5.01,-26.95,-20.72,2,4
17447.656,-0.118,0.387,0.847,-5.43,-24.02,-21.36,2,4
17447.671,-0.109,0.374,0.847,-4.46,-18.65,-20.11,2,4
17447.687,-0.096,0.369,0.86,-2.29,-12.73,-18.1,2,4
17447.687,-0.09,0.365,0.863,-0.12,-8.24,-16.66,2,4
17447.703,-0.086,0.363,0.873,0.49,-6.13,-15.5,2,4
17447.703,-0.089,0.365,0.874,1.31,-5.31,-13.92,2,4
17447.718,-0.084,0.372,0.879,2.47,-5.19,-12.02,2,4
17447.734,-0.083,0.373,0.889,2.62,-6.74,-11.11,2,4
17447.75,-0.074,0.387,0.892,1.68,-9.37,-10.77,2,4
17447.75,-0.08,0.387,0.883,2.01,-10.77,-9.4,2,4
17447.765,-0.076,0.388,0.884,1.01,-11.9,-8.24,2,4
17447.765,-0.065,0.385,0.887,0.34,-11.81,-7.63,2,4
17447.781,-0.059,0.388,0.88,0.89,-10.28,-7.6,2,4
17447.781,-0.055,0.39,0.876,2.44,-7.14,-7.72,2,4
17447.796,-0.056,0.39,0.88,4.21,-3.48,-8.3,2,4
17447.812,-0.068,0.385,0.887,6.41,0.64,-9.7,2,4
17447.812,-0.089,0.385,0.899,6.78,3.17,-12.79,2,4
17447.828,-0.119,0.414,0.924,4.52,2.69,-16.36,2,4
17447.843,-0.153,0.449,0.956,-0.46,0.18,-17.82,2,4
17447.843,-0.175,0.465,0.982,-8.36,-4.82,-17.52,2,4
17447.859,-0.171,0.466,1.013,-17.55,-12.42,-16.97,2,4
17447.875,-0.174,0.449,1.023,-21.06,-18.83,-15.23,2,4
17447.875,-0.172,0.431,1.011,-17.33,-22.16,-10.68,2,4
17447.89,-0.148,0.433,0.993,-9.28,-22.16,-4.73,2,4
17447.906,-0.125,0.43,0.961,0.43,-19.01,-0.95,2,4
17447.906,-0.119,0.42,0.929,7.08,-14.8,0.52,2,4
17447.921,-0.121,0.417,0.911,9.83,-10.22,1.22,2,4
17447.921,-0.125,0.413,0.894,7.75,-4.06,2.38,2,4
17447.937,-0.137,0.402,0.892,4.61,-3.78,2.47,2,4
17447.953,-0.156,0.392,0.897,1.1,-5.98,1.77,2,4
17447.953,-0.163,0.386,0.898,-2.11,-9.52,0.67,2,4
17447.968,-0.155,0.369,0.893,-5.49,-13.03,0.03,2,4
17447.984,-0.142,0.337,0.899,-10.22,-16.11,-2.17,2,4
17447.984,-0.129,0.328,0.888,-11.14,-18.74,-5.8,2,4
17448.0,-0.137,0.35,0.867,-8.12,-19.53,-7.51,2,4
17448.015,-0.132,0.372,0.861,-5.43,-18.74,-6.71,2,4
17448.015,-0.118,0.359,0.854,-4.52,-18.19,-6.74,2,4
17448.031,-0.11,0.342,0.854,-5.55,-17.88,-9.16,2,4
17448.031,-0.109,0.318,0.834,-5.25,-16.24,-11.84,2,4
17448.046,-0.095,0.333,0.761,-5.68,-12.05,-11.47,2,4
17448.062,-0.058,0.403,0.695,-9.22,-1.37,-7.69,2,4
17448.078,-0.035,0.444,0.732,-17.09,14.37,-2.01,2,4
17448.078,-0.072,0.456,0.827,-31.59,25.82,2.26,2,4
17448.093,-0.135,0.369,0.9,-37.93,28.05,4.64,2,4
17448.093,-0.16,0.313,0.96,-36.96,22.61,6.04,2,4
17448.109,-0.121,0.268,0.992,-24.29,18.04,7.08,2,4
17448.125,-0.18,0.316,1.064,-7.35,11.38,4.73,2,4
17448.125,-0.19,0.407,1.077,1.04,1.4,4.58,2,4
17448.14,-0.161,0.377,1.059,9.89,-6.84,5.46,2,4
17448.14,-0.151,0.393,1.037,12.73,-11.99,6.5,2,4
17448.156,-0.128,0.403,1.008,13.58,-14.53,7.39,2,4
17448.171,-0.13,0.389,0.987,17.55,-14.59,8.18,2,4
17448.187,-0.128,0.366,0.965,24.6,-13.4,8.94,2,4
17448.187,-0.119,0.367,0.944,31.92,-12.05,7.84,2,4
17448.203,-0.12,0.383,0.925,37.72,-11.17,5.89,2,4
17448.203,-0.127,0.391,0.907,41.47,-11.26,4.3,2,4
17448.218,-0.135,0.402,0.905,41.87,-12.02,2.78,2,4
17448.234,-0.151,0.448,0.925,36.68,-16.24,2.08,2,4
17448.234,-0.111,0.448,0.876,29.79,-19.23,3.3,2,4
17448.25,-0.101,0.373,0.853,31.89,-18.89,3.94,2,4
17448.265,-0.113,0.435,0.855,26.98,-19.59,3.69,2,4
17448.265,-0.092,0.485,0.858,19.07,-21.27,3.81,2,4
17448.281,-0.083,0.482,0.839,13.18,-21.21,6.29,2,4
17448.296,-0.066,0.449,0.839,6.53,-18.25,9.55,2,4
17448.296,-0.055,0.434,0.848,-0.18,-15.81,9.31,2,4
17448.312,-0.053,0.425,0.856,-4.55,-13.52,7.93,2,4
17448.312,-0.057,0.416,0.865,-4.64,-10.07,7.63,2,4
17448.328,-0.05,0.399,0.869,-2.11,-6.9,7.69,2,4
17448.343,-0.04,0.391,0.862,0.79,-3.85,7.05,2,4
17448.359,-0.045,0.4,0.862,4.09,-0.18,5.74,2,4
17448.359,-0.058,0.403,0.865,7.81,2.26,4.67,2,4
17448.375,-0.06,0.404,0.867,9.98,3.02,4.49,2,4
17448.375,-0.055,0.415,0.865,9.98,3.05,4.39,2,4
17448.39,-0.052,0.421,0.861,8.36,4.03,3.57,2,4
17448.406,-0.06,0.42,0.868,5.04,4.58,2.32,2,4
17448.406,-0.063,0.421,0.882,0.76,3.78,1.28,2,4
17448.421,-0.062,0.419,0.895,-3.27,2.66,0.73,2,4
17448.421,-0.067,0.405,0.902,-5.92,1.92,-0.24,2,4
17448.437,-0.072,0.397,0.903,-7.2,0.58,-1.19,2,4
17448.453,-0.07,0.396,0.898,-5.83,-0.49,-1.28,2,4
17448.453,-0.064,0.391,0.888,-3.78,-0.55,-1.28,2,4
17448.468,-0.058,0.381,0.878,-2.47,0.55,-2.26,2,4
17448.484,-0.062,0.378,0.878,-1.92,2.56,-3.88,2,4
17448.5,-0.073,0.377,0.887,-1.34,4.39,-5.43,2,4
17448.5,-0.084,0.381,0.901,-0.4,4.73,-6.53,2,4
17448.5,-0.082,0.378,0.897,2.62,4.97,-6.62,2,4
17448.515,-0.071,0.347,0.876,10.96,7.48,-6.84,2,4
17448.531,-0.11,0.347,0.897,18.28,9.13,-8.97,2,4
17448.531,-0.131,0.433,0.942,16.17,5.46,-10.53,2,4
17448.546,-0.126,0.442,0.951,15.2,0.09,-9.74,2,4
17448.562,-0.128,0.434,0.937,14.44,-4.55,-7.93,2,4
17448.562,-0.084,0.406,0.907,16.27,-4.03,-4.33,2,4
17448.578,-0.14,0.473,0.941,15.81,-3.57,-2.26,2,4
17448.593,-0.123,0.543,0.97,6.29,-4.55,0.79,2,4
17448.593,-0.118,0.503,1.003,0.49,-6.07,1.16,2,4
17448.609,-0.145,0.489,1.023,-1.98,-8.88,3.14,2,4
17448.625,-0.138,0.474,1.021,0.15,-13.7,5.71,2,4
17448.625,-0.116,0.431,0.989,7.11,-18.19,7.48,2,4
17448.64,-0.083,0.414,0.949,18.28,-20.39,7.97,2,4
17448.64,-0.071,0.416,0.902,29.3,-20.91,5.1,2,4
17448.656,-0.086,0.411,0.862,35.77,-20.63,1.28,2,4
17448.671,-0.073,0.435,0.839,35.34,-20.81,-0.67,2,4
17448.671,-0.075,0.493,0.835,29.79,-21.88,-2.53,2,4
17448.687,-0.04,0.518,0.79,18.59,-22.06,-1.53,2,4
17448.703,-0.023,0.437,0.748,14.68,-15.99,-0.21,2,4
17448.718,-0.055,0.472,0.757,6.68,-11.08,0.43,2,4
17448.718,-0.039,0.506,0.782,-4.0,-8.0,1.71,2,4
17448.734,-0.043,0.455,0.792,-11.32,-6.32,0.67,2,4
17448.734,-0.038,0.428,0.82,-16.02,-4.88,0.24,2,4
17448.75,-0.045,0.44,0.853,-15.53,-3.2,0.49,2,4
17448.765,-0.062,0.443,0.866,-11.14,-2.2,1.56,2,4
17448.765,-0.058,0.439,0.872,-7.45,-3.17,3.33,2,4
17448.781,-0.044,0.446,0.876,-4.49,-4.03,4.18,2,4
17448.781,-0.042,0.451,0.876,-1.59,-3.3,4.24,2,4
17448.796,-0.043,0.453,0.871,0.43,-2.29,4.06,2,4
17448.812,-0.036,0.46,0.865,-0.03,-1.1,3.51,2,4
17448.812,-0.037,0.466,0.86,-2.08,0.15,2.26,2,4
17448.828,-0.039,0.459,0.858,-4.39,1.34,1.31,2,4
17448.843,-0.04,0.454,0.862,-6.38,2.23,0.31,2,4
17448.859,-0.042,0.449,0.862,-7.84,2.69,-0.73,2,4
17448.859,-0.043,0.439,0.867,-8.12,3.3,-1.74,2,4
17448.875,-0.05,0.428,0.873,-6.74,3.54,-3.08,2,4
17448.875,-0.051,0.419,0.878,-4.58,3.36,-4.73,2,4
17448.89,-0.052,0.416,0.881,-1.59,3.14,-6.56,2,4
17448.906,-0.059,0.429,0.898,0.67,2.17,-8.21,2,4
17448.906,-0.058,0.45,0.912,2.11,0.31,-7.17,2,4
17448.921,-0.057,0.457,0.921,0.49,-0.7,-6.93,2,4
17448.937,-0.063,0.461,0.932,-2.72,-2.23,-5.86,2,4
17448.937,-0.065,0.461,0.939,-4.94,-3.94,-4.36,2,4
17448.953,-0.055,0.449,0.937,-5.58,-5.43,-4.36,2,4
17448.953,-0.039,0.433,0.924,-3.63,-5.68,-4.76,2,4
17448.968,-0.011,0.376,0.885,4.7,-1.98,-5.04,2,4
17448.984,-0.088,0.393,0.918,13.82,0.58,-7.54,2,4
17448.984,-0.062,0.486,0.935,10.68,-1.98,-7.97,2,4
17449.0,-0.058,0.425,0.928,14.44,-4.49,-9.13,2,4
17449.015,-0.082,0.43,0.935,16.3,-5.46,-9.31,2,4
17449.015,-0.072,0.477,0.942,17.55,-6.26,-8.18,2,4
17449.031,-0.1,0.504,0.954,20.72,-7.66,-7.08,2,4
17449.046,-0.12,0.52,0.951,24.23,-9.64,-4.21,2,4
17449.046,-0.114,0.537,0.935,26.92,-12.85,-0.73,2,4
17449.062,-0.119,0.564,0.922,29.91,-15.78,2.2,2,4
17449.062,-0.12,0.566,0.897,30.46,-19.35,5.65,2,4
17449.078,-0.095,0.535,0.865,25.85,-22.64,7.72,2,4
17449.093,-0.062,0.536,0.815,20.91,-22.71,7.97,2,4
17449.109,-0.089,0.544,0.81,16.39,-21.21,8.06,2,4
17449.109,-0.016,0.534,0.749,10.83,-18.62,8.85,2,4
17449.125,-0.005,0.399,0.741,11.99,-11.6,7.14,2,4
17449.125,-0.053,0.441,0.809,2.96,-8.82,1.53,2,4
17449.14,-0.041,0.486,0.814,1.37,-11.47,0.79,2,4
17449.156,-0.037,0.444,0.791,7.39,-10.41,2.66,2,4
17449.156,-0.029,0.448,0.795,6.99,-8.24,2.44,2,4
17449.171,-0.02,0.477,0.796,3.51,-7.57,1.31,2,4
17449.171,-0.023,0.487,0.797,-0.12,-5.89,1.19,2,4
17449.187,-0.033,0.482,0.802,-4.21,-4.15,1.8,2,4
17449.203,-0.017,0.48,0.814,-8.36,-2.99,2.99,2,4
17449.203,-0.011,0.49,0.818,-11.02,-1.89,2.59,2,4
17449.218,-0.021,0.481,0.826,-12.63,-0.43,1.74,2,4
17449.234,-0.018,0.472,0.836,-13.31,0.67,1.28,2,4
17449.234,-0.016,0.462,0.835,-11.35,2.04,1.1,2,4
17449.25,-0.025,0.453,0.836,-9.22,3.42,0.06,2,4
17449.265,-0.024,0.455,0.845,-7.69,3.81,-1.31,2,4
17449.265,-0.028,0.458,0.849,-5.74,3.72,-2.32,2,4
17449.281,-0.024,0.468,0.854,-5.16,3.48,-2.9,2,4
17449.281,-0.026,0.469,0.862,-5.19,3.57,-3.6,2,4
17449.296,-0.033,0.472,0.867,-4.15,3.48,-3.81,2,4
17449.312,-0.035,0.488,0.876,-2.99,3.2,-3.27,2,4
17449.312,-0.04,0.503,0.881,-2.2,3.11,-2.17,2,4
17449.328,-0.045,0.505,0.884,-1.86,2.87,-0.98,2,4
17449.343,-0.042,0.505,0.885,-1.71,2.38,0.18,2,4
17449.343,-0.043,0.498,0.879,-1.56,1.65,1.04,2,4
17449.359,-0.037,0.491,0.872,-1.37,1.28,1.59,2,4
17449.375,-0.027,0.48,0.863,-0.82,1.5,1.8,2,4
17449.375,-0.024,0.467,0.858,-0.06,2.72,1.53,2,4
17449.39,-0.026,0.458,0.863,0.7,4.12,0.79,2,4
17449.39,-0.027,0.45,0.873,2.44,4.97,-0.31,2,4
17449.406,-0.031,0.442,0.883,5.77,5.62,-1.34,2,4
17449.421,-0.027,0.436,0.892,11.47,6.16,-1.98,2,4
17449.421,-0.021,0.428,0.893,20.14,7.39,-2.53,2,4
17449.437,-0.012,0.425,0.886,30.76,9.83,-3.63,2,4
17449.453,-0.013,0.44,0.876,41.6,13.4,-5.55,2,4
17449.453,-0.026,0.47,0.867,49.68,16.54,-8.21,2,4
17449.468,-0.041,0.501,0.854,53.16,18.19,-10.62,2,4
17449.484,-0.058,0.529,0.852,50.78,18.43,-11.51,2,4
17449.484,-0.086,0.594,0.88,38.15,15.9,-11.11,2,4
17449.5,-0.096,0.63,0.896,20.33,10.83,-8.64,2,4
17449.515,-0.102,0.603,0.897,4.15,5.86,-4.91,2,4
17449.515,-0.096,0.576,0.896,-8.12,2.59,-0.12,2,4
17449.531,-0.088,0.539,0.89,-12.3,1.56,3.88,2,4
17449.546,-0.084,0.5,0.875,-10.04,1.92,5.58,2,4
17449.546,-0.077,0.481,0.86,-5.46,3.39,5.25,2,4
17449.562,-0.085,0.477,0.847,-0.27,4.55,2.62,2,4
17449.562,-0.094,0.477,0.828,4.27,4.3,-0.31,2,4
17449.578,-0.085,0.487,0.804,7.51,3.45,-2.53,2,4
17449.593,-0.072,0.501,0.782,9.22,4.15,-4.09,2,4
17449.593,-0.066,0.513,0.771,8.58,6.32,-5.43,2,4
17449.609,-0.065,0.519,0.777,6.44,9.06,-6.29,2,4
17449.625,-0.072,0.535,0.792,3.81,11.66,-6.41,2,4
17449.625,-0.078,0.551,0.81,1.1,13.06,-5.92,2,4
17449.64,-0.083,0.565,0.825,-1.83,13.4,-4.97,2,4
17449.656,-0.083,0.58,0.834,-5.22,13.34,-3.94,2,4
17449.656,-0.078,0.584,0.843,-8.0,13.31,-2.78,2,4
17449.671,-0.08,0.582,0.849,-8.82,14.19,-1.46,2,4
17449.671,-0.08,0.579,0.851,-9.46,15.2,-1.01,2,4
17449.687,-0.073,0.571,0.865,-9.67,16.17,-1.5,2,4
17449.703,-0.077,0.552,0.878,-7.63,17.7,-2.47,2,4
17449.703,-0.073,0.538,0.891,-3.45,19.23,-4.27,2,4
17449.718,-0.06,0.525,0.907,2.47,21.21,-6.9,2,4
17449.734,-0.048,0.501,0.909,10.62,24.08,-10.13,2,4
17449.734,-0.044,0.481,0.906,20.17,27.56,-13.86,2,4
17449.75,-0.042,0.472,0.895,30.92,30.88,-17.82,2,4
17449.765,-0.04,0.477,0.87,41.38,34.46,-21.45,2,4
17449.765,-0.043,0.524,0.853,49.17,39.98,-25.42,2,4
17449.781,-0.054,0.571,0.838,53.47,47.33,-29.51,2,4
17449.781,-0.072,0.589,0.821,54.26,55.18,-32.29,2,4
17449.796,-0.11,0.601,0.808,52.52,62.26,-33.05,2,4
17449.812,-0.16,0.627,0.83,49.1,65.95,-32.93,2,4
17449.812,-0.218,0.646,0.873,45.11,62.84,-32.35,2,4
17449.828,-0.252,0.625,0.892,42.54,51.91,-30.79,2,4
17449.843,-0.24,0.606,0.868,40.77,38.3,-28.84,2,4
17449.859,-0.221,0.576,0.81,41.6,27.31,-27.86,2,4
17449.859,-0.208,0.54,0.747,43.92,20.48,-27.83,2,4
17449.875,-0.19,0.509,0.685,45.63,16.85,-29.08,2,4
17449.875,-0.174,0.493,0.632,45.11,16.97,-31.37,2,4
17449.89,-0.176,0.534,0.615,32.2,32.56,-38.82,2,4
17449.906,-0.235,0.631,0.657,19.93,40.65,-41.93,2,4
17449.906,-0.337,0.739,0.746,11.26,42.02,-42.24,2,4
17449.921,-0.43,0.836,0.829,6.71,35.74,-37.08,2,4
17449.937,-0.506,0.835,0.849,1.34,26.15,-28.84,2,4
17449.937,-0.529,0.843,0.862,-6.47,14.5,-21.67,2,4
17449.953,-0.539,0.883,0.874,-16.3,1.92,-13.89,2,4
17449.953,-0.517,0.885,0.874,-25.06,-6.53,-7.6,2,4
17449.968,-0.494,0.807,0.85,-30.55,-10.68,-4.49,2,4
17449.984,-0.483,0.744,0.834,-33.05,-10.35,-1.56,2,4
17449.984,-0.464,0.699,0.831,-31.46,-7.08,2.11,2,4
17450.0,-0.443,0.647,0.827,-26.31,-2.35,4.18,2,4
17450.015,-0.434,0.621,0.832,-19.81,4.88,4.21,2,4
17450.015,-0.439,0.609,0.845,-12.12,13.79,2.62,2,4
17450.031,-0.469,0.604,0.879,-2.78,22.13,0.06,2,4
17450.046,-0.501,0.613,0.919,9.58,28.5,-1.16,2,4
17450.046,-0.525,0.619,0.929,23.22,30.27,-2.17,2,4
17450.062,-0.53,0.611,0.917,35.25,27.01,-2.53,2,4
17450.062,-0.515,0.604,0.881,45.66,20.78,-3.72,2,4
17450.078,-0.495,0.599,0.836,54.29,13.46,-7.14,2,4
17450.093,-0.465,0.583,0.783,60.37,6.35,-11.66,2,4
17450.093,-0.431,0.579,0.73,63.54,1.16,-16.24,2,4
17450.109,-0.39,0.575,0.678,64.18,-0.76,-18.68,2,4
17450.125,-0.356,0.56,0.645,62.32,1.34,-18.77,2,4
17450.14,-0.333,0.539,0.619,58.96,5.83,-17.06,2,4
17450.14,-0.316,0.514,0.593,54.96,11.84,-13.55,2,4
17450.14,-0.305,0.489,0.56,50.17,18.25,-9.16,2,4
17450.156,-0.303,0.457,0.516,44.95,24.32,-6.04,2,4
17450.171,-0.302,0.434,0.467,39.55,30.37,-5.55,2,4
17450.187,-0.295,0.418,0.43,35.0,37.81,-8.21,2,4
17450.187,-0.287,0.414,0.423,30.98,46.48,-13.06,2,4
17450.203,-0.297,0.435,0.474,25.88,55.67,-19.17,2,4
17450.203,-0.35,0.499,0.553,19.41,62.81,-25.12,2,4
17450.218,-0.413,0.545,0.62,14.37,62.78,-27.92,2,4
17450.234,-0.449,0.58,0.685,10.9,55.94,-26.37,2,4
17450.234,-0.468,0.618,0.738,9.8,44.77,-21.97,2,4
17450.25,-0.483,0.661,0.778,10.59,31.16,-16.97,2,4
17450.265,-0.479,0.691,0.799,11.75,17.15,-11.87,2,4
17450.265,-0.467,0.704,0.796,11.84,4.43,-8.21,2,4
17450.281,-0.459,0.709,0.788,11.51,-7.08,-5.95,2,4
17450.281,-0.449,0.71,0.797,11.96,-17.03,-3.91,2,4
17450.296,-0.433,0.707,0.8,13.15,-26.15,-2.26,2,4
17450.312,-0.405,0.708,0.793,14.37,-33.45,-1.22,2,4
17450.312,-0.371,0.705,0.79,16.33,-37.2,-0.34,2,4
17450.328,-0.346,0.697,0.794,19.71,-37.63,0.7,2,4
17450.343,-0.335,0.706,0.804,24.51,-36.38,2.44,2,4
17450.343,-0.315,0.719,0.814,29.69,-35.22,4.12,2,4
17450.359,-0.288,0.716,0.82,34.55,-35.28,6.13,2,4
17450.375,-0.272,0.716,0.82,38.48,-37.17,7.75,2,4
17450.375,-0.255,0.736,0.814,41.2,-40.47,8.15,2,4
17450.39,-0.242,0.753,0.805,41.87,-44.98,7.17,2,4
17450.406,-0.238,0.751,0.789,41.41,-51.18,5.92,2,4
17450.406,-0.235,0.744,0.764,41.29,-58.93,6.44,2,4
17450.421,-0.221,0.75,0.725,41.41,-66.96,8.79,2,4
17450.421,-0.201,0.756,0.673,40.65,-73.55,12.42,2,4
17450.437,-0.177,0.76,0.619,38.45,-76.97,15.63,2,4
17450.453,-0.155,0.752,0.576,35.16,-77.61,18.25,2,4
17450.453,-0.136,0.743,0.539,31.68,-75.53,20.69,2,4
17450.468,-0.118,0.755,0.514,27.5,-71.29,22.19,2,4
17450.484,-0.099,0.76,0.493,22.8,-65.31,22.77,2,4
17450.5,-0.087,0.748,0.476,17.88,-58.2,23.53,2,4
17450.5,-0.079,0.739,0.459,13.03,-50.57,24.41,2,4
17450.515,-0.069,0.739,0.445,7.97,-42.21,25.18,2,4
17450.515,-0.068,0.744,0.44,1.89,-32.11,24.96,2,4
17450.531,-0.078,0.746,0.433,-4.73,-20.51,23.8,2,4
17450.531,-0.093,0.749,0.427,-11.57,-7.23,22.55,2,4
17450.546,-0.107,0.751,0.424,-17.55,8.0,21.18,2,4
17450.562,-0.119,0.74,0.418,-22.61,24.57,18.8,2,4
17450.562,-0.134,0.734,0.407,-27.25,42.15,15.78,2,4
17450.578,-0.164,0.742,0.402,-31.65,59.94,11.63,2,4
17450.593,-0.208,0.756,0.406,-35.04,76.75,7.63,2,4
17450.593,-0.252,0.763,0.407,-38.27,91.34,5.62,2,4
17450.609,-0.303,0.792,0.426,-42.7,103.15,5.04,2,4
17450.625,-0.351,0.819,0.442,-48.28,111.09,5.65,2,4
17450.625,-0.385,0.822,0.469,-55.42,114.78,6.68,2,4
17450.64,-0.428,0.845,0.515,-62.72,114.44,9.03,2,4
17450.656,-0.463,0.847,0.554,-69.55,108.89,15.5,2,4
17450.656,-0.468,0.819,0.588,-75.5,99.0,23.53,2,4
17450.671,-0.454,0.773,0.619,-78.43,86.67,29.54,2,4
17450.687,-0.429,0.712,0.631,-76.85,73.12,32.38,2,4
17450.687,-0.411,0.658,0.64,-71.75,61.19,32.59,2,4
17450.703,-0.39,0.627,0.638,-63.84,52.28,30.52,2,4
17450.703,-0.367,0.597,0.632,-54.75,46.75,27.38,2,4
17450.718,-0.349,0.564,0.616,-44.22,44.68,24.38,2,4
17450.734,-0.334,0.542,0.571,-31.65,46.08,21.85,2,4
17450.75,-0.317,0.532,0.532,-20.6,51.64,20.48,2,4
17450.75,-0.298,0.524,0.511,-12.91,59.51,18.4,2,4
17450.765,-0.28,0.497,0.49,-6.96,67.35,15.44,2,4
17450.765,-0.262,0.471,0.452,-2.2,74.62,11.29,2,4
17450.781,-0.241,0.455,0.411,1.1,81.91,6.2,2,4
17450.781,-0.237,0.455,0.37,2.62,89.42,-0.09,2,4
17450.796,-0.242,0.466,0.334,1.56,96.68,-8.24,2,4
17450.812,-0.24,0.466,0.295,-2.35,102.39,-17.06,2,4
17450.812,-0.239,0.453,0.258,-9.03,107.46,-26.25,2,4
17450.828,-0.244,0.445,0.21,-17.12,114.47,-35.68,2,4
17450.843,-0.253,0.422,0.171,-26.09,125.28,-43.09,2,4
17450.843,-0.266,0.38,0.162,-34.85,139.87,-48.98,2,4
17450.859,-0.281,0.334,0.172,-40.8,155.28,-54.41,2,4
17450.875,-0.302,0.287,0.191,-42.3,169.93,-59.54,2,4
17450.875,-0.34,0.251,0.206,-32.23,195.2,-68.36,2,4
17450.89,-0.374,0.227,0.231,-23.01,204.32,-72.3,2,4
17450.906,-0.406,0.209,0.258,-12.7,209.81,-76.24,2,4
17450.906,-0.484,0.192,0.288,-3.36,211.86,-80.17,2,4
17450.921,-0.526,0.21,0.28,3.42,211.77,-84.41,2,4
17450.921,-0.565,0.236,0.266,6.9,209.17,-89.51,2,4
17450.937,-0.617,0.262,0.259,7.35,204.6,-97.6,2,4
17450.953,-0.654,0.277,0.266,5.25,197.91,-106.54,2,4
17450.953,-0.666,0.283,0.274,1.53,188.79,-114.38,2,4
17450.968,-0.667,0.291,0.28,-3.11,177.98,-119.36,2,4
17450.984,-0.66,0.293,0.29,-6.87,166.63,-121.19,2,4
17450.984,-0.662,0.285,0.302,-7.93,155.06,-119.57,2,4
17451.0,-0.681,0.271,0.316,-5.71,144.51,-114.96,2,4
17451.015,-0.755,0.251,0.312,-0.34,134.34,-109.23,2,4
17451.015,-0.861,0.263,0.306,5.68,123.57,-107.0,2,4
17451.031,-0.914,0.296,0.305,9.46,111.3,-108.43,2,4
17451.046,-0.968,0.309,0.286,9.83,98.64,-110.78,2,4
17451.046,-1.046,0.329,0.263,6.41,85.97,-113.77,2,4
17451.062,-1.141,0.352,0.239,0.92,73.79,-115.88,2,4
17451.062,-1.24,0.388,0.229,-5.01,62.65,-117.22,2,4
17451.078,-1.308,0.423,0.232,-10.93,52.28,-116.95,2,4
17451.093,-1.347,0.443,0.241,-15.47,42.94,-113.99,2,4
17451.093,-1.351,0.459,0.243,-17.21,35.34,-106.75,2,4
17451.109,-1.341,0.47,0.241,-14.95,30.49,-94.67,2,4
17451.125,-1.317,0.484,0.239,-10.22,27.92,-78.59,2,4
17451.125,-1.292,0.492,0.239,-4.09,26.86,-59.24,2,4
17451.14,-1.287,0.474,0.242,3.2,27.65,-38.15,2,4
17451.156,-1.28,0.45,0.245,10.77,29.54,-17.43,2,4
17451.156,-1.239,0.428,0.235,18.28,31.77,2.01,2,4
17451.171,-1.194,0.396,0.212,25.42,34.39,19.14,2,4
17451.171,-1.14,0.364,0.195,31.43,38.03,33.75,2,4
17451.187,-1.081,0.338,0.179,36.1,42.42,45.47,2,4
17451.203,-1.027,0.318,0.164,38.91,46.17,52.8,2,4
17451.203,-0.977,0.292,0.153,40.13,48.62,55.57,2,4
17451.218,-0.924,0.264,0.151,38.97,49.68,54.05,2,4
17451.234,-0.865,0.247,0.147,34.67,48.98,48.46,2,4
17451.25,-0.808,0.221,0.141,28.2,47.49,40.04,2,4
17451.25,-0.755,0.176,0.139,21.67,46.3,29.69,2,4
17451.265,-0.701,0.129,0.126,16.94,44.19,18.28,2,4
17451.265,-0.636,0.099,0.099,14.01,43.34,6.23,2,4
17451.281,-0.57,0.09,0.07,11.87,44.47,-7.14,2,4
17451.296,-0.509,0.086,0.039,10.28,47.36,-21.45,2,4
17451.296,-0.459,0.084,0.003,8.94,51.24,-35.89,2,4
17451.312,-0.434,0.078,-0.058,8.42,56.55,-48.89,2,4
17451.312,-0.44,0.051,-0.108,8.36,64.0,-58.41,2,4
17451.328,-0.47,0.035,-0.143,8.61,73.61,-66.16,2,4
17451.343,-0.553,0.043,-0.168,9.34,83.83,-72.91,2,4
17451.343,-0.624,0.036,-0.177,10.07,94.73,-78.16,2,4
17451.359,-0.654,0.017,-0.17,10.41,104.62,-81.03,2,4
17451.375,-0.681,0.01,-0.172,13.58,112.67,-81.3,2,4
17451.375,-0.707,0.014,-0.185,19.96,118.78,-78.83,2,4
17451.39,-0.726,0.027,-0.219,27.53,122.29,-76.24,2,4
17451.406,-0.742,0.052,-0.261,33.36,121.89,-75.87,2,4
17451.406,-0.755,0.085,-0.307,36.35,118.9,-77.64,2,4
17451.421,-0.753,0.116,-0.359,35.25,114.66,-81.61,2,4
17451.421,-0.78,0.135,-0.425,29.79,109.32,-87.16,2,4
17451.437,-0.871,0.132,-0.483,21.64,104.53,-92.17,2,4
17451.453,-0.971,0.116,-0.508,13.28,102.11,-94.67,2,4
17451.453,-1.047,0.075,-0.495,7.26,101.57,-91.37,2,4
17451.468,-1.122,0.023,-0.466,6.87,101.99,-81.91,2,4
17451.484,-1.191,0.002,-0.447,13.95,101.2,-69.8,2,4
17451.484,-1.213,-0.003,-0.448,25.24,96.62,-58.81,2,4
17451.5,-1.222,0.007,-0.464,34.24,87.83,-51.82,2,4
17451.515,-1.22,0.036,-0.485,36.38,76.08,-49.1,2,4
17451.515,-1.222,0.068,-0.515,32.17,62.69,-51.55,2,4
17451.531,-1.22,0.1,-0.525,20.81,49.07,-57.16,2,4
17451.531,-1.218,0.108,-0.532,4.46,36.93,-62.75,2,4
17451.546,-1.248,0.088,-0.566,-13.43,28.63,-67.84,2,4
17451.562,-1.278,0.032,-0.587,-27.74,29.11,-72.7,2,4
17451.562,-1.281,-0.028,-0.602,-34.3,40.16,-75.9,2,4
17451.578,-1.269,-0.061,-0.595,-33.14,57.31,-78.34,2,4
17451.593,-1.238,-0.065,-0.58,-24.11,76.75,-80.94,2,4
17451.609,-1.228,-0.033,-0.574,-14.53,94.06,-85.97,2,4
17451.609,-1.239,0.0,-0.541,-11.9,105.01,-93.84,2,4
17451.625,-1.274,0.006,-0.475,-16.6,110.69,-101.66,2,4
17451.625,-1.325,-0.012,-0.403,-24.51,110.63,-106.05,2,4
17451.64,-1.387,-0.036,-0.328,-30.06,105.38,-105.47,2,4
17451.656,-1.419,-0.04,-0.277,-31.28,95.31,-100.25,2,4
17451.656,-1.423,-0.021,-0.241,-29.21,80.23,-91.77,2,4
17451.671,-1.393,-0.013,-0.275,-21.03,61.37,-81.76,2,4
17451.671,-1.427,0.029,-0.322,-22.61,40.07,-70.65,2,4
17451.687,-1.43,0.091,-0.188,-35.52,17.12,-51.06,2,4
17451.703,-1.358,-0.042,-0.224,-26.15,-6.16,-24.45,2,4
17451.718,-1.296,-0.04,-0.331,-26.55,-27.19,-3.94,2,4
17451.718,-1.243,-0.102,-0.407,-30.49,-37.35,9.95,2,4
17451.734,-1.186,-0.258,-0.495,-25.54,-39.89,19.9,2,4
17451.734,-1.099,-0.31,-0.55,-15.63,-35.86,27.74,2,4
17451.75,-0.992,-0.308,-0.605,-6.26,-28.32,30.67,2,4
17451.765,-0.935,-0.298,-0.596,-6.26,-16.24,27.16,2,4
17451.765,-0.904,-0.327,-0.548,-4.09,-6.16,21.64,2,4
17451.781,-0.881,-0.294,-0.493,-3.72,-2.29,15.32,2,4
17451.796,-0.871,-0.268,-0.454,-6.99,-3.14,9.06,2,4
17451.796,-0.814,-0.241,-0.412,-11.75,-8.12,3.94,2,4
17451.812,-0.69,-0.222,-0.433,-12.57,-11.66,2.41,2,4
17451.812,-0.591,-0.206,-0.479,-10.47,-10.07,4.58,2,4
17451.828,-0.489,-0.18,-0.516,-5.25,-3.42,10.93,2,4
17451.843,-0.444,-0.176,-0.549,2.69,9.34,20.57,2,4
17451.843,-0.425,-0.202,-0.558,12.33,24.63,30.3,2,4
17451.859,-0.472,-0.239,-0.573,31.53,54.35,38.61,2,4
17451.875,-0.545,-0.272,-0.558,36.68,60.73,36.41,2,4
17451.875,-0.599,-0.292,-0.541,38.12,61.56,30.3,2,4
17451.89,-0.699,-0.277,-0.54,35.55,55.54,19.68,2,4
17451.906,-0.752,-0.204,-0.591,29.66,44.01,6.62,2,4
17451.906,-0.759,-0.167,-0.665,22.61,33.88,-7.93,2,4
17451.921,-0.786,-0.145,-0.735,17.61,30.34,-22.95,2,4
17451.921,-0.803,-0.122,-0.741,12.02,29.82,-35.43,2,4
17451.937,-0.859,-0.085,-0.72,7.08,31.8,-42.97,2,4
17451.953,-0.903,-0.083,-0.641,6.04,35.98,-41.02,2,4
17451.953,-0.889,-0.056,-0.549,11.05,36.5,-32.11,2,4
17451.968,-0.812,0.006,-0.516,17.52,30.03,-20.6,2,4
17451.984,-0.785,0.016,-0.555,20.23,19.9,-6.93,2,4
17452.0,-0.834,-0.034,-0.603,21.39,10.41,7.45,2,4
17452.0,-0.894,-0.087,-0.672,21.91,2.78,15.93,2,4
17452.015,-0.935,-0.135,-0.705,19.38,2.81,16.66,2,4
17452.015,-0.906,-0.165,-0.664,17.73,8.88,10.22,2,4
17452.031,-0.856,-0.181,-0.619,15.2,15.41,1.16,2,4
17452.046,-0.84,-0.208,-0.562,11.14,19.38,-6.78,2,4
17452.046,-0.827,-0.231,-0.487,9.49,17.18,-11.41,2,4
17452.062,-0.845,-0.216,-0.469,9.03,9.31,-14.25,2,4
17452.062,-0.859,-0.198,-0.468,4.85,-1.68,-15.87,2,4
17452.078,-0.849,-0.196,-0.488,0.27,-13.86,-16.51,2,4
17452.093,-0.841,-0.179,-0.538,-2.47,-23.47,-15.96,2,4
17452.093,-0.84,-0.157,-0.586,-4.88,-28.69,-14.68,2,4
17452.109,-0.853,-0.145,-0.634,-6.32,-29.08,-13.31,2,4
17452.125,-0.871,-0.146,-0.661,-4.85,-23.41,-11.26,2,4
17452.125,-0.85,-0.161,-0.639,-1.34,-16.33,-7.93,2,4
17452.14,-0.849,-0.184,-0.615,3.39,-10.19,-2.66,2,4
17452.156,-0.878,-0.203,-0.578,8.15,-5.52,2.87,2,4
17452.156,-0.903,-0.192,-0.534,11.47,-4.43,6.62,2,4
17452.171,-0.937,-0.166,-0.51,11.44,-6.84,7.11,2,4
17452.187,-0.965,-0.149,-0.484,7.17,-12.57,4.91,2,4
17452.187,-0.973,-0.154,-0.471,2.32,-20.63,1.98,2,4
17452.203,-0.98,-0.167,-0.493,-2.01,-28.78,0.09,2,4
17452.203,-0.992,-0.187,-0.514,-4.21,-34.33,0.0,2,4
17452.218,-0.984,-0.186,-0.53,-3.72,-37.17,0.7,2,4
17452.234,-0.986,-0.171,-0.535,-2.38,-36.77,1.46,2,4
17452.234,-0.965,-0.192,-0.518,-0.89,-36.07,3.91,2,4
17452.25,-0.939,-0.231,-0.512,2.66,-36.5,8.97,2,4
17452.265,-0.928,-0.26,-0.535,7.2,-38.15,14.74,2,4
17452.265,-0.924,-0.286,-0.564,9.67,-40.04,17.27,2,4
17452.281,-0.938,-0.319,-0.566,10.01,-39.0,14.01,2,4
17452.281,-0.968,-0.322,-0.534,8.85,-36.87,5.28,2,4
17452.296,-0.998,-0.299,-0.489,5.92,-36.32,-6.01,2,4
17452.312,-1.046,-0.264,-0.45,2.84,-38.12,-16.48,2,4
17452.312,-1.076,-0.228,-0.425,-0.49,-43.12,-23.04,2,4
17452.328,-1.092,-0.196,-0.402,-2.9,-49.93,-25.67,2,4
17452.343,-1.11,-0.19,-0.397,-3.42,-56.98,-25.27,2,4
17452.359,-1.101,-0.184,-0.421,-2.2,-63.6,-22.68,2,4
17452.359,-1.077,-0.171,-0.451,-0.21,-68.21,-19.29,2,4
17452.375,-1.05,-0.186,-0.476,1.34,-70.28,-15.5,2,4
17452.375,-1.041,-0.21,-0.497,3.14,-71.26,-12.85,2,4
17452.39,-1.04,-0.236,-0.49,4.73,-71.17,-11.6,2,4
17452.406,-1.036,-0.259,-0.48,5.65,-71.2,-12.21,2,4
17452.406,-1.042,-0.265,-0.469,6.41,-72.08,-14.56,2,4
17452.421,-1.039,-0.261,-0.447,5.83,-73.49,-17.3,2,4
17452.421,-1.033,-0.274,-0.431,4.49,-75.35,-19.23,2,4
17452.437,-1.025,-0.275,-0.422,4.61,-76.91,-19.53,2,4
17452.453,-1.019,-0.273,-0.409,5.58,-78.13,-18.13,2,4
17452.453,-1.027,-0.288,-0.387,6.9,-79.01,-14.4,2,4
17452.468,-1.039,-0.315,-0.36,9.49,-79.68,-9.28,2,4
17452.484,-1.04,-0.349,-0.354,12.85,-80.94,-4.67,2,4
17452.484,-1.039,-0.363,-0.354,15.47,-82.55,-2.11,2,4
17452.5,-1.037,-0.367,-0.348,16.08,-85.27,-1.59,2,4
17452.5,-1.037,-0.377,-0.338,14.44,-87.74,-2.35,2,4
17452.515,-1.048,-0.426,-0.31,14.62,-88.02,-1.8,2,4
17452.531,-1.072,-0.421,-0.307,18.71,-88.02,-1.95,2,4
17452.546,-1.094,-0.401,-0.326,21.97,-91.01,-2.99,2,4
17452.546,-1.137,-0.361,-0.329,20.57,-90.58,-5.46,2,4
17452.562,-1.153,-0.373,-0.303,18.71,-92.14,-5.74,2,4
17452.562,-1.12,-0.391,-0.288,21.73,-94.03,-3.57,2,4
17452.578,-1.117,-0.398,-0.285,26.43,-95.13,0.03,2,4
17452.593,-1.108,-0.402,-0.273,30.09,-95.28,3.51,2,4
17452.593,-1.121,-0.396,-0.263,32.53,-93.11,6.59,2,4
17452.609,-1.141,-0.403,-0.241,33.66,-91.49,8.76,2,4
17452.625,-1.174,-0.379,-0.228,35.8,-90.49,9.58,2,4
17452.625,-1.188,-0.361,-0.203,37.72,-91.74,10.77,2,4
17452.64,-1.224,-0.317,-0.203,38.42,-98.27,10.28,2,4
17452.64,-1.217,-0.276,-0.19,35.4,-104.46,10.53,2,4
17452.656,-1.246,-0.245,-0.164,30.73,-107.39,12.97,2,4
17452.671,-1.264,-0.229,-0.138,28.72,-110.45,20.57,2,4
17452.671,-1.25,-0.213,-0.129,31.65,-113.9,32.07,2,4
17452.687,-1.24,-0.195,-0.115,37.87,-116.03,43.09,2,4
17452.703,-1.227,-0.176,-0.117,42.88,-119.17,51.12,2,4
17452.703,-1.226,-0.172,-0.112,41.78,-121.56,56.89,2,4
17452.718,-1.226,-0.206,-0.084,37.05,-122.84,62.41,2,4
17452.734,-1.209,-0.246,-0.067,33.3,-124.42,68.3,2,4
17452.734,-1.198,-0.258,-0.052,32.59,-126.19,72.88,2,4
17452.75,-1.181,-0.278,-0.021,33.66,-127.81,77.64,2,4
17452.765,-1.152,-0.286,-0.01,36.13,-129.03,81.15,2,4
17452.765,-1.119,-0.301,-0.017,39.49,-130.99,80.81,2,4
17452.781,-1.064,-0.316,-0.027,42.76,-133.4,73.89,2,4
17452.781,-1.037,-0.282,-0.05,40.5,-134.86,61.49,2,4
17452.796,-1.025,-0.239,-0.047,31.04,-136.57,45.87,2,4
17452.812,-1.0,-0.226,-0.026,20.51,-137.85,29.45,2,4
17452.812,-0.976,-0.187,0.001,13.34,-137.85,13.43,2,4
17452.828,-0.953,-0.145,0.042,10.19,-136.42,1.28,2,4
17452.843,-0.901,-0.096,0.07,14.22,-130.86,-3.69,2,4
17452.859,-0.801,-0.059,0.097,21.82,-122.41,5.46,2,4
17452.859,-0.641,-0.086,0.1,31.37,-107.06,17.15,2,4
17452.875,-0.536,-0.098,0.07,41.75,-84.99,28.35,2,4
17452.875,-0.62,-0.287,0.137,55.54,-62.53,33.72,2,4
17452.89,-0.715,-0.321,0.165,69.12,-46.11,27.62,2,4
17452.89,-0.841,-0.299,0.194,72.73,-38.27,7.66,2,4
17452.906,-0.954,-0.257,0.26,62.26,-39.95,-20.26,2,4
17452.921,-1.016,-0.154,0.3,44.56,-50.48,-51.45,2,4
17452.937,-1.034,-0.021,0.319,25.57,-66.74,-79.9,2,4
17452.937,-1.02,0.055,0.352,8.79,-83.1,-98.94,2,4
17452.953,-0.999,0.101,0.376,-1.95,-97.93,-109.2,2,4
17452.953,-1.021,0.071,0.392,-3.75,-104.22,-105.53,2,4
17452.968,-1.01,0.005,0.387,5.07,-105.84,-88.93,2,4
17452.984,-1.011,0.021,0.35,21.82,-104.07,-70.74,2,4
17452.984,-0.997,0.034,0.329,32.99,-101.11,-54.72,2,4
17453.0,-0.995,0.026,0.354,35.31,-97.45,-42.82,2,4
17453.015,-1.018,-0.008,0.4,35.89,-93.97,-35.98,2,4
17453.015,-1.03,-0.029,0.45,34.94,-95.19,-34.39,2,4
17453.031,-1.038,-0.067,0.509,32.23,-100.31,-36.04,2,4
17453.046,-1.059,-0.109,0.556,29.63,-107.91,-39.25,2,4
17453.046,-1.052,-0.102,0.563,26.8,-118.9,-43.49,2,4
17453.062,-0.995,-0.068,0.546,21.88,-131.26,-47.52,2,4
17453.078,-0.922,-0.039,0.532,15.81,-141.24,-50.14,2,4
17453.078,-0.883,-0.053,0.527,11.2,-147.59,-49.96,2,4
17453.093,-0.834,-0.086,0.501,8.76,-151.07,-46.08,2,4
17453.093,-0.801,-0.102,0.465,11.2,-148.47,-41.44,2,4
17453.109,-0.772,-0.146,0.459,17.55,-140.48,-36.47,2,4
17453.125,-0.747,-0.156,0.487,22.49,-131.75,-32.14,2,4
17453.125,-0.734,-0.169,0.536,26.76,-122.93,-27.99,2,4
17453.14,-0.7,-0.194,0.604,30.03,-117.8,-24.63,2,4
17453.156,-0.676,-0.219,0.661,35.25,-115.45,-21.3,2,4
17453.156,-0.669,-0.234,0.712,41.32,-116.31,-18.74,2,4
17453.171,-0.647,-0.247,0.73,45.56,-121.19,-16.72,2,4
17453.187,-0.583,-0.216,0.705,48.04,-128.64,-17.33,2,4
17453.187,-0.515,-0.194,0.68,48.62,-135.29,-20.36,2,4
17453.203,-0.478,-0.204,0.659,47.24,-139.59,-23.22,2,4
17453.218,-0.474,-0.219,0.649,47.49,-139.41,-25.18,2,4
17453.218,-0.464,-0.219,0.629,50.05,-137.46,-26.34,2,4
17453.234,-0.433,-0.161,0.608,50.75,-134.56,-26.86,2,4
17453.234,-0.396,-0.147,0.594,49.84,-130.28,-26.83,2,4
17453.25,-0.345,-0.11,0.581,49.71,-123.42,-27.71,2,4
17453.265,-0.332,-0.069,0.595,49.38,-114.72,-27.07,2,4
17453.265,-0.324,-0.06,0.62,47.76,-108.19,-23.22,2,4
17453.281,-0.283,-0.006,0.619,46.78,-104.65,-18.83,2,4
17453.281,-0.245,0.028,0.614,46.14,-101.44,-14.5,2,4
17453.296,-0.224,0.016,0.631,45.05,-96.96,-7.93,2,4
17453.312,-0.182,0.046,0.648,45.9,-92.78,-2.47,2,4
17453.312,-0.139,0.087,0.628,45.56,-89.45,-0.73,2,4
17453.328,-0.113,0.083,0.623,42.63,-85.79,-0.85,2,4
17453.343,-0.093,0.106,0.631,39.64,-82.31,-2.47,2,4
17453.343,-0.103,0.135,0.637,35.65,-80.23,-5.31,2,4
17453.359,-0.051,0.133,0.667,29.08,-81.12,-5.52,2,4
17453.375,-0.065,0.137,0.681,25.91,-78.22,-8.48,2,4
17453.375,-0.059,0.117,0.704,23.65,-76.33,-11.72,2,4
17453.39,-0.058,0.111,0.732,22.55,-74.56,-13.37,2,4
17453.406,-0.03,0.138,0.734,21.73,-76.91,-16.17,2,4
17453.406,0.006,0.175,0.722,19.04,-79.9,-19.01,2,4
17453.421,0.021,0.176,0.722,13.79,-82.31,-21.36,2,4
17453.421,0.034,0.157,0.73,8.97,-83.41,-22.03,2,4
17453.437,0.042,0.133,0.748,6.78,-80.9,-22.13,2,4
17453.453,0.059,0.114,0.771,6.81,-76.17,-21.06,2,4
17453.468,0.069,0.106,0.79,8.06,-71.81,-20.08,2,4
17453.468,0.12,0.121,0.808,8.67,-67.42,-17.91,2,4
17453.484,0.146,0.107,0.802,8.85,-65.07,-16.94,2,4
17453.484,0.148,0.094,0.806,8.64,-63.54,-16.21,2,4
17453.5,0.15,0.096,0.815,7.45,-61.4,-16.14,2,4
17453.515,0.145,0.092,0.821,5.49,-58.78,-17.03,2,4
17453.515,0.17,0.081,0.835,3.3,-56.34,-17.27,2,4
17453.531,0.196,0.088,0.83,2.41,-54.54,-18.22,2,4
17453.531,0.181,0.085,0.82,0.4,-52.77,-19.29,2,4
17453.546,0.152,0.05,0.837,-2.5,-50.54,-19.81,2,4
17453.562,0.13,0.041,0.838,-3.81,-49.26,-22.25,2,4
17453.562,0.134,0.033,0.84,-4.49,-48.34,-25.91,2,4
17453.578,0.142,0.036,0.847,-5.58,-47.3,-30.18,2,4
17453.593,0.144,0.057,0.844,-7.08,-45.84,-34.85,2,4
17453.609,0.161,0.09,0.846,-10.22,-45.14,-39.8,2,4
17453.609,0.17,0.102,0.853,-13.34,-44.22,-44.4,2,4
17453.625,0.173,0.125,0.848,-16.08,-43.76,-48.13,2,4
17453.625,0.154,0.155,0.832,-19.38,-43.86,-51.67,2,4
17453.64,0.125,0.127,0.853,-22.86,-41.26,-52.31,2,4
17453.656,0.132,0.116,0.881,-24.14,-36.87,-50.66,2,4
17453.656,0.14,0.136,0.881,-21.85,-32.47,-49.71,2,4
17453.671,0.112,0.142,0.901,-21.15,-29.73,-48.46,2,4
17453.687,0.088,0.124,0.942,-22.19,-29.18,-45.29,2,4
17453.687,0.09,0.135,0.956,-22.68,-30.98,-42.18,2,4
17453.703,0.104,0.138,0.952,-23.96,-34.85,-40.13,2,4
17453.703,0.099,0.116,0.951,-26.28,-39.55,-37.48,2,4
17453.718,0.087,0.089,0.942,-27.8,-42.91,-33.33,2,4
17453.734,0.104,0.056,0.932,-28.96,-44.56,-28.11,2,4
17453.734,0.14,0.017,0.917,-28.17,-44.31,-23.87,2,4
17453.75,0.153,-0.001,0.903,-25.48,-41.9,-21.58,2,4
17453.765,0.171,-0.0,0.912,-24.9,-39.43,-20.87,2,4
17453.765,0.187,-0.012,0.918,-26.76,-37.97,-20.51,2,4
17453.781,0.191,-0.033,0.927,-28.69,-37.26,-18.92,2,4
17453.781,0.198,-0.05,0.937,-29.21,-37.11,-15.93,2,4
17453.796,0.218,-0.073,0.935,-28.17,-37.42,-11.93,2,4
17453.812,0.228,-0.106,0.92,-24.87,-37.51,-7.17,2,4
17453.812,0.224,-0.134,0.91,-20.72,-36.71,-2.01,2,4
17453.828,0.228,-0.15,0.9,-14.16,-32.07,3.63,2,4
17453.843,0.22,-0.159,0.882,-13.31,-28.75,3.45,2,4
17453.859,0.215,-0.169,0.887,-14.47,-25.27,2.04,2,4
17453.859,0.233,-0.177,0.929,-15.66,-22.46,-0.15,2,4
17453.875,0.248,-0.17,0.944,-17.15,-21.55,-1.89,2,4
17453.875,0.256,-0.158,0.956,-19.32,-21.79,-3.05,2,4
17453.89,0.251,-0.167,0.967,-20.81,-22.71,-3.33,2,4
17453.906,0.244,-0.186,0.971,-21.0,-24.14,-3.11,2,4
17453.906,0.231,-0.203,0.963,-20.08,-25.7,-2.08,2,4
17453.921,0.23,-0.206,0.953,-18.74,-26.09,-0.37,2,4
17453.921,0.235,-0.208,0.939,-17.7,-25.39,1.74,2,4
17453.937,0.251,-0.213,0.937,-16.6,-23.62,4.09,2,4
17453.953,0.262,-0.22,0.947,-14.59,-20.48,6.07,2,4
17453.953,0.253,-0.231,0.958,-12.33,-17.03,7.39,2,4
17453.968,0.253,-0.24,0.974,-10.9,-14.92,8.76,2,4
17453.984,0.249,-0.25,0.981,-9.0,-14.22,9.83,2,4
17453.984,0.261,-0.238,0.974,-7.11,-15.35,9.77,2,4
17454.0,0.281,-0.223,0.964,-7.39,-17.15,8.58,2,4
17454.0,0.302,-0.23,0.96,-10.32,-19.2,8.73,2,4
17454.015,0.305,-0.246,0.953,-11.57,-20.23,9.95,2,4
17454.031,0.309,-0.259,0.946,-10.28,-20.33,11.14,2,4
17454.046,0.312,-0.276,0.935,-7.6,-19.23,12.54,2,4
17454.046,0.31,-0.28,0.929,-4.67,-17.15,13.64,2,4
17454.062,0.308,-0.277,0.927,-2.32,-14.77,13.73,2,4
17454.062,0.295,-0.267,0.927,-2.29,-12.7,13.46,2,4
17454.078,0.285,-0.269,0.936,-3.02,-10.96,13.98,2,4
17454.093,0.289,-0.27,0.941,-2.72,-9.95,15.44,2,4
17454.093,0.299,-0.269,0.94,-1.1,-9.09,17.82,2,4
17454.109,0.315,-0.272,0.944,1.95,-7.45,20.54,2,4
17454.125,0.331,-0.257,0.941,5.13,-5.22,22.0,2,4
17454.125,0.337,-0.242,0.938,6.96,-2.87,22.1,2,4
17454.14,0.343,-0.237,0.945,7.66,-0.82,20.78,2,4
17454.156,0.331,-0.229,0.951,7.08,0.37,18.16,2,4
17454.156,0.31,-0.22,0.953,5.43,0.67,15.02,2,4
17454.171,0.287,-0.224,0.967,3.14,0.61,12.27,2,4
17454.171,0.269,-0.226,0.978,1.74,0.34,10.47,2,4
17454.187,0.26,-0.227,0.986,1.98,-0.27,9.95,2,4
17454.203,0.267,-0.233,0.991,3.14,-0.98,10.41,2,4
17454.218,0.282,-0.238,0.985,4.91,-1.89,11.99,2,4
17454.218,0.297,-0.236,0.972,7.42,-2.69,13.7,2,4
17454.234,0.302,-0.23,0.95,9.77,-3.2,14.07,2,4
17454.234,0.29,-0.23,0.944,9.83,-2.41,13.09,2,4
17454.25,0.282,-0.234,0.945,8.24,-0.46,11.26,2,4
17454.265,0.269,-0.236,0.948,7.2,1.89,8.82,2,4
17454.265,0.254,-0.233,0.967,6.68,4.61,6.47,2,4
17454.281,0.248,-0.228,0.993,6.47,6.65,5.1,2,4
17454.281,0.249,-0.218,1.008,6.99,7.42,4.36,2,4
17454.296,0.249,-0.207,1.022,8.3,7.23,4.12,2,4
17454.312,0.24,-0.204,1.03,9.74,5.86,3.94,2,4
17454.312,0.232,-0.199,1.026,10.47,2.38,2.96,2,4
17454.328,0.234,-0.182,1.007,10.13,-1.56,1.22,2,4
17454.343,0.241,-0.167,0.994,7.81,-4.33,-0.4,2,4
17454.343,0.248,-0.17,0.986,5.46,-5.74,-1.31,2,4
17454.359,0.252,-0.162,0.975,4.82,-5.98,-2.5,2,4
17454.375,0.25,-0.161,0.97,5.04,-4.94,-3.27,2,4
17454.375,0.236,-0.151,0.974,5.37,-3.17,-4.18,2,4
17454.39,0.224,-0.146,0.975,5.92,-1.53,-4.79,2,4
17454.406,0.222,-0.134,0.98,6.1,-0.64,-5.28,2,4
17454.406,0.22,-0.12,0.986,5.62,-0.43,-5.55,2,4
17454.421,0.226,-0.108,0.995,4.46,-1.22,-5.1,2,4
17454.421,0.227,-0.103,0.999,3.57,-2.29,-3.91,2,4
17454.437,0.233,-0.104,1.0,3.63,-3.11,-2.04,2,4
17454.453,0.243,-0.101,0.992,4.58,-3.51,-0.09,2,4
17454.453,0.245,-0.101,0.978,6.01,-3.2,1.65,2,4
17454.468,0.246,-0.11,0.964,7.08,-2.47,3.33,2,4
17454.484,0.245,-0.109,0.948,7.75,-1.25,4.64,2,4
17454.5,0.241,-0.104,0.943,7.63,0.79,4.94,2,4
17454.5,0.239,-0.098,0.945,6.47,3.08,4.03,2,4
17454.5,0.234,-0.097,0.958,5.01,5.25,2.87,2,4
17454.515,0.227,-0.097,0.978,3.94,6.5,2.01,2,4
17454.531,0.216,-0.104,0.991,3.66,6.62,1.46,2,4
17454.531,0.197,-0.105,1.003,2.93,5.83,1.4,2,4
17454.546,0.183,-0.125,1.012,2.78,4.55,2.87,2,4
17454.562,0.181,-0.129,1.012,3.6,2.78,4.67,2,4
17454.562,0.181,-0.126,1.008,4.85,1.74,5.77,2,4
17454.578,0.185,-0.134,1.004,5.31,1.13,6.53,2,4
17454.593,0.189,-0.135,1.003,5.49,0.79,6.78,2,4
17454.593,0.197,-0.136,1.003,5.77,0.82,6.99,2,4
17454.609,0.197,-0.137,1.005,6.16,1.19,7.17,2,4
17454.625,0.201,-0.139,1.007,6.01,1.31,7.2,2,4
17454.625,0.208,-0.127,1.0,6.04,1.16,6.9,2,4
17454.64,0.204,-0.121,0.997,6.04,0.58,6.2,2,4
17454.64,0.207,-0.12,0.994,4.94,-0.43,5.77,2,4
17454.656,0.207,-0.123,0.991,4.27,-0.95,6.01,2,4
17454.671,0.213,-0.125,0.994,4.67,-1.04,6.9,2,4
17454.671,0.214,-0.121,0.99,5.55,-1.07,7.42,2,4
17454.687,0.215,-0.116,0.982,5.68,-1.4,7.32,2,4
17454.703,0.211,-0.108,0.974,4.82,-2.29,6.81,2,4
17454.703,0.206,-0.11,0.966,3.66,-3.54,6.26,2,4
17454.718,0.204,-0.113,0.961,2.41,-4.33,6.35,2,4
17454.734,0.207,-0.134,0.962,2.17,-4.09,7.14,2,4
17454.734,0.21,-0.141,0.963,2.96,-3.02,7.69,2,4
17454.75,0.211,-0.143,0.96,4.64,-1.43,8.18,2,4
17454.765,0.207,-0.147,0.97,5.58,0.15,8.51,2,4
17454.765,0.202,-0.157,0.981,5.83,1.74,9.16,2,4
17454.781,0.203,-0.151,0.986,6.04,2.44,9.49,2,4
17454.796,0.208,-0.14,0.992,6.04,2.35,9.09,2,4
17454.796,0.215,-0.133,1.002,5.16,2.29,8.45,2,4
17454.812,0.213,-0.138,1.009,4.0,2.04,8.03,2,4
17454.812,0.211,-0.138,1.02,4.36,2.72,8.67,2,4
17454.828,0.204,-0.141,1.034,5.34,3.33,8.91,2,4
17454.843,0.202,-0.138,1.044,6.07,3.85,8.42,2,4
17454.843,0.191,-0.117,1.066,5.95,4.18,7.9,2,4
17454.859,0.206,-0.107,1.089,4.85,4.58,7.02,2,4
17454.875,0.22,-0.101,1.11,3.97,5.34,5.62,2,4
17454.875,0.218,-0.098,1.127,3.2,5.68,4.0,2,4
17454.89,0.192,-0.11,1.146,2.41,5.01,2.87,2,4
17454.89,0.171,-0.123,1.162,2.69,2.17,2.9,2,4
17454.906,0.158,-0.127,1.161,4.15,-1.92,2.38,2,4
17454.921,0.149,-0.136,1.149,5.28,-6.62,1.4,2,4
17454.921,0.153,-0.135,1.127,5.07,-11.72,-0.15,2,4
17454.937,0.158,-0.14,1.103,4.55,-16.24,-2.23,2,4
17454.953,0.169,-0.141,1.073,3.78,-20.36,-4.21,2,4
17454.953,0.184,-0.128,1.035,3.48,-23.83,-7.11,2,4
17454.968,0.199,-0.117,0.998,3.05,-26.83,-10.41,2,4
17454.984,0.209,-0.111,0.964,1.95,-29.94,-13.49,2,4
17454.984,0.202,-0.097,0.928,0.61,-32.65,-16.85,2,4
17455.0,0.191,-0.086,0.898,-1.19,-34.18,-19.44,2,4
17455.0,0.192,-0.084,0.887,-3.48,-33.94,-20.94,2,4
17455.015,0.204,-0.085,0.88,-4.58,-32.44,-21.36,2,4
17455.031,0.223,-0.072,0.865,-4.21,-30.18,-21.15,2,4
17455.046,0.245,-0.058,0.853,-2.56,-27.77,-19.9,2,4
17455.046,0.258,-0.047,0.848,-1.16,-25.27,-17.49,2,4
17455.062,0.271,-0.054,0.85,-0.15,-22.86,-13.89,2,4
17455.062,0.283,-0.052,0.847,1.28,-21.06,-10.5,2,4
17455.078,0.292,-0.054,0.843,2.32,-19.53,-7.63,2,4
17455.093,0.302,-0.063,0.844,2.53,-18.4,-5.1,2,4
17455.093,0.313,-0.053,0.836,2.75,-17.4,-3.78,2,4
17455.109,0.328,-0.044,0.826,2.69,-15.81,-3.48,2,4
17455.125,0.336,-0.044,0.826,1.19,-13.86,-2.96,2,4
17455.125,0.341,-0.051,0.827,0.12,-11.6,-1.92,2,4
17455.14,0.345,-0.059,0.831,0.27,-8.67,-0.24,2,4
17455.156,0.351,-0.06,0.84,1.46,-5.43,1.5,2,4
17455.156,0.363,-0.058,0.848,2.66,-2.56,2.59,2,4
17455.171,0.372,-0.059,0.854,3.14,-0.73,3.02,2,4
17455.171,0.372,-0.063,0.861,2.29,0.15,2.75,2,4
17455.187,0.367,-0.073,0.87,0.43,0.24,2.26,2,4
17455.203,0.368,-0.096,0.878,-1.22,0.0,1.89,2,4
17455.203,0.362,-0.107,0.879,-1.95,-0.61,0.89,2,4
17455.218,0.361,-0.11,0.876,-2.23,-1.13,-1.28,2,4
17455.234,0.357,-0.1,0.866,-3.36,-1.37,-4.7,2,4
17455.234,0.343,-0.083,0.867,-5.77,-1.04,-8.64,2,4
17455.25,0.322,-0.076,0.882,-9.37,0.85,-11.87,2,4
17455.265,0.308,-0.085,0.911,-12.57,3.81,-12.79,2,4
17455.265,0.303,-0.087,0.943,-12.79,6.87,-11.66,2,4
17455.281,0.297,-0.089,0.967,-10.22,9.06,-8.94,2,4
17455.281,0.293,-0.086,0.981,-6.9,9.77,-5.31,2,4
17455.296,0.282,-0.083,0.987,-3.78,8.55,-1.28,2,4
17455.312,0.27,-0.088,0.987,-2.2,6.16,2.5,2,4
17455.312,0.258,-0.1,0.982,-2.01,3.6,5.62,2,4
17455.328,0.249,-0.117,0.977,-2.44,1.65,7.75,2,4
17455.343,0.247,-0.143,0.981,-2.66,1.13,9.09,2,4
17455.343,0.256,-0.163,0.98,-1.8,0.98,9.86,2,4
17455.359,0.266,-0.168,0.975,-0.31,1.22,9.86,2,4
17455.375,0.264,-0.169,0.971,1.01,1.92,9.03,2,4
17455.39,0.265,-0.168,0.969,1.22,2.01,7.93,2,4
17455.406,0.261,-0.158,0.965,0.37,1.68,6.04,2,4
17455.406,0.257,-0.162,0.972,-0.98,1.56,4.46,2,4
17455.421,0.258,-0.168,0.98,-1.98,1.22,3.33,2,4
17455.437,0.254,-0.161,0.982,-1.83,0.98,2.32,2,4
17455.453,0.244,-0.157,0.989,-1.34,1.01,2.01,2,4
17455.453,0.245,-0.152,0.998,-0.98,1.28,2.29,2,4
17455.468,0.244,-0.147,1.004,-0.4,1.65,2.9,2,4
17455.484,0.244,-0.15,1.015,0.03,2.08,4.03,2,4
17455.484,0.247,-0.156,1.031,0.85,2.47,5.92,2,4
17455.5,0.261,-0.159,1.044,2.47,2.84,8.33,2,4
17455.5,0.263,-0.163,1.049,4.55,3.36,10.41,2,4
17455.5,0.26,-0.173,1.06,6.68,3.42,11.9,2,4
17455.515,0.259,-0.17,1.065,8.3,2.9,12.48,2,4
17455.531,0.251,-0.166,1.065,8.91,2.38,12.18,2,4
17455.531,0.247,-0.16,1.07,7.81,1.86,11.29,2,4
17455.546,0.255,-0.145,1.073,6.35,0.92,10.19,2,4
17455.546,0.262,-0.129,1.08,5.25,0.46,9.4,2,4
17455.562,0.262,-0.126,1.092,4.82,0.67,9.61,2,4
17455.578,0.255,-0.126,1.106,5.58,0.82,11.44,2,4
17455.578,0.251,-0.124,1.113,7.78,0.4,14.34,2,4
17455.593,0.249,-0.123,1.113,10.56,-0.82,18.13,2,4
17455.593,0.251,-0.117,1.109,13.25,-2.53,21.45,2,4
17455.609,0.259,-0.116,1.094,14.83,-4.64,24.08,2,4
17455.625,0.266,-0.115,1.075,15.35,-6.9,26.28,2,4
17455.625,0.272,-0.109,1.052,15.53,-8.58,28.57,2,4
17455.64,0.282,-0.106,1.02,16.02,-10.28,31.56,2,4
17455.656,0.295,-0.094,0.984,17.3,-11.29,34.27,2,4
17455.671,0.302,-0.088,0.952,18.31,-11.81,36.13,2,4
17455.671,0.311,-0.086,0.92,19.04,-12.18,36.81,2,4
17455.671,0.316,-0.08,0.889,18.74,-12.51,36.81,2,4
17455.687,0.318,-0.076,0.858,18.68,-12.39,36.35,2,4
17455.703,0.317,-0.071,0.84,17.64,-11.11,35.04,2,4
17455.718,0.314,-0.081,0.822,16.48,-7.93,33.39,2,4
17455.718,0.307,-0.078,0.814,16.21,-2.66,31.04,2,4
17455.734,0.31,-0.089,0.825,16.21,2.81,30.06,2,4
17455.734,0.307,-0.084,0.842,16.82,6.74,30.55,2,4
17455.75,0.289,-0.084,0.847,18.65,9.34,32.44,2,4
17455.765,0.283,-0.087,0.855,19.99,10.62,35.43,2,4
17455.765,0.285,-0.094,0.858,21.27,11.51,39.16,2,4
17455.781,0.296,-0.115,0.83,23.01,12.82,42.02,2,4
17455.796,0.311,-0.113,0.791,22.89,15.63,42.15,2,4
17455.796,0.326,-0.121,0.761,14.89,32.69,30.95,2,4
17455.812,0.339,-0.138,0.721,15.75,49.23,23.22,2,4
17455.812,0.337,-0.166,0.708,16.33,65.34,17.67,2,4
17455.828,0.295,-0.116,0.808,15.05,78.83,12.33,2,4
17455.843,0.228,-0.087,0.912,9.89,86.18,7.51,2,4
17455.843,0.167,-0.088,0.996,4.15,85.24,4.09,2,4
17455.859,0.089,-0.04,1.108,-0.76,76.75,2.08,2,4
17455.875,0.113,-0.067,1.09,-0.12,61.98,9.49,2,4
17455.875,0.155,-0.042,1.117,-7.05,47.12,8.39,2,4
17455.89,0.086,-0.069,1.135,-8.76,35.43,8.45,2,4
17455.89,0.105,-0.096,1.101,-8.64,21.91,12.67,2,4
17455.906,0.128,-0.104,1.062,-6.78,14.34,16.3,2,4
17455.921,0.132,-0.128,1.029,-4.88,11.41,19.07,2,4
17455.937,0.147,-0.147,1.026,-4.3,10.68,21.3,2,4
17455.937,0.162,-0.152,0.993,-0.34,12.76,21.27,2,4
17455.953,0.19,-0.143,0.996,4.43,16.27,19.62,2,4
17455.953,0.207,-0.122,1.023,9.67,18.95,17.79,2,4
17455.968,0.201,-0.093,1.05,14.07,19.65,16.66,2,4
17455.984,0.183,-0.054,1.06,15.56,17.09,15.9,2,4
17455.984,0.168,-0.029,1.067,13.89,12.36,14.53,2,4
17456.0,0.156,-0.025,1.056,12.67,7.42,12.6,2,4
17456.015,0.155,-0.016,1.026,12.88,2.41,10.44,2,4
17456.015,0.161,-0.001,1.0,12.7,-0.76,8.39,2,4
17456.031,0.154,-0.0,0.981,12.57,-1.92,6.47,2,4
17456.031,0.146,0.008,0.964,11.81,-2.78,5.22,2,4
17456.046,0.144,0.023,0.954,10.1,-3.54,5.1,2,4
17456.062,0.125,0.022,0.949,8.64,-4.09,6.53,2,4
17456.062,0.11,0.013,0.951,8.64,-4.79,9.89,2,4
17456.078,0.103,-0.002,0.954,10.19,-5.4,15.11,2,4
17456.093,0.101,-0.023,0.967,13.37,-5.13,20.91,2,4
17456.093,0.108,-0.039,0.974,17.3,-4.09,25.33,2,4
17456.109,0.117,-0.055,0.988,20.02,-3.05,27.5,2,4
17456.125,0.125,-0.07,1.005,20.94,-2.47,27.77,2,4
17456.125,0.128,-0.061,1.02,20.45,-3.14,25.76,2,4
17456.14,0.133,-0.057,1.041,18.34,-4.85,22.4,2,4
17456.14,0.136,-0.067,1.044,14.5,-7.35,19.26,2,4
17456.156,0.138,-0.067,1.037,10.83,-9.64,16.45,2,4
17456.171,0.14,-0.073,1.031,8.55,-11.14,14.37,2,4
17456.187,0.146,-0.095,1.025,8.24,-11.69,12.36,2,4
17456.187,0.151,-0.111,1.015,9.46,-11.57,9.43,2,4
17456.203,0.149,-0.105,0.995,11.14,-10.19,5.49,2,4
17456.203,0.159,-0.103,0.989,11.66,-8.33,1.65,2,4
17456.218,0.172,-0.102,0.987,11.32,-6.41,-1.86,2,4
17456.234,0.172,-0.096,0.992,11.72,-4.3,-4.94,2,4
17456.234,0.169,-0.09,1.006,12.48,-2.84,-6.68,2,4
17456.25,0.166,-0.07,1.002,13.06,-2.44,-7.29,2,4
17456.25,0.166,-0.038,1.0,12.85,-2.17,-7.72,2,4
17456.265,0.171,-0.029,0.995,11.81,-2.17,-6.96,2,4
17456.281,0.187,-0.016,0.994,11.05,-2.5,-5.22,2,4
17456.296,0.199,-0.011,0.989,11.93,-2.32,-3.63,2,4
17456.296,0.21,-0.019,0.985,12.79,-1.68,-2.5,2,4
17456.312,0.204,-0.033,0.982,13.73,-1.16,-2.29,2,4
17456.312,0.191,-0.034,0.973,14.19,-0.55,-3.3,2,4
17456.328,0.181,-0.032,0.982,12.48,0.37,-5.13,2,4
17456.343,0.179,-0.04,1.002,11.2,0.82,-6.78,2,4
17456.359,0.183,-0.047,1.015,11.47,0.61,-7.57,2,4
17456.359,0.19,-0.055,1.014,12.7,-0.49,-7.81,2,4
17456.375,0.199,-0.059,1.007,14.19,-1.77,-7.63,2,4
17456.375,0.208,-0.061,0.999,15.38,-2.62,-8.21,2,4
17456.39,0.217,-0.072,0.988,16.45,-2.5,-9.77,2,4
17456.406,0.216,-0.082,0.992,17.33,-0.98,-11.99,2,4
17456.406,0.222,-0.094,0.997,17.46,0.73,-14.31,2,4
17456.421,0.223,-0.097,1.006,17.21,2.62,-16.72,2,4
17456.421,0.218,-0.097,1.021,17.55,4.39,-19.81,2,4
17456.437,0.209,-0.103,1.037,17.76,5.01,-23.22,2,4
17456.453,0.197,-0.107,1.047,17.82,4.03,-26.64,2,4
17456.453,0.187,-0.108,1.059,17.3,2.04,-30.09,2,4
17456.468,0.172,-0.119,1.068,16.48,0.21,-33.6,2,4
17456.484,0.17,-0.129,1.081,16.02,-1.56,-37.08,2,4
17456.484,0.182,-0.133,1.086,16.97,-3.42,-40.65,2,4
17456.5,0.2,-0.12,1.068,17.76,-5.74,-44.04,2,4
17456.515,0.212,-0.115,1.039,17.7,-8.42,-46.54,2,4
17456.515,0.217,-0.125,1.007,17.82,-10.41,-47.49,2,4
17456.531,0.217,-0.119,0.972,19.65,-10.99,-47.52,2,4
17456.546,0.213,-0.093,0.941,21.67,-9.4,-48.25,2,4
17456.546,0.197,-0.076,0.925,23.13,-5.43,-49.41,2,4
17456.562,0.179,-0.056,0.926,24.48,-0.55,-49.96,2,4
17456.562,0.162,-0.035,0.935,26.55,4.7,-49.56,2,4
17456.578,0.151,-0.019,0.949,29.45,9.77,-48.37,2,4
17456.593,0.141,0.013,0.966,33.17,13.52,-47.4,2,4
17456.593,0.117,0.037,0.981,36.04,15.02,-47.79,2,4
17456.609,0.098,0.056,1.003,35.89,13.61,-49.44,2,4
17456.625,0.089,0.063,1.02,34.18,10.32,-52.06,2,4
17456.625,0.091,0.068,1.024,31.68,5.77,-55.82,2,4
17456.64,0.091,0.069,1.018,28.9,0.49,-60.0,2,4
17456.656,0.085,0.066,1.0,26.8,-4.46,-63.17,2,4
17456.656,0.094,0.075,0.97,25.97,-9.03,-64.97,2,4
17456.671,0.111,0.096,0.934,25.82,-11.9,-66.16,2,4
17456.687,0.116,0.118,0.898,24.69,-11.93,-67.38,2,4
17456.687,0.109,0.125,0.888,23.01,-8.82,-67.57,2,4
17456.703,0.108,0.119,0.9,23.07,-3.17,-65.68,2,4
17456.703,0.119,0.143,0.901,25.91,3.17,-63.57,2,4
17456.718,0.12,0.17,0.913,29.3,9.74,-61.28,2,4
17456.734,0.113,0.192,0.944,31.74,14.74,-58.23,2,4
17456.734,0.106,0.207,0.962,34.15,16.72,-54.29,2,4
17456.75,0.094,0.219,0.97,35.71,15.75,-50.26,2,4
17456.765,0.078,0.226,0.972,35.71,12.88,-46.42,2,4
17456.765,0.071,0.211,0.966,34.94,9.13,-42.39,2,4
17456.781,0.061,0.193,0.956,38.51,5.31,-35.19,2,4
17456.781,0.06,0.197,0.945,41.05,5.28,-32.62,2,4
17456.796,0.063,0.21,0.919,42.09,6.44,-30.64,2,4
17456.812,0.064,0.234,0.894,41.81,8.48,-29.21,2,4
17456.812,0.074,0.258,0.864,41.14,10.5,-28.23,2,4
17456.828,0.071,0.268,0.856,40.38,12.94,-27.56,2,4
17456.843,0.069,0.273,0.857,39.89,15.5,-27.86,2,4
17456.859,0.058,0.286,0.858,39.49,17.18,-29.69,2,4
17456.859,0.046,0.291,0.875,38.06,18.86,-32.23,2,4
17456.875,0.04,0.3,0.9,36.04,19.53,-35.4,2,4
17456.875,0.027,0.307,0.912,34.39,18.4,-38.76,2,4
17456.89,0.01,0.316,0.929,32.69,15.66,-40.99,2,4
17456.906,0.005,0.326,0.935,31.19,11.41,-41.38,2,4
17456.906,0.01,0.33,0.926,30.4,6.62,-40.25,2,4
17456.921,0.016,0.346,0.909,30.3,2.72,-39.37,2,4
17456.937,0.03,0.347,0.9,29.85,0.76,-38.79,2,4
17456.937,0.047,0.341,0.893,29.18,0.37,-38.39,2,4
17456.953,0.05,0.333,0.888,28.93,1.46,-37.93,2,4
17456.953,0.051,0.325,0.884,28.81,3.63,-36.41,2,4
17456.968,0.05,0.322,0.876,29.15,5.98,-34.49,2,4
17456.984,0.053,0.329,0.87,30.03,8.39,-32.69,2,4
17456.984,0.051,0.343,0.862,30.85,11.08,-30.34,2,4
17457.0,0.046,0.357,0.864,31.4,13.7,-27.1,2,4
17457.015,0.038,0.373,0.876,31.98,16.05,-23.35,2,4
17457.015,0.026,0.375,0.88,33.27,17.27,-19.65,2,4
17457.031,0.01,0.375,0.879,35.04,17.3,-17.52,2,4
17457.031,-0.002,0.369,0.883,36.16,16.82,-16.79,2,4
17457.046,-0.001,0.361,0.881,36.01,16.17,-16.6,2,4
17457.062,0.009,0.354,0.881,35.52,16.05,-16.54,2,4
17457.062,0.022,0.326,0.878,35.74,15.93,-16.57,2,4
17457.078,0.026,0.315,0.871,36.62,15.29,-18.01,2,4
17457.093,0.03,0.313,0.867,36.96,14.86,-21.3,2,4
17457.109,0.031,0.302,0.86,36.01,13.89,-26.09,2,4
17457.109,0.03,0.313,0.855,33.85,12.67,-32.26,2,4
17457.125,0.03,0.325,0.851,30.64,12.05,-38.03,2,4
17457.125,0.034,0.332,0.847,26.67,11.93,-41.87,2,4
17457.14,0.041,0.324,0.845,24.35,12.24,-43.03,2,4
17457.156,0.042,0.321,0.839,25.67,13.7,-42.02,2,4
17457.156,0.036,0.332,0.828,29.21,15.9,-40.5,2,4
17457.171,0.023,0.342,0.815,32.87,17.79,-39.52,2,4
17457.187,0.001,0.361,0.804,35.1,18.77,-40.31,2,4
17457.187,-0.025,0.384,0.806,34.7,19.04,-42.73,2,4
17457.203,-0.049,0.383,0.815,31.5,18.28,-44.83,2,4
17457.203,-0.071,0.379,0.819,28.81,16.48,-46.72,2,4
