timestamp,ax,ay,az,gx,gy,gz,orient_label,motion_label
17479.453,-0.558,-0.11,-0.819,-4.7,1.92,5.65,2,4
17479.453,-0.573,-0.123,-0.826,-2.93,3.48,7.69,2,4
17479.468,-0.58,-0.132,-0.825,-0.67,5.46,9.89,2,4
17479.484,-0.585,-0.137,-0.823,1.95,7.02,11.44,2,4
17479.484,-0.59,-0.148,-0.82,3.91,7.97,12.54,2,4
17479.5,-0.592,-0.155,-0.81,5.4,8.76,12.7,2,4
17479.515,-0.589,-0.151,-0.808,6.16,8.91,11.54,2,4
17479.515,-0.58,-0.137,-0.802,5.43,8.0,9.0,2,4
17479.531,-0.578,-0.132,-0.791,3.3,6.81,5.74,2,4
17479.531,-0.58,-0.137,-0.782,1.31,5.01,2.26,2,4
17479.546,-0.585,-0.134,-0.779,-0.15,2.93,-1.04,2,4
17479.562,-0.586,-0.12,-0.782,-1.43,0.98,-3.85,2,4
17479.562,-0.581,-0.106,-0.788,-3.14,-0.7,-5.92,2,4
17479.578,-0.575,-0.104,-0.796,-4.39,-1.53,-7.35,2,4
17479.593,-0.564,-0.099,-0.808,-4.79,-2.11,-7.97,2,4
17479.609,-0.554,-0.098,-0.816,-4.82,-2.11,-7.93,2,4
17479.609,-0.558,-0.101,-0.822,-4.82,-0.89,-7.97,2,4
17479.625,-0.565,-0.097,-0.816,-4.76,2.04,-7.63,2,4
17479.64,-0.582,-0.102,-0.808,-4.27,3.33,-6.93,2,4
17479.656,-0.582,-0.105,-0.799,-3.02,3.75,-5.13,2,4
17479.656,-0.578,-0.104,-0.79,-1.19,3.42,-3.14,2,4
17479.671,-0.575,-0.11,-0.789,0.95,1.43,-0.43,2,4
17479.687,-0.566,-0.117,-0.794,3.17,0.24,2.59,2,4
17479.687,-0.565,-0.116,-0.8,4.7,-0.4,3.51,2,4
17479.703,-0.564,-0.119,-0.809,4.21,-0.37,3.11,2,4
17479.703,-0.562,-0.119,-0.815,1.68,-0.67,1.22,2,4
17479.718,-0.552,-0.13,-0.813,-1.1,-1.59,-1.28,2,4
17479.734,-0.551,-0.136,-0.81,-3.02,-1.95,-4.12,2,4
17479.734,-0.55,-0.138,-0.81,-3.66,-2.81,-6.9,2,4
17479.75,-0.558,-0.136,-0.813,-3.42,-2.93,-9.55,2,4
17479.765,-0.564,-0.125,-0.811,-4.39,-2.59,-12.18,2,4
17479.765,-0.573,-0.126,-0.797,-6.13,-2.04,-14.5,2,4
17479.781,-0.573,-0.116,-0.784,-6.74,-2.23,-15.78,2,4
17479.796,-0.569,-0.103,-0.782,-6.84,-3.08,-15.2,2,4
17479.796,-0.563,-0.1,-0.783,-6.71,-4.3,-12.48,2,4
17479.812,-0.559,-0.096,-0.795,-4.82,-5.49,-8.91,2,4
17479.828,-0.554,-0.094,-0.819,-2.44,-5.77,-5.28,2,4
17479.828,-0.548,-0.091,-0.839,-1.1,-4.94,-2.14,2,4
17479.843,-0.543,-0.105,-0.845,0.0,-2.69,-0.4,2,4
17479.843,-0.54,-0.114,-0.845,1.59,0.37,-0.67,2,4
17479.859,-0.542,-0.102,-0.84,2.59,3.11,-1.89,2,4
17479.875,-0.541,-0.091,-0.822,1.95,4.73,-3.57,2,4
17479.875,-0.53,-0.078,-0.805,0.12,4.61,-6.53,2,4
17479.89,-0.522,-0.054,-0.798,-2.84,2.81,-10.13,2,4
17479.89,-0.513,-0.038,-0.795,-6.99,-0.03,-12.82,2,4
17479.906,-0.492,-0.031,-0.794,-10.35,-2.38,-14.83,2,4
17479.921,-0.482,-0.024,-0.797,-12.39,-3.23,-17.55,2,4
17479.937,-0.486,-0.005,-0.801,-14.22,-2.96,-20.51,2,4
17479.937,-0.491,0.025,-0.803,-17.03,-1.95,-23.32,2,4
17479.953,-0.503,0.027,-0.793,-20.75,-0.64,-25.3,2,4
17479.953,-0.517,-0.001,-0.785,-22.95,-0.18,-26.09,2,4
17479.968,-0.543,-0.01,-0.8,-22.89,-0.37,-25.27,2,4
17479.984,-0.57,-0.029,-0.815,-22.46,-0.85,-21.27,2,4
17480.0,-0.576,-0.067,-0.818,-20.51,-0.52,-15.35,2,4
17480.0,-0.578,-0.099,-0.821,-16.57,1.1,-10.62,2,4
17480.015,-0.581,-0.132,-0.811,-11.93,3.97,-7.23,2,4
17480.015,-0.575,-0.134,-0.801,-7.93,6.9,-5.34,2,4
17480.031,-0.567,-0.125,-0.776,-6.78,9.16,-3.27,2,4
17480.046,-0.553,-0.135,-0.735,-5.65,9.95,-1.07,2,4
17480.046,-0.531,-0.129,-0.722,-2.47,8.55,-0.24,2,4
17480.062,-0.519,-0.103,-0.753,-1.59,3.94,-0.24,2,4
17480.062,-0.525,-0.119,-0.805,-4.97,-3.75,1.04,2,4
17480.078,-0.52,-0.185,-0.845,-8.64,-9.49,4.27,2,4
17480.093,-0.514,-0.233,-0.867,-8.15,-9.77,5.01,2,4
17480.093,-0.532,-0.258,-0.888,-4.0,-4.43,2.69,2,4
17480.109,-0.553,-0.257,-0.879,-0.4,4.12,0.06,2,4
17480.125,-0.557,-0.252,-0.844,1.01,11.29,-3.11,2,4
17480.125,-0.556,-0.246,-0.795,1.1,15.63,-6.56,2,4
17480.14,-0.564,-0.221,-0.771,1.31,15.63,-9.25,2,4
17480.156,-0.579,-0.188,-0.782,0.43,9.98,-9.86,2,4
17480.156,-0.583,-0.193,-0.805,-1.98,2.41,-7.66,2,4
17480.171,-0.584,-0.214,-0.831,-2.96,-2.84,-5.04,2,4
17480.171,-0.582,-0.237,-0.866,-1.25,-4.58,-4.06,2,4
17480.187,-0.577,-0.247,-0.886,0.76,-2.69,-4.06,2,4
17480.203,-0.572,-0.238,-0.881,1.37,2.11,-5.58,2,4
17480.203,-0.59,-0.236,-0.845,0.76,8.12,-7.69,2,4
17480.218,-0.605,-0.231,-0.788,1.98,12.15,-8.09,2,4
17480.234,-0.614,-0.201,-0.755,5.74,12.24,-8.06,2,4
17480.234,-0.623,-0.165,-0.754,7.17,8.91,-8.09,2,4
17480.25,-0.622,-0.144,-0.764,4.85,2.69,-7.97,2,4
17480.265,-0.614,-0.139,-0.79,0.64,-4.43,-7.78,2,4
17480.265,-0.611,-0.141,-0.816,-3.23,-10.25,-7.57,2,4
17480.281,-0.605,-0.138,-0.835,-5.8,-14.16,-7.14,2,4
17480.296,-0.596,-0.136,-0.853,-6.62,-16.05,-6.68,2,4
17480.296,-0.592,-0.14,-0.869,-6.2,-16.27,-6.01,2,4
17480.312,-0.579,-0.138,-0.882,-4.76,-15.2,-5.07,2,4
17480.328,-0.573,-0.137,-0.892,-3.39,-13.03,-4.0,2,4
17480.328,-0.584,-0.153,-0.897,-2.2,-10.86,-1.8,2,4
17480.343,-0.595,-0.159,-0.902,0.15,-10.13,1.83,2,4
17480.343,-0.59,-0.143,-0.9,2.93,-9.46,3.72,2,4
17480.359,-0.592,-0.126,-0.895,3.57,-7.66,2.72,2,4
17480.375,-0.597,-0.118,-0.872,1.83,-5.55,0.58,2,4
17480.375,-0.585,-0.101,-0.833,-0.21,-4.0,-1.86,2,4
17480.39,-0.577,-0.079,-0.799,-3.66,-5.07,-7.66,2,4
17480.406,-0.585,-0.056,-0.782,-6.56,-9.58,-9.16,2,4
17480.406,-0.589,-0.034,-0.781,-9.86,-15.44,-9.49,2,4
17480.421,-0.596,-0.023,-0.805,-13.21,-21.42,-8.88,2,4
17480.437,-0.604,-0.047,-0.875,-15.93,-25.36,-8.18,2,4
17480.437,-0.597,-0.071,-0.898,-17.21,-25.51,-8.76,2,4
17480.453,-0.588,-0.094,-0.908,-17.24,-21.97,-11.14,2,4
17480.468,-0.557,-0.074,-0.858,-18.98,-10.28,-17.49,2,4
17480.484,-0.558,-0.063,-0.8,-20.75,-4.85,-18.52,2,4
17480.5,-0.56,-0.055,-0.734,-20.2,-1.31,-16.33,2,4
17480.5,-0.57,-0.047,-0.682,-16.14,0.4,-11.78,2,4
17480.515,-0.581,-0.027,-0.659,-10.9,-0.06,-5.74,2,4
17480.515,-0.588,-0.008,-0.645,-7.17,-2.75,1.01,2,4
17480.531,-0.583,-0.007,-0.645,-5.52,-7.32,7.2,2,4
17480.546,-0.565,-0.014,-0.656,-5.46,-12.54,11.47,2,4
17480.546,-0.547,-0.02,-0.688,-6.81,-17.61,13.46,2,4
17480.562,-0.528,-0.028,-0.721,-9.89,-21.36,13.89,2,4
17480.562,-0.518,-0.05,-0.748,-12.39,-22.83,12.85,2,4
17480.578,-0.515,-0.066,-0.772,-13.46,-21.94,11.47,2,4
17480.593,-0.507,-0.067,-0.789,-14.19,-19.35,9.06,2,4
17480.593,-0.51,-0.065,-0.799,-15.75,-15.78,5.83,2,4
17480.609,-0.523,-0.07,-0.794,-18.04,-11.84,3.2,2,4
17480.625,-0.525,-0.075,-0.785,-18.92,-8.61,1.4,2,4
17480.64,-0.588,-0.105,-0.748,-15.59,-2.26,-0.79,2,4
17480.656,-0.61,-0.103,-0.734,-13.15,-2.23,-0.92,2,4
17480.656,-0.629,-0.104,-0.734,-12.05,-5.01,-1.56,2,4
17480.671,-0.637,-0.096,-0.756,-13.49,-10.47,-2.41,2,4
17480.671,-0.624,-0.1,-0.786,-16.48,-17.21,-3.91,2,4
17480.687,-0.606,-0.11,-0.822,-20.02,-22.58,-5.83,2,4
17480.703,-0.587,-0.117,-0.854,-22.31,-24.93,-7.48,2,4
17480.703,-0.574,-0.12,-0.881,-22.43,-24.41,-8.45,2,4
17480.718,-0.59,-0.145,-0.884,-19.56,-20.02,-8.24,2,4
17480.734,-0.608,-0.168,-0.87,-13.4,-12.15,-6.81,2,4
17480.75,-0.617,-0.155,-0.856,-5.16,-3.63,-6.1,2,4
17480.75,-0.621,-0.123,-0.846,1.53,2.41,-6.56,2,4
17480.765,-0.607,-0.108,-0.834,4.27,6.47,-7.45,2,4
17480.765,-0.592,-0.104,-0.823,5.01,9.58,-9.16,2,4
17480.781,-0.582,-0.086,-0.819,4.73,11.54,-11.29,2,4
17480.796,-0.575,-0.058,-0.793,3.75,11.78,-12.51,2,4
17480.796,-0.57,-0.051,-0.785,2.78,10.44,-13.09,2,4
17480.812,-0.566,-0.039,-0.774,1.04,8.45,-13.06,2,4
17480.812,-0.564,-0.033,-0.773,-0.85,5.83,-12.39,2,4
17480.828,-0.563,-0.034,-0.775,-2.29,2.84,-11.08,2,4
17480.843,-0.561,-0.036,-0.795,-3.57,-0.09,-9.25,2,4
17480.843,-0.577,-0.052,-0.804,-4.79,-2.29,-6.62,2,4
17480.859,-0.594,-0.075,-0.806,-4.3,-2.44,-3.27,2,4
17480.875,-0.606,-0.07,-0.809,-2.08,-1.89,-0.95,2,4
17480.875,-0.606,-0.062,-0.822,-0.03,-2.04,-0.15,2,4
17480.89,-0.608,-0.046,-0.835,-0.92,-2.47,0.31,2,4
17480.906,-0.603,-0.054,-0.834,-3.42,-2.9,1.1,2,4
17480.906,-0.599,-0.079,-0.824,-3.97,-2.62,2.01,2,4
17480.921,-0.606,-0.095,-0.813,-1.16,-1.04,3.3,2,4
17480.937,-0.604,-0.089,-0.806,2.44,0.31,4.61,2,4
17480.937,-0.599,-0.076,-0.81,4.55,0.06,4.97,2,4
17480.953,-0.597,-0.067,-0.815,3.27,-1.37,4.43,2,4
17480.953,-0.593,-0.071,-0.814,0.24,-3.11,3.33,2,4
17480.968,-0.582,-0.083,-0.822,-2.01,-4.85,1.28,2,4
17480.984,-0.586,-0.088,-0.829,-3.23,-5.04,-1.53,2,4
17480.984,-0.59,-0.086,-0.825,-3.75,-3.91,-3.51,2,4
17481.0,-0.588,-0.078,-0.821,-3.63,-2.08,-4.94,2,4
17481.015,-0.597,-0.078,-0.817,-3.45,0.03,-6.07,2,4
17481.015,-0.599,-0.078,-0.804,-2.99,1.71,-6.29,2,4
17481.031,-0.596,-0.071,-0.792,-1.86,2.78,-6.65,2,4
17481.031,-0.595,-0.063,-0.793,-1.19,2.84,-7.29,2,4
17481.046,-0.593,-0.05,-0.798,-2.56,2.04,-7.81,2,4
17481.062,-0.597,-0.052,-0.801,-4.88,1.01,-8.03,2,4
17481.062,-0.604,-0.069,-0.798,-6.04,0.46,-7.48,2,4
17481.078,-0.606,-0.077,-0.797,-5.31,0.61,-6.71,2,4
17481.093,-0.608,-0.072,-0.798,-3.54,1.01,-6.16,2,4
17481.093,-0.617,-0.053,-0.808,-3.05,1.28,-5.74,2,4
17481.109,-0.63,-0.045,-0.814,-4.36,1.22,-5.1,2,4
17481.125,-0.625,-0.056,-0.807,-5.4,1.04,-4.36,2,4
17481.125,-0.621,-0.066,-0.805,-4.36,1.71,-3.81,2,4
17481.14,-0.625,-0.072,-0.803,-1.98,3.36,-2.75,2,4
17481.156,-0.624,-0.07,-0.793,0.4,5.4,-1.13,2,4
17481.156,-0.613,-0.062,-0.776,2.11,6.41,-0.37,2,4
17481.171,-0.609,-0.058,-0.771,2.2,6.04,-1.07,2,4
17481.171,-0.604,-0.048,-0.781,0.15,4.24,-2.08,2,4
17481.187,-0.606,-0.046,-0.795,-2.69,2.23,-2.96,2,4
17481.203,-0.613,-0.051,-0.801,-5.43,0.92,-3.66,2,4
17481.203,-0.613,-0.056,-0.806,-6.29,0.89,-4.33,2,4
17481.218,-0.622,-0.058,-0.807,-5.71,2.32,-4.88,2,4
17481.234,-0.628,-0.063,-0.797,-4.24,4.7,-4.18,2,4
17481.25,-0.63,-0.065,-0.782,-2.29,6.71,-3.2,2,4
17481.25,-0.632,-0.066,-0.773,-0.27,7.51,-2.56,2,4
17481.265,-0.627,-0.056,-0.768,0.58,7.17,-2.11,2,4
17481.265,-0.624,-0.048,-0.77,-0.18,5.74,-1.8,2,4
17481.281,-0.628,-0.051,-0.773,-1.95,3.69,-1.8,2,4
17481.296,-0.623,-0.055,-0.772,-3.14,2.29,-1.71,2,4
17481.296,-0.62,-0.061,-0.774,-2.2,2.08,-1.59,2,4
17481.312,-0.622,-0.059,-0.779,-0.85,2.23,-1.59,2,4
17481.312,-0.619,-0.053,-0.78,-1.19,2.2,-1.83,2,4
17481.328,-0.617,-0.057,-0.78,-2.01,1.86,-2.11,2,4
17481.343,-0.612,-0.06,-0.781,-2.59,1.4,-2.35,2,4
17481.343,-0.612,-0.06,-0.785,-2.9,0.82,-3.02,2,4
17481.359,-0.62,-0.056,-0.789,-3.48,0.55,-3.66,2,4
17481.375,-0.622,-0.057,-0.784,-3.91,0.52,-3.6,2,4
17481.375,-0.623,-0.056,-0.787,-2.62,1.07,-2.59,2,4
17481.39,-0.624,-0.054,-0.787,-1.8,0.95,-1.46,2,4
17481.406,-0.618,-0.051,-0.784,-1.07,0.82,-0.15,2,4
17481.406,-0.61,-0.049,-0.789,-1.01,0.09,1.07,2,4
17481.421,-0.605,-0.051,-0.788,-1.25,-0.58,1.5,2,4
17481.421,-0.607,-0.058,-0.793,-1.19,-1.04,1.4,2,4
17481.437,-0.607,-0.057,-0.801,-1.59,-1.34,1.07,2,4
17481.453,-0.609,-0.058,-0.796,-2.72,-1.01,0.46,2,4
17481.468,-0.608,-0.068,-0.788,-3.33,-0.52,-0.4,2,4
17481.468,-0.607,-0.071,-0.783,-2.84,-0.09,-0.92,2,4
17481.484,-0.604,-0.067,-0.782,-2.17,-0.27,-1.1,2,4
17481.484,-0.602,-0.065,-0.781,-2.14,-0.67,-1.31,2,4
17481.5,-0.599,-0.069,-0.787,-2.56,-1.86,-2.04,2,4
17481.515,-0.601,-0.068,-0.791,-3.6,-2.96,-2.84,2,4
17481.515,-0.604,-0.072,-0.792,-4.61,-3.45,-4.06,2,4
17481.531,-0.602,-0.069,-0.794,-5.1,-3.63,-5.34,2,4
17481.546,-0.601,-0.061,-0.796,-5.89,-3.45,-6.41,2,4
17481.546,-0.602,-0.058,-0.789,-6.56,-3.57,-7.17,2,4
17481.562,-0.597,-0.053,-0.782,-6.74,-3.69,-7.02,2,4
17481.562,-0.593,-0.047,-0.778,-6.04,-3.97,-6.35,2,4
17481.578,-0.59,-0.053,-0.784,-4.94,-4.27,-5.37,2,4
17481.593,-0.587,-0.047,-0.784,-4.3,-4.7,-3.6,2,4
17481.593,-0.586,-0.047,-0.793,-3.97,-4.85,-2.2,2,4
17481.609,-0.589,-0.049,-0.796,-4.0,-4.88,-0.98,2,4
17481.625,-0.589,-0.056,-0.801,-3.27,-4.39,0.03,2,4
17481.625,-0.595,-0.057,-0.802,-2.59,-4.0,0.64,2,4
17481.64,-0.595,-0.057,-0.802,-2.5,-3.3,1.43,2,4
17481.656,-0.593,-0.063,-0.798,-1.77,-2.75,1.53,2,4
17481.656,-0.589,-0.061,-0.798,-1.25,-2.44,1.07,2,4
17481.671,-0.589,-0.052,-0.797,-1.65,-2.2,0.43,2,4
17481.687,-0.593,-0.05,-0.796,-2.38,-2.35,-0.31,2,4
17481.687,-0.591,-0.05,-0.796,-3.36,-3.02,-0.4,2,4
17481.703,-0.589,-0.053,-0.792,-3.81,-3.57,-0.58,2,4
17481.703,-0.592,-0.056,-0.792,-3.42,-4.09,-0.67,2,4
17481.718,-0.597,-0.054,-0.793,-3.36,-4.64,-0.37,2,4
17481.734,-0.592,-0.059,-0.789,-3.23,-4.91,-0.06,2,4
17481.734,-0.591,-0.061,-0.794,-2.69,-5.28,-0.24,2,4
17481.75,-0.592,-0.058,-0.802,-2.72,-5.37,-0.24,2,4
17481.765,-0.587,-0.06,-0.797,-3.36,-5.4,-0.46,2,4
17481.765,-0.588,-0.067,-0.801,-3.85,-5.4,-1.1,2,4
17481.781,-0.59,-0.071,-0.802,-3.75,-5.43,-1.74,2,4
17481.781,-0.588,-0.069,-0.802,-4.0,-5.25,-2.44,2,4
17481.796,-0.587,-0.07,-0.801,-4.0,-4.76,-2.93,2,4
17481.812,-0.591,-0.077,-0.799,-3.72,-4.3,-3.42,2,4
17481.812,-0.592,-0.072,-0.798,-3.66,-3.75,-3.91,2,4
17481.828,-0.593,-0.065,-0.801,-3.42,-2.99,-4.82,2,4
17481.843,-0.601,-0.058,-0.796,-3.75,-1.95,-5.8,2,4
17481.843,-0.607,-0.054,-0.786,-4.06,-1.07,-6.16,2,4
17481.859,-0.606,-0.054,-0.777,-3.78,-0.76,-5.92,2,4
17481.875,-0.605,-0.057,-0.772,-2.62,-1.16,-5.28,2,4
17481.875,-0.603,-0.054,-0.774,-1.07,-2.14,-4.64,2,4
17481.89,-0.605,-0.051,-0.784,-0.49,-3.14,-3.75,2,4
17481.906,-0.603,-0.055,-0.793,-1.25,-4.18,-3.14,2,4
17481.906,-0.604,-0.062,-0.804,-1.59,-4.73,-3.3,2,4
17481.921,-0.609,-0.064,-0.812,-1.5,-4.73,-4.09,2,4
17481.921,-0.606,-0.064,-0.815,-1.5,-4.39,-5.19,2,4
17481.937,-0.609,-0.065,-0.816,-1.56,-3.85,-6.5,2,4
17481.953,-0.613,-0.066,-0.817,-1.86,-3.57,-7.72,2,4
17481.953,-0.608,-0.063,-0.817,-2.35,-3.81,-8.88,2,4
17481.968,-0.605,-0.055,-0.818,-3.36,-4.49,-10.5,2,4
17482.0,-0.605,-0.047,-0.818,-5.77,-5.58,-13.67,2,4
17482.0,-0.599,-0.039,-0.818,-7.05,-6.23,-15.23,2,4
17482.015,-0.6,-0.032,-0.822,-8.33,-7.05,-16.27,2,4
17482.015,-0.599,-0.026,-0.82,-9.61,-7.54,-16.42,2,4
17482.031,-0.592,-0.026,-0.822,-10.04,-7.66,-16.11,2,4
17482.046,-0.586,-0.025,-0.826,-9.64,-7.08,-15.2,2,4
17482.046,-0.576,-0.026,-0.824,-8.36,-5.58,-13.67,2,4
17482.062,-0.574,-0.026,-0.825,-7.08,-3.66,-12.42,2,4
17482.062,-0.579,-0.021,-0.829,-6.41,-1.71,-11.26,2,4
17482.078,-0.58,-0.02,-0.82,-6.16,0.15,-10.01,2,4
17482.093,-0.579,-0.019,-0.815,-6.01,1.77,-9.28,2,4
17482.109,-0.579,-0.024,-0.807,-6.81,2.84,-8.91,2,4
17482.109,-0.575,-0.026,-0.798,-7.81,3.72,-9.03,2,4
17482.125,-0.575,-0.028,-0.793,-8.24,4.46,-9.4,2,4
17482.125,-0.572,-0.029,-0.787,-9.37,5.1,-9.46,2,4
17482.14,-0.572,-0.036,-0.773,-10.38,6.04,-9.4,2,4
17482.156,-0.575,-0.049,-0.751,-8.51,8.33,-9.28,2,4
17482.171,-0.577,-0.058,-0.74,-7.23,8.7,-8.55,2,4
17482.187,-0.577,-0.066,-0.733,-6.01,8.3,-8.15,2,4
17482.187,-0.576,-0.066,-0.731,-5.43,7.05,-8.36,2,4
17482.203,-0.576,-0.068,-0.732,-5.92,5.07,-9.13,2,4
17482.203,-0.578,-0.072,-0.737,-7.2,2.56,-10.35,2,4
17482.218,-0.577,-0.073,-0.749,-8.79,-0.03,-11.63,2,4
17482.234,-0.576,-0.073,-0.76,-10.1,-2.04,-12.85,2,4
17482.25,-0.576,-0.081,-0.767,-10.5,-3.3,-13.73,2,4
17482.25,-0.577,-0.094,-0.769,-9.46,-3.69,-14.07,2,4
17482.265,-0.574,-0.095,-0.773,-7.39,-3.33,-13.82,2,4
17482.265,-0.577,-0.084,-0.78,-5.8,-2.99,-13.67,2,4
17482.281,-0.582,-0.073,-0.791,-5.86,-3.6,-13.25,2,4
17482.296,-0.582,-0.071,-0.801,-6.93,-4.67,-12.24,2,4
17482.296,-0.583,-0.086,-0.806,-6.9,-5.1,-10.96,2,4
17482.312,-0.584,-0.106,-0.808,-4.67,-4.12,-9.61,2,4
17482.328,-0.602,-0.103,-0.807,0.76,-0.52,-7.72,2,4
17482.343,-0.611,-0.102,-0.797,1.5,0.58,-7.78,2,4
17482.343,-0.62,-0.097,-0.792,0.61,0.4,-9.03,2,4
17482.359,-0.626,-0.089,-0.787,-3.91,-2.99,-12.57,2,4
17482.375,-0.636,-0.091,-0.786,-5.83,-5.1,-12.63,2,4
17482.375,-0.639,-0.09,-0.786,-6.1,-6.93,-11.81,2,4
17482.39,-0.636,-0.098,-0.789,-4.24,-7.72,-10.22,2,4
17482.406,-0.635,-0.1,-0.807,-1.71,-7.87,-8.24,2,4
17482.406,-0.629,-0.09,-0.812,-0.15,-7.75,-6.44,2,4
17482.421,-0.632,-0.094,-0.824,0.52,-6.29,-5.34,2,4
17482.437,-0.627,-0.091,-0.818,0.82,-4.64,-4.97,2,4
17482.437,-0.622,-0.085,-0.809,0.98,-3.08,-5.4,2,4
17482.453,-0.631,-0.082,-0.806,1.01,-1.89,-6.07,2,4
17482.453,-0.63,-0.075,-0.796,0.46,-1.28,-6.01,2,4
17482.468,-0.625,-0.068,-0.785,-0.31,-1.86,-6.1,2,4
17482.484,-0.624,-0.069,-0.782,-0.85,-2.84,-5.89,2,4
17482.5,-0.612,-0.072,-0.788,-0.76,-4.3,-3.88,2,4
17482.515,-0.613,-0.075,-0.792,-0.15,-4.15,-2.81,2,4
17482.515,-0.609,-0.079,-0.795,0.27,-3.27,-1.95,2,4
17482.531,-0.609,-0.08,-0.794,1.01,-1.86,-2.01,2,4
17482.531,-0.611,-0.071,-0.796,1.46,-0.64,-2.81,2,4
17482.546,-0.614,-0.061,-0.793,0.52,-0.55,-3.75,2,4
17482.562,-0.616,-0.064,-0.791,-0.98,-1.07,-4.46,2,4
17482.562,-0.617,-0.067,-0.787,-1.71,-1.56,-4.94,2,4
17482.578,-0.616,-0.066,-0.785,-1.65,-2.2,-5.22,2,4
17482.593,-0.618,-0.061,-0.783,-1.83,-2.99,-5.16,2,4
17482.593,-0.619,-0.057,-0.784,-2.08,-4.03,-4.58,2,4
17482.609,-0.614,-0.053,-0.788,-2.5,-5.07,-3.48,2,4
17482.625,-0.607,-0.055,-0.795,-2.41,-5.49,-2.44,2,4
17482.625,-0.604,-0.052,-0.798,-1.98,-5.25,-1.68,2,4
17482.64,-0.598,-0.046,-0.808,-1.16,-4.46,-1.01,2,4
17482.656,-0.597,-0.046,-0.811,-0.76,-3.14,-0.55,2,4
17482.671,-0.594,-0.043,-0.808,-1.16,-0.15,-0.64,2,4
17482.671,-0.594,-0.041,-0.803,-1.95,0.73,-1.31,2,4
17482.687,-0.602,-0.048,-0.793,-2.99,1.31,-1.89,2,4
17482.703,-0.609,-0.047,-0.781,-3.57,1.8,-2.08,2,4
17482.703,-0.61,-0.041,-0.777,-3.88,1.5,-2.01,2,4
17482.718,-0.611,-0.035,-0.778,-4.33,0.67,-1.16,2,4
17482.734,-0.609,-0.035,-0.782,-4.91,-0.52,0.24,2,4
17482.734,-0.607,-0.042,-0.786,-5.25,-1.71,1.8,2,4
17482.75,-0.605,-0.052,-0.794,-4.76,-2.11,3.75,2,4
17482.765,-0.598,-0.055,-0.802,-3.69,-1.43,5.74,2,4
17482.765,-0.596,-0.058,-0.809,-2.75,-0.21,6.71,2,4
17482.781,-0.594,-0.061,-0.81,-2.75,1.34,7.35,2,4
17482.796,-0.599,-0.069,-0.803,-2.72,3.3,7.69,2,4
17482.796,-0.6,-0.074,-0.795,-2.5,5.13,8.0,2,4
17482.812,-0.604,-0.077,-0.784,-2.11,6.07,8.3,2,4
17482.812,-0.611,-0.083,-0.775,-1.62,6.38,8.55,2,4
17482.843,-0.605,-0.093,-0.752,-1.74,5.49,7.93,2,4
17482.843,-0.608,-0.095,-0.75,-1.86,3.69,7.11,2,4
17482.859,-0.606,-0.093,-0.75,-2.44,1.89,6.65,2,4
17482.875,-0.603,-0.097,-0.758,-2.87,0.37,5.8,2,4
17482.875,-0.604,-0.096,-0.767,-2.9,-0.85,5.13,2,4
17482.89,-0.599,-0.099,-0.769,-2.84,-1.28,4.76,2,4
17482.906,-0.597,-0.101,-0.772,-2.26,-0.61,3.94,2,4
17482.906,-0.604,-0.102,-0.774,-1.19,0.15,2.81,2,4
17482.921,-0.608,-0.091,-0.773,-0.98,0.27,2.04,2,4
17482.921,-0.61,-0.089,-0.766,-1.77,0.0,1.62,2,4
17482.937,-0.611,-0.093,-0.764,-2.14,-0.82,1.34,2,4
17482.953,-0.611,-0.091,-0.765,-1.95,-1.89,1.46,2,4
17482.968,-0.61,-0.09,-0.766,-1.13,-2.99,1.77,2,4
17482.968,-0.612,-0.093,-0.768,0.21,-3.33,1.92,2,4
17482.984,-0.613,-0.089,-0.775,0.95,-3.97,1.83,2,4
17482.984,-0.62,-0.086,-0.779,0.85,-4.82,1.98,2,4
17483.015,-0.618,-0.087,-0.786,0.7,-5.4,2.32,2,4
17483.015,-0.616,-0.081,-0.791,1.5,-5.68,2.11,2,4
17483.031,-0.615,-0.078,-0.804,2.11,-5.8,2.04,2,4
17483.046,-0.613,-0.072,-0.811,1.59,-5.68,2.11,2,4
17483.046,-0.61,-0.083,-0.805,1.22,-5.04,1.83,2,4
17483.062,-0.616,-0.087,-0.8,2.14,-3.48,1.31,2,4
17483.062,-0.624,-0.08,-0.79,3.33,-1.8,0.85,2,4
17483.078,-0.632,-0.072,-0.778,3.94,-0.43,0.03,2,4
17483.093,-0.639,-0.065,-0.765,3.75,-0.06,-0.73,2,4
17483.093,-0.64,-0.059,-0.75,2.9,-0.55,-1.59,2,4
17483.109,-0.64,-0.055,-0.739,2.32,-2.11,-2.08,2,4
17483.125,-0.634,-0.055,-0.739,1.98,-4.52,-2.08,2,4
17483.125,-0.629,-0.053,-0.744,1.56,-6.81,-1.89,2,4
17483.14,-0.626,-0.053,-0.757,1.46,-8.45,-1.68,2,4
17483.156,-0.623,-0.052,-0.773,1.56,-9.28,-1.22,2,4
17483.156,-0.624,-0.051,-0.786,1.8,-9.16,-1.1,2,4
17483.187,-0.624,-0.054,-0.802,2.59,-6.23,-1.53,2,4
17483.187,-0.628,-0.053,-0.795,2.78,-4.3,-2.11,2,4
17483.203,-0.629,-0.046,-0.787,2.9,-3.36,-2.69,2,4
17483.203,-0.629,-0.04,-0.78,3.02,-3.33,-2.87,2,4
17483.218,-0.632,-0.038,-0.777,2.62,-4.27,-2.93,2,4
17483.234,-0.63,-0.034,-0.779,2.04,-6.13,-2.84,2,4
17483.234,-0.626,-0.03,-0.785,1.43,-7.42,-2.87,2,4
17483.25,-0.621,-0.03,-0.795,0.49,-7.97,-3.17,2,4
17483.265,-0.617,-0.033,-0.797,-0.06,-8.06,-3.33,2,4
17483.265,-0.616,-0.038,-0.795,-0.06,-7.02,-2.87,2,4
17483.281,-0.613,-0.038,-0.792,0.79,-5.77,-2.5,2,4
17483.296,-0.615,-0.033,-0.792,1.77,-4.7,-2.29,2,4
17483.296,-0.613,-0.023,-0.793,1.83,-4.33,-1.53,2,4
17483.312,-0.61,-0.023,-0.792,0.95,-4.06,-0.85,2,4
17483.328,-0.609,-0.031,-0.79,0.55,-3.94,-0.18,2,4
17483.328,-0.603,-0.037,-0.783,0.85,-3.81,0.73,2,4
17483.343,-0.595,-0.056,-0.778,2.84,-2.29,2.04,2,4
17483.359,-0.591,-0.061,-0.775,2.62,-2.2,1.62,2,4
17483.375,-0.594,-0.061,-0.775,2.01,-2.75,1.56,2,4
17483.375,-0.587,-0.068,-0.779,1.5,-3.39,1.07,2,4
17483.39,-0.588,-0.072,-0.785,1.1,-3.57,0.43,2,4
17483.406,-0.585,-0.07,-0.791,0.76,-3.66,-0.18,2,4
17483.406,-0.58,-0.073,-0.794,0.18,-3.33,-0.92,2,4
17483.421,-0.576,-0.079,-0.796,0.06,-2.66,-1.5,2,4
17483.421,-0.576,-0.077,-0.799,0.46,-1.68,-2.26,2,4
17483.437,-0.575,-0.072,-0.803,0.4,-0.67,-2.99,2,4
17483.453,-0.574,-0.072,-0.803,-0.67,0.24,-3.88,2,4
17483.453,-0.58,-0.083,-0.796,-1.53,1.22,-4.7,2,4
17483.468,-0.586,-0.086,-0.788,-1.77,2.41,-5.52,2,4
17483.484,-0.587,-0.083,-0.78,-1.46,3.27,-6.32,2,4
17483.5,-0.594,-0.08,-0.775,-1.62,3.39,-7.11,2,4
17483.5,-0.601,-0.078,-0.771,-2.32,2.9,-7.42,2,4
17483.515,-0.593,-0.087,-0.765,-2.44,2.01,-7.93,2,4
17483.531,-0.591,-0.088,-0.765,-1.77,2.08,-9.03,2,4
17483.546,-0.588,-0.071,-0.766,-1.98,2.2,-10.04,2,4
17483.546,-0.589,-0.063,-0.763,-3.66,2.04,-11.38,2,4
17483.562,-0.593,-0.069,-0.763,-5.34,1.37,-12.36,2,4
17483.562,-0.592,-0.075,-0.767,-5.89,0.55,-12.57,2,4
17483.578,-0.598,-0.076,-0.771,-5.65,0.31,-12.42,2,4
17483.593,-0.603,-0.077,-0.778,-5.01,0.49,-11.69,2,4
17483.593,-0.607,-0.077,-0.778,-4.39,1.04,-10.83,2,4
17483.609,-0.615,-0.08,-0.778,-4.0,1.92,-10.04,2,4
17483.625,-0.621,-0.084,-0.775,-3.36,2.41,-9.31,2,4
17483.625,-0.62,-0.085,-0.771,-2.47,2.47,-8.55,2,4
17483.64,-0.618,-0.087,-0.769,-1.8,2.11,-7.87,2,4
17483.656,-0.614,-0.09,-0.774,-1.28,1.4,-7.63,2,4
17483.656,-0.612,-0.091,-0.781,-1.28,0.67,-8.06,2,4
17483.671,-0.611,-0.095,-0.785,-1.98,0.12,-9.0,2,4
17483.687,-0.614,-0.097,-0.786,-2.66,0.27,-10.04,2,4
17483.687,-0.616,-0.103,-0.783,-2.56,1.04,-10.96,2,4
17483.703,-0.618,-0.102,-0.78,-2.38,1.46,-11.84,2,4
17483.703,-0.621,-0.091,-0.776,-2.81,1.31,-12.91,2,4
17483.718,-0.626,-0.082,-0.777,-3.75,0.58,-13.31,2,4
17483.734,-0.626,-0.078,-0.781,-4.76,-0.7,-13.06,2,4
17483.75,-0.624,-0.082,-0.782,-5.16,-1.98,-12.24,2,4
17483.75,-0.625,-0.091,-0.787,-4.39,-2.41,-11.17,2,4
17483.765,-0.623,-0.091,-0.793,-2.72,-2.04,-9.89,2,4
17483.765,-0.627,-0.089,-0.792,-1.71,-1.01,-8.79,2,4
17483.781,-0.627,-0.086,-0.79,-1.25,0.12,-8.06,2,4
17483.781,-0.63,-0.085,-0.784,-0.55,1.25,-7.26,2,4
17483.796,-0.631,-0.079,-0.778,0.18,1.83,-6.26,2,4
17483.812,-0.634,-0.075,-0.772,0.82,1.83,-4.94,2,4
17483.812,-0.64,-0.081,-0.77,2.04,1.86,-3.27,2,4
17483.828,-0.638,-0.079,-0.777,3.33,2.23,-1.16,2,4
17483.843,-0.642,-0.073,-0.773,4.73,3.36,1.01,2,4
17483.843,-0.647,-0.067,-0.768,6.74,4.7,3.75,2,4
17483.859,-0.657,-0.049,-0.764,8.36,5.55,7.23,2,4
17483.875,-0.667,-0.038,-0.754,9.7,5.49,11.54,2,4
17483.89,-0.679,-0.033,-0.746,11.26,5.1,17.3,2,4
17483.89,-0.689,-0.021,-0.723,12.7,3.33,25.21,2,4
17483.906,-0.678,-0.052,-0.729,18.4,2.44,34.82,2,4
17483.906,-0.676,-0.08,-0.72,27.16,2.44,45.23,2,4
17483.921,-0.654,-0.082,-0.734,35.8,2.01,55.39,2,4
17483.937,-0.642,-0.103,-0.739,43.15,2.08,63.14,2,4
17483.937,-0.62,-0.122,-0.772,47.58,1.86,67.69,2,4
17483.953,-0.593,-0.143,-0.784,48.95,1.46,68.48,2,4
17483.953,-0.578,-0.145,-0.797,46.78,1.07,65.43,2,4
17483.968,-0.567,-0.167,-0.813,43.76,1.5,59.36,2,4
17483.984,-0.557,-0.192,-0.819,40.59,2.62,52.74,2,4
17483.984,-0.55,-0.212,-0.825,40.07,5.62,46.45,2,4
17484.0,-0.554,-0.199,-0.822,40.35,9.22,39.7,2,4
17484.015,-0.556,-0.184,-0.816,39.28,12.02,33.3,2,4
17484.015,-0.567,-0.173,-0.807,36.77,13.98,27.07,2,4
17484.031,-0.573,-0.166,-0.799,33.3,14.16,21.03,2,4
17484.031,-0.573,-0.158,-0.789,28.9,12.82,15.56,2,4
17484.046,-0.578,-0.147,-0.785,24.57,11.17,10.35,2,4
17484.062,-0.584,-0.137,-0.782,20.39,9.22,5.86,2,4
17484.062,-0.574,-0.131,-0.773,16.39,7.14,2.53,2,4
17484.078,-0.574,-0.127,-0.772,13.52,5.55,-0.46,2,4
17484.093,-0.58,-0.122,-0.778,11.81,4.12,-2.81,2,4
17484.093,-0.581,-0.108,-0.782,9.61,3.05,-4.7,2,4
17484.109,-0.592,-0.099,-0.786,7.17,2.44,-6.01,2,4
17484.125,-0.603,-0.088,-0.793,4.76,1.71,-6.99,2,4
17484.125,-0.607,-0.079,-0.792,2.66,1.16,-7.23,2,4
17484.14,-0.609,-0.097,-0.788,2.11,1.25,-5.95,2,4
17484.14,-0.61,-0.107,-0.782,4.18,1.83,-3.48,2,4
17484.156,-0.611,-0.104,-0.784,7.2,1.74,-1.28,2,4
17484.171,-0.616,-0.103,-0.787,8.82,1.25,0.0,2,4
17484.171,-0.609,-0.089,-0.795,7.81,0.49,0.27,2,4
17484.187,-0.607,-0.079,-0.799,5.22,-0.18,-0.4,2,4
17484.203,-0.611,-0.079,-0.794,3.11,-0.55,-1.1,2,4
17484.218,-0.607,-0.087,-0.792,2.93,-0.89,-0.7,2,4
17484.218,-0.603,-0.087,-0.793,4.15,-1.19,0.67,2,4
17484.234,-0.595,-0.088,-0.799,5.28,-1.68,1.83,2,4
17484.234,-0.586,-0.088,-0.808,4.97,-2.17,2.04,2,4
17484.25,-0.584,-0.094,-0.818,3.94,-2.32,1.28,2,4
17484.265,-0.585,-0.093,-0.823,2.32,-1.8,-0.24,2,4
17484.265,-0.592,-0.094,-0.816,0.61,-0.43,-1.37,2,4
17484.281,-0.606,-0.099,-0.794,0.34,1.37,-1.37,2,4
17484.296,-0.61,-0.094,-0.782,2.11,2.04,-0.09,2,4
17484.296,-0.607,-0.092,-0.779,4.27,2.08,1.68,2,4
17484.312,-0.606,-0.094,-0.778,5.71,1.62,3.48,2,4
17484.312,-0.597,-0.093,-0.784,5.89,0.15,4.76,2,4
17484.328,-0.589,-0.097,-0.794,3.36,-2.72,5.55,2,4
17484.343,-0.587,-0.098,-0.803,2.14,-3.2,5.52,2,4
17484.343,-0.582,-0.107,-0.808,2.26,-2.44,5.37,2,4
17484.359,-0.58,-0.124,-0.809,3.23,-0.82,5.19,2,4
17484.375,-0.582,-0.12,-0.804,4.36,0.43,4.67,2,4
17484.375,-0.579,-0.113,-0.802,4.36,1.4,3.75,2,4
17484.39,-0.578,-0.11,-0.797,2.93,1.34,2.41,2,4
17484.406,-0.574,-0.11,-0.792,0.89,-0.03,0.95,2,4
17484.406,-0.569,-0.107,-0.795,-1.07,-1.56,-0.31,2,4
17484.421,-0.572,-0.106,-0.806,-2.62,-2.93,-1.1,2,4
17484.437,-0.578,-0.107,-0.808,-3.91,-3.57,-0.76,2,4
17484.437,-0.581,-0.116,-0.808,-3.91,-2.87,0.0,2,4
17484.453,-0.588,-0.124,-0.813,-2.29,-1.4,0.79,2,4
17484.453,-0.594,-0.126,-0.806,-0.79,0.55,1.92,2,4
17484.468,-0.595,-0.125,-0.797,1.19,2.84,3.11,2,4
17484.484,-0.593,-0.121,-0.79,2.93,4.52,3.81,2,4
17484.484,-0.59,-0.114,-0.783,3.45,4.73,4.46,2,4
17484.5,-0.584,-0.117,-0.778,3.14,3.63,4.97,2,4
17484.515,-0.581,-0.125,-0.782,2.69,2.04,4.88,2,4
17484.515,-0.579,-0.131,-0.787,1.95,0.55,4.12,2,4
17484.531,-0.581,-0.135,-0.792,0.76,-0.4,2.56,2,4
17484.531,-0.584,-0.14,-0.795,-0.49,-0.92,0.73,2,4
17484.546,-0.587,-0.141,-0.795,-1.68,-0.64,-1.4,2,4
17484.562,-0.59,-0.136,-0.793,-2.53,-0.18,-3.33,2,4
17484.562,-0.593,-0.133,-0.786,-3.17,-0.34,-4.55,2,4
17484.578,-0.594,-0.128,-0.785,-3.81,-1.16,-5.34,2,4
17484.593,-0.591,-0.126,-0.789,-4.12,-1.8,-5.25,2,4
17484.593,-0.588,-0.129,-0.794,-4.09,-2.04,-4.91,2,4
17484.609,-0.589,-0.13,-0.797,-3.66,-1.86,-4.43,2,4
17484.625,-0.588,-0.124,-0.797,-2.41,-1.53,-3.85,2,4
17484.625,-0.588,-0.118,-0.803,-1.34,-0.79,-3.63,2,4
17484.64,-0.591,-0.118,-0.798,-1.43,0.09,-3.3,2,4
17484.656,-0.587,-0.124,-0.79,-1.37,0.55,-2.84,2,4
17484.656,-0.587,-0.13,-0.788,-0.67,0.73,-2.62,2,4
17484.671,-0.59,-0.133,-0.787,-0.21,0.73,-2.44,2,4
17484.671,-0.591,-0.129,-0.781,-0.24,0.46,-2.35,2,4
17484.687,-0.591,-0.134,-0.778,0.03,0.09,-2.81,2,4
17484.703,-0.59,-0.131,-0.782,0.18,-0.7,-3.39,2,4
17484.703,-0.581,-0.128,-0.785,-0.43,-2.11,-4.06,2,4
17484.718,-0.575,-0.126,-0.798,-1.53,-3.88,-5.37,2,4
17484.734,-0.573,-0.127,-0.814,-3.42,-5.62,-7.23,2,4
17484.734,-0.565,-0.123,-0.826,-6.1,-6.99,-9.09,2,4
17484.75,-0.571,-0.12,-0.845,-8.7,-7.63,-10.9,2,4
17484.765,-0.582,-0.121,-0.853,-10.74,-7.02,-11.96,2,4
17484.765,-0.583,-0.115,-0.851,-11.35,-4.85,-12.21,2,4
17484.781,-0.588,-0.105,-0.844,-9.31,-1.56,-11.87,2,4
17484.796,-0.589,-0.093,-0.841,-6.53,1.56,-10.65,2,4
17484.796,-0.592,-0.079,-0.838,-4.55,3.3,-9.03,2,4
17484.812,-0.596,-0.064,-0.841,-5.01,2.9,-7.26,2,4
17484.812,-0.591,-0.055,-0.85,-7.08,1.65,-5.34,2,4
17484.828,-0.582,-0.063,-0.863,-8.45,1.5,-3.17,2,4
17484.843,-0.573,-0.067,-0.875,-8.42,2.59,-1.95,2,4
17484.843,-0.563,-0.059,-0.877,-8.15,5.31,-1.5,2,4
17484.859,-0.56,-0.046,-0.876,-9.03,8.24,-1.68,2,4
17484.875,-0.561,-0.047,-0.87,-10.9,10.5,-1.62,2,4
17484.875,-0.563,-0.05,-0.866,-12.39,12.24,-0.55,2,4
17484.89,-0.559,-0.054,-0.861,-12.3,13.67,1.22,2,4
17484.906,-0.564,-0.057,-0.858,-11.44,15.5,2.72,2,4
17484.906,-0.567,-0.063,-0.844,-10.38,17.94,4.49,2,4
17484.921,-0.567,-0.06,-0.829,-9.55,19.62,5.58,2,4
17484.921,-0.566,-0.063,-0.818,-9.58,19.68,5.62,2,4
17484.937,-0.561,-0.066,-0.814,-11.08,18.31,5.52,2,4
17484.953,-0.551,-0.073,-0.817,-13.25,16.39,5.25,2,4
17484.968,-0.543,-0.082,-0.833,-15.38,14.19,3.75,2,4
17484.968,-0.533,-0.078,-0.857,-18.22,12.24,1.8,2,4
17484.984,-0.518,-0.069,-0.878,-21.73,11.41,0.31,2,4
17484.984,-0.5,-0.066,-0.905,-24.57,11.51,-0.64,2,4
17485.0,-0.476,-0.055,-0.938,-26.49,12.12,-0.76,2,4
17485.015,-0.449,-0.035,-0.982,-27.92,13.25,-0.34,2,4
17485.015,-0.416,-0.008,-1.043,-30.37,15.08,0.58,2,4
17485.046,-0.365,0.042,-1.159,-38.7,23.01,2.9,2,4
17485.046,-0.36,0.064,-1.204,-43.12,31.22,4.64,2,4
17485.062,-0.359,0.077,-1.242,-45.66,41.54,7.29,2,4
17485.062,-0.365,0.08,-1.272,-45.81,53.07,11.2,2,4
17485.078,-0.378,0.104,-1.299,-44.16,64.94,16.48,2,4
17485.093,-0.376,0.13,-1.327,-43.15,74.89,21.52,2,4
17485.109,-0.376,0.153,-1.371,-45.01,83.22,24.93,2,4
17485.109,-0.364,0.162,-1.408,-48.92,92.23,26.58,2,4
17485.125,-0.355,0.184,-1.443,-55.39,102.57,26.49,2,4
17485.125,-0.369,0.208,-1.473,-61.95,113.53,26.15,2,4
17485.14,-0.385,0.233,-1.486,-66.96,123.81,26.64,2,4
17485.156,-0.391,0.262,-1.49,-71.17,133.79,27.68,2,4
17485.156,-0.409,0.274,-1.483,-74.22,143.8,28.72,2,4
17485.171,-0.426,0.303,-1.459,-77.3,152.99,28.6,2,4
17485.171,-0.433,0.358,-1.432,-83.16,159.61,26.22,2,4
17485.187,-0.436,0.393,-1.402,-92.5,162.97,24.17,2,4
17485.203,-0.406,0.528,-1.349,-114.17,157.08,21.91,2,4
17485.218,-0.397,0.631,-1.365,-131.63,147.43,18.68,2,4
17485.234,-0.396,0.781,-1.379,-156.68,135.96,10.8,2,4
17485.234,-0.39,0.906,-1.409,-190.04,124.36,-0.37,2,4
17485.25,-0.398,0.953,-1.401,-226.97,115.79,-12.12,2,4
17485.265,-0.38,0.953,-1.383,-259.83,111.85,-25.45,2,4
17485.281,-0.353,0.955,-1.363,-286.29,110.72,-38.64,2,4
17485.281,-0.331,0.995,-1.364,-308.42,106.54,-48.89,2,4
17485.296,-0.302,1.068,-1.377,-329.48,98.57,-54.02,2,4
17485.296,-0.255,1.091,-1.346,-349.16,90.64,-49.78,2,4
17485.312,-0.227,1.059,-1.281,-353.37,78.13,-24.08,2,4
17485.312,-0.21,1.084,-1.243,-347.82,71.11,-7.23,2,4
17485.328,-0.206,1.133,-1.234,-343.7,63.91,10.16,2,4
17485.343,-0.21,1.161,-1.208,-338.91,56.12,26.06,2,4
17485.343,-0.176,1.186,-1.162,-336.59,46.45,37.51,2,4
17485.375,-0.146,1.128,-1.219,-344.92,26.55,48.86,2,4
17485.375,-0.111,1.133,-1.234,-352.15,20.26,50.42,2,4
17485.39,-0.089,1.168,-1.301,-365.64,12.82,46.08,2,4
17485.406,-0.076,1.155,-1.328,-384.5,6.38,40.35,2,4
17485.406,-0.062,1.152,-1.302,-406.84,0.09,33.45,2,4
17485.421,-0.051,1.068,-1.193,-424.27,-2.59,27.62,2,4
17485.437,-0.077,0.981,-1.029,-426.92,-2.72,27.71,2,4
17485.437,-0.104,0.964,-0.852,-417.04,-8.03,33.27,2,4
17485.453,-0.147,0.925,-0.748,-403.49,-19.81,42.57,2,4
17485.453,-0.186,0.873,-0.65,-395.98,-38.7,52.64,2,4
17485.468,-0.184,0.777,-0.572,-388.81,-60.09,62.04,2,4
17485.484,-0.181,0.706,-0.468,-382.03,-79.71,68.18,2,4
17485.484,-0.158,0.675,-0.424,-375.26,-101.87,68.85,2,4
17485.5,-0.133,0.656,-0.368,-369.43,-119.63,67.72,2,4
17485.515,-0.123,0.642,-0.291,-367.41,-136.2,66.01,2,4
17485.515,-0.078,0.601,-0.21,-366.13,-152.17,61.74,2,4
17485.531,-0.051,0.56,-0.153,-364.42,-164.19,56.79,2,4
17485.546,-0.049,0.546,-0.072,-362.77,-172.4,51.88,2,4
17485.546,-0.03,0.553,0.028,-362.22,-181.34,47.52,2,4
17485.562,0.011,0.531,0.123,-364.15,-190.53,43.86,2,4
17485.578,0.04,0.494,0.205,-365.83,-199.59,39.52,2,4
17485.578,0.091,0.485,0.269,-363.69,-204.47,36.32,2,4
17485.593,0.133,0.508,0.317,-359.48,-203.68,37.66,2,4
17485.609,0.16,0.465,0.398,-359.72,-197.03,48.77,2,4
17485.609,0.215,0.308,0.467,-357.62,-193.03,62.56,2,4
17485.625,0.282,0.139,0.536,-347.61,-189.09,74.43,2,4
17485.625,0.377,-0.001,0.619,-327.77,-181.19,79.84,2,4
17485.64,0.454,-0.105,0.702,-301.71,-173.31,73.0,2,4
17485.656,0.482,-0.141,0.75,-274.39,-168.13,60.67,2,4
17485.656,0.489,-0.126,0.743,-248.79,-166.11,50.75,2,4
17485.671,0.477,-0.089,0.742,-229.32,-166.75,43.21,2,4
17485.687,0.475,-0.079,0.773,-213.2,-167.94,37.84,2,4
17485.703,0.532,-0.074,0.801,-188.21,-174.2,21.27,2,4
17485.703,0.52,-0.094,0.779,-176.06,-172.86,12.36,2,4
17485.718,0.622,-0.084,0.783,-164.13,-161.44,9.61,2,4
17485.734,0.59,-0.114,0.761,-150.24,-153.72,1.95,2,4
17485.734,0.654,-0.104,0.747,-141.85,-149.69,-4.43,2,4
17485.75,0.697,-0.058,0.708,-136.57,-143.07,-11.93,2,4
17485.765,0.721,0.024,0.669,-143.44,-137.12,-18.28,2,4
17485.765,0.735,0.005,0.661,-150.18,-130.65,-21.7,2,4
17485.781,0.738,0.013,0.671,-155.16,-126.62,-24.23,2,4
17485.796,0.757,0.038,0.672,-159.18,-121.59,-23.59,2,4
17485.796,0.753,0.029,0.655,-161.53,-114.6,-20.97,2,4
17485.812,0.727,0.02,0.625,-162.21,-106.33,-16.72,2,4
17485.828,0.7,0.046,0.603,-164.49,-98.36,-12.24,2,4
17485.828,0.662,0.049,0.583,-171.3,-92.04,-9.61,2,4
17485.843,0.638,0.03,0.581,-183.69,-89.72,-7.11,2,4
17485.843,0.624,-0.025,0.57,-191.75,-89.51,-3.72,2,4
17485.859,0.632,-0.053,0.535,-192.27,-85.73,-0.21,2,4
17485.875,0.664,-0.074,0.535,-186.38,-76.78,2.56,2,4
17485.875,0.666,-0.088,0.564,-173.71,-61.34,3.33,2,4
17485.89,0.641,-0.16,0.585,-155.98,-44.65,2.2,2,4
17485.906,0.671,-0.263,0.57,-134.62,-31.28,0.4,2,4
17485.906,0.696,-0.331,0.546,-113.53,-18.83,-8.45,2,4
17485.921,0.673,-0.366,0.579,-92.84,-4.58,-28.5,2,4
17485.921,0.606,-0.383,0.602,-73.73,8.91,-54.05,2,4
17485.937,0.556,-0.367,0.589,-54.51,17.79,-76.75,2,4
17485.953,0.522,-0.297,0.569,-30.37,25.06,-91.28,2,4
17485.953,0.48,-0.216,0.518,-1.1,35.31,-97.6,2,4
17485.968,0.451,-0.119,0.464,25.57,50.11,-97.63,2,4
17485.984,0.411,-0.041,0.403,45.38,66.23,-94.12,2,4
17485.984,0.393,0.02,0.317,62.26,80.29,-90.64,2,4
17486.0,0.399,0.134,0.255,73.92,100.89,-85.91,2,4
17486.015,0.406,0.206,0.242,74.25,127.23,-79.07,2,4
17486.031,0.329,0.278,0.28,62.69,154.42,-71.02,2,4
17486.031,0.202,0.24,0.271,41.72,168.95,-57.71,2,4
17486.046,0.177,0.134,0.33,12.48,166.26,-42.3,2,4
17486.046,0.201,0.096,0.457,-8.42,160.13,-31.16,2,4
17486.062,0.227,0.024,0.536,-15.44,152.68,-25.45,2,4
17486.062,0.28,-0.003,0.611,-17.88,141.42,-19.62,2,4
17486.078,0.369,-0.071,0.622,-14.92,130.47,-10.96,2,4
17486.093,0.433,-0.204,0.583,-1.5,122.44,-12.76,2,4
17486.093,0.478,-0.201,0.55,15.32,114.96,-26.49,2,4
17486.109,0.443,-0.065,0.512,28.6,107.91,-45.5,2,4
17486.125,0.401,0.093,0.483,28.57,100.13,-58.63,2,4
17486.14,0.387,0.222,0.486,7.63,98.79,-58.11,2,4
17486.14,0.384,0.293,0.525,-22.74,100.59,-50.66,2,4
17486.156,0.397,0.192,0.588,-49.93,102.85,-40.68,2,4
17486.156,0.422,0.043,0.664,-64.73,109.32,-28.29,2,4
17486.171,0.45,-0.016,0.696,-59.54,115.27,-22.52,2,4
17486.171,0.44,-0.067,0.711,-39.28,116.49,-25.88,2,4
17486.203,0.437,0.039,0.705,1.56,107.97,-27.5,2,4
17486.203,0.404,0.082,0.732,8.7,104.5,-26.52,2,4
17486.218,0.434,0.005,0.787,4.94,103.09,-17.82,2,4
17486.234,0.453,-0.025,0.836,3.91,103.82,-8.7,2,4
17486.25,0.432,-0.054,0.893,10.9,100.92,-2.01,2,4
17486.25,0.423,-0.1,0.913,21.73,92.84,6.04,2,4
17486.265,0.442,-0.093,0.881,34.61,83.86,14.68,2,4
17486.265,0.439,-0.101,0.812,49.2,79.56,21.49,2,4
17486.281,0.463,-0.07,0.712,59.91,81.12,27.13,2,4
17486.281,0.505,-0.015,0.637,59.11,88.69,29.69,2,4
17486.296,0.489,-0.059,0.606,32.07,117.5,17.24,2,4
17486.312,0.466,-0.101,0.636,20.69,133.52,5.34,2,4
17486.328,0.418,-0.102,0.719,8.03,140.84,-5.62,2,4
17486.328,0.295,-0.123,0.944,-3.54,136.81,-14.25,2,4
17486.343,0.246,-0.155,1.04,-8.18,124.27,-20.45,2,4
17486.343,0.236,-0.144,1.098,-8.85,106.91,-24.32,2,4
17486.375,0.205,-0.057,1.102,-11.54,72.51,-26.67,2,4
17486.375,0.213,-0.08,1.072,-19.01,57.01,-23.59,2,4
17486.39,0.244,-0.115,1.043,-23.53,46.33,-20.48,2,4
17486.406,0.25,-0.13,1.001,-20.45,40.89,-19.59,2,4
17486.406,0.246,-0.128,0.971,-14.34,39.31,-17.43,2,4
17486.421,0.231,-0.114,0.924,-8.94,41.26,-14.19,2,4
17486.437,0.199,-0.131,0.902,-3.72,47.15,-11.38,2,4
17486.437,0.186,-0.147,0.901,2.26,55.06,-9.67,2,4
17486.453,0.19,-0.121,0.935,9.58,64.7,-10.32,2,4
17486.453,0.18,-0.069,0.974,12.33,70.13,-11.93,2,4
17486.468,0.157,-0.049,1.025,8.61,69.03,-12.94,2,4
17486.484,0.135,-0.061,1.085,3.91,62.2,-12.91,2,4
17486.5,0.115,-0.063,1.12,1.95,51.73,-12.3,2,4
17486.5,0.087,-0.064,1.123,1.19,39.95,-11.08,2,4
17486.515,0.096,-0.057,1.111,-0.73,28.29,-9.37,2,4
17486.515,0.122,-0.04,1.1,-4.09,18.1,-8.51,2,4
17486.546,0.142,-0.019,1.037,-16.05,0.18,-9.95,2,4
17486.546,0.143,-0.031,1.011,-21.39,-4.55,-10.68,2,4
17486.562,0.123,-0.067,1.008,-22.64,-5.55,-9.7,2,4
17486.562,0.096,-0.115,1.023,-18.83,-5.1,-7.05,2,4
17486.578,0.068,-0.126,1.03,-11.44,-3.39,-3.94,2,4
17486.593,0.06,-0.109,1.025,-3.72,-0.73,-1.65,2,4
17486.593,0.047,-0.087,1.038,0.46,0.95,-0.34,2,4
17486.609,0.026,-0.085,1.057,1.43,0.12,0.73,2,4
17486.625,0.019,-0.077,1.062,1.74,-3.05,1.22,2,4
17486.625,0.025,-0.062,1.055,1.46,-7.02,0.31,2,4
17486.64,0.025,-0.056,1.05,0.34,-10.47,-0.82,2,4
17486.656,0.04,-0.049,1.047,-0.27,-13.49,-1.01,2,4
17486.656,0.057,-0.037,1.032,0.31,-16.02,0.18,2,4
17486.671,0.09,-0.007,1.016,1.4,-17.98,2.35,2,4
17486.687,0.118,0.009,1.006,1.71,-19.26,4.15,2,4
17486.687,0.127,0.012,0.998,2.29,-19.87,6.01,2,4
17486.703,0.152,0.034,0.97,4.03,-20.11,9.89,2,4
17486.718,0.163,0.035,0.956,3.27,-19.1,11.35,2,4
17486.734,0.168,0.022,0.958,2.32,-17.33,12.79,2,4
17486.734,0.171,0.019,0.968,2.59,-15.84,14.13,2,4
17486.75,0.178,0.016,0.977,3.66,-14.95,15.84,2,4
17486.765,0.186,0.02,0.974,4.76,-14.19,17.79,2,4
17486.765,0.196,0.005,0.972,4.79,-13.55,20.14,2,4
17486.781,0.204,-0.024,0.982,5.71,-13.09,22.43,2,4
17486.796,0.197,-0.039,0.977,8.36,-13.73,23.87,2,4
17486.796,0.187,-0.038,0.963,10.04,-14.4,24.2,2,4
17486.812,0.191,-0.039,0.958,9.28,-14.68,23.35,2,4
17486.812,0.197,-0.03,0.954,8.06,-14.4,21.27,2,4
17486.828,0.203,-0.015,0.947,5.62,-14.65,17.67,2,4
17486.843,0.208,-0.011,0.947,2.26,-15.72,14.31,2,4
17486.843,0.218,-0.011,0.94,0.18,-16.54,11.72,2,4
17486.859,0.225,-0.009,0.926,-0.24,-17.0,10.19,2,4
17486.875,0.239,-0.001,0.904,0.12,-16.94,9.64,2,4
17486.875,0.25,0.008,0.881,1.07,-15.5,9.34,2,4
17486.89,0.257,0.017,0.869,0.92,-12.36,8.88,2,4
17486.906,0.263,0.009,0.871,-0.46,-8.24,8.58,2,4
17486.906,0.265,-0.001,0.89,0.0,-3.08,7.93,2,4
17486.921,0.257,0.0,0.904,2.08,1.83,6.71,2,4
17486.937,0.244,-0.003,0.922,2.81,5.49,5.49,2,4
17486.937,0.222,0.001,0.943,1.59,7.05,3.66,2,4
17486.953,0.205,-0.001,0.964,-0.73,6.56,1.13,2,4
17486.953,0.184,0.008,0.98,-4.55,4.7,-1.8,2,4
17486.968,0.168,0.01,0.998,-8.97,1.86,-4.12,2,4
17486.984,0.151,0.01,1.017,-11.87,-1.53,-4.52,2,4
17486.984,0.141,0.002,1.029,-12.91,-4.49,-3.66,2,4
17487.0,0.139,0.008,1.02,-12.39,-7.2,-2.41,2,4
17487.015,0.147,0.017,1.005,-11.47,-9.46,-0.43,2,4
17487.015,0.155,0.005,0.994,-10.59,-10.56,2.47,2,4
17487.031,0.159,-0.01,0.98,-8.51,-10.74,6.13,2,4
17487.046,0.171,-0.02,0.967,-2.11,-8.76,13.82,2,4
17487.062,0.163,-0.02,0.958,1.16,-6.44,16.6,2,4
17487.062,0.156,-0.024,0.958,2.47,-4.06,19.26,2,4
17487.078,0.156,-0.037,0.966,3.11,-2.04,21.42,2,4
17487.093,0.164,-0.035,0.97,4.64,-0.09,22.06,2,4
17487.093,0.173,-0.033,0.976,5.28,1.22,22.16,2,4
17487.109,0.185,-0.038,0.985,4.91,1.43,22.46,2,4
17487.125,0.196,-0.034,0.986,4.61,0.61,22.83,2,4
17487.125,0.196,-0.033,0.987,3.02,-0.52,22.77,2,4
17487.14,0.192,-0.045,0.99,0.67,-2.14,22.19,2,4
17487.156,0.187,-0.06,0.993,-0.27,-3.63,21.27,2,4
17487.156,0.179,-0.082,0.993,-0.24,-4.64,20.63,2,4
17487.171,0.178,-0.092,0.995,0.27,-5.37,20.26,2,4
17487.187,0.183,-0.097,0.992,1.16,-6.1,19.47,2,4
17487.187,0.186,-0.098,0.993,2.14,-6.5,17.7,2,4
17487.203,0.194,-0.095,0.993,2.14,-7.11,15.41,2,4
17487.218,0.177,-0.073,0.982,-1.71,-10.32,9.31,2,4
17487.234,0.179,-0.064,0.977,-5.46,-11.81,5.19,2,4
17487.25,0.18,-0.061,0.978,-8.45,-12.09,1.25,2,4
17487.25,0.184,-0.063,0.975,-10.16,-11.66,-1.68,2,4
17487.265,0.186,-0.055,0.968,-10.56,-10.86,-3.33,2,4
17487.265,0.188,-0.047,0.967,-10.28,-9.64,-4.03,2,4
17487.281,0.184,-0.041,0.971,-9.46,-7.54,-2.87,2,4
17487.281,0.179,-0.04,0.981,-8.24,-6.62,-1.37,2,4
17487.296,0.172,-0.043,0.992,-5.83,-5.95,0.37,2,4
17487.312,0.17,-0.044,0.999,-3.11,-5.62,3.02,2,4
17487.312,0.172,-0.041,1.006,-0.85,-5.89,6.68,2,4
17487.328,0.174,-0.047,1.001,1.16,-7.02,10.1,2,4
17487.343,0.177,-0.046,0.99,2.78,-8.45,12.51,2,4
17487.343,0.173,-0.04,0.979,3.39,-9.7,13.18,2,4
17487.359,0.174,-0.036,0.969,1.92,-10.16,12.48,2,4
17487.375,0.18,-0.047,0.975,-1.13,-9.95,11.05,2,4
17487.39,0.201,-0.063,0.987,-1.74,-7.75,6.96,2,4
17487.406,0.201,-0.055,0.991,-1.28,-6.87,4.79,2,4
17487.406,0.198,-0.046,0.992,-2.2,-6.62,2.93,2,4
17487.421,0.196,-0.037,0.996,-4.61,-6.9,0.95,2,4
17487.437,0.189,-0.042,0.997,-7.35,-8.03,-0.49,2,4
17487.437,0.19,-0.048,0.992,-8.61,-9.34,-0.61,2,4
17487.453,0.196,-0.059,0.985,-7.42,-9.58,0.85,2,4
17487.453,0.202,-0.064,0.976,-4.67,-8.55,2.93,2,4
17487.468,0.212,-0.065,0.967,-1.25,-7.17,4.73,2,4
17487.484,0.221,-0.057,0.961,1.4,-5.52,5.46,2,4
17487.484,0.227,-0.046,0.953,2.66,-3.94,5.1,2,4
17487.5,0.232,-0.035,0.949,2.14,-2.47,4.12,2,4
17487.515,0.227,-0.028,0.951,0.49,-1.16,3.08,2,4
17487.515,0.225,-0.042,0.965,-1.04,-0.15,2.5,2,4
17487.531,0.22,-0.052,0.974,-1.07,0.37,1.77,2,4
17487.531,0.221,-0.053,0.975,0.18,0.21,1.46,2,4
17487.562,0.235,-0.039,0.969,-1.1,-1.65,0.12,2,4
17487.562,0.233,-0.048,0.969,-3.91,-2.59,-0.61,2,4
17487.578,0.236,-0.057,0.968,-5.43,-2.78,-1.07,2,4
17487.593,0.238,-0.064,0.963,-5.16,-1.59,-1.56,2,4
17487.593,0.236,-0.067,0.962,-3.88,0.06,-1.53,2,4
17487.609,0.238,-0.063,0.967,-2.5,0.95,-0.85,2,4
17487.625,0.242,-0.059,0.966,-1.8,0.73,-0.09,2,4
17487.625,0.236,-0.053,0.951,-1.86,0.15,0.06,2,4
17487.64,0.235,-0.046,0.946,-3.36,0.31,0.06,2,4
17487.656,0.233,-0.051,0.954,-5.22,1.71,-0.27,2,4
17487.656,0.224,-0.068,0.971,-5.71,3.3,-0.12,2,4
17487.671,0.208,-0.082,0.987,-4.33,4.58,0.52,2,4
17487.687,0.197,-0.091,0.998,-1.31,5.22,2.01,2,4
17487.687,0.192,-0.088,1.002,1.77,4.97,3.48,2,4
17487.703,0.189,-0.079,1.001,3.48,3.72,4.21,2,4
17487.703,0.188,-0.069,0.997,2.44,1.04,4.36,2,4
17487.734,0.21,-0.053,0.998,-4.3,-6.74,3.2,2,4
17487.734,0.217,-0.058,0.988,-7.42,-9.46,1.89,2,4
17487.75,0.217,-0.08,0.976,-8.76,-10.04,1.71,2,4
17487.765,0.221,-0.092,0.97,-7.69,-8.7,2.08,2,4
17487.765,0.219,-0.094,0.971,-4.82,-6.16,2.23,2,4
17487.781,0.214,-0.093,0.97,-2.04,-3.69,2.66,2,4
17487.796,0.21,-0.096,0.97,-0.4,-1.28,3.54,2,4
17487.796,0.217,-0.105,0.974,1.83,1.28,4.79,2,4
17487.812,0.22,-0.099,0.976,4.82,4.0,5.62,2,4
17487.812,0.214,-0.088,0.985,7.35,5.95,6.2,2,4
17487.828,0.206,-0.078,0.993,8.24,6.5,6.87,2,4
17487.843,0.206,-0.069,0.999,8.27,6.04,7.69,2,4
17487.843,0.2,-0.062,1.001,7.57,4.61,7.78,2,4
17487.859,0.189,-0.063,0.998,6.2,2.96,7.2,2,4
17487.875,0.188,-0.059,0.994,4.88,1.53,6.35,2,4
17487.875,0.19,-0.066,0.997,3.6,0.98,5.31,2,4
17487.89,0.191,-0.079,1.001,3.36,1.13,4.58,2,4
17487.89,0.191,-0.086,1.002,4.76,1.1,4.49,2,4
17487.906,0.19,-0.084,0.998,6.47,0.82,4.46,2,4
17487.921,0.202,-0.073,0.99,6.87,0.18,4.58,2,4
17487.921,0.213,-0.067,0.985,6.47,0.27,3.94,2,4
17487.937,0.216,-0.057,0.983,5.92,0.89,2.11,2,4
17487.953,0.221,-0.048,0.976,4.27,1.13,-0.18,2,4
17487.953,0.213,-0.047,0.982,1.65,1.13,-2.32,2,4
17487.968,0.203,-0.047,0.987,-1.01,0.52,-4.06,2,4
17487.984,0.192,-0.056,0.993,-2.08,-0.37,-4.76,2,4
17487.984,0.188,-0.054,0.993,-0.89,-1.34,-5.07,2,4
17488.0,0.194,-0.034,0.986,0.12,-2.5,-5.13,2,4
17488.015,0.204,-0.026,0.983,-0.49,-3.51,-5.04,2,4
17488.015,0.211,-0.03,0.982,-1.86,-4.09,-5.16,2,4
17488.031,0.22,-0.033,0.974,-2.78,-4.7,-5.62,2,4
17488.046,0.224,-0.032,0.967,-3.42,-4.97,-5.89,2,4
17488.046,0.222,-0.035,0.966,-4.15,-4.7,-5.65,2,4
17488.062,0.228,-0.041,0.965,-4.52,-4.97,-5.43,2,4
17488.062,0.234,-0.052,0.966,-4.58,-5.31,-5.62,2,4
17488.078,0.248,-0.054,0.963,-4.76,-5.65,-5.95,2,4
17488.093,0.25,-0.052,0.96,-5.46,-5.55,-6.9,2,4
17488.109,0.246,-0.058,0.955,-6.87,-5.4,-8.12,2,4
17488.109,0.245,-0.058,0.956,-8.39,-4.97,-9.46,2,4
17488.125,0.247,-0.057,0.954,-9.25,-4.09,-11.26,2,4
17488.125,0.242,-0.055,0.952,-9.34,-3.02,-12.63,2,4
17488.14,0.237,-0.052,0.955,-9.13,-2.44,-12.91,2,4
17488.156,0.236,-0.048,0.956,-8.91,-2.08,-12.42,2,4
17488.156,0.226,-0.046,0.95,-7.42,-1.53,-11.44,2,4
17488.171,0.224,-0.042,0.949,-6.01,-0.49,-10.04,2,4
17488.171,0.223,-0.049,0.957,-5.04,0.85,-7.66,2,4
17488.187,0.219,-0.051,0.964,-2.53,2.53,-4.97,2,4
17488.203,0.219,-0.038,0.964,0.27,4.06,-2.56,2,4
17488.203,0.208,-0.033,0.966,1.31,5.1,-0.7,2,4
17488.218,0.201,-0.043,0.97,0.92,5.77,0.76,2,4
17488.234,0.203,-0.048,0.978,0.61,6.13,1.56,2,4
17488.25,0.194,-0.056,0.987,0.95,6.2,1.77,2,4
17488.25,0.191,-0.048,0.992,1.16,5.95,1.8,2,4
17488.265,0.188,-0.049,1.001,0.76,5.49,2.11,2,4
17488.265,0.181,-0.06,1.011,1.13,4.39,3.48,2,4
17488.281,0.178,-0.069,1.014,2.11,3.51,3.97,2,4
17488.281,0.175,-0.07,1.014,2.78,2.47,4.06,2,4
17488.296,0.181,-0.063,1.004,3.33,1.74,3.69,2,4
17488.312,0.186,-0.056,0.996,2.99,1.19,2.44,2,4
17488.312,0.19,-0.05,0.99,1.37,0.55,1.37,2,4
17488.328,0.195,-0.049,0.984,-0.64,0.03,1.46,2,4
17488.343,0.204,-0.059,0.982,-1.62,-0.06,1.86,2,4
17488.343,0.206,-0.08,0.985,-1.04,0.21,2.32,2,4
17488.359,0.201,-0.089,0.984,1.1,0.95,3.05,2,4
17488.375,0.196,-0.071,0.979,3.3,1.56,3.33,2,4
17488.375,0.198,-0.06,0.971,2.93,1.86,2.99,2,4
17488.39,0.204,-0.063,0.977,0.61,1.8,2.26,2,4
17488.406,0.204,-0.074,0.986,-1.13,1.65,0.89,2,4
17488.406,0.2,-0.081,0.992,-1.5,1.4,-0.64,2,4
17488.421,0.194,-0.077,0.998,-1.37,1.1,-1.77,2,4
17488.421,0.193,-0.084,1.002,-1.65,0.34,-2.75,2,4
17488.437,0.193,-0.092,1.004,-2.41,-1.04,-4.12,2,4
17488.453,0.191,-0.088,1.003,-3.57,-2.69,-5.55,2,4
17488.468,0.201,-0.083,0.996,-4.91,-4.0,-6.99,2,4
17488.468,0.203,-0.083,0.99,-6.41,-4.91,-9.13,2,4
17488.484,0.202,-0.093,0.994,-7.97,-5.62,-10.8,2,4
17488.484,0.199,-0.095,0.996,-8.03,-5.65,-11.72,2,4
17488.5,0.196,-0.092,0.995,-7.05,-5.25,-11.99,2,4
17488.515,0.191,-0.091,0.997,-5.77,-5.25,-11.38,2,4
17488.515,0.193,-0.082,0.994,-4.15,-5.28,-10.32,2,4
17488.531,0.198,-0.073,0.987,-2.78,-5.43,-9.13,2,4
17488.531,0.206,-0.068,0.98,-2.69,-5.89,-8.09,2,4
17488.546,0.214,-0.07,0.979,-3.11,-6.53,-7.51,2,4
17488.562,0.216,-0.073,0.973,-3.17,-6.62,-7.39,2,4
17488.562,0.215,-0.067,0.964,-3.66,-6.38,-7.66,2,4
17488.578,0.218,-0.068,0.96,-4.67,-5.8,-7.93,2,4
17488.593,0.221,-0.068,0.963,-4.64,-4.7,-8.06,2,4
17488.609,0.217,-0.063,0.964,-3.85,-3.51,-7.66,2,4
17488.609,0.217,-0.058,0.966,-3.39,-2.72,-6.53,2,4
17488.625,0.22,-0.057,0.968,-3.11,-2.26,-5.68,2,4
17488.625,0.22,-0.057,0.972,-2.93,-1.65,-4.58,2,4
17488.64,0.215,-0.065,0.98,-2.38,-0.73,-3.27,2,4
17488.656,0.206,-0.069,0.986,-0.61,0.03,-2.11,2,4
17488.656,0.201,-0.066,0.988,1.19,0.24,-0.76,2,4
17488.671,0.197,-0.064,0.989,2.04,-0.12,0.24,2,4
17488.687,0.2,-0.057,0.987,1.92,-1.07,0.55,2,4
17488.687,0.205,-0.045,0.986,0.89,-1.77,0.24,2,4
17488.703,0.216,-0.048,0.985,-0.55,-2.17,-0.09,2,4
17488.703,0.227,-0.057,0.982,-0.82,-2.72,0.06,2,4
17488.718,0.227,-0.055,0.977,0.12,-3.11,0.55,2,4
17488.734,0.224,-0.052,0.968,0.43,-3.08,1.43,2,4
17488.734,0.223,-0.053,0.963,0.27,-2.66,1.83,2,4
17488.75,0.223,-0.054,0.962,0.37,-1.59,1.65,2,4
17488.765,0.226,-0.051,0.959,-0.03,-0.92,1.56,2,4
17488.765,0.229,-0.052,0.962,-0.52,-0.73,1.77,2,4
17488.781,0.234,-0.061,0.961,-0.76,-1.07,2.78,2,4
17488.781,0.228,-0.079,0.965,0.03,-1.13,4.03,2,4
17488.796,0.227,-0.087,0.96,2.01,-0.95,5.4,2,4
17488.812,0.23,-0.079,0.955,4.06,-0.43,6.04,2,4
17488.828,0.228,-0.067,0.952,4.03,0.31,5.52,2,4
17488.828,0.227,-0.072,0.956,2.72,1.16,4.3,2,4
17488.843,0.229,-0.074,0.962,1.46,1.68,2.69,2,4
17488.843,0.227,-0.07,0.964,0.58,1.95,0.98,2,4
17488.859,0.222,-0.065,0.966,-0.61,2.26,-0.34,2,4
17488.875,0.217,-0.066,0.972,-1.74,2.44,-0.89,2,4
17488.875,0.216,-0.075,0.978,-2.75,2.14,-0.95,2,4
17488.89,0.21,-0.08,0.98,-2.93,1.53,-1.37,2,4
17488.906,0.203,-0.073,0.978,-2.41,1.07,-1.83,2,4
17488.906,0.194,-0.063,0.972,-2.75,0.73,-1.98,2,4
17488.921,0.19,-0.067,0.978,-4.12,1.13,-2.35,2,4
17488.921,0.19,-0.083,0.994,-4.7,1.92,-2.66,2,4
17488.937,0.189,-0.083,1.002,-3.27,2.53,-2.5,2,4
17488.953,0.19,-0.081,1.01,-1.34,2.47,-1.31,2,4
17488.953,0.194,-0.08,1.014,-0.06,1.83,0.82,2,4
17488.968,0.199,-0.087,1.008,1.22,0.55,2.62,2,4
17488.984,0.198,-0.082,0.998,2.59,-0.82,3.6,2,4
17488.984,0.206,-0.078,0.983,2.38,-2.11,4.09,2,4
17489.0,0.214,-0.08,0.973,0.79,-2.66,3.2,2,4
17489.015,0.212,-0.084,0.974,-0.64,-2.23,1.19,2,4
17489.015,0.208,-0.091,0.971,-1.5,-1.01,-0.24,2,4
17489.031,0.208,-0.092,0.97,-1.34,0.21,-1.46,2,4
17489.046,0.206,-0.087,0.976,-0.92,1.01,-2.32,2,4
17489.046,0.205,-0.084,0.979,-1.01,1.28,-2.53,2,4
17489.062,0.207,-0.082,0.985,-1.13,1.34,-2.26,2,4
17489.062,0.204,-0.08,0.994,-0.79,1.04,-1.8,2,4
17489.078,0.202,-0.079,0.997,-0.49,0.46,-1.25,2,4
17489.093,0.202,-0.071,0.997,-0.37,-0.46,-0.46,2,4
17489.093,0.2,-0.072,0.993,-0.21,-1.4,0.4,2,4
17489.109,0.199,-0.077,0.983,0.03,-2.2,1.56,2,4
17489.125,0.2,-0.085,0.98,0.4,-2.08,2.44,2,4
17489.14,0.2,-0.094,0.981,0.82,-1.71,2.41,2,4
17489.14,0.202,-0.092,0.976,1.56,-1.04,2.14,2,4
17489.156,0.209,-0.089,0.976,1.37,-0.52,1.8,2,4
17489.156,0.213,-0.092,0.976,0.82,-0.12,1.01,2,4
17489.171,0.212,-0.092,0.978,0.7,0.24,-0.03,2,4
17489.171,0.214,-0.081,0.982,0.64,0.61,-0.98,2,4
17489.187,0.207,-0.078,0.985,-0.15,1.13,-1.71,2,4
17489.203,0.199,-0.081,0.993,-1.04,1.16,-1.86,2,4
17489.203,0.195,-0.085,1.003,-1.01,0.43,-1.89,2,4
17489.218,0.189,-0.091,1.003,-0.24,-0.34,-2.17,2,4
17489.234,0.186,-0.081,0.995,0.27,-1.22,-2.26,2,4
17489.234,0.192,-0.07,0.992,-0.4,-2.23,-2.35,2,4
17489.25,0.194,-0.077,0.99,-2.62,-3.63,-3.51,2,4
17489.265,0.198,-0.078,0.985,-2.35,-3.85,-3.94,2,4
17489.265,0.208,-0.071,0.979,-2.29,-3.45,-3.75,2,4
17489.281,0.206,-0.068,0.971,-2.17,-3.14,-2.62,2,4
17489.296,0.208,-0.091,0.973,-0.64,-2.41,-1.13,2,4
17489.296,0.212,-0.084,0.975,1.83,-0.55,-0.46,2,4
17489.312,0.217,-0.073,0.975,3.23,1.34,-0.58,2,4
17489.312,0.218,-0.068,0.983,2.75,1.98,-0.79,2,4
17489.328,0.212,-0.067,0.992,1.62,1.43,-1.28,2,4
17489.343,0.203,-0.07,0.992,0.21,0.0,-1.62,2,4
17489.359,0.198,-0.077,0.992,-1.07,-1.71,-1.71,2,4
17489.359,0.2,-0.077,0.988,-1.56,-3.11,-1.89,2,4
17489.375,0.204,-0.082,0.978,-1.46,-3.66,-2.17,2,4
17489.375,0.21,-0.078,0.971,-1.28,-3.57,-2.84,2,4
17489.39,0.211,-0.078,0.968,-1.31,-2.84,-4.0,2,4
17489.406,0.206,-0.078,0.971,-2.04,-2.32,-5.19,2,4
17489.406,0.2,-0.074,0.976,-2.69,-1.92,-6.16,2,4
17489.421,0.195,-0.076,0.986,-3.14,-1.31,-5.98,2,4
17489.437,0.192,-0.076,0.994,-2.41,-0.92,-5.37,2,4
17489.437,0.19,-0.073,0.997,-1.1,-0.98,-4.15,2,4
17489.453,0.194,-0.058,0.996,0.21,-1.4,-2.66,2,4
17489.453,0.199,-0.054,0.991,1.07,-1.98,-1.4,2,4
17489.468,0.209,-0.056,0.988,0.7,-2.62,-0.52,2,4
17489.484,0.217,-0.061,0.988,0.43,-2.93,-0.37,2,4
17489.484,0.216,-0.067,0.987,0.4,-2.81,-0.55,2,4
17489.5,0.21,-0.079,0.987,0.18,-2.84,-0.52,2,4
17489.515,0.203,-0.091,0.99,0.18,-3.17,-0.79,2,4
17489.515,0.198,-0.093,0.984,0.73,-3.48,-1.37,2,4
17489.531,0.198,-0.093,0.983,0.82,-3.54,-1.89,2,4
17489.531,0.201,-0.094,0.981,0.34,-3.23,-2.53,2,4
17489.546,0.203,-0.096,0.988,0.37,-2.44,-3.45,2,4
17489.562,0.208,-0.091,0.989,0.92,-1.92,-3.85,2,4
17489.578,0.208,-0.082,0.985,1.53,-2.04,-3.51,2,4
17489.578,0.203,-0.081,0.987,1.53,-2.2,-2.72,2,4
17489.593,0.197,-0.082,0.989,1.01,-2.29,-2.47,2,4
17489.593,0.198,-0.088,0.993,0.64,-2.53,-2.62,2,4
17489.609,0.197,-0.092,0.999,0.82,-3.05,-2.84,2,4
17489.625,0.201,-0.089,1.004,0.64,-4.18,-3.27,2,4
17489.625,0.209,-0.089,1.004,0.18,-5.74,-3.78,2,4
17489.64,0.211,-0.08,0.993,-0.37,-7.54,-4.7,2,4
17489.656,0.215,-0.076,0.979,-1.65,-9.37,-5.4,2,4
17489.656,0.227,-0.076,0.967,-3.05,-10.16,-5.62,2,4
17489.671,0.237,-0.075,0.959,-3.36,-9.8,-5.62,2,4
17489.671,0.24,-0.075,0.957,-2.59,-8.21,-5.31,2,4
17489.687,0.241,-0.069,0.953,-1.16,-6.38,-4.58,2,4
17489.703,0.242,-0.05,0.953,0.24,-4.79,-3.85,2,4
17489.703,0.247,-0.038,0.95,0.37,-3.69,-2.81,2,4
17489.718,0.251,-0.042,0.958,0.09,-3.02,-1.16,2,4
17489.734,0.247,-0.053,0.963,1.16,-3.2,0.98,2,4
17489.734,0.239,-0.06,0.964,3.17,-3.48,3.11,2,4
17489.75,0.236,-0.062,0.961,4.91,-3.66,4.27,2,4
17489.765,0.24,-0.061,0.958,5.25,-3.69,4.21,2,4
17489.765,0.244,-0.064,0.96,4.52,-3.57,3.72,2,4
17489.781,0.25,-0.065,0.959,3.54,-3.54,2.81,2,4
17489.796,0.251,-0.067,0.955,2.47,-3.36,1.8,2,4
17489.796,0.254,-0.058,0.953,1.19,-3.39,1.19,2,4
17489.812,0.255,-0.057,0.953,-0.21,-3.54,0.64,2,4
17489.812,0.255,-0.057,0.949,-1.34,-3.88,0.15,2,4
17489.828,0.248,-0.051,0.951,-1.83,-3.48,-0.34,2,4
17489.843,0.244,-0.048,0.955,-2.08,-2.38,-0.73,2,4
17489.843,0.237,-0.053,0.966,-2.59,-1.04,-1.46,2,4
17489.859,0.228,-0.067,0.978,-2.62,-0.31,-1.53,2,4
17489.875,0.22,-0.069,0.981,-1.16,0.12,-0.52,2,4
17489.89,0.213,-0.069,0.98,0.82,0.34,0.82,2,4
17489.89,0.221,-0.068,0.969,1.77,0.03,2.08,2,4
17489.906,0.233,-0.062,0.967,2.04,0.24,2.5,2,4
17489.906,0.242,-0.064,0.963,1.86,0.82,2.44,2,4
17489.921,0.245,-0.06,0.969,1.5,2.11,2.29,2,4
17489.921,0.244,-0.059,0.978,0.82,3.66,1.71,2,4
17489.937,0.236,-0.076,0.963,0.46,4.91,0.95,2,4
17489.953,0.23,-0.076,0.953,1.01,7.17,-0.64,2,4
17489.953,0.223,-0.08,0.939,1.86,10.01,-2.59,2,4
17489.968,0.23,-0.069,0.968,0.98,11.69,-4.46,2,4
17489.984,0.225,-0.069,0.978,-0.21,11.93,-6.47,2,4
17489.984,0.212,-0.061,0.99,-1.37,11.29,-7.66,2,4
17490.0,0.199,-0.061,1.009,-2.59,9.52,-7.26,2,4
17490.015,0.19,-0.062,1.025,-3.17,6.59,-5.95,2,4
17490.015,0.185,-0.066,1.03,-1.77,3.42,-4.33,2,4
17490.031,0.183,-0.06,1.021,-0.43,-0.52,-2.59,2,4
17490.031,0.188,-0.05,1.008,-0.12,-4.24,-0.79,2,4
17490.046,0.198,-0.049,0.993,-0.67,-7.05,0.52,2,4
17490.062,0.21,-0.057,0.972,-1.1,-8.09,1.83,2,4
17490.062,0.218,-0.064,0.962,-1.92,-7.48,1.98,2,4
17490.078,0.221,-0.075,0.957,-1.95,-5.68,1.68,2,4
17490.093,0.223,-0.074,0.96,-1.04,-3.45,1.65,2,4
17490.093,0.219,-0.078,0.966,-0.18,-1.37,1.89,2,4
17490.109,0.209,-0.083,0.972,0.43,0.49,1.8,2,4
17490.125,0.208,-0.087,0.982,1.16,1.37,1.5,2,4
17490.125,0.215,-0.078,0.99,1.65,1.34,1.04,2,4
17490.14,0.221,-0.066,0.99,0.98,0.52,0.31,2,4
17490.156,0.22,-0.058,0.986,-0.61,-0.98,-0.37,2,4
17490.156,0.218,-0.057,0.981,-2.32,-2.53,-0.64,2,4
17490.171,0.217,-0.064,0.98,-3.39,-3.36,-0.43,2,4
17490.187,0.213,-0.067,0.977,-3.2,-3.39,-0.15,2,4
17490.187,0.211,-0.078,0.976,-2.08,-2.81,0.64,2,4
17490.203,0.22,-0.077,0.974,-0.92,-2.35,1.53,2,4
17490.203,0.23,-0.076,0.97,0.03,-1.98,1.74,2,4
17490.218,0.24,-0.07,0.965,0.06,-1.89,1.62,2,4
17490.234,0.245,-0.072,0.957,-1.56,-1.43,0.21,2,4
17490.25,0.238,-0.074,0.958,-1.98,-0.4,-0.18,2,4
17490.25,0.224,-0.084,0.965,-1.4,0.85,-0.24,2,4
17490.265,0.216,-0.088,0.971,-0.15,1.86,-0.49,2,4
17490.265,0.214,-0.077,0.983,0.37,1.86,-0.61,2,4
17490.281,0.221,-0.062,0.981,-0.12,1.16,-0.79,2,4
17490.296,0.224,-0.054,0.982,-1.4,0.06,-0.85,2,4
17490.296,0.221,-0.058,0.981,-2.84,-1.04,-0.27,2,4
17490.312,0.216,-0.077,0.984,-3.17,-1.4,0.76,2,4
17490.328,0.21,-0.091,0.987,-1.71,-0.92,1.77,2,4
17490.328,0.206,-0.093,0.983,0.82,0.0,2.96,2,4
17490.343,0.21,-0.086,0.981,2.66,0.64,3.75,2,4
17490.343,0.216,-0.081,0.98,3.08,0.73,3.57,2,4
17490.359,0.221,-0.073,0.979,2.11,0.21,2.75,2,4
17490.375,0.222,-0.07,0.976,0.46,-0.7,2.2,2,4
17490.375,0.226,-0.082,0.973,-1.34,-1.62,2.08,2,4
17490.39,0.219,-0.1,0.976,-1.89,-1.62,1.8,2,4
17490.406,0.21,-0.096,0.979,-0.79,-0.95,1.16,2,4
17490.406,0.207,-0.088,0.981,0.15,-0.21,0.46,2,4
17490.421,0.21,-0.087,0.983,0.06,-0.12,0.12,2,4
17490.421,0.217,-0.08,0.984,-0.46,-0.73,-0.27,2,4
17490.437,0.226,-0.079,0.985,-1.37,-1.46,-0.85,2,4
17490.453,0.233,-0.08,0.98,-2.11,-1.77,-1.5,2,4
17490.453,0.225,-0.086,0.979,-2.04,-1.56,-1.62,2,4
17490.468,0.213,-0.085,0.981,-1.56,-0.95,-1.37,2,4
17490.484,0.193,-0.088,0.984,-0.76,-0.55,-1.07,2,4
17490.484,0.185,-0.089,0.984,0.49,-0.24,-0.37,2,4
17490.5,0.195,-0.083,0.984,1.1,-0.18,0.03,2,4
17490.515,0.212,-0.088,0.991,0.95,-0.15,0.03,2,4
17490.515,0.228,-0.085,0.988,1.25,-0.64,0.0,2,4
17490.531,0.243,-0.075,0.979,1.28,-1.71,0.12,2,4
17490.546,0.237,-0.072,0.97,0.03,-2.56,0.21,2,4
17490.546,0.234,-0.075,0.965,-1.22,-2.87,-0.15,2,4
17490.562,0.225,-0.078,0.964,-1.53,-2.29,-1.13,2,4
17490.562,0.212,-0.088,0.965,-1.8,-1.19,-1.92,2,4
17490.578,0.209,-0.095,0.974,-1.53,0.21,-1.68,2,4
17490.593,0.217,-0.091,0.981,-0.43,0.92,-1.89,2,4
17490.593,0.221,-0.084,0.98,0.49,0.7,-2.17,2,4
17490.609,0.231,-0.065,0.975,0.43,-0.55,-1.8,2,4
17490.625,0.242,-0.064,0.969,-1.07,-2.11,-1.59,2,4
17490.625,0.243,-0.074,0.963,-2.41,-2.99,-1.43,2,4
17490.64,0.227,-0.077,0.96,-2.2,-2.59,-1.19,2,4
17490.64,0.219,-0.079,0.955,-1.34,-1.19,-1.04,2,4
17490.656,0.211,-0.088,0.961,-0.7,1.22,-1.07,2,4
17490.671,0.21,-0.092,0.976,0.34,3.51,-1.07,2,4
17490.687,0.21,-0.091,0.989,1.98,4.55,-1.22,2,4
17490.687,0.211,-0.08,0.997,2.66,3.72,-1.19,2,4
17490.703,0.224,-0.071,0.998,1.5,1.74,-1.4,2,4
17490.703,0.223,-0.068,0.991,0.0,-0.27,-1.4,2,4
17490.718,0.22,-0.066,0.981,-1.22,-1.83,-1.53,2,4
17490.734,0.218,-0.075,0.975,-2.08,-2.59,-1.04,2,4
17490.734,0.21,-0.075,0.974,-1.62,-2.17,-0.61,2,4
17490.75,0.208,-0.069,0.97,-0.18,-1.22,-0.73,2,4
17490.765,0.206,-0.067,0.972,0.49,-0.27,-0.52,2,4
17490.781,0.208,-0.069,0.976,0.49,0.21,-0.09,2,4
17490.781,0.214,-0.073,0.977,0.31,0.31,0.55,2,4
17490.781,0.224,-0.075,0.978,0.61,0.7,1.46,2,4
17490.796,0.226,-0.079,0.979,1.4,0.85,1.77,2,4
17490.812,0.218,-0.078,0.979,1.83,0.58,1.53,2,4
17490.812,0.215,-0.073,0.975,1.19,0.03,1.07,2,4
17490.828,0.212,-0.079,0.978,-0.21,-0.58,0.18,2,4
17490.843,0.211,-0.082,0.981,-1.07,-0.98,-0.82,2,4
17490.843,0.215,-0.078,0.983,-1.01,-1.43,-1.74,2,4
17490.859,0.22,-0.069,0.977,-1.34,-1.92,-2.17,2,4
17490.875,0.222,-0.07,0.979,-1.65,-2.32,-1.5,2,4
17490.875,0.225,-0.069,0.977,-1.25,-2.29,-0.55,2,4
17490.89,0.224,-0.07,0.972,-0.49,-1.8,0.03,2,4
17490.906,0.218,-0.068,0.965,-0.03,-0.92,0.31,2,4
17490.906,0.22,-0.066,0.964,-0.18,0.18,0.46,2,4
17490.921,0.217,-0.076,0.972,-0.58,0.82,0.37,2,4
17490.921,0.214,-0.081,0.979,-0.43,0.64,-0.03,2,4
17490.937,0.216,-0.078,0.976,-0.15,-0.06,-0.24,2,4
17490.953,0.219,-0.074,0.969,-0.61,-0.4,0.0,2,4
17490.953,0.225,-0.076,0.965,-1.37,-0.24,-0.12,2,4
17490.968,0.226,-0.085,0.968,-2.2,0.18,-0.98,2,4
17490.984,0.221,-0.083,0.974,-1.92,0.95,-1.92,2,4
17491.0,0.216,-0.078,0.978,-1.65,1.89,-2.59,2,4
17491.0,0.211,-0.074,0.983,-1.8,2.47,-3.08,2,4
17491.015,0.206,-0.069,0.989,-2.08,2.47,-2.84,2,4
17491.015,0.209,-0.064,0.992,-1.74,2.11,-2.08,2,4
17491.031,0.208,-0.062,0.993,-1.28,1.28,-0.89,2,4
17491.046,0.206,-0.071,0.993,-1.22,0.0,0.73,2,4
17491.046,0.2,-0.079,0.986,-0.37,-0.92,2.2,2,4
17491.062,0.196,-0.079,0.98,0.92,-1.13,3.33,2,4
17491.078,0.2,-0.088,0.975,1.56,-0.52,3.69,2,4
17491.078,0.206,-0.094,0.973,2.04,0.21,3.39,2,4
17491.093,0.209,-0.092,0.978,2.32,0.95,2.56,2,4
17491.093,0.209,-0.089,0.982,1.89,1.07,1.4,2,4
17491.109,0.212,-0.081,0.985,0.85,0.95,0.27,2,4
17491.125,0.214,-0.076,0.988,-0.61,0.49,-0.55,2,4
17491.125,0.214,-0.083,0.992,-2.01,-0.4,-1.1,2,4
17491.14,0.204,-0.088,0.991,-2.2,-1.19,-1.19,2,4
17491.156,0.199,-0.084,0.989,-1.37,-1.86,-0.79,2,4
17491.156,0.202,-0.085,0.984,-0.7,-1.95,-0.12,2,4
17491.171,0.213,-0.089,0.983,-0.18,-1.56,0.46,2,4
17491.187,0.223,-0.093,0.981,0.76,-1.25,0.98,2,4
17491.187,0.232,-0.084,0.971,1.86,-1.43,1.43,2,4
17491.203,0.231,-0.078,0.962,1.37,-1.46,1.59,2,4
17491.203,0.226,-0.086,0.958,0.12,-0.98,0.95,2,4
17491.218,0.219,-0.095,0.959,-0.09,0.82,-1.59,2,4
17491.234,0.211,-0.092,0.966,-0.43,1.31,-2.84,2,4
17491.234,0.204,-0.084,0.973,-1.28,1.25,-3.85,2,4
17491.25,0.212,-0.074,0.986,-2.29,0.89,-4.36,2,4
17491.265,0.214,-0.072,0.988,-2.99,0.06,-4.15,2,4
17491.265,0.211,-0.074,0.988,-3.02,-0.79,-3.75,2,4
17491.281,0.205,-0.077,0.983,-2.53,-1.65,-3.11,2,4
17491.296,0.201,-0.075,0.977,-1.74,-1.71,-2.38,2,4
17491.296,0.198,-0.07,0.973,-1.25,-1.01,-1.74,2,4
17491.312,0.198,-0.074,0.977,-0.79,0.18,-1.25,2,4
17491.312,0.197,-0.078,0.984,0.06,1.07,-0.73,2,4
17491.328,0.201,-0.068,0.989,0.73,1.16,0.09,2,4
17491.343,0.207,-0.072,0.989,0.95,0.85,1.31,2,4
17491.343,0.212,-0.081,0.987,1.28,0.24,2.53,2,4
17491.359,0.211,-0.077,0.98,1.68,-0.31,2.47,2,4
17491.375,0.206,-0.077,0.976,1.34,-0.64,1.89,2,4
17491.375,0.197,-0.08,0.973,0.21,-0.76,1.01,2,4
17491.39,0.194,-0.083,0.976,-0.89,-0.52,-0.31,2,4
17491.406,0.197,-0.085,0.982,-1.5,-0.03,-1.62,2,4
17491.406,0.201,-0.082,0.989,-1.37,0.37,-2.17,2,4
17491.421,0.208,-0.075,0.993,-0.92,-0.06,-1.43,2,4
17491.437,0.215,-0.074,0.988,-0.34,-1.1,-0.18,2,4
17491.437,0.216,-0.067,0.977,0.43,-1.92,1.04,2,4
17491.453,0.209,-0.063,0.967,0.49,-1.95,1.83,2,4
17491.453,0.205,-0.067,0.967,-0.21,-0.98,2.01,2,4
17491.468,0.203,-0.077,0.972,-0.24,0.61,2.08,2,4
17491.484,0.199,-0.08,0.976,0.55,2.11,1.77,2,4
17491.484,0.198,-0.084,0.986,1.04,2.47,1.65,2,4
17491.5,0.201,-0.078,0.991,1.31,2.14,2.11,2,4
17491.515,0.206,-0.073,0.99,1.19,0.85,2.69,2,4
17491.531,0.211,-0.079,0.987,0.27,-0.58,3.23,2,4
17491.531,0.216,-0.09,0.985,-0.18,-1.34,3.75,2,4
17491.546,0.209,-0.087,0.976,0.55,-1.5,3.6,2,4
17491.546,0.205,-0.083,0.975,0.46,-1.04,3.2,2,4
17491.562,0.203,-0.083,0.973,-0.61,-0.21,2.69,2,4
17491.562,0.198,-0.09,0.975,-0.98,0.55,2.14,2,4
17491.578,0.196,-0.089,0.979,-0.7,0.82,1.83,2,4
17491.593,0.198,-0.093,0.981,-0.34,0.79,2.2,2,4
17491.609,0.199,-0.098,0.98,-0.03,0.52,2.59,2,4
17491.609,0.198,-0.096,0.976,0.34,0.03,2.59,2,4
17491.625,0.193,-0.091,0.972,-0.31,-0.34,2.26,2,4
17491.625,0.188,-0.096,0.971,-1.74,-0.7,1.71,2,4
17491.64,0.191,-0.109,0.978,-2.35,-0.15,1.13,2,4
17491.656,0.19,-0.114,0.984,-1.28,0.95,0.43,2,4
17491.656,0.184,-0.111,0.989,0.12,2.01,0.18,2,4
17491.671,0.186,-0.104,0.999,0.89,2.38,0.58,2,4
17491.687,0.191,-0.107,1.007,1.19,1.92,0.92,2,4
17491.687,0.188,-0.107,1.007,0.89,0.52,0.49,2,4
17491.703,0.186,-0.099,1.001,0.46,-1.13,-0.24,2,4
17491.703,0.186,-0.096,0.994,-0.61,-2.29,-0.89,2,4
17491.718,0.186,-0.103,0.988,-1.62,-2.69,-1.95,2,4
17491.734,0.186,-0.105,0.984,-1.65,-2.01,-2.87,2,4
17491.734,0.193,-0.096,0.985,-1.19,-1.16,-3.3,2,4
17491.75,0.194,-0.089,0.989,-1.07,-0.61,-3.39,2,4
17491.765,0.19,-0.089,0.992,-1.1,-0.79,-3.33,2,4
17491.765,0.192,-0.092,0.994,-0.76,-1.62,-2.93,2,4
17491.781,0.193,-0.09,0.99,-0.12,-2.38,-2.44,2,4
17491.781,0.192,-0.085,0.983,0.21,-2.9,-2.04,2,4
17491.796,0.196,-0.081,0.977,0.03,-3.05,-1.56,2,4
17491.812,0.205,-0.084,0.974,-0.24,-2.81,-1.46,2,4
17491.828,0.207,-0.085,0.975,0.21,-2.26,-1.74,2,4
17491.828,0.205,-0.078,0.976,0.55,-1.56,-2.08,2,4
17491.843,0.205,-0.076,0.981,0.43,-1.1,-2.29,2,4
17491.843,0.204,-0.073,0.985,0.21,-1.01,-2.14,2,4
17491.859,0.199,-0.079,0.983,-0.03,-1.71,-1.56,2,4
17491.875,0.201,-0.087,0.974,0.37,-3.08,-0.7,2,4
17491.875,0.215,-0.08,0.965,0.95,-3.72,-0.4,2,4
17491.89,0.224,-0.071,0.956,0.82,-3.05,-0.85,2,4
17491.906,0.221,-0.071,0.958,-0.15,-1.83,-1.31,2,4
17491.906,0.22,-0.076,0.969,-0.73,-0.64,-1.31,2,4
17491.921,0.219,-0.074,0.976,0.06,0.06,-1.19,2,4
17491.937,0.208,-0.073,0.979,0.82,0.09,-1.4,2,4
17491.937,0.201,-0.071,0.983,0.27,-0.31,-1.37,2,4
17491.953,0.196,-0.076,0.987,-0.52,-0.85,-1.34,2,4
17491.953,0.194,-0.086,0.993,-0.89,-1.56,-1.22,2,4
17491.968,0.197,-0.084,0.995,-0.34,-2.23,-1.13,2,4
17491.984,0.192,-0.075,0.989,0.06,-2.96,-1.53,2,4
17491.984,0.189,-0.069,0.987,-1.4,-4.06,-1.65,2,4
17492.0,0.189,-0.072,0.992,-3.45,-4.97,-1.71,2,4
17492.015,0.19,-0.074,0.991,-3.91,-5.58,-1.4,2,4
17492.015,0.192,-0.074,0.988,-2.87,-6.01,-0.58,2,4
17492.031,0.193,-0.071,0.982,-1.28,-6.16,0.73,2,4
17492.046,0.202,-0.066,0.984,-0.37,-6.1,1.95,2,4
17492.046,0.203,-0.071,0.97,0.06,-5.4,2.75,2,4
17492.062,0.206,-0.079,0.985,-0.15,-4.36,2.9,2,4
17492.062,0.203,-0.074,1.001,-0.49,-4.18,2.81,2,4
17492.078,0.19,-0.08,1.031,-0.52,-5.25,3.2,2,4
17492.093,0.174,-0.079,1.048,-0.27,-10.32,4.49,2,4
17492.093,0.168,-0.073,1.058,-0.49,-17.3,6.07,2,4
17492.109,0.182,-0.062,1.06,-2.78,-25.15,7.51,2,4
17492.125,0.186,-0.07,1.034,-6.84,-31.89,7.84,2,4
17492.125,0.197,-0.098,1.011,-8.15,-36.35,7.9,2,4
17492.14,0.223,-0.098,1.021,-7.75,-40.04,8.24,2,4
17492.156,0.239,-0.086,1.022,-8.12,-45.2,8.21,2,4
17492.156,0.23,-0.079,1.019,-8.33,-49.87,8.36,2,4
17492.171,0.226,-0.057,1.025,-10.68,-55.76,9.06,2,4
17492.187,0.234,-0.073,1.042,-13.4,-62.53,11.14,2,4
17492.187,0.241,-0.095,1.068,-13.7,-70.59,13.28,2,4
17492.203,0.253,-0.083,1.062,-17.61,-89.97,18.62,2,4
17492.218,0.268,-0.074,1.02,-20.97,-96.8,20.69,2,4
17492.218,0.279,-0.1,0.981,-23.77,-102.36,21.79,2,4
17492.234,0.307,-0.121,0.976,-24.51,-108.19,21.15,2,4
17492.234,0.344,-0.117,0.984,-25.42,-114.66,20.23,2,4
17492.25,0.352,-0.123,1.001,-26.98,-122.75,18.98,2,4
17492.265,0.352,-0.127,1.026,-29.51,-134.25,17.91,2,4
17492.265,0.344,-0.133,1.041,-32.14,-149.69,17.24,2,4
17492.281,0.351,-0.143,1.068,-33.75,-168.92,17.52,2,4
17492.296,0.362,-0.131,1.064,-36.5,-192.36,17.98,2,4
17492.296,0.37,-0.134,1.011,-41.57,-217.05,17.46,2,4
17492.312,0.394,-0.144,1.003,-48.83,-242.5,16.14,2,4
17492.328,0.407,-0.143,0.993,-56.7,-270.67,14.65,2,4
17492.328,0.408,-0.15,0.947,-66.74,-300.24,13.31,2,4
17492.343,0.411,-0.177,0.918,-78.62,-329.42,12.02,2,4
17492.359,0.421,-0.213,0.814,-86.43,-354.11,10.5,2,4
17492.359,0.457,-0.238,0.689,-89.79,-371.96,7.05,2,4
17492.375,0.513,-0.25,0.572,-89.79,-382.21,2.78,2,4
17492.375,0.544,-0.237,0.464,-87.25,-384.32,-1.37,2,4
17492.39,0.573,-0.239,0.381,-86.0,-382.49,-2.26,2,4
17492.406,0.631,-0.24,0.298,-86.52,-377.42,-1.71,2,4
17492.406,0.682,-0.239,0.213,-85.85,-367.47,-2.35,2,4
17492.421,0.717,-0.256,0.174,-86.28,-357.65,-4.79,2,4
17492.437,0.74,-0.242,0.178,-89.51,-352.58,-8.67,2,4
17492.437,0.735,-0.248,0.206,-91.92,-351.97,-12.82,2,4
17492.453,0.719,-0.242,0.233,-95.03,-357.92,-19.35,2,4
17492.453,0.681,-0.215,0.2,-97.99,-366.86,-22.95,2,4
17492.468,0.672,-0.207,0.121,-96.87,-374.13,-18.92,2,4
17492.484,0.67,-0.232,0.04,-92.62,-376.69,-10.19,2,4
17492.484,0.676,-0.205,-0.061,-88.81,-376.02,-3.72,2,4
17492.5,0.693,-0.196,-0.253,-86.18,-372.11,-3.42,2,4
17492.515,0.725,-0.198,-0.433,-87.89,-365.76,-7.39,2,4
17492.515,0.775,-0.227,-0.606,-80.39,-351.91,-8.03,2,4
17492.531,0.794,-0.259,-0.756,-55.97,-329.42,-3.05,2,4
17492.546,0.868,-0.244,-0.823,-27.1,-298.44,7.39,2,4
17492.546,0.906,-0.183,-0.878,-3.91,-258.89,16.08,2,4
17492.562,0.873,-0.158,-0.946,5.52,-218.42,20.17,2,4
17492.578,0.838,-0.14,-0.979,-4.79,-185.34,22.49,2,4
17492.578,0.817,-0.146,-0.93,-28.02,-158.79,23.53,2,4
17492.593,0.781,-0.209,-0.822,-43.15,-137.58,22.89,2,4
17492.593,0.749,-0.241,-0.726,-44.74,-122.59,23.41,2,4
17492.609,0.725,-0.256,-0.654,-37.9,-113.86,24.48,2,4
17492.625,0.743,-0.285,-0.629,-18.77,-106.3,24.45,2,4
17492.625,0.733,-0.272,-0.672,7.9,-97.69,23.41,2,4
17492.64,0.729,-0.239,-0.755,27.68,-89.3,22.61,2,4
17492.656,0.731,-0.191,-0.84,28.57,-80.11,21.3,2,4
17492.656,0.729,-0.193,-0.863,15.78,-69.15,19.87,2,4
17492.671,0.714,-0.265,-0.863,4.49,-57.59,21.03,2,4
17492.671,0.696,-0.285,-0.828,-1.1,-45.2,15.59,2,4
17492.687,0.692,-0.29,-0.778,-2.87,-37.05,13.49,2,4
17492.703,0.691,-0.286,-0.763,-1.28,-30.67,12.7,2,4
17492.703,0.675,-0.297,-0.755,-0.64,-26.7,14.95,2,4
17492.718,0.683,-0.323,-0.73,0.37,-22.1,9.16,2,4
17492.734,0.7,-0.316,-0.738,5.4,-18.07,1.65,2,4
17492.734,0.717,-0.303,-0.76,8.61,-13.12,-1.53,2,4
17492.75,0.72,-0.299,-0.756,8.42,-7.26,-5.52,2,4
17492.765,0.717,-0.302,-0.745,7.42,-1.86,-9.16,2,4
17492.765,0.703,-0.306,-0.72,7.66,3.3,-11.41,2,4
17492.781,0.673,-0.298,-0.658,6.87,5.13,-12.76,2,4
17492.796,0.679,-0.298,-0.633,4.79,2.17,-13.98,2,4
17492.796,0.686,-0.3,-0.641,3.45,-0.76,-14.07,2,4
17492.812,0.684,-0.295,-0.639,3.14,-2.87,-13.15,2,4
17492.828,0.685,-0.298,-0.643,3.88,-4.73,-12.12,2,4
17492.828,0.694,-0.299,-0.668,4.94,-5.92,-11.17,2,4
17492.843,0.698,-0.294,-0.671,4.67,-6.38,-11.75,2,4
17492.843,0.697,-0.306,-0.671,4.97,-6.96,-13.46,2,4
17492.859,0.694,-0.303,-0.669,6.56,-7.23,-15.05,2,4
17492.875,0.7,-0.304,-0.672,7.08,-8.15,-16.91,2,4
17492.875,0.699,-0.306,-0.67,7.97,-8.48,-18.74,2,4
17492.89,0.696,-0.306,-0.677,10.86,-8.03,-19.93,2,4
17492.906,0.683,-0.29,-0.676,11.75,-7.32,-20.94,2,4
17492.906,0.679,-0.292,-0.67,10.59,-8.42,-22.64,2,4
17492.921,0.687,-0.289,-0.677,10.59,-9.52,-24.41,2,4
17492.937,0.685,-0.284,-0.682,14.31,-8.85,-25.94,2,4
17492.937,0.673,-0.278,-0.691,19.14,-7.35,-27.16,2,4
17492.953,0.666,-0.261,-0.695,21.61,-6.71,-27.71,2,4
17492.953,0.669,-0.249,-0.703,19.65,-7.29,-27.16,2,4
17492.968,0.68,-0.256,-0.712,15.87,-7.35,-25.82,2,4
17492.984,0.683,-0.257,-0.725,14.86,-5.8,-24.02,2,4
17492.984,0.685,-0.237,-0.733,14.31,-3.11,-22.86,2,4
17493.0,0.678,-0.233,-0.727,13.92,-0.4,-22.25,2,4
17493.015,0.677,-0.227,-0.722,14.68,1.68,-21.09,2,4
17493.031,0.669,-0.227,-0.704,15.26,4.27,-19.01,2,4
17493.031,0.646,-0.226,-0.672,14.22,5.62,-16.24,2,4
17493.046,0.647,-0.23,-0.638,10.77,2.47,-12.76,2,4
17493.046,0.674,-0.245,-0.65,7.51,-1.71,-10.16,2,4
17493.062,0.695,-0.256,-0.683,7.51,-2.9,-8.36,2,4
17493.078,0.688,-0.248,-0.707,8.73,-1.13,-7.63,2,4
17493.078,0.688,-0.247,-0.707,8.3,0.4,-8.33,2,4
17493.093,0.684,-0.259,-0.707,8.42,2.14,-8.94,2,4
17493.093,0.689,-0.257,-0.708,8.67,3.78,-8.79,2,4
17493.109,0.695,-0.256,-0.701,7.69,5.52,-8.33,2,4
17493.125,0.678,-0.254,-0.669,6.87,7.02,-7.54,2,4
17493.125,0.665,-0.246,-0.637,5.71,5.55,-6.13,2,4
17493.14,0.679,-0.245,-0.624,3.33,1.34,-4.27,2,4
17493.156,0.693,-0.247,-0.638,1.86,-2.2,-2.56,2,4
17493.156,0.708,-0.256,-0.664,1.37,-4.0,-0.92,2,4
17493.171,0.717,-0.266,-0.684,1.62,-3.42,-0.09,2,4
17493.171,0.716,-0.262,-0.688,2.96,-1.62,-0.67,2,4
17493.187,0.718,-0.265,-0.688,4.97,1.34,-3.45,2,4
17493.203,0.723,-0.269,-0.67,6.01,2.01,-4.09,2,4
17493.218,0.714,-0.272,-0.647,7.17,0.95,-4.33,2,4
17493.218,0.706,-0.278,-0.641,7.48,-0.67,-5.01,2,4
17493.234,0.707,-0.284,-0.651,7.57,-1.5,-6.1,2,4
17493.234,0.707,-0.282,-0.649,8.18,-1.65,-7.35,2,4
17493.25,0.703,-0.283,-0.649,8.15,-2.66,-8.55,2,4
17493.265,0.702,-0.281,-0.664,7.66,-4.33,-9.58,2,4
17493.265,0.709,-0.283,-0.696,7.66,-4.61,-10.44,2,4
17493.281,0.712,-0.278,-0.717,7.63,-3.17,-11.14,2,4
17493.296,0.712,-0.267,-0.723,7.51,-0.34,-12.21,2,4
17493.296,0.711,-0.267,-0.705,8.06,3.17,-12.51,2,4
17493.312,0.703,-0.255,-0.681,9.55,6.01,-11.66,2,4
17493.312,0.705,-0.247,-0.659,9.83,6.65,-10.93,2,4
17493.328,0.706,-0.248,-0.649,8.73,6.23,-10.38,2,4
17493.343,0.7,-0.246,-0.641,7.45,5.71,-8.94,2,4
17493.343,0.687,-0.238,-0.63,6.07,4.33,-7.02,2,4
17493.359,0.68,-0.235,-0.632,3.88,1.53,-5.34,2,4
17493.375,0.686,-0.237,-0.64,1.31,-1.65,-3.97,2,4
17493.375,0.707,-0.251,-0.659,1.22,-3.88,-3.66,2,4
17493.39,0.723,-0.249,-0.683,3.27,-3.57,-4.06,2,4
17493.406,0.719,-0.246,-0.693,4.88,-1.4,-4.49,2,4
17493.406,0.714,-0.245,-0.687,4.73,0.98,-3.88,2,4
17493.421,0.708,-0.238,-0.676,3.39,2.69,-2.41,2,4
17493.437,0.697,-0.245,-0.66,2.01,3.11,-0.55,2,4
17493.437,0.691,-0.249,-0.645,0.46,2.01,0.89,2,4
17493.453,0.699,-0.254,-0.642,0.24,0.15,1.1,2,4
17493.453,0.702,-0.257,-0.64,0.92,-1.01,0.64,2,4
17493.468,0.709,-0.253,-0.647,1.56,-2.01,0.06,2,4
17493.484,0.721,-0.252,-0.652,2.11,-2.66,-0.37,2,4
17493.484,0.718,-0.251,-0.658,2.93,-1.89,-0.67,2,4
17493.5,0.706,-0.257,-0.661,3.75,-1.13,-0.49,2,4
17493.515,0.699,-0.252,-0.666,3.51,-1.01,0.18,2,4
17493.515,0.691,-0.248,-0.667,1.77,-1.34,0.64,2,4
17493.531,0.689,-0.256,-0.667,-0.58,-2.08,0.49,2,4
17493.531,0.694,-0.255,-0.667,-1.16,-2.44,0.34,2,4
17493.546,0.698,-0.248,-0.67,0.52,-2.08,0.12,2,4
17493.562,0.701,-0.244,-0.676,1.56,-1.37,0.21,2,4
17493.578,0.701,-0.24,-0.674,1.07,-0.7,0.73,2,4
17493.578,0.696,-0.238,-0.669,0.49,0.0,1.65,2,4
17493.593,0.689,-0.236,-0.663,-0.43,0.12,3.05,2,4
17493.593,0.69,-0.247,-0.66,-0.76,-0.09,3.97,2,4
17493.609,0.697,-0.256,-0.667,-0.09,-0.18,4.21,2,4
17493.625,0.703,-0.257,-0.671,0.7,0.06,4.03,2,4
17493.625,0.708,-0.259,-0.672,0.43,0.67,4.3,2,4
17493.64,0.71,-0.261,-0.67,-0.58,1.5,4.97,2,4
17493.656,0.711,-0.269,-0.658,-1.83,1.92,5.49,2,4
17493.656,0.712,-0.276,-0.649,-2.84,1.8,5.37,2,4
17493.671,0.712,-0.283,-0.641,-2.62,1.01,4.18,2,4
17493.671,0.711,-0.291,-0.641,-0.12,0.06,2.26,2,4
17493.687,0.708,-0.28,-0.651,3.02,-0.49,0.27,2,4
17493.703,0.715,-0.27,-0.66,5.01,-0.73,-1.5,2,4
17493.703,0.72,-0.257,-0.662,4.91,-0.43,-2.81,2,4
17493.718,0.717,-0.252,-0.661,4.0,0.31,-3.27,2,4
17493.734,0.71,-0.248,-0.649,3.27,0.61,-3.27,2,4
17493.75,0.702,-0.245,-0.645,3.39,0.27,-3.23,2,4
17493.75,0.692,-0.24,-0.654,4.3,-0.15,-3.33,2,4
17493.765,0.698,-0.239,-0.665,4.85,-0.4,-3.45,2,4
17493.765,0.707,-0.24,-0.675,4.64,0.21,-3.23,2,4
17493.781,0.706,-0.246,-0.677,4.12,1.68,-1.89,2,4
17493.796,0.71,-0.25,-0.672,1.89,3.02,0.67,2,4
17493.796,0.715,-0.258,-0.661,-1.77,3.81,3.3,2,4
17493.812,0.714,-0.274,-0.645,-3.94,3.81,4.49,2,4
17493.812,0.709,-0.281,-0.639,-3.54,3.3,4.43,2,4
17493.828,0.705,-0.281,-0.641,-1.74,2.56,3.11,2,4
17493.843,0.705,-0.281,-0.648,0.49,2.01,1.37,2,4
17493.843,0.706,-0.275,-0.659,1.5,1.8,-0.06,2,4
17493.859,0.714,-0.274,-0.664,1.37,2.29,-0.43,2,4
17493.875,0.716,-0.272,-0.657,0.95,3.45,-0.18,2,4
17493.875,0.717,-0.272,-0.651,-0.18,4.3,0.46,2,4
17493.89,0.716,-0.274,-0.639,-0.82,4.09,1.13,2,4
17493.906,0.715,-0.267,-0.642,-0.82,2.99,0.95,2,4
17493.906,0.718,-0.265,-0.643,-0.55,2.17,0.34,2,4
17493.921,0.717,-0.266,-0.642,0.09,1.71,-0.15,2,4
17493.921,0.719,-0.262,-0.639,1.16,1.62,-0.24,2,4
17493.937,0.716,-0.259,-0.627,1.19,1.53,0.15,2,4
17493.953,0.72,-0.26,-0.624,-0.15,1.04,0.98,2,4
17493.968,0.722,-0.263,-0.627,-0.67,0.09,1.71,2,4
17493.968,0.718,-0.265,-0.635,-0.37,-1.13,2.08,2,4
17493.984,0.713,-0.269,-0.641,-0.31,-2.14,2.23,2,4
17493.984,0.71,-0.27,-0.65,-0.24,-3.02,2.04,2,4
17494.0,0.711,-0.268,-0.657,0.09,-3.33,1.89,2,4
17494.015,0.713,-0.267,-0.66,0.89,-2.72,2.04,2,4
17494.015,0.714,-0.264,-0.66,0.55,-1.74,2.2,2,4
17494.031,0.717,-0.269,-0.654,-0.06,-1.07,2.08,2,4
17494.046,0.715,-0.269,-0.642,-0.06,-0.67,1.83,2,4
17494.062,0.711,-0.266,-0.631,0.82,-0.7,1.4,2,4
17494.062,0.71,-0.265,-0.63,1.83,-1.86,1.07,2,4
17494.078,0.712,-0.266,-0.635,2.01,-3.17,0.64,2,4
17494.093,0.718,-0.27,-0.648,2.11,-4.06,0.49,2,4
17494.093,0.721,-0.265,-0.656,1.8,-4.0,1.07,2,4
17494.109,0.719,-0.266,-0.663,0.92,-3.17,1.22,2,4
17494.109,0.712,-0.273,-0.659,0.49,-2.17,0.79,2,4
17494.125,0.707,-0.271,-0.654,1.68,-1.43,0.43,2,4
17494.14,0.713,-0.271,-0.655,3.14,-0.79,-0.21,2,4
17494.14,0.717,-0.27,-0.657,3.54,-0.12,-0.82,2,4
17494.156,0.719,-0.272,-0.654,2.59,0.49,-0.79,2,4
17494.171,0.727,-0.275,-0.648,0.92,0.67,-0.18,2,4
17494.171,0.726,-0.276,-0.634,-0.49,-0.15,0.34,2,4
17494.187,0.73,-0.282,-0.631,0.09,-0.49,-0.06,2,4
17494.187,0.735,-0.279,-0.636,0.64,-0.73,-0.82,2,4
17494.203,0.73,-0.275,-0.634,0.24,-1.34,-1.37,2,4
17494.203,0.72,-0.281,-0.64,0.31,-1.62,-1.77,2,4
17494.218,0.719,-0.28,-0.638,1.04,-1.62,-2.2,2,4
17494.234,0.72,-0.279,-0.64,1.5,-1.46,-2.66,2,4
17494.234,0.724,-0.275,-0.641,1.98,-1.43,-3.02,2,4
17494.25,0.718,-0.273,-0.64,1.98,-1.25,-3.33,2,4
17494.265,0.708,-0.273,-0.636,2.04,-1.4,-3.02,2,4
17494.265,0.714,-0.273,-0.644,2.41,-2.23,-2.35,2,4
17494.281,0.713,-0.271,-0.657,2.32,-2.69,-2.2,2,4
17494.281,0.714,-0.274,-0.662,1.56,-2.84,-2.59,2,4
17494.296,0.716,-0.272,-0.665,1.4,-2.35,-2.87,2,4
17494.312,0.711,-0.266,-0.661,1.43,-1.34,-2.44,2,4
17494.312,0.703,-0.264,-0.648,0.46,-0.67,-1.8,2,4
17494.328,0.703,-0.268,-0.64,-0.58,-1.28,-0.92,2,4
17494.343,0.703,-0.272,-0.64,-0.18,-2.14,-0.34,2,4
17494.343,0.7,-0.274,-0.639,0.12,-3.05,0.0,2,4
17494.359,0.701,-0.273,-0.649,-0.43,-4.0,-0.09,2,4
17494.375,0.71,-0.279,-0.662,-0.49,-4.06,-0.73,2,4
17494.375,0.713,-0.277,-0.664,-0.27,-3.2,-1.83,2,4
17494.39,0.705,-0.273,-0.663,0.31,-2.11,-3.17,2,4
17494.406,0.697,-0.271,-0.662,1.43,-1.56,-4.27,2,4
17494.406,0.704,-0.27,-0.665,3.02,-1.25,-5.13,2,4
17494.421,0.709,-0.26,-0.67,4.03,-0.55,-5.58,2,4
17494.421,0.712,-0.254,-0.675,3.97,0.09,-5.28,2,4
17494.437,0.714,-0.253,-0.672,2.44,1.1,-3.78,2,4
17494.453,0.709,-0.25,-0.656,0.52,2.32,-2.29,2,4
17494.453,0.697,-0.253,-0.633,-0.82,2.41,-0.37,2,4
17494.468,0.696,-0.253,-0.627,-0.98,1.07,1.43,2,4
17494.484,0.695,-0.254,-0.627,-0.79,-0.46,2.11,2,4
17494.5,0.698,-0.26,-0.635,-1.1,-1.95,2.04,2,4
17494.5,0.708,-0.266,-0.647,-0.55,-3.05,2.35,2,4
17494.515,0.717,-0.264,-0.671,0.21,-2.99,2.14,2,4
17494.515,0.721,-0.268,-0.682,0.24,-1.65,1.74,2,4
17494.531,0.713,-0.268,-0.672,-0.18,0.49,1.43,2,4
17494.546,0.705,-0.269,-0.658,0.15,1.53,1.4,2,4
17494.546,0.71,-0.266,-0.652,0.46,1.77,1.5,2,4
17494.562,0.715,-0.264,-0.649,0.27,1.83,1.8,2,4
17494.578,0.718,-0.267,-0.644,-0.61,1.5,2.04,2,4
17494.578,0.719,-0.271,-0.645,-1.59,1.19,2.44,2,4
17494.593,0.718,-0.271,-0.648,-2.17,1.01,2.69,2,4
17494.593,0.713,-0.276,-0.649,-2.56,1.01,2.47,2,4
17494.609,0.711,-0.282,-0.645,-1.83,0.89,1.98,2,4
17494.625,0.713,-0.28,-0.648,-0.21,0.85,1.28,2,4
17494.625,0.719,-0.274,-0.657,0.95,1.04,0.4,2,4
17494.64,0.726,-0.273,-0.651,1.13,2.08,-0.09,2,4
17494.656,0.721,-0.267,-0.638,0.46,3.33,0.31,2,4
17494.656,0.718,-0.271,-0.635,-0.55,3.36,1.22,2,4
17494.671,0.711,-0.274,-0.64,-1.53,2.53,1.77,2,4
17494.671,0.706,-0.281,-0.653,-2.01,1.65,1.74,2,4
17494.687,0.696,-0.278,-0.657,-2.01,1.22,1.04,2,4
17494.703,0.693,-0.28,-0.662,-1.62,0.15,-0.09,2,4
17494.718,0.707,-0.272,-0.674,-0.58,-0.12,-0.21,2,4
17494.718,0.721,-0.266,-0.679,-0.24,0.76,0.46,2,4
17494.734,0.725,-0.265,-0.674,-0.82,2.38,1.19,2,4
17494.734,0.719,-0.268,-0.664,-1.46,3.63,1.86,2,4
17494.75,0.713,-0.268,-0.651,-2.53,4.09,2.29,2,4
17494.765,0.705,-0.273,-0.635,-3.05,4.12,2.14,2,4
17494.765,0.703,-0.276,-0.621,-2.66,3.72,1.71,2,4
17494.781,0.711,-0.275,-0.621,-1.8,2.96,1.34,2,4
17494.796,0.72,-0.273,-0.628,-0.95,2.47,1.13,2,4
17494.796,0.721,-0.268,-0.625,-1.01,2.2,0.95,2,4
17494.812,0.719,-0.269,-0.62,-1.43,1.92,1.13,2,4
17494.812,0.716,-0.271,-0.618,-2.11,1.46,1.53,2,4
17494.828,0.716,-0.271,-0.621,-2.35,0.61,1.8,2,4
17494.843,0.717,-0.273,-0.629,-1.37,-0.43,1.19,2,4
17494.843,0.724,-0.273,-0.642,0.06,-1.16,0.46,2,4
17494.859,0.729,-0.267,-0.655,1.43,-0.92,-0.06,2,4
17494.875,0.726,-0.264,-0.658,1.59,-0.06,-0.12,2,4
17494.875,0.727,-0.264,-0.65,0.52,0.7,0.85,2,4
17494.89,0.732,-0.265,-0.642,-1.16,1.22,2.32,2,4
17494.906,0.734,-0.272,-0.626,-2.44,1.25,3.39,2,4
17494.906,0.729,-0.278,-0.615,-2.53,0.73,3.45,2,4
17494.921,0.718,-0.288,-0.611,-1.31,-0.31,2.69,2,4
17494.937,0.718,-0.292,-0.618,0.34,-1.95,1.5,2,4
17494.937,0.72,-0.292,-0.635,1.68,-2.96,0.24,2,4
17494.953,0.724,-0.292,-0.648,1.89,-3.05,-0.37,2,4
17494.953,0.725,-0.288,-0.656,1.34,-2.2,-0.95,2,4
17494.968,0.723,-0.292,-0.652,1.5,-1.28,-1.28,2,4
17494.984,0.718,-0.29,-0.652,1.53,-0.34,-1.92,2,4
17494.984,0.712,-0.285,-0.648,1.65,0.12,-2.56,2,4
17495.0,0.711,-0.284,-0.645,1.71,-0.12,-2.87,2,4
17495.015,0.714,-0.282,-0.643,1.07,-0.18,-2.29,2,4
17495.015,0.721,-0.286,-0.644,0.37,-0.31,-1.25,2,4
17495.031,0.721,-0.288,-0.642,-0.98,-0.43,-0.21,2,4
17495.046,0.722,-0.294,-0.636,-2.14,-0.61,0.03,2,4
17495.046,0.734,-0.3,-0.634,-1.98,-1.01,-0.31,2,4
17495.062,0.739,-0.306,-0.63,-0.95,-1.07,-1.5,2,4
17495.078,0.744,-0.323,-0.625,0.76,-0.85,-3.17,2,4
17495.078,0.764,-0.367,-0.622,4.06,-1.04,-5.19,2,4
17495.093,0.782,-0.395,-0.618,8.18,-0.92,-8.42,2,4
17495.093,0.799,-0.445,-0.608,11.32,-0.67,-12.24,2,4
17495.109,0.8,-0.474,-0.605,10.8,-0.73,-15.53,2,4
17495.125,0.813,-0.515,-0.593,7.2,-2.26,-18.46,2,4
17495.125,0.839,-0.568,-0.579,3.75,-4.24,-20.81,2,4
17495.14,0.855,-0.61,-0.575,1.34,-6.16,-22.1,2,4
17495.156,0.882,-0.662,-0.573,-4.27,-10.44,-27.86,2,4
17495.156,0.911,-0.714,-0.568,-6.07,-11.29,-35.98,2,4
17495.171,0.93,-0.732,-0.553,-6.16,-11.51,-47.85,2,4
17495.187,0.943,-0.735,-0.527,-4.06,-11.63,-61.98,2,4
17495.187,0.919,-0.654,-0.491,-1.37,-11.72,-75.47,2,4
17495.203,0.881,-0.591,-0.476,-0.21,-13.06,-86.34,2,4
17495.203,0.836,-0.521,-0.473,-0.12,-16.54,-94.24,2,4
17495.218,0.794,-0.46,-0.477,0.52,-20.94,-98.27,2,4
17495.234,0.783,-0.43,-0.507,2.59,-25.67,-98.09,2,4
17495.25,0.792,-0.381,-0.556,3.42,-28.99,-92.72,2,4
17495.25,0.801,-0.342,-0.59,-2.14,-30.0,-83.74,2,4
17495.265,0.818,-0.332,-0.599,-11.32,-29.94,-74.07,2,4
17495.265,0.813,-0.329,-0.587,-19.14,-29.51,-66.44,2,4
17495.281,0.796,-0.342,-0.563,-24.81,-29.51,-61.34,2,4
17495.296,0.787,-0.332,-0.545,-27.38,-30.49,-59.48,2,4
17495.296,0.756,-0.307,-0.539,-28.6,-32.69,-61.01,2,4
17495.312,0.716,-0.272,-0.531,-30.92,-36.62,-63.91,2,4
17495.328,0.697,-0.245,-0.546,-32.29,-41.35,-66.77,2,4
17495.328,0.683,-0.21,-0.573,-32.07,-44.59,-68.0,2,4
17495.343,0.678,-0.173,-0.602,-30.92,-46.08,-67.75,2,4
17495.343,0.655,-0.139,-0.639,-31.04,-45.38,-66.65,2,4
17495.359,0.648,-0.113,-0.666,-34.21,-43.46,-65.07,2,4
17495.375,0.661,-0.088,-0.674,-38.91,-41.63,-63.84,2,4
17495.375,0.645,-0.067,-0.662,-43.21,-39.37,-62.72,2,4
17495.39,0.628,-0.05,-0.636,-47.0,-38.18,-61.56,2,4
17495.406,0.62,-0.05,-0.613,-48.4,-38.67,-61.68,2,4
17495.406,0.607,-0.046,-0.589,-46.88,-40.35,-63.23,2,4
17495.421,0.597,-0.03,-0.579,-45.05,-43.37,-65.83,2,4
17495.437,0.593,-0.014,-0.577,-43.76,-47.46,-69.19,2,4
17495.437,0.585,-0.003,-0.577,-42.09,-51.09,-72.54,2,4
17495.453,0.572,0.007,-0.581,-39.64,-54.23,-75.96,2,4
17495.453,0.561,0.006,-0.581,-36.23,-57.34,-80.32,2,4
17495.468,0.544,-0.002,-0.588,-29.6,-59.79,-85.48,2,4
17495.484,0.519,-0.005,-0.549,-21.88,-62.53,-92.59,2,4
17495.484,0.476,-0.014,-0.54,-7.54,-66.77,-102.6,2,4
17495.5,0.422,0.014,-0.556,10.07,-70.83,-111.48,2,4
17495.515,0.381,0.088,-0.573,23.53,-77.97,-118.29,2,4
17495.531,0.374,0.116,-0.661,29.45,-87.28,-121.22,2,4
17495.531,0.407,0.162,-0.775,27.44,-92.2,-119.36,2,4
17495.546,0.401,0.203,-0.79,21.36,-90.7,-116.52,2,4
17495.546,0.369,0.206,-0.769,15.23,-87.65,-114.02,2,4
17495.562,0.334,0.222,-0.759,13.92,-86.92,-111.79,2,4
17495.562,0.278,0.236,-0.739,18.19,-87.16,-109.96,2,4
17495.578,0.255,0.236,-0.777,23.65,-89.82,-106.78,2,4
17495.593,0.25,0.26,-0.866,25.12,-91.01,-101.14,2,4
17495.593,0.245,0.25,-0.939,19.96,-87.16,-93.72,2,4
17495.609,0.267,0.261,-0.957,7.02,-81.94,-85.27,2,4
17495.625,0.286,0.258,-0.946,-3.81,-74.65,-77.33,2,4
17495.64,0.282,0.249,-0.866,-9.77,-66.56,-72.94,2,4
17495.64,0.268,0.23,-0.815,-8.91,-61.95,-71.9,2,4
17495.656,0.244,0.213,-0.843,-4.7,-59.94,-71.84,2,4
17495.656,0.24,0.215,-0.874,-3.39,-57.5,-73.55,2,4
17495.671,0.224,0.23,-0.904,-7.14,-55.15,-78.4,2,4
17495.687,0.208,0.221,-0.925,-13.25,-52.64,-83.13,2,4
17495.687,0.209,0.243,-0.946,-17.4,-48.31,-85.54,2,4
17495.703,0.219,0.272,-0.956,-22.95,-42.45,-86.03,2,4
17495.703,0.206,0.289,-0.912,-30.7,-36.26,-84.81,2,4
17495.718,0.177,0.301,-0.832,-35.16,-31.86,-82.28,2,4
17495.734,0.147,0.305,-0.776,-35.37,-31.22,-78.28,2,4
17495.734,0.142,0.319,-0.753,-34.55,-34.76,-73.27,2,4
17495.75,0.157,0.341,-0.771,-34.61,-40.25,-70.31,2,4
17495.765,0.156,0.337,-0.803,-35.28,-43.92,-69.09,2,4
17495.765,0.152,0.323,-0.842,-34.21,-44.68,-67.17,2,4
17495.781,0.142,0.347,-0.88,-33.72,-43.24,-64.27,2,4
17495.796,0.141,0.362,-0.886,-38.15,-40.41,-60.85,2,4
17495.796,0.141,0.339,-0.859,-43.09,-37.45,-58.72,2,4
17495.812,0.132,0.319,-0.814,-42.09,-35.07,-59.21,2,4
17495.812,0.106,0.339,-0.777,-38.33,-33.97,-60.61,2,4
17495.828,0.078,0.36,-0.763,-35.95,-35.13,-61.37,2,4
17495.843,0.067,0.363,-0.76,-36.32,-38.48,-60.12,2,4
17495.843,0.087,0.366,-0.766,-38.18,-42.33,-57.16,2,4
17495.859,0.11,0.366,-0.798,-39.22,-43.31,-54.26,2,4
17495.875,0.106,0.37,-0.814,-41.08,-41.87,-51.67,2,4
17495.875,0.098,0.363,-0.796,-43.46,-39.95,-49.71,2,4
17495.89,0.078,0.339,-0.784,-42.85,-38.24,-49.71,2,4
17495.906,0.081,0.324,-0.748,-41.81,-37.78,-51.82,2,4
17495.906,0.085,0.329,-0.716,-39.31,-39.31,-56.43,2,4
17495.921,0.071,0.34,-0.704,-36.07,-41.63,-62.04,2,4
17495.921,0.056,0.353,-0.713,-33.88,-44.19,-66.65,2,4
17495.937,0.035,0.352,-0.738,-32.14,-45.81,-69.37,2,4
17495.953,0.01,0.334,-0.752,-30.52,-45.47,-69.8,2,4
17495.968,-0.02,0.313,-0.754,-28.9,-42.54,-67.54,2,4
17495.968,0.015,0.339,-0.722,-32.75,-41.96,-62.53,2,4
17495.984,0.057,0.382,-0.662,-39.19,-44.98,-60.4,2,4
17495.984,0.052,0.383,-0.603,-44.4,-48.16,-62.23,2,4
17496.0,0.017,0.385,-0.583,-43.15,-51.85,-65.07,2,4
17496.015,-0.038,0.391,-0.603,-36.81,-54.66,-68.33,2,4
17496.015,-0.09,0.398,-0.636,-34.27,-56.79,-70.31,2,4
17496.031,-0.089,0.399,-0.664,-36.96,-59.45,-68.91,2,4
17496.046,-0.049,0.428,-0.681,-41.51,-60.15,-64.52,2,4
17496.046,-0.008,0.463,-0.66,-46.88,-59.08,-60.37,2,4
17496.062,-0.036,0.464,-0.622,-50.2,-56.76,-57.59,2,4
17496.062,-0.091,0.45,-0.589,-50.72,-55.02,-55.67,2,4
17496.078,-0.142,0.444,-0.571,-48.86,-53.99,-53.1,2,4
17496.093,-0.142,0.477,-0.548,-49.1,-54.99,-49.93,2,4
17496.093,-0.095,0.5,-0.509,-52.67,-57.92,-48.31,2,4
17496.109,-0.075,0.524,-0.481,-53.59,-62.59,-49.35,2,4
17496.125,-0.136,0.522,-0.48,-52.19,-65.25,-49.41,2,4
17496.125,-0.187,0.527,-0.514,-51.64,-68.79,-46.94,2,4
17496.14,-0.232,0.501,-0.554,-56.25,-66.26,-42.6,2,4
17496.156,-0.26,0.46,-0.564,-59.82,-65.16,-43.4,2,4
17496.156,-0.21,0.48,-0.541,-58.26,-64.58,-50.66,2,4
17496.171,-0.195,0.508,-0.462,-51.06,-61.68,-60.91,2,4
17496.171,-0.279,0.516,-0.415,-42.94,-59.79,-68.36,2,4
17496.187,-0.335,0.531,-0.393,-37.17,-61.8,-71.2,2,4
17496.203,-0.342,0.577,-0.379,-37.72,-65.65,-69.22,2,4
17496.203,-0.345,0.64,-0.347,-44.43,-71.72,-67.69,2,4
17496.218,-0.386,0.655,-0.316,-50.14,-80.26,-69.61,2,4
17496.234,-0.461,0.632,-0.333,-47.58,-87.5,-71.05,2,4
17496.25,-0.524,0.652,-0.394,-39.98,-91.89,-68.79,2,4
17496.25,-0.556,0.685,-0.469,-37.05,-93.17,-64.49,2,4
17496.265,-0.569,0.662,-0.514,-40.59,-91.13,-58.99,2,4
17496.265,-0.552,0.655,-0.506,-47.98,-85.48,-49.35,2,4
17496.281,-0.512,0.687,-0.458,-54.87,-80.6,-38.91,2,4
17496.296,-0.489,0.701,-0.405,-56.06,-78.1,-31.92,2,4
17496.296,-0.523,0.723,-0.374,-53.41,-76.66,-29.51,2,4
17496.312,-0.612,0.716,-0.369,-50.48,-77.97,-29.11,2,4
17496.328,-0.705,0.721,-0.364,-52.77,-80.66,-26.31,2,4
17496.328,-0.737,0.705,-0.354,-59.79,-85.06,-21.67,2,4
17496.343,-0.703,0.677,-0.359,-64.61,-88.38,-17.06,2,4
17496.343,-0.657,0.672,-0.381,-64.18,-85.67,-12.05,2,4
17496.359,-0.617,0.699,-0.38,-66.23,-79.13,-6.87,2,4
17496.375,-0.609,0.708,-0.348,-72.3,-74.62,-2.87,2,4
17496.375,-0.642,0.693,-0.311,-77.24,-72.48,-2.2,2,4
17496.39,-0.678,0.699,-0.234,-79.87,-72.21,-6.38,2,4
17496.406,-0.736,0.723,-0.176,-76.27,-80.02,-18.01,2,4
17496.406,-0.761,0.704,-0.183,-65.55,-84.17,-25.27,2,4
17496.421,-0.802,0.753,-0.273,-53.96,-85.88,-27.38,2,4
17496.421,-0.829,0.743,-0.342,-55.73,-87.25,-25.42,2,4
17496.437,-0.81,0.716,-0.352,-65.37,-82.52,-16.39,2,4
17496.453,-0.756,0.756,-0.33,-71.75,-75.96,-11.54,2,4
17496.468,-0.726,0.752,-0.271,-74.8,-69.0,-14.77,2,4
17496.468,-0.734,0.758,-0.232,-68.88,-65.0,-21.73,2,4
17496.484,-0.815,0.815,-0.194,-58.32,-61.53,-27.25,2,4
17496.5,-0.893,0.848,-0.164,-56.25,-62.23,-25.82,2,4
17496.5,-0.869,0.854,-0.156,-62.84,-69.58,-18.07,2,4
17496.515,-0.829,0.834,-0.147,-72.48,-73.85,-7.26,2,4
17496.515,-0.78,0.75,-0.131,-79.32,-73.7,3.42,2,4
17496.531,-0.747,0.678,-0.107,-79.23,-68.27,13.52,2,4
17496.546,-0.748,0.689,-0.065,-79.44,-61.4,17.09,2,4
17496.546,-0.741,0.72,-0.005,-82.49,-63.02,7.54,2,4
17496.562,-0.771,0.716,0.05,-78.62,-69.92,-11.17,2,4
17496.578,-0.827,0.726,0.045,-66.9,-76.57,-27.16,2,4
17496.578,-0.83,0.744,-0.031,-55.42,-85.02,-35.65,2,4
17496.593,-0.801,0.755,-0.119,-51.12,-88.96,-38.06,2,4
17496.593,-0.807,0.73,-0.135,-54.69,-84.38,-37.29,2,4
17496.609,-0.847,0.71,-0.101,-61.28,-76.72,-35.62,2,4
17496.625,-0.868,0.723,-0.028,-66.71,-71.87,-36.01,2,4
17496.625,-0.881,0.75,0.049,-69.09,-69.09,-38.64,2,4
17496.64,-0.88,0.779,0.091,-69.09,-70.07,-40.35,2,4
17496.656,-0.849,0.791,0.095,-68.24,-73.73,-37.72,2,4
17496.656,-0.846,0.83,0.084,-70.5,-74.59,-31.37,2,4
17496.671,-0.846,0.819,0.076,-77.12,-74.68,-24.02,2,4
17496.687,-0.827,0.777,0.084,-81.42,-74.92,-17.37,2,4
17496.687,-0.831,0.757,0.1,-81.61,-71.66,-13.21,2,4
17496.703,-0.86,0.736,0.121,-81.21,-69.25,-12.94,2,4
17496.703,-0.888,0.716,0.137,-80.08,-68.12,-13.49,2,4
17496.718,-0.866,0.75,0.143,-78.95,-67.17,-14.07,2,4
17496.734,-0.832,0.753,0.142,-76.72,-66.81,-17.03,2,4
17496.734,-0.805,0.742,0.139,-73.49,-63.6,-18.16,2,4
17496.75,-0.788,0.77,0.152,-73.73,-58.6,-15.59,2,4
17496.765,-0.806,0.769,0.185,-78.31,-55.12,-12.7,2,4
17496.765,-0.854,0.737,0.235,-83.8,-53.32,-8.55,2,4
17496.781,-0.868,0.72,0.277,-87.25,-52.22,-3.72,2,4
17496.781,-0.853,0.699,0.291,-88.23,-53.38,-2.62,2,4
17496.796,-0.862,0.679,0.299,-87.5,-54.32,-5.34,2,4
17496.812,-0.861,0.67,0.299,-86.28,-55.3,-8.33,2,4
17496.828,-0.834,0.676,0.282,-84.6,-54.9,-9.58,2,4
17496.828,-0.81,0.68,0.284,-84.26,-52.58,-9.22,2,4
17496.843,-0.813,0.676,0.306,-85.85,-48.89,-7.17,2,4
17496.843,-0.822,0.664,0.337,-88.96,-45.23,-2.62,2,4
17496.859,-0.828,0.642,0.371,-92.72,-42.6,1.89,2,4
17496.875,-0.811,0.598,0.406,-95.55,-41.69,3.88,2,4
17496.875,-0.798,0.55,0.449,-95.22,-41.05,2.38,2,4
17496.89,-0.808,0.531,0.471,-91.16,-41.93,-2.59,2,4
17496.906,-0.805,0.537,0.467,-87.44,-44.8,-9.58,2,4
17496.906,-0.8,0.568,0.457,-83.25,-46.14,-16.66,2,4
17496.921,-0.802,0.636,0.447,-79.71,-45.08,-22.4,2,4
17496.921,-0.812,0.686,0.444,-79.26,-43.92,-26.18,2,4
17496.937,-0.844,0.726,0.449,-80.69,-43.31,-25.73,2,4
17496.953,-0.839,0.733,0.442,-83.44,-43.4,-20.33,2,4
17496.968,-0.803,0.737,0.426,-85.15,-42.88,-13.67,2,4
17496.968,-0.82,0.753,0.431,-86.49,-40.38,-8.09,2,4
17496.984,-0.867,0.758,0.457,-91.19,-38.88,-2.29,2,4
17496.984,-0.891,0.736,0.471,-95.46,-38.76,4.46,2,4
17497.0,-0.851,0.743,0.479,-97.51,-37.9,11.81,2,4
17497.015,-0.814,0.75,0.477,-99.31,-37.08,17.18,2,4
17497.015,-0.778,0.719,0.488,-103.46,-36.23,22.64,2,4
17497.031,-0.747,0.701,0.506,-108.43,-35.13,27.89,2,4
17497.031,-0.745,0.67,0.536,-111.64,-34.15,31.5,2,4
17497.046,-0.761,0.64,0.56,-111.64,-34.09,34.58,2,4
17497.062,-0.754,0.617,0.56,-110.08,-34.3,37.08,2,4
17497.078,-0.733,0.582,0.563,-108.43,-33.78,37.72,2,4
17497.078,-0.751,0.568,0.577,-105.75,-30.12,37.14,2,4
17497.093,-0.74,0.568,0.599,-105.17,-26.34,35.0,2,4
17497.109,-0.731,0.562,0.627,-104.95,-22.98,31.77,2,4
17497.109,-0.745,0.559,0.66,-103.03,-19.81,29.82,2,4
17497.125,-0.765,0.57,0.684,-96.47,-18.92,33.97,2,4
17497.125,-0.757,0.581,0.665,-96.07,-18.13,38.88,2,4
17497.14,-0.715,0.613,0.619,-98.73,-14.71,43.61,2,4
17497.156,-0.684,0.6,0.587,-102.97,-10.13,48.46,2,4
17497.156,-0.701,0.562,0.628,-107.49,-6.29,53.01,2,4
17497.171,-0.685,0.533,0.667,-110.75,-5.83,56.61,2,4
17497.187,-0.681,0.517,0.685,-112.55,-6.84,59.27,2,4
17497.187,-0.651,0.481,0.701,-113.74,-7.9,62.38,2,4
17497.203,-0.604,0.448,0.718,-111.27,-7.17,65.46,2,4
17497.203,-0.581,0.442,0.752,-107.94,-3.85,66.23,2,4
17497.218,-0.593,0.404,0.795,-105.32,-0.92,65.16,2,4
17497.234,-0.608,0.383,0.829,-99.86,-0.67,63.3,2,4
17497.234,-0.597,0.374,0.835,-94.82,-2.53,61.01,2,4
17497.25,-0.571,0.35,0.819,-91.53,-5.4,56.64,2,4
17497.265,-0.572,0.33,0.786,-86.49,-6.68,49.9,2,4
17497.281,-0.587,0.338,0.757,-81.18,-5.65,42.66,2,4
17497.281,-0.598,0.362,0.755,-77.0,-2.59,36.47,2,4
17497.296,-0.603,0.389,0.77,-73.98,1.31,32.59,2,4
17497.296,-0.612,0.446,0.792,-73.06,5.28,32.26,2,4
17497.312,-0.619,0.469,0.834,-76.27,7.69,34.27,2,4
17497.312,-0.607,0.45,0.871,-79.04,8.3,37.42,2,4
17497.328,-0.594,0.419,0.898,-78.13,8.03,39.31,2,4
17497.343,-0.565,0.38,0.915,-74.04,6.29,38.76,2,4
17497.343,-0.525,0.36,0.918,-70.41,3.81,35.8,2,4
17497.359,-0.511,0.345,0.916,-66.93,1.46,30.34,2,4
17497.375,-0.493,0.323,0.911,-63.66,-1.19,22.83,2,4
17497.375,-0.479,0.32,0.895,-58.41,-3.39,14.68,2,4
17497.39,-0.475,0.335,0.865,-53.04,-4.03,8.97,2,4
17497.406,-0.437,0.343,0.863,-49.96,-3.72,6.01,2,4
17497.406,-0.429,0.358,0.874,-46.63,-1.98,4.33,2,4
17497.421,-0.421,0.357,0.884,-42.39,-1.62,4.0,2,4
17497.421,-0.407,0.379,0.863,-36.1,-1.68,5.92,2,4
17497.437,-0.426,0.421,0.831,-31.43,-0.64,9.55,2,4
17497.453,-0.446,0.4,0.804,-31.65,-0.12,14.8,2,4
17497.453,-0.453,0.385,0.772,-33.66,1.37,21.73,2,4
17497.468,-0.463,0.362,0.752,-36.47,4.85,29.97,2,4
17497.484,-0.475,0.337,0.753,-39.09,9.64,38.0,2,4
17497.484,-0.464,0.296,0.77,-41.2,13.89,44.71,2,4
17497.5,-0.443,0.254,0.808,-41.41,17.24,49.53,2,4
17497.515,-0.434,0.229,0.852,-40.59,19.04,51.88,2,4
17497.515,-0.429,0.198,0.91,-40.25,17.82,51.85,2,4
17497.531,-0.433,0.178,0.951,-39.83,12.82,49.04,2,4
17497.546,-0.424,0.151,0.959,-37.78,5.04,43.46,2,4
17497.546,-0.417,0.129,0.939,-33.54,-1.46,36.23,2,4
17497.562,-0.414,0.108,0.903,-26.98,-4.58,28.2,2,4
17497.562,-0.436,0.143,0.87,-21.18,-4.46,19.68,2,4
17497.578,-0.467,0.17,0.858,-19.99,-3.2,12.73,2,4
17497.593,-0.484,0.182,0.86,-21.82,-1.83,9.64,2,4
17497.609,-0.479,0.193,0.868,-23.19,-0.92,10.13,2,4
17497.609,-0.472,0.205,0.876,-23.59,-0.06,12.02,2,4
17497.625,-0.476,0.198,0.885,-24.26,0.0,13.61,2,4
17497.625,-0.486,0.205,0.897,-25.3,-1.16,14.68,2,4
17497.64,-0.477,0.185,0.889,-26.43,-3.85,15.66,2,4
17497.656,-0.456,0.176,0.873,-25.97,-5.92,15.81,2,4
17497.656,-0.441,0.174,0.848,-25.21,-6.71,14.5,2,4
17497.671,-0.428,0.173,0.833,-25.54,-6.62,12.48,2,4
17497.671,-0.438,0.177,0.83,-25.76,-5.25,10.47,2,4
17497.687,-0.475,0.185,0.826,-26.95,-3.69,8.18,2,4
17497.703,-0.494,0.184,0.836,-29.66,-2.72,6.84,2,4
17497.703,-0.517,0.181,0.861,-32.26,-1.53,7.02,2,4
17497.718,-0.542,0.167,0.9,-34.97,-1.4,9.37,2,4
17497.734,-0.532,0.15,0.934,-38.79,-3.69,13.89,2,4
17497.734,-0.524,0.127,0.955,-43.0,-7.51,18.01,2,4
17497.75,-0.507,0.087,0.954,-45.72,-12.54,20.11,2,4
17497.765,-0.454,0.049,0.921,-46.08,-16.75,19.47,2,4
17497.765,-0.411,0.018,0.888,-41.84,-17.76,15.47,2,4
17497.781,-0.402,0.01,0.863,-34.49,-15.78,8.12,2,4
17497.796,-0.423,0.032,0.848,-26.49,-12.76,-0.06,2,4
17497.796,-0.455,0.066,0.836,-19.38,-10.38,-6.68,2,4
17497.812,-0.471,0.114,0.818,-13.12,-8.12,-9.37,2,4
17497.812,-0.474,0.17,0.796,-10.07,-5.13,-8.36,2,4
17497.828,-0.475,0.205,0.792,-10.1,-1.77,-4.88,2,4
17497.843,-0.484,0.222,0.805,-10.65,1.62,0.31,2,4
17497.859,-0.496,0.224,0.823,-12.51,4.46,6.84,2,4
17497.859,-0.501,0.205,0.858,-15.35,5.19,13.34,2,4
17497.875,-0.506,0.185,0.877,-16.42,4.18,18.16,2,4
17497.875,-0.502,0.167,0.876,-16.97,2.53,21.55,2,4
17497.89,-0.488,0.155,0.879,-18.31,0.89,23.77,2,4
17497.906,-0.474,0.119,0.883,-17.91,-0.03,23.83,2,4
17497.906,-0.46,0.105,0.88,-15.14,-0.12,21.94,2,4
17497.921,-0.449,0.109,0.879,-13.82,0.09,19.38,2,4
17497.937,-0.441,0.103,0.883,-13.18,-0.12,16.88,2,4
17497.937,-0.448,0.106,0.882,-12.33,0.06,13.92,2,4
17497.953,-0.465,0.109,0.879,-12.15,0.21,11.23,2,4
17497.953,-0.479,0.105,0.882,-11.84,0.21,9.8,2,4
17497.968,-0.486,0.102,0.887,-9.8,0.37,8.76,2,4
17497.984,-0.5,0.107,0.881,-8.21,-0.12,7.87,2,4
17497.984,-0.485,0.114,0.882,-8.39,-1.46,8.18,2,4
17498.0,-0.464,0.107,0.881,-8.48,-1.68,8.73,2,4
17498.015,-0.452,0.104,0.885,-8.76,-1.98,8.91,2,4
17498.015,-0.452,0.1,0.889,-9.89,-2.84,9.67,2,4
17498.031,-0.445,0.089,0.878,-9.83,-3.66,9.95,2,4
17498.031,-0.449,0.087,0.857,-8.58,-3.75,9.0,2,4
17498.046,-0.464,0.091,0.837,-8.3,-3.48,7.66,2,4
17498.062,-0.466,0.076,0.829,-7.75,-2.35,6.81,2,4
17498.062,-0.463,0.078,0.83,-5.62,-0.24,6.26,2,4
17498.078,-0.462,0.088,0.844,-5.07,1.53,6.16,2,4
17498.093,-0.461,0.087,0.885,-6.99,2.32,7.05,2,4
17498.093,-0.473,0.077,0.912,-8.82,-1.13,8.48,2,4
17498.109,-0.469,0.067,0.915,-8.94,-3.72,7.93,2,4
17498.125,-0.459,0.052,0.902,-7.69,-4.7,6.2,2,4
17498.125,-0.459,0.049,0.871,-7.32,-4.55,4.33,2,4
17498.14,-0.465,0.063,0.83,-7.97,-3.36,2.5,2,4
17498.156,-0.464,0.079,0.82,-8.36,-1.25,1.1,2,4
17498.156,-0.463,0.099,0.844,-9.06,0.98,1.1,2,4
17498.171,-0.476,0.11,0.871,-10.07,2.11,1.65,2,4
17498.171,-0.486,0.106,0.891,-9.86,1.77,3.02,2,4
17498.187,-0.486,0.1,0.897,-9.61,0.31,4.94,2,4
17498.203,-0.481,0.091,0.895,-10.41,-1.4,6.78,2,4
17498.203,-0.477,0.07,0.892,-11.17,-2.9,8.24,2,4
17498.218,-0.472,0.051,0.883,-10.65,-3.66,8.36,2,4
17498.234,-0.476,0.042,0.871,-10.19,-3.3,6.96,2,4
17498.234,-0.481,0.044,0.861,-9.58,-2.53,4.49,2,4
17498.25,-0.489,0.057,0.843,-9.0,-1.04,2.59,2,4
17498.265,-0.49,0.061,0.846,-9.31,1.25,2.08,2,4
17498.265,-0.492,0.053,0.853,-7.87,3.72,3.11,2,4
17498.281,-0.486,0.064,0.847,-5.95,5.98,5.16,2,4
17498.296,-0.483,0.067,0.865,-6.2,7.48,7.08,2,4
17498.296,-0.491,0.06,0.884,-7.45,7.2,7.84,2,4
17498.312,-0.483,0.057,0.888,-8.79,5.1,8.0,2,4
17498.312,-0.47,0.05,0.881,-9.16,3.27,7.63,2,4
17498.328,-0.474,0.05,0.876,-8.67,2.87,6.53,2,4
17498.343,-0.476,0.042,0.872,-8.3,2.38,5.52,2,4
17498.343,-0.473,0.029,0.87,-7.35,2.35,4.43,2,4
17498.359,-0.467,0.024,0.874,-5.52,3.08,2.56,2,4
17498.375,-0.476,0.038,0.88,-4.7,3.54,0.15,2,4
17498.375,-0.476,0.048,0.896,-5.4,2.81,-1.28,2,4
17498.39,-0.473,0.06,0.901,-5.98,1.53,-1.65,2,4
17498.406,-0.468,0.064,0.893,-6.01,0.27,-1.19,2,4
17498.406,-0.465,0.064,0.894,-6.1,-0.64,-0.67,2,4
17498.421,-0.473,0.064,0.892,-5.04,-1.19,-0.64,2,4
17498.437,-0.479,0.064,0.881,-3.39,-1.68,-1.01,2,4
17498.437,-0.481,0.071,0.869,-1.86,-1.65,-1.46,2,4
17498.453,-0.469,0.078,0.853,-0.4,-0.73,-1.83,2,4
17498.453,-0.462,0.08,0.851,0.76,1.59,-1.56,2,4
17498.468,-0.468,0.087,0.86,1.74,3.85,-0.7,2,4
17498.484,-0.477,0.092,0.883,1.37,4.91,0.18,2,4
17498.484,-0.486,0.08,0.899,0.24,4.64,1.46,2,4
17498.5,-0.49,0.067,0.912,0.46,3.36,3.11,2,4
17498.515,-0.486,0.054,0.917,0.98,1.56,4.06,2,4
17498.531,-0.483,0.047,0.901,2.17,0.09,4.39,2,4
17498.531,-0.481,0.048,0.884,2.75,-0.43,4.67,2,4
17498.531,-0.489,0.044,0.87,3.27,0.34,4.97,2,4
17498.546,-0.486,0.04,0.875,3.3,1.5,6.1,2,4
17498.562,-0.486,0.022,0.898,3.88,2.99,7.35,2,4
17498.562,-0.495,0.014,0.914,4.06,2.81,7.66,2,4
17498.578,-0.49,0.006,0.921,2.56,1.01,8.12,2,4
17498.593,-0.486,-0.002,0.922,1.92,-0.76,8.55,2,4
17498.609,-0.501,-0.009,0.905,2.41,-1.86,7.97,2,4
17498.609,-0.504,-0.021,0.89,2.41,-2.53,7.17,2,4
17498.625,-0.489,-0.036,0.883,2.96,-2.5,5.74,2,4
17498.625,-0.49,-0.037,0.875,3.88,-1.89,2.72,2,4
17498.64,-0.502,-0.034,0.884,4.0,-1.68,-0.52,2,4
17498.656,-0.505,-0.013,0.882,5.22,-2.11,-3.3,2,4
17498.656,-0.504,0.012,0.868,6.04,-2.17,-5.13,2,4
17498.671,-0.506,0.042,0.859,5.25,-1.98,-5.34,2,4
17498.671,-0.506,0.058,0.852,3.63,-1.89,-3.97,2,4
17498.687,-0.513,0.062,0.855,1.46,-1.89,-1.4,2,4
17498.703,-0.515,0.06,0.858,-0.34,-2.5,1.19,2,4
17498.703,-0.505,0.051,0.858,-0.76,-3.75,3.11,2,4
17498.718,-0.495,0.035,0.856,0.61,-4.49,3.39,2,4
17498.734,-0.496,0.034,0.852,2.62,-4.76,1.5,2,4
17498.734,-0.499,0.045,0.843,3.6,-5.4,-0.82,2,4
17498.75,-0.501,0.064,0.834,4.12,-5.34,-2.47,2,4
17498.765,-0.517,0.083,0.831,4.61,-4.27,-3.42,2,4
17498.765,-0.539,0.096,0.833,5.25,-2.62,-3.14,2,4
17498.781,-0.554,0.106,0.836,5.16,-0.95,-1.25,2,4
17498.796,-0.55,0.112,0.834,4.73,0.24,1.92,2,4
17498.796,-0.522,0.098,0.852,4.03,1.89,4.79,2,4
17498.812,-0.511,0.08,0.877,4.76,4.43,5.65,2,4
17498.828,-0.515,0.069,0.911,5.98,5.65,5.16,2,4
17498.828,-0.511,0.061,0.929,6.53,4.61,4.61,2,4
17498.843,-0.498,0.048,0.927,6.5,2.11,3.57,2,4
17498.843,-0.475,0.028,0.92,7.08,-0.09,1.71,2,4
17498.859,-0.47,0.021,0.907,9.31,-1.62,-1.56,2,4
17498.875,-0.475,0.027,0.88,12.12,-2.9,-5.65,2,4
17498.875,-0.467,0.047,0.851,13.7,-3.39,-9.0,2,4
17498.89,-0.462,0.076,0.831,13.86,-2.75,-10.86,2,4
17498.906,-0.465,0.093,0.827,13.28,-1.31,-11.14,2,4
17498.906,-0.473,0.105,0.837,13.09,0.21,-10.01,2,4
17498.921,-0.486,0.113,0.84,12.88,0.76,-8.09,2,4
17498.937,-0.479,0.109,0.837,11.96,0.24,-5.25,2,4
17498.937,-0.471,0.105,0.834,10.68,0.27,-2.35,2,4
17498.953,-0.467,0.096,0.836,9.0,0.82,-0.31,2,4
17498.953,-0.457,0.076,0.85,7.75,1.16,0.46,2,4
17498.968,-0.458,0.06,0.862,8.64,1.65,-0.15,2,4
17498.984,-0.463,0.059,0.861,10.25,1.62,-1.77,2,4
17498.984,-0.47,0.065,0.87,10.56,1.16,-3.57,2,4
17499.0,-0.483,0.074,0.867,11.2,0.55,-5.07,2,4
17499.015,-0.476,0.086,0.849,11.47,0.0,-5.46,2,4
17499.015,-0.47,0.094,0.837,11.29,0.52,-4.88,2,4
