timestamp,ax,ay,az,gx,gy,gz,orient_label,motion_label
17499.031,-0.484,0.088,0.834,11.23,1.98,-4.27,2,4
17499.046,-0.482,0.072,0.845,10.44,2.9,-3.6,2,4
17499.046,-0.48,0.071,0.852,10.04,3.02,-4.12,2,4
17499.062,-0.475,0.07,0.862,9.43,2.84,-5.4,2,4
17499.078,-0.479,0.078,0.872,9.0,2.38,-6.78,2,4
17499.078,-0.495,0.094,0.878,9.13,1.19,-7.93,2,4
17499.093,-0.494,0.106,0.862,8.33,-1.34,-7.9,2,4
17499.093,-0.487,0.109,0.837,7.97,-0.24,-7.39,2,4
17499.109,-0.491,0.121,0.818,6.5,1.5,-6.56,2,4
17499.125,-0.496,0.129,0.822,5.86,3.2,-5.25,2,4
17499.125,-0.498,0.134,0.834,6.29,4.76,-3.69,2,4
17499.14,-0.5,0.14,0.86,6.23,4.94,-2.44,2,4
17499.156,-0.503,0.134,0.871,5.98,3.88,-1.56,2,4
17499.156,-0.498,0.127,0.86,6.41,2.41,-1.04,2,4
17499.171,-0.481,0.113,0.85,7.32,2.14,-1.46,2,4
17499.171,-0.488,0.1,0.847,8.94,3.14,-3.48,2,4
17499.187,-0.507,0.094,0.843,10.25,3.97,-6.41,2,4
17499.218,-0.505,0.114,0.854,10.41,4.33,-11.84,2,4
17499.218,-0.495,0.11,0.862,10.93,3.94,-13.64,2,4
17499.234,-0.489,0.114,0.866,13.15,4.12,-15.75,2,4
17499.234,-0.508,0.131,0.857,14.71,4.15,-18.01,2,4
17499.25,-0.514,0.144,0.845,14.1,3.27,-18.56,2,4
17499.265,-0.513,0.162,0.834,13.06,2.9,-17.4,2,4
17499.265,-0.527,0.182,0.826,11.51,2.87,-15.17,2,4
17499.281,-0.524,0.184,0.826,10.04,3.02,-11.57,2,4
17499.296,-0.525,0.198,0.818,9.77,3.63,-7.11,2,4
17499.296,-0.529,0.2,0.813,8.15,4.24,-2.66,2,4
17499.312,-0.523,0.184,0.826,5.58,4.49,1.46,2,4
17499.328,-0.515,0.165,0.839,4.7,4.21,4.0,2,4
17499.328,-0.507,0.143,0.84,4.61,3.6,5.25,2,4
17499.343,-0.486,0.119,0.851,5.01,3.11,4.91,2,4
17499.343,-0.487,0.112,0.848,6.1,2.44,2.23,2,4
17499.359,-0.488,0.104,0.84,6.71,1.59,-1.71,2,4
17499.375,-0.501,0.127,0.803,12.15,3.17,-9.77,2,4
17499.39,-0.514,0.154,0.794,12.45,5.13,-11.87,2,4
17499.406,-0.52,0.175,0.789,11.47,7.17,-11.63,2,4
17499.406,-0.513,0.19,0.794,9.95,9.61,-9.43,2,4
17499.421,-0.519,0.202,0.818,8.67,11.38,-6.16,2,4
17499.421,-0.518,0.204,0.843,8.18,11.69,-2.41,2,4
17499.437,-0.508,0.202,0.861,7.23,10.28,1.62,2,4
17499.453,-0.503,0.188,0.869,6.04,8.09,4.82,2,4
17499.453,-0.494,0.17,0.864,5.92,6.35,6.78,2,4
17499.468,-0.489,0.164,0.847,6.87,5.55,7.11,2,4
17499.484,-0.493,0.163,0.831,7.39,5.8,6.44,2,4
17499.484,-0.498,0.165,0.818,7.66,6.9,5.58,2,4
17499.5,-0.499,0.161,0.813,8.7,8.76,4.3,2,4
17499.515,-0.5,0.163,0.818,10.16,10.9,2.41,2,4
17499.515,-0.509,0.177,0.829,11.02,12.33,0.92,2,4
17499.531,-0.516,0.19,0.825,11.44,12.97,0.55,2,4
17499.546,-0.533,0.207,0.797,11.08,15.14,1.92,2,4
17499.562,-0.541,0.217,0.767,11.32,17.27,3.69,2,4
17499.562,-0.554,0.225,0.732,11.44,20.97,5.95,2,4
17499.578,-0.568,0.235,0.699,11.17,26.55,8.76,2,4
17499.593,-0.595,0.248,0.678,9.83,33.23,11.81,2,4
17499.593,-0.624,0.257,0.656,7.02,39.74,15.44,2,4
17499.609,-0.641,0.261,0.624,2.87,47.0,20.05,2,4
17499.625,-0.654,0.255,0.605,-1.65,55.67,25.76,2,4
17499.625,-0.667,0.243,0.65,-4.94,65.28,31.01,2,4
17499.64,-0.715,0.213,0.693,-2.04,74.74,34.61,2,4
17499.656,-0.75,0.211,0.716,0.89,79.38,36.9,2,4
17499.671,-0.746,0.207,0.707,1.65,80.75,39.0,2,4
17499.671,-0.729,0.212,0.674,0.89,82.77,41.69,2,4
17499.687,-0.705,0.23,0.632,-2.62,87.22,45.23,2,4
17499.687,-0.686,0.257,0.583,-9.83,95.07,50.78,2,4
17499.703,-0.662,0.285,0.522,-20.97,107.3,59.54,2,4
17499.718,-0.66,0.288,0.455,-47.76,144.81,82.8,2,4
17499.734,-0.731,0.341,0.485,-61.86,160.77,90.91,2,4
17499.75,-0.975,0.276,0.596,-80.78,170.81,98.27,2,4
17499.75,-1.083,0.223,0.743,-103.67,163.64,114.78,2,4
17499.765,-1.08,0.231,0.759,-118.93,141.82,129.28,2,4
17499.781,-1.029,0.21,0.681,-132.63,119.85,141.36,2,4
17499.781,-0.954,0.209,0.571,-147.53,104.56,152.07,2,4
17499.796,-0.892,0.221,0.457,-161.29,99.19,162.11,2,4
17499.796,-0.859,0.202,0.378,-175.51,103.34,171.85,2,4
17499.812,-0.839,0.115,0.361,-185.8,110.14,177.28,2,4
17499.828,-0.84,0.062,0.35,-187.2,120.98,179.97,2,4
17499.828,-0.855,0.057,0.337,-183.72,135.53,180.3,2,4
17499.843,-0.903,0.062,0.339,-177.95,149.08,176.61,2,4
17499.859,-0.999,0.106,0.392,-173.19,155.77,170.96,2,4
17499.859,-1.046,0.14,0.417,-172.28,152.01,165.44,2,4
17499.875,-1.061,0.187,0.423,-178.04,142.95,160.44,2,4
17499.89,-1.073,0.221,0.424,-186.35,132.54,156.83,2,4
17499.89,-1.084,0.223,0.413,-194.74,120.7,155.37,2,4
17499.906,-1.064,0.226,0.387,-201.03,109.68,154.94,2,4
17499.906,-1.023,0.231,0.345,-201.79,104.07,155.1,2,4
17499.921,-0.983,0.231,0.309,-195.78,105.5,156.68,2,4
17499.937,-0.944,0.239,0.269,-185.77,113.1,159.25,2,4
17499.937,-0.959,0.264,0.252,-174.08,124.7,162.11,2,4
17499.953,-0.991,0.3,0.247,-163.67,134.4,165.14,2,4
17499.968,-1.003,0.342,0.25,-157.41,139.26,168.46,2,4
17499.968,-1.014,0.398,0.241,-155.37,141.58,171.85,2,4
17499.984,-1.031,0.451,0.238,-159.03,139.84,176.03,2,4
17499.984,-1.01,0.492,0.247,-168.89,131.66,181.07,2,4
17500.0,-0.975,0.514,0.25,-180.64,121.95,186.19,2,4
17500.015,-0.935,0.513,0.256,-191.9,113.8,190.19,2,4
17500.015,-0.894,0.502,0.279,-199.77,106.08,193.61,2,4
17500.031,-0.847,0.483,0.294,-201.42,100.59,196.45,2,4
17500.046,-0.772,0.489,0.303,-192.36,96.01,201.85,2,4
17500.062,-0.759,0.498,0.309,-185.86,96.26,203.68,2,4
17500.078,-0.747,0.501,0.32,-179.3,87.77,205.69,2,4
17500.078,-0.712,0.496,0.338,-174.08,82.06,204.17,2,4
17500.093,-0.689,0.482,0.361,-165.41,75.66,200.84,2,4
17500.109,-0.662,0.464,0.381,-155.83,69.0,195.68,2,4
17500.109,-0.617,0.475,0.434,-148.75,63.69,190.31,2,4
17500.125,-0.613,0.453,0.447,-135.07,57.28,186.07,2,4
17500.14,-0.608,0.463,0.447,-123.81,50.02,182.5,2,4
17500.14,-0.579,0.507,0.455,-118.41,42.91,179.88,2,4
17500.156,-0.557,0.529,0.462,-116.31,36.41,177.34,2,4
17500.156,-0.552,0.551,0.477,-116.79,31.37,175.42,2,4
17500.171,-0.538,0.557,0.493,-118.9,27.34,173.99,2,4
17500.171,-0.532,0.545,0.515,-119.39,23.74,172.86,2,4
17500.187,-0.537,0.544,0.542,-117.8,20.57,173.07,2,4
17500.203,-0.538,0.556,0.566,-116.67,17.15,173.77,2,4
17500.218,-0.538,0.568,0.589,-117.56,13.34,174.75,2,4
17500.218,-0.551,0.576,0.623,-118.99,8.58,175.15,2,4
17500.234,-0.559,0.564,0.651,-120.55,2.93,175.66,2,4
17500.234,-0.547,0.541,0.668,-121.98,-3.54,176.06,2,4
17500.25,-0.529,0.514,0.681,-121.68,-9.28,175.91,2,4
17500.265,-0.506,0.478,0.691,-118.44,-12.24,174.08,2,4
17500.265,-0.495,0.466,0.693,-112.55,-13.7,169.99,2,4
17500.281,-0.483,0.453,0.698,-106.91,-14.5,164.28,2,4
17500.296,-0.48,0.436,0.706,-101.78,-14.86,156.62,2,4
17500.296,-0.481,0.429,0.708,-96.65,-15.66,148.93,2,4
17500.312,-0.473,0.425,0.699,-94.06,-17.21,141.67,2,4
17500.328,-0.464,0.409,0.683,-91.31,-19.29,133.85,2,4
17500.328,-0.454,0.39,0.681,-88.2,-20.91,126.19,2,4
17500.343,-0.446,0.385,0.681,-83.1,-21.76,119.21,2,4
17500.343,-0.437,0.388,0.673,-77.0,-22.28,113.38,2,4
17500.359,-0.413,0.394,0.665,-72.12,-22.25,108.22,2,4
17500.375,-0.376,0.408,0.652,-68.7,-18.56,97.14,2,4
17500.39,-0.364,0.413,0.66,-69.77,-15.32,91.16,2,4
17500.406,-0.35,0.425,0.681,-70.62,-11.08,85.21,2,4
17500.406,-0.35,0.433,0.717,-69.03,-5.49,79.65,2,4
17500.421,-0.357,0.435,0.759,-65.03,-0.03,73.89,2,4
17500.437,-0.367,0.453,0.807,-59.36,4.18,67.9,2,4
17500.437,-0.396,0.484,0.855,-53.13,6.35,62.75,2,4
17500.453,-0.417,0.491,0.884,-46.66,4.79,59.33,2,4
17500.453,-0.406,0.496,0.904,-42.18,0.06,56.98,2,4
17500.468,-0.381,0.514,0.902,-40.22,-4.46,54.99,2,4
17500.484,-0.362,0.515,0.889,-40.65,-7.66,53.35,2,4
17500.5,-0.337,0.496,0.874,-42.57,-10.01,52.03,2,4
17500.5,-0.312,0.478,0.861,-43.4,-10.1,51.3,2,4
17500.515,-0.289,0.459,0.85,-42.79,-8.03,49.75,2,4
17500.515,-0.276,0.457,0.852,-41.93,-4.27,47.36,2,4
17500.531,-0.287,0.449,0.868,-41.6,-0.82,44.22,2,4
17500.546,-0.295,0.431,0.885,-40.93,0.06,40.5,2,4
17500.546,-0.292,0.409,0.895,-38.94,-0.67,36.5,2,4
17500.562,-0.278,0.383,0.882,-34.3,-1.77,32.14,2,4
17500.578,-0.268,0.367,0.86,-27.68,-1.83,27.28,2,4
17500.578,-0.265,0.364,0.841,-21.79,-0.67,21.64,2,4
17500.593,-0.253,0.375,0.836,-18.43,0.67,15.44,2,4
17500.593,-0.251,0.391,0.838,-16.94,3.36,9.25,2,4
17500.609,-0.26,0.4,0.847,-14.98,7.87,4.18,2,4
17500.625,-0.268,0.403,0.864,-11.81,12.45,0.95,2,4
17500.64,-0.287,0.419,0.887,-7.66,14.77,-0.92,2,4
17500.64,-0.294,0.427,0.897,-2.72,14.98,-1.25,2,4
17500.656,-0.279,0.44,0.888,1.07,14.31,-1.37,2,4
17500.656,-0.26,0.463,0.866,2.44,13.82,-2.23,2,4
17500.671,-0.25,0.469,0.843,2.5,13.46,-3.63,2,4
17500.687,-0.257,0.478,0.83,1.59,13.61,-5.01,2,4
17500.687,-0.26,0.485,0.827,0.49,13.4,-5.55,2,4
17500.703,-0.263,0.49,0.821,-0.4,13.06,-5.13,2,4
17500.703,-0.271,0.501,0.821,-2.17,12.79,-3.97,2,4
17500.718,-0.275,0.503,0.821,-5.89,11.57,-3.02,2,4
17500.734,-0.271,0.496,0.821,-13.28,8.85,-3.69,2,4
17500.734,-0.256,0.489,0.828,-23.13,4.79,-6.35,2,4
17500.75,-0.238,0.47,0.835,-31.62,0.64,-9.83,2,4
17500.765,-0.225,0.443,0.836,-35.07,-1.77,-12.7,2,4
17500.765,-0.213,0.431,0.842,-32.99,-1.77,-14.28,2,4
17500.781,-0.215,0.438,0.845,-26.25,0.31,-15.05,2,4
17500.796,-0.261,0.502,0.872,-17.82,2.2,-11.81,2,4
17500.796,-0.247,0.558,0.911,-15.41,0.18,-6.1,2,4
17500.812,-0.231,0.55,0.902,-16.39,-4.09,-3.45,2,4
17500.812,-0.225,0.54,0.885,-18.86,-6.71,-2.62,2,4
17500.828,-0.202,0.528,0.864,-18.31,-8.09,-0.95,2,4
17500.843,-0.126,0.474,0.802,-13.61,-6.47,0.43,2,4
17500.859,-0.165,0.402,0.768,-6.16,2.08,-3.36,2,4
17500.859,-0.295,0.538,0.891,-6.65,6.29,-4.46,2,4
17500.875,-0.223,0.575,0.922,-11.35,-2.81,0.64,2,4
17500.875,-0.204,0.511,0.865,-13.0,-7.45,1.56,2,4
17500.89,-0.191,0.486,0.855,-16.21,-7.17,4.03,2,4
17500.906,-0.177,0.449,0.845,-11.69,-5.22,5.62,2,4
17500.906,-0.184,0.436,0.858,-3.57,-2.17,5.65,2,4
17500.921,-0.194,0.458,0.895,3.05,-0.52,4.88,2,4
17500.937,-0.21,0.483,0.931,6.9,-1.68,4.12,2,4
17500.937,-0.213,0.487,0.958,9.31,-5.71,4.82,2,4
17500.953,-0.206,0.48,0.962,12.18,-10.25,6.29,2,4
17500.968,-0.216,0.476,0.968,16.45,-14.47,7.78,2,4
17500.968,-0.212,0.475,0.975,19.65,-20.26,9.22,2,4
17500.984,-0.189,0.468,0.957,20.91,-26.76,9.28,2,4
17500.984,-0.184,0.482,0.922,19.14,-31.19,7.29,2,4
17501.0,-0.15,0.526,0.897,14.25,-34.33,7.08,2,4
17501.015,-0.06,0.453,0.816,14.83,-33.23,6.29,2,4
17501.031,-0.136,0.435,0.802,15.59,-25.18,2.47,2,4
17501.031,-0.13,0.526,0.854,7.05,-23.41,3.51,2,4
17501.031,-0.107,0.491,0.848,3.54,-24.72,4.64,2,4
17501.046,-0.111,0.444,0.83,1.34,-24.69,4.52,2,4
17501.062,-0.089,0.448,0.822,1.92,-19.56,4.21,2,4
17501.078,-0.075,0.443,0.812,6.38,-14.16,3.57,2,4
17501.078,-0.075,0.425,0.8,11.11,-8.64,2.78,2,4
17501.093,-0.084,0.437,0.791,12.91,-3.78,1.25,2,4
17501.093,-0.087,0.44,0.788,11.72,-0.12,-1.1,2,4
17501.109,-0.095,0.438,0.787,8.91,2.93,-3.72,2,4
17501.125,-0.106,0.438,0.797,6.62,5.8,-5.52,2,4
17501.125,-0.109,0.43,0.811,3.45,7.29,-6.1,2,4
17501.14,-0.103,0.437,0.838,-2.53,7.08,-6.53,2,4
17501.156,-0.105,0.431,0.862,-7.05,5.98,-7.72,2,4
17501.156,-0.111,0.418,0.879,-8.36,4.7,-8.67,2,4
17501.171,-0.111,0.424,0.89,-5.95,3.75,-9.06,2,4
17501.171,-0.117,0.439,0.892,-0.73,3.08,-9.77,2,4
17501.187,-0.121,0.454,0.889,3.94,2.04,-10.32,2,4
17501.203,-0.121,0.478,0.883,6.44,1.04,-10.86,2,4
17501.203,-0.129,0.501,0.876,6.96,0.24,-10.65,2,4
17501.218,-0.14,0.532,0.874,5.77,-1.01,-8.21,2,4
17501.234,-0.129,0.549,0.868,3.23,-1.86,-3.63,2,4
17501.234,-0.125,0.545,0.86,-1.04,-1.95,-0.21,2,4
17501.25,-0.128,0.531,0.87,-5.55,-1.59,2.41,2,4
17501.265,-0.129,0.507,0.885,-8.0,-1.89,4.49,2,4
17501.265,-0.133,0.483,0.894,-7.9,-2.62,5.62,2,4
17501.281,-0.125,0.469,0.896,-6.87,-3.81,5.92,2,4
17501.296,-0.116,0.462,0.886,-4.7,-4.85,4.55,2,4
17501.296,-0.113,0.457,0.871,-2.14,-4.82,2.14,2,4
17501.312,-0.112,0.465,0.86,0.09,-3.91,0.18,2,4
17501.312,-0.115,0.481,0.848,1.92,-2.29,-0.98,2,4
17501.328,-0.124,0.493,0.84,2.72,-0.27,-1.37,2,4
17501.343,-0.136,0.494,0.837,2.62,1.28,-0.64,2,4
17501.343,-0.142,0.496,0.84,1.56,1.77,0.89,2,4
17501.359,-0.145,0.497,0.843,-0.12,1.8,2.08,2,4
17501.375,-0.153,0.499,0.853,-2.44,1.25,2.38,2,4
17501.375,-0.154,0.493,0.86,-4.0,-0.15,2.78,2,4
17501.406,-0.147,0.484,0.866,-3.2,-2.96,3.85,2,4
17501.406,-0.137,0.479,0.857,-1.59,-3.75,4.0,2,4
17501.421,-0.131,0.476,0.846,-0.58,-3.57,3.75,2,4
17501.437,-0.125,0.472,0.832,-0.34,-2.62,3.2,2,4
17501.437,-0.125,0.466,0.825,-0.55,-1.43,2.23,2,4
17501.453,-0.122,0.46,0.823,-1.53,-0.46,1.13,2,4
17501.453,-0.121,0.453,0.823,-2.32,0.79,0.06,2,4
17501.468,-0.123,0.442,0.833,-1.92,2.17,-1.31,2,4
17501.484,-0.123,0.422,0.84,0.58,3.08,-3.23,2,4
17501.484,-0.114,0.397,0.842,4.49,3.97,-6.41,2,4
17501.5,-0.115,0.375,0.85,9.98,5.13,-11.14,2,4
17501.515,-0.103,0.347,0.865,17.88,5.46,-18.28,2,4
17501.515,-0.071,0.318,0.857,31.4,7.05,-27.28,2,4
17501.531,-0.074,0.281,0.838,52.61,12.82,-37.11,2,4
17501.546,-0.244,0.504,0.915,64.3,17.33,-42.88,2,4
17501.546,-0.226,0.774,0.997,55.48,7.97,-34.55,2,4
17501.562,-0.143,0.767,0.895,22.89,-10.5,-3.81,2,4
17501.578,-0.124,0.676,0.868,0.73,-11.63,6.62,2,4
17501.593,-0.161,0.563,0.859,-9.55,-11.41,11.11,2,4
17501.609,-0.169,0.49,0.87,-9.92,-13.58,11.99,2,4
17501.609,-0.166,0.459,0.864,-2.41,-17.37,9.25,2,4
17501.625,-0.157,0.462,0.843,7.72,-20.72,5.01,2,4
17501.625,-0.157,0.479,0.835,15.11,-22.28,0.58,2,4
17501.64,-0.176,0.554,0.837,15.93,-25.09,-2.04,2,4
17501.656,-0.051,0.552,0.764,13.82,-26.4,-0.55,2,4
17501.656,-0.114,0.494,0.741,14.8,-18.34,-2.69,2,4
17501.671,-0.12,0.553,0.777,6.62,-13.67,-1.43,2,4
17501.671,-0.094,0.516,0.768,0.09,-11.99,-0.64,2,4
17501.687,-0.114,0.522,0.816,-12.18,-11.96,-3.27,2,4
17501.703,-0.103,0.508,0.81,-12.85,-10.38,0.76,2,4
17501.718,-0.094,0.492,0.798,-9.0,-7.72,3.72,2,4
17501.718,-0.094,0.508,0.814,-7.54,-4.0,5.77,2,4
17501.734,-0.096,0.501,0.814,-2.84,0.95,7.26,2,4
17501.75,-0.097,0.501,0.815,-1.28,3.08,7.78,2,4
17501.765,-0.102,0.51,0.816,-0.64,4.67,7.54,2,4
17501.765,-0.115,0.516,0.826,-1.53,5.37,6.99,2,4
17501.781,-0.128,0.518,0.842,-3.6,3.91,6.16,2,4
17501.781,-0.122,0.513,0.843,-6.16,0.95,5.43,2,4
17501.796,-0.112,0.501,0.833,-7.05,-1.1,4.61,2,4
17501.812,-0.097,0.486,0.817,-5.71,-1.19,3.66,2,4
17501.812,-0.088,0.473,0.803,-2.5,0.95,2.35,2,4
17501.828,-0.084,0.464,0.79,1.98,4.52,0.18,2,4
17501.843,-0.08,0.456,0.777,7.2,8.91,-2.38,2,4
17501.859,-0.08,0.459,0.772,12.6,14.62,-5.13,2,4
17501.859,-0.102,0.474,0.781,16.72,20.33,-8.15,2,4
17501.875,-0.137,0.49,0.793,18.65,23.68,-10.8,2,4
17501.875,-0.194,0.495,0.838,17.85,23.04,-12.91,2,4
17501.89,-0.206,0.568,0.909,8.7,15.41,-12.6,2,4
17501.906,-0.145,0.496,0.858,8.7,2.66,-9.7,2,4
17501.921,-0.11,0.458,0.865,12.45,2.87,-12.05,2,4
17501.921,-0.047,0.405,0.829,24.93,6.5,-18.13,2,4
17501.937,-0.111,0.325,0.815,45.84,16.3,-28.9,2,4
17501.953,-0.26,0.51,0.964,59.05,19.9,-36.77,2,4
17501.968,-0.24,0.699,1.004,67.32,10.47,-31.65,2,4
17501.968,-0.235,0.738,0.942,72.12,0.64,-23.13,2,4
17501.984,-0.165,0.779,0.882,60.49,-5.83,-12.91,2,4
17502.0,-0.143,0.757,0.818,44.37,-6.74,-6.59,2,4
17502.0,-0.162,0.69,0.791,29.33,-5.8,-2.32,2,4
17502.015,-0.188,0.645,0.79,19.78,-5.65,1.13,2,4
17502.015,-0.219,0.603,0.801,15.08,-7.84,3.57,2,4
17502.031,-0.211,0.566,0.791,13.89,-12.7,5.13,2,4
17502.046,-0.208,0.575,0.783,14.31,-20.33,4.27,2,4
17502.046,-0.177,0.626,0.766,16.75,-18.19,3.51,2,4
17502.062,-0.088,0.555,0.687,18.43,-8.73,-1.25,2,4
17502.078,-0.142,0.595,0.725,11.2,0.0,-4.43,2,4
17502.093,-0.159,0.587,0.744,9.95,2.81,-5.37,2,4
17502.109,-0.164,0.601,0.758,11.29,4.88,-4.27,2,4
17502.109,-0.177,0.623,0.769,12.15,5.34,-4.03,2,4
17502.125,-0.21,0.64,0.789,12.76,4.21,-2.62,2,4
17502.125,-0.223,0.662,0.795,11.2,-0.06,0.15,2,4
17502.14,-0.205,0.676,0.793,6.78,-5.1,3.72,2,4
17502.156,-0.198,0.672,0.786,1.62,-8.3,6.01,2,4
17502.156,-0.195,0.661,0.788,-1.65,-9.25,7.93,2,4
17502.171,-0.195,0.648,0.791,-2.26,-8.79,8.94,2,4
17502.171,-0.197,0.635,0.793,-0.92,-6.99,9.0,2,4
17502.187,-0.21,0.618,0.794,2.93,-4.61,7.51,2,4
17502.203,-0.229,0.609,0.8,7.57,-2.44,4.85,2,4
17502.203,-0.24,0.603,0.805,12.24,-1.62,1.1,2,4
17502.218,-0.249,0.599,0.812,16.39,-1.95,-4.0,2,4
17502.234,-0.254,0.591,0.819,20.75,-3.23,-10.22,2,4
17502.25,-0.255,0.602,0.827,34.79,-5.68,-22.16,2,4
17502.265,-0.244,0.624,0.828,41.05,-6.68,-27.31,2,4
17502.265,-0.233,0.642,0.84,45.75,-6.59,-31.43,2,4
17502.281,-0.235,0.663,0.863,49.71,-6.44,-34.82,2,4
17502.296,-0.232,0.677,0.883,53.16,-7.48,-36.81,2,4
17502.296,-0.224,0.695,0.905,56.22,-10.13,-38.36,2,4
17502.312,-0.204,0.704,0.915,59.11,-14.77,-39.8,2,4
17502.328,-0.184,0.708,0.931,60.15,-20.02,-41.57,2,4
17502.328,-0.174,0.697,0.926,62.07,-25.61,-44.1,2,4
17502.343,-0.151,0.681,0.916,65.03,-32.01,-46.97,2,4
17502.343,-0.133,0.683,0.904,69.03,-37.81,-50.75,2,4
17502.359,-0.121,0.682,0.888,73.79,-42.66,-56.03,2,4
17502.375,-0.116,0.675,0.866,79.78,-46.33,-62.07,2,4
17502.375,-0.119,0.676,0.841,87.8,-49.01,-68.39,2,4
17502.39,-0.127,0.679,0.804,96.26,-51.18,-74.62,2,4
17502.406,-0.136,0.68,0.759,104.13,-53.16,-80.54,2,4
17502.406,-0.155,0.68,0.72,111.42,-55.3,-86.0,2,4
17502.421,-0.182,0.677,0.686,117.95,-57.77,-90.4,2,4
17502.437,-0.204,0.676,0.664,122.71,-61.13,-93.36,2,4
17502.437,-0.213,0.683,0.651,125.03,-65.71,-95.4,2,4
17502.453,-0.218,0.699,0.626,127.02,-70.04,-97.29,2,4
17502.453,-0.241,0.742,0.577,128.82,-72.02,-97.9,2,4
17502.468,-0.258,0.792,0.539,126.16,-72.79,-95.92,2,4
17502.484,-0.257,0.815,0.507,121.22,-72.45,-91.8,2,4
17502.484,-0.26,0.826,0.471,117.22,-69.64,-85.57,2,4
17502.5,-0.262,0.828,0.44,114.08,-64.42,-78.86,2,4
17502.515,-0.283,0.79,0.426,113.35,-57.22,-71.99,2,4
17502.515,-0.256,0.78,0.417,118.63,-48.86,-63.91,2,4
17502.531,-0.288,0.825,0.388,125.06,-40.89,-61.25,2,4
17502.546,-0.293,0.803,0.391,124.21,-37.29,-60.0,2,4
17502.546,-0.296,0.788,0.421,118.99,-35.92,-59.63,2,4
17502.562,-0.301,0.782,0.42,115.45,-35.89,-59.24,2,4
17502.578,-0.3,0.843,0.39,110.17,-36.26,-58.57,2,4
17502.593,-0.3,0.841,0.378,106.85,-36.53,-58.08,2,4
17502.593,-0.287,0.84,0.356,105.23,-35.98,-56.4,2,4
17502.609,-0.271,0.842,0.335,106.57,-33.97,-55.48,2,4
17502.625,-0.269,0.832,0.32,110.93,-30.52,-55.67,2,4
17502.625,-0.282,0.817,0.308,117.59,-26.83,-56.55,2,4
17502.64,-0.299,0.803,0.306,127.17,-25.09,-58.87,2,4
17502.656,-0.296,0.804,0.293,139.32,-24.78,-61.71,2,4
17502.656,-0.299,0.825,0.28,150.52,-25.24,-66.35,2,4
17502.671,-0.328,0.846,0.274,160.8,-27.34,-72.88,2,4
17502.687,-0.365,0.851,0.256,172.43,-31.43,-79.04,2,4
17502.687,-0.397,0.911,0.215,182.9,-35.98,-82.61,2,4
17502.703,-0.407,0.958,0.165,190.19,-41.47,-83.71,2,4
17502.718,-0.415,0.985,0.117,194.95,-46.11,-85.15,2,4
17502.718,-0.432,0.965,0.067,197.49,-49.47,-84.9,2,4
17502.734,-0.436,0.956,0.015,198.68,-51.76,-84.08,2,4
17502.75,-0.482,0.927,-0.044,204.57,-52.92,-85.12,2,4
17502.765,-0.506,0.9,-0.07,205.6,-55.94,-85.94,2,4
17502.765,-0.536,0.912,-0.112,206.92,-58.17,-84.87,2,4
17502.781,-0.57,0.956,-0.181,205.18,-58.99,-79.41,2,4
17502.796,-0.559,0.945,-0.242,196.02,-59.36,-70.68,2,4
17502.796,-0.535,0.947,-0.288,184.36,-56.34,-61.49,2,4
17502.812,-0.56,0.929,-0.328,172.52,-49.23,-52.61,2,4
17502.828,-0.56,0.874,-0.331,159.79,-42.7,-43.61,2,4
17502.828,-0.557,0.84,-0.337,150.12,-36.01,-36.29,2,4
17502.843,-0.582,0.807,-0.342,143.01,-28.26,-30.3,2,4
17502.859,-0.593,0.777,-0.324,137.76,-23.74,-26.46,2,4
17502.859,-0.589,0.754,-0.315,133.52,-21.06,-23.83,2,4
17502.875,-0.576,0.73,-0.334,128.73,-18.74,-22.34,2,4
17502.875,-0.561,0.714,-0.35,123.78,-15.87,-22.55,2,4
17502.89,-0.553,0.694,-0.359,119.33,-12.12,-23.59,2,4
17502.906,-0.537,0.662,-0.364,115.45,-8.55,-25.27,2,4
17502.906,-0.529,0.627,-0.36,113.65,-3.66,-26.98,2,4
17502.921,-0.538,0.615,-0.348,114.41,1.37,-28.47,2,4
17502.937,-0.545,0.587,-0.338,115.33,4.85,-30.3,2,4
17502.937,-0.54,0.561,-0.327,114.69,5.95,-33.2,2,4
17502.953,-0.526,0.536,-0.326,113.99,5.89,-36.99,2,4
17502.953,-0.516,0.495,-0.322,114.75,5.49,-42.54,2,4
17502.968,-0.509,0.45,-0.321,119.05,5.74,-51.36,2,4
17502.984,-0.513,0.453,-0.332,124.97,6.04,-60.85,2,4
17502.984,-0.526,0.47,-0.363,128.27,6.07,-68.24,2,4
17503.0,-0.525,0.48,-0.391,127.11,6.13,-72.48,2,4
17503.015,-0.516,0.479,-0.425,123.81,8.33,-73.85,2,4
17503.015,-0.529,0.483,-0.443,115.88,16.02,-72.42,2,4
17503.031,-0.533,0.481,-0.436,112.61,17.49,-71.93,2,4
17503.046,-0.52,0.458,-0.423,112.55,18.71,-72.45,2,4
17503.046,-0.521,0.445,-0.41,113.8,17.21,-72.57,2,4
17503.062,-0.578,0.446,-0.376,113.25,11.47,-72.24,2,4
17503.078,-0.631,0.438,-0.442,106.88,-5.65,-67.69,2,4
17503.093,-0.615,0.404,-0.48,101.05,-12.42,-63.17,2,4
17503.093,-0.604,0.383,-0.525,96.93,-14.59,-60.03,2,4
17503.109,-0.601,0.37,-0.562,92.96,-13.15,-56.92,2,4
17503.125,-0.586,0.36,-0.573,87.77,-10.35,-53.41,2,4
17503.125,-0.585,0.369,-0.563,82.61,-5.8,-49.35,2,4
17503.14,-0.61,0.368,-0.551,77.27,-2.56,-44.86,2,4
17503.156,-0.652,0.378,-0.528,69.61,-2.04,-38.85,2,4
17503.156,-0.7,0.374,-0.51,60.95,-3.51,-30.79,2,4
17503.171,-0.718,0.351,-0.513,54.38,-7.2,-23.41,2,4
17503.171,-0.755,0.322,-0.507,51.03,-11.38,-19.56,2,4
17503.187,-0.775,0.316,-0.508,49.07,-17.55,-18.25,2,4
17503.203,-0.76,0.306,-0.532,48.16,-24.05,-17.61,2,4
17503.203,-0.705,0.309,-0.577,48.68,-27.41,-16.02,2,4
17503.218,-0.662,0.327,-0.628,49.32,-26.67,-15.78,2,4
17503.234,-0.668,0.31,-0.664,47.46,-21.39,-15.9,2,4
17503.25,-0.699,0.296,-0.668,43.98,-15.08,-15.93,2,4
17503.25,-0.738,0.29,-0.657,42.6,-10.99,-17.85,2,4
17503.265,-0.788,0.304,-0.627,42.85,-9.58,-20.29,2,4
17503.265,-0.826,0.312,-0.617,43.28,-12.05,-20.02,2,4
17503.281,-0.825,0.344,-0.638,44.01,-15.47,-15.53,2,4
17503.296,-0.812,0.375,-0.688,43.46,-18.22,-9.67,2,4
17503.296,-0.801,0.358,-0.736,38.15,-18.68,-3.48,2,4
17503.312,-0.772,0.329,-0.769,31.59,-16.14,1.04,2,4
17503.328,-0.759,0.304,-0.788,28.87,-9.55,3.51,2,4
17503.328,-0.757,0.286,-0.797,30.06,-1.34,4.91,2,4
17503.343,-0.741,0.291,-0.791,31.19,6.32,6.26,2,4
17503.343,-0.747,0.302,-0.785,29.94,12.94,7.29,2,4
17503.359,-0.769,0.287,-0.763,26.92,16.91,7.9,2,4
17503.375,-0.777,0.282,-0.732,24.08,17.49,8.48,2,4
17503.375,-0.761,0.278,-0.72,21.79,15.72,9.55,2,4
17503.39,-0.733,0.273,-0.724,19.78,14.07,10.83,2,4
17503.406,-0.708,0.275,-0.733,18.16,14.37,12.54,2,4
17503.406,-0.689,0.275,-0.736,15.35,15.56,14.28,2,4
17503.421,-0.685,0.274,-0.731,11.29,17.58,15.53,2,4
17503.437,-0.677,0.245,-0.712,8.3,19.75,15.29,2,4
17503.437,-0.676,0.22,-0.678,10.44,21.67,12.27,2,4
17503.453,-0.675,0.212,-0.655,17.88,22.37,7.72,2,4
17503.468,-0.671,0.234,-0.652,27.13,22.43,3.66,2,4
17503.468,-0.681,0.263,-0.662,32.56,21.58,1.19,2,4
17503.484,-0.695,0.287,-0.666,32.07,18.98,0.15,2,4
17503.484,-0.706,0.301,-0.658,27.77,15.17,1.34,2,4
17503.5,-0.686,0.287,-0.658,23.01,10.93,4.76,2,4
17503.515,-0.661,0.277,-0.678,21.82,9.49,8.88,2,4
17503.531,-0.64,0.266,-0.706,22.52,10.56,12.24,2,4
17503.531,-0.609,0.255,-0.721,22.46,12.36,13.55,2,4
17503.546,-0.581,0.229,-0.733,23.59,14.22,11.9,2,4
17503.546,-0.556,0.209,-0.746,27.5,14.95,7.08,2,4
17503.562,-0.54,0.204,-0.771,34.91,13.95,-0.73,2,4
17503.578,-0.591,0.233,-0.848,56.12,10.28,-20.81,2,4
17503.593,-0.62,0.273,-0.892,61.77,8.45,-29.73,2,4
17503.593,-0.6,0.291,-0.932,61.01,6.5,-36.65,2,4
17503.609,-0.553,0.312,-0.943,54.81,6.93,-38.82,2,4
17503.625,-0.529,0.302,-0.953,47.21,10.59,-35.16,2,4
17503.625,-0.574,0.282,-0.916,39.0,14.5,-27.07,2,4
17503.64,-0.684,0.249,-0.868,35.95,17.18,-17.88,2,4
17503.656,-0.815,0.222,-0.844,38.91,17.58,-9.58,2,4
17503.656,-0.942,0.214,-0.875,44.89,15.66,-2.35,2,4
17503.671,-0.981,0.228,-0.932,46.63,13.06,3.23,2,4
17503.687,-0.953,0.231,-0.982,41.38,12.63,6.26,2,4
17503.687,-0.911,0.2,-1.012,34.18,17.12,8.33,2,4
17503.703,-0.874,0.181,-1.015,30.24,25.67,10.41,2,4
17503.718,-0.856,0.181,-1.008,26.86,35.04,13.09,2,4
17503.718,-0.842,0.163,-0.987,21.76,43.18,16.69,2,4
17503.734,-0.818,0.134,-0.957,16.21,49.71,19.99,2,4
17503.75,-0.777,0.074,-0.88,12.12,57.16,21.97,2,4
17503.765,-0.763,0.072,-0.843,15.81,58.63,19.44,2,4
17503.765,-0.745,0.088,-0.829,19.71,58.26,15.17,2,4
17503.781,-0.731,0.118,-0.811,21.0,56.73,10.68,2,4
17503.796,-0.714,0.133,-0.795,21.03,55.09,8.73,2,4
17503.796,-0.673,0.138,-0.798,20.29,53.35,9.19,2,4
17503.812,-0.643,0.149,-0.804,18.46,53.59,11.81,2,4
17503.828,-0.625,0.161,-0.798,14.86,53.62,15.99,2,4
17503.828,-0.601,0.146,-0.776,9.95,52.06,20.45,2,4
17503.843,-0.577,0.127,-0.759,7.48,49.17,23.47,2,4
17503.843,-0.573,0.107,-0.753,8.64,45.63,25.39,2,4
17503.859,-0.573,0.104,-0.761,12.57,41.02,26.7,2,4
17503.875,-0.549,0.106,-0.789,15.41,36.41,27.59,2,4
17503.875,-0.526,0.094,-0.823,16.57,32.87,26.7,2,4
17503.89,-0.513,0.083,-0.856,17.15,30.55,25.09,2,4
17503.906,-0.472,0.08,-0.889,17.3,27.34,24.11,2,4
17503.921,-0.453,0.09,-0.961,15.99,20.39,26.15,2,4
17503.921,-0.446,0.111,-1.007,10.77,16.11,30.67,2,4
17503.937,-0.429,0.126,-1.054,1.68,11.17,36.56,2,4
17503.953,-0.415,0.114,-1.051,-7.72,7.87,40.65,2,4
17503.953,-0.441,0.111,-1.015,-10.28,10.47,39.22,2,4
17503.968,-0.482,0.119,-0.979,-7.35,16.48,34.0,2,4
17503.984,-0.54,0.148,-0.915,-2.72,22.58,29.45,2,4
17504.0,-0.611,0.177,-0.884,0.46,25.91,28.38,2,4
17504.0,-0.695,0.162,-0.865,0.09,25.03,29.94,2,4
17504.015,-0.746,0.165,-0.85,-2.04,19.44,31.04,2,4
17504.015,-0.745,0.181,-0.871,-5.74,17.4,32.72,2,4
17504.031,-0.713,0.201,-0.893,-10.1,18.19,37.57,2,4
17504.046,-0.621,0.208,-0.933,-15.26,22.0,42.57,2,4
17504.046,-0.613,0.204,-0.91,-19.04,28.2,44.07,2,4
17504.062,-0.605,0.181,-0.867,-18.49,33.81,41.38,2,4
17504.078,-0.598,0.165,-0.821,-12.51,37.75,37.11,2,4
17504.078,-0.619,0.19,-0.783,-2.32,39.7,32.14,2,4
17504.093,-0.615,0.219,-0.776,5.13,37.97,28.35,2,4
17504.093,-0.584,0.24,-0.799,5.68,34.27,27.71,2,4
17504.109,-0.571,0.252,-0.823,2.04,30.88,30.67,2,4
17504.125,-0.554,0.242,-0.853,-3.17,29.24,35.28,2,4
17504.14,-0.515,0.233,-0.845,-7.78,30.34,38.42,2,4
17504.14,-0.503,0.232,-0.817,-9.67,33.88,39.06,2,4
17504.156,-0.489,0.203,-0.785,-9.52,36.47,38.91,2,4
17504.156,-0.489,0.201,-0.771,-6.84,36.62,39.37,2,4
17504.171,-0.495,0.199,-0.781,-5.25,32.75,40.93,2,4
17504.171,-0.46,0.206,-0.789,-6.47,27.13,42.05,2,4
17504.187,-0.433,0.216,-0.813,-7.42,23.9,41.75,2,4
17504.203,-0.416,0.216,-0.821,-7.69,22.77,41.47,2,4
17504.203,-0.415,0.234,-0.804,-6.56,22.92,40.77,2,4
17504.218,-0.433,0.245,-0.787,-4.36,23.65,40.01,2,4
17504.234,-0.452,0.235,-0.756,-2.23,23.99,38.85,2,4
17504.234,-0.45,0.231,-0.771,2.81,23.38,37.48,2,4
17504.25,-0.444,0.223,-0.798,6.87,20.66,38.15,2,4
17504.265,-0.415,0.228,-0.808,7.84,18.31,39.22,2,4
17504.281,-0.39,0.206,-0.832,6.87,17.88,39.46,2,4
17504.281,-0.363,0.192,-0.792,7.51,19.14,37.81,2,4
17504.296,-0.36,0.206,-0.776,12.12,21.09,34.15,2,4
17504.296,-0.353,0.216,-0.79,14.19,19.2,31.74,2,4
17504.312,-0.31,0.246,-0.822,11.78,13.12,32.65,2,4
17504.312,-0.268,0.272,-0.849,6.53,5.16,36.1,2,4
17504.328,-0.231,0.319,-0.849,3.05,-2.66,39.19,2,4
17504.343,-0.224,0.388,-0.837,3.88,-7.93,40.65,2,4
17504.343,-0.266,0.454,-0.775,8.58,-9.61,39.86,2,4
17504.359,-0.299,0.489,-0.762,16.6,-10.71,39.7,2,4
17504.375,-0.323,0.516,-0.779,22.22,-11.26,45.29,2,4
17504.375,-0.343,0.532,-0.82,21.94,-12.09,57.8,2,4
17504.39,-0.363,0.508,-0.859,13.64,-13.37,75.08,2,4
17504.406,-0.369,0.451,-0.877,1.19,-14.77,92.75,2,4
17504.406,-0.346,0.427,-0.874,-9.92,-16.69,106.14,2,4
17504.421,-0.321,0.377,-0.844,-16.91,-17.0,111.21,2,4
17504.437,-0.283,0.35,-0.82,-16.3,-15.84,107.36,2,4
17504.437,-0.265,0.354,-0.817,-8.45,-12.94,95.58,2,4
17504.453,-0.297,0.345,-0.815,1.25,-10.62,80.17,2,4
17504.453,-0.338,0.349,-0.806,8.33,-11.69,70.22,2,4
17504.468,-0.391,0.399,-0.807,13.76,-12.36,66.44,2,4
17504.484,-0.436,0.438,-0.834,15.14,-12.97,65.46,2,4
17504.5,-0.485,0.446,-0.852,11.81,-12.18,68.0,2,4
17504.5,-0.498,0.47,-0.886,7.69,-10.74,74.8,2,4
17504.515,-0.514,0.51,-0.921,1.71,-7.48,86.12,2,4
17504.515,-0.525,0.532,-0.939,-7.78,-2.78,101.84,2,4
17504.531,-0.526,0.547,-0.949,-19.35,0.89,120.67,2,4
17504.546,-0.538,0.529,-0.951,-31.83,4.33,140.48,2,4
17504.546,-0.564,0.494,-0.963,-43.52,8.42,159.79,2,4
17504.562,-0.561,0.465,-0.962,-53.25,12.36,177.16,2,4
17504.578,-0.529,0.438,-0.952,-61.89,15.44,190.37,2,4
17504.593,-0.472,0.41,-0.892,-74.95,15.02,205.18,2,4
17504.609,-0.455,0.403,-0.855,-77.64,13.98,208.17,2,4
17504.609,-0.45,0.409,-0.844,-76.48,12.42,209.66,2,4
17504.625,-0.443,0.435,-0.852,-74.95,9.77,211.71,2,4
17504.625,-0.438,0.463,-0.873,-75.9,7.11,215.19,2,4
17504.64,-0.403,0.491,-0.879,-79.47,3.72,219.03,2,4
17504.656,-0.384,0.52,-0.878,-81.94,2.5,220.92,2,4
17504.656,-0.381,0.536,-0.888,-81.03,3.36,222.27,2,4
17504.671,-0.373,0.564,-0.896,-78.55,4.79,226.02,2,4
17504.687,-0.368,0.592,-0.899,-76.51,7.93,230.84,2,4
17504.687,-0.362,0.599,-0.897,-74.77,12.57,236.0,2,4
17504.703,-0.355,0.591,-0.889,-74.31,17.58,242.59,2,4
17504.718,-0.323,0.564,-0.869,-72.45,22.1,249.24,2,4
17504.718,-0.308,0.539,-0.855,-67.72,26.89,256.11,2,4
17504.734,-0.279,0.513,-0.844,-65.07,28.84,263.65,2,4
17504.734,-0.215,0.498,-0.815,-66.1,28.23,269.2,2,4
17504.75,-0.152,0.475,-0.777,-66.41,27.71,270.09,2,4
17504.765,-0.093,0.443,-0.737,-63.2,27.1,266.85,2,4
17504.765,-0.027,0.421,-0.695,-56.28,25.24,260.32,2,4
17504.781,0.015,0.405,-0.67,-46.57,23.26,250.92,2,4
17504.796,0.027,0.39,-0.663,-36.93,20.66,239.75,2,4
17504.796,0.073,0.366,-0.664,-28.05,16.24,228.49,2,4
17504.812,0.136,0.367,-0.678,-19.17,11.63,216.65,2,4
17504.828,0.168,0.401,-0.697,-11.26,9.67,205.97,2,4
17504.828,0.213,0.433,-0.69,-8.18,6.13,198.43,2,4
17504.843,0.267,0.458,-0.662,-6.41,4.21,193.09,2,4
17504.843,0.276,0.464,-0.659,-4.3,3.91,190.01,2,4
17504.859,0.278,0.432,-0.668,-4.94,1.89,189.21,2,4
17504.875,0.309,0.394,-0.683,-4.82,-1.19,188.6,2,4
17504.875,0.339,0.371,-0.7,-2.96,-3.51,185.52,2,4
17504.89,0.36,0.356,-0.702,-2.14,-5.19,179.3,2,4
17504.906,0.347,0.383,-0.707,-1.13,-5.34,172.43,2,4
17504.906,0.344,0.384,-0.688,-0.43,-5.37,167.58,2,4
17504.921,0.369,0.383,-0.677,1.68,-4.33,165.93,2,4
17504.937,0.365,0.397,-0.668,1.86,-3.33,166.02,2,4
17504.937,0.341,0.38,-0.64,-1.56,-3.27,167.27,2,4
17504.953,0.299,0.341,-0.62,-5.55,-5.13,170.23,2,4
17504.968,0.292,0.307,-0.626,-10.68,-11.75,175.94,2,4
17504.968,0.301,0.268,-0.636,-17.58,-19.01,182.84,2,4
17504.984,0.314,0.226,-0.684,-22.61,-24.63,188.02,2,4
17504.984,0.329,0.187,-0.737,-27.38,-29.79,193.06,2,4
17505.0,0.366,0.132,-0.78,-27.38,-29.79,192.54,2,4
17505.015,0.416,0.111,-0.824,-29.33,-26.37,190.98,2,4
17505.015,0.44,0.119,-0.84,-35.49,-23.53,191.41,2,4
17505.031,0.458,0.019,-0.805,-40.01,-20.33,185.83,2,4
17505.046,0.51,0.002,-0.786,-37.08,-17.09,174.47,2,4
17505.046,0.521,-0.015,-0.782,-32.47,-14.07,165.99,2,4
17505.062,0.541,-0.016,-0.762,-29.73,-12.05,157.2,2,4
17505.078,0.534,0.022,-0.758,-30.34,-11.41,150.73,2,4
17505.093,0.519,-0.016,-0.742,-44.89,-18.77,146.67,2,4
17505.109,0.538,-0.049,-0.752,-47.15,-22.8,145.3,2,4
17505.109,0.574,-0.085,-0.77,-45.41,-24.54,141.64,2,4
17505.125,0.614,-0.106,-0.784,-40.83,-23.68,133.92,2,4
17505.14,0.633,-0.112,-0.803,-34.24,-21.12,123.54,2,4
17505.14,0.627,-0.089,-0.829,-29.51,-18.77,111.67,2,4
17505.156,0.623,-0.06,-0.854,-28.2,-15.38,100.1,2,4
17505.156,0.622,-0.025,-0.856,-30.27,-12.91,90.95,2,4
17505.171,0.612,0.012,-0.84,-34.18,-11.08,84.38,2,4
17505.187,0.601,0.027,-0.795,-37.48,-7.2,80.29,2,4
17505.187,0.618,0.02,-0.725,-36.01,-2.78,78.59,2,4
17505.203,0.602,0.018,-0.659,-34.64,0.67,79.62,2,4
17505.203,0.582,0.006,-0.6,-36.38,-1.86,81.09,2,4
17505.218,0.571,-0.026,-0.576,-37.08,-9.16,81.09,2,4
17505.234,0.563,-0.066,-0.595,-34.52,-18.28,78.49,2,4
17505.234,0.566,-0.091,-0.639,-29.6,-26.34,74.22,2,4
17505.25,0.549,-0.092,-0.693,-24.69,-31.89,68.36,2,4
17505.265,0.526,-0.078,-0.783,-20.84,-34.79,61.22,2,4
17505.265,0.52,-0.042,-0.862,-20.23,-34.85,55.18,2,4
17505.281,0.522,-0.004,-0.895,-22.49,-31.37,50.23,2,4
17505.296,0.549,0.0,-0.87,-23.22,-23.71,48.68,2,4
17505.296,0.543,-0.005,-0.799,-23.71,-14.53,51.48,2,4
17505.312,0.514,-0.017,-0.735,-26.58,-10.32,55.06,2,4
17505.312,0.486,-0.049,-0.7,-27.95,-12.54,56.4,2,4
17505.328,0.476,-0.083,-0.695,-24.99,-18.98,53.74,2,4
17505.343,0.487,-0.088,-0.728,-18.92,-25.45,47.43,2,4
17505.343,0.499,-0.075,-0.782,-11.02,-28.6,39.55,2,4
17505.359,0.521,-0.06,-0.806,-3.75,-27.13,33.05,2,4
17505.375,0.54,-0.054,-0.787,1.19,-22.16,29.02,2,4
17505.39,0.521,-0.045,-0.754,3.36,-17.64,27.28,2,4
17505.39,0.499,-0.038,-0.71,3.57,-16.72,26.98,2,4
17505.406,0.467,-0.037,-0.678,3.54,-19.53,26.73,2,4
17505.406,0.453,-0.039,-0.675,5.07,-25.36,26.28,2,4
17505.421,0.428,-0.046,-0.729,7.35,-31.25,25.61,2,4
17505.437,0.419,-0.047,-0.805,8.85,-35.55,25.91,2,4
17505.437,0.439,-0.041,-0.873,8.39,-36.19,26.49,2,4
17505.453,0.447,-0.045,-0.923,6.71,-32.04,27.56,2,4
17505.453,0.46,-0.053,-0.926,4.85,-25.3,30.64,2,4
17505.468,0.461,-0.056,-0.914,2.29,-18.16,34.55,2,4
17505.484,0.451,-0.076,-0.904,-1.92,-13.92,37.26,2,4
17505.484,0.444,-0.106,-0.888,-6.29,-12.05,39.06,2,4
17505.5,0.453,-0.121,-0.866,-9.34,-11.41,40.19,2,4
17505.515,0.456,-0.129,-0.854,-11.08,-10.99,39.09,2,4
17505.515,0.465,-0.146,-0.841,-10.86,-10.47,35.74,2,4
17505.531,0.468,-0.143,-0.833,-7.78,-9.19,30.67,2,4
17505.531,0.466,-0.124,-0.835,-4.06,-8.12,23.38,2,4
17505.546,0.454,-0.106,-0.844,-0.46,-7.17,15.32,2,4
17505.562,0.444,-0.087,-0.853,3.11,-6.65,8.24,2,4
17505.562,0.443,-0.075,-0.866,6.68,-6.01,2.56,2,4
17505.593,0.45,-0.066,-0.871,11.57,-1.34,-2.96,2,4
17505.593,0.442,-0.056,-0.878,10.28,0.95,-3.48,2,4
17505.609,0.442,-0.052,-0.883,7.29,3.23,-3.88,2,4
17505.625,0.454,-0.047,-0.876,4.0,6.38,-4.12,2,4
17505.625,0.468,-0.038,-0.852,2.47,11.23,-3.78,2,4
17505.64,0.465,-0.028,-0.826,0.49,16.66,-3.51,2,4
17505.656,0.466,-0.02,-0.802,-2.2,20.33,-4.06,2,4
17505.656,0.468,-0.006,-0.77,-2.29,22.8,-5.98,2,4
17505.671,0.471,0.007,-0.746,0.12,24.57,-8.39,2,4
17505.687,0.478,0.014,-0.741,2.87,24.72,-9.67,2,4
17505.687,0.502,0.014,-0.75,5.31,23.8,-9.09,2,4
17505.703,0.523,0.025,-0.771,6.9,23.07,-7.84,2,4
17505.718,0.538,0.027,-0.797,5.55,22.89,-5.86,2,4
17505.718,0.555,0.027,-0.821,2.69,23.8,-2.84,2,4
17505.734,0.564,0.024,-0.846,-0.21,25.97,0.52,2,4
17505.734,0.565,0.012,-0.854,-3.48,29.51,3.78,2,4
17505.765,0.609,-0.041,-0.78,-7.05,38.58,7.32,2,4
17505.765,0.619,-0.049,-0.72,-7.17,43.92,6.78,2,4
17505.781,0.615,-0.051,-0.652,-8.85,46.48,5.31,2,4
17505.796,0.62,-0.058,-0.597,-10.22,46.17,2.93,2,4
17505.796,0.618,-0.052,-0.583,-11.66,42.85,0.34,2,4
17505.812,0.628,-0.045,-0.593,-12.27,37.17,-2.84,2,4
17505.828,0.636,-0.018,-0.612,-10.28,32.2,-6.71,2,4
17505.828,0.667,0.01,-0.615,-7.11,29.05,-9.86,2,4
17505.843,0.679,0.051,-0.619,-4.21,27.62,-10.35,2,4
17505.843,0.67,0.073,-0.632,-2.53,25.79,-8.06,2,4
17505.859,0.657,0.072,-0.633,-3.08,22.58,-3.14,2,4
17505.875,0.666,0.038,-0.639,-3.6,18.13,2.93,2,4
17505.875,0.684,0.001,-0.668,-3.23,13.7,8.15,2,4
17505.89,0.709,-0.039,-0.692,-1.25,10.5,10.35,2,4
17505.906,0.713,-0.062,-0.722,1.34,8.03,8.94,2,4
17505.906,0.714,-0.08,-0.758,3.42,5.68,5.25,2,4
17505.937,0.741,-0.097,-0.82,9.09,5.77,-6.35,2,4
17505.937,0.754,-0.098,-0.812,13.21,9.7,-11.57,2,4
17505.953,0.738,-0.093,-0.784,16.14,13.43,-15.17,2,4
17505.953,0.722,-0.082,-0.76,17.46,13.98,-17.21,2,4
17505.968,0.677,-0.043,-0.76,14.83,11.6,-16.57,2,4
17505.984,0.655,-0.024,-0.773,4.52,1.92,-9.03,2,4
17505.984,0.647,-0.007,-0.797,3.14,-1.43,-3.81,2,4
17506.0,0.671,-0.005,-0.833,3.78,-1.53,1.4,2,4
17506.015,0.74,-0.019,-0.865,5.16,1.74,5.65,2,4
17506.015,0.744,-0.029,-0.85,4.85,5.71,9.19,2,4
17506.031,0.732,-0.033,-0.814,2.47,8.09,11.47,2,4
17506.046,0.717,-0.045,-0.773,0.21,8.82,13.28,2,4
17506.046,0.679,-0.043,-0.748,-0.89,7.75,14.98,2,4
17506.062,0.647,-0.047,-0.741,-1.77,3.91,16.91,2,4
17506.062,0.647,-0.052,-0.765,-1.77,-1.04,18.16,2,4
17506.078,0.671,-0.057,-0.798,-0.34,-4.49,18.95,2,4
17506.109,0.705,-0.062,-0.818,3.81,-2.38,19.71,2,4
17506.109,0.69,-0.069,-0.81,4.73,-0.52,20.91,2,4
17506.125,0.675,-0.074,-0.806,3.94,-0.21,22.06,2,4
17506.125,0.66,-0.076,-0.807,3.14,-0.7,22.95,2,4
17506.14,0.645,-0.074,-0.809,1.71,-1.65,23.99,2,4
17506.156,0.629,-0.078,-0.812,-0.49,-3.51,25.36,2,4
17506.156,0.639,-0.111,-0.824,-1.71,-4.76,27.04,2,4
17506.171,0.652,-0.123,-0.848,-1.53,-4.18,28.69,2,4
17506.171,0.659,-0.127,-0.867,-2.17,-2.47,28.87,2,4
17506.187,0.663,-0.138,-0.866,-3.57,-0.46,27.19,2,4
17506.203,0.669,-0.146,-0.848,-3.66,1.8,24.05,2,4
17506.203,0.673,-0.151,-0.823,-1.89,4.06,20.17,2,4
17506.218,0.667,-0.153,-0.792,0.52,6.1,16.82,2,4
17506.234,0.655,-0.15,-0.759,1.74,6.07,14.22,2,4
17506.234,0.648,-0.158,-0.742,1.68,4.3,12.18,2,4
17506.25,0.642,-0.155,-0.74,0.31,1.89,10.35,2,4
17506.265,0.653,-0.161,-0.747,0.95,-2.93,5.71,2,4
17506.281,0.66,-0.157,-0.762,3.91,-3.36,2.9,2,4
17506.296,0.661,-0.148,-0.78,6.84,-3.11,-0.06,2,4
17506.296,0.653,-0.145,-0.78,7.97,-2.59,-2.62,2,4
17506.312,0.643,-0.154,-0.781,8.61,-1.8,-4.18,2,4
17506.312,0.645,-0.173,-0.767,9.22,-1.37,-4.79,2,4
17506.328,0.643,-0.2,-0.757,10.8,-1.01,-6.07,2,4
17506.343,0.635,-0.228,-0.755,13.03,-1.28,-9.89,2,4
17506.359,0.646,-0.276,-0.75,17.85,-2.72,-17.27,2,4
17506.359,0.662,-0.276,-0.783,25.61,-4.12,-28.35,2,4
17506.375,0.675,-0.253,-0.806,31.77,-4.76,-41.32,2,4
17506.375,0.694,-0.238,-0.815,35.77,-3.51,-53.71,2,4
17506.39,0.72,-0.209,-0.821,39.49,-0.24,-63.3,2,4
17506.406,0.706,-0.157,-0.819,40.16,3.75,-69.67,2,4
17506.406,0.693,-0.121,-0.797,37.69,5.92,-72.63,2,4
17506.421,0.69,-0.095,-0.763,35.07,6.47,-72.57,2,4
17506.437,0.635,-0.058,-0.742,29.97,2.78,-66.99,2,4
17506.453,0.637,-0.055,-0.765,28.11,-0.85,-62.93,2,4
17506.468,0.651,-0.029,-0.807,26.76,-3.39,-58.6,2,4
17506.468,0.676,-0.012,-0.838,22.95,-3.63,-53.87,2,4
17506.484,0.7,0.003,-0.857,18.22,-1.07,-48.59,2,4
17506.5,0.73,0.002,-0.848,14.98,3.45,-42.48,2,4
17506.5,0.741,0.01,-0.807,12.54,8.61,-35.68,2,4
17506.515,0.723,0.017,-0.754,10.28,11.96,-29.02,2,4
17506.515,0.7,0.013,-0.699,7.54,11.66,-22.0,2,4
17506.531,0.688,0.011,-0.649,5.28,7.97,-14.25,2,4
17506.546,0.678,0.002,-0.621,4.73,1.89,-6.16,2,4
17506.546,0.71,-0.022,-0.62,5.77,-5.16,2.14,2,4
17506.562,0.73,-0.032,-0.633,6.68,-10.44,8.64,2,4
17506.562,0.749,-0.052,-0.63,7.81,-14.65,12.76,2,4
17506.578,0.767,-0.071,-0.617,12.51,-17.58,14.92,2,4
17506.593,0.791,-0.075,-0.619,20.42,-19.87,14.92,2,4
17506.609,0.775,-0.065,-0.558,37.35,-26.12,11.26,2,4
17506.625,0.74,-0.063,-0.541,46.66,-30.92,10.71,2,4
17506.64,0.722,-0.043,-0.552,51.82,-36.62,14.13,2,4
17506.64,0.715,-0.031,-0.589,48.46,-41.05,21.33,2,4
17506.656,0.712,-0.041,-0.626,38.94,-43.31,28.26,2,4
17506.656,0.708,-0.066,-0.661,28.02,-43.7,32.2,2,4
17506.671,0.716,-0.083,-0.665,20.78,-42.42,34.06,2,4
17506.687,0.669,-0.14,-0.645,19.38,-41.75,35.43,2,4
17506.687,0.666,-0.155,-0.667,23.59,-39.61,26.28,2,4
17506.703,0.634,-0.129,-0.693,25.42,-38.33,23.65,2,4
17506.718,0.61,-0.132,-0.711,22.64,-37.78,23.59,2,4
17506.718,0.589,-0.137,-0.733,18.46,-36.47,24.17,2,4
17506.734,0.577,-0.145,-0.732,15.63,-33.97,25.73,2,4
17506.734,0.586,-0.17,-0.721,15.41,-31.53,28.23,2,4
17506.75,0.585,-0.165,-0.737,14.22,-29.54,30.64,2,4
17506.765,0.568,-0.176,-0.77,8.64,-28.84,34.58,2,4
17506.765,0.562,-0.2,-0.791,2.44,-26.58,32.72,2,4
17506.781,0.56,-0.194,-0.809,-0.85,-24.54,31.74,2,4
17506.796,0.551,-0.204,-0.84,-4.73,-22.13,31.43,2,4
17506.796,0.562,-0.248,-0.841,-7.84,-18.68,29.76,2,4
17506.812,0.579,-0.276,-0.846,-7.26,-14.47,27.19,2,4
17506.812,0.578,-0.273,-0.866,-8.15,-11.2,22.25,2,4
17506.828,0.574,-0.273,-0.864,-11.05,-8.64,15.99,2,4
17506.843,0.581,-0.272,-0.859,-12.63,-6.65,9.46,2,4
17506.859,0.571,-0.259,-0.852,-12.42,-4.03,3.27,2,4
17506.859,0.565,-0.26,-0.845,-10.47,-1.62,-1.37,2,4
17506.875,0.56,-0.248,-0.837,-8.85,-0.24,-4.09,2,4
17506.875,0.561,-0.24,-0.823,-8.42,-0.21,-6.07,2,4
17506.89,0.563,-0.222,-0.819,-8.91,-1.16,-6.93,2,4
17506.906,0.575,-0.212,-0.816,-10.35,-2.9,-6.96,2,4
17506.906,0.591,-0.207,-0.838,-11.02,-3.88,-7.39,2,4
17506.921,0.602,-0.203,-0.858,-12.05,-3.88,-8.45,2,4
17506.921,0.614,-0.21,-0.847,-12.24,-2.72,-10.5,2,4
17506.937,0.621,-0.216,-0.824,-9.92,-1.65,-13.79,2,4
17506.953,0.615,-0.208,-0.82,-6.99,-1.22,-18.07,2,4
17506.953,0.616,-0.204,-0.806,1.62,-3.78,-31.1,2,4
17506.968,0.6,-0.197,-0.786,11.2,-6.41,-37.75,2,4
17506.984,0.587,-0.187,-0.806,17.82,-9.16,-41.66,2,4
17506.984,0.597,-0.138,-0.831,18.77,-11.29,-42.73,2,4
17507.0,0.646,-0.072,-0.883,15.5,-11.32,-39.67,2,4
17507.015,0.645,-0.064,-0.907,8.0,-10.01,-32.14,2,4
17507.015,0.639,-0.066,-0.934,-2.17,-8.03,-21.97,2,4
17507.031,0.626,-0.071,-0.92,-11.35,-5.68,-11.87,2,4
17507.046,0.582,-0.088,-0.897,-16.05,-4.52,-3.02,2,4
17507.046,0.564,-0.103,-0.893,-18.13,-6.04,5.83,2,4
17507.062,0.585,-0.119,-0.89,-16.72,-8.45,12.94,2,4
17507.078,0.603,-0.122,-0.908,-13.98,-10.01,17.18,2,4
17507.078,0.605,-0.131,-0.93,-13.03,-10.8,18.95,2,4
17507.093,0.613,-0.154,-0.937,-11.6,-10.9,19.81,2,4
17507.093,0.62,-0.167,-0.953,-8.55,-10.44,19.53,2,4
17507.109,0.608,-0.163,-0.98,-7.93,-10.25,18.59,2,4
17507.125,0.6,-0.172,-0.989,-10.96,-10.5,17.21,2,4
17507.125,0.612,-0.187,-1.001,-12.39,-9.98,15.75,2,4
17507.14,0.604,-0.186,-1.012,-12.09,-8.67,13.73,2,4
17507.156,0.596,-0.188,-1.017,-11.38,-6.99,11.41,2,4
17507.156,0.604,-0.183,-1.009,-10.53,-5.55,8.73,2,4
17507.171,0.618,-0.176,-1.007,-9.67,-4.67,5.22,2,4
17507.171,0.622,-0.158,-1.002,-9.89,-3.54,0.76,2,4
17507.187,0.632,-0.143,-0.973,-9.55,-2.41,-4.24,2,4
17507.203,0.624,-0.102,-0.955,-8.67,-1.83,-8.97,2,4
17507.203,0.601,-0.071,-0.925,-8.61,-1.92,-12.05,2,4
17507.218,0.573,-0.045,-0.906,-9.52,-3.05,-11.81,2,4
17507.234,0.564,-0.024,-0.905,-11.35,-4.88,-8.3,2,4
17507.234,0.558,-0.007,-0.916,-14.19,-6.04,-2.62,2,4
17507.25,0.558,-0.0,-0.925,-17.7,-6.65,3.51,2,4
17507.265,0.542,0.006,-0.938,-20.26,-5.89,8.73,2,4
17507.265,0.523,0.001,-0.932,-21.91,-4.49,12.79,2,4
17507.281,0.51,-0.012,-0.899,-21.91,-2.84,15.29,2,4
17507.296,0.503,-0.023,-0.871,-19.23,-1.46,16.88,2,4
17507.296,0.497,-0.034,-0.836,-16.08,-0.76,17.58,2,4
17507.312,0.498,-0.046,-0.808,-12.73,-2.14,17.91,2,4
17507.328,0.492,-0.049,-0.809,-7.93,-5.1,18.07,2,4
17507.328,0.48,-0.043,-0.833,-3.54,-7.84,17.7,2,4
17507.343,0.462,-0.048,-0.858,-2.08,-10.5,17.55,2,4
17507.343,0.461,-0.07,-0.894,-1.5,-12.94,18.65,2,4
17507.359,0.473,-0.092,-0.922,-1.07,-13.58,20.29,2,4
17507.375,0.48,-0.118,-0.946,0.27,-12.45,21.94,2,4
17507.39,0.459,-0.137,-0.951,1.43,-10.74,23.56,2,4
17507.39,0.449,-0.156,-0.938,1.68,-9.86,26.15,2,4
17507.406,0.448,-0.172,-0.934,-0.92,-10.47,28.63,2,4
17507.406,0.435,-0.197,-0.915,-5.37,-11.05,30.18,2,4
17507.421,0.423,-0.243,-0.882,-6.9,-10.8,30.73,2,4
17507.437,0.41,-0.259,-0.86,-5.89,-10.35,28.93,2,4
17507.437,0.405,-0.295,-0.82,-3.05,-10.99,23.74,2,4
17507.453,0.397,-0.318,-0.796,2.84,-12.51,14.53,2,4
17507.468,0.394,-0.334,-0.791,11.05,-15.2,1.31,2,4
17507.468,0.406,-0.34,-0.818,19.01,-18.07,-16.48,2,4
17507.484,0.433,-0.329,-0.844,26.28,-19.65,-38.0,2,4
17507.484,0.442,-0.31,-0.842,35.52,-18.25,-60.55,2,4
17507.5,0.434,-0.255,-0.843,46.91,-13.89,-79.62,2,4
17507.515,0.423,-0.178,-0.78,53.1,-8.48,-92.23,2,4
17507.515,0.363,-0.158,-0.698,52.86,-6.65,-91.68,2,4
17507.531,0.313,-0.172,-0.583,49.1,-5.46,-93.39,2,4
17507.531,0.309,-0.089,-0.533,53.22,-6.99,-88.56,2,4
17507.546,0.278,-0.051,-0.539,53.68,-12.15,-74.86,2,4
17507.562,0.294,-0.045,-0.554,45.38,-16.88,-66.29,2,4
17507.562,0.295,-0.068,-0.613,39.64,-18.68,-56.4,2,4
17507.578,0.378,-0.054,-0.661,37.6,-15.9,-48.25,2,4
17507.593,0.43,-0.045,-0.668,35.07,-10.25,-41.78,2,4
17507.609,0.477,-0.053,-0.618,33.72,-3.02,-38.09,2,4
17507.609,0.499,-0.038,-0.562,34.88,2.26,-33.97,2,4
17507.625,0.507,-0.039,-0.523,33.81,2.84,-26.95,2,4
17507.625,0.523,-0.066,-0.515,30.67,-0.89,-18.46,2,4
17507.64,0.56,-0.097,-0.561,27.1,-6.78,-9.25,2,4
17507.656,0.594,-0.136,-0.637,22.68,-11.14,-1.62,2,4
17507.656,0.586,-0.175,-0.705,18.13,-10.9,3.81,2,4
17507.671,0.573,-0.207,-0.762,13.73,-8.48,7.54,2,4
17507.687,0.579,-0.231,-0.802,9.25,-5.77,10.38,2,4
17507.687,0.584,-0.27,-0.827,4.7,-3.23,12.24,2,4
17507.703,0.596,-0.308,-0.85,0.79,-2.69,13.92,2,4
17507.718,0.602,-0.32,-0.886,-3.69,-4.52,16.21,2,4
17507.718,0.589,-0.342,-0.93,-10.28,-7.69,18.77,2,4
17507.734,0.574,-0.354,-0.967,-17.03,-10.22,21.52,2,4
17507.734,0.546,-0.35,-0.996,-22.43,-9.61,23.41,2,4
17507.75,0.521,-0.348,-0.985,-26.83,-7.69,23.93,2,4
17507.765,0.507,-0.365,-0.944,-26.55,-5.8,22.16,2,4
17507.765,0.506,-0.357,-0.928,-21.91,-4.43,18.86,2,4
17507.781,0.516,-0.344,-0.912,-19.81,-3.6,13.79,2,4
17507.796,0.508,-0.33,-0.898,-20.51,-2.35,6.35,2,4
17507.796,0.495,-0.327,-0.874,-22.37,-0.79,-1.86,2,4
17507.812,0.495,-0.316,-0.831,-23.01,0.82,-9.77,2,4
17507.812,0.477,-0.287,-0.789,-21.45,2.35,-18.31,2,4
17507.828,0.463,-0.272,-0.748,-17.18,2.44,-27.53,2,4
17507.843,0.465,-0.24,-0.732,-11.72,0.98,-36.32,2,4
17507.859,0.481,-0.195,-0.725,-7.32,-1.5,-44.25,2,4
17507.859,0.489,-0.157,-0.742,-4.49,-4.67,-50.05,2,4
17507.875,0.51,-0.138,-0.772,-1.5,-7.48,-52.92,2,4
17507.875,0.534,-0.104,-0.804,1.95,-8.79,-52.95,2,4
17507.89,0.535,-0.067,-0.83,1.68,-9.25,-49.84,2,4
17507.906,0.536,-0.039,-0.855,-1.5,-9.7,-43.76,2,4
17507.921,0.541,-0.021,-0.874,-5.52,-9.8,-35.89,2,4
17507.921,0.54,-0.014,-0.884,-11.11,-9.86,-26.7,2,4
17507.921,0.544,-0.02,-0.882,-15.81,-9.52,-17.4,2,4
17507.937,0.529,-0.022,-0.883,-22.49,-7.11,-2.78,2,4
17507.953,0.527,-0.041,-0.881,-24.99,-6.53,4.21,2,4
17507.968,0.535,-0.041,-0.871,-28.6,-6.32,9.92,2,4
17507.968,0.545,-0.036,-0.872,-32.96,-5.92,14.28,2,4
17507.984,0.556,-0.052,-0.839,-35.52,-5.92,17.61,2,4
17507.984,0.557,-0.049,-0.83,-35.58,-5.77,19.84,2,4
17508.0,0.557,-0.055,-0.823,-35.0,-6.29,20.97,2,4
17508.015,0.562,-0.053,-0.82,-34.3,-6.84,21.88,2,4
17508.015,0.575,-0.053,-0.817,-34.73,-7.75,22.92,2,4
17508.031,0.587,-0.063,-0.802,-34.42,-9.4,23.16,2,4
17508.046,0.583,-0.086,-0.802,-31.65,-11.14,22.52,2,4
17508.046,0.583,-0.104,-0.8,-27.89,-12.76,21.76,2,4
17508.062,0.575,-0.114,-0.802,-25.18,-14.13,19.65,2,4
17508.078,0.549,-0.131,-0.823,-24.02,-15.44,16.42,2,4
17508.078,0.542,-0.142,-0.835,-24.75,-16.51,13.55,2,4
17508.093,0.533,-0.122,-0.852,-26.12,-16.66,10.83,2,4
17508.109,0.506,-0.103,-0.871,-28.69,-15.96,10.28,2,4
17508.109,0.507,-0.087,-0.866,-34.39,-15.14,13.82,2,4
17508.125,0.515,-0.085,-0.858,-39.67,-14.44,18.8,2,4
17508.125,0.526,-0.094,-0.842,-43.18,-14.28,22.86,2,4
17508.14,0.526,-0.113,-0.826,-44.71,-15.17,24.45,2,4
17508.156,0.512,-0.115,-0.837,-43.7,-16.45,23.65,2,4
17508.156,0.506,-0.111,-0.846,-43.61,-17.64,21.0,2,4
17508.171,0.495,-0.116,-0.847,-43.7,-18.16,16.63,2,4
17508.187,0.5,-0.119,-0.854,-42.66,-18.4,11.93,2,4
17508.187,0.516,-0.125,-0.85,-41.38,-18.68,6.65,2,4
17508.203,0.523,-0.133,-0.836,-38.88,-18.46,0.46,2,4
17508.203,0.503,-0.122,-0.83,-36.62,-18.56,-6.47,2,4
17508.218,0.472,-0.102,-0.821,-36.26,-19.53,-12.45,2,4
17508.234,0.457,-0.096,-0.81,-36.53,-21.97,-17.12,2,4
17508.234,0.454,-0.102,-0.819,-34.82,-23.83,-21.76,2,4
17508.25,0.458,-0.101,-0.83,-31.46,-24.9,-27.19,2,4
17508.265,0.455,-0.093,-0.841,-28.17,-25.36,-33.91,2,4
17508.265,0.437,-0.067,-0.85,-25.57,-25.24,-40.13,2,4
17508.281,0.418,-0.041,-0.857,-25.67,-25.7,-42.66,2,4
17508.296,0.406,-0.015,-0.858,-28.66,-26.12,-42.45,2,4
17508.296,0.381,0.003,-0.863,-31.5,-26.0,-40.68,2,4
17508.312,0.373,-0.0,-0.866,-34.39,-25.88,-37.32,2,4
17508.328,0.373,-0.001,-0.867,-37.39,-25.15,-34.64,2,4
17508.328,0.366,-0.022,-0.865,-39.58,-24.48,-34.27,2,4
17508.343,0.378,-0.037,-0.859,-40.89,-24.11,-36.41,2,4
17508.343,0.384,-0.049,-0.834,-39.12,-24.23,-42.12,2,4
17508.359,0.374,-0.061,-0.816,-33.33,-24.9,-51.61,2,4
17508.375,0.364,-0.056,-0.804,-25.85,-27.1,-62.32,2,4
17508.39,0.338,-0.018,-0.823,-19.71,-29.54,-72.27,2,4
17508.39,0.313,0.015,-0.849,-18.19,-31.43,-78.8,2,4
17508.406,0.302,0.043,-0.867,-20.69,-31.53,-80.9,2,4
17508.406,0.294,0.07,-0.881,-23.65,-30.27,-79.84,2,4
17508.421,0.286,0.097,-0.889,-25.3,-28.02,-76.39,2,4
17508.437,0.268,0.112,-0.889,-26.67,-25.42,-71.5,2,4
17508.437,0.258,0.126,-0.875,-28.53,-23.68,-65.92,2,4
17508.453,0.262,0.135,-0.869,-32.17,-23.32,-60.09,2,4
17508.468,0.266,0.124,-0.851,-38.06,-24.11,-54.45,2,4
17508.468,0.27,0.113,-0.836,-41.51,-24.45,-50.14,2,4
17508.484,0.276,0.117,-0.837,-41.57,-24.08,-48.43,2,4
17508.484,0.261,0.13,-0.817,-42.24,-23.56,-49.75,2,4
17508.5,0.229,0.137,-0.805,-42.05,-24.05,-52.31,2,4
17508.515,0.224,0.151,-0.801,-40.83,-25.85,-54.26,2,4
17508.515,0.24,0.146,-0.815,-37.05,-27.59,-55.02,2,4
17508.531,0.254,0.181,-0.844,-33.45,-26.83,-53.93,2,4
17508.546,0.254,0.215,-0.84,-35.16,-25.24,-52.25,2,4
17508.546,0.232,0.211,-0.828,-39.83,-24.41,-50.78,2,4
17508.562,0.208,0.222,-0.821,-44.19,-23.5,-48.89,2,4
17508.578,0.162,0.268,-0.826,-48.95,-22.58,-46.27,2,4
17508.578,0.113,0.321,-0.835,-57.41,-23.1,-40.83,2,4
17508.593,0.114,0.364,-0.858,-67.14,-23.83,-32.69,2,4
17508.593,0.157,0.387,-0.864,-76.63,-21.73,-23.35,2,4
17508.609,0.211,0.365,-0.82,-82.95,-17.27,-14.68,2,4
17508.625,0.252,0.336,-0.735,-82.06,-12.88,-10.41,2,4
17508.625,0.244,0.301,-0.668,-73.4,-11.11,-12.3,2,4
17508.64,0.216,0.305,-0.641,-63.84,-14.83,-19.56,2,4
17508.656,0.182,0.32,-0.637,-55.27,-22.4,-29.57,2,4
17508.656,0.155,0.343,-0.697,-48.52,-29.27,-36.44,2,4
17508.671,0.142,0.373,-0.764,-48.62,-33.2,-35.22,2,4
17508.671,0.152,0.375,-0.82,-54.63,-34.0,-27.25,2,4
17508.687,0.16,0.38,-0.844,-64.88,-30.85,-17.33,2,4
17508.703,0.131,0.363,-0.813,-76.17,-26.92,-10.62,2,4
17508.703,0.105,0.336,-0.766,-82.28,-25.18,-8.61,2,4
17508.718,0.12,0.306,-0.716,-80.02,-25.27,-11.99,2,4
17508.734,0.13,0.303,-0.705,-72.24,-24.9,-18.98,2,4
17508.75,0.131,0.336,-0.694,-69.06,-24.9,-25.21,2,4
17508.75,0.158,0.37,-0.678,-72.18,-27.28,-29.36,2,4
17508.765,0.172,0.419,-0.667,-79.23,-29.33,-31.46,2,4
17508.765,0.147,0.438,-0.641,-86.37,-30.67,-32.5,2,4
17508.781,0.096,0.442,-0.619,-88.17,-32.01,-34.03,2,4
17508.796,0.034,0.443,-0.624,-84.93,-33.39,-35.83,2,4
17508.796,-0.008,0.441,-0.642,-81.33,-34.03,-36.71,2,4
17508.812,0.036,0.448,-0.662,-79.59,-34.85,-35.92,2,4
17508.828,0.101,0.493,-0.655,-81.36,-34.76,-35.4,2,4
17508.828,0.095,0.509,-0.623,-85.94,-32.35,-36.96,2,4
17508.843,0.065,0.517,-0.571,-90.33,-30.98,-38.03,2,4
17508.843,0.024,0.534,-0.526,-91.95,-31.43,-38.7,2,4
17508.859,0.002,0.532,-0.504,-92.14,-33.6,-40.65,2,4
17508.875,0.016,0.546,-0.496,-90.79,-37.81,-44.28,2,4
17508.875,0.032,0.566,-0.505,-87.13,-41.29,-49.13,2,4
17508.89,0.016,0.583,-0.521,-83.07,-42.3,-54.41,2,4
17508.906,-0.026,0.603,-0.529,-79.99,-41.38,-58.44,2,4
17508.906,-0.066,0.62,-0.524,-79.38,-39.16,-59.14,2,4
17508.921,-0.069,0.627,-0.494,-82.58,-37.48,-56.7,2,4
17508.937,-0.041,0.636,-0.45,-94.52,-40.22,-50.72,2,4
17508.937,-0.068,0.682,-0.426,-100.41,-43.49,-46.33,2,4
17508.953,-0.099,0.734,-0.417,-105.66,-45.59,-39.98,2,4
17508.968,-0.175,0.81,-0.426,-109.65,-45.41,-32.04,2,4
17508.968,-0.238,0.801,-0.432,-112.13,-42.82,-23.16,2,4
17508.984,-0.293,0.751,-0.446,-112.61,-39.22,-13.58,2,4
17508.984,-0.26,0.701,-0.463,-114.29,-35.31,-3.3,2,4
17509.0,-0.093,0.701,-0.437,-122.04,-32.87,5.86,2,4
17509.015,0.004,0.718,-0.353,-131.38,-30.3,9.43,2,4
17509.015,-0.032,0.701,-0.25,-137.09,-26.92,6.47,2,4
17509.031,-0.075,0.684,-0.148,-138.13,-27.53,0.12,2,4
17509.046,-0.12,0.704,-0.104,-132.27,-32.2,-9.22,2,4
17509.046,-0.138,0.722,-0.106,-123.6,-37.72,-21.42,2,4
17509.062,-0.137,0.744,-0.139,-115.97,-42.3,-33.88,2,4
17509.078,-0.191,0.786,-0.176,-110.02,-43.64,-43.52,2,4
17509.078,-0.247,0.814,-0.203,-109.35,-41.81,-46.85,2,4
17509.093,-0.246,0.857,-0.193,-115.73,-38.48,-41.51,2,4
17509.093,-0.169,0.917,-0.134,-127.99,-35.83,-30.79,2,4
17509.109,-0.12,0.958,-0.046,-140.45,-34.97,-20.51,2,4
17509.125,-0.157,0.965,0.041,-148.17,-36.47,-13.92,2,4
17509.125,-0.23,0.955,0.079,-149.17,-40.35,-11.6,2,4
17509.14,-0.239,0.962,0.065,-147.22,-45.66,-12.67,2,4
17509.156,-0.245,0.984,0.043,-144.96,-50.02,-17.37,2,4
17509.156,-0.264,0.985,0.013,-141.79,-50.6,-22.95,2,4
17509.171,-0.256,0.996,-0.002,-139.1,-47.61,-24.54,2,4
17509.187,-0.233,1.005,0.031,-137.42,-41.38,-20.78,2,4
17509.187,-0.204,1.07,0.093,-139.07,-36.77,-14.8,2,4
17509.203,-0.145,1.09,0.201,-146.24,-34.7,-6.38,2,4
17509.203,-0.176,1.072,0.283,-148.53,-36.84,-0.92,2,4
17509.218,-0.258,1.012,0.308,-145.05,-43.15,1.22,2,4
17509.234,-0.278,0.98,0.288,-139.71,-48.28,3.11,2,4
17509.234,-0.285,0.985,0.228,-133.98,-49.81,1.59,2,4
17509.25,-0.209,1.009,0.209,-133.98,-46.33,-0.31,2,4
17509.265,-0.135,1.05,0.255,-138.07,-41.14,0.43,2,4
17509.281,-0.153,1.018,0.33,-138.55,-36.29,3.78,2,4
17509.281,-0.227,0.955,0.367,-137.09,-32.99,9.7,2,4
17509.296,-0.287,0.891,0.383,-136.54,-33.88,15.05,2,4
17509.296,-0.308,0.803,0.393,-136.57,-35.1,15.35,2,4
17509.312,-0.247,0.758,0.405,-136.78,-35.04,10.32,2,4
17509.328,-0.191,0.781,0.443,-135.84,-32.87,0.95,2,4
17509.328,-0.115,0.837,0.51,-135.32,-31.13,-10.59,2,4
17509.343,-0.078,0.894,0.574,-133.0,-30.92,-23.13,2,4
17509.343,-0.106,0.878,0.619,-124.67,-33.23,-34.79,2,4
17509.359,-0.181,0.842,0.644,-111.64,-36.16,-42.88,2,4
17509.375,-0.216,0.836,0.631,-102.11,-39.98,-47.98,2,4
17509.39,-0.221,0.842,0.633,-98.94,-43.55,-53.25,2,4
17509.39,-0.235,0.827,0.642,-97.6,-45.56,-61.89,2,4
17509.406,-0.274,0.815,0.648,-94.42,-46.75,-72.51,2,4
17509.406,-0.316,0.811,0.622,-87.95,-47.0,-81.73,2,4
17509.421,-0.335,0.798,0.593,-82.49,-47.88,-87.34,2,4
17509.437,-0.335,0.818,0.597,-81.0,-48.83,-90.79,2,4
17509.437,-0.318,0.851,0.62,-81.91,-49.2,-94.91,2,4
17509.453,-0.362,0.851,0.668,-79.47,-47.33,-100.44,2,4
17509.468,-0.395,0.885,0.699,-71.84,-45.23,-105.96,2,4
17509.468,-0.413,0.965,0.703,-65.61,-45.23,-111.03,2,4
17509.484,-0.46,1.003,0.704,-62.81,-45.87,-113.07,2,4
17509.5,-0.474,1.037,0.683,-60.7,-47.36,-109.96,2,4
17509.5,-0.48,1.077,0.662,-59.82,-49.1,-102.24,2,4
17509.515,-0.494,1.113,0.65,-62.14,-51.39,-91.16,2,4
17509.515,-0.484,1.129,0.631,-65.22,-54.57,-78.86,2,4
17509.531,-0.517,1.079,0.618,-64.88,-53.07,-66.26,2,4
17509.546,-0.56,0.971,0.594,-62.69,-47.88,-54.48,2,4
17509.546,-0.613,0.917,0.596,-62.75,-42.42,-45.23,2,4
17509.562,-0.627,0.885,0.619,-69.12,-37.35,-38.82,2,4
17509.578,-0.562,0.825,0.658,-76.78,-35.49,-34.0,2,4
17509.578,-0.517,0.794,0.693,-78.31,-35.58,-30.58,2,4
17509.593,-0.508,0.792,0.712,-78.62,-36.13,-29.39,2,4
17509.593,-0.517,0.783,0.709,-78.01,-37.51,-31.83,2,4
17509.609,-0.554,0.762,0.689,-73.64,-36.04,-36.81,2,4
17509.625,-0.538,0.769,0.669,-69.19,-31.19,-40.62,2,4
17509.625,-0.529,0.778,0.649,-66.84,-24.93,-40.44,2,4
17509.64,-0.552,0.768,0.658,-68.51,-17.82,-32.72,2,4
17509.656,-0.569,0.718,0.705,-77.21,-11.78,-17.46,2,4
17509.656,-0.592,0.632,0.78,-88.17,-9.09,-1.16,2,4
17509.671,-0.607,0.552,0.841,-97.14,-10.1,10.41,2,4
17509.687,-0.574,0.479,0.872,-101.44,-13.28,13.21,2,4
17509.687,-0.558,0.431,0.856,-97.29,-15.11,5.92,2,4
17509.703,-0.552,0.428,0.834,-89.69,-12.67,-7.97,2,4
17509.703,-0.517,0.456,0.821,-82.61,-8.24,-24.38,2,4
17509.718,-0.486,0.522,0.826,-76.69,-3.3,-40.44,2,4
17509.734,-0.488,0.581,0.842,-72.79,0.92,-50.02,2,4
17509.75,-0.51,0.648,0.857,-72.45,2.78,-49.38,2,4
17509.75,-0.536,0.677,0.863,-77.88,1.07,-40.5,2,4
17509.765,-0.561,0.661,0.881,-85.12,-1.71,-28.81,2,4
17509.765,-0.579,0.632,0.88,-89.39,-3.94,-20.39,2,4
17509.781,-0.57,0.595,0.876,-90.15,-4.97,-17.55,2,4
17509.796,-0.563,0.588,0.87,-87.83,-4.55,-19.75,2,4
17509.796,-0.551,0.594,0.845,-84.93,-3.88,-23.35,2,4
17509.812,-0.536,0.607,0.816,-83.16,-2.04,-25.36,2,4
17509.828,-0.541,0.622,0.804,-83.04,0.73,-24.81,2,4
17509.828,-0.541,0.619,0.817,-84.02,3.23,-21.55,2,4
17509.843,-0.522,0.613,0.828,-83.9,4.46,-17.18,2,4
17509.843,-0.511,0.597,0.84,-82.37,4.97,-13.89,2,4
17509.859,-0.492,0.606,0.856,-79.44,6.01,-11.75,2,4
17509.875,-0.492,0.612,0.869,-77.61,6.93,-10.25,2,4
17509.89,-0.511,0.612,0.888,-76.48,8.12,-7.26,2,4
17509.89,-0.506,0.625,0.903,-77.67,8.7,-0.58,2,4
17509.906,-0.527,0.636,0.907,-82.31,7.26,9.09,2,4
17509.906,-0.52,0.603,0.883,-90.0,0.4,38.88,2,4
17509.921,-0.493,0.585,0.847,-93.45,-0.64,52.67,2,4
17509.937,-0.463,0.547,0.833,-93.81,-0.24,60.18,2,4
17509.937,-0.439,0.478,0.824,-88.2,1.92,61.71,2,4
17509.953,-0.429,0.413,0.831,-82.0,6.16,59.45,2,4
17509.968,-0.463,0.381,0.849,-78.01,10.65,57.13,2,4
17509.968,-0.491,0.372,0.849,-76.11,12.7,55.67,2,4
17509.984,-0.488,0.336,0.846,-75.96,12.39,54.96,2,4
17509.984,-0.496,0.305,0.835,-74.65,12.94,54.99,2,4
17510.0,-0.474,0.264,0.825,-71.99,15.78,55.6,2,4
17510.015,-0.447,0.245,0.832,-69.67,21.03,54.35,2,4
17510.015,-0.436,0.221,0.874,-69.03,27.89,51.27,2,4
17510.031,-0.424,0.194,0.932,-68.42,33.27,47.79,2,4
17510.046,-0.433,0.159,0.979,-67.05,36.41,44.43,2,4
17510.046,-0.417,0.114,1.015,-65.83,37.32,40.93,2,4
17510.062,-0.407,0.072,1.03,-64.0,36.32,35.58,2,4
17510.078,-0.397,0.039,1.038,-62.26,35.55,27.99,2,4
17510.078,-0.391,0.023,1.061,-61.8,35.22,18.22,2,4
17510.093,-0.397,0.021,1.076,-60.79,34.12,7.48,2,4
17510.109,-0.381,0.017,1.088,-60.15,32.32,-1.98,2,4
17510.109,-0.372,0.033,1.101,-61.53,30.24,-9.46,2,4
17510.125,-0.354,0.037,1.113,-62.96,27.01,-15.2,2,4
17510.125,-0.319,0.063,1.101,-62.01,23.32,-19.35,2,4
17510.14,-0.293,0.109,1.076,-59.6,19.81,-20.54,2,4
17510.156,-0.299,0.163,1.055,-55.73,16.27,-18.31,2,4
17510.156,-0.319,0.215,1.034,-51.3,12.94,-13.0,2,4
17510.171,-0.334,0.264,0.985,-48.59,10.28,-6.59,2,4
17510.187,-0.344,0.285,0.943,-47.03,9.86,0.58,2,4
17510.187,-0.353,0.294,0.919,-44.28,12.42,8.06,2,4
17510.203,-0.337,0.323,0.908,-42.42,16.11,15.66,2,4
17510.203,-0.3,0.324,0.939,-41.96,20.39,24.26,2,4
17510.218,-0.312,0.319,0.99,-39.8,24.63,31.59,2,4
17510.234,-0.304,0.264,1.042,-37.97,25.54,36.71,2,4
17510.234,-0.287,0.225,1.089,-36.84,22.98,38.3,2,4
17510.25,-0.286,0.168,1.127,-34.7,17.3,35.22,2,4
17510.265,-0.302,0.134,1.137,-29.85,9.89,28.66,2,4
17510.281,-0.321,0.157,1.081,-24.08,2.11,20.26,2,4
17510.281,-0.35,0.185,1.013,-22.25,-3.23,14.07,2,4
17510.296,-0.354,0.189,0.971,-22.06,-3.66,12.91,2,4
17510.296,-0.399,0.197,0.951,-20.81,0.37,14.77,2,4
17510.312,-0.435,0.161,0.963,-21.42,3.97,19.23,2,4
17510.328,-0.425,0.116,0.987,-20.11,5.1,24.14,2,4
17510.328,-0.422,0.095,0.979,-17.79,4.06,26.76,2,4
17510.343,-0.437,0.075,0.978,-18.1,0.92,27.47,2,4
17510.343,-0.44,0.057,0.928,-17.82,-3.66,27.53,2,4
17510.359,-0.404,0.052,0.861,-16.6,-5.95,27.07,2,4
17510.375,-0.395,0.057,0.818,-16.08,-3.63,25.76,2,4
17510.375,-0.416,0.046,0.814,-15.53,1.74,23.87,2,4
17510.39,-0.44,0.03,0.819,-13.82,6.87,21.7,2,4
17510.406,-0.455,0.033,0.854,-11.38,10.62,18.52,2,4
17510.406,-0.462,0.031,0.869,-9.16,12.09,14.89,2,4
17510.421,-0.443,0.019,0.892,-6.47,11.96,11.51,2,4
17510.437,-0.431,0.036,0.897,-3.17,12.42,7.29,2,4
17510.437,-0.445,0.037,0.913,-1.56,12.88,4.64,2,4
17510.453,-0.451,0.056,0.949,-1.68,12.15,4.7,2,4
17510.453,-0.455,0.06,0.971,-3.11,9.43,5.4,2,4
17510.468,-0.47,0.057,0.972,-5.16,5.71,6.16,2,4
17510.484,-0.473,0.047,0.943,-4.52,2.08,7.08,2,4
17510.484,-0.452,0.053,0.883,-2.56,-0.43,6.35,2,4
17510.5,-0.41,0.085,0.828,-1.43,-1.22,3.39,2,4
17510.515,-0.366,0.141,0.811,-0.31,0.31,-0.46,2,4
17510.515,-0.353,0.17,0.827,1.62,3.23,-2.17,2,4
17510.531,-0.373,0.2,0.89,4.76,6.16,0.03,2,4
17510.546,-0.43,0.215,0.959,6.38,6.26,4.79,2,4
17510.546,-0.474,0.195,0.99,5.77,2.2,11.6,2,4
17510.562,-0.453,0.164,0.976,4.49,-3.94,19.26,2,4
17510.562,-0.427,0.131,0.955,4.27,-7.39,25.24,2,4
17510.578,-0.422,0.103,0.942,3.11,-8.79,28.81,2,4
17510.593,-0.428,0.081,0.944,1.04,-9.83,31.01,2,4
17510.609,-0.444,0.045,0.947,-0.55,-11.26,31.71,2,4
17510.609,-0.431,-0.0,0.944,-0.76,-12.39,30.09,2,4
17510.625,-0.425,-0.029,0.922,-0.06,-12.76,26.06,2,4
17510.625,-0.411,-0.062,0.902,0.7,-12.45,20.54,2,4
17510.64,-0.39,-0.087,0.883,3.36,-10.96,12.33,2,4
17510.656,-0.409,-0.058,0.867,6.5,-8.45,1.98,2,4
17510.656,-0.44,-0.022,0.884,7.35,-6.74,-5.37,2,4
17510.671,-0.469,0.02,0.887,7.39,-6.47,-8.36,2,4
17510.687,-0.467,0.043,0.877,7.29,-6.53,-7.54,2,4
17510.687,-0.473,0.056,0.886,6.56,-5.74,-5.13,2,4
17510.703,-0.485,0.071,0.878,5.31,-5.37,-1.77,2,4
17510.703,-0.485,0.073,0.876,2.96,-6.35,2.87,2,4
17510.718,-0.46,0.073,0.852,1.43,-7.26,7.84,2,4
17510.734,-0.415,0.051,0.831,0.43,-6.78,11.38,2,4
17510.734,-0.399,0.031,0.833,0.79,-4.06,12.02,2,4
17510.75,-0.412,0.029,0.845,1.59,-1.04,10.35,2,4
17510.765,-0.44,0.018,0.875,1.04,-0.03,7.32,2,4
17510.765,-0.462,0.009,0.893,2.32,-0.85,3.36,2,4
17510.781,-0.472,0.04,0.887,3.6,-2.66,0.21,2,4
17510.796,-0.466,0.059,0.885,2.9,-4.09,-0.12,2,4
17510.796,-0.451,0.064,0.878,3.33,-4.21,1.56,2,4
17510.812,-0.456,0.08,0.876,3.27,-3.75,3.23,2,4
17510.812,-0.47,0.075,0.888,0.67,-4.03,5.31,2,4
17510.828,-0.48,0.059,0.907,-0.49,-4.24,6.78,2,4
17510.843,-0.483,0.059,0.89,0.37,-4.85,7.02,2,4
17510.843,-0.474,0.058,0.866,-0.24,-5.28,7.45,2,4
17510.859,-0.452,0.032,0.85,-0.09,-4.06,7.81,2,4
17510.875,-0.452,0.031,0.842,0.03,-1.04,6.96,2,4
17510.875,-0.457,0.031,0.855,-2.04,0.82,5.62,2,4
17510.89,-0.45,0.033,0.87,-3.11,1.01,3.94,2,4
17510.906,-0.435,0.045,0.875,0.76,0.95,0.34,2,4
17510.906,-0.423,0.068,0.87,1.62,1.59,0.06,2,4
17510.921,-0.439,0.066,0.897,2.53,0.73,0.73,2,4
17510.937,-0.458,0.076,0.905,1.77,-2.32,2.26,2,4
17510.937,-0.44,0.074,0.879,0.89,-4.18,3.63,2,4
17510.953,-0.424,0.086,0.855,0.52,-3.78,4.76,2,4
17510.953,-0.419,0.102,0.857,-1.89,-2.62,6.04,2,4
17510.968,-0.432,0.096,0.882,-2.99,-2.01,7.11,2,4
17510.984,-0.429,0.091,0.882,-0.82,-2.38,8.15,2,4
17510.984,-0.418,0.103,0.874,1.37,-2.69,8.58,2,4
17511.0,-0.412,0.105,0.872,2.66,-2.72,8.3,2,4
17511.015,-0.395,0.113,0.873,3.33,-2.44,8.3,2,4
17511.031,-0.385,0.124,0.891,2.87,-2.38,8.21,2,4
17511.031,-0.388,0.126,0.92,2.59,-2.59,8.0,2,4
17511.046,-0.397,0.123,0.929,2.99,-3.75,8.18,2,4
17511.046,-0.411,0.112,0.929,2.84,-5.25,8.82,2,4
17511.062,-0.416,0.082,0.931,2.53,-6.56,9.77,2,4
17511.062,-0.427,0.065,0.925,2.87,-7.08,9.92,2,4
17511.078,-0.442,0.055,0.915,2.41,-7.69,8.76,2,4
17511.093,-0.457,0.04,0.904,2.08,-8.24,6.9,2,4
17511.093,-0.459,0.041,0.88,2.53,-8.12,5.55,2,4
17511.109,-0.447,0.035,0.866,2.62,-7.08,4.82,2,4
17511.125,-0.431,0.018,0.866,3.54,-5.04,3.3,2,4
17511.125,-0.436,0.024,0.878,4.12,-2.99,0.95,2,4
17511.14,-0.452,0.011,0.897,3.88,-2.62,-1.43,2,4
17511.156,-0.464,0.021,0.876,4.18,-3.54,-4.21,2,4
17511.156,-0.454,0.04,0.849,3.42,-4.27,-6.13,2,4
17511.171,-0.435,0.029,0.842,2.35,-2.81,-6.9,2,4
17511.187,-0.43,0.029,0.856,3.66,0.46,-7.81,2,4
17511.187,-0.452,0.048,0.879,3.75,2.62,-8.79,2,4
17511.203,-0.462,0.056,0.901,2.17,1.8,-8.27,2,4
17511.203,-0.453,0.067,0.89,1.4,0.31,-6.68,2,4
17511.218,-0.447,0.079,0.877,-0.37,-0.67,-4.67,2,4
17511.234,-0.453,0.081,0.874,-1.34,-0.43,-1.98,2,4
17511.25,-0.451,0.074,0.877,-1.16,0.4,0.52,2,4
17511.25,-0.45,0.078,0.876,-1.43,0.79,2.41,2,4
17511.265,-0.443,0.08,0.874,-3.05,0.82,4.09,2,4
17511.265,-0.431,0.056,0.88,-4.55,1.37,6.07,2,4
17511.281,-0.427,0.044,0.889,-5.65,2.5,6.23,2,4
17511.281,-0.432,0.045,0.902,-7.45,2.84,4.88,2,4
17511.296,-0.428,0.031,0.909,-8.67,1.8,2.99,2,4
17511.312,-0.413,0.036,0.91,-6.84,1.1,-0.34,2,4
17511.328,-0.419,0.057,0.897,-4.39,1.34,-4.24,2,4
17511.328,-0.427,0.078,0.903,-3.14,1.22,-5.98,2,4
17511.343,-0.429,0.094,0.911,-2.32,0.49,-5.83,2,4
17511.343,-0.425,0.115,0.909,-2.84,-0.76,-4.67,2,4
17511.359,-0.424,0.125,0.918,-4.52,-1.74,-2.56,2,4
17511.375,-0.433,0.124,0.918,-5.04,-2.32,0.18,2,4
17511.375,-0.435,0.122,0.908,-5.65,-3.23,3.42,2,4
17511.39,-0.433,0.113,0.901,-6.87,-3.88,5.92,2,4
17511.406,-0.428,0.096,0.889,-7.75,-3.88,7.54,2,4
17511.406,-0.423,0.077,0.884,-8.0,-2.93,8.21,2,4
17511.421,-0.427,0.059,0.886,-6.99,-1.34,7.69,2,4
17511.437,-0.426,0.052,0.888,-5.25,-0.18,6.16,2,4
17511.437,-0.409,0.059,0.888,-4.88,0.24,4.46,2,4
17511.453,-0.403,0.062,0.897,-5.1,0.34,3.05,2,4
17511.468,-0.408,0.076,0.895,-4.43,0.27,2.08,2,4
17511.468,-0.407,0.089,0.895,-4.27,0.15,1.83,2,4
17511.484,-0.424,0.1,0.898,-3.88,0.18,2.2,2,4
17511.484,-0.428,0.116,0.894,-4.27,-0.43,3.78,2,4
17511.5,-0.422,0.121,0.894,-6.2,-1.01,6.96,2,4
17511.515,-0.425,0.11,0.893,-6.62,-0.7,9.89,2,4
17511.515,-0.424,0.099,0.887,-6.38,-0.12,12.48,2,4
17511.531,-0.42,0.081,0.902,-6.65,0.31,14.31,2,4
17511.546,-0.422,0.07,0.907,-6.1,0.31,14.56,2,4
17511.546,-0.415,0.059,0.908,-5.62,-0.37,13.67,2,4
17511.562,-0.411,0.066,0.908,-4.64,-0.89,11.6,2,4
17511.562,-0.421,0.08,0.907,-4.39,-1.04,9.95,2,4
17511.578,-0.433,0.074,0.912,-5.25,-1.1,10.07,2,4
17511.593,-0.452,0.059,0.919,-4.61,-1.1,9.13,2,4
17511.609,-0.469,0.062,0.906,-2.93,-1.98,7.42,2,4
17511.609,-0.458,0.064,0.888,-2.96,-3.23,6.65,2,4
17511.625,-0.427,0.046,0.88,-3.08,-3.02,6.23,2,4
17511.625,-0.423,0.05,0.885,-2.23,-1.13,4.55,2,4
17511.64,-0.434,0.053,0.909,-2.04,-0.18,2.59,2,4
17511.656,-0.441,0.06,0.921,-1.95,-0.85,1.19,2,4
17511.656,-0.438,0.066,0.914,-1.31,-2.29,0.27,2,4
17511.671,-0.433,0.077,0.892,-0.67,-3.42,-0.76,2,4
17511.687,-0.426,0.08,0.874,-0.12,-3.42,-1.71,2,4
17511.687,-0.418,0.076,0.878,0.89,-2.11,-2.38,2,4
17511.703,-0.424,0.086,0.88,2.75,-0.27,-3.66,2,4
17511.703,-0.427,0.101,0.89,3.51,0.67,-4.27,2,4
17511.718,-0.428,0.107,0.899,3.39,0.92,-3.6,2,4
17511.734,-0.439,0.112,0.904,2.99,0.82,-2.44,2,4
17511.734,-0.441,0.109,0.907,2.29,0.24,-0.67,2,4
17511.75,-0.443,0.103,0.91,1.62,-0.21,1.68,2,4
17511.765,-0.451,0.098,0.899,1.46,-0.24,3.91,2,4
17511.765,-0.447,0.097,0.882,0.12,-0.34,6.38,2,4
17511.781,-0.432,0.088,0.876,-1.53,0.31,8.79,2,4
17511.796,-0.429,0.071,0.879,-2.2,1.68,9.77,2,4
17511.796,-0.434,0.056,0.898,-1.77,2.38,9.46,2,4
17511.812,-0.418,0.039,0.907,-0.27,2.04,8.15,2,4
17511.828,-0.409,0.035,0.913,1.53,1.77,5.52,2,4
17511.828,-0.416,0.033,0.915,2.81,1.37,2.08,2,4
17511.843,-0.424,0.04,0.912,3.6,0.52,-0.79,2,4
17511.843,-0.414,0.045,0.901,4.03,-0.34,-2.59,2,4
17511.859,-0.412,0.043,0.91,4.61,-0.52,-3.97,2,4
17511.875,-0.437,0.053,0.905,5.49,-0.79,-5.62,2,4
17511.875,-0.449,0.065,0.887,4.39,-2.08,-6.87,2,4
17511.89,-0.444,0.079,0.867,3.51,-0.7,-5.65,2,4
17511.906,-0.441,0.093,0.853,1.95,1.34,-3.48,2,4
17511.906,-0.439,0.081,0.885,1.13,2.69,-1.59,2,4
17511.921,-0.44,0.076,0.889,1.4,2.9,-0.12,2,4
17511.921,-0.426,0.075,0.89,0.76,2.26,1.1,2,4
17511.937,-0.418,0.064,0.9,0.0,1.92,1.77,2,4
17511.953,-0.427,0.057,0.906,0.82,1.92,1.46,2,4
17511.968,-0.436,0.068,0.899,1.53,1.19,0.79,2,4
17511.968,-0.437,0.078,0.904,1.71,0.03,0.4,2,4
17511.984,-0.419,0.084,0.877,1.13,-0.64,0.85,2,4
17511.984,-0.422,0.075,0.892,1.19,0.52,1.31,2,4
17512.0,-0.437,0.078,0.897,1.92,1.19,1.56,2,4
17512.015,-0.437,0.081,0.904,1.25,0.34,2.11,2,4
17512.015,-0.433,0.074,0.905,0.85,-1.01,2.35,2,4
17512.031,-0.426,0.073,0.897,1.25,-1.89,2.32,2,4
17512.046,-0.416,0.071,0.893,2.01,-2.14,2.17,2,4
17512.046,-0.415,0.075,0.892,2.29,-1.95,1.37,2,4
