timestamp,ax,ay,az,gx,gy,gz,orient_label,motion_label
17579.546,-0.859,-0.007,0.473,0.79,-1.56,1.92,2,5
17579.546,-0.854,-0.005,0.465,2.87,-1.46,3.33,2,5
17579.562,-0.847,0.002,0.458,3.57,-1.53,3.27,2,5
17579.578,-0.856,0.007,0.451,2.66,-1.19,1.77,2,5
17579.578,-0.86,0.007,0.449,1.16,-0.58,-0.09,2,5
17579.593,-0.863,0.005,0.455,-0.21,0.09,-2.32,2,5
17579.593,-0.874,0.002,0.468,-0.76,0.89,-4.03,2,5
17579.609,-0.865,0.005,0.476,-0.18,1.28,-4.27,2,5
17579.625,-0.863,0.013,0.475,1.34,1.56,-3.97,2,5
17579.64,-0.864,0.022,0.478,1.68,1.34,-3.05,2,5
17579.64,-0.862,0.025,0.482,0.98,1.01,-2.26,2,5
17579.656,-0.866,0.015,0.488,0.79,0.85,-1.37,2,5
17579.656,-0.865,0.012,0.489,1.4,0.21,-0.24,2,5
17579.671,-0.86,0.019,0.48,2.44,-0.67,0.4,2,5
17579.687,-0.853,0.018,0.468,2.66,-1.89,1.34,2,5
17579.687,-0.844,0.009,0.457,2.23,-2.75,2.44,2,5
17579.703,-0.838,0.003,0.444,2.75,-2.26,2.38,2,5
17579.718,-0.855,-0.004,0.44,2.23,0.92,-1.37,2,5
17579.734,-0.864,0.004,0.449,1.53,2.5,-3.57,2,5
17579.734,-0.874,0.008,0.46,1.34,3.02,-5.55,2,5
17579.75,-0.885,0.018,0.469,0.98,2.38,-6.62,2,5
17579.765,-0.883,0.034,0.469,-0.55,-0.58,-6.13,2,5
17579.765,-0.876,0.041,0.467,-1.07,-1.86,-5.31,2,5
17579.781,-0.874,0.037,0.464,-0.98,-2.75,-4.09,2,5
17579.796,-0.867,0.04,0.453,-0.27,-2.96,-2.11,2,5
17579.796,-0.864,0.043,0.443,0.27,-2.53,0.24,2,5
17579.812,-0.865,0.045,0.442,0.09,-1.37,2.26,2,5
17579.828,-0.867,0.042,0.452,0.06,0.15,4.43,2,5
17579.828,-0.856,0.055,0.456,0.24,0.95,6.56,2,5
17579.843,-0.846,0.061,0.458,0.09,1.01,8.03,2,5
17579.843,-0.853,0.063,0.459,-1.07,0.37,9.8,2,5
17579.859,-0.865,0.063,0.466,-2.72,-0.58,11.96,2,5
17579.875,-0.866,0.066,0.467,-4.18,-2.69,13.98,2,5
17579.89,-0.836,0.106,0.447,-8.73,-9.61,18.19,2,5
17579.906,-0.792,0.138,0.417,-12.97,-15.02,19.96,2,5
17579.921,-0.731,0.168,0.385,-18.77,-21.64,20.75,2,5
17579.921,-0.678,0.201,0.336,-26.09,-29.88,19.62,2,5
17579.937,-0.62,0.241,0.308,-37.48,-39.7,17.76,2,5
17579.937,-0.524,0.271,0.255,-52.0,-52.03,14.44,2,5
17579.953,-0.495,0.263,0.222,-66.68,-60.64,13.86,2,5
17579.968,-0.542,0.181,0.245,-77.49,-62.78,23.47,2,5
17579.968,-0.568,0.091,0.283,-79.01,-63.54,41.75,2,5
17579.984,-0.578,0.048,0.264,-70.53,-65.52,61.59,2,5
17580.0,-0.589,0.033,0.219,-59.6,-69.06,78.4,2,5
17580.0,-0.6,0.021,0.161,-51.76,-78.01,90.33,2,5
17580.015,-0.556,0.036,0.065,-48.8,-94.42,97.75,2,5
17580.015,-0.417,0.082,-0.023,-52.03,-111.94,101.2,2,5
17580.031,-0.291,0.09,-0.074,-59.48,-120.73,100.59,2,5
17580.046,-0.291,0.03,-0.102,-66.47,-118.26,99.03,2,5
17580.046,-0.33,-0.044,-0.095,-68.48,-108.58,98.27,2,5
17580.062,-0.382,-0.077,-0.062,-62.17,-95.92,95.92,2,5
17580.078,-0.451,-0.084,-0.042,-51.58,-84.66,92.38,2,5
17580.078,-0.461,-0.071,-0.032,-42.54,-77.09,89.85,2,5
17580.093,-0.37,-0.053,-0.02,-36.13,-69.06,88.5,2,5
17580.109,-0.317,-0.029,0.003,-31.65,-55.27,86.0,2,5
17580.109,-0.357,-0.035,0.039,-27.71,-38.54,84.17,2,5
17580.125,-0.404,-0.038,0.099,-22.4,-24.81,82.92,2,5
17580.125,-0.443,-0.025,0.156,-13.7,-17.73,80.94,2,5
17580.14,-0.475,-0.02,0.208,-1.62,-14.44,81.15,2,5
17580.156,-0.462,-0.022,0.267,12.67,-12.63,83.71,2,5
17580.156,-0.392,0.013,0.323,29.79,-10.16,83.16,2,5
17580.171,-0.391,0.074,0.356,47.46,-4.21,76.63,2,5
17580.187,-0.49,0.115,0.366,60.15,0.46,66.74,2,5
17580.203,-0.589,0.148,0.384,65.0,0.18,55.18,2,5
17580.203,-0.672,0.2,0.436,63.48,-5.16,45.47,2,5
17580.218,-0.746,0.216,0.495,60.85,-15.11,38.67,2,5
17580.218,-0.742,0.219,0.565,57.71,-25.51,35.77,2,5
17580.234,-0.694,0.216,0.645,57.8,-31.43,33.94,2,5
17580.234,-0.68,0.216,0.682,65.98,-34.94,27.28,2,5
17580.25,-0.7,0.238,0.681,73.52,-36.99,17.24,2,5
17580.265,-0.75,0.284,0.682,74.83,-38.51,6.26,2,5
17580.281,-0.816,0.351,0.704,71.29,-42.09,-5.8,2,5
17580.281,-0.881,0.421,0.73,65.03,-46.88,-19.35,2,5
17580.296,-0.915,0.472,0.791,52.98,-47.15,-30.27,2,5
17580.296,-0.908,0.491,0.892,34.85,-42.02,-33.75,2,5
17580.312,-0.899,0.523,0.993,15.78,-36.81,-33.17,2,5
17580.328,-0.909,0.534,1.042,1.19,-36.5,-32.84,2,5
17580.328,-0.91,0.513,1.071,-9.58,-37.17,-31.68,2,5
17580.343,-0.906,0.518,1.119,-16.54,-37.57,-29.45,2,5
17580.359,-0.92,0.558,1.172,-18.4,-43.89,-27.62,2,5
17580.359,-0.95,0.519,1.227,-15.29,-52.89,-22.49,2,5
17580.375,-0.923,0.422,1.326,-11.26,-57.34,-11.51,2,5
17580.39,-0.793,0.285,1.437,1.16,-69.06,3.45,2,5
17580.406,-0.708,0.289,1.431,6.32,-70.25,2.14,2,5
17580.406,-0.705,0.335,1.354,5.65,-81.18,-7.02,2,5
17580.421,-0.649,0.352,1.273,-0.7,-91.86,-16.69,2,5
17580.437,-0.649,0.405,1.249,-7.11,-97.17,-20.78,2,5
17580.437,-0.636,0.417,1.243,-6.32,-106.33,-19.01,2,5
17580.453,-0.584,0.393,1.217,0.49,-110.87,-11.26,2,5
17580.468,-0.563,0.38,1.186,9.67,-110.6,-2.87,2,5
17580.468,-0.524,0.346,1.162,21.91,-109.81,4.67,2,5
17580.484,-0.469,0.327,1.134,36.81,-100.01,7.32,2,5
17580.5,-0.479,0.305,1.103,45.72,-89.91,4.79,2,5
17580.5,-0.422,0.253,1.114,47.4,-76.51,3.85,2,5
17580.515,-0.386,0.231,1.146,47.4,-55.45,2.72,2,5
17580.515,-0.431,0.222,1.158,46.97,-46.17,-3.3,2,5
17580.531,-0.419,0.179,1.166,48.77,-45.5,-7.39,2,5
17580.546,-0.403,0.2,1.153,54.84,-47.7,-14.44,2,5
17580.562,-0.417,0.307,1.096,68.27,-52.46,-34.42,2,5
17580.578,-0.436,0.379,1.048,68.18,-55.15,-44.4,2,5
17580.578,-0.445,0.442,1.005,61.68,-56.43,-49.35,2,5
17580.593,-0.442,0.491,0.957,50.69,-53.19,-48.19,2,5
17580.609,-0.439,0.51,0.938,35.58,-46.17,-40.8,2,5
17580.609,-0.428,0.503,0.946,18.74,-39.49,-30.18,2,5
17580.625,-0.431,0.501,0.984,3.75,-35.83,-20.05,2,5
17580.625,-0.424,0.485,1.003,-6.38,-37.54,-11.9,2,5
17580.64,-0.396,0.48,1.03,-12.54,-41.26,-5.71,2,5
17580.656,-0.403,0.485,1.05,-14.37,-43.92,-0.09,2,5
17580.656,-0.411,0.465,1.043,-12.88,-46.63,6.56,2,5
17580.671,-0.382,0.445,1.036,-11.2,-48.1,14.86,2,5
17580.687,-0.341,0.479,1.017,-9.16,-45.78,19.81,2,5
17580.687,-0.356,0.466,0.988,-8.33,-40.13,20.91,2,5
17580.703,-0.351,0.442,0.985,-11.9,-34.49,21.27,2,5
17580.718,-0.349,0.446,1.015,-14.95,-28.84,21.18,2,5
17580.718,-0.356,0.431,1.027,-12.33,-25.06,21.94,2,5
17580.734,-0.338,0.432,1.024,-7.23,-23.16,23.68,2,5
17580.75,-0.326,0.444,1.038,4.12,-22.58,26.0,2,5
17580.75,-0.318,0.43,1.025,7.17,-23.71,26.06,2,5
17580.765,-0.295,0.423,0.995,8.45,-23.5,24.78,2,5
17580.781,-0.275,0.412,0.964,7.08,-23.04,21.36,2,5
17580.781,-0.255,0.389,0.907,2.75,-23.01,16.85,2,5
17580.796,-0.233,0.374,0.877,-2.08,-21.85,12.18,2,5
17580.796,-0.216,0.35,0.854,-5.19,-18.34,8.91,2,5
17580.812,-0.199,0.34,0.846,-5.65,-12.54,7.63,2,5
17580.828,-0.198,0.328,0.855,-2.14,-5.19,7.45,2,5
17580.828,-0.21,0.313,0.857,4.39,1.89,8.36,2,5
17580.843,-0.232,0.307,0.863,12.85,7.42,9.46,2,5
17580.843,-0.259,0.322,0.862,20.26,10.47,9.61,2,5
17580.859,-0.276,0.336,0.862,22.37,9.34,7.35,2,5
17580.875,-0.304,0.346,0.86,18.98,5.01,3.05,2,5
17580.875,-0.31,0.346,0.86,11.14,-1.59,-0.4,2,5
17580.89,-0.274,0.381,0.849,3.39,-6.35,-4.03,2,5
17580.906,-0.278,0.374,0.814,-1.74,-6.59,-8.67,2,5
17580.906,-0.279,0.351,0.808,-7.2,-3.97,-10.77,2,5
17580.921,-0.29,0.342,0.814,-9.89,-0.55,-11.72,2,5
17580.937,-0.307,0.337,0.823,-9.34,1.95,-11.96,2,5
17580.937,-0.322,0.338,0.845,-6.59,4.15,-10.77,2,5
17580.953,-0.34,0.351,0.847,-1.31,5.25,-8.42,2,5
17580.968,-0.342,0.366,0.848,3.05,4.73,-5.58,2,5
17580.968,-0.339,0.374,0.84,4.27,3.69,-4.64,2,5
17580.984,-0.338,0.376,0.826,2.62,3.27,-4.49,2,5
17581.0,-0.345,0.38,0.821,-0.89,3.57,-4.27,2,5
17581.0,-0.346,0.382,0.833,-4.94,3.75,-3.63,2,5
17581.015,-0.348,0.378,0.847,-7.93,3.78,-2.72,2,5
17581.015,-0.348,0.371,0.854,-10.01,3.42,-1.31,2,5
17581.031,-0.351,0.372,0.869,-11.93,3.05,-0.24,2,5
17581.046,-0.353,0.365,0.878,-13.03,1.77,0.46,2,5
17581.046,-0.35,0.358,0.886,-13.31,-0.24,0.61,2,5
17581.078,-0.343,0.375,0.903,-11.14,-3.33,1.8,2,5
17581.078,-0.338,0.367,0.898,-8.0,-4.09,3.08,2,5
17581.093,-0.33,0.366,0.889,-5.1,-3.57,4.58,2,5
17581.093,-0.316,0.37,0.882,-3.39,-2.23,5.55,2,5
17581.109,-0.303,0.36,0.869,-2.47,-0.52,4.7,2,5
17581.125,-0.289,0.355,0.856,-3.11,1.8,2.9,2,5
17581.14,-0.276,0.357,0.85,-4.43,4.88,1.1,2,5
17581.14,-0.282,0.356,0.861,-4.39,8.45,-0.52,2,5
17581.156,-0.302,0.359,0.881,-2.9,10.8,-1.16,2,5
17581.156,-0.326,0.365,0.901,-0.76,10.62,-0.61,2,5
17581.171,-0.334,0.368,0.914,0.82,7.51,0.61,2,5
17581.187,-0.323,0.366,0.914,1.4,3.23,2.08,2,5
17581.187,-0.309,0.378,0.904,0.18,-0.4,1.77,2,5
17581.203,-0.304,0.363,0.901,-2.9,-3.75,2.14,2,5
17581.218,-0.295,0.356,0.9,-5.28,-6.07,2.56,2,5
17581.218,-0.283,0.349,0.889,-6.53,-7.26,2.5,2,5
17581.234,-0.283,0.341,0.886,-5.49,-5.22,1.46,2,5
17581.25,-0.295,0.346,0.891,-3.48,-3.97,0.43,2,5
17581.265,-0.308,0.352,0.898,-1.65,-3.66,-0.7,2,5
17581.265,-0.318,0.363,0.9,-0.67,-4.58,-1.86,2,5
17581.281,-0.314,0.371,0.896,-1.13,-5.98,-2.29,2,5
17581.296,-0.315,0.366,0.888,-2.17,-6.84,-2.75,2,5
17581.296,-0.319,0.351,0.875,-2.66,-7.26,-3.14,2,5
17581.312,-0.323,0.331,0.867,-1.71,-6.53,-2.99,2,5
17581.328,-0.325,0.322,0.852,1.19,-4.52,-2.35,2,5
17581.328,-0.318,0.298,0.815,6.07,-0.98,-2.56,2,5
17581.343,-0.325,0.293,0.806,9.09,3.66,-4.94,2,5
17581.359,-0.33,0.302,0.823,10.71,7.72,-7.9,2,5
17581.359,-0.252,0.259,0.781,12.21,11.69,-11.17,2,5
17581.375,-0.449,0.39,0.888,17.3,19.23,-15.2,2,5
17581.375,-0.53,0.404,1.031,25.88,14.74,-7.29,2,5
17581.39,-0.39,0.462,0.942,15.99,-5.65,-3.39,2,5
17581.406,-0.322,0.429,0.886,1.22,-4.94,0.85,2,5
17581.421,-0.339,0.417,0.89,-2.62,-1.16,2.93,2,5
17581.437,-0.341,0.384,0.895,-5.74,-0.55,4.15,2,5
17581.437,-0.346,0.359,0.907,-6.65,-2.5,3.45,2,5
17581.453,-0.349,0.33,0.901,-3.78,-6.29,2.17,2,5
17581.468,-0.336,0.323,0.899,0.4,-10.32,1.31,2,5
17581.468,-0.328,0.32,0.891,5.13,-13.7,0.58,2,5
17581.484,-0.312,0.325,0.879,7.87,-17.03,0.79,2,5
17581.484,-0.339,0.364,0.9,8.36,-19.75,1.89,2,5
17581.5,-0.259,0.332,0.859,4.82,-24.63,4.21,2,5
17581.515,-0.226,0.364,0.81,-1.01,-24.17,2.69,2,5
17581.515,-0.287,0.32,0.815,2.96,-15.78,3.14,2,5
17581.531,-0.293,0.35,0.859,-1.89,-16.42,2.08,2,5
17581.546,-0.273,0.375,0.886,-4.85,-19.29,2.84,2,5
17581.546,-0.255,0.343,0.864,-6.81,-21.45,2.26,2,5
17581.562,-0.23,0.341,0.862,-11.05,-21.58,0.7,2,5
17581.578,-0.231,0.327,0.865,-8.06,-15.44,-2.5,2,5
17581.593,-0.232,0.325,0.88,-6.01,-13.0,-4.15,2,5
17581.609,-0.245,0.334,0.896,-4.24,-11.57,-5.37,2,5
17581.609,-0.251,0.339,0.904,-4.03,-11.54,-5.98,2,5
17581.625,-0.243,0.345,0.898,-4.79,-11.99,-6.1,2,5
17581.625,-0.221,0.341,0.873,-5.28,-10.96,-6.23,2,5
17581.64,-0.197,0.33,0.851,-5.92,-6.74,-7.11,2,5
17581.656,-0.19,0.32,0.837,-3.91,0.76,-8.79,2,5
17581.656,-0.197,0.313,0.817,0.55,9.98,-10.59,2,5
17581.671,-0.205,0.313,0.817,5.62,20.17,-12.51,2,5
17581.687,-0.231,0.309,0.801,12.48,30.21,-14.31,2,5
17581.703,-0.251,0.319,0.785,19.44,39.83,-15.11,2,5
17581.703,-0.275,0.329,0.773,25.45,49.23,-15.66,2,5
17581.718,-0.399,0.4,0.777,27.65,57.59,-16.51,2,5
17581.718,-0.467,0.438,0.901,27.28,58.38,-10.59,2,5
17581.734,-0.481,0.447,0.934,-8.24,24.51,-4.97,2,5
17581.75,-0.435,0.437,0.965,-25.73,-6.44,3.39,2,5
17581.765,-0.304,0.308,0.865,-20.45,0.98,0.64,2,5
17581.781,-0.341,0.31,0.902,-6.16,8.97,-1.22,2,5
17581.781,-0.365,0.328,0.924,5.31,10.99,-2.01,2,5
17581.796,-0.373,0.353,0.944,8.82,7.17,-2.32,2,5
17581.812,-0.375,0.374,0.95,7.81,0.12,-2.47,2,5
17581.812,-0.368,0.381,0.939,4.82,-7.23,-1.71,2,5
17581.828,-0.356,0.381,0.923,1.07,-13.89,-1.43,2,5
17581.828,-0.368,0.4,0.93,-2.32,-18.92,-0.92,2,5
17581.843,-0.333,0.384,0.934,-2.9,-23.62,3.05,2,5
17581.859,-0.26,0.343,0.837,-6.47,-26.25,2.84,2,5
17581.859,-0.295,0.349,0.856,-5.71,-20.11,1.34,2,5
17581.875,-0.314,0.323,0.905,-1.07,-16.82,1.95,2,5
17581.875,-0.291,0.337,0.909,-0.18,-19.14,1.59,2,5
17581.89,-0.274,0.345,0.875,-1.04,-19.93,1.1,2,5
17581.906,-0.275,0.342,0.874,-1.37,-18.4,0.37,2,5
17581.921,-0.264,0.336,0.881,-0.43,-17.24,-0.73,2,5
17581.937,-0.254,0.341,0.877,-0.85,-16.69,-1.34,2,5
17581.937,-0.255,0.343,0.879,-0.21,-14.62,-1.13,2,5
17581.953,-0.26,0.356,0.874,0.89,-12.51,-0.03,2,5
17581.968,-0.253,0.36,0.869,1.22,-10.96,1.22,2,5
17581.968,-0.247,0.353,0.857,1.74,-8.76,1.89,2,5
17581.984,-0.247,0.345,0.841,2.66,-5.4,2.04,2,5
17582.0,-0.247,0.34,0.833,3.85,-1.62,1.46,2,5
17582.0,-0.249,0.334,0.822,5.49,2.56,0.73,2,5
17582.015,-0.263,0.33,0.817,7.51,7.02,0.18,2,5
17582.015,-0.276,0.323,0.809,9.92,11.2,0.61,2,5
17582.031,-0.281,0.332,0.796,11.29,14.59,1.59,2,5
17582.046,-0.275,0.335,0.777,11.17,18.19,2.38,2,5
17582.046,-0.266,0.317,0.762,9.58,22.83,2.14,2,5
17582.062,-0.258,0.303,0.748,6.5,28.84,0.15,2,5
17582.078,-0.247,0.285,0.735,3.17,36.44,-3.6,2,5
17582.093,-0.25,0.269,0.663,4.03,60.64,-16.21,2,5
17582.109,-0.382,0.391,0.763,9.09,79.87,-18.83,2,5
17582.109,-0.662,0.498,1.096,12.18,82.67,-11.75,2,5
17582.125,-0.695,0.646,1.238,-1.83,49.53,3.75,2,5
17582.125,-0.52,0.586,1.091,-21.18,6.99,13.06,2,5
17582.14,-0.372,0.376,0.972,-32.78,-12.27,12.21,2,5
17582.156,-0.323,0.278,0.921,-31.59,-12.24,6.99,2,5
17582.156,-0.335,0.262,0.892,-13.37,-4.12,2.66,2,5
17582.171,-0.38,0.28,0.885,6.38,3.2,-0.09,2,5
17582.187,-0.412,0.318,0.887,16.75,4.55,-2.41,2,5
17582.187,-0.431,0.356,0.87,20.05,1.13,-3.51,2,5
17582.203,-0.431,0.376,0.86,18.95,-3.91,-2.5,2,5
17582.218,-0.434,0.384,0.844,15.81,-9.49,-0.85,2,5
17582.218,-0.443,0.401,0.839,10.22,-15.32,1.5,2,5
17582.234,-0.42,0.41,0.864,3.69,-21.15,5.31,2,5
17582.234,-0.33,0.373,0.782,-4.06,-25.91,6.01,2,5
17582.265,-0.383,0.357,0.812,-4.82,-17.12,4.33,2,5
17582.265,-0.354,0.382,0.839,-6.16,-17.09,4.46,2,5
17582.281,-0.34,0.365,0.824,-6.1,-16.05,3.48,2,5
17582.296,-0.335,0.349,0.826,-5.89,-13.15,1.92,2,5
17582.296,-0.335,0.336,0.833,-3.63,-9.61,0.21,2,5
17582.312,-0.333,0.339,0.855,-0.34,-6.56,-1.65,2,5
17582.328,-0.348,0.353,0.868,3.39,-3.88,-3.81,2,5
17582.328,-0.355,0.372,0.867,6.68,-2.29,-4.12,2,5
17582.343,-0.357,0.376,0.861,9.4,-0.64,-3.2,2,5
17582.343,-0.356,0.38,0.856,10.5,1.37,-2.44,2,5
17582.359,-0.36,0.392,0.857,10.28,3.78,-2.35,2,5
17582.375,-0.382,0.395,0.858,10.16,6.99,-2.47,2,5
17582.375,-0.413,0.391,0.868,9.49,9.7,-2.08,2,5
17582.39,-0.442,0.389,0.884,8.18,10.59,-1.77,2,5
17582.406,-0.469,0.387,0.9,7.32,9.58,-2.08,2,5
17582.406,-0.491,0.384,0.906,7.2,7.93,-2.56,2,5
17582.437,-0.527,0.371,0.893,11.11,7.39,-3.78,2,5
17582.437,-0.541,0.368,0.882,14.92,8.12,-4.91,2,5
17582.453,-0.555,0.369,0.864,19.65,9.52,-6.38,2,5
17582.453,-0.568,0.368,0.844,23.8,11.14,-7.51,2,5
17582.468,-0.574,0.369,0.826,26.55,11.93,-8.21,2,5
17582.484,-0.578,0.37,0.808,29.48,12.88,-8.27,2,5
17582.484,-0.584,0.365,0.788,32.62,14.92,-7.2,2,5
17582.5,-0.589,0.362,0.767,35.13,18.31,-5.16,2,5
17582.515,-0.596,0.363,0.751,36.01,22.8,-3.23,2,5
17582.515,-0.6,0.361,0.757,35.58,27.86,-1.86,2,5
17582.531,-0.606,0.354,0.757,34.03,32.93,-0.7,2,5
17582.546,-0.607,0.34,0.747,32.17,36.65,-0.24,2,5
17582.562,-0.603,0.328,0.735,31.19,39.43,-1.01,2,5
17582.562,-0.595,0.313,0.737,30.85,42.02,-2.41,2,5
17582.578,-0.58,0.287,0.731,32.35,45.23,-3.69,2,5
17582.578,-0.557,0.261,0.695,35.8,50.72,-4.64,2,5
17582.609,-0.561,0.227,0.63,51.33,70.59,-5.52,2,5
17582.609,-0.601,0.219,0.609,61.1,81.85,-7.08,2,5
17582.625,-0.628,0.238,0.632,66.38,86.67,-9.7,2,5
17582.625,-0.598,0.263,0.663,66.87,83.16,-14.28,2,5
17582.64,-0.563,0.258,0.664,63.57,75.01,-21.91,2,5
17582.656,-0.53,0.262,0.63,57.77,69.09,-31.43,2,5
17582.656,-0.498,0.262,0.578,53.99,71.99,-37.93,2,5
17582.671,-0.48,0.245,0.512,54.17,81.55,-41.14,2,5
17582.687,-0.47,0.24,0.458,56.18,96.8,-42.76,2,5
17582.687,-0.442,0.242,0.427,57.01,117.83,-43.58,2,5
17582.703,-0.43,0.229,0.397,56.43,140.75,-47.98,2,5
17582.718,-0.453,0.236,0.334,51.55,189.76,-65.68,2,5
17582.718,-0.506,0.237,0.303,45.23,208.32,-77.12,2,5
17582.734,-0.575,0.235,0.318,39.58,220.01,-87.59,2,5
17582.734,-0.646,0.25,0.334,33.6,225.14,-95.1,2,5
17582.75,-0.694,0.302,0.34,26.98,227.39,-100.5,2,5
17582.765,-0.7,0.296,0.297,20.69,233.22,-105.35,2,5
17582.765,-0.714,0.274,0.254,14.74,242.77,-110.69,2,5
17582.781,-0.738,0.247,0.207,11.57,254.34,-116.12,2,5
17582.796,-0.769,0.234,0.157,11.78,268.5,-121.46,2,5
17582.796,-0.793,0.22,0.091,15.17,287.15,-126.71,2,5
17582.812,-0.823,0.187,0.008,22.1,310.89,-134.28,2,5
17582.828,-0.877,0.14,-0.061,34.67,337.2,-147.34,2,5
17582.828,-0.955,0.111,-0.125,47.12,359.32,-162.36,2,5
17582.843,-1.036,0.112,-0.153,54.81,372.63,-175.48,2,5
17582.859,-1.082,0.151,-0.195,58.63,375.74,-183.6,2,5
17582.859,-1.106,0.194,-0.192,58.75,370.98,-185.83,2,5
17582.875,-1.094,0.196,-0.184,59.51,360.12,-183.2,2,5
17582.875,-1.072,0.199,-0.186,59.51,343.42,-176.52,2,5
17582.89,-1.055,0.202,-0.228,60.67,324.17,-168.28,2,5
17582.906,-1.05,0.203,-0.292,59.14,306.65,-158.82,2,5
17582.906,-1.054,0.186,-0.32,54.78,290.44,-151.01,2,5
17582.937,-1.04,0.114,-0.475,51.42,261.54,-145.7,2,5
17582.937,-1.016,0.112,-0.544,47.64,256.6,-141.42,2,5
17582.953,-1.015,0.085,-0.624,47.15,256.69,-138.19,2,5
17582.968,-1.017,0.076,-0.677,49.13,257.88,-133.03,2,5
17582.968,-1.006,0.072,-0.725,51.09,261.02,-123.66,2,5
17582.984,-1.006,0.085,-0.751,51.36,261.67,-111.94,2,5
17583.0,-0.997,0.083,-0.764,52.22,259.1,-98.73,2,5
17583.0,-0.997,0.072,-0.741,54.81,253.15,-86.52,2,5
17583.015,-0.981,0.047,-0.719,61.68,243.51,-75.29,2,5
17583.015,-0.937,0.052,-0.742,70.22,231.12,-64.39,2,5
17583.031,-0.874,0.069,-0.761,75.17,218.33,-51.82,2,5
17583.046,-0.824,0.054,-0.806,77.82,206.27,-39.95,2,5
17583.046,-0.785,0.048,-0.857,79.93,195.78,-29.63,2,5
17583.062,-0.777,0.036,-0.895,81.21,186.74,-20.45,2,5
17583.078,-0.775,0.022,-0.905,82.03,177.43,-14.86,2,5
17583.078,-0.75,0.006,-0.902,81.51,168.0,-10.99,2,5
17583.093,-0.73,-0.021,-0.919,80.11,159.64,-8.06,2,5
17583.109,-0.717,-0.049,-0.937,78.77,153.87,-7.39,2,5
17583.109,-0.685,-0.087,-0.92,76.27,148.72,-8.33,2,5
17583.125,-0.739,-0.087,-0.878,74.47,142.25,-11.23,2,5
17583.125,-0.771,-0.13,-0.853,76.05,138.8,-4.46,2,5
17583.14,-0.554,-0.091,-0.861,70.07,121.07,-5.52,2,5
17583.156,-0.714,-0.015,-0.846,58.26,103.18,-21.88,2,5
17583.156,-0.548,-0.154,-0.853,45.56,89.82,-19.5,2,5
17583.171,-0.608,-0.071,-0.801,30.76,69.15,-29.97,2,5
17583.187,-0.355,-0.24,-0.825,26.4,60.61,-22.34,2,5
17583.187,-0.318,-0.13,-0.866,15.9,38.51,-43.76,2,5
17583.203,-0.524,-0.206,-0.897,9.28,40.41,-50.17,2,5
17583.218,-0.462,-0.328,-0.911,3.17,38.7,-33.75,2,5
17583.218,-0.339,-0.263,-0.884,1.83,33.85,-31.98,2,5
17583.234,-0.487,-0.261,-0.838,3.39,33.42,-42.48,2,5
17583.234,-0.48,-0.317,-0.802,6.62,30.15,-36.81,2,5
17583.25,-0.42,-0.211,-0.793,11.35,22.52,-31.07,2,5
17583.265,-0.44,-0.239,-0.812,13.76,16.17,-24.38,2,5
17583.265,-0.402,-0.237,-0.859,12.97,9.31,-15.2,2,5
17583.281,-0.411,-0.22,-0.891,12.54,6.01,-9.25,2,5
17583.296,-0.39,-0.251,-0.916,12.33,5.89,-4.06,2,5
17583.296,-0.391,-0.247,-0.955,10.9,8.55,-2.93,2,5
17583.312,-0.384,-0.283,-0.964,7.9,13.92,-2.59,2,5
17583.328,-0.374,-0.306,-0.933,6.41,19.47,-3.88,2,5
17583.328,-0.378,-0.328,-0.889,9.13,24.08,-3.51,2,5
17583.343,-0.367,-0.331,-0.873,13.86,25.48,0.4,2,5
17583.343,-0.37,-0.312,-0.858,16.17,24.35,3.33,2,5
17583.359,-0.36,-0.333,-0.846,14.25,20.6,4.82,2,5
17583.375,-0.368,-0.342,-0.844,11.69,15.99,4.15,2,5
17583.39,-0.356,-0.338,-0.854,9.86,12.27,3.36,2,5
17583.39,-0.332,-0.352,-0.864,6.93,10.47,2.2,2,5
17583.406,-0.314,-0.382,-0.867,5.83,10.16,1.01,2,5
17583.406,-0.303,-0.38,-0.874,6.96,10.93,-0.34,2,5
17583.437,-0.286,-0.373,-0.89,4.0,12.82,-4.7,2,5
17583.437,-0.289,-0.391,-0.872,1.19,13.49,-7.14,2,5
17583.453,-0.3,-0.404,-0.857,1.1,13.46,-9.64,2,5
17583.468,-0.314,-0.398,-0.854,1.86,12.02,-11.17,2,5
17583.468,-0.323,-0.377,-0.851,1.25,9.4,-11.69,2,5
17583.484,-0.324,-0.367,-0.853,-0.76,6.62,-12.36,2,5
17583.484,-0.31,-0.386,-0.866,-1.83,4.12,-13.95,2,5
17583.5,-0.305,-0.39,-0.884,-1.65,2.11,-15.78,2,5
17583.515,-0.291,-0.387,-0.891,-1.89,0.82,-17.18,2,5
17583.515,-0.296,-0.391,-0.897,-2.23,0.85,-18.95,2,5
17583.531,-0.297,-0.395,-0.893,-3.57,4.39,-19.53,2,5
17583.546,-0.313,-0.38,-0.868,-5.52,7.6,-19.87,2,5
17583.546,-0.304,-0.368,-0.858,-5.4,4.91,-20.57,2,5
17583.562,-0.298,-0.333,-0.853,-6.01,3.97,-20.54,2,5
17583.578,-0.289,-0.341,-0.844,-8.42,1.62,-19.56,2,5
17583.578,-0.292,-0.361,-0.847,-8.85,-2.08,-17.91,2,5
17583.609,-0.282,-0.368,-0.866,-5.28,-5.25,-11.66,2,5
17583.609,-0.276,-0.368,-0.875,-2.75,-5.86,-7.84,2,5
17583.625,-0.263,-0.364,-0.88,-1.22,-5.89,-4.46,2,5
17583.625,-0.251,-0.364,-0.885,0.03,-5.55,-2.32,2,5
17583.64,-0.254,-0.364,-0.882,1.53,-3.66,-0.92,2,5
17583.656,-0.262,-0.366,-0.88,2.26,-2.84,-0.79,2,5
17583.656,-0.264,-0.356,-0.881,1.62,-3.2,-1.16,2,5
17583.671,-0.264,-0.347,-0.872,0.24,-2.87,-1.25,2,5
17583.687,-0.256,-0.355,-0.865,-0.89,-3.14,-0.85,2,5
17583.687,-0.247,-0.368,-0.868,-0.98,-6.16,2.41,2,5
17583.703,-0.243,-0.37,-0.874,-0.24,-7.32,3.05,2,5
17583.718,-0.241,-0.387,-0.892,0.67,-7.32,2.62,2,5
17583.718,-0.234,-0.397,-0.904,1.1,-6.04,1.1,2,5
17583.734,-0.232,-0.395,-0.911,0.73,-4.49,-0.85,2,5
17583.734,-0.237,-0.386,-0.908,-0.09,-3.39,-3.11,2,5
17583.75,-0.239,-0.379,-0.899,-2.32,-3.91,-5.77,2,5
17583.765,-0.238,-0.361,-0.89,-5.92,-5.13,-10.19,2,5
17583.781,-0.235,-0.372,-0.883,-5.86,-5.07,-10.62,2,5
17583.796,-0.235,-0.368,-0.881,-5.55,-5.65,-8.39,2,5
17583.796,-0.24,-0.363,-0.875,-3.88,-6.23,-5.19,2,5
17583.812,-0.242,-0.371,-0.877,-1.74,-7.08,-1.89,2,5
17583.828,-0.244,-0.374,-0.89,-1.1,-8.3,-0.03,2,5
17583.828,-0.245,-0.371,-0.898,-1.71,-9.61,-0.34,2,5
17583.843,-0.241,-0.364,-0.909,-2.56,-10.16,-0.98,2,5
17583.843,-0.233,-0.364,-0.912,-3.51,-9.95,-1.22,2,5
17583.859,-0.227,-0.37,-0.915,-3.78,-9.28,-1.01,2,5
17583.875,-0.223,-0.376,-0.907,-3.54,-8.45,0.09,2,5
17583.875,-0.227,-0.384,-0.899,-2.44,-7.69,2.17,2,5
17583.89,-0.233,-0.384,-0.899,-0.46,-7.35,4.52,2,5
17583.906,-0.233,-0.383,-0.908,0.89,-7.81,6.44,2,5
17583.906,-0.233,-0.39,-0.921,1.46,-7.78,7.29,2,5
17583.921,-0.23,-0.381,-0.931,1.62,-6.44,7.39,2,5
17583.937,-0.212,-0.399,-0.934,0.21,-0.67,4.61,2,5
17583.953,-0.223,-0.396,-0.927,-0.21,2.2,2.44,2,5
17583.968,-0.234,-0.392,-0.923,-1.89,4.21,0.34,2,5
17583.968,-0.232,-0.4,-0.917,-3.6,5.55,-1.19,2,5
17583.984,-0.227,-0.405,-0.916,-3.51,6.78,-1.07,2,5
17583.984,-0.221,-0.403,-0.933,-1.46,8.21,0.61,2,5
17584.0,-0.218,-0.393,-0.961,1.37,11.11,2.53,2,5
17584.015,-0.216,-0.381,-0.971,3.02,16.14,4.03,2,5
17584.015,-0.207,-0.386,-0.952,2.84,21.58,4.43,2,5
17584.031,-0.204,-0.389,-0.927,2.62,25.54,2.72,2,5
17584.046,-0.219,-0.384,-0.901,1.8,27.22,-0.21,2,5
17584.046,-0.225,-0.388,-0.871,-0.31,26.15,-2.35,2,5
17584.062,-0.229,-0.384,-0.848,-1.62,23.16,-3.27,2,5
17584.078,-0.227,-0.378,-0.842,-2.04,18.46,-3.3,2,5
17584.078,-0.226,-0.372,-0.842,-2.04,13.46,-2.17,2,5
17584.093,-0.225,-0.366,-0.843,-1.89,9.09,-0.61,2,5
17584.093,-0.228,-0.368,-0.843,-0.76,4.97,1.31,2,5
17584.109,-0.23,-0.366,-0.863,-0.18,0.7,2.84,2,5
17584.125,-0.224,-0.368,-0.877,-0.52,-3.27,2.69,2,5
17584.125,-0.219,-0.373,-0.892,-2.11,-6.1,1.8,2,5
17584.14,-0.209,-0.385,-0.901,-4.58,-8.0,1.16,2,5
17584.156,-0.205,-0.399,-0.909,-5.16,-8.36,-0.31,2,5
17584.171,-0.21,-0.402,-0.914,-4.09,-7.54,-2.17,2,5
17584.171,-0.218,-0.388,-0.911,-3.85,-6.23,-3.63,2,5
17584.187,-0.224,-0.383,-0.916,-4.27,-5.01,-4.46,2,5
17584.187,-0.219,-0.375,-0.911,-3.27,-4.27,-4.43,2,5
17584.203,-0.223,-0.358,-0.905,-1.68,-3.3,-3.39,2,5
17584.218,-0.223,-0.362,-0.9,-0.46,-2.93,-1.31,2,5
17584.218,-0.223,-0.37,-0.897,1.01,-3.2,1.5,2,5
17584.234,-0.229,-0.357,-0.896,2.53,-3.97,3.3,2,5
17584.25,-0.236,-0.35,-0.901,2.75,-4.73,3.66,2,5
17584.25,-0.241,-0.35,-0.897,0.95,-5.28,3.23,2,5
17584.265,-0.242,-0.359,-0.885,-1.01,-6.07,1.92,2,5
17584.265,-0.242,-0.374,-0.875,-2.01,-7.54,0.76,2,5
17584.281,-0.24,-0.376,-0.879,-2.47,-9.31,0.76,2,5
17584.296,-0.232,-0.377,-0.884,-2.23,-10.65,1.43,2,5
17584.296,-0.237,-0.388,-0.895,-1.68,-11.29,1.74,2,5
17584.312,-0.238,-0.384,-0.907,-1.65,-11.6,0.58,2,5
17584.328,-0.244,-0.37,-0.909,-1.98,-11.05,-1.34,2,5
17584.328,-0.244,-0.368,-0.906,-2.93,-10.25,-2.69,2,5
17584.343,-0.243,-0.369,-0.903,-3.45,-9.64,-3.54,2,5
17584.359,-0.25,-0.367,-0.896,-3.69,-9.55,-4.21,2,5
17584.359,-0.255,-0.369,-0.893,-3.75,-10.38,-4.09,2,5
17584.375,-0.257,-0.365,-0.9,-2.96,-10.96,-2.93,2,5
17584.375,-0.258,-0.361,-0.904,-2.35,-10.83,-1.62,2,5
17584.39,-0.257,-0.374,-0.899,-1.95,-10.32,-1.16,2,5
17584.406,-0.262,-0.376,-0.898,-1.04,-9.89,-1.62,2,5
17584.406,-0.275,-0.359,-0.894,-0.43,-9.58,-2.66,2,5
17584.421,-0.286,-0.359,-0.884,-1.56,-9.89,-3.57,2,5
17584.437,-0.285,-0.373,-0.873,-2.62,-11.11,-3.94,2,5
17584.453,-0.285,-0.377,-0.872,-1.83,-12.79,-3.66,2,5
17584.453,-0.281,-0.365,-0.884,-0.43,-14.47,-2.23,2,5
17584.468,-0.275,-0.358,-0.907,0.18,-15.29,-0.31,2,5
17584.468,-0.269,-0.363,-0.915,-0.03,-14.83,1.37,2,5
17584.484,-0.269,-0.373,-0.917,0.12,-13.21,1.83,2,5
17584.5,-0.276,-0.368,-0.913,0.46,-11.11,0.85,2,5
17584.5,-0.283,-0.373,-0.901,-0.09,-9.03,-0.73,2,5
17584.515,-0.294,-0.379,-0.888,-1.16,-8.03,-2.26,2,5
17584.515,-0.3,-0.382,-0.88,-1.8,-8.48,-3.11,2,5
17584.531,-0.301,-0.368,-0.883,-1.98,-9.67,-3.97,2,5
17584.546,-0.295,-0.359,-0.887,-2.44,-11.02,-5.1,2,5
17584.546,-0.292,-0.366,-0.896,-3.33,-12.24,-5.52,2,5
17584.562,-0.295,-0.36,-0.895,-3.88,-12.42,-5.28,2,5
17584.578,-0.299,-0.362,-0.899,-3.66,-11.78,-5.1,2,5
17584.578,-0.302,-0.367,-0.904,-3.05,-10.65,-4.7,2,5
17584.593,-0.303,-0.358,-0.906,-2.72,-9.46,-4.85,2,5
17584.609,-0.305,-0.347,-0.902,-3.72,-8.73,-5.77,2,5
17584.609,-0.298,-0.349,-0.885,-5.8,-8.79,-6.59,2,5
17584.625,-0.296,-0.367,-0.87,-6.32,-9.61,-7.11,2,5
17584.64,-0.299,-0.36,-0.868,-5.62,-10.8,-7.45,2,5
17584.64,-0.292,-0.347,-0.862,-5.86,-12.18,-7.29,2,5
17584.656,-0.289,-0.343,-0.856,-5.98,-13.67,-7.66,2,5
17584.656,-0.29,-0.341,-0.854,-5.98,-15.53,-7.87,2,5
17584.671,-0.288,-0.338,-0.865,-6.07,-17.18,-7.69,2,5
17584.687,-0.287,-0.333,-0.879,-6.65,-18.52,-6.38,2,5
17584.703,-0.292,-0.335,-0.891,-7.2,-17.88,-6.13,2,5
17584.703,-0.29,-0.341,-0.896,-7.17,-17.12,-7.54,2,5
17584.718,-0.284,-0.331,-0.91,-8.06,-16.33,-8.79,2,5
17584.718,-0.274,-0.332,-0.903,-9.4,-14.95,-9.55,2,5
17584.734,-0.266,-0.341,-0.895,-9.0,-13.49,-9.16,2,5
17584.75,-0.26,-0.34,-0.892,-7.29,-12.63,-7.75,2,5
17584.75,-0.253,-0.329,-0.901,-5.01,-12.36,-5.89,2,5
17584.765,-0.235,-0.312,-0.91,-3.91,-11.96,-3.88,2,5
17584.765,-0.221,-0.304,-0.918,-4.24,-11.08,-2.23,2,5
17584.781,-0.22,-0.298,-0.93,-4.18,-9.52,-0.31,2,5
17584.796,-0.232,-0.282,-0.926,-3.69,-6.65,2.17,2,5
17584.796,-0.244,-0.283,-0.905,-3.08,-3.57,4.85,2,5
17584.812,-0.258,-0.279,-0.894,-1.65,-1.86,7.14,2,5
17584.828,-0.251,-0.277,-0.891,-1.31,-2.38,9.13,2,5
17584.828,-0.232,-0.296,-0.88,-1.92,-4.39,11.29,2,5
17584.843,-0.212,-0.334,-0.883,-1.8,-7.48,13.25,2,5
17584.859,-0.199,-0.368,-0.902,-0.61,-10.68,15.66,2,5
17584.859,-0.197,-0.407,-0.938,1.13,-12.45,19.04,2,5
17584.875,-0.2,-0.442,-0.989,4.76,-10.13,22.31,2,5
17584.875,-0.2,-0.45,-1.027,9.58,-2.78,23.53,2,5
17584.89,-0.193,-0.44,-1.044,12.79,8.24,22.16,2,5
17584.906,-0.191,-0.417,-1.017,14.83,20.6,19.26,2,5
17584.921,-0.211,-0.391,-0.962,16.69,30.7,15.93,2,5
17584.921,-0.241,-0.38,-0.89,17.24,35.77,12.82,2,5
17584.937,-0.283,-0.38,-0.822,17.43,35.65,9.49,2,5
17584.937,-0.319,-0.378,-0.783,16.94,30.37,5.83,2,5
17584.953,-0.335,-0.394,-0.774,15.35,21.73,2.56,2,5
17584.968,-0.344,-0.398,-0.794,13.12,13.06,-1.71,2,5
17584.968,-0.359,-0.399,-0.833,9.49,5.83,-6.81,2,5
17584.984,-0.374,-0.394,-0.867,4.55,1.19,-11.72,2,5
17584.984,-0.364,-0.388,-0.894,1.5,-0.31,-15.87,2,5
17585.0,-0.356,-0.369,-0.912,1.25,1.13,-19.93,2,5
17585.015,-0.365,-0.343,-0.913,1.53,4.27,-23.19,2,5
17585.031,-0.38,-0.329,-0.884,0.98,6.71,-25.21,2,5
17585.031,-0.418,-0.306,-0.861,0.95,6.93,-25.3,2,5
17585.046,-0.433,-0.283,-0.846,1.04,4.82,-22.25,2,5
17585.046,-0.423,-0.251,-0.842,1.53,1.62,-17.79,2,5
17585.062,-0.402,-0.241,-0.848,2.66,-1.77,-12.02,2,5
17585.078,-0.401,-0.234,-0.856,3.94,-4.58,-6.26,2,5
17585.093,-0.409,-0.244,-0.858,5.28,-6.13,-0.4,2,5
17585.093,-0.402,-0.29,-0.846,7.45,-6.47,5.22,2,5
17585.093,-0.409,-0.311,-0.839,10.99,-6.74,8.91,2,5
17585.109,-0.419,-0.303,-0.839,11.99,-8.09,9.0,2,5
17585.125,-0.421,-0.307,-0.829,7.14,-10.86,5.95,2,5
17585.125,-0.425,-0.315,-0.819,0.58,-15.32,1.43,2,5
17585.14,-0.42,-0.308,-0.809,-5.58,-20.36,-3.54,2,5
17585.156,-0.399,-0.332,-0.794,-11.6,-26.15,-7.75,2,5
17585.156,-0.388,-0.368,-0.791,-13.89,-31.74,-9.16,2,5
17585.171,-0.375,-0.382,-0.802,-10.96,-35.62,-6.93,2,5
17585.187,-0.365,-0.396,-0.832,-4.73,-37.48,-3.05,2,5
17585.203,-0.366,-0.406,-0.869,1.5,-36.53,0.7,2,5
17585.203,-0.375,-0.396,-0.898,4.91,-31.98,4.09,2,5
17585.218,-0.382,-0.402,-0.882,5.07,-25.3,5.89,2,5
17585.218,-0.397,-0.436,-0.846,4.82,-19.56,5.34,2,5
17585.234,-0.411,-0.441,-0.82,5.13,-17.58,2.38,2,5
17585.234,-0.437,-0.424,-0.805,4.7,-19.65,-2.29,2,5
17585.25,-0.453,-0.403,-0.8,2.08,-24.84,-6.96,2,5
17585.265,-0.453,-0.39,-0.816,-1.98,-31.25,-11.26,2,5
17585.265,-0.456,-0.388,-0.834,-6.23,-36.77,-15.05,2,5
17585.281,-0.46,-0.373,-0.852,-8.76,-40.13,-17.37,2,5
17585.296,-0.447,-0.36,-0.861,-9.74,-41.08,-18.04,2,5
17585.312,-0.443,-0.366,-0.867,-8.36,-39.92,-17.58,2,5
17585.312,-0.447,-0.345,-0.864,-4.79,-37.84,-16.51,2,5
17585.328,-0.446,-0.319,-0.856,-2.44,-36.13,-15.56,2,5
17585.328,-0.469,-0.293,-0.857,-3.48,-36.74,-16.17,2,5
17585.343,-0.489,-0.277,-0.856,-7.02,-39.46,-16.72,2,5
17585.359,-0.514,-0.253,-0.85,-10.41,-42.48,-16.72,2,5
17585.359,-0.531,-0.228,-0.854,-11.54,-45.08,-16.11,2,5
17585.375,-0.537,-0.207,-0.86,-11.99,-47.3,-13.86,2,5
17585.375,-0.541,-0.198,-0.868,-11.47,-49.29,-10.22,2,5
17585.39,-0.538,-0.194,-0.879,-10.01,-50.29,-4.97,2,5
17585.406,-0.538,-0.198,-0.884,-9.06,-50.84,1.31,2,5
17585.406,-0.541,-0.205,-0.885,-8.58,-51.36,6.9,2,5
17585.421,-0.554,-0.201,-0.892,-9.13,-51.97,10.59,2,5
17585.437,-0.57,-0.197,-0.887,-12.3,-52.77,12.97,2,5
17585.453,-0.579,-0.2,-0.869,-15.32,-53.59,14.59,2,5
17585.453,-0.586,-0.197,-0.853,-16.66,-55.06,16.11,2,5
17585.468,-0.588,-0.203,-0.84,-17.55,-57.56,18.49,2,5
17585.468,-0.606,-0.219,-0.837,-17.24,-59.91,22.34,2,5
17585.484,-0.599,-0.232,-0.833,-16.24,-62.2,26.46,2,5
17585.484,-0.615,-0.259,-0.839,-14.68,-64.21,27.65,2,5
17585.5,-0.632,-0.271,-0.852,-14.77,-65.86,26.73,2,5
17585.515,-0.632,-0.271,-0.866,-17.67,-67.66,22.77,2,5
17585.531,-0.612,-0.292,-0.875,-23.53,-70.13,16.82,2,5
17585.531,-0.605,-0.313,-0.873,-29.94,-72.3,9.7,2,5
17585.546,-0.605,-0.335,-0.872,-34.73,-74.13,3.08,2,5
17585.546,-0.605,-0.334,-0.875,-37.02,-75.53,-2.75,2,5
17585.562,-0.612,-0.324,-0.876,-38.51,-76.48,-7.51,2,5
17585.578,-0.619,-0.315,-0.868,-39.52,-76.78,-10.9,2,5
17585.578,-0.63,-0.301,-0.86,-39.12,-76.42,-11.72,2,5
17585.593,-0.646,-0.275,-0.851,-38.15,-75.9,-10.65,2,5
17585.609,-0.657,-0.257,-0.845,-37.87,-75.87,-8.15,2,5
17585.609,-0.657,-0.253,-0.833,-36.53,-75.47,-4.0,2,5
17585.625,-0.67,-0.256,-0.822,-33.02,-74.19,1.34,2,5
17585.625,-0.684,-0.258,-0.811,-28.9,-72.97,7.9,2,5
17585.64,-0.691,-0.268,-0.796,-24.57,-72.42,14.95,2,5
17585.656,-0.694,-0.282,-0.782,-20.29,-72.45,21.33,2,5
17585.656,-0.695,-0.286,-0.776,-16.11,-74.31,26.7,2,5
17585.671,-0.682,-0.297,-0.767,-17.06,-75.96,24.99,2,5
17585.687,-0.678,-0.305,-0.751,-18.71,-78.19,22.25,2,5
17585.703,-0.68,-0.313,-0.744,-20.72,-80.6,19.81,2,5
17585.703,-0.691,-0.306,-0.723,-23.29,-83.29,18.07,2,5
17585.718,-0.683,-0.286,-0.707,-26.98,-86.7,17.03,2,5
17585.718,-0.679,-0.277,-0.682,-30.43,-91.31,16.6,2,5
17585.734,-0.677,-0.276,-0.672,-33.11,-97.26,17.21,2,5
17585.75,-0.679,-0.266,-0.668,-36.16,-103.21,17.73,2,5
17585.75,-0.698,-0.27,-0.682,-39.46,-108.43,17.64,2,5
17585.765,-0.704,-0.3,-0.734,-40.56,-112.09,16.11,2,5
17585.765,-0.688,-0.299,-0.764,-37.6,-110.11,13.06,2,5
17585.781,-0.68,-0.278,-0.769,-34.55,-102.05,10.35,2,5
17585.796,-0.684,-0.273,-0.76,-33.63,-92.26,9.03,2,5
17585.812,-0.697,-0.27,-0.732,-32.04,-81.76,8.76,2,5
17585.812,-0.715,-0.27,-0.688,-29.42,-72.12,9.13,2,5
17585.828,-0.745,-0.27,-0.642,-26.37,-64.85,9.89,2,5
17585.828,-0.775,-0.251,-0.598,-23.29,-60.37,11.14,2,5
17585.843,-0.809,-0.219,-0.562,-22.03,-59.39,12.39,2,5
17585.859,-0.836,-0.188,-0.53,-23.32,-61.19,13.89,2,5
17585.859,-0.855,-0.178,-0.505,-24.69,-64.21,15.78,2,5
17585.875,-0.873,-0.188,-0.493,-24.02,-67.51,18.25,2,5
17585.875,-0.877,-0.2,-0.502,-21.64,-69.8,20.33,2,5
17585.89,-0.884,-0.218,-0.528,-15.9,-68.85,19.81,2,5
17585.906,-0.888,-0.222,-0.548,-9.34,-63.78,19.1,2,5
17585.906,-0.882,-0.194,-0.554,-6.44,-57.31,17.46,2,5
17585.921,-0.872,-0.18,-0.554,-7.66,-52.55,14.89,2,5
17585.937,-0.874,-0.188,-0.539,-10.38,-48.74,12.7,2,5
17585.937,-0.882,-0.202,-0.516,-10.68,-45.01,11.41,2,5
17585.953,-0.9,-0.209,-0.494,-8.12,-41.54,11.08,2,5
17585.968,-0.922,-0.197,-0.478,-4.39,-39.06,10.71,2,5
17585.968,-0.938,-0.182,-0.471,-1.65,-37.69,10.19,2,5
17585.984,-0.946,-0.161,-0.458,-1.46,-36.77,9.92,2,5
17586.0,-0.953,-0.147,-0.445,-3.05,-36.32,8.67,2,5
17586.0,-0.963,-0.135,-0.43,-5.28,-36.47,7.39,2,5
17586.015,-0.962,-0.134,-0.415,-6.99,-37.35,7.29,2,5
17586.015,-0.979,-0.119,-0.4,-8.48,-37.93,6.68,2,5
17586.031,-1.003,-0.141,-0.39,-8.91,-40.65,8.27,2,5
17586.046,-0.992,-0.133,-0.381,-7.29,-41.69,11.6,2,5
17586.046,-0.989,-0.132,-0.381,-4.76,-41.69,15.47,2,5
17586.062,-0.99,-0.119,-0.394,-2.93,-46.63,17.4,2,5
17586.078,-0.979,-0.105,-0.415,-2.62,-48.86,19.14,2,5
17586.078,-0.965,-0.098,-0.422,-5.58,-49.68,19.35,2,5
17586.093,-0.963,-0.116,-0.419,-8.82,-51.03,17.09,2,5
17586.109,-0.957,-0.125,-0.415,-10.1,-52.0,14.04,2,5
17586.109,-0.953,-0.12,-0.409,-10.01,-51.33,11.17,2,5
17586.125,-0.953,-0.117,-0.4,-9.58,-49.93,8.7,2,5
17586.14,-0.955,-0.111,-0.388,-9.89,-48.8,7.02,2,5
17586.14,-0.958,-0.112,-0.373,-9.77,-47.85,6.9,2,5
17586.156,-0.958,-0.111,-0.359,-7.84,-47.36,8.12,2,5
17586.156,-0.954,-0.115,-0.348,-4.85,-46.02,10.47,2,5
17586.171,-0.957,-0.093,-0.349,-1.5,-45.9,12.24,2,5
17586.187,-0.944,-0.09,-0.35,0.58,-45.32,14.53,2,5
17586.187,-0.971,-0.076,-0.347,0.67,-45.5,14.65,2,5
17586.203,-0.987,-0.086,-0.338,-0.12,-47.61,13.86,2,5
17586.203,-0.991,-0.078,-0.317,-2.69,-49.32,10.8,2,5
17586.218,-0.999,-0.076,-0.302,-6.62,-50.51,7.45,2,5
17586.234,-0.999,-0.078,-0.285,-9.37,-50.63,6.13,2,5
17586.234,-0.986,-0.093,-0.259,-10.1,-49.96,7.26,2,5
17586.25,-0.996,-0.103,-0.265,-8.12,-52.83,7.48,2,5
17586.265,-0.985,-0.074,-0.277,-6.41,-53.99,8.82,2,5
17586.265,-0.991,-0.077,-0.286,-6.56,-57.86,8.88,2,5
17586.281,-0.975,-0.077,-0.289,-7.51,-60.58,8.45,2,5
17586.296,-0.962,-0.063,-0.289,-9.52,-62.26,6.81,2,5
17586.296,-0.953,-0.054,-0.298,-11.69,-62.72,5.16,2,5
17586.312,-0.934,-0.035,-0.302,-14.07,-61.77,2.84,2,5
17586.328,-0.927,-0.025,-0.309,-16.94,-60.85,-0.4,2,5
17586.328,-0.914,-0.009,-0.304,-20.6,-59.51,-3.08,2,5
17586.343,-0.899,-0.015,-0.281,-24.14,-58.32,-4.12,2,5
17586.359,-0.901,-0.043,-0.251,-24.32,-56.7,-1.86,2,5
17586.359,-0.909,-0.051,-0.227,-20.75,-55.09,3.57,2,5
17586.375,-0.922,-0.063,-0.207,-15.87,-52.83,10.65,2,5
17586.39,-0.929,-0.079,-0.19,-11.2,-50.45,17.61,2,5
17586.39,-0.938,-0.085,-0.181,-7.14,-48.98,22.55,2,5
17586.406,-0.933,-0.077,-0.175,-4.85,-48.52,24.41,2,5
17586.406,-0.932,-0.061,-0.172,-5.34,-48.16,22.92,2,5
17586.421,-0.927,-0.052,-0.169,-8.0,-48.01,19.93,2,5
17586.437,-0.922,-0.068,-0.158,-10.99,-46.91,16.36,2,5
17586.437,-0.941,-0.1,-0.137,-11.44,-44.68,13.61,2,5
17586.453,-0.958,-0.112,-0.114,-9.16,-41.6,12.36,2,5
17586.468,-0.969,-0.106,-0.097,-5.31,-38.79,11.75,2,5
17586.468,-0.987,-0.1,-0.091,-1.68,-36.32,11.05,2,5
17586.484,-1.008,-0.087,-0.089,1.01,-34.15,9.77,2,5
17586.484,-1.022,-0.069,-0.075,1.31,-31.46,7.93,2,5
17586.5,-1.051,-0.065,-0.046,1.5,-28.9,5.74,2,5
17586.515,-1.072,-0.052,-0.026,2.32,-27.59,3.36,2,5
17586.515,-1.078,-0.026,-0.01,2.23,-28.14,1.07,2,5
17586.531,-1.078,-0.01,0.003,0.12,-30.03,-0.24,2,5
17586.546,-1.073,-0.007,0.007,-2.44,-34.24,-1.28,2,5
17586.546,-1.065,-0.014,-0.007,-3.81,-37.08,-0.98,2,5
17586.562,-1.04,-0.012,-0.017,-3.57,-38.03,-0.95,2,5
17586.578,-1.042,-0.016,-0.033,-1.28,-37.08,-0.24,2,5
17586.578,-1.025,-0.011,-0.035,-0.24,-36.41,0.4,2,5
17586.593,-1.029,-0.027,-0.022,-1.13,-32.41,2.62,2,5
17586.609,-1.017,-0.043,0.006,-0.7,-31.28,5.55,2,5
17586.609,-1.008,-0.044,0.016,2.59,-32.9,7.54,2,5
17586.625,-1.001,-0.044,0.03,5.49,-35.52,9.55,2,5
17586.625,-1.0,-0.035,0.039,6.78,-39.43,11.08,2,5
17586.64,-0.996,-0.031,0.046,4.46,-45.87,12.51,2,5
17586.656,-0.996,-0.028,0.053,2.32,-49.29,10.99,2,5
17586.656,-0.987,-0.039,0.053,0.18,-51.58,8.64,2,5
17586.671,-0.978,-0.043,0.043,-1.59,-52.83,5.16,2,5
17586.687,-0.953,-0.037,0.021,-3.2,-52.25,2.26,2,5
17586.687,-0.942,-0.036,0.025,-3.27,-49.59,0.79,2,5
17586.703,-0.93,-0.02,0.025,-1.8,-46.57,0.61,2,5
17586.718,-0.921,-0.015,0.037,-0.76,-43.7,1.65,2,5
17586.718,-0.924,-0.011,0.052,0.73,-41.02,2.96,2,5
17586.734,-0.932,-0.017,0.073,3.05,-38.97,5.07,2,5
17586.734,-0.943,-0.026,0.097,5.71,-36.65,7.78,2,5
17586.75,-0.943,-0.015,0.108,8.24,-36.74,9.34,2,5
17586.765,-0.941,-0.005,0.121,8.45,-36.53,10.16,2,5
17586.765,-0.935,-0.001,0.125,6.84,-38.06,10.22,2,5
17586.781,-0.945,0.002,0.129,4.61,-39.52,9.46,2,5
17586.796,-0.951,-0.006,0.137,1.95,-41.38,8.45,2,5
17586.796,-0.944,-0.009,0.137,1.56,-42.79,7.29,2,5
17586.812,-0.934,-0.007,0.124,2.81,-42.66,6.13,2,5
17586.828,-0.906,0.007,0.113,2.62,-41.99,4.94,2,5
17586.828,-0.881,0.0,0.112,0.95,-40.65,3.27,2,5
17586.843,-0.873,-0.004,0.116,-0.21,-39.52,1.74,2,5
17586.859,-0.885,-0.01,0.127,-0.37,-37.48,1.19,2,5
17586.859,-0.891,-0.009,0.141,0.61,-35.77,0.82,2,5
17586.875,-0.897,-0.008,0.154,2.47,-34.0,1.68,2,5
17586.875,-0.887,0.003,0.162,4.33,-33.08,3.48,2,5
17586.89,-0.882,0.013,0.171,5.52,-31.62,5.55,2,5
17586.906,-0.898,0.013,0.183,5.55,-31.46,6.53,2,5
17586.906,-0.913,0.013,0.193,4.91,-30.98,6.07,2,5
17586.921,-0.926,0.01,0.208,3.66,-30.12,4.85,2,5
17586.937,-0.927,0.02,0.215,1.74,-30.46,2.84,2,5
17586.937,-0.937,0.026,0.221,-0.55,-31.07,0.49,2,5
17586.953,-0.931,0.03,0.231,-2.75,-31.53,-0.95,2,5
17586.968,-0.928,0.03,0.245,-3.72,-32.01,-1.34,2,5
17586.968,-0.92,0.018,0.254,-2.69,-32.87,0.37,2,5
17586.984,-0.914,0.017,0.256,0.64,-33.33,2.99,2,5
17586.984,-0.92,0.014,0.251,2.75,-33.3,5.65,2,5
17587.0,-0.92,0.004,0.25,2.78,-33.05,7.45,2,5
17587.015,-0.912,-0.002,0.249,3.2,-32.78,7.57,2,5
17587.015,-0.92,-0.001,0.246,3.75,-31.74,6.87,2,5
17587.031,-0.922,0.008,0.251,3.08,-30.49,5.98,2,5
17587.046,-0.921,0.012,0.26,2.41,-29.33,5.68,2,5
17587.046,-0.934,0.016,0.274,3.08,-28.17,6.13,2,5
17587.062,-0.938,0.025,0.282,4.12,-27.83,7.05,2,5
17587.078,-0.922,0.036,0.288,4.76,-28.11,8.0,2,5
17587.078,-0.915,0.046,0.29,4.58,-28.6,8.76,2,5
17587.093,-0.91,0.05,0.285,3.51,-30.3,9.34,2,5
17587.109,-0.902,0.043,0.28,2.72,-31.68,10.38,2,5
17587.109,-0.895,0.042,0.273,2.87,-31.31,11.51,2,5
17587.125,-0.899,0.041,0.269,3.48,-29.69,11.54,2,5
17587.125,-0.901,0.042,0.275,3.2,-27.31,10.74,2,5
17587.14,-0.895,0.052,0.284,2.75,-25.42,9.49,2,5
17587.156,-0.892,0.063,0.296,2.23,-24.08,8.45,2,5
17587.156,-0.89,0.065,0.31,1.04,-23.87,8.3,2,5
17587.171,-0.879,0.058,0.312,1.07,-24.75,8.67,2,5
17587.187,-0.881,0.064,0.309,1.83,-25.24,8.67,2,5
17587.187,-0.911,0.056,0.317,1.43,-24.29,8.51,2,5
17587.203,-0.911,0.045,0.333,0.52,-23.9,7.54,2,5
17587.203,-0.9,0.047,0.336,0.64,-24.17,5.58,2,5
17587.218,-0.901,0.059,0.339,-0.12,-24.75,3.57,2,5
17587.234,-0.922,0.06,0.356,-2.23,-24.54,1.92,2,5
17587.234,-0.928,0.06,0.373,-3.97,-24.32,0.73,2,5
17587.25,-0.929,0.063,0.388,-3.6,-24.38,0.09,2,5
17587.265,-0.922,0.075,0.389,-2.78,-25.06,0.27,2,5
17587.265,-0.911,0.085,0.385,-2.84,-25.7,1.01,2,5
17587.281,-0.91,0.071,0.393,-3.05,-26.28,2.5,2,5
17587.296,-0.929,0.062,0.408,-2.84,-26.34,4.43,2,5
17587.296,-0.948,0.047,0.425,-1.8,-26.8,6.41,2,5
17587.312,-0.956,0.038,0.429,-0.09,-28.08,8.64,2,5
17587.328,-0.92,0.042,0.423,1.46,-30.85,11.72,2,5
17587.328,-0.868,0.068,0.399,2.01,-33.97,13.4,2,5
17587.343,-0.829,0.072,0.374,0.12,-35.71,13.76,2,5
17587.359,-0.814,0.055,0.372,-2.84,-34.46,13.98,2,5
17587.359,-0.826,0.023,0.381,-3.11,-31.22,12.7,2,5
17587.375,-0.854,0.003,0.394,-1.22,-27.16,10.01,2,5
17587.375,-0.872,-0.011,0.418,-0.09,-23.71,7.23,2,5
17587.39,-0.871,-0.008,0.438,0.21,-21.61,4.39,2,5
17587.406,-0.86,-0.005,0.447,1.1,-21.21,2.14,2,5
17587.406,-0.841,0.005,0.45,1.98,-21.85,0.31,2,5
17587.421,-0.827,0.016,0.447,2.23,-23.13,-1.31,2,5
17587.437,-0.827,0.028,0.437,2.35,-24.54,-3.39,2,5
17587.437,-0.81,0.041,0.421,1.28,-26.25,-5.98,2,5
17587.453,-0.802,0.049,0.411,-0.64,-26.61,-9.28,2,5
17587.468,-0.824,0.045,0.419,-1.71,-24.99,-12.42,2,5
17587.468,-0.826,0.041,0.435,-1.62,-23.1,-14.95,2,5
17587.484,-0.828,0.044,0.446,-0.61,-21.76,-17.79,2,5
17587.5,-0.835,0.043,0.464,0.43,-21.27,-20.66,2,5
17587.5,-0.835,0.046,0.475,0.58,-22.89,-23.68,2,5
17587.515,-0.831,0.051,0.477,0.09,-25.79,-26.98,2,5
17587.531,-0.835,0.056,0.479,-1.1,-28.44,-29.97,2,5
17587.531,-0.848,0.062,0.489,-1.62,-29.51,-31.71,2,5
17587.546,-0.855,0.072,0.487,-1.59,-30.3,-30.92,2,5
17587.546,-0.845,0.083,0.48,-2.29,-31.37,-27.74,2,5
17587.562,-0.831,0.096,0.477,-2.59,-32.2,-23.13,2,5
17587.578,-0.804,0.11,0.452,-3.14,-32.38,-16.85,2,5
17587.578,-0.782,0.111,0.443,-4.15,-30.88,-10.01,2,5
17587.593,-0.807,0.085,0.459,-2.17,-26.7,-3.02,2,5
17587.609,-0.831,0.066,0.478,3.2,-21.76,4.61,2,5
17587.609,-0.843,0.073,0.485,9.64,-17.18,11.23,2,5
17587.625,-0.847,0.082,0.493,13.98,-13.09,16.57,2,5
17587.625,-0.831,0.086,0.505,13.64,-12.27,22.49,2,5
17587.64,-0.799,0.078,0.504,11.05,-14.13,22.49,2,5
17587.656,-0.791,0.061,0.511,8.76,-15.32,20.08,2,5
17587.656,-0.8,0.014,0.512,6.35,-16.3,15.26,2,5
17587.671,-0.809,0.006,0.515,4.52,-16.63,9.86,2,5
17587.687,-0.805,0.014,0.521,1.95,-16.91,5.52,2,5
17587.687,-0.801,0.016,0.532,-0.09,-16.88,1.74,2,5
17587.703,-0.787,0.022,0.534,-1.01,-17.3,-1.5,2,5
17587.718,-0.776,0.045,0.524,-0.95,-18.07,-4.39,2,5
17587.718,-0.775,0.061,0.517,-1.62,-18.1,-6.81,2,5
17587.734,-0.77,0.065,0.514,-3.14,-17.52,-8.42,2,5
17587.734,-0.774,0.06,0.518,-4.24,-16.39,-9.37,2,5
17587.765,-0.778,0.055,0.531,-4.09,-15.44,-9.7,2,5
17587.765,-0.773,0.054,0.536,-3.45,-15.17,-8.64,2,5
17587.781,-0.764,0.058,0.534,-2.44,-15.14,-5.28,2,5
17587.781,-0.739,0.059,0.529,-0.58,-15.08,-0.89,2,5
17587.796,-0.714,0.055,0.51,1.37,-14.31,3.05,2,5
17587.796,-0.724,0.043,0.495,4.06,-11.93,5.92,2,5
17587.812,-0.756,0.033,0.496,6.81,-7.63,7.26,2,5
17587.828,-0.781,0.027,0.504,9.43,-3.23,5.92,2,5
17587.828,-0.79,0.044,0.513,11.14,0.09,2.69,2,5
17587.843,-0.801,0.079,0.525,10.5,2.17,-1.22,2,5
17587.859,-0.807,0.104,0.537,6.38,2.23,-4.12,2,5
17587.859,-0.816,0.105,0.571,-0.27,1.53,-5.46,2,5
17587.875,-0.819,0.078,0.609,-4.12,-0.43,-5.19,2,5
17587.875,-0.814,0.061,0.619,-2.75,-2.96,-3.11,2,5
17587.89,-0.801,0.065,0.616,0.52,-5.46,0.34,2,5
17587.906,-0.79,0.063,0.602,2.35,-8.24,3.75,2,5
17587.906,-0.775,0.054,0.583,2.38,-11.54,6.74,2,5
17587.921,-0.765,0.042,0.567,1.56,-13.86,8.15,2,5
17587.937,-0.751,0.026,0.552,0.43,-14.74,7.54,2,5
17587.937,-0.746,0.015,0.541,-0.95,-14.4,5.1,2,5
17587.953,-0.756,0.004,0.542,-2.35,-12.57,1.83,2,5
17587.968,-0.758,-0.002,0.549,-2.84,-10.5,-1.01,2,5
17587.968,-0.756,0.008,0.556,-1.98,-8.58,-3.27,2,5
17587.984,-0.756,0.022,0.558,-0.85,-6.62,-4.3,2,5
17587.984,-0.755,0.031,0.56,-0.03,-5.43,-4.49,2,5
17588.0,-0.752,0.043,0.566,0.49,-5.01,-3.91,2,5
17588.015,-0.759,0.053,0.567,0.46,-4.79,-3.33,2,5
17588.015,-0.759,0.049,0.572,0.06,-4.76,-2.29,2,5
17588.031,-0.761,0.043,0.574,-0.27,-5.04,-1.13,2,5
17588.046,-0.764,0.04,0.574,0.43,-5.55,-0.12,2,5
17588.062,-0.759,0.049,0.565,0.7,-5.86,0.76,2,5
17588.062,-0.758,0.049,0.557,0.46,-5.65,0.98,2,5
17588.078,-0.76,0.045,0.556,-0.49,-4.61,0.7,2,5
17588.078,-0.757,0.035,0.566,-1.07,-3.51,-0.06,2,5
17588.093,-0.765,0.027,0.572,-0.12,-2.23,-0.82,2,5
17588.109,-0.77,0.027,0.579,1.46,-1.22,-0.7,2,5
17588.109,-0.761,0.039,0.573,2.87,-1.22,-0.15,2,5
17588.125,-0.753,0.054,0.562,3.08,-1.4,0.09,2,5
17588.14,-0.751,0.06,0.557,2.26,-1.56,-0.46,2,5
17588.14,-0.76,0.063,0.55,1.43,-1.46,-1.13,2,5
17588.156,-0.764,0.057,0.556,0.46,-0.79,-1.89,2,5
17588.156,-0.77,0.048,0.566,-0.03,0.15,-2.93,2,5
17588.171,-0.774,0.04,0.577,0.18,0.58,-3.45,2,5
17588.187,-0.769,0.037,0.581,0.58,-0.18,-3.75,2,5
17588.187,-0.758,0.038,0.575,0.61,-1.89,-4.91,2,5
17588.203,-0.749,0.042,0.559,-1.01,-4.03,-7.29,2,5
17588.218,-0.742,0.04,0.543,-3.81,-5.22,-10.8,2,5
17588.218,-0.758,0.025,0.546,-6.35,-4.36,-14.71,2,5
17588.234,-0.775,0.014,0.557,-7.14,-2.62,-17.64,2,5
17588.234,-0.78,0.026,0.564,-6.2,-0.58,-19.26,2,5
17588.25,-0.781,0.042,0.579,-4.67,1.16,-19.01,2,5
17588.265,-0.789,0.063,0.587,-3.39,2.17,-16.72,2,5
17588.265,-0.793,0.074,0.593,-2.66,2.14,-12.94,2,5
17588.281,-0.796,0.074,0.597,-2.2,1.68,-8.18,2,5
17588.296,-0.803,0.063,0.602,-0.82,1.56,-3.54,2,5
17588.296,-0.801,0.053,0.599,1.53,1.74,0.21,2,5
17588.312,-0.803,0.046,0.594,2.81,1.95,2.81,2,5
17588.328,-0.809,0.029,0.599,2.72,1.95,3.85,2,5
17588.328,-0.806,0.017,0.592,2.26,1.01,3.27,2,5
17588.343,-0.804,0.009,0.588,0.43,-0.24,1.5,2,5
17588.343,-0.8,0.002,0.589,-1.28,-1.13,-1.43,2,5
17588.359,-0.804,-0.002,0.584,-2.01,-1.62,-4.97,2,5
17588.375,-0.8,0.005,0.587,-2.99,-2.11,-7.81,2,5
17588.375,-0.797,0.012,0.585,-3.85,-2.2,-9.64,2,5
17588.39,-0.796,0.017,0.578,-3.48,-1.74,-10.22,2,5
17588.406,-0.794,0.025,0.574,-2.26,-0.73,-9.74,2,5
17588.421,-0.796,0.032,0.574,-0.7,0.37,-8.24,2,5
17588.421,-0.796,0.037,0.576,0.64,1.34,-6.23,2,5
17588.437,-0.816,0.032,0.581,1.71,2.5,-4.49,2,5
17588.437,-0.835,0.02,0.596,2.26,3.48,-3.42,2,5
17588.453,-0.839,0.02,0.604,2.87,3.51,-2.84,2,5
17588.468,-0.83,0.024,0.604,3.08,2.26,-2.26,2,5
17588.468,-0.815,0.028,0.598,1.83,-0.06,-1.68,2,5
17588.484,-0.813,0.025,0.587,0.4,-2.44,-1.56,2,5
17588.484,-0.808,0.022,0.575,-0.52,-4.06,-2.17,2,5
17588.5,-0.806,0.021,0.564,-1.01,-4.46,-3.42,2,5
17588.515,-0.808,0.018,0.562,-1.53,-3.33,-4.7,2,5
17588.531,-0.811,0.018,0.564,-1.68,-1.92,-5.46,2,5
17588.531,-0.809,0.021,0.57,-1.25,-0.43,-5.86,2,5
17588.546,-0.804,0.022,0.572,-1.04,0.18,-5.98,2,5
17588.546,-0.798,0.025,0.574,-0.64,0.06,-5.68,2,5
17588.562,-0.796,0.028,0.572,-0.34,-0.73,-5.55,2,5
17588.578,-0.797,0.028,0.571,-0.89,-1.43,-5.37,2,5
17588.578,-0.795,0.02,0.577,-1.5,-1.62,-5.55,2,5
17588.593,-0.794,0.014,0.575,-1.43,-1.92,-5.89,2,5
17588.609,-0.791,0.018,0.576,-1.56,-2.11,-5.25,2,5
17588.609,-0.79,0.017,0.579,-1.13,-1.53,-1.22,2,5
17588.625,-0.789,0.009,0.58,0.09,-0.98,0.55,2,5
17588.64,-0.78,0.002,0.576,1.74,-0.15,0.79,2,5
17588.64,-0.778,0.003,0.568,2.26,0.85,0.73,2,5
17588.656,-0.784,0.021,0.565,1.95,1.95,0.79,2,5
17588.656,-0.795,0.02,0.574,1.07,3.14,0.92,2,5
17588.671,-0.805,0.011,0.586,0.46,3.66,0.76,2,5
17588.687,-0.809,0.01,0.593,1.13,3.42,0.98,2,5
17588.687,-0.805,0.018,0.59,1.86,2.56,1.56,2,5
17588.703,-0.797,0.018,0.589,1.89,1.43,2.53,2,5
17588.718,-0.792,0.014,0.582,1.77,0.06,2.96,2,5
17588.718,-0.792,0.013,0.566,1.34,-1.16,2.47,2,5
17588.734,-0.786,0.013,0.555,0.06,-1.43,0.98,2,5
17588.734,-0.783,0.007,0.551,-1.1,-0.73,-1.46,2,5
17588.75,-0.785,-0.001,0.554,-1.46,0.4,-3.91,2,5
17588.765,-0.783,0.005,0.557,-1.46,1.16,-5.89,2,5
17588.781,-0.776,0.014,0.559,-1.31,1.56,-7.6,2,5
17588.781,-0.767,0.016,0.554,-1.59,1.13,-9.09,2,5
17588.796,-0.759,0.022,0.541,-2.81,0.21,-10.01,2,5
17588.796,-0.756,0.035,0.537,-4.27,-0.21,-10.28,2,5
17588.812,-0.762,0.033,0.539,-5.28,0.52,-9.58,2,5
17588.828,-0.768,0.031,0.548,-5.77,1.92,-8.27,2,5
17588.828,-0.775,0.03,0.554,-5.13,3.63,-7.02,2,5
17588.843,-0.786,0.027,0.56,-4.33,4.97,-5.65,2,5
17588.859,-0.792,0.023,0.573,-3.91,5.1,-3.78,2,5
17588.859,-0.792,0.019,0.582,-3.6,4.58,-2.41,2,5
17588.875,-0.802,0.011,0.587,-3.78,3.97,-1.19,2,5
17588.875,-0.811,0.002,0.585,-3.85,2.93,0.34,2,5
17588.89,-0.813,-0.007,0.587,-3.97,2.26,1.4,2,5
17588.906,-0.818,-0.018,0.584,-3.66,2.04,1.65,2,5
17588.906,-0.823,-0.024,0.58,-3.14,1.98,1.31,2,5
17588.921,-0.824,-0.025,0.578,-2.59,2.01,0.73,2,5
17588.937,-0.826,-0.025,0.583,-2.75,2.04,-0.27,2,5
17588.937,-0.834,-0.026,0.585,-2.81,2.04,-1.56,2,5
17588.953,-0.836,-0.028,0.588,-2.75,2.14,-2.59,2,5
17588.953,-0.845,-0.03,0.592,-2.23,2.29,-3.63,2,5
17588.968,-0.861,-0.032,0.601,-1.13,2.29,-4.36,2,5
17588.984,-0.868,-0.026,0.606,0.09,1.8,-4.76,2,5
17588.984,-0.865,-0.013,0.599,0.85,0.95,-5.25,2,5
17589.0,-0.864,-0.004,0.595,0.61,0.27,-5.65,2,5
17589.015,-0.863,0.003,0.594,0.49,-0.58,-5.22,2,5
17589.015,-0.862,0.002,0.594,1.07,-1.19,-4.39,2,5
17589.031,-0.865,-0.007,0.595,2.69,-1.22,-3.72,2,5
17589.046,-0.866,-0.017,0.595,4.7,-1.86,-4.0,2,5
17589.046,-0.863,-0.016,0.596,5.95,-2.93,-5.46,2,5
