timestamp,ax,ay,az,gx,gy,gz,orient_label,motion_label
17589.062,-0.864,-0.011,0.591,6.01,-3.75,-7.39,2,5
17589.078,-0.859,-0.0,0.587,4.09,-4.7,-8.15,2,5
17589.078,-0.855,0.01,0.584,1.37,-5.71,-7.54,2,5
17589.093,-0.848,0.012,0.584,-0.61,-6.16,-6.04,2,5
17589.093,-0.842,0.009,0.583,-1.43,-6.23,-4.49,2,5
17589.109,-0.834,0.003,0.585,-0.98,-6.1,-2.66,2,5
17589.125,-0.824,0.001,0.584,0.67,-6.01,-0.52,2,5
17589.125,-0.816,0.005,0.579,2.26,-5.62,1.89,2,5
17589.14,-0.81,-0.005,0.578,3.69,-5.22,4.09,2,5
17589.156,-0.805,-0.018,0.578,4.88,-5.19,5.8,2,5
17589.156,-0.798,-0.016,0.57,5.55,-5.49,6.84,2,5
17589.171,-0.789,-0.014,0.56,5.07,-5.95,7.6,2,5
17589.187,-0.782,-0.015,0.555,4.18,-5.95,8.0,2,5
17589.187,-0.775,-0.014,0.546,3.45,-5.28,8.0,2,5
17589.203,-0.772,-0.014,0.548,2.81,-3.72,7.78,2,5
17589.218,-0.769,-0.014,0.552,3.05,-2.01,7.63,2,5
17589.218,-0.772,-0.008,0.554,2.96,-0.64,7.08,2,5
17589.25,-0.779,-0.012,0.573,1.19,1.28,5.16,2,5
17589.25,-0.784,-0.016,0.581,1.89,1.04,4.58,2,5
17589.265,-0.78,-0.007,0.584,2.78,-0.09,4.3,2,5
17589.265,-0.774,0.003,0.576,2.47,-1.37,3.69,2,5
17589.281,-0.77,-0.0,0.571,1.56,-2.32,2.99,2,5
17589.296,-0.772,-0.002,0.564,0.55,-2.99,1.86,2,5
17589.312,-0.771,-0.005,0.565,-0.61,-3.39,0.73,2,5
17589.312,-0.765,-0.01,0.563,-1.31,-3.33,0.09,2,5
17589.328,-0.763,-0.011,0.562,-2.04,-3.08,-0.85,2,5
17589.328,-0.77,-0.018,0.567,-2.53,-2.75,-1.86,2,5
17589.343,-0.772,-0.019,0.566,-2.26,-2.44,-2.29,2,5
17589.343,-0.767,-0.01,0.56,-1.19,-1.95,-1.83,2,5
17589.359,-0.761,0.0,0.558,-0.76,-1.13,-1.01,2,5
17589.375,-0.764,0.009,0.556,-1.01,-0.18,-0.21,2,5
17589.39,-0.767,0.013,0.554,-0.95,0.95,0.95,2,5
17589.39,-0.773,0.02,0.557,-0.73,1.92,2.56,2,5
17589.406,-0.775,0.036,0.562,-0.12,3.54,5.86,2,5
17589.421,-0.778,0.042,0.566,-0.76,3.51,7.48,2,5
17589.437,-0.778,0.049,0.571,-1.89,2.84,9.13,2,5
17589.437,-0.774,0.051,0.569,-3.48,1.46,10.99,2,5
17589.453,-0.769,0.055,0.56,-4.88,-0.24,13.4,2,5
17589.468,-0.769,0.06,0.548,-6.23,-1.37,15.44,2,5
17589.468,-0.766,0.062,0.54,-7.51,-2.14,17.94,2,5
17589.484,-0.739,0.073,0.528,-7.93,-3.88,21.33,2,5
17589.484,-0.686,0.107,0.499,-6.99,-7.57,26.03,2,5
17589.5,-0.65,0.148,0.451,-6.87,-12.67,31.8,2,5
17589.515,-0.628,0.186,0.398,-10.16,-19.65,39.19,2,5
17589.531,-0.635,0.198,0.348,-15.63,-27.77,48.37,2,5
17589.531,-0.651,0.195,0.308,-21.33,-35.13,58.53,2,5
17589.546,-0.629,0.172,0.292,-26.4,-41.72,68.82,2,5
17589.562,-0.589,0.158,0.278,-29.08,-46.72,77.36,2,5
17589.562,-0.584,0.145,0.26,-29.82,-49.53,83.77,2,5
17589.578,-0.635,0.049,0.249,-29.39,-48.62,92.44,2,5
17589.593,-0.67,0.016,0.262,-25.45,-48.89,100.44,2,5
17589.609,-0.692,-0.011,0.256,-21.7,-52.1,102.73,2,5
17589.609,-0.665,-0.01,0.245,-20.29,-56.76,102.48,2,5
17589.625,-0.607,0.026,0.23,-22.74,-60.46,100.68,2,5
17589.625,-0.552,0.081,0.191,-29.69,-62.14,99.0,2,5
17589.64,-0.541,0.069,0.21,-37.48,-63.3,98.03,2,5
17589.656,-0.534,0.05,0.232,-42.7,-64.21,98.24,2,5
17589.671,-0.561,0.026,0.242,-42.51,-64.88,98.7,2,5
17589.671,-0.58,-0.004,0.254,-38.24,-67.45,99.49,2,5
17589.687,-0.543,-0.014,0.269,-33.36,-71.23,98.48,2,5
17589.687,-0.484,0.011,0.287,-30.12,-72.66,94.33,2,5
17589.703,-0.482,0.024,0.289,-28.05,-71.02,89.36,2,5
17589.718,-0.486,0.022,0.309,-30.0,-68.03,85.76,2,5
17589.718,-0.515,0.017,0.347,-32.59,-64.03,83.96,2,5
17589.734,-0.539,0.019,0.376,-31.19,-61.92,82.13,2,5
17589.75,-0.509,0.018,0.412,-27.19,-59.97,80.87,2,5
17589.75,-0.466,0.044,0.445,-21.15,-57.71,79.59,2,5
17589.765,-0.388,0.057,0.481,-12.12,-51.79,80.05,2,5
17589.765,-0.384,0.091,0.501,-0.24,-44.43,76.63,2,5
17589.781,-0.435,0.087,0.504,13.15,-39.74,71.81,2,5
17589.796,-0.494,0.051,0.53,25.15,-34.03,71.26,2,5
17589.796,-0.53,0.046,0.559,38.42,-29.48,71.23,2,5
17589.812,-0.485,0.071,0.574,54.57,-25.97,69.09,2,5
17589.828,-0.374,0.134,0.587,69.43,-17.98,64.36,2,5
17589.828,-0.328,0.24,0.577,78.86,-8.18,54.81,2,5
17589.843,-0.353,0.315,0.562,80.84,0.18,43.58,2,5
17589.859,-0.418,0.335,0.567,78.59,6.68,34.94,2,5
17589.859,-0.476,0.329,0.592,74.34,9.25,28.29,2,5
17589.875,-0.523,0.32,0.624,72.12,8.73,23.5,2,5
17589.875,-0.535,0.314,0.664,74.62,9.64,21.21,2,5
17589.89,-0.522,0.334,0.698,81.61,13.55,18.19,2,5
17589.906,-0.519,0.38,0.716,90.95,17.67,12.63,2,5
17589.921,-0.501,0.438,0.726,100.34,20.39,5.86,2,5
17589.921,-0.526,0.526,0.716,107.18,22.83,-3.91,2,5
17589.937,-0.588,0.593,0.71,108.1,24.75,-13.58,2,5
17589.937,-0.649,0.617,0.719,103.03,24.26,-18.65,2,5
17589.953,-0.693,0.624,0.746,96.8,22.52,-21.42,2,5
17589.968,-0.724,0.618,0.787,92.84,21.06,-22.64,2,5
17589.968,-0.729,0.591,0.83,91.1,21.36,-22.83,2,5
17589.984,-0.71,0.579,0.872,90.76,20.42,-24.32,2,5
17590.0,-0.676,0.598,0.901,91.95,18.98,-27.5,2,5
17590.0,-0.692,0.663,0.904,93.42,16.75,-33.54,2,5
17590.015,-0.733,0.731,0.899,90.64,11.17,-40.5,2,5
17590.015,-0.783,0.807,0.909,81.12,3.94,-46.91,2,5
17590.031,-0.832,0.874,0.939,65.37,-4.67,-50.78,2,5
17590.046,-0.847,0.893,0.975,46.69,-13.64,-51.39,2,5
17590.046,-0.831,0.871,1.008,29.51,-21.64,-47.82,2,5
17590.062,-0.793,0.82,1.027,18.31,-26.43,-40.56,2,5
17590.078,-0.707,0.706,1.038,26.06,-28.9,-26.4,2,5
17590.093,-0.658,0.679,1.034,42.24,-28.44,-21.27,2,5
17590.093,-0.635,0.668,1.021,59.54,-32.29,-16.79,2,5
17590.109,-0.589,0.675,0.996,78.46,-32.99,-14.19,2,5
17590.125,-0.586,0.694,0.959,89.69,-36.87,-14.4,2,5
17590.125,-0.558,0.723,0.922,89.02,-43.79,-13.28,2,5
17590.14,-0.527,0.754,0.885,79.04,-49.01,-13.06,2,5
17590.156,-0.535,0.771,0.85,61.43,-52.77,-13.73,2,5
17590.156,-0.531,0.758,0.828,39.83,-57.77,-12.51,2,5
17590.171,-0.516,0.75,0.821,19.01,-63.94,-10.96,2,5
17590.187,-0.503,0.746,0.808,0.46,-71.38,-9.06,2,5
17590.203,-0.504,0.733,0.789,-14.65,-78.92,-6.65,2,5
17590.203,-0.454,0.705,0.78,-24.6,-81.18,-1.65,2,5
17590.218,-0.459,0.723,0.755,-30.82,-83.99,-2.59,2,5
17590.218,-0.444,0.667,0.738,-35.19,-85.3,-1.4,2,5
17590.234,-0.437,0.624,0.737,-37.26,-83.04,1.01,2,5
17590.25,-0.397,0.592,0.75,-31.56,-73.61,5.34,2,5
17590.265,-0.41,0.609,0.774,-27.28,-68.73,7.72,2,5
17590.265,-0.422,0.617,0.793,-24.57,-66.56,12.21,2,5
17590.281,-0.417,0.632,0.818,-25.48,-67.81,16.6,2,5
17590.296,-0.417,0.642,0.826,-28.5,-70.1,19.44,2,5
17590.296,-0.409,0.625,0.827,-33.33,-71.69,20.69,2,5
17590.312,-0.386,0.615,0.832,-39.61,-71.2,19.56,2,5
17590.328,-0.365,0.605,0.838,-45.05,-67.54,16.85,2,5
17590.328,-0.355,0.575,0.854,-47.58,-61.37,13.61,2,5
17590.343,-0.352,0.562,0.886,-46.91,-54.99,10.07,2,5
17590.343,-0.359,0.542,0.918,-44.74,-51.21,6.23,2,5
17590.359,-0.348,0.518,0.943,-41.78,-50.51,1.8,2,5
17590.375,-0.349,0.495,0.954,-38.91,-52.28,-4.88,2,5
17590.375,-0.356,0.472,0.961,-37.75,-56.0,-14.22,2,5
17590.39,-0.36,0.453,0.971,-37.14,-60.4,-24.6,2,5
17590.406,-0.375,0.429,0.97,-34.88,-64.76,-33.85,2,5
17590.421,-0.393,0.415,0.968,-33.27,-70.35,-42.48,2,5
17590.421,-0.389,0.426,0.955,-31.59,-77.03,-49.2,2,5
17590.437,-0.38,0.448,0.953,-30.18,-82.52,-51.27,2,5
17590.437,-0.353,0.45,0.937,-27.53,-83.01,-47.79,2,5
17590.453,-0.332,0.456,0.932,-24.02,-78.19,-40.16,2,5
17590.468,-0.313,0.458,0.931,-20.66,-70.96,-31.13,2,5
17590.468,-0.297,0.449,0.925,-17.73,-63.08,-22.74,2,5
17590.484,-0.3,0.448,0.929,-15.11,-55.48,-16.05,2,5
17590.5,-0.317,0.433,0.927,-12.15,-50.33,-11.44,2,5
17590.5,-0.336,0.418,0.932,-10.62,-48.89,-8.79,2,5
17590.515,-0.346,0.411,0.922,-10.28,-49.96,-7.48,2,5
17590.515,-0.337,0.399,0.898,-10.38,-50.87,-6.32,2,5
17590.531,-0.32,0.398,0.875,-11.02,-49.01,-5.71,2,5
17590.546,-0.301,0.396,0.848,-10.5,-42.66,-4.91,2,5
17590.546,-0.293,0.383,0.831,-8.21,-33.2,-3.36,2,5
17590.562,-0.299,0.371,0.842,-2.29,-21.85,-0.18,2,5
17590.578,-0.31,0.373,0.866,7.11,-10.77,2.99,2,5
17590.578,-0.315,0.386,0.897,21.82,0.03,4.12,2,5
17590.593,-0.349,0.388,0.908,22.28,-0.4,2.93,2,5
17590.609,-0.367,0.391,0.912,18.49,-4.03,0.55,2,5
17590.609,-0.378,0.412,0.908,12.12,-9.03,-2.01,2,5
17590.625,-0.379,0.42,0.907,5.25,-13.61,-2.78,2,5
17590.625,-0.391,0.443,0.94,0.43,-17.49,-1.04,2,5
17590.64,-0.387,0.474,0.966,-0.52,-21.64,4.06,2,5
17590.656,-0.368,0.488,0.974,1.16,-25.24,11.29,2,5
17590.656,-0.332,0.476,0.95,2.47,-28.44,18.25,2,5
17590.671,-0.293,0.476,0.915,2.35,-29.91,22.55,2,5
17590.687,-0.28,0.459,0.906,3.54,-27.25,23.53,2,5
17590.687,-0.309,0.442,0.936,8.03,-24.9,21.76,2,5
17590.703,-0.35,0.44,0.979,14.83,-28.23,20.2,2,5
17590.718,-0.366,0.45,0.987,22.61,-38.36,20.75,2,5
17590.718,-0.336,0.469,0.945,27.77,-50.57,23.5,2,5
17590.734,-0.289,0.497,0.888,29.91,-57.71,25.73,2,5
17590.75,-0.192,0.519,0.805,18.89,-52.1,25.76,2,5
17590.765,-0.166,0.508,0.802,9.55,-42.12,25.15,2,5
17590.765,-0.187,0.494,0.822,3.05,-32.44,24.38,2,5
17590.781,-0.198,0.463,0.839,0.31,-25.82,25.15,2,5
17590.796,-0.193,0.453,0.854,-1.34,-22.31,25.24,2,5
17590.796,-0.178,0.455,0.852,-2.04,-20.39,23.53,2,5
17590.812,-0.16,0.44,0.838,-0.37,-18.92,20.78,2,5
17590.828,-0.139,0.431,0.833,3.36,-16.27,17.94,2,5
17590.828,-0.14,0.449,0.826,9.92,-11.81,16.33,2,5
17590.843,-0.134,0.469,0.795,17.58,-5.95,17.4,2,5
17590.859,-0.123,0.486,0.757,21.45,1.04,19.17,2,5
17590.859,-0.115,0.485,0.724,20.2,9.13,18.95,2,5
17590.875,-0.13,0.476,0.701,14.34,17.52,17.33,2,5
17590.875,-0.139,0.467,0.709,3.66,23.56,15.38,2,5
17590.89,-0.14,0.476,0.736,-10.41,26.92,11.44,2,5
17590.906,-0.152,0.458,0.744,-23.83,28.38,6.47,2,5
17590.921,-0.142,0.383,0.753,-41.96,33.27,-2.44,2,5
17590.937,-0.139,0.357,0.75,-43.21,39.37,-7.32,2,5
17590.937,-0.182,0.339,0.77,-41.66,47.36,-12.97,2,5
17590.953,-0.289,0.412,0.935,-40.96,51.85,-16.69,2,5
17590.968,-0.43,0.521,1.157,-36.04,41.41,-12.42,2,5
17590.968,-0.498,0.562,1.302,-27.53,17.82,2.32,2,5
17590.984,-0.243,0.55,1.142,-36.16,-20.69,12.18,2,5
17591.0,-0.105,0.445,0.966,-36.81,-28.6,11.2,2,5
17591.0,-0.115,0.357,0.959,-22.31,-12.7,8.94,2,5
17591.015,-0.178,0.343,0.97,-2.99,0.24,6.5,2,5
17591.031,-0.209,0.36,0.966,11.17,3.66,1.68,2,5
17591.031,-0.217,0.385,0.956,18.68,1.1,-3.6,2,5
17591.046,-0.243,0.401,0.937,24.69,-2.87,-7.9,2,5
17591.046,-0.252,0.409,0.91,30.52,-8.18,-8.94,2,5
17591.062,-0.266,0.434,0.895,34.58,-13.64,-7.81,2,5
17591.078,-0.288,0.495,0.913,32.96,-19.9,-4.3,2,5
17591.093,-0.128,0.519,0.767,9.0,-28.78,2.75,2,5
17591.109,-0.155,0.502,0.824,1.68,-17.24,8.97,2,5
17591.109,-0.136,0.454,0.819,-7.81,-14.74,12.21,2,5
17591.125,-0.117,0.443,0.807,-15.78,-10.53,12.67,2,5
17591.125,-0.117,0.405,0.828,-17.33,-4.36,11.38,2,5
17591.14,-0.124,0.376,0.856,-13.79,-1.5,7.63,2,5
17591.156,-0.128,0.374,0.872,-7.14,-0.34,3.91,2,5
17591.156,-0.128,0.382,0.869,0.46,-0.24,0.85,2,5
17591.171,-0.135,0.397,0.865,6.41,0.12,-1.16,2,5
17591.187,-0.13,0.415,0.857,8.15,0.27,-2.41,2,5
17591.187,-0.13,0.431,0.848,5.98,0.58,-3.45,2,5
17591.203,-0.128,0.432,0.844,0.89,1.04,-4.21,2,5
17591.218,-0.129,0.423,0.849,-5.13,1.86,-4.52,2,5
17591.218,-0.135,0.407,0.852,-9.31,2.81,-4.43,2,5
17591.234,-0.14,0.391,0.86,-10.32,3.48,-4.43,2,5
17591.25,-0.156,0.382,0.87,-8.18,3.45,-4.58,2,5
17591.265,-0.144,0.383,0.863,-1.98,1.8,-5.8,2,5
17591.265,-0.147,0.392,0.855,1.5,2.2,-6.78,2,5
17591.281,-0.151,0.402,0.845,4.7,3.48,-6.74,2,5
17591.296,-0.154,0.416,0.829,6.93,5.37,-5.28,2,5
17591.296,-0.162,0.426,0.813,8.15,7.9,-2.96,2,5
17591.312,-0.169,0.434,0.807,7.45,10.22,-0.92,2,5
17591.328,-0.172,0.434,0.805,4.67,11.66,0.15,2,5
17591.328,-0.178,0.43,0.811,1.59,12.73,0.31,2,5
17591.343,-0.188,0.423,0.814,-0.73,13.86,0.12,2,5
17591.359,-0.193,0.423,0.831,-2.75,14.56,-0.67,2,5
17591.359,-0.206,0.424,0.848,-3.6,14.86,-1.89,2,5
17591.375,-0.227,0.431,0.857,-3.69,14.62,-2.44,2,5
17591.39,-0.28,0.465,0.898,-5.28,12.6,-2.04,2,5
17591.39,-0.283,0.512,0.954,-10.53,6.32,2.14,2,5
17591.406,-0.227,0.496,0.929,-16.21,-1.4,6.26,2,5
17591.406,-0.194,0.447,0.881,-19.62,-3.05,7.39,2,5
17591.437,-0.176,0.349,0.821,-13.52,9.77,3.42,2,5
17591.437,-0.351,0.421,1.025,-3.91,16.02,1.65,2,5
17591.453,-0.258,0.491,1.043,-5.43,0.15,5.83,2,5
17591.468,-0.203,0.462,0.981,-5.55,-10.25,6.1,2,5
17591.468,-0.184,0.431,0.966,-5.01,-10.53,6.9,2,5
17591.484,-0.168,0.436,0.961,-1.59,-9.37,7.48,2,5
17591.5,-0.177,0.417,0.929,4.06,-7.87,6.2,2,5
17591.5,-0.195,0.423,0.927,5.86,-7.97,4.3,2,5
17591.515,-0.206,0.431,0.916,8.0,-10.16,1.83,2,5
17591.515,-0.223,0.435,0.907,10.65,-13.06,0.64,2,5
17591.531,-0.221,0.447,0.899,12.15,-16.88,2.41,2,5
17591.546,-0.249,0.477,0.916,11.75,-20.63,5.74,2,5
17591.562,-0.167,0.489,0.894,5.86,-26.8,11.35,2,5
17591.562,-0.094,0.412,0.793,-0.55,-17.67,8.39,2,5
17591.578,-0.178,0.376,0.84,-4.0,-17.64,9.74,2,5
17591.578,-0.156,0.43,0.888,-5.46,-19.56,9.58,2,5
17591.609,-0.122,0.386,0.858,-5.8,-17.58,4.67,2,5
17591.609,-0.116,0.391,0.844,-3.51,-16.17,2.35,2,5
17591.625,-0.11,0.394,0.83,-1.62,-14.04,0.21,2,5
17591.625,-0.102,0.391,0.816,0.09,-10.68,-1.59,2,5
17591.64,-0.096,0.393,0.787,1.43,-5.95,-2.99,2,5
17591.656,-0.093,0.389,0.764,2.44,0.31,-4.15,2,5
17591.656,-0.087,0.379,0.748,2.99,8.0,-5.68,2,5
17591.671,-0.089,0.372,0.727,4.27,17.33,-7.75,2,5
17591.687,-0.099,0.361,0.716,7.2,28.23,-9.74,2,5
17591.687,-0.114,0.361,0.715,10.68,39.95,-11.93,2,5
17591.703,-0.148,0.372,0.71,13.28,50.78,-14.83,2,5
17591.718,-0.29,0.474,0.866,10.22,57.68,-16.97,2,5
17591.718,-0.387,0.591,1.079,0.61,47.73,-10.41,2,5
17591.734,-0.482,0.644,1.199,-5.07,23.5,3.05,2,5
17591.734,-0.235,0.623,1.077,-25.94,-10.22,15.56,2,5
17591.75,-0.098,0.489,0.912,-35.92,-18.62,14.4,2,5
17591.781,-0.167,0.362,0.928,-13.98,5.01,8.58,2,5
17591.781,-0.206,0.376,0.949,-2.38,7.97,4.18,2,5
17591.796,-0.218,0.388,0.96,3.94,5.16,0.27,2,5
17591.796,-0.203,0.399,0.946,9.34,0.95,-1.59,2,5
17591.812,-0.198,0.415,0.923,12.6,-1.16,-1.86,2,5
17591.828,-0.21,0.439,0.914,12.6,-2.59,-1.8,2,5
17591.843,-0.221,0.445,0.91,10.19,-4.21,-0.43,2,5
17591.843,-0.234,0.452,0.912,6.71,-7.05,1.43,2,5
17591.859,-0.283,0.465,0.944,2.53,-11.72,3.3,2,5
17591.859,-0.172,0.451,0.899,-4.55,-20.69,6.41,2,5
17591.875,-0.176,0.38,0.812,-3.42,-19.38,4.24,2,5
17591.875,-0.222,0.398,0.825,0.43,-12.63,1.98,2,5
17591.89,-0.178,0.394,0.852,4.46,-10.19,2.72,2,5
17591.906,-0.172,0.443,0.838,3.05,-8.36,0.18,2,5
17591.906,-0.174,0.43,0.834,2.56,-4.3,-0.64,2,5
17591.921,-0.183,0.412,0.847,3.63,0.09,-1.4,2,5
17591.937,-0.188,0.446,0.86,6.59,5.22,-0.31,2,5
17591.953,-0.202,0.458,0.866,7.35,7.51,0.24,2,5
17591.968,-0.216,0.463,0.874,6.74,9.37,1.43,2,5
17591.968,-0.236,0.47,0.889,5.71,10.19,2.87,2,5
17591.984,-0.252,0.487,0.914,3.6,9.7,4.18,2,5
17591.984,-0.266,0.497,0.926,0.46,7.54,4.76,2,5
17592.0,-0.267,0.493,0.937,-1.98,5.22,4.97,2,5
17592.015,-0.272,0.494,0.938,-2.38,3.81,4.79,2,5
17592.015,-0.275,0.489,0.932,-0.92,3.3,5.13,2,5
17592.031,-0.277,0.49,0.923,1.19,3.97,5.55,2,5
17592.046,-0.278,0.493,0.911,3.27,5.52,5.89,2,5
17592.046,-0.275,0.482,0.902,4.91,7.54,6.59,2,5
17592.062,-0.284,0.47,0.902,6.38,10.28,7.66,2,5
17592.078,-0.299,0.465,0.915,8.15,12.12,8.55,2,5
17592.078,-0.3,0.459,0.916,10.04,11.81,9.89,2,5
17592.093,-0.291,0.449,0.906,11.35,10.77,11.23,2,5
17592.109,-0.272,0.433,0.892,11.57,9.61,11.38,2,5
17592.109,-0.238,0.427,0.88,10.59,8.58,10.65,2,5
17592.125,-0.216,0.422,0.869,9.55,9.43,8.97,2,5
17592.125,-0.2,0.402,0.859,8.82,11.57,6.93,2,5
17592.14,-0.179,0.396,0.861,9.13,14.16,5.22,2,5
17592.156,-0.172,0.411,0.871,10.99,18.07,3.45,2,5
17592.156,-0.188,0.416,0.876,13.49,21.64,2.04,2,5
17592.171,-0.202,0.42,0.889,15.81,23.68,1.5,2,5
17592.187,-0.22,0.428,0.903,18.49,25.3,1.68,2,5
17592.187,-0.247,0.43,0.915,21.3,27.04,2.44,2,5
17592.203,-0.284,0.434,0.925,23.83,28.2,3.17,2,5
17592.218,-0.318,0.441,0.933,23.38,26.31,3.05,2,5
17592.218,-0.339,0.443,0.938,21.06,21.36,1.31,2,5
17592.234,-0.361,0.428,0.925,19.56,16.27,-1.28,2,5
17592.25,-0.38,0.406,0.906,18.98,12.85,-3.57,2,5
17592.25,-0.383,0.384,0.878,19.62,10.1,-6.29,2,5
17592.265,-0.378,0.368,0.838,21.97,8.39,-9.31,2,5
17592.265,-0.367,0.352,0.793,26.0,8.73,-12.48,2,5
17592.281,-0.354,0.343,0.751,30.98,11.57,-15.72,2,5
17592.296,-0.349,0.338,0.714,36.35,16.48,-19.2,2,5
17592.296,-0.348,0.331,0.685,42.09,22.64,-22.64,2,5
17592.312,-0.353,0.315,0.651,48.68,30.52,-25.48,2,5
17592.328,-0.366,0.3,0.625,56.22,40.25,-27.92,2,5
17592.328,-0.386,0.289,0.608,63.78,49.2,-31.16,2,5
17592.343,-0.4,0.284,0.606,70.44,56.73,-35.43,2,5
17592.359,-0.41,0.295,0.613,75.5,64.39,-40.71,2,5
17592.359,-0.417,0.304,0.609,78.59,71.47,-47.4,2,5
17592.375,-0.423,0.305,0.603,79.59,77.61,-55.24,2,5
17592.375,-0.442,0.323,0.601,79.81,84.2,-63.17,2,5
17592.39,-0.469,0.358,0.584,77.97,90.7,-69.52,2,5
17592.406,-0.494,0.374,0.549,74.77,95.8,-73.55,2,5
17592.421,-0.512,0.376,0.517,70.89,101.35,-75.38,2,5
17592.421,-0.509,0.393,0.466,65.83,108.43,-75.26,2,5
17592.437,-0.512,0.405,0.47,58.75,115.76,-74.04,2,5
17592.453,-0.544,0.388,0.491,44.86,117.01,-75.59,2,5
17592.468,-0.533,0.359,0.479,38.12,116.58,-75.78,2,5
17592.468,-0.497,0.323,0.454,32.93,120.98,-77.36,2,5
17592.484,-0.46,0.284,0.414,29.48,129.09,-83.38,2,5
17592.5,-0.415,0.242,0.36,27.47,143.19,-93.36,2,5
17592.5,-0.381,0.196,0.295,26.25,164.25,-107.49,2,5
17592.515,-0.381,0.163,0.223,26.83,193.18,-122.59,2,5
17592.515,-0.461,0.196,0.224,30.27,226.39,-137.76,2,5
17592.531,-0.594,0.236,0.289,38.64,253.52,-149.66,2,5
17592.546,-0.762,0.287,0.384,51.21,266.46,-152.65,2,5
17592.546,-0.907,0.298,0.428,84.38,241.22,-121.07,2,5
17592.562,-0.936,0.327,0.416,98.36,218.15,-100.77,2,5
17592.578,-0.889,0.367,0.381,107.43,197.09,-89.75,2,5
17592.578,-0.813,0.353,0.236,107.12,181.59,-86.58,2,5
17592.593,-0.793,0.357,0.17,96.5,173.62,-89.36,2,5
17592.609,-0.78,0.336,0.106,81.0,172.49,-100.38,2,5
17592.609,-0.746,0.3,-0.005,64.03,178.04,-119.14,2,5
17592.625,-0.762,0.305,-0.115,42.6,196.14,-139.16,2,5
17592.64,-0.829,0.307,-0.168,19.47,220.16,-160.77,2,5
17592.64,-0.889,0.245,-0.187,-1.16,241.0,-183.94,2,5
17592.656,-0.964,0.203,-0.222,-19.2,258.13,-205.05,2,5
17592.671,-1.06,0.187,-0.25,-32.47,272.74,-218.76,2,5
17592.671,-1.133,0.164,-0.258,-40.38,281.29,-225.26,2,5
17592.687,-1.163,0.135,-0.283,-40.99,283.36,-227.21,2,5
17592.703,-1.18,0.132,-0.314,-37.14,283.91,-222.51,2,5
17592.703,-1.193,0.132,-0.372,-31.98,283.39,-214.15,2,5
17592.718,-1.188,0.121,-0.429,-27.83,282.48,-207.1,2,5
17592.718,-1.198,0.096,-0.485,-24.29,284.8,-200.35,2,5
17592.734,-1.225,0.045,-0.564,-17.64,289.32,-194.28,2,5
17592.75,-1.247,0.013,-0.624,-10.65,293.04,-190.19,2,5
17592.75,-1.224,-0.005,-0.698,0.7,297.92,-186.47,2,5
17592.765,-1.185,0.008,-0.744,11.23,306.22,-181.62,2,5
17592.781,-1.134,0.035,-0.779,24.05,314.28,-166.84,2,5
17592.796,-1.105,0.038,-0.798,30.18,309.76,-155.25,2,5
17592.796,-1.098,0.042,-0.828,38.15,300.03,-143.07,2,5
17592.812,-1.072,0.074,-0.825,42.63,287.12,-127.78,2,5
17592.828,-1.032,0.095,-0.791,44.56,272.32,-111.27,2,5
17592.828,-0.982,0.078,-0.771,46.82,254.46,-96.1,2,5
17592.843,-0.939,0.057,-0.781,46.48,233.95,-80.32,2,5
17592.859,-0.902,0.044,-0.798,45.69,213.45,-66.56,2,5
17592.859,-0.879,0.03,-0.786,47.52,194.56,-55.67,2,5
17592.875,-0.876,-0.002,-0.774,49.38,175.15,-46.3,2,5
17592.875,-0.851,0.007,-0.753,47.55,152.84,-37.6,2,5
17592.89,-0.809,0.018,-0.744,43.61,130.22,-28.69,2,5
17592.906,-0.778,0.013,-0.744,38.82,108.65,-20.66,2,5
17592.906,-0.752,-0.005,-0.729,33.05,88.99,-11.78,2,5
17592.921,-0.727,-0.042,-0.72,28.5,70.59,-4.61,2,5
17592.937,-0.701,-0.069,-0.74,26.49,52.89,-1.04,2,5
17592.937,-0.662,-0.108,-0.783,27.62,38.39,2.59,2,5
17592.953,-0.611,-0.133,-0.814,28.29,26.58,7.51,2,5
17592.968,-0.567,-0.185,-0.856,27.86,18.22,13.64,2,5
17592.968,-0.536,-0.226,-0.896,30.0,14.37,16.97,2,5
17592.984,-0.515,-0.235,-0.92,33.11,16.05,18.77,2,5
17592.984,-0.5,-0.235,-0.934,34.61,21.03,17.67,2,5
17593.0,-0.488,-0.231,-0.937,33.66,27.47,14.25,2,5
17593.015,-0.475,-0.231,-0.923,31.13,33.66,11.44,2,5
17593.015,-0.453,-0.238,-0.891,27.77,37.69,9.98,2,5
17593.031,-0.453,-0.259,-0.859,23.93,38.85,7.51,2,5
17593.046,-0.466,-0.275,-0.834,21.3,36.32,3.6,2,5
17593.062,-0.459,-0.27,-0.819,19.47,31.77,0.46,2,5
17593.062,-0.444,-0.282,-0.818,15.81,26.7,-1.28,2,5
17593.078,-0.447,-0.297,-0.835,11.75,21.94,-2.26,2,5
17593.078,-0.444,-0.302,-0.847,9.34,19.47,-3.17,2,5
17593.093,-0.438,-0.312,-0.851,8.03,18.95,-6.2,2,5
17593.109,-0.445,-0.305,-0.852,5.83,19.38,-11.81,2,5
17593.109,-0.431,-0.317,-0.85,2.14,18.77,-17.91,2,5
17593.125,-0.413,-0.339,-0.839,-0.89,18.34,-23.13,2,5
17593.125,-0.415,-0.34,-0.846,-2.23,17.7,-26.83,2,5
17593.14,-0.4,-0.324,-0.858,-4.43,16.66,-28.44,2,5
17593.156,-0.39,-0.315,-0.856,-7.05,16.08,-30.06,2,5
17593.156,-0.396,-0.315,-0.855,-9.13,16.36,-31.16,2,5
17593.171,-0.399,-0.324,-0.846,-9.8,17.06,-31.07,2,5
17593.187,-0.399,-0.325,-0.832,-8.64,17.49,-30.73,2,5
17593.187,-0.4,-0.327,-0.832,-5.83,16.63,-29.97,2,5
17593.203,-0.398,-0.317,-0.834,-4.52,15.26,-28.87,2,5
17593.218,-0.391,-0.314,-0.843,-5.13,13.4,-27.89,2,5
17593.218,-0.39,-0.309,-0.855,-7.57,11.84,-26.95,2,5
17593.234,-0.393,-0.309,-0.855,-10.32,11.41,-26.28,2,5
17593.25,-0.381,-0.322,-0.851,-10.93,11.75,-25.33,2,5
17593.25,-0.368,-0.339,-0.848,-8.82,12.09,-23.83,2,5
17593.265,-0.36,-0.337,-0.856,-5.1,12.05,-22.06,2,5
17593.281,-0.341,-0.339,-0.857,-1.89,15.69,-17.94,2,5
17593.296,-0.345,-0.357,-0.86,-0.82,14.19,-16.85,2,5
17593.296,-0.339,-0.362,-0.86,-0.95,14.25,-14.86,2,5
17593.312,-0.325,-0.363,-0.848,-2.11,13.52,-13.03,2,5
17593.328,-0.319,-0.381,-0.843,-1.25,12.91,-11.84,2,5
17593.328,-0.31,-0.392,-0.845,0.76,12.63,-10.93,2,5
17593.343,-0.31,-0.397,-0.856,4.0,11.63,-10.71,2,5
17593.359,-0.31,-0.396,-0.869,6.65,11.75,-9.95,2,5
17593.359,-0.3,-0.399,-0.867,7.42,12.67,-9.22,2,5
17593.375,-0.295,-0.408,-0.858,8.24,13.03,-9.49,2,5
17593.375,-0.289,-0.398,-0.858,8.85,11.9,-10.22,2,5
17593.39,-0.283,-0.384,-0.866,7.39,9.77,-10.83,2,5
17593.406,-0.285,-0.366,-0.877,4.06,7.11,-12.05,2,5
17593.406,-0.287,-0.367,-0.873,0.12,5.43,-13.21,2,5
17593.421,-0.298,-0.361,-0.862,-1.74,4.94,-14.47,2,5
17593.437,-0.303,-0.345,-0.855,-1.95,4.12,-15.02,2,5
17593.437,-0.301,-0.348,-0.844,-2.32,2.32,-14.83,2,5
17593.453,-0.299,-0.355,-0.833,-2.38,-0.64,-13.61,2,5
17593.468,-0.298,-0.37,-0.83,-1.16,-4.43,-11.08,2,5
17593.468,-0.302,-0.366,-0.836,1.34,-7.9,-7.32,2,5
17593.484,-0.3,-0.354,-0.847,4.52,-10.65,-3.2,2,5
17593.484,-0.299,-0.35,-0.866,5.68,-12.79,-0.92,2,5
17593.5,-0.3,-0.335,-0.894,3.85,-14.47,-0.85,2,5
17593.515,-0.302,-0.345,-0.917,-0.15,-15.38,-1.8,2,5
17593.515,-0.311,-0.358,-0.917,-3.72,-14.8,-2.08,2,5
17593.531,-0.32,-0.376,-0.902,-4.64,-14.34,-0.73,2,5
17593.546,-0.335,-0.386,-0.898,-4.43,-13.92,-0.55,2,5
17593.546,-0.326,-0.371,-0.92,-3.91,-10.99,-1.25,2,5
17593.562,-0.321,-0.407,-0.939,-3.91,-9.0,-2.66,2,5
17593.578,-0.305,-0.396,-0.937,-4.39,-8.0,-4.94,2,5
17593.578,-0.304,-0.411,-0.934,-6.78,-7.23,-7.78,2,5
17593.593,-0.31,-0.421,-0.936,-8.76,-7.14,-10.71,2,5
17593.593,-0.313,-0.412,-0.938,-10.04,-7.02,-13.18,2,5
17593.609,-0.306,-0.399,-0.944,-11.29,-6.26,-14.77,2,5
17593.625,-0.305,-0.396,-0.944,-11.99,-5.58,-15.96,2,5
17593.64,-0.31,-0.393,-0.941,-11.75,-4.76,-16.42,2,5
17593.64,-0.308,-0.403,-0.936,-10.41,-3.88,-15.81,2,5
17593.656,-0.316,-0.4,-0.936,-8.0,-2.53,-15.14,2,5
17593.656,-0.316,-0.396,-0.937,-6.65,-1.46,-14.71,2,5
17593.671,-0.31,-0.411,-0.924,-7.6,-0.76,-15.05,2,5
17593.687,-0.313,-0.433,-0.909,-7.63,-0.61,-15.81,2,5
17593.687,-0.318,-0.433,-0.895,-5.62,-1.01,-16.6,2,5
17593.703,-0.315,-0.418,-0.886,-4.36,-2.59,-16.54,2,5
17593.718,-0.306,-0.402,-0.882,-4.85,-5.25,-16.82,2,5
17593.718,-0.308,-0.383,-0.89,-6.96,-8.64,-17.91,2,5
17593.734,-0.305,-0.367,-0.879,-10.99,-11.17,-18.04,2,5
17593.75,-0.297,-0.381,-0.853,-13.25,-12.63,-17.12,2,5
17593.75,-0.297,-0.399,-0.848,-10.74,-13.15,-15.11,2,5
17593.765,-0.284,-0.38,-0.865,-5.34,-12.3,-11.99,2,5
17593.765,-0.27,-0.327,-0.875,-1.28,-8.79,-8.64,2,5
17593.781,-0.253,-0.315,-0.877,-1.34,-5.01,-6.04,2,5
17593.796,-0.237,-0.307,-0.866,-3.08,-2.35,-5.55,2,5
17593.796,-0.242,-0.306,-0.843,-4.3,-0.12,-4.97,2,5
17593.812,-0.249,-0.334,-0.814,-3.69,0.55,-2.87,2,5
17593.828,-0.264,-0.329,-0.811,-1.5,0.49,0.46,2,5
17593.828,-0.267,-0.305,-0.812,0.06,-0.27,3.78,2,5
17593.843,-0.261,-0.307,-0.82,0.85,-2.41,6.68,2,5
17593.859,-0.272,-0.292,-0.838,2.08,-4.55,9.7,2,5
17593.859,-0.269,-0.27,-0.863,2.41,-5.71,12.51,2,5
17593.875,-0.25,-0.261,-0.882,1.95,-5.86,14.37,2,5
17593.875,-0.235,-0.271,-0.899,1.4,-4.76,15.99,2,5
17593.89,-0.219,-0.298,-0.918,2.5,-2.41,18.77,2,5
17593.906,-0.203,-0.302,-0.946,5.37,1.5,22.95,2,5
17593.906,-0.173,-0.316,-0.948,8.64,7.2,27.62,2,5
17593.921,-0.174,-0.344,-0.945,12.97,13.76,30.79,2,5
17593.937,-0.208,-0.338,-0.939,17.18,20.42,31.53,2,5
17593.937,-0.231,-0.321,-0.908,17.88,26.0,29.54,2,5
17593.953,-0.239,-0.315,-0.858,15.32,28.05,25.27,2,5
17593.968,-0.252,-0.307,-0.828,11.44,25.97,19.59,2,5
17593.968,-0.263,-0.309,-0.801,6.84,20.54,13.43,2,5
17593.984,-0.268,-0.328,-0.792,2.56,13.25,8.51,2,5
17593.984,-0.279,-0.332,-0.813,0.24,5.19,5.01,2,5
17594.0,-0.285,-0.329,-0.845,-2.35,-1.59,3.17,2,5
17594.015,-0.278,-0.344,-0.88,-5.49,-6.26,2.87,2,5
17594.031,-0.259,-0.346,-0.92,-7.14,-7.97,3.48,2,5
17594.031,-0.244,-0.347,-0.943,-7.26,-6.2,3.14,2,5
17594.046,-0.244,-0.369,-0.951,-5.62,-2.5,1.1,2,5
17594.046,-0.262,-0.357,-0.949,-3.14,2.26,-1.53,2,5
17594.062,-0.278,-0.353,-0.922,-3.6,6.53,-3.91,2,5
17594.078,-0.285,-0.377,-0.884,-5.46,8.3,-5.89,2,5
17594.078,-0.296,-0.387,-0.862,-5.46,6.9,-6.74,2,5
17594.093,-0.307,-0.374,-0.859,-4.7,3.54,-5.98,2,5
17594.093,-0.306,-0.371,-0.88,-4.91,-0.85,-5.28,2,5
17594.109,-0.299,-0.371,-0.899,-5.8,-4.21,-5.89,2,5
17594.125,-0.288,-0.386,-0.904,-7.08,-5.43,-7.26,2,5
17594.125,-0.296,-0.407,-0.897,-6.74,-4.52,-8.67,2,5
17594.14,-0.311,-0.409,-0.887,-5.34,-2.62,-10.16,2,5
17594.156,-0.32,-0.411,-0.862,-5.49,-1.37,-13.58,2,5
17594.171,-0.337,-0.42,-0.832,-6.56,-1.56,-18.43,2,5
17594.171,-0.343,-0.412,-0.811,-7.42,-3.54,-22.74,2,5
17594.187,-0.336,-0.404,-0.803,-8.33,-7.48,-25.09,2,5
17594.187,-0.312,-0.406,-0.805,-9.16,-12.39,-24.41,2,5
17594.203,-0.301,-0.408,-0.828,-7.87,-16.45,-22.64,2,5
17594.218,-0.297,-0.402,-0.853,-6.78,-18.43,-19.93,2,5
17594.218,-0.292,-0.406,-0.861,-6.1,-17.73,-16.17,2,5
17594.234,-0.297,-0.415,-0.863,-2.14,-14.8,-12.73,2,5
17594.25,-0.304,-0.411,-0.86,2.47,-11.47,-9.06,2,5
17594.25,-0.299,-0.408,-0.848,6.47,-8.64,-5.25,2,5
17594.265,-0.292,-0.417,-0.835,10.07,-6.62,-2.62,2,5
17594.281,-0.322,-0.424,-0.821,12.33,-5.83,-1.98,2,5
17594.281,-0.356,-0.42,-0.81,12.7,-6.65,-2.84,2,5
17594.296,-0.351,-0.402,-0.819,11.66,-9.61,-5.46,2,5
17594.296,-0.347,-0.363,-0.845,8.45,-14.4,-9.74,2,5
17594.312,-0.342,-0.33,-0.861,2.17,-19.5,-14.13,2,5
17594.328,-0.345,-0.34,-0.859,-2.9,-23.01,-16.88,2,5
17594.328,-0.366,-0.335,-0.862,-3.42,-24.41,-18.04,2,5
17594.343,-0.377,-0.305,-0.871,-2.78,-25.67,-17.49,2,5
17594.359,-0.367,-0.288,-0.889,-2.69,-27.1,-14.25,2,5
17594.359,-0.347,-0.277,-0.908,-1.71,-28.14,-9.43,2,5
17594.375,-0.332,-0.258,-0.931,-0.15,-28.66,-5.22,2,5
17594.375,-0.34,-0.24,-0.933,-0.46,-28.47,-2.53,2,5
17594.39,-0.355,-0.256,-0.918,-2.35,-28.02,-0.34,2,5
17594.406,-0.373,-0.267,-0.9,-2.69,-27.5,2.66,2,5
17594.406,-0.375,-0.258,-0.887,-1.59,-27.34,5.55,2,5
17594.421,-0.37,-0.265,-0.882,-1.22,-27.83,7.93,2,5
17594.437,-0.383,-0.274,-0.887,-1.65,-28.23,9.52,2,5
17594.437,-0.386,-0.283,-0.88,-2.59,-28.08,10.74,2,5
17594.453,-0.382,-0.282,-0.879,-3.11,-29.18,10.83,2,5
17594.468,-0.373,-0.275,-0.882,-3.78,-30.27,9.89,2,5
17594.468,-0.38,-0.263,-0.884,-5.77,-31.1,9.25,2,5
17594.484,-0.391,-0.268,-0.87,-8.09,-31.68,9.03,2,5
17594.5,-0.401,-0.281,-0.848,-9.22,-32.72,8.06,2,5
17594.5,-0.413,-0.288,-0.835,-8.88,-34.94,6.93,2,5
17594.515,-0.436,-0.292,-0.827,-9.55,-40.71,7.63,2,5
17594.515,-0.45,-0.287,-0.824,-10.44,-42.6,8.51,2,5
17594.531,-0.468,-0.282,-0.811,-10.01,-44.19,11.23,2,5
17594.546,-0.492,-0.271,-0.786,-6.41,-45.75,17.64,2,5
17594.546,-0.569,-0.231,-0.715,0.43,-48.22,27.16,2,5
17594.562,-0.603,-0.237,-0.714,10.25,-52.58,37.87,2,5
17594.578,-0.635,-0.238,-0.79,20.66,-57.44,49.1,2,5
17594.593,-0.658,-0.193,-0.922,21.55,-59.42,59.63,2,5
17594.593,-0.621,-0.191,-0.982,14.22,-56.22,65.07,2,5
17594.609,-0.583,-0.263,-0.99,7.45,-47.61,62.81,2,5
17594.609,-0.582,-0.335,-0.968,3.02,-37.69,53.59,2,5
17594.625,-0.595,-0.378,-0.925,-0.46,-31.16,41.6,2,5
17594.625,-0.607,-0.365,-0.872,-5.8,-29.6,29.63,2,5
17594.64,-0.601,-0.344,-0.83,-13.73,-33.17,19.47,2,5
17594.656,-0.583,-0.319,-0.805,-22.22,-40.19,11.72,2,5
17594.656,-0.577,-0.303,-0.788,-27.22,-47.27,7.08,2,5
17594.671,-0.581,-0.285,-0.778,-27.44,-52.34,5.83,2,5
17594.687,-0.587,-0.255,-0.79,-25.67,-56.37,6.38,2,5
17594.687,-0.618,-0.224,-0.813,-25.79,-58.96,8.06,2,5
17594.703,-0.607,-0.212,-0.811,-28.78,-61.68,11.2,2,5
17594.718,-0.617,-0.221,-0.8,-30.92,-65.22,12.05,2,5
17594.718,-0.624,-0.244,-0.821,-31.04,-68.88,13.64,2,5
17594.734,-0.617,-0.237,-0.854,-30.7,-71.63,15.02,2,5
17594.75,-0.601,-0.241,-0.862,-31.22,-71.6,16.02,2,5
17594.75,-0.604,-0.251,-0.875,-30.88,-69.25,15.2,2,5
17594.765,-0.607,-0.25,-0.882,-28.32,-64.88,13.7,2,5
17594.765,-0.623,-0.226,-0.873,-25.61,-59.18,12.51,2,5
17594.781,-0.648,-0.215,-0.845,-25.88,-54.96,11.26,2,5
17594.796,-0.668,-0.214,-0.816,-26.83,-53.8,10.8,2,5
17594.796,-0.694,-0.202,-0.799,-26.25,-55.36,11.87,2,5
17594.812,-0.7,-0.186,-0.792,-25.21,-58.75,13.37,2,5
17594.828,-0.7,-0.152,-0.805,-23.93,-62.69,14.62,2,5
17594.843,-0.704,-0.101,-0.845,-23.5,-64.97,16.11,2,5
17594.843,-0.692,-0.093,-0.861,-23.53,-64.46,19.44,2,5
17594.859,-0.679,-0.112,-0.877,-20.78,-61.04,25.33,2,5
17594.859,-0.69,-0.114,-0.879,-16.66,-55.33,32.38,2,5
17594.875,-0.705,-0.143,-0.861,-11.99,-48.8,39.31,2,5
17594.875,-0.717,-0.146,-0.847,-9.49,-42.97,44.07,2,5
17594.89,-0.72,-0.169,-0.818,-9.22,-38.3,46.91,2,5
17594.906,-0.724,-0.194,-0.775,-9.8,-35.8,47.73,2,5
17594.906,-0.731,-0.199,-0.738,-11.02,-36.65,45.75,2,5
17594.921,-0.741,-0.196,-0.714,-14.53,-40.07,41.51,2,5
17594.937,-0.734,-0.197,-0.691,-20.02,-45.14,37.54,2,5
17594.937,-0.734,-0.181,-0.678,-25.33,-50.57,33.91,2,5
17594.953,-0.744,-0.181,-0.675,-29.91,-55.79,30.88,2,5
17594.968,-0.749,-0.191,-0.686,-33.23,-60.18,29.15,2,5
17594.968,-0.753,-0.201,-0.697,-33.97,-62.81,27.95,2,5
17594.984,-0.74,-0.215,-0.707,-33.69,-64.27,26.67,2,5
17595.0,-0.73,-0.217,-0.726,-32.93,-64.33,25.24,2,5
17595.0,-0.73,-0.222,-0.743,-31.37,-62.26,23.32,2,5
17595.015,-0.726,-0.215,-0.741,-30.21,-58.32,20.94,2,5
17595.015,-0.737,-0.204,-0.723,-29.91,-53.93,17.61,2,5
17595.031,-0.759,-0.194,-0.702,-29.94,-50.36,13.58,2,5
17595.046,-0.774,-0.185,-0.673,-30.34,-49.32,10.04,2,5
17595.046,-0.779,-0.178,-0.653,-31.07,-50.29,7.57,2,5
17595.062,-0.776,-0.176,-0.636,-32.14,-52.4,5.52,2,5
17595.078,-0.78,-0.169,-0.628,-32.41,-54.23,3.14,2,5
17595.093,-0.791,-0.151,-0.619,-32.56,-54.78,0.61,2,5
17595.093,-0.807,-0.142,-0.605,-33.33,-53.99,-1.37,2,5
17595.109,-0.819,-0.146,-0.588,-33.2,-52.58,-2.56,2,5
17595.109,-0.828,-0.147,-0.581,-30.73,-51.61,-3.45,2,5
17595.125,-0.846,-0.13,-0.58,-27.8,-50.9,-3.88,2,5
17595.14,-0.864,-0.118,-0.58,-27.22,-50.9,-4.94,2,5
17595.14,-0.876,-0.122,-0.582,-28.32,-52.13,-7.08,2,5
17595.156,-0.887,-0.11,-0.578,-29.42,-54.14,-9.61,2,5
17595.156,-0.89,-0.095,-0.575,-30.21,-55.85,-11.69,2,5
17595.171,-0.886,-0.09,-0.569,-30.82,-57.31,-11.93,2,5
17595.187,-0.883,-0.1,-0.562,-29.24,-58.5,-9.16,2,5
17595.187,-0.87,-0.101,-0.559,-25.64,-59.42,-4.64,2,5
17595.203,-0.875,-0.101,-0.563,-20.87,-59.51,-1.07,2,5
17595.218,-0.881,-0.093,-0.564,-17.61,-58.5,1.4,2,5
17595.218,-0.892,-0.081,-0.56,-16.91,-56.92,2.04,2,5
17595.234,-0.904,-0.071,-0.537,-18.46,-55.7,0.85,2,5
17595.25,-0.92,-0.073,-0.514,-20.87,-55.79,-1.59,2,5
17595.25,-0.929,-0.07,-0.486,-23.01,-57.34,-3.27,2,5
17595.265,-0.928,-0.067,-0.468,-23.26,-60.43,-3.36,2,5
17595.281,-0.928,-0.054,-0.461,-22.68,-64.06,-2.32,2,5
17595.281,-0.929,-0.048,-0.466,-22.03,-67.32,0.0,2,5
17595.296,-0.932,-0.046,-0.466,-21.36,-69.55,2.9,2,5
17595.296,-0.938,-0.039,-0.47,-20.26,-70.25,5.04,2,5
17595.312,-0.941,-0.041,-0.478,-18.43,-69.46,6.29,2,5
17595.328,-0.934,-0.052,-0.479,-14.98,-67.17,7.9,2,5
17595.328,-0.963,-0.004,-0.468,-13.28,-63.54,7.17,2,5
17595.343,-0.961,-0.039,-0.454,-11.99,-61.95,10.62,2,5
17595.359,-0.959,-0.019,-0.435,-8.58,-58.81,13.21,2,5
17595.359,-0.97,-0.004,-0.405,-5.8,-55.48,15.05,2,5
17595.375,-0.984,-0.014,-0.39,-3.63,-54.29,18.31,2,5
17595.375,-0.976,-0.021,-0.389,-2.2,-54.2,21.45,2,5
17595.39,-0.963,-0.046,-0.392,-1.19,-53.83,22.86,2,5
17595.406,-0.958,-0.057,-0.394,0.18,-52.95,22.58,2,5
17595.421,-0.944,-0.059,-0.404,0.15,-52.34,21.27,2,5
17595.421,-0.925,-0.063,-0.411,-0.79,-51.42,18.31,2,5
17595.437,-0.923,-0.066,-0.414,-1.86,-48.77,14.56,2,5
17595.437,-0.923,-0.065,-0.399,-4.15,-44.92,11.54,2,5
17595.453,-0.924,-0.063,-0.369,-6.87,-42.42,8.79,2,5
17595.468,-0.935,-0.053,-0.348,-8.55,-42.3,5.89,2,5
17595.468,-0.935,-0.039,-0.313,-10.74,-41.87,4.39,2,5
17595.484,-0.951,-0.021,-0.286,-12.51,-45.59,2.41,2,5
17595.484,-0.949,-0.024,-0.261,-12.73,-49.53,3.48,2,5
17595.5,-0.954,-0.012,-0.25,-11.75,-58.2,7.66,2,5
17595.515,-0.95,0.0,-0.257,-12.39,-62.14,9.49,2,5
17595.515,-0.946,0.003,-0.266,-12.91,-65.16,11.08,2,5
17595.531,-0.937,-0.017,-0.313,-11.9,-66.13,11.9,2,5
17595.546,-0.925,-0.012,-0.334,-10.77,-63.39,10.93,2,5
17595.562,-0.922,-0.019,-0.337,-10.16,-57.99,9.43,2,5
17595.562,-0.918,-0.013,-0.313,-10.04,-50.78,8.24,2,5
17595.578,-0.922,-0.011,-0.275,-9.58,-45.66,8.06,2,5
17595.578,-0.938,-0.016,-0.238,-7.84,-42.73,9.09,2,5
17595.593,-0.948,-0.01,-0.205,-5.68,-42.3,10.77,2,5
17595.609,-0.956,0.004,-0.188,-3.69,-43.92,11.66,2,5
17595.609,-0.972,0.023,-0.168,-3.39,-46.3,11.35,2,5
17595.625,-0.991,0.032,-0.151,-5.07,-48.95,10.86,2,5
17595.625,-1.002,0.037,-0.132,-7.14,-51.76,10.62,2,5
17595.64,-1.022,0.041,-0.105,-9.09,-54.45,11.14,2,5
17595.656,-1.023,0.064,-0.088,-10.56,-57.04,13.37,2,5
17595.656,-1.019,0.07,-0.09,-9.95,-56.52,17.15,2,5
17595.671,-1.034,0.038,-0.094,-6.53,-54.57,21.39,2,5
17595.687,-1.051,0.04,-0.092,-1.46,-51.88,27.41,2,5
17595.687,-1.041,0.046,-0.088,4.06,-49.5,33.69,2,5
17595.703,-1.028,0.049,-0.093,8.7,-48.04,38.03,2,5
17595.718,-1.023,0.042,-0.091,10.86,-47.15,40.56,2,5
17595.718,-1.021,0.023,-0.083,11.41,-46.75,41.57,2,5
17595.734,-1.02,0.001,-0.083,12.12,-46.82,40.13,2,5
17595.75,-1.024,-0.002,-0.085,11.69,-46.69,36.5,2,5
17595.75,-1.011,0.017,-0.091,8.06,-47.55,30.95,2,5
17595.765,-0.992,0.034,-0.086,2.5,-47.91,23.87,2,5
17595.765,-0.989,0.046,-0.077,-2.47,-47.85,17.67,2,5
17595.781,-0.978,0.054,-0.058,-6.32,-47.61,13.64,2,5
17595.796,-0.976,0.047,-0.04,-6.87,-46.05,12.24,2,5
17595.796,-0.987,0.045,-0.031,-3.66,-43.73,11.93,2,5
17595.812,-0.985,0.062,-0.024,0.34,-41.57,13.0,2,5
17595.828,-0.976,0.079,-0.023,2.93,-40.07,13.58,2,5
17595.843,-0.975,0.09,-0.024,2.75,-39.12,13.15,2,5
17595.843,-0.959,0.094,-0.03,1.19,-39.98,12.21,2,5
17595.859,-0.935,0.098,-0.031,-0.43,-41.38,10.56,2,5
17595.859,-0.935,0.09,-0.033,-1.62,-41.17,8.58,2,5
17595.875,-0.94,0.07,-0.023,-1.5,-39.64,6.47,2,5
17595.89,-0.931,0.065,-0.015,-0.12,-37.32,4.49,2,5
17595.89,-0.927,0.075,-0.016,0.34,-34.94,2.29,2,5
17595.906,-0.925,0.094,-0.014,-1.13,-33.23,-0.06,2,5
17595.906,-0.923,0.114,-0.003,-4.79,-32.5,-2.5,2,5
17595.921,-0.923,0.116,0.019,-8.51,-32.56,-4.36,2,5
17595.937,-0.937,0.108,0.054,-9.83,-32.99,-5.92,2,5
17595.953,-0.946,0.1,0.083,-8.79,-34.24,-7.11,2,5
17595.953,-0.95,0.097,0.102,-7.66,-36.56,-7.84,2,5
17595.953,-0.972,0.096,0.109,-7.42,-39.74,-8.88,2,5
17595.968,-0.973,0.099,0.1,-9.06,-44.22,-9.95,2,5
17595.984,-0.96,0.09,0.092,-11.6,-47.98,-10.68,2,5
17596.0,-0.953,0.079,0.09,-12.91,-50.02,-11.63,2,5
17596.0,-0.952,0.077,0.083,-11.51,-50.02,-12.85,2,5
17596.015,-0.954,0.089,0.074,-9.4,-47.55,-13.15,2,5
17596.015,-0.956,0.104,0.078,-8.15,-43.37,-12.67,2,5
17596.031,-0.951,0.112,0.086,-7.35,-40.28,-11.99,2,5
17596.046,-0.945,0.125,0.094,-7.63,-38.36,-10.9,2,5
17596.046,-0.942,0.126,0.111,-8.12,-36.65,-9.0,2,5
17596.062,-0.949,0.104,0.136,-7.54,-34.85,-6.65,2,5
17596.078,-0.948,0.091,0.157,-5.83,-34.03,-4.52,2,5
17596.078,-0.946,0.081,0.164,-3.54,-34.39,-3.17,2,5
17596.093,-0.936,0.081,0.163,-2.26,-35.71,-3.3,2,5
17596.109,-0.931,0.085,0.155,-2.9,-36.77,-4.7,2,5
17596.109,-0.919,0.085,0.152,-5.74,-37.51,-7.05,2,5
17596.125,-0.904,0.079,0.161,-8.39,-37.9,-9.64,2,5
17596.125,-0.914,0.071,0.172,-8.79,-37.75,-12.02,2,5
17596.14,-0.933,0.074,0.185,-7.45,-37.2,-12.97,2,5
17596.156,-0.942,0.087,0.192,-6.13,-37.26,-12.79,2,5
17596.156,-0.946,0.101,0.204,-6.32,-37.66,-12.18,2,5
17596.171,-0.936,0.113,0.206,-6.84,-38.51,-11.23,2,5
17596.187,-0.919,0.121,0.204,-6.5,-39.0,-9.28,2,5
17596.187,-0.921,0.126,0.197,-6.01,-38.33,-6.41,2,5
17596.203,-0.912,0.124,0.2,-6.29,-37.35,-2.44,2,5
17596.218,-0.903,0.107,0.216,-5.65,-35.68,1.46,2,5
17596.218,-0.92,0.089,0.223,-2.01,-33.23,4.27,2,5
17596.234,-0.918,0.093,0.223,1.04,-31.34,6.32,2,5
17596.25,-0.898,0.095,0.224,1.83,-30.43,7.32,2,5
17596.25,-0.891,0.093,0.231,0.76,-30.95,6.5,2,5
17596.265,-0.893,0.091,0.234,-1.65,-33.08,4.46,2,5
17596.265,-0.878,0.095,0.226,-5.28,-35.77,2.56,2,5
17596.281,-0.873,0.078,0.221,-7.87,-36.38,1.68,2,5
17596.296,-0.871,0.061,0.216,-8.06,-35.71,1.37,2,5
17596.296,-0.888,0.059,0.216,-6.38,-31.68,0.79,2,5
17596.312,-0.904,0.058,0.228,-4.33,-25.33,-0.12,2,5
17596.328,-0.922,0.074,0.253,-3.33,-19.17,-1.68,2,5
17596.328,-0.928,0.088,0.286,-3.78,-15.93,-3.36,2,5
17596.343,-0.929,0.099,0.321,-4.24,-14.62,-3.91,2,5
17596.359,-0.919,0.106,0.348,-3.75,-15.47,-3.57,2,5
17596.359,-0.92,0.107,0.368,-3.45,-18.04,-2.78,2,5
17596.375,-0.927,0.096,0.375,-3.51,-22.03,-1.1,2,5
17596.375,-0.903,0.092,0.372,-3.36,-26.89,0.89,2,5
17596.39,-0.888,0.09,0.365,-3.78,-30.82,2.04,2,5
17596.406,-0.889,0.067,0.355,-4.82,-33.88,3.14,2,5
17596.406,-0.885,0.053,0.34,-4.36,-35.46,4.7,2,5
17596.421,-0.886,0.051,0.326,-2.99,-33.94,5.55,2,5
17596.437,-0.886,0.044,0.321,-2.53,-30.88,4.91,2,5
17596.437,-0.877,0.054,0.324,-2.99,-27.38,2.9,2,5
17596.453,-0.884,0.056,0.346,-3.88,-23.62,0.43,2,5
17596.468,-0.897,0.06,0.368,-4.52,-21.49,-1.62,2,5
17596.468,-0.912,0.068,0.397,-5.1,-21.18,-2.5,2,5
17596.484,-0.906,0.073,0.418,-4.76,-26.67,-0.43,2,5
17596.5,-0.897,0.086,0.426,-4.76,-30.55,1.31,2,5
17596.5,-0.887,0.084,0.423,-5.19,-32.78,2.56,2,5
17596.515,-0.917,0.075,0.428,-5.46,-34.82,2.99,2,5
17596.515,-0.915,0.072,0.422,-6.38,-37.78,2.32,2,5
17596.531,-0.887,0.079,0.408,-8.15,-40.56,0.46,2,5
17596.546,-0.871,0.083,0.4,-10.28,-42.12,-1.13,2,5
17596.546,-0.876,0.07,0.4,-11.69,-41.69,-1.98,2,5
17596.562,-0.877,0.067,0.406,-11.11,-39.89,-1.95,2,5
17596.578,-0.878,0.083,0.405,-9.06,-37.75,-2.81,2,5
17596.578,-0.865,0.092,0.406,-9.46,-36.13,-2.41,2,5
17596.593,-0.835,0.099,0.414,-11.02,-35.62,-0.55,2,5
17596.609,-0.819,0.098,0.425,-11.05,-35.65,1.34,2,5
17596.609,-0.836,0.075,0.439,-10.5,-34.73,3.75,2,5
17596.625,-0.855,0.046,0.45,-9.03,-33.3,6.32,2,5
17596.625,-0.864,0.041,0.46,-6.07,-31.43,8.27,2,5
17596.64,-0.846,0.049,0.456,-3.91,-30.52,8.0,2,5
17596.656,-0.839,0.057,0.456,-4.49,-30.27,5.62,2,5
17596.656,-0.837,0.066,0.462,-7.32,-30.95,3.14,2,5
17596.671,-0.827,0.063,0.467,-9.98,-31.89,1.43,2,5
17596.687,-0.825,0.047,0.466,-10.16,-31.62,0.79,2,5
17596.687,-0.81,0.047,0.459,-7.97,-29.97,1.53,2,5
17596.703,-0.794,0.061,0.451,-5.04,-27.25,2.47,2,5
17596.718,-0.806,0.058,0.455,-2.9,-23.47,3.48,2,5
17596.718,-0.799,0.061,0.467,-1.59,-20.78,4.18,2,5
17596.734,-0.797,0.072,0.477,-0.4,-19.35,3.88,2,5
17596.75,-0.795,0.076,0.482,-0.49,-18.74,3.51,2,5
17596.75,-0.797,0.069,0.493,-1.28,-19.04,4.15,2,5
17596.765,-0.784,0.056,0.503,-1.65,-20.23,4.94,2,5
17596.765,-0.756,0.063,0.497,-1.59,-22.0,4.94,2,5
17596.781,-0.722,0.075,0.485,-2.32,-23.68,3.69,2,5
17596.796,-0.713,0.069,0.467,-4.58,-24.78,1.22,2,5
17596.796,-0.733,0.051,0.459,-7.51,-24.32,-0.95,2,5
17596.812,-0.728,0.034,0.469,-8.82,-22.77,-1.98,2,5
17596.828,-0.694,0.031,0.468,-7.48,-21.06,-3.2,2,5
17596.828,-0.684,0.043,0.456,-5.07,-18.46,-4.36,2,5
17596.843,-0.71,0.059,0.464,-4.61,-14.65,-4.94,2,5
17596.859,-0.726,0.048,0.489,-5.16,-11.32,-4.85,2,5
17596.859,-0.752,0.042,0.514,-4.18,-8.39,-4.58,2,5
17596.875,-0.765,0.055,0.532,-2.41,-7.2,-4.18,2,5
17596.89,-0.737,0.075,0.537,-1.89,-8.64,-3.81,2,5
17596.89,-0.697,0.084,0.525,-3.48,-11.29,-3.2,2,5
17596.906,-0.683,0.076,0.512,-6.1,-14.04,-2.04,2,5
17596.906,-0.69,0.041,0.508,-7.48,-15.08,0.15,2,5
17596.921,-0.705,0.014,0.5,-6.35,-14.25,2.11,2,5
17596.937,-0.732,0.005,0.497,-3.3,-11.57,3.23,2,5
17596.937,-0.722,0.013,0.489,-0.52,-7.97,3.02,2,5
17596.953,-0.718,0.035,0.481,0.55,-4.03,0.31,2,5
17596.968,-0.735,0.036,0.495,-1.5,-0.67,-2.93,2,5
17596.968,-0.745,0.044,0.527,-4.03,1.89,-5.68,2,5
17596.984,-0.745,0.046,0.551,-3.97,2.99,-7.14,2,5
17597.0,-0.74,0.049,0.555,-2.84,2.32,-6.47,2,5
17597.0,-0.74,0.056,0.556,-2.2,0.52,-4.18,2,5
17597.015,-0.76,0.05,0.558,-1.77,-0.89,-1.56,2,5
17597.031,-0.766,0.039,0.553,-1.16,-1.62,0.61,2,5
17597.031,-0.778,0.03,0.549,0.0,-1.1,1.4,2,5
17597.046,-0.789,0.029,0.548,1.19,0.31,1.22,2,5
17597.046,-0.799,0.042,0.55,1.68,1.8,0.46,2,5
17597.062,-0.798,0.049,0.554,1.1,2.62,-0.49,2,5
17597.078,-0.798,0.054,0.555,-0.24,2.56,-1.62,2,5
17597.078,-0.811,0.051,0.564,-1.89,2.01,-2.62,2,5
17597.093,-0.815,0.041,0.575,-2.93,1.01,-3.08,2,5
17597.109,-0.814,0.045,0.573,-2.59,-0.15,-2.93,2,5
17597.109,-0.813,0.049,0.567,-1.95,-0.67,-2.01,2,5
17597.125,-0.809,0.053,0.561,-1.92,-1.01,-0.82,2,5
17597.125,-0.81,0.053,0.56,-1.98,-0.79,0.52,2,5
17597.14,-0.806,0.058,0.56,-1.25,-0.27,1.77,2,5
17597.156,-0.814,0.051,0.558,0.27,0.98,2.93,2,5
17597.156,-0.819,0.041,0.562,1.4,2.08,3.88,2,5
17597.171,-0.815,0.042,0.563,2.14,1.92,3.17,2,5
17597.187,-0.828,0.046,0.564,1.28,1.22,1.25,2,5
17597.187,-0.841,0.048,0.572,-0.76,0.46,-0.18,2,5
17597.203,-0.848,0.044,0.579,-2.38,0.0,-1.07,2,5
17597.218,-0.855,0.052,0.581,-3.14,-0.49,-2.08,2,5
17597.218,-0.85,0.065,0.581,-2.93,-1.68,-2.29,2,5
17597.234,-0.834,0.079,0.572,-2.29,-3.17,-1.59,2,5
17597.25,-0.816,0.082,0.556,-2.5,-4.61,0.09,2,5
17597.25,-0.809,0.073,0.546,-3.14,-5.49,1.83,2,5
17597.265,-0.811,0.063,0.542,-2.41,-5.37,3.54,2,5
17597.265,-0.814,0.058,0.536,-0.95,-4.67,4.82,2,5
17597.281,-0.809,0.051,0.532,0.03,-3.14,5.4,2,5
17597.296,-0.8,0.046,0.536,0.52,-0.95,5.16,2,5
17597.296,-0.805,0.043,0.545,0.76,1.07,4.0,2,5
17597.312,-0.806,0.04,0.559,0.58,2.23,2.9,2,5
17597.328,-0.802,0.04,0.566,0.18,2.56,1.71,2,5
17597.328,-0.8,0.04,0.569,-0.09,1.83,0.67,2,5
17597.343,-0.805,0.041,0.571,-0.21,0.4,0.4,2,5
17597.343,-0.81,0.044,0.564,-0.46,-1.1,-0.06,2,5
17597.359,-0.805,0.043,0.561,-1.04,-2.04,-0.58,2,5
17597.375,-0.794,0.038,0.562,-1.5,-2.29,-1.25,2,5
17597.375,-0.8,0.038,0.557,-1.1,-2.59,-2.17,2,5
17597.39,-0.807,0.045,0.545,-1.07,-2.93,-2.35,2,5
17597.406,-0.802,0.057,0.538,-1.83,-2.47,-1.89,2,5
17597.406,-0.795,0.055,0.533,-1.83,-1.16,-1.77,2,5
17597.421,-0.796,0.046,0.538,-0.85,0.73,-1.1,2,5
17597.437,-0.808,0.05,0.545,0.76,2.84,-0.46,2,5
17597.437,-0.821,0.048,0.553,2.2,4.39,0.15,2,5
17597.453,-0.819,0.049,0.564,2.87,4.61,1.25,2,5
17597.468,-0.825,0.056,0.569,2.84,2.08,1.98,2,5
17597.468,-0.832,0.058,0.566,0.73,0.61,1.43,2,5
17597.484,-0.827,0.054,0.556,-0.34,-0.03,0.21,2,5
17597.484,-0.826,0.041,0.554,-0.58,-0.37,-0.92,2,5
17597.5,-0.812,0.043,0.553,0.21,-0.37,-1.62,2,5
17597.515,-0.818,0.044,0.555,0.79,-0.18,-2.29,2,5
17597.515,-0.829,0.047,0.561,0.61,-0.43,-3.2,2,5
17597.531,-0.84,0.048,0.561,0.18,-1.43,-4.18,2,5
17597.546,-0.837,0.058,0.561,-0.7,-2.59,-4.73,2,5
17597.562,-0.841,0.068,0.557,-1.25,-4.0,-5.01,2,5
17597.562,-0.842,0.077,0.551,-1.5,-4.67,-4.46,2,5
17597.578,-0.834,0.08,0.546,-0.95,-4.49,-3.11,2,5
17597.578,-0.83,0.077,0.541,0.58,-3.3,-0.79,2,5
17597.593,-0.821,0.079,0.534,2.5,-1.5,2.35,2,5
17597.609,-0.819,0.073,0.539,4.33,0.7,5.62,2,5
17597.609,-0.817,0.065,0.54,5.8,2.47,8.21,2,5
17597.625,-0.816,0.063,0.544,6.56,3.72,9.34,2,5
17597.625,-0.812,0.064,0.551,6.2,4.18,9.25,2,5
17597.64,-0.812,0.061,0.56,4.94,3.91,7.93,2,5
17597.656,-0.822,0.056,0.567,3.05,2.99,5.68,2,5
17597.656,-0.828,0.046,0.579,0.67,1.34,3.02,2,5
17597.671,-0.828,0.039,0.585,-1.07,-0.82,0.61,2,5
17597.687,-0.832,0.037,0.586,-2.01,-2.9,-1.4,2,5
17597.687,-0.822,0.04,0.581,-2.5,-5.1,-2.96,2,5
17597.703,-0.806,0.051,0.563,-2.78,-7.32,-4.18,2,5
17597.718,-0.793,0.067,0.543,-3.88,-8.67,-5.13,2,5
17597.718,-0.791,0.076,0.532,-5.37,-8.79,-5.43,2,5
17597.734,-0.802,0.064,0.535,-5.71,-7.17,-4.18,2,5
17597.734,-0.808,0.049,0.541,-3.78,-4.58,-1.59,2,5
17597.75,-0.803,0.05,0.541,-0.21,-1.95,1.22,2,5
17597.765,-0.804,0.054,0.543,3.36,0.15,3.45,2,5
17597.781,-0.806,0.063,0.544,4.58,1.31,4.55,2,5
17597.781,-0.81,0.057,0.55,3.11,1.77,4.21,2,5
17597.796,-0.818,0.051,0.56,1.46,1.83,2.56,2,5
17597.796,-0.821,0.05,0.564,0.58,1.59,0.58,2,5
17597.812,-0.812,0.052,0.572,-0.46,0.64,-1.01,2,5
17597.828,-0.804,0.052,0.576,-0.92,-0.7,-2.08,2,5
17597.828,-0.809,0.055,0.575,-0.95,-2.2,-2.84,2,5
17597.843,-0.822,0.046,0.572,-1.13,-3.08,-2.66,2,5
17597.859,-0.82,0.043,0.571,-0.55,-3.08,-1.95,2,5
17597.859,-0.814,0.039,0.564,1.19,-2.69,-1.98,2,5
17597.875,-0.817,0.051,0.557,2.04,-2.26,-2.17,2,5
17597.875,-0.811,0.068,0.555,1.65,-2.08,-2.11,2,5
17597.89,-0.802,0.071,0.553,0.43,-2.23,-1.95,2,5
17597.906,-0.805,0.068,0.552,-0.95,-2.59,-2.2,2,5
17597.906,-0.811,0.065,0.554,-1.59,-2.93,-2.35,2,5
17597.921,-0.83,0.056,0.553,-1.04,-2.72,-2.14,2,5
17597.937,-0.827,0.054,0.555,0.0,-2.41,-1.59,2,5
17597.937,-0.804,0.052,0.556,0.76,-2.2,-0.92,2,5
17597.953,-0.79,0.054,0.554,1.46,-2.14,-0.18,2,5
17597.968,-0.783,0.065,0.544,1.62,-2.44,0.55,2,5
17597.968,-0.791,0.067,0.541,0.95,-2.2,0.76,2,5
17597.984,-0.81,0.055,0.544,0.79,-1.16,1.4,2,5
17598.0,-0.809,0.044,0.554,2.11,0.0,2.84,2,5
17598.0,-0.808,0.044,0.556,4.27,1.34,3.81,2,5
17598.015,-0.809,0.052,0.548,5.65,1.77,4.21,2,5
17598.015,-0.803,0.064,0.545,4.7,1.28,3.57,2,5
17598.031,-0.803,0.054,0.551,2.11,0.06,2.2,2,5
17598.046,-0.802,0.043,0.555,0.4,-1.31,0.58,2,5
17598.046,-0.803,0.043,0.549,0.06,-2.66,-1.22,2,5
17598.062,-0.799,0.042,0.544,-0.43,-3.33,-2.17,2,5
17598.078,-0.794,0.037,0.547,-0.73,-3.2,-2.59,2,5
17598.078,-0.79,0.034,0.549,0.0,-2.53,-3.17,2,5
17598.093,-0.789,0.044,0.545,1.1,-1.65,-3.72,2,5
17598.109,-0.791,0.057,0.542,1.4,-0.67,-4.21,2,5
17598.109,-0.796,0.056,0.547,0.37,0.03,-5.01,2,5
17598.125,-0.806,0.053,0.558,-0.55,0.21,-5.46,2,5
17598.125,-0.816,0.056,0.566,-0.34,0.31,-5.04,2,5
17598.14,-0.814,0.065,0.568,0.37,0.03,-4.18,2,5
17598.156,-0.824,0.069,0.566,0.52,-0.61,-3.36,2,5
17598.156,-0.829,0.071,0.568,-0.24,-1.56,-2.38,2,5
17598.171,-0.835,0.078,0.559,-0.61,-2.62,-1.53,2,5
17598.187,-0.835,0.086,0.553,-1.95,-3.48,-0.61,2,5
17598.187,-0.838,0.082,0.558,-3.14,-3.81,0.21,2,5
17598.203,-0.838,0.075,0.555,-3.02,-3.72,1.28,2,5
17598.218,-0.831,0.079,0.552,-2.17,-3.2,2.44,2,5
17598.218,-0.821,0.08,0.551,-1.46,-2.78,3.66,2,5
17598.234,-0.809,0.075,0.551,-0.92,-2.44,5.16,2,5
17598.234,-0.802,0.068,0.549,-0.46,-2.11,6.47,2,5
17598.25,-0.8,0.054,0.552,-0.03,-1.53,7.29,2,5
17598.265,-0.804,0.043,0.551,0.67,-1.31,6.93,2,5
17598.265,-0.808,0.042,0.55,1.16,-0.82,6.13,2,5
17598.281,-0.805,0.037,0.558,0.4,0.12,5.04,2,5
17598.296,-0.809,0.026,0.565,0.55,0.92,3.27,2,5
17598.312,-0.804,0.034,0.569,1.28,0.98,0.95,2,5
17598.312,-0.802,0.041,0.567,0.92,0.43,-1.31,2,5
17598.328,-0.804,0.045,0.567,-0.55,-0.49,-3.2,2,5
17598.328,-0.808,0.045,0.565,-2.08,-1.43,-4.52,2,5
17598.343,-0.812,0.045,0.567,-2.87,-2.11,-5.22,2,5
17598.359,-0.815,0.048,0.565,-2.23,-2.32,-5.04,2,5
17598.359,-0.819,0.058,0.559,-0.7,-1.92,-4.06,2,5
17598.375,-0.815,0.065,0.557,0.27,-1.16,-2.78,2,5
17598.39,-0.812,0.061,0.558,1.07,-0.52,-1.62,2,5
17598.39,-0.813,0.071,0.553,2.14,-0.15,-0.67,2,5
