timestamp,ax,ay,az,gx,gy,gz,orient_label,motion_label
17569.343,-0.861,-0.006,0.415,-1.22,-1.46,-1.68,2,5
17569.343,-0.864,-0.01,0.426,-1.62,-0.31,-3.63,2,5
17569.359,-0.866,-0.008,0.429,-1.43,0.37,-4.52,2,5
17569.375,-0.868,-0.01,0.434,-0.82,0.76,-4.73,2,5
17569.375,-0.879,-0.008,0.439,-0.37,0.85,-4.36,2,5
17569.39,-0.879,-0.0,0.444,-0.18,0.49,-4.24,2,5
17569.406,-0.878,0.008,0.442,-0.06,-0.06,-3.78,2,5
17569.406,-0.882,0.017,0.435,-0.21,-0.34,-2.59,2,5
17569.421,-0.88,0.015,0.437,-0.7,-0.34,-1.28,2,5
17569.437,-0.888,0.001,0.441,-0.98,-0.15,-0.34,2,5
17569.437,-0.901,-0.002,0.444,-0.18,0.0,0.82,2,5
17569.453,-0.902,-0.001,0.437,0.7,0.21,2.11,2,5
17569.468,-0.895,-0.004,0.437,0.64,0.58,3.3,2,5
17569.468,-0.883,-0.005,0.44,0.34,0.49,4.15,2,5
17569.484,-0.876,-0.01,0.437,0.64,0.24,4.21,2,5
17569.484,-0.878,-0.014,0.432,0.76,0.43,4.06,2,5
17569.5,-0.878,-0.021,0.435,0.76,0.89,3.45,2,5
17569.515,-0.878,-0.02,0.441,0.58,0.82,0.31,2,5
17569.531,-0.877,-0.018,0.442,-0.64,-0.21,-1.56,2,5
17569.546,-0.88,-0.026,0.441,-2.08,-0.76,-3.27,2,5
17569.546,-0.886,-0.028,0.445,-2.17,-1.04,-4.67,2,5
17569.562,-0.889,-0.017,0.443,-1.83,-1.19,-5.68,2,5
17569.578,-0.892,-0.007,0.442,-1.77,-0.82,-5.68,2,5
17569.578,-0.892,-0.007,0.446,-1.92,-0.7,-4.88,2,5
17569.593,-0.891,-0.012,0.449,-1.43,-0.7,-3.94,2,5
17569.609,-0.893,-0.007,0.446,-0.27,-1.07,-2.62,2,5
17569.609,-0.891,-0.002,0.442,0.76,-1.19,-1.5,2,5
17569.625,-0.885,-0.001,0.434,0.92,-1.31,-0.76,2,5
17569.625,-0.88,-0.002,0.431,0.61,-1.53,-0.49,2,5
17569.64,-0.879,-0.004,0.434,-0.24,-1.71,-0.98,2,5
17569.656,-0.882,-0.01,0.43,-1.07,-1.83,-1.46,2,5
17569.656,-0.883,-0.016,0.43,-1.34,-1.5,-1.34,2,5
17569.671,-0.88,-0.022,0.432,-1.13,-0.61,-1.53,2,5
17569.687,-0.874,-0.006,0.426,0.03,0.06,-2.41,2,5
17569.703,-0.873,0.003,0.425,-0.52,0.15,-2.75,2,5
17569.703,-0.873,0.004,0.43,-1.4,0.15,-2.78,2,5
17569.718,-0.878,0.004,0.438,-1.59,0.09,-2.08,2,5
17569.734,-0.877,0.006,0.438,-0.95,-0.18,-0.85,2,5
17569.734,-0.871,0.014,0.434,-0.67,-0.7,0.61,2,5
17569.75,-0.868,0.01,0.429,-1.01,-1.31,2.32,2,5
17569.765,-0.863,0.0,0.421,-1.4,-1.43,3.57,2,5
17569.765,-0.859,-0.004,0.415,-1.46,-0.95,4.88,2,5
17569.781,-0.853,-0.007,0.415,-0.95,0.12,6.2,2,5
17569.796,-0.843,-0.009,0.416,-0.34,1.31,7.29,2,5
17569.796,-0.83,-0.005,0.419,0.18,2.08,8.51,2,5
17569.812,-0.821,-0.004,0.42,0.27,2.23,9.58,2,5
17569.828,-0.811,-0.008,0.419,-0.46,1.71,10.65,2,5
17569.828,-0.807,-0.015,0.415,-1.19,0.67,11.54,2,5
17569.843,-0.801,-0.025,0.404,-1.68,-0.43,11.99,2,5
17569.859,-0.776,-0.041,0.383,-2.59,-1.92,11.38,2,5
17569.875,-0.763,-0.038,0.367,-3.2,-2.53,9.74,2,5
17569.875,-0.748,-0.033,0.346,-5.13,-3.36,7.6,2,5
17569.89,-0.727,-0.029,0.335,-7.81,-4.67,4.94,2,5
17569.906,-0.692,-0.017,0.305,-9.86,-6.16,3.11,2,5
17569.906,-0.651,-0.005,0.273,-11.2,-5.71,2.93,2,5
17569.921,-0.611,0.015,0.251,-13.06,0.21,5.98,2,5
17569.937,-0.595,0.007,0.226,-11.6,6.2,9.77,2,5
17569.937,-0.579,-0.001,0.218,-8.88,13.06,14.01,2,5
17569.953,-0.552,-0.009,0.219,-5.8,19.78,17.46,2,5
17569.968,-0.554,-0.041,0.234,-4.06,25.57,20.48,2,5
17569.968,-0.57,-0.063,0.251,-3.54,30.85,22.31,2,5
17569.984,-0.602,-0.097,0.26,-2.41,35.16,23.38,2,5
17570.0,-0.618,-0.104,0.261,-0.73,37.26,24.17,2,5
17570.0,-0.622,-0.091,0.246,0.46,37.57,23.83,2,5
17570.015,-0.632,-0.066,0.221,-0.7,36.96,22.1,2,5
17570.031,-0.629,-0.024,0.186,-8.33,34.79,16.24,2,5
17570.046,-0.627,0.018,0.17,-13.37,34.7,11.57,2,5
17570.046,-0.647,0.049,0.165,-20.57,35.37,7.42,2,5
17570.062,-0.668,0.045,0.184,-27.95,35.77,6.04,2,5
17570.078,-0.705,0.021,0.203,-31.13,35.4,7.39,2,5
17570.078,-0.732,-0.001,0.211,-31.37,33.75,12.51,2,5
17570.093,-0.75,-0.006,0.187,-29.15,30.95,17.61,2,5
17570.093,-0.757,-0.004,0.157,-27.56,27.92,21.21,2,5
17570.109,-0.718,0.022,0.123,-30.27,26.34,23.8,2,5
17570.125,-0.682,0.048,0.099,-35.65,26.0,23.77,2,5
17570.125,-0.685,0.04,0.091,-40.68,27.83,21.73,2,5
17570.14,-0.724,-0.003,0.101,-44.13,32.93,22.4,2,5
17570.156,-0.767,-0.047,0.11,-42.02,38.21,26.22,2,5
17570.171,-0.801,-0.068,0.104,-35.04,42.88,31.31,2,5
17570.171,-0.856,-0.064,0.073,-26.73,45.93,36.5,2,5
17570.187,-0.881,-0.037,0.036,-20.84,45.87,41.38,2,5
17570.187,-0.789,0.003,0.006,-18.28,44.89,45.14,2,5
17570.203,-0.743,0.032,-0.004,-17.76,49.5,45.38,2,5
17570.218,-0.802,0.014,0.003,-16.57,56.52,43.4,2,5
17570.218,-0.856,0.02,0.003,-12.97,61.16,41.69,2,5
17570.234,-0.927,0.052,-0.01,-8.91,63.81,39.7,2,5
17570.25,-0.974,0.077,-0.017,-7.93,63.54,38.27,2,5
17570.25,-0.951,0.108,-0.017,-10.01,60.61,37.08,2,5
17570.265,-0.939,0.117,-0.014,-11.51,59.11,35.19,2,5
17570.265,-0.956,0.104,-0.012,-11.57,58.29,34.52,2,5
17570.281,-0.927,0.122,-0.012,-11.17,57.95,34.15,2,5
17570.296,-0.955,0.121,-0.027,-8.79,58.84,32.84,2,5
17570.296,-0.972,0.11,-0.073,-5.83,58.9,31.86,2,5
17570.312,-0.992,0.11,-0.138,-0.79,61.65,31.95,2,5
17570.328,-1.008,0.113,-0.183,5.77,65.37,33.14,2,5
17570.328,-0.991,0.121,-0.21,11.84,71.75,36.99,2,5
17570.343,-0.935,0.129,-0.216,19.1,80.84,40.44,2,5
17570.343,-0.857,0.143,-0.204,28.32,93.66,41.87,2,5
17570.359,-0.879,0.155,-0.203,36.23,107.12,41.05,2,5
17570.375,-0.916,0.157,-0.2,39.98,114.47,39.43,2,5
17570.375,-0.936,0.177,-0.21,41.05,116.46,36.93,2,5
17570.39,-0.987,0.185,-0.232,40.38,115.6,33.27,2,5
17570.406,-1.023,0.162,-0.242,38.91,113.32,30.98,2,5
17570.421,-1.016,0.15,-0.242,39.31,112.34,30.03,2,5
17570.421,-0.978,0.148,-0.233,43.58,117.1,28.26,2,5
17570.437,-0.988,0.153,-0.239,50.63,126.22,23.38,2,5
17570.453,-1.02,0.193,-0.248,56.46,134.62,15.78,2,5
17570.453,-1.078,0.269,-0.256,57.22,140.78,5.74,2,5
17570.453,-1.166,0.33,-0.254,52.25,141.88,-4.49,2,5
17570.468,-1.263,0.364,-0.234,45.08,137.24,-12.39,2,5
17570.484,-1.331,0.373,-0.166,39.46,131.9,-15.63,2,5
17570.484,-1.418,0.375,-0.098,38.85,127.66,-13.43,2,5
17570.5,-1.506,0.407,-0.019,43.7,119.82,-6.59,2,5
17570.515,-1.534,0.489,0.063,50.69,107.12,3.51,2,5
17570.531,-1.583,0.627,0.113,59.39,70.31,25.15,2,5
17570.546,-1.632,0.671,0.07,60.3,49.62,37.11,2,5
17570.546,-1.664,0.705,0.073,59.6,30.98,51.27,2,5
17570.562,-1.668,0.723,0.097,58.05,14.07,67.08,2,5
17570.578,-1.646,0.744,0.133,55.3,-1.77,82.03,2,5
17570.578,-1.6,0.756,0.169,53.87,-14.86,94.36,2,5
17570.593,-1.568,0.752,0.193,54.99,-25.94,103.73,2,5
17570.609,-1.522,0.741,0.197,56.73,-39.03,111.48,2,5
17570.609,-1.463,0.747,0.202,57.71,-52.92,117.92,2,5
17570.625,-1.417,0.734,0.202,58.26,-65.49,121.92,2,5
17570.64,-1.387,0.721,0.219,56.43,-76.42,123.36,2,5
17570.64,-1.353,0.71,0.244,52.52,-87.31,122.38,2,5
17570.656,-1.307,0.689,0.245,46.94,-98.85,119.05,2,5
17570.671,-1.257,0.672,0.241,38.79,-110.45,113.13,2,5
17570.671,-1.205,0.685,0.254,27.13,-122.65,105.78,2,5
17570.687,-1.151,0.673,0.261,13.86,-135.11,97.14,2,5
17570.687,-1.107,0.635,0.254,2.23,-148.32,86.98,2,5
17570.703,-1.04,0.614,0.249,-7.17,-162.18,76.48,2,5
17570.718,-0.993,0.615,0.227,-13.89,-174.2,65.95,2,5
17570.718,-0.973,0.621,0.196,-21.45,-184.33,55.88,2,5
17570.734,-0.954,0.626,0.174,-33.11,-192.79,46.6,2,5
17570.734,-0.933,0.61,0.176,-45.81,-200.11,36.93,2,5
17570.75,-0.919,0.58,0.184,-56.86,-207.37,27.56,2,5
17570.765,-0.903,0.568,0.206,-67.38,-214.76,19.32,2,5
17570.781,-0.876,0.536,0.211,-75.69,-221.84,12.79,2,5
17570.781,-0.851,0.487,0.218,-80.26,-226.14,8.24,2,5
17570.796,-0.825,0.437,0.233,-79.5,-225.81,5.65,2,5
17570.796,-0.803,0.401,0.244,-73.43,-221.81,3.97,2,5
17570.812,-0.791,0.374,0.258,-63.51,-215.49,2.99,2,5
17570.828,-0.799,0.36,0.275,-50.97,-208.29,3.88,2,5
17570.828,-0.806,0.376,0.271,-39.98,-202.31,6.84,2,5
17570.843,-0.791,0.417,0.258,-36.04,-197.0,9.98,2,5
17570.859,-0.762,0.459,0.253,-43.15,-191.17,12.76,2,5
17570.859,-0.73,0.478,0.233,-58.11,-183.42,14.4,2,5
17570.875,-0.716,0.469,0.245,-78.52,-175.12,14.28,2,5
17570.89,-0.698,0.432,0.293,-97.29,-168.03,13.03,2,5
17570.89,-0.688,0.403,0.355,-111.76,-162.39,11.44,2,5
17570.906,-0.686,0.358,0.409,-112.7,-153.26,14.74,2,5
17570.921,-0.681,0.278,0.442,-99.8,-149.36,17.03,2,5
17570.921,-0.687,0.246,0.473,-80.51,-146.79,19.1,2,5
17570.937,-0.693,0.247,0.512,-62.47,-145.3,20.26,2,5
17570.937,-0.666,0.23,0.53,-50.05,-141.76,19.04,2,5
17570.953,-0.649,0.241,0.522,-40.28,-134.22,15.84,2,5
17570.953,-0.629,0.254,0.512,-33.81,-123.29,11.44,2,5
17570.968,-0.613,0.276,0.521,-33.36,-111.76,6.13,2,5
17570.984,-0.612,0.303,0.558,-36.59,-99.73,1.95,2,5
17571.0,-0.622,0.312,0.605,-39.0,-89.6,0.49,2,5
17571.0,-0.628,0.31,0.667,-37.84,-83.07,0.52,2,5
17571.015,-0.646,0.292,0.7,-30.43,-79.2,2.14,2,5
17571.031,-0.642,0.263,0.743,-14.44,-75.59,7.63,2,5
17571.046,-0.618,0.251,0.739,-6.44,-73.67,8.03,2,5
17571.046,-0.594,0.257,0.724,-1.25,-70.41,6.2,2,5
17571.062,-0.57,0.28,0.711,-1.4,-65.61,2.93,2,5
17571.078,-0.56,0.297,0.723,-5.58,-59.33,-1.19,2,5
17571.078,-0.563,0.296,0.748,-9.95,-52.61,-4.33,2,5
17571.093,-0.57,0.295,0.782,-12.27,-46.57,-5.71,2,5
17571.093,-0.595,0.296,0.821,-11.11,-42.82,-5.58,2,5
17571.109,-0.61,0.289,0.848,-6.47,-42.85,-3.2,2,5
17571.125,-0.584,0.282,0.858,0.43,-44.34,0.15,2,5
17571.125,-0.571,0.281,0.843,7.02,-45.5,0.64,2,5
17571.14,-0.549,0.271,0.825,10.38,-47.0,-0.85,2,5
17571.156,-0.514,0.27,0.806,12.6,-44.53,-3.81,2,5
17571.156,-0.519,0.281,0.788,13.58,-42.63,-10.13,2,5
17571.171,-0.495,0.286,0.785,11.96,-41.32,-16.21,2,5
17571.187,-0.472,0.312,0.781,10.1,-36.62,-21.49,2,5
17571.203,-0.489,0.329,0.785,9.95,-23.29,-26.52,2,5
17571.218,-0.5,0.355,0.804,10.68,-18.46,-24.63,2,5
17571.218,-0.518,0.368,0.816,11.69,-16.85,-20.42,2,5
17571.234,-0.528,0.382,0.815,10.9,-18.77,-14.37,2,5
17571.234,-0.514,0.407,0.803,7.32,-22.1,-7.75,2,5
17571.25,-0.494,0.414,0.79,1.31,-24.99,-2.75,2,5
17571.265,-0.471,0.397,0.779,-5.86,-25.97,0.43,2,5
17571.265,-0.45,0.378,0.766,-12.24,-24.32,2.26,2,5
17571.281,-0.43,0.363,0.763,-16.63,-20.26,3.48,2,5
17571.296,-0.429,0.355,0.78,-18.28,-14.71,3.85,2,5
17571.296,-0.429,0.343,0.798,-17.61,-9.98,3.51,2,5
17571.312,-0.428,0.339,0.817,-15.53,-6.23,2.87,2,5
17571.328,-0.43,0.339,0.825,-11.78,-2.96,2.32,2,5
17571.328,-0.431,0.342,0.832,-6.71,-0.09,2.14,2,5
17571.343,-0.433,0.347,0.831,-0.18,2.9,2.35,2,5
17571.359,-0.453,0.362,0.829,5.98,5.28,2.93,2,5
17571.375,-0.462,0.397,0.859,7.57,0.49,6.41,2,5
17571.375,-0.451,0.4,0.858,1.56,-5.04,7.51,2,5
17571.39,-0.446,0.395,0.857,-7.17,-9.55,7.51,2,5
17571.406,-0.447,0.374,0.859,-17.21,-14.37,6.23,2,5
17571.421,-0.437,0.347,0.856,-26.43,-19.9,4.33,2,5
17571.421,-0.429,0.331,0.842,-31.74,-23.35,2.78,2,5
17571.437,-0.413,0.314,0.819,-32.38,-23.59,2.11,2,5
17571.437,-0.393,0.318,0.818,-29.88,-20.81,2.17,2,5
17571.453,-0.38,0.312,0.799,-24.17,-15.78,2.56,2,5
17571.468,-0.374,0.3,0.786,-19.2,-10.01,2.44,2,5
17571.468,-0.369,0.293,0.784,-15.63,-2.29,1.86,2,5
17571.484,-0.364,0.286,0.762,-13.52,4.94,1.04,2,5
17571.484,-0.361,0.283,0.734,-13.55,10.86,-1.31,2,5
17571.5,-0.354,0.275,0.727,-12.91,20.42,-2.66,2,5
17571.515,-0.356,0.265,0.713,-9.86,30.95,-3.02,2,5
17571.515,-0.371,0.264,0.705,-6.71,41.14,-3.45,2,5
17571.546,-0.461,0.292,0.743,-2.38,57.74,-4.06,2,5
17571.546,-0.6,0.39,0.884,1.01,58.44,-0.43,2,5
17571.562,-0.581,0.366,0.949,2.26,45.84,9.7,2,5
17571.578,-0.75,0.573,1.09,-17.49,22.77,12.79,2,5
17571.578,-0.632,0.526,1.111,-39.92,-9.0,22.74,2,5
17571.593,-0.432,0.337,0.918,-54.35,-31.04,21.42,2,5
17571.609,-0.391,0.26,0.889,-59.45,-26.7,14.74,2,5
17571.609,-0.404,0.206,0.932,-47.7,-15.5,9.25,2,5
17571.625,-0.444,0.186,0.962,-23.5,-6.56,6.1,2,5
17571.625,-0.467,0.194,0.985,-0.76,-3.3,4.49,2,5
17571.64,-0.468,0.218,1.004,17.27,-6.56,1.92,2,5
17571.656,-0.469,0.233,0.993,31.34,-12.67,0.27,2,5
17571.671,-0.459,0.256,0.957,38.67,-20.6,-0.64,2,5
17571.671,-0.434,0.289,0.917,39.49,-27.25,-1.5,2,5
17571.687,-0.445,0.361,0.879,36.84,-31.28,-1.43,2,5
17571.687,-0.461,0.408,0.841,30.3,-33.63,3.36,2,5
17571.703,-0.365,0.342,0.809,12.85,-39.12,2.99,2,5
17571.718,-0.389,0.436,0.8,0.0,-37.78,3.39,2,5
17571.718,-0.354,0.382,0.79,0.21,-29.39,12.12,2,5
17571.734,-0.347,0.298,0.803,-3.51,-26.67,9.58,2,5
17571.75,-0.349,0.309,0.824,-8.45,-25.03,6.13,2,5
17571.75,-0.321,0.301,0.816,-6.16,-21.42,4.49,2,5
17571.765,-0.317,0.286,0.815,-2.2,-16.72,1.8,2,5
17571.781,-0.314,0.276,0.82,2.69,-11.35,0.21,2,5
17571.781,-0.319,0.275,0.807,8.55,-6.26,-0.46,2,5
17571.796,-0.323,0.272,0.79,13.09,-1.04,-0.15,2,5
17571.796,-0.326,0.279,0.787,15.02,3.78,0.0,2,5
17571.812,-0.341,0.274,0.784,14.44,7.45,-0.4,2,5
17571.828,-0.357,0.271,0.783,10.16,8.21,-1.16,2,5
17571.828,-0.359,0.258,0.782,3.75,7.48,-1.46,2,5
17571.843,-0.334,0.263,0.761,-1.46,8.06,-2.29,2,5
17571.843,-0.34,0.257,0.706,-5.65,11.9,-3.72,2,5
17571.859,-0.318,0.253,0.658,-11.75,19.44,-3.23,2,5
17571.875,-0.294,0.265,0.675,-14.59,33.63,-1.53,2,5
17571.89,-0.308,0.271,0.67,-11.93,52.34,-0.73,2,5
17571.89,-0.384,0.327,0.693,-6.99,82.74,-1.16,2,5
17571.906,-0.521,0.363,0.904,-7.35,73.15,4.52,2,5
17571.906,-0.787,0.521,1.145,-18.59,35.77,23.1,2,5
17571.921,-0.573,0.456,1.159,-40.13,-17.21,30.67,2,5
17571.937,-0.381,0.261,1.004,-53.77,-34.94,22.74,2,5
17571.937,-0.395,0.144,0.951,-40.22,-27.01,13.49,2,5
17571.953,-0.42,0.098,0.912,-9.28,-18.04,8.33,2,5
17571.968,-0.433,0.156,0.874,17.98,-13.98,3.36,2,5
17571.968,-0.433,0.247,0.839,33.11,-14.5,-1.22,2,5
17571.984,-0.443,0.312,0.82,36.32,-16.36,-4.12,2,5
17572.0,-0.455,0.369,0.809,29.88,-19.23,-4.06,2,5
17572.0,-0.468,0.386,0.808,17.94,-23.59,-0.73,2,5
17572.015,-0.369,0.335,0.719,2.69,-28.63,0.79,2,5
17572.031,-0.394,0.337,0.731,-7.02,-21.82,0.49,2,5
17572.031,-0.427,0.32,0.807,-11.29,-17.37,2.5,2,5
17572.046,-0.375,0.285,0.851,-15.53,-20.94,2.47,2,5
17572.046,-0.362,0.271,0.824,-13.58,-21.52,0.21,2,5
17572.062,-0.358,0.286,0.844,-9.46,-17.76,-1.13,2,5
17572.078,-0.362,0.27,0.856,-1.07,-14.86,-2.32,2,5
17572.078,-0.359,0.272,0.843,8.85,-11.72,-2.08,2,5
17572.093,-0.352,0.301,0.824,16.63,-7.54,-1.56,2,5
17572.093,-0.352,0.328,0.812,20.08,-3.17,-2.08,2,5
17572.109,-0.359,0.344,0.806,19.87,0.37,-2.78,2,5
17572.125,-0.371,0.353,0.805,17.06,3.14,-3.48,2,5
17572.125,-0.382,0.363,0.802,12.3,5.19,-3.81,2,5
17572.14,-0.388,0.365,0.802,7.26,6.44,-3.36,2,5
17572.156,-0.397,0.365,0.808,3.2,7.23,-2.23,2,5
17572.156,-0.403,0.358,0.821,0.73,7.42,-0.27,2,5
17572.171,-0.402,0.351,0.831,-0.55,7.02,1.71,2,5
17572.187,-0.401,0.349,0.841,-0.98,6.41,3.08,2,5
17572.187,-0.396,0.343,0.837,-0.43,5.89,3.97,2,5
17572.203,-0.394,0.33,0.838,0.55,5.86,4.58,2,5
17572.218,-0.393,0.329,0.839,1.86,6.2,4.88,2,5
17572.218,-0.395,0.328,0.836,2.78,6.41,4.88,2,5
17572.234,-0.397,0.325,0.833,3.05,6.44,4.88,2,5
17572.234,-0.393,0.324,0.833,2.32,6.2,4.88,2,5
17572.25,-0.39,0.315,0.838,1.31,6.23,4.46,2,5
17572.265,-0.393,0.304,0.855,-1.74,5.19,2.81,2,5
17572.265,-0.381,0.283,0.861,-4.43,3.17,0.37,2,5
17572.281,-0.375,0.271,0.857,-4.91,2.78,-1.56,2,5
17572.296,-0.363,0.277,0.824,-3.08,5.1,-2.44,2,5
17572.296,-0.35,0.295,0.808,-1.53,10.71,-3.05,2,5
17572.312,-0.353,0.307,0.843,-1.4,17.49,-4.27,2,5
17572.328,-0.328,0.288,0.83,-1.46,23.16,-5.62,2,5
17572.328,-0.377,0.33,0.816,-2.56,30.88,-9.09,2,5
17572.343,-0.583,0.428,1.038,-2.84,35.04,-6.23,2,5
17572.359,-0.535,0.435,1.045,-9.31,16.39,0.49,2,5
17572.359,-0.476,0.411,1.0,-18.56,0.06,1.86,2,5
17572.375,-0.448,0.319,0.951,-19.1,-6.53,1.01,2,5
17572.375,-0.429,0.257,0.916,-10.83,-6.93,-0.34,2,5
17572.39,-0.45,0.229,0.886,3.36,-4.76,-3.2,2,5
17572.406,-0.48,0.224,0.879,16.45,-5.16,-6.26,2,5
17572.421,-0.509,0.262,0.849,25.76,-9.8,-8.64,2,5
17572.421,-0.522,0.323,0.813,29.48,-16.57,-8.85,2,5
17572.437,-0.545,0.384,0.805,26.64,-23.59,-6.53,2,5
17572.437,-0.432,0.382,0.709,14.19,-30.7,-2.11,2,5
17572.453,-0.446,0.409,0.716,1.62,-24.93,-0.52,2,5
17572.468,-0.484,0.375,0.801,-5.74,-19.9,5.52,2,5
17572.468,-0.422,0.374,0.783,-17.3,-22.49,9.13,2,5
17572.484,-0.428,0.334,0.778,-21.27,-18.71,9.67,2,5
17572.484,-0.457,0.292,0.817,-18.04,-14.1,10.1,2,5
17572.5,-0.456,0.285,0.828,-9.4,-12.97,10.25,2,5
17572.515,-0.445,0.29,0.815,0.79,-11.57,9.64,2,5
17572.515,-0.438,0.304,0.804,9.55,-8.33,8.42,2,5
17572.531,-0.438,0.311,0.793,14.98,-3.69,7.08,2,5
17572.546,-0.438,0.322,0.783,16.79,0.76,5.95,2,5
17572.546,-0.454,0.339,0.788,16.45,5.22,5.07,2,5
17572.562,-0.477,0.35,0.803,14.31,7.84,4.85,2,5
17572.578,-0.49,0.357,0.813,10.77,8.15,5.43,2,5
17572.578,-0.501,0.362,0.826,8.12,7.6,6.9,2,5
17572.593,-0.51,0.355,0.831,7.54,7.08,9.0,2,5
17572.593,-0.512,0.352,0.831,7.97,7.23,11.08,2,5
17572.609,-0.534,0.351,0.841,9.4,7.72,12.3,2,5
17572.625,-0.547,0.35,0.848,11.05,6.78,13.0,2,5
17572.64,-0.546,0.355,0.847,12.33,5.55,13.18,2,5
17572.64,-0.554,0.361,0.845,14.16,5.62,13.31,2,5
17572.656,-0.56,0.367,0.839,17.12,6.84,14.31,2,5
17572.656,-0.558,0.377,0.84,20.14,9.74,15.93,2,5
17572.671,-0.569,0.39,0.846,22.16,14.77,17.06,2,5
17572.687,-0.593,0.395,0.86,23.9,20.84,17.27,2,5
17572.687,-0.61,0.404,0.882,26.67,27.53,17.67,2,5
17572.703,-0.619,0.42,0.895,31.01,35.89,17.88,2,5
17572.718,-0.632,0.438,0.912,37.05,46.69,16.48,2,5
17572.718,-0.652,0.453,0.939,45.69,59.6,14.37,2,5
17572.734,-0.681,0.464,0.955,59.88,74.22,12.76,2,5
17572.734,-0.744,0.443,0.947,79.96,86.46,11.75,2,5
17572.75,-0.786,0.44,0.943,98.39,90.33,13.15,2,5
17572.765,-0.772,0.416,0.882,114.75,85.82,17.0,2,5
17572.765,-0.722,0.401,0.746,126.04,80.14,19.44,2,5
17572.781,-0.687,0.411,0.65,129.15,79.71,21.27,2,5
17572.796,-0.631,0.362,0.546,130.56,84.08,25.12,2,5
17572.796,-0.586,0.352,0.463,124.94,93.63,25.45,2,5
17572.812,-0.527,0.359,0.407,114.32,110.57,23.99,2,5
17572.828,-0.464,0.313,0.304,104.83,133.09,20.26,2,5
17572.828,-0.418,0.271,0.189,95.03,161.32,15.72,2,5
17572.843,-0.395,0.223,0.103,86.79,194.52,11.51,2,5
17572.859,-0.403,0.161,0.057,78.92,227.42,2.62,2,5
17572.859,-0.391,0.094,-0.008,68.36,260.48,-12.02,2,5
17572.875,-0.411,0.053,-0.087,39.64,324.59,-61.4,2,5
17572.875,-0.497,0.04,-0.092,21.12,346.78,-90.85,2,5
17572.89,-0.558,0.001,-0.082,5.28,367.87,-119.57,2,5
17572.906,-0.629,-0.063,-0.084,-3.39,388.44,-145.79,2,5
17572.906,-0.777,-0.142,-0.056,-4.76,404.1,-170.84,2,5
17572.921,-0.835,-0.139,-0.064,-3.36,412.58,-192.88,2,5
17572.937,-0.866,-0.106,-0.092,-0.67,416.64,-208.84,2,5
17572.937,-0.887,-0.07,-0.1,2.29,417.22,-217.26,2,5
17572.953,-0.887,-0.066,-0.104,6.44,411.42,-218.63,2,5
17572.968,-0.886,-0.059,-0.133,11.08,400.52,-214.03,2,5
17572.968,-0.912,-0.041,-0.15,17.49,388.01,-206.49,2,5
17572.984,-0.932,-0.025,-0.166,26.4,373.12,-200.54,2,5
17573.0,-0.954,-0.016,-0.208,37.35,356.55,-197.88,2,5
17573.0,-0.968,-0.011,-0.271,47.0,340.1,-197.03,2,5
17573.015,-0.951,-0.01,-0.313,51.79,322.21,-198.25,2,5
17573.031,-0.917,-0.007,-0.363,58.57,304.12,-201.51,2,5
17573.031,-0.906,0.005,-0.419,66.74,288.03,-197.76,2,5
17573.046,-0.885,0.016,-0.501,64.52,270.7,-187.35,2,5
17573.062,-0.878,0.074,-0.602,50.97,240.15,-170.42,2,5
17573.078,-0.928,0.011,-0.715,59.14,234.87,-156.1,2,5
17573.078,-0.912,0.049,-0.889,60.43,228.92,-137.03,2,5
17573.093,-0.889,0.139,-1.066,50.26,230.41,-116.31,2,5
17573.093,-0.881,0.188,-1.124,34.58,242.19,-95.68,2,5
17573.109,-0.902,0.152,-1.107,26.95,259.56,-75.69,2,5
17573.125,-0.923,0.094,-1.056,34.24,274.64,-54.54,2,5
17573.125,-0.951,0.054,-1.031,55.21,280.07,-33.6,2,5
17573.14,-0.964,0.076,-1.036,81.42,273.75,-15.47,2,5
17573.156,-0.948,0.148,-1.047,103.82,261.36,1.71,2,5
17573.156,-0.939,0.205,-1.057,116.73,246.31,16.66,2,5
17573.171,-0.906,0.178,-1.055,120.4,228.83,28.6,2,5
17573.187,-0.871,0.117,-1.079,118.99,209.69,34.76,2,5
17573.187,-0.838,0.071,-1.099,112.7,189.89,34.91,2,5
17573.203,-0.801,0.012,-1.119,103.67,171.85,28.66,2,5
17573.218,-0.772,-0.027,-1.133,93.11,157.44,17.09,2,5
17573.218,-0.751,-0.022,-1.141,80.81,143.44,1.22,2,5
17573.234,-0.696,-0.03,-1.086,65.65,133.52,-12.63,2,5
17573.25,-0.649,-0.039,-1.013,54.9,124.03,-23.53,2,5
17573.25,-0.6,-0.062,-0.956,51.36,113.62,-30.06,2,5
17573.265,-0.568,-0.07,-0.94,50.45,101.96,-33.75,2,5
17573.265,-0.529,-0.065,-0.942,47.7,89.85,-33.17,2,5
17573.281,-0.516,-0.081,-0.939,43.7,78.04,-31.19,2,5
17573.296,-0.519,-0.097,-0.936,40.07,66.87,-29.85,2,5
17573.296,-0.495,-0.095,-0.926,36.44,56.34,-29.05,2,5
17573.312,-0.469,-0.088,-0.922,31.95,47.67,-28.05,2,5
17573.328,-0.427,-0.081,-0.936,28.08,40.71,-26.37,2,5
17573.328,-0.386,-0.083,-0.954,25.57,37.26,-22.98,2,5
17573.343,-0.35,-0.096,-0.962,24.54,37.32,-18.01,2,5
17573.359,-0.34,-0.11,-0.957,26.03,39.34,-12.09,2,5
17573.359,-0.344,-0.11,-0.952,28.96,41.32,-5.55,2,5
17573.375,-0.354,-0.113,-0.938,30.06,42.24,1.22,2,5
17573.39,-0.322,-0.17,-0.879,29.76,38.42,11.35,2,5
17573.406,-0.301,-0.181,-0.868,29.45,34.06,12.7,2,5
17573.421,-0.274,-0.192,-0.877,26.0,28.63,12.02,2,5
17573.421,-0.248,-0.221,-0.879,19.5,23.07,9.4,2,5
17573.437,-0.237,-0.261,-0.886,13.31,18.34,5.86,2,5
17573.437,-0.24,-0.272,-0.911,9.0,15.32,2.78,2,5
17573.453,-0.243,-0.272,-0.931,6.16,14.83,0.24,2,5
17573.468,-0.243,-0.279,-0.924,3.97,16.14,-1.59,2,5
17573.468,-0.223,-0.283,-0.912,3.11,17.27,-2.44,2,5
17573.484,-0.221,-0.295,-0.892,4.21,16.66,-1.98,2,5
17573.484,-0.213,-0.3,-0.872,6.78,17.09,0.52,2,5
17573.5,-0.211,-0.293,-0.872,7.81,12.12,1.8,2,5
17573.515,-0.205,-0.299,-0.897,5.55,6.74,1.83,2,5
17573.531,-0.207,-0.293,-0.915,0.34,5.25,1.4,2,5
17573.531,-0.211,-0.306,-0.923,-4.39,4.21,0.34,2,5
17573.546,-0.189,-0.339,-0.934,-6.32,3.14,-1.01,2,5
17573.562,-0.189,-0.378,-0.951,-3.63,6.68,-5.28,2,5
17573.578,-0.193,-0.379,-0.953,-2.44,10.19,-9.13,2,5
17573.578,-0.193,-0.364,-0.954,-4.06,13.4,-12.39,2,5
17573.593,-0.184,-0.356,-0.931,-7.57,14.98,-14.65,2,5
17573.593,-0.171,-0.364,-0.907,-9.03,14.65,-14.89,2,5
17573.609,-0.169,-0.355,-0.907,-7.72,13.18,-13.55,2,5
17573.625,-0.171,-0.332,-0.913,-5.62,11.38,-11.05,2,5
17573.625,-0.175,-0.336,-0.927,-5.07,9.95,-8.12,2,5
17573.64,-0.172,-0.335,-0.935,-5.19,9.4,-5.77,2,5
17573.656,-0.155,-0.352,-0.928,-5.19,9.58,-3.6,2,5
17573.656,-0.147,-0.365,-0.929,-3.75,10.01,-1.74,2,5
17573.671,-0.154,-0.365,-0.932,-2.53,10.32,-1.16,2,5
17573.687,-0.156,-0.371,-0.936,-3.57,10.16,-1.71,2,5
17573.687,-0.165,-0.367,-0.936,-5.1,10.44,-2.81,2,5
17573.703,-0.172,-0.357,-0.932,-6.96,10.35,-4.39,2,5
17573.718,-0.157,-0.369,-0.926,-8.55,9.8,-4.94,2,5
17573.718,-0.146,-0.375,-0.924,-8.24,9.77,-5.01,2,5
17573.734,-0.145,-0.371,-0.918,-7.6,9.67,-5.98,2,5
17573.734,-0.148,-0.372,-0.917,-7.32,9.8,-6.93,2,5
17573.75,-0.153,-0.367,-0.914,-7.75,10.01,-7.72,2,5
17573.765,-0.167,-0.352,-0.909,-8.79,9.61,-9.37,2,5
17573.781,-0.181,-0.329,-0.907,-10.77,7.63,-11.44,2,5
17573.781,-0.182,-0.303,-0.912,-13.55,4.67,-12.82,2,5
17573.796,-0.184,-0.3,-0.922,-15.81,1.8,-14.01,2,5
17573.796,-0.193,-0.289,-0.933,-18.37,-0.52,-15.2,2,5
17573.812,-0.197,-0.271,-0.938,-21.52,-2.66,-16.51,2,5
17573.828,-0.203,-0.262,-0.938,-25.12,-4.24,-17.85,2,5
17573.828,-0.205,-0.257,-0.948,-28.17,-5.37,-18.8,2,5
17573.843,-0.187,-0.26,-0.947,-31.1,-6.32,-18.59,2,5
17573.843,-0.16,-0.276,-0.942,-32.29,-6.99,-17.61,2,5
17573.859,-0.1,-0.328,-0.932,-24.6,-5.68,-9.52,2,5
17573.875,-0.028,-0.385,-0.939,-18.04,-2.56,-3.88,2,5
17573.875,-0.012,-0.41,-0.965,-14.1,1.43,-0.21,2,5
17573.89,-0.04,-0.423,-0.961,-12.24,5.55,-0.61,2,5
17573.906,-0.066,-0.407,-0.934,-9.31,7.93,-4.76,2,5
17573.906,-0.083,-0.364,-0.907,-7.57,7.45,-10.19,2,5
17573.921,-0.084,-0.325,-0.875,-8.15,3.85,-14.47,2,5
17573.937,-0.078,-0.308,-0.851,-8.51,-2.29,-15.66,2,5
17573.937,-0.08,-0.295,-0.852,-7.57,-9.92,-13.34,2,5
17573.953,-0.07,-0.287,-0.867,-6.65,-17.21,-8.76,2,5
17573.968,-0.068,-0.299,-0.896,-4.91,-23.26,-3.3,2,5
17573.968,-0.07,-0.311,-0.939,-2.41,-26.43,1.46,2,5
17573.984,-0.076,-0.314,-0.984,-0.46,-26.06,5.37,2,5
17573.984,-0.079,-0.302,-1.022,0.49,-22.0,7.14,2,5
17574.0,-0.075,-0.303,-1.028,0.76,-15.14,6.38,2,5
17574.015,-0.085,-0.309,-1.005,2.04,-8.18,3.36,2,5
17574.015,-0.09,-0.305,-0.973,3.78,-3.42,0.49,2,5
17574.031,-0.092,-0.304,-0.934,5.1,-1.77,-0.85,2,5
17574.046,-0.088,-0.304,-0.914,6.44,-3.42,0.15,2,5
17574.046,-0.085,-0.301,-0.919,6.53,-7.02,2.2,2,5
17574.062,-0.087,-0.312,-0.941,6.93,-9.61,6.07,2,5
17574.078,-0.089,-0.299,-0.972,7.93,-10.53,9.49,2,5
17574.078,-0.094,-0.292,-0.983,8.97,-8.85,11.2,2,5
17574.093,-0.078,-0.294,-0.983,10.1,-6.26,12.12,2,5
17574.109,-0.054,-0.31,-0.986,11.63,-3.57,13.46,2,5
17574.109,-0.054,-0.313,-0.991,14.01,-0.4,14.1,2,5
17574.125,-0.06,-0.306,-0.998,14.53,2.72,13.4,2,5
17574.125,-0.069,-0.321,-0.982,12.15,5.13,11.84,2,5
17574.14,-0.076,-0.347,-0.959,12.18,6.96,9.7,2,5
17574.156,-0.068,-0.353,-0.947,14.16,7.81,8.51,2,5
17574.171,-0.069,-0.345,-0.955,15.72,8.39,8.51,2,5
17574.171,-0.067,-0.331,-0.97,16.08,8.76,9.0,2,5
17574.187,-0.065,-0.323,-0.98,14.4,9.86,8.33,2,5
17574.187,-0.069,-0.33,-0.974,12.42,11.54,5.46,2,5
17574.203,-0.071,-0.34,-0.965,11.75,13.21,2.84,2,5
17574.218,-0.072,-0.334,-0.953,12.57,14.37,2.32,2,5
17574.218,-0.075,-0.319,-0.949,14.07,14.53,2.9,2,5
17574.234,-0.072,-0.313,-0.946,13.95,13.95,3.85,2,5
17574.234,-0.078,-0.318,-0.945,13.12,13.06,3.94,2,5
17574.25,-0.091,-0.322,-0.943,12.15,11.84,3.2,2,5
17574.265,-0.101,-0.322,-0.939,10.9,10.35,2.5,2,5
17574.265,-0.112,-0.307,-0.942,9.4,8.79,2.14,2,5
17574.281,-0.11,-0.303,-0.941,6.96,7.17,1.95,2,5
17574.296,-0.116,-0.296,-0.935,5.07,5.95,1.71,2,5
17574.296,-0.108,-0.288,-0.935,4.64,4.85,2.47,2,5
17574.312,-0.099,-0.297,-0.943,4.46,4.39,4.09,2,5
17574.328,-0.094,-0.316,-0.938,4.97,4.97,5.8,2,5
17574.328,-0.101,-0.328,-0.931,6.56,5.49,6.84,2,5
17574.343,-0.106,-0.335,-0.938,7.63,5.28,7.97,2,5
17574.343,-0.104,-0.329,-0.939,7.35,4.79,9.25,2,5
17574.359,-0.101,-0.327,-0.934,6.81,4.3,9.61,2,5
17574.375,-0.093,-0.33,-0.926,6.87,3.91,9.55,2,5
17574.375,-0.087,-0.332,-0.928,7.2,3.33,9.34,2,5
17574.39,-0.09,-0.329,-0.932,6.47,2.26,8.45,2,5
17574.406,-0.09,-0.337,-0.935,5.31,1.74,7.81,2,5
17574.421,-0.088,-0.348,-0.943,4.94,1.98,7.32,2,5
17574.421,-0.09,-0.355,-0.939,4.12,2.04,5.43,2,5
17574.437,-0.092,-0.354,-0.939,2.87,1.56,2.59,2,5
17574.437,-0.092,-0.347,-0.937,1.53,0.7,0.12,2,5
17574.453,-0.084,-0.354,-0.929,-0.24,-0.34,-1.62,2,5
17574.468,-0.07,-0.369,-0.921,-0.64,-1.46,-1.77,2,5
17574.468,-0.062,-0.378,-0.931,1.83,-1.86,-0.73,2,5
17574.484,-0.063,-0.368,-0.951,4.7,-1.28,0.27,2,5
17574.484,-0.075,-0.354,-0.962,5.22,-0.06,1.07,2,5
17574.5,-0.084,-0.349,-0.956,4.67,1.34,1.22,2,5
17574.515,-0.083,-0.347,-0.946,4.82,2.32,0.64,2,5
17574.515,-0.087,-0.34,-0.942,5.34,2.59,0.58,2,5
17574.531,-0.076,-0.329,-0.947,4.36,2.01,1.53,2,5
17574.546,-0.058,-0.357,-0.939,2.47,1.43,3.02,2,5
17574.546,-0.057,-0.39,-0.935,3.23,1.62,3.81,2,5
17574.562,-0.061,-0.389,-0.943,5.92,2.29,3.72,2,5
17574.562,-0.061,-0.376,-0.95,6.81,3.36,2.99,2,5
17574.578,-0.061,-0.38,-0.943,5.89,4.33,1.8,2,5
17574.593,-0.059,-0.384,-0.928,5.04,4.36,0.61,2,5
17574.593,-0.061,-0.381,-0.92,5.4,3.66,-0.18,2,5
17574.609,-0.073,-0.36,-0.935,5.98,2.87,-1.1,2,5
17574.625,-0.085,-0.335,-0.946,4.61,2.38,-2.9,2,5
17574.64,-0.097,-0.329,-0.952,0.64,2.11,-5.37,2,5
17574.64,-0.102,-0.329,-0.95,-3.33,1.68,-8.33,2,5
17574.656,-0.106,-0.319,-0.941,-5.46,1.04,-10.28,2,5
17574.656,-0.098,-0.332,-0.932,-6.68,0.18,-9.55,2,5
17574.671,-0.072,-0.366,-0.928,-5.83,-0.82,-5.49,2,5
17574.687,-0.067,-0.395,-0.945,-1.74,-1.31,-0.18,2,5
17574.687,-0.072,-0.399,-0.968,2.38,-1.1,4.55,2,5
17574.703,-0.084,-0.4,-0.979,3.97,-0.12,6.56,2,5
17574.718,-0.105,-0.404,-0.98,4.03,0.61,5.52,2,5
17574.718,-0.112,-0.396,-0.975,3.14,0.12,2.47,2,5
17574.734,-0.115,-0.384,-0.973,1.22,-1.46,-1.77,2,5
17574.734,-0.11,-0.37,-0.969,-1.62,-3.51,-5.68,2,5
17574.75,-0.105,-0.359,-0.962,-3.88,-5.07,-8.27,2,5
17574.765,-0.09,-0.364,-0.948,-4.43,-6.1,-9.22,2,5
17574.765,-0.079,-0.375,-0.933,-2.72,-6.59,-8.51,2,5
17574.781,-0.088,-0.369,-0.934,-0.03,-7.02,-7.45,2,5
17574.796,-0.096,-0.354,-0.935,0.82,-7.93,-6.16,2,5
17574.796,-0.114,-0.359,-0.931,0.52,-8.73,-4.97,2,5
17574.812,-0.121,-0.37,-0.931,0.73,-9.4,-4.43,2,5
17574.828,-0.129,-0.361,-0.937,1.89,-10.28,-4.3,2,5
17574.828,-0.128,-0.347,-0.952,1.98,-11.14,-4.73,2,5
17574.843,-0.119,-0.35,-0.961,1.01,-10.8,-6.53,2,5
17574.859,-0.125,-0.357,-0.96,1.01,-10.01,-7.81,2,5
17574.859,-0.134,-0.356,-0.949,1.19,-9.77,-8.48,2,5
17574.875,-0.15,-0.345,-0.939,1.07,-9.95,-8.45,2,5
17574.875,-0.16,-0.319,-0.921,0.43,-10.41,-7.57,2,5
17574.89,-0.161,-0.313,-0.907,0.64,-11.14,-5.37,2,5
17574.906,-0.171,-0.289,-0.902,1.74,-12.88,-2.44,2,5
17574.921,-0.181,-0.268,-0.917,1.4,-16.14,0.49,2,5
17574.921,-0.192,-0.231,-0.945,-1.01,-20.36,2.01,2,5
17574.937,-0.194,-0.204,-0.963,-6.74,-24.57,3.75,2,5
17574.937,-0.162,-0.224,-0.958,-12.21,-28.78,8.67,2,5
17574.953,-0.095,-0.253,-0.969,-11.6,-31.77,18.22,2,5
17574.968,-0.039,-0.287,-0.998,-5.86,-31.25,31.8,2,5
17574.968,-0.002,-0.344,-1.013,2.14,-26.37,46.63,2,5
17574.984,-0.011,-0.404,-1.013,11.69,-17.37,57.8,2,5
17574.984,-0.052,-0.441,-0.999,18.52,-7.42,63.75,2,5
17575.0,-0.083,-0.443,-0.96,21.0,1.13,64.7,2,5
17575.015,-0.097,-0.427,-0.906,21.24,6.65,60.52,2,5
17575.015,-0.096,-0.397,-0.864,19.2,8.33,52.71,2,5
17575.031,-0.09,-0.37,-0.832,14.77,5.25,43.61,2,5
17575.046,-0.089,-0.354,-0.822,9.0,-0.55,34.7,2,5
17575.046,-0.092,-0.357,-0.833,2.72,-6.56,27.31,2,5
17575.062,-0.099,-0.367,-0.856,-1.46,-10.83,22.1,2,5
17575.078,-0.112,-0.359,-0.887,-2.41,-12.02,18.65,2,5
17575.078,-0.125,-0.353,-0.913,-2.47,-10.65,15.99,2,5
17575.093,-0.153,-0.331,-0.92,-2.53,-8.18,13.46,2,5
17575.109,-0.17,-0.314,-0.906,-3.05,-5.62,13.28,2,5
17575.109,-0.18,-0.302,-0.887,-1.89,-3.33,15.99,2,5
17575.125,-0.191,-0.279,-0.889,1.13,-1.13,20.36,2,5
17575.125,-0.185,-0.272,-0.881,3.17,0.58,26.49,2,5
17575.14,-0.192,-0.281,-0.876,6.56,3.27,33.08,2,5
17575.156,-0.209,-0.307,-0.885,10.9,6.44,38.42,2,5
17575.171,-0.224,-0.324,-0.896,14.62,9.8,42.12,2,5
17575.171,-0.229,-0.344,-0.903,15.56,12.42,42.54,2,5
17575.187,-0.23,-0.389,-0.902,14.92,13.55,38.88,2,5
17575.187,-0.23,-0.407,-0.894,14.1,13.31,31.89,2,5
17575.203,-0.237,-0.403,-0.874,11.44,10.9,22.86,2,5
17575.218,-0.234,-0.404,-0.85,5.92,5.52,12.57,2,5
17575.218,-0.229,-0.429,-0.843,0.06,-1.71,3.54,2,5
17575.234,-0.241,-0.425,-0.847,-4.09,-8.51,-2.9,2,5
17575.234,-0.218,-0.424,-0.85,-6.47,-14.47,-5.89,2,5
17575.25,-0.181,-0.416,-0.858,-5.62,-18.49,-7.78,2,5
17575.265,-0.181,-0.39,-0.884,-3.75,-20.17,-9.98,2,5
17575.281,-0.183,-0.378,-0.885,-4.76,-20.91,-12.73,2,5
17575.281,-0.204,-0.38,-0.88,-6.35,-21.21,-16.39,2,5
17575.296,-0.211,-0.388,-0.883,-7.23,-21.7,-18.62,2,5
17575.296,-0.185,-0.39,-0.882,-7.05,-21.64,-19.2,2,5
17575.312,-0.154,-0.396,-0.881,-5.07,-20.75,-17.55,2,5
17575.328,-0.121,-0.389,-0.885,-1.77,-19.5,-14.59,2,5
17575.328,-0.102,-0.376,-0.897,0.82,-18.56,-11.51,2,5
17575.343,-0.101,-0.373,-0.906,1.98,-17.91,-8.97,2,5
17575.359,-0.114,-0.363,-0.923,2.66,-18.04,-7.6,2,5
17575.359,-0.118,-0.338,-0.954,1.68,-19.1,-7.51,2,5
17575.375,-0.102,-0.323,-0.973,-1.89,-20.08,-9.0,2,5
17575.375,-0.088,-0.324,-0.974,-5.1,-20.39,-11.87,2,5
17575.39,-0.081,-0.338,-0.973,-6.35,-20.29,-12.94,2,5
17575.406,-0.085,-0.34,-0.977,-5.83,-18.92,-12.33,2,5
17575.406,-0.102,-0.353,-0.974,-4.79,-16.51,-10.86,2,5
17575.421,-0.123,-0.362,-0.972,-4.15,-13.7,-10.32,2,5
17575.437,-0.142,-0.37,-0.962,-3.2,-10.16,-9.89,2,5
17575.437,-0.166,-0.37,-0.935,-1.83,-6.47,-9.83,2,5
17575.453,-0.2,-0.371,-0.908,-0.67,-3.75,-10.19,2,5
17575.468,-0.224,-0.377,-0.888,0.03,-3.27,-10.01,2,5
17575.468,-0.256,-0.383,-0.885,1.43,-4.43,-9.4,2,5
17575.484,-0.281,-0.369,-0.898,2.69,-6.44,-9.28,2,5
17575.484,-0.293,-0.36,-0.915,1.59,-8.12,-10.04,2,5
17575.5,-0.298,-0.377,-0.924,-0.12,-9.03,-11.44,2,5
17575.515,-0.296,-0.387,-0.927,-0.7,-8.91,-12.42,2,5
17575.515,-0.295,-0.39,-0.923,-0.21,-7.84,-12.6,2,5
17575.531,-0.305,-0.385,-0.907,1.25,-6.16,-12.79,2,5
17575.546,-0.312,-0.382,-0.879,1.83,-5.83,-14.01,2,5
17575.546,-0.312,-0.372,-0.857,1.07,-7.97,-16.17,2,5
17575.562,-0.319,-0.352,-0.835,-1.34,-12.02,-19.29,2,5
17575.578,-0.315,-0.357,-0.823,-4.61,-17.52,-21.76,2,5
17575.578,-0.306,-0.349,-0.824,-7.05,-23.29,-23.47,2,5
17575.593,-0.281,-0.346,-0.837,-8.94,-29.42,-25.57,2,5
17575.609,-0.264,-0.352,-0.86,-10.74,-34.82,-28.87,2,5
17575.609,-0.259,-0.356,-0.877,-13.0,-38.88,-33.88,2,5
17575.625,-0.268,-0.362,-0.894,-17.15,-42.02,-41.6,2,5
17575.64,-0.295,-0.368,-0.905,-22.74,-43.82,-49.75,2,5
17575.64,-0.304,-0.363,-0.906,-27.89,-44.77,-55.67,2,5
17575.656,-0.287,-0.363,-0.902,-29.76,-44.95,-57.62,2,5
17575.656,-0.258,-0.332,-0.915,-26.61,-43.82,-55.48,2,5
17575.671,-0.245,-0.279,-0.939,-21.94,-41.78,-51.7,2,5
17575.687,-0.258,-0.267,-0.945,-19.87,-39.09,-46.17,2,5
17575.687,-0.284,-0.273,-0.926,-17.88,-35.43,-39.16,2,5
17575.703,-0.325,-0.279,-0.887,-14.31,-31.77,-32.78,2,5
17575.718,-0.349,-0.282,-0.85,-10.56,-30.0,-26.4,2,5
17575.718,-0.373,-0.275,-0.824,-6.87,-30.15,-20.23,2,5
17575.734,-0.396,-0.278,-0.8,-4.24,-32.84,-14.19,2,5
17575.75,-0.401,-0.308,-0.787,-1.31,-36.93,-8.09,2,5
17575.75,-0.425,-0.323,-0.789,3.94,-40.68,-2.72,2,5
17575.765,-0.439,-0.331,-0.82,8.82,-43.64,0.89,2,5
17575.765,-0.46,-0.328,-0.861,11.2,-44.83,3.05,2,5
17575.781,-0.478,-0.306,-0.88,10.13,-43.67,4.82,2,5
17575.796,-0.491,-0.292,-0.882,6.68,-42.15,3.23,2,5
17575.796,-0.504,-0.301,-0.864,1.01,-41.51,-1.07,2,5
17575.812,-0.509,-0.316,-0.836,-3.6,-42.36,-4.91,2,5
17575.828,-0.505,-0.329,-0.823,-4.24,-49.65,-8.94,2,5
17575.828,-0.496,-0.34,-0.845,-4.21,-53.29,-10.07,2,5
17575.843,-0.503,-0.333,-0.876,-5.58,-55.12,-12.82,2,5
17575.843,-0.512,-0.32,-0.897,-8.3,-55.73,-17.4,2,5
17575.859,-0.543,-0.284,-0.902,-11.9,-56.09,-21.91,2,5
17575.875,-0.566,-0.251,-0.882,-15.38,-56.0,-25.24,2,5
17575.875,-0.591,-0.248,-0.858,-18.13,-56.15,-25.54,2,5
17575.89,-0.602,-0.249,-0.839,-18.86,-57.31,-22.86,2,5
17575.906,-0.598,-0.257,-0.844,-15.96,-59.79,-17.09,2,5
17575.906,-0.599,-0.243,-0.874,-11.63,-61.71,-9.28,2,5
17575.921,-0.599,-0.23,-0.894,-8.82,-62.2,-2.26,2,5
17575.937,-0.593,-0.247,-0.901,-8.55,-61.62,2.35,2,5
17575.937,-0.594,-0.268,-0.89,-9.4,-61.13,4.85,2,5
17575.953,-0.615,-0.276,-0.873,-9.58,-60.82,6.74,2,5
17575.968,-0.634,-0.276,-0.856,-9.83,-61.83,8.64,2,5
17575.968,-0.637,-0.29,-0.843,-10.22,-63.69,12.51,2,5
17575.984,-0.637,-0.276,-0.842,-8.73,-67.35,16.08,2,5
17575.984,-0.657,-0.277,-0.855,-6.59,-70.59,20.08,2,5
17576.0,-0.638,-0.286,-0.887,-5.49,-73.64,26.12,2,5
17576.015,-0.641,-0.288,-0.912,-4.55,-74.28,30.21,2,5
17576.015,-0.622,-0.309,-0.912,-4.85,-73.76,32.87,2,5
17576.031,-0.632,-0.313,-0.897,-5.86,-72.66,32.5,2,5
17576.046,-0.637,-0.334,-0.879,-5.62,-71.72,32.81,2,5
17576.062,-0.633,-0.335,-0.865,-4.79,-72.63,32.84,2,5
17576.062,-0.648,-0.342,-0.85,-3.69,-74.22,31.31,2,5
17576.078,-0.659,-0.335,-0.833,-4.21,-77.61,28.35,2,5
17576.078,-0.672,-0.337,-0.806,-6.29,-82.09,25.36,2,5
17576.093,-0.676,-0.331,-0.773,-8.3,-88.56,22.98,2,5
17576.109,-0.667,-0.314,-0.755,-10.13,-97.9,21.24,2,5
17576.109,-0.643,-0.303,-0.765,-13.25,-108.95,22.03,2,5
17576.125,-0.62,-0.327,-0.806,-15.44,-117.47,24.54,2,5
17576.14,-0.6,-0.353,-0.869,-13.89,-121.43,27.1,2,5
17576.14,-0.586,-0.358,-0.917,-9.34,-117.86,29.08,2,5
17576.156,-0.582,-0.35,-0.942,-5.58,-107.79,29.3,2,5
17576.156,-0.59,-0.332,-0.928,-5.04,-95.8,26.55,2,5
17576.171,-0.62,-0.32,-0.862,-8.24,-85.6,22.95,2,5
17576.187,-0.65,-0.317,-0.783,-11.78,-80.87,21.15,2,5
17576.187,-0.671,-0.311,-0.719,-13.09,-81.45,21.58,2,5
17576.203,-0.69,-0.302,-0.692,-12.63,-85.09,23.99,2,5
17576.218,-0.701,-0.293,-0.696,-11.93,-89.11,27.99,2,5
17576.218,-0.699,-0.291,-0.721,-10.22,-91.59,30.95,2,5
17576.234,-0.702,-0.295,-0.736,-6.29,-91.04,31.62,2,5
17576.234,-0.715,-0.281,-0.741,-3.66,-86.98,31.1,2,5
17576.25,-0.724,-0.289,-0.743,-3.33,-80.6,30.18,2,5
17576.265,-0.729,-0.294,-0.738,-2.69,-72.76,28.41,2,5
17576.265,-0.74,-0.289,-0.73,-2.5,-64.79,26.55,2,5
17576.281,-0.76,-0.275,-0.707,-3.88,-57.83,23.68,2,5
17576.296,-0.787,-0.266,-0.673,-5.1,-52.98,20.57,2,5
17576.296,-0.802,-0.25,-0.634,-6.16,-50.08,18.52,2,5
17576.312,-0.805,-0.231,-0.599,-6.99,-49.29,17.06,2,5
17576.328,-0.813,-0.229,-0.576,-7.29,-50.69,16.3,2,5
17576.328,-0.82,-0.233,-0.564,-7.05,-52.89,16.48,2,5
17576.343,-0.821,-0.237,-0.552,-6.59,-55.42,15.69,2,5
17576.359,-0.822,-0.241,-0.55,-7.11,-57.77,12.94,2,5
17576.359,-0.837,-0.237,-0.553,-9.09,-59.42,8.48,2,5
17576.375,-0.843,-0.233,-0.554,-12.79,-61.13,3.97,2,5
17576.375,-0.831,-0.228,-0.559,-16.79,-62.5,1.07,2,5
17576.39,-0.802,-0.245,-0.568,-17.46,-62.44,1.37,2,5
17576.406,-0.791,-0.226,-0.583,-13.95,-60.67,2.87,2,5
17576.421,-0.77,-0.226,-0.587,-8.76,-56.37,7.26,2,5
17576.421,-0.778,-0.227,-0.585,-3.2,-50.02,11.38,2,5
17576.437,-0.8,-0.208,-0.575,0.7,-45.2,12.45,2,5
17576.437,-0.822,-0.198,-0.555,0.15,-41.72,11.9,2,5
17576.453,-0.824,-0.19,-0.521,-3.48,-41.05,9.74,2,5
17576.468,-0.834,-0.199,-0.499,-6.71,-41.78,8.0,2,5
17576.468,-0.833,-0.186,-0.485,-8.7,-43.64,7.75,2,5
17576.484,-0.809,-0.178,-0.479,-9.16,-45.69,8.64,2,5
17576.484,-0.808,-0.198,-0.461,-8.03,-43.49,10.99,2,5
17576.5,-0.838,-0.199,-0.469,-3.94,-45.96,13.31,2,5
17576.515,-0.838,-0.181,-0.468,-0.52,-47.52,14.77,2,5
17576.515,-0.85,-0.167,-0.473,-0.73,-46.6,15.02,2,5
17576.531,-0.851,-0.164,-0.467,-2.59,-46.51,14.65,2,5
17576.546,-0.846,-0.169,-0.461,-4.94,-46.72,13.86,2,5
17576.546,-0.854,-0.186,-0.437,-6.04,-45.11,13.49,2,5
17576.562,-0.874,-0.189,-0.424,-4.39,-43.18,13.43,2,5
17576.578,-0.889,-0.175,-0.414,-2.84,-42.12,13.58,2,5
17576.578,-0.923,-0.165,-0.398,-2.99,-41.23,13.12,2,5
17576.593,-0.934,-0.156,-0.381,-5.04,-41.81,12.21,2,5
17576.609,-0.931,-0.155,-0.36,-7.63,-42.42,10.96,2,5
17576.609,-0.938,-0.138,-0.35,-8.73,-43.98,9.86,2,5
17576.625,-0.909,-0.146,-0.343,-8.73,-45.99,10.53,2,5
17576.625,-0.919,-0.141,-0.337,-8.15,-47.0,11.75,2,5
17576.64,-0.921,-0.164,-0.337,-5.89,-49.65,13.92,2,5
17576.656,-0.916,-0.163,-0.346,-3.97,-50.78,14.44,2,5
17576.656,-0.912,-0.17,-0.355,-3.81,-50.6,14.31,2,5
17576.671,-0.908,-0.174,-0.357,-4.52,-48.34,13.98,2,5
17576.687,-0.911,-0.181,-0.354,-4.73,-44.95,13.61,2,5
17576.687,-0.919,-0.18,-0.339,-4.18,-41.99,12.67,2,5
17576.703,-0.928,-0.166,-0.319,-3.08,-39.09,11.87,2,5
17576.718,-0.961,-0.158,-0.307,-3.23,-38.73,10.07,2,5
17576.718,-0.966,-0.136,-0.28,-5.13,-37.51,8.42,2,5
17576.734,-0.983,-0.156,-0.257,-6.93,-40.01,7.05,2,5
17576.734,-0.985,-0.156,-0.239,-6.62,-42.36,6.93,2,5
17576.75,-0.986,-0.145,-0.23,-5.1,-44.31,7.05,2,5
17576.765,-0.995,-0.148,-0.23,-4.12,-45.59,8.21,2,5
17576.765,-0.986,-0.142,-0.23,-3.42,-46.97,9.89,2,5
17576.781,-0.98,-0.151,-0.231,-2.56,-48.01,10.74,2,5
17576.796,-0.981,-0.168,-0.239,-1.01,-48.52,11.47,2,5
17576.796,-0.977,-0.171,-0.256,0.73,-48.31,12.27,2,5
17576.812,-0.964,-0.163,-0.274,2.32,-44.4,12.42,2,5
17576.828,-0.949,-0.173,-0.277,2.04,-41.08,11.96,2,5
17576.828,-0.953,-0.171,-0.271,3.2,-37.2,10.74,2,5
17576.843,-0.961,-0.155,-0.24,3.02,-33.6,9.28,2,5
17576.859,-0.963,-0.156,-0.222,2.56,-31.65,7.81,2,5
17576.859,-0.964,-0.145,-0.204,3.17,-30.85,6.81,2,5
17576.875,-0.962,-0.137,-0.195,3.63,-31.01,6.84,2,5
17576.875,-0.965,-0.122,-0.186,3.81,-31.62,6.93,2,5
17576.89,-0.976,-0.106,-0.178,3.63,-32.14,7.08,2,5
17576.906,-0.99,-0.095,-0.168,2.32,-32.93,6.81,2,5
17576.906,-0.992,-0.081,-0.155,1.01,-34.21,6.65,2,5
17576.921,-0.994,-0.066,-0.142,0.27,-36.16,6.78,2,5
17576.937,-0.995,-0.072,-0.135,0.67,-38.39,8.12,2,5
17576.937,-0.984,-0.064,-0.141,2.11,-40.44,10.41,2,5
17576.953,-0.982,-0.057,-0.149,3.63,-42.05,12.42,2,5
17576.968,-0.981,-0.053,-0.154,3.54,-42.33,13.95,2,5
17576.968,-0.977,-0.06,-0.152,2.75,-41.54,15.47,2,5
17576.984,-0.978,-0.061,-0.146,2.62,-40.07,16.51,2,5
17576.984,-0.991,-0.056,-0.141,2.72,-38.7,16.94,2,5
17577.0,-0.982,-0.052,-0.13,2.29,-37.6,17.76,2,5
17577.015,-0.982,-0.053,-0.116,2.01,-36.56,18.37,2,5
17577.015,-0.979,-0.046,-0.103,2.47,-36.1,18.16,2,5
17577.031,-0.992,-0.041,-0.093,3.14,-35.1,17.67,2,5
17577.046,-1.013,-0.041,-0.076,3.02,-34.42,18.04,2,5
17577.046,-1.013,-0.029,-0.067,2.56,-34.49,18.62,2,5
17577.062,-1.001,-0.033,-0.054,2.81,-34.91,19.56,2,5
17577.078,-1.006,-0.026,-0.049,3.81,-38.21,19.38,2,5
17577.078,-0.985,-0.022,-0.04,3.85,-41.26,20.02,2,5
17577.093,-0.989,-0.02,-0.027,3.08,-43.37,20.26,2,5
17577.093,-0.989,-0.035,-0.013,2.11,-47.15,19.99,2,5
17577.109,-0.989,-0.055,-0.004,1.5,-51.12,18.65,2,5
17577.125,-0.991,-0.063,-0.005,0.67,-54.84,15.35,2,5
17577.125,-0.983,-0.062,-0.013,-1.46,-58.17,10.1,2,5
17577.14,-0.973,-0.053,-0.015,-6.16,-58.38,4.61,2,5
17577.156,-0.974,-0.065,-0.012,-10.28,-56.4,-0.31,2,5
17577.171,-0.968,-0.078,0.004,-12.79,-54.6,-4.79,2,5
17577.171,-0.972,-0.082,0.009,-13.86,-52.43,-8.82,2,5
17577.187,-0.966,-0.081,0.007,-13.98,-51.21,-11.99,2,5
17577.187,-0.945,-0.071,-0.005,-14.04,-50.48,-13.92,2,5
17577.203,-0.934,-0.054,-0.012,-15.17,-48.86,-15.69,2,5
17577.218,-0.944,-0.054,-0.007,-17.0,-45.78,-16.79,2,5
17577.218,-0.962,-0.063,0.011,-17.52,-40.83,-16.57,2,5
17577.234,-0.982,-0.071,0.039,-14.56,-35.22,-14.47,2,5
17577.25,-0.998,-0.054,0.071,-9.67,-31.07,-11.57,2,5
17577.25,-0.993,-0.031,0.098,-5.74,-29.73,-8.27,2,5
17577.265,-0.985,-0.023,0.115,-3.72,-30.73,-4.85,2,5
17577.265,-0.985,-0.033,0.121,-2.35,-32.69,-0.61,2,5
17577.281,-0.982,-0.044,0.123,-1.19,-35.46,3.72,2,5
17577.296,-0.992,-0.056,0.115,-0.24,-37.93,6.74,2,5
17577.312,-0.999,-0.052,0.102,-0.43,-38.33,8.76,2,5
17577.312,-0.999,-0.05,0.098,-1.77,-36.41,9.13,2,5
17577.328,-1.011,-0.066,0.108,-3.17,-34.58,7.63,2,5
17577.328,-1.014,-0.062,0.125,-4.09,-32.32,6.78,2,5
17577.343,-1.0,-0.039,0.125,-3.45,-32.62,5.62,2,5
17577.359,-0.991,-0.027,0.109,-2.81,-33.81,4.3,2,5
17577.359,-0.97,-0.022,0.101,-4.39,-35.22,4.49,2,5
17577.375,-0.952,-0.03,0.103,-5.31,-35.8,5.71,2,5
17577.375,-0.956,-0.043,0.103,-3.78,-34.21,8.21,2,5
17577.39,-0.949,-0.038,0.115,-1.74,-32.01,10.8,2,5
17577.406,-0.965,-0.038,0.13,0.21,-29.24,13.28,2,5
17577.421,-0.983,-0.037,0.149,1.28,-26.34,15.84,2,5
17577.421,-0.978,-0.032,0.161,2.47,-24.99,17.37,2,5
17577.437,-0.98,-0.019,0.165,3.05,-25.03,17.12,2,5
17577.437,-0.988,-0.015,0.181,2.2,-24.84,16.11,2,5
17577.453,-0.974,-0.017,0.195,0.61,-25.57,15.26,2,5
17577.468,-0.976,-0.012,0.194,-0.31,-26.7,14.62,2,5
17577.468,-0.973,-0.01,0.201,-0.82,-27.53,14.25,2,5
17577.484,-0.959,-0.018,0.207,-0.95,-28.87,14.53,2,5
17577.484,-0.944,-0.011,0.198,-0.61,-30.88,14.59,2,5
17577.5,-0.929,-0.001,0.186,-0.55,-32.84,13.52,2,5
17577.515,-0.907,0.009,0.178,-2.14,-34.73,12.63,2,5
17577.515,-0.881,0.005,0.176,-3.6,-36.13,12.82,2,5
17577.531,-0.885,-0.002,0.17,-3.45,-36.26,14.1,2,5
17577.546,-0.907,-0.009,0.169,-1.92,-33.66,17.15,2,5
17577.562,-0.895,-0.004,0.174,0.67,-30.12,20.14,2,5
17577.562,-0.879,0.021,0.177,3.14,-27.04,20.91,2,5
17577.578,-0.888,0.032,0.184,3.11,-23.9,21.0,2,5
17577.578,-0.902,0.023,0.21,1.56,-20.57,22.64,2,5
17577.593,-0.906,0.011,0.238,2.44,-17.67,25.82,2,5
17577.609,-0.922,0.007,0.267,5.43,-15.11,28.81,2,5
17577.609,-0.942,0.012,0.289,8.15,-14.25,30.85,2,5
17577.625,-0.924,0.017,0.297,9.74,-15.72,31.19,2,5
17577.625,-0.919,0.028,0.288,9.37,-17.27,28.14,2,5
17577.64,-0.925,0.017,0.29,6.41,-19.14,23.74,2,5
17577.656,-0.913,0.013,0.296,0.95,-22.06,19.17,2,5
17577.656,-0.9,0.008,0.298,-3.39,-24.96,14.01,2,5
17577.671,-0.882,0.012,0.298,-5.8,-27.22,8.97,2,5
17577.687,-0.876,0.024,0.293,-6.78,-27.83,5.92,2,5
17577.687,-0.876,0.045,0.284,-6.01,-26.83,4.85,2,5
17577.703,-0.868,0.065,0.272,-4.79,-25.12,5.86,2,5
17577.718,-0.876,0.074,0.275,-4.03,-22.77,8.91,2,5
17577.718,-0.9,0.068,0.294,-2.66,-19.65,14.13,2,5
17577.734,-0.901,0.055,0.318,-0.18,-17.18,19.59,2,5
17577.75,-0.904,0.047,0.333,3.54,-15.96,23.07,2,5
17577.75,-0.886,0.055,0.339,5.71,-16.45,24.93,2,5
17577.765,-0.863,0.048,0.344,5.1,-18.22,25.42,2,5
17577.765,-0.846,0.029,0.34,2.56,-20.94,24.35,2,5
17577.781,-0.833,0.015,0.328,-0.64,-23.83,22.37,2,5
17577.796,-0.83,-0.004,0.32,-3.17,-26.49,16.02,2,5
17577.812,-0.8,-0.009,0.302,-2.75,-25.85,10.77,2,5
17577.812,-0.788,0.005,0.275,-3.39,-23.59,5.58,2,5
17577.828,-0.794,0.024,0.26,-5.1,-20.26,1.86,2,5
17577.828,-0.788,0.033,0.284,-5.19,-16.3,0.12,2,5
17577.843,-0.812,0.036,0.307,-3.14,-12.18,0.18,2,5
17577.859,-0.818,0.052,0.329,-1.1,-10.22,0.09,2,5
17577.859,-0.836,0.059,0.344,-0.43,-10.25,-0.52,2,5
17577.875,-0.841,0.058,0.356,-1.46,-11.84,-0.98,2,5
17577.875,-0.83,0.056,0.361,-2.93,-13.95,-1.89,2,5
17577.89,-0.848,0.047,0.367,-3.57,-15.47,-2.44,2,5
17577.906,-0.861,0.041,0.376,-3.02,-16.57,-2.44,2,5
17577.921,-0.866,0.049,0.37,-1.83,-17.58,-3.54,2,5
17577.921,-0.872,0.074,0.35,-2.72,-18.52,-6.26,2,5
17577.937,-0.869,0.079,0.343,-6.74,-19.35,-8.12,2,5
17577.937,-0.867,0.067,0.353,-10.99,-19.35,-8.42,2,5
17577.953,-0.865,0.064,0.352,-10.62,-19.04,-7.87,2,5
17577.968,-0.876,0.084,0.346,-7.75,-17.76,-6.47,2,5
17577.968,-0.912,0.095,0.349,-5.31,-14.98,-4.24,2,5
17577.984,-0.94,0.106,0.365,-3.6,-12.12,-2.32,2,5
17577.984,-0.965,0.113,0.387,-2.14,-9.77,-0.21,2,5
17578.0,-0.999,0.124,0.417,-0.21,-8.18,2.32,2,5
17578.015,-0.991,0.136,0.44,2.2,-8.67,5.8,2,5
17578.015,-1.017,0.137,0.454,4.94,-10.22,8.67,2,5
17578.031,-1.053,0.123,0.471,6.62,-12.51,10.53,2,5
17578.046,-1.041,0.113,0.474,6.78,-16.54,9.19,2,5
17578.046,-1.031,0.107,0.46,5.07,-21.0,5.65,2,5
17578.062,-1.006,0.115,0.45,0.21,-25.51,2.41,2,5
17578.078,-0.936,0.126,0.434,-5.92,-30.76,0.49,2,5
17578.078,-0.86,0.125,0.406,-10.35,-34.73,0.43,2,5
17578.093,-0.783,0.12,0.373,-12.42,-37.08,1.74,2,5
17578.093,-0.724,0.098,0.336,-12.97,-37.14,4.79,2,5
17578.109,-0.699,0.051,0.323,-11.35,-32.96,9.0,2,5
17578.125,-0.714,0.007,0.315,-6.53,-25.48,12.45,2,5
17578.14,-0.714,-0.021,0.321,-1.4,-17.0,13.89,2,5
17578.14,-0.714,-0.03,0.343,1.95,-8.94,11.63,2,5
17578.156,-0.736,-0.038,0.371,3.57,-2.29,6.56,2,5
17578.156,-0.768,-0.029,0.401,3.39,1.86,0.12,2,5
17578.171,-0.82,-0.024,0.447,1.5,3.54,-7.48,2,5
17578.187,-0.867,-0.014,0.491,-0.98,2.41,-15.26,2,5
17578.187,-0.859,0.024,0.509,-3.54,-2.14,-21.03,2,5
17578.203,-0.847,0.051,0.511,-5.62,-8.36,-23.65,2,5
17578.203,-0.845,0.068,0.494,-6.68,-15.14,-23.29,2,5
17578.218,-0.851,0.08,0.463,-7.51,-20.54,-21.58,2,5
17578.234,-0.889,0.069,0.448,-8.09,-21.45,-19.01,2,5
17578.234,-0.908,0.053,0.44,-6.38,-18.98,-16.24,2,5
17578.25,-0.897,0.069,0.424,-2.56,-15.35,-14.47,2,5
17578.265,-0.868,0.106,0.41,-0.58,-12.39,-13.28,2,5
17578.265,-0.851,0.133,0.41,-1.43,-10.5,-11.78,2,5
17578.281,-0.844,0.134,0.419,-3.42,-10.25,-9.92,2,5
17578.296,-0.87,0.103,0.443,-4.76,-10.22,-7.05,2,5
17578.312,-0.877,0.074,0.458,-3.57,-10.65,-3.91,2,5
17578.312,-0.89,0.057,0.461,-0.34,-10.62,-1.8,2,5
17578.328,-0.891,0.072,0.452,1.4,-10.38,-0.95,2,5
17578.328,-0.855,0.104,0.436,-0.09,-10.65,-1.07,2,5
17578.343,-0.799,0.115,0.429,-2.87,-11.66,0.15,2,5
17578.359,-0.763,0.114,0.419,-4.36,-12.73,2.99,2,5
17578.359,-0.8,0.079,0.416,-2.96,-11.32,7.51,2,5
17578.375,-0.877,0.025,0.437,0.34,-6.74,12.94,2,5
17578.375,-0.904,-0.006,0.457,6.53,-1.71,16.33,2,5
17578.39,-0.892,0.032,0.455,12.09,0.95,14.83,2,5
17578.406,-0.847,0.083,0.455,10.22,0.37,11.23,2,5
17578.421,-0.77,0.111,0.448,2.75,-4.09,7.97,2,5
17578.421,-0.732,0.103,0.426,-3.54,-9.31,5.98,2,5
17578.437,-0.773,0.057,0.422,-6.9,-10.96,7.14,2,5
17578.437,-0.821,0.0,0.429,-5.07,-8.18,11.29,2,5
17578.453,-0.855,-0.03,0.434,3.08,-2.08,14.62,2,5
17578.468,-0.854,-0.003,0.433,11.23,4.09,14.07,2,5
17578.468,-0.859,0.047,0.438,12.94,8.51,9.09,2,5
17578.484,-0.856,0.07,0.46,7.75,9.89,2.87,2,5
17578.484,-0.858,0.07,0.487,1.37,8.27,-2.41,2,5
17578.5,-0.858,0.067,0.504,-2.47,4.33,-5.83,2,5
17578.515,-0.863,0.065,0.513,-3.6,0.37,-6.38,2,5
17578.515,-0.865,0.064,0.499,-2.29,-2.62,-4.76,2,5
17578.531,-0.858,0.073,0.476,-0.4,-4.94,-2.96,2,5
17578.546,-0.845,0.074,0.457,-0.06,-5.89,-1.53,2,5
17578.562,-0.834,0.08,0.435,-0.4,-5.86,-1.77,2,5
17578.562,-0.845,0.078,0.423,-1.13,-4.15,-2.99,2,5
17578.578,-0.86,0.069,0.428,-2.17,-1.04,-4.55,2,5
17578.578,-0.892,0.069,0.448,-1.46,2.59,-6.9,2,5
17578.593,-0.917,0.082,0.471,-0.58,5.65,-9.03,2,5
17578.609,-0.91,0.099,0.498,-1.16,6.74,-10.01,2,5
17578.609,-0.884,0.113,0.516,-2.11,5.13,-9.58,2,5
17578.625,-0.874,0.125,0.522,-2.84,1.5,-7.42,2,5
17578.625,-0.877,0.12,0.512,-3.36,-2.44,-3.66,2,5
17578.64,-0.888,0.092,0.5,-3.39,-4.97,0.98,2,5
17578.656,-0.888,0.061,0.492,-1.56,-5.89,4.94,2,5
17578.656,-0.866,0.054,0.478,0.98,-5.8,6.5,2,5
17578.671,-0.846,0.051,0.462,1.65,-5.22,4.91,2,5
17578.687,-0.841,0.045,0.453,-0.06,-4.36,1.5,2,5
17578.703,-0.847,0.037,0.458,-2.93,-3.51,-1.83,2,5
17578.703,-0.858,0.025,0.474,-4.85,-2.29,-3.94,2,5
17578.718,-0.849,0.013,0.481,-3.81,-1.71,-5.07,2,5
17578.718,-0.848,0.027,0.478,-1.4,-1.89,-6.71,2,5
17578.734,-0.864,0.041,0.478,-0.79,-2.26,-8.3,2,5
17578.734,-0.865,0.05,0.476,-1.83,-3.02,-9.37,2,5
17578.75,-0.857,0.063,0.475,-3.2,-3.75,-10.47,2,5
17578.765,-0.873,0.06,0.489,-4.61,-3.88,-11.23,2,5
17578.765,-0.871,0.052,0.5,-2.5,-4.43,-9.4,2,5
17578.781,-0.862,0.06,0.493,-1.22,-5.55,-7.84,2,5
17578.796,-0.853,0.073,0.477,-2.26,-7.23,-6.1,2,5
17578.796,-0.838,0.075,0.465,-3.14,-8.3,-4.3,2,5
17578.812,-0.843,0.052,0.454,-2.69,-7.48,-2.5,2,5
17578.828,-0.848,0.039,0.458,-1.37,-4.85,-1.04,2,5
17578.828,-0.849,0.029,0.468,0.76,-1.62,0.21,2,5
17578.843,-0.842,0.03,0.47,3.3,0.7,0.92,2,5
17578.843,-0.84,0.042,0.463,4.7,1.62,0.34,2,5
17578.859,-0.84,0.053,0.461,2.84,1.16,-1.34,2,5
17578.875,-0.841,0.044,0.472,-0.73,0.27,-2.81,2,5
17578.875,-0.841,0.024,0.483,-2.44,-0.64,-3.51,2,5
17578.89,-0.85,0.011,0.492,-1.19,-0.79,-3.78,2,5
17578.906,-0.856,0.01,0.488,1.46,-0.55,-2.9,2,5
17578.921,-0.849,0.026,0.475,3.91,-0.52,-2.44,2,5
17578.921,-0.842,0.04,0.458,4.12,-0.95,-2.99,2,5
17578.937,-0.832,0.046,0.447,2.23,-1.16,-4.58,2,5
17578.937,-0.836,0.042,0.446,0.31,-0.64,-7.05,2,5
17578.953,-0.841,0.037,0.45,-0.98,0.34,-8.91,2,5
17578.968,-0.837,0.037,0.456,-0.85,1.22,-10.07,2,5
17578.968,-0.843,0.041,0.461,0.18,1.95,-10.77,2,5
17578.984,-0.842,0.051,0.461,0.79,1.83,-10.62,2,5
17578.984,-0.84,0.058,0.457,0.31,1.16,-10.77,2,5
17579.0,-0.84,0.072,0.449,-1.16,0.27,-11.78,2,5
17579.015,-0.843,0.068,0.45,-3.2,0.18,-12.27,2,5
17579.015,-0.845,0.061,0.454,-4.58,0.46,-11.87,2,5
17579.031,-0.853,0.056,0.462,-4.21,1.43,-11.26,2,5
17579.046,-0.862,0.052,0.474,-3.39,2.56,-10.25,2,5
17579.046,-0.864,0.051,0.487,-2.66,3.36,-7.97,2,5
17579.062,-0.853,0.048,0.494,-1.86,3.17,-4.7,2,5
17579.078,-0.843,0.041,0.5,-0.58,2.53,-1.28,2,5
17579.078,-0.849,0.036,0.486,1.37,1.95,1.46,2,5
17579.093,-0.858,0.035,0.475,2.23,1.98,3.54,2,5
17579.109,-0.856,0.024,0.471,1.04,2.14,4.88,2,5
17579.109,-0.861,0.006,0.471,0.27,2.69,4.36,2,5
17579.125,-0.861,-0.003,0.471,1.16,2.9,2.62,2,5
17579.125,-0.857,0.004,0.469,1.16,2.78,0.31,2,5
17579.14,-0.867,0.003,0.469,-0.27,2.62,-2.66,2,5
17579.156,-0.89,-0.005,0.486,-2.11,2.93,-5.16,2,5
17579.156,-0.896,-0.003,0.501,-2.72,2.72,-7.54,2,5
17579.171,-0.899,0.012,0.498,-2.35,1.8,-9.49,2,5
17579.187,-0.896,0.033,0.496,-2.66,0.15,-9.55,2,5
17579.203,-0.879,0.044,0.492,-3.88,-1.83,-7.87,2,5
17579.203,-0.875,0.036,0.485,-4.12,-3.14,-5.13,2,5
17579.203,-0.886,0.027,0.477,-2.44,-3.11,-1.92,2,5
17579.218,-0.895,0.022,0.471,0.21,-2.04,1.25,2,5
17579.234,-0.886,0.023,0.462,2.26,-0.73,3.48,2,5
17579.234,-0.877,0.027,0.459,3.02,0.43,4.0,2,5
17579.25,-0.87,0.028,0.462,2.17,1.46,3.45,2,5
17579.265,-0.875,0.013,0.473,1.31,2.38,3.05,2,5
17579.265,-0.879,0.001,0.481,1.74,2.62,3.05,2,5
17579.281,-0.87,-0.007,0.484,2.84,2.32,3.11,2,5
17579.296,-0.862,-0.006,0.48,3.88,1.4,2.87,2,5
17579.296,-0.864,-0.001,0.471,4.12,0.18,2.14,2,5
17579.312,-0.866,0.005,0.462,2.96,-0.7,0.09,2,5
17579.328,-0.871,0.011,0.459,1.28,-0.92,-3.02,2,5
17579.328,-0.88,0.017,0.459,0.06,-0.58,-6.32,2,5
17579.343,-0.883,0.036,0.459,-1.01,-0.52,-9.13,2,5
17579.359,-0.891,0.045,0.469,-2.44,-0.79,-10.9,2,5
17579.359,-0.892,0.047,0.479,-3.75,-1.59,-10.9,2,5
17579.375,-0.89,0.043,0.483,-3.63,-2.35,-9.25,2,5
17579.375,-0.885,0.042,0.479,-1.98,-2.84,-6.62,2,5
17579.39,-0.88,0.047,0.471,0.0,-2.87,-3.6,2,5
17579.406,-0.87,0.047,0.46,1.19,-2.75,-0.64,2,5
17579.421,-0.87,0.041,0.459,1.34,-1.77,1.92,2,5
17579.421,-0.871,0.033,0.461,1.53,-0.58,3.54,2,5
17579.437,-0.868,0.026,0.463,1.68,-0.12,4.06,2,5
17579.437,-0.873,0.02,0.467,1.22,-0.15,3.6,2,5
17579.453,-0.871,0.011,0.468,0.49,-0.58,3.08,2,5
17579.468,-0.869,0.001,0.467,0.34,-1.01,2.69,2,5
17579.468,-0.865,-0.0,0.47,0.73,-1.19,2.84,2,5
17579.484,-0.864,0.0,0.468,1.46,-1.25,2.81,2,5
17579.484,-0.861,0.013,0.459,1.83,-1.31,2.08,2,5
17579.5,-0.856,0.018,0.462,0.79,-1.53,0.95,2,5
17579.515,-0.86,0.014,0.469,-1.19,-1.56,-0.18,2,5
17579.515,-0.866,0.006,0.475,-1.92,-1.5,-0.46,2,5
17579.531,-0.861,-0.001,0.478,-1.04,-1.5,0.34,2,5
