timestamp,ax,ay,az,gx,gy,gz,orient_label,motion_label
17551.093,-0.873,0.083,0.473,-0.46,-1.01,-1.07,2,5
17551.109,-0.869,0.077,0.475,-1.07,-2.14,-1.22,2,5
17551.109,-0.866,0.074,0.473,-1.16,-2.99,-0.95,2,5
17551.125,-0.866,0.079,0.467,-0.61,-3.36,-0.82,2,5
17551.125,-0.863,0.08,0.461,-0.58,-3.2,-0.82,2,5
17551.14,-0.858,0.081,0.462,-0.76,-2.87,-0.43,2,5
17551.156,-0.858,0.08,0.458,-0.55,-2.35,-0.43,2,5
17551.156,-0.855,0.079,0.456,-0.92,-1.8,-0.52,2,5
17551.171,-0.852,0.08,0.461,-1.34,-1.16,-0.58,2,5
17551.187,-0.847,0.084,0.463,-1.25,-0.89,-0.55,2,5
17551.187,-0.853,0.088,0.465,-1.25,-0.92,-0.58,2,5
17551.203,-0.856,0.087,0.465,-2.17,-1.25,-0.73,2,5
17551.203,-0.856,0.094,0.469,-3.2,-1.62,-0.79,2,5
17551.218,-0.852,0.087,0.47,-3.69,-1.98,-0.4,2,5
17551.234,-0.845,0.081,0.465,-2.93,-1.98,2.35,2,5
17551.234,-0.843,0.078,0.457,-2.59,-0.85,3.88,2,5
17551.25,-0.85,0.075,0.457,-1.86,0.34,5.13,2,5
17551.265,-0.842,0.075,0.46,-0.27,1.28,5.46,2,5
17551.281,-0.839,0.082,0.457,-0.92,1.01,4.76,2,5
17551.296,-0.845,0.069,0.465,-2.78,0.98,3.94,2,5
17551.296,-0.857,0.049,0.477,-3.2,1.01,3.05,2,5
17551.312,-0.863,0.047,0.485,-1.65,0.79,2.32,2,5
17551.328,-0.86,0.058,0.481,-0.52,0.49,1.83,2,5
17551.328,-0.856,0.061,0.478,-0.92,-0.15,1.01,2,5
17551.343,-0.861,0.067,0.475,-2.11,-1.07,-0.06,2,5
17551.343,-0.862,0.067,0.474,-3.63,-1.86,-1.13,2,5
17551.359,-0.86,0.058,0.477,-4.33,-2.14,-2.11,2,5
17551.375,-0.86,0.055,0.474,-3.42,-2.26,-2.35,2,5
17551.375,-0.854,0.07,0.467,-2.17,-2.5,-2.11,2,5
17551.39,-0.853,0.074,0.464,-1.8,-2.23,-1.5,2,5
17551.406,-0.858,0.064,0.461,-2.17,-1.43,-0.12,2,5
17551.406,-0.858,0.059,0.466,-2.23,-0.55,0.73,2,5
17551.421,-0.861,0.057,0.471,-1.16,0.27,0.92,2,5
17551.437,-0.851,0.078,0.469,0.58,1.16,2.14,2,5
17551.453,-0.852,0.078,0.476,-0.09,0.89,2.29,2,5
17551.453,-0.862,0.073,0.48,-0.67,0.21,2.35,2,5
17551.468,-0.858,0.071,0.474,-0.92,-0.79,2.44,2,5
17551.484,-0.851,0.07,0.47,-1.43,-1.5,2.41,2,5
17551.484,-0.843,0.071,0.468,-2.04,-2.11,2.47,2,5
17551.5,-0.823,0.071,0.463,-2.32,-2.59,2.72,2,5
17551.515,-0.809,0.068,0.455,-2.32,-2.69,3.27,2,5
17551.515,-0.81,0.059,0.451,-2.35,-2.14,3.85,2,5
17551.531,-0.814,0.053,0.45,-2.38,-1.07,4.0,2,5
17551.546,-0.814,0.051,0.455,-2.17,-0.03,3.39,2,5
17551.562,-0.814,0.057,0.456,-2.2,0.34,2.62,2,5
17551.562,-0.809,0.075,0.454,-2.66,-0.4,2.29,2,5
17551.578,-0.799,0.09,0.449,-3.88,-1.65,2.56,2,5
17551.578,-0.785,0.097,0.442,-5.28,-2.87,3.85,2,5
17551.593,-0.775,0.097,0.435,-6.2,-3.48,5.98,2,5
17551.609,-0.749,0.104,0.413,-7.6,-3.94,12.57,2,5
17551.625,-0.726,0.104,0.408,-8.21,-3.57,15.96,2,5
17551.625,-0.696,0.108,0.39,-9.0,-2.9,19.44,2,5
17551.64,-0.682,0.094,0.386,-9.37,-1.4,22.83,2,5
17551.656,-0.679,0.079,0.383,-9.58,0.0,26.03,2,5
17551.656,-0.676,0.06,0.381,-9.22,1.65,28.81,2,5
17551.671,-0.662,0.048,0.377,-8.82,2.53,29.79,2,5
17551.687,-0.638,0.055,0.372,-9.61,2.53,28.57,2,5
17551.687,-0.622,0.064,0.363,-12.76,1.74,25.73,2,5
17551.703,-0.601,0.064,0.359,-17.61,0.49,23.16,2,5
17551.718,-0.58,0.064,0.357,-21.36,-0.61,21.33,2,5
17551.718,-0.568,0.069,0.339,-24.11,-2.08,20.36,2,5
17551.734,-0.574,0.072,0.312,-26.58,-3.3,21.21,2,5
17551.734,-0.598,0.046,0.289,-28.02,-3.81,24.14,2,5
17551.75,-0.584,0.036,0.267,-29.33,-4.76,27.28,2,5
17551.765,-0.549,0.036,0.245,-29.57,-4.15,29.15,2,5
17551.781,-0.543,0.023,0.219,-30.95,3.36,29.11,2,5
17551.796,-0.532,0.005,0.222,-31.43,8.3,28.6,2,5
17551.796,-0.547,-0.009,0.216,-29.91,13.25,27.62,2,5
17551.812,-0.575,-0.012,0.203,-28.84,16.6,27.68,2,5
17551.828,-0.573,0.002,0.199,-30.34,18.04,28.08,2,5
17551.828,-0.576,0.009,0.188,-31.95,19.35,27.68,2,5
17551.843,-0.595,0.008,0.173,-33.08,20.87,27.1,2,5
17551.843,-0.593,0.01,0.166,-34.33,21.27,26.7,2,5
17551.859,-0.578,0.011,0.153,-34.42,22.49,25.97,2,5
17551.875,-0.6,-0.003,0.143,-33.48,26.46,26.52,2,5
17551.875,-0.619,-0.021,0.14,-31.25,30.09,28.14,2,5
17551.89,-0.629,-0.021,0.121,-27.68,32.78,29.15,2,5
17551.906,-0.62,-0.014,0.079,-24.96,34.55,29.45,2,5
17551.906,-0.589,0.011,0.033,-24.9,36.26,27.07,2,5
17551.921,-0.567,0.027,0.007,-27.83,39.61,22.13,2,5
17551.937,-0.585,0.007,-0.007,-31.98,45.47,18.07,2,5
17551.953,-0.599,-0.014,-0.016,-32.32,57.04,12.82,2,5
17551.953,-0.601,-0.005,-0.059,-28.23,61.1,7.05,2,5
17551.968,-0.596,0.009,-0.097,-27.68,66.35,1.56,2,5
17551.984,-0.61,0.02,-0.116,-30.88,74.56,-2.14,2,5
17552.0,-0.665,-0.013,-0.125,-31.46,83.77,-5.22,2,5
17552.0,-0.759,-0.037,-0.147,-28.02,93.02,-6.84,2,5
17552.015,-0.855,-0.053,-0.141,-21.06,103.79,-5.52,2,5
17552.015,-0.904,-0.061,-0.126,-10.93,114.41,-1.43,2,5
17552.031,-0.876,-0.032,-0.124,1.65,123.84,1.68,2,5
17552.046,-0.825,0.02,-0.119,12.42,134.86,3.11,2,5
17552.046,-0.846,0.067,-0.12,18.8,145.91,1.71,2,5
17552.062,-0.942,0.079,-0.131,21.12,152.47,-0.55,2,5
17552.078,-1.034,0.096,-0.139,21.09,153.54,-2.35,2,5
17552.078,-1.118,0.114,-0.141,20.84,151.49,-3.48,2,5
17552.093,-1.195,0.11,-0.143,21.55,146.31,-2.53,2,5
17552.093,-1.218,0.103,-0.14,24.87,138.74,1.01,2,5
17552.109,-1.184,0.115,-0.139,31.25,132.57,4.85,2,5
17552.125,-1.132,0.156,-0.155,37.6,129.43,7.57,2,5
17552.125,-1.127,0.194,-0.19,42.76,127.54,8.42,2,5
17552.14,-1.157,0.238,-0.248,43.49,122.1,7.39,2,5
17552.156,-1.174,0.267,-0.304,40.35,115.91,5.16,2,5
17552.156,-1.225,0.285,-0.345,35.07,109.81,1.43,2,5
17552.171,-1.313,0.279,-0.337,29.76,105.9,-0.64,2,5
17552.187,-1.403,0.251,-0.278,27.28,104.04,3.42,2,5
17552.187,-1.443,0.216,-0.209,30.06,100.38,13.43,2,5
17552.203,-1.418,0.198,-0.151,39.83,92.99,25.64,2,5
17552.218,-1.36,0.21,-0.136,68.73,68.42,47.82,2,5
17552.218,-1.297,0.25,-0.159,78.49,53.8,54.48,2,5
17552.234,-1.222,0.305,-0.209,80.66,39.77,56.95,2,5
17552.234,-1.196,0.342,-0.275,76.88,27.71,56.22,2,5
17552.25,-1.33,0.294,-0.289,72.79,20.05,53.5,2,5
17552.265,-1.388,0.208,-0.208,70.99,17.24,51.15,2,5
17552.281,-1.381,0.148,-0.114,83.25,15.17,40.71,2,5
17552.296,-1.347,0.174,-0.116,93.36,15.84,34.33,2,5
17552.296,-1.318,0.212,-0.133,101.99,16.11,28.99,2,5
17552.312,-1.286,0.248,-0.163,108.01,13.7,24.57,2,5
17552.328,-1.239,0.281,-0.183,111.88,8.88,20.66,2,5
17552.328,-1.216,0.304,-0.193,114.32,1.89,15.78,2,5
17552.343,-1.214,0.314,-0.218,115.7,-6.13,9.8,2,5
17552.359,-1.234,0.317,-0.245,114.93,-12.67,2.56,2,5
17552.359,-1.255,0.311,-0.263,111.33,-15.99,-3.39,2,5
17552.375,-1.261,0.317,-0.281,105.32,-15.75,-7.69,2,5
17552.375,-1.248,0.332,-0.299,97.81,-12.36,-12.12,2,5
17552.39,-1.237,0.327,-0.301,90.21,-4.97,-18.98,2,5
17552.406,-1.224,0.292,-0.289,83.86,5.62,-27.16,2,5
17552.406,-1.216,0.266,-0.274,80.39,17.52,-35.55,2,5
17552.421,-1.215,0.247,-0.266,81.15,28.69,-43.64,2,5
17552.437,-1.223,0.237,-0.257,84.23,38.06,-51.36,2,5
17552.453,-1.242,0.257,-0.26,88.9,50.39,-61.68,2,5
17552.468,-1.236,0.266,-0.263,87.22,53.07,-63.57,2,5
17552.468,-1.228,0.263,-0.251,84.6,54.2,-64.7,2,5
17552.484,-1.222,0.247,-0.244,83.68,54.93,-65.22,2,5
17552.484,-1.212,0.236,-0.253,81.73,54.6,-65.77,2,5
17552.5,-1.202,0.24,-0.276,77.79,54.6,-66.19,2,5
17552.515,-1.192,0.249,-0.286,72.76,55.82,-65.49,2,5
17552.515,-1.176,0.243,-0.31,67.35,58.2,-63.69,2,5
17552.531,-1.165,0.231,-0.315,61.71,61.89,-61.46,2,5
17552.546,-1.157,0.209,-0.307,57.68,66.77,-59.54,2,5
17552.546,-1.15,0.18,-0.294,56.4,71.78,-58.23,2,5
17552.562,-1.147,0.158,-0.291,57.28,76.6,-57.13,2,5
17552.578,-1.15,0.153,-0.28,59.3,80.26,-56.06,2,5
17552.578,-1.165,0.16,-0.237,60.73,82.16,-54.51,2,5
17552.593,-1.16,0.156,-0.127,63.26,83.16,-50.72,2,5
17552.593,-1.169,0.094,-0.106,72.82,79.26,-47.4,2,5
17552.609,-1.18,0.087,-0.15,77.64,72.66,-42.12,2,5
17552.625,-1.159,0.129,-0.108,77.67,64.06,-36.23,2,5
17552.64,-1.158,0.1,-0.066,83.83,55.76,-30.76,2,5
17552.64,-1.173,0.071,-0.072,93.84,47.94,-22.71,2,5
17552.656,-1.168,0.082,-0.092,103.67,39.34,-11.51,2,5
17552.656,-1.146,0.078,-0.106,113.04,30.09,0.15,2,5
17552.671,-1.125,0.056,-0.132,121.1,21.73,10.53,2,5
17552.687,-1.093,0.055,-0.172,124.64,13.76,19.04,2,5
17552.687,-1.071,0.068,-0.227,122.07,5.55,24.57,2,5
17552.703,-1.04,0.054,-0.268,113.28,-1.71,27.44,2,5
17552.703,-1.008,0.045,-0.298,100.07,-7.72,27.07,2,5
17552.718,-0.997,0.037,-0.323,84.93,-12.42,24.75,2,5
17552.734,-0.986,0.011,-0.333,69.92,-17.15,20.84,2,5
17552.75,-0.962,-0.017,-0.327,57.68,-19.07,17.12,2,5
17552.75,-0.956,-0.03,-0.321,49.75,-17.98,13.25,2,5
17552.765,-0.97,-0.022,-0.332,43.67,-21.49,7.08,2,5
17552.765,-0.943,-0.043,-0.336,36.87,-24.84,2.44,2,5
17552.781,-0.939,-0.057,-0.332,30.34,-20.84,-0.15,2,5
17552.796,-0.957,-0.037,-0.343,24.51,-19.84,-2.84,2,5
17552.796,-0.947,-0.044,-0.359,18.59,-23.29,-4.76,2,5
17552.812,-0.944,-0.048,-0.36,13.28,-22.34,-5.28,2,5
17552.828,-0.952,-0.044,-0.364,8.7,-22.1,-6.1,2,5
17552.828,-0.934,-0.064,-0.362,4.97,-20.97,-6.53,2,5
17552.843,-0.94,-0.077,-0.356,3.14,-18.28,-6.81,2,5
17552.843,-0.941,-0.083,-0.352,3.17,-18.07,-6.96,2,5
17552.859,-0.926,-0.094,-0.349,4.82,-18.46,-7.05,2,5
17552.875,-0.919,-0.103,-0.35,7.97,-17.49,-6.38,2,5
17552.875,-0.916,-0.106,-0.355,11.72,-16.11,-5.01,2,5
17552.89,-0.909,-0.1,-0.358,14.59,-14.86,-3.39,2,5
17552.906,-0.903,-0.1,-0.357,16.82,-13.52,-1.68,2,5
17552.906,-0.897,-0.115,-0.363,18.34,-12.18,0.79,2,5
17552.921,-0.891,-0.129,-0.367,19.04,-10.32,3.63,2,5
17552.937,-0.887,-0.137,-0.364,19.35,-8.85,5.28,2,5
17552.953,-0.885,-0.155,-0.368,17.79,-7.26,4.73,2,5
17552.968,-0.889,-0.154,-0.366,14.86,-6.53,2.96,2,5
17552.968,-0.894,-0.154,-0.363,11.14,-6.29,0.89,2,5
17552.984,-0.895,-0.151,-0.369,7.08,-6.5,-1.1,2,5
17552.984,-0.896,-0.152,-0.366,2.99,-6.93,-2.47,2,5
17553.0,-0.905,-0.155,-0.353,-0.15,-7.78,-3.36,2,5
17553.015,-0.907,-0.162,-0.361,-1.65,-9.22,-3.69,2,5
17553.015,-0.907,-0.159,-0.356,-1.8,-9.34,-3.17,2,5
17553.031,-0.913,-0.15,-0.352,-1.28,-9.55,-2.66,2,5
17553.046,-0.91,-0.127,-0.358,-2.29,-9.89,-2.99,2,5
17553.046,-0.907,-0.1,-0.37,-6.65,-9.74,-4.21,2,5
17553.062,-0.917,-0.069,-0.377,-17.09,-9.7,-6.65,2,5
17553.078,-0.931,-0.061,-0.376,-33.39,-11.23,-9.8,2,5
17553.078,-0.936,-0.083,-0.365,-52.22,-14.44,-12.21,2,5
17553.093,-0.937,-0.119,-0.341,-67.93,-18.28,-13.64,2,5
17553.109,-0.929,-0.16,-0.323,-77.15,-22.49,-13.73,2,5
17553.125,-0.915,-0.248,-0.297,-71.75,-27.56,-9.06,2,5
17553.125,-0.909,-0.264,-0.298,-59.36,-28.29,-7.51,2,5
17553.14,-0.907,-0.262,-0.308,-45.01,-27.77,-6.35,2,5
17553.156,-0.901,-0.253,-0.323,-31.56,-26.12,-5.07,2,5
17553.156,-0.889,-0.248,-0.332,-20.33,-23.99,-3.11,2,5
17553.171,-0.883,-0.251,-0.346,-11.44,-21.15,-0.73,2,5
17553.187,-0.879,-0.248,-0.348,-4.55,-17.3,1.53,2,5
17553.187,-0.889,-0.24,-0.354,1.4,-13.28,2.69,2,5
17553.203,-0.896,-0.221,-0.367,-0.79,-7.26,1.13,2,5
17553.203,-0.897,-0.211,-0.364,-6.87,-5.8,-2.44,2,5
17553.218,-0.908,-0.201,-0.362,-14.53,-4.91,-3.94,2,5
17553.234,-0.9,-0.23,-0.337,-21.18,-5.16,-5.46,2,5
17553.25,-0.918,-0.249,-0.324,-22.43,-4.7,-6.07,2,5
17553.25,-0.912,-0.277,-0.313,-19.04,-5.07,-4.52,2,5
17553.265,-0.907,-0.266,-0.306,-11.99,-6.04,-3.6,2,5
17553.265,-0.916,-0.254,-0.312,-3.54,-5.55,-2.04,2,5
17553.281,-0.907,-0.24,-0.316,2.84,-5.34,-0.27,2,5
17553.296,-0.919,-0.22,-0.321,7.45,-4.43,1.07,2,5
17553.296,-0.923,-0.214,-0.327,10.32,-3.94,2.87,2,5
17553.312,-0.917,-0.191,-0.327,11.9,-4.61,3.39,2,5
17553.328,-0.939,-0.175,-0.337,12.51,-4.67,3.51,2,5
17553.328,-0.933,-0.164,-0.335,10.1,-5.07,3.85,2,5
17553.343,-0.945,-0.14,-0.336,7.05,-5.8,2.59,2,5
17553.359,-0.948,-0.139,-0.336,3.48,-6.01,2.69,2,5
17553.359,-0.935,-0.15,-0.327,-0.37,-7.51,3.48,2,5
17553.375,-0.925,-0.172,-0.315,-1.8,-8.24,5.52,2,5
17553.375,-0.92,-0.207,-0.317,0.89,-8.58,9.13,2,5
17553.39,-0.911,-0.223,-0.315,6.16,-8.55,12.51,2,5
17553.406,-0.902,-0.225,-0.319,12.05,-7.81,13.37,2,5
17553.406,-0.9,-0.221,-0.325,15.84,-6.38,12.12,2,5
17553.421,-0.904,-0.207,-0.328,16.45,-4.39,9.7,2,5
17553.437,-0.909,-0.185,-0.327,14.98,-2.59,6.44,2,5
17553.437,-0.918,-0.167,-0.327,11.11,-1.13,3.48,2,5
17553.453,-0.917,-0.155,-0.32,5.31,-0.73,1.31,2,5
17553.453,-0.921,-0.154,-0.312,-0.18,-1.22,0.0,2,5
17553.468,-0.923,-0.157,-0.302,-3.51,-2.32,-0.12,2,5
17553.484,-0.918,-0.17,-0.298,-4.46,-4.3,0.73,2,5
17553.484,-0.916,-0.182,-0.294,-3.17,-5.98,2.01,2,5
17553.5,-0.916,-0.187,-0.296,0.09,-6.9,3.11,2,5
17553.515,-0.921,-0.189,-0.302,3.88,-6.78,3.63,2,5
17553.515,-0.918,-0.187,-0.308,6.93,-5.77,3.97,2,5
17553.531,-0.915,-0.181,-0.31,9.03,-4.49,3.81,2,5
17553.546,-0.91,-0.176,-0.312,10.25,-3.11,3.36,2,5
17553.546,-0.904,-0.175,-0.314,10.47,-1.8,3.2,2,5
17553.562,-0.901,-0.169,-0.315,9.77,-0.76,3.08,2,5
17553.562,-0.898,-0.168,-0.316,8.45,-0.31,2.93,2,5
17553.578,-0.9,-0.173,-0.314,7.2,-0.12,2.87,2,5
17553.593,-0.906,-0.179,-0.313,6.2,0.4,2.47,2,5
17553.609,-0.909,-0.178,-0.309,5.25,1.46,1.71,2,5
17553.609,-0.911,-0.177,-0.307,4.33,2.26,0.79,2,5
17553.625,-0.91,-0.175,-0.305,3.14,2.75,-0.06,2,5
17553.625,-0.909,-0.179,-0.298,2.11,2.87,-0.85,2,5
17553.64,-0.913,-0.188,-0.289,2.44,2.44,-0.7,2,5
17553.656,-0.915,-0.186,-0.284,4.79,2.75,0.12,2,5
17553.656,-0.921,-0.175,-0.284,7.39,3.14,0.37,2,5
17553.671,-0.927,-0.166,-0.289,8.27,3.45,0.15,2,5
17553.687,-0.932,-0.16,-0.283,7.39,3.81,-0.18,2,5
17553.687,-0.939,-0.156,-0.275,5.77,3.85,-0.73,2,5
17553.703,-0.94,-0.15,-0.271,4.09,3.2,-1.1,2,5
17553.718,-0.937,-0.154,-0.269,2.96,2.29,-1.04,2,5
17553.718,-0.935,-0.157,-0.267,2.35,1.34,-0.37,2,5
17553.734,-0.927,-0.159,-0.268,2.04,0.7,0.37,2,5
17553.734,-0.928,-0.161,-0.269,1.56,0.73,0.46,2,5
17553.75,-0.932,-0.168,-0.267,1.01,1.19,0.18,2,5
17553.765,-0.934,-0.17,-0.266,0.61,1.53,-0.15,2,5
17553.781,-0.94,-0.165,-0.267,0.52,1.25,-0.73,2,5
17553.781,-0.939,-0.156,-0.268,0.09,0.7,-1.01,2,5
17553.796,-0.949,-0.139,-0.267,-4.24,-0.61,-1.92,2,5
17553.812,-0.95,-0.138,-0.261,-7.39,-1.28,-1.68,2,5
17553.828,-0.945,-0.135,-0.261,-10.16,-1.74,-1.34,2,5
17553.828,-0.946,-0.134,-0.26,-12.7,-2.75,-1.13,2,5
17553.843,-0.946,-0.135,-0.252,-15.72,-4.61,-0.89,2,5
17553.843,-0.936,-0.135,-0.257,-18.04,-6.41,-0.67,2,5
17553.859,-0.941,-0.136,-0.253,-19.44,-7.29,-0.15,2,5
17553.875,-0.937,-0.133,-0.237,-20.33,-8.18,0.76,2,5
17553.875,-0.927,-0.135,-0.225,-19.53,-7.11,2.44,2,5
17553.89,-0.949,-0.108,-0.23,-17.91,-6.78,2.11,2,5
17553.906,-0.948,-0.085,-0.222,-18.65,-10.59,1.53,2,5
17553.906,-0.947,-0.09,-0.206,-19.29,-8.61,3.17,2,5
17553.921,-0.978,-0.073,-0.186,-18.77,-6.9,4.55,2,5
17553.937,-0.983,-0.052,-0.184,-17.0,-9.98,5.62,2,5
17553.937,-0.994,-0.042,-0.187,-14.77,-13.34,7.63,2,5
17553.953,-0.997,-0.036,-0.193,-13.95,-17.98,9.55,2,5
17553.968,-0.986,-0.034,-0.179,-13.55,-20.87,12.24,2,5
17553.968,-0.994,-0.008,-0.179,-12.21,-24.66,13.4,2,5
17553.984,-0.994,-0.019,-0.189,-11.51,-28.53,15.99,2,5
17554.0,-0.979,-0.026,-0.181,-11.11,-31.4,18.25,2,5
17554.0,-0.995,-0.021,-0.17,-7.45,-33.57,20.14,2,5
17554.015,-1.004,-0.009,-0.167,-0.43,-35.62,24.02,2,5
17554.015,-1.013,0.004,-0.176,8.06,-37.11,28.44,2,5
17554.031,-1.016,0.013,-0.185,15.29,-38.3,32.9,2,5
17554.046,-1.023,0.026,-0.188,20.66,-38.27,38.12,2,5
17554.046,-1.024,0.032,-0.201,22.77,-38.33,43.55,2,5
17554.062,-1.033,0.037,-0.203,21.27,-40.13,47.36,2,5
17554.078,-1.033,0.044,-0.194,18.56,-42.6,50.42,2,5
17554.078,-1.046,0.06,-0.183,17.09,-45.23,52.83,2,5
17554.093,-1.05,0.06,-0.183,15.66,-48.92,55.48,2,5
17554.093,-1.045,0.061,-0.185,12.09,-53.35,57.22,2,5
17554.109,-1.043,0.063,-0.185,8.15,-56.76,57.99,2,5
17554.125,-1.042,0.063,-0.198,3.42,-59.02,59.45,2,5
17554.14,-1.033,0.048,-0.203,2.04,-58.11,59.82,2,5
17554.156,-1.037,0.034,-0.223,1.71,-57.13,59.27,2,5
17554.156,-1.033,0.051,-0.225,-0.58,-55.24,59.18,2,5
17554.171,-1.028,0.048,-0.224,-2.01,-52.4,59.14,2,5
17554.187,-1.034,0.031,-0.234,-1.5,-43.21,59.05,2,5
17554.187,-1.035,0.025,-0.235,-1.59,-38.45,59.18,2,5
17554.203,-1.029,0.023,-0.223,-0.79,-33.69,59.24,2,5
17554.218,-1.03,0.016,-0.215,0.89,-29.36,59.66,2,5
17554.218,-1.022,-0.002,-0.203,3.48,-25.79,60.27,2,5
17554.234,-1.016,-0.009,-0.197,6.62,-22.89,60.79,2,5
17554.234,-1.013,-0.02,-0.188,10.32,-20.75,61.34,2,5
17554.25,-1.003,-0.025,-0.186,14.16,-19.32,61.95,2,5
17554.265,-0.994,-0.03,-0.184,18.31,-17.98,62.5,2,5
17554.265,-0.984,-0.038,-0.185,22.31,-16.48,62.75,2,5
17554.281,-0.972,-0.047,-0.186,25.91,-14.86,62.53,2,5
17554.312,-0.947,-0.056,-0.185,30.24,-11.51,60.34,2,5
17554.312,-0.937,-0.063,-0.187,31.89,-9.64,58.41,2,5
17554.328,-0.925,-0.068,-0.188,32.96,-7.72,56.25,2,5
17554.328,-0.917,-0.071,-0.183,33.63,-5.71,53.56,2,5
17554.343,-0.911,-0.076,-0.183,33.97,-3.94,50.54,2,5
17554.343,-0.9,-0.08,-0.182,34.03,-1.98,46.85,2,5
17554.359,-0.893,-0.079,-0.181,33.69,-0.21,42.91,2,5
17554.375,-0.889,-0.079,-0.178,33.17,1.56,38.76,2,5
17554.375,-0.883,-0.082,-0.177,32.14,3.3,34.18,2,5
17554.39,-0.885,-0.08,-0.173,30.61,4.94,29.24,2,5
17554.406,-0.889,-0.078,-0.17,28.99,6.32,24.29,2,5
17554.406,-0.89,-0.075,-0.169,26.98,7.66,19.2,2,5
17554.421,-0.894,-0.068,-0.166,24.41,8.94,13.55,2,5
17554.437,-0.896,-0.057,-0.164,21.33,9.83,7.57,2,5
17554.437,-0.902,-0.045,-0.162,17.27,10.47,1.68,2,5
17554.453,-0.91,-0.033,-0.158,12.6,10.59,-3.97,2,5
17554.468,-0.919,-0.017,-0.151,3.2,9.74,-13.95,2,5
17554.484,-0.924,-0.013,-0.148,-0.34,8.94,-17.88,2,5
17554.484,-0.929,-0.01,-0.144,-2.47,8.51,-21.39,2,5
17554.5,-0.935,-0.007,-0.14,-3.33,8.3,-24.29,2,5
17554.515,-0.942,0.0,-0.134,-2.62,8.3,-26.55,2,5
17554.515,-0.947,0.005,-0.133,-0.64,8.58,-28.53,2,5
17554.531,-0.95,0.014,-0.13,1.43,8.82,-30.06,2,5
17554.546,-0.953,0.021,-0.129,3.72,9.16,-31.37,2,5
17554.562,-0.955,0.028,-0.128,5.71,9.7,-32.69,2,5
17554.562,-0.959,0.033,-0.129,7.57,10.38,-33.94,2,5
17554.578,-0.964,0.041,-0.13,8.97,10.96,-35.25,2,5
17554.578,-0.97,0.047,-0.13,9.92,11.66,-36.99,2,5
17554.593,-0.975,0.055,-0.128,10.35,12.27,-38.67,2,5
17554.609,-0.981,0.063,-0.129,10.59,12.45,-40.13,2,5
17554.609,-0.987,0.068,-0.131,10.65,12.48,-41.38,2,5
17554.625,-0.987,0.077,-0.131,10.41,11.99,-42.39,2,5
17554.625,-0.987,0.082,-0.134,10.19,11.29,-43.31,2,5
17554.64,-0.988,0.087,-0.135,10.07,10.56,-43.7,2,5
17554.656,-0.99,0.093,-0.135,10.04,9.52,-43.76,2,5
17554.656,-0.993,0.098,-0.137,10.01,8.27,-43.4,2,5
17554.671,-0.995,0.101,-0.138,10.13,7.2,-42.63,2,5
17554.687,-0.998,0.098,-0.138,10.62,6.23,-41.78,2,5
17554.687,-1.002,0.096,-0.14,11.26,5.49,-41.05,2,5
17554.703,-1.003,0.096,-0.141,11.93,5.13,-40.41,2,5
17554.718,-1.003,0.093,-0.142,13.21,4.82,-39.8,2,5
17554.718,-1.0,0.091,-0.146,14.56,4.88,-39.22,2,5
17554.734,-1.001,0.094,-0.148,15.9,5.1,-38.64,2,5
17554.734,-1.004,0.094,-0.148,17.03,5.43,-37.97,2,5
17554.75,-1.006,0.095,-0.148,17.61,5.8,-37.23,2,5
17554.765,-1.012,0.094,-0.15,18.07,6.1,-36.35,2,5
17554.765,-1.016,0.093,-0.148,18.25,6.35,-35.43,2,5
17554.781,-1.015,0.091,-0.147,18.46,6.65,-34.46,2,5
17554.796,-1.014,0.093,-0.144,18.37,6.99,-33.48,2,5
17554.796,-1.015,0.091,-0.142,18.19,6.96,-32.44,2,5
17554.812,-1.018,0.09,-0.137,17.88,6.74,-31.19,2,5
17554.828,-1.022,0.089,-0.134,17.85,6.16,-29.57,2,5
17554.828,-1.023,0.087,-0.133,18.22,5.19,-27.92,2,5
17554.843,-1.026,0.084,-0.134,18.74,3.97,-26.06,2,5
17554.843,-1.026,0.084,-0.135,19.35,2.44,-23.96,2,5
17554.859,-1.026,0.085,-0.142,19.96,0.85,-21.88,2,5
17554.875,-1.023,0.082,-0.149,20.39,-0.7,-19.59,2,5
17554.89,-1.013,0.083,-0.158,20.36,-2.11,-17.18,2,5
17554.89,-1.007,0.086,-0.166,19.84,-3.05,-14.8,2,5
17554.906,-1.001,0.086,-0.171,18.56,-3.33,-12.67,2,5
17554.906,-0.998,0.084,-0.176,16.88,-3.39,-10.32,2,5
17554.921,-0.995,0.079,-0.175,15.23,-3.3,-7.97,2,5
17554.937,-0.994,0.07,-0.173,14.07,-3.2,-5.55,2,5
17554.937,-0.987,0.063,-0.172,13.37,-3.33,-3.23,2,5
17554.953,-0.979,0.056,-0.171,13.18,-3.48,-0.95,2,5
17554.953,-0.97,0.046,-0.167,13.34,-3.54,1.25,2,5
17554.968,-0.965,0.035,-0.166,13.98,-3.27,3.27,2,5
17554.984,-0.963,0.024,-0.167,15.2,-2.72,4.88,2,5
17554.984,-0.953,0.019,-0.164,16.36,-2.2,6.13,2,5
17555.0,-0.95,0.014,-0.165,17.55,-1.4,7.05,2,5
17555.015,-0.952,0.009,-0.162,18.22,-0.34,7.78,2,5
17555.015,-0.95,0.007,-0.16,18.56,0.61,8.42,2,5
17555.031,-0.952,0.002,-0.157,18.68,1.07,8.82,2,5
17555.046,-0.95,-0.001,-0.155,18.43,0.92,9.19,2,5
17555.046,-0.948,0.001,-0.152,18.22,0.31,9.37,2,5
17555.062,-0.947,0.002,-0.156,17.82,-0.73,9.58,2,5
17555.078,-0.946,0.003,-0.163,17.4,-2.17,9.83,2,5
17555.078,-0.943,0.005,-0.171,16.79,-3.54,10.38,2,5
17555.093,-0.938,0.004,-0.18,15.72,-4.61,10.86,2,5
17555.109,-0.939,0.001,-0.186,14.53,-4.94,11.2,2,5
17555.109,-0.939,-0.002,-0.194,13.31,-4.76,11.47,2,5
17555.125,-0.94,-0.011,-0.199,12.24,-3.94,11.47,2,5
17555.14,-0.947,-0.024,-0.201,10.32,-1.16,10.86,2,5
17555.156,-0.949,-0.026,-0.2,9.43,0.76,10.01,2,5
17555.156,-0.95,-0.024,-0.198,8.33,2.99,9.09,2,5
17555.171,-0.949,-0.023,-0.193,5.58,6.87,7.11,2,5
17555.187,-0.954,-0.021,-0.184,3.78,8.42,6.29,2,5
17555.187,-0.969,-0.02,-0.175,2.41,8.7,5.71,2,5
17555.203,-0.982,-0.023,-0.159,1.43,8.3,5.58,2,5
17555.218,-0.984,-0.021,-0.155,1.1,6.96,5.58,2,5
17555.218,-0.981,-0.02,-0.153,0.98,5.46,5.71,2,5
17555.234,-0.981,-0.02,-0.155,0.67,4.03,5.95,2,5
17555.234,-0.978,-0.022,-0.16,0.43,2.69,6.44,2,5
17555.25,-0.971,-0.025,-0.165,0.27,1.86,6.78,2,5
17555.265,-0.969,-0.028,-0.169,0.03,1.4,7.02,2,5
17555.265,-0.965,-0.031,-0.175,-0.18,1.56,6.74,2,5
17555.281,-0.961,-0.031,-0.18,-0.52,2.11,6.38,2,5
17555.296,-0.956,-0.032,-0.183,-1.1,2.99,5.95,2,5
17555.296,-0.955,-0.037,-0.185,-1.4,4.12,5.46,2,5
17555.312,-0.952,-0.036,-0.185,-1.98,5.34,4.94,2,5
17555.328,-0.951,-0.037,-0.184,-2.5,6.41,3.91,2,5
17555.328,-0.954,-0.036,-0.183,-3.42,7.75,2.78,2,5
17555.343,-0.959,-0.033,-0.18,-4.3,8.7,1.74,2,5
17555.343,-0.966,-0.031,-0.174,-5.22,9.4,0.64,2,5
17555.359,-0.97,-0.03,-0.159,-6.1,9.61,-0.31,2,5
17555.375,-0.978,-0.034,-0.153,-5.31,8.79,-0.85,2,5
17555.375,-0.983,-0.027,-0.151,-4.18,7.54,-0.79,2,5
17555.39,-0.985,-0.018,-0.15,-3.05,6.44,-0.64,2,5
17555.406,-0.987,-0.015,-0.155,-2.66,5.74,-0.55,2,5
17555.406,-0.987,-0.014,-0.16,-2.81,5.28,-0.4,2,5
17555.421,-0.986,-0.009,-0.164,-3.6,5.01,-0.43,2,5
17555.437,-0.989,-0.009,-0.166,-4.88,4.49,-0.73,2,5
17555.437,-0.995,-0.011,-0.166,-5.92,3.78,-1.1,2,5
17555.453,-0.992,-0.009,-0.17,-6.96,2.9,-1.16,2,5
17555.453,-0.988,-0.006,-0.176,-7.97,1.86,-1.34,2,5
17555.468,-0.985,-0.006,-0.182,-9.06,1.16,-1.68,2,5
17555.484,-0.984,-0.008,-0.185,-10.44,0.58,-1.8,2,5
17555.484,-0.984,-0.009,-0.186,-12.02,0.12,-2.11,2,5
17555.5,-0.983,-0.008,-0.188,-13.34,-0.18,-2.44,2,5
17555.515,-0.982,-0.011,-0.19,-14.22,-0.37,-2.66,2,5
17555.515,-0.983,-0.012,-0.19,-15.23,-0.46,-2.87,2,5
17555.531,-0.985,-0.014,-0.188,-16.11,-0.61,-3.23,2,5
17555.546,-0.987,-0.015,-0.185,-16.69,-1.19,-3.36,2,5
17555.546,-0.986,-0.014,-0.185,-16.85,-2.04,-3.36,2,5
17555.562,-0.986,-0.016,-0.182,-16.05,-2.99,-3.02,2,5
17555.578,-0.989,-0.014,-0.182,-13.89,-3.78,-2.32,2,5
17555.578,-0.988,-0.008,-0.187,-10.74,-4.09,-1.1,2,5
17555.593,-0.986,-0.004,-0.194,-7.6,-4.36,0.64,2,5
17555.593,-0.982,-0.005,-0.197,-5.74,-4.7,2.08,2,5
17555.609,-0.981,-0.011,-0.196,-4.52,-4.88,2.96,2,5
17555.625,-0.979,-0.015,-0.195,-2.75,-5.01,3.51,2,5
17555.64,-0.979,-0.017,-0.2,-0.76,-5.16,4.15,2,5
17555.656,-0.973,-0.011,-0.209,0.15,-5.22,5.04,2,5
17555.656,-0.973,-0.014,-0.207,-0.24,-5.07,5.28,2,5
17555.671,-0.973,-0.017,-0.206,-0.52,-4.91,5.58,2,5
17555.687,-0.972,-0.02,-0.207,-0.4,-5.1,5.71,2,5
17555.687,-0.969,-0.022,-0.209,-0.31,-5.43,5.89,2,5
17555.703,-0.964,-0.02,-0.209,-0.09,-5.74,5.92,2,5
17555.718,-0.958,-0.021,-0.209,0.12,-5.77,5.83,2,5
17555.718,-0.955,-0.021,-0.211,0.49,-5.77,6.13,2,5
17555.734,-0.953,-0.022,-0.213,0.73,-5.55,6.26,2,5
17555.75,-0.95,-0.024,-0.216,1.1,-5.25,6.35,2,5
17555.75,-0.947,-0.025,-0.216,1.43,-4.79,6.2,2,5
17555.765,-0.945,-0.028,-0.214,1.83,-4.18,5.98,2,5
17555.765,-0.944,-0.031,-0.216,2.2,-3.78,5.77,2,5
17555.781,-0.941,-0.034,-0.217,2.56,-3.2,5.37,2,5
17555.796,-0.94,-0.036,-0.214,2.96,-2.62,4.39,2,5
17555.796,-0.941,-0.038,-0.214,3.27,-2.08,3.33,2,5
17555.828,-0.944,-0.035,-0.213,3.11,-0.24,0.89,2,5
17555.828,-0.946,-0.032,-0.209,2.35,0.46,-0.55,2,5
17555.843,-0.948,-0.03,-0.203,1.65,1.04,-1.71,2,5
17555.859,-0.952,-0.031,-0.2,1.34,1.34,-2.75,2,5
17555.859,-0.951,-0.033,-0.193,1.1,1.13,-3.51,2,5
17555.875,-0.939,-0.042,-0.191,1.71,0.73,-3.75,2,5
17555.875,-0.936,-0.06,-0.194,3.2,0.73,-3.57,2,5
17555.89,-0.933,-0.082,-0.194,6.04,1.04,-3.14,2,5
17555.906,-0.927,-0.105,-0.199,10.74,2.26,-2.44,2,5
17555.906,-0.93,-0.116,-0.203,16.27,4.97,-1.74,2,5
17555.921,-0.932,-0.123,-0.207,21.27,7.57,-2.44,2,5
17555.937,-0.942,-0.125,-0.209,24.72,9.77,-4.79,2,5
17555.937,-0.952,-0.119,-0.205,27.07,11.35,-8.3,2,5
17555.953,-0.96,-0.103,-0.2,28.99,12.18,-11.66,2,5
17555.968,-0.967,-0.087,-0.202,29.76,12.39,-14.25,2,5
17555.968,-0.971,-0.079,-0.201,28.72,11.81,-15.78,2,5
17555.984,-0.969,-0.086,-0.2,24.78,10.01,-16.51,2,5
17556.0,-0.965,-0.089,-0.205,22.68,9.19,-17.03,2,5
17556.015,-0.957,-0.083,-0.212,19.14,8.58,-18.31,2,5
17556.015,-0.951,-0.08,-0.217,13.46,8.33,-20.51,2,5
17556.031,-0.949,-0.086,-0.23,6.01,8.21,-24.02,2,5
17556.046,-0.946,-0.085,-0.237,-2.56,8.91,-28.6,2,5
17556.046,-0.939,-0.085,-0.243,-11.63,10.04,-33.51,2,5
17556.062,-0.943,-0.083,-0.26,-21.09,11.57,-38.09,2,5
17556.078,-0.948,-0.08,-0.272,-29.02,14.44,-41.57,2,5
17556.078,-0.957,-0.091,-0.297,-35.68,18.77,-42.88,2,5
17556.093,-0.943,-0.075,-0.317,-42.73,24.9,-41.35,2,5
17556.109,-0.94,-0.06,-0.334,-47.15,32.41,-39.37,2,5
17556.109,-0.935,-0.09,-0.347,-48.62,40.56,-37.42,2,5
17556.125,-0.922,-0.125,-0.345,-45.84,50.36,-34.79,2,5
17556.125,-0.93,-0.138,-0.334,-37.51,62.72,-33.78,2,5
17556.14,-0.916,-0.171,-0.376,-24.87,76.57,-34.42,2,5
17556.156,-0.9,-0.209,-0.438,-16.08,104.71,-48.55,2,5
17556.156,-0.879,-0.174,-0.453,-22.34,118.63,-63.45,2,5
17556.171,-0.846,-0.165,-0.495,-35.43,132.48,-81.7,2,5
17556.187,-0.88,-0.237,-0.558,-50.33,145.6,-98.39,2,5
17556.187,-0.89,-0.236,-0.537,-63.05,155.77,-110.69,2,5
17556.203,-0.909,-0.223,-0.532,-69.52,162.48,-118.11,2,5
17556.218,-0.938,-0.22,-0.506,-71.75,165.65,-121.25,2,5
17556.218,-0.94,-0.232,-0.383,-66.1,164.43,-120.06,2,5
17556.234,-0.94,-0.241,-0.372,-48.89,156.35,-115.3,2,5
17556.25,-0.916,-0.23,-0.454,-36.13,142.58,-108.01,2,5
17556.25,-0.87,-0.182,-0.491,-32.96,127.14,-102.91,2,5
17556.265,-0.869,-0.187,-0.514,-31.04,117.25,-99.92,2,5
17556.281,-0.873,-0.212,-0.549,-30.98,111.45,-96.07,2,5
17556.281,-0.863,-0.187,-0.601,-35.55,107.79,-92.29,2,5
17556.296,-0.833,-0.21,-0.643,-40.07,109.65,-89.91,2,5
17556.296,-0.771,-0.256,-0.664,-40.83,111.33,-91.92,2,5
17556.328,-0.778,-0.208,-0.812,-44.98,124.21,-96.68,2,5
17556.328,-0.763,-0.225,-0.838,-54.81,134.89,-93.75,2,5
17556.343,-0.722,-0.242,-0.825,-61.59,141.85,-92.72,2,5
17556.359,-0.735,-0.246,-0.813,-63.02,148.66,-92.01,2,5
17556.359,-0.688,-0.29,-0.83,-60.82,155.34,-86.09,2,5
17556.375,-0.649,-0.28,-0.848,-56.37,162.3,-83.77,2,5
17556.375,-0.633,-0.31,-0.829,-50.26,171.21,-80.84,2,5
17556.39,-0.588,-0.338,-0.801,-42.63,176.61,-79.53,2,5
17556.406,-0.572,-0.326,-0.773,-31.77,178.11,-80.39,2,5
17556.421,-0.566,-0.331,-0.726,-21.3,174.47,-78.83,2,5
17556.421,-0.535,-0.306,-0.701,-15.53,163.3,-75.38,2,5
17556.437,-0.538,-0.279,-0.693,-13.76,148.35,-72.39,2,5
17556.437,-0.515,-0.284,-0.686,-13.79,131.44,-67.2,2,5
17556.453,-0.461,-0.286,-0.692,-15.14,113.65,-63.11,2,5
17556.468,-0.428,-0.315,-0.72,-16.21,97.45,-61.86,2,5
17556.468,-0.399,-0.323,-0.757,-17.09,83.19,-61.74,2,5
17556.484,-0.38,-0.318,-0.792,-16.97,72.27,-60.03,2,5
17556.484,-0.361,-0.31,-0.825,-15.56,64.49,-58.11,2,5
17556.5,-0.356,-0.295,-0.842,-14.53,59.66,-56.55,2,5
17556.515,-0.333,-0.317,-0.845,-12.94,56.49,-53.44,2,5
17556.531,-0.315,-0.303,-0.852,-9.43,53.62,-51.45,2,5
17556.531,-0.333,-0.288,-0.845,-4.24,52.16,-47.4,2,5
17556.546,-0.309,-0.315,-0.844,0.4,49.04,-38.82,2,5
17556.546,-0.3,-0.283,-0.826,3.75,43.79,-34.18,2,5
17556.562,-0.324,-0.296,-0.824,6.23,37.78,-30.27,2,5
17556.578,-0.297,-0.293,-0.853,7.42,30.79,-25.64,2,5
17556.578,-0.304,-0.286,-0.879,6.41,26.28,-23.13,2,5
17556.593,-0.276,-0.315,-0.887,3.94,23.07,-21.21,2,5
17556.593,-0.281,-0.32,-0.895,4.91,22.06,-22.03,2,5
17556.609,-0.275,-0.324,-0.912,6.56,22.06,-21.52,2,5
17556.625,-0.261,-0.309,-0.921,6.16,21.67,-22.25,2,5
17556.625,-0.265,-0.302,-0.911,4.39,21.7,-23.22,2,5
17556.64,-0.265,-0.292,-0.894,2.56,20.05,-23.29,2,5
17556.656,-0.273,-0.285,-0.871,1.43,17.21,-22.25,2,5
17556.671,-0.269,-0.292,-0.853,1.31,13.18,-19.84,2,5
17556.671,-0.27,-0.288,-0.852,2.47,8.36,-16.54,2,5
17556.671,-0.273,-0.273,-0.853,4.21,3.85,-12.27,2,5
17556.687,-0.273,-0.277,-0.859,5.01,-0.4,-7.51,2,5
17556.703,-0.264,-0.298,-0.87,5.71,-4.21,-3.11,2,5
17556.718,-0.257,-0.308,-0.896,7.9,-6.13,0.52,2,5
17556.718,-0.244,-0.308,-0.921,9.0,-5.58,3.66,2,5
17556.734,-0.231,-0.321,-0.941,8.64,-3.63,4.94,2,5
17556.734,-0.238,-0.326,-0.946,7.72,-0.89,5.1,2,5
17556.75,-0.243,-0.324,-0.936,6.81,1.56,4.91,2,5
17556.765,-0.243,-0.316,-0.92,5.83,2.96,4.58,2,5
17556.765,-0.242,-0.315,-0.901,5.31,3.2,5.04,2,5
17556.781,-0.238,-0.322,-0.879,4.91,1.74,6.07,2,5
17556.796,-0.236,-0.337,-0.867,5.49,-1.34,6.65,2,5
17556.796,-0.238,-0.349,-0.87,6.62,-4.94,7.6,2,5
17556.812,-0.231,-0.355,-0.887,7.6,-7.93,8.61,2,5
17556.828,-0.228,-0.357,-0.909,7.48,-9.43,7.97,2,5
17556.828,-0.23,-0.352,-0.925,6.26,-8.91,6.16,2,5
17556.843,-0.231,-0.341,-0.934,4.88,-7.51,3.85,2,5
17556.843,-0.229,-0.324,-0.94,3.45,-5.37,2.08,2,5
17556.859,-0.222,-0.32,-0.939,1.95,-3.17,1.34,2,5
17556.875,-0.214,-0.336,-0.921,0.92,-1.16,1.01,2,5
17556.89,-0.216,-0.347,-0.905,1.68,-0.06,1.95,2,5
17556.89,-0.219,-0.343,-0.9,3.54,-0.09,3.69,2,5
17556.906,-0.211,-0.351,-0.9,5.04,-0.61,6.38,2,5
17556.906,-0.206,-0.362,-0.902,6.07,-1.19,8.55,2,5
17556.921,-0.207,-0.369,-0.911,6.35,-1.98,9.22,2,5
17556.937,-0.201,-0.364,-0.921,4.91,-2.69,8.45,2,5
17556.937,-0.196,-0.37,-0.928,2.84,-2.47,7.05,2,5
17556.953,-0.194,-0.382,-0.934,1.25,-1.22,5.07,2,5
17556.968,-0.191,-0.384,-0.939,1.04,1.1,2.72,2,5
17556.968,-0.191,-0.387,-0.942,0.82,3.78,0.55,2,5
17556.984,-0.188,-0.392,-0.941,1.34,7.14,-1.04,2,5
17556.984,-0.188,-0.392,-0.94,2.78,10.22,-2.11,2,5
17557.0,-0.194,-0.386,-0.934,4.18,13.12,-2.78,2,5
17557.015,-0.196,-0.376,-0.923,4.85,15.17,-2.81,2,5
17557.031,-0.197,-0.368,-0.907,4.91,15.78,-2.23,2,5
17557.031,-0.202,-0.347,-0.887,4.03,14.77,-1.34,2,5
17557.046,-0.2,-0.354,-0.877,2.56,12.02,0.49,2,5
17557.046,-0.203,-0.364,-0.872,2.2,8.24,2.14,2,5
17557.062,-0.206,-0.364,-0.876,2.75,4.49,3.3,2,5
17557.078,-0.203,-0.364,-0.889,2.04,1.53,4.06,2,5
17557.078,-0.2,-0.366,-0.898,0.37,-0.43,3.57,2,5
17557.093,-0.203,-0.379,-0.9,-1.56,-1.92,2.62,2,5
17557.093,-0.203,-0.38,-0.899,-2.35,-2.87,1.59,2,5
17557.109,-0.201,-0.383,-0.906,-1.31,-3.02,0.73,2,5
17557.125,-0.198,-0.382,-0.91,0.09,-2.75,0.64,2,5
17557.125,-0.204,-0.371,-0.919,-0.37,-1.92,1.28,2,5
17557.14,-0.208,-0.365,-0.923,-1.07,-1.68,1.5,2,5
17557.156,-0.21,-0.36,-0.919,-1.4,-1.59,1.8,2,5
17557.156,-0.211,-0.358,-0.907,-0.92,-2.41,2.5,2,5
17557.171,-0.212,-0.367,-0.892,0.37,-3.81,3.69,2,5
17557.187,-0.215,-0.369,-0.896,1.68,-5.28,4.64,2,5
17557.187,-0.212,-0.382,-0.903,2.69,-6.13,5.07,2,5
17557.203,-0.209,-0.394,-0.914,4.3,-5.98,4.61,2,5
17557.218,-0.212,-0.393,-0.928,5.95,-4.64,3.33,2,5
17557.218,-0.216,-0.378,-0.937,5.46,-2.5,1.25,2,5
17557.234,-0.215,-0.38,-0.941,3.72,-0.4,-0.82,2,5
17557.25,-0.213,-0.386,-0.94,2.81,2.08,-2.26,2,5
17557.25,-0.214,-0.383,-0.936,2.81,4.7,-3.14,2,5
17557.265,-0.216,-0.377,-0.928,3.42,6.84,-3.66,2,5
17557.265,-0.21,-0.376,-0.91,3.72,7.81,-3.05,2,5
17557.281,-0.204,-0.385,-0.889,3.75,7.72,-1.74,2,5
17557.296,-0.207,-0.387,-0.88,4.85,6.81,-1.01,2,5
17557.296,-0.207,-0.391,-0.883,6.53,5.31,-0.34,2,5
17557.312,-0.208,-0.382,-0.884,8.0,3.78,0.15,2,5
17557.328,-0.216,-0.367,-0.889,7.93,1.65,0.0,2,5
17557.328,-0.22,-0.358,-0.896,5.4,-1.19,-0.89,2,5
17557.343,-0.217,-0.361,-0.9,2.23,-3.81,-1.68,2,5
17557.343,-0.202,-0.377,-0.902,0.31,-5.4,-1.25,2,5
17557.359,-0.195,-0.387,-0.91,1.19,-5.22,-0.34,2,5
17557.375,-0.188,-0.389,-0.924,2.99,-3.66,1.01,2,5
17557.375,-0.186,-0.39,-0.927,3.48,-1.28,2.23,2,5
17557.39,-0.192,-0.388,-0.918,3.39,1.46,3.39,2,5
17557.406,-0.199,-0.388,-0.903,4.03,3.33,4.21,2,5
17557.406,-0.204,-0.387,-0.892,5.13,3.91,4.15,2,5
17557.421,-0.207,-0.379,-0.886,5.28,2.84,3.75,2,5
17557.437,-0.207,-0.375,-0.887,3.45,0.4,2.66,2,5
17557.437,-0.203,-0.384,-0.884,0.64,-1.95,1.22,2,5
17557.453,-0.197,-0.394,-0.883,-0.34,-3.75,0.12,2,5
17557.468,-0.2,-0.387,-0.887,0.58,-4.73,-0.64,2,5
17557.468,-0.203,-0.377,-0.901,1.13,-5.46,-1.07,2,5
17557.484,-0.2,-0.373,-0.904,0.52,-6.01,-1.07,2,5
17557.484,-0.199,-0.373,-0.903,-0.18,-6.23,-1.13,2,5
17557.5,-0.2,-0.374,-0.907,-0.24,-6.47,-1.59,2,5
17557.515,-0.192,-0.375,-0.91,-0.31,-6.13,-1.34,2,5
17557.515,-0.191,-0.377,-0.909,0.09,-5.46,-0.46,2,5
17557.531,-0.199,-0.377,-0.909,0.79,-4.79,0.09,2,5
17557.546,-0.201,-0.377,-0.908,0.82,-4.52,-0.12,2,5
17557.546,-0.202,-0.374,-0.91,0.64,-4.3,-1.04,2,5
17557.562,-0.204,-0.367,-0.909,-0.46,-4.39,-1.98,2,5
17557.562,-0.206,-0.365,-0.906,-2.44,-4.85,-3.05,2,5
17557.578,-0.21,-0.364,-0.904,-3.81,-5.25,-3.14,2,5
17557.593,-0.208,-0.359,-0.9,-4.03,-5.46,-1.95,2,5
17557.593,-0.205,-0.367,-0.896,-3.69,-5.71,0.21,2,5
17557.609,-0.204,-0.379,-0.898,-2.2,-5.49,3.11,2,5
17557.625,-0.206,-0.373,-0.902,0.64,-4.79,5.74,2,5
17557.625,-0.213,-0.36,-0.912,2.47,-4.15,7.29,2,5
17557.64,-0.216,-0.357,-0.918,1.98,-3.66,8.06,2,5
17557.656,-0.215,-0.363,-0.91,0.89,-3.02,7.57,2,5
17557.656,-0.216,-0.367,-0.903,0.31,-2.87,6.35,2,5
17557.671,-0.216,-0.376,-0.901,-0.52,-3.23,4.91,2,5
17557.687,-0.214,-0.39,-0.894,-1.43,-3.81,3.08,2,5
17557.687,-0.215,-0.395,-0.892,-1.62,-4.55,1.92,2,5
17557.703,-0.214,-0.39,-0.892,-1.5,-5.34,1.31,2,5
17557.703,-0.211,-0.389,-0.896,-1.5,-5.86,1.07,2,5
17557.718,-0.214,-0.387,-0.899,-1.89,-6.16,0.79,2,5
17557.734,-0.212,-0.38,-0.901,-2.38,-6.16,0.82,2,5
17557.734,-0.213,-0.375,-0.902,-2.5,-5.95,0.85,2,5
17557.75,-0.217,-0.376,-0.903,-1.92,-5.34,1.1,2,5
17557.765,-0.219,-0.374,-0.904,-1.8,-4.91,1.56,2,5
17557.781,-0.22,-0.378,-0.907,-1.28,-4.52,1.71,2,5
17557.781,-0.219,-0.378,-0.911,-0.85,-3.75,1.86,2,5
17557.796,-0.225,-0.374,-0.908,-0.85,-2.84,1.53,2,5
17557.796,-0.227,-0.37,-0.904,-1.43,-2.62,1.19,2,5
17557.812,-0.224,-0.377,-0.899,-2.04,-2.81,1.56,2,5
17557.828,-0.223,-0.385,-0.894,-1.31,-2.69,2.32,2,5
17557.828,-0.223,-0.381,-0.897,0.03,-2.59,3.23,2,5
17557.843,-0.218,-0.382,-0.897,0.55,-2.53,4.24,2,5
17557.843,-0.224,-0.387,-0.894,0.82,-2.35,4.88,2,5
17557.859,-0.232,-0.381,-0.891,1.43,-2.53,4.3,2,5
17557.875,-0.242,-0.37,-0.897,1.01,-3.2,3.11,2,5
17557.875,-0.242,-0.367,-0.9,-0.95,-4.43,2.11,2,5
17557.89,-0.238,-0.376,-0.894,-2.93,-5.74,0.67,2,5
17557.906,-0.229,-0.388,-0.891,-3.75,-6.84,-0.27,2,5
17557.906,-0.226,-0.394,-0.896,-2.93,-7.2,-0.43,2,5
17557.921,-0.226,-0.391,-0.909,-1.37,-7.08,-0.52,2,5
17557.937,-0.233,-0.386,-0.91,-1.1,-6.32,-0.89,2,5
17557.937,-0.24,-0.378,-0.912,-1.74,-5.62,-1.56,2,5
17557.953,-0.24,-0.372,-0.908,-2.66,-5.4,-2.11,2,5
17557.953,-0.234,-0.368,-0.903,-3.54,-5.62,-2.23,2,5
17557.968,-0.221,-0.38,-0.899,-3.39,-5.62,-0.95,2,5
17557.984,-0.222,-0.386,-0.9,-1.25,-5.07,0.85,2,5
17557.984,-0.225,-0.382,-0.906,1.13,-4.12,2.11,2,5
17558.0,-0.232,-0.377,-0.911,2.26,-2.72,2.38,2,5
17558.015,-0.24,-0.374,-0.906,1.95,-1.59,1.89,2,5
17558.015,-0.247,-0.374,-0.902,1.13,-1.01,0.55,2,5
17558.031,-0.241,-0.372,-0.9,0.37,-1.43,-0.52,2,5
17558.046,-0.237,-0.375,-0.896,-0.21,-2.11,-1.19,2,5
17558.046,-0.238,-0.38,-0.896,0.06,-2.69,-1.13,2,5
17558.062,-0.238,-0.381,-0.899,1.01,-3.14,-0.89,2,5
17558.078,-0.237,-0.386,-0.906,1.68,-2.93,-1.04,2,5
17558.078,-0.24,-0.386,-0.911,1.77,-1.95,-1.13,2,5
17558.093,-0.238,-0.376,-0.916,1.4,-0.85,-1.22,2,5
17558.093,-0.233,-0.37,-0.913,0.06,0.12,-1.89,2,5
17558.109,-0.239,-0.372,-0.9,-1.22,0.67,-2.44,2,5
17558.125,-0.243,-0.375,-0.887,-0.67,-0.43,-1.95,2,5
17558.125,-0.242,-0.379,-0.881,0.46,-1.16,-1.1,2,5
17558.14,-0.238,-0.383,-0.885,1.65,-1.95,-0.64,2,5
17558.156,-0.241,-0.372,-0.892,1.68,-2.9,-1.16,2,5
17558.156,-0.242,-0.37,-0.901,0.7,-4.06,-1.8,2,5
17558.171,-0.239,-0.371,-0.902,-0.43,-4.64,-2.53,2,5
17558.187,-0.239,-0.376,-0.903,-1.31,-4.67,-3.05,2,5
17558.187,-0.234,-0.382,-0.908,-1.04,-3.94,-2.56,2,5
17558.203,-0.233,-0.38,-0.916,0.18,-2.53,-1.95,2,5
17558.218,-0.236,-0.369,-0.918,0.85,-1.22,-1.43,2,5
17558.218,-0.237,-0.361,-0.913,0.09,-0.24,-1.25,2,5
17558.234,-0.236,-0.365,-0.901,-0.82,0.12,-1.28,2,5
17558.234,-0.24,-0.365,-0.894,-0.89,0.12,-0.64,2,5
17558.25,-0.236,-0.368,-0.887,-0.21,-0.27,1.13,2,5
17558.265,-0.235,-0.376,-0.884,1.19,-0.7,2.84,2,5
17558.265,-0.24,-0.371,-0.891,2.35,-1.5,4.03,2,5
17558.281,-0.236,-0.37,-0.899,2.38,-2.38,4.58,2,5
17558.296,-0.233,-0.372,-0.902,1.4,-2.84,4.36,2,5
17558.312,-0.234,-0.379,-0.901,0.43,-3.02,3.45,2,5
17558.312,-0.235,-0.379,-0.901,-0.12,-3.08,2.5,2,5
17558.312,-0.228,-0.381,-0.899,-0.21,-2.78,2.17,2,5
17558.328,-0.225,-0.387,-0.9,0.0,-2.56,2.96,2,5
17558.343,-0.223,-0.386,-0.903,0.76,-2.01,4.3,2,5
17558.343,-0.222,-0.381,-0.905,1.68,-1.62,5.31,2,5
17558.359,-0.221,-0.385,-0.906,2.35,-1.25,5.62,2,5
17558.375,-0.225,-0.379,-0.907,2.38,-1.22,5.13,2,5
17558.375,-0.23,-0.377,-0.905,1.19,-1.19,4.24,2,5
17558.39,-0.233,-0.383,-0.901,0.0,-1.56,3.2,2,5
17558.406,-0.231,-0.389,-0.896,-0.49,-1.92,2.29,2,5
17558.406,-0.233,-0.392,-0.894,0.06,-2.01,1.68,2,5
17558.421,-0.231,-0.391,-0.897,1.13,-1.74,1.56,2,5
17558.437,-0.227,-0.394,-0.896,1.65,-1.59,1.65,2,5
17558.437,-0.231,-0.399,-0.895,1.68,-1.43,1.37,2,5
17558.453,-0.234,-0.392,-0.897,2.08,-1.1,0.64,2,5
17558.468,-0.239,-0.381,-0.905,2.17,-0.95,-0.18,2,5
17558.468,-0.237,-0.375,-0.908,1.01,-0.79,-1.01,2,5
17558.484,-0.238,-0.375,-0.906,0.43,-0.31,-1.34,2,5
17558.5,-0.234,-0.375,-0.903,0.34,-0.12,-1.1,2,5
17558.5,-0.23,-0.386,-0.901,0.64,-0.18,-0.49,2,5
17558.515,-0.229,-0.391,-0.902,2.26,-0.18,0.58,2,5
17558.531,-0.231,-0.381,-0.908,4.27,0.27,1.8,2,5
17558.531,-0.234,-0.37,-0.915,4.52,1.04,2.62,2,5
17558.546,-0.234,-0.369,-0.909,3.39,1.62,3.08,2,5
17558.546,-0.238,-0.373,-0.899,2.41,1.95,2.99,2,5
17558.562,-0.24,-0.376,-0.89,1.92,1.98,2.9,2,5
17558.578,-0.241,-0.381,-0.88,1.98,1.56,3.36,2,5
17558.578,-0.244,-0.389,-0.878,3.05,0.85,4.09,2,5
17558.593,-0.244,-0.388,-0.886,4.79,0.09,4.82,2,5
17558.609,-0.241,-0.379,-0.897,5.83,-0.27,5.92,2,5
17558.609,-0.241,-0.372,-0.904,5.74,-0.46,6.71,2,5
17558.625,-0.238,-0.371,-0.914,4.88,-0.43,7.26,2,5
17558.625,-0.243,-0.372,-0.915,3.88,0.27,7.11,2,5
17558.64,-0.248,-0.374,-0.915,3.17,0.92,6.71,2,5
17558.656,-0.245,-0.373,-0.908,2.81,1.43,6.53,2,5
17558.656,-0.246,-0.376,-0.899,3.27,2.04,6.93,2,5
17558.671,-0.247,-0.377,-0.898,3.97,2.29,7.81,2,5
17558.687,-0.24,-0.377,-0.895,4.21,2.08,9.03,2,5
17558.687,-0.233,-0.387,-0.892,4.3,1.95,10.1,2,5
17558.703,-0.23,-0.391,-0.891,5.25,2.14,11.2,2,5
17558.718,-0.232,-0.388,-0.895,6.5,2.14,11.96,2,5
17558.718,-0.236,-0.382,-0.901,6.78,1.95,12.48,2,5
17558.734,-0.242,-0.379,-0.9,6.35,2.2,12.54,2,5
17558.75,-0.243,-0.38,-0.899,6.07,2.14,12.15,2,5
17558.75,-0.246,-0.383,-0.895,5.43,2.29,11.87,2,5
17558.765,-0.244,-0.389,-0.891,4.88,2.26,11.96,2,5
17558.765,-0.238,-0.39,-0.889,5.22,1.95,11.9,2,5
17558.781,-0.235,-0.388,-0.895,5.71,1.74,11.63,2,5
17558.796,-0.231,-0.388,-0.895,5.8,1.5,11.69,2,5
17558.796,-0.233,-0.39,-0.896,5.37,1.16,11.72,2,5
17558.812,-0.236,-0.389,-0.901,4.3,0.64,11.54,2,5
17558.828,-0.241,-0.398,-0.9,4.7,1.77,11.57,2,5
17558.828,-0.242,-0.394,-0.89,4.46,2.23,11.02,2,5
17558.843,-0.244,-0.394,-0.881,4.15,2.5,9.8,2,5
17558.859,-0.245,-0.394,-0.89,4.39,2.41,8.76,2,5
17558.859,-0.241,-0.388,-0.885,4.15,2.11,8.58,2,5
17558.875,-0.245,-0.388,-0.886,3.94,1.83,8.64,2,5
17558.875,-0.254,-0.387,-0.896,4.3,2.14,8.55,2,5
17558.89,-0.257,-0.381,-0.902,3.91,2.53,8.3,2,5
17558.906,-0.26,-0.382,-0.896,2.35,3.2,7.54,2,5
17558.906,-0.261,-0.383,-0.887,1.62,3.78,6.47,2,5
17558.921,-0.253,-0.375,-0.878,1.74,3.85,5.77,2,5
17558.937,-0.248,-0.386,-0.867,2.08,3.66,5.74,2,5
17558.937,-0.251,-0.388,-0.863,3.33,3.57,6.44,2,5
17558.953,-0.251,-0.388,-0.867,4.64,3.27,7.26,2,5
17558.953,-0.256,-0.388,-0.874,5.28,2.87,7.14,2,5
17558.968,-0.259,-0.385,-0.883,5.25,2.69,6.29,2,5
17558.984,-0.261,-0.38,-0.888,4.09,2.93,4.79,2,5
17559.0,-0.266,-0.379,-0.886,2.26,3.3,3.05,2,5
17559.0,-0.267,-0.379,-0.876,0.95,3.6,1.71,2,5
17559.015,-0.265,-0.382,-0.866,0.52,3.33,1.07,2,5
17559.015,-0.273,-0.381,-0.864,1.04,3.17,0.82,2,5
17559.031,-0.277,-0.373,-0.866,1.34,2.26,0.92,2,5
17559.046,-0.281,-0.375,-0.861,0.98,1.25,1.04,2,5
17559.046,-0.284,-0.375,-0.863,0.95,0.43,1.01,2,5
17559.062,-0.28,-0.369,-0.87,0.64,-0.43,1.01,2,5
17559.078,-0.276,-0.371,-0.872,0.06,-0.89,0.82,2,5
17559.093,-0.272,-0.371,-0.874,0.0,-1.31,1.04,2,5
17559.093,-0.268,-0.37,-0.877,-0.03,-1.65,1.56,2,5
17559.093,-0.263,-0.374,-0.881,-0.09,-1.98,2.35,2,5
17559.109,-0.26,-0.373,-0.879,0.18,-1.71,2.41,2,5
17559.125,-0.259,-0.379,-0.885,0.4,-1.19,2.41,2,5
17559.125,-0.26,-0.385,-0.887,0.21,-0.49,1.74,2,5
17559.14,-0.261,-0.382,-0.885,-1.04,0.15,0.89,2,5
17559.156,-0.255,-0.389,-0.875,-2.69,0.31,-0.15,2,5
17559.171,-0.252,-0.393,-0.863,-3.45,-0.37,-1.34,2,5
17559.171,-0.25,-0.396,-0.853,-3.05,-1.13,-1.74,2,5
17559.187,-0.25,-0.393,-0.852,-1.92,-2.17,-1.46,2,5
17559.187,-0.251,-0.389,-0.858,-1.04,-3.6,-1.34,2,5
17559.203,-0.25,-0.386,-0.871,-0.85,-4.79,-1.13,2,5
17559.218,-0.255,-0.38,-0.886,-0.89,-5.25,-1.07,2,5
17559.218,-0.252,-0.379,-0.9,-2.23,-5.13,-1.65,2,5
17559.234,-0.249,-0.384,-0.905,-4.27,-5.01,-2.84,2,5
17559.234,-0.247,-0.383,-0.903,-4.85,-4.46,-3.72,2,5
17559.25,-0.24,-0.383,-0.9,-4.82,-3.78,-3.94,2,5
17559.265,-0.239,-0.391,-0.893,-4.0,-3.2,-3.2,2,5
17559.265,-0.242,-0.384,-0.894,-2.56,-3.08,-1.95,2,5
17559.281,-0.245,-0.378,-0.892,-2.04,-2.99,-0.95,2,5
17559.296,-0.247,-0.385,-0.891,-2.04,-3.33,-0.21,2,5
17559.296,-0.248,-0.38,-0.891,-2.38,-3.85,0.09,2,5
17559.312,-0.247,-0.375,-0.897,-3.08,-4.3,0.03,2,5
17559.328,-0.242,-0.378,-0.898,-3.54,-4.27,-0.06,2,5
17559.328,-0.236,-0.381,-0.895,-3.36,-3.66,0.49,2,5
17559.343,-0.232,-0.389,-0.89,-2.72,-3.17,1.43,2,5
17559.343,-0.229,-0.398,-0.895,-1.53,-2.66,2.53,2,5
17559.359,-0.229,-0.399,-0.889,-0.52,-2.23,3.48,2,5
17559.375,-0.229,-0.402,-0.894,-0.15,-2.38,3.45,2,5
17559.39,-0.234,-0.406,-0.904,0.0,-2.5,2.23,2,5
17559.39,-0.236,-0.396,-0.91,-0.61,-2.26,0.31,2,5
17559.406,-0.235,-0.389,-0.911,-1.98,-2.01,-1.95,2,5
17559.406,-0.23,-0.39,-0.911,-3.69,-1.89,-3.85,2,5
17559.421,-0.225,-0.398,-0.903,-5.31,-1.89,-5.31,2,5
17559.437,-0.226,-0.405,-0.895,-5.34,-1.86,-6.2,2,5
17559.437,-0.229,-0.398,-0.897,-4.21,-1.86,-5.8,2,5
17559.453,-0.236,-0.39,-0.899,-3.05,-1.22,-5.1,2,5
17559.468,-0.244,-0.382,-0.898,-2.66,-0.18,-4.18,2,5
17559.468,-0.25,-0.378,-0.895,-2.84,0.46,-3.42,2,5
17559.484,-0.256,-0.376,-0.896,-2.66,0.49,-3.3,2,5
17559.484,-0.253,-0.369,-0.893,-2.41,-0.06,-3.08,2,5
17559.5,-0.253,-0.371,-0.892,-2.08,-0.58,-2.26,2,5
17559.515,-0.254,-0.372,-0.897,-1.74,-1.22,-1.19,2,5
17559.515,-0.253,-0.371,-0.904,-2.01,-1.83,-0.4,2,5
17559.531,-0.253,-0.376,-0.904,-2.62,-1.83,0.64,2,5
17559.546,-0.249,-0.385,-0.9,-2.35,-1.13,1.74,2,5
17559.546,-0.249,-0.392,-0.894,-1.37,-0.34,2.62,2,5
17559.562,-0.252,-0.394,-0.892,-0.09,0.27,3.39,2,5
17559.578,-0.259,-0.381,-0.892,0.67,0.43,3.94,2,5
17559.578,-0.261,-0.379,-0.885,0.95,0.18,4.27,2,5
17559.593,-0.257,-0.383,-0.886,0.73,-0.55,4.0,2,5
17559.593,-0.255,-0.382,-0.887,0.55,-1.62,2.87,2,5
17559.609,-0.252,-0.381,-0.891,-0.12,-2.29,1.46,2,5
17559.625,-0.253,-0.385,-0.891,-1.1,-2.62,0.0,2,5
17559.625,-0.256,-0.384,-0.894,-1.83,-3.05,-1.16,2,5
17559.64,-0.253,-0.377,-0.894,-2.44,-3.33,-1.4,2,5
17559.656,-0.251,-0.376,-0.9,-2.32,-2.9,-1.5,2,5
17559.656,-0.249,-0.375,-0.901,-2.01,-2.08,-1.68,2,5
17559.671,-0.249,-0.375,-0.896,-2.14,-1.62,-2.08,2,5
17559.687,-0.248,-0.371,-0.892,-1.98,-1.4,-2.11,2,5
17559.687,-0.249,-0.37,-0.889,-1.43,-0.64,-1.8,2,5
17559.703,-0.244,-0.377,-0.886,-0.55,-0.27,-1.07,2,5
17559.703,-0.243,-0.381,-0.884,0.37,-0.34,-0.15,2,5
17559.718,-0.242,-0.372,-0.887,1.04,-0.31,0.67,2,5
17559.734,-0.24,-0.374,-0.892,1.28,-0.49,0.61,2,5
17559.734,-0.24,-0.377,-0.895,0.73,-0.7,-0.12,2,5
17559.75,-0.237,-0.377,-0.894,0.12,-0.85,-0.76,2,5
17559.765,-0.236,-0.38,-0.897,-0.27,-0.64,-1.25,2,5
17559.765,-0.233,-0.385,-0.897,-0.79,-0.18,-1.71,2,5
17559.781,-0.226,-0.39,-0.898,-0.67,0.55,-2.17,2,5
17559.796,-0.219,-0.394,-0.896,0.46,1.5,-2.32,2,5
17559.796,-0.217,-0.395,-0.902,1.89,2.9,-1.95,2,5
17559.812,-0.215,-0.394,-0.904,3.11,4.33,-1.43,2,5
17559.828,-0.217,-0.397,-0.905,4.09,6.07,-1.46,2,5
17559.828,-0.225,-0.394,-0.9,4.67,7.6,-2.41,2,5
17559.843,-0.235,-0.382,-0.9,4.27,7.69,-4.03,2,5
17559.843,-0.235,-0.379,-0.896,2.5,6.99,-5.83,2,5
17559.859,-0.232,-0.386,-0.899,0.79,6.23,-8.0,2,5
17559.875,-0.231,-0.377,-0.911,-0.4,5.58,-9.89,2,5
17559.875,-0.226,-0.372,-0.919,-2.14,5.74,-11.11,2,5
17559.89,-0.228,-0.376,-0.919,-3.81,6.68,-11.96,2,5
17559.906,-0.232,-0.378,-0.918,-4.76,7.9,-12.57,2,5
17559.906,-0.233,-0.377,-0.92,-4.3,9.46,-12.82,2,5
17559.921,-0.229,-0.376,-0.919,-3.17,11.96,-12.27,2,5
17559.937,-0.22,-0.378,-0.922,-1.86,15.23,-11.2,2,5
17559.937,-0.212,-0.389,-0.918,0.03,18.28,-9.89,2,5
17559.953,-0.216,-0.393,-0.917,2.66,21.33,-9.4,2,5
17559.968,-0.226,-0.39,-0.923,4.82,23.8,-9.83,2,5
17559.968,-0.227,-0.377,-0.929,4.67,25.73,-10.99,2,5
17559.984,-0.228,-0.366,-0.916,2.29,26.8,-13.21,2,5
17559.984,-0.228,-0.367,-0.897,-0.34,26.58,-15.11,2,5
17560.0,-0.227,-0.364,-0.872,-1.34,24.78,-15.78,2,5
17560.015,-0.228,-0.362,-0.86,-0.61,21.79,-15.2,2,5
17560.015,-0.234,-0.354,-0.86,0.43,18.1,-13.86,2,5
17560.031,-0.231,-0.349,-0.863,0.58,13.61,-12.09,2,5
17560.046,-0.227,-0.352,-0.882,-0.67,9.0,-9.8,2,5
17560.046,-0.212,-0.356,-0.902,-1.92,5.52,-7.23,2,5
17560.062,-0.194,-0.37,-0.917,-2.44,4.21,-5.04,2,5
17560.078,-0.186,-0.387,-0.931,-2.29,4.64,-4.24,2,5
17560.078,-0.185,-0.392,-0.945,-0.89,8.58,-5.07,2,5
17560.093,-0.182,-0.387,-0.941,-1.22,10.56,-6.2,2,5
17560.093,-0.186,-0.388,-0.93,-1.31,11.9,-7.26,2,5
17560.109,-0.191,-0.395,-0.917,-0.31,12.15,-7.9,2,5
17560.125,-0.194,-0.39,-0.89,0.55,11.35,-8.45,2,5
17560.14,-0.201,-0.39,-0.886,-0.06,9.22,-9.34,2,5
17560.14,-0.206,-0.387,-0.877,-1.34,6.35,-10.62,2,5
17560.156,-0.208,-0.393,-0.874,-2.78,3.08,-12.02,2,5
17560.156,-0.202,-0.4,-0.877,-3.33,0.31,-12.45,2,5
17560.171,-0.196,-0.403,-0.885,-2.59,-0.85,-12.15,2,5
17560.187,-0.189,-0.399,-0.895,-1.68,-1.16,-11.66,2,5
17560.187,-0.174,-0.399,-0.903,-0.7,-1.1,-11.02,2,5
17560.203,-0.17,-0.396,-0.913,0.4,-0.67,-10.71,2,5
17560.218,-0.17,-0.398,-0.917,0.21,-0.15,-11.08,2,5
17560.218,-0.174,-0.402,-0.903,-0.31,0.49,-11.69,2,5
17560.234,-0.177,-0.402,-0.889,0.06,0.34,-11.96,2,5
17560.25,-0.173,-0.399,-0.885,1.07,-0.67,-12.36,2,5
17560.25,-0.173,-0.395,-0.888,2.01,-2.53,-13.31,2,5
17560.265,-0.172,-0.389,-0.894,1.31,-4.61,-13.79,2,5
17560.265,-0.169,-0.389,-0.896,-0.18,-6.29,-14.56,2,5
17560.281,-0.169,-0.393,-0.899,-0.79,-7.54,-15.75,2,5
17560.296,-0.17,-0.387,-0.901,-1.4,-8.82,-16.75,2,5
17560.312,-0.166,-0.388,-0.908,-2.72,-10.1,-17.79,2,5
17560.312,-0.159,-0.391,-0.917,-3.45,-10.07,-18.25,2,5
17560.328,-0.149,-0.398,-0.922,-3.14,-8.48,-17.94,2,5
17560.328,-0.141,-0.394,-0.919,-1.98,-6.62,-17.46,2,5
17560.343,-0.143,-0.393,-0.911,-1.56,-4.94,-17.46,2,5
17560.343,-0.143,-0.397,-0.895,-1.68,-4.52,-17.64,2,5
17560.359,-0.138,-0.398,-0.889,-0.92,-5.34,-17.85,2,5
17560.375,-0.14,-0.393,-0.892,-0.18,-6.29,-18.71,2,5
17560.375,-0.138,-0.39,-0.896,-0.92,-7.87,-19.65,2,5
17560.39,-0.128,-0.401,-0.897,-2.41,-9.52,-20.36,2,5
17560.406,-0.126,-0.41,-0.906,-2.56,-9.98,-21.3,2,5
17560.406,-0.131,-0.404,-0.917,-1.43,-9.25,-22.49,2,5
17560.421,-0.134,-0.393,-0.92,-1.1,-8.39,-23.32,2,5
17560.437,-0.13,-0.393,-0.918,-1.8,-7.72,-24.2,2,5
17560.437,-0.13,-0.401,-0.916,-2.14,-7.23,-24.54,2,5
17560.453,-0.13,-0.402,-0.913,-1.37,-6.71,-24.05,2,5
17560.468,-0.133,-0.403,-0.911,-0.37,-6.2,-23.41,2,5
17560.468,-0.14,-0.404,-0.913,0.34,-6.13,-23.26,2,5
17560.484,-0.148,-0.398,-0.912,0.76,-6.29,-23.9,2,5
17560.484,-0.152,-0.392,-0.917,0.55,-6.93,-24.87,2,5
17560.5,-0.149,-0.385,-0.918,-0.21,-7.9,-25.45,2,5
17560.515,-0.151,-0.382,-0.922,-1.07,-8.51,-25.67,2,5
17560.515,-0.153,-0.383,-0.924,-1.5,-8.7,-25.51,2,5
17560.531,-0.152,-0.392,-0.924,-1.83,-8.94,-25.03,2,5
17560.546,-0.157,-0.394,-0.92,-1.5,-9.19,-24.81,2,5
17560.546,-0.157,-0.389,-0.921,-0.58,-9.19,-24.02,2,5
17560.562,-0.154,-0.391,-0.922,0.24,-9.03,-22.37,2,5
17560.578,-0.153,-0.389,-0.925,1.22,-8.88,-20.91,2,5
17560.578,-0.154,-0.386,-0.924,1.65,-8.94,-19.93,2,5
17560.593,-0.159,-0.384,-0.918,1.59,-9.34,-19.38,2,5
17560.609,-0.161,-0.385,-0.918,1.56,-10.25,-19.23,2,5
17560.609,-0.161,-0.388,-0.919,1.4,-11.29,-19.14,2,5
17560.625,-0.163,-0.388,-0.922,1.77,-11.72,-18.52,2,5
17560.625,-0.159,-0.39,-0.916,1.89,-11.87,-17.49,2,5
17560.64,-0.16,-0.392,-0.912,1.46,-12.24,-17.06,2,5
17560.656,-0.163,-0.382,-0.904,1.25,-12.94,-16.97,2,5
17560.656,-0.162,-0.373,-0.903,0.98,-13.89,-16.45,2,5
17560.671,-0.158,-0.376,-0.899,0.21,-15.05,-15.44,2,5
17560.687,-0.153,-0.379,-0.898,-0.06,-16.17,-13.92,2,5
17560.687,-0.148,-0.378,-0.909,0.31,-16.85,-12.09,2,5
17560.703,-0.139,-0.389,-0.918,0.67,-16.57,-10.07,2,5
17560.718,-0.132,-0.401,-0.923,1.74,-15.78,-8.15,2,5
17560.718,-0.13,-0.402,-0.928,2.87,-14.5,-6.87,2,5
17560.734,-0.134,-0.404,-0.928,2.93,-12.76,-6.47,2,5
17560.75,-0.136,-0.404,-0.922,2.29,-11.11,-6.56,2,5
17560.75,-0.136,-0.402,-0.911,1.71,-9.74,-7.08,2,5
17560.765,-0.139,-0.401,-0.899,1.07,-9.0,-8.27,2,5
17560.765,-0.138,-0.396,-0.889,0.7,-9.03,-9.46,2,5
17560.781,-0.134,-0.394,-0.883,0.4,-9.8,-9.8,2,5
17560.796,-0.129,-0.4,-0.883,0.52,-10.5,-8.61,2,5
17560.796,-0.128,-0.406,-0.887,1.34,-10.83,-6.81,2,5
17560.812,-0.129,-0.407,-0.894,2.56,-10.71,-5.43,2,5
17560.828,-0.129,-0.408,-0.906,3.57,-10.1,-4.27,2,5
17560.828,-0.126,-0.408,-0.918,4.24,-9.0,-3.45,2,5
17560.843,-0.124,-0.409,-0.924,4.46,-7.9,-3.66,2,5
17560.843,-0.122,-0.41,-0.93,3.66,-6.68,-4.61,2,5
17560.859,-0.118,-0.413,-0.928,2.29,-5.34,-5.34,2,5
17560.875,-0.116,-0.423,-0.914,2.14,-3.51,-5.68,2,5
17560.875,-0.117,-0.43,-0.898,3.23,-1.65,-5.86,2,5
17560.89,-0.119,-0.427,-0.888,4.73,-0.85,-5.01,2,5
17560.906,-0.115,-0.422,-0.889,5.71,-0.89,-3.36,2,5
17560.906,-0.107,-0.426,-0.889,6.2,-0.7,-1.13,2,5
17560.921,-0.106,-0.427,-0.895,7.6,0.15,1.01,2,5
17560.937,-0.108,-0.412,-0.901,8.36,1.4,2.32,2,5
17560.937,-0.117,-0.406,-0.904,7.51,2.47,2.11,2,5
17560.953,-0.128,-0.401,-0.902,5.58,2.93,1.22,2,5
17560.968,-0.13,-0.404,-0.895,3.3,2.87,0.52,2,5
17560.968,-0.138,-0.402,-0.891,1.89,2.35,0.03,2,5
17560.984,-0.142,-0.401,-0.892,0.58,1.37,0.7,2,5
17561.0,-0.151,-0.408,-0.893,-0.37,0.18,2.23,2,5
17561.0,-0.161,-0.409,-0.904,-0.09,-0.95,4.21,2,5
17561.015,-0.169,-0.409,-0.916,0.67,-1.34,5.71,2,5
17561.015,-0.166,-0.41,-0.926,1.31,-1.4,7.05,2,5
17561.031,-0.163,-0.414,-0.933,1.74,-0.95,7.87,2,5
17561.046,-0.16,-0.413,-0.935,2.2,0.12,7.66,2,5
17561.046,-0.16,-0.416,-0.932,2.14,1.28,6.53,2,5
17561.062,-0.168,-0.417,-0.917,2.35,2.56,5.37,2,5
17561.078,-0.175,-0.407,-0.904,2.35,2.96,4.73,2,5
17561.078,-0.176,-0.398,-0.895,1.28,1.92,4.67,2,5
17561.093,-0.172,-0.401,-0.883,0.73,0.4,4.64,2,5
17561.109,-0.173,-0.407,-0.872,0.34,-1.01,4.82,2,5
17561.109,-0.171,-0.416,-0.875,0.09,-2.62,4.88,2,5
17561.125,-0.167,-0.421,-0.882,0.55,-3.88,5.65,2,5
17561.125,-0.167,-0.421,-0.894,0.61,-4.52,6.2,2,5
17561.14,-0.169,-0.41,-0.911,-0.09,-4.58,5.83,2,5
17561.156,-0.167,-0.402,-0.91,-1.59,-4.33,4.91,2,5
17561.156,-0.165,-0.416,-0.908,-2.99,-3.81,3.94,2,5
17561.171,-0.163,-0.419,-0.902,-2.84,-2.93,3.75,2,5
17561.187,-0.161,-0.427,-0.89,-1.62,-1.95,4.91,2,5
17561.187,-0.161,-0.438,-0.879,0.34,-1.4,7.32,2,5
17561.203,-0.164,-0.433,-0.881,2.47,-1.5,9.0,2,5
17561.203,-0.169,-0.436,-0.882,2.9,-1.74,9.58,2,5
17561.218,-0.177,-0.435,-0.879,2.32,-1.77,9.22,2,5
17561.234,-0.182,-0.432,-0.877,1.25,-2.26,8.0,2,5
17561.234,-0.181,-0.443,-0.873,-0.18,-2.81,6.93,2,5
17561.25,-0.184,-0.449,-0.868,-0.37,-3.54,6.41,2,5
17561.265,-0.18,-0.446,-0.868,0.27,-4.27,6.38,2,5
17561.265,-0.176,-0.446,-0.873,0.21,-4.52,6.32,2,5
17561.281,-0.18,-0.45,-0.867,-0.09,-4.91,6.13,2,5
17561.296,-0.182,-0.449,-0.868,0.12,-5.46,6.01,2,5
17561.296,-0.176,-0.453,-0.871,0.46,-6.1,6.71,2,5
17561.312,-0.17,-0.463,-0.88,1.34,-6.53,8.06,2,5
17561.328,-0.167,-0.463,-0.888,3.02,-6.2,9.28,2,5
17561.328,-0.166,-0.458,-0.892,4.15,-5.71,9.8,2,5
17561.343,-0.168,-0.453,-0.902,4.39,-5.07,9.22,2,5
17561.343,-0.168,-0.448,-0.9,3.66,-4.73,8.06,2,5
17561.359,-0.173,-0.455,-0.892,2.69,-4.55,6.99,2,5
17561.375,-0.173,-0.455,-0.885,2.04,-4.64,6.23,2,5
17561.375,-0.174,-0.455,-0.879,2.11,-5.13,6.01,2,5
17561.39,-0.173,-0.458,-0.88,2.62,-5.46,6.9,2,5
17561.406,-0.171,-0.46,-0.882,3.39,-5.43,8.33,2,5
17561.406,-0.174,-0.453,-0.882,4.79,-5.19,9.09,2,5
17561.421,-0.176,-0.44,-0.904,5.49,-4.55,9.49,2,5
17561.437,-0.179,-0.429,-0.898,5.49,-3.36,10.16,2,5
17561.437,-0.18,-0.424,-0.894,4.15,-3.08,11.02,2,5
17561.453,-0.183,-0.43,-0.889,4.0,-2.59,11.6,2,5
17561.468,-0.185,-0.428,-0.887,4.55,-2.53,12.76,2,5
17561.468,-0.186,-0.427,-0.886,5.1,-2.62,14.04,2,5
17561.484,-0.19,-0.428,-0.888,5.92,-2.59,15.35,2,5
17561.484,-0.193,-0.43,-0.89,6.59,-2.35,16.63,2,5
17561.5,-0.196,-0.435,-0.891,7.42,-1.77,17.76,2,5
17561.515,-0.196,-0.434,-0.892,7.97,-1.31,18.56,2,5
17561.531,-0.194,-0.428,-0.898,8.0,-1.13,19.32,2,5
17561.531,-0.189,-0.42,-0.902,7.75,-0.64,20.14,2,5
17561.546,-0.187,-0.413,-0.903,7.42,0.24,20.17,2,5
17561.546,-0.188,-0.41,-0.901,6.96,1.04,19.65,2,5
17561.562,-0.191,-0.404,-0.892,6.2,1.53,19.2,2,5
17561.578,-0.205,-0.405,-0.887,5.16,2.2,18.89,2,5
17561.578,-0.206,-0.422,-0.869,4.76,2.53,19.9,2,5
17561.593,-0.205,-0.438,-0.864,6.38,2.56,22.13,2,5
17561.593,-0.214,-0.431,-0.876,9.31,2.29,23.87,2,5
17561.609,-0.221,-0.416,-0.895,10.32,1.86,24.29,2,5
17561.625,-0.221,-0.409,-0.905,8.33,1.53,23.59,2,5
17561.625,-0.218,-0.425,-0.902,5.55,1.28,21.73,2,5
17561.64,-0.219,-0.429,-0.893,4.43,1.68,19.87,2,5
17561.656,-0.222,-0.426,-0.89,4.97,2.53,18.92,2,5
17561.656,-0.227,-0.423,-0.884,5.71,3.6,19.01,2,5
17561.671,-0.233,-0.419,-0.877,5.74,3.81,19.47,2,5
17561.687,-0.245,-0.415,-0.871,5.68,3.54,19.84,2,5
17561.687,-0.253,-0.417,-0.862,5.77,2.99,20.69,2,5
17561.703,-0.252,-0.422,-0.859,6.23,2.11,22.16,2,5
17561.718,-0.248,-0.432,-0.859,7.32,1.53,23.96,2,5
17561.718,-0.243,-0.431,-0.867,8.7,1.13,25.61,2,5
17561.734,-0.24,-0.429,-0.88,9.28,1.71,26.43,2,5
17561.734,-0.237,-0.434,-0.883,8.73,2.96,25.79,2,5
17561.75,-0.238,-0.43,-0.875,8.03,4.12,23.93,2,5
17561.765,-0.243,-0.417,-0.869,7.11,4.67,22.03,2,5
17561.765,-0.243,-0.42,-0.861,5.65,4.21,21.36,2,5
17561.781,-0.237,-0.436,-0.855,4.76,3.2,21.85,2,5
17561.796,-0.229,-0.45,-0.859,5.58,2.38,23.13,2,5
17561.796,-0.224,-0.453,-0.873,7.57,2.62,24.51,2,5
17561.812,-0.227,-0.446,-0.887,8.97,3.91,25.09,2,5
17561.828,-0.229,-0.446,-0.888,8.94,5.46,24.69,2,5
17561.828,-0.235,-0.446,-0.877,8.27,6.81,23.26,2,5
17561.843,-0.242,-0.443,-0.866,7.69,7.29,21.06,2,5
17561.859,-0.25,-0.438,-0.858,6.41,6.81,18.62,2,5
17561.859,-0.253,-0.44,-0.852,4.94,5.34,17.0,2,5
17561.875,-0.25,-0.448,-0.85,4.12,3.75,16.66,2,5
17561.875,-0.244,-0.454,-0.854,4.91,2.72,17.0,2,5
17561.89,-0.233,-0.448,-0.864,6.32,2.35,17.73,2,5
17561.906,-0.23,-0.446,-0.872,6.74,2.87,18.22,2,5
17561.906,-0.233,-0.445,-0.877,6.62,3.91,18.01,2,5
17561.921,-0.235,-0.439,-0.876,6.74,5.22,17.24,2,5
17561.937,-0.241,-0.43,-0.867,6.41,6.81,16.21,2,5
17561.937,-0.245,-0.429,-0.856,5.28,7.51,15.02,2,5
17561.953,-0.247,-0.428,-0.847,4.39,7.14,13.79,2,5
17561.968,-0.251,-0.429,-0.843,3.94,6.01,12.97,2,5
17561.968,-0.252,-0.433,-0.843,3.33,4.52,12.54,2,5
17561.984,-0.251,-0.438,-0.843,2.81,3.14,12.7,2,5
17562.0,-0.252,-0.438,-0.847,3.33,2.01,12.73,2,5
17562.0,-0.257,-0.433,-0.855,3.54,1.22,12.02,2,5
17562.015,-0.261,-0.428,-0.86,2.62,0.61,10.99,2,5
17562.015,-0.261,-0.432,-0.88,1.4,0.64,8.97,2,5
17562.031,-0.27,-0.429,-0.878,0.79,1.68,6.32,2,5
17562.046,-0.272,-0.427,-0.873,0.58,2.53,4.46,2,5
17562.062,-0.274,-0.427,-0.866,0.89,2.87,2.14,2,5
17562.062,-0.283,-0.424,-0.857,1.25,2.23,2.14,2,5
17562.078,-0.289,-0.422,-0.849,1.74,0.76,2.29,2,5
17562.078,-0.297,-0.414,-0.849,1.37,-1.22,2.35,2,5
17562.093,-0.305,-0.405,-0.836,0.37,-3.72,1.92,2,5
17562.093,-0.305,-0.406,-0.828,-0.06,-6.41,1.5,2,5
17562.109,-0.302,-0.41,-0.832,0.89,-9.09,1.13,2,5
17562.125,-0.3,-0.423,-0.862,3.36,-10.71,1.37,2,5
17562.14,-0.292,-0.419,-0.905,4.88,-10.13,2.17,2,5
17562.14,-0.28,-0.421,-0.932,4.97,-6.93,2.38,2,5
17562.156,-0.277,-0.427,-0.931,4.36,-1.43,1.62,2,5
17562.156,-0.28,-0.424,-0.915,3.33,3.85,0.34,2,5
17562.171,-0.289,-0.42,-0.886,2.04,7.39,-1.04,2,5
17562.187,-0.297,-0.419,-0.857,1.1,8.36,-1.46,2,5
17562.187,-0.303,-0.42,-0.835,0.73,7.26,-1.16,2,5
17562.203,-0.299,-0.418,-0.827,1.01,4.64,-0.46,2,5
17562.218,-0.293,-0.414,-0.829,1.07,1.16,0.15,2,5
17562.218,-0.285,-0.416,-0.84,0.58,-2.29,0.82,2,5
17562.234,-0.28,-0.422,-0.85,-0.31,-4.03,1.68,2,5
17562.25,-0.273,-0.431,-0.856,-0.55,-4.15,2.38,2,5
17562.25,-0.267,-0.439,-0.862,0.12,-3.45,2.75,2,5
17562.265,-0.26,-0.438,-0.867,0.79,-2.14,2.99,2,5
17562.281,-0.254,-0.443,-0.87,1.31,-1.25,2.84,2,5
17562.281,-0.255,-0.445,-0.872,1.37,-0.15,2.56,2,5
17562.296,-0.253,-0.448,-0.86,1.19,0.34,2.84,2,5
17562.296,-0.254,-0.459,-0.852,1.34,0.82,3.27,2,5
17562.312,-0.254,-0.464,-0.845,2.38,1.01,3.6,2,5
17562.328,-0.248,-0.464,-0.846,3.23,0.58,3.75,2,5
17562.328,-0.246,-0.461,-0.86,3.42,0.49,2.84,2,5
17562.343,-0.251,-0.466,-0.874,2.87,0.49,0.73,2,5
17562.359,-0.249,-0.467,-0.882,1.62,0.89,-2.11,2,5
17562.359,-0.247,-0.464,-0.883,0.37,2.08,-4.85,2,5
17562.375,-0.244,-0.466,-0.882,-0.4,3.42,-7.2,2,5
17562.375,-0.236,-0.46,-0.883,0.0,4.79,-8.58,2,5
17562.39,-0.236,-0.452,-0.879,0.15,6.23,-8.97,2,5
17562.406,-0.235,-0.454,-0.869,-0.03,7.11,-8.61,2,5
17562.406,-0.238,-0.451,-0.863,0.73,7.54,-7.39,2,5
17562.421,-0.244,-0.444,-0.859,1.56,7.57,-6.1,2,5
17562.437,-0.25,-0.436,-0.859,1.86,7.05,-4.85,2,5
17562.437,-0.242,-0.437,-0.859,1.53,6.16,-3.91,2,5
17562.453,-0.243,-0.444,-0.856,1.5,5.52,-3.42,2,5
17562.468,-0.236,-0.439,-0.864,1.59,4.61,-2.9,2,5
17562.468,-0.231,-0.443,-0.864,1.46,4.61,-2.53,2,5
17562.484,-0.23,-0.445,-0.867,1.25,4.67,-2.29,2,5
17562.484,-0.23,-0.438,-0.869,1.22,5.01,-2.32,2,5
17562.5,-0.229,-0.439,-0.874,0.95,5.22,-2.66,2,5
17562.515,-0.229,-0.432,-0.869,0.37,5.16,-2.75,2,5
17562.515,-0.227,-0.431,-0.861,-0.55,4.79,-2.99,2,5
17562.531,-0.225,-0.443,-0.856,-0.7,4.12,-2.35,2,5
17562.546,-0.227,-0.441,-0.847,0.15,3.36,-1.25,2,5
17562.546,-0.229,-0.435,-0.843,0.89,2.32,-0.03,2,5
17562.562,-0.227,-0.441,-0.849,0.92,0.89,1.16,2,5
17562.578,-0.225,-0.444,-0.848,0.34,-0.27,1.34,2,5
17562.578,-0.231,-0.446,-0.85,-0.18,-1.4,0.55,2,5
17562.593,-0.228,-0.441,-0.85,-0.55,-2.66,-0.34,2,5
17562.593,-0.225,-0.439,-0.856,-1.43,-3.78,-0.58,2,5
17562.609,-0.224,-0.443,-0.86,-2.53,-5.04,-0.46,2,5
17562.625,-0.223,-0.451,-0.869,-2.26,-5.62,-0.27,2,5
17562.625,-0.223,-0.443,-0.885,-1.07,-4.76,-0.03,2,5
17562.64,-0.234,-0.435,-0.89,-0.55,-2.96,0.03,2,5
17562.656,-0.234,-0.432,-0.881,-1.22,-1.68,0.27,2,5
17562.656,-0.228,-0.437,-0.869,-1.74,-1.04,0.89,2,5
17562.671,-0.227,-0.446,-0.865,-0.85,-0.64,2.01,2,5
17562.687,-0.224,-0.446,-0.861,0.15,-0.46,3.33,2,5
17562.687,-0.228,-0.451,-0.857,0.37,-0.64,3.6,2,5
17562.703,-0.233,-0.451,-0.857,0.12,-1.07,3.11,2,5
17562.718,-0.231,-0.448,-0.855,-0.55,-1.95,2.04,2,5
17562.718,-0.226,-0.452,-0.853,-1.68,-3.17,0.76,2,5
17562.734,-0.224,-0.455,-0.857,-2.04,-4.33,-0.06,2,5
17562.734,-0.221,-0.456,-0.862,-1.74,-5.01,-0.24,2,5
17562.75,-0.215,-0.465,-0.874,-1.34,-4.82,0.34,2,5
17562.765,-0.217,-0.47,-0.88,-0.46,-4.03,0.37,2,5
17562.765,-0.224,-0.461,-0.884,0.55,-2.62,-0.31,2,5
17562.781,-0.23,-0.447,-0.886,0.37,-1.01,-1.43,2,5
17562.796,-0.236,-0.44,-0.876,-0.73,-0.31,-2.84,2,5
17562.812,-0.24,-0.435,-0.861,-2.2,-0.46,-3.88,2,5
17562.812,-0.241,-0.438,-0.847,-2.96,-1.5,-3.48,2,5
17562.828,-0.24,-0.448,-0.845,-2.11,-2.87,-1.53,2,5
17562.828,-0.238,-0.448,-0.849,-0.18,-3.94,0.76,2,5
17562.843,-0.238,-0.449,-0.854,1.31,-4.52,2.5,2,5
17562.843,-0.234,-0.454,-0.859,1.92,-5.19,4.3,2,5
17562.859,-0.23,-0.456,-0.868,2.35,-5.71,5.04,2,5
17562.875,-0.238,-0.453,-0.875,2.14,-5.77,3.97,2,5
17562.89,-0.245,-0.449,-0.88,1.19,-5.8,1.92,2,5
17562.89,-0.242,-0.446,-0.879,-0.03,-5.37,-0.24,2,5
17562.906,-0.242,-0.449,-0.875,-1.01,-4.15,-1.53,2,5
17562.906,-0.236,-0.451,-0.864,-1.43,-3.36,-1.86,2,5
17562.921,-0.232,-0.46,-0.855,-0.52,-3.05,-1.16,2,5
17562.937,-0.233,-0.457,-0.857,1.4,-3.08,0.15,2,5
17562.937,-0.235,-0.447,-0.865,2.93,-3.54,1.28,2,5
17562.953,-0.241,-0.442,-0.876,2.84,-3.81,1.89,2,5
17562.968,-0.24,-0.441,-0.889,1.86,-3.81,1.71,2,5
17562.968,-0.232,-0.443,-0.891,0.52,-2.99,1.13,2,5
17562.984,-0.231,-0.454,-0.886,-0.4,-1.04,0.24,2,5
17562.984,-0.231,-0.462,-0.878,0.27,1.1,-0.18,2,5
17563.0,-0.231,-0.46,-0.872,1.68,2.99,-0.12,2,5
17563.015,-0.234,-0.456,-0.866,2.47,4.09,0.0,2,5
17563.015,-0.243,-0.45,-0.861,2.53,4.7,-0.21,2,5
17563.031,-0.246,-0.445,-0.855,1.74,3.51,-1.04,2,5
17563.046,-0.244,-0.434,-0.85,0.55,1.95,-2.2,2,5
17563.046,-0.246,-0.426,-0.851,-1.28,0.12,-2.41,2,5
17563.062,-0.245,-0.43,-0.849,-2.29,-1.19,-1.43,2,5
17563.078,-0.24,-0.451,-0.859,-1.34,-1.25,-0.76,2,5
17563.078,-0.24,-0.452,-0.868,0.49,-0.52,0.03,2,5
17563.093,-0.244,-0.441,-0.878,1.77,1.25,0.61,2,5
17563.109,-0.245,-0.442,-0.878,1.56,2.66,0.61,2,5
17563.109,-0.242,-0.447,-0.87,0.7,3.42,0.06,2,5
17563.125,-0.242,-0.447,-0.863,0.4,4.21,-0.49,2,5
17563.125,-0.238,-0.449,-0.86,0.7,4.46,-0.98,2,5
17563.14,-0.231,-0.451,-0.863,0.73,4.55,-2.04,2,5
17563.156,-0.228,-0.453,-0.86,-0.24,4.3,-4.46,2,5
17563.156,-0.235,-0.454,-0.859,-1.95,3.66,-7.81,2,5
17563.171,-0.242,-0.457,-0.851,-4.43,2.32,-11.02,2,5
17563.187,-0.246,-0.461,-0.846,-6.53,0.64,-13.64,2,5
17563.187,-0.249,-0.463,-0.843,-8.15,-1.16,-15.63,2,5
17563.203,-0.246,-0.458,-0.844,-8.48,-3.08,-16.66,2,5
17563.203,-0.239,-0.447,-0.856,-8.3,-4.43,-16.69,2,5
17563.218,-0.233,-0.443,-0.87,-7.97,-4.64,-15.78,2,5
17563.234,-0.231,-0.438,-0.882,-7.54,-3.69,-14.34,2,5
17563.25,-0.234,-0.434,-0.881,-6.35,-1.86,-12.33,2,5
17563.25,-0.241,-0.432,-0.878,-4.94,0.37,-10.04,2,5
17563.265,-0.242,-0.427,-0.875,-3.51,2.11,-7.42,2,5
17563.265,-0.242,-0.422,-0.871,-2.47,3.33,-4.64,2,5
17563.281,-0.246,-0.419,-0.863,-1.46,3.81,-2.14,2,5
17563.296,-0.245,-0.418,-0.859,-0.4,3.66,0.67,2,5
17563.312,-0.24,-0.421,-0.859,0.76,2.99,3.48,2,5
17563.312,-0.239,-0.428,-0.859,2.17,2.32,5.71,2,5
17563.328,-0.233,-0.431,-0.865,2.99,1.53,6.74,2,5
17563.328,-0.226,-0.439,-0.872,2.62,0.7,6.62,2,5
17563.343,-0.221,-0.449,-0.881,1.4,0.18,5.8,2,5
17563.343,-0.215,-0.456,-0.885,-0.09,0.21,3.97,2,5
17563.359,-0.213,-0.461,-0.881,-1.25,0.98,1.89,2,5
17563.375,-0.207,-0.461,-0.875,-1.25,1.53,-0.24,2,5
17563.39,-0.205,-0.455,-0.869,-1.16,1.83,-2.08,2,5
17563.39,-0.208,-0.452,-0.859,-1.19,1.62,-2.87,2,5
17563.406,-0.21,-0.451,-0.861,-0.85,0.7,-2.59,2,5
17563.406,-0.21,-0.441,-0.87,-0.34,-0.37,-2.23,2,5
17563.421,-0.211,-0.435,-0.879,-0.58,-0.67,-1.83,2,5
17563.437,-0.206,-0.44,-0.885,-1.4,-0.43,-1.56,2,5
17563.437,-0.204,-0.444,-0.884,-1.68,0.31,-1.98,2,5
17563.453,-0.204,-0.45,-0.882,-1.86,1.28,-2.35,2,5
17563.468,-0.202,-0.453,-0.883,-1.4,2.01,-2.38,2,5
17563.468,-0.203,-0.449,-0.882,-1.04,2.9,-2.2,2,5
17563.484,-0.206,-0.455,-0.876,-1.37,3.88,-1.86,2,5
17563.484,-0.201,-0.453,-0.868,-0.58,4.09,-1.25,2,5
17563.5,-0.202,-0.444,-0.865,0.52,3.91,-0.82,2,5
17563.515,-0.203,-0.442,-0.866,0.21,3.42,-0.79,2,5
17563.515,-0.202,-0.442,-0.866,-0.79,2.2,-1.19,2,5
17563.531,-0.202,-0.455,-0.869,-1.56,0.82,-1.71,2,5
17563.546,-0.199,-0.459,-0.877,-1.25,0.21,-2.26,2,5
17563.546,-0.194,-0.456,-0.885,-0.67,0.24,-2.87,2,5
17563.562,-0.19,-0.461,-0.887,-1.01,0.92,-3.6,2,5
17563.578,-0.19,-0.462,-0.885,-1.4,1.86,-4.73,2,5
17563.578,-0.193,-0.465,-0.876,-1.5,3.02,-5.74,2,5
17563.593,-0.194,-0.464,-0.867,-0.76,3.78,-6.35,2,5
17563.609,-0.198,-0.449,-0.862,0.24,3.42,-6.62,2,5
17563.609,-0.202,-0.437,-0.855,-0.49,1.98,-6.68,2,5
17563.625,-0.207,-0.437,-0.847,-1.37,-0.31,-5.95,2,5
17563.625,-0.206,-0.441,-0.845,-1.34,-3.2,-4.43,2,5
17563.64,-0.205,-0.448,-0.851,-0.98,-5.74,-2.35,2,5
17563.656,-0.201,-0.454,-0.867,0.06,-7.42,-0.34,2,5
17563.656,-0.196,-0.458,-0.883,1.37,-7.63,0.92,2,5
17563.671,-0.197,-0.458,-0.904,2.17,-6.74,0.89,2,5
17563.687,-0.202,-0.455,-0.906,2.08,-4.76,0.15,2,5
17563.687,-0.206,-0.457,-0.898,1.68,-2.47,-0.79,2,5
17563.703,-0.208,-0.461,-0.887,1.98,-0.76,-1.74,2,5
17563.718,-0.213,-0.444,-0.879,2.78,0.21,-1.92,2,5
17563.718,-0.215,-0.439,-0.865,2.84,0.21,-1.59,2,5
17563.734,-0.215,-0.443,-0.855,2.69,-0.73,-0.85,2,5
17563.734,-0.217,-0.444,-0.866,3.08,-2.17,-0.27,2,5
17563.75,-0.215,-0.437,-0.882,3.2,-2.72,0.24,2,5
17563.765,-0.216,-0.43,-0.891,2.69,-1.86,0.37,2,5
17563.765,-0.217,-0.433,-0.891,1.43,-0.18,-0.06,2,5
17563.781,-0.211,-0.44,-0.878,0.43,1.01,-0.46,2,5
17563.796,-0.212,-0.445,-0.867,0.7,1.5,-0.92,2,5
17563.796,-0.216,-0.444,-0.861,1.31,1.65,-1.01,2,5
17563.812,-0.219,-0.447,-0.862,1.22,1.34,-1.34,2,5
17563.828,-0.222,-0.444,-0.86,1.43,0.95,-1.83,2,5
17563.828,-0.225,-0.435,-0.859,1.5,0.52,-2.29,2,5
17563.843,-0.223,-0.436,-0.861,0.82,-0.34,-2.23,2,5
17563.843,-0.219,-0.44,-0.868,0.21,-1.22,-1.95,2,5
17563.859,-0.221,-0.439,-0.872,0.24,-1.4,-1.89,2,5
17563.875,-0.222,-0.436,-0.875,0.55,-0.92,-1.37,2,5
17563.875,-0.22,-0.427,-0.875,0.55,-0.43,-1.13,2,5
17563.89,-0.22,-0.425,-0.873,0.24,0.0,-1.31,2,5
17563.906,-0.218,-0.431,-0.864,-0.18,0.31,-1.13,2,5
17563.906,-0.218,-0.43,-0.858,-0.09,-0.21,-0.95,2,5
17563.921,-0.217,-0.427,-0.862,-0.27,-1.34,-1.04,2,5
17563.937,-0.217,-0.429,-0.871,-1.1,-2.01,-0.73,2,5
17563.937,-0.212,-0.438,-0.878,-1.43,-1.68,-0.15,2,5
17563.953,-0.212,-0.443,-0.878,-1.59,-1.25,-0.52,2,5
17563.968,-0.212,-0.441,-0.874,-2.32,-1.01,-1.4,2,5
17563.968,-0.213,-0.45,-0.867,-2.41,-0.79,-1.43,2,5
17563.984,-0.215,-0.455,-0.865,-0.92,-0.67,-0.82,2,5
17564.0,-0.211,-0.447,-0.87,0.43,-0.79,-0.06,2,5
17564.0,-0.21,-0.437,-0.875,1.01,-1.22,0.34,2,5
17564.015,-0.209,-0.429,-0.883,0.09,-1.59,0.06,2,5
17564.015,-0.206,-0.436,-0.885,-2.81,-1.31,-1.62,2,5
17564.031,-0.207,-0.446,-0.877,-2.26,-0.85,-1.74,2,5
17564.046,-0.207,-0.451,-0.869,-1.19,-0.58,-1.1,2,5
17564.046,-0.201,-0.449,-0.869,-1.04,-0.79,-0.76,2,5
17564.062,-0.201,-0.454,-0.865,-1.13,-1.31,-0.4,2,5
17564.078,-0.204,-0.449,-0.866,-0.82,-1.59,-0.09,2,5
17564.078,-0.205,-0.446,-0.87,-0.76,-2.11,-0.18,2,5
17564.093,-0.201,-0.454,-0.877,-0.85,-2.38,0.0,2,5
17564.093,-0.195,-0.457,-0.88,-0.15,-1.86,-0.24,2,5
17564.109,-0.199,-0.454,-0.887,0.31,-0.79,-1.16,2,5
17564.125,-0.201,-0.455,-0.882,-0.34,0.21,-1.68,2,5
17564.14,-0.201,-0.464,-0.871,-0.7,0.76,-2.14,2,5
17564.14,-0.203,-0.47,-0.866,0.18,0.95,-2.56,2,5
17564.156,-0.2,-0.462,-0.868,1.43,0.82,-2.41,2,5
17564.156,-0.198,-0.452,-0.873,1.62,0.61,-2.11,2,5
17564.171,-0.197,-0.452,-0.876,0.76,0.43,-2.26,2,5
17564.187,-0.199,-0.458,-0.879,0.09,0.24,-3.2,2,5
17564.187,-0.205,-0.451,-0.882,-0.06,0.55,-3.94,2,5
17564.203,-0.205,-0.443,-0.885,-0.27,0.95,-4.12,2,5
17564.218,-0.203,-0.446,-0.88,-1.13,1.5,-4.09,2,5
17564.218,-0.202,-0.446,-0.878,-1.31,1.59,-4.06,2,5
17564.234,-0.205,-0.437,-0.878,-1.25,1.37,-3.66,2,5
17564.234,-0.2,-0.44,-0.871,-1.59,1.37,-2.84,2,5
17564.25,-0.201,-0.447,-0.869,-1.13,1.25,-2.32,2,5
17564.265,-0.203,-0.443,-0.865,-0.46,0.92,-1.43,2,5
17564.265,-0.199,-0.447,-0.867,-0.15,0.34,-0.21,2,5
17564.281,-0.197,-0.449,-0.879,0.58,-0.27,0.55,2,5
17564.296,-0.196,-0.441,-0.893,0.46,-0.58,0.49,2,5
17564.296,-0.195,-0.438,-0.907,-1.1,-0.24,0.06,2,5
17564.312,-0.193,-0.429,-0.917,-3.11,0.85,-0.4,2,5
17564.328,-0.194,-0.428,-0.917,-5.13,2.75,-0.34,2,5
17564.328,-0.201,-0.426,-0.913,-6.16,5.25,0.24,2,5
17564.343,-0.195,-0.419,-0.902,-6.29,7.63,2.75,2,5
17564.359,-0.189,-0.419,-0.886,-5.28,9.67,5.71,2,5
17564.375,-0.192,-0.426,-0.878,-2.9,11.08,8.33,2,5
17564.375,-0.193,-0.426,-0.868,-0.58,11.26,11.05,2,5
17564.39,-0.191,-0.421,-0.862,1.13,10.13,12.33,2,5
17564.406,-0.192,-0.426,-0.86,1.28,8.3,12.02,2,5
17564.406,-0.189,-0.435,-0.859,-0.12,6.2,11.23,2,5
17564.421,-0.187,-0.447,-0.855,-0.67,4.49,9.86,2,5
17564.421,-0.189,-0.439,-0.856,-0.46,2.96,7.66,2,5
17564.437,-0.193,-0.439,-0.864,-1.16,1.56,5.07,2,5
17564.453,-0.194,-0.449,-0.864,-2.99,0.06,2.44,2,5
17564.453,-0.196,-0.452,-0.866,-4.18,-1.19,-0.43,2,5
17564.468,-0.196,-0.455,-0.878,-4.21,-2.17,-2.59,2,5
17564.484,-0.191,-0.451,-0.887,-3.75,-2.69,-3.85,2,5
17564.484,-0.191,-0.441,-0.891,-3.6,-2.41,-5.71,2,5
17564.5,-0.199,-0.429,-0.886,-4.39,-2.11,-7.93,2,5
17564.5,-0.207,-0.417,-0.881,-5.65,-2.44,-9.61,2,5
17564.515,-0.215,-0.411,-0.88,-6.56,-3.36,-10.38,2,5
17564.515,-0.223,-0.406,-0.882,-7.26,-4.52,-10.1,2,5
17564.531,-0.228,-0.407,-0.885,-8.03,-5.37,-8.3,2,5
17564.546,-0.224,-0.409,-0.884,-7.32,-5.68,-5.77,2,5
17564.546,-0.223,-0.396,-0.894,-5.65,-5.37,-4.12,2,5
17564.562,-0.223,-0.392,-0.894,-6.96,-5.07,-3.57,2,5
17564.578,-0.224,-0.41,-0.878,-8.64,-5.25,-3.27,2,5
17564.578,-0.22,-0.426,-0.869,-8.0,-5.25,-2.81,2,5
17564.593,-0.214,-0.425,-0.878,-6.99,-5.13,-1.77,2,5
17564.593,-0.212,-0.429,-0.865,-7.17,-4.64,-0.73,2,5
17564.609,-0.201,-0.433,-0.871,-8.15,-5.58,-0.34,2,5
17564.625,-0.21,-0.439,-0.881,-7.87,-5.34,-0.55,2,5
17564.64,-0.207,-0.432,-0.886,-7.93,-5.46,0.06,2,5
17564.64,-0.2,-0.436,-0.888,-7.97,-4.94,1.1,2,5
17564.656,-0.196,-0.443,-0.89,-7.23,-4.18,2.38,2,5
17564.656,-0.188,-0.442,-0.886,-7.17,-3.63,3.48,2,5
17564.671,-0.189,-0.443,-0.884,-6.38,-3.2,4.03,2,5
17564.687,-0.191,-0.433,-0.886,-5.28,-2.47,4.24,2,5
17564.687,-0.194,-0.438,-0.883,-5.19,-1.83,4.18,2,5
17564.703,-0.19,-0.452,-0.868,-4.67,-1.31,4.0,2,5
17564.718,-0.192,-0.453,-0.868,-2.81,-0.98,3.08,2,5
17564.718,-0.193,-0.439,-0.875,-2.47,-0.98,1.8,2,5
17564.734,-0.196,-0.441,-0.874,-3.51,-1.22,-0.85,2,5
17564.734,-0.206,-0.443,-0.874,-4.79,-1.31,-4.03,2,5
17564.75,-0.22,-0.439,-0.873,-5.43,-1.31,-6.01,2,5
17564.765,-0.216,-0.424,-0.877,-4.09,-0.95,-5.95,2,5
17564.765,-0.193,-0.401,-0.887,-1.5,0.4,-4.15,2,5
17564.781,-0.16,-0.393,-0.891,1.65,2.56,-1.68,2,5
17564.796,-0.141,-0.389,-0.897,5.34,5.13,0.09,2,5
17564.796,-0.158,-0.371,-0.904,7.35,7.54,-0.46,2,5
17564.812,-0.192,-0.37,-0.896,5.13,8.82,-2.53,2,5
17564.828,-0.224,-0.382,-0.877,1.62,8.91,-5.16,2,5
17564.828,-0.241,-0.38,-0.855,-0.27,7.81,-6.23,2,5
17564.843,-0.22,-0.363,-0.851,0.31,6.04,-5.37,2,5
17564.859,-0.195,-0.345,-0.866,2.2,4.12,-3.02,2,5
17564.859,-0.175,-0.331,-0.89,2.72,2.72,-0.12,2,5
17564.875,-0.171,-0.342,-0.908,2.11,1.98,1.92,2,5
17564.875,-0.182,-0.339,-0.926,2.04,2.08,2.01,2,5
17564.89,-0.198,-0.338,-0.942,0.34,2.69,0.4,2,5
17564.906,-0.194,-0.333,-0.947,-2.87,3.08,-3.48,2,5
17564.906,-0.2,-0.335,-0.937,-6.38,3.45,-7.54,2,5
17564.921,-0.19,-0.34,-0.916,-9.19,3.05,-8.39,2,5
17564.937,-0.142,-0.355,-0.918,-8.61,1.95,-6.29,2,5
17564.937,-0.123,-0.343,-0.944,-5.8,2.23,-3.94,2,5
17564.953,-0.123,-0.346,-0.958,-5.83,3.88,-2.78,2,5
17564.953,-0.134,-0.366,-0.953,-7.63,5.89,-3.94,2,5
17564.968,-0.143,-0.384,-0.938,-8.94,7.45,-6.01,2,5
17564.984,-0.156,-0.383,-0.914,-9.89,8.7,-8.67,2,5
17565.0,-0.156,-0.376,-0.891,-11.72,8.55,-11.66,2,5
17565.0,-0.149,-0.374,-0.884,-16.3,4.55,-15.78,2,5
17565.015,-0.133,-0.401,-0.88,-16.27,2.99,-16.42,2,5
17565.015,-0.131,-0.406,-0.892,-17.3,2.35,-17.79,2,5
17565.031,-0.154,-0.412,-0.911,-19.26,2.75,-19.65,2,5
17565.046,-0.185,-0.406,-0.916,-19.56,3.63,-22.1,2,5
17565.062,-0.177,-0.408,-0.891,-20.36,4.06,-22.64,2,5
17565.062,-0.165,-0.428,-0.874,-19.14,3.23,-19.26,2,5
17565.078,-0.175,-0.435,-0.873,-13.95,2.29,-14.53,2,5
17565.078,-0.183,-0.43,-0.874,-10.53,1.07,-10.5,2,5
17565.093,-0.194,-0.441,-0.876,-9.77,-0.27,-8.09,2,5
17565.109,-0.22,-0.451,-0.869,-10.01,-1.43,-7.57,2,5
17565.109,-0.24,-0.461,-0.872,-10.28,-2.41,-9.22,2,5
17565.125,-0.254,-0.471,-0.87,-10.1,-2.69,-10.99,2,5
17565.125,-0.26,-0.467,-0.862,-9.43,-3.54,-12.57,2,5
17565.14,-0.245,-0.462,-0.861,-8.79,-6.26,-14.68,2,5
17565.156,-0.238,-0.465,-0.865,-8.76,-10.16,-17.24,2,5
17565.156,-0.237,-0.465,-0.876,-8.97,-14.56,-20.36,2,5
17565.171,-0.232,-0.454,-0.895,-10.22,-18.8,-23.41,2,5
17565.187,-0.21,-0.444,-0.898,-11.84,-22.28,-25.67,2,5
17565.187,-0.181,-0.444,-0.881,-11.75,-24.6,-26.76,2,5
17565.203,-0.166,-0.457,-0.86,-9.55,-26.95,-26.34,2,5
17565.203,-0.154,-0.469,-0.846,-6.68,-30.73,-24.57,2,5
17565.218,-0.153,-0.46,-0.844,-5.13,-36.26,-24.11,2,5
17565.234,-0.172,-0.442,-0.85,-6.53,-42.33,-26.12,2,5
17565.25,-0.194,-0.414,-0.876,-11.23,-48.68,-29.24,2,5
17565.25,-0.205,-0.387,-0.926,-16.85,-54.2,-31.8,2,5
17565.265,-0.179,-0.37,-0.994,-17.91,-54.69,-30.3,2,5
17565.265,-0.138,-0.34,-1.044,-12.54,-46.66,-24.08,2,5
17565.281,-0.114,-0.304,-1.076,-4.97,-33.97,-16.08,2,5
17565.296,-0.103,-0.28,-1.068,0.27,-20.63,-9.61,2,5
17565.296,-0.112,-0.297,-1.005,2.38,-9.67,-2.72,2,5
17565.312,-0.135,-0.335,-0.934,5.01,-3.08,4.3,2,5
17565.328,-0.17,-0.343,-0.892,8.79,-1.25,9.22,2,5
17565.328,-0.193,-0.337,-0.876,9.28,-2.35,11.84,2,5
17565.343,-0.192,-0.346,-0.868,7.66,-4.85,12.3,2,5
17565.359,-0.193,-0.367,-0.881,7.35,-7.26,11.14,2,5
17565.359,-0.193,-0.355,-0.911,6.68,-9.03,7.54,2,5
17565.375,-0.201,-0.358,-0.934,3.72,-9.49,2.04,2,5
17565.375,-0.217,-0.367,-0.939,-0.52,-9.16,-3.48,2,5
17565.39,-0.224,-0.366,-0.932,-2.47,-8.7,-8.09,2,5
17565.406,-0.231,-0.343,-0.933,-3.27,-8.0,-12.02,2,5
17565.421,-0.234,-0.319,-0.936,-4.67,-8.45,-14.65,2,5
17565.421,-0.233,-0.315,-0.931,-5.95,-8.94,-14.89,2,5
17565.421,-0.226,-0.319,-0.918,-5.25,-9.22,-13.18,2,5
17565.437,-0.235,-0.317,-0.904,-3.39,-9.46,-9.89,2,5
17565.453,-0.235,-0.326,-0.905,-2.14,-10.62,-5.55,2,5
17565.453,-0.223,-0.315,-0.924,-1.31,-11.69,-0.67,2,5
17565.468,-0.232,-0.312,-0.935,-0.98,-10.38,3.94,2,5
17565.484,-0.245,-0.32,-0.921,-0.58,-7.17,6.74,2,5
17565.484,-0.268,-0.332,-0.894,0.67,-4.21,8.55,2,5
17565.5,-0.273,-0.346,-0.861,2.29,-2.66,11.38,2,5
17565.515,-0.27,-0.366,-0.846,4.36,-2.81,13.98,2,5
17565.515,-0.292,-0.366,-0.844,5.49,-4.12,14.47,2,5
17565.531,-0.306,-0.365,-0.839,4.03,-6.2,12.67,2,5
17565.546,-0.314,-0.375,-0.844,2.14,-9.0,8.24,2,5
17565.546,-0.327,-0.379,-0.853,0.67,-11.41,2.35,2,5
17565.562,-0.321,-0.396,-0.868,-1.83,-13.15,-2.9,2,5
17565.562,-0.315,-0.407,-0.882,-2.5,-13.86,-8.58,2,5
17565.578,-0.315,-0.4,-0.898,-3.88,-14.47,-15.93,2,5
17565.593,-0.325,-0.402,-0.899,-6.96,-15.11,-23.07,2,5
17565.593,-0.331,-0.381,-0.899,-9.03,-15.84,-28.84,2,5
17565.609,-0.33,-0.344,-0.894,-11.72,-17.33,-32.84,2,5
17565.625,-0.327,-0.321,-0.889,-13.89,-19.32,-33.05,2,5
17565.64,-0.323,-0.292,-0.887,-13.4,-20.69,-29.42,2,5
17565.64,-0.322,-0.266,-0.892,-11.35,-21.27,-23.71,2,5
17565.656,-0.326,-0.27,-0.883,-9.37,-20.72,-16.17,2,5
17565.656,-0.335,-0.273,-0.874,-5.4,-19.14,-8.12,2,5
17565.671,-0.36,-0.272,-0.869,-1.95,-17.09,-1.56,2,5
17565.687,-0.39,-0.285,-0.861,-0.98,-16.39,2.47,2,5
17565.703,-0.381,-0.296,-0.869,-1.22,-18.74,3.94,2,5
17565.703,-0.358,-0.286,-0.896,-3.57,-22.77,1.65,2,5
17565.703,-0.334,-0.304,-0.912,-8.97,-26.76,-3.2,2,5
17565.718,-0.308,-0.347,-0.914,-12.85,-29.39,-7.87,2,5
17565.734,-0.296,-0.378,-0.914,-13.58,-30.3,-12.45,2,5
17565.75,-0.283,-0.392,-0.91,-13.89,-30.7,-18.25,2,5
17565.75,-0.271,-0.402,-0.904,-14.71,-30.61,-24.75,2,5
17565.765,-0.279,-0.4,-0.895,-16.08,-30.55,-31.74,2,5
17565.765,-0.296,-0.38,-0.892,-18.34,-31.31,-38.85,2,5
17565.781,-0.319,-0.349,-0.883,-20.75,-32.11,-44.8,2,5
17565.796,-0.329,-0.33,-0.88,-22.37,-33.08,-48.71,2,5
17565.796,-0.328,-0.308,-0.894,-22.0,-33.78,-49.1,2,5
17565.812,-0.349,-0.275,-0.9,-20.48,-32.44,-45.75,2,5
17565.828,-0.359,-0.275,-0.884,-18.71,-30.24,-40.41,2,5
17565.828,-0.371,-0.268,-0.876,-15.02,-28.35,-34.27,2,5
17565.843,-0.392,-0.257,-0.878,-11.72,-27.16,-27.19,2,5
17565.859,-0.415,-0.263,-0.868,-9.64,-26.4,-20.6,2,5
17565.859,-0.422,-0.277,-0.857,-7.78,-26.67,-15.69,2,5
17565.875,-0.422,-0.281,-0.856,-6.41,-28.69,-12.36,2,5
17565.875,-0.431,-0.287,-0.86,-6.5,-31.25,-9.67,2,5
17565.89,-0.431,-0.301,-0.865,-7.11,-34.18,-7.45,2,5
17565.906,-0.414,-0.319,-0.877,-7.02,-37.08,-4.82,2,5
17565.921,-0.41,-0.326,-0.892,-6.26,-38.76,-2.66,2,5
17565.921,-0.422,-0.333,-0.911,-6.44,-40.01,-2.14,2,5
17565.937,-0.427,-0.351,-0.916,-7.75,-40.35,-2.93,2,5
17565.937,-0.411,-0.377,-0.912,-8.42,-40.04,-4.82,2,5
17565.953,-0.435,-0.379,-0.909,-8.76,-40.04,-8.82,2,5
17565.968,-0.46,-0.376,-0.89,-10.41,-40.47,-11.29,2,5
17565.968,-0.475,-0.365,-0.865,-12.51,-42.33,-14.4,2,5
17565.984,-0.495,-0.346,-0.858,-13.28,-46.36,-18.49,2,5
17565.984,-0.511,-0.336,-0.858,-14.44,-52.4,-16.82,2,5
17566.0,-0.488,-0.302,-0.86,-14.56,-54.17,-14.8,2,5
17566.015,-0.499,-0.32,-0.861,-12.63,-55.09,-10.5,2,5
17566.015,-0.493,-0.317,-0.876,-10.53,-54.17,-5.8,2,5
17566.031,-0.489,-0.343,-0.879,-8.3,-52.71,-0.82,2,5
17566.046,-0.52,-0.342,-0.871,-4.82,-50.94,2.96,2,5
17566.046,-0.531,-0.331,-0.873,-3.2,-50.17,5.37,2,5
17566.062,-0.538,-0.327,-0.859,-3.81,-50.29,5.71,2,5
17566.078,-0.536,-0.323,-0.84,-4.67,-51.45,5.43,2,5
17566.078,-0.538,-0.325,-0.832,-5.01,-54.17,5.04,2,5
17566.093,-0.542,-0.321,-0.844,-4.76,-57.1,6.53,2,5
17566.093,-0.542,-0.313,-0.861,-4.73,-59.33,8.51,2,5
17566.109,-0.541,-0.315,-0.871,-4.79,-60.43,10.25,2,5
17566.125,-0.539,-0.309,-0.881,-3.91,-60.46,11.78,2,5
17566.125,-0.541,-0.297,-0.889,-2.93,-59.24,13.31,2,5
17566.14,-0.547,-0.3,-0.889,-3.02,-57.77,15.14,2,5
17566.156,-0.557,-0.309,-0.883,-1.89,-56.49,17.46,2,5
17566.171,-0.574,-0.295,-0.89,0.27,-55.33,18.98,2,5
17566.171,-0.594,-0.283,-0.894,-0.37,-54.38,18.25,2,5
17566.187,-0.612,-0.272,-0.874,-3.51,-54.51,15.69,2,5
17566.187,-0.619,-0.273,-0.858,-6.01,-55.36,13.92,2,5
17566.203,-0.61,-0.262,-0.847,-6.9,-56.22,14.37,2,5
17566.218,-0.614,-0.24,-0.834,-7.23,-56.61,16.08,2,5
17566.218,-0.625,-0.249,-0.814,-7.26,-56.52,19.9,2,5
17566.234,-0.631,-0.268,-0.8,-5.16,-56.7,25.45,2,5
17566.234,-0.633,-0.276,-0.799,-1.65,-57.19,31.34,2,5
17566.25,-0.631,-0.279,-0.81,1.04,-57.83,36.53,2,5
17566.265,-0.635,-0.291,-0.82,2.29,-57.83,40.22,2,5
17566.265,-0.637,-0.295,-0.825,2.93,-57.74,41.17,2,5
17566.281,-0.644,-0.293,-0.835,2.01,-57.77,38.61,2,5
17566.296,-0.653,-0.294,-0.826,-1.22,-57.47,34.15,2,5
17566.312,-0.64,-0.305,-0.804,-3.97,-57.77,29.97,2,5
17566.312,-0.639,-0.311,-0.793,-4.49,-58.08,27.01,2,5
17566.328,-0.663,-0.301,-0.782,-4.33,-58.05,25.51,2,5
17566.328,-0.682,-0.3,-0.771,-4.55,-58.14,24.45,2,5
17566.343,-0.69,-0.286,-0.773,-4.12,-58.9,22.95,2,5
17566.359,-0.696,-0.262,-0.776,-5.07,-59.82,20.69,2,5
17566.359,-0.696,-0.261,-0.763,-7.05,-60.18,19.65,2,5
17566.375,-0.701,-0.255,-0.749,-6.59,-59.79,20.63,2,5
17566.375,-0.713,-0.245,-0.744,-5.19,-59.66,22.19,2,5
17566.39,-0.727,-0.231,-0.749,-4.46,-59.72,23.83,2,5
17566.406,-0.737,-0.231,-0.748,-5.25,-59.66,24.51,2,5
17566.406,-0.747,-0.234,-0.736,-6.81,-59.57,24.54,2,5
17566.421,-0.753,-0.23,-0.729,-6.99,-59.79,26.12,2,5
17566.437,-0.754,-0.208,-0.728,-5.71,-59.48,30.0,2,5
17566.437,-0.753,-0.184,-0.736,-3.69,-58.26,35.46,2,5
17566.453,-0.763,-0.163,-0.742,-1.68,-55.6,42.09,2,5
17566.468,-0.777,-0.159,-0.725,0.58,-51.48,48.16,2,5
17566.468,-0.802,-0.169,-0.694,2.72,-47.67,52.1,2,5
17566.484,-0.837,-0.183,-0.657,3.78,-46.24,53.74,2,5
17566.5,-0.839,-0.203,-0.633,2.75,-48.19,53.32,2,5
17566.5,-0.823,-0.214,-0.62,-0.06,-52.61,50.23,2,5
17566.515,-0.812,-0.219,-0.619,-3.94,-57.53,45.66,2,5
17566.515,-0.807,-0.221,-0.624,-7.54,-61.53,40.31,2,5
17566.531,-0.808,-0.224,-0.629,-10.04,-63.75,35.34,2,5
17566.546,-0.821,-0.216,-0.636,-11.44,-64.18,30.46,2,5
17566.546,-0.84,-0.205,-0.625,-12.76,-64.58,25.33,2,5
17566.562,-0.846,-0.223,-0.611,-12.45,-62.26,22.89,2,5
17566.578,-0.858,-0.19,-0.602,-10.38,-60.98,20.05,2,5
17566.578,-0.88,-0.171,-0.591,-9.7,-59.42,19.14,2,5
17566.593,-0.887,-0.165,-0.57,-9.92,-58.81,19.81,2,5
17566.593,-0.902,-0.154,-0.561,-8.73,-59.27,19.96,2,5
17566.609,-0.908,-0.138,-0.56,-8.3,-60.98,20.75,2,5
17566.625,-0.895,-0.123,-0.562,-9.16,-63.75,21.36,2,5
17566.64,-0.894,-0.12,-0.563,-10.25,-65.55,21.39,2,5
17566.64,-0.899,-0.116,-0.561,-11.02,-66.59,21.97,2,5
17566.656,-0.885,-0.119,-0.555,-11.05,-66.81,23.9,2,5
17566.656,-0.871,-0.118,-0.547,-9.37,-66.1,26.22,2,5
17566.671,-0.869,-0.111,-0.551,-6.99,-64.79,29.11,2,5
17566.687,-0.85,-0.118,-0.544,-5.8,-62.62,33.14,2,5
17566.687,-0.836,-0.128,-0.529,-4.36,-60.43,35.25,2,5
17566.703,-0.857,-0.133,-0.514,-3.14,-58.23,33.97,2,5
17566.718,-0.871,-0.147,-0.488,-4.18,-57.22,31.53,2,5
17566.718,-0.879,-0.151,-0.47,-6.16,-57.28,26.25,2,5
17566.734,-0.898,-0.148,-0.453,-10.32,-59.76,18.31,2,5
17566.734,-0.911,-0.14,-0.428,-15.47,-62.56,10.38,2,5
17566.75,-0.913,-0.134,-0.4,-18.37,-64.73,4.67,2,5
17566.765,-0.909,-0.122,-0.401,-18.1,-68.36,2.23,2,5
17566.765,-0.896,-0.096,-0.415,-15.96,-69.83,2.14,2,5
17566.781,-0.892,-0.093,-0.425,-14.1,-67.45,3.69,2,5
17566.796,-0.899,-0.1,-0.429,-12.67,-64.91,4.76,2,5
17566.796,-0.898,-0.111,-0.429,-11.69,-62.93,4.76,2,5
17566.812,-0.908,-0.106,-0.43,-11.57,-60.15,3.23,2,5
17566.828,-0.91,-0.098,-0.413,-11.81,-57.01,2.11,2,5
17566.828,-0.938,-0.069,-0.383,-12.7,-53.62,0.0,2,5
17566.843,-0.943,-0.067,-0.359,-13.28,-54.08,-0.09,2,5
17566.859,-0.955,-0.047,-0.338,-12.15,-54.38,1.13,2,5
17566.859,-0.952,-0.032,-0.326,-10.47,-54.81,3.42,2,5
17566.875,-0.96,-0.028,-0.318,-9.4,-54.96,6.26,2,5
17566.875,-0.962,-0.025,-0.31,-8.79,-55.7,9.83,2,5
17566.89,-0.969,-0.03,-0.302,-7.84,-55.48,14.56,2,5
17566.906,-0.964,-0.011,-0.299,-5.8,-54.72,20.08,2,5
17566.921,-0.963,0.015,-0.309,-3.36,-53.62,26.18,2,5
17566.921,-0.978,0.042,-0.319,-2.62,-52.16,32.14,2,5
17566.937,-1.005,0.036,-0.32,-3.17,-50.05,38.24,2,5
17566.937,-1.015,0.031,-0.31,-2.93,-47.46,43.58,2,5
17566.953,-1.019,0.038,-0.302,-1.28,-45.11,47.4,2,5
17566.968,-1.009,0.062,-0.29,-0.55,-43.34,50.29,2,5
17566.968,-1.009,0.066,-0.257,-1.98,-40.71,53.8,2,5
17566.984,-1.036,0.052,-0.224,-2.66,-41.32,54.2,2,5
17566.984,-1.049,0.028,-0.191,-3.3,-43.37,52.98,2,5
17567.0,-1.047,0.012,-0.17,-4.43,-47.0,49.56,2,5
17567.015,-1.026,0.003,-0.172,-7.54,-50.87,44.8,2,5
17567.015,-1.003,-0.011,-0.177,-11.38,-54.38,39.89,2,5
17567.031,-0.988,-0.035,-0.18,-13.34,-55.6,34.49,2,5
17567.046,-0.987,-0.035,-0.186,-13.4,-56.67,27.28,2,5
17567.046,-0.974,-0.019,-0.189,-14.95,-57.44,18.65,2,5
17567.062,-0.97,-0.007,-0.173,-18.98,-55.88,11.69,2,5
17567.078,-0.966,-0.025,-0.15,-20.94,-54.99,7.17,2,5
17567.078,-0.963,-0.025,-0.14,-18.68,-55.02,4.27,2,5
17567.093,-0.975,-0.001,-0.133,-15.9,-55.18,2.04,2,5
17567.109,-0.989,0.02,-0.128,-15.32,-55.6,-0.21,2,5
17567.109,-0.984,0.033,-0.11,-16.97,-56.4,-2.72,2,5
17567.125,-0.996,0.035,-0.087,-18.86,-56.86,-5.62,2,5
17567.14,-1.005,0.039,-0.073,-19.71,-57.92,-7.39,2,5
17567.14,-1.009,0.043,-0.071,-19.41,-59.72,-7.97,2,5
17567.156,-1.012,0.054,-0.083,-19.17,-61.65,-8.73,2,5
17567.156,-1.005,0.072,-0.088,-20.33,-62.81,-9.22,2,5
17567.171,-1.025,0.081,-0.077,-21.73,-62.01,-9.16,2,5
17567.187,-1.047,0.086,-0.055,-21.06,-60.0,-7.84,2,5
17567.187,-1.044,0.103,-0.032,-19.2,-58.57,-5.22,2,5
17567.203,-1.064,0.114,-0.01,-17.37,-58.38,-2.78,2,5
17567.218,-1.07,0.106,0.012,-17.12,-59.57,-0.24,2,5
17567.218,-1.096,0.072,0.038,-16.88,-60.52,1.89,2,5
17567.234,-1.104,0.044,0.05,-14.89,-62.47,3.81,2,5
17567.234,-1.066,0.047,0.05,-13.31,-64.76,3.6,2,5
17567.25,-1.047,0.043,0.048,-14.62,-67.54,0.73,2,5
17567.265,-1.017,0.035,0.047,-18.43,-70.5,-3.51,2,5
17567.265,-0.983,0.025,0.054,-21.33,-72.54,-7.69,2,5
17567.281,-0.947,0.007,0.049,-21.97,-73.55,-10.25,2,5
17567.296,-0.886,0.013,0.035,-21.39,-74.28,-11.23,2,5
17567.296,-0.862,0.011,0.025,-20.11,-72.94,-11.29,2,5
17567.312,-0.859,-0.002,0.021,-18.95,-69.64,-10.62,2,5
17567.328,-0.845,0.002,0.032,-16.69,-64.7,-10.5,2,5
17567.328,-0.847,0.001,0.059,-14.59,-58.72,-10.77,2,5
17567.343,-0.858,-0.001,0.098,-12.88,-53.74,-11.11,2,5
17567.343,-0.865,-0.007,0.146,-11.41,-50.72,-11.63,2,5
17567.359,-0.868,-0.012,0.186,-10.74,-50.14,-12.21,2,5
17567.375,-0.861,-0.015,0.213,-10.01,-51.52,-12.12,2,5
17567.375,-0.856,-0.024,0.222,-9.28,-53.65,-10.96,2,5
17567.39,-0.829,-0.03,0.209,-9.03,-56.86,-10.96,2,5
17567.406,-0.788,-0.039,0.179,-9.43,-59.39,-12.45,2,5
17567.406,-0.788,-0.055,0.171,-10.56,-58.47,-15.17,2,5
17567.421,-0.812,-0.09,0.187,-11.02,-54.38,-17.64,2,5
17567.437,-0.801,-0.089,0.206,-9.22,-50.11,-19.87,2,5
17567.437,-0.813,-0.085,0.23,-6.1,-45.29,-21.3,2,5
17567.453,-0.826,-0.065,0.248,-3.48,-41.63,-20.57,2,5
17567.453,-0.845,-0.05,0.269,-1.37,-39.77,-19.1,2,5
17567.468,-0.886,-0.044,0.295,0.31,-39.16,-17.0,2,5
17567.484,-0.922,-0.041,0.305,2.66,-39.09,-14.28,2,5
17567.5,-0.929,-0.015,0.299,3.85,-39.92,-11.99,2,5
17567.5,-0.934,-0.01,0.299,3.94,-40.59,-10.07,2,5
17567.515,-0.905,0.009,0.293,3.39,-41.14,-7.97,2,5
17567.515,-0.892,0.027,0.291,1.98,-40.96,-5.98,2,5
17567.531,-0.897,0.004,0.301,0.92,-39.77,-1.4,2,5
17567.546,-0.882,-0.01,0.292,4.06,-39.19,3.91,2,5
17567.562,-0.893,0.003,0.28,8.58,-38.12,7.32,2,5
17567.562,-0.899,0.009,0.279,9.0,-36.16,9.34,2,5
17567.578,-0.904,0.006,0.296,8.15,-33.78,10.5,2,5
17567.578,-0.905,0.008,0.319,7.97,-31.59,11.29,2,5
17567.593,-0.874,0.021,0.334,8.94,-31.07,11.78,2,5
17567.609,-0.861,0.042,0.338,9.19,-31.74,12.24,2,5
17567.609,-0.87,0.023,0.346,7.23,-32.38,13.28,2,5
17567.625,-0.85,-0.002,0.34,5.92,-34.58,14.04,2,5
17567.625,-0.826,0.0,0.322,6.71,-36.04,13.4,2,5
17567.64,-0.829,0.005,0.311,6.71,-35.52,11.26,2,5
17567.656,-0.83,-0.014,0.322,5.55,-33.51,8.79,2,5
17567.656,-0.792,-0.003,0.331,4.82,-32.23,5.71,2,5
17567.671,-0.764,0.012,0.328,4.94,-31.59,3.36,2,5
17567.687,-0.695,0.043,0.301,3.85,-32.35,2.5,2,5
17567.687,-0.625,0.061,0.271,2.17,-32.96,2.23,2,5
17567.703,-0.62,0.042,0.263,0.31,-29.82,3.39,2,5
17567.718,-0.646,0.004,0.276,0.73,-23.99,5.65,2,5
17567.718,-0.657,-0.02,0.288,4.21,-17.61,7.78,2,5
17567.734,-0.66,-0.003,0.3,7.29,-11.72,8.24,2,5
17567.734,-0.654,0.021,0.319,6.93,-8.42,5.77,2,5
17567.75,-0.681,0.026,0.356,3.85,-6.99,1.19,2,5
17567.765,-0.728,0.009,0.4,0.4,-6.84,-2.99,2,5
17567.781,-0.741,0.016,0.417,-0.18,-9.13,-6.47,2,5
17567.781,-0.745,0.028,0.412,-0.34,-12.39,-9.13,2,5
17567.796,-0.709,0.037,0.388,-2.93,-16.27,-11.69,2,5
17567.796,-0.685,0.034,0.365,-5.98,-18.86,-15.53,2,5
17567.812,-0.714,0.01,0.346,-8.73,-17.46,-18.22,2,5
17567.828,-0.759,-0.014,0.366,-8.06,-12.24,-18.77,2,5
17567.828,-0.771,-0.006,0.378,-5.04,-6.53,-18.01,2,5
17567.843,-0.775,0.026,0.398,-1.83,-1.89,-17.61,2,5
17567.859,-0.806,0.051,0.414,-1.07,0.12,-16.27,2,5
17567.859,-0.829,0.063,0.431,-2.47,0.24,-14.13,2,5
17567.875,-0.846,0.051,0.442,-3.08,-0.27,-11.41,2,5
17567.89,-0.858,0.046,0.449,-2.9,-1.19,-8.82,2,5
17567.89,-0.842,0.051,0.44,-2.26,-2.38,-5.74,2,5
17567.906,-0.828,0.046,0.429,-2.23,-2.99,-1.77,2,5
17567.906,-0.85,0.018,0.431,-2.01,-1.95,2.38,2,5
17567.921,-0.865,0.002,0.429,-0.46,-0.18,5.37,2,5
17567.937,-0.875,-0.006,0.431,1.95,2.32,6.71,2,5
17567.937,-0.875,0.0,0.437,2.53,4.46,5.58,2,5
17567.953,-0.872,0.006,0.448,-0.76,3.81,-0.79,2,5
17567.968,-0.862,0.009,0.461,-3.2,2.14,-3.23,2,5
17567.968,-0.877,-0.004,0.469,-4.64,0.64,-4.21,2,5
17567.984,-0.885,-0.018,0.476,-3.69,-0.49,-4.82,2,5
17567.984,-0.882,-0.009,0.462,-2.08,-0.73,-4.73,2,5
17568.0,-0.873,0.005,0.451,-1.46,-0.79,-4.39,2,5
17568.015,-0.867,0.008,0.448,-1.4,-0.4,-4.09,2,5
17568.015,-0.871,-0.007,0.459,-1.13,0.58,-2.81,2,5
17568.031,-0.873,-0.007,0.456,0.52,1.13,-1.8,2,5
17568.046,-0.878,0.012,0.443,1.56,1.5,-2.44,2,5
17568.046,-0.89,0.019,0.446,-0.09,1.65,-3.05,2,5
17568.062,-0.878,0.017,0.457,-2.41,0.73,-3.27,2,5
17568.078,-0.876,0.017,0.452,-2.62,-0.21,-3.36,2,5
17568.078,-0.875,0.016,0.44,-1.92,-0.76,-2.2,2,5
17568.093,-0.883,0.006,0.428,-0.82,-0.21,-0.4,2,5
17568.109,-0.885,0.002,0.416,0.52,0.82,1.01,2,5
17568.109,-0.887,0.01,0.417,1.77,2.81,1.37,2,5
17568.125,-0.882,0.014,0.429,2.11,5.13,1.37,2,5
17568.125,-0.884,0.016,0.449,2.38,6.16,0.89,2,5
17568.14,-0.897,0.025,0.463,2.35,5.16,0.21,2,5
17568.156,-0.915,0.027,0.473,0.89,3.23,0.34,2,5
17568.156,-0.922,0.015,0.476,-0.52,0.64,1.13,2,5
17568.171,-0.916,0.0,0.473,-1.07,-1.74,1.74,2,5
17568.187,-0.903,0.001,0.461,-0.67,-3.88,2.53,2,5
17568.187,-0.9,-0.006,0.447,-0.06,-4.94,3.57,2,5
17568.203,-0.894,-0.008,0.432,0.12,-5.22,3.91,2,5
17568.203,-0.885,-0.012,0.416,1.01,-4.18,3.3,2,5
17568.218,-0.894,-0.008,0.413,1.68,-1.71,1.53,2,5
17568.234,-0.902,-0.001,0.42,1.13,0.61,-0.76,2,5
17568.234,-0.909,0.002,0.441,-0.46,1.92,-2.99,2,5
17568.25,-0.91,-0.002,0.467,-1.31,1.65,-3.94,2,5
17568.265,-0.912,0.007,0.48,-0.89,-0.43,-4.27,2,5
17568.265,-0.912,0.018,0.472,-1.07,-3.69,-4.33,2,5
17568.281,-0.901,0.025,0.46,-2.87,-6.9,-3.78,2,5
17568.296,-0.886,0.024,0.454,-4.73,-9.34,-2.56,2,5
17568.296,-0.883,0.01,0.448,-5.04,-10.5,-0.12,2,5
17568.312,-0.88,0.003,0.439,-3.36,-10.35,3.27,2,5
17568.328,-0.88,-0.002,0.426,-0.37,-8.51,6.26,2,5
17568.328,-0.88,0.001,0.42,2.17,-6.04,8.42,2,5
17568.343,-0.88,0.008,0.428,3.33,-3.48,9.03,2,5
17568.343,-0.884,-0.004,0.448,4.67,-1.34,8.79,2,5
17568.359,-0.887,0.008,0.484,3.91,-1.68,9.03,2,5
17568.375,-0.892,0.011,0.479,3.72,-3.75,8.64,2,5
17568.375,-0.887,0.024,0.465,2.53,-6.71,8.36,2,5
17568.39,-0.862,0.02,0.446,-0.15,-9.49,8.42,2,5
17568.406,-0.866,-0.005,0.438,-1.86,-10.25,8.0,2,5
17568.406,-0.868,-0.03,0.431,-1.13,-9.19,7.32,2,5
17568.421,-0.861,-0.029,0.421,0.82,-6.93,5.52,2,5
17568.437,-0.866,-0.029,0.422,1.8,-3.6,3.6,2,5
17568.437,-0.863,-0.026,0.44,1.07,-1.13,1.71,2,5
17568.453,-0.862,-0.021,0.456,1.19,-0.06,-0.64,2,5
17568.468,-0.873,-0.007,0.466,1.4,-0.61,-3.33,2,5
17568.468,-0.882,0.01,0.475,-0.15,-2.23,-5.19,2,5
17568.484,-0.888,0.009,0.482,-1.62,-3.85,-5.89,2,5
17568.484,-0.887,0.008,0.486,-1.89,-5.58,-5.52,2,5
17568.5,-0.885,0.008,0.478,-1.19,-6.78,-3.97,2,5
17568.515,-0.884,0.007,0.466,0.7,-6.81,-1.43,2,5
17568.515,-0.87,0.006,0.452,2.81,-5.89,1.25,2,5
17568.531,-0.863,0.011,0.436,3.54,-4.46,2.17,2,5
17568.546,-0.868,0.014,0.431,2.66,-2.56,1.4,2,5
17568.562,-0.87,0.016,0.435,1.25,-0.52,0.24,2,5
17568.562,-0.875,0.014,0.447,0.15,1.22,-0.85,2,5
17568.578,-0.873,0.005,0.46,0.09,1.98,-1.31,2,5
17568.578,-0.875,-0.0,0.471,0.92,2.01,-1.1,2,5
17568.593,-0.876,0.002,0.469,2.01,1.22,-1.19,2,5
17568.609,-0.869,0.01,0.457,1.95,-0.03,-1.74,2,5
17568.609,-0.861,0.013,0.443,0.55,-0.92,-2.81,2,5
17568.625,-0.855,0.012,0.44,-0.92,-1.01,-4.33,2,5
17568.625,-0.862,0.01,0.44,-1.74,-0.27,-6.44,2,5
17568.64,-0.872,0.014,0.44,-1.53,1.1,-7.48,2,5
17568.656,-0.875,0.022,0.445,-0.92,2.5,-7.02,2,5
17568.656,-0.871,0.023,0.455,-0.15,3.45,-5.34,2,5
17568.671,-0.869,0.032,0.454,0.98,4.21,-2.93,2,5
17568.687,-0.873,0.034,0.452,1.86,4.7,-0.52,2,5
17568.687,-0.876,0.031,0.453,2.38,4.7,1.68,2,5
17568.703,-0.871,0.029,0.451,2.84,4.21,2.75,2,5
17568.718,-0.881,0.023,0.448,2.96,3.57,3.2,2,5
17568.718,-0.884,0.019,0.448,2.72,2.87,3.42,2,5
17568.734,-0.881,0.012,0.449,2.14,2.5,2.59,2,5
17568.734,-0.878,0.004,0.45,1.59,2.26,1.16,2,5
17568.75,-0.873,0.008,0.45,1.04,1.53,-0.31,2,5
17568.765,-0.872,0.012,0.447,0.31,0.82,-2.04,2,5
17568.781,-0.868,0.018,0.443,-0.95,0.37,-3.6,2,5
17568.781,-0.872,0.015,0.451,-2.17,0.27,-4.82,2,5
17568.796,-0.877,0.008,0.459,-2.66,0.34,-5.4,2,5
17568.796,-0.883,0.01,0.458,-1.8,0.55,-5.43,2,5
17568.812,-0.892,0.02,0.457,-0.82,0.73,-4.82,2,5
17568.828,-0.897,0.019,0.456,-1.04,0.52,-3.75,2,5
17568.828,-0.893,0.012,0.46,-0.92,-0.31,-2.78,2,5
17568.843,-0.885,0.018,0.457,0.0,-1.01,-1.71,2,5
17568.859,-0.88,0.022,0.448,0.49,-1.22,-0.58,2,5
17568.859,-0.879,0.012,0.449,0.43,-0.98,0.7,2,5
17568.875,-0.875,0.005,0.448,0.7,-0.89,1.5,2,5
17568.875,-0.879,0.005,0.436,1.86,-0.64,1.92,2,5
17568.89,-0.875,0.007,0.433,1.98,-0.09,1.86,2,5
17568.906,-0.876,0.002,0.436,0.7,0.0,0.12,2,5
17568.906,-0.874,0.002,0.435,-0.82,-0.61,-2.11,2,5
17568.921,-0.874,0.007,0.435,-2.08,-0.89,-4.24,2,5
17568.937,-0.882,0.005,0.44,-3.17,-0.55,-5.86,2,5
17568.937,-0.876,0.007,0.449,-2.53,-1.28,-5.92,2,5
17568.953,-0.869,0.017,0.448,-2.04,-1.71,-4.61,2,5
17568.968,-0.87,0.023,0.446,-1.98,-1.92,-2.47,2,5
17568.968,-0.862,0.01,0.439,-1.5,-1.59,-0.4,2,5
17568.984,-0.863,0.01,0.437,-0.37,-0.55,1.31,2,5
17568.984,-0.868,0.002,0.432,0.64,0.82,2.5,2,5
17569.0,-0.863,0.003,0.432,1.43,2.01,3.05,2,5
17569.015,-0.865,0.01,0.436,1.43,2.84,3.2,2,5
17569.015,-0.875,0.001,0.446,0.7,3.05,3.08,2,5
17569.031,-0.881,-0.008,0.453,0.7,2.44,2.26,2,5
17569.046,-0.888,-0.001,0.449,0.49,1.1,0.37,2,5
17569.046,-0.89,0.004,0.442,-0.89,-0.18,-1.8,2,5
17569.062,-0.887,-0.001,0.442,-2.87,-0.95,-3.75,2,5
17569.078,-0.885,-0.005,0.447,-4.0,-1.5,-5.04,2,5
17569.078,-0.883,-0.003,0.449,-3.23,-1.95,-5.07,2,5
17569.093,-0.873,0.004,0.445,-1.77,-1.95,-3.66,2,5
17569.093,-0.871,0.012,0.438,-0.61,-1.65,-1.89,2,5
17569.109,-0.872,0.01,0.434,-0.34,-1.46,-0.24,2,5
17569.125,-0.873,0.009,0.431,-0.61,-0.76,0.55,2,5
17569.125,-0.883,-0.001,0.427,-0.58,0.67,0.58,2,5
17569.14,-0.883,-0.005,0.436,-0.67,2.04,0.34,2,5
17569.156,-0.889,-0.011,0.445,-0.52,2.99,-0.12,2,5
17569.156,-0.892,-0.012,0.452,0.27,3.17,0.06,2,5
17569.171,-0.886,-0.002,0.455,1.16,2.47,0.4,2,5
17569.187,-0.885,0.006,0.446,1.31,1.37,0.18,2,5
17569.187,-0.882,0.008,0.443,-0.12,0.34,-0.31,2,5
17569.203,-0.883,-0.007,0.445,-1.56,-0.31,-1.19,2,5
17569.218,-0.891,-0.018,0.451,-1.28,-0.34,-1.8,2,5
17569.218,-0.893,-0.014,0.447,0.0,-0.24,-2.04,2,5
17569.234,-0.897,-0.008,0.441,1.25,0.49,-2.26,2,5
17569.234,-0.893,0.004,0.437,1.13,0.64,-2.17,2,5
17569.25,-0.892,0.01,0.443,-0.06,0.12,-2.44,2,5
17569.265,-0.897,0.003,0.449,-1.46,-0.92,-3.02,2,5
17569.265,-0.894,0.003,0.452,-2.04,-1.89,-2.9,2,5
17569.281,-0.885,0.006,0.446,-1.68,-2.17,-1.83,2,5
17569.296,-0.881,-0.003,0.439,-0.85,-1.95,-0.09,2,5
17569.312,-0.879,-0.01,0.438,-0.31,-1.74,1.13,2,5
17569.312,-0.885,-0.015,0.439,0.31,-1.8,1.4,2,5
17569.328,-0.886,-0.011,0.427,0.89,-2.2,1.16,2,5
17569.328,-0.873,-0.005,0.414,0.24,-2.23,0.34,2,5
