timestamp,ax,ay,az,gx,gy,gz,orient_label,motion_label
14854.828,-0.152,-0.031,0.991,5.8,-9.09,-0.7,0,1
14854.828,-0.138,-0.035,0.987,7.42,-7.42,-0.58,0,1
14854.843,-0.115,-0.023,0.978,8.61,-4.7,-1.74,0,1
14854.859,-0.142,-0.008,0.973,9.83,-1.53,-3.39,0,1
14854.859,-0.144,0.007,0.985,7.66,-0.4,-4.15,0,1
14854.875,-0.148,0.02,1.002,2.47,0.12,-4.49,0,1
14854.89,-0.145,0.011,1.008,-1.95,-0.4,-5.83,0,1
14854.89,-0.165,0.009,1.011,-3.91,-1.5,-6.5,0,1
14854.906,-0.156,0.008,1.011,-4.55,-3.63,-6.04,0,1
14854.921,-0.167,0.008,1.007,-3.14,-4.67,-5.19,0,1
14854.921,-0.17,0.012,1.004,-1.28,-5.37,-4.43,0,1
14854.937,-0.164,0.016,1.001,-0.52,-6.2,-3.91,0,1
14854.937,-0.168,0.026,0.998,-0.64,-6.81,-4.43,0,1
14854.953,-0.171,0.024,1.001,-0.95,-7.29,-4.7,0,1
14854.968,-0.159,0.029,0.984,-1.37,-8.82,-4.73,0,1
14854.968,-0.156,0.032,0.974,-0.46,-10.13,-4.33,0,1
14854.984,-0.158,0.017,0.963,-0.21,-9.34,-2.9,0,1
14855.0,-0.145,0.002,0.945,-1.16,-7.51,-2.72,0,1
14855.015,-0.142,-0.01,0.956,-2.01,-5.71,-2.9,0,1
14855.031,-0.136,-0.018,0.952,-4.76,-3.05,-4.36,0,1
14855.046,-0.159,-0.014,0.965,-5.16,1.53,-5.62,0,1
14855.046,-0.181,-0.0,0.983,-4.76,3.48,-5.34,0,1
14855.046,-0.172,0.006,0.988,-5.68,2.87,-4.94,0,1
14855.062,-0.173,-0.002,0.986,-6.78,1.68,-5.22,0,1
14855.078,-0.189,-0.001,0.987,-6.65,0.24,-5.13,0,1
14855.078,-0.193,-0.011,0.977,-6.35,-1.83,-4.12,0,1
14855.093,-0.192,-0.028,0.97,-7.72,-3.08,-3.48,0,1
14855.109,-0.192,-0.036,0.988,-9.46,-2.75,-3.6,0,1
14855.109,-0.181,-0.05,1.012,-10.35,-1.68,-3.85,0,1
14855.125,-0.174,-0.056,1.027,-9.09,-1.92,-3.66,0,1
14855.14,-0.188,-0.048,1.024,-5.92,-1.86,-2.75,0,1
14855.14,-0.183,-0.054,1.023,-5.65,-1.83,-1.8,0,1
14855.156,-0.18,-0.07,1.029,-6.99,-1.98,-1.4,0,1
14855.171,-0.197,-0.074,1.036,-10.35,-0.18,-1.01,0,1
14855.187,-0.189,-0.063,1.034,-11.57,-1.46,-1.19,0,1
14855.203,-0.192,-0.052,1.021,-10.93,-2.08,-1.01,0,1
14855.203,-0.179,-0.046,1.013,-10.19,-2.53,-0.21,0,1
14855.218,-0.169,-0.056,1.02,-8.91,-1.62,0.7,0,1
14855.234,-0.172,-0.059,1.019,-7.26,0.43,1.04,0,1
14855.234,-0.172,-0.046,1.017,-5.68,1.22,0.55,0,1
14855.25,-0.173,-0.043,1.014,-2.84,1.07,0.85,0,1
14855.25,-0.161,-0.042,1.005,0.37,0.7,1.46,0,1
14855.265,-0.167,-0.035,1.002,9.03,-0.03,0.92,0,1
14855.281,-0.149,-0.078,1.021,12.15,-4.0,-3.39,0,1
14855.281,-0.199,-0.081,1.025,15.05,-6.26,1.13,0,1
14855.296,-0.166,-0.031,0.961,19.81,-5.95,5.04,0,1
14855.312,-0.175,-0.02,0.947,20.66,-5.16,5.71,0,1
14855.312,-0.175,-0.01,0.929,19.78,-3.63,5.98,0,1
14855.328,-0.186,-0.007,0.928,18.49,-1.86,6.47,0,1
14855.343,-0.196,-0.001,0.922,15.84,0.79,9.89,0,1
14855.359,-0.2,0.003,0.949,11.9,2.38,11.44,0,1
14855.359,-0.211,0.0,0.977,8.94,3.02,12.3,0,1
14855.375,-0.227,0.004,0.995,7.2,1.83,13.43,0,1
14855.39,-0.239,0.006,1.007,6.07,-0.92,15.41,0,1
14855.39,-0.256,-0.005,1.018,6.84,-3.85,18.43,0,1
14855.406,-0.285,-0.016,1.022,9.58,-6.53,21.79,0,1
14855.421,-0.306,-0.018,1.022,12.42,-9.34,24.54,0,1
14855.421,-0.297,-0.02,1.013,14.89,-12.42,26.37,0,1
14855.437,-0.281,-0.016,1.002,17.43,-15.23,27.41,0,1
14855.453,-0.28,0.001,0.995,20.29,-16.3,27.95,0,1
14855.453,-0.288,0.019,0.991,21.55,-16.6,28.93,0,1
14855.468,-0.3,0.037,0.984,22.71,-17.49,30.7,0,1
14855.468,-0.296,0.051,0.971,24.66,-19.68,33.39,0,1
14855.484,-0.303,0.074,0.952,27.53,-21.91,36.87,0,1
14855.5,-0.241,0.085,0.933,30.34,-24.29,41.47,0,1
14855.515,-0.225,0.077,0.911,36.99,-23.26,52.67,0,1
14855.531,-0.214,0.064,0.918,38.27,-20.02,56.83,0,1
14855.531,-0.243,0.048,0.924,39.55,-16.02,59.24,0,1
14855.546,-0.267,0.031,0.92,40.28,-12.88,60.27,0,1
14855.562,-0.262,0.039,0.922,38.45,-9.67,60.18,0,1
14855.562,-0.205,0.073,0.934,34.09,-7.17,58.6,0,1
14855.578,-0.161,0.097,0.945,28.08,-6.96,56.64,0,1
14855.593,-0.213,0.109,0.957,24.63,-5.83,56.67,0,1
14855.593,-0.259,0.111,0.975,21.52,-6.26,58.44,0,1
14855.609,-0.278,0.107,0.986,18.86,-11.26,60.43,0,1
14855.609,-0.255,0.093,0.968,20.2,-19.81,63.2,0,1
14855.625,-0.196,0.095,0.939,21.52,-28.26,66.1,0,1
14855.64,-0.154,0.102,0.905,19.78,-33.51,67.54,0,1
14855.656,-0.144,0.09,0.884,16.91,-33.91,66.56,0,1
14855.656,-0.157,0.068,0.873,14.1,-29.57,64.09,0,1
14855.671,-0.155,0.057,0.868,11.08,-23.13,60.18,0,1
14855.687,-0.086,0.085,0.853,1.95,-11.93,50.84,0,1
14855.703,-0.051,0.099,0.85,-2.47,-7.17,47.64,0,1
14855.703,-0.035,0.128,0.852,-5.19,-2.72,45.93,0,1
14855.718,-0.059,0.137,0.861,-5.95,0.89,44.31,0,1
14855.718,-0.073,0.101,0.897,-5.22,4.58,46.08,0,1
14855.734,-0.096,0.092,0.941,0.34,9.37,46.63,0,1
14855.75,-0.14,0.058,0.975,12.91,13.73,47.46,0,1
14855.75,-0.086,0.015,0.992,28.81,14.47,48.4,0,1
14855.765,0.033,0.035,0.985,46.21,12.15,48.77,0,1
14855.781,0.046,0.07,0.939,61.37,10.77,48.49,0,1
14855.781,0.032,0.085,0.9,67.69,11.32,46.02,0,1
14855.796,0.058,0.13,0.892,64.76,13.79,40.53,0,1
14855.812,0.036,0.151,0.896,58.08,19.5,33.3,0,1
14855.812,-0.002,0.125,0.909,51.88,28.72,27.5,0,1
14855.828,0.053,0.136,0.935,47.7,38.51,21.39,0,1
14855.843,0.13,0.171,0.95,47.67,47.33,14.89,0,1
14855.859,0.024,0.199,0.944,52.28,59.91,8.7,0,1
14855.859,-0.021,0.257,0.965,51.55,60.85,8.06,0,1
14855.875,-0.093,0.291,0.989,48.83,57.56,7.45,0,1
14855.89,-0.06,0.345,1.012,43.98,51.94,5.19,0,1
14855.89,0.022,0.442,1.022,37.87,46.51,0.27,0,1
14855.906,-0.002,0.447,1.003,32.78,40.07,-3.36,0,1
14855.921,-0.015,0.419,0.998,27.86,32.38,-4.18,0,1
14855.921,-0.003,0.396,0.992,24.45,22.46,-3.02,0,1
14855.937,0.025,0.362,0.985,23.99,11.41,-1.04,0,1
14855.953,0.075,0.305,0.989,25.73,1.65,-3.78,0,1
14855.953,0.195,0.283,0.989,25.91,-7.08,-11.08,0,1
14855.968,0.284,0.291,0.97,24.93,-13.18,-21.03,0,1
14855.984,0.284,0.296,0.941,22.16,-16.69,-31.83,0,1
14855.984,0.29,0.283,0.925,16.11,-20.05,-40.13,0,1
14856.0,0.306,0.282,0.93,6.56,-24.45,-45.9,0,1
14856.0,0.297,0.265,0.947,-3.66,-28.2,-47.03,0,1
14856.031,0.277,0.266,0.999,-25.45,-33.3,-44.62,0,1
14856.031,0.191,0.228,1.035,-30.09,-33.51,-42.02,0,1
14856.046,0.122,0.207,1.078,-30.67,-33.36,-37.57,0,1
14856.062,0.079,0.191,1.107,-25.39,-31.34,-33.97,0,1
14856.062,0.019,0.129,1.12,-16.05,-27.68,-30.15,0,1
14856.078,-0.001,0.068,1.135,-4.82,-23.44,-25.73,0,1
14856.078,0.013,0.055,1.137,8.3,-19.35,-22.55,0,1
14856.093,0.034,0.069,1.11,21.06,-17.12,-21.7,0,1
14856.109,0.034,0.133,1.078,30.27,-17.91,-23.01,0,1
14856.109,0.012,0.188,1.04,34.09,-24.08,-24.26,0,1
14856.125,0.001,0.209,1.003,32.84,-33.69,-23.16,0,1
14856.14,-0.011,0.228,0.969,28.9,-43.0,-20.84,0,1
14856.14,-0.038,0.224,0.949,23.8,-48.31,-18.46,0,1
14856.156,-0.067,0.226,0.942,18.86,-48.71,-16.72,0,1
14856.171,-0.081,0.242,0.952,16.6,-45.11,-16.72,0,1
14856.187,-0.102,0.262,0.95,17.49,-39.34,-17.85,0,1
14856.187,-0.119,0.315,0.945,20.75,-31.86,-18.19,0,1
14856.203,-0.147,0.379,0.942,26.43,-24.2,-16.75,0,1
14856.203,-0.165,0.422,0.936,33.66,-16.97,-12.76,0,1
14856.218,-0.153,0.49,0.936,38.7,-10.74,-7.32,0,1
14856.234,-0.144,0.556,0.935,40.07,-5.86,-1.56,0,1
14856.234,-0.141,0.59,0.936,36.81,-3.33,3.81,0,1
14856.25,-0.121,0.591,0.936,22.43,-6.13,12.88,0,1
14856.25,-0.094,0.583,0.94,16.42,-9.74,15.81,0,1
14856.265,-0.083,0.542,0.932,12.02,-12.7,19.2,0,1
14856.281,-0.064,0.412,0.927,10.99,-13.03,22.58,0,1
14856.281,-0.056,0.355,0.935,12.67,-11.38,24.51,0,1
14856.296,-0.056,0.317,0.948,16.48,-8.36,24.32,0,1
14856.312,-0.08,0.292,0.951,20.75,-4.97,23.35,0,1
14856.312,-0.108,0.292,0.955,24.26,-1.74,21.85,0,1
14856.328,-0.108,0.297,0.955,25.76,-0.73,20.08,0,1
14856.343,-0.11,0.309,0.953,26.37,-3.14,16.54,0,1
14856.343,-0.071,0.35,0.937,26.12,-7.23,10.9,0,1
14856.359,-0.032,0.406,0.909,23.35,-11.78,2.69,0,1
14856.359,-0.047,0.451,0.885,17.88,-15.17,-5.19,0,1
14856.375,-0.059,0.487,0.871,8.09,-17.61,-10.77,0,1
14856.39,-0.073,0.495,0.869,-2.81,-18.74,-13.86,0,1
14856.406,-0.11,0.47,0.882,-11.66,-18.71,-13.58,0,1
14856.406,-0.129,0.456,0.905,-15.93,-18.19,-10.68,0,1
14856.421,-0.103,0.443,0.928,-15.93,-16.82,-7.14,0,1
14856.421,-0.067,0.436,0.944,-11.38,-14.37,-3.75,0,1
14856.437,-0.044,0.45,0.954,-4.43,-11.41,-1.1,0,1
14856.453,-0.031,0.44,0.957,2.81,-9.61,2.5,0,1
14856.453,-0.046,0.424,0.96,10.59,-8.48,7.11,0,1
14856.468,-0.06,0.417,0.963,17.15,-7.29,11.11,0,1
14856.468,-0.078,0.407,0.969,19.41,-7.26,12.45,0,1
14856.484,-0.1,0.407,0.981,17.73,-7.32,11.57,0,1
14856.5,-0.083,0.405,0.995,13.25,-9.22,9.16,0,1
14856.5,-0.068,0.375,0.988,9.13,-12.82,6.41,0,1
14856.515,-0.04,0.361,0.978,7.69,-16.63,3.2,0,1
14856.531,-0.023,0.356,0.96,10.22,-20.63,-0.89,0,1
14856.531,-0.014,0.344,0.925,14.95,-25.36,-5.55,0,1
14856.546,0.0,0.348,0.883,20.57,-29.57,-9.25,0,1
14856.562,0.011,0.356,0.831,26.37,-32.9,-12.05,0,1
14856.562,0.024,0.382,0.771,32.69,-33.81,-13.52,0,1
14856.578,0.042,0.414,0.717,37.39,-32.14,-14.56,0,1
14856.578,0.061,0.452,0.677,38.21,-29.24,-17.24,0,1
14856.593,0.058,0.508,0.649,33.42,-25.42,-20.54,0,1
14856.609,0.046,0.555,0.64,20.94,-21.7,-23.1,0,1
14856.609,0.039,0.579,0.664,3.36,-17.33,-23.26,0,1
14856.625,0.031,0.552,0.707,-13.03,-12.33,-20.11,0,1
14856.64,0.019,0.517,0.761,-23.99,-7.11,-15.17,0,1
14856.64,0.022,0.491,0.813,-28.08,-1.28,-10.47,0,1
14856.656,0.033,0.451,0.85,-24.6,4.85,-6.32,0,1
14856.671,0.032,0.41,0.877,-15.47,11.26,-2.56,0,1
14856.671,0.033,0.385,0.904,-5.98,16.24,0.58,0,1
14856.687,0.016,0.399,0.912,2.69,19.65,2.93,0,1
14856.703,-0.047,0.426,0.986,4.7,20.14,3.48,0,1
14856.703,-0.084,0.5,1.12,-11.51,10.01,2.01,0,1
14856.718,-0.052,0.488,1.161,-26.37,-5.92,0.64,0,1
14856.718,0.017,0.365,1.096,-27.1,-16.51,-1.83,0,1
14856.734,-0.045,0.367,1.079,-18.98,-17.46,-5.83,0,1
14856.75,-0.001,0.464,1.103,-10.25,-18.43,-4.82,0,1
14856.75,0.002,0.429,1.048,1.65,-18.71,-2.78,0,1
14856.765,-0.024,0.446,1.009,10.56,-16.3,-2.01,0,1
14856.781,0.001,0.482,0.979,12.88,-14.47,-0.52,0,1
14856.781,-0.001,0.476,0.939,11.02,-12.39,-0.03,0,1
14856.796,0.024,0.459,0.907,5.4,-11.66,0.06,0,1
14856.812,0.042,0.447,0.884,0.55,-11.08,0.12,0,1
14856.812,0.046,0.432,0.87,-3.63,-10.41,-0.06,0,1
14856.828,0.049,0.431,0.876,-8.24,-9.0,0.15,0,1
14856.828,0.024,0.444,0.917,-12.97,-8.7,0.82,0,1
14856.843,0.066,0.432,0.93,-17.58,-12.54,2.56,0,1
14856.859,0.042,0.348,0.893,-12.39,-10.9,2.32,0,1
14856.875,0.022,0.375,0.919,-8.03,-7.78,3.33,0,1
14856.875,0.049,0.388,0.94,-4.58,-6.93,5.74,0,1
14856.89,0.046,0.356,0.927,1.31,-5.46,6.84,0,1
14856.906,0.06,0.362,0.924,5.68,-3.66,6.81,0,1
14856.906,0.046,0.417,0.922,11.08,-1.34,8.27,0,1
14856.921,0.04,0.422,0.9,17.06,0.95,10.96,0,1
14856.921,0.039,0.404,0.898,13.0,2.62,6.65,0,1
14856.937,0.008,0.443,0.913,3.14,3.02,1.28,0,1
14856.953,0.005,0.451,0.918,-5.49,1.31,-0.49,0,1
14856.953,0.004,0.434,0.923,-14.8,-1.31,-1.68,0,1
14856.968,0.01,0.422,0.938,-21.64,-3.97,-2.59,0,1
14856.984,0.02,0.394,0.945,-21.76,-6.26,-2.62,0,1
14856.984,0.034,0.388,0.942,-17.61,-7.2,-2.14,0,1
14857.0,0.044,0.389,0.926,-11.17,-6.87,-0.82,0,1
14857.0,0.053,0.378,0.906,-3.33,-5.37,1.74,0,1
14857.015,0.066,0.373,0.89,4.49,-3.08,4.94,0,1
14857.031,0.067,0.375,0.876,10.59,-0.34,7.75,0,1
14857.046,0.073,0.375,0.847,14.19,3.57,8.24,0,1
14857.062,0.068,0.386,0.838,10.32,4.79,5.95,0,1
14857.062,0.068,0.387,0.84,3.81,4.97,3.05,0,1
14857.078,0.067,0.385,0.846,-3.85,4.06,0.46,0,1
14857.078,0.071,0.385,0.854,-10.28,3.51,-1.83,0,1
14857.093,0.067,0.377,0.864,-13.98,3.51,-3.33,0,1
14857.109,0.064,0.365,0.875,-14.07,4.58,-3.51,0,1
14857.109,0.069,0.364,0.887,-10.8,6.56,-2.69,0,1
14857.125,0.068,0.365,0.888,-5.13,8.91,-1.53,0,1
14857.14,0.063,0.368,0.889,1.01,11.54,-0.24,0,1
14857.156,0.055,0.384,0.89,5.55,13.73,0.58,0,1
14857.156,0.047,0.4,0.889,7.29,14.83,0.73,0,1
14857.171,0.037,0.4,0.89,6.29,14.62,0.55,0,1
14857.171,0.032,0.406,0.894,3.02,12.91,-0.03,0,1
14857.187,0.032,0.404,0.897,-0.89,10.41,-1.1,0,1
14857.203,0.025,0.397,0.903,-3.78,8.12,-1.95,0,1
14857.218,0.021,0.388,0.915,-4.85,5.16,-2.01,0,1
14857.234,0.021,0.384,0.915,-1.92,4.18,-2.62,0,1
14857.234,0.017,0.38,0.917,0.34,4.33,-1.95,0,1
14857.25,0.011,0.375,0.914,2.14,4.97,-1.5,0,1
14857.25,0.001,0.389,0.912,3.17,6.23,-1.95,0,1
14857.265,-0.001,0.394,0.913,3.6,7.05,-2.38,0,1
14857.281,-0.011,0.409,0.921,3.42,7.48,-2.47,0,1
14857.281,-0.014,0.419,0.923,2.41,7.08,-2.35,0,1
14857.296,-0.008,0.415,0.922,1.74,6.2,-2.01,0,1
14857.312,-0.002,0.409,0.92,1.8,5.13,-1.28,0,1
14857.312,-0.003,0.405,0.918,2.53,4.0,-0.76,0,1
14857.328,-0.007,0.402,0.919,3.27,2.9,-0.31,0,1
14857.343,-0.02,0.408,0.928,2.47,2.32,-1.07,0,1
14857.343,-0.026,0.421,0.94,-0.64,1.22,-2.72,0,1
14857.359,-0.029,0.415,0.948,-4.03,-0.61,-3.69,0,1
14857.359,-0.022,0.407,0.947,-5.16,-2.08,-3.39,0,1
14857.375,-0.011,0.398,0.942,-2.93,-2.53,-2.56,0,1
14857.39,-0.001,0.396,0.931,1.13,-2.11,-1.92,0,1
14857.39,0.002,0.405,0.921,4.97,-1.25,-1.13,0,1
14857.406,-0.003,0.415,0.914,6.56,-0.31,-0.34,0,1
14857.421,-0.013,0.421,0.914,5.28,-0.06,-0.12,0,1
14857.421,-0.017,0.424,0.918,1.92,-0.31,-0.06,0,1
14857.437,-0.012,0.413,0.919,-1.53,-1.16,-0.18,0,1
14857.453,-0.008,0.4,0.919,-2.41,-1.98,0.03,0,1
14857.453,0.0,0.388,0.911,-0.7,-2.66,0.76,0,1
14857.468,0.006,0.387,0.904,2.01,-2.59,1.28,0,1
14857.468,0.008,0.395,0.894,4.27,-1.74,1.19,0,1
14857.484,0.01,0.401,0.891,4.7,-0.92,1.37,0,1
14857.5,0.004,0.406,0.895,3.94,-0.34,2.01,0,1
14857.5,0.001,0.411,0.901,2.78,-0.24,2.32,0,1
14857.515,-0.001,0.41,0.905,1.74,-0.79,2.29,0,1
14857.531,-0.001,0.406,0.909,1.19,-1.13,2.2,0,1
14857.531,-0.003,0.405,0.913,1.37,-0.89,2.04,0,1
14857.546,-0.008,0.404,0.916,2.04,-0.55,1.89,0,1
14857.562,-0.008,0.407,0.918,2.5,-0.64,1.77,0,1
14857.562,-0.004,0.407,0.92,2.69,-1.07,1.43,0,1
14857.578,0.001,0.405,0.916,2.72,-1.77,1.22,0,1
14857.578,0.008,0.403,0.913,2.41,-2.9,1.16,0,1
14857.593,0.013,0.403,0.91,1.65,-3.88,0.76,0,1
14857.609,0.022,0.397,0.895,1.13,-4.39,-0.15,0,1
14857.609,0.016,0.399,0.899,1.4,-3.23,-0.49,0,1
14857.625,0.018,0.418,0.902,1.19,-2.23,-0.21,0,1
14857.64,0.018,0.407,0.896,1.71,-1.31,0.15,0,1
14857.64,0.009,0.406,0.899,2.04,-0.31,0.46,0,1
14857.656,0.004,0.41,0.905,2.11,0.31,0.7,0,1
14857.671,0.001,0.407,0.905,1.86,0.34,0.85,0,1
14857.671,0.006,0.402,0.906,1.5,-0.09,1.19,0,1
14857.687,0.006,0.402,0.907,1.22,-0.55,1.25,0,1
14857.703,0.012,0.399,0.907,1.04,-1.04,0.89,0,1
14857.703,0.019,0.396,0.904,0.79,-1.4,0.4,0,1
14857.718,0.02,0.396,0.903,0.61,-1.92,-0.03,0,1
14857.734,0.031,0.396,0.891,1.1,-3.02,-0.09,0,1
14857.75,0.032,0.398,0.884,1.34,-2.59,-0.09,0,1
14857.75,0.031,0.405,0.885,1.59,-1.28,-0.12,0,1
14857.765,0.031,0.411,0.89,1.65,0.55,0.03,0,1
14857.781,0.031,0.412,0.894,1.8,1.83,0.43,0,1
14857.781,0.034,0.416,0.896,2.11,2.47,0.76,0,1
14857.796,0.033,0.424,0.9,2.26,2.38,0.79,0,1
14857.812,0.031,0.428,0.903,2.41,1.68,1.13,0,1
14857.812,0.028,0.43,0.907,2.66,0.89,2.23,0,1
14857.828,0.033,0.43,0.908,3.2,0.03,3.3,0,1
14857.843,0.037,0.421,0.908,4.24,-0.18,3.85,0,1
14857.843,0.035,0.423,0.908,5.28,0.49,3.72,0,1
14857.859,0.037,0.435,0.908,4.79,1.34,2.84,0,1
14857.875,0.042,0.446,0.91,2.62,1.95,1.71,0,1
14857.875,0.052,0.455,0.92,-0.31,2.29,1.1,0,1
14857.89,0.078,0.469,0.935,-1.89,2.72,0.98,0,1
14857.906,0.116,0.527,0.949,-1.98,4.64,1.98,0,1
14857.921,0.132,0.56,0.948,-2.53,5.68,3.66,0,1
14857.921,0.131,0.582,0.943,-4.33,7.11,6.53,0,1
14857.937,0.121,0.588,0.943,-8.18,8.91,10.38,0,1
14857.953,0.116,0.574,0.938,-11.93,12.05,14.89,0,1
14857.953,0.118,0.542,0.932,-13.98,16.36,20.26,0,1
14857.968,0.128,0.514,0.919,-13.25,22.0,26.34,0,1
14857.968,0.129,0.468,0.923,-9.7,27.77,31.31,0,1
14857.984,0.123,0.446,0.931,-5.4,30.64,34.79,0,1
14858.0,0.118,0.404,0.918,0.85,30.52,37.08,0,1
14858.015,0.103,0.387,0.9,5.22,28.84,35.62,0,1
14858.015,0.094,0.386,0.883,5.92,26.03,31.95,0,1
14858.031,0.085,0.382,0.865,2.5,22.06,27.47,0,1
14858.031,0.063,0.375,0.843,-3.17,18.59,23.74,0,1
14858.046,0.033,0.372,0.828,-9.25,17.15,19.87,0,1
14858.062,0.016,0.371,0.838,-16.08,17.15,15.63,0,1
14858.062,0.001,0.361,0.859,-20.69,18.04,12.73,0,1
14858.078,-0.016,0.343,0.854,-20.91,19.53,12.94,0,1
14858.078,-0.021,0.353,0.846,-17.82,21.76,16.11,0,1
14858.093,-0.002,0.353,0.838,-10.16,24.72,20.57,0,1
14858.109,0.005,0.347,0.822,-1.59,27.62,23.07,0,1
14858.125,0.002,0.344,0.81,5.16,29.24,23.07,0,1
14858.125,-0.014,0.335,0.778,8.61,29.97,20.94,0,1
14858.14,-0.049,0.351,0.774,5.37,30.7,16.82,0,1
14858.14,-0.106,0.312,0.783,-2.17,29.88,14.44,0,1
14858.156,-0.095,0.374,0.814,-11.66,28.63,10.56,0,1
14858.171,-0.159,0.384,0.831,-20.48,30.12,3.54,0,1
14858.171,-0.185,0.338,0.88,-31.56,29.82,0.46,0,1
14858.187,-0.2,0.337,0.915,-36.65,29.24,-1.46,0,1
14858.203,-0.202,0.344,0.918,-34.85,29.24,-1.8,0,1
14858.203,-0.213,0.309,0.914,-24.29,28.6,-3.02,0,1
14858.218,-0.189,0.298,0.919,-20.94,25.7,-8.18,0,1
14858.234,-0.203,0.277,0.881,-25.21,21.45,-13.18,0,1
14858.25,-0.172,0.232,0.784,-32.69,21.79,-21.52,0,1
14858.25,-0.316,0.361,0.897,-38.39,24.54,-23.71,0,1
14858.265,-0.32,0.337,1.096,-35.58,19.26,-15.08,0,1
14858.281,-0.565,0.461,1.309,-29.69,4.55,-8.18,0,1
14858.281,-0.417,0.308,1.272,-18.83,-18.22,5.58,0,1
14858.296,-0.317,0.242,1.01,-21.76,-31.95,2.04,0,1
14858.312,-0.255,0.213,0.941,-18.92,-17.91,-0.09,0,1
14858.312,-0.204,0.182,0.972,-2.41,4.33,-0.27,0,1
14858.328,-0.226,0.208,0.953,11.51,19.01,0.64,0,1
14858.343,-0.258,0.252,0.916,17.79,27.95,2.23,0,1
14858.343,-0.297,0.295,0.968,19.81,35.74,4.06,0,1
14858.359,-0.329,0.336,1.032,19.17,36.96,2.47,0,1
14858.359,-0.342,0.332,1.12,16.91,30.98,-1.74,0,1
14858.375,-0.455,0.37,1.109,9.37,15.9,-11.08,0,1
14858.39,-0.257,0.245,1.132,-0.73,-1.31,-12.09,0,1
14858.406,-0.353,0.295,1.021,-17.3,-19.04,-28.93,0,1
14858.421,-0.24,0.187,1.026,-17.33,-39.89,-27.53,0,1
14858.421,-0.206,0.189,0.989,-7.42,-48.98,-26.09,0,1
14858.437,-0.161,0.18,0.921,6.2,-54.87,-23.9,0,1
14858.453,-0.122,0.197,0.885,19.2,-56.22,-22.8,0,1
14858.453,-0.068,0.229,0.858,28.26,-57.01,-23.35,0,1
14858.468,-0.038,0.277,0.823,32.26,-57.37,-25.88,0,1
14858.468,-0.017,0.351,0.789,28.23,-56.79,-29.79,0,1
14858.484,0.023,0.383,0.77,17.61,-56.64,-33.42,0,1
14858.5,0.05,0.395,0.751,5.86,-55.79,-35.71,0,1
14858.5,0.078,0.403,0.739,-2.04,-52.98,-34.64,0,1
14858.515,0.114,0.38,0.738,-6.38,-47.4,-32.44,0,1
14858.531,0.139,0.379,0.754,-7.05,-39.4,-30.52,0,1
14858.531,0.153,0.391,0.765,-3.75,-29.85,-29.05,0,1
14858.546,0.157,0.398,0.774,-1.07,-20.05,-27.47,0,1
14858.562,0.163,0.412,0.799,-0.4,-11.81,-24.75,0,1
14858.562,0.151,0.417,0.826,0.34,-6.2,-20.66,0,1
14858.593,0.15,0.404,0.863,6.59,1.01,-9.74,0,1
14858.593,0.149,0.378,0.889,9.74,3.17,-5.1,0,1
14858.609,0.144,0.368,0.896,13.98,3.81,-2.11,0,1
14858.609,0.14,0.377,0.888,19.23,4.52,-0.4,0,1
14858.625,0.113,0.385,0.872,23.44,6.41,0.12,0,1
14858.64,0.078,0.395,0.854,25.45,10.65,0.64,0,1
14858.64,0.043,0.398,0.854,24.9,17.24,1.77,0,1
14858.656,-0.051,0.419,0.907,19.14,23.99,1.31,0,1
14858.671,-0.117,0.519,1.059,-1.53,21.45,-0.27,0,1
14858.671,-0.104,0.496,1.141,-22.77,8.36,-1.89,0,1
14858.687,-0.074,0.373,1.104,-27.1,-3.63,-4.12,0,1
14858.703,-0.102,0.326,1.102,-16.82,-8.21,-7.29,0,1
14858.703,-0.107,0.449,1.133,-8.82,-16.11,-6.44,0,1
14858.718,-0.08,0.396,1.061,6.26,-23.74,-1.92,0,1
14858.718,-0.096,0.396,0.99,15.96,-28.29,1.86,0,1
14858.734,-0.05,0.43,0.947,18.74,-29.36,5.01,0,1
14858.75,-0.055,0.411,0.9,15.44,-21.49,6.65,0,1
14858.765,-0.061,0.406,0.899,11.84,-14.89,6.93,0,1
14858.781,-0.062,0.395,0.908,10.32,-7.29,6.87,0,1
14858.781,-0.063,0.399,0.924,9.37,-1.71,5.77,0,1
14858.796,-0.065,0.413,0.936,8.18,0.79,4.7,0,1
14858.812,-0.063,0.409,0.934,7.39,0.95,4.61,0,1
14858.812,-0.063,0.384,0.931,7.23,-0.06,5.68,0,1
14858.828,-0.066,0.378,0.932,6.81,-0.92,6.35,0,1
14858.843,-0.062,0.373,0.925,6.07,-1.13,6.44,0,1
14858.843,-0.072,0.351,0.93,5.13,-0.4,6.59,0,1
14858.859,-0.066,0.376,0.967,-0.98,-2.01,6.26,0,1
14858.875,-0.022,0.31,0.925,-0.21,-3.2,6.99,0,1
14858.875,-0.061,0.287,0.903,7.23,0.55,5.46,0,1
14858.89,-0.046,0.373,0.949,8.3,0.73,6.84,0,1
14858.89,-0.08,0.428,0.895,18.04,0.34,13.58,0,1
14858.906,-0.016,0.366,0.871,23.65,0.06,17.73,0,1
14858.921,-0.0,0.351,0.866,15.44,-2.38,12.39,0,1
14858.921,-0.02,0.365,0.862,7.35,-4.09,6.99,0,1
14858.937,-0.008,0.353,0.86,1.8,-4.82,5.52,0,1
14858.953,0.002,0.323,0.868,-5.65,-5.46,3.23,0,1
14858.953,-0.002,0.309,0.887,-11.11,-5.25,-0.03,0,1
14858.968,0.0,0.309,0.906,-11.6,-4.15,-2.69,0,1
14858.968,0.002,0.305,0.913,-9.43,-2.69,-4.82,0,1
14858.984,-0.007,0.315,0.921,-6.65,-1.07,-6.23,0,1
14859.0,-0.011,0.328,0.93,-3.51,0.49,-6.59,0,1
14859.0,-0.008,0.333,0.928,-0.4,1.5,-6.53,0,1
14859.015,-0.009,0.342,0.923,1.59,2.44,-5.98,0,1
14859.031,-0.009,0.35,0.92,2.78,3.02,-5.49,0,1
14859.031,-0.006,0.354,0.919,3.91,3.11,-5.1,0,1
14859.046,-0.011,0.361,0.914,4.18,2.9,-5.01,0,1
14859.062,-0.021,0.38,0.912,2.08,2.35,-5.58,0,1
14859.062,-0.021,0.39,0.915,-0.82,2.11,-6.81,0,1
14859.078,-0.026,0.392,0.916,-3.17,2.11,-7.29,0,1
14859.093,-0.032,0.396,0.918,-4.97,2.44,-7.26,0,1
14859.093,-0.032,0.396,0.925,-6.32,3.05,-6.81,0,1
14859.109,-0.029,0.392,0.928,-6.26,3.69,-6.1,0,1
14859.109,-0.028,0.386,0.93,-4.64,4.12,-4.82,0,1
14859.125,-0.029,0.38,0.931,-2.11,4.21,-3.14,0,1
14859.14,-0.025,0.378,0.93,0.85,4.27,-1.25,0,1
14859.14,-0.019,0.382,0.928,3.33,4.3,0.49,0,1
14859.156,-0.009,0.376,0.923,4.67,4.03,1.4,0,1
14859.171,-0.005,0.375,0.918,4.43,3.51,1.19,0,1
14859.171,-0.003,0.377,0.914,1.95,2.96,0.0,0,1
14859.187,0.0,0.369,0.911,-3.14,2.38,-1.56,0,1
14859.203,-0.002,0.364,0.914,-3.66,2.78,-1.92,0,1
14859.203,-0.008,0.364,0.924,-3.2,3.14,-2.23,0,1
14859.218,-0.021,0.369,0.933,-2.29,3.23,-2.32,0,1
14859.234,-0.042,0.39,0.953,-1.13,2.44,-1.83,0,1
14859.234,-0.049,0.391,0.955,0.18,1.13,-0.89,0,1
14859.25,-0.053,0.391,0.952,1.5,-0.34,0.18,0,1
14859.265,-0.05,0.39,0.946,2.69,-1.68,0.73,0,1
14859.281,-0.049,0.386,0.927,3.11,-2.69,0.55,0,1
14859.281,-0.046,0.383,0.92,2.35,-2.53,0.0,0,1
14859.296,-0.045,0.382,0.918,1.59,-2.2,-0.52,0,1
14859.312,-0.044,0.387,0.916,0.61,-2.08,-0.95,0,1
14859.312,-0.046,0.385,0.912,-0.37,-2.26,-1.13,0,1
14859.328,-0.05,0.384,0.914,-0.95,-2.14,-1.19,0,1
14859.343,-0.047,0.379,0.919,-0.89,-2.26,-1.19,0,1
14859.343,-0.047,0.373,0.92,-0.43,-2.59,-1.07,0,1
14859.359,-0.049,0.368,0.919,0.55,-2.56,-0.92,0,1
14859.375,-0.047,0.367,0.917,1.43,-2.2,-1.07,0,1
14859.375,-0.048,0.367,0.917,1.43,-1.46,-1.5,0,1
14859.39,-0.054,0.366,0.919,0.98,-1.28,-2.08,0,1
14859.39,-0.054,0.365,0.922,0.31,-1.34,-2.93,0,1
14859.406,-0.054,0.364,0.922,-0.4,-1.65,-3.63,0,1
14859.421,-0.057,0.365,0.921,-0.4,-1.92,-4.3,0,1
14859.421,-0.051,0.368,0.919,0.12,-2.29,-4.7,0,1
14859.453,-0.054,0.372,0.911,0.49,-2.14,-6.01,0,1
14859.453,-0.051,0.378,0.914,-0.98,-1.71,-7.69,0,1
14859.468,-0.057,0.379,0.915,-1.98,-1.01,-7.69,0,1
14859.484,-0.061,0.377,0.917,-2.38,0.06,-6.78,0,1
14859.484,-0.064,0.375,0.929,-2.66,1.16,-6.65,0,1
14859.5,-0.068,0.375,0.939,-2.44,1.43,-6.56,0,1
14859.5,-0.065,0.374,0.943,-2.17,0.76,-6.07,0,1
14859.515,-0.063,0.368,0.938,-1.92,-0.37,-5.62,0,1
14859.531,-0.058,0.366,0.935,-1.98,-1.34,-5.58,0,1
14859.531,-0.053,0.367,0.928,-1.95,-1.95,-5.62,0,1
14859.546,-0.054,0.364,0.918,-2.08,-2.17,-5.58,0,1
14859.562,-0.051,0.359,0.917,-2.69,-2.29,-5.62,0,1
14859.562,-0.047,0.359,0.913,-3.02,-2.17,-5.74,0,1
14859.578,-0.044,0.363,0.916,-2.9,-1.28,-5.68,0,1
14859.578,-0.043,0.36,0.919,-2.69,-0.79,-5.49,0,1
14859.593,-0.044,0.364,0.926,-2.59,-0.61,-4.85,0,1
14859.609,-0.043,0.36,0.934,-1.56,-0.37,-3.72,0,1
14859.625,-0.038,0.358,0.933,-0.7,-0.7,-3.66,0,1
14859.64,-0.036,0.357,0.924,0.49,-0.89,-3.69,0,1
14859.64,-0.03,0.36,0.919,1.07,-1.37,-3.51,0,1
14859.656,-0.022,0.361,0.91,1.07,-1.89,-3.11,0,1
14859.671,-0.017,0.358,0.902,1.07,-2.14,-2.69,0,1
14859.671,-0.017,0.366,0.9,1.25,-1.56,-2.56,0,1
14859.687,-0.015,0.375,0.899,1.1,-0.85,-2.47,0,1
14859.703,-0.017,0.374,0.899,1.56,-0.4,-1.89,0,1
14859.703,-0.022,0.378,0.901,2.78,0.21,-0.73,0,1
14859.718,-0.029,0.383,0.903,3.94,0.85,0.4,0,1
14859.718,-0.033,0.383,0.905,4.09,1.13,0.76,0,1
14859.734,-0.037,0.387,0.908,3.63,1.13,0.49,0,1
14859.75,-0.041,0.396,0.915,2.53,0.89,0.21,0,1
14859.75,-0.039,0.4,0.919,1.5,0.06,0.46,0,1
14859.765,-0.042,0.396,0.921,0.85,-0.92,0.76,0,1
14859.781,-0.047,0.395,0.923,0.34,-1.37,0.7,0,1
14859.781,-0.049,0.393,0.923,0.15,-1.83,0.52,0,1
14859.796,-0.053,0.389,0.922,0.37,-2.11,0.85,0,1
14859.812,-0.051,0.385,0.924,0.67,-2.11,0.98,0,1
14859.812,-0.048,0.381,0.921,0.55,-1.86,0.85,0,1
14859.828,-0.046,0.379,0.921,0.18,-1.8,0.89,0,1
14859.828,-0.044,0.372,0.919,0.03,-1.68,1.04,0,1
14859.843,-0.04,0.37,0.917,-0.34,-1.5,0.95,0,1
14859.859,-0.036,0.367,0.92,-0.76,-1.95,0.46,0,1
14859.859,-0.034,0.362,0.915,-0.76,-2.44,-0.06,0,1
14859.875,-0.039,0.36,0.911,-0.4,-2.87,-0.15,0,1
14859.89,-0.043,0.359,0.914,-0.06,-2.96,0.0,0,1
14859.906,-0.049,0.363,0.918,0.37,-2.47,0.06,0,1
14859.906,-0.057,0.369,0.925,0.64,-1.71,-0.09,0,1
14859.921,-0.062,0.374,0.934,0.18,-1.25,-0.34,0,1
14859.921,-0.066,0.368,0.945,-0.12,-1.46,-0.34,0,1
14859.937,-0.065,0.367,0.945,0.4,-1.83,-0.15,0,1
14859.953,-0.06,0.366,0.937,1.34,-2.17,0.0,0,1
14859.953,-0.055,0.361,0.931,2.62,-2.35,-0.06,0,1
14859.968,-0.05,0.364,0.921,3.63,-2.26,0.03,0,1
14859.968,-0.047,0.368,0.915,3.6,-2.04,-0.15,0,1
14859.984,-0.045,0.371,0.911,2.99,-1.86,-0.27,0,1
14860.0,-0.049,0.378,0.912,2.66,-1.62,-0.4,0,1
14860.015,-0.051,0.385,0.91,2.23,-1.5,-0.4,0,1
14860.015,-0.05,0.385,0.908,1.77,-1.56,-0.18,0,1
14860.031,-0.05,0.38,0.905,1.8,-1.28,0.34,0,1
14860.031,-0.052,0.379,0.908,2.14,-0.49,0.85,0,1
14860.046,-0.054,0.379,0.909,1.86,0.12,0.92,0,1
14860.062,-0.057,0.381,0.914,0.82,0.43,0.61,0,1
14860.062,-0.061,0.381,0.925,-0.12,0.58,0.37,0,1
14860.078,-0.061,0.383,0.931,-0.79,0.27,0.15,0,1
14860.093,-0.058,0.378,0.935,-1.28,-0.7,0.31,0,1
14860.093,-0.054,0.374,0.93,-1.25,-1.56,0.21,0,1
14860.109,-0.05,0.374,0.923,-0.58,-1.95,0.15,0,1
14860.125,-0.047,0.378,0.918,-0.15,-1.86,0.09,0,1
14860.14,-0.037,0.377,0.914,-1.4,-2.56,-0.15,0,1
14860.14,-0.046,0.381,0.913,-1.77,-2.11,-0.37,0,1
14860.156,-0.047,0.387,0.924,-2.26,-1.65,-0.37,0,1
14860.171,-0.046,0.389,0.936,-2.9,-2.72,-0.43,0,1
14860.171,-0.048,0.373,0.934,-1.59,-2.44,0.31,0,1
14860.187,-0.048,0.376,0.937,0.0,-2.59,1.37,0,1
14860.203,-0.044,0.378,0.942,2.01,-3.11,2.08,0,1
14860.203,-0.041,0.378,0.935,3.88,-4.12,2.44,0,1
14860.218,-0.038,0.381,0.926,4.82,-5.89,2.38,0,1
14860.218,-0.034,0.38,0.914,4.58,-7.66,2.35,0,1
14860.234,-0.031,0.369,0.914,3.69,-9.4,2.11,0,1
14860.25,-0.026,0.369,0.903,2.53,-11.63,1.43,0,1
14860.25,-0.021,0.372,0.891,1.16,-13.61,0.31,0,1
14860.265,-0.011,0.365,0.883,-0.46,-14.98,-1.1,0,1
14860.281,-0.005,0.351,0.86,-1.19,-14.4,-2.2,0,1
14860.281,0.004,0.355,0.834,-0.7,-10.44,-2.84,0,1
14860.312,0.061,0.307,0.775,4.82,11.23,-5.95,0,1
14860.312,0.073,0.287,0.701,11.78,32.72,-9.83,0,1
14860.328,-0.021,0.323,0.595,23.38,59.69,-11.38,0,1
14860.328,-0.164,0.483,0.99,27.83,81.97,-5.04,0,1
14860.343,-0.303,0.624,1.385,16.27,64.33,6.47,0,1
14860.359,-0.261,0.512,1.354,-10.62,16.36,14.07,0,1
14860.359,-0.135,0.304,1.162,-27.38,-17.58,6.56,0,1
14860.375,-0.072,0.279,1.044,-23.44,-25.03,-5.07,0,1
14860.39,-0.068,0.337,0.946,-4.03,-16.51,-8.55,0,1
14860.39,-0.087,0.392,0.874,13.76,-3.42,-3.2,0,1
14860.406,-0.091,0.435,0.838,20.78,7.39,3.27,0,1
14860.421,-0.094,0.456,0.845,19.01,13.76,7.14,0,1
14860.437,-0.103,0.46,0.861,11.32,14.01,8.94,0,1
14860.437,-0.136,0.47,0.896,3.27,10.04,10.9,0,1
14860.453,-0.089,0.417,0.922,-4.09,1.13,14.22,0,1
14860.453,-0.049,0.368,0.845,-9.43,-7.14,11.66,0,1
14860.484,-0.109,0.459,0.903,-0.24,-9.13,12.73,0,1
14860.484,-0.059,0.419,0.882,1.95,-13.58,18.07,0,1
14860.5,-0.05,0.364,0.876,0.18,-16.21,14.4,0,1
14860.5,-0.038,0.382,0.871,-0.7,-16.14,10.83,0,1
14860.515,-0.029,0.375,0.869,-2.32,-14.92,8.27,0,1
14860.531,-0.037,0.356,0.872,-5.19,-13.15,5.68,0,1
14860.531,-0.026,0.358,0.877,-7.93,-11.35,3.36,0,1
14860.546,-0.022,0.356,0.882,-8.88,-8.73,0.82,0,1
14860.562,-0.022,0.352,0.889,-9.13,-5.89,-0.85,0,1
14860.562,-0.027,0.353,0.897,-8.09,-3.48,-1.59,0,1
14860.578,-0.029,0.362,0.901,-5.83,-1.77,-1.74,0,1
14860.578,-0.026,0.367,0.903,-2.93,-0.7,-1.43,0,1
14860.593,-0.023,0.371,0.899,-0.21,-0.21,-0.61,0,1
14860.609,-0.022,0.374,0.896,1.46,-0.27,0.27,0,1
14860.609,-0.021,0.373,0.894,2.47,-0.79,0.82,0,1
14860.625,-0.02,0.371,0.89,3.08,-1.04,0.98,0,1
14860.64,-0.021,0.358,0.893,0.73,-0.03,-0.12,0,1
14860.656,-0.028,0.36,0.897,-1.19,0.76,-1.89,0,1
14860.671,-0.037,0.364,0.902,-2.69,1.92,-3.57,0,1
14860.687,-0.043,0.365,0.91,-3.97,2.96,-4.46,0,1
14860.687,-0.05,0.365,0.919,-4.18,3.6,-4.67,0,1
14860.687,-0.058,0.372,0.926,-3.36,3.97,-4.3,0,1
14860.703,-0.06,0.372,0.929,-1.89,3.94,-3.48,0,1
14860.718,-0.059,0.369,0.929,-0.03,3.45,-2.72,0,1
14860.718,-0.06,0.372,0.924,1.4,2.53,-2.14,0,1
14860.734,-0.056,0.374,0.921,2.17,1.5,-1.89,0,1
14860.75,-0.053,0.373,0.914,2.38,0.67,-1.86,0,1
14860.75,-0.047,0.37,0.908,2.47,0.49,-1.65,0,1
14860.765,-0.054,0.369,0.905,2.62,0.92,-1.71,0,1
14860.781,-0.062,0.376,0.905,1.5,1.22,-2.56,0,1
14860.796,-0.061,0.376,0.908,-0.24,1.01,-3.57,0,1
14860.796,-0.059,0.367,0.908,-1.92,0.67,-4.15,0,1
14860.796,-0.058,0.362,0.911,-2.72,0.4,-4.39,0,1
14860.812,-0.06,0.361,0.913,-2.53,0.79,-5.07,0,1
14860.828,-0.059,0.362,0.915,-1.71,1.56,-5.65,0,1
14860.828,-0.059,0.363,0.917,-0.18,2.32,-5.65,0,1
14860.843,-0.057,0.368,0.911,1.07,2.66,-5.28,0,1
14860.859,-0.056,0.369,0.904,1.71,2.56,-5.16,0,1
14860.859,-0.059,0.37,0.901,1.77,2.29,-5.07,0,1
14860.875,-0.054,0.372,0.902,1.53,1.89,-4.88,0,1
14860.89,-0.056,0.371,0.899,1.28,1.56,-5.13,0,1
14860.906,-0.062,0.378,0.899,0.89,1.77,-5.77,0,1
14860.906,-0.067,0.38,0.903,-0.06,2.26,-6.01,0,1
14860.921,-0.078,0.385,0.923,-0.7,2.69,-5.8,0,1
14860.921,-0.094,0.396,0.938,-0.03,1.92,-4.36,0,1
14860.937,-0.105,0.407,0.964,0.7,-0.15,-3.3,0,1
14860.953,-0.103,0.409,0.975,0.98,-3.81,-2.32,0,1
14860.953,-0.098,0.406,0.97,1.01,-7.6,-1.77,0,1
14860.968,-0.099,0.408,0.962,1.31,-9.67,-1.77,0,1
14860.984,-0.088,0.41,0.946,1.25,-10.47,-2.08,0,1
14860.984,-0.08,0.408,0.933,1.07,-9.89,-1.59,0,1
14861.0,-0.068,0.4,0.919,1.19,-8.48,-1.01,0,1
14861.0,-0.059,0.394,0.907,1.37,-7.05,-0.7,0,1
14861.015,-0.052,0.386,0.9,1.46,-5.68,-0.58,0,1
14861.031,-0.048,0.378,0.894,1.74,-4.67,-0.52,0,1
14861.031,-0.055,0.377,0.897,1.37,-3.48,-1.1,0,1
14861.046,-0.062,0.39,0.902,-0.34,-2.44,-1.95,0,1
14861.062,-0.066,0.395,0.911,-2.75,-2.29,-2.44,0,1
14861.062,-0.074,0.392,0.921,-4.55,-2.69,-2.04,0,1
14861.078,-0.082,0.388,0.929,-4.91,-3.27,-1.31,0,1
14861.093,-0.077,0.384,0.931,-4.49,-3.39,-0.95,0,1
14861.093,-0.079,0.38,0.933,-3.36,-2.84,-0.67,0,1
14861.109,-0.079,0.377,0.927,-1.77,-1.95,-0.31,0,1
14861.109,-0.075,0.38,0.924,-0.79,-1.04,-0.27,0,1
14861.125,-0.076,0.387,0.921,-0.85,-0.43,-0.52,0,1
14861.14,-0.073,0.385,0.919,-1.4,-0.31,-0.43,0,1
14861.14,-0.065,0.38,0.915,-1.65,-0.55,-0.34,0,1
14861.156,-0.059,0.375,0.912,-0.73,-0.43,-0.03,0,1
14861.171,-0.055,0.371,0.909,-0.09,-0.49,0.06,0,1
14861.171,-0.05,0.37,0.906,-0.12,-0.67,-0.34,0,1
14861.187,-0.059,0.374,0.903,-0.85,-0.55,-0.82,0,1
14861.203,-0.059,0.374,0.906,-1.62,-0.37,-0.98,0,1
14861.203,-0.057,0.371,0.904,-1.71,0.03,-0.95,0,1
14861.218,-0.057,0.372,0.899,-0.4,0.82,-0.89,0,1
14861.218,-0.06,0.369,0.897,1.25,1.95,-0.7,0,1
14861.234,-0.06,0.369,0.892,2.11,4.58,-0.92,0,1
14861.25,-0.056,0.374,0.89,2.78,8.45,-1.31,0,1
14861.25,-0.063,0.373,0.916,3.48,12.12,-0.98,0,1
14861.265,-0.07,0.375,0.928,2.93,12.45,-0.89,0,1
14861.281,-0.026,0.355,0.914,1.71,11.63,-0.82,0,1
14861.281,-0.018,0.329,0.825,1.89,13.7,-4.64,0,1
14861.296,-0.133,0.444,0.988,6.38,20.02,-3.48,0,1
14861.296,-0.114,0.441,1.02,1.56,7.08,2.44,0,1
14861.312,-0.101,0.402,0.965,-6.81,-4.58,2.41,0,1
14861.328,-0.091,0.358,0.955,-4.43,-6.16,1.13,0,1
14861.343,-0.123,0.365,0.944,1.83,-3.3,1.34,0,1
14861.359,-0.129,0.388,0.958,6.84,-0.61,2.11,0,1
14861.359,-0.125,0.408,0.95,9.89,0.0,3.72,0,1
14861.375,-0.117,0.411,0.94,10.19,-0.7,4.39,0,1
14861.39,-0.114,0.404,0.937,8.36,-2.35,4.06,0,1
14861.406,-0.146,0.432,0.969,5.52,-5.71,3.78,0,1
14861.406,-0.071,0.393,0.933,-0.09,-13.37,5.46,0,1
14861.421,-0.047,0.369,0.865,-2.5,-13.89,1.46,0,1
14861.421,-0.105,0.381,0.94,0.24,-9.25,0.15,0,1
14861.437,-0.078,0.418,0.893,-0.06,-11.96,0.31,0,1
14861.453,-0.071,0.407,0.913,-0.06,-11.6,2.44,0,1
14861.453,-0.06,0.388,0.926,-1.04,-12.79,4.12,0,1
14861.468,-0.051,0.377,0.918,-0.55,-14.19,4.43,0,1
14861.484,-0.051,0.364,0.902,0.4,-14.19,3.97,0,1
14861.484,-0.075,0.379,0.904,0.95,-11.6,2.62,0,1
14861.5,-0.163,0.421,0.944,-1.13,-5.34,0.76,0,1
14861.515,-0.227,0.459,0.977,-4.27,-2.56,0.58,0,1
14861.531,-0.282,0.481,1.016,-8.0,-0.52,1.22,0,1
14861.531,-0.34,0.504,1.061,-11.32,0.85,2.47,0,1
14861.546,-0.368,0.527,1.104,-14.16,0.98,4.64,0,1
14861.562,-0.388,0.526,1.135,-15.32,-0.85,8.0,0,1
14861.578,-0.391,0.519,1.153,-13.52,-5.19,12.02,0,1
14861.578,-0.387,0.503,1.162,-8.85,-12.02,16.66,0,1
14861.578,-0.396,0.481,1.156,-2.23,-19.38,21.7,0,1
14861.593,-0.405,0.461,1.138,4.3,-26.12,26.25,0,1
14861.609,-0.428,0.455,1.113,9.89,-31.59,29.18,0,1
14861.625,-0.446,0.453,1.085,13.34,-35.8,30.73,0,1
14861.625,-0.46,0.449,1.054,14.92,-39.03,31.46,0,1
14861.64,-0.464,0.458,1.021,16.05,-41.81,32.26,0,1
14861.64,-0.455,0.48,0.993,17.18,-43.55,33.39,0,1
14861.656,-0.449,0.495,0.966,18.43,-43.28,34.91,0,1
14861.671,-0.354,0.505,0.936,20.81,-37.84,40.1,0,1
14861.687,-0.315,0.511,0.921,21.27,-33.45,41.41,0,1
14861.703,-0.27,0.524,0.904,19.17,-29.82,40.53,0,1
14861.703,-0.183,0.51,0.883,14.62,-29.51,39.86,0,1
14861.718,-0.097,0.486,0.856,10.35,-32.65,40.35,0,1
14861.734,-0.032,0.476,0.819,5.83,-38.3,40.35,0,1
14861.734,0.027,0.475,0.782,-0.27,-44.83,37.9,0,1
14861.75,0.083,0.443,0.74,-6.96,-51.61,34.73,0,1
14861.75,0.122,0.422,0.699,-12.02,-57.59,32.53,0,1
14861.765,0.171,0.42,0.657,-14.74,-61.65,30.09,0,1
14861.781,0.199,0.42,0.609,-17.21,-62.5,26.7,0,1
14861.781,0.192,0.438,0.577,-20.72,-58.72,21.18,0,1
14861.796,0.211,0.456,0.57,-26.67,-50.08,14.89,0,1
14861.812,0.249,0.426,0.577,-32.84,-38.67,11.81,0,1
14861.828,0.252,0.392,0.595,-34.0,-25.18,11.84,0,1
14861.828,0.257,0.376,0.621,-29.27,-11.32,13.95,0,1
14861.843,0.266,0.387,0.686,-12.63,11.51,16.57,0,1
14861.859,0.263,0.359,0.697,-3.27,17.55,18.28,0,1
14861.875,0.239,0.321,0.727,5.4,22.1,22.31,0,1
14861.875,0.213,0.292,0.755,15.32,27.38,26.67,0,1
14861.89,0.17,0.285,0.8,25.12,35.31,27.95,0,1
14861.89,0.139,0.255,0.856,30.73,40.44,29.08,0,1
14861.906,0.166,0.268,0.884,34.03,41.66,29.15,0,1
14861.921,0.143,0.281,0.891,38.15,41.41,26.0,0,1
14861.921,0.142,0.256,0.906,40.35,38.33,25.24,0,1
14861.937,0.167,0.292,0.931,41.35,34.49,25.09,0,1
14861.953,0.173,0.3,0.938,40.38,30.0,25.09,0,1
14861.953,0.182,0.327,0.952,35.22,25.48,24.87,0,1
14861.968,0.2,0.331,0.965,28.63,21.49,23.65,0,1
14861.984,0.213,0.308,0.973,20.6,16.69,24.2,0,1
14861.984,0.231,0.297,0.985,13.0,11.84,25.79,0,1
14862.0,0.247,0.299,0.992,6.32,7.93,26.28,0,1
14862.015,0.256,0.328,0.988,-4.67,6.81,17.58,0,1
14862.031,0.245,0.339,0.979,-12.05,8.58,14.16,0,1
14862.031,0.234,0.355,0.993,-20.05,11.38,14.19,0,1
14862.046,0.21,0.339,1.018,-26.34,15.69,17.18,0,1
14862.062,0.18,0.323,1.041,-30.92,19.2,19.5,0,1
14862.062,0.168,0.313,1.059,-32.69,21.0,20.14,0,1
14862.078,0.159,0.312,1.078,-31.89,21.12,19.62,0,1
14862.078,0.155,0.314,1.083,-29.33,18.46,19.07,0,1
14862.093,0.143,0.347,1.067,-26.37,12.48,17.91,0,1
14862.109,0.129,0.373,1.038,-24.45,4.76,16.48,0,1
14862.109,0.098,0.379,1.02,-24.48,-3.63,15.9,0,1
14862.125,0.09,0.343,1.024,-24.02,-10.47,15.99,0,1
14862.14,0.09,0.303,1.031,-19.75,-16.69,18.34,0,1
14862.14,0.099,0.276,1.024,-14.37,-18.71,18.07,0,1
14862.156,0.115,0.264,1.011,-9.49,-20.6,16.48,0,1
14862.171,0.131,0.308,0.956,-6.87,-22.83,14.59,0,1
14862.187,0.151,0.332,0.898,-9.98,-27.1,11.99,0,1
14862.203,0.157,0.298,0.891,-13.49,-26.8,12.09,0,1
14862.203,0.174,0.281,0.883,-17.15,-25.42,12.36,0,1
14862.218,0.185,0.273,0.874,-18.16,-22.92,11.66,0,1
14862.234,0.197,0.251,0.864,-16.85,-19.96,11.23,0,1
14862.234,0.222,0.228,0.85,-13.89,-17.91,12.82,0,1
14862.25,0.246,0.225,0.826,-7.81,-15.84,14.56,0,1
14862.25,0.264,0.223,0.8,-1.71,-13.86,14.44,0,1
14862.265,0.274,0.219,0.779,0.64,-11.17,11.9,0,1
14862.281,0.301,0.224,0.762,-0.79,-7.39,8.24,0,1
14862.296,0.312,0.227,0.756,-3.88,-1.34,3.94,0,1
14862.296,0.301,0.198,0.767,-7.23,5.62,1.19,0,1
14862.312,0.303,0.181,0.789,-9.03,11.32,0.18,0,1
14862.312,0.315,0.19,0.807,-5.62,15.84,-0.92,0,1
14862.328,0.285,0.202,0.822,1.07,19.62,-2.44,0,1
14862.343,0.276,0.225,0.839,5.07,20.91,-2.81,0,1
14862.359,0.245,0.289,0.869,10.01,21.58,-4.52,0,1
14862.359,0.235,0.305,0.888,7.97,19.35,-6.01,0,1
14862.375,0.237,0.337,0.904,4.73,15.81,-9.58,0,1
14862.39,0.22,0.361,0.91,-0.4,11.08,-15.08,0,1
14862.39,0.193,0.367,0.922,-8.09,6.41,-20.02,0,1
14862.406,0.179,0.355,0.942,-15.47,2.32,-21.79,0,1
14862.421,0.184,0.365,0.967,-18.25,0.03,-21.94,0,1
14862.437,0.168,0.358,0.974,-16.05,-0.21,-21.33,0,1
14862.437,0.157,0.334,0.982,-11.6,0.15,-18.71,0,1
14862.453,0.161,0.344,0.982,-5.58,0.55,-14.8,0,1
14862.453,0.167,0.364,0.977,1.31,0.95,-11.78,0,1
14862.468,0.172,0.36,0.964,6.84,0.55,-8.48,0,1
14862.484,0.173,0.357,0.949,10.62,-0.21,-4.79,0,1
14862.484,0.186,0.356,0.931,12.79,-0.43,-1.62,0,1
14862.5,0.198,0.349,0.917,12.79,-0.27,0.61,0,1
14862.5,0.236,0.382,0.913,10.74,1.53,-0.27,0,1
14862.531,0.265,0.374,0.922,-2.9,5.62,-1.77,0,1
14862.531,0.272,0.385,0.932,-9.25,6.93,-1.89,0,1
14862.546,0.25,0.378,0.939,-14.1,6.5,-2.35,0,1
14862.562,0.222,0.351,0.948,-17.24,3.63,-1.59,0,1
14862.562,0.212,0.332,0.952,-17.27,-2.17,1.25,0,1
14862.578,0.191,0.318,0.935,-13.82,-8.64,4.0,0,1
14862.593,0.18,0.287,0.913,-9.03,-13.86,7.23,0,1
14862.593,0.173,0.267,0.896,-3.72,-15.75,9.7,0,1
14862.609,0.173,0.257,0.875,0.37,-14.62,10.99,0,1
14862.609,0.172,0.258,0.859,1.56,-10.68,9.92,0,1
14862.625,0.172,0.251,0.856,0.09,-5.1,7.63,0,1
14862.64,0.177,0.256,0.867,-2.53,0.89,4.43,0,1
14862.64,0.165,0.262,0.881,-4.33,5.89,1.53,0,1
14862.656,0.149,0.267,0.897,-5.34,9.46,-0.55,0,1
14862.671,0.14,0.278,0.912,-5.8,11.23,-1.62,0,1
14862.671,0.134,0.287,0.927,-5.68,11.2,-1.98,0,1
14862.687,0.125,0.295,0.941,-2.72,8.48,-2.11,0,1
14862.703,0.114,0.301,0.94,-1.56,7.05,-2.84,0,1
14862.718,0.11,0.302,0.941,-1.31,5.71,-3.63,0,1
14862.718,0.11,0.308,0.942,-1.22,4.97,-4.36,0,1
14862.734,0.107,0.312,0.943,-1.86,4.94,-5.28,0,1
14862.75,0.11,0.309,0.948,-2.59,5.04,-5.86,0,1
14862.75,0.12,0.312,0.953,-2.47,5.22,-5.89,0,1
14862.765,0.121,0.317,0.956,-1.8,5.19,-5.71,0,1
14862.781,0.118,0.317,0.953,-0.92,4.7,-5.65,0,1
14862.781,0.112,0.324,0.95,-0.12,3.81,-5.55,0,1
14862.796,0.108,0.332,0.947,-0.03,2.81,-5.16,0,1
14862.812,0.104,0.335,0.947,-0.34,1.89,-4.43,0,1
14862.812,0.104,0.337,0.944,-0.67,1.13,-3.63,0,1
14862.828,0.103,0.337,0.943,-1.01,0.18,-3.3,0,1
14862.828,0.102,0.34,0.944,-1.28,-0.12,-4.12,0,1
14862.843,0.099,0.334,0.944,-2.5,-1.4,-4.67,0,1
14862.859,0.112,0.349,0.942,-3.23,-2.5,-4.73,0,1
14862.859,0.094,0.347,0.936,-2.75,-2.59,-4.55,0,1
14862.875,0.091,0.337,0.936,-3.27,-2.56,-3.63,0,1
14862.89,0.084,0.338,0.937,-2.78,-2.29,-2.69,0,1
14862.89,0.087,0.335,0.939,-1.65,-2.14,-1.43,0,1
14862.906,0.088,0.324,0.938,0.27,-1.77,0.24,0,1
14862.921,0.087,0.317,0.94,2.56,-1.5,1.86,0,1
14862.921,0.093,0.319,0.943,4.46,-0.98,2.53,0,1
14862.937,0.098,0.321,0.94,4.43,-0.64,2.2,0,1
14862.953,0.104,0.323,0.939,3.02,-0.79,1.4,0,1
14862.953,0.105,0.321,0.942,0.82,-1.01,0.31,0,1
14862.968,0.108,0.311,0.948,-1.86,-2.2,-0.43,0,1
14862.984,0.109,0.312,0.946,-3.54,-3.3,-1.68,0,1
14862.984,0.099,0.305,0.946,-4.49,-3.97,-2.62,0,1
14863.0,0.097,0.306,0.946,-4.61,-3.91,-2.9,0,1
14863.0,0.096,0.304,0.942,-3.39,-3.42,-2.41,0,1
14863.015,0.093,0.306,0.939,-1.62,-2.47,-1.68,0,1
14863.031,0.087,0.309,0.94,0.0,-1.25,-1.07,0,1
14863.031,0.091,0.318,0.938,0.89,-0.03,-0.58,0,1
14863.046,0.093,0.317,0.937,1.62,0.73,-0.06,0,1
14863.062,0.101,0.32,0.937,2.41,1.28,0.52,0,1
14863.062,0.1,0.32,0.935,2.93,1.62,0.89,0,1
14863.078,0.1,0.322,0.933,3.02,1.71,0.73,0,1
14863.093,0.1,0.328,0.93,2.26,1.62,-0.31,0,1
14863.093,0.1,0.323,0.928,0.43,0.89,-1.19,0,1
14863.109,0.101,0.32,0.934,-1.56,0.12,-1.56,0,1
14863.109,0.106,0.314,0.937,-3.66,-1.92,-2.2,0,1
14863.125,0.108,0.312,0.94,-4.18,-2.9,-3.33,0,1
14863.14,0.107,0.313,0.943,-4.15,-3.63,-4.03,0,1
14863.14,0.101,0.318,0.942,-4.0,-4.03,-3.97,0,1
14863.156,0.099,0.316,0.94,-3.2,-4.03,-3.27,0,1
14863.171,0.099,0.316,0.937,-2.04,-3.54,-2.5,0,1
14863.171,0.102,0.32,0.935,-0.67,-2.26,-1.92,0,1
14863.187,0.103,0.327,0.935,0.24,-0.61,-1.25,0,1
14863.203,0.105,0.332,0.934,0.61,0.46,-0.46,0,1
14863.203,0.111,0.334,0.94,0.76,1.19,0.52,0,1
14863.218,0.114,0.332,0.944,0.61,1.13,1.13,0,1
14863.218,0.111,0.328,0.943,0.4,-0.12,1.25,0,1
14863.234,0.11,0.33,0.939,-0.06,-1.95,1.01,0,1
14863.25,0.113,0.325,0.934,-0.92,-3.88,0.64,0,1
14863.25,0.12,0.315,0.927,-1.71,-5.13,0.61,0,1
14863.265,0.128,0.304,0.918,-1.68,-5.07,0.89,0,1
14863.281,0.135,0.3,0.916,-0.95,-3.91,0.82,0,1
14863.281,0.143,0.299,0.914,-0.03,-2.32,0.34,0,1
14863.296,0.143,0.297,0.913,0.49,-1.07,-0.21,0,1
14863.312,0.151,0.292,0.915,0.21,-0.06,-0.64,0,1
14863.312,0.155,0.29,0.916,-0.64,0.24,-1.22,0,1
14863.328,0.151,0.288,0.921,-2.01,-0.12,-2.29,0,1
14863.328,0.153,0.282,0.924,-3.57,-0.85,-3.6,0,1
14863.343,0.154,0.28,0.927,-4.61,-1.13,-4.52,0,1
14863.359,0.153,0.278,0.927,-5.07,-1.25,-5.07,0,1
14863.359,0.159,0.278,0.925,-4.97,-1.16,-5.31,0,1
14863.375,0.163,0.281,0.922,-4.64,-0.82,-5.65,0,1
14863.39,0.162,0.285,0.917,-4.18,-0.49,-5.62,0,1
14863.39,0.164,0.29,0.913,-3.69,0.03,-5.49,0,1
14863.406,0.173,0.29,0.909,-2.9,0.21,-4.85,0,1
14863.421,0.171,0.288,0.903,-1.53,-0.03,-3.51,0,1
14863.421,0.173,0.291,0.896,0.18,-0.24,-2.5,0,1
14863.437,0.186,0.281,0.887,2.2,-0.98,-1.4,0,1
14863.453,0.206,0.268,0.873,4.55,-1.65,-0.27,0,1
14863.453,0.222,0.257,0.858,7.23,-2.38,0.49,0,1
14863.468,0.231,0.252,0.838,8.39,-3.17,0.15,0,1
14863.468,0.205,0.25,0.819,7.57,-3.66,-1.68,0,1
14863.484,0.164,0.27,0.816,3.14,-2.14,-5.86,0,1
14863.5,0.155,0.287,0.824,-5.46,0.79,-11.9,0,1
14863.515,0.131,0.289,0.845,-14.68,4.46,-16.75,0,1
14863.515,0.123,0.294,0.882,-21.94,7.87,-18.8,0,1
14863.531,0.122,0.286,0.919,-25.18,10.04,-18.43,0,1
14863.531,0.098,0.277,0.951,-23.56,10.99,-16.94,0,1
14863.546,0.075,0.284,0.977,-18.95,11.47,-15.56,0,1
14863.562,0.044,0.3,0.995,-14.07,11.47,-14.98,0,1
14863.562,0.028,0.323,1.002,-11.54,11.2,-15.14,0,1
14863.578,0.016,0.341,1.006,-11.72,10.93,-15.26,0,1
14863.593,0.005,0.347,1.011,-14.25,10.13,-14.59,0,1
14863.593,0.002,0.348,1.027,-17.18,8.79,-13.73,0,1
14863.609,-0.006,0.344,1.029,-19.41,6.87,-13.43,0,1
14863.609,-0.013,0.348,1.032,-21.27,5.04,-13.86,0,1
14863.625,-0.011,0.34,1.036,-22.86,3.85,-13.95,0,1
14863.64,-0.026,0.336,1.04,-23.59,3.45,-12.88,0,1
14863.64,-0.024,0.331,1.048,-23.59,3.6,-10.93,0,1
14863.656,-0.019,0.322,1.057,-23.07,3.91,-8.61,0,1
14863.671,-0.016,0.311,1.063,-21.12,4.73,-6.01,0,1
14863.671,-0.013,0.301,1.08,-17.64,5.04,-2.53,0,1
14863.687,-0.001,0.293,1.074,-13.06,3.81,1.16,0,1
14863.703,0.024,0.289,1.071,-8.24,2.01,4.64,0,1
14863.703,0.044,0.278,1.056,-3.27,-0.61,7.78,0,1
14863.718,0.061,0.267,1.033,0.34,-3.75,10.28,0,1
14863.734,0.078,0.255,1.009,2.08,-7.02,11.84,0,1
14863.734,0.091,0.246,0.989,1.92,-9.58,12.27,0,1
14863.75,0.095,0.239,0.971,0.0,-10.86,11.11,0,1
14863.75,0.096,0.231,0.96,-3.05,-11.2,9.43,0,1
14863.765,0.098,0.229,0.955,-6.04,-10.47,7.93,0,1
14863.781,0.098,0.223,0.959,-8.51,-9.13,6.87,0,1
14863.781,0.105,0.21,0.963,-9.31,-7.39,6.65,0,1
14863.796,0.108,0.201,0.964,-7.84,-5.71,6.74,0,1
14863.812,0.112,0.198,0.964,-5.52,-4.97,6.68,0,1
14863.812,0.109,0.198,0.964,-2.93,-4.76,6.81,0,1
14863.828,0.112,0.203,0.961,-0.82,-5.13,6.62,0,1
14863.843,0.106,0.207,0.952,0.18,-5.86,6.07,0,1
14863.843,0.102,0.216,0.951,-0.64,-6.23,4.76,0,1
14863.859,0.102,0.215,0.954,-2.44,-6.47,3.51,0,1
14863.859,0.103,0.216,0.954,-3.63,-6.65,2.56,0,1
14863.875,0.112,0.214,0.954,-3.91,-7.02,1.83,0,1
14863.89,0.116,0.209,0.951,-3.17,-7.63,1.46,0,1
14863.89,0.114,0.213,0.945,-1.5,-8.21,1.28,0,1
14863.906,0.12,0.216,0.938,0.31,-8.55,1.37,0,1
14863.921,0.126,0.219,0.93,2.14,-8.42,2.01,0,1
14863.921,0.12,0.224,0.923,3.57,-7.69,2.87,0,1
14863.937,0.125,0.227,0.92,4.12,-6.71,3.23,0,1
14863.953,0.126,0.23,0.919,4.03,-5.52,2.66,0,1
14863.953,0.118,0.242,0.918,3.2,-4.15,1.13,0,1
14863.968,0.12,0.249,0.92,1.16,-3.17,-0.18,0,1
14863.968,0.114,0.25,0.928,-1.19,-1.89,-1.1,0,1
14863.984,0.09,0.253,0.945,-3.23,-0.21,-1.56,0,1
14864.0,0.084,0.259,0.964,-5.28,1.22,-1.65,0,1
14864.0,0.081,0.251,0.979,-5.62,2.26,-0.98,0,1
14864.015,0.079,0.253,0.987,-4.21,2.47,0.4,0,1
14864.031,0.079,0.255,0.987,-1.53,1.53,2.2,0,1
14864.031,0.087,0.251,0.98,1.07,-0.24,3.97,0,1
14864.046,0.089,0.248,0.971,3.36,-2.01,5.77,0,1
14864.062,0.092,0.248,0.96,4.36,-3.51,7.23,0,1
14864.062,0.098,0.247,0.947,3.45,-4.49,7.45,0,1
14864.078,0.083,0.256,0.943,0.58,-4.21,5.74,0,1
14864.078,0.069,0.268,0.947,-4.43,-2.87,2.26,0,1
14864.093,0.065,0.263,0.96,-14.01,-0.09,-2.93,0,1
14864.109,0.055,0.258,0.978,-14.74,0.03,-2.41,0,1
14864.109,0.048,0.253,0.996,-12.18,-0.58,-0.73,0,1
14864.125,0.053,0.231,1.014,-6.96,-1.62,1.07,0,1
14864.14,0.063,0.236,1.008,-0.85,-2.96,2.87,0,1
14864.156,0.075,0.233,0.991,4.82,-4.43,4.52,0,1
14864.156,0.078,0.246,0.975,8.45,-5.52,5.83,0,1
14864.171,0.072,0.255,0.963,8.85,-6.07,5.89,0,1
14864.171,0.083,0.251,0.957,5.68,-6.62,4.64,0,1
14864.187,0.087,0.255,0.956,1.25,-6.59,2.32,0,1
14864.203,0.083,0.244,0.962,-3.51,-6.32,-0.06,0,1
14864.203,0.079,0.239,0.976,-7.26,-5.49,-1.98,0,1
14864.218,0.08,0.236,0.987,-9.64,-4.94,-3.75,0,1
14864.234,0.078,0.229,0.993,-9.92,-5.19,-4.73,0,1
14864.234,0.081,0.227,0.995,-8.21,-6.13,-4.55,0,1
14864.25,0.092,0.224,0.987,-5.13,-7.51,-2.99,0,1
14864.265,0.103,0.213,0.978,-1.43,-8.76,-0.55,0,1
14864.265,0.124,0.207,0.966,3.17,-8.73,1.8,0,1
14864.281,0.141,0.207,0.953,6.96,-7.63,2.99,0,1
14864.281,0.167,0.216,0.94,8.55,-6.38,2.9,0,1
14864.296,0.177,0.225,0.926,8.27,-4.76,1.77,0,1
14864.312,0.187,0.228,0.918,5.34,-3.75,0.55,0,1
14864.312,0.191,0.234,0.916,1.59,-2.44,-1.04,0,1
14864.328,0.188,0.228,0.922,-2.35,-0.98,-2.32,0,1
14864.343,0.186,0.215,0.931,-5.34,0.24,-2.69,0,1
14864.343,0.189,0.212,0.941,-6.32,1.62,-2.62,0,1
14864.359,0.183,0.218,0.945,-5.89,2.81,-2.62,0,1
14864.375,0.179,0.22,0.948,-5.28,3.3,-2.44,0,1
14864.375,0.175,0.226,0.955,-4.94,3.75,-1.92,0,1
14864.39,0.161,0.23,0.959,-4.85,4.39,-1.34,0,1
14864.39,0.155,0.232,0.968,-5.19,4.94,-0.85,0,1
14864.406,0.153,0.232,0.974,-5.4,5.46,-0.58,0,1
14864.421,0.154,0.227,0.981,-5.31,5.25,-0.03,0,1
14864.421,0.141,0.226,0.984,-4.67,4.27,0.03,0,1
14864.437,0.131,0.235,0.978,-4.43,2.84,-0.49,0,1
14864.453,0.133,0.24,0.971,-4.97,1.74,-1.59,0,1
14864.453,0.118,0.24,0.965,-6.44,0.67,-2.01,0,1
14864.468,0.113,0.254,0.967,-8.24,-0.24,-1.83,0,1
14864.468,0.121,0.251,0.973,-10.19,-0.76,-1.43,0,1
14864.484,0.133,0.224,0.979,-11.44,-1.16,0.03,0,1
14864.5,0.153,0.199,0.986,-10.04,-1.65,2.38,0,1
14864.5,0.171,0.179,0.982,-5.68,-2.32,4.88,0,1
14864.515,0.173,0.162,0.97,-0.09,-2.99,6.84,0,1
14864.531,0.162,0.168,0.959,4.09,-3.36,7.45,0,1
14864.531,0.151,0.182,0.948,5.46,-3.23,6.16,0,1
14864.546,0.138,0.189,0.934,4.46,-2.84,4.0,0,1
14864.562,0.117,0.198,0.938,0.98,-1.86,2.01,0,1
14864.562,0.109,0.208,0.947,-3.72,-0.06,-0.61,0,1
14864.578,0.111,0.215,0.957,-8.42,1.46,-3.51,0,1
14864.578,0.113,0.213,0.967,-11.75,2.04,-5.13,0,1
14864.593,0.129,0.213,0.977,-12.88,1.71,-5.16,0,1
14864.609,0.134,0.203,0.975,-10.47,1.31,-3.91,0,1
14864.609,0.131,0.185,0.972,-6.29,0.61,-1.65,0,1
14864.625,0.134,0.173,0.97,-0.67,-0.37,1.34,0,1
14864.64,0.121,0.173,0.971,5.55,-0.61,3.57,0,1
14864.64,0.11,0.185,0.972,9.98,-0.98,3.66,0,1
14864.656,0.098,0.215,0.984,11.57,-1.86,1.59,0,1
14864.671,0.089,0.251,0.98,9.43,-3.75,-1.86,0,1
14864.671,0.088,0.275,0.98,3.33,-7.35,-5.25,0,1
14864.687,0.093,0.286,0.97,-3.63,-11.35,-7.39,0,1
14864.703,0.103,0.276,0.959,-10.01,-15.44,-7.51,0,1
14864.703,0.105,0.263,0.959,-14.34,-17.52,-6.26,0,1
14864.718,0.107,0.243,0.955,-15.05,-17.18,-3.88,0,1
14864.734,0.111,0.226,0.969,-12.15,-13.76,-0.55,0,1
14864.734,0.097,0.204,0.984,-5.04,-7.81,3.81,0,1
14864.75,0.085,0.222,1.005,3.81,-0.24,7.45,0,1
14864.75,0.072,0.25,1.017,12.05,7.11,8.97,0,1
14864.765,0.061,0.271,1.024,16.27,12.36,9.34,0,1
14864.781,0.066,0.283,1.028,15.59,13.95,9.8,0,1
14864.781,0.073,0.275,1.031,12.21,11.84,10.35,0,1
14864.796,0.099,0.258,1.026,7.39,6.62,10.74,0,1
14864.812,0.113,0.241,1.016,3.2,-0.06,10.44,0,1
14864.812,0.125,0.222,1.001,0.09,-7.23,9.4,0,1
14864.828,0.137,0.196,0.981,-1.8,-14.19,8.48,0,1
14864.843,0.146,0.182,0.961,-2.38,-19.68,8.33,0,1
14864.843,0.139,0.166,0.94,-0.89,-22.83,8.3,0,1
14864.859,0.128,0.17,0.923,1.22,-22.03,6.87,0,1
14864.859,0.121,0.179,0.915,0.82,-19.14,5.28,0,1
14864.875,0.128,0.19,0.918,-0.46,-14.95,3.91,0,1
14864.89,0.126,0.188,0.92,-1.71,-9.34,2.29,0,1
14864.89,0.14,0.174,0.93,-3.69,-4.46,1.68,0,1
14864.906,0.151,0.173,0.94,-3.45,-0.76,0.61,0,1
14864.921,0.151,0.179,0.947,-1.04,1.89,-0.85,0,1
14864.921,0.13,0.192,0.96,1.22,3.91,-2.38,0,1
14864.937,0.122,0.205,0.965,1.74,3.94,-3.27,0,1
14864.953,0.12,0.211,0.959,1.25,2.59,-3.33,0,1
14864.953,0.117,0.219,0.961,-0.82,0.76,-2.96,0,1
14864.968,0.11,0.204,0.965,-3.51,-1.04,-1.92,0,1
14864.984,0.096,0.202,0.972,-5.89,-1.98,-0.52,0,1
14864.984,0.091,0.22,0.983,-8.09,-0.64,-0.49,0,1
14865.0,0.091,0.223,1.0,-9.98,2.32,-1.65,0,1
14865.0,0.089,0.228,1.013,-9.95,6.32,-3.45,0,1
14865.015,0.095,0.228,1.017,-8.36,9.34,-4.88,0,1
14865.031,0.104,0.224,1.016,-6.35,9.92,-5.55,0,1
14865.031,0.117,0.219,1.012,-4.15,8.55,-5.58,0,1
14865.046,0.128,0.209,1.006,-2.35,5.89,-4.43,0,1
14865.062,0.128,0.201,1.004,-0.58,2.59,-3.17,0,1
14865.062,0.129,0.204,1.003,0.43,-0.55,-2.53,0,1
14865.078,0.138,0.2,0.996,-1.37,-7.97,-1.89,0,1
14865.093,0.144,0.192,0.985,-2.35,-11.72,-1.59,0,1
14865.093,0.16,0.178,0.969,-2.93,-14.5,-1.74,0,1
14865.109,0.173,0.163,0.95,-3.08,-15.63,-1.98,0,1
14865.109,0.182,0.153,0.912,-3.57,-14.83,-2.78,0,1
14865.125,0.188,0.156,0.903,-4.55,-12.39,-3.36,0,1
14865.14,0.176,0.162,0.906,-4.21,-7.57,-4.46,0,1
14865.14,0.156,0.172,0.919,-3.33,-2.11,-5.86,0,1
14865.156,0.148,0.183,0.937,-2.93,1.74,-6.81,0,1
14865.171,0.14,0.19,0.952,-1.74,4.67,-7.66,0,1
14865.171,0.136,0.189,0.966,-0.37,5.83,-7.81,0,1
14865.187,0.133,0.196,0.967,0.98,4.91,-8.51,0,1
14865.203,0.137,0.197,0.96,1.46,2.38,-9.19,0,1
14865.203,0.139,0.205,0.955,0.89,-0.67,-9.61,0,1
14865.218,0.144,0.201,0.947,-0.15,-4.09,-10.04,0,1
14865.234,0.141,0.189,0.938,-2.53,-7.63,-10.22,0,1
14865.234,0.137,0.195,0.933,-4.97,-9.34,-10.96,0,1
14865.25,0.126,0.21,0.926,-6.56,-8.58,-12.3,0,1
14865.265,0.12,0.213,0.922,-8.21,-7.02,-12.85,0,1
14865.265,0.115,0.219,0.926,-8.64,-4.61,-12.12,0,1
14865.281,0.107,0.223,0.933,-7.72,-1.77,-10.83,0,1
14865.281,0.111,0.223,0.945,-6.62,0.46,-10.1,0,1
14865.296,0.108,0.212,0.947,-5.68,1.46,-9.55,0,1
14865.312,0.115,0.2,0.945,-5.71,0.98,-8.55,0,1
14865.312,0.133,0.195,0.944,-5.71,-0.27,-7.26,0,1
14865.328,0.13,0.185,0.941,-3.94,-0.52,-6.5,0,1
14865.343,0.122,0.187,0.946,-2.2,0.79,-6.65,0,1
14865.343,0.119,0.2,0.955,-2.78,2.17,-7.78,0,1
14865.359,0.107,0.211,0.974,-4.76,3.78,-9.16,0,1
14865.359,0.085,0.217,1.003,-6.59,4.79,-9.7,0,1
14865.375,0.078,0.222,1.029,-8.03,3.88,-9.28,0,1
14865.39,0.067,0.227,1.053,-8.91,0.4,-8.55,0,1
14865.39,0.069,0.216,1.067,-9.0,-6.16,-5.95,0,1
14865.406,0.078,0.212,1.07,-8.18,-13.89,-3.3,0,1
14865.421,0.079,0.189,1.068,-6.62,-22.0,-0.73,0,1
14865.421,0.094,0.175,1.052,-4.36,-29.36,1.28,0,1
14865.437,0.108,0.179,1.03,-0.7,-33.48,1.22,0,1
14865.453,0.122,0.185,1.009,2.84,-34.36,0.52,0,1
14865.453,0.13,0.19,0.98,4.85,-32.65,-0.27,0,1
14865.468,0.129,0.195,0.963,4.36,-29.85,-0.76,0,1
14865.484,0.153,0.196,0.942,3.63,-26.31,-1.1,0,1
14865.484,0.155,0.197,0.928,2.56,-20.87,-2.41,0,1
14865.5,0.156,0.205,0.932,0.06,-15.08,-3.81,0,1
14865.5,0.155,0.21,0.938,-2.14,-10.35,-5.52,0,1
14865.515,0.153,0.201,0.94,-2.78,-6.47,-6.16,0,1
14865.531,0.159,0.192,0.944,-1.59,-3.05,-5.4,0,1
14865.531,0.162,0.187,0.951,0.64,-0.37,-4.49,0,1
14865.546,0.16,0.191,0.947,2.93,1.01,-4.39,0,1
14865.562,0.155,0.193,0.941,2.32,0.85,-4.64,0,1
14865.562,0.175,0.203,0.937,-0.18,0.55,-5.07,0,1
14865.578,0.16,0.201,0.917,-3.54,1.43,-6.44,0,1
14865.593,0.153,0.204,0.918,-9.64,3.08,-7.78,0,1
14865.593,0.146,0.204,0.925,-15.02,5.77,-9.37,0,1
14865.609,0.139,0.183,0.941,-18.89,8.09,-10.1,0,1
14865.609,0.137,0.166,0.959,-19.56,10.07,-9.83,0,1
14865.625,0.132,0.156,0.977,-16.91,12.12,-9.03,0,1
14865.64,0.139,0.158,0.993,-12.88,13.64,-8.36,0,1
14865.64,0.136,0.151,0.973,-7.35,14.83,-8.39,0,1
14865.656,0.138,0.154,0.967,-3.75,16.02,-8.33,0,1
14865.671,0.135,0.15,0.955,-1.86,16.21,-8.42,0,1
14865.687,0.139,0.151,0.944,-4.27,15.56,-8.58,0,1
14865.687,0.127,0.14,0.947,-9.67,14.65,-9.13,0,1
14865.703,0.122,0.13,0.956,-15.44,13.31,-9.61,0,1
14865.703,0.109,0.142,0.972,-19.87,13.55,-10.99,0,1
14865.718,0.093,0.132,0.995,-22.4,14.22,-12.85,0,1
14865.734,0.092,0.127,1.009,-22.64,13.86,-13.89,0,1
14865.734,0.089,0.124,1.011,-19.68,12.45,-14.25,0,1
14865.75,0.099,0.111,1.003,-15.47,10.65,-14.19,0,1
14865.75,0.102,0.105,0.989,-10.65,9.19,-14.13,0,1
14865.765,0.109,0.104,0.974,-6.35,7.93,-14.13,0,1
14865.781,0.104,0.115,0.96,-3.63,7.14,-14.44,0,1
14865.781,0.094,0.117,0.953,-3.36,7.2,-14.25,0,1
14865.796,0.093,0.121,0.954,-5.74,7.51,-13.73,0,1
14865.812,0.077,0.125,0.951,-9.19,7.84,-14.5,0,1
14865.812,0.062,0.133,0.959,-13.34,9.25,-16.02,0,1
14865.828,0.06,0.125,0.982,-16.3,10.04,-17.09,0,1
14865.843,0.064,0.12,0.994,-16.02,9.55,-17.58,0,1
14865.843,0.069,0.114,0.994,-13.79,7.63,-17.06,0,1
14865.859,0.071,0.095,0.983,-10.83,4.97,-16.27,0,1
14865.859,0.064,0.094,0.979,-7.9,2.44,-15.14,0,1
14865.875,0.063,0.112,0.985,-5.83,0.92,-14.98,0,1
14865.89,0.055,0.119,0.988,-6.44,-0.09,-15.81,0,1
14865.89,0.062,0.115,0.996,-9.31,-1.28,-16.11,0,1
14865.906,0.073,0.09,0.986,-12.45,-2.47,-15.81,0,1
14865.921,0.093,0.052,0.98,-14.5,-2.47,-15.63,0,1
14865.921,0.111,0.044,0.994,-14.47,-1.34,-17.21,0,1
14865.937,0.109,0.044,1.008,-11.78,-0.31,-20.23,0,1
14865.953,0.091,0.061,1.029,-7.2,1.25,-22.95,0,1
14865.953,0.057,0.077,1.044,-1.62,3.17,-24.45,0,1
14865.968,0.029,0.107,1.063,4.03,4.7,-25.61,0,1
14865.984,0.012,0.149,1.069,9.89,4.43,-26.73,0,1
14865.984,-0.01,0.187,1.06,14.53,2.59,-26.98,0,1
14866.0,-0.026,0.22,1.049,16.94,-1.37,-25.18,0,1
14866.0,-0.018,0.254,1.022,16.54,-6.44,-21.21,0,1
14866.015,-0.011,0.278,0.987,12.36,-10.99,-15.66,0,1
14866.031,0.001,0.289,0.969,5.37,-13.18,-10.56,0,1
14866.031,0.012,0.259,0.97,-2.44,-14.44,-6.04,0,1
14866.046,0.036,0.209,0.973,-7.78,-15.38,-1.95,0,1
14866.062,0.062,0.176,0.97,-7.32,-13.73,0.31,0,1
14866.062,0.08,0.153,0.964,-5.16,-11.11,-1.43,0,1
14866.078,0.101,0.144,0.969,-2.32,-7.66,-2.99,0,1
14866.093,0.098,0.142,0.968,0.06,-3.57,-3.78,0,1
14866.093,0.087,0.136,0.971,1.07,-0.49,-4.64,0,1
14866.109,0.099,0.138,0.967,2.08,0.92,-6.2,0,1
14866.109,0.116,0.134,0.956,2.87,1.4,-7.57,0,1
14866.125,0.125,0.136,0.946,2.87,2.9,-8.3,0,1
14866.14,0.118,0.143,0.941,1.95,5.62,-9.09,0,1
14866.156,0.092,0.149,0.952,0.18,8.7,-10.01,0,1
14866.156,0.097,0.149,0.965,-2.99,10.5,-10.5,0,1
14866.171,0.102,0.142,0.981,-5.4,12.21,-9.67,0,1
14866.171,0.094,0.135,1.002,-5.83,14.04,-8.27,0,1
14866.187,0.1,0.128,1.017,-5.43,13.67,-7.57,0,1
14866.203,0.09,0.115,1.024,-3.33,12.6,-7.29,0,1
14866.203,0.069,0.115,1.024,-0.79,10.9,-7.84,0,1
14866.218,0.056,0.125,1.009,1.25,7.63,-9.4,0,1
14866.234,0.05,0.147,0.99,2.11,5.43,-10.56,0,1
14866.234,0.059,0.166,0.975,0.85,4.3,-11.02,0,1
14866.25,0.078,0.179,0.97,-2.69,3.94,-10.04,0,1
14866.25,0.079,0.174,0.976,-6.99,5.13,-8.36,0,1
14866.265,0.086,0.145,0.988,-10.65,6.16,-6.56,0,1
14866.281,0.096,0.13,1.004,-11.9,6.1,-5.77,0,1
14866.281,0.086,0.119,1.015,-9.89,6.35,-5.95,0,1
14866.296,0.061,0.111,1.009,-6.41,5.25,-5.74,0,1
14866.312,0.046,0.119,0.987,-3.33,1.71,-4.82,0,1
14866.312,0.041,0.131,0.962,-3.54,-1.74,-3.57,0,1
14866.328,0.071,0.139,0.953,-9.28,-3.6,-2.47,0,1
14866.328,0.085,0.138,0.957,-17.18,-1.65,-2.29,0,1
14866.343,0.066,0.115,0.985,-24.54,2.29,-2.08,0,1
14866.359,0.062,0.086,1.014,-29.54,4.15,-1.5,0,1
14866.359,0.047,0.077,1.034,-28.69,4.06,-1.43,0,1
14866.375,0.01,0.068,1.052,-24.38,2.96,-2.14,0,1
14866.39,-0.019,0.063,1.045,-19.75,-0.06,-3.2,0,1
14866.39,0.014,0.069,1.029,-14.44,-4.33,-4.21,0,1
14866.406,0.03,0.086,1.012,-9.43,-6.16,-4.18,0,1
14866.421,0.036,0.084,1.017,-8.3,-5.28,-3.33,0,1
14866.421,0.063,0.077,1.028,-10.77,-2.78,-2.69,0,1
14866.437,0.059,0.072,1.044,-13.34,0.31,-3.27,0,1
14866.453,0.056,0.06,1.067,-14.89,1.46,-4.43,0,1
14866.453,0.054,0.069,1.078,-15.26,-0.64,-5.49,0,1
14866.468,0.037,0.069,1.081,-14.44,-2.96,-5.68,0,1
14866.484,0.04,0.059,1.091,-13.09,-5.37,-5.71,0,1
14866.484,0.064,0.064,1.09,-11.11,-8.51,-6.01,0,1
14866.5,0.062,0.058,1.069,-7.87,-10.01,-6.23,0,1
14866.5,0.057,0.066,1.05,-5.74,-11.23,-6.26,0,1
14866.515,0.018,0.089,1.038,-4.15,-12.97,-6.5,0,1
14866.531,0.004,0.093,1.013,-3.85,-16.36,-5.25,0,1
14866.531,0.051,0.102,0.978,-5.74,-21.0,-3.2,0,1
14866.546,0.083,0.097,0.952,-7.75,-20.57,-1.43,0,1
14866.562,0.104,0.065,0.949,-11.38,-16.45,-0.31,0,1
14866.562,0.123,0.044,0.948,-15.26,-11.75,-0.43,0,1
14866.578,0.117,0.033,0.955,-16.85,-6.65,-1.95,0,1
14866.593,0.114,0.016,0.982,-16.79,-2.35,-3.88,0,1
14866.593,0.103,0.017,1.009,-15.14,0.46,-5.34,0,1
14866.609,0.092,0.026,1.022,-11.69,1.43,-6.41,0,1
14866.625,0.079,0.038,1.033,-8.64,1.04,-6.99,0,1
14866.625,0.079,0.041,1.032,-6.81,-1.04,-7.17,0,1
14866.64,0.082,0.048,1.019,-5.71,-4.12,-6.87,0,1
14866.64,0.076,0.058,0.997,-4.94,-7.35,-6.32,0,1
14866.656,0.08,0.068,0.967,-5.01,-10.28,-6.56,0,1
14866.671,0.072,0.071,0.94,-4.64,-11.29,-7.08,0,1
14866.671,0.063,0.073,0.913,-3.42,-11.54,-6.47,0,1
14866.687,0.081,0.076,0.879,-2.26,-11.05,-5.01,0,1
14866.703,0.086,0.073,0.861,-2.26,-6.9,-3.05,0,1
14866.703,0.097,0.074,0.853,-5.77,-0.7,-1.37,0,1
14866.718,0.103,0.065,0.875,-12.63,5.37,-0.89,0,1
14866.718,0.087,0.042,0.92,-18.89,11.11,-0.49,0,1
14866.734,0.059,0.036,0.961,-22.34,14.59,-0.64,0,1
14866.75,0.038,0.021,1.0,-23.9,14.59,-0.37,0,1
14866.75,0.037,0.01,1.034,-23.04,11.29,-0.31,0,1
14866.765,0.048,0.02,1.044,-19.71,7.08,-0.89,0,1
14866.781,0.038,0.031,1.035,-16.75,3.69,-1.43,0,1
14866.781,0.032,0.033,1.027,-15.9,1.59,-0.95,0,1
14866.796,0.052,0.032,1.024,-17.12,0.58,-0.52,0,1
14866.812,0.063,0.028,1.032,-18.89,1.71,-0.67,0,1
14866.812,0.072,0.016,1.038,-19.44,2.66,-0.82,0,1
14866.828,0.071,0.008,1.046,-17.82,2.78,-1.22,0,1
14866.843,0.076,0.005,1.05,-14.77,2.29,-1.53,0,1
14866.843,0.09,-0.003,1.042,-11.99,0.95,-1.19,0,1
14866.859,0.094,-0.009,1.033,-9.8,0.31,-0.76,0,1
14866.859,0.082,-0.021,1.029,-7.2,0.61,-0.95,0,1
14866.875,0.073,-0.029,1.025,-4.91,-0.34,-1.59,0,1
14866.89,0.075,-0.021,1.012,-2.72,-2.29,-2.72,0,1
14866.89,0.078,-0.017,0.994,-0.43,-2.93,-4.03,0,1
14866.906,0.09,-0.003,0.963,0.4,-2.75,-4.52,0,1
14866.921,0.088,0.011,0.943,-0.82,-1.62,-3.91,0,1
14866.921,0.07,0.004,0.948,-4.06,1.13,-2.78,0,1
14866.937,0.07,-0.008,0.959,-8.85,2.56,-2.01,0,1
14866.953,0.071,-0.029,0.973,-12.42,2.87,-2.99,0,1
14866.953,0.076,-0.046,0.986,-13.49,3.14,-4.49,0,1
14866.968,0.074,-0.056,0.99,-11.66,3.78,-6.1,0,1
14866.968,0.075,-0.058,0.986,-8.18,3.75,-8.03,0,1
14866.984,0.08,-0.048,0.983,-4.27,4.09,-9.25,0,1
14867.0,0.072,-0.042,0.979,-0.55,5.04,-9.34,0,1
14867.0,0.072,-0.03,0.974,2.72,5.62,-9.0,0,1
14867.015,0.06,-0.021,0.983,5.37,7.63,-8.55,0,1
14867.031,0.04,-0.024,1.007,7.02,9.19,-8.18,0,1
14867.046,0.02,-0.019,1.012,10.62,5.86,-7.11,0,1
14867.046,-0.002,-0.007,1.004,11.23,1.16,-6.87,0,1
14867.062,-0.009,0.009,0.99,10.47,-4.03,-6.32,0,1
14867.062,0.013,0.023,0.962,8.48,-6.23,-4.55,0,1
14867.078,0.062,0.037,0.947,4.97,-3.88,-2.26,0,1
14867.078,0.068,0.022,0.963,-0.31,0.4,-0.27,0,1
14867.093,0.087,0.02,0.996,-4.61,4.46,1.19,0,1
14867.109,0.06,0.004,1.016,-5.07,8.58,0.46,0,1
14867.125,0.05,-0.02,1.028,-5.04,9.95,1.46,0,1
14867.125,0.066,-0.016,1.031,-3.69,8.15,1.62,0,1
14867.14,0.056,-0.028,1.041,-1.43,6.35,0.79,0,1
14867.14,0.052,-0.037,1.038,-1.1,3.39,0.03,0,1
14867.156,0.055,-0.033,1.029,-2.41,0.09,-0.34,0,1
14867.171,0.068,-0.026,1.017,-4.12,-2.62,-1.5,0,1
14867.171,0.071,-0.027,1.02,-6.96,-3.63,-2.99,0,1
14867.187,0.074,-0.037,1.031,-9.13,-3.57,-4.36,0,1
14867.203,0.064,-0.041,1.035,-8.15,-3.51,-5.83,0,1
14867.203,0.061,-0.035,1.035,-5.46,-3.85,-6.38,0,1
14867.218,0.07,-0.026,1.039,-4.12,-4.33,-6.74,0,1
14867.234,0.073,-0.017,1.043,-4.79,-4.43,-7.32,0,1
14867.234,0.066,-0.013,1.056,-5.83,-3.57,-8.48,0,1
14867.25,0.06,-0.023,1.061,-6.16,-3.33,-9.64,0,1
14867.25,0.066,-0.025,1.063,-4.21,-3.75,-10.77,0,1
14867.265,0.067,-0.023,1.05,0.12,-2.72,-11.23,0,1
14867.281,0.06,-0.005,1.033,4.18,-1.07,-10.86,0,1
14867.281,0.055,0.031,1.016,6.13,-1.46,-10.62,0,1
14867.296,0.05,0.034,1.009,4.36,-2.26,-9.16,0,1
14867.312,0.057,0.024,1.014,0.24,-2.9,-7.26,0,1
14867.312,0.066,0.01,1.015,-2.59,-2.62,-6.5,0,1
14867.328,0.063,-0.006,1.017,-3.57,-2.44,-6.5,0,1
14867.343,0.057,-0.009,1.019,-1.89,-3.45,-6.56,0,1
14867.343,0.049,-0.011,1.01,1.71,-4.55,-5.01,0,1
14867.359,0.08,0.007,0.991,5.04,-5.83,-2.47,0,1
14867.359,0.086,0.006,0.978,7.02,-2.62,-1.25,0,1
14867.375,0.055,0.008,1.011,4.06,0.15,-1.98,0,1
14867.39,0.045,0.021,1.032,0.46,-1.22,-2.84,0,1
14867.39,0.038,0.015,1.027,-1.1,-3.54,-2.29,0,1
14867.406,0.046,-0.008,1.021,-0.89,-6.26,-2.66,0,1
14867.421,0.049,-0.021,1.008,2.2,-8.42,-3.45,0,1
14867.421,0.056,-0.004,0.979,6.41,-9.52,-3.11,0,1
14867.437,0.045,0.013,0.932,10.07,-9.55,-2.72,0,1
14867.453,0.059,0.014,0.9,10.47,-9.43,-1.34,0,1
14867.453,0.084,0.001,0.9,8.03,-5.52,-0.4,0,1
14867.468,0.084,-0.023,0.916,4.94,1.25,-1.04,0,1
14867.468,0.071,-0.035,0.95,2.62,6.56,-1.68,0,1
14867.484,0.063,-0.036,0.982,1.98,8.58,-2.04,0,1
14867.5,0.043,-0.027,1.003,3.23,7.2,-2.53,0,1
14867.5,0.044,-0.015,0.983,5.1,2.59,-1.98,0,1
14867.515,0.082,-0.004,0.963,4.94,-1.89,-0.98,0,1
14867.531,0.093,-0.013,0.969,2.87,-0.64,0.43,0,1
14867.546,0.096,-0.017,0.988,0.24,2.59,1.1,0,1
14867.546,0.083,-0.008,1.005,-1.1,5.71,0.31,0,1
14867.562,0.072,-0.001,1.026,-1.98,8.55,-0.24,0,1
14867.562,0.061,0.022,1.038,-2.62,8.79,-0.4,0,1
14867.578,0.051,0.041,1.032,-1.98,6.96,-1.1,0,1
14867.593,0.061,0.042,1.024,-1.19,5.37,-1.01,0,1
14867.593,0.069,0.037,1.019,-1.31,4.67,-0.64,0,1
14867.609,0.072,0.025,1.025,-2.01,5.1,-0.76,0,1
14867.609,0.069,-0.003,1.027,-1.89,5.28,-0.85,0,1
14867.625,0.065,-0.028,1.026,-0.73,5.49,-0.89,0,1
14867.64,0.065,-0.04,1.028,1.22,5.31,-1.65,0,1
14867.656,0.054,-0.04,1.034,3.72,5.74,-2.44,0,1
14867.656,0.052,-0.028,1.013,6.26,4.61,-3.2,0,1
14867.671,0.051,0.002,1.003,6.9,3.75,-3.51,0,1
14867.671,0.044,0.022,0.992,6.1,4.52,-2.75,0,1
14867.687,0.038,0.018,0.989,3.42,3.69,-1.53,0,1
14867.703,0.047,0.012,0.99,0.79,2.47,-1.22,0,1
14867.703,0.046,0.005,0.982,0.64,2.32,-1.43,0,1
14867.718,0.042,0.006,0.97,1.92,1.74,-1.65,0,1
14867.734,0.055,0.013,0.953,3.05,0.64,-1.98,0,1
14867.734,0.06,0.026,0.946,3.57,2.26,-1.77,0,1
14867.75,0.054,0.026,0.951,2.5,4.7,-1.77,0,1
14867.75,0.051,0.012,0.968,0.7,6.74,-1.86,0,1
14867.765,0.051,-0.003,0.982,-0.06,8.55,-1.68,0,1
14867.781,0.041,-0.002,0.995,0.98,9.19,-2.11,0,1
14867.781,0.037,-0.01,1.0,1.98,8.39,-2.72,0,1
14867.796,0.04,-0.002,1.0,1.92,7.39,-3.85,0,1
14867.812,0.044,0.02,0.99,2.72,6.38,-4.61,0,1
14867.812,0.041,0.03,0.989,2.53,6.56,-4.64,0,1
14867.828,0.033,0.017,0.988,1.62,6.59,-4.64,0,1
