timestamp,ax,ay,az,gx,gy,gz,orient_label,motion_label
14817.531,0.353,0.011,0.939,-3.17,8.61,-1.92,0,1
14817.531,0.348,-0.018,0.953,-5.98,4.7,-0.21,0,1
14817.546,0.358,-0.041,0.96,-7.6,0.73,0.82,0,1
14817.546,0.372,-0.057,0.96,-7.6,-2.53,0.7,0,1
14817.562,0.383,-0.052,0.958,-4.64,-4.3,-0.4,0,1
14817.578,0.409,-0.043,0.949,-0.92,-4.3,-1.22,0,1
14817.578,0.41,-0.032,0.932,2.23,-2.41,-2.35,0,1
14817.593,0.407,-0.031,0.927,4.3,0.03,-2.87,0,1
14817.609,0.406,-0.023,0.922,5.34,2.66,-3.69,0,1
14817.609,0.385,-0.028,0.9,5.52,4.88,-4.46,0,1
14817.625,0.622,-0.15,0.332,3.45,17.12,-6.2,0,1
14817.64,0.356,0.006,1.42,-4.97,56.95,-15.63,0,1
14817.64,-0.403,0.271,1.802,11.41,-3.02,-17.55,0,1
14817.656,0.861,0.042,0.442,8.18,-44.07,26.52,0,1
14817.671,0.571,-0.17,0.932,-37.11,-16.02,-3.48,0,1
14817.671,0.19,-0.107,1.185,-2.96,-0.4,-14.04,0,1
14817.687,0.407,0.087,0.697,35.68,-4.61,3.3,0,1
14817.703,0.294,-0.008,0.972,4.85,9.06,-11.2,0,1
14817.718,0.399,0.057,0.895,6.26,9.55,-1.86,0,1
14817.718,0.352,-0.022,0.977,-2.23,10.9,-3.54,0,1
14817.734,0.34,-0.022,0.978,-2.38,8.88,-1.95,0,1
14817.75,0.345,-0.036,0.958,1.37,4.33,-4.33,0,1
14817.75,0.347,-0.021,0.945,8.61,1.95,-5.89,0,1
14817.765,0.369,0.01,0.902,13.73,1.34,-5.43,0,1
14817.781,0.358,0.014,0.9,9.37,2.17,-5.62,0,1
14817.781,0.34,0.001,0.897,4.43,3.02,-4.79,0,1
14817.796,0.334,-0.005,0.876,3.02,3.08,-3.91,0,1
14817.796,0.326,-0.009,0.883,2.5,2.96,-3.42,0,1
14817.812,0.339,0.001,0.895,1.62,3.2,-2.5,0,1
14817.828,0.346,0.006,0.914,-1.01,4.46,-1.43,0,1
14817.828,0.334,0.004,0.931,-4.0,5.13,-0.7,0,1
14817.843,0.341,-0.01,0.937,-5.49,4.12,0.43,0,1
14817.859,0.34,-0.014,0.942,-5.04,2.59,0.49,0,1
14817.875,0.339,0.009,0.935,-1.77,1.19,1.4,0,1
14817.89,0.337,0.009,0.94,-2.99,1.22,2.35,0,1
14817.89,0.331,-0.012,0.946,-5.83,0.73,3.6,0,1
14817.906,0.347,-0.029,0.953,-7.72,-1.19,3.97,0,1
14817.921,0.347,-0.033,0.944,-6.99,-3.14,3.72,0,1
14817.921,0.353,-0.024,0.931,-3.91,-3.54,2.62,0,1
14817.937,0.354,-0.012,0.922,-0.55,-2.14,1.43,0,1
14817.953,0.347,0.0,0.922,1.37,0.55,0.24,0,1
14817.953,0.337,0.003,0.929,1.37,2.53,-0.18,0,1
14817.968,0.33,0.002,0.945,-0.12,4.09,0.27,0,1
14817.968,0.314,-0.008,0.966,-2.04,4.03,0.09,0,1
14817.984,0.305,-0.006,0.984,-0.76,1.95,0.18,0,1
14818.0,0.311,0.003,0.995,1.01,-1.43,-0.24,0,1
14818.0,0.318,0.008,0.994,2.53,-5.4,-0.46,0,1
14818.015,0.346,0.001,0.963,2.81,-8.76,-0.34,0,1
14818.031,0.362,0.006,0.956,1.62,-9.13,-0.21,0,1
14818.031,0.364,0.01,0.95,-0.15,-6.96,-0.24,0,1
14818.046,0.363,0.005,0.959,-1.77,-3.69,0.24,0,1
14818.062,0.358,-0.001,0.973,-1.86,-0.64,0.64,0,1
14818.062,0.346,-0.012,0.974,-0.18,0.67,0.64,0,1
14818.078,0.342,-0.01,0.969,1.28,0.52,0.58,0,1
14818.078,0.347,-0.007,0.97,1.5,-0.03,1.07,0,1
14818.093,0.35,-0.001,0.967,0.49,-0.37,1.5,0,1
14818.109,0.353,0.004,0.965,-0.76,-0.4,1.62,0,1
14818.109,0.347,0.006,0.973,-1.56,-0.18,1.95,0,1
14818.125,0.351,-0.012,0.973,-1.5,-0.61,2.47,0,1
14818.14,0.379,-0.024,0.971,-1.25,-1.89,3.02,0,1
14818.14,0.378,-0.023,0.963,-1.19,-1.37,2.9,0,1
14818.156,0.362,-0.024,0.947,-1.4,-0.24,1.98,0,1
14818.171,0.361,-0.015,0.942,-1.1,0.64,1.62,0,1
14818.171,0.363,-0.002,0.94,-1.07,2.35,1.77,0,1
14818.187,0.356,-0.001,0.938,-2.11,4.7,1.8,0,1
14818.187,0.344,-0.005,0.938,-2.9,6.1,1.77,0,1
14818.203,0.333,-0.001,0.937,-2.23,6.62,1.77,0,1
14818.218,0.33,0.006,0.936,-0.89,6.56,2.11,0,1
14818.218,0.333,0.016,0.935,-0.79,6.16,2.81,0,1
14818.234,0.325,0.016,0.934,-2.2,6.2,3.08,0,1
14818.25,0.317,0.011,0.933,-4.0,6.41,3.94,0,1
14818.25,0.308,0.001,0.934,-6.04,6.81,4.76,0,1
14818.265,0.301,-0.009,0.945,-7.14,7.97,5.19,0,1
14818.281,0.294,-0.003,0.954,-6.9,10.65,5.49,0,1
14818.281,0.278,0.017,0.977,-7.11,14.59,6.16,0,1
14818.296,0.255,0.043,1.012,-8.76,18.19,7.45,0,1
14818.296,0.213,0.059,1.048,-11.02,19.71,8.73,0,1
14818.312,0.158,0.041,1.095,-13.7,17.0,11.35,0,1
14818.328,0.104,-0.015,1.133,-13.89,9.06,15.2,0,1
14818.328,0.063,-0.069,1.129,-10.56,-4.82,18.83,0,1
14818.343,0.072,-0.091,1.032,-2.38,-18.31,21.88,0,1
14818.359,0.103,-0.133,0.982,11.14,-26.92,22.98,0,1
14818.359,0.179,-0.132,0.907,23.5,-39.58,19.47,0,1
14818.375,0.278,-0.096,0.81,35.31,-45.2,16.79,0,1
14818.406,0.323,-0.017,0.785,48.59,-25.48,19.84,0,1
14818.406,0.291,0.025,0.803,50.54,-9.52,25.33,0,1
14818.421,0.279,0.05,0.86,44.5,7.11,33.69,0,1
14818.421,0.252,0.048,0.901,35.68,20.91,40.93,0,1
14818.437,0.25,0.047,0.933,29.11,33.39,43.28,0,1
14818.453,0.25,0.032,0.953,25.67,42.88,39.92,0,1
14818.453,0.243,-0.002,0.974,28.02,51.61,36.23,0,1
14818.468,0.193,0.006,1.018,38.21,64.03,31.04,0,1
14818.468,0.122,0.024,1.021,51.42,73.64,24.99,0,1
14818.484,0.063,0.062,1.021,59.79,85.42,23.13,0,1
14818.5,-0.057,0.126,1.056,65.52,98.61,23.8,0,1
14818.5,-0.135,0.143,1.083,70.1,103.46,29.27,0,1
14818.515,-0.136,0.128,1.084,74.43,102.51,39.77,0,1
14818.531,-0.113,0.14,1.059,78.16,102.39,51.21,0,1
14818.531,-0.138,0.135,1.043,81.33,106.17,59.02,0,1
14818.546,-0.152,0.093,1.011,84.02,108.37,62.65,0,1
14818.562,-0.182,0.082,0.999,85.57,106.88,63.05,0,1
14818.562,-0.202,0.087,1.011,85.3,98.85,62.84,0,1
14818.578,-0.165,0.142,1.009,79.07,83.59,62.32,0,1
14818.578,-0.111,0.201,0.964,67.51,68.45,60.61,0,1
14818.593,-0.1,0.199,0.906,50.84,59.82,59.91,0,1
14818.609,-0.061,0.196,0.889,30.61,58.44,61.19,0,1
14818.609,-0.043,0.16,0.9,14.07,64.67,60.18,0,1
14818.625,-0.027,0.08,0.941,4.39,74.04,58.05,0,1
14818.64,0.05,0.051,0.958,1.25,77.94,54.78,0,1
14818.64,0.093,0.039,0.935,6.5,78.16,50.2,0,1
14818.656,0.111,0.023,0.922,18.37,78.95,45.96,0,1
14818.671,0.121,0.058,0.915,31.56,78.89,42.05,0,1
14818.671,0.108,0.118,0.909,43.12,78.77,37.35,0,1
14818.687,0.058,0.136,0.915,49.53,79.1,33.81,0,1
14818.687,0.042,0.156,0.947,49.96,79.35,32.26,0,1
14818.703,0.087,0.177,0.981,45.78,76.45,31.46,0,1
14818.718,0.107,0.182,0.98,40.01,71.23,31.46,0,1
14818.734,0.079,0.168,0.967,35.46,66.41,30.61,0,1
14818.734,0.039,0.137,0.962,32.75,61.1,28.47,0,1
14818.75,-0.007,0.132,0.971,30.58,54.2,26.64,0,1
14818.75,0.005,0.156,0.984,28.17,45.26,23.59,0,1
14818.765,0.084,0.177,0.985,26.83,35.25,19.81,0,1
14818.781,0.153,0.197,0.973,27.16,27.38,15.81,0,1
14818.781,0.183,0.199,0.966,28.44,22.31,13.49,0,1
14818.796,0.176,0.201,0.97,30.55,18.1,12.36,0,1
14818.812,0.149,0.197,0.974,33.48,13.06,11.72,0,1
14818.812,0.091,0.204,0.977,35.04,8.06,10.71,0,1
14818.828,0.056,0.193,0.979,33.27,2.96,8.64,0,1
14818.828,0.036,0.175,1.002,28.23,-1.86,5.4,0,1
14818.843,0.068,0.16,1.023,21.3,-7.9,0.15,0,1
14818.859,0.142,0.175,1.022,13.73,-15.69,-6.68,0,1
14818.859,0.173,0.176,0.996,8.64,-24.57,-11.93,0,1
14818.875,0.18,0.176,0.968,7.63,-32.99,-14.89,0,1
14818.89,0.193,0.193,0.958,9.52,-39.83,-17.43,0,1
14818.89,0.188,0.2,0.952,11.44,-43.15,-19.44,0,1
14818.906,0.161,0.181,0.971,12.15,-41.69,-20.91,0,1
14818.906,0.17,0.128,0.996,14.13,-39.64,-19.41,0,1
14818.921,0.232,0.122,1.001,21.15,-36.32,-16.51,0,1
14818.937,0.264,0.159,0.98,32.17,-29.76,-16.85,0,1
14818.937,0.239,0.16,0.962,42.76,-24.45,-16.54,0,1
14818.953,0.233,0.24,0.949,51.24,-25.3,-22.83,0,1
14818.968,0.238,0.327,0.909,46.82,-28.32,-26.06,0,1
14818.984,0.208,0.38,0.873,36.1,-29.24,-25.82,0,1
14818.984,0.192,0.391,0.88,23.71,-28.99,-23.16,0,1
14819.0,0.169,0.288,0.925,17.82,-27.62,-19.07,0,1
14819.0,0.172,0.232,0.954,20.75,-25.03,-16.54,0,1
14819.015,0.193,0.216,0.98,29.76,-21.27,-16.39,0,1
14819.031,0.227,0.249,0.991,39.52,-19.01,-18.1,0,1
14819.031,0.223,0.297,0.965,46.45,-18.43,-20.2,0,1
14819.046,0.199,0.325,0.943,48.65,-18.62,-20.48,0,1
14819.046,0.16,0.362,0.934,45.66,-19.35,-19.81,0,1
14819.062,0.125,0.397,0.939,37.75,-21.18,-20.33,0,1
14819.078,0.119,0.391,0.947,27.68,-22.4,-21.67,0,1
14819.078,0.106,0.373,0.958,19.75,-21.67,-22.71,0,1
14819.093,0.115,0.381,0.981,16.39,-19.1,-24.69,0,1
14819.109,0.147,0.395,0.995,16.51,-17.43,-26.49,0,1
14819.109,0.15,0.434,0.989,18.59,-17.21,-27.22,0,1
14819.125,0.152,0.471,0.979,19.9,-19.41,-26.61,0,1
14819.14,0.144,0.474,0.966,20.23,-23.83,-24.02,0,1
14819.14,0.134,0.47,0.956,21.09,-27.77,-19.5,0,1
14819.156,0.128,0.451,0.948,22.0,-30.24,-14.19,0,1
14819.171,0.121,0.415,0.945,23.99,-29.63,-9.22,0,1
14819.171,0.117,0.378,0.951,27.99,-26.31,-5.49,0,1
14819.187,0.107,0.363,0.962,33.6,-21.18,-4.15,0,1
14819.187,0.092,0.375,0.968,38.85,-15.93,-5.34,0,1
14819.203,0.085,0.388,0.973,41.66,-12.09,-7.26,0,1
14819.218,0.105,0.398,0.976,41.96,-10.44,-9.25,0,1
14819.234,0.115,0.415,0.956,42.21,-10.38,-11.54,0,1
14819.234,0.106,0.435,0.945,41.78,-12.18,-13.64,0,1
14819.25,0.1,0.475,0.924,38.18,-16.57,-16.27,0,1
14819.25,0.102,0.506,0.894,31.56,-22.03,-19.26,0,1
14819.265,0.108,0.516,0.872,24.05,-26.67,-21.27,0,1
14819.281,0.101,0.527,0.856,17.18,-29.02,-22.0,0,1
14819.281,0.096,0.543,0.845,10.32,-28.5,-22.71,0,1
14819.296,0.1,0.545,0.849,3.6,-25.36,-23.93,0,1
14819.312,0.104,0.534,0.86,-1.25,-19.93,-24.51,0,1
14819.312,0.094,0.542,0.872,-3.72,-13.4,-24.51,0,1
14819.328,0.089,0.548,0.883,-5.22,-7.45,-24.38,0,1
14819.343,0.078,0.55,0.902,-5.8,-2.96,-23.8,0,1
14819.343,0.074,0.546,0.922,-4.46,-0.61,-21.58,0,1
14819.359,0.077,0.542,0.932,-0.46,-0.55,-17.7,0,1
14819.359,0.08,0.547,0.936,4.94,-1.59,-13.92,0,1
14819.375,0.086,0.552,0.932,8.55,-3.3,-11.2,0,1
14819.39,0.091,0.557,0.926,9.64,-5.04,-9.34,0,1
14819.39,0.102,0.553,0.917,9.34,-6.56,-7.75,0,1
14819.406,0.109,0.548,0.906,7.81,-7.78,-6.56,0,1
14819.421,0.112,0.55,0.9,5.4,-8.42,-5.98,0,1
14819.421,0.123,0.543,0.89,2.72,-8.76,-5.95,0,1
14819.437,0.132,0.524,0.89,0.46,-8.61,-5.52,0,1
14819.437,0.136,0.517,0.894,-1.22,-7.63,-5.22,0,1
14819.453,0.136,0.516,0.899,-2.41,-6.16,-5.31,0,1
14819.468,0.14,0.506,0.903,-3.27,-5.28,-4.91,0,1
14819.468,0.14,0.5,0.908,-2.69,-4.88,-4.06,0,1
14819.484,0.141,0.504,0.913,-1.01,-5.28,-3.2,0,1
14819.5,0.145,0.504,0.91,0.95,-6.59,-2.04,0,1
14819.5,0.151,0.501,0.911,1.89,-8.42,-0.43,0,1
14819.515,0.162,0.499,0.905,2.11,-10.38,1.07,0,1
14819.531,0.17,0.49,0.905,0.89,-12.3,2.26,0,1
14819.531,0.177,0.465,0.9,-0.46,-14.22,3.54,0,1
14819.546,0.177,0.438,0.897,-0.7,-15.9,5.07,0,1
14819.562,0.174,0.424,0.897,-0.46,-16.51,6.32,0,1
14819.562,0.183,0.415,0.902,-1.01,-17.03,6.84,0,1
14819.578,0.192,0.409,0.893,-2.14,-17.88,6.16,0,1
14819.593,0.201,0.405,0.881,-3.88,-18.25,4.82,0,1
14819.593,0.205,0.398,0.867,-6.01,-17.94,2.62,0,1
14819.609,0.198,0.41,0.855,-8.73,-16.36,-0.55,0,1
14819.609,0.194,0.421,0.855,-12.3,-14.95,-3.3,0,1
14819.625,0.18,0.418,0.853,-14.98,-14.1,-4.39,0,1
14819.64,0.169,0.414,0.859,-16.54,-14.1,-3.48,0,1
14819.64,0.169,0.403,0.867,-15.87,-15.05,-1.98,0,1
14819.656,0.174,0.388,0.866,-12.36,-16.79,-0.09,0,1
14819.671,0.178,0.384,0.858,-7.23,-18.62,0.82,0,1
14819.671,0.175,0.394,0.841,-2.29,-20.02,0.55,0,1
14819.687,0.158,0.419,0.821,0.18,-20.39,-0.85,0,1
14819.687,0.141,0.444,0.803,-1.56,-19.87,-2.84,0,1
14819.703,0.126,0.485,0.798,-7.32,-17.52,-5.86,0,1
14819.718,0.118,0.494,0.806,-14.86,-14.74,-8.42,0,1
14819.734,0.119,0.48,0.817,-21.12,-12.24,-9.61,0,1
14819.734,0.121,0.474,0.825,-24.08,-10.53,-9.64,0,1
14819.75,0.12,0.469,0.836,-23.68,-9.43,-9.58,0,1
14819.75,0.127,0.449,0.851,-20.75,-9.34,-8.88,0,1
14819.765,0.136,0.428,0.842,-15.66,-9.8,-6.87,0,1
14819.781,0.149,0.425,0.828,-9.37,-9.31,-4.46,0,1
14819.781,0.154,0.426,0.814,-3.85,-7.6,-3.51,0,1
14819.796,0.152,0.44,0.81,-1.53,-4.67,-4.0,0,1
14819.812,0.152,0.453,0.808,-3.11,-1.04,-5.19,0,1
14819.812,0.145,0.444,0.808,-6.35,2.59,-6.2,0,1
14819.828,0.133,0.439,0.812,-9.89,5.8,-7.2,0,1
14819.828,0.123,0.444,0.824,-13.18,8.7,-8.73,0,1
14819.843,0.111,0.447,0.838,-16.57,11.08,-10.65,0,1
14819.859,0.105,0.439,0.849,-18.25,12.48,-11.51,0,1
14819.859,0.085,0.451,0.866,-17.46,14.19,-11.26,0,1
14819.875,0.074,0.455,0.884,-15.56,15.11,-10.19,0,1
14819.89,0.079,0.433,0.897,-12.02,14.34,-8.42,0,1
14819.89,0.093,0.416,0.899,-5.89,12.45,-6.26,0,1
14819.906,0.114,0.42,0.89,0.4,10.53,-4.94,0,1
14819.921,0.163,0.414,0.842,6.68,7.78,-5.83,0,1
14819.937,0.177,0.417,0.818,3.23,11.44,-9.03,0,1
14819.953,0.153,0.442,0.808,-5.04,16.72,-12.6,0,1
14819.953,0.104,0.481,0.827,-16.08,21.33,-14.89,0,1
14819.968,0.064,0.485,0.87,-24.69,23.71,-15.2,0,1
14819.968,0.024,0.458,0.965,-27.89,23.16,-14.53,0,1
14819.984,0.04,0.427,0.987,-25.12,20.75,-13.43,0,1
14820.0,0.047,0.407,0.998,-16.79,18.04,-11.54,0,1
14820.0,0.046,0.408,0.989,-6.1,15.56,-9.7,0,1
14820.015,0.045,0.412,0.961,2.26,13.28,-8.33,0,1
14820.031,0.031,0.426,0.941,6.47,12.7,-7.51,0,1
14820.031,0.024,0.445,0.934,5.43,12.82,-8.06,0,1
14820.046,0.036,0.426,0.922,1.65,11.84,-8.76,0,1
14820.062,0.051,0.398,0.907,-1.13,10.71,-8.7,0,1
14820.062,0.07,0.379,0.892,-1.77,10.13,-9.09,0,1
14820.078,0.083,0.353,0.872,-0.79,11.05,-10.47,0,1
14820.093,0.057,0.334,0.852,2.01,18.46,-14.65,0,1
14820.109,-0.003,0.371,0.87,1.5,23.1,-16.11,0,1
14820.109,-0.042,0.409,0.902,-3.2,25.06,-17.33,0,1
14820.125,-0.062,0.416,0.932,-8.3,23.71,-18.04,0,1
14820.14,-0.061,0.415,0.954,-11.78,20.02,-18.13,0,1
14820.14,-0.049,0.401,0.965,-12.85,14.83,-17.43,0,1
14820.156,-0.033,0.377,0.956,-11.05,9.28,-16.36,0,1
14820.171,-0.011,0.367,0.937,-6.9,5.1,-15.35,0,1
14820.171,-0.0,0.36,0.914,-1.31,3.57,-14.5,0,1
14820.187,-0.008,0.366,0.899,3.36,4.52,-13.79,0,1
14820.203,-0.012,0.374,0.89,6.04,5.8,-12.6,0,1
14820.203,-0.013,0.38,0.885,7.66,6.87,-10.99,0,1
14820.218,-0.013,0.38,0.878,8.58,7.97,-9.67,0,1
14820.218,-0.018,0.39,0.872,8.79,9.43,-9.86,0,1
14820.234,-0.017,0.397,0.867,6.99,10.44,-11.08,0,1
14820.25,-0.021,0.397,0.869,4.03,11.44,-12.21,0,1
14820.265,-0.056,0.418,0.896,-2.2,12.42,-12.82,0,1
14820.281,-0.064,0.418,0.911,-4.88,11.9,-12.82,0,1
14820.281,-0.075,0.427,0.925,-6.47,11.26,-12.94,0,1
14820.296,-0.083,0.432,0.935,-6.59,10.35,-12.7,0,1
14820.312,-0.09,0.433,0.939,-5.74,8.88,-11.66,0,1
14820.312,-0.079,0.432,0.941,-4.36,6.53,-10.07,0,1
14820.328,-0.07,0.428,0.936,-2.04,4.27,-8.42,0,1
14820.328,-0.069,0.422,0.924,0.27,2.56,-7.05,0,1
14820.343,-0.06,0.414,0.913,2.11,1.89,-6.04,0,1
14820.359,-0.047,0.405,0.899,4.06,1.92,-5.31,0,1
14820.359,-0.036,0.394,0.886,5.92,2.59,-4.82,0,1
14820.375,-0.03,0.388,0.879,7.6,4.33,-4.58,0,1
14820.39,-0.038,0.395,0.879,8.15,6.41,-5.13,0,1
14820.39,-0.053,0.414,0.89,7.11,7.93,-6.41,0,1
14820.406,-0.072,0.425,0.904,4.24,7.9,-7.17,0,1
14820.421,-0.088,0.43,0.921,0.98,6.29,-7.45,0,1
14820.437,-0.095,0.432,0.944,-1.01,0.27,-7.08,0,1
14820.437,-0.085,0.437,0.936,0.43,-2.38,-6.56,0,1
14820.453,-0.07,0.436,0.923,2.66,-4.03,-5.68,0,1
14820.468,-0.057,0.437,0.908,5.34,-4.15,-4.49,0,1
14820.468,-0.047,0.439,0.897,7.48,-3.3,-3.2,0,1
14820.484,-0.043,0.441,0.893,9.25,-1.5,-1.98,0,1
14820.5,-0.039,0.433,0.891,10.96,0.49,-0.64,0,1
14820.5,-0.039,0.429,0.892,12.57,2.23,0.46,0,1
14820.515,-0.038,0.435,0.89,13.25,3.2,0.64,0,1
14820.531,-0.04,0.434,0.887,12.94,2.99,0.89,0,1
14820.531,-0.039,0.434,0.887,11.75,2.08,1.37,0,1
14820.546,-0.04,0.432,0.891,9.52,0.92,1.62,0,1
14820.546,-0.045,0.426,0.893,6.87,-0.37,1.22,0,1
14820.562,-0.051,0.429,0.899,4.3,-0.95,0.18,0,1
14820.578,-0.05,0.431,0.912,1.68,-1.53,-0.7,0,1
14820.578,-0.05,0.421,0.908,0.49,-2.41,-1.01,0,1
14820.593,-0.047,0.425,0.903,0.03,-2.72,-1.22,0,1
14820.609,-0.033,0.429,0.901,0.55,-2.5,-1.19,0,1
14820.625,-0.025,0.429,0.896,1.83,-2.2,-0.89,0,1
14820.625,-0.021,0.437,0.892,3.2,-1.68,-0.34,0,1
14820.64,-0.022,0.441,0.887,4.21,-0.79,0.46,0,1
14820.64,-0.02,0.439,0.89,4.55,0.43,1.13,0,1
14820.656,-0.022,0.439,0.894,4.85,1.25,1.56,0,1
14820.671,-0.02,0.443,0.896,5.31,1.28,1.92,0,1
14820.671,-0.02,0.446,0.898,5.89,1.43,2.26,0,1
14820.687,-0.027,0.448,0.901,6.01,1.31,2.5,0,1
14820.687,-0.032,0.452,0.904,6.29,1.01,2.69,0,1
14820.703,-0.035,0.456,0.904,6.26,0.4,3.17,0,1
14820.718,-0.03,0.453,0.902,6.5,-0.12,3.66,0,1
14820.734,-0.027,0.454,0.899,7.23,-0.4,4.21,0,1
14820.734,-0.022,0.461,0.895,7.66,-0.92,4.76,0,1
14820.75,-0.021,0.464,0.887,7.75,-0.95,4.91,0,1
14820.75,-0.024,0.466,0.878,7.17,-0.55,4.39,0,1
14820.765,-0.022,0.47,0.873,5.68,0.06,4.03,0,1
14820.781,-0.025,0.474,0.871,3.97,0.46,3.75,0,1
14820.781,-0.03,0.471,0.873,2.29,1.07,3.88,0,1
14820.796,-0.028,0.465,0.876,0.76,1.37,3.97,0,1
14820.812,-0.027,0.461,0.875,0.21,1.4,3.94,0,1
14820.812,-0.034,0.46,0.873,0.06,1.74,4.0,0,1
14820.828,-0.038,0.456,0.869,0.03,2.04,4.21,0,1
14820.843,-0.036,0.452,0.866,0.06,2.32,4.43,0,1
14820.843,-0.04,0.449,0.865,0.15,3.11,4.55,0,1
14820.859,-0.041,0.442,0.865,0.09,3.97,4.55,0,1
14820.859,-0.041,0.44,0.874,-0.43,4.97,4.3,0,1
14820.875,-0.04,0.439,0.878,-1.25,5.58,3.81,0,1
14820.89,-0.04,0.433,0.88,-2.04,5.83,3.72,0,1
14820.89,-0.038,0.428,0.887,-2.78,5.71,3.54,0,1
14820.906,-0.04,0.425,0.897,-3.3,5.4,2.93,0,1
14820.921,-0.047,0.424,0.899,-4.36,4.18,1.4,0,1
14820.921,-0.051,0.423,0.901,-4.91,3.3,1.5,0,1
14820.937,-0.051,0.424,0.906,-4.58,2.5,1.95,0,1
14820.953,-0.042,0.402,0.902,-0.98,1.83,2.38,0,1
14820.968,-0.036,0.401,0.9,0.73,1.77,1.8,0,1
14820.968,-0.035,0.406,0.896,1.22,1.34,0.76,0,1
14820.984,-0.037,0.409,0.892,0.52,0.85,-0.24,0,1
14821.0,-0.034,0.408,0.888,-0.89,0.37,-1.1,0,1
14821.0,-0.031,0.415,0.883,-2.87,0.18,-2.11,0,1
14821.015,-0.035,0.423,0.885,-4.88,0.31,-3.33,0,1
14821.031,-0.043,0.431,0.892,-6.2,0.64,-4.15,0,1
14821.031,-0.048,0.434,0.897,-6.35,0.64,-4.06,0,1
14821.046,-0.052,0.441,0.903,-5.43,0.0,-3.51,0,1
14821.046,-0.053,0.446,0.9,-3.94,-1.01,-2.93,0,1
14821.062,-0.055,0.453,0.897,-2.44,-1.8,-2.47,0,1
14821.078,-0.053,0.454,0.891,-1.56,-2.2,-2.01,0,1
14821.078,-0.047,0.451,0.882,-1.37,-1.5,-1.5,0,1
14821.093,-0.044,0.449,0.882,-1.13,-0.06,-1.07,0,1
14821.109,-0.043,0.448,0.885,-0.82,1.56,-1.13,0,1
14821.125,-0.055,0.455,0.888,0.55,2.87,-1.13,0,1
14821.14,-0.058,0.454,0.888,0.46,2.2,-0.76,0,1
14821.14,-0.056,0.447,0.885,0.12,1.31,-0.21,0,1
14821.156,-0.051,0.443,0.882,-0.52,0.67,0.15,0,1
14821.171,-0.042,0.438,0.875,-1.53,0.24,0.09,0,1
14821.171,-0.042,0.434,0.872,-2.38,0.31,-0.09,0,1
14821.187,-0.031,0.43,0.86,-2.44,1.01,-0.18,0,1
14821.187,-0.034,0.433,0.863,-2.5,2.53,-0.34,0,1
14821.203,-0.043,0.423,0.864,-2.04,4.06,0.06,0,1
14821.218,-0.049,0.421,0.867,-2.01,5.28,0.31,0,1
14821.218,-0.054,0.421,0.875,-2.41,5.77,-0.03,0,1
14821.234,-0.055,0.42,0.87,-2.69,5.52,-0.4,0,1
14821.25,-0.054,0.419,0.869,-2.53,5.74,-0.64,0,1
14821.265,-0.056,0.416,0.872,-1.98,5.83,-0.73,0,1
14821.265,-0.052,0.413,0.867,-1.46,5.65,-0.61,0,1
14821.281,-0.054,0.406,0.867,-0.76,5.89,-0.61,0,1
14821.281,-0.066,0.409,0.878,-0.85,6.07,-1.07,0,1
14821.296,-0.08,0.424,0.914,-4.06,4.33,-2.11,0,1
14821.312,-0.089,0.416,0.933,-8.03,0.43,-3.39,0,1
14821.312,-0.097,0.419,0.937,-11.72,-2.93,-3.78,0,1
14821.328,-0.096,0.42,0.95,-12.82,-4.15,-3.69,0,1
14821.328,-0.093,0.414,0.959,-10.71,-4.64,-3.14,0,1
14821.343,-0.095,0.416,0.957,-6.53,-4.79,-2.44,0,1
14821.359,-0.091,0.42,0.942,-1.83,-4.88,-1.83,0,1
14821.359,-0.081,0.419,0.92,2.2,-4.91,-1.28,0,1
14821.375,-0.077,0.429,0.899,4.64,-4.03,-0.92,0,1
14821.39,-0.067,0.438,0.884,4.82,-2.9,-0.67,0,1
14821.39,-0.059,0.438,0.874,3.2,-1.74,-0.37,0,1
14821.406,-0.049,0.436,0.875,0.64,-0.98,-0.18,0,1
14821.421,-0.042,0.433,0.878,-1.56,-1.01,-0.58,0,1
14821.421,-0.043,0.424,0.875,-2.87,-1.37,-0.92,0,1
14821.437,-0.045,0.419,0.881,-3.81,-1.19,-1.22,0,1
14821.453,-0.057,0.421,0.893,-4.49,-0.4,-2.11,0,1
14821.453,-0.06,0.42,0.906,-4.61,-0.06,-2.23,0,1
14821.468,-0.055,0.423,0.908,-4.15,-0.58,-1.92,0,1
14821.468,-0.053,0.422,0.908,-3.94,-1.25,-1.89,0,1
14821.484,-0.053,0.416,0.903,-3.57,-1.37,-2.04,0,1
14821.5,-0.052,0.416,0.899,-2.96,-1.37,-2.32,0,1
14821.5,-0.051,0.41,0.901,-2.62,-1.1,-2.96,0,1
14821.515,-0.06,0.408,0.912,-2.53,-0.82,-3.54,0,1
14821.531,-0.061,0.415,0.897,-3.42,-2.08,-4.3,0,1
14821.531,-0.058,0.43,0.898,-3.72,-2.72,-4.58,0,1
14821.546,-0.059,0.419,0.892,-3.42,-3.45,-3.88,0,1
14821.562,-0.047,0.416,0.893,-3.63,-4.49,-3.08,0,1
14821.562,-0.043,0.403,0.879,-2.47,-4.21,-2.59,0,1
14821.578,-0.035,0.383,0.862,-1.77,-3.54,-2.9,0,1
14821.578,0.021,0.332,0.806,-2.04,-2.2,-4.55,0,1
14821.593,-0.065,0.396,0.857,0.34,4.09,-6.96,0,1
14821.609,-0.128,0.418,0.991,2.56,3.27,-2.35,0,1
14821.609,-0.113,0.459,0.997,-4.76,-7.48,-1.53,0,1
14821.625,-0.111,0.416,0.979,-10.13,-12.45,-2.59,0,1
14821.64,-0.085,0.405,0.965,-10.83,-12.02,-2.81,0,1
14821.64,-0.071,0.414,0.935,-5.16,-6.07,-2.44,0,1
14821.656,-0.094,0.43,0.928,0.85,0.79,-1.98,0,1
14821.671,-0.113,0.461,0.93,4.55,4.39,-1.13,0,1
14821.671,-0.125,0.496,0.914,6.07,4.18,-0.79,0,1
14821.687,-0.128,0.51,0.912,4.43,1.92,0.15,0,1
14821.687,-0.138,0.507,0.923,0.37,-2.26,1.25,0,1
14821.703,-0.162,0.524,0.948,-2.81,-7.75,4.67,0,1
14821.718,-0.068,0.444,0.852,-8.61,-14.77,6.26,0,1
14821.718,-0.111,0.443,0.88,-12.27,-10.99,2.17,0,1
14821.734,-0.118,0.443,0.9,-13.64,-10.1,1.95,0,1
14821.75,-0.087,0.471,0.905,-15.17,-11.6,5.22,0,1
14821.75,-0.068,0.414,0.898,-12.79,-12.15,8.79,0,1
14821.765,-0.053,0.396,0.902,-9.06,-12.15,9.86,0,1
14821.781,-0.047,0.395,0.904,-3.23,-11.66,10.19,0,1
14821.781,-0.055,0.397,0.896,1.4,-10.74,10.53,0,1
14821.796,-0.056,0.408,0.894,2.62,-9.77,10.9,0,1
14821.812,-0.063,0.409,0.899,1.56,-8.76,10.56,0,1
14821.812,-0.067,0.408,0.905,-1.07,-7.84,9.95,0,1
14821.828,-0.066,0.405,0.911,-3.54,-6.87,9.25,0,1
14821.828,-0.067,0.397,0.915,-4.33,-5.83,8.97,0,1
14821.843,-0.077,0.405,0.928,-3.66,-4.73,8.97,0,1
14821.859,-0.09,0.42,0.944,-2.81,-4.61,8.94,0,1
14821.859,-0.091,0.42,0.952,-2.75,-6.32,9.58,0,1
14821.875,-0.091,0.425,0.951,-2.87,-8.15,10.56,0,1
14821.89,-0.094,0.426,0.951,-3.08,-9.22,11.32,0,1
14821.906,-0.093,0.421,0.952,-3.66,-10.38,11.9,0,1
14821.906,-0.081,0.411,0.951,-2.62,-12.73,13.46,0,1
14821.921,-0.067,0.4,0.945,-0.89,-13.21,13.76,0,1
14821.921,-0.061,0.388,0.931,0.58,-12.85,13.43,0,1
14821.937,-0.071,0.407,0.916,0.61,-12.39,12.82,0,1
14821.953,-0.08,0.417,0.914,-0.52,-12.33,12.57,0,1
14821.953,-0.09,0.43,0.912,-2.2,-12.67,12.91,0,1
14821.968,-0.078,0.433,0.911,-4.12,-13.4,13.58,0,1
14821.968,-0.06,0.423,0.912,-5.1,-14.1,14.71,0,1
14821.984,-0.052,0.416,0.91,-3.85,-14.77,15.63,0,1
14822.0,-0.055,0.42,0.903,-1.37,-14.22,16.27,0,1
14822.0,-0.061,0.418,0.896,0.58,-12.82,16.85,0,1
14822.015,-0.067,0.414,0.897,1.56,-11.35,17.61,0,1
14822.031,-0.075,0.415,0.895,2.44,-10.35,18.31,0,1
14822.031,-0.075,0.416,0.893,3.08,-10.53,19.04,0,1
14822.046,-0.056,0.414,0.891,2.81,-11.05,19.53,0,1
14822.062,-0.025,0.416,0.886,1.86,-11.38,19.56,0,1
14822.062,0.001,0.409,0.879,0.58,-11.51,19.29,0,1
14822.078,0.003,0.408,0.88,-0.27,-11.2,19.07,0,1
14822.078,-0.002,0.405,0.882,-0.82,-10.71,19.35,0,1
14822.093,-0.012,0.393,0.885,-0.55,-9.98,20.02,0,1
14822.109,-0.01,0.386,0.895,0.64,-9.19,20.69,0,1
14822.109,0.018,0.382,0.898,2.29,-8.85,21.42,0,1
14822.125,0.038,0.37,0.896,4.55,-9.7,21.94,0,1
14822.14,0.064,0.354,0.882,6.87,-11.9,22.37,0,1
14822.14,0.091,0.352,0.866,8.3,-13.61,22.37,0,1
14822.156,0.092,0.364,0.85,8.09,-13.09,21.45,0,1
14822.171,0.079,0.389,0.847,4.88,-10.38,19.38,0,1
14822.171,0.064,0.391,0.863,0.15,-7.69,17.58,0,1
14822.187,0.059,0.38,0.879,-3.97,-5.8,17.15,0,1
14822.203,0.055,0.373,0.901,-5.68,-4.91,17.67,0,1
14822.203,0.037,0.368,0.915,-4.67,-5.31,17.88,0,1
14822.218,0.042,0.371,0.919,-2.99,-6.26,17.64,0,1
14822.218,0.035,0.37,0.924,-0.92,-6.87,17.55,0,1
14822.234,0.026,0.368,0.922,1.53,-6.96,18.07,0,1
14822.25,0.037,0.373,0.924,3.2,-6.84,18.4,0,1
14822.25,0.076,0.368,0.92,4.61,-6.84,18.37,0,1
14822.265,0.094,0.369,0.909,5.95,-6.74,18.04,0,1
14822.281,0.096,0.382,0.902,6.87,-6.38,17.18,0,1
14822.281,0.09,0.398,0.894,5.62,-6.26,15.96,0,1
14822.296,0.086,0.401,0.887,2.41,-6.41,15.2,0,1
14822.296,0.084,0.39,0.887,-1.31,-6.35,15.32,0,1
14822.328,0.074,0.359,0.904,-3.48,-5.83,15.78,0,1
14822.328,0.102,0.357,0.915,-2.26,-4.61,15.2,0,1
14822.343,0.137,0.352,0.918,-0.15,-2.81,14.71,0,1
14822.359,0.162,0.349,0.921,2.56,-0.82,14.56,0,1
14822.359,0.175,0.341,0.92,5.52,0.31,14.68,0,1
14822.375,0.186,0.338,0.915,8.33,0.03,14.59,0,1
14822.39,0.198,0.336,0.91,10.1,-0.7,14.16,0,1
14822.39,0.221,0.335,0.902,9.83,-1.89,13.43,0,1
14822.406,0.233,0.343,0.899,7.97,-2.62,11.99,0,1
14822.421,0.239,0.36,0.899,4.15,-2.81,9.74,0,1
14822.421,0.239,0.359,0.903,-0.64,-2.62,7.6,0,1
14822.437,0.239,0.351,0.909,-4.7,-2.26,6.2,0,1
14822.437,0.238,0.338,0.915,-6.13,-1.86,5.55,0,1
14822.453,0.235,0.329,0.916,-5.1,-1.1,5.19,0,1
14822.468,0.232,0.327,0.914,-1.98,0.06,5.1,0,1
14822.468,0.227,0.324,0.91,1.28,1.16,5.34,0,1
14822.5,0.219,0.318,0.898,6.74,2.69,5.34,0,1
14822.5,0.195,0.33,0.896,9.46,3.54,4.7,0,1
14822.515,0.173,0.353,0.892,10.1,4.27,3.33,0,1
14822.531,0.149,0.362,0.888,8.51,4.09,2.01,0,1
14822.531,0.125,0.371,0.884,5.95,3.33,0.79,0,1
14822.546,0.113,0.381,0.882,2.62,1.68,-0.73,0,1
14822.546,0.11,0.39,0.876,-1.16,-0.34,-2.62,0,1
14822.562,0.107,0.392,0.871,-4.33,-2.08,-3.78,0,1
14822.578,0.105,0.391,0.866,-5.86,-3.48,-3.91,0,1
14822.578,0.111,0.394,0.86,-5.92,-4.18,-3.51,0,1
14822.593,0.117,0.392,0.855,-4.36,-4.09,-2.96,0,1
14822.609,0.116,0.394,0.85,-1.68,-2.78,-2.53,0,1
14822.609,0.113,0.398,0.846,0.79,-1.1,-2.08,0,1
14822.625,0.103,0.408,0.844,1.95,0.61,-1.37,0,1
14822.64,0.098,0.409,0.842,1.74,2.04,-0.82,0,1
14822.64,0.096,0.398,0.841,0.73,3.36,-0.37,0,1
14822.656,0.088,0.398,0.842,0.31,4.46,-0.4,0,1
14822.656,0.083,0.404,0.84,0.0,5.55,-1.22,0,1
14822.671,0.081,0.407,0.84,-0.34,6.71,-2.32,0,1
14822.687,0.067,0.424,0.841,-0.46,8.06,-2.75,0,1
14822.687,0.047,0.449,0.85,-0.95,9.13,-2.75,0,1
14822.703,0.042,0.459,0.863,-1.65,9.46,-2.01,0,1
14822.718,0.035,0.465,0.872,-1.86,9.83,-0.37,0,1
14822.718,0.029,0.473,0.881,-0.37,10.35,1.83,0,1
14822.734,0.025,0.468,0.893,2.2,10.25,3.6,0,1
14822.75,0.028,0.474,0.888,4.52,9.4,5.13,0,1
14822.75,0.033,0.472,0.883,6.65,9.06,7.45,0,1
14822.765,0.039,0.459,0.88,8.85,8.55,9.34,0,1
14822.781,0.043,0.461,0.869,10.28,7.87,10.01,0,1
14822.781,0.04,0.464,0.866,9.83,8.09,10.16,0,1
14822.796,0.038,0.456,0.875,7.75,8.82,10.1,0,1
14822.812,0.031,0.442,0.885,6.07,9.4,10.01,0,1
14822.812,0.02,0.44,0.896,5.31,9.37,9.67,0,1
14822.828,0.011,0.443,0.907,5.19,8.73,8.94,0,1
14822.828,0.005,0.441,0.917,5.77,8.09,8.39,0,1
14822.843,0.001,0.439,0.921,7.29,7.26,8.76,0,1
14822.859,-0.002,0.433,0.915,9.37,6.13,9.7,0,1
14822.859,-0.005,0.434,0.932,11.93,5.34,10.71,0,1
14822.875,-0.004,0.419,0.924,15.11,4.39,11.2,0,1
14822.89,0.005,0.408,0.917,17.82,3.51,11.44,0,1
14822.89,0.003,0.402,0.924,19.32,2.29,10.71,0,1
14822.906,0.003,0.389,0.911,19.71,0.55,9.19,0,1
14822.921,-0.015,0.402,0.892,18.89,-0.89,6.87,0,1
14822.921,-0.025,0.413,0.884,16.88,-1.95,4.24,0,1
14822.937,-0.033,0.416,0.877,14.8,-2.96,2.26,0,1
14822.937,-0.051,0.428,0.878,13.49,-3.42,1.13,0,1
14822.953,-0.054,0.445,0.883,12.09,-3.54,-0.21,0,1
14822.968,-0.053,0.453,0.889,10.56,-2.87,-1.74,0,1
14822.984,-0.048,0.459,0.893,9.83,-1.92,-3.05,0,1
14822.984,-0.034,0.462,0.9,10.44,-1.43,-3.91,0,1
14823.0,-0.022,0.456,0.901,13.31,-2.26,-4.21,0,1
14823.015,-0.026,0.479,0.86,22.25,-5.8,-3.6,0,1
14823.031,-0.024,0.494,0.834,26.06,-8.0,-3.02,0,1
14823.031,-0.028,0.512,0.808,28.78,-10.28,-2.44,0,1
14823.046,-0.028,0.54,0.789,29.51,-11.35,-1.5,0,1
14823.062,-0.01,0.533,0.777,28.32,-10.93,0.73,0,1
14823.062,0.006,0.513,0.77,27.38,-9.28,3.42,0,1
14823.078,0.023,0.502,0.769,28.72,-6.41,5.16,0,1
14823.078,0.046,0.486,0.775,31.07,-1.98,5.8,0,1
14823.093,0.051,0.481,0.798,32.69,3.75,6.38,0,1
14823.109,0.067,0.479,0.831,33.05,9.61,7.26,0,1
14823.125,0.085,0.464,0.863,32.32,13.67,8.42,0,1
14823.125,0.111,0.461,0.895,31.4,15.93,8.85,0,1
14823.14,0.141,0.464,0.926,30.0,16.39,8.51,0,1
14823.14,0.161,0.457,0.951,28.5,14.83,7.63,0,1
14823.156,0.172,0.461,0.961,27.16,12.18,6.13,0,1
14823.171,0.183,0.475,0.965,24.72,9.0,3.48,0,1
14823.187,0.183,0.514,0.964,14.92,3.2,-3.72,0,1
14823.187,0.188,0.536,0.958,8.27,0.98,-7.2,0,1
14823.203,0.185,0.556,0.947,2.59,-0.58,-9.64,0,1
14823.218,0.194,0.581,0.938,-1.98,-0.92,-11.26,0,1
14823.218,0.189,0.597,0.931,-4.58,0.03,-12.3,0,1
14823.234,0.175,0.601,0.93,-5.49,1.46,-11.75,0,1
14823.25,0.172,0.605,0.936,-5.46,2.23,-9.55,0,1
14823.25,0.162,0.6,0.943,-3.54,2.04,-5.52,0,1
14823.265,0.158,0.585,0.942,0.18,0.49,-0.18,0,1
14823.281,0.155,0.576,0.933,5.28,-2.66,4.15,0,1
14823.281,0.16,0.561,0.915,11.14,-6.87,7.32,0,1
14823.296,0.164,0.552,0.889,16.3,-11.26,9.4,0,1
14823.312,0.162,0.551,0.857,19.84,-15.38,10.28,0,1
14823.312,0.158,0.548,0.819,20.69,-18.86,10.35,0,1
14823.328,0.151,0.554,0.793,18.46,-21.0,9.52,0,1
14823.343,0.147,0.551,0.772,14.1,-21.79,8.03,0,1
14823.359,0.138,0.531,0.761,4.91,-19.9,5.1,0,1
14823.359,0.134,0.524,0.767,3.02,-18.22,4.12,0,1
14823.375,0.133,0.515,0.764,3.63,-17.24,3.69,0,1
14823.39,0.125,0.514,0.757,6.62,-16.51,3.85,0,1
14823.39,0.124,0.52,0.749,10.07,-15.96,4.49,0,1
14823.406,0.128,0.523,0.739,12.33,-15.35,5.34,0,1
14823.421,0.131,0.514,0.725,13.86,-14.65,6.65,0,1
14823.421,0.132,0.516,0.714,14.28,-13.28,7.29,0,1
14823.437,0.135,0.512,0.703,13.18,-11.17,7.26,0,1
14823.437,0.138,0.504,0.696,10.83,-7.29,7.17,0,1
14823.453,0.138,0.506,0.703,7.63,-1.89,6.26,0,1
14823.468,0.14,0.491,0.715,4.46,3.66,5.49,0,1
14823.484,0.141,0.475,0.727,2.72,8.76,4.94,0,1
14823.484,0.138,0.479,0.747,2.56,13.64,4.03,0,1
14823.5,0.13,0.482,0.766,2.75,17.7,2.99,0,1
14823.5,0.118,0.48,0.779,2.78,20.54,2.41,0,1
14823.515,0.107,0.49,0.794,2.81,23.04,1.74,0,1
14823.531,0.094,0.507,0.814,1.95,25.15,0.03,0,1
14823.531,0.081,0.519,0.83,-0.37,25.94,-1.86,0,1
14823.546,0.066,0.527,0.851,-3.17,25.54,-3.48,0,1
14823.562,0.049,0.536,0.875,-5.28,24.29,-4.97,0,1
14823.562,0.037,0.543,0.895,-7.14,22.52,-6.2,0,1
14823.578,0.029,0.547,0.907,-8.55,20.05,-6.96,0,1
14823.578,0.023,0.553,0.916,-8.58,16.91,-7.23,0,1
14823.593,0.021,0.555,0.92,-7.32,13.12,-7.2,0,1
14823.609,0.016,0.566,0.913,-5.71,9.31,-7.08,0,1
14823.609,0.018,0.573,0.903,-4.21,5.83,-6.78,0,1
14823.625,0.022,0.572,0.887,-2.56,2.78,-6.04,0,1
14823.64,0.028,0.581,0.868,-0.79,0.34,-5.1,0,1
14823.64,0.037,0.591,0.847,0.67,-1.46,-4.18,0,1
14823.656,0.043,0.595,0.83,1.04,-2.14,-3.48,0,1
14823.671,0.045,0.598,0.818,0.64,-2.04,-2.62,0,1
14823.671,0.044,0.603,0.814,-0.09,-1.46,-1.83,0,1
14823.687,0.047,0.602,0.809,-0.89,-1.07,-0.95,0,1
14823.687,0.052,0.605,0.807,-1.16,-1.19,0.21,0,1
14823.703,0.062,0.607,0.801,-0.89,-1.74,1.71,0,1
14823.718,0.066,0.613,0.793,-0.24,-1.8,3.11,0,1
14823.718,0.067,0.616,0.783,0.18,-1.04,4.12,0,1
14823.734,0.062,0.622,0.779,-0.09,0.58,5.04,0,1
14823.75,0.054,0.628,0.777,-1.31,2.72,6.04,0,1
14823.75,0.044,0.631,0.787,-3.05,4.97,7.57,0,1
14823.765,0.037,0.629,0.802,-4.36,6.53,9.64,0,1
14823.781,0.037,0.615,0.818,-4.76,7.42,11.96,0,1
14823.781,0.038,0.6,0.83,-3.66,8.09,14.07,0,1
14823.796,0.042,0.593,0.842,-1.37,8.82,15.44,0,1
14823.812,0.041,0.587,0.853,1.19,9.16,16.3,0,1
14823.812,0.034,0.587,0.85,2.81,8.91,16.63,0,1
14823.828,0.033,0.595,0.85,2.75,8.79,16.51,0,1
14823.828,0.032,0.59,0.85,1.4,8.33,16.3,0,1
14823.843,0.031,0.585,0.849,-0.79,7.2,16.45,0,1
14823.859,0.029,0.581,0.851,-2.72,5.92,17.18,0,1
14823.875,0.04,0.559,0.854,-2.72,0.4,20.42,0,1
14823.89,0.051,0.55,0.851,0.09,-0.52,21.82,0,1
14823.906,0.073,0.525,0.838,3.27,-0.37,23.16,0,1
14823.906,0.079,0.517,0.833,6.2,1.04,24.08,0,1
14823.906,0.086,0.52,0.831,7.9,2.78,23.77,0,1
14823.921,0.094,0.52,0.832,8.18,3.97,22.71,0,1
14823.937,0.094,0.521,0.832,7.54,4.85,21.21,0,1
14823.937,0.099,0.525,0.834,5.74,5.01,19.47,0,1
14823.953,0.108,0.522,0.835,3.3,4.85,17.94,0,1
14823.968,0.113,0.517,0.841,0.7,5.01,16.45,0,1
14823.984,0.115,0.518,0.846,-1.56,5.1,14.71,0,1
14823.984,0.115,0.519,0.854,-3.05,4.46,13.37,0,1
14824.0,0.112,0.523,0.864,-3.97,3.42,12.45,0,1
14824.0,0.111,0.525,0.875,-4.06,2.08,12.24,0,1
14824.015,0.12,0.52,0.874,-3.66,0.12,12.36,0,1
14824.031,0.12,0.52,0.878,-2.41,-2.01,12.79,0,1
14824.046,0.133,0.511,0.867,1.01,-6.78,13.61,0,1
14824.062,0.141,0.512,0.853,2.32,-8.61,13.52,0,1
14824.062,0.151,0.522,0.839,2.56,-9.77,12.54,0,1
14824.078,0.16,0.521,0.824,1.71,-10.93,11.54,0,1
14824.078,0.16,0.539,0.814,-0.12,-11.54,10.19,0,1
14824.093,0.164,0.549,0.805,-3.17,-12.18,8.48,0,1
14824.109,0.163,0.547,0.8,-6.35,-12.36,7.26,0,1
14824.109,0.163,0.553,0.803,-8.42,-11.99,6.78,0,1
14824.125,0.164,0.554,0.804,-8.97,-11.51,6.87,0,1
14824.14,0.162,0.549,0.805,-7.78,-10.5,7.54,0,1
14824.14,0.162,0.55,0.807,-5.62,-9.43,8.55,0,1
14824.156,0.164,0.557,0.804,-2.75,-8.27,9.49,0,1
14824.171,0.165,0.56,0.798,0.34,-7.32,10.8,0,1
14824.171,0.169,0.556,0.792,2.5,-6.84,12.73,0,1
14824.187,0.176,0.559,0.782,3.94,-6.29,14.16,0,1
14824.203,0.181,0.561,0.771,4.33,-5.49,14.83,0,1
14824.218,0.192,0.552,0.768,1.4,-1.95,14.44,0,1
14824.218,0.187,0.552,0.77,-0.89,-0.12,13.49,0,1
14824.234,0.178,0.547,0.776,-3.17,0.89,12.63,0,1
14824.25,0.172,0.541,0.784,-4.76,1.37,11.93,0,1
14824.25,0.162,0.543,0.786,-5.28,1.53,11.44,0,1
14824.265,0.151,0.552,0.784,-5.52,1.53,11.02,0,1
14824.281,0.143,0.556,0.784,-5.49,1.46,11.51,0,1
14824.281,0.138,0.555,0.783,-4.97,1.5,12.88,0,1
14824.296,0.132,0.549,0.779,-3.51,2.04,14.28,0,1
14824.312,0.122,0.547,0.777,-1.68,3.3,15.32,0,1
14824.312,0.117,0.539,0.784,0.15,4.94,16.51,0,1
14824.328,0.113,0.532,0.791,1.98,6.78,17.7,0,1
14824.343,0.114,0.523,0.796,4.06,8.12,18.28,0,1
14824.343,0.114,0.518,0.802,5.65,8.88,18.37,0,1
14824.359,0.115,0.517,0.801,6.5,9.13,17.67,0,1
14824.359,0.121,0.52,0.794,5.65,9.52,16.24,0,1
14824.375,0.122,0.523,0.806,3.23,9.83,14.59,0,1
14824.39,0.125,0.52,0.802,0.12,9.09,12.27,0,1
14824.39,0.13,0.52,0.811,-3.17,8.94,10.38,0,1
14824.406,0.13,0.507,0.828,-4.55,9.06,8.79,0,1
14824.421,0.131,0.504,0.836,-4.58,8.45,6.96,0,1
14824.421,0.135,0.509,0.838,-3.33,7.9,5.28,0,1
14824.437,0.133,0.511,0.842,-1.13,7.17,4.27,0,1
14824.437,0.133,0.512,0.841,1.31,5.62,3.75,0,1
14824.453,0.136,0.519,0.835,2.23,3.63,2.96,0,1
14824.468,0.134,0.53,0.829,1.77,1.98,1.74,0,1
14824.468,0.128,0.537,0.825,-0.15,0.98,0.37,0,1
14824.484,0.123,0.536,0.825,-2.87,0.06,-0.21,0,1
14824.5,0.121,0.53,0.826,-5.86,-0.64,0.58,0,1
14824.5,0.125,0.52,0.832,-7.93,-0.85,1.34,0,1
14824.515,0.13,0.496,0.842,-8.48,-0.55,1.31,0,1
14824.531,0.134,0.487,0.851,-7.9,-0.52,0.73,0,1
14824.531,0.136,0.491,0.85,-6.62,-0.34,-0.34,0,1
14824.546,0.135,0.491,0.849,-6.1,-0.4,-1.07,0,1
14824.546,0.135,0.494,0.847,-6.59,-0.79,-0.7,0,1
14824.562,0.138,0.5,0.845,-7.66,-0.95,0.49,0,1
14824.578,0.145,0.495,0.847,-8.79,-0.92,2.08,0,1
14824.578,0.15,0.485,0.849,-8.79,-0.64,3.63,0,1
14824.593,0.154,0.482,0.855,-7.6,0.18,4.67,0,1
14824.609,0.159,0.48,0.856,-5.52,1.19,4.88,0,1
14824.609,0.164,0.484,0.853,-3.72,2.08,5.07,0,1
14824.625,0.165,0.488,0.855,-2.29,2.32,5.04,0,1
14824.64,0.161,0.495,0.855,-1.16,1.98,4.88,0,1
14824.64,0.157,0.512,0.852,-1.16,1.25,4.27,0,1
14824.656,0.155,0.52,0.851,-2.44,0.18,3.23,0,1
14824.671,0.153,0.52,0.851,-4.55,-1.4,2.23,0,1
14824.671,0.149,0.529,0.854,-6.44,-2.99,1.22,0,1
14824.687,0.15,0.534,0.855,-7.69,-4.52,0.27,0,1
14824.687,0.146,0.536,0.856,-8.21,-5.46,-0.15,0,1
14824.703,0.148,0.54,0.856,-7.87,-6.23,0.0,0,1
14824.718,0.155,0.536,0.856,-6.35,-6.65,0.79,0,1
14824.734,0.174,0.53,0.849,-2.26,-6.16,2.23,0,1
14824.75,0.183,0.525,0.842,-0.58,-5.49,2.35,0,1
14824.765,0.183,0.521,0.835,1.04,-5.04,2.01,0,1
14824.765,0.179,0.523,0.826,2.44,-5.22,1.31,0,1
14824.781,0.167,0.522,0.813,4.18,-5.71,0.4,0,1
14824.781,0.149,0.518,0.806,4.91,-6.07,-0.12,0,1
14824.796,0.138,0.522,0.805,4.06,-5.65,-0.34,0,1
14824.812,0.135,0.517,0.809,1.46,-4.27,-0.92,0,1
14824.812,0.132,0.513,0.819,-2.44,-2.41,-2.5,0,1
14824.828,0.133,0.514,0.83,-7.2,-0.15,-5.19,0,1
14824.843,0.138,0.514,0.843,-12.88,1.8,-8.76,0,1
14824.843,0.145,0.509,0.845,-27.99,4.67,-18.22,0,1
14824.859,0.145,0.509,0.841,-36.56,6.5,-22.89,0,1
14824.859,0.146,0.486,0.81,-43.28,9.52,-26.25,0,1
14824.875,0.158,0.45,0.857,-46.88,8.79,-29.73,0,1
14824.89,0.157,0.445,0.862,-52.03,8.51,-31.89,0,1
14824.906,0.145,0.409,0.883,-45.66,8.18,-33.3,0,1
14824.921,0.129,0.42,0.891,-40.71,7.39,-32.26,0,1
14824.921,0.125,0.426,0.899,-35.1,7.14,-31.19,0,1
14824.937,0.115,0.435,0.9,-31.43,6.1,-30.37,0,1
14824.953,0.107,0.451,0.907,-29.73,3.75,-29.66,0,1
14824.953,0.102,0.452,0.913,-28.53,0.58,-29.24,0,1
14824.968,0.111,0.452,0.921,-29.51,-3.69,-30.67,0,1
14824.968,0.118,0.459,0.918,-30.88,-8.36,-33.05,0,1
14824.984,0.118,0.46,0.907,-31.37,-12.09,-35.46,0,1
14825.0,0.12,0.468,0.9,-31.98,-14.62,-37.11,0,1
14825.0,0.116,0.479,0.892,-32.26,-15.9,-37.14,0,1
14825.015,0.112,0.48,0.89,-31.98,-16.27,-34.33,0,1
14825.031,0.114,0.468,0.892,-29.76,-15.87,-29.6,0,1
14825.031,0.124,0.451,0.897,-24.17,-14.62,-24.05,0,1
14825.046,0.134,0.432,0.897,-15.72,-12.79,-18.86,0,1
14825.062,0.147,0.424,0.892,-6.71,-10.77,-14.92,0,1
14825.062,0.158,0.42,0.879,0.34,-8.88,-11.99,0,1
14825.078,0.173,0.419,0.863,4.15,-7.02,-10.25,0,1
14825.078,0.182,0.422,0.851,4.15,-5.77,-9.98,0,1
14825.093,0.192,0.422,0.838,0.85,-4.91,-10.28,0,1
14825.109,0.201,0.422,0.831,-4.39,-3.91,-11.23,0,1
14825.109,0.199,0.422,0.832,-9.34,-1.65,-12.48,0,1
14825.125,0.177,0.422,0.855,-12.76,1.83,-13.49,0,1
14825.14,0.166,0.418,0.877,-15.02,5.01,-13.4,0,1
14825.156,0.152,0.401,0.903,-17.7,5.65,-12.15,0,1
14825.156,0.137,0.378,0.929,-19.96,3.11,-10.5,0,1
14825.171,0.151,0.349,0.953,-18.07,-0.92,-10.28,0,1
14825.171,0.148,0.336,0.955,-12.57,-4.0,-13.67,0,1
14825.187,0.129,0.345,0.952,-9.86,-7.32,-19.32,0,1
14825.203,0.134,0.353,0.945,-9.7,-10.5,-24.78,0,1
14825.203,0.125,0.366,0.931,-11.26,-11.87,-29.57,0,1
14825.218,0.11,0.379,0.925,-14.16,-11.35,-33.45,0,1
14825.218,0.096,0.38,0.928,-17.0,-9.61,-35.95,0,1
14825.234,0.082,0.374,0.938,-18.65,-7.9,-36.71,0,1
14825.25,0.065,0.365,0.951,-16.51,-6.59,-35.8,0,1
14825.265,0.057,0.347,0.963,-10.77,-5.55,-33.11,0,1
14825.265,0.055,0.334,0.974,-3.3,-4.97,-30.03,0,1
14825.281,0.056,0.337,0.962,3.75,-6.47,-28.14,0,1
14825.281,0.068,0.356,0.944,8.33,-9.13,-26.58,0,1
14825.296,0.069,0.357,0.927,10.47,-12.05,-25.42,0,1
14825.312,0.076,0.359,0.912,9.4,-15.53,-24.72,0,1
14825.312,0.084,0.363,0.905,6.07,-19.29,-24.63,0,1
14825.328,0.085,0.348,0.902,2.75,-22.86,-24.05,0,1
14825.328,0.092,0.335,0.901,0.46,-24.51,-22.13,0,1
14825.343,0.112,0.324,0.902,-0.03,-23.87,-19.81,0,1
14825.359,0.12,0.308,0.91,2.59,-21.36,-17.85,0,1
14825.359,0.131,0.299,0.916,7.84,-17.76,-15.44,0,1
14825.375,0.134,0.306,0.914,15.35,-13.58,-12.82,0,1
14825.39,0.133,0.326,0.914,23.99,-9.19,-9.61,0,1
14825.39,0.123,0.339,0.892,31.19,-6.13,-5.86,0,1
14825.406,0.111,0.367,0.873,33.54,-5.04,-2.81,0,1
14825.421,0.11,0.392,0.861,30.49,-6.35,-2.23,0,1
14825.421,0.106,0.401,0.85,22.86,-9.4,-3.02,0,1
14825.437,0.11,0.401,0.842,12.7,-12.48,-3.72,0,1
14825.453,0.117,0.394,0.841,3.23,-14.86,-3.23,0,1
14825.453,0.118,0.379,0.845,-3.97,-15.35,-2.2,0,1
14825.468,0.126,0.356,0.854,-8.12,-13.95,-1.1,0,1
14825.468,0.131,0.338,0.863,-8.24,-11.63,-0.12,0,1
14825.484,0.124,0.333,0.871,-4.43,-8.33,0.98,0,1
14825.5,0.119,0.343,0.879,0.95,-4.97,2.2,0,1
14825.5,0.107,0.351,0.874,6.59,-2.59,3.45,0,1
14825.515,0.097,0.37,0.872,11.32,-1.53,4.27,0,1
14825.531,0.095,0.394,0.869,13.49,-1.5,4.55,0,1
14825.546,0.089,0.408,0.868,13.4,-2.23,4.24,0,1
14825.546,0.076,0.42,0.868,11.6,-3.33,3.2,0,1
14825.562,0.068,0.432,0.874,8.51,-4.21,1.07,0,1
14825.562,0.061,0.431,0.889,3.97,-5.92,-1.31,0,1
14825.578,0.055,0.427,0.906,0.06,-8.3,-4.24,0,1
14825.578,0.048,0.424,0.918,-1.65,-10.8,-7.39,0,1
14825.593,0.051,0.42,0.932,-2.04,-13.79,-10.19,0,1
14825.609,0.052,0.421,0.935,-1.28,-16.17,-12.36,0,1
14825.609,0.045,0.424,0.937,0.98,-17.61,-14.34,0,1
14825.625,0.047,0.431,0.937,3.57,-18.13,-15.63,0,1
14825.64,0.056,0.44,0.926,5.1,-18.34,-16.27,0,1
14825.64,0.066,0.441,0.922,6.01,-18.34,-16.24,0,1
14825.656,0.083,0.435,0.918,7.35,-18.52,-15.53,0,1
14825.671,0.092,0.433,0.906,9.67,-19.26,-14.47,0,1
14825.671,0.106,0.428,0.89,12.33,-19.62,-13.52,0,1
14825.687,0.119,0.428,0.87,14.1,-19.35,-12.88,0,1
14825.703,0.128,0.429,0.855,14.37,-18.04,-12.73,0,1
14825.703,0.133,0.428,0.843,12.85,-15.93,-12.91,0,1
14825.718,0.138,0.422,0.836,10.01,-13.86,-13.15,0,1
14825.718,0.138,0.415,0.834,7.45,-11.78,-13.4,0,1
14825.734,0.144,0.414,0.835,5.01,-9.64,-13.95,0,1
14825.75,0.15,0.409,0.833,3.27,-7.48,-14.28,0,1
14825.75,0.147,0.408,0.835,2.44,-4.85,-14.07,0,1
14825.765,0.149,0.404,0.837,2.17,-1.92,-13.4,0,1
14825.781,0.15,0.402,0.84,2.08,1.04,-12.54,0,1
14825.781,0.146,0.404,0.843,2.56,3.88,-11.93,0,1
14825.796,0.146,0.407,0.846,2.5,6.07,-11.63,0,1
14825.796,0.144,0.41,0.848,2.2,7.6,-11.75,0,1
14825.812,0.145,0.423,0.85,2.01,8.76,-11.87,0,1
14825.828,0.143,0.433,0.848,-1.01,11.02,-11.14,0,1
14825.828,0.138,0.439,0.849,-2.01,12.6,-10.28,0,1
14825.843,0.134,0.435,0.854,-1.86,14.47,-9.55,0,1
14825.859,0.129,0.438,0.861,-1.4,16.69,-8.91,0,1
14825.859,0.12,0.446,0.872,-1.1,18.77,-7.84,0,1
14825.875,0.118,0.451,0.882,-0.79,20.51,-6.26,0,1
14825.89,0.108,0.457,0.891,-0.15,21.52,-4.64,0,1
14825.89,0.104,0.46,0.897,-0.15,21.76,-3.36,0,1
14825.906,0.098,0.46,0.902,-0.12,21.55,-2.14,0,1
14825.921,0.092,0.46,0.905,0.18,20.72,-0.92,0,1
14825.937,0.091,0.463,0.906,0.85,19.38,0.09,0,1
14825.937,0.087,0.469,0.903,1.62,18.1,1.13,0,1
14825.937,0.086,0.473,0.9,1.5,16.69,2.17,0,1
14825.953,0.081,0.474,0.904,0.55,15.05,3.33,0,1
14825.968,0.074,0.476,0.914,-0.95,13.18,4.12,0,1
14825.968,0.07,0.473,0.921,-1.65,11.35,4.33,0,1
14825.984,0.066,0.47,0.926,-1.98,9.92,4.36,0,1
14826.0,0.063,0.47,0.93,-2.08,8.55,4.27,0,1
14826.0,0.063,0.467,0.927,-1.46,7.14,4.33,0,1
14826.015,0.066,0.465,0.923,-0.4,5.89,4.7,0,1
14826.031,0.064,0.468,0.919,1.19,4.61,5.04,0,1
14826.031,0.065,0.472,0.916,2.26,3.23,5.43,0,1
14826.046,0.064,0.476,0.912,2.93,1.62,6.07,0,1
14826.046,0.065,0.475,0.91,3.51,0.27,6.9,0,1
14826.062,0.065,0.476,0.906,4.06,-0.73,7.39,0,1
14826.078,0.065,0.477,0.9,4.18,-1.25,7.57,0,1
14826.078,0.063,0.477,0.897,3.69,-1.71,7.29,0,1
14826.093,0.062,0.477,0.898,2.78,-2.17,6.9,0,1
14826.109,0.062,0.476,0.898,1.83,-2.59,6.65,0,1
14826.109,0.059,0.469,0.9,1.1,-3.39,6.9,0,1
14826.125,0.057,0.468,0.899,1.04,-4.39,7.17,0,1
14826.14,0.055,0.467,0.897,1.13,-5.13,7.29,0,1
14826.14,0.052,0.467,0.892,0.64,-5.46,7.26,0,1
14826.156,0.051,0.463,0.888,0.15,-5.68,7.29,0,1
14826.171,0.051,0.461,0.885,-0.24,-5.34,7.51,0,1
14826.171,0.046,0.46,0.885,-0.18,-4.61,7.6,0,1
14826.187,0.044,0.455,0.883,0.4,-3.78,7.97,0,1
14826.187,0.044,0.457,0.882,1.25,-2.81,8.36,0,1
14826.203,0.042,0.455,0.879,2.17,-1.92,8.64,0,1
14826.218,0.039,0.452,0.878,2.56,-1.1,8.64,0,1
14826.234,0.041,0.448,0.879,1.92,-0.73,8.42,0,1
14826.234,0.037,0.444,0.882,1.31,-0.79,8.18,0,1
14826.25,0.041,0.437,0.887,0.82,-1.07,7.81,0,1
14826.25,0.046,0.428,0.885,0.58,-1.53,7.63,0,1
14826.265,0.049,0.423,0.887,0.92,-2.04,7.48,0,1
14826.281,0.05,0.42,0.886,1.8,-2.5,7.2,0,1
14826.281,0.053,0.423,0.882,2.29,-3.08,6.68,0,1
14826.296,0.051,0.423,0.879,2.53,-3.36,6.2,0,1
14826.312,0.055,0.426,0.879,2.17,-3.54,5.25,0,1
14826.312,0.057,0.428,0.876,1.89,-3.88,4.24,0,1
14826.328,0.059,0.434,0.874,1.16,-3.91,3.3,0,1
14826.343,0.061,0.436,0.873,0.21,-3.6,2.26,0,1
14826.343,0.063,0.435,0.872,-0.12,-3.14,1.25,0,1
14826.359,0.065,0.435,0.872,0.09,-2.78,0.24,0,1
14826.359,0.065,0.439,0.872,0.52,-2.35,-0.46,0,1
14826.375,0.065,0.446,0.87,0.85,-2.01,-0.89,0,1
14826.39,0.068,0.449,0.868,0.89,-2.04,-1.04,0,1
14826.39,0.067,0.45,0.868,0.61,-2.14,-1.25,0,1
14826.406,0.066,0.453,0.867,0.31,-1.95,-1.56,0,1
14826.421,0.067,0.454,0.872,-0.15,-1.59,-1.53,0,1
14826.421,0.066,0.455,0.876,0.0,-1.07,-1.43,0,1
14826.437,0.072,0.454,0.875,0.58,-0.61,-1.04,0,1
14826.453,0.073,0.457,0.881,0.89,-0.37,-1.25,0,1
14826.453,0.078,0.456,0.879,1.43,-0.7,-1.56,0,1
14826.468,0.083,0.459,0.876,1.37,-1.34,-1.89,0,1
14826.468,0.083,0.462,0.874,1.37,-1.98,-1.68,0,1
14826.484,0.087,0.46,0.877,1.13,-2.87,-1.13,0,1
14826.5,0.094,0.455,0.874,0.89,-3.85,-0.82,0,1
14826.5,0.094,0.453,0.853,0.79,-3.45,-1.16,0,1
14826.515,0.092,0.458,0.868,0.61,-1.22,-1.34,0,1
14826.531,0.095,0.449,0.873,0.92,-0.4,-1.53,0,1
14826.531,0.093,0.453,0.871,0.27,-0.06,-1.86,0,1
14826.546,0.094,0.453,0.878,-0.03,1.1,-1.98,0,1
14826.562,0.088,0.449,0.887,0.03,1.65,-2.11,0,1
14826.562,0.092,0.453,0.892,0.61,1.53,-1.65,0,1
14826.578,0.088,0.456,0.888,1.37,1.1,-1.19,0,1
14826.578,0.082,0.461,0.891,1.46,0.85,-1.19,0,1
14826.593,0.084,0.463,0.891,0.73,0.06,-1.5,0,1
14826.609,0.084,0.459,0.887,0.24,-1.04,-1.28,0,1
14826.609,0.086,0.455,0.884,0.03,-2.26,-0.79,0,1
14826.625,0.088,0.457,0.883,0.4,-2.96,-0.67,0,1
14826.64,0.09,0.461,0.882,0.85,-3.17,-0.82,0,1
14826.64,0.09,0.461,0.878,1.07,-3.08,-0.55,0,1
14826.656,0.092,0.458,0.875,1.31,-2.9,0.06,0,1
14826.671,0.089,0.459,0.877,1.8,-2.41,0.37,0,1
14826.671,0.092,0.464,0.879,2.29,-1.98,0.46,0,1
14826.687,0.093,0.464,0.877,1.89,-2.08,0.4,0,1
14826.687,0.096,0.461,0.873,0.92,-2.78,0.55,0,1
14826.703,0.099,0.456,0.871,0.31,-3.63,0.82,0,1
14826.718,0.098,0.46,0.869,0.03,-3.54,0.52,0,1
14826.718,0.098,0.462,0.87,-0.31,-2.81,0.27,0,1
14826.734,0.098,0.461,0.868,-0.52,-2.2,0.55,0,1
14826.75,0.094,0.463,0.868,-0.4,-1.5,0.92,0,1
14826.75,0.089,0.468,0.871,-0.4,-0.55,0.73,0,1
14826.765,0.084,0.469,0.875,-0.58,0.18,0.64,0,1
14826.781,0.082,0.471,0.876,-1.01,0.12,0.95,0,1
14826.781,0.084,0.466,0.874,-1.22,0.06,1.74,0,1
14826.796,0.088,0.462,0.873,-0.67,0.03,2.44,0,1
14826.796,0.091,0.459,0.876,1.43,0.24,3.33,0,1
14826.812,0.091,0.46,0.875,2.14,0.15,3.81,0,1
14826.828,0.092,0.462,0.871,2.29,0.12,3.97,0,1
14826.828,0.091,0.462,0.871,1.8,-0.06,4.03,0,1
14826.843,0.094,0.459,0.872,0.95,-0.03,3.85,0,1
14826.859,0.095,0.455,0.871,0.03,0.31,3.42,0,1
14826.875,0.095,0.454,0.872,-1.19,0.95,2.87,0,1
14826.875,0.098,0.449,0.875,-2.14,1.4,2.41,0,1
14826.89,0.094,0.446,0.877,-2.59,1.8,2.01,0,1
14826.89,0.094,0.445,0.879,-2.62,2.14,1.8,0,1
14826.906,0.096,0.441,0.881,-2.04,2.32,1.98,0,1
14826.921,0.093,0.439,0.881,-1.07,2.44,2.11,0,1
14826.921,0.09,0.447,0.88,-0.4,2.59,1.89,0,1
14826.937,0.084,0.448,0.878,-0.7,2.59,1.59,0,1
14826.953,0.084,0.449,0.877,-1.53,2.66,1.34,0,1
14826.953,0.081,0.448,0.88,-2.53,2.62,1.07,0,1
14826.968,0.077,0.449,0.887,-3.33,2.62,0.61,0,1
14826.984,0.073,0.45,0.889,-3.63,2.78,0.31,0,1
14826.984,0.074,0.45,0.892,-3.57,3.02,0.43,0,1
14827.0,0.075,0.448,0.895,-2.72,2.99,0.89,0,1
14827.0,0.075,0.449,0.897,-1.53,2.66,1.16,0,1
14827.015,0.074,0.45,0.894,-0.79,2.04,1.04,0,1
14827.031,0.075,0.45,0.89,-1.01,0.98,0.98,0,1
14827.031,0.076,0.448,0.892,-1.4,-0.24,1.01,0,1
14827.046,0.078,0.449,0.889,-1.8,-1.19,0.76,0,1
14827.062,0.08,0.444,0.888,-1.8,-2.11,0.67,0,1
14827.062,0.08,0.441,0.884,-1.5,-2.5,0.7,0,1
14827.078,0.084,0.443,0.882,-0.73,-2.66,0.82,0,1
14827.109,0.085,0.442,0.878,-0.12,-2.56,0.52,0,1
14827.109,0.09,0.439,0.873,0.0,-2.53,0.49,0,1
14827.109,0.094,0.437,0.871,-0.03,-2.23,0.49,0,1
14827.109,0.096,0.435,0.867,0.09,-1.92,0.67,0,1
14827.125,0.098,0.434,0.859,0.09,-1.53,0.58,0,1
14827.14,0.096,0.435,0.86,0.06,-0.58,0.15,0,1
14827.14,0.097,0.437,0.861,-0.37,0.55,-0.21,0,1
14827.156,0.096,0.432,0.86,-0.89,1.34,-0.61,0,1
14827.171,0.092,0.433,0.869,-1.1,1.86,-0.7,0,1
14827.171,0.091,0.436,0.872,-1.25,2.44,-1.22,0,1
14827.187,0.089,0.438,0.874,-1.4,2.59,-1.83,0,1
14827.203,0.086,0.438,0.875,-1.74,2.62,-1.92,0,1
14827.203,0.079,0.447,0.882,-1.89,2.66,-2.01,0,1
14827.218,0.078,0.453,0.886,-2.38,2.5,-2.66,0,1
14827.218,0.079,0.452,0.889,-2.96,2.08,-2.87,0,1
14827.234,0.074,0.452,0.892,-2.99,1.53,-2.56,0,1
14827.25,0.072,0.455,0.895,-2.38,0.89,-2.01,0,1
14827.25,0.075,0.456,0.894,-1.68,0.27,-1.74,0,1
14827.265,0.073,0.457,0.893,-1.07,0.37,-1.65,0,1
14827.281,0.068,0.461,0.896,-0.55,0.89,-1.4,0,1
14827.281,0.071,0.458,0.895,-0.31,0.79,-0.61,0,1
14827.296,0.072,0.454,0.892,-0.37,0.52,-0.06,0,1
14827.312,0.074,0.45,0.887,-0.46,0.03,0.24,0,1
14827.312,0.072,0.45,0.885,-0.31,-0.24,0.4,0,1
14827.328,0.075,0.449,0.885,-0.4,-0.37,0.46,0,1
14827.328,0.08,0.445,0.883,-0.55,-0.37,0.73,0,1
14827.343,0.084,0.441,0.882,-0.34,0.0,1.01,0,1
14827.359,0.08,0.445,0.885,-0.12,0.61,0.89,0,1
14827.359,0.08,0.443,0.884,-0.61,0.89,0.82,0,1
14827.375,0.081,0.44,0.888,-0.95,0.85,0.79,0,1
14827.39,0.082,0.441,0.89,-1.34,0.31,0.76,0,1
14827.39,0.075,0.44,0.885,-0.92,0.4,0.79,0,1
14827.406,0.07,0.446,0.889,-1.28,0.58,0.49,0,1
14827.421,0.072,0.445,0.892,-2.01,0.4,0.49,0,1
14827.421,0.076,0.44,0.891,-1.98,0.27,0.61,0,1
14827.437,0.077,0.442,0.89,-1.59,0.09,0.64,0,1
14827.437,0.077,0.443,0.89,-1.34,-0.09,0.34,0,1
14827.453,0.078,0.444,0.892,-1.16,-0.09,0.0,0,1
14827.468,0.079,0.439,0.884,-0.79,-0.82,-0.09,0,1
14827.468,0.079,0.448,0.875,-0.92,-1.01,0.15,0,1
14827.484,0.071,0.445,0.888,-1.07,-0.67,0.34,0,1
14827.5,0.069,0.448,0.879,-1.77,-0.73,-0.09,0,1
14827.515,0.069,0.45,0.88,-2.23,-0.46,0.15,0,1
14827.515,0.067,0.446,0.887,-2.11,-0.24,0.34,0,1
14827.531,0.064,0.452,0.888,-1.92,-0.31,0.27,0,1
14827.531,0.065,0.449,0.888,-1.59,-0.46,0.49,0,1
14827.546,0.067,0.445,0.887,-0.98,-0.61,1.13,0,1
14827.562,0.072,0.438,0.882,0.03,-0.79,1.71,0,1
14827.562,0.071,0.432,0.879,1.31,-0.7,2.26,0,1
14827.578,0.066,0.438,0.877,1.95,-0.31,2.23,0,1
14827.578,0.067,0.435,0.875,1.43,0.03,1.65,0,1
14827.593,0.071,0.432,0.877,0.52,0.21,1.31,0,1
14827.609,0.068,0.433,0.883,0.03,0.34,1.28,0,1
14827.625,0.072,0.428,0.885,0.03,0.34,1.22,0,1
14827.625,0.074,0.423,0.882,0.55,0.15,0.98,0,1
14827.64,0.072,0.427,0.881,1.16,0.21,0.64,0,1
14827.64,0.072,0.433,0.883,1.37,0.73,0.27,0,1
14827.656,0.072,0.433,0.882,1.04,1.01,0.15,0,1
14827.671,0.074,0.432,0.884,0.76,1.13,0.12,0,1
14827.671,0.069,0.437,0.887,0.7,1.37,-0.03,0,1
14827.687,0.066,0.443,0.889,0.15,1.68,-0.67,0,1
14827.703,0.066,0.447,0.892,-0.82,1.65,-0.76,0,1
14827.703,0.067,0.444,0.893,-1.34,1.28,-0.58,0,1
14827.718,0.066,0.443,0.895,-1.19,0.92,-0.21,0,1
14827.734,0.068,0.442,0.897,-0.73,0.85,-0.09,0,1
14827.734,0.07,0.44,0.897,0.0,0.76,0.09,0,1
14827.75,0.077,0.441,0.894,1.19,0.55,0.52,0,1
14827.75,0.079,0.441,0.889,2.2,0.24,0.85,0,1
14827.765,0.076,0.443,0.887,2.5,0.4,0.89,0,1
14827.781,0.077,0.447,0.887,1.86,0.46,0.64,0,1
14827.781,0.077,0.447,0.887,-0.49,0.12,0.06,0,1
14827.796,0.071,0.45,0.889,-1.43,-0.18,-0.27,0,1
14827.812,0.071,0.45,0.894,-1.92,-0.95,-0.12,0,1
14827.812,0.069,0.448,0.898,-1.28,-1.62,0.52,0,1
14827.828,0.076,0.44,0.888,0.18,-1.59,1.1,0,1
14827.828,0.075,0.445,0.881,0.95,-1.25,1.34,0,1
14827.843,0.074,0.445,0.878,0.92,-0.76,1.31,0,1
14827.859,0.077,0.444,0.876,0.18,-0.21,1.22,0,1
14827.859,0.077,0.445,0.878,-0.61,0.18,1.28,0,1
14827.875,0.074,0.443,0.884,-1.13,0.55,1.34,0,1
14827.89,0.076,0.44,0.885,-1.01,0.7,1.28,0,1
14827.89,0.076,0.443,0.884,-0.49,0.82,1.34,0,1
14827.906,0.074,0.446,0.885,-0.15,1.01,1.43,0,1
14827.921,0.072,0.445,0.882,0.12,1.28,1.71,0,1
14827.921,0.07,0.445,0.881,0.24,1.62,2.14,0,1
14827.937,0.066,0.451,0.883,-0.12,1.89,2.2,0,1
14827.953,0.066,0.448,0.885,-0.49,2.08,2.08,0,1
14827.953,0.066,0.446,0.888,-0.79,2.17,2.17,0,1
14827.968,0.067,0.443,0.889,-0.58,1.83,2.56,0,1
14827.968,0.068,0.441,0.889,0.0,1.59,2.99,0,1
14827.984,0.071,0.437,0.888,0.43,1.4,3.02,0,1
14828.0,0.073,0.434,0.885,0.92,1.19,3.02,0,1
14828.0,0.076,0.432,0.884,1.22,1.07,2.84,0,1
14828.015,0.076,0.434,0.881,0.95,1.1,2.5,0,1
14828.031,0.077,0.435,0.882,0.31,1.53,1.98,0,1
14828.031,0.072,0.434,0.881,-0.46,1.62,1.59,0,1
14828.046,0.068,0.435,0.884,-0.82,1.4,1.31,0,1
14828.062,0.062,0.44,0.886,-0.95,1.37,1.22,0,1
14828.062,0.059,0.44,0.888,-1.34,1.01,1.07,0,1
14828.078,0.058,0.437,0.892,-1.56,0.61,0.95,0,1
14828.078,0.061,0.439,0.891,-1.37,0.37,1.01,0,1
14828.093,0.059,0.44,0.892,-1.04,0.12,1.16,0,1
14828.109,0.061,0.44,0.891,-0.76,0.34,1.28,0,1
14828.109,0.061,0.44,0.891,-0.46,0.7,1.34,0,1
14828.125,0.065,0.441,0.892,-0.03,0.98,1.53,0,1
14828.14,0.068,0.442,0.893,0.27,1.37,1.59,0,1
14828.14,0.066,0.439,0.893,0.64,1.19,1.71,0,1
14828.156,0.068,0.44,0.891,0.89,0.82,1.86,0,1
14828.156,0.07,0.44,0.89,0.82,0.52,1.65,0,1
14828.171,0.065,0.445,0.889,0.18,0.15,1.5,0,1
14828.187,0.065,0.445,0.889,-0.92,-0.09,1.13,0,1
14828.187,0.061,0.445,0.893,-2.23,-0.27,0.7,0,1
14828.203,0.061,0.439,0.896,-2.81,-0.73,0.73,0,1
14828.218,0.063,0.434,0.898,-2.32,-1.22,0.98,0,1
14828.218,0.061,0.436,0.896,-1.04,-1.46,1.46,0,1
14828.234,0.06,0.438,0.89,-0.09,-1.56,1.53,0,1
14828.25,0.061,0.438,0.886,0.37,-1.31,1.53,0,1
14828.265,0.062,0.437,0.883,0.34,-1.04,1.59,0,1
14828.265,0.065,0.438,0.88,0.12,-0.73,1.74,0,1
14828.281,0.066,0.436,0.879,-0.24,-0.31,1.56,0,1
14828.281,0.067,0.435,0.88,-0.52,-0.21,1.4,0,1
14828.296,0.067,0.439,0.883,-0.58,-0.27,1.31,0,1
14828.296,0.068,0.438,0.882,-0.52,-0.64,1.37,0,1
14828.312,0.067,0.433,0.879,-0.4,-0.73,1.5,0,1
14828.328,0.061,0.437,0.879,-0.27,-0.43,1.4,0,1
14828.328,0.062,0.436,0.879,-0.27,-0.06,1.28,0,1
14828.343,0.061,0.433,0.879,-0.49,0.34,1.53,0,1
14828.359,0.062,0.431,0.882,-0.34,0.85,1.74,0,1
14828.375,0.062,0.435,0.884,0.06,1.5,1.53,0,1
14828.375,0.063,0.433,0.884,0.12,1.92,1.13,0,1
14828.39,0.063,0.433,0.886,0.31,2.2,1.07,0,1
14828.39,0.06,0.438,0.889,0.27,2.2,1.1,0,1
14828.406,0.059,0.436,0.892,0.09,1.98,1.13,0,1
14828.421,0.062,0.43,0.895,-0.06,1.46,1.28,0,1
14828.421,0.061,0.431,0.895,0.18,1.07,1.19,0,1
14828.437,0.059,0.432,0.894,0.43,0.89,0.85,0,1
14828.453,0.059,0.432,0.893,0.52,0.95,0.61,0,1
14828.453,0.057,0.434,0.893,0.15,0.95,0.46,0,1
14828.468,0.057,0.434,0.896,-0.18,0.64,0.37,0,1
14828.468,0.055,0.434,0.899,-0.49,0.31,0.37,0,1
14828.484,0.058,0.428,0.901,-0.43,-0.27,0.4,0,1
14828.5,0.06,0.426,0.896,0.27,-0.89,0.34,0,1
14828.5,0.062,0.428,0.894,1.04,-1.25,0.34,0,1
14828.515,0.059,0.431,0.89,1.22,-1.16,-0.09,0,1
14828.531,0.057,0.432,0.89,0.79,-1.31,-0.34,0,1
14828.531,0.059,0.432,0.889,0.52,-1.89,-0.15,0,1
14828.546,0.056,0.431,0.889,0.4,-2.32,-0.49,0,1
14828.562,0.06,0.429,0.886,0.27,-2.32,-0.98,0,1
14828.562,0.06,0.427,0.883,0.31,-2.11,-1.31,0,1
14828.578,0.061,0.427,0.881,0.61,-1.95,-1.31,0,1
14828.578,0.06,0.432,0.882,0.98,-1.37,-1.28,0,1
14828.593,0.06,0.433,0.882,1.07,-0.79,-1.4,0,1
14828.609,0.06,0.43,0.881,1.25,-0.43,-1.31,0,1
14828.609,0.061,0.428,0.881,1.86,-0.31,-1.16,0,1
14828.625,0.06,0.43,0.88,2.2,-0.24,-1.46,0,1
14828.64,0.057,0.431,0.881,2.14,-0.21,-1.95,0,1
14828.64,0.058,0.43,0.88,1.98,-0.49,-2.2,0,1
14828.656,0.057,0.433,0.88,1.8,-0.73,-2.23,0,1
14828.671,0.058,0.431,0.878,1.46,-1.07,-2.32,0,1
14828.671,0.059,0.43,0.879,1.53,-1.13,-2.38,0,1
14828.687,0.061,0.432,0.881,1.92,-0.79,-2.44,0,1
14828.703,0.061,0.43,0.881,2.47,-0.49,-2.32,0,1
14828.703,0.062,0.432,0.882,3.08,-0.12,-2.04,0,1
14828.718,0.062,0.438,0.879,3.3,0.09,-2.04,0,1
14828.718,0.061,0.433,0.88,3.23,0.24,-2.2,0,1
14828.734,0.065,0.43,0.88,2.99,0.37,-2.38,0,1
14828.75,0.067,0.429,0.88,3.08,0.49,-2.47,0,1
14828.75,0.065,0.428,0.879,3.3,0.61,-2.84,0,1
14828.765,0.063,0.427,0.88,3.75,1.07,-3.75,0,1
14828.781,0.057,0.433,0.881,3.6,0.95,-4.0,0,1
14828.796,0.054,0.443,0.88,2.96,0.89,-4.15,0,1
14828.796,0.054,0.447,0.881,2.32,0.76,-4.21,0,1
14828.812,0.057,0.45,0.882,2.2,0.64,-4.15,0,1
14828.812,0.062,0.447,0.885,2.17,0.76,-3.78,0,1
14828.828,0.062,0.447,0.885,2.56,1.13,-3.23,0,1
14828.828,0.059,0.446,0.887,3.17,1.89,-3.05,0,1
14828.843,0.054,0.445,0.889,3.6,2.62,-2.93,0,1
14828.859,0.051,0.45,0.89,3.72,2.9,-2.81,0,1
14828.859,0.048,0.45,0.892,3.42,2.87,-2.84,0,1
14828.875,0.05,0.446,0.892,2.9,2.23,-2.72,0,1
14828.89,0.054,0.446,0.891,2.5,1.5,-2.62,0,1
14828.906,0.055,0.444,0.889,2.53,1.01,-2.87,0,1
14828.906,0.058,0.439,0.881,2.62,0.55,-3.05,0,1
14828.921,0.062,0.443,0.878,2.75,0.73,-3.05,0,1
14828.921,0.059,0.449,0.877,2.84,1.25,-3.39,0,1
14828.937,0.057,0.453,0.875,2.56,1.65,-3.63,0,1
14828.937,0.054,0.457,0.876,2.11,1.77,-3.33,0,1
14828.953,0.05,0.459,0.876,2.29,1.65,-2.87,0,1
14828.968,0.049,0.46,0.878,2.41,1.22,-2.44,0,1
14828.968,0.049,0.459,0.875,2.59,0.67,-2.11,0,1
14828.984,0.048,0.458,0.872,3.02,0.24,-1.8,0,1
14829.0,0.052,0.453,0.869,3.48,0.0,-1.31,0,1
14829.015,0.057,0.45,0.867,4.18,0.09,-1.04,0,1
14829.015,0.058,0.449,0.862,5.01,0.49,-1.13,0,1
14829.031,0.06,0.449,0.857,5.49,0.82,-1.46,0,1
14829.031,0.059,0.45,0.856,5.77,1.16,-1.98,0,1
14829.046,0.055,0.454,0.853,5.74,1.59,-2.66,0,1
14829.062,0.052,0.457,0.853,5.16,2.04,-2.99,0,1
14829.062,0.05,0.454,0.856,4.79,2.56,-2.99,0,1
14829.078,0.05,0.456,0.865,4.61,2.9,-3.08,0,1
14829.078,0.052,0.452,0.859,5.8,3.42,-3.36,0,1
14829.093,0.043,0.454,0.864,6.2,4.3,-3.85,0,1
14829.109,0.042,0.462,0.872,5.68,4.82,-3.94,0,1
14829.109,0.035,0.459,0.878,5.86,5.25,-4.12,0,1
14829.125,0.027,0.462,0.889,5.4,5.31,-4.43,0,1
14829.14,0.025,0.462,0.896,4.82,5.01,-4.55,0,1
14829.14,0.023,0.457,0.904,5.04,4.49,-4.79,0,1
14829.156,0.017,0.455,0.908,5.95,3.66,-5.04,0,1
14829.171,0.022,0.458,0.904,7.02,2.53,-5.1,0,1
14829.171,0.027,0.455,0.897,7.87,1.25,-5.16,0,1
14829.187,0.032,0.457,0.887,8.61,0.43,-5.1,0,1
14829.203,0.039,0.455,0.88,8.91,0.0,-5.1,0,1
14829.203,0.045,0.455,0.875,8.3,0.27,-5.28,0,1
14829.218,0.048,0.455,0.874,7.48,0.85,-5.31,0,1
14829.218,0.049,0.452,0.874,6.93,1.53,-5.62,0,1
14829.234,0.049,0.453,0.874,6.56,1.71,-6.07,0,1
14829.25,0.052,0.455,0.873,6.35,1.46,-6.23,0,1
14829.25,0.051,0.459,0.869,6.29,1.43,-6.47,0,1
14829.265,0.051,0.458,0.865,6.16,1.43,-6.38,0,1
14829.281,0.053,0.456,0.859,6.1,1.59,-6.1,0,1
14829.281,0.055,0.456,0.86,6.29,2.01,-6.04,0,1
14829.296,0.058,0.455,0.856,6.84,2.47,-6.2,0,1
14829.312,0.064,0.456,0.85,7.54,2.96,-6.35,0,1
14829.312,0.069,0.458,0.844,8.21,3.66,-6.71,0,1
14829.328,0.07,0.459,0.839,8.45,4.24,-7.14,0,1
14829.328,0.067,0.46,0.836,8.45,4.82,-7.42,0,1
14829.343,0.068,0.464,0.832,8.06,5.43,-7.9,0,1
14829.359,0.077,0.463,0.827,7.72,5.92,-8.45,0,1
14829.359,0.071,0.46,0.816,8.15,6.53,-9.13,0,1
14829.375,0.071,0.477,0.814,8.12,7.05,-9.28,0,1
14829.39,0.069,0.482,0.807,8.61,8.18,-9.55,0,1
14829.39,0.066,0.488,0.805,8.67,9.19,-9.4,0,1
14829.406,0.065,0.498,0.804,8.33,10.1,-8.91,0,1
14829.421,0.06,0.504,0.809,7.93,11.02,-8.27,0,1
14829.437,0.052,0.501,0.818,8.09,11.35,-7.54,0,1
14829.437,0.048,0.511,0.794,8.55,11.72,-6.9,0,1
14829.437,0.04,0.514,0.82,8.97,13.18,-5.68,0,1
14829.453,0.033,0.512,0.81,9.22,13.28,-5.55,0,1
14829.468,0.029,0.528,0.811,8.42,14.22,-4.85,0,1
14829.468,0.025,0.521,0.821,8.48,14.83,-3.97,0,1
14829.484,0.018,0.521,0.819,8.67,14.92,-3.63,0,1
14829.5,0.009,0.537,0.822,8.91,15.56,-3.48,0,1
14829.5,-0.003,0.546,0.827,8.85,15.96,-3.54,0,1
14829.515,-0.018,0.563,0.82,7.63,16.36,-3.88,0,1
14829.531,-0.033,0.567,0.835,5.34,17.21,-3.57,0,1
14829.531,-0.04,0.564,0.844,3.2,17.21,-2.81,0,1
14829.546,-0.048,0.57,0.85,2.2,17.37,-2.41,0,1
14829.562,-0.063,0.568,0.859,1.83,17.46,-2.26,0,1
14829.562,-0.076,0.571,0.866,1.83,16.94,-1.95,0,1
14829.578,-0.091,0.576,0.867,1.98,16.11,-0.95,0,1
14829.578,-0.102,0.576,0.871,2.04,15.2,0.34,0,1
14829.593,-0.109,0.573,0.873,2.35,14.5,1.37,0,1
14829.609,-0.115,0.57,0.875,2.75,14.19,2.17,0,1
14829.609,-0.121,0.561,0.878,3.11,13.92,2.99,0,1
14829.625,-0.123,0.56,0.879,3.78,13.52,3.85,0,1
14829.64,-0.127,0.558,0.879,4.46,12.91,4.52,0,1
14829.656,-0.128,0.554,0.879,4.43,12.21,5.22,0,1
14829.656,-0.126,0.546,0.879,4.06,11.38,5.71,0,1
14829.671,-0.127,0.534,0.876,4.06,10.1,6.07,0,1
14829.671,-0.126,0.527,0.874,4.12,8.73,5.98,0,1
14829.687,-0.126,0.519,0.868,4.12,7.23,6.07,0,1
14829.687,-0.126,0.519,0.865,4.33,6.1,6.01,0,1
14829.703,-0.127,0.52,0.859,4.33,5.07,5.8,0,1
14829.718,-0.119,0.519,0.855,3.85,4.24,5.46,0,1
14829.718,-0.122,0.518,0.847,3.48,3.85,4.58,0,1
14829.734,-0.122,0.517,0.845,2.81,3.57,4.09,0,1
14829.75,-0.12,0.519,0.841,1.62,3.63,2.53,0,1
14829.75,-0.124,0.519,0.84,0.61,3.39,1.89,0,1
14829.765,-0.122,0.523,0.841,-0.06,3.11,1.22,0,1
14829.781,-0.124,0.528,0.839,-0.55,2.72,0.79,0,1
14829.781,-0.123,0.525,0.838,-0.76,2.23,0.64,0,1
14829.796,-0.118,0.527,0.837,-0.73,1.83,0.52,0,1
14829.812,-0.115,0.527,0.834,-0.49,1.5,0.09,0,1
14829.812,-0.115,0.528,0.832,-0.46,1.4,-0.15,0,1
14829.828,-0.11,0.53,0.832,-0.4,1.19,-0.27,0,1
14829.828,-0.108,0.536,0.831,-0.24,1.13,-0.4,0,1
14829.843,-0.108,0.537,0.831,-0.64,1.13,-0.52,0,1
14829.859,-0.104,0.539,0.83,-0.85,1.07,-0.64,0,1
14829.859,-0.107,0.54,0.831,-0.79,0.98,-0.7,0,1
14829.875,-0.102,0.542,0.833,-0.7,0.73,-0.58,0,1
14829.89,-0.1,0.542,0.831,-0.37,0.55,-0.61,0,1
14829.89,-0.102,0.541,0.833,0.0,0.31,-0.37,0,1
14829.906,-0.1,0.54,0.836,0.34,0.09,0.06,0,1
14829.921,-0.1,0.542,0.838,0.52,0.18,0.21,0,1
14829.921,-0.099,0.543,0.839,0.82,0.37,0.31,0,1
14829.937,-0.099,0.542,0.84,0.98,0.4,0.43,0,1
14829.953,-0.1,0.542,0.846,0.92,0.21,0.55,0,1
14829.953,-0.098,0.542,0.847,1.07,-0.06,0.67,0,1
14829.968,-0.095,0.54,0.847,1.28,-0.49,0.64,0,1
14829.968,-0.093,0.536,0.849,1.37,-1.04,0.89,0,1
14829.984,-0.089,0.535,0.848,1.65,-1.68,1.25,0,1
14830.0,-0.081,0.53,0.843,1.8,-2.35,1.56,0,1
14830.0,-0.075,0.525,0.835,2.23,-2.56,1.71,0,1
14830.015,-0.069,0.519,0.831,2.53,-2.44,1.68,0,1
14830.031,-0.066,0.52,0.831,2.47,-2.04,1.46,0,1
14830.031,-0.064,0.52,0.827,2.14,-1.62,1.13,0,1
14830.046,-0.06,0.519,0.827,1.65,-1.19,0.82,0,1
14830.062,-0.058,0.518,0.829,1.16,-0.67,0.7,0,1
14830.062,-0.059,0.516,0.831,0.7,-0.76,0.76,0,1
14830.078,-0.058,0.514,0.831,0.46,-1.01,0.85,0,1
14830.078,-0.057,0.517,0.83,0.52,-0.92,0.76,0,1
14830.093,-0.057,0.524,0.831,0.37,-0.85,0.31,0,1
14830.109,-0.054,0.522,0.828,0.0,-0.85,0.12,0,1
14830.109,-0.055,0.526,0.826,-0.43,-0.43,0.15,0,1
14830.125,-0.058,0.529,0.829,-0.95,0.03,0.12,0,1
14830.14,-0.058,0.53,0.834,-1.34,0.49,0.09,0,1
14830.14,-0.06,0.53,0.836,-1.56,0.76,0.31,0,1
14830.156,-0.064,0.531,0.838,-1.37,0.89,0.46,0,1
14830.171,-0.066,0.535,0.84,-1.62,1.13,0.4,0,1
14830.171,-0.068,0.534,0.843,-2.14,1.25,0.34,0,1
14830.187,-0.07,0.53,0.845,-2.23,1.16,0.55,0,1
14830.187,-0.069,0.531,0.846,-1.98,0.85,0.89,0,1
14830.203,-0.07,0.53,0.847,-1.56,0.55,1.04,0,1
14830.218,-0.072,0.528,0.845,-1.34,0.06,1.07,0,1
14830.218,-0.076,0.53,0.845,-1.13,-0.18,1.25,0,1
14830.234,-0.076,0.532,0.843,-0.76,-0.46,1.53,0,1
14830.25,-0.074,0.527,0.843,-0.95,-0.92,1.59,0,1
14830.25,-0.074,0.525,0.841,-1.13,-1.07,1.74,0,1
14830.265,-0.074,0.523,0.842,-0.98,-1.28,2.01,0,1
14830.281,-0.067,0.519,0.838,-0.73,-1.56,2.26,0,1
14830.281,-0.065,0.514,0.837,0.0,-1.77,2.44,0,1
14830.296,-0.063,0.512,0.836,0.58,-1.74,2.5,0,1
14830.296,-0.064,0.512,0.832,0.85,-1.59,2.5,0,1
14830.312,-0.063,0.511,0.829,0.95,-1.53,2.29,0,1
14830.328,-0.063,0.512,0.829,0.61,-1.43,1.98,0,1
14830.328,-0.063,0.515,0.831,-0.06,-1.22,1.37,0,1
14830.343,-0.064,0.508,0.83,-0.46,-1.01,0.82,0,1
14830.359,-0.064,0.511,0.831,-0.49,-0.92,0.49,0,1
14830.359,-0.065,0.514,0.831,-0.58,-1.04,0.21,0,1
14830.375,-0.066,0.515,0.83,-0.7,-0.98,-0.09,0,1
14830.39,-0.066,0.517,0.832,-0.85,-0.85,-0.37,0,1
14830.39,-0.065,0.519,0.835,-0.85,-1.16,-0.49,0,1
14830.406,-0.067,0.519,0.835,-0.7,-1.13,-0.43,0,1
14830.421,-0.066,0.521,0.834,-0.58,-1.28,-0.37,0,1
14830.421,-0.064,0.52,0.833,-0.18,-1.59,-0.18,0,1
14830.437,-0.062,0.519,0.833,0.37,-1.5,-0.12,0,1
14830.453,-0.062,0.525,0.828,0.58,-1.16,-0.18,0,1
14830.453,-0.062,0.526,0.829,0.27,-0.98,-0.21,0,1
14830.468,-0.061,0.524,0.829,0.0,-0.89,0.0,0,1
14830.468,-0.061,0.524,0.83,-0.03,-0.92,0.15,0,1
14830.484,-0.06,0.524,0.832,-0.18,-0.85,0.09,0,1
14830.5,-0.062,0.528,0.837,-0.64,-1.28,-0.03,0,1
14830.5,-0.056,0.517,0.829,0.49,-1.16,0.31,0,1
14830.515,-0.059,0.525,0.838,0.55,-0.95,0.67,0,1
14830.531,-0.045,0.519,0.837,0.46,-1.37,1.5,0,1
14830.531,-0.038,0.509,0.836,1.16,-1.28,1.68,0,1
14830.546,-0.03,0.513,0.837,1.5,-1.25,1.71,0,1
14830.562,-0.027,0.514,0.84,1.53,-1.19,1.65,0,1
14830.562,-0.019,0.515,0.85,0.7,-1.25,1.28,0,1
14830.578,-0.003,0.514,0.855,-0.58,-1.43,0.79,0,1
14830.593,0.01,0.515,0.866,-2.11,-1.56,0.46,0,1
14830.593,0.024,0.521,0.894,-3.97,-2.01,0.09,0,1
14830.609,0.031,0.513,0.89,-5.55,-3.23,-0.55,0,1
14830.609,0.037,0.532,0.912,-8.39,-2.99,-0.85,0,1
14830.625,0.045,0.516,0.943,-10.53,-3.27,-0.15,0,1
14830.64,0.052,0.522,0.957,-13.76,-4.73,0.09,0,1
14830.64,0.061,0.524,0.989,-16.69,-5.49,1.5,0,1
14830.656,0.063,0.498,1.02,-17.94,-7.02,3.27,0,1
14830.671,0.074,0.491,1.039,-18.52,-8.82,5.25,0,1
14830.671,0.087,0.491,1.061,-18.62,-9.95,7.14,0,1
14830.687,0.094,0.49,1.085,-19.81,-11.41,8.18,0,1
14830.687,0.101,0.484,1.101,-21.33,-14.1,8.42,0,1
14830.703,0.105,0.481,1.112,-22.28,-18.16,8.64,0,1
14830.718,0.107,0.494,1.12,-23.35,-23.83,8.36,0,1
14830.718,0.107,0.497,1.112,-25.36,-31.56,8.09,0,1
14830.734,0.113,0.504,1.094,-30.76,-47.43,8.79,0,1
14830.75,0.126,0.51,1.065,-32.96,-53.96,9.83,0,1
14830.75,0.154,0.493,1.034,-33.17,-58.9,12.09,0,1
14830.765,0.214,0.408,0.983,-30.0,-62.65,15.26,0,1
14830.781,0.244,0.363,0.965,-23.59,-65.8,18.16,0,1
14830.796,0.281,0.318,0.932,-13.7,-68.39,20.78,0,1
14830.796,0.326,0.287,0.884,-2.99,-69.03,23.83,0,1
14830.796,0.307,0.29,0.876,7.29,-67.6,25.61,0,1
14830.812,0.308,0.311,0.84,14.31,-65.61,25.09,0,1
14830.828,0.293,0.339,0.829,15.47,-62.5,22.64,0,1
14830.843,0.277,0.364,0.822,12.33,-60.06,19.01,0,1
14830.843,0.264,0.391,0.828,6.23,-59.33,14.92,0,1
14830.859,0.272,0.39,0.82,-0.15,-61.62,11.44,0,1
14830.859,0.288,0.369,0.809,-3.3,-65.89,9.22,0,1
14830.875,0.306,0.352,0.791,-2.11,-71.29,8.76,0,1
14830.89,0.323,0.344,0.776,1.83,-77.15,8.45,0,1
14830.89,0.332,0.312,0.716,8.06,-82.37,7.57,0,1
14830.906,0.324,0.303,0.684,11.99,-84.54,7.29,0,1
14830.921,0.306,0.338,0.681,16.05,-83.68,6.47,0,1
14830.921,0.256,0.424,0.635,13.79,-80.54,0.21,0,1
14830.937,0.218,0.501,0.588,1.16,-73.67,-9.55,0,1
14830.953,0.217,0.495,0.597,-12.51,-63.57,-14.07,0,1
14830.953,0.209,0.461,0.613,-21.18,-53.56,-14.83,0,1
14830.968,0.213,0.443,0.629,-24.6,-44.13,-13.79,0,1
14830.968,0.208,0.436,0.66,-22.68,-35.04,-12.42,0,1
14830.984,0.186,0.42,0.678,-14.56,-25.79,-11.38,0,1
14831.0,0.154,0.424,0.696,-5.31,-16.27,-10.77,0,1
14831.0,0.126,0.472,0.713,1.65,-5.65,-12.33,0,1
14831.015,0.102,0.525,0.732,4.49,5.34,-15.11,0,1
14831.031,0.074,0.557,0.726,2.53,15.66,-16.79,0,1
14831.031,0.054,0.589,0.732,-4.39,24.23,-17.0,0,1
14831.046,0.016,0.602,0.769,-13.34,31.22,-16.48,0,1
14831.062,-0.012,0.589,0.822,-21.88,34.61,-16.36,0,1
14831.062,-0.007,0.542,0.85,-25.36,33.81,-16.45,0,1
14831.078,-0.011,0.503,0.859,-23.41,32.2,-16.27,0,1
14831.078,0.003,0.475,0.861,-17.0,30.73,-15.11,0,1
14831.093,0.031,0.43,0.849,-7.17,30.73,-13.98,0,1
14831.109,0.046,0.395,0.831,5.13,33.85,-12.85,0,1
14831.125,0.034,0.407,0.816,17.64,40.04,-12.6,0,1
14831.125,0.024,0.444,0.798,27.59,47.49,-13.55,0,1
14831.14,-0.009,0.447,0.772,34.24,54.93,-13.31,0,1
14831.14,-0.033,0.492,0.767,35.58,62.2,-12.12,0,1
14831.156,-0.042,0.565,0.76,30.95,68.91,-15.72,0,1
14831.171,-0.109,0.566,0.778,21.06,73.95,-19.81,0,1
14831.171,-0.14,0.602,0.821,8.64,74.71,-20.51,0,1
14831.187,-0.203,0.638,0.861,-3.08,70.38,-20.33,0,1
14831.187,-0.217,0.616,0.897,-14.59,60.49,-16.88,0,1
14831.203,-0.194,0.608,0.931,-19.81,48.8,-12.51,0,1
14831.218,-0.178,0.585,0.939,-17.98,37.08,-9.49,0,1
14831.234,-0.132,0.554,0.914,-13.21,26.98,-7.08,0,1
14831.234,-0.111,0.52,0.888,-6.74,21.97,-4.67,0,1
14831.25,-0.083,0.493,0.872,0.27,21.82,-1.04,0,1
14831.25,-0.074,0.467,0.868,7.45,25.42,1.98,0,1
14831.265,-0.083,0.481,0.87,11.69,30.95,1.89,0,1
14831.281,-0.11,0.511,0.892,12.76,35.31,-0.92,0,1
14831.281,-0.15,0.549,0.895,9.25,36.96,-3.75,0,1
14831.296,-0.163,0.605,0.918,0.4,34.82,-5.77,0,1
14831.312,-0.174,0.595,0.915,-9.8,28.57,-5.74,0,1
14831.312,-0.159,0.583,0.919,-20.39,19.84,-4.61,0,1
14831.328,-0.134,0.562,0.908,-26.4,11.29,-3.72,0,1
14831.328,-0.12,0.545,0.887,-28.78,4.91,-2.84,0,1
14831.343,-0.117,0.545,0.871,-28.47,2.32,-1.77,0,1
14831.359,-0.128,0.55,0.86,-27.22,2.87,-0.73,0,1
14831.359,-0.128,0.537,0.869,-25.94,5.31,1.31,0,1
14831.375,-0.121,0.509,0.881,-23.32,8.18,3.42,0,1
14831.39,-0.104,0.48,0.891,-18.4,10.41,5.34,0,1
14831.39,-0.096,0.47,0.89,-12.85,12.3,7.17,0,1
14831.406,-0.086,0.466,0.89,-7.66,13.49,8.64,0,1
14831.421,-0.074,0.469,0.884,-4.58,13.95,9.31,0,1
14831.421,-0.067,0.452,0.876,-3.11,13.34,10.5,0,1
14831.437,-0.048,0.432,0.861,-2.08,11.02,11.05,0,1
14831.437,-0.025,0.437,0.843,-2.04,8.64,9.52,0,1
14831.453,-0.017,0.43,0.829,-3.78,7.78,7.23,0,1
14831.468,-0.015,0.422,0.841,-7.6,8.39,5.25,0,1
14831.468,-0.02,0.414,0.864,-11.23,10.28,3.72,0,1
14831.484,-0.044,0.416,0.884,-14.1,12.57,1.92,0,1
14831.5,-0.063,0.434,0.897,-17.46,13.86,0.61,0,1
14831.5,-0.06,0.421,0.91,-18.56,14.34,0.79,0,1
14831.515,-0.066,0.409,0.912,-18.16,13.52,-1.04,0,1
14831.531,-0.069,0.412,0.89,-18.59,12.09,-4.21,0,1
14831.531,-0.065,0.422,0.851,-20.54,11.84,-7.42,0,1
14831.546,-0.074,0.429,0.828,-23.99,12.6,-9.31,0,1
14831.562,-0.161,0.493,0.913,-28.38,12.02,-7.9,0,1
14831.562,-0.151,0.432,1.024,-30.61,1.22,-1.92,0,1
14831.578,-0.036,0.384,0.892,-39.8,-13.95,-4.97,0,1
14831.578,-0.229,0.53,1.055,-50.69,-17.67,-6.35,0,1
14831.593,-0.122,0.31,1.055,-47.46,-28.66,2.2,0,1
14831.609,-0.1,0.334,0.962,-50.39,-35.31,0.03,0,1
14831.625,-0.089,0.308,0.942,-47.79,-26.73,1.95,0,1
14831.625,-0.107,0.249,0.968,-40.31,-12.6,2.93,0,1
14831.64,-0.176,0.278,0.987,-30.76,2.44,1.89,0,1
14831.64,-0.231,0.32,0.988,-22.61,14.01,0.76,0,1
14831.656,-0.299,0.372,0.975,-19.14,23.99,0.0,0,1
14831.671,-0.364,0.453,1.018,-20.54,31.5,-0.15,0,1
14831.671,-0.424,0.484,1.067,-22.68,29.54,0.52,0,1
14831.687,-0.501,0.512,1.131,-25.91,18.13,3.11,0,1
14831.703,-0.351,0.366,1.162,-31.5,-2.23,5.52,0,1
14831.703,-0.422,0.372,1.026,-50.36,-26.55,-12.7,0,1
14831.718,-0.353,0.37,1.049,-61.13,-51.85,-5.01,0,1
14831.718,-0.21,0.216,1.054,-61.28,-64.03,-6.47,0,1
14831.734,-0.173,0.218,1.006,-54.02,-70.44,-4.94,0,1
14831.75,-0.03,0.134,0.895,-44.4,-69.52,-4.97,0,1
14831.75,0.044,0.146,0.878,-33.91,-66.47,-6.38,0,1
14831.765,0.092,0.163,0.83,-21.12,-59.91,-8.88,0,1
14831.781,0.12,0.182,0.806,-12.82,-50.45,-10.28,0,1
14831.796,0.161,0.209,0.798,-6.84,-41.08,-11.72,0,1
14831.796,0.191,0.228,0.797,-1.19,-31.92,-13.58,0,1
14831.796,0.223,0.241,0.795,2.2,-24.11,-14.77,0,1
14831.812,0.241,0.283,0.811,2.38,-18.04,-15.14,0,1
14831.828,0.259,0.298,0.834,0.21,-13.58,-14.89,0,1
14831.828,0.266,0.302,0.863,-3.94,-10.16,-14.83,0,1
14831.843,0.28,0.311,0.896,-10.16,-7.81,-15.78,0,1
14831.859,0.296,0.302,0.907,-15.99,-6.16,-17.0,0,1
14831.859,0.305,0.292,0.915,-19.56,-3.33,-17.0,0,1
14831.875,0.307,0.263,0.929,-18.83,0.15,-15.78,0,1
14831.89,0.308,0.242,0.954,-14.04,3.08,-13.49,0,1
14831.89,0.306,0.228,0.959,-5.58,4.91,-10.01,0,1
14831.906,0.295,0.207,0.95,4.55,6.5,-6.16,0,1
14831.921,0.282,0.19,0.946,16.39,8.15,-1.74,0,1
14831.921,0.256,0.207,0.944,27.95,10.01,1.59,0,1
14831.937,0.221,0.223,0.942,35.28,11.35,2.96,0,1
14831.937,0.179,0.255,0.947,35.16,12.05,1.65,0,1
14831.953,0.144,0.292,0.955,28.96,11.93,-1.98,0,1
14831.968,0.1,0.316,0.964,19.32,9.95,-5.77,0,1
14831.984,0.061,0.345,0.972,8.0,6.9,-8.61,0,1
14831.984,0.042,0.355,0.982,-2.9,3.2,-10.38,0,1
14832.0,0.027,0.344,0.989,-10.07,-0.24,-10.19,0,1
14832.0,0.02,0.333,0.992,-11.57,-3.23,-8.48,0,1
14832.015,0.026,0.312,0.99,-7.05,-5.25,-5.74,0,1
14832.031,0.029,0.288,0.98,1.59,-6.38,-2.87,0,1
14832.031,0.033,0.287,0.96,10.44,-7.08,-0.31,0,1
14832.046,0.041,0.289,0.933,17.37,-6.93,1.95,0,1
14832.062,0.05,0.283,0.91,21.61,-5.58,3.45,0,1
14832.062,0.051,0.282,0.897,23.32,-3.45,3.94,0,1
14832.078,0.041,0.282,0.89,22.64,-1.01,3.6,0,1
14832.078,0.041,0.285,0.887,20.11,1.4,3.11,0,1
14832.093,0.043,0.279,0.883,17.24,3.6,2.72,0,1
14832.109,0.036,0.284,0.891,12.85,5.01,1.74,0,1
14832.109,0.029,0.286,0.903,7.32,5.1,-0.34,0,1
14832.125,0.032,0.281,0.909,0.89,3.63,-3.05,0,1
14832.14,0.03,0.271,0.911,-5.22,1.8,-5.8,0,1
14832.156,0.046,0.251,0.911,-8.85,1.07,-8.0,0,1
14832.156,0.051,0.244,0.912,-8.3,1.92,-10.44,0,1
14832.171,0.057,0.208,0.891,-3.85,3.75,-12.05,0,1
14832.171,0.014,0.216,0.899,3.33,7.48,-13.55,0,1
14832.187,-0.051,0.366,1.006,-1.65,3.39,-9.58,0,1
14832.187,0.018,0.388,1.035,-11.96,-8.94,-4.85,0,1
14832.203,0.009,0.215,0.99,-5.92,-12.48,-4.76,0,1
14832.218,-0.102,0.368,1.078,-9.4,-16.36,-7.32,0,1
14832.234,0.001,0.441,1.11,-14.92,-23.38,-4.09,0,1
14832.234,-0.042,0.329,1.081,-6.35,-22.46,-0.76,0,1
14832.25,-0.009,0.349,1.072,0.18,-20.51,2.81,0,1
14832.25,0.03,0.371,1.043,10.22,-16.27,4.39,0,1
14832.265,0.008,0.374,1.004,19.32,-9.95,4.43,0,1
14832.281,0.021,0.402,0.974,22.52,-5.55,4.33,0,1
14832.281,0.04,0.405,0.937,22.74,-3.45,4.67,0,1
14832.296,0.051,0.382,0.912,20.84,-2.47,5.25,0,1
14832.312,0.061,0.377,0.9,17.24,-2.41,5.98,0,1
14832.312,0.068,0.363,0.893,12.88,-3.45,6.5,0,1
14832.328,0.058,0.355,0.91,6.78,-5.34,6.74,0,1
14832.328,0.056,0.399,0.936,-2.14,-9.7,8.06,0,1
14832.343,0.118,0.306,0.893,-6.13,-12.05,8.45,0,1
14832.359,0.065,0.268,0.888,-4.36,-7.51,6.07,0,1
14832.359,0.08,0.342,0.923,-6.9,-4.97,5.89,0,1
14832.375,0.077,0.314,0.927,-5.58,-2.75,5.77,0,1
14832.39,0.071,0.305,0.933,-5.16,-1.01,5.98,0,1
14832.39,0.09,0.307,0.937,-4.82,-0.46,6.04,0,1
14832.406,0.088,0.295,0.94,-3.94,-0.46,5.07,0,1
14832.421,0.099,0.291,0.936,-3.3,-1.13,3.94,0,1
14832.421,0.103,0.29,0.93,-2.96,-1.53,3.3,0,1
14832.437,0.103,0.274,0.935,-3.27,-1.5,2.84,0,1
14832.453,0.104,0.263,0.94,-3.48,-0.76,2.2,0,1
14832.453,0.098,0.259,0.949,-2.99,0.34,1.62,0,1
14832.468,0.085,0.265,0.96,-0.64,1.46,1.77,0,1
14832.468,0.083,0.269,0.967,0.98,1.74,1.1,0,1
14832.484,0.07,0.28,0.971,0.52,1.19,-0.64,0,1
14832.5,0.059,0.293,0.976,-0.31,0.15,-1.83,0,1
14832.5,0.057,0.3,0.974,-1.16,-1.07,-1.92,0,1
14832.515,0.055,0.299,0.975,-1.77,-1.8,-1.71,0,1
14832.531,0.057,0.296,0.97,-0.64,-2.56,-1.5,0,1
14832.531,0.058,0.299,0.962,1.89,-2.5,-0.98,0,1
14832.546,0.056,0.303,0.958,4.27,-1.31,-0.49,0,1
14832.562,0.06,0.3,0.95,6.41,-0.12,0.06,0,1
14832.562,0.064,0.302,0.942,7.66,0.95,0.37,0,1
14832.578,0.062,0.303,0.94,7.39,1.37,0.15,0,1
14832.593,0.057,0.304,0.939,5.13,1.01,-0.21,0,1
14832.593,0.058,0.305,0.939,2.04,0.12,-0.92,0,1
14832.609,0.061,0.307,0.939,-0.27,-1.07,-1.31,0,1
14832.609,0.062,0.309,0.935,-1.04,-1.68,-1.71,0,1
14832.625,0.063,0.311,0.929,-1.07,-1.59,-1.95,0,1
14832.64,0.064,0.313,0.925,-1.1,-1.13,-2.14,0,1
14832.64,0.064,0.315,0.924,-0.92,-0.18,-2.26,0,1
14832.656,0.061,0.321,0.926,-0.95,0.89,-2.26,0,1
14832.671,0.057,0.329,0.935,-1.25,1.62,-2.14,0,1
14832.671,0.054,0.328,0.945,-1.43,2.04,-1.59,0,1
14832.687,0.055,0.325,0.95,-1.74,1.89,-0.89,0,1
14832.703,0.055,0.326,0.954,-0.55,1.65,-0.64,0,1
14832.703,0.049,0.326,0.957,-0.4,0.89,-0.09,0,1
14832.718,0.05,0.33,0.959,-0.73,-0.27,0.55,0,1
14832.718,0.053,0.323,0.952,-1.16,-0.95,0.79,0,1
14832.734,0.053,0.319,0.951,-1.86,-1.19,0.55,0,1
14832.75,0.056,0.318,0.95,-2.44,-1.25,0.76,0,1
14832.75,0.059,0.314,0.947,-2.62,-0.85,0.82,0,1
14832.765,0.062,0.308,0.946,-2.9,-0.64,0.73,0,1
14832.781,0.063,0.302,0.944,-2.75,-0.55,0.79,0,1
14832.781,0.064,0.302,0.944,-2.01,-0.34,0.82,0,1
14832.796,0.068,0.299,0.942,-1.22,0.15,0.95,0,1
14832.812,0.07,0.296,0.942,-0.76,0.73,0.98,0,1
14832.812,0.065,0.296,0.944,-0.79,1.07,0.79,0,1
14832.828,0.06,0.301,0.948,-1.28,1.01,0.64,0,1
14832.828,0.061,0.296,0.954,-1.65,0.46,0.61,0,1
14832.843,0.061,0.289,0.953,-1.74,-0.21,0.55,0,1
14832.859,0.065,0.287,0.949,-1.83,-0.98,0.06,0,1
14832.859,0.068,0.288,0.946,-1.89,-1.16,-0.49,0,1
14832.875,0.066,0.294,0.947,-1.56,-0.67,-0.95,0,1
14832.89,0.062,0.296,0.948,-0.85,0.37,-1.07,0,1
14832.89,0.057,0.3,0.952,-0.31,1.01,-1.16,0,1
14832.906,0.055,0.304,0.954,0.03,1.31,-0.95,0,1
14832.921,0.047,0.313,0.96,-0.27,1.83,-1.04,0,1
14832.921,0.039,0.319,0.97,-1.43,1.62,-1.01,0,1
14832.937,0.036,0.319,0.972,-2.56,0.64,-0.67,0,1
14832.937,0.037,0.318,0.97,-2.59,-0.27,-0.46,0,1
14832.953,0.041,0.313,0.964,-1.53,-0.85,0.0,0,1
14832.968,0.047,0.308,0.955,0.0,-1.13,0.31,0,1
14832.968,0.053,0.306,0.945,1.59,-1.34,0.67,0,1
14832.984,0.058,0.309,0.937,2.17,-1.25,0.82,0,1
14833.0,0.057,0.314,0.932,1.4,-1.07,0.76,0,1
14833.0,0.055,0.312,0.931,-0.24,-1.28,0.89,0,1
14833.015,0.06,0.308,0.934,-1.92,-1.46,0.82,0,1
14833.031,0.061,0.303,0.934,-2.96,-1.37,0.52,0,1
14833.031,0.062,0.298,0.936,-2.96,-0.92,0.43,0,1
14833.046,0.057,0.304,0.949,-2.9,-0.67,0.34,0,1
14833.062,0.065,0.293,0.944,-1.43,-0.34,0.55,0,1
14833.062,0.061,0.289,0.944,0.76,0.85,0.61,0,1
14833.078,0.064,0.3,0.948,2.29,1.43,0.85,0,1
14833.078,0.059,0.294,0.947,3.72,1.34,0.95,0,1
14833.093,0.059,0.294,0.946,4.52,0.76,0.89,0,1
14833.109,0.058,0.306,0.94,3.97,-0.12,0.31,0,1
14833.109,0.056,0.306,0.935,2.2,-0.76,-0.37,0,1
14833.125,0.056,0.303,0.937,0.15,-1.19,-0.64,0,1
14833.14,0.057,0.303,0.937,-1.53,-1.25,-0.85,0,1
14833.14,0.059,0.305,0.936,-2.41,-1.13,-1.13,0,1
14833.156,0.058,0.3,0.937,-2.5,-0.79,-1.37,0,1
14833.171,0.059,0.296,0.936,-1.56,-0.12,-1.22,0,1
14833.171,0.061,0.293,0.935,0.27,0.82,-0.95,0,1
14833.187,0.062,0.294,0.932,2.59,1.77,-0.89,0,1
14833.203,0.061,0.296,0.927,4.06,2.81,-0.85,0,1
14833.203,0.057,0.294,0.913,5.07,3.75,-1.4,0,1
14833.218,0.049,0.301,0.923,4.67,4.85,-1.56,0,1
14833.234,0.044,0.307,0.937,2.17,4.85,-1.19,0,1
14833.234,0.042,0.31,0.95,-1.34,3.69,-1.62,0,1
14833.25,0.045,0.292,0.953,-3.08,2.9,-2.23,0,1
14833.25,0.037,0.299,0.967,-4.97,2.11,-3.11,0,1
14833.265,0.039,0.315,0.984,-5.98,0.58,-3.42,0,1
14833.281,0.073,0.286,0.955,-3.81,-0.52,-3.11,0,1
14833.281,0.056,0.23,0.93,4.27,4.03,-3.85,0,1
14833.296,-0.025,0.386,1.019,3.85,4.67,-2.56,0,1
14833.312,0.035,0.364,1.03,0.95,-2.5,0.46,0,1
14833.312,-0.023,0.314,0.988,1.74,-5.89,0.73,0,1
14833.328,0.009,0.357,0.994,0.37,-6.99,1.8,0,1
14833.343,0.015,0.339,0.974,2.35,-5.22,2.99,0,1
14833.343,0.005,0.329,0.964,4.85,-1.31,3.39,0,1
14833.359,0.004,0.338,0.969,7.81,2.47,3.54,0,1
14833.359,-0.008,0.349,0.969,9.74,4.58,3.6,0,1
14833.375,-0.021,0.362,0.973,9.34,5.13,3.85,0,1
14833.39,-0.026,0.364,0.98,7.51,4.18,4.0,0,1
14833.39,-0.04,0.366,0.996,3.88,1.31,4.15,0,1
14833.406,-0.008,0.392,1.007,-4.3,-5.28,4.79,0,1
14833.421,0.027,0.279,0.942,-2.04,-7.14,4.12,0,1
14833.421,-0.025,0.312,0.953,0.46,-5.4,3.02,0,1
14833.437,-0.013,0.399,0.992,-2.23,-7.17,5.46,0,1
14833.453,-0.007,0.352,0.965,1.31,-8.45,9.0,0,1
14833.453,0.02,0.314,0.964,0.7,-9.09,8.91,0,1
14833.468,0.03,0.324,0.962,-0.95,-9.64,6.96,0,1
14833.468,0.036,0.313,0.953,-0.37,-9.77,6.56,0,1
14833.484,0.054,0.304,0.941,-0.37,-9.77,6.2,0,1
14833.5,0.063,0.302,0.928,-0.49,-8.79,5.49,0,1
14833.5,0.069,0.297,0.917,0.12,-7.14,5.4,0,1
14833.515,0.066,0.307,0.914,0.92,-5.22,5.19,0,1
14833.531,0.064,0.303,0.919,1.74,-3.23,5.25,0,1
14833.531,0.054,0.302,0.926,2.38,-1.86,5.4,0,1
14833.546,0.042,0.318,0.931,2.87,-0.67,4.88,0,1
14833.562,0.027,0.328,0.936,2.01,-0.18,3.85,0,1
14833.562,0.011,0.336,0.948,0.03,0.37,3.51,0,1
14833.578,-0.001,0.345,0.961,-2.14,0.89,3.75,0,1
14833.578,0.001,0.34,0.974,-3.85,0.46,4.27,0,1
14833.593,0.001,0.332,0.988,-4.27,-1.01,4.76,0,1
14833.609,0.003,0.333,0.993,-3.36,-3.36,5.04,0,1
14833.609,0.02,0.334,0.99,-2.26,-5.43,5.07,0,1
14833.625,0.039,0.327,0.987,-1.16,-6.62,5.74,0,1
14833.64,0.054,0.324,0.986,-0.12,-6.96,7.02,0,1
14833.64,0.059,0.317,0.983,0.95,-6.74,8.03,0,1
14833.656,0.06,0.312,0.982,1.74,-6.29,8.03,0,1
14833.671,0.052,0.319,0.983,2.08,-6.2,7.69,0,1
14833.671,0.022,0.345,0.988,-0.61,-6.5,6.47,0,1
14833.687,-0.007,0.377,0.994,-3.54,-8.21,6.53,0,1
14833.687,-0.023,0.389,0.994,-4.27,-11.23,7.75,0,1
14833.703,-0.035,0.39,0.987,-2.38,-14.16,9.83,0,1
14833.718,-0.04,0.377,0.975,0.85,-15.56,11.96,0,1
14833.718,-0.059,0.379,0.965,4.27,-15.41,13.55,0,1
14833.734,-0.079,0.391,0.961,5.86,-14.22,13.61,0,1
14833.75,-0.105,0.397,0.962,5.46,-12.91,13.46,0,1
14833.75,-0.145,0.422,0.97,3.42,-11.75,13.64,0,1
14833.765,-0.167,0.445,0.982,-0.09,-11.47,13.28,0,1
14833.781,-0.19,0.437,0.992,-2.96,-12.27,13.92,0,1
14833.781,-0.203,0.429,0.999,-3.85,-13.21,16.54,0,1
14833.796,-0.2,0.433,1.006,-2.69,-13.49,18.83,0,1
14833.812,-0.189,0.437,1.017,-1.25,-13.21,20.54,0,1
14833.812,-0.179,0.435,1.019,0.61,-12.67,22.1,0,1
14833.828,-0.171,0.409,1.015,2.93,-12.91,24.26,0,1
14833.828,-0.166,0.396,1.007,6.41,-13.73,25.79,0,1
14833.843,-0.161,0.393,0.988,9.8,-15.11,25.85,0,1
14833.859,-0.167,0.395,0.962,11.66,-16.42,24.9,0,1
14833.859,-0.169,0.427,0.947,10.5,-15.56,21.97,0,1
14833.875,-0.156,0.42,0.933,7.02,-14.16,18.71,0,1
14833.89,-0.154,0.401,0.926,3.45,-12.02,17.7,0,1
14833.89,-0.116,0.383,0.931,2.41,-8.64,18.95,0,1
14833.906,-0.069,0.351,0.937,4.55,-4.97,21.58,0,1
14833.921,-0.057,0.332,0.942,9.19,-1.22,22.55,0,1
14833.921,-0.047,0.332,0.949,14.83,1.22,21.7,0,1
14833.937,-0.032,0.354,0.934,21.09,1.5,19.71,0,1
14833.953,-0.04,0.386,0.905,26.25,-0.06,16.97,0,1
14833.953,-0.029,0.406,0.883,28.41,-4.09,15.11,0,1
14833.968,-0.002,0.409,0.852,29.18,-9.64,15.29,0,1
14833.984,0.016,0.399,0.833,28.35,-13.09,17.79,0,1
14833.984,0.051,0.355,0.835,24.99,-13.55,21.42,0,1
14834.0,0.085,0.321,0.842,20.39,-11.96,22.77,0,1
14834.0,0.103,0.289,0.855,16.24,-9.16,20.33,0,1
14834.015,0.14,0.251,0.871,13.76,-6.96,16.45,0,1
14834.031,0.15,0.234,0.887,14.34,-6.04,12.42,0,1
14834.031,0.168,0.209,0.895,18.1,-8.06,10.96,0,1
14834.046,0.209,0.22,0.889,25.15,-11.9,10.25,0,1
14834.062,0.201,0.218,0.872,33.42,-15.05,9.55,0,1
14834.062,0.229,0.196,0.877,39.31,-14.65,11.63,0,1
14834.078,0.262,0.214,0.9,43.82,-10.47,11.6,0,1
14834.093,0.297,0.207,0.898,48.92,-6.65,9.34,0,1
14834.093,0.319,0.206,0.893,51.85,-3.14,6.41,0,1
14834.109,0.34,0.233,0.906,50.81,0.85,3.72,0,1
14834.109,0.371,0.24,0.912,47.64,2.66,0.49,0,1
14834.125,0.391,0.26,0.907,42.18,1.07,-3.97,0,1
14834.14,0.417,0.278,0.895,36.96,-2.53,-7.81,0,1
14834.14,0.442,0.301,0.878,33.42,-6.9,-9.92,0,1
14834.156,0.473,0.333,0.857,31.43,-10.28,-11.2,0,1
14834.171,0.469,0.338,0.829,31.16,-12.45,-10.77,0,1
14834.171,0.464,0.361,0.816,30.3,-11.2,-9.43,0,1
14834.187,0.452,0.365,0.829,28.08,-4.46,-7.2,0,1
14834.203,0.456,0.341,0.876,21.82,6.84,-3.54,0,1
14834.203,0.465,0.328,0.92,15.29,19.17,-3.23,0,1
14834.218,0.462,0.316,0.939,10.9,29.76,-5.77,0,1
14834.218,0.434,0.324,0.961,8.21,37.87,-9.49,0,1
14834.234,0.409,0.328,0.985,4.33,40.53,-11.35,0,1
14834.25,0.403,0.372,0.997,0.27,36.87,-13.43,0,1
14834.25,0.359,0.388,0.974,-3.91,28.72,-15.63,0,1
14834.265,0.343,0.408,0.967,-10.5,18.31,-15.05,0,1
14834.281,0.312,0.43,0.954,-16.14,7.14,-15.17,0,1
14834.281,0.279,0.43,0.935,-21.03,-3.91,-15.08,0,1
14834.296,0.265,0.449,0.908,-24.54,-13.12,-16.08,0,1
14834.312,0.226,0.453,0.887,-27.44,-18.71,-17.79,0,1
14834.312,0.209,0.438,0.875,-31.13,-21.0,-18.07,0,1
14834.328,0.188,0.402,0.871,-33.54,-20.78,-16.02,0,1
14834.328,0.197,0.389,0.881,-31.92,-18.25,-13.0,0,1
14834.343,0.192,0.382,0.879,-26.37,-14.98,-11.96,0,1
14834.359,0.177,0.361,0.889,-20.29,-12.27,-10.47,0,1
14834.375,0.162,0.333,0.892,-12.73,-12.39,-7.6,0,1
14834.375,0.222,0.33,0.88,-4.15,-16.94,-1.86,0,1
14834.39,0.206,0.382,0.839,7.6,-18.43,-1.71,0,1
14834.39,0.177,0.342,0.803,11.08,-21.67,-1.56,0,1
14834.406,0.227,0.329,0.785,8.73,-25.09,1.28,0,1
14834.421,0.239,0.355,0.762,9.4,-25.51,1.59,0,1
14834.421,0.255,0.36,0.743,9.19,-25.09,-0.85,0,1
14834.437,0.251,0.37,0.729,6.41,-21.82,-5.28,0,1
14834.453,0.226,0.364,0.731,1.04,-17.37,-7.81,0,1
14834.453,0.241,0.381,0.754,-3.78,-13.37,-9.28,0,1
14834.468,0.233,0.381,0.77,-5.28,-9.34,-9.64,0,1
14834.468,0.238,0.366,0.793,-5.01,-6.1,-7.9,0,1
14834.484,0.246,0.368,0.805,-2.08,-3.69,-6.29,0,1
14834.5,0.231,0.366,0.815,2.69,-1.71,-4.94,0,1
14834.5,0.237,0.374,0.823,7.02,-0.03,-3.66,0,1
14834.515,0.231,0.369,0.822,10.99,1.92,-2.38,0,1
14834.531,0.226,0.387,0.829,13.25,4.09,-1.92,0,1
14834.531,0.225,0.384,0.838,14.25,6.35,-0.98,0,1
14834.546,0.226,0.386,0.847,14.22,8.51,0.03,0,1
14834.562,0.232,0.4,0.854,14.28,10.28,0.64,0,1
14834.562,0.237,0.409,0.861,13.7,11.38,0.31,0,1
14834.578,0.235,0.424,0.869,12.76,11.66,-1.1,0,1
14834.593,0.227,0.412,0.877,11.14,10.56,-1.1,0,1
14834.593,0.232,0.436,0.884,9.06,8.79,-1.71,0,1
14834.609,0.221,0.443,0.885,6.78,6.44,-2.93,0,1
14834.609,0.218,0.437,0.888,4.15,3.81,-3.72,0,1
14834.625,0.216,0.453,0.899,2.04,1.98,-4.43,0,1
14834.64,0.195,0.451,0.901,0.67,0.15,-4.85,0,1
14834.64,0.199,0.444,0.903,-0.49,-2.11,-4.06,0,1
14834.656,0.193,0.457,0.905,1.98,-5.37,-2.99,0,1
14834.671,0.183,0.459,0.9,2.53,-6.99,-2.47,0,1
14834.671,0.183,0.461,0.893,3.17,-8.03,-1.8,0,1
14834.687,0.175,0.468,0.886,3.33,-8.51,-1.28,0,1
14834.703,0.164,0.473,0.876,2.93,-8.85,-0.89,0,1
14834.703,0.158,0.474,0.87,2.44,-8.94,-0.18,0,1
14834.718,0.161,0.472,0.869,2.14,-8.73,0.24,0,1
14834.718,0.16,0.461,0.865,2.41,-8.3,0.73,0,1
14834.734,0.161,0.457,0.866,3.63,-7.54,1.53,0,1
14834.75,0.166,0.46,0.862,5.22,-6.71,2.11,0,1
14834.75,0.172,0.452,0.857,6.29,-5.8,2.59,0,1
14834.765,0.173,0.446,0.856,7.29,-4.82,2.99,0,1
14834.781,0.175,0.451,0.857,8.03,-3.91,2.87,0,1
14834.781,0.176,0.451,0.858,7.72,-3.45,2.2,0,1
14834.796,0.173,0.448,0.856,6.44,-3.36,1.65,0,1
14834.812,0.169,0.449,0.86,5.31,-3.57,1.04,0,1
14834.812,0.174,0.451,0.861,4.39,-3.72,-0.12,0,1
14834.828,0.163,0.438,0.859,3.05,-4.36,-1.07,0,1
14834.828,0.17,0.445,0.863,2.17,-4.79,-1.62,0,1
14834.843,0.165,0.452,0.86,2.66,-4.3,-2.96,0,1
14834.859,0.158,0.446,0.86,1.65,-4.21,-4.24,0,1
14834.859,0.162,0.449,0.86,0.7,-4.18,-5.28,0,1
14834.875,0.156,0.457,0.863,0.52,-4.0,-6.2,0,1
14834.89,0.159,0.465,0.864,0.03,-4.03,-6.78,0,1
14834.89,0.149,0.478,0.865,-1.22,-3.85,-7.57,0,1
14834.906,0.146,0.484,0.871,-2.99,-4.12,-8.06,0,1
14834.921,0.142,0.489,0.877,-4.46,-4.73,-7.75,0,1
14834.921,0.141,0.492,0.879,-5.19,-5.49,-6.93,0,1
14834.937,0.142,0.488,0.88,-5.1,-6.04,-6.04,0,1
14834.937,0.143,0.485,0.879,-4.18,-6.01,-4.91,0,1
14834.953,0.146,0.489,0.874,-2.84,-5.52,-4.09,0,1
14834.968,0.142,0.494,0.869,-1.5,-4.55,-3.54,0,1
14834.968,0.143,0.496,0.864,-1.07,-3.42,-2.9,0,1
14834.984,0.145,0.5,0.86,-1.22,-2.11,-1.95,0,1
14835.0,0.146,0.504,0.862,-1.43,-0.95,-0.89,0,1
14835.0,0.145,0.505,0.864,-1.43,-0.06,0.03,0,1
14835.015,0.142,0.507,0.865,-1.56,0.58,0.92,0,1
14835.031,0.142,0.506,0.866,-1.8,0.92,1.92,0,1
14835.031,0.143,0.504,0.871,-1.89,1.22,3.11,0,1
14835.046,0.145,0.5,0.872,-1.74,1.31,4.36,0,1
14835.046,0.147,0.495,0.871,-1.28,1.34,5.4,0,1
14835.062,0.148,0.495,0.871,-1.13,1.25,6.07,0,1
14835.078,0.149,0.492,0.869,-1.43,1.31,6.35,0,1
14835.078,0.148,0.485,0.87,-1.92,1.83,7.08,0,1
14835.093,0.148,0.475,0.873,-1.95,2.47,7.81,0,1
14835.109,0.151,0.465,0.874,-1.59,3.02,8.85,0,1
14835.109,0.16,0.462,0.876,-0.7,3.54,9.92,0,1
14835.125,0.158,0.459,0.876,0.67,4.61,10.16,0,1
14835.14,0.155,0.452,0.87,1.13,5.68,10.16,0,1
14835.14,0.158,0.457,0.87,0.49,6.68,9.95,0,1
14835.156,0.161,0.451,0.873,-0.21,7.17,10.07,0,1
14835.171,0.158,0.446,0.873,-0.52,7.35,10.32,0,1
14835.171,0.161,0.444,0.872,-0.46,7.32,10.13,0,1
14835.187,0.158,0.438,0.871,-0.4,7.14,9.89,0,1
14835.203,0.162,0.439,0.869,-0.7,6.87,9.09,0,1
14835.203,0.155,0.433,0.864,-1.53,6.53,8.18,0,1
14835.218,0.161,0.431,0.865,-2.78,6.32,7.29,0,1
14835.218,0.156,0.427,0.864,-3.66,6.74,6.65,0,1
14835.234,0.163,0.421,0.869,-4.21,7.48,6.04,0,1
14835.25,0.164,0.42,0.869,-3.75,8.45,5.04,0,1
14835.25,0.163,0.416,0.867,-3.11,9.46,4.27,0,1
14835.265,0.165,0.415,0.868,-2.29,10.28,4.0,0,1
14835.281,0.16,0.421,0.866,-0.92,10.77,4.0,0,1
14835.281,0.16,0.421,0.862,0.12,10.59,4.36,0,1
14835.296,0.159,0.423,0.86,0.67,10.25,4.46,0,1
14835.312,0.155,0.422,0.86,0.73,10.22,4.46,0,1
14835.312,0.162,0.408,0.864,0.76,10.1,4.79,0,1
14835.328,0.162,0.406,0.863,1.4,9.89,4.79,0,1
14835.328,0.167,0.405,0.861,1.77,9.67,4.21,0,1
14835.343,0.174,0.391,0.856,1.68,10.01,3.3,0,1
14835.359,0.176,0.381,0.85,1.86,10.62,2.78,0,1
14835.359,0.172,0.378,0.846,2.11,11.26,2.29,0,1
14835.375,0.177,0.381,0.846,1.77,12.05,1.53,0,1
14835.39,0.164,0.386,0.843,0.79,13.7,-0.49,0,1
14835.39,0.152,0.387,0.849,-1.62,15.17,-2.69,0,1
14835.406,0.143,0.413,0.855,-4.43,16.42,-6.47,0,1
14835.421,0.124,0.414,0.861,-8.21,17.43,-9.86,0,1
14835.421,0.113,0.435,0.875,-12.3,17.98,-12.91,0,1
14835.437,0.105,0.443,0.893,-15.05,17.91,-14.86,0,1
14835.453,0.098,0.449,0.907,-16.24,16.17,-15.14,0,1
14835.453,0.095,0.459,0.917,-15.05,14.19,-14.5,0,1
14835.468,0.075,0.461,0.93,-13.37,11.14,-12.82,0,1
14835.468,0.075,0.47,0.934,-11.11,7.84,-10.8,0,1
14835.484,0.069,0.47,0.934,-9.0,5.19,-8.97,0,1
14835.5,0.071,0.475,0.933,-7.17,2.75,-7.14,0,1
14835.5,0.073,0.469,0.928,-5.52,0.92,-4.85,0,1
14835.515,0.079,0.464,0.924,-4.33,-0.21,-2.66,0,1
14835.531,0.09,0.46,0.921,-3.94,-1.16,-0.64,0,1
14835.531,0.093,0.461,0.918,-4.55,-2.32,0.95,0,1
14835.546,0.11,0.462,0.915,-7.51,-4.7,1.65,0,1
14835.546,0.103,0.442,0.915,-11.72,-8.18,2.08,0,1
14835.562,0.116,0.431,0.924,-15.02,-11.93,2.62,0,1
14835.578,0.121,0.411,0.924,-15.93,-14.92,3.11,0,1
14835.593,0.124,0.395,0.919,-14.44,-16.72,3.91,0,1
14835.593,0.134,0.385,0.913,-11.26,-17.33,5.07,0,1
14835.609,0.141,0.38,0.902,-8.51,-17.43,5.68,0,1
14835.609,0.152,0.38,0.89,-7.97,-17.37,4.79,0,1
14835.625,0.162,0.388,0.88,-10.99,-17.64,2.17,0,1
14835.64,0.164,0.394,0.873,-22.34,-17.55,-6.29,0,1
14835.64,0.161,0.377,0.871,-27.13,-16.79,-9.43,0,1
14835.656,0.161,0.369,0.877,-28.93,-15.17,-11.72,0,1
14835.671,0.156,0.361,0.882,-27.8,-12.94,-12.73,0,1
14835.671,0.151,0.355,0.888,-24.14,-9.92,-12.51,0,1
14835.687,0.141,0.366,0.892,-18.71,-6.35,-11.23,0,1
14835.703,0.134,0.376,0.892,-12.88,-3.14,-8.58,0,1
14835.703,0.13,0.388,0.892,-7.35,-0.09,-5.37,0,1
14835.718,0.124,0.397,0.89,-2.62,2.96,-2.56,0,1
14835.718,0.124,0.407,0.891,0.67,5.4,-0.58,0,1
14835.734,0.121,0.414,0.892,2.17,6.74,0.7,0,1
14835.75,0.121,0.42,0.892,1.83,7.11,1.34,0,1
14835.75,0.123,0.421,0.89,-0.15,6.71,0.92,0,1
14835.765,0.122,0.418,0.891,-3.17,5.68,-0.15,0,1
14835.781,0.127,0.405,0.898,-6.32,4.39,-1.04,0,1
14835.781,0.131,0.392,0.903,-8.51,3.33,-1.53,0,1
14835.796,0.136,0.382,0.902,-9.28,2.38,-1.43,0,1
14835.812,0.135,0.375,0.903,-7.97,2.59,-0.76,0,1
14835.812,0.134,0.369,0.906,-5.68,3.72,0.21,0,1
14835.828,0.13,0.367,0.907,-2.69,5.46,1.19,0,1
14835.843,0.126,0.365,0.907,0.37,7.72,2.14,0,1
14835.843,0.127,0.359,0.903,3.02,10.1,2.87,0,1
14835.859,0.124,0.37,0.907,4.55,12.05,2.78,0,1
14835.859,0.127,0.369,0.902,5.04,13.15,2.29,0,1
14835.875,0.125,0.373,0.903,3.33,13.52,1.46,0,1
14835.89,0.122,0.371,0.905,1.1,13.06,0.21,0,1
14835.89,0.121,0.372,0.91,-1.98,12.33,-1.37,0,1
14835.906,0.118,0.366,0.916,-5.28,11.47,-2.78,0,1
14835.921,0.111,0.357,0.925,-7.02,10.47,-3.54,0,1
14835.921,0.109,0.354,0.933,-6.9,9.67,-3.57,0,1
14835.937,0.104,0.355,0.934,-5.28,8.64,-3.02,0,1
14835.953,0.101,0.359,0.936,-3.05,7.93,-2.26,0,1
14835.953,0.101,0.365,0.931,-1.1,7.32,-1.83,0,1
14835.968,0.1,0.373,0.922,0.37,6.93,-1.5,0,1
14835.968,0.091,0.381,0.919,0.64,6.93,-1.4,0,1
14835.984,0.091,0.385,0.916,-0.31,7.08,-1.65,0,1
14836.0,0.09,0.382,0.917,-1.8,7.05,-1.92,0,1
14836.015,0.091,0.376,0.92,-3.23,6.93,-2.17,0,1
14836.015,0.086,0.375,0.925,-3.81,6.47,-2.35,0,1
14836.031,0.084,0.372,0.928,-3.69,5.62,-2.2,0,1
14836.031,0.084,0.369,0.932,-2.96,4.67,-1.53,0,1
14836.046,0.084,0.369,0.933,-1.71,3.57,-0.49,0,1
14836.062,0.086,0.37,0.93,-0.46,2.41,0.4,0,1
14836.062,0.087,0.371,0.925,0.43,1.43,1.16,0,1
14836.078,0.089,0.37,0.919,0.89,0.79,1.53,0,1
14836.078,0.085,0.374,0.919,0.55,0.46,1.34,0,1
14836.093,0.085,0.372,0.917,-0.43,0.18,0.95,0,1
14836.109,0.085,0.371,0.918,-1.65,-0.21,0.43,0,1
14836.109,0.083,0.369,0.919,-2.44,-0.4,0.0,0,1
14836.125,0.083,0.368,0.922,-2.96,-0.73,-0.18,0,1
14836.14,0.084,0.364,0.921,-2.87,-0.85,-0.18,0,1
14836.14,0.083,0.365,0.924,-1.77,-0.43,0.21,0,1
14836.156,0.081,0.369,0.925,-0.49,0.0,0.73,0,1
14836.171,0.082,0.368,0.924,0.82,0.4,1.5,0,1
14836.171,0.083,0.367,0.922,1.8,0.52,2.04,0,1
14836.187,0.081,0.372,0.918,2.14,0.03,2.23,0,1
14836.203,0.084,0.376,0.917,1.8,-0.18,1.86,0,1
14836.203,0.083,0.365,0.916,1.04,-0.67,1.74,0,1
14836.218,0.085,0.364,0.918,0.31,-0.92,1.59,0,1
14836.218,0.089,0.362,0.915,-0.27,-1.31,0.89,0,1
14836.234,0.097,0.355,0.913,-0.79,-1.68,0.46,0,1
14836.25,0.098,0.354,0.911,-1.22,-1.68,-0.24,0,1
14836.25,0.091,0.362,0.911,-1.53,-1.4,-1.37,0,1
14836.265,0.089,0.363,0.911,-2.38,-1.04,-2.14,0,1
14836.281,0.085,0.362,0.914,-2.96,-0.55,-2.26,0,1
14836.281,0.078,0.362,0.92,-2.62,-0.18,-1.8,0,1
14836.296,0.08,0.366,0.923,-1.8,0.37,-1.4,0,1
14836.312,0.082,0.365,0.922,-0.67,0.92,-0.92,0,1
14836.312,0.081,0.367,0.924,0.18,1.34,-0.31,0,1
14836.328,0.08,0.371,0.925,0.7,1.59,-0.27,0,1
14836.343,0.08,0.375,0.928,0.82,1.53,-0.52,0,1
14836.343,0.076,0.377,0.932,0.15,1.25,-0.7,0,1
14836.359,0.078,0.374,0.934,-0.82,0.82,-0.82,0,1
14836.359,0.076,0.374,0.939,-1.43,0.31,-1.01,0,1
14836.375,0.077,0.376,0.939,-1.8,-0.73,-1.22,0,1
14836.39,0.079,0.376,0.937,-2.5,-1.86,-1.37,0,1
14836.39,0.078,0.377,0.936,-2.9,-2.78,-1.16,0,1
14836.406,0.079,0.376,0.936,-2.87,-3.08,-0.92,0,1
14836.421,0.08,0.374,0.937,-2.62,-2.87,-0.52,0,1
14836.437,0.077,0.373,0.934,-2.38,-2.38,-0.18,0,1
14836.437,0.073,0.378,0.935,-1.77,-1.8,0.15,0,1
14836.453,0.074,0.382,0.935,-1.04,-1.37,0.37,0,1
14836.468,0.076,0.389,0.93,-0.98,-1.4,0.24,0,1
14836.484,0.077,0.387,0.925,-1.62,-1.92,0.31,0,1
14836.5,0.083,0.386,0.924,-2.78,-2.9,0.55,0,1
14836.515,0.083,0.383,0.919,-3.69,-4.09,0.43,0,1
14836.515,0.085,0.375,0.918,-4.76,-4.88,0.18,0,1
14836.531,0.09,0.366,0.918,-5.25,-4.97,0.06,0,1
14836.531,0.091,0.36,0.918,-4.7,-4.36,0.37,0,1
14836.546,0.097,0.361,0.918,-3.05,-3.42,1.13,0,1
14836.578,0.093,0.365,0.915,-1.04,-2.32,1.71,0,1
14836.593,0.091,0.37,0.912,0.09,-1.68,2.04,0,1
14836.593,0.094,0.372,0.909,0.4,-1.28,2.2,0,1
14836.609,0.103,0.369,0.907,-0.12,-1.4,2.75,0,1
14836.625,0.116,0.368,0.905,-0.95,-1.74,2.78,0,1
14836.625,0.126,0.361,0.902,-1.98,-1.95,2.14,0,1
14836.64,0.146,0.351,0.9,-3.27,-1.89,1.37,0,1
14836.64,0.17,0.34,0.899,-3.94,-0.92,0.4,0,1
14836.64,0.186,0.332,0.901,-3.97,1.65,-0.67,0,1
14836.656,0.191,0.329,0.906,-3.72,2.29,-1.25,0,1
14836.671,0.195,0.321,0.904,-3.69,2.53,-2.04,0,1
14836.687,0.197,0.317,0.901,-4.55,2.26,-2.69,0,1
14836.687,0.208,0.301,0.891,-5.86,1.77,-3.11,0,1
14836.703,0.211,0.292,0.884,-6.84,1.34,-3.57,0,1
14836.703,0.203,0.302,0.884,-9.0,1.16,-5.31,0,1
14836.703,0.202,0.299,0.882,-12.67,0.61,-8.3,0,1
14836.703,0.203,0.286,0.883,-16.08,-0.27,-10.53,0,1
14836.718,0.187,0.293,0.884,-17.82,-0.85,-11.47,0,1
14836.718,0.168,0.312,0.889,-18.62,-0.82,-12.33,0,1
14836.734,0.154,0.318,0.894,-19.29,-0.18,-12.97,0,1
14836.734,0.131,0.333,0.901,-19.84,0.7,-12.67,0,1
14836.75,0.107,0.35,0.913,-20.02,1.56,-11.81,0,1
14836.75,0.091,0.356,0.925,-20.48,1.71,-10.5,0,1
14836.765,0.071,0.357,0.935,-21.27,1.5,-9.03,0,1
14836.781,0.065,0.353,0.948,-21.94,0.82,-7.84,0,1
14836.796,0.066,0.337,0.957,-21.91,-0.46,-6.47,0,1
14836.796,0.067,0.329,0.963,-20.84,-1.43,-5.22,0,1
14836.796,0.075,0.317,0.963,-19.56,-2.66,-4.39,0,1
14836.812,0.081,0.297,0.957,-18.37,-3.72,-3.91,0,1
14836.828,0.085,0.286,0.95,-17.21,-4.46,-3.42,0,1
14836.828,0.077,0.291,0.943,-16.75,-4.52,-3.69,0,1
14836.843,0.068,0.292,0.938,-18.43,-4.24,-4.94,0,1
14836.859,0.044,0.292,0.944,-22.31,-3.45,-6.2,0,1
14836.859,0.024,0.301,0.965,-26.86,-2.11,-7.32,0,1
14836.875,0.013,0.288,0.987,-30.73,-0.79,-7.87,0,1
14836.89,0.019,0.264,1.012,-32.32,-0.27,-7.81,0,1
14836.89,0.035,0.237,1.026,-29.69,-0.46,-6.81,0,1
14836.906,0.051,0.215,1.03,-23.32,-1.68,-4.61,0,1
14836.921,0.072,0.206,1.02,-14.92,-3.17,-2.56,0,1
14836.921,0.083,0.21,0.995,-6.65,-4.3,-0.76,0,1
14836.937,0.1,0.222,0.97,-1.25,-5.01,0.27,0,1
14836.953,0.095,0.249,0.946,0.18,-4.88,-0.21,0,1
14836.953,0.086,0.279,0.937,-3.42,-4.18,-2.47,0,1
14836.968,0.08,0.298,0.939,-11.32,-3.23,-5.86,0,1
14836.968,0.064,0.299,0.954,-19.93,-2.41,-9.0,0,1
14836.984,0.06,0.298,0.976,-26.7,-1.65,-11.14,0,1
14837.0,0.065,0.281,0.997,-29.66,-0.98,-11.75,0,1
14837.0,0.067,0.259,1.018,-28.02,-0.4,-10.19,0,1
14837.015,0.082,0.245,1.036,-22.43,-0.21,-6.74,0,1
14837.031,0.089,0.232,1.041,-13.79,-0.37,-2.01,0,1
14837.031,0.092,0.236,1.031,-4.21,-0.58,2.84,0,1
14837.046,0.107,0.25,1.018,2.75,-0.85,6.16,0,1
14837.062,0.121,0.256,1.001,5.28,-1.83,7.57,0,1
14837.062,0.119,0.265,0.983,3.85,-3.02,7.42,0,1
14837.078,0.123,0.261,0.97,-0.06,-5.16,6.62,0,1
14837.093,0.118,0.25,0.964,-4.7,-7.35,5.89,0,1
14837.093,0.099,0.25,0.956,-8.51,-8.73,5.16,0,1
14837.109,0.083,0.252,0.951,-11.2,-8.67,5.1,0,1
14837.109,0.081,0.254,0.944,-12.94,-6.26,6.81,0,1
14837.125,0.064,0.256,0.943,-13.49,-1.8,10.93,0,1
14837.14,0.066,0.253,0.954,-12.15,3.11,15.35,0,1
14837.14,0.077,0.23,0.972,-6.68,7.39,18.77,0,1
14837.156,0.069,0.214,0.981,2.29,10.65,22.34,0,1
14837.171,0.062,0.232,0.978,11.38,13.12,24.32,0,1
14837.171,0.066,0.244,0.983,15.78,13.52,22.86,0,1
14837.187,0.057,0.249,0.978,15.23,11.9,19.68,0,1
14837.187,0.038,0.27,0.974,11.14,8.55,16.21,0,1
14837.203,0.046,0.279,0.972,2.81,2.99,11.99,0,1
14837.218,0.033,0.269,0.968,-6.53,-3.33,8.0,0,1
14837.218,0.023,0.264,0.973,-14.59,-8.94,5.07,0,1
14837.234,0.043,0.248,0.978,-19.44,-13.09,3.14,0,1
14837.25,0.06,0.22,0.98,-19.47,-14.83,3.17,0,1
14837.25,0.077,0.197,0.977,-14.44,-14.89,5.16,0,1
14837.265,0.104,0.178,0.967,-5.49,-14.07,8.0,0,1
14837.281,0.112,0.169,0.947,5.25,-12.73,11.38,0,1
14837.296,0.085,0.2,0.925,13.89,-10.25,13.25,0,1
14837.296,0.086,0.236,0.907,15.99,-7.32,11.63,0,1
14837.312,0.075,0.25,0.905,11.57,-4.39,8.21,0,1
14837.312,0.068,0.264,0.918,3.69,-2.17,4.43,0,1
14837.328,0.065,0.267,0.939,-4.21,-0.61,0.61,0,1
14837.343,0.072,0.257,0.963,-10.96,-1.1,-1.83,0,1
14837.343,0.083,0.251,0.981,-13.43,-2.38,-3.05,0,1
14837.359,0.089,0.234,0.986,-11.75,-3.6,-2.47,0,1
14837.375,0.114,0.222,0.987,-7.93,-5.16,-0.03,0,1
14837.375,0.121,0.214,0.975,-1.59,-5.68,2.9,0,1
14837.39,0.121,0.206,0.96,4.46,-5.4,6.2,0,1
14837.39,0.13,0.209,0.947,8.67,-4.36,8.33,0,1
14837.406,0.11,0.213,0.937,10.28,-2.9,8.94,0,1
14837.421,0.113,0.232,0.939,8.18,-1.07,7.2,0,1
14837.421,0.118,0.239,0.942,4.12,1.19,3.05,0,1
14837.437,0.125,0.223,0.95,-1.34,2.5,-0.31,0,1
14837.453,0.135,0.226,0.963,-4.73,3.27,-2.75,0,1
14837.453,0.136,0.225,0.968,-5.46,2.69,-3.78,0,1
14837.468,0.129,0.229,0.967,-5.43,1.34,-3.2,0,1
14837.484,0.121,0.238,0.963,-4.43,0.06,-1.37,0,1
14837.484,0.118,0.229,0.962,-2.56,-1.62,1.37,0,1
14837.5,0.109,0.229,0.958,0.4,-2.93,3.69,0,1
14837.5,0.112,0.23,0.955,2.96,-3.39,4.91,0,1
14837.515,0.125,0.221,0.952,3.97,-3.51,5.1,0,1
14837.531,0.131,0.208,0.952,4.97,-3.42,5.04,0,1
14837.531,0.13,0.202,0.944,6.13,-3.11,5.1,0,1
14837.546,0.112,0.22,0.938,6.5,-1.74,3.75,0,1
14837.562,0.098,0.238,0.933,3.91,-0.34,1.53,0,1
14837.562,0.089,0.244,0.936,-0.31,0.95,-0.46,0,1
14837.578,0.076,0.241,0.949,-3.78,2.38,-1.4,0,1
14837.578,0.084,0.237,0.96,-6.1,3.11,-0.82,0,1
14837.593,0.088,0.238,0.966,-3.97,3.72,2.87,0,1
14837.609,0.085,0.253,0.973,-0.49,4.79,3.85,0,1
14837.609,0.078,0.276,0.982,2.01,4.61,4.79,0,1
14837.625,0.081,0.275,0.985,4.46,3.97,6.62,0,1
14837.64,0.092,0.263,0.97,6.1,2.93,9.34,0,1
14837.64,0.12,0.246,0.964,6.62,1.68,12.02,0,1
14837.656,0.112,0.229,0.952,7.6,1.01,13.12,0,1
14837.671,0.1,0.234,0.949,7.11,0.34,12.73,0,1
14837.671,0.095,0.249,0.945,4.73,0.18,9.92,0,1
14837.687,0.083,0.243,0.947,0.64,0.37,6.32,0,1
14837.687,0.078,0.255,0.958,-3.69,0.82,3.2,0,1
14837.703,0.065,0.257,0.968,-6.87,1.04,1.43,0,1
14837.718,0.072,0.257,0.977,-8.82,0.98,0.89,0,1
14837.718,0.054,0.24,0.984,-8.48,0.95,1.98,0,1
14837.734,0.056,0.238,1.004,-5.46,0.95,4.39,0,1
14837.75,0.049,0.231,1.0,-0.18,0.85,6.81,0,1
14837.75,0.062,0.215,0.997,5.22,0.55,9.55,0,1
14837.765,0.074,0.202,0.989,10.62,0.4,11.78,0,1
14837.781,0.103,0.19,0.98,14.5,-0.37,13.28,0,1
14837.781,0.119,0.186,0.961,16.48,-0.95,12.85,0,1
14837.796,0.121,0.197,0.946,15.14,-0.89,10.53,0,1
14837.812,0.125,0.208,0.943,10.41,-0.73,6.99,0,1
14837.812,0.126,0.205,0.946,4.21,-1.59,3.6,0,1
14837.828,0.122,0.195,0.953,-0.73,-3.48,1.28,0,1
14837.843,0.128,0.187,0.96,-3.05,-6.13,0.67,0,1
14837.843,0.119,0.2,0.959,-2.75,-7.57,-0.34,0,1
14837.859,0.12,0.204,0.962,-2.47,-8.42,-1.62,0,1
14837.859,0.131,0.223,0.961,-1.56,-8.45,-2.87,0,1
14837.875,0.103,0.241,0.958,-0.85,-7.02,-2.75,0,1
14837.89,0.107,0.269,0.97,-2.14,-5.52,-2.53,0,1
14837.89,0.111,0.275,0.976,-3.6,-3.78,-3.3,0,1
14837.906,0.112,0.258,0.986,-4.85,-2.99,-3.54,0,1
14837.921,0.127,0.259,0.989,-4.79,-3.05,-3.33,0,1
14837.921,0.138,0.236,0.981,-2.96,-3.85,-2.81,0,1
14837.937,0.156,0.226,0.971,-0.27,-4.79,-1.86,0,1
14837.953,0.161,0.239,0.961,2.72,-4.85,-1.25,0,1
14837.953,0.165,0.233,0.947,4.36,-4.58,-0.64,0,1
14837.968,0.148,0.233,0.938,4.94,-4.03,0.27,0,1
14837.968,0.131,0.25,0.94,4.49,-2.47,-0.03,0,1
14837.984,0.124,0.25,0.938,2.08,-0.95,-1.22,0,1
14838.0,0.114,0.249,0.93,-0.15,0.7,-2.14,0,1
14838.0,0.106,0.26,0.926,-1.13,4.21,-3.33,0,1
14838.015,0.098,0.261,0.934,-2.41,8.0,-4.64,0,1
14838.031,0.075,0.275,0.946,-3.02,11.44,-6.32,0,1
14838.031,0.055,0.311,0.972,-4.43,13.34,-6.56,0,1
14838.046,0.036,0.314,1.004,-7.08,10.77,-4.82,0,1
14838.062,0.033,0.301,1.016,-9.25,4.43,-2.38,0,1
14838.062,0.038,0.279,1.018,-8.97,-2.93,0.95,0,1
14838.078,0.045,0.261,1.012,-6.84,-9.4,3.94,0,1
14838.078,0.072,0.243,0.995,-3.66,-14.22,6.16,0,1
14838.093,0.091,0.229,0.971,0.58,-16.48,7.57,0,1
14838.109,0.095,0.233,0.947,4.3,-15.81,7.84,0,1
14838.109,0.1,0.237,0.925,5.89,-12.67,6.26,0,1
14838.125,0.102,0.232,0.911,4.58,-8.7,4.3,0,1
14838.14,0.107,0.234,0.908,2.66,-5.04,3.02,0,1
14838.156,0.104,0.235,0.913,0.73,-1.07,2.44,0,1
14838.156,0.099,0.228,0.924,-1.46,1.86,2.78,0,1
14838.171,0.095,0.227,0.94,-2.23,3.33,3.42,0,1
14838.171,0.085,0.228,0.949,-1.43,4.15,3.54,0,1
14838.187,0.076,0.237,0.954,-1.34,4.3,2.53,0,1
14838.187,0.071,0.241,0.954,-2.08,3.91,0.89,0,1
14838.203,0.069,0.227,0.955,-3.23,3.3,0.43,0,1
14838.218,0.082,0.218,0.958,-2.81,3.02,1.1,0,1
14838.218,0.089,0.2,0.959,-1.13,3.36,1.4,0,1
14838.234,0.086,0.188,0.957,1.13,3.66,1.31,0,1
14838.25,0.088,0.204,0.955,3.3,4.09,0.43,0,1
14838.25,0.079,0.202,0.95,4.18,4.88,-1.04,0,1
14838.265,0.084,0.203,0.953,3.48,4.94,-1.89,0,1
14838.281,0.09,0.201,0.951,3.11,4.46,-2.9,0,1
14838.281,0.101,0.189,0.946,2.5,3.81,-3.85,0,1
14838.296,0.091,0.196,0.952,2.26,4.55,-4.82,0,1
14838.312,0.101,0.211,0.962,1.89,5.28,-5.65,0,1
14838.312,0.099,0.217,0.972,2.53,6.56,-6.26,0,1
14838.328,0.094,0.227,0.983,3.54,6.96,-6.1,0,1
14838.328,0.092,0.241,0.984,4.79,6.1,-6.01,0,1
14838.343,0.092,0.238,0.98,5.8,3.94,-4.97,0,1
14838.359,0.092,0.241,0.975,6.81,1.95,-3.88,0,1
14838.359,0.102,0.24,0.968,7.87,0.58,-3.08,0,1
14838.375,0.113,0.24,0.963,8.85,0.55,-2.44,0,1
14838.39,0.117,0.247,0.958,8.85,0.98,-2.29,0,1
14838.39,0.126,0.241,0.951,7.87,1.1,-2.14,0,1
14838.406,0.131,0.229,0.947,6.74,0.98,-2.26,0,1
14838.421,0.134,0.22,0.947,5.37,1.1,-3.36,0,1
14838.421,0.125,0.219,0.946,3.6,1.46,-4.94,0,1
14838.437,0.107,0.236,0.954,1.13,1.71,-6.71,0,1
14838.453,0.097,0.247,0.965,-1.83,1.56,-8.03,0,1
14838.453,0.088,0.249,0.971,-4.27,1.37,-8.15,0,1
14838.468,0.08,0.257,0.981,-5.71,1.22,-7.57,0,1
14838.468,0.083,0.257,0.983,-6.1,1.04,-6.99,0,1
14838.484,0.088,0.248,0.984,-5.1,1.25,-6.29,0,1
14838.5,0.086,0.242,0.983,-3.42,1.77,-5.31,0,1
14838.5,0.087,0.242,0.982,-1.5,2.23,-4.82,0,1
14838.515,0.079,0.259,0.977,-0.24,2.93,-5.22,0,1
14838.531,0.071,0.269,0.975,-0.98,3.42,-5.52,0,1
14838.531,0.068,0.267,0.975,-2.44,3.33,-5.16,0,1
14838.546,0.069,0.266,0.986,-3.72,2.44,-4.3,0,1
14838.562,0.071,0.26,0.993,-4.7,0.46,-3.33,0,1
14838.562,0.071,0.24,1.003,-4.76,-2.11,-1.8,0,1
14838.578,0.063,0.238,1.005,-4.06,-4.46,-0.43,0,1
14838.578,0.059,0.247,1.004,-5.62,-7.45,-2.04,0,1
14838.593,0.072,0.249,1.003,-6.84,-7.66,-3.14,0,1
14838.609,0.058,0.24,0.991,-8.58,-7.75,-3.2,0,1
14838.609,0.087,0.241,1.008,-7.75,-7.78,-2.87,0,1
14838.625,0.061,0.242,1.01,-5.49,-8.3,-2.08,0,1
14838.64,0.049,0.254,1.017,-5.04,-10.41,-0.21,0,1
14838.64,0.051,0.266,1.019,-4.15,-13.34,1.25,0,1
14838.656,0.044,0.255,1.016,-3.85,-17.52,3.48,0,1
14838.671,0.083,0.27,1.015,-4.36,-23.1,4.7,0,1
14838.671,0.089,0.248,0.988,-4.36,-27.47,5.46,0,1
14838.687,0.12,0.232,0.971,-5.43,-29.48,6.13,0,1
14838.703,0.132,0.226,0.958,-5.07,-27.89,5.19,0,1
14838.703,0.132,0.208,0.952,-4.82,-24.93,3.85,0,1
14838.718,0.134,0.213,0.946,-4.33,-21.42,1.98,0,1
14838.718,0.115,0.227,0.948,-4.33,-17.09,0.34,0,1
14838.734,0.115,0.231,0.953,-5.43,-13.92,-0.58,0,1
14838.75,0.113,0.235,0.958,-6.41,-11.63,-0.03,0,1
14838.75,0.12,0.236,0.966,-6.41,-10.44,0.73,0,1
14838.765,0.118,0.227,0.968,-5.71,-10.56,0.58,0,1
14838.781,0.122,0.231,0.97,-5.01,-11.75,0.79,0,1
14838.781,0.128,0.246,0.968,-4.49,-12.24,0.46,0,1
14838.796,0.125,0.239,0.956,-4.79,-12.27,-0.58,0,1
14838.812,0.132,0.231,0.95,-6.1,-11.93,-0.98,0,1
14838.812,0.139,0.217,0.942,-7.08,-11.17,-1.37,0,1
14838.828,0.15,0.207,0.936,-7.17,-10.16,-1.95,0,1
14838.828,0.15,0.201,0.928,-6.26,-8.06,-2.93,0,1
14838.843,0.141,0.197,0.92,-5.04,-5.01,-3.72,0,1
14838.859,0.141,0.216,0.92,-4.12,-1.8,-4.52,0,1
14838.859,0.12,0.237,0.92,-4.7,2.29,-5.55,0,1
14838.875,0.099,0.238,0.933,-7.6,5.49,-5.86,0,1
14838.89,0.103,0.235,0.949,-9.67,6.71,-5.34,0,1
14838.89,0.105,0.223,0.955,-8.91,7.29,-4.64,0,1
14838.906,0.101,0.208,0.957,-7.39,6.84,-3.97,0,1
14838.921,0.105,0.209,0.96,-5.68,5.98,-3.3,0,1
14838.921,0.108,0.215,0.959,-4.76,5.62,-3.14,0,1
14838.937,0.102,0.209,0.959,-5.65,5.07,-3.3,0,1
14838.937,0.108,0.198,0.963,-7.6,4.27,-3.23,0,1
14838.953,0.115,0.179,0.966,-8.03,3.81,-2.99,0,1
14838.968,0.12,0.156,0.962,-6.41,3.45,-3.02,0,1
14838.968,0.119,0.143,0.961,-3.63,3.39,-3.11,0,1
14838.984,0.127,0.146,0.956,-0.89,3.88,-3.33,0,1
14839.0,0.133,0.15,0.954,0.85,4.97,-3.91,0,1
14839.0,0.124,0.152,0.955,1.07,6.38,-4.39,0,1
14839.015,0.12,0.156,0.964,-0.64,7.9,-5.46,0,1
14839.031,0.124,0.151,0.972,-2.41,9.03,-7.05,0,1
14839.031,0.116,0.151,0.984,-3.17,9.98,-8.67,0,1
14839.046,0.108,0.167,0.99,-4.18,10.19,-10.13,0,1
14839.062,0.098,0.192,0.996,-6.2,10.1,-11.57,0,1
14839.062,0.089,0.197,1.005,-8.48,9.09,-12.39,0,1
14839.078,0.088,0.199,1.007,-9.98,7.39,-12.15,0,1
14839.093,0.098,0.187,1.0,-9.25,5.55,-11.57,0,1
14839.093,0.109,0.173,0.991,-7.2,4.64,-11.23,0,1
14839.109,0.114,0.174,0.979,-4.76,4.82,-11.14,0,1
14839.109,0.112,0.182,0.971,-2.87,6.29,-11.66,0,1
14839.125,0.111,0.196,0.962,-2.32,8.09,-12.54,0,1
14839.14,0.1,0.196,0.954,-2.56,9.49,-12.97,0,1
14839.14,0.11,0.188,0.953,-3.02,10.41,-12.73,0,1
14839.156,0.113,0.183,0.945,-2.59,11.63,-12.88,0,1
14839.171,0.105,0.182,0.942,-1.86,12.88,-13.67,0,1
14839.171,0.1,0.185,0.943,-1.56,13.82,-14.07,0,1
14839.187,0.088,0.198,0.952,-1.83,14.71,-13.46,0,1
14839.203,0.065,0.22,0.969,-2.41,15.23,-13.46,0,1
14839.203,0.045,0.228,0.975,-3.27,14.34,-13.52,0,1
14839.218,0.037,0.241,0.978,-4.18,12.67,-12.6,0,1
14839.234,0.045,0.256,0.972,-5.86,11.11,-11.47,0,1
14839.234,0.052,0.254,0.971,-9.16,10.59,-10.41,0,1
14839.25,0.053,0.244,0.975,-12.97,10.5,-9.92,0,1
14839.25,0.05,0.239,0.983,-16.27,9.77,-9.77,0,1
14839.265,0.045,0.237,0.992,-18.65,9.61,-9.8,0,1
14839.281,0.039,0.229,1.003,-20.08,9.25,-9.37,0,1
14839.281,0.036,0.211,1.009,-20.72,7.69,-7.87,0,1
14839.296,0.047,0.191,1.009,-20.54,5.4,-5.8,0,1
14839.312,0.058,0.172,1.006,-20.26,3.88,-4.33,0,1
14839.312,0.061,0.148,1.006,-19.71,3.23,-3.75,0,1
14839.328,0.068,0.125,1.006,-18.25,3.36,-3.72,0,1
14839.328,0.076,0.099,0.993,-15.99,4.15,-4.39,0,1
14839.343,0.081,0.081,0.988,-14.1,5.37,-5.37,0,1
14839.359,0.078,0.088,0.986,-12.21,6.81,-7.69,0,1
14839.375,0.062,0.103,0.978,-10.47,7.81,-10.62,0,1
14839.375,0.049,0.118,0.969,-10.28,7.75,-12.33,0,1
14839.39,0.041,0.137,0.971,-11.66,7.63,-13.12,0,1
14839.39,0.036,0.145,0.982,-13.43,8.39,-13.06,0,1
14839.406,0.031,0.144,0.998,-13.61,9.03,-12.3,0,1
14839.421,0.029,0.148,1.01,-12.09,8.73,-11.08,0,1
14839.437,0.028,0.148,1.012,-10.25,7.05,-10.04,0,1
14839.437,0.03,0.141,1.013,-9.31,4.76,-8.88,0,1
14839.437,0.043,0.135,1.006,-8.55,1.77,-7.87,0,1
14839.453,0.042,0.142,0.987,-7.93,-1.07,-7.72,0,1
14839.468,0.039,0.137,0.98,-9.13,-3.51,-7.72,0,1
14839.468,0.035,0.137,0.988,-10.59,-5.28,-7.66,0,1
14839.484,0.026,0.141,0.988,-11.11,-6.29,-8.0,0,1
14839.5,0.017,0.154,0.972,-11.66,-6.04,-9.31,0,1
14839.515,0.016,0.145,0.971,-12.3,-4.24,-9.92,0,1
14839.515,0.021,0.16,0.986,-13.09,-2.78,-10.35,0,1
14839.531,0.019,0.158,0.987,-12.45,-1.8,-10.38,0,1
14839.531,0.008,0.145,0.976,-12.09,-0.61,-9.52,0,1
14839.546,0.014,0.137,0.987,-11.75,1.04,-8.67,0,1
14839.562,-0.002,0.12,0.987,-9.95,3.08,-8.09,0,1
14839.562,-0.008,0.113,0.988,-11.11,1.71,-6.41,0,1
14839.578,0.01,0.121,0.987,-14.25,0.27,-6.16,0,1
14839.578,0.014,0.111,0.982,-18.68,-1.22,-5.83,0,1
14839.593,0.024,0.088,0.985,-22.16,-2.17,-5.55,0,1
14839.609,0.031,0.072,0.991,-22.95,-1.46,-5.65,0,1
14839.609,0.031,0.052,1.013,-21.21,0.27,-5.71,0,1
14839.625,0.016,0.037,1.027,-15.56,2.32,-5.74,0,1
14839.64,0.022,0.036,1.036,-7.6,3.48,-5.95,0,1
14839.64,0.024,0.039,1.035,0.64,4.67,-7.2,0,1
14839.656,0.026,0.037,1.027,6.9,6.04,-8.79,0,1
14839.671,0.027,0.062,1.012,10.25,7.35,-10.47,0,1
14839.671,0.013,0.087,1.006,8.79,7.69,-12.42,0,1
14839.687,0.009,0.099,1.01,2.17,6.32,-13.7,0,1
14839.687,0.009,0.108,1.01,-5.52,4.43,-14.68,0,1
14839.703,-0.004,0.094,1.019,-12.39,2.29,-15.59,0,1
14839.718,-0.007,0.08,1.029,-16.42,-0.21,-15.26,0,1
14839.734,0.001,0.07,1.028,-16.82,-2.35,-14.56,0,1
14839.734,0.017,0.068,1.021,-15.08,-3.85,-14.53,0,1
14839.75,0.022,0.073,1.011,-13.03,-4.33,-15.11,0,1
14839.75,0.014,0.079,1.005,-11.81,-4.24,-16.24,0,1
14839.765,-0.005,0.089,0.997,-10.93,-3.97,-17.09,0,1
14839.781,-0.009,0.087,0.995,-10.01,-3.27,-16.85,0,1
14839.796,-0.005,0.092,1.001,-8.76,-1.25,-15.75,0,1
14839.796,-0.006,0.091,1.006,-6.99,1.31,-14.68,0,1
14839.796,0.005,0.085,1.009,-6.2,1.62,-13.15,0,1
14839.812,0.014,0.094,1.01,-6.13,0.31,-12.05,0,1
14839.828,0.018,0.091,1.007,-7.23,-0.89,-11.57,0,1
14839.828,0.027,0.086,1.01,-10.9,-1.62,-11.69,0,1
14839.843,0.032,0.076,1.013,-13.95,-1.4,-12.79,0,1
14839.859,0.027,0.062,1.016,-14.95,-0.76,-14.13,0,1
14839.859,0.034,0.051,1.014,-13.21,-1.4,-14.8,0,1
14839.875,0.041,0.059,1.01,-8.42,-2.11,-14.74,0,1
14839.89,0.025,0.071,0.992,-2.53,-1.62,-14.53,0,1
14839.89,0.01,0.077,0.97,0.49,-1.34,-14.1,0,1
14839.906,0.008,0.09,0.952,-0.15,-2.32,-13.52,0,1
14839.921,0.002,0.082,0.94,-2.75,-3.27,-12.88,0,1
14839.937,0.014,0.082,0.932,-6.65,-3.81,-12.15,0,1
14839.937,0.012,0.093,0.939,-11.05,-2.59,-11.9,0,1
14839.953,-0.003,0.077,0.949,-14.59,-0.89,-11.44,0,1
14839.953,-0.013,0.051,0.957,-15.47,-0.09,-10.93,0,1
14839.968,-0.007,0.049,0.951,-12.73,-0.03,-10.9,0,1
14839.984,-0.01,0.054,0.941,-8.3,0.52,-10.77,0,1
14839.984,0.006,0.064,0.925,-5.37,1.37,-9.95,0,1
14840.0,0.008,0.1,0.916,-6.68,2.99,-9.06,0,1
14840.0,0.011,0.1,0.902,-11.99,5.28,-8.61,0,1
14840.015,0.021,0.089,0.92,-18.19,7.97,-7.9,0,1
14840.031,0.015,0.074,0.946,-20.94,11.6,-6.38,0,1
14840.031,0.013,0.075,0.963,-21.91,14.37,-5.68,0,1
14840.046,0.02,0.068,0.985,-20.69,16.27,-5.22,0,1
14840.062,0.011,0.052,1.009,-18.65,19.44,-3.42,0,1
14840.062,0.016,0.039,1.039,-17.49,22.52,-1.65,0,1
14840.078,-0.0,0.015,1.063,-16.88,23.47,-1.31,0,1
14840.078,0.01,0.032,1.082,-15.56,21.91,-1.43,0,1
14840.093,-0.005,0.026,1.084,-14.28,19.44,-2.87,0,1
14840.109,-0.01,0.017,1.099,-16.63,14.74,-3.75,0,1
14840.125,-0.012,0.012,1.108,-18.74,8.42,-3.85,0,1
14840.125,-0.005,-0.004,1.101,-18.46,1.95,-3.69,0,1
14840.14,-0.011,-0.008,1.079,-15.38,-2.84,-3.54,0,1
14840.14,-0.042,-0.017,1.055,-11.54,-6.07,-3.51,0,1
14840.156,-0.037,-0.025,1.026,-9.0,-9.7,-3.75,0,1
14840.171,-0.012,-0.026,0.985,-6.07,-12.12,-4.55,0,1
14840.171,-0.017,-0.015,0.948,-3.91,-11.63,-5.19,0,1
14840.187,-0.021,0.001,0.936,-4.91,-9.37,-5.4,0,1
14840.203,-0.034,0.002,0.949,-7.63,-7.02,-5.28,0,1
14840.203,-0.09,0.025,1.009,-8.85,-5.4,-4.85,0,1
14840.218,-0.1,0.005,0.953,-8.42,-7.6,-2.59,0,1
14840.218,0.015,-0.074,0.91,-11.81,-7.81,-3.36,0,1
14840.234,0.018,-0.118,0.949,-13.43,-2.14,-9.95,0,1
14840.25,-0.031,-0.044,0.996,-12.15,3.36,-11.54,0,1
14840.25,-0.086,0.0,1.056,-9.92,4.82,-7.08,0,1
14840.265,-0.124,0.016,1.111,-10.99,-0.89,-3.17,0,1
14840.281,-0.112,-0.019,1.108,-15.75,-10.77,-2.87,0,1
14840.281,-0.097,-0.037,1.11,-18.71,-18.22,-5.07,0,1
14840.296,-0.103,-0.039,1.099,-14.95,-20.91,-7.11,0,1
14840.312,-0.087,-0.032,1.079,-8.64,-21.42,-7.08,0,1
14840.312,-0.064,-0.017,1.054,-4.0,-20.6,-5.83,0,1
14840.328,-0.047,-0.011,1.035,-2.78,-19.01,-4.39,0,1
14840.343,-0.017,-0.028,1.016,-3.6,-17.82,-3.78,0,1
14840.343,-0.004,-0.048,0.991,-4.3,-15.56,-3.75,0,1
14840.359,-0.002,-0.061,0.98,-5.13,-11.51,-3.78,0,1
14840.359,-0.012,-0.069,0.978,-6.65,-7.45,-3.78,0,1
14840.375,-0.025,-0.081,0.983,-7.51,-4.33,-2.53,0,1
14840.39,-0.017,-0.109,0.984,-6.23,-3.75,-1.56,0,1
14840.39,-0.006,-0.112,0.962,-3.6,-3.69,-1.31,0,1
14840.406,-0.004,-0.1,0.943,-0.85,-2.2,-1.34,0,1
14840.421,0.011,-0.083,0.929,0.55,-1.22,-1.8,0,1
14840.421,0.009,-0.058,0.906,1.22,0.49,-1.92,0,1
14840.437,0.011,-0.044,0.897,0.24,2.53,-1.8,0,1
14840.453,0.017,-0.044,0.913,-0.61,5.71,-0.64,0,1
14840.453,0.016,-0.036,0.93,-0.34,9.28,1.25,0,1
14840.468,0.021,-0.023,0.959,-1.19,10.9,2.17,0,1
14840.468,0.029,-0.024,0.993,-2.93,9.92,2.41,0,1
14840.484,0.004,-0.025,1.028,-4.27,7.48,3.42,0,1
14840.5,0.016,-0.038,1.058,-5.8,2.29,4.73,0,1
14840.5,0.036,-0.03,1.068,-5.22,-2.93,4.15,0,1
14840.515,0.031,-0.047,1.067,-1.86,-6.13,2.78,0,1
14840.531,0.037,-0.052,1.051,3.08,-7.57,2.17,0,1
14840.531,0.038,-0.038,1.025,8.48,-7.66,1.43,0,1
14840.546,0.036,-0.023,1.008,11.72,-5.13,-1.22,0,1
14840.562,0.023,-0.003,0.998,8.64,-4.88,-1.43,0,1
14840.562,0.035,-0.003,0.991,4.52,-4.76,-1.95,0,1
14840.578,0.025,-0.002,0.959,1.59,-3.14,-1.86,0,1
14840.578,0.03,-0.012,0.964,0.03,-1.83,-1.62,0,1
14840.593,0.037,-0.018,0.959,-0.06,-0.24,-1.1,0,1
14840.609,0.034,-0.015,0.972,-0.21,2.29,-0.98,0,1
14840.609,0.025,-0.021,0.998,-0.49,3.17,-1.92,0,1
14840.625,0.01,-0.03,1.015,-0.95,1.8,-2.69,0,1
14840.64,0.009,-0.039,1.023,-1.13,-0.82,-3.08,0,1
14840.64,0.013,-0.034,1.019,-0.43,-2.5,-3.05,0,1
14840.656,0.028,-0.032,1.019,-0.58,-3.17,-2.84,0,1
14840.671,0.031,-0.039,1.021,-1.31,-2.53,-2.59,0,1
14840.671,0.025,-0.046,1.016,-0.95,-0.92,-2.26,0,1
14840.687,0.025,-0.045,1.011,-0.18,0.27,-2.01,0,1
14840.687,0.025,-0.039,1.017,0.46,0.7,-2.47,0,1
14840.703,0.017,-0.042,1.024,1.8,1.43,-2.72,0,1
14840.718,0.01,-0.035,1.019,2.41,1.13,-2.66,0,1
14840.718,0.009,-0.035,1.025,0.85,0.34,-2.29,0,1
14840.734,0.009,-0.046,1.035,-1.22,-0.49,-2.32,0,1
14840.75,0.008,-0.048,1.037,-1.19,-1.25,-2.62,0,1
14840.75,0.013,-0.048,1.026,1.31,-2.35,-2.62,0,1
14840.765,0.023,-0.043,1.002,5.68,-3.63,-2.5,0,1
14840.781,0.035,-0.043,0.977,9.67,-3.33,-1.53,0,1
14840.781,0.043,-0.039,0.966,10.04,-0.55,-0.12,0,1
14840.796,0.039,-0.029,0.979,7.02,3.51,-0.27,0,1
14840.812,0.024,-0.033,0.997,3.6,5.68,-0.92,0,1
14840.812,0.016,-0.035,1.009,1.01,5.8,-0.79,0,1
14840.828,0.016,-0.037,1.01,-0.18,5.01,-0.46,0,1
14840.843,0.022,-0.032,1.005,0.76,4.43,0.79,0,1
14840.843,0.026,-0.035,1.004,3.11,5.95,3.81,0,1
14840.859,0.022,-0.029,1.014,4.55,8.24,5.52,0,1
14840.875,0.021,-0.021,1.029,3.6,8.12,3.02,0,1
14840.875,0.01,-0.023,1.036,1.95,7.05,1.46,0,1
14840.89,0.015,-0.023,1.026,2.38,5.58,1.62,0,1
14840.89,0.019,-0.021,1.013,4.36,4.36,1.37,0,1
14840.906,0.016,-0.02,1.003,6.87,4.06,0.4,0,1
14840.921,0.014,-0.018,0.995,8.58,3.54,-0.49,0,1
14840.921,0.018,-0.006,0.987,8.64,2.41,-1.22,0,1
14840.937,0.018,-0.005,0.976,7.93,2.23,-1.43,0,1
14840.953,0.017,-0.004,0.97,6.5,3.14,-1.43,0,1
14840.953,0.013,-0.007,0.973,4.43,4.39,-1.74,0,1
14840.968,0.008,-0.005,0.987,2.47,5.13,-2.59,0,1
14840.984,0.0,-0.001,0.993,1.16,5.22,-3.39,0,1
14840.984,-0.005,0.008,0.995,0.55,5.19,-3.33,0,1
14841.0,-0.013,0.011,1.001,0.06,4.58,-3.2,0,1
14841.0,-0.021,0.003,0.999,-0.27,2.62,-3.57,0,1
14841.015,-0.008,-0.006,0.983,1.19,-0.12,-3.27,0,1
14841.031,0.005,-0.005,0.966,3.2,-0.79,-2.75,0,1
14841.031,-0.002,-0.011,0.962,3.85,0.34,-2.81,0,1
14841.046,0.005,-0.008,0.967,3.14,0.52,-3.27,0,1
14841.062,0.007,-0.003,0.971,1.46,0.92,-3.14,0,1
14841.062,-0.006,-0.006,0.981,-1.31,2.2,-2.93,0,1
14841.078,-0.01,-0.016,0.994,-3.85,2.32,-3.23,0,1
14841.078,-0.01,-0.014,1.001,-4.61,2.26,-3.6,0,1
14841.093,-0.015,-0.011,1.014,-4.12,3.39,-3.33,0,1
14841.109,-0.027,-0.011,1.038,-4.36,4.73,-3.36,0,1
14841.109,-0.035,-0.006,1.057,-4.88,3.63,-4.36,0,1
14841.125,-0.031,-0.009,1.057,-3.66,1.28,-4.46,0,1
14841.14,-0.026,-0.012,1.044,-0.79,-0.52,-4.3,0,1
14841.14,-0.03,-0.017,1.03,3.17,-1.13,-4.0,0,1
14841.156,-0.023,-0.025,1.018,6.16,-1.22,-4.21,0,1
14841.171,-0.022,-0.022,1.006,8.48,-1.1,-4.61,0,1
14841.171,-0.012,-0.013,0.996,9.67,0.12,-3.81,0,1
14841.187,-0.023,-0.005,0.999,7.11,2.96,-2.99,0,1
14841.203,-0.044,-0.005,1.014,2.14,3.85,-2.93,0,1
14841.203,-0.051,-0.018,1.012,-1.65,1.5,-2.62,0,1
14841.218,-0.036,-0.025,0.99,-2.11,-1.98,-1.83,0,1
14841.218,-0.026,-0.029,0.975,-1.28,-3.2,-1.01,0,1
14841.234,-0.025,-0.031,0.968,-1.04,-2.84,-0.95,0,1
14841.25,-0.021,-0.041,0.972,-1.65,-1.89,-0.76,0,1
14841.25,-0.011,-0.04,0.991,-2.41,-0.49,-0.85,0,1
14841.265,-0.021,-0.037,1.001,-1.83,0.24,-0.64,0,1
14841.281,-0.017,-0.032,1.001,-0.21,-0.21,0.03,0,1
14841.281,-0.003,-0.022,0.999,1.65,-0.55,0.34,0,1
14841.296,0.003,-0.014,1.01,1.68,1.04,0.31,0,1
14841.312,-0.01,-0.012,1.019,0.34,2.5,0.03,0,1
14841.312,-0.017,-0.005,1.022,-0.76,2.2,0.18,0,1
14841.328,-0.016,-0.01,1.016,-1.07,1.04,0.46,0,1
14841.328,-0.021,-0.018,1.006,-0.7,0.21,0.4,0,1
14841.343,-0.021,-0.023,0.988,1.37,-0.98,0.12,0,1
14841.359,-0.011,-0.016,0.973,3.94,-1.56,0.0,0,1
14841.359,-0.006,-0.014,0.971,4.73,0.15,0.21,0,1
14841.375,-0.014,-0.017,0.983,3.33,1.8,0.15,0,1
14841.39,-0.022,-0.019,0.999,1.65,2.59,-0.24,0,1
14841.406,-0.019,-0.023,1.007,0.76,2.59,-0.49,0,1
14841.406,-0.017,-0.014,1.011,1.77,3.51,-0.58,0,1
