timestamp,ax,ay,az,gx,gy,gz,orient_label,motion_label
14801.25,0.015,0.502,0.877,8.97,-9.7,12.21,0,1
14801.25,0.019,0.498,0.876,8.45,-9.4,12.21,0,1
14801.265,0.029,0.49,0.877,7.51,-9.13,12.67,0,1
14801.281,0.028,0.486,0.878,6.5,-9.03,13.25,0,1
14801.281,0.028,0.491,0.887,5.83,-8.79,13.06,0,1
14801.296,0.033,0.491,0.891,7.84,-9.46,13.43,0,1
14801.312,0.037,0.494,0.888,9.74,-9.58,14.65,0,1
14801.312,0.046,0.493,0.887,11.78,-9.03,16.63,0,1
14801.328,0.065,0.48,0.892,13.61,-8.0,18.46,0,1
14801.328,0.09,0.464,0.897,14.98,-6.5,19.53,0,1
14801.343,0.098,0.466,0.906,15.93,-4.49,20.17,0,1
14801.359,0.099,0.47,0.915,16.82,-2.96,20.72,0,1
14801.359,0.095,0.479,0.914,16.42,-2.72,21.24,0,1
14801.375,0.107,0.472,0.918,14.28,-4.12,22.13,0,1
14801.39,0.108,0.457,0.916,13.03,-6.1,22.46,0,1
14801.39,0.11,0.461,0.913,12.12,-8.39,22.13,0,1
14801.406,0.119,0.455,0.905,10.8,-10.86,21.03,0,1
14801.421,0.124,0.443,0.896,8.7,-13.28,19.53,0,1
14801.421,0.127,0.432,0.89,6.93,-15.11,17.67,0,1
14801.437,0.14,0.422,0.883,6.32,-16.42,16.66,0,1
14801.437,0.15,0.427,0.869,6.84,-17.12,15.2,0,1
14801.453,0.159,0.416,0.854,6.87,-17.4,14.07,0,1
14801.468,0.175,0.415,0.846,6.59,-16.88,12.97,0,1
14801.468,0.167,0.421,0.83,6.87,-16.02,11.51,0,1
14801.484,0.171,0.44,0.813,6.07,-14.95,10.32,0,1
14801.5,0.174,0.455,0.803,3.81,-13.49,9.37,0,1
14801.5,0.171,0.444,0.802,1.34,-12.12,9.4,0,1
14801.515,0.182,0.452,0.814,-0.61,-10.47,9.61,0,1
14801.531,0.175,0.453,0.814,-1.59,-8.45,9.74,0,1
14801.531,0.18,0.442,0.823,-2.93,-6.81,10.35,0,1
14801.546,0.184,0.425,0.834,-2.47,-5.34,11.32,0,1
14801.562,0.188,0.423,0.844,0.15,-4.21,11.57,0,1
14801.562,0.187,0.43,0.847,2.32,-3.72,11.26,0,1
14801.578,0.186,0.439,0.853,3.14,-4.24,10.8,0,1
14801.593,0.19,0.44,0.845,2.2,-5.95,10.47,0,1
14801.593,0.202,0.433,0.84,0.82,-6.84,10.19,0,1
14801.609,0.21,0.422,0.842,0.73,-6.87,9.74,0,1
14801.609,0.211,0.416,0.837,1.56,-6.78,8.94,0,1
14801.625,0.218,0.42,0.828,2.5,-6.44,7.84,0,1
14801.64,0.222,0.428,0.828,3.23,-5.95,6.62,0,1
14801.64,0.221,0.441,0.825,3.39,-5.52,5.58,0,1
14801.656,0.223,0.445,0.822,3.2,-5.43,5.4,0,1
14801.671,0.223,0.443,0.82,4.03,-5.04,5.89,0,1
14801.671,0.223,0.449,0.828,6.1,-4.09,6.78,0,1
14801.687,0.222,0.45,0.826,9.13,-3.2,7.97,0,1
14801.687,0.222,0.447,0.822,11.75,-1.8,8.91,0,1
14801.703,0.229,0.446,0.822,14.44,0.15,9.55,0,1
14801.718,0.22,0.455,0.812,16.24,2.5,9.89,0,1
14801.718,0.218,0.473,0.81,14.68,4.61,9.92,0,1
14801.734,0.209,0.482,0.814,11.26,6.47,8.51,0,1
14801.75,0.204,0.482,0.826,6.9,7.23,7.11,0,1
14801.765,0.188,0.474,0.844,2.29,6.01,6.29,0,1
14801.765,0.184,0.47,0.853,1.74,4.39,6.65,0,1
14801.781,0.192,0.466,0.867,2.2,2.59,7.35,0,1
14801.796,0.193,0.454,0.867,4.21,0.67,8.21,0,1
14801.812,0.194,0.454,0.867,6.71,-0.89,8.48,0,1
14801.812,0.202,0.458,0.861,10.47,-1.28,8.55,0,1
14801.828,0.201,0.453,0.852,14.19,-0.95,8.73,0,1
14801.843,0.206,0.458,0.848,16.79,-0.34,9.16,0,1
14801.843,0.199,0.466,0.846,18.65,0.79,9.7,0,1
14801.859,0.202,0.47,0.849,19.65,2.01,10.16,0,1
14801.859,0.198,0.474,0.852,20.84,3.33,11.08,0,1
14801.875,0.201,0.481,0.834,21.52,4.46,12.97,0,1
14801.89,0.212,0.472,0.816,17.24,4.49,13.76,0,1
14801.89,0.216,0.451,0.825,8.85,3.36,12.91,0,1
14801.906,0.227,0.426,0.834,3.48,1.92,10.53,0,1
14801.906,0.233,0.42,0.851,2.23,0.79,7.48,0,1
14801.937,0.223,0.435,0.859,9.13,-0.12,3.69,0,1
14801.937,0.215,0.448,0.852,11.9,0.0,2.62,0,1
14801.953,0.217,0.458,0.846,12.54,0.92,1.71,0,1
14801.968,0.217,0.47,0.843,12.12,2.08,0.67,0,1
14801.968,0.217,0.477,0.839,9.92,3.42,-0.85,0,1
14801.984,0.222,0.469,0.841,6.99,3.88,-2.38,0,1
14802.0,0.223,0.473,0.851,4.97,3.48,-3.6,0,1
14802.0,0.219,0.485,0.85,3.39,2.14,-4.88,0,1
14802.015,0.217,0.49,0.848,1.46,0.31,-5.89,0,1
14802.031,0.215,0.484,0.853,0.27,-1.34,-5.95,0,1
14802.031,0.216,0.483,0.853,0.49,-2.47,-5.86,0,1
14802.046,0.213,0.486,0.845,1.62,-3.14,-6.04,0,1
14802.046,0.211,0.486,0.835,2.66,-3.45,-6.26,0,1
14802.062,0.214,0.487,0.83,3.54,-3.54,-6.23,0,1
14802.078,0.211,0.494,0.824,4.55,-3.36,-6.32,0,1
14802.078,0.218,0.507,0.817,4.88,-2.75,-6.56,0,1
14802.093,0.223,0.507,0.811,4.18,-1.8,-6.87,0,1
14802.109,0.23,0.501,0.815,3.27,-1.01,-6.53,0,1
14802.109,0.235,0.501,0.822,2.99,-0.64,-6.1,0,1
14802.125,0.239,0.496,0.83,3.05,-1.19,-6.44,0,1
14802.14,0.246,0.487,0.841,3.05,-2.72,-7.17,0,1
14802.14,0.256,0.481,0.843,3.33,-5.28,-8.06,0,1
14802.156,0.269,0.479,0.838,3.23,-8.21,-9.09,0,1
14802.171,0.282,0.475,0.828,2.35,-11.11,-10.19,0,1
14802.171,0.299,0.468,0.82,0.18,-13.79,-11.38,0,1
14802.187,0.311,0.459,0.808,-2.17,-15.02,-13.03,0,1
14802.187,0.317,0.456,0.805,-5.07,-14.68,-14.89,0,1
14802.203,0.33,0.438,0.808,-7.78,-13.92,-16.33,0,1
14802.218,0.335,0.415,0.807,-8.24,-12.88,-17.67,0,1
14802.218,0.339,0.393,0.778,-6.47,-10.77,-19.47,0,1
14802.234,0.337,0.394,0.766,-4.97,-7.26,-20.91,0,1
14802.25,0.337,0.383,0.76,-3.14,-3.66,-21.42,0,1
14802.25,0.323,0.38,0.747,-1.62,-0.18,-22.55,0,1
14802.265,0.3,0.402,0.739,-1.19,3.69,-24.11,0,1
14802.281,0.26,0.439,0.741,-7.17,13.64,-28.17,0,1
14802.281,0.225,0.482,0.756,-14.01,16.85,-30.58,0,1
14802.296,0.194,0.514,0.778,-21.03,17.76,-31.01,0,1
14802.312,0.153,0.544,0.812,-27.04,15.47,-28.99,0,1
14802.312,0.119,0.556,0.858,-30.34,10.8,-25.91,0,1
14802.328,0.108,0.555,0.865,-30.79,6.53,-23.26,0,1
14802.328,0.1,0.563,0.864,-29.88,4.12,-22.06,0,1
14802.343,0.106,0.551,0.86,-27.89,3.3,-20.78,0,1
14802.359,0.109,0.532,0.857,-23.83,4.43,-18.65,0,1
14802.359,0.113,0.523,0.856,-17.64,6.96,-15.78,0,1
14802.375,0.111,0.52,0.85,-10.86,10.74,-13.73,0,1
14802.39,0.106,0.525,0.845,-4.82,15.26,-12.79,0,1
14802.39,0.09,0.546,0.846,-1.46,19.38,-12.42,0,1
14802.406,0.065,0.575,0.855,-1.86,21.27,-11.84,0,1
14802.421,0.052,0.571,0.859,-4.36,20.51,-10.13,0,1
14802.421,0.048,0.557,0.871,-7.26,18.01,-7.97,0,1
14802.437,0.052,0.551,0.884,-9.74,14.07,-5.77,0,1
14802.437,0.053,0.528,0.883,-10.35,9.67,-4.24,0,1
14802.453,0.054,0.519,0.881,-11.38,5.92,-3.75,0,1
14802.468,0.051,0.519,0.881,-13.15,3.39,-4.12,0,1
14802.468,0.053,0.513,0.881,-15.26,2.26,-4.76,0,1
14802.484,0.053,0.505,0.882,-16.57,2.2,-4.85,0,1
14802.5,0.047,0.504,0.885,-16.17,2.72,-4.33,0,1
14802.5,0.039,0.498,0.89,-14.34,3.54,-3.39,0,1
14802.515,0.035,0.492,0.897,-10.62,4.55,-1.89,0,1
14802.531,0.034,0.489,0.901,-5.28,5.46,0.12,0,1
14802.531,0.037,0.478,0.895,0.34,6.29,2.53,0,1
14802.546,0.044,0.472,0.885,5.34,6.41,4.46,0,1
14802.562,0.054,0.471,0.872,8.79,5.92,5.46,0,1
14802.562,0.062,0.472,0.861,9.86,5.01,5.71,0,1
14802.578,0.067,0.474,0.853,8.94,4.03,5.65,0,1
14802.593,0.074,0.47,0.848,6.78,3.45,5.22,0,1
14802.593,0.079,0.465,0.848,4.27,3.39,4.7,0,1
14802.609,0.083,0.464,0.853,1.86,3.6,4.0,0,1
14802.609,0.088,0.46,0.86,0.15,3.91,3.05,0,1
14802.625,0.086,0.464,0.868,-0.73,4.36,1.8,0,1
14802.64,0.082,0.471,0.873,-0.76,4.58,0.49,0,1
14802.64,0.078,0.482,0.877,-1.01,4.46,-0.4,0,1
14802.656,0.07,0.491,0.882,-1.16,4.0,-0.58,0,1
14802.671,0.07,0.496,0.885,-1.37,3.3,-0.4,0,1
14802.671,0.076,0.497,0.888,-1.37,2.72,-0.37,0,1
14802.687,0.077,0.494,0.889,-1.01,1.92,-0.43,0,1
14802.687,0.078,0.499,0.885,-0.21,0.73,-0.43,0,1
14802.703,0.079,0.505,0.88,0.64,-0.46,-0.27,0,1
14802.718,0.084,0.503,0.871,0.92,-1.5,-0.21,0,1
14802.718,0.091,0.493,0.864,0.4,-2.29,-0.09,0,1
14802.734,0.098,0.488,0.857,-0.31,-2.78,-0.79,0,1
14802.75,0.104,0.481,0.85,-1.07,-3.3,-1.74,0,1
14802.75,0.109,0.473,0.842,-1.8,-3.36,-2.75,0,1
14802.765,0.107,0.469,0.838,-2.04,-2.84,-3.48,0,1
14802.781,0.092,0.47,0.834,-1.8,-1.65,-3.88,0,1
14802.796,0.075,0.479,0.833,-2.53,1.77,-4.09,0,1
14802.796,0.069,0.478,0.836,-3.33,3.3,-3.75,0,1
14802.812,0.069,0.474,0.835,-3.88,4.49,-3.33,0,1
14802.828,0.067,0.478,0.833,-4.33,5.71,-3.05,0,1
14802.843,0.066,0.478,0.828,-4.79,7.14,-2.9,0,1
14802.843,0.067,0.473,0.815,-5.37,9.37,-2.75,0,1
14802.859,0.063,0.476,0.838,-6.13,12.02,-2.35,0,1
14802.859,0.067,0.462,0.841,-6.68,12.36,-2.32,0,1
14802.875,0.08,0.452,0.822,-8.06,12.24,-2.69,0,1
14802.89,0.085,0.449,0.825,-8.94,13.76,-2.93,0,1
14802.89,0.079,0.439,0.832,-8.55,15.08,-3.33,0,1
14802.906,0.076,0.444,0.837,-8.73,15.47,-3.85,0,1
14802.906,0.068,0.457,0.848,-9.7,16.05,-4.55,0,1
14802.921,0.059,0.462,0.861,-10.62,16.3,-4.97,0,1
14802.937,0.047,0.469,0.873,-11.29,15.81,-4.79,0,1
14802.937,0.039,0.476,0.897,-11.81,15.08,-3.91,0,1
14802.968,0.039,0.469,0.922,-11.2,11.75,-2.75,0,1
14802.968,0.037,0.47,0.924,-9.52,10.16,-2.56,0,1
14802.984,0.036,0.468,0.92,-7.23,8.36,-2.35,0,1
14803.0,0.04,0.469,0.91,-5.37,6.65,-2.32,0,1
14803.0,0.036,0.476,0.905,-4.67,5.4,-1.98,0,1
14803.015,0.037,0.471,0.899,-4.76,4.79,-1.95,0,1
14803.031,0.043,0.466,0.896,-5.43,4.55,-2.38,0,1
14803.046,0.041,0.465,0.892,-6.29,4.21,-2.87,0,1
14803.046,0.04,0.469,0.897,-7.2,3.97,-3.3,0,1
14803.046,0.044,0.468,0.9,-7.42,3.48,-3.11,0,1
14803.062,0.047,0.459,0.888,-5.8,3.33,-2.29,0,1
14803.078,0.053,0.443,0.887,-3.2,4.27,-1.65,0,1
14803.078,0.051,0.438,0.884,-0.85,4.91,-1.25,0,1
14803.093,0.039,0.454,0.874,-0.27,5.58,-1.01,0,1
14803.109,0.031,0.455,0.875,-0.67,6.41,-0.82,0,1
14803.109,0.026,0.446,0.879,-1.53,6.81,-0.82,0,1
14803.125,0.025,0.447,0.871,-2.87,7.32,-0.92,0,1
14803.14,0.032,0.448,0.873,-5.1,7.84,-1.07,0,1
14803.156,0.041,0.437,0.877,-7.54,8.12,-1.5,0,1
14803.156,0.043,0.434,0.881,-10.59,7.97,-3.05,0,1
14803.171,0.051,0.431,0.884,-11.63,8.21,-3.91,0,1
14803.171,0.042,0.412,0.886,-7.78,10.16,-4.76,0,1
14803.187,0.031,0.424,0.895,-5.4,11.2,-6.41,0,1
14803.187,0.021,0.439,0.893,-4.36,11.26,-6.9,0,1
14803.203,0.001,0.44,0.896,-2.93,11.23,-5.34,0,1
14803.218,-0.002,0.443,0.906,-1.56,10.13,-3.27,0,1
14803.234,-0.009,0.447,0.9,-0.89,8.36,-2.62,0,1
14803.234,-0.008,0.452,0.897,-1.5,7.14,-2.53,0,1
14803.25,-0.005,0.437,0.884,-1.25,7.17,-2.84,0,1
14803.25,-0.009,0.427,0.875,-2.01,9.89,-4.88,0,1
14803.265,-0.008,0.424,0.864,-1.89,12.51,-4.64,0,1
14803.281,-0.014,0.424,0.855,-1.4,15.14,-3.45,0,1
14803.281,-0.027,0.427,0.86,-7.23,13.21,-2.72,0,1
14803.296,-0.028,0.478,0.952,-16.6,4.03,-0.95,0,1
14803.312,-0.019,0.38,0.94,-15.41,-1.95,-0.82,0,1
14803.312,-0.008,0.374,0.931,-12.05,-5.37,-1.8,0,1
14803.328,0.002,0.389,0.923,-7.75,-5.77,-1.86,0,1
14803.328,-0.002,0.387,0.921,-3.48,-4.3,-2.26,0,1
14803.343,-0.001,0.404,0.921,-1.71,-3.02,-2.11,0,1
14803.359,0.024,0.403,0.895,-0.61,-1.56,-1.59,0,1
14803.359,0.003,0.334,0.892,3.75,2.99,-2.66,0,1
14803.375,-0.047,0.476,0.945,0.46,1.43,-3.11,0,1
14803.39,0.005,0.462,0.938,-0.55,-3.57,0.46,0,1
14803.39,-0.027,0.406,0.929,0.73,-6.87,1.22,0,1
14803.406,-0.024,0.455,0.925,-2.87,-11.14,0.82,0,1
14803.421,-0.045,0.47,0.936,-5.58,-12.36,-0.12,0,1
14803.421,-0.071,0.485,0.952,-8.27,-11.63,-0.79,0,1
14803.437,-0.061,0.488,0.958,-8.18,-8.79,1.01,0,1
14803.437,-0.062,0.479,0.964,-3.3,-3.54,4.09,0,1
14803.453,-0.061,0.48,0.961,5.34,0.73,6.84,0,1
14803.468,-0.051,0.481,0.933,15.96,2.14,9.49,0,1
14803.468,-0.042,0.485,0.9,23.07,1.89,10.68,0,1
14803.484,-0.046,0.509,0.877,21.79,-1.13,10.19,0,1
14803.5,-0.051,0.548,0.865,13.76,-6.13,11.11,0,1
14803.5,0.019,0.48,0.823,1.89,-11.66,11.75,0,1
14803.515,0.014,0.364,0.813,-5.77,-10.25,6.04,0,1
14803.531,-0.005,0.452,0.868,-18.74,-11.05,1.56,0,1
14803.531,0.004,0.452,0.875,-22.25,-11.96,3.23,0,1
14803.546,0.013,0.386,0.884,-18.46,-10.86,5.43,0,1
14803.546,0.027,0.377,0.894,-11.44,-8.7,5.83,0,1
14803.562,0.026,0.386,0.904,-3.17,-6.96,5.28,0,1
14803.578,0.027,0.388,0.896,3.08,-6.81,5.49,0,1
14803.578,0.036,0.403,0.879,6.26,-6.62,6.1,0,1
14803.593,0.039,0.401,0.875,6.65,-6.44,6.26,0,1
14803.609,0.046,0.403,0.879,4.64,-6.84,5.43,0,1
14803.609,0.053,0.404,0.878,2.08,-7.72,4.27,0,1
14803.625,0.062,0.393,0.881,0.09,-8.33,2.9,0,1
14803.64,0.067,0.388,0.882,-0.21,-7.75,1.74,0,1
14803.656,0.065,0.382,0.878,0.4,-6.59,-0.7,0,1
14803.656,0.06,0.384,0.878,0.7,-5.43,-0.7,0,1
14803.671,0.06,0.393,0.88,0.06,-3.81,-1.13,0,1
14803.687,0.066,0.395,0.887,-1.46,-2.56,-2.11,0,1
14803.687,0.07,0.386,0.894,-2.93,-1.83,-2.99,0,1
14803.703,0.072,0.384,0.9,-3.3,-0.67,-4.06,0,1
14803.718,0.07,0.387,0.904,-2.66,0.82,-4.94,0,1
14803.718,0.069,0.391,0.91,-2.17,1.83,-5.62,0,1
14803.734,0.062,0.398,0.915,-1.83,2.26,-5.86,0,1
14803.75,0.054,0.407,0.916,-1.28,1.8,-5.92,0,1
14803.765,0.054,0.412,0.916,-1.16,0.61,-5.86,0,1
14803.765,0.055,0.418,0.914,-1.92,-1.37,-5.77,0,1
14803.781,0.059,0.416,0.906,-3.02,-3.63,-5.86,0,1
14803.781,0.063,0.406,0.894,-4.09,-4.7,-6.16,0,1
14803.796,0.063,0.404,0.888,-5.43,-4.49,-6.87,0,1
14803.796,0.055,0.408,0.889,-7.08,-3.23,-7.63,0,1
14803.828,0.039,0.418,0.912,-7.97,0.15,-7.81,0,1
14803.828,0.037,0.411,0.918,-5.86,0.61,-6.41,0,1
14803.843,0.031,0.41,0.924,-1.83,0.7,-4.67,0,1
14803.859,0.031,0.416,0.926,2.81,0.49,-3.33,0,1
14803.875,0.027,0.418,0.914,7.05,0.43,-2.62,0,1
14803.875,0.017,0.43,0.904,8.82,0.49,-3.08,0,1
14803.89,0.006,0.45,0.904,6.5,0.31,-3.51,0,1
14803.89,-0.002,0.454,0.91,2.5,0.18,-3.33,0,1
14803.906,-0.002,0.453,0.915,-1.1,-0.46,-3.33,0,1
14803.921,0.002,0.452,0.919,-3.66,-1.62,-3.36,0,1
14803.921,0.009,0.441,0.918,-4.36,-3.02,-2.75,0,1
14803.937,0.018,0.428,0.914,-2.84,-4.09,-1.56,0,1
14803.953,0.032,0.42,0.904,0.09,-4.52,-0.12,0,1
14803.953,0.042,0.414,0.886,3.11,-4.24,0.92,0,1
14803.968,0.047,0.413,0.875,5.19,-2.9,1.53,0,1
14803.968,0.049,0.419,0.871,5.28,-1.19,1.43,0,1
14803.984,0.045,0.422,0.87,4.06,-0.09,1.16,0,1
14804.0,0.043,0.427,0.875,2.17,0.46,0.58,0,1
14804.0,0.039,0.43,0.876,0.27,0.43,0.12,0,1
14804.015,0.033,0.433,0.889,-1.65,0.0,0.4,0,1
14804.031,0.034,0.429,0.9,-3.51,-1.04,0.7,0,1
14804.031,0.042,0.414,0.899,-3.88,-1.8,0.61,0,1
14804.046,0.047,0.405,0.899,-3.05,-1.89,0.58,0,1
14804.062,0.043,0.402,0.904,-1.8,-1.31,0.64,0,1
14804.062,0.038,0.405,0.905,-0.15,-0.95,0.82,0,1
14804.078,0.036,0.405,0.904,1.13,-0.98,1.19,0,1
14804.078,0.026,0.413,0.905,0.82,-1.13,0.82,0,1
14804.093,0.027,0.411,0.904,-0.79,-1.62,0.12,0,1
14804.109,0.027,0.407,0.902,-2.5,-2.23,-0.49,0,1
14804.109,0.024,0.406,0.901,-3.81,-2.32,-1.4,0,1
14804.125,0.021,0.413,0.903,-4.7,-1.68,-2.62,0,1
14804.14,0.011,0.422,0.906,-4.94,-1.19,-2.9,0,1
14804.14,-0.002,0.435,0.911,-4.36,-0.49,-2.35,0,1
14804.156,-0.0,0.441,0.92,-3.69,-0.12,-1.56,0,1
14804.171,0.007,0.437,0.918,-2.44,-0.24,-0.49,0,1
14804.171,0.013,0.434,0.915,-0.37,-0.52,0.49,0,1
14804.187,0.021,0.431,0.912,1.31,-0.67,1.16,0,1
14804.187,0.031,0.425,0.905,2.47,-1.04,1.65,0,1
14804.203,0.04,0.418,0.896,3.36,-1.04,1.95,0,1
14804.218,0.044,0.416,0.888,2.99,-0.61,1.53,0,1
14804.218,0.046,0.416,0.887,1.37,-0.12,0.85,0,1
14804.234,0.045,0.409,0.89,-0.46,0.31,0.67,0,1
14804.25,0.045,0.404,0.892,-2.59,0.55,-0.49,0,1
14804.25,0.039,0.405,0.894,-2.93,0.73,-0.82,0,1
14804.265,0.032,0.412,0.902,-2.87,0.61,-0.64,0,1
14804.281,0.024,0.414,0.907,-2.41,0.34,0.0,0,1
14804.281,0.026,0.41,0.907,-1.65,0.06,0.49,0,1
14804.296,0.022,0.411,0.91,-0.76,0.03,0.46,0,1
14804.296,0.02,0.414,0.91,-0.4,0.0,0.21,0,1
14804.312,0.023,0.41,0.904,-0.46,-0.46,0.31,0,1
14804.328,0.026,0.402,0.901,-0.49,-0.46,0.52,0,1
14804.343,0.03,0.396,0.903,0.03,0.37,0.0,0,1
14804.359,0.034,0.394,0.899,0.37,0.46,-0.55,0,1
14804.359,0.032,0.397,0.9,0.4,0.27,-0.89,0,1
14804.375,0.03,0.406,0.901,0.06,0.15,-1.4,0,1
14804.39,0.029,0.411,0.903,-0.92,-0.15,-1.89,0,1
14804.39,0.023,0.412,0.906,-1.71,-0.4,-1.89,0,1
14804.406,0.018,0.417,0.911,-2.04,-0.46,-1.77,0,1
14804.406,0.016,0.419,0.915,-1.37,-0.76,-1.56,0,1
14804.421,0.017,0.422,0.908,-0.46,-1.04,-1.34,0,1
14804.437,0.018,0.425,0.908,0.12,-0.89,-0.64,0,1
14804.437,0.02,0.421,0.908,0.12,-0.76,-0.06,0,1
14804.453,0.024,0.416,0.907,-0.09,-1.22,0.31,0,1
14804.468,0.028,0.412,0.902,0.03,-1.62,0.15,0,1
14804.468,0.029,0.409,0.899,-0.03,-1.59,-0.15,0,1
14804.484,0.029,0.411,0.899,0.03,-1.13,-0.34,0,1
14804.5,0.03,0.411,0.897,-0.24,-0.92,-0.31,0,1
14804.515,0.036,0.41,0.895,-1.65,-1.01,-0.55,0,1
14804.531,0.033,0.412,0.897,-2.32,-0.89,-1.07,0,1
14804.531,0.03,0.41,0.898,-2.44,-0.98,-1.16,0,1
14804.546,0.027,0.409,0.903,-1.95,-0.79,-0.82,0,1
14804.546,0.023,0.408,0.907,-1.04,-0.43,-0.46,0,1
14804.562,0.018,0.412,0.911,-0.64,-0.12,-0.52,0,1
14804.578,0.018,0.411,0.913,-0.73,-0.52,-0.37,0,1
14804.578,0.016,0.41,0.914,-0.98,-0.92,-0.37,0,1
14804.593,0.015,0.409,0.914,-1.19,-1.25,-0.61,0,1
14804.609,0.016,0.409,0.913,-0.89,-1.53,-0.61,0,1
14804.625,0.019,0.408,0.908,-0.34,-1.5,-0.18,0,1
14804.625,0.024,0.404,0.904,0.31,-1.25,-0.03,0,1
14804.64,0.029,0.403,0.9,0.24,-1.19,-0.18,0,1
14804.64,0.029,0.401,0.9,-0.21,-1.07,-0.67,0,1
14804.656,0.029,0.403,0.897,-1.01,-0.79,-1.25,0,1
14804.671,0.029,0.402,0.895,-1.68,-0.64,-1.4,0,1
14804.671,0.027,0.401,0.9,-1.77,-0.24,-1.4,0,1
14804.687,0.023,0.404,0.901,-1.28,0.27,-1.5,0,1
14804.687,0.02,0.411,0.905,-1.07,0.76,-1.65,0,1
14804.703,0.018,0.414,0.91,-1.28,0.79,-1.43,0,1
14804.718,0.016,0.409,0.911,-1.62,0.43,-0.95,0,1
14804.718,0.017,0.408,0.912,-1.8,0.21,-0.85,0,1
14804.734,0.015,0.408,0.913,-1.8,0.15,-1.19,0,1
14804.75,0.015,0.407,0.911,-1.46,0.31,-1.1,0,1
14804.75,0.018,0.405,0.909,-0.89,0.43,-0.76,0,1
14804.765,0.019,0.407,0.907,-0.12,0.18,-0.61,0,1
14804.781,0.02,0.406,0.903,0.15,-0.06,-0.58,0,1
14804.781,0.02,0.405,0.902,-0.06,-0.34,-0.67,0,1
14804.796,0.018,0.402,0.903,-0.67,-0.73,-0.79,0,1
14804.812,0.021,0.401,0.902,-1.19,-0.95,-0.85,0,1
14804.812,0.021,0.401,0.902,-1.56,-0.89,-1.25,0,1
14804.828,0.022,0.399,0.901,-1.59,-0.64,-1.53,0,1
14804.828,0.024,0.392,0.9,-2.23,-0.55,-2.01,0,1
14804.843,0.023,0.399,0.911,-4.79,-1.1,-3.69,0,1
14804.859,0.017,0.399,0.912,-5.55,-1.34,-3.88,0,1
14804.859,0.017,0.389,0.914,-4.33,-0.73,-2.87,0,1
14804.875,0.011,0.396,0.918,-2.56,-0.43,-2.23,0,1
14804.89,0.012,0.397,0.919,-0.06,-0.31,-1.65,0,1
14804.89,0.01,0.401,0.915,1.8,-0.73,-1.07,0,1
14804.906,0.014,0.405,0.907,2.66,-1.25,-0.55,0,1
14804.921,0.02,0.406,0.9,2.75,-1.86,-0.27,0,1
14804.921,0.023,0.405,0.893,1.83,-2.38,-0.7,0,1
14804.937,0.026,0.403,0.888,0.43,-2.26,-1.37,0,1
14804.937,0.028,0.401,0.887,-1.04,-1.95,-1.92,0,1
14804.953,0.029,0.399,0.889,-2.29,-1.56,-2.41,0,1
14804.968,0.031,0.396,0.896,-2.26,-0.95,-2.26,0,1
14804.968,0.031,0.395,0.899,-1.1,-0.15,-1.89,0,1
14804.984,0.028,0.399,0.902,0.15,0.31,-1.77,0,1
14805.0,0.023,0.407,0.906,1.19,0.58,-1.46,0,1
14805.0,0.02,0.415,0.907,1.62,0.79,-1.07,0,1
14805.015,0.016,0.421,0.911,1.1,0.85,-0.73,0,1
14805.031,0.011,0.424,0.918,0.15,0.43,-0.12,0,1
14805.046,0.012,0.421,0.92,0.21,0.09,0.24,0,1
14805.046,0.015,0.418,0.917,0.79,-0.49,0.4,0,1
14805.062,0.02,0.415,0.912,1.22,-1.04,0.34,0,1
14805.078,0.022,0.412,0.905,1.13,-1.28,0.43,0,1
14805.078,0.022,0.411,0.904,0.89,-1.25,0.67,0,1
14805.093,0.023,0.407,0.902,0.31,-1.07,0.76,0,1
14805.109,0.021,0.405,0.906,-0.09,-0.79,0.55,0,1
14805.109,0.019,0.405,0.909,-0.18,-0.37,0.34,0,1
14805.125,0.017,0.41,0.911,-0.24,-0.15,0.06,0,1
14805.14,0.015,0.412,0.913,-0.37,-0.27,0.09,0,1
14805.14,0.012,0.41,0.913,-0.49,-0.76,0.34,0,1
14805.156,0.015,0.407,0.91,-0.55,-1.28,0.49,0,1
14805.156,0.017,0.404,0.907,-0.61,-1.28,0.43,0,1
14805.171,0.018,0.4,0.906,-0.52,-1.19,0.52,0,1
14805.187,0.021,0.399,0.903,-0.67,-0.79,0.34,0,1
14805.203,0.017,0.408,0.904,-1.01,-0.15,-0.18,0,1
14805.218,0.013,0.411,0.909,-1.37,0.21,-0.06,0,1
14805.218,0.008,0.411,0.915,-1.31,-0.03,0.55,0,1
14805.234,0.01,0.406,0.919,-0.76,-0.43,0.64,0,1
14805.25,0.011,0.401,0.918,-0.09,-0.92,0.67,0,1
14805.25,0.016,0.399,0.911,0.58,-1.28,0.64,0,1
14805.265,0.015,0.398,0.906,0.79,-1.25,0.46,0,1
14805.281,0.018,0.401,0.902,0.55,-1.04,0.27,0,1
14805.281,0.017,0.4,0.907,-0.03,-0.98,0.49,0,1
14805.296,0.023,0.398,0.905,-1.13,-1.68,0.76,0,1
14805.296,0.025,0.383,0.903,-0.46,-1.74,0.43,0,1
14805.312,0.027,0.392,0.899,0.27,-1.34,0.27,0,1
14805.328,0.027,0.399,0.899,0.43,-0.98,-0.12,0,1
14805.328,0.02,0.401,0.899,0.24,-0.52,-0.58,0,1
14805.343,0.018,0.405,0.899,-0.55,-0.27,-0.73,0,1
14805.359,0.018,0.407,0.902,-1.56,-0.21,-0.7,0,1
14805.359,0.017,0.403,0.904,-1.95,-0.15,-0.7,0,1
14805.375,0.014,0.403,0.905,-1.28,-0.18,-0.67,0,1
14805.39,0.018,0.401,0.903,-0.15,-0.31,-0.34,0,1
14805.39,0.022,0.398,0.899,0.95,-0.24,0.06,0,1
14805.406,0.023,0.395,0.894,2.08,-0.21,0.21,0,1
14805.406,0.021,0.394,0.892,2.69,-0.34,0.31,0,1
14805.421,0.017,0.4,0.89,2.23,0.06,-0.18,0,1
14805.437,0.009,0.406,0.893,0.61,0.49,-0.85,0,1
14805.437,0.0,0.412,0.902,-1.19,0.98,-1.46,0,1
14805.453,-0.003,0.414,0.912,-2.29,1.07,-1.71,0,1
14805.468,-0.001,0.414,0.916,-2.26,0.64,-1.5,0,1
14805.468,0.002,0.41,0.914,-0.98,0.03,-1.19,0,1
14805.484,0.005,0.41,0.91,0.7,-0.27,-0.67,0,1
14805.5,0.008,0.402,0.905,1.98,-0.21,-0.15,0,1
14805.5,0.01,0.396,0.905,2.2,0.21,0.06,0,1
14805.515,0.01,0.392,0.907,1.86,0.64,0.0,0,1
14805.531,0.009,0.389,0.91,1.34,0.52,-0.46,0,1
14805.531,0.01,0.388,0.913,0.73,-0.06,-1.1,0,1
14805.546,0.01,0.391,0.915,0.18,-0.64,-1.77,0,1
14805.562,0.012,0.395,0.911,0.34,-1.07,-2.11,0,1
14805.562,0.014,0.396,0.907,0.79,-1.13,-2.11,0,1
14805.578,0.014,0.401,0.907,1.25,-0.82,-2.11,0,1
14805.578,0.011,0.403,0.905,1.5,-0.55,-2.2,0,1
14805.593,0.008,0.406,0.911,1.56,-0.31,-2.04,0,1
14805.609,0.008,0.405,0.914,1.89,-0.15,-1.98,0,1
14805.609,0.007,0.408,0.914,1.77,-0.31,-2.2,0,1
14805.625,0.006,0.413,0.916,1.53,-0.46,-2.44,0,1
14805.64,0.006,0.417,0.914,1.13,-0.79,-2.59,0,1
14805.64,0.008,0.415,0.91,0.61,-1.07,-2.32,0,1
14805.656,0.007,0.41,0.909,0.55,-1.13,-1.95,0,1
14805.671,0.009,0.403,0.907,0.85,-1.13,-1.65,0,1
14805.671,0.005,0.403,0.908,1.19,-0.67,-1.77,0,1
14805.687,0.003,0.404,0.911,1.22,-0.31,-1.89,0,1
14805.687,-0.001,0.402,0.913,1.16,0.0,-1.83,0,1
14805.703,0.0,0.404,0.914,1.28,0.09,-1.74,0,1
14805.718,0.008,0.406,0.906,1.68,-0.31,-1.98,0,1
14805.734,0.006,0.411,0.905,1.4,-0.46,-2.47,0,1
14805.75,0.005,0.413,0.901,0.7,-0.4,-2.84,0,1
14805.75,0.005,0.414,0.901,-0.34,-0.18,-2.87,0,1
14805.765,0.007,0.414,0.904,-1.04,-0.12,-2.78,0,1
14805.781,0.012,0.411,0.906,-0.89,-0.06,-2.44,0,1
14805.781,0.012,0.409,0.907,-0.06,-0.03,-1.89,0,1
14805.796,0.013,0.412,0.907,0.79,-0.21,-1.31,0,1
14805.796,0.01,0.417,0.906,1.07,-0.27,-1.1,0,1
14805.812,0.01,0.42,0.906,0.58,-0.31,-1.34,0,1
14805.828,0.01,0.417,0.907,-0.31,-0.4,-1.31,0,1
14805.828,0.007,0.416,0.91,-0.95,-0.27,-1.25,0,1
14805.843,0.005,0.413,0.911,-1.31,-0.46,-1.5,0,1
14805.859,0.001,0.414,0.912,-1.43,-0.55,-1.89,0,1
14805.859,-0.002,0.421,0.914,-1.53,-0.52,-2.23,0,1
14805.875,-0.009,0.427,0.916,-2.23,-0.73,-2.59,0,1
14805.906,-0.017,0.421,0.927,-5.37,-1.95,-3.36,0,1
14805.906,-0.009,0.416,0.928,-4.55,-2.41,-2.23,0,1
14805.906,-0.003,0.406,0.925,-2.96,-2.72,-1.4,0,1
14805.921,-0.001,0.406,0.92,-0.61,-2.56,-1.22,0,1
14805.937,0.003,0.41,0.913,1.46,-2.23,-1.22,0,1
14805.937,-0.001,0.412,0.904,1.95,-1.74,-1.16,0,1
14805.953,-0.006,0.418,0.907,0.64,-1.16,-1.1,0,1
14805.968,-0.01,0.42,0.911,-1.62,-1.22,-1.43,0,1
14805.968,-0.01,0.416,0.915,-3.3,-1.8,-1.5,0,1
14805.984,-0.005,0.41,0.919,-3.63,-2.32,-1.13,0,1
14806.0,0.002,0.404,0.916,-2.78,-2.96,-0.7,0,1
14806.0,0.009,0.399,0.91,-1.28,-3.3,-0.4,0,1
14806.015,0.016,0.395,0.901,0.49,-3.11,-0.24,0,1
14806.031,0.022,0.39,0.892,1.56,-2.81,0.06,0,1
14806.031,0.027,0.387,0.883,1.86,-2.38,0.15,0,1
14806.046,0.026,0.382,0.882,1.83,-1.71,0.03,0,1
14806.062,0.024,0.379,0.882,1.25,-0.85,-0.34,0,1
14806.062,0.022,0.381,0.883,0.43,-0.24,-1.04,0,1
14806.078,0.017,0.383,0.882,-0.64,-0.09,-2.01,0,1
14806.093,0.014,0.384,0.884,-1.92,0.0,-2.9,0,1
14806.093,0.012,0.385,0.886,-2.84,0.06,-3.3,0,1
14806.109,0.009,0.386,0.889,-3.11,0.37,-3.39,0,1
14806.109,0.006,0.39,0.896,-2.59,0.79,-3.17,0,1
14806.125,-0.001,0.398,0.901,-1.77,0.89,-2.84,0,1
14806.14,-0.006,0.403,0.904,-1.16,0.89,-2.26,0,1
14806.14,-0.008,0.405,0.902,-0.61,0.64,-1.71,0,1
14806.156,-0.005,0.409,0.896,-0.55,0.21,-1.34,0,1
14806.171,0.0,0.407,0.887,-0.49,0.0,-1.13,0,1
14806.171,0.005,0.407,0.879,-0.52,-0.06,-0.95,0,1
14806.187,0.007,0.408,0.87,-0.61,0.12,-0.89,0,1
14806.187,0.006,0.413,0.864,-1.19,0.73,-0.92,0,1
14806.203,0.003,0.414,0.862,-3.3,3.54,-0.27,0,1
14806.218,0.003,0.403,0.868,-3.6,5.04,0.37,0,1
14806.218,0.001,0.396,0.881,-3.08,6.16,0.43,0,1
14806.234,-0.004,0.394,0.904,-2.44,6.5,0.03,0,1
14806.25,-0.01,0.395,0.913,-2.01,6.07,-0.27,0,1
14806.25,-0.01,0.395,0.915,-1.8,5.07,-0.34,0,1
14806.265,-0.011,0.393,0.915,-1.5,4.09,-0.18,0,1
14806.281,-0.012,0.393,0.922,-1.62,3.66,-0.34,0,1
14806.281,-0.013,0.393,0.926,-1.56,3.57,-0.73,0,1
14806.296,-0.017,0.394,0.932,-1.31,3.75,-0.92,0,1
14806.312,-0.018,0.392,0.94,-0.67,3.54,-0.73,0,1
14806.312,-0.017,0.392,0.944,0.27,2.72,-0.49,0,1
14806.328,-0.018,0.391,0.941,1.28,1.31,-0.4,0,1
14806.328,-0.017,0.395,0.937,2.11,-0.03,-0.46,0,1
14806.343,-0.017,0.4,0.931,2.35,-1.01,-0.18,0,1
14806.359,-0.011,0.399,0.924,2.23,-1.68,0.12,0,1
14806.359,-0.006,0.396,0.916,2.23,-1.89,0.52,0,1
14806.375,-0.002,0.392,0.915,2.14,-1.68,0.58,0,1
14806.39,0.0,0.388,0.911,2.14,-1.28,0.55,0,1
14806.39,0.002,0.384,0.905,2.23,-0.85,0.27,0,1
14806.421,0.0,0.389,0.9,1.22,0.06,-0.67,0,1
14806.421,-0.006,0.389,0.903,0.03,0.46,-0.85,0,1
14806.437,-0.004,0.387,0.911,-1.07,0.67,-0.79,0,1
14806.437,-0.006,0.386,0.92,-1.74,0.49,-0.79,0,1
14806.453,-0.01,0.388,0.927,-1.74,0.27,-0.82,0,1
14806.468,-0.011,0.388,0.928,-1.07,-0.21,-0.95,0,1
14806.468,-0.012,0.39,0.926,-0.15,-0.76,-0.7,0,1
14806.484,-0.006,0.393,0.923,0.55,-1.01,-0.4,0,1
14806.5,-0.007,0.393,0.917,0.82,-1.04,-0.46,0,1
14806.5,-0.008,0.393,0.914,0.73,-0.89,-0.49,0,1
14806.515,-0.006,0.392,0.912,0.18,-0.61,-0.61,0,1
14806.531,-0.008,0.393,0.914,-0.27,-0.58,-0.82,0,1
14806.546,-0.014,0.399,0.918,-0.46,-0.4,-1.1,0,1
14806.546,-0.017,0.401,0.918,-0.46,-0.4,-1.22,0,1
14806.546,-0.018,0.401,0.918,0.03,-0.95,-0.89,0,1
14806.562,-0.014,0.401,0.913,0.7,-1.56,-0.52,0,1
14806.578,-0.014,0.406,0.902,1.07,-2.04,-0.46,0,1
14806.593,-0.012,0.407,0.897,0.73,-1.83,-0.58,0,1
14806.609,-0.012,0.405,0.899,-0.12,-1.46,-0.79,0,1
14806.609,-0.01,0.406,0.909,-0.7,-1.25,-0.64,0,1
14806.625,-0.005,0.387,0.902,0.52,-1.46,-0.43,0,1
14806.64,-0.007,0.38,0.897,2.35,-1.4,-1.1,0,1
14806.64,-0.012,0.405,0.897,3.51,-1.34,-0.58,0,1
14806.656,-0.004,0.392,0.892,6.53,0.24,0.06,0,1
14806.671,-0.017,0.394,0.888,9.46,2.35,0.46,0,1
14806.671,-0.024,0.42,0.882,10.5,3.75,0.4,0,1
14806.687,-0.045,0.461,0.91,7.23,3.88,1.22,0,1
14806.687,-0.024,0.463,0.892,3.69,2.04,2.96,0,1
14806.703,0.017,0.355,0.887,5.71,3.2,2.14,0,1
14806.718,-0.088,0.476,0.943,3.11,2.72,1.16,0,1
14806.718,-0.043,0.533,0.961,-3.48,-3.23,3.08,0,1
14806.734,-0.056,0.416,0.966,-2.08,-5.86,4.67,0,1
14806.75,-0.037,0.427,0.93,-1.1,-7.17,4.03,0,1
14806.75,-0.012,0.429,0.916,1.74,-3.57,4.21,0,1
14806.765,-0.031,0.397,0.922,5.28,1.16,4.94,0,1
14806.781,-0.036,0.415,0.928,6.47,3.45,5.37,0,1
14806.781,-0.036,0.416,0.928,5.74,3.17,5.19,0,1
14806.796,-0.049,0.409,0.928,3.14,0.85,4.79,0,1
14806.812,-0.049,0.406,0.926,1.04,-1.8,4.36,0,1
14806.812,-0.066,0.415,0.928,-0.18,-3.33,3.94,0,1
14806.828,-0.066,0.463,0.939,-5.19,-6.59,4.79,0,1
14806.828,-0.011,0.389,0.897,-5.37,-7.48,5.28,0,1
14806.843,-0.062,0.358,0.896,1.04,-3.02,3.33,0,1
14806.859,-0.054,0.469,0.891,-1.01,-2.84,3.39,0,1
14806.859,-0.056,0.467,0.904,-0.95,-1.53,5.8,0,1
14806.875,-0.061,0.417,0.917,1.07,-1.07,7.84,0,1
14806.89,-0.048,0.443,0.935,-3.75,-3.88,7.29,0,1
14806.89,-0.039,0.429,0.918,-8.82,-7.35,6.1,0,1
14806.906,-0.038,0.398,0.93,-9.61,-8.09,5.31,0,1
14806.921,-0.033,0.402,0.934,-5.86,-7.93,5.62,0,1
14806.921,-0.026,0.414,0.918,-1.68,-7.32,6.26,0,1
14806.937,-0.025,0.408,0.926,0.61,-6.62,6.81,0,1
14806.937,-0.037,0.418,0.914,1.8,-6.5,6.87,0,1
14806.953,-0.04,0.441,0.91,1.95,-5.62,6.99,0,1
14806.968,-0.046,0.445,0.911,0.7,-5.01,7.26,0,1
14806.968,-0.054,0.453,0.913,-1.16,-4.85,7.81,0,1
14806.984,-0.058,0.454,0.919,-2.32,-4.82,8.79,0,1
14807.0,-0.064,0.452,0.933,-2.53,-5.01,9.89,0,1
14807.0,-0.071,0.452,0.939,-1.43,-5.52,10.96,0,1
14807.015,-0.074,0.448,0.941,0.46,-6.87,12.02,0,1
14807.031,-0.075,0.451,0.942,2.72,-8.45,12.6,0,1
14807.031,-0.081,0.458,0.934,4.73,-10.5,13.09,0,1
14807.046,-0.083,0.461,0.925,6.13,-12.79,13.55,0,1
14807.062,-0.083,0.469,0.916,6.47,-14.71,13.58,0,1
14807.062,-0.084,0.477,0.913,5.86,-15.38,13.43,0,1
14807.078,-0.09,0.479,0.92,5.37,-15.38,13.64,0,1
14807.078,-0.1,0.485,0.925,5.16,-15.23,13.98,0,1
14807.093,-0.103,0.495,0.923,5.01,-15.53,14.56,0,1
14807.109,-0.105,0.502,0.925,4.85,-15.99,15.44,0,1
14807.109,-0.099,0.497,0.926,5.55,-16.51,16.24,0,1
14807.125,-0.092,0.489,0.925,7.78,-17.49,17.3,0,1
14807.14,-0.082,0.49,0.912,10.71,-19.38,18.31,0,1
14807.14,-0.08,0.481,0.892,13.49,-21.06,19.17,0,1
14807.156,-0.076,0.483,0.89,14.16,-21.73,20.33,0,1
14807.171,-0.078,0.49,0.89,13.61,-21.88,20.42,0,1
14807.171,-0.076,0.497,0.882,11.47,-22.06,20.05,0,1
14807.187,-0.069,0.502,0.882,6.01,-22.19,19.07,0,1
14807.187,-0.058,0.491,0.881,4.73,-22.61,18.86,0,1
14807.203,-0.042,0.496,0.867,4.55,-23.16,19.44,0,1
14807.218,-0.036,0.515,0.848,5.04,-23.62,20.78,0,1
14807.218,-0.023,0.5,0.836,5.07,-23.65,23.5,0,1
14807.234,0.0,0.496,0.84,5.55,-21.52,26.61,0,1
14807.25,0.015,0.462,0.843,7.6,-18.49,29.79,0,1
14807.265,0.044,0.431,0.846,11.78,-14.92,33.08,0,1
14807.265,0.059,0.416,0.842,16.33,-11.2,34.91,0,1
14807.281,0.081,0.416,0.84,19.47,-8.03,34.91,0,1
14807.281,0.099,0.419,0.828,20.42,-6.41,33.2,0,1
14807.296,0.1,0.417,0.806,18.16,-5.89,32.14,0,1
14807.312,0.11,0.419,0.815,13.09,-4.36,31.77,0,1
14807.312,0.115,0.392,0.85,7.45,-1.07,32.26,0,1
14807.328,0.127,0.35,0.88,3.85,2.35,32.44,0,1
14807.328,0.134,0.328,0.9,3.17,5.31,31.22,0,1
14807.343,0.147,0.335,0.924,3.97,7.9,28.78,0,1
14807.359,0.164,0.341,0.909,5.46,10.04,25.27,0,1
14807.359,0.164,0.355,0.899,5.31,11.32,21.67,0,1
14807.375,0.162,0.374,0.893,4.76,10.65,19.65,0,1
14807.39,0.172,0.407,0.877,1.62,8.36,18.86,0,1
14807.39,0.177,0.418,0.87,-2.29,5.4,18.4,0,1
14807.406,0.177,0.41,0.868,-5.4,1.77,18.74,0,1
14807.406,0.185,0.402,0.874,-7.93,-0.49,19.9,0,1
14807.421,0.189,0.382,0.883,-9.67,-0.79,20.97,0,1
14807.453,0.191,0.325,0.92,-12.33,4.82,22.71,0,1
14807.453,0.197,0.3,0.951,-10.1,8.27,22.46,0,1
14807.468,0.193,0.298,0.967,-5.86,9.95,20.72,0,1
14807.468,0.201,0.308,0.978,-1.1,8.97,18.34,0,1
14807.484,0.205,0.325,0.966,3.2,6.04,15.44,0,1
14807.5,0.199,0.353,0.951,3.78,1.07,12.63,0,1
14807.5,0.2,0.379,0.935,2.23,-4.97,9.7,0,1
14807.515,0.188,0.397,0.911,-1.89,-10.68,6.65,0,1
14807.531,0.176,0.406,0.904,-8.09,-15.59,3.78,0,1
14807.531,0.176,0.391,0.894,-13.55,-18.83,2.26,0,1
14807.546,0.175,0.384,0.9,-17.88,-19.68,1.04,0,1
14807.546,0.17,0.376,0.907,-19.87,-18.52,-0.49,0,1
14807.562,0.177,0.371,0.914,-19.84,-17.76,-2.26,0,1
14807.578,0.176,0.367,0.912,-16.94,-16.88,-3.63,0,1
14807.593,0.169,0.359,0.891,-12.91,-16.14,-3.78,0,1
14807.593,0.179,0.386,0.857,-12.18,-16.21,-2.96,0,1
14807.609,0.194,0.378,0.848,-12.6,-15.32,-1.77,0,1
14807.625,0.198,0.393,0.829,-10.53,-14.01,-2.44,0,1
14807.64,0.2,0.399,0.825,-9.06,-13.18,-3.05,0,1
14807.656,0.197,0.405,0.81,-9.03,-12.82,-4.18,0,1
14807.656,0.206,0.41,0.814,-10.13,-11.93,-4.18,0,1
14807.671,0.217,0.39,0.826,-10.13,-11.02,-3.6,0,1
14807.671,0.223,0.389,0.833,-8.67,-10.04,-3.3,0,1
14807.687,0.223,0.382,0.835,-5.89,-8.7,-3.11,0,1
14807.687,0.22,0.382,0.834,-2.66,-7.05,-3.14,0,1
14807.703,0.219,0.384,0.836,-0.12,-5.86,-2.84,0,1
14807.718,0.229,0.384,0.835,2.08,-5.4,-1.86,0,1
14807.718,0.24,0.381,0.831,4.03,-5.1,-0.92,0,1
14807.734,0.254,0.381,0.825,5.62,-5.34,-0.21,0,1
14807.75,0.262,0.379,0.816,6.41,-5.16,0.34,0,1
14807.75,0.267,0.373,0.817,5.52,-4.03,0.55,0,1
14807.765,0.27,0.366,0.827,3.97,-1.74,0.27,0,1
14807.781,0.256,0.362,0.856,0.06,4.64,-3.27,0,1
14807.796,0.243,0.372,0.876,-2.26,7.63,-5.55,0,1
14807.812,0.235,0.375,0.894,-3.72,9.92,-6.29,0,1
14807.812,0.231,0.381,0.907,-3.66,10.65,-5.62,0,1
14807.828,0.235,0.373,0.915,-2.93,9.98,-4.12,0,1
14807.843,0.247,0.364,0.919,-1.43,8.73,-2.59,0,1
14807.843,0.258,0.354,0.915,1.13,6.99,-1.56,0,1
14807.859,0.271,0.342,0.911,3.69,5.89,-0.31,0,1
14807.859,0.276,0.349,0.909,5.65,6.07,0.37,0,1
14807.875,0.276,0.357,0.907,5.37,6.5,0.06,0,1
14807.89,0.272,0.364,0.911,2.87,6.71,-1.04,0,1
14807.89,0.253,0.371,0.928,-1.22,7.11,-2.29,0,1
14807.906,0.245,0.376,0.949,-5.74,7.78,-3.88,0,1
14807.921,0.229,0.373,0.969,-10.25,8.24,-5.07,0,1
14807.921,0.216,0.374,0.999,-13.61,7.69,-6.01,0,1
14807.937,0.209,0.36,1.014,-14.44,5.22,-6.16,0,1
14807.937,0.216,0.349,1.017,-12.45,1.62,-5.01,0,1
14807.953,0.215,0.342,1.01,-8.42,-3.48,-3.23,0,1
14807.968,0.224,0.335,0.984,-4.46,-9.52,-1.56,0,1
14807.968,0.233,0.336,0.953,-1.56,-14.04,-0.95,0,1
14807.984,0.237,0.339,0.921,-0.76,-16.36,-1.01,0,1
14808.0,0.215,0.354,0.902,-2.47,-15.93,-1.83,0,1
14808.0,0.211,0.356,0.903,-6.53,-13.73,-2.59,0,1
14808.015,0.217,0.347,0.909,-10.22,-10.99,-2.41,0,1
14808.031,0.214,0.353,0.92,-10.68,-7.84,-2.23,0,1
14808.031,0.203,0.357,0.921,-10.71,-5.8,-1.74,0,1
14808.046,0.205,0.36,0.913,-11.08,-4.27,-0.73,0,1
14808.046,0.206,0.367,0.91,-11.41,-2.47,1.07,0,1
14808.062,0.215,0.364,0.904,-11.38,-0.15,3.08,0,1
14808.078,0.217,0.352,0.89,-11.29,2.87,4.88,0,1
14808.093,0.235,0.338,0.879,-12.76,6.1,6.87,0,1
14808.093,0.262,0.335,0.876,-14.07,10.13,8.12,0,1
14808.109,0.274,0.323,0.868,-14.13,14.92,8.61,0,1
14808.109,0.28,0.305,0.857,-14.4,20.72,8.64,0,1
14808.125,0.289,0.288,0.855,-15.14,27.01,8.03,0,1
14808.14,0.278,0.273,0.858,-14.86,34.39,6.99,0,1
14808.156,0.259,0.278,0.873,-14.8,40.83,6.41,0,1
14808.156,0.237,0.295,0.897,-16.24,44.95,7.05,0,1
14808.171,0.218,0.291,0.923,-14.62,44.53,12.82,0,1
14808.171,0.2,0.292,0.951,-10.99,40.31,15.14,0,1
14808.187,0.182,0.306,0.97,-7.9,34.49,15.72,0,1
14808.203,0.166,0.324,0.983,-6.1,27.86,15.93,0,1
14808.203,0.14,0.347,0.986,-4.33,21.39,15.72,0,1
14808.218,0.12,0.36,0.977,-2.59,16.27,14.92,0,1
14808.218,0.095,0.374,0.982,-2.08,11.96,13.98,0,1
14808.234,0.064,0.381,0.974,-2.66,7.51,13.18,0,1
14808.25,0.048,0.389,0.956,-3.27,4.27,12.85,0,1
14808.265,0.037,0.395,0.948,-3.42,2.72,12.91,0,1
14808.265,0.021,0.4,0.944,-3.42,1.25,12.54,0,1
14808.281,0.014,0.405,0.936,-4.03,-0.49,12.48,0,1
14808.281,0.013,0.399,0.933,-4.33,-2.11,13.25,0,1
14808.296,0.012,0.391,0.923,-4.06,-3.27,14.13,0,1
14808.312,0.008,0.386,0.907,-3.88,-4.24,14.31,0,1
14808.312,0.007,0.384,0.89,-4.33,-4.76,13.61,0,1
14808.328,0.006,0.382,0.877,-5.71,-5.22,12.36,0,1
14808.328,0.007,0.379,0.866,-7.17,-5.89,10.99,0,1
14808.343,0.005,0.38,0.855,-8.58,-6.74,10.32,0,1
14808.359,0.003,0.384,0.842,-9.58,-7.72,10.38,0,1
14808.359,0.011,0.389,0.846,-9.8,-8.36,10.19,0,1
14808.375,0.021,0.386,0.837,-8.3,-8.79,9.67,0,1
14808.39,0.028,0.381,0.832,-6.32,-8.12,9.09,0,1
14808.39,0.037,0.38,0.831,-4.58,-6.32,8.64,0,1
14808.406,0.042,0.375,0.829,-3.3,-3.91,7.81,0,1
14808.421,0.049,0.364,0.836,-2.08,-1.01,6.74,0,1
14808.421,0.061,0.363,0.848,-0.92,1.92,5.16,0,1
14808.437,0.073,0.359,0.857,0.79,4.09,3.85,0,1
14808.437,0.077,0.356,0.872,3.23,4.82,3.14,0,1
14808.453,0.084,0.354,0.888,6.65,4.55,2.5,0,1
14808.468,0.097,0.344,0.895,10.35,3.72,1.8,0,1
14808.468,0.107,0.342,0.901,13.79,3.14,0.76,0,1
14808.484,0.105,0.323,0.909,16.66,2.38,-0.09,0,1
14808.5,0.118,0.337,0.913,18.59,1.25,-1.83,0,1
14808.5,0.128,0.337,0.909,20.08,0.46,-3.69,0,1
14808.515,0.134,0.338,0.912,21.03,0.89,-5.13,0,1
14808.531,0.13,0.345,0.913,21.36,1.8,-5.95,0,1
14808.531,0.126,0.355,0.921,20.91,3.02,-6.35,0,1
14808.546,0.123,0.358,0.935,19.47,4.39,-6.35,0,1
14808.546,0.121,0.355,0.947,17.18,5.4,-5.49,0,1
14808.562,0.126,0.359,0.959,14.98,6.01,-4.43,0,1
14808.578,0.134,0.362,0.966,13.4,6.78,-3.45,0,1
14808.578,0.134,0.372,0.97,11.32,7.26,-2.2,0,1
14808.593,0.133,0.39,0.971,8.27,7.6,-1.04,0,1
14808.609,0.135,0.392,0.973,4.09,7.29,0.37,0,1
14808.609,0.144,0.395,0.982,-0.55,6.84,2.11,0,1
14808.625,0.144,0.394,0.982,-4.85,6.26,3.23,0,1
14808.64,0.138,0.385,0.994,-12.51,5.89,4.09,0,1
14808.656,0.13,0.386,0.998,-14.62,5.52,4.33,0,1
14808.671,0.126,0.381,1.002,-15.99,4.7,4.88,0,1
14808.671,0.117,0.386,1.006,-16.54,3.6,5.58,0,1
14808.687,0.106,0.388,1.005,-16.24,1.43,6.13,0,1
14808.703,0.101,0.386,0.996,-15.44,-1.8,7.08,0,1
14808.703,0.103,0.393,0.98,-14.62,-5.19,7.97,0,1
14808.718,0.107,0.39,0.963,-14.1,-8.48,8.3,0,1
14808.718,0.108,0.381,0.947,-13.82,-11.14,8.36,0,1
14808.734,0.104,0.373,0.938,-12.97,-12.15,8.51,0,1
14808.75,0.101,0.361,0.927,-12.12,-12.21,8.97,0,1
14808.75,0.102,0.35,0.923,-10.99,-11.26,9.31,0,1
14808.765,0.099,0.337,0.925,-8.7,-9.77,9.86,0,1
14808.781,0.101,0.336,0.926,-6.1,-8.42,10.32,0,1
14808.781,0.104,0.343,0.927,-3.91,-7.45,10.8,0,1
14808.796,0.115,0.34,0.927,-1.95,-7.51,11.81,0,1
14808.812,0.143,0.344,0.92,1.37,-8.58,13.4,0,1
14808.828,0.153,0.347,0.911,1.77,-9.34,13.25,0,1
14808.828,0.156,0.348,0.902,0.82,-10.07,12.94,0,1
14808.843,0.167,0.342,0.899,-1.34,-10.41,12.36,0,1
14808.859,0.175,0.329,0.896,-3.72,-10.59,11.6,0,1
14808.859,0.182,0.309,0.896,-5.1,-10.5,11.08,0,1
14808.875,0.19,0.3,0.899,-5.25,-9.4,10.62,0,1
14808.89,0.196,0.29,0.898,-4.33,-7.45,10.38,0,1
14808.89,0.209,0.291,0.906,-2.69,-5.04,10.13,0,1
14808.906,0.206,0.291,0.908,-0.95,-2.5,10.22,0,1
14808.906,0.207,0.283,0.915,-0.06,-1.46,11.17,0,1
14808.921,0.22,0.288,0.922,0.89,-1.25,12.45,0,1
14808.937,0.218,0.29,0.914,2.72,-0.92,12.57,0,1
14808.937,0.212,0.288,0.907,2.38,-0.85,12.15,0,1
14808.953,0.212,0.288,0.903,0.03,-1.19,11.44,0,1
14808.968,0.208,0.294,0.902,-2.78,-1.92,9.95,0,1
14808.984,0.186,0.293,0.904,-9.34,-2.56,6.35,0,1
14809.0,0.182,0.285,0.915,-11.63,-2.41,5.62,0,1
14809.0,0.183,0.282,0.923,-10.9,-1.37,5.4,0,1
14809.015,0.172,0.284,0.926,-8.03,0.46,4.73,0,1
14809.031,0.156,0.286,0.927,-5.58,1.83,3.69,0,1
14809.031,0.149,0.291,0.931,-4.18,1.62,3.54,0,1
14809.046,0.142,0.303,0.928,-3.48,0.12,3.91,0,1
14809.062,0.144,0.311,0.923,-4.12,-1.83,3.75,0,1
14809.062,0.149,0.309,0.921,-5.71,-3.54,3.3,0,1
14809.078,0.153,0.306,0.921,-7.02,-4.27,2.56,0,1
14809.078,0.155,0.305,0.922,-7.75,-3.75,1.95,0,1
14809.093,0.158,0.296,0.927,-7.72,-2.5,1.74,0,1
14809.109,0.16,0.291,0.929,-7.17,-0.79,1.74,0,1
14809.109,0.161,0.291,0.936,-6.32,1.1,1.4,0,1
14809.125,0.159,0.285,0.932,-4.88,2.59,0.85,0,1
14809.14,0.161,0.289,0.933,-3.57,3.75,0.76,0,1
14809.14,0.165,0.292,0.931,-2.11,4.64,1.4,0,1
14809.156,0.164,0.291,0.93,-2.47,5.43,1.43,0,1
14809.171,0.163,0.288,0.931,-4.0,6.38,0.34,0,1
14809.171,0.169,0.282,0.933,-6.35,7.23,-1.8,0,1
14809.187,0.171,0.276,0.942,-8.7,7.78,-4.46,0,1
14809.187,0.167,0.276,0.944,-10.62,7.72,-6.9,0,1
14809.203,0.166,0.275,0.948,-11.75,6.96,-8.55,0,1
14809.218,0.164,0.279,0.948,-11.38,6.07,-9.19,0,1
14809.218,0.156,0.283,0.945,-9.98,4.52,-8.88,0,1
14809.234,0.152,0.285,0.944,-7.81,3.05,-8.0,0,1
14809.25,0.145,0.291,0.941,-5.43,1.74,-6.62,0,1
14809.265,0.14,0.297,0.939,-3.54,0.64,-5.55,0,1
14809.265,0.138,0.295,0.934,-2.47,0.0,-5.25,0,1
14809.281,0.135,0.295,0.933,-2.2,-0.21,-5.43,0,1
14809.281,0.135,0.299,0.929,-2.2,-0.55,-5.92,0,1
14809.296,0.135,0.303,0.926,-2.29,-1.37,-6.2,0,1
14809.296,0.14,0.306,0.926,-2.17,-2.66,-6.32,0,1
14809.312,0.144,0.308,0.923,-1.62,-3.85,-6.16,0,1
14809.328,0.144,0.307,0.918,-0.61,-4.67,-5.77,0,1
14809.328,0.143,0.308,0.914,0.61,-4.7,-5.46,0,1
14809.343,0.146,0.31,0.909,1.71,-4.15,-5.31,0,1
14809.359,0.146,0.31,0.908,2.47,-3.14,-4.91,0,1
14809.359,0.146,0.309,0.91,2.56,-2.17,-4.36,0,1
14809.375,0.143,0.305,0.911,2.72,-1.28,-3.69,0,1
14809.39,0.14,0.3,0.914,2.93,-0.46,-2.93,0,1
14809.39,0.142,0.299,0.919,3.23,0.55,-2.62,0,1
14809.406,0.144,0.298,0.921,3.02,1.71,-3.11,0,1
14809.406,0.138,0.301,0.925,2.29,2.87,-3.66,0,1
14809.421,0.135,0.298,0.931,1.25,3.81,-3.94,0,1
14809.437,0.135,0.295,0.937,0.4,4.7,-3.88,0,1
14809.437,0.133,0.294,0.942,0.09,5.49,-3.57,0,1
14809.453,0.133,0.294,0.945,0.09,6.2,-3.23,0,1
14809.468,0.131,0.297,0.947,0.37,6.87,-2.96,0,1
14809.484,0.133,0.302,0.951,0.49,7.29,-2.72,0,1
14809.484,0.135,0.302,0.951,0.37,7.42,-2.32,0,1
14809.5,0.132,0.303,0.953,0.18,6.87,-1.19,0,1
14809.515,0.134,0.302,0.953,-0.15,6.13,-0.82,0,1
14809.531,0.127,0.302,0.953,-0.61,5.68,-0.64,0,1
14809.531,0.124,0.298,0.956,-1.28,5.37,-0.52,0,1
14809.546,0.119,0.293,0.958,-1.95,5.13,-0.64,0,1
14809.562,0.11,0.293,0.958,-2.56,5.1,-1.01,0,1
14809.562,0.108,0.291,0.961,-2.99,4.88,-1.16,0,1
14809.578,0.109,0.284,0.965,-3.14,4.43,-1.01,0,1
14809.593,0.11,0.281,0.967,-2.29,3.72,-0.55,0,1
14809.593,0.106,0.279,0.966,-1.13,3.14,-0.18,0,1
14809.609,0.108,0.276,0.964,0.24,2.59,0.03,0,1
14809.609,0.107,0.281,0.96,1.19,1.98,-0.12,0,1
14809.625,0.104,0.287,0.956,1.04,1.13,-0.64,0,1
14809.64,0.103,0.288,0.95,0.24,0.06,-1.16,0,1
14809.64,0.103,0.287,0.945,-0.64,-0.95,-1.4,0,1
14809.656,0.105,0.285,0.943,-1.01,-1.89,-1.31,0,1
14809.671,0.114,0.279,0.939,-1.01,-2.38,-1.25,0,1
14809.671,0.121,0.276,0.934,-0.24,-2.08,-1.07,0,1
14809.687,0.12,0.276,0.929,0.85,-1.04,-1.01,0,1
14809.703,0.116,0.281,0.93,1.16,0.4,-1.34,0,1
14809.703,0.118,0.278,0.93,0.79,1.8,-1.68,0,1
14809.718,0.118,0.278,0.937,0.27,2.99,-2.2,0,1
14809.718,0.119,0.281,0.941,0.03,3.45,-2.56,0,1
14809.734,0.121,0.286,0.944,-0.09,3.36,-3.08,0,1
14809.75,0.122,0.286,0.945,-0.06,2.87,-3.27,0,1
14809.75,0.116,0.294,0.946,0.0,2.35,-3.39,0,1
14809.765,0.111,0.3,0.946,-0.21,2.26,-3.54,0,1
14809.781,0.108,0.303,0.949,-1.1,2.53,-3.66,0,1
14809.781,0.102,0.303,0.953,-2.11,2.56,-3.54,0,1
14809.796,0.096,0.305,0.96,-2.53,2.62,-3.3,0,1
14809.796,0.094,0.299,0.962,-2.5,2.41,-2.84,0,1
14809.812,0.091,0.296,0.964,-1.62,2.14,-2.23,0,1
14809.828,0.092,0.298,0.965,-0.31,1.59,-1.53,0,1
14809.828,0.097,0.297,0.961,0.98,1.1,-1.04,0,1
14809.843,0.104,0.296,0.956,1.65,0.34,-0.52,0,1
14809.859,0.104,0.299,0.95,1.92,-0.37,-0.37,0,1
14809.859,0.105,0.303,0.945,1.5,-1.16,-0.85,0,1
14809.875,0.108,0.299,0.942,0.43,-1.74,-1.13,0,1
14809.89,0.109,0.297,0.941,-0.49,-1.89,-1.1,0,1
14809.89,0.106,0.3,0.942,-0.89,-1.65,-1.34,0,1
14809.906,0.103,0.299,0.943,-1.37,-1.19,-1.74,0,1
14809.906,0.095,0.298,0.946,-1.89,-0.55,-1.92,0,1
14809.921,0.093,0.298,0.951,-1.95,0.06,-1.65,0,1
14809.937,0.09,0.299,0.954,-1.56,0.15,-1.07,0,1
14809.937,0.091,0.298,0.955,-1.13,0.15,-0.37,0,1
14809.953,0.094,0.296,0.954,-0.21,-0.06,0.27,0,1
14809.968,0.094,0.298,0.948,0.49,-0.27,0.61,0,1
14809.968,0.095,0.301,0.944,1.01,-0.43,0.7,0,1
14809.984,0.091,0.303,0.943,1.04,-0.49,0.95,0,1
14810.0,0.097,0.303,0.942,0.52,-0.27,1.43,0,1
14810.0,0.097,0.299,0.941,0.0,0.34,1.8,0,1
14810.031,0.1,0.289,0.944,-0.7,1.37,1.16,0,1
14810.031,0.098,0.287,0.947,-1.1,1.86,0.55,0,1
14810.046,0.096,0.286,0.949,-1.43,2.11,0.21,0,1
14810.062,0.095,0.282,0.951,-1.53,2.2,0.21,0,1
14810.062,0.096,0.28,0.951,-1.31,2.04,0.31,0,1
14810.078,0.097,0.282,0.951,-1.1,1.65,0.21,0,1
14810.078,0.096,0.284,0.947,-1.19,0.98,0.15,0,1
14810.093,0.101,0.284,0.946,-1.34,0.37,-0.15,0,1
14810.109,0.101,0.285,0.945,-1.53,-0.24,-0.18,0,1
14810.125,0.104,0.282,0.944,-1.37,-0.52,-0.06,0,1
14810.125,0.106,0.282,0.944,-1.25,-0.43,-0.52,0,1
14810.14,0.11,0.283,0.942,-0.98,-0.15,-0.58,0,1
14810.14,0.11,0.283,0.941,-0.55,-0.06,-0.37,0,1
14810.156,0.109,0.285,0.94,-0.12,0.4,-0.09,0,1
14810.171,0.107,0.29,0.94,0.09,1.01,-0.18,0,1
14810.171,0.103,0.294,0.941,0.03,1.34,-0.4,0,1
14810.187,0.103,0.296,0.941,-0.21,1.68,-0.37,0,1
14810.203,0.1,0.301,0.946,-0.52,1.59,-0.09,0,1
14810.203,0.097,0.305,0.953,-0.55,1.22,0.34,0,1
14810.218,0.093,0.306,0.957,-0.24,0.85,1.34,0,1
14810.234,0.091,0.306,0.961,0.73,0.27,3.02,0,1
14810.234,0.088,0.304,0.962,2.38,-0.27,4.7,0,1
14810.25,0.087,0.304,0.961,3.91,-0.64,6.01,0,1
14810.25,0.087,0.304,0.957,4.88,-1.16,7.26,0,1
14810.265,0.087,0.305,0.952,5.07,-1.59,7.6,0,1
14810.281,0.089,0.305,0.949,4.64,-2.04,7.26,0,1
14810.281,0.094,0.303,0.944,3.57,-2.32,6.68,0,1
14810.296,0.095,0.297,0.944,2.53,-2.23,5.95,0,1
14810.312,0.099,0.294,0.941,1.68,-2.01,5.25,0,1
14810.312,0.1,0.291,0.939,1.22,-1.68,4.46,0,1
14810.328,0.098,0.288,0.939,1.07,-1.04,3.85,0,1
14810.343,0.096,0.286,0.942,1.04,-0.31,3.69,0,1
14810.343,0.094,0.286,0.944,1.1,0.55,3.85,0,1
14810.359,0.093,0.285,0.948,1.5,1.28,4.21,0,1
14810.359,0.094,0.283,0.952,2.2,1.83,4.88,0,1
14810.375,0.092,0.287,0.955,2.72,1.92,5.25,0,1
14810.39,0.095,0.288,0.959,3.14,1.4,5.34,0,1
14810.39,0.097,0.285,0.956,3.14,0.55,5.19,0,1
14810.406,0.098,0.285,0.953,2.99,-0.55,4.79,0,1
14810.421,0.1,0.285,0.95,2.26,-1.59,3.97,0,1
14810.421,0.107,0.283,0.947,1.01,-2.44,2.5,0,1
14810.437,0.105,0.279,0.941,0.0,-2.81,1.01,0,1
14810.437,0.104,0.28,0.941,-0.92,-2.69,-0.09,0,1
14810.453,0.104,0.281,0.945,-1.37,-2.11,-0.82,0,1
14810.468,0.104,0.285,0.944,-1.71,-1.62,-1.04,0,1
14810.468,0.108,0.283,0.938,0.09,-0.31,-0.82,0,1
14810.484,0.104,0.29,0.944,1.16,0.49,-0.55,0,1
14810.5,0.111,0.296,0.939,1.22,0.58,-0.21,0,1
14810.5,0.111,0.292,0.939,1.77,0.85,0.24,0,1
14810.515,0.108,0.295,0.94,1.83,0.67,0.4,0,1
14810.531,0.105,0.296,0.937,1.34,0.46,0.03,0,1
14810.531,0.104,0.297,0.941,0.4,0.55,-0.61,0,1
14810.546,0.103,0.3,0.944,-0.64,0.43,-1.13,0,1
14810.562,0.102,0.3,0.945,-1.43,0.27,-1.56,0,1
14810.562,0.099,0.299,0.949,-1.77,0.18,-1.4,0,1
14810.578,0.099,0.297,0.95,-1.65,0.15,-1.19,0,1
14810.578,0.093,0.296,0.95,-1.01,0.03,-0.89,0,1
14810.593,0.094,0.298,0.95,-0.24,0.09,-0.73,0,1
14810.609,0.092,0.3,0.949,0.37,0.12,-0.61,0,1
14810.609,0.09,0.303,0.948,0.61,0.18,0.0,0,1
14810.625,0.089,0.307,0.95,0.67,0.15,0.24,0,1
14810.64,0.087,0.304,0.948,0.7,-0.09,0.52,0,1
14810.64,0.087,0.304,0.946,0.49,-0.43,0.7,0,1
14810.656,0.088,0.303,0.947,0.15,-0.43,0.73,0,1
14810.671,0.092,0.299,0.946,-0.31,-0.49,0.79,0,1
14810.671,0.092,0.297,0.947,-0.49,-0.4,0.85,0,1
14810.687,0.094,0.298,0.95,-0.06,-0.21,1.16,0,1
14810.687,0.097,0.294,0.949,0.34,-0.06,1.19,0,1
14810.703,0.099,0.292,0.946,0.58,0.24,1.25,0,1
14810.718,0.098,0.29,0.947,0.67,0.4,1.19,0,1
14810.718,0.094,0.289,0.946,0.98,0.31,1.19,0,1
14810.734,0.097,0.287,0.943,0.7,0.18,0.92,0,1
14810.75,0.098,0.283,0.943,0.0,0.0,0.37,0,1
14810.765,0.096,0.281,0.944,-0.52,-0.09,-0.12,0,1
14810.765,0.094,0.285,0.945,-0.64,0.03,-0.67,0,1
14810.781,0.094,0.287,0.949,-0.58,0.31,-0.95,0,1
14810.781,0.092,0.288,0.949,-0.27,0.55,-0.92,0,1
14810.796,0.094,0.294,0.951,0.21,0.43,-0.85,0,1
14810.812,0.094,0.297,0.952,0.52,0.0,-1.01,0,1
14810.812,0.091,0.303,0.95,0.46,-0.64,-1.1,0,1
14810.828,0.091,0.305,0.949,0.03,-1.13,-0.89,0,1
14810.828,0.094,0.303,0.948,-0.06,-1.31,-0.55,0,1
14810.843,0.094,0.301,0.943,0.03,-1.07,-0.31,0,1
14810.859,0.095,0.302,0.944,0.49,-0.67,0.12,0,1
14810.875,0.094,0.301,0.943,1.07,-0.21,0.37,0,1
14810.875,0.097,0.303,0.943,0.92,0.12,0.43,0,1
14810.89,0.095,0.306,0.944,0.4,0.21,0.27,0,1
14810.89,0.093,0.308,0.948,-0.76,0.0,-0.18,0,1
14810.906,0.091,0.302,0.95,-1.95,-0.12,-0.37,0,1
14810.906,0.089,0.299,0.953,-2.2,-0.15,-0.09,0,1
14810.921,0.087,0.3,0.956,-1.53,-0.21,0.34,0,1
14810.937,0.083,0.3,0.956,-0.61,-0.09,0.64,0,1
14810.953,0.085,0.301,0.955,-0.06,0.0,0.79,0,1
14810.953,0.084,0.3,0.956,0.31,-0.24,0.89,0,1
14810.968,0.082,0.301,0.955,0.06,-0.49,1.01,0,1
14810.984,0.085,0.299,0.954,-0.31,-1.07,1.16,0,1
14810.984,0.09,0.298,0.954,-0.4,-1.46,1.25,0,1
14811.0,0.094,0.297,0.952,-0.4,-1.5,1.13,0,1
14811.0,0.095,0.295,0.95,-0.52,-1.71,0.98,0,1
14811.015,0.094,0.294,0.95,-0.67,-1.8,1.01,0,1
14811.031,0.089,0.298,0.952,-1.04,-1.71,0.89,0,1
14811.031,0.089,0.296,0.952,-1.62,-1.86,0.64,0,1
14811.046,0.088,0.29,0.951,-1.56,-1.92,0.82,0,1
14811.062,0.085,0.29,0.952,-0.7,-1.95,1.04,0,1
14811.062,0.086,0.289,0.951,0.15,-2.01,1.46,0,1
14811.078,0.09,0.287,0.946,0.89,-2.11,1.56,0,1
14811.078,0.094,0.288,0.94,1.31,-2.32,1.56,0,1
14811.093,0.096,0.288,0.938,1.19,-2.11,1.34,0,1
14811.109,0.099,0.287,0.935,-0.12,-2.11,0.37,0,1
14811.109,0.102,0.287,0.933,-0.27,-1.92,0.24,0,1
14811.125,0.107,0.285,0.931,-0.15,-1.4,-0.09,0,1
14811.14,0.103,0.289,0.933,0.03,-0.76,-0.27,0,1
14811.14,0.1,0.291,0.93,0.0,-0.03,-0.4,0,1
14811.156,0.097,0.294,0.935,-0.18,0.4,-0.37,0,1
14811.171,0.096,0.294,0.938,-0.49,0.82,-0.49,0,1
14811.171,0.099,0.292,0.939,-0.61,1.19,-0.37,0,1
14811.187,0.099,0.292,0.944,-0.43,1.07,-0.31,0,1
14811.187,0.097,0.292,0.944,0.15,1.04,-0.15,0,1
14811.203,0.097,0.296,0.941,0.49,1.31,-0.18,0,1
14811.218,0.096,0.297,0.943,0.34,1.5,-0.31,0,1
14811.218,0.092,0.3,0.946,0.03,1.77,-0.52,0,1
14811.234,0.091,0.303,0.949,-0.55,1.95,-0.61,0,1
14811.25,0.091,0.3,0.954,-1.1,1.77,-0.73,0,1
14811.25,0.088,0.301,0.958,-1.28,1.31,-0.58,0,1
14811.265,0.087,0.302,0.962,-0.98,0.61,-0.09,0,1
14811.281,0.085,0.299,0.961,-0.4,0.06,0.37,0,1
14811.281,0.083,0.299,0.958,0.09,-0.24,0.85,0,1
14811.296,0.081,0.298,0.958,0.49,-0.49,1.19,0,1
14811.296,0.08,0.296,0.957,0.85,-0.46,1.53,0,1
14811.312,0.08,0.297,0.956,0.79,-0.49,1.65,0,1
14811.328,0.083,0.296,0.955,0.34,-0.76,1.65,0,1
14811.328,0.086,0.293,0.954,-0.31,-1.22,1.4,0,1
14811.343,0.091,0.292,0.956,-0.7,-1.71,1.1,0,1
14811.359,0.093,0.289,0.953,-0.79,-1.92,0.82,0,1
14811.359,0.095,0.286,0.949,-0.37,-1.92,0.85,0,1
14811.375,0.093,0.286,0.951,0.18,-1.5,0.73,0,1
14811.39,0.091,0.287,0.949,0.55,-1.1,0.43,0,1
14811.406,0.089,0.29,0.948,0.21,-0.76,0.06,0,1
14811.406,0.087,0.292,0.95,-0.64,-0.7,-0.46,0,1
14811.406,0.087,0.293,0.95,-1.4,-1.01,-0.73,0,1
14811.421,0.088,0.295,0.954,-1.62,-1.34,-0.7,0,1
14811.437,0.087,0.296,0.954,-1.28,-1.46,-0.43,0,1
14811.453,0.086,0.297,0.952,-1.07,-1.43,-0.31,0,1
14811.453,0.082,0.303,0.953,-0.92,-1.4,-0.27,0,1
14811.468,0.08,0.305,0.953,-1.22,-1.71,-0.18,0,1
14811.468,0.078,0.305,0.95,-1.5,-2.32,0.09,0,1
14811.484,0.079,0.304,0.951,-1.53,-2.84,0.37,0,1
14811.5,0.081,0.303,0.952,-1.25,-3.23,0.55,0,1
14811.515,0.085,0.302,0.948,-0.85,-3.63,0.95,0,1
14811.515,0.088,0.303,0.943,-0.37,-3.81,1.25,0,1
14811.531,0.094,0.303,0.938,0.03,-3.63,1.4,0,1
14811.531,0.096,0.299,0.936,0.09,-3.39,1.62,0,1
14811.546,0.099,0.296,0.936,0.12,-2.84,1.92,0,1
14811.562,0.102,0.294,0.934,0.18,-2.38,2.04,0,1
14811.562,0.102,0.294,0.936,0.15,-1.68,2.04,0,1
14811.578,0.098,0.291,0.936,0.06,-1.25,1.92,0,1
14811.578,0.094,0.287,0.94,0.0,-0.89,2.04,0,1
14811.593,0.092,0.285,0.945,-0.18,-0.58,2.29,0,1
14811.609,0.094,0.279,0.946,-0.06,-0.24,2.53,0,1
14811.609,0.095,0.279,0.95,0.31,0.0,2.38,0,1
14811.625,0.098,0.279,0.951,0.64,0.12,1.95,0,1
14811.64,0.097,0.282,0.951,0.85,0.0,1.22,0,1
14811.64,0.093,0.287,0.951,0.46,-0.18,0.46,0,1
14811.656,0.09,0.289,0.952,-0.27,-0.73,0.09,0,1
14811.671,0.088,0.289,0.954,-0.7,-1.68,-0.15,0,1
14811.671,0.089,0.288,0.952,-0.73,-2.44,-0.12,0,1
14811.687,0.09,0.287,0.952,-0.31,-2.62,-0.09,0,1
14811.703,0.09,0.286,0.95,0.52,-2.47,0.12,0,1
14811.703,0.092,0.29,0.949,0.95,-2.26,0.06,0,1
14811.718,0.097,0.291,0.946,0.79,-2.04,0.0,0,1
14811.718,0.095,0.292,0.944,0.31,-1.83,-0.15,0,1
14811.734,0.096,0.291,0.945,-0.12,-1.77,-0.37,0,1
14811.75,0.097,0.289,0.946,-0.49,-1.68,-0.61,0,1
14811.75,0.097,0.288,0.944,-0.24,-1.71,-0.55,0,1
14811.765,0.098,0.288,0.944,0.24,-1.68,-0.21,0,1
14811.781,0.096,0.288,0.945,0.67,-1.68,-0.03,0,1
14811.781,0.097,0.292,0.943,0.64,-1.4,-0.46,0,1
14811.796,0.099,0.293,0.946,0.12,-1.22,-0.79,0,1
14811.812,0.099,0.292,0.946,-0.37,-1.37,-0.95,0,1
14811.812,0.096,0.293,0.949,-0.27,-1.4,-0.95,0,1
14811.828,0.097,0.295,0.952,-0.31,-1.43,-0.92,0,1
14811.828,0.094,0.295,0.952,-0.24,-1.5,-0.82,0,1
14811.843,0.093,0.296,0.952,-0.24,-1.68,-0.58,0,1
14811.859,0.093,0.295,0.953,0.06,-1.74,-0.27,0,1
14811.859,0.094,0.292,0.95,0.43,-1.92,0.18,0,1
14811.875,0.097,0.292,0.949,0.73,-1.86,0.27,0,1
14811.89,0.099,0.291,0.948,0.82,-1.68,0.0,0,1
14811.89,0.1,0.293,0.948,0.82,-1.43,-0.31,0,1
14811.906,0.099,0.293,0.945,0.49,-1.43,-0.37,0,1
14811.921,0.102,0.294,0.948,-0.18,-1.59,-0.7,0,1
14811.921,0.098,0.293,0.947,-0.73,-1.92,-1.01,0,1
14811.937,0.098,0.294,0.945,-1.01,-2.08,-0.98,0,1
14811.937,0.098,0.291,0.95,-0.89,-2.14,-0.79,0,1
14811.953,0.095,0.297,0.947,-0.92,-2.17,-0.55,0,1
14811.968,0.098,0.291,0.945,0.03,-0.98,-0.31,0,1
14811.968,0.094,0.296,0.951,-0.03,-0.15,-0.24,0,1
14811.984,0.096,0.3,0.948,-0.43,-0.12,-0.24,0,1
14812.0,0.098,0.294,0.95,-0.4,0.12,-0.03,0,1
14812.0,0.099,0.294,0.951,-0.21,-0.37,0.21,0,1
14812.015,0.098,0.292,0.948,0.12,-0.82,0.67,0,1
14812.031,0.097,0.29,0.947,0.27,-1.04,0.76,0,1
14812.031,0.098,0.29,0.946,0.21,-1.25,0.73,0,1
14812.046,0.097,0.287,0.943,0.12,-1.19,0.52,0,1
14812.046,0.095,0.287,0.943,-0.34,-0.73,0.09,0,1
14812.062,0.096,0.286,0.947,-0.85,-0.37,-0.21,0,1
14812.078,0.098,0.282,0.951,-0.85,-0.43,-0.55,0,1
14812.078,0.095,0.286,0.952,-0.09,-0.67,-0.64,0,1
14812.093,0.094,0.286,0.952,0.09,-0.89,-0.64,0,1
14812.109,0.093,0.285,0.947,0.0,-1.13,-0.73,0,1
14812.109,0.09,0.29,0.948,-0.24,-1.16,-0.73,0,1
14812.125,0.09,0.291,0.949,-0.7,-1.16,-0.7,0,1
14812.14,0.095,0.286,0.953,-0.82,-0.82,-0.61,0,1
14812.14,0.096,0.284,0.954,-0.31,-0.61,-0.52,0,1
14812.156,0.097,0.29,0.954,0.46,-0.7,-0.73,0,1
14812.156,0.094,0.291,0.952,0.55,-0.92,-0.79,0,1
14812.171,0.095,0.288,0.952,0.37,-1.07,-0.73,0,1
14812.187,0.096,0.29,0.954,0.31,-1.1,-0.76,0,1
14812.203,0.099,0.29,0.953,-0.03,-1.22,-1.01,0,1
14812.203,0.1,0.289,0.953,-0.37,-1.25,-1.65,0,1
14812.218,0.099,0.292,0.956,-0.7,-1.25,-1.98,0,1
14812.218,0.096,0.294,0.958,-0.92,-1.5,-2.08,0,1
14812.234,0.094,0.295,0.961,-1.04,-2.08,-1.83,0,1
14812.25,0.092,0.293,0.96,-0.79,-2.72,-1.31,0,1
14812.265,0.094,0.291,0.955,-0.34,-3.57,-0.95,0,1
14812.265,0.094,0.292,0.952,0.09,-4.12,-0.92,0,1
14812.281,0.09,0.294,0.947,0.12,-4.15,-1.01,0,1
14812.281,0.089,0.298,0.943,-0.34,-3.97,-1.25,0,1
14812.296,0.088,0.299,0.944,-1.13,-3.81,-1.4,0,1
14812.312,0.089,0.3,0.949,-1.68,-3.57,-1.28,0,1
14812.312,0.092,0.298,0.948,-1.5,-3.81,-1.13,0,1
14812.328,0.092,0.298,0.948,-0.73,-4.18,-0.95,0,1
14812.328,0.096,0.297,0.946,-0.03,-4.3,-0.7,0,1
14812.343,0.097,0.298,0.942,0.61,-4.18,-0.21,0,1
14812.359,0.098,0.295,0.939,1.04,-3.66,0.37,0,1
14812.359,0.098,0.29,0.937,1.13,-2.99,0.76,0,1
14812.375,0.098,0.291,0.936,1.01,-2.2,0.79,0,1
14812.39,0.098,0.288,0.937,0.55,-1.56,0.46,0,1
14812.39,0.099,0.289,0.941,-0.15,-1.04,0.12,0,1
14812.406,0.099,0.286,0.941,-0.52,-0.76,0.0,0,1
14812.421,0.101,0.284,0.943,-0.61,-0.67,0.09,0,1
14812.421,0.104,0.285,0.946,-0.43,-0.58,-0.15,0,1
14812.437,0.104,0.287,0.95,-0.31,-0.61,-0.55,0,1
14812.453,0.099,0.287,0.952,-0.27,-0.82,-0.95,0,1
14812.453,0.097,0.29,0.953,-0.31,-1.25,-0.79,0,1
14812.468,0.097,0.29,0.953,-0.4,-1.65,-0.52,0,1
14812.468,0.097,0.29,0.955,0.03,-1.83,-0.4,0,1
14812.484,0.096,0.292,0.953,0.73,-1.92,-0.46,0,1
14812.5,0.099,0.294,0.949,0.82,-2.08,-0.61,0,1
14812.5,0.101,0.296,0.947,0.64,-2.23,-1.01,0,1
14812.515,0.103,0.296,0.945,0.0,-2.35,-1.37,0,1
14812.531,0.103,0.294,0.945,-0.61,-2.23,-1.53,0,1
14812.546,0.104,0.293,0.947,-0.85,-1.89,-1.5,0,1
14812.546,0.101,0.29,0.955,-0.46,-1.59,-1.4,0,1
14812.562,0.103,0.288,0.95,0.55,-1.34,-0.98,0,1
14812.578,0.105,0.292,0.948,1.13,-1.01,-0.61,0,1
14812.593,0.111,0.292,0.947,1.31,-1.25,-0.7,0,1
14812.593,0.109,0.302,0.945,0.49,-1.8,-1.4,0,1
14812.609,0.114,0.307,0.945,-1.1,-2.35,-2.17,0,1
14812.625,0.119,0.307,0.948,-2.44,-2.75,-2.44,0,1
14812.64,0.116,0.307,0.952,-2.56,-2.96,-2.44,0,1
14812.64,0.107,0.313,0.954,-2.2,-3.57,-2.26,0,1
14812.64,0.101,0.317,0.955,-2.11,-4.3,-2.29,0,1
14812.64,0.096,0.314,0.954,-2.11,-4.61,-1.68,0,1
14812.656,0.092,0.313,0.951,-1.92,-4.61,-0.58,0,1
14812.671,0.09,0.306,0.949,-1.68,-4.3,0.46,0,1
14812.671,0.096,0.292,0.95,-1.19,-3.97,1.34,0,1
14812.687,0.105,0.28,0.949,0.06,-3.39,1.89,0,1
14812.687,0.11,0.273,0.942,1.5,-3.08,2.14,0,1
14812.703,0.111,0.275,0.936,1.74,-3.08,1.65,0,1
14812.718,0.114,0.276,0.928,0.98,-3.05,0.46,0,1
14812.718,0.114,0.278,0.927,-0.31,-2.75,-0.52,0,1
14812.734,0.116,0.276,0.931,-1.07,-2.47,-1.1,0,1
14812.75,0.126,0.277,0.936,-1.04,-2.5,-1.16,0,1
14812.75,0.142,0.275,0.938,-0.31,-2.59,-1.22,0,1
14812.765,0.158,0.275,0.944,0.49,-2.11,-1.43,0,1
14812.781,0.177,0.271,0.951,0.79,-1.31,-1.77,0,1
14812.781,0.198,0.272,0.958,0.85,-0.06,-2.5,0,1
14812.796,0.209,0.277,0.971,-0.15,1.46,-3.85,0,1
14812.796,0.205,0.276,0.982,-1.53,1.8,-5.31,0,1
14812.812,0.206,0.273,0.989,-2.14,0.61,-6.01,0,1
14812.828,0.211,0.267,0.995,-2.96,-1.46,-5.92,0,1
14812.828,0.218,0.26,0.988,-3.63,-3.94,-5.04,0,1
14812.843,0.241,0.239,0.98,-3.17,-5.58,-3.69,0,1
14812.859,0.266,0.213,0.974,-2.04,-6.1,-2.23,0,1
14812.859,0.285,0.184,0.963,0.03,-5.65,-0.95,0,1
14812.875,0.295,0.161,0.956,2.62,-4.61,-0.52,0,1
14812.89,0.276,0.156,0.944,4.67,-3.72,-1.53,0,1
14812.89,0.24,0.164,0.926,4.55,-3.63,-4.21,0,1
14812.906,0.185,0.198,0.918,1.37,-3.78,-8.42,0,1
14812.906,0.162,0.225,0.912,-5.46,-4.15,-13.43,0,1
14812.921,0.148,0.227,0.919,-12.3,-4.3,-16.88,0,1
14812.937,0.151,0.225,0.934,-16.11,-4.09,-18.46,0,1
14812.953,0.177,0.224,0.942,-16.54,-4.03,-18.95,0,1
14812.953,0.193,0.221,0.943,-14.04,-3.42,-18.89,0,1
14812.968,0.17,0.243,0.943,-11.05,-3.02,-19.29,0,1
14812.968,0.156,0.268,0.947,-10.22,-3.17,-19.62,0,1
14812.984,0.122,0.29,0.943,-11.66,-3.39,-19.81,0,1
14813.0,0.099,0.299,0.946,-15.23,-4.03,-19.78,0,1
14813.0,0.099,0.287,0.958,-19.1,-4.97,-19.04,0,1
14813.015,0.104,0.27,0.967,-20.78,-5.92,-17.64,0,1
14813.031,0.091,0.267,0.97,-19.71,-6.47,-16.88,0,1
14813.031,0.092,0.274,0.976,-18.49,-6.59,-17.33,0,1
14813.046,0.088,0.279,0.977,-17.82,-6.1,-18.01,0,1
14813.062,0.06,0.287,0.983,-17.24,-5.04,-17.82,0,1
14813.062,0.064,0.291,0.99,-16.91,-4.73,-17.12,0,1
14813.078,0.034,0.293,0.99,-14.71,-4.3,-15.38,0,1
14813.078,0.014,0.312,0.998,-14.25,-4.7,-14.95,0,1
14813.093,0.02,0.313,0.995,-13.76,-5.31,-12.94,0,1
14813.109,0.022,0.305,0.993,-12.48,-6.38,-10.56,0,1
14813.109,0.032,0.297,0.989,-10.62,-8.03,-8.48,0,1
14813.125,0.037,0.283,0.983,-8.51,-9.98,-5.74,0,1
14813.14,0.047,0.278,0.976,-5.89,-11.35,-3.08,0,1
14813.156,0.058,0.277,0.965,-3.36,-11.44,-1.71,0,1
14813.156,0.056,0.279,0.955,-2.44,-10.1,-1.71,0,1
14813.171,0.052,0.283,0.953,-4.0,-8.09,-2.47,0,1
14813.171,0.069,0.286,0.957,-6.84,-5.86,-4.09,0,1
14813.187,0.072,0.271,0.962,-9.49,-4.55,-5.07,0,1
14813.187,0.086,0.253,0.976,-10.9,-4.12,-4.61,0,1
14813.203,0.102,0.233,0.989,-9.67,-4.67,-3.54,0,1
14813.218,0.12,0.218,0.988,-5.89,-6.01,-2.44,0,1
14813.218,0.155,0.207,0.98,-0.79,-7.26,-1.13,0,1
14813.234,0.193,0.2,0.968,3.85,-9.03,0.43,0,1
14813.25,0.22,0.185,0.947,7.81,-11.23,2.17,0,1
14813.25,0.242,0.168,0.929,10.38,-13.46,3.6,0,1
14813.265,0.263,0.155,0.911,11.11,-15.53,3.6,0,1
14813.281,0.238,0.144,0.898,10.59,-16.42,1.98,0,1
14813.281,0.208,0.189,0.888,6.9,-16.05,-1.83,0,1
14813.296,0.217,0.192,0.886,3.23,-12.45,-6.71,0,1
14813.312,0.209,0.197,0.915,-2.35,-7.05,-10.86,0,1
14813.312,0.233,0.212,0.939,-7.29,-2.53,-12.91,0,1
14813.328,0.235,0.201,0.961,-8.91,0.79,-13.79,0,1
14813.328,0.249,0.187,0.98,-7.6,0.95,-13.58,0,1
14813.343,0.264,0.181,0.971,-3.3,-1.8,-12.3,0,1
14813.359,0.278,0.183,0.965,2.5,-4.73,-9.55,0,1
14813.359,0.25,0.202,0.956,7.66,-6.74,-6.71,0,1
14813.375,0.199,0.251,0.95,9.8,-6.74,-5.77,0,1
14813.39,0.171,0.295,0.95,7.54,-4.82,-8.06,0,1
14813.406,0.142,0.301,0.959,1.31,-2.44,-10.04,0,1
14813.406,0.119,0.313,0.976,-5.34,0.55,-11.14,0,1
14813.421,0.131,0.303,0.992,-11.14,1.89,-11.41,0,1
14813.421,0.149,0.286,1.007,-14.8,1.71,-11.05,0,1
14813.437,0.157,0.261,1.011,-14.65,-0.06,-8.94,0,1
14813.437,0.182,0.234,1.01,-11.23,-3.75,-5.13,0,1
14813.453,0.19,0.21,0.997,-4.91,-8.21,-0.95,0,1
14813.468,0.176,0.213,0.97,2.59,-11.2,2.08,0,1
14813.468,0.173,0.225,0.943,6.99,-12.36,2.41,0,1
14813.484,0.17,0.234,0.916,7.14,-12.02,1.43,0,1
14813.5,0.137,0.245,0.897,5.04,-9.37,0.37,0,1
14813.5,0.126,0.248,0.901,0.52,-5.86,-0.7,0,1
14813.515,0.114,0.249,0.913,-4.55,-1.5,-2.14,0,1
14813.531,0.103,0.241,0.922,-7.69,3.23,-3.51,0,1
14813.531,0.097,0.236,0.939,-9.06,7.14,-4.33,0,1
14813.546,0.095,0.237,0.953,-7.42,10.32,-5.28,0,1
14813.562,0.063,0.247,0.965,-4.15,12.6,-5.77,0,1
14813.562,0.007,0.284,0.981,-0.49,13.95,-5.22,0,1
14813.578,-0.042,0.324,0.994,1.86,15.14,-5.01,0,1
14813.578,-0.061,0.352,1.009,0.4,14.71,-5.07,0,1
14813.593,-0.06,0.375,1.026,-4.43,11.44,-4.67,0,1
14813.609,-0.052,0.375,1.042,-9.19,6.56,-3.02,0,1
14813.609,-0.037,0.358,1.047,-13.7,-0.09,-0.98,0,1
14813.625,0.008,0.324,1.03,-16.63,-7.42,0.76,0,1
14813.64,0.042,0.279,1.003,-16.88,-11.9,2.62,0,1
14813.64,0.081,0.231,0.982,-15.81,-14.77,4.61,0,1
14813.656,0.116,0.18,0.952,-12.15,-16.27,6.78,0,1
14813.671,0.153,0.158,0.917,-5.77,-13.34,7.9,0,1
14813.671,0.157,0.144,0.888,-0.37,-6.01,6.44,0,1
14813.687,0.153,0.151,0.886,1.53,2.72,3.48,0,1
14813.703,0.122,0.194,0.898,1.95,11.9,-0.4,0,1
14813.703,0.095,0.219,0.921,-1.68,17.85,-3.17,0,1
14813.718,0.096,0.224,0.951,-7.39,19.04,-4.39,0,1
14813.718,0.1,0.218,0.974,-11.44,16.36,-4.15,0,1
14813.734,0.117,0.21,0.983,-12.79,11.23,-2.99,0,1
14813.75,0.136,0.178,0.972,-11.44,5.58,-1.01,0,1
14813.75,0.156,0.136,0.951,-8.06,0.92,1.86,0,1
14813.765,0.176,0.115,0.922,-3.6,-2.08,3.72,0,1
14813.781,0.184,0.104,0.896,0.34,-2.23,3.81,0,1
14813.796,0.163,0.109,0.881,2.56,0.64,2.11,0,1
14813.796,0.128,0.13,0.883,1.25,5.95,-1.5,0,1
14813.796,0.118,0.17,0.898,-2.69,13.67,-6.99,0,1
14813.812,0.089,0.183,0.927,-7.66,21.18,-11.51,0,1
14813.828,0.09,0.2,0.964,-11.81,25.21,-13.12,0,1
14813.828,0.087,0.193,0.992,-11.69,25.91,-12.21,0,1
14813.843,0.107,0.184,1.01,-9.58,23.16,-10.28,0,1
14813.859,0.104,0.189,1.015,-5.77,18.95,-8.09,0,1
14813.859,0.099,0.181,1.009,-3.33,14.16,-6.29,0,1
14813.875,0.121,0.177,1.006,-3.63,9.52,-5.52,0,1
14813.89,0.123,0.165,1.003,-4.76,5.89,-6.07,0,1
14813.89,0.132,0.144,0.998,-6.35,3.78,-7.32,0,1
14813.906,0.14,0.12,0.991,-6.47,3.42,-8.64,0,1
14813.921,0.121,0.115,0.981,-5.43,4.49,-10.22,0,1
14813.921,0.103,0.132,0.973,-6.2,6.41,-13.15,0,1
14813.937,0.081,0.154,0.973,-8.97,8.82,-17.15,0,1
14813.937,0.036,0.18,0.987,-12.21,11.2,-19.96,0,1
14813.953,0.022,0.193,1.009,-14.86,12.24,-20.94,0,1
14813.968,0.018,0.188,1.031,-14.44,11.26,-20.11,0,1
14813.968,0.004,0.186,1.031,-10.86,8.06,-17.98,0,1
14813.984,0.01,0.183,1.022,-6.5,4.61,-16.21,0,1
14814.0,0.017,0.164,1.001,-3.3,1.04,-15.47,0,1
14814.0,0.035,0.162,0.98,-2.38,-2.26,-14.83,0,1
14814.015,0.043,0.163,0.959,-2.93,-5.19,-14.56,0,1
14814.031,0.019,0.166,0.943,-5.62,-7.93,-15.23,0,1
14814.031,0.006,0.18,0.943,-10.22,-9.22,-15.93,0,1
14814.046,-0.018,0.201,0.957,-14.34,-7.78,-17.76,0,1
14814.062,-0.037,0.21,0.987,-18.68,-6.1,-17.46,0,1
14814.062,-0.048,0.217,1.0,-15.66,-6.01,-14.92,0,1
14814.078,-0.051,0.208,1.01,-10.99,-6.84,-11.69,0,1
14814.078,-0.057,0.24,1.048,-6.74,-9.4,-8.42,0,1
14814.093,-0.052,0.229,1.039,-4.15,-13.98,-5.4,0,1
14814.109,-0.027,0.22,1.032,-3.11,-17.98,-2.29,0,1
14814.109,0.002,0.213,1.011,-2.11,-20.36,-0.92,0,1
14814.125,0.026,0.195,0.993,-3.33,-22.31,-0.61,0,1
14814.14,0.057,0.18,0.97,-5.43,-23.44,-1.22,0,1
14814.14,0.076,0.164,0.945,-5.86,-22.61,-1.89,0,1
14814.156,0.097,0.152,0.925,-6.13,-19.93,-2.23,0,1
14814.171,0.105,0.145,0.911,-6.29,-15.66,-3.6,0,1
14814.171,0.099,0.145,0.902,-7.48,-10.38,-5.22,0,1
14814.187,0.098,0.156,0.913,-9.7,-3.57,-7.51,0,1
14814.203,0.09,0.151,0.938,-12.45,2.44,-9.28,0,1
14814.203,0.082,0.148,0.958,-13.61,6.62,-9.95,0,1
14814.218,0.079,0.145,0.972,-12.57,9.06,-9.86,0,1
14814.218,0.082,0.142,0.982,-10.38,9.49,-10.1,0,1
14814.234,0.082,0.133,0.98,-8.12,8.82,-9.77,0,1
14814.25,0.096,0.135,0.974,-6.07,8.51,-9.13,0,1
14814.25,0.091,0.124,0.969,-5.07,8.94,-8.76,0,1
14814.265,0.092,0.119,0.978,-5.8,9.13,-8.67,0,1
14814.281,0.075,0.124,0.982,-6.23,9.8,-9.37,0,1
14814.281,0.082,0.121,0.992,-8.09,9.67,-9.8,0,1
14814.296,0.071,0.127,0.992,-9.31,9.8,-10.62,0,1
14814.296,0.079,0.122,0.994,-10.83,9.58,-10.86,0,1
14814.312,0.075,0.121,0.993,-11.35,10.16,-11.87,0,1
14814.328,0.071,0.119,1.002,-11.75,10.74,-11.93,0,1
14814.328,0.076,0.108,1.012,-9.55,10.93,-11.78,0,1
14814.343,0.068,0.101,1.019,-5.58,11.6,-11.23,0,1
14814.359,0.07,0.103,1.027,-1.04,11.2,-11.9,0,1
14814.359,0.06,0.094,1.005,3.72,10.22,-12.27,0,1
14814.375,0.064,0.112,1.001,7.35,9.58,-11.93,0,1
14814.39,0.047,0.129,0.976,10.56,9.58,-12.18,0,1
14814.39,0.038,0.152,0.978,8.88,9.74,-11.6,0,1
14814.406,0.037,0.177,0.966,3.78,8.73,-11.81,0,1
14814.421,0.025,0.177,0.965,-3.85,6.68,-11.99,0,1
14814.421,0.024,0.164,0.975,-10.71,3.36,-11.47,0,1
14814.437,0.027,0.147,0.99,-14.4,0.21,-10.28,0,1
14814.437,0.026,0.143,0.998,-15.17,-2.35,-9.67,0,1
14814.453,0.016,0.143,1.004,-12.57,-4.03,-9.8,0,1
14814.468,0.014,0.125,1.011,-8.3,-5.98,-7.6,0,1
14814.468,0.022,0.124,1.0,-3.02,-7.9,-5.13,0,1
14814.484,0.033,0.116,0.985,0.52,-8.73,-3.69,0,1
14814.5,0.033,0.126,0.977,1.46,-8.21,-4.52,0,1
14814.515,0.031,0.13,0.971,-0.46,-6.9,-6.1,0,1
14814.515,0.042,0.147,0.977,-4.49,-5.58,-7.63,0,1
14814.515,0.023,0.158,0.983,-10.01,-4.88,-8.3,0,1
14814.531,0.028,0.166,0.989,-16.75,-6.01,-7.9,0,1
14814.546,0.016,0.144,0.991,-21.39,-6.62,-7.29,0,1
14814.546,0.027,0.135,0.999,-22.58,-6.71,-6.78,0,1
14814.562,0.03,0.124,1.003,-20.39,-5.68,-6.62,0,1
14814.578,0.023,0.117,1.008,-17.37,-4.12,-6.59,0,1
14814.593,0.026,0.107,1.013,-14.77,-2.84,-6.23,0,1
14814.593,0.027,0.114,1.02,-12.7,-1.89,-6.32,0,1
14814.609,0.025,0.1,1.014,-11.81,-1.04,-5.89,0,1
14814.609,0.04,0.107,1.013,-12.09,0.12,-5.37,0,1
14814.625,0.033,0.093,1.018,-12.24,1.92,-5.28,0,1
14814.64,0.043,0.087,1.025,-13.28,2.44,-5.8,0,1
14814.64,0.036,0.082,1.018,-13.21,3.42,-7.17,0,1
14814.656,0.022,0.075,1.02,-13.09,4.24,-8.3,0,1
14814.656,0.015,0.084,1.026,-12.88,4.55,-9.31,0,1
14814.671,0.011,0.089,1.026,-13.12,4.15,-10.04,0,1
14814.687,0.012,0.085,1.023,-14.5,2.96,-10.41,0,1
14814.687,0.016,0.072,1.016,-16.48,2.44,-10.47,0,1
14814.703,0.029,0.063,1.008,-17.61,2.72,-10.65,0,1
14814.718,0.024,0.052,1.009,-17.58,3.11,-10.8,0,1
14814.718,0.026,0.049,1.008,-16.3,2.59,-10.44,0,1
14814.734,0.022,0.031,1.002,-14.13,1.92,-9.77,0,1
14814.75,0.042,0.027,0.999,-12.51,1.19,-9.34,0,1
14814.75,0.045,0.031,0.984,-11.2,1.86,-10.68,0,1
14814.765,0.05,0.026,0.982,-12.33,3.05,-12.3,0,1
14814.781,0.041,0.032,0.986,-13.34,4.82,-13.7,0,1
14814.781,0.029,0.032,0.992,-13.67,5.86,-13.92,0,1
14814.796,0.032,0.036,1.002,-13.18,5.46,-13.82,0,1
14814.796,0.017,0.04,1.009,-10.83,5.22,-13.64,0,1
14814.812,0.007,0.046,1.014,-8.0,3.97,-13.46,0,1
14814.828,0.007,0.053,1.015,-3.78,1.71,-12.48,0,1
14814.828,-0.002,0.057,1.002,1.37,-1.1,-11.08,0,1
14814.843,-0.006,0.064,0.993,5.1,-5.1,-9.58,0,1
14814.859,-0.016,0.073,0.996,7.51,-9.06,-7.9,0,1
14814.859,-0.022,0.098,0.994,8.15,-14.07,-5.86,0,1
14814.875,-0.006,0.116,0.957,5.83,-17.49,-4.39,0,1
14814.89,0.004,0.107,0.954,-0.4,-17.98,-2.81,0,1
14814.89,0.008,0.095,0.97,-7.9,-17.58,-1.89,0,1
14814.906,0.017,0.073,0.984,-14.65,-17.27,-1.5,0,1
14814.921,0.027,0.052,0.997,-18.77,-16.79,-2.08,0,1
14814.921,0.035,0.031,1.016,-18.34,-15.53,-3.23,0,1
14814.937,0.042,0.017,1.021,-14.5,-14.59,-4.39,0,1
14814.937,0.033,0.018,1.014,-8.36,-13.43,-5.74,0,1
14814.953,0.031,0.016,1.003,-2.5,-12.63,-5.89,0,1
14814.968,0.054,0.029,0.994,0.27,-12.33,-5.46,0,1
14814.968,0.055,0.039,0.984,1.56,-11.23,-6.01,0,1
14814.984,0.049,0.032,0.979,1.46,-8.85,-6.41,0,1
14815.0,0.063,0.034,0.985,-0.73,-6.44,-6.44,0,1
14815.0,0.064,0.032,0.988,-3.6,-3.88,-7.45,0,1
14815.015,0.058,0.028,0.987,-6.41,-1.62,-8.64,0,1
14815.031,0.062,0.019,1.0,-9.49,0.0,-9.74,0,1
14815.031,0.046,0.01,1.015,-10.38,0.73,-10.96,0,1
14815.046,0.052,0.0,1.021,-6.38,0.12,-11.05,0,1
14815.062,0.048,0.023,1.044,0.18,-1.65,-8.7,0,1
14815.062,-0.059,0.148,1.075,6.5,-7.93,-0.73,0,1
14815.078,0.073,0.071,0.945,2.81,-12.3,4.3,0,1
14815.093,0.115,-0.001,0.962,-1.86,-7.48,-4.85,0,1
14815.093,0.047,0.065,0.99,-3.2,-2.11,-10.8,0,1
14815.109,0.004,0.124,1.029,-1.68,0.49,-5.31,0,1
14815.109,-0.042,0.136,1.063,-0.67,-2.99,0.92,0,1
14815.125,-0.056,0.124,1.06,-3.94,-11.29,4.49,0,1
14815.14,-0.023,0.066,1.078,-11.44,-19.71,5.22,0,1
14815.14,0.014,0.025,1.073,-14.44,-26.52,3.27,0,1
14815.156,0.026,0.014,1.035,-9.58,-28.81,0.92,0,1
14815.171,0.041,0.02,1.004,-1.74,-28.87,-0.89,0,1
14815.171,0.053,0.024,0.956,5.31,-27.95,-1.34,0,1
14815.187,0.052,0.031,0.949,5.92,-24.63,0.58,0,1
14815.187,0.07,0.047,0.944,4.36,-20.42,1.74,0,1
14815.203,0.079,0.044,0.932,1.34,-16.79,1.01,0,1
14815.218,0.073,0.034,0.935,-3.6,-12.6,0.18,0,1
14815.218,0.082,0.015,0.944,-6.81,-9.09,0.31,0,1
14815.234,0.1,0.005,0.952,-8.24,-5.74,0.21,0,1
14815.25,0.094,-0.01,0.957,-8.67,-1.37,-1.62,0,1
14815.25,0.094,-0.026,0.952,-9.16,1.5,-3.57,0,1
14815.265,0.094,-0.01,0.952,-8.45,3.2,-4.49,0,1
14815.265,0.091,-0.001,0.944,-6.07,5.16,-4.49,0,1
14815.281,0.094,0.0,0.945,-5.43,6.68,-3.69,0,1
14815.296,0.093,-0.007,0.963,-5.8,7.45,-2.75,0,1
14815.296,0.09,-0.018,0.974,-5.92,6.93,-1.68,0,1
14815.312,0.093,-0.02,0.984,-6.01,5.34,-0.95,0,1
14815.328,0.087,-0.016,0.993,-6.71,4.21,-0.85,0,1
14815.328,0.088,-0.019,1.003,-8.21,2.9,-0.95,0,1
14815.343,0.094,-0.021,1.005,-9.28,1.22,-1.4,0,1
14815.359,0.097,-0.008,1.002,-8.67,0.4,-1.95,0,1
14815.359,0.099,0.001,0.999,-7.14,0.82,-2.14,0,1
14815.375,0.103,0.002,0.999,-5.74,0.7,-2.29,0,1
14815.39,0.099,0.01,1.0,-4.06,1.1,-2.17,0,1
14815.39,0.091,0.014,1.01,-2.96,1.68,-1.86,0,1
14815.406,0.088,0.011,1.017,-2.56,1.04,-1.56,0,1
14815.421,0.088,0.007,1.019,-2.5,0.12,-1.65,0,1
14815.421,0.089,0.021,1.017,-1.71,-0.34,-2.01,0,1
14815.437,0.094,0.027,1.007,-0.7,-1.19,-2.2,0,1
14815.453,0.091,0.044,0.994,-1.22,-1.56,-1.8,0,1
14815.453,0.094,0.053,1.006,-3.66,-1.89,-0.76,0,1
14815.468,0.088,0.043,1.005,-6.1,-2.75,-0.34,0,1
14815.468,0.097,0.022,1.003,-8.7,-4.46,0.31,0,1
14815.484,0.098,-0.001,1.002,-9.49,-5.04,0.55,0,1
14815.5,0.103,-0.013,0.998,-8.76,-5.04,0.73,0,1
14815.5,0.113,-0.018,0.995,-7.39,-4.24,1.53,0,1
14815.515,0.108,-0.018,0.988,-6.23,-2.32,2.35,0,1
14815.531,0.107,-0.015,0.991,-7.26,-1.07,2.53,0,1
14815.531,0.107,-0.008,0.996,-9.58,-0.15,2.2,0,1
14815.546,0.09,-0.009,1.008,-11.26,1.04,1.92,0,1
14815.562,0.094,-0.022,1.02,-12.3,0.67,2.04,0,1
14815.562,0.088,-0.027,1.036,-12.54,-0.49,1.74,0,1
14815.578,0.079,-0.025,1.038,-11.23,-1.59,1.68,0,1
14815.578,0.092,-0.037,1.045,-8.82,-4.67,1.65,0,1
14815.593,0.109,-0.047,1.038,-5.07,-7.39,1.01,0,1
14815.609,0.104,-0.045,1.027,-1.16,-7.69,0.15,0,1
14815.609,0.118,-0.042,1.016,1.5,-8.21,-0.09,0,1
14815.625,0.134,-0.027,1.006,2.87,-8.42,-0.31,0,1
14815.64,0.134,-0.015,1.004,2.96,-6.84,-0.79,0,1
14815.64,0.134,-0.005,1.003,1.56,-5.58,-1.19,0,1
14815.656,0.125,0.018,1.012,-0.03,-5.28,-1.01,0,1
14815.671,0.101,0.015,1.012,-0.98,-5.37,-0.09,0,1
14815.671,0.103,-0.001,1.007,-1.89,-7.29,0.43,0,1
14815.687,0.103,-0.002,1.002,-1.53,-7.97,0.73,0,1
14815.687,0.074,0.001,0.995,1.13,-6.81,0.61,0,1
14815.703,0.081,-0.008,0.976,3.69,-8.7,0.15,0,1
14815.718,0.099,0.005,0.962,5.04,-10.53,0.15,0,1
14815.718,0.094,0.017,0.962,3.75,-9.61,0.37,0,1
14815.734,0.107,0.008,0.965,-0.55,-9.58,0.85,0,1
14815.75,0.133,0.008,0.97,-5.19,-9.61,0.85,0,1
14815.75,0.134,0.003,0.979,-7.81,-7.75,0.27,0,1
14815.765,0.141,0.002,0.985,-7.81,-6.53,-0.12,0,1
14815.781,0.154,0.018,0.973,-4.97,-5.55,2.01,0,1
14815.781,0.119,0.007,0.97,-2.41,-2.72,8.09,0,1
14815.796,0.063,0.006,0.965,-0.24,-2.56,3.45,0,1
14815.796,0.034,0.0,0.944,1.07,-5.83,-4.09,0,1
14815.812,0.045,0.01,0.93,-0.03,-7.87,-3.94,0,1
14815.828,0.087,0.004,0.936,-3.63,-9.09,-2.23,0,1
14815.828,0.114,0.006,0.953,-10.28,-7.66,-0.58,0,1
14815.843,0.124,-0.009,0.988,-17.49,-3.72,1.07,0,1
14815.859,0.133,-0.031,1.025,-21.91,-1.62,2.04,0,1
14815.859,0.16,-0.048,1.057,-23.22,-1.95,2.38,0,1
14815.875,0.167,-0.072,1.083,-20.75,-1.4,2.11,0,1
14815.89,0.155,-0.09,1.109,-14.53,-0.95,0.79,0,1
14815.89,0.178,-0.091,1.113,-6.23,-3.3,-0.95,0,1
14815.906,0.179,-0.074,1.097,1.98,-4.7,-2.32,0,1
14815.921,0.163,-0.063,1.075,8.85,-6.16,-3.85,0,1
14815.921,0.164,-0.046,1.035,13.67,-9.61,-4.91,0,1
14815.937,0.145,-0.031,0.995,16.72,-11.08,-4.94,0,1
14815.953,0.126,-0.01,0.945,16.94,-12.09,-5.77,0,1
14815.953,0.133,0.017,0.915,13.89,-13.76,-6.16,0,1
14815.968,0.124,0.034,0.899,8.55,-13.46,-5.25,0,1
14815.968,0.107,0.047,0.9,1.59,-12.45,-3.75,0,1
14815.984,0.131,0.03,0.916,-6.04,-13.86,-1.4,0,1
14816.0,0.133,0.024,0.957,-13.4,-14.56,0.73,0,1
14816.015,0.105,0.007,1.025,-18.8,-15.23,2.53,0,1
14816.015,0.073,-0.006,1.139,-29.33,-37.26,5.83,0,1
14816.031,0.025,-0.046,1.248,-38.06,-62.04,5.89,0,1
14816.031,0.027,-0.125,1.333,-37.78,-89.72,6.71,0,1
14816.046,0.15,-0.159,1.229,-27.65,-110.72,9.25,0,1
14816.062,0.263,-0.143,1.055,-12.09,-115.54,4.76,0,1
14816.062,0.317,-0.089,0.998,1.83,-106.94,1.68,0,1
14816.078,0.381,-0.036,0.905,12.39,-90.91,0.46,0,1
14816.078,0.418,0.012,0.913,19.75,-69.25,-1.13,0,1
14816.093,0.424,0.014,0.881,26.8,-46.72,-0.24,0,1
14816.109,0.367,0.026,0.901,28.47,-25.3,2.04,0,1
14816.125,0.293,0.043,0.972,24.96,-13.37,6.93,0,1
14816.125,0.245,0.064,1.035,15.99,-13.55,13.31,0,1
14816.14,0.198,0.035,1.094,2.87,-22.13,20.69,0,1
14816.14,0.168,-0.003,1.173,-9.52,-38.42,28.44,0,1
14816.156,0.197,-0.052,1.217,-22.1,-62.5,32.84,0,1
14816.171,0.222,-0.1,1.226,-29.36,-85.33,33.54,0,1
14816.171,0.313,-0.104,1.19,-29.97,-105.78,30.85,0,1
14816.187,0.399,-0.101,1.115,-23.53,-118.53,24.57,0,1
14816.203,0.446,-0.111,1.013,-14.1,-121.8,16.63,0,1
14816.203,0.483,-0.104,0.921,-2.11,-115.97,10.28,0,1
14816.218,0.509,-0.079,0.858,8.97,-104.07,5.49,0,1
14816.218,0.49,-0.055,0.862,16.57,-89.11,1.56,0,1
14816.234,0.473,-0.055,0.899,23.07,-77.09,-0.27,0,1
14816.25,0.482,-0.076,0.925,24.9,-68.33,1.28,0,1
14816.25,0.461,-0.062,0.921,23.47,-61.95,1.8,0,1
14816.265,0.446,-0.046,0.883,21.42,-58.17,2.44,0,1
14816.281,0.467,-0.044,0.852,17.24,-55.67,3.81,0,1
14816.281,0.487,-0.044,0.831,13.79,-52.4,3.3,0,1
14816.296,0.491,-0.039,0.812,13.12,-46.85,1.74,0,1
14816.312,0.515,-0.028,0.811,11.14,-40.8,1.95,0,1
14816.312,0.52,-0.037,0.796,6.13,-35.07,0.67,0,1
14816.328,0.494,-0.083,0.772,3.14,-27.25,-1.5,0,1
14816.328,0.465,-0.098,0.759,2.96,-18.8,-2.75,0,1
14816.343,0.442,-0.095,0.752,3.42,-12.27,-4.76,0,1
14816.359,0.413,-0.073,0.754,4.46,-7.69,-6.99,0,1
14816.359,0.454,-0.04,0.772,3.11,-6.71,-7.63,0,1
14816.375,0.451,-0.029,0.773,0.49,-3.39,-6.65,0,1
14816.39,0.409,-0.035,0.779,-1.4,-0.37,-5.22,0,1
14816.39,0.395,-0.069,0.805,-1.31,-0.82,-3.88,0,1
14816.406,0.408,-0.104,0.8,2.62,-3.69,-2.72,0,1
14816.421,0.402,-0.133,0.684,10.65,-2.78,-4.43,0,1
14816.437,0.367,-0.117,0.668,17.37,1.5,-8.3,0,1
14816.437,0.405,-0.067,0.672,20.72,3.54,-10.22,0,1
14816.437,0.418,-0.005,0.643,19.99,9.61,-9.03,0,1
14816.453,0.419,0.034,0.659,12.97,16.57,-6.2,0,1
14816.468,0.431,0.015,0.692,3.94,22.31,-2.81,0,1
14816.468,0.435,-0.014,0.743,-4.03,26.95,-0.06,0,1
14816.484,0.418,-0.058,0.763,-4.88,32.07,1.65,0,1
14816.5,0.425,-0.075,0.781,-1.62,36.41,1.77,0,1
14816.5,0.424,-0.065,0.816,2.26,38.94,-1.19,0,1
14816.515,0.423,-0.043,0.849,6.9,39.61,-4.46,0,1
14816.531,0.443,-0.022,0.885,9.64,39.46,-4.88,0,1
14816.531,0.436,-0.001,0.914,9.49,38.64,-4.06,0,1
14816.546,0.395,0.009,0.94,9.95,35.89,-2.14,0,1
14816.562,0.389,-0.007,0.971,9.31,28.57,0.03,0,1
14816.562,0.385,-0.021,0.978,7.39,18.19,0.15,0,1
14816.578,0.393,-0.026,0.97,7.26,8.42,-0.73,0,1
14816.578,0.417,-0.016,0.946,8.24,0.31,-1.34,0,1
14816.593,0.428,-0.009,0.904,8.7,-3.97,-1.59,0,1
14816.609,0.438,0.002,0.887,6.87,-4.49,-1.22,0,1
14816.609,0.447,0.013,0.874,3.75,-3.66,-0.85,0,1
14816.625,0.451,0.01,0.87,1.74,-1.53,-0.55,0,1
14816.64,0.475,-0.0,0.878,1.04,1.95,-0.21,0,1
14816.64,0.445,0.004,0.876,1.74,7.75,-0.52,0,1
14816.656,0.414,0.01,0.887,2.44,11.84,-0.24,0,1
14816.671,0.416,0.022,0.909,-0.06,11.66,0.24,0,1
14816.671,0.423,0.033,0.934,-4.39,9.74,0.15,0,1
14816.687,0.434,0.034,0.958,-7.9,8.82,0.76,0,1
14816.687,0.43,0.021,0.976,-10.44,7.39,0.76,0,1
14816.703,0.424,0.002,0.978,-9.19,3.94,-0.92,0,1
14816.718,0.413,0.0,0.954,-3.23,0.85,-2.87,0,1
14816.718,0.414,0.015,0.93,1.77,-0.95,-3.91,0,1
14816.734,0.417,0.028,0.913,2.17,-1.25,-4.76,0,1
14816.75,0.422,0.04,0.902,-0.31,-1.04,-5.19,0,1
14816.75,0.409,0.044,0.895,-4.0,0.34,-4.3,0,1
14816.765,0.397,0.029,0.901,-8.33,1.46,-3.14,0,1
14816.781,0.389,0.017,0.922,-12.27,0.58,-2.14,0,1
14816.781,0.384,0.01,0.935,-14.01,-2.66,-1.01,0,1
14816.796,0.415,-0.003,0.942,-15.84,-6.68,0.06,0,1
14816.796,0.428,-0.012,0.947,-17.61,-9.19,0.49,0,1
14816.812,0.417,-0.017,0.957,-18.16,-10.28,0.79,0,1
14816.828,0.402,-0.03,0.962,-19.2,-12.67,0.64,0,1
14816.843,0.406,-0.043,0.98,-21.09,-17.09,0.31,0,1
14816.843,0.416,-0.074,0.984,-20.11,-20.81,0.12,0,1
14816.859,0.433,-0.091,0.961,-14.86,-23.59,-0.18,0,1
14816.859,0.456,-0.097,0.93,-6.1,-24.35,-0.27,0,1
14816.875,0.483,-0.104,0.906,1.37,-22.71,-1.53,0,1
14816.89,0.483,-0.103,0.866,7.51,-19.81,-4.91,0,1
14816.89,0.474,-0.084,0.833,13.21,-15.78,-7.2,0,1
14816.906,0.474,-0.068,0.811,16.33,-9.55,-8.36,0,1
14816.906,0.462,-0.047,0.802,15.9,-1.92,-8.64,0,1
14816.921,0.443,-0.021,0.817,11.93,4.88,-8.0,0,1
14816.937,0.412,0.007,0.842,7.35,9.22,-6.35,0,1
14816.937,0.402,0.033,0.871,1.04,9.92,-2.93,0,1
14816.953,0.408,0.029,0.909,-7.08,8.21,1.01,0,1
14816.968,0.413,0.007,0.936,-14.28,6.1,4.0,0,1
14816.968,0.427,-0.019,0.959,-17.21,2.99,4.88,0,1
14816.984,0.453,-0.05,0.964,-15.41,0.09,4.76,0,1
14817.0,0.464,-0.059,0.952,-4.55,-1.56,0.79,0,1
14817.0,0.468,-0.057,0.925,0.12,0.67,-0.79,0,1
14817.015,0.464,-0.042,0.909,1.31,2.93,-1.92,0,1
14817.031,0.447,-0.032,0.907,0.98,4.33,-2.08,0,1
14817.031,0.425,-0.04,0.92,-0.76,5.65,-1.43,0,1
14817.046,0.422,-0.041,0.928,-2.44,4.88,-1.22,0,1
14817.062,0.432,-0.039,0.923,-1.25,4.0,-1.22,0,1
14817.062,0.435,-0.035,0.915,-0.46,4.39,-1.07,0,1
14817.078,0.426,-0.04,0.912,0.67,4.12,-2.38,0,1
14817.093,0.419,-0.043,0.902,4.91,3.42,-3.85,0,1
14817.093,0.424,-0.021,0.903,8.12,2.78,-4.12,0,1
14817.109,0.421,-0.025,0.896,9.58,3.81,-3.91,0,1
14817.109,0.399,-0.019,0.91,7.51,4.06,-3.63,0,1
14817.125,0.411,-0.025,0.92,4.58,2.29,-2.96,0,1
14817.14,0.417,-0.019,0.925,2.38,1.07,-2.14,0,1
14817.14,0.411,-0.015,0.922,2.14,-0.24,-2.23,0,1
14817.156,0.416,-0.011,0.915,1.5,-1.86,-1.86,0,1
14817.171,0.423,-0.02,0.913,0.37,-3.23,-1.5,0,1
14817.171,0.429,-0.023,0.903,0.76,-3.17,-0.95,0,1
14817.187,0.436,-0.043,0.899,1.56,-1.83,-0.64,0,1
14817.203,0.434,-0.047,0.888,3.05,0.55,-1.01,0,1
14817.203,0.433,-0.048,0.882,5.8,3.2,-1.56,0,1
14817.218,0.428,-0.039,0.881,8.24,5.22,-3.02,0,1
14817.218,0.422,-0.032,0.88,9.92,6.32,-4.97,0,1
14817.234,0.416,-0.01,0.883,10.1,7.84,-5.68,0,1
14817.25,0.416,0.007,0.888,9.61,8.82,-5.74,0,1
14817.25,0.408,0.022,0.9,7.97,9.34,-4.46,0,1
14817.265,0.398,0.018,0.911,3.05,9.0,-1.62,0,1
14817.281,0.401,0.009,0.925,-2.56,6.35,0.06,0,1
14817.281,0.4,-0.013,0.92,-4.43,3.51,0.85,0,1
14817.296,0.399,-0.022,0.901,-2.78,2.26,1.46,0,1
14817.312,0.4,-0.031,0.888,-0.37,1.95,0.52,0,1
14817.312,0.41,-0.021,0.882,1.28,2.23,-0.95,0,1
14817.328,0.424,-0.006,0.888,0.49,4.36,-0.73,0,1
14817.328,0.426,0.005,0.899,-2.04,6.93,-0.7,0,1
14817.343,0.429,-0.0,0.912,-4.7,8.76,-0.31,0,1
14817.359,0.426,0.001,0.928,-6.2,9.77,0.21,0,1
14817.359,0.414,0.001,0.936,-5.4,9.61,0.21,0,1
14817.375,0.399,-0.003,0.935,-4.39,8.18,-0.06,0,1
14817.39,0.403,-0.016,0.937,-4.55,4.91,-0.4,0,1
14817.39,0.416,-0.022,0.927,-4.33,2.96,0.09,0,1
14817.406,0.419,-0.025,0.914,-4.94,3.45,0.55,0,1
14817.421,0.418,-0.036,0.918,-6.04,5.22,0.06,0,1
14817.421,0.412,-0.033,0.924,-6.23,7.17,-0.85,0,1
14817.437,0.417,-0.032,0.934,-4.61,8.27,-1.77,0,1
14817.437,0.403,-0.023,0.935,-1.95,9.28,-2.72,0,1
14817.453,0.391,-0.03,0.927,1.31,9.34,-3.72,0,1
14817.468,0.39,-0.03,0.914,4.52,9.31,-4.67,0,1
14817.468,0.377,-0.022,0.911,7.32,9.49,-6.2,0,1
14817.484,0.373,-0.001,0.904,9.98,10.04,-6.93,0,1
14817.5,0.378,0.018,0.9,9.61,10.77,-6.35,0,1
14817.515,0.37,0.032,0.909,5.68,11.51,-5.58,0,1
14817.515,0.35,0.028,0.923,1.13,10.96,-4.43,0,1
