timestamp,ax,ay,az,gx,gy,gz,orient_label,motion_label
14867.843,0.032,0.008,0.973,1.92,5.71,-4.27,0,1
14867.843,0.029,0.013,0.963,3.33,5.65,-4.58,0,1
14867.859,0.031,0.029,0.959,4.49,6.26,-5.04,0,1
14867.859,0.029,0.055,0.961,3.14,7.63,-5.34,0,1
14867.875,0.031,0.065,0.969,-0.55,9.13,-5.55,0,1
14867.89,0.022,0.07,0.984,-4.21,10.9,-5.1,0,1
14867.89,0.01,0.065,1.007,-5.74,11.44,-3.85,0,1
14867.906,0.006,0.03,1.024,-6.84,9.06,-3.08,0,1
14867.921,0.0,0.001,1.028,-7.66,4.61,-3.36,0,1
14867.921,0.003,-0.01,1.025,-7.42,0.58,-3.66,0,1
14867.937,-0.001,-0.01,1.017,-7.45,-3.17,-3.85,0,1
14867.953,0.003,-0.025,0.998,-8.45,-7.48,-3.42,0,1
14867.968,0.012,-0.024,0.977,-9.09,-10.35,-3.66,0,1
14867.968,0.022,-0.026,0.971,-7.87,-8.7,-2.87,0,1
14867.968,0.03,-0.023,0.986,-7.02,-4.36,-2.47,0,1
14867.984,0.029,-0.029,1.009,-5.86,-1.22,-2.59,0,1
14868.0,0.04,-0.039,1.033,-4.06,1.92,-1.16,0,1
14868.015,0.018,-0.048,1.061,-0.4,3.54,-2.38,0,1
14868.031,0.016,-0.037,1.055,-0.09,2.87,-1.68,0,1
14868.031,0.019,-0.038,1.053,-0.21,2.47,-1.59,0,1
14868.046,0.015,-0.026,1.067,0.03,1.71,-0.92,0,1
14868.062,0.02,-0.014,1.069,-1.31,0.76,-0.46,0,1
14868.062,0.018,-0.009,1.067,-1.13,0.4,-0.89,0,1
14868.078,0.016,-0.005,1.056,1.4,0.67,-0.52,0,1
14868.078,0.006,-0.002,1.039,3.48,-0.21,-1.1,0,1
14868.093,0.001,0.002,1.014,5.13,-2.04,-1.43,0,1
14868.109,0.006,-0.01,0.992,6.78,-2.47,-0.95,0,1
14868.109,0.008,-0.013,0.97,8.12,-1.74,-0.61,0,1
14868.125,0.005,-0.004,0.956,7.87,-0.09,-0.24,0,1
14868.14,0.001,0.005,0.954,4.46,1.4,-0.52,0,1
14868.14,-0.006,0.007,0.952,0.0,1.77,-0.58,0,1
14868.156,-0.013,0.015,0.95,-3.39,1.89,-0.37,0,1
14868.171,-0.009,0.021,0.962,-4.12,2.23,0.06,0,1
14868.187,0.0,0.01,0.993,-1.43,2.44,0.24,0,1
14868.203,-0.002,0.007,1.006,0.76,2.9,0.0,0,1
14868.203,-0.018,0.012,1.028,2.17,3.78,0.03,0,1
14868.218,-0.035,0.01,1.044,2.29,2.69,0.18,0,1
14868.218,-0.048,0.018,1.049,2.04,-0.52,0.18,0,1
14868.234,-0.056,0.033,1.033,1.71,-4.39,0.46,0,1
14868.25,-0.058,0.024,1.011,0.06,-8.09,1.43,0,1
14868.25,-0.057,0.005,0.989,-1.95,-11.23,2.29,0,1
14868.265,-0.058,-0.014,0.976,-2.96,-12.18,2.87,0,1
14868.281,-0.042,-0.027,0.98,-4.21,-11.54,3.14,0,1
14868.281,-0.036,-0.024,1.021,-5.83,-10.04,3.51,0,1
14868.296,-0.041,-0.03,1.071,-5.16,-9.13,4.79,0,1
14868.312,-0.036,-0.038,1.094,-2.81,-9.0,6.84,0,1
14868.312,-0.043,-0.022,1.12,0.15,-8.12,8.33,0,1
14868.328,-0.072,-0.021,1.138,3.17,-7.78,9.98,0,1
14868.343,-0.106,-0.03,1.14,3.94,-8.55,12.3,0,1
14868.343,-0.156,-0.034,1.141,2.75,-10.59,14.19,0,1
14868.359,-0.215,-0.035,1.14,2.38,-15.63,15.29,0,1
14868.359,-0.246,-0.028,1.119,5.1,-26.55,17.27,0,1
14868.375,-0.222,0.022,1.04,10.38,-45.38,20.05,0,1
14868.39,-0.174,0.046,1.021,15.17,-63.84,25.03,0,1
14868.406,-0.127,0.067,0.99,10.28,-76.63,29.18,0,1
14868.406,-0.075,0.053,0.915,3.81,-76.88,34.97,0,1
14868.421,-0.086,0.03,0.885,1.89,-67.45,40.56,0,1
14868.421,-0.11,0.031,0.899,3.23,-56.58,44.8,0,1
14868.437,-0.145,0.019,0.908,8.73,-47.36,48.22,0,1
14868.453,-0.181,0.021,0.923,16.42,-40.89,51.73,0,1
14868.468,-0.216,0.038,0.934,26.89,-36.16,54.72,0,1
14868.468,-0.233,0.054,0.926,38.21,-34.7,57.01,0,1
14868.468,-0.249,0.081,0.908,50.29,-35.74,59.51,0,1
14868.484,-0.246,0.097,0.885,62.2,-35.71,64.52,0,1
14868.5,-0.262,0.11,0.869,71.78,-31.89,70.68,0,1
14868.515,-0.3,0.103,0.875,79.5,-23.8,76.91,0,1
14868.515,-0.327,0.099,0.89,85.76,-15.41,81.21,0,1
14868.531,-0.31,0.104,0.877,91.28,-10.5,82.71,0,1
14868.531,-0.266,0.131,0.846,95.07,-8.42,82.09,0,1
14868.546,-0.26,0.158,0.813,95.13,-5.77,82.37,0,1
14868.562,-0.253,0.176,0.79,90.12,-2.08,83.25,0,1
14868.562,-0.275,0.175,0.782,81.58,2.62,86.46,0,1
14868.578,-0.277,0.192,0.797,69.06,7.23,88.66,0,1
14868.593,-0.287,0.173,0.818,53.56,10.28,86.86,0,1
14868.593,-0.291,0.116,0.846,38.85,11.08,83.07,0,1
14868.609,-0.254,0.083,0.888,31.83,10.99,77.09,0,1
14868.609,-0.171,0.069,0.911,35.07,8.12,70.04,0,1
14868.625,-0.107,0.054,0.903,46.08,6.56,64.82,0,1
14868.64,-0.022,0.07,0.9,59.11,6.5,61.13,0,1
14868.64,0.08,0.111,0.886,70.01,7.29,57.77,0,1
14868.656,0.094,0.144,0.862,75.56,12.05,54.96,0,1
14868.671,0.097,0.169,0.868,74.83,20.66,51.7,0,1
14868.671,0.14,0.183,0.895,68.21,29.08,46.48,0,1
14868.687,0.104,0.088,0.926,59.94,36.41,43.95,0,1
14868.703,0.165,0.039,0.993,55.91,41.08,41.41,0,1
14868.703,0.26,0.067,1.027,60.85,42.42,32.78,0,1
14868.718,0.25,0.097,1.037,67.23,40.28,23.16,0,1
14868.718,0.314,0.131,1.053,70.13,30.79,13.18,0,1
14868.734,0.394,0.195,1.033,72.3,15.93,4.64,0,1
14868.75,0.364,0.283,0.994,73.18,1.62,-2.47,0,1
14868.75,0.379,0.327,0.965,70.65,-13.7,-6.62,0,1
14868.765,0.4,0.357,0.949,66.29,-25.39,-6.44,0,1
14868.781,0.467,0.337,0.946,61.53,-32.41,-4.09,0,1
14868.781,0.564,0.316,0.955,59.42,-33.78,-1.65,0,1
14868.796,0.589,0.297,0.952,61.4,-30.12,-0.24,0,1
14868.812,0.589,0.249,0.963,65.95,-24.99,-0.31,0,1
14868.812,0.583,0.215,0.98,73.27,-21.39,-0.58,0,1
14868.828,0.59,0.21,0.985,82.34,-22.06,-1.65,0,1
14868.843,0.615,0.201,0.978,91.07,-27.83,-3.6,0,1
14868.843,0.613,0.226,0.954,98.18,-36.5,-5.13,0,1
14868.875,0.625,0.367,0.896,93.6,-56.37,-15.96,0,1
14868.875,0.624,0.401,0.894,80.9,-61.74,-18.46,0,1
14868.89,0.607,0.402,0.903,67.51,-62.75,-19.93,0,1
14868.89,0.618,0.361,0.926,56.15,-61.16,-20.05,0,1
14868.906,0.615,0.344,0.953,50.36,-58.32,-20.66,0,1
14868.921,0.643,0.327,0.963,50.94,-57.22,-22.95,0,1
14868.937,0.669,0.314,0.961,56.28,-58.29,-24.63,0,1
14868.937,0.666,0.362,0.949,63.17,-60.12,-26.58,0,1
14868.953,0.678,0.399,0.91,68.0,-64.55,-28.14,0,1
14868.953,0.672,0.443,0.857,69.25,-69.0,-28.84,0,1
14868.968,0.67,0.535,0.808,63.84,-71.81,-30.09,0,1
14868.984,0.667,0.613,0.764,50.05,-72.97,-31.83,0,1
14868.984,0.649,0.659,0.736,29.51,-71.29,-32.01,0,1
14869.0,0.618,0.692,0.728,-14.47,-55.21,-24.17,0,1
14869.0,0.598,0.693,0.749,-30.06,-43.67,-16.69,0,1
14869.015,0.579,0.647,0.791,-37.29,-32.26,-8.36,0,1
14869.031,0.542,0.498,0.941,-27.01,-16.54,7.02,0,1
14869.046,0.538,0.456,0.958,-14.13,-14.16,11.87,0,1
14869.062,0.528,0.439,0.953,-0.67,-14.68,14.13,0,1
14869.062,0.516,0.451,0.93,9.13,-16.82,12.85,0,1
14869.078,0.49,0.478,0.892,11.57,-19.56,8.39,0,1
14869.093,0.457,0.489,0.853,6.5,-22.43,2.9,0,1
14869.093,0.434,0.494,0.815,-4.18,-23.07,-2.66,0,1
14869.109,0.418,0.502,0.791,-17.7,-20.36,-8.67,0,1
14869.109,0.404,0.482,0.773,-29.94,-15.72,-14.4,0,1
14869.125,0.382,0.481,0.762,-37.66,-9.34,-18.77,0,1
14869.14,0.346,0.493,0.762,-40.1,-2.56,-21.61,0,1
14869.14,0.306,0.509,0.783,-38.45,2.17,-22.46,0,1
14869.156,0.277,0.507,0.787,-33.2,2.32,-21.24,0,1
14869.171,0.252,0.515,0.788,-25.21,-0.61,-18.34,0,1
14869.171,0.227,0.542,0.784,-15.53,-5.19,-14.71,0,1
14869.187,0.215,0.557,0.773,-7.39,-10.38,-11.23,0,1
14869.203,0.196,0.619,0.753,-1.25,-14.53,-8.85,0,1
14869.218,0.185,0.625,0.754,-3.51,-13.82,-9.8,0,1
14869.234,0.192,0.616,0.754,-6.81,-14.01,-10.16,0,1
14869.234,0.204,0.588,0.747,-8.36,-14.71,-9.86,0,1
14869.25,0.222,0.553,0.736,-7.66,-15.26,-9.43,0,1
14869.25,0.254,0.513,0.713,-4.39,-16.11,-9.61,0,1
14869.265,0.288,0.485,0.684,0.43,-17.18,-9.98,0,1
14869.281,0.303,0.475,0.66,5.49,-17.0,-9.89,0,1
14869.281,0.316,0.464,0.643,8.91,-15.14,-8.67,0,1
14869.296,0.327,0.455,0.628,9.86,-11.26,-7.6,0,1
14869.312,0.338,0.446,0.626,8.03,-5.46,-7.14,0,1
14869.312,0.339,0.448,0.642,3.69,2.11,-7.57,0,1
14869.328,0.329,0.449,0.67,-2.38,10.41,-9.37,0,1
14869.343,0.323,0.431,0.698,-8.18,16.54,-11.87,0,1
14869.343,0.314,0.429,0.729,-11.44,20.69,-14.59,0,1
14869.359,0.302,0.44,0.77,-11.75,23.22,-17.24,0,1
14869.375,0.278,0.445,0.836,-8.18,18.65,-20.94,0,1
14869.39,0.281,0.442,0.833,-4.0,12.63,-21.55,0,1
14869.406,0.282,0.474,0.817,0.03,7.84,-23.13,0,1
14869.406,0.288,0.498,0.793,2.08,3.88,-25.94,0,1
14869.421,0.285,0.51,0.767,2.59,1.37,-27.95,0,1
14869.421,0.271,0.553,0.744,0.76,1.77,-29.51,0,1
14869.437,0.265,0.589,0.735,-4.76,5.83,-31.37,0,1
14869.453,0.264,0.594,0.746,-12.36,11.75,-33.02,0,1
14869.453,0.272,0.569,0.757,-18.13,17.98,-33.27,0,1
14869.468,0.284,0.54,0.769,-21.39,23.44,-32.75,0,1
14869.468,0.29,0.519,0.791,-20.69,27.19,-32.2,0,1
14869.484,0.293,0.506,0.804,-16.54,28.38,-30.79,0,1
14869.5,0.301,0.497,0.807,-10.5,27.5,-28.78,0,1
14869.515,0.285,0.505,0.808,-3.81,25.82,-27.31,0,1
14869.515,0.248,0.542,0.804,-0.4,24.54,-25.85,0,1
14869.531,0.211,0.555,0.805,-3.6,23.9,-23.5,0,1
14869.546,0.198,0.591,0.843,-12.91,27.83,-21.94,0,1
14869.562,0.171,0.566,0.866,-17.49,29.91,-22.03,0,1
14869.562,0.152,0.545,0.896,-19.9,30.4,-20.69,0,1
14869.578,0.136,0.543,0.911,-18.52,29.15,-18.74,0,1
14869.593,0.136,0.559,0.914,-15.35,25.54,-17.4,0,1
14869.593,0.112,0.553,0.903,-12.15,20.6,-16.11,0,1
14869.609,0.101,0.573,0.895,-11.32,17.43,-13.4,0,1
14869.609,0.097,0.602,0.888,-13.46,16.33,-12.27,0,1
14869.625,0.101,0.573,0.879,-17.55,15.59,-11.02,0,1
14869.64,0.12,0.546,0.869,-19.84,16.48,-9.13,0,1
14869.64,0.124,0.533,0.853,-19.71,18.83,-10.1,0,1
14869.656,0.123,0.503,0.835,-19.1,22.19,-11.72,0,1
14869.671,0.101,0.519,0.83,-19.14,27.31,-13.76,0,1
14869.671,0.094,0.535,0.838,-20.66,32.5,-14.31,0,1
14869.687,0.075,0.53,0.859,-21.55,35.16,-12.57,0,1
14869.703,0.05,0.509,0.872,-19.99,34.36,-7.75,0,1
14869.718,0.053,0.486,0.887,-13.86,26.67,-1.4,0,1
14869.718,0.056,0.481,0.883,-12.76,22.03,-2.2,0,1
14869.734,0.06,0.477,0.867,-13.46,18.25,-4.61,0,1
14869.75,0.047,0.452,0.845,-15.53,15.72,-6.41,0,1
14869.75,0.047,0.424,0.837,-18.71,15.99,-7.08,0,1
14869.765,0.081,0.422,0.836,-21.42,18.31,-9.25,0,1
14869.781,0.075,0.427,0.837,-22.92,21.67,-14.86,0,1
14869.781,0.043,0.413,0.855,-25.97,24.38,-17.4,0,1
14869.796,0.046,0.411,0.878,-27.65,25.67,-17.09,0,1
14869.812,0.037,0.413,0.895,-24.81,26.67,-16.91,0,1
14869.812,0.031,0.412,0.901,-20.02,26.46,-17.4,0,1
14869.828,0.014,0.422,0.892,-17.06,25.39,-18.95,0,1
14869.843,0.011,0.427,0.881,-16.51,23.9,-20.57,0,1
14869.843,-0.004,0.436,0.871,-17.09,23.35,-22.64,0,1
14869.859,-0.023,0.44,0.871,-18.74,23.16,-23.22,0,1
14869.875,-0.032,0.438,0.873,-20.87,22.92,-22.92,0,1
14869.89,-0.035,0.428,0.902,-21.7,22.37,-19.93,0,1
14869.89,-0.039,0.413,0.904,-19.87,20.87,-18.19,0,1
14869.906,-0.048,0.406,0.907,-16.54,19.35,-16.6,0,1
14869.921,-0.049,0.41,0.91,-12.48,17.79,-15.08,0,1
14869.921,-0.051,0.42,0.908,-8.61,16.21,-13.52,0,1
14869.937,-0.06,0.428,0.904,-5.4,14.92,-11.96,0,1
14869.953,-0.053,0.427,0.897,-3.97,13.64,-9.95,0,1
14869.953,-0.052,0.421,0.89,-3.17,12.33,-8.36,0,1
14869.968,-0.046,0.42,0.893,-2.66,11.38,-7.57,0,1
14869.984,-0.069,0.426,0.912,-4.03,10.01,-7.29,0,1
14869.984,-0.065,0.426,0.94,-10.68,1.01,-5.49,0,1
14870.0,-0.065,0.43,0.96,-11.08,-3.36,-5.04,0,1
14870.0,-0.071,0.402,0.966,-10.47,-5.95,-5.31,0,1
14870.015,-0.065,0.412,0.981,-8.51,-7.97,-5.68,0,1
14870.031,-0.04,0.415,0.973,-5.25,-10.04,-4.67,0,1
14870.031,-0.032,0.421,0.951,-0.06,-11.08,-3.91,0,1
14870.062,0.018,0.429,0.901,9.74,-10.44,-1.86,0,1
14870.062,0.029,0.427,0.879,12.85,-9.4,-1.22,0,1
14870.078,0.042,0.441,0.857,12.79,-8.3,-1.07,0,1
14870.093,0.037,0.45,0.849,10.16,-6.5,-1.1,0,1
14870.093,0.03,0.448,0.853,5.31,-4.27,-0.31,0,1
14870.109,0.024,0.452,0.873,-0.24,-1.92,0.4,0,1
14870.109,0.016,0.446,0.901,-4.46,-0.06,1.5,0,1
14870.125,0.019,0.431,0.926,-6.23,0.46,2.9,0,1
14870.14,0.026,0.413,0.943,-5.07,-0.15,4.03,0,1
14870.156,0.031,0.403,0.944,-1.92,-1.16,4.49,0,1
14870.156,0.036,0.4,0.939,1.13,-2.29,4.15,0,1
14870.171,0.031,0.396,0.928,2.84,-3.45,3.72,0,1
14870.171,0.028,0.413,0.92,2.66,-3.91,2.66,0,1
14870.187,0.025,0.421,0.913,0.64,-3.69,2.14,0,1
14870.203,0.022,0.409,0.92,-1.28,-3.69,2.5,0,1
14870.203,0.019,0.404,0.916,-2.23,-3.85,2.66,0,1
14870.234,0.032,0.388,0.913,-0.64,-2.81,2.81,0,1
14870.234,0.04,0.386,0.903,1.25,-2.59,2.62,0,1
14870.25,0.043,0.391,0.893,2.29,-2.04,1.95,0,1
14870.25,0.039,0.393,0.887,2.38,-0.85,0.95,0,1
14870.265,0.035,0.399,0.886,1.62,0.37,0.15,0,1
14870.281,0.02,0.413,0.9,-0.82,0.95,-0.49,0,1
14870.281,0.005,0.419,0.91,-3.11,0.89,-1.71,0,1
14870.296,-0.007,0.417,0.917,-3.42,0.7,-2.11,0,1
14870.312,-0.006,0.433,0.928,-3.45,-0.46,-1.53,0,1
14870.312,-0.005,0.433,0.925,-2.01,-2.29,-0.89,0,1
14870.328,0.0,0.42,0.922,-0.52,-3.6,-0.24,0,1
14870.343,0.003,0.419,0.919,0.7,-4.21,0.52,0,1
14870.343,0.01,0.417,0.908,1.8,-4.06,0.82,0,1
14870.359,0.016,0.414,0.904,1.65,-3.3,0.49,0,1
14870.359,0.017,0.417,0.906,0.64,-2.81,-0.43,0,1
14870.375,0.016,0.418,0.911,-1.28,-3.2,-1.28,0,1
14870.39,0.017,0.416,0.915,-3.08,-4.0,-1.59,0,1
14870.39,0.012,0.412,0.922,-3.94,-4.49,-1.86,0,1
14870.406,0.011,0.411,0.928,-4.3,-5.52,-1.83,0,1
14870.421,0.008,0.41,0.929,-3.42,-6.5,-1.62,0,1
14870.421,0.011,0.413,0.93,-1.92,-7.45,-1.31,0,1
14870.437,0.018,0.414,0.924,-0.31,-8.48,-1.1,0,1
14870.453,0.028,0.41,0.909,1.31,-9.55,-0.79,0,1
14870.453,0.036,0.405,0.896,2.9,-10.04,-0.4,0,1
14870.468,0.044,0.405,0.88,3.69,-10.25,-0.58,0,1
14870.468,0.053,0.401,0.863,3.2,-10.62,-1.56,0,1
14870.484,0.064,0.396,0.846,1.77,-10.68,-2.59,0,1
14870.5,0.078,0.392,0.83,-0.09,-9.49,-3.3,0,1
14870.5,0.085,0.383,0.821,-1.28,-7.08,-3.69,0,1
14870.515,0.097,0.376,0.811,-1.19,-3.02,-3.94,0,1
14870.531,0.111,0.355,0.791,1.34,3.36,-4.55,0,1
14870.531,0.107,0.343,0.769,5.1,11.6,-6.35,0,1
14870.546,0.102,0.358,0.761,8.21,21.03,-8.33,0,1
14870.562,0.082,0.375,0.756,10.35,30.43,-10.07,0,1
14870.562,0.042,0.389,0.761,10.32,38.45,-11.84,0,1
14870.578,-0.036,0.471,0.856,1.71,41.44,-11.93,0,1
14870.593,-0.081,0.583,0.996,-18.65,31.62,-8.61,0,1
14870.593,-0.035,0.467,1.007,-30.21,14.77,-4.3,0,1
14870.609,-0.091,0.362,1.017,-27.8,4.76,-4.85,0,1
14870.609,-0.096,0.477,1.082,-29.42,-6.2,-3.23,0,1
14870.625,-0.048,0.395,1.076,-21.03,-14.13,-1.37,0,1
14870.64,-0.088,0.354,1.038,-6.35,-15.02,0.12,0,1
14870.64,-0.049,0.401,1.016,4.67,-12.97,2.81,0,1
14870.656,-0.043,0.398,0.983,13.49,-8.48,3.94,0,1
14870.671,-0.038,0.404,0.97,16.45,-4.24,4.61,0,1
14870.687,-0.023,0.421,0.957,16.72,-2.53,4.82,0,1
14870.687,-0.017,0.422,0.941,15.69,-3.17,4.52,0,1
14870.703,-0.009,0.422,0.927,13.67,-5.01,4.06,0,1
14870.703,-0.002,0.435,0.918,11.26,-7.17,3.08,0,1
14870.718,-0.018,0.447,0.924,8.3,-9.77,2.2,0,1
14870.734,0.005,0.479,0.929,2.26,-14.31,3.17,0,1
14870.734,0.045,0.391,0.874,3.39,-15.32,3.17,0,1
14870.75,0.012,0.404,0.863,6.38,-11.75,2.41,0,1
14870.75,0.033,0.447,0.875,6.44,-9.55,3.54,0,1
14870.765,0.014,0.425,0.882,6.53,-8.61,3.91,0,1
14870.781,0.016,0.436,0.869,5.65,-9.25,4.76,0,1
14870.781,0.036,0.422,0.861,5.77,-9.25,5.8,0,1
14870.796,0.038,0.426,0.87,1.4,-9.58,5.4,0,1
14870.812,0.044,0.415,0.868,-1.71,-9.64,4.36,0,1
14870.812,0.044,0.402,0.86,-2.53,-8.18,3.14,0,1
14870.828,0.051,0.395,0.86,-2.78,-5.89,2.41,0,1
14870.843,0.049,0.397,0.865,-1.95,-2.69,1.65,0,1
14870.843,0.041,0.405,0.875,-0.58,0.49,1.5,0,1
14870.859,0.042,0.406,0.878,0.64,2.23,1.92,0,1
14870.859,0.044,0.404,0.882,1.89,2.62,2.59,0,1
14870.875,0.039,0.411,0.887,3.27,3.17,2.93,0,1
14870.89,0.034,0.417,0.891,4.0,3.91,2.87,0,1
14870.89,0.03,0.415,0.899,4.36,3.69,3.2,0,1
14870.921,0.032,0.421,0.895,3.66,0.18,3.27,0,1
14870.921,0.03,0.424,0.893,1.74,-0.79,2.35,0,1
14870.937,0.03,0.423,0.896,-1.19,-1.34,0.98,0,1
14870.953,0.032,0.417,0.893,-3.02,-1.59,0.15,0,1
14870.953,0.034,0.41,0.892,-2.99,-1.86,0.58,0,1
14870.968,0.032,0.41,0.89,0.82,-1.07,0.95,0,1
14870.968,0.023,0.42,0.887,1.98,-0.34,1.01,0,1
14870.984,0.021,0.426,0.883,2.38,0.64,1.37,0,1
14871.0,0.024,0.425,0.877,2.5,1.59,2.01,0,1
14871.0,0.029,0.419,0.881,2.78,3.08,2.5,0,1
14871.015,0.028,0.414,0.883,3.78,4.79,2.84,0,1
14871.031,0.015,0.418,0.886,5.13,6.81,2.99,0,1
14871.031,-0.0,0.432,0.891,5.34,8.64,3.14,0,1
14871.046,-0.008,0.442,0.899,3.3,9.46,2.96,0,1
14871.062,-0.015,0.447,0.91,0.27,9.09,3.02,0,1
14871.062,-0.021,0.444,0.927,-2.26,7.78,3.17,0,1
14871.078,-0.022,0.438,0.943,-3.33,5.22,3.11,0,1
14871.093,-0.031,0.438,0.952,-3.02,2.2,2.78,0,1
14871.093,-0.036,0.436,0.955,-1.77,-0.55,2.35,0,1
14871.109,-0.038,0.44,0.956,0.06,-2.53,2.53,0,1
14871.109,-0.039,0.442,0.951,1.89,-3.63,3.05,0,1
14871.125,-0.04,0.441,0.945,3.36,-4.15,3.51,0,1
14871.14,-0.031,0.439,0.939,4.46,-4.3,4.21,0,1
14871.14,-0.018,0.435,0.933,4.97,-4.18,4.49,0,1
14871.156,-0.005,0.427,0.924,4.91,-4.43,4.24,0,1
14871.171,0.015,0.421,0.918,4.43,-4.52,3.48,0,1
14871.187,0.037,0.416,0.912,2.75,-4.61,2.47,0,1
14871.187,0.052,0.412,0.91,0.24,-4.61,1.28,0,1
14871.203,0.062,0.402,0.911,-1.8,-4.55,0.7,0,1
14871.203,0.08,0.396,0.91,-3.39,-4.27,0.61,0,1
14871.218,0.092,0.387,0.909,-3.72,-3.48,0.79,0,1
14871.218,0.09,0.38,0.91,-3.33,-2.78,0.85,0,1
14871.234,0.085,0.372,0.91,-2.04,-2.66,1.16,0,1
14871.25,0.082,0.37,0.909,-0.21,-2.72,1.56,0,1
14871.25,0.076,0.373,0.903,1.56,-2.84,1.65,0,1
14871.265,0.064,0.383,0.898,2.72,-2.75,1.28,0,1
14871.281,0.051,0.393,0.897,2.56,-2.29,0.76,0,1
14871.296,0.045,0.396,0.899,1.5,-1.98,0.52,0,1
14871.296,0.046,0.394,0.902,0.46,-1.74,0.46,0,1
14871.312,0.057,0.396,0.907,0.0,-1.56,0.24,0,1
14871.312,0.069,0.403,0.905,-0.55,-2.08,-0.67,0,1
14871.328,0.078,0.407,0.898,-1.4,-3.33,-1.95,0,1
14871.343,0.079,0.408,0.898,-1.68,-4.88,-2.44,0,1
14871.343,0.083,0.401,0.892,-0.21,-7.05,-1.8,0,1
14871.359,0.088,0.394,0.879,2.23,-9.55,-0.85,0,1
14871.375,0.086,0.397,0.862,5.37,-11.11,-0.18,0,1
14871.375,0.078,0.404,0.85,7.63,-11.6,-0.43,0,1
14871.39,0.061,0.417,0.838,7.08,-11.2,-1.83,0,1
14871.39,0.057,0.421,0.833,5.46,-10.1,-2.81,0,1
14871.406,0.053,0.421,0.836,4.27,-8.42,-2.9,0,1
14871.421,0.067,0.421,0.839,4.24,-6.53,-2.5,0,1
14871.437,0.058,0.434,0.847,5.46,-2.53,-2.2,0,1
14871.453,0.063,0.44,0.86,4.94,0.37,-2.96,0,1
14871.453,0.061,0.435,0.871,3.97,3.23,-3.27,0,1
14871.468,0.063,0.448,0.886,2.78,5.71,-3.05,0,1
14871.484,0.07,0.447,0.897,1.25,6.81,-2.81,0,1
14871.484,0.083,0.434,0.907,0.34,6.59,-2.23,0,1
14871.5,0.104,0.425,0.91,0.79,5.07,-1.22,0,1
14871.515,0.124,0.42,0.912,2.72,2.56,0.49,0,1
14871.515,0.149,0.425,0.907,5.77,-0.15,2.72,0,1
14871.531,0.178,0.451,0.9,9.16,-2.04,4.36,0,1
14871.531,0.196,0.479,0.897,11.87,-3.05,5.74,0,1
14871.546,0.202,0.496,0.887,14.59,-4.0,8.45,0,1
14871.562,0.182,0.52,0.874,17.21,-3.3,11.96,0,1
14871.562,0.167,0.553,0.871,16.91,-1.62,14.5,0,1
14871.578,0.153,0.551,0.869,14.22,-0.27,16.51,0,1
14871.593,0.132,0.54,0.867,10.96,1.8,18.77,0,1
14871.609,0.106,0.546,0.854,3.08,8.88,21.67,0,1
14871.625,0.112,0.531,0.847,-1.19,12.97,24.23,0,1
14871.625,0.123,0.516,0.841,-4.33,16.66,27.59,0,1
14871.64,0.146,0.482,0.843,-6.23,19.84,30.58,0,1
14871.64,0.153,0.458,0.857,-5.68,23.59,31.77,0,1
14871.656,0.148,0.454,0.871,-2.87,28.02,31.16,0,1
14871.671,0.14,0.449,0.876,1.89,30.98,30.37,0,1
14871.671,0.12,0.452,0.874,8.33,31.8,30.55,0,1
14871.687,0.092,0.448,0.866,14.31,30.21,31.62,0,1
14871.703,0.072,0.423,0.85,18.8,27.07,33.08,0,1
14871.703,0.07,0.415,0.833,19.84,24.08,32.65,0,1
14871.718,0.046,0.434,0.811,15.99,22.58,28.87,0,1
14871.734,-0.007,0.48,0.797,5.43,24.35,21.7,0,1
14871.734,-0.045,0.522,0.807,-12.48,27.71,13.15,0,1
14871.75,-0.083,0.521,0.841,-30.46,31.1,7.69,0,1
14871.75,-0.107,0.502,0.866,-41.35,32.56,8.12,0,1
14871.781,-0.077,0.429,0.905,-32.11,33.54,17.4,0,1
14871.796,-0.056,0.379,0.902,-17.37,32.65,21.24,0,1
14871.796,-0.035,0.363,0.888,-3.51,29.94,22.25,0,1
14871.812,-0.016,0.349,0.856,6.74,26.86,22.31,0,1
14871.812,-0.016,0.347,0.839,11.35,24.48,22.13,0,1
14871.828,-0.046,0.372,0.822,10.93,24.14,22.06,0,1
14871.843,-0.058,0.405,0.827,4.91,25.61,20.63,0,1
14871.843,-0.068,0.394,0.849,-5.19,26.92,16.14,0,1
14871.859,-0.08,0.375,0.876,-16.79,27.22,9.06,0,1
14871.859,-0.081,0.338,0.895,-24.99,25.61,1.83,0,1
14871.875,-0.066,0.303,0.897,-28.63,22.16,-5.16,0,1
14871.89,-0.049,0.28,0.885,-27.95,18.4,-12.09,0,1
14871.906,-0.038,0.276,0.833,-25.64,16.05,-18.77,0,1
14871.906,-0.075,0.311,0.824,-24.17,17.03,-23.9,0,1
14871.921,-0.24,0.418,0.966,-18.22,17.55,-21.06,0,1
14871.921,-0.399,0.497,1.088,-8.0,9.64,-10.86,0,1
14871.953,-0.356,0.584,1.132,-2.41,-13.7,16.02,0,1
14871.953,-0.348,0.505,1.1,0.98,-10.13,14.1,0,1
14871.968,-0.292,0.418,1.022,1.22,-0.03,10.32,0,1
14871.968,-0.265,0.365,0.912,0.4,14.53,6.01,0,1
14871.984,-0.331,0.334,0.932,0.98,28.53,4.97,0,1
14872.0,-0.408,0.312,1.056,1.62,36.32,6.5,0,1
14872.0,-0.494,0.346,1.218,4.43,31.1,6.35,0,1
14872.015,-0.406,0.3,1.24,7.66,10.44,4.91,0,1
14872.031,-0.395,0.28,1.255,5.77,-14.07,-2.41,0,1
14872.031,-0.413,0.236,1.223,4.24,-40.96,-14.22,0,1
14872.046,-0.285,0.255,1.189,11.23,-63.88,-17.4,0,1
14872.062,-0.228,0.255,1.082,18.95,-81.39,-21.94,0,1
14872.062,-0.188,0.329,0.937,23.04,-89.97,-23.77,0,1
14872.078,-0.102,0.362,0.847,27.25,-90.06,-18.8,0,1
14872.093,-0.029,0.389,0.779,24.96,-87.92,-15.72,0,1
14872.093,0.055,0.431,0.73,19.96,-82.83,-14.25,0,1
14872.125,0.157,0.446,0.669,13.0,-67.35,-14.37,0,1
14872.125,0.196,0.47,0.661,8.18,-60.88,-16.08,0,1
14872.14,0.23,0.494,0.656,2.81,-55.45,-18.68,0,1
14872.14,0.25,0.517,0.64,-2.44,-50.36,-20.66,0,1
14872.156,0.266,0.546,0.628,-7.54,-44.25,-22.25,0,1
14872.171,0.28,0.559,0.621,-10.74,-37.08,-21.64,0,1
14872.187,0.286,0.567,0.615,-11.2,-26.76,-17.76,0,1
14872.187,0.3,0.583,0.642,-9.92,-14.44,-11.75,0,1
14872.187,0.301,0.574,0.677,-6.07,-3.14,-5.95,0,1
14872.203,0.292,0.558,0.701,-0.49,5.65,-0.64,0,1
14872.218,0.282,0.542,0.71,4.15,11.51,3.51,0,1
14872.234,0.271,0.52,0.711,7.45,15.87,6.26,0,1
14872.234,0.261,0.496,0.718,8.42,19.65,7.75,0,1
14872.25,0.246,0.475,0.729,5.71,22.92,7.2,0,1
14872.265,0.221,0.445,0.742,0.67,25.64,4.94,0,1
14872.265,0.194,0.427,0.769,-5.86,27.99,1.92,0,1
14872.281,0.116,0.432,0.841,-18.62,30.82,-4.0,0,1
14872.296,0.083,0.432,0.882,-24.29,30.52,-5.83,0,1
14872.312,0.05,0.433,0.924,-27.53,29.42,-7.66,0,1
14872.328,0.021,0.424,0.968,-28.08,26.83,-8.88,0,1
14872.328,-0.024,0.436,1.02,-26.28,23.13,-9.43,0,1
14872.343,-0.074,0.45,1.075,-23.47,16.72,-9.31,0,1
14872.343,-0.108,0.468,1.092,-20.81,5.98,-5.46,0,1
14872.359,-0.087,0.46,1.09,-16.08,-6.01,0.76,0,1
14872.375,-0.063,0.432,1.074,-7.69,-16.39,5.37,0,1
14872.375,-0.022,0.418,1.036,1.8,-24.51,8.06,0,1
14872.39,0.011,0.409,0.987,9.86,-29.57,8.0,0,1
14872.39,0.038,0.404,0.937,15.05,-31.74,6.26,0,1
14872.406,0.055,0.41,0.89,17.3,-30.85,4.58,0,1
14872.421,0.068,0.413,0.854,17.03,-27.16,3.14,0,1
14872.421,0.081,0.414,0.829,14.86,-22.03,1.86,0,1
14872.437,0.089,0.415,0.81,11.75,-15.99,0.64,0,1
14872.453,0.09,0.419,0.819,4.18,-2.99,-1.98,0,1
14872.468,0.076,0.412,0.846,0.79,2.5,-2.75,0,1
14872.468,0.051,0.409,0.865,-2.32,6.68,-2.93,0,1
14872.484,0.047,0.417,0.884,-5.19,9.09,-2.81,0,1
14872.5,0.038,0.409,0.905,-6.47,10.16,-2.53,0,1
14872.5,0.02,0.408,0.923,-6.96,10.22,-2.5,0,1
14872.515,0.017,0.399,0.936,-6.96,8.58,-1.74,0,1
14872.531,0.018,0.39,0.943,-6.44,6.38,-0.89,0,1
14872.531,0.019,0.389,0.951,-4.91,5.37,-0.24,0,1
14872.546,0.025,0.383,0.952,-2.9,4.67,0.0,0,1
14872.562,0.03,0.369,0.945,-0.67,4.15,-0.24,0,1
14872.562,0.033,0.378,0.938,1.01,3.88,-0.79,0,1
14872.578,0.027,0.383,0.931,2.04,3.81,-1.95,0,1
14872.578,0.03,0.375,0.925,1.98,3.27,-2.96,0,1
14872.593,0.028,0.381,0.917,0.92,2.66,-4.12,0,1
14872.609,0.025,0.39,0.914,-1.22,2.2,-5.77,0,1
14872.609,0.021,0.393,0.917,-3.91,1.59,-7.32,0,1
14872.625,0.018,0.39,0.923,-6.13,0.95,-8.21,0,1
14872.64,0.022,0.39,0.927,-7.45,0.31,-8.39,0,1
14872.64,0.029,0.388,0.928,-6.74,-0.37,-8.09,0,1
14872.656,0.034,0.387,0.923,-4.18,-0.61,-7.48,0,1
14872.671,0.034,0.386,0.916,-0.92,-0.09,-6.53,0,1
14872.671,0.035,0.387,0.908,2.08,0.7,-5.65,0,1
14872.687,0.036,0.395,0.898,3.69,1.68,-5.34,0,1
14872.703,0.039,0.396,0.891,3.54,2.59,-5.31,0,1
14872.703,0.042,0.4,0.89,2.11,3.33,-5.62,0,1
14872.718,0.043,0.406,0.889,0.37,4.15,-6.29,0,1
14872.734,0.043,0.404,0.89,-1.5,4.88,-6.99,0,1
14872.734,0.044,0.402,0.891,-3.42,5.19,-7.35,0,1
14872.75,0.039,0.402,0.896,-5.22,4.91,-7.69,0,1
14872.75,0.036,0.399,0.907,-6.13,4.39,-7.66,0,1
14872.765,0.029,0.405,0.918,-5.8,3.54,-6.68,0,1
14872.781,0.022,0.408,0.925,-4.33,2.29,-5.65,0,1
14872.781,0.02,0.409,0.928,-2.66,1.19,-4.94,0,1
14872.796,0.021,0.415,0.934,-0.27,0.89,-3.54,0,1
14872.812,0.025,0.415,0.932,3.11,0.4,-2.23,0,1
14872.812,0.021,0.427,0.925,5.28,0.18,-1.68,0,1
14872.828,0.018,0.433,0.92,5.8,0.46,-1.28,0,1
14872.843,0.014,0.436,0.92,4.91,0.21,-0.98,0,1
14872.843,0.012,0.437,0.917,3.02,-0.34,-0.67,0,1
14872.859,0.01,0.438,0.915,0.76,-1.16,-0.73,0,1
14872.875,0.015,0.434,0.915,-1.16,-2.04,-0.92,0,1
14872.875,0.02,0.432,0.916,-2.14,-2.04,-0.82,0,1
14872.89,0.016,0.436,0.917,-1.83,-1.8,-0.61,0,1
14872.89,0.019,0.432,0.918,-1.28,-1.71,0.06,0,1
14872.906,0.016,0.425,0.921,-0.76,-2.17,0.61,0,1
14872.921,0.008,0.427,0.931,-0.58,-2.44,0.79,0,1
14872.921,0.008,0.425,0.934,-1.65,-5.62,0.67,0,1
14872.937,0.006,0.421,0.932,-4.12,-7.84,-0.09,0,1
14872.953,0.001,0.424,0.933,-6.87,-10.25,-0.76,0,1
14872.953,0.0,0.413,0.934,-8.39,-12.12,-0.43,0,1
14872.984,0.003,0.399,0.934,-3.3,-14.65,0.4,0,1
14872.984,0.008,0.402,0.93,-0.79,-16.91,-0.21,0,1
14873.0,0.013,0.405,0.921,1.34,-20.02,-0.7,0,1
14873.0,0.024,0.408,0.906,3.05,-23.07,-0.58,0,1
14873.015,0.038,0.406,0.886,3.66,-25.64,-0.49,0,1
14873.031,0.052,0.402,0.85,2.69,-27.44,-0.73,0,1
14873.046,0.069,0.397,0.815,0.67,-27.53,-1.34,0,1
14873.046,0.091,0.385,0.777,-1.01,-25.57,-1.74,0,1
14873.062,0.116,0.378,0.743,-1.89,-21.27,-1.83,0,1
14873.062,0.144,0.358,0.708,-0.76,-13.58,-1.92,0,1
14873.078,0.161,0.322,0.666,3.45,-0.61,-3.42,0,1
14873.093,0.183,0.31,0.634,11.11,18.89,-5.58,0,1
14873.093,0.181,0.303,0.621,20.26,43.92,-6.62,0,1
14873.109,0.129,0.338,0.651,25.94,70.07,-8.58,0,1
14873.109,0.007,0.395,0.778,22.64,90.61,-11.38,0,1
14873.125,-0.149,0.568,1.063,-6.44,89.18,-14.92,0,1
14873.14,-0.235,0.517,1.369,-61.98,27.41,-10.13,0,1
14873.156,-0.198,0.388,1.389,-54.02,-3.57,-2.69,0,1
14873.171,-0.083,0.313,1.266,-27.71,-24.72,1.89,0,1
14873.171,-0.031,0.31,1.104,3.54,-27.77,2.62,0,1
14873.187,-0.04,0.348,1.044,32.69,-18.52,5.46,0,1
14873.203,-0.029,0.386,0.995,50.9,-12.51,7.9,0,1
14873.203,-0.017,0.452,0.91,51.61,-11.96,8.97,0,1
14873.218,-0.024,0.477,0.893,38.09,-13.37,9.49,0,1
14873.234,0.03,0.485,0.87,17.24,-20.2,9.03,0,1
14873.234,0.06,0.366,0.801,10.93,-21.73,5.65,0,1
14873.25,0.021,0.434,0.803,1.83,-22.31,2.17,0,1
14873.25,0.06,0.474,0.836,-11.26,-25.18,1.22,0,1
14873.265,0.059,0.406,0.837,-18.4,-26.58,0.7,0,1
14873.281,0.064,0.384,0.826,-18.13,-24.84,1.07,0,1
14873.296,0.068,0.398,0.822,-13.58,-19.56,1.56,0,1
14873.296,0.058,0.389,0.834,-8.09,-13.25,2.69,0,1
14873.312,0.05,0.398,0.843,2.56,-2.17,5.31,0,1
14873.328,0.047,0.401,0.849,4.39,1.98,5.22,0,1
14873.343,0.039,0.401,0.857,4.12,5.04,4.43,0,1
14873.343,0.033,0.406,0.869,2.69,6.59,3.54,0,1
14873.359,0.028,0.411,0.884,0.55,6.62,2.99,0,1
14873.375,0.026,0.407,0.893,-1.71,5.43,2.38,0,1
14873.375,0.023,0.408,0.904,-3.88,3.75,1.56,0,1
14873.39,0.022,0.409,0.911,-5.01,2.26,0.89,0,1
14873.39,0.025,0.4,0.915,-5.16,0.82,0.49,0,1
14873.406,0.025,0.392,0.915,-3.6,-0.52,0.55,0,1
14873.421,0.029,0.39,0.911,-1.22,-1.68,0.73,0,1
14873.421,0.037,0.391,0.903,0.95,-2.5,1.01,0,1
14873.437,0.038,0.398,0.896,2.41,-1.83,0.98,0,1
14873.453,0.037,0.404,0.892,2.14,-0.89,0.37,0,1
14873.453,0.037,0.405,0.892,0.76,-0.18,-0.27,0,1
14873.468,0.037,0.404,0.895,0.12,0.43,-0.64,0,1
14873.484,0.036,0.404,0.894,0.43,0.76,-0.76,0,1
14873.484,0.037,0.41,0.893,1.19,0.95,-0.92,0,1
14873.5,0.04,0.416,0.889,1.59,0.73,-0.82,0,1
14873.5,0.039,0.417,0.881,1.37,0.61,-0.58,0,1
14873.515,0.037,0.422,0.879,0.55,1.19,-0.73,0,1
14873.531,0.037,0.424,0.879,-0.31,2.14,-0.7,0,1
14873.531,0.034,0.416,0.882,-0.73,3.14,-0.27,0,1
14873.546,0.036,0.406,0.887,-0.31,4.09,0.43,0,1
14873.562,0.035,0.399,0.89,0.95,5.01,0.85,0,1
14873.562,0.034,0.402,0.888,2.01,6.01,0.7,0,1
14873.578,0.031,0.411,0.89,1.95,6.84,0.43,0,1
14873.593,0.026,0.42,0.89,-0.03,7.35,-0.15,0,1
14873.593,0.022,0.418,0.897,-2.84,7.17,-0.55,0,1
14873.609,0.019,0.411,0.91,-4.79,6.74,-0.58,0,1
14873.609,0.017,0.402,0.921,-5.19,5.98,0.09,0,1
14873.625,0.021,0.391,0.927,-3.78,4.97,0.67,0,1
14873.64,0.024,0.387,0.93,-1.25,4.61,0.7,0,1
14873.64,0.02,0.395,0.936,1.01,4.73,0.55,0,1
14873.656,0.015,0.403,0.939,1.89,4.82,0.4,0,1
14873.671,0.013,0.407,0.941,1.83,4.15,0.21,0,1
14873.671,0.013,0.406,0.941,1.16,2.87,0.27,0,1
14873.687,0.011,0.408,0.936,0.0,1.28,-0.27,0,1
14873.703,0.016,0.409,0.93,-1.43,-0.4,-1.22,0,1
14873.718,0.018,0.407,0.921,-2.72,-1.37,-1.59,0,1
14873.718,0.011,0.407,0.92,-3.57,-1.46,-1.65,0,1
14873.718,0.011,0.405,0.923,-4.03,-1.31,-1.28,0,1
14873.734,0.01,0.397,0.931,-3.57,-0.89,-0.79,0,1
14873.75,0.009,0.39,0.932,-1.59,-1.07,-0.7,0,1
14873.75,0.011,0.392,0.928,0.92,-1.4,-0.79,0,1
14873.765,0.011,0.396,0.917,2.56,-1.83,-1.01,0,1
14873.781,0.011,0.399,0.906,2.78,-2.5,-1.07,0,1
14873.781,0.015,0.403,0.896,1.4,-3.14,-1.31,0,1
14873.796,0.02,0.399,0.892,-0.73,-3.3,-1.71,0,1
14873.812,0.017,0.391,0.894,-2.66,-2.59,-2.44,0,1
14873.812,0.008,0.397,0.902,-3.81,-1.68,-3.3,0,1
14873.843,-0.005,0.403,0.921,-5.01,-1.77,-4.61,0,1
14873.843,-0.001,0.405,0.913,-3.81,-3.39,-4.27,0,1
14873.859,0.001,0.402,0.91,-1.83,-5.28,-4.12,0,1
14873.859,-0.001,0.382,0.904,1.01,-9.19,-4.58,0,1
14873.875,-0.008,0.408,0.92,2.44,-16.08,-5.4,0,1
14873.89,0.003,0.429,0.94,2.47,-25.51,-5.37,0,1
14873.89,0.023,0.409,0.952,-2.01,-37.08,-6.16,0,1
14873.906,0.052,0.394,0.929,-17.15,-51.09,-8.3,0,1
14873.921,0.082,0.377,0.903,-19.29,-49.68,-8.58,0,1
14873.921,0.108,0.345,0.871,-15.96,-42.94,-9.58,0,1
14873.937,0.13,0.327,0.844,-7.69,-31.68,-11.41,0,1
14873.953,0.164,0.329,0.792,2.17,-16.85,-13.4,0,1
14873.953,0.177,0.326,0.768,9.89,0.55,-15.96,0,1
14873.968,0.179,0.312,0.704,17.67,20.97,-19.71,0,1
14873.984,0.115,0.336,0.66,27.5,45.93,-22.55,0,1
14873.984,0.006,0.467,0.687,31.53,69.77,-20.39,0,1
14874.0,-0.261,0.662,1.055,-4.27,80.97,-7.6,0,1
14874.015,-0.292,0.799,1.334,-59.57,45.59,2.96,0,1
14874.031,-0.149,0.501,1.31,-82.61,4.06,8.33,0,1
14874.031,-0.095,0.247,1.214,-68.03,-19.01,3.48,0,1
14874.046,-0.014,0.255,1.129,-38.15,-26.31,-1.13,0,1
14874.062,-0.009,0.281,1.037,-1.19,-21.33,-1.53,0,1
14874.062,-0.03,0.321,0.963,27.22,-12.18,2.9,0,1
14874.078,-0.026,0.39,0.912,38.7,-3.78,7.11,0,1
14874.093,-0.05,0.435,0.929,32.04,0.76,8.51,0,1
14874.093,-0.013,0.414,0.907,14.56,-1.92,8.06,0,1
14874.109,-0.05,0.348,0.902,7.69,-0.95,4.36,0,1
14874.109,-0.1,0.475,0.967,-0.76,-4.18,3.6,0,1
14874.125,-0.085,0.466,0.944,-0.27,-9.43,7.45,0,1
14874.14,-0.066,0.411,0.945,-3.51,-14.31,6.99,0,1
14874.14,-0.067,0.442,0.944,-8.61,-19.38,4.18,0,1
14874.156,-0.054,0.438,0.923,-7.11,-21.58,4.88,0,1
14874.171,-0.001,0.383,0.898,-5.89,-21.55,8.48,0,1
14874.187,0.006,0.374,0.89,-1.74,-18.89,9.77,0,1
14874.203,0.02,0.37,0.878,2.41,-15.2,10.35,0,1
14874.203,0.031,0.363,0.865,5.04,-10.74,9.58,0,1
14874.218,0.035,0.369,0.859,5.95,-6.5,8.3,0,1
14874.234,0.039,0.374,0.857,5.49,-3.88,6.9,0,1
14874.234,0.043,0.382,0.855,4.09,-2.29,5.46,0,1
14874.25,0.042,0.385,0.857,1.5,-1.34,4.67,0,1
14874.25,0.024,0.396,0.869,-1.4,-1.28,4.39,0,1
14874.265,0.006,0.411,0.886,-3.97,-2.04,4.09,0,1
14874.281,-0.001,0.409,0.898,-5.86,-3.05,4.3,0,1
14874.281,-0.002,0.394,0.906,-6.35,-3.81,5.25,0,1
14874.296,-0.005,0.385,0.911,-5.04,-3.88,6.2,0,1
14874.312,-0.023,0.397,0.92,-2.29,-3.17,6.59,0,1
14874.312,-0.047,0.416,0.926,-0.58,-2.17,6.26,0,1
14874.328,-0.089,0.449,0.94,-0.27,-0.73,6.13,0,1
14874.343,-0.166,0.523,0.987,-6.56,3.45,5.74,0,1
14874.359,-0.191,0.531,1.02,-9.67,4.15,7.17,0,1
14874.359,-0.203,0.527,1.039,-9.83,2.14,9.86,0,1
14874.375,-0.202,0.522,1.048,-6.13,-2.14,13.28,0,1
14874.39,-0.203,0.514,1.04,0.82,-8.09,16.57,0,1
14874.39,-0.195,0.502,1.013,8.85,-14.89,20.45,0,1
14874.406,-0.198,0.504,0.973,15.53,-20.42,23.77,0,1
14874.421,-0.195,0.521,0.943,18.04,-23.19,25.91,0,1
14874.421,-0.181,0.513,0.919,17.06,-24.05,27.07,0,1
14874.437,-0.154,0.487,0.9,15.47,-24.08,28.96,0,1
14874.453,-0.13,0.47,0.883,14.77,-22.68,31.22,0,1
14874.453,-0.115,0.465,0.884,14.22,-20.6,32.44,0,1
14874.468,-0.11,0.447,0.883,13.64,-19.04,32.81,0,1
14874.484,-0.1,0.441,0.891,11.63,-17.52,32.56,0,1
14874.484,-0.064,0.421,0.896,9.64,-16.94,32.38,0,1
14874.5,-0.017,0.399,0.893,8.88,-17.7,32.56,0,1
14874.515,0.071,0.342,0.867,11.96,-22.28,33.54,0,1
14874.531,0.079,0.342,0.851,13.34,-24.23,32.26,0,1
14874.531,0.095,0.345,0.845,13.31,-24.11,29.57,0,1
14874.546,0.081,0.356,0.848,11.66,-20.94,26.12,0,1
14874.562,0.075,0.368,0.865,7.57,-16.27,22.77,0,1
14874.578,0.088,0.343,0.884,4.88,-12.3,21.61,0,1
14874.578,0.086,0.322,0.901,6.23,-8.67,22.06,0,1
14874.578,0.089,0.33,0.915,10.07,-5.95,21.55,0,1
14874.593,0.085,0.34,0.914,14.07,-4.0,18.8,0,1
14874.609,0.064,0.379,0.916,15.78,-1.5,13.86,0,1
14874.609,0.066,0.391,0.916,15.02,0.12,9.7,0,1
14874.625,0.056,0.402,0.924,13.37,1.25,8.21,0,1
14874.64,0.039,0.43,0.935,10.93,1.83,8.33,0,1
14874.64,0.036,0.449,0.953,7.32,1.92,7.2,0,1
14874.656,0.042,0.456,0.965,3.2,1.46,4.55,0,1
14874.671,0.044,0.472,0.971,-0.09,0.76,1.19,0,1
14874.671,0.045,0.494,0.969,-2.35,-0.46,-2.38,0,1
14874.687,0.05,0.523,0.964,-5.62,-1.56,-6.04,0,1
14874.703,0.075,0.528,0.966,-9.03,-2.32,-8.12,0,1
14874.703,0.094,0.498,0.97,-10.07,-2.9,-6.38,0,1
14874.718,0.104,0.468,0.978,-8.15,-1.37,-1.53,0,1
14874.734,0.136,0.449,0.99,-4.76,2.66,3.54,0,1
14874.734,0.143,0.447,1.005,-0.95,8.3,6.13,0,1
14874.75,0.171,0.44,1.018,0.79,12.82,6.47,0,1
14874.75,0.216,0.422,1.011,0.12,14.37,7.17,0,1
14874.765,0.265,0.417,0.992,-1.37,14.13,7.32,0,1
14874.781,0.292,0.401,0.965,-4.61,12.36,6.68,0,1
14874.781,0.329,0.394,0.944,-10.86,8.73,4.67,0,1
14874.796,0.346,0.394,0.92,-19.23,4.76,1.01,0,1
14874.812,0.387,0.389,0.895,-28.63,1.86,-2.59,0,1
14874.828,0.378,0.379,0.869,-36.56,1.43,-5.89,0,1
14874.828,0.39,0.376,0.869,-43.31,3.14,-6.41,0,1
14874.843,0.399,0.383,0.868,-46.69,5.04,-7.17,0,1
14874.843,0.372,0.365,0.881,-48.31,5.34,-2.59,0,1
14874.859,0.356,0.36,0.892,-46.94,4.15,5.52,0,1
14874.859,0.334,0.31,0.905,-43.64,3.57,15.08,0,1
14874.875,0.319,0.264,0.933,-39.64,5.68,26.15,0,1
14874.89,0.293,0.243,0.963,-28.47,11.2,33.39,0,1
14874.89,0.278,0.216,0.983,-25.06,10.16,32.35,0,1
14874.906,0.258,0.207,0.993,-22.55,6.53,29.6,0,1
14874.921,0.228,0.2,0.987,-22.1,-0.09,27.19,0,1
14874.921,0.211,0.205,0.974,-21.91,-9.19,25.15,0,1
14874.937,0.204,0.204,0.954,-20.78,-19.84,23.68,0,1
14874.953,0.208,0.223,0.926,-19.5,-31.31,21.82,0,1
14874.953,0.178,0.245,0.878,-19.26,-41.17,17.18,0,1
14874.968,0.178,0.236,0.84,-22.77,-49.26,14.01,0,1
14874.984,0.2,0.251,0.815,-26.8,-54.84,10.19,0,1
14874.984,0.203,0.247,0.78,-28.32,-57.68,6.29,0,1
14875.0,0.19,0.245,0.755,-28.17,-56.92,2.69,0,1
14875.0,0.197,0.253,0.742,-27.59,-52.92,0.15,0,1
14875.015,0.207,0.252,0.745,-26.64,-45.5,-0.85,0,1
14875.031,0.206,0.246,0.759,-24.29,-35.68,-0.24,0,1
14875.031,0.198,0.244,0.784,-20.33,-24.78,1.92,0,1
14875.046,0.195,0.247,0.812,-15.59,-15.32,4.21,0,1
14875.062,0.182,0.251,0.834,-11.11,-7.87,5.68,0,1
14875.062,0.203,0.253,0.85,-7.84,-2.78,7.14,0,1
14875.078,0.214,0.264,0.865,-5.13,-0.31,8.76,0,1
14875.093,0.225,0.261,0.877,-2.72,-0.55,11.02,0,1
14875.093,0.227,0.255,0.882,-1.5,-1.71,13.09,0,1
14875.109,0.228,0.242,0.888,-1.46,-2.5,14.53,0,1
14875.125,0.226,0.237,0.892,-2.2,-1.86,14.74,0,1
14875.125,0.238,0.232,0.9,-3.42,0.24,14.92,0,1
14875.14,0.24,0.228,0.909,-3.42,4.03,15.38,0,1
14875.14,0.251,0.227,0.914,-1.62,8.88,16.08,0,1
14875.156,0.261,0.226,0.914,1.34,13.92,16.63,0,1
14875.171,0.261,0.243,0.909,4.15,18.31,16.11,0,1
14875.171,0.262,0.256,0.908,4.58,22.1,14.34,0,1
14875.187,0.256,0.268,0.906,1.34,24.75,10.93,0,1
14875.203,0.248,0.269,0.905,-4.49,26.09,7.45,0,1
14875.203,0.248,0.26,0.91,-10.59,26.34,4.36,0,1
14875.218,0.245,0.251,0.912,-15.17,25.88,2.17,0,1
14875.234,0.236,0.246,0.913,-17.18,25.85,1.4,0,1
14875.234,0.233,0.24,0.912,-16.17,26.31,0.95,0,1
14875.25,0.231,0.219,0.917,-12.51,28.53,2.84,0,1
14875.25,0.207,0.214,0.911,-7.63,33.08,5.74,0,1
14875.265,0.2,0.213,0.931,-1.8,39.46,9.7,0,1
14875.281,0.186,0.21,0.944,5.8,45.47,14.34,0,1
14875.281,0.186,0.214,0.949,12.18,49.17,18.71,0,1
14875.296,0.184,0.223,0.942,17.21,50.54,21.79,0,1
14875.312,0.185,0.223,0.932,20.02,49.59,23.29,0,1
14875.312,0.191,0.235,0.923,18.92,46.54,21.64,0,1
14875.328,0.188,0.234,0.917,14.04,41.63,18.13,0,1
14875.343,0.182,0.216,0.923,7.17,36.5,14.37,0,1
14875.343,0.189,0.2,0.935,1.22,32.11,11.38,0,1
14875.359,0.186,0.189,0.943,-2.23,28.84,8.33,0,1
14875.359,0.188,0.184,0.948,-2.84,26.8,5.46,0,1
14875.375,0.193,0.18,0.951,-0.98,25.76,4.03,0,1
14875.39,0.183,0.182,0.951,3.45,25.42,4.12,0,1
14875.39,0.18,0.181,0.948,9.37,24.87,5.92,0,1
14875.406,0.168,0.198,0.939,14.44,23.83,6.84,0,1
14875.421,0.155,0.215,0.928,16.85,22.13,6.5,0,1
14875.437,0.146,0.23,0.923,15.5,19.99,5.13,0,1
14875.437,0.142,0.24,0.923,11.44,17.85,3.02,0,1
14875.453,0.142,0.246,0.928,6.53,15.9,0.98,0,1
14875.453,0.134,0.241,0.935,2.78,14.4,-0.76,0,1
14875.468,0.13,0.241,0.943,0.7,13.25,-2.66,0,1
14875.484,0.12,0.251,0.948,0.15,12.24,-4.85,0,1
14875.484,0.114,0.254,0.954,0.89,11.35,-6.81,0,1
14875.5,0.115,0.263,0.957,2.01,10.07,-8.18,0,1
14875.5,0.111,0.275,0.953,2.38,8.58,-8.7,0,1
14875.515,0.102,0.276,0.952,1.86,7.02,-8.55,0,1
14875.531,0.098,0.274,0.957,0.73,6.13,-7.84,0,1
14875.546,0.073,0.281,0.971,-0.67,6.5,-7.87,0,1
14875.562,0.073,0.284,0.977,-0.82,7.29,-8.27,0,1
14875.562,0.073,0.283,0.982,-0.52,7.6,-7.93,0,1
14875.578,0.072,0.288,0.988,0.24,7.29,-7.51,0,1
14875.593,0.07,0.293,0.989,0.55,5.92,-7.29,0,1
14875.593,0.053,0.298,0.987,-0.06,4.15,-7.66,0,1
14875.609,0.035,0.311,0.989,-1.98,1.98,-8.7,0,1
14875.609,0.025,0.313,0.992,-4.79,-0.15,-9.49,0,1
14875.625,0.014,0.308,0.999,-7.23,-1.92,-9.4,0,1
14875.64,0.018,0.306,1.005,-8.39,-3.36,-8.15,0,1
14875.64,0.023,0.301,1.004,-7.35,-4.7,-6.2,0,1
14875.656,0.027,0.295,1.005,-4.82,-5.71,-4.06,0,1
14875.671,0.034,0.293,0.996,-1.83,-6.78,-2.38,0,1
14875.671,0.037,0.299,0.983,0.31,-7.6,-1.37,0,1
14875.687,0.042,0.306,0.979,0.58,-8.24,-0.92,0,1
14875.703,0.046,0.3,0.968,-0.24,-8.76,-0.43,0,1
14875.703,0.055,0.292,0.964,-1.74,-9.09,0.27,0,1
14875.718,0.068,0.286,0.961,-2.96,-9.67,1.04,0,1
14875.718,0.068,0.273,0.956,-2.99,-10.25,2.01,0,1
14875.734,0.078,0.274,0.952,-2.35,-11.11,2.5,0,1
14875.75,0.084,0.27,0.945,-1.34,-12.05,3.2,0,1
14875.75,0.088,0.263,0.937,-0.34,-12.67,4.43,0,1
14875.765,0.092,0.27,0.926,0.7,-12.51,5.4,0,1
14875.781,0.091,0.271,0.915,0.82,-11.51,5.49,0,1
14875.796,0.099,0.268,0.912,0.0,-9.86,5.31,0,1
14875.796,0.108,0.271,0.916,-0.89,-7.81,4.0,0,1
14875.812,0.104,0.27,0.918,-2.11,-6.41,2.08,0,1
14875.812,0.105,0.269,0.923,-3.63,-5.65,0.31,0,1
14875.828,0.102,0.267,0.93,-4.58,-5.8,-0.76,0,1
14875.828,0.098,0.262,0.934,-5.16,-6.13,-1.16,0,1
14875.843,0.094,0.257,0.936,-5.1,-6.26,-0.73,0,1
14875.859,0.09,0.257,0.935,-4.15,-5.62,-0.27,0,1
14875.859,0.089,0.254,0.94,-1.65,-2.47,0.34,0,1
14875.875,0.088,0.259,0.952,-0.4,-2.08,0.98,0,1
14875.89,0.088,0.265,0.946,0.7,-1.98,1.8,0,1
14875.906,0.087,0.271,0.944,1.59,-2.23,3.17,0,1
14875.906,0.087,0.275,0.941,1.98,-2.81,4.18,0,1
14875.921,0.094,0.278,0.939,1.8,-3.08,4.85,0,1
14875.921,0.096,0.273,0.94,1.37,-2.84,5.28,0,1
14875.937,0.098,0.269,0.942,1.1,-2.38,5.58,0,1
14875.953,0.103,0.267,0.944,1.53,-1.46,5.55,0,1
14875.953,0.102,0.261,0.947,2.14,-0.4,5.55,0,1
14875.968,0.099,0.264,0.951,2.5,0.31,5.4,0,1
14875.984,0.104,0.263,0.95,2.47,0.7,4.88,0,1
14875.984,0.102,0.258,0.95,1.89,0.82,4.43,0,1
14876.0,0.104,0.256,0.951,0.98,0.61,3.69,0,1
14876.015,0.107,0.252,0.951,0.15,0.49,2.99,0,1
14876.015,0.097,0.248,0.954,-0.03,0.73,2.23,0,1
14876.031,0.091,0.248,0.958,-0.03,1.62,1.5,0,1
14876.031,0.092,0.24,0.963,0.06,2.38,1.53,0,1
14876.046,0.091,0.235,0.967,0.34,3.05,2.2,0,1
14876.062,0.095,0.235,0.97,1.43,3.3,2.44,0,1
14876.062,0.097,0.238,0.967,2.11,3.05,1.71,0,1
14876.078,0.091,0.245,0.965,2.14,2.66,0.49,0,1
14876.093,0.09,0.253,0.96,0.85,1.83,-1.25,0,1
14876.093,0.088,0.251,0.956,-0.85,1.25,-2.66,0,1
14876.109,0.083,0.257,0.962,-2.59,0.92,-3.88,0,1
14876.109,0.091,0.253,0.965,-4.06,0.55,-4.94,0,1
14876.125,0.088,0.246,0.967,-4.58,-0.24,-5.86,0,1
14876.14,0.093,0.252,0.966,-3.97,-1.28,-6.87,0,1
14876.14,0.087,0.258,0.963,-3.42,-2.08,-8.09,0,1
14876.156,0.089,0.257,0.959,-3.81,-2.62,-8.73,0,1
14876.171,0.081,0.262,0.954,-4.43,-3.27,-8.58,0,1
14876.171,0.078,0.267,0.951,-4.39,-3.17,-8.0,0,1
14876.187,0.07,0.266,0.951,-4.24,-2.2,-7.11,0,1
14876.203,0.071,0.273,0.955,-4.03,-0.95,-6.74,0,1
14876.203,0.079,0.267,0.96,-3.23,0.37,-6.07,0,1
14876.218,0.081,0.262,0.965,-2.23,0.82,-4.94,0,1
14876.218,0.08,0.268,0.966,-1.01,0.52,-4.43,0,1
14876.234,0.077,0.274,0.962,-0.92,-0.61,-4.43,0,1
14876.25,0.066,0.273,0.956,-2.08,-2.08,-4.67,0,1
14876.25,0.063,0.274,0.955,-3.75,-3.2,-4.82,0,1
14876.265,0.065,0.267,0.956,-4.79,-3.75,-4.49,0,1
14876.281,0.065,0.261,0.959,-4.82,-3.6,-3.54,0,1
14876.281,0.068,0.257,0.96,-3.17,-3.05,-1.95,0,1
14876.296,0.061,0.263,0.958,-0.52,-2.14,-0.76,0,1
14876.312,0.062,0.273,0.955,2.2,-1.43,0.49,0,1
14876.328,0.06,0.279,0.949,3.78,-0.7,1.56,0,1
14876.328,0.06,0.282,0.946,3.66,0.0,2.38,0,1
14876.328,0.057,0.278,0.949,2.47,0.49,2.72,0,1
14876.343,0.057,0.272,0.952,0.79,0.89,2.32,0,1
14876.359,0.066,0.264,0.958,-0.58,1.13,1.74,0,1
14876.359,0.067,0.256,0.963,-0.95,1.43,1.13,0,1
14876.375,0.074,0.255,0.969,-0.52,1.59,0.37,0,1
14876.39,0.074,0.259,0.967,0.0,1.46,-0.27,0,1
14876.39,0.069,0.264,0.966,0.03,0.98,-0.79,0,1
14876.406,0.067,0.266,0.965,-0.64,0.03,-0.98,0,1
14876.421,0.061,0.262,0.964,-1.37,-0.92,-0.67,0,1
14876.437,0.058,0.262,0.964,-1.46,-1.5,-0.03,0,1
14876.437,0.061,0.264,0.962,-0.92,-1.98,0.58,0,1
14876.453,0.062,0.26,0.959,-0.18,-1.74,1.04,0,1
14876.453,0.072,0.258,0.96,0.76,-0.73,1.4,0,1
14876.468,0.074,0.26,0.959,1.92,0.27,1.77,0,1
14876.484,0.072,0.266,0.956,2.26,1.01,1.5,0,1
14876.484,0.064,0.271,0.961,1.1,1.34,0.4,0,1
14876.5,0.057,0.271,0.967,-0.89,1.01,-0.37,0,1
14876.5,0.058,0.265,0.973,-2.35,0.82,-0.46,0,1
14876.515,0.061,0.259,0.978,-2.38,0.79,0.37,0,1
14876.531,0.066,0.258,0.979,-0.85,0.58,1.46,0,1
14876.546,0.069,0.257,0.977,1.4,0.52,2.38,0,1
14876.546,0.068,0.26,0.97,3.23,0.4,3.17,0,1
14876.562,0.068,0.267,0.964,3.75,0.21,3.6,0,1
14876.562,0.07,0.266,0.959,3.02,-0.21,3.51,0,1
14876.578,0.067,0.262,0.957,1.37,-0.67,3.23,0,1
14876.593,0.073,0.264,0.96,-0.24,-0.82,2.38,0,1
14876.593,0.075,0.258,0.96,-1.59,-1.1,1.1,0,1
14876.609,0.074,0.257,0.961,-2.35,-1.31,0.24,0,1
14876.625,0.08,0.26,0.964,-2.69,-1.46,-0.15,0,1
14876.625,0.081,0.253,0.961,-2.59,-1.56,-0.21,0,1
14876.64,0.079,0.252,0.96,-2.04,-1.43,0.03,0,1
14876.656,0.081,0.255,0.962,-1.28,-1.04,0.43,0,1
14876.656,0.082,0.252,0.955,-0.64,-0.7,1.07,0,1
14876.671,0.081,0.248,0.952,0.15,-0.31,1.71,0,1
14876.671,0.076,0.258,0.952,0.61,0.06,1.68,0,1
14876.687,0.078,0.261,0.949,0.4,0.24,1.16,0,1
14876.703,0.076,0.263,0.944,-0.37,0.34,0.64,0,1
14876.703,0.072,0.267,0.942,-1.31,0.34,0.15,0,1
14876.718,0.067,0.265,0.942,-2.17,0.49,-0.21,0,1
14876.734,0.061,0.267,0.948,-2.93,0.67,-0.52,0,1
14876.734,0.064,0.262,0.956,-3.11,1.07,-0.55,0,1
14876.75,0.062,0.256,0.96,-2.2,1.31,0.21,0,1
14876.75,0.064,0.256,0.959,-0.76,1.62,1.31,0,1
14876.765,0.071,0.254,0.957,1.1,1.86,2.5,0,1
14876.781,0.072,0.254,0.956,2.78,2.26,3.42,0,1
14876.781,0.075,0.259,0.956,3.6,2.9,3.63,0,1
14876.796,0.078,0.255,0.957,3.48,3.36,3.39,0,1
14876.812,0.076,0.251,0.958,2.84,3.23,3.33,0,1
14876.812,0.068,0.256,0.961,2.11,2.87,2.72,0,1
14876.828,0.07,0.251,0.966,1.04,2.26,1.68,0,1
14876.843,0.068,0.245,0.965,0.09,1.31,1.07,0,1
14876.843,0.074,0.238,0.967,-0.09,0.34,1.13,0,1
14876.859,0.071,0.241,0.968,0.46,-0.4,0.37,0,1
14876.859,0.073,0.242,0.964,0.89,0.03,-0.49,0,1
14876.875,0.071,0.246,0.957,1.04,0.49,-1.25,0,1
14876.89,0.063,0.262,0.957,0.37,1.07,-1.86,0,1
14876.89,0.06,0.263,0.957,-0.49,1.37,-2.29,0,1
14876.906,0.057,0.267,0.961,-1.13,1.46,-2.26,0,1
14876.921,0.059,0.267,0.965,-1.19,1.16,-1.95,0,1
14876.921,0.06,0.266,0.968,-0.61,0.7,-1.34,0,1
14876.937,0.066,0.264,0.969,0.27,0.24,-0.49,0,1
14876.953,0.064,0.262,0.962,1.19,-0.24,0.43,0,1
14876.953,0.064,0.269,0.959,1.56,-0.31,0.46,0,1
14876.968,0.061,0.267,0.957,1.1,-0.12,0.15,0,1
14876.968,0.059,0.269,0.96,0.12,0.03,-0.15,0,1
14876.984,0.051,0.277,0.965,-0.67,-0.24,-0.58,0,1
14877.0,0.053,0.272,0.969,-1.77,-0.64,-1.19,0,1
14877.0,0.055,0.264,0.971,-2.26,-1.1,-0.89,0,1
14877.015,0.054,0.264,0.974,-1.5,-1.5,-0.09,0,1
14877.031,0.055,0.268,0.975,-0.34,-2.08,0.52,0,1
14877.031,0.059,0.263,0.97,0.4,-2.38,1.37,0,1
14877.046,0.058,0.263,0.963,1.22,-2.41,2.23,0,1
14877.062,0.062,0.264,0.961,1.71,-2.32,3.02,0,1
14877.078,0.066,0.261,0.957,1.77,-2.01,3.36,0,1
14877.078,0.068,0.256,0.954,1.8,-1.56,3.3,0,1
14877.078,0.069,0.258,0.953,1.83,-1.13,3.17,0,1
14877.093,0.074,0.254,0.954,1.62,-0.82,2.81,0,1
14877.109,0.077,0.249,0.953,1.34,-0.76,2.56,0,1
14877.109,0.084,0.244,0.952,1.13,-0.67,2.38,0,1
14877.125,0.088,0.237,0.947,1.25,-0.76,2.44,0,1
14877.14,0.077,0.239,0.944,1.86,-0.06,2.14,0,1
14877.14,0.073,0.249,0.943,1.68,1.31,0.55,0,1
14877.156,0.069,0.255,0.943,0.52,2.53,-1.65,0,1
14877.171,0.063,0.264,0.949,-1.22,2.84,-3.27,0,1
14877.187,0.059,0.27,0.958,-2.9,2.66,-4.12,0,1
14877.187,0.054,0.266,0.969,-3.85,1.98,-4.15,0,1
14877.187,0.057,0.26,0.973,-3.11,0.98,-2.87,0,1
14877.203,0.061,0.257,0.971,-0.95,0.27,-0.89,0,1
14877.218,0.057,0.26,0.966,1.8,0.24,0.79,0,1
14877.234,0.053,0.267,0.959,3.48,0.67,1.59,0,1
14877.234,0.05,0.273,0.958,3.39,1.07,0.98,0,1
14877.25,0.051,0.277,0.961,1.77,1.16,0.12,0,1
14877.25,0.051,0.273,0.969,-0.46,1.16,-0.58,0,1
14877.265,0.048,0.27,0.974,-1.8,0.58,-0.98,0,1
14877.281,0.052,0.268,0.978,-2.26,-0.21,-1.22,0,1
14877.296,0.053,0.264,0.977,-1.71,-0.95,-0.95,0,1
14877.296,0.055,0.265,0.973,-0.58,-1.43,0.18,0,1
14877.312,0.056,0.265,0.968,0.61,-1.65,1.62,0,1
14877.312,0.055,0.261,0.965,1.59,-1.46,2.78,0,1
14877.328,0.055,0.262,0.961,1.95,-1.25,3.08,0,1
14877.343,0.055,0.26,0.956,1.65,-1.04,2.87,0,1
14877.343,0.058,0.256,0.956,1.13,-0.73,2.2,0,1
14877.359,0.064,0.257,0.957,0.24,-0.4,1.37,0,1
14877.375,0.069,0.254,0.958,-0.64,-0.58,0.52,0,1
14877.375,0.068,0.249,0.957,-1.1,-0.89,0.12,0,1
14877.39,0.068,0.25,0.958,-0.67,-1.31,0.03,0,1
14877.39,0.066,0.252,0.955,0.03,-1.4,-0.34,0,1
14877.406,0.066,0.255,0.952,0.52,-1.34,-0.61,0,1
14877.421,0.06,0.258,0.95,0.46,-1.25,-0.58,0,1
14877.421,0.06,0.262,0.951,-0.18,-0.95,-0.64,0,1
14877.437,0.063,0.257,0.954,-0.73,-0.61,-0.52,0,1
14877.453,0.061,0.255,0.958,-0.73,-0.03,-0.43,0,1
14877.468,0.061,0.256,0.96,0.09,0.61,-0.4,0,1
14877.484,0.06,0.259,0.961,1.04,1.13,-0.24,0,1
14877.484,0.057,0.264,0.963,1.74,1.53,-0.37,0,1
14877.5,0.051,0.27,0.965,1.8,1.4,-0.4,0,1
14877.515,0.051,0.27,0.966,1.19,1.04,-0.27,0,1
14877.531,0.048,0.27,0.966,0.4,0.37,-0.21,0,1
14877.531,0.048,0.273,0.967,-0.15,-0.34,-0.24,0,1
14877.531,0.052,0.272,0.964,-0.52,-0.98,-0.31,0,1
14877.546,0.051,0.27,0.962,-0.7,-1.16,-0.09,0,1
14877.546,0.053,0.271,0.961,-0.76,-1.01,0.06,0,1
14877.562,0.055,0.271,0.961,-0.73,-0.67,0.15,0,1
14877.562,0.05,0.273,0.964,-0.61,0.0,0.52,0,1
14877.578,0.051,0.274,0.963,-0.67,0.43,0.89,0,1
14877.593,0.052,0.272,0.965,-0.89,0.49,1.22,0,1
14877.593,0.051,0.267,0.964,-0.89,0.27,1.46,0,1
14877.609,0.048,0.268,0.962,-1.1,0.06,1.46,0,1
14877.625,0.048,0.267,0.961,-1.46,-0.34,1.28,0,1
14877.625,0.052,0.261,0.963,-1.71,-0.43,1.46,0,1
14877.64,0.054,0.254,0.963,-1.25,-0.52,2.08,0,1
14877.64,0.058,0.25,0.963,-0.27,-0.64,2.99,0,1
14877.656,0.066,0.242,0.96,1.04,-0.67,3.6,0,1
14877.671,0.07,0.243,0.957,2.23,-0.85,3.48,0,1
14877.671,0.075,0.245,0.951,2.44,-1.07,2.75,0,1
14877.687,0.081,0.244,0.945,2.04,-0.98,1.98,0,1
14877.703,0.085,0.239,0.944,1.16,-0.73,1.62,0,1
14877.703,0.091,0.234,0.946,0.73,-0.24,1.28,0,1
14877.718,0.1,0.232,0.946,1.07,0.7,0.73,0,1
14877.718,0.104,0.234,0.948,1.56,1.8,-0.15,0,1
14877.734,0.1,0.238,0.948,1.8,2.59,-1.13,0,1
14877.75,0.1,0.247,0.951,1.37,3.08,-2.35,0,1
14877.75,0.102,0.252,0.955,0.21,3.23,-3.42,0,1
14877.765,0.1,0.255,0.962,-1.01,3.08,-3.97,0,1
14877.781,0.091,0.256,0.966,-1.74,2.47,-4.43,0,1
14877.781,0.091,0.254,0.972,-1.89,1.8,-4.67,0,1
14877.796,0.092,0.253,0.973,-1.56,1.37,-4.58,0,1
14877.812,0.099,0.252,0.968,-0.82,0.95,-4.21,0,1
14877.812,0.118,0.253,0.97,-0.37,1.1,-4.15,0,1
14877.828,0.143,0.255,0.976,-0.95,2.26,-4.76,0,1
14877.843,0.157,0.256,0.983,-3.02,4.97,-6.01,0,1
14877.843,0.17,0.254,0.996,-3.78,4.49,-6.01,0,1
14877.859,0.166,0.248,0.998,-5.52,2.56,-7.54,0,1
14877.859,0.144,0.262,0.987,-9.67,-0.55,-10.47,0,1
14877.875,0.133,0.253,0.981,-15.78,-3.54,-12.91,0,1
14877.89,0.136,0.243,0.984,-20.97,-5.74,-13.95,0,1
14877.906,0.149,0.22,0.993,-23.65,-6.44,-13.37,0,1
14877.906,0.157,0.19,0.996,-22.13,-5.58,-11.2,0,1
14877.921,0.151,0.176,0.993,-16.63,-3.94,-8.15,0,1
14877.921,0.159,0.178,0.987,-9.67,-1.86,-5.04,0,1
14877.937,0.173,0.167,0.97,-3.57,0.43,-1.77,0,1
14877.953,0.197,0.163,0.959,1.25,3.39,2.01,0,1
14877.953,0.204,0.159,0.95,5.19,7.23,5.43,0,1
14877.968,0.197,0.163,0.942,7.35,10.86,6.16,0,1
14877.984,0.191,0.163,0.938,6.9,13.58,3.39,0,1
14877.984,0.185,0.16,0.938,3.42,14.71,-0.95,0,1
14878.0,0.176,0.153,0.942,-1.07,14.56,-5.25,0,1
14878.0,0.169,0.136,0.946,-5.07,13.28,-8.24,0,1
14878.015,0.134,0.133,0.95,-6.87,11.78,-10.32,0,1
14878.031,0.096,0.149,0.951,-7.51,10.13,-13.43,0,1
14878.031,0.073,0.161,0.954,-8.67,8.97,-17.64,0,1
14878.046,0.039,0.173,0.963,-9.7,8.67,-21.21,0,1
14878.062,0.027,0.19,0.976,-10.44,8.7,-22.95,0,1
14878.062,0.027,0.192,0.991,-9.49,8.76,-22.4,0,1
14878.078,-0.005,0.19,0.998,-5.71,8.12,-19.47,0,1
14878.093,-0.026,0.213,1.009,0.03,6.68,-16.82,0,1
14878.093,-0.024,0.219,1.003,5.62,4.0,-14.74,0,1
14878.109,-0.05,0.227,0.983,9.43,0.61,-12.76,0,1
14878.125,-0.052,0.265,0.969,10.01,-2.87,-13.31,0,1
14878.125,-0.034,0.275,0.959,5.65,-6.84,-16.6,0,1
14878.14,-0.051,0.27,0.951,-0.79,-10.96,-19.2,0,1
14878.14,-0.043,0.283,0.955,-5.77,-14.37,-21.24,0,1
14878.156,-0.019,0.265,0.959,-8.18,-16.94,-22.25,0,1
14878.171,-0.002,0.237,0.96,-7.93,-18.89,-20.14,0,1
14878.187,0.013,0.224,0.961,-3.36,-19.44,-15.96,0,1
14878.187,0.022,0.218,0.957,3.88,-18.77,-11.47,0,1
14878.203,0.013,0.231,0.944,11.54,-17.43,-7.35,0,1
14878.203,0.016,0.258,0.932,16.63,-15.66,-4.94,0,1
14878.218,0.016,0.263,0.925,18.31,-14.04,-3.88,0,1
14878.234,-0.006,0.277,0.918,17.67,-12.63,-4.18,0,1
14878.234,-0.004,0.29,0.92,14.16,-11.72,-5.95,0,1
14878.25,-0.006,0.283,0.925,8.15,-11.32,-8.51,0,1
14878.25,-0.021,0.278,0.932,1.46,-11.44,-10.96,0,1
14878.265,-0.025,0.292,0.946,-4.0,-10.86,-13.98,0,1
14878.281,-0.024,0.288,0.96,-8.24,-9.55,-17.61,0,1
14878.281,-0.017,0.271,0.974,-10.59,-8.85,-19.23,0,1
14878.296,-0.008,0.263,0.982,-8.48,-8.27,-17.64,0,1
14878.312,-0.007,0.255,0.981,-2.93,-8.18,-13.89,0,1
14878.312,-0.004,0.249,0.977,4.21,-8.24,-9.06,0,1
14878.328,-0.015,0.259,0.967,11.75,-7.84,-4.7,0,1
14878.343,-0.041,0.293,0.954,16.45,-6.59,-2.41,0,1
14878.343,-0.047,0.33,0.947,15.35,-5.25,-3.14,0,1
14878.359,-0.047,0.347,0.946,9.06,-4.24,-6.1,0,1
14878.359,-0.043,0.348,0.952,-0.06,-3.63,-9.49,0,1
14878.375,-0.028,0.33,0.964,-8.91,-4.18,-12.33,0,1
14878.39,-0.011,0.301,0.976,-15.69,-5.95,-13.79,0,1
14878.39,0.008,0.267,0.993,-18.37,-7.93,-13.43,0,1
14878.406,0.025,0.232,0.997,-16.36,-9.43,-11.54,0,1
14878.421,0.015,0.22,0.993,-10.07,-8.97,-8.48,0,1
14878.421,0.007,0.232,1.001,-1.28,-6.68,-4.52,0,1
14878.437,0.015,0.23,0.998,7.9,-5.04,0.27,0,1
14878.453,0.02,0.233,0.984,16.17,-3.57,5.28,0,1
14878.453,0.028,0.239,0.97,22.31,-2.53,9.83,0,1
14878.468,0.04,0.243,0.957,25.85,-1.68,12.02,0,1
14878.468,0.021,0.252,0.934,26.09,-0.82,11.35,0,1
14878.484,0.015,0.277,0.919,21.67,-0.21,7.39,0,1
14878.5,0.007,0.301,0.912,12.88,0.79,1.04,0,1
14878.5,0.0,0.312,0.921,1.31,1.4,-5.8,0,1
14878.515,0.01,0.299,0.939,-9.86,1.28,-10.38,0,1
14878.531,0.028,0.282,0.961,-16.75,0.55,-11.41,0,1
14878.531,0.038,0.251,0.978,-17.18,-0.92,-9.58,0,1
14878.546,0.052,0.224,0.989,-12.3,-2.11,-6.59,0,1
14878.562,0.063,0.209,0.994,-4.3,-2.69,-3.54,0,1
14878.562,0.06,0.215,0.987,4.39,-2.72,-0.15,0,1
14878.578,0.055,0.24,0.977,11.9,-1.89,2.04,0,1
14878.593,0.034,0.271,0.967,15.47,-0.31,2.2,0,1
14878.593,0.016,0.293,0.96,13.25,1.5,0.4,0,1
14878.609,0.009,0.294,0.969,6.59,2.29,-1.43,0,1
14878.625,0.023,0.298,0.982,0.0,3.08,-3.33,0,1
14878.625,0.038,0.281,0.987,-4.33,3.51,-5.01,0,1
14878.64,0.05,0.259,0.995,-6.78,3.3,-6.07,0,1
14878.64,0.052,0.254,0.996,-6.62,1.56,-6.32,0,1
14878.656,0.064,0.258,0.993,-4.52,-0.73,-5.74,0,1
14878.671,0.065,0.256,0.98,-1.37,-3.02,-4.18,0,1
14878.671,0.064,0.262,0.965,1.22,-4.46,-2.23,0,1
14878.687,0.052,0.276,0.953,2.81,-4.3,-0.82,0,1
14878.703,0.046,0.287,0.949,2.41,-2.96,-0.34,0,1
14878.703,0.051,0.296,0.947,-0.09,-1.13,-0.89,0,1
14878.718,0.054,0.294,0.951,-3.78,0.73,-1.56,0,1
14878.734,0.062,0.28,0.96,-7.14,1.95,-1.86,0,1
14878.734,0.069,0.27,0.97,-8.27,2.69,-1.43,0,1
14878.75,0.064,0.26,0.966,-7.66,3.02,-1.25,0,1
14878.75,0.05,0.258,0.966,-7.6,2.72,-1.37,0,1
14878.765,0.045,0.269,0.974,-8.97,2.29,-2.11,0,1
14878.781,0.051,0.272,0.98,-11.2,1.4,-2.72,0,1
14878.781,0.047,0.256,0.986,-12.27,0.52,-2.2,0,1
14878.796,0.057,0.242,0.993,-11.69,-0.82,-0.52,0,1
14878.812,0.066,0.227,0.992,-8.91,-2.41,0.95,0,1
14878.828,0.076,0.215,0.984,-1.53,-3.91,2.04,0,1
14878.828,0.07,0.209,0.969,0.52,-3.42,2.04,0,1
14878.828,0.052,0.215,0.958,0.4,-2.53,0.49,0,1
14878.843,0.046,0.236,0.948,-2.01,-1.83,-1.07,0,1
14878.859,0.036,0.254,0.952,-5.04,-1.01,-2.23,0,1
14878.859,0.019,0.267,0.954,-7.63,-0.03,-4.55,0,1
14878.875,0.032,0.262,0.962,-11.08,0.03,-5.8,0,1
14878.89,0.029,0.262,0.968,-12.18,0.4,-5.83,0,1
14878.89,0.028,0.252,0.971,-11.02,0.15,-4.12,0,1
14878.906,0.037,0.248,0.972,-8.0,-0.18,-1.92,0,1
14878.921,0.026,0.231,0.969,-3.36,-0.92,1.04,0,1
14878.921,0.028,0.231,0.966,1.34,-1.56,4.3,0,1
14878.937,0.028,0.224,0.954,5.74,-2.01,6.65,0,1
14878.953,0.032,0.212,0.947,8.42,-2.69,7.97,0,1
14878.953,0.031,0.209,0.934,9.95,-3.27,8.42,0,1
14878.968,0.024,0.214,0.926,9.61,-3.66,8.73,0,1
14878.984,0.016,0.22,0.924,8.36,-3.78,9.13,0,1
14878.984,0.002,0.225,0.926,6.56,-3.27,9.58,0,1
14879.0,-0.001,0.231,0.931,5.1,-2.62,10.28,0,1
14879.015,-0.005,0.235,0.937,4.64,-1.16,10.93,0,1
14879.015,-0.001,0.25,0.948,4.0,0.49,10.19,0,1
14879.031,-0.001,0.248,0.947,2.66,1.43,8.7,0,1
14879.031,0.002,0.248,0.949,-0.24,1.89,6.99,0,1
14879.046,0.024,0.244,0.95,-3.39,2.26,5.28,0,1
14879.062,0.044,0.24,0.948,-6.9,2.44,3.57,0,1
14879.062,0.062,0.233,0.947,-9.98,3.11,1.98,0,1
14879.078,0.076,0.229,0.95,-11.99,5.25,0.43,0,1
14879.093,0.078,0.221,0.955,-12.42,7.9,-0.85,0,1
14879.093,0.078,0.212,0.964,-10.86,10.13,-0.98,0,1
14879.109,0.069,0.212,0.971,-8.21,11.41,-0.24,0,1
14879.109,0.064,0.206,0.975,-4.49,11.57,1.01,0,1
14879.125,0.053,0.203,0.981,-0.61,11.05,2.01,0,1
14879.14,0.045,0.21,0.984,2.29,10.32,2.78,0,1
14879.14,0.019,0.234,0.987,3.05,9.64,2.17,0,1
14879.156,0.015,0.251,0.988,0.73,8.15,0.46,0,1
14879.171,0.01,0.26,0.989,-3.63,6.04,-2.04,0,1
14879.171,0.014,0.261,0.993,-8.27,3.17,-3.94,0,1
14879.187,0.026,0.262,0.992,-11.29,0.82,-5.22,0,1
14879.203,0.028,0.242,0.988,-12.79,-0.92,-5.83,0,1
14879.203,0.048,0.229,0.983,-13.25,-2.11,-5.55,0,1
14879.218,0.058,0.219,0.976,-12.09,-2.35,-4.76,0,1
14879.234,0.054,0.209,0.97,-9.86,-1.56,-4.03,0,1
14879.234,0.04,0.209,0.97,-7.2,0.15,-3.69,0,1
14879.25,0.033,0.21,0.968,-4.43,2.5,-3.57,0,1
14879.25,0.032,0.215,0.968,-1.5,4.94,-3.45,0,1
14879.265,0.035,0.202,0.966,1.37,6.35,-2.93,0,1
14879.281,0.041,0.204,0.96,2.99,6.81,-2.78,0,1
14879.281,0.038,0.202,0.959,3.51,6.68,-2.96,0,1
14879.296,0.023,0.21,0.963,2.59,6.16,-3.27,0,1
14879.312,0.009,0.235,0.969,-0.73,5.25,-4.64,0,1
14879.312,0.008,0.24,0.984,-5.46,3.2,-5.62,0,1
14879.328,0.002,0.24,0.995,-9.09,0.55,-5.46,0,1
14879.343,0.012,0.223,1.002,-10.44,-2.44,-3.66,0,1
14879.343,0.018,0.198,1.006,-8.24,-4.82,-1.56,0,1
14879.359,0.009,0.189,1.004,-2.93,-6.16,0.46,0,1
14879.359,0.009,0.19,0.997,3.66,-6.23,1.46,0,1
14879.375,-0.01,0.203,0.983,9.98,-4.39,1.34,0,1
14879.39,-0.027,0.21,0.971,13.37,-1.59,0.7,0,1
14879.39,-0.027,0.215,0.968,13.37,1.01,-0.37,0,1
14879.406,-0.026,0.22,0.973,12.54,3.45,-1.59,0,1
14879.421,-0.026,0.225,0.979,12.7,5.65,-2.41,0,1
14879.421,-0.025,0.227,0.986,13.03,5.98,-3.66,0,1
14879.437,-0.025,0.226,0.99,13.82,5.25,-4.46,0,1
14879.453,-0.031,0.224,0.993,15.78,4.67,-4.18,0,1
14879.453,-0.04,0.23,0.992,18.4,4.46,-3.72,0,1
14879.468,-0.036,0.242,0.985,19.81,4.24,-3.57,0,1
14879.468,-0.041,0.246,0.976,20.57,4.3,-3.27,0,1
14879.484,-0.042,0.251,0.964,20.02,4.27,-2.66,0,1
14879.5,-0.035,0.26,0.953,17.52,3.78,-2.69,0,1
14879.5,-0.023,0.255,0.942,13.31,3.69,-3.33,0,1
14879.515,-0.019,0.25,0.94,8.03,4.27,-4.52,0,1
14879.531,-0.028,0.248,0.936,2.87,4.82,-5.89,0,1
14879.546,-0.012,0.232,0.937,-1.07,5.8,-6.53,0,1
14879.546,-0.014,0.234,0.946,-2.44,7.72,-7.72,0,1
14879.562,-0.016,0.242,0.954,-1.1,8.79,-8.12,0,1
14879.562,-0.026,0.237,0.957,1.89,9.31,-7.14,0,1
14879.578,-0.022,0.244,0.963,5.4,9.55,-4.85,0,1
14879.593,-0.025,0.259,0.959,8.06,9.22,-3.48,0,1
14879.593,-0.041,0.258,0.953,6.78,8.36,-3.36,0,1
14879.609,-0.036,0.271,0.951,1.74,7.11,-4.21,0,1
14879.625,-0.047,0.271,0.951,-5.01,6.01,-6.26,0,1
14879.625,-0.042,0.268,0.963,-12.45,4.94,-8.09,0,1
14879.64,-0.032,0.261,0.968,-17.03,4.46,-9.89,0,1
14879.64,-0.034,0.245,0.969,-18.52,4.61,-11.29,0,1
14879.656,-0.025,0.233,0.973,-16.88,5.43,-12.05,0,1
14879.671,-0.021,0.225,0.966,-12.48,6.96,-11.93,0,1
14879.671,-0.022,0.226,0.957,-7.72,8.73,-11.02,0,1
14879.687,-0.033,0.24,0.954,-3.54,9.89,-9.86,0,1
14879.703,-0.045,0.249,0.947,-1.34,8.15,-7.6,0,1
14879.703,-0.045,0.265,0.943,-1.59,4.79,-5.28,0,1
14879.718,-0.041,0.255,0.938,-4.21,0.79,-3.48,0,1
14879.718,-0.022,0.249,0.94,-7.08,-2.56,-2.81,0,1
14879.734,-0.006,0.239,0.934,-9.03,-4.12,-3.45,0,1
14879.75,0.004,0.224,0.932,-10.28,-3.63,-5.01,0,1
14879.765,0.004,0.219,0.929,-10.47,-1.4,-6.04,0,1
14879.765,-0.004,0.234,0.929,-10.04,2.08,-7.17,0,1
14879.781,-0.007,0.249,0.931,-10.07,5.74,-8.97,0,1
14879.781,-0.016,0.258,0.934,-11.35,8.76,-10.41,0,1
14879.796,-0.025,0.262,0.94,-15.41,11.44,-10.8,0,1
14879.812,-0.028,0.255,0.952,-16.24,12.45,-10.35,0,1
14879.812,-0.037,0.244,0.965,-15.44,13.7,-9.8,0,1
14879.828,-0.031,0.232,0.976,-13.76,15.05,-9.37,0,1
14879.843,-0.046,0.216,0.992,-12.21,15.59,-9.49,0,1
14879.843,-0.049,0.218,1.002,-11.57,14.95,-9.16,0,1
14879.859,-0.051,0.222,1.013,-12.15,13.12,-8.64,0,1
14879.859,-0.058,0.215,1.014,-13.49,10.77,-8.21,0,1
14879.875,-0.062,0.203,1.017,-15.56,8.15,-7.93,0,1
14879.89,-0.055,0.19,1.018,-16.54,5.55,-8.03,0,1
14879.89,-0.055,0.179,1.011,-16.17,3.88,-8.33,0,1
14879.906,-0.061,0.168,1.006,-14.8,3.51,-8.79,0,1
14879.921,-0.057,0.168,1.001,-12.63,3.94,-9.64,0,1
14879.921,-0.066,0.169,0.992,-10.13,4.61,-10.44,0,1
14879.937,-0.079,0.182,0.986,-8.15,5.07,-10.44,0,1
14879.953,-0.093,0.2,0.983,-7.84,5.34,-10.83,0,1
14879.953,-0.085,0.206,0.985,-10.44,4.91,-11.44,0,1
14879.968,-0.091,0.211,0.986,-13.4,4.58,-12.15,0,1
14879.984,-0.09,0.209,0.989,-15.96,4.36,-12.33,0,1
14879.984,-0.098,0.204,0.998,-17.46,4.36,-11.75,0,1
14880.0,-0.105,0.192,1.006,-17.21,4.18,-10.65,0,1
14880.0,-0.099,0.18,1.012,-15.26,3.97,-9.22,0,1
14880.015,-0.094,0.183,1.004,-12.09,4.24,-8.36,0,1
14880.031,-0.094,0.178,0.998,-9.77,4.61,-8.06,0,1
14880.031,-0.085,0.184,0.988,-8.36,4.76,-8.27,0,1
14880.046,-0.084,0.19,0.974,-7.9,4.36,-8.88,0,1
14880.062,-0.086,0.194,0.961,-9.0,4.06,-9.64,0,1
14880.062,-0.101,0.183,0.956,-11.81,4.27,-10.32,0,1
14880.078,-0.097,0.159,0.957,-15.26,4.94,-10.83,0,1
14880.093,-0.097,0.14,0.959,-17.24,6.38,-11.41,0,1
14880.093,-0.085,0.129,0.968,-17.09,8.58,-11.51,0,1
14880.109,-0.099,0.125,0.975,-14.8,11.35,-11.96,0,1
14880.125,-0.112,0.123,0.98,-12.27,12.7,-12.15,0,1
14880.125,-0.117,0.134,0.984,-10.59,12.02,-11.96,0,1
14880.14,-0.119,0.136,0.98,-10.01,10.62,-11.6,0,1
14880.14,-0.122,0.144,0.979,-12.02,9.49,-11.75,0,1
14880.156,-0.121,0.131,0.985,-15.69,8.15,-11.57,0,1
14880.171,-0.121,0.115,0.994,-19.41,6.81,-11.38,0,1
14880.171,-0.125,0.103,1.0,-20.97,5.58,-11.54,0,1
14880.187,-0.124,0.092,0.999,-20.39,4.46,-11.81,0,1
14880.203,-0.118,0.089,0.997,-18.01,4.55,-12.48,0,1
14880.203,-0.128,0.083,0.997,-15.41,4.85,-13.09,0,1
14880.218,-0.128,0.079,1.0,-12.63,5.25,-12.54,0,1
14880.234,-0.127,0.079,1.0,-10.65,5.98,-11.75,0,1
14880.234,-0.124,0.074,1.008,-10.71,6.26,-12.15,0,1
14880.25,-0.125,0.069,1.015,-10.8,5.89,-12.73,0,1
14880.25,-0.123,0.074,1.018,-11.32,4.79,-13.49,0,1
14880.265,-0.12,0.078,1.023,-12.05,2.72,-14.77,0,1
14880.281,-0.127,0.073,1.025,-12.45,0.67,-15.44,0,1
14880.296,-0.142,0.07,1.031,-12.91,-1.31,-15.5,0,1
14880.296,-0.145,0.065,1.026,-12.97,-3.48,-15.66,0,1
14880.312,-0.151,0.066,1.018,-12.63,-5.52,-16.24,0,1
14880.312,-0.147,0.07,1.005,-11.81,-7.45,-16.6,0,1
14880.328,-0.129,0.085,0.987,-10.41,-9.09,-16.48,0,1
14880.343,-0.139,0.101,0.97,-9.25,-9.67,-15.69,0,1
14880.343,-0.134,0.108,0.958,-9.58,-9.55,-14.53,0,1
14880.359,-0.116,0.111,0.951,-11.02,-8.73,-13.67,0,1
14880.359,-0.118,0.106,0.948,-12.82,-6.93,-12.48,0,1
14880.375,-0.123,0.092,0.956,-15.02,-4.61,-11.17,0,1
14880.39,-0.112,0.082,0.968,-17.18,-2.84,-10.28,0,1
14880.39,-0.107,0.071,0.975,-18.28,-1.13,-10.13,0,1
14880.406,-0.121,0.07,0.977,-17.64,1.22,-10.74,0,1
14880.421,-0.129,0.063,0.981,-16.33,2.87,-10.9,0,1
14880.421,-0.142,0.064,0.986,-14.01,3.23,-10.5,0,1
14880.437,-0.152,0.063,0.98,-10.8,2.38,-9.37,0,1
14880.453,-0.147,0.054,0.973,-6.99,1.71,-8.12,0,1
14880.453,-0.142,0.049,0.965,-1.77,1.68,-7.08,0,1
14880.468,-0.129,0.063,0.947,2.99,1.89,-6.44,0,1
14880.484,-0.117,0.074,0.924,4.33,1.25,-6.38,0,1
14880.484,-0.101,0.09,0.906,2.81,0.27,-6.96,0,1
14880.5,-0.105,0.092,0.895,0.61,0.46,-6.62,0,1
14880.5,-0.099,0.089,0.888,-2.81,0.76,-6.1,0,1
14880.515,-0.087,0.085,0.895,-6.04,1.01,-5.58,0,1
14880.531,-0.083,0.077,0.906,-8.94,1.92,-4.46,0,1
14880.531,-0.071,0.065,0.918,-11.41,3.2,-3.66,0,1
14880.546,-0.06,0.05,0.933,-12.73,5.43,-3.81,0,1
14880.562,-0.073,0.044,0.948,-13.58,8.33,-4.79,0,1
14880.578,-0.087,0.037,0.961,-13.82,10.74,-6.74,0,1
14880.578,-0.101,0.038,0.976,-12.57,12.94,-8.06,0,1
14880.593,-0.12,0.043,0.993,-10.35,14.25,-7.72,0,1
14880.593,-0.133,0.043,1.006,-7.9,13.95,-6.53,0,1
14880.609,-0.134,0.043,1.007,-5.52,12.18,-5.31,0,1
14880.625,-0.13,0.05,1.008,-4.12,10.07,-4.97,0,1
14880.625,-0.136,0.05,1.009,-4.33,9.19,-5.43,0,1
14880.64,-0.139,0.045,1.017,-5.58,9.46,-5.98,0,1
14880.656,-0.147,0.055,1.025,-7.69,9.52,-6.78,0,1
14880.656,-0.163,0.052,1.037,-9.58,9.61,-7.84,0,1
14880.671,-0.174,0.044,1.051,-10.68,8.79,-8.51,0,1
14880.671,-0.173,0.044,1.062,-10.68,7.35,-8.76,0,1
14880.687,-0.176,0.034,1.068,-10.5,6.2,-8.94,0,1
14880.703,-0.177,0.022,1.068,-10.83,5.49,-9.34,0,1
14880.703,-0.175,0.017,1.069,-10.28,5.74,-9.89,0,1
14880.718,-0.188,0.01,1.076,-9.46,6.13,-10.59,0,1
14880.734,-0.184,0.015,1.081,-8.85,4.64,-11.6,0,1
14880.734,-0.187,0.023,1.06,-7.69,2.44,-12.12,0,1
14880.75,-0.201,0.025,1.046,-7.93,0.27,-11.6,0,1
14880.75,-0.191,0.026,1.044,-10.04,-2.32,-11.2,0,1
14880.765,-0.194,0.025,1.039,-12.57,-3.78,-10.74,0,1
14880.781,-0.192,0.006,1.045,-15.69,-5.07,-8.09,0,1
14880.781,-0.173,-0.018,1.051,-13.64,-5.74,-7.39,0,1
14880.796,-0.162,-0.026,1.051,-12.21,-6.9,-7.45,0,1
14880.812,-0.16,-0.036,1.041,-12.76,-8.39,-8.33,0,1
14880.812,-0.163,-0.042,1.04,-14.37,-8.55,-9.77,0,1
14880.828,-0.169,-0.055,1.047,-16.24,-8.64,-10.9,0,1
14880.843,-0.16,-0.055,1.06,-16.17,-8.97,-12.36,0,1
14880.843,-0.17,-0.061,1.056,-13.34,-8.97,-13.21,0,1
14880.859,-0.161,-0.069,1.05,-9.37,-9.34,-12.82,0,1
14880.875,-0.153,-0.051,1.042,-5.55,-10.59,-12.63,0,1
14880.875,-0.155,-0.039,1.021,-4.15,-12.94,-13.21,0,1
14880.89,-0.149,-0.041,0.996,-5.98,-15.11,-14.1,0,1
14880.89,-0.138,-0.04,0.987,-8.58,-15.63,-14.62,0,1
14880.906,-0.138,-0.044,0.985,-11.14,-15.99,-15.5,0,1
14880.921,-0.126,-0.055,0.987,-12.57,-15.87,-15.66,0,1
14880.921,-0.108,-0.047,0.982,-12.39,-15.44,-15.93,0,1
14880.937,-0.108,-0.054,0.979,-11.99,-14.98,-17.09,0,1
14880.953,-0.105,-0.063,0.973,-11.57,-14.07,-18.1,0,1
14880.953,-0.102,-0.047,0.967,-10.35,-13.15,-18.92,0,1
14880.968,-0.115,-0.046,0.957,-9.37,-13.4,-19.53,0,1
14880.984,-0.099,-0.038,0.95,-10.19,-15.5,-19.9,0,1
14880.984,-0.098,-0.03,0.941,-10.68,-17.79,-20.17,0,1
14881.0,-0.107,-0.041,0.929,-11.54,-19.23,-19.93,0,1
14881.0,-0.081,-0.043,0.929,-11.6,-19.32,-18.86,0,1
14881.015,-0.089,-0.036,0.927,-8.12,-17.79,-17.82,0,1
14881.031,-0.086,-0.041,0.922,-4.39,-16.48,-17.06,0,1
14881.031,-0.063,-0.045,0.937,-1.89,-16.08,-15.78,0,1
14881.046,-0.058,-0.043,0.946,1.77,-14.44,-13.95,0,1
14881.062,-0.05,-0.041,0.936,5.68,-10.71,-10.71,0,1
14881.062,-0.025,-0.027,0.941,8.42,-7.78,-8.21,0,1
14881.078,-0.038,-0.015,0.944,10.71,-5.92,-7.17,0,1
14881.078,-0.054,-0.016,0.948,10.16,-5.28,-5.83,0,1
14881.093,-0.056,-0.009,0.959,7.57,-6.5,-4.24,0,1
14881.109,-0.095,-0.007,0.963,4.64,-9.06,-3.14,0,1
14881.109,-0.117,-0.025,0.962,1.43,-14.04,-2.26,0,1
14881.125,-0.096,-0.014,0.981,-2.62,-20.94,-1.74,0,1
14881.14,-0.109,-0.013,0.986,-5.31,-28.02,-0.95,0,1
14881.14,-0.111,-0.037,0.993,-9.37,-34.91,1.43,0,1
14881.156,-0.077,-0.033,1.002,-13.89,-42.24,2.38,0,1
14881.171,-0.069,-0.04,0.988,-18.1,-47.64,1.28,0,1
14881.171,-0.064,-0.063,0.988,-22.58,-49.17,-1.1,0,1
14881.187,-0.047,-0.055,0.994,-26.18,-49.29,-4.7,0,1
14881.203,-0.044,-0.064,0.995,-26.31,-47.06,-7.63,0,1
14881.203,-0.029,-0.09,0.992,-22.31,-41.87,-7.81,0,1
14881.218,-0.008,-0.091,0.984,-14.22,-34.3,-7.11,0,1
14881.234,-0.021,-0.094,0.99,-4.88,-25.3,-7.02,0,1
14881.234,-0.016,-0.1,1.003,2.38,-18.28,-7.48,0,1
14881.25,-0.022,-0.078,1.019,6.81,-12.05,-8.42,0,1
14881.25,-0.041,-0.076,1.037,8.97,-6.47,-8.39,0,1
14881.265,-0.048,-0.067,1.059,7.26,-3.36,-7.87,0,1
14881.281,-0.041,-0.055,1.073,3.94,-3.78,-9.09,0,1
14881.281,-0.031,-0.061,1.084,1.98,-5.1,-10.56,0,1
14881.296,-0.018,-0.062,1.08,1.34,-6.07,-10.8,0,1
14881.312,-0.015,-0.044,1.058,2.81,-6.41,-11.2,0,1
14881.312,-0.014,-0.033,1.028,4.76,-6.07,-11.72,0,1
14881.328,-0.009,-0.021,1.01,5.04,-5.01,-10.93,0,1
14881.328,0.004,-0.01,0.997,5.65,-1.56,-8.12,0,1
14881.343,-0.022,-0.016,0.992,4.73,4.09,-4.64,0,1
14881.359,-0.013,-0.02,1.001,1.31,7.08,-2.53,0,1
14881.359,-0.014,-0.025,1.016,-0.89,9.06,-1.4,0,1
14881.375,-0.045,-0.038,1.04,-1.95,9.58,-0.03,0,1
14881.39,-0.038,-0.04,1.056,-2.62,6.2,1.65,0,1
14881.39,-0.024,-0.05,1.069,-4.06,1.13,1.62,0,1
14881.406,-0.029,-0.089,1.068,-6.38,-6.1,-1.68,0,1
14881.421,-0.033,-0.084,1.046,-6.44,-13.0,-4.06,0,1
14881.421,-0.038,-0.076,1.003,-2.66,-18.22,-5.13,0,1
14881.437,-0.023,-0.082,0.947,3.11,-22.55,-4.85,0,1
14881.453,-0.003,-0.077,0.897,10.04,-24.41,-4.0,0,1
14881.453,0.012,-0.084,0.885,15.26,-23.19,-3.11,0,1
14881.468,0.028,-0.101,0.929,17.12,-16.72,-1.22,0,1
14881.484,-0.003,-0.082,0.969,16.48,-7.17,-0.52,0,1
14881.484,-0.017,-0.077,0.971,8.73,-3.33,-0.95,0,1
14881.5,-0.006,-0.062,0.969,-3.88,-4.03,-1.62,0,1
14881.5,-0.005,-0.072,0.972,-15.38,-5.58,-1.56,0,1
14881.515,0.009,-0.085,0.984,-20.51,-7.57,-1.01,0,1
14881.531,0.009,-0.077,0.993,-19.84,-9.13,0.34,0,1
14881.531,0.025,-0.083,1.013,-17.09,-9.28,1.46,0,1
14881.546,0.038,-0.087,1.038,-13.58,-7.84,1.01,0,1
14881.562,0.034,-0.092,1.062,-10.25,-5.92,0.34,0,1
14881.562,0.027,-0.088,1.082,-6.93,-4.27,-0.58,0,1
14881.578,0.022,-0.074,1.088,-3.57,-3.81,-0.92,0,1
14881.593,0.011,-0.061,1.082,-0.52,-5.25,-0.85,0,1
14881.593,-0.0,-0.066,1.065,1.28,-7.87,-0.03,0,1
14881.609,0.002,-0.052,1.047,-0.06,-10.96,0.79,0,1
14881.625,0.007,-0.061,1.02,-2.75,-13.67,0.37,0,1
14881.625,0.005,-0.084,0.994,-4.85,-14.56,0.95,0,1
14881.64,0.017,-0.097,0.975,-5.46,-13.64,2.14,0,1
14881.64,0.034,-0.089,0.985,-5.62,-10.86,2.08,0,1
14881.656,0.024,-0.091,0.986,-3.48,-7.14,0.43,0,1
14881.671,0.01,-0.107,0.949,0.06,-5.28,-0.55,0,1
14881.671,0.028,-0.105,0.918,3.88,-4.64,-0.98,0,1
14881.687,0.029,-0.105,0.909,8.3,-4.33,-1.56,0,1
14881.703,0.046,-0.097,0.907,11.93,-2.14,0.4,0,1
14881.703,0.059,-0.089,0.899,13.64,2.01,1.77,0,1
14881.718,0.081,-0.089,0.925,11.72,8.12,2.44,0,1
14881.734,0.066,-0.084,0.966,6.81,14.53,1.86,0,1
14881.734,0.042,-0.098,0.985,4.03,17.91,0.06,0,1
14881.75,0.02,-0.092,0.994,4.39,18.01,-0.67,0,1
14881.75,0.016,-0.072,0.992,9.98,10.9,-3.2,0,1
14881.765,0.018,-0.041,0.976,9.16,7.14,-4.24,0,1
14881.781,0.009,-0.014,0.966,4.3,6.23,-3.14,0,1
14881.781,0.013,0.007,0.941,-1.68,7.35,-1.04,0,1
14881.796,0.041,0.008,0.936,-5.77,10.01,-1.65,0,1
14881.812,0.036,-0.025,0.953,-7.87,12.51,-3.72,0,1
14881.812,0.025,-0.03,0.973,-7.11,15.59,-4.76,0,1
14881.828,0.038,-0.033,0.98,-4.58,17.37,-5.31,0,1
14881.843,0.029,-0.035,0.981,-0.98,19.07,-5.95,0,1
14881.843,0.005,-0.034,0.971,4.03,20.36,-5.89,0,1
14881.859,0.0,-0.036,0.968,7.54,21.03,-5.49,0,1
14881.875,-0.001,-0.04,0.971,7.51,20.54,-6.44,0,1
14881.875,0.002,-0.051,0.993,5.07,20.2,-7.2,0,1
14881.89,0.01,-0.041,1.03,0.79,21.39,-6.74,0,1
14881.89,0.014,-0.048,1.061,-4.03,20.02,-6.62,0,1
14881.906,-0.001,-0.057,1.075,-7.63,14.92,-7.6,0,1
14881.921,0.004,-0.065,1.064,-8.09,6.56,-9.0,0,1
14881.921,-0.007,-0.049,1.05,-7.23,0.55,-9.89,0,1
14881.937,-0.021,-0.061,1.035,-6.29,-2.41,-9.89,0,1
14881.953,-0.021,-0.085,1.021,-4.39,-2.17,-9.25,0,1
14881.953,-0.018,-0.087,1.013,-1.77,0.15,-8.33,0,1
14881.968,-0.013,-0.074,1.02,-0.43,3.23,-8.3,0,1
14881.984,-0.037,-0.074,1.013,-3.3,6.01,-9.31,0,1
14881.984,-0.046,-0.079,1.022,-6.74,7.14,-10.35,0,1
14882.0,-0.042,-0.094,1.014,-5.68,8.61,-9.7,0,1
14882.0,-0.052,-0.083,1.0,-3.45,10.35,-9.0,0,1
14882.015,-0.055,-0.076,0.985,-0.18,9.43,-8.51,0,1
14882.031,-0.038,-0.093,0.975,2.66,9.61,-7.45,0,1
14882.031,-0.025,-0.093,0.99,2.81,11.78,-7.2,0,1
14882.046,-0.034,-0.093,1.006,1.56,14.83,-7.26,0,1
14882.062,-0.026,-0.104,1.022,-2.5,17.49,-6.16,0,1
14882.062,-0.033,-0.098,1.034,-7.05,19.23,-6.41,0,1
14882.078,-0.051,-0.075,1.015,-10.8,18.28,-6.47,0,1
14882.093,-0.032,-0.061,0.997,-14.68,16.91,-6.26,0,1
14882.093,-0.041,-0.075,1.007,-18.56,16.85,-6.32,0,1
14882.109,-0.039,-0.08,1.028,-21.06,16.48,-6.84,0,1
14882.125,-0.052,-0.109,1.057,-21.7,15.78,-7.26,0,1
14882.125,-0.055,-0.137,1.076,-18.52,13.89,-7.23,0,1
14882.14,-0.052,-0.142,1.044,-10.44,11.47,-6.07,0,1
14882.14,-0.046,-0.14,1.028,-0.06,11.99,-4.73,0,1
14882.156,-0.049,-0.124,1.032,8.0,14.62,-4.39,0,1
14882.171,-0.042,-0.08,1.061,8.79,18.49,-3.14,0,1
14882.171,-0.051,-0.081,1.065,5.01,20.81,-1.56,0,1
14882.187,-0.061,-0.102,1.071,-0.55,20.45,-0.4,0,1
14882.203,-0.079,-0.119,1.089,-5.95,17.82,-1.07,0,1
14882.203,-0.064,-0.129,1.088,-6.62,11.99,-2.47,0,1
14882.218,-0.069,-0.126,1.056,-2.78,3.72,-4.09,0,1
14882.218,-0.077,-0.122,1.006,2.72,-4.49,-5.13,0,1
14882.234,-0.069,-0.096,0.962,7.17,-10.71,-4.97,0,1
14882.25,-0.047,-0.056,0.955,7.51,-13.21,-4.73,0,1
14882.25,-0.019,-0.035,0.933,6.26,-12.51,-3.91,0,1
14882.265,-0.028,-0.057,0.817,8.58,-6.5,-4.0,0,1
14882.281,-0.035,-0.004,0.91,11.35,4.06,-3.14,0,1
14882.281,-0.089,-0.028,0.938,13.82,7.57,0.52,0,1
14882.296,-0.054,-0.056,0.908,7.14,8.21,-0.52,0,1
14882.312,-0.041,-0.053,0.922,1.19,9.49,-2.17,0,1
14882.312,-0.052,-0.046,0.898,-3.27,5.86,-4.06,0,1
14882.328,-0.065,-0.03,0.877,-8.24,2.53,-5.19,0,1
14882.343,-0.075,-0.042,0.888,-13.79,1.16,-4.06,0,1
14882.343,-0.074,-0.074,0.911,-19.35,0.76,-3.72,0,1
14882.359,-0.08,-0.101,0.93,-23.53,-0.89,-5.07,0,1
14882.359,-0.101,-0.124,0.952,-25.03,-3.78,-6.59,0,1
14882.375,-0.091,-0.134,0.977,-23.62,-9.09,-7.51,0,1
14882.39,-0.09,-0.123,0.967,-18.49,-13.86,-7.42,0,1
14882.39,-0.096,-0.108,0.963,-12.79,-14.86,-5.71,0,1
14882.406,-0.1,-0.115,0.987,-10.19,-13.64,-4.3,0,1
14882.421,-0.106,-0.117,0.978,-9.46,-12.85,-4.33,0,1
14882.437,-0.095,-0.117,0.956,-9.4,-11.35,-4.18,0,1
14882.437,-0.077,-0.121,0.958,-8.45,-7.72,-3.75,0,1
