timestamp,ax,ay,az,gx,gy,gz,orient_label,motion_label
14841.421,-0.015,-0.008,1.018,4.24,4.36,-0.7,0,1
14841.421,-0.023,0.004,1.02,6.81,4.82,-0.98,0,1
14841.437,-0.023,0.024,1.019,7.51,4.18,-1.4,0,1
14841.453,-0.011,0.016,1.012,6.1,1.59,-1.13,0,1
14841.453,-0.009,0.01,0.999,3.14,1.01,-0.73,0,1
14841.468,-0.012,0.014,0.993,-1.07,2.38,-0.89,0,1
14841.468,-0.022,0.008,1.001,-4.09,3.08,-0.92,0,1
14841.484,-0.024,-0.008,1.012,-5.04,2.96,-1.1,0,1
14841.5,-0.018,-0.019,1.006,-3.51,1.74,-1.62,0,1
14841.515,-0.014,-0.014,0.998,-1.65,1.59,-1.22,0,1
14841.515,-0.023,-0.013,1.001,-1.22,2.93,-1.4,0,1
14841.531,-0.025,-0.012,1.001,-1.07,2.93,-1.5,0,1
14841.531,-0.024,-0.008,1.006,-0.98,2.84,-1.89,0,1
14841.546,-0.035,-0.009,1.005,0.0,1.25,-2.29,0,1
14841.562,-0.035,-0.007,0.978,0.89,0.03,-1.95,0,1
14841.562,-0.032,-0.016,0.969,0.64,0.12,-1.8,0,1
14841.578,-0.03,-0.014,0.967,0.06,1.28,-1.62,0,1
14841.593,-0.03,-0.023,0.982,0.76,3.97,-1.71,0,1
14841.609,-0.042,-0.025,0.993,1.98,4.85,-2.17,0,1
14841.625,-0.049,-0.023,0.999,3.42,4.58,-2.29,0,1
14841.625,-0.053,-0.006,0.998,3.42,3.36,-2.41,0,1
14841.64,-0.063,0.008,1.005,1.34,2.66,-2.32,0,1
14841.64,-0.063,0.017,1.013,-1.56,0.61,-1.77,0,1
14841.656,-0.055,0.021,1.015,-4.46,-2.75,-0.79,0,1
14841.671,-0.052,0.009,1.014,-6.44,-5.31,-0.43,0,1
14841.671,-0.045,-0.003,1.008,-6.81,-6.78,-0.37,0,1
14841.687,-0.039,-0.005,1.006,-6.13,-7.02,-0.67,0,1
14841.703,-0.039,-0.007,1.009,-4.94,-6.62,-0.92,0,1
14841.703,-0.045,-0.005,1.004,-3.6,-5.4,-0.76,0,1
14841.718,-0.047,-0.001,1.0,-3.23,-3.85,-0.49,0,1
14841.718,-0.039,-0.003,1.01,-3.88,-2.62,-0.31,0,1
14841.734,-0.043,-0.005,1.019,-4.88,-1.56,-0.34,0,1
14841.75,-0.045,-0.014,1.03,-5.95,-0.89,-0.09,0,1
14841.765,-0.041,-0.046,1.032,-6.93,-2.56,1.07,0,1
14841.781,-0.031,-0.048,1.032,-6.87,-3.14,1.01,0,1
14841.781,-0.032,-0.042,1.027,-6.71,-3.11,1.13,0,1
14841.796,-0.036,-0.035,1.023,-6.47,-2.84,1.37,0,1
14841.812,-0.036,-0.024,1.024,-6.74,-2.69,1.46,0,1
14841.812,-0.037,-0.023,1.025,-6.96,-2.99,1.71,0,1
14841.828,-0.043,-0.027,1.02,-6.16,-3.54,2.11,0,1
14841.843,-0.045,-0.029,1.007,-4.21,-4.0,2.38,0,1
14841.843,-0.035,-0.032,0.989,-1.22,-4.64,2.5,0,1
14841.859,-0.034,-0.026,0.977,0.7,-3.3,2.5,0,1
14841.859,-0.04,-0.018,0.977,0.31,-1.31,2.2,0,1
14841.875,-0.037,-0.007,0.979,-1.01,-1.01,1.8,0,1
14841.89,-0.041,0.001,0.974,-1.59,-1.22,1.65,0,1
14841.89,-0.041,0.006,0.962,-1.53,-1.92,1.31,0,1
14841.906,-0.032,0.007,0.96,-0.73,-2.32,0.89,0,1
14841.921,-0.031,0.007,0.971,-0.21,-1.59,0.31,0,1
14841.937,-0.057,0.026,0.991,-4.24,-1.5,-1.01,0,1
14841.953,-0.073,0.03,1.007,-9.31,-4.06,-0.61,0,1
14841.953,-0.081,0.015,1.016,-14.31,-7.45,1.13,0,1
14841.968,-0.091,0.009,1.021,-20.02,-11.08,2.11,0,1
14841.968,-0.096,0.012,1.023,-26.49,-13.49,2.72,0,1
14841.984,-0.107,-0.006,1.039,-31.8,-13.12,5.04,0,1
14842.0,-0.116,-0.054,1.056,-34.12,-13.7,8.3,0,1
14842.015,-0.143,-0.082,1.077,-32.69,-15.69,11.2,0,1
14842.015,-0.184,-0.114,1.101,-27.5,-19.78,14.53,0,1
14842.031,-0.219,-0.125,1.104,-20.14,-26.76,16.39,0,1
14842.031,-0.276,-0.083,1.101,-9.25,-34.12,19.47,0,1
14842.046,-0.333,0.001,1.15,8.7,-43.03,29.88,0,1
14842.062,-0.23,-0.033,1.091,23.26,-58.26,42.48,0,1
14842.062,-0.187,-0.044,1.009,28.35,-60.67,48.52,0,1
14842.078,-0.199,-0.047,0.983,28.96,-54.02,52.19,0,1
14842.093,-0.19,-0.03,0.969,27.95,-48.34,52.74,0,1
14842.109,-0.256,-0.042,0.947,29.08,-37.29,56.61,0,1
14842.109,-0.245,-0.087,0.95,33.51,-33.54,59.94,0,1
14842.125,-0.244,-0.134,0.954,43.06,-26.76,63.48,0,1
14842.14,-0.214,-0.154,0.945,54.17,-20.36,64.85,0,1
14842.156,-0.176,-0.135,0.918,65.31,-15.53,62.47,0,1
14842.156,-0.175,-0.109,0.884,72.15,-12.85,59.51,0,1
14842.171,-0.152,-0.061,0.86,72.85,-11.26,57.59,0,1
14842.171,-0.127,-0.009,0.838,67.75,-8.85,55.45,0,1
14842.187,-0.12,0.02,0.837,57.71,-4.43,54.2,0,1
14842.203,-0.149,0.005,0.863,48.07,3.51,54.14,0,1
14842.203,-0.108,-0.023,0.898,41.08,9.06,53.93,0,1
14842.218,-0.054,-0.016,0.89,38.58,10.41,51.82,0,1
14842.218,-0.038,-0.004,0.872,41.2,12.39,49.38,0,1
14842.234,-0.016,-0.002,0.866,44.31,14.04,46.27,0,1
14842.25,-0.023,0.004,0.869,46.91,16.21,43.43,0,1
14842.25,-0.038,0.039,0.876,48.77,19.17,38.91,0,1
14842.281,-0.049,0.083,0.897,47.27,23.38,29.33,0,1
14842.281,-0.016,0.113,0.919,46.36,24.35,27.34,0,1
14842.296,0.048,0.141,0.917,44.01,22.61,26.92,0,1
14842.312,0.082,0.163,0.912,40.35,19.84,28.29,0,1
14842.312,0.068,0.154,0.913,37.87,19.78,31.16,0,1
14842.328,0.087,0.131,0.936,34.09,20.75,32.56,0,1
14842.343,0.108,0.11,0.96,31.13,21.03,30.52,0,1
14842.343,0.109,0.095,0.981,32.07,20.57,27.74,0,1
14842.359,0.137,0.115,0.992,33.33,18.56,23.99,0,1
14842.359,0.182,0.159,1.002,31.46,14.8,19.41,0,1
14842.375,0.16,0.159,0.991,28.93,10.96,15.87,0,1
14842.39,0.143,0.151,0.99,25.85,7.93,14.8,0,1
14842.406,0.149,0.152,1.011,22.92,5.16,14.47,0,1
14842.406,0.172,0.151,1.024,22.55,3.48,12.21,0,1
14842.421,0.181,0.137,1.024,25.42,4.24,8.64,0,1
14842.421,0.246,0.137,1.043,29.76,5.25,5.16,0,1
14842.453,0.313,0.147,1.015,43.95,1.59,4.97,0,1
14842.453,0.304,0.147,0.994,50.39,-1.71,7.11,0,1
14842.468,0.297,0.157,1.0,52.64,-4.85,6.41,0,1
14842.468,0.268,0.16,1.013,50.54,-7.42,3.78,0,1
14842.484,0.26,0.205,1.023,42.91,-9.43,-0.76,0,1
14842.5,0.264,0.256,1.041,31.22,-10.96,-7.23,0,1
14842.5,0.243,0.229,1.061,14.56,-13.98,-13.31,0,1
14842.515,0.228,0.206,1.088,14.59,-17.82,-13.86,0,1
14842.531,0.248,0.194,1.112,20.57,-23.56,-12.15,0,1
14842.531,0.289,0.16,1.114,30.18,-28.66,-10.04,0,1
14842.546,0.374,0.163,1.065,40.53,-31.71,-8.33,0,1
14842.562,0.407,0.178,1.033,48.4,-33.02,-7.54,0,1
14842.562,0.383,0.197,0.99,53.25,-32.72,-8.36,0,1
14842.578,0.339,0.246,0.952,52.06,-30.73,-10.35,0,1
14842.578,0.315,0.254,0.94,43.15,-28.5,-12.12,0,1
14842.593,0.284,0.245,0.952,30.21,-25.97,-14.68,0,1
14842.609,0.272,0.175,0.992,7.51,-25.3,-19.65,0,1
14842.625,0.296,0.166,1.013,3.72,-26.12,-23.83,0,1
14842.64,0.315,0.188,1.017,4.67,-27.68,-27.99,0,1
14842.64,0.305,0.221,0.997,8.21,-29.24,-30.98,0,1
14842.656,0.281,0.256,0.974,10.93,-30.82,-32.07,0,1
14842.671,0.257,0.294,0.949,12.6,-32.87,-31.31,0,1
14842.687,0.236,0.315,0.926,13.03,-34.15,-28.66,0,1
14842.687,0.221,0.31,0.913,12.48,-33.57,-24.72,0,1
14842.703,0.215,0.308,0.908,11.9,-30.88,-21.61,0,1
14842.703,0.219,0.322,0.903,11.9,-26.06,-20.84,0,1
14842.718,0.207,0.341,0.892,12.12,-20.14,-21.61,0,1
14842.734,0.182,0.376,0.887,10.47,-13.64,-22.8,0,1
14842.734,0.165,0.399,0.888,6.44,-8.15,-23.26,0,1
14842.75,0.15,0.386,0.894,2.38,-4.58,-21.52,0,1
14842.75,0.148,0.372,0.903,1.25,-2.66,-17.64,0,1
14842.765,0.158,0.362,0.903,3.51,-1.95,-13.37,0,1
14842.781,0.137,0.386,0.883,13.86,1.19,-8.15,0,1
14842.796,0.121,0.403,0.87,16.72,3.78,-6.84,0,1
14842.812,0.1,0.402,0.866,16.08,7.05,-5.13,0,1
14842.812,0.082,0.386,0.874,12.51,10.99,-3.63,0,1
14842.828,0.064,0.381,0.892,6.78,15.14,-4.12,0,1
14842.828,0.053,0.371,0.912,0.09,17.82,-6.47,0,1
14842.843,0.041,0.371,0.938,-5.62,18.62,-8.3,0,1
14842.859,0.03,0.371,0.96,-9.19,17.55,-8.39,0,1
14842.859,0.031,0.35,0.972,-8.94,14.68,-6.13,0,1
14842.875,0.045,0.313,0.977,-4.49,11.6,-2.44,0,1
14842.89,0.058,0.275,0.974,3.3,9.58,0.73,0,1
14842.89,0.063,0.253,0.964,12.51,8.88,2.14,0,1
14842.906,0.058,0.248,0.95,19.84,9.49,1.4,0,1
14842.921,0.038,0.272,0.942,21.85,12.05,-1.86,0,1
14842.921,0.028,0.286,0.938,17.73,14.68,-6.41,0,1
14842.937,0.013,0.293,0.948,9.4,16.21,-11.14,0,1
14842.953,-0.011,0.329,0.982,-5.98,14.98,-18.98,0,1
14842.968,-0.023,0.333,1.002,-9.55,12.79,-19.9,0,1
14842.968,-0.035,0.344,1.037,-9.03,9.61,-19.14,0,1
14842.984,-0.032,0.334,1.049,-4.12,4.06,-17.0,0,1
14843.0,-0.026,0.337,1.032,3.54,-1.59,-14.4,0,1
14843.015,-0.013,0.351,1.001,10.9,-5.25,-12.15,0,1
14843.015,-0.003,0.357,0.98,16.27,-6.47,-10.9,0,1
14843.031,-0.005,0.365,0.956,19.29,-6.2,-10.56,0,1
14843.031,-0.016,0.382,0.938,19.47,-4.67,-10.8,0,1
14843.046,-0.017,0.387,0.933,16.69,-2.96,-11.11,0,1
14843.062,-0.017,0.381,0.939,13.52,-1.65,-11.47,0,1
14843.062,-0.019,0.378,0.947,12.54,-1.46,-11.72,0,1
14843.078,-0.01,0.379,0.943,13.86,-2.53,-11.93,0,1
14843.078,-0.002,0.39,0.934,16.91,-3.88,-11.78,0,1
14843.093,0.009,0.406,0.909,20.26,-5.01,-11.11,0,1
14843.109,0.024,0.426,0.889,22.46,-5.95,-10.13,0,1
14843.125,0.031,0.482,0.853,24.57,-5.46,-7.05,0,1
14843.14,0.026,0.513,0.845,23.65,-2.9,-4.58,0,1
14843.14,0.024,0.536,0.842,21.94,0.92,-1.86,0,1
14843.156,0.027,0.551,0.846,20.23,4.88,1.19,0,1
14843.171,0.036,0.557,0.846,19.01,7.9,4.36,0,1
14843.171,0.047,0.558,0.844,17.88,9.74,7.2,0,1
14843.187,0.047,0.565,0.841,16.48,10.65,9.83,0,1
14843.203,0.041,0.565,0.841,14.53,10.86,12.57,0,1
14843.203,0.036,0.549,0.848,11.87,11.72,15.78,0,1
14843.218,0.038,0.544,0.857,8.39,13.21,18.71,0,1
14843.218,0.052,0.532,0.861,5.31,15.05,20.51,0,1
14843.234,0.061,0.514,0.866,4.09,17.0,22.1,0,1
14843.25,0.07,0.502,0.867,4.33,18.49,23.96,0,1
14843.25,0.075,0.488,0.865,4.76,19.9,25.94,0,1
14843.265,0.076,0.464,0.871,4.27,21.55,26.49,0,1
14843.281,0.065,0.446,0.872,3.57,22.83,25.45,0,1
14843.296,0.05,0.421,0.878,0.06,25.57,21.49,0,1
14843.312,0.048,0.403,0.888,-2.08,25.94,19.5,0,1
14843.312,0.053,0.385,0.891,-3.39,25.48,16.79,0,1
14843.328,0.045,0.376,0.889,-5.43,24.05,12.94,0,1
14843.328,0.027,0.374,0.901,-8.61,23.44,9.4,0,1
14843.343,-0.002,0.378,0.927,-12.63,22.92,6.23,0,1
14843.359,-0.031,0.386,0.954,-16.51,21.06,3.81,0,1
14843.375,-0.054,0.392,0.974,-19.17,18.1,2.53,0,1
14843.375,-0.063,0.399,0.989,-19.87,13.92,1.77,0,1
14843.39,-0.064,0.405,0.991,-18.62,8.36,1.19,0,1
14843.39,-0.059,0.401,0.98,-16.11,2.35,1.25,0,1
14843.406,-0.044,0.391,0.962,-13.15,-2.38,1.95,0,1
14843.421,-0.033,0.378,0.945,-10.16,-5.19,2.66,0,1
14843.421,-0.026,0.362,0.933,-7.35,-5.65,2.59,0,1
14843.437,-0.033,0.36,0.918,-4.55,-4.39,1.28,0,1
14843.453,-0.043,0.357,0.909,-2.53,-2.32,-0.58,0,1
14843.468,-0.049,0.36,0.887,-3.11,2.84,-4.12,0,1
14843.468,-0.051,0.359,0.88,-5.01,4.97,-5.28,0,1
14843.484,-0.036,0.357,0.914,-17.58,2.9,-8.09,0,1
14843.5,-0.021,0.354,0.931,-18.43,0.89,-9.25,0,1
14843.5,-0.02,0.326,0.934,-18.28,-0.85,-10.04,0,1
14843.515,-0.016,0.325,0.945,-15.5,-2.17,-10.68,0,1
14843.531,-0.016,0.326,0.943,-11.2,-3.45,-11.32,0,1
14843.531,-0.018,0.343,0.935,-7.78,-4.97,-11.63,0,1
14843.546,-0.02,0.354,0.92,-5.1,-6.44,-10.93,0,1
14843.546,-0.016,0.355,0.902,-2.81,-7.75,-9.28,0,1
14843.562,-0.005,0.36,0.891,-1.68,-8.36,-7.75,0,1
14843.578,-0.004,0.362,0.863,-1.89,-7.9,-6.74,0,1
14843.578,0.005,0.366,0.831,-2.66,-5.16,-6.44,0,1
14843.593,0.0,0.315,0.832,-1.89,2.08,-6.29,0,1
14843.609,-0.092,0.392,0.937,-5.52,7.45,-5.86,0,1
14843.625,-0.05,0.408,1.003,-11.57,5.89,-4.18,0,1
14843.64,-0.091,0.414,1.029,-1.22,7.23,-5.16,0,1
14843.64,-0.077,0.436,1.011,9.09,9.0,-3.63,0,1
14843.656,-0.088,0.42,0.969,20.6,10.62,-2.2,0,1
14843.671,-0.075,0.461,0.958,25.36,10.71,-0.18,0,1
14843.671,-0.07,0.502,0.951,23.38,7.35,3.6,0,1
14843.687,-0.081,0.497,0.93,20.91,2.99,8.55,0,1
14843.703,-0.067,0.498,0.93,15.69,-1.28,13.15,0,1
14843.703,-0.067,0.515,0.957,7.08,-6.32,14.71,0,1
14843.718,-0.013,0.442,0.922,-1.25,-11.6,13.73,0,1
14843.718,-0.052,0.397,0.908,-2.93,-10.38,9.7,0,1
14843.734,-0.04,0.444,0.953,-10.25,-11.05,9.52,0,1
14843.75,-0.024,0.399,0.999,-16.82,-16.33,10.35,0,1
14843.765,-0.03,0.372,0.996,-13.31,-22.06,13.67,0,1
14843.765,0.015,0.351,0.969,-6.32,-26.8,16.02,0,1
14843.781,0.019,0.333,0.951,-1.86,-29.24,15.29,0,1
14843.781,0.033,0.329,0.948,2.5,-29.42,14.28,0,1
14843.796,0.06,0.326,0.914,6.44,-28.57,13.09,0,1
14843.812,0.056,0.339,0.902,6.9,-25.51,10.93,0,1
14843.812,0.063,0.348,0.884,4.97,-22.16,8.27,0,1
14843.828,0.066,0.355,0.883,1.04,-18.86,5.34,0,1
14843.828,0.071,0.351,0.886,-2.78,-15.99,3.05,0,1
14843.843,0.076,0.346,0.889,-5.43,-13.95,1.4,0,1
14843.859,0.069,0.339,0.891,-6.2,-12.45,0.55,0,1
14843.859,0.071,0.339,0.897,-5.46,-11.32,0.03,0,1
14843.875,0.082,0.337,0.894,-3.23,-10.74,-0.55,0,1
14843.89,0.079,0.332,0.885,0.09,-10.1,-0.82,0,1
14843.89,0.073,0.34,0.875,3.14,-9.22,-0.55,0,1
14843.906,0.075,0.353,0.864,4.85,-8.21,-0.46,0,1
14843.921,0.078,0.356,0.852,5.65,-6.93,-0.55,0,1
14843.921,0.066,0.366,0.846,5.98,-4.94,-0.7,0,1
14843.937,0.056,0.381,0.846,5.1,-2.66,-1.04,0,1
14843.937,0.058,0.374,0.849,3.45,-0.89,-0.95,0,1
14843.953,0.046,0.377,0.859,2.17,1.28,-1.22,0,1
14843.968,0.026,0.408,0.875,0.92,4.09,-2.14,0,1
14843.968,0.02,0.413,0.894,-0.52,5.92,-2.66,0,1
14843.984,0.019,0.409,0.909,-1.13,6.53,-2.32,0,1
14844.0,0.024,0.412,0.918,-0.03,5.89,-1.5,0,1
14844.0,0.023,0.417,0.919,1.83,5.16,-0.64,0,1
14844.015,0.024,0.422,0.917,3.54,4.55,0.21,0,1
14844.031,0.032,0.424,0.91,4.39,3.94,1.1,0,1
14844.031,0.043,0.419,0.906,3.75,3.63,2.04,0,1
14844.046,0.055,0.405,0.902,2.72,3.88,2.87,0,1
14844.062,0.06,0.387,0.899,2.26,5.04,3.2,0,1
14844.062,0.069,0.373,0.905,2.38,7.17,3.2,0,1
14844.078,0.079,0.36,0.912,2.69,9.64,2.87,0,1
14844.078,0.082,0.352,0.921,3.02,12.24,2.41,0,1
14844.093,0.082,0.341,0.931,3.91,14.04,2.66,0,1
14844.109,0.091,0.327,0.936,4.94,14.62,3.08,0,1
14844.109,0.098,0.316,0.945,5.62,14.07,2.26,0,1
14844.125,0.101,0.308,0.947,5.52,11.93,0.46,0,1
14844.14,0.11,0.296,0.942,4.46,8.64,-1.56,0,1
14844.156,0.144,0.244,0.943,3.85,-0.4,-3.42,0,1
14844.171,0.169,0.206,0.932,7.2,-7.11,-2.69,0,1
14844.171,0.192,0.167,0.926,13.89,-14.34,-1.07,0,1
14844.187,0.203,0.138,0.907,23.47,-22.19,0.64,0,1
14844.187,0.162,0.149,0.859,34.76,-28.14,0.82,0,1
14844.203,0.096,0.221,0.846,43.58,-29.57,-1.28,0,1
14844.218,0.019,0.315,0.85,47.27,-29.05,-5.01,0,1
14844.218,-0.068,0.463,0.859,42.24,-26.89,-10.56,0,1
14844.234,-0.116,0.592,0.872,27.56,-23.71,-16.97,0,1
14844.25,-0.142,0.645,0.892,8.09,-20.72,-21.24,0,1
14844.25,-0.153,0.677,0.928,-9.46,-18.74,-21.55,0,1
14844.265,-0.138,0.685,0.961,-19.32,-19.23,-17.94,0,1
14844.281,-0.116,0.671,0.977,-19.35,-21.64,-12.02,0,1
14844.296,-0.092,0.658,0.976,-11.35,-24.51,-4.82,0,1
14844.296,-0.054,0.64,0.958,2.04,-27.31,3.33,0,1
14844.312,-0.011,0.605,0.927,17.82,-28.99,12.54,0,1
14844.312,0.035,0.577,0.882,32.84,-28.23,21.58,0,1
14844.328,0.087,0.546,0.835,44.47,-25.73,28.53,0,1
14844.343,0.145,0.513,0.789,50.57,-22.43,32.32,0,1
14844.343,0.175,0.519,0.753,49.71,-17.98,31.8,0,1
14844.359,0.191,0.539,0.725,41.6,-12.27,27.47,0,1
14844.359,0.183,0.55,0.714,26.92,-5.62,21.24,0,1
14844.375,0.156,0.551,0.735,7.87,0.76,16.33,0,1
14844.39,0.133,0.53,0.775,-10.13,5.25,13.61,0,1
14844.406,0.116,0.485,0.814,-22.06,8.33,12.94,0,1
14844.406,0.083,0.466,0.862,-26.64,11.9,12.63,0,1
14844.421,0.05,0.468,0.913,-26.22,15.47,12.88,0,1
14844.421,0.015,0.472,0.96,-23.32,17.46,14.4,0,1
14844.437,-0.005,0.471,0.986,-18.16,16.91,17.27,0,1
14844.453,0.003,0.457,0.996,-11.32,14.19,21.55,0,1
14844.453,0.024,0.445,0.985,-4.09,10.04,26.31,0,1
14844.468,0.056,0.422,0.956,7.42,0.76,32.78,0,1
14844.468,0.089,0.389,0.917,9.74,-1.43,33.33,0,1
14844.484,0.111,0.365,0.882,8.58,-1.37,31.25,0,1
14844.5,0.117,0.368,0.859,3.94,-0.67,27.56,0,1
14844.515,0.11,0.397,0.844,-3.45,0.34,23.68,0,1
14844.515,0.102,0.4,0.853,-11.72,1.31,20.87,0,1
14844.531,0.09,0.393,0.876,-17.55,1.95,19.14,0,1
14844.531,0.068,0.391,0.9,-20.2,1.65,18.31,0,1
14844.546,0.054,0.397,0.931,-20.57,1.19,17.55,0,1
14844.562,0.054,0.389,0.952,-18.65,0.21,16.88,0,1
14844.562,0.063,0.378,0.958,-14.19,-1.22,16.75,0,1
14844.578,0.063,0.388,0.953,-8.42,-2.5,16.42,0,1
14844.578,0.062,0.413,0.95,-3.66,-2.93,14.98,0,1
14844.593,0.078,0.415,0.95,-1.31,-2.44,13.64,0,1
14844.609,0.088,0.415,0.952,-0.58,-1.53,13.34,0,1
14844.609,0.093,0.409,0.963,0.15,-1.22,13.58,0,1
14844.625,0.106,0.396,0.965,1.77,-3.02,13.58,0,1
14844.64,0.126,0.389,0.956,4.82,-8.06,13.09,0,1
14844.656,0.151,0.385,0.94,8.36,-14.04,12.63,0,1
14844.671,0.186,0.36,0.885,15.23,-24.84,10.8,0,1
14844.671,0.192,0.368,0.858,17.06,-27.65,9.52,0,1
14844.687,0.178,0.381,0.842,16.36,-27.28,8.15,0,1
14844.703,0.166,0.393,0.837,12.67,-24.72,6.2,0,1
14844.703,0.149,0.411,0.844,7.02,-20.54,3.69,0,1
14844.718,0.128,0.419,0.863,1.13,-15.44,1.98,0,1
14844.718,0.102,0.437,0.884,-3.66,-10.53,1.04,0,1
14844.734,0.078,0.458,0.913,-6.78,-6.9,0.31,0,1
14844.75,0.054,0.468,0.936,-7.9,-4.76,-0.03,0,1
14844.75,0.038,0.474,0.956,-7.02,-4.33,0.73,0,1
14844.765,0.033,0.466,0.962,-3.97,-5.46,2.84,0,1
14844.781,0.037,0.458,0.959,0.49,-7.39,5.92,0,1
14844.796,0.048,0.452,0.949,5.77,-9.58,8.79,0,1
14844.796,0.073,0.437,0.923,10.86,-11.47,11.05,0,1
14844.812,0.112,0.419,0.897,14.86,-11.75,12.67,0,1
14844.812,0.152,0.398,0.875,17.52,-10.41,13.43,0,1
14844.843,0.21,0.351,0.852,20.66,-3.14,12.27,0,1
14844.843,0.227,0.344,0.846,20.26,1.8,9.52,0,1
14844.859,0.243,0.339,0.839,17.94,6.59,5.52,0,1
14844.859,0.254,0.351,0.85,13.52,10.44,1.04,0,1
14844.875,0.244,0.375,0.861,8.06,12.6,-2.9,0,1
14844.89,0.225,0.402,0.88,2.11,13.34,-5.55,0,1
14844.89,0.202,0.426,0.903,-3.05,12.39,-6.99,0,1
14844.906,0.188,0.442,0.921,-6.71,10.22,-6.74,0,1
14844.921,0.179,0.456,0.928,-8.12,7.51,-5.43,0,1
14844.921,0.174,0.471,0.927,-7.05,4.21,-3.14,0,1
14844.937,0.177,0.481,0.923,-4.55,0.89,0.06,0,1
14844.937,0.184,0.476,0.923,-1.77,-0.82,3.72,0,1
14844.953,0.185,0.461,0.925,1.16,-0.37,6.53,0,1
14844.968,0.189,0.449,0.929,3.42,1.65,7.97,0,1
14844.968,0.198,0.438,0.93,4.24,3.51,7.54,0,1
14844.984,0.215,0.437,0.923,4.21,4.55,6.07,0,1
14845.0,0.259,0.439,0.9,1.59,4.55,1.71,0,1
14845.015,0.278,0.426,0.895,-0.43,4.73,-0.34,0,1
14845.031,0.292,0.394,0.897,-1.19,5.71,-1.25,0,1
14845.031,0.306,0.366,0.898,0.4,6.81,-1.19,0,1
14845.046,0.317,0.342,0.892,5.4,7.08,-0.67,0,1
14845.062,0.319,0.342,0.876,12.67,8.03,-1.01,0,1
14845.062,0.314,0.401,0.858,17.58,9.98,-4.27,0,1
14845.078,0.297,0.458,0.84,16.57,12.39,-9.13,0,1
14845.093,0.267,0.477,0.841,10.04,15.9,-10.99,0,1
14845.093,0.25,0.482,0.862,0.49,20.23,-10.83,0,1
14845.109,0.246,0.46,0.889,-8.27,24.6,-11.54,0,1
14845.109,0.239,0.427,0.908,-13.34,28.23,-13.37,0,1
14845.125,0.218,0.412,0.922,-14.59,30.03,-15.9,0,1
14845.14,0.207,0.41,0.933,-13.09,29.45,-18.25,0,1
14845.156,0.197,0.407,0.927,-9.03,26.55,-19.2,0,1
14845.156,0.177,0.403,0.916,-2.72,21.79,-17.24,0,1
14845.171,0.175,0.388,0.898,4.64,16.11,-12.51,0,1
14845.171,0.184,0.371,0.866,11.75,10.99,-8.15,0,1
14845.187,0.201,0.361,0.826,16.66,7.23,-6.96,0,1
14845.203,0.213,0.364,0.782,18.74,6.01,-8.79,0,1
14845.203,0.219,0.384,0.748,16.91,7.32,-12.05,0,1
14845.218,0.214,0.394,0.726,13.15,10.44,-15.9,0,1
14845.218,0.191,0.406,0.709,9.16,14.62,-18.71,0,1
14845.234,0.176,0.425,0.703,4.88,18.31,-20.6,0,1
14845.25,0.168,0.414,0.71,2.5,21.55,-21.52,0,1
14845.25,0.161,0.404,0.718,2.96,25.15,-21.45,0,1
14845.265,0.145,0.423,0.724,5.55,29.51,-21.7,0,1
14845.281,0.117,0.445,0.732,8.33,34.12,-21.82,0,1
14845.281,0.073,0.484,0.742,9.7,38.06,-22.19,0,1
14845.296,0.028,0.533,0.756,8.67,39.95,-21.97,0,1
14845.312,0.0,0.554,0.768,4.76,38.97,-20.39,0,1
14845.312,-0.021,0.556,0.787,-1.31,36.56,-18.4,0,1
14845.328,-0.053,0.556,0.808,-8.58,33.2,-18.31,0,1
14845.328,-0.092,0.547,0.826,-17.7,29.18,-20.14,0,1
14845.343,-0.166,0.544,0.854,-27.07,25.85,-22.98,0,1
14845.359,-0.249,0.557,0.885,-37.48,23.1,-26.92,0,1
14845.375,-0.321,0.562,0.918,-49.5,19.81,-31.07,0,1
14845.375,-0.37,0.536,0.957,-60.24,15.72,-33.54,0,1
14845.39,-0.385,0.488,0.989,-67.48,9.31,-33.66,0,1
14845.39,-0.361,0.406,1.003,-67.81,-0.21,-31.07,0,1
14845.406,-0.329,0.332,0.991,-59.48,-10.99,-27.22,0,1
14845.421,-0.309,0.286,0.955,-44.43,-20.14,-24.57,0,1
14845.437,-0.287,0.262,0.907,-28.47,-26.86,-23.77,0,1
14845.437,-0.274,0.269,0.848,-17.27,-30.0,-25.7,0,1
14845.453,-0.26,0.293,0.797,-15.84,-23.59,-35.4,0,1
14845.453,-0.241,0.317,0.764,-23.62,-16.97,-41.32,0,1
14845.468,-0.235,0.361,0.769,-35.19,-12.33,-46.48,0,1
14845.468,-0.199,0.369,0.787,-45.93,-9.03,-48.4,0,1
14845.484,-0.138,0.318,0.844,-50.45,-7.26,-46.57,0,1
14845.5,-0.076,0.313,0.88,-46.94,-6.41,-42.82,0,1
14845.515,-0.013,0.335,0.935,-23.07,-6.87,-34.52,0,1
14845.531,0.015,0.354,0.935,-9.4,-8.94,-29.94,0,1
14845.531,0.048,0.376,0.909,3.97,-10.28,-25.24,0,1
14845.546,0.07,0.384,0.881,14.56,-9.67,-20.84,0,1
14845.562,0.069,0.39,0.862,20.36,-6.96,-17.18,0,1
14845.562,0.069,0.404,0.862,20.81,-2.62,-14.28,0,1
14845.578,0.041,0.396,0.881,17.49,2.38,-11.9,0,1
14845.593,0.018,0.388,0.911,11.93,7.48,-11.02,0,1
14845.593,0.015,0.389,0.958,7.35,11.38,-11.99,0,1
14845.609,-0.014,0.406,0.992,5.37,13.25,-14.22,0,1
14845.609,-0.008,0.413,1.028,2.56,11.75,-14.83,0,1
14845.625,0.01,0.387,1.05,3.2,6.87,-12.79,0,1
14845.64,0.016,0.364,1.048,8.67,-0.27,-9.0,0,1
14845.64,0.031,0.349,1.033,17.49,-7.48,-4.94,0,1
14845.656,0.019,0.334,1.017,28.63,-11.87,-2.38,0,1
14845.671,0.002,0.335,1.014,38.33,-14.13,-1.77,0,1
14845.687,0.001,0.396,1.006,44.8,-20.57,-4.55,0,1
14845.703,0.032,0.433,1.009,43.09,-25.12,-5.95,0,1
14845.703,0.065,0.461,1.004,38.97,-30.67,-7.02,0,1
14845.718,0.105,0.49,0.985,32.93,-37.05,-7.72,0,1
14845.718,0.114,0.508,0.952,26.34,-42.27,-8.06,0,1
14845.734,0.115,0.503,0.924,20.26,-44.4,-6.78,0,1
14845.75,0.122,0.495,0.907,15.63,-43.06,-4.18,0,1
14845.75,0.12,0.501,0.894,12.39,-40.01,-2.14,0,1
14845.765,0.12,0.505,0.883,9.58,-35.98,-0.46,0,1
14845.781,0.126,0.502,0.872,7.75,-31.31,1.59,0,1
14845.781,0.133,0.495,0.85,8.33,-26.37,4.55,0,1
14845.796,0.145,0.495,0.829,11.17,-20.78,8.0,0,1
14845.812,0.147,0.496,0.808,14.89,-14.86,11.05,0,1
14845.812,0.14,0.504,0.788,18.04,-8.85,14.07,0,1
14845.828,0.126,0.505,0.779,19.9,-1.92,17.46,0,1
14845.843,0.114,0.503,0.782,19.87,5.65,20.78,0,1
14845.859,0.073,0.505,0.791,11.96,18.19,24.75,0,1
14845.859,0.064,0.485,0.806,5.89,23.29,25.88,0,1
14845.875,0.063,0.458,0.833,1.53,27.65,25.97,0,1
14845.89,0.063,0.432,0.854,-0.73,30.34,25.15,0,1
14845.89,0.056,0.424,0.875,-2.93,30.82,23.38,0,1
14845.906,0.047,0.406,0.887,-4.55,30.21,20.6,0,1
14845.921,0.038,0.379,0.898,-5.37,29.05,16.94,0,1
14845.921,0.03,0.374,0.909,-5.77,27.01,12.94,0,1
14845.937,0.012,0.383,0.914,-5.55,23.68,9.4,0,1
14845.953,-0.013,0.399,0.915,-4.76,19.29,7.75,0,1
14845.953,-0.031,0.413,0.907,-3.45,14.56,7.93,0,1
14845.968,-0.03,0.418,0.886,-1.37,10.22,8.91,0,1
14845.968,-0.026,0.418,0.856,0.76,8.03,10.16,0,1
14845.984,-0.013,0.427,0.827,1.62,8.0,10.28,0,1
14846.0,0.015,0.419,0.805,1.77,10.8,9.74,0,1
14846.0,0.012,0.382,0.761,4.24,17.0,7.9,0,1
14846.031,-0.168,0.567,0.969,-25.88,28.02,-3.36,0,1
14846.031,-0.194,0.537,1.073,-51.79,19.32,-5.34,0,1
14846.046,-0.254,0.52,1.127,-63.39,9.49,-4.52,0,1
14846.062,-0.176,0.49,1.167,-65.19,-0.37,-0.24,0,1
14846.062,-0.152,0.404,1.148,-50.23,-7.17,0.82,0,1
14846.078,-0.125,0.387,1.115,-29.02,-10.99,2.59,0,1
14846.093,-0.089,0.402,1.05,-3.57,-11.02,6.32,0,1
14846.093,-0.076,0.399,0.971,19.04,-7.26,11.69,0,1
14846.109,-0.056,0.399,0.91,30.34,-2.84,15.32,0,1
14846.109,-0.045,0.418,0.868,29.69,0.31,13.79,0,1
14846.125,-0.045,0.428,0.854,21.33,1.56,9.74,0,1
14846.14,-0.038,0.433,0.849,8.76,-0.27,6.99,0,1
14846.14,-0.031,0.427,0.863,-2.69,-3.75,6.04,0,1
14846.156,0.015,0.443,0.891,-14.04,-10.44,5.46,0,1
14846.171,0.073,0.336,0.826,-10.38,-12.33,5.25,0,1
14846.171,0.014,0.368,0.844,-2.59,-9.43,3.36,0,1
14846.187,0.018,0.479,0.846,2.72,-8.42,8.45,0,1
14846.187,0.031,0.429,0.841,7.42,-5.28,12.51,0,1
14846.203,0.034,0.396,0.862,6.78,-3.02,11.44,0,1
14846.218,0.024,0.434,0.866,4.88,-1.04,8.58,0,1
14846.218,0.033,0.441,0.868,1.43,0.52,7.05,0,1
14846.234,0.051,0.411,0.875,-2.56,1.71,6.35,0,1
14846.25,0.058,0.391,0.878,-4.73,2.41,4.46,0,1
14846.25,0.068,0.377,0.879,-4.3,3.33,3.2,0,1
14846.265,0.076,0.358,0.88,-2.41,4.33,2.78,0,1
14846.281,0.075,0.336,0.876,-0.12,5.74,2.38,0,1
14846.281,0.066,0.33,0.871,2.14,7.93,0.92,0,1
14846.296,0.055,0.342,0.873,3.36,10.47,-1.53,0,1
14846.312,0.04,0.349,0.877,3.05,12.48,-3.63,0,1
14846.312,0.015,0.37,0.892,1.01,13.82,-5.1,0,1
14846.328,-0.005,0.385,0.908,-1.83,13.89,-5.77,0,1
14846.343,-0.023,0.395,0.924,-4.97,12.79,-6.1,0,1
14846.343,-0.034,0.401,0.935,-7.84,11.35,-6.65,0,1
14846.359,-0.041,0.402,0.948,-9.98,9.8,-6.96,0,1
14846.359,-0.04,0.39,0.957,-10.9,8.27,-6.9,0,1
14846.375,-0.036,0.376,0.957,-9.31,7.11,-6.13,0,1
14846.39,-0.03,0.371,0.954,-5.58,6.41,-5.34,0,1
14846.39,-0.021,0.372,0.943,-1.37,5.89,-5.04,0,1
14846.406,-0.015,0.377,0.929,1.74,5.62,-4.85,0,1
14846.421,-0.018,0.391,0.921,3.17,5.43,-4.97,0,1
14846.421,-0.02,0.405,0.919,1.74,4.76,-5.65,0,1
14846.437,-0.022,0.41,0.914,-3.42,3.66,-7.2,0,1
14846.453,-0.027,0.406,0.915,-4.7,3.81,-7.51,0,1
14846.453,-0.03,0.403,0.917,-3.97,3.97,-6.59,0,1
14846.468,-0.044,0.419,0.932,-2.41,3.72,-4.91,0,1
14846.468,-0.045,0.419,0.935,-0.58,2.72,-3.27,0,1
14846.484,-0.041,0.413,0.926,1.37,1.28,-2.08,0,1
14846.5,-0.04,0.414,0.918,2.38,0.27,-1.37,0,1
14846.5,-0.034,0.411,0.907,2.29,-0.43,-0.79,0,1
14846.515,-0.032,0.402,0.901,1.53,-0.58,-0.58,0,1
14846.531,-0.029,0.393,0.894,0.55,-0.24,-0.67,0,1
14846.546,-0.029,0.387,0.891,-1.1,0.06,-1.19,0,1
14846.546,-0.042,0.388,0.897,-3.3,0.31,-2.14,0,1
14846.546,-0.051,0.39,0.901,-5.16,0.55,-3.05,0,1
14846.562,-0.055,0.382,0.907,-6.68,1.16,-3.54,0,1
14846.578,-0.055,0.38,0.919,-7.14,1.59,-3.75,0,1
14846.578,-0.053,0.38,0.923,-5.74,1.86,-4.03,0,1
14846.593,-0.047,0.384,0.925,-3.81,2.01,-4.21,0,1
14846.609,-0.043,0.387,0.926,-1.71,2.08,-3.88,0,1
14846.609,-0.039,0.391,0.922,0.7,1.59,-3.08,0,1
14846.625,-0.03,0.389,0.913,3.14,1.04,-2.62,0,1
14846.64,-0.025,0.395,0.908,4.21,0.55,-2.84,0,1
14846.656,-0.021,0.398,0.9,4.27,0.09,-3.05,0,1
14846.656,-0.018,0.404,0.892,3.75,0.15,-3.3,0,1
14846.671,-0.017,0.407,0.888,3.05,0.64,-3.39,0,1
14846.671,-0.017,0.413,0.886,1.65,1.4,-3.54,0,1
14846.687,-0.026,0.418,0.896,-0.31,1.92,-3.78,0,1
14846.703,-0.034,0.416,0.905,-2.2,2.11,-3.72,0,1
14846.718,-0.046,0.412,0.925,-3.81,1.65,-2.38,0,1
14846.734,-0.046,0.404,0.93,-2.78,0.82,-1.74,0,1
14846.734,-0.046,0.399,0.929,-0.79,-0.09,-1.07,0,1
14846.75,-0.045,0.402,0.922,1.31,-0.58,-0.46,0,1
14846.765,-0.044,0.403,0.912,2.87,-1.01,0.43,0,1
14846.765,-0.039,0.397,0.905,3.78,-1.37,1.37,0,1
14846.781,-0.03,0.389,0.9,3.63,-1.16,2.14,0,1
14846.781,-0.022,0.38,0.897,2.69,-0.37,1.92,0,1
14846.796,-0.021,0.37,0.899,1.37,0.55,1.16,0,1
14846.812,-0.022,0.371,0.91,-0.64,0.92,-0.27,0,1
14846.812,-0.024,0.367,0.92,-2.44,0.46,-1.98,0,1
14846.828,-0.028,0.369,0.93,-4.12,-0.27,-3.36,0,1
14846.828,-0.028,0.375,0.939,-4.73,-1.22,-4.0,0,1
14846.843,-0.034,0.379,0.943,-4.03,-2.35,-4.03,0,1
14846.859,-0.035,0.378,0.936,-2.32,-3.85,-3.66,0,1
14846.875,-0.04,0.384,0.93,-0.03,-5.19,-3.17,0,1
14846.89,-0.047,0.387,0.915,4.67,-5.19,-1.89,0,1
14846.89,-0.045,0.385,0.906,6.47,-4.18,-1.07,0,1
14846.906,-0.037,0.384,0.9,7.54,-2.87,-0.7,0,1
14846.921,-0.039,0.393,0.895,7.87,-1.71,-1.37,0,1
14846.921,-0.057,0.416,0.896,6.53,-0.73,-2.81,0,1
14846.937,-0.066,0.43,0.897,3.51,-0.64,-3.63,0,1
14846.953,-0.07,0.434,0.901,0.52,-1.22,-3.36,0,1
14846.953,-0.067,0.433,0.903,-1.34,-1.95,-2.96,0,1
14846.968,-0.059,0.429,0.904,-1.65,-2.47,-2.47,0,1
14846.968,-0.051,0.42,0.902,-0.95,-2.69,-1.8,0,1
14846.984,-0.045,0.411,0.899,0.37,-2.75,-1.31,0,1
14847.0,-0.04,0.404,0.895,1.56,-2.9,-0.98,0,1
14847.0,-0.044,0.4,0.894,2.04,-2.62,-1.37,0,1
14847.015,-0.044,0.402,0.894,0.76,-1.8,-2.72,0,1
14847.031,-0.045,0.402,0.903,-1.53,-0.95,-4.18,0,1
14847.031,-0.052,0.398,0.914,-3.3,-0.49,-4.73,0,1
14847.046,-0.045,0.39,0.924,-4.06,-1.46,-4.88,0,1
14847.062,-0.039,0.374,0.926,-3.45,-3.27,-5.31,0,1
14847.062,-0.022,0.362,0.923,-0.92,-4.73,-5.55,0,1
14847.078,-0.008,0.354,0.911,2.14,-5.95,-5.68,0,1
14847.078,-0.004,0.354,0.898,4.82,-6.38,-5.74,0,1
14847.093,-0.004,0.35,0.889,7.45,-5.71,-5.65,0,1
14847.109,-0.012,0.356,0.889,10.32,-3.57,-5.49,0,1
14847.109,-0.042,0.37,0.89,12.97,-0.55,-5.77,0,1
14847.125,-0.071,0.412,0.899,12.42,2.62,-7.32,0,1
14847.14,-0.08,0.449,0.916,7.17,3.97,-9.25,0,1
14847.14,-0.085,0.46,0.928,0.82,3.23,-9.95,0,1
14847.156,-0.068,0.46,0.934,-3.63,1.31,-8.97,0,1
14847.171,-0.049,0.447,0.93,-4.46,-0.37,-7.72,0,1
14847.171,-0.035,0.432,0.917,-1.98,-1.68,-6.41,0,1
14847.187,-0.019,0.421,0.895,1.8,-2.5,-4.73,0,1
14847.187,-0.011,0.414,0.876,5.65,-2.93,-2.99,0,1
14847.203,-0.003,0.403,0.854,7.81,-2.96,-2.01,0,1
14847.218,-0.008,0.392,0.835,7.93,-2.38,-2.17,0,1
14847.218,-0.007,0.389,0.834,6.2,-1.07,-2.96,0,1
14847.234,-0.01,0.389,0.844,3.42,0.67,-3.88,0,1
14847.25,-0.017,0.381,0.86,1.46,2.44,-4.79,0,1
14847.25,-0.039,0.396,0.891,1.13,4.67,-6.29,0,1
14847.265,-0.056,0.419,0.917,2.04,6.53,-7.48,0,1
14847.281,-0.044,0.416,0.902,3.54,7.48,-7.63,0,1
14847.281,-0.094,0.38,0.897,11.29,13.21,-8.55,0,1
14847.296,-0.212,0.555,0.999,8.15,14.47,-5.4,0,1
14847.296,-0.131,0.552,1.028,-1.62,7.2,-2.14,0,1
14847.312,-0.168,0.457,1.0,-3.88,4.24,-1.89,0,1
14847.328,-0.111,0.492,0.994,-6.93,2.53,-1.46,0,1
14847.343,-0.082,0.47,0.965,-3.17,3.57,-1.1,0,1
14847.343,-0.079,0.45,0.95,3.54,5.95,0.58,0,1
14847.359,-0.068,0.481,0.945,8.76,5.8,3.05,0,1
14847.375,-0.079,0.492,0.918,12.09,3.51,4.91,0,1
14847.375,-0.086,0.469,0.903,14.28,1.68,6.62,0,1
14847.39,-0.1,0.466,0.899,14.53,0.37,6.87,0,1
14847.39,-0.123,0.482,0.887,11.14,-0.24,5.1,0,1
14847.406,-0.116,0.518,0.915,1.01,-2.69,4.36,0,1
14847.421,-0.071,0.442,0.874,-5.4,-3.75,3.2,0,1
14847.421,-0.125,0.422,0.891,-8.73,-6.9,7.48,0,1
14847.437,-0.12,0.527,0.913,-4.73,-9.28,13.34,0,1
14847.453,-0.063,0.387,0.9,-4.21,-11.78,13.67,0,1
14847.453,-0.052,0.391,0.89,-3.75,-14.07,11.6,0,1
14847.468,-0.089,0.395,0.885,-2.35,-14.83,10.65,0,1
14847.468,-0.099,0.401,0.869,-3.66,-14.59,9.34,0,1
14847.484,-0.13,0.42,0.886,-7.69,-13.34,5.83,0,1
14847.5,-0.186,0.443,0.894,-11.11,-11.84,3.23,0,1
14847.5,-0.227,0.486,0.907,-15.69,-10.8,1.62,0,1
14847.515,-0.265,0.504,0.93,-19.38,-10.01,1.13,0,1
14847.531,-0.307,0.519,0.954,-21.12,-10.25,2.75,0,1
14847.531,-0.328,0.524,0.976,-20.75,-11.51,6.01,0,1
14847.546,-0.343,0.516,0.989,-17.24,-13.34,10.25,0,1
14847.562,-0.348,0.506,0.991,-11.51,-15.35,15.02,0,1
14847.562,-0.355,0.498,0.989,-5.19,-16.63,19.2,0,1
14847.578,-0.343,0.488,0.983,0.61,-17.91,22.74,0,1
14847.578,-0.331,0.467,0.971,5.86,-19.56,26.43,0,1
14847.593,-0.321,0.453,0.962,9.7,-21.06,29.66,0,1
14847.609,-0.312,0.428,0.949,11.93,-22.22,32.35,0,1
14847.625,-0.319,0.408,0.945,13.15,-22.34,33.63,0,1
14847.625,-0.323,0.408,0.95,13.21,-22.0,33.51,0,1
14847.64,-0.302,0.39,0.951,12.82,-22.31,33.39,0,1
14847.64,-0.288,0.37,0.955,14.01,-22.83,34.15,0,1
14847.656,-0.269,0.375,0.961,16.21,-23.22,34.03,0,1
14847.671,-0.256,0.383,0.956,17.67,-23.65,33.02,0,1
14847.671,-0.235,0.386,0.961,17.64,-23.44,31.46,0,1
14847.687,-0.189,0.365,0.96,18.01,-23.77,30.7,0,1
14847.703,-0.145,0.351,0.95,20.78,-24.02,30.43,0,1
14847.703,-0.096,0.359,0.932,24.02,-23.26,29.33,0,1
14847.718,-0.056,0.363,0.907,25.12,-21.49,27.07,0,1
14847.718,-0.022,0.373,0.889,22.49,-19.2,23.99,0,1
14847.734,0.021,0.367,0.878,17.67,-17.09,20.72,0,1
14847.75,0.044,0.355,0.869,12.57,-14.77,17.37,0,1
14847.75,0.042,0.364,0.866,7.08,-11.84,12.6,0,1
14847.765,0.053,0.368,0.871,0.73,-9.74,7.48,0,1
14847.781,0.051,0.374,0.873,-4.79,-8.91,2.44,0,1
14847.781,0.057,0.383,0.863,-9.7,-10.47,-2.5,0,1
14847.796,0.059,0.394,0.854,-13.52,-14.19,-7.02,0,1
14847.812,0.067,0.417,0.833,-16.88,-19.14,-11.75,0,1
14847.812,0.09,0.428,0.815,-19.14,-24.51,-15.47,0,1
14847.828,0.082,0.448,0.789,-19.59,-29.27,-18.98,0,1
14847.843,0.069,0.481,0.756,-20.29,-32.72,-22.61,0,1
14847.843,0.063,0.497,0.737,-22.1,-33.81,-25.15,0,1
14847.859,0.068,0.495,0.724,-24.69,-32.96,-26.89,0,1
14847.859,0.073,0.479,0.714,-25.33,-30.85,-26.98,0,1
14847.875,0.076,0.466,0.709,-22.61,-28.11,-24.9,0,1
14847.89,0.072,0.466,0.706,-16.91,-24.81,-22.34,0,1
14847.89,0.092,0.452,0.704,-9.89,-21.82,-19.81,0,1
14847.906,0.118,0.45,0.695,-0.64,-19.23,-17.0,0,1
14847.921,0.125,0.468,0.674,9.52,-16.48,-14.92,0,1
14847.921,0.118,0.484,0.657,16.91,-13.46,-13.03,0,1
14847.937,0.118,0.512,0.655,19.93,-10.22,-11.87,0,1
14847.953,0.126,0.518,0.66,19.71,-8.45,-9.86,0,1
14847.953,0.13,0.514,0.674,17.91,-6.74,-6.78,0,1
14847.968,0.131,0.497,0.694,16.82,-4.7,-3.75,0,1
14847.984,0.152,0.475,0.728,18.16,-2.26,-0.98,0,1
14847.984,0.169,0.442,0.766,21.97,2.53,2.11,0,1
14848.0,0.18,0.394,0.801,25.03,7.93,6.32,0,1
14848.0,0.225,0.383,0.831,29.48,14.01,8.42,0,1
14848.015,0.235,0.369,0.851,35.65,20.2,6.32,0,1
14848.031,0.238,0.371,0.872,39.03,24.2,3.36,0,1
14848.031,0.285,0.413,0.882,40.22,25.73,1.16,0,1
14848.046,0.274,0.444,0.88,39.52,25.82,0.21,0,1
14848.062,0.276,0.457,0.893,35.07,25.3,2.41,0,1
14848.062,0.26,0.476,0.918,28.69,26.22,4.43,0,1
14848.078,0.248,0.476,0.946,21.61,27.89,5.95,0,1
14848.078,0.234,0.479,0.975,15.38,30.21,6.32,0,1
14848.093,0.234,0.477,1.0,10.47,32.14,6.84,0,1
14848.109,0.221,0.48,1.023,6.38,32.38,6.56,0,1
14848.125,0.203,0.485,1.039,2.69,30.85,5.92,0,1
14848.125,0.188,0.492,1.048,-1.8,27.86,4.64,0,1
14848.14,0.172,0.49,1.058,-7.05,23.87,4.06,0,1
14848.14,0.156,0.502,1.072,-12.82,19.2,3.91,0,1
14848.156,0.151,0.499,1.077,-17.43,13.43,4.36,0,1
14848.171,0.137,0.489,1.077,-19.84,7.9,5.37,0,1
14848.171,0.131,0.487,1.076,-20.42,2.59,6.71,0,1
14848.187,0.13,0.479,1.074,-19.41,-3.02,8.58,0,1
14848.203,0.135,0.473,1.054,-17.46,-9.52,10.35,0,1
14848.203,0.144,0.472,1.026,-16.57,-15.69,11.2,0,1
14848.218,0.141,0.455,1.003,-17.09,-20.54,10.83,0,1
14848.218,0.15,0.437,0.98,-18.86,-24.2,10.07,0,1
14848.234,0.143,0.426,0.96,-21.67,-26.98,8.79,0,1
14848.25,0.141,0.418,0.952,-24.75,-28.5,7.32,0,1
14848.25,0.144,0.41,0.941,-27.13,-28.96,5.86,0,1
14848.265,0.152,0.39,0.928,-28.2,-28.78,4.24,0,1
14848.281,0.163,0.385,0.906,-28.14,-27.86,1.4,0,1
14848.281,0.164,0.375,0.886,-27.92,-26.67,-1.46,0,1
14848.296,0.171,0.364,0.858,-27.74,-25.27,-3.3,0,1
14848.312,0.188,0.382,0.831,-28.57,-22.77,-5.8,0,1
14848.312,0.185,0.382,0.805,-30.58,-18.4,-9.34,0,1
14848.328,0.174,0.374,0.794,-34.85,-12.18,-12.6,0,1
14848.328,0.169,0.385,0.807,-39.09,-5.31,-15.17,0,1
14848.343,0.154,0.377,0.82,-40.96,0.82,-15.29,0,1
14848.359,0.128,0.373,0.85,-41.84,5.13,-12.15,0,1
14848.359,0.134,0.377,0.886,-39.12,6.04,-7.48,0,1
14848.375,0.118,0.369,0.902,-33.42,3.97,-3.08,0,1
14848.39,0.106,0.36,0.913,-27.65,0.21,1.92,0,1
14848.39,0.109,0.363,0.924,-13.49,-7.75,8.82,0,1
14848.406,0.101,0.37,0.922,-9.25,-10.28,10.53,0,1
14848.421,0.089,0.362,0.917,-6.62,-11.78,11.26,0,1
14848.421,0.113,0.364,0.898,-4.3,-11.08,10.65,0,1
14848.437,0.115,0.351,0.892,-2.9,-8.76,10.83,0,1
14848.453,0.138,0.349,0.891,-1.04,-6.04,12.05,0,1
14848.453,0.162,0.353,0.888,3.51,-3.85,13.86,0,1
14848.468,0.189,0.36,0.87,10.19,-2.11,16.27,0,1
14848.468,0.16,0.333,0.842,16.54,-1.04,19.2,0,1
14848.484,0.252,0.344,0.827,20.08,-3.48,24.45,0,1
14848.5,0.215,0.375,0.784,25.7,-1.16,23.16,0,1
14848.5,0.204,0.295,0.761,21.7,-1.65,24.32,0,1
14848.515,0.226,0.287,0.761,12.3,-0.82,26.25,0,1
14848.531,0.211,0.309,0.764,4.85,2.99,22.1,0,1
14848.531,0.216,0.277,0.781,-4.12,7.9,15.17,0,1
14848.546,0.195,0.261,0.803,-12.48,14.89,7.75,0,1
14848.562,0.169,0.244,0.843,-17.46,22.77,2.9,0,1
14848.562,0.164,0.241,0.887,-17.24,29.27,0.58,0,1
14848.578,0.141,0.25,0.916,-11.2,34.39,0.0,0,1
14848.593,0.128,0.253,0.968,6.9,39.52,5.19,0,1
14848.609,0.123,0.272,0.972,15.44,38.54,8.45,0,1
14848.609,0.136,0.303,0.965,21.42,36.84,9.74,0,1
14848.625,0.111,0.32,0.954,22.31,34.94,7.45,0,1
14848.64,0.134,0.322,0.958,17.64,30.3,4.7,0,1
14848.64,0.121,0.358,0.96,11.54,25.51,-0.24,0,1
14848.656,0.109,0.358,0.962,3.17,19.32,-6.13,0,1
14848.671,0.099,0.347,0.977,-6.07,13.58,-10.38,0,1
14848.671,0.093,0.351,0.983,-12.42,7.81,-14.07,0,1
14848.687,0.083,0.333,0.983,-14.59,2.5,-16.14,0,1
14848.703,0.077,0.327,0.985,-12.82,-0.03,-16.21,0,1
14848.703,0.086,0.328,0.984,-7.87,-1.77,-14.65,0,1
14848.718,0.095,0.332,0.975,-2.04,-3.69,-12.57,0,1
14848.718,0.094,0.344,0.95,3.3,-5.16,-11.05,0,1
14848.734,0.108,0.351,0.928,6.07,-6.44,-9.49,0,1
14848.75,0.118,0.364,0.903,6.93,-7.81,-9.16,0,1
14848.765,0.13,0.369,0.877,2.81,-9.52,-10.44,0,1
14848.781,0.124,0.377,0.869,0.4,-9.8,-11.84,0,1
14848.781,0.12,0.374,0.864,-1.77,-10.07,-13.37,0,1
14848.796,0.117,0.37,0.868,-3.57,-9.34,-14.16,0,1
14848.812,0.105,0.37,0.874,-3.81,-7.87,-14.37,0,1
14848.812,0.097,0.384,0.878,-2.9,-5.74,-14.92,0,1
14848.828,0.083,0.394,0.882,-1.92,-3.23,-15.66,0,1
14848.828,0.068,0.407,0.891,-1.8,-0.76,-15.66,0,1
14848.843,0.072,0.417,0.898,-2.11,0.27,-14.56,0,1
14848.859,0.066,0.42,0.901,-2.14,0.37,-13.03,0,1
14848.859,0.058,0.419,0.905,-2.08,0.7,-11.2,0,1
14848.875,0.066,0.419,0.911,-1.53,1.04,-9.7,0,1
14848.89,0.058,0.417,0.911,0.46,1.74,-7.93,0,1
14848.89,0.05,0.423,0.914,2.41,2.53,-5.86,0,1
14848.906,0.044,0.423,0.913,3.72,2.84,-3.54,0,1
14848.921,0.037,0.423,0.913,4.7,3.05,-1.68,0,1
14848.937,0.035,0.416,0.914,4.82,2.59,1.13,0,1
14848.953,0.03,0.41,0.913,4.49,2.04,1.98,0,1
14848.953,0.025,0.407,0.916,3.69,1.74,2.47,0,1
14848.968,0.027,0.401,0.916,2.75,1.8,2.69,0,1
14848.968,0.016,0.392,0.919,1.8,2.47,2.75,0,1
14848.984,0.019,0.391,0.927,1.22,3.57,2.96,0,1
14849.0,0.02,0.385,0.931,1.22,4.46,3.33,0,1
14849.015,0.02,0.374,0.935,1.68,4.36,4.3,0,1
14849.015,0.023,0.379,0.933,2.66,4.24,4.27,0,1
14849.031,0.015,0.375,0.931,3.36,3.88,3.81,0,1
14849.031,0.024,0.376,0.931,3.33,3.51,3.51,0,1
14849.046,0.016,0.376,0.927,3.39,3.63,2.93,0,1
14849.062,0.012,0.373,0.925,2.5,3.51,2.38,0,1
14849.062,0.022,0.381,0.926,1.22,3.69,1.34,0,1
14849.078,0.023,0.374,0.93,0.03,3.23,0.34,0,1
14849.078,0.036,0.366,0.931,-0.7,2.08,0.06,0,1
14849.093,0.035,0.364,0.928,-0.15,1.28,-0.12,0,1
14849.109,0.037,0.359,0.927,0.76,0.7,-0.21,0,1
14849.125,0.042,0.364,0.925,2.29,0.43,-0.61,0,1
14849.125,0.032,0.379,0.924,3.54,0.92,-1.62,0,1
14849.14,0.04,0.382,0.918,3.54,0.46,-1.95,0,1
14849.14,0.034,0.392,0.914,3.36,0.4,-2.5,0,1
14849.156,0.037,0.389,0.914,2.59,-0.37,-2.35,0,1
14849.171,0.04,0.388,0.912,2.14,-1.13,-2.01,0,1
14849.171,0.044,0.391,0.907,1.89,-2.01,-1.89,0,1
14849.187,0.041,0.394,0.905,1.22,-2.38,-2.66,0,1
14849.203,0.036,0.389,0.905,-0.37,-2.47,-3.63,0,1
14849.203,0.037,0.385,0.907,-1.92,-2.93,-4.0,0,1
14849.218,0.042,0.387,0.911,-2.75,-3.36,-4.21,0,1
14849.234,0.043,0.383,0.911,-2.9,-3.81,-4.33,0,1
14849.234,0.049,0.381,0.908,-2.26,-4.21,-4.64,0,1
14849.25,0.046,0.388,0.903,-1.04,-4.12,-4.76,0,1
14849.25,0.038,0.396,0.898,-0.49,-3.45,-4.94,0,1
14849.265,0.036,0.397,0.895,-0.64,-2.9,-4.7,0,1
14849.281,0.029,0.404,0.895,-0.85,-2.08,-4.33,0,1
14849.281,0.025,0.41,0.899,-0.95,-1.13,-4.24,0,1
14849.296,0.032,0.406,0.9,-0.89,-0.58,-3.66,0,1
14849.312,0.038,0.404,0.898,0.0,-0.7,-2.56,0,1
14849.312,0.042,0.403,0.897,1.34,-0.79,-1.34,0,1
14849.328,0.051,0.394,0.888,2.62,-0.73,-0.06,0,1
14849.328,0.062,0.38,0.879,3.81,-0.67,1.07,0,1
14849.343,0.068,0.372,0.872,5.19,-0.31,2.11,0,1
14849.359,0.07,0.365,0.864,6.41,0.55,3.08,0,1
14849.359,0.085,0.352,0.856,6.96,1.4,3.45,0,1
14849.375,0.088,0.343,0.851,6.56,4.7,0.98,0,1
14849.39,0.084,0.348,0.846,4.97,6.74,-1.83,0,1
14849.39,0.07,0.361,0.847,1.86,8.76,-4.58,0,1
14849.406,0.048,0.381,0.871,-1.5,10.28,-6.56,0,1
14849.421,0.032,0.385,0.887,-3.78,11.6,-7.93,0,1
14849.437,0.017,0.393,0.906,-4.67,12.3,-8.79,0,1
14849.437,0.007,0.4,0.917,-4.39,12.7,-9.37,0,1
14849.453,-0.02,0.423,0.931,-4.73,10.93,-10.93,0,1
14849.468,-0.039,0.426,0.942,-6.32,9.19,-11.26,0,1
14849.468,-0.044,0.427,0.952,-8.06,7.51,-10.96,0,1
14849.484,-0.047,0.428,0.963,-9.25,5.62,-10.62,0,1
14849.5,-0.049,0.425,0.968,-9.7,3.48,-10.16,0,1
14849.5,-0.05,0.423,0.975,-9.25,1.31,-9.46,0,1
14849.515,-0.051,0.422,0.975,-7.9,-0.55,-8.12,0,1
14849.531,-0.049,0.42,0.972,-5.77,-1.59,-6.32,0,1
14849.531,-0.046,0.415,0.965,-3.05,-1.83,-3.97,0,1
14849.546,-0.045,0.414,0.961,0.34,-1.07,-1.34,0,1
14849.562,-0.037,0.413,0.956,3.6,0.18,1.04,0,1
14849.562,-0.034,0.415,0.951,6.04,1.1,2.75,0,1
14849.578,-0.032,0.417,0.944,6.74,1.4,3.69,0,1
14849.578,-0.025,0.416,0.939,5.92,0.82,3.91,0,1
14849.593,-0.017,0.412,0.936,4.06,-0.58,4.09,0,1
14849.609,-0.009,0.406,0.936,1.62,-2.69,3.75,0,1
14849.625,0.005,0.389,0.927,-2.41,-6.93,2.44,0,1
14849.64,0.008,0.385,0.922,-3.51,-7.93,1.4,0,1
14849.64,0.015,0.374,0.918,-3.63,-8.09,1.04,0,1
14849.656,0.018,0.37,0.915,-2.84,-7.54,1.16,0,1
14849.671,0.021,0.372,0.91,-1.37,-6.2,1.31,0,1
14849.671,0.022,0.37,0.906,0.21,-4.55,1.59,0,1
14849.687,0.022,0.374,0.903,1.71,-2.81,1.65,0,1
14849.703,0.021,0.379,0.901,2.35,-1.43,1.8,0,1
14849.703,0.026,0.373,0.901,2.69,-0.85,2.29,0,1
14849.718,0.029,0.373,0.899,3.14,-0.55,2.81,0,1
14849.718,0.036,0.372,0.892,3.54,-0.58,2.99,0,1
14849.734,0.035,0.369,0.884,3.42,-0.73,2.53,0,1
14849.75,0.034,0.373,0.881,2.29,-0.67,1.59,0,1
14849.75,0.031,0.376,0.88,0.21,-0.34,0.03,0,1
14849.765,0.022,0.375,0.885,-2.35,0.0,-1.31,0,1
14849.781,0.019,0.379,0.893,-4.24,0.37,-2.5,0,1
14849.781,0.01,0.378,0.904,-4.49,0.73,-3.08,0,1
14849.796,0.008,0.381,0.913,-3.51,0.89,-2.96,0,1
14849.812,0.004,0.388,0.914,-1.74,0.82,-2.56,0,1
14849.812,0.0,0.393,0.915,0.34,0.92,-1.68,0,1
14849.828,-0.003,0.403,0.917,1.25,0.92,-1.22,0,1
14849.843,-0.006,0.412,0.917,0.89,0.79,-1.31,0,1
14849.843,-0.007,0.415,0.92,-0.4,0.55,-1.01,0,1
14849.859,-0.009,0.414,0.925,-1.89,0.09,-0.76,0,1
14849.859,-0.008,0.412,0.93,-2.66,-0.27,-0.55,0,1
14849.875,-0.011,0.408,0.935,-2.59,-0.82,0.06,0,1
14849.89,-0.007,0.407,0.94,-2.14,-1.4,1.13,0,1
14849.89,-0.003,0.403,0.942,-1.13,-1.68,2.47,0,1
14849.906,0.003,0.402,0.942,-0.24,-2.04,3.54,0,1
14849.921,0.007,0.402,0.94,-0.06,-2.47,3.97,0,1
14849.937,0.006,0.404,0.944,-0.95,-2.78,3.63,0,1
14849.937,0.002,0.406,0.946,-2.38,-3.17,3.05,0,1
14849.953,0.003,0.402,0.95,-4.27,-4.06,2.59,0,1
14849.953,0.001,0.397,0.95,-5.62,-5.34,2.59,0,1
14849.968,-0.001,0.391,0.949,-5.98,-6.9,3.02,0,1
14849.984,0.005,0.385,0.948,-5.28,-8.21,3.81,0,1
14849.984,0.008,0.374,0.94,-3.23,-9.06,5.28,0,1
14850.0,0.019,0.365,0.931,-0.64,-9.64,7.2,0,1
14850.0,0.033,0.362,0.919,1.83,-9.8,8.42,0,1
14850.015,0.044,0.355,0.906,3.75,-9.92,9.13,0,1
14850.031,0.057,0.357,0.894,4.39,-9.86,8.76,0,1
14850.031,0.082,0.359,0.879,3.42,-9.49,7.66,0,1
14850.046,0.104,0.361,0.876,1.34,-8.97,6.16,0,1
14850.062,0.116,0.366,0.873,-1.22,-8.27,4.49,0,1
14850.062,0.119,0.369,0.871,-4.03,-7.72,3.05,0,1
14850.078,0.112,0.373,0.876,-6.5,-7.11,1.8,0,1
14850.093,0.094,0.381,0.879,-8.58,-6.04,0.85,0,1
14850.093,0.079,0.389,0.891,-10.68,-4.39,0.03,0,1
14850.109,0.065,0.388,0.902,-12.3,-2.78,-0.27,0,1
14850.125,0.054,0.385,0.913,-12.42,-1.59,0.55,0,1
14850.125,0.05,0.385,0.92,-10.96,-0.89,1.83,0,1
14850.14,0.054,0.378,0.923,-8.58,-0.7,3.42,0,1
14850.14,0.056,0.37,0.923,-6.2,-1.01,4.88,0,1
14850.156,0.051,0.37,0.922,-4.46,-1.5,5.89,0,1
14850.171,0.045,0.369,0.922,-3.85,-2.14,6.68,0,1
14850.171,0.031,0.37,0.923,-4.39,-2.47,6.78,0,1
14850.187,0.016,0.371,0.924,-6.01,-2.93,6.01,0,1
14850.203,0.008,0.371,0.929,-8.24,-3.23,4.82,0,1
14850.203,0.005,0.368,0.934,-10.38,-3.66,3.94,0,1
14850.218,0.012,0.358,0.937,-11.29,-4.7,3.57,0,1
14850.218,0.03,0.345,0.936,-10.59,-5.98,3.85,0,1
14850.234,0.053,0.33,0.932,-8.0,-6.87,4.73,0,1
14850.25,0.081,0.316,0.921,-4.03,-7.11,5.55,0,1
14850.25,0.095,0.308,0.906,-0.4,-6.84,5.89,0,1
14850.265,0.083,0.312,0.896,1.68,-5.92,4.88,0,1
14850.281,0.066,0.32,0.894,0.52,-4.67,2.32,0,1
14850.281,0.041,0.334,0.896,-3.51,-3.42,-1.43,0,1
14850.296,0.03,0.342,0.905,-9.64,-2.81,-5.49,0,1
14850.312,0.029,0.332,0.92,-15.02,-2.96,-8.24,0,1
14850.312,0.02,0.328,0.932,-17.33,-3.6,-9.43,0,1
14850.328,0.007,0.333,0.943,-17.03,-4.15,-10.28,0,1
14850.328,-0.008,0.335,0.947,-15.14,-4.64,-10.47,0,1
14850.343,-0.013,0.339,0.95,-12.36,-4.49,-9.43,0,1
14850.359,-0.003,0.338,0.947,-4.33,-3.91,-4.24,0,1
14850.359,-0.001,0.334,0.941,-0.95,-2.96,-3.27,0,1
14850.375,-0.017,0.352,0.937,-0.34,-1.86,-4.36,0,1
14850.39,-0.023,0.371,0.933,-2.08,-1.01,-5.58,0,1
14850.406,-0.045,0.388,0.94,-4.88,-1.04,-5.65,0,1
14850.406,-0.042,0.382,0.954,-7.35,-1.65,-5.1,0,1
14850.421,-0.032,0.366,0.964,-7.29,-2.72,-3.85,0,1
14850.421,-0.013,0.352,0.966,-4.43,-3.48,-2.29,0,1
14850.437,-0.001,0.351,0.957,0.12,-3.85,-0.76,0,1
14850.453,0.017,0.359,0.94,4.55,-3.54,0.67,0,1
14850.453,0.033,0.361,0.923,7.11,-2.87,2.01,0,1
14850.468,0.038,0.359,0.913,8.18,-1.86,3.17,0,1
14850.468,0.043,0.356,0.907,7.78,-0.27,3.57,0,1
14850.484,0.044,0.355,0.908,5.92,1.13,2.62,0,1
14850.5,0.043,0.354,0.916,3.36,1.74,0.95,0,1
14850.515,0.045,0.35,0.923,0.49,2.01,-0.55,0,1
14850.515,0.042,0.343,0.933,-1.37,2.11,-1.25,0,1
14850.531,0.039,0.342,0.943,-2.26,1.98,-1.46,0,1
14850.531,0.034,0.338,0.949,-2.23,1.37,-1.59,0,1
14850.546,0.029,0.339,0.955,-1.71,1.1,-1.68,0,1
14850.562,0.03,0.341,0.957,-1.04,0.79,-1.37,0,1
14850.562,0.024,0.34,0.961,-0.43,0.49,-0.67,0,1
14850.578,0.027,0.339,0.962,0.03,0.12,0.09,0,1
14850.593,0.027,0.333,0.963,0.24,-0.12,0.67,0,1
14850.593,0.033,0.327,0.961,0.52,-0.64,1.07,0,1
14850.609,0.037,0.322,0.959,1.13,-1.1,1.19,0,1
14850.625,0.038,0.317,0.957,1.95,-1.5,1.34,0,1
14850.625,0.04,0.319,0.953,1.98,-1.98,0.92,0,1
14850.64,0.049,0.32,0.948,1.37,-2.41,0.15,0,1
14850.64,0.062,0.317,0.945,0.09,-2.93,-0.76,0,1
14850.656,0.07,0.321,0.945,-1.53,-3.33,-1.83,0,1
14850.671,0.085,0.317,0.947,-3.11,-3.51,-2.81,0,1
14850.671,0.103,0.316,0.951,-4.52,-3.72,-3.91,0,1
14850.687,0.108,0.319,0.957,-5.37,-3.88,-4.82,0,1
14850.703,0.122,0.321,0.967,-6.29,-4.15,-5.25,0,1
14850.703,0.145,0.328,0.975,-7.08,-4.18,-5.16,0,1
14850.718,0.166,0.333,0.977,-7.48,-4.15,-4.79,0,1
14850.718,0.185,0.335,0.979,-8.09,-4.09,-4.15,0,1
14850.734,0.194,0.34,0.984,-9.92,-4.12,-3.66,0,1
14850.75,0.192,0.342,0.99,-13.55,-4.24,-3.23,0,1
14850.75,0.182,0.332,0.993,-18.01,-4.55,-2.81,0,1
14850.765,0.178,0.318,1.009,-22.64,-4.94,-2.2,0,1
14850.781,0.176,0.301,1.019,-26.03,-5.49,-0.73,0,1
14850.781,0.159,0.289,1.024,-26.49,-6.1,0.92,0,1
14850.796,0.149,0.288,1.026,-25.82,-7.97,2.47,0,1
14850.812,0.145,0.281,1.018,-24.32,-10.9,4.18,0,1
14850.812,0.13,0.277,0.993,-22.0,-13.58,5.65,0,1
14850.828,0.107,0.287,0.964,-20.57,-16.24,6.59,0,1
14850.828,0.108,0.286,0.945,-20.51,-18.31,6.93,0,1
14850.843,0.072,0.285,0.926,-20.66,-19.23,6.81,0,1
14850.859,0.035,0.312,0.913,-21.42,-19.68,5.58,0,1
14850.859,0.004,0.32,0.902,-23.07,-20.26,3.63,0,1
14850.875,-0.05,0.341,0.904,-25.42,-20.11,1.74,0,1
14850.89,-0.077,0.35,0.911,-27.68,-20.08,0.52,0,1
14850.89,-0.081,0.337,0.922,-28.63,-20.11,0.55,0,1
14850.906,-0.067,0.325,0.935,-26.61,-19.93,1.43,0,1
14850.921,-0.031,0.313,0.942,-21.64,-19.65,2.81,0,1
14850.921,0.012,0.307,0.939,-14.86,-19.07,4.36,0,1
14850.937,0.045,0.302,0.928,-7.87,-18.56,6.04,0,1
14850.953,0.081,0.294,0.915,-2.62,-18.8,7.72,0,1
14850.953,0.13,0.282,0.902,0.55,-18.62,9.22,0,1
14850.968,0.16,0.259,0.895,2.41,-17.52,10.19,0,1
14850.984,0.189,0.228,0.892,3.6,-16.14,10.83,0,1
14850.984,0.205,0.202,0.888,5.07,-13.76,10.93,0,1
14851.0,0.21,0.183,0.887,6.16,-10.5,10.04,0,1
14851.0,0.233,0.172,0.888,6.53,-6.84,8.12,0,1
14851.015,0.24,0.167,0.888,6.23,-2.84,6.04,0,1
14851.031,0.255,0.161,0.895,5.19,0.46,4.7,0,1
14851.031,0.262,0.16,0.904,4.58,3.2,3.11,0,1
14851.046,0.256,0.156,0.908,4.49,5.01,1.74,0,1
14851.062,0.249,0.159,0.914,4.36,5.86,0.7,0,1
14851.062,0.239,0.159,0.917,4.3,5.83,0.09,0,1
14851.078,0.217,0.174,0.92,3.72,6.07,-1.28,0,1
14851.078,0.217,0.19,0.923,1.71,6.16,-3.94,0,1
14851.093,0.186,0.215,0.93,-1.77,7.26,-7.75,0,1
14851.109,0.159,0.242,0.947,-7.29,8.33,-12.33,0,1
14851.109,0.153,0.246,0.966,-13.67,8.12,-15.96,0,1
14851.125,0.143,0.228,0.983,-17.52,6.04,-17.12,0,1
14851.14,0.12,0.233,0.998,-17.7,2.69,-17.0,0,1
14851.156,0.11,0.239,1.003,-16.39,-0.85,-16.91,0,1
14851.156,0.085,0.244,1.003,-14.77,-3.72,-16.85,0,1
14851.171,0.078,0.258,1.005,-12.76,-5.19,-16.48,0,1
14851.171,0.086,0.252,1.0,-10.8,-5.98,-15.41,0,1
14851.187,0.094,0.238,0.991,-7.05,-6.41,-13.12,0,1
14851.203,0.123,0.231,0.976,-1.4,-6.35,-10.22,0,1
14851.203,0.121,0.217,0.952,5.4,-6.23,-7.23,0,1
14851.218,0.082,0.24,0.934,10.65,-5.07,-5.71,0,1
14851.218,0.097,0.273,0.926,10.59,-3.42,-6.93,0,1
14851.234,0.089,0.268,0.918,6.68,-2.26,-8.33,0,1
14851.25,0.085,0.263,0.924,1.8,-2.23,-7.97,0,1
14851.25,0.11,0.272,0.929,-1.53,-2.99,-7.93,0,1
14851.265,0.107,0.265,0.928,-2.84,-3.45,-8.82,0,1
14851.281,0.092,0.273,0.932,-3.33,-3.2,-9.92,0,1
14851.281,0.066,0.282,0.937,-4.33,-2.23,-11.44,0,1
14851.296,0.038,0.277,0.952,-6.44,-1.37,-11.2,0,1
14851.312,0.033,0.285,0.971,-7.2,-0.09,-10.28,0,1
14851.312,0.028,0.28,0.984,-6.13,2.17,-9.67,0,1
14851.328,0.036,0.28,0.998,-4.76,3.94,-9.43,0,1
14851.328,0.042,0.291,1.006,1.31,2.93,-7.6,0,1
14851.343,0.032,0.296,1.01,3.33,0.03,-5.4,0,1
14851.359,0.033,0.298,1.0,4.64,-3.14,-3.69,0,1
14851.359,0.026,0.293,0.984,4.52,-5.07,-3.57,0,1
14851.375,0.017,0.31,0.969,1.92,-6.29,-5.28,0,1
14851.39,0.002,0.291,0.964,-2.32,-7.29,-6.68,0,1
14851.39,-0.005,0.296,0.973,-5.83,-7.39,-7.66,0,1
14851.406,-0.013,0.304,0.976,-7.81,-5.92,-9.28,0,1
14851.421,-0.014,0.306,0.972,-9.83,-5.22,-10.56,0,1
14851.421,-0.005,0.319,0.974,-10.13,-5.22,-10.41,0,1
14851.437,0.005,0.3,0.979,-8.36,-5.8,-7.81,0,1
14851.453,0.027,0.265,0.98,-4.46,-6.35,-3.72,0,1
14851.453,0.049,0.236,0.979,2.29,-5.83,0.46,0,1
14851.468,0.063,0.218,0.975,10.04,-5.07,3.45,0,1
14851.468,0.059,0.228,0.96,15.69,-3.42,3.69,0,1
14851.484,0.055,0.252,0.949,16.14,-1.53,1.62,0,1
14851.5,0.045,0.279,0.947,10.71,-0.55,-1.77,0,1
14851.5,0.032,0.297,0.953,2.32,-0.21,-5.22,0,1
14851.515,0.023,0.288,0.965,-5.34,-0.98,-7.75,0,1
14851.531,0.026,0.271,0.98,-10.01,-2.44,-8.97,0,1
14851.531,0.044,0.256,0.987,-9.8,-4.55,-8.61,0,1
14851.546,0.061,0.248,0.981,-4.73,-6.53,-6.9,0,1
14851.562,0.064,0.25,0.966,2.17,-7.84,-4.3,0,1
14851.562,0.077,0.259,0.95,8.18,-8.7,-1.77,0,1
14851.578,0.084,0.265,0.932,11.87,-8.7,0.15,0,1
14851.593,0.091,0.273,0.911,12.21,-8.09,0.76,0,1
14851.593,0.101,0.27,0.902,10.19,-6.84,0.18,0,1
14851.609,0.106,0.26,0.894,7.45,-5.1,-0.49,0,1
14851.609,0.098,0.268,0.896,4.94,-3.11,-1.4,0,1
14851.625,0.087,0.286,0.902,1.56,-0.79,-3.3,0,1
14851.64,0.07,0.307,0.912,-3.08,1.53,-5.22,0,1
14851.64,0.062,0.311,0.928,-7.6,3.27,-5.86,0,1
14851.656,0.06,0.301,0.947,-10.01,4.06,-4.64,0,1
14851.671,0.077,0.28,0.962,-8.73,3.85,-2.69,0,1
14851.687,0.088,0.261,0.965,-4.21,3.36,-0.27,0,1
14851.687,0.105,0.247,0.96,1.92,2.53,2.62,0,1
14851.687,0.123,0.238,0.948,7.9,1.65,5.62,0,1
14851.703,0.119,0.241,0.934,11.96,1.13,7.32,0,1
14851.718,0.117,0.258,0.919,11.87,1.22,6.35,0,1
14851.718,0.117,0.262,0.911,7.63,1.59,3.97,0,1
14851.734,0.1,0.271,0.912,1.56,2.81,1.5,0,1
14851.75,0.094,0.283,0.929,-4.82,5.13,-1.25,0,1
14851.75,0.093,0.278,0.944,-10.35,7.05,-3.54,0,1
14851.765,0.092,0.273,0.964,-12.88,8.3,-4.03,0,1
14851.781,0.09,0.27,0.978,-11.41,8.94,-2.87,0,1
14851.781,0.094,0.261,0.988,-8.03,8.67,-0.64,0,1
14851.796,0.1,0.245,0.987,-3.14,7.72,2.23,0,1
14851.812,0.097,0.239,0.986,1.74,6.81,4.82,0,1
14851.812,0.096,0.233,0.987,4.82,5.13,5.89,0,1
14851.828,0.098,0.224,0.967,5.55,2.23,6.16,0,1
14851.843,0.093,0.239,0.942,4.58,1.8,5.77,0,1
14851.843,0.087,0.251,0.943,2.62,4.03,3.75,0,1
14851.859,0.075,0.263,0.946,-2.38,6.29,0.67,0,1
14851.859,0.071,0.282,0.959,-9.49,8.64,-1.95,0,1
14851.875,0.066,0.278,0.979,-14.68,10.5,-3.3,0,1
14851.89,0.064,0.265,0.992,-16.45,11.08,-3.48,0,1
14851.89,0.072,0.251,1.004,-13.82,10.86,-2.08,0,1
14851.906,0.079,0.242,1.012,-8.97,9.86,0.31,0,1
14851.921,0.084,0.236,1.008,-4.06,7.66,2.81,0,1
14851.921,0.093,0.231,0.995,-0.15,5.04,4.97,0,1
14851.937,0.109,0.238,0.978,1.25,3.3,5.92,0,1
14851.953,0.108,0.247,0.972,0.7,2.47,5.37,0,1
14851.953,0.104,0.263,0.967,-2.96,2.08,3.78,0,1
14851.968,0.096,0.278,0.968,-9.4,2.41,1.28,0,1
14851.968,0.091,0.264,0.979,-15.56,3.36,0.09,0,1
14851.984,0.083,0.258,0.994,-18.95,5.07,-0.34,0,1
14852.0,0.073,0.247,1.008,-19.9,6.81,-0.7,0,1
14852.0,0.08,0.236,1.021,-18.77,8.21,-0.92,0,1
14852.015,0.078,0.234,1.024,-15.35,9.46,-0.7,0,1
14852.031,0.087,0.234,1.019,-11.38,9.67,-0.09,0,1
14852.046,0.092,0.236,1.019,-8.7,8.64,0.67,0,1
14852.046,0.104,0.228,1.008,-6.9,5.8,2.29,0,1
14852.062,0.105,0.207,1.0,-5.16,2.72,4.58,0,1
14852.062,0.094,0.186,0.992,-3.05,-0.06,6.65,0,1
14852.078,0.077,0.199,0.985,-1.83,-1.59,6.16,0,1
14852.078,0.063,0.22,0.977,-2.93,-1.89,3.45,0,1
14852.093,0.043,0.24,0.974,-6.65,-1.43,0.06,0,1
14852.109,0.025,0.264,0.978,-11.87,-0.18,-3.05,0,1
14852.109,0.007,0.276,0.98,-16.94,1.28,-5.77,0,1
14852.125,0.006,0.266,0.991,-20.48,2.23,-6.9,0,1
14852.14,0.011,0.26,1.0,-19.75,2.53,-5.62,0,1
14852.14,0.014,0.249,1.004,-15.5,1.34,-2.53,0,1
14852.156,0.031,0.235,0.994,-10.07,-1.19,1.1,0,1
14852.171,0.042,0.217,0.975,-4.39,-4.64,4.43,0,1
14852.171,0.053,0.201,0.952,0.21,-7.84,6.87,0,1
14852.187,0.054,0.186,0.928,2.99,-10.04,8.18,0,1
14852.203,0.051,0.175,0.909,2.99,-10.8,7.75,0,1
14852.203,0.056,0.171,0.894,1.25,-9.98,5.52,0,1
14852.218,0.06,0.197,0.885,-2.75,-6.71,1.25,0,1
14852.234,0.045,0.214,0.889,-7.87,-2.9,-4.03,0,1
14852.234,0.034,0.231,0.915,-11.6,0.58,-7.29,0,1
14852.25,0.037,0.251,0.936,-12.33,3.11,-7.69,0,1
14852.25,0.042,0.233,0.954,-9.64,3.94,-5.4,0,1
14852.265,0.071,0.22,0.975,-4.15,3.11,-1.01,0,1
14852.281,0.107,0.207,0.966,5.04,1.86,3.81,0,1
14852.281,0.133,0.198,0.955,14.4,1.86,7.69,0,1
14852.296,0.138,0.201,0.95,20.2,3.2,9.55,0,1
14852.312,0.146,0.224,0.945,20.42,5.77,8.3,0,1
14852.312,0.124,0.231,0.946,4.82,10.59,1.31,0,1
14852.328,0.11,0.216,0.961,-3.85,10.71,-1.28,0,1
14852.328,0.103,0.207,0.98,-8.03,10.5,-3.51,0,1
14852.343,0.096,0.189,0.995,-8.15,9.34,-4.7,0,1
14852.359,0.087,0.179,1.005,-4.03,7.45,-4.33,0,1
14852.359,0.082,0.191,0.992,2.35,5.01,-2.9,0,1
14852.375,0.086,0.206,0.981,7.87,2.81,-1.31,0,1
14852.39,0.093,0.213,0.966,11.54,0.79,0.03,0,1
14852.39,0.084,0.199,0.946,13.58,-0.92,1.34,0,1
14852.406,0.09,0.188,0.927,14.01,-1.8,2.04,0,1
14852.421,0.077,0.198,0.914,12.02,-1.5,0.82,0,1
14852.421,0.042,0.209,0.909,6.16,0.4,-2.9,0,1
14852.437,0.026,0.208,0.919,-2.96,2.99,-7.14,0,1
14852.453,0.02,0.198,0.935,-10.65,5.68,-10.22,0,1
14852.453,0.011,0.216,0.96,-14.44,8.12,-12.15,0,1
14852.468,0.005,0.218,0.969,-14.5,10.04,-13.03,0,1
14852.468,-0.007,0.211,0.983,-11.81,10.77,-11.57,0,1
14852.484,-0.016,0.212,0.997,-5.92,10.28,-8.36,0,1
14852.5,-0.027,0.212,0.994,1.71,8.67,-5.28,0,1
14852.5,-0.03,0.204,0.976,6.62,6.01,-2.78,0,1
14852.515,-0.023,0.211,0.946,7.39,3.17,-1.16,0,1
14852.531,-0.009,0.213,0.927,3.88,2.01,-1.01,0,1
14852.531,-0.011,0.202,0.913,-3.48,1.5,-3.08,0,1
14852.546,-0.034,0.211,0.911,-11.2,1.74,-6.35,0,1
14852.562,-0.046,0.218,0.914,-15.44,2.26,-9.74,0,1
14852.562,-0.055,0.225,0.928,-17.03,2.41,-10.8,0,1
14852.578,-0.044,0.229,0.922,-15.02,1.68,-8.64,0,1
14852.578,-0.021,0.243,0.918,-10.44,0.73,-5.68,0,1
14852.593,0.01,0.223,0.912,-4.82,-0.89,-3.17,0,1
14852.609,0.032,0.205,0.896,-0.85,-1.8,-1.13,0,1
14852.609,0.053,0.182,0.894,0.37,-0.03,1.13,0,1
14852.625,0.054,0.141,0.905,-2.53,4.49,1.28,0,1
14852.64,0.046,0.12,0.934,-9.64,10.71,-2.04,0,1
14852.64,0.038,0.107,0.974,-17.06,16.57,-8.24,0,1
14852.656,0.013,0.099,1.011,-21.88,20.39,-14.98,0,1
14852.671,0.001,0.114,1.053,-21.88,22.28,-18.89,0,1
14852.671,-0.008,0.124,1.069,-16.08,23.22,-19.32,0,1
14852.687,-0.017,0.141,1.074,-8.58,22.4,-17.64,0,1
14852.703,-0.027,0.144,1.071,-1.37,19.71,-14.89,0,1
14852.703,-0.03,0.131,1.056,4.36,15.5,-11.72,0,1
14852.718,-0.016,0.123,1.036,7.35,10.65,-9.43,0,1
14852.718,-0.011,0.117,1.016,7.93,7.35,-9.43,0,1
14852.734,-0.009,0.126,0.997,5.22,6.07,-11.6,0,1
14852.75,-0.017,0.126,0.989,-0.24,6.01,-14.86,0,1
14852.765,-0.021,0.132,0.999,-6.1,8.24,-17.46,0,1
14852.765,-0.029,0.137,1.009,-10.16,11.66,-19.96,0,1
14852.781,-0.029,0.121,1.023,-10.9,14.04,-21.39,0,1
14852.781,-0.046,0.141,1.032,-7.84,15.47,-21.82,0,1
14852.796,-0.067,0.167,1.034,-3.11,15.08,-21.82,0,1
14852.812,-0.093,0.188,1.032,0.34,12.24,-21.0,0,1
14852.812,-0.105,0.213,1.025,1.74,8.7,-19.07,0,1
14852.828,-0.096,0.223,1.014,0.24,4.94,-16.97,0,1
14852.828,-0.075,0.216,1.011,-2.59,2.29,-15.59,0,1
14852.843,-0.057,0.213,1.01,-4.39,1.53,-14.86,0,1
14852.859,-0.05,0.215,1.005,-4.97,1.8,-14.68,0,1
14852.859,-0.046,0.215,0.992,-5.13,1.19,-14.4,0,1
14852.875,-0.048,0.212,0.98,-5.37,0.21,-13.64,0,1
14852.89,-0.043,0.198,0.972,-5.77,0.46,-12.27,0,1
14852.89,-0.022,0.177,0.973,-5.4,1.74,-10.68,0,1
14852.906,-0.01,0.163,0.969,-3.48,3.88,-10.1,0,1
14852.921,-0.016,0.161,0.969,-0.09,6.29,-10.28,0,1
14852.921,-0.044,0.169,0.962,3.63,7.48,-10.35,0,1
14852.937,-0.068,0.197,0.946,5.16,7.26,-10.04,0,1
14852.953,-0.072,0.203,0.933,2.17,6.07,-9.74,0,1
14852.953,-0.054,0.213,0.94,-5.62,5.65,-9.61,0,1
14852.968,-0.048,0.213,0.964,-14.28,7.02,-10.19,0,1
14852.968,-0.06,0.183,0.996,-20.02,9.19,-11.05,0,1
14852.984,-0.066,0.15,1.036,-20.57,11.17,-10.74,0,1
14853.0,-0.074,0.131,1.054,-15.56,11.02,-9.86,0,1
14853.015,-0.075,0.126,1.036,-8.24,8.79,-9.58,0,1
14853.015,-0.059,0.136,1.014,-2.29,7.02,-9.74,0,1
14853.031,-0.068,0.151,1.003,0.27,5.4,-9.86,0,1
14853.046,-0.074,0.141,0.968,-0.49,2.84,-9.4,0,1
14853.046,-0.059,0.134,0.959,-2.81,1.68,-8.36,0,1
14853.062,-0.049,0.12,0.945,-3.42,1.16,-8.33,0,1
14853.062,-0.059,0.112,0.934,-2.66,0.52,-9.4,0,1
14853.078,-0.074,0.11,0.921,-1.1,1.01,-10.62,0,1
14853.078,-0.06,0.123,0.921,-1.01,3.2,-12.18,0,1
14853.093,-0.069,0.152,0.937,-1.71,8.55,-13.64,0,1
14853.109,-0.09,0.162,0.969,-2.29,14.22,-14.56,0,1
14853.125,-0.092,0.177,1.007,-2.01,17.4,-14.07,0,1
14853.125,-0.106,0.196,1.024,-1.4,16.85,-12.45,0,1
14853.14,-0.123,0.193,1.033,-1.16,13.86,-10.1,0,1
14853.14,-0.13,0.179,1.03,-1.31,9.58,-7.05,0,1
14853.156,-0.135,0.172,1.023,-2.62,4.24,-5.58,0,1
14853.171,-0.132,0.153,1.011,-4.49,0.18,-5.01,0,1
14853.171,-0.117,0.134,0.998,-5.77,-2.08,-4.73,0,1
14853.187,-0.113,0.141,0.984,-5.86,-2.53,-5.28,0,1
14853.203,-0.123,0.129,0.976,-5.77,-1.28,-5.98,0,1
14853.203,-0.119,0.125,0.968,-4.91,0.03,-6.53,0,1
14853.218,-0.116,0.14,0.947,-4.12,0.82,-7.42,0,1
14853.218,-0.11,0.139,0.934,-5.04,1.53,-7.78,0,1
14853.234,-0.119,0.132,0.936,-7.35,3.27,-6.62,0,1
14853.25,-0.112,0.128,0.955,-11.05,6.56,-4.97,0,1
14853.25,-0.118,0.116,0.983,-14.83,10.5,-4.49,0,1
14853.265,-0.141,0.104,1.012,-17.03,13.58,-5.31,0,1
14853.281,-0.15,0.104,1.035,-16.88,15.11,-6.81,0,1
14853.281,-0.14,0.107,1.057,-14.65,15.38,-7.57,0,1
14853.296,-0.142,0.115,1.06,-11.96,8.58,-8.15,0,1
14853.312,-0.124,0.114,1.037,-13.25,4.09,-8.33,0,1
14853.312,-0.113,0.11,1.022,-13.89,0.4,-9.19,0,1
14853.328,-0.097,0.101,1.01,-12.82,-0.92,-10.25,0,1
14853.343,-0.119,0.088,0.984,-10.65,-0.79,-11.2,0,1
14853.343,-0.121,0.085,0.975,-7.72,-1.43,-11.6,0,1
14853.359,-0.122,0.1,0.957,-2.72,-1.56,-12.15,0,1
14853.359,-0.119,0.111,0.93,1.86,-0.92,-12.67,0,1
14853.375,-0.11,0.148,0.899,2.41,-0.06,-13.15,0,1
14853.39,-0.113,0.177,0.887,-1.28,0.76,-13.52,0,1
14853.39,-0.115,0.19,0.894,-8.33,2.44,-13.15,0,1
14853.406,-0.129,0.19,0.923,-15.87,5.07,-11.99,0,1
14853.421,-0.132,0.154,0.972,-20.26,7.81,-10.25,0,1
14853.421,-0.138,0.131,1.015,-18.95,10.01,-8.03,0,1
14853.437,-0.164,0.103,1.039,-13.34,11.02,-5.68,0,1
14853.437,-0.159,0.075,1.043,-6.29,9.46,-3.54,0,1
14853.453,-0.147,0.099,1.025,0.98,5.16,-3.42,0,1
14853.468,-0.151,0.124,0.985,6.44,1.07,-4.91,0,1
14853.468,-0.139,0.145,0.96,6.2,-0.31,-6.23,0,1
14853.484,-0.14,0.154,0.958,2.26,1.46,-6.26,0,1
14853.5,-0.151,0.155,0.975,-1.83,3.97,-4.91,0,1
14853.515,-0.136,0.145,0.997,-4.06,5.65,-2.93,0,1
14853.515,-0.132,0.127,1.012,-4.03,6.59,-0.89,0,1
14853.531,-0.13,0.117,1.02,-3.14,6.65,0.31,0,1
14853.531,-0.12,0.119,1.033,-3.36,5.52,-0.12,0,1
14853.546,-0.133,0.122,1.043,-4.67,5.04,-1.46,0,1
14853.562,-0.147,0.115,1.052,-8.67,4.79,-2.66,0,1
14853.562,-0.144,0.101,1.07,-13.58,4.0,-3.57,0,1
14853.578,-0.143,0.087,1.075,-15.47,2.2,-4.24,0,1
14853.593,-0.151,0.083,1.071,-14.28,-0.67,-4.24,0,1
14853.593,-0.147,0.076,1.056,-10.86,-4.03,-4.49,0,1
14853.609,-0.143,0.074,1.033,-6.26,-6.23,-4.09,0,1
14853.609,-0.148,0.079,1.006,-2.69,-6.5,-3.17,0,1
14853.625,-0.143,0.079,0.988,-1.65,-6.44,-2.38,0,1
14853.64,-0.129,0.07,0.982,-1.68,-5.71,-1.53,0,1
14853.64,-0.135,0.052,0.986,-2.38,-3.78,-0.55,0,1
14853.656,-0.12,0.025,0.989,-3.6,-2.56,-0.12,0,1
14853.671,-0.102,0.013,0.988,-4.58,-2.62,-1.43,0,1
14853.671,-0.114,0.002,0.99,-3.78,-2.72,-3.85,0,1
14853.687,-0.128,-0.004,0.988,-3.27,-3.02,-5.62,0,1
14853.703,-0.123,-0.001,0.99,-2.93,-3.66,-7.05,0,1
14853.703,-0.123,0.002,0.988,-2.04,-3.72,-8.42,0,1
14853.718,-0.128,0.009,0.985,-2.08,-3.3,-9.52,0,1
14853.718,-0.127,0.021,0.979,-3.66,-2.99,-10.77,0,1
14853.734,-0.128,0.034,0.969,-5.58,-3.91,-12.51,0,1
14853.75,-0.131,0.044,0.967,-6.53,-5.01,-13.67,0,1
14853.75,-0.135,0.047,0.97,-6.78,-4.94,-13.31,0,1
14853.765,-0.134,0.043,0.973,-6.44,-3.72,-12.21,0,1
14853.781,-0.139,0.039,0.979,-5.13,-1.83,-11.44,0,1
14853.796,-0.138,0.04,0.991,-3.57,-0.79,-11.6,0,1
14853.796,-0.147,0.049,0.99,-2.59,0.06,-11.75,0,1
14853.812,-0.143,0.064,0.987,-3.14,-0.46,-12.21,0,1
14853.812,-0.141,0.065,0.982,-4.39,-1.71,-12.91,0,1
14853.828,-0.142,0.068,0.976,-6.13,-2.62,-13.06,0,1
14853.843,-0.139,0.059,0.964,-7.48,-3.51,-12.57,0,1
14853.843,-0.135,0.055,0.951,-8.12,-4.36,-12.24,0,1
14853.859,-0.125,0.049,0.946,-8.27,-3.78,-11.99,0,1
14853.859,-0.125,0.046,0.942,-8.79,-1.98,-12.15,0,1
14853.875,-0.13,0.051,0.939,-9.7,-0.49,-12.91,0,1
14853.89,-0.115,0.057,0.946,-10.28,0.37,-13.89,0,1
14853.89,-0.135,0.062,0.944,-10.44,1.4,-13.7,0,1
14853.906,-0.136,0.056,0.939,-10.01,1.71,-13.0,0,1
14853.921,-0.123,0.058,0.935,-9.22,1.74,-12.27,0,1
14853.921,-0.133,0.054,0.939,-8.85,2.99,-11.44,0,1
14853.937,-0.13,0.051,0.94,-9.55,3.51,-11.08,0,1
14853.953,-0.129,0.064,0.943,-9.25,4.27,-10.65,0,1
14853.953,-0.14,0.064,0.956,-9.67,5.68,-10.25,0,1
14853.968,-0.137,0.063,0.969,-11.14,6.1,-10.32,0,1
14853.984,-0.137,0.069,0.977,-10.65,6.32,-9.95,0,1
14853.984,-0.16,0.065,0.988,-9.28,6.9,-8.82,0,1
14854.0,-0.161,0.05,0.995,-8.0,6.59,-7.66,0,1
14854.015,-0.172,0.045,0.996,-5.22,5.49,-6.96,0,1
14854.015,-0.184,0.04,0.994,-1.34,4.46,-6.56,0,1
14854.031,-0.191,0.036,0.992,1.98,3.33,-6.47,0,1
14854.031,-0.177,0.036,0.98,5.25,1.74,-6.84,0,1
14854.046,-0.16,0.043,0.966,8.79,0.79,-6.81,0,1
14854.062,-0.134,0.062,0.938,11.69,0.15,-6.93,0,1
14854.062,-0.146,0.096,0.893,13.31,-0.49,-6.78,0,1
14854.078,-0.157,0.111,0.864,10.74,-1.22,-5.28,0,1
14854.093,-0.133,0.116,0.858,1.53,-0.67,-2.84,0,1
14854.093,-0.128,0.1,0.878,-12.02,2.35,-0.95,0,1
14854.109,-0.133,0.056,0.91,-25.91,5.46,-1.43,0,1
14854.109,-0.135,0.022,0.954,-36.81,7.26,-3.54,0,1
14854.125,-0.137,-0.006,0.995,-42.57,7.45,-6.01,0,1
14854.14,-0.135,-0.029,1.011,-44.07,5.89,-9.0,0,1
14854.14,-0.14,-0.023,1.028,-41.6,5.13,-11.75,0,1
14854.156,-0.154,-0.024,1.056,-35.4,6.78,-12.39,0,1
14854.171,-0.144,-0.037,1.065,-25.7,9.13,-10.8,0,1
14854.171,-0.146,-0.034,1.06,-14.16,12.05,-8.24,0,1
14854.187,-0.151,-0.042,1.062,-3.97,15.78,-6.44,0,1
14854.203,-0.146,-0.038,1.063,1.53,17.55,-6.04,0,1
14854.203,-0.157,-0.026,1.057,3.48,19.01,-6.56,0,1
14854.218,-0.168,-0.026,1.066,1.1,20.78,-7.57,0,1
14854.234,-0.165,-0.026,1.084,-4.49,19.47,-9.37,0,1
14854.234,-0.172,-0.025,1.09,-9.0,14.59,-11.6,0,1
14854.25,-0.181,-0.038,1.101,-9.74,9.61,-12.24,0,1
14854.25,-0.175,-0.043,1.114,-7.72,4.52,-11.57,0,1
14854.265,-0.178,-0.038,1.093,-2.5,-1.25,-10.74,0,1
14854.281,-0.182,-0.04,1.065,3.88,-4.46,-9.43,0,1
14854.281,-0.178,-0.031,1.046,11.87,-6.01,-7.97,0,1
14854.296,-0.177,-0.024,1.03,14.19,-5.37,-6.87,0,1
14854.312,-0.19,-0.02,1.005,13.89,-4.43,-5.71,0,1
14854.312,-0.173,-0.01,0.978,11.93,-3.81,-5.46,0,1
14854.328,-0.179,-0.014,0.972,9.95,-2.9,-5.98,0,1
14854.343,-0.185,-0.014,0.971,7.08,-2.14,-6.32,0,1
14854.343,-0.176,-0.014,0.97,4.43,-1.89,-6.74,0,1
14854.359,-0.174,-0.019,0.97,2.99,-1.34,-6.74,0,1
14854.359,-0.184,-0.018,0.971,1.83,-0.73,-6.56,0,1
14854.375,-0.179,-0.014,0.974,0.64,-0.58,-7.05,0,1
14854.39,-0.187,-0.01,0.977,0.18,-0.49,-7.26,0,1
14854.39,-0.176,0.008,0.974,1.28,-0.58,-7.08,0,1
14854.406,-0.181,0.016,0.966,3.57,-0.73,-7.2,0,1
14854.421,-0.176,0.025,0.953,5.74,-2.29,-7.2,0,1
14854.421,-0.177,0.031,0.942,8.21,-2.53,-5.62,0,1
14854.437,-0.174,0.046,0.923,8.91,-2.17,-4.03,0,1
14854.453,-0.172,0.047,0.917,7.66,-2.23,-2.78,0,1
14854.453,-0.18,0.029,0.92,5.34,-1.07,-0.79,0,1
14854.468,-0.163,0.025,0.927,2.44,-0.34,0.21,0,1
14854.468,-0.176,0.014,0.926,1.8,0.0,0.27,0,1
14854.484,-0.176,0.009,0.925,1.56,-0.21,0.73,0,1
14854.5,-0.171,0.01,0.928,0.09,-0.15,1.59,0,1
14854.5,-0.168,-0.001,0.944,-2.41,1.28,2.38,0,1
14854.515,-0.159,-0.012,0.963,-5.07,2.81,2.47,0,1
14854.531,-0.157,-0.021,0.982,-7.81,3.2,1.43,0,1
14854.531,-0.179,-0.024,1.001,-9.4,2.75,-0.03,0,1
14854.546,-0.178,-0.025,1.026,-10.99,1.46,-1.22,0,1
14854.562,-0.188,-0.031,1.038,-11.75,-0.06,-1.68,0,1
14854.562,-0.189,-0.029,1.041,-9.95,-2.01,-2.66,0,1
14854.578,-0.185,-0.019,1.03,-6.62,-4.27,-3.81,0,1
14854.593,-0.188,-0.011,1.008,-2.59,-5.77,-3.75,0,1
14854.593,-0.17,-0.0,0.977,2.32,-7.2,-2.59,0,1
14854.609,-0.182,0.009,0.955,7.02,-6.84,-0.43,0,1
14854.625,-0.182,0.005,0.957,7.14,-5.07,1.01,0,1
14854.625,-0.176,-0.01,0.972,4.61,-2.84,1.16,0,1
14854.64,-0.166,-0.018,0.985,3.72,-0.7,0.27,0,1
14854.64,-0.171,-0.017,0.997,3.33,1.04,-0.89,0,1
14854.656,-0.172,-0.01,1.005,1.68,0.61,-2.56,0,1
14854.671,-0.185,-0.012,1.004,1.1,-0.52,-3.42,0,1
14854.671,-0.193,-0.008,1.003,-0.12,-1.62,-3.63,0,1
14854.687,-0.189,-0.008,1.006,-0.82,-2.87,-3.94,0,1
14854.703,-0.179,-0.007,0.994,0.61,-4.15,-3.63,0,1
14854.703,-0.183,0.007,0.976,3.66,-4.7,-2.53,0,1
14854.718,-0.152,0.008,0.959,6.5,-6.07,-1.46,0,1
14854.734,-0.164,0.012,0.94,9.37,-6.87,-0.34,0,1
14854.734,-0.173,0.005,0.933,9.34,-5.77,1.34,0,1
14854.75,-0.158,-0.004,0.944,4.7,-3.39,1.95,0,1
14854.75,-0.144,-0.019,0.97,-0.52,-0.73,0.06,0,1
14854.765,-0.152,-0.025,0.996,-3.27,0.31,-2.47,0,1
14854.781,-0.144,-0.023,1.015,-3.91,-0.82,-3.94,0,1
14854.781,-0.145,-0.01,1.015,-2.93,-3.57,-4.46,0,1
14854.796,-0.144,-0.004,1.019,-0.49,-6.04,-4.06,0,1
14854.812,-0.137,-0.015,1.014,1.53,-7.63,-2.56,0,1
14854.812,-0.145,-0.021,0.997,3.36,-9.0,-1.31,0,1
