timestamp,ax,ay,az,gx,gy,gz,orient_label,motion_label
16561.218,0.942,-0.04,0.269,-2.59,-5.43,-4.33,1,3
16561.218,0.948,-0.033,0.26,-2.26,-6.16,-3.39,1,3
16561.234,0.959,-0.036,0.254,-2.9,-6.44,-2.38,1,3
16561.25,0.962,-0.047,0.247,-3.48,-5.83,-1.34,1,3
16561.25,0.961,-0.06,0.243,-3.72,-5.1,-0.52,1,3
16561.265,0.967,-0.071,0.244,-3.3,-4.43,-0.43,1,3
16561.281,0.964,-0.074,0.246,-2.2,-3.57,-0.76,1,3
16561.281,0.961,-0.077,0.24,-1.13,-2.47,-0.79,1,3
16561.296,0.946,-0.066,0.238,-1.25,-1.37,0.06,1,3
16561.312,0.935,-0.055,0.234,-3.66,-1.16,1.8,1,3
16561.312,0.933,-0.063,0.239,-6.93,-1.37,4.18,1,3
16561.328,0.944,-0.081,0.236,-9.03,-1.62,6.26,1,3
16561.343,0.954,-0.088,0.238,-8.82,-0.79,7.57,1,3
16561.343,0.963,-0.099,0.239,-8.09,0.43,7.48,1,3
16561.359,0.969,-0.113,0.246,-8.03,1.25,6.16,1,3
16561.359,0.97,-0.117,0.26,-6.38,2.04,4.15,1,3
16561.375,0.971,-0.121,0.265,-2.99,2.17,1.71,1,3
16561.39,0.979,-0.114,0.266,3.54,1.5,-3.45,1,3
16561.406,0.97,-0.107,0.267,5.04,1.28,-5.86,1,3
16561.421,0.959,-0.102,0.274,6.16,0.89,-7.11,1,3
16561.437,0.956,-0.093,0.273,7.29,0.21,-6.93,1,3
16561.437,0.958,-0.077,0.265,7.35,-0.49,-6.23,1,3
16561.437,0.944,-0.061,0.255,4.73,-0.89,-4.64,1,3
16561.453,0.937,-0.054,0.252,0.67,-1.59,-1.74,1,3
16561.468,0.944,-0.052,0.249,-2.53,-2.53,1.59,1,3
16561.468,0.955,-0.064,0.237,-3.88,-2.72,4.0,1,3
16561.484,0.967,-0.07,0.23,-3.88,-2.17,5.25,1,3
16561.5,0.975,-0.068,0.226,-2.81,-1.37,5.28,1,3
16561.5,0.975,-0.081,0.223,-1.16,-0.49,5.13,1,3
16561.515,0.98,-0.091,0.219,0.92,0.09,5.07,1,3
16561.531,0.987,-0.099,0.217,3.6,0.34,4.49,1,3
16561.531,0.989,-0.116,0.21,6.2,0.55,3.27,1,3
16561.546,0.982,-0.13,0.205,8.97,0.98,2.11,1,3
16561.562,0.987,-0.135,0.193,13.92,1.4,-1.65,1,3
16561.578,0.981,-0.131,0.183,17.15,1.28,-2.87,1,3
16561.578,0.98,-0.117,0.17,19.75,1.07,-3.36,1,3
16561.593,0.973,-0.108,0.151,20.23,0.55,-3.02,1,3
16561.609,0.982,-0.109,0.133,21.12,-0.52,-0.55,1,3
16561.609,1.003,-0.109,0.117,23.1,0.21,0.37,1,3
16561.625,1.02,-0.112,0.105,25.94,1.86,0.06,1,3
16561.64,1.021,-0.117,0.096,29.45,4.06,-1.34,1,3
16561.64,1.001,-0.108,0.063,34.18,6.78,-2.84,1,3
16561.656,0.99,-0.101,0.053,38.33,9.52,-4.64,1,3
16561.671,0.984,-0.09,0.048,42.05,13.06,-6.84,1,3
16561.671,0.981,-0.084,0.047,44.83,17.58,-8.55,1,3
16561.687,0.974,-0.086,0.056,46.36,23.19,-9.34,1,3
16561.703,0.956,-0.088,0.078,49.2,29.18,-8.76,1,3
16561.703,0.95,-0.073,0.086,53.04,34.15,-6.38,1,3
16561.718,0.95,-0.064,0.086,56.09,38.54,-4.64,1,3
16561.734,0.978,-0.071,0.066,58.75,49.44,-5.95,1,3
16561.75,0.974,-0.073,0.075,61.8,58.32,-8.7,1,3
16561.75,0.96,-0.093,0.091,66.96,68.33,-11.26,1,3
16561.765,0.945,-0.065,0.084,72.05,78.46,-13.49,1,3
16561.781,0.949,-0.033,0.072,75.84,89.45,-13.89,1,3
16561.781,0.93,-0.015,0.085,74.4,100.44,-15.32,1,3
16561.796,0.883,-0.011,0.108,66.47,107.27,-18.52,1,3
16561.812,0.848,-0.015,0.169,57.1,109.13,-20.75,1,3
16561.812,0.823,-0.019,0.242,53.62,109.04,-21.76,1,3
16561.828,0.781,-0.01,0.305,58.78,108.58,-20.26,1,3
16561.843,0.76,0.023,0.351,69.31,106.11,-17.61,1,3
16561.843,0.76,0.04,0.36,79.87,101.93,-15.72,1,3
16561.859,0.777,0.067,0.355,85.42,97.11,-15.23,1,3
16561.875,0.797,0.093,0.357,87.34,92.72,-16.66,1,3
16561.875,0.803,0.1,0.36,87.56,89.45,-18.04,1,3
16561.89,0.818,0.112,0.363,84.84,87.37,-18.74,1,3
16561.906,0.834,0.129,0.379,77.36,90.52,-19.07,1,3
16561.921,0.831,0.14,0.396,75.29,95.37,-19.07,1,3
16561.937,0.78,0.132,0.421,75.17,101.17,-19.23,1,3
16561.937,0.763,0.132,0.469,75.93,105.5,-16.54,1,3
16561.953,0.765,0.185,0.498,78.62,106.94,-14.56,1,3
16561.953,0.737,0.202,0.513,81.33,108.28,-14.1,1,3
16561.968,0.721,0.204,0.532,81.39,107.58,-13.4,1,3
16561.968,0.709,0.228,0.554,79.32,105.47,-13.25,1,3
16561.984,0.684,0.228,0.58,76.69,103.15,-13.0,1,3
16562.0,0.684,0.228,0.603,74.8,99.7,-11.84,1,3
16562.0,0.678,0.239,0.614,74.4,96.47,-11.32,1,3
16562.015,0.657,0.208,0.605,74.92,92.62,-10.59,1,3
16562.031,0.647,0.194,0.6,74.34,87.8,-8.79,1,3
16562.046,0.67,0.218,0.601,74.53,83.32,-7.6,1,3
16562.046,0.697,0.268,0.607,74.71,82.03,-8.64,1,3
16562.062,0.697,0.299,0.616,74.34,84.14,-11.69,1,3
16562.062,0.685,0.317,0.628,72.76,87.56,-14.28,1,3
16562.078,0.657,0.36,0.679,69.52,90.33,-15.47,1,3
16562.093,0.617,0.353,0.715,66.29,89.33,-14.47,1,3
16562.093,0.598,0.333,0.728,60.03,83.1,-11.05,1,3
16562.109,0.61,0.338,0.749,52.52,75.05,-7.51,1,3
16562.125,0.617,0.366,0.777,47.0,67.51,-7.51,1,3
16562.125,0.607,0.374,0.802,43.34,60.3,-9.89,1,3
16562.14,0.592,0.376,0.825,39.67,53.68,-12.85,1,3
16562.14,0.576,0.386,0.867,34.12,46.45,-16.3,1,3
16562.156,0.574,0.377,0.894,30.46,36.23,-20.11,1,3
16562.171,0.583,0.335,0.884,30.61,25.94,-24.05,1,3
16562.171,0.6,0.305,0.854,33.75,19.17,-27.28,1,3
16562.187,0.616,0.301,0.846,41.35,18.59,-29.02,1,3
16562.203,0.636,0.333,0.836,53.01,24.41,-30.58,1,3
16562.203,0.639,0.375,0.808,64.3,34.21,-34.3,1,3
16562.218,0.623,0.407,0.765,69.25,45.35,-39.25,1,3
16562.218,0.591,0.451,0.758,65.61,56.28,-43.55,1,3
16562.234,0.507,0.494,0.813,59.05,63.51,-45.17,1,3
16562.25,0.434,0.492,0.848,55.18,63.36,-40.77,1,3
16562.25,0.409,0.517,0.866,50.11,58.38,-32.75,1,3
16562.265,0.382,0.521,0.868,44.77,50.33,-24.81,1,3
16562.281,0.368,0.51,0.879,38.85,41.14,-19.14,1,3
16562.281,0.36,0.516,0.893,32.2,32.01,-16.45,1,3
16562.296,0.369,0.504,0.887,27.53,24.14,-14.56,1,3
16562.312,0.382,0.5,0.856,24.2,19.29,-12.57,1,3
16562.312,0.366,0.49,0.845,17.49,19.44,-9.43,1,3
16562.328,0.404,0.526,0.838,10.8,22.13,-7.29,1,3
16562.343,0.399,0.532,0.839,6.35,27.56,-8.88,1,3
16562.343,0.367,0.499,0.855,2.69,33.39,-8.51,1,3
16562.359,0.362,0.473,0.87,0.58,37.54,-6.81,1,3
16562.359,0.339,0.448,0.877,1.1,39.34,-6.53,1,3
16562.375,0.322,0.419,0.874,3.88,38.88,-5.55,1,3
16562.39,0.319,0.429,0.886,6.65,38.58,-4.43,1,3
16562.39,0.325,0.462,0.893,10.19,37.84,-7.2,1,3
16562.406,0.324,0.454,0.881,14.89,37.9,-11.29,1,3
16562.421,0.321,0.435,0.852,18.22,40.19,-13.95,1,3
16562.437,0.326,0.408,0.82,19.84,44.77,-16.97,1,3
16562.437,0.323,0.384,0.78,21.52,51.55,-21.18,1,3
16562.453,0.312,0.395,0.759,23.22,61.37,-25.57,1,3
16562.453,0.271,0.433,0.778,22.71,72.88,-32.11,1,3
16562.468,0.224,0.466,0.808,20.48,81.36,-38.85,1,3
16562.468,0.151,0.473,0.856,21.67,84.81,-41.41,1,3
16562.484,0.099,0.499,0.912,25.76,81.61,-39.43,1,3
16562.5,0.09,0.531,0.939,33.02,71.32,-37.02,1,3
16562.515,0.078,0.541,0.935,42.15,58.72,-35.8,1,3
16562.515,0.08,0.562,0.923,49.23,46.36,-33.78,1,3
16562.531,0.097,0.588,0.906,53.68,35.98,-31.19,1,3
16562.531,0.106,0.615,0.883,54.2,28.05,-29.02,1,3
16562.546,0.111,0.658,0.86,50.69,22.8,-27.68,1,3
16562.562,0.106,0.685,0.842,43.37,19.62,-25.57,1,3
16562.562,0.104,0.694,0.842,32.11,17.21,-22.16,1,3
16562.578,0.107,0.694,0.843,21.0,14.77,-18.46,1,3
16562.593,0.115,0.674,0.832,12.54,11.81,-14.74,1,3
16562.593,0.129,0.637,0.823,3.72,3.11,-7.93,1,3
16562.609,0.141,0.597,0.817,5.22,-1.43,-6.62,1,3
16562.609,0.162,0.569,0.808,8.58,-4.3,-7.48,1,3
16562.625,0.172,0.573,0.8,12.45,-5.86,-8.94,1,3
16562.64,0.172,0.573,0.796,15.59,-6.41,-9.52,1,3
16562.656,0.172,0.588,0.796,17.64,-7.05,-10.28,1,3
16562.656,0.173,0.585,0.793,19.04,-8.55,-11.26,1,3
16562.671,0.18,0.587,0.79,20.33,-10.47,-12.12,1,3
16562.671,0.188,0.612,0.768,21.52,-11.57,-13.09,1,3
16562.687,0.192,0.618,0.76,21.24,-11.23,-14.28,1,3
16562.703,0.192,0.652,0.794,19.23,-8.73,-15.59,1,3
16562.703,0.194,0.748,0.834,19.01,-5.28,-19.04,1,3
16562.718,0.196,0.8,0.853,23.9,-2.56,-23.07,1,3
16562.718,0.191,0.833,0.862,30.58,-1.59,-22.74,1,3
16562.734,0.174,0.838,0.845,36.68,-3.51,-18.52,1,3
16562.75,0.172,0.795,0.803,41.81,-6.96,-11.14,1,3
16562.75,0.188,0.742,0.763,43.31,-11.41,-2.81,1,3
16562.765,0.201,0.689,0.718,41.02,-16.21,2.62,1,3
16562.781,0.214,0.627,0.676,35.25,-21.18,4.27,1,3
16562.781,0.242,0.572,0.654,28.17,-24.87,4.7,1,3
16562.796,0.264,0.532,0.637,23.59,-26.31,3.42,1,3
16562.812,0.284,0.516,0.628,21.49,-26.37,0.4,1,3
16562.812,0.304,0.533,0.626,19.93,-24.32,-3.23,1,3
16562.828,0.305,0.558,0.64,19.47,-20.39,-6.93,1,3
16562.828,0.291,0.589,0.676,19.1,-17.0,-9.64,1,3
16562.843,0.285,0.625,0.705,20.42,-14.83,-11.05,1,3
16562.859,0.274,0.664,0.73,22.64,-13.25,-12.48,1,3
16562.875,0.26,0.692,0.744,26.15,-12.76,-13.82,1,3
16562.875,0.249,0.71,0.74,30.79,-13.15,-14.04,1,3
16562.89,0.242,0.723,0.737,34.24,-14.71,-13.18,1,3
16562.89,0.245,0.717,0.729,37.39,-16.97,-11.51,1,3
16562.921,0.259,0.682,0.68,43.37,-22.19,-8.03,1,3
16562.921,0.273,0.675,0.657,45.26,-24.38,-7.02,1,3
16562.937,0.283,0.671,0.635,46.11,-25.88,-7.35,1,3
16562.953,0.29,0.678,0.614,45.69,-25.94,-8.48,1,3
16562.953,0.291,0.695,0.599,43.95,-24.87,-9.67,1,3
16562.968,0.285,0.709,0.589,40.89,-23.19,-10.83,1,3
16562.968,0.279,0.722,0.58,37.26,-21.15,-11.72,1,3
16562.984,0.276,0.742,0.574,32.96,-18.68,-11.84,1,3
16563.0,0.268,0.756,0.575,28.02,-16.33,-11.51,1,3
16563.0,0.266,0.756,0.576,23.26,-14.59,-10.41,1,3
16563.015,0.263,0.762,0.574,18.89,-13.12,-9.0,1,3
16563.031,0.268,0.764,0.572,14.92,-12.54,-6.96,1,3
16563.031,0.276,0.762,0.571,11.51,-12.3,-5.22,1,3
16563.046,0.276,0.758,0.569,8.94,-11.75,-3.94,1,3
16563.062,0.284,0.756,0.565,6.99,-11.66,-3.05,1,3
16563.062,0.288,0.755,0.559,5.86,-11.54,-2.47,1,3
16563.093,0.3,0.759,0.546,3.08,-10.56,-2.47,1,3
16563.093,0.3,0.762,0.539,1.62,-9.22,-2.29,1,3
16563.109,0.296,0.767,0.537,-0.55,-7.2,-1.62,1,3
16563.125,0.295,0.772,0.53,-3.33,-4.7,-0.7,1,3
16563.125,0.29,0.771,0.539,-6.93,-1.34,0.58,1,3
16563.14,0.283,0.765,0.555,-11.99,0.98,1.65,1,3
16563.14,0.282,0.746,0.566,-16.69,2.14,2.2,1,3
16563.156,0.273,0.74,0.582,-21.55,2.53,2.69,1,3
16563.171,0.273,0.734,0.598,-25.7,1.92,3.36,1,3
16563.187,0.272,0.733,0.613,-28.75,1.19,4.33,1,3
16563.187,0.276,0.722,0.624,-30.49,0.15,5.19,1,3
16563.203,0.28,0.713,0.632,-31.28,-1.31,5.83,1,3
16563.203,0.281,0.703,0.645,-31.19,-2.81,6.29,1,3
16563.218,0.285,0.697,0.653,-29.27,-3.81,6.87,1,3
16563.234,0.29,0.691,0.654,-25.7,-4.21,7.6,1,3
16563.234,0.293,0.681,0.655,-21.33,-4.52,7.75,1,3
16563.25,0.304,0.682,0.65,-12.91,-5.71,6.65,1,3
16563.265,0.304,0.679,0.648,-9.0,-6.01,5.34,1,3
16563.281,0.308,0.681,0.637,-5.4,-5.95,4.21,1,3
16563.281,0.309,0.686,0.628,-3.11,-5.31,3.17,1,3
16563.296,0.308,0.692,0.623,-2.29,-4.06,1.98,1,3
16563.312,0.306,0.694,0.612,-2.59,-2.75,1.07,1,3
16563.312,0.299,0.694,0.611,-4.27,-1.25,0.7,1,3
16563.328,0.296,0.704,0.623,-7.45,-0.58,0.52,1,3
16563.343,0.292,0.707,0.628,-10.59,-0.67,0.85,1,3
16563.343,0.289,0.706,0.63,-13.46,-1.13,1.77,1,3
16563.359,0.289,0.706,0.637,-16.21,-1.65,3.05,1,3
16563.375,0.293,0.699,0.642,-18.34,-2.38,4.64,1,3
16563.375,0.297,0.69,0.648,-19.9,-3.02,5.95,1,3
16563.39,0.303,0.684,0.653,-20.69,-3.85,6.9,1,3
16563.39,0.305,0.675,0.654,-20.57,-4.88,7.2,1,3
16563.406,0.306,0.671,0.656,-20.14,-6.1,6.35,1,3
16563.421,0.301,0.663,0.658,-18.86,-6.81,5.28,1,3
16563.421,0.298,0.661,0.66,-16.6,-6.53,4.94,1,3
16563.437,0.297,0.666,0.671,-14.13,-5.89,5.43,1,3
16563.453,0.3,0.666,0.671,-10.8,-5.4,6.04,1,3
16563.453,0.308,0.664,0.676,-8.15,-5.55,6.96,1,3
16563.468,0.32,0.658,0.675,-5.68,-5.95,7.48,1,3
16563.468,0.332,0.649,0.669,-3.69,-5.98,6.93,1,3
16563.484,0.34,0.639,0.66,-2.75,-5.83,4.91,1,3
16563.5,0.343,0.631,0.65,-2.38,-5.28,2.59,1,3
16563.5,0.349,0.639,0.648,-3.14,-3.97,0.37,1,3
16563.515,0.346,0.642,0.649,-3.85,-2.2,-1.77,1,3
16563.531,0.339,0.648,0.65,-4.52,-0.64,-3.39,1,3
16563.531,0.332,0.658,0.656,-5.19,0.76,-4.33,1,3
16563.546,0.325,0.667,0.664,-5.43,1.62,-4.82,1,3
16563.562,0.308,0.668,0.669,-5.46,2.11,-4.64,1,3
16563.562,0.302,0.67,0.677,-5.28,1.77,-3.78,1,3
16563.578,0.288,0.667,0.684,-3.17,-1.01,-0.85,1,3
16563.578,0.287,0.663,0.688,-1.83,-2.81,0.46,1,3
16563.593,0.288,0.662,0.69,-0.24,-4.61,1.13,1,3
16563.609,0.291,0.66,0.684,0.98,-5.77,0.89,1,3
16563.609,0.297,0.652,0.671,1.53,-6.84,-0.12,1,3
16563.625,0.308,0.644,0.665,1.68,-7.97,-0.64,1,3
16563.64,0.318,0.651,0.653,2.56,-8.27,-0.98,1,3
16563.64,0.331,0.658,0.647,3.54,-7.93,-0.67,1,3
16563.656,0.339,0.672,0.64,3.81,-6.44,-0.43,1,3
16563.671,0.34,0.676,0.633,3.27,-4.21,-0.43,1,3
16563.671,0.336,0.667,0.628,1.74,-2.38,-0.64,1,3
16563.687,0.33,0.665,0.631,-0.76,-0.79,-1.19,1,3
16563.703,0.328,0.665,0.639,-3.85,0.15,-1.59,1,3
16563.703,0.319,0.671,0.652,-6.23,0.61,-1.74,1,3
16563.718,0.308,0.674,0.663,-7.84,-0.09,-1.25,1,3
16563.734,0.309,0.669,0.669,-9.03,-1.59,-0.27,1,3
16563.734,0.311,0.665,0.672,-9.61,-3.08,0.34,1,3
16563.75,0.319,0.658,0.67,-9.37,-4.03,0.7,1,3
16563.75,0.319,0.655,0.667,-9.19,-4.0,0.7,1,3
16563.765,0.322,0.645,0.668,-8.7,-3.51,0.52,1,3
16563.781,0.325,0.639,0.669,-7.08,-2.35,0.09,1,3
16563.796,0.32,0.638,0.676,-5.19,-0.67,-0.09,1,3
16563.796,0.32,0.641,0.685,-3.48,0.15,-0.21,1,3
16563.812,0.319,0.639,0.69,-1.56,0.34,-1.01,1,3
16563.812,0.318,0.638,0.685,0.15,0.03,-1.89,1,3
16563.828,0.315,0.644,0.674,1.1,-0.34,-2.47,1,3
16563.843,0.315,0.653,0.667,1.19,-0.64,-2.78,1,3
16563.843,0.309,0.659,0.664,0.52,-0.67,-2.81,1,3
16563.859,0.305,0.664,0.663,-0.7,-1.01,-2.66,1,3
16563.875,0.305,0.67,0.665,-2.35,-1.5,-2.04,1,3
16563.875,0.304,0.672,0.665,-3.78,-2.38,-1.1,1,3
16563.89,0.304,0.67,0.667,-5.13,-3.42,-0.03,1,3
16563.89,0.309,0.67,0.666,-6.35,-4.36,1.16,1,3
16563.906,0.313,0.663,0.661,-7.29,-5.13,2.11,1,3
16563.921,0.315,0.661,0.661,-7.97,-5.43,2.99,1,3
16563.921,0.319,0.657,0.661,-8.7,-5.34,3.45,1,3
16563.953,0.324,0.651,0.661,-10.1,-4.7,3.51,1,3
16563.953,0.327,0.647,0.665,-10.56,-4.0,3.63,1,3
16563.968,0.333,0.647,0.665,-11.02,-3.36,3.45,1,3
16563.984,0.33,0.644,0.666,-11.14,-2.08,3.6,1,3
16563.984,0.327,0.642,0.669,-10.93,-0.03,4.12,1,3
16564.0,0.323,0.638,0.675,-10.25,2.26,4.7,1,3
16564.0,0.32,0.636,0.68,-9.16,4.3,5.55,1,3
16564.015,0.318,0.635,0.687,-8.03,6.01,6.44,1,3
16564.031,0.311,0.626,0.692,-6.81,7.08,7.26,1,3
16564.031,0.312,0.627,0.693,-5.89,7.51,8.33,1,3
16564.046,0.311,0.632,0.693,-4.82,7.93,8.97,1,3
16564.062,0.313,0.634,0.696,-4.03,8.03,9.37,1,3
16564.062,0.311,0.634,0.696,-3.6,7.97,9.46,1,3
16564.078,0.309,0.633,0.69,-3.05,7.84,9.52,1,3
16564.078,0.311,0.633,0.685,-3.54,7.05,9.46,1,3
16564.093,0.315,0.633,0.684,-4.85,5.95,9.22,1,3
16564.109,0.324,0.642,0.685,-7.57,3.97,10.74,1,3
16564.125,0.331,0.642,0.686,-8.7,3.45,11.69,1,3
16564.14,0.336,0.633,0.686,-9.89,2.84,12.54,1,3
16564.14,0.341,0.622,0.684,-10.22,2.84,12.76,1,3
16564.156,0.353,0.61,0.684,-11.14,2.96,12.3,1,3
16564.171,0.357,0.598,0.685,-12.63,3.36,10.74,1,3
16564.171,0.364,0.587,0.692,-13.86,4.03,8.67,1,3
16564.187,0.369,0.582,0.699,-14.5,4.39,5.89,1,3
16564.203,0.367,0.576,0.704,-14.5,4.7,2.56,1,3
16564.203,0.36,0.58,0.71,-13.89,5.19,-0.52,1,3
16564.218,0.352,0.586,0.719,-12.42,5.74,-2.87,1,3
16564.234,0.339,0.595,0.724,-10.38,6.26,-3.78,1,3
16564.234,0.329,0.605,0.73,-8.39,6.29,-4.3,1,3
16564.25,0.321,0.607,0.734,-6.78,5.58,-4.36,1,3
16564.265,0.311,0.608,0.733,-5.71,4.21,-3.97,1,3
16564.265,0.299,0.613,0.73,-5.28,2.66,-3.11,1,3
16564.281,0.284,0.632,0.714,-7.05,-0.34,0.73,1,3
16564.296,0.292,0.638,0.703,-9.86,-1.95,3.23,1,3
16564.312,0.304,0.635,0.695,-12.45,-2.29,5.92,1,3
16564.312,0.316,0.627,0.689,-14.25,-1.22,8.55,1,3
16564.328,0.325,0.622,0.687,-15.14,0.76,10.86,1,3
16564.343,0.33,0.616,0.682,-15.84,3.17,12.57,1,3
16564.343,0.333,0.613,0.687,-17.15,5.71,13.7,1,3
16564.359,0.322,0.609,0.699,-18.86,7.81,14.44,1,3
16564.375,0.315,0.606,0.717,-20.45,9.46,15.96,1,3
16564.375,0.316,0.592,0.731,-21.24,10.65,17.7,1,3
16564.39,0.318,0.579,0.742,-21.0,11.54,19.65,1,3
16564.39,0.312,0.586,0.746,-19.99,12.36,21.33,1,3
16564.406,0.311,0.59,0.741,-19.29,13.25,23.22,1,3
16564.421,0.317,0.588,0.735,-19.17,14.01,25.21,1,3
16564.421,0.325,0.576,0.729,-18.71,14.92,26.95,1,3
16564.437,0.33,0.563,0.725,-19.56,16.05,27.56,1,3
16564.453,0.338,0.524,0.736,-21.3,18.77,26.7,1,3
16564.468,0.344,0.512,0.748,-21.0,20.29,25.97,1,3
16564.468,0.349,0.503,0.763,-20.05,21.33,24.69,1,3
16564.484,0.35,0.496,0.776,-18.46,21.7,22.31,1,3
16564.5,0.347,0.492,0.788,-16.94,21.12,19.59,1,3
16564.5,0.342,0.49,0.806,-16.45,19.65,16.82,1,3
16564.515,0.337,0.487,0.823,-14.95,17.18,14.25,1,3
16564.531,0.336,0.48,0.837,-11.38,14.34,12.09,1,3
16564.531,0.335,0.482,0.838,-6.71,11.69,10.47,1,3
16564.546,0.335,0.478,0.833,-1.46,9.89,8.79,1,3
16564.562,0.332,0.475,0.827,4.61,8.36,7.08,1,3
16564.562,0.327,0.49,0.816,14.56,4.18,4.73,1,3
16564.578,0.324,0.52,0.801,15.81,1.8,4.27,1,3
16564.593,0.318,0.547,0.782,15.08,0.89,5.04,1,3
16564.593,0.313,0.58,0.752,14.77,1.5,7.11,1,3
16564.609,0.311,0.585,0.738,15.53,2.59,10.22,1,3
16564.625,0.315,0.581,0.727,15.53,5.16,15.84,1,3
16564.64,0.32,0.579,0.722,14.34,5.92,17.98,1,3
16564.64,0.326,0.58,0.724,12.39,6.71,19.78,1,3
16564.656,0.327,0.579,0.721,10.32,7.63,20.6,1,3
16564.671,0.333,0.575,0.724,7.87,9.0,21.52,1,3
16564.671,0.339,0.563,0.726,6.26,10.71,22.22,1,3
16564.687,0.342,0.557,0.73,5.83,12.3,22.06,1,3
16564.703,0.342,0.553,0.733,4.76,13.31,21.21,1,3
16564.703,0.342,0.551,0.741,3.17,13.82,19.78,1,3
16564.718,0.339,0.553,0.745,1.95,14.62,18.46,1,3
16564.734,0.338,0.548,0.748,0.82,15.59,17.91,1,3
16564.734,0.338,0.544,0.75,0.58,16.6,18.16,1,3
16564.75,0.34,0.544,0.755,0.46,17.67,18.71,1,3
16564.75,0.34,0.541,0.763,0.4,18.62,18.68,1,3
16564.765,0.335,0.53,0.771,0.06,18.65,18.46,1,3
16564.781,0.338,0.516,0.774,0.12,18.22,18.13,1,3
16564.796,0.334,0.511,0.778,1.74,16.75,16.91,1,3
16564.812,0.332,0.509,0.776,2.32,16.45,16.54,1,3
16564.812,0.325,0.516,0.775,2.11,16.45,16.69,1,3
16564.828,0.328,0.525,0.768,1.83,17.18,17.24,1,3
16564.843,0.323,0.519,0.765,0.58,18.49,17.03,1,3
16564.843,0.312,0.513,0.772,-1.04,19.87,16.3,1,3
16564.859,0.313,0.512,0.772,-2.04,21.73,16.48,1,3
16564.859,0.305,0.505,0.776,-3.6,23.93,16.33,1,3
16564.875,0.299,0.489,0.786,-5.52,24.51,15.41,1,3
16564.89,0.3,0.482,0.787,-8.27,23.38,13.61,1,3
16564.89,0.294,0.478,0.797,-12.02,21.39,11.35,1,3
16564.906,0.295,0.477,0.807,-15.38,19.01,9.16,1,3
16564.921,0.292,0.481,0.814,-18.71,17.21,7.45,1,3
16564.937,0.287,0.478,0.821,-21.7,15.63,6.26,1,3
16564.937,0.283,0.486,0.826,-23.29,14.95,6.2,1,3
16564.953,0.282,0.485,0.825,-23.13,15.87,8.15,1,3
16564.968,0.294,0.46,0.824,-19.53,17.98,9.43,1,3
16564.968,0.292,0.453,0.825,-17.49,18.01,8.27,1,3
16564.984,0.293,0.45,0.83,-15.72,17.46,6.74,1,3
16565.0,0.288,0.46,0.836,-14.5,15.99,4.7,1,3
16565.0,0.287,0.475,0.833,-14.71,13.73,2.75,1,3
16565.015,0.28,0.478,0.832,-16.85,11.41,1.37,1,3
16565.031,0.279,0.487,0.823,-20.02,9.49,1.13,1,3
16565.031,0.281,0.49,0.815,-23.38,8.55,1.95,1,3
16565.046,0.293,0.473,0.823,-26.12,8.58,2.75,1,3
16565.062,0.296,0.471,0.817,-27.53,9.52,3.11,1,3
16565.062,0.294,0.468,0.804,-26.25,11.57,3.3,1,3
16565.078,0.289,0.462,0.799,-24.23,14.62,3.91,1,3
16565.093,0.285,0.455,0.812,-23.04,17.37,4.18,1,3
16565.093,0.282,0.46,0.824,-22.43,18.49,4.0,1,3
16565.109,0.255,0.475,0.848,-22.34,18.59,3.81,1,3
16565.125,0.247,0.461,0.906,-20.91,15.66,5.62,1,3
16565.14,0.268,0.464,0.874,-18.07,3.81,5.89,1,3
16565.14,0.283,0.446,0.843,-15.84,2.99,7.02,1,3
16565.156,0.29,0.443,0.823,-13.55,5.77,8.97,1,3
16565.171,0.29,0.443,0.818,-10.19,10.5,11.02,1,3
16565.187,0.286,0.446,0.826,-6.04,14.74,12.3,1,3
16565.187,0.273,0.461,0.834,-3.48,16.79,13.0,1,3
16565.203,0.258,0.477,0.837,-3.17,16.57,13.7,1,3
16565.203,0.249,0.49,0.829,-4.43,15.11,14.77,1,3
16565.218,0.243,0.508,0.816,-6.29,14.25,16.51,1,3
16565.234,0.239,0.511,0.82,-8.88,14.92,19.04,1,3
16565.234,0.225,0.497,0.836,-11.87,16.39,21.76,1,3
16565.25,0.215,0.477,0.859,-14.8,16.91,23.87,1,3
16565.25,0.208,0.453,0.868,-15.81,16.72,25.12,1,3
16565.265,0.197,0.427,0.873,-14.98,16.51,26.37,1,3
16565.281,0.197,0.404,0.873,-12.48,16.45,27.13,1,3
16565.281,0.206,0.39,0.861,-8.79,16.11,26.64,1,3
16565.312,0.216,0.371,0.845,-4.85,15.32,23.96,1,3
16565.312,0.216,0.363,0.842,-4.52,15.59,23.16,1,3
16565.328,0.219,0.349,0.861,-4.03,15.38,23.32,1,3
16565.343,0.222,0.366,0.882,-3.97,14.71,23.41,1,3
16565.343,0.214,0.381,0.907,-6.65,12.79,24.23,1,3
16565.359,0.235,0.361,0.914,-9.55,10.93,25.03,1,3
16565.359,0.238,0.341,0.933,-12.76,10.53,24.69,1,3
16565.375,0.263,0.313,0.943,-14.44,10.22,22.92,1,3
16565.39,0.276,0.27,0.963,-16.82,10.16,19.81,1,3
16565.406,0.3,0.215,0.972,-14.8,9.16,14.92,1,3
16565.406,0.314,0.189,0.971,-10.5,6.84,9.46,1,3
16565.421,0.316,0.191,0.954,-4.46,4.15,2.75,1,3
16565.421,0.308,0.201,0.942,1.22,2.53,-1.4,1,3
16565.437,0.303,0.243,0.937,4.97,1.95,-4.09,1,3
16565.453,0.277,0.288,0.941,9.22,2.26,-5.4,1,3
16565.453,0.254,0.339,0.947,11.87,1.01,-5.52,1,3
16565.468,0.218,0.412,0.99,7.75,-8.36,-3.97,1,3
16565.484,0.148,0.415,1.074,8.48,-18.37,-1.98,1,3
16565.5,0.163,0.382,1.073,13.92,-35.4,5.52,1,3
16565.5,0.183,0.33,1.106,11.38,-57.99,5.58,1,3
16565.515,0.235,0.289,1.086,11.02,-79.1,0.95,1,3
16565.531,0.308,0.287,0.972,10.35,-94.45,-7.45,1,3
16565.531,0.317,0.305,0.865,4.12,-101.54,-19.47,1,3
16565.546,0.316,0.308,0.811,-23.44,-105.26,-39.22,1,3
16565.562,0.334,0.283,0.78,-34.18,-102.91,-45.26,1,3
16565.562,0.356,0.3,0.753,-36.9,-94.61,-45.63,1,3
16565.578,0.37,0.336,0.719,-33.36,-81.0,-41.54,1,3
16565.593,0.405,0.421,0.687,-26.37,-64.12,-36.32,1,3
16565.593,0.405,0.417,0.676,-17.61,-46.57,-31.86,1,3
16565.609,0.418,0.453,0.666,-11.72,-28.81,-26.58,1,3
16565.609,0.448,0.518,0.638,-10.1,-10.71,-23.32,1,3
16565.625,0.451,0.546,0.636,-13.61,7.39,-23.04,1,3
16565.64,0.374,0.589,0.753,-26.49,33.23,-15.5,1,3
16565.656,0.336,0.59,0.805,-27.77,35.92,-6.81,1,3
16565.671,0.322,0.575,0.829,-25.67,33.08,3.75,1,3
16565.671,0.315,0.584,0.845,-21.52,28.29,14.37,1,3
16565.687,0.292,0.53,0.899,-18.62,22.52,24.38,1,3
16565.703,0.354,0.419,0.888,-12.73,14.31,31.1,1,3
16565.703,0.391,0.425,0.83,-1.5,13.12,35.22,1,3
16565.718,0.398,0.403,0.796,9.13,17.85,35.71,1,3
16565.734,0.388,0.36,0.803,15.99,24.54,35.16,1,3
16565.734,0.365,0.357,0.816,18.83,29.66,34.12,1,3
16565.75,0.343,0.364,0.85,15.9,31.4,33.69,1,3
16565.75,0.335,0.348,0.886,10.47,30.27,33.63,1,3
16565.765,0.34,0.327,0.898,5.31,28.2,33.81,1,3
16565.781,0.346,0.309,0.909,1.4,26.25,33.11,1,3
16565.781,0.345,0.282,0.915,0.03,24.9,30.64,1,3
16565.796,0.344,0.27,0.915,0.4,24.02,27.38,1,3
16565.812,0.314,0.267,0.937,3.39,20.6,19.01,1,3
16565.828,0.305,0.277,0.927,5.89,18.16,17.88,1,3
16565.843,0.313,0.277,0.922,8.09,16.17,17.37,1,3
16565.843,0.314,0.273,0.908,10.25,14.71,15.5,1,3
16565.859,0.314,0.288,0.899,10.8,13.4,12.94,1,3
16565.859,0.311,0.295,0.902,8.91,11.51,9.58,1,3
16565.875,0.301,0.299,0.898,5.74,8.85,5.65,1,3
16565.89,0.297,0.311,0.895,2.84,6.16,2.59,1,3
16565.89,0.286,0.325,0.884,1.86,5.77,1.68,1,3
16565.906,0.289,0.355,0.87,3.42,8.64,4.15,1,3
16565.921,0.288,0.379,0.873,6.9,13.61,8.48,1,3
16565.921,0.285,0.404,0.866,9.52,18.1,12.67,1,3
16565.937,0.29,0.407,0.87,9.16,19.93,14.86,1,3
16565.953,0.287,0.39,0.876,6.78,18.31,14.31,1,3
16565.953,0.289,0.374,0.873,4.27,15.32,13.18,1,3
16565.968,0.295,0.356,0.865,1.71,12.12,11.57,1,3
16565.984,0.297,0.329,0.883,-3.66,7.42,7.81,1,3
16566.0,0.293,0.32,0.896,-7.48,3.88,4.49,1,3
16566.0,0.287,0.308,0.897,-11.35,0.0,1.37,1,3
16566.015,0.298,0.304,0.893,-11.41,-0.85,1.01,1,3
16566.031,0.315,0.314,0.905,-6.29,1.25,2.78,1,3
16566.046,0.312,0.331,0.913,-1.65,2.84,2.53,1,3
16566.046,0.296,0.345,0.911,-1.01,2.23,0.95,1,3
16566.062,0.299,0.356,0.901,-1.95,0.85,0.64,1,3
16566.062,0.3,0.356,0.89,-2.84,0.12,0.37,1,3
16566.078,0.295,0.35,0.874,-4.43,-0.37,-0.09,1,3
16566.093,0.287,0.348,0.824,-9.49,-1.68,-0.79,1,3
16566.093,0.294,0.352,0.807,-22.22,-2.29,-1.68,1,3
16566.109,0.324,0.324,0.887,-37.87,-1.74,-4.58,1,3
16566.109,0.324,0.299,0.949,-50.48,-3.05,-10.68,1,3
16566.125,0.334,0.297,0.99,-59.91,-11.84,-18.49,1,3
16566.14,0.302,0.339,0.968,-63.75,-21.58,-24.93,1,3
16566.156,0.435,0.357,0.984,-37.14,-12.51,-13.43,1,3
16566.171,0.377,0.354,0.965,-14.53,5.46,-6.26,1,3
16566.171,0.318,0.37,0.908,-1.34,22.06,0.92,1,3
16566.187,0.25,0.43,0.853,1.28,33.11,10.01,1,3
16566.203,0.201,0.431,0.822,-3.14,31.01,21.06,1,3
16566.203,0.182,0.331,0.816,-17.21,14.34,26.22,1,3
16566.218,0.179,0.18,0.799,-26.0,-4.76,25.42,1,3
16566.218,0.217,0.117,0.788,-20.69,-14.74,23.71,1,3
16566.234,0.214,0.064,0.808,-4.43,-17.67,22.34,1,3
16566.25,0.245,0.044,0.809,11.47,-19.41,17.91,1,3
16566.25,0.281,0.122,0.833,20.57,-15.23,11.51,1,3
16566.265,0.283,0.24,0.941,24.72,-7.32,6.35,1,3
16566.281,0.274,0.276,1.042,21.49,-7.26,2.38,1,3
16566.281,0.308,0.387,1.081,7.45,-12.3,-2.23,1,3
16566.296,0.357,0.448,1.079,-5.74,-12.51,-2.53,1,3
16566.312,0.389,0.368,1.034,-6.84,-8.88,-2.47,1,3
16566.328,0.338,0.277,0.92,13.82,-1.22,-8.06,1,3
16566.343,0.29,0.308,0.874,21.91,-0.46,-10.01,1,3
16566.343,0.259,0.349,0.835,23.96,-2.47,-7.35,1,3
16566.359,0.245,0.357,0.793,20.33,-6.44,-3.42,1,3
16566.359,0.24,0.344,0.767,14.07,-11.26,0.73,1,3
16566.375,0.257,0.315,0.76,8.39,-13.55,4.88,1,3
16566.39,0.269,0.284,0.778,4.64,-12.82,8.67,1,3
16566.39,0.29,0.252,0.838,5.37,-10.47,11.69,1,3
16566.406,0.305,0.244,0.899,11.38,-8.79,13.18,1,3
16566.421,0.313,0.291,0.958,16.48,-8.06,14.95,1,3
16566.421,0.348,0.345,1.009,16.24,-9.06,16.97,1,3
16566.437,0.38,0.374,1.019,13.4,-10.16,16.39,1,3
16566.453,0.38,0.333,0.974,12.85,-10.04,12.27,1,3
16566.453,0.374,0.309,0.93,16.08,-9.03,9.34,1,3
16566.468,0.352,0.322,0.895,21.15,-7.02,8.33,1,3
16566.484,0.338,0.323,0.865,25.51,-5.37,9.16,1,3
16566.5,0.334,0.319,0.823,24.9,-4.61,11.47,1,3
16566.515,0.345,0.319,0.806,20.17,-4.55,10.5,1,3
16566.515,0.353,0.309,0.803,13.64,-4.09,8.45,1,3
16566.531,0.362,0.303,0.81,2.69,-0.34,5.98,1,3
16566.531,0.37,0.298,0.826,-0.82,0.76,3.85,1,3
16566.546,0.372,0.3,0.847,-3.72,1.28,2.53,1,3
16566.562,0.367,0.317,0.887,-6.65,0.49,2.75,1,3
16566.578,0.371,0.35,0.931,-7.29,-1.68,4.09,1,3
16566.578,0.386,0.33,0.917,-7.17,-2.78,4.88,1,3
16566.578,0.385,0.315,0.91,-5.43,-2.78,3.33,1,3
16566.593,0.375,0.302,0.89,-2.47,-2.59,1.31,1,3
16566.609,0.36,0.31,0.876,-0.15,-2.78,-0.12,1,3
16566.609,0.345,0.329,0.87,0.64,-3.2,0.09,1,3
16566.625,0.344,0.338,0.86,-0.67,-3.27,1.95,1,3
16566.64,0.346,0.325,0.86,-2.9,-3.42,2.96,1,3
16566.656,0.343,0.32,0.861,-4.15,-3.6,2.81,1,3
16566.656,0.34,0.324,0.87,-4.18,-3.14,3.42,1,3
16566.671,0.347,0.326,0.872,-3.54,-2.26,4.94,1,3
16566.671,0.35,0.326,0.873,-3.42,-1.8,4.94,1,3
16566.687,0.358,0.319,0.879,-4.76,-2.17,3.94,1,3
16566.703,0.372,0.308,0.877,-5.55,-2.29,2.17,1,3
16566.703,0.374,0.293,0.876,-4.76,-1.56,-0.18,1,3
16566.718,0.368,0.29,0.886,-3.27,-0.27,-2.56,1,3
16566.718,0.364,0.295,0.892,-1.86,0.98,-3.91,1,3
16566.734,0.365,0.288,0.898,-0.7,2.14,-4.58,1,3
16566.75,0.36,0.285,0.898,1.07,3.05,-6.23,1,3
16566.75,0.346,0.295,0.896,3.36,3.33,-7.93,1,3
16566.765,0.334,0.311,0.891,5.16,3.17,-8.18,1,3
16566.781,0.33,0.332,0.877,6.26,2.87,-7.35,1,3
16566.781,0.328,0.344,0.858,6.01,2.69,-6.38,1,3
16566.796,0.325,0.352,0.847,3.78,2.5,-5.22,1,3
16566.812,0.327,0.355,0.85,0.64,2.17,-4.03,1,3
16566.812,0.331,0.358,0.854,-2.17,1.8,-2.99,1,3
16566.828,0.332,0.352,0.858,-4.27,1.71,-1.98,1,3
16566.843,0.338,0.343,0.881,-6.13,1.71,-0.95,1,3
16566.843,0.33,0.333,0.901,-7.11,0.89,-0.92,1,3
16566.859,0.329,0.319,0.903,-6.81,-0.7,-0.79,1,3
16566.875,0.336,0.309,0.892,-6.16,-1.8,-0.31,1,3
16566.875,0.339,0.299,0.885,-5.49,-2.14,-0.85,1,3
16566.89,0.336,0.302,0.891,-4.73,-2.41,-1.65,1,3
16566.89,0.337,0.307,0.885,-3.91,-2.99,-2.01,1,3
16566.906,0.349,0.318,0.881,-4.7,-3.23,-2.29,1,3
16566.921,0.355,0.324,0.906,-6.56,-2.38,-3.63,1,3
16566.921,0.346,0.306,0.918,-8.15,-2.96,-5.31,1,3
16566.937,0.362,0.283,0.94,-9.46,-4.0,-6.99,1,3
16566.953,0.364,0.25,0.945,-8.97,-5.25,-9.37,1,3
16566.953,0.363,0.267,0.934,-9.28,-8.67,-12.88,1,3
16566.968,0.335,0.323,0.929,-8.39,-11.72,-15.59,1,3
16566.968,0.364,0.367,0.892,-6.07,-11.78,-14.31,1,3
16566.984,0.352,0.406,0.872,-3.78,-4.18,-9.52,1,3
16567.0,0.32,0.397,0.84,-1.83,6.29,-2.23,1,3
16567.015,0.306,0.396,0.807,-6.26,13.34,4.94,1,3
16567.015,0.269,0.385,0.75,-15.59,14.68,9.61,1,3
16567.031,0.268,0.356,0.738,-24.72,15.56,14.77,1,3
16567.031,0.268,0.303,0.845,-24.84,12.02,18.56,1,3
16567.046,0.242,0.202,0.86,-13.09,-0.7,20.29,1,3
16567.062,0.301,0.184,0.839,-1.16,-11.99,16.51,1,3
16567.062,0.293,0.144,0.883,15.75,-15.59,10.41,1,3
16567.078,0.283,0.168,0.894,33.23,-18.65,6.29,1,3
16567.093,0.296,0.358,0.92,34.18,-21.21,6.13,1,3
16567.093,0.282,0.463,0.988,17.33,-23.56,8.58,1,3
16567.109,0.319,0.487,1.049,5.74,-28.08,16.88,1,3
16567.109,0.425,0.413,1.009,-4.73,-32.93,24.11,1,3
16567.125,0.439,0.235,0.996,-10.44,-35.74,16.05,1,3
16567.14,0.446,0.17,0.98,5.13,-34.15,7.69,1,3
16567.156,0.45,0.185,0.917,30.06,-31.43,2.2,1,3
16567.156,0.456,0.215,0.858,49.1,-28.53,-5.1,1,3
16567.171,0.46,0.271,0.787,58.63,-23.59,-11.6,1,3
16567.171,0.451,0.348,0.714,56.98,-14.74,-15.17,1,3
16567.187,0.421,0.377,0.67,47.0,-4.27,-15.59,1,3
16567.203,0.389,0.382,0.671,31.01,4.91,-13.37,1,3
16567.203,0.372,0.396,0.722,12.79,10.13,-10.13,1,3
16567.218,0.354,0.398,0.751,-5.04,11.23,-6.99,1,3
16567.234,0.367,0.377,0.776,-19.44,11.9,-2.59,1,3
16567.234,0.376,0.341,0.794,-27.71,14.16,0.82,1,3
16567.25,0.288,0.352,0.924,-31.04,14.53,2.84,1,3
16567.25,0.362,0.279,1.086,-25.57,1.8,7.05,1,3
16567.265,0.441,0.307,0.99,-21.33,-12.15,2.66,1,3
16567.281,0.452,0.297,0.933,-15.66,-11.84,-1.92,1,3
16567.281,0.458,0.239,0.899,-2.59,-4.55,-5.43,1,3
16567.296,0.412,0.285,0.873,4.58,2.11,-9.64,1,3
16567.312,0.389,0.304,0.873,5.22,3.85,-12.88,1,3
16567.312,0.391,0.315,0.812,5.31,4.03,-14.16,1,3
16567.328,0.381,0.363,0.788,1.71,7.26,-13.92,1,3
16567.343,0.356,0.36,0.815,-2.14,10.32,-11.96,1,3
16567.343,0.342,0.349,0.829,-5.31,9.95,-9.74,1,3
16567.359,0.34,0.358,0.839,-8.3,8.24,-7.72,1,3
16567.359,0.348,0.356,0.855,-11.05,7.26,-6.62,1,3
16567.375,0.347,0.35,0.874,-12.36,6.65,-5.62,1,3
16567.39,0.355,0.331,0.88,-12.63,5.86,-4.97,1,3
16567.39,0.358,0.32,0.893,-12.39,5.43,-6.1,1,3
16567.406,0.35,0.314,0.91,-9.83,5.07,-7.42,1,3
16567.421,0.343,0.312,0.908,-6.29,4.18,-7.81,1,3
16567.421,0.341,0.307,0.901,-3.27,3.05,-7.75,1,3
16567.437,0.343,0.309,0.889,-1.22,1.74,-7.66,1,3
16567.453,0.35,0.32,0.871,-0.15,0.82,-7.66,1,3
16567.453,0.357,0.328,0.85,-0.12,1.01,-7.69,1,3
16567.468,0.364,0.343,0.842,-1.8,1.59,-8.48,1,3
16567.468,0.37,0.344,0.838,-4.3,2.69,-9.31,1,3
16567.484,0.365,0.341,0.846,-7.17,3.85,-10.47,1,3
16567.5,0.351,0.346,0.874,-8.39,4.97,-10.62,1,3
16567.5,0.327,0.342,0.898,-6.9,5.22,-9.0,1,3
16567.515,0.317,0.325,0.906,-3.81,0.98,-5.8,1,3
16567.531,0.322,0.305,0.904,-2.75,-1.34,-5.65,1,3
16567.531,0.323,0.305,0.891,-1.31,-2.47,-5.19,1,3
16567.546,0.329,0.322,0.872,-0.15,-2.66,-3.75,1,3
16567.562,0.339,0.345,0.871,-0.82,-2.96,-1.62,1,3
16567.562,0.351,0.358,0.872,-4.64,-3.91,0.85,1,3
16567.578,0.374,0.328,0.865,-8.15,-4.06,1.5,1,3
16567.578,0.372,0.297,0.881,-8.55,-2.99,-0.03,1,3
16567.593,0.362,0.282,0.894,-6.87,-2.96,-2.41,1,3
16567.609,0.352,0.28,0.896,-3.66,-2.78,-5.25,1,3
16567.609,0.339,0.28,0.9,0.82,-1.77,-7.35,1,3
16567.625,0.334,0.297,0.892,4.61,-1.53,-8.79,1,3
16567.64,0.325,0.327,0.892,6.2,-1.59,-8.64,1,3
16567.64,0.326,0.359,0.88,5.55,-2.47,-6.04,1,3
16567.656,0.338,0.374,0.861,3.3,-3.05,-2.84,1,3
16567.671,0.348,0.366,0.851,0.92,-2.93,-0.34,1,3
16567.671,0.355,0.343,0.845,-0.4,-2.75,0.31,1,3
16567.703,0.336,0.321,0.87,-0.34,-2.41,-1.8,1,3
16567.703,0.332,0.325,0.872,0.49,-2.75,-1.86,1,3
16567.718,0.331,0.336,0.878,0.55,-2.69,-0.55,1,3
16567.718,0.338,0.342,0.877,-0.24,-2.32,0.85,1,3
16567.734,0.339,0.343,0.88,-1.92,-1.62,1.83,1,3
16567.75,0.34,0.332,0.889,-3.75,-1.01,3.36,1,3
16567.75,0.348,0.315,0.893,-3.57,-0.34,5.13,1,3
16567.765,0.348,0.301,0.893,-1.4,0.21,6.41,1,3
16567.781,0.33,0.296,0.9,1.31,0.12,5.8,1,3
16567.781,0.299,0.312,0.906,4.36,-2.23,5.43,1,3
16567.796,0.262,0.332,0.884,6.44,-7.29,7.11,1,3
16567.812,0.285,0.31,0.81,0.92,-13.31,10.56,1,3
16567.812,0.281,0.311,1.066,-6.07,-21.79,10.8,1,3
16567.828,0.286,0.335,1.067,8.91,-37.14,13.03,1,3
16567.843,0.337,0.329,1.002,18.4,-49.56,17.18,1,3
16567.843,0.419,0.227,0.97,28.14,-54.57,16.33,1,3
16567.875,0.468,0.252,0.846,44.04,-51.27,1.65,1,3
16567.875,0.479,0.276,0.796,46.27,-44.92,-6.2,1,3
16567.89,0.465,0.319,0.765,46.78,-37.42,-11.66,1,3
16567.89,0.462,0.383,0.749,44.71,-30.7,-14.01,1,3
16567.906,0.452,0.415,0.73,39.16,-24.69,-15.2,1,3
16567.921,0.446,0.42,0.719,31.56,-19.32,-15.17,1,3
16567.921,0.431,0.437,0.726,23.59,-13.64,-13.4,1,3
16567.937,0.422,0.435,0.734,17.64,-8.61,-10.74,1,3
16567.953,0.408,0.431,0.751,11.14,-5.43,-8.97,1,3
16567.953,0.39,0.418,0.771,4.67,-4.06,-7.97,1,3
16567.968,0.39,0.397,0.795,-0.73,-4.24,-6.26,1,3
16567.984,0.395,0.388,0.819,-3.6,-4.85,-4.52,1,3
16567.984,0.401,0.385,0.832,-3.81,-5.86,-3.48,1,3
16568.0,0.409,0.389,0.848,-3.85,-7.2,-2.56,1,3
16568.0,0.416,0.385,0.853,-2.66,-8.76,-2.32,1,3
16568.015,0.418,0.374,0.848,-0.06,-10.19,-2.2,1,3
16568.046,0.43,0.372,0.822,3.72,-12.15,-3.33,1,3
16568.046,0.433,0.378,0.808,4.36,-11.32,-4.3,1,3
16568.062,0.426,0.389,0.793,4.97,-9.43,-4.85,1,3
16568.062,0.42,0.396,0.789,4.52,-7.11,-4.15,1,3
16568.078,0.428,0.399,0.787,3.08,-5.13,-2.93,1,3
16568.093,0.426,0.397,0.776,1.1,-2.84,-2.44,1,3
16568.093,0.427,0.395,0.774,-2.11,-0.46,-2.08,1,3
16568.109,0.431,0.392,0.774,-4.73,2.32,-1.95,1,3
16568.125,0.43,0.389,0.782,-6.65,5.19,-1.86,1,3
16568.125,0.428,0.392,0.793,-8.51,7.39,-2.23,1,3
16568.14,0.424,0.392,0.806,-10.01,8.67,-2.59,1,3
16568.14,0.424,0.391,0.8,-10.86,9.4,-2.93,1,3
16568.156,0.424,0.391,0.801,-12.24,10.8,-2.99,1,3
16568.171,0.423,0.388,0.804,-13.95,11.99,-3.23,1,3
16568.171,0.423,0.382,0.811,-15.9,12.63,-3.57,1,3
16568.187,0.417,0.373,0.809,-17.52,12.82,-4.27,1,3
16568.203,0.41,0.369,0.808,-21.15,11.84,-6.04,1,3
16568.218,0.406,0.365,0.81,-23.99,11.51,-7.29,1,3
16568.218,0.382,0.369,0.857,-25.94,10.59,-8.27,1,3
16568.234,0.385,0.359,0.902,-25.36,7.17,-8.58,1,3
16568.25,0.39,0.341,0.898,-22.89,2.69,-9.64,1,3
16568.25,0.404,0.318,0.878,-19.44,-0.12,-11.35,1,3
16568.265,0.403,0.308,0.878,-15.99,-0.49,-13.55,1,3
16568.281,0.381,0.318,0.897,-10.99,-0.55,-14.95,1,3
16568.281,0.397,0.321,0.873,-5.62,-1.37,-15.2,1,3
16568.296,0.414,0.324,0.833,-3.27,0.03,-16.11,1,3
16568.312,0.397,0.335,0.842,-2.56,2.56,-18.01,1,3
16568.312,0.385,0.358,0.837,-1.43,2.99,-18.8,1,3
16568.328,0.387,0.371,0.823,-3.33,1.89,-19.53,1,3
16568.343,0.378,0.374,0.827,-5.92,0.55,-19.62,1,3
16568.343,0.375,0.372,0.827,-8.7,-1.04,-19.07,1,3
16568.359,0.379,0.371,0.828,-12.12,-3.11,-19.14,1,3
16568.375,0.372,0.368,0.844,-14.89,-4.76,-17.37,1,3
16568.39,0.374,0.374,0.86,-13.76,-4.12,-14.07,1,3
16568.39,0.373,0.371,0.868,-11.9,-3.72,-11.6,1,3
16568.406,0.372,0.347,0.861,-10.9,-4.15,-11.14,1,3
16568.421,0.377,0.327,0.859,-10.59,-4.7,-11.38,1,3
16568.437,0.377,0.327,0.868,-9.58,-4.79,-11.72,1,3
16568.437,0.376,0.325,0.866,-7.84,-5.37,-12.42,1,3
16568.437,0.383,0.332,0.861,-7.39,-6.41,-13.92,1,3
16568.453,0.389,0.34,0.855,-7.02,-6.96,-16.14,1,3
16568.468,0.386,0.346,0.854,-6.53,-6.74,-18.04,1,3
16568.484,0.375,0.354,0.852,-5.13,-5.65,-18.01,1,3
16568.484,0.371,0.362,0.854,-3.36,-4.06,-15.56,1,3
16568.5,0.372,0.368,0.856,-2.11,-2.29,-11.57,1,3
16568.5,0.368,0.363,0.848,-3.45,-3.05,-11.23,1,3
16568.515,0.372,0.354,0.846,-4.36,-3.78,-11.63,1,3
16568.531,0.376,0.354,0.851,-4.97,-4.64,-12.15,1,3
16568.546,0.383,0.349,0.842,-6.93,-6.23,-13.15,1,3
16568.562,0.38,0.349,0.844,-8.21,-6.38,-13.67,1,3
16568.562,0.377,0.348,0.846,-9.09,-6.29,-13.52,1,3
16568.578,0.38,0.354,0.855,-8.94,-5.68,-12.57,1,3
16568.593,0.382,0.352,0.859,-8.0,-4.76,-11.69,1,3
16568.593,0.381,0.34,0.864,-6.78,-3.63,-11.14,1,3
16568.609,0.38,0.337,0.87,-4.85,-2.04,-10.65,1,3
16568.609,0.38,0.329,0.87,-2.75,-1.07,-10.77,1,3
16568.625,0.381,0.329,0.864,-1.1,-0.64,-12.05,1,3
16568.64,0.379,0.339,0.863,0.46,0.03,-13.34,1,3
16568.64,0.372,0.349,0.863,2.53,1.1,-13.79,1,3
16568.656,0.36,0.355,0.867,4.58,1.98,-13.18,1,3
16568.671,0.342,0.371,0.879,6.74,2.01,-10.8,1,3
16568.671,0.314,0.373,0.892,9.8,0.7,-6.9,1,3
16568.687,0.294,0.371,0.885,12.42,-2.66,-1.43,1,3
16568.703,0.274,0.375,0.894,13.95,-7.75,5.22,1,3
16568.718,0.262,0.401,0.982,22.77,-24.66,21.09,1,3
16568.734,0.309,0.392,0.915,28.47,-35.62,27.77,1,3
16568.734,0.362,0.359,0.859,29.94,-40.28,31.46,1,3
16568.75,0.412,0.336,0.813,32.07,-38.15,33.2,1,3
16568.765,0.444,0.348,0.776,33.27,-30.64,33.66,1,3
16568.765,0.461,0.365,0.764,32.59,-21.03,32.93,1,3
16568.781,0.464,0.377,0.76,30.73,-12.57,30.85,1,3
16568.781,0.458,0.391,0.763,28.78,-5.74,28.72,1,3
16568.796,0.451,0.404,0.773,26.31,-1.16,27.22,1,3
16568.812,0.448,0.405,0.789,23.16,0.95,26.0,1,3
16568.812,0.451,0.39,0.787,20.63,1.34,24.38,1,3
16568.828,0.462,0.377,0.781,17.73,0.89,21.45,1,3
16568.843,0.47,0.375,0.763,14.44,1.53,17.46,1,3
16568.843,0.464,0.377,0.754,10.5,3.54,13.64,1,3
16568.859,0.462,0.377,0.756,5.8,5.68,10.47,1,3
16568.859,0.467,0.375,0.759,1.13,7.9,7.39,1,3
16568.875,0.47,0.38,0.76,-3.54,9.95,3.57,1,3
16568.89,0.463,0.384,0.757,-8.61,11.66,-0.49,1,3
16568.906,0.451,0.385,0.768,-14.07,12.88,-4.06,1,3
16568.906,0.436,0.383,0.773,-19.29,13.34,-6.99,1,3
16568.921,0.424,0.382,0.775,-24.6,12.57,-9.31,1,3
16568.921,0.404,0.392,0.808,-29.82,10.96,-11.05,1,3
16568.937,0.373,0.394,0.875,-31.34,7.48,-11.41,1,3
16568.953,0.354,0.385,0.928,-29.33,0.85,-9.74,1,3
16568.953,0.391,0.337,0.911,-25.15,-7.23,-8.58,1,3
16568.968,0.413,0.308,0.866,-20.72,-10.53,-9.95,1,3
16568.968,0.425,0.297,0.862,-15.87,-9.25,-11.2,1,3
16568.984,0.427,0.314,0.857,-11.84,-7.69,-13.67,1,3
16569.0,0.428,0.338,0.851,-9.03,-6.68,-16.17,1,3
16569.0,0.434,0.351,0.838,-7.39,-6.32,-18.46,1,3
16569.015,0.432,0.35,0.822,-6.53,-5.68,-21.24,1,3
16569.031,0.427,0.358,0.809,-7.2,-5.34,-24.2,1,3
16569.031,0.422,0.363,0.815,-9.49,-5.13,-26.25,1,3
16569.046,0.408,0.369,0.824,-11.2,-4.7,-26.92,1,3
16569.062,0.399,0.379,0.828,-10.86,-3.36,-24.99,1,3
16569.062,0.388,0.391,0.821,-10.1,-1.37,-21.58,1,3
16569.078,0.385,0.385,0.831,-10.35,0.03,-18.56,1,3
16569.093,0.382,0.365,0.83,-11.17,0.46,-16.97,1,3
16569.093,0.38,0.355,0.82,-12.54,0.4,-15.87,1,3
16569.109,0.38,0.364,0.823,-14.07,0.98,-13.86,1,3
16569.109,0.379,0.375,0.833,-15.02,1.71,-11.72,1,3
16569.125,0.374,0.382,0.852,-15.75,1.65,-9.74,1,3
16569.14,0.371,0.384,0.856,-15.35,0.58,-7.23,1,3
16569.14,0.382,0.354,0.855,-14.28,-0.27,-4.76,1,3
16569.156,0.376,0.339,0.864,-12.6,-0.76,-3.48,1,3
16569.171,0.384,0.342,0.872,-10.96,-1.8,-2.29,1,3
16569.171,0.393,0.336,0.867,-8.61,-2.23,-1.62,1,3
16569.187,0.397,0.331,0.857,-5.98,-1.65,-1.28,1,3
16569.187,0.401,0.334,0.863,-3.85,-0.12,-1.07,1,3
16569.203,0.403,0.331,0.864,-1.65,1.01,-1.53,1,3
16569.218,0.396,0.331,0.86,0.21,1.56,-2.41,1,3
16569.234,0.394,0.344,0.856,1.92,1.56,-2.62,1,3
16569.234,0.396,0.347,0.848,2.75,1.13,-2.53,1,3
16569.25,0.388,0.35,0.846,3.08,0.73,-2.72,1,3
16569.25,0.383,0.358,0.843,2.81,0.0,-2.32,1,3
16569.265,0.385,0.362,0.838,1.65,-0.61,-1.22,1,3
16569.281,0.386,0.361,0.841,0.61,-0.67,-0.27,1,3
16569.281,0.386,0.357,0.85,0.06,-0.64,0.61,1,3
16569.296,0.387,0.349,0.852,-0.06,-0.76,1.28,1,3
16569.312,0.386,0.34,0.847,0.24,-1.19,1.62,1,3
16569.312,0.391,0.342,0.843,0.27,-1.59,1.89,1,3
16569.328,0.398,0.345,0.844,0.4,-1.43,1.86,1,3
16569.328,0.393,0.348,0.844,0.92,-1.16,1.71,1,3
16569.343,0.394,0.349,0.847,0.85,-1.25,1.68,1,3
16569.359,0.397,0.347,0.845,0.52,-1.37,1.4,1,3
16569.359,0.395,0.346,0.845,0.61,-1.04,0.85,1,3
16569.375,0.389,0.349,0.844,0.79,-0.49,1.04,1,3
16569.39,0.391,0.349,0.846,0.76,0.0,1.56,1,3
16569.39,0.392,0.345,0.847,0.73,0.09,1.59,1,3
16569.406,0.393,0.346,0.846,1.01,0.18,1.43,1,3
16569.421,0.395,0.348,0.843,0.98,0.12,1.37,1,3
16569.421,0.398,0.346,0.842,0.46,-0.12,0.89,1,3
16569.437,0.398,0.35,0.841,-0.12,0.06,0.4,1,3
16569.453,0.395,0.35,0.842,-0.46,0.18,0.18,1,3
16569.453,0.396,0.348,0.843,-0.89,0.27,0.34,1,3
16569.468,0.4,0.347,0.849,-1.22,0.27,0.15,1,3
16569.468,0.393,0.347,0.854,-1.01,0.21,-0.34,1,3
16569.484,0.389,0.344,0.855,0.34,-0.21,-0.27,1,3
16569.5,0.391,0.343,0.848,0.46,-0.34,-0.27,1,3
16569.515,0.394,0.345,0.847,0.46,-0.24,-0.4,1,3
16569.515,0.389,0.348,0.846,0.52,-0.37,-0.49,1,3
16569.531,0.39,0.348,0.844,0.21,-0.79,-0.55,1,3
16569.531,0.392,0.351,0.84,-0.27,-0.85,-0.64,1,3
16569.546,0.389,0.349,0.842,-0.58,-0.73,-0.52,1,3
16569.562,0.386,0.347,0.844,-0.82,-0.92,-0.31,1,3
16569.562,0.388,0.347,0.847,-1.16,-1.19,-0.21,1,3
16569.578,0.389,0.348,0.847,-0.85,-1.16,0.09,1,3
16569.593,0.383,0.347,0.853,-0.15,-0.58,0.73,1,3
16569.593,0.375,0.343,0.859,0.82,0.24,1.8,1,3
16569.609,0.361,0.35,0.868,2.26,0.27,3.2,1,3
16569.609,0.333,0.364,0.884,4.58,-0.67,5.71,1,3
16569.625,0.288,0.382,0.924,6.74,-6.29,10.13,1,3
16569.64,0.247,0.39,0.927,8.09,-19.01,16.05,1,3
16569.64,0.281,0.377,1.033,8.39,-37.05,23.59,1,3
16569.656,0.369,0.304,0.945,15.38,-56.58,25.61,1,3
16569.671,0.458,0.25,0.827,21.3,-61.8,24.41,1,3
16569.671,0.551,0.235,0.811,25.03,-53.19,20.02,1,3
16569.687,0.601,0.242,0.773,32.65,-38.12,11.87,1,3
16569.703,0.585,0.279,0.74,37.26,-21.03,2.14,1,3
16569.703,0.55,0.332,0.743,37.9,-7.05,-6.07,1,3
16569.718,0.519,0.383,0.739,35.25,1.28,-11.99,1,3
16569.718,0.489,0.406,0.716,30.7,6.68,-16.08,1,3
16569.734,0.455,0.426,0.717,24.72,10.5,-17.4,1,3
16569.75,0.425,0.448,0.735,17.91,12.54,-16.39,1,3
16569.75,0.404,0.454,0.744,11.08,12.48,-13.89,1,3
16569.765,0.376,0.462,0.756,3.94,11.81,-10.35,1,3
16569.781,0.364,0.462,0.785,-2.78,9.19,-5.62,1,3
16569.781,0.375,0.445,0.803,-8.27,4.7,-1.59,1,3
16569.796,0.387,0.414,0.802,-11.35,1.62,1.59,1,3
16569.812,0.399,0.392,0.812,-13.06,0.46,4.39,1,3
16569.812,0.414,0.381,0.827,-13.55,0.0,6.32,1,3
16569.828,0.426,0.363,0.829,-12.73,-0.46,6.96,1,3
16569.843,0.434,0.35,0.832,-11.38,0.0,6.65,1,3
16569.843,0.438,0.351,0.84,-9.22,1.28,5.68,1,3
16569.859,0.433,0.349,0.848,-6.47,2.08,4.49,1,3
16569.875,0.429,0.35,0.85,-3.69,2.32,3.11,1,3
16569.875,0.426,0.354,0.845,-0.79,2.44,1.92,1,3
16569.89,0.427,0.357,0.837,1.43,2.75,0.58,1,3
16569.89,0.421,0.361,0.828,3.2,3.2,-0.52,1,3
16569.906,0.412,0.374,0.828,4.0,3.27,-0.82,1,3
16569.921,0.409,0.386,0.833,4.09,2.2,-0.06,1,3
16569.921,0.411,0.391,0.827,4.49,0.4,1.1,1,3
16569.937,0.415,0.392,0.817,4.88,-1.04,2.14,1,3
16569.937,0.423,0.387,0.811,4.76,-2.14,2.96,1,3
16569.953,0.43,0.38,0.803,4.3,-2.93,3.48,1,3
16569.968,0.437,0.378,0.795,3.42,-2.62,3.23,1,3
16569.968,0.445,0.378,0.791,1.92,-1.86,2.11,1,3
16569.984,0.449,0.379,0.792,0.0,-0.7,0.21,1,3
16570.0,0.444,0.38,0.793,-1.77,0.73,-1.5,1,3
16570.0,0.437,0.377,0.796,-3.45,2.08,-2.66,1,3
16570.015,0.433,0.374,0.802,-4.94,3.11,-3.88,1,3
16570.031,0.428,0.37,0.807,-6.32,3.78,-4.82,1,3
16570.031,0.42,0.373,0.817,-7.05,4.73,-5.31,1,3
16570.046,0.41,0.381,0.831,-6.93,5.31,-4.7,1,3
16570.062,0.404,0.385,0.833,-6.2,5.22,-3.57,1,3
16570.062,0.405,0.376,0.833,-5.65,4.58,-2.84,1,3
16570.078,0.409,0.369,0.834,-5.43,3.72,-2.35,1,3
16570.093,0.414,0.366,0.832,-5.22,3.08,-2.2,1,3
16570.093,0.425,0.368,0.824,-4.55,3.23,-2.56,1,3
16570.109,0.427,0.378,0.808,-3.85,4.52,-2.78,1,3
16570.109,0.425,0.382,0.798,-4.03,6.44,-2.72,1,3
16570.125,0.422,0.388,0.791,-5.95,8.36,-2.96,1,3
16570.14,0.419,0.387,0.8,-8.91,10.38,-3.05,1,3
16570.14,0.413,0.392,0.789,-11.69,12.24,-2.75,1,3
16570.156,0.409,0.402,0.772,-14.68,14.07,-1.83,1,3
16570.171,0.397,0.404,0.759,-19.99,16.66,-1.13,1,3
16570.171,0.346,0.418,0.83,-27.31,18.13,0.82,1,3
16570.187,0.342,0.385,0.902,-31.62,12.42,3.85,1,3
16570.203,0.374,0.345,0.892,-33.05,3.85,5.16,1,3
16570.203,0.389,0.326,0.883,-32.2,0.03,5.71,1,3
16570.218,0.398,0.317,0.885,-29.63,-1.07,5.86,1,3
16570.218,0.431,0.307,0.9,-26.89,-1.71,4.82,1,3
16570.234,0.479,0.314,0.911,-24.17,-0.4,1.16,1,3
16570.25,0.472,0.32,0.88,-19.01,5.37,-3.57,1,3
16570.265,0.463,0.322,0.852,-14.5,13.21,-7.69,1,3
16570.265,0.437,0.3,0.869,-17.33,20.6,-12.63,1,3
16570.281,0.416,0.208,0.923,-16.14,27.53,-16.85,1,3
16570.281,0.37,0.212,0.926,0.4,32.53,-14.31,1,3
16570.296,0.368,0.246,0.872,16.72,33.63,-12.39,1,3
16570.312,0.332,0.284,0.856,24.6,35.55,-11.96,1,3
16570.312,0.304,0.28,0.851,29.15,36.29,-9.67,1,3
16570.328,0.29,0.322,0.83,36.19,33.6,-6.29,1,3
16570.328,0.275,0.406,0.819,39.67,26.31,-1.34,1,3
16570.343,0.259,0.441,0.846,32.59,13.98,2.32,1,3
16570.359,0.241,0.424,0.871,22.74,-1.13,4.82,1,3
16570.359,0.298,0.398,0.819,13.55,-14.8,8.12,1,3
16570.375,0.313,0.415,0.821,3.63,-21.55,10.53,1,3
16570.39,0.314,0.383,0.822,-2.32,-24.63,13.79,1,3
16570.406,0.324,0.387,0.85,-7.57,-26.89,16.6,1,3
16570.406,0.331,0.4,0.876,-10.28,-29.45,19.26,1,3
16570.421,0.33,0.389,0.899,-12.39,-32.9,21.61,1,3
16570.421,0.357,0.354,0.907,-12.48,-37.39,23.07,1,3
16570.437,0.434,0.289,0.934,-10.53,-41.51,22.19,1,3
16570.453,0.506,0.241,0.875,-4.36,-40.44,15.99,1,3
16570.453,0.52,0.251,0.845,4.88,-30.52,9.16,1,3
16570.468,0.524,0.266,0.851,19.23,-11.05,-4.33,1,3
16570.484,0.499,0.303,0.83,21.3,-5.22,-9.34,1,3
16570.484,0.479,0.343,0.801,21.49,0.98,-11.38,1,3
16570.5,0.467,0.363,0.777,19.71,7.35,-11.96,1,3
16570.5,0.411,0.393,0.784,14.98,11.02,-12.24,1,3
16570.515,0.379,0.401,0.797,9.43,11.23,-12.12,1,3
16570.531,0.361,0.41,0.812,3.85,8.64,-10.71,1,3
16570.546,0.361,0.411,0.826,-1.74,3.97,-9.13,1,3
16570.546,0.364,0.394,0.826,-5.52,-0.34,-7.39,1,3
16570.562,0.37,0.375,0.831,-7.9,-3.14,-5.13,1,3
16570.562,0.38,0.366,0.837,-9.67,-5.22,-3.3,1,3
16570.578,0.392,0.359,0.833,-11.32,-7.14,-2.87,1,3
16570.593,0.405,0.355,0.832,-12.94,-7.93,-3.66,1,3
16570.593,0.417,0.352,0.834,-12.79,-6.96,-5.16,1,3
16570.609,0.417,0.355,0.825,-11.96,-4.39,-6.41,1,3
16570.609,0.418,0.363,0.82,-11.69,-0.7,-7.75,1,3
16570.625,0.418,0.368,0.814,-12.54,2.56,-9.0,1,3
16570.64,0.416,0.356,0.812,-14.5,5.22,-10.56,1,3
16570.64,0.411,0.348,0.813,-16.75,7.39,-12.05,1,3
16570.656,0.404,0.354,0.821,-18.59,9.49,-12.67,1,3
16570.671,0.391,0.356,0.832,-19.56,11.26,-12.18,1,3
16570.671,0.389,0.357,0.846,-20.17,12.42,-11.44,1,3
16570.687,0.377,0.356,0.859,-20.08,13.12,-10.53,1,3
16570.703,0.374,0.35,0.869,-19.17,13.31,-9.43,1,3
16570.703,0.373,0.35,0.87,-18.07,13.34,-8.36,1,3
16570.718,0.347,0.336,0.876,-16.3,13.67,-6.56,1,3
16570.718,0.295,0.348,0.934,-14.04,12.36,-2.84,1,3
16570.734,0.322,0.317,0.992,-9.19,5.13,2.9,1,3
16570.75,0.358,0.265,0.93,-3.48,-3.54,3.3,1,3
16570.765,0.374,0.263,0.906,3.42,-5.62,2.78,1,3
16570.765,0.38,0.287,0.899,10.8,-4.88,2.56,1,3
16570.781,0.372,0.316,0.883,15.56,-3.72,2.17,1,3
16570.781,0.363,0.344,0.882,17.91,-2.72,2.69,1,3
16570.796,0.356,0.363,0.88,19.65,-3.3,3.27,1,3
16570.812,0.35,0.363,0.864,21.0,-4.94,4.52,1,3
16570.812,0.354,0.357,0.846,20.63,-6.38,6.29,1,3
16570.828,0.368,0.355,0.831,19.01,-7.02,7.87,1,3
16570.828,0.378,0.36,0.823,16.79,-6.5,8.64,1,3
16570.843,0.387,0.37,0.813,14.71,-5.34,9.4,1,3
16570.859,0.398,0.376,0.808,11.87,-3.51,9.86,1,3
16570.859,0.403,0.37,0.811,8.7,-1.56,9.06,1,3
16570.875,0.398,0.366,0.819,6.13,-0.49,7.97,1,3
16570.89,0.397,0.362,0.834,4.21,-0.06,7.11,1,3
16570.89,0.395,0.356,0.846,3.51,-0.06,6.5,1,3
16570.906,0.389,0.35,0.853,3.72,-0.55,6.13,1,3
16570.921,0.387,0.353,0.861,4.43,-1.28,6.16,1,3
16570.921,0.388,0.348,0.861,5.92,-2.14,5.95,1,3
16570.937,0.389,0.34,0.851,6.9,-3.14,5.22,1,3
16570.953,0.391,0.342,0.843,6.84,-3.91,4.12,1,3
16570.953,0.396,0.351,0.838,6.1,-3.94,2.9,1,3
16570.968,0.393,0.359,0.835,5.16,-3.69,2.2,1,3
16570.968,0.392,0.365,0.831,4.52,-3.17,2.11,1,3
16570.984,0.391,0.366,0.831,3.81,-2.2,2.41,1,3
16571.0,0.39,0.361,0.835,2.81,-1.43,2.96,1,3
16571.0,0.391,0.357,0.839,2.44,-0.85,3.2,1,3
16571.015,0.392,0.352,0.841,2.17,-0.89,2.78,1,3
16571.031,0.392,0.351,0.839,1.98,-1.13,1.98,1,3
16571.031,0.391,0.362,0.843,2.32,-1.01,1.71,1,3
16571.046,0.39,0.366,0.845,3.11,-0.52,1.68,1,3
16571.062,0.386,0.365,0.844,3.75,-0.52,1.77,1,3
16571.062,0.383,0.37,0.844,4.18,-0.79,2.35,1,3
16571.078,0.382,0.371,0.845,4.88,-1.04,3.75,1,3
16571.093,0.384,0.365,0.843,5.4,-1.13,5.16,1,3
16571.093,0.387,0.362,0.842,5.49,-1.43,6.04,1,3
16571.109,0.395,0.363,0.84,5.13,-1.74,6.29,1,3
16571.109,0.399,0.358,0.837,4.94,-1.31,5.86,1,3
16571.125,0.4,0.353,0.833,4.58,-1.01,5.13,1,3
16571.14,0.403,0.356,0.838,3.81,-0.98,4.09,1,3
16571.14,0.4,0.357,0.843,3.72,-1.04,3.11,1,3
16571.156,0.397,0.361,0.843,4.21,-1.28,3.08,1,3
16571.171,0.399,0.36,0.844,4.76,-1.92,2.62,1,3
16571.187,0.398,0.361,0.837,5.22,-2.44,2.01,1,3
16571.187,0.395,0.365,0.836,5.62,-2.17,2.26,1,3
16571.203,0.397,0.37,0.838,6.01,-1.77,2.66,1,3
16571.203,0.397,0.369,0.836,6.59,-1.92,2.53,1,3
16571.218,0.394,0.368,0.83,6.35,-2.26,1.74,1,3
16571.218,0.392,0.376,0.827,6.01,-2.32,1.31,1,3
16571.234,0.392,0.384,0.824,5.52,-2.08,1.56,1,3
16571.25,0.395,0.379,0.82,4.73,-1.83,1.92,1,3
16571.25,0.399,0.375,0.816,3.42,-1.22,1.98,1,3
16571.265,0.4,0.376,0.818,1.56,-0.79,1.59,1,3
16571.281,0.402,0.375,0.82,-0.12,-0.58,1.19,1,3
16571.281,0.402,0.374,0.825,-1.25,-0.61,0.79,1,3
16571.296,0.401,0.373,0.834,-2.01,-0.95,0.58,1,3
16571.312,0.401,0.368,0.834,-2.29,-1.34,0.34,1,3
16571.312,0.403,0.363,0.838,-2.23,-1.46,0.12,1,3
16571.328,0.4,0.357,0.839,-2.04,-1.56,-0.43,1,3
16571.328,0.401,0.362,0.834,-1.92,-1.83,-0.82,1,3
16571.343,0.402,0.372,0.836,-1.59,-1.16,-0.79,1,3
16571.359,0.4,0.368,0.84,-0.89,-0.52,-0.52,1,3
16571.359,0.4,0.364,0.837,-0.46,-0.64,-0.82,1,3
16571.375,0.397,0.367,0.833,-0.27,-0.92,-1.31,1,3
16571.39,0.395,0.374,0.831,-0.09,-0.82,-1.19,1,3
16571.406,0.393,0.375,0.834,-0.03,-0.67,-1.01,1,3
16571.406,0.392,0.374,0.832,-0.09,-0.89,-0.98,1,3
16571.421,0.392,0.376,0.829,-0.37,-1.37,-0.79,1,3
16571.421,0.393,0.376,0.832,-0.85,-1.53,-0.46,1,3
16571.437,0.395,0.374,0.834,-1.04,-1.34,0.09,1,3
16571.453,0.396,0.366,0.834,-1.68,-1.4,-0.18,1,3
16571.453,0.396,0.365,0.833,-1.62,-1.16,0.03,1,3
16571.468,0.399,0.37,0.837,-1.04,-0.7,0.49,1,3
16571.484,0.4,0.37,0.839,-1.04,-0.73,0.52,1,3
16571.484,0.4,0.36,0.838,-0.89,-1.13,0.34,1,3
16571.5,0.403,0.361,0.836,-0.34,-1.34,0.31,1,3
16571.5,0.403,0.362,0.838,0.09,-1.07,0.15,1,3
16571.515,0.401,0.366,0.837,0.46,-0.92,0.0,1,3
16571.531,0.397,0.376,0.838,0.92,-0.7,0.06,1,3
16571.531,0.397,0.374,0.835,1.22,-0.37,0.52,1,3
16571.546,0.397,0.362,0.832,1.53,-0.31,0.67,1,3
16571.562,0.396,0.362,0.829,1.22,-0.55,0.31,1,3
16571.562,0.395,0.374,0.829,0.52,-0.7,0.06,1,3
16571.578,0.393,0.38,0.832,0.12,-0.95,0.18,1,3
16571.593,0.393,0.375,0.829,-0.09,-1.13,0.31,1,3
16571.593,0.394,0.37,0.83,-0.64,-1.25,0.21,1,3
16571.609,0.395,0.369,0.834,-1.07,-1.16,0.31,1,3
16571.609,0.393,0.369,0.841,-1.13,-0.92,0.73,1,3
16571.625,0.393,0.367,0.843,-0.43,-1.01,1.13,1,3
16571.64,0.396,0.361,0.84,0.52,-1.16,1.37,1,3
16571.64,0.399,0.358,0.838,0.98,-1.07,1.53,1,3
16571.656,0.401,0.362,0.838,1.19,-1.01,1.46,1,3
16571.671,0.402,0.369,0.837,1.68,-0.89,1.37,1,3
16571.671,0.402,0.369,0.835,2.01,-0.95,1.07,1,3
16571.687,0.4,0.367,0.834,2.08,-1.25,0.79,1,3
16571.703,0.399,0.37,0.834,1.95,-1.56,0.64,1,3
16571.703,0.399,0.373,0.833,2.08,-1.77,0.85,1,3
16571.718,0.398,0.367,0.834,2.17,-1.92,0.95,1,3
16571.718,0.396,0.366,0.835,2.04,-2.32,0.85,1,3
16571.734,0.398,0.371,0.834,1.89,-2.84,0.7,1,3
16571.75,0.4,0.371,0.831,2.14,-2.93,0.76,1,3
16571.75,0.398,0.375,0.834,2.01,-2.56,1.04,1,3
16571.765,0.396,0.372,0.837,2.23,-2.47,1.22,1,3
16571.781,0.398,0.365,0.832,2.44,-2.87,1.07,1,3
16571.781,0.402,0.368,0.83,2.2,-3.33,0.79,1,3
16571.796,0.402,0.371,0.833,2.04,-3.48,0.52,1,3
16571.812,0.4,0.37,0.832,1.83,-4.0,0.31,1,3
16571.812,0.4,0.372,0.829,1.5,-4.55,0.21,1,3
16571.828,0.402,0.376,0.828,0.98,-4.82,0.52,1,3
16571.828,0.403,0.372,0.827,0.98,-5.01,0.73,1,3
16571.843,0.403,0.374,0.83,0.95,-4.7,0.98,1,3
16571.859,0.404,0.374,0.838,1.31,-4.21,1.46,1,3
16571.859,0.403,0.367,0.844,2.47,-4.12,1.98,1,3
16571.875,0.403,0.365,0.852,4.0,-4.67,2.53,1,3
16571.89,0.401,0.364,0.854,5.98,-5.58,2.75,1,3
16571.89,0.403,0.365,0.844,8.12,-6.71,2.9,1,3
16571.906,0.402,0.371,0.831,9.28,-7.6,3.02,1,3
16571.921,0.405,0.378,0.827,9.4,-8.09,3.48,1,3
16571.937,0.409,0.382,0.812,9.37,-7.87,4.21,1,3
16571.937,0.416,0.38,0.802,8.51,-6.68,4.82,1,3
16571.937,0.42,0.382,0.804,7.51,-4.73,5.22,1,3
16571.953,0.421,0.386,0.806,6.74,-2.87,5.01,1,3
16571.968,0.419,0.381,0.808,5.8,-1.65,4.85,1,3
16571.968,0.422,0.381,0.807,5.04,-0.64,4.88,1,3
16571.984,0.425,0.381,0.81,3.91,0.27,4.27,1,3
16572.0,0.423,0.375,0.813,2.99,0.49,3.3,1,3
16572.015,0.422,0.381,0.821,2.62,0.4,2.69,1,3
16572.015,0.419,0.387,0.825,3.17,0.82,2.69,1,3
16572.031,0.418,0.38,0.824,4.12,1.16,2.84,1,3
16572.031,0.412,0.376,0.827,4.97,1.25,3.14,1,3
16572.046,0.412,0.373,0.828,5.52,1.07,3.33,1,3
16572.062,0.413,0.377,0.821,5.92,0.52,3.17,1,3
16572.062,0.417,0.383,0.809,5.65,0.0,2.93,1,3
16572.078,0.42,0.388,0.802,4.21,-0.18,2.26,1,3
16572.093,0.418,0.391,0.797,2.29,-0.06,1.5,1,3
16572.093,0.419,0.391,0.798,0.03,-0.37,0.85,1,3
16572.109,0.416,0.395,0.796,-2.26,-0.7,0.4,1,3
16572.125,0.416,0.394,0.803,-4.24,-0.85,0.21,1,3
16572.125,0.419,0.392,0.808,-5.89,-0.61,0.49,1,3
16572.14,0.424,0.383,0.814,-6.99,-0.12,0.34,1,3
16572.14,0.422,0.374,0.816,-7.39,0.7,-0.49,1,3
16572.156,0.416,0.377,0.82,-7.69,1.37,-1.01,1,3
16572.171,0.417,0.395,0.828,-8.09,1.83,-0.46,1,3
16572.171,0.406,0.408,0.873,-8.55,1.19,0.12,1,3
16572.187,0.388,0.4,0.877,-7.35,-3.6,1.01,1,3
16572.203,0.398,0.395,0.83,-8.76,-10.38,1.43,1,3
16572.203,0.43,0.385,0.793,-12.24,-14.95,1.13,1,3
16572.218,0.468,0.383,0.767,-17.21,-14.56,-1.25,1,3
16572.234,0.462,0.351,0.855,-28.47,-10.1,-7.66,1,3
16572.234,0.432,0.25,0.91,-31.19,-7.02,-13.37,1,3
16572.25,0.444,0.258,0.9,-22.16,-2.9,-15.02,1,3
16572.25,0.435,0.283,0.902,-8.48,2.08,-16.42,1,3
16572.265,0.446,0.276,0.852,7.08,8.09,-15.56,1,3
16572.281,0.405,0.299,0.816,21.09,16.45,-14.34,1,3
16572.281,0.384,0.357,0.813,28.44,20.26,-12.57,1,3
16572.296,0.353,0.382,0.777,34.39,22.16,-8.48,1,3
16572.312,0.326,0.434,0.718,36.19,22.64,-2.72,1,3
16572.328,0.318,0.507,0.733,27.44,16.54,2.66,1,3
16572.328,0.311,0.543,0.794,14.74,5.37,7.63,1,3
16572.343,0.381,0.501,0.742,2.87,-4.61,12.05,1,3
16572.343,0.374,0.45,0.757,-9.98,-7.14,13.28,1,3
16572.359,0.381,0.383,0.763,-18.74,-8.21,15.38,1,3
16572.375,0.41,0.37,0.777,-26.12,-7.87,16.27,1,3
16572.375,0.418,0.366,0.829,-29.11,-5.86,15.93,1,3
16572.39,0.428,0.37,0.856,-28.53,-5.16,15.9,1,3
16572.39,0.448,0.355,0.858,-28.08,-5.89,14.37,1,3
16572.406,0.476,0.317,0.878,-26.22,-5.83,10.86,1,3
16572.421,0.475,0.29,0.902,-20.02,-4.94,6.44,1,3
16572.421,0.472,0.279,0.914,-12.02,-4.61,1.98,1,3
16572.437,0.475,0.269,0.913,5.25,-3.11,-7.2,1,3
16572.453,0.463,0.268,0.893,13.64,-0.92,-10.28,1,3
16572.453,0.439,0.296,0.869,18.37,0.0,-12.27,1,3
16572.468,0.401,0.367,0.833,19.96,-0.09,-13.21,1,3
16572.468,0.384,0.401,0.807,18.95,-0.34,-12.12,1,3
16572.484,0.375,0.425,0.786,15.72,-0.89,-9.64,1,3
16572.5,0.37,0.433,0.776,10.44,-2.17,-6.78,1,3
16572.5,0.368,0.438,0.773,3.63,-3.85,-3.94,1,3
16572.515,0.375,0.436,0.777,-3.17,-5.43,-0.52,1,3
16572.531,0.387,0.417,0.784,-9.03,-6.47,2.69,1,3
16572.531,0.396,0.387,0.804,-13.76,-7.08,4.52,1,3
16572.546,0.41,0.359,0.828,-16.27,-7.6,5.19,1,3
16572.562,0.424,0.347,0.846,-15.66,-7.29,5.46,1,3
16572.562,0.437,0.337,0.856,-12.82,-6.2,5.16,1,3
16572.578,0.443,0.321,0.864,-9.0,-5.04,3.66,1,3
16572.593,0.443,0.312,0.859,-4.3,-3.69,1.59,1,3
16572.593,0.441,0.325,0.849,-0.31,-2.17,0.15,1,3
16572.609,0.435,0.344,0.844,2.29,-0.73,-0.52,1,3
16572.609,0.431,0.349,0.833,3.66,0.09,-1.07,1,3
16572.625,0.423,0.35,0.824,3.97,0.31,-1.46,1,3
16572.64,0.414,0.36,0.825,4.15,0.15,-1.62,1,3
16572.64,0.41,0.373,0.822,3.39,-0.7,-1.31,1,3
16572.656,0.41,0.375,0.819,1.83,-1.37,-1.28,1,3
16572.671,0.407,0.37,0.82,1.07,-1.43,-1.31,1,3
16572.671,0.404,0.37,0.822,0.82,-1.31,-0.79,1,3
16572.687,0.407,0.37,0.83,0.37,-1.34,-0.03,1,3
16572.703,0.412,0.369,0.827,0.06,-1.56,0.09,1,3
16572.703,0.415,0.361,0.828,0.43,-1.13,0.15,1,3
16572.718,0.416,0.358,0.831,1.13,-0.67,0.21,1,3
16572.718,0.421,0.357,0.832,1.07,-0.95,0.24,1,3
16572.734,0.426,0.36,0.823,0.58,-1.31,-0.18,1,3
16572.75,0.429,0.361,0.821,0.27,-1.34,-0.43,1,3
16572.75,0.427,0.365,0.824,-0.21,-1.34,-0.52,1,3
16572.765,0.427,0.363,0.824,-0.92,-1.65,-0.67,1,3
16572.781,0.427,0.358,0.821,-1.68,-2.04,-1.34,1,3
16572.781,0.423,0.357,0.826,-2.14,-2.11,-1.86,1,3
16572.796,0.416,0.357,0.834,-1.53,-1.62,-1.65,1,3
16572.812,0.411,0.361,0.841,-0.95,-1.43,-1.13,1,3
16572.812,0.413,0.357,0.836,-0.43,-2.01,-1.1,1,3
16572.828,0.416,0.356,0.826,0.03,-2.01,-1.07,1,3
16572.828,0.414,0.361,0.829,0.61,-1.16,-0.73,1,3
16572.843,0.414,0.362,0.832,1.19,-0.49,-0.52,1,3
16572.859,0.416,0.363,0.828,1.4,-0.58,-0.61,1,3
16572.859,0.418,0.364,0.825,1.43,-0.43,-0.85,1,3
16572.875,0.419,0.365,0.822,1.56,-0.03,-0.89,1,3
16572.89,0.417,0.36,0.828,1.5,0.09,-0.76,1,3
16572.906,0.413,0.364,0.833,1.19,-0.34,-0.64,1,3
16572.906,0.42,0.369,0.825,1.16,-0.89,-0.27,1,3
16572.921,0.423,0.363,0.821,1.19,-0.82,-0.37,1,3
16572.921,0.423,0.36,0.823,0.7,-0.61,-0.7,1,3
16572.937,0.424,0.361,0.826,0.37,-0.43,-0.89,1,3
16572.953,0.422,0.358,0.829,0.76,0.06,-0.85,1,3
16572.953,0.419,0.355,0.829,1.1,0.4,-0.98,1,3
16572.968,0.417,0.356,0.829,1.53,0.58,-1.13,1,3
16572.968,0.415,0.36,0.832,1.86,0.52,-1.13,1,3
16572.984,0.414,0.364,0.827,1.86,-0.06,-1.31,1,3
16573.0,0.419,0.365,0.82,1.43,-0.7,-1.62,1,3
16573.0,0.419,0.369,0.821,0.89,-0.61,-1.98,1,3
16573.015,0.417,0.369,0.823,0.58,-0.27,-2.26,1,3
16573.031,0.416,0.366,0.824,0.09,-0.15,-2.44,1,3
16573.031,0.415,0.367,0.825,-0.52,-0.21,-2.69,1,3
16573.046,0.415,0.369,0.826,-0.58,-0.09,-2.81,1,3
16573.062,0.418,0.367,0.824,-0.58,-0.09,-2.75,1,3
16573.062,0.412,0.365,0.828,-0.95,-0.4,-2.93,1,3
16573.078,0.412,0.367,0.826,-1.25,-0.79,-2.96,1,3
16573.093,0.416,0.363,0.824,-1.5,-1.19,-2.93,1,3
16573.093,0.417,0.365,0.828,-1.4,-1.28,-2.87,1,3
16573.109,0.417,0.367,0.828,-1.16,-1.07,-2.81,1,3
16573.125,0.419,0.36,0.827,-1.34,-1.16,-3.33,1,3
16573.125,0.417,0.349,0.82,-1.22,-1.1,-4.43,1,3
16573.14,0.419,0.309,0.805,1.37,-0.18,-6.65,1,3
16573.14,0.403,0.409,0.871,-1.07,0.73,-6.07,1,3
16573.156,0.41,0.441,0.857,-3.72,-1.62,-4.06,1,3
16573.171,0.425,0.342,0.792,-2.75,-2.93,-4.55,1,3
16573.171,0.421,0.3,0.783,0.4,-0.03,-5.68,1,3
16573.187,0.409,0.338,0.829,1.68,1.95,-6.5,1,3
16573.203,0.396,0.448,0.874,-3.78,0.7,-4.43,1,3
16573.203,0.424,0.385,0.817,-4.24,-2.11,-4.06,1,3
16573.218,0.421,0.339,0.806,-1.34,-0.55,-4.85,1,3
16573.218,0.412,0.366,0.843,0.67,1.95,-4.06,1,3
16573.234,0.401,0.37,0.845,-0.31,1.56,-4.15,1,3
16573.25,0.405,0.371,0.832,-1.74,0.37,-3.75,1,3
16573.25,0.415,0.349,0.818,-0.49,0.0,-4.58,1,3
16573.265,0.406,0.358,0.833,0.24,0.89,-5.28,1,3
16573.281,0.401,0.372,0.839,-0.37,0.58,-5.71,1,3
16573.281,0.404,0.372,0.832,-0.95,-0.09,-5.77,1,3
16573.296,0.405,0.372,0.829,-0.67,0.0,-6.07,1,3
16573.312,0.399,0.371,0.831,0.24,0.49,-6.04,1,3
16573.312,0.396,0.373,0.831,0.37,0.89,-5.07,1,3
16573.328,0.398,0.375,0.832,0.15,0.64,-4.06,1,3
16573.343,0.405,0.372,0.826,-0.03,0.21,-3.54,1,3
16573.343,0.406,0.373,0.827,-0.58,0.15,-3.57,1,3
16573.359,0.407,0.371,0.831,-0.89,0.31,-3.36,1,3
16573.359,0.406,0.371,0.836,-0.55,0.37,-2.9,1,3
16573.375,0.406,0.37,0.836,0.18,0.27,-2.5,1,3
16573.39,0.405,0.37,0.837,0.61,0.09,-2.35,1,3
16573.39,0.402,0.366,0.837,1.34,-0.06,-2.23,1,3
16573.406,0.402,0.365,0.831,1.98,-0.12,-2.04,1,3
16573.421,0.404,0.369,0.834,2.59,0.21,-1.89,1,3
16573.421,0.401,0.376,0.838,3.36,0.49,-1.53,1,3
16573.437,0.388,0.377,0.842,4.58,0.09,-0.31,1,3
16573.453,0.371,0.381,0.852,6.35,-1.37,2.44,1,3
16573.453,0.348,0.376,0.861,6.71,-4.73,5.4,1,3
16573.468,0.353,0.379,0.905,7.48,-10.74,7.14,1,3
16573.484,0.368,0.382,0.885,11.78,-18.59,8.85,1,3
16573.484,0.404,0.358,0.845,13.31,-24.63,9.4,1,3
16573.5,0.438,0.339,0.826,14.47,-25.73,7.66,1,3
16573.5,0.461,0.344,0.803,16.91,-22.37,4.85,1,3
16573.515,0.469,0.358,0.783,18.65,-16.36,2.44,1,3
16573.531,0.464,0.386,0.776,19.47,-9.77,1.16,1,3
16573.546,0.455,0.415,0.767,18.74,-3.91,0.89,1,3
16573.546,0.447,0.423,0.758,16.02,0.52,0.79,1,3
16573.562,0.437,0.419,0.756,11.81,3.2,0.43,1,3
16573.562,0.428,0.416,0.761,6.96,4.7,-0.03,1,3
16573.578,0.418,0.413,0.769,2.72,5.62,0.06,1,3
16573.593,0.413,0.418,0.779,-0.67,6.47,1.13,1,3
16573.593,0.411,0.42,0.794,-2.5,7.81,2.84,1,3
16573.609,0.408,0.417,0.805,-2.47,10.22,5.68,1,3
16573.625,0.413,0.41,0.814,-1.71,12.88,8.85,1,3
16573.625,0.414,0.383,0.814,-1.22,15.02,10.1,1,3
16573.64,0.417,0.364,0.821,-1.19,16.57,9.55,1,3
16573.64,0.42,0.364,0.829,-0.79,17.49,8.33,1,3
16573.656,0.42,0.37,0.823,0.06,17.94,6.59,1,3
16573.671,0.419,0.38,0.811,0.64,18.77,5.25,1,3
16573.671,0.419,0.381,0.806,0.21,20.17,3.75,1,3
16573.687,0.411,0.383,0.806,-1.89,20.51,1.92,1,3
16573.703,0.39,0.388,0.816,-4.85,19.07,-0.31,1,3
16573.703,0.376,0.384,0.857,-7.63,14.28,-1.8,1,3
16573.718,0.388,0.38,0.851,-8.76,6.9,-3.42,1,3
16573.718,0.393,0.383,0.839,-8.76,2.5,-4.76,1,3
16573.734,0.402,0.379,0.836,-8.39,-0.09,-6.29,1,3
16573.75,0.408,0.372,0.833,-9.22,-1.74,-8.39,1,3
16573.75,0.407,0.358,0.828,-11.75,-3.91,-11.78,1,3
16573.765,0.415,0.335,0.838,-15.81,-8.18,-17.52,1,3
16573.781,0.416,0.347,0.84,-19.99,-14.28,-25.57,1,3
16573.781,0.417,0.363,0.815,-25.39,-20.36,-35.04,1,3
16573.796,0.417,0.3,0.81,-37.05,-25.24,-45.93,1,3
16573.812,0.412,0.237,0.818,-49.29,-26.52,-55.6,1,3
16573.812,0.408,0.236,0.85,-55.45,-23.62,-62.26,1,3
16573.828,0.392,0.257,0.898,-55.48,-20.26,-66.77,1,3
16573.843,0.371,0.29,0.935,-51.79,-19.71,-70.68,1,3
16573.843,0.355,0.314,0.956,-45.63,-21.36,-73.49,1,3
16573.859,0.332,0.321,0.976,-37.81,-25.48,-74.77,1,3
16573.859,0.315,0.322,0.951,-27.68,-31.77,-73.49,1,3
16573.875,0.316,0.343,0.903,-17.58,-36.81,-68.76,1,3
16573.89,0.316,0.375,0.86,-8.42,-39.22,-61.46,1,3
16573.906,0.314,0.428,0.794,-2.87,-38.85,-53.41,1,3
16573.906,0.343,0.456,0.777,-3.17,-34.55,-43.18,1,3
16573.921,0.357,0.475,0.783,-2.99,-27.1,-33.33,1,3
16573.921,0.368,0.475,0.789,-1.16,-20.84,-23.99,1,3
16573.937,0.388,0.486,0.794,0.49,-16.88,-15.14,1,3
16573.953,0.408,0.485,0.798,0.12,-14.07,-8.97,1,3
16573.953,0.421,0.454,0.796,-0.06,-11.9,-5.71,1,3
16573.968,0.428,0.432,0.792,1.16,-9.95,-3.3,1,3
16573.968,0.431,0.437,0.788,2.44,-7.48,-0.76,1,3
16573.984,0.422,0.452,0.789,2.41,-4.43,2.99,1,3
16574.0,0.409,0.433,0.803,0.03,-1.71,6.26,1,3
16574.0,0.391,0.379,0.821,-1.37,0.34,8.48,1,3
16574.015,0.377,0.359,0.828,0.58,2.96,12.7,1,3
16574.031,0.375,0.384,0.838,3.94,6.74,19.14,1,3
16574.031,0.377,0.392,0.848,6.81,10.38,24.81,1,3
16574.046,0.379,0.38,0.849,9.74,12.42,28.78,1,3
16574.062,0.376,0.401,0.835,13.12,14.25,31.86,1,3
16574.062,0.368,0.432,0.826,15.78,16.3,36.04,1,3
16574.078,0.37,0.452,0.827,18.74,18.65,41.66,1,3
16574.093,0.364,0.468,0.82,25.21,22.64,49.68,1,3
16574.093,0.37,0.487,0.807,31.89,27.83,60.27,1,3
16574.109,0.381,0.493,0.797,37.81,32.99,70.1,1,3
16574.109,0.389,0.47,0.792,42.7,38.27,77.24,1,3
16574.14,0.396,0.437,0.781,44.59,41.96,80.29,1,3
16574.14,0.413,0.413,0.78,42.02,43.46,79.65,1,3
16574.156,0.438,0.371,0.789,37.45,43.34,74.59,1,3
16574.156,0.453,0.327,0.799,31.74,42.39,66.41,1,3
16574.171,0.455,0.293,0.818,25.57,40.31,57.31,1,3
16574.171,0.456,0.258,0.84,20.14,36.77,46.97,1,3
16574.187,0.455,0.252,0.858,17.15,33.66,37.81,1,3
16574.187,0.448,0.264,0.891,15.32,31.43,30.61,1,3
16574.203,0.433,0.265,0.916,13.12,28.14,25.21,1,3
16574.218,0.419,0.25,0.918,12.76,24.63,20.48,1,3
16574.234,0.403,0.262,0.914,13.21,20.87,15.44,1,3
16574.234,0.387,0.278,0.894,13.09,16.51,9.95,1,3
16574.25,0.378,0.299,0.878,12.33,12.79,4.03,1,3
16574.25,0.366,0.337,0.868,13.06,10.99,-0.06,1,3
16574.265,0.351,0.375,0.85,14.77,9.86,-2.17,1,3
16574.281,0.343,0.397,0.836,14.5,8.3,-3.63,1,3
16574.281,0.327,0.416,0.82,13.25,7.17,-4.18,1,3
16574.296,0.326,0.441,0.809,12.24,7.26,-2.38,1,3
16574.312,0.323,0.452,0.807,11.44,8.97,1.65,1,3
16574.312,0.324,0.448,0.807,9.86,10.59,6.01,1,3
16574.328,0.327,0.428,0.816,6.87,10.99,9.09,1,3
16574.328,0.324,0.408,0.835,3.48,8.82,10.01,1,3
16574.343,0.328,0.381,0.85,0.58,4.24,9.8,1,3
16574.359,0.344,0.363,0.861,-0.92,-0.46,9.64,1,3
16574.359,0.359,0.373,0.878,0.58,-3.2,9.86,1,3
16574.375,0.37,0.378,0.88,4.7,-4.21,10.5,1,3
16574.39,0.39,0.367,0.871,9.13,-4.09,10.86,1,3
16574.406,0.388,0.377,0.86,13.43,-3.11,9.06,1,3
16574.406,0.382,0.385,0.847,20.08,0.09,8.61,1,3
16574.421,0.378,0.405,0.836,20.23,0.09,8.58,1,3
16574.421,0.367,0.41,0.831,18.83,-1.53,8.85,1,3
16574.437,0.355,0.417,0.819,17.85,-2.78,10.1,1,3
16574.453,0.353,0.423,0.821,17.4,-3.69,12.02,1,3
16574.453,0.357,0.422,0.823,17.67,-4.46,14.74,1,3
16574.468,0.372,0.417,0.82,17.7,-4.67,16.88,1,3
16574.468,0.385,0.403,0.814,17.4,-4.61,17.21,1,3
16574.484,0.398,0.399,0.807,16.85,-4.33,16.05,1,3
16574.5,0.409,0.393,0.796,15.41,-4.12,13.21,1,3
16574.5,0.417,0.394,0.789,12.7,-4.0,9.28,1,3
16574.515,0.422,0.407,0.786,9.55,-3.54,5.43,1,3
16574.531,0.416,0.423,0.788,6.81,-2.96,2.08,1,3
16574.531,0.407,0.427,0.793,4.0,-2.96,-0.37,1,3
16574.546,0.395,0.428,0.792,1.4,-3.57,-2.08,1,3
16574.562,0.389,0.432,0.795,-0.76,-3.88,-2.84,1,3
16574.562,0.379,0.434,0.803,-2.87,-4.12,-2.84,1,3
16574.578,0.367,0.437,0.822,-4.03,-4.49,-1.62,1,3
16574.578,0.366,0.426,0.832,-3.48,-4.46,0.73,1,3
16574.593,0.377,0.408,0.837,-2.14,-4.61,2.72,1,3
16574.609,0.385,0.394,0.831,-0.95,-5.25,2.87,1,3
16574.625,0.391,0.402,0.818,-0.06,-5.49,2.44,1,3
16574.625,0.4,0.413,0.811,0.46,-5.04,2.2,1,3
16574.64,0.405,0.41,0.806,0.85,-4.67,1.43,1,3
16574.656,0.407,0.41,0.804,0.03,-4.67,-0.27,1,3
16574.656,0.407,0.414,0.8,-1.13,-4.39,-1.53,1,3
16574.671,0.406,0.414,0.798,-2.08,-3.75,-2.29,1,3
16574.671,0.404,0.417,0.796,-3.39,-3.27,-3.51,1,3
16574.687,0.399,0.423,0.796,-4.94,-2.32,-4.24,1,3
16574.703,0.395,0.418,0.809,-5.92,-1.28,-4.61,1,3
16574.703,0.381,0.411,0.829,-6.13,-1.43,-4.76,1,3
16574.718,0.384,0.401,0.827,-5.43,-3.08,-4.73,1,3
16574.718,0.39,0.406,0.816,-4.76,-3.88,-4.67,1,3
16574.734,0.397,0.406,0.819,-3.69,-3.57,-4.55,1,3
16574.75,0.396,0.406,0.815,-3.08,-3.6,-5.49,1,3
16574.75,0.393,0.421,0.813,-2.81,-3.33,-6.2,1,3
16574.765,0.391,0.429,0.816,-2.72,-2.78,-5.46,1,3
16574.781,0.394,0.42,0.811,-2.96,-2.93,-5.1,1,3
16574.781,0.398,0.407,0.806,-3.88,-3.63,-6.1,1,3
16574.796,0.392,0.404,0.809,-4.97,-4.33,-7.32,1,3
16574.812,0.388,0.407,0.813,-5.71,-4.73,-7.6,1,3
16574.812,0.39,0.413,0.816,-5.71,-4.49,-6.74,1,3
16574.828,0.386,0.421,0.825,-4.03,-3.08,-4.76,1,3
16574.828,0.384,0.418,0.829,-2.9,-2.04,-3.17,1,3
16574.843,0.385,0.405,0.826,-2.99,-2.23,-2.9,1,3
16574.859,0.387,0.408,0.821,-3.23,-2.75,-3.08,1,3
16574.875,0.385,0.414,0.821,-2.75,-2.72,-2.75,1,3
16574.875,0.386,0.42,0.819,-1.98,-2.29,-1.4,1,3
16574.89,0.389,0.416,0.814,-1.98,-1.98,-0.55,1,3
16574.89,0.394,0.41,0.809,-2.53,-1.43,-0.37,1,3
16574.906,0.4,0.414,0.804,-3.54,-0.64,-0.37,1,3
16574.921,0.399,0.409,0.806,-4.88,-0.37,-0.67,1,3
16574.921,0.402,0.407,0.805,-6.32,-1.1,-1.95,1,3
16574.937,0.409,0.4,0.812,-7.23,-2.08,-3.72,1,3
16574.953,0.407,0.387,0.821,-7.26,-2.53,-5.89,1,3
16574.953,0.401,0.385,0.828,-6.13,-2.35,-7.51,1,3
16574.968,0.395,0.397,0.839,-3.75,-1.19,-7.29,1,3
16574.968,0.391,0.401,0.845,-0.49,0.52,-6.35,1,3
16574.984,0.386,0.388,0.838,2.17,1.31,-6.2,1,3
16575.0,0.384,0.392,0.828,3.63,1.04,-6.53,1,3
16575.0,0.378,0.407,0.819,4.79,0.52,-6.59,1,3
16575.015,0.375,0.414,0.81,4.94,0.31,-5.62,1,3
16575.031,0.376,0.424,0.812,3.66,0.06,-4.39,1,3
16575.031,0.372,0.434,0.809,2.5,-0.24,-3.42,1,3
16575.046,0.373,0.437,0.801,0.76,-0.67,-2.14,1,3
16575.062,0.377,0.428,0.806,-1.46,-1.07,-1.07,1,3
16575.062,0.38,0.42,0.806,-3.2,-1.46,-0.52,1,3
16575.078,0.383,0.414,0.815,-4.39,-1.89,0.12,1,3
16575.093,0.39,0.408,0.824,-4.46,-1.62,0.79,1,3
16575.093,0.395,0.396,0.832,-3.54,-0.95,0.67,1,3
16575.109,0.396,0.388,0.839,-1.77,0.03,-0.06,1,3
16575.109,0.396,0.392,0.836,0.7,0.76,-0.58,1,3
16575.125,0.39,0.394,0.831,2.5,1.01,-1.34,1,3
16575.14,0.386,0.408,0.822,3.94,1.34,-1.56,1,3
16575.14,0.384,0.42,0.817,4.52,1.86,-1.13,1,3
16575.156,0.38,0.422,0.808,3.81,1.77,-1.16,1,3
16575.171,0.38,0.421,0.8,2.01,1.01,-1.22,1,3
16575.171,0.379,0.419,0.797,-0.15,0.37,-1.07,1,3
16575.187,0.382,0.418,0.803,-2.47,-0.18,-1.01,1,3
16575.203,0.386,0.417,0.81,-4.15,-0.55,-1.01,1,3
16575.203,0.386,0.409,0.818,-4.82,-0.43,-1.01,1,3
16575.218,0.385,0.404,0.832,-4.49,0.37,-0.64,1,3
16575.218,0.383,0.402,0.84,-3.14,0.73,-0.55,1,3
16575.234,0.379,0.402,0.842,-1.59,0.24,-0.82,1,3
16575.25,0.374,0.407,0.837,0.15,-0.52,-0.55,1,3
16575.25,0.376,0.412,0.824,0.95,-1.16,0.03,1,3
16575.265,0.38,0.419,0.813,0.79,-1.53,0.46,1,3
16575.281,0.38,0.421,0.81,-0.21,-1.43,0.64,1,3
16575.281,0.381,0.417,0.808,-1.65,-1.56,0.79,1,3
16575.296,0.384,0.413,0.813,-3.08,-2.04,0.67,1,3
16575.312,0.387,0.412,0.828,-4.36,-2.53,0.49,1,3
16575.328,0.388,0.413,0.876,-4.73,-3.75,0.12,1,3
16575.328,0.388,0.41,0.9,-2.66,-6.62,-0.49,1,3
16575.328,0.403,0.396,0.916,0.67,-11.57,-1.56,1,3
16575.343,0.417,0.38,0.847,4.64,-15.72,-3.54,1,3
16575.359,0.429,0.392,0.805,5.22,-13.86,-5.8,1,3
16575.359,0.403,0.397,0.801,2.23,-9.19,-8.09,1,3
16575.375,0.376,0.386,0.814,-1.83,-6.99,-11.32,1,3
16575.39,0.345,0.379,0.833,6.35,-6.47,-8.18,1,3
16575.39,0.381,0.386,0.795,11.47,-1.13,-5.86,1,3
16575.406,0.373,0.396,0.78,15.84,4.91,-3.14,1,3
16575.421,0.359,0.386,0.781,16.82,7.6,-1.1,1,3
16575.421,0.36,0.393,0.783,17.3,7.78,0.12,1,3
16575.437,0.362,0.431,0.785,17.91,6.68,2.29,1,3
16575.453,0.344,0.489,0.829,17.15,2.93,4.36,1,3
16575.453,0.388,0.471,0.795,15.87,-4.43,7.17,1,3
16575.468,0.396,0.471,0.765,11.54,-7.11,6.62,1,3
16575.468,0.375,0.459,0.761,7.84,-6.47,6.81,1,3
16575.484,0.376,0.461,0.767,0.03,-6.74,7.87,1,3
16575.5,0.355,0.44,0.774,-8.27,-7.42,9.19,1,3
16575.515,0.4,0.392,0.842,-14.37,-8.88,10.56,1,3
16575.515,0.423,0.409,0.871,-9.28,-10.8,9.03,1,3
16575.531,0.423,0.423,0.847,-3.02,-11.35,8.48,1,3
16575.531,0.435,0.39,0.835,0.98,-11.14,6.41,1,3
16575.546,0.444,0.39,0.819,4.49,-10.35,3.42,1,3
16575.562,0.45,0.392,0.793,5.65,-8.76,-0.7,1,3
16575.562,0.45,0.405,0.77,5.86,-5.04,-3.94,1,3
16575.578,0.443,0.427,0.754,5.1,0.0,-6.04,1,3
16575.578,0.428,0.452,0.753,2.29,4.24,-7.66,1,3
16575.593,0.404,0.458,0.757,-1.8,6.65,-8.91,1,3
16575.609,0.375,0.468,0.772,-6.23,6.84,-8.58,1,3
16575.609,0.349,0.473,0.799,-9.92,4.43,-6.38,1,3
16575.625,0.343,0.467,0.814,-12.88,0.06,-2.66,1,3
16575.64,0.357,0.444,0.823,-14.53,-4.0,0.98,1,3
16575.64,0.372,0.417,0.826,-14.62,-6.35,3.57,1,3
16575.656,0.39,0.406,0.826,-13.64,-6.71,5.37,1,3
16575.671,0.401,0.396,0.827,-11.87,-5.77,6.13,1,3
16575.671,0.413,0.388,0.831,-9.31,-4.36,6.01,1,3
16575.687,0.417,0.39,0.83,-6.26,-2.66,5.07,1,3
16575.703,0.415,0.398,0.821,-3.75,-1.1,4.12,1,3
16575.703,0.416,0.404,0.81,-2.87,-0.15,3.33,1,3
16575.718,0.415,0.408,0.795,-2.84,0.82,2.59,1,3
16575.718,0.413,0.412,0.788,-3.48,1.89,2.23,1,3
16575.734,0.411,0.408,0.789,-4.73,3.54,2.01,1,3
16575.75,0.406,0.412,0.795,-5.8,5.55,2.08,1,3
16575.75,0.404,0.412,0.804,-6.59,7.32,2.59,1,3
16575.765,0.4,0.41,0.813,-7.14,8.51,2.93,1,3
16575.781,0.397,0.409,0.816,-7.54,9.06,2.9,1,3
16575.781,0.4,0.4,0.824,-7.57,9.37,2.93,1,3
16575.796,0.402,0.394,0.824,-7.11,9.95,2.9,1,3
16575.812,0.405,0.395,0.816,-6.38,11.08,2.47,1,3
16575.812,0.401,0.388,0.817,-6.87,12.15,1.62,1,3
16575.828,0.394,0.388,0.823,-7.54,12.33,0.46,1,3
16575.843,0.391,0.388,0.825,-7.84,11.44,-0.64,1,3
16575.843,0.39,0.387,0.82,-8.85,10.32,-1.92,1,3
16575.859,0.386,0.39,0.821,-9.95,9.49,-3.02,1,3
16575.859,0.381,0.392,0.825,-10.74,8.45,-3.75,1,3
16575.875,0.366,0.394,0.845,-11.54,6.9,-4.24,1,3
16575.89,0.377,0.392,0.863,-11.41,3.69,-4.27,1,3
16575.89,0.382,0.38,0.855,-10.74,0.67,-5.34,1,3
16575.906,0.388,0.366,0.856,-10.04,-1.31,-6.9,1,3
16575.921,0.394,0.35,0.857,-8.97,-3.27,-9.61,1,3
16575.921,0.394,0.348,0.855,-8.03,-5.8,-13.49,1,3
16575.937,0.393,0.353,0.857,-7.69,-9.28,-18.01,1,3
16575.953,0.386,0.365,0.856,-6.81,-12.57,-21.64,1,3
16575.953,0.38,0.376,0.847,-6.41,-15.72,-23.71,1,3
16575.968,0.381,0.375,0.844,-7.29,-18.8,-25.85,1,3
16575.968,0.376,0.375,0.835,-8.0,-20.57,-27.25,1,3
16575.984,0.375,0.381,0.834,-7.97,-20.63,-26.83,1,3
16576.0,0.372,0.388,0.834,-7.84,-20.02,-25.3,1,3
16576.015,0.364,0.392,0.833,-8.67,-19.96,-24.51,1,3
16576.015,0.366,0.389,0.839,-10.38,-20.63,-23.71,1,3
16576.031,0.367,0.378,0.845,-11.69,-21.85,-23.13,1,3
16576.031,0.368,0.364,0.846,-13.55,-24.11,-24.2,1,3
16576.046,0.376,0.35,0.846,-17.24,-27.8,-27.22,1,3
16576.062,0.38,0.327,0.85,-22.0,-31.86,-32.11,1,3
16576.062,0.378,0.313,0.858,-24.75,-34.58,-36.04,1,3
16576.078,0.374,0.322,0.869,-25.12,-36.32,-37.93,1,3
16576.093,0.379,0.338,0.861,-23.74,-36.84,-37.93,1,3
16576.093,0.391,0.352,0.865,-22.1,-35.49,-37.45,1,3
16576.109,0.392,0.362,0.873,-20.26,-33.78,-38.48,1,3
16576.109,0.387,0.341,0.869,-18.68,-32.9,-39.86,1,3
16576.125,0.396,0.338,0.86,-15.63,-31.13,-39.67,1,3
16576.14,0.389,0.355,0.849,-10.53,-27.99,-38.36,1,3
16576.14,0.384,0.383,0.847,-5.86,-24.6,-34.82,1,3
16576.156,0.382,0.404,0.826,-1.5,-21.45,-29.91,1,3
16576.171,0.391,0.422,0.806,1.07,-18.07,-24.81,1,3
16576.187,0.394,0.429,0.795,1.8,-14.5,-20.39,1,3
16576.187,0.398,0.424,0.792,1.89,-11.47,-16.57,1,3
16576.203,0.405,0.427,0.795,1.77,-8.82,-13.4,1,3
16576.203,0.403,0.431,0.799,1.74,-6.93,-10.8,1,3
16576.218,0.404,0.427,0.798,1.19,-6.1,-8.7,1,3
16576.218,0.413,0.425,0.798,0.73,-5.55,-6.93,1,3
16576.234,0.417,0.413,0.794,0.4,-5.34,-5.92,1,3
16576.25,0.418,0.408,0.794,-0.46,-5.25,-5.95,1,3
16576.25,0.423,0.404,0.8,-1.46,-5.34,-5.98,1,3
16576.265,0.426,0.403,0.798,-2.26,-5.13,-6.01,1,3
16576.281,0.427,0.401,0.796,-3.02,-4.39,-6.47,1,3
16576.281,0.428,0.407,0.807,-2.62,-3.36,-6.35,1,3
16576.296,0.423,0.409,0.814,-1.16,-2.2,-5.77,1,3
16576.312,0.419,0.417,0.811,1.43,-1.19,-4.79,1,3
16576.312,0.419,0.424,0.805,3.45,-0.73,-4.27,1,3
16576.328,0.417,0.428,0.797,5.01,-0.58,-3.75,1,3
16576.328,0.42,0.434,0.791,6.26,-0.27,-3.05,1,3
16576.343,0.416,0.438,0.786,6.74,-0.37,-2.75,1,3
16576.359,0.414,0.44,0.781,5.68,-1.19,-2.62,1,3
16576.359,0.413,0.442,0.778,1.37,-3.05,-2.78,1,3
16576.375,0.415,0.435,0.778,-0.03,-2.96,-2.2,1,3
16576.39,0.42,0.432,0.78,-0.09,-2.08,-1.31,1,3
16576.39,0.421,0.435,0.791,1.59,-0.55,0.31,1,3
16576.406,0.415,0.445,0.792,1.62,0.61,1.59,1,3
16576.421,0.404,0.397,0.812,0.12,1.04,1.71,1,3
16576.421,0.39,0.387,0.817,1.19,2.01,3.63,1,3
16576.437,0.385,0.411,0.823,2.87,2.69,6.56,1,3
16576.453,0.377,0.413,0.828,3.23,1.4,8.33,1,3
16576.453,0.371,0.416,0.84,2.81,-1.71,9.25,1,3
16576.468,0.36,0.417,0.84,3.39,-7.08,10.59,1,3
16576.468,0.385,0.398,0.869,2.78,-13.31,12.21,1,3
16576.484,0.415,0.384,0.848,7.29,-17.91,12.76,1,3
16576.5,0.433,0.396,0.787,11.23,-17.33,13.79,1,3
16576.515,0.446,0.377,0.793,12.45,-13.98,13.79,1,3
16576.515,0.455,0.401,0.777,16.45,-10.13,13.73,1,3
16576.531,0.456,0.431,0.754,15.96,-7.14,11.81,1,3
16576.531,0.455,0.419,0.752,11.29,-4.85,9.31,1,3
16576.546,0.456,0.405,0.752,5.74,-2.84,6.9,1,3
16576.562,0.454,0.397,0.753,1.28,-1.16,4.27,1,3
16576.562,0.451,0.402,0.76,-2.47,-0.06,2.11,1,3
16576.578,0.447,0.403,0.77,-6.53,0.58,0.4,1,3
16576.578,0.442,0.398,0.784,-9.16,1.65,-0.15,1,3
16576.593,0.435,0.404,0.803,-8.91,3.42,0.64,1,3
16576.609,0.436,0.414,0.824,-5.65,5.25,2.96,1,3
16576.609,0.433,0.438,0.829,-0.21,6.23,5.25,1,3
16576.625,0.427,0.42,0.826,3.14,5.46,5.68,1,3
16576.64,0.423,0.401,0.823,5.77,3.33,5.71,1,3
16576.64,0.43,0.408,0.803,8.76,0.92,5.22,1,3
16576.656,0.436,0.412,0.782,9.03,-0.58,4.0,1,3
16576.671,0.437,0.405,0.767,6.71,-0.58,2.99,1,3
16576.671,0.439,0.416,0.76,4.27,0.82,2.81,1,3
16576.687,0.439,0.421,0.765,1.74,2.66,3.05,1,3
16576.703,0.435,0.427,0.772,-0.49,4.61,3.63,1,3
16576.703,0.437,0.429,0.783,-2.01,6.56,4.39,1,3
16576.718,0.429,0.424,0.797,-1.8,8.24,5.46,1,3
16576.718,0.424,0.423,0.803,-1.04,8.76,6.65,1,3
16576.734,0.422,0.425,0.811,0.09,8.42,7.54,1,3
16576.75,0.42,0.412,0.813,1.16,7.51,7.66,1,3
16576.75,0.421,0.403,0.812,2.5,6.74,7.81,1,3
16576.765,0.419,0.403,0.81,4.15,6.38,8.12,1,3
16576.781,0.42,0.405,0.81,4.94,6.2,8.55,1,3
16576.796,0.422,0.393,0.81,4.7,5.86,8.33,1,3
16576.796,0.422,0.386,0.806,4.09,5.71,7.93,1,3
16576.812,0.42,0.386,0.803,3.39,5.92,7.42,1,3
16576.812,0.42,0.386,0.805,2.62,6.35,6.99,1,3
16576.828,0.417,0.388,0.807,1.43,6.87,6.62,1,3
16576.828,0.416,0.391,0.814,-0.37,7.29,6.26,1,3
16576.843,0.416,0.385,0.817,-1.04,7.66,6.04,1,3
16576.859,0.413,0.387,0.82,-0.85,8.33,5.86,1,3
16576.859,0.41,0.386,0.827,-0.79,8.73,5.95,1,3
16576.875,0.407,0.388,0.829,-0.03,8.36,5.74,1,3
16576.89,0.407,0.384,0.826,0.52,7.48,5.13,1,3
16576.89,0.408,0.379,0.824,0.18,6.5,4.55,1,3
16576.906,0.415,0.376,0.822,-0.12,5.86,3.69,1,3
16576.921,0.415,0.37,0.818,-0.52,5.77,2.41,1,3
16576.921,0.418,0.365,0.82,-2.01,6.13,1.04,1,3
16576.937,0.421,0.358,0.823,-3.63,6.9,-0.49,1,3
16576.937,0.425,0.373,0.826,-2.47,8.18,-1.59,1,3
16576.953,0.42,0.399,0.816,-0.12,9.64,-2.2,1,3
16576.968,0.412,0.406,0.813,1.01,10.53,-2.59,1,3
16576.968,0.406,0.405,0.82,0.55,10.41,-2.99,1,3
16576.984,0.403,0.397,0.815,-0.24,9.49,-3.57,1,3
16577.0,0.404,0.386,0.812,-1.1,8.24,-4.27,1,3
16577.015,0.407,0.383,0.81,-1.74,7.2,-5.07,1,3
16577.015,0.41,0.389,0.809,-2.84,6.26,-6.38,1,3
16577.031,0.402,0.399,0.814,-4.15,5.07,-8.09,1,3
16577.031,0.401,0.414,0.829,-5.04,3.14,-9.49,1,3
16577.046,0.398,0.406,0.823,-5.74,0.24,-11.02,1,3
16577.062,0.394,0.397,0.824,-6.26,-2.11,-12.15,1,3
16577.062,0.397,0.394,0.827,-6.35,-3.57,-12.51,1,3
16577.078,0.394,0.392,0.828,-5.77,-4.15,-12.45,1,3
16577.078,0.391,0.389,0.831,-5.16,-4.58,-12.18,1,3
16577.093,0.388,0.389,0.832,-4.85,-5.74,-12.24,1,3
16577.109,0.389,0.39,0.835,-4.43,-7.14,-12.85,1,3
16577.109,0.387,0.395,0.836,-3.88,-8.55,-13.52,1,3
16577.125,0.385,0.395,0.836,-3.08,-9.77,-13.76,1,3
16577.14,0.383,0.394,0.834,-2.41,-11.11,-13.82,1,3
16577.14,0.385,0.396,0.831,-2.23,-12.88,-14.13,1,3
16577.156,0.386,0.397,0.831,-2.41,-14.68,-14.62,1,3
16577.171,0.386,0.397,0.827,-2.78,-16.51,-14.92,1,3
16577.187,0.387,0.397,0.823,-3.42,-18.49,-15.17,1,3
16577.187,0.388,0.401,0.817,-4.64,-20.75,-15.78,1,3
16577.203,0.389,0.392,0.81,-7.02,-22.92,-16.6,1,3
16577.218,0.392,0.385,0.808,-9.86,-24.45,-17.06,1,3
16577.218,0.401,0.391,0.809,-11.78,-24.96,-17.15,1,3
16577.234,0.406,0.396,0.81,-12.27,-23.8,-16.79,1,3
16577.234,0.408,0.401,0.818,-11.63,-21.73,-15.56,1,3
16577.25,0.412,0.402,0.824,-11.11,-19.99,-14.83,1,3
16577.25,0.417,0.395,0.828,-10.32,-18.62,-14.68,1,3
16577.265,0.422,0.388,0.822,-8.27,-17.37,-14.62,1,3
16577.281,0.422,0.383,0.818,-6.59,-15.99,-15.32,1,3
16577.281,0.425,0.393,0.814,-6.23,-14.74,-16.57,1,3
16577.296,0.409,0.382,0.808,-7.2,-14.13,-17.82,1,3
16577.312,0.413,0.385,0.814,-8.7,-14.01,-17.52,1,3
16577.312,0.408,0.393,0.813,-8.67,-13.31,-17.03,1,3
16577.328,0.41,0.394,0.812,-7.84,-12.39,-15.53,1,3
16577.328,0.415,0.397,0.814,-6.68,-11.02,-13.92,1,3
16577.343,0.413,0.398,0.818,-4.97,-9.22,-12.27,1,3
16577.359,0.415,0.395,0.822,-0.49,-5.52,-8.12,1,3
16577.375,0.417,0.394,0.813,0.76,-3.81,-6.71,1,3
16577.375,0.421,0.402,0.808,1.13,-2.75,-6.1,1,3
16577.39,0.414,0.395,0.812,1.68,-2.23,-5.83,1,3
16577.39,0.41,0.397,0.815,2.99,-2.04,-4.91,1,3
16577.406,0.403,0.412,0.815,5.34,-1.19,-2.78,1,3
16577.421,0.396,0.423,0.825,8.67,-0.46,0.06,1,3
16577.421,0.382,0.425,0.835,12.12,-1.19,3.27,1,3
16577.437,0.372,0.433,0.851,16.48,-3.57,7.54,1,3
16577.453,0.384,0.452,0.858,23.83,-7.81,12.27,1,3
16577.453,0.412,0.466,0.819,30.09,-11.99,15.23,1,3
16577.468,0.427,0.435,0.791,29.42,-14.47,14.83,1,3
16577.484,0.443,0.394,0.755,27.01,-14.31,13.67,1,3
16577.484,0.455,0.401,0.725,24.35,-11.23,12.97,1,3
16577.5,0.464,0.426,0.713,21.33,-5.46,13.0,1,3
16577.5,0.469,0.452,0.714,17.4,1.04,13.09,1,3
16577.515,0.462,0.466,0.715,12.94,6.68,12.88,1,3
16577.531,0.453,0.476,0.723,7.69,11.05,12.67,1,3
16577.531,0.438,0.468,0.737,1.98,13.58,12.67,1,3
16577.546,0.426,0.449,0.752,-3.17,13.76,12.6,1,3
16577.562,0.422,0.431,0.774,-7.72,11.9,12.21,1,3
16577.578,0.423,0.417,0.793,-10.9,8.88,10.96,1,3
16577.578,0.422,0.409,0.807,-11.87,5.65,9.31,1,3
16577.593,0.423,0.405,0.816,-11.29,2.62,8.48,1,3
16577.593,0.429,0.408,0.824,-9.83,0.24,8.21,1,3
16577.609,0.432,0.398,0.823,-7.17,-1.1,7.9,1,3
16577.609,0.434,0.39,0.818,-4.12,-1.37,8.12,1,3
16577.625,0.439,0.389,0.818,-1.43,-1.31,7.81,1,3
16577.64,0.441,0.383,0.813,0.58,-1.34,6.35,1,3
16577.64,0.44,0.387,0.808,1.89,-1.56,4.76,1,3
16577.656,0.44,0.396,0.802,2.96,-1.53,3.42,1,3
16577.671,0.44,0.407,0.797,3.66,-1.07,2.59,1,3
16577.671,0.441,0.409,0.793,3.81,-0.64,2.04,1,3
16577.687,0.441,0.41,0.79,3.23,-0.58,1.1,1,3
16577.703,0.442,0.413,0.786,2.23,-0.7,0.12,1,3
16577.703,0.444,0.415,0.786,1.59,-0.67,-0.76,1,3
16577.718,0.437,0.415,0.785,1.65,0.06,-1.22,1,3
16577.734,0.43,0.416,0.787,1.56,1.34,-0.76,1,3
16577.734,0.429,0.423,0.792,1.56,2.62,0.43,1,3
16577.75,0.432,0.413,0.794,2.38,3.88,1.65,1,3
16577.75,0.431,0.411,0.79,3.17,5.52,2.93,1,3
16577.765,0.429,0.416,0.79,3.45,7.51,4.21,1,3
16577.781,0.427,0.415,0.792,3.39,8.94,5.16,1,3
16577.796,0.424,0.413,0.792,3.11,9.28,5.8,1,3
16577.796,0.428,0.412,0.792,2.47,9.09,6.01,1,3
16577.812,0.427,0.415,0.791,1.83,9.16,6.2,1,3
16577.812,0.425,0.418,0.795,1.31,9.09,6.59,1,3
16577.828,0.425,0.414,0.796,0.98,8.73,6.65,1,3
16577.843,0.426,0.41,0.795,0.67,8.73,6.5,1,3
16577.843,0.426,0.414,0.793,0.61,9.37,6.96,1,3
16577.859,0.427,0.422,0.794,1.1,10.86,8.15,1,3
16577.875,0.426,0.419,0.793,1.07,12.3,8.91,1,3
16577.875,0.421,0.409,0.792,0.31,12.7,8.58,1,3
16577.89,0.418,0.406,0.795,-1.04,11.96,7.69,1,3
16577.89,0.42,0.404,0.804,-2.56,10.5,6.29,1,3
16577.906,0.417,0.402,0.808,-3.42,8.73,4.79,1,3
16577.921,0.416,0.401,0.81,-3.81,6.84,3.69,1,3
16577.937,0.418,0.404,0.815,-4.06,5.37,2.93,1,3
16577.937,0.417,0.399,0.818,-4.15,4.09,1.92,1,3
16577.953,0.413,0.394,0.821,-3.69,2.66,0.82,1,3
16577.953,0.413,0.399,0.817,-2.69,1.5,0.52,1,3
16577.968,0.414,0.404,0.82,-1.5,1.1,0.61,1,3
16577.984,0.409,0.403,0.816,-0.43,0.95,0.92,1,3
16577.984,0.409,0.407,0.815,0.15,1.04,1.62,1,3
16578.0,0.412,0.409,0.81,0.58,1.19,2.38,1,3
16578.015,0.411,0.41,0.803,0.37,1.53,2.9,1,3
16578.015,0.413,0.406,0.802,-0.7,1.22,2.9,1,3
16578.031,0.417,0.397,0.799,-1.92,0.73,2.35,1,3
16578.031,0.417,0.401,0.801,-3.27,0.55,1.74,1,3
16578.046,0.42,0.402,0.8,-4.43,0.55,0.76,1,3
16578.062,0.426,0.396,0.801,-5.62,0.46,-0.31,1,3
16578.062,0.436,0.394,0.802,-6.74,1.07,-2.01,1,3
16578.078,0.439,0.393,0.804,-6.99,2.78,-3.69,1,3
16578.093,0.436,0.39,0.803,-6.5,5.28,-4.91,1,3
16578.093,0.424,0.391,0.804,-6.26,7.97,-6.04,1,3
16578.109,0.414,0.392,0.813,-6.07,9.67,-6.53,1,3
16578.109,0.403,0.392,0.824,-5.86,10.22,-6.65,1,3
16578.125,0.399,0.388,0.832,-5.71,9.25,-6.65,1,3
16578.14,0.389,0.386,0.833,-5.4,7.69,-6.84,1,3
16578.156,0.39,0.391,0.842,-4.36,5.22,-6.62,1,3
16578.156,0.401,0.388,0.832,-3.45,1.98,-7.05,1,3
16578.171,0.404,0.386,0.818,-3.69,-0.09,-8.48,1,3
16578.171,0.406,0.389,0.816,-4.21,-1.25,-10.01,1,3
16578.187,0.399,0.393,0.821,-3.97,-1.22,-10.65,1,3
16578.203,0.395,0.403,0.827,-3.63,-0.61,-9.86,1,3
16578.203,0.395,0.402,0.834,-2.96,-0.52,-9.28,1,3
16578.218,0.392,0.388,0.834,-2.01,-1.46,-9.7,1,3
16578.218,0.391,0.378,0.829,-1.34,-3.05,-10.47,1,3
16578.234,0.39,0.39,0.825,-0.92,-4.55,-10.86,1,3
16578.25,0.386,0.403,0.82,-0.46,-5.8,-10.99,1,3
16578.25,0.382,0.415,0.816,-0.64,-6.71,-10.01,1,3
16578.265,0.382,0.422,0.811,-1.53,-6.62,-8.39,1,3
16578.281,0.385,0.413,0.81,-2.38,-5.89,-7.14,1,3
16578.296,0.385,0.407,0.811,-3.63,-5.71,-6.44,1,3
16578.296,0.389,0.404,0.814,-5.19,-6.13,-6.2,1,3
16578.312,0.394,0.401,0.816,-6.47,-6.93,-6.47,1,3
16578.312,0.399,0.396,0.82,-6.96,-7.57,-6.84,1,3
16578.328,0.401,0.396,0.824,-6.9,-7.78,-7.14,1,3
16578.343,0.402,0.393,0.829,-5.07,-7.66,-7.69,1,3
16578.343,0.402,0.389,0.828,-4.21,-7.45,-7.69,1,3
16578.359,0.402,0.386,0.825,-3.36,-7.17,-8.09,1,3
16578.375,0.403,0.385,0.826,-2.08,-6.81,-8.09,1,3
16578.375,0.397,0.402,0.82,-1.25,-6.23,-7.14,1,3
16578.39,0.397,0.412,0.815,-0.79,-4.85,-5.58,1,3
16578.39,0.394,0.407,0.818,-0.95,-3.57,-4.49,1,3
16578.406,0.389,0.401,0.818,-1.46,-3.23,-3.91,1,3
16578.421,0.389,0.402,0.816,-1.95,-3.39,-3.45,1,3
16578.421,0.389,0.406,0.818,-1.89,-3.36,-2.66,1,3
16578.437,0.39,0.409,0.825,-1.77,-3.05,-1.37,1,3
16578.453,0.394,0.403,0.823,-1.28,-2.59,-0.18,1,3
16578.453,0.399,0.391,0.822,-0.98,-2.23,0.37,1,3
16578.468,0.401,0.385,0.823,-0.03,-1.28,0.43,1,3
16578.484,0.398,0.396,0.835,0.82,-0.61,0.95,1,3
16578.484,0.4,0.39,0.829,2.72,0.15,1.71,1,3
16578.5,0.398,0.389,0.832,4.36,1.71,2.59,1,3
16578.515,0.395,0.388,0.834,5.77,2.99,3.33,1,3
16578.515,0.388,0.382,0.839,8.03,3.48,3.66,1,3
16578.531,0.374,0.398,0.85,9.58,2.72,4.67,1,3
16578.531,0.361,0.404,0.856,11.32,-0.64,6.01,1,3
16578.546,0.353,0.389,0.864,11.72,-6.29,7.32,1,3
16578.562,0.356,0.393,0.879,14.71,-12.91,8.91,1,3
16578.562,0.391,0.421,0.86,19.96,-18.77,11.41,1,3
16578.578,0.403,0.396,0.812,21.7,-21.42,11.69,1,3
16578.593,0.426,0.381,0.792,22.77,-20.45,11.81,1,3
16578.593,0.449,0.399,0.772,22.74,-17.33,11.23,1,3
16578.609,0.461,0.404,0.753,21.61,-12.94,9.03,1,3
16578.609,0.472,0.419,0.745,18.74,-8.36,6.32,1,3
16578.625,0.475,0.436,0.739,15.47,-3.85,2.93,1,3
16578.64,0.466,0.437,0.734,11.84,0.03,-0.24,1,3
16578.64,0.452,0.444,0.742,7.66,2.69,-2.62,1,3
16578.656,0.435,0.449,0.749,4.12,4.79,-3.78,1,3
16578.671,0.423,0.45,0.756,0.85,6.53,-3.42,1,3
16578.687,0.416,0.438,0.771,-1.83,8.09,-2.41,1,3
16578.687,0.406,0.436,0.787,-3.97,9.0,-1.04,1,3
16578.703,0.402,0.437,0.795,-5.52,8.88,0.31,1,3
16578.703,0.404,0.432,0.804,-6.26,8.73,1.46,1,3
16578.718,0.406,0.424,0.81,-6.1,8.85,2.2,1,3
16578.718,0.403,0.411,0.816,-5.19,8.91,2.23,1,3
16578.734,0.403,0.412,0.822,-4.21,8.51,2.41,1,3
16578.75,0.402,0.406,0.823,-2.69,7.97,2.26,1,3
16578.75,0.404,0.409,0.823,-1.37,7.23,2.38,1,3
16578.765,0.406,0.406,0.82,0.34,6.53,2.47,1,3
16578.781,0.408,0.41,0.817,2.04,6.38,2.62,1,3
16578.781,0.412,0.41,0.808,2.72,6.2,2.5,1,3
16578.796,0.414,0.404,0.801,2.59,5.98,1.22,1,3
16578.812,0.415,0.413,0.795,1.5,5.71,-0.46,1,3
16578.812,0.413,0.416,0.794,0.58,5.92,-1.92,1,3
16578.828,0.408,0.424,0.792,-0.4,6.93,-2.59,1,3
16578.843,0.402,0.428,0.795,-1.46,8.12,-2.41,1,3
16578.843,0.398,0.427,0.8,-2.38,9.34,-1.65,1,3
16578.859,0.392,0.424,0.818,-3.05,10.07,-1.13,1,3
16578.859,0.388,0.407,0.832,-2.78,9.4,-1.19,1,3
16578.875,0.388,0.403,0.837,-1.46,8.27,-1.01,1,3
16578.89,0.39,0.404,0.841,1.07,7.48,-0.85,1,3
16578.906,0.389,0.403,0.833,4.15,6.96,-1.01,1,3
16578.906,0.387,0.412,0.824,6.07,6.87,-1.1,1,3
16578.921,0.384,0.422,0.818,7.54,6.93,-0.64,1,3
16578.921,0.383,0.427,0.81,8.24,6.99,-0.12,1,3
16578.937,0.381,0.434,0.797,8.0,7.45,0.89,1,3
16578.953,0.384,0.444,0.796,6.84,8.55,2.35,1,3
16578.953,0.382,0.447,0.796,5.62,9.61,3.66,1,3
16578.968,0.381,0.437,0.797,3.72,9.95,4.52,1,3
16578.968,0.376,0.43,0.8,1.83,9.61,4.76,1,3
16578.984,0.375,0.426,0.808,0.4,9.0,4.88,1,3
16579.0,0.377,0.424,0.813,-0.49,8.18,5.16,1,3
16579.0,0.378,0.417,0.818,-0.7,7.78,5.55,1,3
16579.015,0.382,0.416,0.824,-0.49,8.03,6.07,1,3
16579.031,0.378,0.412,0.829,0.49,8.18,6.29,1,3
16579.031,0.377,0.409,0.823,1.56,7.81,6.01,1,3
16579.046,0.376,0.42,0.82,2.23,7.51,6.07,1,3
16579.062,0.374,0.426,0.82,2.87,7.2,6.16,1,3
16579.062,0.373,0.427,0.816,3.39,6.78,6.41,1,3
16579.078,0.375,0.43,0.813,3.27,6.78,6.74,1,3
16579.093,0.375,0.429,0.811,2.62,6.62,6.78,1,3
16579.093,0.376,0.424,0.807,1.83,6.1,6.59,1,3
16579.109,0.374,0.426,0.811,1.04,6.04,6.47,1,3
16579.109,0.37,0.426,0.815,0.67,6.16,6.47,1,3
16579.125,0.37,0.427,0.819,0.27,6.1,6.96,1,3
16579.14,0.372,0.424,0.822,-0.27,5.77,7.17,1,3
16579.14,0.373,0.414,0.82,-0.98,4.94,6.35,1,3
16579.156,0.373,0.414,0.82,-2.23,3.48,4.91,1,3
16579.171,0.378,0.412,0.815,-3.42,1.74,3.17,1,3
16579.171,0.373,0.411,0.82,-4.3,0.61,1.56,1,3
16579.187,0.373,0.415,0.821,-4.33,0.09,1.28,1,3
16579.203,0.373,0.417,0.832,-3.54,0.55,1.83,1,3
16579.203,0.379,0.408,0.836,-2.29,0.95,2.29,1,3
16579.218,0.379,0.396,0.83,-0.92,0.92,1.4,1,3
16579.234,0.38,0.399,0.835,-0.34,0.85,0.15,1,3
16579.234,0.383,0.403,0.832,0.98,0.76,-0.89,1,3
16579.25,0.376,0.408,0.833,2.38,1.01,-1.86,1,3
16579.25,0.374,0.415,0.834,3.23,1.04,-2.44,1,3
16579.265,0.368,0.411,0.832,4.55,1.34,-2.81,1,3
16579.281,0.362,0.415,0.831,6.23,2.2,-2.66,1,3
16579.281,0.367,0.417,0.838,7.75,2.04,-2.59,1,3
16579.296,0.382,0.409,0.85,10.16,2.01,-3.27,1,3
16579.312,0.402,0.404,0.868,15.29,2.23,-3.05,1,3
16579.312,0.422,0.434,0.858,25.33,2.78,-2.23,1,3
16579.328,0.447,0.46,0.894,49.78,4.46,-3.08,1,3
16579.343,0.446,0.43,0.91,58.96,2.26,-8.51,1,3
16579.343,0.452,0.372,0.906,68.67,2.44,-14.22,1,3
16579.359,0.484,0.333,0.885,76.3,4.33,-21.76,1,3
16579.359,0.485,0.326,0.877,79.62,5.4,-31.5,1,3
16579.375,0.47,0.343,0.863,77.67,3.72,-42.79,1,3
16579.39,0.469,0.388,0.853,73.73,-0.12,-53.87,1,3
16579.39,0.454,0.467,0.852,61.71,-6.44,-54.2,1,3
16579.406,0.422,0.476,0.831,41.29,-15.87,-57.01,1,3
16579.421,0.428,0.421,0.801,22.0,-24.78,-63.33,1,3
16579.437,0.435,0.444,0.783,1.74,-31.07,-61.95,1,3
16579.437,0.338,0.324,0.79,-11.84,-33.66,-69.15,1,3
16579.453,0.453,0.454,0.727,-13.95,-32.01,-83.04,1,3
16579.453,0.416,0.589,0.725,-27.28,-27.74,-79.78,1,3
16579.468,0.385,0.526,0.687,-36.84,-21.67,-84.78,1,3
16579.484,0.359,0.428,0.695,-47.33,-14.98,-80.54,1,3
16579.484,0.372,0.471,0.698,-51.48,-5.46,-83.99,1,3
16579.5,0.376,0.542,0.677,-56.92,1.19,-87.53,1,3
16579.515,0.32,0.482,0.662,-61.98,7.45,-93.78,1,3
16579.515,0.295,0.422,0.683,-62.5,16.85,-99.92,1,3
16579.531,0.29,0.505,0.71,-62.99,22.98,-99.67,1,3
16579.531,0.203,0.503,0.725,-62.41,22.71,-99.67,1,3
16579.546,0.171,0.465,0.749,-58.08,22.28,-96.68,1,3
16579.562,0.145,0.49,0.789,-51.64,21.52,-89.18,1,3
16579.562,0.111,0.532,0.821,-41.17,18.1,-81.06,1,3
16579.578,0.086,0.534,0.831,-27.34,12.18,-69.46,1,3
16579.593,0.089,0.553,0.83,-12.21,7.02,-56.43,1,3
16579.593,0.09,0.583,0.831,2.2,2.87,-44.98,1,3
16579.609,0.081,0.587,0.808,12.97,0.24,-36.74,1,3
16579.609,0.112,0.597,0.79,18.65,0.58,-30.61,1,3
16579.625,0.101,0.637,0.798,15.2,1.56,-25.45,1,3
16579.64,0.091,0.64,0.803,7.87,2.53,-23.1,1,3
16579.656,0.077,0.63,0.816,-0.18,2.66,-21.36,1,3
16579.656,0.071,0.622,0.827,-5.65,1.37,-19.56,1,3
16579.671,0.067,0.615,0.839,-10.13,-3.11,-16.21,1,3
16579.671,0.068,0.594,0.84,-12.3,-8.82,-12.36,1,3
16579.687,0.09,0.57,0.833,-11.6,-13.82,-8.67,1,3
16579.703,0.104,0.545,0.814,-9.25,-16.91,-5.68,1,3
16579.703,0.124,0.528,0.79,-6.62,-17.0,-4.79,1,3
16579.718,0.147,0.517,0.775,-4.03,-14.01,-5.31,1,3
16579.718,0.151,0.506,0.763,-0.31,-8.79,-6.26,1,3
16579.734,0.162,0.506,0.768,2.44,-4.43,-5.83,1,3
16579.75,0.157,0.518,0.781,3.48,-0.92,-5.01,1,3
16579.75,0.158,0.523,0.796,4.09,2.08,-4.61,1,3
16579.765,0.165,0.531,0.806,3.17,4.43,-4.94,1,3
16579.781,0.168,0.541,0.821,1.22,6.93,-6.07,1,3
16579.781,0.16,0.544,0.838,-0.61,7.9,-6.65,1,3
16579.796,0.17,0.545,0.855,-1.53,7.39,-7.26,1,3
16579.812,0.169,0.539,0.863,-2.23,5.4,-7.17,1,3
16579.812,0.18,0.527,0.863,-2.01,3.72,-7.05,1,3
16579.828,0.192,0.523,0.859,-1.77,0.98,-5.04,1,3
16579.843,0.207,0.518,0.853,-0.61,-0.95,-3.63,1,3
16579.843,0.222,0.509,0.844,0.67,-1.92,-2.9,1,3
16579.859,0.228,0.506,0.836,1.16,-2.38,-2.72,1,3
16579.859,0.243,0.504,0.824,1.16,-2.26,-2.23,1,3
16579.875,0.245,0.498,0.82,0.98,-1.53,-2.5,1,3
16579.89,0.255,0.503,0.823,-1.13,-1.43,-3.69,1,3
16579.89,0.255,0.509,0.836,-3.51,-1.62,-4.88,1,3
16579.906,0.25,0.51,0.829,-5.01,-2.2,-5.1,1,3
16579.921,0.245,0.512,0.816,-5.86,-2.11,-3.97,1,3
16579.921,0.24,0.502,0.814,-6.38,-1.28,-2.9,1,3
16579.937,0.239,0.494,0.814,-7.75,-0.4,-2.69,1,3
16579.953,0.247,0.487,0.812,-10.07,0.09,-3.81,1,3
16579.953,0.257,0.477,0.811,-13.31,0.58,-6.04,1,3
16579.968,0.263,0.481,0.814,-16.36,1.59,-8.76,1,3
16579.984,0.255,0.493,0.824,-18.56,3.39,-11.11,1,3
16579.984,0.24,0.488,0.825,-20.08,5.28,-12.42,1,3
16580.0,0.222,0.472,0.826,-21.45,6.53,-14.07,1,3
16580.0,0.205,0.468,0.824,-24.35,7.02,-16.88,1,3
16580.015,0.191,0.457,0.819,-28.53,7.29,-20.57,1,3
16580.031,0.182,0.459,0.819,-34.18,8.0,-24.66,1,3
16580.031,0.162,0.464,0.806,-39.89,9.86,-28.32,1,3
16580.046,0.15,0.456,0.815,-44.83,12.57,-29.6,1,3
16580.062,0.119,0.47,0.833,-46.75,15.81,-29.91,1,3
16580.062,0.102,0.455,0.843,-45.05,18.07,-29.18,1,3
16580.078,0.087,0.435,0.854,-41.11,20.08,-28.35,1,3
16580.093,0.068,0.431,0.857,-35.34,21.91,-29.11,1,3
16580.093,0.057,0.422,0.895,-29.27,22.68,-29.45,1,3
16580.109,-0.033,0.49,0.946,-24.02,21.33,-29.85,1,3
16580.109,-0.09,0.579,0.988,-24.14,12.63,-24.32,1,3
16580.125,-0.048,0.608,0.985,-26.31,0.67,-16.51,1,3
16580.14,-0.05,0.54,0.955,-27.5,-7.17,-9.52,1,3
16580.14,-0.035,0.517,0.931,-32.17,-12.79,-5.13,1,3
16580.156,0.005,0.487,0.898,-33.36,-13.95,-3.02,1,3
16580.171,0.04,0.396,0.835,-27.77,-9.58,-2.5,1,3
16580.171,-0.035,0.381,0.867,-21.76,-3.42,-3.78,1,3
16580.187,0.011,0.505,0.903,-27.07,-6.04,-0.85,1,3
16580.203,0.054,0.427,0.877,-24.54,-6.32,2.35,1,3
16580.203,0.033,0.381,0.862,-23.77,-4.73,3.66,1,3
16580.218,0.065,0.381,0.872,-24.72,-3.6,4.43,1,3
16580.218,0.056,0.381,0.879,-20.2,-1.19,2.35,1,3
16580.234,0.021,0.381,0.895,-14.62,0.95,1.46,1,3
16580.25,0.019,0.409,0.924,-10.28,-0.4,2.93,1,3
16580.25,0.011,0.424,0.93,-6.07,-4.0,6.07,1,3
16580.265,0.017,0.414,0.927,-1.4,-7.14,9.58,1,3
16580.281,0.031,0.413,0.913,2.69,-9.16,12.24,1,3
16580.281,0.046,0.417,0.902,4.49,-9.8,14.25,1,3
16580.296,0.058,0.42,0.898,4.12,-10.16,15.66,1,3
16580.312,0.073,0.415,0.9,-0.82,-12.94,15.96,1,3
16580.312,0.083,0.416,0.898,-4.49,-13.98,15.63,1,3
16580.328,0.094,0.416,0.899,-10.13,-16.48,15.9,1,3
16580.343,0.14,0.448,0.938,-16.54,-21.73,19.2,1,3
16580.343,0.155,0.3,0.892,-4.12,-19.32,21.36,1,3
16580.359,0.129,0.34,0.952,-3.23,-17.91,22.37,1,3
16580.375,0.151,0.435,0.995,-0.52,-21.0,25.7,1,3
16580.375,0.145,0.397,0.914,17.88,-21.42,31.43,1,3
16580.39,0.172,0.382,0.94,16.72,-21.97,32.78,1,3
16580.406,0.196,0.4,0.944,11.69,-25.03,30.82,1,3
16580.406,0.186,0.381,0.918,9.98,-27.68,28.29,1,3
16580.421,0.202,0.375,0.899,7.11,-29.94,26.55,1,3
16580.421,0.212,0.367,0.888,4.85,-31.37,24.17,1,3
16580.437,0.216,0.359,0.889,4.73,-31.31,22.71,1,3
16580.453,0.223,0.354,0.885,6.93,-30.18,22.89,1,3
16580.453,0.233,0.352,0.878,10.1,-28.2,22.52,1,3
16580.468,0.246,0.354,0.875,13.06,-25.7,21.3,1,3
16580.484,0.256,0.367,0.867,15.14,-22.43,18.46,1,3
16580.484,0.259,0.372,0.858,16.24,-19.38,15.2,1,3
16580.5,0.253,0.383,0.856,16.05,-17.27,12.33,1,3
16580.5,0.252,0.396,0.858,15.02,-15.59,10.22,1,3
16580.515,0.25,0.407,0.86,13.09,-14.47,8.64,1,3
16580.531,0.245,0.414,0.862,10.47,-13.55,7.69,1,3
16580.531,0.236,0.422,0.869,7.75,-13.09,7.05,1,3
16580.546,0.227,0.422,0.874,6.2,-13.61,6.93,1,3
16580.562,0.241,0.428,0.885,5.86,-14.25,8.06,1,3
16580.562,0.234,0.423,0.88,5.31,-15.5,10.19,1,3
16580.578,0.255,0.419,0.874,3.23,-17.33,12.02,1,3
16580.593,0.253,0.416,0.857,1.62,-18.43,11.05,1,3
16580.593,0.267,0.412,0.848,0.12,-18.43,9.83,1,3
16580.609,0.27,0.409,0.839,-1.77,-17.88,9.22,1,3
16580.625,0.286,0.409,0.838,-4.33,-17.0,8.64,1,3
16580.625,0.279,0.403,0.829,-5.95,-15.38,6.56,1,3
16580.64,0.281,0.403,0.829,-7.81,-13.79,4.03,1,3
16580.656,0.296,0.418,0.836,-9.55,-11.32,2.11,1,3
16580.656,0.287,0.416,0.837,-11.32,-8.88,1.1,1,3
16580.671,0.276,0.403,0.84,-13.79,-7.87,0.4,1,3
16580.671,0.274,0.402,0.844,-16.36,-8.03,-1.53,1,3
16580.687,0.292,0.414,0.851,-20.17,-7.97,-3.27,1,3
16580.703,0.29,0.408,0.857,-24.57,-7.42,-3.91,1,3
16580.703,0.292,0.382,0.872,-29.57,-7.78,-2.26,1,3
16580.718,0.295,0.357,0.888,-32.35,-9.31,-0.67,1,3
16580.734,0.308,0.338,0.898,-32.11,-11.32,-1.01,1,3
16580.734,0.314,0.326,0.904,-30.92,-13.15,-3.17,1,3
16580.75,0.318,0.31,0.909,-29.76,-14.4,-6.41,1,3
16580.75,0.322,0.306,0.909,-27.31,-15.02,-9.34,1,3
16580.765,0.318,0.298,0.901,-23.19,-14.59,-12.02,1,3
16580.781,0.323,0.294,0.892,-18.22,-13.25,-14.56,1,3
16580.781,0.32,0.297,0.879,-13.37,-10.38,-16.3,1,3
16580.796,0.31,0.303,0.87,-9.55,-7.23,-17.88,1,3
16580.812,0.303,0.315,0.873,-6.93,-4.46,-19.35,1,3
16580.812,0.292,0.326,0.879,-5.83,-2.44,-20.84,1,3
16580.828,0.284,0.335,0.884,-6.07,-1.59,-22.03,1,3
16580.843,0.277,0.344,0.892,-6.99,-1.5,-22.98,1,3
16580.843,0.273,0.351,0.901,-8.24,-2.26,-23.77,1,3
16580.859,0.265,0.356,0.909,-9.28,-3.78,-24.2,1,3
16580.875,0.258,0.365,0.916,-9.34,-5.77,-23.83,1,3
16580.875,0.257,0.369,0.915,-8.33,-7.81,-22.98,1,3
16580.89,0.256,0.37,0.904,-6.56,-9.0,-21.52,1,3
16580.89,0.254,0.367,0.892,-5.19,-9.31,-19.87,1,3
16580.906,0.257,0.366,0.884,-3.85,-8.73,-17.79,1,3
16580.921,0.262,0.368,0.877,-2.32,-7.23,-15.44,1,3
16580.937,0.27,0.372,0.874,-1.25,-5.52,-13.03,1,3
16580.937,0.275,0.367,0.874,-0.64,-4.0,-11.66,1,3
16580.953,0.276,0.36,0.879,-1.25,-3.54,-11.44,1,3
16580.953,0.281,0.366,0.886,-2.56,-3.91,-11.51,1,3
16580.968,0.281,0.371,0.893,-4.52,-4.33,-11.87,1,3
16580.984,0.278,0.36,0.89,-5.37,-5.04,-12.21,1,3
16580.984,0.28,0.352,0.887,-5.4,-5.34,-12.27,1,3
16581.0,0.277,0.352,0.883,-5.34,-5.19,-13.03,1,3
16581.0,0.281,0.356,0.883,-5.31,-4.88,-13.52,1,3
16581.015,0.28,0.359,0.879,-6.04,-4.12,-13.64,1,3
16581.031,0.278,0.354,0.883,-5.8,-3.45,-13.31,1,3
16581.046,0.282,0.369,0.891,-4.61,-2.32,-12.3,1,3
16581.046,0.276,0.369,0.885,-1.89,-0.82,-10.93,1,3
16581.062,0.273,0.365,0.88,-0.31,0.37,-9.89,1,3
16581.062,0.274,0.37,0.879,-1.07,1.1,-10.04,1,3
16581.078,0.264,0.355,0.876,-2.81,1.5,-10.59,1,3
16581.093,0.264,0.348,0.879,-4.97,1.8,-10.74,1,3
16581.093,0.257,0.355,0.887,-6.16,2.56,-10.19,1,3
16581.109,0.257,0.35,0.891,-6.26,3.54,-8.85,1,3
16581.109,0.25,0.352,0.897,-5.98,4.85,-7.26,1,3
16581.125,0.238,0.37,0.922,-6.1,5.07,-5.37,1,3
16581.14,0.241,0.371,0.934,-5.65,4.03,-3.23,1,3
16581.14,0.232,0.364,0.928,-4.67,2.44,-1.31,1,3
16581.156,0.27,0.367,0.865,-2.29,1.31,0.64,1,3
16581.171,0.263,0.277,0.854,3.48,5.71,1.71,1,3
16581.187,0.191,0.413,0.956,-5.86,4.15,0.46,1,3
16581.187,0.252,0.395,0.933,-5.22,-1.59,3.14,1,3
16581.203,0.231,0.35,0.895,-0.58,-4.06,3.88,1,3
16581.203,0.258,0.366,0.891,-1.71,-5.19,5.28,1,3
16581.218,0.264,0.36,0.874,0.03,-4.15,5.62,1,3
16581.234,0.256,0.348,0.876,0.27,-2.78,5.89,1,3
16581.234,0.262,0.352,0.897,-0.7,-2.75,5.86,1,3
16581.25,0.257,0.35,0.907,0.18,-3.63,5.19,1,3
16581.25,0.265,0.345,0.907,2.9,-4.3,4.94,1,3
16581.265,0.263,0.334,0.913,5.46,-4.61,4.33,1,3
16581.281,0.255,0.333,0.923,7.39,-5.74,3.91,1,3
16581.281,0.249,0.346,0.92,8.91,-9.06,5.49,1,3
16581.296,0.223,0.35,0.944,5.92,-13.92,7.11,1,3
16581.312,0.253,0.4,0.927,14.92,-12.15,8.51,1,3
16581.328,0.303,0.284,0.824,11.41,-6.96,6.9,1,3
16581.328,0.289,0.366,0.877,5.34,-4.82,7.23,1,3
16581.343,0.282,0.338,0.865,6.16,-3.08,6.68,1,3
16581.343,0.291,0.349,0.871,3.75,-1.65,6.53,1,3
16581.359,0.292,0.361,0.881,1.68,-0.85,5.4,1,3
16581.375,0.285,0.354,0.884,1.74,-0.64,4.21,1,3
16581.375,0.285,0.355,0.892,1.19,-0.55,3.54,1,3
16581.39,0.278,0.359,0.896,1.62,-0.92,2.93,1,3
16581.39,0.274,0.363,0.9,3.05,-1.4,3.14,1,3
16581.406,0.275,0.364,0.897,2.53,-2.35,2.9,1,3
16581.421,0.276,0.351,0.886,2.53,-3.11,1.89,1,3
16581.421,0.277,0.364,0.881,2.44,-3.33,1.77,1,3
16581.437,0.283,0.37,0.875,2.44,-3.23,2.32,1,3
16581.453,0.286,0.368,0.87,2.01,-2.41,2.59,1,3
16581.453,0.285,0.369,0.864,1.56,-1.34,2.81,1,3
16581.468,0.284,0.369,0.863,0.85,-0.24,3.14,1,3
16581.484,0.282,0.369,0.868,-0.37,0.58,3.39,1,3
16581.484,0.28,0.366,0.874,-2.11,1.13,3.27,1,3
16581.5,0.278,0.367,0.877,-3.3,1.43,3.3,1,3
16581.515,0.279,0.364,0.88,-3.69,2.01,3.78,1,3
16581.515,0.276,0.356,0.884,-4.09,2.29,4.09,1,3
16581.531,0.276,0.352,0.896,-4.76,1.92,3.85,1,3
16581.546,0.273,0.347,0.906,-5.19,0.89,3.23,1,3
16581.546,0.274,0.342,0.91,-5.46,-0.7,2.44,1,3
16581.562,0.274,0.34,0.907,-5.16,-2.17,1.5,1,3
16581.562,0.279,0.336,0.907,-4.36,-3.3,0.73,1,3
16581.578,0.277,0.335,0.897,-3.48,-3.85,-0.06,1,3
16581.593,0.282,0.334,0.892,-1.98,-4.0,-0.43,1,3
16581.593,0.282,0.341,0.889,-0.92,-3.54,-0.43,1,3
16581.609,0.283,0.341,0.886,0.18,-3.05,-0.52,1,3
16581.625,0.284,0.348,0.893,0.73,-2.56,-0.37,1,3
16581.625,0.283,0.348,0.89,1.4,-2.04,-0.64,1,3
16581.64,0.28,0.354,0.886,2.04,-1.62,-0.37,1,3
16581.64,0.279,0.357,0.887,2.26,-1.46,-0.49,1,3
16581.656,0.277,0.351,0.886,1.59,-1.8,-0.85,1,3
16581.671,0.276,0.354,0.885,0.43,-2.08,-1.25,1,3
16581.671,0.276,0.353,0.881,-0.24,-2.17,-1.28,1,3
16581.687,0.279,0.355,0.887,-0.61,-1.86,-0.7,1,3
16581.703,0.28,0.352,0.89,-0.49,-1.71,-0.46,1,3
16581.703,0.278,0.348,0.889,-0.15,-1.53,-0.18,1,3
16581.718,0.278,0.348,0.891,0.49,-1.56,0.0,1,3
16581.734,0.28,0.347,0.893,1.25,-1.53,0.31,1,3
16581.734,0.279,0.348,0.894,1.37,-1.43,0.4,1,3
16581.75,0.281,0.345,0.892,1.86,-1.74,0.09,1,3
16581.75,0.282,0.35,0.893,2.26,-2.04,0.21,1,3
16581.765,0.284,0.352,0.891,2.81,-2.14,0.12,1,3
16581.781,0.289,0.355,0.888,2.96,-2.38,-0.15,1,3
16581.781,0.288,0.355,0.882,3.08,-2.38,-0.27,1,3
16581.796,0.288,0.35,0.874,3.63,-2.11,-0.18,1,3
16581.812,0.294,0.355,0.871,3.6,-1.04,0.0,1,3
16581.812,0.291,0.352,0.87,3.33,0.0,-0.34,1,3
16581.828,0.289,0.35,0.874,2.93,1.07,-0.61,1,3
16581.843,0.289,0.357,0.877,2.35,1.92,-0.79,1,3
16581.843,0.29,0.356,0.883,2.14,2.32,-1.22,1,3
16581.859,0.291,0.352,0.885,1.77,2.44,-1.74,1,3
16581.859,0.292,0.355,0.888,0.61,2.2,-1.98,1,3
16581.875,0.295,0.347,0.883,0.85,2.29,-2.35,1,3
16581.89,0.302,0.342,0.88,1.83,3.17,-2.81,1,3
16581.89,0.294,0.342,0.875,2.29,5.13,-3.54,1,3
16581.906,0.279,0.344,0.882,1.22,6.68,-5.13,1,3
16581.921,0.271,0.348,0.882,1.22,7.66,-6.01,1,3
16581.921,0.258,0.36,0.882,0.52,8.03,-6.71,1,3
16581.937,0.256,0.378,0.885,-1.04,7.6,-6.62,1,3
16581.953,0.279,0.395,0.845,-1.43,7.6,-5.65,1,3
16581.953,0.304,0.305,0.814,2.81,12.51,-4.36,1,3
16581.968,0.181,0.426,0.93,-6.32,12.63,-6.47,1,3
16581.984,0.258,0.458,0.954,-12.27,4.82,-4.24,1,3
16581.984,0.229,0.386,0.897,-5.8,0.55,-2.75,1,3
16582.0,0.25,0.401,0.881,-7.17,-1.22,0.76,1,3
16582.0,0.256,0.385,0.884,-6.9,-0.76,3.57,1,3
16582.015,0.247,0.354,0.885,-7.72,-0.61,4.67,1,3
16582.031,0.259,0.356,0.897,-8.85,-1.59,5.16,1,3
16582.031,0.261,0.332,0.924,-7.17,-2.81,4.64,1,3
16582.046,0.264,0.308,0.949,-4.46,-4.33,4.33,1,3
16582.062,0.258,0.31,0.955,-0.92,-6.13,4.06,1,3
16582.062,0.254,0.306,0.949,4.21,-8.27,3.63,1,3
16582.078,0.233,0.3,0.974,7.29,-11.08,2.59,1,3
16582.093,0.262,0.361,0.948,6.44,-16.27,1.5,1,3
16582.093,0.314,0.264,0.83,18.43,-15.05,1.89,1,3
16582.109,0.269,0.324,0.829,18.89,-8.45,0.76,1,3
16582.125,0.291,0.382,0.86,14.98,-4.85,1.16,1,3
16582.125,0.274,0.371,0.849,15.63,-2.9,0.61,1,3
16582.14,0.28,0.399,0.855,11.38,-2.01,1.22,1,3
16582.14,0.279,0.422,0.868,8.18,-1.43,1.89,1,3
16582.156,0.271,0.41,0.869,6.29,-1.62,2.96,1,3
16582.171,0.279,0.409,0.87,2.59,-2.75,4.03,1,3
16582.171,0.278,0.4,0.865,-0.89,-3.69,4.12,1,3
16582.187,0.284,0.382,0.868,-3.66,-4.24,4.43,1,3
16582.203,0.286,0.372,0.871,-6.84,-4.49,4.61,1,3
16582.203,0.29,0.35,0.867,-6.87,-3.94,4.36,1,3
16582.218,0.29,0.354,0.878,-6.81,-2.5,4.39,1,3
16582.234,0.289,0.352,0.884,-5.95,-1.5,4.46,1,3
16582.234,0.287,0.342,0.888,-5.07,-0.73,3.91,1,3
16582.25,0.285,0.34,0.891,-4.12,-0.46,3.42,1,3
16582.265,0.282,0.339,0.894,-2.9,-0.31,2.9,1,3
16582.265,0.28,0.34,0.893,-1.71,-0.15,2.29,1,3
16582.281,0.278,0.339,0.893,0.52,-0.49,0.95,1,3
16582.281,0.278,0.342,0.898,0.92,-0.95,0.12,1,3
16582.296,0.277,0.347,0.9,1.37,-1.86,-0.34,1,3
16582.312,0.278,0.356,0.891,1.8,-2.29,-0.27,1,3
16582.312,0.279,0.362,0.89,2.38,-2.56,0.12,1,3
16582.328,0.282,0.368,0.89,2.53,-3.02,0.58,1,3
16582.343,0.282,0.369,0.886,2.32,-3.48,0.95,1,3
16582.343,0.281,0.364,0.883,2.14,-3.63,1.46,1,3
16582.359,0.278,0.362,0.883,1.92,-3.66,1.86,1,3
16582.359,0.283,0.366,0.887,1.22,-4.36,1.92,1,3
16582.375,0.282,0.362,0.884,0.46,-4.91,1.65,1,3
16582.39,0.284,0.357,0.878,0.03,-5.13,1.56,1,3
16582.39,0.291,0.357,0.873,0.18,-4.64,1.8,1,3
16582.406,0.289,0.361,0.872,0.64,-3.66,1.98,1,3
16582.421,0.29,0.359,0.875,0.61,-2.78,2.08,1,3
16582.421,0.292,0.358,0.876,0.46,-2.38,1.98,1,3
16582.437,0.294,0.36,0.876,0.27,-1.86,1.86,1,3
16582.453,0.291,0.357,0.873,0.15,-1.19,1.65,1,3
16582.453,0.295,0.359,0.876,-0.03,-0.73,1.89,1,3
16582.468,0.291,0.364,0.884,-0.27,-0.27,1.89,1,3
16582.484,0.292,0.36,0.892,-0.15,-0.37,2.04,1,3
16582.484,0.292,0.366,0.895,-0.24,-1.07,2.2,1,3
16582.5,0.289,0.359,0.894,-0.03,-1.89,2.04,1,3
16582.515,0.286,0.354,0.892,-0.03,-2.81,2.01,1,3
16582.515,0.286,0.35,0.89,0.18,-3.88,1.77,1,3
16582.531,0.293,0.35,0.883,0.12,-4.55,1.31,1,3
16582.531,0.292,0.348,0.877,-0.03,-4.15,0.76,1,3
16582.546,0.295,0.342,0.872,0.85,-3.36,0.61,1,3
16582.562,0.296,0.349,0.875,1.5,-2.11,0.55,1,3
16582.562,0.294,0.344,0.872,2.84,-1.28,-0.18,1,3
16582.578,0.297,0.359,0.879,3.33,-0.58,-0.64,1,3
16582.593,0.289,0.366,0.877,3.78,-0.27,-1.43,1,3
16582.593,0.292,0.368,0.88,3.94,0.03,-1.5,1,3
16582.609,0.289,0.376,0.876,3.54,0.18,-1.34,1,3
16582.625,0.292,0.372,0.872,3.66,0.15,-1.01,1,3
16582.625,0.294,0.377,0.871,2.69,0.49,-0.49,1,3
16582.64,0.29,0.368,0.873,1.77,0.7,-0.03,1,3
16582.64,0.291,0.367,0.878,0.73,0.95,0.95,1,3
16582.656,0.288,0.364,0.887,0.06,0.73,1.43,1,3
16582.671,0.289,0.359,0.892,-0.09,0.18,1.68,1,3
16582.671,0.286,0.357,0.895,-0.24,-0.55,1.71,1,3
16582.687,0.292,0.348,0.895,-0.03,-1.71,1.5,1,3
16582.703,0.293,0.35,0.888,0.37,-2.08,1.22,1,3
16582.703,0.293,0.344,0.882,1.65,-2.14,0.67,1,3
16582.718,0.295,0.348,0.881,3.23,-1.71,0.46,1,3
16582.718,0.293,0.35,0.877,4.52,-0.85,0.03,1,3
16582.734,0.293,0.357,0.878,5.55,-0.15,-0.43,1,3
16582.75,0.29,0.366,0.879,6.26,0.43,-0.82,1,3
16582.75,0.284,0.37,0.879,6.71,0.61,-0.98,1,3
16582.765,0.285,0.378,0.882,6.71,0.46,-0.7,1,3
16582.781,0.285,0.382,0.88,6.32,0.09,-0.15,1,3
16582.796,0.286,0.379,0.876,5.86,-0.34,0.58,1,3
16582.796,0.287,0.379,0.871,5.25,-0.24,1.34,1,3
16582.812,0.29,0.378,0.868,4.27,-0.18,1.77,1,3
16582.812,0.291,0.375,0.869,2.96,-0.18,1.95,1,3
16582.828,0.29,0.373,0.873,1.92,0.06,1.8,1,3
16582.828,0.29,0.37,0.879,1.16,-0.03,1.83,1,3
16582.843,0.291,0.368,0.88,1.19,-0.21,1.74,1,3
16582.859,0.294,0.365,0.88,1.77,-0.21,1.59,1,3
16582.859,0.294,0.365,0.881,2.96,0.0,1.4,1,3
16582.875,0.293,0.366,0.879,4.12,0.37,1.25,1,3
16582.89,0.291,0.367,0.873,5.04,0.7,1.13,1,3
16582.89,0.291,0.371,0.872,5.55,0.98,1.01,1,3
16582.906,0.293,0.377,0.871,5.74,1.25,0.79,1,3
16582.921,0.289,0.379,0.872,5.71,1.37,0.67,1,3
16582.921,0.285,0.383,0.871,5.1,1.34,0.52,1,3
16582.937,0.283,0.386,0.871,4.36,0.98,0.55,1,3
16582.953,0.283,0.388,0.873,3.51,0.46,0.7,1,3
16582.953,0.287,0.387,0.872,2.53,0.03,1.01,1,3
16582.968,0.287,0.38,0.872,1.71,-0.24,1.37,1,3
16582.968,0.291,0.376,0.874,1.16,-0.37,1.34,1,3
16582.984,0.291,0.375,0.879,0.98,-0.58,1.16,1,3
16583.0,0.288,0.372,0.878,1.07,-0.82,0.92,1,3
16583.0,0.289,0.371,0.877,1.31,-0.95,0.64,1,3
16583.015,0.289,0.37,0.874,1.95,-0.76,0.58,1,3
16583.031,0.29,0.368,0.871,2.93,-0.46,0.55,1,3
16583.031,0.29,0.369,0.873,3.85,0.15,0.37,1,3
16583.046,0.288,0.371,0.875,4.64,0.7,0.06,1,3
16583.062,0.287,0.377,0.876,5.13,0.85,-0.18,1,3
16583.062,0.285,0.384,0.875,5.49,0.7,-0.27,1,3
16583.078,0.282,0.389,0.872,5.71,0.4,0.0,1,3
16583.093,0.282,0.394,0.872,5.34,0.06,0.4,1,3
16583.093,0.283,0.396,0.871,4.67,-0.31,0.58,1,3
16583.109,0.286,0.395,0.869,4.03,-0.73,0.73,1,3
16583.109,0.287,0.391,0.867,3.51,-0.85,0.89,1,3
16583.125,0.289,0.391,0.868,2.87,-1.01,1.16,1,3
16583.14,0.291,0.391,0.865,2.08,-0.98,1.22,1,3
16583.14,0.289,0.388,0.863,1.56,-0.73,1.04,1,3
16583.156,0.29,0.386,0.864,1.07,-0.43,0.95,1,3
16583.171,0.291,0.385,0.867,1.07,-0.09,1.1,1,3
16583.171,0.291,0.384,0.868,1.59,0.31,1.1,1,3
16583.187,0.289,0.381,0.869,1.92,0.58,0.95,1,3
16583.203,0.287,0.382,0.87,2.2,0.61,0.82,1,3
16583.203,0.286,0.385,0.874,2.35,0.58,0.61,1,3
16583.218,0.284,0.39,0.872,2.14,0.49,0.15,1,3
16583.234,0.283,0.391,0.87,1.98,0.18,-0.06,1,3
16583.234,0.281,0.39,0.87,1.56,-0.12,-0.27,1,3
16583.25,0.281,0.391,0.873,1.31,-0.37,-0.15,1,3
16583.25,0.282,0.395,0.871,1.04,-1.07,0.18,1,3
16583.265,0.282,0.392,0.871,0.67,-1.28,0.34,1,3
16583.281,0.285,0.39,0.871,0.4,-1.59,0.46,1,3
16583.281,0.286,0.39,0.868,0.27,-1.77,0.64,1,3
16583.296,0.288,0.388,0.867,0.4,-1.5,0.7,1,3
16583.312,0.291,0.386,0.868,0.58,-1.25,0.67,1,3
16583.328,0.291,0.386,0.865,0.85,-1.13,0.61,1,3
16583.328,0.289,0.386,0.865,0.98,-1.01,0.4,1,3
16583.343,0.29,0.386,0.867,1.1,-0.61,0.21,1,3
16583.343,0.286,0.388,0.868,1.07,-0.31,0.15,1,3
16583.359,0.286,0.392,0.871,1.07,-0.34,0.06,1,3
16583.359,0.287,0.393,0.871,1.13,-0.64,0.21,1,3
16583.375,0.286,0.392,0.868,1.31,-0.61,0.46,1,3
16583.39,0.283,0.394,0.867,1.37,-0.37,0.43,1,3
16583.39,0.285,0.392,0.864,1.31,-0.24,0.7,1,3
16583.406,0.287,0.392,0.862,0.92,-0.34,0.85,1,3
16583.421,0.287,0.392,0.864,0.67,-0.12,0.79,1,3
16583.421,0.287,0.391,0.865,0.34,0.12,0.82,1,3
16583.437,0.285,0.39,0.869,0.49,0.31,0.95,1,3
16583.453,0.287,0.391,0.871,0.4,0.24,0.98,1,3
16583.453,0.286,0.391,0.872,0.27,0.15,0.79,1,3
16583.468,0.284,0.391,0.87,0.31,-0.21,0.61,1,3
16583.468,0.285,0.391,0.871,0.21,-0.64,0.73,1,3
16583.484,0.288,0.394,0.874,0.21,-0.73,0.85,1,3
16583.5,0.285,0.393,0.87,0.43,-1.01,0.7,1,3
16583.515,0.286,0.39,0.87,0.67,-1.19,0.76,1,3
16583.515,0.287,0.393,0.869,0.7,-1.53,0.79,1,3
16583.531,0.285,0.394,0.865,0.46,-1.56,0.7,1,3
16583.546,0.286,0.392,0.861,0.46,-1.31,0.61,1,3
16583.546,0.287,0.391,0.861,0.31,-0.92,0.76,1,3
16583.562,0.288,0.39,0.864,0.15,-0.43,0.85,1,3
16583.562,0.288,0.389,0.865,-0.12,-0.15,0.92,1,3
16583.578,0.287,0.387,0.867,-0.31,-0.03,0.73,1,3
16583.593,0.287,0.389,0.868,-0.43,-0.15,0.46,1,3
16583.593,0.284,0.388,0.871,-0.64,-0.4,0.18,1,3
16583.609,0.286,0.388,0.874,-0.98,-0.7,-0.03,1,3
16583.625,0.285,0.388,0.873,-1.13,-0.98,-0.37,1,3
16583.625,0.285,0.389,0.875,-0.98,-1.4,-0.43,1,3
16583.64,0.285,0.391,0.873,-0.79,-1.68,-0.46,1,3
16583.64,0.287,0.391,0.872,-0.4,-1.89,-0.37,1,3
16583.656,0.287,0.392,0.871,-0.27,-2.11,-0.4,1,3
16583.671,0.287,0.393,0.866,-0.12,-2.26,-0.43,1,3
16583.671,0.287,0.392,0.864,0.0,-2.04,-0.31,1,3
16583.687,0.288,0.393,0.862,-0.03,-1.77,-0.15,1,3
16583.703,0.291,0.392,0.864,-0.21,-1.43,-0.06,1,3
16583.703,0.29,0.394,0.863,-0.55,-1.07,0.06,1,3
16583.718,0.288,0.391,0.862,-0.82,-0.73,0.15,1,3
16583.718,0.289,0.388,0.866,-0.82,-0.46,0.37,1,3
16583.734,0.288,0.388,0.867,-0.95,-0.18,0.64,1,3
16583.75,0.287,0.385,0.869,-0.92,-0.06,0.58,1,3
16583.75,0.286,0.384,0.873,-0.82,0.03,0.58,1,3
16583.765,0.287,0.384,0.873,-0.43,0.09,0.58,1,3
16583.781,0.285,0.384,0.875,0.18,0.06,0.55,1,3
16583.781,0.284,0.386,0.876,0.73,-0.03,0.64,1,3
16583.796,0.285,0.388,0.873,1.1,-0.21,0.4,1,3
16583.812,0.287,0.387,0.87,1.56,-0.4,0.31,1,3
16583.812,0.288,0.387,0.868,1.86,-0.31,0.37,1,3
16583.828,0.287,0.389,0.868,2.11,-0.15,0.37,1,3
16583.843,0.288,0.392,0.868,2.2,-0.03,0.27,1,3
16583.843,0.287,0.395,0.867,2.26,0.03,0.21,1,3
16583.859,0.285,0.392,0.866,2.26,0.03,0.12,1,3
16583.859,0.284,0.394,0.864,1.95,0.12,0.18,1,3
16583.875,0.287,0.397,0.863,1.43,-0.15,0.27,1,3
16583.89,0.287,0.396,0.867,0.64,-0.12,0.27,1,3
16583.89,0.286,0.394,0.869,0.31,-0.09,0.46,1,3
16583.906,0.282,0.39,0.872,0.55,-0.18,0.73,1,3
16583.921,0.281,0.392,0.875,0.76,-0.58,0.85,1,3
16583.921,0.285,0.391,0.873,0.58,-1.1,0.76,1,3
16583.937,0.284,0.389,0.871,0.34,-1.77,0.4,1,3
16583.953,0.287,0.388,0.867,0.18,-1.98,0.24,1,3
16583.953,0.291,0.391,0.864,0.18,-2.01,0.27,1,3
16583.968,0.292,0.393,0.862,0.0,-1.83,0.12,1,3
16583.984,0.292,0.394,0.861,-0.49,-1.65,-0.03,1,3
16583.984,0.29,0.393,0.859,-1.01,-1.4,-0.43,1,3
16584.0,0.287,0.395,0.86,-1.5,-1.01,-0.43,1,3
16584.0,0.29,0.393,0.863,-1.8,-0.73,-0.4,1,3
16584.015,0.286,0.39,0.868,-1.92,-0.52,-0.49,1,3
16584.031,0.284,0.388,0.871,-1.68,-0.18,-0.73,1,3
16584.031,0.284,0.387,0.871,-1.34,-0.24,-0.61,1,3
16584.046,0.28,0.386,0.874,-0.79,-0.43,-0.43,1,3
16584.062,0.279,0.388,0.877,-0.61,-0.64,-0.21,1,3
16584.078,0.281,0.388,0.878,-0.46,-0.98,-0.06,1,3
16584.078,0.281,0.389,0.877,-0.12,-1.4,0.09,1,3
16584.093,0.285,0.388,0.873,0.4,-1.65,0.58,1,3
16584.093,0.288,0.388,0.869,1.01,-1.74,0.98,1,3
16584.109,0.291,0.388,0.868,1.25,-1.53,1.16,1,3
16584.109,0.292,0.387,0.864,1.28,-1.16,1.04,1,3
16584.125,0.293,0.387,0.861,1.31,-1.04,0.92,1,3
16584.14,0.295,0.389,0.859,1.1,-0.37,0.58,1,3
16584.156,0.292,0.391,0.862,0.98,0.34,0.4,1,3
16584.156,0.289,0.391,0.861,1.01,0.98,0.43,1,3
16584.171,0.289,0.391,0.864,1.07,1.37,0.49,1,3
16584.171,0.286,0.395,0.867,1.04,1.59,0.55,1,3
16584.187,0.285,0.396,0.873,0.89,1.28,0.58,1,3
16584.203,0.283,0.397,0.873,0.52,0.89,0.49,1,3
16584.203,0.28,0.396,0.871,0.34,0.55,0.52,1,3
16584.218,0.281,0.395,0.868,0.52,0.15,0.76,1,3
16584.218,0.285,0.396,0.866,0.49,-0.06,0.89,1,3
16584.234,0.282,0.395,0.866,0.15,-0.34,0.73,1,3
16584.25,0.281,0.393,0.866,-0.31,-0.24,0.67,1,3
16584.25,0.284,0.392,0.866,-0.67,-0.12,0.49,1,3
16584.265,0.284,0.392,0.866,-0.79,-0.03,0.55,1,3
16584.281,0.282,0.388,0.871,-0.73,-0.06,0.55,1,3
16584.281,0.281,0.386,0.876,-0.7,-0.34,0.55,1,3
16584.296,0.28,0.383,0.881,-0.34,-0.82,0.34,1,3
16584.312,0.281,0.383,0.882,0.06,-1.53,0.21,1,3
16584.312,0.283,0.382,0.878,0.58,-2.08,-0.09,1,3
16584.328,0.282,0.385,0.873,1.25,-2.53,-0.49,1,3
16584.343,0.285,0.388,0.869,1.65,-2.93,-0.64,1,3
16584.343,0.288,0.393,0.865,1.74,-3.08,-0.79,1,3
16584.359,0.292,0.396,0.86,1.56,-2.93,-0.95,1,3
16584.375,0.291,0.398,0.857,1.04,-2.59,-1.07,1,3
16584.375,0.29,0.398,0.856,0.31,-2.38,-1.22,1,3
16584.39,0.29,0.399,0.858,-0.4,-2.08,-1.25,1,3
16584.39,0.287,0.397,0.859,-0.92,-1.68,-1.13,1,3
16584.406,0.285,0.398,0.862,-1.31,-1.25,-0.92,1,3
16584.421,0.284,0.395,0.866,-1.43,-0.98,-0.67,1,3
16584.421,0.282,0.392,0.867,-1.5,-0.79,-0.31,1,3
16584.437,0.28,0.388,0.871,-1.4,-0.61,0.03,1,3
16584.453,0.282,0.385,0.873,-1.46,-0.64,0.31,1,3
16584.453,0.283,0.386,0.873,-1.19,-0.7,0.46,1,3
16584.468,0.281,0.382,0.873,-0.58,-0.73,0.46,1,3
16584.468,0.286,0.383,0.873,0.06,-0.73,0.64,1,3
16584.484,0.287,0.384,0.873,0.82,-0.7,0.82,1,3
16584.5,0.285,0.386,0.87,1.34,-0.61,0.92,1,3
16584.515,0.287,0.388,0.868,1.74,-0.43,1.04,1,3
16584.515,0.288,0.391,0.868,1.89,-0.37,0.98,1,3
16584.531,0.289,0.394,0.865,2.04,-0.34,0.82,1,3
16584.531,0.289,0.393,0.866,2.08,-0.21,0.82,1,3
16584.546,0.288,0.393,0.864,2.17,-0.03,0.95,1,3
16584.562,0.288,0.395,0.862,2.14,0.12,0.89,1,3
16584.562,0.287,0.399,0.863,1.8,0.18,0.7,1,3
16584.578,0.286,0.398,0.862,1.4,0.27,0.7,1,3
16584.593,0.287,0.399,0.862,0.98,0.27,0.64,1,3
16584.593,0.285,0.4,0.865,0.34,0.27,0.49,1,3
16584.609,0.284,0.398,0.865,-0.06,0.24,0.55,1,3
16584.609,0.284,0.396,0.865,-0.24,0.27,0.67,1,3
16584.625,0.284,0.396,0.865,-0.61,0.15,0.73,1,3
16584.64,0.285,0.393,0.866,-1.07,0.18,0.34,1,3
16584.64,0.283,0.391,0.869,-1.25,0.21,0.21,1,3
16584.656,0.283,0.389,0.872,-1.16,-0.03,0.34,1,3
16584.671,0.283,0.389,0.876,-0.92,-0.24,0.27,1,3
16584.671,0.28,0.387,0.877,-0.64,-0.58,0.12,1,3
16584.687,0.282,0.385,0.879,-0.37,-1.1,-0.24,1,3
16584.703,0.283,0.385,0.879,0.24,-1.71,-0.52,1,3
16584.703,0.282,0.386,0.876,0.95,-2.14,-0.76,1,3
16584.718,0.283,0.387,0.873,1.59,-2.32,-0.85,1,3
16584.734,0.283,0.391,0.87,2.17,-2.47,-1.07,1,3
16584.734,0.287,0.397,0.865,2.01,-2.72,-1.1,1,3
16584.75,0.287,0.397,0.861,1.37,-2.78,-1.22,1,3
16584.75,0.288,0.399,0.859,0.76,-2.59,-1.5,1,3
16584.765,0.288,0.4,0.857,0.15,-2.26,-1.53,1,3
16584.781,0.287,0.4,0.86,-0.46,-1.77,-1.04,1,3
16584.781,0.282,0.397,0.865,-0.95,-1.31,-0.7,1,3
16584.796,0.283,0.395,0.87,-1.13,-1.37,-0.43,1,3
16584.812,0.282,0.393,0.872,-1.1,-1.53,-0.03,1,3
16584.812,0.282,0.388,0.872,-0.79,-1.5,0.18,1,3
16584.828,0.283,0.386,0.872,-0.18,-1.28,0.58,1,3
16584.828,0.284,0.384,0.872,0.64,-1.31,0.95,1,3
16584.843,0.286,0.382,0.87,1.65,-1.07,1.19,1,3
16584.859,0.288,0.385,0.871,2.56,-0.82,1.34,1,3
16584.859,0.29,0.389,0.871,3.23,-0.82,1.28,1,3
16584.875,0.289,0.391,0.868,3.78,-0.64,1.19,1,3
16584.89,0.29,0.392,0.864,4.18,-0.46,0.98,1,3
16584.906,0.291,0.395,0.861,4.24,-0.21,0.95,1,3
16584.906,0.289,0.398,0.856,3.94,0.06,0.7,1,3
16584.921,0.289,0.401,0.856,3.54,0.27,0.55,1,3
16584.921,0.289,0.405,0.857,3.05,0.61,0.52,1,3
16584.937,0.286,0.408,0.859,2.2,0.89,0.46,1,3
16584.953,0.284,0.407,0.86,1.43,0.85,0.31,1,3
16584.953,0.285,0.406,0.86,0.67,0.73,0.15,1,3
16584.968,0.285,0.406,0.861,0.03,0.34,0.21,1,3
16584.968,0.282,0.406,0.862,-0.52,0.21,0.09,1,3
16584.984,0.281,0.406,0.865,-1.13,-0.09,0.03,1,3
16585.0,0.282,0.403,0.866,-1.46,-0.58,0.03,1,3
16585.0,0.281,0.401,0.866,-1.83,-0.92,0.18,1,3
16585.015,0.283,0.398,0.867,-1.98,-1.01,0.34,1,3
16585.031,0.285,0.393,0.869,-1.8,-0.85,0.46,1,3
16585.031,0.285,0.391,0.867,-1.34,-0.73,0.37,1,3
16585.046,0.284,0.389,0.869,-0.95,-0.58,0.43,1,3
16585.062,0.282,0.386,0.874,-0.82,-0.61,0.37,1,3
16585.062,0.284,0.386,0.876,-0.67,-0.89,0.09,1,3
16585.078,0.284,0.388,0.876,-0.18,-1.34,-0.27,1,3
16585.093,0.287,0.388,0.876,0.55,-1.83,-0.55,1,3
16585.093,0.283,0.39,0.868,1.25,-1.89,-0.73,1,3
16585.109,0.29,0.395,0.867,2.01,-1.77,-0.46,1,3
16585.125,0.287,0.401,0.864,1.98,-1.59,-0.61,1,3
16585.125,0.286,0.396,0.861,2.01,-1.71,-0.73,1,3
16585.14,0.29,0.403,0.858,1.56,-1.46,-0.67,1,3
16585.14,0.288,0.399,0.857,1.13,-1.01,-0.89,1,3
16585.156,0.289,0.401,0.857,0.76,-0.52,-0.55,1,3
16585.171,0.288,0.403,0.857,0.24,0.12,-0.49,1,3
16585.171,0.284,0.4,0.864,0.0,0.43,-0.27,1,3
16585.187,0.283,0.405,0.867,-0.24,0.27,-0.09,1,3
16585.203,0.284,0.4,0.868,-0.58,0.0,0.09,1,3
16585.218,0.286,0.399,0.868,-0.67,-0.21,0.34,1,3
16585.218,0.287,0.397,0.863,-0.67,-0.31,0.37,1,3
16585.218,0.286,0.392,0.865,-0.46,0.0,0.12,1,3
16585.25,0.287,0.392,0.865,-0.27,0.4,-0.09,1,3
16585.25,0.282,0.392,0.864,-0.06,0.52,-0.18,1,3
16585.25,0.283,0.401,0.869,-0.34,0.52,-0.03,1,3
16585.265,0.281,0.398,0.868,-0.03,0.43,-0.06,1,3
16585.281,0.282,0.4,0.866,0.09,0.34,0.15,1,3
16585.281,0.281,0.398,0.866,-0.06,0.31,0.15,1,3
16585.296,0.28,0.399,0.865,-0.24,0.15,0.24,1,3
16585.312,0.28,0.4,0.866,-0.46,-0.09,0.24,1,3
16585.312,0.28,0.399,0.868,-0.73,-0.24,0.31,1,3
16585.328,0.28,0.396,0.866,-1.07,-0.34,0.43,1,3
16585.343,0.281,0.394,0.871,-1.1,-0.49,0.34,1,3
16585.343,0.284,0.394,0.871,-0.98,-0.76,0.34,1,3
16585.359,0.283,0.394,0.871,-0.76,-0.85,0.21,1,3
16585.359,0.284,0.393,0.87,-0.4,-1.01,0.06,1,3
16585.375,0.285,0.396,0.869,-0.43,-0.98,-0.03,1,3
16585.39,0.282,0.389,0.867,0.24,-1.19,-0.37,1,3
16585.39,0.283,0.396,0.867,0.15,-0.95,-0.21,1,3
16585.406,0.283,0.396,0.869,0.09,-0.92,-0.37,1,3
16585.421,0.286,0.396,0.87,0.34,-1.01,-0.12,1,3
16585.437,0.283,0.4,0.868,0.24,-0.95,-0.09,1,3
16585.437,0.284,0.391,0.866,0.67,-1.19,-0.31,1,3
16585.453,0.286,0.398,0.862,0.4,-1.07,-0.37,1,3
16585.453,0.281,0.391,0.861,0.21,-0.76,-0.64,1,3
16585.468,0.283,0.392,0.865,0.15,-0.58,-0.46,1,3
16585.484,0.282,0.399,0.868,-0.06,-0.52,-0.43,1,3
16585.484,0.283,0.397,0.869,0.03,-0.58,-0.49,1,3
16585.5,0.286,0.401,0.867,0.0,-0.82,-0.37,1,3
16585.5,0.286,0.396,0.865,0.03,-0.85,-0.46,1,3
16585.515,0.286,0.394,0.864,0.15,-0.79,-0.52,1,3
16585.531,0.285,0.396,0.865,-0.03,-0.64,-0.73,1,3
16585.531,0.283,0.394,0.865,-0.18,-0.34,-0.95,1,3
16585.546,0.283,0.394,0.863,-0.18,0.09,-0.85,1,3
16585.562,0.281,0.396,0.867,-0.12,0.31,-0.98,1,3
16585.562,0.277,0.398,0.869,-0.18,0.37,-1.01,1,3
16585.578,0.275,0.401,0.873,-0.24,0.12,-0.89,1,3
16585.593,0.274,0.4,0.876,-0.34,-0.52,-0.64,1,3
16585.593,0.274,0.399,0.874,-0.46,-1.13,-0.37,1,3
16585.609,0.276,0.397,0.871,-0.43,-1.62,-0.24,1,3
16585.609,0.279,0.393,0.869,-0.15,-1.68,-0.03,1,3
16585.625,0.281,0.391,0.867,0.31,-1.53,0.06,1,3
16585.64,0.282,0.391,0.867,0.52,-1.22,-0.06,1,3
16585.656,0.285,0.392,0.868,0.76,-1.25,-0.27,1,3
16585.656,0.283,0.391,0.868,1.04,-1.13,-0.61,1,3
16585.671,0.285,0.396,0.87,1.37,-0.98,-0.79,1,3
16585.671,0.284,0.398,0.869,1.8,-0.98,-0.85,1,3
16585.687,0.283,0.398,0.867,2.01,-0.95,-0.89,1,3
16585.703,0.283,0.397,0.865,1.98,-0.92,-1.07,1,3
16585.703,0.28,0.398,0.865,1.74,-0.95,-1.16,1,3
16585.718,0.279,0.4,0.867,1.5,-1.16,-1.28,1,3
16585.734,0.277,0.402,0.868,1.22,-1.43,-1.25,1,3
16585.734,0.278,0.402,0.868,1.04,-1.59,-1.13,1,3
16585.75,0.277,0.4,0.868,1.07,-1.59,-0.92,1,3
16585.75,0.279,0.4,0.865,1.22,-1.74,-0.67,1,3
16585.765,0.277,0.399,0.866,1.1,-1.77,-0.61,1,3
16585.781,0.277,0.4,0.866,0.98,-1.74,-0.52,1,3
16585.781,0.28,0.399,0.867,0.98,-1.89,-0.4,1,3
16585.796,0.279,0.402,0.867,1.13,-2.04,-0.4,1,3
16585.812,0.279,0.402,0.866,1.04,-2.2,-0.37,1,3
16585.812,0.284,0.4,0.864,0.89,-2.35,-0.4,1,3
16585.828,0.283,0.4,0.861,0.89,-2.35,-0.37,1,3
16585.843,0.285,0.401,0.86,0.73,-2.11,-0.37,1,3
16585.843,0.285,0.401,0.861,0.61,-1.77,-0.49,1,3
16585.859,0.284,0.399,0.862,0.55,-1.56,-0.49,1,3
16585.875,0.283,0.403,0.862,0.52,-1.34,-0.37,1,3
16585.875,0.282,0.403,0.863,0.4,-1.34,-0.4,1,3
16585.89,0.282,0.403,0.863,0.06,-1.46,-0.43,1,3
16585.89,0.279,0.405,0.865,-0.15,-1.71,-0.21,1,3
16585.906,0.28,0.406,0.864,-0.55,-2.04,-0.06,1,3
16585.921,0.279,0.405,0.865,-1.01,-2.5,0.15,1,3
16585.921,0.281,0.406,0.864,-1.37,-2.75,0.21,1,3
16585.937,0.285,0.405,0.861,-1.62,-2.84,0.24,1,3
16585.953,0.288,0.401,0.862,-2.01,-2.84,0.43,1,3
16585.953,0.287,0.398,0.864,-2.23,-2.66,0.43,1,3
16585.968,0.286,0.395,0.867,-1.8,-2.47,0.49,1,3
16585.968,0.285,0.393,0.869,-1.22,-2.47,0.46,1,3
16585.984,0.283,0.39,0.872,-0.61,-2.32,0.37,1,3
16586.0,0.282,0.39,0.879,0.24,-2.53,0.24,1,3
16586.0,0.28,0.392,0.878,1.34,-3.02,0.24,1,3
16586.015,0.278,0.397,0.874,2.29,-3.6,0.43,1,3
16586.031,0.279,0.403,0.871,2.9,-4.27,0.73,1,3
16586.031,0.28,0.404,0.867,3.23,-4.79,1.01,1,3
16586.046,0.278,0.402,0.868,3.3,-5.13,1.43,1,3
16586.062,0.28,0.406,0.874,3.17,-5.65,1.83,1,3
16586.062,0.283,0.409,0.883,3.3,-6.62,1.98,1,3
16586.078,0.275,0.408,0.896,4.09,-8.45,2.38,1,3
16586.093,0.273,0.418,0.921,5.89,-11.51,3.91,1,3
16586.093,0.283,0.426,0.935,8.03,-15.87,5.34,1,3
16586.109,0.294,0.415,0.896,11.17,-19.65,6.93,1,3
16586.109,0.303,0.396,0.868,12.42,-21.97,8.58,1,3
16586.125,0.32,0.389,0.861,12.09,-23.5,9.06,1,3
16586.14,0.33,0.395,0.853,11.47,-24.48,7.63,1,3
16586.156,0.332,0.38,0.854,10.65,-25.39,5.25,1,3
16586.156,0.316,0.395,0.881,7.42,-27.71,2.62,1,3
16586.171,0.312,0.416,0.923,5.04,-32.29,1.1,1,3
