timestamp,ax,ay,az,gx,gy,gz,orient_label,motion_label
16610.109,0.283,-0.391,-0.885,0.61,-3.27,-7.23,1,3
16610.125,0.284,-0.386,-0.881,-0.76,-2.35,-4.55,1,3
16610.125,0.292,-0.391,-0.877,-2.17,-0.92,-1.37,1,3
16610.14,0.284,-0.394,-0.865,-2.96,0.98,1.53,1,3
16610.14,0.284,-0.413,-0.845,-3.17,1.43,4.09,1,3
16610.156,0.3,-0.431,-0.833,-2.01,0.61,4.94,1,3
16610.171,0.308,-0.453,-0.828,0.0,-0.95,2.72,1,3
16610.171,0.291,-0.461,-0.83,2.35,-2.53,-0.64,1,3
16610.187,0.285,-0.467,-0.847,3.75,-4.18,-3.48,1,3
16610.203,0.288,-0.473,-0.86,3.85,-4.94,-5.49,1,3
16610.203,0.304,-0.468,-0.862,3.45,-4.61,-7.45,1,3
16610.218,0.308,-0.459,-0.87,4.0,-3.69,-9.16,1,3
16610.234,0.31,-0.451,-0.863,3.94,-2.35,-9.77,1,3
16610.234,0.311,-0.426,-0.848,3.54,-0.85,-9.83,1,3
16610.25,0.301,-0.402,-0.842,2.78,-0.4,-8.85,1,3
16610.265,0.306,-0.408,-0.836,1.04,-1.07,-6.56,1,3
16610.265,0.325,-0.425,-0.845,0.79,-1.59,-4.0,1,3
16610.281,0.331,-0.435,-0.857,2.23,-0.52,-2.75,1,3
16610.296,0.335,-0.426,-0.839,2.69,0.15,-2.62,1,3
16610.312,0.33,-0.421,-0.816,2.14,0.46,-1.71,1,3
16610.312,0.32,-0.422,-0.806,1.65,0.06,0.0,1,3
16610.328,0.32,-0.445,-0.81,1.07,-1.74,1.65,1,3
16610.343,0.334,-0.477,-0.832,-0.12,-3.2,1.5,1,3
16610.343,0.348,-0.5,-0.845,0.55,-3.48,-0.85,1,3
16610.359,0.34,-0.506,-0.843,2.78,-2.72,-4.64,1,3
16610.359,0.324,-0.49,-0.832,4.73,-2.11,-8.58,1,3
16610.375,0.314,-0.465,-0.828,6.35,-2.35,-11.26,1,3
16610.39,0.315,-0.456,-0.829,7.45,-3.17,-12.02,1,3
16610.406,0.323,-0.44,-0.834,8.51,-3.63,-11.96,1,3
16610.406,0.319,-0.424,-0.845,8.09,-3.3,-10.8,1,3
16610.421,0.323,-0.417,-0.846,5.34,-2.75,-8.27,1,3
16610.421,0.327,-0.421,-0.838,2.96,-2.62,-6.59,1,3
16610.437,0.318,-0.409,-0.835,2.53,-2.72,-5.52,1,3
16610.453,0.311,-0.4,-0.848,2.96,-3.97,-2.04,1,3
16610.468,0.319,-0.41,-0.867,1.92,-3.45,0.09,1,3
16610.484,0.321,-0.428,-0.88,0.67,-2.14,1.83,1,3
16610.484,0.321,-0.45,-0.875,-0.15,-0.46,2.47,1,3
16610.5,0.312,-0.466,-0.852,0.09,1.07,1.98,1,3
16610.5,0.305,-0.464,-0.836,1.37,1.34,0.79,1,3
16610.515,0.311,-0.453,-0.824,2.75,0.79,-0.82,1,3
16610.531,0.311,-0.449,-0.823,3.42,-0.27,-2.08,1,3
16610.531,0.315,-0.448,-0.827,3.57,-1.28,-2.35,1,3
16610.546,0.315,-0.45,-0.829,3.81,-1.98,-2.26,1,3
16610.562,0.311,-0.452,-0.839,3.54,-2.2,-1.37,1,3
16610.562,0.315,-0.455,-0.849,2.69,-2.08,-0.61,1,3
16610.578,0.32,-0.46,-0.848,2.04,-1.25,-0.7,1,3
16610.593,0.318,-0.455,-0.843,1.86,0.09,-0.55,1,3
16610.593,0.316,-0.445,-0.834,1.56,0.89,-0.31,1,3
16610.609,0.31,-0.446,-0.826,1.22,0.79,-0.49,1,3
16610.625,0.312,-0.453,-0.835,3.05,-0.64,-0.37,1,3
16610.64,0.323,-0.444,-0.85,3.75,-1.1,-0.98,1,3
16610.64,0.318,-0.438,-0.85,3.66,-0.98,-2.35,1,3
16610.656,0.309,-0.431,-0.847,4.46,-0.7,-3.42,1,3
16610.671,0.301,-0.415,-0.848,6.01,-0.21,-3.57,1,3
16610.671,0.301,-0.407,-0.847,6.65,-0.03,-2.32,1,3
16610.687,0.29,-0.407,-0.855,6.62,0.06,-1.13,1,3
16610.703,0.281,-0.401,-0.878,6.65,0.34,0.0,1,3
16610.703,0.28,-0.386,-0.888,6.44,1.31,1.25,1,3
16610.718,0.278,-0.388,-0.892,5.98,2.72,3.36,1,3
16610.734,0.279,-0.392,-0.876,5.34,4.55,5.43,1,3
16610.734,0.268,-0.4,-0.858,6.01,5.83,7.54,1,3
16610.75,0.268,-0.404,-0.853,7.14,5.86,8.33,1,3
16610.75,0.268,-0.411,-0.842,8.51,4.91,7.26,1,3
16610.765,0.263,-0.399,-0.85,11.6,4.0,5.86,1,3
16610.781,0.26,-0.362,-0.865,13.21,3.66,5.4,1,3
16610.796,0.27,-0.315,-0.869,13.55,3.78,5.68,1,3
16610.812,0.269,-0.277,-0.859,17.76,5.07,9.09,1,3
16610.812,0.269,-0.255,-0.834,21.03,4.15,12.54,1,3
16610.828,0.273,-0.223,-0.814,23.41,1.77,17.06,1,3
16610.843,0.181,-0.221,-0.856,22.83,-1.65,23.44,1,3
16610.843,0.181,-0.239,-0.908,23.29,-2.9,31.28,1,3
16610.859,0.202,-0.249,-0.956,22.13,-0.24,39.43,1,3
16610.875,0.206,-0.266,-0.954,18.16,5.43,45.5,1,3
16610.875,0.193,-0.277,-0.903,16.21,11.44,49.32,1,3
16610.89,0.201,-0.288,-0.847,16.63,14.5,51.06,1,3
16610.906,0.192,-0.288,-0.796,20.26,13.58,51.06,1,3
16610.906,0.136,-0.293,-0.787,25.12,10.04,51.91,1,3
16610.921,0.096,-0.325,-0.827,25.33,4.58,55.06,1,3
16610.937,0.11,-0.362,-0.877,22.8,1.62,58.75,1,3
16610.937,0.137,-0.408,-0.924,19.96,3.66,60.88,1,3
16610.953,0.168,-0.446,-0.943,17.82,10.1,60.82,1,3
16610.968,0.201,-0.474,-0.858,20.51,26.92,53.25,1,3
16610.984,0.224,-0.496,-0.794,23.96,29.33,46.63,1,3
16610.984,0.249,-0.505,-0.716,29.88,28.05,38.39,1,3
16611.0,0.272,-0.503,-0.631,37.81,25.54,29.08,1,3
16611.015,0.289,-0.495,-0.554,44.92,21.06,20.29,1,3
16611.015,0.298,-0.488,-0.492,51.48,13.82,11.69,1,3
16611.031,0.301,-0.49,-0.462,59.79,4.85,3.6,1,3
16611.031,0.281,-0.504,-0.451,69.19,-5.83,-3.66,1,3
16611.046,0.285,-0.519,-0.459,78.95,-16.54,-9.92,1,3
16611.062,0.285,-0.519,-0.485,87.77,-24.32,-15.05,1,3
16611.062,0.287,-0.529,-0.515,92.75,-29.33,-18.07,1,3
16611.078,0.303,-0.538,-0.524,94.55,-31.62,-19.99,1,3
16611.093,0.315,-0.535,-0.495,96.84,-31.98,-22.1,1,3
16611.093,0.325,-0.535,-0.45,99.58,-31.95,-25.09,1,3
16611.109,0.333,-0.543,-0.39,104.07,-32.56,-28.87,1,3
16611.125,0.308,-0.567,-0.351,110.08,-33.66,-31.86,1,3
16611.125,0.294,-0.588,-0.347,114.32,-36.47,-33.02,1,3
16611.14,0.267,-0.581,-0.309,116.15,-41.11,-32.17,1,3
16611.156,0.221,-0.598,-0.288,116.18,-47.85,-29.27,1,3
16611.156,0.225,-0.635,-0.288,113.65,-56.76,-25.03,1,3
16611.171,0.283,-0.661,-0.278,114.63,-63.17,-22.86,1,3
16611.171,0.322,-0.672,-0.273,119.45,-65.0,-24.23,1,3
16611.187,0.343,-0.671,-0.261,122.96,-64.94,-28.05,1,3
16611.203,0.358,-0.673,-0.24,126.87,-64.27,-33.42,1,3
16611.203,0.297,-0.683,-0.262,130.59,-62.44,-37.29,1,3
16611.218,0.262,-0.701,-0.275,131.17,-62.69,-38.82,1,3
16611.234,0.261,-0.688,-0.27,132.94,-62.69,-39.64,1,3
16611.234,0.229,-0.657,-0.247,132.85,-62.62,-38.64,1,3
16611.25,0.253,-0.65,-0.212,129.49,-66.16,-35.89,1,3
16611.265,0.302,-0.648,-0.174,129.86,-68.36,-33.66,1,3
16611.265,0.319,-0.649,-0.151,133.85,-67.35,-32.26,1,3
16611.281,0.301,-0.657,-0.123,138.22,-65.28,-32.62,1,3
16611.296,0.209,-0.774,-0.153,149.45,-66.1,-35.49,1,3
16611.312,0.219,-0.844,-0.157,159.06,-70.22,-37.63,1,3
16611.312,0.253,-0.837,-0.16,171.94,-71.14,-43.34,1,3
16611.328,0.285,-0.797,-0.168,182.44,-69.83,-52.46,1,3
16611.343,0.312,-0.775,-0.14,187.99,-67.54,-62.47,1,3
16611.343,0.364,-0.74,-0.095,192.91,-62.81,-71.75,1,3
16611.359,0.389,-0.706,-0.083,199.65,-53.99,-78.1,1,3
16611.375,0.395,-0.656,-0.063,201.94,-45.66,-80.42,1,3
16611.375,0.401,-0.614,-0.02,199.32,-38.09,-79.44,1,3
16611.39,0.392,-0.588,0.031,195.26,-30.12,-75.2,1,3
16611.406,0.355,-0.583,0.072,191.14,-24.81,-68.36,1,3
16611.406,0.34,-0.59,0.124,186.62,-23.38,-58.17,1,3
16611.421,0.342,-0.614,0.176,181.55,-23.44,-44.07,1,3
16611.421,0.352,-0.659,0.206,174.93,-22.92,-27.5,1,3
16611.437,0.358,-0.695,0.22,164.43,-22.03,-11.26,1,3
16611.453,0.376,-0.722,0.229,153.17,-22.31,0.95,1,3
16611.453,0.395,-0.764,0.24,143.86,-23.8,7.26,1,3
16611.468,0.392,-0.81,0.258,138.0,-25.51,8.7,1,3
16611.484,0.407,-0.856,0.277,137.46,-28.53,6.62,1,3
16611.484,0.406,-0.903,0.291,143.1,-31.22,2.78,1,3
16611.5,0.425,-0.951,0.304,155.4,-34.03,-1.8,1,3
16611.515,0.457,-0.977,0.315,172.95,-34.73,-7.23,1,3
16611.515,0.46,-0.992,0.315,192.45,-33.14,-13.18,1,3
16611.531,0.457,-1.018,0.312,210.52,-31.83,-19.38,1,3
16611.531,0.454,-1.043,0.323,224.22,-30.88,-24.26,1,3
16611.546,0.441,-1.056,0.33,233.31,-29.91,-28.75,1,3
16611.562,0.458,-1.072,0.342,235.51,-30.0,-34.33,1,3
16611.562,0.463,-1.081,0.38,230.63,-30.27,-41.32,1,3
16611.578,0.462,-1.11,0.413,225.93,-33.69,-50.84,1,3
16611.593,0.481,-1.164,0.429,226.33,-40.44,-60.09,1,3
16611.593,0.516,-1.19,0.429,233.56,-46.85,-68.42,1,3
16611.609,0.541,-1.19,0.405,245.55,-50.78,-77.58,1,3
16611.625,0.608,-1.173,0.398,255.35,-48.98,-86.09,1,3
16611.625,0.707,-1.141,0.403,258.34,-38.03,-91.22,1,3
16611.64,0.757,-1.109,0.407,255.65,-20.63,-93.23,1,3
16611.656,0.757,-1.069,0.426,248.39,-4.18,-96.19,1,3
16611.656,0.765,-1.046,0.425,241.13,7.72,-102.45,1,3
16611.671,0.762,-0.989,0.475,235.39,18.89,-112.34,1,3
16611.671,0.716,-0.935,0.549,229.47,26.28,-122.47,1,3
16611.687,0.691,-0.882,0.629,226.14,29.39,-127.99,1,3
16611.703,0.688,-0.766,0.675,227.64,31.22,-131.32,1,3
16611.703,0.695,-0.704,0.716,223.82,36.65,-132.08,1,3
16611.718,0.736,-0.606,0.781,211.43,44.16,-130.13,1,3
16611.734,0.722,-0.494,0.813,202.0,49.53,-134.37,1,3
16611.734,0.641,-0.47,0.843,196.54,53.9,-140.23,1,3
16611.75,0.558,-0.399,0.89,193.27,54.35,-143.8,1,3
16611.75,0.487,-0.317,0.938,192.11,50.02,-145.33,1,3
16611.765,0.435,-0.233,0.983,187.96,42.88,-144.02,1,3
16611.781,0.393,-0.14,1.0,181.52,32.69,-141.45,1,3
16611.796,0.39,-0.065,0.944,150.58,9.7,-110.9,1,3
16611.812,0.419,-0.027,0.891,131.69,9.43,-101.69,1,3
16611.812,0.427,-0.02,0.843,113.28,13.52,-97.81,1,3
16611.828,0.354,-0.063,0.796,95.92,19.07,-96.38,1,3
16611.843,0.379,-0.061,0.813,78.16,27.89,-94.36,1,3
16611.859,0.37,-0.036,0.85,62.96,41.93,-94.7,1,3
16611.859,0.345,-0.068,0.895,51.94,56.31,-95.58,1,3
16611.875,0.333,-0.068,0.946,45.38,67.93,-94.39,1,3
16611.875,0.307,-0.043,0.995,41.02,74.77,-94.3,1,3
16611.89,0.266,-0.087,1.041,38.76,77.46,-94.0,1,3
16611.89,0.242,-0.114,1.051,39.55,75.26,-92.62,1,3
16611.906,0.258,-0.099,1.034,39.64,68.85,-94.33,1,3
16611.921,0.276,-0.087,1.025,35.4,63.02,-99.95,1,3
16611.937,0.267,-0.115,1.01,27.68,59.66,-106.11,1,3
16611.937,0.277,-0.131,1.004,20.33,58.6,-109.9,1,3
16611.953,0.317,-0.072,1.033,17.24,63.78,-114.47,1,3
16611.968,0.273,-0.025,1.091,17.98,72.54,-122.1,1,3
16611.968,0.198,-0.024,1.105,19.87,75.14,-128.91,1,3
16611.984,0.201,0.035,1.147,18.4,73.73,-131.53,1,3
16611.984,0.185,0.111,1.201,18.89,73.7,-134.59,1,3
16612.0,0.138,0.116,1.192,22.83,70.62,-138.31,1,3
16612.015,0.124,0.128,1.147,24.72,65.19,-139.96,1,3
16612.015,0.112,0.152,1.108,25.61,60.79,-141.15,1,3
16612.031,0.139,0.191,1.075,24.93,58.2,-143.77,1,3
16612.031,0.163,0.304,1.063,21.06,61.89,-148.84,1,3
16612.046,0.126,0.388,1.033,15.38,69.22,-154.79,1,3
16612.062,0.106,0.457,1.002,5.98,77.18,-157.54,1,3
16612.078,0.058,0.528,1.007,-5.16,87.07,-157.02,1,3
16612.078,-0.035,0.571,1.051,-12.21,94.7,-152.96,1,3
16612.093,-0.114,0.554,1.052,-11.66,96.65,-141.54,1,3
16612.109,-0.121,0.576,1.018,-10.56,95.89,-124.79,1,3
16612.109,-0.107,0.633,1.014,-10.99,97.69,-110.29,1,3
16612.125,-0.156,0.595,1.03,-18.77,94.42,-97.26,1,3
16612.14,-0.151,0.59,1.029,-23.5,89.42,-93.02,1,3
16612.14,-0.131,0.581,1.016,-26.0,85.88,-90.76,1,3
16612.156,-0.121,0.548,0.996,-24.9,85.91,-90.33,1,3
16612.171,-0.133,0.551,1.014,-20.75,90.79,-88.99,1,3
16612.187,-0.179,0.573,1.04,-12.36,95.92,-85.94,1,3
16612.187,-0.257,0.563,1.077,-1.25,96.99,-78.83,1,3
16612.203,-0.28,0.572,1.084,6.41,91.28,-67.05,1,3
16612.203,-0.277,0.584,1.061,8.21,81.33,-55.64,1,3
16612.218,-0.247,0.55,1.025,5.13,71.2,-45.96,1,3
16612.234,-0.208,0.514,0.982,-2.59,63.51,-39.49,1,3
16612.234,-0.166,0.46,0.949,-10.99,60.4,-35.95,1,3
16612.25,-0.139,0.425,0.948,-17.27,63.42,-34.49,1,3
16612.265,-0.138,0.402,0.965,-18.22,71.14,-33.81,1,3
16612.265,-0.17,0.382,0.986,-14.44,79.87,-33.08,1,3
16612.281,-0.216,0.374,1.026,-6.26,86.03,-31.28,1,3
16612.296,-0.264,0.366,1.062,14.13,85.33,-24.38,1,3
16612.312,-0.263,0.365,1.048,21.7,81.03,-20.78,1,3
16612.312,-0.272,0.372,1.046,24.2,75.78,-17.73,1,3
16612.328,-0.264,0.384,1.014,21.06,70.56,-16.79,1,3
16612.343,-0.269,0.365,0.985,13.58,67.05,-17.43,1,3
16612.343,-0.271,0.331,0.971,4.94,63.63,-18.1,1,3
16612.359,-0.277,0.303,0.965,0.06,61.77,-18.16,1,3
16612.359,-0.279,0.283,0.974,-0.61,61.34,-17.91,1,3
16612.375,-0.287,0.255,0.986,2.47,62.35,-16.48,1,3
16612.39,-0.289,0.241,0.984,8.39,64.09,-14.31,1,3
16612.406,-0.302,0.229,0.991,14.53,65.86,-12.97,1,3
16612.406,-0.317,0.21,0.993,19.38,65.68,-14.22,1,3
16612.421,-0.333,0.199,0.988,24.02,63.69,-17.33,1,3
16612.421,-0.347,0.222,0.98,27.59,60.49,-21.76,1,3
16612.437,-0.369,0.25,0.967,27.13,56.76,-26.55,1,3
16612.453,-0.377,0.26,0.956,22.61,51.73,-30.03,1,3
16612.468,-0.394,0.262,0.943,12.7,45.14,-33.11,1,3
16612.484,-0.399,0.261,0.938,9.92,43.76,-32.69,1,3
16612.484,-0.409,0.261,0.94,9.03,43.06,-32.44,1,3
16612.5,-0.418,0.259,0.938,10.86,42.63,-32.59,1,3
16612.5,-0.421,0.265,0.933,13.49,42.33,-33.05,1,3
16612.515,-0.42,0.266,0.929,16.48,41.63,-34.33,1,3
16612.531,-0.429,0.261,0.929,20.26,41.51,-36.04,1,3
16612.531,-0.446,0.271,0.93,23.68,41.32,-37.05,1,3
16612.546,-0.459,0.292,0.929,25.48,40.16,-36.53,1,3
16612.562,-0.474,0.319,0.918,25.64,38.51,-36.74,1,3
16612.562,-0.485,0.321,0.908,22.43,36.04,-35.31,1,3
16612.578,-0.49,0.326,0.905,16.57,33.02,-32.07,1,3
16612.593,-0.484,0.316,0.897,10.65,30.18,-28.78,1,3
16612.609,-0.471,0.301,0.89,5.83,28.96,-25.88,1,3
16612.609,-0.476,0.289,0.896,2.56,29.45,-23.53,1,3
16612.625,-0.482,0.273,0.904,1.59,29.21,-22.13,1,3
16612.625,-0.481,0.262,0.905,3.75,28.96,-21.33,1,3
16612.64,-0.488,0.267,0.908,7.17,28.57,-21.49,1,3
16612.656,-0.488,0.273,0.896,10.07,26.86,-22.77,1,3
16612.656,-0.49,0.274,0.888,12.51,25.03,-24.45,1,3
16612.671,-0.492,0.28,0.88,15.11,23.47,-25.94,1,3
16612.671,-0.495,0.285,0.867,17.79,23.16,-27.16,1,3
16612.687,-0.51,0.304,0.859,19.96,23.41,-27.8,1,3
16612.703,-0.528,0.324,0.85,20.39,22.95,-26.7,1,3
16612.703,-0.532,0.335,0.842,18.22,21.3,-23.93,1,3
16612.718,-0.532,0.343,0.835,14.01,20.08,-20.81,1,3
16612.734,-0.533,0.339,0.828,8.97,18.8,-17.91,1,3
16612.734,-0.53,0.329,0.822,4.27,17.79,-14.95,1,3
16612.75,-0.526,0.317,0.822,0.79,17.73,-12.6,1,3
16612.765,-0.53,0.303,0.821,-1.59,18.25,-10.77,1,3
16612.765,-0.536,0.288,0.827,-2.29,17.55,-9.49,1,3
16612.781,-0.537,0.272,0.829,-0.85,16.24,-10.07,1,3
16612.781,-0.533,0.259,0.826,1.92,15.29,-11.87,1,3
16612.796,-0.542,0.25,0.833,6.16,13.37,-13.95,1,3
16612.812,-0.562,0.238,0.833,10.96,10.13,-15.87,1,3
16612.812,-0.559,0.239,0.814,15.75,6.65,-18.22,1,3
16612.828,-0.553,0.237,0.793,19.99,4.43,-20.97,1,3
16612.843,-0.55,0.241,0.775,23.56,4.27,-23.59,1,3
16612.843,-0.553,0.25,0.762,26.31,4.88,-25.7,1,3
16612.859,-0.556,0.266,0.742,27.13,6.13,-27.19,1,3
16612.875,-0.571,0.271,0.746,26.64,7.78,-27.95,1,3
16612.875,-0.582,0.275,0.743,25.18,8.12,-27.99,1,3
16612.89,-0.589,0.282,0.743,23.93,8.45,-26.55,1,3
16612.89,-0.592,0.291,0.741,22.19,8.18,-24.32,1,3
16612.906,-0.588,0.294,0.731,19.65,7.9,-22.55,1,3
16612.921,-0.59,0.294,0.729,16.54,8.73,-21.06,1,3
16612.921,-0.596,0.301,0.728,13.4,9.77,-19.59,1,3
16612.937,-0.602,0.302,0.73,10.01,10.8,-17.61,1,3
16612.953,-0.605,0.299,0.733,6.74,11.69,-14.92,1,3
16612.953,-0.602,0.301,0.737,3.66,12.7,-12.12,1,3
16612.968,-0.604,0.297,0.74,0.52,13.52,-9.89,1,3
16612.984,-0.606,0.289,0.744,-2.87,14.22,-8.3,1,3
16612.984,-0.609,0.283,0.75,-5.4,15.11,-6.96,1,3
16613.0,-0.615,0.277,0.76,-7.29,15.53,-5.98,1,3
16613.015,-0.616,0.271,0.771,-8.42,15.32,-5.34,1,3
16613.015,-0.622,0.266,0.777,-8.45,14.59,-4.82,1,3
16613.031,-0.63,0.262,0.784,-7.69,13.49,-4.55,1,3
16613.031,-0.626,0.257,0.79,-6.78,11.41,-4.33,1,3
16613.046,-0.616,0.256,0.788,-5.83,9.25,-4.7,1,3
16613.062,-0.615,0.254,0.783,-4.55,8.06,-5.46,1,3
16613.062,-0.624,0.253,0.784,-2.96,7.32,-5.86,1,3
16613.078,-0.627,0.252,0.78,-1.1,6.13,-5.77,1,3
16613.093,-0.622,0.252,0.775,0.61,4.91,-5.8,1,3
16613.093,-0.623,0.255,0.772,2.04,4.0,-6.23,1,3
16613.109,-0.63,0.257,0.772,2.93,2.93,-6.26,1,3
16613.109,-0.63,0.258,0.767,3.2,1.34,-5.77,1,3
16613.125,-0.625,0.259,0.759,3.2,0.09,-5.4,1,3
16613.14,-0.621,0.253,0.751,3.14,-0.55,-5.49,1,3
16613.14,-0.628,0.251,0.752,3.66,-0.67,-5.86,1,3
16613.156,-0.636,0.251,0.753,4.97,-1.34,-6.07,1,3
16613.171,-0.634,0.248,0.746,6.41,-2.78,-5.86,1,3
16613.171,-0.63,0.247,0.74,7.63,-3.81,-5.77,1,3
16613.187,-0.629,0.241,0.735,9.0,-4.27,-5.92,1,3
16613.203,-0.629,0.244,0.733,10.44,-4.36,-6.78,1,3
16613.203,-0.631,0.244,0.727,11.84,-4.15,-7.66,1,3
16613.218,-0.631,0.241,0.727,12.85,-4.06,-8.03,1,3
16613.234,-0.633,0.243,0.725,14.04,-4.33,-8.18,1,3
16613.234,-0.631,0.248,0.718,15.05,-4.88,-8.18,1,3
16613.25,-0.63,0.248,0.713,14.8,-5.34,-8.21,1,3
16613.25,-0.634,0.249,0.712,14.22,-5.13,-8.45,1,3
16613.265,-0.633,0.247,0.71,13.7,-4.97,-8.64,1,3
16613.281,-0.635,0.252,0.708,13.06,-4.76,-8.55,1,3
16613.296,-0.633,0.258,0.7,12.09,-4.18,-7.97,1,3
16613.296,-0.633,0.262,0.698,10.53,-3.17,-7.08,1,3
16613.312,-0.635,0.267,0.7,8.15,-2.14,-5.95,1,3
16613.312,-0.636,0.269,0.7,5.58,-1.46,-4.33,1,3
16613.328,-0.635,0.265,0.702,3.17,-0.92,-2.72,1,3
16613.343,-0.636,0.262,0.705,1.31,-0.12,-1.01,1,3
16613.343,-0.637,0.264,0.702,-0.34,0.34,0.76,1,3
16613.359,-0.631,0.267,0.699,-2.23,0.55,2.5,1,3
16613.375,-0.63,0.27,0.697,-4.67,1.22,3.81,1,3
16613.375,-0.63,0.271,0.697,-7.75,1.8,5.28,1,3
16613.39,-0.628,0.279,0.696,-11.11,2.44,7.32,1,3
16613.39,-0.629,0.287,0.691,-15.14,3.54,9.67,1,3
16613.406,-0.628,0.293,0.69,-20.51,4.73,12.76,1,3
16613.421,-0.622,0.291,0.689,-26.31,5.92,15.72,1,3
16613.421,-0.616,0.277,0.692,-31.22,7.05,18.22,1,3
16613.437,-0.613,0.26,0.7,-34.12,8.36,19.84,1,3
16613.453,-0.618,0.243,0.716,-34.3,8.97,20.51,1,3
16613.453,-0.611,0.229,0.708,-31.74,9.34,20.36,1,3
16613.468,-0.62,0.215,0.735,-27.65,9.77,19.04,1,3
16613.484,-0.605,0.207,0.73,-22.89,8.79,16.45,1,3
16613.484,-0.613,0.196,0.727,-16.3,8.88,13.73,1,3
16613.5,-0.609,0.198,0.738,-10.38,8.73,10.74,1,3
16613.515,-0.613,0.201,0.735,-4.76,8.21,7.6,1,3
16613.515,-0.621,0.209,0.737,-1.04,7.29,4.91,1,3
16613.531,-0.62,0.215,0.734,1.25,6.01,3.14,1,3
16613.531,-0.616,0.221,0.73,2.32,4.82,1.56,1,3
16613.546,-0.62,0.223,0.725,2.84,4.33,0.18,1,3
16613.562,-0.62,0.223,0.724,3.45,3.97,-0.95,1,3
16613.562,-0.617,0.222,0.721,4.7,3.78,-1.92,1,3
16613.578,-0.616,0.218,0.721,6.65,4.03,-3.57,1,3
16613.593,-0.617,0.213,0.72,9.37,4.55,-5.74,1,3
16613.609,-0.618,0.213,0.72,12.54,4.91,-7.72,1,3
16613.609,-0.617,0.213,0.722,16.02,5.28,-9.83,1,3
16613.609,-0.617,0.213,0.722,19.5,5.68,-12.12,1,3
16613.625,-0.625,0.212,0.728,23.35,5.8,-14.5,1,3
16613.64,-0.634,0.212,0.734,27.44,5.31,-16.66,1,3
16613.656,-0.64,0.228,0.735,31.1,4.58,-18.28,1,3
16613.656,-0.649,0.251,0.738,32.72,3.63,-18.68,1,3
16613.671,-0.659,0.28,0.734,31.1,2.41,-17.67,1,3
16613.671,-0.67,0.316,0.725,25.67,0.85,-14.47,1,3
16613.687,-0.676,0.346,0.717,15.81,-1.13,-9.22,1,3
16613.703,-0.672,0.351,0.717,3.36,-3.05,-2.93,1,3
16613.703,-0.665,0.333,0.717,-7.63,-4.61,2.78,1,3
16613.718,-0.66,0.313,0.724,-14.62,-4.97,7.17,1,3
16613.734,-0.656,0.294,0.731,-17.58,-4.52,10.5,1,3
16613.734,-0.654,0.276,0.741,-17.33,-4.0,12.6,1,3
16613.75,-0.65,0.259,0.747,-14.34,-3.88,13.18,1,3
16613.765,-0.648,0.25,0.751,-5.25,-4.49,10.8,1,3
16613.765,-0.647,0.242,0.756,-0.06,-5.07,9.28,1,3
16613.781,-0.649,0.237,0.762,4.33,-5.95,7.72,1,3
16613.781,-0.657,0.242,0.756,6.99,-7.45,6.59,1,3
16613.796,-0.65,0.235,0.747,8.76,-9.86,5.22,1,3
16613.812,-0.646,0.243,0.725,9.52,-11.47,3.81,1,3
16613.828,-0.647,0.237,0.728,10.35,-12.18,2.81,1,3
16613.828,-0.639,0.238,0.71,10.74,-12.97,1.92,1,3
16613.843,-0.634,0.245,0.699,11.02,-12.3,1.59,1,3
16613.843,-0.633,0.246,0.694,10.62,-11.29,1.59,1,3
16613.859,-0.642,0.247,0.69,9.43,-10.16,1.86,1,3
16613.875,-0.639,0.243,0.689,7.9,-9.64,2.23,1,3
16613.875,-0.631,0.239,0.688,6.99,-9.55,1.95,1,3
16613.89,-0.63,0.235,0.684,6.78,-9.22,0.98,1,3
16613.89,-0.634,0.232,0.683,7.6,-8.48,0.31,1,3
16613.906,-0.631,0.232,0.681,8.7,-7.81,-0.09,1,3
16613.921,-0.627,0.234,0.674,9.52,-6.78,-0.64,1,3
16613.921,-0.626,0.235,0.674,9.58,-5.4,-1.65,1,3
16613.937,-0.632,0.238,0.677,9.09,-4.18,-2.41,1,3
16613.953,-0.638,0.243,0.678,8.55,-3.6,-2.47,1,3
16613.953,-0.632,0.247,0.674,7.57,-3.72,-2.01,1,3
16613.968,-0.626,0.246,0.672,6.16,-3.51,-1.92,1,3
16613.968,-0.625,0.242,0.672,5.04,-2.93,-2.08,1,3
16613.984,-0.625,0.241,0.67,4.61,-2.04,-1.77,1,3
16614.0,-0.624,0.243,0.667,3.91,-0.89,-1.53,1,3
16614.015,-0.622,0.244,0.664,3.2,0.64,-1.53,1,3
16614.015,-0.624,0.246,0.666,2.38,2.47,-1.56,1,3
16614.031,-0.627,0.243,0.67,1.28,3.85,-1.62,1,3
16614.031,-0.625,0.243,0.673,0.24,5.07,-1.95,1,3
16614.046,-0.624,0.241,0.676,-0.21,6.23,-2.17,1,3
16614.062,-0.622,0.244,0.684,-0.73,6.81,-2.23,1,3
16614.062,-0.615,0.246,0.688,-1.13,7.14,-2.26,1,3
16614.078,-0.616,0.246,0.69,-1.4,7.51,-2.53,1,3
16614.093,-0.624,0.244,0.695,-1.83,7.97,-2.87,1,3
16614.093,-0.627,0.242,0.703,-2.26,8.03,-3.23,1,3
16614.109,-0.626,0.241,0.706,-2.62,7.9,-4.06,1,3
16614.109,-0.625,0.241,0.709,-2.5,8.0,-5.19,1,3
16614.125,-0.632,0.25,0.712,-1.31,8.15,-6.26,1,3
16614.14,-0.637,0.258,0.71,-0.52,7.81,-6.47,1,3
16614.14,-0.631,0.266,0.709,-0.79,7.17,-5.92,1,3
16614.171,-0.628,0.278,0.708,-3.05,7.11,-5.71,1,3
16614.171,-0.633,0.28,0.712,-4.91,7.17,-4.64,1,3
16614.187,-0.633,0.282,0.714,-6.93,6.9,-3.39,1,3
16614.203,-0.636,0.284,0.716,-8.67,6.99,-2.78,1,3
16614.203,-0.645,0.282,0.717,-9.86,7.02,-2.29,1,3
16614.218,-0.648,0.28,0.72,-10.47,6.68,-1.74,1,3
16614.234,-0.645,0.277,0.721,-10.22,6.32,-1.56,1,3
16614.234,-0.65,0.278,0.723,-9.43,6.13,-1.74,1,3
16614.25,-0.652,0.281,0.72,-8.64,5.65,-1.71,1,3
16614.25,-0.651,0.282,0.717,-7.78,4.88,-1.56,1,3
16614.265,-0.652,0.287,0.711,-6.99,4.03,-1.37,1,3
16614.281,-0.653,0.294,0.708,-6.81,3.14,-0.85,1,3
16614.281,-0.652,0.301,0.702,-7.72,2.47,0.09,1,3
16614.296,-0.652,0.309,0.691,-9.83,2.29,1.5,1,3
16614.312,-0.65,0.32,0.683,-13.21,2.93,3.54,1,3
16614.328,-0.651,0.325,0.677,-17.73,3.69,6.2,1,3
16614.343,-0.646,0.321,0.68,-28.08,5.55,12.27,1,3
16614.343,-0.648,0.326,0.682,-32.84,6.16,15.14,1,3
16614.359,-0.65,0.337,0.68,-37.93,6.68,18.1,1,3
16614.375,-0.647,0.339,0.682,-44.25,6.9,21.52,1,3
16614.375,-0.64,0.335,0.684,-51.27,7.39,25.48,1,3
16614.39,-0.637,0.317,0.688,-57.37,8.58,29.08,1,3
16614.39,-0.633,0.299,0.698,-61.37,10.13,31.86,1,3
16614.406,-0.635,0.276,0.716,-62.53,11.2,33.2,1,3
16614.421,-0.637,0.253,0.732,-60.79,11.29,33.11,1,3
16614.421,-0.639,0.24,0.744,-56.34,10.56,31.89,1,3
16614.437,-0.641,0.232,0.754,-50.45,9.09,29.73,1,3
16614.453,-0.639,0.225,0.759,-44.16,7.05,26.7,1,3
16614.453,-0.639,0.228,0.759,-37.9,5.07,23.8,1,3
16614.468,-0.644,0.231,0.76,-32.62,3.48,21.21,1,3
16614.484,-0.641,0.225,0.758,-28.44,1.83,19.32,1,3
16614.484,-0.642,0.221,0.752,-24.93,0.31,17.67,1,3
16614.515,-0.637,0.215,0.74,-21.09,-1.56,14.22,1,3
16614.515,-0.634,0.209,0.746,-19.53,-1.95,12.21,1,3
16614.531,-0.643,0.205,0.756,-17.4,-2.23,10.01,1,3
16614.531,-0.652,0.204,0.76,-13.7,-3.02,8.45,1,3
16614.546,-0.662,0.207,0.766,-9.4,-4.46,8.0,1,3
16614.562,-0.665,0.215,0.764,-5.83,-6.5,8.06,1,3
16614.562,-0.665,0.221,0.752,-4.39,-9.28,8.45,1,3
16614.578,-0.658,0.217,0.737,-4.88,-12.18,8.61,1,3
16614.593,-0.653,0.212,0.723,-5.98,-13.92,8.61,1,3
16614.593,-0.65,0.208,0.711,-7.14,-14.25,8.58,1,3
16614.609,-0.648,0.198,0.704,-8.06,-13.49,9.13,1,3
16614.625,-0.642,0.193,0.706,-8.64,-12.12,9.67,1,3
16614.625,-0.64,0.184,0.714,-8.42,-10.47,9.95,1,3
16614.64,-0.636,0.174,0.72,-6.93,-8.33,9.95,1,3
16614.64,-0.634,0.166,0.725,-5.1,-7.14,9.22,1,3
16614.656,-0.634,0.159,0.733,-3.54,-6.29,7.87,1,3
16614.671,-0.648,0.148,0.742,-0.24,-6.44,4.82,1,3
16614.687,-0.636,0.151,0.727,1.07,-6.56,3.36,1,3
16614.703,-0.643,0.143,0.737,3.05,-6.13,1.59,1,3
16614.703,-0.641,0.151,0.726,4.43,-6.2,0.21,1,3
16614.718,-0.648,0.156,0.722,5.43,-5.25,-0.43,1,3
16614.734,-0.643,0.162,0.72,5.25,-4.27,-0.61,1,3
16614.734,-0.64,0.169,0.714,2.14,-1.98,-0.92,1,3
16614.75,-0.638,0.167,0.72,0.34,-1.13,-0.76,1,3
16614.765,-0.639,0.165,0.722,-1.25,-0.79,-0.52,1,3
16614.765,-0.641,0.162,0.722,-2.87,-0.92,-0.24,1,3
16614.781,-0.63,0.151,0.727,-4.21,-1.1,-0.43,1,3
16614.781,-0.63,0.152,0.73,-4.85,-0.52,-1.4,1,3
16614.796,-0.635,0.154,0.734,-4.73,-0.31,-1.95,1,3
16614.812,-0.63,0.158,0.735,-4.7,-0.7,-2.17,1,3
16614.812,-0.628,0.165,0.735,-5.01,-0.92,-2.59,1,3
16614.828,-0.634,0.171,0.733,-5.52,-1.1,-2.81,1,3
16614.843,-0.627,0.173,0.725,-7.45,-2.01,-1.8,1,3
16614.859,-0.627,0.167,0.721,-8.03,-1.4,-2.38,1,3
16614.859,-0.633,0.167,0.727,-7.66,-0.21,-3.42,1,3
16614.875,-0.636,0.171,0.728,-6.59,0.67,-3.51,1,3
16614.89,-0.629,0.178,0.725,-6.04,0.95,-3.48,1,3
16614.89,-0.628,0.18,0.725,-5.55,1.34,-4.03,1,3
16614.906,-0.632,0.181,0.729,-5.01,1.59,-4.64,1,3
16614.921,-0.634,0.18,0.73,-4.61,1.46,-4.82,1,3
16614.921,-0.631,0.178,0.723,-3.94,1.56,-5.01,1,3
16614.937,-0.63,0.186,0.718,-3.39,1.92,-5.19,1,3
16614.953,-0.632,0.188,0.714,-3.36,2.56,-5.55,1,3
16614.953,-0.635,0.188,0.717,-3.54,3.2,-5.62,1,3
16614.968,-0.638,0.192,0.719,-3.63,3.36,-5.71,1,3
16614.984,-0.638,0.193,0.719,-3.54,3.23,-5.37,1,3
16614.984,-0.633,0.19,0.72,-2.9,3.2,-5.04,1,3
16615.0,-0.627,0.19,0.722,-1.86,3.54,-5.22,1,3
16615.015,-0.63,0.193,0.727,-0.37,3.42,-6.2,1,3
16615.031,-0.629,0.193,0.73,0.46,3.27,-6.62,1,3
16615.031,-0.641,0.197,0.736,1.86,2.72,-7.14,1,3
16615.046,-0.646,0.197,0.735,3.39,1.62,-7.02,1,3
16615.062,-0.638,0.199,0.725,4.33,0.09,-6.53,1,3
16615.062,-0.629,0.198,0.715,4.88,-0.12,-6.04,1,3
16615.078,-0.634,0.195,0.712,4.67,0.64,-6.44,1,3
16615.093,-0.639,0.196,0.711,3.75,1.62,-6.44,1,3
16615.093,-0.641,0.198,0.709,2.53,2.17,-5.95,1,3
16615.109,-0.639,0.194,0.712,1.5,2.78,-5.89,1,3
16615.109,-0.646,0.189,0.711,1.4,3.66,-6.35,1,3
16615.14,-0.657,0.185,0.718,2.29,4.09,-6.59,1,3
16615.14,-0.655,0.187,0.717,3.11,3.54,-6.56,1,3
16615.14,-0.641,0.187,0.711,3.36,3.54,-6.56,1,3
16615.156,-0.636,0.186,0.711,3.05,4.52,-7.17,1,3
16615.171,-0.643,0.186,0.715,2.69,5.89,-7.54,1,3
16615.187,-0.639,0.192,0.725,1.13,6.41,-6.47,1,3
16615.203,-0.635,0.188,0.729,0.4,6.23,-6.44,1,3
16615.203,-0.639,0.185,0.74,0.49,6.29,-6.65,1,3
16615.218,-0.647,0.19,0.743,1.01,6.13,-6.38,1,3
16615.234,-0.646,0.19,0.746,1.37,5.07,-5.49,1,3
16615.234,-0.643,0.188,0.747,1.22,3.75,-5.22,1,3
16615.25,-0.651,0.187,0.753,1.31,3.3,-5.31,1,3
16615.25,-0.659,0.181,0.756,1.77,2.41,-5.22,1,3
16615.265,-0.657,0.178,0.756,2.59,0.92,-4.82,1,3
16615.281,-0.651,0.176,0.756,3.51,-0.06,-5.01,1,3
16615.296,-0.651,0.173,0.76,4.7,-0.4,-5.8,1,3
16615.296,-0.656,0.175,0.763,6.13,-0.73,-6.23,1,3
16615.312,-0.655,0.181,0.765,7.57,-1.28,-6.41,1,3
16615.312,-0.659,0.185,0.766,8.85,-2.04,-6.38,1,3
16615.328,-0.668,0.186,0.769,10.16,-2.96,-6.01,1,3
16615.343,-0.671,0.19,0.768,11.47,-4.36,-5.13,1,3
16615.343,-0.667,0.191,0.758,12.3,-6.01,-3.69,1,3
16615.359,-0.661,0.187,0.749,12.02,-7.45,-2.69,1,3
16615.375,-0.655,0.182,0.743,11.23,-8.33,-2.14,1,3
16615.375,-0.65,0.173,0.734,10.38,-8.73,-1.92,1,3
16615.39,-0.645,0.168,0.728,10.04,-8.39,-1.68,1,3
16615.406,-0.642,0.166,0.725,10.16,-7.9,-1.56,1,3
16615.406,-0.642,0.165,0.719,10.62,-7.42,-1.77,1,3
16615.421,-0.641,0.166,0.716,11.11,-7.05,-2.23,1,3
16615.421,-0.642,0.169,0.711,11.69,-6.44,-2.56,1,3
16615.437,-0.645,0.175,0.706,12.21,-6.16,-2.99,1,3
16615.453,-0.643,0.179,0.706,12.12,-5.68,-2.87,1,3
16615.453,-0.644,0.184,0.702,11.9,-5.4,-2.26,1,3
16615.468,-0.642,0.185,0.7,11.11,-5.01,-1.37,1,3
16615.484,-0.641,0.188,0.7,9.83,-4.49,-0.43,1,3
16615.484,-0.639,0.185,0.7,8.61,-4.15,0.46,1,3
16615.5,-0.637,0.184,0.7,7.69,-3.91,0.89,1,3
16615.515,-0.634,0.181,0.7,7.54,-3.3,1.19,1,3
16615.515,-0.634,0.182,0.701,7.87,-2.41,1.5,1,3
16615.531,-0.635,0.188,0.703,8.18,-1.8,1.68,1,3
16615.531,-0.633,0.19,0.706,7.72,-1.53,1.89,1,3
16615.546,-0.631,0.191,0.718,6.68,-1.28,2.01,1,3
16615.562,-0.627,0.188,0.706,6.41,-1.4,1.92,1,3
16615.562,-0.628,0.195,0.722,6.68,-0.61,1.8,1,3
16615.578,-0.63,0.204,0.726,7.05,-0.52,1.31,1,3
16615.593,-0.633,0.208,0.721,7.48,-0.49,1.31,1,3
16615.593,-0.631,0.219,0.725,7.6,-0.24,1.86,1,3
16615.609,-0.624,0.223,0.72,7.63,0.03,2.47,1,3
16615.625,-0.624,0.231,0.722,6.84,0.55,3.02,1,3
16615.625,-0.623,0.239,0.724,5.89,1.43,3.85,1,3
16615.64,-0.627,0.242,0.723,4.79,1.92,4.94,1,3
16615.64,-0.624,0.243,0.726,2.72,2.01,6.38,1,3
16615.656,-0.621,0.239,0.72,0.58,2.44,7.39,1,3
16615.671,-0.626,0.235,0.731,-1.59,2.78,7.97,1,3
16615.671,-0.628,0.231,0.73,-2.99,3.08,8.45,1,3
16615.687,-0.632,0.227,0.735,-4.39,3.36,9.31,1,3
16615.703,-0.631,0.222,0.738,-5.68,2.75,10.01,1,3
16615.703,-0.627,0.211,0.733,-6.84,1.8,10.5,1,3
16615.718,-0.62,0.202,0.729,-8.55,0.95,10.5,1,3
16615.734,-0.617,0.193,0.725,-10.44,0.64,8.94,1,3
16615.734,-0.62,0.19,0.724,-11.11,0.89,8.21,1,3
16615.75,-0.623,0.19,0.723,-12.05,1.16,7.35,1,3
16615.765,-0.638,0.191,0.732,-12.63,1.43,6.56,1,3
16615.765,-0.65,0.198,0.737,-13.43,1.34,6.41,1,3
16615.781,-0.651,0.204,0.736,-15.14,0.21,7.26,1,3
16615.781,-0.645,0.21,0.739,-18.07,-0.76,8.88,1,3
16615.796,-0.646,0.216,0.73,-22.1,-0.79,10.38,1,3
16615.812,-0.653,0.212,0.735,-26.95,-0.49,12.21,1,3
16615.812,-0.66,0.203,0.744,-31.34,-0.67,14.1,1,3
16615.828,-0.662,0.192,0.747,-34.39,-1.31,16.05,1,3
16615.843,-0.667,0.181,0.75,-36.38,-2.38,17.67,1,3
16615.843,-0.675,0.175,0.753,-37.87,-4.0,18.95,1,3
16615.859,-0.684,0.17,0.763,-39.86,-6.35,20.54,1,3
16615.875,-0.675,0.171,0.751,-43.03,-8.88,22.89,1,3
16615.875,-0.681,0.153,0.771,-45.44,-10.16,25.21,1,3
16615.89,-0.677,0.146,0.777,-47.64,-12.45,26.43,1,3
16615.906,-0.679,0.128,0.786,-47.7,-14.56,27.28,1,3
16615.906,-0.671,0.118,0.795,-46.05,-16.88,27.41,1,3
16615.921,-0.673,0.111,0.785,-43.76,-19.96,25.67,1,3
16615.921,-0.671,0.113,0.783,-42.48,-23.47,22.68,1,3
16615.937,-0.673,0.118,0.792,-41.02,-27.19,19.62,1,3
16615.953,-0.668,0.12,0.773,-40.19,-31.16,17.49,1,3
16615.953,-0.671,0.13,0.771,-40.19,-33.63,16.91,1,3
16615.968,-0.67,0.146,0.771,-40.96,-36.13,18.31,1,3
16615.984,-0.643,0.153,0.757,-43.76,-38.36,20.84,1,3
16615.984,-0.627,0.136,0.742,-46.63,-38.76,23.04,1,3
16616.0,-0.6,0.119,0.739,-51.03,-38.0,24.41,1,3
16616.015,-0.586,0.09,0.735,-54.23,-35.77,24.45,1,3
16616.015,-0.577,0.074,0.742,-55.48,-32.47,23.13,1,3
16616.031,-0.578,0.066,0.763,-53.56,-28.96,20.78,1,3
16616.031,-0.597,0.06,0.779,-49.53,-26.8,18.4,1,3
16616.046,-0.595,0.054,0.788,-45.32,-27.07,16.69,1,3
16616.062,-0.578,0.059,0.788,-40.28,-27.65,14.89,1,3
16616.062,-0.576,0.075,0.805,-37.75,-28.32,12.21,1,3
16616.078,-0.562,0.088,0.788,-38.67,-30.82,9.25,1,3
16616.093,-0.56,0.088,0.788,-40.16,-32.2,7.14,1,3
16616.093,-0.552,0.089,0.776,-41.44,-32.47,6.9,1,3
16616.109,-0.549,0.083,0.769,-42.39,-31.62,7.35,1,3
16616.125,-0.54,0.083,0.766,-43.34,-29.48,8.06,1,3
16616.125,-0.535,0.081,0.763,-43.34,-26.49,8.67,1,3
16616.14,-0.539,0.066,0.771,-42.39,-23.1,9.34,1,3
16616.156,-0.542,0.057,0.8,-39.64,-20.14,9.95,1,3
16616.156,-0.553,0.066,0.798,-34.61,-18.16,10.5,1,3
16616.171,-0.561,0.083,0.79,-30.64,-16.72,11.47,1,3
16616.171,-0.565,0.095,0.776,-29.39,-15.11,13.79,1,3
16616.187,-0.571,0.107,0.757,-32.5,-13.43,18.07,1,3
16616.203,-0.546,0.104,0.774,-44.83,-8.79,26.7,1,3
16616.218,-0.558,0.107,0.789,-48.92,-5.46,31.04,1,3
16616.234,-0.565,0.118,0.822,-53.93,-4.49,35.77,1,3
16616.234,-0.544,0.12,0.843,-59.45,-6.5,38.45,1,3
16616.25,-0.536,0.125,0.857,-64.36,-9.03,38.91,1,3
16616.265,-0.537,0.111,0.88,-67.81,-11.47,40.28,1,3
16616.265,-0.526,0.095,0.902,-68.64,-14.1,42.91,1,3
16616.281,-0.51,0.055,0.923,-64.76,-15.26,45.63,1,3
16616.281,-0.491,0.019,0.919,-59.24,-16.27,46.51,1,3
16616.296,-0.464,0.019,0.889,-56.86,-17.64,44.37,1,3
16616.312,-0.452,0.006,0.885,-55.06,-17.52,39.64,1,3
16616.328,-0.457,-0.023,0.897,-50.69,-16.14,33.72,1,3
16616.328,-0.453,-0.03,0.916,-43.28,-15.78,28.26,1,3
16616.343,-0.457,-0.038,0.912,-32.93,-15.32,23.65,1,3
16616.343,-0.462,-0.047,0.895,-24.23,-14.5,19.53,1,3
16616.359,-0.456,-0.037,0.894,-18.56,-14.28,14.47,1,3
16616.375,-0.448,-0.002,0.905,-14.28,-16.51,5.68,1,3
16616.39,-0.428,0.001,0.904,-13.21,-18.43,2.47,1,3
16616.406,-0.44,0.01,0.912,-10.25,-19.07,-0.34,1,3
16616.406,-0.441,0.01,0.908,-6.38,-19.99,-2.04,1,3
16616.421,-0.427,0.028,0.918,-3.78,-20.84,-2.11,1,3
16616.421,-0.421,0.034,0.914,-2.56,-22.74,-2.08,1,3
16616.437,-0.406,0.03,0.911,-0.89,-24.17,-0.73,1,3
16616.453,-0.394,0.032,0.916,0.64,-24.72,1.46,1,3
16616.453,-0.403,0.024,0.926,3.3,-24.23,2.56,1,3
16616.468,-0.419,0.017,0.962,7.45,-24.05,3.14,1,3
16616.484,-0.418,0.01,0.966,12.91,-25.48,3.57,1,3
16616.484,-0.409,0.023,0.985,19.65,-27.44,5.07,1,3
16616.5,-0.385,0.042,1.009,28.69,-29.73,6.16,1,3
16616.5,-0.385,0.033,0.999,36.44,-32.35,6.93,1,3
16616.515,-0.363,0.045,1.002,41.14,-35.49,9.46,1,3
16616.531,-0.324,0.058,1.006,43.46,-38.64,12.54,1,3
16616.531,-0.291,0.054,0.997,41.69,-41.87,13.49,1,3
16616.546,-0.285,0.037,1.014,36.93,-44.62,12.7,1,3
16616.562,-0.314,0.008,1.024,37.11,-46.88,11.35,1,3
16616.562,-0.351,0.0,1.0,38.61,-50.14,9.98,1,3
16616.578,-0.361,-0.028,0.931,37.29,-53.16,7.75,1,3
16616.593,-0.35,-0.056,0.869,34.0,-52.52,4.06,1,3
16616.609,-0.35,-0.083,0.828,31.53,-48.31,-1.01,1,3
16616.609,-0.393,-0.095,0.748,28.29,-40.89,-6.38,1,3
16616.625,-0.407,-0.126,0.746,15.05,-31.8,-8.27,1,3
16616.625,-0.428,-0.125,0.797,4.49,-23.07,-11.66,1,3
16616.64,-0.406,-0.095,0.823,10.86,-15.32,-15.93,1,3
16616.656,-0.372,0.007,0.821,18.13,-9.0,-19.44,1,3
16616.656,-0.38,0.046,0.813,15.32,-3.6,-21.45,1,3
16616.671,-0.395,0.086,0.809,4.94,0.73,-18.74,1,3
16616.687,-0.401,0.107,0.832,-6.65,4.24,-13.76,1,3
16616.687,-0.408,0.095,0.866,-14.34,6.65,-9.8,1,3
16616.703,-0.419,0.085,0.883,-15.47,8.51,-6.2,1,3
16616.703,-0.417,0.101,0.897,-14.16,11.14,2.87,1,3
16616.718,-0.415,0.115,0.89,-16.75,12.45,8.18,1,3
16616.734,-0.412,0.123,0.871,-21.58,14.28,12.94,1,3
16616.734,-0.4,0.078,0.896,-24.17,15.87,16.11,1,3
16616.75,-0.396,0.065,0.908,-22.86,16.97,17.73,1,3
16616.75,-0.381,0.055,0.916,-21.15,16.69,17.15,1,3
16616.765,-0.37,0.044,0.933,-18.4,15.81,14.62,1,3
16616.781,-0.376,0.053,0.95,-14.53,14.77,12.24,1,3
16616.796,-0.392,0.073,0.976,-11.32,12.73,11.14,1,3
16616.796,-0.387,0.077,0.971,-9.77,9.19,11.11,1,3
16616.812,-0.38,0.079,0.955,-9.13,6.01,11.02,1,3
16616.812,-0.376,0.072,0.926,-7.78,4.52,10.96,1,3
16616.828,-0.366,0.079,0.916,-7.51,4.94,12.09,1,3
16616.843,-0.377,0.095,0.915,-7.84,6.41,13.7,1,3
16616.843,-0.389,0.097,0.922,-9.28,7.2,16.79,1,3
16616.859,-0.375,0.085,0.937,-11.75,6.41,19.62,1,3
16616.875,-0.373,0.065,0.946,-11.44,4.97,20.45,1,3
16616.875,-0.369,0.061,0.943,-10.28,3.42,20.51,1,3
16616.89,-0.366,0.054,0.95,-9.25,1.74,19.93,1,3
16616.89,-0.36,0.04,0.953,-6.62,0.12,19.44,1,3
16616.906,-0.361,0.052,0.954,-4.91,-1.25,18.8,1,3
16616.921,-0.375,0.042,0.926,-4.21,-2.11,18.62,1,3
16616.937,-0.354,0.016,0.923,-6.01,-2.96,18.62,1,3
16616.937,-0.366,-0.007,0.911,-6.35,-2.53,17.03,1,3
16616.953,-0.353,-0.027,0.921,-5.65,-1.74,14.92,1,3
16616.953,-0.341,-0.04,0.922,-2.93,-0.95,11.2,1,3
16616.968,-0.345,-0.045,0.923,-0.31,-0.31,5.95,1,3
16616.984,-0.366,-0.039,0.95,1.62,-0.34,0.55,1,3
16616.984,-0.381,-0.036,0.957,2.75,-2.44,-3.72,1,3
16617.0,-0.362,-0.032,0.95,2.9,-5.52,-7.84,1,3
16617.015,-0.354,-0.019,0.944,4.18,-7.39,-12.39,1,3
16617.015,-0.36,0.008,0.942,6.56,-7.93,-15.41,1,3
16617.031,-0.375,0.035,0.943,7.97,-8.24,-15.78,1,3
16617.031,-0.373,0.037,0.94,7.35,-9.0,-14.53,1,3
16617.046,-0.381,0.035,0.923,6.74,-8.94,-12.85,1,3
16617.062,-0.413,0.042,0.874,5.65,-7.2,-10.07,1,3
16617.062,-0.45,0.036,0.837,1.16,-3.45,-4.3,1,3
16617.078,-0.433,-0.025,0.885,-4.82,0.67,1.92,1,3
16617.093,-0.396,-0.054,0.918,-2.04,3.63,3.36,1,3
16617.093,-0.381,-0.023,0.947,2.96,4.58,1.1,1,3
16617.109,-0.402,0.002,0.974,2.53,3.48,-1.07,1,3
16617.125,-0.399,0.029,0.965,-1.01,-0.61,-0.79,1,3
16617.125,-0.383,0.044,0.924,-4.79,-3.78,-0.37,1,3
16617.14,-0.37,0.034,0.914,-5.98,-3.33,0.24,1,3
16617.156,-0.373,0.038,0.91,-3.69,-1.07,1.28,1,3
16617.156,-0.382,0.034,0.915,-1.98,0.89,2.41,1,3
16617.171,-0.385,0.023,0.915,-3.02,1.89,3.39,1,3
16617.171,-0.383,0.005,0.921,-4.43,2.29,4.03,1,3
16617.187,-0.371,-0.013,0.931,-5.1,2.17,2.99,1,3
16617.203,-0.37,-0.028,0.945,-4.79,1.65,0.15,1,3
16617.203,-0.359,-0.031,0.922,-3.3,0.73,-3.48,1,3
16617.218,-0.361,-0.022,0.934,0.31,0.98,-6.71,1,3
16617.234,-0.369,-0.013,0.916,1.25,0.61,-9.58,1,3
16617.234,-0.37,-0.012,0.922,0.37,0.37,-11.08,1,3
16617.25,-0.363,-0.017,0.911,0.64,0.58,-12.63,1,3
16617.25,-0.35,-0.023,0.919,1.95,2.04,-13.37,1,3
16617.265,-0.339,-0.015,0.94,2.96,3.97,-13.95,1,3
16617.281,-0.355,-0.003,0.981,5.13,5.31,-14.4,1,3
16617.296,-0.365,0.01,1.015,6.53,4.3,-13.67,1,3
16617.296,-0.333,0.004,1.043,6.01,0.76,-13.03,1,3
16617.312,-0.305,-0.031,1.05,6.71,-3.57,-14.98,1,3
16617.312,-0.291,-0.069,1.043,10.13,-6.93,-19.04,1,3
16617.328,-0.273,-0.092,1.041,14.31,-9.89,-25.73,1,3
16617.343,-0.289,-0.088,1.029,18.98,-12.7,-36.07,1,3
16617.343,-0.294,-0.048,1.036,23.56,-15.72,-46.48,1,3
16617.359,-0.286,-0.001,1.037,26.83,-18.37,-53.62,1,3
16617.375,-0.288,0.043,1.032,27.59,-19.87,-57.1,1,3
16617.375,-0.297,0.084,1.032,27.62,-20.23,-57.22,1,3
16617.39,-0.304,0.119,1.036,26.49,-19.87,-53.59,1,3
16617.39,-0.306,0.139,1.046,23.47,-19.62,-47.82,1,3
16617.406,-0.299,0.134,1.058,19.9,-20.26,-41.05,1,3
16617.421,-0.295,0.165,1.058,16.21,-21.76,-35.22,1,3
16617.421,-0.31,0.188,1.056,11.63,-24.32,-30.4,1,3
16617.437,-0.295,0.177,1.051,5.86,-26.98,-23.5,1,3
16617.453,-0.291,0.175,1.045,1.71,-28.53,-15.93,1,3
16617.453,-0.302,0.16,1.032,-0.34,-29.69,-9.67,1,3
16617.468,-0.293,0.141,1.027,-2.26,-31.65,-4.82,1,3
16617.484,-0.278,0.128,1.021,-1.89,-34.55,-3.2,1,3
16617.484,-0.295,0.141,0.997,0.92,-37.48,-3.48,1,3
16617.5,-0.313,0.151,0.98,2.69,-41.23,-3.17,1,3
16617.515,-0.313,0.154,0.952,3.36,-45.38,-2.23,1,3
16617.515,-0.319,0.156,0.909,4.33,-47.85,-0.73,1,3
16617.531,-0.321,0.157,0.869,4.46,-48.01,2.17,1,3
16617.531,-0.326,0.156,0.84,3.91,-46.21,5.25,1,3
16617.546,-0.342,0.157,0.829,2.96,-43.24,8.73,1,3
16617.562,-0.368,0.167,0.81,0.7,-39.55,13.25,1,3
16617.562,-0.38,0.161,0.794,-3.6,-35.22,19.17,1,3
16617.578,-0.379,0.156,0.802,-9.06,-29.88,25.79,1,3
16617.593,-0.378,0.15,0.812,-13.21,-24.08,32.5,1,3
16617.593,-0.37,0.14,0.841,-17.0,-19.26,39.55,1,3
16617.609,-0.37,0.119,0.872,-19.84,-15.81,45.08,1,3
16617.625,-0.368,0.091,0.893,-20.97,-14.01,48.59,1,3
16617.625,-0.35,0.063,0.907,-21.73,-14.25,49.9,1,3
16617.64,-0.331,0.03,0.922,-21.76,-15.47,48.1,1,3
16617.656,-0.329,0.011,0.936,-19.65,-16.08,43.7,1,3
16617.656,-0.343,-0.0,0.944,-15.9,-16.94,37.81,1,3
16617.671,-0.352,-0.007,0.929,-12.45,-18.71,31.01,1,3
16617.671,-0.345,-0.015,0.896,-9.74,-19.56,24.54,1,3
16617.687,-0.325,-0.024,0.86,-5.55,-15.14,12.67,1,3
16617.703,-0.317,-0.014,0.853,-2.9,-11.41,8.79,1,3
16617.718,-0.33,0.007,0.851,-2.53,-8.21,8.79,1,3
16617.734,-0.317,0.028,0.848,-2.99,-3.17,14.8,1,3
16617.734,-0.285,0.03,0.835,-4.09,-0.76,19.14,1,3
16617.75,-0.264,0.028,0.857,-5.89,1.95,21.97,1,3
16617.75,-0.277,0.01,0.898,-5.52,3.72,23.8,1,3
16617.765,-0.28,0.002,0.915,-4.76,2.99,26.22,1,3
16617.781,-0.254,-0.003,0.932,-5.4,0.82,27.19,1,3
16617.781,-0.247,-0.003,0.943,-4.97,-1.04,25.67,1,3
16617.796,-0.237,-0.006,0.935,-3.48,-1.95,24.6,1,3
16617.812,-0.212,0.002,0.929,-2.44,-1.68,24.48,1,3
16617.812,-0.206,-0.013,0.925,-1.19,0.61,23.53,1,3
16617.828,-0.194,-0.016,0.925,-1.37,3.94,23.62,1,3
16617.843,-0.2,-0.023,0.941,-2.32,7.2,22.13,1,3
16617.843,-0.21,-0.035,0.962,-2.66,9.25,20.23,1,3
16617.859,-0.218,-0.028,0.976,-1.46,9.95,17.64,1,3
16617.875,-0.228,-0.02,0.983,0.43,9.43,13.86,1,3
16617.875,-0.234,-0.017,0.983,3.23,7.81,10.41,1,3
16617.89,-0.252,0.01,0.982,8.51,5.65,5.89,1,3
16617.906,-0.279,0.03,0.972,10.53,3.97,5.58,1,3
16617.921,-0.27,0.044,0.957,10.07,2.47,6.68,1,3
16617.921,-0.271,0.052,0.934,8.88,1.59,7.51,1,3
16617.937,-0.273,0.04,0.914,7.72,2.72,8.39,1,3
16617.953,-0.273,0.037,0.902,6.99,4.97,9.0,1,3
16617.953,-0.28,0.023,0.889,7.57,9.03,8.45,1,3
16617.968,-0.285,0.011,0.878,8.88,13.64,6.9,1,3
16617.984,-0.306,0.024,0.889,10.68,17.76,4.09,1,3
16617.984,-0.362,0.039,0.897,13.21,20.29,2.53,1,3
16618.0,-0.377,0.061,0.911,12.45,19.59,5.01,1,3
16618.015,-0.369,0.08,0.919,7.81,16.02,8.42,1,3
16618.015,-0.354,0.056,0.91,2.53,11.6,10.41,1,3
16618.031,-0.327,0.029,0.908,-0.89,8.91,10.9,1,3
16618.031,-0.315,0.013,0.902,0.31,8.42,9.0,1,3
16618.046,-0.329,0.013,0.899,4.85,9.49,5.77,1,3
16618.062,-0.35,0.027,0.894,9.22,10.86,3.48,1,3
16618.078,-0.368,0.045,0.898,10.93,11.87,1.98,1,3
16618.078,-0.394,0.053,0.904,10.68,12.48,1.13,1,3
16618.093,-0.398,0.05,0.914,8.58,11.96,1.28,1,3
16618.093,-0.398,0.051,0.913,6.59,11.63,1.07,1,3
16618.109,-0.398,0.061,0.906,5.52,11.69,0.79,1,3
16618.125,-0.376,0.068,0.913,4.27,12.27,1.37,1,3
16618.125,-0.368,0.078,0.926,3.69,13.34,2.32,1,3
16618.14,-0.363,0.073,0.94,4.24,13.98,4.12,1,3
16618.14,-0.345,0.066,0.95,4.88,13.73,6.23,1,3
16618.156,-0.346,0.044,0.946,5.28,13.43,6.9,1,3
16618.171,-0.352,0.015,0.941,5.13,12.73,5.55,1,3
16618.187,-0.362,-0.002,0.947,4.91,11.78,2.78,1,3
16618.187,-0.37,-0.005,0.943,5.37,10.83,0.12,1,3
16618.203,-0.351,-0.001,0.938,5.65,10.41,-2.72,1,3
16618.203,-0.338,-0.0,0.937,6.68,11.17,-6.93,1,3
16618.218,-0.334,0.01,0.946,8.79,12.79,-11.54,1,3
16618.234,-0.334,0.025,0.965,11.14,14.19,-15.38,1,3
16618.234,-0.343,0.049,0.992,13.79,14.59,-18.89,1,3
16618.25,-0.36,0.068,1.009,16.45,13.06,-20.54,1,3
16618.265,-0.339,0.082,1.012,17.18,9.64,-19.78,1,3
16618.265,-0.308,0.085,0.991,17.18,6.23,-19.96,1,3
16618.281,-0.299,0.086,0.967,17.88,4.52,-20.17,1,3
16618.281,-0.289,0.095,0.956,17.73,4.43,-18.34,1,3
16618.296,-0.286,0.093,0.938,16.39,5.01,-15.02,1,3
16618.312,-0.276,0.07,0.916,14.37,6.07,-11.44,1,3
16618.328,-0.25,0.049,0.903,12.6,8.27,-8.03,1,3
16618.328,-0.24,0.041,0.899,10.35,11.69,-5.16,1,3
16618.343,-0.243,0.046,0.916,6.65,14.92,-2.32,1,3
16618.343,-0.235,0.04,0.936,2.96,16.85,0.92,1,3
16618.359,-0.214,0.032,0.948,0.46,18.49,3.69,1,3
16618.375,-0.202,0.032,0.967,-0.55,20.51,5.07,1,3
16618.375,-0.218,0.037,0.996,-0.27,21.94,5.55,1,3
16618.39,-0.231,0.04,1.026,-0.79,21.91,6.2,1,3
16618.39,-0.238,0.04,1.048,-1.37,20.69,6.01,1,3
16618.406,-0.263,0.044,1.053,-0.43,19.01,5.37,1,3
16618.421,-0.276,0.058,1.043,1.59,16.88,5.37,1,3
16618.421,-0.283,0.075,1.018,2.75,14.83,6.38,1,3
16618.437,-0.276,0.077,0.992,2.32,14.34,8.91,1,3
16618.453,-0.273,0.084,0.972,1.1,15.29,11.6,1,3
16618.453,-0.278,0.083,0.96,-0.34,17.0,14.53,1,3
16618.468,-0.283,0.09,0.963,-2.29,19.23,18.13,1,3
16618.484,-0.285,0.097,0.976,-5.25,22.34,21.64,1,3
16618.5,-0.298,0.097,0.998,-8.73,25.54,24.81,1,3
16618.5,-0.322,0.098,1.028,-11.63,27.74,27.5,1,3
16618.515,-0.337,0.099,1.056,-13.03,27.65,28.84,1,3
16618.515,-0.365,0.109,1.082,-12.7,25.57,28.53,1,3
16618.531,-0.401,0.118,1.081,-10.68,21.67,28.29,1,3
16618.531,-0.404,0.127,1.059,-9.74,15.56,29.24,1,3
16618.546,-0.381,0.118,1.011,-10.07,9.34,28.44,1,3
16618.562,-0.355,0.104,0.964,-9.52,6.04,26.25,1,3
16618.562,-0.348,0.107,0.93,-7.05,5.8,23.77,1,3
16618.578,-0.355,0.116,0.909,-4.55,6.68,21.36,1,3
16618.593,-0.364,0.123,0.906,-2.93,7.42,19.38,1,3
16618.593,-0.377,0.13,0.902,-2.01,8.06,19.04,1,3
16618.609,-0.381,0.146,0.9,-2.59,7.81,20.6,1,3
16618.625,-0.37,0.147,0.901,-4.85,7.51,23.56,1,3
16618.625,-0.355,0.141,0.908,-8.45,8.33,27.77,1,3
16618.64,-0.352,0.124,0.929,-12.33,9.58,31.28,1,3
16618.64,-0.353,0.098,0.958,-15.41,9.7,33.05,1,3
16618.656,-0.349,0.07,0.985,-16.42,8.73,32.47,1,3
16618.671,-0.35,0.054,0.999,-14.34,6.93,29.05,1,3
16618.671,-0.359,0.059,1.015,-8.0,0.49,19.68,1,3
16618.687,-0.367,0.061,1.019,-5.58,-4.33,16.11,1,3
16618.703,-0.37,0.072,1.002,-3.85,-8.21,12.88,1,3
16618.703,-0.383,0.074,0.951,-2.69,-11.02,10.07,1,3
16618.718,-0.392,0.077,0.935,-2.29,-12.73,7.39,1,3
16618.734,-0.408,0.081,0.921,-2.04,-13.86,4.21,1,3
16618.734,-0.423,0.086,0.907,-1.68,-14.07,0.34,1,3
16618.75,-0.451,0.097,0.912,-0.73,-13.25,-4.18,1,3
16618.75,-0.485,0.116,0.904,1.4,-13.37,-9.98,1,3
16618.765,-0.502,0.13,0.894,4.61,-15.08,-16.57,1,3
16618.781,-0.509,0.139,0.882,9.13,-17.27,-22.89,1,3
16618.796,-0.507,0.145,0.863,14.44,-19.96,-28.11,1,3
16618.796,-0.497,0.143,0.839,20.05,-21.09,-30.79,1,3
16618.812,-0.483,0.155,0.805,22.95,-20.63,-31.37,1,3
16618.812,-0.458,0.155,0.791,20.6,-17.73,-29.39,1,3
16618.828,-0.452,0.166,0.808,15.05,-13.76,-25.3,1,3
16618.843,-0.434,0.158,0.825,7.75,-10.59,-19.47,1,3
16618.843,-0.412,0.141,0.854,-0.34,-7.78,-12.57,1,3
16618.859,-0.402,0.12,0.889,-6.56,-6.35,-8.06,1,3
16618.875,-0.408,0.079,0.916,-9.31,-5.89,-6.62,1,3
16618.875,-0.42,0.046,0.94,-8.42,-6.96,-7.69,1,3
16618.89,-0.407,0.024,0.945,-5.07,-10.25,-11.17,1,3
16618.906,-0.388,0.002,0.942,-1.16,-13.31,-15.59,1,3
16618.906,-0.384,0.006,0.93,2.81,-16.54,-21.03,1,3
16618.921,-0.385,0.008,0.909,5.74,-19.65,-25.51,1,3
16618.921,-0.366,0.005,0.888,5.92,-21.76,-28.66,1,3
16618.937,-0.353,0.0,0.877,6.44,-21.09,-31.86,1,3
16618.953,-0.35,0.007,0.876,8.27,-18.16,-34.61,1,3
16618.953,-0.355,0.036,0.881,9.19,-14.44,-35.65,1,3
16618.984,-0.348,0.05,0.898,6.99,-11.38,-35.52,1,3
16618.984,-0.355,0.064,0.922,4.91,-9.46,-35.4,1,3
16618.984,-0.368,0.086,0.948,4.91,-8.76,-35.04,1,3
16619.0,-0.378,0.111,0.95,6.35,-9.61,-33.14,1,3
16619.0,-0.363,0.136,0.936,6.38,-12.21,-30.82,1,3
16619.015,-0.356,0.135,0.916,5.8,-13.89,-28.87,1,3
16619.031,-0.341,0.13,0.894,5.43,-14.44,-26.37,1,3
16619.046,-0.336,0.125,0.863,5.25,-13.12,-23.87,1,3
16619.046,-0.331,0.12,0.847,4.82,-10.68,-21.61,1,3
16619.062,-0.336,0.135,0.849,4.39,-7.6,-19.23,1,3
16619.062,-0.343,0.146,0.847,2.81,-4.58,-15.53,1,3
16619.078,-0.337,0.155,0.854,-0.37,-1.77,-10.62,1,3
16619.093,-0.344,0.173,0.871,-3.14,1.16,-5.31,1,3
16619.109,-0.352,0.182,0.883,-5.95,3.36,1.65,1,3
16619.109,-0.337,0.186,0.898,-10.28,4.52,9.8,1,3
16619.125,-0.324,0.167,0.911,-14.68,5.19,16.08,1,3
16619.125,-0.315,0.132,0.921,-17.15,5.62,20.54,1,3
16619.14,-0.312,0.099,0.925,-17.21,5.52,23.07,1,3
16619.156,-0.31,0.071,0.934,-15.78,5.01,23.04,1,3
16619.156,-0.308,0.052,0.941,-12.97,4.43,20.75,1,3
16619.171,-0.321,0.046,0.953,-9.06,3.94,16.79,1,3
16619.171,-0.337,0.052,0.959,-5.16,2.99,12.88,1,3
16619.187,-0.346,0.061,0.962,-2.9,1.56,9.86,1,3
16619.203,-0.35,0.068,0.96,-1.86,0.09,7.72,1,3
16619.218,-0.352,0.073,0.952,-0.85,-1.07,6.35,1,3
16619.218,-0.343,0.08,0.946,-0.09,-1.56,5.52,1,3
16619.234,-0.342,0.09,0.948,0.98,-1.53,4.24,1,3
16619.234,-0.344,0.103,0.943,2.44,-1.31,2.93,1,3
16619.25,-0.35,0.111,0.929,3.11,-1.4,1.59,1,3
16619.25,-0.352,0.117,0.921,2.84,-0.85,0.89,1,3
16619.265,-0.363,0.134,0.913,2.23,0.0,0.85,1,3
16619.281,-0.364,0.136,0.91,0.61,0.64,2.75,1,3
16619.281,-0.349,0.142,0.909,-1.04,2.17,5.83,1,3
16619.296,-0.344,0.141,0.909,-2.47,3.51,8.48,1,3
16619.312,-0.341,0.129,0.917,-4.09,3.75,10.74,1,3
16619.312,-0.34,0.114,0.922,-4.82,3.69,12.36,1,3
16619.328,-0.337,0.097,0.916,-4.58,3.14,13.03,1,3
16619.343,-0.337,0.086,0.909,-3.66,3.02,12.67,1,3
16619.359,-0.345,0.078,0.902,-2.53,3.51,11.6,1,3
16619.359,-0.355,0.08,0.903,-1.89,4.0,10.56,1,3
16619.375,-0.365,0.084,0.91,-1.53,4.46,9.95,1,3
16619.375,-0.366,0.086,0.909,-0.79,4.7,9.98,1,3
16619.39,-0.359,0.09,0.91,-0.58,4.91,10.71,1,3
16619.39,-0.355,0.093,0.918,-1.37,5.46,11.23,1,3
16619.406,-0.361,0.09,0.93,-2.32,5.49,11.96,1,3
16619.421,-0.364,0.084,0.94,-3.3,5.19,12.79,1,3
16619.421,-0.367,0.075,0.941,-4.18,4.18,12.6,1,3
16619.437,-0.365,0.062,0.946,-4.18,3.17,11.23,1,3
16619.453,-0.366,0.052,0.947,-2.9,2.56,9.34,1,3
16619.453,-0.359,0.046,0.946,-1.19,1.89,6.84,1,3
16619.468,-0.355,0.043,0.952,1.22,1.62,3.78,1,3
16619.484,-0.367,0.052,0.951,4.06,1.28,0.76,1,3
16619.484,-0.381,0.066,0.954,5.22,0.46,-0.67,1,3
16619.5,-0.373,0.072,0.957,4.39,-1.59,-1.22,1,3
16619.5,-0.368,0.069,0.952,3.78,-2.62,-1.19,1,3
16619.515,-0.363,0.07,0.939,3.51,-2.96,-0.92,1,3
16619.531,-0.356,0.07,0.94,2.69,-3.05,-0.55,1,3
16619.531,-0.349,0.071,0.947,1.53,-2.62,-0.03,1,3
16619.546,-0.346,0.063,0.95,0.27,-2.01,0.7,1,3
16619.562,-0.343,0.051,0.952,-0.4,-1.62,1.28,1,3
16619.562,-0.349,0.049,0.951,-0.58,-1.19,1.77,1,3
16619.578,-0.358,0.046,0.944,-1.92,-0.92,2.69,1,3
16619.593,-0.36,0.041,0.938,-5.52,-0.49,4.67,1,3
16619.593,-0.363,0.027,0.937,-10.07,0.09,6.32,1,3
16619.609,-0.361,0.011,0.939,-13.76,0.31,7.42,1,3
16619.625,-0.348,-0.002,0.945,-15.66,0.52,7.6,1,3
16619.625,-0.339,-0.014,0.957,-15.2,1.13,6.01,1,3
16619.64,-0.34,-0.021,0.969,-13.4,1.5,3.36,1,3
16619.64,-0.338,-0.018,0.972,-10.77,0.89,0.46,1,3
16619.656,-0.337,-0.019,0.969,-7.32,-1.53,-5.92,1,3
16619.671,-0.335,-0.017,0.966,-6.13,-2.69,-8.91,1,3
16619.687,-0.338,-0.01,0.972,-5.07,-3.81,-11.11,1,3
16619.687,-0.351,0.001,0.973,-4.88,-5.43,-12.33,1,3
16619.703,-0.375,0.031,0.957,-5.46,-7.51,-12.85,1,3
16619.703,-0.377,0.042,0.941,-7.48,-9.55,-12.67,1,3
16619.718,-0.377,0.045,0.93,-10.41,-10.93,-12.33,1,3
16619.734,-0.373,0.041,0.919,-12.48,-11.23,-12.12,1,3
16619.734,-0.367,0.031,0.908,-11.93,-10.47,-11.75,1,3
16619.75,-0.367,0.031,0.898,-9.7,-8.48,-11.6,1,3
16619.75,-0.369,0.038,0.898,-8.21,-6.38,-11.9,1,3
16619.765,-0.381,0.037,0.903,-7.84,-5.01,-11.75,1,3
16619.781,-0.39,0.034,0.911,-8.97,-4.7,-10.96,1,3
16619.781,-0.392,0.027,0.914,-10.32,-4.79,-10.28,1,3
16619.796,-0.395,0.026,0.914,-10.71,-4.97,-9.83,1,3
16619.812,-0.398,0.026,0.907,-12.42,-5.43,-9.49,1,3
16619.812,-0.394,0.013,0.905,-16.14,-5.77,-10.04,1,3
16619.828,-0.388,-0.008,0.906,-18.34,-5.4,-11.23,1,3
16619.843,-0.394,-0.019,0.905,-17.46,-3.63,-11.66,1,3
16619.843,-0.399,-0.013,0.906,-16.14,-0.49,-11.23,1,3
16619.859,-0.399,-0.006,0.916,-15.81,2.84,-10.32,1,3
16619.875,-0.406,-0.007,0.935,-16.39,5.62,-8.88,1,3
16619.875,-0.403,-0.016,0.952,-18.13,7.2,-6.99,1,3
16619.89,-0.397,-0.03,0.968,-20.75,7.2,-5.71,1,3
16619.906,-0.388,-0.051,0.982,-23.68,6.13,-5.43,1,3
16619.906,-0.372,-0.075,0.991,-25.54,4.0,-6.59,1,3
16619.921,-0.365,-0.098,0.991,-24.99,2.17,-9.34,1,3
16619.921,-0.353,-0.113,0.988,-23.44,0.79,-13.0,1,3
16619.937,-0.344,-0.123,0.989,-21.18,-0.27,-17.85,1,3
16619.953,-0.348,-0.123,0.986,-17.73,-0.95,-22.89,1,3
16619.953,-0.344,-0.114,0.982,-14.77,-1.5,-26.34,1,3
16619.968,-0.352,-0.095,0.974,-12.88,-1.74,-28.38,1,3
16619.984,-0.359,-0.081,0.967,-12.88,-2.11,-29.15,1,3
16619.984,-0.368,-0.073,0.969,-14.19,-2.14,-29.21,1,3
16620.0,-0.376,-0.064,0.98,-15.41,-1.71,-28.26,1,3
16620.0,-0.374,-0.064,0.99,-16.11,-1.01,-26.73,1,3
16620.015,-0.366,-0.063,0.999,-17.61,-0.92,-25.06,1,3
16620.031,-0.359,-0.077,1.009,-19.81,-1.98,-24.17,1,3
16620.046,-0.348,-0.089,1.01,-21.18,-3.2,-23.65,1,3
16620.046,-0.343,-0.087,1.007,-22.03,-4.12,-23.07,1,3
16620.062,-0.343,-0.093,1.0,-23.56,-4.7,-22.64,1,3
16620.062,-0.337,-0.103,0.996,-25.39,-4.76,-22.4,1,3
16620.078,-0.332,-0.11,0.991,-25.09,-5.04,-22.43,1,3
16620.093,-0.331,-0.106,0.983,-23.62,-5.07,-22.71,1,3
16620.093,-0.337,-0.101,0.987,-23.68,-5.52,-23.29,1,3
16620.109,-0.337,-0.114,0.992,-24.99,-6.47,-23.68,1,3
16620.125,-0.333,-0.119,0.994,-25.94,-6.9,-22.83,1,3
16620.125,-0.332,-0.119,0.991,-27.13,-6.68,-21.18,1,3
16620.14,-0.32,-0.118,0.996,-29.57,-6.68,-19.9,1,3
16620.14,-0.319,-0.123,1.01,-31.86,-6.99,-18.98,1,3
16620.156,-0.314,-0.123,1.015,-33.66,-7.75,-17.61,1,3
16620.171,-0.3,-0.134,1.018,-35.52,-8.79,-16.14,1,3
16620.187,-0.296,-0.147,1.02,-35.89,-9.31,-15.87,1,3
16620.187,-0.301,-0.147,1.026,-35.0,-9.58,-16.33,1,3
16620.203,-0.305,-0.144,1.04,-34.39,-10.32,-17.15,1,3
16620.203,-0.304,-0.15,1.041,-33.23,-10.86,-18.1,1,3
16620.218,-0.302,-0.144,1.028,-31.92,-11.57,-18.43,1,3
16620.234,-0.3,-0.141,1.013,-31.8,-12.88,-18.37,1,3
16620.234,-0.299,-0.147,1.001,-32.26,-14.13,-18.4,1,3
16620.25,-0.306,-0.139,1.004,-32.65,-14.86,-18.16,1,3
16620.265,-0.313,-0.131,1.011,-32.96,-16.27,-17.64,1,3
16620.265,-0.308,-0.131,1.003,-32.5,-17.91,-16.48,1,3
16620.281,-0.31,-0.134,0.982,-31.56,-18.83,-15.17,1,3
16620.281,-0.31,-0.13,0.967,-31.68,-19.26,-13.67,1,3
16620.296,-0.308,-0.123,0.956,-32.87,-19.1,-12.02,1,3
16620.312,-0.311,-0.123,0.938,-34.46,-18.01,-9.22,1,3
16620.312,-0.309,-0.112,0.936,-36.38,-16.54,-5.55,1,3
16620.328,-0.302,-0.121,0.931,-37.93,-14.89,-1.74,1,3
16620.343,-0.299,-0.128,0.927,-39.25,-12.82,2.35,1,3
16620.343,-0.307,-0.132,0.957,-41.23,-11.11,6.07,1,3
16620.359,-0.305,-0.155,0.965,-43.15,-11.23,9.25,1,3
16620.359,-0.314,-0.175,0.97,-42.91,-11.63,12.24,1,3
16620.375,-0.31,-0.182,0.972,-42.54,-14.16,13.52,1,3
16620.39,-0.306,-0.198,0.951,-42.3,-17.24,13.25,1,3
16620.39,-0.291,-0.212,0.94,-43.15,-20.05,11.87,1,3
16620.406,-0.281,-0.226,0.926,-42.39,-21.7,9.28,1,3
16620.421,-0.278,-0.233,0.911,-38.97,-20.36,7.05,1,3
16620.421,-0.277,-0.212,0.907,-36.81,-18.16,6.2,1,3
16620.437,-0.268,-0.214,0.901,-36.53,-16.3,6.53,1,3
16620.453,-0.267,-0.222,0.911,-36.96,-14.98,6.99,1,3
16620.453,-0.257,-0.231,0.915,-36.84,-14.25,7.32,1,3
16620.468,-0.275,-0.233,0.928,-35.1,-13.06,7.75,1,3
16620.484,-0.278,-0.23,0.924,-34.15,-12.85,9.06,1,3
16620.484,-0.264,-0.228,0.922,-35.52,-12.94,10.41,1,3
16620.5,-0.25,-0.247,0.933,-36.81,-13.0,10.8,1,3
16620.5,-0.247,-0.257,0.945,-36.81,-13.31,11.2,1,3
16620.515,-0.248,-0.26,0.965,-36.9,-14.86,11.29,1,3
16620.531,-0.246,-0.28,0.966,-35.28,-17.27,11.02,1,3
16620.531,-0.244,-0.293,0.961,-32.44,-18.89,12.05,1,3
16620.546,-0.239,-0.28,0.949,-32.9,-20.81,12.97,1,3
16620.562,-0.23,-0.303,0.935,-35.13,-22.89,13.21,1,3
16620.562,-0.232,-0.329,0.927,-35.07,-23.32,13.73,1,3
16620.578,-0.23,-0.343,0.92,-34.46,-23.26,14.65,1,3
16620.593,-0.233,-0.369,0.919,-33.51,-22.55,15.32,1,3
16620.593,-0.239,-0.386,0.933,-32.44,-22.4,14.68,1,3
16620.609,-0.252,-0.398,0.937,-29.97,-23.22,12.88,1,3
16620.609,-0.243,-0.41,0.922,-27.34,-24.54,10.19,1,3
16620.625,-0.241,-0.422,0.898,-26.12,-23.71,7.05,1,3
16620.64,-0.243,-0.423,0.905,-28.47,-22.13,1.92,1,3
16620.656,-0.255,-0.429,0.915,-28.23,-21.27,2.35,1,3
16620.656,-0.253,-0.425,0.93,-28.78,-20.81,4.18,1,3
16620.671,-0.251,-0.413,0.948,-29.51,-21.27,6.9,1,3
16620.671,-0.22,-0.432,0.94,-30.79,-21.88,9.4,1,3
16620.687,-0.207,-0.451,0.918,-32.32,-21.91,9.25,1,3
16620.703,-0.203,-0.485,0.909,-33.85,-21.0,7.2,1,3
16620.703,-0.202,-0.503,0.907,-34.39,-19.93,3.72,1,3
16620.718,-0.209,-0.506,0.909,-35.07,-18.92,-0.4,1,3
16620.734,-0.217,-0.506,0.925,-35.74,-18.16,-4.3,1,3
16620.734,-0.222,-0.497,0.934,-34.76,-18.25,-6.9,1,3
16620.75,-0.225,-0.492,0.928,-32.47,-18.56,-7.54,1,3
16620.75,-0.217,-0.462,0.933,-33.94,-19.99,-7.84,1,3
16620.765,-0.22,-0.471,0.924,-34.73,-21.94,-8.15,1,3
16620.781,-0.219,-0.487,0.904,-34.64,-23.44,-6.96,1,3
16620.796,-0.215,-0.473,0.898,-35.34,-24.35,-5.62,1,3
16620.796,-0.224,-0.478,0.89,-34.82,-24.11,-4.39,1,3
16620.812,-0.219,-0.473,0.88,-34.0,-23.26,-1.74,1,3
16620.812,-0.203,-0.476,0.863,-33.66,-22.25,0.67,1,3
16620.828,-0.195,-0.499,0.836,-33.57,-20.84,2.2,1,3
16620.843,-0.193,-0.525,0.819,-34.52,-18.86,3.27,1,3
16620.843,-0.184,-0.56,0.807,-36.99,-17.76,2.2,1,3
16620.859,-0.177,-0.599,0.8,-37.87,-16.45,-1.34,1,3
16620.875,-0.176,-0.62,0.795,-37.78,-14.59,-4.52,1,3
16620.875,-0.178,-0.634,0.813,-38.91,-12.88,-7.32,1,3
16620.89,-0.195,-0.664,0.831,-38.39,-11.72,-8.85,1,3
16620.89,-0.191,-0.683,0.814,-37.23,-11.2,-8.09,1,3
16620.906,-0.178,-0.695,0.8,-38.54,-9.7,-7.87,1,3
16620.921,-0.18,-0.708,0.803,-40.65,-6.99,-8.94,1,3
16620.921,-0.187,-0.708,0.816,-42.15,-4.24,-9.92,1,3
16620.937,-0.174,-0.715,0.83,-43.09,-3.17,-11.72,1,3
16620.953,-0.149,-0.71,0.835,-43.73,-2.62,-13.92,1,3
16620.953,-0.151,-0.701,0.853,-44.1,-1.89,-16.85,1,3
16620.968,-0.156,-0.694,0.864,-44.28,-2.08,-19.93,1,3
16620.984,-0.164,-0.681,0.867,-44.37,-3.36,-22.34,1,3
16620.984,-0.154,-0.677,0.85,-44.13,-5.52,-24.51,1,3
16621.0,-0.142,-0.67,0.823,-43.58,-6.93,-26.43,1,3
16621.0,-0.145,-0.662,0.799,-43.21,-7.29,-28.11,1,3
16621.015,-0.151,-0.655,0.777,-43.24,-6.93,-28.9,1,3
16621.031,-0.141,-0.635,0.759,-44.28,-6.13,-29.6,1,3
16621.031,-0.14,-0.678,0.769,-44.95,-1.86,-28.96,1,3
16621.046,-0.135,-0.643,0.755,-40.16,0.98,-28.17,1,3
16621.062,-0.129,-0.634,0.745,-39.22,2.62,-28.5,1,3
16621.062,-0.122,-0.618,0.783,-44.1,3.42,-28.08,1,3
16621.078,-0.113,-0.639,0.794,-44.89,2.11,-27.19,1,3
16621.093,-0.098,-0.64,0.792,-43.79,0.0,-25.39,1,3
16621.093,-0.069,-0.641,0.78,-43.06,-2.26,-24.05,1,3
16621.109,-0.068,-0.649,0.771,-43.4,-3.63,-22.37,1,3
16621.125,-0.062,-0.668,0.758,-45.23,-4.18,-20.14,1,3
16621.125,-0.058,-0.693,0.753,-46.48,-4.36,-19.14,1,3
16621.14,-0.075,-0.705,0.755,-47.09,-3.63,-18.89,1,3
16621.14,-0.085,-0.703,0.753,-48.13,-2.93,-18.98,1,3
16621.156,-0.089,-0.713,0.754,-48.04,-2.5,-17.82,1,3
16621.171,-0.078,-0.705,0.746,-47.91,-1.71,-15.96,1,3
16621.171,-0.071,-0.739,0.754,-50.42,-0.95,-15.05,1,3
16621.187,-0.056,-0.773,0.777,-52.03,-0.76,-15.41,1,3
16621.203,-0.046,-0.796,0.791,-50.17,-0.61,-16.66,1,3
16621.203,-0.043,-0.788,0.795,-48.04,-1.98,-20.02,1,3
16621.218,-0.046,-0.784,0.802,-46.05,-4.21,-24.23,1,3
16621.234,-0.05,-0.779,0.797,-43.21,-7.23,-27.13,1,3
16621.234,-0.035,-0.774,0.781,-40.93,-9.77,-28.6,1,3
16621.25,-0.032,-0.769,0.763,-40.35,-11.05,-29.88,1,3
16621.265,-0.026,-0.776,0.747,-39.95,-12.09,-31.13,1,3
16621.265,-0.027,-0.786,0.735,-38.82,-12.15,-31.16,1,3
16621.281,-0.03,-0.783,0.742,-39.31,-12.27,-31.13,1,3
16621.281,-0.033,-0.795,0.73,-39.86,-13.52,-31.1,1,3
16621.296,-0.032,-0.796,0.722,-41.57,-14.31,-30.49,1,3
16621.312,-0.029,-0.807,0.711,-43.31,-15.69,-30.27,1,3
16621.312,-0.017,-0.826,0.702,-44.65,-16.36,-30.06,1,3
16621.328,0.002,-0.843,0.688,-44.37,-16.54,-30.06,1,3
16621.343,-0.004,-0.834,0.683,-44.56,-15.26,-29.63,1,3
16621.343,-0.015,-0.831,0.694,-45.66,-14.59,-28.66,1,3
16621.359,-0.027,-0.841,0.697,-46.6,-14.86,-26.28,1,3
16621.375,-0.02,-0.862,0.691,-48.04,-15.87,-23.77,1,3
16621.375,-0.002,-0.892,0.683,-49.23,-16.75,-23.16,1,3
16621.39,0.007,-0.915,0.67,-48.98,-16.66,-24.35,1,3
16621.39,0.011,-0.925,0.661,-48.25,-16.42,-26.98,1,3
16621.406,0.015,-0.92,0.659,-48.34,-16.39,-30.12,1,3
16621.421,0.019,-0.911,0.658,-48.55,-16.51,-33.3,1,3
16621.421,0.021,-0.907,0.665,-48.8,-16.66,-35.89,1,3
16621.437,0.029,-0.898,0.667,-48.34,-17.61,-37.11,1,3
16621.453,0.035,-0.879,0.67,-47.82,-18.62,-36.96,1,3
16621.468,0.037,-0.874,0.66,-48.19,-20.08,-35.98,1,3
16621.468,0.047,-0.878,0.647,-49.62,-22.13,-33.88,1,3
16621.484,0.057,-0.875,0.628,-52.34,-23.41,-31.71,1,3
16621.484,0.05,-0.882,0.608,-54.99,-23.5,-30.03,1,3
16621.5,0.059,-0.904,0.593,-56.73,-23.5,-28.78,1,3
16621.5,0.07,-0.913,0.578,-57.07,-22.68,-28.41,1,3
16621.515,0.07,-0.917,0.571,-57.44,-21.06,-28.63,1,3
16621.531,0.074,-0.927,0.578,-58.47,-20.48,-28.84,1,3
16621.546,0.078,-0.931,0.588,-59.33,-20.36,-29.05,1,3
16621.546,0.085,-0.935,0.589,-58.84,-20.87,-30.58,1,3
16621.562,0.09,-0.927,0.593,-57.71,-22.1,-32.56,1,3
16621.562,0.102,-0.927,0.582,-56.92,-23.8,-34.67,1,3
16621.578,0.117,-0.916,0.562,-56.28,-24.93,-36.26,1,3
16621.593,0.126,-0.896,0.548,-56.18,-25.57,-37.97,1,3
16621.593,0.132,-0.871,0.532,-56.79,-26.12,-39.55,1,3
16621.609,0.146,-0.838,0.505,-57.16,-26.8,-39.95,1,3
16621.625,0.16,-0.803,0.481,-57.53,-26.43,-37.45,1,3
16621.625,0.165,-0.799,0.472,-60.24,-25.27,-26.67,1,3
16621.64,0.172,-0.817,0.458,-64.03,-24.38,-18.95,1,3
16621.64,0.18,-0.839,0.436,-68.85,-22.83,-12.76,1,3
16621.656,0.19,-0.894,0.434,-73.09,-21.36,-9.0,1,3
16621.671,0.196,-0.923,0.445,-74.65,-20.72,-7.14,1,3
16621.671,0.201,-0.938,0.46,-74.31,-20.91,-6.44,1,3
16621.687,0.202,-0.951,0.457,-73.15,-22.4,-7.42,1,3
16621.703,0.215,-0.948,0.444,-72.15,-24.96,-9.7,1,3
16621.703,0.216,-0.948,0.436,-72.05,-26.52,-11.66,1,3
16621.718,0.203,-0.954,0.424,-73.24,-27.59,-12.02,1,3
16621.734,0.187,-0.949,0.402,-74.43,-28.96,-12.3,1,3
16621.734,0.179,-0.959,0.381,-74.71,-30.49,-13.31,1,3
16621.75,0.187,-0.96,0.359,-73.31,-31.74,-14.34,1,3
16621.75,0.188,-0.96,0.346,-71.11,-32.01,-15.26,1,3
16621.765,0.2,-0.949,0.318,-69.61,-32.17,-15.56,1,3
16621.781,0.208,-0.944,0.297,-70.59,-32.04,-15.23,1,3
16621.796,0.204,-0.945,0.282,-72.94,-31.62,-14.74,1,3
16621.796,0.198,-0.952,0.266,-73.95,-31.65,-14.25,1,3
16621.812,0.196,-0.952,0.25,-74.31,-31.71,-13.52,1,3
16621.812,0.194,-0.963,0.237,-74.62,-31.4,-13.09,1,3
16621.828,0.192,-0.96,0.218,-73.67,-31.5,-13.37,1,3
16621.843,0.2,-0.958,0.206,-72.63,-31.04,-13.76,1,3
16621.843,0.182,-0.963,0.181,-72.48,-31.43,-13.82,1,3
16621.859,0.181,-0.959,0.17,-73.79,-32.23,-13.25,1,3
16621.875,0.178,-0.986,0.152,-73.85,-31.01,-12.88,1,3
16621.875,0.185,-0.999,0.131,-73.09,-30.21,-13.76,1,3
16621.89,0.184,-1.017,0.117,-72.3,-29.88,-16.75,1,3
16621.89,0.193,-1.013,0.109,-71.26,-30.4,-20.75,1,3
16621.906,0.201,-0.989,0.098,-69.77,-30.7,-24.78,1,3
16621.921,0.209,-0.963,0.083,-68.97,-30.61,-28.05,1,3
16621.921,0.218,-0.938,0.076,-69.34,-30.4,-29.54,1,3
16621.937,0.218,-0.916,0.067,-69.58,-30.06,-29.21,1,3
16621.953,0.218,-0.895,0.054,-69.58,-29.36,-27.53,1,3
16621.953,0.226,-0.872,0.033,-70.65,-28.81,-24.32,1,3
16621.968,0.232,-0.862,0.015,-73.49,-28.72,-19.9,1,3
16621.984,0.228,-0.865,-0.0,-75.9,-27.92,-15.78,1,3
16621.984,0.232,-0.877,-0.012,-76.39,-27.13,-12.7,1,3
16622.0,0.25,-0.9,-0.027,-75.78,-25.94,-10.9,1,3
16622.0,0.253,-0.913,-0.032,-74.71,-24.35,-10.9,1,3
16622.015,0.249,-0.92,-0.037,-73.46,-24.23,-12.97,1,3
16622.031,0.261,-0.92,-0.052,-72.97,-24.54,-15.38,1,3
16622.031,0.25,-0.898,-0.057,-71.96,-24.26,-18.37,1,3
16622.046,0.242,-0.891,-0.065,-70.25,-25.3,-21.33,1,3
16622.062,0.23,-0.873,-0.079,-68.88,-26.7,-23.01,1,3
16622.078,0.24,-0.875,-0.097,-66.29,-29.21,-25.54,1,3
16622.078,0.261,-0.875,-0.117,-61.71,-31.43,-28.5,1,3
16622.093,0.269,-0.843,-0.145,-57.5,-32.14,-31.65,1,3
16622.093,0.275,-0.817,-0.166,-55.33,-32.5,-34.49,1,3
16622.109,0.274,-0.794,-0.189,-54.51,-33.14,-35.86,1,3
16622.125,0.272,-0.783,-0.218,-53.71,-33.78,-35.19,1,3
16622.125,0.274,-0.785,-0.247,-53.04,-34.15,-33.05,1,3
16622.14,0.284,-0.801,-0.269,-51.7,-33.75,-32.17,1,3
16622.156,0.281,-0.82,-0.275,-47.79,-32.99,-34.49,1,3
16622.156,0.273,-0.835,-0.276,-40.99,-33.39,-39.67,1,3
16622.171,0.258,-0.802,-0.31,-33.05,-35.04,-46.33,1,3
16622.171,0.279,-0.776,-0.342,-28.11,-37.51,-50.36,1,3
16622.187,0.299,-0.755,-0.382,-27.95,-37.78,-49.56,1,3
16622.203,0.317,-0.751,-0.415,-30.82,-35.89,-45.05,1,3
16622.203,0.321,-0.751,-0.411,-36.07,-30.46,-37.57,1,3
16622.218,0.315,-0.767,-0.381,-41.44,-23.35,-29.97,1,3
16622.234,0.314,-0.798,-0.333,-44.92,-16.94,-23.68,1,3
16622.234,0.325,-0.813,-0.286,-47.4,-13.58,-20.11,1,3
16622.25,0.349,-0.844,-0.249,-48.1,-14.1,-19.53,1,3
16622.25,0.362,-0.866,-0.231,-46.27,-17.24,-21.33,1,3
16622.265,0.352,-0.865,-0.243,-43.73,-21.79,-25.51,1,3
16622.281,0.347,-0.843,-0.276,-42.48,-26.49,-30.92,1,3
16622.281,0.351,-0.811,-0.314,-41.47,-30.18,-34.52,1,3
16622.296,0.364,-0.765,-0.366,-41.57,-31.37,-35.0,1,3
16622.312,0.372,-0.726,-0.396,-43.95,-29.51,-32.14,1,3
16622.312,0.367,-0.709,-0.415,-47.06,-26.52,-26.8,1,3
16622.328,0.374,-0.735,-0.409,-49.13,-24.2,-20.48,1,3
16622.343,0.377,-0.755,-0.399,-48.92,-21.42,-15.87,1,3
16622.359,0.372,-0.785,-0.39,-47.85,-20.11,-15.35,1,3
16622.359,0.374,-0.786,-0.386,-46.21,-20.87,-18.19,1,3
16622.375,0.38,-0.771,-0.386,-44.86,-22.34,-21.91,1,3
16622.375,0.387,-0.755,-0.385,-44.56,-23.29,-23.87,1,3
16622.39,0.375,-0.741,-0.391,-44.65,-24.05,-23.16,1,3
16622.39,0.371,-0.745,-0.398,-43.89,-26.25,-22.58,1,3
16622.406,0.377,-0.733,-0.417,-42.48,-28.32,-22.89,1,3
16622.421,0.379,-0.712,-0.437,-41.87,-29.94,-23.74,1,3
16622.437,0.381,-0.692,-0.456,-41.2,-31.13,-24.69,1,3
16622.437,0.376,-0.664,-0.473,-41.32,-30.98,-23.26,1,3
16622.453,0.37,-0.659,-0.489,-43.06,-30.27,-19.68,1,3
16622.453,0.375,-0.668,-0.498,-44.43,-29.6,-16.36,1,3
16622.468,0.386,-0.688,-0.51,-44.25,-28.99,-14.37,1,3
16622.484,0.395,-0.693,-0.503,-43.06,-28.47,-14.01,1,3
16622.484,0.395,-0.7,-0.494,-39.77,-28.75,-15.44,1,3
16622.5,0.399,-0.705,-0.482,-37.11,-29.94,-16.75,1,3
16622.515,0.405,-0.712,-0.463,-34.85,-31.92,-19.81,1,3
16622.515,0.399,-0.746,-0.445,-30.58,-34.61,-25.18,1,3
16622.531,0.405,-0.783,-0.429,-24.35,-38.73,-31.83,1,3
16622.531,0.421,-0.839,-0.405,-15.96,-44.13,-41.87,1,3
16622.546,0.416,-0.913,-0.374,-3.85,-48.52,-56.12,1,3
16622.562,0.382,-0.922,-0.381,9.19,-54.38,-75.26,1,3
16622.562,0.348,-0.817,-0.443,16.05,-61.98,-94.73,1,3
16622.578,0.373,-0.747,-0.452,13.89,-68.91,-107.03,1,3
16622.593,0.352,-0.64,-0.496,10.96,-71.41,-110.81,1,3
16622.593,0.336,-0.518,-0.562,5.71,-71.93,-106.66,1,3
16622.609,0.358,-0.437,-0.6,-10.86,-66.35,-75.78,1,3
16622.625,0.358,-0.374,-0.623,-16.08,-61.34,-54.38,1,3
16622.625,0.363,-0.368,-0.643,-20.26,-56.58,-33.66,1,3
16622.64,0.391,-0.388,-0.649,-23.07,-52.64,-18.16,1,3
16622.64,0.4,-0.472,-0.653,-26.49,-50.11,-7.29,1,3
16622.656,0.394,-0.545,-0.639,-29.24,-48.95,-0.06,1,3
16622.671,0.393,-0.609,-0.641,-28.72,-48.83,2.9,1,3
16622.687,0.389,-0.641,-0.66,-27.89,-47.91,2.29,1,3
16622.687,0.384,-0.665,-0.663,-29.15,-47.12,-0.95,1,3
16622.703,0.381,-0.687,-0.654,-28.38,-47.27,-6.99,1,3
16622.703,0.366,-0.681,-0.651,-24.9,-47.7,-14.01,1,3
16622.718,0.339,-0.661,-0.644,-21.42,-48.92,-20.87,1,3
16622.734,0.317,-0.626,-0.65,-17.27,-51.12,-27.92,1,3
16622.734,0.305,-0.601,-0.692,-13.73,-53.13,-32.56,1,3
16622.75,0.328,-0.585,-0.746,-14.04,-53.22,-33.91,1,3
16622.765,0.348,-0.557,-0.777,-15.56,-49.13,-34.18,1,3
16622.765,0.341,-0.545,-0.804,-18.1,-42.91,-32.81,1,3
16622.781,0.364,-0.542,-0.809,-22.58,-36.93,-31.16,1,3
16622.781,0.361,-0.533,-0.757,-23.74,-30.67,-32.17,1,3
16622.796,0.306,-0.539,-0.689,-21.09,-24.84,-33.51,1,3
16622.812,0.278,-0.521,-0.617,-19.2,-21.94,-34.15,1,3
16622.812,0.281,-0.5,-0.578,-16.27,-23.22,-33.88,1,3
16622.828,0.317,-0.515,-0.575,-15.41,-28.66,-30.43,1,3
16622.843,0.377,-0.531,-0.585,-15.81,-35.58,-26.67,1,3
16622.843,0.388,-0.56,-0.617,-16.21,-40.99,-23.32,1,3
16622.859,0.372,-0.581,-0.663,-17.85,-45.78,-21.36,1,3
16622.875,0.353,-0.605,-0.706,-19.26,-49.47,-21.27,1,3
16622.875,0.336,-0.612,-0.737,-20.05,-50.78,-21.33,1,3
16622.89,0.311,-0.597,-0.777,-19.62,-50.17,-21.76,1,3
16622.89,0.31,-0.581,-0.811,-20.26,-49.04,-22.55,1,3
16622.906,0.325,-0.559,-0.824,-21.09,-47.33,-24.08,1,3
16622.921,0.337,-0.538,-0.813,-20.17,-45.14,-25.97,1,3
16622.921,0.33,-0.506,-0.79,-18.37,-43.0,-27.62,1,3
16622.937,0.326,-0.481,-0.777,-17.03,-41.96,-28.29,1,3
16622.953,0.34,-0.459,-0.77,-17.0,-42.48,-27.1,1,3
16622.953,0.342,-0.443,-0.774,-18.65,-43.0,-24.69,1,3
16622.968,0.347,-0.44,-0.78,-21.27,-43.0,-21.52,1,3
16622.984,0.352,-0.435,-0.785,-23.44,-43.18,-18.8,1,3
16622.984,0.344,-0.433,-0.792,-24.02,-43.21,-17.58,1,3
16623.0,0.329,-0.423,-0.804,-23.16,-42.91,-18.01,1,3
16623.015,0.332,-0.416,-0.817,-22.03,-42.85,-19.26,1,3
16623.015,0.325,-0.405,-0.833,-20.57,-42.12,-20.81,1,3
16623.031,0.311,-0.397,-0.827,-19.59,-40.8,-22.1,1,3
16623.046,0.277,-0.397,-0.815,-18.56,-39.7,-22.28,1,3
16623.046,0.249,-0.376,-0.829,-16.82,-40.5,-22.55,1,3
16623.062,0.253,-0.346,-0.845,-15.59,-41.75,-23.56,1,3
16623.062,0.269,-0.324,-0.871,-13.98,-42.85,-23.01,1,3
16623.078,0.268,-0.297,-0.894,-12.48,-42.76,-20.51,1,3
16623.093,0.257,-0.286,-0.896,-11.66,-41.32,-17.37,1,3
16623.093,0.237,-0.283,-0.889,-11.32,-39.28,-14.19,1,3
16623.109,0.22,-0.287,-0.897,-11.99,-37.72,-9.77,1,3
16623.125,0.231,-0.31,-0.904,-13.55,-37.08,-5.8,1,3
16623.125,0.23,-0.334,-0.906,-13.73,-35.49,-3.11,1,3
16623.14,0.208,-0.351,-0.906,-12.76,-32.99,-1.74,1,3
16623.14,0.203,-0.379,-0.909,-12.33,-31.92,-1.8,1,3
16623.156,0.207,-0.396,-0.89,-12.51,-31.31,-3.05,1,3
16623.171,0.195,-0.402,-0.882,-10.41,-29.18,-7.08,1,3
16623.171,0.185,-0.421,-0.863,-8.61,-29.02,-9.37,1,3
16623.187,0.192,-0.409,-0.831,-5.01,-26.4,-11.26,1,3
16623.203,0.157,-0.391,-0.847,0.64,-25.82,-16.21,1,3
16623.203,0.16,-0.376,-0.865,-0.34,-29.24,-18.68,1,3
16623.218,0.178,-0.373,-0.877,-3.48,-32.2,-19.87,1,3
16623.234,0.188,-0.382,-0.912,-3.75,-32.32,-20.2,1,3
16623.234,0.185,-0.372,-0.936,-2.84,-30.52,-19.32,1,3
16623.25,0.172,-0.367,-0.954,-3.17,-27.83,-16.88,1,3
16623.265,0.174,-0.363,-0.961,-5.19,-24.96,-13.49,1,3
16623.265,0.177,-0.377,-0.959,-7.54,-22.46,-10.77,1,3
16623.281,0.17,-0.371,-0.953,-8.85,-20.69,-9.77,1,3
16623.281,0.161,-0.373,-0.947,-8.21,-19.9,-9.83,1,3
16623.296,0.142,-0.37,-0.937,-6.65,-19.9,-10.22,1,3
16623.312,0.139,-0.373,-0.929,-3.97,-20.54,-10.71,1,3
16623.328,0.164,-0.351,-0.928,-1.74,-21.94,-11.38,1,3
16623.328,0.164,-0.368,-0.911,-1.1,-20.72,-12.21,1,3
16623.343,0.117,-0.37,-0.919,2.53,-20.66,-12.88,1,3
16623.343,0.141,-0.34,-0.911,4.09,-23.56,-12.09,1,3
16623.359,0.137,-0.331,-0.908,4.18,-22.34,-9.19,1,3
16623.375,0.126,-0.322,-0.918,4.09,-22.64,-5.22,1,3
16623.375,0.118,-0.333,-0.92,2.35,-23.1,-1.37,1,3
16623.39,0.115,-0.358,-0.921,1.16,-22.58,1.95,1,3
16623.39,0.118,-0.374,-0.931,2.23,-22.55,3.88,1,3
16623.406,0.118,-0.391,-0.927,2.87,-22.74,4.03,1,3
16623.421,0.091,-0.409,-0.928,4.33,-23.19,2.53,1,3
16623.437,0.033,-0.426,-0.958,5.01,-23.22,1.5,1,3
16623.437,0.038,-0.449,-0.996,2.5,-22.37,1.28,1,3
16623.453,0.07,-0.469,-1.016,0.4,-18.98,0.58,1,3
16623.453,0.073,-0.465,-1.02,-0.34,-14.1,-1.19,1,3
16623.468,0.082,-0.46,-0.995,-0.34,-10.01,-3.72,1,3
16623.484,0.083,-0.448,-0.952,1.43,-7.26,-5.8,1,3
16623.484,0.064,-0.439,-0.924,4.91,-5.86,-5.98,1,3
16623.5,0.06,-0.433,-0.922,6.81,-6.38,-4.39,1,3
16623.5,0.088,-0.437,-0.933,5.68,-7.51,-3.11,1,3
16623.515,0.098,-0.438,-0.94,3.57,-7.78,-2.75,1,3
16623.531,0.106,-0.436,-0.941,1.65,-7.54,-2.5,1,3
16623.531,0.111,-0.423,-0.947,1.19,-6.62,-2.9,1,3
16623.546,0.101,-0.41,-0.956,1.83,-4.85,-2.26,1,3
16623.562,0.102,-0.408,-0.961,0.55,-2.93,0.43,1,3
16623.578,0.12,-0.424,-0.949,-2.26,-0.67,2.72,1,3
16623.578,0.123,-0.451,-0.919,-3.08,1.83,3.05,1,3
16623.593,0.123,-0.464,-0.898,-1.65,2.81,1.89,1,3
16623.593,0.14,-0.469,-0.871,2.29,0.34,-4.91,1,3
16623.609,0.142,-0.464,-0.86,4.39,-2.29,-8.27,1,3
16623.625,0.133,-0.449,-0.865,4.88,-4.7,-10.59,1,3
16623.625,0.106,-0.412,-0.907,5.22,-5.68,-10.83,1,3
16623.64,0.104,-0.404,-0.943,4.97,-5.49,-8.3,1,3
16623.64,0.119,-0.394,-0.955,3.54,-3.08,-5.22,1,3
16623.656,0.104,-0.4,-0.95,2.2,0.06,-2.44,1,3
16623.671,0.107,-0.415,-0.938,0.37,2.47,0.64,1,3
16623.671,0.117,-0.426,-0.92,-0.7,3.91,2.23,1,3
16623.687,0.108,-0.444,-0.913,-0.67,4.49,2.5,1,3
16623.703,0.111,-0.451,-0.919,-0.73,4.24,2.41,1,3
16623.718,0.129,-0.456,-0.92,-0.46,4.12,0.89,1,3
16623.718,0.133,-0.452,-0.924,0.43,5.07,-0.98,1,3
16623.734,0.135,-0.435,-0.911,0.98,6.26,-2.44,1,3
16623.734,0.128,-0.426,-0.886,2.29,6.65,-3.63,1,3
16623.75,0.119,-0.422,-0.884,3.72,6.04,-3.02,1,3
16623.75,0.141,-0.422,-0.886,3.3,4.58,-1.77,1,3
16623.765,0.16,-0.426,-0.896,2.78,3.54,-1.89,1,3
16623.781,0.158,-0.416,-0.908,2.66,4.27,-2.66,1,3
16623.796,0.166,-0.411,-0.91,2.47,5.58,-3.3,1,3
16623.796,0.17,-0.4,-0.895,2.23,7.08,-3.17,1,3
16623.812,0.158,-0.398,-0.881,2.69,7.72,-1.98,1,3
16623.812,0.159,-0.402,-0.875,2.38,6.87,-0.34,1,3
16623.828,0.18,-0.411,-0.87,1.71,5.55,0.06,1,3
16623.843,0.175,-0.412,-0.863,2.44,5.13,-0.12,1,3
16623.843,0.169,-0.408,-0.866,3.05,4.64,0.09,1,3
16623.859,0.192,-0.415,-0.876,2.84,3.48,0.0,1,3
16623.875,0.199,-0.425,-0.885,3.02,3.2,-0.18,1,3
16623.875,0.203,-0.427,-0.89,3.66,4.06,-0.61,1,3
16623.89,0.203,-0.43,-0.885,4.15,5.01,-1.1,1,3
16623.89,0.196,-0.434,-0.872,4.18,5.46,-1.77,1,3
16623.906,0.176,-0.44,-0.856,5.4,5.28,-2.5,1,3
16623.921,0.181,-0.447,-0.858,6.53,4.21,-2.35,1,3
16623.921,0.194,-0.454,-0.873,6.23,2.99,-2.93,1,3
16623.937,0.207,-0.463,-0.874,5.98,2.38,-4.36,1,3
