timestamp,ax,ay,az,gx,gy,gz,orient_label,motion_label
16686.859,0.086,-0.444,-0.937,3.14,-13.06,-23.74,1,3
16686.875,0.082,-0.433,-0.893,2.84,-10.13,-18.71,1,3
16686.875,0.095,-0.423,-0.86,1.31,-9.55,-12.82,1,3
16686.89,0.114,-0.442,-0.833,0.03,-10.68,-7.78,1,3
16686.906,0.106,-0.467,-0.831,-0.21,-12.63,-4.0,1,3
16686.906,0.094,-0.496,-0.853,-0.18,-14.98,-1.77,1,3
16686.921,0.092,-0.523,-0.893,0.24,-15.81,-0.58,1,3
16686.921,0.113,-0.536,-0.934,-0.21,-13.95,-0.12,1,3
16686.937,0.128,-0.535,-0.954,-0.67,-9.06,-0.95,1,3
16686.953,0.134,-0.529,-0.94,0.06,-2.84,-2.35,1,3
16686.968,0.132,-0.511,-0.894,1.43,2.69,-3.11,1,3
16686.968,0.138,-0.514,-0.841,2.66,5.28,-2.26,1,3
16686.984,0.143,-0.52,-0.799,2.23,5.01,0.03,1,3
16686.984,0.151,-0.528,-0.774,1.8,2.23,1.31,1,3
16687.0,0.16,-0.542,-0.779,2.53,-1.53,0.85,1,3
16687.015,0.178,-0.549,-0.798,2.04,-4.7,0.31,1,3
16687.015,0.207,-0.56,-0.822,1.92,-6.07,-1.34,1,3
16687.031,0.223,-0.565,-0.834,3.51,-5.16,-3.97,1,3
16687.031,0.21,-0.565,-0.828,5.19,-2.62,-6.01,1,3
16687.046,0.209,-0.559,-0.812,5.52,-1.16,-7.17,1,3
16687.062,0.197,-0.558,-0.804,5.89,-0.82,-7.66,1,3
16687.062,0.184,-0.564,-0.811,5.25,-1.62,-7.72,1,3
16687.078,0.195,-0.573,-0.822,4.76,-2.44,-7.93,1,3
16687.093,0.188,-0.566,-0.822,5.8,-1.71,-8.18,1,3
16687.093,0.191,-0.55,-0.821,6.62,-0.89,-7.81,1,3
16687.109,0.21,-0.539,-0.81,6.65,-0.21,-7.81,1,3
16687.125,0.205,-0.528,-0.796,6.47,0.03,-7.78,1,3
16687.125,0.193,-0.524,-0.783,5.16,-1.28,-6.56,1,3
16687.14,0.192,-0.529,-0.79,4.27,-3.23,-4.7,1,3
16687.14,0.184,-0.537,-0.809,4.55,-4.33,-2.41,1,3
16687.156,0.191,-0.541,-0.832,3.63,-4.43,0.03,1,3
16687.171,0.204,-0.551,-0.846,2.69,-3.2,1.4,1,3
16687.171,0.194,-0.566,-0.842,2.32,-1.13,2.04,1,3
16687.187,0.181,-0.582,-0.823,1.68,0.18,1.95,1,3
16687.203,0.182,-0.601,-0.815,3.45,-0.43,-0.4,1,3
16687.218,0.186,-0.602,-0.813,3.75,-0.85,-2.11,1,3
16687.234,0.183,-0.6,-0.805,4.24,-0.92,-4.58,1,3
16687.234,0.173,-0.589,-0.797,5.74,-0.92,-6.68,1,3
16687.25,0.172,-0.569,-0.798,6.41,-1.22,-7.9,1,3
16687.265,0.182,-0.549,-0.803,6.26,-1.56,-8.09,1,3
16687.265,0.188,-0.537,-0.803,5.58,-2.26,-6.71,1,3
16687.281,0.189,-0.54,-0.806,4.27,-3.11,-4.97,1,3
16687.296,0.179,-0.55,-0.804,3.94,-3.45,-4.12,1,3
16687.296,0.168,-0.563,-0.812,5.25,-3.97,-4.43,1,3
16687.312,0.151,-0.559,-0.833,7.14,-4.12,-6.16,1,3
16687.328,0.148,-0.547,-0.862,7.72,-4.03,-8.97,1,3
16687.328,0.147,-0.527,-0.879,7.66,-2.41,-11.81,1,3
16687.343,0.132,-0.504,-0.89,8.24,0.18,-13.43,1,3
16687.343,0.115,-0.482,-0.874,8.91,2.08,-14.95,1,3
16687.359,0.087,-0.471,-0.872,11.78,2.69,-16.3,1,3
16687.39,0.064,-0.46,-0.876,19.78,2.41,-16.97,1,3
16687.39,0.052,-0.471,-0.883,23.41,2.81,-17.43,1,3
16687.406,0.036,-0.472,-0.88,26.76,3.05,-18.52,1,3
16687.406,0.044,-0.454,-0.87,31.37,2.93,-21.45,1,3
16687.421,0.062,-0.419,-0.847,36.38,3.63,-23.96,1,3
16687.437,0.064,-0.35,-0.824,40.35,4.76,-24.6,1,3
16687.437,0.078,-0.289,-0.798,43.34,4.67,-23.35,1,3
16687.453,0.075,-0.247,-0.763,45.08,3.63,-19.84,1,3
16687.453,0.062,-0.218,-0.715,45.84,0.76,-14.19,1,3
16687.468,0.048,-0.213,-0.685,47.91,-3.2,-7.05,1,3
16687.484,0.013,-0.222,-0.662,51.3,-7.42,0.89,1,3
16687.484,-0.028,-0.242,-0.655,55.02,-12.48,8.39,1,3
16687.5,-0.068,-0.279,-0.68,59.63,-17.43,14.65,1,3
16687.515,-0.083,-0.319,-0.702,64.0,-20.63,19.44,1,3
16687.515,-0.092,-0.367,-0.742,69.61,-20.84,21.76,1,3
16687.531,-0.114,-0.404,-0.754,76.91,-18.4,21.09,1,3
16687.531,-0.119,-0.43,-0.741,89.51,-8.48,15.5,1,3
16687.546,-0.104,-0.432,-0.696,92.81,-4.52,10.86,1,3
16687.562,-0.087,-0.427,-0.633,97.54,-1.8,5.25,1,3
16687.578,-0.138,-0.453,-0.556,102.18,-0.98,1.77,1,3
16687.578,-0.119,-0.459,-0.533,104.71,-1.19,-0.03,1,3
16687.593,-0.106,-0.478,-0.525,107.79,-0.43,-2.14,1,3
16687.593,-0.093,-0.503,-0.509,111.7,1.28,-4.12,1,3
16687.609,-0.051,-0.523,-0.463,116.7,3.81,-8.42,1,3
16687.625,-0.029,-0.549,-0.422,125.22,7.69,-15.99,1,3
16687.625,-0.015,-0.577,-0.37,133.7,11.17,-25.33,1,3
16687.64,0.013,-0.619,-0.301,144.02,13.67,-38.12,1,3
16687.656,0.042,-0.647,-0.243,159.49,16.66,-53.16,1,3
16687.656,0.056,-0.645,-0.178,176.27,20.48,-68.73,1,3
16687.671,0.048,-0.642,-0.11,192.69,22.74,-82.46,1,3
16687.687,-0.005,-0.632,-0.067,206.34,21.85,-91.65,1,3
16687.687,-0.028,-0.642,-0.073,212.87,14.8,-94.52,1,3
16687.703,0.027,-0.639,-0.106,211.86,6.53,-90.67,1,3
16687.703,0.092,-0.616,-0.123,203.25,1.53,-82.37,1,3
16687.718,0.183,-0.619,-0.136,187.9,-1.34,-74.19,1,3
16687.734,0.245,-0.638,-0.107,173.1,1.16,-68.82,1,3
16687.734,0.247,-0.668,-0.069,164.62,6.38,-66.26,1,3
16687.75,0.257,-0.694,-0.042,161.63,9.92,-64.7,1,3
16687.765,0.31,-0.698,-0.017,162.94,12.42,-64.97,1,3
16687.765,0.375,-0.688,0.002,167.0,17.15,-67.11,1,3
16687.781,0.409,-0.676,-0.002,170.08,23.99,-69.43,1,3
16687.796,0.439,-0.668,0.027,169.35,30.73,-70.89,1,3
16687.796,0.477,-0.658,0.049,168.92,38.61,-72.27,1,3
16687.812,0.491,-0.668,0.052,171.06,46.72,-73.34,1,3
16687.812,0.511,-0.676,0.071,172.61,54.23,-72.36,1,3
16687.828,0.53,-0.665,0.114,174.02,63.02,-70.77,1,3
16687.843,0.515,-0.657,0.19,174.9,70.86,-68.91,1,3
16687.843,0.473,-0.638,0.28,170.26,72.02,-66.77,1,3
16687.859,0.454,-0.627,0.37,160.92,63.14,-66.35,1,3
16687.875,0.528,-0.646,0.426,156.35,37.17,-65.43,1,3
16687.89,0.572,-0.622,0.39,160.74,29.85,-66.44,1,3
16687.906,0.621,-0.65,0.339,164.89,23.26,-66.19,1,3
16687.906,0.68,-0.634,0.307,166.45,21.94,-63.33,1,3
16687.921,0.737,-0.623,0.27,165.38,27.1,-59.69,1,3
16687.937,0.802,-0.629,0.269,160.56,34.21,-55.02,1,3
16687.937,0.833,-0.626,0.299,155.37,48.22,-49.17,1,3
16687.953,0.781,-0.624,0.348,150.21,64.61,-43.86,1,3
16687.953,0.731,-0.647,0.422,142.43,69.7,-40.56,1,3
16687.968,0.691,-0.689,0.488,138.62,67.38,-41.87,1,3
16687.984,0.667,-0.731,0.514,144.05,62.62,-48.1,1,3
16687.984,0.679,-0.764,0.519,156.47,56.31,-59.33,1,3
16688.0,0.734,-0.757,0.537,175.18,52.89,-73.49,1,3
16688.015,0.762,-0.73,0.528,197.36,55.97,-85.3,1,3
16688.015,0.741,-0.678,0.509,217.29,62.04,-92.68,1,3
16688.031,0.714,-0.62,0.505,232.83,67.2,-97.23,1,3
16688.046,0.69,-0.59,0.494,244.39,70.25,-100.01,1,3
16688.046,0.652,-0.547,0.46,247.99,69.4,-102.88,1,3
16688.062,0.632,-0.494,0.441,244.7,65.13,-109.87,1,3
16688.078,0.662,-0.453,0.453,241.49,64.0,-120.85,1,3
16688.078,0.714,-0.405,0.475,239.69,71.29,-127.9,1,3
16688.093,0.716,-0.327,0.504,237.56,86.12,-127.78,1,3
16688.109,0.693,-0.261,0.555,232.92,101.63,-120.61,1,3
16688.109,0.648,-0.232,0.614,223.94,112.0,-110.48,1,3
16688.125,0.589,-0.198,0.7,212.35,115.27,-101.69,1,3
16688.14,0.504,-0.168,0.762,202.86,111.42,-95.49,1,3
16688.14,0.498,-0.131,0.806,191.11,100.74,-92.1,1,3
16688.156,0.595,-0.082,0.858,174.41,94.3,-85.73,1,3
16688.156,0.674,-0.014,0.914,155.89,100.77,-74.77,1,3
16688.171,0.69,0.02,0.971,137.55,114.23,-62.96,1,3
16688.187,0.657,0.023,1.05,118.11,126.04,-52.03,1,3
16688.187,0.608,0.015,1.154,100.89,129.83,-44.16,1,3
16688.203,0.395,-0.072,1.272,96.38,110.26,-44.04,1,3
16688.218,0.391,-0.073,1.252,103.49,91.1,-50.11,1,3
16688.234,0.43,-0.069,1.211,113.83,77.97,-59.39,1,3
16688.234,0.434,-0.041,1.156,129.67,75.69,-70.5,1,3
16688.25,0.438,-0.007,1.106,140.05,77.0,-77.3,1,3
16688.265,0.437,0.037,1.091,137.33,82.31,-79.2,1,3
16688.265,0.411,0.085,1.105,129.55,87.59,-82.43,1,3
16688.281,0.36,0.088,1.11,120.4,88.23,-88.02,1,3
16688.296,0.313,0.125,1.12,110.69,84.99,-95.22,1,3
16688.296,0.278,0.206,1.153,104.34,83.16,-105.69,1,3
16688.312,0.216,0.231,1.177,106.23,83.44,-117.68,1,3
16688.328,0.191,0.25,1.203,116.28,84.11,-126.35,1,3
16688.328,0.17,0.322,1.219,131.47,86.92,-133.7,1,3
16688.343,0.148,0.365,1.203,148.53,90.0,-139.5,1,3
16688.343,0.149,0.396,1.193,158.36,90.61,-142.12,1,3
16688.359,0.119,0.418,1.172,160.86,88.56,-143.74,1,3
16688.375,0.075,0.402,1.138,160.16,83.41,-145.27,1,3
16688.375,0.014,0.407,1.087,156.44,76.36,-149.05,1,3
16688.39,-0.014,0.421,1.048,149.27,67.87,-155.49,1,3
16688.406,-0.033,0.436,1.025,141.24,59.76,-164.01,1,3
16688.406,-0.035,0.459,1.001,137.09,55.09,-173.83,1,3
16688.421,-0.042,0.473,0.982,138.77,55.06,-184.64,1,3
16688.437,-0.054,0.474,0.962,145.79,59.76,-193.06,1,3
16688.437,-0.083,0.488,0.944,155.1,67.32,-198.58,1,3
16688.453,-0.143,0.507,0.931,163.82,74.34,-202.89,1,3
16688.453,-0.24,0.546,0.955,172.61,78.43,-206.24,1,3
16688.468,-0.353,0.566,0.973,183.84,75.93,-206.79,1,3
16688.484,-0.429,0.569,0.944,193.0,65.92,-203.74,1,3
16688.484,-0.461,0.644,0.933,197.24,52.89,-197.61,1,3
16688.5,-0.498,0.761,0.918,198.77,39.37,-194.74,1,3
16688.515,-0.509,0.826,0.889,189.03,22.03,-191.72,1,3
16688.515,-0.474,0.878,0.86,137.7,-7.48,-181.4,1,3
16688.546,-0.399,0.874,0.778,88.2,-9.55,-168.1,1,3
16688.546,-0.384,0.844,0.759,73.09,-1.62,-159.43,1,3
16688.562,-0.367,0.832,0.741,64.64,9.83,-152.53,1,3
16688.562,-0.384,0.814,0.73,59.85,22.98,-147.74,1,3
16688.578,-0.431,0.795,0.752,58.75,36.16,-143.5,1,3
16688.593,-0.519,0.778,0.769,62.56,44.98,-139.32,1,3
16688.593,-0.581,0.77,0.774,65.28,45.41,-133.85,1,3
16688.609,-0.599,0.775,0.773,64.58,39.74,-127.9,1,3
16688.625,-0.6,0.785,0.754,59.94,30.98,-124.85,1,3
16688.625,-0.603,0.77,0.75,49.96,20.02,-124.09,1,3
16688.64,-0.594,0.76,0.759,42.6,11.05,-122.41,1,3
16688.656,-0.582,0.746,0.725,42.82,5.31,-120.58,1,3
16688.656,-0.566,0.733,0.694,43.76,3.08,-116.49,1,3
16688.671,-0.562,0.731,0.679,44.4,3.66,-112.03,1,3
16688.687,-0.577,0.723,0.667,46.08,5.46,-108.07,1,3
16688.687,-0.608,0.705,0.656,48.28,6.53,-103.03,1,3
16688.703,-0.625,0.714,0.625,45.23,1.59,-91.62,1,3
16688.718,-0.621,0.712,0.601,37.14,-2.44,-86.31,1,3
16688.734,-0.608,0.701,0.575,25.7,-5.49,-80.29,1,3
16688.75,-0.586,0.697,0.555,12.63,-6.44,-74.98,1,3
16688.75,-0.576,0.684,0.541,-0.24,-4.18,-70.47,1,3
16688.765,-0.584,0.667,0.539,-11.11,0.55,-65.77,1,3
16688.765,-0.593,0.649,0.538,-19.35,6.71,-60.55,1,3
16688.781,-0.599,0.639,0.555,-24.84,13.49,-54.99,1,3
16688.796,-0.625,0.631,0.561,-27.77,19.17,-50.51,1,3
16688.796,-0.621,0.604,0.555,-30.85,22.4,-46.39,1,3
16688.812,-0.642,0.603,0.56,-32.81,26.7,-43.64,1,3
16688.828,-0.66,0.563,0.573,-32.32,27.8,-40.99,1,3
16688.828,-0.675,0.558,0.584,-30.24,29.91,-37.26,1,3
16688.843,-0.692,0.573,0.593,-29.6,27.19,-35.04,1,3
16688.843,-0.698,0.571,0.589,-32.41,20.51,-34.3,1,3
16688.859,-0.704,0.551,0.591,-38.0,14.22,-31.86,1,3
16688.875,-0.694,0.548,0.593,-42.54,8.97,-29.18,1,3
16688.875,-0.681,0.554,0.575,-45.17,4.94,-29.02,1,3
16688.89,-0.674,0.521,0.568,-49.26,3.17,-26.98,1,3
16688.906,-0.667,0.521,0.58,-53.07,3.91,-24.57,1,3
16688.906,-0.672,0.506,0.582,-54.02,5.34,-23.26,1,3
16688.921,-0.698,0.482,0.6,-52.92,5.37,-21.49,1,3
16688.921,-0.714,0.462,0.6,-48.4,4.27,-17.82,1,3
16688.937,-0.712,0.471,0.602,-44.37,2.11,-15.26,1,3
16688.953,-0.703,0.454,0.595,-42.12,-1.62,-15.9,1,3
16688.968,-0.694,0.447,0.583,-41.72,-4.88,-18.98,1,3
16688.968,-0.695,0.438,0.577,-40.1,-6.23,-23.56,1,3
16688.984,-0.707,0.424,0.576,-36.81,-6.53,-27.19,1,3
16688.984,-0.714,0.428,0.574,-31.5,-5.86,-28.72,1,3
16689.0,-0.72,0.445,0.571,-25.12,-4.36,-29.45,1,3
16689.015,-0.734,0.459,0.574,-20.48,-3.45,-29.69,1,3
16689.015,-0.738,0.468,0.572,-18.68,-4.36,-29.02,1,3
16689.031,-0.733,0.472,0.575,-18.8,-6.13,-27.41,1,3
16689.046,-0.728,0.477,0.576,-19.44,-7.87,-25.76,1,3
16689.046,-0.722,0.473,0.57,-20.05,-9.34,-24.29,1,3
16689.062,-0.716,0.467,0.568,-20.48,-10.28,-22.92,1,3
16689.062,-0.71,0.457,0.566,-19.99,-10.47,-22.0,1,3
16689.078,-0.706,0.445,0.561,-18.22,-9.31,-21.27,1,3
16689.093,-0.706,0.439,0.554,-15.2,-7.14,-20.26,1,3
16689.109,-0.709,0.434,0.55,-12.02,-4.94,-19.65,1,3
16689.109,-0.713,0.431,0.55,-9.16,-2.72,-19.17,1,3
16689.125,-0.719,0.432,0.551,-6.74,-0.7,-18.8,1,3
16689.125,-0.72,0.431,0.55,-4.12,1.25,-17.91,1,3
16689.14,-0.737,0.437,0.564,-2.17,3.08,-16.91,1,3
16689.156,-0.743,0.437,0.57,-1.04,3.17,-15.11,1,3
16689.156,-0.739,0.436,0.571,-0.92,2.59,-12.82,1,3
16689.171,-0.732,0.438,0.577,-1.71,1.86,-11.17,1,3
16689.171,-0.724,0.428,0.578,-1.98,1.43,-9.86,1,3
16689.187,-0.722,0.421,0.578,-1.89,1.4,-8.51,1,3
16689.203,-0.718,0.416,0.581,-1.28,1.37,-7.48,1,3
16689.203,-0.717,0.41,0.582,0.06,1.68,-6.53,1,3
16689.218,-0.722,0.404,0.585,2.2,1.46,-5.71,1,3
16689.234,-0.72,0.399,0.579,4.73,1.16,-4.79,1,3
16689.234,-0.719,0.396,0.576,6.9,0.95,-3.97,1,3
16689.25,-0.719,0.398,0.574,8.42,0.52,-3.39,1,3
16689.265,-0.721,0.399,0.571,9.0,0.0,-2.72,1,3
16689.265,-0.722,0.394,0.57,8.91,-0.55,-1.65,1,3
16689.281,-0.716,0.389,0.565,8.61,-0.64,-0.24,1,3
16689.296,-0.712,0.386,0.563,8.36,-0.12,1.01,1,3
16689.296,-0.709,0.381,0.562,8.24,0.7,2.2,1,3
16689.312,-0.708,0.378,0.562,7.87,1.53,3.23,1,3
16689.312,-0.703,0.374,0.561,7.26,2.44,3.85,1,3
16689.328,-0.7,0.365,0.559,6.96,3.75,4.3,1,3
16689.343,-0.709,0.364,0.566,6.47,5.07,4.64,1,3
16689.343,-0.706,0.363,0.565,6.01,5.4,5.04,1,3
16689.359,-0.706,0.361,0.566,5.28,6.29,5.49,1,3
16689.375,-0.715,0.36,0.576,4.64,6.99,5.89,1,3
16689.375,-0.726,0.356,0.577,3.91,6.44,6.81,1,3
16689.39,-0.717,0.356,0.574,2.84,5.19,7.84,1,3
16689.406,-0.714,0.348,0.567,1.25,4.39,8.36,1,3
16689.406,-0.704,0.342,0.564,-0.43,4.39,8.24,1,3
16689.421,-0.703,0.336,0.56,-1.65,5.13,7.93,1,3
16689.437,-0.704,0.335,0.562,-2.26,6.47,7.66,1,3
16689.437,-0.711,0.335,0.567,-2.29,7.51,7.72,1,3
16689.453,-0.714,0.335,0.572,-2.2,7.87,8.09,1,3
16689.453,-0.714,0.332,0.575,-2.75,7.39,8.67,1,3
16689.468,-0.705,0.336,0.573,-3.85,6.68,8.36,1,3
16689.484,-0.701,0.334,0.573,-5.22,6.32,7.69,1,3
16689.484,-0.705,0.326,0.577,-6.5,6.47,7.23,1,3
16689.5,-0.707,0.327,0.58,-7.66,6.74,6.13,1,3
16689.515,-0.708,0.328,0.582,-8.42,6.87,5.46,1,3
16689.515,-0.706,0.328,0.583,-8.91,6.84,4.64,1,3
16689.531,-0.706,0.328,0.586,-9.34,6.93,4.24,1,3
16689.531,-0.709,0.331,0.592,-9.13,7.32,3.72,1,3
16689.562,-0.713,0.335,0.596,-8.03,7.08,3.02,1,3
16689.562,-0.714,0.338,0.598,-7.9,6.2,2.44,1,3
16689.578,-0.718,0.338,0.598,-7.78,5.34,1.83,1,3
16689.593,-0.716,0.34,0.596,-7.81,4.67,1.4,1,3
16689.609,-0.716,0.34,0.595,-7.48,4.36,1.04,1,3
16689.609,-0.719,0.342,0.594,-6.93,4.39,0.89,1,3
16689.625,-0.715,0.344,0.589,-6.71,4.15,1.07,1,3
16689.625,-0.711,0.347,0.586,-6.81,4.0,1.13,1,3
16689.64,-0.709,0.346,0.584,-7.14,4.15,0.92,1,3
16689.656,-0.715,0.343,0.585,-7.14,4.76,0.73,1,3
16689.656,-0.724,0.343,0.589,-6.87,5.13,0.67,1,3
16689.671,-0.726,0.346,0.588,-6.78,4.73,1.1,1,3
16689.687,-0.727,0.349,0.587,-7.08,4.15,1.31,1,3
16689.687,-0.728,0.349,0.587,-7.93,3.75,1.37,1,3
16689.703,-0.731,0.349,0.59,-8.91,3.05,1.62,1,3
16689.703,-0.729,0.351,0.59,-10.07,1.95,2.2,1,3
16689.734,-0.722,0.345,0.589,-11.08,-0.27,2.96,1,3
16689.75,-0.719,0.344,0.585,-11.08,-0.92,2.9,1,3
16689.75,-0.718,0.34,0.581,-10.77,-1.04,2.72,1,3
16689.765,-0.716,0.338,0.58,-10.01,-0.79,2.41,1,3
16689.765,-0.719,0.336,0.577,-9.0,-0.12,2.08,1,3
16689.781,-0.722,0.338,0.575,-8.06,0.49,1.43,1,3
16689.796,-0.725,0.337,0.576,-7.14,0.64,0.92,1,3
16689.796,-0.725,0.339,0.576,-6.16,0.52,0.7,1,3
16689.812,-0.726,0.342,0.575,-5.28,0.49,0.31,1,3
16689.828,-0.726,0.341,0.573,-4.24,0.34,0.27,1,3
16689.828,-0.729,0.343,0.57,-3.17,0.31,0.49,1,3
16689.843,-0.73,0.344,0.568,-2.66,0.09,0.49,1,3
16689.843,-0.732,0.346,0.567,-2.66,-0.37,0.46,1,3
16689.859,-0.731,0.339,0.56,-2.35,-0.21,0.58,1,3
16689.875,-0.739,0.34,0.565,-2.17,-0.12,0.76,1,3
16689.89,-0.734,0.341,0.561,-2.29,-0.37,0.79,1,3
16689.89,-0.733,0.336,0.559,-1.77,-0.03,0.95,1,3
16689.906,-0.737,0.336,0.56,-1.1,0.0,0.79,1,3
16689.921,-0.743,0.333,0.561,-0.03,-0.27,0.7,1,3
16689.921,-0.74,0.332,0.558,0.82,-0.79,0.64,1,3
16689.937,-0.735,0.334,0.556,1.43,-1.25,0.64,1,3
16689.953,-0.734,0.332,0.553,1.77,-1.59,0.37,1,3
16689.968,-0.733,0.328,0.549,2.2,-1.19,0.12,1,3
16689.968,-0.734,0.326,0.545,2.69,-0.82,0.0,1,3
16689.984,-0.735,0.326,0.539,2.66,-0.27,-0.24,1,3
16689.984,-0.739,0.329,0.544,2.14,0.27,-0.64,1,3
16690.0,-0.744,0.326,0.545,1.74,0.61,-0.7,1,3
16690.015,-0.744,0.328,0.546,0.76,0.58,-0.31,1,3
16690.015,-0.738,0.33,0.546,-0.64,0.03,-0.15,1,3
16690.031,-0.733,0.325,0.546,-2.23,-0.09,-0.43,1,3
16690.046,-0.731,0.321,0.548,-3.27,0.15,-0.76,1,3
16690.046,-0.729,0.319,0.551,-3.36,0.64,-1.13,1,3
16690.062,-0.727,0.32,0.553,-2.93,1.04,-1.92,1,3
16690.078,-0.725,0.323,0.556,-2.38,1.22,-2.35,1,3
16690.093,-0.727,0.327,0.555,-2.41,1.16,-2.93,1,3
16690.093,-0.726,0.327,0.556,-2.84,1.04,-3.6,1,3
16690.109,-0.729,0.329,0.562,-2.99,1.25,-4.09,1,3
16690.125,-0.735,0.333,0.568,-2.81,1.5,-4.33,1,3
16690.125,-0.735,0.337,0.572,-2.81,1.53,-4.61,1,3
16690.14,-0.735,0.34,0.573,-3.02,1.34,-4.82,1,3
16690.156,-0.737,0.343,0.577,-2.93,1.46,-5.04,1,3
16690.156,-0.74,0.343,0.58,-2.81,1.56,-5.04,1,3
16690.171,-0.74,0.345,0.584,-2.41,1.53,-5.25,1,3
16690.187,-0.743,0.346,0.59,-1.56,1.56,-5.43,1,3
16690.187,-0.745,0.345,0.595,-0.34,1.5,-5.55,1,3
16690.203,-0.747,0.345,0.606,0.92,1.07,-5.4,1,3
16690.203,-0.746,0.344,0.61,2.11,0.58,-5.46,1,3
16690.218,-0.748,0.342,0.61,3.08,-0.06,-5.77,1,3
16690.234,-0.753,0.339,0.606,4.12,-0.79,-6.35,1,3
16690.234,-0.757,0.337,0.6,4.97,-1.77,-6.68,1,3
16690.25,-0.753,0.338,0.589,5.16,-2.66,-6.71,1,3
16690.265,-0.749,0.34,0.578,4.76,-2.9,-6.53,1,3
16690.265,-0.745,0.341,0.57,3.78,-2.32,-6.56,1,3
16690.281,-0.744,0.342,0.565,2.11,-1.34,-6.1,1,3
16690.296,-0.739,0.344,0.561,0.15,-0.61,-5.1,1,3
16690.296,-0.733,0.342,0.558,-1.98,0.06,-4.39,1,3
16690.312,-0.727,0.334,0.558,-3.51,0.7,-4.09,1,3
16690.328,-0.731,0.331,0.558,-4.06,1.43,-3.91,1,3
16690.328,-0.731,0.327,0.559,-4.0,1.65,-3.57,1,3
16690.343,-0.725,0.327,0.556,-3.51,1.86,-3.36,1,3
16690.343,-0.723,0.325,0.552,-2.75,2.2,-3.39,1,3
16690.359,-0.717,0.323,0.545,-2.01,2.56,-3.2,1,3
16690.375,-0.71,0.322,0.537,-1.98,2.87,-2.78,1,3
16690.375,-0.703,0.322,0.532,-2.59,3.51,-2.32,1,3
16690.39,-0.699,0.32,0.53,-3.39,4.09,-1.77,1,3
16690.406,-0.704,0.315,0.539,-4.76,4.49,-1.16,1,3
16690.421,-0.703,0.312,0.537,-6.35,3.85,-0.34,1,3
16690.421,-0.703,0.301,0.531,-6.84,3.48,-0.06,1,3
16690.421,-0.703,0.295,0.53,-7.32,3.14,-0.49,1,3
16690.437,-0.703,0.285,0.534,-7.05,3.14,-1.34,1,3
16690.453,-0.708,0.282,0.531,-6.04,3.2,-2.11,1,3
16690.453,-0.711,0.282,0.529,-5.43,3.48,-3.17,1,3
16690.468,-0.714,0.277,0.533,-4.61,3.88,-4.64,1,3
16690.484,-0.72,0.271,0.531,-3.08,4.61,-6.38,1,3
16690.484,-0.728,0.27,0.532,-0.49,5.65,-9.98,1,3
16690.5,-0.732,0.269,0.533,0.85,5.89,-11.75,1,3
16690.515,-0.741,0.267,0.536,1.95,5.86,-13.7,1,3
16690.515,-0.755,0.268,0.54,2.53,5.92,-15.66,1,3
16690.531,-0.762,0.265,0.542,3.3,5.89,-17.52,1,3
16690.546,-0.775,0.266,0.543,4.64,5.43,-19.38,1,3
16690.546,-0.779,0.269,0.537,6.26,4.46,-20.87,1,3
16690.562,-0.781,0.276,0.532,7.42,3.91,-22.1,1,3
16690.562,-0.786,0.282,0.53,7.66,4.06,-23.32,1,3
16690.578,-0.79,0.291,0.533,7.08,5.01,-24.2,1,3
16690.593,-0.792,0.304,0.538,5.92,6.65,-24.26,1,3
16690.609,-0.796,0.316,0.55,4.36,8.51,-23.56,1,3
16690.609,-0.799,0.325,0.568,2.56,10.25,-22.25,1,3
16690.625,-0.809,0.335,0.598,1.25,11.2,-20.45,1,3
16690.625,-0.815,0.34,0.654,1.04,11.69,-17.76,1,3
16690.64,-0.815,0.336,0.711,3.39,12.42,-14.74,1,3
16690.656,-0.823,0.338,0.745,7.48,12.85,-12.18,1,3
16690.656,-0.84,0.332,0.757,13.09,11.66,-10.62,1,3
16690.671,-0.845,0.314,0.761,20.29,8.64,-9.61,1,3
16690.671,-0.85,0.317,0.757,27.83,5.83,-10.5,1,3
16690.687,-0.866,0.316,0.747,33.97,2.41,-14.98,1,3
16690.703,-0.877,0.309,0.758,39.12,-0.98,-20.81,1,3
16690.703,-0.897,0.31,0.765,46.11,-3.72,-26.43,1,3
16690.718,-0.931,0.309,0.775,55.85,-5.83,-31.37,1,3
16690.734,-0.97,0.294,0.783,69.25,-7.42,-34.27,1,3
16690.734,-1.004,0.267,0.768,88.14,-8.03,-34.46,1,3
16690.75,-1.005,0.254,0.72,111.27,-8.73,-34.36,1,3
16690.765,-0.986,0.242,0.664,134.07,-10.5,-37.39,1,3
16690.765,-0.97,0.223,0.613,155.49,-13.15,-44.1,1,3
16690.781,-0.968,0.226,0.569,173.92,-17.15,-52.06,1,3
16690.796,-0.975,0.247,0.531,187.57,-22.22,-60.12,1,3
16690.796,-0.976,0.276,0.497,195.14,-26.31,-67.48,1,3
16690.812,-0.965,0.218,0.48,202.76,-28.87,-75.2,1,3
16690.828,-0.962,0.175,0.48,214.09,-31.95,-83.19,1,3
16690.828,-0.943,0.14,0.428,234.57,-34.76,-89.45,1,3
16690.843,-0.913,0.151,0.343,257.24,-35.34,-94.76,1,3
16690.859,-0.879,0.216,0.272,272.29,-34.7,-99.43,1,3
16690.859,-0.858,0.272,0.215,277.96,-32.07,-102.88,1,3
16690.875,-0.861,0.339,0.171,273.14,-28.6,-102.51,1,3
16690.89,-0.838,0.431,0.1,258.95,-23.96,-97.69,1,3
16690.89,-0.837,0.482,0.09,236.21,-17.76,-89.66,1,3
16690.906,-0.833,0.507,0.083,207.98,-12.97,-78.77,1,3
16690.921,-0.798,0.573,0.036,138.37,-2.9,-48.95,1,3
16690.937,-0.789,0.568,0.012,99.61,-2.96,-35.52,1,3
16690.937,-0.693,0.551,0.029,57.44,3.17,-22.89,1,3
16690.953,-0.724,0.565,0.026,17.76,7.42,-12.21,1,3
16690.953,-0.694,0.519,0.037,-19.9,1.28,-3.45,1,3
16690.968,-0.648,0.509,0.044,-54.08,3.14,6.29,1,3
16690.984,-0.649,0.536,0.024,-88.14,7.69,15.63,1,3
16690.984,-0.652,0.54,0.045,-124.52,11.78,23.29,1,3
16691.0,-0.666,0.557,0.073,-163.12,16.66,31.53,1,3
16691.015,-0.695,0.559,0.1,-202.19,20.02,41.2,1,3
16691.015,-0.732,0.542,0.141,-239.36,20.02,50.69,1,3
16691.031,-0.772,0.514,0.201,-271.8,21.18,60.06,1,3
16691.046,-0.826,0.488,0.261,-297.98,22.25,68.61,1,3
16691.046,-0.876,0.441,0.325,-316.54,22.92,76.82,1,3
16691.062,-0.924,0.384,0.384,-326.43,26.15,84.75,1,3
16691.078,-0.97,0.339,0.454,-330.15,29.82,89.97,1,3
16691.093,-0.984,0.264,0.55,-311.26,33.36,90.73,1,3
16691.093,-0.982,0.238,0.596,-291.73,33.94,85.57,1,3
16691.109,-0.971,0.197,0.639,-265.94,32.11,78.74,1,3
16691.125,-0.925,0.178,0.681,-232.64,31.37,69.77,1,3
16691.125,-0.909,0.169,0.697,-191.35,31.5,57.77,1,3
16691.14,-0.9,0.156,0.702,-147.22,28.96,44.62,1,3
16691.156,-0.898,0.162,0.716,-102.76,25.67,31.34,1,3
16691.156,-0.924,0.176,0.717,-58.41,21.64,19.62,1,3
16691.171,-0.941,0.202,0.696,-18.83,17.06,11.23,1,3
16691.171,-0.953,0.242,0.669,11.54,12.76,5.4,1,3
16691.187,-0.965,0.264,0.641,31.31,8.94,1.65,1,3
16691.203,-0.981,0.282,0.617,42.24,6.47,-0.52,1,3
16691.203,-1.006,0.291,0.6,47.03,4.91,-0.98,1,3
16691.218,-1.039,0.293,0.582,47.06,3.17,0.82,1,3
16691.234,-1.06,0.294,0.568,42.97,0.73,4.21,1,3
16691.234,-1.065,0.285,0.548,36.13,-2.41,8.12,1,3
16691.25,-1.063,0.268,0.526,27.74,-4.85,11.93,1,3
16691.265,-1.061,0.253,0.509,19.2,-6.23,15.41,1,3
16691.265,-1.06,0.231,0.494,11.51,-6.53,18.74,1,3
16691.281,-1.049,0.213,0.481,4.61,-6.35,22.8,1,3
16691.296,-1.036,0.202,0.472,-1.34,-5.37,26.22,1,3
16691.296,-1.026,0.188,0.462,-6.74,-4.0,28.69,1,3
16691.312,-1.01,0.175,0.454,-11.47,-2.96,30.12,1,3
16691.312,-0.991,0.161,0.45,-15.23,-1.8,30.12,1,3
16691.328,-0.97,0.151,0.445,-18.31,-0.43,29.05,1,3
16691.343,-0.956,0.143,0.448,-21.06,1.28,27.74,1,3
16691.359,-0.949,0.139,0.451,-24.08,2.81,26.37,1,3
16691.359,-0.941,0.136,0.453,-27.41,4.36,24.78,1,3
16691.375,-0.939,0.138,0.464,-31.13,5.46,23.29,1,3
16691.375,-0.938,0.139,0.469,-34.91,5.28,21.82,1,3
16691.39,-0.926,0.14,0.474,-38.7,3.94,20.48,1,3
16691.406,-0.911,0.144,0.479,-41.57,2.69,18.8,1,3
16691.406,-0.893,0.145,0.478,-43.24,1.86,16.75,1,3
16691.421,-0.879,0.145,0.479,-44.04,1.56,14.8,1,3
16691.421,-0.867,0.145,0.476,-43.37,1.65,12.76,1,3
16691.437,-0.859,0.148,0.477,-41.84,1.77,10.68,1,3
16691.453,-0.849,0.151,0.477,-39.98,1.37,8.79,1,3
16691.453,-0.834,0.158,0.475,-38.27,-0.06,6.93,1,3
16691.468,-0.813,0.163,0.468,-36.41,-2.11,3.42,1,3
16691.484,-0.792,0.171,0.463,-35.74,-1.56,2.04,1,3
16691.484,-0.783,0.177,0.461,-35.0,-1.31,1.22,1,3
16691.5,-0.772,0.179,0.457,-35.25,-2.23,0.98,1,3
16691.515,-0.72,0.186,0.436,-35.98,-3.02,1.53,1,3
16691.515,-0.689,0.184,0.431,-37.97,-3.66,2.29,1,3
16691.531,-0.656,0.179,0.4,-40.04,-4.15,2.47,1,3
16691.546,-0.637,0.181,0.412,-41.87,-2.66,2.84,1,3
16691.546,-0.626,0.177,0.417,-41.99,-1.5,3.42,1,3
16691.562,-0.619,0.177,0.409,-41.44,-0.4,4.18,1,3
16691.578,-0.614,0.183,0.423,-40.8,1.31,5.55,1,3
16691.578,-0.614,0.171,0.443,-39.22,1.59,6.41,1,3
16691.593,-0.618,0.161,0.446,-37.35,0.15,6.65,1,3
16691.593,-0.626,0.155,0.451,-35.74,-2.14,7.11,1,3
16691.609,-0.621,0.142,0.447,-34.85,-6.16,7.05,1,3
16691.625,-0.612,0.129,0.434,-34.33,-9.89,5.83,1,3
16691.625,-0.607,0.121,0.427,-33.63,-11.81,3.27,1,3
16691.64,-0.609,0.119,0.428,-32.07,-12.33,0.31,1,3
16691.656,-0.619,0.114,0.428,-29.15,-11.29,-2.69,1,3
16691.656,-0.631,0.109,0.433,-24.78,-9.49,-5.34,1,3
16691.671,-0.643,0.109,0.433,-20.2,-7.75,-7.57,1,3
16691.671,-0.66,0.116,0.441,-16.63,-6.74,-9.98,1,3
16691.687,-0.675,0.126,0.449,-14.28,-7.08,-12.6,1,3
16691.703,-0.679,0.139,0.448,-13.31,-7.84,-15.53,1,3
16691.703,-0.691,0.151,0.456,-13.09,-7.39,-18.43,1,3
16691.718,-0.707,0.158,0.466,-13.0,-5.31,-20.69,1,3
16691.734,-0.726,0.162,0.472,-12.97,-1.65,-21.7,1,3
16691.734,-0.749,0.17,0.485,-13.49,2.5,-21.3,1,3
16691.75,-0.777,0.179,0.502,-15.17,6.35,-20.29,1,3
16691.765,-0.8,0.177,0.514,-18.59,8.88,-18.95,1,3
16691.765,-0.818,0.181,0.531,-23.53,10.13,-17.58,1,3
16691.781,-0.837,0.183,0.552,-27.5,10.04,-16.3,1,3
16691.796,-0.841,0.184,0.564,-29.94,8.67,-14.01,1,3
16691.796,-0.834,0.187,0.572,-31.65,6.81,-11.14,1,3
16691.812,-0.826,0.186,0.575,-32.84,5.13,-8.21,1,3
16691.828,-0.822,0.183,0.578,-34.42,3.91,-5.49,1,3
16691.828,-0.814,0.174,0.575,-36.35,2.99,-2.9,1,3
16691.843,-0.806,0.164,0.576,-37.87,3.05,-0.67,1,3
16691.843,-0.808,0.155,0.581,-38.67,3.81,1.4,1,3
16691.859,-0.803,0.141,0.581,-38.85,4.33,3.69,1,3
16691.875,-0.79,0.129,0.58,-38.73,4.64,6.38,1,3
16691.875,-0.785,0.123,0.582,-38.54,4.67,8.7,1,3
16691.89,-0.773,0.105,0.588,-38.33,3.69,10.93,1,3
16691.906,-0.767,0.104,0.593,-38.54,2.32,12.63,1,3
16691.906,-0.769,0.099,0.602,-39.16,-0.43,12.79,1,3
16691.937,-0.768,0.087,0.614,-38.58,-10.44,11.75,1,3
16691.937,-0.759,0.075,0.609,-35.89,-15.38,11.11,1,3
16691.953,-0.758,0.067,0.602,-31.65,-18.77,10.83,1,3
16691.968,-0.756,0.067,0.601,-27.41,-21.49,10.44,1,3
16691.968,-0.752,0.068,0.599,-24.2,-24.02,9.52,1,3
16691.984,-0.748,0.066,0.598,-21.39,-26.46,8.15,1,3
16691.984,-0.739,0.068,0.596,-18.62,-29.08,6.9,1,3
16692.0,-0.735,0.07,0.592,-15.69,-31.83,5.74,1,3
16692.015,-0.735,0.073,0.593,-13.28,-35.07,5.34,1,3
16692.015,-0.739,0.086,0.598,-12.94,-39.09,5.25,1,3
16692.031,-0.742,0.089,0.6,-14.07,-44.16,5.37,1,3
16692.031,-0.737,0.083,0.594,-15.56,-49.23,6.23,1,3
16692.046,-0.724,0.079,0.586,-16.82,-52.86,7.26,1,3
16692.062,-0.709,0.069,0.575,-17.33,-54.54,8.06,1,3
16692.062,-0.697,0.06,0.568,-16.66,-53.74,8.45,1,3
16692.078,-0.704,0.061,0.567,-14.92,-50.84,8.55,1,3
16692.109,-0.726,0.071,0.589,-11.63,-44.62,9.19,1,3
16692.109,-0.751,0.079,0.607,-10.47,-43.12,9.34,1,3
16692.125,-0.77,0.075,0.616,-10.28,-44.07,10.71,1,3
16692.125,-0.762,0.076,0.617,-12.7,-47.12,13.52,1,3
16692.14,-0.742,0.076,0.608,-16.82,-50.42,15.56,1,3
16692.156,-0.713,0.058,0.592,-21.94,-52.8,15.66,1,3
16692.156,-0.688,0.045,0.585,-26.34,-53.04,14.44,1,3
16692.171,-0.663,0.026,0.577,-27.44,-50.42,13.15,1,3
16692.187,-0.646,0.015,0.568,-25.39,-44.43,12.42,1,3
16692.187,-0.64,0.013,0.57,-21.49,-36.38,11.6,1,3
16692.203,-0.641,0.016,0.583,-16.97,-27.89,11.2,1,3
16692.203,-0.66,0.025,0.603,-12.15,-19.93,10.77,1,3
16692.218,-0.675,0.033,0.617,-8.03,-14.71,10.32,1,3
16692.234,-0.678,0.041,0.622,-5.65,-11.99,9.92,1,3
16692.234,-0.677,0.05,0.627,-5.25,-10.32,9.19,1,3
16692.25,-0.67,0.053,0.63,-6.32,-9.43,8.48,1,3
16692.265,-0.653,0.053,0.629,-8.73,-6.84,9.55,1,3
16692.281,-0.644,0.056,0.638,-9.98,-3.54,10.62,1,3
16692.296,-0.638,0.053,0.647,-10.99,0.37,11.02,1,3
16692.296,-0.649,0.05,0.66,-10.41,4.49,10.65,1,3
16692.312,-0.659,0.052,0.677,-8.51,6.96,9.8,1,3
16692.312,-0.665,0.054,0.69,-6.04,7.48,8.42,1,3
16692.328,-0.669,0.047,0.692,-2.81,6.9,6.87,1,3
16692.343,-0.663,0.045,0.688,0.64,5.65,5.89,1,3
16692.359,-0.658,0.056,0.689,3.42,4.33,4.85,1,3
16692.359,-0.659,0.068,0.693,5.34,3.08,3.85,1,3
16692.375,-0.662,0.09,0.71,5.89,1.8,3.75,1,3
16692.375,-0.662,0.102,0.719,5.37,0.12,4.52,1,3
16692.39,-0.656,0.098,0.713,3.88,-1.31,5.95,1,3
16692.406,-0.649,0.089,0.704,2.5,-2.5,7.29,1,3
16692.406,-0.64,0.077,0.694,2.38,-3.14,7.78,1,3
16692.421,-0.628,0.066,0.68,3.6,-3.05,7.66,1,3
16692.437,-0.627,0.069,0.672,8.15,-0.27,4.67,1,3
16692.453,-0.639,0.078,0.684,14.16,2.38,1.31,1,3
16692.453,-0.654,0.083,0.698,17.49,3.78,0.37,1,3
16692.468,-0.673,0.088,0.706,20.51,4.33,0.37,1,3
16692.484,-0.699,0.103,0.717,21.42,3.05,1.13,1,3
16692.5,-0.707,0.123,0.702,19.62,1.5,2.32,1,3
16692.5,-0.71,0.121,0.696,16.42,0.67,3.94,1,3
16692.515,-0.704,0.118,0.691,12.54,0.49,5.86,1,3
16692.515,-0.694,0.12,0.686,8.97,1.22,6.93,1,3
16692.531,-0.694,0.119,0.69,6.5,2.99,7.69,1,3
16692.546,-0.701,0.117,0.699,5.34,5.25,8.7,1,3
16692.546,-0.707,0.12,0.708,4.76,6.84,9.43,1,3
16692.562,-0.705,0.12,0.714,4.64,7.23,9.58,1,3
16692.578,-0.704,0.12,0.72,5.55,7.23,9.06,1,3
16692.578,-0.703,0.12,0.72,7.48,6.47,8.48,1,3
16692.593,-0.691,0.124,0.715,9.86,4.91,8.15,1,3
16692.609,-0.668,0.135,0.683,13.58,2.38,7.66,1,3
16692.625,-0.666,0.144,0.674,13.73,1.65,7.93,1,3
16692.625,-0.662,0.148,0.667,12.76,1.37,8.48,1,3
16692.64,-0.664,0.148,0.666,11.96,2.5,9.43,1,3
16692.656,-0.675,0.145,0.672,11.41,4.27,10.56,1,3
16692.656,-0.685,0.142,0.673,11.11,5.65,11.69,1,3
16692.671,-0.692,0.137,0.676,11.02,6.56,11.99,1,3
16692.687,-0.697,0.134,0.679,10.96,7.26,10.99,1,3
16692.687,-0.706,0.131,0.683,12.27,8.03,9.22,1,3
16692.703,-0.718,0.137,0.689,14.89,8.3,7.08,1,3
16692.703,-0.729,0.154,0.692,17.49,7.78,5.13,1,3
16692.718,-0.726,0.172,0.687,19.2,6.44,3.78,1,3
16692.734,-0.721,0.188,0.68,19.62,5.98,3.48,1,3
16692.734,-0.728,0.209,0.672,18.1,6.65,4.67,1,3
16692.75,-0.736,0.227,0.665,14.25,7.26,7.66,1,3
16692.765,-0.725,0.236,0.664,8.18,7.39,11.54,1,3
16692.765,-0.714,0.236,0.655,1.25,7.63,15.29,1,3
16692.781,-0.699,0.23,0.652,-5.43,8.7,18.56,1,3
16692.796,-0.687,0.221,0.652,-10.28,9.83,21.33,1,3
16692.796,-0.68,0.212,0.654,-12.51,11.32,23.68,1,3
16692.812,-0.674,0.209,0.657,-13.31,12.91,25.3,1,3
16692.828,-0.672,0.205,0.664,-13.46,14.44,25.7,1,3
16692.828,-0.679,0.2,0.677,-12.76,15.84,25.45,1,3
16692.843,-0.694,0.196,0.694,-11.6,16.63,24.72,1,3
16692.843,-0.704,0.191,0.701,-9.7,16.02,23.62,1,3
16692.859,-0.708,0.184,0.704,-7.02,14.95,21.94,1,3
16692.875,-0.72,0.177,0.708,-3.48,13.64,19.41,1,3
16692.875,-0.736,0.179,0.713,0.52,11.69,16.91,1,3
16692.89,-0.743,0.187,0.714,4.12,8.42,15.02,1,3
16692.906,-0.734,0.194,0.706,6.44,4.76,13.18,1,3
16692.906,-0.727,0.199,0.693,7.87,2.35,11.26,1,3
16692.921,-0.724,0.206,0.681,8.85,0.73,10.28,1,3
16692.937,-0.717,0.214,0.668,9.22,-0.09,9.74,1,3
16692.953,-0.705,0.224,0.651,9.31,0.85,9.22,1,3
16692.953,-0.698,0.225,0.644,9.49,1.83,8.97,1,3
16692.968,-0.694,0.228,0.637,9.92,3.2,8.58,1,3
16692.984,-0.692,0.233,0.63,10.56,4.73,8.12,1,3
16692.984,-0.699,0.244,0.63,10.99,6.56,7.93,1,3
16693.0,-0.709,0.254,0.633,10.62,7.93,8.36,1,3
16693.015,-0.713,0.265,0.643,9.19,9.0,9.37,1,3
16693.015,-0.724,0.272,0.653,7.51,9.89,10.68,1,3
16693.031,-0.741,0.277,0.67,5.62,9.95,12.21,1,3
16693.046,-0.747,0.276,0.674,4.09,8.85,13.79,1,3
16693.046,-0.746,0.277,0.676,3.17,7.39,15.35,1,3
16693.062,-0.744,0.274,0.672,2.59,5.49,15.93,1,3
16693.062,-0.741,0.269,0.663,2.38,3.97,15.66,1,3
16693.078,-0.733,0.267,0.656,3.08,2.78,14.98,1,3
16693.093,-0.73,0.266,0.65,4.55,2.08,13.86,1,3
16693.093,-0.732,0.265,0.647,6.71,1.98,12.7,1,3
16693.109,-0.732,0.267,0.646,9.19,1.77,11.84,1,3
16693.125,-0.727,0.269,0.639,11.14,1.46,11.2,1,3
16693.125,-0.722,0.269,0.633,12.33,1.59,10.47,1,3
16693.14,-0.724,0.269,0.631,12.88,2.23,9.67,1,3
16693.156,-0.734,0.273,0.631,12.36,2.87,8.51,1,3
16693.156,-0.742,0.268,0.632,11.05,2.41,6.87,1,3
16693.171,-0.748,0.261,0.637,10.93,1.65,5.98,1,3
16693.187,-0.753,0.264,0.632,12.02,1.28,5.86,1,3
16693.187,-0.752,0.263,0.626,12.73,-0.06,5.43,1,3
16693.203,-0.743,0.264,0.612,12.45,-1.62,4.39,1,3
16693.203,-0.737,0.263,0.596,11.57,-2.66,2.56,1,3
16693.218,-0.735,0.26,0.589,10.41,-2.99,0.37,1,3
16693.234,-0.737,0.262,0.58,10.01,-3.02,-1.28,1,3
16693.234,-0.73,0.258,0.574,10.86,-2.69,-2.01,1,3
16693.25,-0.723,0.266,0.563,11.38,-1.89,-2.29,1,3
16693.265,-0.717,0.273,0.56,11.11,-0.12,-2.38,1,3
16693.265,-0.715,0.278,0.554,9.37,1.43,-2.23,1,3
16693.281,-0.713,0.275,0.557,6.78,2.9,-2.04,1,3
16693.296,-0.718,0.277,0.56,4.43,4.55,-1.89,1,3
16693.296,-0.726,0.277,0.561,2.66,5.4,-1.74,1,3
16693.312,-0.726,0.277,0.559,0.61,5.34,-1.31,1,3
16693.312,-0.724,0.279,0.555,-1.53,5.37,-0.95,1,3
16693.328,-0.722,0.28,0.551,-3.6,5.71,-0.67,1,3
16693.343,-0.721,0.283,0.548,-6.38,6.23,0.0,1,3
16693.343,-0.715,0.286,0.549,-9.74,7.11,0.55,1,3
16693.359,-0.719,0.286,0.559,-12.94,9.0,1.1,1,3
16693.375,-0.731,0.285,0.574,-15.63,11.02,1.56,1,3
16693.375,-0.743,0.282,0.586,-17.27,11.99,2.66,1,3
16693.39,-0.744,0.282,0.591,-18.59,11.69,3.88,1,3
16693.406,-0.741,0.283,0.593,-20.26,10.71,3.85,1,3
16693.406,-0.735,0.28,0.595,-21.85,9.22,3.42,1,3
16693.421,-0.724,0.276,0.595,-22.71,8.03,2.53,1,3
16693.421,-0.717,0.272,0.594,-21.97,8.21,1.62,1,3
16693.437,-0.722,0.272,0.598,-17.7,10.65,-0.73,1,3
16693.453,-0.728,0.275,0.607,-15.69,11.57,-1.95,1,3
16693.453,-0.732,0.277,0.61,-13.37,11.93,-3.48,1,3
16693.468,-0.743,0.272,0.618,-10.56,11.78,-4.79,1,3
16693.484,-0.743,0.272,0.616,-7.48,10.77,-6.2,1,3
16693.484,-0.738,0.272,0.607,-4.15,9.74,-7.63,1,3
16693.5,-0.733,0.273,0.599,-0.79,9.22,-9.09,1,3
16693.515,-0.732,0.272,0.588,2.38,9.25,-10.35,1,3
16693.515,-0.733,0.281,0.582,4.82,9.92,-11.08,1,3
16693.531,-0.739,0.291,0.578,5.95,10.71,-10.93,1,3
16693.546,-0.743,0.294,0.575,5.55,11.17,-10.1,1,3
16693.546,-0.743,0.295,0.57,4.03,11.54,-8.97,1,3
16693.562,-0.741,0.289,0.569,2.23,11.99,-8.06,1,3
16693.562,-0.741,0.283,0.572,1.07,12.6,-7.45,1,3
16693.578,-0.74,0.278,0.572,0.95,13.21,-6.99,1,3
16693.593,-0.74,0.272,0.569,1.46,13.58,-6.71,1,3
16693.593,-0.742,0.271,0.568,1.95,13.82,-6.26,1,3
16693.609,-0.745,0.275,0.569,1.92,13.67,-6.23,1,3
16693.625,-0.748,0.275,0.568,1.16,13.31,-6.41,1,3
16693.625,-0.75,0.275,0.571,0.31,13.0,-6.26,1,3
16693.64,-0.749,0.269,0.571,-0.24,12.76,-6.01,1,3
16693.656,-0.747,0.266,0.573,-0.34,12.76,-5.89,1,3
16693.656,-0.746,0.263,0.575,-0.18,12.85,-5.89,1,3
16693.671,-0.745,0.259,0.576,0.31,12.91,-6.35,1,3
16693.687,-0.748,0.257,0.579,1.43,13.06,-7.51,1,3
16693.687,-0.758,0.258,0.583,3.17,12.63,-8.64,1,3
16693.703,-0.759,0.261,0.58,4.94,11.57,-9.22,1,3
16693.703,-0.757,0.266,0.577,6.38,10.44,-9.61,1,3
16693.718,-0.757,0.272,0.573,7.11,9.67,-9.77,1,3
16693.734,-0.758,0.276,0.572,6.96,9.37,-9.49,1,3
16693.734,-0.758,0.28,0.571,6.23,9.34,-8.73,1,3
16693.75,-0.762,0.278,0.573,5.34,9.49,-7.93,1,3
16693.765,-0.764,0.274,0.576,4.55,9.52,-7.17,1,3
16693.765,-0.765,0.272,0.578,4.06,9.25,-6.68,1,3
16693.781,-0.764,0.27,0.577,4.09,8.85,-6.44,1,3
16693.796,-0.769,0.268,0.577,4.52,8.24,-6.1,1,3
16693.796,-0.768,0.27,0.57,5.19,7.9,-5.74,1,3
16693.812,-0.763,0.27,0.568,5.46,8.0,-5.28,1,3
16693.812,-0.762,0.266,0.565,5.1,8.61,-4.85,1,3
16693.828,-0.766,0.264,0.565,4.49,9.28,-4.33,1,3
16693.843,-0.768,0.258,0.565,3.81,9.55,-3.88,1,3
16693.843,-0.772,0.254,0.566,3.51,9.64,-3.69,1,3
16693.859,-0.78,0.251,0.568,3.66,9.64,-3.69,1,3
16693.875,-0.787,0.246,0.568,4.36,9.16,-3.6,1,3
16693.875,-0.787,0.246,0.567,5.34,8.03,-3.45,1,3
16693.89,-0.789,0.248,0.56,6.1,6.96,-3.36,1,3
16693.906,-0.788,0.247,0.555,6.23,5.98,-3.27,1,3
16693.906,-0.791,0.246,0.549,5.98,5.46,-3.2,1,3
16693.921,-0.797,0.242,0.544,5.8,5.43,-3.2,1,3
16693.921,-0.8,0.238,0.537,5.58,5.55,-3.36,1,3
16693.937,-0.803,0.237,0.533,5.62,5.28,-3.42,1,3
16693.953,-0.802,0.237,0.533,5.46,4.91,-3.48,1,3
16693.953,-0.8,0.238,0.53,5.95,4.94,-3.39,1,3
16693.968,-0.801,0.236,0.522,5.74,5.22,-3.2,1,3
16693.984,-0.804,0.241,0.519,4.03,4.97,-3.36,1,3
16693.984,-0.809,0.233,0.524,2.59,4.64,-3.51,1,3
16694.0,-0.817,0.227,0.524,2.47,4.97,-2.23,1,3
16694.015,-0.819,0.24,0.517,2.11,5.13,-0.7,1,3
16694.015,-0.818,0.229,0.518,0.89,4.94,0.21,1,3
16694.031,-0.818,0.234,0.527,-1.83,4.7,1.13,1,3
16694.046,-0.815,0.225,0.516,-2.75,4.49,1.77,1,3
16694.046,-0.816,0.221,0.518,-3.85,4.52,1.92,1,3
16694.062,-0.813,0.218,0.521,-4.39,4.55,1.59,1,3
16694.078,-0.813,0.213,0.522,-3.81,5.07,1.13,1,3
16694.078,-0.811,0.212,0.523,-2.96,5.58,0.55,1,3
16694.093,-0.812,0.215,0.521,-1.95,6.23,-0.4,1,3
16694.093,-0.813,0.218,0.522,-1.31,6.9,-0.95,1,3
16694.109,-0.818,0.218,0.528,-0.76,7.14,-1.43,1,3
16694.125,-0.822,0.22,0.528,-0.27,6.74,-1.59,1,3
16694.125,-0.825,0.223,0.53,-0.12,6.04,-1.4,1,3
16694.156,-0.82,0.224,0.529,-0.64,4.03,-0.98,1,3
16694.156,-0.818,0.225,0.527,-1.1,2.93,-0.67,1,3
16694.171,-0.817,0.223,0.526,-1.4,1.77,-0.27,1,3
16694.187,-0.813,0.219,0.524,-1.56,0.79,0.15,1,3
16694.187,-0.813,0.214,0.521,-1.22,0.4,0.15,1,3
16694.203,-0.814,0.21,0.516,-0.52,0.21,0.0,1,3
16694.203,-0.814,0.208,0.514,0.64,0.15,-0.4,1,3
16694.218,-0.814,0.208,0.513,1.83,0.37,-0.92,1,3
16694.234,-0.814,0.209,0.508,2.9,0.64,-1.53,1,3
16694.234,-0.815,0.21,0.505,3.57,0.98,-2.32,1,3
16694.25,-0.818,0.215,0.507,3.85,1.28,-2.78,1,3
16694.265,-0.821,0.217,0.512,4.21,1.13,-2.9,1,3
16694.265,-0.82,0.217,0.511,4.43,0.46,-2.59,1,3
16694.281,-0.816,0.22,0.507,4.24,-0.34,-2.41,1,3
16694.296,-0.811,0.22,0.507,3.91,-1.13,-2.35,1,3
16694.296,-0.809,0.219,0.507,3.88,-1.8,-2.5,1,3
16694.312,-0.807,0.22,0.499,4.3,-2.38,-2.44,1,3
16694.328,-0.809,0.22,0.497,4.39,-2.29,-2.5,1,3
16694.343,-0.809,0.22,0.496,4.39,-1.98,-2.56,1,3
16694.343,-0.809,0.223,0.494,4.52,-1.59,-2.78,1,3
16694.359,-0.811,0.226,0.498,4.79,-1.19,-2.81,1,3
16694.375,-0.815,0.231,0.5,4.79,-1.16,-2.47,1,3
16694.375,-0.809,0.233,0.5,4.39,-1.86,-2.01,1,3
16694.39,-0.807,0.232,0.497,3.88,-2.53,-1.8,1,3
16694.406,-0.807,0.23,0.498,3.48,-2.66,-2.04,1,3
16694.406,-0.808,0.231,0.497,3.66,-2.69,-2.11,1,3
16694.421,-0.805,0.229,0.496,4.67,-2.17,-2.5,1,3
16694.437,-0.806,0.23,0.496,5.22,-2.14,-2.78,1,3
16694.437,-0.809,0.231,0.495,5.43,-2.17,-2.87,1,3
16694.453,-0.808,0.233,0.493,5.43,-2.47,-2.81,1,3
16694.453,-0.809,0.236,0.486,5.28,-2.72,-2.62,1,3
16694.468,-0.808,0.234,0.484,4.91,-2.69,-2.56,1,3
16694.484,-0.809,0.233,0.481,4.46,-1.13,-3.08,1,3
16694.5,-0.809,0.234,0.481,4.21,-0.21,-3.11,1,3
16694.515,-0.808,0.235,0.48,3.63,0.64,-3.02,1,3
16694.531,-0.808,0.236,0.483,2.84,1.19,-2.9,1,3
16694.531,-0.81,0.236,0.487,2.23,1.59,-2.87,1,3
16694.531,-0.81,0.237,0.49,1.59,1.68,-2.75,1,3
16694.546,-0.809,0.237,0.493,1.01,1.74,-2.62,1,3
16694.562,-0.811,0.236,0.496,0.49,1.77,-2.56,1,3
16694.562,-0.813,0.235,0.496,0.31,1.68,-2.69,1,3
16694.578,-0.81,0.236,0.501,0.34,1.74,-3.02,1,3
16694.593,-0.811,0.235,0.503,1.07,1.74,-3.05,1,3
16694.609,-0.815,0.235,0.506,2.08,1.74,-3.2,1,3
16694.609,-0.818,0.236,0.51,3.05,1.5,-3.36,1,3
16694.625,-0.819,0.235,0.51,3.97,1.13,-3.57,1,3
16694.625,-0.82,0.233,0.508,4.67,0.7,-3.81,1,3
16694.64,-0.821,0.234,0.51,5.52,0.24,-4.03,1,3
16694.656,-0.822,0.234,0.511,6.56,-0.03,-4.24,1,3
16694.656,-0.82,0.235,0.509,7.29,-0.31,-4.12,1,3
16694.671,-0.819,0.237,0.505,7.54,-0.43,-3.88,1,3
16694.671,-0.822,0.235,0.503,7.39,-0.67,-3.91,1,3
16694.687,-0.823,0.231,0.5,7.02,-0.85,-3.81,1,3
16694.703,-0.822,0.229,0.498,6.68,-0.67,-3.6,1,3
16694.703,-0.822,0.228,0.495,6.35,-0.27,-3.51,1,3
16694.718,-0.821,0.226,0.496,5.95,-0.03,-3.27,1,3
16694.734,-0.818,0.228,0.495,5.31,0.15,-3.02,1,3
16694.734,-0.815,0.229,0.494,4.43,0.49,-2.84,1,3
16694.75,-0.813,0.229,0.493,3.45,0.7,-2.69,1,3
16694.765,-0.813,0.231,0.494,2.59,1.01,-2.32,1,3
16694.765,-0.816,0.232,0.498,1.71,1.37,-1.74,1,3
16694.781,-0.817,0.231,0.5,0.79,1.25,-1.16,1,3
16694.796,-0.818,0.23,0.505,-0.03,1.1,-0.55,1,3
16694.796,-0.818,0.229,0.506,-0.58,0.67,-0.34,1,3
16694.812,-0.822,0.227,0.509,-0.79,0.03,-0.09,1,3
16694.828,-0.82,0.226,0.508,-0.85,-0.58,0.21,1,3
16694.828,-0.819,0.226,0.507,-1.1,-1.04,0.24,1,3
16694.843,-0.815,0.226,0.504,-1.04,-1.04,-0.12,1,3
16694.843,-0.813,0.226,0.502,-0.64,-0.95,-0.46,1,3
16694.859,-0.81,0.226,0.503,-0.09,-0.76,-0.52,1,3
16694.875,-0.809,0.229,0.505,0.55,-0.55,-0.55,1,3
16694.875,-0.81,0.23,0.505,0.82,-0.43,-0.4,1,3
16694.89,-0.814,0.23,0.501,0.92,-1.1,-0.18,1,3
16694.906,-0.813,0.228,0.499,0.92,-1.92,-0.03,1,3
16694.906,-0.81,0.227,0.493,0.98,-2.32,-0.06,1,3
16694.921,-0.809,0.225,0.488,0.92,-2.41,-0.12,1,3
16694.921,-0.81,0.225,0.483,0.79,-1.89,-0.34,1,3
16694.937,-0.81,0.224,0.483,0.7,-1.31,-0.34,1,3
16694.953,-0.81,0.227,0.481,0.12,-0.89,-0.27,1,3
16694.953,-0.809,0.227,0.486,-0.85,-0.37,-0.46,1,3
16694.968,-0.811,0.225,0.492,-1.77,0.09,-0.7,1,3
16694.984,-0.813,0.227,0.499,-2.29,0.09,-0.76,1,3
16694.984,-0.814,0.225,0.504,-2.26,-0.27,-1.16,1,3
16695.0,-0.816,0.225,0.507,-1.4,-0.85,-1.68,1,3
16695.015,-0.814,0.228,0.505,0.0,-1.53,-2.56,1,3
16695.015,-0.817,0.23,0.504,1.89,-2.01,-3.27,1,3
16695.031,-0.823,0.237,0.502,3.33,-2.11,-3.88,1,3
16695.046,-0.827,0.241,0.503,4.52,-2.08,-4.09,1,3
16695.046,-0.829,0.244,0.501,5.37,-1.92,-3.94,1,3
16695.062,-0.834,0.248,0.5,5.83,-1.71,-3.69,1,3
16695.062,-0.839,0.248,0.498,5.86,-1.89,-3.08,1,3
16695.078,-0.836,0.248,0.491,5.74,-2.44,-2.26,1,3
16695.093,-0.834,0.245,0.48,5.68,-2.9,-1.65,1,3
16695.093,-0.828,0.239,0.471,5.62,-2.81,-1.07,1,3
16695.109,-0.823,0.239,0.465,5.68,-2.35,-0.49,1,3
16695.125,-0.824,0.237,0.459,5.49,-1.62,0.31,1,3
16695.125,-0.821,0.235,0.453,4.55,-0.85,1.25,1,3
16695.14,-0.818,0.233,0.45,2.62,0.03,2.32,1,3
16695.156,-0.815,0.23,0.452,0.03,0.82,3.02,1,3
16695.156,-0.814,0.223,0.452,-2.56,1.5,3.48,1,3
16695.187,-0.81,0.212,0.456,-5.37,2.75,3.88,1,3
16695.187,-0.811,0.209,0.46,-5.55,3.48,3.48,1,3
16695.203,-0.811,0.208,0.463,-5.43,3.97,2.75,1,3
16695.218,-0.815,0.211,0.467,-5.37,4.36,1.83,1,3
16695.218,-0.815,0.213,0.47,-5.68,4.46,1.04,1,3
16695.234,-0.818,0.216,0.474,-5.92,4.46,0.37,1,3
16695.234,-0.819,0.217,0.477,-6.2,4.49,-0.37,1,3
16695.25,-0.821,0.217,0.48,-6.2,4.55,-1.25,1,3
16695.265,-0.822,0.22,0.485,-5.8,4.61,-2.11,1,3
16695.265,-0.825,0.222,0.488,-4.82,4.7,-3.02,1,3
16695.281,-0.829,0.224,0.492,-3.45,4.73,-3.78,1,3
16695.296,-0.831,0.229,0.494,-2.17,4.73,-4.61,1,3
16695.296,-0.834,0.235,0.495,-1.28,4.67,-5.19,1,3
16695.312,-0.834,0.239,0.497,-0.46,4.64,-5.52,1,3
16695.312,-0.834,0.245,0.499,0.0,4.7,-5.62,1,3
16695.328,-0.834,0.249,0.503,0.18,4.67,-5.4,1,3
16695.359,-0.841,0.249,0.509,0.37,4.3,-4.09,1,3
16695.359,-0.845,0.246,0.511,-0.06,3.6,-3.6,1,3
16695.375,-0.846,0.243,0.512,-0.4,2.59,-3.05,1,3
16695.375,-0.843,0.243,0.512,-0.73,1.86,-2.47,1,3
16695.39,-0.841,0.243,0.511,-1.1,1.25,-1.74,1,3
16695.406,-0.838,0.244,0.512,-2.5,0.43,-0.12,1,3
16695.406,-0.836,0.239,0.514,-3.17,-0.15,0.31,1,3
16695.421,-0.834,0.235,0.513,-3.11,-0.7,0.55,1,3
16695.437,-0.832,0.229,0.513,-2.53,-1.31,0.64,1,3
16695.437,-0.828,0.22,0.506,-1.46,-1.89,0.64,1,3
16695.453,-0.826,0.215,0.501,-0.24,-2.23,0.49,1,3
16695.453,-0.825,0.216,0.498,0.58,-2.47,0.24,1,3
16695.468,-0.822,0.216,0.492,0.98,-2.41,-0.09,1,3
16695.484,-0.82,0.215,0.488,1.19,-2.14,-0.18,1,3
16695.484,-0.818,0.212,0.486,1.13,-1.98,-0.15,1,3
16695.5,-0.817,0.211,0.483,0.73,-1.8,0.21,1,3
16695.515,-0.815,0.202,0.481,-0.61,-1.8,0.18,1,3
16695.531,-0.815,0.199,0.482,-1.13,-2.2,-0.12,1,3
16695.546,-0.817,0.199,0.483,-1.19,-2.38,-0.67,1,3
16695.546,-0.821,0.197,0.485,-0.89,-2.66,-1.43,1,3
16695.562,-0.826,0.198,0.485,-0.06,-3.08,-1.95,1,3
16695.562,-0.825,0.201,0.481,0.98,-3.81,-2.5,1,3
16695.578,-0.822,0.204,0.477,1.83,-4.43,-3.11,1,3
16695.593,-0.821,0.206,0.472,2.47,-4.82,-3.6,1,3
16695.593,-0.823,0.209,0.468,3.02,-4.61,-4.09,1,3
16695.609,-0.827,0.209,0.467,3.63,-4.18,-4.43,1,3
16695.625,-0.829,0.212,0.467,4.03,-3.66,-4.64,1,3
16695.625,-0.832,0.211,0.465,4.61,-3.11,-5.01,1,3
16695.64,-0.837,0.217,0.466,5.22,-2.72,-5.37,1,3
16695.656,-0.84,0.219,0.466,5.31,-2.62,-5.31,1,3
16695.656,-0.837,0.222,0.467,5.16,-2.53,-5.13,1,3
16695.671,-0.835,0.222,0.465,4.88,-2.41,-5.04,1,3
16695.687,-0.836,0.217,0.465,4.55,-2.01,-4.76,1,3
16695.703,-0.836,0.219,0.465,4.88,-1.68,-4.85,1,3
16695.703,-0.837,0.218,0.465,5.31,-1.34,-4.82,1,3
16695.718,-0.838,0.218,0.464,6.01,-1.01,-4.85,1,3
16695.734,-0.839,0.219,0.461,6.47,-0.76,-4.73,1,3
16695.734,-0.836,0.217,0.456,6.9,-0.55,-4.43,1,3
16695.75,-0.837,0.219,0.453,6.93,0.06,-4.15,1,3
16695.765,-0.839,0.221,0.454,6.26,0.61,-3.69,1,3
16695.765,-0.842,0.219,0.456,5.25,1.16,-3.23,1,3
16695.781,-0.843,0.221,0.457,4.06,1.68,-2.44,1,3
16695.796,-0.841,0.219,0.459,2.5,1.83,-1.56,1,3
16695.796,-0.838,0.219,0.465,0.73,2.2,-1.01,1,3
16695.812,-0.836,0.214,0.47,-0.58,2.69,-0.79,1,3
16695.812,-0.841,0.211,0.478,-1.31,3.11,-0.7,1,3
16695.828,-0.842,0.207,0.485,-1.59,3.39,-0.73,1,3
16695.843,-0.842,0.206,0.491,-1.5,3.27,-1.01,1,3
16695.843,-0.841,0.206,0.494,-1.01,3.11,-1.71,1,3
16695.859,-0.841,0.208,0.5,-0.34,3.05,-2.5,1,3
16695.875,-0.839,0.211,0.505,0.58,2.75,-2.9,1,3
16695.89,-0.84,0.213,0.506,1.77,2.59,-3.02,1,3
16695.89,-0.839,0.216,0.507,2.56,2.23,-2.75,1,3
16695.906,-0.839,0.217,0.506,2.59,1.86,-2.38,1,3
16695.906,-0.837,0.216,0.508,1.98,1.4,-2.04,1,3
16695.921,-0.838,0.21,0.51,1.25,1.1,-1.68,1,3
16695.937,-0.839,0.206,0.516,0.55,0.58,-1.53,1,3
16695.937,-0.837,0.2,0.517,0.43,-0.31,-1.53,1,3
16695.953,-0.835,0.196,0.516,0.7,-0.92,-1.8,1,3
16695.953,-0.839,0.194,0.516,1.56,-1.43,-2.53,1,3
16695.968,-0.838,0.193,0.514,2.53,-2.35,-2.9,1,3
16695.984,-0.834,0.196,0.514,3.36,-3.36,-3.33,1,3
16695.984,-0.833,0.195,0.511,4.0,-3.78,-3.88,1,3
16696.0,-0.838,0.195,0.51,4.55,-4.15,-4.27,1,3
16696.015,-0.837,0.194,0.508,5.22,-4.64,-4.49,1,3
16696.015,-0.834,0.195,0.502,5.71,-5.04,-4.7,1,3
16696.031,-0.834,0.195,0.501,6.01,-5.19,-5.04,1,3
16696.046,-0.83,0.196,0.5,6.2,-5.22,-5.07,1,3
16696.046,-0.827,0.201,0.499,6.16,-5.34,-5.01,1,3
16696.062,-0.825,0.201,0.499,5.8,-5.37,-4.67,1,3
16696.078,-0.827,0.2,0.501,5.43,-5.34,-4.39,1,3
16696.078,-0.833,0.196,0.505,5.65,-5.68,-4.18,1,3
16696.093,-0.836,0.193,0.506,6.26,-6.47,-3.97,1,3
16696.109,-0.833,0.19,0.503,6.96,-7.42,-4.18,1,3
16696.109,-0.831,0.187,0.499,7.93,-8.12,-4.55,1,3
16696.125,-0.828,0.189,0.493,9.19,-8.42,-4.94,1,3
16696.125,-0.825,0.191,0.487,10.28,-8.61,-5.22,1,3
16696.14,-0.827,0.193,0.483,11.05,-8.39,-5.37,1,3
16696.156,-0.825,0.193,0.481,11.2,-8.58,-5.46,1,3
16696.156,-0.823,0.193,0.477,11.05,-8.97,-5.49,1,3
16696.171,-0.822,0.192,0.472,10.93,-8.85,-5.58,1,3
16696.171,-0.82,0.192,0.465,10.83,-8.64,-5.68,1,3
16696.187,-0.818,0.19,0.459,11.05,-7.97,-5.74,1,3
16696.203,-0.817,0.193,0.456,11.11,-7.2,-5.8,1,3
16696.203,-0.816,0.195,0.453,10.8,-6.29,-5.62,1,3
16696.218,-0.818,0.196,0.45,10.1,-5.62,-5.55,1,3
16696.234,-0.819,0.196,0.448,9.25,-4.94,-5.58,1,3
16696.234,-0.817,0.194,0.449,8.33,-4.43,-5.58,1,3
16696.25,-0.82,0.194,0.45,7.51,-3.75,-5.74,1,3
16696.265,-0.817,0.194,0.45,6.96,-3.33,-5.8,1,3
16696.265,-0.816,0.193,0.45,6.44,-2.56,-6.26,1,3
16696.281,-0.817,0.198,0.452,6.23,-1.62,-7.02,1,3
16696.296,-0.82,0.199,0.454,6.41,-0.58,-7.51,1,3
16696.296,-0.82,0.204,0.455,6.62,0.0,-7.78,1,3
16696.312,-0.821,0.212,0.458,6.47,0.55,-7.66,1,3
16696.312,-0.822,0.218,0.46,5.8,0.85,-7.29,1,3
16696.328,-0.82,0.219,0.464,4.7,1.1,-6.96,1,3
16696.343,-0.817,0.218,0.466,3.42,1.43,-6.78,1,3
16696.343,-0.816,0.216,0.468,2.66,1.89,-6.78,1,3
16696.359,-0.818,0.214,0.472,2.47,2.29,-6.84,1,3
16696.375,-0.816,0.217,0.474,2.26,2.75,-6.87,1,3
16696.39,-0.816,0.223,0.472,1.89,3.14,-6.87,1,3
16696.39,-0.817,0.227,0.475,0.43,4.0,-6.74,1,3
16696.406,-0.821,0.23,0.482,-0.27,4.46,-6.29,1,3
16696.406,-0.82,0.228,0.487,-1.01,4.79,-5.86,1,3
16696.421,-0.824,0.234,0.497,-1.8,4.76,-5.43,1,3
16696.437,-0.824,0.233,0.503,-2.14,4.46,-5.13,1,3
16696.437,-0.826,0.232,0.503,-1.89,4.03,-4.94,1,3
16696.453,-0.829,0.234,0.503,-0.98,3.6,-4.49,1,3
16696.453,-0.832,0.235,0.498,0.31,2.99,-3.81,1,3
16696.468,-0.833,0.237,0.488,1.5,2.41,-3.14,1,3
16696.484,-0.833,0.238,0.48,2.26,2.01,-2.5,1,3
16696.484,-0.835,0.24,0.471,2.2,1.98,-1.65,1,3
16696.5,-0.835,0.241,0.464,1.25,2.53,-0.49,1,3
16696.515,-0.834,0.238,0.458,-0.12,3.45,0.82,1,3
16696.515,-0.836,0.236,0.455,-1.92,4.55,2.23,1,3
16696.531,-0.835,0.23,0.453,-3.81,5.4,3.33,1,3
16696.546,-0.838,0.224,0.454,-5.31,5.83,4.12,1,3
16696.546,-0.839,0.218,0.455,-6.13,5.98,4.79,1,3
16696.562,-0.838,0.213,0.457,-6.16,5.92,5.16,1,3
16696.578,-0.838,0.209,0.451,-5.74,5.8,5.01,1,3
16696.578,-0.84,0.206,0.446,-5.16,5.74,4.82,1,3
16696.593,-0.84,0.207,0.443,-4.46,6.04,4.64,1,3
16696.609,-0.837,0.209,0.436,-4.49,6.68,4.58,1,3
16696.609,-0.835,0.212,0.433,-5.1,7.72,4.76,1,3
16696.625,-0.836,0.213,0.44,-6.41,8.91,4.97,1,3
16696.625,-0.841,0.217,0.448,-8.3,9.92,5.22,1,3
16696.64,-0.846,0.216,0.46,-10.16,10.56,5.74,1,3
16696.656,-0.851,0.215,0.473,-11.54,10.56,6.35,1,3
16696.656,-0.857,0.212,0.482,-12.36,10.1,6.62,1,3
16696.671,-0.863,0.211,0.49,-12.63,8.88,6.44,1,3
16696.671,-0.866,0.208,0.498,-12.05,7.42,6.16,1,3
16696.687,-0.864,0.206,0.5,-10.9,5.62,5.71,1,3
16696.703,-0.86,0.205,0.496,-9.28,3.94,5.31,1,3
16696.703,-0.86,0.203,0.491,-7.48,2.66,4.82,1,3
16696.718,-0.86,0.202,0.483,-5.68,1.74,4.39,1,3
16696.734,-0.861,0.198,0.475,-4.49,1.01,4.09,1,3
16696.734,-0.864,0.196,0.47,-3.3,0.61,3.51,1,3
16696.75,-0.865,0.195,0.468,-2.26,0.67,3.05,1,3
16696.765,-0.865,0.197,0.466,-1.4,1.07,2.62,1,3
16696.765,-0.867,0.199,0.466,-0.7,1.31,2.59,1,3
16696.781,-0.866,0.202,0.465,-0.64,1.1,2.87,1,3
16696.796,-0.867,0.203,0.466,-1.04,0.79,3.3,1,3
16696.796,-0.868,0.201,0.461,-1.59,0.09,3.94,1,3
16696.812,-0.866,0.197,0.455,-2.59,-0.73,4.7,1,3
16696.812,-0.861,0.193,0.451,-3.42,-1.62,5.34,1,3
16696.828,-0.857,0.188,0.445,-4.18,-1.8,5.86,1,3
16696.843,-0.854,0.184,0.442,-4.85,-1.34,6.04,1,3
16696.843,-0.855,0.18,0.441,-5.43,-0.55,6.1,1,3
16696.859,-0.855,0.176,0.446,-5.74,0.15,6.04,1,3
16696.875,-0.854,0.175,0.446,-5.71,0.73,5.83,1,3
16696.89,-0.853,0.173,0.449,-5.65,1.01,5.43,1,3
16696.89,-0.854,0.172,0.454,-5.37,1.04,4.97,1,3
16696.906,-0.851,0.172,0.456,-5.04,0.85,4.55,1,3
16696.906,-0.852,0.171,0.458,-4.46,0.55,4.18,1,3
16696.921,-0.853,0.17,0.46,-3.94,0.06,3.69,1,3
16696.937,-0.851,0.17,0.459,-3.78,-0.46,2.99,1,3
16696.937,-0.85,0.17,0.459,-3.36,-1.25,2.5,1,3
16696.953,-0.848,0.168,0.458,-2.53,-2.08,1.83,1,3
16696.953,-0.845,0.168,0.453,-1.46,-2.75,1.22,1,3
16696.968,-0.846,0.167,0.448,-0.4,-2.9,0.46,1,3
16696.984,-0.847,0.167,0.444,0.79,-2.93,-0.46,1,3
16696.984,-0.849,0.166,0.441,1.92,-2.99,-1.53,1,3
16697.0,-0.851,0.167,0.439,3.05,-3.08,-2.44,1,3
16697.015,-0.85,0.164,0.435,4.58,-3.05,-3.48,1,3
16697.015,-0.851,0.169,0.435,6.32,-2.62,-4.73,1,3
16697.031,-0.853,0.172,0.435,7.75,-2.26,-5.74,1,3
16697.046,-0.856,0.179,0.435,8.73,-1.86,-6.53,1,3
16697.046,-0.859,0.187,0.436,9.16,-1.71,-7.26,1,3
16697.062,-0.862,0.191,0.437,9.37,-1.95,-7.54,1,3
16697.078,-0.862,0.196,0.437,9.7,-2.44,-7.39,1,3
16697.078,-0.86,0.198,0.434,9.95,-2.87,-6.84,1,3
16697.093,-0.855,0.199,0.432,9.67,-3.14,-6.56,1,3
16697.109,-0.852,0.197,0.428,9.22,-3.14,-6.38,1,3
16697.109,-0.848,0.196,0.427,8.55,-2.75,-6.26,1,3
16697.125,-0.849,0.194,0.427,8.0,-2.11,-6.29,1,3
16697.125,-0.851,0.193,0.429,7.63,-1.5,-6.29,1,3
16697.14,-0.85,0.193,0.433,7.6,-1.1,-6.32,1,3
16697.156,-0.849,0.193,0.436,7.84,-0.95,-6.62,1,3
16697.156,-0.846,0.193,0.437,8.55,-0.76,-6.93,1,3
16697.171,-0.848,0.194,0.442,9.64,-0.82,-7.35,1,3
16697.187,-0.852,0.197,0.439,10.71,-0.82,-7.69,1,3
16697.187,-0.858,0.199,0.432,11.81,-1.1,-7.9,1,3
16697.203,-0.861,0.203,0.422,12.02,-1.5,-7.81,1,3
16697.203,-0.87,0.205,0.395,11.38,-1.34,-7.93,1,3
16697.218,-0.873,0.206,0.364,10.35,-0.82,-8.12,1,3
16697.234,-0.871,0.212,0.345,8.88,1.13,-7.63,1,3
16697.25,-0.869,0.222,0.332,6.93,4.82,-6.04,1,3
16697.25,-0.865,0.232,0.33,2.72,9.49,-3.48,1,3
16697.265,-0.868,0.241,0.343,-4.18,13.76,-1.28,1,3
16697.265,-0.887,0.238,0.365,-12.73,15.66,0.82,1,3
16697.281,-0.893,0.22,0.396,-20.05,16.17,5.58,1,3
16697.296,-0.886,0.22,0.408,-25.21,16.85,12.12,1,3
16697.296,-0.873,0.206,0.423,-30.46,16.27,15.72,1,3
16697.312,-0.869,0.182,0.441,-35.34,14.62,15.96,1,3
16697.328,-0.864,0.177,0.455,-37.81,12.51,15.11,1,3
16697.328,-0.874,0.22,0.449,-39.95,11.2,15.44,1,3
16697.343,-0.907,0.307,0.422,-47.98,10.83,19.96,1,3
16697.343,-0.93,0.378,0.413,-67.63,9.43,30.21,1,3
16697.359,-0.947,0.421,0.389,-98.94,6.56,46.17,1,3
16697.375,-0.959,0.434,0.384,-173.25,-4.55,78.74,1,3
16697.39,-0.941,0.376,0.405,-195.41,-8.7,90.46,1,3
16697.39,-0.913,0.276,0.436,-200.93,-11.05,95.4,1,3
16697.406,-0.884,0.176,0.469,-191.66,-12.02,92.93,1,3
16697.406,-0.86,0.053,0.532,-172.49,-12.97,85.06,1,3
16697.421,-0.851,0.031,0.566,-147.31,-13.52,74.22,1,3
16697.437,-0.84,0.026,0.598,-120.21,-14.65,62.75,1,3
16697.437,-0.818,0.031,0.626,-93.84,-15.84,52.19,1,3
16697.453,-0.813,0.083,0.62,-72.94,-16.85,43.89,1,3
16697.453,-0.807,0.142,0.596,-63.78,-19.41,39.09,1,3
16697.468,-0.778,0.143,0.594,-63.88,-23.9,35.71,1,3
16697.484,-0.753,0.107,0.597,-63.42,-27.99,31.86,1,3
16697.5,-0.738,0.083,0.594,-57.53,-29.69,28.38,1,3
16697.5,-0.736,0.084,0.552,-48.83,-29.24,25.64,1,3
16697.515,-0.731,0.093,0.564,-41.78,-28.08,22.64,1,3
16697.515,-0.739,0.099,0.533,-35.74,-26.67,19.71,1,3
16697.531,-0.76,0.142,0.501,-35.74,-23.77,18.89,1,3
16697.546,-0.798,0.183,0.505,-43.37,-22.1,20.57,1,3
16697.546,-0.807,0.177,0.506,-54.41,-23.41,24.93,1,3
16697.562,-0.813,0.2,0.521,-67.48,-24.45,30.55,1,3
16697.578,-0.837,0.228,0.534,-80.42,-25.18,37.93,1,3
16697.578,-0.851,0.215,0.553,-94.15,-28.05,47.03,1,3
16697.593,-0.854,0.199,0.584,-110.14,-34.49,54.26,1,3
16697.609,-0.855,0.169,0.642,-123.11,-43.82,57.56,1,3
16697.609,-0.867,0.124,0.678,-127.41,-54.26,59.14,1,3
16697.625,-0.836,0.116,0.728,-135.44,-68.94,59.91,1,3
16697.625,-0.793,0.082,0.737,-141.79,-83.29,61.16,1,3
16697.64,-0.777,0.036,0.699,-142.64,-94.15,62.65,1,3
16697.656,-0.746,0.021,0.668,-142.09,-100.59,64.39,1,3
16697.656,-0.711,0.032,0.639,-140.78,-101.5,64.27,1,3
16697.671,-0.673,-0.005,0.63,-135.56,-96.68,62.07,1,3
16697.687,-0.674,-0.037,0.638,-122.44,-87.5,57.19,1,3
16697.687,-0.695,-0.036,0.635,-104.43,-77.79,53.53,1,3
16697.703,-0.739,0.006,0.618,-91.04,-69.64,51.52,1,3
16697.718,-0.77,0.041,0.627,-89.3,-65.68,52.34,1,3
16697.718,-0.835,0.045,0.654,-96.74,-67.66,53.1,1,3
16697.734,-0.781,0.024,0.693,-111.45,-75.5,55.79,1,3
16697.75,-0.684,0.006,0.748,-118.2,-80.6,55.82,1,3
16697.75,-0.626,-0.036,0.747,-116.37,-80.2,55.3,1,3
16697.765,-0.537,-0.079,0.744,-107.88,-75.01,53.77,1,3
16697.765,-0.491,-0.089,0.737,-92.35,-63.78,48.16,1,3
16697.781,-0.47,-0.067,0.726,-74.25,-50.48,40.99,1,3
16697.796,-0.447,-0.043,0.725,-60.21,-38.12,30.7,1,3
16697.796,-0.434,-0.018,0.757,-52.92,-27.59,17.73,1,3
16697.812,-0.47,0.019,0.79,-44.86,-18.34,5.74,1,3
16697.828,-0.543,0.036,0.812,-34.76,-11.69,-0.76,1,3
16697.828,-0.574,0.059,0.848,-26.92,-9.03,-2.5,1,3
16697.843,-0.584,0.074,0.858,-20.39,-8.88,-1.46,1,3
16697.843,-0.587,0.098,0.86,-14.34,-9.34,0.43,1,3
16697.859,-0.581,0.11,0.854,-8.61,-10.04,3.08,1,3
16697.875,-0.568,0.116,0.853,-5.52,-11.41,4.91,1,3
16697.89,-0.549,0.11,0.84,-2.38,-12.15,6.71,1,3
16697.89,-0.534,0.109,0.81,1.04,-11.05,9.09,1,3
16697.906,-0.536,0.11,0.782,3.6,-7.72,11.08,1,3
16697.906,-0.543,0.108,0.783,4.91,-3.36,12.48,1,3
16697.921,-0.544,0.099,0.781,8.06,1.77,14.68,1,3
16697.937,-0.545,0.095,0.795,11.11,7.45,17.12,1,3
16697.937,-0.556,0.103,0.826,14.37,12.42,20.11,1,3
16697.953,-0.57,0.084,0.869,24.45,16.63,24.38,1,3
16697.953,-0.577,0.064,0.873,35.19,19.04,30.4,1,3
16697.968,-0.582,0.069,0.86,37.66,19.32,35.92,1,3
16697.984,-0.604,0.055,0.83,34.12,17.18,39.43,1,3
16697.984,-0.652,0.044,0.808,26.0,12.94,39.77,1,3
16698.0,-0.696,0.047,0.879,15.41,3.39,37.78,1,3
16698.015,-0.653,-0.011,0.926,6.47,-11.11,34.18,1,3
16698.015,-0.565,-0.059,0.899,0.73,-22.71,27.74,1,3
16698.031,-0.511,-0.076,0.834,3.42,-24.99,19.75,1,3
16698.031,-0.478,-0.072,0.787,12.15,-19.99,11.78,1,3
16698.046,-0.485,-0.048,0.766,20.23,-12.33,3.33,1,3
16698.062,-0.507,-0.022,0.768,24.51,-5.46,-3.81,1,3
16698.078,-0.526,-0.004,0.772,25.06,-1.1,-9.43,1,3
16698.078,-0.537,-0.014,0.765,22.28,1.83,-12.7,1,3
16698.093,-0.549,-0.004,0.771,15.26,4.24,-13.64,1,3
16698.093,-0.578,0.016,0.808,7.75,6.13,-13.76,1,3
16698.109,-0.606,0.031,0.849,5.13,6.32,-12.33,1,3
16698.125,-0.624,0.049,0.849,5.34,4.39,-8.7,1,3
16698.14,-0.589,0.047,0.842,2.9,1.1,-4.61,1,3
16698.14,-0.56,0.027,0.821,-0.46,-1.34,-3.66,1,3
16698.14,-0.538,0.011,0.796,-2.41,-1.77,-4.18,1,3
16698.156,-0.552,0.034,0.766,-3.88,0.31,-5.37,1,3
16698.171,-0.575,0.063,0.741,-7.26,3.57,-5.16,1,3
16698.187,-0.6,0.076,0.731,-11.81,7.26,-2.17,1,3
16698.187,-0.611,0.082,0.742,-18.13,10.32,2.23,1,3
16698.203,-0.625,0.083,0.759,-24.45,11.99,6.81,1,3
16698.203,-0.631,0.07,0.784,-29.11,11.93,10.62,1,3
16698.218,-0.616,0.081,0.81,-32.44,10.56,13.03,1,3
16698.234,-0.647,0.099,0.79,-36.41,8.18,14.89,1,3
16698.25,-0.586,0.089,0.821,-43.49,3.57,16.45,1,3
16698.25,-0.628,0.096,0.792,-44.62,1.74,16.02,1,3
16698.265,-0.584,0.071,0.774,-47.55,-0.82,17.7,1,3
16698.265,-0.602,0.045,0.723,-49.96,1.01,18.1,1,3
16698.281,-0.547,0.027,0.706,-56.52,3.69,20.05,1,3
16698.281,-0.558,-0.007,0.699,-60.64,9.03,17.03,1,3
16698.296,-0.561,-0.01,0.803,-62.75,13.09,14.44,1,3
16698.312,-0.659,-0.035,0.906,-56.46,12.36,10.53,1,3
16698.312,-0.65,-0.05,0.936,-46.17,4.52,12.27,1,3
16698.328,-0.612,-0.055,0.931,-34.3,-2.99,11.2,1,3
16698.343,-0.57,-0.059,0.915,-22.55,-8.76,8.09,1,3
16698.343,-0.563,-0.027,0.898,-14.44,-13.43,2.23,1,3
16698.359,-0.543,-0.007,0.853,-6.26,-17.76,-8.45,1,3
16698.375,-0.549,0.014,0.822,-4.88,-16.57,-9.8,1,3
16698.39,-0.568,0.035,0.803,-3.63,-14.28,-7.32,1,3
16698.39,-0.589,0.057,0.829,-2.56,-12.91,-2.11,1,3
16698.39,-0.586,0.073,0.841,0.21,-12.85,3.57,1,3
16698.406,-0.616,0.037,0.841,3.3,-13.58,12.15,1,3
16698.421,-0.592,0.038,0.838,6.84,-12.88,11.78,1,3
16698.437,-0.58,0.039,0.812,9.55,-13.18,14.19,1,3
16698.437,-0.571,0.032,0.796,8.76,-13.82,15.56,1,3
16698.453,-0.555,0.018,0.789,7.35,-13.15,15.14,1,3
16698.453,-0.55,0.014,0.799,7.72,-11.26,14.28,1,3
16698.468,-0.551,0.012,0.786,8.18,-9.86,13.64,1,3
16698.484,-0.553,0.01,0.792,5.55,-9.49,12.88,1,3
16698.484,-0.548,0.006,0.797,5.28,-8.12,9.58,1,3
16698.5,-0.535,0.012,0.789,5.8,-7.42,7.75,1,3
16698.515,-0.527,0.012,0.785,6.41,-6.13,5.19,1,3
16698.515,-0.528,0.01,0.792,8.45,-3.66,2.59,1,3
16698.531,-0.539,0.021,0.8,9.95,-1.86,0.67,1,3
16698.546,-0.536,0.015,0.801,9.34,-0.92,-0.7,1,3
16698.546,-0.524,0.009,0.799,8.42,-0.12,-2.47,1,3
16698.562,-0.522,0.007,0.807,8.36,1.19,-4.91,1,3
16698.562,-0.537,0.017,0.824,9.61,2.5,-7.23,1,3
16698.578,-0.555,0.027,0.823,11.38,3.17,-7.69,1,3
16698.593,-0.562,0.033,0.803,11.08,3.11,-6.32,1,3
16698.593,-0.564,0.034,0.805,9.19,3.17,-4.0,1,3
16698.609,-0.563,0.026,0.814,7.51,3.02,-2.2,1,3
16698.625,-0.558,0.013,0.809,6.04,3.02,-1.25,1,3
16698.64,-0.554,0.005,0.807,5.28,3.57,-0.92,1,3
16698.64,-0.554,0.002,0.807,5.37,4.3,-1.07,1,3
16698.656,-0.546,0.001,0.806,4.3,5.01,-1.43,1,3
16698.656,-0.542,0.001,0.81,3.66,6.2,-2.23,1,3
16698.671,-0.55,0.008,0.815,3.75,7.39,-3.17,1,3
16698.671,-0.558,0.011,0.813,3.57,7.97,-4.0,1,3
16698.687,-0.57,0.018,0.821,3.08,8.06,-4.27,1,3
16698.703,-0.589,0.019,0.828,2.96,7.93,-3.57,1,3
16698.718,-0.595,0.024,0.824,2.81,7.23,-1.98,1,3
16698.718,-0.585,0.026,0.828,1.5,5.89,-0.79,1,3
16698.734,-0.571,0.018,0.827,0.7,4.3,-0.37,1,3
16698.734,-0.55,0.015,0.814,0.73,3.27,-0.64,1,3
16698.75,-0.54,0.017,0.799,0.98,3.27,-1.37,1,3
16698.765,-0.534,0.022,0.78,0.76,4.55,-2.93,1,3
16698.765,-0.529,0.027,0.757,0.21,7.35,-4.39,1,3
16698.781,-0.53,0.038,0.751,-1.25,11.41,-5.68,1,3
16698.796,-0.539,0.046,0.765,-4.0,15.84,-6.65,1,3
16698.796,-0.593,0.046,0.765,-5.86,20.11,-5.34,1,3
16698.812,-0.66,0.057,0.814,-8.88,21.36,0.21,1,3
16698.812,-0.716,0.037,0.897,-13.28,16.6,7.05,1,3
16698.828,-0.696,0.006,0.916,-17.79,5.62,13.21,1,3
16698.843,-0.615,-0.014,0.873,-20.29,-4.79,15.81,1,3
16698.843,-0.561,-0.024,0.822,-18.95,-9.13,14.37,1,3
16698.859,-0.544,-0.016,0.782,-15.81,-8.42,11.51,1,3
16698.875,-0.549,0.001,0.768,-14.31,-5.34,8.82,1,3
16698.89,-0.583,0.005,0.772,-13.89,-2.14,7.02,1,3
16698.89,-0.602,0.005,0.789,-14.92,-0.82,6.87,1,3
16698.906,-0.591,-0.001,0.808,-16.14,-0.82,7.08,1,3
16698.906,-0.589,-0.006,0.823,-16.51,-1.74,6.26,1,3
16698.921,-0.595,-0.009,0.829,-15.44,-2.99,4.91,1,3
16698.937,-0.585,-0.013,0.831,-14.01,-4.76,3.54,1,3
16698.937,-0.582,-0.004,0.824,-11.81,-5.95,1.74,1,3
16698.953,-0.584,0.001,0.806,-10.65,-6.84,0.27,1,3
16698.953,-0.565,0.014,0.796,-11.26,-7.02,-0.89,1,3
16698.968,-0.563,0.013,0.794,-10.53,-6.04,-2.41,1,3
16698.984,-0.574,0.012,0.792,-8.42,-4.43,-2.84,1,3
16698.984,-0.583,0.022,0.79,-7.57,-3.08,-2.11,1,3
16699.0,-0.586,0.018,0.792,-9.25,-2.78,-1.59,1,3
16699.015,-0.586,-0.005,0.797,-11.51,-3.14,-1.77,1,3
16699.015,-0.585,-0.025,0.796,-11.72,-3.2,-2.75,1,3
16699.031,-0.579,-0.028,0.782,-11.08,-2.66,-4.58,1,3
16699.046,-0.57,-0.029,0.772,-11.81,-1.68,-7.14,1,3
16699.046,-0.569,-0.026,0.764,-12.94,-0.24,-9.7,1,3
16699.062,-0.561,-0.025,0.747,-14.28,1.71,-11.51,1,3
16699.062,-0.553,-0.021,0.748,-16.51,4.33,-13.18,1,3
16699.078,-0.574,-0.016,0.781,-18.37,7.05,-14.83,1,3
16699.093,-0.612,-0.027,0.822,-18.52,8.33,-14.74,1,3
16699.093,-0.642,-0.03,0.857,-16.57,6.47,-12.79,1,3
16699.109,-0.644,-0.037,0.847,-12.21,3.11,-9.31,1,3
16699.125,-0.62,-0.032,0.823,-9.28,0.09,-5.74,1,3
16699.125,-0.588,-0.033,0.802,-7.54,-1.16,-3.54,1,3
16699.14,-0.577,-0.035,0.797,-5.98,-0.64,-3.27,1,3
16699.156,-0.585,-0.029,0.799,-4.43,0.52,-3.2,1,3
16699.156,-0.594,-0.023,0.806,-4.27,1.01,-2.44,1,3
16699.171,-0.601,-0.028,0.812,-4.27,0.7,-0.98,1,3
16699.187,-0.601,-0.036,0.807,-3.48,0.24,1.13,1,3
16699.187,-0.594,-0.037,0.801,-3.02,0.21,2.78,1,3
16699.203,-0.597,-0.044,0.807,-2.32,0.31,3.33,1,3
16699.203,-0.6,-0.05,0.808,-1.59,0.03,3.63,1,3
16699.218,-0.594,-0.047,0.803,-1.5,-0.49,3.11,1,3
16699.234,-0.594,-0.048,0.797,-0.64,-0.46,2.11,1,3
16699.234,-0.605,-0.042,0.792,0.43,0.18,1.53,1,3
16699.25,-0.605,-0.036,0.789,0.67,0.82,1.83,1,3
16699.265,-0.602,-0.036,0.786,0.4,1.34,3.02,1,3
16699.265,-0.6,-0.032,0.796,-0.49,1.89,4.33,1,3
16699.281,-0.594,-0.035,0.805,-1.89,1.86,4.91,1,3
16699.296,-0.595,-0.047,0.814,-1.89,1.37,4.79,1,3
16699.296,-0.609,-0.053,0.816,-0.58,0.46,4.33,1,3
16699.312,-0.608,-0.055,0.805,0.12,-1.1,3.91,1,3
16699.328,-0.6,-0.057,0.791,0.43,-1.89,3.3,1,3
16699.328,-0.596,-0.059,0.782,0.21,-1.68,2.75,1,3
16699.343,-0.59,-0.067,0.779,0.06,0.0,0.61,1,3
16699.343,-0.584,-0.069,0.781,1.43,0.98,-0.61,1,3
16699.359,-0.586,-0.064,0.783,1.83,1.8,-1.77,1,3
16699.375,-0.593,-0.059,0.788,1.95,1.59,-2.9,1,3
16699.375,-0.608,-0.049,0.802,3.23,0.82,-3.75,1,3
16699.39,-0.608,-0.035,0.799,4.43,0.0,-4.0,1,3
16699.406,-0.598,-0.026,0.796,3.57,-0.76,-3.69,1,3
16699.421,-0.591,-0.022,0.781,3.36,-1.28,-2.96,1,3
16699.421,-0.601,-0.021,0.786,3.51,-0.43,-1.5,1,3
16699.421,-0.614,-0.013,0.781,1.31,-0.49,0.49,1,3
16699.437,-0.615,-0.023,0.783,-0.98,-0.85,2.72,1,3
16699.453,-0.607,-0.028,0.786,-1.83,-0.92,4.61,1,3
16699.453,-0.592,-0.033,0.779,-1.83,-0.24,5.8,1,3
16699.468,-0.581,-0.043,0.786,-1.19,0.67,5.89,1,3
16699.484,-0.581,-0.044,0.795,-0.21,1.56,4.33,1,3
16699.5,-0.593,-0.052,0.805,1.95,1.74,2.62,1,3
16699.5,-0.598,-0.05,0.801,3.75,1.28,1.4,1,3
16699.515,-0.592,-0.043,0.792,4.12,0.64,0.24,1,3
16699.515,-0.593,-0.043,0.784,3.85,0.58,-0.98,1,3
16699.531,-0.59,-0.038,0.784,2.96,1.16,-1.59,1,3
16699.546,-0.591,-0.033,0.789,2.14,1.95,-1.89,1,3
16699.546,-0.597,-0.029,0.795,1.59,2.56,-1.77,1,3
16699.562,-0.599,-0.022,0.803,0.43,2.41,-1.31,1,3
16699.578,-0.601,-0.022,0.81,-0.73,1.46,-1.25,1,3
16699.578,-0.6,-0.027,0.809,-1.25,0.12,-1.4,1,3
16699.593,-0.608,-0.026,0.802,-1.16,-0.92,-1.37,1,3
16699.609,-0.611,-0.026,0.792,-1.71,-2.01,-0.76,1,3
16699.609,-0.599,-0.029,0.784,-2.75,-2.47,0.0,1,3
16699.625,-0.6,-0.033,0.785,-3.94,-2.2,0.55,1,3
16699.625,-0.592,-0.039,0.79,-4.97,-1.59,1.34,1,3
16699.64,-0.583,-0.044,0.797,-5.71,-1.04,1.56,1,3
16699.656,-0.577,-0.056,0.804,-5.46,-1.01,1.19,1,3
16699.656,-0.575,-0.062,0.817,-4.24,-1.22,0.27,1,3
16699.671,-0.575,-0.067,0.83,-2.59,-1.59,-1.19,1,3
16699.671,-0.581,-0.068,0.829,-0.67,-2.87,-2.72,1,3
16699.687,-0.582,-0.064,0.822,-0.37,-4.46,-4.18,1,3
16699.703,-0.584,-0.062,0.816,-0.09,-5.77,-5.92,1,3
16699.718,-0.585,-0.056,0.807,0.27,-6.32,-6.99,1,3
16699.718,-0.58,-0.055,0.8,-0.24,-6.2,-7.05,1,3
16699.734,-0.583,-0.051,0.797,-0.67,-5.37,-6.26,1,3
16699.734,-0.587,-0.055,0.801,-1.13,-4.36,-4.82,1,3
16699.75,-0.585,-0.056,0.814,-2.11,-3.75,-3.63,1,3
16699.765,-0.577,-0.067,0.827,-2.5,-3.69,-3.6,1,3
16699.765,-0.579,-0.073,0.837,-1.04,-3.72,-4.49,1,3
16699.781,-0.581,-0.072,0.837,0.95,-3.88,-5.62,1,3
16699.796,-0.581,-0.064,0.837,1.92,-4.39,-6.44,1,3
16699.796,-0.583,-0.061,0.837,1.53,-5.31,-6.78,1,3
16699.812,-0.586,-0.058,0.836,0.92,-6.1,-6.53,1,3
16699.812,-0.58,-0.057,0.83,-0.09,-7.11,-5.49,1,3
16699.828,-0.581,-0.061,0.824,-1.71,-7.87,-4.21,1,3
16699.843,-0.567,-0.073,0.822,-3.14,-8.15,-2.47,1,3
16699.843,-0.565,-0.083,0.82,-3.14,-8.21,-2.29,1,3
16699.859,-0.559,-0.09,0.817,-2.53,-7.54,-2.17,1,3
16699.875,-0.556,-0.087,0.819,-1.65,-7.14,-3.48,1,3
16699.875,-0.555,-0.095,0.824,-0.09,-6.65,-5.55,1,3
16699.89,-0.561,-0.088,0.829,1.4,-7.17,-8.33,1,3
16699.906,-0.568,-0.077,0.825,2.5,-8.45,-10.9,1,3
16699.906,-0.567,-0.067,0.817,3.63,-9.4,-12.09,1,3
16699.921,-0.571,-0.049,0.802,5.16,-9.13,-11.99,1,3
16699.937,-0.578,-0.03,0.781,5.62,-8.55,-10.59,1,3
16699.937,-0.572,-0.023,0.772,4.0,-8.15,-8.45,1,3
16699.953,-0.582,-0.013,0.769,1.22,-7.2,-5.77,1,3
16699.953,-0.553,-0.018,0.784,-2.81,-7.14,-1.92,1,3
16699.968,-0.568,-0.031,0.792,-4.3,-6.53,0.37,1,3
16699.984,-0.556,-0.046,0.8,-5.28,-6.16,3.48,1,3
16699.984,-0.552,-0.046,0.811,-5.68,-6.56,4.0,1,3
16700.0,-0.55,-0.062,0.808,-4.49,-6.81,3.72,1,3
16700.015,-0.544,-0.079,0.815,-2.96,-7.57,1.83,1,3
16700.015,-0.535,-0.087,0.812,0.49,-7.51,-0.89,1,3
16700.031,-0.541,-0.093,0.812,4.12,-7.29,-4.7,1,3
16700.031,-0.537,-0.097,0.814,8.0,-6.81,-8.88,1,3
16700.046,-0.556,-0.071,0.812,11.38,-6.13,-13.03,1,3
16700.062,-0.56,-0.046,0.821,12.48,-6.1,-14.83,1,3
16700.078,-0.571,-0.023,0.823,12.42,-6.1,-13.58,1,3
16700.078,-0.573,-0.018,0.815,9.8,-6.07,-9.55,1,3
16700.093,-0.576,-0.017,0.828,5.52,-5.95,-5.55,1,3
16700.093,-0.56,-0.033,0.838,2.47,-6.41,-2.72,1,3
16700.109,-0.563,-0.043,0.846,1.74,-7.05,-2.62,1,3
16700.125,-0.562,-0.05,0.829,2.66,-7.97,-2.87,1,3
16700.125,-0.551,-0.046,0.82,2.9,-8.79,-3.69,1,3
16700.14,-0.555,-0.041,0.804,2.9,-8.73,-4.09,1,3
16700.156,-0.556,-0.036,0.789,1.95,-8.45,-3.33,1,3
16700.156,-0.563,-0.033,0.776,0.89,-7.48,-2.38,1,3
16700.171,-0.556,-0.034,0.771,-0.18,-6.53,-1.43,1,3
16700.171,-0.569,-0.034,0.763,-0.58,-4.7,-0.06,1,3
16700.187,-0.563,-0.035,0.766,-2.23,-2.93,2.17,1,3
16700.203,-0.572,-0.03,0.766,-3.91,-1.43,3.78,1,3
16700.218,-0.579,-0.03,0.766,-5.95,-0.4,5.43,1,3
16700.218,-0.573,-0.026,0.773,-8.91,0.85,7.87,1,3
16700.234,-0.567,-0.034,0.781,-11.72,2.47,10.53,1,3
16700.234,-0.577,-0.041,0.799,-13.76,4.24,12.45,1,3
16700.25,-0.575,-0.055,0.827,-14.59,5.19,13.34,1,3
16700.265,-0.58,-0.071,0.841,-13.49,4.39,12.09,1,3
16700.265,-0.558,-0.079,0.847,-10.96,2.78,9.31,1,3
16700.281,-0.562,-0.073,0.842,-6.96,1.34,5.07,1,3
16700.296,-0.56,-0.069,0.833,-3.66,0.12,1.62,1,3
16700.296,-0.566,-0.056,0.824,-1.01,-0.55,-0.46,1,3
16700.312,-0.562,-0.051,0.825,0.49,-0.98,-1.46,1,3
16700.328,-0.58,-0.053,0.817,0.61,-0.95,-1.56,1,3
16700.328,-0.584,-0.058,0.811,-0.4,-0.7,-2.2,1,3
16700.343,-0.597,-0.068,0.814,-0.09,-0.43,-3.6,1,3
16700.343,-0.605,-0.082,0.821,1.71,-0.18,-4.79,1,3
16700.359,-0.614,-0.077,0.814,3.6,0.12,-5.98,1,3
16700.375,-0.604,-0.072,0.806,5.22,0.18,-7.17,1,3
16700.375,-0.593,-0.073,0.803,6.38,-0.21,-9.43,1,3
16700.39,-0.593,-0.072,0.793,8.36,0.0,-11.6,1,3
16700.406,-0.589,-0.064,0.776,10.41,0.64,-12.85,1,3
16700.406,-0.58,-0.054,0.764,11.23,1.95,-13.43,1,3
16700.421,-0.58,-0.035,0.769,10.59,4.15,-12.94,1,3
16700.437,-0.597,-0.018,0.777,9.25,5.83,-10.77,1,3
16700.437,-0.596,-0.012,0.787,6.99,6.47,-7.02,1,3
16700.453,-0.589,-0.017,0.797,5.31,6.65,-3.57,1,3
16700.468,-0.591,-0.028,0.806,5.31,6.68,-0.76,1,3
16700.468,-0.598,-0.036,0.801,5.31,5.4,1.04,1,3
16700.484,-0.596,-0.057,0.793,4.91,4.24,2.08,1,3
16700.484,-0.589,-0.072,0.785,5.16,4.12,2.69,1,3
16700.5,-0.581,-0.066,0.783,5.16,3.91,2.04,1,3
16700.515,-0.584,-0.062,0.785,5.86,4.12,1.01,1,3
16700.515,-0.588,-0.046,0.778,6.56,4.49,1.37,1,3
16700.531,-0.588,-0.032,0.788,5.55,5.22,3.05,1,3
16700.546,-0.58,-0.023,0.787,3.23,4.43,5.04,1,3
16700.546,-0.583,-0.028,0.784,0.82,4.0,7.97,1,3
16700.562,-0.574,-0.025,0.78,-2.14,3.48,11.23,1,3
16700.562,-0.56,-0.036,0.785,-4.33,3.69,13.73,1,3
16700.578,-0.562,-0.041,0.793,-4.97,4.27,14.92,1,3
16700.593,-0.569,-0.046,0.802,-5.49,4.58,15.38,1,3
16700.609,-0.567,-0.056,0.814,-5.58,5.16,15.99,1,3
16700.609,-0.562,-0.061,0.82,-5.58,5.46,15.87,1,3
16700.625,-0.574,-0.072,0.822,-7.26,5.1,14.95,1,3
16700.625,-0.562,-0.083,0.828,-8.64,5.43,14.86,1,3
16700.64,-0.557,-0.081,0.84,-9.89,5.04,13.03,1,3
16700.656,-0.534,-0.096,0.855,-9.64,5.16,10.56,1,3
16700.656,-0.526,-0.089,0.869,-7.29,4.52,6.84,1,3
16700.671,-0.517,-0.089,0.871,-3.42,4.12,2.78,1,3
16700.671,-0.525,-0.072,0.883,0.24,3.02,-1.71,1,3
16700.687,-0.547,-0.062,0.893,3.78,1.19,-5.1,1,3
16700.703,-0.56,-0.048,0.88,6.68,-1.8,-6.32,1,3
16700.703,-0.551,-0.038,0.861,8.0,-4.73,-5.92,1,3
16700.718,-0.547,-0.03,0.833,7.14,-6.84,-4.94,1,3
16700.734,-0.545,-0.031,0.813,4.61,-7.75,-3.23,1,3
16700.734,-0.553,-0.038,0.81,2.14,-7.2,-1.19,1,3
16700.75,-0.568,-0.047,0.805,0.49,-6.29,0.15,1,3
16700.765,-0.579,-0.059,0.806,-0.89,-5.65,0.82,1,3
16700.765,-0.589,-0.062,0.816,-1.77,-5.43,0.52,1,3
16700.781,-0.599,-0.063,0.824,-1.34,-5.71,-0.24,1,3
16700.796,-0.602,-0.061,0.825,-0.49,-6.23,-0.85,1,3
16700.796,-0.614,-0.049,0.825,0.21,-6.56,-1.13,1,3
16700.812,-0.617,-0.043,0.822,0.55,-7.08,-0.15,1,3
16700.812,-0.617,-0.035,0.82,0.27,-7.48,0.98,1,3
16700.828,-0.621,-0.033,0.823,-0.37,-8.06,1.92,1,3
16700.843,-0.622,-0.037,0.816,0.24,-8.88,2.87,1,3
16700.843,-0.617,-0.043,0.809,1.59,-9.06,3.51,1,3
16700.859,-0.622,-0.047,0.802,3.63,-8.64,3.33,1,3
16700.875,-0.642,-0.051,0.788,5.31,-7.69,2.9,1,3
16700.875,-0.652,-0.052,0.78,5.68,-7.29,2.84,1,3
16700.89,-0.653,-0.058,0.77,5.16,-7.14,2.47,1,3
16700.906,-0.651,-0.062,0.754,5.01,-6.38,2.32,1,3
16700.906,-0.639,-0.061,0.745,4.94,-5.28,2.72,1,3
16700.921,-0.621,-0.06,0.735,5.04,-4.0,2.38,1,3
16700.937,-0.611,-0.058,0.731,5.77,-2.41,1.16,1,3
16700.937,-0.598,-0.051,0.736,7.35,-1.01,-0.49,1,3
16700.953,-0.589,-0.037,0.746,9.31,0.37,-1.95,1,3
16700.968,-0.597,-0.025,0.757,11.29,1.5,-3.02,1,3
16700.968,-0.621,-0.018,0.757,12.24,1.95,-2.9,1,3
16700.984,-0.628,-0.014,0.751,10.53,1.89,-0.67,1,3
16700.984,-0.616,-0.009,0.749,7.17,2.14,1.95,1,3
16701.0,-0.608,-0.013,0.745,4.52,3.36,4.49,1,3
16701.015,-0.593,-0.017,0.746,2.56,5.31,6.78,1,3
16701.015,-0.583,-0.02,0.759,2.04,7.51,8.18,1,3
16701.031,-0.575,-0.025,0.771,2.69,9.37,8.51,1,3
16701.046,-0.566,-0.028,0.785,3.2,10.86,8.3,1,3
16701.046,-0.561,-0.031,0.805,3.94,11.81,8.12,1,3
16701.062,-0.558,-0.033,0.821,4.58,12.3,8.09,1,3
16701.062,-0.555,-0.034,0.836,5.1,12.39,7.66,1,3
16701.078,-0.553,-0.037,0.85,6.26,11.84,6.84,1,3
16701.093,-0.544,-0.037,0.863,7.63,11.14,5.58,1,3
16701.109,-0.538,-0.039,0.873,9.37,10.32,3.6,1,3
16701.125,-0.542,-0.038,0.881,11.81,9.55,1.25,1,3
16701.125,-0.544,-0.03,0.887,14.01,8.39,-1.1,1,3
16701.14,-0.547,-0.021,0.881,15.78,7.29,-2.84,1,3
16701.156,-0.549,-0.015,0.873,15.99,6.32,-3.3,1,3
16701.171,-0.55,-0.009,0.861,15.17,5.68,-2.78,1,3
16701.187,-0.549,-0.001,0.854,13.03,5.58,-1.62,1,3
16701.218,-0.549,0.001,0.848,10.1,5.65,0.4,1,3
16701.218,-0.544,0.001,0.844,7.42,5.86,2.66,1,3
16701.234,-0.543,0.009,0.842,5.07,6.29,4.91,1,3
16701.234,-0.54,0.016,0.842,2.66,6.74,7.2,1,3
16701.25,-0.539,0.022,0.848,-0.15,7.2,10.01,1,3
16701.25,-0.539,0.026,0.853,-3.54,7.26,13.0,1,3
16701.265,-0.54,0.017,0.868,-6.81,6.81,14.98,1,3
16701.281,-0.55,0.009,0.892,-8.03,5.8,15.72,1,3
16701.281,-0.558,0.007,0.903,-6.87,4.24,16.48,1,3
16701.281,-0.568,0.013,0.902,-5.43,1.86,16.54,1,3
16701.296,-0.572,0.011,0.895,-5.07,-1.16,16.39,1,3
16701.296,-0.573,0.008,0.885,-6.07,-4.21,15.47,1,3
16701.296,-0.565,-0.008,0.871,-6.78,-6.81,13.34,1,3
16701.296,-0.553,-0.026,0.859,-4.97,-7.72,10.41,1,3
16701.312,-0.542,-0.027,0.846,3.91,-6.5,2.62,1,3
16701.312,-0.549,-0.024,0.831,6.9,-6.44,-0.79,1,3
16701.328,-0.542,-0.016,0.828,8.12,-6.96,-3.42,1,3
16701.343,-0.558,0.004,0.818,7.72,-8.48,-4.64,1,3
16701.343,-0.541,0.001,0.814,6.35,-10.13,-4.33,1,3
16701.359,-0.537,-0.001,0.809,4.58,-11.02,-4.24,1,3
16701.375,-0.526,-0.01,0.816,4.03,-10.74,-3.48,1,3
16701.375,-0.533,-0.004,0.825,5.52,-10.16,-3.39,1,3
16701.39,-0.526,-0.014,0.828,7.54,-9.28,-2.11,1,3
16701.406,-0.52,-0.024,0.842,8.97,-9.31,-1.77,1,3
16701.406,-0.517,-0.049,0.851,11.32,-9.34,-2.56,1,3
16701.421,-0.518,-0.057,0.852,14.1,-10.96,-5.19,1,3
16701.437,-0.518,-0.057,0.838,17.85,-12.51,-8.58,1,3
16701.437,-0.517,-0.019,0.818,20.26,-14.44,-12.63,1,3
16701.453,-0.54,0.034,0.784,21.79,-14.62,-15.5,1,3
16701.468,-0.562,0.088,0.761,20.05,-14.56,-14.89,1,3
16701.468,-0.575,0.145,0.745,13.73,-13.09,-8.58,1,3
16701.484,-0.591,0.177,0.752,3.57,-11.32,1.65,1,3
16701.5,-0.615,0.172,0.748,-8.24,-9.03,14.62,1,3
16701.5,-0.621,0.156,0.756,-20.72,-8.61,25.36,1,3
16701.515,-0.59,0.113,0.78,-28.2,-8.24,32.41,1,3
16701.515,-0.589,0.071,0.789,-28.87,-6.99,34.52,1,3
16701.531,-0.58,0.047,0.79,-26.73,-6.16,33.81,1,3
16701.546,-0.579,0.038,0.808,-24.81,-5.65,30.92,1,3
16701.546,-0.597,0.033,0.807,-22.86,-5.74,27.22,1,3
16701.562,-0.594,0.031,0.808,-22.46,-6.78,23.77,1,3
16701.562,-0.587,0.027,0.809,-21.73,-7.54,19.65,1,3
16701.578,-0.573,0.028,0.809,-19.99,-7.69,15.38,1,3
16701.593,-0.568,0.036,0.808,-17.94,-7.54,10.74,1,3
16701.593,-0.566,0.031,0.81,-15.11,-7.35,5.49,1,3
16701.609,-0.56,0.023,0.813,-11.35,-7.17,0.43,1,3
16701.625,-0.566,0.024,0.808,-6.78,-6.81,-4.88,1,3
16701.625,-0.571,0.032,0.802,-2.56,-6.78,-10.53,1,3
16701.64,-0.578,0.031,0.796,1.01,-5.83,-15.35,1,3
16701.656,-0.595,0.051,0.795,3.81,-4.76,-18.8,1,3
16701.656,-0.604,0.072,0.797,5.37,-3.66,-20.66,1,3
16701.671,-0.621,0.087,0.804,5.22,-2.72,-21.12,1,3
16701.687,-0.626,0.079,0.816,4.73,-2.38,-20.36,1,3
16701.687,-0.621,0.049,0.825,5.65,-1.95,-19.9,1,3
16701.703,-0.615,0.007,0.829,8.76,-1.65,-21.67,1,3
16701.718,-0.602,-0.032,0.832,13.37,-1.71,-26.86,1,3
16701.718,-0.614,-0.046,0.812,18.8,-1.95,-34.85,1,3
16701.734,-0.625,-0.039,0.792,23.44,-2.32,-43.31,1,3
16701.734,-0.607,-0.019,0.781,27.31,-1.92,-50.14,1,3
16701.75,-0.625,0.048,0.764,29.51,-0.18,-52.71,1,3
16701.765,-0.632,0.083,0.736,27.83,0.98,-49.99,1,3
16701.765,-0.611,0.093,0.746,23.77,1.8,-44.22,1,3
16701.781,-0.604,0.09,0.755,18.98,1.95,-37.05,1,3
16701.796,-0.594,0.06,0.765,13.86,1.22,-29.63,1,3
16701.796,-0.573,0.018,0.781,10.8,0.43,-23.44,1,3
16701.812,-0.554,-0.026,0.787,10.77,0.03,-19.84,1,3
16701.812,-0.547,-0.046,0.796,11.96,0.37,-18.34,1,3
16701.828,-0.559,-0.039,0.808,12.91,1.01,-17.3,1,3
16701.843,-0.588,-0.027,0.813,11.66,0.95,-14.8,1,3
16701.859,-0.599,-0.026,0.82,8.03,-0.31,-10.74,1,3
16701.859,-0.591,-0.03,0.83,3.57,-1.16,-6.1,1,3
16701.875,-0.591,-0.03,0.841,-0.55,-1.46,-1.68,1,3
16701.875,-0.586,-0.032,0.849,-5.1,-1.56,3.33,1,3
16701.89,-0.578,-0.05,0.859,-10.38,-2.72,6.96,1,3
16701.906,-0.579,-0.068,0.853,-13.7,-3.85,8.73,1,3
16701.906,-0.547,-0.074,0.852,-15.84,-5.31,9.64,1,3
16701.921,-0.53,-0.083,0.846,-16.33,-5.83,8.76,1,3
16701.921,-0.543,-0.097,0.838,-15.9,-4.85,7.78,1,3
16701.937,-0.529,-0.095,0.849,-15.87,-5.22,6.35,1,3
16701.953,-0.543,-0.099,0.843,-14.92,-5.49,3.78,1,3
16701.953,-0.551,-0.088,0.842,-15.08,-6.38,1.43,1,3
16701.968,-0.553,-0.066,0.828,-14.53,-7.11,0.03,1,3
16701.984,-0.557,-0.057,0.811,-14.56,-7.2,0.58,1,3
16701.984,-0.547,-0.051,0.801,-16.39,-6.41,2.41,1,3
16702.0,-0.551,-0.053,0.803,-18.43,-4.67,3.54,1,3
16702.015,-0.558,-0.063,0.813,-19.96,-2.72,4.52,1,3
16702.015,-0.563,-0.071,0.832,-21.88,-1.89,4.52,1,3
16702.031,-0.567,-0.092,0.851,-22.98,-0.76,4.49,1,3
16702.046,-0.567,-0.096,0.874,-23.19,-1.04,3.91,1,3
16702.046,-0.58,-0.108,0.878,-22.28,-1.62,2.9,1,3
16702.062,-0.58,-0.118,0.877,-22.43,-2.9,1.68,1,3
16702.062,-0.572,-0.119,0.875,-22.89,-3.97,-0.24,1,3
16702.078,-0.57,-0.134,0.867,-22.61,-4.12,-2.32,1,3
16702.093,-0.559,-0.141,0.862,-22.55,-3.51,-4.21,1,3
16702.093,-0.558,-0.144,0.86,-22.34,-2.44,-5.89,1,3
16702.109,-0.559,-0.146,0.861,-22.86,-1.71,-7.29,1,3
16702.125,-0.555,-0.147,0.873,-23.93,-1.53,-8.97,1,3
16702.125,-0.56,-0.147,0.887,-24.26,-2.08,-11.2,1,3
16702.14,-0.562,-0.141,0.892,-23.77,-3.14,-12.82,1,3
16702.156,-0.55,-0.125,0.881,-22.28,-4.12,-13.52,1,3
16702.156,-0.558,-0.112,0.878,-22.46,-4.61,-14.37,1,3
16702.171,-0.564,-0.107,0.88,-24.26,-5.58,-13.28,1,3
16702.187,-0.56,-0.105,0.881,-26.15,-6.29,-10.13,1,3
16702.187,-0.562,-0.114,0.885,-27.65,-6.99,-6.71,1,3
16702.203,-0.564,-0.133,0.886,-29.66,-8.27,-3.57,1,3
16702.203,-0.556,-0.154,0.882,-32.23,-9.89,-1.56,1,3
16702.218,-0.548,-0.179,0.873,-33.85,-10.9,-0.49,1,3
16702.234,-0.531,-0.198,0.869,-34.55,-11.66,-0.76,1,3
16702.25,-0.527,-0.21,0.87,-33.75,-11.75,-2.32,1,3
16702.25,-0.533,-0.215,0.867,-31.68,-11.93,-3.94,1,3
16702.265,-0.544,-0.211,0.861,-30.88,-12.6,-4.58,1,3
16702.265,-0.555,-0.219,0.85,-32.23,-13.61,-4.55,1,3
16702.281,-0.56,-0.232,0.841,-34.46,-14.31,-3.6,1,3
16702.296,-0.56,-0.236,0.838,-41.41,-14.1,-0.27,1,3
16702.296,-0.551,-0.25,0.834,-44.62,-13.18,1.07,1,3
16702.312,-0.539,-0.264,0.836,-47.24,-12.09,1.04,1,3
16702.312,-0.537,-0.277,0.843,-49.65,-11.81,0.06,1,3
16702.328,-0.532,-0.312,0.845,-50.33,-11.51,-1.46,1,3
16702.343,-0.523,-0.326,0.843,-49.5,-10.8,-3.66,1,3
16702.343,-0.515,-0.334,0.846,-47.76,-9.46,-6.71,1,3
16702.359,-0.517,-0.336,0.852,-45.11,-8.09,-9.83,1,3
16702.375,-0.512,-0.328,0.859,-42.91,-7.26,-12.18,1,3
16702.375,-0.511,-0.319,0.87,-43.12,-7.11,-13.98,1,3
16702.39,-0.509,-0.323,0.873,-44.13,-7.66,-14.71,1,3
16702.406,-0.513,-0.316,0.864,-45.53,-8.27,-14.56,1,3
16702.406,-0.507,-0.32,0.858,-46.39,-8.7,-14.1,1,3
16702.421,-0.495,-0.313,0.857,-47.0,-8.76,-14.31,1,3
16702.437,-0.495,-0.312,0.859,-46.66,-7.93,-15.11,1,3
16702.437,-0.504,-0.313,0.857,-46.63,-7.17,-15.44,1,3
16702.453,-0.509,-0.323,0.859,-47.18,-7.42,-16.3,1,3
16702.453,-0.507,-0.336,0.856,-47.4,-8.12,-17.88,1,3
16702.468,-0.499,-0.337,0.851,-47.21,-8.82,-19.68,1,3
16702.484,-0.489,-0.336,0.847,-46.11,-8.97,-21.12,1,3
16702.484,-0.484,-0.333,0.845,-44.56,-8.82,-21.88,1,3
16702.5,-0.494,-0.329,0.851,-43.73,-8.58,-21.7,1,3
16702.515,-0.496,-0.341,0.848,-43.95,-9.61,-20.66,1,3
16702.515,-0.479,-0.357,0.841,-44.86,-10.99,-19.32,1,3
16702.531,-0.467,-0.368,0.833,-46.11,-11.54,-18.31,1,3
16702.546,-0.464,-0.385,0.827,-47.18,-11.44,-17.52,1,3
16702.546,-0.46,-0.4,0.831,-48.19,-11.32,-16.91,1,3
16702.562,-0.459,-0.409,0.841,-48.31,-10.68,-16.27,1,3
16702.578,-0.474,-0.417,0.855,-48.65,-10.59,-15.9,1,3
16702.578,-0.475,-0.443,0.859,-50.2,-12.24,-15.9,1,3
16702.593,-0.473,-0.464,0.852,-51.09,-13.86,-16.63,1,3
16702.593,-0.463,-0.481,0.832,-50.33,-14.22,-18.31,1,3
16702.609,-0.439,-0.486,0.822,-48.46,-13.18,-20.91,1,3
16702.625,-0.437,-0.489,0.822,-46.05,-10.77,-23.56,1,3
16702.625,-0.447,-0.486,0.833,-43.92,-8.06,-26.09,1,3
16702.64,-0.467,-0.482,0.852,-42.02,-6.62,-28.75,1,3
16702.656,-0.497,-0.484,0.865,-40.8,-7.2,-30.4,1,3
16702.656,-0.497,-0.489,0.866,-41.14,-9.43,-30.64,1,3
16702.671,-0.481,-0.5,0.86,-41.84,-11.9,-30.73,1,3
16702.687,-0.47,-0.517,0.846,-42.57,-13.46,-31.1,1,3
16702.687,-0.465,-0.517,0.84,-43.67,-14.16,-31.83,1,3
16702.703,-0.467,-0.519,0.839,-44.22,-14.83,-33.08,1,3
16702.703,-0.459,-0.527,0.84,-45.23,-16.02,-34.39,1,3
16702.718,-0.451,-0.53,0.843,-44.8,-16.79,-35.8,1,3
16702.734,-0.456,-0.531,0.834,-43.31,-17.09,-37.14,1,3
16702.75,-0.458,-0.539,0.826,-42.82,-17.79,-38.42,1,3
16702.75,-0.462,-0.552,0.816,-41.63,-18.28,-40.01,1,3
16702.765,-0.458,-0.56,0.803,-39.89,-18.43,-41.81,1,3
16702.765,-0.451,-0.572,0.791,-38.21,-17.94,-43.76,1,3
16702.781,-0.445,-0.582,0.785,-36.77,-16.94,-46.02,1,3
16702.796,-0.436,-0.592,0.783,-35.55,-16.17,-48.83,1,3
16702.796,-0.439,-0.589,0.783,-33.11,-15.23,-52.4,1,3
16702.812,-0.442,-0.574,0.779,-30.61,-14.19,-54.99,1,3
16702.828,-0.436,-0.557,0.79,-30.12,-13.67,-55.7,1,3
16702.828,-0.43,-0.547,0.799,-31.37,-14.07,-54.72,1,3
16702.843,-0.42,-0.549,0.79,-31.74,-14.68,-51.82,1,3
16702.843,-0.407,-0.55,0.775,-32.07,-14.62,-47.7,1,3
16702.859,-0.384,-0.557,0.764,-32.84,-13.95,-43.21,1,3
16702.875,-0.372,-0.568,0.764,-33.88,-12.6,-38.76,1,3
16702.875,-0.381,-0.59,0.769,-35.62,-11.93,-34.18,1,3
16702.89,-0.373,-0.618,0.773,-38.51,-12.42,-29.42,1,3
16702.906,-0.355,-0.641,0.766,-41.41,-13.49,-25.82,1,3
16702.906,-0.338,-0.673,0.768,-44.31,-14.34,-23.83,1,3
16702.921,-0.331,-0.699,0.767,-45.53,-15.41,-23.93,1,3
16702.937,-0.303,-0.723,0.762,-45.93,-17.12,-25.82,1,3
16702.937,-0.288,-0.736,0.748,-43.86,-16.97,-28.32,1,3
16702.953,-0.309,-0.749,0.733,-41.47,-17.43,-30.73,1,3
16702.953,-0.3,-0.744,0.725,-41.75,-18.07,-32.99,1,3
16702.968,-0.292,-0.743,0.724,-42.36,-17.24,-35.55,1,3
16702.984,-0.297,-0.744,0.716,-41.6,-15.44,-37.63,1,3
16702.984,-0.3,-0.734,0.711,-41.35,-14.19,-38.88,1,3
16703.0,-0.295,-0.728,0.713,-41.87,-13.37,-40.04,1,3
16703.015,-0.292,-0.715,0.715,-42.05,-12.67,-40.71,1,3
16703.031,-0.294,-0.698,0.711,-42.6,-12.42,-40.01,1,3
16703.031,-0.288,-0.695,0.709,-43.73,-12.94,-38.39,1,3
16703.046,-0.273,-0.703,0.703,-44.34,-13.37,-36.53,1,3
16703.046,-0.272,-0.708,0.698,-43.95,-13.28,-34.64,1,3
16703.062,-0.279,-0.715,0.686,-44.22,-13.52,-32.41,1,3
16703.078,-0.271,-0.726,0.675,-46.17,-14.59,-29.33,1,3
16703.078,-0.254,-0.734,0.659,-48.43,-15.14,-26.8,1,3
16703.093,-0.251,-0.744,0.645,-50.54,-14.59,-24.38,1,3
16703.109,-0.253,-0.752,0.645,-52.64,-14.07,-22.16,1,3
16703.109,-0.252,-0.764,0.648,-54.63,-13.7,-20.75,1,3
16703.125,-0.263,-0.772,0.646,-55.18,-13.67,-19.68,1,3
16703.125,-0.25,-0.788,0.635,-54.35,-13.82,-18.56,1,3
16703.14,-0.24,-0.79,0.619,-53.38,-13.7,-18.71,1,3
16703.156,-0.228,-0.799,0.609,-52.89,-13.21,-19.56,1,3
16703.156,-0.215,-0.801,0.608,-52.95,-12.21,-20.26,1,3
16703.171,-0.213,-0.801,0.618,-53.01,-11.35,-21.0,1,3
16703.187,-0.21,-0.815,0.625,-52.0,-11.41,-21.24,1,3
16703.187,-0.213,-0.821,0.62,-50.66,-12.09,-21.15,1,3
16703.203,-0.216,-0.83,0.613,-50.08,-13.58,-22.22,1,3
16703.203,-0.201,-0.829,0.585,-48.37,-14.77,-24.26,1,3
16703.218,-0.196,-0.823,0.557,-47.88,-15.05,-26.31,1,3
16703.234,-0.188,-0.824,0.549,-48.59,-14.1,-27.56,1,3
16703.234,-0.17,-0.823,0.542,-47.79,-12.12,-27.56,1,3
16703.25,-0.174,-0.824,0.533,-47.7,-10.13,-26.98,1,3
16703.265,-0.188,-0.833,0.539,-49.75,-9.43,-26.58,1,3
16703.265,-0.186,-0.849,0.545,-49.35,-10.41,-26.37,1,3
16703.281,-0.181,-0.856,0.523,-48.8,-10.53,-25.61,1,3
16703.296,-0.181,-0.859,0.51,-48.8,-11.05,-24.38,1,3
16703.296,-0.169,-0.875,0.497,-48.46,-10.71,-23.56,1,3
16703.312,-0.156,-0.928,0.477,-47.76,-9.61,-23.38,1,3
16703.328,-0.149,-0.95,0.471,-47.55,-8.39,-24.57,1,3
16703.328,-0.14,-0.964,0.462,-47.79,-7.66,-27.74,1,3
16703.343,-0.139,-0.956,0.458,-47.91,-6.93,-31.83,1,3
16703.343,-0.125,-0.953,0.454,-48.31,-7.02,-35.49,1,3
16703.359,-0.121,-0.965,0.473,-48.49,-7.14,-37.57,1,3
16703.375,-0.105,-0.96,0.462,-48.13,-8.0,-37.69,1,3
16703.375,-0.092,-0.964,0.469,-48.62,-8.21,-35.65,1,3
16703.39,-0.089,-0.966,0.468,-49.56,-8.48,-34.18,1,3
16703.406,-0.1,-0.963,0.468,-50.36,-9.25,-32.96,1,3
16703.406,-0.107,-0.96,0.461,-51.18,-10.5,-31.86,1,3
16703.421,-0.097,-0.96,0.439,-51.91,-11.72,-30.85,1,3
16703.437,-0.075,-0.966,0.426,-51.88,-11.9,-29.85,1,3
16703.437,-0.055,-0.966,0.407,-51.39,-10.59,-29.33,1,3
16703.453,-0.044,-0.963,0.397,-51.48,-8.21,-29.15,1,3
16703.453,-0.04,-0.957,0.399,-52.77,-6.01,-29.69,1,3
16703.468,-0.043,-0.956,0.414,-53.8,-4.97,-30.21,1,3
16703.484,-0.047,-0.946,0.427,-54.87,-5.68,-30.12,1,3
16703.484,-0.045,-0.945,0.44,-55.24,-7.78,-28.69,1,3
16703.5,-0.041,-0.941,0.436,-54.72,-10.38,-26.46,1,3
16703.515,-0.037,-0.937,0.414,-55.67,-12.97,-23.96,1,3
16703.531,-0.025,-0.942,0.391,-57.5,-15.29,-20.91,1,3
16703.531,-0.02,-0.961,0.374,-59.05,-16.66,-18.28,1,3
16703.546,-0.008,-0.978,0.348,-59.82,-17.06,-16.75,1,3
16703.546,0.01,-0.988,0.328,-60.55,-16.45,-15.99,1,3
16703.562,0.016,-0.993,0.324,-62.32,-15.08,-16.02,1,3
16703.578,0.022,-1.0,0.324,-64.06,-14.01,-16.79,1,3
16703.578,0.023,-1.004,0.325,-64.06,-13.7,-17.79,1,3
16703.593,0.021,-1.01,0.316,-62.26,-13.98,-18.8,1,3
16703.609,0.022,-1.01,0.305,-60.67,-14.13,-19.62,1,3
16703.609,0.014,-1.012,0.295,-60.3,-14.53,-19.9,1,3
16703.625,0.01,-1.019,0.282,-61.25,-15.17,-19.84,1,3
16703.625,-0.001,-1.035,0.277,-61.8,-15.66,-20.6,1,3
16703.64,-0.009,-1.043,0.272,-60.27,-16.24,-21.85,1,3
16703.656,-0.011,-1.05,0.252,-57.16,-17.37,-23.99,1,3
16703.656,-0.002,-1.041,0.221,-54.51,-18.43,-26.46,1,3
16703.671,0.013,-1.038,0.196,-53.44,-19.07,-28.11,1,3
16703.687,0.032,-1.047,0.172,-53.5,-18.86,-27.83,1,3
16703.687,0.046,-1.045,0.173,-55.42,-17.43,-26.4,1,3
16703.703,0.045,-1.066,0.176,-57.19,-16.36,-24.93,1,3
16703.718,0.033,-1.079,0.17,-59.08,-15.72,-22.68,1,3
16703.718,0.018,-1.097,0.174,-62.47,-15.99,-21.21,1,3
16703.734,0.017,-1.113,0.172,-64.88,-17.4,-21.18,1,3
16703.734,0.031,-1.114,0.163,-64.97,-18.77,-21.36,1,3
16703.75,0.058,-1.119,0.143,-64.91,-19.71,-21.09,1,3
16703.765,0.085,-1.115,0.125,-65.95,-19.62,-20.29,1,3
16703.765,0.081,-1.12,0.118,-68.15,-18.49,-19.99,1,3
16703.781,0.077,-1.137,0.114,-70.44,-17.37,-20.29,1,3
16703.796,0.08,-1.14,0.104,-71.5,-16.17,-21.18,1,3
16703.796,0.076,-1.152,0.088,-72.54,-15.2,-21.39,1,3
16703.812,0.091,-1.162,0.086,-75.2,-14.28,-21.36,1,3
16703.812,0.104,-1.171,0.076,-76.75,-13.03,-23.77,1,3
16703.828,0.109,-1.164,0.079,-77.09,-11.81,-29.27,1,3
16703.843,0.111,-1.154,0.091,-75.84,-11.2,-36.71,1,3
16703.843,0.11,-1.128,0.083,-72.18,-10.65,-44.77,1,3
16703.859,0.109,-1.087,0.073,-67.9,-9.92,-50.9,1,3
16703.875,0.1,-1.037,0.06,-65.1,-9.46,-54.35,1,3
16703.875,0.107,-0.996,0.043,-63.84,-9.64,-54.57,1,3
16703.89,0.106,-0.944,0.043,-64.3,-9.77,-51.39,1,3
16703.906,0.094,-0.887,0.039,-66.1,-10.47,-46.27,1,3
16703.906,0.106,-0.849,0.031,-69.55,-12.39,-39.03,1,3
16703.921,0.142,-0.834,0.031,-74.28,-14.34,-31.4,1,3
16703.937,0.168,-0.839,0.026,-77.7,-15.93,-26.61,1,3
16703.937,0.164,-0.856,0.018,-78.98,-17.33,-25.27,1,3
16703.953,0.172,-0.87,-0.001,-76.51,-19.38,-26.83,1,3
16703.953,0.17,-0.864,-0.035,-72.45,-21.39,-29.45,1,3
16703.968,0.177,-0.842,-0.074,-69.31,-22.28,-32.47,1,3
16703.984,0.188,-0.816,-0.101,-67.08,-21.82,-34.52,1,3
16703.984,0.191,-0.791,-0.125,-65.07,-21.18,-36.13,1,3
16704.0,0.188,-0.777,-0.138,-63.69,-20.78,-35.58,1,3
16704.015,0.186,-0.771,-0.143,-62.78,-21.06,-32.56,1,3
16704.015,0.171,-0.768,-0.157,-62.81,-22.13,-27.95,1,3
16704.031,0.182,-0.781,-0.172,-63.81,-24.29,-23.77,1,3
16704.046,0.196,-0.814,-0.196,-63.88,-26.76,-18.62,1,3
16704.046,0.205,-0.841,-0.215,-63.63,-28.38,-13.55,1,3
16704.062,0.218,-0.882,-0.263,-63.84,-29.02,-10.59,1,3
16704.062,0.23,-0.902,-0.269,-65.19,-28.29,-10.13,1,3
16704.078,0.233,-0.923,-0.266,-64.79,-27.31,-11.75,1,3
16704.093,0.23,-0.944,-0.257,-62.38,-26.55,-13.58,1,3
16704.093,0.238,-0.951,-0.258,-60.34,-27.07,-16.69,1,3
16704.109,0.243,-0.966,-0.26,-58.75,-28.93,-21.64,1,3
16704.125,0.246,-0.969,-0.247,-56.83,-30.95,-26.46,1,3
16704.14,0.235,-0.973,-0.258,-53.16,-33.66,-31.19,1,3
16704.14,0.241,-0.968,-0.261,-49.5,-37.51,-36.84,1,3
16704.156,0.217,-0.966,-0.267,-44.62,-41.69,-43.92,1,3
16704.156,0.17,-0.928,-0.322,-39.52,-46.6,-50.9,1,3
16704.171,0.152,-0.884,-0.38,-38.61,-51.42,-54.08,1,3
16704.187,0.138,-0.871,-0.45,-41.29,-53.77,-50.23,1,3
16704.187,0.165,-0.87,-0.516,-46.85,-52.13,-40.8,1,3
16704.203,0.191,-0.886,-0.524,-53.38,-46.85,-32.01,1,3
16704.218,0.21,-0.925,-0.514,-57.95,-39.89,-26.52,1,3
16704.218,0.189,-0.894,-0.481,-62.01,-33.2,-25.45,1,3
16704.234,0.158,-0.9,-0.425,-64.39,-29.94,-27.8,1,3
16704.234,0.152,-0.888,-0.382,-62.65,-29.48,-28.81,1,3
16704.25,0.122,-0.832,-0.398,-59.94,-30.4,-28.99,1,3
16704.265,0.133,-0.802,-0.438,-64.3,-33.48,-28.14,1,3
16704.265,0.182,-0.768,-0.476,-64.36,-30.79,-27.1,1,3
16704.281,0.19,-0.741,-0.54,-67.78,-26.34,-24.02,1,3
16704.296,0.202,-0.701,-0.537,-69.89,-21.73,-20.84,1,3
16704.296,0.197,-0.698,-0.531,-72.63,-17.09,-16.39,1,3
16704.312,0.208,-0.7,-0.49,-75.9,-13.25,-13.64,1,3
16704.312,0.181,-0.72,-0.46,-75.44,-11.23,-13.28,1,3
16704.328,0.183,-0.732,-0.464,-73.46,-11.93,-15.38,1,3
16704.343,0.217,-0.713,-0.49,-70.96,-13.92,-21.18,1,3
16704.343,0.242,-0.679,-0.522,-67.2,-15.17,-30.37,1,3
16704.359,0.256,-0.633,-0.555,-62.9,-15.11,-39.43,1,3
16704.375,0.253,-0.562,-0.58,-60.79,-14.47,-44.07,1,3
16704.375,0.227,-0.506,-0.598,-61.13,-13.03,-42.76,1,3
16704.39,0.222,-0.499,-0.61,-63.05,-11.96,-36.47,1,3
16704.406,0.236,-0.509,-0.609,-64.88,-9.86,-28.26,1,3
16704.406,0.252,-0.524,-0.607,-65.34,-7.75,-21.21,1,3
16704.421,0.252,-0.55,-0.599,-66.99,-6.26,-18.4,1,3
16704.437,0.256,-0.587,-0.563,-66.47,-6.62,-19.93,1,3
16704.437,0.283,-0.591,-0.541,-61.46,-9.28,-25.73,1,3
16704.453,0.293,-0.609,-0.549,-53.53,-12.15,-34.39,1,3
16704.468,0.289,-0.588,-0.552,-46.27,-14.59,-42.12,1,3
16704.468,0.282,-0.54,-0.583,-40.86,-17.03,-47.15,1,3
16704.484,0.286,-0.49,-0.607,-40.16,-19.23,-49.35,1,3
16704.5,0.29,-0.456,-0.608,-41.05,-20.29,-50.51,1,3
16704.5,0.258,-0.429,-0.634,-38.39,-21.61,-52.28,1,3
16704.515,0.253,-0.406,-0.653,-33.54,-23.83,-54.84,1,3
16704.515,0.277,-0.405,-0.668,-27.01,-26.28,-56.03,1,3
16704.531,0.276,-0.418,-0.672,-21.94,-28.02,-53.19,1,3
16704.531,0.284,-0.471,-0.677,-17.64,-29.97,-50.11,1,3
16704.546,0.312,-0.522,-0.68,-12.6,-31.16,-49.44,1,3
16704.562,0.323,-0.555,-0.692,-9.52,-32.14,-52.95,1,3
16704.578,0.323,-0.547,-0.715,-9.19,-32.59,-60.18,1,3
16704.578,0.307,-0.475,-0.731,-11.38,-32.99,-69.95,1,3
16704.593,0.307,-0.411,-0.738,-14.04,-32.96,-75.38,1,3
16704.593,0.296,-0.321,-0.751,-17.49,-31.77,-73.92,1,3
16704.609,0.313,-0.305,-0.76,-19.17,-30.88,-67.35,1,3
16704.625,0.335,-0.332,-0.743,-18.56,-29.6,-56.92,1,3
16704.625,0.34,-0.368,-0.706,-16.63,-28.38,-45.96,1,3
16704.64,0.342,-0.453,-0.66,-14.5,-29.51,-39.12,1,3
16704.656,0.338,-0.507,-0.665,-10.16,-33.45,-38.24,1,3
16704.656,0.334,-0.449,-0.737,-9.09,-38.36,-42.48,1,3
16704.671,0.36,-0.439,-0.774,-12.54,-41.51,-47.21,1,3
16704.687,0.345,-0.421,-0.811,-17.03,-40.89,-47.27,1,3
16704.687,0.333,-0.373,-0.855,-21.67,-37.48,-43.61,1,3
16704.703,0.356,-0.363,-0.844,-26.58,-32.96,-39.61,1,3
16704.703,0.358,-0.371,-0.79,-27.31,-29.42,-37.02,1,3
16704.718,0.329,-0.381,-0.729,-23.53,-29.05,-35.55,1,3
16704.734,0.291,-0.388,-0.699,-17.33,-32.72,-34.67,1,3
16704.75,0.283,-0.373,-0.729,-11.69,-38.61,-33.45,1,3
16704.75,0.306,-0.341,-0.789,-9.0,-43.06,-32.23,1,3
16704.765,0.328,-0.322,-0.855,-9.31,-44.47,-30.09,1,3
16704.765,0.342,-0.292,-0.899,-12.36,-42.63,-27.41,1,3
16704.781,0.361,-0.272,-0.874,-15.69,-38.42,-26.55,1,3
16704.796,0.345,-0.279,-0.828,-15.5,-33.23,-26.15,1,3
16704.796,0.325,-0.284,-0.786,-14.47,-31.1,-23.38,1,3
16704.812,0.31,-0.279,-0.76,-12.94,-32.14,-21.18,1,3
16704.828,0.303,-0.289,-0.758,-11.47,-36.23,-21.21,1,3
16704.828,0.311,-0.292,-0.784,-9.37,-41.02,-22.4,1,3
16704.843,0.301,-0.29,-0.829,-8.39,-44.59,-23.74,1,3
16704.843,0.29,-0.295,-0.857,-8.7,-45.87,-24.38,1,3
16704.859,0.267,-0.313,-0.878,-6.38,-45.05,-22.92,1,3
16704.875,0.256,-0.32,-0.877,-5.55,-44.56,-20.23,1,3
16704.875,0.236,-0.344,-0.87,-4.39,-43.73,-18.89,1,3
16704.89,0.219,-0.367,-0.874,-2.72,-43.09,-18.28,1,3
16704.906,0.214,-0.359,-0.884,-1.86,-43.31,-19.44,1,3
16704.906,0.22,-0.374,-0.884,-0.43,-43.67,-22.58,1,3
16704.921,0.193,-0.363,-0.877,2.99,-43.95,-26.37,1,3
16704.921,0.162,-0.363,-0.87,7.05,-46.36,-29.54,1,3
16704.937,0.14,-0.367,-0.878,9.34,-50.23,-31.59,1,3
16704.953,0.099,-0.373,-0.938,10.83,-53.35,-32.35,1,3
16704.968,0.069,-0.359,-1.019,10.44,-55.12,-30.0,1,3
16704.968,0.04,-0.338,-1.115,7.45,-54.93,-24.81,1,3
16704.984,0.035,-0.354,-1.205,1.8,-51.21,-17.37,1,3
16704.984,0.05,-0.376,-1.245,-3.75,-41.93,-10.44,1,3
16705.0,0.057,-0.389,-1.212,-6.56,-28.23,-7.6,1,3
16705.015,0.068,-0.388,-1.11,-6.29,-14.53,-8.51,1,3
16705.015,0.095,-0.374,-0.987,-2.93,-4.97,-11.35,1,3
16705.031,0.138,-0.349,-0.843,0.82,-1.19,-14.77,1,3
16705.046,0.15,-0.32,-0.728,4.18,-2.44,-16.48,1,3
16705.046,0.146,-0.303,-0.691,4.88,-9.37,-14.92,1,3
16705.062,0.181,-0.323,-0.725,2.62,-19.84,-12.79,1,3
16705.078,0.201,-0.372,-0.822,1.86,-28.5,-10.04,1,3
16705.078,0.215,-0.37,-0.946,1.25,-31.56,-7.75,1,3
16705.093,0.206,-0.353,-1.001,-0.4,-27.25,-10.04,1,3
16705.093,0.173,-0.352,-1.008,-2.01,-19.41,-13.28,1,3
16705.109,0.156,-0.31,-1.015,-2.08,-11.26,-14.1,1,3
16705.125,0.171,-0.306,-1.02,-3.02,-5.86,-12.73,1,3
16705.125,0.167,-0.311,-0.986,-4.82,-2.04,-10.19,1,3
16705.14,0.136,-0.319,-0.921,-4.39,0.76,-7.51,1,3
16705.156,0.127,-0.336,-0.894,-2.59,0.43,-3.17,1,3
16705.156,0.158,-0.358,-0.879,-3.3,-2.56,0.49,1,3
16705.171,0.175,-0.395,-0.874,-2.78,-5.52,0.06,1,3
16705.187,0.174,-0.405,-0.887,-0.85,-7.63,-2.9,1,3
16705.187,0.166,-0.392,-0.909,-0.34,-8.39,-6.59,1,3
16705.203,0.155,-0.393,-0.935,-0.43,-7.72,-9.09,1,3
16705.203,0.174,-0.388,-0.961,0.37,-6.35,-10.25,1,3
16705.218,0.184,-0.377,-0.96,1.71,-4.46,-12.36,1,3
16705.234,0.163,-0.372,-0.953,2.5,-2.23,-14.19,1,3
16705.234,0.149,-0.364,-0.938,1.53,-0.24,-14.71,1,3
16705.25,0.122,-0.34,-0.921,1.89,-0.55,-12.05,1,3
16705.265,0.119,-0.345,-0.937,1.74,-0.24,-7.9,1,3
16705.265,0.155,-0.347,-0.947,2.26,1.74,-5.13,1,3
16705.281,0.158,-0.363,-0.903,3.72,2.99,-2.11,1,3
16705.296,0.179,-0.359,-0.887,4.3,2.47,-0.18,1,3
16705.296,0.192,-0.379,-0.885,3.33,1.01,-0.27,1,3
16705.312,0.202,-0.403,-0.902,3.2,-0.09,-1.19,1,3
16705.328,0.213,-0.417,-0.932,3.48,-0.31,-2.99,1,3
16705.328,0.21,-0.413,-0.926,4.09,0.89,-6.23,1,3
16705.343,0.19,-0.401,-0.915,5.49,3.02,-9.19,1,3
16705.343,0.181,-0.381,-0.894,5.77,4.55,-10.1,1,3
16705.359,0.17,-0.363,-0.879,5.37,4.7,-9.13,1,3
16705.375,0.178,-0.362,-0.874,3.97,3.48,-5.98,1,3
16705.375,0.176,-0.364,-0.881,2.26,2.78,-2.93,1,3
16705.39,0.189,-0.382,-0.888,1.95,2.59,0.27,1,3
16705.406,0.21,-0.371,-0.904,3.14,2.62,3.39,1,3
16705.406,0.208,-0.371,-0.904,3.54,3.02,5.46,1,3
16705.421,0.214,-0.39,-0.896,2.99,3.11,6.53,1,3
16705.437,0.219,-0.406,-0.882,3.11,2.99,6.71,1,3
16705.437,0.206,-0.426,-0.876,4.0,2.99,6.1,1,3
16705.453,0.2,-0.444,-0.883,4.49,2.47,5.58,1,3
16705.453,0.213,-0.46,-0.887,4.0,1.89,4.15,1,3
16705.468,0.219,-0.474,-0.882,4.43,2.11,2.2,1,3
16705.484,0.222,-0.475,-0.874,4.49,2.81,0.12,1,3
16705.484,0.227,-0.47,-0.853,4.46,2.9,-3.45,1,3
16705.5,0.224,-0.453,-0.841,6.01,1.8,-6.78,1,3
16705.515,0.223,-0.439,-0.858,6.81,-0.79,-8.58,1,3
16705.515,0.217,-0.43,-0.876,6.01,-2.96,-9.25,1,3
16705.531,0.213,-0.418,-0.901,3.75,-3.57,-8.67,1,3
16705.546,0.208,-0.41,-0.896,0.46,-2.78,-6.38,1,3
16705.546,0.199,-0.421,-0.911,-0.85,-0.92,-3.11,1,3
16705.562,0.211,-0.416,-0.912,-2.35,1.31,0.58,1,3
16705.578,0.234,-0.427,-0.894,-2.5,3.27,2.26,1,3
16705.578,0.23,-0.425,-0.889,-1.31,4.39,2.78,1,3
16705.593,0.223,-0.423,-0.889,-0.12,4.55,3.6,1,3
16705.593,0.213,-0.433,-0.892,-0.73,5.01,4.18,1,3
16705.609,0.204,-0.451,-0.87,-2.14,5.49,4.24,1,3
16705.625,0.202,-0.466,-0.857,-1.22,5.8,4.18,1,3
16705.625,0.209,-0.468,-0.855,-0.15,4.85,4.58,1,3
16705.64,0.227,-0.473,-0.857,-0.27,2.96,3.05,1,3
16705.656,0.231,-0.464,-0.865,0.31,1.65,0.15,1,3
16705.656,0.224,-0.449,-0.877,1.13,1.56,-1.62,1,3
16705.671,0.215,-0.445,-0.883,1.1,1.98,-1.8,1,3
16705.687,0.214,-0.442,-0.882,0.85,2.59,-1.59,1,3
16705.687,0.224,-0.44,-0.874,0.31,3.08,-1.53,1,3
16705.703,0.223,-0.427,-0.858,-0.12,3.48,-1.04,1,3
16705.703,0.22,-0.428,-0.84,0.4,2.84,0.46,1,3
16705.718,0.232,-0.427,-0.857,0.12,1.34,2.47,1,3
16705.734,0.232,-0.443,-0.878,-1.68,-0.03,3.6,1,3
16705.734,0.235,-0.467,-0.894,-2.59,-0.12,3.66,1,3
16705.75,0.23,-0.475,-0.902,-2.47,0.76,2.38,1,3
16705.765,0.225,-0.478,-0.901,-2.08,1.8,0.18,1,3
16705.781,0.222,-0.456,-0.893,-1.68,2.66,-2.59,1,3
16705.781,0.222,-0.435,-0.873,-1.43,2.81,-5.16,1,3
16705.781,0.21,-0.411,-0.868,-1.07,2.14,-6.41,1,3
16705.796,0.201,-0.404,-0.868,-2.11,0.95,-5.34,1,3
16705.812,0.218,-0.408,-0.867,-2.93,-0.03,-3.75,1,3
16705.812,0.227,-0.41,-0.874,-1.71,-0.24,-2.69,1,3
16705.828,0.225,-0.413,-0.874,-0.67,-0.06,-1.95,1,3
16705.843,0.219,-0.419,-0.871,0.4,0.06,-1.86,1,3
16705.859,0.212,-0.426,-0.884,1.53,0.06,-1.95,1,3
16705.859,0.209,-0.423,-0.901,0.95,-0.12,-2.35,1,3
16705.875,0.213,-0.42,-0.916,-0.03,0.46,-3.08,1,3
16705.875,0.217,-0.414,-0.921,-0.03,2.44,-3.05,1,3
16705.89,0.222,-0.409,-0.909,-0.09,5.01,-1.92,1,3
16705.906,0.223,-0.402,-0.879,-1.1,6.59,-0.55,1,3
16705.906,0.221,-0.406,-0.85,-1.53,6.2,0.73,1,3
16705.921,0.223,-0.41,-0.843,-0.37,4.15,2.14,1,3
16705.921,0.23,-0.408,-0.844,0.55,1.71,2.47,1,3
16705.937,0.227,-0.413,-0.859,0.95,-0.37,1.77,1,3
16705.953,0.23,-0.412,-0.873,1.98,-1.31,2.08,1,3
16705.953,0.233,-0.408,-0.892,2.11,-1.31,2.01,1,3
16705.968,0.238,-0.418,-0.899,1.68,-0.34,1.28,1,3
16705.984,0.249,-0.427,-0.906,2.26,1.65,0.73,1,3
16705.984,0.244,-0.425,-0.888,1.92,3.75,0.15,1,3
16706.0,0.24,-0.438,-0.875,0.52,4.27,-1.04,1,3
16706.015,0.241,-0.444,-0.857,0.64,3.81,-2.41,1,3
16706.015,0.232,-0.443,-0.866,1.16,2.69,-3.57,1,3
16706.031,0.24,-0.44,-0.869,1.25,1.19,-4.64,1,3
16706.046,0.246,-0.432,-0.88,2.9,0.46,-4.82,1,3
16706.046,0.246,-0.414,-0.895,3.54,0.43,-4.3,1,3
16706.062,0.255,-0.41,-0.895,2.84,1.04,-3.97,1,3
