timestamp,ax,ay,az,gx,gy,gz,orient_label,motion_label
16667.515,0.149,-0.494,-0.852,-0.49,0.7,-0.49,1,3
16667.515,0.141,-0.51,-0.846,-1.37,0.98,0.21,1,3
16667.531,0.136,-0.52,-0.828,-1.19,0.24,0.06,1,3
16667.531,0.134,-0.528,-0.849,0.03,-0.89,-0.73,1,3
16667.546,0.139,-0.528,-0.851,0.31,-1.1,-1.46,1,3
16667.562,0.14,-0.527,-0.851,-0.24,-1.28,-3.11,1,3
16667.578,0.142,-0.523,-0.847,-0.76,-1.56,-4.43,1,3
16667.578,0.147,-0.524,-0.86,0.67,-1.28,-5.1,1,3
16667.593,0.14,-0.508,-0.845,1.74,-0.79,-5.86,1,3
16667.593,0.134,-0.504,-0.852,1.83,-1.04,-5.95,1,3
16667.609,0.126,-0.5,-0.853,1.13,-1.77,-5.22,1,3
16667.625,0.127,-0.501,-0.865,0.4,-2.26,-4.09,1,3
16667.625,0.128,-0.501,-0.876,-0.09,-2.14,-3.48,1,3
16667.64,0.13,-0.505,-0.886,-0.49,-1.5,-3.02,1,3
16667.656,0.131,-0.498,-0.89,-0.73,-0.37,-3.08,1,3
16667.656,0.13,-0.496,-0.881,-0.7,0.79,-3.36,1,3
16667.671,0.127,-0.486,-0.874,-0.37,1.71,-3.6,1,3
16667.687,0.117,-0.485,-0.858,0.12,2.59,-2.04,1,3
16667.703,0.122,-0.488,-0.852,-0.43,2.47,-1.16,1,3
16667.703,0.132,-0.489,-0.849,-0.37,1.92,-1.16,1,3
16667.718,0.134,-0.488,-0.856,1.13,0.98,-1.28,1,3
16667.734,0.133,-0.484,-0.869,2.59,-0.27,-0.64,1,3
16667.734,0.135,-0.481,-0.887,2.99,-1.28,1.07,1,3
16667.75,0.133,-0.486,-0.897,1.37,-1.13,3.08,1,3
16667.765,0.129,-0.507,-0.899,-1.01,0.24,5.52,1,3
16667.765,0.133,-0.528,-0.891,-2.84,2.72,7.51,1,3
16667.781,0.131,-0.54,-0.876,-4.18,5.01,8.12,1,3
16667.796,0.124,-0.557,-0.85,-4.85,6.16,6.81,1,3
16667.796,0.124,-0.573,-0.825,-4.18,5.77,4.55,1,3
16667.812,0.133,-0.585,-0.813,-2.62,4.3,1.92,1,3
16667.812,0.134,-0.592,-0.801,-0.7,2.75,-1.83,1,3
16667.828,0.124,-0.591,-0.802,1.37,0.98,-5.65,1,3
16667.843,0.123,-0.583,-0.808,2.5,-0.61,-9.16,1,3
16667.859,0.13,-0.555,-0.829,2.44,-2.41,-14.01,1,3
16667.875,0.124,-0.539,-0.841,1.95,-2.26,-14.56,1,3
16667.875,0.127,-0.526,-0.856,1.8,-1.68,-14.74,1,3
16667.89,0.128,-0.514,-0.871,1.22,-0.61,-14.25,1,3
16667.906,0.139,-0.494,-0.879,0.55,0.95,-13.25,1,3
16667.906,0.137,-0.485,-0.871,-0.06,2.35,-12.42,1,3
16667.921,0.136,-0.476,-0.86,-0.18,2.81,-11.38,1,3
16667.921,0.139,-0.466,-0.857,-0.21,2.81,-10.1,1,3
16667.937,0.146,-0.458,-0.854,-0.43,2.38,-9.03,1,3
16667.953,0.15,-0.456,-0.857,-0.52,2.17,-8.33,1,3
16667.953,0.158,-0.45,-0.859,-0.09,2.26,-7.57,1,3
16667.968,0.172,-0.446,-0.858,0.85,2.41,-7.05,1,3
16667.984,0.173,-0.443,-0.858,1.95,2.66,-6.68,1,3
16667.984,0.172,-0.436,-0.853,2.75,2.47,-6.35,1,3
16668.0,0.171,-0.432,-0.85,3.48,2.04,-6.1,1,3
16668.015,0.175,-0.43,-0.853,3.97,1.8,-5.49,1,3
16668.031,0.2,-0.423,-0.85,4.88,2.47,-4.94,1,3
16668.046,0.202,-0.424,-0.842,5.8,3.27,-5.74,1,3
16668.046,0.204,-0.42,-0.827,7.69,3.6,-6.68,1,3
16668.062,0.209,-0.409,-0.817,9.67,3.2,-7.69,1,3
16668.078,0.22,-0.401,-0.804,11.23,1.98,-8.67,1,3
16668.078,0.232,-0.397,-0.796,13.25,0.55,-10.07,1,3
16668.093,0.242,-0.399,-0.785,16.14,-1.13,-11.93,1,3
16668.093,0.241,-0.392,-0.775,19.99,-2.75,-13.73,1,3
16668.109,0.243,-0.401,-0.77,23.62,-4.88,-15.84,1,3
16668.125,0.237,-0.419,-0.765,26.95,-7.35,-18.62,1,3
16668.125,0.227,-0.447,-0.762,30.85,-9.95,-23.01,1,3
16668.14,0.222,-0.485,-0.763,35.92,-12.88,-29.15,1,3
16668.156,0.234,-0.522,-0.767,42.48,-16.11,-37.39,1,3
16668.156,0.257,-0.552,-0.76,50.63,-18.68,-48.28,1,3
16668.171,0.274,-0.574,-0.749,60.73,-20.78,-61.28,1,3
16668.171,0.273,-0.563,-0.731,72.12,-23.26,-75.41,1,3
16668.187,0.256,-0.535,-0.703,82.95,-26.89,-88.72,1,3
16668.203,0.249,-0.501,-0.686,92.29,-32.23,-99.61,1,3
16668.203,0.167,-0.467,-0.673,99.37,-37.57,-107.3,1,3
16668.218,0.083,-0.48,-0.723,103.61,-44.65,-109.84,1,3
16668.234,0.098,-0.474,-0.758,103.85,-52.1,-108.65,1,3
16668.234,0.131,-0.471,-0.799,104.31,-54.57,-108.01,1,3
16668.25,0.155,-0.475,-0.813,105.47,-52.19,-108.62,1,3
16668.265,0.168,-0.466,-0.806,108.46,-47.0,-111.3,1,3
16668.265,0.169,-0.459,-0.773,114.69,-41.69,-115.91,1,3
16668.281,0.166,-0.446,-0.722,120.33,-38.09,-121.31,1,3
16668.296,0.16,-0.449,-0.671,126.77,-37.75,-127.2,1,3
16668.296,0.159,-0.449,-0.624,136.51,-39.74,-132.57,1,3
16668.312,0.166,-0.413,-0.58,147.16,-42.63,-138.04,1,3
16668.328,0.157,-0.406,-0.553,157.75,-45.38,-142.67,1,3
16668.328,0.107,-0.389,-0.539,165.01,-48.68,-144.87,1,3
16668.343,0.107,-0.389,-0.528,169.84,-53.07,-144.05,1,3
16668.359,0.065,-0.392,-0.544,174.75,-55.51,-138.22,1,3
16668.375,0.058,-0.391,-0.531,172.43,-56.46,-133.3,1,3
16668.375,0.087,-0.393,-0.518,171.09,-55.54,-128.09,1,3
16668.39,0.124,-0.395,-0.497,170.93,-51.58,-122.47,1,3
16668.406,0.148,-0.394,-0.454,171.09,-45.84,-117.01,1,3
16668.406,0.156,-0.405,-0.414,172.49,-38.91,-111.88,1,3
16668.421,0.154,-0.418,-0.353,173.25,-31.37,-106.69,1,3
16668.421,0.089,-0.465,-0.319,174.63,-23.87,-101.96,1,3
16668.437,0.035,-0.517,-0.289,174.41,-19.32,-95.86,1,3
16668.453,0.009,-0.554,-0.231,173.53,-16.75,-90.64,1,3
16668.453,-0.025,-0.602,-0.194,174.11,-15.59,-89.14,1,3
16668.468,-0.031,-0.657,-0.161,177.25,-17.7,-90.85,1,3
16668.484,0.057,-0.646,-0.126,184.51,-16.91,-95.61,1,3
16668.484,0.056,-0.692,-0.121,193.95,-9.89,-104.28,1,3
16668.5,0.126,-0.707,-0.066,199.35,-1.19,-102.76,1,3
16668.515,0.162,-0.642,-0.028,207.95,17.15,-100.28,1,3
16668.515,0.157,-0.643,0.012,212.71,38.33,-94.76,1,3
16668.531,0.138,-0.648,0.087,211.92,57.01,-84.78,1,3
16668.546,0.114,-0.633,0.203,210.18,72.12,-70.53,1,3
16668.546,0.117,-0.627,0.251,206.27,77.76,-55.57,1,3
16668.562,0.11,-0.654,0.319,195.87,77.91,-39.8,1,3
16668.562,0.134,-0.68,0.406,181.98,76.3,-24.17,1,3
16668.578,0.16,-0.71,0.453,167.55,70.77,-14.62,1,3
16668.593,0.205,-0.787,0.463,154.67,64.06,-10.28,1,3
16668.593,0.271,-0.864,0.434,147.13,56.15,-10.77,1,3
16668.609,0.347,-0.922,0.406,147.1,50.26,-15.96,1,3
16668.625,0.412,-0.948,0.394,150.82,49.75,-25.54,1,3
16668.625,0.422,-0.978,0.382,156.59,53.13,-38.24,1,3
16668.64,0.452,-1.005,0.378,162.11,56.4,-51.55,1,3
16668.656,0.47,-1.003,0.382,167.73,55.15,-66.23,1,3
16668.656,0.434,-1.003,0.417,172.12,49.84,-80.02,1,3
16668.671,0.456,-0.975,0.416,173.04,36.04,-93.57,1,3
16668.687,0.561,-0.887,0.317,167.76,-2.5,-125.46,1,3
16668.703,0.649,-0.869,0.271,159.28,-13.73,-137.49,1,3
16668.703,0.739,-0.851,0.242,149.36,-14.68,-144.26,1,3
16668.718,0.807,-0.81,0.229,136.51,-4.43,-149.02,1,3
16668.734,0.833,-0.81,0.242,119.17,12.36,-154.27,1,3
16668.734,0.843,-0.822,0.272,99.92,29.51,-161.47,1,3
16668.75,0.842,-0.824,0.32,84.81,42.18,-173.16,1,3
16668.765,0.82,-0.833,0.354,79.2,48.22,-189.76,1,3
16668.765,0.793,-0.792,0.369,83.04,48.89,-210.58,1,3
16668.781,0.779,-0.692,0.387,97.9,42.6,-235.69,1,3
16668.796,0.782,-0.583,0.365,121.52,33.94,-259.9,1,3
16668.796,0.77,-0.45,0.326,140.69,30.82,-278.48,1,3
16668.812,0.76,-0.308,0.339,148.72,31.77,-291.39,1,3
16668.828,0.751,-0.194,0.363,149.33,35.8,-296.37,1,3
16668.828,0.764,-0.122,0.327,142.25,41.96,-291.94,1,3
16668.843,0.762,-0.023,0.328,124.15,50.29,-281.9,1,3
16668.859,0.751,0.091,0.389,82.03,55.64,-266.95,1,3
16668.859,0.756,0.174,0.406,67.69,52.61,-263.01,1,3
16668.875,0.786,0.279,0.46,59.69,52.71,-261.64,1,3
16668.89,0.81,0.475,0.609,59.14,53.83,-259.5,1,3
16668.89,0.784,0.519,0.664,59.33,55.73,-254.13,1,3
16668.906,0.776,0.533,0.705,63.81,59.48,-243.69,1,3
16668.906,0.716,0.561,0.728,69.19,62.35,-232.67,1,3
16668.921,0.655,0.604,0.728,68.79,60.3,-220.95,1,3
16668.921,0.62,0.671,0.72,61.53,49.13,-211.62,1,3
16668.937,0.619,0.688,0.64,53.35,32.41,-205.11,1,3
16668.953,0.632,0.704,0.541,42.79,19.56,-198.61,1,3
16668.953,0.682,0.692,0.449,33.17,12.88,-193.7,1,3
16668.968,0.742,0.689,0.381,25.97,17.4,-189.06,1,3
16668.984,0.773,0.705,0.361,21.64,32.44,-185.77,1,3
16669.0,0.792,0.688,0.377,19.71,52.22,-181.19,1,3
16669.0,0.786,0.674,0.411,16.54,75.87,-170.75,1,3
16669.015,0.738,0.686,0.458,12.45,99.22,-158.7,1,3
16669.015,0.679,0.694,0.534,7.97,116.92,-148.81,1,3
16669.031,0.613,0.732,0.592,0.7,127.9,-143.1,1,3
16669.046,0.525,0.745,0.634,-8.48,132.39,-140.93,1,3
16669.046,0.479,0.752,0.685,-17.64,130.31,-139.38,1,3
16669.062,0.456,0.756,0.709,-22.61,124.79,-138.62,1,3
16669.062,0.449,0.726,0.706,-21.64,119.21,-138.98,1,3
16669.078,0.474,0.716,0.698,-16.48,117.37,-137.52,1,3
16669.093,0.501,0.731,0.661,-11.99,121.83,-134.01,1,3
16669.093,0.487,0.731,0.654,-13.55,130.71,-128.91,1,3
16669.109,0.449,0.732,0.723,-20.02,139.84,-121.37,1,3
16669.125,0.374,0.725,0.746,-24.23,147.8,-111.91,1,3
16669.125,0.338,0.759,0.758,-34.0,153.29,-99.4,1,3
16669.14,0.331,0.797,0.794,-50.78,157.57,-89.27,1,3
16669.156,0.274,0.754,0.833,-68.06,160.83,-84.14,1,3
16669.156,0.24,0.687,0.898,-81.33,162.11,-78.43,1,3
16669.171,0.204,0.642,0.962,-86.03,162.42,-73.64,1,3
16669.187,0.159,0.528,1.042,-70.41,158.24,-74.22,1,3
16669.203,0.121,0.495,1.093,-51.88,155.74,-79.87,1,3
16669.203,0.077,0.469,1.11,-27.38,152.71,-87.37,1,3
16669.218,0.046,0.544,1.101,-5.52,151.83,-91.95,1,3
16669.234,0.006,0.635,1.07,3.33,150.55,-94.55,1,3
16669.234,-0.007,0.69,1.04,-4.03,147.1,-96.53,1,3
16669.25,-0.021,0.682,1.003,-22.43,144.54,-98.18,1,3
16669.265,-0.057,0.642,1.042,-42.76,144.17,-99.8,1,3
16669.265,-0.164,0.594,1.166,-52.46,142.83,-99.06,1,3
16669.281,-0.249,0.504,1.176,-46.88,135.62,-94.91,1,3
16669.296,-0.291,0.5,1.172,-35.52,126.35,-88.44,1,3
16669.296,-0.305,0.475,1.185,-20.05,116.0,-84.29,1,3
16669.312,-0.315,0.478,1.197,-4.43,105.17,-85.21,1,3
16669.312,-0.375,0.511,1.196,9.46,93.14,-89.75,1,3
16669.328,-0.417,0.603,1.212,16.3,77.46,-93.75,1,3
16669.343,-0.412,0.699,1.194,13.7,60.24,-94.61,1,3
16669.343,-0.401,0.733,1.167,3.42,44.77,-93.48,1,3
16669.359,-0.373,0.723,1.137,-7.32,34.12,-88.41,1,3
16669.375,-0.36,0.704,1.099,-14.4,29.18,-81.45,1,3
16669.375,-0.349,0.684,1.055,-19.93,27.13,-74.22,1,3
16669.39,-0.328,0.632,1.014,-20.72,28.81,-67.29,1,3
16669.406,-0.34,0.607,0.981,-19.75,31.16,-63.51,1,3
16669.406,-0.338,0.551,0.978,-17.85,34.73,-59.02,1,3
16669.421,-0.331,0.514,0.954,-11.51,39.43,-56.55,1,3
16669.421,-0.343,0.498,0.937,-2.72,42.94,-57.77,1,3
16669.437,-0.364,0.477,0.917,3.69,44.37,-59.97,1,3
16669.453,-0.367,0.475,0.912,6.16,44.71,-61.8,1,3
16669.468,-0.382,0.455,0.91,8.15,45.41,-64.0,1,3
16669.468,-0.405,0.434,0.902,10.04,44.92,-66.23,1,3
16669.484,-0.409,0.415,0.896,12.6,43.92,-67.14,1,3
16669.484,-0.398,0.398,0.888,16.69,44.34,-67.87,1,3
16669.5,-0.397,0.384,0.883,20.94,45.75,-69.8,1,3
16669.515,-0.412,0.372,0.889,25.33,46.85,-72.12,1,3
16669.515,-0.428,0.365,0.899,30.43,46.51,-74.25,1,3
16669.531,-0.444,0.365,0.898,35.25,44.86,-76.69,1,3
16669.546,-0.45,0.372,0.889,37.87,41.47,-79.84,1,3
16669.546,-0.463,0.377,0.884,38.27,37.08,-84.35,1,3
16669.562,-0.47,0.37,0.878,38.64,31.89,-88.96,1,3
16669.578,-0.479,0.357,0.875,41.02,27.13,-92.32,1,3
16669.578,-0.477,0.372,0.862,47.12,24.08,-95.89,1,3
16669.593,-0.487,0.368,0.838,54.48,21.97,-100.01,1,3
16669.593,-0.496,0.378,0.83,60.79,20.57,-103.67,1,3
16669.609,-0.517,0.382,0.819,67.2,19.47,-107.03,1,3
16669.625,-0.526,0.386,0.809,73.37,18.13,-109.1,1,3
16669.625,-0.539,0.403,0.799,78.95,17.4,-110.72,1,3
16669.64,-0.557,0.421,0.794,83.5,16.45,-111.79,1,3
16669.656,-0.57,0.433,0.786,86.03,14.47,-111.58,1,3
16669.656,-0.575,0.452,0.772,86.76,11.9,-110.78,1,3
16669.671,-0.588,0.476,0.749,85.82,9.52,-109.32,1,3
16669.687,-0.609,0.532,0.716,76.02,6.44,-100.77,1,3
16669.703,-0.626,0.542,0.701,69.28,5.58,-93.57,1,3
16669.703,-0.646,0.55,0.684,61.86,4.7,-84.81,1,3
16669.718,-0.655,0.549,0.673,54.96,3.72,-75.56,1,3
16669.734,-0.654,0.548,0.659,47.82,3.57,-65.34,1,3
16669.734,-0.666,0.555,0.654,40.01,4.15,-56.06,1,3
16669.75,-0.673,0.553,0.652,30.82,3.78,-47.76,1,3
16669.765,-0.664,0.544,0.642,20.72,3.11,-39.49,1,3
16669.765,-0.657,0.534,0.638,11.44,3.42,-32.2,1,3
16669.781,-0.656,0.518,0.638,3.81,4.67,-26.31,1,3
16669.781,-0.656,0.498,0.641,-1.43,6.47,-21.27,1,3
16669.796,-0.654,0.481,0.643,-4.33,8.67,-16.82,1,3
16669.812,-0.647,0.468,0.638,-5.37,11.2,-13.61,1,3
16669.812,-0.644,0.456,0.64,-5.28,13.98,-11.84,1,3
16669.828,-0.658,0.455,0.664,-0.24,17.61,-9.58,1,3
16669.843,-0.678,0.447,0.678,2.87,16.45,-7.17,1,3
16669.859,-0.71,0.458,0.703,5.04,6.96,-1.95,1,3
16669.875,-0.679,0.456,0.685,3.81,2.04,-0.76,1,3
16669.875,-0.664,0.435,0.67,2.62,-1.19,-0.15,1,3
16669.89,-0.647,0.42,0.657,2.59,-2.04,1.04,1,3
16669.906,-0.636,0.417,0.639,4.33,-0.34,1.71,1,3
16669.906,-0.637,0.406,0.633,6.44,2.11,2.04,1,3
16669.921,-0.645,0.398,0.634,9.43,4.67,2.08,1,3
16669.921,-0.653,0.392,0.628,12.94,6.68,2.23,1,3
16669.937,-0.646,0.387,0.622,15.66,7.97,2.99,1,3
16669.953,-0.642,0.389,0.616,17.85,9.37,2.81,1,3
16669.968,-0.656,0.391,0.624,19.35,10.83,1.98,1,3
16669.968,-0.68,0.39,0.638,20.23,10.99,2.14,1,3
16669.984,-0.685,0.393,0.639,20.54,8.76,3.97,1,3
16669.984,-0.679,0.399,0.638,19.65,6.26,6.23,1,3
16670.0,-0.678,0.396,0.638,17.64,4.09,8.03,1,3
16670.015,-0.677,0.39,0.635,14.86,1.5,9.89,1,3
16670.031,-0.653,0.371,0.615,9.92,-1.74,12.97,1,3
16670.031,-0.649,0.356,0.608,8.94,-1.46,13.25,1,3
16670.046,-0.645,0.347,0.598,9.06,-0.34,13.09,1,3
16670.062,-0.638,0.344,0.594,9.58,1.4,12.51,1,3
16670.062,-0.637,0.341,0.588,9.89,3.33,11.38,1,3
16670.078,-0.641,0.342,0.591,9.7,5.37,10.1,1,3
16670.093,-0.656,0.344,0.604,9.34,6.47,9.43,1,3
16670.093,-0.651,0.347,0.585,8.06,6.9,9.19,1,3
16670.109,-0.649,0.35,0.601,5.98,7.93,9.25,1,3
16670.125,-0.647,0.342,0.597,4.27,8.3,8.55,1,3
16670.125,-0.653,0.352,0.607,1.98,8.94,8.09,1,3
16670.14,-0.653,0.343,0.611,0.52,9.09,8.09,1,3
16670.156,-0.65,0.343,0.612,-1.16,9.19,8.15,1,3
16670.156,-0.645,0.346,0.615,-2.78,9.52,7.84,1,3
16670.171,-0.647,0.344,0.621,-4.24,10.04,6.87,1,3
16670.171,-0.648,0.34,0.625,-5.13,10.19,5.98,1,3
16670.203,-0.649,0.343,0.633,-5.52,10.07,3.75,1,3
16670.218,-0.649,0.344,0.638,-5.13,9.52,2.59,1,3
16670.218,-0.649,0.344,0.636,-3.78,8.85,1.65,1,3
16670.234,-0.646,0.349,0.632,-2.41,8.06,0.67,1,3
16670.234,-0.64,0.351,0.629,-1.56,7.87,-0.55,1,3
16670.25,-0.639,0.353,0.629,-1.1,8.24,-1.95,1,3
16670.265,-0.647,0.358,0.634,-0.34,8.7,-3.08,1,3
16670.265,-0.657,0.359,0.633,0.55,8.64,-3.6,1,3
16670.281,-0.66,0.362,0.635,0.67,7.84,-3.81,1,3
16670.296,-0.662,0.361,0.637,0.58,7.23,-4.12,1,3
16670.296,-0.668,0.363,0.636,1.01,6.38,-4.3,1,3
16670.312,-0.668,0.366,0.636,0.67,5.31,-4.27,1,3
16670.312,-0.665,0.367,0.63,-0.4,4.76,-4.43,1,3
16670.328,-0.666,0.365,0.627,-1.5,4.79,-4.85,1,3
16670.343,-0.674,0.364,0.627,-2.11,4.94,-5.25,1,3
16670.343,-0.68,0.361,0.626,-2.38,4.46,-5.4,1,3
16670.359,-0.672,0.362,0.62,-2.72,3.23,-5.22,1,3
16670.375,-0.659,0.365,0.614,-3.27,2.72,-5.52,1,3
16670.375,-0.648,0.368,0.614,-3.94,2.72,-6.44,1,3
16670.39,-0.645,0.363,0.616,-4.3,3.36,-7.02,1,3
16670.406,-0.644,0.362,0.615,-4.12,4.36,-7.35,1,3
16670.406,-0.65,0.361,0.614,-3.05,5.19,-8.12,1,3
16670.421,-0.663,0.358,0.615,-1.71,5.71,-9.34,1,3
16670.437,-0.676,0.355,0.615,-0.34,5.65,-10.62,1,3
16670.437,-0.681,0.362,0.62,0.73,4.76,-11.93,1,3
16670.453,-0.697,0.368,0.627,2.08,3.72,-13.09,1,3
16670.453,-0.702,0.37,0.632,2.96,1.65,-13.64,1,3
16670.468,-0.692,0.38,0.631,3.11,-1.25,-13.46,1,3
16670.484,-0.688,0.385,0.627,2.81,-3.85,-13.55,1,3
16670.5,-0.684,0.386,0.622,2.29,-6.23,-13.58,1,3
16670.5,-0.683,0.383,0.616,2.01,-8.12,-13.76,1,3
16670.515,-0.685,0.38,0.609,2.53,-9.06,-14.31,1,3
16670.515,-0.69,0.377,0.607,3.91,-9.13,-15.11,1,3
16670.531,-0.693,0.374,0.603,6.1,-8.82,-15.96,1,3
16670.546,-0.696,0.378,0.599,8.15,-8.42,-16.82,1,3
16670.546,-0.698,0.381,0.598,9.89,-7.97,-17.67,1,3
16670.562,-0.703,0.385,0.599,11.69,-7.23,-18.37,1,3
16670.562,-0.709,0.388,0.601,13.34,-6.65,-19.01,1,3
16670.578,-0.714,0.392,0.603,14.77,-6.38,-19.44,1,3
16670.593,-0.726,0.399,0.607,15.81,-6.29,-19.68,1,3
16670.609,-0.731,0.402,0.61,16.85,-6.62,-19.71,1,3
16670.609,-0.729,0.406,0.611,17.3,-7.66,-19.2,1,3
16670.625,-0.727,0.41,0.608,17.64,-8.7,-18.22,1,3
16670.625,-0.724,0.409,0.602,17.88,-9.34,-17.4,1,3
16670.64,-0.722,0.406,0.596,18.25,-9.64,-16.6,1,3
16670.656,-0.724,0.404,0.591,19.14,-9.46,-15.72,1,3
16670.656,-0.726,0.404,0.591,20.11,-9.16,-14.92,1,3
16670.671,-0.73,0.402,0.586,20.81,-9.31,-14.25,1,3
16670.687,-0.729,0.401,0.577,20.87,-9.95,-13.58,1,3
16670.687,-0.723,0.391,0.575,21.49,-10.25,-12.36,1,3
16670.703,-0.718,0.395,0.562,22.28,-9.49,-10.5,1,3
16670.703,-0.711,0.393,0.549,22.06,-8.39,-8.88,1,3
16670.718,-0.704,0.386,0.541,21.27,-6.41,-7.02,1,3
16670.734,-0.701,0.39,0.536,19.84,-3.75,-5.16,1,3
16670.734,-0.704,0.386,0.536,17.37,-1.74,-3.23,1,3
16670.75,-0.706,0.385,0.537,14.07,-0.18,-1.1,1,3
16670.765,-0.705,0.38,0.539,10.04,1.25,1.01,1,3
16670.765,-0.702,0.375,0.542,5.71,2.5,2.93,1,3
16670.781,-0.698,0.368,0.549,1.62,3.72,4.55,1,3
16670.781,-0.694,0.36,0.555,-2.17,4.79,5.83,1,3
16670.796,-0.687,0.351,0.557,-5.43,5.86,6.5,1,3
16670.812,-0.68,0.345,0.562,-9.89,8.55,6.1,1,3
16670.828,-0.679,0.343,0.566,-11.05,9.67,5.58,1,3
16670.828,-0.675,0.339,0.569,-11.6,10.53,4.76,1,3
16670.843,-0.672,0.338,0.577,-11.81,11.14,3.75,1,3
16670.843,-0.667,0.342,0.592,-11.81,11.54,2.87,1,3
16670.859,-0.664,0.345,0.595,-11.66,11.63,2.23,1,3
16670.875,-0.666,0.346,0.6,-11.41,11.38,1.5,1,3
16670.875,-0.664,0.346,0.603,-11.41,10.99,0.98,1,3
16670.89,-0.659,0.35,0.608,-11.57,10.74,0.7,1,3
16670.906,-0.662,0.353,0.61,-11.6,10.74,0.49,1,3
16670.906,-0.662,0.354,0.614,-11.9,10.8,0.21,1,3
16670.921,-0.664,0.356,0.619,-12.54,10.83,0.0,1,3
16670.921,-0.67,0.355,0.628,-13.03,10.38,-0.18,1,3
16670.937,-0.671,0.36,0.632,-12.97,10.19,-0.52,1,3
16670.953,-0.682,0.359,0.647,-12.42,9.52,-1.1,1,3
16670.968,-0.686,0.356,0.645,-11.14,7.69,-1.74,1,3
16670.968,-0.687,0.36,0.649,-9.4,6.16,-2.26,1,3
16670.984,-0.688,0.358,0.648,-7.14,4.46,-3.27,1,3
16670.984,-0.689,0.358,0.643,-4.55,2.9,-4.24,1,3
16671.0,-0.69,0.361,0.637,-1.68,1.89,-5.07,1,3
16671.015,-0.689,0.365,0.629,0.95,1.01,-5.43,1,3
16671.015,-0.69,0.37,0.621,2.72,0.21,-5.4,1,3
16671.031,-0.691,0.369,0.612,3.63,-0.7,-5.13,1,3
16671.046,-0.694,0.369,0.606,4.06,-1.22,-4.73,1,3
16671.046,-0.703,0.367,0.603,4.06,-1.71,-4.3,1,3
16671.062,-0.705,0.362,0.596,3.69,-2.56,-3.63,1,3
16671.062,-0.705,0.361,0.588,3.11,-3.02,-3.08,1,3
16671.078,-0.707,0.356,0.581,2.41,-3.11,-3.05,1,3
16671.093,-0.708,0.351,0.575,1.83,-3.08,-3.02,1,3
16671.093,-0.709,0.347,0.569,1.53,-2.78,-2.96,1,3
16671.109,-0.71,0.35,0.569,1.13,-2.26,-3.08,1,3
16671.125,-0.714,0.354,0.575,0.67,-1.71,-3.14,1,3
16671.125,-0.716,0.356,0.576,-0.24,-1.68,-3.02,1,3
16671.14,-0.713,0.357,0.576,-0.85,-1.95,-2.87,1,3
16671.156,-0.717,0.357,0.578,-0.98,-2.23,-3.11,1,3
16671.156,-0.72,0.359,0.584,-0.49,-2.72,-3.36,1,3
16671.171,-0.72,0.359,0.58,0.82,-3.69,-3.3,1,3
16671.171,-0.717,0.358,0.57,2.38,-4.55,-3.33,1,3
16671.187,-0.715,0.358,0.563,4.0,-4.82,-3.66,1,3
16671.203,-0.722,0.36,0.56,5.92,-4.33,-3.88,1,3
16671.218,-0.727,0.363,0.56,7.35,-3.66,-3.63,1,3
16671.218,-0.728,0.366,0.556,8.0,-2.81,-2.96,1,3
16671.234,-0.733,0.366,0.553,8.0,-1.92,-2.56,1,3
16671.234,-0.738,0.362,0.556,7.66,-0.82,-2.14,1,3
16671.25,-0.744,0.359,0.556,7.42,0.12,-1.37,1,3
16671.265,-0.744,0.361,0.553,6.65,0.85,-0.27,1,3
16671.281,-0.745,0.36,0.555,5.28,1.43,0.55,1,3
16671.281,-0.749,0.357,0.563,3.85,1.8,1.22,1,3
16671.281,-0.75,0.354,0.563,2.56,1.53,2.17,1,3
16671.296,-0.746,0.35,0.562,1.07,1.04,3.23,1,3
16671.312,-0.741,0.343,0.558,-0.21,0.95,3.69,1,3
16671.312,-0.742,0.336,0.558,-0.82,1.56,3.3,1,3
16671.328,-0.745,0.332,0.56,-0.76,2.35,3.11,1,3
16671.343,-0.741,0.332,0.559,-0.7,2.9,3.33,1,3
16671.343,-0.734,0.335,0.56,-1.4,3.57,3.3,1,3
16671.359,-0.728,0.337,0.561,-2.84,4.67,2.99,1,3
16671.375,-0.724,0.338,0.568,-5.13,5.74,2.84,1,3
16671.375,-0.717,0.339,0.576,-7.14,6.16,2.9,1,3
16671.39,-0.707,0.337,0.58,-8.48,6.2,2.81,1,3
16671.406,-0.699,0.335,0.586,-8.61,6.2,2.38,1,3
16671.406,-0.7,0.332,0.591,-7.45,5.74,1.68,1,3
16671.421,-0.701,0.336,0.599,-5.65,4.97,1.28,1,3
16671.421,-0.707,0.334,0.598,-3.81,3.88,0.82,1,3
16671.437,-0.708,0.333,0.6,-2.17,2.93,-0.03,1,3
16671.453,-0.718,0.333,0.603,-0.12,2.08,-1.13,1,3
16671.453,-0.727,0.33,0.603,2.41,0.7,-1.59,1,3
16671.468,-0.725,0.334,0.597,4.49,-1.22,-1.53,1,3
16671.484,-0.719,0.337,0.59,5.68,-2.81,-1.71,1,3
16671.5,-0.712,0.336,0.586,6.04,-3.69,-2.32,1,3
16671.5,-0.711,0.335,0.582,6.16,-3.63,-2.99,1,3
16671.515,-0.711,0.333,0.583,6.26,-3.23,-3.42,1,3
16671.515,-0.713,0.334,0.585,6.65,-2.93,-3.81,1,3
16671.531,-0.716,0.335,0.584,7.32,-3.2,-4.09,1,3
16671.546,-0.713,0.336,0.584,7.39,-3.45,-4.33,1,3
16671.546,-0.711,0.338,0.583,7.42,-3.51,-4.79,1,3
16671.578,-0.72,0.342,0.585,7.97,-2.96,-5.89,1,3
16671.578,-0.721,0.345,0.587,7.69,-3.11,-6.01,1,3
16671.593,-0.719,0.349,0.588,7.23,-3.39,-6.04,1,3
16671.593,-0.718,0.349,0.591,7.08,-3.54,-6.32,1,3
16671.609,-0.719,0.349,0.592,7.51,-3.94,-6.16,1,3
16671.625,-0.72,0.351,0.592,8.3,-4.43,-5.86,1,3
16671.625,-0.714,0.351,0.588,9.28,-4.94,-6.01,1,3
16671.64,-0.71,0.348,0.584,10.22,-5.28,-6.53,1,3
16671.656,-0.709,0.348,0.58,11.26,-5.28,-6.99,1,3
16671.656,-0.708,0.347,0.574,12.42,-5.1,-7.05,1,3
16671.671,-0.708,0.349,0.571,13.28,-4.43,-7.11,1,3
16671.671,-0.71,0.351,0.565,13.43,-3.94,-7.02,1,3
16671.687,-0.712,0.349,0.562,12.76,-3.54,-6.87,1,3
16671.703,-0.713,0.345,0.558,11.72,-3.2,-6.53,1,3
16671.703,-0.712,0.343,0.556,10.71,-2.87,-6.23,1,3
16671.718,-0.71,0.34,0.552,9.67,-2.38,-5.98,1,3
16671.734,-0.702,0.336,0.547,7.63,-1.07,-5.89,1,3
16671.75,-0.703,0.335,0.546,6.65,-0.34,-6.13,1,3
16671.765,-0.704,0.334,0.548,5.62,0.37,-6.38,1,3
16671.781,-0.705,0.336,0.546,4.82,0.67,-6.38,1,3
16671.781,-0.705,0.336,0.546,3.85,0.89,-6.41,1,3
16671.796,-0.708,0.338,0.546,2.62,1.28,-6.41,1,3
16671.796,-0.707,0.342,0.543,-0.67,1.83,-5.89,1,3
16671.812,-0.702,0.345,0.543,-2.56,2.84,-5.77,1,3
16671.812,-0.698,0.347,0.548,-4.18,4.06,-5.95,1,3
16671.828,-0.708,0.35,0.563,-5.31,4.7,-5.98,1,3
16671.843,-0.707,0.353,0.572,-6.16,5.19,-6.01,1,3
16671.843,-0.705,0.355,0.578,-6.78,5.1,-6.07,1,3
16671.859,-0.711,0.357,0.582,-6.9,4.7,-6.56,1,3
16671.875,-0.716,0.356,0.585,-6.16,4.03,-6.96,1,3
16671.875,-0.723,0.358,0.587,-4.82,3.36,-7.39,1,3
16671.89,-0.728,0.364,0.586,-3.3,2.81,-7.72,1,3
16671.906,-0.741,0.369,0.574,-1.62,1.43,-7.6,1,3
16671.921,-0.745,0.371,0.564,-1.34,0.92,-7.39,1,3
16671.937,-0.745,0.37,0.556,-1.34,0.82,-6.93,1,3
16671.937,-0.745,0.371,0.548,-1.59,1.13,-6.23,1,3
16671.953,-0.74,0.366,0.538,-2.11,1.65,-5.55,1,3
16671.953,-0.739,0.371,0.536,-3.27,2.69,-4.91,1,3
16671.968,-0.741,0.371,0.534,-4.88,3.97,-4.27,1,3
16671.984,-0.742,0.367,0.535,-6.96,4.88,-3.39,1,3
16672.0,-0.739,0.366,0.536,-9.06,5.52,-1.95,1,3
16672.0,-0.737,0.367,0.534,-10.77,6.01,-0.4,1,3
16672.015,-0.739,0.363,0.535,-12.48,6.13,0.89,1,3
16672.015,-0.737,0.362,0.537,-14.5,5.98,1.92,1,3
16672.031,-0.733,0.361,0.537,-16.42,6.07,2.66,1,3
16672.046,-0.732,0.358,0.54,-18.16,6.35,3.17,1,3
16672.046,-0.732,0.359,0.547,-19.59,6.71,3.6,1,3
16672.062,-0.736,0.358,0.551,-20.29,7.23,3.63,1,3
16672.078,-0.745,0.358,0.566,-19.56,7.69,3.45,1,3
16672.093,-0.756,0.359,0.572,-18.25,7.81,3.11,1,3
16672.093,-0.763,0.359,0.58,-17.0,7.6,2.75,1,3
16672.109,-0.767,0.359,0.585,-15.81,7.11,2.47,1,3
16672.125,-0.771,0.361,0.587,-14.31,6.35,2.2,1,3
16672.125,-0.774,0.363,0.592,-12.91,5.19,2.01,1,3
16672.14,-0.774,0.363,0.596,-11.32,4.0,1.83,1,3
16672.156,-0.775,0.363,0.596,-9.19,2.81,1.5,1,3
16672.156,-0.774,0.362,0.599,-6.65,1.46,1.13,1,3
16672.171,-0.778,0.362,0.598,-3.75,0.0,0.49,1,3
16672.187,-0.783,0.359,0.594,-0.06,-1.83,0.21,1,3
16672.187,-0.784,0.362,0.586,3.97,-4.0,0.21,1,3
16672.203,-0.779,0.365,0.57,7.84,-6.26,0.7,1,3
16672.203,-0.776,0.36,0.562,10.71,-7.84,1.04,1,3
16672.218,-0.777,0.37,0.562,10.35,-9.19,1.62,1,3
16672.234,-0.769,0.359,0.547,11.75,-9.34,3.39,1,3
16672.25,-0.769,0.353,0.536,12.36,-8.21,6.01,1,3
16672.265,-0.767,0.345,0.526,12.54,-7.6,7.26,1,3
16672.265,-0.764,0.342,0.522,12.48,-6.71,8.24,1,3
16672.281,-0.765,0.334,0.522,12.27,-5.86,8.85,1,3
16672.296,-0.763,0.331,0.523,12.12,-5.37,9.58,1,3
16672.296,-0.758,0.331,0.521,11.84,-4.94,10.38,1,3
16672.312,-0.756,0.323,0.52,11.35,-4.27,10.74,1,3
16672.312,-0.757,0.316,0.52,10.47,-3.57,10.86,1,3
16672.328,-0.758,0.313,0.521,9.64,-3.08,11.14,1,3
16672.343,-0.754,0.31,0.521,8.73,-2.99,11.51,1,3
16672.359,-0.751,0.306,0.519,7.54,-2.78,11.57,1,3
16672.359,-0.743,0.303,0.518,5.92,-2.78,11.66,1,3
16672.375,-0.735,0.3,0.521,4.09,-2.47,11.63,1,3
16672.375,-0.731,0.299,0.522,2.23,-1.95,11.08,1,3
16672.39,-0.73,0.293,0.528,0.21,-1.13,10.28,1,3
16672.406,-0.727,0.294,0.536,-1.07,-0.31,9.28,1,3
16672.421,-0.73,0.293,0.554,-1.4,0.31,7.05,1,3
16672.421,-0.727,0.296,0.556,-0.43,0.03,5.77,1,3
16672.437,-0.725,0.298,0.559,0.89,-0.43,4.36,1,3
16672.453,-0.726,0.303,0.559,2.14,-0.89,3.17,1,3
16672.453,-0.729,0.309,0.561,3.57,-0.92,2.04,1,3
16672.468,-0.734,0.316,0.562,4.55,-0.95,1.01,1,3
16672.484,-0.734,0.324,0.564,4.79,-1.22,0.46,1,3
16672.5,-0.733,0.332,0.567,4.46,-1.25,0.4,1,3
16672.5,-0.729,0.339,0.566,3.6,-1.37,0.61,1,3
16672.515,-0.723,0.346,0.569,2.41,-1.28,1.25,1,3
16672.515,-0.718,0.35,0.572,0.95,-0.92,2.11,1,3
16672.531,-0.716,0.352,0.575,-0.24,-0.49,2.84,1,3
16672.546,-0.717,0.351,0.583,-1.22,-0.12,3.42,1,3
16672.546,-0.715,0.352,0.59,-2.08,0.15,4.15,1,3
16672.562,-0.706,0.355,0.59,-3.14,0.12,5.01,1,3
16672.578,-0.691,0.36,0.595,-5.1,0.24,5.58,1,3
16672.578,-0.682,0.363,0.601,-7.57,0.7,5.89,1,3
16672.593,-0.675,0.363,0.61,-9.86,1.28,6.13,1,3
16672.593,-0.672,0.365,0.623,-11.44,1.46,6.2,1,3
16672.609,-0.666,0.365,0.627,-12.39,0.95,5.77,1,3
16672.625,-0.66,0.365,0.631,-12.91,0.4,5.28,1,3
16672.64,-0.655,0.369,0.636,-13.18,0.24,4.55,1,3
16672.64,-0.656,0.369,0.637,-13.03,0.03,3.23,1,3
16672.656,-0.658,0.368,0.64,-12.21,-0.34,2.04,1,3
16672.656,-0.655,0.37,0.64,-11.05,-0.73,1.07,1,3
16672.671,-0.66,0.371,0.636,-9.8,-0.61,-0.09,1,3
16672.687,-0.664,0.37,0.631,-8.39,-0.27,-1.46,1,3
16672.687,-0.675,0.364,0.622,-6.35,0.46,-3.33,1,3
16672.703,-0.688,0.362,0.608,-3.42,1.43,-5.46,1,3
16672.703,-0.708,0.359,0.588,0.03,2.11,-7.97,1,3
16672.718,-0.726,0.357,0.567,3.85,2.56,-10.28,1,3
16672.734,-0.748,0.37,0.566,8.15,3.39,-11.41,1,3
16672.734,-0.768,0.371,0.562,12.33,3.39,-10.68,1,3
16672.75,-0.777,0.385,0.543,13.7,1.68,-8.97,1,3
16672.765,-0.773,0.395,0.537,12.24,-0.95,-6.62,1,3
16672.765,-0.761,0.401,0.533,9.09,-3.02,-2.84,1,3
16672.781,-0.75,0.414,0.524,-4.0,-5.62,3.36,1,3
16672.796,-0.754,0.407,0.521,-12.3,-7.63,5.89,1,3
16672.796,-0.751,0.403,0.524,-19.68,-9.34,8.27,1,3
16672.812,-0.746,0.396,0.523,-25.33,-10.41,9.86,1,3
16672.812,-0.73,0.375,0.531,-28.93,-10.44,10.68,1,3
16672.828,-0.727,0.368,0.534,-30.15,-9.43,10.53,1,3
16672.843,-0.73,0.366,0.539,-29.24,-8.09,9.95,1,3
16672.843,-0.737,0.364,0.543,-26.61,-7.11,9.22,1,3
16672.859,-0.744,0.36,0.542,-22.37,-7.08,8.42,1,3
16672.875,-0.748,0.359,0.539,-17.49,-7.75,7.42,1,3
16672.875,-0.742,0.362,0.53,-12.09,-8.76,6.23,1,3
16672.89,-0.73,0.367,0.524,-6.59,-9.16,5.37,1,3
16672.906,-0.723,0.376,0.52,-1.8,-8.18,4.94,1,3
16672.906,-0.727,0.382,0.509,2.29,-6.01,4.73,1,3
16672.921,-0.734,0.385,0.503,5.16,-3.88,4.91,1,3
16672.937,-0.743,0.387,0.499,6.81,-2.26,5.49,1,3
16672.937,-0.751,0.381,0.492,8.3,-1.62,6.38,1,3
16672.953,-0.76,0.373,0.479,9.98,-1.59,7.14,1,3
16672.953,-0.744,0.363,0.457,11.38,-2.11,8.33,1,3
16672.968,-0.703,0.367,0.44,11.57,-1.8,9.46,1,3
16672.984,-0.68,0.379,0.432,9.67,1.28,10.35,1,3
16672.984,-0.662,0.392,0.432,4.12,6.38,11.75,1,3
16673.0,-0.649,0.412,0.455,-5.62,12.02,13.79,1,3
16673.015,-0.672,0.421,0.492,-17.43,17.46,16.69,1,3
16673.015,-0.694,0.412,0.531,-28.99,20.26,20.11,1,3
16673.031,-0.711,0.393,0.565,-38.03,20.17,22.95,1,3
16673.046,-0.722,0.382,0.587,-43.4,18.13,24.99,1,3
16673.046,-0.73,0.368,0.601,-45.59,15.53,26.22,1,3
16673.062,-0.743,0.354,0.607,-44.71,13.09,26.25,1,3
16673.078,-0.753,0.341,0.611,-41.08,10.99,25.39,1,3
16673.078,-0.765,0.335,0.61,-35.13,9.31,23.96,1,3
16673.093,-0.78,0.327,0.605,-27.89,8.58,22.28,1,3
16673.093,-0.789,0.328,0.6,-20.66,8.67,20.57,1,3
16673.109,-0.798,0.33,0.596,-14.1,9.19,18.68,1,3
16673.125,-0.806,0.332,0.597,-8.03,10.1,17.09,1,3
16673.14,-0.809,0.332,0.595,-2.72,10.68,16.3,1,3
16673.14,-0.808,0.334,0.595,2.14,10.8,15.84,1,3
16673.156,-0.804,0.335,0.592,6.5,10.83,15.81,1,3
16673.156,-0.803,0.332,0.586,9.55,10.28,15.87,1,3
16673.171,-0.792,0.33,0.574,11.6,8.82,16.36,1,3
16673.187,-0.776,0.328,0.563,12.85,7.63,17.03,1,3
16673.187,-0.757,0.324,0.549,13.28,7.51,17.79,1,3
16673.203,-0.743,0.317,0.534,12.63,7.9,18.49,1,3
16673.203,-0.727,0.307,0.52,10.62,8.97,18.98,1,3
16673.218,-0.709,0.297,0.512,6.87,10.74,19.04,1,3
16673.234,-0.693,0.287,0.51,1.83,13.03,18.37,1,3
16673.234,-0.681,0.284,0.51,-4.52,15.38,17.55,1,3
16673.25,-0.667,0.283,0.517,-12.21,17.37,16.88,1,3
16673.265,-0.653,0.28,0.532,-20.75,18.77,16.08,1,3
16673.281,-0.643,0.276,0.548,-29.08,19.62,15.05,1,3
16673.281,-0.633,0.273,0.568,-36.65,19.62,13.79,1,3
16673.296,-0.625,0.271,0.586,-42.88,19.01,12.36,1,3
16673.296,-0.621,0.268,0.602,-47.03,17.88,10.25,1,3
16673.312,-0.626,0.263,0.613,-48.83,16.45,7.87,1,3
16673.312,-0.627,0.258,0.622,-48.83,15.17,4.97,1,3
16673.328,-0.633,0.257,0.631,-47.33,14.25,1.43,1,3
16673.343,-0.642,0.256,0.638,-44.53,13.79,-2.29,1,3
16673.359,-0.65,0.256,0.646,-40.04,13.46,-6.38,1,3
16673.359,-0.663,0.26,0.648,-34.3,13.06,-11.11,1,3
16673.375,-0.669,0.264,0.651,-27.89,11.9,-16.08,1,3
16673.375,-0.669,0.274,0.654,-20.94,11.32,-20.78,1,3
16673.39,-0.67,0.288,0.647,-13.64,11.84,-24.99,1,3
16673.406,-0.673,0.302,0.639,-7.23,13.7,-28.9,1,3
16673.406,-0.679,0.318,0.627,-2.66,16.75,-32.62,1,3
16673.421,-0.684,0.329,0.618,-0.03,20.69,-35.86,1,3
16673.437,-0.726,0.35,0.606,0.98,30.55,-41.05,1,3
16673.453,-0.751,0.359,0.593,0.37,34.18,-43.34,1,3
16673.453,-0.758,0.353,0.56,1.56,39.16,-44.43,1,3
16673.468,-0.803,0.369,0.64,-2.2,43.24,-45.5,1,3
16673.484,-0.834,0.401,0.68,-3.48,43.06,-45.84,1,3
16673.5,-0.886,0.392,0.678,0.7,41.72,-42.63,1,3
16673.5,-0.922,0.402,0.696,3.81,36.96,-35.49,1,3
16673.515,-0.937,0.401,0.711,8.7,28.47,-27.89,1,3
16673.515,-0.948,0.399,0.693,12.7,17.03,-23.13,1,3
16673.531,-0.938,0.393,0.673,14.5,4.36,-21.21,1,3
16673.546,-0.904,0.391,0.651,16.66,-7.35,-20.78,1,3
16673.546,-0.869,0.394,0.625,20.23,-15.53,-19.78,1,3
16673.562,-0.841,0.395,0.597,25.18,-19.65,-17.37,1,3
16673.578,-0.826,0.391,0.569,30.27,-20.84,-15.14,1,3
16673.578,-0.838,0.379,0.541,35.8,-21.12,-14.47,1,3
16673.593,-0.851,0.362,0.512,42.39,-20.78,-13.79,1,3
16673.609,-0.834,0.365,0.454,53.01,-17.85,-11.35,1,3
16673.625,-0.823,0.364,0.432,55.76,-14.16,-9.61,1,3
16673.625,-0.816,0.363,0.431,57.04,-9.61,-7.81,1,3
16673.64,-0.836,0.372,0.447,57.04,-6.5,-4.12,1,3
16673.656,-0.845,0.364,0.447,57.71,-6.32,2.23,1,3
16673.656,-0.841,0.356,0.439,58.14,-7.66,10.19,1,3
16673.671,-0.832,0.349,0.43,57.25,-9.55,17.24,1,3
16673.687,-0.823,0.337,0.423,54.48,-12.27,21.67,1,3
16673.687,-0.827,0.318,0.418,50.69,-14.98,24.11,1,3
16673.703,-0.822,0.297,0.414,46.82,-17.43,25.94,1,3
16673.718,-0.807,0.28,0.404,43.43,-18.83,27.25,1,3
16673.718,-0.788,0.269,0.391,40.41,-18.89,27.56,1,3
16673.734,-0.768,0.266,0.377,37.51,-17.61,27.22,1,3
16673.734,-0.751,0.259,0.37,35.13,-14.98,26.89,1,3
16673.75,-0.737,0.253,0.363,33.54,-11.54,26.64,1,3
16673.765,-0.724,0.246,0.362,31.5,-4.27,25.73,1,3
16673.781,-0.708,0.233,0.372,31.19,1.1,24.6,1,3
16673.796,-0.711,0.226,0.381,31.01,2.04,24.17,1,3
16673.796,-0.7,0.21,0.387,30.09,2.5,23.56,1,3
16673.812,-0.7,0.207,0.393,27.8,2.87,22.31,1,3
16673.812,-0.71,0.2,0.392,24.14,3.27,20.23,1,3
16673.828,-0.718,0.192,0.395,19.68,3.63,17.64,1,3
16673.843,-0.724,0.186,0.396,15.08,4.24,14.95,1,3
16673.843,-0.735,0.181,0.395,10.8,5.01,12.02,1,3
16673.859,-0.742,0.176,0.396,6.65,5.71,8.82,1,3
16673.875,-0.746,0.171,0.4,2.75,6.65,5.58,1,3
16673.875,-0.747,0.17,0.407,-0.85,8.06,2.17,1,3
16673.89,-0.748,0.171,0.415,-4.06,9.83,-1.5,1,3
16673.906,-0.753,0.17,0.422,-6.35,11.63,-5.13,1,3
16673.906,-0.761,0.165,0.435,-7.35,13.03,-8.51,1,3
16673.921,-0.768,0.162,0.441,-7.02,14.01,-12.12,1,3
16673.921,-0.786,0.157,0.447,-5.65,14.71,-15.96,1,3
16673.953,-0.814,0.172,0.458,-0.92,13.95,-25.24,1,3
16673.968,-0.819,0.186,0.461,1.83,13.0,-30.18,1,3
16673.968,-0.824,0.204,0.458,4.21,12.05,-34.94,1,3
16673.984,-0.832,0.225,0.458,6.32,11.23,-38.76,1,3
16673.984,-0.833,0.245,0.457,7.6,10.8,-41.72,1,3
16674.0,-0.827,0.258,0.454,8.21,10.83,-43.89,1,3
16674.015,-0.819,0.271,0.451,7.93,11.32,-45.9,1,3
16674.015,-0.813,0.281,0.448,6.93,12.18,-47.88,1,3
16674.031,-0.809,0.293,0.446,5.55,13.28,-49.71,1,3
16674.031,-0.8,0.301,0.453,3.57,14.34,-51.24,1,3
16674.046,-0.801,0.311,0.46,1.31,15.81,-52.58,1,3
16674.062,-0.809,0.317,0.469,-0.64,17.27,-53.59,1,3
16674.062,-0.816,0.32,0.48,-2.11,17.94,-54.2,1,3
16674.078,-0.823,0.321,0.489,-2.87,18.16,-54.87,1,3
16674.093,-0.828,0.328,0.493,-2.84,17.52,-55.36,1,3
16674.109,-0.83,0.33,0.492,-2.26,16.24,-55.64,1,3
16674.109,-0.836,0.332,0.49,-1.31,15.2,-56.18,1,3
16674.125,-0.849,0.331,0.483,0.4,14.4,-56.52,1,3
16674.125,-0.856,0.331,0.477,2.84,12.97,-56.76,1,3
16674.14,-0.865,0.336,0.47,5.74,11.47,-57.1,1,3
16674.156,-0.873,0.34,0.463,8.45,10.32,-57.04,1,3
16674.156,-0.874,0.345,0.453,10.77,9.37,-56.43,1,3
16674.171,-0.879,0.35,0.442,12.51,8.7,-55.91,1,3
16674.187,-0.882,0.355,0.436,13.73,7.9,-55.06,1,3
16674.187,-0.883,0.36,0.429,14.47,7.26,-53.62,1,3
16674.203,-0.888,0.36,0.423,15.08,7.26,-52.19,1,3
16674.203,-0.895,0.362,0.417,15.56,7.23,-51.03,1,3
16674.218,-0.899,0.361,0.41,16.21,7.02,-49.75,1,3
16674.234,-0.907,0.364,0.404,17.24,6.96,-48.31,1,3
16674.25,-0.906,0.367,0.396,18.65,6.44,-46.33,1,3
16674.25,-0.899,0.368,0.389,19.9,6.23,-43.58,1,3
16674.265,-0.887,0.368,0.38,20.81,6.35,-41.05,1,3
16674.265,-0.897,0.376,0.369,21.09,6.78,-39.58,1,3
16674.281,-0.9,0.366,0.365,21.39,6.74,-36.74,1,3
16674.296,-0.904,0.363,0.358,21.73,6.81,-32.47,1,3
16674.296,-0.907,0.357,0.354,22.4,6.84,-28.41,1,3
16674.312,-0.908,0.346,0.348,22.74,7.29,-24.69,1,3
16674.312,-0.902,0.341,0.344,22.0,8.12,-21.15,1,3
16674.328,-0.904,0.334,0.34,20.33,9.67,-18.83,1,3
16674.343,-0.927,0.321,0.342,18.56,10.99,-17.21,1,3
16674.343,-0.938,0.3,0.344,17.09,10.96,-14.95,1,3
16674.359,-0.931,0.296,0.347,16.39,10.16,-12.27,1,3
16674.375,-0.927,0.291,0.341,17.06,9.06,-10.5,1,3
16674.39,-0.922,0.282,0.336,17.43,8.18,-8.79,1,3
16674.39,-0.916,0.279,0.336,17.98,7.9,-6.84,1,3
16674.406,-0.912,0.272,0.332,18.95,7.97,-4.97,1,3
16674.406,-0.909,0.261,0.327,19.84,7.9,-3.3,1,3
16674.421,-0.904,0.253,0.325,20.45,7.63,-2.01,1,3
16674.421,-0.898,0.245,0.319,20.63,7.42,-1.25,1,3
16674.437,-0.901,0.239,0.313,20.39,7.39,-0.95,1,3
16674.453,-0.904,0.23,0.311,19.65,7.48,-0.46,1,3
16674.453,-0.903,0.222,0.308,18.46,7.78,-0.61,1,3
16674.468,-0.899,0.212,0.307,16.54,8.21,-0.95,1,3
16674.484,-0.891,0.217,0.31,14.37,9.03,-1.74,1,3
16674.5,-0.885,0.213,0.314,12.24,9.95,-3.02,1,3
16674.5,-0.884,0.209,0.324,10.28,10.86,-3.85,1,3
16674.515,-0.881,0.21,0.333,9.67,11.35,-4.39,1,3
16674.515,-0.876,0.205,0.341,9.95,11.47,-4.58,1,3
16674.531,-0.88,0.207,0.344,11.2,11.38,-4.97,1,3
16674.546,-0.892,0.206,0.362,12.36,10.19,-5.43,1,3
16674.546,-0.884,0.208,0.342,14.92,8.58,-5.25,1,3
16674.562,-0.909,0.174,0.327,20.33,9.34,-5.52,1,3
16674.562,-0.92,0.214,0.338,19.38,7.72,-6.32,1,3
16674.578,-0.903,0.205,0.321,19.26,6.47,-7.17,1,3
16674.593,-0.914,0.202,0.32,17.0,7.39,-7.93,1,3
16674.609,-0.907,0.214,0.327,12.79,7.97,-8.06,1,3
16674.609,-0.907,0.211,0.332,9.7,8.7,-8.27,1,3
16674.625,-0.914,0.198,0.339,7.75,9.19,-8.51,1,3
16674.625,-0.916,0.198,0.347,6.96,8.85,-8.79,1,3
16674.64,-0.921,0.197,0.354,7.6,8.51,-9.37,1,3
16674.656,-0.925,0.197,0.361,9.09,8.18,-9.83,1,3
16674.656,-0.932,0.203,0.368,11.23,7.54,-9.83,1,3
16674.671,-0.937,0.204,0.369,13.21,6.47,-9.4,1,3
16674.671,-0.937,0.208,0.372,14.59,5.19,-8.91,1,3
16674.687,-0.934,0.21,0.37,15.32,3.75,-8.51,1,3
16674.703,-0.926,0.212,0.363,15.35,2.17,-7.97,1,3
16674.703,-0.922,0.215,0.359,14.56,0.98,-7.51,1,3
16674.718,-0.911,0.214,0.361,13.0,0.27,-7.14,1,3
16674.734,-0.895,0.207,0.397,13.12,0.18,-7.54,1,3
16674.734,-0.895,0.205,0.434,19.96,0.82,-9.16,1,3
16674.75,-0.904,0.216,0.444,45.9,0.92,-9.8,1,3
16674.765,-0.903,0.233,0.438,56.43,-0.03,-9.13,1,3
16674.765,-0.904,0.249,0.409,61.07,-1.37,-8.67,1,3
16674.781,-0.909,0.27,0.342,60.0,-2.2,-7.81,1,3
16674.796,-0.906,0.285,0.311,52.55,-2.84,-6.32,1,3
16674.796,-0.906,0.284,0.285,40.25,-3.17,-5.19,1,3
16674.812,-0.905,0.274,0.271,25.61,-3.45,-4.3,1,3
16674.812,-0.898,0.265,0.263,10.86,-3.88,-3.6,1,3
16674.828,-0.891,0.254,0.261,-2.69,-4.64,-3.11,1,3
16674.843,-0.886,0.238,0.268,-13.4,-5.28,-2.59,1,3
16674.859,-0.883,0.221,0.277,-20.33,-5.49,-2.23,1,3
16674.859,-0.881,0.211,0.286,-23.71,-5.19,-1.98,1,3
16674.875,-0.879,0.206,0.292,-25.21,-4.94,-1.74,1,3
16674.875,-0.881,0.199,0.297,-25.48,-4.97,-1.56,1,3
16674.89,-0.879,0.192,0.299,-24.78,-5.46,-1.89,1,3
16674.906,-0.876,0.188,0.297,-23.35,-6.1,-2.75,1,3
16674.906,-0.877,0.187,0.303,-20.94,-5.95,-4.27,1,3
16674.921,-0.885,0.188,0.304,-17.21,-5.25,-5.52,1,3
16674.921,-0.891,0.193,0.304,-12.63,-4.24,-6.32,1,3
16674.937,-0.897,0.202,0.299,-8.85,-3.02,-7.08,1,3
16674.953,-0.908,0.203,0.295,-6.99,-1.86,-8.06,1,3
16674.953,-0.919,0.216,0.294,-6.29,-1.34,-8.61,1,3
16674.968,-0.923,0.221,0.289,-6.2,-1.43,-8.73,1,3
16674.984,-0.925,0.229,0.287,-7.39,-1.34,-8.33,1,3
16674.984,-0.924,0.232,0.289,-9.43,-1.1,-7.69,1,3
16675.0,-0.921,0.237,0.294,-11.47,-0.76,-6.93,1,3
16675.015,-0.922,0.238,0.304,-13.21,-0.03,-6.13,1,3
16675.015,-0.927,0.237,0.317,-14.59,0.12,-5.13,1,3
16675.031,-0.93,0.235,0.33,-14.95,-0.4,-4.12,1,3
16675.046,-0.935,0.233,0.343,-14.1,-1.46,-3.33,1,3
16675.046,-0.945,0.238,0.348,-12.33,-2.87,-2.47,1,3
16675.062,-0.947,0.244,0.351,-10.62,-4.79,-1.22,1,3
16675.062,-0.947,0.241,0.35,-8.48,-6.93,0.31,1,3
16675.078,-0.946,0.244,0.346,-5.74,-8.64,1.83,1,3
16675.093,-0.945,0.246,0.343,-2.5,-9.98,3.39,1,3
16675.109,-0.949,0.244,0.335,1.19,-11.02,5.1,1,3
16675.109,-0.95,0.242,0.326,5.22,-11.69,7.11,1,3
16675.125,-0.95,0.241,0.313,9.34,-11.93,9.31,1,3
16675.125,-0.949,0.24,0.301,12.63,-11.81,11.41,1,3
16675.14,-0.945,0.24,0.294,14.83,-11.08,13.31,1,3
16675.156,-0.944,0.237,0.289,15.56,-9.83,14.98,1,3
16675.156,-0.944,0.236,0.286,15.2,-8.45,16.54,1,3
16675.171,-0.946,0.232,0.287,14.65,-7.45,18.07,1,3
16675.171,-0.948,0.225,0.287,14.22,-7.02,19.62,1,3
16675.187,-0.95,0.216,0.285,14.01,-7.02,21.21,1,3
16675.203,-0.946,0.206,0.282,14.22,-7.11,22.19,1,3
16675.203,-0.942,0.203,0.277,14.68,-6.81,22.89,1,3
16675.218,-0.936,0.2,0.272,14.83,-6.04,23.41,1,3
16675.234,-0.933,0.196,0.266,14.37,-4.79,23.9,1,3
16675.234,-0.929,0.193,0.266,13.03,-2.99,24.2,1,3
16675.25,-0.921,0.191,0.267,10.68,-1.5,24.29,1,3
16675.265,-0.907,0.189,0.269,7.48,-0.15,23.87,1,3
16675.265,-0.898,0.188,0.276,3.94,1.16,23.35,1,3
16675.281,-0.893,0.185,0.283,0.85,2.26,22.83,1,3
16675.296,-0.888,0.177,0.293,-1.25,3.02,22.43,1,3
16675.296,-0.887,0.172,0.302,-2.26,3.27,22.03,1,3
16675.312,-0.884,0.162,0.307,-2.47,3.17,21.33,1,3
16675.312,-0.886,0.16,0.307,-2.75,2.96,20.26,1,3
16675.328,-0.883,0.158,0.307,-3.66,2.72,18.8,1,3
16675.343,-0.879,0.156,0.309,-5.01,2.41,17.03,1,3
16675.343,-0.879,0.152,0.311,-6.41,2.35,15.14,1,3
16675.359,-0.876,0.147,0.314,-7.54,2.5,13.46,1,3
16675.375,-0.872,0.146,0.316,-8.7,2.99,11.44,1,3
16675.375,-0.872,0.138,0.32,-9.64,3.57,8.64,1,3
16675.39,-0.872,0.135,0.325,-9.95,3.97,5.68,1,3
16675.406,-0.879,0.133,0.328,-9.58,4.21,2.56,1,3
16675.406,-0.882,0.134,0.329,-8.42,4.12,-0.43,1,3
16675.421,-0.881,0.143,0.33,-7.23,4.39,-3.48,1,3
16675.437,-0.879,0.157,0.334,-6.84,5.01,-6.26,1,3
16675.437,-0.868,0.171,0.339,-7.54,5.58,-8.45,1,3
16675.453,-0.865,0.186,0.344,-9.19,6.1,-10.28,1,3
16675.453,-0.867,0.196,0.354,-10.74,6.2,-11.9,1,3
16675.468,-0.868,0.199,0.362,-11.69,5.49,-12.82,1,3
16675.484,-0.872,0.207,0.366,-11.78,4.33,-13.0,1,3
16675.5,-0.879,0.213,0.368,-11.05,2.99,-12.82,1,3
16675.5,-0.881,0.218,0.369,-10.07,1.77,-12.39,1,3
16675.515,-0.886,0.224,0.364,-9.0,0.89,-11.96,1,3
16675.515,-0.895,0.229,0.362,-8.06,0.12,-11.2,1,3
16675.531,-0.904,0.23,0.363,-7.2,-0.85,-10.07,1,3
16675.546,-0.913,0.229,0.359,-6.23,-1.95,-8.85,1,3
16675.546,-0.918,0.228,0.353,-5.28,-3.27,-7.54,1,3
16675.562,-0.92,0.226,0.349,-4.24,-4.21,-6.56,1,3
16675.562,-0.919,0.225,0.343,-3.11,-4.79,-5.49,1,3
16675.578,-0.925,0.221,0.34,-1.83,-4.79,-4.64,1,3
16675.593,-0.926,0.214,0.336,-0.46,-4.7,-4.03,1,3
16675.593,-0.93,0.212,0.33,0.89,-4.82,-3.51,1,3
16675.609,-0.929,0.208,0.325,1.95,-5.16,-3.27,1,3
16675.625,-0.925,0.207,0.318,2.5,-5.43,-3.39,1,3
16675.625,-0.923,0.207,0.311,2.53,-5.25,-3.66,1,3
16675.64,-0.92,0.209,0.308,2.11,-4.88,-3.69,1,3
16675.656,-0.919,0.211,0.304,1.34,-4.61,-3.75,1,3
16675.656,-0.917,0.21,0.302,0.31,-4.21,-4.03,1,3
16675.671,-0.918,0.212,0.304,-0.7,-3.81,-4.21,1,3
16675.687,-0.918,0.212,0.306,-1.5,-3.66,-4.18,1,3
16675.687,-0.913,0.213,0.309,-2.11,-3.91,-3.81,1,3
16675.703,-0.903,0.215,0.311,-2.44,-4.3,-3.66,1,3
16675.703,-0.896,0.219,0.314,-2.47,-4.58,-3.54,1,3
16675.718,-0.893,0.219,0.314,-2.53,-4.58,-3.39,1,3
16675.734,-0.889,0.216,0.314,-1.8,-4.55,-2.81,1,3
16675.734,-0.889,0.217,0.314,-0.85,-4.88,-2.47,1,3
16675.75,-0.891,0.214,0.313,0.21,-5.31,-2.2,1,3
16675.765,-0.893,0.211,0.31,1.07,-5.4,-2.11,1,3
16675.765,-0.905,0.211,0.302,1.19,-5.16,-1.98,1,3
16675.781,-0.908,0.211,0.3,0.82,-4.79,-2.01,1,3
16675.781,-0.911,0.209,0.299,0.21,-4.21,-2.35,1,3
16675.796,-0.912,0.208,0.3,-0.46,-3.48,-2.81,1,3
16675.812,-0.91,0.208,0.299,-0.92,-2.84,-3.14,1,3
16675.812,-0.909,0.21,0.299,-1.1,-2.2,-3.51,1,3
16675.828,-0.905,0.215,0.301,-1.19,-1.22,-3.81,1,3
16675.843,-0.904,0.219,0.301,-1.25,-0.37,-3.78,1,3
16675.843,-0.903,0.224,0.305,-1.8,0.55,-3.72,1,3
16675.859,-0.901,0.228,0.313,-2.78,1.31,-3.42,1,3
16675.875,-0.9,0.234,0.322,-4.0,1.86,-2.9,1,3
16675.875,-0.898,0.236,0.333,-5.58,1.92,-2.32,1,3
16675.89,-0.897,0.235,0.345,-6.81,1.53,-1.68,1,3
16675.906,-0.896,0.235,0.355,-7.2,0.64,-0.76,1,3
16675.906,-0.891,0.229,0.361,-6.38,-0.52,0.12,1,3
16675.921,-0.897,0.224,0.36,-4.39,-1.77,1.1,1,3
16675.921,-0.904,0.216,0.359,-1.56,-2.93,1.89,1,3
16675.937,-0.907,0.21,0.347,1.74,-4.03,2.53,1,3
16675.953,-0.908,0.209,0.336,4.3,-4.58,2.78,1,3
16675.953,-0.908,0.207,0.326,5.77,-4.15,2.93,1,3
16675.968,-0.911,0.204,0.319,5.95,-3.3,2.72,1,3
16675.984,-0.913,0.202,0.316,5.16,-2.29,2.38,1,3
16675.984,-0.912,0.198,0.316,3.81,-1.56,1.92,1,3
16676.0,-0.911,0.195,0.316,2.72,-0.98,1.43,1,3
16676.015,-0.903,0.194,0.317,1.62,-0.46,0.76,1,3
16676.015,-0.896,0.198,0.322,0.21,0.03,-0.03,1,3
16676.031,-0.893,0.203,0.332,-1.25,0.85,-0.7,1,3
16676.046,-0.89,0.206,0.341,-2.9,1.74,-1.34,1,3
16676.046,-0.891,0.21,0.35,-4.18,2.11,-1.89,1,3
16676.062,-0.895,0.214,0.36,-5.07,1.83,-2.29,1,3
16676.078,-0.901,0.219,0.367,-5.37,0.92,-2.2,1,3
16676.078,-0.905,0.22,0.369,-5.16,-0.24,-1.74,1,3
16676.093,-0.908,0.221,0.365,-4.55,-1.56,-1.16,1,3
16676.093,-0.91,0.224,0.36,-3.63,-2.41,-0.49,1,3
16676.109,-0.912,0.222,0.348,-2.84,-2.9,0.55,1,3
16676.125,-0.914,0.219,0.342,-2.41,-2.87,1.62,1,3
16676.125,-0.914,0.217,0.334,-2.9,-2.08,2.41,1,3
16676.14,-0.91,0.214,0.329,-4.55,-0.95,2.96,1,3
16676.156,-0.907,0.209,0.331,-6.41,0.0,3.36,1,3
16676.156,-0.902,0.198,0.336,-8.24,0.76,3.81,1,3
16676.171,-0.899,0.188,0.341,-9.61,0.89,4.15,1,3
16676.171,-0.897,0.177,0.341,-10.56,0.52,3.69,1,3
16676.187,-0.893,0.17,0.341,-11.26,-0.06,2.84,1,3
16676.203,-0.889,0.165,0.341,-11.87,-0.43,1.59,1,3
16676.218,-0.885,0.161,0.338,-12.48,-0.34,0.09,1,3
16676.218,-0.881,0.158,0.34,-13.21,0.15,-1.56,1,3
16676.234,-0.881,0.159,0.344,-14.01,0.55,-3.33,1,3
16676.234,-0.88,0.159,0.349,-14.65,0.61,-4.97,1,3
16676.25,-0.881,0.161,0.354,-14.95,0.21,-6.9,1,3
16676.265,-0.884,0.17,0.359,-14.65,-0.34,-8.64,1,3
16676.281,-0.886,0.178,0.366,-13.46,-0.92,-9.77,1,3
16676.281,-0.887,0.185,0.367,-11.6,-1.43,-10.41,1,3
16676.281,-0.886,0.192,0.369,-9.55,-2.08,-10.41,1,3
16676.296,-0.891,0.198,0.37,-7.2,-2.47,-10.38,1,3
16676.312,-0.9,0.203,0.372,-4.82,-2.87,-10.28,1,3
16676.328,-0.909,0.209,0.374,-2.62,-3.23,-9.98,1,3
16676.328,-0.92,0.212,0.375,-0.49,-3.85,-9.22,1,3
16676.343,-0.929,0.213,0.372,1.53,-4.85,-8.12,1,3
16676.343,-0.933,0.212,0.365,3.51,-6.13,-6.84,1,3
16676.359,-0.934,0.208,0.354,5.28,-7.29,-5.86,1,3
16676.375,-0.931,0.206,0.333,6.65,-8.12,-4.97,1,3
16676.375,-0.923,0.205,0.312,6.96,-8.48,-4.03,1,3
16676.39,-0.905,0.205,0.294,5.71,-7.63,-3.39,1,3
16676.406,-0.886,0.211,0.28,2.53,-5.55,-3.05,1,3
16676.406,-0.872,0.214,0.275,-2.23,-2.14,-2.87,1,3
16676.421,-0.86,0.212,0.28,-7.93,1.59,-2.53,1,3
16676.421,-0.846,0.218,0.297,-14.25,5.1,-2.62,1,3
16676.437,-0.839,0.228,0.321,-20.05,8.06,-2.84,1,3
16676.453,-0.826,0.233,0.352,-24.66,10.07,-2.59,1,3
16676.468,-0.812,0.234,0.389,-27.34,11.29,-1.86,1,3
16676.468,-0.803,0.232,0.421,-27.53,11.72,-1.1,1,3
16676.484,-0.801,0.228,0.442,-25.97,11.02,-0.89,1,3
16676.484,-0.796,0.23,0.458,-23.04,9.34,-0.82,1,3
16676.5,-0.8,0.233,0.465,-18.59,7.11,-1.1,1,3
16676.515,-0.808,0.236,0.453,-13.28,3.42,-1.13,1,3
16676.515,-0.819,0.245,0.435,-8.64,-0.76,-0.76,1,3
16676.531,-0.824,0.249,0.404,-5.31,-4.43,-0.43,1,3
16676.531,-0.824,0.25,0.373,-3.3,-6.65,0.0,1,3
16676.546,-0.818,0.249,0.341,-1.71,-7.14,0.34,1,3
16676.562,-0.819,0.247,0.316,-0.31,-5.52,0.7,1,3
16676.562,-0.822,0.244,0.299,0.98,-2.56,1.04,1,3
16676.578,-0.828,0.245,0.291,1.74,0.76,1.34,1,3
16676.593,-0.844,0.24,0.288,1.95,4.18,1.65,1,3
16676.593,-0.866,0.237,0.289,1.8,6.78,1.86,1,3
16676.609,-0.881,0.234,0.286,1.4,8.12,1.77,1,3
16676.625,-0.892,0.232,0.283,1.13,8.21,1.71,1,3
16676.625,-0.9,0.232,0.271,1.34,7.6,1.92,1,3
16676.64,-0.91,0.233,0.253,1.46,7.32,2.14,1,3
16676.656,-0.917,0.232,0.233,1.01,8.06,2.56,1,3
16676.656,-0.925,0.23,0.219,0.09,9.46,3.17,1,3
16676.671,-0.926,0.229,0.204,-2.26,11.2,3.91,1,3
16676.671,-0.924,0.233,0.197,-7.05,13.95,4.61,1,3
16676.687,-0.922,0.238,0.199,-14.01,17.7,5.13,1,3
16676.703,-0.926,0.239,0.206,-23.13,21.64,5.31,1,3
16676.703,-0.935,0.236,0.222,-33.57,24.9,6.04,1,3
16676.718,-0.937,0.225,0.245,-52.16,27.41,6.84,1,3
16676.734,-0.939,0.212,0.273,-56.73,26.49,6.9,1,3
16676.734,-0.944,0.203,0.295,-58.38,24.93,6.9,1,3
16676.75,-0.961,0.188,0.333,-58.17,22.37,8.94,1,3
16676.765,-0.953,0.205,0.348,-56.06,20.45,10.8,1,3
16676.765,-0.956,0.214,0.35,-53.13,18.71,10.68,1,3
16676.781,-0.967,0.2,0.359,-51.33,16.24,11.29,1,3
16676.781,-0.977,0.206,0.368,-48.59,14.04,12.94,1,3
16676.796,-0.983,0.206,0.364,-44.01,11.32,14.83,1,3
16676.812,-0.989,0.198,0.363,-38.79,8.79,17.03,1,3
16676.812,-0.99,0.189,0.36,-32.44,5.77,19.75,1,3
16676.828,-0.981,0.186,0.351,-24.2,4.0,21.97,1,3
16676.843,-0.995,0.171,0.341,-15.38,2.44,23.65,1,3
16676.859,-1.01,0.156,0.333,-7.02,0.89,25.82,1,3
16676.859,-1.01,0.163,0.329,1.28,-0.64,27.13,1,3
16676.875,-1.024,0.159,0.313,7.42,-2.75,27.89,1,3
16676.875,-1.03,0.146,0.304,10.59,-5.28,29.85,1,3
16676.89,-1.022,0.157,0.292,12.48,-7.2,31.53,1,3
16676.906,-1.009,0.154,0.273,12.27,-8.3,32.14,1,3
16676.906,-0.997,0.147,0.263,9.58,-8.91,32.72,1,3
16676.921,-0.985,0.143,0.254,6.56,-9.31,32.62,1,3
16676.921,-0.979,0.135,0.246,4.03,-9.28,32.2,1,3
16676.937,-0.979,0.125,0.241,1.1,-9.46,32.11,1,3
16676.953,-0.964,0.128,0.242,-1.89,-9.58,31.86,1,3
16676.968,-0.959,0.137,0.237,-5.52,-9.4,30.34,1,3
16676.968,-0.958,0.13,0.235,-11.57,-9.55,29.42,1,3
16676.984,-0.927,0.147,0.238,-18.49,-9.34,29.18,1,3
16676.984,-0.899,0.168,0.247,-26.0,-7.75,27.92,1,3
16677.0,-0.883,0.162,0.274,-34.33,-4.67,27.5,1,3
16677.015,-0.871,0.165,0.31,-40.56,-1.28,26.83,1,3
16677.015,-0.869,0.166,0.338,-44.28,0.43,26.37,1,3
16677.031,-0.874,0.152,0.367,-46.45,-0.15,26.8,1,3
16677.046,-0.877,0.141,0.388,-45.63,-3.02,27.22,1,3
16677.046,-0.872,0.131,0.392,-41.9,-6.78,27.01,1,3
16677.062,-0.863,0.119,0.386,-36.5,-9.89,26.0,1,3
16677.062,-0.869,0.119,0.38,-29.76,-11.41,23.44,1,3
16677.078,-0.885,0.118,0.37,-21.64,-11.78,19.71,1,3
16677.093,-0.898,0.118,0.36,-13.34,-11.41,16.82,1,3
16677.109,-0.901,0.131,0.352,-5.31,-10.01,14.8,1,3
16677.109,-0.9,0.143,0.341,1.22,-7.57,12.94,1,3
16677.125,-0.902,0.159,0.337,5.34,-4.91,11.11,1,3
16677.125,-0.906,0.171,0.338,7.39,-2.81,9.13,1,3
16677.14,-0.909,0.178,0.346,8.27,-1.31,7.66,1,3
16677.156,-0.922,0.186,0.352,8.76,-0.92,6.59,1,3
16677.156,-0.938,0.191,0.358,9.4,-1.95,6.04,1,3
16677.171,-0.95,0.192,0.36,10.19,-4.55,5.8,1,3
16677.171,-0.945,0.194,0.354,11.02,-7.35,5.92,1,3
16677.187,-0.937,0.201,0.344,11.9,-8.85,5.77,1,3
16677.203,-0.93,0.203,0.336,12.48,-9.06,5.71,1,3
16677.203,-0.921,0.205,0.328,12.57,-8.58,5.86,1,3
16677.218,-0.913,0.204,0.321,12.57,-7.57,6.13,1,3
16677.234,-0.907,0.202,0.318,11.96,-6.26,6.35,1,3
16677.234,-0.893,0.201,0.319,10.74,-5.13,6.41,1,3
16677.25,-0.881,0.199,0.322,9.28,-4.0,6.38,1,3
16677.265,-0.872,0.196,0.334,7.39,-2.84,6.16,1,3
16677.265,-0.872,0.196,0.346,5.62,-2.23,5.83,1,3
16677.281,-0.872,0.19,0.357,4.52,-2.75,5.49,1,3
16677.296,-0.879,0.185,0.371,3.91,-3.6,4.73,1,3
16677.296,-0.886,0.183,0.381,4.09,-5.55,3.54,1,3
16677.312,-0.882,0.183,0.382,4.82,-8.24,2.11,1,3
16677.312,-0.872,0.187,0.377,6.01,-10.83,0.76,1,3
16677.328,-0.863,0.192,0.368,7.14,-11.87,-0.61,1,3
16677.343,-0.861,0.195,0.364,7.32,-11.17,-2.01,1,3
16677.359,-0.866,0.197,0.363,6.65,-9.55,-3.78,1,3
16677.359,-0.875,0.197,0.37,5.68,-7.57,-6.13,1,3
16677.375,-0.883,0.2,0.379,5.62,-5.89,-8.88,1,3
16677.375,-0.891,0.21,0.383,6.5,-4.61,-11.17,1,3
16677.39,-0.889,0.221,0.387,8.09,-4.09,-12.91,1,3
16677.406,-0.877,0.235,0.387,9.83,-4.24,-13.95,1,3
16677.406,-0.858,0.254,0.389,11.29,-4.24,-14.25,1,3
16677.421,-0.84,0.272,0.392,12.05,-3.97,-14.4,1,3
16677.437,-0.828,0.285,0.395,12.02,-3.63,-14.31,1,3
16677.437,-0.821,0.298,0.402,11.14,-3.23,-13.46,1,3
16677.453,-0.819,0.307,0.407,9.46,-3.51,-11.99,1,3
16677.453,-0.82,0.311,0.413,6.13,-3.91,-10.44,1,3
16677.468,-0.825,0.309,0.417,1.95,-4.33,-9.28,1,3
16677.484,-0.825,0.306,0.417,-2.62,-5.22,-8.64,1,3
16677.484,-0.823,0.303,0.417,-6.81,-6.04,-8.45,1,3
16677.5,-0.817,0.3,0.417,-10.01,-6.47,-8.39,1,3
16677.515,-0.81,0.296,0.413,-12.24,-6.29,-8.42,1,3
16677.515,-0.808,0.29,0.407,-13.95,-6.07,-8.76,1,3
16677.531,-0.8,0.291,0.404,-14.89,-6.04,-9.43,1,3
16677.546,-0.796,0.299,0.401,-15.63,-6.13,-10.13,1,3
16677.546,-0.801,0.313,0.39,-17.46,-6.65,-10.28,1,3
16677.562,-0.81,0.32,0.384,-21.27,-7.57,-10.07,1,3
16677.562,-0.818,0.32,0.381,-26.31,-9.03,-9.52,1,3
16677.578,-0.835,0.32,0.373,-31.98,-10.96,-8.76,1,3
16677.593,-0.848,0.314,0.368,-38.67,-13.21,-8.24,1,3
16677.593,-0.86,0.301,0.37,-45.17,-15.2,-8.51,1,3
16677.609,-0.869,0.288,0.364,-49.56,-16.94,-9.55,1,3
16677.625,-0.868,0.284,0.362,-51.97,-18.4,-10.71,1,3
16677.64,-0.872,0.283,0.365,-52.03,-18.52,-11.72,1,3
16677.64,-0.877,0.272,0.365,-49.38,-18.25,-12.73,1,3
16677.656,-0.88,0.279,0.377,-45.75,-18.83,-13.58,1,3
16677.656,-0.895,0.288,0.381,-40.8,-19.17,-13.46,1,3
16677.671,-0.909,0.28,0.385,-35.58,-19.71,-12.48,1,3
16677.687,-0.907,0.29,0.394,-31.46,-21.09,-11.9,1,3
16677.687,-0.928,0.297,0.393,-28.38,-22.1,-10.8,1,3
16677.703,-0.933,0.306,0.392,-31.01,-25.61,-6.29,1,3
16677.718,-0.936,0.304,0.392,-34.67,-27.41,-3.57,1,3
16677.718,-0.93,0.295,0.387,-37.78,-27.71,-1.37,1,3
16677.734,-0.93,0.277,0.383,-39.06,-26.89,0.21,1,3
16677.734,-0.926,0.244,0.378,-37.63,-24.35,1.83,1,3
16677.75,-0.929,0.224,0.378,-33.33,-21.21,2.93,1,3
16677.765,-0.924,0.209,0.381,-27.22,-17.52,3.54,1,3
16677.765,-0.928,0.196,0.381,-19.23,-13.76,4.0,1,3
16677.781,-0.921,0.185,0.372,-10.86,-10.5,4.61,1,3
16677.796,-0.906,0.177,0.364,-3.94,-7.29,5.13,1,3
16677.796,-0.896,0.172,0.358,0.46,-4.09,5.19,1,3
16677.812,-0.889,0.17,0.355,2.29,-0.61,4.91,1,3
16677.812,-0.887,0.165,0.355,2.11,2.78,4.79,1,3
16677.828,-0.886,0.161,0.362,0.46,5.37,4.73,1,3
16677.843,-0.89,0.153,0.37,-1.34,7.39,4.49,1,3
16677.843,-0.895,0.142,0.38,-2.29,8.48,4.21,1,3
16677.859,-0.892,0.138,0.391,-3.02,8.85,4.09,1,3
16677.875,-0.881,0.132,0.4,-3.2,8.94,3.88,1,3
16677.875,-0.876,0.127,0.407,-3.05,9.31,3.48,1,3
16677.89,-0.869,0.125,0.415,-2.78,9.7,2.66,1,3
16677.906,-0.861,0.121,0.42,-1.77,10.07,1.89,1,3
16677.906,-0.858,0.119,0.426,0.0,10.41,1.16,1,3
16677.921,-0.861,0.115,0.432,2.32,10.35,0.34,1,3
16677.921,-0.871,0.115,0.443,5.16,9.95,-0.61,1,3
16677.937,-0.882,0.113,0.456,8.42,8.64,-1.46,1,3
16677.953,-0.888,0.115,0.463,11.75,6.68,-2.14,1,3
16677.953,-0.893,0.123,0.463,14.98,4.39,-3.08,1,3
16677.968,-0.899,0.128,0.462,17.91,2.23,-3.72,1,3
16677.984,-0.903,0.132,0.461,20.75,0.61,-4.21,1,3
16677.984,-0.908,0.137,0.454,23.44,-0.52,-4.64,1,3
16678.0,-0.914,0.137,0.452,25.67,-1.4,-4.7,1,3
16678.015,-0.92,0.139,0.45,27.34,-2.01,-4.94,1,3
16678.015,-0.922,0.144,0.451,28.53,-2.38,-5.19,1,3
16678.031,-0.92,0.147,0.45,29.05,-2.47,-5.1,1,3
16678.046,-0.922,0.155,0.45,29.33,-2.59,-5.04,1,3
16678.046,-0.93,0.156,0.457,29.54,-2.72,-4.7,1,3
16678.062,-0.931,0.155,0.457,29.88,-3.88,-3.78,1,3
16678.078,-0.927,0.157,0.455,30.34,-5.19,-3.23,1,3
16678.078,-0.933,0.162,0.449,30.79,-7.02,-2.9,1,3
16678.093,-0.937,0.171,0.44,30.85,-9.34,-2.04,1,3
16678.093,-0.931,0.182,0.431,29.54,-11.41,-0.61,1,3
16678.109,-0.924,0.186,0.43,26.83,-12.97,0.76,1,3
16678.125,-0.913,0.188,0.424,23.44,-13.43,2.23,1,3
16678.125,-0.901,0.189,0.42,19.71,-12.85,3.85,1,3
16678.14,-0.89,0.187,0.422,16.24,-11.87,5.4,1,3
16678.156,-0.886,0.191,0.422,12.73,-11.23,7.05,1,3
16678.156,-0.875,0.197,0.424,8.3,-11.14,9.28,1,3
16678.171,-0.869,0.189,0.431,3.2,-11.78,11.29,1,3
16678.171,-0.864,0.175,0.443,-1.4,-12.63,13.06,1,3
16678.187,-0.857,0.163,0.453,-5.68,-13.92,14.56,1,3
16678.203,-0.851,0.153,0.462,-9.4,-15.59,15.35,1,3
16678.203,-0.85,0.144,0.47,-11.96,-17.18,15.47,1,3
16678.218,-0.847,0.139,0.474,-13.67,-18.8,15.53,1,3
16678.234,-0.845,0.136,0.482,-14.83,-20.36,15.32,1,3
16678.234,-0.846,0.141,0.485,-15.14,-22.55,15.14,1,3
16678.25,-0.847,0.163,0.481,-16.82,-25.33,15.5,1,3
16678.265,-0.847,0.181,0.47,-21.52,-28.23,16.42,1,3
16678.265,-0.848,0.187,0.47,-28.81,-30.82,17.98,1,3
16678.281,-0.848,0.187,0.463,-37.05,-33.05,19.5,1,3
16678.296,-0.855,0.193,0.458,-45.44,-34.82,21.24,1,3
16678.296,-0.871,0.206,0.456,-54.17,-37.23,23.56,1,3
16678.312,-0.846,0.188,0.458,-62.23,-39.28,27.19,1,3
16678.312,-0.838,0.209,0.458,-70.28,-39.25,29.57,1,3
16678.328,-0.848,0.21,0.465,-78.77,-40.16,29.69,1,3
16678.343,-0.855,0.21,0.475,-88.44,-43.12,30.34,1,3
16678.343,-0.829,0.223,0.478,-97.54,-45.81,33.48,1,3
16678.359,-0.827,0.245,0.495,-107.58,-47.4,36.74,1,3
16678.375,-0.825,0.245,0.496,-119.02,-50.23,39.28,1,3
16678.375,-0.814,0.247,0.494,-132.33,-52.83,43.24,1,3
16678.39,-0.803,0.228,0.558,-143.99,-56.92,47.33,1,3
16678.406,-0.778,0.181,0.581,-147.19,-61.56,49.5,1,3
16678.406,-0.74,0.151,0.57,-144.51,-63.69,49.84,1,3
16678.421,-0.722,0.123,0.588,-134.8,-61.13,48.68,1,3
16678.437,-0.724,0.101,0.579,-119.33,-56.52,46.05,1,3
16678.437,-0.716,0.105,0.564,-104.71,-50.57,42.7,1,3
16678.453,-0.731,0.126,0.582,-91.98,-44.22,38.12,1,3
16678.453,-0.753,0.153,0.591,-81.67,-40.1,34.82,1,3
16678.468,-0.739,0.173,0.599,-76.94,-38.3,34.67,1,3
16678.484,-0.727,0.216,0.675,-82.31,-39.28,36.35,1,3
16678.484,-0.686,0.201,0.693,-84.05,-43.03,39.37,1,3
16678.5,-0.683,0.172,0.704,-83.1,-45.26,44.28,1,3
16678.515,-0.684,0.151,0.724,-81.7,-48.13,48.77,1,3
16678.531,-0.665,0.113,0.72,-77.7,-52.46,50.23,1,3
16678.531,-0.65,0.09,0.701,-72.18,-55.18,48.49,1,3
16678.546,-0.632,0.083,0.687,-66.96,-55.42,45.5,1,3
16678.546,-0.617,0.082,0.688,-62.11,-54.41,41.66,1,3
16678.562,-0.625,0.096,0.693,-57.71,-52.92,38.73,1,3
16678.562,-0.623,0.105,0.715,-53.99,-53.07,37.6,1,3
16678.578,-0.614,0.11,0.728,-49.78,-54.84,38.3,1,3
16678.593,-0.59,0.124,0.747,-46.48,-57.62,38.58,1,3
16678.609,-0.591,0.123,0.754,-42.97,-59.39,39.52,1,3
16678.609,-0.574,0.113,0.753,-40.01,-61.43,41.38,1,3
16678.625,-0.542,0.125,0.759,-38.54,-61.83,42.85,1,3
16678.625,-0.546,0.141,0.741,-35.4,-61.71,42.15,1,3
16678.64,-0.551,0.128,0.743,-30.43,-60.24,41.66,1,3
16678.656,-0.563,0.138,0.781,-25.85,-59.85,42.21,1,3
16678.656,-0.568,0.147,0.792,-19.53,-60.52,43.52,1,3
16678.671,-0.557,0.155,0.78,-15.29,-61.28,45.75,1,3
16678.687,-0.489,0.171,0.762,-15.47,-56.67,47.3,1,3
16678.687,-0.451,0.182,0.729,-17.55,-49.5,45.53,1,3
16678.703,-0.434,0.176,0.712,-19.53,-41.23,43.18,1,3
16678.703,-0.409,0.168,0.711,-17.98,-31.37,40.93,1,3
16678.718,-0.42,0.152,0.719,-14.16,-20.48,39.34,1,3
16678.734,-0.444,0.153,0.744,-10.44,-10.56,39.19,1,3
16678.734,-0.455,0.148,0.761,-8.18,-2.72,40.1,1,3
16678.75,-0.469,0.156,0.777,-7.05,3.69,40.77,1,3
16678.765,-0.483,0.141,0.779,-5.28,8.94,42.51,1,3
16678.781,-0.475,0.151,0.784,-6.32,12.79,44.83,1,3
16678.781,-0.467,0.156,0.793,-10.07,15.78,45.56,1,3
16678.796,-0.475,0.149,0.803,-15.38,17.98,45.05,1,3
16678.796,-0.482,0.136,0.819,-21.82,19.14,44.07,1,3
16678.812,-0.48,0.113,0.831,-26.64,20.33,41.75,1,3
16678.812,-0.491,0.092,0.848,-27.44,22.34,37.93,1,3
16678.828,-0.515,0.089,0.857,-24.48,24.51,34.09,1,3
16678.843,-0.536,0.102,0.877,-20.69,25.48,30.92,1,3
16678.859,-0.557,0.11,0.889,-17.37,24.66,28.35,1,3
16678.859,-0.569,0.121,0.897,-14.86,22.77,26.4,1,3
16678.875,-0.578,0.126,0.907,-12.76,19.26,25.03,1,3
16678.875,-0.578,0.128,0.913,-10.77,15.14,24.05,1,3
16678.89,-0.577,0.13,0.911,-9.09,10.74,23.19,1,3
16678.906,-0.579,0.128,0.901,-6.99,6.5,21.76,1,3
16678.906,-0.594,0.131,0.885,-3.78,2.5,19.5,1,3
16678.921,-0.603,0.14,0.877,-0.43,-1.8,17.12,1,3
16678.937,-0.608,0.151,0.867,2.66,-6.04,15.69,1,3
16678.937,-0.598,0.163,0.848,4.39,-9.43,15.17,1,3
16678.953,-0.597,0.175,0.837,3.2,-11.6,15.08,1,3
16678.953,-0.595,0.172,0.833,0.37,-12.67,15.63,1,3
16678.968,-0.591,0.166,0.845,-2.23,-12.76,16.94,1,3
16678.984,-0.592,0.16,0.861,-2.84,-12.63,18.46,1,3
16678.984,-0.605,0.161,0.875,-2.56,-13.09,20.05,1,3
16679.0,-0.614,0.16,0.886,-2.96,-15.44,21.94,1,3
16679.015,-0.61,0.157,0.89,-4.85,-19.5,23.38,1,3
16679.015,-0.594,0.152,0.887,-7.29,-23.99,24.54,1,3
16679.031,-0.585,0.141,0.888,-8.76,-27.22,25.21,1,3
16679.046,-0.585,0.13,0.876,-8.7,-29.15,26.0,1,3
16679.046,-0.579,0.132,0.863,-8.91,-30.27,27.19,1,3
16679.062,-0.568,0.129,0.849,-9.55,-31.07,27.89,1,3
16679.062,-0.559,0.128,0.84,-10.8,-31.07,28.66,1,3
16679.078,-0.557,0.128,0.832,-12.02,-30.06,29.48,1,3
16679.093,-0.553,0.12,0.828,-12.82,-29.15,30.67,1,3
16679.093,-0.546,0.114,0.829,-13.52,-28.05,31.74,1,3
16679.109,-0.545,0.108,0.837,-13.7,-27.19,32.2,1,3
16679.125,-0.546,0.102,0.851,-13.06,-27.59,31.95,1,3
16679.14,-0.54,0.098,0.87,-12.24,-29.73,31.4,1,3
16679.14,-0.542,0.105,0.874,-11.47,-32.93,29.91,1,3
16679.156,-0.551,0.116,0.873,-10.77,-36.35,28.47,1,3
16679.156,-0.54,0.123,0.865,-10.62,-39.7,27.83,1,3
16679.171,-0.529,0.127,0.848,-11.32,-41.44,27.41,1,3
16679.187,-0.526,0.128,0.836,-12.3,-41.78,27.56,1,3
16679.187,-0.514,0.128,0.831,-13.73,-40.56,27.99,1,3
16679.203,-0.507,0.119,0.824,-15.32,-38.33,27.31,1,3
16679.218,-0.515,0.104,0.821,-15.32,-35.68,25.45,1,3
16679.218,-0.509,0.099,0.836,-14.22,-32.53,23.38,1,3
16679.234,-0.506,0.098,0.841,-11.6,-29.57,21.15,1,3
16679.234,-0.489,0.103,0.847,-9.61,-27.28,19.75,1,3
16679.25,-0.473,0.117,0.859,-10.16,-25.09,18.98,1,3
16679.265,-0.459,0.118,0.877,-12.57,-23.77,18.92,1,3
16679.265,-0.444,0.106,0.884,-15.35,-23.22,19.68,1,3
16679.281,-0.419,0.095,0.883,-18.01,-23.07,19.96,1,3
16679.296,-0.396,0.069,0.883,-19.5,-23.01,18.49,1,3
16679.296,-0.366,0.049,0.883,-18.59,-21.97,15.44,1,3
16679.312,-0.345,0.04,0.881,-15.69,-19.14,11.08,1,3
16679.312,-0.339,0.044,0.879,-12.33,-15.2,5.86,1,3
16679.328,-0.337,0.046,0.884,-9.31,-11.02,1.04,1,3
16679.343,-0.331,0.05,0.885,-6.81,-6.74,-2.84,1,3
16679.343,-0.326,0.055,0.89,-5.49,-2.5,-6.81,1,3
16679.359,-0.334,0.052,0.891,-4.67,1.07,-10.86,1,3
16679.375,-0.338,0.046,0.893,-3.63,3.97,-14.92,1,3
16679.375,-0.344,0.055,0.911,-2.26,6.32,-19.29,1,3
16679.39,-0.371,0.065,0.943,0.64,7.32,-23.32,1,3
16679.406,-0.391,0.082,0.961,4.73,6.53,-25.33,1,3
16679.406,-0.398,0.111,0.973,7.6,3.72,-26.03,1,3
16679.421,-0.402,0.129,0.97,8.33,-0.7,-25.7,1,3
16679.437,-0.39,0.14,0.959,6.59,-5.98,-24.45,1,3
16679.437,-0.374,0.137,0.941,4.97,-10.01,-23.1,1,3
16679.453,-0.36,0.133,0.92,4.91,-11.35,-22.03,1,3
16679.453,-0.349,0.138,0.902,6.07,-10.71,-20.94,1,3
16679.468,-0.348,0.15,0.888,6.78,-8.88,-20.14,1,3
16679.484,-0.354,0.161,0.889,5.8,-7.02,-18.62,1,3
16679.484,-0.358,0.167,0.89,3.45,-5.68,-16.02,1,3
16679.5,-0.355,0.165,0.901,0.79,-4.94,-12.6,1,3
16679.515,-0.362,0.17,0.918,-0.98,-4.33,-8.82,1,3
16679.515,-0.372,0.171,0.929,-2.47,-4.55,-5.07,1,3
16679.531,-0.367,0.164,0.929,-4.49,-5.37,-1.59,1,3
16679.531,-0.358,0.156,0.929,-7.05,-6.32,1.07,1,3
16679.546,-0.35,0.14,0.925,-8.51,-6.65,1.83,1,3
16679.562,-0.353,0.134,0.922,-7.78,-6.1,1.13,1,3
16679.562,-0.355,0.132,0.92,-5.31,-5.16,-0.31,1,3
16679.578,-0.368,0.129,0.912,-2.32,-4.09,-1.89,1,3
16679.593,-0.375,0.137,0.903,-0.4,-3.57,-3.08,1,3
16679.593,-0.377,0.142,0.888,-0.18,-3.23,-3.69,1,3
16679.609,-0.371,0.141,0.877,-1.04,-2.26,-3.88,1,3
16679.625,-0.369,0.14,0.88,-1.86,-0.31,-3.57,1,3
16679.625,-0.375,0.136,0.894,-1.74,1.62,-3.2,1,3
16679.64,-0.383,0.139,0.906,-0.73,2.62,-2.78,1,3
16679.656,-0.385,0.143,0.907,-0.09,2.5,-2.72,1,3
16679.656,-0.387,0.146,0.906,-0.64,1.62,-3.39,1,3
16679.671,-0.385,0.145,0.902,-0.73,0.27,-5.37,1,3
16679.671,-0.381,0.147,0.896,0.06,0.43,-5.92,1,3
16679.687,-0.378,0.152,0.89,0.85,1.37,-6.23,1,3
16679.703,-0.379,0.163,0.877,0.89,2.41,-5.58,1,3
16679.703,-0.378,0.164,0.878,0.55,3.45,-4.76,1,3
16679.718,-0.374,0.163,0.874,0.06,4.7,-3.48,1,3
16679.734,-0.372,0.162,0.883,-1.04,5.86,-1.92,1,3
16679.75,-0.375,0.156,0.893,-2.44,6.65,-0.58,1,3
16679.75,-0.38,0.146,0.898,-3.48,6.78,0.46,1,3
16679.765,-0.38,0.136,0.904,-4.0,6.65,0.92,1,3
16679.765,-0.377,0.129,0.912,-3.91,6.04,0.37,1,3
16679.781,-0.387,0.13,0.916,-2.59,5.37,-0.95,1,3
16679.796,-0.393,0.139,0.916,-1.46,4.15,-1.59,1,3
16679.796,-0.385,0.142,0.911,-1.62,2.5,-1.56,1,3
16679.812,-0.381,0.137,0.907,-2.14,1.43,-1.65,1,3
16679.812,-0.379,0.133,0.904,-2.11,1.4,-1.83,1,3
16679.828,-0.387,0.133,0.905,-1.37,1.89,-1.92,1,3
16679.843,-0.398,0.133,0.91,-0.31,2.01,-1.59,1,3
16679.843,-0.396,0.138,0.914,-0.24,1.8,-0.82,1,3
16679.859,-0.399,0.14,0.932,-1.86,0.85,0.76,1,3
16679.875,-0.388,0.135,0.914,-4.79,-0.67,2.41,1,3
16679.875,-0.38,0.126,0.915,-7.14,-0.92,3.63,1,3
16679.89,-0.378,0.115,0.914,-7.78,-0.95,3.75,1,3
16679.906,-0.377,0.112,0.92,-7.17,-0.89,3.14,1,3
16679.906,-0.383,0.111,0.918,-5.49,-1.01,2.26,1,3
16679.921,-0.393,0.116,0.921,-4.03,-1.5,1.77,1,3
16679.921,-0.404,0.127,0.92,-3.08,-2.69,1.43,1,3
16679.937,-0.413,0.135,0.916,-4.21,-4.82,2.11,1,3
16679.953,-0.404,0.138,0.915,-6.78,-7.29,3.14,1,3
16679.968,-0.394,0.127,0.913,-8.09,-8.24,4.46,1,3
16679.968,-0.388,0.124,0.901,-9.06,-8.67,6.07,1,3
16679.984,-0.383,0.122,0.896,-9.67,-8.33,7.57,1,3
16679.984,-0.386,0.115,0.897,-9.61,-7.35,8.24,1,3
16680.0,-0.393,0.11,0.893,-9.19,-6.99,8.58,1,3
16680.015,-0.393,0.112,0.892,-9.03,-6.56,8.73,1,3
16680.015,-0.399,0.105,0.895,-8.7,-6.35,8.42,1,3
16680.031,-0.403,0.106,0.903,-7.87,-6.2,8.61,1,3
16680.046,-0.406,0.105,0.918,-6.2,-6.53,9.64,1,3
16680.046,-0.392,0.109,0.913,-5.52,-8.09,10.41,1,3
16680.062,-0.394,0.122,0.92,-6.23,-9.92,10.59,1,3
16680.062,-0.381,0.11,0.901,-7.2,-11.96,11.14,1,3
16680.078,-0.372,0.101,0.881,-7.48,-12.42,11.44,1,3
16680.093,-0.36,0.098,0.874,-7.51,-10.77,11.08,1,3
16680.093,-0.359,0.098,0.874,-6.99,-7.9,10.41,1,3
16680.109,-0.363,0.098,0.872,-5.25,-4.79,9.98,1,3
16680.125,-0.369,0.107,0.879,-3.85,-1.46,9.16,1,3
16680.125,-0.383,0.11,0.897,-3.2,0.76,8.18,1,3
16680.14,-0.395,0.109,0.908,-3.05,1.31,7.69,1,3
16680.156,-0.404,0.112,0.916,-2.9,0.82,7.57,1,3
16680.171,-0.409,0.113,0.915,-2.5,-0.46,7.78,1,3
16680.171,-0.405,0.11,0.906,-1.92,-1.83,7.63,1,3
16680.171,-0.399,0.109,0.891,-1.16,-2.59,7.42,1,3
16680.187,-0.391,0.11,0.876,-0.34,-2.14,7.11,1,3
16680.203,-0.388,0.114,0.875,-0.37,-0.61,7.02,1,3
16680.218,-0.384,0.114,0.877,-1.13,1.04,7.23,1,3
16680.218,-0.392,0.116,0.883,-2.2,2.72,7.48,1,3
16680.234,-0.402,0.116,0.895,-3.2,3.57,7.72,1,3
16680.25,-0.421,0.115,0.907,-3.63,3.36,8.21,1,3
16680.25,-0.426,0.113,0.909,-3.39,2.08,9.03,1,3
16680.265,-0.417,0.116,0.901,-3.69,0.31,9.77,1,3
16680.265,-0.405,0.114,0.888,-4.7,-1.1,9.55,1,3
16680.281,-0.39,0.108,0.88,-5.19,-0.79,8.82,1,3
16680.296,-0.391,0.108,0.877,-4.3,0.58,7.81,1,3
16680.296,-0.395,0.115,0.874,-3.69,2.04,6.87,1,3
16680.312,-0.409,0.13,0.869,-3.85,3.27,5.95,1,3
16680.312,-0.421,0.138,0.864,-4.85,4.3,6.04,1,3
16680.328,-0.425,0.148,0.854,-6.96,5.52,7.48,1,3
16680.343,-0.427,0.152,0.842,-9.92,7.45,9.31,1,3
16680.343,-0.434,0.153,0.844,-12.85,9.74,11.81,1,3
16680.359,-0.442,0.154,0.845,-16.17,12.12,15.08,1,3
16680.375,-0.447,0.158,0.837,-20.97,13.82,18.86,1,3
16680.375,-0.443,0.155,0.824,-26.7,15.41,22.52,1,3
16680.39,-0.441,0.143,0.815,-31.98,18.01,26.61,1,3
16680.406,-0.446,0.129,0.808,-37.48,21.64,31.07,1,3
16680.406,-0.44,0.113,0.809,-43.86,25.33,35.13,1,3
16680.421,-0.429,0.083,0.83,-49.38,28.78,37.26,1,3
16680.437,-0.423,0.05,0.873,-51.24,31.89,37.35,1,3
16680.437,-0.416,0.026,0.913,-48.52,33.72,35.34,1,3
16680.453,-0.409,0.018,0.96,-43.21,33.17,30.43,1,3
16680.453,-0.41,0.005,0.997,-35.34,29.39,22.8,1,3
16680.468,-0.403,-0.016,1.007,-25.45,23.71,14.01,1,3
16680.484,-0.391,-0.035,1.01,-15.29,18.4,5.1,1,3
16680.5,-0.399,-0.035,0.999,-7.57,13.4,-3.57,1,3
16680.5,-0.397,-0.054,0.97,0.15,9.92,-9.61,1,3
16680.515,-0.387,-0.064,0.96,4.49,8.79,-12.57,1,3
16680.515,-0.391,-0.077,0.954,5.8,8.97,-13.61,1,3
16680.531,-0.408,-0.095,0.963,5.07,9.4,-12.73,1,3
16680.531,-0.405,-0.099,0.983,2.44,8.82,-10.35,1,3
16680.546,-0.395,-0.1,1.003,-0.31,7.39,-7.63,1,3
16680.562,-0.378,-0.102,1.025,-1.77,5.31,-5.98,1,3
16680.562,-0.378,-0.095,1.041,-0.43,2.47,-7.02,1,3
16680.578,-0.391,-0.061,1.044,2.72,-1.59,-10.07,1,3
16680.593,-0.41,-0.029,1.045,6.56,-7.08,-13.49,1,3
16680.593,-0.406,-0.006,1.015,10.44,-12.76,-15.87,1,3
16680.609,-0.4,0.033,0.982,13.46,-16.82,-17.79,1,3
16680.625,-0.41,0.059,0.943,15.38,-18.77,-19.78,1,3
16680.625,-0.421,0.078,0.909,15.17,-18.83,-19.71,1,3
16680.64,-0.43,0.098,0.889,13.15,-17.37,-18.22,1,3
16680.656,-0.429,0.103,0.877,8.55,-13.09,-14.01,1,3
16680.656,-0.429,0.108,0.866,6.53,-11.6,-11.81,1,3
16680.671,-0.43,0.115,0.854,4.39,-10.59,-9.95,1,3
16680.671,-0.431,0.116,0.844,2.26,-9.95,-7.9,1,3
16680.687,-0.426,0.124,0.842,0.49,-9.16,-5.65,1,3
16680.703,-0.424,0.124,0.849,-0.95,-8.3,-3.36,1,3
16680.703,-0.419,0.126,0.854,-1.92,-7.35,-1.13,1,3
16680.718,-0.42,0.124,0.858,-2.26,-6.71,1.04,1,3
16680.734,-0.418,0.121,0.855,-2.32,-6.23,3.36,1,3
16680.734,-0.419,0.116,0.853,-2.75,-5.52,5.83,1,3
16680.75,-0.43,0.111,0.858,-3.97,-4.55,8.0,1,3
16680.765,-0.447,0.102,0.864,-5.65,-3.75,10.41,1,3
16680.765,-0.456,0.087,0.866,-7.26,-3.6,12.6,1,3
16680.781,-0.458,0.069,0.862,-7.78,-3.45,13.92,1,3
16680.796,-0.461,0.057,0.851,-7.42,-2.66,14.16,1,3
16680.796,-0.457,0.046,0.842,-7.51,-1.01,14.16,1,3
16680.812,-0.442,0.038,0.849,-8.67,1.53,13.95,1,3
16680.812,-0.435,0.033,0.866,-9.74,4.39,13.21,1,3
16680.828,-0.439,0.026,0.885,-9.77,6.41,12.05,1,3
16680.843,-0.443,0.021,0.906,-8.18,7.23,10.28,1,3
16680.843,-0.439,0.017,0.918,-5.25,6.87,7.26,1,3
16680.859,-0.438,0.021,0.922,-0.79,5.83,3.66,1,3
16680.875,-0.433,0.03,0.928,3.66,4.79,0.58,1,3
16680.875,-0.435,0.042,0.931,6.96,3.51,-1.74,1,3
16680.89,-0.433,0.048,0.927,8.42,1.8,-3.23,1,3
16680.906,-0.429,0.052,0.921,8.94,-0.03,-3.97,1,3
16680.906,-0.429,0.057,0.909,9.37,-1.53,-3.88,1,3
16680.921,-0.418,0.058,0.892,8.94,-2.56,-2.78,1,3
16680.937,-0.409,0.058,0.88,7.63,-2.08,-1.07,1,3
16680.937,-0.413,0.049,0.872,5.34,-0.64,0.7,1,3
16680.953,-0.416,0.041,0.878,2.81,0.73,2.41,1,3
16680.953,-0.423,0.029,0.885,1.19,1.98,3.11,1,3
16680.968,-0.417,0.016,0.888,0.49,3.02,3.2,1,3
16680.984,-0.41,0.019,0.893,0.24,4.0,1.98,1,3
16681.0,-0.406,0.023,0.901,0.0,5.01,-0.52,1,3
16681.0,-0.399,0.028,0.911,-0.21,6.26,-2.47,1,3
16681.015,-0.406,0.039,0.925,0.58,7.14,-3.88,1,3
16681.015,-0.419,0.052,0.937,2.29,6.87,-4.76,1,3
16681.031,-0.427,0.062,0.944,2.99,5.25,-4.58,1,3
16681.046,-0.432,0.066,0.94,2.53,2.81,-3.57,1,3
16681.046,-0.437,0.065,0.922,1.53,0.21,-2.62,1,3
16681.062,-0.431,0.058,0.899,0.21,-1.56,-1.59,1,3
16681.078,-0.417,0.052,0.88,-0.82,-1.16,-0.21,1,3
16681.078,-0.411,0.048,0.874,-2.14,0.98,1.01,1,3
16681.093,-0.414,0.038,0.879,-3.6,3.48,1.43,1,3
16681.093,-0.414,0.025,0.892,-5.1,5.52,1.1,1,3
16681.109,-0.405,0.019,0.908,-5.13,6.78,-0.24,1,3
16681.125,-0.411,0.026,0.918,-3.11,7.48,-2.5,1,3
16681.125,-0.426,0.053,0.931,-1.92,7.14,-4.91,1,3
16681.14,-0.433,0.076,0.933,-2.32,5.13,-6.47,1,3
16681.156,-0.444,0.095,0.927,-3.45,2.59,-6.07,1,3
16681.156,-0.451,0.101,0.908,-5.16,0.21,-4.64,1,3
16681.171,-0.457,0.103,0.884,-6.38,-1.59,-3.3,1,3
16681.171,-0.458,0.098,0.861,-5.86,-2.11,-2.26,1,3
16681.187,-0.453,0.091,0.839,-4.58,-1.34,-1.4,1,3
16681.203,-0.447,0.098,0.832,-4.03,1.04,-0.64,1,3
16681.203,-0.454,0.088,0.845,-4.15,3.78,0.49,1,3
16681.218,-0.463,0.077,0.856,-5.58,5.65,2.35,1,3
16681.234,-0.456,0.068,0.865,-7.9,6.81,4.58,1,3
16681.234,-0.444,0.054,0.886,-10.74,7.54,5.71,1,3
16681.25,-0.436,0.036,0.897,-12.3,7.35,5.71,1,3
16681.265,-0.427,0.027,0.913,-12.7,6.71,4.61,1,3
16681.265,-0.432,0.013,0.923,-10.59,5.77,1.28,1,3
16681.281,-0.428,0.001,0.924,-6.13,4.27,-3.6,1,3
16681.296,-0.431,-0.003,0.932,0.06,2.9,-8.82,1,3
16681.296,-0.439,0.004,0.933,6.23,1.62,-13.61,1,3
16681.312,-0.447,0.015,0.929,10.44,0.61,-17.03,1,3
16681.328,-0.449,0.023,0.928,11.93,-0.4,-18.77,1,3
16681.328,-0.454,0.031,0.933,11.75,-1.19,-19.38,1,3
16681.343,-0.459,0.028,0.935,11.51,-2.29,-19.07,1,3
16681.343,-0.456,0.023,0.927,11.26,-3.39,-18.34,1,3
16681.359,-0.452,0.021,0.92,10.83,-4.33,-17.52,1,3
16681.375,-0.447,0.019,0.913,9.95,-5.34,-17.09,1,3
16681.375,-0.447,0.014,0.911,9.03,-6.23,-16.75,1,3
16681.39,-0.443,0.004,0.907,8.27,-7.11,-16.63,1,3
16681.406,-0.441,-0.005,0.907,8.58,-7.78,-17.12,1,3
16681.406,-0.446,-0.008,0.903,10.65,-8.51,-18.62,1,3
16681.421,-0.448,-0.005,0.899,13.06,-9.46,-20.57,1,3
16681.421,-0.438,0.0,0.89,15.41,-10.1,-22.68,1,3
16681.437,-0.438,0.01,0.882,17.58,-9.89,-24.45,1,3
16681.453,-0.445,0.021,0.874,18.4,-9.74,-25.21,1,3
16681.453,-0.442,0.025,0.863,17.37,-9.13,-24.51,1,3
16681.468,-0.437,0.033,0.852,14.8,-8.03,-23.38,1,3
16681.484,-0.433,0.038,0.854,11.96,-6.38,-22.31,1,3
16681.484,-0.437,0.04,0.857,10.04,-4.36,-21.39,1,3
16681.5,-0.438,0.04,0.858,9.19,-2.32,-20.11,1,3
16681.515,-0.433,0.041,0.866,9.37,-0.09,-19.01,1,3
16681.515,-0.438,0.047,0.876,9.86,1.92,-18.34,1,3
16681.531,-0.443,0.047,0.894,9.64,3.11,-17.55,1,3
16681.546,-0.44,0.046,0.907,8.97,3.02,-16.48,1,3
16681.546,-0.435,0.046,0.914,7.97,2.14,-16.08,1,3
16681.562,-0.436,0.041,0.921,7.66,0.92,-16.05,1,3
16681.562,-0.431,0.038,0.915,8.39,-0.67,-15.66,1,3
16681.578,-0.419,0.039,0.904,9.13,-1.62,-15.38,1,3
16681.593,-0.41,0.04,0.901,9.7,-1.46,-15.75,1,3
16681.609,-0.417,0.04,0.904,10.71,-0.4,-16.02,1,3
16681.609,-0.427,0.039,0.9,11.66,-0.15,-15.84,1,3
16681.625,-0.422,0.038,0.896,11.9,-0.43,-15.59,1,3
16681.625,-0.422,0.037,0.892,11.63,0.31,-16.3,1,3
16681.64,-0.433,0.034,0.891,11.87,-0.21,-16.66,1,3
16681.656,-0.441,0.036,0.895,12.7,-0.95,-17.03,1,3
16681.656,-0.435,0.039,0.895,13.79,-1.37,-17.3,1,3
16681.671,-0.433,0.046,0.885,14.98,-1.71,-17.73,1,3
16681.671,-0.436,0.047,0.882,16.21,-1.28,-18.01,1,3
16681.687,-0.45,0.045,0.877,17.18,-0.79,-17.82,1,3
16681.703,-0.458,0.051,0.867,17.76,-0.27,-17.67,1,3
16681.703,-0.467,0.054,0.869,18.01,0.18,-17.33,1,3
16681.718,-0.466,0.064,0.861,17.67,-0.43,-17.06,1,3
16681.734,-0.468,0.067,0.854,16.97,-0.18,-16.14,1,3
16681.75,-0.46,0.068,0.846,15.5,-0.06,-14.95,1,3
16681.75,-0.461,0.07,0.839,14.19,0.92,-13.21,1,3
16681.765,-0.463,0.073,0.835,12.73,2.11,-11.44,1,3
16681.765,-0.46,0.074,0.829,10.74,3.33,-9.4,1,3
16681.781,-0.457,0.078,0.829,8.55,4.91,-7.17,1,3
16681.796,-0.453,0.08,0.832,6.23,6.29,-5.43,1,3
16681.796,-0.446,0.079,0.832,4.0,7.72,-3.78,1,3
16681.812,-0.439,0.083,0.842,2.14,9.22,-2.29,1,3
16681.812,-0.434,0.082,0.854,1.1,10.38,-1.01,1,3
16681.828,-0.436,0.085,0.866,0.61,11.35,0.15,1,3
16681.843,-0.438,0.089,0.874,-0.09,11.38,1.56,1,3
16681.843,-0.435,0.09,0.875,-1.53,10.77,2.72,1,3
16681.859,-0.43,0.085,0.881,-3.11,10.41,3.05,1,3
16681.875,-0.428,0.082,0.89,-3.72,10.32,2.69,1,3
16681.89,-0.436,0.085,0.897,-2.69,10.19,2.04,1,3
16681.89,-0.447,0.094,0.902,-1.04,9.98,1.28,1,3
16681.906,-0.454,0.103,0.906,-0.15,9.74,0.92,1,3
16681.921,-0.46,0.112,0.908,-0.06,9.03,0.92,1,3
16681.937,-0.46,0.119,0.91,-0.79,8.3,1.46,1,3
16681.953,-0.461,0.126,0.913,-1.74,7.48,2.84,1,3
16681.968,-0.472,0.14,0.917,-2.9,6.23,4.97,1,3
16681.984,-0.481,0.148,0.911,-4.85,4.39,8.09,1,3
16682.0,-0.477,0.155,0.9,-8.15,2.56,11.9,1,3
16682.0,-0.476,0.155,0.89,-11.93,1.65,16.21,1,3
16682.015,-0.478,0.151,0.882,-16.6,1.62,21.12,1,3
16682.015,-0.485,0.149,0.88,-21.61,2.11,25.97,1,3
16682.031,-0.501,0.143,0.887,-26.43,1.71,30.4,1,3
16682.046,-0.499,0.128,0.887,-30.34,0.12,34.27,1,3
16682.062,-0.49,0.122,0.876,-33.23,-1.31,37.45,1,3
16682.062,-0.481,0.113,0.866,-35.25,-2.29,39.25,1,3
16682.062,-0.473,0.096,0.863,-36.23,-2.44,40.25,1,3
16682.078,-0.473,0.082,0.86,-35.74,-1.56,41.08,1,3
16682.078,-0.475,0.068,0.865,-34.12,-0.52,41.26,1,3
16682.093,-0.474,0.053,0.872,-32.26,-0.09,41.17,1,3
16682.093,-0.47,0.044,0.875,-31.16,-0.76,40.62,1,3
16682.109,-0.469,0.031,0.88,-30.7,-2.17,39.67,1,3
16682.109,-0.474,0.027,0.884,-30.79,-4.27,38.61,1,3
16682.109,-0.468,0.024,0.887,-31.74,-7.02,37.51,1,3
16682.125,-0.455,0.016,0.888,-32.44,-9.8,35.8,1,3
16682.14,-0.458,0.007,0.886,-30.88,-11.41,33.42,1,3
16682.14,-0.459,0.006,0.885,-28.53,-12.82,31.13,1,3
16682.14,-0.45,0.002,0.89,-25.85,-14.19,28.14,1,3
16682.156,-0.452,-0.01,0.883,-22.43,-14.77,24.08,1,3
16682.171,-0.452,-0.016,0.882,-18.37,-14.74,20.17,1,3
16682.187,-0.442,-0.005,0.895,-14.5,-14.19,16.72,1,3
16682.187,-0.441,0.002,0.903,-10.5,-13.52,13.15,1,3
16682.203,-0.45,0.009,0.912,-6.13,-13.09,10.56,1,3
16682.218,-0.466,0.025,0.929,-3.51,-13.76,9.13,1,3
16682.218,-0.474,0.027,0.92,-2.01,-15.96,8.36,1,3
16682.234,-0.463,0.039,0.893,-2.41,-18.01,8.88,1,3
16682.234,-0.446,0.042,0.873,-4.58,-18.56,9.64,1,3
16682.25,-0.438,0.038,0.863,-6.62,-17.88,10.01,1,3
16682.265,-0.428,0.032,0.854,-6.29,-16.05,10.25,1,3
16682.265,-0.416,0.037,0.856,-4.09,-13.46,10.41,1,3
16682.281,-0.419,0.039,0.87,-0.06,-10.35,10.04,1,3
16682.281,-0.433,0.048,0.876,5.13,-7.54,10.1,1,3
16682.296,-0.43,0.062,0.882,7.75,-5.55,10.38,1,3
16682.312,-0.414,0.069,0.905,7.39,-4.33,9.43,1,3
16682.328,-0.434,0.062,0.922,8.67,-3.54,8.0,1,3
16682.328,-0.427,0.059,0.936,11.26,-4.12,6.84,1,3
16682.343,-0.424,0.067,0.938,13.46,-5.77,4.27,1,3
16682.343,-0.427,0.056,0.931,14.86,-8.33,0.52,1,3
16682.359,-0.417,0.056,0.916,14.13,-11.29,-3.36,1,3
16682.375,-0.404,0.048,0.902,13.0,-13.7,-8.12,1,3
16682.39,-0.4,0.03,0.879,12.76,-14.44,-12.21,1,3
16682.39,-0.407,0.006,0.858,12.45,-12.6,-13.12,1,3
16682.406,-0.431,-0.026,0.849,10.86,-8.64,-10.16,1,3
16682.406,-0.46,-0.056,0.841,6.74,-4.55,-3.57,1,3
16682.421,-0.454,-0.093,0.847,-0.73,-1.25,4.55,1,3
16682.437,-0.447,-0.113,0.867,-9.43,1.59,10.53,1,3
16682.437,-0.407,-0.134,0.876,-14.19,4.18,13.18,1,3
16682.453,-0.378,-0.131,0.924,-17.3,6.65,10.99,1,3
16682.453,-0.36,-0.139,0.954,-18.04,7.05,3.57,1,3
16682.468,-0.352,-0.121,0.969,-14.16,6.81,-5.77,1,3
16682.484,-0.36,-0.079,0.985,-7.66,5.71,-15.99,1,3
16682.484,-0.378,-0.045,0.981,-0.7,3.54,-25.12,1,3
16682.5,-0.392,0.001,0.996,4.58,0.95,-31.34,1,3
16682.515,-0.413,0.042,0.994,8.79,-2.93,-35.07,1,3
16682.515,-0.415,0.082,0.976,11.02,-7.2,-35.22,1,3
16682.531,-0.409,0.12,0.956,10.74,-10.83,-33.54,1,3
16682.546,-0.417,0.131,0.926,8.82,-13.46,-30.82,1,3
16682.546,-0.413,0.133,0.9,6.01,-14.47,-26.06,1,3
16682.562,-0.401,0.133,0.879,3.66,-13.4,-20.57,1,3
16682.562,-0.399,0.124,0.863,1.04,-10.13,-14.47,1,3
16682.578,-0.403,0.102,0.865,-2.23,-6.59,-8.51,1,3
16682.593,-0.413,0.079,0.881,-5.13,-3.78,-3.6,1,3
16682.593,-0.418,0.054,0.892,-6.9,-2.66,-0.18,1,3
16682.609,-0.422,0.033,0.914,-7.63,-2.84,2.04,1,3
16682.625,-0.433,0.006,0.923,-5.25,-5.13,3.85,1,3
16682.625,-0.44,-0.013,0.936,-2.84,-7.26,3.45,1,3
16682.64,-0.457,-0.038,0.938,-2.01,-9.03,3.51,1,3
16682.656,-0.478,-0.087,0.895,-3.85,-9.89,3.91,1,3
16682.656,-0.467,-0.105,0.875,-7.87,-9.0,4.24,1,3
16682.671,-0.452,-0.111,0.864,-12.91,-6.68,3.81,1,3
16682.671,-0.441,-0.115,0.875,-17.18,-3.48,2.75,1,3
16682.687,-0.425,-0.107,0.902,-19.71,-0.12,2.23,1,3
16682.703,-0.425,-0.093,0.928,-20.66,2.56,2.41,1,3
16682.703,-0.436,-0.089,0.956,-22.55,3.72,3.63,1,3
16682.718,-0.441,-0.09,0.98,-26.34,3.02,5.62,1,3
16682.734,-0.437,-0.097,0.989,-29.69,0.89,7.48,1,3
16682.734,-0.425,-0.098,0.986,-32.41,-1.53,8.55,1,3
16682.75,-0.417,-0.096,0.986,-34.61,-2.93,8.7,1,3
16682.765,-0.416,-0.109,0.986,-36.16,-3.45,9.22,1,3
16682.765,-0.416,-0.128,0.984,-36.5,-3.39,10.1,1,3
16682.781,-0.411,-0.136,0.982,-37.2,-3.36,10.56,1,3
16682.781,-0.407,-0.155,0.979,-39.0,-4.0,9.8,1,3
16682.796,-0.396,-0.18,0.977,-40.65,-4.64,8.03,1,3
16682.812,-0.398,-0.185,0.973,-41.26,-5.01,5.71,1,3
16682.812,-0.397,-0.19,0.967,-42.24,-5.74,2.9,1,3
16682.828,-0.389,-0.192,0.965,-43.86,-6.41,0.7,1,3
16682.843,-0.391,-0.191,0.97,-45.17,-6.96,-0.95,1,3
16682.843,-0.391,-0.192,0.963,-46.54,-7.42,-1.89,1,3
16682.859,-0.383,-0.196,0.956,-47.73,-6.99,-2.41,1,3
16682.875,-0.395,-0.183,0.947,-50.97,-5.55,-2.93,1,3
16682.875,-0.395,-0.194,0.951,-55.88,-4.55,-2.44,1,3
16682.89,-0.384,-0.205,0.94,-61.04,-2.87,-2.17,1,3
16682.89,-0.373,-0.217,0.957,-67.6,-1.31,-2.59,1,3
16682.906,-0.377,-0.253,0.953,-71.9,-0.64,-4.3,1,3
16682.921,-0.378,-0.269,0.951,-75.62,0.43,-6.99,1,3
16682.921,-0.384,-0.29,0.96,-78.43,1.04,-11.38,1,3
16682.937,-0.413,-0.317,0.967,-80.23,1.74,-16.6,1,3
16682.953,-0.411,-0.343,0.97,-79.96,1.83,-20.05,1,3
16682.953,-0.421,-0.317,0.994,-77.06,2.72,-22.22,1,3
16682.968,-0.441,-0.314,1.022,-72.6,1.77,-21.42,1,3
16682.984,-0.447,-0.313,1.028,-70.19,-1.68,-17.49,1,3
16683.0,-0.429,-0.306,1.02,-69.8,-5.74,-11.84,1,3
16683.0,-0.416,-0.308,1.009,-72.27,-9.43,-6.2,1,3
16683.015,-0.407,-0.329,0.992,-77.88,-13.03,-1.43,1,3
16683.015,-0.384,-0.358,0.979,-83.96,-16.02,1.8,1,3
16683.031,-0.369,-0.386,0.978,-86.95,-17.24,2.69,1,3
16683.046,-0.351,-0.411,0.966,-85.79,-15.99,1.8,1,3
16683.046,-0.34,-0.414,0.97,-83.65,-13.67,-1.77,1,3
16683.062,-0.346,-0.44,0.978,-79.59,-11.93,-7.42,1,3
16683.078,-0.35,-0.451,0.98,-73.64,-10.71,-12.97,1,3
16683.078,-0.357,-0.442,0.984,-67.78,-10.28,-17.94,1,3
16683.093,-0.361,-0.435,0.979,-63.51,-10.83,-22.16,1,3
16683.093,-0.365,-0.414,0.986,-62.17,-11.35,-25.51,1,3
16683.109,-0.384,-0.397,1.007,-62.38,-12.82,-28.23,1,3
16683.125,-0.378,-0.387,1.009,-62.01,-15.63,-28.99,1,3
16683.125,-0.373,-0.369,1.005,-61.31,-18.77,-28.57,1,3
16683.14,-0.373,-0.358,0.994,-60.7,-21.49,-26.8,1,3
16683.156,-0.372,-0.346,0.971,-61.8,-23.9,-23.83,1,3
16683.156,-0.365,-0.355,0.944,-64.85,-26.09,-19.68,1,3
16683.171,-0.35,-0.367,0.917,-67.63,-26.61,-15.14,1,3
16683.171,-0.343,-0.369,0.89,-69.7,-25.48,-11.75,1,3
16683.187,-0.328,-0.37,0.883,-72.85,-23.59,-9.25,1,3
16683.203,-0.317,-0.379,0.884,-75.08,-21.09,-7.42,1,3
16683.218,-0.318,-0.393,0.889,-75.26,-18.28,-5.71,1,3
16683.218,-0.328,-0.396,0.898,-74.5,-16.82,-4.03,1,3
16683.234,-0.337,-0.398,0.905,-73.85,-17.24,-2.9,1,3
16683.234,-0.339,-0.405,0.898,-73.58,-18.92,-2.11,1,3
16683.25,-0.324,-0.399,0.881,-73.67,-20.6,-1.46,1,3
16683.265,-0.307,-0.398,0.866,-73.0,-20.97,-0.92,1,3
16683.265,-0.294,-0.4,0.847,-72.91,-20.6,0.27,1,3
16683.281,-0.293,-0.384,0.837,-74.34,-19.56,2.41,1,3
16683.296,-0.293,-0.398,0.829,-77.91,-19.75,5.16,1,3
16683.296,-0.282,-0.424,0.82,-80.94,-19.75,7.97,1,3
16683.312,-0.278,-0.433,0.811,-81.7,-19.62,9.86,1,3
16683.312,-0.281,-0.454,0.801,-81.21,-20.2,10.13,1,3
16683.328,-0.285,-0.478,0.797,-80.08,-21.42,9.49,1,3
16683.343,-0.286,-0.502,0.784,-78.4,-22.58,8.42,1,3
16683.359,-0.281,-0.523,0.755,-76.14,-23.53,6.99,1,3
16683.359,-0.268,-0.532,0.725,-73.92,-23.35,5.46,1,3
16683.375,-0.265,-0.54,0.703,-71.6,-20.91,2.81,1,3
16683.375,-0.259,-0.538,0.692,-70.19,-16.94,-0.46,1,3
16683.39,-0.263,-0.538,0.698,-69.73,-13.95,-3.02,1,3
16683.406,-0.272,-0.556,0.709,-67.81,-11.69,-4.12,1,3
16683.406,-0.27,-0.564,0.723,-64.82,-11.17,-4.46,1,3
16683.421,-0.282,-0.59,0.727,-61.8,-12.15,-5.16,1,3
16683.421,-0.286,-0.618,0.723,-58.32,-14.28,-6.23,1,3
16683.437,-0.291,-0.649,0.736,-53.04,-16.48,-7.11,1,3
16683.453,-0.288,-0.681,0.718,-45.63,-17.82,-7.17,1,3
16683.453,-0.265,-0.691,0.683,-39.34,-18.62,-7.48,1,3
16683.468,-0.254,-0.697,0.658,-36.23,-18.49,-9.98,1,3
16683.484,-0.248,-0.71,0.645,-35.25,-17.98,-14.25,1,3
16683.5,-0.261,-0.716,0.629,-33.23,-15.87,-17.67,1,3
16683.5,-0.287,-0.696,0.641,-34.55,-14.31,-19.17,1,3
16683.515,-0.307,-0.724,0.655,-36.29,-15.81,-18.49,1,3
16683.515,-0.308,-0.75,0.643,-35.68,-17.73,-15.75,1,3
16683.531,-0.303,-0.759,0.627,-33.54,-17.94,-13.73,1,3
16683.546,-0.296,-0.781,0.615,-32.2,-16.51,-12.6,1,3
16683.546,-0.277,-0.805,0.616,-31.62,-14.62,-12.02,1,3
16683.562,-0.263,-0.835,0.616,-29.3,-12.79,-12.82,1,3
16683.578,-0.273,-0.859,0.603,-26.92,-11.57,-14.25,1,3
16683.578,-0.274,-0.861,0.589,-28.63,-11.6,-16.21,1,3
16683.593,-0.28,-0.875,0.588,-30.64,-11.41,-19.56,1,3
16683.593,-0.267,-0.88,0.574,-32.23,-9.74,-22.28,1,3
16683.609,-0.261,-0.857,0.56,-33.11,-7.11,-21.49,1,3
16683.625,-0.275,-0.856,0.551,-35.43,-4.46,-19.23,1,3
16683.625,-0.255,-0.848,0.564,-35.22,-1.95,-17.94,1,3
16683.64,-0.249,-0.87,0.593,-31.77,-0.55,-17.91,1,3
16683.656,-0.231,-0.85,0.586,-32.11,-0.12,-18.37,1,3
16683.656,-0.218,-0.873,0.601,-35.31,0.0,-20.05,1,3
16683.671,-0.242,-0.865,0.585,-34.03,-0.46,-21.64,1,3
16683.687,-0.237,-0.857,0.566,-35.83,-2.11,-22.61,1,3
16683.687,-0.228,-0.864,0.582,-39.98,-2.44,-22.52,1,3
16683.703,-0.219,-0.876,0.575,-41.26,-2.47,-22.46,1,3
16683.703,-0.202,-0.883,0.569,-41.75,-2.11,-22.98,1,3
16683.718,-0.186,-0.909,0.56,-39.89,-1.95,-23.59,1,3
16683.734,-0.165,-0.865,0.542,-36.13,-1.31,-24.69,1,3
16683.734,-0.169,-0.873,0.537,-37.32,0.12,-26.55,1,3
16683.75,-0.178,-0.897,0.557,-38.76,1.07,-27.04,1,3
16683.765,-0.187,-0.891,0.553,-36.65,1.31,-26.58,1,3
16683.765,-0.182,-0.877,0.541,-36.62,1.22,-26.49,1,3
16683.781,-0.188,-0.869,0.549,-38.79,0.67,-27.25,1,3
16683.796,-0.186,-0.853,0.55,-40.77,0.43,-27.59,1,3
16683.796,-0.153,-0.847,0.553,-43.34,-0.37,-27.16,1,3
16683.812,-0.124,-0.857,0.559,-42.51,-0.58,-26.73,1,3
16683.812,-0.103,-0.871,0.558,-39.55,-0.79,-26.95,1,3
16683.828,-0.101,-0.881,0.564,-37.57,-1.37,-28.81,1,3
16683.843,-0.107,-0.888,0.56,-36.35,-3.2,-31.71,1,3
16683.859,-0.113,-0.884,0.545,-35.28,-5.71,-33.81,1,3
16683.859,-0.108,-0.875,0.516,-35.0,-7.69,-35.1,1,3
16683.875,-0.101,-0.868,0.482,-34.67,-7.97,-34.82,1,3
16683.875,-0.101,-0.859,0.473,-36.07,-7.14,-32.96,1,3
16683.89,-0.093,-0.871,0.466,-38.67,-5.83,-30.79,1,3
16683.906,-0.083,-0.882,0.474,-40.28,-4.36,-29.39,1,3
16683.906,-0.083,-0.896,0.487,-39.52,-3.27,-29.27,1,3
16683.921,-0.086,-0.901,0.487,-38.09,-3.48,-30.64,1,3
16683.937,-0.094,-0.888,0.487,-36.26,-4.79,-31.98,1,3
16683.937,-0.106,-0.883,0.485,-35.71,-7.17,-31.04,1,3
16683.953,-0.099,-0.893,0.467,-38.27,-10.62,-28.6,1,3
16683.953,-0.079,-0.924,0.44,-39.55,-12.85,-26.86,1,3
16683.968,-0.058,-0.944,0.419,-38.36,-12.57,-26.83,1,3
16683.984,-0.062,-0.945,0.408,-36.41,-10.5,-28.6,1,3
16683.984,-0.071,-0.947,0.398,-35.04,-8.82,-30.21,1,3
16684.0,-0.066,-0.936,0.393,-35.95,-8.0,-30.64,1,3
16684.015,-0.072,-0.932,0.4,-36.93,-6.99,-30.82,1,3
16684.015,-0.073,-0.938,0.413,-37.66,-7.05,-30.27,1,3
16684.031,-0.057,-0.946,0.413,-38.21,-8.24,-29.66,1,3
16684.046,-0.042,-0.949,0.403,-36.93,-8.79,-30.76,1,3
16684.046,-0.04,-0.935,0.395,-34.88,-8.94,-32.17,1,3
16684.062,-0.038,-0.926,0.386,-33.63,-9.13,-32.26,1,3
16684.078,-0.034,-0.922,0.37,-34.18,-9.34,-30.85,1,3
16684.078,-0.028,-0.928,0.36,-35.46,-9.09,-28.02,1,3
16684.093,-0.02,-0.945,0.358,-37.75,-9.19,-24.69,1,3
16684.093,-0.017,-0.971,0.367,-39.89,-9.55,-22.49,1,3
16684.109,-0.025,-0.997,0.362,-39.95,-9.64,-21.73,1,3
16684.125,-0.019,-1.009,0.351,-39.77,-9.83,-21.94,1,3
16684.125,0.001,-1.008,0.338,-40.28,-9.64,-22.83,1,3
16684.14,0.012,-1.012,0.338,-40.53,-8.85,-23.38,1,3
16684.156,0.042,-1.013,0.339,-40.38,-8.58,-23.96,1,3
16684.156,0.049,-1.011,0.345,-40.35,-7.97,-25.88,1,3
16684.171,0.024,-1.003,0.357,-40.62,-7.84,-27.53,1,3
16684.187,0.003,-0.996,0.359,-41.96,-9.7,-27.99,1,3
16684.187,0.012,-0.99,0.337,-42.97,-12.51,-28.08,1,3
16684.203,0.016,-0.978,0.313,-42.15,-13.73,-27.44,1,3
16684.218,0.038,-0.962,0.294,-42.27,-13.37,-25.97,1,3
16684.218,0.048,-0.949,0.281,-43.15,-11.93,-24.08,1,3
16684.234,0.054,-0.949,0.278,-45.17,-10.68,-21.79,1,3
16684.234,0.053,-0.961,0.282,-46.88,-9.83,-20.17,1,3
16684.25,0.043,-0.972,0.287,-47.3,-9.74,-19.68,1,3
16684.265,0.04,-0.975,0.276,-46.63,-10.41,-20.2,1,3
16684.265,0.045,-0.958,0.256,-45.32,-11.05,-20.94,1,3
16684.281,0.058,-0.948,0.239,-44.34,-11.38,-21.49,1,3
16684.296,0.07,-0.94,0.224,-43.67,-10.99,-20.72,1,3
16684.296,0.07,-0.94,0.218,-44.1,-10.65,-18.56,1,3
16684.312,0.075,-0.968,0.218,-44.92,-11.23,-16.42,1,3
16684.312,0.078,-1.004,0.224,-43.92,-12.24,-14.77,1,3
16684.328,0.084,-1.024,0.211,-41.81,-13.64,-13.89,1,3
16684.343,0.093,-1.034,0.178,-41.47,-15.93,-14.71,1,3
16684.343,0.1,-1.027,0.129,-42.57,-17.43,-16.54,1,3
16684.359,0.096,-1.012,0.1,-44.89,-16.88,-17.85,1,3
16684.375,0.088,-1.008,0.09,-46.97,-14.62,-18.52,1,3
16684.39,0.083,-0.995,0.096,-47.76,-11.26,-19.47,1,3
16684.39,0.089,-1.004,0.116,-46.27,-8.0,-20.26,1,3
16684.406,0.091,-0.995,0.136,-45.78,-4.94,-19.93,1,3
16684.406,0.095,-0.983,0.164,-47.0,-3.81,-20.48,1,3
16684.421,0.085,-0.99,0.183,-47.09,-5.22,-21.39,1,3
16684.437,0.093,-0.978,0.17,-46.11,-8.18,-21.64,1,3
16684.437,0.113,-0.98,0.144,-44.74,-10.62,-20.84,1,3
16684.453,0.124,-0.976,0.115,-43.67,-11.47,-19.68,1,3
16684.468,0.12,-0.974,0.098,-43.0,-11.6,-19.2,1,3
16684.468,0.128,-0.973,0.075,-42.33,-11.72,-19.53,1,3
16684.484,0.127,-0.965,0.055,-42.57,-10.86,-18.86,1,3
16684.484,0.126,-0.969,0.056,-44.56,-9.74,-16.63,1,3
16684.5,0.116,-0.98,0.057,-46.33,-8.88,-14.28,1,3
16684.515,0.119,-0.987,0.058,-46.97,-8.7,-12.57,1,3
16684.515,0.123,-0.991,0.065,-47.12,-8.48,-11.05,1,3
16684.531,0.121,-0.99,0.072,-47.18,-8.91,-10.16,1,3
16684.546,0.12,-1.003,0.069,-46.42,-10.38,-9.22,1,3
16684.546,0.12,-1.012,0.063,-45.44,-11.75,-9.83,1,3
16684.562,0.149,-1.042,0.047,-42.09,-13.58,-11.81,1,3
16684.578,0.168,-1.049,0.024,-38.15,-13.21,-12.97,1,3
16684.578,0.179,-1.018,0.008,-37.78,-11.41,-22.71,1,3
16684.593,0.183,-0.997,0.006,-37.45,-10.65,-27.22,1,3
16684.609,0.178,-0.975,0.019,-34.52,-10.28,-28.72,1,3
16684.609,0.16,-0.941,0.019,-33.3,-11.6,-26.95,1,3
16684.625,0.163,-0.919,0.001,-34.06,-13.12,-23.47,1,3
16684.625,0.184,-0.912,-0.012,-34.73,-13.55,-21.0,1,3
16684.64,0.195,-0.895,-0.016,-34.97,-13.12,-20.57,1,3
16684.656,0.201,-0.884,-0.013,-34.03,-12.6,-21.12,1,3
16684.656,0.193,-0.88,-0.016,-33.6,-13.18,-21.64,1,3
16684.671,0.203,-0.888,-0.01,-33.39,-14.83,-20.02,1,3
16684.687,0.222,-0.886,-0.02,-30.52,-16.66,-18.28,1,3
16684.687,0.236,-0.907,-0.048,-27.62,-18.22,-17.06,1,3
16684.703,0.231,-0.904,-0.075,-27.95,-18.74,-15.87,1,3
16684.718,0.234,-0.901,-0.082,-30.37,-18.95,-14.83,1,3
16684.718,0.232,-0.92,-0.089,-32.44,-18.89,-14.04,1,3
16684.734,0.228,-0.926,-0.099,-33.02,-18.01,-12.79,1,3
16684.734,0.233,-0.937,-0.099,-31.28,-17.55,-12.54,1,3
16684.75,0.241,-0.954,-0.099,-28.78,-17.21,-10.83,1,3
16684.765,0.246,-0.954,-0.094,-28.63,-17.49,-10.28,1,3
16684.765,0.244,-0.982,-0.103,-29.08,-18.77,-10.93,1,3
16684.781,0.247,-0.99,-0.112,-30.79,-20.11,-11.96,1,3
16684.796,0.252,-0.99,-0.12,-32.38,-21.33,-14.44,1,3
16684.796,0.253,-1.009,-0.134,-31.89,-22.34,-17.52,1,3
16684.812,0.255,-0.995,-0.148,-29.97,-22.28,-20.54,1,3
16684.812,0.253,-0.972,-0.162,-27.71,-21.76,-23.99,1,3
16684.828,0.239,-0.956,-0.183,-26.58,-21.58,-25.85,1,3
16684.843,0.231,-0.93,-0.197,-28.66,-21.24,-25.15,1,3
16684.843,0.225,-0.913,-0.203,-31.25,-20.48,-22.86,1,3
16684.859,0.217,-0.909,-0.207,-33.23,-19.59,-19.14,1,3
16684.875,0.222,-0.901,-0.212,-35.22,-18.71,-15.08,1,3
16684.89,0.233,-0.907,-0.211,-35.92,-18.07,-12.91,1,3
16684.89,0.235,-0.915,-0.211,-35.34,-17.52,-11.75,1,3
16684.906,0.235,-0.918,-0.212,-33.97,-17.46,-11.84,1,3
16684.906,0.227,-0.922,-0.227,-31.98,-17.58,-12.51,1,3
16684.921,0.228,-0.917,-0.24,-32.2,-17.55,-12.45,1,3
16684.937,0.237,-0.924,-0.251,-33.23,-17.7,-11.96,1,3
16684.937,0.246,-0.931,-0.257,-34.52,-17.06,-11.05,1,3
16684.953,0.248,-0.932,-0.26,-34.7,-16.11,-10.68,1,3
16684.968,0.25,-0.936,-0.262,-34.21,-15.78,-10.41,1,3
16684.968,0.245,-0.927,-0.255,-34.39,-15.35,-10.35,1,3
16684.984,0.234,-0.925,-0.257,-34.12,-15.69,-10.56,1,3
16684.984,0.242,-0.92,-0.267,-33.69,-16.51,-10.41,1,3
16685.0,0.253,-0.911,-0.281,-33.14,-16.6,-10.38,1,3
16685.015,0.269,-0.908,-0.295,-33.33,-16.21,-10.19,1,3
16685.015,0.286,-0.899,-0.299,-34.09,-15.17,-10.22,1,3
16685.031,0.284,-0.893,-0.297,-34.76,-13.82,-10.04,1,3
16685.046,0.275,-0.884,-0.287,-35.65,-13.09,-9.16,1,3
16685.046,0.266,-0.884,-0.282,-36.71,-13.49,-8.18,1,3
16685.062,0.27,-0.887,-0.275,-37.78,-14.71,-8.24,1,3
16685.062,0.277,-0.887,-0.271,-36.96,-15.84,-9.61,1,3
16685.078,0.292,-0.877,-0.269,-34.42,-16.36,-11.35,1,3
16685.093,0.311,-0.856,-0.272,-31.04,-17.18,-14.59,1,3
16685.093,0.317,-0.847,-0.274,-27.8,-18.59,-17.67,1,3
16685.109,0.3,-0.825,-0.286,-25.61,-20.08,-18.92,1,3
16685.125,0.286,-0.82,-0.303,-25.33,-22.25,-18.16,1,3
16685.125,0.288,-0.827,-0.323,-26.03,-23.99,-16.33,1,3
16685.14,0.296,-0.836,-0.348,-27.01,-24.54,-13.28,1,3
16685.156,0.311,-0.841,-0.36,-28.08,-24.11,-11.41,1,3
16685.156,0.314,-0.851,-0.364,-28.23,-23.01,-11.17,1,3
16685.171,0.315,-0.859,-0.361,-28.84,-21.85,-11.02,1,3
16685.187,0.318,-0.857,-0.359,-28.75,-21.36,-12.33,1,3
16685.187,0.309,-0.866,-0.355,-27.89,-21.24,-14.62,1,3
16685.203,0.306,-0.859,-0.358,-27.65,-21.73,-16.63,1,3
16685.203,0.302,-0.85,-0.359,-26.8,-22.55,-18.52,1,3
16685.218,0.302,-0.853,-0.369,-25.51,-23.71,-20.14,1,3
16685.234,0.303,-0.844,-0.382,-24.93,-24.66,-20.81,1,3
16685.25,0.29,-0.831,-0.4,-24.99,-25.57,-21.39,1,3
16685.25,0.287,-0.817,-0.412,-25.33,-25.94,-21.73,1,3
16685.265,0.287,-0.789,-0.43,-24.99,-25.48,-21.88,1,3
16685.265,0.289,-0.758,-0.434,-24.41,-24.63,-21.33,1,3
16685.281,0.29,-0.727,-0.432,-23.29,-23.65,-20.2,1,3
16685.296,0.289,-0.721,-0.428,-22.71,-23.44,-16.79,1,3
16685.296,0.284,-0.735,-0.426,-23.01,-23.93,-11.72,1,3
16685.312,0.28,-0.76,-0.437,-24.23,-24.99,-7.26,1,3
16685.328,0.286,-0.793,-0.445,-25.54,-26.4,-5.07,1,3
16685.328,0.283,-0.82,-0.451,-25.12,-26.92,-5.46,1,3
16685.343,0.288,-0.825,-0.463,-23.07,-27.01,-8.27,1,3
16685.343,0.288,-0.818,-0.47,-20.81,-26.67,-12.39,1,3
16685.359,0.281,-0.803,-0.48,-18.07,-26.09,-17.49,1,3
16685.375,0.268,-0.8,-0.485,-15.35,-25.42,-20.02,1,3
16685.375,0.264,-0.785,-0.487,-14.07,-25.3,-20.63,1,3
16685.39,0.258,-0.795,-0.488,-13.43,-26.0,-20.66,1,3
16685.406,0.252,-0.803,-0.492,-13.95,-26.64,-19.53,1,3
16685.406,0.248,-0.795,-0.504,-14.71,-26.55,-18.19,1,3
16685.421,0.25,-0.788,-0.512,-15.96,-26.4,-17.03,1,3
16685.437,0.251,-0.78,-0.515,-17.61,-25.79,-15.72,1,3
16685.437,0.255,-0.773,-0.518,-17.82,-24.96,-14.59,1,3
16685.453,0.245,-0.756,-0.532,-17.82,-24.63,-13.06,1,3
16685.453,0.246,-0.746,-0.545,-18.89,-24.96,-10.99,1,3
16685.468,0.238,-0.749,-0.555,-19.78,-24.78,-8.24,1,3
16685.484,0.223,-0.748,-0.56,-21.06,-23.59,-4.85,1,3
16685.5,0.229,-0.753,-0.559,-21.91,-22.31,-3.63,1,3
16685.5,0.246,-0.759,-0.554,-20.48,-21.03,-5.58,1,3
16685.515,0.267,-0.768,-0.546,-17.03,-19.75,-8.76,1,3
16685.515,0.277,-0.775,-0.523,-12.51,-19.1,-11.69,1,3
16685.531,0.243,-0.798,-0.498,-8.64,-19.56,-12.05,1,3
16685.546,0.216,-0.803,-0.491,-7.78,-22.34,-10.93,1,3
16685.546,0.221,-0.813,-0.514,-7.75,-26.43,-10.13,1,3
16685.562,0.236,-0.821,-0.554,-9.64,-28.69,-9.7,1,3
16685.578,0.263,-0.834,-0.585,-13.03,-26.18,-11.69,1,3
16685.578,0.274,-0.822,-0.616,-15.2,-22.68,-12.42,1,3
16685.593,0.27,-0.808,-0.62,-17.06,-19.75,-12.76,1,3
16685.593,0.245,-0.813,-0.554,-15.56,-18.8,-11.66,1,3
16685.609,0.242,-0.819,-0.53,-12.39,-20.26,-10.74,1,3
16685.625,0.252,-0.833,-0.538,-9.4,-22.68,-11.05,1,3
16685.64,0.261,-0.831,-0.567,-8.73,-24.32,-12.45,1,3
16685.64,0.254,-0.833,-0.599,-9.52,-24.9,-14.44,1,3
16685.656,0.26,-0.828,-0.627,-11.93,-23.59,-14.83,1,3
16685.656,0.265,-0.813,-0.636,-15.99,-20.6,-14.34,1,3
16685.671,0.265,-0.822,-0.631,-19.59,-16.97,-14.4,1,3
16685.687,0.266,-0.825,-0.599,-20.97,-13.73,-15.05,1,3
16685.687,0.268,-0.821,-0.566,-19.81,-12.63,-16.36,1,3
16685.703,0.264,-0.81,-0.531,-19.04,-13.21,-18.16,1,3
16685.718,0.261,-0.802,-0.519,-17.3,-15.5,-19.84,1,3
16685.718,0.271,-0.778,-0.517,-16.6,-18.74,-20.72,1,3
16685.734,0.277,-0.771,-0.524,-15.69,-21.64,-21.79,1,3
16685.734,0.28,-0.755,-0.541,-13.86,-24.02,-22.4,1,3
16685.75,0.282,-0.733,-0.578,-12.21,-25.67,-22.8,1,3
16685.765,0.278,-0.71,-0.618,-12.24,-26.4,-22.43,1,3
16685.765,0.279,-0.688,-0.648,-13.7,-25.54,-21.3,1,3
16685.781,0.288,-0.669,-0.663,-15.96,-23.26,-18.86,1,3
16685.796,0.296,-0.669,-0.651,-18.34,-20.2,-16.05,1,3
16685.796,0.292,-0.681,-0.63,-18.95,-17.79,-13.4,1,3
16685.812,0.277,-0.704,-0.607,-18.83,-17.09,-10.62,1,3
16685.812,0.259,-0.719,-0.588,-19.53,-18.46,-8.67,1,3
16685.828,0.232,-0.751,-0.575,-20.42,-21.09,-7.05,1,3
16685.843,0.223,-0.774,-0.601,-20.66,-24.29,-5.58,1,3
16685.843,0.245,-0.79,-0.637,-20.69,-26.58,-6.23,1,3
16685.859,0.267,-0.793,-0.674,-20.02,-26.37,-9.09,1,3
16685.875,0.268,-0.775,-0.694,-19.04,-23.99,-12.36,1,3
16685.89,0.257,-0.741,-0.703,-19.07,-21.45,-15.44,1,3
16685.89,0.242,-0.702,-0.686,-20.33,-19.23,-17.15,1,3
16685.906,0.223,-0.679,-0.654,-20.2,-18.16,-16.57,1,3
16685.906,0.217,-0.668,-0.652,-19.38,-18.92,-13.43,1,3
16685.921,0.218,-0.672,-0.657,-19.81,-20.05,-8.94,1,3
16685.937,0.215,-0.683,-0.674,-21.06,-21.0,-5.77,1,3
16685.937,0.223,-0.693,-0.694,-22.83,-21.55,-4.0,1,3
16685.953,0.235,-0.694,-0.717,-24.14,-20.51,-3.78,1,3
16685.968,0.253,-0.681,-0.722,-24.51,-18.19,-4.64,1,3
16685.968,0.257,-0.667,-0.713,-24.29,-15.32,-5.95,1,3
16685.984,0.24,-0.654,-0.697,-24.11,-13.18,-6.07,1,3
16685.984,0.227,-0.637,-0.663,-24.87,-12.3,-5.55,1,3
16686.0,0.221,-0.649,-0.635,-23.62,-13.95,-4.36,1,3
16686.015,0.212,-0.633,-0.648,-22.77,-17.15,-0.98,1,3
16686.015,0.226,-0.624,-0.672,-24.69,-20.2,1.28,1,3
16686.031,0.211,-0.627,-0.694,-26.03,-21.58,2.32,1,3
16686.046,0.202,-0.615,-0.73,-26.4,-21.33,3.54,1,3
16686.046,0.218,-0.596,-0.759,-26.89,-19.68,3.94,1,3
16686.062,0.238,-0.599,-0.779,-26.52,-17.18,3.05,1,3
16686.078,0.241,-0.609,-0.772,-25.88,-13.64,2.41,1,3
16686.078,0.231,-0.618,-0.735,-25.39,-10.68,0.95,1,3
16686.093,0.206,-0.633,-0.689,-23.1,-10.16,-1.74,1,3
16686.093,0.193,-0.65,-0.663,-19.29,-12.67,-4.21,1,3
16686.125,0.186,-0.654,-0.681,-16.36,-16.24,-5.89,1,3
16686.125,0.199,-0.657,-0.724,-17.33,-18.95,-6.84,1,3
16686.125,0.23,-0.659,-0.754,-19.84,-19.1,-8.24,1,3
16686.14,0.247,-0.662,-0.768,-20.6,-16.36,-10.35,1,3
16686.156,0.242,-0.646,-0.744,-19.35,-13.21,-13.12,1,3
16686.156,0.226,-0.637,-0.711,-16.63,-11.69,-15.78,1,3
16686.171,0.215,-0.628,-0.694,-14.98,-12.27,-16.94,1,3
16686.187,0.219,-0.609,-0.694,-15.23,-14.4,-17.79,1,3
16686.187,0.227,-0.589,-0.715,-15.78,-16.88,-18.4,1,3
16686.203,0.227,-0.554,-0.731,-16.63,-18.16,-18.04,1,3
16686.203,0.222,-0.531,-0.749,-16.24,-18.62,-16.36,1,3
16686.218,0.228,-0.512,-0.747,-15.81,-18.86,-13.4,1,3
16686.234,0.228,-0.517,-0.73,-14.47,-18.83,-9.98,1,3
16686.234,0.227,-0.553,-0.717,-12.7,-19.07,-6.01,1,3
16686.25,0.216,-0.589,-0.703,-12.15,-20.17,-3.51,1,3
16686.265,0.197,-0.637,-0.717,-12.02,-22.52,-3.3,1,3
16686.265,0.204,-0.664,-0.738,-13.55,-24.81,-6.9,1,3
16686.281,0.222,-0.685,-0.758,-12.88,-25.48,-14.01,1,3
16686.296,0.219,-0.676,-0.771,-10.28,-25.06,-20.97,1,3
16686.296,0.223,-0.629,-0.783,-9.03,-24.45,-27.56,1,3
16686.312,0.22,-0.595,-0.779,-8.36,-23.32,-34.0,1,3
16686.328,0.213,-0.556,-0.776,-6.9,-21.73,-38.54,1,3
16686.328,0.212,-0.508,-0.767,-5.86,-20.36,-40.35,1,3
16686.343,0.207,-0.475,-0.749,-4.21,-20.39,-40.16,1,3
16686.343,0.191,-0.466,-0.74,-1.83,-21.06,-37.51,1,3
16686.359,0.182,-0.468,-0.734,-1.59,-22.34,-33.05,1,3
16686.375,0.182,-0.492,-0.74,-0.24,-24.9,-28.81,1,3
16686.375,0.185,-0.53,-0.744,1.37,-27.5,-26.73,1,3
16686.39,0.182,-0.559,-0.77,2.99,-28.87,-27.92,1,3
16686.406,0.171,-0.564,-0.815,3.78,-29.21,-30.73,1,3
16686.406,0.181,-0.561,-0.861,3.75,-29.76,-34.24,1,3
16686.421,0.19,-0.544,-0.902,3.85,-28.32,-36.84,1,3
16686.437,0.187,-0.519,-0.906,2.78,-23.8,-37.48,1,3
16686.437,0.172,-0.501,-0.878,-0.06,-18.83,-35.98,1,3
16686.453,0.138,-0.495,-0.825,-1.43,-15.84,-33.66,1,3
16686.453,0.121,-0.501,-0.784,-0.27,-15.81,-29.76,1,3
16686.468,0.154,-0.509,-0.777,0.49,-17.88,-26.03,1,3
16686.484,0.17,-0.527,-0.802,1.56,-20.17,-23.87,1,3
16686.484,0.191,-0.539,-0.826,1.74,-21.64,-22.8,1,3
16686.5,0.214,-0.558,-0.842,1.25,-21.61,-23.07,1,3
16686.515,0.21,-0.576,-0.853,1.25,-20.94,-23.9,1,3
16686.515,0.211,-0.571,-0.855,1.62,-19.78,-25.42,1,3
16686.531,0.222,-0.562,-0.853,1.56,-17.4,-28.17,1,3
16686.546,0.215,-0.544,-0.843,1.1,-14.86,-30.79,1,3
16686.546,0.209,-0.519,-0.825,0.43,-11.84,-33.48,1,3
16686.562,0.195,-0.478,-0.801,0.73,-11.38,-30.73,1,3
16686.562,0.189,-0.459,-0.775,0.73,-12.27,-24.05,1,3
16686.578,0.202,-0.451,-0.756,-0.12,-14.8,-17.12,1,3
16686.593,0.251,-0.505,-0.743,-0.67,-17.7,-12.21,1,3
16686.593,0.256,-0.52,-0.739,-0.61,-19.93,-10.28,1,3
16686.609,0.235,-0.516,-0.745,0.49,-21.67,-10.68,1,3
16686.625,0.227,-0.51,-0.758,0.49,-24.05,-10.07,1,3
16686.625,0.24,-0.498,-0.78,-0.43,-25.76,-8.27,1,3
16686.64,0.241,-0.509,-0.808,-0.73,-26.34,-6.87,1,3
16686.656,0.253,-0.518,-0.822,-0.43,-26.0,-6.96,1,3
16686.656,0.251,-0.53,-0.828,1.92,-24.54,-8.55,1,3
16686.671,0.239,-0.53,-0.789,3.91,-22.49,-10.19,1,3
16686.671,0.203,-0.53,-0.747,6.16,-21.88,-11.08,1,3
16686.687,0.186,-0.539,-0.73,5.89,-24.23,-10.47,1,3
16686.703,0.218,-0.546,-0.746,5.22,-27.53,-11.35,1,3
16686.718,0.237,-0.568,-0.778,5.13,-29.27,-13.46,1,3
16686.718,0.244,-0.575,-0.823,5.19,-29.42,-16.57,1,3
16686.734,0.229,-0.581,-0.847,5.52,-28.05,-20.57,1,3
16686.734,0.206,-0.579,-0.862,4.61,-25.27,-23.87,1,3
16686.75,0.191,-0.572,-0.839,3.63,-21.94,-26.34,1,3
16686.765,0.169,-0.574,-0.81,3.97,-19.35,-28.17,1,3
16686.765,0.142,-0.555,-0.778,4.46,-18.56,-28.9,1,3
16686.781,0.133,-0.56,-0.751,6.13,-21.06,-29.82,1,3
16686.796,0.116,-0.572,-0.767,8.24,-25.21,-29.76,1,3
16686.796,0.103,-0.571,-0.809,11.05,-30.03,-31.13,1,3
16686.812,0.103,-0.575,-0.876,13.98,-33.42,-33.48,1,3
16686.812,0.099,-0.548,-0.942,14.1,-32.84,-34.39,1,3
16686.828,0.086,-0.521,-0.989,11.87,-28.84,-33.88,1,3
16686.843,0.083,-0.498,-1.0,8.91,-23.47,-31.5,1,3
16686.843,0.084,-0.467,-0.981,5.37,-17.82,-27.62,1,3
