timestamp,ax,ay,az,gx,gy,gz,orient_label,motion_label
16623.953,0.202,-0.443,-0.876,6.44,2.75,-5.1,1,3
16623.953,0.192,-0.434,-0.879,5.71,3.23,-4.06,1,3
16623.968,0.204,-0.443,-0.879,4.7,3.05,-2.75,1,3
16623.984,0.204,-0.451,-0.87,4.58,3.48,-1.89,1,3
16623.984,0.201,-0.459,-0.865,4.79,4.27,-1.28,1,3
16624.0,0.198,-0.469,-0.859,4.73,3.94,-1.46,1,3
16624.015,0.2,-0.48,-0.852,4.73,2.87,-2.72,1,3
16624.015,0.192,-0.474,-0.851,5.22,1.95,-4.15,1,3
16624.031,0.189,-0.472,-0.865,6.32,0.89,-5.16,1,3
16624.031,0.21,-0.469,-0.877,6.5,0.0,-5.95,1,3
16624.046,0.215,-0.468,-0.88,6.84,0.18,-7.2,1,3
16624.062,0.209,-0.46,-0.876,7.63,1.01,-7.72,1,3
16624.062,0.196,-0.445,-0.874,7.05,1.89,-6.32,1,3
16624.078,0.18,-0.448,-0.874,5.16,2.23,-4.15,1,3
16624.093,0.179,-0.448,-0.866,3.14,2.47,-1.25,1,3
16624.093,0.181,-0.448,-0.87,1.92,2.87,2.23,1,3
16624.109,0.203,-0.467,-0.874,0.37,2.75,4.82,1,3
16624.125,0.221,-0.501,-0.855,1.25,3.81,3.39,1,3
16624.14,0.208,-0.51,-0.85,2.66,3.36,0.79,1,3
16624.156,0.206,-0.51,-0.844,3.54,2.04,-1.71,1,3
16624.156,0.193,-0.504,-0.846,4.58,0.85,-4.06,1,3
16624.171,0.185,-0.497,-0.852,4.94,0.27,-5.58,1,3
16624.171,0.191,-0.494,-0.859,4.73,0.06,-6.65,1,3
16624.187,0.193,-0.493,-0.866,4.73,0.64,-7.78,1,3
16624.203,0.198,-0.483,-0.87,5.1,1.37,-8.76,1,3
16624.203,0.21,-0.472,-0.879,5.01,2.08,-9.28,1,3
16624.218,0.219,-0.461,-0.88,4.06,2.75,-9.64,1,3
16624.234,0.227,-0.455,-0.872,3.51,3.36,-9.37,1,3
16624.234,0.225,-0.436,-0.869,3.45,4.18,-8.15,1,3
16624.25,0.216,-0.428,-0.868,3.17,4.7,-6.1,1,3
16624.25,0.213,-0.429,-0.858,1.74,4.85,-3.36,1,3
16624.265,0.215,-0.44,-0.853,0.52,4.67,-1.1,1,3
16624.281,0.207,-0.454,-0.852,0.31,4.43,0.21,1,3
16624.296,0.218,-0.467,-0.862,1.04,2.47,0.37,1,3
16624.312,0.217,-0.469,-0.875,1.92,2.04,-1.13,1,3
16624.312,0.21,-0.468,-0.887,3.05,2.11,-2.53,1,3
16624.328,0.213,-0.457,-0.893,3.6,2.59,-3.11,1,3
16624.343,0.213,-0.454,-0.895,3.42,3.91,-2.66,1,3
16624.343,0.214,-0.456,-0.886,2.66,5.01,-2.08,1,3
16624.359,0.212,-0.456,-0.865,2.56,5.62,-2.38,1,3
16624.375,0.2,-0.454,-0.853,3.88,5.52,-3.3,1,3
16624.375,0.201,-0.447,-0.85,4.91,4.73,-4.21,1,3
16624.39,0.2,-0.441,-0.85,5.46,3.69,-5.28,1,3
16624.39,0.201,-0.441,-0.853,6.1,2.75,-6.59,1,3
16624.406,0.191,-0.445,-0.854,7.72,1.95,-8.76,1,3
16624.421,0.164,-0.446,-0.865,10.13,1.16,-11.78,1,3
16624.421,0.135,-0.451,-0.895,13.15,-0.43,-15.99,1,3
16624.437,0.116,-0.44,-0.926,16.51,-2.14,-21.64,1,3
16624.453,0.106,-0.388,-0.968,20.66,-3.08,-28.32,1,3
16624.468,0.1,-0.254,-1.045,24.08,-1.16,-32.87,1,3
16624.484,0.116,-0.205,-1.063,23.87,3.57,-29.91,1,3
16624.484,0.089,-0.165,-1.072,23.8,10.86,-25.7,1,3
16624.5,0.059,-0.144,-1.055,24.41,17.73,-21.55,1,3
16624.515,0.072,-0.137,-1.012,27.74,22.92,-17.37,1,3
16624.515,0.087,-0.128,-0.964,32.14,27.77,-11.63,1,3
16624.531,0.084,-0.124,-0.916,34.27,31.25,-5.8,1,3
16624.531,0.088,-0.153,-0.862,35.98,31.53,-2.2,1,3
16624.546,0.105,-0.176,-0.826,40.25,28.9,-1.65,1,3
16624.562,0.126,-0.185,-0.812,47.94,24.35,-3.97,1,3
16624.562,0.143,-0.176,-0.795,58.17,19.53,-7.48,1,3
16624.578,0.146,-0.167,-0.787,75.35,13.89,-8.64,1,3
16624.593,0.138,-0.148,-0.765,80.6,12.3,-5.28,1,3
16624.593,0.125,-0.151,-0.746,82.86,10.83,-0.46,1,3
16624.609,0.103,-0.179,-0.73,84.44,9.46,4.55,1,3
16624.625,0.112,-0.264,-0.734,88.29,8.79,7.42,1,3
16624.64,0.157,-0.338,-0.687,100.38,11.35,4.49,1,3
16624.64,0.183,-0.374,-0.642,107.73,13.61,-2.26,1,3
16624.656,0.221,-0.418,-0.574,118.11,16.02,-12.18,1,3
16624.671,0.244,-0.45,-0.503,131.81,19.5,-25.27,1,3
16624.671,0.244,-0.475,-0.426,146.67,23.29,-40.68,1,3
16624.687,0.217,-0.49,-0.355,162.57,26.61,-57.07,1,3
16624.703,0.171,-0.488,-0.285,178.47,27.92,-71.63,1,3
16624.718,0.116,-0.476,-0.218,193.88,25.09,-81.94,1,3
16624.718,0.078,-0.441,-0.173,208.11,19.1,-88.08,1,3
16624.734,0.082,-0.404,-0.158,217.29,13.09,-91.25,1,3
16624.734,0.072,-0.401,-0.135,215.86,4.91,-86.21,1,3
16624.75,0.11,-0.395,-0.103,210.52,-2.01,-79.65,1,3
16624.75,0.165,-0.407,-0.103,207.43,-6.35,-75.32,1,3
16624.765,0.201,-0.427,-0.118,204.81,-4.39,-70.89,1,3
16624.781,0.243,-0.451,-0.11,203.31,2.32,-67.6,1,3
16624.781,0.28,-0.475,-0.102,206.21,13.7,-68.24,1,3
16624.796,0.238,-0.538,-0.135,212.62,28.17,-70.71,1,3
16624.812,0.236,-0.592,-0.143,217.75,39.95,-71.6,1,3
16624.828,0.279,-0.589,-0.174,224.31,51.12,-73.7,1,3
16624.828,0.282,-0.576,-0.168,233.34,62.14,-77.3,1,3
16624.843,0.279,-0.528,-0.097,238.2,71.26,-81.09,1,3
16624.843,0.275,-0.473,-0.02,240.76,79.78,-85.63,1,3
16624.859,0.25,-0.43,0.081,242.87,86.31,-88.02,1,3
16624.875,0.219,-0.415,0.187,245.22,88.84,-86.0,1,3
16624.875,0.187,-0.388,0.253,247.41,87.41,-81.45,1,3
16624.89,0.156,-0.36,0.27,248.88,79.59,-74.53,1,3
16624.89,0.185,-0.327,0.275,247.47,65.31,-64.73,1,3
16624.906,0.26,-0.296,0.269,241.58,50.26,-53.22,1,3
16624.921,0.342,-0.298,0.243,231.36,42.24,-42.3,1,3
16624.921,0.427,-0.309,0.223,218.45,41.54,-32.72,1,3
16624.937,0.497,-0.326,0.22,204.23,46.63,-24.38,1,3
16624.953,0.541,-0.342,0.226,187.48,55.85,-17.82,1,3
16624.968,0.56,-0.428,0.282,151.59,76.39,-5.07,1,3
16624.984,0.573,-0.458,0.346,139.96,84.63,1.59,1,3
16624.984,0.556,-0.495,0.397,134.4,90.15,6.26,1,3
16625.0,0.514,-0.542,0.445,132.15,90.24,7.93,1,3
16625.0,0.489,-0.587,0.505,133.09,82.86,6.74,1,3
16625.015,0.513,-0.648,0.532,140.08,71.35,3.6,1,3
16625.031,0.55,-0.682,0.534,149.3,58.84,-1.83,1,3
16625.031,0.631,-0.726,0.513,158.09,49.07,-8.58,1,3
16625.046,0.713,-0.774,0.491,164.86,47.0,-16.11,1,3
16625.062,0.767,-0.8,0.462,170.57,53.1,-25.94,1,3
16625.078,0.772,-0.798,0.483,177.95,63.84,-41.54,1,3
16625.078,0.774,-0.8,0.457,190.25,74.59,-62.69,1,3
16625.093,0.747,-0.776,0.474,208.08,89.54,-84.6,1,3
16625.093,0.698,-0.725,0.527,226.63,105.35,-103.82,1,3
16625.109,0.67,-0.652,0.611,237.83,118.87,-115.79,1,3
16625.125,0.643,-0.592,0.687,239.17,131.99,-118.08,1,3
16625.14,0.576,-0.478,0.815,204.78,150.61,-112.58,1,3
16625.14,0.554,-0.426,0.879,180.73,152.9,-116.98,1,3
16625.156,0.503,-0.382,0.925,162.97,152.23,-126.59,1,3
16625.171,0.463,-0.339,0.986,156.77,148.63,-137.94,1,3
16625.187,0.485,-0.304,1.039,160.68,146.61,-146.03,1,3
16625.187,0.496,-0.254,1.055,168.49,152.01,-151.1,1,3
16625.203,0.467,-0.198,1.047,177.74,162.85,-154.94,1,3
16625.218,0.454,-0.15,1.067,186.16,175.6,-157.17,1,3
16625.218,0.328,-0.106,1.128,193.91,187.32,-157.6,1,3
16625.234,0.206,-0.081,1.18,201.64,192.69,-153.39,1,3
16625.234,0.126,0.025,1.249,205.97,190.95,-147.34,1,3
16625.25,0.097,0.143,1.291,207.5,185.4,-142.95,1,3
16625.265,0.093,0.251,1.285,202.46,179.27,-141.88,1,3
16625.265,0.091,0.303,1.309,190.4,176.58,-140.29,1,3
16625.281,0.08,0.331,1.325,169.26,175.39,-133.88,1,3
16625.296,-0.001,0.394,1.372,124.55,189.83,-115.88,1,3
16625.312,-0.037,0.453,1.388,107.15,198.07,-111.0,1,3
16625.328,-0.11,0.519,1.41,94.45,208.08,-111.3,1,3
16625.328,-0.281,0.565,1.504,92.29,210.36,-113.32,1,3
16625.343,-0.457,0.528,1.532,107.36,201.45,-107.21,1,3
16625.359,-0.543,0.558,1.474,130.53,185.83,-94.73,1,3
16625.359,-0.559,0.632,1.415,151.74,166.69,-81.18,1,3
16625.375,-0.506,0.685,1.369,162.42,146.52,-71.72,1,3
16625.375,-0.439,0.696,1.313,157.35,131.14,-67.2,1,3
16625.39,-0.409,0.678,1.255,136.81,122.2,-64.3,1,3
16625.406,-0.409,0.639,1.214,105.26,115.51,-60.46,1,3
16625.406,-0.387,0.582,1.164,69.4,109.38,-57.68,1,3
16625.421,-0.372,0.495,1.116,36.62,106.63,-57.92,1,3
16625.421,-0.366,0.426,1.097,12.3,107.79,-62.93,1,3
16625.437,-0.42,0.365,1.118,1.68,110.08,-70.44,1,3
16625.453,-0.478,0.295,1.127,7.17,107.3,-76.08,1,3
16625.468,-0.589,0.299,1.118,65.25,86.49,-76.91,1,3
16625.484,-0.56,0.336,1.062,96.1,71.9,-73.24,1,3
16625.484,-0.501,0.399,1.009,116.61,60.79,-73.12,1,3
16625.5,-0.463,0.448,0.943,124.7,56.25,-78.55,1,3
16625.515,-0.471,0.474,0.912,117.31,56.83,-84.48,1,3
16625.515,-0.493,0.49,0.906,98.73,59.27,-88.2,1,3
16625.531,-0.526,0.493,0.917,76.66,62.44,-89.66,1,3
16625.531,-0.603,0.492,0.955,56.18,63.26,-89.51,1,3
16625.546,-0.661,0.46,0.965,40.07,57.71,-85.45,1,3
16625.562,-0.648,0.449,0.961,19.26,36.04,-78.92,1,3
16625.562,-0.603,0.428,0.946,19.23,26.8,-81.94,1,3
16625.578,-0.582,0.405,0.925,25.88,20.97,-85.45,1,3
16625.593,-0.567,0.391,0.898,35.55,20.57,-87.77,1,3
16625.609,-0.525,0.418,0.841,44.98,25.18,-90.52,1,3
16625.609,-0.551,0.462,0.833,52.13,32.65,-93.14,1,3
16625.625,-0.623,0.534,0.829,53.93,40.19,-91.74,1,3
16625.625,-0.68,0.586,0.827,45.99,43.58,-83.1,1,3
16625.64,-0.679,0.608,0.832,27.13,43.15,-68.88,1,3
16625.64,-0.655,0.605,0.838,2.56,42.02,-54.45,1,3
16625.656,-0.657,0.567,0.846,-21.0,41.2,-43.21,1,3
16625.671,-0.661,0.508,0.857,-40.77,39.25,-33.63,1,3
16625.687,-0.636,0.444,0.868,-54.35,36.16,-26.18,1,3
16625.687,-0.621,0.38,0.871,-59.11,34.85,-22.55,1,3
16625.703,-0.625,0.332,0.872,-55.94,35.68,-23.19,1,3
16625.703,-0.633,0.3,0.881,-47.18,36.59,-27.25,1,3
16625.718,-0.671,0.319,0.884,-34.85,37.17,-32.56,1,3
16625.734,-0.709,0.345,0.894,-25.54,33.14,-35.55,1,3
16625.734,-0.699,0.379,0.898,-22.74,23.93,-35.55,1,3
16625.75,-0.692,0.392,0.885,-23.04,14.71,-34.12,1,3
16625.765,-0.668,0.388,0.876,-26.15,5.43,-31.8,1,3
16625.765,-0.63,0.382,0.857,-29.57,-2.11,-30.15,1,3
16625.781,-0.616,0.374,0.835,-31.19,-6.04,-30.09,1,3
16625.796,-0.578,0.364,0.809,-35.1,-11.29,-31.95,1,3
16625.812,-0.565,0.356,0.794,-33.78,-11.78,-33.36,1,3
16625.812,-0.572,0.364,0.789,-31.56,-10.8,-33.81,1,3
16625.828,-0.58,0.382,0.795,-30.79,-10.71,-33.02,1,3
16625.843,-0.6,0.397,0.809,-31.92,-12.7,-31.8,1,3
16625.859,-0.63,0.412,0.805,-34.3,-16.05,-28.84,1,3
16625.859,-0.677,0.455,0.842,-41.32,-22.64,-23.8,1,3
16625.875,-0.669,0.445,0.853,-52.03,-33.57,-14.65,1,3
16625.875,-0.625,0.421,0.837,-62.72,-43.49,-2.9,1,3
16625.89,-0.553,0.417,0.808,-70.65,-47.76,6.9,1,3
16625.906,-0.509,0.387,0.782,-75.93,-45.69,15.11,1,3
16625.906,-0.484,0.359,0.762,-81.73,-46.33,22.43,1,3
16625.921,-0.404,0.359,0.786,-86.67,-42.51,27.5,1,3
16625.937,-0.424,0.331,0.805,-84.51,-28.41,33.17,1,3
16625.937,-0.467,0.33,0.834,-82.98,-24.38,40.01,1,3
16625.953,-0.46,0.343,0.88,-85.88,-26.67,46.66,1,3
16625.968,-0.47,0.314,0.917,-97.6,-41.41,57.62,1,3
16625.984,-0.407,0.259,0.926,-100.44,-47.82,61.68,1,3
16625.984,-0.363,0.218,0.883,-95.25,-49.78,62.41,1,3
16626.0,-0.328,0.178,0.837,-83.99,-44.56,62.14,1,3
16626.015,-0.329,0.158,0.815,-70.28,-33.81,61.13,1,3
16626.015,-0.348,0.149,0.813,-58.57,-22.89,58.84,1,3
16626.031,-0.376,0.138,0.838,-52.16,-15.08,55.12,1,3
16626.031,-0.403,0.116,0.856,-47.55,-9.95,50.54,1,3
16626.046,-0.435,0.122,0.867,-43.7,-6.81,46.91,1,3
16626.062,-0.433,0.114,0.864,-41.08,-4.58,44.71,1,3
16626.062,-0.409,0.094,0.841,-38.61,-1.56,42.12,1,3
16626.078,-0.398,0.097,0.805,-34.97,6.07,40.77,1,3
16626.093,-0.41,0.094,0.797,-31.16,16.21,40.5,1,3
16626.093,-0.438,0.086,0.819,-29.51,24.84,39.37,1,3
16626.109,-0.471,0.074,0.853,-27.77,31.07,37.72,1,3
16626.125,-0.505,0.066,0.89,-24.08,33.97,35.4,1,3
16626.125,-0.53,0.062,0.909,-20.11,32.5,31.68,1,3
16626.14,-0.537,0.058,0.919,-17.27,27.92,26.4,1,3
16626.14,-0.56,0.059,0.932,-14.07,20.94,20.23,1,3
16626.156,-0.577,0.053,0.936,-10.1,11.26,15.23,1,3
16626.171,-0.557,0.052,0.899,-4.88,1.65,12.12,1,3
16626.171,-0.519,0.058,0.847,0.73,-3.81,9.0,1,3
16626.187,-0.506,0.06,0.801,4.03,-4.27,5.25,1,3
16626.203,-0.498,0.056,0.774,4.36,-1.37,2.04,1,3
16626.203,-0.504,0.063,0.764,4.49,4.49,-0.34,1,3
16626.218,-0.551,0.076,0.775,4.85,11.84,-1.74,1,3
16626.234,-0.598,0.074,0.805,3.91,16.97,-0.61,1,3
16626.234,-0.615,0.081,0.813,1.71,18.37,1.53,1,3
16626.25,-0.611,0.098,0.812,-2.56,18.86,2.38,1,3
16626.265,-0.626,0.09,0.83,-8.76,19.81,2.47,1,3
16626.265,-0.633,0.073,0.846,-13.64,19.53,2.75,1,3
16626.281,-0.631,0.063,0.85,-14.98,19.56,3.3,1,3
16626.281,-0.651,0.062,0.842,-15.08,20.23,3.33,1,3
16626.296,-0.657,0.064,0.836,-17.61,19.56,4.39,1,3
16626.312,-0.64,0.087,0.831,-22.68,16.88,5.25,1,3
16626.312,-0.622,0.117,0.809,-30.27,14.5,6.07,1,3
16626.328,-0.617,0.132,0.793,-40.28,14.53,9.83,1,3
16626.343,-0.615,0.132,0.799,-49.9,15.59,16.21,1,3
16626.359,-0.617,0.123,0.81,-56.18,16.72,22.8,1,3
16626.359,-0.623,0.089,0.817,-56.73,17.15,27.77,1,3
16626.375,-0.61,0.051,0.829,-51.48,17.27,30.76,1,3
16626.375,-0.591,0.043,0.838,-43.12,16.85,31.19,1,3
16626.39,-0.579,0.029,0.843,-33.88,16.45,29.91,1,3
16626.406,-0.564,0.035,0.871,-28.69,15.44,28.02,1,3
16626.406,-0.561,0.037,0.897,-27.07,11.96,24.48,1,3
16626.421,-0.565,0.019,0.908,-25.09,6.99,20.14,1,3
16626.437,-0.567,0.005,0.916,-21.12,1.16,15.14,1,3
16626.437,-0.56,-0.005,0.909,-14.98,-4.61,9.52,1,3
16626.453,-0.542,0.005,0.881,-8.03,-8.91,4.3,1,3
16626.453,-0.534,0.03,0.858,-2.84,-10.83,-0.09,1,3
16626.468,-0.547,0.049,0.842,-0.24,-11.14,-1.95,1,3
16626.484,-0.55,0.062,0.84,-0.37,-10.96,-1.74,1,3
16626.484,-0.547,0.069,0.847,-2.96,-10.56,-0.73,1,3
16626.5,-0.568,0.069,0.859,-4.46,-10.28,0.61,1,3
16626.515,-0.594,0.054,0.859,-4.43,-11.84,3.17,1,3
16626.515,-0.602,0.04,0.83,-4.49,-14.89,5.95,1,3
16626.531,-0.585,0.022,0.791,-6.59,-17.91,7.32,1,3
16626.546,-0.569,-0.0,0.757,-9.86,-18.46,7.02,1,3
16626.546,-0.541,-0.027,0.734,-11.23,-10.53,3.78,1,3
16626.562,-0.507,-0.036,0.718,-9.98,-2.96,-0.85,1,3
16626.562,-0.491,-0.028,0.724,-7.78,3.85,-6.38,1,3
16626.578,-0.514,-0.01,0.772,-4.73,8.18,-11.02,1,3
16626.593,-0.512,0.005,0.788,-2.5,9.89,-14.31,1,3
16626.593,-0.516,0.013,0.794,-1.46,11.05,-16.66,1,3
16626.609,-0.546,0.036,0.819,-2.01,10.77,-17.82,1,3
16626.625,-0.559,0.053,0.838,-4.3,7.63,-16.66,1,3
16626.625,-0.559,0.072,0.841,-8.42,3.54,-13.55,1,3
16626.64,-0.557,0.071,0.831,-12.36,-0.52,-9.92,1,3
16626.656,-0.528,0.055,0.809,-15.75,-3.11,-6.87,1,3
16626.656,-0.501,0.043,0.788,-17.4,-2.44,-4.97,1,3
16626.671,-0.484,0.032,0.774,-18.04,0.85,-4.36,1,3
16626.671,-0.482,0.028,0.777,-18.07,6.1,-4.88,1,3
16626.687,-0.504,0.027,0.791,-17.73,11.38,-6.38,1,3
16626.703,-0.526,0.023,0.812,-17.4,15.17,-7.87,1,3
16626.718,-0.557,0.023,0.836,-15.2,17.55,-8.85,1,3
16626.718,-0.582,0.031,0.849,-12.05,18.16,-8.64,1,3
16626.734,-0.593,0.054,0.86,-11.08,16.91,-7.72,1,3
16626.734,-0.598,0.066,0.883,-13.06,13.31,-6.9,1,3
16626.75,-0.585,0.062,0.865,-15.05,8.27,-5.86,1,3
16626.765,-0.563,0.058,0.864,-15.99,4.55,-4.58,1,3
16626.765,-0.541,0.056,0.845,-15.23,1.92,-3.78,1,3
16626.781,-0.517,0.051,0.82,-13.52,0.43,-3.51,1,3
16626.781,-0.499,0.052,0.813,-10.99,-0.06,-3.91,1,3
16626.796,-0.495,0.051,0.814,-7.17,-0.31,-4.97,1,3
16626.812,-0.501,0.053,0.817,-2.53,-0.67,-5.58,1,3
16626.812,-0.509,0.05,0.822,2.14,-1.89,-5.58,1,3
16626.828,-0.516,0.043,0.826,6.2,-4.27,-5.25,1,3
16626.843,-0.523,0.036,0.822,9.89,-6.87,-4.24,1,3
16626.843,-0.534,0.029,0.817,11.96,-9.4,-2.44,1,3
16626.859,-0.543,0.022,0.814,12.54,-10.96,-0.49,1,3
16626.875,-0.559,0.026,0.817,12.21,-11.57,2.01,1,3
16626.875,-0.579,0.022,0.826,11.51,-13.37,4.24,1,3
16626.89,-0.593,0.009,0.83,11.57,-15.53,5.4,1,3
16626.89,-0.597,-0.001,0.833,13.12,-16.54,5.46,1,3
16626.906,-0.622,-0.014,0.831,16.75,-16.45,4.76,1,3
16626.921,-0.652,-0.013,0.835,19.14,-17.64,4.15,1,3
16626.937,-0.667,-0.023,0.828,20.39,-20.08,3.78,1,3
16626.937,-0.667,-0.029,0.809,21.09,-22.61,2.99,1,3
16626.953,-0.665,-0.044,0.785,22.77,-23.74,1.5,1,3
16626.953,-0.665,-0.048,0.776,25.03,-23.07,0.03,1,3
16626.968,-0.659,-0.047,0.758,27.53,-21.76,-1.16,1,3
16626.984,-0.646,-0.04,0.745,29.11,-20.05,-2.41,1,3
16626.984,-0.635,-0.033,0.74,30.27,-17.06,-4.12,1,3
16627.0,-0.645,-0.021,0.739,30.88,-13.58,-6.04,1,3
16627.015,-0.662,-0.002,0.752,30.55,-10.86,-7.08,1,3
16627.015,-0.664,0.007,0.764,30.21,-9.28,-6.65,1,3
16627.031,-0.637,0.016,0.764,29.79,-8.67,-5.62,1,3
16627.031,-0.622,0.025,0.761,29.02,-7.39,-4.36,1,3
16627.046,-0.631,0.036,0.765,26.89,-5.89,-2.29,1,3
16627.062,-0.627,0.037,0.774,23.26,-6.2,1.01,1,3
16627.062,-0.615,0.03,0.769,19.87,-7.45,4.12,1,3
16627.078,-0.602,0.011,0.763,17.3,-8.03,6.01,1,3
16627.093,-0.589,-0.008,0.755,15.53,-7.35,7.02,1,3
16627.093,-0.573,-0.019,0.754,14.8,-5.13,6.29,1,3
16627.109,-0.564,-0.021,0.752,15.23,-2.72,4.06,1,3
16627.125,-0.568,-0.027,0.761,16.75,0.61,1.77,1,3
16627.125,-0.571,-0.024,0.774,18.56,4.15,-0.24,1,3
16627.156,-0.59,0.011,0.816,20.72,7.17,-3.63,1,3
16627.156,-0.593,0.027,0.827,19.23,6.96,-3.97,1,3
16627.171,-0.584,0.034,0.83,17.73,6.26,-3.72,1,3
16627.171,-0.571,0.044,0.83,16.72,6.53,-3.11,1,3
16627.187,-0.559,0.055,0.836,15.41,7.29,-2.62,1,3
16627.203,-0.553,0.056,0.836,14.77,8.33,-2.59,1,3
16627.203,-0.551,0.057,0.837,14.92,9.49,-2.38,1,3
16627.218,-0.543,0.063,0.834,15.17,10.77,-1.92,1,3
16627.234,-0.541,0.068,0.84,15.17,12.48,-1.53,1,3
16627.234,-0.548,0.064,0.855,14.71,13.34,-1.25,1,3
16627.25,-0.554,0.052,0.855,14.01,12.63,-0.89,1,3
16627.25,-0.54,0.046,0.847,13.03,11.72,-0.73,1,3
16627.265,-0.514,0.041,0.859,11.75,11.69,-1.04,1,3
16627.281,-0.488,0.019,0.895,12.21,11.81,-3.14,1,3
16627.281,-0.485,0.012,0.937,15.81,11.26,-7.26,1,3
16627.296,-0.48,0.022,0.973,21.03,8.33,-11.9,1,3
16627.312,-0.468,0.053,0.998,30.15,-2.44,-20.51,1,3
16627.328,-0.463,0.073,0.969,33.54,-8.0,-23.99,1,3
16627.343,-0.477,0.096,0.929,34.91,-11.9,-26.4,1,3
16627.359,-0.488,0.11,0.877,35.28,-14.04,-27.04,1,3
16627.359,-0.502,0.113,0.833,34.82,-14.47,-26.18,1,3
16627.375,-0.497,0.132,0.803,33.97,-13.31,-24.72,1,3
16627.375,-0.517,0.138,0.784,32.99,-10.71,-23.04,1,3
16627.39,-0.523,0.15,0.754,30.82,-8.21,-20.63,1,3
16627.39,-0.54,0.162,0.767,27.44,-5.07,-17.06,1,3
16627.406,-0.55,0.168,0.76,22.71,-3.39,-13.52,1,3
16627.421,-0.558,0.167,0.762,16.08,-2.29,-9.89,1,3
16627.421,-0.552,0.156,0.773,9.61,-2.04,-7.14,1,3
16627.437,-0.548,0.139,0.783,5.65,-1.98,-5.98,1,3
16627.453,-0.546,0.128,0.795,5.1,-1.83,-6.13,1,3
16627.453,-0.542,0.128,0.802,7.45,-1.56,-7.32,1,3
16627.468,-0.543,0.132,0.804,10.8,-0.64,-9.16,1,3
16627.484,-0.562,0.136,0.807,17.79,1.01,-14.8,1,3
16627.515,-0.57,0.15,0.807,21.85,2.17,-16.72,1,3
16627.515,-0.581,0.17,0.801,24.32,3.23,-16.88,1,3
16627.515,-0.586,0.197,0.794,23.71,3.97,-15.2,1,3
16627.531,-0.587,0.215,0.787,13.15,5.34,-6.44,1,3
16627.531,-0.598,0.229,0.791,5.16,4.55,-1.1,1,3
16627.546,-0.596,0.223,0.791,-0.49,2.93,2.93,1,3
16627.562,-0.591,0.198,0.797,-2.38,1.4,4.97,1,3
16627.562,-0.568,0.161,0.789,-1.71,0.79,5.74,1,3
16627.578,-0.555,0.149,0.771,0.24,0.82,5.49,1,3
16627.593,-0.55,0.15,0.762,2.26,2.96,4.79,1,3
16627.593,-0.557,0.15,0.763,2.99,5.8,4.0,1,3
16627.609,-0.571,0.146,0.772,2.81,8.09,3.39,1,3
16627.625,-0.577,0.145,0.784,3.17,9.31,3.2,1,3
16627.625,-0.576,0.143,0.788,3.51,9.16,2.99,1,3
16627.64,-0.574,0.137,0.796,4.27,8.61,2.26,1,3
16627.656,-0.586,0.155,0.801,5.1,6.2,1.13,1,3
16627.671,-0.583,0.163,0.793,3.39,4.58,1.5,1,3
16627.671,-0.575,0.163,0.787,1.1,3.57,2.2,1,3
16627.687,-0.575,0.165,0.777,-0.92,3.63,3.2,1,3
16627.703,-0.576,0.168,0.768,-3.17,4.85,4.73,1,3
16627.718,-0.575,0.169,0.765,-5.89,6.9,6.47,1,3
16627.718,-0.574,0.16,0.769,-8.45,9.19,7.6,1,3
16627.734,-0.582,0.143,0.782,-9.43,11.32,7.9,1,3
16627.734,-0.593,0.135,0.799,-9.09,12.88,7.6,1,3
16627.75,-0.595,0.129,0.808,-8.15,12.94,6.65,1,3
16627.765,-0.593,0.117,0.818,-6.26,12.27,5.1,1,3
16627.765,-0.595,0.118,0.822,-4.12,11.29,2.66,1,3
16627.781,-0.607,0.119,0.831,-1.31,9.67,0.15,1,3
16627.781,-0.615,0.114,0.837,1.77,6.93,-2.04,1,3
16627.796,-0.617,0.113,0.829,5.1,3.57,-4.27,1,3
16627.812,-0.611,0.121,0.821,7.54,0.34,-6.74,1,3
16627.812,-0.604,0.132,0.805,9.0,-1.86,-9.25,1,3
16627.828,-0.607,0.142,0.79,9.83,-2.75,-10.47,1,3
16627.843,-0.603,0.154,0.777,9.58,-2.9,-10.62,1,3
16627.843,-0.603,0.16,0.766,9.28,-2.14,-10.47,1,3
16627.859,-0.605,0.162,0.765,9.16,-1.07,-10.32,1,3
16627.875,-0.607,0.162,0.767,9.64,-0.06,-10.13,1,3
16627.875,-0.615,0.161,0.771,10.9,1.01,-9.95,1,3
16627.89,-0.62,0.161,0.771,11.96,1.16,-9.49,1,3
16627.906,-0.616,0.162,0.77,12.09,0.82,-9.25,1,3
16627.906,-0.618,0.162,0.768,11.78,0.76,-9.58,1,3
16627.921,-0.621,0.158,0.771,11.75,0.27,-9.7,1,3
16627.921,-0.618,0.158,0.764,11.63,-0.73,-9.34,1,3
16627.937,-0.602,0.162,0.757,10.65,-1.25,-9.13,1,3
16627.953,-0.617,0.156,0.754,11.23,0.18,-8.73,1,3
16627.968,-0.611,0.165,0.754,9.8,0.12,-7.75,1,3
16627.968,-0.604,0.16,0.74,8.3,0.12,-6.74,1,3
16627.984,-0.6,0.156,0.735,5.98,1.07,-6.1,1,3
16627.984,-0.597,0.149,0.739,4.18,2.56,-5.95,1,3
16628.0,-0.599,0.145,0.745,3.11,4.06,-6.16,1,3
16628.015,-0.595,0.143,0.749,2.72,5.43,-6.53,1,3
16628.015,-0.599,0.141,0.758,3.69,6.38,-7.39,1,3
16628.031,-0.608,0.147,0.762,4.94,6.62,-8.09,1,3
16628.031,-0.606,0.153,0.763,5.4,6.16,-8.45,1,3
16628.046,-0.6,0.156,0.762,5.31,5.77,-8.79,1,3
16628.062,-0.6,0.154,0.766,5.22,5.83,-9.31,1,3
16628.062,-0.598,0.153,0.767,5.71,6.1,-9.37,1,3
16628.078,-0.602,0.16,0.769,6.04,6.41,-9.19,1,3
16628.093,-0.603,0.166,0.77,5.86,6.41,-8.45,1,3
16628.093,-0.605,0.17,0.767,4.76,5.65,-7.42,1,3
16628.109,-0.604,0.167,0.768,3.08,4.61,-6.44,1,3
16628.125,-0.597,0.165,0.768,1.8,3.75,-5.77,1,3
16628.125,-0.6,0.163,0.77,1.56,3.51,-5.34,1,3
16628.14,-0.601,0.159,0.772,2.11,3.39,-4.91,1,3
16628.14,-0.595,0.161,0.768,2.62,3.17,-4.39,1,3
16628.156,-0.599,0.159,0.766,3.08,3.85,-4.12,1,3
16628.171,-0.606,0.16,0.771,3.3,4.18,-3.91,1,3
16628.187,-0.608,0.159,0.77,3.14,4.03,-3.51,1,3
16628.187,-0.607,0.163,0.77,1.92,3.85,-2.5,1,3
16628.203,-0.611,0.164,0.78,0.52,3.72,-1.65,1,3
16628.203,-0.612,0.158,0.78,-0.49,3.08,-1.16,1,3
16628.218,-0.61,0.157,0.782,-0.89,2.08,-0.76,1,3
16628.234,-0.607,0.152,0.78,-0.43,1.31,-0.79,1,3
16628.234,-0.601,0.153,0.778,0.64,0.85,-1.13,1,3
16628.25,-0.599,0.151,0.779,1.89,0.67,-1.77,1,3
16628.265,-0.602,0.144,0.775,3.51,0.89,-2.44,1,3
16628.265,-0.602,0.143,0.773,5.07,0.92,-2.84,1,3
16628.281,-0.603,0.143,0.775,6.13,0.79,-3.54,1,3
16628.281,-0.608,0.14,0.776,7.2,0.64,-4.55,1,3
16628.296,-0.615,0.144,0.775,8.39,0.34,-5.43,1,3
16628.312,-0.619,0.151,0.775,8.76,-0.52,-5.83,1,3
16628.312,-0.622,0.157,0.776,8.64,-1.59,-5.74,1,3
16628.328,-0.622,0.161,0.774,8.3,-2.69,-5.16,1,3
16628.343,-0.622,0.167,0.759,5.68,-4.43,-3.23,1,3
16628.359,-0.622,0.162,0.752,4.33,-4.67,-2.23,1,3
16628.375,-0.616,0.16,0.746,3.75,-4.39,-1.46,1,3
16628.375,-0.614,0.155,0.747,3.97,-3.39,-0.92,1,3
16628.39,-0.614,0.155,0.751,4.12,-2.29,-0.61,1,3
16628.406,-0.62,0.156,0.759,4.18,-1.68,-0.09,1,3
16628.406,-0.623,0.156,0.764,3.6,-1.74,0.46,1,3
16628.421,-0.627,0.16,0.774,2.62,-2.23,1.31,1,3
16628.421,-0.631,0.161,0.777,1.62,-3.66,2.41,1,3
16628.437,-0.626,0.158,0.778,0.31,-5.4,3.63,1,3
16628.453,-0.619,0.152,0.772,-0.43,-6.62,4.3,1,3
16628.453,-0.608,0.145,0.766,-0.31,-7.39,4.58,1,3
16628.468,-0.604,0.14,0.759,0.06,-7.11,4.18,1,3
16628.484,-0.603,0.135,0.755,1.1,-6.01,3.3,1,3
16628.484,-0.606,0.133,0.758,2.35,-4.61,2.17,1,3
16628.5,-0.609,0.133,0.756,3.23,-3.51,1.25,1,3
16628.515,-0.614,0.138,0.762,4.73,-3.23,-0.85,1,3
16628.531,-0.622,0.139,0.767,5.13,-4.21,-1.07,1,3
16628.531,-0.614,0.142,0.762,5.52,-4.85,-1.01,1,3
16628.546,-0.615,0.144,0.759,5.1,-6.32,-0.73,1,3
16628.562,-0.611,0.143,0.752,5.19,-6.65,-0.67,1,3
16628.562,-0.609,0.15,0.748,4.64,-6.32,-0.43,1,3
16628.578,-0.606,0.146,0.744,3.88,-5.55,-0.24,1,3
16628.593,-0.608,0.148,0.741,3.2,-4.64,-0.03,1,3
16628.593,-0.608,0.146,0.742,2.11,-4.12,0.09,1,3
16628.609,-0.607,0.144,0.743,1.25,-3.42,0.18,1,3
16628.625,-0.604,0.146,0.742,0.98,-2.84,0.18,1,3
16628.625,-0.603,0.147,0.738,0.89,-2.04,0.0,1,3
16628.64,-0.606,0.149,0.744,0.43,-1.13,-0.24,1,3
16628.64,-0.611,0.15,0.752,0.09,-0.7,-0.52,1,3
16628.656,-0.614,0.151,0.754,0.09,-0.85,-0.79,1,3
16628.671,-0.615,0.152,0.753,0.18,-1.28,-0.85,1,3
16628.687,-0.611,0.154,0.754,0.06,-1.25,-2.01,1,3
16628.703,-0.615,0.156,0.753,0.24,-1.19,-2.53,1,3
16628.718,-0.613,0.159,0.754,1.01,-1.13,-2.78,1,3
16628.718,-0.616,0.163,0.755,1.92,-1.01,-2.9,1,3
16628.734,-0.616,0.167,0.754,2.47,-1.04,-3.14,1,3
16628.734,-0.615,0.171,0.754,2.56,-1.25,-3.33,1,3
16628.75,-0.616,0.171,0.75,2.47,-1.31,-3.2,1,3
16628.75,-0.617,0.169,0.748,2.32,-1.1,-3.14,1,3
16628.765,-0.614,0.169,0.746,2.26,-0.89,-3.08,1,3
16628.781,-0.61,0.169,0.744,2.2,-0.73,-3.02,1,3
16628.781,-0.61,0.169,0.746,2.08,-0.27,-3.17,1,3
16628.796,-0.612,0.17,0.749,2.11,0.4,-3.42,1,3
16628.812,-0.614,0.175,0.752,2.29,0.76,-3.33,1,3
16628.812,-0.618,0.178,0.76,2.26,1.13,-3.11,1,3
16628.828,-0.623,0.182,0.769,2.11,0.73,-2.62,1,3
16628.843,-0.63,0.186,0.772,2.01,-0.49,-1.74,1,3
16628.859,-0.636,0.191,0.78,0.67,-4.7,0.58,1,3
16628.875,-0.639,0.192,0.783,-0.55,-7.11,1.31,1,3
16628.875,-0.635,0.191,0.783,-1.4,-9.7,1.98,1,3
16628.89,-0.631,0.192,0.778,-1.77,-12.48,2.56,1,3
16628.89,-0.614,0.188,0.765,-2.14,-15.02,2.81,1,3
16628.906,-0.591,0.178,0.748,-1.68,-16.02,2.62,1,3
16628.921,-0.576,0.172,0.734,0.03,-14.95,2.14,1,3
16628.921,-0.57,0.174,0.718,2.38,-11.72,1.86,1,3
16628.937,-0.571,0.178,0.711,4.39,-7.29,1.86,1,3
16628.953,-0.578,0.178,0.713,5.74,-2.66,1.53,1,3
16628.953,-0.59,0.181,0.722,6.81,1.1,1.19,1,3
16628.968,-0.597,0.184,0.73,6.74,3.51,1.46,1,3
16628.984,-0.596,0.187,0.738,4.97,5.01,2.38,1,3
16628.984,-0.591,0.185,0.749,1.62,5.83,3.33,1,3
16629.0,-0.592,0.178,0.764,-1.59,6.5,4.24,1,3
16629.015,-0.596,0.168,0.778,-3.69,6.59,5.01,1,3
16629.015,-0.59,0.158,0.784,-4.64,5.49,4.94,1,3
16629.031,-0.576,0.148,0.781,-3.63,4.39,3.72,1,3
16629.031,-0.574,0.143,0.781,-1.01,4.15,1.53,1,3
16629.046,-0.578,0.143,0.775,2.17,4.3,-0.79,1,3
16629.062,-0.583,0.149,0.769,4.79,4.76,-3.23,1,3
16629.078,-0.592,0.155,0.762,6.56,5.31,-5.1,1,3
16629.078,-0.601,0.162,0.761,7.54,6.13,-6.35,1,3
16629.093,-0.611,0.167,0.767,7.63,6.96,-6.99,1,3
16629.093,-0.613,0.171,0.771,7.26,7.11,-7.17,1,3
16629.109,-0.615,0.173,0.775,7.17,6.87,-7.08,1,3
16629.125,-0.623,0.175,0.783,7.02,6.2,-6.78,1,3
16629.125,-0.619,0.177,0.781,6.56,4.36,-6.68,1,3
16629.14,-0.618,0.178,0.782,6.29,2.59,-6.84,1,3
16629.156,-0.622,0.176,0.786,6.35,1.16,-7.17,1,3
16629.156,-0.611,0.178,0.78,6.84,-0.31,-7.29,1,3
16629.171,-0.602,0.18,0.771,7.17,-1.04,-7.23,1,3
16629.171,-0.597,0.186,0.765,7.6,-0.92,-7.54,1,3
16629.187,-0.598,0.188,0.765,7.97,-0.06,-7.69,1,3
16629.203,-0.605,0.19,0.768,8.33,0.85,-7.42,1,3
16629.203,-0.611,0.194,0.772,8.09,1.19,-6.65,1,3
16629.218,-0.609,0.193,0.778,7.39,0.85,-5.65,1,3
16629.234,-0.604,0.191,0.784,6.23,0.06,-4.46,1,3
16629.234,-0.607,0.193,0.788,5.19,-0.76,-3.6,1,3
16629.25,-0.613,0.189,0.794,4.24,-2.08,-2.99,1,3
16629.265,-0.603,0.193,0.781,3.2,-3.91,-2.14,1,3
16629.265,-0.601,0.182,0.786,3.54,-4.97,-1.62,1,3
16629.281,-0.596,0.18,0.772,4.3,-5.74,-1.68,1,3
16629.296,-0.603,0.181,0.766,5.77,-5.46,-1.65,1,3
16629.296,-0.608,0.185,0.763,6.59,-5.13,-1.74,1,3
16629.312,-0.615,0.189,0.761,6.65,-4.97,-1.71,1,3
16629.312,-0.629,0.194,0.761,6.16,-5.13,-1.31,1,3
16629.328,-0.625,0.195,0.743,5.98,-5.19,-0.34,1,3
16629.343,-0.642,0.209,0.746,5.68,-4.43,1.01,1,3
16629.343,-0.634,0.212,0.739,3.91,-5.07,2.62,1,3
16629.359,-0.625,0.212,0.728,2.14,-4.97,4.58,1,3
16629.375,-0.615,0.212,0.722,-0.18,-4.46,6.87,1,3
16629.375,-0.611,0.21,0.714,-2.38,-3.11,8.94,1,3
16629.39,-0.614,0.209,0.713,-4.85,-1.53,11.02,1,3
16629.39,-0.612,0.206,0.711,-7.26,-0.31,12.91,1,3
16629.406,-0.612,0.196,0.713,-9.06,1.04,14.19,1,3
16629.421,-0.613,0.186,0.718,-9.64,2.56,14.74,1,3
16629.437,-0.62,0.183,0.729,-9.09,3.63,15.02,1,3
16629.437,-0.605,0.183,0.714,-8.79,4.36,15.02,1,3
16629.453,-0.602,0.178,0.735,-9.25,5.89,14.65,1,3
16629.453,-0.598,0.17,0.733,-10.13,6.62,13.92,1,3
16629.468,-0.604,0.171,0.744,-11.08,7.9,13.52,1,3
16629.484,-0.602,0.169,0.754,-11.72,8.48,12.82,1,3
16629.484,-0.602,0.168,0.766,-11.96,8.67,12.09,1,3
16629.5,-0.598,0.17,0.779,-11.23,7.48,9.83,1,3
16629.5,-0.59,0.174,0.787,-10.65,6.81,8.3,1,3
16629.515,-0.59,0.176,0.795,-9.46,5.83,6.65,1,3
16629.531,-0.6,0.182,0.814,-8.21,4.36,5.43,1,3
16629.546,-0.603,0.187,0.815,-6.74,2.56,4.3,1,3
16629.546,-0.598,0.187,0.816,-5.16,0.73,3.2,1,3
16629.562,-0.593,0.188,0.815,-3.51,-0.79,2.35,1,3
16629.562,-0.595,0.187,0.814,-1.77,-2.14,1.43,1,3
16629.578,-0.604,0.188,0.814,0.12,-3.57,0.24,1,3
16629.593,-0.617,0.189,0.811,2.35,-5.43,-0.92,1,3
16629.593,-0.622,0.191,0.803,4.33,-7.72,-1.83,1,3
16629.609,-0.624,0.194,0.79,6.2,-9.92,-2.41,1,3
16629.625,-0.625,0.196,0.771,8.0,-11.47,-2.9,1,3
16629.625,-0.626,0.199,0.759,8.97,-12.05,-3.05,1,3
16629.64,-0.628,0.202,0.746,9.09,-12.33,-2.9,1,3
16629.64,-0.63,0.202,0.729,9.16,-12.54,-2.41,1,3
16629.656,-0.63,0.203,0.715,8.61,-12.15,-1.71,1,3
16629.671,-0.632,0.204,0.708,7.69,-11.17,-0.7,1,3
16629.687,-0.636,0.206,0.7,6.1,-9.98,0.76,1,3
16629.687,-0.63,0.206,0.694,3.39,-8.64,2.32,1,3
16629.703,-0.626,0.203,0.694,0.24,-6.65,3.48,1,3
16629.718,-0.633,0.194,0.704,-4.0,-2.96,4.64,1,3
16629.734,-0.631,0.193,0.705,-4.61,-1.71,4.76,1,3
16629.734,-0.625,0.193,0.704,-4.67,-0.34,4.33,1,3
16629.75,-0.625,0.197,0.707,-4.49,1.53,3.66,1,3
16629.765,-0.629,0.199,0.71,-4.3,3.39,3.54,1,3
16629.765,-0.624,0.204,0.719,-4.49,4.76,4.09,1,3
16629.781,-0.618,0.208,0.725,-5.19,5.86,4.21,1,3
16629.781,-0.623,0.207,0.735,-5.58,6.74,4.0,1,3
16629.796,-0.63,0.206,0.745,-5.43,6.87,4.15,1,3
16629.812,-0.623,0.21,0.75,-5.28,5.86,4.58,1,3
16629.812,-0.613,0.208,0.747,-4.94,5.13,4.55,1,3
16629.828,-0.614,0.206,0.744,-4.73,5.07,4.21,1,3
16629.843,-0.615,0.204,0.742,-4.82,5.25,4.12,1,3
16629.843,-0.611,0.202,0.741,-4.85,5.31,4.46,1,3
16629.859,-0.606,0.202,0.739,-4.91,5.74,4.3,1,3
16629.875,-0.61,0.196,0.741,-4.88,6.68,3.91,1,3
16629.89,-0.603,0.192,0.751,-5.16,7.97,3.48,1,3
16629.89,-0.599,0.186,0.755,-5.28,8.45,2.47,1,3
16629.906,-0.6,0.182,0.764,-4.67,8.91,1.34,1,3
16629.921,-0.601,0.184,0.772,-3.08,8.91,0.27,1,3
16629.921,-0.601,0.187,0.776,-1.56,8.33,-0.67,1,3
16629.937,-0.606,0.188,0.778,-0.4,7.51,-1.86,1,3
16629.953,-0.607,0.191,0.778,0.4,6.96,-3.05,1,3
16629.953,-0.609,0.194,0.782,1.22,6.71,-3.85,1,3
16629.968,-0.615,0.198,0.784,2.08,6.13,-4.33,1,3
16629.984,-0.616,0.202,0.779,2.17,4.97,-4.33,1,3
16629.984,-0.612,0.209,0.778,1.28,3.78,-3.94,1,3
16630.0,-0.609,0.208,0.777,0.15,3.02,-3.66,1,3
16630.0,-0.608,0.205,0.78,-0.55,2.56,-3.23,1,3
16630.015,-0.61,0.204,0.78,-0.76,2.32,-2.78,1,3
16630.031,-0.613,0.201,0.781,-0.49,2.41,-2.56,1,3
16630.031,-0.616,0.198,0.781,0.09,2.14,-2.53,1,3
16630.062,-0.611,0.19,0.78,2.11,0.61,-3.14,1,3
16630.062,-0.622,0.189,0.796,3.05,-0.49,-3.54,1,3
16630.078,-0.616,0.183,0.77,3.94,-2.44,-3.97,1,3
16630.093,-0.612,0.184,0.779,4.27,-3.97,-4.73,1,3
16630.093,-0.606,0.175,0.766,5.58,-5.34,-6.41,1,3
16630.109,-0.609,0.169,0.764,8.73,-5.25,-8.15,1,3
16630.125,-0.606,0.166,0.766,12.67,-4.97,-10.07,1,3
16630.125,-0.604,0.166,0.756,16.45,-4.88,-12.45,1,3
16630.14,-0.596,0.145,0.755,22.43,-3.23,-14.95,1,3
16630.14,-0.602,0.134,0.772,29.51,-1.65,-18.25,1,3
16630.156,-0.601,0.132,0.771,38.0,-0.64,-22.03,1,3
16630.171,-0.61,0.13,0.757,47.82,0.24,-25.82,1,3
16630.171,-0.612,0.126,0.76,57.53,0.7,-28.78,1,3
16630.187,-0.601,0.132,0.76,65.98,1.13,-32.07,1,3
16630.203,-0.617,0.145,0.747,71.44,0.03,-37.11,1,3
16630.203,-0.631,0.157,0.757,72.97,-3.57,-42.85,1,3
16630.234,-0.683,0.242,0.722,68.79,-13.34,-48.01,1,3
16630.234,-0.677,0.298,0.687,59.51,-17.27,-42.45,1,3
16630.25,-0.67,0.344,0.645,44.89,-17.64,-32.47,1,3
16630.265,-0.661,0.372,0.606,24.48,-16.05,-20.33,1,3
16630.265,-0.646,0.359,0.603,2.93,-12.45,-7.48,1,3
16630.281,-0.635,0.327,0.608,-13.64,-6.44,4.82,1,3
16630.281,-0.64,0.305,0.622,-25.12,0.52,14.77,1,3
16630.296,-0.651,0.289,0.651,-33.33,6.04,21.85,1,3
16630.312,-0.658,0.273,0.683,-39.28,8.82,27.25,1,3
16630.312,-0.661,0.256,0.712,-43.76,9.43,31.01,1,3
16630.328,-0.658,0.24,0.734,-46.78,8.45,33.69,1,3
16630.343,-0.65,0.219,0.753,-47.18,6.84,35.43,1,3
16630.343,-0.647,0.2,0.758,-45.08,5.55,36.07,1,3
16630.359,-0.646,0.191,0.762,-41.99,4.49,35.86,1,3
16630.375,-0.646,0.189,0.761,-39.22,3.27,34.49,1,3
16630.375,-0.641,0.178,0.76,-36.81,1.8,32.87,1,3
16630.39,-0.631,0.169,0.748,-32.35,-0.73,28.63,1,3
16630.406,-0.631,0.168,0.744,-30.06,-1.68,26.43,1,3
16630.421,-0.634,0.169,0.742,-28.23,-2.66,24.11,1,3
16630.421,-0.636,0.171,0.741,-27.47,-4.06,22.22,1,3
16630.437,-0.632,0.177,0.741,-27.41,-5.86,20.6,1,3
16630.453,-0.639,0.186,0.741,-28.05,-7.08,19.68,1,3
16630.453,-0.646,0.193,0.75,-29.45,-8.7,19.44,1,3
16630.468,-0.658,0.202,0.772,-30.52,-10.77,20.45,1,3
16630.484,-0.678,0.209,0.799,-28.57,-20.29,26.28,1,3
16630.484,-0.708,0.222,0.836,-25.06,-29.11,32.32,1,3
16630.5,-0.712,0.235,0.866,-23.5,-39.12,39.86,1,3
16630.515,-0.705,0.257,0.835,-26.98,-46.94,49.32,1,3
16630.515,-0.674,0.31,0.803,-39.89,-54.29,58.93,1,3
16630.531,-0.632,0.275,0.714,-53.04,-60.46,65.1,1,3
16630.546,-0.602,0.244,0.72,-67.6,-61.92,70.47,1,3
16630.546,-0.571,0.183,0.719,-74.04,-60.46,72.82,1,3
16630.562,-0.547,0.148,0.734,-76.54,-58.35,71.14,1,3
16630.562,-0.539,0.147,0.762,-76.57,-56.43,67.11,1,3
16630.578,-0.554,0.151,0.791,-78.43,-56.46,62.87,1,3
16630.593,-0.539,0.141,0.84,-82.98,-60.82,59.33,1,3
16630.593,-0.525,0.122,0.861,-82.58,-64.52,56.52,1,3
16630.609,-0.508,0.098,0.857,-75.44,-64.94,56.89,1,3
16630.625,-0.47,0.095,0.836,-67.02,-63.02,58.11,1,3
16630.625,-0.432,0.093,0.813,-60.82,-59.21,56.34,1,3
16630.64,-0.433,0.089,0.815,-57.56,-54.48,51.61,1,3
16630.656,-0.433,0.071,0.836,-54.26,-50.54,46.63,1,3
16630.656,-0.423,0.069,0.859,-49.53,-46.97,42.97,1,3
16630.671,-0.438,0.083,0.9,-42.97,-43.55,40.25,1,3
16630.671,-0.437,0.092,0.92,-36.68,-42.91,39.34,1,3
16630.687,-0.425,0.107,0.929,-34.88,-44.19,38.48,1,3
16630.703,-0.407,0.095,0.91,-36.65,-46.54,36.13,1,3
16630.703,-0.374,0.063,0.881,-37.93,-47.7,32.75,1,3
16630.718,-0.326,0.032,0.859,-34.42,-44.71,27.74,1,3
16630.734,-0.295,0.028,0.855,-27.28,-38.24,20.78,1,3
16630.75,-0.298,0.042,0.862,-18.89,-30.06,12.6,1,3
16630.75,-0.322,0.061,0.875,-11.35,-22.83,5.86,1,3
16630.765,-0.337,0.089,0.894,-7.87,-18.49,1.46,1,3
16630.765,-0.357,0.111,0.911,-7.6,-16.24,-0.98,1,3
16630.781,-0.361,0.117,0.909,-9.25,-15.5,-1.07,1,3
16630.796,-0.351,0.12,0.905,-11.66,-15.08,-0.21,1,3
16630.796,-0.342,0.114,0.899,-12.7,-13.73,0.24,1,3
16630.812,-0.325,0.105,0.882,-12.3,-11.08,0.73,1,3
16630.812,-0.31,0.102,0.862,-12.24,-7.08,0.85,1,3
16630.828,-0.3,0.093,0.86,-13.21,-2.35,-0.73,1,3
16630.843,-0.308,0.086,0.88,-14.1,2.26,-3.45,1,3
16630.843,-0.331,0.086,0.901,-14.31,6.01,-6.26,1,3
16630.859,-0.354,0.089,0.926,-14.53,7.35,-8.36,1,3
16630.875,-0.384,0.093,0.978,-14.01,6.38,-9.37,1,3
16630.875,-0.402,0.082,0.983,-10.01,3.33,-8.36,1,3
16630.89,-0.39,0.094,0.951,-5.86,0.12,-5.95,1,3
16630.906,-0.355,0.101,0.921,-4.61,-1.74,-4.85,1,3
16630.906,-0.335,0.092,0.893,-4.79,-0.89,-5.34,1,3
16630.921,-0.338,0.094,0.892,-4.46,1.83,-5.89,1,3
16630.937,-0.35,0.099,0.904,-4.0,4.97,-6.01,1,3
16630.937,-0.366,0.108,0.926,-4.09,6.62,-5.43,1,3
16630.953,-0.372,0.103,0.942,-4.36,5.89,-4.82,1,3
16630.953,-0.369,0.098,0.949,-2.9,4.39,-4.46,1,3
16630.968,-0.374,0.105,0.96,-0.43,2.81,-4.55,1,3
16630.984,-0.374,0.107,0.951,1.92,0.82,-4.76,1,3
16630.984,-0.374,0.116,0.95,3.36,-0.98,-4.73,1,3
16631.0,-0.37,0.121,0.926,3.75,-2.38,-4.46,1,3
16631.0,-0.362,0.117,0.909,3.08,-2.44,-3.78,1,3
16631.015,-0.351,0.11,0.889,2.5,-1.31,-2.99,1,3
16631.031,-0.361,0.111,0.886,2.41,1.37,-2.35,1,3
16631.031,-0.369,0.109,0.902,1.89,3.3,-1.43,1,3
16631.046,-0.365,0.107,0.91,1.13,3.88,-0.92,1,3
16631.062,-0.385,0.106,0.924,1.43,4.39,-0.61,1,3
16631.062,-0.399,0.107,0.934,1.77,3.45,0.55,1,3
16631.078,-0.389,0.104,0.932,0.67,1.19,1.68,1,3
16631.093,-0.38,0.088,0.926,0.0,-0.92,1.31,1,3
16631.093,-0.377,0.076,0.914,0.92,-1.56,0.31,1,3
16631.109,-0.374,0.082,0.913,1.83,-1.5,-0.55,1,3
16631.125,-0.362,0.078,0.905,2.08,-1.5,-2.29,1,3
16631.125,-0.353,0.07,0.902,3.48,-0.89,-4.82,1,3
16631.14,-0.36,0.076,0.902,6.16,0.79,-7.48,1,3
16631.14,-0.384,0.097,0.914,8.42,2.38,-8.7,1,3
16631.156,-0.394,0.114,0.925,8.06,1.83,-7.84,1,3
16631.171,-0.388,0.111,0.912,6.53,0.43,-6.53,1,3
16631.171,-0.382,0.104,0.897,6.04,0.37,-5.28,1,3
16631.187,-0.381,0.109,0.889,6.44,1.89,-3.75,1,3
16631.203,-0.396,0.125,0.9,5.65,3.48,-1.37,1,3
16631.203,-0.398,0.125,0.914,3.08,3.48,1.07,1,3
16631.218,-0.392,0.111,0.915,1.28,2.62,2.87,1,3
16631.234,-0.386,0.101,0.912,1.31,2.62,3.94,1,3
16631.234,-0.386,0.099,0.91,1.95,2.99,4.39,1,3
16631.25,-0.387,0.097,0.917,1.59,2.93,4.24,1,3
16631.265,-0.381,0.089,0.922,0.4,1.98,3.36,1,3
16631.265,-0.382,0.078,0.921,1.16,1.43,2.14,1,3
16631.281,-0.385,0.077,0.91,3.54,1.31,0.85,1,3
16631.281,-0.386,0.087,0.902,5.16,1.56,0.24,1,3
16631.296,-0.395,0.099,0.898,4.64,1.92,0.06,1,3
16631.312,-0.4,0.1,0.895,3.05,2.01,0.37,1,3
16631.312,-0.396,0.102,0.899,1.62,2.32,1.34,1,3
16631.328,-0.396,0.111,0.902,0.82,2.78,2.56,1,3
16631.343,-0.396,0.119,0.903,0.0,3.02,4.18,1,3
16631.359,-0.396,0.128,0.901,-0.82,3.51,6.16,1,3
16631.359,-0.401,0.134,0.906,-2.01,3.78,8.21,1,3
16631.359,-0.413,0.138,0.908,-3.97,3.69,10.71,1,3
16631.375,-0.42,0.136,0.909,-6.07,3.27,14.1,1,3
16631.39,-0.413,0.121,0.908,-8.51,2.59,17.46,1,3
16631.39,-0.399,0.103,0.904,-11.11,2.08,19.75,1,3
16631.421,-0.377,0.063,0.909,-12.51,2.04,18.25,1,3
16631.421,-0.377,0.047,0.914,-9.95,2.29,14.59,1,3
16631.437,-0.383,0.04,0.93,-5.16,2.5,10.25,1,3
16631.453,-0.392,0.048,0.932,-0.58,2.08,5.71,1,3
16631.453,-0.398,0.057,0.926,2.56,1.16,1.53,1,3
16631.468,-0.399,0.061,0.917,5.25,-0.61,-3.85,1,3
16631.484,-0.398,0.065,0.908,6.2,-0.27,-5.46,1,3
16631.484,-0.401,0.069,0.897,6.71,0.43,-6.13,1,3
16631.5,-0.407,0.094,0.888,5.98,0.95,-5.62,1,3
16631.515,-0.4,0.1,0.882,4.24,1.74,-3.85,1,3
16631.515,-0.395,0.103,0.885,2.23,2.99,-2.35,1,3
16631.531,-0.4,0.104,0.896,1.04,4.18,-1.19,1,3
16631.531,-0.402,0.104,0.903,0.21,4.73,-0.09,1,3
16631.546,-0.394,0.097,0.903,-0.06,4.79,0.46,1,3
16631.562,-0.39,0.091,0.91,0.64,5.31,0.24,1,3
16631.562,-0.396,0.09,0.92,2.14,5.71,-0.15,1,3
16631.578,-0.398,0.092,0.925,3.17,5.4,-0.4,1,3
16631.593,-0.39,0.093,0.927,3.6,4.12,-1.28,1,3
16631.593,-0.391,0.089,0.926,4.49,3.23,-2.96,1,3
16631.609,-0.391,0.094,0.923,5.46,2.59,-3.91,1,3
16631.625,-0.388,0.104,0.915,5.92,2.2,-4.7,1,3
16631.625,-0.387,0.108,0.911,6.01,1.89,-5.65,1,3
16631.64,-0.387,0.113,0.911,5.92,2.14,-6.23,1,3
16631.64,-0.383,0.12,0.911,5.77,2.53,-6.16,1,3
16631.656,-0.384,0.131,0.91,5.43,2.84,-5.92,1,3
16631.671,-0.382,0.135,0.915,4.58,2.96,-5.4,1,3
16631.671,-0.381,0.138,0.924,4.12,3.14,-5.04,1,3
16631.687,-0.385,0.144,0.939,4.39,2.93,-4.7,1,3
16631.703,-0.395,0.148,0.957,5.13,1.8,-4.46,1,3
16631.703,-0.412,0.145,0.959,6.23,-0.55,-4.15,1,3
16631.718,-0.422,0.134,0.955,6.65,-3.94,-3.3,1,3
16631.718,-0.414,0.124,0.949,7.02,-7.08,-2.44,1,3
16631.734,-0.404,0.115,0.926,8.15,-9.06,-2.14,1,3
16631.75,-0.388,0.106,0.906,8.85,-9.43,-2.53,1,3
16631.765,-0.381,0.102,0.897,9.89,-8.18,-3.78,1,3
16631.765,-0.382,0.096,0.894,11.84,-6.32,-5.71,1,3
16631.781,-0.381,0.101,0.895,13.95,-4.7,-7.63,1,3
16631.781,-0.393,0.109,0.893,16.08,-3.3,-9.52,1,3
16631.796,-0.396,0.115,0.888,17.4,-2.5,-10.62,1,3
16631.812,-0.406,0.131,0.888,17.7,-1.8,-10.99,1,3
16631.828,-0.424,0.144,0.886,16.11,-1.71,-10.13,1,3
16631.828,-0.434,0.147,0.887,13.52,-2.66,-7.87,1,3
16631.843,-0.438,0.147,0.889,11.14,-3.85,-4.82,1,3
16631.843,-0.434,0.146,0.886,9.0,-4.85,-1.71,1,3
16631.859,-0.419,0.14,0.883,6.9,-5.4,0.85,1,3
16631.875,-0.403,0.135,0.879,5.16,-4.88,2.38,1,3
16631.875,-0.393,0.131,0.879,4.18,-3.57,2.84,1,3
16631.89,-0.386,0.126,0.881,4.3,-1.95,2.59,1,3
16631.89,-0.382,0.12,0.886,5.25,-0.27,2.2,1,3
16631.906,-0.381,0.118,0.89,6.59,1.1,1.8,1,3
16631.921,-0.392,0.118,0.893,7.54,2.35,1.1,1,3
16631.921,-0.4,0.118,0.898,7.78,2.87,0.55,1,3
16631.937,-0.403,0.117,0.895,7.69,2.5,0.06,1,3
16631.953,-0.41,0.117,0.89,7.87,2.17,0.06,1,3
16631.953,-0.411,0.125,0.889,7.2,1.31,0.4,1,3
16631.968,-0.408,0.125,0.881,5.68,0.18,0.64,1,3
16631.984,-0.405,0.12,0.869,4.12,-0.58,1.22,1,3
16631.984,-0.395,0.116,0.861,2.62,-0.76,2.04,1,3
16632.0,-0.384,0.111,0.852,1.71,0.09,2.2,1,3
16632.015,-0.386,0.109,0.85,1.5,2.01,1.68,1,3
16632.015,-0.398,0.113,0.854,1.65,4.49,1.53,1,3
16632.031,-0.407,0.12,0.869,1.34,6.62,1.83,1,3
16632.046,-0.417,0.125,0.888,0.37,8.09,2.14,1,3
16632.046,-0.424,0.125,0.902,-0.46,8.09,2.38,1,3
16632.062,-0.426,0.129,0.915,-1.4,7.66,2.96,1,3
16632.062,-0.425,0.132,0.926,-2.35,6.47,3.3,1,3
16632.078,-0.421,0.129,0.929,-2.81,4.91,2.72,1,3
16632.093,-0.419,0.131,0.93,-2.66,4.03,1.8,1,3
16632.093,-0.426,0.139,0.935,-1.4,3.39,1.31,1,3
16632.109,-0.43,0.147,0.933,-0.64,2.59,1.37,1,3
16632.125,-0.425,0.15,0.928,-0.67,1.62,1.71,1,3
16632.125,-0.422,0.148,0.928,-0.76,0.46,1.46,1,3
16632.14,-0.422,0.141,0.926,-0.73,-1.07,0.92,1,3
16632.14,-0.424,0.132,0.919,0.46,-2.35,0.03,1,3
16632.156,-0.424,0.13,0.904,2.5,-2.87,-1.16,1,3
16632.171,-0.431,0.13,0.887,4.46,-2.66,-2.29,1,3
16632.171,-0.443,0.137,0.9,5.16,-2.47,-2.87,1,3
16632.187,-0.437,0.135,0.867,4.55,-2.69,-2.75,1,3
16632.203,-0.426,0.133,0.872,3.57,-1.77,-2.69,1,3
16632.203,-0.438,0.125,0.882,4.58,-0.85,-3.33,1,3
16632.218,-0.453,0.137,0.879,5.22,-0.95,-3.27,1,3
16632.234,-0.447,0.138,0.879,4.76,-1.74,-2.66,1,3
16632.234,-0.434,0.139,0.869,3.57,-2.62,-2.69,1,3
16632.25,-0.429,0.14,0.858,2.44,-2.44,-2.87,1,3
16632.265,-0.444,0.137,0.876,1.65,-1.43,-2.11,1,3
16632.265,-0.438,0.145,0.869,0.06,-1.5,-0.92,1,3
16632.281,-0.43,0.138,0.873,-1.1,-1.16,0.0,1,3
16632.281,-0.424,0.134,0.875,-1.22,-0.92,-0.09,1,3
16632.296,-0.423,0.13,0.88,-0.49,-0.52,-0.61,1,3
16632.312,-0.415,0.127,0.875,0.18,-0.34,-1.53,1,3
16632.312,-0.411,0.125,0.875,1.19,0.18,-2.96,1,3
16632.328,-0.417,0.126,0.882,2.59,1.13,-4.64,1,3
16632.343,-0.435,0.131,0.897,4.06,1.83,-5.55,1,3
16632.343,-0.437,0.137,0.9,4.64,1.53,-5.46,1,3
16632.359,-0.427,0.139,0.899,4.39,0.7,-5.37,1,3
16632.359,-0.427,0.139,0.896,4.3,0.03,-5.98,1,3
16632.375,-0.435,0.141,0.894,4.73,-0.58,-6.9,1,3
16632.39,-0.43,0.148,0.887,5.65,-1.43,-7.57,1,3
16632.39,-0.424,0.156,0.88,6.44,-1.65,-7.72,1,3
16632.406,-0.426,0.159,0.878,6.65,-0.95,-7.32,1,3
16632.421,-0.428,0.161,0.876,6.41,0.0,-6.1,1,3
16632.437,-0.428,0.161,0.876,5.04,0.92,-4.27,1,3
16632.437,-0.428,0.154,0.884,3.39,1.56,-2.96,1,3
16632.453,-0.428,0.145,0.894,2.62,1.13,-2.5,1,3
16632.453,-0.428,0.135,0.895,4.03,0.7,-3.75,1,3
16632.468,-0.432,0.13,0.893,6.2,-0.03,-5.89,1,3
16632.484,-0.459,0.14,0.88,8.45,-1.74,-8.12,1,3
16632.5,-0.458,0.145,0.863,10.99,-3.75,-10.38,1,3
16632.5,-0.448,0.15,0.834,13.64,-4.27,-12.6,1,3
16632.515,-0.441,0.163,0.813,16.17,-2.56,-14.28,1,3
16632.515,-0.439,0.179,0.803,17.61,0.7,-14.47,1,3
16632.531,-0.431,0.193,0.803,16.91,4.36,-12.42,1,3
16632.546,-0.421,0.207,0.812,13.49,8.15,-8.85,1,3
16632.546,-0.421,0.212,0.832,8.33,11.84,-4.39,1,3
16632.562,-0.421,0.209,0.858,2.35,14.65,0.21,1,3
16632.562,-0.416,0.203,0.876,-2.81,15.78,4.15,1,3
16632.578,-0.416,0.187,0.89,-5.46,16.17,6.32,1,3
16632.593,-0.414,0.178,0.898,-5.43,16.08,6.65,1,3
16632.609,-0.411,0.176,0.904,-4.03,15.41,5.55,1,3
16632.609,-0.41,0.178,0.907,-1.8,15.05,3.57,1,3
16632.625,-0.411,0.183,0.904,0.73,15.17,1.5,1,3
16632.625,-0.411,0.192,0.9,2.87,15.66,0.06,1,3
16632.64,-0.423,0.199,0.9,4.03,16.14,-0.52,1,3
16632.64,-0.424,0.204,0.899,3.63,15.5,0.03,1,3
16632.656,-0.425,0.2,0.895,2.5,14.68,1.04,1,3
16632.671,-0.43,0.191,0.898,0.49,13.82,2.32,1,3
16632.671,-0.423,0.181,0.891,-2.08,12.45,3.72,1,3
16632.687,-0.407,0.171,0.886,-4.79,11.96,4.52,1,3
16632.703,-0.402,0.162,0.902,-6.71,12.57,4.67,1,3
16632.718,-0.4,0.152,0.885,-7.32,13.28,4.49,1,3
16632.718,-0.404,0.154,0.899,-8.09,14.13,4.36,1,3
16632.734,-0.408,0.151,0.902,-8.85,13.98,3.81,1,3
16632.734,-0.412,0.143,0.898,-8.85,13.58,3.14,1,3
16632.75,-0.418,0.14,0.901,-8.76,13.03,3.02,1,3
16632.765,-0.418,0.134,0.898,-9.34,12.7,2.69,1,3
16632.765,-0.415,0.135,0.899,-10.59,12.54,1.71,1,3
16632.781,-0.428,0.122,0.915,-9.34,13.25,-0.21,1,3
16632.781,-0.448,0.128,0.932,-6.93,13.28,-2.66,1,3
16632.796,-0.46,0.133,0.942,-3.94,11.35,-5.77,1,3
16632.812,-0.472,0.131,0.947,0.09,8.21,-9.8,1,3
16632.812,-0.476,0.141,0.94,4.85,4.18,-13.4,1,3
16632.828,-0.488,0.156,0.926,9.13,0.61,-16.08,1,3
16632.843,-0.494,0.169,0.901,11.6,-3.02,-17.58,1,3
16632.843,-0.487,0.18,0.875,11.84,-5.55,-17.73,1,3
16632.859,-0.483,0.185,0.855,10.59,-6.59,-17.06,1,3
16632.875,-0.477,0.185,0.838,8.85,-5.86,-15.14,1,3
16632.875,-0.472,0.188,0.829,6.9,-4.06,-12.09,1,3
16632.89,-0.473,0.193,0.826,4.55,-1.92,-8.42,1,3
16632.89,-0.475,0.194,0.826,1.28,-0.4,-4.39,1,3
16632.906,-0.478,0.196,0.826,-2.41,0.34,-0.21,1,3
16632.921,-0.48,0.194,0.828,-6.2,0.46,3.81,1,3
16632.921,-0.48,0.191,0.832,-9.49,0.64,7.69,1,3
16632.937,-0.476,0.185,0.827,-12.39,0.7,11.51,1,3
16632.953,-0.469,0.173,0.827,-15.29,0.98,14.89,1,3
16632.953,-0.465,0.156,0.829,-17.43,1.71,17.61,1,3
16632.968,-0.464,0.142,0.834,-18.83,2.56,18.92,1,3
16632.984,-0.463,0.123,0.842,-19.04,2.59,19.01,1,3
16632.984,-0.464,0.106,0.846,-17.73,2.23,17.3,1,3
16633.0,-0.472,0.097,0.854,-15.29,1.46,14.28,1,3
16633.015,-0.477,0.086,0.861,-12.42,-0.24,10.68,1,3
16633.015,-0.474,0.079,0.86,-9.16,-2.38,6.16,1,3
16633.031,-0.475,0.076,0.851,-5.16,-3.72,0.85,1,3
16633.031,-0.483,0.08,0.85,-0.7,-4.55,-4.61,1,3
16633.046,-0.495,0.095,0.847,4.0,-5.37,-9.8,1,3
16633.062,-0.506,0.115,0.842,8.09,-6.1,-13.76,1,3
16633.062,-0.511,0.134,0.836,10.8,-6.68,-16.27,1,3
16633.078,-0.512,0.148,0.832,12.24,-6.59,-17.18,1,3
16633.093,-0.518,0.156,0.828,12.6,-6.2,-17.37,1,3
16633.093,-0.518,0.168,0.826,11.9,-5.55,-16.63,1,3
16633.109,-0.522,0.178,0.824,10.5,-4.58,-15.05,1,3
16633.125,-0.529,0.185,0.825,8.67,-3.72,-12.85,1,3
16633.125,-0.522,0.189,0.825,6.01,-3.27,-10.13,1,3
16633.14,-0.511,0.184,0.823,3.33,-2.9,-7.45,1,3
16633.156,-0.505,0.179,0.831,1.62,-1.74,-5.46,1,3
16633.156,-0.501,0.172,0.839,1.37,-0.52,-4.21,1,3
16633.171,-0.503,0.166,0.844,2.29,0.46,-3.14,1,3
16633.171,-0.502,0.166,0.852,3.3,1.1,-1.95,1,3
16633.187,-0.501,0.165,0.858,4.06,1.1,-1.16,1,3
16633.203,-0.503,0.159,0.862,4.27,0.58,-0.34,1,3
16633.203,-0.5,0.153,0.863,4.03,-0.24,0.55,1,3
16633.218,-0.499,0.15,0.867,4.09,-0.73,1.07,1,3
16633.234,-0.505,0.147,0.866,4.46,-1.31,1.04,1,3
16633.234,-0.507,0.145,0.862,5.46,-2.14,0.82,1,3
16633.25,-0.507,0.141,0.856,6.9,-2.62,0.89,1,3
16633.265,-0.506,0.139,0.848,8.3,-2.56,1.19,1,3
16633.265,-0.502,0.138,0.838,8.64,-2.11,1.56,1,3
16633.281,-0.499,0.138,0.835,7.81,-1.28,2.17,1,3
16633.281,-0.496,0.133,0.833,6.59,-0.34,2.9,1,3
16633.296,-0.495,0.128,0.833,5.07,0.85,3.88,1,3
16633.312,-0.491,0.122,0.838,3.69,1.71,4.73,1,3
16633.328,-0.485,0.118,0.843,2.5,2.35,5.16,1,3
16633.328,-0.485,0.116,0.853,1.71,2.78,5.13,1,3
16633.343,-0.483,0.115,0.858,0.92,2.32,5.01,1,3
16633.343,-0.475,0.114,0.863,0.31,1.74,4.79,1,3
16633.359,-0.468,0.111,0.867,-0.15,1.46,4.3,1,3
16633.375,-0.462,0.105,0.869,-0.06,1.31,3.42,1,3
16633.375,-0.457,0.1,0.868,0.7,0.92,2.2,1,3
16633.39,-0.452,0.095,0.869,1.89,0.52,0.43,1,3
16633.406,-0.456,0.094,0.868,3.63,0.18,-1.62,1,3
16633.406,-0.457,0.091,0.865,5.19,-0.4,-3.48,1,3
16633.421,-0.456,0.096,0.863,6.53,-0.89,-5.58,1,3
16633.421,-0.46,0.103,0.859,8.24,-1.83,-8.88,1,3
16633.437,-0.46,0.111,0.859,8.48,-1.74,-9.7,1,3
16633.453,-0.462,0.119,0.857,8.42,-1.71,-10.32,1,3
16633.453,-0.466,0.126,0.858,8.3,-1.5,-10.8,1,3
16633.468,-0.474,0.14,0.858,8.27,-1.71,-10.74,1,3
16633.484,-0.476,0.147,0.853,8.0,-1.68,-10.59,1,3
16633.484,-0.479,0.154,0.85,7.35,-1.25,-10.07,1,3
16633.5,-0.478,0.161,0.848,6.23,-0.92,-9.4,1,3
16633.515,-0.478,0.167,0.847,4.91,-0.49,-8.85,1,3
16633.515,-0.479,0.17,0.848,3.78,-0.06,-8.03,1,3
16633.531,-0.475,0.174,0.85,3.27,0.4,-7.08,1,3
16633.531,-0.475,0.175,0.853,3.39,1.16,-6.07,1,3
16633.546,-0.475,0.177,0.853,3.91,1.71,-5.28,1,3
16633.562,-0.475,0.177,0.854,4.3,1.89,-4.67,1,3
16633.562,-0.476,0.179,0.858,4.52,1.68,-4.06,1,3
16633.578,-0.477,0.177,0.857,4.79,1.56,-3.66,1,3
16633.593,-0.481,0.177,0.859,5.22,1.5,-3.33,1,3
16633.593,-0.487,0.175,0.861,5.83,1.4,-2.69,1,3
16633.609,-0.491,0.177,0.858,6.01,1.25,-2.04,1,3
16633.625,-0.494,0.179,0.857,5.37,1.1,-1.19,1,3
16633.625,-0.492,0.177,0.854,4.24,0.49,-0.18,1,3
16633.64,-0.487,0.172,0.849,3.17,0.37,0.67,1,3
16633.64,-0.489,0.167,0.846,2.53,0.58,1.31,1,3
16633.656,-0.489,0.164,0.842,2.38,1.1,1.62,1,3
16633.671,-0.494,0.169,0.857,2.29,1.28,1.74,1,3
16633.687,-0.486,0.163,0.83,2.72,1.22,2.2,1,3
16633.687,-0.483,0.181,0.839,0.58,1.4,2.99,1,3
16633.703,-0.471,0.166,0.85,-0.58,1.5,3.48,1,3
16633.703,-0.469,0.162,0.837,-0.98,2.04,3.57,1,3
16633.718,-0.477,0.167,0.859,-1.77,2.81,3.97,1,3
16633.734,-0.475,0.16,0.843,-2.38,2.69,4.12,1,3
16633.734,-0.473,0.16,0.855,-2.47,3.51,4.21,1,3
16633.75,-0.482,0.158,0.868,-1.98,3.45,3.63,1,3
16633.765,-0.481,0.158,0.861,-1.5,2.47,3.17,1,3
16633.765,-0.478,0.158,0.864,-0.64,1.95,3.2,1,3
16633.781,-0.475,0.163,0.86,-0.12,1.1,2.5,1,3
16633.781,-0.476,0.161,0.857,0.24,0.34,1.71,1,3
16633.796,-0.479,0.159,0.855,0.61,-0.21,1.07,1,3
16633.812,-0.478,0.157,0.854,1.25,-0.49,0.79,1,3
16633.812,-0.479,0.158,0.852,1.95,-0.43,0.15,1,3
16633.828,-0.482,0.161,0.851,2.62,-0.37,-0.67,1,3
16633.843,-0.483,0.164,0.854,3.11,-0.31,-1.56,1,3
16633.843,-0.489,0.167,0.856,3.63,-0.15,-2.35,1,3
16633.859,-0.498,0.172,0.861,4.09,-0.15,-2.96,1,3
16633.875,-0.504,0.176,0.862,4.09,-0.92,-3.3,1,3
16633.875,-0.502,0.175,0.856,3.88,-2.11,-3.3,1,3
16633.89,-0.499,0.175,0.854,3.45,-3.2,-3.39,1,3
16633.906,-0.503,0.175,0.849,3.72,-3.97,-3.63,1,3
16633.906,-0.503,0.177,0.845,4.33,-4.49,-3.54,1,3
16633.921,-0.496,0.178,0.838,4.55,-5.01,-3.45,1,3
16633.921,-0.499,0.18,0.833,4.67,-4.97,-3.66,1,3
16633.937,-0.5,0.182,0.832,4.82,-4.7,-3.6,1,3
16633.953,-0.499,0.18,0.825,4.82,-4.52,-3.23,1,3
16633.953,-0.495,0.181,0.823,4.39,-3.88,-2.96,1,3
16633.968,-0.495,0.18,0.821,4.18,-2.96,-2.9,1,3
16633.984,-0.498,0.177,0.821,4.09,-2.23,-2.69,1,3
16633.984,-0.497,0.178,0.82,4.03,-1.71,-2.5,1,3
16634.0,-0.5,0.179,0.818,4.09,-0.98,-2.56,1,3
16634.015,-0.504,0.18,0.819,3.78,-0.49,-2.41,1,3
16634.015,-0.502,0.181,0.819,3.17,-0.55,-1.89,1,3
16634.031,-0.501,0.179,0.818,2.38,-0.43,-1.53,1,3
16634.031,-0.499,0.176,0.821,2.01,-0.09,-1.43,1,3
16634.046,-0.497,0.172,0.826,2.23,0.49,-1.56,1,3
16634.062,-0.496,0.178,0.821,2.41,1.04,-1.59,1,3
16634.062,-0.492,0.183,0.824,1.53,1.53,-1.68,1,3
16634.078,-0.496,0.181,0.827,0.55,2.17,-1.8,1,3
16634.093,-0.498,0.181,0.836,0.21,2.81,-1.56,1,3
16634.093,-0.495,0.185,0.841,0.61,3.02,-1.43,1,3
16634.109,-0.494,0.188,0.846,1.13,3.05,-1.43,1,3
16634.125,-0.495,0.19,0.845,1.4,2.84,-1.71,1,3
16634.125,-0.493,0.188,0.844,1.56,2.44,-1.74,1,3
16634.14,-0.49,0.188,0.844,1.74,2.41,-1.59,1,3
16634.156,-0.49,0.188,0.844,2.14,2.75,-1.77,1,3
16634.156,-0.495,0.185,0.845,2.56,2.96,-1.43,1,3
16634.171,-0.494,0.186,0.847,2.5,2.78,-0.95,1,3
16634.171,-0.49,0.187,0.847,2.14,2.41,-0.85,1,3
16634.187,-0.488,0.184,0.847,2.01,2.23,-1.04,1,3
16634.203,-0.491,0.184,0.852,2.38,2.17,-1.04,1,3
16634.218,-0.492,0.184,0.853,2.87,2.01,-0.89,1,3
16634.218,-0.49,0.187,0.851,3.02,1.5,-0.76,1,3
16634.234,-0.494,0.187,0.851,3.2,1.22,-1.04,1,3
16634.234,-0.502,0.186,0.853,3.11,0.58,-0.76,1,3
16634.25,-0.499,0.184,0.848,2.96,-0.4,-0.34,1,3
16634.265,-0.493,0.183,0.843,2.87,-0.85,-0.21,1,3
16634.265,-0.494,0.182,0.841,2.9,-0.67,-0.46,1,3
16634.281,-0.495,0.181,0.841,2.99,-0.31,-0.61,1,3
16634.281,-0.493,0.179,0.84,2.96,0.0,-0.67,1,3
16634.296,-0.494,0.18,0.838,3.02,0.24,-0.79,1,3
16634.312,-0.499,0.178,0.838,3.27,0.43,-0.76,1,3
16634.312,-0.499,0.178,0.839,3.02,0.61,-0.76,1,3
16634.328,-0.496,0.181,0.839,2.72,0.79,-0.7,1,3
16634.343,-0.499,0.181,0.842,2.35,0.89,-0.73,1,3
16634.343,-0.498,0.178,0.843,2.08,0.67,-0.7,1,3
16634.359,-0.496,0.178,0.84,1.98,0.37,-0.73,1,3
16634.375,-0.498,0.179,0.838,1.8,0.12,-0.89,1,3
16634.375,-0.5,0.177,0.835,1.68,0.03,-1.16,1,3
16634.39,-0.502,0.174,0.834,1.89,0.03,-1.43,1,3
16634.39,-0.505,0.177,0.831,2.66,0.58,-1.74,1,3
16634.406,-0.508,0.18,0.828,3.2,1.16,-1.95,1,3
16634.421,-0.513,0.184,0.825,3.11,1.71,-1.68,1,3
16634.421,-0.508,0.178,0.824,2.87,2.11,-1.59,1,3
16634.437,-0.504,0.18,0.825,2.04,2.53,-1.37,1,3
16634.453,-0.505,0.178,0.827,1.22,2.41,-1.01,1,3
16634.453,-0.498,0.177,0.825,0.64,1.89,-0.79,1,3
16634.468,-0.496,0.177,0.824,0.46,1.59,-1.1,1,3
16634.484,-0.499,0.176,0.822,0.98,1.62,-1.71,1,3
16634.484,-0.504,0.179,0.82,1.62,1.74,-2.04,1,3
16634.5,-0.503,0.182,0.824,1.83,1.92,-2.41,1,3
16634.515,-0.505,0.187,0.821,2.01,2.41,-2.59,1,3
16634.515,-0.506,0.187,0.821,1.74,2.99,-2.5,1,3
16634.531,-0.509,0.19,0.82,1.13,3.66,-2.01,1,3
16634.531,-0.505,0.19,0.82,0.37,4.06,-1.56,1,3
16634.546,-0.502,0.192,0.819,-0.18,4.58,-1.5,1,3
16634.562,-0.504,0.195,0.823,-0.37,5.31,-1.22,1,3
16634.562,-0.506,0.197,0.829,-0.61,5.65,-0.85,1,3
16634.578,-0.51,0.199,0.836,-0.67,5.83,-0.49,1,3
16634.593,-0.512,0.2,0.84,-0.67,5.68,-0.18,1,3
16634.593,-0.513,0.202,0.844,-0.82,5.1,0.12,1,3
16634.609,-0.509,0.201,0.844,-0.85,4.58,0.12,1,3
16634.609,-0.511,0.2,0.846,-0.76,4.3,-0.03,1,3
16634.625,-0.517,0.198,0.848,-0.49,3.72,-0.15,1,3
16634.64,-0.518,0.196,0.848,0.21,3.14,-0.52,1,3
16634.656,-0.516,0.198,0.847,1.16,2.44,-0.82,1,3
16634.656,-0.517,0.195,0.843,1.95,1.89,-1.34,1,3
16634.671,-0.513,0.197,0.836,2.72,1.28,-1.86,1,3
16634.671,-0.511,0.2,0.831,3.3,0.92,-2.11,1,3
16634.687,-0.509,0.203,0.827,3.72,0.67,-2.26,1,3
16634.703,-0.507,0.203,0.822,3.91,0.43,-2.23,1,3
16634.703,-0.505,0.202,0.82,3.91,0.24,-1.83,1,3
16634.718,-0.504,0.202,0.818,3.48,0.27,-1.46,1,3
16634.734,-0.504,0.202,0.815,2.96,0.49,-0.85,1,3
16634.734,-0.507,0.198,0.817,2.56,0.89,-0.09,1,3
16634.75,-0.506,0.198,0.82,2.23,1.28,0.34,1,3
16634.75,-0.509,0.197,0.822,1.98,1.5,0.52,1,3
16634.765,-0.513,0.195,0.822,2.01,1.31,0.4,1,3
16634.781,-0.52,0.193,0.823,2.81,0.61,-0.09,1,3
16634.781,-0.523,0.192,0.824,3.81,-0.18,-0.92,1,3
16634.796,-0.528,0.192,0.822,5.13,-0.98,-1.92,1,3
16634.812,-0.529,0.189,0.818,6.56,-1.46,-2.78,1,3
16634.812,-0.532,0.193,0.813,8.12,-1.5,-3.57,1,3
16634.828,-0.534,0.195,0.81,8.97,-1.25,-4.09,1,3
16634.843,-0.536,0.195,0.805,9.0,-0.73,-4.24,1,3
16634.843,-0.538,0.196,0.802,8.36,-0.06,-4.03,1,3
16634.859,-0.536,0.199,0.804,6.71,0.58,-3.72,1,3
16634.875,-0.53,0.2,0.81,5.04,1.07,-3.27,1,3
16634.875,-0.529,0.201,0.815,3.88,1.62,-2.72,1,3
16634.89,-0.53,0.205,0.819,3.42,2.26,-2.17,1,3
16634.89,-0.528,0.208,0.822,3.3,2.47,-1.37,1,3
16634.906,-0.527,0.212,0.826,3.14,2.35,-0.7,1,3
16634.921,-0.526,0.212,0.827,2.93,2.35,0.15,1,3
16634.921,-0.526,0.209,0.825,2.78,2.29,1.04,1,3
16634.937,-0.527,0.205,0.824,2.41,2.14,1.8,1,3
16634.953,-0.526,0.202,0.822,2.2,1.92,2.62,1,3
16634.968,-0.528,0.196,0.82,1.89,1.65,3.2,1,3
16634.968,-0.528,0.19,0.822,1.5,1.37,3.54,1,3
16634.984,-0.528,0.183,0.821,1.04,1.04,3.57,1,3
16634.984,-0.527,0.179,0.821,0.7,0.79,3.3,1,3
16635.0,-0.524,0.178,0.82,0.73,0.98,2.81,1,3
16635.0,-0.526,0.178,0.818,1.01,1.28,2.17,1,3
16635.015,-0.53,0.18,0.821,0.95,1.62,1.65,1,3
16635.031,-0.527,0.182,0.818,0.49,1.31,1.4,1,3
16635.046,-0.523,0.183,0.815,0.09,1.01,0.92,1,3
16635.046,-0.519,0.181,0.819,-0.15,1.34,0.52,1,3
16635.062,-0.522,0.182,0.821,-0.03,1.68,0.21,1,3
16635.062,-0.519,0.184,0.818,0.24,1.56,0.15,1,3
16635.078,-0.516,0.186,0.818,0.34,1.37,-0.15,1,3
16635.093,-0.517,0.185,0.82,0.43,1.25,-0.76,1,3
16635.093,-0.523,0.186,0.822,0.73,1.16,-1.62,1,3
16635.109,-0.529,0.188,0.825,1.53,1.07,-2.32,1,3
16635.125,-0.535,0.193,0.828,2.14,1.04,-2.53,1,3
16635.125,-0.533,0.197,0.827,2.04,0.31,-2.53,1,3
16635.14,-0.531,0.196,0.823,1.77,-0.64,-2.69,1,3
16635.14,-0.53,0.197,0.82,1.5,-1.16,-2.75,1,3
16635.156,-0.529,0.194,0.816,1.59,-1.34,-2.81,1,3
16635.171,-0.526,0.197,0.811,1.68,-1.04,-3.08,1,3
16635.171,-0.531,0.2,0.809,1.83,-0.55,-3.3,1,3
16635.187,-0.538,0.202,0.811,1.74,0.12,-3.17,1,3
16635.203,-0.542,0.202,0.813,1.43,0.18,-2.87,1,3
16635.203,-0.541,0.204,0.81,0.92,0.15,-2.59,1,3
16635.218,-0.542,0.204,0.81,0.67,-0.09,-2.38,1,3
16635.234,-0.538,0.202,0.811,0.31,-0.03,-2.26,1,3
16635.234,-0.535,0.203,0.814,0.06,0.0,-2.04,1,3
16635.25,-0.535,0.202,0.813,0.09,-0.15,-2.01,1,3
16635.265,-0.533,0.199,0.81,0.31,-0.61,-1.98,1,3
16635.265,-0.527,0.2,0.806,0.55,-0.89,-2.26,1,3
16635.281,-0.525,0.201,0.798,1.01,-1.01,-2.5,1,3
16635.281,-0.526,0.203,0.793,1.53,-0.64,-2.72,1,3
16635.296,-0.527,0.206,0.788,1.65,-0.03,-2.78,1,3
16635.312,-0.527,0.202,0.786,1.34,0.55,-2.59,1,3
16635.312,-0.529,0.201,0.786,0.98,1.25,-2.72,1,3
16635.328,-0.534,0.203,0.787,0.64,1.74,-2.66,1,3
16635.343,-0.534,0.204,0.786,0.27,2.08,-2.14,1,3
16635.343,-0.534,0.208,0.785,-0.31,2.5,-1.86,1,3
16635.359,-0.538,0.211,0.789,-0.85,2.96,-1.92,1,3
16635.375,-0.533,0.214,0.795,-1.74,3.08,-2.08,1,3
16635.375,-0.536,0.211,0.797,-0.92,3.97,-2.23,1,3
16635.39,-0.538,0.219,0.806,-0.67,4.33,-2.14,1,3
16635.39,-0.539,0.222,0.805,-0.12,3.97,-1.77,1,3
16635.406,-0.539,0.229,0.808,0.0,3.72,-1.37,1,3
16635.421,-0.539,0.228,0.805,0.06,3.6,-0.82,1,3
16635.421,-0.539,0.225,0.806,-0.12,3.69,-0.09,1,3
16635.437,-0.536,0.23,0.803,-0.58,3.88,0.43,1,3
16635.453,-0.538,0.229,0.806,-1.13,4.0,1.07,1,3
16635.453,-0.539,0.226,0.807,-1.4,3.97,1.83,1,3
16635.468,-0.541,0.227,0.81,-1.74,4.0,2.23,1,3
16635.484,-0.542,0.223,0.811,-1.77,3.85,2.41,1,3
16635.5,-0.541,0.22,0.808,-1.5,3.63,2.78,1,3
16635.5,-0.541,0.218,0.805,-1.53,3.51,3.02,1,3
16635.5,-0.537,0.216,0.8,-1.59,3.66,2.99,1,3
16635.515,-0.538,0.218,0.804,-1.74,4.24,3.2,1,3
16635.531,-0.538,0.216,0.803,-1.74,4.61,3.45,1,3
16635.531,-0.537,0.216,0.807,-2.08,4.91,3.97,1,3
16635.546,-0.536,0.216,0.811,-2.62,5.13,4.39,1,3
16635.562,-0.541,0.214,0.818,-2.5,5.43,4.82,1,3
16635.578,-0.535,0.216,0.821,-3.02,4.91,4.94,1,3
16635.578,-0.537,0.214,0.824,-3.17,4.61,4.88,1,3
16635.593,-0.538,0.213,0.831,-2.72,4.27,5.04,1,3
16635.593,-0.537,0.213,0.832,-2.08,3.42,5.16,1,3
16635.609,-0.537,0.213,0.83,-1.77,2.56,5.19,1,3
16635.625,-0.539,0.211,0.828,-1.56,1.8,5.1,1,3
16635.625,-0.542,0.211,0.826,-1.62,1.28,5.01,1,3
16635.64,-0.543,0.209,0.826,-1.65,0.43,5.16,1,3
16635.64,-0.544,0.206,0.82,-1.65,-0.49,5.28,1,3
16635.656,-0.542,0.203,0.814,-1.74,-0.98,5.31,1,3
16635.671,-0.54,0.198,0.808,-1.86,-1.04,5.19,1,3
16635.671,-0.539,0.199,0.808,-1.95,-1.04,4.94,1,3
16635.687,-0.539,0.197,0.808,-1.83,-0.82,4.64,1,3
16635.703,-0.542,0.194,0.807,-1.5,-0.67,4.15,1,3
16635.703,-0.548,0.194,0.808,-0.82,-0.43,3.69,1,3
16635.718,-0.553,0.199,0.811,-0.43,-0.79,3.48,1,3
16635.734,-0.553,0.201,0.811,-0.55,-1.68,3.45,1,3
16635.734,-0.552,0.202,0.808,-1.19,-2.72,3.45,1,3
16635.75,-0.556,0.198,0.806,-1.68,-3.45,3.42,1,3
16635.765,-0.558,0.196,0.802,-1.71,-4.03,3.42,1,3
16635.765,-0.555,0.197,0.797,-1.71,-4.12,3.27,1,3
16635.781,-0.56,0.193,0.791,-1.74,-3.81,3.11,1,3
16635.796,-0.564,0.194,0.791,-1.77,-3.54,3.05,1,3
16635.796,-0.564,0.196,0.787,-2.32,-3.05,2.9,1,3
16635.812,-0.564,0.196,0.787,-2.78,-2.41,2.78,1,3
16635.812,-0.566,0.194,0.79,-3.14,-1.98,2.69,1,3
16635.828,-0.563,0.195,0.788,-3.48,-1.62,2.84,1,3
16635.843,-0.562,0.195,0.789,-3.39,-1.31,2.93,1,3
16635.843,-0.564,0.195,0.795,-3.45,-0.85,2.9,1,3
16635.859,-0.564,0.194,0.792,-3.42,-0.73,2.96,1,3
16635.875,-0.564,0.193,0.793,-3.63,-0.82,2.5,1,3
16635.875,-0.565,0.192,0.795,-3.72,-0.55,2.14,1,3
16635.89,-0.562,0.193,0.798,-3.91,-0.46,2.08,1,3
16635.89,-0.557,0.192,0.804,-4.15,-0.55,1.86,1,3
16635.906,-0.56,0.189,0.809,-3.88,-0.98,1.46,1,3
16635.921,-0.557,0.189,0.808,-3.17,-1.89,0.95,1,3
16635.921,-0.554,0.189,0.804,-2.29,-2.99,0.18,1,3
16635.937,-0.55,0.189,0.8,-0.89,-3.91,-0.76,1,3
16635.953,-0.549,0.192,0.793,0.24,-4.64,-1.4,1,3
16635.953,-0.55,0.193,0.786,0.82,-4.7,-1.83,1,3
16635.968,-0.554,0.182,0.79,1.22,-4.88,-2.35,1,3
16635.984,-0.542,0.186,0.769,1.86,-4.82,-3.42,1,3
16635.984,-0.562,0.172,0.781,3.78,-3.72,-3.97,1,3
16636.0,-0.545,0.189,0.758,3.91,-3.48,-4.52,1,3
16636.015,-0.551,0.188,0.774,3.6,-2.14,-5.19,1,3
16636.015,-0.55,0.183,0.77,3.39,-1.89,-5.8,1,3
16636.031,-0.555,0.188,0.777,3.17,-1.46,-5.4,1,3
16636.031,-0.547,0.19,0.761,3.05,-1.22,-5.22,1,3
16636.046,-0.553,0.194,0.769,2.56,0.09,-5.34,1,3
16636.062,-0.554,0.201,0.774,1.16,0.34,-5.49,1,3
16636.062,-0.558,0.199,0.779,0.24,0.82,-5.1,1,3
16636.078,-0.559,0.204,0.782,0.03,1.62,-4.24,1,3
16636.093,-0.555,0.209,0.783,-0.49,2.47,-3.33,1,3
16636.093,-0.55,0.206,0.787,-1.46,2.96,-2.75,1,3
16636.109,-0.549,0.209,0.791,-2.59,3.39,-2.14,1,3
16636.125,-0.553,0.202,0.797,-3.17,3.81,-1.46,1,3
16636.125,-0.55,0.199,0.803,-3.39,3.78,-0.73,1,3
16636.14,-0.547,0.197,0.806,-3.02,3.75,-0.34,1,3
16636.156,-0.547,0.194,0.808,-2.53,3.66,-0.58,1,3
16636.156,-0.547,0.194,0.813,-2.2,3.36,-0.79,1,3
16636.171,-0.544,0.195,0.813,-1.34,3.08,-0.98,1,3
16636.171,-0.544,0.195,0.815,-0.27,2.87,-1.31,1,3
16636.187,-0.547,0.194,0.814,0.58,2.66,-1.37,1,3
16636.203,-0.545,0.194,0.814,0.95,2.41,-1.01,1,3
16636.203,-0.544,0.196,0.815,0.82,1.89,-0.7,1,3
16636.218,-0.543,0.193,0.816,0.58,1.5,-0.55,1,3
16636.234,-0.543,0.192,0.817,0.55,0.73,-0.12,1,3
16636.234,-0.538,0.191,0.815,0.58,-0.06,-0.06,1,3
16636.25,-0.535,0.191,0.816,0.89,-0.7,-0.21,1,3
16636.25,-0.538,0.191,0.815,1.56,-1.19,-0.61,1,3
16636.265,-0.538,0.194,0.811,2.5,-1.77,-0.76,1,3
16636.281,-0.537,0.198,0.807,3.11,-2.11,-0.82,1,3
16636.281,-0.54,0.197,0.802,3.6,-2.17,-0.89,1,3
16636.296,-0.546,0.196,0.8,3.63,-2.2,-0.85,1,3
16636.312,-0.547,0.196,0.796,3.33,-2.2,-0.67,1,3
16636.328,-0.547,0.192,0.796,3.05,-2.53,-0.64,1,3
16636.328,-0.552,0.188,0.798,2.93,-2.75,-1.04,1,3
16636.343,-0.552,0.188,0.794,3.42,-2.72,-1.28,1,3
16636.343,-0.552,0.19,0.788,3.75,-2.66,-1.77,1,3
16636.359,-0.551,0.192,0.782,4.0,-2.41,-2.5,1,3
16636.375,-0.552,0.198,0.78,4.27,-1.77,-3.11,1,3
16636.375,-0.554,0.202,0.778,4.33,-0.52,-2.93,1,3
16636.39,-0.556,0.206,0.778,3.6,-0.03,-2.26,1,3
16636.406,-0.56,0.209,0.782,2.93,0.0,-1.8,1,3
16636.406,-0.556,0.207,0.784,2.35,0.34,-1.43,1,3
16636.421,-0.548,0.212,0.787,1.77,0.95,-1.1,1,3
16636.421,-0.551,0.209,0.79,1.56,1.34,-0.61,1,3
16636.437,-0.549,0.213,0.794,1.56,1.4,-0.06,1,3
16636.453,-0.55,0.212,0.797,1.46,1.25,0.24,1,3
16636.453,-0.555,0.211,0.805,1.53,0.76,0.34,1,3
16636.468,-0.554,0.21,0.807,2.14,0.0,0.46,1,3
16636.484,-0.553,0.207,0.805,2.96,-0.7,0.49,1,3
16636.484,-0.552,0.206,0.799,3.75,-1.16,0.18,1,3
16636.5,-0.552,0.205,0.796,4.58,-1.34,-0.31,1,3
16636.515,-0.551,0.204,0.789,5.34,-1.19,-0.7,1,3
16636.515,-0.551,0.208,0.785,5.58,-0.58,-1.13,1,3
16636.531,-0.556,0.206,0.784,5.98,-0.24,-1.53,1,3
16636.546,-0.559,0.206,0.785,6.1,0.12,-1.34,1,3
16636.546,-0.553,0.205,0.784,5.71,0.03,-1.07,1,3
16636.562,-0.55,0.204,0.781,5.28,-0.06,-1.16,1,3
16636.562,-0.553,0.204,0.782,5.01,0.12,-1.25,1,3
16636.578,-0.556,0.202,0.784,5.16,0.21,-1.13,1,3
16636.593,-0.557,0.201,0.782,5.22,-0.03,-1.16,1,3
16636.593,-0.558,0.203,0.778,5.34,-0.24,-1.37,1,3
16636.609,-0.556,0.2,0.775,5.68,-0.31,-1.77,1,3
16636.625,-0.553,0.2,0.767,5.95,0.09,-2.29,1,3
16636.625,-0.556,0.202,0.763,6.38,0.73,-2.84,1,3
16636.64,-0.559,0.2,0.764,7.05,1.53,-3.23,1,3
16636.64,-0.557,0.207,0.763,7.51,2.53,-3.54,1,3
16636.656,-0.559,0.21,0.764,6.96,3.33,-3.63,1,3
16636.671,-0.557,0.21,0.767,6.2,3.91,-3.27,1,3
16636.671,-0.561,0.214,0.771,5.25,4.88,-2.84,1,3
16636.687,-0.562,0.214,0.778,3.75,5.65,-2.47,1,3
16636.703,-0.562,0.214,0.789,2.59,6.1,-2.41,1,3
16636.703,-0.562,0.215,0.796,2.04,6.35,-2.38,1,3
16636.718,-0.557,0.218,0.803,1.68,6.26,-2.14,1,3
16636.734,-0.552,0.219,0.81,1.43,5.86,-2.32,1,3
16636.734,-0.55,0.219,0.816,1.53,5.43,-2.84,1,3
16636.75,-0.551,0.22,0.819,2.14,4.91,-3.45,1,3
16636.765,-0.549,0.223,0.82,3.17,4.18,-3.78,1,3
16636.765,-0.551,0.225,0.822,4.12,3.51,-4.18,1,3
16636.781,-0.552,0.228,0.823,5.07,2.62,-4.33,1,3
16636.781,-0.552,0.227,0.821,5.62,1.86,-4.36,1,3
16636.796,-0.558,0.231,0.818,5.92,1.37,-4.33,1,3
16636.812,-0.562,0.232,0.815,5.65,0.73,-3.75,1,3
16636.812,-0.564,0.238,0.811,4.46,-0.27,-3.17,1,3
16636.828,-0.554,0.216,0.798,3.78,-1.25,-3.02,1,3
16636.843,-0.564,0.236,0.8,3.11,-1.71,-2.17,1,3
16636.859,-0.551,0.226,0.798,2.93,-2.5,-1.04,1,3
16636.859,-0.558,0.219,0.791,3.75,-2.29,-0.73,1,3
16636.859,-0.559,0.237,0.801,2.53,-2.72,-0.49,1,3
16636.875,-0.564,0.211,0.775,3.02,-2.87,-0.24,1,3
16636.89,-0.563,0.226,0.787,2.81,-2.01,0.4,1,3
16636.906,-0.563,0.222,0.799,2.14,-1.89,0.03,1,3
16636.906,-0.567,0.213,0.783,2.5,-1.95,0.09,1,3
16636.921,-0.57,0.221,0.793,2.72,-1.34,0.58,1,3
16636.921,-0.57,0.218,0.794,2.62,-2.04,0.34,1,3
16636.937,-0.567,0.219,0.782,2.56,-2.56,0.31,1,3
16636.953,-0.574,0.224,0.792,2.04,-2.75,0.49,1,3
16636.953,-0.573,0.221,0.788,1.98,-3.33,0.52,1,3
16636.968,-0.571,0.225,0.788,1.5,-3.66,0.73,1,3
16636.984,-0.571,0.221,0.787,1.28,-4.12,0.58,1,3
16636.984,-0.572,0.221,0.786,1.5,-4.36,0.31,1,3
16637.0,-0.575,0.221,0.786,2.23,-4.39,0.24,1,3
16637.015,-0.579,0.223,0.78,2.87,-4.67,0.43,1,3
16637.015,-0.58,0.226,0.775,2.72,-5.25,0.55,1,3
16637.031,-0.58,0.221,0.772,1.95,-5.89,0.67,1,3
16637.031,-0.578,0.218,0.771,1.19,-6.29,0.95,1,3
16637.046,-0.576,0.217,0.765,0.79,-6.44,1.22,1,3
16637.062,-0.575,0.214,0.761,0.76,-6.04,1.07,1,3
16637.078,-0.576,0.214,0.759,0.67,-5.62,0.95,1,3
16637.078,-0.574,0.213,0.757,0.37,-5.01,0.73,1,3
16637.093,-0.574,0.213,0.755,-0.03,-4.18,0.55,1,3
16637.093,-0.577,0.212,0.754,-0.34,-3.39,0.31,1,3
16637.109,-0.578,0.216,0.758,-0.82,-2.69,0.21,1,3
16637.125,-0.581,0.219,0.761,-1.4,-2.08,0.18,1,3
16637.125,-0.582,0.224,0.768,-2.53,-2.08,0.15,1,3
16637.14,-0.568,0.216,0.764,-3.57,-2.01,0.34,1,3
16637.156,-0.578,0.221,0.774,-3.57,-1.16,0.24,1,3
16637.156,-0.573,0.223,0.777,-3.54,-1.22,0.49,1,3
16637.171,-0.57,0.221,0.78,-4.0,-1.62,0.18,1,3
16637.171,-0.566,0.216,0.78,-3.66,-1.89,-0.12,1,3
16637.187,-0.566,0.222,0.789,-2.93,-2.2,-0.55,1,3
16637.203,-0.558,0.221,0.784,-2.23,-2.78,-1.07,1,3
16637.203,-0.558,0.222,0.784,-1.59,-2.99,-1.68,1,3
16637.218,-0.558,0.223,0.782,-1.22,-3.17,-2.04,1,3
16637.234,-0.558,0.227,0.778,-1.01,-3.45,-2.26,1,3
16637.234,-0.558,0.229,0.774,-1.28,-3.48,-2.23,1,3
16637.25,-0.564,0.236,0.772,-2.01,-3.33,-1.98,1,3
16637.25,-0.566,0.242,0.772,-3.2,-3.63,-1.19,1,3
16637.265,-0.566,0.248,0.776,-5.01,-3.94,-0.09,1,3
16637.281,-0.572,0.25,0.779,-6.96,-4.06,1.46,1,3
16637.281,-0.576,0.256,0.783,-9.43,-4.43,3.54,1,3
16637.296,-0.571,0.259,0.782,-12.24,-5.28,5.83,1,3
16637.312,-0.565,0.256,0.78,-14.89,-5.4,8.33,1,3
16637.312,-0.561,0.258,0.79,-17.79,-5.49,10.56,1,3
16637.328,-0.563,0.256,0.801,-20.6,-6.16,12.79,1,3
16637.343,-0.559,0.251,0.816,-23.35,-7.87,14.77,1,3
16637.359,-0.572,0.243,0.835,-24.29,-10.38,16.11,1,3
16637.359,-0.58,0.243,0.851,-24.81,-14.37,17.43,1,3
16637.375,-0.575,0.243,0.864,-26.95,-24.84,19.47,1,3
16637.375,-0.577,0.258,0.867,-28.29,-31.07,21.76,1,3
16637.39,-0.598,0.241,0.888,-29.39,-37.9,26.18,1,3
16637.406,-0.566,0.277,0.88,-30.92,-43.76,31.01,1,3
16637.406,-0.547,0.268,0.878,-33.78,-48.43,35.49,1,3
16637.421,-0.524,0.256,0.87,-36.13,-51.36,39.89,1,3
16637.437,-0.489,0.227,0.85,-36.5,-51.58,43.58,1,3
16637.437,-0.462,0.209,0.834,-35.55,-49.23,45.05,1,3
16637.453,-0.443,0.21,0.844,-33.08,-45.44,45.29,1,3
16637.453,-0.433,0.184,0.841,-27.5,-41.66,44.62,1,3
16637.468,-0.436,0.184,0.838,-22.71,-37.87,43.09,1,3
16637.484,-0.429,0.192,0.853,-20.75,-35.55,41.02,1,3
16637.484,-0.441,0.169,0.85,-18.8,-34.15,38.12,1,3
16637.5,-0.452,0.168,0.869,-17.73,-33.66,35.49,1,3
16637.515,-0.453,0.154,0.869,-14.56,-33.81,33.39,1,3
16637.515,-0.441,0.16,0.855,-12.39,-33.05,31.95,1,3
16637.531,-0.431,0.165,0.843,-11.2,-31.53,30.46,1,3
16637.531,-0.428,0.166,0.846,-11.05,-29.94,28.81,1,3
16637.546,-0.421,0.16,0.843,-11.6,-28.5,27.31,1,3
16637.562,-0.408,0.157,0.834,-12.51,-26.43,25.79,1,3
16637.562,-0.394,0.151,0.838,-13.67,-24.2,23.29,1,3
16637.578,-0.381,0.138,0.841,-13.82,-22.0,19.59,1,3
16637.593,-0.373,0.125,0.837,-11.81,-18.52,15.63,1,3
16637.593,-0.365,0.117,0.827,-8.48,-14.1,11.26,1,3
16637.609,-0.358,0.123,0.824,-5.65,-9.06,6.41,1,3
16637.625,-0.367,0.13,0.832,-3.17,-4.09,1.34,1,3
16637.625,-0.388,0.14,0.839,-1.4,0.52,-2.08,1,3
16637.64,-0.411,0.165,0.862,-1.86,3.57,-3.66,1,3
16637.656,-0.447,0.184,0.897,-3.94,3.63,-3.42,1,3
16637.656,-0.463,0.186,0.916,-5.74,0.46,-0.82,1,3
16637.671,-0.448,0.19,0.912,-7.05,-3.66,2.87,1,3
16637.671,-0.423,0.189,0.892,-8.24,-6.84,5.58,1,3
16637.687,-0.404,0.185,0.873,-10.25,-8.48,6.44,1,3
16637.703,-0.389,0.165,0.863,-11.69,-8.73,5.71,1,3
16637.703,-0.387,0.151,0.859,-10.38,-6.74,4.55,1,3
16637.718,-0.397,0.151,0.859,-7.26,-3.27,3.63,1,3
16637.734,-0.414,0.154,0.857,-4.94,-0.31,3.05,1,3
16637.734,-0.415,0.16,0.867,-5.49,1.19,2.75,1,3
16637.75,-0.418,0.159,0.878,-7.51,1.56,2.29,1,3
16637.765,-0.413,0.152,0.881,-9.7,1.16,1.95,1,3
16637.765,-0.405,0.152,0.875,-10.99,1.04,1.53,1,3
16637.781,-0.407,0.157,0.874,-12.45,1.53,1.07,1,3
16637.796,-0.392,0.153,0.867,-13.52,2.01,0.85,1,3
16637.796,-0.381,0.155,0.857,-14.1,3.75,0.76,1,3
16637.812,-0.377,0.156,0.848,-14.59,6.23,0.34,1,3
16637.812,-0.384,0.162,0.851,-16.33,8.79,-0.06,1,3
16637.828,-0.382,0.16,0.86,-19.04,10.19,-0.37,1,3
16637.843,-0.381,0.152,0.866,-21.39,11.41,-0.95,1,3
16637.843,-0.393,0.152,0.895,-23.44,12.27,-1.62,1,3
16637.859,-0.403,0.14,0.929,-24.35,11.69,-1.86,1,3
16637.875,-0.401,0.133,0.941,-23.68,9.67,-2.04,1,3
16637.875,-0.406,0.135,0.952,-21.58,7.66,-2.26,1,3
16637.89,-0.409,0.127,0.944,-18.95,5.19,-2.29,1,3
16637.89,-0.394,0.128,0.93,-16.79,2.9,-2.81,1,3
16637.906,-0.378,0.127,0.912,-14.86,1.83,-5.01,1,3
16637.921,-0.378,0.13,0.902,-13.25,2.32,-8.21,1,3
16637.921,-0.384,0.131,0.903,-11.72,3.27,-10.65,1,3
16637.937,-0.386,0.134,0.891,-11.29,4.21,-12.63,1,3
16637.953,-0.379,0.136,0.876,-12.97,5.65,-14.74,1,3
16637.953,-0.384,0.132,0.889,-14.13,7.32,-17.0,1,3
16637.968,-0.402,0.124,0.906,-13.18,8.09,-18.8,1,3
16637.984,-0.409,0.118,0.911,-11.26,7.66,-18.95,1,3
16637.984,-0.415,0.12,0.915,-8.73,7.02,-18.28,1,3
16638.0,-0.43,0.122,0.909,-5.89,6.29,-16.97,1,3
16638.015,-0.442,0.13,0.916,-5.62,4.73,-14.92,1,3
16638.015,-0.441,0.13,0.912,-7.02,2.66,-12.91,1,3
16638.031,-0.437,0.12,0.894,-8.67,1.1,-11.08,1,3
16638.031,-0.43,0.115,0.888,-9.7,0.85,-9.49,1,3
16638.046,-0.433,0.109,0.877,-10.13,1.98,-8.61,1,3
16638.062,-0.431,0.104,0.866,-10.93,3.72,-7.87,1,3
16638.062,-0.431,0.098,0.863,-11.63,5.74,-7.39,1,3
16638.078,-0.441,0.092,0.862,-11.75,8.03,-7.08,1,3
16638.093,-0.442,0.087,0.876,-12.12,9.8,-6.65,1,3
16638.093,-0.46,0.089,0.909,-11.17,10.83,-6.35,1,3
16638.109,-0.473,0.076,0.913,-7.63,10.22,-4.94,1,3
16638.125,-0.467,0.085,0.907,-4.58,9.16,-2.2,1,3
16638.125,-0.452,0.092,0.894,-3.3,8.39,-0.37,1,3
16638.14,-0.435,0.088,0.881,-4.39,8.09,-0.06,1,3
16638.14,-0.425,0.08,0.881,-5.46,8.73,-0.61,1,3
16638.156,-0.421,0.077,0.888,-4.36,10.38,-1.65,1,3
16638.171,-0.425,0.08,0.89,-1.77,12.12,-2.69,1,3
16638.187,-0.427,0.085,0.89,0.4,13.34,-3.57,1,3
16638.187,-0.428,0.094,0.89,2.04,14.34,-4.27,1,3
16638.203,-0.436,0.1,0.895,3.2,15.29,-4.82,1,3
16638.203,-0.451,0.102,0.895,4.52,16.21,-4.64,1,3
16638.218,-0.467,0.109,0.9,4.27,15.53,-3.54,1,3
16638.234,-0.474,0.108,0.905,3.05,13.28,-1.95,1,3
16638.25,-0.474,0.109,0.909,1.65,10.07,-0.55,1,3
16638.25,-0.465,0.103,0.906,0.43,6.53,-0.18,1,3
16638.25,-0.453,0.098,0.889,0.03,3.85,-0.52,1,3
16638.265,-0.445,0.096,0.873,0.79,2.69,-1.22,1,3
16638.281,-0.438,0.093,0.851,2.23,3.05,-2.11,1,3
16638.281,-0.436,0.092,0.838,3.39,4.46,-3.23,1,3
16638.296,-0.442,0.095,0.833,4.3,6.71,-4.24,1,3
16638.312,-0.458,0.096,0.834,4.88,9.22,-4.88,1,3
16638.312,-0.47,0.097,0.845,5.62,11.32,-4.76,1,3
16638.328,-0.484,0.107,0.857,6.32,12.67,-4.09,1,3
16638.343,-0.488,0.116,0.861,5.52,12.54,-2.62,1,3
16638.343,-0.478,0.117,0.867,2.29,10.62,-1.16,1,3
16638.359,-0.472,0.11,0.866,1.92,10.53,-1.31,1,3
16638.375,-0.468,0.107,0.86,2.14,11.05,-1.53,1,3
16638.375,-0.465,0.107,0.856,2.56,12.27,-1.77,1,3
16638.39,-0.466,0.102,0.846,2.96,13.73,-2.01,1,3
16638.39,-0.471,0.098,0.845,3.57,15.75,-2.26,1,3
16638.406,-0.476,0.099,0.85,4.43,17.67,-2.53,1,3
16638.421,-0.479,0.099,0.851,5.68,18.98,-2.66,1,3
16638.437,-0.485,0.098,0.852,6.53,19.9,-2.72,1,3
16638.437,-0.49,0.103,0.86,6.9,20.05,-2.9,1,3
16638.453,-0.498,0.103,0.859,7.08,19.78,-2.69,1,3
16638.453,-0.501,0.111,0.86,6.13,18.95,-1.5,1,3
16638.468,-0.498,0.116,0.859,3.97,17.7,-0.4,1,3
16638.484,-0.496,0.116,0.858,1.56,16.42,0.0,1,3
16638.5,-0.499,0.107,0.861,0.03,15.53,0.18,1,3
16638.5,-0.502,0.101,0.862,0.12,15.53,0.43,1,3
16638.5,-0.504,0.099,0.858,1.13,15.78,0.43,1,3
16638.515,-0.506,0.098,0.854,1.92,16.42,0.24,1,3
16638.531,-0.51,0.096,0.853,2.08,17.27,0.0,1,3
16638.546,-0.516,0.093,0.853,1.68,17.94,0.03,1,3
16638.546,-0.527,0.092,0.861,1.28,18.04,0.15,1,3
16638.562,-0.539,0.088,0.868,1.01,16.97,0.7,1,3
16638.562,-0.531,0.087,0.846,0.0,15.41,0.85,1,3
16638.578,-0.528,0.08,0.862,-0.58,14.71,0.4,1,3
16638.593,-0.523,0.073,0.842,-0.09,14.34,-0.79,1,3
16638.609,-0.523,0.083,0.841,0.4,15.53,-1.34,1,3
16638.609,-0.53,0.079,0.837,0.7,17.03,-1.95,1,3
16638.625,-0.534,0.075,0.835,0.18,18.19,-2.01,1,3
16638.625,-0.535,0.077,0.825,-0.82,19.78,-2.26,1,3
16638.64,-0.541,0.073,0.838,-1.59,21.58,-2.35,1,3
16638.656,-0.548,0.066,0.839,-1.68,22.77,-2.35,1,3
16638.656,-0.556,0.071,0.846,-1.89,23.65,-1.98,1,3
16638.671,-0.559,0.072,0.85,-2.29,23.38,-1.62,1,3
16638.671,-0.557,0.07,0.849,-3.42,22.64,-1.53,1,3
16638.687,-0.567,0.069,0.853,-4.36,21.73,-1.4,1,3
16638.703,-0.569,0.063,0.846,-5.07,20.29,-0.55,1,3
16638.703,-0.555,0.061,0.832,-6.44,19.01,-0.4,1,3
16638.718,-0.545,0.047,0.82,-7.48,18.52,-2.08,1,3
16638.734,-0.547,0.043,0.81,-7.39,19.2,-4.21,1,3
16638.734,-0.549,0.041,0.808,-6.53,19.9,-6.44,1,3
16638.75,-0.553,0.041,0.805,-5.07,20.63,-8.85,1,3
16638.765,-0.562,0.047,0.8,-3.57,21.55,-10.65,1,3
16638.765,-0.574,0.055,0.805,-2.96,21.73,-11.84,1,3
16638.781,-0.579,0.057,0.81,-3.45,21.15,-12.27,1,3
16638.781,-0.578,0.052,0.813,-4.61,20.39,-12.39,1,3
16638.796,-0.58,0.045,0.82,-5.37,19.71,-13.21,1,3
16638.812,-0.584,0.04,0.819,-5.01,18.46,-15.26,1,3
16638.828,-0.583,0.04,0.816,-3.11,16.85,-17.85,1,3
16638.828,-0.585,0.044,0.803,-0.55,15.5,-20.84,1,3
16638.843,-0.584,0.052,0.79,1.92,14.68,-23.26,1,3
16638.843,-0.583,0.059,0.776,3.75,14.65,-25.24,1,3
16638.859,-0.592,0.071,0.765,5.01,15.59,-26.64,1,3
16638.875,-0.6,0.083,0.764,5.28,17.09,-27.07,1,3
16638.875,-0.611,0.092,0.772,5.13,18.86,-26.46,1,3
16638.89,-0.617,0.098,0.781,4.36,20.36,-25.33,1,3
16638.89,-0.617,0.099,0.79,3.6,21.3,-24.29,1,3
16638.906,-0.62,0.1,0.786,3.05,21.94,-23.19,1,3
16638.921,-0.616,0.101,0.778,2.17,22.55,-22.34,1,3
16638.921,-0.61,0.104,0.771,0.92,23.59,-22.13,1,3
16638.937,-0.627,0.109,0.783,-0.61,24.66,-22.06,1,3
16638.953,-0.672,0.104,0.828,0.09,23.87,-21.3,1,3
16638.968,-0.689,0.098,0.844,3.63,20.23,-17.61,1,3
16638.968,-0.68,0.108,0.832,5.65,14.65,-12.54,1,3
16638.984,-0.653,0.106,0.797,5.52,8.85,-7.72,1,3
16638.984,-0.625,0.099,0.774,2.26,4.73,-4.43,1,3
16639.0,-0.605,0.076,0.757,-1.59,2.26,-2.69,1,3
16639.015,-0.596,0.056,0.749,-2.84,1.65,-1.83,1,3
16639.015,-0.594,0.046,0.743,-1.53,2.56,-1.28,1,3
16639.031,-0.589,0.041,0.737,0.7,3.33,-1.4,1,3
16639.031,-0.582,0.041,0.732,2.23,3.63,-2.44,1,3
16639.046,-0.593,0.04,0.735,3.36,3.88,-4.06,1,3
16639.062,-0.62,0.039,0.749,4.85,3.2,-5.46,1,3
16639.062,-0.643,0.036,0.758,6.99,1.01,-5.71,1,3
16639.078,-0.664,0.039,0.768,9.61,-2.53,-5.34,1,3
16639.093,-0.677,0.041,0.771,11.66,-7.42,-5.28,1,3
16639.109,-0.68,0.045,0.764,12.48,-12.6,-5.68,1,3
16639.109,-0.678,0.047,0.749,12.39,-17.18,-6.35,1,3
16639.125,-0.674,0.046,0.733,12.51,-20.23,-7.05,1,3
16639.125,-0.679,0.047,0.72,13.52,-21.42,-7.97,1,3
16639.14,-0.678,0.047,0.711,15.08,-21.12,-8.76,1,3
16639.156,-0.67,0.053,0.705,16.54,-19.84,-9.37,1,3
16639.156,-0.669,0.059,0.697,17.58,-18.1,-9.61,1,3
16639.171,-0.673,0.063,0.7,18.13,-16.27,-9.64,1,3
16639.171,-0.685,0.072,0.707,18.13,-14.28,-9.37,1,3
16639.187,-0.695,0.076,0.717,17.79,-12.88,-8.97,1,3
16639.203,-0.705,0.078,0.729,17.94,-11.78,-8.58,1,3
16639.218,-0.714,0.088,0.747,17.82,-11.96,-7.6,1,3
16639.218,-0.714,0.103,0.755,16.57,-14.22,-6.23,1,3
16639.234,-0.708,0.112,0.75,14.44,-16.72,-4.67,1,3
16639.234,-0.698,0.114,0.749,11.78,-18.4,-3.11,1,3
16639.25,-0.682,0.108,0.748,9.8,-19.2,-1.5,1,3
16639.25,-0.663,0.105,0.738,9.13,-19.17,0.31,1,3
16639.265,-0.645,0.104,0.728,8.82,-18.77,1.65,1,3
16639.281,-0.629,0.097,0.714,8.51,-18.16,2.29,1,3
16639.296,-0.619,0.094,0.705,8.12,-16.94,2.62,1,3
16639.296,-0.611,0.092,0.701,7.9,-15.17,2.72,1,3
16639.312,-0.605,0.09,0.698,8.06,-12.91,3.2,1,3
16639.312,-0.604,0.095,0.698,8.18,-10.1,3.91,1,3
16639.328,-0.608,0.101,0.709,6.9,-6.07,5.4,1,3
16639.343,-0.614,0.106,0.725,5.62,-6.16,6.32,1,3
16639.343,-0.604,0.101,0.773,7.87,-8.51,5.04,1,3
16639.359,-0.572,0.074,0.848,15.84,-11.78,1.28,1,3
16639.375,-0.527,0.074,0.929,24.9,-15.69,-3.78,1,3
16639.375,-0.508,0.07,0.943,33.81,-20.26,-9.8,1,3
16639.39,-0.502,0.087,0.918,39.86,-24.11,-15.29,1,3
16639.406,-0.516,0.11,0.876,39.67,-25.85,-17.67,1,3
16639.406,-0.527,0.127,0.843,33.54,-25.94,-16.6,1,3
16639.421,-0.523,0.13,0.835,26.34,-24.81,-13.4,1,3
16639.421,-0.532,0.125,0.83,21.79,-22.31,-9.52,1,3
16639.437,-0.554,0.139,0.812,18.65,-19.47,-5.1,1,3
16639.453,-0.575,0.149,0.793,13.06,-17.7,0.18,1,3
16639.453,-0.573,0.143,0.791,5.22,-16.66,5.16,1,3
16639.468,-0.58,0.132,0.785,-1.92,-15.02,9.43,1,3
16639.484,-0.589,0.12,0.788,-7.51,-13.03,13.28,1,3
16639.484,-0.6,0.112,0.804,-9.98,-11.17,16.36,1,3
16639.5,-0.607,0.107,0.811,-9.52,-10.53,18.8,1,3
16639.515,-0.61,0.104,0.804,-9.67,-10.86,20.81,1,3
16639.515,-0.606,0.099,0.807,-11.99,-11.2,22.16,1,3
16639.531,-0.6,0.083,0.81,-12.67,-11.84,22.25,1,3
16639.546,-0.608,0.08,0.792,-11.44,-11.6,22.03,1,3
16639.546,-0.608,0.083,0.774,-11.47,-11.41,21.82,1,3
16639.562,-0.611,0.078,0.764,-12.6,-10.16,21.82,1,3
16639.562,-0.607,0.069,0.78,-12.63,-9.03,21.24,1,3
16639.578,-0.605,0.066,0.781,-10.83,-8.97,19.96,1,3
16639.593,-0.602,0.052,0.79,-9.95,-8.79,19.1,1,3
16639.593,-0.597,0.063,0.78,-9.31,-8.73,18.65,1,3
16639.609,-0.589,0.061,0.779,-9.43,-8.91,17.98,1,3
16639.625,-0.586,0.045,0.776,-9.55,-8.88,16.72,1,3
16639.625,-0.582,0.04,0.781,-10.01,-8.76,15.26,1,3
16639.64,-0.586,0.028,0.786,-8.55,-8.12,13.31,1,3
16639.64,-0.592,0.026,0.785,-5.52,-7.69,11.05,1,3
16639.656,-0.59,0.032,0.785,-3.36,-7.39,8.88,1,3
16639.671,-0.586,0.038,0.788,-3.05,-7.26,6.2,1,3
16639.671,-0.592,0.044,0.799,-3.2,-6.84,3.72,1,3
16639.687,-0.6,0.053,0.814,-3.85,-6.9,2.11,1,3
16639.703,-0.602,0.065,0.823,-6.81,-8.85,0.46,1,3
16639.718,-0.607,0.067,0.841,-10.56,-12.33,-1.01,1,3
16639.718,-0.602,0.076,0.84,-14.01,-16.36,-1.56,1,3
16639.734,-0.593,0.083,0.838,-17.49,-19.84,-1.65,1,3
16639.734,-0.591,0.086,0.845,-22.19,-23.59,-2.26,1,3
16639.75,-0.59,0.081,0.837,-28.23,-28.05,-3.39,1,3
16639.765,-0.588,0.06,0.865,-33.54,-33.02,-3.88,1,3
16639.765,-0.561,0.038,0.838,-33.3,-35.95,-3.66,1,3
16639.781,-0.546,0.021,0.845,-27.86,-35.49,-2.11,1,3
16639.781,-0.529,0.019,0.801,-20.97,-32.65,-1.5,1,3
16639.796,-0.505,0.036,0.783,-16.11,-27.92,0.0,1,3
16639.812,-0.505,0.007,0.775,-10.07,-22.37,-0.06,1,3
16639.812,-0.504,0.032,0.787,-8.85,-17.37,0.09,1,3
16639.828,-0.491,0.015,0.784,-6.9,-13.31,0.27,1,3
16639.843,-0.509,-0.004,0.801,-3.14,-8.45,-0.06,1,3
16639.843,-0.494,0.01,0.807,-0.52,-5.07,-0.31,1,3
16639.859,-0.495,-0.003,0.817,3.66,-1.98,-1.31,1,3
16639.875,-0.5,-0.001,0.818,7.29,0.61,-2.38,1,3
16639.875,-0.497,0.004,0.825,9.83,1.98,-4.06,1,3
16639.89,-0.494,-0.008,0.827,12.18,2.5,-6.07,1,3
16639.89,-0.484,-0.005,0.823,14.34,2.62,-8.12,1,3
16639.906,-0.47,-0.002,0.821,17.06,2.75,-10.32,1,3
16639.921,-0.46,0.002,0.816,20.26,2.87,-12.88,1,3
16639.937,-0.451,0.009,0.814,23.71,2.96,-15.75,1,3
16639.937,-0.452,0.02,0.813,26.89,2.75,-18.37,1,3
16639.953,-0.451,0.033,0.811,29.33,1.86,-20.66,1,3
16639.953,-0.452,0.047,0.809,31.13,0.52,-22.64,1,3
16639.968,-0.449,0.059,0.806,32.17,-0.76,-24.14,1,3
16639.984,-0.443,0.068,0.805,32.99,-1.71,-24.9,1,3
16639.984,-0.441,0.076,0.796,34.18,-2.14,-24.96,1,3
16640.0,-0.431,0.077,0.795,34.82,-2.32,-25.15,1,3
16640.015,-0.427,0.076,0.798,35.92,-1.95,-25.82,1,3
16640.015,-0.426,0.076,0.798,38.0,-1.68,-26.55,1,3
16640.031,-0.43,0.081,0.797,40.25,-1.31,-27.38,1,3
16640.031,-0.433,0.081,0.796,41.72,-0.61,-28.5,1,3
16640.046,-0.439,0.082,0.8,42.48,0.24,-29.88,1,3
16640.062,-0.45,0.088,0.796,42.97,1.01,-31.46,1,3
16640.078,-0.463,0.091,0.796,42.94,2.01,-33.08,1,3
16640.078,-0.49,0.114,0.791,42.73,3.63,-33.81,1,3
16640.093,-0.522,0.154,0.783,39.98,4.64,-32.2,1,3
16640.093,-0.542,0.188,0.775,32.56,4.97,-27.71,1,3
16640.109,-0.557,0.206,0.774,22.0,5.71,-20.94,1,3
16640.125,-0.561,0.204,0.794,12.33,6.99,-13.73,1,3
16640.125,-0.574,0.215,0.807,6.47,9.09,-6.62,1,3
16640.14,-0.591,0.241,0.821,1.01,11.11,1.01,1,3
16640.14,-0.604,0.259,0.836,-6.78,12.12,9.0,1,3
16640.156,-0.611,0.266,0.848,-16.24,12.12,16.66,1,3
16640.171,-0.612,0.256,0.864,-25.61,11.84,23.87,1,3
16640.171,-0.614,0.236,0.879,-32.26,12.18,29.94,1,3
16640.187,-0.616,0.216,0.896,-35.83,13.21,34.58,1,3
16640.203,-0.614,0.191,0.911,-36.93,14.37,37.48,1,3
16640.218,-0.61,0.169,0.928,-35.49,15.38,38.24,1,3
16640.218,-0.608,0.15,0.942,-32.01,16.24,37.2,1,3
16640.234,-0.604,0.129,0.961,-26.61,17.27,35.4,1,3
16640.234,-0.604,0.127,0.97,-20.87,18.74,33.14,1,3
16640.25,-0.607,0.122,0.982,-16.36,20.05,30.03,1,3
16640.265,-0.617,0.121,1.007,-13.67,21.09,26.95,1,3
16640.265,-0.63,0.116,1.027,-11.57,20.87,24.02,1,3
16640.281,-0.631,0.112,1.043,-10.04,18.25,21.15,1,3
16640.296,-0.632,0.099,1.049,-6.99,13.73,17.3,1,3
16640.296,-0.617,0.093,1.043,-3.72,7.35,12.48,1,3
16640.312,-0.595,0.088,1.019,0.89,0.49,6.87,1,3
16640.312,-0.567,0.081,0.983,12.24,-9.7,-4.0,1,3
16640.328,-0.53,0.081,0.943,15.87,-11.84,-8.51,1,3
16640.343,-0.508,0.078,0.905,17.58,-12.94,-11.75,1,3
16640.343,-0.475,0.069,0.864,17.46,-14.34,-13.79,1,3
16640.359,-0.457,0.035,0.859,18.77,-14.28,-15.78,1,3
16640.375,-0.435,0.036,0.86,18.31,-14.56,-17.79,1,3
16640.375,-0.421,0.005,0.861,20.78,-14.83,-20.6,1,3
16640.39,-0.42,0.02,0.854,25.15,-14.53,-23.22,1,3
16640.39,-0.424,0.062,0.832,30.79,-14.01,-24.38,1,3
16640.406,-0.446,0.116,0.798,33.72,-13.34,-23.71,1,3
16640.421,-0.461,0.172,0.777,29.94,-13.4,-20.54,1,3
16640.421,-0.475,0.21,0.766,21.09,-14.01,-15.84,1,3
16640.437,-0.485,0.227,0.758,10.19,-13.98,-9.67,1,3
16640.453,-0.487,0.218,0.766,-0.43,-13.18,-2.93,1,3
16640.453,-0.495,0.198,0.779,-8.7,-11.63,2.44,1,3
16640.468,-0.507,0.172,0.804,-13.86,-10.01,5.46,1,3
16640.484,-0.519,0.151,0.827,-15.2,-8.79,6.29,1,3
16640.484,-0.538,0.141,0.844,-13.92,-8.39,4.91,1,3
16640.5,-0.549,0.134,0.865,-11.47,-9.8,2.26,1,3
16640.515,-0.553,0.13,0.873,-7.69,-11.99,-1.13,1,3
16640.515,-0.554,0.13,0.867,-3.08,-13.95,-5.01,1,3
16640.531,-0.554,0.136,0.856,0.58,-15.38,-9.25,1,3
16640.531,-0.558,0.145,0.85,4.03,-16.3,-13.34,1,3
16640.546,-0.564,0.163,0.842,6.96,-16.85,-16.21,1,3
16640.562,-0.559,0.184,0.822,8.33,-17.37,-17.12,1,3
16640.562,-0.548,0.198,0.801,7.75,-17.43,-17.09,1,3
16640.578,-0.536,0.203,0.786,6.13,-16.79,-16.27,1,3
16640.593,-0.524,0.206,0.772,4.3,-15.47,-14.34,1,3
16640.593,-0.516,0.21,0.762,2.17,-13.95,-11.84,1,3
16640.609,-0.505,0.21,0.759,-0.49,-12.76,-9.06,1,3
16640.625,-0.501,0.207,0.758,-3.45,-11.78,-6.13,1,3
16640.625,-0.496,0.204,0.765,-7.05,-11.41,-2.99,1,3
16640.64,-0.496,0.2,0.775,-11.2,-12.05,-0.4,1,3
16640.64,-0.493,0.194,0.787,-15.35,-13.7,1.62,1,3
16640.656,-0.491,0.186,0.794,-18.25,-16.42,2.75,1,3
16640.671,-0.49,0.177,0.796,-19.71,-18.95,3.45,1,3
16640.687,-0.486,0.173,0.802,-19.81,-20.84,3.78,1,3
16640.687,-0.482,0.165,0.803,-18.31,-22.06,3.78,1,3
16640.703,-0.486,0.168,0.812,-16.94,-22.55,3.63,1,3
16640.703,-0.493,0.18,0.833,-17.85,-23.71,3.54,1,3
16640.718,-0.497,0.178,0.843,-18.77,-26.06,3.54,1,3
16640.734,-0.508,0.181,0.842,-20.51,-28.57,3.97,1,3
16640.734,-0.521,0.188,0.853,-25.42,-32.65,4.73,1,3
16640.75,-0.512,0.184,0.869,-31.86,-38.42,5.37,1,3
16640.765,-0.508,0.18,0.885,-39.58,-44.83,5.55,1,3
16640.765,-0.492,0.172,0.888,-49.38,-52.37,5.58,1,3
16640.781,-0.466,0.141,0.877,-56.0,-57.95,6.59,1,3
16640.781,-0.446,0.123,0.886,-57.04,-60.34,8.82,1,3
16640.796,-0.43,0.113,0.87,-53.87,-60.58,12.18,1,3
16640.812,-0.416,0.109,0.861,-52.19,-60.09,15.69,1,3
16640.828,-0.397,0.099,0.861,-52.55,-60.09,18.86,1,3
16640.828,-0.374,0.085,0.853,-53.56,-59.72,21.45,1,3
16640.843,-0.356,0.078,0.839,-53.29,-57.01,24.05,1,3
16640.843,-0.346,0.074,0.834,-52.92,-52.64,26.86,1,3
16640.859,-0.353,0.052,0.84,-52.46,-47.67,29.48,1,3
16640.875,-0.36,0.041,0.869,-52.13,-43.34,32.17,1,3
16640.875,-0.357,0.024,0.892,-49.68,-39.89,34.91,1,3
16640.89,-0.34,-0.002,0.9,-46.69,-36.62,36.38,1,3
16640.906,-0.324,-0.031,0.912,-43.0,-33.2,35.37,1,3
16640.906,-0.314,-0.047,0.921,-36.99,-29.18,32.9,1,3
16640.921,-0.313,-0.057,0.937,-30.03,-25.42,28.9,1,3
16640.937,-0.316,-0.066,0.95,-23.5,-22.46,23.93,1,3
16640.937,-0.314,-0.067,0.95,-19.47,-21.27,18.77,1,3
16640.953,-0.301,-0.07,0.951,-17.27,-20.23,13.25,1,3
16640.953,-0.299,-0.068,0.951,-14.28,-18.37,7.81,1,3
16640.968,-0.292,-0.068,0.931,-11.02,-15.81,2.93,1,3
16640.984,-0.29,-0.06,0.934,-9.49,-12.24,-1.53,1,3
16640.984,-0.308,-0.057,0.958,-7.08,-8.61,-5.43,1,3
16641.0,-0.326,-0.047,0.958,-3.14,-5.62,-7.9,1,3
16641.015,-0.336,-0.031,0.97,-1.13,-4.43,-8.24,1,3
16641.015,-0.338,-0.027,0.982,-0.82,-4.79,-7.6,1,3
16641.031,-0.342,-0.026,0.992,-0.73,-6.1,-6.5,1,3
16641.046,-0.333,-0.028,0.99,1.07,-7.57,-4.58,1,3
16641.046,-0.317,-0.032,0.975,2.66,-8.06,-3.45,1,3
16641.062,-0.313,-0.039,0.967,4.64,-6.74,-2.93,1,3
16641.062,-0.314,-0.041,0.959,6.44,-5.01,-2.81,1,3
16641.078,-0.319,-0.044,0.963,7.97,-3.42,-2.9,1,3
16641.093,-0.323,-0.042,0.978,8.67,-2.41,-3.02,1,3
16641.093,-0.325,-0.045,0.981,8.94,-2.44,-3.08,1,3
16641.109,-0.331,-0.046,0.986,9.52,-2.53,-2.99,1,3
16641.125,-0.341,-0.05,0.982,11.29,-2.87,-2.69,1,3
16641.14,-0.342,-0.041,0.973,11.26,-3.72,-1.77,1,3
16641.14,-0.343,-0.046,0.967,10.25,-4.85,-0.82,1,3
16641.14,-0.332,-0.052,0.954,10.96,-5.55,0.12,1,3
16641.156,-0.317,-0.042,0.938,12.73,-5.25,0.79,1,3
16641.171,-0.301,-0.037,0.919,13.18,-4.3,0.79,1,3
16641.187,-0.3,-0.035,0.915,11.99,-2.84,-0.24,1,3
16641.187,-0.307,-0.029,0.918,11.75,-1.22,-1.25,1,3
16641.203,-0.316,-0.015,0.923,11.17,-0.37,-1.56,1,3
16641.203,-0.317,-0.009,0.922,9.09,-0.24,-1.22,1,3
16641.218,-0.315,-0.008,0.926,7.39,0.46,-0.27,1,3
16641.234,-0.315,-0.001,0.93,7.66,1.62,0.98,1,3
16641.234,-0.309,0.008,0.932,8.09,2.72,2.47,1,3
16641.25,-0.318,0.016,0.941,7.78,3.51,3.45,1,3
16641.265,-0.325,0.015,0.948,7.63,3.27,4.52,1,3
16641.265,-0.315,0.019,0.94,7.57,2.59,5.58,1,3
16641.281,-0.302,0.017,0.926,7.45,2.93,6.32,1,3
16641.281,-0.303,0.02,0.916,7.42,4.85,6.5,1,3
16641.296,-0.31,0.026,0.923,4.46,7.14,6.62,1,3
16641.312,-0.311,0.028,0.939,2.99,6.81,6.5,1,3
16641.312,-0.316,0.021,0.954,3.57,6.16,6.56,1,3
16641.328,-0.313,0.018,0.96,5.31,5.71,6.65,1,3
16641.343,-0.319,0.024,0.959,6.71,4.7,7.02,1,3
16641.343,-0.316,0.033,0.963,6.47,2.78,7.08,1,3
16641.359,-0.308,0.029,0.96,6.84,0.92,7.05,1,3
16641.375,-0.306,0.036,0.944,6.62,-0.37,6.78,1,3
16641.375,-0.298,0.036,0.928,5.1,-0.95,6.5,1,3
16641.39,-0.29,0.035,0.918,2.38,-0.67,5.8,1,3
16641.406,-0.28,0.021,0.922,0.21,0.52,4.64,1,3
16641.406,-0.278,0.016,0.929,-0.03,2.5,2.9,1,3
16641.421,-0.298,0.016,0.944,1.8,4.24,1.25,1,3
16641.421,-0.31,0.022,0.957,2.75,4.3,0.09,1,3
16641.437,-0.309,0.02,0.957,2.17,3.02,-1.1,1,3
16641.453,-0.312,0.011,0.955,2.44,2.17,-2.29,1,3
16641.453,-0.312,0.016,0.945,3.33,2.04,-2.47,1,3
16641.468,-0.302,0.03,0.937,3.11,2.44,-2.38,1,3
16641.484,-0.303,0.034,0.944,1.71,3.17,-2.53,1,3
16641.484,-0.301,0.036,0.949,0.61,3.81,-2.14,1,3
16641.5,-0.301,0.043,0.952,-0.12,4.46,-1.25,1,3
16641.515,-0.309,0.045,0.952,-1.01,4.73,-0.12,1,3
16641.515,-0.312,0.04,0.952,-2.72,4.24,1.19,1,3
16641.531,-0.312,0.033,0.952,-4.36,3.75,2.38,1,3
16641.531,-0.312,0.028,0.954,-5.19,3.33,3.33,1,3
16641.546,-0.308,0.024,0.952,-5.83,2.81,3.63,1,3
16641.562,-0.311,0.02,0.948,-5.86,2.87,3.05,1,3
16641.562,-0.317,0.021,0.949,-5.1,3.2,2.32,1,3
16641.578,-0.325,0.025,0.951,-4.09,3.23,1.68,1,3
16641.593,-0.333,0.027,0.953,-3.33,2.72,1.16,1,3
16641.593,-0.345,0.032,0.956,-2.62,1.98,0.79,1,3
16641.609,-0.349,0.039,0.951,-2.75,0.43,0.73,1,3
16641.625,-0.342,0.039,0.94,-3.45,-1.16,0.89,1,3
16641.625,-0.344,0.038,0.932,-3.27,-1.65,0.52,1,3
16641.64,-0.345,0.041,0.925,-2.44,-1.34,0.43,1,3
16641.64,-0.352,0.047,0.924,-1.74,-0.7,0.58,1,3
16641.656,-0.356,0.047,0.924,-1.65,-0.52,1.4,1,3
16641.671,-0.355,0.044,0.918,-2.32,-0.58,2.56,1,3
16641.671,-0.355,0.039,0.904,-3.05,-0.21,3.39,1,3
16641.687,-0.359,0.026,0.9,-4.27,0.49,3.97,1,3
16641.703,-0.358,0.015,0.903,-5.92,0.79,4.24,1,3
16641.718,-0.343,0.006,0.892,-8.06,0.95,3.94,1,3
16641.718,-0.335,-0.008,0.896,-9.03,3.05,3.02,1,3
16641.734,-0.326,-0.025,0.918,-7.54,5.92,1.62,1,3
16641.734,-0.323,-0.026,0.942,-4.36,8.06,-0.21,1,3
16641.75,-0.321,-0.019,0.96,-2.08,8.67,-2.81,1,3
16641.765,-0.316,-0.016,0.974,-1.25,8.15,-5.31,1,3
16641.765,-0.317,-0.011,0.982,-0.37,7.08,-7.23,1,3
16641.781,-0.319,0.006,0.98,0.55,5.74,-8.27,1,3
16641.781,-0.32,0.021,0.97,0.67,4.36,-8.33,1,3
16641.796,-0.32,0.029,0.959,-0.49,3.66,-6.93,1,3
16641.812,-0.322,0.044,0.952,-1.83,3.94,-4.55,1,3
16641.812,-0.33,0.052,0.947,-3.57,4.24,-1.53,1,3
16641.828,-0.33,0.053,0.946,-6.04,4.36,1.89,1,3
16641.843,-0.329,0.048,0.95,-7.93,4.58,4.58,1,3
16641.843,-0.331,0.041,0.95,-8.85,4.67,6.84,1,3
16641.859,-0.33,0.036,0.943,-9.64,4.55,8.51,1,3
16641.875,-0.326,0.03,0.938,-10.47,4.46,9.8,1,3
16641.875,-0.338,0.022,0.942,-10.93,4.49,10.41,1,3
16641.89,-0.353,0.017,0.95,-10.56,4.3,10.93,1,3
16641.89,-0.36,0.016,0.95,-9.77,3.17,11.41,1,3
16641.906,-0.372,0.012,0.947,-8.64,1.89,11.87,1,3
16641.921,-0.373,0.01,0.937,-8.18,0.31,12.85,1,3
16641.921,-0.357,0.007,0.919,-8.73,-0.76,13.98,1,3
16641.937,-0.346,-0.003,0.905,-9.49,-0.31,14.07,1,3
16641.953,-0.348,-0.014,0.903,-10.13,1.34,13.64,1,3
16641.953,-0.359,-0.02,0.916,-10.41,2.69,13.03,1,3
16641.968,-0.359,-0.022,0.923,-9.83,2.93,11.93,1,3
16641.984,-0.354,-0.024,0.918,-8.39,2.84,10.44,1,3
16641.984,-0.348,-0.025,0.911,-7.78,3.11,8.67,1,3
16642.0,-0.35,-0.024,0.919,-7.66,4.21,7.02,1,3
16642.015,-0.358,-0.021,0.926,-6.68,5.34,5.37,1,3
16642.015,-0.372,-0.018,0.931,-5.55,5.71,4.39,1,3
16642.031,-0.378,-0.015,0.94,-5.34,5.19,4.06,1,3
16642.046,-0.366,-0.016,0.942,-5.83,4.0,3.54,1,3
16642.046,-0.357,-0.02,0.935,-5.4,3.36,2.38,1,3
16642.062,-0.356,-0.02,0.932,-4.39,3.3,1.22,1,3
16642.062,-0.367,-0.016,0.931,-3.45,3.42,-0.06,1,3
16642.078,-0.376,-0.014,0.932,-2.84,2.93,-0.64,1,3
16642.093,-0.373,-0.015,0.928,-2.66,2.35,-0.95,1,3
16642.093,-0.368,-0.012,0.929,-2.59,2.14,-1.22,1,3
16642.109,-0.37,-0.015,0.918,-1.53,2.69,-1.71,1,3
16642.125,-0.372,-0.01,0.932,-0.98,3.39,-2.26,1,3
16642.125,-0.373,-0.008,0.935,0.09,2.99,-2.69,1,3
16642.14,-0.374,-0.007,0.918,1.04,2.99,-2.66,1,3
16642.14,-0.377,-0.003,0.924,0.61,3.51,-2.23,1,3
16642.156,-0.375,-0.007,0.928,0.4,3.63,-2.04,1,3
16642.171,-0.37,-0.007,0.929,0.7,3.75,-2.11,1,3
16642.171,-0.377,-0.009,0.935,1.5,3.91,-2.01,1,3
16642.187,-0.38,-0.004,0.939,1.62,3.6,-1.8,1,3
16642.203,-0.378,-0.0,0.945,0.82,2.29,-2.11,1,3
16642.203,-0.381,-0.008,0.941,-0.06,0.85,-2.23,1,3
16642.218,-0.382,-0.004,0.933,-0.09,-0.18,-1.89,1,3
16642.234,-0.373,-0.008,0.911,1.34,-0.64,-1.56,1,3
16642.234,-0.375,-0.005,0.909,1.62,-0.06,-1.43,1,3
16642.25,-0.375,-0.007,0.915,1.25,0.34,-1.5,1,3
16642.265,-0.37,-0.012,0.917,0.98,0.58,-1.37,1,3
16642.265,-0.364,-0.015,0.921,1.25,0.85,-1.31,1,3
16642.281,-0.363,-0.017,0.925,1.95,1.25,-1.71,1,3
16642.281,-0.367,-0.016,0.933,3.08,1.1,-2.47,1,3
16642.296,-0.37,-0.013,0.936,3.05,0.09,-2.47,1,3
16642.312,-0.373,-0.014,0.938,2.96,-0.92,-2.29,1,3
16642.312,-0.366,-0.007,0.939,3.14,-1.8,-2.2,1,3
16642.328,-0.365,-0.002,0.929,3.57,-2.44,-1.74,1,3
16642.343,-0.361,0.002,0.919,3.39,-2.44,-1.25,1,3
16642.343,-0.35,0.008,0.914,2.44,-1.86,-0.95,1,3
16642.359,-0.352,0.005,0.909,1.43,-0.55,-0.89,1,3
16642.359,-0.359,0.001,0.913,0.18,0.67,-0.67,1,3
16642.375,-0.36,-0.003,0.923,-0.67,1.25,-0.37,1,3
16642.39,-0.363,-0.009,0.925,-0.24,1.62,-0.27,1,3
16642.406,-0.361,-0.008,0.931,-0.37,1.65,-0.21,1,3
16642.406,-0.354,-0.01,0.937,-1.1,1.65,-0.67,1,3
16642.421,-0.362,-0.011,0.948,-1.07,1.89,-1.34,1,3
16642.421,-0.377,-0.006,0.951,-0.4,1.37,-1.28,1,3
16642.437,-0.374,-0.001,0.942,-0.49,0.06,-0.43,1,3
16642.453,-0.359,0.004,0.928,-1.68,-0.98,0.09,1,3
16642.453,-0.355,-0.001,0.92,-2.17,-0.67,-0.24,1,3
16642.468,-0.368,-0.001,0.917,-1.53,0.34,-0.52,1,3
16642.484,-0.382,0.003,0.925,-1.01,0.89,0.03,1,3
16642.5,-0.382,-0.001,0.909,-1.1,0.49,0.98,1,3
16642.5,-0.378,0.005,0.918,-2.5,0.61,1.43,1,3
16642.515,-0.389,-0.013,0.918,-3.05,1.04,1.43,1,3
16642.515,-0.378,-0.016,0.919,-3.51,1.01,1.31,1,3
16642.531,-0.377,-0.024,0.922,-2.38,1.46,0.73,1,3
16642.531,-0.383,-0.02,0.918,-1.1,1.68,-0.18,1,3
16642.546,-0.383,-0.016,0.92,-0.58,1.46,-0.52,1,3
16642.562,-0.378,-0.013,0.919,-1.04,0.82,-0.85,1,3
16642.578,-0.38,-0.014,0.919,-1.04,0.7,-1.8,1,3
16642.578,-0.391,-0.016,0.924,-0.09,0.79,-2.47,1,3
16642.593,-0.39,-0.013,0.923,0.7,0.92,-2.75,1,3
16642.593,-0.388,-0.013,0.922,0.79,0.85,-3.2,1,3
16642.609,-0.39,-0.008,0.921,1.01,0.92,-3.51,1,3
16642.625,-0.387,-0.003,0.92,0.55,0.7,-3.3,1,3
16642.625,-0.384,-0.008,0.919,-0.21,0.7,-3.11,1,3
16642.64,-0.385,-0.01,0.915,-0.52,0.92,-2.81,1,3
16642.656,-0.385,-0.01,0.922,-0.55,1.1,-2.23,1,3
16642.656,-0.384,-0.012,0.923,-0.06,0.82,-1.68,1,3
16642.671,-0.38,-0.015,0.92,0.0,0.55,-1.19,1,3
16642.671,-0.384,-0.015,0.925,-0.18,0.52,-1.13,1,3
16642.687,-0.383,-0.015,0.93,-0.06,0.12,-0.98,1,3
16642.703,-0.379,-0.018,0.931,0.15,-0.49,-1.1,1,3
16642.703,-0.374,-0.019,0.924,0.79,-0.7,-1.59,1,3
16642.718,-0.37,-0.015,0.916,0.98,-0.64,-1.8,1,3
16642.734,-0.369,-0.012,0.915,0.64,-0.4,-2.01,1,3
16642.734,-0.375,-0.011,0.926,0.58,0.06,-2.14,1,3
16642.75,-0.38,-0.01,0.931,0.37,-0.15,-1.68,1,3
16642.765,-0.375,-0.008,0.93,0.03,-0.73,-1.4,1,3
16642.765,-0.378,-0.007,0.932,-0.34,-1.01,-1.25,1,3
16642.781,-0.373,-0.007,0.934,-0.43,-1.46,-0.98,1,3
16642.796,-0.375,-0.007,0.929,-0.43,-1.59,-0.7,1,3
16642.796,-0.38,-0.004,0.925,-0.7,-1.65,-0.34,1,3
16642.812,-0.373,-0.003,0.923,-1.28,-1.89,0.18,1,3
16642.812,-0.368,-0.008,0.921,-1.71,-1.71,0.46,1,3
16642.828,-0.371,-0.01,0.918,-1.77,-1.22,0.64,1,3
16642.843,-0.37,-0.01,0.915,-1.92,-0.79,0.76,1,3
16642.843,-0.371,-0.012,0.913,-2.08,0.21,0.55,1,3
16642.859,-0.38,-0.012,0.922,-2.26,1.01,0.34,1,3
16642.875,-0.381,-0.013,0.93,-2.66,0.95,0.55,1,3
16642.875,-0.372,-0.014,0.929,-2.66,0.64,0.73,1,3
16642.89,-0.374,-0.017,0.928,-2.14,0.76,0.15,1,3
16642.89,-0.381,-0.02,0.925,-1.56,0.52,-0.37,1,3
16642.906,-0.38,-0.017,0.922,-1.28,0.18,-0.61,1,3
16642.921,-0.385,-0.016,0.925,-0.67,0.03,-0.82,1,3
16642.921,-0.39,-0.023,0.928,0.06,-0.61,-0.85,1,3
16642.937,-0.385,-0.026,0.918,0.92,-1.37,-0.98,1,3
16642.953,-0.374,-0.028,0.909,1.71,-1.53,-1.74,1,3
16642.953,-0.375,-0.03,0.905,2.01,-0.89,-3.45,1,3
16642.968,-0.382,-0.032,0.911,1.83,-0.46,-4.91,1,3
16642.984,-0.383,-0.032,0.913,2.08,-0.09,-6.23,1,3
16642.984,-0.385,-0.024,0.914,2.62,0.06,-7.39,1,3
16643.0,-0.386,-0.017,0.914,2.93,0.09,-7.93,1,3
16643.015,-0.386,-0.013,0.913,2.87,0.15,-7.69,1,3
16643.015,-0.386,-0.013,0.915,2.35,0.43,-7.29,1,3
16643.031,-0.387,-0.016,0.919,1.95,0.49,-7.05,1,3
16643.031,-0.385,-0.016,0.926,1.98,0.4,-6.9,1,3
16643.046,-0.39,-0.013,0.929,2.5,0.12,-6.99,1,3
16643.062,-0.392,-0.012,0.928,2.96,-0.37,-7.11,1,3
16643.062,-0.389,-0.012,0.921,2.99,-0.85,-6.96,1,3
16643.078,-0.382,-0.013,0.913,2.84,-0.95,-6.84,1,3
16643.093,-0.38,-0.012,0.907,2.75,-0.34,-6.68,1,3
16643.093,-0.377,-0.012,0.907,2.56,0.61,-6.56,1,3
16643.109,-0.377,-0.015,0.909,2.35,1.62,-6.44,1,3
16643.125,-0.378,-0.021,0.916,2.44,2.41,-6.56,1,3
16643.125,-0.381,-0.025,0.93,3.2,2.9,-7.02,1,3
16643.14,-0.384,-0.026,0.942,4.49,2.41,-7.84,1,3
16643.14,-0.382,-0.026,0.941,5.71,1.04,-8.97,1,3
16643.156,-0.378,-0.023,0.94,6.74,-0.06,-10.38,1,3
16643.171,-0.377,-0.019,0.933,8.09,-0.85,-11.84,1,3
16643.171,-0.382,-0.007,0.926,9.19,-1.22,-12.73,1,3
16643.187,-0.383,0.003,0.922,9.64,-1.25,-12.85,1,3
16643.203,-0.383,0.014,0.922,9.52,-1.04,-12.3,1,3
16643.203,-0.395,0.018,0.917,9.06,-0.76,-11.02,1,3
16643.218,-0.4,0.017,0.904,7.51,-0.58,-8.82,1,3
16643.234,-0.397,0.011,0.902,5.04,-0.27,-6.41,1,3
16643.234,-0.396,0.004,0.907,3.2,0.06,-4.58,1,3
16643.25,-0.391,-0.002,0.911,2.5,0.52,-2.96,1,3
16643.265,-0.386,0.002,0.917,2.29,0.85,-1.28,1,3
16643.265,-0.382,0.005,0.921,1.31,0.12,0.67,1,3
16643.281,-0.378,0.005,0.921,0.73,0.0,1.43,1,3
16643.281,-0.378,0.005,0.916,0.03,0.18,1.83,1,3
16643.296,-0.388,-0.008,0.92,-0.49,0.18,2.41,1,3
16643.312,-0.39,-0.015,0.906,-1.22,-1.28,2.93,1,3
16643.312,-0.377,-0.01,0.91,-1.22,-0.18,3.48,1,3
16643.328,-0.379,-0.019,0.929,-2.01,0.27,3.33,1,3
16643.343,-0.373,-0.024,0.904,-1.59,0.46,3.08,1,3
16643.343,-0.372,-0.017,0.919,-0.85,1.95,2.78,1,3
16643.359,-0.38,-0.023,0.927,-1.19,1.65,1.68,1,3
16643.375,-0.385,-0.026,0.928,-1.25,0.95,1.37,1,3
16643.375,-0.381,-0.024,0.932,-0.95,0.15,1.4,1,3
16643.39,-0.379,-0.024,0.923,-0.89,-0.4,0.98,1,3
16643.39,-0.376,-0.021,0.923,-0.82,-0.24,0.49,1,3
16643.406,-0.379,-0.021,0.924,-0.55,0.12,0.0,1,3
16643.421,-0.387,-0.018,0.928,0.12,0.46,-0.27,1,3
16643.421,-0.39,-0.015,0.926,0.58,0.0,0.03,1,3
16643.437,-0.387,-0.013,0.92,0.18,-0.85,0.58,1,3
16643.453,-0.384,-0.012,0.912,-0.24,-1.01,0.95,1,3
16643.453,-0.383,-0.016,0.907,-0.31,-0.58,1.07,1,3
16643.468,-0.384,-0.017,0.903,-0.09,0.18,0.82,1,3
16643.484,-0.396,-0.014,0.909,-0.03,1.1,0.52,1,3
16643.484,-0.403,-0.013,0.918,-0.58,1.19,0.46,1,3
16643.5,-0.404,-0.016,0.919,-0.61,0.76,0.49,1,3
16643.515,-0.4,-0.016,0.923,-0.43,0.49,0.46,1,3
16643.515,-0.398,-0.013,0.923,0.34,0.27,0.15,1,3
16643.531,-0.398,-0.008,0.918,0.52,-0.09,-0.27,1,3
16643.531,-0.395,-0.011,0.913,0.12,-0.52,-0.73,1,3
16643.546,-0.397,-0.011,0.915,0.09,-0.49,-1.1,1,3
16643.562,-0.405,-0.007,0.917,0.61,-0.67,-1.1,1,3
16643.562,-0.398,0.0,0.913,0.31,-1.43,-0.85,1,3
16643.578,-0.391,0.002,0.911,0.03,-1.56,-0.7,1,3
16643.593,-0.388,-0.002,0.91,0.03,-1.07,-0.61,1,3
16643.609,-0.391,0.0,0.913,0.4,-0.49,-0.4,1,3
16643.609,-0.396,-0.0,0.911,0.31,-0.24,-0.18,1,3
16643.625,-0.394,-0.01,0.916,-0.46,-0.49,-0.24,1,3
16643.625,-0.389,-0.017,0.915,-0.34,-0.52,-0.52,1,3
16643.64,-0.387,-0.014,0.913,0.46,-0.24,-1.07,1,3
16643.656,-0.39,-0.014,0.916,1.4,0.06,-1.43,1,3
16643.656,-0.392,-0.011,0.917,1.56,0.09,-1.4,1,3
16643.671,-0.391,-0.007,0.925,1.16,-0.37,-1.71,1,3
16643.687,-0.392,-0.008,0.923,1.16,-0.95,-1.68,1,3
16643.687,-0.387,-0.005,0.915,1.28,-1.01,-1.16,1,3
16643.703,-0.383,-0.003,0.914,1.13,-0.7,-1.1,1,3
16643.703,-0.388,-0.005,0.917,0.79,-0.21,-1.37,1,3
16643.718,-0.396,-0.007,0.92,0.82,-0.06,-1.25,1,3
16643.734,-0.394,-0.009,0.917,0.67,-0.37,-0.61,1,3
16643.734,-0.386,-0.012,0.912,0.12,-0.52,-0.31,1,3
16643.75,-0.385,-0.019,0.911,-0.55,-0.34,-0.79,1,3
16643.765,-0.389,-0.023,0.918,-0.43,0.09,-1.46,1,3
16643.765,-0.393,-0.02,0.922,0.64,0.34,-2.29,1,3
16643.781,-0.396,-0.015,0.919,1.74,0.21,-2.93,1,3
16643.781,-0.4,-0.007,0.921,1.92,-0.09,-3.05,1,3
16643.796,-0.406,-0.003,0.922,1.83,-0.64,-2.62,1,3
16643.812,-0.403,0.001,0.921,1.68,-1.16,-1.89,1,3
16643.812,-0.397,0.004,0.917,1.28,-1.5,-1.07,1,3
16643.828,-0.394,-0.001,0.912,0.98,-1.46,-0.58,1,3
16643.843,-0.392,-0.002,0.91,0.58,-1.01,0.03,1,3
16643.843,-0.392,-0.005,0.911,0.06,-0.52,0.58,1,3
16643.859,-0.393,-0.013,0.913,-0.21,-0.09,0.61,1,3
16643.875,-0.392,-0.016,0.917,-0.15,0.03,0.34,1,3
16643.875,-0.394,-0.017,0.919,0.24,0.0,-0.03,1,3
16643.89,-0.394,-0.02,0.918,0.18,-0.37,-0.55,1,3
16643.906,-0.388,-0.022,0.915,0.31,-0.58,-1.16,1,3
16643.906,-0.39,-0.019,0.912,1.07,-0.27,-2.14,1,3
16643.921,-0.397,-0.017,0.91,1.77,0.27,-2.69,1,3
16643.921,-0.392,-0.014,0.912,1.89,0.46,-2.59,1,3
16643.937,-0.384,-0.014,0.91,1.89,0.7,-3.17,1,3
16643.953,-0.385,-0.01,0.916,2.35,1.46,-4.15,1,3
16643.953,-0.402,-0.003,0.923,3.02,2.04,-4.46,1,3
16643.968,-0.411,0.009,0.93,2.72,1.62,-3.48,1,3
16643.984,-0.415,0.014,0.935,1.5,-0.37,-1.77,1,3
16643.984,-0.401,0.012,0.92,0.09,-1.86,-0.27,1,3
16644.0,-0.389,0.007,0.915,-1.07,-2.23,0.46,1,3
16644.015,-0.393,-0.004,0.916,-0.79,-2.01,0.76,1,3
16644.015,-0.387,-0.004,0.907,-0.73,-1.34,1.04,1,3
16644.031,-0.39,-0.009,0.915,-1.01,-0.73,0.4,1,3
16644.031,-0.39,-0.015,0.912,-0.89,-0.37,-0.49,1,3
16644.046,-0.39,-0.017,0.914,0.09,0.37,-1.31,1,3
16644.062,-0.391,-0.015,0.911,0.79,0.79,-2.01,1,3
16644.062,-0.394,-0.01,0.909,1.19,0.79,-2.56,1,3
16644.078,-0.403,-0.011,0.91,1.56,0.82,-2.66,1,3
16644.093,-0.41,-0.006,0.914,1.62,0.31,-1.98,1,3
16644.109,-0.413,-0.005,0.914,1.01,-0.4,-1.07,1,3
16644.109,-0.402,-0.006,0.915,0.09,-1.04,-0.64,1,3
16644.125,-0.398,-0.007,0.918,-0.27,-1.01,-0.61,1,3
16644.125,-0.398,-0.008,0.921,0.09,-0.79,-0.61,1,3
16644.14,-0.397,-0.008,0.921,0.18,-0.98,-0.95,1,3
16644.14,-0.395,-0.01,0.916,0.49,-1.5,-1.31,1,3
16644.156,-0.396,-0.01,0.909,0.52,-1.71,-1.43,1,3
16644.171,-0.393,-0.012,0.904,0.31,-1.62,-1.59,1,3
16644.171,-0.39,-0.012,0.904,0.18,-1.07,-1.71,1,3
16644.187,-0.395,-0.011,0.91,0.61,-0.34,-1.71,1,3
16644.203,-0.4,-0.006,0.92,0.58,0.03,-1.65,1,3
16644.203,-0.399,-0.006,0.925,0.18,-0.12,-1.31,1,3
16644.218,-0.399,-0.005,0.925,-0.27,-0.73,-0.95,1,3
16644.234,-0.393,-0.002,0.925,-0.34,-1.37,-0.64,1,3
16644.234,-0.391,-0.001,0.921,-0.31,-1.46,-0.55,1,3
16644.25,-0.39,-0.005,0.915,0.03,-1.28,-0.18,1,3
16644.265,-0.387,-0.006,0.914,0.12,-1.1,-0.34,1,3
16644.265,-0.391,-0.006,0.915,0.31,-1.07,-0.43,1,3
16644.281,-0.401,-0.009,0.915,0.49,-1.5,0.0,1,3
16644.281,-0.394,-0.011,0.91,0.37,-1.89,0.18,1,3
16644.296,-0.397,-0.011,0.907,0.27,-1.95,-0.18,1,3
16644.312,-0.398,-0.014,0.907,0.55,-1.77,-0.4,1,3
16644.312,-0.394,-0.012,0.905,0.61,-1.4,-0.43,1,3
16644.328,-0.392,-0.012,0.907,0.67,-0.85,-0.85,1,3
16644.343,-0.401,-0.01,0.914,0.89,-0.49,-1.1,1,3
16644.343,-0.403,-0.006,0.919,0.73,-0.79,-0.67,1,3
16644.359,-0.398,-0.004,0.919,0.34,-1.13,-0.37,1,3
16644.375,-0.4,-0.004,0.924,0.31,-1.22,-0.7,1,3
16644.375,-0.403,-0.004,0.928,0.43,-1.53,-0.67,1,3
16644.39,-0.402,-0.003,0.922,0.58,-1.86,-0.24,1,3
16644.39,-0.398,-0.006,0.914,0.15,-1.86,0.06,1,3
16644.406,-0.396,-0.011,0.917,-0.31,-1.62,0.03,1,3
16644.421,-0.396,-0.015,0.918,0.15,-1.53,-0.03,1,3
16644.437,-0.393,-0.014,0.914,0.79,-1.53,-0.18,1,3
16644.437,-0.388,-0.014,0.912,0.89,-1.22,-0.64,1,3
16644.453,-0.389,-0.014,0.915,0.85,-0.73,-0.95,1,3
16644.453,-0.39,-0.01,0.92,0.67,-0.43,-1.31,1,3
16644.468,-0.394,-0.006,0.921,0.85,-0.09,-1.65,1,3
16644.484,-0.4,-0.004,0.925,1.07,-0.58,-1.22,1,3
16644.484,-0.393,-0.001,0.922,0.55,-1.56,-0.67,1,3
16644.5,-0.388,-0.004,0.916,0.24,-2.04,-0.73,1,3
16644.515,-0.391,-0.007,0.911,0.58,-1.98,-0.4,1,3
16644.515,-0.396,-0.005,0.907,0.95,-1.77,-0.34,1,3
16644.531,-0.399,-0.006,0.904,0.64,-1.77,-0.37,1,3
16644.531,-0.398,-0.009,0.904,0.31,-1.65,-0.4,1,3
16644.546,-0.396,-0.01,0.906,0.58,-1.25,-0.64,1,3
16644.562,-0.394,-0.01,0.907,0.95,-0.7,-1.13,1,3
16644.562,-0.396,-0.007,0.911,1.28,-0.21,-1.8,1,3
16644.578,-0.4,-0.006,0.921,1.65,0.09,-2.2,1,3
16644.593,-0.406,-0.001,0.924,2.32,-0.31,-2.11,1,3
16644.593,-0.405,0.004,0.922,2.41,-1.01,-1.34,1,3
16644.609,-0.399,0.006,0.917,1.68,-1.89,-0.31,1,3
16644.625,-0.393,0.003,0.913,0.7,-2.23,0.55,1,3
16644.625,-0.385,-0.004,0.909,0.15,-1.89,1.25,1,3
16644.64,-0.383,-0.009,0.909,0.18,-1.25,1.25,1,3
16644.656,-0.386,-0.01,0.914,0.18,-0.37,0.98,1,3
16644.656,-0.385,-0.01,0.921,-0.06,-0.03,0.7,1,3
16644.671,-0.391,-0.011,0.929,0.0,-0.03,0.4,1,3
16644.671,-0.392,-0.01,0.927,0.37,-0.52,0.24,1,3
16644.687,-0.394,-0.006,0.92,0.34,-0.98,0.0,1,3
16644.703,-0.398,-0.009,0.915,0.06,-1.22,-0.37,1,3
16644.703,-0.401,-0.01,0.913,0.18,-1.19,-0.21,1,3
16644.718,-0.404,-0.008,0.908,0.24,-0.98,0.09,1,3
16644.734,-0.4,-0.007,0.906,-0.09,-0.79,0.21,1,3
16644.734,-0.395,-0.01,0.91,-0.34,-0.43,0.15,1,3
16644.75,-0.395,-0.01,0.911,0.06,0.03,-0.31,1,3
16644.75,-0.394,-0.005,0.912,0.43,0.4,-0.85,1,3
16644.765,-0.398,-0.002,0.916,0.61,0.46,-1.4,1,3
16644.781,-0.402,0.002,0.923,0.73,0.37,-1.43,1,3
16644.796,-0.407,0.002,0.926,0.95,-0.27,-0.85,1,3
16644.796,-0.402,0.004,0.92,0.55,-1.34,0.15,1,3
16644.812,-0.392,0.003,0.915,0.12,-1.98,0.49,1,3
16644.812,-0.396,0.0,0.912,0.18,-1.83,0.49,1,3
16644.828,-0.396,-0.004,0.909,-0.03,-1.89,1.07,1,3
16644.843,-0.385,-0.007,0.906,-0.46,-1.89,1.43,1,3
16644.843,-0.377,-0.016,0.903,-0.58,-1.46,1.01,1,3
16644.859,-0.38,-0.017,0.907,0.0,-0.61,0.27,1,3
16644.875,-0.385,-0.014,0.907,0.79,0.12,-0.49,1,3
16644.89,-0.389,-0.01,0.907,1.07,0.64,-1.1,1,3
16644.89,-0.391,-0.004,0.918,1.07,1.13,-1.56,1,3
16644.89,-0.405,0.001,0.925,1.43,1.46,-1.46,1,3
16644.906,-0.409,0.005,0.923,1.28,1.1,-0.31,1,3
16644.921,-0.4,0.011,0.929,0.03,0.4,0.82,1,3
16644.921,-0.398,0.006,0.931,-0.98,-0.46,1.01,1,3
16644.937,-0.399,0.003,0.932,-0.89,-0.98,1.01,1,3
16644.953,-0.397,0.01,0.927,-0.73,-1.31,1.1,1,3
16644.968,-0.4,0.014,0.926,-1.5,-1.4,1.19,1,3
16644.968,-0.397,0.006,0.908,-2.11,-1.43,1.37,1,3
16644.984,-0.41,0.004,0.92,-1.8,-0.52,1.86,1,3
16644.984,-0.401,-0.003,0.907,-2.11,-0.67,1.92,1,3
16645.0,-0.401,-0.012,0.913,-1.83,-0.09,1.68,1,3
16645.015,-0.404,-0.012,0.912,-1.8,-0.03,0.98,1,3
16645.015,-0.398,-0.018,0.904,-1.56,-0.79,0.7,1,3
16645.031,-0.396,-0.026,0.914,-0.12,-1.53,0.52,1,3
16645.031,-0.389,-0.008,0.879,-0.18,-2.17,-0.34,1,3
16645.046,-0.398,-0.023,0.903,1.1,-1.1,-0.82,1,3
16645.062,-0.4,-0.013,0.902,1.37,-1.25,-1.34,1,3
16645.078,-0.402,-0.011,0.912,1.98,-1.4,-1.13,1,3
16645.078,-0.403,-0.01,0.897,2.44,-1.43,-0.95,1,3
16645.093,-0.395,-0.008,0.91,1.86,-1.37,-0.61,1,3
16645.093,-0.389,-0.016,0.909,1.53,-0.98,-0.98,1,3
16645.109,-0.394,-0.014,0.917,1.95,-0.09,-1.31,1,3
16645.125,-0.394,-0.009,0.922,2.2,0.4,-1.77,1,3
16645.125,-0.396,-0.005,0.926,1.86,0.73,-2.26,1,3
16645.14,-0.4,-0.001,0.932,1.19,0.98,-2.41,1,3
16645.14,-0.401,0.001,0.937,0.89,1.01,-2.32,1,3
16645.156,-0.403,0.006,0.943,0.79,0.73,-2.41,1,3
16645.171,-0.411,0.01,0.942,1.16,0.09,-2.59,1,3
16645.187,-0.41,0.021,0.935,0.89,-0.73,-1.62,1,3
16645.187,-0.399,0.024,0.927,-0.79,-1.65,-0.27,1,3
16645.203,-0.392,0.017,0.92,-2.04,-1.95,0.61,1,3
16645.203,-0.394,0.009,0.912,-2.04,-1.8,1.22,1,3
16645.218,-0.393,0.004,0.906,-1.68,-1.89,1.65,1,3
16645.234,-0.399,-0.0,0.902,-1.56,-2.01,1.74,1,3
16645.234,-0.402,-0.009,0.901,-1.4,-3.42,2.23,1,3
16645.25,-0.398,-0.016,0.893,-0.79,-3.57,2.01,1,3
16645.265,-0.393,-0.021,0.889,-0.12,-3.42,1.04,1,3
16645.265,-0.392,-0.025,0.892,0.34,-3.11,0.03,1,3
16645.281,-0.39,-0.026,0.893,1.31,-2.62,-0.79,1,3
16645.281,-0.39,-0.023,0.894,2.17,-1.98,-1.53,1,3
16645.296,-0.388,-0.019,0.899,2.53,-1.04,-2.2,1,3
16645.312,-0.399,-0.015,0.915,3.11,0.09,-3.08,1,3
16645.312,-0.406,-0.01,0.93,4.03,0.58,-3.72,1,3
16645.328,-0.408,0.003,0.941,4.15,0.31,-3.78,1,3
16645.343,-0.407,0.014,0.945,3.48,-0.34,-3.66,1,3
16645.343,-0.407,0.018,0.946,2.38,-0.95,-2.96,1,3
16645.359,-0.4,0.021,0.94,1.25,-1.28,-1.98,1,3
16645.375,-0.398,0.023,0.933,0.27,-1.04,-1.31,1,3
16645.375,-0.402,0.02,0.933,-0.79,-0.64,-0.37,1,3
16645.39,-0.396,0.015,0.931,-1.62,-0.92,0.64,1,3
16645.406,-0.389,0.008,0.92,-1.74,-1.19,1.4,1,3
16645.406,-0.386,0.002,0.915,-1.62,-1.16,1.83,1,3
16645.421,-0.388,-0.006,0.906,-1.22,-1.34,2.08,1,3
16645.421,-0.386,-0.013,0.899,-1.01,-1.71,2.38,1,3
16645.437,-0.385,-0.018,0.898,-0.85,-2.08,2.23,1,3
16645.453,-0.383,-0.019,0.898,-0.61,-2.44,2.08,1,3
16645.453,-0.37,-0.018,0.892,-0.52,-2.84,1.74,1,3
16645.468,-0.369,-0.016,0.893,-0.18,-2.23,0.89,1,3
16645.484,-0.377,-0.011,0.898,0.82,-1.19,0.21,1,3
16645.484,-0.386,-0.002,0.903,1.4,-0.46,-0.24,1,3
16645.5,-0.392,0.004,0.908,1.28,0.27,-0.58,1,3
16645.5,-0.398,0.006,0.916,1.04,1.01,-0.85,1,3
16645.515,-0.403,0.011,0.923,1.01,1.86,-0.82,1,3
16645.531,-0.412,0.017,0.933,0.79,2.17,-0.49,1,3
16645.531,-0.42,0.018,0.942,0.06,1.83,0.31,1,3
16645.546,-0.42,0.017,0.945,-0.85,1.28,1.62,1,3
16645.562,-0.415,0.019,0.947,-1.95,0.43,2.99,1,3
16645.562,-0.403,0.016,0.939,-3.11,-0.49,3.54,1,3
16645.578,-0.4,0.009,0.932,-3.6,-0.89,3.63,1,3
16645.593,-0.399,0.003,0.925,-3.3,-0.89,3.57,1,3
16645.593,-0.396,-0.005,0.914,-3.02,-0.92,3.2,1,3
16645.609,-0.395,-0.012,0.906,-2.84,-0.7,2.84,1,3
16645.625,-0.396,-0.02,0.899,-2.32,-0.61,2.41,1,3
16645.625,-0.398,-0.024,0.892,-1.68,-0.58,2.08,1,3
16645.64,-0.395,-0.028,0.886,-1.01,-0.73,1.5,1,3
16645.656,-0.395,-0.029,0.887,-0.12,-0.52,0.46,1,3
16645.656,-0.399,-0.027,0.888,0.92,-0.43,-0.12,1,3
16645.671,-0.394,-0.023,0.889,1.4,-0.79,-0.46,1,3
16645.671,-0.389,-0.019,0.89,1.59,-0.92,-1.31,1,3
16645.687,-0.392,-0.015,0.895,2.32,-0.24,-2.01,1,3
16645.703,-0.397,-0.003,0.903,3.11,0.49,-2.35,1,3
16645.718,-0.4,0.005,0.915,2.99,0.98,-2.5,1,3
16645.718,-0.403,0.009,0.926,2.35,1.01,-2.5,1,3
16645.734,-0.405,0.01,0.935,1.83,0.85,-2.04,1,3
16645.734,-0.405,0.01,0.941,1.62,0.85,-1.71,1,3
16645.75,-0.408,0.017,0.941,1.59,0.89,-1.53,1,3
16645.765,-0.409,0.018,0.943,0.7,0.52,-1.25,1,3
16645.765,-0.406,0.02,0.941,-0.15,0.15,-0.92,1,3
16645.781,-0.405,0.017,0.935,-0.55,0.12,-0.4,1,3
16645.796,-0.398,0.009,0.928,-1.1,-0.06,0.27,1,3
16645.796,-0.388,0.005,0.923,-1.13,0.0,0.12,1,3
16645.812,-0.39,0.002,0.916,-0.85,0.37,-0.21,1,3
16645.812,-0.395,-0.002,0.915,-1.1,0.4,-0.09,1,3
16645.828,-0.394,-0.008,0.913,-1.13,0.06,0.18,1,3
16645.843,-0.39,-0.016,0.909,-0.73,-0.55,0.12,1,3
16645.843,-0.395,-0.021,0.906,0.09,-1.19,-0.34,1,3
16645.859,-0.394,-0.024,0.902,1.01,-2.11,-1.01,1,3
16645.875,-0.393,-0.029,0.896,2.01,-2.59,-2.23,1,3
16645.875,-0.395,-0.038,0.891,3.66,-2.66,-3.97,1,3
16645.89,-0.399,-0.038,0.887,5.68,-2.2,-6.13,1,3
16645.89,-0.398,-0.036,0.887,7.32,-1.8,-8.06,1,3
16645.906,-0.402,-0.026,0.883,8.03,-1.31,-9.8,1,3
16645.921,-0.412,-0.013,0.887,8.03,-0.67,-11.02,1,3
16645.937,-0.42,0.001,0.893,7.81,-0.24,-11.26,1,3
16645.937,-0.425,0.015,0.902,7.9,0.4,-10.9,1,3
16645.953,-0.431,0.022,0.915,7.97,1.22,-10.59,1,3
16645.953,-0.43,0.027,0.926,7.9,1.53,-9.77,1,3
16645.968,-0.426,0.033,0.937,7.35,1.56,-8.64,1,3
16645.984,-0.42,0.035,0.945,6.35,1.04,-7.51,1,3
16645.984,-0.411,0.035,0.941,4.91,0.34,-6.13,1,3
16646.0,-0.402,0.029,0.937,3.51,-0.18,-4.39,1,3
16646.015,-0.393,0.026,0.932,2.32,-0.46,-3.02,1,3
16646.015,-0.391,0.021,0.928,1.34,-0.55,-1.92,1,3
16646.031,-0.39,0.015,0.922,0.95,-0.7,-0.58,1,3
16646.031,-0.386,0.009,0.914,0.49,-0.89,0.55,1,3
16646.046,-0.38,0.004,0.91,-0.18,-1.04,1.25,1,3
16646.062,-0.379,-0.001,0.907,-0.79,-1.28,1.46,1,3
16646.062,-0.376,-0.004,0.902,-1.07,-1.53,1.53,1,3
16646.078,-0.378,-0.004,0.9,-0.64,-1.43,1.46,1,3
16646.093,-0.385,0.0,0.898,-0.06,-1.34,1.37,1,3
16646.093,-0.391,0.005,0.898,-0.03,-1.77,1.56,1,3
16646.109,-0.393,0.006,0.9,-0.31,-2.29,1.98,1,3
16646.125,-0.396,0.007,0.895,-0.55,-2.59,2.17,1,3
16646.125,-0.401,0.008,0.892,-0.61,-2.53,2.11,1,3
16646.14,-0.403,0.008,0.893,-0.58,-1.77,2.01,1,3
16646.156,-0.405,0.01,0.897,-0.27,-0.55,1.59,1,3
16646.156,-0.409,0.009,0.911,0.18,0.61,1.16,1,3
16646.171,-0.411,0.008,0.921,0.46,1.28,0.73,1,3
16646.171,-0.409,0.011,0.926,0.52,1.28,0.55,1,3
16646.187,-0.41,0.014,0.931,0.34,1.19,0.15,1,3
16646.203,-0.416,0.017,0.934,0.43,0.76,-0.03,1,3
16646.203,-0.419,0.021,0.93,0.18,-0.06,-0.06,1,3
16646.218,-0.422,0.024,0.93,-0.73,-1.59,0.98,1,3
16646.234,-0.415,0.021,0.925,-1.07,-2.08,2.08,1,3
16646.234,-0.406,0.016,0.914,-1.5,-2.14,2.62,1,3
16646.25,-0.396,0.009,0.903,-1.68,-1.89,2.44,1,3
16646.265,-0.388,-0.009,0.897,-1.13,-1.43,1.8,1,3
16646.265,-0.392,-0.014,0.895,-0.31,-1.31,0.98,1,3
16646.281,-0.394,-0.016,0.893,0.67,-1.43,0.15,1,3
16646.281,-0.398,-0.017,0.892,1.34,-1.56,-0.61,1,3
16646.296,-0.406,-0.013,0.898,1.95,-1.95,-1.1,1,3
16646.312,-0.405,-0.01,0.895,2.62,-2.5,-1.22,1,3
16646.312,-0.402,-0.007,0.895,2.93,-2.78,-1.4,1,3
16646.328,-0.399,-0.002,0.896,2.87,-2.78,-1.74,1,3
16646.343,-0.394,0.001,0.901,3.02,-2.29,-2.23,1,3
16646.343,-0.395,0.006,0.906,3.6,-1.53,-2.81,1,3
16646.359,-0.399,0.014,0.915,4.15,-0.64,-3.45,1,3
16646.375,-0.404,0.02,0.926,4.15,0.09,-3.75,1,3
16646.375,-0.406,0.024,0.936,3.94,0.58,-3.78,1,3
16646.39,-0.412,0.026,0.938,3.51,0.82,-3.42,1,3
16646.39,-0.418,0.029,0.944,2.66,0.95,-2.87,1,3
16646.406,-0.423,0.03,0.951,1.8,0.34,-1.95,1,3
16646.421,-0.424,0.027,0.95,1.25,-0.92,-0.64,1,3
16646.421,-0.418,0.026,0.941,0.18,-2.53,0.4,1,3
16646.437,-0.409,0.02,0.929,-1.01,-4.15,0.89,1,3
16646.453,-0.403,0.011,0.915,-1.07,-5.16,0.98,1,3
16646.453,-0.398,0.006,0.898,-0.06,-5.43,1.19,1,3
16646.468,-0.397,0.005,0.882,0.49,-4.7,1.07,1,3
16646.484,-0.4,-0.004,0.88,0.49,-3.63,0.67,1,3
16646.484,-0.4,-0.012,0.884,0.82,-2.69,0.09,1,3
16646.5,-0.399,-0.016,0.891,1.86,-1.86,-0.61,1,3
16646.515,-0.401,-0.016,0.899,2.69,-1.4,-1.62,1,3
16646.515,-0.399,-0.018,0.905,3.45,-1.22,-2.84,1,3
16646.531,-0.4,-0.015,0.914,4.33,-1.28,-4.27,1,3
16646.531,-0.396,-0.003,0.906,4.73,-1.86,-5.19,1,3
16646.546,-0.395,0.001,0.91,5.86,-1.71,-5.89,1,3
16646.562,-0.392,0.019,0.914,5.55,-1.53,-6.32,1,3
16646.562,-0.393,0.018,0.902,5.55,-1.34,-5.95,1,3
16646.578,-0.386,0.038,0.909,4.82,0.06,-4.88,1,3
16646.593,-0.383,0.031,0.919,3.85,0.98,-4.24,1,3
16646.609,-0.385,0.032,0.922,3.08,1.56,-3.45,1,3
16646.609,-0.393,0.032,0.933,3.08,2.2,-2.04,1,3
16646.609,-0.392,0.035,0.934,2.14,1.68,-0.76,1,3
16646.625,-0.389,0.033,0.935,0.49,0.92,0.15,1,3
16646.64,-0.378,0.028,0.93,-0.79,0.31,0.79,1,3
16646.64,-0.374,0.03,0.925,-1.28,0.21,1.31,1,3
16646.656,-0.376,0.031,0.91,-1.37,0.37,1.65,1,3
16646.671,-0.385,0.037,0.914,-2.08,0.85,2.72,1,3
16646.687,-0.391,0.033,0.913,-2.87,0.64,3.72,1,3
16646.687,-0.395,0.028,0.908,-3.14,0.49,4.58,1,3
16646.703,-0.397,0.023,0.907,-3.33,0.58,5.13,1,3
16646.703,-0.396,0.017,0.905,-3.72,0.61,5.13,1,3
16646.718,-0.399,0.012,0.908,-4.09,1.04,5.01,1,3
16646.734,-0.401,0.009,0.907,-4.15,1.16,4.7,1,3
16646.734,-0.403,0.011,0.91,-4.0,1.22,4.06,1,3
16646.75,-0.412,0.011,0.913,-3.23,1.19,3.39,1,3
16646.765,-0.413,0.014,0.912,-2.72,0.73,3.08,1,3
16646.765,-0.414,0.015,0.907,-2.56,0.27,2.69,1,3
16646.781,-0.416,0.014,0.904,-2.53,0.09,2.41,1,3
16646.781,-0.42,0.009,0.902,-2.53,0.31,2.29,1,3
16646.796,-0.426,0.005,0.908,-2.26,0.52,2.11,1,3
16646.812,-0.429,0.002,0.912,-1.59,0.46,2.17,1,3
16646.812,-0.423,0.001,0.913,-1.56,0.09,2.01,1,3
16646.828,-0.416,-0.001,0.909,-1.8,-0.27,1.5,1,3
16646.843,-0.411,-0.003,0.909,-1.65,-0.4,0.73,1,3
16646.843,-0.408,-0.004,0.912,-0.89,-0.21,-0.09,1,3
16646.859,-0.407,0.001,0.916,-0.09,-0.03,-0.73,1,3
16646.875,-0.412,0.006,0.919,0.43,-0.18,-1.5,1,3
16646.875,-0.417,0.01,0.917,0.64,-0.58,-1.77,1,3
16646.89,-0.419,0.013,0.915,0.52,-1.19,-1.65,1,3
16646.906,-0.419,0.014,0.913,0.43,-1.86,-1.5,1,3
16646.906,-0.415,0.011,0.903,0.73,-2.01,-1.56,1,3
16646.921,-0.413,0.01,0.9,1.1,-1.83,-1.34,1,3
16646.921,-0.405,0.007,0.903,1.25,-1.92,-1.4,1,3
16646.937,-0.403,0.001,0.907,1.71,-1.71,-1.98,1,3
16646.953,-0.404,-0.0,0.908,2.2,-1.74,-2.5,1,3
16646.953,-0.401,0.001,0.907,2.5,-1.89,-3.14,1,3
16646.968,-0.399,0.007,0.908,2.66,-2.08,-3.88,1,3
16646.984,-0.397,0.011,0.908,2.62,-2.23,-4.12,1,3
16646.984,-0.396,0.017,0.906,2.59,-2.04,-4.0,1,3
16647.0,-0.398,0.024,0.908,2.5,-1.62,-3.69,1,3
16647.015,-0.397,0.026,0.909,2.5,-1.4,-2.96,1,3
16647.015,-0.396,0.029,0.914,1.92,-1.34,-1.98,1,3
16647.031,-0.391,0.027,0.917,1.07,-1.4,-1.34,1,3
16647.031,-0.393,0.027,0.92,0.55,-1.16,-0.95,1,3
16647.046,-0.398,0.027,0.919,0.31,-0.85,-0.12,1,3
16647.062,-0.398,0.027,0.922,-0.55,-0.82,0.73,1,3
16647.062,-0.394,0.023,0.921,-1.65,-0.98,1.13,1,3
16647.078,-0.395,0.018,0.916,-1.92,-0.89,1.31,1,3
16647.093,-0.401,0.016,0.914,-1.86,-0.46,1.4,1,3
16647.093,-0.409,0.013,0.917,-2.01,-0.55,1.62,1,3
16647.109,-0.413,0.012,0.919,-2.08,-1.1,1.62,1,3
16647.125,-0.415,0.011,0.912,-1.8,-1.68,1.8,1,3
16647.125,-0.41,0.01,0.904,-1.89,-2.11,1.83,1,3
16647.14,-0.403,0.008,0.901,-1.53,-1.98,1.5,1,3
16647.14,-0.407,0.004,0.902,-0.7,-1.62,0.92,1,3
16647.156,-0.412,0.003,0.904,0.21,-1.4,0.55,1,3
16647.171,-0.409,0.003,0.903,0.58,-1.28,0.34,1,3
16647.171,-0.402,-0.003,0.902,0.52,-1.16,-0.27,1,3
16647.187,-0.403,-0.007,0.905,0.79,-0.95,-1.13,1,3
16647.203,-0.408,-0.005,0.909,2.11,-0.85,-2.44,1,3
16647.218,-0.403,-0.002,0.91,2.35,-0.95,-3.36,1,3
16647.218,-0.398,-0.002,0.907,2.69,-0.82,-3.88,1,3
16647.234,-0.403,0.005,0.911,2.93,-1.01,-3.97,1,3
16647.234,-0.404,0.019,0.911,2.84,-1.37,-3.63,1,3
16647.25,-0.397,0.024,0.91,2.53,-1.53,-3.36,1,3
16647.265,-0.397,0.026,0.911,2.35,-1.28,-2.99,1,3
16647.265,-0.399,0.03,0.911,2.11,-0.95,-2.59,1,3
16647.281,-0.398,0.031,0.912,1.74,-0.61,-1.74,1,3
16647.281,-0.398,0.029,0.914,1.34,-0.27,-0.95,1,3
16647.296,-0.399,0.025,0.916,0.7,-0.24,-0.24,1,3
16647.312,-0.399,0.019,0.918,0.09,-0.31,0.43,1,3
16647.312,-0.397,0.015,0.918,0.06,-0.7,0.58,1,3
16647.328,-0.394,0.012,0.917,0.09,-0.92,0.46,1,3
16647.343,-0.391,0.012,0.909,-0.18,-1.01,0.15,1,3
16647.343,-0.39,0.011,0.906,-0.37,-0.64,-0.03,1,3
16647.359,-0.394,0.013,0.904,-0.31,-0.03,-0.15,1,3
16647.375,-0.396,0.017,0.907,-0.03,0.43,-0.18,1,3
16647.375,-0.402,0.019,0.909,-0.15,0.7,-0.12,1,3
16647.39,-0.406,0.02,0.91,-0.43,0.79,0.18,1,3
16647.39,-0.407,0.021,0.91,-0.49,0.61,0.64,1,3
16647.406,-0.409,0.02,0.914,-0.7,0.52,1.07,1,3
16647.421,-0.406,0.019,0.914,-0.89,0.12,1.43,1,3
16647.437,-0.404,0.016,0.913,-0.98,-0.37,1.62,1,3
16647.437,-0.408,0.011,0.915,-1.01,-0.98,1.71,1,3
16647.453,-0.407,0.01,0.911,-1.01,-1.46,1.95,1,3
16647.453,-0.407,0.008,0.908,-0.85,-1.65,1.5,1,3
16647.468,-0.409,0.005,0.904,-0.4,-1.16,0.79,1,3
16647.484,-0.411,0.007,0.903,-0.09,-0.21,0.58,1,3
16647.484,-0.407,0.01,0.905,-0.12,0.52,0.4,1,3
16647.5,-0.407,0.01,0.914,0.06,1.01,-0.09,1,3
16647.515,-0.415,0.01,0.919,0.58,1.22,-0.52,1,3
16647.515,-0.416,0.014,0.92,0.82,0.58,-0.34,1,3
16647.531,-0.411,0.017,0.92,0.37,-0.55,-0.31,1,3
16647.531,-0.408,0.017,0.917,0.06,-1.34,-0.34,1,3
16647.546,-0.408,0.018,0.912,-0.03,-1.5,-0.09,1,3
16647.562,-0.407,0.017,0.907,0.0,-1.46,0.03,1,3
16647.562,-0.404,0.016,0.905,0.0,-1.28,0.06,1,3
16647.578,-0.406,0.017,0.909,0.09,-0.82,-0.09,1,3
16647.593,-0.405,0.013,0.91,0.34,-0.61,-0.46,1,3
16647.593,-0.407,0.015,0.909,0.67,-0.52,-0.82,1,3
16647.609,-0.409,0.014,0.905,1.1,-0.67,-0.98,1,3
16647.625,-0.407,0.017,0.904,1.04,-1.13,-0.76,1,3
16647.625,-0.402,0.011,0.904,0.82,-1.31,-0.61,1,3
16647.64,-0.401,0.008,0.906,0.92,-1.07,-0.52,1,3
16647.656,-0.398,0.011,0.909,1.04,-0.76,-0.37,1,3
16647.656,-0.397,0.012,0.915,0.92,-0.34,-0.43,1,3
16647.671,-0.403,0.012,0.921,0.61,-0.37,-1.07,1,3
16647.671,-0.408,0.016,0.917,0.79,-0.55,-1.34,1,3
16647.687,-0.408,0.024,0.912,0.79,-0.92,-1.19,1,3
16647.703,-0.409,0.027,0.907,0.55,-1.19,-1.22,1,3
16647.703,-0.408,0.025,0.904,0.18,-1.1,-0.79,1,3
16647.718,-0.411,0.022,0.905,0.06,-0.76,0.0,1,3
16647.734,-0.413,0.019,0.912,-0.12,-0.52,0.49,1,3
16647.734,-0.412,0.011,0.918,-0.12,-0.92,0.58,1,3
16647.75,-0.409,0.007,0.914,0.12,-1.31,0.49,1,3
16647.765,-0.403,0.007,0.908,0.31,-1.4,0.15,1,3
16647.765,-0.396,0.009,0.906,0.27,-1.19,-0.31,1,3
16647.781,-0.396,0.01,0.904,0.46,-0.67,-0.92,1,3
16647.781,-0.404,0.015,0.904,0.98,0.0,-1.28,1,3
16647.796,-0.407,0.021,0.905,1.04,0.18,-1.22,1,3
16647.812,-0.405,0.019,0.906,0.67,0.12,-0.76,1,3
16647.812,-0.405,0.016,0.91,0.64,0.0,-0.27,1,3
16647.828,-0.408,0.016,0.914,1.07,0.06,-0.03,1,3
16647.843,-0.407,0.017,0.912,1.07,-0.21,-0.03,1,3
16647.843,-0.408,0.017,0.91,0.95,-0.31,-0.27,1,3
16647.859,-0.412,0.019,0.911,0.98,-0.4,-0.52,1,3
16647.875,-0.414,0.021,0.912,0.85,-0.46,-0.43,1,3
16647.875,-0.411,0.02,0.911,0.49,-0.49,-0.15,1,3
16647.89,-0.406,0.019,0.911,0.12,-0.67,-0.09,1,3
16647.89,-0.405,0.017,0.914,0.09,-0.7,0.0,1,3
16647.906,-0.402,0.014,0.912,0.06,-0.76,0.27,1,3
16647.921,-0.401,0.019,0.916,0.37,-0.73,0.18,1,3
16647.921,-0.41,0.016,0.902,0.76,-0.64,0.06,1,3
16647.937,-0.408,0.022,0.911,-0.09,-1.19,0.15,1,3
16647.953,-0.402,0.02,0.903,-0.15,-1.13,0.06,1,3
16647.968,-0.404,0.021,0.905,-0.4,-0.89,0.18,1,3
16647.968,-0.408,0.016,0.905,-0.27,-0.34,0.27,1,3
16647.984,-0.408,0.014,0.905,-0.21,0.0,0.37,1,3
16647.984,-0.403,0.011,0.908,-0.31,0.12,0.12,1,3
16648.0,-0.411,0.01,0.914,0.03,0.21,-0.18,1,3
16648.015,-0.414,0.014,0.917,0.4,-0.27,-0.12,1,3
16648.015,-0.41,0.02,0.913,0.21,-1.1,0.0,1,3
16648.031,-0.406,0.021,0.908,-0.03,-1.53,-0.09,1,3
16648.031,-0.409,0.019,0.904,0.03,-1.34,-0.09,1,3
16648.046,-0.41,0.019,0.907,-0.03,-1.19,0.34,1,3
16648.062,-0.413,0.019,0.908,0.06,-1.16,0.58,1,3
16648.062,-0.413,0.019,0.909,0.21,-1.25,0.58,1,3
16648.078,-0.409,0.017,0.912,-0.06,-1.37,0.85,1,3
16648.093,-0.407,0.017,0.912,-0.46,-1.5,0.79,1,3
16648.093,-0.406,0.014,0.911,-0.34,-1.53,0.61,1,3
16648.109,-0.405,0.015,0.911,-0.21,-1.53,0.43,1,3
16648.125,-0.403,0.015,0.907,-0.18,-1.43,0.18,1,3
16648.125,-0.405,0.014,0.906,-0.24,-1.25,-0.31,1,3
16648.14,-0.408,0.014,0.906,0.06,-1.04,-0.4,1,3
16648.14,-0.411,0.017,0.91,0.46,-1.1,-0.31,1,3
16648.156,-0.414,0.018,0.911,0.4,-1.43,-0.27,1,3
16648.171,-0.411,0.018,0.908,0.24,-1.8,-0.34,1,3
16648.187,-0.406,0.016,0.907,0.15,-1.71,-0.52,1,3
16648.187,-0.405,0.017,0.901,0.67,-1.16,-0.95,1,3
16648.203,-0.403,0.015,0.898,0.76,-0.58,-1.19,1,3
16648.203,-0.404,0.011,0.898,0.95,-0.15,-1.31,1,3
16648.218,-0.415,0.009,0.912,1.19,0.0,-1.43,1,3
16648.234,-0.416,0.011,0.914,1.28,-0.31,-1.4,1,3
16648.234,-0.411,0.017,0.917,1.28,-0.89,-1.5,1,3
16648.25,-0.406,0.019,0.917,1.07,-1.4,-1.34,1,3
16648.265,-0.4,0.022,0.912,0.55,-1.46,-1.22,1,3
16648.265,-0.4,0.024,0.91,0.12,-1.1,-0.98,1,3
16648.281,-0.403,0.028,0.915,-0.24,-0.79,-0.64,1,3
16648.281,-0.403,0.027,0.914,-0.49,-0.64,0.03,1,3
16648.296,-0.399,0.027,0.912,-1.07,-0.82,0.76,1,3
16648.312,-0.392,0.025,0.912,-1.92,-0.76,1.25,1,3
16648.312,-0.394,0.022,0.914,-2.29,-0.34,1.22,1,3
16648.328,-0.397,0.02,0.916,-2.2,-0.31,1.1,1,3
16648.343,-0.401,0.02,0.91,-2.01,-0.43,1.04,1,3
16648.343,-0.404,0.021,0.903,-1.98,-0.64,0.95,1,3
