timestamp,ax,ay,az,gx,gy,gz,orient_label,motion_label
15953.031,-0.972,-0.074,0.097,-0.31,6.1,-1.68,0,6
15953.046,-0.974,-0.057,0.093,0.52,6.2,-2.47,0,6
15953.046,-0.979,-0.052,0.093,0.15,5.92,-3.08,0,6
15953.062,-0.982,-0.055,0.093,-0.61,4.97,-3.17,0,6
15953.078,-0.978,-0.052,0.091,-1.53,4.09,-2.99,0,6
15953.078,-0.98,-0.056,0.089,-2.26,3.6,-2.78,0,6
15953.093,-0.976,-0.058,0.095,-2.69,3.45,-2.59,0,6
15953.093,-0.97,-0.055,0.102,-2.35,3.75,-2.78,0,6
15953.109,-0.971,-0.057,0.108,-0.76,4.33,-3.08,0,6
15953.125,-0.983,-0.062,0.11,2.04,4.94,-2.99,0,6
15953.125,-0.994,-0.057,0.108,4.39,4.21,-2.29,0,6
15953.14,-0.993,-0.053,0.098,5.43,2.38,-1.83,0,6
15953.156,-0.991,-0.049,0.088,4.49,0.58,-1.53,0,6
15953.171,-0.983,-0.044,0.082,1.13,-0.7,-1.34,0,6
15953.171,-0.978,-0.044,0.079,-2.93,-1.13,-1.56,0,6
15953.187,-0.977,-0.05,0.085,-5.52,-0.46,-1.71,0,6
15953.187,-0.985,-0.057,0.087,-6.56,0.46,-1.25,0,6
15953.203,-0.98,-0.056,0.086,-7.51,0.09,-0.31,0,6
15953.218,-0.978,-0.052,0.08,-8.27,0.03,-0.46,0,6
15953.234,-0.979,-0.05,0.081,-9.4,0.15,-0.73,0,6
15953.234,-0.977,-0.052,0.084,-9.89,0.15,-1.1,0,6
15953.25,-0.98,-0.053,0.086,-9.31,0.43,-1.28,0,6
15953.265,-0.985,-0.055,0.095,-7.87,0.79,-1.31,0,6
15953.281,-0.987,-0.058,0.098,-5.49,0.61,-0.95,0,6
15953.281,-0.984,-0.055,0.095,-2.99,0.06,-0.64,0,6
15953.296,-0.981,-0.049,0.088,-1.98,-0.52,-0.49,0,6
15953.296,-0.982,-0.047,0.085,-2.62,-1.07,-0.43,0,6
15953.312,-0.986,-0.047,0.081,-4.09,-1.43,-0.18,0,6
15953.328,-0.983,-0.052,0.08,-5.49,-1.86,0.4,0,6
15953.328,-0.982,-0.059,0.08,-6.29,-2.17,0.92,0,6
15953.343,-0.978,-0.071,0.081,-6.71,-1.98,1.01,0,6
15953.359,-0.972,-0.075,0.081,-6.29,-1.86,0.46,0,6
15953.359,-0.972,-0.077,0.085,-4.67,-1.53,-0.43,0,6
15953.39,-0.981,-0.081,0.091,2.38,-0.52,-1.92,0,6
15953.39,-0.982,-0.07,0.085,6.44,-0.64,-2.04,0,6
15953.406,-0.984,-0.052,0.079,8.18,-0.61,-2.11,0,6
15953.406,-0.99,-0.046,0.07,6.9,-0.67,-2.08,0,6
15953.421,-0.987,-0.043,0.068,3.6,-0.98,-1.77,0,6
15953.437,-0.986,-0.045,0.068,0.46,-1.4,-1.25,0,6
15953.437,-0.982,-0.046,0.069,-2.38,-1.4,-0.73,0,6
15953.453,-0.98,-0.052,0.076,-4.03,-1.22,-0.27,0,6
15953.468,-0.983,-0.068,0.079,-4.03,-1.01,0.43,0,6
15953.468,-0.98,-0.07,0.085,-2.9,-0.95,0.76,0,6
15953.484,-0.979,-0.071,0.087,-0.92,-1.13,0.34,0,6
15953.484,-0.98,-0.078,0.087,0.85,-1.4,-0.06,0,6
15953.5,-0.977,-0.083,0.081,2.47,-1.68,-0.15,0,6
15953.515,-0.971,-0.079,0.075,3.45,-1.56,-0.7,0,6
15953.515,-0.97,-0.068,0.069,3.08,-0.92,-1.5,0,6
15953.531,-0.975,-0.062,0.073,1.37,-0.34,-2.04,0,6
15953.546,-0.98,-0.052,0.075,-3.14,0.0,-1.83,0,6
15953.562,-0.982,-0.054,0.082,-4.97,-0.09,-1.28,0,6
15953.578,-0.987,-0.057,0.089,-6.59,-0.92,-0.52,0,6
15953.578,-0.983,-0.059,0.088,-8.18,-1.8,0.49,0,6
15953.593,-0.98,-0.066,0.088,-9.46,-2.35,0.82,0,6
15953.593,-0.977,-0.077,0.089,-10.25,-2.56,0.55,0,6
15953.609,-0.972,-0.086,0.093,-10.04,-2.35,-0.31,0,6
15953.625,-0.97,-0.091,0.099,-8.24,-1.77,-1.16,0,6
15953.625,-0.97,-0.091,0.102,-5.31,-1.28,-2.17,0,6
15953.64,-0.969,-0.081,0.104,-2.41,-0.73,-2.96,0,6
15953.656,-0.972,-0.072,0.108,-0.06,-0.52,-3.48,0,6
15953.656,-0.975,-0.071,0.111,1.98,-0.76,-3.63,0,6
15953.671,-0.972,-0.075,0.115,4.09,-1.31,-3.2,0,6
15953.687,-0.971,-0.067,0.117,5.92,-1.5,-2.87,0,6
15953.687,-0.977,-0.07,0.12,6.96,-1.77,-2.66,0,6
15953.703,-0.975,-0.079,0.133,7.72,-2.78,-2.41,0,6
15953.718,-0.959,-0.094,0.165,12.27,-4.58,-1.74,0,6
15953.734,-0.949,-0.109,0.195,16.57,-5.8,-1.43,0,6
15953.734,-0.945,-0.133,0.23,23.87,-7.45,-0.92,0,6
15953.75,-0.944,-0.158,0.258,33.97,-9.25,-0.37,0,6
15953.765,-0.941,-0.179,0.289,45.72,-11.29,-0.73,0,6
15953.781,-0.935,-0.204,0.317,59.72,-13.46,-2.81,0,6
15953.781,-0.934,-0.214,0.329,75.38,-14.92,-6.38,0,6
15953.796,-0.931,-0.204,0.338,91.25,-15.72,-11.78,0,6
15953.796,-0.944,-0.181,0.348,106.54,-16.48,-18.59,0,6
15953.812,-0.957,-0.148,0.348,119.57,-17.46,-24.6,0,6
15953.828,-0.964,-0.085,0.337,128.24,-18.07,-27.47,0,6
15953.828,-0.973,-0.023,0.323,130.16,-19.07,-27.99,0,6
15953.843,-0.98,0.012,0.314,126.96,-21.33,-28.29,0,6
15953.859,-0.975,0.035,0.308,122.53,-23.22,-28.05,0,6
15953.859,-0.982,0.068,0.309,117.59,-24.99,-27.74,0,6
15953.875,-0.978,0.086,0.318,112.22,-26.83,-27.38,0,6
15953.89,-0.986,0.03,0.375,109.04,-32.56,-28.11,0,6
15953.906,-0.971,0.028,0.37,117.47,-40.53,-29.63,0,6
15953.906,-0.972,0.019,0.335,119.14,-42.24,-30.03,0,6
15953.921,-0.972,0.02,0.323,121.16,-43.15,-29.27,0,6
15953.937,-0.974,0.067,0.289,123.6,-43.95,-27.5,0,6
15953.937,-0.967,0.098,0.263,125.71,-42.79,-24.81,0,6
15953.953,-0.968,0.127,0.242,125.61,-39.4,-20.57,0,6
15953.968,-0.973,0.173,0.224,122.07,-34.42,-14.8,0,6
15953.968,-0.991,0.245,0.22,114.81,-27.74,-6.68,0,6
15953.984,-1.014,0.308,0.229,102.6,-22.31,5.07,0,6
15953.984,-1.046,0.344,0.248,87.86,-19.65,19.44,0,6
15954.0,-1.081,0.361,0.275,73.18,-19.87,36.32,0,6
15954.015,-1.113,0.366,0.298,61.16,-24.78,54.23,0,6
15954.031,-1.132,0.353,0.309,53.62,-33.27,71.81,0,6
15954.031,-1.129,0.349,0.313,48.43,-42.33,87.01,0,6
15954.046,-1.112,0.352,0.315,45.53,-50.29,97.66,0,6
15954.046,-1.098,0.339,0.306,44.95,-55.85,104.13,0,6
15954.062,-1.091,0.341,0.303,44.83,-58.44,108.13,0,6
15954.078,-1.074,0.355,0.31,45.26,-58.11,111.73,0,6
15954.078,-1.06,0.36,0.326,46.39,-54.32,115.27,0,6
15954.093,-1.069,0.37,0.351,47.18,-49.71,118.93,0,6
15954.109,-1.077,0.385,0.368,47.64,-48.52,123.2,0,6
15954.109,-1.079,0.397,0.38,47.27,-50.75,127.32,0,6
15954.125,-1.081,0.414,0.386,46.14,-55.12,130.62,0,6
15954.125,-1.069,0.429,0.393,43.67,-60.76,132.73,0,6
15954.14,-1.051,0.431,0.4,40.01,-67.2,134.22,0,6
15954.156,-1.041,0.425,0.41,35.07,-73.24,135.59,0,6
15954.156,-1.018,0.412,0.424,30.61,-78.22,136.88,0,6
15954.171,-0.978,0.394,0.429,27.04,-81.12,137.27,0,6
15954.187,-0.954,0.412,0.421,22.46,-81.91,135.38,0,6
15954.203,-0.949,0.467,0.405,15.41,-81.82,131.9,0,6
15954.203,-0.947,0.509,0.399,1.56,-83.16,129.46,0,6
15954.218,-0.945,0.504,0.411,-20.69,-88.99,127.9,0,6
15954.218,-0.935,0.475,0.438,-48.74,-100.71,127.11,0,6
15954.234,-0.919,0.412,0.458,-76.02,-119.05,125.55,0,6
15954.25,-0.901,0.377,0.494,-102.36,-142.06,121.83,0,6
15954.25,-0.866,0.429,0.536,-129.89,-164.28,117.95,0,6
15954.265,-0.848,0.428,0.545,-152.47,-179.72,117.62,0,6
15954.265,-0.809,0.354,0.532,-170.9,-189.61,118.29,0,6
15954.281,-0.744,0.273,0.52,-179.17,-193.76,117.34,0,6
15954.296,-0.682,0.214,0.53,-173.56,-190.77,116.52,0,6
15954.296,-0.631,0.15,0.552,-157.78,-184.79,114.08,0,6
15954.312,-0.562,0.085,0.563,-134.95,-178.62,107.79,0,6
15954.328,-0.514,0.019,0.555,-105.93,-170.66,99.58,0,6
15954.328,-0.485,-0.002,0.547,-74.74,-161.17,90.12,0,6
15954.343,-0.46,0.008,0.531,-45.75,-151.68,78.46,0,6
15954.359,-0.441,0.051,0.522,-22.55,-139.38,66.74,0,6
15954.359,-0.427,0.095,0.518,-5.43,-124.0,56.86,0,6
15954.375,-0.408,0.143,0.524,5.71,-106.3,49.81,0,6
15954.39,-0.401,0.203,0.536,12.05,-72.08,44.65,0,6
15954.406,-0.394,0.211,0.563,10.38,-55.88,45.9,0,6
15954.421,-0.409,0.218,0.61,7.93,-40.56,47.43,0,6
15954.421,-0.442,0.209,0.659,6.1,-30.52,47.98,0,6
15954.437,-0.47,0.203,0.698,4.36,-27.41,47.15,0,6
15954.437,-0.488,0.198,0.724,3.36,-32.04,45.23,0,6
15954.453,-0.491,0.205,0.728,2.69,-42.3,42.15,0,6
15954.468,-0.488,0.205,0.703,2.66,-54.48,39.19,0,6
15954.468,-0.463,0.196,0.656,3.27,-64.06,38.0,0,6
15954.484,-0.437,0.2,0.616,4.3,-66.59,37.84,0,6
15954.484,-0.412,0.198,0.59,5.71,-61.86,38.0,0,6
15954.5,-0.383,0.194,0.582,6.23,-52.4,37.48,0,6
15954.515,-0.356,0.199,0.585,7.02,-40.77,34.39,0,6
15954.531,-0.355,0.216,0.6,9.22,-27.99,29.11,0,6
15954.531,-0.368,0.252,0.631,11.23,-15.78,23.44,0,6
15954.546,-0.383,0.303,0.675,12.51,-4.67,17.85,0,6
15954.562,-0.471,0.407,0.764,13.76,13.06,12.48,0,6
15954.578,-0.502,0.461,0.807,10.22,16.39,13.43,0,6
15954.578,-0.522,0.489,0.847,3.54,15.75,15.56,0,6
15954.593,-0.529,0.508,0.873,-5.43,12.3,18.1,0,6
15954.593,-0.524,0.51,0.88,-12.48,8.12,21.82,0,6
15954.609,-0.509,0.49,0.873,-15.26,4.82,27.16,0,6
15954.625,-0.48,0.469,0.85,-14.34,3.08,33.54,0,6
15954.64,-0.441,0.453,0.821,-10.19,4.73,39.43,0,6
15954.64,-0.404,0.438,0.797,-5.25,9.31,42.21,0,6
15954.656,-0.374,0.436,0.78,-1.89,15.23,41.44,0,6
15954.656,-0.371,0.442,0.785,-1.65,22.46,37.97,0,6
15954.671,-0.39,0.443,0.795,-4.55,27.71,32.65,0,6
15954.687,-0.404,0.465,0.822,-9.95,29.85,29.88,0,6
15954.687,-0.433,0.499,0.823,-13.43,29.6,32.26,0,6
15954.703,-0.405,0.5,0.818,-17.43,27.83,38.51,0,6
15954.703,-0.363,0.486,0.844,-26.67,23.59,39.52,0,6
15954.718,-0.365,0.49,0.871,-35.58,19.62,34.88,0,6
15954.734,-0.362,0.478,0.894,-39.49,15.93,30.46,0,6
15954.75,-0.352,0.459,0.9,-39.16,11.57,26.8,0,6
15954.75,-0.334,0.446,0.883,-35.43,8.48,23.99,0,6
15954.765,-0.31,0.431,0.858,-29.36,7.26,21.64,0,6
15954.765,-0.292,0.429,0.837,-22.98,9.06,18.98,0,6
15954.781,-0.298,0.439,0.823,-18.86,13.52,16.24,0,6
15954.796,-0.313,0.44,0.82,-17.09,18.49,14.28,0,6
15954.796,-0.334,0.436,0.829,-15.81,22.64,13.25,0,6
15954.812,-0.353,0.432,0.844,-14.59,24.11,12.76,0,6
15954.828,-0.362,0.434,0.858,-14.47,22.52,11.9,0,6
15954.828,-0.379,0.442,0.875,-15.63,19.26,9.8,0,6
15954.843,-0.385,0.438,0.884,-17.12,14.74,6.74,0,6
15954.843,-0.387,0.439,0.885,-17.91,10.44,3.91,0,6
15954.859,-0.39,0.438,0.878,-17.27,6.87,1.34,0,6
15954.875,-0.375,0.422,0.867,-14.83,3.63,-0.95,0,6
15954.875,-0.362,0.412,0.849,-5.71,0.24,-2.87,0,6
15954.89,-0.357,0.412,0.828,-1.01,1.07,-2.66,0,6
15954.906,-0.349,0.407,0.807,2.11,2.84,-2.38,0,6
15954.906,-0.348,0.407,0.79,3.94,5.31,-2.32,0,6
15954.921,-0.351,0.412,0.795,4.09,7.05,-2.75,0,6
15954.937,-0.36,0.415,0.8,2.96,7.93,-3.2,0,6
15954.937,-0.38,0.422,0.807,1.31,7.87,-3.42,0,6
15954.953,-0.388,0.423,0.814,-0.37,6.59,-3.39,0,6
15954.953,-0.395,0.424,0.82,-1.65,4.7,-3.2,0,6
15954.968,-0.401,0.422,0.823,-2.08,2.29,-2.62,0,6
15954.984,-0.396,0.411,0.817,-1.92,-0.24,-1.86,0,6
15954.984,-0.381,0.399,0.802,-1.53,-2.62,-1.53,0,6
15955.0,-0.355,0.393,0.785,-0.43,-4.97,-1.83,0,6
15955.015,-0.332,0.391,0.766,1.13,-5.98,-3.2,0,6
15955.015,-0.319,0.392,0.754,2.72,-5.37,-5.01,0,6
15955.031,-0.3,0.395,0.748,3.33,-3.72,-6.01,0,6
15955.046,-0.298,0.4,0.749,2.72,-1.07,-6.47,0,6
15955.046,-0.303,0.405,0.758,1.04,1.77,-6.44,0,6
15955.078,-0.321,0.417,0.792,-4.36,7.23,-5.52,0,6
15955.078,-0.33,0.425,0.807,-6.53,9.13,-4.73,0,6
15955.093,-0.347,0.438,0.836,-7.57,9.8,-3.17,0,6
15955.093,-0.389,0.458,0.916,-8.51,8.15,-0.92,0,6
15955.109,-0.393,0.433,0.963,-10.16,0.09,0.34,0,6
15955.125,-0.372,0.438,0.966,-15.32,-10.71,-0.85,0,6
15955.14,-0.351,0.438,0.964,-18.68,-18.89,-2.62,0,6
15955.14,-0.33,0.411,0.954,-17.49,-24.05,-3.72,0,6
15955.156,-0.309,0.401,0.934,-13.67,-26.49,-4.0,0,6
15955.156,-0.303,0.411,0.917,-8.73,-26.25,-4.36,0,6
15955.171,-0.302,0.414,0.901,-4.39,-24.35,-4.64,0,6
15955.187,-0.303,0.419,0.887,-2.29,-22.28,-4.91,0,6
15955.187,-0.31,0.422,0.878,-0.95,-20.48,-5.07,0,6
15955.203,-0.317,0.419,0.866,0.09,-19.44,-4.76,0,6
15955.203,-0.321,0.417,0.847,-0.03,-18.89,-4.15,0,6
15955.218,-0.322,0.412,0.825,-1.25,-18.16,-3.66,0,6
15955.234,-0.317,0.379,0.803,-2.35,-15.72,-2.99,0,6
15955.25,-0.312,0.371,0.8,-1.22,-13.79,-2.01,0,6
15955.265,-0.314,0.364,0.806,-0.55,-13.55,-0.58,0,6
15955.281,-0.306,0.352,0.808,0.18,-14.8,1.56,0,6
15955.281,-0.283,0.331,0.812,1.28,-15.75,3.45,0,6
15955.296,-0.25,0.31,0.812,0.34,-15.75,4.36,0,6
15955.296,-0.198,0.282,0.766,-1.37,-12.39,1.95,0,6
15955.312,-0.305,0.395,0.864,3.66,-3.3,-0.64,0,6
15955.328,-0.324,0.414,0.968,4.85,-3.72,3.23,0,6
15955.328,-0.291,0.489,0.957,-4.3,-10.25,3.36,0,6
15955.343,-0.295,0.483,0.953,-10.47,-10.41,4.46,0,6
15955.359,-0.276,0.469,0.948,-15.08,-8.61,6.81,0,6
15955.359,-0.259,0.436,0.94,-14.19,-5.89,8.94,0,6
15955.375,-0.253,0.399,0.933,-8.0,-2.84,9.77,0,6
15955.375,-0.248,0.394,0.928,0.92,-0.67,8.76,0,6
15955.39,-0.254,0.39,0.922,10.32,0.18,6.47,0,6
15955.406,-0.273,0.408,0.909,21.55,-4.7,3.45,0,6
15955.421,-0.278,0.415,0.904,22.98,-8.51,2.62,0,6
15955.437,-0.308,0.456,0.916,20.72,-13.46,2.29,0,6
15955.437,-0.244,0.454,0.847,14.47,-18.52,5.65,0,6
15955.453,-0.178,0.38,0.826,7.45,-17.73,3.11,0,6
15955.453,-0.237,0.395,0.834,6.74,-12.94,-1.56,0,6
15955.468,-0.218,0.438,0.819,5.49,-10.65,-0.43,0,6
15955.484,-0.201,0.434,0.822,3.33,-8.91,-1.71,0,6
15955.484,-0.217,0.431,0.824,1.98,-6.07,-2.75,0,6
15955.5,-0.215,0.437,0.83,0.82,-4.21,-2.84,0,6
15955.515,-0.224,0.439,0.843,0.43,-2.56,-2.84,0,6
15955.515,-0.242,0.452,0.86,-0.52,-1.53,-1.92,0,6
15955.531,-0.244,0.452,0.866,-1.07,-1.74,-0.27,0,6
15955.546,-0.246,0.437,0.865,-0.73,-2.14,1.98,0,6
15955.546,-0.247,0.43,0.858,0.43,-1.68,4.61,0,6
15955.562,-0.239,0.419,0.854,2.53,-1.1,6.53,0,6
15955.578,-0.242,0.417,0.848,6.2,0.09,6.01,0,6
15955.593,-0.243,0.417,0.843,6.65,0.52,4.94,0,6
15955.593,-0.24,0.415,0.837,6.35,0.95,4.43,0,6
15955.609,-0.244,0.419,0.837,5.65,2.04,4.18,0,6
15955.625,-0.247,0.423,0.834,4.15,2.78,3.78,0,6
15955.625,-0.248,0.417,0.833,2.17,3.08,3.6,0,6
15955.64,-0.245,0.419,0.834,0.7,3.36,3.69,0,6
15955.656,-0.249,0.417,0.837,0.31,4.15,3.85,0,6
15955.656,-0.248,0.412,0.84,0.61,5.55,4.21,0,6
15955.671,-0.254,0.422,0.85,1.62,7.23,4.0,0,6
15955.687,-0.265,0.422,0.859,2.69,7.69,3.66,0,6
15955.687,-0.269,0.42,0.866,3.02,6.65,3.75,0,6
15955.703,-0.27,0.428,0.873,2.38,5.19,3.88,0,6
15955.718,-0.274,0.443,0.878,0.64,3.97,3.88,0,6
15955.718,-0.276,0.445,0.881,-2.32,2.29,3.69,0,6
15955.734,-0.275,0.44,0.882,-5.46,0.67,3.69,0,6
15955.734,-0.274,0.436,0.884,-7.35,-0.31,3.81,0,6
15955.75,-0.269,0.429,0.886,-7.05,-0.92,3.97,0,6
15955.765,-0.269,0.429,0.888,-5.49,-1.37,4.46,0,6
15955.765,-0.264,0.43,0.889,-3.69,-2.35,4.36,0,6
15955.781,-0.256,0.423,0.884,-1.89,-3.54,4.18,0,6
15955.796,-0.25,0.421,0.878,-0.03,-3.94,4.09,0,6
15955.796,-0.244,0.43,0.877,1.56,-3.42,4.06,0,6
15955.812,-0.239,0.435,0.875,2.96,-3.14,4.0,0,6
15955.828,-0.238,0.437,0.868,3.78,-3.17,4.18,0,6
15955.828,-0.231,0.443,0.866,4.09,-3.08,4.67,0,6
15955.843,-0.224,0.449,0.868,3.97,-3.02,5.01,0,6
15955.843,-0.218,0.449,0.864,3.85,-3.02,5.34,0,6
15955.859,-0.205,0.445,0.861,4.85,-3.23,6.26,0,6
15955.875,-0.193,0.451,0.864,6.44,-3.33,6.5,0,6
15955.875,-0.188,0.453,0.861,8.88,-2.84,7.6,0,6
15955.89,-0.181,0.454,0.849,11.93,-1.68,9.46,0,6
15955.906,-0.165,0.458,0.82,14.47,0.4,10.83,0,6
15955.906,-0.159,0.459,0.813,14.98,2.5,11.57,0,6
15955.921,-0.156,0.46,0.809,13.49,4.55,11.63,0,6
15955.937,-0.16,0.477,0.81,10.5,6.9,11.44,0,6
15955.937,-0.169,0.468,0.805,7.02,9.64,11.96,0,6
15955.953,-0.188,0.48,0.818,2.87,11.9,13.09,0,6
15955.968,-0.188,0.492,0.829,-2.08,12.48,14.77,0,6
15955.968,-0.202,0.474,0.834,-3.88,12.88,16.21,0,6
15955.984,-0.211,0.477,0.839,-4.18,13.12,17.27,0,6
15955.984,-0.215,0.488,0.848,-3.69,13.79,17.85,0,6
15956.0,-0.23,0.489,0.849,-2.44,14.89,18.04,0,6
15956.015,-0.244,0.498,0.85,-1.83,16.21,18.19,0,6
15956.015,-0.255,0.504,0.857,-2.2,16.54,18.25,0,6
15956.031,-0.264,0.501,0.853,-2.96,16.05,18.8,0,6
15956.046,-0.263,0.508,0.841,-3.91,15.17,20.26,0,6
15956.046,-0.257,0.505,0.827,-5.07,14.62,21.39,0,6
15956.062,-0.262,0.493,0.811,-7.42,14.47,21.55,0,6
15956.078,-0.259,0.476,0.797,-10.01,14.59,21.64,0,6
15956.078,-0.247,0.461,0.785,-13.21,15.23,21.21,0,6
15956.093,-0.246,0.459,0.775,-16.57,16.82,20.29,0,6
15956.109,-0.254,0.443,0.76,-19.44,19.44,19.59,0,6
15956.109,-0.258,0.438,0.75,-22.28,23.62,19.59,0,6
15956.125,-0.263,0.43,0.764,-24.29,28.14,19.65,0,6
15956.125,-0.278,0.406,0.789,-24.48,30.61,18.59,0,6
15956.14,-0.295,0.378,0.799,-24.63,29.88,16.24,0,6
15956.156,-0.302,0.376,0.829,-25.27,26.92,13.12,0,6
15956.156,-0.33,0.39,0.863,-24.2,22.22,10.83,0,6
15956.171,-0.331,0.384,0.87,-21.52,15.63,10.47,0,6
15956.187,-0.32,0.392,0.866,-19.71,10.93,11.05,0,6
15956.187,-0.324,0.411,0.866,-18.83,9.34,11.66,0,6
15956.203,-0.32,0.405,0.872,-17.0,8.39,13.03,0,6
15956.218,-0.31,0.385,0.87,-15.66,7.11,13.92,0,6
15956.218,-0.314,0.348,0.867,-15.2,6.29,14.4,0,6
15956.234,-0.299,0.392,0.87,-14.59,6.07,13.0,0,6
15956.25,-0.297,0.381,0.875,-13.64,6.47,13.95,0,6
15956.25,-0.293,0.368,0.868,-13.43,6.56,16.45,0,6
15956.265,-0.277,0.403,0.862,-11.87,7.66,16.51,0,6
15956.265,-0.287,0.376,0.852,-11.54,9.64,16.48,0,6
15956.281,-0.286,0.367,0.846,-13.76,10.86,16.54,0,6
15956.296,-0.271,0.375,0.837,-14.89,11.6,15.44,0,6
15956.312,-0.281,0.338,0.823,-16.02,12.48,13.03,0,6
15956.312,-0.281,0.323,0.818,-18.43,12.63,8.79,0,6
15956.328,-0.273,0.322,0.797,-20.26,12.27,3.3,0,6
15956.328,-0.271,0.32,0.783,-22.71,14.19,-2.01,0,6
15956.343,-0.257,0.307,0.762,-24.81,18.8,-7.66,0,6
15956.359,-0.265,0.308,0.711,-28.63,27.1,-13.89,0,6
15956.359,-0.393,0.392,0.823,-33.48,38.18,-16.45,0,6
15956.375,-0.37,0.326,0.948,-30.09,39.92,-10.62,0,6
15956.375,-0.484,0.442,0.986,-31.83,34.15,-10.01,0,6
15956.39,-0.522,0.447,1.163,-30.34,22.68,0.12,0,6
15956.406,-0.417,0.356,1.102,-27.68,0.76,4.12,0,6
15956.406,-0.398,0.381,1.031,-28.11,-10.5,2.47,0,6
15956.421,-0.372,0.318,0.993,-19.23,-11.23,1.25,0,6
15956.437,-0.383,0.286,0.956,-3.45,-7.51,0.79,0,6
15956.437,-0.397,0.29,0.917,11.75,-4.03,-0.37,0,6
15956.453,-0.425,0.329,0.896,21.42,-2.41,-2.14,0,6
15956.468,-0.456,0.353,0.915,25.21,-3.88,-2.41,0,6
15956.484,-0.518,0.322,0.906,25.21,-11.9,-4.15,0,6
15956.484,-0.545,0.309,0.893,21.39,-24.66,-7.57,0,6
15956.484,-0.568,0.364,0.93,18.25,-38.36,-7.78,0,6
15956.5,-0.383,0.206,0.872,15.11,-55.33,-8.58,0,6
15956.515,-0.478,0.282,0.83,2.41,-68.82,-26.73,0,6
15956.515,-0.408,0.27,0.903,2.66,-77.12,-33.72,0,6
15956.531,-0.34,0.254,0.87,3.54,-87.53,-38.18,0,6
15956.546,-0.295,0.279,0.803,0.09,-91.22,-46.08,0,6
15956.546,-0.234,0.295,0.774,-2.11,-87.28,-53.44,0,6
15956.562,-0.201,0.312,0.753,0.55,-76.88,-56.89,0,6
15956.578,-0.17,0.325,0.738,4.79,-63.36,-55.82,0,6
15956.578,-0.146,0.336,0.745,9.34,-49.84,-53.35,0,6
15956.593,-0.126,0.325,0.738,13.49,-36.87,-51.0,0,6
15956.593,-0.116,0.323,0.743,13.7,-25.64,-50.63,0,6
15956.609,-0.121,0.323,0.764,10.68,-16.45,-52.03,0,6
15956.625,-0.143,0.32,0.769,5.52,-9.55,-54.78,0,6
15956.625,-0.139,0.33,0.783,-1.86,-5.37,-56.76,0,6
15956.64,-0.13,0.331,0.791,-3.94,-1.92,-56.06,0,6
15956.656,-0.119,0.326,0.786,1.1,2.59,-51.85,0,6
15956.656,-0.133,0.341,0.792,10.62,8.64,-43.21,0,6
15956.671,-0.157,0.369,0.838,24.75,14.71,-31.4,0,6
15956.687,-0.219,0.493,0.916,39.22,16.24,-17.64,0,6
15956.687,-0.273,0.611,0.985,42.21,12.18,1.31,0,6
15956.703,-0.255,0.575,1.006,44.25,5.16,19.35,0,6
15956.703,-0.265,0.506,1.01,41.63,-6.38,26.67,0,6
15956.718,-0.258,0.598,1.002,20.91,-20.14,22.71,0,6
15956.734,-0.209,0.513,0.976,9.4,-26.22,18.59,0,6
15956.734,-0.215,0.475,0.965,3.48,-25.88,14.19,0,6
15956.75,-0.233,0.497,0.973,6.53,-21.94,13.31,0,6
15956.765,-0.21,0.486,0.984,14.83,-19.14,14.89,0,6
15956.765,-0.201,0.467,0.965,23.62,-17.49,13.28,0,6
15956.781,-0.19,0.467,0.942,29.76,-15.66,10.44,0,6
15956.796,-0.174,0.463,0.906,34.94,-13.31,7.69,0,6
15956.796,-0.176,0.464,0.874,38.0,-9.95,6.07,0,6
15956.812,-0.183,0.479,0.866,36.38,-6.74,4.94,0,6
15956.828,-0.184,0.483,0.856,31.56,-4.88,4.03,0,6
15956.828,-0.18,0.466,0.848,23.04,-3.72,2.87,0,6
15956.843,-0.2,0.467,0.871,5.98,-4.79,2.99,0,6
15956.843,-0.203,0.505,0.854,3.11,-4.79,4.52,0,6
15956.859,-0.154,0.363,0.852,0.61,-3.6,-0.73,0,6
15956.875,-0.177,0.398,0.849,1.25,-1.13,-2.84,0,6
15956.875,-0.185,0.397,0.869,2.26,-0.4,-4.7,0,6
15956.89,-0.197,0.419,0.87,1.77,-0.15,-6.1,0,6
15956.906,-0.197,0.43,0.871,0.15,-1.22,-7.17,0,6
15956.906,-0.197,0.424,0.863,-2.23,-2.75,-8.33,0,6
15956.921,-0.196,0.421,0.857,-3.36,-3.85,-9.25,0,6
15956.937,-0.199,0.426,0.85,-3.36,-4.55,-9.06,0,6
15956.937,-0.197,0.431,0.844,-3.11,-4.64,-7.63,0,6
15956.953,-0.194,0.432,0.842,-1.89,-3.88,-5.52,0,6
15956.968,-0.192,0.431,0.839,-0.4,-2.56,-3.85,0,6
15956.968,-0.193,0.429,0.837,0.15,-1.46,-2.96,0,6
15956.984,-0.194,0.431,0.832,0.06,-0.09,-2.44,0,6
15956.984,-0.194,0.43,0.83,-0.89,1.59,-2.11,0,6
15957.0,-0.203,0.425,0.833,-2.69,2.87,-2.23,0,6
15957.015,-0.212,0.416,0.84,-4.7,3.63,-2.59,0,6
15957.031,-0.219,0.416,0.857,-6.41,3.94,-2.87,0,6
15957.031,-0.23,0.414,0.872,-6.99,3.97,-2.96,0,6
15957.046,-0.238,0.409,0.881,-6.65,3.02,-3.3,0,6
15957.046,-0.244,0.409,0.887,-6.84,1.04,-4.24,0,6
15957.062,-0.244,0.415,0.893,-8.06,-2.53,-5.92,0,6
15957.078,-0.237,0.41,0.888,-9.06,-6.5,-7.57,0,6
15957.078,-0.233,0.406,0.876,-9.03,-9.49,-8.91,0,6
15957.093,-0.229,0.398,0.865,-7.78,-10.74,-9.74,0,6
15957.109,-0.222,0.401,0.862,-6.56,-10.53,-10.44,0,6
15957.109,-0.215,0.405,0.862,-4.85,-9.58,-11.38,0,6
15957.125,-0.217,0.406,0.855,-2.2,-7.87,-11.72,0,6
15957.125,-0.22,0.416,0.849,0.34,-5.68,-11.23,0,6
15957.14,-0.225,0.429,0.852,2.32,-3.27,-9.98,0,6
15957.156,-0.231,0.437,0.862,3.45,-0.92,-8.12,0,6
15957.156,-0.238,0.441,0.87,3.2,0.24,-5.65,0,6
15957.171,-0.242,0.438,0.882,1.28,-0.06,-3.63,0,6
15957.187,-0.236,0.431,0.89,-1.01,-1.92,-2.62,0,6
15957.187,-0.233,0.431,0.893,-3.3,-3.78,-2.14,0,6
15957.203,-0.224,0.431,0.893,-5.43,-5.13,-1.68,0,6
15957.218,-0.223,0.423,0.888,-6.41,-5.89,-1.31,0,6
15957.218,-0.216,0.407,0.878,-6.1,-6.01,-1.25,0,6
15957.234,-0.213,0.402,0.874,-4.67,-5.49,-0.55,0,6
15957.234,-0.207,0.393,0.86,-2.53,-4.21,0.18,0,6
15957.25,-0.206,0.383,0.856,-0.4,-3.27,0.18,0,6
15957.265,-0.205,0.377,0.848,0.76,-2.44,0.21,0,6
15957.265,-0.211,0.375,0.853,2.66,-1.62,0.61,0,6
15957.281,-0.211,0.382,0.859,4.33,-1.19,1.19,0,6
15957.296,-0.209,0.376,0.866,6.47,-0.89,1.53,0,6
15957.296,-0.218,0.374,0.865,9.67,0.21,3.14,0,6
15957.312,-0.216,0.385,0.867,10.1,0.27,4.24,0,6
15957.312,-0.201,0.409,0.888,6.44,-0.82,3.94,0,6
15957.328,-0.165,0.369,0.857,5.01,0.15,3.69,0,6
15957.343,-0.224,0.333,0.868,10.35,3.3,0.46,0,6
15957.343,-0.248,0.461,0.953,7.66,1.19,0.95,0,6
15957.359,-0.208,0.399,0.921,12.82,-1.59,4.67,0,6
15957.375,-0.216,0.409,0.914,15.2,0.0,5.37,0,6
15957.375,-0.217,0.449,0.923,12.51,2.75,5.1,0,6
15957.39,-0.24,0.46,0.939,11.54,5.37,4.24,0,6
15957.406,-0.268,0.468,0.949,12.33,7.17,5.34,0,6
15957.406,-0.281,0.459,0.946,14.89,6.13,6.53,0,6
15957.421,-0.298,0.418,0.939,20.51,2.59,5.65,0,6
15957.437,-0.308,0.423,0.919,28.63,-2.41,4.64,0,6
15957.437,-0.303,0.437,0.872,36.59,-7.78,4.76,0,6
15957.468,-0.256,0.561,0.777,33.57,-14.74,10.44,0,6
15957.468,-0.2,0.436,0.712,23.68,-12.79,10.07,0,6
15957.484,-0.208,0.443,0.763,3.97,-11.05,3.42,0,6
15957.484,-0.214,0.528,0.77,-6.32,-8.61,6.87,0,6
15957.5,-0.204,0.475,0.77,-7.48,-3.14,12.33,0,6
15957.515,-0.175,0.428,0.793,-13.52,-1.37,12.36,0,6
15957.515,-0.151,0.431,0.804,-17.79,-0.55,9.64,0,6
15957.531,-0.154,0.424,0.82,-15.84,2.44,6.71,0,6
15957.546,-0.163,0.406,0.833,-10.68,5.58,4.73,0,6
15957.546,-0.157,0.411,0.838,-6.23,7.11,3.2,0,6
15957.562,-0.154,0.418,0.84,-2.62,8.33,1.31,0,6
15957.578,-0.157,0.425,0.845,-0.18,9.4,-0.34,0,6
15957.578,-0.158,0.44,0.846,-0.34,9.67,-1.83,0,6
15957.593,-0.166,0.455,0.856,-4.55,8.7,-4.06,0,6
15957.593,-0.173,0.461,0.869,-10.41,6.41,-5.8,0,6
15957.609,-0.177,0.458,0.878,-14.04,4.24,-5.92,0,6
15957.625,-0.166,0.446,0.883,-15.44,1.25,-4.82,0,6
15957.64,-0.169,0.437,0.88,-13.82,0.61,-4.64,0,6
15957.656,-0.173,0.434,0.881,-10.38,0.76,-4.55,0,6
15957.656,-0.176,0.442,0.881,-6.32,1.5,-4.21,0,6
15957.671,-0.185,0.455,0.882,-2.96,2.93,-4.09,0,6
15957.687,-0.196,0.455,0.886,-1.22,3.75,-4.49,0,6
15957.687,-0.209,0.457,0.892,-0.92,3.54,-5.01,0,6
15957.703,-0.225,0.458,0.896,-1.37,2.53,-5.4,0,6
15957.718,-0.231,0.46,0.895,-2.17,0.03,-5.58,0,6
15957.718,-0.231,0.454,0.889,-2.53,-2.62,-5.22,0,6
15957.734,-0.228,0.451,0.879,-2.59,-3.63,-4.7,0,6
15957.734,-0.234,0.449,0.872,-2.17,-2.87,-4.33,0,6
15957.75,-0.243,0.45,0.875,-1.83,-1.56,-4.18,0,6
15957.765,-0.251,0.444,0.877,-1.5,-1.37,-4.09,0,6
15957.765,-0.252,0.441,0.876,-1.34,-2.04,-3.63,0,6
15957.781,-0.26,0.448,0.877,-1.13,-2.53,-3.08,0,6
15957.796,-0.273,0.448,0.881,-1.86,-3.42,-1.89,0,6
15957.812,-0.281,0.444,0.884,-1.8,-3.6,-1.19,0,6
15957.828,-0.292,0.449,0.896,-0.85,-3.23,-0.4,0,6
15957.828,-0.304,0.457,0.903,2.23,-2.5,1.31,0,6
15957.843,-0.31,0.452,0.901,3.91,-2.96,1.98,0,6
15957.843,-0.312,0.446,0.894,5.86,-3.72,2.56,0,6
15957.859,-0.314,0.441,0.874,7.93,-4.39,2.9,0,6
15957.875,-0.308,0.44,0.864,9.19,-4.36,3.27,0,6
15957.875,-0.308,0.438,0.855,9.7,-3.48,3.66,0,6
15957.89,-0.31,0.422,0.85,10.22,-1.86,4.06,0,6
15957.906,-0.311,0.41,0.849,10.99,-0.79,3.88,0,6
15957.906,-0.309,0.409,0.848,12.21,-0.67,2.96,0,6
15957.921,-0.312,0.419,0.854,13.7,-0.89,1.71,0,6
15957.937,-0.321,0.424,0.861,15.38,-0.89,0.82,0,6
15957.937,-0.327,0.422,0.871,18.1,-0.46,0.76,0,6
15957.953,-0.325,0.425,0.877,21.67,0.12,1.25,0,6
15957.968,-0.331,0.451,0.894,26.64,0.37,-0.61,0,6
15957.984,-0.335,0.456,0.905,27.01,-1.04,-2.62,0,6
15958.0,-0.336,0.461,0.91,27.74,-3.23,-3.94,0,6
15958.0,-0.334,0.468,0.907,29.24,-5.62,-4.76,0,6
15958.015,-0.33,0.472,0.903,31.37,-7.66,-5.01,0,6
15958.015,-0.331,0.473,0.9,34.24,-9.19,-4.7,0,6
15958.031,-0.332,0.479,0.9,38.03,-10.04,-4.24,0,6
15958.046,-0.33,0.484,0.896,41.78,-10.56,-3.94,0,6
15958.046,-0.337,0.494,0.897,44.89,-11.38,-4.49,0,6
15958.062,-0.341,0.499,0.883,48.13,-13.06,-5.16,0,6
15958.078,-0.334,0.496,0.861,50.69,-15.47,-5.52,0,6
15958.078,-0.326,0.505,0.841,52.34,-17.76,-7.02,0,6
15958.093,-0.325,0.52,0.827,53.71,-19.35,-9.64,0,6
15958.109,-0.329,0.533,0.819,54.48,-20.23,-12.88,0,6
15958.109,-0.339,0.551,0.823,56.52,-21.24,-16.08,0,6
15958.125,-0.342,0.563,0.812,60.73,-22.58,-17.91,0,6
15958.14,-0.316,0.609,0.772,70.53,-22.16,-18.74,0,6
15958.156,-0.287,0.615,0.745,73.52,-20.29,-17.15,0,6
15958.171,-0.256,0.627,0.716,72.18,-18.37,-14.47,0,6
15958.171,-0.229,0.622,0.698,67.23,-17.09,-11.96,0,6
15958.187,-0.198,0.613,0.693,60.09,-16.11,-9.98,0,6
15958.187,-0.168,0.602,0.685,52.71,-15.2,-7.75,0,6
15958.203,-0.155,0.594,0.683,45.81,-13.76,-6.16,0,6
15958.218,-0.145,0.591,0.69,39.77,-12.48,-5.31,0,6
15958.218,-0.132,0.596,0.702,34.46,-11.87,-5.4,0,6
15958.234,-0.126,0.591,0.708,30.82,-11.78,-5.92,0,6
15958.234,-0.115,0.587,0.713,28.93,-12.02,-5.95,0,6
15958.25,-0.105,0.585,0.715,28.81,-12.27,-6.13,0,6
15958.265,-0.099,0.585,0.711,28.93,-13.21,-6.32,0,6
15958.281,-0.083,0.591,0.708,28.63,-14.16,-6.9,0,6
15958.281,-0.07,0.599,0.703,27.71,-14.74,-8.64,0,6
15958.296,-0.063,0.622,0.696,25.85,-14.62,-10.56,0,6
15958.312,-0.049,0.639,0.696,21.7,-10.99,-11.84,0,6
15958.328,-0.04,0.658,0.699,19.26,-7.63,-11.63,0,6
15958.328,-0.026,0.676,0.706,15.81,-4.0,-11.84,0,6
15958.343,-0.031,0.69,0.733,12.94,-0.46,-12.33,0,6
15958.343,-0.039,0.697,0.756,11.93,2.2,-11.81,0,6
15958.359,-0.04,0.723,0.79,11.69,3.66,-10.19,0,6
15958.375,-0.046,0.745,0.823,11.87,3.11,-8.7,0,6
15958.375,-0.043,0.766,0.852,11.17,0.03,-6.44,0,6
15958.39,-0.022,0.804,0.882,8.94,-4.55,-3.48,0,6
15958.406,-0.008,0.841,0.908,5.83,-9.52,-1.07,0,6
15958.406,0.005,0.877,0.934,0.92,-15.08,2.01,0,6
15958.421,0.028,0.896,0.946,-4.15,-20.2,6.47,0,6
15958.437,0.052,0.912,0.966,-8.82,-24.29,12.05,0,6
15958.437,0.078,0.906,0.986,-11.44,-27.5,19.01,0,6
15958.453,0.126,0.895,1.006,-13.18,-30.49,26.0,0,6
15958.468,0.172,0.901,1.034,-14.74,-32.72,31.74,0,6
15958.484,0.225,0.911,1.075,-18.22,-37.02,41.57,0,6
15958.5,0.248,0.92,1.092,-21.91,-41.54,46.51,0,6
15958.5,0.261,0.93,1.102,-26.37,-47.73,51.0,0,6
15958.515,0.273,0.931,1.106,-30.98,-55.79,55.7,0,6
15958.515,0.291,0.914,1.1,-33.66,-64.09,61.46,0,6
15958.531,0.301,0.892,1.09,-33.69,-71.84,68.24,0,6
15958.546,0.309,0.859,1.081,-31.04,-78.95,75.32,0,6
15958.562,0.322,0.818,1.06,-27.04,-85.09,82.06,0,6
15958.562,0.329,0.781,1.021,-23.44,-91.28,87.62,0,6
15958.578,0.326,0.746,0.971,-19.78,-96.65,92.23,0,6
15958.578,0.328,0.707,0.916,-15.59,-99.22,95.68,0,6
15958.593,0.333,0.69,0.866,-12.51,-98.51,98.09,0,6
15958.609,0.325,0.681,0.833,-11.84,-95.58,99.89,0,6
15958.609,0.323,0.695,0.817,-14.04,-89.88,100.31,0,6
15958.625,0.31,0.727,0.824,-18.07,-82.58,98.91,0,6
15958.625,0.278,0.758,0.847,-20.63,-75.44,96.22,0,6
15958.656,0.211,0.794,0.88,-15.99,-67.17,93.63,0,6
15958.656,0.207,0.798,0.847,-11.08,-68.0,94.21,0,6
15958.671,0.218,0.767,0.801,-6.04,-70.68,94.45,0,6
15958.687,0.239,0.72,0.73,-1.04,-72.51,94.15,0,6
15958.703,0.265,0.66,0.647,3.63,-71.96,93.17,0,6
15958.703,0.3,0.633,0.575,6.93,-65.98,90.18,0,6
15958.718,0.314,0.666,0.536,6.84,-52.52,82.43,0,6
15958.718,0.307,0.667,0.506,3.91,-34.73,70.99,0,6
15958.734,0.273,0.694,0.517,-1.53,-13.67,58.87,0,6
15958.734,0.235,0.737,0.538,-7.05,7.63,46.97,0,6
15958.75,0.219,0.743,0.55,-12.85,26.22,36.26,0,6
15958.765,0.187,0.752,0.585,-18.49,41.38,28.08,0,6
15958.765,0.133,0.749,0.627,-20.45,50.69,23.62,0,6
15958.781,0.099,0.703,0.646,-19.81,52.83,22.71,0,6
15958.796,0.085,0.665,0.647,-17.73,51.0,25.33,0,6
15958.812,0.087,0.633,0.644,-15.23,46.94,28.23,0,6
15958.828,0.129,0.514,0.604,-15.81,20.81,30.18,0,6
15958.828,0.14,0.45,0.577,-23.38,12.57,26.4,0,6
15958.843,0.146,0.394,0.576,-33.88,4.73,20.02,0,6
15958.859,0.105,0.405,0.592,-43.73,-0.61,10.96,0,6
15958.859,0.051,0.486,0.592,-53.1,-0.09,-0.27,0,6
15958.875,0.021,0.548,0.61,-63.69,2.38,-12.12,0,6
15958.875,-0.011,0.562,0.623,-69.37,4.03,-19.29,0,6
15958.89,-0.043,0.571,0.646,-68.0,4.76,-18.95,0,6
15958.906,-0.067,0.554,0.66,-61.01,2.72,-12.51,0,6
15958.921,-0.05,0.501,0.656,-52.83,-1.5,-3.72,0,6
15958.921,0.003,0.482,0.649,-48.62,-6.04,1.71,0,6
15958.937,0.02,0.462,0.625,-48.68,-10.93,2.14,0,6
15958.937,0.025,0.427,0.606,-52.49,-14.25,0.0,0,6
15958.953,0.062,0.412,0.589,-59.42,-14.8,-2.72,0,6
15958.968,0.075,0.428,0.56,-66.81,-10.65,-8.36,0,6
15958.968,0.046,0.408,0.575,-78.19,-1.22,-10.86,0,6
15958.984,0.05,0.403,0.678,-101.69,20.54,-5.89,0,6
15959.0,0.036,0.387,0.75,-108.55,28.41,-1.92,0,6
15959.015,-0.005,0.359,0.817,-110.45,32.38,1.98,0,6
15959.015,-0.031,0.321,0.862,-109.96,30.98,6.29,0,6
15959.031,-0.015,0.304,0.9,-107.76,24.57,9.06,0,6
15959.046,-0.001,0.285,0.921,-104.71,17.64,8.82,0,6
15959.046,0.023,0.258,0.932,-103.7,11.99,7.54,0,6
15959.062,0.057,0.245,0.935,-104.65,8.88,5.58,0,6
15959.078,0.077,0.222,0.924,-105.78,7.48,3.36,0,6
15959.078,0.105,0.19,0.895,-105.93,6.26,1.25,0,6
15959.093,0.121,0.162,0.881,-104.53,6.93,-1.04,0,6
15959.093,0.136,0.128,0.904,-102.15,11.72,-3.39,0,6
15959.109,0.131,0.094,0.94,-97.78,17.79,-6.01,0,6
15959.125,0.109,0.049,0.983,-88.35,22.06,-8.0,0,6
15959.14,0.107,0.035,1.037,-74.98,21.45,-10.65,0,6
15959.14,0.102,0.036,1.064,-59.48,13.64,-14.04,0,6
15959.156,0.094,0.027,1.059,-43.76,1.77,-16.45,0,6
15959.156,0.108,0.03,1.03,-27.86,-10.07,-18.1,0,6
15959.171,0.126,0.057,0.993,-12.73,-18.46,-19.56,0,6
15959.187,0.161,0.079,0.946,-1.98,-23.22,-19.75,0,6
15959.187,0.177,0.105,0.891,3.72,-24.84,-19.59,0,6
15959.203,0.174,0.118,0.849,6.07,-23.26,-19.17,0,6
15959.218,0.179,0.125,0.822,4.82,-20.02,-18.22,0,6
15959.218,0.184,0.126,0.802,2.59,-16.39,-16.66,0,6
15959.234,0.179,0.123,0.801,1.31,-12.76,-14.92,0,6
15959.25,0.182,0.122,0.814,1.98,-8.97,-13.09,0,6
15959.25,0.182,0.122,0.821,2.41,-5.89,-12.21,0,6
15959.265,0.183,0.115,0.829,2.9,-3.78,-11.6,0,6
15959.265,0.172,0.123,0.847,5.52,-2.44,-11.84,0,6
15959.281,0.163,0.126,0.858,10.41,-1.13,-12.02,0,6
15959.296,0.189,0.132,0.853,15.96,-0.49,-11.9,0,6
15959.296,0.198,0.148,0.846,23.32,1.25,-11.81,0,6
15959.312,0.203,0.157,0.84,31.34,4.24,-10.74,0,6
15959.328,0.211,0.168,0.833,37.75,7.48,-9.31,0,6
15959.328,0.214,0.184,0.834,41.75,11.54,-8.0,0,6
15959.343,0.225,0.188,0.835,42.21,15.32,-6.59,0,6
15959.359,0.235,0.191,0.837,40.25,17.64,-5.62,0,6
15959.359,0.24,0.198,0.837,37.45,17.94,-5.07,0,6
15959.375,0.241,0.208,0.84,33.48,17.06,-4.21,0,6
15959.375,0.248,0.222,0.843,28.35,15.9,-3.45,0,6
15959.39,0.247,0.231,0.844,23.04,14.89,-2.93,0,6
15959.406,0.254,0.233,0.84,18.4,13.86,-1.46,0,6
15959.406,0.254,0.236,0.839,13.64,13.37,1.28,0,6
15959.421,0.254,0.23,0.84,7.9,12.82,4.43,0,6
15959.437,0.258,0.213,0.847,1.22,12.45,7.05,0,6
15959.437,0.266,0.198,0.852,-5.4,11.51,8.27,0,6
15959.453,0.277,0.195,0.861,-11.08,10.56,8.15,0,6
15959.468,0.267,0.194,0.872,-15.23,10.93,7.39,0,6
15959.468,0.25,0.188,0.889,-17.15,11.41,6.07,0,6
15959.484,0.237,0.186,0.908,-17.03,11.84,5.46,0,6
15959.5,0.226,0.195,0.927,-15.63,11.96,5.28,0,6
15959.5,0.219,0.201,0.943,-13.89,11.47,4.58,0,6
15959.515,0.217,0.201,0.954,-12.79,10.04,4.06,0,6
15959.515,0.225,0.209,0.954,-11.6,8.94,3.97,0,6
15959.531,0.22,0.208,0.955,-11.26,8.82,4.12,0,6
15959.546,0.224,0.207,0.965,-11.87,9.19,4.33,0,6
15959.546,0.209,0.206,0.976,-12.54,9.61,4.12,0,6
15959.562,0.206,0.202,0.987,-12.76,9.19,3.72,0,6
15959.578,0.21,0.201,0.986,-11.69,7.72,3.54,0,6
15959.578,0.209,0.201,0.984,-10.35,6.56,4.49,0,6
15959.593,0.199,0.19,0.984,-8.55,5.95,5.13,0,6
15959.609,0.193,0.183,0.978,-6.56,5.1,5.28,0,6
15959.609,0.182,0.175,0.969,-4.36,4.36,4.94,0,6
15959.625,0.185,0.177,0.96,-1.89,3.66,4.55,0,6
15959.625,0.199,0.184,0.945,0.27,2.96,4.7,0,6
15959.64,0.214,0.193,0.934,0.95,2.75,5.07,0,6
15959.656,0.232,0.189,0.928,-1.37,3.97,5.86,0,6
15959.671,0.219,0.157,0.944,-10.04,7.66,5.83,0,6
15959.687,0.2,0.147,0.956,-12.91,8.45,4.49,0,6
15959.687,0.178,0.146,0.966,-13.73,8.42,3.08,0,6
15959.703,0.16,0.137,0.973,-11.72,7.93,2.35,0,6
15959.718,0.162,0.138,0.965,-7.2,6.1,1.83,0,6
15959.718,0.166,0.14,0.948,-1.25,4.21,1.62,0,6
15959.734,0.179,0.144,0.927,4.06,3.88,1.71,0,6
15959.75,0.178,0.141,0.911,7.63,5.52,1.8,0,6
15959.75,0.176,0.14,0.903,9.31,7.35,1.37,0,6
15959.765,0.178,0.135,0.901,10.22,8.3,0.46,0,6
15959.765,0.188,0.133,0.898,10.8,8.27,-0.21,0,6
15959.781,0.201,0.14,0.894,11.38,7.48,-0.7,0,6
15959.796,0.206,0.146,0.889,11.44,6.32,-2.44,0,6
15959.796,0.216,0.156,0.886,11.08,7.26,-3.05,0,6
15959.812,0.219,0.167,0.89,10.28,8.61,-3.85,0,6
15959.828,0.221,0.176,0.899,9.74,10.1,-5.16,0,6
15959.828,0.209,0.193,0.927,9.06,11.26,-6.16,0,6
15959.843,0.209,0.204,0.936,8.79,11.84,-6.62,0,6
15959.843,0.205,0.206,0.95,8.73,12.51,-6.65,0,6
15959.859,0.208,0.205,0.959,8.48,12.63,-6.87,0,6
15959.875,0.214,0.206,0.965,8.33,12.15,-7.54,0,6
15959.875,0.209,0.209,0.979,7.69,11.57,-8.33,0,6
15959.89,0.197,0.207,0.997,6.74,11.35,-9.22,0,6
15959.906,0.182,0.205,1.009,6.26,10.25,-10.35,0,6
15959.906,0.171,0.207,1.007,6.99,7.81,-11.35,0,6
15959.921,0.167,0.218,1.003,8.3,5.37,-12.21,0,6
15959.937,0.16,0.232,0.999,9.46,3.57,-12.76,0,6
15959.937,0.136,0.244,1.002,10.19,2.87,-13.52,0,6
15959.953,0.128,0.255,1.012,10.01,2.99,-13.03,0,6
15959.968,0.116,0.273,1.018,9.89,3.97,-13.58,0,6
15959.968,0.095,0.271,1.029,9.74,4.55,-13.58,0,6
15959.984,0.084,0.284,1.04,10.25,3.81,-12.63,0,6
15959.984,0.069,0.294,1.046,11.84,3.17,-11.02,0,6
15960.0,0.07,0.301,1.049,12.51,2.47,-9.52,0,6
15960.015,0.056,0.314,1.054,12.39,2.41,-8.7,0,6
15960.031,0.022,0.313,1.066,11.11,2.38,-7.29,0,6
15960.031,0.011,0.319,1.089,8.64,2.32,-5.49,0,6
15960.046,0.015,0.328,1.121,5.19,3.51,-4.15,0,6
15960.046,0.011,0.318,1.155,1.34,4.61,-2.72,0,6
15960.062,0.007,0.304,1.179,-0.85,3.42,-1.19,0,6
15960.078,0.012,0.279,1.187,-0.79,-0.64,0.61,0,6
15960.078,0.021,0.258,1.178,0.89,-5.52,1.65,0,6
15960.093,0.041,0.239,1.144,4.82,-10.65,0.76,0,6
15960.109,0.074,0.227,1.097,10.1,-14.34,-0.76,0,6
15960.109,0.125,0.229,1.051,14.4,-15.02,-1.74,0,6
15960.125,0.172,0.237,1.016,16.66,-11.99,-2.2,0,6
15960.125,0.202,0.25,1.008,15.9,-5.89,-2.69,0,6
15960.14,0.221,0.253,1.018,11.26,1.13,-2.96,0,6
15960.156,0.224,0.244,1.047,3.94,6.16,-3.51,0,6
15960.156,0.212,0.226,1.071,-3.02,7.72,-4.24,0,6
15960.171,0.203,0.216,1.091,-8.76,6.35,-5.74,0,6
15960.187,0.22,0.223,1.097,-12.51,3.2,-8.51,0,6
15960.187,0.226,0.246,1.1,-14.47,0.18,-11.47,0,6
15960.203,0.209,0.258,1.097,-14.4,-2.53,-13.28,0,6
15960.203,0.205,0.27,1.099,-12.82,-4.27,-12.97,0,6
15960.218,0.209,0.282,1.099,-11.2,-4.39,-12.12,0,6
15960.234,0.199,0.274,1.107,-9.98,-4.09,-11.84,0,6
15960.234,0.191,0.268,1.106,-6.99,-4.39,-12.82,0,6
15960.25,0.172,0.27,1.093,-1.19,-5.46,-14.37,0,6
15960.265,0.153,0.278,1.066,6.13,-7.6,-15.44,0,6
15960.281,0.138,0.297,1.03,13.4,-10.19,-15.84,0,6
15960.281,0.127,0.314,0.993,19.75,-12.54,-15.96,0,6
15960.296,0.127,0.337,0.962,23.8,-13.79,-15.9,0,6
15960.296,0.135,0.363,0.936,24.99,-13.61,-15.44,0,6
15960.312,0.134,0.381,0.921,23.87,-12.42,-14.25,0,6
15960.312,0.137,0.385,0.904,21.42,-10.99,-12.12,0,6
15960.328,0.142,0.382,0.885,18.77,-10.13,-9.7,0,6
15960.343,0.142,0.381,0.868,17.15,-9.74,-7.51,0,6
15960.359,0.149,0.376,0.85,16.11,-9.74,-5.4,0,6
15960.359,0.154,0.372,0.831,15.05,-9.64,-3.33,0,6
15960.375,0.166,0.371,0.82,13.15,-8.36,-1.28,0,6
15960.39,0.179,0.358,0.808,10.16,-6.07,0.7,0,6
15960.39,0.195,0.346,0.795,6.29,-3.75,1.92,0,6
15960.406,0.218,0.353,0.787,2.69,-0.7,3.14,0,6
15960.406,0.245,0.35,0.783,-0.55,4.52,4.39,0,6
15960.421,0.257,0.358,0.808,-6.1,11.69,5.68,0,6
15960.437,0.271,0.349,0.846,-12.18,18.89,6.5,0,6
15960.437,0.28,0.34,0.895,-18.46,24.72,5.43,0,6
15960.453,0.277,0.341,0.962,-23.59,28.84,3.85,0,6
15960.468,0.272,0.333,1.034,-25.61,28.75,2.38,0,6
15960.468,0.271,0.316,1.09,-22.61,24.87,2.5,0,6
15960.484,0.279,0.337,1.13,-16.69,18.43,4.18,0,6
15960.484,0.305,0.35,1.151,-9.49,11.96,9.37,0,6
15960.5,0.315,0.354,1.155,-3.2,6.87,13.12,0,6
15960.515,0.32,0.405,1.163,-2.5,3.66,14.37,0,6
15960.531,0.313,0.456,1.173,-7.54,2.35,15.08,0,6
15960.531,0.275,0.495,1.187,-18.86,3.3,15.41,0,6
15960.546,0.237,0.538,1.226,-37.2,6.04,15.59,0,6
15960.546,0.204,0.562,1.302,-62.56,10.65,16.39,0,6
15960.562,0.179,0.545,1.396,-90.37,13.06,18.59,0,6
15960.578,0.164,0.48,1.48,-112.77,10.74,22.52,0,6
15960.578,0.156,0.396,1.551,-125.64,4.36,27.07,0,6
15960.593,0.153,0.307,1.601,-127.51,-5.77,30.03,0,6
15960.593,0.153,0.214,1.622,-118.2,-19.9,30.34,0,6
15960.609,0.156,0.158,1.608,-97.11,-37.9,27.53,0,6
15960.625,0.132,0.112,1.552,-65.89,-56.64,22.64,0,6
15960.625,0.139,0.069,1.467,-30.24,-73.27,19.01,0,6
15960.64,0.197,0.081,1.364,5.16,-83.47,17.43,0,6
15960.656,0.224,0.124,1.261,38.48,-85.33,16.63,0,6
15960.656,0.242,0.157,1.167,64.24,-82.37,16.72,0,6
15960.671,0.275,0.191,1.089,79.68,-78.01,17.7,0,6
15960.687,0.268,0.215,1.015,87.41,-74.28,18.37,0,6
15960.687,0.262,0.224,0.919,86.55,-72.54,19.84,0,6
15960.703,0.265,0.242,0.831,73.82,-73.21,22.43,0,6
15960.718,0.258,0.237,0.761,51.55,-76.08,25.39,0,6
15960.718,0.249,0.206,0.684,22.19,-80.42,28.47,0,6
15960.734,0.246,0.185,0.615,-10.53,-83.65,30.73,0,6
15960.734,0.244,0.148,0.582,-41.99,-84.14,30.76,0,6
15960.75,0.245,0.1,0.567,-67.87,-81.76,28.05,0,6
15960.765,0.241,0.057,0.545,-84.57,-77.18,23.32,0,6
15960.765,0.242,0.005,0.528,-89.45,-70.59,18.8,0,6
15960.781,0.247,-0.035,0.514,-64.21,-55.33,13.64,0,6
15960.796,0.252,-0.05,0.493,-45.38,-44.77,9.89,0,6
15960.796,0.244,-0.078,0.482,-29.85,-33.33,4.61,0,6
15960.812,0.163,-0.108,0.493,-17.64,-20.75,-0.76,0,6
15960.828,0.122,-0.125,0.522,-8.73,-8.24,-6.29,0,6
15960.828,0.096,-0.15,0.544,-1.07,0.76,-14.4,0,6
15960.843,0.101,-0.184,0.551,8.45,9.16,-22.52,0,6
15960.859,0.081,-0.162,0.538,19.75,20.36,-28.81,0,6
15960.859,0.052,-0.068,0.501,27.77,31.22,-34.03,0,6
15960.875,0.038,0.098,0.418,20.84,37.26,-41.26,0,6
15960.89,0.05,0.251,0.324,-10.99,34.12,-51.33,0,6
15960.89,0.098,0.311,0.289,-57.95,28.47,-59.11,0,6
15960.906,0.137,0.318,0.361,-101.87,32.29,-58.17,0,6
15960.906,0.196,0.319,0.469,-126.77,45.08,-52.28,0,6
15960.921,0.227,0.295,0.598,-128.27,67.6,-43.24,0,6
15960.937,0.161,0.231,0.762,-109.9,88.11,-29.88,0,6
15960.937,0.151,0.156,0.89,-73.37,92.1,-14.5,0,6
15960.953,0.18,0.119,0.956,-30.15,86.46,-0.92,0,6
15960.968,0.186,0.054,1.002,3.17,76.63,10.59,0,6
15960.968,0.183,-0.01,1.022,21.64,59.66,19.23,0,6
15960.984,0.18,-0.066,0.993,29.27,37.05,24.57,0,6
15960.984,0.204,-0.118,0.94,27.99,14.4,27.74,0,6
15961.0,0.237,-0.171,0.876,20.84,-1.46,27.8,0,6
15961.015,0.284,-0.181,0.818,8.94,-8.06,23.56,0,6
15961.031,0.335,-0.155,0.802,-4.79,-3.94,14.22,0,6
15961.031,0.326,-0.139,0.829,-15.11,8.76,2.62,0,6
15961.046,0.3,-0.147,0.868,-16.63,21.18,-6.68,0,6
15961.046,0.278,-0.123,0.904,-9.25,29.94,-12.85,0,6
15961.062,0.246,-0.07,0.941,3.2,35.34,-17.33,0,6
15961.078,0.211,-0.031,0.99,17.15,36.74,-19.96,0,6
15961.078,0.187,0.004,1.055,31.25,35.58,-19.01,0,6
15961.093,0.172,0.051,1.076,45.66,32.65,-15.35,0,6
15961.093,0.141,0.117,1.058,52.52,26.64,-10.5,0,6
15961.109,0.133,0.164,1.01,46.51,16.82,-5.68,0,6
15961.125,0.141,0.187,0.982,27.53,8.45,-2.14,0,6
15961.125,0.131,0.154,0.983,2.2,3.3,1.25,0,6
15961.14,0.133,0.085,0.993,-20.57,-1.04,5.25,0,6
15961.156,0.15,0.022,1.007,-33.91,-3.45,8.45,0,6
15961.171,0.168,-0.032,1.022,-37.57,-2.59,9.4,0,6
15961.171,0.172,-0.076,1.04,-32.78,-1.83,9.13,0,6
15961.187,0.19,-0.11,1.056,-20.81,-1.59,8.0,0,6
15961.187,0.2,-0.119,1.058,-5.43,0.52,5.43,0,6
15961.203,0.201,-0.102,1.04,8.42,3.02,1.86,0,6
15961.218,0.196,-0.058,1.023,16.17,4.85,-1.92,0,6
15961.218,0.191,-0.027,1.022,16.45,6.99,-5.19,0,6
15961.234,0.177,-0.009,1.034,12.02,7.35,-7.29,0,6
15961.234,0.166,0.0,1.038,7.48,5.04,-7.66,0,6
15961.25,0.153,0.013,1.046,4.39,1.86,-7.48,0,6
15961.265,0.144,0.01,1.053,3.51,-1.01,-6.99,0,6
15961.265,0.154,0.008,1.061,3.54,-2.53,-5.83,0,6
15961.281,0.157,0.009,1.063,4.52,-2.75,-4.52,0,6
15961.296,0.163,-0.004,1.064,7.08,-2.81,-3.2,0,6
15961.296,0.17,-0.004,1.059,10.71,-2.62,-2.26,0,6
15961.312,0.172,0.006,1.052,14.1,-2.23,-2.41,0,6
15961.328,0.17,0.005,1.038,16.57,-1.77,-2.84,0,6
15961.328,0.175,0.023,1.009,16.79,-2.2,-3.27,0,6
15961.343,0.182,0.064,0.981,11.84,-3.3,-4.33,0,6
15961.343,0.191,0.08,0.971,0.64,-3.66,-5.4,0,6
15961.359,0.186,0.079,0.986,-12.33,-2.75,-5.89,0,6
15961.375,0.176,0.071,1.001,-22.89,-2.23,-5.07,0,6
15961.375,0.179,0.056,1.013,-28.2,-3.88,-3.81,0,6
15961.39,0.178,0.044,1.017,-27.16,-6.62,-2.84,0,6
15961.406,0.181,0.022,1.021,-20.97,-8.82,-0.89,0,6
15961.406,0.187,0.013,1.014,-12.76,-10.41,1.34,0,6
15961.421,0.19,0.008,0.992,-3.42,-12.51,2.47,0,6
15961.437,0.201,0.008,0.967,4.21,-13.0,3.27,0,6
15961.437,0.209,0.013,0.943,7.87,-12.88,3.36,0,6
15961.453,0.209,0.023,0.915,9.28,-13.73,2.35,0,6
15961.468,0.221,0.03,0.889,10.04,-14.62,1.34,0,6
15961.468,0.221,0.044,0.857,10.74,-14.53,0.24,0,6
15961.484,0.217,0.043,0.831,10.25,-13.76,0.46,0,6
15961.484,0.24,0.046,0.825,7.42,-11.32,1.62,0,6
15961.5,0.246,0.05,0.82,3.66,-6.35,1.25,0,6
15961.515,0.232,0.042,0.816,-0.76,-2.26,-0.12,0,6
15961.515,0.229,0.036,0.83,-3.54,0.03,-0.79,0,6
15961.531,0.231,0.038,0.834,-2.84,1.56,-0.92,0,6
15961.546,0.225,0.051,0.836,-1.89,2.84,-0.67,0,6
15961.562,0.219,0.045,0.839,-2.47,3.97,-0.24,0,6
15961.562,0.214,0.043,0.834,-3.6,3.66,-0.12,0,6
15961.578,0.223,0.067,0.826,-3.45,3.88,-0.76,0,6
15961.578,0.22,0.07,0.829,-3.23,5.86,-1.95,0,6
15961.593,0.224,0.07,0.833,-2.87,7.45,-2.87,0,6
15961.593,0.226,0.078,0.838,0.03,9.95,-2.81,0,6
15961.609,0.219,0.072,0.837,3.85,13.55,-1.31,0,6
15961.625,0.219,0.075,0.831,6.81,16.72,0.79,0,6
15961.625,0.215,0.085,0.818,8.18,19.59,2.32,0,6
15961.64,0.209,0.11,0.811,4.36,21.49,2.66,0,6
15961.656,0.179,0.123,0.808,-3.23,21.12,2.26,0,6
15961.656,0.16,0.101,0.805,-9.22,18.83,2.96,0,6
15961.671,0.136,0.063,0.791,-9.09,15.63,5.31,0,6
15961.687,0.142,0.01,0.762,-3.57,12.7,9.06,0,6
15961.687,0.168,-0.016,0.746,2.59,13.64,12.21,0,6
15961.703,0.191,-0.018,0.718,8.15,17.67,11.78,0,6
15961.718,0.192,-0.001,0.706,8.94,23.5,7.87,0,6
15961.718,0.185,0.012,0.718,7.42,30.73,2.99,0,6
15961.734,0.155,0.045,0.742,6.07,37.17,-1.8,0,6
15961.734,0.11,0.034,0.776,7.11,42.79,-3.45,0,6
15961.75,0.089,0.015,0.804,10.32,46.3,-1.01,0,6
15961.765,0.087,0.01,0.828,17.76,48.01,0.92,0,6
15961.781,0.084,0.009,0.842,18.16,47.85,-2.32,0,6
15961.781,0.083,0.033,0.855,15.23,48.46,-6.04,0,6
15961.796,0.058,0.074,0.88,10.19,49.9,-8.7,0,6
15961.796,0.059,0.094,0.907,4.55,50.97,-10.28,0,6
15961.812,0.047,0.107,0.935,0.37,52.64,-11.26,0,6
15961.828,0.051,0.114,0.961,-2.72,54.23,-11.63,0,6
15961.828,0.04,0.118,0.989,-5.25,56.37,-11.54,0,6
15961.843,0.015,0.111,0.995,-6.41,55.94,-11.11,0,6
15961.843,0.019,0.119,1.008,-8.06,54.29,-9.7,0,6
15961.859,0.009,0.129,1.029,-10.99,54.54,-8.3,0,6
15961.875,-0.02,0.11,1.044,-13.28,54.05,-7.42,0,6
15961.875,-0.043,0.08,1.054,-12.97,50.94,-5.77,0,6
15961.89,-0.04,0.061,1.044,-7.75,45.44,-3.72,0,6
15961.906,-0.007,0.06,1.041,-0.79,42.36,-2.11,0,6
15961.906,-0.014,0.052,1.029,3.88,43.89,-1.74,0,6
15961.921,-0.026,0.047,1.027,5.25,46.3,-2.69,0,6
15961.937,-0.051,0.055,1.04,5.01,48.34,-4.24,0,6
15961.937,-0.082,0.048,1.043,5.55,48.07,-5.22,0,6
15961.953,-0.08,0.055,1.049,6.74,46.24,-4.94,0,6
15961.968,-0.08,0.058,1.05,8.88,44.89,-3.88,0,6
15961.968,-0.094,0.052,1.038,11.38,43.58,-3.33,0,6
15961.984,-0.099,0.049,1.029,13.7,41.41,-3.05,0,6
15961.984,-0.098,0.052,1.015,16.02,39.25,-2.41,0,6
15962.0,-0.098,0.071,0.99,16.79,37.23,-2.78,0,6
15962.015,-0.093,0.083,0.979,15.2,37.23,-4.06,0,6
15962.015,-0.113,0.079,0.978,11.93,39.83,-4.82,0,6
15962.031,-0.13,0.074,0.978,8.82,41.11,-5.34,0,6
15962.046,-0.13,0.069,0.983,8.12,40.53,-6.04,0,6
15962.046,-0.141,0.074,0.984,9.92,39.49,-6.41,0,6
15962.062,-0.153,0.097,0.986,13.55,38.36,-6.26,0,6
15962.078,-0.181,0.128,0.99,18.07,36.77,-5.68,0,6
15962.078,-0.187,0.163,0.969,22.03,32.9,-4.0,0,6
15962.093,-0.173,0.188,0.973,21.64,32.04,-0.18,0,6
15962.109,-0.185,0.173,0.999,17.0,35.1,4.67,0,6
15962.109,-0.166,0.14,1.031,8.85,36.16,8.48,0,6
15962.125,-0.145,0.127,1.076,2.75,37.87,8.67,0,6
15962.125,-0.162,0.091,1.109,2.01,40.38,5.31,0,6
15962.14,-0.19,0.067,1.123,7.05,38.3,0.85,0,6
15962.156,-0.203,0.071,1.102,18.37,32.04,-2.62,0,6
15962.171,-0.206,0.097,1.059,31.1,26.09,-3.81,0,6
15962.171,-0.198,0.14,1.003,38.54,22.13,-3.94,0,6
15962.187,-0.18,0.172,0.966,35.92,22.74,-3.33,0,6
15962.187,-0.183,0.193,0.962,25.12,27.07,-3.08,0,6
15962.203,-0.192,0.188,0.968,12.6,30.95,-3.81,0,6
15962.218,-0.201,0.174,0.994,2.59,34.76,-4.39,0,6
15962.218,-0.225,0.125,1.017,-0.58,37.23,-3.66,0,6
15962.234,-0.241,0.087,1.026,3.51,36.71,-2.04,0,6
15962.234,-0.254,0.063,1.008,12.21,33.23,-1.13,0,6
15962.25,-0.23,0.052,0.973,20.54,28.93,-1.34,0,6
15962.265,-0.203,0.087,0.972,22.4,30.85,-2.62,0,6
15962.265,-0.218,0.118,0.976,18.31,35.8,-6.2,0,6
15962.281,-0.251,0.138,0.977,11.75,38.27,-9.95,0,6
15962.296,-0.268,0.145,0.981,7.48,38.06,-11.99,0,6
15962.296,-0.264,0.149,0.984,6.78,37.05,-11.72,0,6
15962.312,-0.243,0.15,0.982,8.64,36.93,-10.35,0,6
15962.328,-0.26,0.154,0.988,9.03,40.38,-8.09,0,6
15962.328,-0.296,0.143,0.986,6.71,42.24,-6.5,0,6
15962.343,-0.322,0.128,0.987,3.48,39.89,-6.62,0,6
15962.359,-0.327,0.119,0.983,1.8,34.88,-7.78,0,6
15962.359,-0.316,0.121,0.961,3.81,29.33,-9.25,0,6
15962.375,-0.303,0.119,0.935,9.06,26.34,-9.64,0,6
15962.375,-0.304,0.109,0.91,14.65,27.07,-8.79,0,6
15962.39,-0.303,0.107,0.887,18.77,28.35,-8.36,0,6
15962.406,-0.305,0.124,0.884,18.77,31.07,-8.73,0,6
15962.421,-0.314,0.148,0.884,14.31,34.18,-9.58,0,6
15962.421,-0.325,0.168,0.89,8.36,37.2,-11.2,0,6
15962.437,-0.343,0.161,0.913,2.93,39.34,-12.09,0,6
15962.437,-0.36,0.171,0.925,0.79,38.48,-12.15,0,6
15962.453,-0.371,0.185,0.923,1.68,36.07,-11.47,0,6
15962.468,-0.383,0.175,0.926,3.2,33.91,-9.95,0,6
15962.468,-0.394,0.167,0.915,3.88,31.56,-8.21,0,6
15962.484,-0.395,0.154,0.896,3.33,29.11,-7.02,0,6
15962.484,-0.384,0.148,0.886,1.46,28.23,-6.9,0,6
15962.5,-0.373,0.161,0.874,-0.46,29.08,-8.18,0,6
15962.515,-0.378,0.165,0.874,-2.14,31.71,-10.01,0,6
15962.515,-0.394,0.15,0.874,-2.72,34.24,-10.5,0,6
15962.531,-0.417,0.15,0.869,-1.43,34.76,-10.5,0,6
15962.546,-0.429,0.14,0.86,1.83,33.97,-10.1,0,6
15962.546,-0.424,0.143,0.849,3.94,33.81,-9.8,0,6
15962.562,-0.425,0.159,0.841,3.48,35.58,-10.32,0,6
15962.578,-0.425,0.161,0.85,1.07,37.9,-11.2,0,6
15962.578,-0.433,0.165,0.87,-1.4,41.26,-11.69,0,6
15962.593,-0.446,0.165,0.88,-2.44,44.1,-12.48,0,6
15962.609,-0.471,0.157,0.88,-1.31,44.34,-13.0,0,6
15962.609,-0.486,0.153,0.869,0.64,41.93,-12.54,0,6
15962.625,-0.492,0.149,0.846,2.69,38.48,-11.66,0,6
15962.625,-0.497,0.153,0.823,3.11,35.31,-11.17,0,6
15962.64,-0.478,0.156,0.806,0.89,33.69,-11.57,0,6
15962.656,-0.47,0.174,0.804,-3.88,36.35,-12.24,0,6
15962.671,-0.476,0.187,0.808,-8.0,40.89,-13.76,0,6
15962.671,-0.492,0.176,0.825,-9.03,45.17,-13.7,0,6
15962.687,-0.509,0.156,0.838,-6.74,48.49,-11.51,0,6
15962.687,-0.526,0.137,0.834,-1.71,49.62,-8.88,0,6
15962.703,-0.553,0.124,0.819,3.02,48.43,-6.9,0,6
15962.718,-0.568,0.112,0.793,5.52,44.5,-6.47,0,6
15962.718,-0.556,0.118,0.785,4.88,41.57,-6.99,0,6
15962.734,-0.544,0.132,0.777,1.74,41.75,-8.24,0,6
15962.734,-0.532,0.152,0.771,-4.7,46.21,-11.87,0,6
15962.75,-0.537,0.158,0.792,-4.33,49.17,-10.99,0,6
15962.765,-0.551,0.145,0.804,-2.35,50.69,-9.61,0,6
15962.765,-0.576,0.143,0.802,-1.25,50.66,-8.3,0,6
15962.781,-0.6,0.137,0.797,-3.36,50.51,-7.66,0,6
15962.796,-0.61,0.145,0.791,-8.06,49.81,-8.3,0,6
15962.812,-0.616,0.129,0.801,-12.27,49.75,-8.91,0,6
15962.812,-0.621,0.127,0.814,-13.52,50.81,-9.31,0,6
15962.828,-0.632,0.126,0.811,-11.35,51.21,-9.61,0,6
15962.828,-0.645,0.122,0.807,-7.72,50.57,-9.16,0,6
15962.843,-0.661,0.131,0.786,-3.72,48.98,-8.82,0,6
15962.859,-0.676,0.139,0.766,-1.56,47.0,-8.21,0,6
15962.859,-0.676,0.15,0.748,-1.92,45.29,-7.69,0,6
15962.875,-0.659,0.159,0.744,-3.3,44.86,-7.11,0,6
15962.875,-0.654,0.149,0.762,-4.79,47.91,-5.8,0,6
15962.89,-0.662,0.128,0.782,-4.06,51.55,-5.16,0,6
15962.906,-0.667,0.112,0.8,-0.12,53.1,-4.88,0,6
15962.906,-0.678,0.101,0.797,6.2,53.22,-4.94,0,6
15962.921,-0.683,0.12,0.788,11.38,51.94,-5.89,0,6
15962.937,-0.69,0.129,0.779,15.05,50.17,-7.63,0,6
15962.937,-0.696,0.125,0.77,18.34,49.04,-7.84,0,6
15962.953,-0.691,0.13,0.778,20.48,49.13,-6.47,0,6
15962.968,-0.7,0.116,0.779,21.0,51.06,-5.04,0,6
15962.968,-0.718,0.091,0.777,18.74,51.88,-4.33,0,6
15962.984,-0.732,0.079,0.768,14.25,50.69,-5.13,0,6
15963.0,-0.734,0.077,0.757,7.78,47.76,-7.54,0,6
15963.0,-0.738,0.086,0.75,1.92,44.83,-10.83,0,6
15963.015,-0.747,0.106,0.745,-0.43,43.4,-13.7,0,6
15963.015,-0.757,0.116,0.734,0.37,42.73,-14.83,0,6
15963.031,-0.755,0.133,0.729,2.59,41.81,-13.98,0,6
15963.046,-0.748,0.13,0.731,5.1,42.54,-11.66,0,6
15963.062,-0.762,0.109,0.73,5.4,44.65,-8.91,0,6
15963.062,-0.764,0.102,0.736,2.69,45.41,-7.75,0,6
15963.062,-0.773,0.095,0.739,-1.13,45.17,-9.52,0,6
15963.078,-0.786,0.092,0.735,-5.07,43.67,-12.63,0,6
15963.093,-0.789,0.091,0.732,-6.78,40.77,-15.11,0,6
15963.093,-0.78,0.09,0.729,-4.27,38.33,-15.84,0,6
15963.109,-0.78,0.098,0.715,0.34,37.66,-15.75,0,6
15963.125,-0.787,0.114,0.707,3.54,38.18,-15.72,0,6
15963.125,-0.801,0.131,0.693,4.91,38.76,-16.33,0,6
15963.14,-0.816,0.153,0.675,3.48,38.45,-16.48,0,6
15963.156,-0.818,0.165,0.657,0.24,36.68,-15.81,0,6
15963.156,-0.822,0.165,0.636,-3.85,35.4,-14.19,0,6
15963.171,-0.813,0.157,0.618,-8.82,34.67,-11.69,0,6
15963.187,-0.801,0.145,0.612,-13.61,35.34,-9.34,0,6
15963.187,-0.793,0.128,0.618,-17.73,38.54,-8.21,0,6
15963.203,-0.805,0.108,0.628,-18.98,42.57,-8.48,0,6
15963.218,-0.818,0.097,0.644,-17.76,45.2,-8.94,0,6
15963.218,-0.824,0.092,0.64,-14.56,46.39,-9.0,0,6
15963.234,-0.825,0.097,0.632,-11.81,46.72,-9.09,0,6
15963.234,-0.824,0.098,0.625,-10.19,46.48,-9.7,0,6
15963.25,-0.832,0.104,0.616,-8.82,46.94,-10.56,0,6
15963.265,-0.841,0.114,0.611,-8.06,47.46,-10.9,0,6
15963.265,-0.85,0.11,0.61,-7.51,47.21,-10.62,0,6
15963.281,-0.862,0.107,0.613,-6.04,46.33,-9.74,0,6
15963.296,-0.859,0.1,0.597,-2.96,45.08,-8.0,0,6
15963.296,-0.86,0.097,0.572,-1.22,44.04,-5.83,0,6
15963.312,-0.863,0.087,0.551,-1.8,42.39,-4.61,0,6
15963.328,-0.874,0.067,0.526,-4.43,40.04,-4.12,0,6
15963.328,-0.878,0.055,0.498,-8.39,37.14,-4.3,0,6
15963.343,-0.87,0.047,0.484,-11.51,34.61,-5.28,0,6
15963.359,-0.867,0.036,0.468,-11.69,34.42,-6.53,0,6
15963.359,-0.863,0.027,0.452,-10.65,35.74,-7.54,0,6
15963.375,-0.855,0.027,0.445,-9.4,37.29,-8.79,0,6
15963.375,-0.86,0.025,0.443,-8.39,39.06,-9.19,0,6
15963.39,-0.869,0.012,0.442,-8.88,40.47,-8.76,0,6
15963.406,-0.875,-0.015,0.444,-9.31,39.7,-7.84,0,6
15963.406,-0.876,-0.039,0.445,-8.73,38.48,-7.17,0,6
15963.421,-0.877,-0.053,0.444,-6.93,37.2,-7.9,0,6
15963.437,-0.883,-0.068,0.437,-4.39,36.16,-9.67,0,6
15963.437,-0.89,-0.075,0.433,-0.73,35.4,-11.69,0,6
15963.453,-0.895,-0.085,0.433,5.49,35.22,-13.4,0,6
15963.468,-0.904,-0.083,0.429,14.01,36.23,-14.77,0,6
15963.468,-0.925,-0.074,0.417,22.74,37.78,-15.41,0,6
15963.484,-0.938,-0.076,0.404,29.08,39.49,-14.95,0,6
15963.5,-0.944,-0.066,0.389,31.95,41.44,-14.56,0,6
15963.5,-0.95,-0.054,0.372,31.25,42.79,-15.26,0,6
15963.515,-0.959,-0.052,0.357,26.58,42.7,-16.6,0,6
15963.515,-0.96,-0.041,0.357,19.1,41.84,-18.1,0,6
15963.531,-0.967,-0.041,0.36,13.98,41.26,-19.96,0,6
15963.546,-0.986,-0.04,0.357,12.94,40.68,-21.24,0,6
15963.546,-0.997,-0.042,0.352,15.75,39.34,-21.06,0,6
15963.562,-0.99,-0.032,0.336,19.93,38.67,-20.17,0,6
15963.578,-0.981,0.003,0.302,21.15,39.34,-20.02,0,6
15963.578,-0.975,0.033,0.275,16.11,39.98,-20.45,0,6
15963.593,-0.97,0.027,0.274,7.63,41.6,-20.11,0,6
15963.593,-0.973,0.016,0.284,0.76,43.67,-19.53,0,6
15963.609,-0.974,-0.014,0.3,0.15,45.56,-19.29,0,6
15963.625,-0.97,-0.034,0.32,6.71,47.76,-19.53,0,6
15963.625,-0.968,-0.025,0.316,17.03,50.78,-21.18,0,6
15963.64,-0.967,0.025,0.307,24.35,53.59,-23.59,0,6
15963.656,-0.98,0.064,0.305,25.12,55.73,-25.27,0,6
15963.656,-1.001,0.089,0.303,20.2,56.73,-25.45,0,6
15963.671,-1.016,0.103,0.308,12.24,55.33,-24.11,0,6
15963.687,-1.02,0.09,0.326,5.16,51.91,-21.42,0,6
15963.703,-1.011,0.056,0.342,3.81,48.31,-18.13,0,6
15963.703,-1.001,0.034,0.345,7.57,45.99,-15.17,0,6
15963.718,-0.996,0.027,0.336,13.18,44.86,-14.04,0,6
15963.718,-1.0,0.028,0.318,18.16,46.05,-14.98,0,6
15963.734,-0.997,0.049,0.306,15.02,48.04,-15.59,0,6
15963.75,-1.005,0.067,0.296,7.9,49.99,-15.08,0,6
15963.75,-1.014,0.072,0.294,-0.52,50.39,-13.79,0,6
15963.765,-1.008,0.031,0.353,-4.33,49.13,-12.94,0,6
15963.765,-1.011,-0.012,0.373,-1.37,47.43,-12.09,0,6
15963.781,-1.027,0.023,0.342,3.78,44.74,-10.71,0,6
15963.796,-1.017,0.065,0.318,5.83,40.93,-9.25,0,6
15963.812,-1.021,0.06,0.298,6.35,38.27,-8.33,0,6
15963.812,-1.026,0.061,0.281,5.04,35.65,-6.96,0,6
15963.828,-1.017,0.031,0.276,3.91,32.56,-5.55,0,6
15963.828,-1.01,0.026,0.262,4.88,30.09,-4.64,0,6
15963.843,-1.006,0.013,0.228,6.62,27.89,-4.0,0,6
15963.859,-0.979,0.0,0.208,5.04,26.12,-3.33,0,6
15963.859,-0.959,-0.009,0.2,1.95,25.09,-4.82,0,6
15963.875,-0.957,-0.022,0.212,0.37,26.98,-6.35,0,6
15963.89,-0.972,-0.023,0.214,2.38,29.57,-5.95,0,6
15963.89,-0.952,-0.018,0.219,5.71,31.53,-5.31,0,6
15963.906,-0.976,0.006,0.194,8.0,32.47,-7.11,0,6
15963.906,-0.984,0.001,0.181,5.16,31.4,-7.66,0,6
15963.921,-0.977,0.02,0.173,1.22,29.91,-7.51,0,6
15963.937,-1.002,0.047,0.147,-2.72,29.39,-6.78,0,6
15963.937,-1.001,-0.012,0.151,-7.05,29.05,-3.97,0,6
15963.953,-1.002,-0.023,0.181,-6.47,27.38,-3.02,0,6
15963.968,-1.009,-0.081,0.181,3.54,27.31,-2.23,0,6
15963.968,-0.988,-0.076,0.167,15.35,25.03,-1.89,0,6
15963.984,-0.976,-0.055,0.132,24.66,23.13,-4.12,0,6
15963.984,-0.963,-0.083,0.116,28.08,23.01,-6.68,0,6
15964.0,-0.987,-0.034,0.093,28.41,22.28,-10.19,0,6
15964.015,-0.979,0.016,0.059,24.6,22.58,-10.35,0,6
15964.015,-0.995,0.052,0.026,13.34,23.93,-9.43,0,6
15964.031,-0.992,0.031,0.037,-2.32,23.13,-7.87,0,6
15964.046,-0.975,-0.034,0.072,-10.9,23.1,-5.43,0,6
15964.046,-0.973,-0.095,0.108,-8.18,23.9,-3.48,0,6
15964.062,-0.955,-0.114,0.131,4.39,25.27,-2.5,0,6
15964.078,-0.959,-0.132,0.115,20.45,27.22,-3.42,0,6
15964.078,-0.944,-0.102,0.109,29.73,27.92,-6.68,0,6
15964.093,-0.968,-0.07,0.09,33.88,27.95,-11.47,0,6
15964.109,-0.98,-0.016,0.055,29.15,28.29,-12.88,0,6
15964.109,-0.987,0.03,0.043,14.07,28.02,-12.39,0,6
15964.125,-1.002,-0.008,0.061,-1.89,27.07,-11.54,0,6
15964.125,-1.001,-0.049,0.083,-10.9,26.12,-8.39,0,6
15964.14,-0.98,-0.077,0.09,-10.47,26.98,-4.52,0,6
15964.156,-0.964,-0.082,0.083,-5.55,29.63,-2.62,0,6
15964.156,-0.958,-0.056,0.075,-2.35,33.88,-2.29,0,6
15964.171,-0.971,-0.041,0.047,-2.23,39.55,-1.83,0,6
15964.187,-0.987,0.007,0.03,-10.5,45.47,0.27,0,6
15964.187,-0.999,0.018,0.038,-24.35,49.23,1.16,0,6
15964.203,-1.005,-0.011,0.052,-38.33,48.65,1.16,0,6
15964.203,-1.001,-0.058,0.065,-46.97,44.71,0.95,0,6
15964.218,-0.991,-0.101,0.086,-46.69,40.16,0.55,0,6
15964.234,-0.981,-0.117,0.1,-38.91,36.59,-0.06,0,6
15964.234,-0.985,-0.115,0.093,-27.89,32.93,-1.56,0,6
15964.25,-0.998,-0.109,0.066,-17.18,29.6,-3.94,0,6
15964.265,-1.012,-0.052,0.02,-10.68,27.47,-5.58,0,6
15964.265,-1.021,-0.0,-0.022,-12.7,23.16,-6.71,0,6
15964.281,-1.027,-0.008,-0.06,-19.59,17.55,-7.17,0,6
15964.296,-1.008,-0.014,-0.074,-28.29,14.19,-5.13,0,6
15964.296,-0.995,-0.032,-0.084,-32.78,13.82,-3.02,0,6
15964.312,-0.99,-0.078,-0.086,-32.72,14.19,-2.26,0,6
15964.328,-0.987,-0.114,-0.08,-27.92,15.08,-3.11,0,6
15964.328,-0.982,-0.127,-0.085,-18.4,15.35,-5.19,0,6
15964.343,-0.974,-0.101,-0.099,-7.23,14.68,-7.2,0,6
15964.343,-0.975,-0.063,-0.125,1.19,14.68,-7.54,0,6
15964.359,-0.963,-0.024,-0.142,2.41,14.22,-6.41,0,6
15964.375,-0.965,-0.018,-0.141,-2.78,13.86,-5.65,0,6
15964.375,-0.967,-0.041,-0.128,-10.8,13.49,-5.31,0,6
15964.39,-0.97,-0.057,-0.099,-16.97,13.0,-5.07,0,6
15964.406,-0.98,-0.097,-0.082,-17.88,12.42,-4.82,0,6
15964.406,-0.973,-0.121,-0.064,-13.86,11.44,-4.58,0,6
15964.421,-0.97,-0.13,-0.067,-5.71,10.71,-5.34,0,6
15964.437,-0.96,-0.11,-0.081,1.22,10.59,-6.53,0,6
15964.453,-0.951,-0.079,-0.082,5.16,12.18,-7.81,0,6
15964.453,-0.962,-0.065,-0.072,6.68,14.16,-8.61,0,6
15964.468,-0.976,-0.068,-0.061,7.66,15.14,-8.15,0,6
15964.468,-0.979,-0.064,-0.046,7.02,14.37,-7.32,0,6
15964.484,-0.978,-0.06,-0.036,5.37,12.6,-7.08,0,6
15964.484,-0.988,-0.061,-0.033,3.11,11.35,-6.84,0,6
15964.5,-0.995,-0.058,-0.032,0.85,10.01,-5.71,0,6
15964.515,-0.996,-0.067,-0.029,0.98,7.08,-4.21,0,6
15964.515,-0.989,-0.088,-0.034,2.93,3.45,-2.47,0,6
15964.531,-0.968,-0.093,-0.046,4.49,0.79,-1.53,0,6
15964.546,-0.955,-0.088,-0.048,3.97,0.37,-2.35,0,6
15964.546,-0.961,-0.094,-0.047,1.98,1.19,-4.24,0,6
15964.562,-0.972,-0.09,-0.046,0.67,2.04,-5.8,0,6
15964.578,-0.982,-0.085,-0.045,0.82,1.59,-6.56,0,6
15964.578,-0.992,-0.099,-0.049,2.53,0.09,-6.2,0,6
15964.593,-0.984,-0.101,-0.055,4.0,-1.68,-4.91,0,6
15964.609,-0.972,-0.095,-0.062,4.36,-2.96,-4.24,0,6
15964.609,-0.97,-0.103,-0.063,3.72,-3.2,-4.52,0,6
15964.625,-0.971,-0.109,-0.068,3.17,-2.38,-4.55,0,6
15964.625,-0.97,-0.106,-0.072,3.94,-1.43,-4.33,0,6
15964.64,-0.97,-0.093,-0.078,5.8,-1.22,-4.33,0,6
15964.656,-0.976,-0.083,-0.089,6.62,-1.65,-4.12,0,6
15964.656,-0.971,-0.073,-0.099,4.15,-2.56,-3.45,0,6
15964.671,-0.968,-0.075,-0.096,0.52,-3.33,-3.11,0,6
15964.687,-0.972,-0.09,-0.097,-1.89,-3.97,-2.81,0,6
15964.687,-0.968,-0.106,-0.091,-2.56,-4.24,-1.98,0,6
15964.703,-0.97,-0.124,-0.094,0.15,-3.72,-1.43,0,6
15964.718,-0.964,-0.126,-0.104,6.26,-2.87,-3.2,0,6
15964.718,-0.965,-0.112,-0.116,6.1,-2.5,-4.46,0,6
15964.734,-0.967,-0.093,-0.13,2.5,-1.5,-5.31,0,6
15964.734,-0.969,-0.057,-0.125,-2.5,-0.09,-5.86,0,6
15964.75,-0.973,-0.058,-0.105,-5.86,0.89,-5.58,0,6
15964.765,-0.976,-0.06,-0.091,-5.71,0.7,-4.12,0,6
15964.765,-0.984,-0.071,-0.08,-2.41,-0.12,-1.65,0,6
15964.781,-0.992,-0.087,-0.075,2.29,-1.74,0.85,0,6
15964.796,-0.988,-0.113,-0.082,7.35,-4.03,2.44,0,6
15964.796,-0.971,-0.114,-0.095,11.08,-5.71,2.96,0,6
15964.812,-0.967,-0.089,-0.111,11.6,-5.71,2.32,0,6
15964.828,-0.981,-0.086,-0.117,8.27,-4.73,0.85,0,6
15964.828,-0.985,-0.095,-0.114,3.94,-4.67,0.15,0,6
15964.843,-0.977,-0.095,-0.112,1.83,-5.4,0.27,0,6
15964.843,-0.972,-0.099,-0.118,1.62,-5.89,0.49,0,6
15964.859,-0.959,-0.095,-0.117,1.46,-6.13,0.46,0,6
15964.875,-0.958,-0.092,-0.111,1.74,-5.22,0.24,0,6
15964.875,-0.967,-0.096,-0.107,2.53,-4.15,0.4,0,6
15964.89,-0.975,-0.107,-0.105,3.78,-4.3,0.67,0,6
15964.906,-0.976,-0.129,-0.104,6.44,-5.25,1.16,0,6
15964.906,-0.972,-0.126,-0.113,9.7,-5.62,1.53,0,6
15964.921,-0.967,-0.115,-0.135,10.35,-5.43,1.22,0,6
15964.937,-0.953,-0.103,-0.136,6.26,-4.7,-0.21,0,6
15964.937,-0.957,-0.103,-0.125,0.95,-2.9,-1.98,0,6
15964.953,-0.968,-0.104,-0.104,-2.81,-0.95,-2.66,0,6
15964.968,-0.988,-0.113,-0.083,-3.27,0.58,-2.53,0,6
15964.968,-0.996,-0.129,-0.068,-0.7,0.79,-2.11,0,6
15964.984,-0.996,-0.132,-0.06,3.42,-0.03,-1.71,0,6
15964.984,-0.993,-0.135,-0.062,7.23,-1.43,-1.53,0,6
15965.0,-0.976,-0.122,-0.068,8.97,-3.05,-1.68,0,6
15965.015,-0.964,-0.108,-0.066,9.31,-3.39,-2.41,0,6
15965.015,-0.967,-0.101,-0.058,9.52,-2.72,-3.05,0,6
15965.031,-0.984,-0.094,-0.05,10.47,-2.04,-2.84,0,6
15965.046,-0.99,-0.092,-0.049,11.54,-2.78,-1.68,0,6
15965.046,-0.99,-0.091,-0.059,12.21,-4.82,-0.76,0,6
15965.062,-0.99,-0.095,-0.076,11.87,-7.66,-0.15,0,6
15965.078,-0.973,-0.098,-0.092,10.04,-10.13,0.61,0,6
15965.078,-0.964,-0.097,-0.104,7.69,-10.5,0.52,0,6
15965.093,-0.969,-0.107,-0.111,5.8,-9.64,0.27,0,6
15965.109,-0.971,-0.11,-0.116,4.36,-8.7,0.58,0,6
15965.109,-0.972,-0.11,-0.12,3.94,-7.72,0.85,0,6
15965.125,-0.975,-0.111,-0.129,3.54,-7.26,1.07,0,6
15965.125,-0.973,-0.106,-0.132,2.62,-7.08,1.01,0,6
15965.14,-0.975,-0.114,-0.134,1.89,-6.47,1.25,0,6
15965.156,-0.977,-0.113,-0.14,0.7,-5.58,1.68,0,6
15965.156,-0.98,-0.113,-0.14,-1.28,-5.07,1.8,0,6
15965.171,-0.983,-0.126,-0.137,-3.33,-4.73,1.71,0,6
15965.187,-0.977,-0.128,-0.133,-4.15,-4.79,1.1,0,6
15965.187,-0.971,-0.128,-0.132,-3.05,-4.73,0.31,0,6
15965.203,-0.971,-0.128,-0.128,-0.73,-4.0,-0.27,0,6
15965.218,-0.971,-0.122,-0.132,1.65,-3.17,-0.55,0,6
15965.218,-0.974,-0.123,-0.136,2.84,-2.2,-0.98,0,6
15965.234,-0.977,-0.117,-0.132,3.17,-1.59,-1.5,0,6
15965.234,-0.983,-0.12,-0.13,3.6,-1.31,-1.74,0,6
15965.25,-0.98,-0.12,-0.129,3.81,-1.43,-1.83,0,6
15965.265,-0.977,-0.117,-0.13,4.61,-1.4,-1.92,0,6
15965.265,-0.968,-0.123,-0.13,5.8,-1.37,-1.8,0,6
15965.281,-0.964,-0.121,-0.132,6.41,-0.49,-1.74,0,6
