timestamp,ax,ay,az,gx,gy,gz,orient_label,motion_label
15940.843,-0.142,0.407,0.848,-0.89,2.99,-1.92,0,6
15940.859,-0.149,0.412,0.853,-0.15,4.7,-2.35,0,6
15940.859,-0.153,0.416,0.858,0.09,6.23,-2.81,0,6
15940.875,-0.159,0.419,0.868,-0.03,7.6,-3.17,0,6
15940.875,-0.166,0.419,0.881,-0.31,8.45,-3.39,0,6
15940.89,-0.178,0.424,0.891,-0.49,8.51,-3.66,0,6
15940.906,-0.193,0.44,0.906,-0.61,8.67,-3.39,0,6
15940.906,-0.21,0.45,0.921,-1.13,8.36,-2.69,0,6
15940.921,-0.218,0.446,0.929,-2.14,6.78,-1.86,0,6
15940.937,-0.226,0.441,0.93,-2.9,4.49,-1.07,0,6
15940.937,-0.237,0.434,0.931,-2.66,2.04,-0.46,0,6
15940.953,-0.243,0.439,0.928,-1.74,-0.18,-0.43,0,6
15940.968,-0.246,0.443,0.921,-0.15,-1.95,-0.82,0,6
15940.968,-0.25,0.438,0.911,1.37,-3.17,-1.07,0,6
15940.984,-0.253,0.432,0.896,2.78,-3.85,-1.16,0,6
15940.984,-0.253,0.435,0.879,4.06,-3.94,-1.46,0,6
15941.0,-0.261,0.442,0.866,4.67,-3.27,-1.65,0,6
15941.015,-0.277,0.445,0.861,4.3,-2.14,-1.59,0,6
15941.015,-0.3,0.447,0.861,4.21,-0.89,-1.07,0,6
15941.031,-0.322,0.452,0.86,4.94,0.18,0.27,0,6
15941.046,-0.339,0.449,0.86,6.26,0.7,1.56,0,6
15941.046,-0.358,0.445,0.864,7.81,0.73,1.68,0,6
15941.062,-0.369,0.448,0.861,9.77,0.31,1.46,0,6
15941.078,-0.372,0.441,0.845,12.21,-0.46,1.34,0,6
15941.078,-0.37,0.436,0.829,15.11,-0.4,1.01,0,6
15941.093,-0.372,0.441,0.824,18.25,0.18,0.52,0,6
15941.093,-0.379,0.449,0.829,22.34,0.49,0.58,0,6
15941.109,-0.383,0.461,0.825,27.07,0.58,1.86,0,6
15941.125,-0.366,0.47,0.81,31.13,0.79,4.39,0,6
15941.125,-0.352,0.487,0.801,28.96,2.2,4.76,0,6
15941.14,-0.352,0.507,0.803,24.51,3.88,5.4,0,6
15941.156,-0.338,0.503,0.795,19.68,5.01,6.81,0,6
15941.156,-0.315,0.494,0.798,16.08,5.49,8.48,0,6
15941.171,-0.304,0.499,0.805,13.79,7.02,9.67,0,6
15941.187,-0.302,0.488,0.813,12.76,8.76,10.53,0,6
15941.187,-0.283,0.467,0.827,11.9,9.31,11.72,0,6
15941.203,-0.252,0.454,0.838,11.41,8.45,12.33,0,6
15941.218,-0.232,0.455,0.851,11.47,6.87,12.12,0,6
15941.218,-0.217,0.456,0.851,10.9,5.1,11.69,0,6
15941.234,-0.198,0.452,0.855,8.76,3.42,11.38,0,6
15941.234,-0.188,0.453,0.866,7.48,2.29,10.99,0,6
15941.25,-0.184,0.452,0.875,7.84,1.37,10.62,0,6
15941.265,-0.18,0.459,0.884,9.43,0.73,9.95,0,6
15941.265,-0.192,0.465,0.888,11.72,-0.24,8.45,0,6
15941.281,-0.212,0.466,0.895,14.71,-1.86,6.29,0,6
15941.296,-0.231,0.472,0.891,18.89,-4.43,4.21,0,6
15941.296,-0.255,0.487,0.88,24.11,-7.97,2.35,0,6
15941.312,-0.261,0.494,0.857,29.45,-12.54,0.79,0,6
15941.328,-0.263,0.506,0.823,33.3,-17.15,-0.76,0,6
15941.328,-0.258,0.517,0.783,36.07,-21.15,-2.44,0,6
15941.343,-0.225,0.518,0.754,37.45,-22.46,-3.2,0,6
15941.343,-0.166,0.51,0.741,37.17,-20.17,-2.59,0,6
15941.359,-0.114,0.516,0.741,35.37,-14.95,-1.68,0,6
15941.375,-0.086,0.523,0.755,32.72,-8.61,-1.71,0,6
15941.375,-0.076,0.518,0.776,29.18,-3.39,-2.2,0,6
15941.39,-0.072,0.505,0.797,25.54,0.06,-2.38,0,6
15941.406,-0.057,0.496,0.811,22.43,0.73,-2.66,0,6
15941.421,-0.043,0.498,0.826,19.93,-0.27,-3.91,0,6
15941.421,-0.038,0.496,0.838,18.4,-2.08,-5.65,0,6
15941.437,-0.029,0.492,0.843,18.52,-3.97,-6.35,0,6
15941.437,-0.009,0.491,0.839,19.1,-5.46,-6.71,0,6
15941.453,0.002,0.488,0.832,19.23,-6.26,-8.12,0,6
15941.468,0.013,0.486,0.824,19.04,-6.04,-10.38,0,6
15941.468,0.027,0.49,0.819,18.34,-4.88,-12.48,0,6
15941.484,0.033,0.494,0.81,16.91,-2.84,-14.65,0,6
15941.484,0.032,0.501,0.809,15.02,-0.34,-16.72,0,6
15941.5,0.023,0.512,0.811,13.52,1.98,-18.43,0,6
15941.515,0.01,0.526,0.816,12.12,3.42,-19.17,0,6
15941.515,-0.002,0.533,0.821,10.56,3.54,-18.83,0,6
15941.531,-0.012,0.546,0.832,8.82,2.44,-17.58,0,6
15941.546,-0.018,0.569,0.845,7.32,0.82,-15.66,0,6
15941.546,-0.037,0.582,0.852,6.26,-1.16,-13.58,0,6
15941.562,-0.047,0.585,0.863,4.79,-3.63,-10.71,0,6
15941.562,-0.046,0.6,0.868,3.27,-6.44,-7.97,0,6
15941.578,-0.044,0.612,0.869,1.62,-8.24,-6.01,0,6
15941.593,-0.049,0.613,0.87,0.12,-8.85,-4.52,0,6
15941.593,-0.057,0.612,0.874,-0.46,-8.82,-2.99,0,6
15941.609,-0.06,0.617,0.873,-0.12,-8.58,-1.65,0,6
15941.625,-0.062,0.621,0.869,0.31,-8.33,-0.58,0,6
15941.625,-0.062,0.616,0.867,0.98,-8.3,0.64,0,6
15941.64,-0.062,0.607,0.86,1.74,-8.51,2.04,0,6
15941.656,-0.064,0.596,0.854,3.02,-8.76,3.33,0,6
15941.656,-0.068,0.587,0.848,5.34,-9.19,4.46,0,6
15941.671,-0.072,0.587,0.84,7.29,-10.01,5.58,0,6
15941.687,-0.067,0.596,0.828,7.29,-11.11,6.65,0,6
15941.703,-0.066,0.594,0.808,1.46,-10.59,8.61,0,6
15941.718,-0.066,0.581,0.803,-2.14,-9.67,10.32,0,6
15941.718,-0.062,0.568,0.797,-5.1,-9.03,11.44,0,6
15941.734,-0.06,0.548,0.783,-7.11,-8.21,11.38,0,6
15941.734,-0.054,0.528,0.772,-8.7,-7.2,10.47,0,6
15941.75,-0.046,0.511,0.76,-9.49,-5.49,8.82,0,6
15941.765,-0.043,0.494,0.746,-9.46,-2.93,6.16,0,6
15941.765,-0.047,0.488,0.742,-8.94,0.61,3.14,0,6
15941.781,-0.054,0.502,0.758,-8.24,5.07,0.73,0,6
15941.796,-0.084,0.529,0.77,-6.87,9.58,-1.43,0,6
15941.796,-0.109,0.542,0.78,-5.98,11.99,-1.4,0,6
15941.812,-0.132,0.563,0.792,-6.9,12.39,0.03,0,6
15941.828,-0.15,0.564,0.802,-8.42,10.01,2.2,0,6
15941.828,-0.158,0.553,0.803,-9.95,6.2,4.61,0,6
15941.843,-0.158,0.544,0.797,-10.93,1.86,6.65,0,6
15941.843,-0.151,0.524,0.785,-10.5,-2.08,8.0,0,6
15941.875,-0.145,0.531,0.766,-7.45,-3.69,6.2,0,6
15941.875,-0.154,0.554,0.758,-7.81,-2.11,4.52,0,6
15941.89,-0.163,0.563,0.748,-10.01,-0.49,4.0,0,6
15941.906,-0.17,0.567,0.74,-13.73,0.89,4.24,0,6
15941.906,-0.171,0.555,0.731,-18.71,1.53,4.64,0,6
15941.921,-0.168,0.535,0.728,-23.56,2.01,4.79,0,6
15941.937,-0.176,0.536,0.738,-26.34,3.88,4.52,0,6
15941.937,-0.186,0.525,0.74,-25.03,6.38,5.34,0,6
15941.953,-0.194,0.525,0.749,-21.45,9.86,7.08,0,6
15941.968,-0.208,0.547,0.766,-18.13,13.58,7.6,0,6
15941.968,-0.221,0.553,0.776,-16.39,15.35,6.99,0,6
15941.984,-0.233,0.548,0.777,-16.88,15.44,5.86,0,6
15941.984,-0.242,0.545,0.774,-17.91,14.98,5.13,0,6
15942.0,-0.251,0.54,0.777,-18.89,14.4,5.1,0,6
15942.015,-0.256,0.541,0.774,-19.65,14.65,5.77,0,6
15942.015,-0.26,0.549,0.784,-20.2,17.0,7.11,0,6
15942.046,-0.261,0.519,0.788,-18.43,22.34,10.8,0,6
15942.046,-0.268,0.529,0.78,-16.75,24.9,12.79,0,6
15942.062,-0.269,0.553,0.759,-13.28,28.87,14.86,0,6
15942.078,-0.267,0.563,0.743,-11.87,34.15,16.27,0,6
15942.093,-0.267,0.551,0.744,-13.25,38.48,15.2,0,6
15942.093,-0.279,0.53,0.763,-17.03,40.25,10.68,0,6
15942.093,-0.309,0.547,0.792,-18.74,39.25,6.81,0,6
15942.109,-0.331,0.568,0.814,-18.1,34.33,9.06,0,6
15942.125,-0.337,0.565,0.829,-17.73,27.5,11.14,0,6
15942.14,-0.344,0.556,0.832,-17.12,20.39,13.89,0,6
15942.14,-0.316,0.558,0.823,-16.14,14.89,17.3,0,6
15942.156,-0.301,0.534,0.808,-15.63,11.14,19.44,0,6
15942.156,-0.272,0.512,0.801,-15.9,9.13,20.11,0,6
15942.171,-0.252,0.504,0.801,-16.54,8.91,18.46,0,6
15942.187,-0.254,0.494,0.794,-17.15,9.31,16.27,0,6
15942.187,-0.255,0.491,0.792,-19.07,9.49,14.53,0,6
15942.218,-0.256,0.47,0.801,-23.01,11.08,13.06,0,6
15942.218,-0.255,0.46,0.801,-22.98,12.45,13.46,0,6
15942.234,-0.261,0.456,0.811,-21.45,13.73,13.95,0,6
15942.234,-0.268,0.451,0.822,-19.23,14.13,14.22,0,6
15942.25,-0.271,0.46,0.83,-17.64,14.19,14.34,0,6
15942.265,-0.277,0.467,0.836,-16.57,14.62,14.37,0,6
15942.265,-0.283,0.457,0.84,-15.81,14.31,14.19,0,6
15942.281,-0.292,0.445,0.845,-15.96,13.12,13.0,0,6
15942.296,-0.295,0.44,0.845,-16.24,11.14,11.17,0,6
15942.296,-0.293,0.429,0.844,-16.05,9.0,9.55,0,6
15942.312,-0.297,0.43,0.852,-15.29,7.81,8.51,0,6
15942.328,-0.313,0.436,0.881,-14.16,6.59,8.21,0,6
15942.328,-0.322,0.435,0.91,-12.82,3.36,8.82,0,6
15942.343,-0.319,0.443,0.932,-12.48,-1.65,9.8,0,6
15942.359,-0.317,0.426,0.923,-14.16,-7.63,9.03,0,6
15942.359,-0.285,0.406,0.912,-19.68,-13.58,6.29,0,6
15942.375,-0.253,0.361,0.918,-41.75,-19.56,-14.22,0,6
15942.39,-0.497,0.548,1.161,-43.4,-19.9,-13.25,0,6
15942.406,-0.3,0.39,1.06,-28.81,-35.92,-2.17,0,6
15942.406,-0.245,0.422,0.934,-37.63,-41.38,-4.03,0,6
15942.421,-0.25,0.397,0.941,-37.63,-30.09,-6.78,0,6
15942.437,-0.257,0.324,0.939,-25.03,-18.04,-8.91,0,6
15942.437,-0.307,0.292,0.935,-11.69,-7.2,-10.5,0,6
15942.453,-0.347,0.317,0.935,2.87,-0.49,-12.91,0,6
15942.468,-0.419,0.322,0.937,16.11,0.67,-15.08,0,6
15942.468,-0.537,0.38,0.976,26.83,-8.03,-16.05,0,6
15942.484,-0.575,0.43,1.02,35.28,-28.14,-12.57,0,6
15942.484,-0.434,0.37,0.885,25.45,-54.08,-14.86,0,6
15942.5,-0.495,0.429,0.928,-2.41,-70.07,-26.73,0,6
15942.515,-0.368,0.375,0.899,-12.33,-79.53,-25.48,0,6
15942.515,-0.294,0.334,0.836,-17.49,-80.51,-21.85,0,6
15942.531,-0.266,0.29,0.807,-17.49,-75.26,-25.12,0,6
15942.546,-0.213,0.268,0.799,-11.41,-68.7,-29.94,0,6
15942.546,-0.169,0.26,0.774,-2.11,-60.88,-36.32,0,6
15942.562,-0.138,0.264,0.75,6.93,-50.48,-43.46,0,6
15942.578,-0.131,0.297,0.738,14.1,-38.88,-48.8,0,6
15942.578,-0.121,0.33,0.724,20.33,-27.99,-50.84,0,6
15942.593,-0.116,0.351,0.718,23.96,-18.86,-51.3,0,6
15942.593,-0.111,0.39,0.73,22.83,-11.35,-50.63,0,6
15942.609,-0.12,0.414,0.75,20.54,-5.31,-48.95,0,6
15942.625,-0.129,0.423,0.784,18.04,-2.84,-46.33,0,6
15942.625,-0.128,0.447,0.818,13.98,-4.27,-42.7,0,6
15942.64,-0.129,0.45,0.841,9.03,-7.72,-38.33,0,6
15942.656,-0.12,0.457,0.836,4.46,-10.35,-32.5,0,6
15942.656,-0.088,0.479,0.834,2.96,-10.86,-23.53,0,6
15942.671,-0.067,0.469,0.826,2.01,-10.1,-15.93,0,6
15942.687,-0.063,0.45,0.822,-0.92,-9.03,-12.24,0,6
15942.687,-0.06,0.459,0.838,-5.1,-6.68,-9.61,0,6
15942.703,-0.062,0.447,0.851,-8.45,-4.43,-8.06,0,6
15942.718,-0.074,0.441,0.867,-10.56,-2.66,-7.51,0,6
15942.718,-0.09,0.445,0.896,-10.32,-1.65,-7.08,0,6
15942.734,-0.087,0.431,0.911,-7.05,-1.62,-6.59,0,6
15942.734,-0.079,0.421,0.911,-3.05,-1.68,-6.68,0,6
15942.75,-0.073,0.413,0.897,2.23,-0.73,-7.9,0,6
15942.765,-0.065,0.412,0.872,8.82,1.46,-10.22,0,6
15942.781,-0.071,0.43,0.868,14.89,5.71,-12.09,0,6
15942.781,-0.102,0.474,0.895,18.98,10.25,-11.38,0,6
15942.796,-0.117,0.519,0.909,18.04,12.57,-7.29,0,6
15942.796,-0.109,0.523,0.912,11.47,12.24,-2.14,0,6
15942.812,-0.122,0.512,0.915,2.41,11.66,2.08,0,6
15942.828,-0.143,0.498,0.933,-6.04,9.52,4.88,0,6
15942.828,-0.148,0.469,0.945,-10.53,5.58,6.53,0,6
15942.843,-0.151,0.456,0.958,-11.35,1.16,7.23,0,6
15942.843,-0.149,0.445,0.956,-8.67,-2.78,7.69,0,6
15942.859,-0.147,0.422,0.94,-3.97,-5.13,6.87,0,6
15942.875,-0.124,0.419,0.916,-1.01,-6.07,5.1,0,6
15942.875,-0.098,0.422,0.91,1.16,-4.61,3.08,0,6
15942.89,-0.109,0.43,0.907,5.04,0.18,1.53,0,6
15942.906,-0.134,0.44,0.916,7.42,5.01,0.85,0,6
15942.906,-0.162,0.45,0.929,8.51,8.15,0.64,0,6
15942.921,-0.183,0.454,0.925,8.7,9.06,0.79,0,6
15942.937,-0.199,0.448,0.922,6.99,7.84,1.19,0,6
15942.937,-0.206,0.435,0.912,4.85,5.19,1.13,0,6
15942.953,-0.193,0.417,0.897,2.87,2.2,0.49,0,6
15942.953,-0.183,0.402,0.899,1.31,0.43,-0.67,0,6
15942.968,-0.187,0.382,0.874,1.01,0.03,-1.74,0,6
15942.984,-0.127,0.353,0.891,-1.19,-0.06,-1.65,0,6
15942.984,-0.151,0.305,0.903,-1.13,0.61,-3.97,0,6
15943.0,-0.198,0.326,0.905,3.45,1.62,-7.42,0,6
15943.015,-0.189,0.331,0.932,11.51,2.11,-6.99,0,6
15943.015,-0.194,0.344,0.919,18.4,0.27,-8.09,0,6
15943.031,-0.156,0.289,0.879,24.6,-1.25,-11.9,0,6
15943.046,-0.252,0.36,0.939,32.72,-0.52,-17.73,0,6
15943.062,-0.215,0.485,0.903,40.13,-6.87,-10.28,0,6
15943.078,-0.219,0.553,0.862,33.42,-5.31,-4.91,0,6
15943.078,-0.214,0.58,0.847,14.56,2.56,5.74,0,6
15943.093,-0.221,0.539,0.826,10.56,8.58,10.35,0,6
15943.109,-0.231,0.529,0.83,10.71,13.49,12.7,0,6
15943.109,-0.252,0.53,0.839,11.87,14.77,13.31,0,6
15943.125,-0.276,0.52,0.837,12.3,12.97,12.51,0,6
15943.125,-0.289,0.529,0.828,13.67,11.02,12.42,0,6
15943.14,-0.268,0.53,0.81,13.21,9.46,12.7,0,6
15943.156,-0.292,0.512,0.881,5.34,5.77,9.22,0,6
15943.156,-0.268,0.583,0.859,-2.53,-0.31,9.92,0,6
15943.171,-0.207,0.433,0.818,-4.55,-1.46,9.28,0,6
15943.187,-0.288,0.48,0.859,-5.28,-0.46,7.23,0,6
15943.187,-0.256,0.509,0.852,2.81,0.27,13.15,0,6
15943.203,-0.225,0.486,0.82,8.55,-0.12,14.95,0,6
15943.218,-0.237,0.471,0.802,11.2,1.25,14.77,0,6
15943.234,-0.248,0.492,0.797,13.82,6.26,11.02,0,6
15943.234,-0.264,0.496,0.806,12.82,8.0,8.67,0,6
15943.25,-0.283,0.481,0.802,13.09,8.79,7.26,0,6
15943.265,-0.287,0.482,0.807,12.21,8.3,5.65,0,6
15943.265,-0.302,0.511,0.822,11.78,7.93,4.12,0,6
15943.281,-0.315,0.515,0.826,12.73,6.68,3.6,0,6
15943.296,-0.318,0.501,0.823,15.35,4.43,4.27,0,6
15943.296,-0.311,0.509,0.804,19.17,2.11,5.95,0,6
15943.312,-0.296,0.528,0.784,22.8,1.07,7.84,0,6
15943.328,-0.291,0.532,0.767,25.36,1.8,8.61,0,6
15943.328,-0.301,0.546,0.767,25.79,4.21,8.33,0,6
15943.343,-0.324,0.568,0.776,24.45,6.68,8.15,0,6
15943.359,-0.349,0.568,0.784,23.04,8.21,8.85,0,6
15943.359,-0.372,0.563,0.781,23.38,8.82,10.65,0,6
15943.375,-0.395,0.562,0.781,25.09,8.79,12.3,0,6
15943.375,-0.419,0.553,0.781,28.23,8.3,13.12,0,6
15943.406,-0.495,0.553,0.777,41.08,10.71,8.48,0,6
15943.406,-0.55,0.558,0.785,55.12,15.99,2.78,0,6
15943.421,-0.615,0.567,0.787,72.02,21.64,-5.37,0,6
15943.437,-0.666,0.579,0.745,89.51,25.33,-13.89,0,6
15943.437,-0.69,0.598,0.664,105.56,28.02,-20.45,0,6
15943.453,-0.685,0.597,0.564,118.35,29.79,-24.48,0,6
15943.468,-0.658,0.58,0.468,124.49,32.17,-26.34,0,6
15943.468,-0.608,0.559,0.379,122.99,36.77,-26.49,0,6
15943.484,-0.557,0.524,0.293,114.05,44.01,-26.46,0,6
15943.484,-0.494,0.492,0.247,97.87,54.23,-26.92,0,6
15943.5,-0.446,0.475,0.263,79.5,68.24,-27.68,0,6
15943.515,-0.427,0.471,0.314,60.06,82.8,-30.64,0,6
15943.515,-0.412,0.463,0.376,39.86,95.03,-33.78,0,6
15943.531,-0.395,0.436,0.443,23.07,105.53,-35.58,0,6
15943.546,-0.38,0.398,0.507,13.0,113.71,-37.2,0,6
15943.562,-0.364,0.362,0.569,10.04,118.81,-40.59,0,6
15943.578,-0.32,0.301,0.667,15.08,117.74,-54.45,0,6
15943.578,-0.295,0.257,0.691,22.52,112.16,-64.94,0,6
15943.593,-0.27,0.224,0.697,33.23,104.95,-76.91,0,6
15943.609,-0.255,0.207,0.685,46.85,98.33,-89.79,0,6
15943.609,-0.264,0.208,0.667,61.25,93.72,-103.67,0,6
15943.625,-0.271,0.276,0.663,72.6,92.87,-117.89,0,6
15943.64,-0.304,0.369,0.669,80.6,94.79,-132.18,0,6
15943.64,-0.358,0.411,0.677,85.76,95.37,-141.94,0,6
15943.656,-0.386,0.458,0.668,88.78,93.97,-144.72,0,6
15943.656,-0.407,0.546,0.662,89.63,94.7,-144.02,0,6
15943.671,-0.439,0.601,0.669,89.05,95.58,-143.25,0,6
15943.687,-0.458,0.598,0.681,86.98,92.81,-141.39,0,6
15943.687,-0.461,0.588,0.679,83.8,86.0,-138.71,0,6
15943.703,-0.461,0.564,0.662,80.94,74.83,-137.58,0,6
15943.718,-0.467,0.574,0.647,79.38,62.99,-138.04,0,6
15943.718,-0.507,0.68,0.635,77.43,54.17,-138.89,0,6
15943.734,-0.553,0.799,0.61,70.01,48.19,-137.58,0,6
15943.734,-0.587,0.849,0.585,55.94,43.49,-131.81,0,6
15943.75,-0.644,0.928,0.596,39.31,40.16,-121.95,0,6
15943.765,-0.714,1.075,0.612,22.49,38.15,-108.95,0,6
15943.765,-0.772,1.184,0.619,1.4,35.22,-92.65,0,6
15943.781,-0.811,1.214,0.644,-21.85,30.85,-73.34,0,6
15943.796,-0.846,1.231,0.681,-39.09,24.57,-50.94,0,6
15943.812,-0.861,1.205,0.703,-47.67,15.08,-28.29,0,6
15943.812,-0.836,1.119,0.71,-48.65,3.23,-9.19,0,6
15943.828,-0.779,1.026,0.694,-43.21,-8.48,4.27,0,6
15943.828,-0.729,0.952,0.658,-32.78,-17.18,10.53,0,6
15943.843,-0.71,0.872,0.616,-19.14,-22.83,11.2,0,6
15943.859,-0.689,0.805,0.563,-3.3,-25.12,10.71,0,6
15943.859,-0.67,0.764,0.519,11.23,-24.69,11.32,0,6
15943.875,-0.663,0.723,0.47,23.71,-22.22,11.78,0,6
15943.875,-0.667,0.688,0.429,34.33,-17.3,12.6,0,6
15943.89,-0.675,0.675,0.41,40.22,-12.21,13.89,0,6
15943.906,-0.702,0.682,0.394,41.26,-7.63,15.29,0,6
15943.906,-0.748,0.671,0.381,37.72,-3.88,17.15,0,6
15943.921,-0.778,0.643,0.378,30.12,-3.05,19.65,0,6
15943.937,-0.79,0.607,0.374,21.85,-5.28,22.13,0,6
15943.937,-0.803,0.575,0.364,15.02,-9.06,23.9,0,6
15943.953,-0.816,0.538,0.35,9.8,-13.09,24.69,0,6
15943.968,-0.823,0.502,0.34,6.5,-16.85,24.29,0,6
15943.968,-0.829,0.473,0.328,5.98,-19.87,22.8,0,6
15943.984,-0.838,0.452,0.317,8.21,-21.33,20.2,0,6
15943.984,-0.854,0.437,0.307,11.99,-21.0,17.15,0,6
15944.0,-0.872,0.427,0.303,16.63,-19.14,13.76,0,6
15944.015,-0.898,0.426,0.308,21.49,-15.75,9.46,0,6
15944.031,-0.922,0.423,0.321,26.95,-12.27,4.33,0,6
15944.031,-0.944,0.428,0.331,32.5,-10.01,-0.85,0,6
15944.046,-0.964,0.452,0.336,38.09,-8.94,-5.13,0,6
15944.046,-0.977,0.482,0.341,43.28,-9.95,-7.66,0,6
15944.062,-0.973,0.499,0.343,47.24,-13.21,-8.42,0,6
15944.078,-0.946,0.506,0.333,50.6,-22.16,-7.35,0,6
15944.078,-0.902,0.503,0.314,51.15,-24.81,-6.35,0,6
15944.093,-0.849,0.482,0.29,51.76,-25.27,-5.43,0,6
15944.093,-0.735,0.443,0.233,51.73,-24.26,-5.52,0,6
15944.109,-0.684,0.426,0.211,50.39,-22.34,-6.44,0,6
15944.125,-0.642,0.409,0.19,48.16,-19.62,-7.39,0,6
15944.125,-0.607,0.4,0.175,45.2,-16.05,-7.66,0,6
15944.14,-0.578,0.398,0.166,41.6,-11.57,-7.75,0,6
15944.156,-0.558,0.401,0.161,37.23,-6.68,-7.93,0,6
15944.156,-0.545,0.404,0.166,32.5,-1.5,-8.0,0,6
15944.171,-0.542,0.408,0.174,27.92,3.85,-7.9,0,6
15944.187,-0.541,0.409,0.185,23.47,8.36,-8.21,0,6
15944.187,-0.548,0.411,0.201,18.98,12.02,-9.43,0,6
15944.203,-0.562,0.415,0.215,14.86,14.44,-11.35,0,6
15944.218,-0.572,0.425,0.232,11.35,15.75,-13.46,0,6
15944.218,-0.59,0.451,0.247,8.33,16.72,-16.39,0,6
15944.234,-0.622,0.468,0.263,5.49,17.58,-18.59,0,6
15944.234,-0.646,0.504,0.284,3.33,18.62,-19.75,0,6
15944.25,-0.689,0.541,0.303,2.2,19.93,-21.42,0,6
15944.265,-0.73,0.559,0.327,0.49,20.66,-21.55,0,6
15944.265,-0.753,0.585,0.355,-0.43,20.42,-20.72,0,6
15944.281,-0.773,0.598,0.37,1.01,19.38,-20.69,0,6
15944.296,-0.788,0.59,0.373,3.36,16.97,-20.45,0,6
15944.296,-0.793,0.578,0.37,6.2,13.64,-20.29,0,6
15944.312,-0.787,0.561,0.36,9.92,9.92,-20.87,0,6
15944.328,-0.785,0.535,0.344,14.44,6.35,-22.0,0,6
15944.328,-0.783,0.511,0.332,19.35,3.11,-23.65,0,6
15944.343,-0.783,0.49,0.315,24.35,0.0,-25.3,0,6
15944.343,-0.775,0.469,0.294,29.08,-2.5,-27.13,0,6
15944.359,-0.769,0.447,0.273,32.93,-4.24,-28.96,0,6
15944.375,-0.765,0.423,0.25,35.86,-5.13,-31.65,0,6
15944.39,-0.759,0.396,0.227,37.97,-5.13,-35.34,0,6
15944.39,-0.753,0.369,0.206,39.0,-4.39,-39.46,0,6
15944.406,-0.748,0.344,0.189,39.4,-3.2,-43.95,0,6
15944.406,-0.742,0.325,0.17,39.16,-1.43,-49.13,0,6
15944.421,-0.742,0.309,0.157,38.97,0.7,-54.29,0,6
15944.437,-0.746,0.292,0.148,38.67,3.42,-59.05,0,6
15944.437,-0.754,0.278,0.143,38.3,6.35,-63.33,0,6
15944.453,-0.764,0.271,0.14,38.48,8.91,-66.84,0,6
15944.468,-0.769,0.27,0.133,38.54,11.75,-70.13,0,6
15944.468,-0.776,0.27,0.127,37.51,14.95,-74.34,0,6
15944.484,-0.784,0.26,0.12,35.52,18.19,-79.68,0,6
15944.5,-0.791,0.247,0.116,32.75,22.06,-85.02,0,6
15944.5,-0.801,0.239,0.11,29.11,26.49,-90.7,0,6
15944.515,-0.81,0.225,0.104,25.24,31.01,-96.74,0,6
15944.515,-0.821,0.21,0.099,20.81,36.01,-102.79,0,6
15944.531,-0.834,0.195,0.098,16.21,41.23,-108.8,0,6
15944.546,-0.851,0.178,0.095,11.63,46.78,-114.96,0,6
15944.546,-0.871,0.16,0.091,7.11,52.55,-120.94,0,6
15944.562,-0.891,0.145,0.094,3.51,58.63,-126.59,0,6
15944.578,-0.946,0.121,0.094,-2.29,70.22,-137.0,0,6
15944.593,-0.978,0.109,0.104,-4.33,74.71,-141.33,0,6
15944.593,-1.012,0.1,0.108,-5.55,78.07,-145.05,0,6
15944.609,-1.043,0.097,0.108,-6.13,79.9,-148.35,0,6
15944.625,-1.076,0.098,0.107,-6.16,80.32,-151.37,0,6
15944.625,-1.106,0.102,0.099,-5.46,79.5,-154.09,0,6
15944.64,-1.142,0.104,0.095,-4.12,77.0,-155.64,0,6
15944.656,-1.176,0.112,0.093,-2.99,72.54,-155.19,0,6
15944.656,-1.202,0.12,0.085,-1.46,66.99,-152.1,0,6
15944.671,-1.217,0.123,0.08,0.82,60.27,-146.61,0,6
15944.687,-1.232,0.127,0.069,3.39,52.34,-139.74,0,6
15944.687,-1.241,0.134,0.059,6.47,44.07,-131.72,0,6
15944.703,-1.245,0.136,0.045,9.61,36.01,-122.59,0,6
15944.718,-1.244,0.137,0.029,12.24,29.02,-113.35,0,6
15944.718,-1.24,0.14,0.022,13.61,22.98,-104.07,0,6
15944.734,-1.228,0.14,0.01,14.25,17.82,-95.34,0,6
15944.75,-1.199,0.134,-0.013,12.33,11.9,-79.93,0,6
15944.765,-1.184,0.128,-0.022,9.89,10.93,-72.97,0,6
15944.781,-1.17,0.123,-0.022,7.23,11.26,-66.29,0,6
15944.781,-1.159,0.122,-0.02,5.07,12.54,-59.63,0,6
15944.796,-1.149,0.119,-0.019,3.63,14.28,-52.8,0,6
15944.796,-1.136,0.115,-0.015,2.66,16.17,-45.44,0,6
15944.812,-1.118,0.107,-0.007,2.29,17.58,-38.27,0,6
15944.828,-1.108,0.092,-0.001,3.51,18.74,-31.74,0,6
15944.828,-1.098,0.078,0.002,5.55,19.38,-26.37,0,6
15944.843,-1.084,0.068,0.0,7.72,19.17,-21.82,0,6
15944.843,-1.076,0.059,0.002,9.52,18.46,-17.98,0,6
15944.859,-1.069,0.052,0.003,11.29,17.24,-15.02,0,6
15944.875,-1.063,0.045,-0.001,12.91,15.78,-12.42,0,6
15944.875,-1.052,0.04,-0.004,13.82,13.98,-9.74,0,6
15944.89,-1.042,0.033,-0.01,14.44,12.15,-7.05,0,6
15944.906,-1.033,0.025,-0.013,14.53,10.32,-4.39,0,6
15944.921,-1.006,0.006,-0.019,13.4,7.78,-0.4,0,6
15944.937,-0.996,0.0,-0.023,12.6,7.17,0.76,0,6
15944.953,-0.985,-0.007,-0.025,11.02,6.81,1.22,0,6
15944.953,-0.975,-0.01,-0.025,9.03,6.2,1.56,0,6
15944.953,-0.965,-0.014,-0.026,7.6,5.83,2.14,0,6
15944.968,-0.959,-0.016,-0.028,6.26,5.31,3.08,0,6
15944.984,-0.956,-0.015,-0.029,5.25,4.46,4.3,0,6
15944.984,-0.955,-0.019,-0.03,4.39,3.63,6.2,0,6
15945.0,-0.952,-0.022,-0.03,3.94,2.9,8.58,0,6
15945.015,-0.955,-0.027,-0.024,4.15,2.56,11.08,0,6
15945.015,-0.961,-0.029,-0.016,5.1,1.71,13.79,0,6
15945.031,-0.962,-0.024,-0.035,6.32,0.06,16.75,0,6
15945.046,-0.961,-0.01,-0.036,7.51,-1.22,20.36,0,6
15945.046,-0.976,-0.009,-0.016,9.22,-8.48,25.73,0,6
15945.062,-0.999,0.005,-0.003,7.87,-13.61,30.98,0,6
15945.078,-0.991,-0.005,0.005,7.39,-17.7,33.85,0,6
15945.093,-1.003,0.023,-0.01,-0.67,-24.84,34.18,0,6
15945.109,-1.047,0.086,0.002,-7.23,-25.67,37.17,0,6
15945.109,-1.073,0.135,0.01,-11.99,-26.67,41.6,0,6
15945.125,-1.105,0.179,0.018,-17.12,-26.4,47.06,0,6
15945.125,-1.134,0.236,0.027,-23.87,-26.15,52.13,0,6
15945.14,-1.152,0.264,0.029,-32.17,-27.34,56.12,0,6
15945.156,-1.159,0.259,0.039,-40.83,-29.69,60.4,0,6
15945.156,-1.156,0.25,0.049,-47.64,-32.32,65.95,0,6
15945.171,-1.151,0.241,0.056,-50.81,-35.86,71.78,0,6
15945.187,-1.145,0.225,0.064,-50.14,-39.19,77.36,0,6
15945.187,-1.139,0.216,0.065,-46.72,-40.99,83.16,0,6
15945.203,-1.145,0.226,0.075,-42.3,-40.19,88.17,0,6
15945.203,-1.154,0.236,0.085,-37.81,-37.78,92.04,0,6
15945.218,-1.151,0.226,0.094,-33.45,-34.55,95.13,0,6
15945.234,-1.148,0.218,0.102,-28.41,-31.34,97.6,0,6
15945.25,-1.148,0.219,0.108,-21.82,-28.93,100.68,0,6
15945.265,-1.129,0.198,0.115,-4.43,-28.11,106.75,0,6
15945.265,-1.116,0.192,0.108,5.25,-28.53,109.47,0,6
15945.281,-1.105,0.202,0.1,13.34,-28.63,111.36,0,6
15945.296,-1.104,0.231,0.101,19.07,-27.53,113.07,0,6
15945.296,-1.108,0.263,0.103,21.55,-25.73,114.29,0,6
15945.312,-1.116,0.285,0.111,21.3,-23.56,115.24,0,6
15945.328,-1.12,0.3,0.117,20.11,-21.7,116.98,0,6
15945.328,-1.124,0.319,0.129,18.43,-21.12,119.85,0,6
15945.343,-1.122,0.318,0.135,18.16,-22.22,123.02,0,6
15945.359,-1.11,0.309,0.131,19.56,-24.29,126.56,0,6
15945.359,-1.097,0.312,0.13,22.37,-26.7,129.67,0,6
15945.375,-1.088,0.327,0.133,26.64,-28.5,132.69,0,6
15945.375,-1.08,0.33,0.131,30.88,-29.39,135.9,0,6
15945.39,-1.055,0.317,0.117,34.15,-29.18,139.29,0,6
15945.406,-1.024,0.321,0.11,37.05,-26.67,141.39,0,6
15945.406,-1.0,0.331,0.11,40.38,-22.92,139.87,0,6
15945.421,-0.992,0.334,0.112,43.09,-19.62,135.41,0,6
15945.437,-0.997,0.356,0.119,44.89,-17.3,131.53,0,6
15945.437,-0.998,0.395,0.133,46.72,-16.24,129.58,0,6
15945.453,-0.993,0.41,0.133,48.13,-16.69,129.46,0,6
15945.468,-0.997,0.429,0.128,47.46,-18.22,130.68,0,6
15945.468,-0.98,0.442,0.127,44.59,-20.57,132.63,0,6
15945.484,-0.951,0.423,0.117,40.31,-23.99,132.91,0,6
15945.484,-0.928,0.402,0.106,35.95,-27.44,131.84,0,6
15945.5,-0.912,0.407,0.096,31.95,-29.94,129.31,0,6
15945.515,-0.902,0.403,0.084,28.2,-31.86,125.71,0,6
15945.531,-0.883,0.374,0.07,24.26,-33.39,122.56,0,6
15945.531,-0.861,0.377,0.057,19.01,-34.09,118.99,0,6
15945.546,-0.838,0.387,0.039,12.02,-34.61,113.68,0,6
15945.546,-0.822,0.372,0.033,3.97,-35.04,107.73,0,6
15945.562,-0.815,0.37,0.033,-4.24,-35.92,102.54,0,6
15945.578,-0.791,0.373,0.027,-12.3,-37.35,97.29,0,6
15945.593,-0.772,0.382,0.039,-23.8,-39.06,87.92,0,6
15945.593,-0.753,0.406,0.04,-24.66,-38.42,83.99,0,6
15945.609,-0.737,0.428,0.046,-24.23,-36.77,79.65,0,6
15945.625,-0.728,0.466,0.054,-24.05,-34.12,74.56,0,6
15945.625,-0.711,0.488,0.068,-23.71,-31.25,69.46,0,6
15945.64,-0.691,0.496,0.081,-22.86,-27.77,64.67,0,6
15945.656,-0.676,0.522,0.092,-21.79,-23.83,59.97,0,6
15945.671,-0.667,0.538,0.105,-20.87,-20.87,54.78,0,6
15945.671,-0.657,0.55,0.113,-21.03,-19.2,50.29,0,6
15945.687,-0.65,0.586,0.121,-23.07,-18.16,47.0,0,6
15945.687,-0.647,0.615,0.133,-26.43,-17.21,44.19,0,6
15945.703,-0.644,0.632,0.143,-30.79,-16.57,42.02,0,6
15945.718,-0.629,0.65,0.153,-34.55,-16.05,41.2,0,6
15945.718,-0.612,0.662,0.163,-37.72,-15.14,40.25,0,6
15945.734,-0.595,0.647,0.163,-39.86,-14.13,38.58,0,6
15945.734,-0.577,0.634,0.167,-40.86,-12.6,36.56,0,6
15945.765,-0.544,0.599,0.17,-38.18,-8.82,29.63,0,6
15945.765,-0.533,0.582,0.172,-35.74,-6.71,25.61,0,6
15945.781,-0.521,0.578,0.168,-32.84,-4.94,20.97,0,6
15945.796,-0.51,0.574,0.165,-30.09,-3.23,16.36,0,6
15945.796,-0.508,0.58,0.165,-28.14,-1.31,12.36,0,6
15945.812,-0.509,0.591,0.174,-26.61,0.7,9.52,0,6
15945.828,-0.519,0.612,0.189,-25.45,2.32,7.84,0,6
15945.828,-0.526,0.625,0.203,-24.35,2.93,6.59,0,6
15945.843,-0.527,0.634,0.216,-22.61,2.44,5.28,0,6
15945.843,-0.526,0.645,0.222,-20.36,1.77,3.94,0,6
15945.859,-0.522,0.649,0.225,-17.85,0.79,2.66,0,6
15945.875,-0.517,0.654,0.23,-14.44,-0.34,1.31,0,6
15945.875,-0.51,0.657,0.224,-10.83,-1.37,-0.4,0,6
15945.89,-0.504,0.662,0.219,-7.32,-2.29,-2.11,0,6
15945.906,-0.495,0.67,0.211,-4.49,-2.26,-3.57,0,6
15945.906,-0.486,0.678,0.208,-2.78,-1.25,-5.19,0,6
15945.937,-0.48,0.696,0.217,-1.86,2.44,-7.39,0,6
15945.937,-0.479,0.699,0.224,-2.2,3.6,-7.11,0,6
15945.953,-0.474,0.698,0.234,-2.93,3.6,-6.41,0,6
15945.968,-0.473,0.708,0.244,-3.45,2.72,-5.62,0,6
15945.968,-0.464,0.725,0.252,-3.36,1.19,-5.55,0,6
15945.984,-0.455,0.748,0.258,-3.88,-0.43,-6.68,0,6
15945.984,-0.448,0.77,0.266,-4.79,-1.83,-8.58,0,6
15946.0,-0.441,0.813,0.28,-6.13,-2.23,-10.5,0,6
15946.015,-0.442,0.869,0.303,-6.62,-1.68,-12.24,0,6
15946.015,-0.446,0.916,0.322,-5.65,-0.76,-12.54,0,6
15946.031,-0.449,0.957,0.337,-2.23,0.12,-7.42,0,6
15946.046,-0.446,1.009,0.355,-0.92,-1.46,-2.9,0,6
15946.046,-0.44,1.055,0.362,-1.25,-3.85,1.86,0,6
15946.062,-0.431,1.099,0.363,-3.45,-6.71,7.2,0,6
15946.078,-0.413,1.162,0.372,-6.29,-9.77,13.52,0,6
15946.078,-0.392,1.177,0.379,-9.49,-12.48,20.63,0,6
15946.093,-0.348,1.187,0.41,-14.74,-16.82,34.24,0,6
15946.109,-0.326,1.175,0.424,-15.96,-19.07,40.44,0,6
15946.125,-0.31,1.16,0.437,-15.02,-21.45,46.3,0,6
15946.14,-0.298,1.152,0.442,-12.79,-24.81,51.12,0,6
15946.14,-0.28,1.145,0.443,-10.04,-29.11,55.27,0,6
15946.156,-0.268,1.138,0.435,-6.9,-33.23,59.21,0,6
15946.156,-0.263,1.139,0.425,-2.93,-36.38,63.57,0,6
15946.171,-0.259,1.157,0.415,1.83,-38.18,67.75,0,6
15946.187,-0.251,1.176,0.407,5.65,-38.09,71.5,0,6
15946.187,-0.249,1.191,0.403,7.32,-36.74,74.98,0,6
15946.203,-0.254,1.212,0.407,7.2,-35.77,78.74,0,6
15946.203,-0.241,1.231,0.417,5.37,-35.62,83.29,0,6
15946.218,-0.234,1.254,0.424,2.41,-35.77,88.08,0,6
15946.234,-0.237,1.27,0.424,-1.68,-36.59,93.23,0,6
15946.25,-0.231,1.286,0.429,-7.78,-38.24,99.22,0,6
15946.25,-0.212,1.291,0.432,-13.7,-40.62,105.01,0,6
15946.265,-0.207,1.284,0.436,-21.36,-44.56,114.63,0,6
15946.281,-0.198,1.278,0.438,-23.74,-45.69,118.59,0,6
15946.296,-0.199,1.263,0.445,-25.09,-46.08,121.65,0,6
15946.296,-0.208,1.244,0.446,-25.61,-46.17,124.15,0,6
15946.312,-0.215,1.235,0.444,-26.12,-46.42,126.47,0,6
15946.328,-0.209,1.219,0.443,-26.25,-47.09,128.27,0,6
15946.328,-0.209,1.206,0.434,-26.52,-47.09,129.8,0,6
15946.343,-0.21,1.193,0.425,-27.68,-46.51,130.8,0,6
15946.359,-0.204,1.169,0.413,-29.94,-46.6,130.99,0,6
15946.359,-0.217,1.148,0.401,-32.87,-46.97,129.8,0,6
15946.375,-0.21,1.131,0.387,-36.93,-48.25,127.35,0,6
15946.375,-0.203,1.13,0.377,-42.36,-49.35,123.97,0,6
15946.39,-0.22,1.117,0.363,-48.22,-49.75,120.21,0,6
15946.406,-0.247,1.086,0.358,-54.17,-49.78,116.64,0,6
15946.406,-0.29,1.077,0.364,-59.51,-49.56,113.38,0,6
15946.421,-0.315,1.048,0.363,-63.91,-49.75,112.95,0,6
15946.437,-0.322,1.005,0.361,-66.68,-49.71,115.88,0,6
15946.437,-0.3,0.959,0.349,-67.54,-49.04,120.24,0,6
15946.453,-0.266,0.914,0.341,-67.87,-47.64,123.69,0,6
15946.468,-0.232,0.866,0.337,-68.42,-45.05,124.42,0,6
15946.468,-0.193,0.815,0.332,-70.8,-42.05,122.26,0,6
15946.484,-0.154,0.761,0.329,-75.47,-40.01,117.37,0,6
15946.484,-0.106,0.704,0.327,-81.3,-39.12,110.84,0,6
15946.5,-0.062,0.672,0.329,-87.34,-37.87,104.13,0,6
15946.515,-0.013,0.652,0.327,-94.33,-35.74,98.42,0,6
15946.515,0.037,0.632,0.332,-102.76,-31.98,93.54,0,6
15946.531,0.064,0.641,0.362,-111.82,-26.31,89.91,0,6
15946.546,0.064,0.666,0.405,-120.79,-20.02,88.23,0,6
15946.546,0.082,0.662,0.444,-129.92,-15.29,89.08,0,6
15946.562,0.115,0.662,0.494,-138.77,-12.48,91.04,0,6
15946.578,0.146,0.641,0.535,-146.31,-11.63,91.62,0,6
15946.578,0.179,0.597,0.564,-152.68,-13.21,89.75,0,6
15946.593,0.226,0.546,0.582,-157.96,-15.75,86.76,0,6
15946.609,0.276,0.491,0.587,-161.57,-17.91,82.8,0,6
15946.609,0.32,0.438,0.584,-163.7,-18.56,77.36,0,6
15946.625,0.358,0.376,0.576,-164.74,-17.03,71.02,0,6
15946.625,0.399,0.323,0.563,-165.59,-12.82,64.06,0,6
15946.64,0.434,0.291,0.552,-166.33,-6.47,55.33,0,6
15946.656,0.456,0.25,0.547,-165.47,0.82,44.43,0,6
15946.656,0.452,0.217,0.554,-161.9,8.67,32.93,0,6
15946.671,0.403,0.229,0.597,-155.28,16.66,23.16,0,6
15946.687,0.337,0.25,0.668,-142.31,20.17,18.07,0,6
15946.687,0.297,0.234,0.71,-123.08,15.99,19.71,0,6
15946.703,0.285,0.221,0.715,-102.73,6.65,25.12,0,6
15946.718,0.297,0.222,0.7,-84.93,-3.45,28.75,0,6
15946.718,0.324,0.187,0.67,-72.33,-11.63,28.17,0,6
15946.734,0.365,0.151,0.639,-66.41,-16.69,22.74,0,6
15946.75,0.393,0.165,0.603,-65.61,-17.64,12.39,0,6
15946.75,0.364,0.173,0.574,-70.41,-14.56,0.58,0,6
15946.765,0.402,0.241,0.565,-75.96,-6.53,-12.97,0,6
15946.781,0.393,0.293,0.559,-67.48,-2.75,-17.4,0,6
15946.796,0.331,0.256,0.562,-61.46,-1.43,-17.67,0,6
15946.812,0.314,0.206,0.598,-59.91,-5.43,-9.67,0,6
15946.812,0.324,0.239,0.604,-53.01,-11.93,-4.91,0,6
15946.828,0.316,0.274,0.596,-48.86,-15.9,-6.1,0,6
15946.828,0.321,0.335,0.601,-52.89,-15.47,-10.96,0,6
15946.843,0.287,0.396,0.62,-61.16,-9.49,-18.13,0,6
15946.859,0.228,0.386,0.648,-74.47,-1.89,-20.02,0,6
15946.859,0.249,0.4,0.69,-88.53,5.68,-16.54,0,6
15946.875,0.252,0.411,0.71,-98.09,13.98,-15.08,0,6
15946.875,0.228,0.362,0.729,-107.91,23.1,-13.73,0,6
15946.89,0.216,0.339,0.773,-117.68,32.47,-11.17,0,6
15946.906,0.163,0.314,0.823,-121.56,43.4,-8.64,0,6
15946.906,0.109,0.265,0.863,-120.91,52.16,-5.52,0,6
15946.921,0.109,0.236,0.91,-118.69,58.5,-2.26,0,6
15946.937,0.1,0.176,0.996,-110.6,64.82,-4.88,0,6
15946.953,0.083,0.136,1.023,-102.3,62.47,-9.86,0,6
15946.968,0.062,0.119,1.033,-89.6,57.89,-13.98,0,6
15946.968,0.056,0.117,1.018,-74.25,52.28,-16.39,0,6
15946.984,0.06,0.124,1.0,-58.69,48.71,-17.73,0,6
15946.984,0.063,0.134,1.006,-45.38,48.43,-17.49,0,6
15947.0,0.079,0.132,1.01,-35.62,48.49,-16.39,0,6
15947.015,0.103,0.12,1.006,-31.04,48.71,-14.5,0,6
15947.015,0.109,0.121,0.999,-30.85,49.44,-13.09,0,6
15947.031,0.106,0.115,0.98,-32.96,47.12,-13.73,0,6
15947.046,0.103,0.122,0.973,-33.6,45.47,-13.67,0,6
15947.046,0.12,0.13,1.022,-32.53,48.49,-9.83,0,6
15947.062,0.124,0.135,1.054,-32.84,54.63,-4.24,0,6
15947.078,0.101,0.115,1.09,-34.85,59.82,-0.12,0,6
15947.078,0.063,0.07,1.142,-36.65,61.62,0.98,0,6
15947.093,0.039,0.013,1.195,-34.64,57.71,0.18,0,6
15947.109,0.026,-0.096,1.219,-7.6,34.42,-3.57,0,6
15947.125,0.062,-0.087,1.194,10.38,21.76,-4.82,0,6
15947.125,0.079,-0.074,1.154,26.06,13.58,-5.98,0,6
15947.14,0.092,-0.063,1.113,35.89,9.89,-6.65,0,6
15947.156,0.105,-0.065,1.084,36.93,8.03,-4.88,0,6
15947.156,0.165,-0.005,1.071,32.35,9.03,-2.93,0,6
15947.171,0.121,0.008,1.047,26.34,13.09,-5.1,0,6
15947.187,0.102,-0.022,1.057,14.19,13.18,-6.35,0,6
15947.187,0.116,-0.014,1.074,4.97,12.27,-5.22,0,6
15947.203,0.083,0.01,1.065,1.5,10.65,-4.03,0,6
15947.218,0.078,0.002,1.075,-3.02,7.11,-1.68,0,6
15947.218,0.108,0.016,1.098,-8.73,3.02,0.31,0,6
15947.234,0.096,0.02,1.112,-12.54,-0.61,1.5,0,6
15947.25,0.087,0.028,1.137,-15.41,-4.18,1.98,0,6
15947.25,0.079,0.01,1.162,-16.69,-7.29,1.74,0,6
15947.265,0.063,-0.023,1.172,-14.28,-10.56,2.5,0,6
15947.281,0.098,-0.025,1.124,2.99,-17.09,3.91,0,6
15947.296,0.114,-0.031,1.097,10.9,-17.94,3.11,0,6
15947.296,0.127,-0.023,1.06,16.6,-18.16,0.46,0,6
15947.312,0.124,-0.007,1.027,19.62,-17.82,-3.02,0,6
15947.328,0.13,-0.006,1.005,20.51,-17.64,-5.89,0,6
15947.328,0.127,-0.021,0.978,21.18,-17.88,-7.57,0,6
15947.343,0.123,-0.041,0.954,22.25,-18.86,-8.36,0,6
15947.359,0.128,-0.068,0.924,25.18,-20.72,-10.28,0,6
15947.359,0.124,-0.089,0.875,27.65,-23.44,-13.31,0,6
15947.375,0.116,-0.057,0.799,26.43,-26.46,-18.22,0,6
15947.375,0.144,-0.014,0.747,19.84,-26.46,-23.62,0,6
15947.39,0.188,0.026,0.718,9.28,-21.49,-28.96,0,6
15947.406,0.213,0.08,0.709,-3.27,-10.8,-32.56,0,6
15947.406,0.235,0.106,0.759,-16.79,4.55,-32.47,0,6
15947.421,0.194,0.082,0.833,-27.22,18.98,-29.76,0,6
15947.437,0.146,0.066,0.867,-32.14,25.61,-27.86,0,6
15947.453,0.131,0.066,0.912,-31.28,24.32,-26.89,0,6
15947.468,0.13,0.08,0.928,-30.73,21.36,-26.86,0,6
15947.468,0.153,0.096,0.947,-31.13,19.01,-26.52,0,6
15947.484,0.17,0.098,0.966,-34.0,19.32,-24.9,0,6
15947.484,0.158,0.109,0.984,-38.58,20.05,-23.01,0,6
15947.5,0.135,0.099,1.004,-42.3,19.62,-20.69,0,6
15947.515,0.136,0.077,1.016,-43.86,17.18,-17.76,0,6
15947.515,0.15,0.073,1.012,-43.09,13.92,-15.2,0,6
15947.531,0.16,0.073,1.012,-40.62,11.41,-12.33,0,6
15947.546,0.183,0.046,1.031,-36.81,10.96,-8.58,0,6
15947.546,0.181,0.024,1.05,-32.44,11.54,-4.7,0,6
15947.562,0.177,-0.012,1.039,-26.86,9.95,-2.35,0,6
15947.578,0.18,-0.021,1.027,-22.49,7.42,-0.95,0,6
15947.578,0.189,-0.023,1.006,-19.99,4.79,-0.67,0,6
15947.593,0.212,-0.021,0.988,-20.05,2.84,-1.34,0,6
15947.593,0.214,-0.018,0.984,-21.55,3.45,-1.53,0,6
15947.625,0.192,-0.032,0.995,-21.58,4.79,0.58,0,6
15947.625,0.168,-0.039,0.992,-19.17,4.03,1.68,0,6
15947.64,0.152,-0.038,0.983,-17.73,2.29,2.44,0,6
15947.656,0.148,-0.033,0.971,-17.03,0.27,2.78,0,6
15947.656,0.145,-0.046,0.963,-15.59,-1.31,3.72,0,6
15947.671,0.129,-0.046,0.957,-13.43,-2.69,5.28,0,6
15947.687,0.129,-0.048,0.938,-10.96,-5.16,6.41,0,6
15947.687,0.145,-0.033,0.927,-9.67,-6.32,7.23,0,6
15947.703,0.146,-0.02,0.924,-10.53,-6.13,8.15,0,6
15947.718,0.152,-0.026,0.923,-12.33,-5.52,9.28,0,6
15947.718,0.172,-0.047,0.923,-13.28,-4.33,10.93,0,6
15947.734,0.186,-0.062,0.925,-13.86,-3.05,12.21,0,6
15947.734,0.188,-0.057,0.932,-14.89,-1.19,11.51,0,6
15947.75,0.175,-0.053,0.941,-16.51,0.98,9.7,0,6
15947.765,0.157,-0.036,0.96,-19.99,3.48,8.73,0,6
15947.765,0.13,-0.03,0.98,-24.63,5.28,9.22,0,6
15947.796,0.105,-0.054,1.025,-32.75,4.55,12.24,0,6
15947.796,0.101,-0.062,1.048,-36.01,2.9,13.15,0,6
15947.812,0.09,-0.077,1.068,-36.93,0.58,13.67,0,6
15947.828,0.079,-0.101,1.075,-34.55,-3.08,14.34,0,6
15947.828,0.082,-0.126,1.081,-29.88,-7.29,15.05,0,6
15947.843,0.083,-0.163,1.067,-23.16,-11.96,15.29,0,6
15947.859,0.098,-0.186,1.031,-15.11,-15.47,14.8,0,6
15947.859,0.116,-0.198,0.994,-6.87,-17.4,12.97,0,6
15947.875,0.127,-0.196,0.949,0.34,-17.67,9.13,0,6
15947.875,0.139,-0.184,0.911,4.91,-16.17,5.07,0,6
15947.89,0.152,-0.161,0.891,7.48,-12.48,1.89,0,6
15947.906,0.15,-0.147,0.875,7.75,-7.54,0.21,0,6
15947.921,0.146,-0.131,0.877,5.55,-2.47,-0.49,0,6
15947.921,0.143,-0.117,0.893,1.98,1.34,-0.82,0,6
15947.937,0.149,-0.12,0.908,-2.17,3.63,-0.92,0,6
15947.937,0.14,-0.116,0.922,-4.88,5.1,-1.04,0,6
15947.968,0.128,-0.13,0.959,-4.52,3.97,-1.62,0,6
15947.968,0.124,-0.137,0.965,-1.07,2.75,-2.17,0,6
15947.984,0.126,-0.128,0.962,3.08,1.37,-2.84,0,6
15947.984,0.131,-0.121,0.952,6.71,0.12,-3.69,0,6
15948.0,0.14,-0.114,0.939,10.04,-0.67,-4.24,0,6
15948.015,0.144,-0.114,0.918,9.25,1.1,-3.88,0,6
15948.015,0.147,-0.109,0.912,7.05,3.51,-3.85,0,6
15948.031,0.155,-0.115,0.936,4.64,6.13,-4.3,0,6
15948.046,0.159,-0.115,0.958,2.23,8.24,-4.85,0,6
15948.046,0.148,-0.109,0.981,0.85,9.95,-5.58,0,6
15948.062,0.13,-0.109,0.99,1.4,10.01,-6.65,0,6
15948.078,0.124,-0.09,0.999,1.92,8.7,-7.48,0,6
15948.078,0.12,-0.074,1.005,2.5,7.66,-7.57,0,6
15948.093,0.116,-0.081,1.014,3.33,7.17,-6.9,0,6
15948.109,0.116,-0.082,1.021,4.46,6.65,-5.52,0,6
15948.109,0.112,-0.079,1.02,5.52,5.13,-3.97,0,6
15948.125,0.114,-0.08,1.019,5.04,2.69,-2.75,0,6
15948.125,0.122,-0.083,1.013,3.63,0.34,-1.92,0,6
15948.14,0.12,-0.09,1.005,2.96,-1.19,-1.22,0,6
15948.156,0.119,-0.104,1.002,3.3,-2.04,-0.21,0,6
15948.156,0.129,-0.123,1.003,4.03,-1.98,0.49,0,6
15948.171,0.131,-0.13,0.991,5.55,-1.71,0.21,0,6
15948.187,0.133,-0.13,0.978,6.87,-1.8,-1.04,0,6
15948.187,0.133,-0.125,0.966,6.96,-1.86,-2.69,0,6
15948.203,0.133,-0.107,0.956,5.43,-0.98,-4.12,0,6
15948.218,0.13,-0.088,0.956,2.56,0.79,-4.7,0,6
15948.218,0.123,-0.087,0.962,-0.46,2.84,-4.12,0,6
15948.234,0.119,-0.091,0.976,-2.23,4.49,-2.72,0,6
15948.234,0.118,-0.094,0.982,-2.47,5.1,-1.5,0,6
15948.25,0.114,-0.102,0.982,-2.62,4.97,-0.76,0,6
15948.265,0.112,-0.109,0.985,-3.02,4.21,-0.43,0,6
15948.265,0.106,-0.113,0.985,-3.45,2.87,-0.34,0,6
15948.281,0.101,-0.112,0.982,-4.3,1.43,-0.64,0,6
15948.296,0.111,-0.115,0.978,-5.07,0.09,-0.82,0,6
15948.296,0.111,-0.117,0.974,-5.04,-0.55,-0.92,0,6
15948.312,0.117,-0.115,0.97,-3.97,-0.92,-0.49,0,6
15948.328,0.13,-0.107,0.963,-3.05,-0.43,0.0,0,6
15948.328,0.131,-0.104,0.953,-3.69,1.13,0.52,0,6
15948.343,0.133,-0.111,0.959,-5.65,2.9,1.01,0,6
15948.343,0.125,-0.124,0.976,-7.66,4.73,1.5,0,6
15948.359,0.112,-0.137,0.994,-8.91,6.04,1.8,0,6
15948.375,0.103,-0.154,1.004,-8.3,5.65,1.56,0,6
15948.375,0.1,-0.155,1.002,-7.11,4.3,0.98,0,6
15948.39,0.101,-0.148,0.994,-6.84,2.9,0.0,0,6
15948.406,0.108,-0.14,0.981,-7.72,1.83,-0.76,0,6
15948.406,0.116,-0.137,0.974,-8.91,1.46,-0.89,0,6
15948.421,0.123,-0.138,0.973,-9.49,2.17,-0.55,0,6
15948.437,0.121,-0.148,0.977,-9.4,3.11,-0.21,0,6
15948.437,0.119,-0.156,0.982,-8.12,3.39,-0.55,0,6
15948.453,0.116,-0.161,0.982,-6.5,3.36,-1.71,0,6
15948.453,0.114,-0.156,0.98,-5.1,3.05,-3.45,0,6
15948.468,0.108,-0.144,0.98,-3.51,2.9,-4.88,0,6
15948.484,0.104,-0.14,0.978,-1.46,2.99,-5.8,0,6
15948.484,0.107,-0.127,0.973,0.58,3.39,-6.41,0,6
15948.5,0.102,-0.11,0.972,1.95,4.36,-6.99,0,6
15948.515,0.094,-0.101,0.977,2.2,5.04,-7.26,0,6
15948.515,0.088,-0.097,0.985,2.08,5.07,-6.59,0,6
15948.531,0.086,-0.102,0.986,2.81,4.73,-5.28,0,6
15948.546,0.093,-0.103,0.989,3.72,4.27,-4.24,0,6
15948.546,0.1,-0.099,0.987,3.66,4.06,-4.18,0,6
15948.562,0.103,-0.093,0.985,2.35,3.81,-4.7,0,6
15948.562,0.099,-0.089,0.987,0.15,4.15,-4.67,0,6
15948.578,0.096,-0.091,0.993,-1.95,4.49,-3.91,0,6
15948.593,0.102,-0.1,0.998,-3.66,4.06,-2.96,0,6
15948.593,0.105,-0.104,1.005,-4.33,3.81,-2.11,0,6
15948.609,0.104,-0.119,1.004,-3.97,3.97,-1.59,0,6
15948.625,0.107,-0.127,1.009,-3.42,4.15,-1.77,0,6
15948.625,0.109,-0.13,1.009,-1.89,4.49,-2.32,0,6
15948.64,0.106,-0.121,1.008,-1.28,5.07,-2.9,0,6
15948.656,0.102,-0.118,1.011,-2.2,5.58,-3.36,0,6
15948.656,0.095,-0.12,1.02,-3.51,6.16,-3.36,0,6
15948.671,0.093,-0.123,1.027,-4.3,5.62,-3.23,0,6
15948.687,0.092,-0.128,1.028,-4.33,4.52,-3.11,0,6
15948.687,0.089,-0.132,1.024,-2.99,3.42,-3.27,0,6
15948.703,0.085,-0.132,1.016,-1.16,2.35,-3.57,0,6
15948.703,0.088,-0.123,1.008,-0.09,1.13,-4.0,0,6
15948.718,0.095,-0.119,0.998,0.67,0.4,-4.3,0,6
15948.734,0.093,-0.118,0.991,0.89,0.64,-3.88,0,6
15948.734,0.094,-0.12,0.986,0.7,1.16,-3.23,0,6
15948.75,0.094,-0.122,0.978,-0.18,1.25,-2.9,0,6
15948.765,0.099,-0.123,0.974,-1.4,1.01,-3.14,0,6
15948.765,0.095,-0.121,0.977,-2.9,1.59,-3.48,0,6
15948.781,0.089,-0.117,0.982,-4.7,2.44,-3.91,0,6
15948.796,0.088,-0.112,0.992,-6.01,3.14,-4.18,0,6
15948.796,0.086,-0.11,1.004,-6.16,3.27,-3.85,0,6
15948.812,0.085,-0.113,1.01,-4.97,3.23,-3.2,0,6
15948.828,0.082,-0.114,1.017,-3.33,2.99,-2.56,0,6
15948.828,0.087,-0.118,1.017,-1.77,2.08,-1.92,0,6
15948.843,0.09,-0.121,1.019,-0.67,1.46,-1.74,0,6
15948.843,0.093,-0.126,1.017,0.43,1.01,-1.98,0,6
15948.859,0.093,-0.13,1.026,1.86,0.79,-2.29,0,6
15948.875,0.092,-0.132,1.029,3.39,0.67,-2.47,0,6
15948.875,0.089,-0.13,1.024,5.34,-0.09,-2.75,0,6
15948.89,0.086,-0.12,1.013,6.96,-1.19,-3.14,0,6
15948.906,0.087,-0.112,0.99,6.9,-1.89,-3.42,0,6
15948.906,0.091,-0.108,0.981,4.94,-1.8,-3.48,0,6
15948.921,0.089,-0.1,0.978,1.92,-0.98,-3.3,0,6
15948.937,0.087,-0.094,0.987,-1.56,0.76,-2.44,0,6
15948.937,0.085,-0.108,1.007,-3.42,2.17,-1.74,0,6
15948.953,0.08,-0.119,1.022,-2.75,2.47,-1.53,0,6
15948.968,0.082,-0.12,1.027,-0.79,1.65,-1.59,0,6
15948.968,0.085,-0.116,1.026,1.31,0.46,-2.35,0,6
15948.984,0.086,-0.107,1.021,2.56,-0.67,-2.75,0,6
15948.984,0.085,-0.098,1.016,2.17,-0.49,-2.47,0,6
15949.0,0.085,-0.096,1.019,2.44,-0.55,-1.74,0,6
15949.015,0.086,-0.097,1.023,3.23,-1.07,-1.31,0,6
15949.015,0.09,-0.112,1.017,4.21,-2.08,-1.07,0,6
15949.031,0.089,-0.113,1.005,4.58,-2.87,-1.13,0,6
15949.046,0.091,-0.105,0.994,3.81,-3.3,-1.59,0,6
15949.046,0.089,-0.102,0.987,2.32,-3.14,-1.98,0,6
15949.062,0.084,-0.101,0.988,0.61,-2.66,-1.71,0,6
15949.078,0.083,-0.108,0.991,0.06,-2.41,-1.13,0,6
15949.078,0.083,-0.112,0.987,0.64,-2.41,-0.67,0,6
15949.093,0.086,-0.111,0.984,1.4,-2.56,-0.49,0,6
15949.109,0.085,-0.111,0.98,1.89,-2.53,-0.73,0,6
15949.109,0.082,-0.105,0.975,1.5,-2.78,-0.98,0,6
15949.125,0.079,-0.098,0.968,0.46,-2.96,-0.7,0,6
15949.125,0.082,-0.096,0.963,-0.89,-2.9,-0.09,0,6
15949.14,0.084,-0.099,0.967,-1.71,-2.14,0.73,0,6
15949.156,0.08,-0.107,0.974,-1.74,-1.04,1.37,0,6
15949.156,0.083,-0.117,0.976,-0.85,-0.55,1.56,0,6
15949.171,0.083,-0.115,0.985,0.67,-0.12,1.37,0,6
15949.187,0.076,-0.118,0.987,2.04,-0.18,0.85,0,6
15949.187,0.067,-0.117,0.988,3.75,-0.67,0.64,0,6
15949.203,0.067,-0.105,0.984,4.82,-0.98,0.85,0,6
15949.203,0.064,-0.102,0.981,5.01,-0.43,0.73,0,6
15949.218,0.052,-0.104,0.991,4.82,0.85,0.79,0,6
15949.234,0.044,-0.11,1.003,5.65,1.83,1.07,0,6
15949.234,0.044,-0.113,1.013,7.66,2.38,1.31,0,6
15949.25,0.043,-0.104,1.017,9.49,2.78,1.31,0,6
15949.265,0.06,-0.09,1.021,9.16,3.27,1.4,0,6
15949.265,0.077,-0.075,1.032,6.59,4.67,1.95,0,6
15949.281,0.081,-0.08,1.056,3.17,6.68,3.42,0,6
15949.296,0.074,-0.095,1.089,0.76,8.58,5.01,0,6
15949.296,0.065,-0.111,1.124,0.27,9.25,5.89,0,6
15949.312,0.064,-0.125,1.152,2.08,8.21,5.95,0,6
15949.312,0.061,-0.133,1.165,6.13,5.28,5.71,0,6
15949.328,0.051,-0.146,1.165,13.55,0.85,5.34,0,6
15949.343,0.047,-0.162,1.124,24.63,-6.01,4.61,0,6
15949.343,0.081,-0.138,1.066,34.94,-11.9,4.06,0,6
15949.359,0.112,-0.097,1.014,39.67,-13.18,3.3,0,6
15949.375,0.129,-0.064,0.979,37.6,-11.66,2.23,0,6
15949.375,0.135,-0.046,0.979,32.5,-9.09,2.35,0,6
15949.39,0.129,-0.038,0.997,27.68,-7.29,3.3,0,6
15949.406,0.112,-0.031,1.019,24.66,-7.11,4.52,0,6
15949.406,0.089,-0.018,1.047,22.1,-7.6,6.38,0,6
15949.421,0.071,-0.011,1.089,18.46,-9.22,8.18,0,6
15949.437,0.071,-0.027,1.122,17.21,-12.88,9.25,0,6
15949.437,0.046,-0.034,1.129,19.5,-17.82,8.91,0,6
15949.453,0.05,-0.064,1.125,26.92,-23.56,8.03,0,6
15949.453,0.086,-0.065,1.11,38.51,-27.19,7.35,0,6
15949.468,0.109,-0.038,1.084,49.78,-27.22,6.41,0,6
15949.484,0.119,-0.02,1.055,56.86,-25.39,5.31,0,6
15949.5,0.108,-0.004,1.024,59.45,-24.41,4.7,0,6
15949.5,0.09,-0.004,0.986,59.85,-25.91,5.16,0,6
15949.515,0.072,-0.01,0.943,59.72,-28.38,6.01,0,6
15949.515,0.102,-0.013,0.888,58.78,-30.79,6.71,0,6
15949.531,0.141,0.002,0.838,55.82,-31.74,7.17,0,6
15949.546,0.163,0.013,0.793,51.15,-30.43,7.51,0,6
15949.562,0.151,0.0,0.772,44.43,-26.95,8.06,0,6
15949.562,0.146,-0.027,0.778,36.65,-23.16,9.03,0,6
15949.562,0.191,-0.04,0.791,27.74,-19.47,8.91,0,6
15949.578,0.208,-0.047,0.829,16.69,-13.15,6.84,0,6
15949.593,0.191,-0.041,0.889,4.39,-5.8,2.72,0,6
15949.593,0.157,-0.055,0.952,-6.13,-1.01,-1.62,0,6
15949.609,0.138,-0.06,1.006,-12.24,-0.92,-6.47,0,6
15949.625,0.109,-0.062,1.044,-9.95,-3.6,-11.84,0,6
15949.625,0.06,-0.063,1.058,1.37,-7.9,-16.27,0,6
15949.64,0.034,-0.065,1.028,19.96,-14.22,-19.53,0,6
15949.656,0.056,-0.059,0.951,42.51,-21.45,-21.58,0,6
15949.656,0.115,-0.029,0.857,64.12,-27.59,-22.64,0,6
15949.671,0.141,0.028,0.782,76.91,-27.22,-23.59,0,6
15949.687,0.158,0.094,0.733,73.82,-19.32,-24.17,0,6
15949.687,0.164,0.128,0.709,58.11,-10.22,-24.2,0,6
15949.703,0.174,0.158,0.719,36.13,-2.23,-22.34,0,6
15949.703,0.182,0.169,0.783,12.7,6.38,-19.17,0,6
15949.718,0.171,0.147,0.854,-7.26,13.37,-16.85,0,6
15949.734,0.165,0.15,0.931,-22.49,18.22,-15.35,0,6
15949.734,0.167,0.128,0.996,-30.67,18.52,-14.77,0,6
15949.75,0.186,0.124,1.048,-31.43,15.14,-14.31,0,6
15949.765,0.208,0.15,1.099,-28.44,13.61,-13.4,0,6
15949.765,0.2,0.147,1.142,-24.45,14.71,-11.78,0,6
15949.781,0.187,0.14,1.163,-20.87,14.56,-9.34,0,6
15949.796,0.177,0.141,1.184,-18.71,12.91,-6.65,0,6
15949.796,0.151,0.127,1.187,-15.96,9.16,-5.1,0,6
15949.812,0.128,0.115,1.172,-12.05,2.56,-4.24,0,6
15949.828,0.12,0.107,1.13,-7.57,-4.91,-3.14,0,6
15949.828,0.126,0.108,1.069,-3.94,-10.86,-1.46,0,6
15949.843,0.128,0.116,1.012,-2.01,-13.43,0.55,0,6
15949.859,0.12,0.095,0.952,-1.37,-14.5,1.77,0,6
15949.859,0.129,0.078,0.907,-1.19,-14.77,1.62,0,6
15949.875,0.142,0.066,0.874,0.43,-12.73,0.58,0,6
15949.875,0.152,0.074,0.851,2.14,-8.18,0.0,0,6
15949.89,0.143,0.078,0.85,1.46,-1.98,-0.89,0,6
15949.906,0.121,0.068,0.86,-0.92,3.51,-1.62,0,6
15949.906,0.107,0.057,0.886,-3.14,7.54,-1.86,0,6
15949.921,0.098,0.046,0.898,-4.18,8.06,-2.17,0,6
15949.937,0.117,0.06,0.898,-4.46,5.95,-2.35,0,6
15949.937,0.124,0.077,0.896,-5.65,5.28,-2.17,0,6
15949.953,0.112,0.068,0.887,-7.72,5.28,-2.26,0,6
15949.953,0.109,0.068,0.875,-10.47,4.43,-2.11,0,6
15949.968,0.109,0.065,0.864,-9.83,4.3,-1.8,0,6
15949.984,0.115,0.049,0.849,-9.98,5.98,-1.37,0,6
15949.984,0.12,0.053,0.832,-11.35,9.03,-1.01,0,6
15950.0,0.121,0.05,0.82,-13.89,12.3,-1.4,0,6
15950.015,0.109,0.057,0.825,-16.97,15.81,-2.11,0,6
15950.031,0.094,0.051,0.841,-17.61,18.31,-2.17,0,6
15950.031,0.083,0.032,0.858,-14.19,19.59,-1.74,0,6
15950.046,0.081,0.017,0.861,-7.35,19.41,-1.5,0,6
15950.046,0.094,0.012,0.842,1.28,18.56,-1.5,0,6
15950.062,0.097,0.016,0.824,8.91,19.1,-2.08,0,6
15950.078,0.1,0.027,0.805,12.7,20.48,-3.14,0,6
15950.078,0.096,0.046,0.799,11.99,23.32,-4.52,0,6
15950.093,0.075,0.055,0.804,8.76,26.12,-5.89,0,6
15950.109,0.059,0.048,0.818,5.37,27.68,-6.41,0,6
15950.109,0.051,0.035,0.825,4.82,27.59,-6.41,0,6
15950.125,0.057,0.039,0.817,6.71,27.01,-6.41,0,6
15950.125,0.049,0.041,0.805,9.0,27.28,-6.81,0,6
15950.14,0.042,0.035,0.789,11.02,28.23,-7.45,0,6
15950.156,0.033,0.042,0.778,11.96,30.12,-8.39,0,6
15950.171,0.01,0.053,0.773,12.09,32.69,-9.74,0,6
15950.171,-0.001,0.065,0.762,12.15,34.79,-10.8,0,6
15950.187,0.013,0.085,0.755,11.02,37.29,-10.96,0,6
15950.187,0.012,0.112,0.764,6.56,41.99,-10.22,0,6
15950.203,-0.008,0.121,0.78,0.12,47.0,-9.74,0,6
15950.218,-0.028,0.117,0.807,-6.23,50.48,-8.88,0,6
15950.218,-0.058,0.097,0.837,-10.04,52.25,-7.63,0,6
15950.234,-0.082,0.08,0.85,-10.41,52.1,-6.5,0,6
15950.234,-0.097,0.055,0.859,-6.68,50.29,-5.8,0,6
15950.25,-0.092,0.043,0.849,-1.07,47.67,-6.35,0,6
15950.265,-0.07,0.039,0.835,3.75,47.12,-7.23,0,6
15950.265,-0.075,0.058,0.829,6.65,50.05,-8.61,0,6
15950.281,-0.096,0.061,0.822,8.03,53.22,-10.59,0,6
15950.296,-0.117,0.057,0.827,9.16,56.25,-11.54,0,6
15950.296,-0.134,0.057,0.826,12.33,58.47,-11.78,0,6
15950.312,-0.153,0.06,0.816,16.88,59.69,-12.42,0,6
15950.328,-0.153,0.062,0.811,20.11,61.16,-12.82,0,6
15950.328,-0.152,0.084,0.819,20.02,64.03,-13.52,0,6
15950.343,-0.177,0.09,0.835,17.09,67.23,-14.62,0,6
15950.343,-0.182,0.103,0.857,14.68,69.03,-15.32,0,6
15950.359,-0.197,0.111,0.869,13.4,69.8,-15.2,0,6
15950.375,-0.194,0.114,0.881,11.2,69.67,-14.28,0,6
15950.39,-0.218,0.118,0.899,8.39,71.05,-13.61,0,6
15950.39,-0.253,0.106,0.904,5.65,71.26,-13.46,0,6
15950.406,-0.277,0.105,0.912,4.0,70.07,-13.18,0,6
15950.406,-0.301,0.104,0.907,4.52,68.51,-13.12,0,6
15950.421,-0.293,0.099,0.9,6.99,66.59,-12.94,0,6
15950.437,-0.28,0.113,0.907,9.0,67.75,-11.75,0,6
15950.437,-0.291,0.109,0.905,8.91,71.14,-11.29,0,6
15950.453,-0.302,0.104,0.923,7.69,73.58,-11.72,0,6
15950.468,-0.338,0.095,0.939,8.55,75.11,-12.6,0,6
15950.468,-0.343,0.094,0.927,12.39,73.46,-14.07,0,6
15950.484,-0.338,0.124,0.933,15.93,72.7,-14.68,0,6
15950.5,-0.358,0.139,0.938,18.22,74.53,-14.71,0,6
15950.5,-0.394,0.138,0.951,18.95,76.97,-13.79,0,6
15950.515,-0.44,0.138,0.967,19.01,77.85,-12.51,0,6
15950.515,-0.465,0.138,0.956,18.86,73.89,-12.57,0,6
15950.531,-0.475,0.172,0.934,16.51,68.12,-12.27,0,6
15950.546,-0.471,0.214,0.91,9.83,62.65,-10.71,0,6
15950.546,-0.452,0.236,0.918,-2.29,59.6,-6.78,0,6
15950.562,-0.47,0.233,0.949,-16.45,61.65,-2.14,0,6
15950.578,-0.495,0.2,0.986,-26.61,62.59,0.79,0,6
15950.578,-0.523,0.165,1.034,-29.11,60.15,2.38,0,6
15950.593,-0.548,0.13,1.066,-21.58,53.96,2.96,0,6
15950.609,-0.53,0.116,1.054,-8.09,43.46,3.72,0,6
15950.609,-0.509,0.128,1.024,4.0,35.0,4.67,0,6
15950.625,-0.5,0.156,0.968,10.16,30.37,3.57,0,6
15950.625,-0.476,0.186,0.923,7.14,28.87,2.08,0,6
15950.64,-0.476,0.191,0.915,-2.47,33.97,2.08,0,6
15950.656,-0.489,0.178,0.918,-14.01,41.72,2.93,0,6
15950.656,-0.515,0.146,0.93,-22.31,47.94,4.15,0,6
15950.671,-0.521,0.115,0.927,-23.8,49.84,4.36,0,6
15950.687,-0.514,0.102,0.914,-19.04,49.32,3.48,0,6
15950.687,-0.514,0.091,0.899,-10.8,50.66,1.16,0,6
15950.703,-0.509,0.095,0.891,-2.66,53.5,-2.14,0,6
15950.718,-0.495,0.099,0.899,3.78,58.6,-3.88,0,6
15950.718,-0.511,0.089,0.917,8.09,67.17,-4.36,0,6
15950.734,-0.547,0.08,0.928,11.02,74.25,-5.68,0,6
15950.734,-0.579,0.071,0.912,13.98,76.51,-9.4,0,6
15950.75,-0.595,0.073,0.893,17.24,74.65,-13.55,0,6
15950.765,-0.59,0.086,0.878,20.6,72.05,-16.63,0,6
15950.765,-0.593,0.112,0.868,21.76,71.78,-17.33,0,6
15950.781,-0.636,0.132,0.871,19.01,74.04,-15.93,0,6
15950.796,-0.651,0.13,0.856,13.92,73.67,-13.86,0,6
15950.796,-0.663,0.121,0.854,6.9,72.63,-11.23,0,6
15950.812,-0.683,0.092,0.85,-0.15,72.24,-9.4,0,6
15950.828,-0.693,0.068,0.829,-5.04,69.89,-9.98,0,6
15950.828,-0.694,0.064,0.805,-6.41,67.81,-12.15,0,6
15950.843,-0.692,0.068,0.779,-4.64,67.81,-14.13,0,6
15950.843,-0.687,0.068,0.785,-1.89,71.14,-15.02,0,6
15950.859,-0.68,0.063,0.797,1.95,76.17,-15.2,0,6
15950.875,-0.682,0.059,0.822,4.73,80.97,-14.13,0,6
15950.875,-0.704,0.044,0.856,5.46,85.02,-13.79,0,6
15950.89,-0.732,0.016,0.867,5.86,86.15,-15.81,0,6
15950.906,-0.76,0.007,0.865,8.21,83.41,-19.96,0,6
15950.906,-0.782,0.031,0.845,12.33,78.28,-25.45,0,6
15950.921,-0.796,0.077,0.811,14.8,73.21,-29.73,0,6
15950.937,-0.793,0.105,0.802,15.23,70.1,-31.22,0,6
15950.937,-0.794,0.105,0.795,16.97,69.83,-30.46,0,6
15950.953,-0.798,0.105,0.782,22.68,67.45,-27.62,0,6
15950.953,-0.804,0.099,0.746,22.13,64.7,-28.84,0,6
15950.968,-0.809,0.119,0.7,18.37,63.66,-30.09,0,6
15950.984,-0.809,0.156,0.657,13.34,66.47,-29.27,0,6
15951.0,-0.823,0.159,0.661,8.7,70.93,-26.58,0,6
15951.0,-0.825,0.147,0.671,5.52,74.25,-22.89,0,6
15951.015,-0.828,0.129,0.687,3.66,76.72,-18.92,0,6
15951.015,-0.828,0.1,0.694,3.05,77.79,-15.81,0,6
15951.031,-0.831,0.081,0.695,1.89,77.49,-14.53,0,6
15951.046,-0.828,0.068,0.69,1.25,76.11,-15.78,0,6
15951.046,-0.841,0.06,0.692,0.64,75.56,-18.07,0,6
15951.062,-0.868,0.059,0.699,0.12,75.29,-19.5,0,6
15951.078,-0.894,0.063,0.705,1.31,73.64,-19.96,0,6
15951.078,-0.907,0.061,0.711,4.67,70.07,-19.2,0,6
15951.093,-0.905,0.043,0.712,9.37,66.13,-17.37,0,6
15951.109,-0.893,0.031,0.688,14.31,62.35,-15.56,0,6
15951.109,-0.887,0.034,0.661,17.03,59.08,-14.92,0,6
15951.125,-0.894,0.027,0.636,17.03,57.62,-14.8,0,6
15951.125,-0.909,0.032,0.614,13.55,57.22,-14.56,0,6
15951.14,-0.917,0.025,0.602,8.42,56.58,-14.34,0,6
15951.156,-0.925,0.007,0.597,4.09,56.4,-14.31,0,6
15951.171,-0.928,-0.012,0.598,1.37,56.49,-14.37,0,6
15951.171,-0.933,-0.038,0.594,1.8,56.49,-15.35,0,6
15951.187,-0.929,-0.038,0.576,3.42,55.88,-17.43,0,6
15951.187,-0.935,-0.022,0.567,4.55,55.39,-20.42,0,6
15951.203,-0.943,-0.018,0.562,7.23,55.02,-23.53,0,6
15951.218,-0.955,0.002,0.545,10.56,54.45,-25.42,0,6
15951.218,-0.952,0.032,0.526,12.54,52.86,-26.25,0,6
15951.234,-0.935,0.037,0.504,13.37,50.75,-26.06,0,6
15951.234,-0.922,0.058,0.483,11.63,49.78,-25.15,0,6
15951.25,-0.917,0.071,0.476,7.66,49.96,-24.6,0,6
15951.265,-0.924,0.064,0.479,3.51,50.63,-24.02,0,6
15951.281,-0.929,0.062,0.478,0.67,50.36,-23.04,0,6
15951.281,-0.937,0.063,0.479,-0.09,49.75,-22.03,0,6
15951.296,-0.942,0.063,0.477,0.95,49.53,-21.39,0,6
15951.296,-0.948,0.071,0.467,2.66,48.86,-20.48,0,6
15951.312,-0.951,0.076,0.46,3.81,47.49,-19.53,0,6
15951.328,-0.944,0.078,0.456,4.24,45.96,-18.86,0,6
15951.328,-0.94,0.082,0.445,4.21,44.92,-18.43,0,6
15951.343,-0.939,0.084,0.433,2.96,44.01,-18.01,0,6
15951.359,-0.934,0.085,0.433,0.67,43.4,-17.4,0,6
15951.359,-0.931,0.078,0.446,-0.15,42.91,-16.82,0,6
15951.375,-0.936,0.062,0.451,1.59,42.63,-16.14,0,6
15951.375,-0.947,0.069,0.442,4.09,41.84,-15.5,0,6
15951.39,-0.955,0.076,0.43,5.65,39.89,-15.44,0,6
15951.406,-0.96,0.067,0.424,7.05,37.57,-15.26,0,6
15951.406,-0.953,0.063,0.41,8.94,35.71,-14.59,0,6
15951.421,-0.944,0.064,0.394,11.29,34.52,-13.82,0,6
15951.437,-0.941,0.062,0.382,13.4,33.88,-13.28,0,6
15951.453,-0.939,0.066,0.365,14.1,33.51,-12.42,0,6
15951.453,-0.937,0.069,0.357,12.39,33.27,-11.57,0,6
15951.468,-0.94,0.058,0.353,10.07,33.2,-11.08,0,6
15951.468,-0.952,0.047,0.341,8.42,32.78,-10.86,0,6
15951.484,-0.955,0.031,0.337,8.3,31.31,-10.59,0,6
15951.5,-0.952,0.024,0.336,10.38,29.57,-10.62,0,6
15951.5,-0.944,0.022,0.322,14.13,27.95,-10.32,0,6
15951.515,-0.938,0.026,0.3,17.18,27.01,-9.83,0,6
15951.515,-0.934,0.037,0.285,18.1,27.16,-9.22,0,6
15951.531,-0.932,0.046,0.26,16.24,28.6,-8.0,0,6
15951.546,-0.935,0.065,0.248,10.19,30.76,-6.23,0,6
15951.562,-0.948,0.06,0.249,2.53,33.11,-4.79,0,6
15951.562,-0.962,0.045,0.26,-3.3,34.73,-2.99,0,6
15951.578,-0.974,0.026,0.264,-6.07,34.97,-0.49,0,6
15951.578,-0.974,-0.006,0.262,-6.47,33.45,1.83,0,6
15951.593,-0.954,-0.032,0.265,-4.7,31.31,2.38,0,6
15951.609,-0.946,-0.045,0.258,-1.28,29.94,0.67,0,6
15951.609,-0.945,-0.041,0.253,2.01,29.08,-2.2,0,6
15951.625,-0.948,-0.021,0.243,3.75,28.81,-5.13,0,6
15951.625,-0.956,-0.001,0.235,3.14,28.81,-6.84,0,6
15951.64,-0.969,-0.003,0.233,1.95,28.57,-6.99,0,6
15951.656,-0.975,0.002,0.225,0.85,28.29,-5.49,0,6
15951.656,-0.97,0.006,0.218,-0.79,27.41,-3.75,0,6
15951.671,-0.965,-0.011,0.206,-3.14,26.03,-2.47,0,6
15951.687,-0.956,-0.013,0.199,-6.16,25.18,-1.8,0,6
15951.687,-0.954,-0.029,0.197,-7.69,25.97,-1.28,0,6
15951.703,-0.956,-0.035,0.195,-8.03,27.77,-0.67,0,6
15951.703,-0.958,-0.028,0.195,-8.27,29.21,-1.34,0,6
15951.718,-0.96,-0.023,0.201,-9.16,29.54,-2.87,0,6
15951.734,-0.963,-0.016,0.217,-9.19,29.3,-4.18,0,6
15951.734,-0.962,-0.005,0.233,-7.75,28.2,-4.82,0,6
15951.75,-0.964,0.006,0.251,-4.7,26.55,-4.85,0,6
15951.765,-0.972,0.015,0.274,-0.31,24.69,-4.15,0,6
15951.781,-0.984,0.029,0.288,4.58,22.43,-2.78,0,6
15951.781,-0.993,0.044,0.302,8.27,19.07,-0.67,0,6
15951.796,-0.995,0.04,0.308,12.36,14.47,1.43,0,6
15951.796,-0.991,0.036,0.294,17.0,9.83,3.81,0,6
15951.812,-0.978,0.036,0.273,20.87,5.95,6.2,0,6
15951.828,-0.964,0.031,0.264,23.13,3.23,7.75,0,6
15951.828,-0.953,0.021,0.262,25.45,2.11,9.34,0,6
15951.843,-0.946,0.021,0.259,27.71,1.5,10.38,0,6
15951.843,-0.952,0.011,0.253,29.21,0.55,10.53,0,6
15951.859,-0.963,-0.006,0.228,28.99,-1.01,10.59,0,6
15951.875,-0.963,-0.009,0.196,25.39,-3.11,10.59,0,6
15951.875,-0.956,-0.019,0.172,19.93,-4.79,9.28,0,6
15951.89,-0.948,-0.014,0.149,12.3,-5.01,7.97,0,6
15951.906,-0.947,-0.021,0.144,3.69,-4.3,6.59,0,6
15951.921,-0.947,-0.037,0.155,-3.6,-3.33,5.16,0,6
15951.921,-0.955,-0.051,0.165,-6.99,-2.01,4.21,0,6
15951.937,-0.965,-0.063,0.17,-3.27,-2.62,2.9,0,6
15951.937,-0.971,-0.069,0.171,1.71,-4.12,1.59,0,6
15951.953,-0.976,-0.08,0.16,6.68,-5.37,0.64,0,6
15951.953,-0.976,-0.076,0.143,10.01,-6.16,-0.06,0,6
15951.968,-0.982,-0.063,0.107,10.71,-5.92,-0.34,0,6
15951.984,-0.989,-0.057,0.097,7.87,-4.73,-0.06,0,6
15951.984,-0.99,-0.064,0.093,3.48,-3.97,0.03,0,6
15952.0,-0.987,-0.073,0.092,-0.55,-3.14,-0.18,0,6
15952.015,-0.99,-0.08,0.097,-3.08,-2.62,-0.58,0,6
15952.015,-0.983,-0.082,0.096,-4.06,-2.66,-1.31,0,6
15952.031,-0.977,-0.073,0.1,-4.06,-2.2,-2.38,0,6
15952.046,-0.989,-0.078,0.102,-2.93,-1.43,-3.2,0,6
15952.046,-0.993,-0.08,0.106,-1.59,-1.04,-3.17,0,6
15952.062,-0.991,-0.073,0.109,0.46,-1.04,-2.59,0,6
15952.078,-0.991,-0.07,0.105,2.38,-1.62,-2.17,0,6
15952.078,-0.983,-0.062,0.102,2.66,-2.11,-1.28,0,6
15952.093,-0.975,-0.053,0.105,1.92,-2.2,-0.73,0,6
15952.093,-0.978,-0.049,0.112,1.77,-1.92,-0.92,0,6
15952.109,-0.984,-0.048,0.123,2.81,-1.68,-0.67,0,6
15952.125,-0.988,-0.04,0.132,4.82,-1.8,-0.27,0,6
15952.125,-0.99,-0.036,0.128,6.65,-2.32,-0.15,0,6
15952.14,-0.995,-0.035,0.125,7.57,-3.27,-0.58,0,6
15952.156,-1.0,-0.042,0.116,7.32,-4.21,-0.64,0,6
15952.156,-0.985,-0.039,0.106,4.97,-4.94,-0.73,0,6
15952.171,-0.975,-0.031,0.1,1.71,-4.67,-1.56,0,6
15952.187,-0.972,-0.045,0.1,-1.22,-3.85,-2.32,0,6
15952.187,-0.966,-0.053,0.105,-2.93,-2.44,-2.5,0,6
15952.203,-0.961,-0.05,0.111,-2.78,-0.79,-3.17,0,6
15952.218,-0.969,-0.06,0.118,-0.46,0.67,-4.24,0,6
15952.218,-0.971,-0.065,0.125,2.5,1.04,-4.79,0,6
15952.234,-0.966,-0.049,0.125,4.97,0.43,-5.74,0,6
15952.234,-0.969,-0.038,0.121,6.78,-0.09,-7.14,0,6
15952.25,-0.975,-0.028,0.117,6.96,-0.27,-7.84,0,6
15952.265,-0.981,-0.017,0.116,6.47,-0.15,-7.84,0,6
15952.265,-0.99,-0.015,0.114,6.1,-0.06,-7.29,0,6
15952.281,-0.991,-0.017,0.112,5.49,-0.46,-6.35,0,6
15952.296,-0.989,-0.015,0.106,4.64,-0.73,-5.22,0,6
15952.296,-0.982,-0.015,0.103,3.02,-1.01,-4.46,0,6
15952.312,-0.976,-0.018,0.105,1.31,-0.79,-4.15,0,6
15952.328,-0.973,-0.02,0.103,0.43,-0.15,-4.03,0,6
15952.328,-0.971,-0.017,0.11,0.27,0.73,-3.85,0,6
15952.343,-0.977,-0.019,0.115,1.01,1.65,-3.78,0,6
15952.343,-0.981,-0.025,0.12,1.98,1.77,-3.39,0,6
15952.359,-0.982,-0.026,0.117,2.87,1.4,-3.23,0,6
15952.375,-0.984,-0.025,0.116,2.99,0.52,-3.23,0,6
15952.375,-0.981,-0.024,0.109,2.38,-0.89,-3.27,0,6
15952.39,-0.974,-0.018,0.104,0.67,-1.77,-3.02,0,6
15952.406,-0.972,-0.018,0.104,-1.34,-1.83,-2.69,0,6
15952.406,-0.97,-0.022,0.105,-2.62,-1.5,-2.11,0,6
15952.421,-0.966,-0.022,0.105,-3.11,-0.73,-1.65,0,6
15952.437,-0.965,-0.026,0.108,-2.75,-0.18,-1.28,0,6
15952.453,-0.966,-0.032,0.111,-1.25,0.67,-1.07,0,6
15952.453,-0.968,-0.028,0.11,0.0,1.83,-0.55,0,6
15952.453,-0.971,-0.02,0.113,-0.15,2.62,0.06,0,6
15952.468,-0.978,-0.021,0.108,-1.95,2.66,0.27,0,6
15952.484,-0.978,-0.017,0.109,-6.44,2.41,0.7,0,6
15952.484,-0.975,-0.018,0.11,-12.12,1.8,0.67,0,6
15952.5,-0.973,-0.027,0.115,-16.27,1.19,0.4,0,6
15952.515,-0.977,-0.035,0.116,-17.73,1.01,0.0,0,6
15952.515,-0.982,-0.041,0.12,-16.24,1.04,-0.4,0,6
15952.531,-0.986,-0.048,0.125,-12.3,0.95,-0.43,0,6
15952.546,-0.986,-0.047,0.119,-6.53,0.49,0.09,0,6
15952.546,-0.976,-0.043,0.112,-1.59,0.37,0.76,0,6
15952.562,-0.968,-0.043,0.106,1.46,0.95,0.82,0,6
15952.578,-0.965,-0.04,0.103,2.04,1.89,0.43,0,6
15952.578,-0.967,-0.036,0.106,0.76,2.72,-0.06,0,6
15952.593,-0.976,-0.038,0.111,-0.98,3.23,-0.46,0,6
15952.593,-0.977,-0.037,0.114,-3.11,3.05,-0.58,0,6
15952.609,-0.974,-0.036,0.115,-4.97,2.2,-0.79,0,6
15952.625,-0.969,-0.041,0.115,-6.23,1.43,-0.89,0,6
15952.64,-0.967,-0.049,0.116,-6.68,1.43,-1.01,0,6
15952.64,-0.967,-0.053,0.116,-5.98,2.11,-1.46,0,6
15952.656,-0.968,-0.047,0.115,-4.94,3.48,-1.59,0,6
15952.656,-0.963,-0.041,0.122,-3.02,5.34,-1.53,0,6
15952.671,-0.974,-0.046,0.13,-0.98,6.44,-2.14,0,6
15952.687,-0.976,-0.036,0.127,0.06,7.32,-2.23,0,6
15952.687,-0.979,-0.024,0.132,-0.49,7.75,-1.71,0,6
15952.703,-0.98,-0.03,0.13,-2.11,6.59,-1.46,0,6
15952.718,-0.983,-0.026,0.13,-5.07,5.07,-1.34,0,6
15952.718,-0.981,-0.033,0.135,-7.2,3.11,-1.31,0,6
15952.734,-0.977,-0.04,0.14,-7.9,1.19,-0.79,0,6
15952.75,-0.976,-0.044,0.141,-6.74,-0.31,-0.46,0,6
15952.75,-0.978,-0.049,0.137,-4.55,-1.68,-0.34,0,6
15952.765,-0.978,-0.052,0.128,-2.08,-3.14,-0.18,0,6
15952.765,-0.982,-0.06,0.115,0.24,-4.46,-0.24,0,6
15952.781,-0.979,-0.066,0.109,2.26,-5.46,-0.37,0,6
15952.796,-0.973,-0.064,0.095,3.72,-5.55,-0.85,0,6
15952.796,-0.971,-0.056,0.086,3.51,-4.27,-1.59,0,6
15952.812,-0.975,-0.054,0.083,1.95,-3.05,-2.62,0,6
15952.828,-0.982,-0.049,0.086,0.43,-2.14,-3.85,0,6
15952.828,-0.989,-0.042,0.091,-0.58,-1.92,-4.3,0,6
15952.843,-0.994,-0.036,0.09,-1.46,-2.35,-3.69,0,6
15952.843,-0.992,-0.038,0.089,-1.98,-2.99,-2.08,0,6
15952.859,-0.988,-0.039,0.086,-1.83,-3.57,-0.31,0,6
15952.875,-0.985,-0.045,0.083,-1.31,-4.0,0.64,0,6
15952.875,-0.984,-0.054,0.083,-0.27,-4.06,0.95,0,6
15952.89,-0.986,-0.064,0.075,0.85,-4.12,0.95,0,6
15952.906,-0.986,-0.059,0.068,1.16,-3.94,0.67,0,6
15952.906,-0.981,-0.061,0.064,-0.21,-3.08,-0.21,0,6
15952.921,-0.977,-0.07,0.061,-0.58,-1.89,-0.58,0,6
15952.937,-0.973,-0.063,0.055,-1.53,-0.24,-1.25,0,6
15952.937,-0.971,-0.052,0.054,-3.02,1.86,-1.92,0,6
15952.953,-0.976,-0.042,0.065,-4.61,3.75,-2.23,0,6
15952.953,-0.983,-0.041,0.072,-5.83,5.43,-2.29,0,6
15952.968,-0.984,-0.041,0.078,-6.53,6.65,-1.92,0,6
15952.984,-0.984,-0.038,0.084,-6.93,7.35,-1.16,0,6
15952.984,-0.984,-0.049,0.084,-6.65,7.35,-0.58,0,6
15953.0,-0.981,-0.06,0.088,-5.71,7.2,-0.03,0,6
15953.015,-0.978,-0.071,0.094,-4.24,7.17,-0.03,0,6
15953.015,-0.973,-0.079,0.097,-2.35,6.47,-0.67,0,6
