timestamp,ax,ay,az,gx,gy,gz,orient_label,motion_label
15991.515,-0.981,-0.139,0.042,-5.86,-0.24,-0.27,0,6
15991.515,-0.971,-0.139,0.044,-0.15,-0.67,-1.56,0,6
15991.531,-0.97,-0.146,0.044,6.16,-0.24,-2.44,0,6
15991.546,-0.969,-0.136,0.038,12.51,0.76,-3.14,0,6
15991.546,-0.974,-0.113,0.026,17.4,1.92,-4.27,0,6
15991.562,-0.987,-0.079,0.013,18.46,3.05,-4.73,0,6
15991.578,-0.995,-0.051,0.006,13.46,2.87,-4.06,0,6
15991.578,-0.994,-0.044,0.01,4.3,1.86,-2.81,0,6
15991.593,-0.991,-0.052,0.016,-5.86,1.16,-1.1,0,6
15991.609,-0.983,-0.077,0.035,-14.01,0.73,0.18,0,6
15991.609,-0.977,-0.1,0.056,-16.66,0.37,0.43,0,6
15991.625,-0.981,-0.113,0.067,-13.79,0.55,0.7,0,6
15991.625,-0.986,-0.118,0.069,-8.24,0.34,1.01,0,6
15991.64,-0.976,-0.106,0.061,-3.02,-1.25,0.52,0,6
15991.656,-0.974,-0.095,0.053,-0.09,-2.81,-0.98,0,6
15991.656,-0.979,-0.09,0.036,0.34,-2.96,-1.53,0,6
15991.671,-0.979,-0.073,0.024,-1.92,-2.5,-1.1,0,6
15991.687,-0.973,-0.08,0.028,-6.2,-0.52,-1.46,0,6
15991.703,-0.977,-0.089,0.036,-5.43,0.82,-1.07,0,6
15991.718,-0.978,-0.087,0.045,-3.97,1.4,-0.43,0,6
15991.718,-0.976,-0.093,0.047,-2.23,0.79,-0.82,0,6
15991.734,-0.979,-0.097,0.049,-0.73,0.4,-1.13,0,6
15991.734,-0.982,-0.099,0.051,1.62,0.52,-1.37,0,6
15991.75,-0.984,-0.096,0.045,4.82,0.58,-1.59,0,6
15991.765,-0.988,-0.09,0.04,7.29,0.15,-1.65,0,6
15991.765,-0.985,-0.085,0.033,8.39,-0.92,-1.46,0,6
15991.781,-0.98,-0.071,0.022,7.69,-1.65,-1.07,0,6
15991.796,-0.978,-0.057,0.015,4.61,-1.43,-0.37,0,6
15991.796,-0.976,-0.061,0.017,-0.06,-0.76,0.61,0,6
15991.812,-0.976,-0.08,0.028,-4.09,-0.09,1.43,0,6
15991.828,-0.975,-0.091,0.042,-5.49,0.61,1.19,0,6
15991.828,-0.984,-0.101,0.053,-3.91,0.58,0.7,0,6
15991.843,-0.988,-0.106,0.057,-1.16,-0.09,0.82,0,6
15991.859,-0.98,-0.093,0.042,0.73,-1.86,0.24,0,6
15991.875,-0.98,-0.097,0.037,0.12,-1.92,0.21,0,6
15991.875,-0.973,-0.097,0.036,-0.24,-1.4,0.34,0,6
15991.89,-0.974,-0.099,0.036,0.27,-0.61,0.37,0,6
15991.906,-0.974,-0.105,0.037,1.1,-0.09,0.09,0,6
15991.921,-0.978,-0.099,0.042,1.31,0.46,-0.52,0,6
15991.921,-0.989,-0.098,0.044,1.68,0.24,-1.25,0,6
15991.937,-0.988,-0.101,0.046,2.35,-0.82,-1.28,0,6
15991.937,-0.982,-0.098,0.048,2.78,-1.56,-0.82,0,6
15991.953,-0.98,-0.108,0.05,3.23,-1.86,-0.89,0,6
15991.968,-0.976,-0.119,0.054,4.06,-1.83,-1.07,0,6
15991.968,-0.97,-0.122,0.06,5.62,-1.74,-1.53,0,6
15991.984,-0.968,-0.123,0.068,7.63,-1.68,-2.47,0,6
15992.0,-0.971,-0.134,0.081,9.7,-1.62,-3.51,0,6
15992.0,-0.968,-0.146,0.094,13.0,-1.98,-4.33,0,6
15992.015,-0.96,-0.151,0.105,17.67,-2.59,-5.74,0,6
15992.031,-0.964,-0.155,0.161,31.56,-3.3,-9.49,0,6
15992.046,-0.976,-0.159,0.183,41.54,-4.46,-11.38,0,6
15992.046,-0.98,-0.162,0.213,54.26,-6.47,-13.09,0,6
15992.062,-0.982,-0.175,0.243,70.77,-9.37,-14.62,0,6
15992.078,-0.974,-0.178,0.263,89.75,-12.63,-16.3,0,6
15992.078,-0.962,-0.189,0.276,110.87,-15.44,-17.64,0,6
15992.093,-0.949,-0.177,0.285,130.83,-18.16,-19.78,0,6
15992.109,-0.923,-0.164,0.293,150.21,-19.62,-21.76,0,6
15992.109,-0.901,-0.147,0.304,168.86,-19.2,-23.5,0,6
15992.125,-0.882,-0.106,0.316,185.09,-17.4,-25.18,0,6
15992.125,-0.873,-0.051,0.327,198.77,-14.83,-27.1,0,6
15992.14,-0.884,0.007,0.35,209.05,-11.32,-29.21,0,6
15992.156,-0.909,0.073,0.369,216.32,-7.97,-30.64,0,6
15992.171,-0.945,0.145,0.386,221.47,-5.4,-30.49,0,6
15992.171,-0.983,0.212,0.401,224.89,-3.81,-27.34,0,6
15992.187,-1.024,0.247,0.395,227.48,-2.47,-20.39,0,6
15992.203,-1.104,0.29,0.363,224.49,-2.5,-1.1,0,6
15992.218,-1.125,0.304,0.343,218.82,-6.68,8.85,0,6
15992.218,-1.15,0.314,0.321,210.49,-12.3,19.59,0,6
15992.234,-1.168,0.311,0.28,186.19,-23.68,43.79,0,6
15992.25,-1.165,0.335,0.251,171.0,-29.42,56.22,0,6
15992.25,-1.146,0.354,0.234,153.08,-35.4,66.19,0,6
15992.265,-1.13,0.333,0.201,133.76,-40.41,74.19,0,6
15992.265,-1.112,0.311,0.183,115.15,-44.04,80.81,0,6
15992.281,-1.103,0.294,0.177,98.27,-46.69,86.25,0,6
15992.296,-1.088,0.267,0.166,83.5,-48.43,90.37,0,6
15992.296,-1.076,0.248,0.156,69.55,-48.98,92.9,0,6
15992.312,-1.068,0.23,0.151,57.77,-48.59,94.18,0,6
15992.328,-1.063,0.214,0.149,48.59,-47.06,94.85,0,6
15992.328,-1.062,0.219,0.142,42.73,-43.89,95.92,0,6
15992.343,-1.061,0.235,0.133,40.93,-39.16,98.12,0,6
15992.359,-1.061,0.237,0.132,41.75,-34.03,100.5,0,6
15992.359,-1.059,0.239,0.127,43.64,-28.99,102.36,0,6
15992.375,-1.056,0.244,0.123,45.53,-24.38,103.52,0,6
15992.39,-1.046,0.247,0.115,46.66,-20.75,103.95,0,6
15992.39,-1.029,0.254,0.11,46.69,-17.79,103.67,0,6
15992.406,-1.007,0.271,0.113,45.32,-14.74,103.31,0,6
15992.406,-0.99,0.299,0.121,42.36,-11.17,102.91,0,6
15992.421,-0.985,0.328,0.129,37.51,-7.45,102.51,0,6
15992.437,-0.985,0.346,0.136,31.77,-4.76,102.85,0,6
15992.437,-0.984,0.355,0.145,25.42,-3.42,104.07,0,6
15992.453,-0.982,0.353,0.153,19.71,-3.11,105.99,0,6
15992.468,-0.98,0.342,0.156,15.59,-3.3,108.74,0,6
15992.468,-0.976,0.34,0.152,13.18,-4.0,111.64,0,6
15992.484,-0.974,0.339,0.143,12.24,-5.07,114.23,0,6
15992.484,-0.98,0.333,0.137,11.75,-5.65,116.25,0,6
15992.5,-0.991,0.327,0.143,10.56,-6.71,117.62,0,6
15992.515,-0.996,0.313,0.149,9.16,-8.88,118.17,0,6
15992.531,-0.997,0.308,0.149,8.33,-11.81,117.01,0,6
15992.531,-0.99,0.303,0.148,7.97,-14.95,115.05,0,6
15992.546,-0.974,0.315,0.148,6.2,-17.55,112.64,0,6
15992.546,-0.948,0.335,0.155,2.53,-18.77,109.65,0,6
15992.562,-0.917,0.348,0.162,-1.77,-19.07,106.17,0,6
15992.578,-0.878,0.362,0.172,-5.71,-18.83,103.61,0,6
15992.578,-0.846,0.376,0.19,-8.18,-18.46,101.96,0,6
15992.593,-0.819,0.392,0.208,-8.42,-18.71,100.89,0,6
15992.609,-0.794,0.416,0.23,-7.02,-19.23,101.11,0,6
15992.609,-0.768,0.447,0.253,-6.29,-19.84,102.05,0,6
15992.625,-0.746,0.467,0.277,-7.32,-21.42,102.27,0,6
15992.625,-0.729,0.485,0.302,-9.86,-24.05,101.69,0,6
15992.64,-0.71,0.503,0.31,-12.48,-28.2,101.26,0,6
15992.656,-0.686,0.512,0.309,-15.35,-33.97,101.63,0,6
15992.656,-0.666,0.535,0.297,-21.0,-41.63,101.84,0,6
15992.671,-0.637,0.558,0.278,-30.95,-50.75,101.6,0,6
15992.687,-0.611,0.591,0.27,-45.05,-58.57,101.78,0,6
15992.703,-0.568,0.628,0.284,-78.89,-63.02,106.81,0,6
15992.718,-0.581,0.617,0.31,-96.1,-61.92,110.57,0,6
15992.718,-0.596,0.602,0.336,-111.27,-62.41,113.32,0,6
15992.734,-0.602,0.611,0.358,-126.26,-65.58,113.56,0,6
15992.75,-0.611,0.624,0.372,-142.4,-72.88,110.63,0,6
15992.75,-0.589,0.584,0.377,-157.02,-82.19,106.72,0,6
15992.765,-0.572,0.537,0.385,-165.84,-91.25,102.79,0,6
15992.781,-0.534,0.487,0.405,-164.74,-98.24,101.44,0,6
15992.781,-0.481,0.437,0.423,-154.36,-101.44,103.61,0,6
15992.796,-0.43,0.417,0.429,-139.99,-101.2,104.98,0,6
15992.812,-0.383,0.416,0.423,-125.71,-97.87,102.27,0,6
15992.812,-0.356,0.41,0.422,-114.08,-91.65,95.8,0,6
15992.828,-0.344,0.424,0.422,-105.72,-83.13,87.28,0,6
15992.828,-0.348,0.474,0.427,-104.04,-73.37,79.2,0,6
15992.843,-0.359,0.502,0.437,-109.13,-65.4,73.09,0,6
15992.859,-0.37,0.515,0.476,-117.07,-58.32,68.88,0,6
15992.859,-0.381,0.514,0.528,-122.78,-51.18,66.23,0,6
15992.875,-0.387,0.484,0.591,-122.84,-45.84,64.49,0,6
15992.89,-0.387,0.472,0.646,-116.21,-42.66,63.05,0,6
15992.89,-0.395,0.445,0.678,-102.82,-40.89,60.7,0,6
15992.906,-0.397,0.404,0.69,-86.37,-41.17,56.15,0,6
15992.906,-0.382,0.398,0.687,-69.25,-40.13,49.93,0,6
15992.921,-0.385,0.438,0.677,-55.09,-35.28,41.17,0,6
15992.937,-0.38,0.469,0.673,-48.52,-29.79,31.68,0,6
15992.937,-0.386,0.468,0.675,-47.64,-24.66,23.8,0,6
15992.953,-0.403,0.483,0.678,-49.32,-19.44,18.13,0,6
15992.968,-0.394,0.5,0.693,-54.75,-16.02,14.07,0,6
15992.968,-0.379,0.516,0.709,-63.08,-16.05,9.06,0,6
15992.984,-0.377,0.503,0.726,-66.96,-16.51,4.61,0,6
15992.984,-0.377,0.478,0.752,-65.77,-17.21,2.72,0,6
15993.0,-0.376,0.471,0.765,-60.37,-18.16,3.85,0,6
15993.015,-0.372,0.467,0.764,-52.03,-18.65,6.99,0,6
15993.015,-0.371,0.462,0.758,-45.44,-17.73,10.07,0,6
15993.031,-0.376,0.458,0.761,-43.61,-15.63,13.03,0,6
15993.046,-0.376,0.453,0.774,-44.07,-11.81,14.56,0,6
15993.046,-0.374,0.447,0.797,-46.69,-6.74,14.77,0,6
15993.062,-0.375,0.446,0.825,-50.23,-1.92,14.28,0,6
15993.078,-0.375,0.433,0.847,-50.94,2.01,13.03,0,6
15993.078,-0.39,0.419,0.866,-47.7,5.07,10.32,0,6
15993.093,-0.406,0.404,0.883,-41.81,6.56,7.87,0,6
15993.109,-0.412,0.409,0.894,-33.45,7.32,5.43,0,6
15993.109,-0.422,0.419,0.902,-23.74,7.14,3.3,0,6
15993.125,-0.419,0.432,0.903,-14.25,6.13,2.81,0,6
15993.125,-0.402,0.45,0.896,-6.65,4.7,3.6,0,6
15993.14,-0.39,0.465,0.885,-1.89,2.96,4.76,0,6
15993.156,-0.377,0.484,0.866,0.52,2.04,6.04,0,6
15993.171,-0.37,0.495,0.843,0.82,1.71,7.02,0,6
15993.171,-0.363,0.5,0.824,-0.09,2.32,8.61,0,6
15993.187,-0.355,0.51,0.814,-2.29,4.61,10.74,0,6
15993.187,-0.347,0.515,0.823,-5.31,7.9,13.31,0,6
15993.203,-0.342,0.507,0.841,-8.76,10.86,15.93,0,6
15993.218,-0.338,0.504,0.865,-13.67,11.54,17.52,0,6
15993.218,-0.331,0.501,0.882,-13.67,9.43,17.24,0,6
15993.234,-0.326,0.49,0.891,-12.45,6.62,17.21,0,6
15993.25,-0.315,0.477,0.893,-10.5,4.49,17.49,0,6
15993.25,-0.278,0.476,0.896,-8.67,3.23,16.85,0,6
15993.265,-0.269,0.477,0.891,-6.65,2.41,15.56,0,6
15993.265,-0.263,0.48,0.885,-5.28,2.04,14.19,0,6
15993.281,-0.26,0.49,0.877,-4.64,1.77,13.06,0,6
15993.296,-0.262,0.488,0.862,-4.06,1.07,12.79,0,6
15993.312,-0.263,0.488,0.845,-3.97,0.37,13.21,0,6
15993.312,-0.262,0.495,0.834,-4.91,0.52,13.79,0,6
15993.328,-0.266,0.482,0.829,-6.53,0.89,14.07,0,6
15993.328,-0.264,0.47,0.835,-8.0,0.85,14.16,0,6
15993.343,-0.261,0.472,0.843,-8.73,1.25,13.34,0,6
15993.359,-0.261,0.458,0.846,-8.58,0.79,11.9,0,6
15993.359,-0.256,0.436,0.845,-7.02,-0.21,10.68,0,6
15993.375,-0.245,0.423,0.838,-4.3,-1.37,9.46,0,6
15993.39,-0.233,0.417,0.824,-1.98,-2.62,7.54,0,6
15993.39,-0.232,0.411,0.807,-1.22,-3.33,4.73,0,6
15993.406,-0.231,0.412,0.794,-2.23,-3.17,1.5,0,6
15993.406,-0.242,0.412,0.784,-4.49,-2.01,-2.69,0,6
15993.421,-0.251,0.389,0.782,-8.42,-1.5,-4.09,0,6
15993.437,-0.244,0.391,0.791,-11.05,-0.12,-5.04,0,6
15993.437,-0.244,0.4,0.812,-10.32,1.22,-7.05,0,6
15993.453,-0.244,0.396,0.829,-7.14,2.04,-8.61,0,6
15993.468,-0.273,0.437,0.858,-4.49,1.22,-9.43,0,6
15993.468,-0.284,0.48,0.888,-3.97,-2.66,-8.48,0,6
15993.484,-0.285,0.501,0.913,-5.25,-8.39,-6.87,0,6
15993.5,-0.294,0.502,0.917,-7.39,-14.56,-4.39,0,6
15993.5,-0.283,0.486,0.901,-9.43,-20.26,0.18,0,6
15993.515,-0.186,0.45,0.864,-11.14,-24.05,4.97,0,6
15993.515,-0.253,0.361,0.865,-6.23,-21.49,1.95,0,6
15993.531,-0.334,0.502,0.987,-15.59,-26.18,-1.53,0,6
15993.546,-0.248,0.534,1.018,-24.29,-38.24,-1.43,0,6
15993.562,-0.269,0.479,0.959,-24.81,-44.53,-5.13,0,6
15993.562,-0.236,0.488,0.924,-27.19,-46.75,-8.45,0,6
15993.578,-0.185,0.491,0.893,-19.04,-41.51,-9.95,0,6
15993.578,-0.176,0.506,0.882,-3.63,-29.15,-11.72,0,6
15993.593,-0.187,0.532,0.908,9.98,-16.97,-12.42,0,6
15993.609,-0.196,0.559,0.966,21.21,-9.34,-12.48,0,6
15993.609,-0.201,0.584,0.999,29.94,-9.16,-12.42,0,6
15993.625,-0.179,0.578,0.979,36.71,-14.62,-11.08,0,6
15993.625,-0.154,0.587,0.92,41.17,-21.33,-8.67,0,6
15993.64,-0.134,0.611,0.856,38.36,-26.43,-3.94,0,6
15993.656,-0.107,0.694,0.861,27.38,-30.34,4.12,0,6
15993.671,-0.055,0.78,0.778,28.96,-27.99,27.86,0,6
15993.671,-0.051,0.689,0.704,32.23,-13.15,53.83,0,6
15993.687,-0.001,0.672,0.742,9.58,-6.59,67.29,0,6
15993.687,-0.009,0.61,0.75,-6.81,0.31,75.87,0,6
15993.703,-0.01,0.499,0.744,-13.21,7.9,79.84,0,6
15993.718,-0.016,0.418,0.752,-17.21,13.52,76.48,0,6
15993.718,-0.043,0.379,0.761,-16.82,17.46,68.15,0,6
15993.734,-0.048,0.348,0.773,-12.91,19.71,57.71,0,6
15993.734,-0.053,0.326,0.774,-7.14,22.49,47.09,0,6
15993.75,-0.072,0.33,0.758,-0.37,27.56,38.48,0,6
15993.765,-0.089,0.353,0.748,4.91,33.88,33.23,0,6
15993.781,-0.109,0.371,0.755,6.68,40.59,30.0,0,6
15993.781,-0.141,0.378,0.765,5.37,46.51,28.26,0,6
15993.796,-0.17,0.39,0.78,0.82,49.81,27.41,0,6
15993.796,-0.184,0.387,0.793,-6.99,50.33,25.76,0,6
15993.812,-0.194,0.387,0.814,-16.88,49.71,22.71,0,6
15993.828,-0.209,0.382,0.835,-26.52,48.71,18.74,0,6
15993.828,-0.239,0.379,0.861,-33.11,46.75,15.35,0,6
15993.843,-0.254,0.383,0.896,-35.71,43.09,14.28,0,6
15993.859,-0.261,0.383,0.909,-35.37,38.03,13.43,0,6
15993.859,-0.266,0.373,0.901,-34.76,32.65,12.12,0,6
15993.875,-0.271,0.365,0.881,-34.27,27.68,9.49,0,6
15993.875,-0.268,0.357,0.862,-33.6,23.38,5.86,0,6
15993.89,-0.265,0.339,0.822,-33.23,21.15,1.74,0,6
15993.906,-0.264,0.336,0.773,-33.94,23.26,-1.86,0,6
15993.906,-0.262,0.32,0.755,-33.05,29.48,-5.28,0,6
15993.921,-0.248,0.317,0.73,-36.01,36.65,-12.02,0,6
15993.937,-0.314,0.344,0.73,-42.51,47.03,-21.27,0,6
15993.937,-0.492,0.427,0.948,-48.25,51.94,-24.08,0,6
15993.953,-0.687,0.571,1.226,-45.99,34.3,-15.75,0,6
15993.968,-0.463,0.46,1.194,-42.66,-2.96,3.39,0,6
15993.968,-0.318,0.444,1.002,-60.0,-30.73,0.67,0,6
15993.984,-0.364,0.431,0.951,-68.97,-30.43,-4.18,0,6
15994.0,-0.313,0.323,0.939,-62.01,-21.82,0.37,0,6
15994.0,-0.285,0.273,0.929,-47.49,-7.48,4.03,0,6
15994.015,-0.301,0.252,0.96,-28.87,10.86,2.81,0,6
15994.015,-0.366,0.234,1.002,-10.99,26.09,-1.01,0,6
15994.031,-0.402,0.198,1.035,1.46,33.94,-2.29,0,6
15994.046,-0.403,0.209,1.071,12.24,31.5,-6.78,0,6
15994.062,-0.444,0.188,1.06,25.3,20.51,-13.37,0,6
15994.062,-0.508,0.239,1.087,38.7,3.39,-15.38,0,6
15994.078,-0.407,0.203,1.092,51.18,-21.55,-12.63,0,6
15994.078,-0.386,0.189,0.899,43.64,-48.22,-25.27,0,6
15994.093,-0.41,0.321,0.939,28.99,-60.7,-35.28,0,6
15994.109,-0.317,0.26,0.891,22.86,-70.77,-34.61,0,6
15994.109,-0.287,0.267,0.827,7.51,-74.43,-39.8,0,6
15994.125,-0.225,0.26,0.838,-9.49,-72.27,-46.72,0,6
15994.125,-0.216,0.242,0.843,-17.55,-67.54,-54.66,0,6
15994.14,-0.196,0.224,0.851,-19.96,-63.3,-61.59,0,6
15994.156,-0.154,0.246,0.861,-19.26,-61.49,-68.3,0,6
15994.156,-0.134,0.27,0.832,-13.98,-59.51,-71.96,0,6
15994.171,-0.108,0.287,0.795,-6.53,-55.24,-69.19,0,6
15994.187,-0.08,0.309,0.769,1.53,-47.67,-60.52,0,6
15994.187,-0.058,0.324,0.735,12.33,-27.99,-42.36,0,6
15994.203,-0.048,0.326,0.72,11.66,-19.71,-36.26,0,6
15994.218,-0.033,0.344,0.712,13.73,-1.62,-28.53,0,6
15994.234,-0.032,0.344,0.69,12.3,6.38,-27.44,0,6
15994.25,-0.041,0.346,0.684,12.91,14.65,-28.6,0,6
15994.25,-0.1,0.347,0.722,14.56,24.72,-31.22,0,6
15994.265,-0.233,0.519,0.887,11.78,29.02,-29.24,0,6
15994.265,-0.259,0.631,1.015,1.43,20.63,-17.7,0,6
15994.281,-0.342,0.638,1.11,-5.19,6.74,-7.14,0,6
15994.296,-0.35,0.621,1.137,-9.37,-10.01,10.13,0,6
15994.296,-0.291,0.608,1.13,-9.03,-21.64,24.45,0,6
15994.312,-0.249,0.549,1.095,-4.27,-26.49,31.31,0,6
15994.328,-0.218,0.485,1.077,4.55,-26.52,33.33,0,6
15994.328,-0.188,0.435,1.036,16.48,-23.96,32.01,0,6
15994.343,-0.167,0.417,0.994,27.28,-19.75,28.75,0,6
15994.359,-0.162,0.416,0.965,35.86,-14.77,23.96,0,6
15994.359,-0.165,0.399,0.933,41.11,-12.09,18.49,0,6
15994.375,-0.172,0.378,0.906,41.72,-12.57,13.52,0,6
15994.39,-0.161,0.428,0.882,34.18,-15.59,8.97,0,6
15994.406,-0.175,0.468,0.879,23.65,-19.14,7.87,0,6
15994.421,-0.094,0.413,0.809,10.62,-21.73,7.75,0,6
15994.421,-0.107,0.314,0.809,-2.29,-18.1,1.28,0,6
15994.437,-0.119,0.372,0.875,-14.34,-15.72,-2.01,0,6
15994.437,-0.107,0.377,0.873,-10.47,-12.85,1.19,0,6
15994.453,-0.088,0.344,0.863,-4.97,-9.25,2.9,0,6
15994.468,-0.087,0.339,0.875,-1.43,-5.83,0.92,0,6
15994.468,-0.111,0.355,0.888,4.46,-3.11,-1.71,0,6
15994.484,-0.113,0.366,0.89,9.22,-2.23,-3.27,0,6
15994.5,-0.117,0.38,0.883,10.68,-2.75,-4.46,0,6
15994.5,-0.127,0.385,0.878,9.67,-3.3,-5.1,0,6
15994.515,-0.132,0.393,0.879,6.96,-3.54,-5.34,0,6
15994.515,-0.132,0.399,0.874,3.33,-4.0,-4.94,0,6
15994.531,-0.132,0.399,0.869,-0.46,-4.79,-4.46,0,6
15994.546,-0.132,0.394,0.874,-2.87,-5.28,-4.15,0,6
15994.562,-0.128,0.38,0.865,-4.76,-4.03,-4.33,0,6
15994.578,-0.127,0.378,0.861,-4.82,-3.51,-4.27,0,6
15994.578,-0.126,0.374,0.855,-4.24,-2.99,-4.3,0,6
15994.593,-0.124,0.362,0.846,-3.57,-2.11,-4.52,0,6
15994.609,-0.127,0.357,0.838,-2.84,-1.04,-5.25,0,6
15994.609,-0.123,0.35,0.834,-1.4,0.06,-5.83,0,6
15994.625,-0.121,0.344,0.834,0.61,1.83,-6.35,0,6
15994.625,-0.127,0.344,0.838,3.81,4.73,-6.62,0,6
15994.64,-0.14,0.348,0.837,8.91,8.64,-5.89,0,6
15994.656,-0.183,0.392,0.859,11.81,12.05,-4.46,0,6
15994.656,-0.204,0.471,0.928,4.61,10.44,-2.9,0,6
15994.671,-0.187,0.492,0.961,-6.01,5.28,-0.58,0,6
15994.687,-0.141,0.405,0.921,-9.98,4.09,2.17,0,6
15994.703,-0.277,0.392,0.985,-9.83,6.38,0.67,0,6
15994.703,-0.193,0.535,1.054,-22.98,-2.9,2.87,0,6
15994.703,-0.177,0.427,1.013,-18.04,-6.87,4.03,0,6
15994.718,-0.2,0.398,0.999,-13.12,-5.65,4.03,0,6
15994.734,-0.157,0.413,0.998,-8.03,-4.06,5.19,0,6
15994.75,-0.173,0.389,0.976,2.96,-0.73,4.43,0,6
15994.75,-0.176,0.383,0.965,11.66,1.5,4.18,0,6
15994.765,-0.173,0.393,0.948,18.1,1.5,3.08,0,6
15994.781,-0.183,0.39,0.929,22.46,0.4,1.89,0,6
15994.781,-0.186,0.404,0.91,22.46,-2.23,1.25,0,6
15994.796,-0.177,0.416,0.898,19.47,-5.01,1.1,0,6
15994.796,-0.177,0.427,0.894,15.05,-6.78,1.46,0,6
15994.812,-0.205,0.453,0.924,8.55,-8.94,3.14,0,6
15994.828,-0.111,0.481,0.899,-0.64,-13.0,7.6,0,6
15994.828,-0.122,0.326,0.845,5.49,-8.73,8.97,0,6
15994.843,-0.151,0.387,0.881,3.54,-5.22,8.58,0,6
15994.859,-0.111,0.414,0.899,1.98,-5.92,8.94,0,6
15994.859,-0.136,0.389,0.886,4.52,-6.2,8.39,0,6
15994.875,-0.109,0.381,0.869,2.41,-6.78,8.51,0,6
15994.875,-0.096,0.382,0.866,-0.61,-6.78,6.44,0,6
15994.89,-0.108,0.378,0.877,-1.4,-4.76,4.64,0,6
15994.906,-0.103,0.374,0.873,-1.43,-3.45,3.42,0,6
15994.906,-0.099,0.371,0.868,-0.7,-2.01,2.2,0,6
15994.921,-0.098,0.376,0.868,0.7,0.03,0.89,0,6
15994.937,-0.102,0.386,0.869,2.35,2.69,-0.4,0,6
15994.937,-0.113,0.395,0.871,2.96,4.27,-1.4,0,6
15994.953,-0.119,0.401,0.871,2.04,4.49,-1.53,0,6
15994.968,-0.12,0.407,0.869,0.61,4.52,-1.19,0,6
15994.968,-0.122,0.403,0.874,-0.85,5.43,-1.22,0,6
15994.984,-0.136,0.403,0.886,-1.8,6.59,-1.46,0,6
15995.0,-0.155,0.403,0.9,-1.83,6.32,-1.4,0,6
15995.0,-0.162,0.407,0.922,-1.46,4.21,-1.25,0,6
15995.015,-0.171,0.409,0.926,-1.28,0.82,-1.22,0,6
15995.015,-0.168,0.411,0.917,-1.19,-3.33,-1.1,0,6
15995.031,-0.159,0.411,0.909,-0.82,-6.65,-0.98,0,6
15995.046,-0.151,0.412,0.9,-0.73,-8.18,-0.85,0,6
15995.046,-0.144,0.408,0.892,-0.67,-8.21,-0.49,0,6
15995.062,-0.139,0.402,0.885,-0.31,-7.08,0.03,0,6
15995.078,-0.131,0.4,0.878,0.03,-5.62,0.24,0,6
15995.078,-0.131,0.395,0.876,0.4,-4.06,-0.24,0,6
15995.093,-0.13,0.394,0.873,0.73,-2.72,-1.1,0,6
15995.109,-0.13,0.392,0.868,1.37,-1.71,-1.74,0,6
15995.109,-0.135,0.39,0.869,2.14,-0.64,-2.26,0,6
15995.125,-0.14,0.389,0.87,2.99,-0.09,-2.32,0,6
15995.125,-0.144,0.396,0.872,3.08,0.27,-2.35,0,6
15995.14,-0.153,0.412,0.876,1.62,0.4,-2.5,0,6
15995.156,-0.159,0.42,0.883,-0.95,-0.4,-2.44,0,6
15995.156,-0.167,0.425,0.892,-3.08,-1.59,-1.74,0,6
15995.171,-0.171,0.431,0.898,-4.61,-3.42,-0.52,0,6
15995.187,-0.163,0.43,0.9,-6.74,-6.87,1.01,0,6
15995.187,-0.153,0.42,0.892,-6.07,-6.78,1.59,0,6
15995.203,-0.146,0.405,0.882,-4.0,-5.52,1.89,0,6
15995.218,-0.127,0.374,0.854,-1.77,-3.48,1.86,0,6
15995.218,-0.116,0.365,0.841,0.0,-1.22,1.01,0,6
15995.234,-0.111,0.358,0.83,1.71,1.19,-0.55,0,6
15995.25,-0.089,0.329,0.817,7.26,5.58,-3.57,0,6
15995.265,-0.072,0.274,0.79,13.89,8.58,-6.26,0,6
15995.281,-0.064,0.204,0.758,22.95,12.39,-11.75,0,6
15995.281,-0.098,0.174,0.789,36.5,18.43,-18.46,0,6
15995.296,-0.181,0.311,0.965,40.01,17.82,-23.5,0,6
15995.296,-0.131,0.459,1.084,32.84,8.0,-20.72,0,6
15995.312,-0.338,0.581,1.199,26.52,0.0,-16.54,0,6
15995.328,-0.333,0.85,1.31,-5.28,-20.81,1.01,0,6
15995.343,-0.222,0.71,1.266,-14.37,-37.11,22.83,0,6
15995.343,-0.184,0.609,1.13,-21.91,-41.87,32.44,0,6
15995.359,-0.178,0.557,1.089,-20.75,-35.0,34.42,0,6
15995.359,-0.239,0.401,1.1,5.19,-27.99,27.44,0,6
15995.375,-0.305,0.336,1.068,39.74,-30.64,15.93,0,6
15995.39,-0.337,0.5,0.971,60.15,-40.96,4.85,0,6
15995.39,-0.252,0.534,0.916,55.27,-50.75,-4.91,0,6
15995.406,-0.272,0.588,0.982,31.74,-62.14,-9.61,0,6
15995.421,-0.177,0.56,0.789,14.53,-60.24,21.36,0,6
15995.437,-0.152,0.522,0.799,-1.25,-51.21,30.43,0,6
15995.437,-0.147,0.485,0.811,-9.61,-40.13,36.07,0,6
15995.453,-0.111,0.417,0.822,-10.96,-29.66,36.93,0,6
15995.468,-0.086,0.367,0.82,-6.93,-18.74,34.55,0,6
15995.468,-0.086,0.34,0.81,4.0,-6.35,30.09,0,6
15995.484,-0.084,0.327,0.821,18.34,6.07,24.96,0,6
15995.5,-0.098,0.345,0.85,32.93,15.72,18.43,0,6
15995.5,-0.11,0.373,0.874,46.36,21.06,10.5,0,6
15995.515,-0.101,0.413,0.907,53.99,21.03,1.65,0,6
15995.515,-0.096,0.463,0.932,56.7,16.85,-6.53,0,6
15995.531,-0.084,0.507,0.937,56.18,10.59,-12.27,0,6
15995.546,-0.059,0.564,0.931,49.62,2.99,-14.1,0,6
15995.546,-0.026,0.59,0.912,38.73,-3.39,-12.33,0,6
15995.562,0.007,0.596,0.9,25.7,-7.08,-7.84,0,6
15995.578,0.039,0.597,0.894,12.3,-8.15,-1.74,0,6
15995.593,0.079,0.522,0.878,-9.13,-8.55,8.12,0,6
15995.609,0.096,0.484,0.878,-14.74,-8.67,9.55,0,6
15995.609,0.109,0.459,0.869,-16.33,-8.15,8.85,0,6
15995.625,0.114,0.429,0.853,-15.32,-7.26,6.07,0,6
15995.64,0.112,0.408,0.832,-13.03,-6.53,1.86,0,6
15995.64,0.112,0.4,0.801,-9.28,-5.37,-2.38,0,6
15995.656,0.11,0.391,0.785,-3.81,-2.99,-6.01,0,6
15995.656,0.091,0.378,0.773,3.23,-0.34,-7.75,0,6
15995.671,0.078,0.39,0.778,10.59,3.08,-7.35,0,6
15995.687,0.057,0.428,0.806,18.25,8.24,-6.62,0,6
15995.687,0.014,0.505,0.869,23.16,14.01,-6.26,0,6
15995.703,-0.03,0.582,0.934,23.41,16.66,-5.07,0,6
15995.718,-0.071,0.641,0.989,20.81,16.17,-2.62,0,6
15995.718,-0.118,0.694,1.065,17.33,13.21,1.22,0,6
15995.734,-0.144,0.724,1.126,13.98,6.9,5.65,0,6
15995.75,-0.156,0.73,1.17,11.32,-2.2,10.9,0,6
15995.765,-0.108,0.724,1.221,12.67,-20.33,19.81,0,6
15995.765,-0.056,0.712,1.241,15.08,-27.16,21.82,0,6
15995.781,-0.006,0.7,1.269,17.7,-32.07,22.28,0,6
15995.796,0.049,0.691,1.286,20.87,-36.96,21.52,0,6
15995.812,0.103,0.687,1.301,25.79,-42.33,21.0,0,6
15995.812,0.153,0.692,1.315,32.9,-47.43,21.61,0,6
15995.828,0.193,0.705,1.319,40.71,-51.94,23.32,0,6
15995.828,0.221,0.732,1.308,47.21,-55.73,25.82,0,6
15995.843,0.237,0.762,1.288,49.5,-59.91,28.81,0,6
15995.859,0.246,0.806,1.27,46.48,-64.7,32.23,0,6
15995.859,0.252,0.847,1.242,38.7,-70.31,36.19,0,6
15995.875,0.249,0.866,1.207,26.28,-78.01,41.75,0,6
15995.875,0.252,0.866,1.162,12.36,-87.07,48.92,0,6
15995.89,0.258,0.852,1.118,-0.73,-95.8,57.1,0,6
15995.906,0.272,0.835,1.071,-12.24,-102.69,64.3,0,6
15995.906,0.275,0.802,1.029,-21.33,-107.03,70.28,0,6
15995.937,0.28,0.724,0.945,-31.8,-109.41,77.09,0,6
15995.953,0.274,0.686,0.892,-31.71,-109.2,77.55,0,6
15995.953,0.272,0.66,0.823,-28.69,-108.74,76.63,0,6
15995.968,0.28,0.644,0.745,-23.65,-107.64,75.11,0,6
15995.968,0.28,0.623,0.665,-17.3,-103.79,74.47,0,6
15995.984,0.284,0.582,0.589,-11.93,-96.96,76.39,0,6
15995.984,0.299,0.547,0.52,-7.84,-87.74,79.5,0,6
15996.0,0.33,0.499,0.457,-3.81,-77.18,83.01,0,6
15996.015,0.366,0.446,0.4,-0.95,-65.92,85.48,0,6
15996.015,0.391,0.398,0.348,0.09,-53.29,86.83,0,6
15996.031,0.419,0.344,0.302,-2.14,-40.38,86.79,0,6
15996.046,0.453,0.31,0.266,-9.28,-27.01,84.6,0,6
15996.046,0.481,0.305,0.238,-21.58,-10.8,79.17,0,6
15996.062,0.497,0.302,0.221,-39.52,7.75,69.43,0,6
15996.078,0.507,0.282,0.216,-61.46,26.09,56.22,0,6
15996.078,0.516,0.26,0.223,-83.19,43.79,41.29,0,6
15996.109,0.461,0.193,0.303,-112.61,82.09,11.51,0,6
15996.109,0.42,0.184,0.38,-116.18,100.8,-1.01,0,6
15996.125,0.344,0.175,0.469,-109.74,116.06,-11.32,0,6
15996.14,0.264,0.159,0.558,-91.62,126.19,-17.88,0,6
15996.14,0.213,0.131,0.641,-65.13,131.05,-20.23,0,6
15996.156,0.159,0.128,0.711,-34.18,129.06,-21.39,0,6
15996.156,0.116,0.146,0.775,26.34,105.99,-22.22,0,6
15996.171,0.083,0.2,0.817,46.36,87.8,-24.08,0,6
15996.187,0.066,0.266,0.819,59.27,70.41,-28.26,0,6
15996.187,0.036,0.345,0.802,66.81,54.57,-32.14,0,6
15996.203,-0.061,0.467,0.743,66.13,34.85,-34.76,0,6
15996.218,-0.09,0.494,0.732,58.69,14.53,-37.2,0,6
15996.218,-0.073,0.513,0.74,45.32,-2.96,-39.43,0,6
15996.234,-0.06,0.54,0.751,24.96,-17.18,-42.24,0,6
15996.25,-0.064,0.568,0.779,0.64,-28.26,-45.11,0,6
15996.25,-0.063,0.589,0.824,-24.29,-35.95,-44.92,0,6
15996.265,-0.071,0.629,0.891,-47.15,-41.38,-41.23,0,6
15996.281,-0.049,0.651,0.934,-66.1,-43.89,-32.96,0,6
15996.281,-0.024,0.64,0.973,-84.38,-39.64,-20.36,0,6
15996.296,0.002,0.623,1.017,-102.88,-31.5,-6.87,0,6
15996.296,0.021,0.586,1.095,-117.8,-18.77,3.02,0,6
15996.312,0.039,0.48,1.2,-124.45,-5.25,8.91,0,6
15996.328,0.073,0.389,1.263,-118.32,3.14,11.81,0,6
15996.328,0.088,0.323,1.269,-99.8,5.86,10.62,0,6
15996.343,0.078,0.265,1.251,-77.49,6.84,6.41,0,6
15996.359,0.052,0.223,1.215,-60.27,3.39,0.85,0,6
15996.359,0.044,0.196,1.139,-45.78,-6.13,-5.65,0,6
15996.375,0.046,0.207,1.022,-32.11,-16.3,-12.97,0,6
15996.39,0.066,0.244,0.913,-25.06,-23.29,-18.37,0,6
15996.39,0.117,0.315,0.862,-25.94,-21.33,-23.35,0,6
15996.406,0.117,0.334,0.84,-32.59,-12.27,-27.13,0,6
15996.406,0.107,0.327,0.864,-42.15,-1.19,-26.55,0,6
15996.421,0.111,0.304,0.902,-48.49,7.87,-21.64,0,6
15996.437,0.08,0.232,0.925,-49.01,10.96,-16.17,0,6
15996.437,0.055,0.162,0.954,-43.64,6.23,-13.95,0,6
15996.453,0.071,0.131,0.956,-32.2,-4.85,-15.29,0,6
15996.468,0.081,0.13,0.908,-19.75,-18.13,-19.32,0,6
15996.468,0.09,0.131,0.834,-10.77,-29.02,-23.93,0,6
15996.484,0.106,0.159,0.76,-6.87,-35.58,-27.5,0,6
15996.5,0.132,0.22,0.717,-10.32,-37.23,-29.45,0,6
15996.5,0.149,0.258,0.7,-20.39,-33.27,-29.66,0,6
15996.515,0.147,0.247,0.695,-30.61,-27.31,-27.47,0,6
15996.531,0.149,0.236,0.718,-36.29,-20.75,-23.04,0,6
15996.531,0.133,0.217,0.741,-36.56,-15.75,-18.34,0,6
15996.546,0.13,0.203,0.762,-33.66,-13.21,-14.47,0,6
15996.546,0.159,0.212,0.789,-32.11,-11.93,-11.32,0,6
15996.562,0.17,0.221,0.817,-34.97,-9.77,-9.13,0,6
15996.578,0.183,0.218,0.857,-43.06,-7.23,-7.42,0,6
15996.578,0.186,0.202,0.892,-53.5,-6.78,-5.71,0,6
15996.593,0.18,0.191,0.919,-62.14,-7.63,-4.36,0,6
15996.609,0.168,0.185,0.949,-67.42,-9.92,-3.33,0,6
15996.609,0.17,0.161,0.971,-68.54,-14.01,-2.14,0,6
15996.625,0.169,0.126,0.976,-64.61,-17.7,-0.67,0,6
15996.625,0.173,0.096,0.974,-56.86,-20.23,1.43,0,6
15996.64,0.179,0.076,0.967,-47.43,-20.97,2.72,0,6
15996.656,0.206,0.062,0.953,-37.63,-21.15,2.26,0,6
15996.656,0.224,0.064,0.943,-29.66,-19.56,1.65,0,6
15996.671,0.244,0.053,0.925,-23.35,-17.85,1.19,0,6
15996.687,0.282,0.034,0.914,-18.25,-16.91,0.89,0,6
15996.687,0.286,0.037,0.907,-15.26,-15.38,0.0,0,6
15996.703,0.282,0.042,0.9,-13.46,-14.95,-2.9,0,6
15996.718,0.285,0.036,0.893,-10.71,-15.53,-6.44,0,6
15996.718,0.276,0.056,0.89,-7.35,-15.5,-8.7,0,6
15996.734,0.267,0.087,0.88,-4.73,-15.35,-10.22,0,6
15996.734,0.269,0.101,0.876,-3.6,-15.2,-11.08,0,6
15996.75,0.251,0.09,0.866,-2.53,-14.37,-10.44,0,6
15996.765,0.254,0.082,0.851,-1.13,-14.22,-8.76,0,6
15996.781,0.282,0.083,0.839,-0.61,-13.76,-7.57,0,6
15996.781,0.276,0.094,0.824,-2.29,-11.96,-7.72,0,6
15996.796,0.27,0.107,0.821,-6.23,-9.61,-8.91,0,6
15996.796,0.267,0.13,0.838,-10.83,-6.9,-9.74,0,6
15996.812,0.266,0.141,0.849,-14.31,-4.43,-8.97,0,6
15996.828,0.248,0.128,0.862,-15.47,-2.47,-6.44,0,6
15996.828,0.228,0.102,0.865,-13.43,-2.23,-4.27,0,6
15996.843,0.257,0.085,0.86,-10.77,-4.0,-3.02,0,6
15996.859,0.282,0.094,0.854,-7.9,-5.22,-2.75,0,6
15996.859,0.276,0.097,0.853,-6.53,-4.55,-2.9,0,6
15996.875,0.252,0.098,0.854,-6.84,-3.54,-2.99,0,6
15996.875,0.274,0.094,0.865,-8.42,-2.96,-2.66,0,6
15996.89,0.269,0.093,0.873,-10.99,-2.29,-1.95,0,6
15996.906,0.263,0.086,0.881,-13.06,-1.16,-1.92,0,6
15996.906,0.285,0.086,0.892,-15.23,-0.27,-2.32,0,6
15996.921,0.282,0.091,0.912,-15.75,1.65,-3.23,0,6
15996.937,0.289,0.088,0.926,-14.53,3.2,-3.57,0,6
15996.953,0.295,0.085,0.944,-11.51,4.52,-2.69,0,6
15996.953,0.262,0.07,0.952,-6.78,5.71,-1.86,0,6
15996.968,0.264,0.057,0.953,-2.01,4.21,-1.77,0,6
15996.968,0.29,0.072,0.956,0.92,1.95,-2.04,0,6
15996.984,0.293,0.068,0.947,2.93,0.12,-2.69,0,6
15997.0,0.295,0.07,0.94,3.78,-1.22,-2.75,0,6
15997.0,0.286,0.069,0.934,3.63,-1.62,-2.93,0,6
15997.015,0.279,0.054,0.924,3.27,-1.86,-3.23,0,6
15997.015,0.277,0.066,0.924,2.9,-1.5,-3.51,0,6
15997.031,0.28,0.082,0.93,2.35,-0.03,-4.49,0,6
15997.046,0.29,0.102,0.946,0.52,2.5,-4.94,0,6
15997.046,0.296,0.125,0.969,-1.89,4.94,-4.12,0,6
15997.062,0.285,0.13,0.997,-3.05,6.53,-2.53,0,6
15997.078,0.262,0.114,1.022,-2.5,5.95,-0.49,0,6
15997.078,0.257,0.091,1.03,-1.04,2.59,0.85,0,6
15997.093,0.276,0.075,1.023,0.52,-1.68,1.71,0,6
15997.109,0.299,0.069,1.009,1.53,-5.28,1.59,0,6
15997.109,0.304,0.073,0.999,1.19,-6.01,0.12,0,6
15997.125,0.31,0.078,0.996,-0.92,-5.13,-1.77,0,6
15997.125,0.312,0.08,1.006,-3.66,-3.23,-2.59,0,6
15997.14,0.301,0.064,1.014,-2.11,-0.24,-1.89,0,6
15997.156,0.277,0.038,1.019,2.04,-0.67,-2.32,0,6
15997.156,0.277,0.042,1.014,4.09,-0.92,-3.75,0,6
15997.171,0.299,0.076,1.012,3.23,0.95,-4.91,0,6
15997.187,0.302,0.11,1.037,0.4,2.59,-4.88,0,6
15997.187,0.304,0.12,1.059,-3.11,3.48,-3.63,0,6
15997.203,0.281,0.096,1.073,-5.43,3.51,-1.77,0,6
15997.218,0.271,0.068,1.084,-6.04,1.77,0.34,0,6
15997.218,0.276,0.058,1.088,-5.01,-1.25,1.07,0,6
15997.234,0.282,0.052,1.08,-2.93,-4.97,0.67,0,6
15997.25,0.298,0.068,1.072,-0.82,-7.75,0.06,0,6
15997.25,0.294,0.067,1.058,0.76,-8.94,-0.4,0,6
15997.265,0.298,0.056,1.029,3.08,-10.32,0.52,0,6
15997.265,0.322,0.066,0.989,5.28,-10.04,1.92,0,6
15997.281,0.352,0.068,0.956,5.68,-7.57,2.81,0,6
15997.296,0.372,0.083,0.933,3.08,-2.9,3.36,0,6
15997.296,0.377,0.098,0.928,-1.74,3.36,3.57,0,6
15997.312,0.365,0.093,0.944,-7.84,10.5,3.66,0,6
15997.328,0.335,0.083,0.972,-13.25,17.0,3.81,0,6
15997.328,0.312,0.09,1.012,-18.52,21.27,4.58,0,6
15997.343,0.304,0.106,1.06,-24.81,25.09,5.86,0,6
15997.359,0.304,0.111,1.119,-32.9,30.3,7.45,0,6
15997.359,0.287,0.092,1.184,-39.22,35.98,9.06,0,6
15997.375,0.248,0.053,1.257,-40.28,39.95,11.23,0,6
15997.39,0.21,-0.003,1.318,-34.61,39.16,13.4,0,6
15997.39,0.202,-0.053,1.346,-22.98,33.45,14.28,0,6
15997.406,0.214,-0.084,1.349,-8.79,25.36,14.53,0,6
15997.406,0.201,-0.097,1.332,4.91,17.46,13.37,0,6
15997.421,0.166,-0.108,1.3,15.44,10.04,10.83,0,6
15997.437,0.153,-0.109,1.261,21.06,2.29,8.06,0,6
15997.453,0.137,-0.095,1.234,22.74,-5.25,5.04,0,6
15997.453,0.086,-0.107,1.186,24.32,-14.71,1.53,0,6
15997.468,0.033,-0.122,1.117,27.16,-26.55,-1.46,0,6
15997.468,-0.035,-0.128,1.035,31.92,-39.64,-4.0,0,6
15997.484,-0.058,-0.128,0.951,37.6,-54.32,-6.07,0,6
15997.484,0.004,-0.104,0.852,41.05,-71.05,-7.9,0,6
15997.5,0.111,-0.036,0.729,39.37,-87.13,-10.01,0,6
15997.515,0.21,0.076,0.648,29.36,-91.77,-12.3,0,6
15997.515,0.299,0.136,0.668,11.02,-81.06,-13.98,0,6
15997.531,0.317,0.091,0.712,-3.17,-65.49,-13.34,0,6
15997.546,0.312,-0.047,0.755,0.09,-52.4,-8.79,0,6
15997.546,0.324,-0.186,0.774,24.17,-44.56,-2.96,0,6
15997.562,0.39,-0.271,0.736,63.3,-42.82,-2.17,0,6
15997.578,0.459,-0.293,0.674,100.77,-41.44,-8.33,0,6
15997.578,0.481,-0.201,0.611,119.97,-36.16,-20.51,0,6
15997.593,0.518,-0.076,0.59,114.2,-27.99,-36.29,0,6
15997.609,0.593,0.114,0.615,90.55,-14.83,-57.71,0,6
15997.609,0.52,0.202,0.659,59.85,0.67,-79.32,0,6
15997.625,0.425,0.263,0.752,30.43,13.73,-89.51,0,6
15997.625,0.359,0.39,0.854,10.38,24.14,-87.53,0,6
15997.64,0.278,0.471,0.938,-2.23,29.27,-77.7,0,6
15997.656,0.255,0.514,1.024,-12.42,28.93,-64.79,0,6
15997.656,0.234,0.511,1.095,-17.37,26.15,-51.48,0,6
15997.671,0.206,0.455,1.133,-14.31,18.62,-42.09,0,6
15997.687,0.206,0.406,1.123,-3.42,2.96,-37.63,0,6
15997.687,0.195,0.386,1.064,12.85,-15.56,-36.13,0,6
15997.703,0.174,0.376,0.974,28.9,-31.95,-36.81,0,6
15997.718,0.171,0.37,0.852,42.48,-44.77,-36.93,0,6
15997.718,0.203,0.407,0.7,51.12,-51.18,-33.72,0,6
15997.734,0.228,0.5,0.537,48.19,-47.52,-26.89,0,6
15997.75,0.246,0.559,0.424,28.78,-36.23,-16.6,0,6
15997.75,0.292,0.559,0.385,-0.15,-19.93,-5.74,0,6
15997.765,0.336,0.532,0.432,-29.79,2.11,3.91,0,6
15997.765,0.334,0.469,0.538,-53.71,25.73,10.47,0,6
15997.781,0.325,0.378,0.667,-66.04,44.86,14.77,0,6
15997.796,0.304,0.315,0.8,-69.98,58.08,17.91,0,6
15997.796,0.284,0.272,0.911,-68.91,61.95,19.26,0,6
15997.812,0.275,0.249,0.979,-66.74,56.64,18.77,0,6
15997.828,0.261,0.226,1.024,-65.86,47.49,18.37,0,6
15997.828,0.238,0.194,1.053,-65.46,37.42,18.4,0,6
15997.843,0.265,0.175,1.063,-63.6,27.5,18.8,0,6
15997.859,0.29,0.157,1.068,-58.69,21.42,18.49,0,6
15997.859,0.298,0.121,1.055,-50.08,18.13,17.52,0,6
15997.875,0.307,0.117,1.048,-40.1,16.11,15.93,0,6
15997.875,0.286,0.116,1.049,-30.37,14.77,13.7,0,6
15997.89,0.264,0.119,1.046,-23.87,12.91,11.84,0,6
15997.906,0.261,0.125,1.042,-18.74,9.31,11.11,0,6
15997.906,0.263,0.11,1.039,-13.37,5.07,11.08,0,6
15997.921,0.27,0.098,1.04,-9.06,1.13,11.17,0,6
15997.937,0.291,0.098,1.039,-6.41,-3.63,10.68,0,6
15997.937,0.311,0.107,1.038,-6.68,-6.35,9.95,0,6
15997.953,0.297,0.105,1.027,-8.76,-8.24,8.97,0,6
15997.968,0.284,0.117,1.006,-10.13,-11.29,8.3,0,6
15997.968,0.267,0.136,0.978,-9.7,-13.89,8.27,0,6
15997.984,0.267,0.141,0.955,-8.27,-15.29,9.58,0,6
15998.0,0.268,0.161,0.942,-9.61,-13.49,12.48,0,6
15998.0,0.256,0.167,0.932,-14.98,-10.07,16.14,0,6
15998.015,0.253,0.156,0.936,-23.44,-7.51,19.9,0,6
15998.015,0.223,0.12,0.959,-32.2,-5.92,23.01,0,6
15998.031,0.211,0.051,0.964,-38.42,-8.45,25.42,0,6
15998.046,0.228,-0.014,0.967,-40.83,-12.76,26.86,0,6
15998.046,0.252,-0.071,0.965,-38.79,-17.12,26.18,0,6
15998.062,0.274,-0.103,0.943,-33.23,-20.29,22.34,0,6
15998.078,0.283,-0.11,0.914,-26.31,-21.55,16.66,0,6
15998.093,0.295,-0.104,0.897,-18.83,-20.26,11.17,0,6
15998.093,0.301,-0.096,0.876,-10.01,-17.15,6.99,0,6
15998.093,0.304,-0.092,0.86,0.24,-13.64,4.33,0,6
15998.109,0.303,-0.08,0.849,12.15,-10.44,2.26,0,6
15998.125,0.306,-0.066,0.834,24.41,-8.09,0.4,0,6
15998.14,0.312,-0.037,0.818,37.08,-3.6,-3.11,0,6
15998.14,0.313,-0.005,0.801,35.71,-0.95,-3.97,0,6
15998.156,0.311,0.012,0.796,30.34,0.73,-4.06,0,6
15998.156,0.294,0.024,0.8,23.47,0.67,-4.12,0,6
15998.171,0.292,0.008,0.791,17.3,-0.52,-4.33,0,6
15998.187,0.289,0.016,0.779,13.03,-1.86,-5.22,0,6
15998.187,0.286,0.021,0.759,10.22,-2.29,-6.35,0,6
15998.203,0.3,0.027,0.746,7.66,-1.19,-6.32,0,6
15998.218,0.313,0.05,0.752,4.03,3.23,-5.65,0,6
15998.218,0.301,0.064,0.769,-0.73,9.19,-6.04,0,6
15998.234,0.282,0.052,0.796,-5.13,12.63,-6.87,0,6
15998.25,0.265,0.036,0.819,-6.38,13.21,-6.59,0,6
15998.25,0.266,0.039,0.821,-4.3,12.3,-5.65,0,6
15998.265,0.277,0.048,0.822,-0.92,11.9,-5.07,0,6
15998.265,0.281,0.057,0.825,0.7,12.42,-5.25,0,6
15998.281,0.283,0.077,0.827,0.61,12.82,-5.86,0,6
15998.296,0.279,0.104,0.837,0.34,13.18,-6.07,0,6
15998.296,0.265,0.122,0.846,-0.15,12.91,-4.85,0,6
15998.312,0.253,0.112,0.858,0.64,9.95,-1.74,0,6
15998.328,0.246,0.098,0.859,5.4,5.25,2.38,0,6
15998.328,0.246,0.106,0.849,12.36,-0.49,6.2,0,6
15998.343,0.264,0.142,0.819,15.72,-5.68,9.0,0,6
15998.359,0.274,0.194,0.81,10.25,-6.71,10.96,0,6
15998.359,0.265,0.201,0.826,-1.43,-5.49,12.7,0,6
15998.375,0.268,0.173,0.828,-11.9,-4.43,15.84,0,6
15998.39,0.265,0.14,0.828,-17.64,-2.47,19.78,0,6
15998.39,0.264,0.082,0.824,-15.9,-0.21,23.56,0,6
15998.406,0.278,0.061,0.807,-10.38,2.75,25.54,0,6
15998.406,0.294,0.072,0.802,-6.47,8.03,24.26,0,6
15998.421,0.293,0.086,0.818,-6.35,14.8,21.03,0,6
15998.437,0.284,0.092,0.841,-7.69,19.87,18.16,0,6
15998.453,0.276,0.07,0.852,-6.32,23.22,16.94,0,6
15998.453,0.256,0.068,0.857,-2.93,26.28,16.94,0,6
15998.468,0.236,0.066,0.852,1.25,27.68,16.88,0,6
15998.468,0.231,0.051,0.85,4.24,28.81,16.69,0,6
15998.484,0.241,0.049,0.847,3.88,30.82,16.33,0,6
15998.5,0.244,0.046,0.847,0.85,33.78,14.92,0,6
15998.5,0.239,0.041,0.859,-2.81,36.96,12.54,0,6
15998.515,0.227,0.045,0.88,-6.1,40.01,10.77,0,6
15998.515,0.212,0.045,0.889,-7.72,42.18,9.98,0,6
15998.531,0.207,0.049,0.903,-8.12,43.52,9.7,0,6
15998.546,0.196,0.08,0.928,-9.49,44.8,9.74,0,6
15998.546,0.177,0.065,0.949,-11.32,44.77,9.77,0,6
15998.562,0.163,0.018,0.965,-10.59,43.09,10.38,0,6
15998.578,0.163,0.005,0.974,-6.1,40.19,10.68,0,6
15998.578,0.176,-0.002,0.971,0.92,37.51,9.64,0,6
15998.593,0.172,-0.01,0.957,8.39,36.87,8.03,0,6
15998.609,0.161,0.011,0.948,14.07,38.03,6.32,0,6
15998.609,0.149,0.034,0.946,18.34,39.49,3.75,0,6
15998.625,0.132,0.062,0.938,22.28,40.41,1.62,0,6
15998.64,0.116,0.108,0.932,25.54,40.71,0.89,0,6
15998.64,0.098,0.154,0.922,26.4,40.68,0.98,0,6
15998.656,0.072,0.19,0.909,23.83,40.59,2.69,0,6
15998.656,0.05,0.202,0.902,19.47,39.64,6.04,0,6
15998.671,0.042,0.186,0.903,13.98,38.76,11.51,0,6
15998.687,0.046,0.14,0.922,9.7,38.48,16.75,0,6
15998.687,0.047,0.078,0.936,9.55,38.09,20.17,0,6
15998.703,0.05,0.038,0.933,12.63,37.42,20.39,0,6
15998.718,0.072,0.025,0.922,16.27,37.51,18.28,0,6
15998.718,0.077,0.04,0.909,17.09,39.55,15.11,0,6
15998.734,0.078,0.046,0.904,14.13,43.28,11.78,0,6
15998.75,0.07,0.068,0.926,8.18,47.76,8.79,0,6
15998.75,0.053,0.081,0.962,3.45,51.82,6.1,0,6
15998.765,0.036,0.078,0.999,3.17,54.11,4.43,0,6
15998.765,0.036,0.073,1.033,6.93,54.84,4.33,0,6
15998.781,0.024,0.07,1.054,12.54,54.51,4.39,0,6
15998.796,0.008,0.06,1.059,17.33,52.43,3.88,0,6
15998.812,0.004,0.055,1.052,20.26,48.04,3.45,0,6
15998.812,0.009,0.07,1.036,21.12,43.46,1.95,0,6
15998.828,0.018,0.085,1.029,20.2,41.6,-0.7,0,6
15998.828,0.001,0.104,1.032,17.33,42.15,-3.85,0,6
15998.843,-0.01,0.105,1.038,15.47,42.66,-6.29,0,6
15998.859,-0.011,0.112,1.043,15.47,43.24,-7.29,0,6
15998.859,-0.025,0.114,1.045,15.96,43.98,-7.17,0,6
15998.875,-0.047,0.091,1.047,17.12,44.07,-7.51,0,6
15998.875,-0.051,0.085,1.054,20.91,43.12,-8.27,0,6
15998.89,-0.037,0.097,1.046,27.53,40.65,-9.98,0,6
15998.906,-0.034,0.119,1.022,32.69,39.16,-11.81,0,6
15998.921,-0.03,0.161,0.997,31.77,38.73,-13.34,0,6
15998.921,-0.05,0.206,0.987,24.38,40.16,-14.53,0,6
15998.937,-0.081,0.221,1.002,13.64,42.48,-15.02,0,6
15998.937,-0.112,0.212,1.036,4.49,44.31,-14.37,0,6
15998.953,-0.15,0.189,1.067,1.5,44.68,-13.31,0,6
15998.968,-0.168,0.147,1.08,5.52,41.17,-12.54,0,6
15998.968,-0.128,0.117,1.054,15.08,32.93,-12.21,0,6
15998.984,-0.095,0.142,1.009,25.15,26.49,-12.3,0,6
15998.984,-0.089,0.182,0.964,29.18,25.45,-14.31,0,6
15999.0,-0.092,0.212,0.939,24.84,27.56,-17.15,0,6
15999.015,-0.117,0.235,0.953,17.4,31.65,-18.25,0,6
15999.015,-0.141,0.243,0.973,12.09,35.8,-17.15,0,6
15999.031,-0.173,0.238,0.988,9.34,38.64,-14.5,0,6
15999.046,-0.184,0.221,0.984,8.61,38.24,-12.05,0,6
15999.046,-0.183,0.218,0.966,9.31,35.04,-10.53,0,6
15999.062,-0.19,0.233,0.94,9.74,32.32,-9.92,0,6
15999.078,-0.192,0.255,0.921,6.78,31.19,-9.37,0,6
15999.078,-0.207,0.275,0.916,0.49,31.86,-8.51,0,6
15999.093,-0.229,0.283,0.925,-6.65,34.0,-7.32,0,6
15999.109,-0.258,0.272,0.941,-13.25,35.49,-5.46,0,6
15999.109,-0.273,0.265,0.936,-24.78,29.48,-2.11,0,6
15999.125,-0.274,0.268,0.907,-31.22,23.74,-0.73,0,6
15999.14,-0.252,0.268,0.877,-39.34,20.42,1.13,0,6
15999.14,-0.241,0.266,0.853,-49.47,23.04,3.69,0,6
15999.156,-0.247,0.231,0.904,-59.08,29.11,7.54,0,6
15999.156,-0.247,0.16,0.962,-61.89,35.16,12.42,0,6
15999.171,-0.244,0.089,1.006,-55.02,39.61,16.6,0,6
15999.187,-0.232,0.022,1.035,-39.22,40.83,17.73,0,6
15999.203,-0.212,-0.017,1.039,-17.94,41.2,15.2,0,6
15999.203,-0.216,-0.004,1.018,3.57,41.78,9.89,0,6
15999.218,-0.241,0.027,1.0,21.61,42.85,3.45,0,6
15999.218,-0.259,0.07,0.986,32.81,44.01,-1.28,0,6
15999.234,-0.257,0.115,0.979,36.56,44.04,-3.85,0,6
15999.25,-0.27,0.14,0.977,34.85,43.67,-4.33,0,6
15999.25,-0.279,0.151,0.978,28.96,43.21,-3.11,0,6
15999.265,-0.282,0.146,0.983,21.61,41.9,-1.56,0,6
15999.265,-0.289,0.138,0.983,15.35,39.86,-1.28,0,6
15999.281,-0.293,0.149,0.978,10.38,37.54,-2.44,0,6
15999.296,-0.292,0.158,0.97,7.72,34.46,-4.21,0,6
15999.296,-0.294,0.156,0.976,7.87,33.14,-5.19,0,6
15999.312,-0.298,0.166,0.993,8.97,34.58,-4.79,0,6
15999.328,-0.304,0.158,1.016,9.98,37.6,-3.75,0,6
15999.328,-0.321,0.135,1.031,11.9,39.58,-2.96,0,6
15999.343,-0.335,0.131,1.03,15.32,38.45,-3.66,0,6
15999.359,-0.334,0.142,1.006,19.41,34.42,-6.04,0,6
15999.359,-0.319,0.166,0.974,22.1,30.12,-8.18,0,6
15999.375,-0.309,0.195,0.948,21.52,27.99,-9.06,0,6
15999.375,-0.311,0.217,0.94,16.24,30.18,-8.88,0,6
15999.39,-0.328,0.22,0.959,7.54,35.58,-7.54,0,6
15999.406,-0.354,0.21,0.991,-1.31,40.53,-5.46,0,6
15999.406,-0.37,0.196,1.016,-8.0,41.87,-3.85,0,6
15999.421,-0.379,0.184,1.029,-11.75,39.64,-3.36,0,6
15999.437,-0.389,0.175,1.027,-12.73,35.31,-3.57,0,6
15999.437,-0.394,0.177,1.017,-11.72,30.58,-4.15,0,6
15999.453,-0.394,0.178,1.01,-9.09,27.74,-4.55,0,6
15999.468,-0.392,0.177,1.006,-5.65,26.92,-4.43,0,6
15999.468,-0.405,0.175,1.008,-2.38,27.38,-4.12,0,6
15999.484,-0.417,0.163,1.01,0.85,27.04,-4.24,0,6
15999.5,-0.397,0.165,0.99,3.72,24.84,-4.58,0,6
15999.5,-0.383,0.175,0.967,6.32,22.86,-4.58,0,6
15999.515,-0.388,0.183,0.947,6.93,22.95,-4.43,0,6
15999.515,-0.396,0.195,0.934,4.67,24.87,-4.61,0,6
15999.531,-0.415,0.192,0.934,1.34,27.99,-4.55,0,6
15999.546,-0.434,0.185,0.946,-1.59,30.52,-3.45,0,6
15999.546,-0.441,0.173,0.96,-3.97,31.4,-2.17,0,6
15999.562,-0.447,0.163,0.957,-5.83,30.4,-2.17,0,6
15999.578,-0.434,0.167,0.943,-6.9,26.67,-3.14,0,6
15999.593,-0.419,0.18,0.923,-6.96,22.8,-3.6,0,6
15999.593,-0.414,0.188,0.9,-7.45,22.43,-2.69,0,6
15999.609,-0.423,0.182,0.916,-8.67,25.85,-1.07,0,6
15999.609,-0.443,0.167,0.949,-9.37,29.88,0.27,0,6
15999.625,-0.463,0.143,0.986,-9.46,31.8,1.46,0,6
15999.625,-0.481,0.129,1.0,-8.97,29.94,1.86,0,6
15999.64,-0.483,0.127,0.984,-8.3,24.02,0.61,0,6
15999.656,-0.476,0.134,0.947,-7.81,17.52,-1.1,0,6
15999.671,-0.465,0.159,0.907,-8.79,13.67,-1.92,0,6
15999.671,-0.464,0.167,0.882,-10.93,13.06,-1.65,0,6
15999.687,-0.468,0.16,0.875,-12.79,14.83,-0.61,0,6
15999.687,-0.48,0.156,0.876,-14.16,17.12,0.92,0,6
15999.703,-0.488,0.137,0.885,-14.98,18.56,2.53,0,6
15999.718,-0.493,0.115,0.887,-15.11,18.4,2.99,0,6
15999.718,-0.488,0.098,0.877,-14.07,16.05,1.46,0,6
15999.734,-0.476,0.094,0.858,-10.71,12.94,-0.67,0,6
15999.75,-0.471,0.103,0.835,-5.58,11.11,-2.5,0,6
15999.75,-0.466,0.113,0.817,-0.58,11.17,-3.78,0,6
15999.765,-0.47,0.123,0.807,2.56,13.98,-4.43,0,6
15999.765,-0.481,0.119,0.815,3.69,18.07,-4.06,0,6
15999.781,-0.49,0.11,0.828,3.66,22.1,-3.05,0,6
15999.796,-0.511,0.097,0.834,3.78,24.38,-2.78,0,6
15999.796,-0.524,0.09,0.833,5.13,23.47,-3.94,0,6
15999.812,-0.52,0.094,0.817,7.81,20.42,-5.98,0,6
15999.828,-0.509,0.105,0.794,11.47,18.31,-8.03,0,6
15999.828,-0.505,0.128,0.776,14.74,18.31,-9.19,0,6
15999.843,-0.511,0.141,0.767,16.24,20.6,-9.64,0,6
15999.859,-0.515,0.145,0.771,14.8,24.29,-8.94,0,6
15999.859,-0.528,0.146,0.781,11.54,27.95,-7.45,0,6
15999.875,-0.547,0.133,0.789,7.63,30.37,-6.01,0,6
15999.875,-0.561,0.121,0.795,4.09,30.24,-5.89,0,6
15999.89,-0.575,0.111,0.795,2.5,28.14,-6.81,0,6
15999.906,-0.573,0.113,0.781,3.36,25.39,-8.27,0,6
15999.906,-0.563,0.124,0.754,6.35,23.44,-9.7,0,6
15999.921,-0.554,0.145,0.717,10.04,23.01,-10.47,0,6
15999.937,-0.562,0.176,0.68,11.6,24.29,-10.65,0,6
15999.937,-0.573,0.202,0.648,8.58,27.44,-10.47,0,6
15999.953,-0.583,0.219,0.637,1.25,32.5,-9.06,0,6
15999.968,-0.587,0.204,0.655,-8.24,39.86,-5.1,0,6
15999.968,-0.604,0.175,0.696,-17.7,48.07,0.06,0,6
15999.984,-0.619,0.133,0.741,-24.45,53.47,3.78,0,6
15999.984,-0.633,0.079,0.787,-27.25,54.72,5.25,0,6
16000.0,-0.64,0.043,0.811,-26.76,52.0,5.04,0,6
16000.015,-0.637,0.026,0.808,-23.71,46.91,2.5,0,6
16000.015,-0.638,0.028,0.78,-19.23,42.54,-2.23,0,6
16000.031,-0.646,0.042,0.75,-14.01,40.31,-6.87,0,6
16000.046,-0.643,0.068,0.725,-9.31,40.8,-9.61,0,6
16000.046,-0.638,0.09,0.71,-6.04,44.16,-11.02,0,6
16000.062,-0.64,0.09,0.71,-4.79,49.23,-10.47,0,6
16000.078,-0.658,0.083,0.729,-5.34,53.8,-9.03,0,6
16000.078,-0.671,0.07,0.751,-5.89,54.9,-9.0,0,6
16000.093,-0.684,0.052,0.755,-0.82,51.24,-11.05,0,6
16000.109,-0.702,0.045,0.757,4.3,47.21,-12.6,0,6
16000.109,-0.704,0.048,0.742,9.95,44.1,-13.49,0,6
16000.125,-0.708,0.066,0.711,13.37,43.24,-13.4,0,6
16000.125,-0.697,0.086,0.695,13.58,45.47,-12.82,0,6
16000.14,-0.707,0.078,0.71,11.93,48.62,-11.96,0,6
16000.156,-0.719,0.059,0.724,10.44,49.23,-11.87,0,6
16000.156,-0.728,0.061,0.725,10.59,47.03,-13.67,0,6
16000.171,-0.736,0.07,0.711,12.42,43.18,-15.96,0,6
16000.187,-0.743,0.088,0.683,14.8,40.25,-17.3,0,6
16000.187,-0.748,0.115,0.653,16.63,39.83,-17.91,0,6
16000.203,-0.756,0.136,0.628,16.97,40.96,-18.25,0,6
16000.218,-0.754,0.146,0.626,15.59,42.6,-17.43,0,6
16000.218,-0.75,0.143,0.637,13.18,45.29,-15.14,0,6
16000.234,-0.756,0.118,0.652,9.98,48.1,-11.99,0,6
16000.25,-0.761,0.098,0.662,6.38,48.8,-10.99,0,6
16000.25,-0.768,0.087,0.667,3.81,47.12,-12.45,0,6
16000.265,-0.777,0.086,0.667,2.9,45.35,-14.77,0,6
16000.265,-0.789,0.096,0.669,3.42,44.62,-16.11,0,6
16000.281,-0.791,0.108,0.679,4.67,43.76,-15.69,0,6
16000.296,-0.779,0.114,0.692,5.95,42.97,-14.31,0,6
16000.296,-0.78,0.113,0.7,6.56,42.88,-12.94,0,6
16000.312,-0.791,0.113,0.706,5.52,42.54,-12.42,0,6
16000.328,-0.799,0.106,0.703,4.0,40.93,-12.85,0,6
16000.328,-0.806,0.096,0.695,3.6,39.03,-13.12,0,6
16000.343,-0.811,0.095,0.686,4.09,37.97,-13.25,0,6
16000.359,-0.817,0.091,0.675,5.43,37.23,-13.58,0,6
16000.359,-0.824,0.089,0.67,6.68,36.87,-13.4,0,6
16000.375,-0.831,0.094,0.665,7.63,35.52,-13.21,0,6
16000.39,-0.833,0.097,0.65,8.15,33.42,-13.58,0,6
16000.39,-0.832,0.1,0.634,8.36,31.5,-13.79,0,6
16000.406,-0.824,0.1,0.619,9.13,30.34,-13.64,0,6
16000.406,-0.815,0.099,0.607,9.8,30.43,-12.73,0,6
16000.421,-0.814,0.093,0.599,10.07,31.68,-11.47,0,6
16000.437,-0.818,0.088,0.592,9.03,33.05,-10.86,0,6
16000.437,-0.829,0.085,0.59,7.11,33.97,-10.96,0,6
16000.453,-0.841,0.086,0.592,4.91,33.72,-10.96,0,6
16000.468,-0.833,0.075,0.595,3.11,32.9,-10.44,0,6
16000.468,-0.823,0.06,0.598,1.59,32.32,-9.31,0,6
16000.484,-0.824,0.046,0.604,0.89,32.04,-9.0,0,6
16000.5,-0.827,0.035,0.608,1.25,31.22,-9.86,0,6
16000.5,-0.833,0.033,0.607,1.77,29.57,-11.41,0,6
16000.515,-0.83,0.048,0.601,2.23,27.95,-13.67,0,6
16000.515,-0.833,0.069,0.59,2.26,27.83,-15.9,0,6
16000.531,-0.845,0.073,0.582,2.62,28.32,-16.63,0,6
16000.546,-0.854,0.079,0.576,3.14,28.38,-15.66,0,6
16000.562,-0.859,0.08,0.569,3.91,27.74,-14.28,0,6
16000.562,-0.859,0.063,0.557,4.85,26.73,-13.28,0,6
16000.578,-0.856,0.058,0.546,4.97,25.76,-12.73,0,6
16000.578,-0.855,0.059,0.536,4.15,25.36,-12.57,0,6
16000.593,-0.854,0.052,0.527,2.26,25.57,-12.42,0,6
16000.609,-0.856,0.051,0.526,-0.79,25.73,-12.02,0,6
16000.609,-0.86,0.05,0.527,-3.27,25.7,-12.02,0,6
16000.625,-0.87,0.04,0.527,-4.21,25.42,-12.12,0,6
16000.625,-0.88,0.028,0.532,-3.36,24.84,-12.02,0,6
16000.64,-0.887,0.017,0.54,-0.52,24.26,-11.57,0,6
16000.656,-0.887,0.005,0.538,3.27,23.35,-11.51,0,6
16000.671,-0.887,-0.002,0.53,6.53,21.79,-12.02,0,6
16000.671,-0.891,0.002,0.521,9.28,19.75,-13.21,0,6
16000.687,-0.894,0.003,0.508,11.54,17.61,-14.59,0,6
16000.687,-0.898,0.014,0.489,13.43,15.35,-15.81,0,6
16000.703,-0.896,0.017,0.468,15.78,13.34,-16.3,0,6
16000.718,-0.887,0.025,0.447,18.01,12.73,-16.14,0,6
16000.718,-0.884,0.031,0.438,19.17,14.19,-15.32,0,6
16000.734,-0.883,0.035,0.433,18.98,16.14,-14.47,0,6
16000.734,-0.886,0.038,0.429,17.4,17.3,-13.92,0,6
16000.75,-0.889,0.034,0.428,15.38,17.88,-13.49,0,6
16000.765,-0.896,0.026,0.424,13.4,18.31,-12.85,0,6
16000.765,-0.906,0.031,0.416,11.96,17.98,-12.27,0,6
16000.781,-0.914,0.037,0.41,10.93,17.43,-12.18,0,6
16000.796,-0.922,0.044,0.416,10.01,17.21,-11.84,0,6
16000.796,-0.927,0.044,0.426,9.95,16.97,-10.13,0,6
16000.812,-0.932,0.04,0.444,11.32,16.63,-7.05,0,6
16000.828,-0.931,0.031,0.447,13.95,15.26,-3.91,0,6
16000.828,-0.92,0.021,0.431,16.75,13.0,-1.98,0,6
16000.843,-0.911,0.017,0.41,18.28,10.62,-1.34,0,6
16000.859,-0.899,0.022,0.392,18.37,9.19,-1.92,0,6
16000.859,-0.893,0.032,0.373,16.94,9.52,-3.36,0,6
16000.875,-0.894,0.038,0.357,13.34,11.47,-5.16,0,6
16000.89,-0.902,0.035,0.357,9.58,14.56,-6.62,0,6
16000.89,-0.91,0.028,0.361,7.54,17.49,-7.54,0,6
16000.906,-0.911,0.019,0.363,7.02,19.41,-7.81,0,6
16000.906,-0.906,0.006,0.358,7.51,20.6,-7.63,0,6
16000.921,-0.905,0.005,0.365,9.09,22.1,-7.54,0,6
16000.937,-0.905,0.013,0.372,12.27,23.68,-7.51,0,6
16000.953,-0.908,0.012,0.387,16.97,24.78,-7.63,0,6
16000.953,-0.923,0.017,0.399,23.9,26.49,-6.84,0,6
16000.968,-0.946,0.033,0.381,29.57,27.77,-3.72,0,6
16000.968,-0.942,0.049,0.366,28.29,27.1,1.13,0,6
16000.984,-0.93,0.053,0.379,22.4,25.57,3.97,0,6
16001.0,-0.925,0.045,0.376,15.02,22.83,3.69,0,6
16001.0,-0.924,0.04,0.363,6.71,19.47,1.4,0,6
16001.015,-0.923,0.041,0.359,-0.31,17.09,-1.74,0,6
16001.015,-0.923,0.032,0.359,-4.03,16.48,-4.58,0,6
16001.031,-0.918,0.022,0.358,-4.61,17.73,-6.53,0,6
16001.046,-0.922,0.025,0.356,-3.11,19.9,-7.87,0,6
16001.046,-0.922,0.004,0.37,0.43,21.79,-8.97,0,6
16001.062,-0.923,-0.002,0.384,5.55,22.83,-10.5,0,6
16001.078,-0.927,0.007,0.381,14.44,22.95,-13.7,0,6
16001.078,-0.923,0.024,0.374,14.74,21.7,-15.9,0,6
16001.093,-0.933,0.029,0.369,12.79,20.14,-16.11,0,6
16001.109,-0.94,0.039,0.369,9.55,19.35,-14.28,0,6
16001.109,-0.938,0.07,0.331,2.9,18.31,-11.63,0,6
16001.125,-0.926,0.061,0.338,-4.97,17.49,-10.41,0,6
16001.125,-0.931,0.037,0.34,-10.62,17.85,-9.95,0,6
16001.14,-0.937,0.019,0.339,-13.43,18.92,-9.16,0,6
16001.156,-0.93,0.009,0.337,-13.86,19.93,-8.7,0,6
16001.156,-0.922,-0.005,0.333,-12.39,21.21,-9.55,0,6
16001.171,-0.92,-0.02,0.325,-10.38,22.46,-10.8,0,6
16001.187,-0.918,-0.002,0.316,-9.31,22.98,-13.0,0,6
16001.187,-0.925,-0.017,0.321,-8.97,23.68,-15.08,0,6
16001.203,-0.928,-0.022,0.333,-7.17,23.9,-16.79,0,6
16001.218,-0.94,-0.016,0.326,-2.93,23.93,-17.64,0,6
16001.218,-0.94,0.017,0.314,-0.55,23.65,-18.19,0,6
16001.234,-0.947,0.02,0.301,-0.64,23.5,-18.98,0,6
16001.25,-0.949,0.016,0.305,-2.99,23.9,-18.01,0,6
16001.25,-0.958,0.022,0.315,-3.85,23.68,-16.48,0,6
16001.265,-0.964,0.013,0.315,-3.2,23.04,-14.07,0,6
16001.265,-0.958,0.008,0.315,-3.08,21.42,-11.87,0,6
16001.281,-0.956,-0.006,0.313,-2.78,19.35,-10.77,0,6
16001.296,-0.951,0.001,0.296,-2.59,17.88,-10.04,0,6
16001.312,-0.947,0.014,0.274,-3.57,18.34,-8.82,0,6
16001.312,-0.946,0.003,0.263,-4.85,20.45,-6.47,0,6
16001.328,-0.951,0.0,0.258,-4.85,23.56,-2.75,0,6
16001.328,-0.954,-0.011,0.257,-3.63,26.95,0.67,0,6
16001.343,-0.954,-0.033,0.25,-3.23,28.75,2.04,0,6
16001.359,-0.953,-0.039,0.25,-4.39,28.87,1.07,0,6
16001.359,-0.96,-0.037,0.251,-5.68,27.92,-1.43,0,6
16001.375,-0.965,-0.042,0.255,-7.11,25.7,-3.11,0,6
16001.375,-0.963,-0.042,0.262,-7.63,22.95,-4.46,0,6
16001.39,-0.965,-0.041,0.266,-6.32,20.6,-5.55,0,6
16001.406,-0.967,-0.042,0.259,-4.15,18.19,-6.16,0,6
16001.406,-0.966,-0.041,0.242,-2.17,15.81,-6.74,0,6
16001.421,-0.967,-0.026,0.222,-2.11,13.76,-7.66,0,6
