timestamp,ax,ay,az,gx,gy,gz,orient_label,motion_label
15978.64,-0.98,-0.053,0.109,0.27,-2.23,0.37,0,6
15978.656,-0.974,-0.049,0.112,-0.58,-1.8,0.34,0,6
15978.656,-0.97,-0.052,0.117,-0.15,-1.19,0.09,0,6
15978.671,-0.971,-0.052,0.125,1.53,-0.46,0.18,0,6
15978.687,-0.975,-0.058,0.123,3.45,-0.21,0.61,0,6
15978.687,-0.976,-0.06,0.119,4.33,-0.09,0.98,0,6
15978.703,-0.978,-0.063,0.119,3.69,-0.31,0.98,0,6
15978.718,-0.979,-0.064,0.114,2.84,-0.52,0.27,0,6
15978.718,-0.98,-0.059,0.108,1.5,-0.55,-0.37,0,6
15978.734,-0.979,-0.054,0.103,-0.37,-0.55,-0.67,0,6
15978.75,-0.971,-0.044,0.106,-2.04,-0.15,-0.64,0,6
15978.75,-0.972,-0.047,0.106,-2.99,1.01,-0.24,0,6
15978.765,-0.973,-0.052,0.111,-3.51,1.83,0.46,0,6
15978.765,-0.972,-0.052,0.119,-3.63,2.44,1.19,0,6
15978.781,-0.979,-0.06,0.12,-3.17,2.53,1.56,0,6
15978.796,-0.977,-0.069,0.12,-2.47,2.26,2.11,0,6
15978.796,-0.973,-0.067,0.118,-1.77,2.26,2.53,0,6
15978.828,-0.975,-0.063,0.114,-4.55,1.25,2.53,0,6
15978.828,-0.975,-0.068,0.12,-6.35,1.34,2.41,0,6
15978.843,-0.977,-0.074,0.12,-6.74,1.53,2.14,0,6
15978.859,-0.973,-0.076,0.126,-5.71,1.68,1.46,0,6
15978.859,-0.975,-0.074,0.132,-3.6,2.01,0.73,0,6
15978.875,-0.977,-0.069,0.134,-1.01,2.01,0.21,0,6
15978.875,-0.979,-0.061,0.133,1.31,1.8,0.21,0,6
15978.89,-0.982,-0.055,0.13,2.66,1.22,0.43,0,6
15978.906,-0.988,-0.058,0.122,2.87,0.76,0.73,0,6
15978.906,-0.988,-0.057,0.12,1.68,0.12,1.43,0,6
15978.921,-0.984,-0.061,0.111,-0.4,-1.04,1.92,0,6
15978.937,-0.97,-0.067,0.102,-3.2,-1.65,2.04,0,6
15978.937,-0.96,-0.068,0.104,-5.8,-0.98,1.56,0,6
15978.953,-0.959,-0.071,0.112,-7.08,0.67,0.79,0,6
15978.968,-0.96,-0.07,0.127,-6.47,2.23,0.24,0,6
15978.968,-0.973,-0.074,0.14,-4.24,2.93,-0.06,0,6
15978.984,-0.977,-0.075,0.134,0.89,0.4,-0.58,0,6
15979.0,-0.972,-0.068,0.128,1.98,-1.01,-1.13,0,6
15979.015,-0.971,-0.057,0.118,1.95,-1.71,-1.5,0,6
15979.015,-0.968,-0.046,0.113,0.52,-1.89,-1.77,0,6
15979.031,-0.97,-0.037,0.119,-1.5,-1.43,-1.62,0,6
15979.046,-0.982,-0.043,0.125,-2.96,-1.43,-1.1,0,6
15979.046,-0.982,-0.058,0.125,-2.47,-1.74,-0.37,0,6
15979.062,-0.983,-0.057,0.134,-1.1,-2.11,0.18,0,6
15979.078,-0.979,-0.067,0.126,1.04,-2.59,0.15,0,6
15979.078,-0.982,-0.067,0.125,2.59,-2.53,0.06,0,6
15979.093,-0.984,-0.065,0.124,3.45,-2.2,-0.06,0,6
15979.109,-0.982,-0.064,0.12,3.45,-2.32,-0.49,0,6
15979.109,-0.978,-0.06,0.122,2.84,-2.41,-1.16,0,6
15979.125,-0.98,-0.059,0.131,2.35,-2.35,-1.62,0,6
15979.125,-0.979,-0.061,0.132,2.44,-2.72,-1.43,0,6
15979.14,-0.972,-0.056,0.13,2.5,-3.36,-1.01,0,6
15979.156,-0.963,-0.066,0.135,2.96,-4.85,-1.1,0,6
15979.171,-0.968,-0.075,0.138,4.39,-5.16,-1.04,0,6
15979.187,-0.968,-0.079,0.137,6.53,-5.74,-1.1,0,6
15979.187,-0.968,-0.078,0.136,8.79,-6.87,-1.56,0,6
15979.203,-0.968,-0.078,0.134,10.96,-7.69,-1.89,0,6
15979.218,-0.969,-0.072,0.129,12.76,-8.15,-1.92,0,6
15979.218,-0.969,-0.062,0.122,14.07,-8.33,-2.23,0,6
15979.234,-0.969,-0.057,0.122,14.47,-8.03,-2.59,0,6
15979.234,-0.972,-0.062,0.127,14.4,-7.66,-2.47,0,6
15979.25,-0.963,-0.073,0.135,14.98,-7.42,-2.14,0,6
15979.265,-0.956,-0.079,0.153,16.33,-6.81,-2.44,0,6
15979.265,-0.957,-0.092,0.184,18.89,-6.07,-3.05,0,6
15979.281,-0.944,-0.114,0.202,23.19,-6.1,-3.6,0,6
15979.296,-0.93,-0.11,0.242,27.1,-6.84,-5.55,0,6
15979.296,-0.93,-0.117,0.262,33.69,-7.14,-7.72,0,6
15979.312,-0.941,-0.097,0.283,38.0,-9.0,-9.92,0,6
15979.343,-0.945,-0.05,0.332,38.76,-15.17,-13.79,0,6
15979.343,-0.962,-0.012,0.378,37.08,-19.32,-14.37,0,6
15979.359,-0.989,0.031,0.427,36.81,-22.92,-12.36,0,6
15979.359,-1.03,0.068,0.47,36.19,-27.41,-6.87,0,6
15979.375,-1.056,0.107,0.524,34.33,-34.76,1.98,0,6
15979.39,-1.051,0.114,0.564,33.69,-45.01,13.21,0,6
15979.39,-1.029,0.118,0.568,30.98,-57.77,22.52,0,6
15979.406,-0.988,0.129,0.579,25.24,-70.35,27.89,0,6
15979.406,-0.958,0.133,0.586,20.2,-79.93,29.94,0,6
15979.421,-0.95,0.145,0.579,16.66,-86.89,30.09,0,6
15979.437,-0.945,0.163,0.571,13.52,-91.83,30.06,0,6
15979.437,-0.941,0.179,0.563,11.08,-94.7,30.92,0,6
15979.453,-0.942,0.197,0.562,6.68,-95.74,36.32,0,6
15979.468,-0.944,0.211,0.563,4.55,-95.65,39.61,0,6
15979.468,-0.943,0.22,0.563,2.14,-95.4,43.28,0,6
15979.484,-0.945,0.223,0.563,-0.09,-95.31,47.0,0,6
15979.5,-0.946,0.259,0.573,-5.55,-96.74,55.88,0,6
15979.515,-0.941,0.266,0.576,-8.67,-97.45,59.6,0,6
15979.515,-0.937,0.269,0.584,-12.02,-97.96,61.65,0,6
15979.531,-0.938,0.277,0.591,-14.04,-98.12,62.26,0,6
15979.546,-0.935,0.289,0.596,-13.95,-98.15,62.84,0,6
15979.546,-0.933,0.303,0.599,-13.31,-98.33,63.05,0,6
15979.562,-0.94,0.311,0.602,-12.63,-98.91,62.96,0,6
15979.578,-0.942,0.308,0.604,-13.09,-100.44,63.26,0,6
15979.593,-0.939,0.315,0.606,-14.19,-101.96,63.97,0,6
15979.593,-0.936,0.321,0.605,-14.28,-102.85,65.31,0,6
15979.609,-0.925,0.315,0.596,-13.79,-103.43,66.56,0,6
15979.609,-0.909,0.306,0.594,-12.48,-103.4,67.69,0,6
15979.625,-0.883,0.287,0.6,-8.97,-102.15,68.97,0,6
15979.625,-0.859,0.268,0.603,-3.69,-100.34,70.16,0,6
15979.64,-0.843,0.258,0.599,1.65,-98.97,70.71,0,6
15979.656,-0.829,0.255,0.583,6.35,-98.51,70.59,0,6
15979.671,-0.796,0.269,0.552,10.86,-101.47,69.31,0,6
15979.687,-0.797,0.29,0.529,9.09,-102.85,67.93,0,6
15979.687,-0.804,0.309,0.507,3.45,-103.18,67.6,0,6
15979.703,-0.817,0.308,0.503,-4.85,-100.83,69.4,0,6
15979.718,-0.821,0.27,0.511,-14.04,-95.92,72.21,0,6
15979.718,-0.824,0.23,0.529,-21.97,-89.51,74.59,0,6
15979.734,-0.822,0.191,0.545,-26.76,-83.41,75.23,0,6
15979.734,-0.805,0.156,0.556,-27.13,-77.82,72.85,0,6
15979.75,-0.793,0.129,0.559,-22.46,-71.87,67.51,0,6
15979.765,-0.774,0.12,0.567,-14.86,-65.83,59.45,0,6
15979.781,-0.744,0.12,0.567,-4.15,-59.72,50.78,0,6
15979.781,-0.73,0.125,0.574,9.09,-52.03,42.54,0,6
15979.796,-0.714,0.136,0.585,23.41,-44.01,35.58,0,6
15979.796,-0.707,0.154,0.599,37.26,-37.32,30.09,0,6
15979.812,-0.704,0.163,0.604,51.09,-31.25,27.28,0,6
15979.828,-0.718,0.178,0.606,62.59,-26.64,26.28,0,6
15979.828,-0.698,0.206,0.614,67.72,-26.83,26.61,0,6
15979.843,-0.66,0.227,0.595,68.33,-30.76,27.31,0,6
15979.859,-0.62,0.243,0.57,65.16,-35.19,27.07,0,6
15979.859,-0.582,0.249,0.549,60.79,-38.03,25.79,0,6
15979.875,-0.546,0.253,0.521,56.83,-38.45,24.26,0,6
15979.875,-0.528,0.268,0.497,51.67,-36.68,23.32,0,6
15979.89,-0.53,0.28,0.487,44.56,-33.11,22.89,0,6
15979.906,-0.528,0.278,0.492,36.07,-28.96,22.86,0,6
15979.921,-0.522,0.265,0.502,28.02,-24.32,23.87,0,6
15979.921,-0.522,0.259,0.512,20.2,-19.75,24.9,0,6
15979.937,-0.522,0.251,0.525,12.27,-15.84,24.93,0,6
15979.937,-0.543,0.249,0.546,4.12,-12.45,23.87,0,6
15979.953,-0.564,0.25,0.564,-4.49,-10.5,21.94,0,6
15979.968,-0.572,0.252,0.582,-12.91,-9.67,20.26,0,6
15979.968,-0.576,0.245,0.597,-19.23,-9.22,18.89,0,6
15979.984,-0.578,0.23,0.609,-22.58,-9.83,17.49,0,6
15980.0,-0.578,0.214,0.615,-22.86,-11.6,15.9,0,6
15980.0,-0.584,0.199,0.617,-21.21,-13.98,13.25,0,6
15980.015,-0.581,0.193,0.607,-18.49,-16.14,10.07,0,6
15980.031,-0.586,0.191,0.604,-14.59,-16.75,6.59,0,6
15980.031,-0.592,0.188,0.602,-10.28,-16.36,3.3,0,6
15980.046,-0.592,0.188,0.603,-6.47,-15.41,0.55,0,6
15980.046,-0.599,0.198,0.607,-3.2,-13.52,-1.77,0,6
15980.062,-0.604,0.214,0.613,-1.13,-11.29,-4.0,0,6
15980.078,-0.603,0.219,0.623,-0.24,-9.46,-6.41,0,6
15980.078,-0.617,0.23,0.634,0.61,-8.06,-8.76,0,6
15980.093,-0.628,0.253,0.641,1.07,-7.35,-10.96,0,6
15980.109,-0.641,0.28,0.656,0.55,-6.53,-12.36,0,6
15980.109,-0.655,0.295,0.675,0.34,-5.37,-12.57,0,6
15980.125,-0.666,0.306,0.683,0.55,-4.58,-11.35,0,6
15980.125,-0.677,0.318,0.69,0.09,-3.88,-9.34,0,6
15980.14,-0.68,0.319,0.699,-0.76,-3.57,-7.39,0,6
15980.156,-0.682,0.326,0.705,-2.29,-3.72,-5.62,0,6
15980.156,-0.686,0.328,0.714,-3.57,-4.03,-4.09,0,6
15980.171,-0.692,0.335,0.717,-5.34,-4.67,-3.05,0,6
15980.187,-0.687,0.339,0.721,-6.74,-5.65,-1.77,0,6
15980.203,-0.68,0.341,0.728,-7.35,-6.87,-0.64,0,6
15980.203,-0.673,0.332,0.722,-6.96,-8.06,0.27,0,6
15980.218,-0.664,0.329,0.724,-6.62,-9.28,0.7,0,6
15980.218,-0.648,0.32,0.728,-4.94,-9.98,0.67,0,6
15980.234,-0.643,0.319,0.724,-2.23,-9.98,0.24,0,6
15980.234,-0.639,0.328,0.717,-0.37,-9.55,-0.55,0,6
15980.25,-0.633,0.333,0.722,-0.03,-9.0,-1.22,0,6
15980.265,-0.623,0.334,0.735,-0.92,-8.94,-1.4,0,6
15980.265,-0.602,0.335,0.742,-1.68,-9.55,-0.95,0,6
15980.281,-0.585,0.328,0.743,-1.22,-10.28,-0.73,0,6
15980.296,-0.568,0.321,0.74,0.67,-10.96,-0.21,0,6
15980.296,-0.562,0.317,0.732,3.27,-11.44,0.12,0,6
15980.312,-0.56,0.318,0.724,5.16,-11.96,0.4,0,6
15980.328,-0.562,0.325,0.719,5.43,-12.09,0.76,0,6
15980.328,-0.559,0.332,0.717,4.58,-12.12,1.13,0,6
15980.343,-0.553,0.331,0.717,3.08,-12.21,1.46,0,6
15980.359,-0.544,0.332,0.72,1.19,-11.96,1.37,0,6
15980.359,-0.536,0.33,0.729,0.31,-11.35,1.31,0,6
15980.375,-0.531,0.33,0.736,0.03,-10.1,0.98,0,6
15980.375,-0.536,0.334,0.744,0.4,-8.24,0.18,0,6
15980.39,-0.542,0.334,0.747,0.98,-6.87,-1.31,0,6
15980.406,-0.552,0.345,0.754,1.65,-5.52,-3.14,0,6
15980.421,-0.565,0.356,0.76,2.32,-5.04,-4.49,0,6
15980.421,-0.566,0.357,0.774,3.48,-5.77,-5.13,0,6
15980.437,-0.558,0.358,0.775,7.6,-7.81,-5.62,0,6
15980.437,-0.551,0.37,0.772,6.71,-10.32,-5.01,0,6
15980.453,-0.546,0.381,0.775,4.06,-13.09,-3.85,0,6
15980.468,-0.54,0.39,0.779,0.4,-15.69,-2.96,0,6
15980.468,-0.518,0.385,0.776,-3.45,-16.75,-2.56,0,6
15980.484,-0.515,0.377,0.78,-6.5,-16.79,-2.35,0,6
15980.5,-0.506,0.362,0.782,-7.9,-16.27,-2.59,0,6
15980.5,-0.504,0.35,0.785,-6.5,-15.17,-3.27,0,6
15980.515,-0.501,0.349,0.772,0.76,-13.37,-5.71,0,6
15980.531,-0.506,0.354,0.768,3.45,-12.73,-7.51,0,6
15980.546,-0.513,0.359,0.774,3.69,-12.6,-9.7,0,6
15980.546,-0.518,0.36,0.78,0.89,-13.31,-12.54,0,6
15980.562,-0.521,0.359,0.783,-2.93,-14.07,-15.41,0,6
15980.578,-0.518,0.35,0.77,-6.53,-13.43,-16.88,0,6
15980.578,-0.516,0.339,0.76,-7.97,-10.8,-16.36,0,6
15980.593,-0.517,0.36,0.742,-7.97,-8.39,-13.12,0,6
15980.609,-0.498,0.363,0.717,-9.74,-7.2,-9.25,0,6
15980.609,-0.486,0.366,0.698,-13.86,-4.27,-7.42,0,6
15980.625,-0.506,0.38,0.699,-20.08,-0.12,-6.07,0,6
15980.625,-0.522,0.383,0.715,-27.95,2.29,-4.03,0,6
15980.64,-0.525,0.378,0.726,-35.74,4.09,-2.23,0,6
15980.656,-0.488,0.339,0.726,-42.12,6.99,-1.07,0,6
15980.656,-0.462,0.346,0.729,-46.45,15.11,-4.24,0,6
15980.671,-0.625,0.392,0.895,-42.85,21.94,-3.23,0,6
15980.687,-0.612,0.323,0.921,-35.65,14.28,0.92,0,6
15980.687,-0.574,0.353,0.92,-36.74,5.07,1.16,0,6
15980.703,-0.566,0.339,0.921,-35.52,1.22,-0.64,0,6
15980.718,-0.568,0.314,0.93,-30.92,0.31,-1.01,0,6
15980.718,-0.572,0.303,0.938,-22.98,0.7,0.09,0,6
15980.734,-0.575,0.285,0.925,-12.21,1.07,1.65,0,6
15980.75,-0.569,0.258,0.902,-0.7,0.7,3.11,0,6
15980.75,-0.57,0.251,0.871,9.64,-1.25,3.39,0,6
15980.765,-0.561,0.265,0.827,15.72,-4.55,2.47,0,6
15980.765,-0.554,0.297,0.802,16.63,-8.24,1.53,0,6
15980.781,-0.549,0.316,0.787,14.71,-12.05,1.59,0,6
15980.796,-0.546,0.334,0.79,10.83,-15.35,2.62,0,6
15980.796,-0.54,0.32,0.792,6.35,-20.48,4.12,0,6
15980.812,-0.444,0.294,0.726,2.32,-22.43,4.58,0,6
15980.828,-0.477,0.318,0.781,1.95,-19.26,3.63,0,6
15980.828,-0.481,0.274,0.826,9.31,-19.38,5.71,0,6
15980.843,-0.439,0.288,0.793,11.78,-22.8,6.81,0,6
15980.859,-0.407,0.293,0.783,9.06,-22.0,5.98,0,6
15980.875,-0.393,0.296,0.778,7.6,-19.87,5.52,0,6
15980.875,-0.39,0.3,0.774,6.74,-16.48,4.73,0,6
15980.89,-0.387,0.303,0.767,5.92,-12.3,3.69,0,6
15980.906,-0.384,0.309,0.758,5.16,-7.39,2.87,0,6
15980.906,-0.394,0.312,0.761,4.76,-1.98,1.65,0,6
15980.921,-0.411,0.319,0.771,4.61,2.84,0.4,0,6
15980.937,-0.434,0.328,0.78,4.61,5.68,-0.21,0,6
15980.937,-0.456,0.339,0.791,4.33,6.87,0.03,0,6
15980.953,-0.481,0.355,0.804,3.39,6.16,0.79,0,6
15980.968,-0.502,0.367,0.823,1.95,2.9,2.44,0,6
15980.968,-0.498,0.376,0.828,0.37,-1.4,4.85,0,6
15980.984,-0.493,0.381,0.818,-1.22,-4.43,7.32,0,6
15981.0,-0.486,0.379,0.811,-2.87,-5.89,10.13,0,6
15981.0,-0.471,0.37,0.809,-4.06,-6.1,12.54,0,6
15981.015,-0.459,0.353,0.807,-4.18,-5.28,14.19,0,6
15981.031,-0.45,0.335,0.807,-3.81,-3.23,15.17,0,6
15981.046,-0.455,0.324,0.809,-3.75,-3.11,14.28,0,6
15981.046,-0.466,0.32,0.813,-3.11,-3.78,13.09,0,6
15981.062,-0.478,0.33,0.816,-1.74,-5.13,12.63,0,6
15981.078,-0.489,0.339,0.818,-0.03,-7.05,12.6,0,6
15981.078,-0.491,0.344,0.815,0.95,-9.58,12.94,0,6
15981.093,-0.485,0.346,0.808,0.82,-11.78,13.76,0,6
15981.109,-0.478,0.347,0.799,0.31,-12.36,14.47,0,6
15981.109,-0.47,0.352,0.79,-0.7,-11.84,15.41,0,6
15981.125,-0.459,0.358,0.786,-2.17,-10.35,15.87,0,6
15981.14,-0.444,0.349,0.785,-3.02,-7.93,15.72,0,6
15981.14,-0.43,0.344,0.789,-3.08,-4.64,15.47,0,6
15981.156,-0.429,0.353,0.792,-2.53,-0.76,15.23,0,6
15981.156,-0.436,0.353,0.799,-2.14,2.47,14.86,0,6
15981.171,-0.436,0.355,0.806,-2.9,4.21,14.4,0,6
15981.187,-0.436,0.363,0.815,-3.6,4.67,14.1,0,6
15981.203,-0.436,0.367,0.823,-4.39,3.97,14.92,0,6
15981.218,-0.432,0.368,0.835,-4.67,3.42,15.84,0,6
15981.218,-0.437,0.364,0.845,-4.76,2.75,16.48,0,6
15981.234,-0.43,0.355,0.848,-4.06,1.46,16.94,0,6
15981.234,-0.418,0.359,0.846,-2.84,0.79,17.33,0,6
15981.25,-0.413,0.358,0.84,-1.92,0.89,17.37,0,6
15981.265,-0.405,0.349,0.84,-1.77,1.13,16.75,0,6
15981.265,-0.394,0.344,0.841,-1.71,1.59,15.78,0,6
15981.281,-0.385,0.343,0.832,-1.34,1.98,14.86,0,6
15981.296,-0.38,0.346,0.831,-1.37,2.08,14.1,0,6
15981.296,-0.372,0.347,0.832,-2.17,2.04,13.4,0,6
15981.312,-0.367,0.347,0.838,-3.05,2.62,13.09,0,6
15981.328,-0.373,0.349,0.854,-3.66,3.36,13.03,0,6
15981.328,-0.378,0.349,0.891,-2.35,4.15,13.49,0,6
15981.343,-0.403,0.343,0.869,1.19,4.73,14.8,0,6
15981.359,-0.396,0.371,0.853,1.1,4.27,19.26,0,6
15981.375,-0.369,0.373,0.864,-12.79,-2.99,21.3,0,6
15981.375,-0.366,0.359,0.86,-19.17,-8.18,17.76,0,6
15981.39,-0.386,0.365,0.854,-22.13,-14.04,12.82,0,6
15981.406,-0.384,0.377,0.85,-25.21,-21.18,8.39,0,6
15981.421,-0.377,0.389,0.859,-28.14,-27.65,5.86,0,6
15981.421,-0.354,0.397,0.854,-35.68,-30.73,7.93,0,6
15981.437,-0.312,0.367,0.845,-34.88,-24.72,10.68,0,6
15981.437,-0.293,0.312,0.828,-32.56,-16.97,13.09,0,6
15981.453,-0.313,0.268,0.867,-30.18,-10.71,13.79,0,6
15981.468,-0.334,0.262,0.87,-25.85,-5.68,13.89,0,6
15981.468,-0.346,0.27,0.866,-20.57,-3.02,14.44,0,6
15981.484,-0.35,0.278,0.859,-16.51,-2.87,13.82,0,6
15981.484,-0.349,0.296,0.847,-13.31,-3.57,12.63,0,6
15981.5,-0.354,0.3,0.833,-10.68,-3.39,11.66,0,6
15981.515,-0.36,0.295,0.819,-8.48,-1.89,10.65,0,6
15981.515,-0.373,0.282,0.816,-6.81,1.31,10.74,0,6
15981.546,-0.397,0.283,0.811,-2.08,9.03,8.82,0,6
15981.546,-0.429,0.252,0.821,0.64,10.74,7.87,0,6
15981.562,-0.439,0.277,0.818,3.94,10.19,6.68,0,6
15981.578,-0.433,0.287,0.815,3.11,7.78,4.58,0,6
15981.578,-0.439,0.267,0.802,0.09,4.73,2.75,0,6
15981.593,-0.439,0.267,0.778,-2.93,2.84,0.15,0,6
15981.609,-0.423,0.253,0.772,-7.14,3.3,-2.62,0,6
15981.609,-0.427,0.248,0.738,-7.97,7.54,-4.79,0,6
15981.625,-0.427,0.251,0.716,-7.29,14.71,-4.12,0,6
15981.625,-0.428,0.25,0.696,-6.38,22.95,-2.59,0,6
15981.64,-0.419,0.261,0.662,-7.14,31.83,-0.46,0,6
15981.656,-0.403,0.265,0.647,-12.3,41.47,-0.67,0,6
15981.656,-0.443,0.241,0.655,-19.01,50.66,-4.91,0,6
15981.671,-0.577,0.256,0.794,-25.88,56.0,-10.07,0,6
15981.687,-0.744,0.271,1.012,-27.89,47.7,-9.92,0,6
15981.687,-0.799,0.38,1.146,-28.14,22.52,1.5,0,6
15981.718,-0.617,0.342,1.066,-33.51,-21.24,10.59,0,6
15981.718,-0.565,0.24,0.976,-29.69,-26.58,8.61,0,6
15981.734,-0.505,0.215,0.897,-21.06,-22.0,4.88,0,6
15981.75,-0.515,0.217,0.882,-7.42,-8.48,2.29,0,6
15981.75,-0.543,0.197,0.888,7.45,3.3,0.52,0,6
15981.765,-0.575,0.22,0.896,19.41,9.74,-1.13,0,6
15981.765,-0.616,0.254,0.9,26.64,9.61,-1.53,0,6
15981.781,-0.658,0.245,0.897,28.99,2.78,-1.04,0,6
15981.796,-0.73,0.267,0.922,28.26,-10.35,-0.49,0,6
15981.796,-0.6,0.199,0.933,31.8,-29.18,3.72,0,6
15981.812,-0.484,0.122,0.753,22.98,-48.65,-9.8,0,6
15981.828,-0.564,0.152,0.794,13.55,-53.8,-27.92,0,6
15981.828,-0.49,0.127,0.855,18.19,-55.67,-30.27,0,6
15981.843,-0.452,0.151,0.807,22.64,-58.53,-32.99,0,6
15981.859,-0.434,0.155,0.78,18.74,-59.51,-40.93,0,6
15981.859,-0.4,0.178,0.808,9.19,-60.76,-49.35,0,6
15981.875,-0.352,0.17,0.823,0.82,-66.23,-61.77,0,6
15981.89,-0.32,0.196,0.807,4.55,-66.59,-63.84,0,6
15981.906,-0.275,0.243,0.78,11.35,-63.48,-63.3,0,6
15981.921,-0.244,0.282,0.752,19.5,-55.36,-61.46,0,6
15981.921,-0.24,0.309,0.732,26.92,-43.61,-57.89,0,6
15981.937,-0.244,0.348,0.721,30.95,-30.98,-52.61,0,6
15981.937,-0.249,0.366,0.723,30.79,-18.19,-46.02,0,6
15981.953,-0.259,0.362,0.713,26.64,-5.31,-39.31,0,6
15981.968,-0.254,0.39,0.722,20.39,5.22,-30.7,0,6
15981.968,-0.247,0.389,0.718,14.53,14.65,-22.83,0,6
15981.984,-0.254,0.359,0.73,7.72,22.34,-17.73,0,6
15982.0,-0.269,0.325,0.746,7.72,30.49,-14.22,0,6
15982.0,-0.353,0.433,0.827,13.21,37.35,-8.09,0,6
15982.015,-0.391,0.553,0.914,8.3,36.71,3.05,0,6
15982.031,-0.375,0.47,0.936,2.87,30.06,10.56,0,6
15982.031,-0.412,0.458,0.945,-2.44,24.14,16.69,0,6
15982.046,-0.37,0.462,0.975,-13.31,14.53,27.68,0,6
15982.062,-0.372,0.428,0.98,-21.06,9.98,25.3,0,6
15982.078,-0.375,0.41,0.998,-24.9,7.14,21.15,0,6
15982.093,-0.388,0.376,1.011,-21.3,4.36,17.49,0,6
15982.093,-0.395,0.342,1.01,-12.6,1.28,14.5,0,6
15982.109,-0.394,0.324,0.997,-3.51,-2.41,10.93,0,6
15982.109,-0.386,0.315,0.976,5.13,-6.56,6.35,0,6
15982.125,-0.381,0.292,0.923,12.6,-10.77,1.4,0,6
15982.125,-0.396,0.292,0.904,17.33,-12.85,-2.11,0,6
15982.14,-0.394,0.309,0.89,20.57,-14.01,-3.02,0,6
15982.156,-0.384,0.332,0.861,22.49,-15.02,-2.35,0,6
15982.156,-0.389,0.37,0.857,21.67,-15.84,-1.4,0,6
15982.171,-0.334,0.361,0.812,16.88,-16.11,0.43,0,6
15982.187,-0.333,0.302,0.771,16.27,-12.76,-0.64,0,6
15982.187,-0.355,0.329,0.783,13.67,-6.93,-0.98,0,6
15982.203,-0.351,0.328,0.788,11.66,-3.54,-1.16,0,6
15982.218,-0.363,0.281,0.825,5.4,-0.03,-3.57,0,6
15982.234,-0.383,0.303,0.833,6.44,0.18,-3.75,0,6
15982.234,-0.382,0.321,0.833,8.58,0.79,-0.61,0,6
15982.25,-0.362,0.314,0.831,6.93,-0.09,0.52,0,6
15982.265,-0.356,0.301,0.834,2.72,-1.25,-1.65,0,6
15982.265,-0.36,0.303,0.841,-0.21,-1.46,-4.0,0,6
15982.281,-0.362,0.294,0.845,-1.22,-1.37,-5.25,0,6
15982.296,-0.363,0.289,0.849,-1.68,-1.1,-6.44,0,6
15982.296,-0.366,0.29,0.85,-0.92,-0.09,-7.57,0,6
15982.312,-0.369,0.297,0.846,0.09,1.25,-8.09,0,6
15982.328,-0.365,0.303,0.845,0.95,2.72,-8.09,0,6
15982.328,-0.373,0.312,0.853,1.16,3.91,-7.78,0,6
15982.343,-0.383,0.324,0.867,-0.46,4.03,-6.35,0,6
15982.343,-0.381,0.321,0.876,-2.2,2.81,-4.64,0,6
15982.359,-0.381,0.32,0.877,-3.97,1.43,-3.69,0,6
15982.375,-0.381,0.318,0.884,-5.58,0.46,-2.87,0,6
15982.39,-0.378,0.31,0.886,-6.32,-0.4,-2.44,0,6
15982.39,-0.374,0.307,0.884,-6.68,-1.1,-2.59,0,6
15982.406,-0.372,0.311,0.882,-7.78,-2.11,-4.39,0,6
15982.406,-0.377,0.311,0.885,-6.68,-2.32,-4.58,0,6
15982.421,-0.381,0.308,0.884,-5.07,-2.08,-4.33,0,6
15982.437,-0.381,0.312,0.876,-4.09,-1.83,-4.39,0,6
15982.437,-0.39,0.318,0.876,-3.45,-1.8,-4.46,0,6
15982.453,-0.396,0.318,0.876,-2.59,-2.23,-4.24,0,6
15982.453,-0.402,0.319,0.876,-2.01,-3.36,-3.63,0,6
15982.468,-0.398,0.32,0.874,-1.68,-5.22,-2.87,0,6
15982.484,-0.4,0.32,0.869,-1.86,-7.35,-2.11,0,6
15982.5,-0.387,0.305,0.867,-2.9,-9.95,-1.4,0,6
15982.5,-0.377,0.276,0.874,-5.19,-12.42,-3.23,0,6
15982.515,-0.382,0.281,0.868,-4.94,-12.42,-4.27,0,6
15982.531,-0.365,0.293,0.856,-3.51,-10.01,-2.72,0,6
15982.531,-0.358,0.282,0.85,-2.59,-6.9,-1.65,0,6
15982.546,-0.364,0.268,0.85,-1.74,-3.63,-2.2,0,6
15982.546,-0.38,0.285,0.855,-0.24,-0.55,-2.44,0,6
15982.562,-0.391,0.289,0.861,2.01,1.19,-1.56,0,6
15982.578,-0.404,0.289,0.867,3.17,0.64,-1.5,0,6
15982.578,-0.408,0.299,0.872,2.9,-1.43,-1.68,0,6
15982.593,-0.403,0.303,0.87,2.2,-3.72,-1.19,0,6
15982.609,-0.396,0.3,0.858,1.19,-5.43,-0.27,0,6
15982.609,-0.384,0.291,0.85,-0.12,-5.89,0.49,0,6
15982.625,-0.376,0.284,0.85,-0.73,-5.1,0.98,0,6
15982.625,-0.374,0.282,0.849,-0.73,-3.85,0.7,0,6
15982.64,-0.369,0.273,0.851,-0.58,-2.56,-0.52,0,6
15982.656,-0.373,0.293,0.862,-0.06,-1.1,-1.56,0,6
15982.656,-0.374,0.308,0.876,0.18,0.31,-1.16,0,6
15982.671,-0.383,0.312,0.884,0.12,0.64,-0.82,0,6
15982.687,-0.391,0.319,0.891,0.12,0.43,0.12,0,6
15982.687,-0.389,0.319,0.899,0.18,-0.58,1.62,0,6
15982.703,-0.385,0.307,0.899,1.04,-2.11,2.53,0,6
15982.718,-0.382,0.303,0.9,2.32,-3.75,2.87,0,6
15982.718,-0.375,0.299,0.881,3.69,-5.34,3.2,0,6
15982.734,-0.365,0.3,0.862,4.12,-5.71,2.41,0,6
15982.75,-0.365,0.305,0.867,4.55,-4.73,1.22,0,6
15982.75,-0.365,0.31,0.865,4.61,-3.69,0.09,0,6
15982.765,-0.373,0.315,0.868,3.48,-3.11,-0.55,0,6
15982.765,-0.387,0.32,0.879,2.47,-3.11,-0.18,0,6
15982.781,-0.382,0.319,0.879,0.92,-4.18,1.16,0,6
15982.796,-0.365,0.307,0.872,-1.37,-5.34,1.62,0,6
15982.796,-0.361,0.294,0.87,-3.2,-5.58,1.22,0,6
15982.812,-0.362,0.287,0.873,-3.36,-5.25,0.92,0,6
15982.828,-0.358,0.28,0.876,-2.84,-5.04,0.18,0,6
15982.828,-0.365,0.278,0.879,-1.74,-5.04,-1.07,0,6
15982.843,-0.367,0.283,0.878,-0.82,-5.89,-2.32,0,6
15982.843,-0.359,0.291,0.872,-0.67,-6.68,-3.78,0,6
15982.859,-0.363,0.298,0.865,-0.7,-6.68,-5.19,0,6
15982.875,-0.364,0.298,0.858,-0.67,-6.29,-6.23,0,6
15982.875,-0.358,0.295,0.847,-0.27,-5.43,-6.81,0,6
15982.89,-0.355,0.29,0.834,0.82,-3.69,-7.35,0,6
15982.906,-0.352,0.254,0.802,4.12,0.18,-7.11,0,6
15982.921,-0.353,0.233,0.801,6.38,2.01,-6.53,0,6
15982.937,-0.362,0.239,0.775,10.44,4.79,-6.41,0,6
15982.937,-0.371,0.29,0.794,14.65,7.57,-4.7,0,6
15982.953,-0.361,0.297,0.812,16.36,9.0,-2.81,0,6
15982.968,-0.301,0.27,0.8,14.31,11.26,-2.17,0,6
15982.968,-0.358,0.303,0.798,12.63,18.62,-7.23,0,6
15982.984,-0.517,0.412,0.98,13.43,20.51,-5.71,0,6
15983.0,-0.427,0.473,0.968,0.61,7.23,1.5,0,6
15983.0,-0.389,0.444,0.919,-13.0,-0.98,4.82,0,6
15983.015,-0.379,0.383,0.911,-21.09,-1.19,7.84,0,6
15983.015,-0.356,0.363,0.916,-23.53,0.18,9.28,0,6
15983.031,-0.378,0.318,0.918,-19.26,2.14,8.18,0,6
15983.046,-0.399,0.302,0.926,-12.18,2.62,6.38,0,6
15983.046,-0.403,0.289,0.926,-3.39,1.46,4.58,0,6
15983.062,-0.406,0.298,0.926,4.15,-0.79,3.14,0,6
15983.078,-0.41,0.319,0.919,8.48,-5.34,2.96,0,6
15983.093,-0.439,0.345,0.936,6.1,-9.37,4.39,0,6
15983.109,-0.332,0.319,0.858,-0.31,-13.49,6.38,0,6
15983.109,-0.352,0.247,0.819,-1.4,-10.04,2.81,0,6
15983.125,-0.397,0.265,0.848,0.92,-5.95,0.95,0,6
15983.125,-0.366,0.307,0.855,2.44,-5.52,1.71,0,6
15983.14,-0.366,0.313,0.851,0.24,-6.26,1.1,0,6
15983.156,-0.351,0.298,0.837,-2.35,-5.98,0.67,0,6
15983.156,-0.348,0.292,0.828,-2.93,-3.75,0.21,0,6
15983.171,-0.346,0.307,0.832,-4.33,-1.43,-0.43,0,6
15983.187,-0.342,0.309,0.841,-5.07,0.73,-0.89,0,6
15983.203,-0.359,0.294,0.848,-4.0,2.9,-0.85,0,6
15983.203,-0.359,0.309,0.862,-4.27,2.99,-0.82,0,6
15983.218,-0.349,0.302,0.861,-3.17,3.11,0.0,0,6
15983.218,-0.349,0.289,0.858,-1.8,3.85,0.73,0,6
15983.234,-0.349,0.288,0.857,-1.62,4.49,0.95,0,6
15983.25,-0.356,0.289,0.856,-2.72,4.27,0.15,0,6
15983.265,-0.355,0.29,0.852,-5.25,3.11,-0.61,0,6
15983.265,-0.352,0.285,0.848,-7.02,2.62,-1.25,0,6
15983.281,-0.351,0.285,0.84,-7.75,3.2,-1.22,0,6
15983.296,-0.352,0.281,0.834,-8.51,4.12,-1.1,0,6
15983.312,-0.352,0.273,0.827,-8.79,4.85,-1.07,0,6
15983.312,-0.355,0.267,0.822,-8.88,5.83,-1.22,0,6
15983.328,-0.362,0.264,0.82,-9.22,6.71,-1.5,0,6
15983.328,-0.374,0.26,0.821,-9.31,7.35,-1.74,0,6
15983.343,-0.389,0.265,0.825,-9.19,7.2,-1.53,0,6
15983.343,-0.397,0.274,0.824,-9.52,6.29,-0.92,0,6
15983.359,-0.396,0.279,0.819,-11.35,4.76,-0.09,0,6
15983.375,-0.387,0.282,0.812,-14.31,3.72,0.85,0,6
15983.39,-0.385,0.284,0.81,-21.73,4.58,3.23,0,6
15983.39,-0.383,0.283,0.809,-25.88,5.65,4.7,0,6
15983.406,-0.383,0.27,0.818,-28.9,6.62,5.92,0,6
15983.406,-0.389,0.258,0.832,-29.94,7.17,7.45,0,6
15983.421,-0.397,0.245,0.856,-29.88,7.32,8.73,0,6
15983.437,-0.418,0.272,0.899,-29.69,6.41,9.86,0,6
15983.437,-0.423,0.307,0.942,-32.04,2.44,12.73,0,6
15983.453,-0.4,0.303,0.944,-36.5,-2.93,14.65,0,6
15983.468,-0.38,0.281,0.949,-39.12,-5.86,15.44,0,6
15983.468,-0.376,0.266,0.967,-37.84,-6.71,15.38,0,6
15983.484,-0.381,0.257,0.985,-33.6,-7.23,14.13,0,6
15983.484,-0.392,0.252,0.995,-27.74,-8.85,12.7,0,6
15983.5,-0.389,0.244,0.979,-20.84,-11.72,11.6,0,6
15983.515,-0.372,0.24,0.948,-15.08,-14.37,9.98,0,6
15983.531,-0.356,0.236,0.917,-10.99,-14.8,7.39,0,6
15983.531,-0.358,0.238,0.889,-8.88,-13.34,4.91,0,6
15983.546,-0.365,0.242,0.873,-9.03,-11.38,3.51,0,6
15983.546,-0.366,0.244,0.862,-10.77,-9.0,2.96,0,6
15983.562,-0.375,0.245,0.868,-12.45,-6.16,3.05,0,6
15983.578,-0.386,0.247,0.877,-13.79,-4.03,3.51,0,6
15983.578,-0.394,0.242,0.892,-14.44,-2.81,4.36,0,6
15983.593,-0.397,0.23,0.897,-13.92,-2.08,5.37,0,6
15983.609,-0.394,0.218,0.902,-12.85,-2.08,5.77,0,6
15983.609,-0.386,0.207,0.905,-11.63,-2.47,5.43,0,6
15983.625,-0.386,0.202,0.907,-9.77,-3.08,5.22,0,6
15983.625,-0.379,0.198,0.898,-8.61,-4.18,5.19,0,6
15983.64,-0.37,0.196,0.888,-8.61,-5.19,5.01,0,6
15983.656,-0.37,0.196,0.883,-9.31,-5.22,4.46,0,6
15983.656,-0.367,0.194,0.876,-10.56,-5.31,4.06,0,6
15983.671,-0.363,0.192,0.869,-11.32,-4.97,4.18,0,6
15983.687,-0.364,0.19,0.864,-11.35,-3.17,4.33,0,6
15983.687,-0.369,0.191,0.873,-12.45,-1.89,4.0,0,6
15983.703,-0.37,0.192,0.883,-13.98,-1.53,3.57,0,6
15983.718,-0.369,0.191,0.887,-14.1,-1.19,3.54,0,6
15983.718,-0.367,0.185,0.885,-13.37,-1.31,3.45,0,6
15983.734,-0.361,0.175,0.875,-11.96,-1.56,3.17,0,6
15983.75,-0.361,0.168,0.864,-9.86,-1.07,2.84,0,6
15983.75,-0.358,0.169,0.853,-8.7,-0.31,1.77,0,6
15983.765,-0.355,0.177,0.851,-8.64,0.58,0.89,0,6
15983.765,-0.359,0.189,0.865,-9.64,2.01,1.04,0,6
15983.781,-0.375,0.199,0.866,-11.63,2.72,1.71,0,6
15983.796,-0.395,0.213,0.85,-15.26,1.89,2.59,0,6
15983.796,-0.402,0.227,0.826,-19.62,0.76,4.3,0,6
15983.812,-0.41,0.247,0.804,-24.87,0.82,6.41,0,6
15983.828,-0.397,0.242,0.802,-31.43,1.83,10.16,0,6
15983.843,-0.366,0.212,0.817,-38.36,6.07,15.2,0,6
15983.843,-0.293,0.138,0.792,-45.63,14.13,19.71,0,6
15983.843,-0.385,0.17,0.918,-49.26,23.22,21.3,0,6
15983.859,-0.459,0.094,1.105,-47.03,18.31,25.73,0,6
15983.875,-0.37,0.057,1.114,-47.73,5.07,26.55,0,6
15983.89,-0.309,0.071,1.111,-46.14,-0.98,24.38,0,6
15983.89,-0.298,0.045,1.106,-37.9,-1.46,19.07,0,6
15983.906,-0.306,0.05,1.092,-26.8,-0.24,13.18,0,6
15983.906,-0.326,0.099,1.068,-16.75,1.04,8.27,0,6
15983.921,-0.342,0.153,1.027,-9.09,0.46,4.64,0,6
15983.937,-0.346,0.188,0.991,-5.46,-0.52,3.42,0,6
15983.937,-0.358,0.213,0.97,-6.01,-0.61,4.06,0,6
15983.953,-0.375,0.214,0.96,-8.61,-0.98,5.4,0,6
15983.968,-0.384,0.2,0.953,-10.96,-2.26,7.45,0,6
15983.968,-0.384,0.181,0.944,-12.94,-3.69,9.55,0,6
15983.984,-0.4,0.172,0.963,-14.37,-5.37,10.59,0,6
15983.984,-0.391,0.149,0.975,-14.19,-9.83,12.51,0,6
15984.0,-0.319,0.109,0.885,-15.69,-12.12,11.96,0,6
15984.015,-0.346,0.094,0.891,-13.98,-8.3,8.48,0,6
15984.015,-0.361,0.036,0.951,-10.04,-7.08,4.3,0,6
15984.031,-0.377,0.068,0.953,-4.85,-10.8,-1.07,0,6
15984.046,-0.339,0.111,0.894,1.13,-10.93,0.27,0,6
15984.046,-0.323,0.103,0.862,2.53,-8.58,-0.21,0,6
15984.062,-0.347,0.107,0.864,2.35,-5.37,-3.54,0,6
15984.078,-0.339,0.128,0.863,2.38,-3.11,-4.97,0,6
15984.078,-0.343,0.144,0.861,2.08,-1.19,-5.68,0,6
15984.093,-0.35,0.146,0.865,1.31,0.89,-4.97,0,6
15984.109,-0.354,0.153,0.873,0.31,2.78,-2.75,0,6
15984.109,-0.358,0.154,0.88,-1.1,4.27,-0.06,0,6
15984.125,-0.369,0.149,0.891,-3.54,4.67,2.5,0,6
15984.14,-0.373,0.138,0.908,-6.35,3.48,4.88,0,6
15984.14,-0.372,0.125,0.916,-8.55,1.01,6.16,0,6
15984.156,-0.36,0.113,0.909,-8.97,-1.1,6.16,0,6
15984.156,-0.346,0.101,0.903,-7.51,-1.65,5.01,0,6
15984.171,-0.343,0.103,0.897,-4.46,-0.73,3.23,0,6
15984.187,-0.349,0.107,0.894,-1.46,0.73,1.62,0,6
15984.187,-0.348,0.109,0.891,0.67,2.38,0.73,0,6
15984.203,-0.349,0.112,0.891,1.71,3.85,0.24,0,6
15984.218,-0.354,0.109,0.895,2.38,5.19,0.18,0,6
15984.218,-0.359,0.108,0.902,2.75,5.95,0.24,0,6
15984.234,-0.369,0.11,0.912,2.66,5.83,0.09,0,6
15984.25,-0.378,0.111,0.918,2.29,4.58,-0.24,0,6
15984.25,-0.369,0.116,0.914,1.5,2.35,-0.61,0,6
15984.265,-0.366,0.124,0.909,0.73,1.13,-1.25,0,6
15984.281,-0.366,0.125,0.902,-0.55,0.61,-1.13,0,6
15984.296,-0.364,0.133,0.903,-0.92,1.46,-0.49,0,6
15984.296,-0.366,0.13,0.906,-1.46,2.32,0.09,0,6
15984.312,-0.361,0.128,0.91,-2.44,2.78,0.89,0,6
15984.328,-0.365,0.132,0.911,-3.17,3.14,1.25,0,6
15984.328,-0.377,0.138,0.914,-3.33,2.66,1.95,0,6
15984.343,-0.373,0.148,0.905,-3.51,1.25,3.42,0,6
15984.343,-0.366,0.158,0.894,-4.97,0.58,5.25,0,6
15984.359,-0.36,0.155,0.893,-10.71,3.36,10.16,0,6
15984.375,-0.363,0.139,0.899,-13.82,4.52,12.24,0,6
15984.375,-0.371,0.118,0.908,-16.33,4.24,12.73,0,6
15984.39,-0.382,0.099,0.928,-19.1,1.34,10.96,0,6
15984.406,-0.37,0.073,0.942,-20.87,-2.72,7.48,0,6
15984.421,-0.358,0.07,0.936,-19.1,-4.85,3.97,0,6
15984.421,-0.353,0.067,0.925,-14.34,-4.61,1.31,0,6
15984.437,-0.349,0.069,0.913,-8.24,-2.44,-0.34,0,6
15984.453,-0.367,0.091,0.906,1.86,3.75,-0.52,0,6
15984.468,-0.383,0.099,0.912,3.3,5.1,0.4,0,6
15984.468,-0.385,0.102,0.91,2.5,4.79,1.74,0,6
15984.484,-0.376,0.102,0.906,1.43,4.33,2.59,0,6
15984.5,-0.376,0.101,0.901,1.01,4.85,2.59,0,6
15984.5,-0.382,0.099,0.902,1.92,5.71,2.84,0,6
15984.515,-0.388,0.101,0.906,3.02,6.35,3.45,0,6
15984.515,-0.381,0.097,0.911,2.75,5.89,3.94,0,6
15984.531,-0.383,0.078,0.919,0.82,4.64,2.62,0,6
15984.546,-0.386,0.071,0.927,-2.2,2.35,0.24,0,6
15984.546,-0.379,0.07,0.933,-3.78,-0.31,-1.59,0,6
15984.562,-0.381,0.079,0.934,-2.75,-2.14,-2.38,0,6
15984.578,-0.374,0.092,0.925,-0.82,-3.08,-2.17,0,6
15984.578,-0.379,0.099,0.921,0.21,-2.93,-2.2,0,6
15984.593,-0.384,0.105,0.922,0.12,-2.41,-1.98,0,6
15984.609,-0.388,0.104,0.927,-0.46,-2.26,-1.59,0,6
15984.625,-0.375,0.091,0.923,-0.67,-2.99,-1.13,0,6
15984.625,-0.37,0.088,0.923,0.34,-2.62,-1.68,0,6
15984.64,-0.378,0.092,0.93,1.65,-2.2,-2.14,0,6
15984.656,-0.385,0.101,0.93,2.59,-2.26,-2.08,0,6
15984.656,-0.381,0.108,0.927,1.83,-2.81,-1.86,0,6
15984.671,-0.379,0.108,0.925,0.61,-2.75,-1.68,0,6
15984.687,-0.376,0.103,0.923,-0.18,-2.47,-1.16,0,6
15984.687,-0.377,0.101,0.921,-0.82,-2.26,-1.01,0,6
15984.703,-0.375,0.098,0.922,-0.82,-2.14,-1.13,0,6
15984.718,-0.374,0.102,0.921,-0.43,-1.59,-1.31,0,6
15984.718,-0.374,0.104,0.92,0.0,-1.25,-1.22,0,6
15984.734,-0.374,0.106,0.927,-0.4,-0.67,-1.01,0,6
15984.734,-0.382,0.106,0.934,-0.98,-0.03,-0.58,0,6
15984.75,-0.39,0.104,0.937,-2.62,-0.67,-0.37,0,6
15984.765,-0.387,0.101,0.935,-4.33,-1.95,-0.37,0,6
15984.765,-0.386,0.098,0.931,-4.33,-2.2,-0.49,0,6
15984.781,-0.388,0.092,0.932,-2.81,-1.86,-0.64,0,6
15984.796,-0.389,0.093,0.936,-0.64,-1.37,-0.85,0,6
15984.796,-0.396,0.096,0.941,1.71,-0.95,-1.07,0,6
15984.812,-0.398,0.095,0.943,3.33,-0.67,-1.22,0,6
15984.828,-0.398,0.091,0.946,4.12,-0.49,-1.4,0,6
15984.828,-0.408,0.089,0.96,4.82,-0.03,-1.56,0,6
15984.843,-0.427,0.09,0.975,5.8,0.58,-1.83,0,6
15984.843,-0.43,0.088,0.999,6.16,-0.21,-2.14,0,6
15984.859,-0.436,0.096,1.033,6.59,-2.23,-2.32,0,6
15984.875,-0.453,0.128,1.081,9.25,-3.51,-1.1,0,6
15984.875,-0.457,0.128,1.126,14.44,-5.4,1.8,0,6
15984.89,-0.443,0.143,1.181,19.53,-8.15,5.28,0,6
15984.906,-0.432,0.154,1.238,24.99,-10.44,9.98,0,6
15984.921,-0.418,0.162,1.331,28.35,-12.36,15.75,0,6
15984.921,-0.411,0.172,1.464,29.42,-17.0,20.72,0,6
15984.937,-0.445,0.184,1.584,29.85,-26.37,24.69,0,6
15984.937,-0.453,0.187,1.668,30.27,-41.05,26.18,0,6
15984.953,-0.423,0.207,1.726,33.27,-57.53,23.29,0,6
15984.968,-0.393,0.223,1.744,42.05,-71.63,18.13,0,6
15984.968,-0.352,0.228,1.743,54.23,-81.58,13.64,0,6
15984.984,-0.313,0.24,1.743,67.78,-87.13,10.71,0,6
15985.0,-0.289,0.259,1.737,80.84,-90.33,10.68,0,6
15985.0,-0.271,0.288,1.72,89.45,-93.33,13.03,0,6
15985.015,-0.256,0.316,1.679,90.88,-98.15,15.9,0,6
15985.015,-0.226,0.341,1.624,85.51,-104.1,18.59,0,6
15985.031,-0.174,0.355,1.572,77.55,-107.94,21.27,0,6
15985.046,-0.126,0.351,1.538,69.55,-106.91,25.48,0,6
15985.062,-0.061,0.362,1.5,63.88,-101.05,32.5,0,6
15985.062,-0.05,0.325,1.464,58.41,-93.39,41.57,0,6
15985.078,0.02,0.405,1.428,52.58,-85.6,46.78,0,6
15985.078,0.021,0.378,1.369,46.05,-76.66,50.78,0,6
15985.093,0.042,0.361,1.356,37.39,-63.39,57.71,0,6
15985.109,0.056,0.359,1.306,36.01,-47.09,63.3,0,6
15985.109,0.021,0.383,1.267,37.39,-29.27,66.47,0,6
15985.125,-0.073,0.438,1.184,31.65,-5.95,69.67,0,6
15985.14,-0.127,0.445,1.144,20.87,0.27,70.31,0,6
15985.156,-0.191,0.437,1.086,9.98,4.15,70.83,0,6
15985.156,-0.233,0.434,1.042,-4.88,2.66,72.54,0,6
15985.171,-0.247,0.418,1.013,-21.42,-4.0,73.89,0,6
15985.187,-0.199,0.387,0.972,-36.26,-13.58,75.69,0,6
15985.187,-0.192,0.37,0.877,-47.06,-24.51,72.45,0,6
15985.203,-0.18,0.291,0.822,-55.82,-33.85,70.47,0,6
15985.218,-0.142,0.244,0.78,-57.95,-42.82,69.58,0,6
15985.218,-0.087,0.288,0.704,-54.78,-52.86,62.56,0,6
15985.234,-0.055,0.278,0.634,-52.06,-62.44,52.13,0,6
15985.25,-0.034,0.26,0.582,-51.64,-69.25,39.16,0,6
15985.25,-0.047,0.177,0.562,-53.1,-76.51,31.28,0,6
15985.265,-0.01,0.163,0.606,-55.42,-83.19,29.82,0,6
15985.265,0.033,0.204,0.581,-55.73,-87.16,25.18,0,6
15985.281,0.02,0.169,0.524,-61.83,-87.68,19.29,0,6
15985.312,0.057,0.062,0.523,-83.19,-82.34,14.89,0,6
15985.312,0.024,0.031,0.51,-84.23,-75.11,4.43,0,6
15985.328,-0.0,0.0,0.519,-83.32,-67.87,-7.93,0,6
15985.328,-0.057,-0.028,0.541,-77.79,-62.96,-20.14,0,6
15985.343,-0.087,-0.035,0.586,-64.73,-61.04,-28.69,0,6
15985.359,-0.071,0.023,0.608,-13.82,-63.84,-34.55,0,6
15985.359,-0.075,0.049,0.588,11.14,-64.46,-30.82,0,6
15985.375,-0.06,0.048,0.57,33.39,-60.82,-28.5,0,6
15985.375,-0.022,0.111,0.505,47.43,-52.31,-30.37,0,6
15985.39,-0.027,0.115,0.495,47.27,-39.61,-32.47,0,6
15985.406,-0.0,0.138,0.516,36.07,-24.45,-35.25,0,6
15985.406,0.025,0.175,0.556,16.6,-9.46,-41.38,0,6
15985.421,0.003,0.181,0.608,-8.94,3.2,-49.07,0,6
15985.437,-0.031,0.162,0.678,-34.49,10.65,-55.7,0,6
15985.437,-0.061,0.145,0.748,-52.64,10.71,-60.0,0,6
15985.453,-0.063,0.136,0.803,-58.78,3.88,-60.76,0,6
15985.468,-0.038,0.169,0.836,-52.77,-10.86,-53.32,0,6
15985.484,0.031,0.202,0.836,-53.47,-11.32,-49.84,0,6
15985.5,0.076,0.272,0.861,-60.67,-3.33,-48.55,0,6
15985.5,0.078,0.311,0.908,-76.48,9.16,-48.31,0,6
15985.515,0.07,0.301,0.971,-96.65,19.1,-45.9,0,6
15985.515,0.054,0.276,1.046,-113.56,25.24,-41.08,0,6
15985.531,0.012,0.246,1.107,-123.75,26.37,-35.28,0,6
15985.546,-0.018,0.201,1.143,-129.12,19.14,-30.0,0,6
15985.562,-0.006,0.139,1.159,-126.35,6.93,-26.73,0,6
15985.562,0.019,0.087,1.162,-113.38,-5.46,-26.52,0,6
15985.578,0.044,0.055,1.151,-91.65,-15.81,-28.96,0,6
15985.578,0.065,0.032,1.126,-63.33,-22.06,-32.44,0,6
15985.593,0.045,0.024,1.097,-32.96,-23.32,-34.76,0,6
15985.609,0.038,0.043,1.037,-4.97,-24.99,-36.84,0,6
15985.609,0.035,0.081,0.974,17.64,-27.83,-38.54,0,6
15985.625,0.014,0.133,0.926,34.09,-29.51,-38.36,0,6
15985.625,0.009,0.174,0.877,42.66,-31.8,-34.64,0,6
15985.64,0.022,0.2,0.828,42.82,-36.13,-28.5,0,6
15985.656,0.041,0.216,0.782,36.26,-40.74,-21.73,0,6
15985.656,0.067,0.217,0.746,24.87,-43.49,-14.71,0,6
15985.671,0.105,0.245,0.73,9.46,-43.15,-7.97,0,6
15985.687,0.118,0.223,0.731,-7.9,-39.61,-1.46,0,6
15985.687,0.125,0.21,0.751,-25.48,-33.72,5.52,0,6
15985.703,0.125,0.183,0.778,-39.31,-29.15,8.85,0,6
15985.718,0.119,0.071,0.792,-47.15,-26.76,12.36,0,6
15985.718,0.134,0.016,0.803,-46.45,-26.98,17.12,0,6
15985.734,0.177,0.005,0.797,-38.12,-26.95,19.59,0,6
15985.75,0.203,-0.006,0.793,-30.95,-22.8,19.14,0,6
15985.75,0.195,-0.045,0.799,-26.31,-18.71,17.4,0,6
15985.765,0.23,-0.054,0.806,-20.63,-16.69,14.74,0,6
15985.765,0.207,-0.073,0.821,-15.05,-13.64,12.6,0,6
15985.781,0.2,-0.099,0.824,-10.5,-12.51,11.47,0,6
15985.796,0.234,-0.07,0.833,-7.14,-12.94,9.52,0,6
15985.812,0.21,-0.067,0.827,-4.76,-11.38,5.89,0,6
15985.812,0.183,-0.092,0.823,-5.71,-11.17,2.93,0,6
15985.828,0.198,-0.085,0.839,-8.06,-12.12,3.2,0,6
15985.828,0.184,-0.091,0.842,-4.91,-13.4,3.36,0,6
15985.843,0.16,-0.138,0.804,4.94,-17.76,4.24,0,6
15985.843,0.244,-0.123,0.772,15.84,-22.1,7.02,0,6
15985.859,0.284,-0.078,0.762,22.4,-17.76,8.97,0,6
15985.875,0.28,-0.063,0.748,19.99,-10.01,8.18,0,6
15985.875,0.282,-0.039,0.758,9.86,-3.69,6.99,0,6
15985.89,0.269,-0.024,0.797,-2.87,1.07,6.04,0,6
15985.906,0.258,-0.027,0.83,-15.66,3.75,5.77,0,6
15985.906,0.258,-0.014,0.88,-27.07,6.9,6.38,0,6
15985.921,0.224,-0.064,0.932,-31.4,9.89,6.78,0,6
15985.937,0.184,-0.131,0.953,-23.99,7.63,7.63,0,6
15985.937,0.209,-0.139,0.918,-7.35,0.85,8.82,0,6
15985.953,0.275,-0.08,0.905,5.71,-1.22,8.61,0,6
15985.968,0.276,-0.042,0.909,8.09,3.6,5.92,0,6
15985.968,0.26,-0.051,0.915,2.9,7.63,2.53,0,6
15985.984,0.241,-0.061,0.944,-3.42,9.74,1.01,0,6
15986.0,0.217,-0.086,0.954,-6.29,7.84,0.21,0,6
15986.0,0.257,-0.091,0.939,-5.04,2.66,-0.55,0,6
15986.015,0.29,-0.04,0.943,-4.61,1.59,-1.89,0,6
15986.015,0.27,-0.029,0.94,-6.53,4.79,-3.81,0,6
15986.031,0.255,-0.029,0.963,-10.22,8.76,-4.21,0,6
15986.046,0.235,-0.027,0.989,-11.32,10.96,-3.17,0,6
15986.062,0.203,-0.019,1.014,-10.53,11.9,-2.14,0,6
15986.062,0.181,-0.028,1.02,-9.19,9.8,-1.59,0,6
15986.078,0.205,-0.025,1.019,-7.72,5.28,-0.37,0,6
15986.078,0.201,-0.028,1.014,-5.22,1.86,1.13,0,6
15986.093,0.203,-0.063,0.98,-0.67,-3.08,2.53,0,6
15986.093,0.246,-0.061,0.943,3.94,-6.84,3.75,0,6
15986.109,0.257,-0.045,0.918,5.98,-5.04,3.6,0,6
15986.125,0.236,-0.064,0.908,4.94,-0.7,2.56,0,6
15986.125,0.251,-0.051,0.915,1.01,3.2,1.92,0,6
15986.156,0.198,-0.049,0.951,-6.5,9.06,0.76,0,6
15986.156,0.196,-0.063,0.965,-5.58,8.09,1.28,0,6
15986.171,0.223,-0.051,0.973,-2.2,6.13,2.47,0,6
15986.187,0.237,-0.031,0.978,-0.12,6.44,3.48,0,6
15986.187,0.231,-0.026,0.984,-1.22,8.06,3.57,0,6
15986.203,0.21,-0.031,1.007,-5.04,9.58,3.97,0,6
15986.218,0.183,-0.058,1.023,-8.3,8.42,4.67,0,6
15986.218,0.196,-0.078,1.027,-9.37,3.91,5.13,0,6
15986.234,0.211,-0.082,1.016,-7.54,-1.1,4.85,0,6
15986.234,0.213,-0.087,0.998,-4.12,-3.88,4.36,0,6
15986.25,0.218,-0.081,0.972,-1.5,-4.58,3.75,0,6
15986.265,0.227,-0.054,0.961,-1.16,-3.33,3.2,0,6
15986.265,0.209,-0.048,0.954,-2.23,-0.76,2.26,0,6
15986.281,0.209,-0.059,0.952,-4.03,1.4,2.23,0,6
15986.296,0.209,-0.058,0.96,-4.82,3.54,3.2,0,6
15986.296,0.216,-0.067,0.972,-3.51,5.01,4.12,0,6
15986.328,0.205,-0.072,0.996,-0.31,6.78,4.67,0,6
15986.328,0.213,-0.06,1.009,-2.93,6.04,3.88,0,6
15986.343,0.199,-0.073,1.016,-4.7,5.31,3.97,0,6
15986.359,0.185,-0.097,1.017,-4.73,3.48,3.91,0,6
15986.359,0.189,-0.107,1.013,-3.2,1.8,2.93,0,6
15986.375,0.198,-0.103,0.997,-1.56,0.85,2.2,0,6
15986.375,0.202,-0.092,0.992,-0.85,0.31,1.89,0,6
15986.39,0.205,-0.091,0.99,-1.74,0.37,1.92,0,6
15986.406,0.217,-0.097,0.995,-3.72,0.98,1.71,0,6
15986.406,0.21,-0.113,1.004,-4.55,2.41,1.22,0,6
15986.421,0.207,-0.122,1.011,-3.39,2.75,0.15,0,6
15986.437,0.205,-0.117,1.024,-1.74,3.14,-0.92,0,6
15986.437,0.197,-0.108,1.028,-0.31,2.93,-2.01,0,6
15986.453,0.195,-0.098,1.031,0.34,1.89,-2.78,0,6
15986.468,0.193,-0.085,1.039,0.58,0.98,-2.96,0,6
15986.468,0.185,-0.088,1.037,0.89,-0.52,-3.42,0,6
15986.484,0.183,-0.086,1.023,1.19,-2.84,-3.97,0,6
15986.484,0.197,-0.079,1.02,1.28,-4.21,-4.64,0,6
15986.5,0.196,-0.077,1.007,1.37,-4.33,-5.22,0,6
15986.515,0.206,-0.073,0.994,0.67,-5.13,-5.89,0,6
15986.515,0.211,-0.068,0.984,-0.27,-5.31,-6.2,0,6
15986.531,0.207,-0.069,0.97,-1.07,-4.36,-6.84,0,6
15986.546,0.208,-0.065,0.963,-1.62,-3.11,-7.78,0,6
15986.546,0.196,-0.049,0.968,-1.56,-1.16,-8.64,0,6
15986.562,0.179,-0.053,0.972,0.09,-0.15,-8.82,0,6
15986.578,0.188,-0.044,0.971,2.69,-0.15,-8.33,0,6
15986.578,0.192,-0.024,0.964,4.76,0.7,-7.87,0,6
15986.593,0.195,-0.016,0.957,4.36,2.38,-7.87,0,6
15986.609,0.185,-0.002,0.96,2.17,4.39,-7.42,0,6
15986.609,0.172,-0.004,0.963,0.46,5.55,-5.86,0,6
15986.625,0.158,-0.018,0.97,-0.15,5.89,-3.6,0,6
15986.625,0.162,-0.03,0.957,1.13,4.27,-1.83,0,6
15986.64,0.187,-0.007,0.962,1.86,4.21,-0.7,0,6
15986.656,0.177,0.004,0.971,0.06,6.84,-0.03,0,6
15986.656,0.154,-0.003,0.986,-3.85,8.12,1.4,0,6
15986.671,0.142,-0.015,1.007,-6.9,7.63,3.39,0,6
15986.687,0.145,-0.039,1.026,-8.42,5.95,5.55,0,6
15986.687,0.162,-0.062,1.039,-8.21,3.57,7.54,0,6
15986.703,0.186,-0.075,1.049,-7.29,1.8,8.88,0,6
15986.718,0.192,-0.095,1.056,-5.92,1.34,9.06,0,6
15986.718,0.197,-0.113,1.054,-3.51,0.98,8.36,0,6
15986.734,0.199,-0.104,1.061,-1.4,1.43,7.66,0,6
15986.75,0.18,-0.114,1.069,0.0,1.8,6.56,0,6
15986.75,0.175,-0.129,1.072,2.11,0.27,5.8,0,6
15986.765,0.187,-0.123,1.066,4.76,-1.34,5.55,0,6
15986.765,0.189,-0.122,1.069,6.59,-1.16,4.64,0,6
15986.781,0.185,-0.13,1.062,8.0,-1.83,2.99,0,6
15986.796,0.195,-0.125,1.048,9.92,-3.81,1.37,0,6
15986.796,0.198,-0.11,1.047,11.96,-4.73,-0.18,0,6
15986.812,0.187,-0.104,1.04,13.37,-5.07,-1.34,0,6
15986.828,0.179,-0.103,1.024,15.02,-6.56,-2.2,0,6
15986.828,0.173,-0.105,1.002,18.71,-9.06,-2.69,0,6
15986.843,0.172,-0.112,0.965,24.05,-11.81,-3.11,0,6
15986.859,0.194,-0.097,0.922,28.75,-13.58,-3.85,0,6
15986.859,0.19,-0.063,0.888,30.09,-11.75,-5.16,0,6
15986.875,0.19,-0.039,0.885,26.98,-7.51,-6.74,0,6
15986.875,0.183,-0.026,0.905,21.85,-3.45,-7.42,0,6
15986.89,0.162,-0.031,0.939,18.22,-0.46,-6.5,0,6
15986.906,0.161,-0.039,0.97,16.63,0.52,-5.13,0,6
15986.906,0.164,-0.049,0.982,16.79,-0.82,-4.97,0,6
15986.921,0.185,-0.046,0.987,17.55,-2.53,-5.71,0,6
15986.937,0.191,-0.035,0.99,17.91,-3.08,-6.68,0,6
15986.937,0.191,-0.025,0.99,18.59,-3.3,-7.54,0,6
15986.953,0.195,0.003,0.997,19.04,-2.87,-7.57,0,6
15986.968,0.176,0.026,1.009,17.88,-1.65,-6.74,0,6
15986.968,0.173,0.022,1.019,15.63,-2.04,-5.52,0,6
15986.984,0.179,0.009,1.02,14.07,-3.72,-4.64,0,6
15987.0,0.174,-0.006,1.012,14.1,-5.4,-4.24,0,6
15987.0,0.184,-0.016,0.994,15.72,-6.78,-4.39,0,6
15987.015,0.21,0.004,0.974,16.54,-6.93,-5.07,0,6
15987.015,0.214,0.026,0.959,15.56,-6.2,-6.26,0,6
15987.031,0.203,0.04,0.951,13.4,-5.89,-7.2,0,6
15987.046,0.189,0.06,0.949,9.83,-5.34,-7.32,0,6
15987.046,0.184,0.065,0.951,4.15,-3.97,-7.14,0,6
15987.062,0.182,0.063,0.961,-1.86,-2.93,-6.78,0,6
15987.078,0.199,0.065,0.963,-5.52,-2.47,-6.47,0,6
15987.078,0.193,0.059,0.968,-7.81,-1.5,-5.86,0,6
15987.093,0.206,0.045,0.962,-8.15,-2.11,-4.85,0,6
15987.109,0.22,0.054,0.941,-6.53,-3.63,-4.33,0,6
15987.109,0.2,0.056,0.922,-5.71,-3.6,-3.63,0,6
15987.125,0.207,0.055,0.909,-7.51,-3.45,-2.87,0,6
15987.125,0.216,0.055,0.912,-11.32,-2.29,-1.4,0,6
15987.14,0.213,0.039,0.927,-16.36,-0.31,0.27,0,6
15987.156,0.223,0.003,0.941,-20.08,0.92,1.62,0,6
15987.156,0.229,-0.02,0.955,-21.0,2.01,1.68,0,6
15987.171,0.229,-0.024,0.965,-20.2,3.05,0.27,0,6
15987.187,0.228,-0.034,0.981,-18.1,3.17,-1.4,0,6
15987.187,0.23,-0.04,1.0,-14.13,2.69,-2.26,0,6
15987.203,0.233,-0.041,1.017,-9.95,2.96,-2.66,0,6
15987.203,0.217,-0.047,1.024,-5.71,3.54,-4.0,0,6
15987.218,0.211,-0.048,1.028,-1.65,3.39,-5.89,0,6
15987.234,0.203,-0.042,1.035,1.68,3.36,-7.32,0,6
15987.234,0.215,-0.046,1.023,5.86,2.35,-8.48,0,6
15987.25,0.233,-0.019,1.012,10.01,1.46,-9.0,0,6
15987.265,0.231,0.014,1.002,12.05,1.65,-9.03,0,6
15987.281,0.224,0.037,1.004,10.62,1.68,-8.7,0,6
15987.281,0.222,0.048,1.003,8.76,0.98,-7.6,0,6
15987.296,0.218,0.051,1.007,6.74,0.98,-5.37,0,6
15987.296,0.219,0.037,1.011,3.17,1.4,-2.81,0,6
15987.312,0.224,0.027,1.016,-4.67,0.7,-1.37,0,6
15987.328,0.218,0.015,1.021,-5.89,-0.92,-2.11,0,6
15987.328,0.221,-0.002,1.017,-4.97,-2.81,-3.14,0,6
15987.343,0.219,0.003,1.003,-2.41,-4.12,-2.96,0,6
15987.359,0.233,0.02,0.986,-0.85,-3.97,-1.86,0,6
15987.359,0.229,0.023,0.987,-0.85,-2.62,-1.4,0,6
15987.375,0.214,0.015,0.989,-1.01,-1.62,-1.8,0,6
15987.39,0.194,0.003,0.995,-0.7,-1.56,-1.68,0,6
15987.39,0.173,-0.009,0.991,0.09,-2.5,-1.65,0,6
15987.406,0.162,-0.009,0.982,1.19,-3.69,-2.14,0,6
15987.406,0.162,0.003,0.972,1.98,-4.55,-2.84,0,6
15987.421,0.166,0.015,0.975,0.73,-4.09,-3.2,0,6
15987.437,0.164,0.017,0.982,-0.7,-3.81,-3.75,0,6
15987.437,0.17,0.014,0.985,-0.85,-4.58,-3.54,0,6
15987.453,0.174,0.019,0.983,0.76,-6.01,-3.27,0,6
15987.468,0.182,0.016,0.974,3.02,-6.87,-2.44,0,6
15987.468,0.199,0.03,0.957,5.1,-7.48,-1.34,0,6
15987.484,0.21,0.041,0.954,5.22,-6.71,0.15,0,6
15987.5,0.214,0.054,0.955,3.72,-5.34,1.92,0,6
15987.5,0.203,0.04,0.953,1.28,-4.43,4.43,0,6
15987.515,0.203,0.016,0.959,-1.56,-4.94,7.87,0,6
15987.515,0.204,-0.022,0.953,-2.96,-6.13,9.74,0,6
15987.531,0.212,-0.033,0.947,-2.81,-6.68,10.44,0,6
15987.546,0.216,-0.054,0.934,-2.08,-7.14,9.61,0,6
15987.546,0.211,-0.069,0.922,-1.8,-7.05,7.29,0,6
15987.562,0.214,-0.054,0.913,-2.38,-5.86,4.91,0,6
15987.578,0.209,-0.059,0.906,-2.93,-4.18,3.33,0,6
15987.578,0.204,-0.063,0.903,-2.5,-2.96,2.59,0,6
15987.593,0.2,-0.072,0.899,0.4,-2.01,2.35,0,6
15987.609,0.204,-0.083,0.879,5.07,-1.37,2.04,0,6
15987.609,0.225,-0.07,0.869,8.91,0.55,1.43,0,6
15987.625,0.211,-0.064,0.865,10.32,3.69,0.4,0,6
15987.625,0.2,-0.065,0.863,9.22,5.28,-0.67,0,6
15987.64,0.198,-0.056,0.869,6.9,5.25,-1.46,0,6
15987.656,0.194,-0.056,0.864,5.19,4.06,-2.35,0,6
15987.656,0.187,-0.055,0.851,4.58,2.53,-3.42,0,6
15987.671,0.19,-0.05,0.847,3.14,0.55,-5.43,0,6
15987.687,0.199,-0.045,0.839,0.61,-1.98,-8.24,0,6
15987.703,0.211,-0.035,0.827,-2.11,-4.46,-11.35,0,6
15987.703,0.206,-0.016,0.829,-4.94,-4.79,-13.31,0,6
15987.718,0.198,-0.001,0.826,-7.51,-3.66,-13.55,0,6
15987.718,0.191,0.007,0.82,-8.91,-1.5,-11.96,0,6
15987.734,0.191,0.002,0.831,-10.04,2.26,-9.43,0,6
15987.75,0.194,-0.006,0.839,-9.77,7.14,-7.35,0,6
15987.75,0.204,-0.005,0.853,-8.82,12.85,-6.41,0,6
15987.765,0.209,0.001,0.876,-8.0,18.19,-6.62,0,6
15987.781,0.197,0.012,0.894,-5.92,21.64,-6.93,0,6
15987.781,0.18,0.032,0.901,-2.75,22.86,-6.38,0,6
15987.796,0.161,0.036,0.904,0.4,22.1,-4.64,0,6
15987.796,0.154,0.028,0.896,2.96,20.08,-1.53,0,6
15987.812,0.167,0.026,0.891,3.23,18.65,1.5,0,6
15987.828,0.178,0.017,0.876,1.89,17.98,2.56,0,6
15987.828,0.195,0.016,0.871,-0.49,18.28,2.5,0,6
15987.843,0.192,0.013,0.875,-2.35,20.23,2.44,0,6
15987.859,0.186,0.005,0.885,-3.08,23.47,3.11,0,6
15987.859,0.168,-0.002,0.907,-3.17,27.13,4.09,0,6
15987.875,0.161,-0.023,0.92,-2.53,29.15,4.36,0,6
15987.875,0.164,-0.029,0.932,-1.28,29.48,4.3,0,6
15987.89,0.151,-0.028,0.94,0.18,29.18,3.54,0,6
15987.906,0.148,-0.028,0.944,1.01,28.53,2.5,0,6
15987.906,0.137,-0.022,0.953,1.56,27.99,1.89,0,6
15987.921,0.116,-0.033,0.952,2.9,27.99,1.8,0,6
15987.937,0.105,-0.031,0.948,4.21,28.17,1.95,0,6
15987.937,0.105,-0.034,0.945,5.25,28.44,1.74,0,6
15987.953,0.107,-0.034,0.939,6.29,28.38,0.89,0,6
15987.968,0.103,-0.026,0.932,8.18,27.71,-0.03,0,6
15987.968,0.1,-0.013,0.932,9.34,28.26,-0.64,0,6
15987.984,0.087,-0.01,0.927,9.89,29.39,-0.7,0,6
15988.0,0.087,-0.016,0.931,10.32,30.52,0.12,0,6
15988.0,0.092,-0.023,0.935,10.47,31.62,0.98,0,6
15988.015,0.088,-0.033,0.928,10.44,31.56,1.28,0,6
15988.015,0.091,-0.037,0.93,9.98,31.56,1.1,0,6
15988.031,0.087,-0.042,0.931,9.64,31.74,0.12,0,6
15988.046,0.066,-0.038,0.929,9.67,32.44,-1.16,0,6
15988.046,0.062,-0.022,0.931,9.74,33.33,-2.29,0,6
15988.062,0.051,-0.003,0.947,8.21,35.16,-3.11,0,6
15988.078,0.031,-0.003,0.955,6.59,36.19,-4.03,0,6
15988.078,0.019,-0.009,0.966,6.9,35.34,-4.36,0,6
15988.093,0.011,-0.011,0.968,9.52,34.42,-4.67,0,6
15988.093,0.008,-0.016,0.956,13.73,33.69,-5.13,0,6
15988.109,0.005,-0.007,0.941,18.86,33.63,-5.65,0,6
15988.125,0.014,0.026,0.934,22.19,34.76,-5.92,0,6
15988.125,0.0,0.044,0.931,22.28,36.93,-6.47,0,6
15988.14,-0.027,0.053,0.93,19.81,38.18,-7.11,0,6
15988.156,-0.043,0.057,0.927,17.37,37.51,-7.81,0,6
15988.156,-0.048,0.065,0.926,14.86,35.95,-8.3,0,6
15988.171,-0.059,0.071,0.925,11.75,35.52,-8.91,0,6
15988.187,-0.06,0.063,0.932,8.82,35.55,-9.34,0,6
15988.203,-0.047,0.086,0.951,4.24,37.63,-9.64,0,6
15988.203,-0.079,0.08,0.978,0.31,40.28,-9.77,0,6
15988.218,-0.105,0.057,0.99,-0.46,38.67,-10.13,0,6
15988.218,-0.113,0.049,0.982,4.46,33.3,-9.61,0,6
15988.234,-0.104,0.037,0.948,15.05,27.8,-8.73,0,6
15988.234,-0.062,0.058,0.901,24.96,26.15,-7.84,0,6
15988.25,-0.051,0.091,0.88,28.05,31.92,-6.9,0,6
15988.265,-0.083,0.088,0.885,24.11,40.38,-6.13,0,6
15988.265,-0.112,0.068,0.902,19.01,45.26,-5.46,0,6
15988.281,-0.134,0.039,0.908,18.31,45.17,-5.19,0,6
15988.296,-0.137,0.024,0.892,22.1,42.33,-5.34,0,6
15988.296,-0.101,0.044,0.872,23.26,47.18,-5.13,0,6
15988.312,-0.081,0.074,0.895,15.9,53.93,-6.93,0,6
15988.328,-0.123,0.072,0.933,9.28,56.0,-8.85,0,6
15988.328,-0.201,0.047,0.99,8.3,52.95,-9.7,0,6
15988.343,-0.194,0.056,0.989,12.02,48.59,-9.92,0,6
15988.359,-0.192,0.07,0.977,17.21,46.27,-9.64,0,6
15988.359,-0.202,0.07,0.964,22.06,45.38,-9.61,0,6
15988.375,-0.216,0.072,0.947,26.98,45.26,-9.7,0,6
15988.375,-0.207,0.1,0.946,29.21,46.48,-9.61,0,6
15988.39,-0.236,0.116,0.957,26.98,50.14,-9.7,0,6
15988.406,-0.278,0.099,0.959,22.92,51.55,-10.59,0,6
15988.406,-0.297,0.097,0.968,19.75,50.69,-11.23,0,6
15988.421,-0.304,0.094,0.963,18.74,48.62,-12.3,0,6
15988.437,-0.298,0.088,0.935,20.75,44.77,-13.61,0,6
15988.437,-0.268,0.092,0.901,26.15,40.22,-14.13,0,6
15988.453,-0.216,0.126,0.862,31.89,37.35,-13.58,0,6
15988.468,-0.171,0.174,0.859,32.84,40.89,-12.09,0,6
15988.468,-0.186,0.184,0.897,27.13,51.3,-10.71,0,6
15988.484,-0.249,0.157,0.939,19.35,59.79,-10.59,0,6
15988.484,-0.295,0.136,0.977,14.95,62.93,-10.96,0,6
15988.5,-0.318,0.134,1.013,13.7,62.62,-11.08,0,6
15988.515,-0.338,0.135,1.03,14.4,61.01,-11.81,0,6
15988.531,-0.372,0.129,1.044,15.75,58.72,-12.42,0,6
15988.531,-0.37,0.125,1.033,19.17,54.29,-13.43,0,6
15988.546,-0.365,0.155,1.032,22.13,51.39,-14.37,0,6
15988.546,-0.373,0.168,1.01,23.41,48.65,-15.66,0,6
15988.562,-0.375,0.17,0.977,23.87,45.93,-16.14,0,6
15988.578,-0.364,0.184,0.949,23.8,43.98,-15.53,0,6
15988.578,-0.376,0.197,0.926,22.55,44.13,-14.68,0,6
15988.593,-0.402,0.182,0.907,20.63,45.84,-13.79,0,6
15988.609,-0.384,0.176,0.905,18.22,47.82,-11.75,0,6
15988.609,-0.378,0.168,0.917,17.06,51.24,-9.43,0,6
15988.625,-0.401,0.15,0.949,14.74,55.67,-7.26,0,6
15988.625,-0.442,0.118,0.97,10.71,57.25,-6.9,0,6
15988.64,-0.457,0.089,0.983,7.11,54.23,-8.42,0,6
15988.656,-0.47,0.079,0.983,6.56,49.71,-10.9,0,6
15988.656,-0.48,0.069,0.967,9.64,44.95,-14.04,0,6
15988.671,-0.453,0.076,0.924,15.14,39.74,-17.21,0,6
15988.687,-0.392,0.135,0.897,19.65,40.53,-18.74,0,6
15988.687,-0.414,0.165,0.904,19.68,49.23,-19.41,0,6
15988.703,-0.459,0.145,0.92,15.63,55.39,-21.06,0,6
15988.718,-0.486,0.159,0.931,11.84,56.86,-22.0,0,6
15988.718,-0.517,0.205,0.909,7.57,55.94,-21.52,0,6
15988.734,-0.569,0.268,0.858,-5.98,52.25,-19.04,0,6
15988.734,-0.587,0.277,0.823,-29.15,44.16,-15.72,0,6
15988.75,-0.567,0.241,0.811,-51.7,36.19,-11.47,0,6
15988.765,-0.53,0.188,0.836,-64.42,32.23,-6.62,0,6
15988.765,-0.504,0.12,0.893,-63.97,35.13,-2.47,0,6
15988.781,-0.509,0.06,0.943,-52.13,41.23,-0.82,0,6
15988.796,-0.511,0.02,0.981,-33.05,46.85,-1.59,0,6
15988.796,-0.522,0.027,0.997,-10.8,51.24,-5.55,0,6
15988.812,-0.551,0.061,0.983,10.04,52.46,-10.62,0,6
15988.828,-0.584,0.127,0.941,21.91,49.59,-14.1,0,6
15988.843,-0.599,0.188,0.902,21.18,44.65,-15.38,0,6
15988.843,-0.617,0.237,0.861,10.62,38.76,-14.4,0,6
15988.859,-0.594,0.271,0.837,-6.99,33.11,-11.69,0,6
15988.859,-0.582,0.238,0.859,-23.87,31.77,-7.84,0,6
15988.875,-0.578,0.183,0.884,-32.87,32.59,-3.97,0,6
15988.89,-0.569,0.148,0.904,-31.01,33.39,-1.8,0,6
15988.89,-0.588,0.111,0.922,-20.81,35.31,-1.16,0,6
15988.906,-0.599,0.096,0.915,-7.69,35.43,-1.86,0,6
15988.906,-0.608,0.108,0.88,5.52,33.17,-3.48,0,6
15988.921,-0.619,0.134,0.845,14.31,30.3,-4.88,0,6
15988.937,-0.599,0.154,0.818,17.91,27.59,-5.62,0,6
15988.937,-0.584,0.169,0.805,17.0,29.63,-5.01,0,6
15988.953,-0.608,0.18,0.804,11.75,33.54,-4.91,0,6
15988.968,-0.621,0.185,0.799,4.82,34.82,-5.55,0,6
15988.968,-0.632,0.184,0.792,-0.76,35.1,-5.19,0,6
15988.984,-0.645,0.184,0.778,-4.36,34.52,-3.75,0,6
15988.984,-0.647,0.176,0.759,-5.19,31.74,-2.23,0,6
15989.0,-0.639,0.156,0.746,-2.41,28.6,-0.15,0,6
15989.015,-0.635,0.143,0.724,2.62,27.13,2.5,0,6
15989.031,-0.619,0.134,0.715,5.68,28.44,5.16,0,6
15989.031,-0.621,0.124,0.732,3.66,32.99,6.53,0,6
15989.046,-0.616,0.108,0.761,-2.08,37.9,5.86,0,6
15989.046,-0.614,0.106,0.793,-7.45,41.81,3.39,0,6
15989.062,-0.635,0.093,0.82,-10.59,43.15,0.27,0,6
15989.078,-0.655,0.087,0.831,-10.93,40.8,-2.87,0,6
15989.078,-0.652,0.09,0.833,-7.57,36.56,-5.34,0,6
15989.093,-0.681,0.099,0.817,-1.31,33.42,-6.99,0,6
15989.109,-0.695,0.117,0.791,4.33,31.01,-7.48,0,6
15989.109,-0.68,0.137,0.775,8.24,30.55,-8.12,0,6
15989.125,-0.693,0.152,0.758,11.38,32.26,-9.16,0,6
15989.125,-0.699,0.178,0.746,12.48,34.36,-9.16,0,6
15989.14,-0.69,0.203,0.742,11.26,35.55,-7.48,0,6
15989.156,-0.69,0.213,0.742,7.78,36.41,-4.43,0,6
15989.171,-0.696,0.207,0.747,1.46,37.05,-0.7,0,6
15989.171,-0.707,0.171,0.766,-5.89,36.29,2.56,0,6
15989.187,-0.712,0.138,0.78,-11.02,34.46,4.49,0,6
15989.187,-0.725,0.113,0.784,-12.21,32.44,4.73,0,6
15989.203,-0.731,0.092,0.782,-9.89,30.24,3.78,0,6
15989.218,-0.723,0.093,0.767,-5.31,28.26,2.04,0,6
15989.218,-0.713,0.107,0.741,-0.4,27.07,0.31,0,6
15989.234,-0.702,0.118,0.715,2.62,27.04,-0.61,0,6
15989.234,-0.709,0.134,0.695,2.93,28.02,-0.82,0,6
15989.25,-0.705,0.134,0.682,1.95,28.11,-0.27,0,6
15989.265,-0.699,0.133,0.682,0.24,28.87,0.79,0,6
15989.265,-0.697,0.133,0.689,-2.99,31.1,2.04,0,6
15989.281,-0.686,0.113,0.709,-9.49,37.2,2.84,0,6
15989.296,-0.697,0.087,0.739,-9.89,38.76,2.17,0,6
15989.312,-0.717,0.062,0.766,-7.93,36.5,0.95,0,6
15989.312,-0.731,0.045,0.781,-3.75,31.71,-0.7,0,6
15989.328,-0.751,0.032,0.751,1.01,25.7,-2.78,0,6
15989.328,-0.754,0.03,0.711,4.94,20.05,-5.22,0,6
15989.343,-0.751,0.03,0.676,8.15,17.18,-7.23,0,6
15989.359,-0.763,0.03,0.648,10.9,17.15,-8.97,0,6
15989.359,-0.77,0.019,0.629,13.7,18.4,-11.02,0,6
15989.375,-0.772,0.011,0.615,17.7,20.29,-14.1,0,6
15989.375,-0.779,0.02,0.596,22.68,22.86,-17.43,0,6
15989.39,-0.793,0.042,0.566,25.91,24.57,-20.6,0,6
15989.406,-0.804,0.074,0.526,24.96,25.12,-22.68,0,6
15989.421,-0.813,0.113,0.495,18.13,24.14,-23.71,0,6
15989.421,-0.805,0.114,0.48,8.73,21.21,-23.41,0,6
15989.437,-0.794,0.109,0.48,-0.06,20.78,-21.15,0,6
15989.437,-0.788,0.103,0.488,-6.9,23.38,-18.74,0,6
15989.453,-0.785,0.084,0.507,-10.62,28.23,-17.85,0,6
15989.468,-0.797,0.068,0.532,-10.22,33.54,-18.83,0,6
15989.484,-0.807,0.061,0.557,-5.95,38.06,-20.72,0,6
15989.484,-0.816,0.074,0.581,0.46,41.6,-23.01,0,6
15989.5,-0.825,0.089,0.598,8.36,43.61,-24.9,0,6
15989.5,-0.835,0.111,0.605,15.08,45.08,-25.36,0,6
15989.515,-0.851,0.146,0.601,17.12,45.38,-24.08,0,6
15989.531,-0.86,0.168,0.588,13.18,43.34,-21.55,0,6
15989.531,-0.858,0.158,0.588,5.1,39.77,-18.37,0,6
15989.546,-0.845,0.119,0.597,-2.56,36.19,-14.74,0,6
15989.546,-0.825,0.086,0.592,-6.5,34.18,-12.12,0,6
15989.562,-0.818,0.066,0.582,-7.02,33.94,-11.57,0,6
15989.578,-0.824,0.049,0.577,-6.26,34.42,-12.24,0,6
15989.593,-0.837,0.042,0.566,-4.27,34.97,-13.18,0,6
15989.593,-0.852,0.049,0.55,-2.41,35.71,-14.44,0,6
15989.609,-0.869,0.057,0.538,-0.61,36.87,-15.96,0,6
15989.609,-0.882,0.054,0.543,2.93,38.33,-16.66,0,6
15989.625,-0.892,0.064,0.554,6.47,40.41,-15.59,0,6
15989.64,-0.897,0.086,0.554,6.9,42.7,-14.71,0,6
15989.64,-0.899,0.093,0.555,1.8,43.43,-14.5,0,6
15989.656,-0.907,0.092,0.568,-6.68,42.42,-15.08,0,6
15989.656,-0.913,0.077,0.582,-13.4,39.92,-15.96,0,6
15989.671,-0.914,0.062,0.581,-15.32,36.47,-16.33,0,6
15989.687,-0.91,0.052,0.575,-10.74,32.47,-15.84,0,6
15989.703,-0.892,0.045,0.554,-2.14,28.6,-14.74,0,6
15989.703,-0.871,0.047,0.516,4.79,26.4,-13.7,0,6
15989.718,-0.858,0.049,0.49,7.11,26.0,-13.7,0,6
15989.718,-0.854,0.041,0.473,5.71,26.98,-13.86,0,6
15989.734,-0.862,0.048,0.461,0.37,28.66,-13.37,0,6
15989.75,-0.861,0.042,0.46,-7.32,29.69,-13.31,0,6
15989.75,-0.863,0.021,0.474,-13.58,30.27,-13.37,0,6
15989.765,-0.867,-0.001,0.494,-15.53,31.13,-13.37,0,6
15989.765,-0.879,-0.021,0.509,-12.36,31.71,-13.92,0,6
15989.781,-0.891,-0.028,0.512,-6.2,31.5,-14.86,0,6
15989.796,-0.905,-0.023,0.506,-0.52,30.09,-15.66,0,6
15989.812,-0.913,-0.016,0.491,2.75,27.89,-16.36,0,6
15989.812,-0.92,-0.005,0.475,3.39,25.7,-16.79,0,6
15989.828,-0.923,-0.005,0.462,2.53,23.8,-16.45,0,6
15989.828,-0.914,-0.009,0.452,1.89,22.22,-15.9,0,6
15989.843,-0.911,-0.014,0.44,1.37,21.97,-15.47,0,6
15989.859,-0.912,-0.024,0.431,-0.09,22.86,-14.89,0,6
15989.859,-0.916,-0.035,0.431,-1.68,23.93,-14.8,0,6
15989.875,-0.919,-0.044,0.435,-2.41,24.6,-15.44,0,6
15989.875,-0.921,-0.056,0.439,-1.92,24.84,-16.17,0,6
15989.89,-0.92,-0.059,0.446,0.49,25.03,-16.94,0,6
15989.906,-0.924,-0.059,0.448,5.19,25.15,-17.98,0,6
15989.921,-0.927,-0.061,0.451,11.54,24.72,-18.59,0,6
15989.921,-0.927,-0.041,0.438,17.61,23.77,-18.89,0,6
15989.937,-0.926,-0.023,0.419,20.63,22.37,-19.1,0,6
15989.937,-0.928,-0.014,0.396,19.59,20.63,-18.8,0,6
15989.953,-0.927,-0.0,0.378,12.97,18.65,-17.88,0,6
15989.968,-0.922,-0.016,0.377,4.76,17.0,-16.82,0,6
15989.968,-0.921,-0.035,0.375,-0.67,16.36,-15.84,0,6
15989.984,-0.918,-0.046,0.377,-2.35,16.57,-15.5,0,6
15989.984,-0.925,-0.057,0.375,-0.95,17.27,-15.69,0,6
15990.0,-0.933,-0.065,0.373,1.83,17.94,-15.99,0,6
15990.015,-0.932,-0.058,0.357,4.43,18.16,-16.14,0,6
15990.031,-0.932,-0.033,0.342,3.85,18.43,-16.57,0,6
15990.031,-0.937,-0.018,0.339,0.61,18.56,-16.94,0,6
15990.046,-0.936,-0.008,0.34,-2.75,18.68,-16.3,0,6
15990.046,-0.931,0.002,0.348,-4.46,18.77,-15.02,0,6
15990.062,-0.931,-0.014,0.367,-3.23,18.95,-13.89,0,6
15990.078,-0.935,-0.042,0.38,1.95,19.44,-12.57,0,6
15990.078,-0.933,-0.048,0.374,8.88,20.23,-11.11,0,6
15990.093,-0.929,-0.043,0.364,13.46,20.66,-10.62,0,6
15990.109,-0.928,-0.036,0.355,14.65,21.24,-11.02,0,6
15990.109,-0.937,-0.02,0.35,13.37,22.52,-11.57,0,6
15990.125,-0.947,-0.003,0.342,10.5,23.62,-11.57,0,6
15990.125,-0.96,0.009,0.344,6.56,24.32,-10.9,0,6
15990.14,-0.968,0.001,0.343,3.33,24.14,-9.34,0,6
15990.156,-0.96,0.004,0.331,0.37,23.87,-6.74,0,6
15990.156,-0.947,0.009,0.323,-4.15,23.71,-4.61,0,6
15990.171,-0.941,-0.002,0.323,-9.13,23.56,-3.91,0,6
15990.187,-0.941,-0.014,0.333,-12.48,23.9,-3.17,0,6
15990.203,-0.945,-0.018,0.344,-11.02,24.75,-1.01,0,6
15990.203,-0.953,-0.027,0.347,-5.13,25.21,1.98,0,6
15990.203,-0.96,-0.049,0.334,3.17,24.57,5.28,0,6
15990.218,-0.955,-0.062,0.309,10.71,23.26,8.64,0,6
15990.234,-0.946,-0.053,0.283,14.13,21.61,10.07,0,6
15990.234,-0.94,-0.069,0.262,13.21,19.96,9.43,0,6
15990.25,-0.939,-0.067,0.244,8.0,19.2,8.48,0,6
15990.265,-0.938,-0.053,0.24,-0.61,23.74,9.37,0,6
15990.265,-0.947,-0.046,0.248,2.81,28.05,11.51,0,6
15990.281,-0.966,-0.055,0.257,10.5,31.71,14.47,0,6
15990.296,-0.967,-0.075,0.248,16.57,33.27,14.86,0,6
15990.296,-0.953,-0.064,0.231,19.44,32.93,11.23,0,6
15990.312,-0.955,-0.056,0.229,17.3,30.58,5.89,0,6
15990.328,-0.955,-0.047,0.231,11.44,26.92,0.61,0,6
15990.328,-0.958,-0.054,0.232,5.43,22.89,-2.99,0,6
15990.343,-0.955,-0.053,0.229,1.19,19.44,-5.25,0,6
15990.359,-0.955,-0.052,0.226,-1.01,16.91,-6.96,0,6
15990.359,-0.964,-0.059,0.225,-1.95,15.23,-7.87,0,6
15990.375,-0.98,-0.074,0.22,-0.61,14.98,-7.93,0,6
15990.39,-0.981,-0.077,0.214,3.6,15.23,-7.26,0,6
15990.39,-0.982,-0.07,0.193,9.16,15.78,-7.08,0,6
15990.406,-0.984,-0.052,0.165,13.18,17.3,-6.93,0,6
15990.406,-0.978,-0.034,0.142,14.71,19.07,-6.41,0,6
15990.421,-0.978,-0.017,0.126,13.52,21.45,-5.19,0,6
15990.437,-0.979,-0.005,0.118,7.93,23.38,-4.33,0,6
15990.453,-0.977,-0.011,0.125,-0.34,24.14,-3.97,0,6
15990.453,-0.978,-0.035,0.143,-8.15,24.08,-3.17,0,6
15990.468,-0.967,-0.058,0.16,-13.86,23.5,-2.5,0,6
15990.468,-0.954,-0.081,0.178,-16.51,21.97,-3.17,0,6
15990.484,-0.954,-0.099,0.19,-15.96,21.0,-4.73,0,6
15990.5,-0.958,-0.093,0.188,-14.1,20.66,-6.26,0,6
15990.5,-0.962,-0.092,0.188,-11.32,20.42,-7.2,0,6
15990.515,-0.966,-0.099,0.185,-8.09,20.26,-7.26,0,6
15990.515,-0.968,-0.102,0.178,-5.86,20.33,-7.39,0,6
15990.531,-0.97,-0.102,0.175,-4.76,20.48,-8.97,0,6
15990.546,-0.971,-0.089,0.172,-3.48,21.15,-10.65,0,6
15990.546,-0.979,-0.053,0.163,-4.0,22.4,-11.02,0,6
15990.562,-0.982,-0.029,0.171,-7.75,22.8,-11.23,0,6
15990.578,-0.99,-0.031,0.185,-10.62,22.74,-10.83,0,6
15990.578,-0.999,-0.043,0.197,-10.22,22.37,-8.76,0,6
15990.593,-0.995,-0.061,0.204,-7.39,21.24,-5.89,0,6
15990.609,-0.981,-0.081,0.207,-3.36,19.41,-4.3,0,6
15990.609,-0.972,-0.089,0.194,0.49,17.46,-4.33,0,6
15990.625,-0.969,-0.065,0.172,0.34,15.9,-4.91,0,6
15990.64,-0.965,-0.064,0.166,-3.08,14.89,-4.85,0,6
15990.64,-0.964,-0.08,0.16,-6.59,14.74,-4.58,0,6
15990.656,-0.96,-0.075,0.162,-8.88,15.29,-4.33,0,6
15990.656,-0.958,-0.071,0.175,-8.27,16.05,-5.28,0,6
15990.671,-0.975,-0.085,0.188,-2.87,17.4,-6.29,0,6
15990.687,-0.979,-0.077,0.195,6.47,18.34,-6.44,0,6
15990.687,-0.974,-0.059,0.191,17.03,18.43,-6.84,0,6
15990.703,-0.985,-0.036,0.18,25.21,17.73,-7.75,0,6
15990.718,-1.003,-0.005,0.15,27.71,16.54,-6.99,0,6
15990.718,-1.013,0.046,0.118,19.87,14.47,-3.97,0,6
15990.734,-1.021,0.046,0.105,5.46,11.32,-0.89,0,6
15990.734,-1.017,0.01,0.102,-7.51,7.93,2.47,0,6
15990.75,-1.001,-0.029,0.103,-14.53,5.95,5.31,0,6
15990.765,-0.985,-0.073,0.1,-13.7,4.7,6.62,0,6
15990.765,-0.971,-0.113,0.085,-6.26,4.24,6.78,0,6
15990.781,-0.947,-0.117,0.068,3.33,4.24,5.92,0,6
15990.796,-0.933,-0.111,0.041,12.02,5.4,3.36,0,6
15990.796,-0.932,-0.109,0.019,17.55,8.58,1.31,0,6
15990.812,-0.937,-0.102,0.013,19.17,11.99,-0.27,0,6
15990.828,-0.936,-0.086,0.011,17.82,13.79,-2.72,0,6
15990.828,-0.94,-0.07,0.015,14.31,15.29,-4.61,0,6
15990.843,-0.949,-0.056,0.027,9.4,16.82,-5.16,0,6
15990.859,-0.956,-0.043,0.041,3.23,17.21,-5.31,0,6
15990.859,-0.974,-0.046,0.06,-1.13,17.61,-4.88,0,6
15990.875,-0.987,-0.058,0.074,-2.11,17.98,-2.69,0,6
15990.875,-0.978,-0.064,0.087,-1.01,17.21,-0.24,0,6
15990.89,-0.974,-0.075,0.098,1.68,16.39,0.85,0,6
15990.906,-0.98,-0.096,0.105,5.37,15.84,1.62,0,6
15990.906,-0.973,-0.096,0.107,7.57,15.11,1.77,0,6
15990.921,-0.968,-0.082,0.112,6.87,14.28,0.21,0,6
15990.937,-0.983,-0.085,0.114,5.22,13.98,-1.71,0,6
15990.937,-0.993,-0.086,0.114,3.48,13.86,-1.68,0,6
15990.953,-0.983,-0.088,0.119,2.41,12.7,-1.28,0,6
15990.968,-0.976,-0.099,0.129,3.51,11.66,-1.65,0,6
15990.968,-0.97,-0.11,0.141,6.5,11.08,-1.77,0,6
15990.984,-0.963,-0.1,0.151,9.25,10.28,-2.2,0,6
15990.984,-0.973,-0.085,0.158,10.56,9.61,-3.11,0,6
15991.0,-0.985,-0.072,0.154,9.28,8.3,-3.23,0,6
15991.015,-0.993,-0.07,0.15,7.29,5.8,-2.87,0,6
15991.015,-1.0,-0.078,0.136,5.68,3.27,-1.74,0,6
15991.031,-0.991,-0.087,0.125,4.49,0.85,0.09,0,6
15991.046,-0.973,-0.111,0.118,4.06,-0.85,0.79,0,6
15991.046,-0.955,-0.124,0.112,4.06,-0.82,-0.09,0,6
15991.062,-0.952,-0.112,0.107,3.97,0.79,-1.92,0,6
15991.078,-0.963,-0.101,0.105,4.12,2.56,-3.91,0,6
15991.078,-0.979,-0.095,0.103,5.04,3.17,-4.52,0,6
15991.093,-0.987,-0.079,0.095,6.9,2.96,-3.48,0,6
15991.109,-0.994,-0.06,0.082,6.93,1.68,-1.62,0,6
15991.109,-0.996,-0.064,0.072,3.51,-0.92,-0.03,0,6
15991.125,-0.99,-0.08,0.07,-0.89,-3.3,1.19,0,6
15991.125,-0.984,-0.096,0.06,-3.75,-4.39,1.83,0,6
15991.14,-0.985,-0.109,0.053,-4.85,-5.13,1.92,0,6
15991.156,-0.977,-0.131,0.048,-4.67,-5.68,1.34,0,6
15991.156,-0.968,-0.136,0.042,-2.81,-5.43,-0.43,0,6
15991.171,-0.965,-0.132,0.032,1.28,-4.03,-2.38,0,6
15991.187,-0.961,-0.116,0.024,5.43,-1.71,-3.63,0,6
15991.187,-0.965,-0.101,0.024,8.88,1.01,-4.27,0,6
15991.203,-0.973,-0.082,0.022,10.13,3.48,-4.33,0,6
15991.218,-0.986,-0.058,0.021,8.0,4.27,-4.0,0,6
15991.218,-0.998,-0.055,0.027,3.63,3.11,-3.6,0,6
15991.234,-0.995,-0.055,0.04,-1.07,1.28,-2.53,0,6
15991.234,-0.992,-0.06,0.053,-3.6,-0.31,-1.65,0,6
15991.25,-0.996,-0.075,0.064,0.06,-0.98,-0.61,0,6
15991.265,-0.994,-0.075,0.073,3.57,-1.07,-0.21,0,6
15991.265,-0.986,-0.067,0.074,5.65,-1.74,-0.46,0,6
15991.281,-0.983,-0.064,0.059,5.55,-2.87,-0.09,0,6
15991.296,-0.972,-0.062,0.054,3.97,-4.06,0.4,0,6
15991.296,-0.97,-0.064,0.044,2.17,-4.18,0.98,0,6
15991.312,-0.965,-0.06,0.036,-0.67,-3.36,2.01,0,6
15991.328,-0.965,-0.062,0.04,-4.0,-2.59,2.29,0,6
15991.328,-0.969,-0.079,0.051,-6.59,-2.29,2.29,0,6
15991.343,-0.973,-0.086,0.059,-7.29,-2.04,2.84,0,6
15991.343,-0.977,-0.097,0.061,-5.98,-2.17,3.11,0,6
15991.359,-0.979,-0.101,0.058,-4.21,-2.66,2.84,0,6
15991.375,-0.98,-0.098,0.053,-2.17,-3.2,2.23,0,6
15991.375,-0.98,-0.1,0.045,0.31,-3.78,1.65,0,6
15991.39,-0.985,-0.098,0.04,2.47,-3.97,1.04,0,6
15991.406,-0.985,-0.098,0.038,5.07,-3.85,0.79,0,6
15991.406,-0.983,-0.106,0.035,8.42,-3.51,0.73,0,6
15991.421,-0.982,-0.118,0.038,13.06,-2.72,0.52,0,6
15991.437,-0.987,-0.124,0.037,19.2,-1.5,0.06,0,6
15991.437,-0.992,-0.109,0.015,23.74,-0.61,-0.67,0,6
15991.453,-0.995,-0.081,-0.002,22.86,-0.4,-1.04,0,6
15991.468,-0.988,-0.069,-0.008,16.02,-0.37,-0.98,0,6
15991.468,-0.983,-0.068,-0.014,6.9,-0.43,-0.67,0,6
15991.484,-0.982,-0.073,-0.006,-2.14,0.12,0.03,0,6
15991.5,-0.988,-0.097,0.02,-8.15,-0.12,0.37,0,6
15991.5,-0.981,-0.122,0.03,-9.43,-0.37,0.27,0,6
