timestamp,ax,ay,az,gx,gy,gz,orient_label,motion_label
15965.296,-0.957,-0.117,-0.131,5.46,0.89,-1.77,0,6
15965.296,-0.959,-0.108,-0.124,3.08,3.08,-2.17,0,6
15965.312,-0.972,-0.106,-0.111,0.92,4.91,-2.75,0,6
15965.328,-0.984,-0.108,-0.099,-0.64,5.62,-2.69,0,6
15965.328,-0.987,-0.102,-0.091,-0.67,4.88,-2.2,0,6
15965.343,-0.988,-0.093,-0.09,0.46,3.57,-1.37,0,6
15965.343,-0.982,-0.092,-0.089,0.4,2.26,-0.43,0,6
15965.359,-0.978,-0.092,-0.083,-0.61,1.53,0.37,0,6
15965.375,-0.977,-0.108,-0.078,-1.19,1.43,1.04,0,6
15965.375,-0.974,-0.12,-0.068,-1.34,1.62,1.31,0,6
15965.39,-0.98,-0.126,-0.058,-0.21,1.86,0.85,0,6
15965.406,-0.988,-0.128,-0.055,1.77,1.31,0.27,0,6
15965.406,-0.984,-0.125,-0.059,4.24,-0.31,0.0,0,6
15965.421,-0.973,-0.117,-0.066,6.41,-2.04,-0.49,0,6
15965.437,-0.965,-0.112,-0.084,7.63,-3.14,-0.79,0,6
15965.437,-0.952,-0.104,-0.096,6.68,-3.11,-0.67,0,6
15965.453,-0.954,-0.096,-0.1,4.09,-1.62,-0.4,0,6
15965.468,-0.987,-0.109,-0.081,-4.06,0.89,-0.46,0,6
15965.484,-0.994,-0.129,-0.074,-5.46,-0.12,-0.06,0,6
15965.484,-0.982,-0.135,-0.075,-3.88,-1.74,0.21,0,6
15965.5,-0.969,-0.126,-0.08,-1.01,-2.47,-0.4,0,6
15965.515,-0.971,-0.123,-0.084,1.83,-2.32,-1.19,0,6
15965.515,-0.974,-0.116,-0.084,3.88,-1.89,-1.4,0,6
15965.531,-0.97,-0.098,-0.083,4.85,-1.65,-1.13,0,6
15965.546,-0.974,-0.098,-0.08,5.62,-1.31,-0.55,0,6
15965.546,-0.985,-0.106,-0.085,5.07,-1.43,0.46,0,6
15965.562,-0.984,-0.115,-0.085,3.11,-2.11,1.31,0,6
15965.562,-0.973,-0.12,-0.085,1.25,-2.81,1.25,0,6
15965.578,-0.975,-0.126,-0.092,-0.03,-3.08,0.64,0,6
15965.593,-0.974,-0.125,-0.097,-2.32,-3.11,0.12,0,6
15965.593,-0.968,-0.129,-0.096,-4.58,-2.9,-0.79,0,6
15965.609,-0.967,-0.13,-0.09,-5.55,-2.01,-1.62,0,6
15965.625,-0.967,-0.128,-0.081,-4.58,-0.82,-1.98,0,6
15965.64,-0.983,-0.116,-0.067,0.82,-0.37,-1.77,0,6
15965.656,-0.992,-0.111,-0.074,2.69,-1.31,-1.34,0,6
15965.656,-0.989,-0.104,-0.082,3.14,-2.81,-0.46,0,6
15965.671,-0.978,-0.111,-0.089,2.29,-4.36,0.37,0,6
15965.687,-0.969,-0.123,-0.098,0.85,-5.1,0.79,0,6
15965.687,-0.966,-0.122,-0.097,-3.48,-3.94,0.12,0,6
15965.703,-0.963,-0.122,-0.096,-5.43,-2.87,-0.49,0,6
15965.703,-0.97,-0.125,-0.089,-5.43,-2.26,-1.37,0,6
15965.718,-0.979,-0.132,-0.079,-3.33,-2.08,-1.86,0,6
15965.734,-0.987,-0.138,-0.072,-0.21,-2.41,-1.77,0,6
15965.734,-0.98,-0.127,-0.076,3.11,-2.84,-2.08,0,6
15965.75,-0.98,-0.117,-0.081,5.13,-2.53,-2.35,0,6
15965.765,-0.982,-0.105,-0.079,5.31,-2.01,-2.08,0,6
15965.765,-0.98,-0.097,-0.073,4.33,-1.95,-1.59,0,6
15965.781,-0.983,-0.099,-0.069,3.08,-2.5,-1.07,0,6
15965.796,-0.986,-0.107,-0.065,2.23,-3.36,-0.37,0,6
15965.812,-0.982,-0.134,-0.06,2.23,-5.4,0.98,0,6
15965.828,-0.978,-0.141,-0.059,2.53,-5.95,0.64,0,6
15965.828,-0.976,-0.144,-0.06,2.08,-5.31,-0.12,0,6
15965.843,-0.972,-0.141,-0.056,1.16,-4.39,-1.04,0,6
15965.859,-0.974,-0.137,-0.046,0.58,-3.81,-2.08,0,6
15965.859,-0.978,-0.131,-0.031,1.01,-3.78,-2.75,0,6
15965.875,-0.978,-0.129,-0.025,2.99,-4.82,-2.87,0,6
15965.875,-0.99,-0.141,-0.034,5.34,-6.93,-3.2,0,6
15965.89,-0.994,-0.145,-0.032,7.81,-8.3,-2.35,0,6
15965.906,-0.99,-0.143,-0.042,9.67,-9.58,-0.89,0,6
15965.906,-0.972,-0.138,-0.042,9.7,-10.28,-0.4,0,6
15965.921,-0.972,-0.148,-0.042,9.31,-9.52,-1.5,0,6
15965.937,-0.982,-0.15,-0.032,9.22,-8.21,-2.78,0,6
15965.937,-0.982,-0.143,-0.016,10.41,-7.54,-3.57,0,6
15965.953,-0.995,-0.157,-0.012,14.8,-7.42,-3.88,0,6
15965.968,-0.986,-0.148,-0.003,18.8,-8.82,-3.48,0,6
15965.984,-0.973,-0.17,0.002,28.11,-11.66,-4.55,0,6
15965.984,-0.962,-0.169,0.005,32.96,-12.82,-6.2,0,6
15966.0,-0.96,-0.164,0.012,39.12,-13.46,-8.18,0,6
15966.015,-0.959,-0.155,0.023,46.78,-14.04,-9.58,0,6
15966.015,-0.955,-0.138,0.033,55.54,-14.68,-10.28,0,6
15966.031,-0.952,-0.137,0.052,65.46,-15.78,-10.25,0,6
15966.046,-0.95,-0.146,0.082,77.12,-17.09,-9.43,0,6
15966.046,-0.949,-0.172,0.116,91.86,-18.34,-8.27,0,6
15966.062,-0.944,-0.193,0.144,110.02,-19.35,-7.45,0,6
15966.078,-0.942,-0.198,0.171,128.54,-20.51,-7.54,0,6
15966.078,-0.946,-0.196,0.187,146.0,-21.67,-8.82,0,6
15966.093,-0.951,-0.161,0.195,158.94,-22.49,-10.96,0,6
15966.109,-0.962,-0.113,0.203,165.75,-23.32,-14.01,0,6
15966.109,-0.981,-0.071,0.211,167.52,-24.11,-16.57,0,6
15966.125,-1.007,-0.029,0.213,164.62,-24.35,-16.63,0,6
15966.125,-1.029,0.022,0.212,157.44,-24.35,-13.95,0,6
15966.14,-1.036,0.071,0.217,147.22,-24.63,-9.64,0,6
15966.156,-1.042,0.097,0.24,136.81,-24.66,-4.88,0,6
15966.156,-1.062,0.106,0.257,128.15,-24.41,0.89,0,6
15966.171,-1.073,0.134,0.278,121.1,-23.99,8.7,0,6
15966.187,-1.075,0.151,0.297,117.62,-24.11,18.95,0,6
15966.187,-1.074,0.15,0.309,117.98,-24.2,30.43,0,6
15966.203,-1.08,0.161,0.317,120.3,-24.57,41.17,0,6
15966.218,-1.094,0.174,0.329,122.14,-24.87,50.9,0,6
15966.218,-1.128,0.192,0.345,121.83,-23.83,60.4,0,6
15966.234,-1.177,0.217,0.351,118.2,-23.22,69.55,0,6
15966.25,-1.223,0.25,0.337,110.57,-25.57,78.25,0,6
15966.25,-1.258,0.287,0.306,98.79,-31.68,86.98,0,6
15966.265,-1.279,0.322,0.266,84.32,-39.89,96.35,0,6
15966.265,-1.289,0.347,0.217,67.26,-48.07,106.81,0,6
15966.281,-1.283,0.361,0.164,47.12,-55.09,117.31,0,6
15966.296,-1.258,0.361,0.13,24.6,-58.87,127.38,0,6
15966.296,-1.227,0.345,0.108,2.35,-58.66,136.85,0,6
15966.312,-1.2,0.309,0.101,-17.94,-55.67,144.84,0,6
15966.328,-1.165,0.27,0.104,-34.79,-50.63,149.69,0,6
15966.328,-1.135,0.251,0.094,-47.49,-45.29,150.4,0,6
15966.343,-1.114,0.252,0.082,-56.76,-40.25,147.65,0,6
15966.343,-1.109,0.253,0.097,-63.91,-33.2,144.14,0,6
15966.359,-1.122,0.257,0.128,-69.98,-24.48,140.87,0,6
15966.375,-1.127,0.256,0.164,-75.14,-17.58,137.76,0,6
15966.375,-1.125,0.255,0.19,-77.46,-16.14,134.01,0,6
15966.39,-1.117,0.26,0.206,-75.81,-18.49,130.25,0,6
15966.406,-1.109,0.273,0.227,-71.57,-21.18,127.02,0,6
15966.406,-1.096,0.292,0.239,-67.14,-26.37,124.45,0,6
15966.421,-1.064,0.315,0.229,-61.95,-34.79,123.63,0,6
15966.437,-1.022,0.313,0.214,-55.48,-43.52,124.76,0,6
15966.453,-0.972,0.283,0.2,-48.65,-51.7,126.22,0,6
15966.453,-0.913,0.253,0.189,-41.29,-58.63,125.98,0,6
15966.468,-0.857,0.249,0.171,-32.84,-63.08,122.01,0,6
15966.484,-0.788,0.255,0.151,-16.57,-65.03,108.65,0,6
15966.5,-0.763,0.253,0.147,-13.55,-66.13,100.25,0,6
15966.5,-0.743,0.265,0.145,-14.04,-68.73,91.53,0,6
15966.515,-0.724,0.281,0.145,-16.51,-72.02,84.29,0,6
15966.531,-0.709,0.312,0.14,-20.17,-74.71,79.81,0,6
15966.531,-0.696,0.346,0.144,-24.51,-76.48,77.91,0,6
15966.546,-0.673,0.361,0.155,-28.47,-76.63,77.36,0,6
15966.546,-0.655,0.361,0.174,-31.43,-75.75,77.21,0,6
15966.562,-0.641,0.356,0.195,-32.75,-74.71,76.42,0,6
15966.578,-0.624,0.347,0.218,-31.92,-74.65,74.74,0,6
15966.578,-0.6,0.341,0.245,-29.3,-75.5,71.41,0,6
15966.593,-0.58,0.336,0.272,-24.38,-76.88,65.46,0,6
15966.609,-0.572,0.328,0.287,-17.27,-79.29,58.44,0,6
15966.609,-0.557,0.318,0.292,-8.06,-82.61,51.82,0,6
15966.625,-0.548,0.321,0.294,2.75,-86.46,46.05,0,6
15966.625,-0.535,0.327,0.287,15.81,-88.99,41.2,0,6
15966.656,-0.519,0.392,0.265,39.77,-84.35,32.96,0,6
15966.656,-0.516,0.445,0.26,45.69,-77.46,30.4,0,6
15966.671,-0.527,0.51,0.244,30.34,-61.8,31.68,0,6
15966.687,-0.54,0.557,0.237,9.74,-58.05,33.48,0,6
15966.687,-0.545,0.558,0.248,-12.7,-56.34,35.46,0,6
15966.703,-0.547,0.549,0.262,-34.82,-55.85,36.07,0,6
15966.718,-0.544,0.518,0.311,-54.2,-56.58,33.3,0,6
15966.718,-0.55,0.485,0.353,-66.9,-57.47,27.92,0,6
15966.734,-0.551,0.47,0.394,-71.23,-57.89,21.36,0,6
15966.734,-0.54,0.456,0.421,-68.58,-57.34,13.98,0,6
15966.75,-0.532,0.44,0.439,-60.67,-55.12,6.5,0,6
15966.765,-0.523,0.431,0.447,-49.35,-50.42,-0.31,0,6
15966.781,-0.526,0.424,0.447,-36.99,-43.82,-5.52,0,6
15966.781,-0.533,0.427,0.445,-26.58,-34.97,-7.93,0,6
15966.796,-0.547,0.446,0.45,-20.66,-24.05,-6.26,0,6
15966.796,-0.57,0.462,0.465,-21.61,-14.25,-0.98,0,6
15966.812,-0.595,0.451,0.493,-31.68,-9.43,5.71,0,6
15966.828,-0.609,0.42,0.521,-48.95,-10.25,10.07,0,6
15966.828,-0.614,0.397,0.546,-68.36,-13.82,10.16,0,6
15966.843,-0.625,0.377,0.573,-84.81,-16.45,6.96,0,6
15966.859,-0.645,0.371,0.613,-97.29,-17.15,2.23,0,6
15966.859,-0.676,0.357,0.659,-104.19,-17.4,-2.38,0,6
15966.875,-0.702,0.334,0.704,-104.34,-18.59,-5.68,0,6
15966.89,-0.717,0.321,0.736,-99.06,-20.69,-7.17,0,6
15966.89,-0.725,0.32,0.75,-90.46,-22.37,-6.59,0,6
15966.906,-0.723,0.316,0.755,-81.24,-23.01,-5.28,0,6
15966.906,-0.724,0.306,0.76,-73.06,-23.22,-3.81,0,6
15966.921,-0.709,0.284,0.76,-64.15,-23.19,-2.08,0,6
15966.937,-0.691,0.281,0.757,-53.93,-21.7,-1.07,0,6
15966.953,-0.687,0.296,0.746,-45.38,-19.14,-0.89,0,6
15966.953,-0.691,0.316,0.744,-41.54,-16.91,-1.25,0,6
15966.968,-0.701,0.336,0.753,-43.18,-15.17,-1.98,0,6
15966.968,-0.718,0.343,0.762,-50.17,-14.4,-3.45,0,6
15966.984,-0.724,0.325,0.771,-59.51,-14.4,-5.04,0,6
15967.0,-0.719,0.306,0.787,-66.1,-12.48,-5.16,0,6
15967.0,-0.715,0.274,0.798,-65.8,-7.08,-4.0,0,6
15967.015,-0.714,0.255,0.807,-58.93,0.37,-2.75,0,6
15967.015,-0.72,0.251,0.817,-47.09,7.48,-2.66,0,6
15967.031,-0.738,0.246,0.825,-32.53,12.54,-3.27,0,6
15967.046,-0.745,0.243,0.824,-17.94,14.59,-3.97,0,6
15967.046,-0.746,0.259,0.799,-5.74,13.76,-4.88,0,6
15967.062,-0.743,0.284,0.762,1.86,11.08,-5.25,0,6
15967.078,-0.734,0.3,0.725,3.3,7.05,-4.64,0,6
15967.078,-0.726,0.317,0.701,-1.37,1.83,-3.42,0,6
15967.093,-0.708,0.326,0.694,-10.04,-3.57,-1.59,0,6
15967.093,-0.676,0.317,0.693,-20.14,-6.93,0.58,0,6
15967.109,-0.655,0.304,0.695,-29.02,-7.93,2.41,0,6
15967.125,-0.637,0.279,0.708,-33.48,-7.17,3.97,0,6
15967.125,-0.626,0.253,0.721,-32.17,-5.31,5.28,0,6
15967.14,-0.619,0.253,0.726,-26.86,-3.66,6.2,0,6
15967.156,-0.605,0.274,0.737,-20.66,-2.23,6.35,0,6
15967.156,-0.597,0.289,0.745,-15.66,-0.85,6.04,0,6
15967.171,-0.592,0.299,0.746,-12.09,-0.03,5.86,0,6
15967.187,-0.579,0.307,0.743,-8.82,0.61,6.32,0,6
15967.187,-0.574,0.316,0.732,-5.92,1.28,6.68,0,6
15967.203,-0.563,0.324,0.724,-4.52,2.08,7.02,0,6
15967.218,-0.554,0.33,0.717,-3.94,3.48,7.54,0,6
15967.218,-0.559,0.335,0.717,-4.52,4.7,7.9,0,6
15967.234,-0.556,0.333,0.728,-5.86,5.52,7.97,0,6
15967.25,-0.556,0.318,0.733,-6.01,5.86,7.97,0,6
15967.25,-0.557,0.311,0.736,-5.65,5.46,7.69,0,6
15967.265,-0.557,0.307,0.732,-4.91,4.76,6.78,0,6
15967.265,-0.547,0.301,0.729,-3.88,4.58,5.25,0,6
15967.281,-0.548,0.303,0.723,-3.3,5.16,3.6,0,6
15967.296,-0.557,0.307,0.728,-3.39,6.53,1.92,0,6
15967.296,-0.563,0.306,0.736,-3.2,8.06,0.52,0,6
15967.312,-0.568,0.298,0.743,-1.83,9.22,-0.37,0,6
15967.328,-0.576,0.293,0.752,0.79,9.86,-1.01,0,6
15967.328,-0.58,0.293,0.758,4.21,9.77,-1.68,0,6
15967.343,-0.591,0.315,0.769,7.26,9.55,-2.26,0,6
15967.359,-0.624,0.354,0.791,9.13,8.24,-1.62,0,6
15967.359,-0.639,0.371,0.816,9.28,4.06,0.89,0,6
15967.375,-0.632,0.383,0.815,7.08,-2.53,3.36,0,6
15967.375,-0.617,0.394,0.804,2.66,-9.49,4.61,0,6
15967.39,-0.594,0.374,0.788,-0.95,-14.25,5.25,0,6
15967.406,-0.571,0.348,0.758,-1.37,-15.63,6.16,0,6
15967.406,-0.562,0.338,0.74,-1.01,-14.22,6.53,0,6
15967.421,-0.558,0.329,0.737,-0.98,-12.05,6.53,0,6
15967.437,-0.556,0.321,0.735,-1.62,-10.22,6.53,0,6
15967.453,-0.565,0.328,0.739,-3.02,-8.64,6.07,0,6
15967.453,-0.579,0.331,0.745,-4.97,-7.97,5.16,0,6
15967.453,-0.589,0.34,0.753,-6.16,-8.33,4.67,0,6
15967.468,-0.593,0.349,0.761,-7.48,-10.07,4.36,0,6
15967.484,-0.585,0.347,0.759,-8.48,-12.12,4.15,0,6
15967.5,-0.545,0.322,0.753,-6.47,-11.38,4.18,0,6
15967.515,-0.54,0.311,0.752,-4.12,-9.09,3.2,0,6
15967.515,-0.546,0.319,0.758,-3.6,-6.13,1.16,0,6
15967.531,-0.551,0.33,0.77,-5.98,-4.43,-0.76,0,6
15967.546,-0.549,0.322,0.777,-8.64,-4.12,-1.59,0,6
15967.546,-0.549,0.308,0.775,-9.28,-4.21,-1.65,0,6
15967.562,-0.544,0.298,0.766,-8.21,-4.12,-1.98,0,6
15967.578,-0.541,0.289,0.761,-5.04,-3.45,-2.59,0,6
15967.578,-0.542,0.284,0.766,-1.16,-3.02,-2.9,0,6
15967.593,-0.538,0.272,0.793,2.99,-3.3,-2.87,0,6
15967.593,-0.533,0.262,0.787,7.93,-4.39,-2.56,0,6
15967.609,-0.519,0.284,0.775,9.37,-6.38,-1.98,0,6
15967.625,-0.507,0.294,0.773,7.32,-7.78,-1.22,0,6
15967.64,-0.511,0.308,0.772,2.84,-6.56,-1.28,0,6
15967.64,-0.52,0.334,0.782,-3.02,-3.54,-1.28,0,6
15967.656,-0.527,0.351,0.799,-8.7,-0.03,-0.7,0,6
15967.671,-0.535,0.329,0.837,-7.45,3.51,2.11,0,6
15967.687,-0.522,0.312,0.835,-0.4,3.33,1.83,0,6
15967.687,-0.515,0.292,0.806,7.23,4.33,1.74,0,6
15967.703,-0.514,0.284,0.785,14.04,6.5,2.26,0,6
15967.718,-0.506,0.291,0.768,18.65,9.13,2.66,0,6
15967.718,-0.506,0.304,0.743,22.16,13.15,2.66,0,6
15967.734,-0.508,0.298,0.738,23.19,15.72,2.56,0,6
15967.734,-0.509,0.285,0.745,22.83,15.78,1.59,0,6
15967.75,-0.515,0.293,0.748,22.71,15.23,0.49,0,6
15967.765,-0.481,0.269,0.711,22.89,15.93,-0.79,0,6
15967.765,-0.523,0.363,0.711,21.79,19.47,-3.39,0,6
15967.781,-0.58,0.375,0.8,23.77,20.42,0.34,0,6
15967.796,-0.582,0.367,0.782,22.13,13.03,2.04,0,6
15967.796,-0.567,0.38,0.784,18.65,7.97,2.44,0,6
15967.812,-0.554,0.359,0.779,18.16,6.07,1.89,0,6
15967.828,-0.56,0.359,0.779,20.66,6.99,1.19,0,6
15967.843,-0.6,0.433,0.788,17.82,8.88,1.19,0,6
15967.859,-0.606,0.435,0.782,8.55,5.55,2.04,0,6
15967.859,-0.604,0.418,0.775,-2.35,-0.61,2.38,0,6
15967.875,-0.596,0.401,0.754,-9.4,-7.97,2.53,0,6
15967.875,-0.592,0.405,0.748,-13.12,-15.96,2.96,0,6
15967.89,-0.603,0.435,0.79,-16.42,-24.75,3.85,0,6
15967.906,-0.535,0.338,0.723,-15.29,-32.87,4.36,0,6
15967.906,-0.491,0.346,0.701,-15.5,-33.2,0.85,0,6
15967.921,-0.518,0.323,0.771,-10.62,-30.09,-1.53,0,6
15967.937,-0.509,0.324,0.736,-4.79,-29.82,-1.62,0,6
15967.937,-0.479,0.353,0.704,-1.25,-26.52,-0.98,0,6
15967.953,-0.481,0.335,0.707,2.75,-20.81,-1.56,0,6
15967.968,-0.492,0.347,0.712,5.55,-15.84,-1.89,0,6
15967.968,-0.498,0.387,0.716,4.85,-12.18,-0.98,0,6
15967.984,-0.508,0.388,0.719,2.14,-9.46,0.89,0,6
15968.0,-0.52,0.387,0.726,-0.27,-7.69,4.03,0,6
15968.015,-0.507,0.373,0.733,-1.56,-8.0,10.1,0,6
15968.015,-0.496,0.38,0.728,-0.76,-7.32,10.96,0,6
15968.031,-0.49,0.384,0.725,0.49,-5.83,11.02,0,6
15968.046,-0.493,0.399,0.735,1.65,-3.39,11.69,0,6
15968.046,-0.504,0.427,0.754,2.84,-0.95,13.4,0,6
15968.062,-0.512,0.451,0.768,3.94,0.09,17.18,0,6
15968.078,-0.513,0.465,0.784,4.21,-0.52,22.46,0,6
15968.078,-0.514,0.469,0.787,3.78,-2.75,27.31,0,6
15968.093,-0.503,0.456,0.783,2.84,-5.74,31.98,0,6
15968.093,-0.49,0.441,0.769,1.68,-8.24,36.23,0,6
15968.109,-0.476,0.426,0.757,-0.27,-10.13,38.91,0,6
15968.125,-0.458,0.397,0.748,-2.17,-11.9,40.1,0,6
15968.125,-0.443,0.37,0.737,-3.91,-12.67,39.64,0,6
15968.14,-0.433,0.375,0.74,-5.71,-12.12,38.27,0,6
15968.156,-0.434,0.372,0.744,-6.71,-11.14,37.14,0,6
15968.156,-0.443,0.368,0.753,-6.84,-10.83,37.02,0,6
15968.187,-0.457,0.371,0.783,-3.51,-9.0,40.1,0,6
15968.187,-0.466,0.357,0.803,-1.65,-8.24,42.02,0,6
15968.203,-0.458,0.345,0.816,-0.55,-9.25,42.82,0,6
15968.218,-0.442,0.343,0.825,-0.92,-11.63,41.35,0,6
15968.218,-0.436,0.343,0.824,-2.75,-15.11,37.81,0,6
15968.234,-0.429,0.346,0.824,-5.16,-17.98,33.48,0,6
15968.25,-0.422,0.356,0.829,-7.2,-17.52,29.08,0,6
15968.25,-0.429,0.369,0.84,-8.51,-13.43,24.72,0,6
15968.265,-0.445,0.37,0.861,-8.15,-6.01,20.48,0,6
15968.281,-0.457,0.374,0.887,-5.8,3.48,16.6,0,6
15968.281,-0.449,0.384,0.902,-0.58,10.13,14.34,0,6
15968.296,-0.444,0.444,0.849,7.81,15.35,9.74,0,6
15968.296,-0.512,0.392,0.793,12.97,18.04,10.07,0,6
15968.312,-0.465,0.402,0.778,17.15,18.95,16.97,0,6
15968.328,-0.428,0.451,0.718,26.89,20.75,20.23,0,6
15968.328,-0.43,0.451,0.647,35.37,23.68,20.72,0,6
15968.359,-0.454,0.519,0.653,36.19,23.56,20.97,0,6
15968.359,-0.456,0.561,0.673,24.72,14.07,21.33,0,6
15968.375,-0.445,0.559,0.673,9.06,3.3,22.43,0,6
15968.39,-0.44,0.556,0.671,-7.72,-6.26,23.56,0,6
15968.39,-0.43,0.539,0.66,-21.82,-12.36,24.9,0,6
15968.406,-0.428,0.498,0.662,-30.67,-14.13,28.6,0,6
15968.406,-0.412,0.462,0.668,-33.11,-12.39,32.11,0,6
15968.421,-0.398,0.447,0.681,-31.56,-8.67,31.77,0,6
15968.437,-0.394,0.428,0.692,-27.22,-4.46,29.39,0,6
15968.437,-0.399,0.409,0.695,-21.3,-0.64,26.64,0,6
15968.453,-0.398,0.41,0.689,-14.95,2.41,25.15,0,6
15968.468,-0.391,0.415,0.679,-9.4,4.94,24.51,0,6
15968.468,-0.393,0.419,0.676,-5.92,8.03,22.83,0,6
15968.484,-0.409,0.434,0.68,-5.89,11.38,20.94,0,6
15968.5,-0.42,0.444,0.689,-10.1,14.8,19.99,0,6
15968.5,-0.43,0.435,0.71,-15.56,16.91,20.54,0,6
15968.515,-0.419,0.413,0.743,-22.61,13.03,21.94,0,6
15968.531,-0.411,0.348,0.763,-25.45,6.29,21.7,0,6
15968.546,-0.391,0.314,0.771,-25.76,-1.22,18.07,0,6
15968.546,-0.384,0.269,0.761,-25.09,-8.24,12.76,0,6
15968.562,-0.381,0.246,0.736,-23.96,-12.48,6.5,0,6
15968.578,-0.389,0.233,0.707,-23.5,-12.57,-0.58,0,6
15968.578,-0.405,0.226,0.692,-25.7,-9.95,-7.9,0,6
15968.593,-0.406,0.237,0.69,-29.91,-6.01,-15.44,0,6
15968.609,-0.414,0.24,0.695,-33.27,-0.34,-22.86,0,6
15968.609,-0.424,0.233,0.693,-34.82,7.75,-30.95,0,6
15968.625,-0.441,0.231,0.644,-35.8,19.29,-40.62,0,6
15968.625,-0.721,0.501,0.718,-35.49,36.74,-47.3,0,6
15968.64,-0.862,0.647,1.159,4.7,19.71,0.46,0,6
15968.656,-0.744,0.406,1.182,-2.11,-13.37,1.4,0,6
15968.671,-0.762,0.457,1.074,-7.66,-31.77,2.32,0,6
15968.671,-0.711,0.514,1.045,-3.05,-40.68,7.32,0,6
15968.687,-0.521,0.349,0.843,25.51,-33.88,8.12,0,6
15968.703,-0.532,0.39,0.829,35.19,-26.76,7.35,0,6
15968.718,-0.532,0.421,0.839,36.56,-20.08,6.38,0,6
15968.718,-0.523,0.389,0.877,31.77,-17.15,2.41,0,6
15968.734,-0.59,0.429,0.899,23.29,-20.42,-7.45,0,6
15968.734,-0.507,0.407,0.949,19.14,-27.04,-7.11,0,6
15968.75,-0.424,0.292,0.839,8.0,-40.89,-18.86,0,6
15968.765,-0.528,0.348,0.844,-0.76,-45.2,-31.31,0,6
15968.765,-0.482,0.33,0.869,2.38,-48.46,-28.5,0,6
15968.781,-0.456,0.306,0.849,9.34,-52.52,-25.03,0,6
15968.796,-0.422,0.286,0.806,13.21,-56.49,-27.19,0,6
15968.796,-0.355,0.309,0.787,11.54,-61.13,-32.44,0,6
15968.812,-0.335,0.327,0.764,10.9,-63.08,-38.18,0,6
15968.828,-0.321,0.349,0.735,11.05,-62.84,-41.02,0,6
15968.828,-0.286,0.379,0.705,10.65,-60.21,-40.16,0,6
15968.843,-0.252,0.406,0.66,9.25,-54.26,-38.67,0,6
15968.859,-0.218,0.381,0.626,7.54,-32.07,-34.55,0,6
15968.875,-0.214,0.367,0.625,7.87,-18.83,-31.07,0,6
15968.875,-0.21,0.364,0.641,7.63,-8.85,-28.81,0,6
15968.89,-0.22,0.353,0.647,9.49,-0.09,-28.69,0,6
15968.906,-0.231,0.34,0.655,8.64,7.2,-31.98,0,6
15968.906,-0.29,0.367,0.724,6.53,10.74,-37.23,0,6
15968.921,-0.381,0.577,0.82,-6.26,7.54,-32.99,0,6
15968.937,-0.37,0.561,0.859,-9.86,3.2,-21.42,0,6
15968.937,-0.401,0.485,0.882,-3.27,0.52,-9.49,0,6
15968.953,-0.432,0.549,0.928,5.07,0.67,2.72,0,6
15968.968,-0.43,0.581,0.98,18.43,-0.06,12.82,0,6
15968.968,-0.418,0.534,0.996,31.31,-2.41,20.87,0,6
15968.984,-0.404,0.518,0.991,39.74,-6.23,23.9,0,6
15968.984,-0.402,0.561,0.98,41.9,-9.0,22.03,0,6
15969.0,-0.417,0.595,0.98,39.28,-10.9,20.36,0,6
15969.015,-0.422,0.573,0.949,35.52,-12.57,22.83,0,6
15969.031,-0.345,0.481,0.859,29.42,-17.09,24.08,0,6
15969.046,-0.314,0.447,0.819,26.49,-18.4,18.56,0,6
15969.046,-0.305,0.43,0.795,21.33,-19.47,9.31,0,6
15969.062,-0.318,0.461,0.776,14.8,-20.11,0.58,0,6
15969.078,-0.286,0.426,0.751,5.74,-19.44,-3.85,0,6
15969.078,-0.278,0.366,0.762,1.22,-17.67,-11.78,0,6
15969.093,-0.299,0.407,0.754,-2.04,-13.95,-16.85,0,6
15969.093,-0.299,0.433,0.775,-3.08,-9.25,-17.52,0,6
15969.109,-0.31,0.418,0.792,-1.13,-4.15,-16.79,0,6
15969.125,-0.318,0.436,0.801,0.0,-0.64,-14.1,0,6
15969.125,-0.326,0.452,0.802,2.93,1.46,-9.28,0,6
15969.14,-0.333,0.454,0.795,6.81,2.41,-5.49,0,6
15969.156,-0.324,0.454,0.778,8.45,1.74,-3.54,0,6
15969.156,-0.31,0.461,0.764,7.14,0.31,-3.81,0,6
15969.171,-0.307,0.458,0.745,4.85,-0.79,-4.43,0,6
15969.187,-0.31,0.456,0.732,1.34,-1.19,-4.46,0,6
15969.203,-0.295,0.426,0.736,-5.37,1.43,-3.05,0,6
15969.218,-0.298,0.421,0.75,-8.0,3.48,-3.54,0,6
15969.218,-0.305,0.427,0.774,-9.52,4.97,-4.49,0,6
15969.234,-0.32,0.425,0.789,-8.85,5.28,-4.85,0,6
15969.25,-0.329,0.421,0.799,-7.39,4.27,-4.61,0,6
15969.25,-0.333,0.43,0.811,-5.1,3.57,-4.21,0,6
15969.265,-0.34,0.438,0.809,-2.23,2.5,-3.36,0,6
15969.265,-0.341,0.456,0.799,-1.01,0.92,-1.8,0,6
15969.281,-0.337,0.461,0.801,-1.77,-0.06,-0.58,0,6
15969.296,-0.342,0.451,0.809,-3.14,-0.18,-0.73,0,6
15969.296,-0.346,0.445,0.811,-4.76,-0.34,-1.46,0,6
15969.312,-0.348,0.448,0.818,-6.71,-0.37,-2.11,0,6
15969.328,-0.355,0.45,0.832,-7.69,-0.61,-2.75,0,6
15969.328,-0.361,0.441,0.837,-7.66,-1.65,-3.3,0,6
15969.343,-0.37,0.441,0.846,-7.51,-3.33,-4.06,0,6
15969.359,-0.376,0.444,0.856,-6.01,-4.82,-4.49,0,6
15969.375,-0.38,0.432,0.862,3.36,-9.13,-3.57,0,6
15969.375,-0.379,0.428,0.857,10.44,-10.35,-1.68,0,6
15969.39,-0.368,0.442,0.861,15.41,-11.75,-0.34,0,6
15969.406,-0.351,0.448,0.842,21.94,-9.89,2.9,0,6
15969.406,-0.39,0.419,0.838,35.71,-5.65,5.92,0,6
15969.421,-0.389,0.552,0.855,28.05,-6.32,7.02,0,6
15969.437,-0.363,0.541,0.857,20.6,-5.92,5.98,0,6
15969.453,-0.387,0.534,0.853,8.58,-4.58,3.48,0,6
15969.453,-0.373,0.547,0.855,-3.91,-3.2,1.98,0,6
15969.468,-0.371,0.533,0.858,-10.65,-1.22,1.53,0,6
15969.468,-0.381,0.495,0.857,-9.92,1.59,3.51,0,6
15969.484,-0.372,0.467,0.86,-4.64,3.02,6.38,0,6
15969.5,-0.356,0.46,0.848,3.75,3.94,8.03,0,6
15969.5,-0.342,0.438,0.818,13.46,4.24,7.9,0,6
15969.515,-0.333,0.426,0.779,19.41,4.15,6.41,0,6
15969.515,-0.337,0.456,0.755,18.19,4.3,4.0,0,6
15969.531,-0.339,0.49,0.752,10.65,4.97,1.8,0,6
15969.546,-0.36,0.491,0.767,0.43,6.07,-0.18,0,6
15969.546,-0.368,0.522,0.793,-14.22,4.85,-0.37,0,6
15969.562,-0.313,0.437,0.764,-19.96,5.8,-0.37,0,6
15969.578,-0.367,0.396,0.785,-15.32,9.61,-0.89,0,6
15969.578,-0.352,0.453,0.814,-14.8,9.37,-0.12,0,6
15969.593,-0.343,0.431,0.83,-13.37,7.84,-2.2,0,6
15969.609,-0.367,0.412,0.822,-8.36,7.08,-2.2,0,6
15969.609,-0.37,0.423,0.812,-2.47,7.29,-0.73,0,6
15969.625,-0.368,0.441,0.812,2.44,10.41,-0.03,0,6
15969.625,-0.375,0.44,0.811,0.61,10.9,-2.23,0,6
15969.64,-0.403,0.448,0.825,-3.54,9.43,-4.46,0,6
15969.656,-0.408,0.463,0.839,-5.01,7.6,-5.25,0,6
15969.656,-0.446,0.455,0.846,-4.82,5.8,-5.13,0,6
15969.671,-0.467,0.465,0.849,-4.61,4.18,-5.16,0,6
15969.687,-0.497,0.462,0.849,-3.75,3.14,-5.4,0,6
15969.687,-0.532,0.46,0.847,-2.38,2.5,-4.94,0,6
15969.703,-0.567,0.457,0.841,-0.06,2.53,-4.36,0,6
15969.718,-0.601,0.451,0.839,2.56,2.59,-4.3,0,6
15969.718,-0.627,0.456,0.83,4.91,1.95,-4.03,0,6
15969.734,-0.646,0.465,0.812,7.11,0.89,-3.39,0,6
15969.734,-0.662,0.457,0.791,9.03,-0.34,-3.45,0,6
15969.75,-0.672,0.447,0.766,11.11,-1.4,-4.06,0,6
15969.765,-0.669,0.44,0.733,14.4,-2.56,-4.61,0,6
15969.765,-0.666,0.446,0.699,18.52,-2.87,-4.97,0,6
15969.781,-0.671,0.458,0.671,22.43,-2.08,-5.77,0,6
15969.796,-0.669,0.458,0.644,25.76,-0.49,-6.62,0,6
15969.812,-0.675,0.46,0.615,29.24,1.8,-7.08,0,6
15969.812,-0.694,0.463,0.592,33.51,5.43,-6.87,0,6
15969.828,-0.706,0.463,0.576,38.21,10.1,-6.84,0,6
15969.828,-0.704,0.462,0.56,42.66,15.96,-7.75,0,6
15969.843,-0.695,0.467,0.554,46.33,23.07,-9.89,0,6
15969.859,-0.695,0.485,0.565,48.65,29.08,-12.67,0,6
15969.859,-0.695,0.484,0.561,51.3,31.98,-14.34,0,6
15969.875,-0.676,0.469,0.541,54.54,32.78,-14.98,0,6
15969.875,-0.65,0.464,0.532,58.69,33.75,-16.27,0,6
15969.89,-0.631,0.466,0.518,63.02,34.85,-18.68,0,6
15969.906,-0.615,0.452,0.49,66.5,35.8,-21.3,0,6
15969.906,-0.587,0.434,0.463,68.58,38.3,-24.17,0,6
15969.921,-0.552,0.423,0.443,69.52,43.15,-28.2,0,6
15969.937,-0.531,0.417,0.428,69.15,49.71,-33.6,0,6
15969.937,-0.52,0.396,0.419,67.72,56.7,-38.24,0,6
15969.953,-0.472,0.424,0.404,65.55,64.39,-43.28,0,6
15969.968,-0.48,0.422,0.383,62.07,71.99,-49.81,0,6
15969.968,-0.477,0.384,0.378,55.67,78.4,-54.32,0,6
15969.984,-0.461,0.356,0.385,48.65,86.52,-57.65,0,6
15969.984,-0.453,0.318,0.412,42.7,95.65,-61.13,0,6
15970.0,-0.464,0.274,0.436,37.81,104.13,-65.1,0,6
15970.015,-0.484,0.232,0.455,33.69,110.78,-69.0,0,6
15970.015,-0.464,0.221,0.479,32.38,115.33,-72.42,0,6
15970.031,-0.449,0.225,0.481,35.62,117.53,-77.94,0,6
15970.046,-0.423,0.175,0.478,43.49,116.25,-81.73,0,6
15970.046,-0.406,0.13,0.467,54.78,112.77,-84.11,0,6
15970.062,-0.385,0.107,0.442,66.96,107.76,-86.43,0,6
15970.078,-0.369,0.088,0.414,77.36,101.14,-90.61,0,6
15970.093,-0.367,0.072,0.372,85.02,96.93,-96.9,0,6
15970.093,-0.383,0.106,0.332,84.6,97.9,-106.23,0,6
15970.093,-0.429,0.183,0.311,68.85,101.23,-119.97,0,6
15970.109,-0.494,0.198,0.295,41.69,102.27,-136.94,0,6
15970.125,-0.543,0.217,0.275,10.25,105.11,-153.45,0,6
15970.125,-0.601,0.273,0.293,-20.72,113.44,-168.16,0,6
15970.14,-0.698,0.268,0.329,-42.48,124.55,-179.63,0,6
15970.156,-0.816,0.241,0.39,-50.11,131.99,-184.27,0,6
15970.156,-0.914,0.253,0.466,-41.11,131.9,-179.91,0,6
15970.171,-0.98,0.282,0.486,-18.46,125.89,-169.04,0,6
15970.187,-1.043,0.298,0.474,7.08,115.57,-155.55,0,6
15970.203,-1.067,0.293,0.452,30.85,104.13,-141.64,0,6
15970.203,-1.074,0.316,0.383,49.01,97.23,-131.05,0,6
15970.218,-1.13,0.516,0.265,39.61,114.35,-124.97,0,6
15970.234,-1.197,0.552,0.274,7.84,129.25,-128.64,0,6
15970.234,-1.274,0.524,0.318,-29.97,137.64,-132.45,0,6
15970.25,-1.352,0.482,0.366,-62.38,139.16,-132.11,0,6
15970.265,-1.389,0.45,0.414,-81.82,135.11,-124.97,0,6
15970.265,-1.379,0.399,0.463,-85.02,127.96,-112.67,0,6
15970.281,-1.349,0.336,0.516,-71.78,119.54,-99.12,0,6
15970.296,-1.324,0.288,0.539,-43.46,111.7,-87.44,0,6
15970.312,-1.296,0.274,0.52,-5.58,104.22,-77.58,0,6
15970.312,-1.244,0.241,0.566,36.35,97.51,-70.8,0,6
15970.328,-1.08,0.115,0.891,100.41,95.61,-74.28,0,6
15970.328,-1.261,0.021,0.768,217.29,102.21,-83.07,0,6
15970.343,-1.303,0.327,0.41,302.74,105.84,-64.76,0,6
15970.343,-1.108,0.53,0.298,328.2,96.77,-54.26,0,6
15970.359,-1.165,0.421,0.164,324.14,91.28,-54.26,0,6
15970.375,-1.174,0.464,0.065,289.35,84.93,-47.09,0,6
15970.39,-1.11,0.556,0.008,242.41,75.41,-39.25,0,6
15970.39,-1.096,0.533,-0.055,189.28,63.97,-34.18,0,6
15970.406,-1.08,0.48,-0.099,128.82,49.9,-30.3,0,6
15970.406,-1.046,0.438,-0.109,71.47,35.83,-27.71,0,6
15970.421,-1.026,0.38,-0.104,25.88,23.1,-26.58,0,6
15970.437,-1.021,0.313,-0.089,-4.97,10.56,-25.97,0,6
15970.437,-1.012,0.265,-0.08,-20.97,0.06,-24.32,0,6
15970.453,-1.012,0.241,-0.057,-24.6,-8.06,-21.52,0,6
15970.468,-1.016,0.226,-0.069,-18.89,-14.8,-15.93,0,6
15970.468,-1.027,0.229,-0.107,-14.65,-19.32,-6.53,0,6
15970.484,-1.009,0.247,-0.097,-12.97,-21.27,4.3,0,6
15970.484,-1.022,0.275,-0.078,-9.58,-22.16,13.09,0,6
15970.5,-1.04,0.296,-0.061,-5.25,-22.86,21.67,0,6
15970.515,-1.05,0.327,-0.051,-2.66,-23.83,29.42,0,6
15970.515,-1.071,0.447,-0.053,-6.71,-23.99,33.45,0,6
15970.531,-1.088,0.566,-0.007,-21.85,-26.06,33.97,0,6
15970.546,-1.133,0.596,0.068,-38.3,-31.01,34.67,0,6
15970.546,-1.187,0.653,0.138,-50.87,-36.93,42.05,0,6
15970.562,-1.217,0.725,0.227,-59.24,-44.34,56.4,0,6
15970.578,-1.249,0.735,0.342,-57.95,-50.75,74.43,0,6
15970.578,-1.291,0.766,0.452,-46.33,-53.38,96.84,0,6
15970.593,-1.312,0.825,0.548,-30.58,-55.51,122.01,0,6
15970.609,-1.345,0.829,0.639,10.07,-66.65,161.53,0,6
15970.609,-1.378,0.81,0.714,27.86,-73.21,173.74,0,6
15970.625,-1.387,0.833,0.77,39.12,-83.25,179.57,0,6
15970.625,-1.432,0.873,0.807,42.12,-96.77,180.85,0,6
15970.64,-1.566,1.028,0.863,36.59,-111.73,182.29,0,6
15970.656,-1.624,1.071,0.879,24.66,-126.83,186.83,0,6
15970.671,-1.682,1.072,0.915,12.97,-141.39,195.81,0,6
15970.671,-1.706,1.027,0.941,6.38,-154.7,209.27,0,6
15970.687,-1.705,0.973,0.949,6.68,-166.63,221.9,0,6
15970.687,-1.681,0.932,0.936,13.92,-175.24,230.99,0,6
15970.703,-1.636,0.905,0.899,24.02,-180.06,236.88,0,6
15970.718,-1.518,0.898,0.766,36.04,-183.63,246.44,0,6
15970.734,-1.43,0.87,0.698,31.53,-185.86,253.76,0,6
15970.75,-1.336,0.861,0.643,16.6,-186.01,260.32,0,6
15970.75,-1.205,0.85,0.622,-7.05,-185.09,261.54,0,6
15970.765,-1.101,0.815,0.606,-33.33,-182.44,258.58,0,6
15970.765,-1.039,0.817,0.6,-61.77,-179.45,251.72,0,6
15970.781,-0.983,0.797,0.585,-91.28,-180.52,241.43,0,6
15970.796,-0.938,0.74,0.58,-118.47,-184.73,231.64,0,6
15970.812,-0.895,0.706,0.575,-140.54,-190.65,225.04,0,6
15970.812,-0.84,0.654,0.551,-155.49,-198.68,220.34,0,6
15970.828,-0.756,0.592,0.537,-164.07,-206.79,215.19,0,6
15970.843,-0.661,0.553,0.525,-164.74,-211.71,206.58,0,6
15970.843,-0.604,0.551,0.519,-156.96,-211.37,194.52,0,6
15970.859,-0.556,0.555,0.491,-142.22,-207.86,181.52,0,6
15970.859,-0.478,0.544,0.455,-123.72,-203.07,169.41,0,6
15970.875,-0.419,0.513,0.41,-100.07,-196.87,157.38,0,6
15970.875,-0.414,0.506,0.326,-73.4,-188.85,144.75,0,6
15970.89,-0.418,0.574,0.223,-53.25,-181.34,131.23,0,6
15970.906,-0.408,0.643,0.123,-43.64,-174.84,118.11,0,6
15970.906,-0.438,0.715,0.037,-44.56,-167.06,106.54,0,6
15970.921,-0.453,0.791,-0.06,-55.79,-161.35,95.86,0,6
15970.937,-0.465,0.85,-0.16,-76.51,-161.72,86.7,0,6
15970.937,-0.477,0.853,-0.222,-99.61,-167.94,79.2,0,6
15970.953,-0.478,0.83,-0.255,-121.1,-176.95,73.7,0,6
15970.968,-0.474,0.741,-0.283,-138.04,-183.63,69.37,0,6
15970.968,-0.438,0.599,-0.252,-152.41,-183.75,70.65,0,6
15970.984,-0.29,0.644,-0.184,-157.17,-174.66,70.68,0,6
15971.0,-0.293,0.524,-0.191,-151.49,-148.84,65.77,0,6
15971.0,-0.247,0.364,-0.112,-158.6,-117.47,74.71,0,6
15971.015,-0.08,0.346,0.034,-160.59,-78.28,91.31,0,6
15971.015,0.005,0.452,0.119,-147.74,-26.92,95.74,0,6
15971.031,-0.078,0.397,0.175,-141.12,17.09,96.1,0,6
15971.046,-0.138,0.258,0.474,-145.12,75.53,112.98,0,6
15971.062,-0.144,0.188,0.587,-133.88,89.72,118.56,0,6
15971.078,-0.075,0.249,0.653,-123.66,97.93,108.34,0,6
15971.078,-0.129,0.204,0.7,-127.57,101.41,85.6,0,6
15971.093,-0.173,0.073,0.787,-148.81,92.32,65.95,0,6
15971.109,-0.125,0.045,0.861,-166.75,75.53,51.58,0,6
15971.109,-0.096,0.088,0.841,-166.81,62.53,35.92,0,6
15971.125,-0.128,0.023,0.796,-162.82,54.08,24.26,0,6
15971.125,-0.135,-0.043,0.779,-161.75,47.98,18.74,0,6
15971.14,-0.13,-0.026,0.773,-154.58,45.35,13.79,0,6
15971.156,-0.141,-0.038,0.771,-140.02,46.36,9.03,0,6
15971.156,-0.138,-0.087,0.792,-125.19,49.56,6.29,0,6
15971.171,-0.13,-0.137,0.835,-110.42,55.06,4.73,0,6
15971.187,-0.116,-0.191,0.871,-93.45,58.14,2.5,0,6
15971.187,-0.12,-0.232,0.887,-75.56,56.73,-2.96,0,6
15971.203,-0.115,-0.219,0.899,-61.92,49.17,-13.58,0,6
15971.203,-0.113,-0.176,0.887,-52.13,39.19,-26.86,0,6
15971.218,-0.132,-0.127,0.862,-45.26,31.65,-37.69,0,6
15971.234,-0.146,-0.087,0.864,-38.48,27.92,-42.27,0,6
15971.25,-0.14,-0.069,0.883,-32.35,27.68,-40.28,0,6
15971.25,-0.125,-0.037,0.894,-30.09,28.41,-35.65,0,6
15971.265,-0.129,0.001,0.917,-32.65,28.84,-29.69,0,6
15971.265,-0.143,0.0,0.955,-39.86,27.44,-22.86,0,6
15971.281,-0.142,-0.013,1.008,-49.96,23.47,-17.58,0,6
15971.296,-0.175,-0.062,1.047,-58.93,17.18,-12.91,0,6
15971.296,-0.176,-0.098,1.075,-64.15,6.47,-6.62,0,6
15971.312,-0.155,-0.125,1.071,-58.96,-8.0,-5.22,0,6
15971.312,-0.141,-0.241,1.002,-43.09,-24.51,-6.9,0,6
15971.328,-0.094,-0.322,0.942,-20.48,-42.45,-7.2,0,6
15971.343,0.017,-0.271,0.852,11.38,-54.87,-8.06,0,6
15971.359,0.068,-0.226,0.712,42.66,-58.05,-13.49,0,6
15971.359,0.11,-0.165,0.616,57.71,-52.25,-19.75,0,6
15971.375,0.137,-0.037,0.575,57.28,-38.7,-29.21,0,6
15971.375,0.132,-0.003,0.589,45.35,-19.41,-35.58,0,6
15971.39,0.112,0.044,0.663,27.65,0.12,-36.07,0,6
15971.406,0.078,0.082,0.765,13.64,16.24,-32.23,0,6
15971.406,0.047,0.077,0.862,4.43,26.12,-24.72,0,6
15971.421,0.048,0.079,0.938,-1.43,28.53,-16.72,0,6
15971.437,0.067,0.092,0.99,-5.95,25.76,-10.96,0,6
15971.437,0.067,0.107,1.036,-14.01,23.32,-7.93,0,6
15971.453,0.057,0.106,1.089,-26.15,22.25,-6.68,0,6
15971.468,0.034,0.099,1.141,-38.45,19.9,-5.86,0,6
15971.468,0.024,0.081,1.164,-46.48,13.37,-3.02,0,6
15971.484,0.032,0.063,1.167,-48.89,5.83,1.43,0,6
15971.484,0.031,0.032,1.169,-47.03,0.58,5.55,0,6
15971.5,0.034,-0.023,1.155,-40.38,-4.33,7.63,0,6
15971.515,0.048,-0.078,1.118,-28.5,-9.67,7.81,0,6
15971.515,0.068,-0.113,1.058,-13.21,-14.53,6.47,0,6
15971.531,0.094,-0.115,1.006,1.98,-16.21,4.15,0,6
15971.546,0.125,-0.114,0.959,13.92,-14.68,1.37,0,6
15971.546,0.138,-0.067,0.927,21.03,-10.28,-2.04,0,6
15971.562,0.13,-0.034,0.907,22.58,-4.7,-5.13,0,6
15971.578,0.12,-0.017,0.915,18.95,0.58,-6.35,0,6
15971.578,0.105,0.015,0.942,11.99,4.64,-5.4,0,6
15971.593,0.087,0.028,0.967,-3.3,6.35,-0.85,0,6
15971.609,0.071,0.028,0.987,-8.97,4.24,2.38,0,6
15971.609,0.059,0.014,1.001,-12.09,0.4,5.4,0,6
15971.625,0.063,-0.043,1.025,-12.27,-4.43,7.97,0,6
15971.625,0.069,-0.069,1.016,-11.78,-8.88,9.34,0,6
15971.64,0.077,-0.092,0.988,-9.83,-12.42,9.31,0,6
15971.656,0.086,-0.103,0.948,-6.65,-14.16,7.78,0,6
15971.656,0.113,-0.091,0.916,-4.55,-13.98,6.29,0,6
15971.671,0.126,-0.064,0.897,-5.37,-9.83,5.43,0,6
15971.687,0.124,-0.054,0.893,-8.58,-3.69,5.62,0,6
15971.703,0.112,-0.065,0.91,-12.45,2.72,6.9,0,6
15971.703,0.099,-0.086,0.927,-14.74,6.29,8.15,0,6
15971.718,0.118,-0.103,0.938,-14.01,6.84,8.7,0,6
15971.718,0.134,-0.104,0.956,-12.42,7.84,9.28,0,6
15971.734,0.13,-0.106,0.977,-13.28,9.55,9.09,0,6
15971.734,0.126,-0.104,1.002,-16.88,9.8,8.21,0,6
15971.75,0.112,-0.102,1.014,-20.78,8.55,6.84,0,6
15971.765,0.099,-0.113,1.028,-23.59,6.44,6.5,0,6
15971.765,0.115,-0.102,1.036,-24.45,2.93,5.83,0,6
15971.781,0.121,-0.105,1.034,-24.05,1.19,4.91,0,6
15971.796,0.122,-0.12,1.035,-24.14,0.82,4.64,0,6
15971.796,0.122,-0.114,1.042,-22.68,0.52,3.75,0,6
15971.812,0.116,-0.113,1.046,-19.2,-0.09,2.66,0,6
15971.828,0.105,-0.108,1.049,-14.71,-0.7,1.86,0,6
15971.828,0.107,-0.106,1.044,-9.74,-1.8,1.25,0,6
15971.843,0.11,-0.086,1.029,-5.1,-1.43,1.53,0,6
15971.859,0.118,-0.078,1.025,-2.59,-0.43,2.29,0,6
15971.859,0.125,-0.084,1.022,-3.17,0.43,2.62,0,6
15971.875,0.116,-0.089,1.024,-4.76,0.18,2.44,0,6
15971.875,0.107,-0.099,1.021,-5.31,-1.37,1.68,0,6
15971.89,0.102,-0.112,1.008,-3.97,-4.3,1.04,0,6
15971.906,0.108,-0.108,0.985,-1.22,-7.42,1.04,0,6
15971.906,0.113,-0.106,0.956,1.95,-9.03,0.61,0,6
15971.921,0.123,-0.11,0.927,4.52,-9.34,0.31,0,6
15971.937,0.141,-0.096,0.901,5.49,-8.33,-0.43,0,6
15971.937,0.135,-0.09,0.892,4.15,-4.27,-0.61,0,6
15971.953,0.131,-0.082,0.906,1.13,0.31,-0.64,0,6
15971.968,0.118,-0.084,0.922,-1.98,4.24,-0.73,0,6
15971.968,0.109,-0.092,0.939,-4.88,7.05,-1.01,0,6
15971.984,0.103,-0.089,0.959,-6.44,8.21,-1.8,0,6
15971.984,0.097,-0.094,0.967,-6.5,7.97,-2.35,0,6
15972.0,0.092,-0.098,0.974,-5.49,7.08,-2.26,0,6
15972.015,0.086,-0.096,0.983,-3.17,5.65,-1.46,0,6
15972.015,0.086,-0.091,0.98,-0.67,3.33,-0.37,0,6
15972.031,0.102,-0.085,0.97,0.18,0.95,0.76,0,6
15972.046,0.117,-0.078,0.959,-0.61,0.37,1.37,0,6
15972.046,0.118,-0.086,0.953,-3.51,1.19,1.65,0,6
15972.078,0.115,-0.092,0.962,-10.96,3.81,2.14,0,6
15972.078,0.111,-0.105,0.977,-14.37,5.8,2.44,0,6
15972.093,0.107,-0.12,0.996,-16.94,7.29,2.47,0,6
15972.093,0.106,-0.131,1.011,-17.52,7.54,1.98,0,6
15972.109,0.107,-0.143,1.026,-15.87,7.05,1.04,0,6
15972.125,0.103,-0.144,1.036,-11.96,6.04,-0.31,0,6
15972.125,0.098,-0.141,1.036,-6.13,4.46,-1.71,0,6
15972.14,0.103,-0.129,1.03,-0.27,3.02,-2.5,0,6
15972.156,0.102,-0.117,1.027,4.21,2.84,-2.75,0,6
15972.156,0.096,-0.114,1.024,7.02,2.62,-2.62,0,6
15972.171,0.087,-0.113,1.02,8.48,1.86,-2.2,0,6
15972.187,0.088,-0.113,1.007,8.51,-0.09,-2.01,0,6
15972.187,0.096,-0.1,0.998,7.26,-1.71,-2.08,0,6
15972.203,0.094,-0.094,0.992,5.16,-1.62,-2.5,0,6
15972.218,0.081,-0.093,0.989,3.08,-0.61,-2.96,0,6
15972.218,0.074,-0.089,0.994,1.74,0.49,-2.69,0,6
15972.25,0.081,-0.091,1.0,2.29,1.74,-1.68,0,6
15972.25,0.089,-0.094,0.998,3.75,1.62,-1.43,0,6
15972.265,0.092,-0.091,0.996,4.49,1.98,-1.28,0,6
15972.265,0.089,-0.082,0.992,3.57,2.81,-1.19,0,6
15972.281,0.091,-0.085,0.988,1.68,3.33,-1.25,0,6
15972.296,0.085,-0.089,0.998,-0.49,3.75,-0.98,0,6
15972.296,0.079,-0.091,1.014,-1.5,3.6,-0.82,0,6
15972.312,0.075,-0.096,1.023,-1.34,2.5,-0.61,0,6
15972.328,0.074,-0.104,1.023,0.15,1.1,-0.06,0,6
15972.328,0.07,-0.11,1.021,2.08,-0.09,0.21,0,6
15972.343,0.069,-0.108,1.012,3.57,-1.4,-0.31,0,6
15972.359,0.072,-0.106,1.001,4.67,-2.72,-0.79,0,6
15972.359,0.072,-0.101,0.99,5.37,-3.02,-1.16,0,6
15972.375,0.071,-0.099,0.982,5.62,-2.72,-1.62,0,6
15972.375,0.076,-0.093,0.973,4.85,-2.17,-2.01,0,6
15972.39,0.081,-0.09,0.97,3.6,-1.43,-2.32,0,6
15972.406,0.088,-0.097,0.97,2.75,-0.61,-2.56,0,6
15972.406,0.088,-0.103,0.975,3.36,0.27,-3.3,0,6
15972.421,0.091,-0.106,0.974,5.62,1.34,-4.46,0,6
15972.437,0.088,-0.102,0.982,9.13,3.17,-5.71,0,6
15972.437,0.078,-0.101,0.99,13.0,4.88,-6.9,0,6
15972.453,0.068,-0.095,0.99,16.85,5.8,-7.78,0,6
15972.468,0.057,-0.076,0.988,20.11,5.89,-8.76,0,6
15972.468,0.052,-0.051,0.981,21.3,4.88,-9.49,0,6
15972.484,0.046,-0.029,0.969,19.93,3.23,-9.67,0,6
15972.5,0.039,-0.012,0.957,16.33,1.77,-8.91,0,6
15972.5,0.031,-0.004,0.948,10.96,1.25,-7.26,0,6
15972.515,0.046,-0.001,0.942,4.27,0.7,-5.25,0,6
15972.515,0.06,0.005,0.948,-2.96,1.77,-3.14,0,6
15972.531,0.063,-0.002,0.964,-9.74,4.09,-1.59,0,6
15972.546,0.062,-0.021,0.989,-14.04,6.47,-0.21,0,6
15972.546,0.054,-0.039,1.016,-14.44,8.67,0.85,0,6
15972.562,0.06,-0.051,1.037,-10.65,9.86,1.43,0,6
15972.578,0.067,-0.053,1.048,-0.15,11.51,1.59,0,6
15972.578,0.066,-0.049,1.057,3.97,11.57,1.83,0,6
15972.593,0.061,-0.046,1.062,7.2,10.93,2.62,0,6
15972.609,0.058,-0.043,1.064,8.79,10.07,3.39,0,6
15972.609,0.054,-0.041,1.064,8.45,8.88,4.33,0,6
15972.625,0.048,-0.042,1.063,7.32,7.11,4.97,0,6
15972.625,0.05,-0.052,1.064,6.1,4.76,5.86,0,6
15972.64,0.057,-0.06,1.065,5.01,3.27,7.08,0,6
15972.656,0.058,-0.061,1.067,3.39,2.17,7.87,0,6
15972.656,0.063,-0.072,1.07,1.31,0.95,8.12,0,6
15972.671,0.059,-0.077,1.075,-0.49,-0.06,7.75,0,6
15972.687,0.06,-0.086,1.073,-1.34,-2.23,7.42,0,6
15972.687,0.064,-0.092,1.062,-0.58,-4.46,7.14,0,6
15972.703,0.068,-0.092,1.054,0.73,-5.8,7.26,0,6
15972.718,0.064,-0.094,1.046,2.04,-6.13,7.45,0,6
15972.718,0.053,-0.1,1.033,3.72,-6.13,6.9,0,6
15972.734,0.057,-0.095,1.03,4.88,-5.83,5.95,0,6
15972.734,0.063,-0.102,1.027,5.55,-5.46,5.49,0,6
15972.75,0.059,-0.104,1.019,6.23,-5.25,5.19,0,6
15972.765,0.054,-0.101,1.01,7.05,-5.62,4.67,0,6
15972.765,0.054,-0.102,0.997,6.87,-6.71,4.09,0,6
15972.781,0.056,-0.098,0.982,6.29,-7.48,3.3,0,6
15972.796,0.059,-0.093,0.966,5.49,-7.69,2.72,0,6
15972.796,0.054,-0.088,0.953,4.49,-7.35,2.35,0,6
15972.812,0.054,-0.09,0.948,3.23,-6.78,2.08,0,6
15972.828,0.05,-0.089,0.941,1.92,-5.68,1.86,0,6
15972.843,0.047,-0.091,0.938,0.7,-4.49,1.25,0,6
15972.843,0.032,-0.101,0.937,-0.15,-3.39,0.49,0,6
15972.843,0.002,-0.102,0.934,0.03,-2.66,-0.27,0,6
15972.859,-0.006,-0.094,0.925,0.15,-1.98,-1.1,0,6
15972.875,0.02,-0.078,0.927,-2.23,-0.31,-1.56,0,6
15972.875,0.027,-0.062,0.923,-5.04,2.17,-1.86,0,6
15972.89,0.019,-0.067,0.93,-7.42,4.03,-1.37,0,6
15972.906,0.039,-0.057,0.939,-9.52,4.24,-0.34,0,6
15972.906,0.062,-0.053,0.942,-11.78,4.3,0.82,0,6
15972.937,0.078,-0.072,0.959,-14.01,4.88,3.66,0,6
15972.937,0.078,-0.095,0.972,-13.28,4.97,4.94,0,6
15972.953,0.079,-0.109,0.975,-11.69,4.43,4.91,0,6
15972.968,0.075,-0.12,0.981,-9.61,4.18,3.91,0,6
15972.968,0.072,-0.124,0.99,-7.66,4.27,2.29,0,6
15972.984,0.057,-0.117,0.997,-6.2,5.13,0.76,0,6
15972.984,0.054,-0.119,1.01,-5.19,6.23,-0.4,0,6
15973.0,0.067,-0.119,1.024,-4.33,7.05,-1.22,0,6
15973.015,0.063,-0.106,1.037,-3.3,7.51,-2.26,0,6
15973.031,0.051,-0.097,1.05,-2.26,6.87,-3.45,0,6
15973.031,0.05,-0.09,1.056,-1.1,4.58,-4.21,0,6
15973.046,0.038,-0.079,1.055,0.55,1.77,-4.15,0,6
15973.046,0.032,-0.075,1.046,1.95,-0.61,-3.23,0,6
15973.062,0.049,-0.074,1.042,1.56,-1.95,-2.26,0,6
15973.078,0.055,-0.078,1.043,0.09,-2.11,-1.95,0,6
15973.078,0.054,-0.085,1.049,-1.59,-1.46,-2.01,0,6
15973.109,0.047,-0.089,1.067,-3.42,-1.95,-2.47,0,6
15973.109,0.042,-0.091,1.068,-2.99,-2.53,-2.62,0,6
15973.125,0.042,-0.093,1.065,-2.56,-2.69,-3.14,0,6
15973.14,0.043,-0.088,1.067,-2.38,-2.32,-3.78,0,6
15973.14,0.048,-0.083,1.071,-2.44,-2.23,-4.21,0,6
15973.156,0.054,-0.078,1.071,-3.02,-1.68,-4.21,0,6
15973.156,0.058,-0.074,1.07,-4.0,-1.13,-4.06,0,6
15973.171,0.048,-0.076,1.069,-4.85,-0.64,-3.97,0,6
15973.187,0.047,-0.08,1.067,-5.43,-0.43,-3.88,0,6
15973.187,0.047,-0.073,1.066,-5.8,-0.89,-4.12,0,6
15973.203,0.039,-0.079,1.065,-5.19,-1.83,-4.06,0,6
15973.218,0.033,-0.085,1.067,-3.85,-3.54,-3.72,0,6
15973.218,0.032,-0.089,1.054,-2.11,-6.38,-3.72,0,6
15973.234,0.042,-0.086,1.037,-0.95,-9.03,-4.03,0,6
15973.234,0.039,-0.086,1.014,0.27,-10.32,-4.7,0,6
15973.25,0.05,-0.087,0.993,0.55,-10.41,-4.58,0,6
15973.265,0.058,-0.081,0.977,0.21,-9.28,-4.15,0,6
15973.265,0.058,-0.088,0.965,-1.1,-8.09,-3.85,0,6
15973.281,0.067,-0.089,0.96,-3.05,-7.02,-3.69,0,6
15973.296,0.073,-0.091,0.96,-4.36,-5.95,-3.94,0,6
15973.296,0.067,-0.091,0.963,-4.39,-5.31,-4.15,0,6
15973.312,0.064,-0.089,0.961,-3.45,-5.19,-3.81,0,6
15973.328,0.068,-0.082,0.957,-2.29,-5.22,-3.33,0,6
15973.343,0.061,-0.08,0.952,-1.5,-5.22,-2.9,0,6
15973.343,0.057,-0.086,0.946,-0.52,-5.4,-2.32,0,6
15973.359,0.062,-0.09,0.941,0.49,-5.65,-1.74,0,6
15973.359,0.071,-0.09,0.936,1.19,-5.55,-1.28,0,6
15973.375,0.058,-0.091,0.929,1.53,-4.7,-1.46,0,6
15973.375,0.055,-0.089,0.931,0.73,-3.69,-1.56,0,6
15973.39,0.062,-0.075,0.935,-0.31,-2.84,-1.5,0,6
15973.406,0.057,-0.08,0.94,-1.62,-1.95,-0.49,0,6
15973.406,0.061,-0.08,0.941,-2.11,-1.92,0.21,0,6
15973.421,0.053,-0.092,0.943,-1.59,-1.95,0.58,0,6
15973.437,0.054,-0.101,0.942,-0.64,-2.29,0.89,0,6
15973.453,0.058,-0.098,0.935,0.67,-2.62,0.92,0,6
15973.453,0.072,-0.091,0.929,1.01,-2.01,0.58,0,6
15973.468,0.071,-0.089,0.931,0.73,-0.24,0.49,0,6
15973.468,0.067,-0.088,0.941,0.27,1.83,0.92,0,6
15973.484,0.073,-0.087,0.951,-0.67,2.69,1.71,0,6
15973.5,0.071,-0.097,0.962,-1.77,3.66,2.17,0,6
15973.5,0.061,-0.105,0.971,-2.62,3.85,2.04,0,6
15973.515,0.057,-0.109,0.979,-2.96,3.42,1.68,0,6
15973.515,0.061,-0.115,0.983,-3.14,3.11,1.25,0,6
15973.531,0.066,-0.125,0.988,-2.11,3.11,1.04,0,6
15973.546,0.065,-0.13,0.994,-0.06,3.11,0.79,0,6
15973.546,0.07,-0.124,0.995,3.57,2.41,-1.07,0,6
15973.562,0.068,-0.11,0.992,3.85,2.44,-1.65,0,6
15973.578,0.07,-0.104,0.987,3.51,2.69,-1.65,0,6
15973.578,0.069,-0.101,0.981,3.39,3.05,-1.16,0,6
15973.593,0.056,-0.1,0.977,2.87,3.36,-0.61,0,6
15973.609,0.054,-0.107,0.975,2.14,3.36,-0.4,0,6
15973.609,0.047,-0.112,0.971,1.77,3.23,-0.52,0,6
15973.625,0.044,-0.11,0.96,1.25,2.93,-0.79,0,6
15973.625,0.048,-0.107,0.951,0.0,2.75,-1.31,0,6
15973.64,0.044,-0.103,0.94,-1.28,3.14,-1.53,0,6
15973.656,0.038,-0.102,0.932,-2.99,3.72,-1.62,0,6
15973.671,0.044,-0.098,0.924,-4.76,4.03,-1.62,0,6
15973.671,0.042,-0.093,0.922,-6.16,5.46,-1.68,0,6
15973.687,0.036,-0.094,0.929,-8.09,7.78,-1.07,0,6
15973.687,0.036,-0.096,0.948,-10.9,10.07,-0.15,0,6
15973.703,0.035,-0.099,0.974,-13.61,12.15,0.67,0,6
15973.718,0.029,-0.107,1.005,-15.69,13.79,0.89,0,6
15973.718,0.021,-0.118,1.038,-16.6,14.62,0.64,0,6
15973.734,0.017,-0.123,1.064,-15.78,14.22,0.49,0,6
15973.734,0.015,-0.126,1.082,-13.89,13.49,0.37,0,6
15973.75,0.012,-0.129,1.099,-12.02,12.88,0.27,0,6
15973.765,0.016,-0.123,1.12,-10.8,11.96,-0.18,0,6
15973.765,0.019,-0.121,1.14,-9.52,11.14,-0.67,0,6
15973.781,0.019,-0.123,1.157,-7.63,10.13,-0.82,0,6
15973.796,0.02,-0.124,1.168,-4.36,8.45,-0.55,0,6
15973.796,0.02,-0.126,1.175,0.4,6.53,-0.27,0,6
15973.812,0.011,-0.137,1.187,5.86,3.78,-0.15,0,6
15973.828,0.02,-0.139,1.161,12.51,-0.79,-0.37,0,6
15973.828,0.035,-0.134,1.134,19.65,-4.88,-0.55,0,6
15973.843,0.043,-0.131,1.102,26.43,-8.33,-0.89,0,6
15973.859,0.043,-0.106,1.067,30.61,-10.5,-1.25,0,6
15973.859,0.038,-0.089,1.042,31.62,-10.77,-1.56,0,6
15973.875,0.054,-0.075,1.031,29.45,-10.22,-1.13,0,6
15973.875,0.066,-0.061,1.031,25.27,-8.61,-0.18,0,6
15973.89,0.068,-0.058,1.044,20.45,-7.45,0.34,0,6
15973.906,0.081,-0.056,1.056,16.08,-7.51,0.95,0,6
15973.906,0.096,-0.052,1.061,12.73,-8.06,1.86,0,6
15973.921,0.101,-0.059,1.063,11.44,-8.64,3.05,0,6
15973.937,0.118,-0.053,1.065,12.27,-8.55,4.27,0,6
15973.953,0.13,-0.045,1.067,14.16,-7.23,4.88,0,6
15973.953,0.12,-0.057,1.067,18.04,-7.45,4.58,0,6
15973.968,0.131,-0.069,1.053,25.88,-10.32,4.0,0,6
15973.968,0.118,-0.06,1.026,36.5,-11.54,3.42,0,6
15973.984,0.117,-0.041,0.998,44.86,-10.62,2.84,0,6
15974.0,0.119,-0.004,0.98,48.04,-7.42,2.01,0,6
15974.0,0.102,0.028,0.975,46.27,-2.17,2.14,0,6
15974.015,0.082,0.042,0.981,41.93,3.27,3.3,0,6
15974.015,0.047,0.042,0.985,38.97,5.62,5.19,0,6
15974.031,0.037,0.025,0.965,42.79,0.55,7.54,0,6
15974.046,0.062,0.012,0.923,53.65,-7.78,10.68,0,6
15974.046,0.074,0.035,0.882,63.66,-12.21,13.82,0,6
15974.062,0.073,0.061,0.852,65.16,-12.6,15.72,0,6
15974.078,0.063,0.045,0.835,60.55,-10.77,16.02,0,6
15974.078,0.031,0.036,0.83,53.35,-8.64,15.29,0,6
15974.093,0.01,0.026,0.84,43.21,-7.9,14.01,0,6
15974.109,-0.001,0.007,0.856,32.23,-8.88,11.41,0,6
15974.109,-0.007,-0.015,0.864,23.32,-12.39,7.08,0,6
15974.125,-0.001,-0.031,0.864,18.52,-16.42,2.47,0,6
15974.125,-0.004,-0.038,0.864,17.64,-17.88,-1.65,0,6
15974.14,0.016,-0.043,0.882,17.73,-17.52,-5.98,0,6
15974.156,0.03,-0.036,0.905,20.36,-15.81,-10.9,0,6
15974.156,0.011,-0.036,0.921,26.89,-11.96,-15.14,0,6
15974.171,-0.002,-0.036,0.941,34.91,-7.17,-16.75,0,6
15974.187,-0.018,-0.033,0.955,43.31,-2.04,-16.85,0,6
15974.187,-0.005,-0.022,0.955,49.32,3.66,-17.0,0,6
15974.203,0.014,0.016,0.947,50.87,7.87,-18.62,0,6
15974.218,0.023,0.054,0.948,46.88,12.12,-19.96,0,6
15974.218,0.052,0.104,0.982,34.94,16.63,-19.65,0,6
15974.234,0.091,0.119,1.024,18.13,16.82,-20.17,0,6
15974.234,0.131,0.149,1.074,-0.4,16.17,-22.16,0,6
15974.25,0.146,0.201,1.161,-21.15,20.02,-24.2,0,6
15974.265,0.133,0.188,1.265,-41.02,24.26,-25.73,0,6
15974.265,0.114,0.158,1.354,-55.67,27.13,-25.76,0,6
15974.281,0.077,0.139,1.43,-61.86,26.86,-25.27,0,6
15974.296,0.053,0.099,1.487,-56.58,21.55,-23.96,0,6
15974.296,0.037,0.05,1.501,-38.24,10.86,-21.7,0,6
15974.312,0.023,0.037,1.46,-11.11,-3.11,-18.92,0,6
15974.328,0.019,0.046,1.376,17.67,-14.86,-15.93,0,6
15974.328,0.024,0.093,1.276,38.21,-21.79,-13.52,0,6
15974.343,0.022,0.143,1.195,45.9,-24.51,-10.47,0,6
15974.359,0.015,0.141,1.124,45.29,-24.78,-7.48,0,6
15974.359,0.026,0.148,1.062,38.39,-25.3,-5.43,0,6
15974.375,0.047,0.156,1.031,28.69,-24.45,-3.69,0,6
15974.39,0.061,0.13,1.019,17.85,-22.1,-2.59,0,6
15974.39,0.059,0.101,1.008,6.78,-19.84,-2.41,0,6
15974.406,0.056,0.088,1.01,-2.9,-17.94,-2.56,0,6
15974.406,0.052,0.06,1.016,-10.22,-17.49,-3.27,0,6
15974.421,0.051,0.046,1.014,-14.95,-18.49,-4.76,0,6
15974.437,0.05,0.047,0.995,-16.08,-20.75,-5.43,0,6
15974.453,0.062,0.048,0.975,-14.86,-23.04,-5.31,0,6
15974.453,0.08,0.048,0.956,-12.6,-24.75,-6.01,0,6
15974.468,0.093,0.066,0.927,-10.38,-24.75,-7.11,0,6
15974.468,0.093,0.088,0.911,-9.74,-23.16,-7.11,0,6
15974.484,0.101,0.089,0.904,-10.04,-21.45,-6.84,0,6
15974.5,0.091,0.078,0.887,-9.49,-19.93,-6.23,0,6
15974.5,0.088,0.079,0.865,-7.26,-18.46,-4.21,0,6
15974.515,0.09,0.081,0.834,-2.66,-18.04,-2.32,0,6
15974.515,0.108,0.087,0.793,3.05,-18.01,-0.85,0,6
15974.531,0.116,0.108,0.76,8.03,-16.42,-0.52,0,6
15974.546,0.118,0.105,0.738,9.31,-9.61,-2.84,0,6
15974.546,0.114,0.111,0.725,6.56,-5.13,-3.63,0,6
15974.562,0.104,0.116,0.725,3.45,-1.92,-4.33,0,6
15974.578,0.088,0.111,0.753,-0.09,-0.55,-5.13,0,6
15974.578,0.082,0.122,0.772,-4.03,0.61,-6.26,0,6
15974.593,0.068,0.127,0.797,-9.77,1.62,-7.11,0,6
15974.609,0.072,0.132,0.825,-15.05,1.31,-6.74,0,6
15974.609,0.068,0.114,0.854,-17.7,1.83,-5.43,0,6
15974.625,0.078,0.116,0.888,-19.2,2.41,-4.64,0,6
15974.625,0.079,0.108,0.907,-19.1,1.89,-4.67,0,6
15974.64,0.088,0.096,0.93,-18.92,2.44,-4.33,0,6
15974.656,0.095,0.098,0.96,-18.37,4.91,-4.24,0,6
15974.656,0.096,0.091,0.982,-15.69,7.32,-4.18,0,6
15974.671,0.075,0.096,1.012,-11.87,9.61,-3.72,0,6
15974.687,0.055,0.074,1.043,-8.27,9.03,-1.86,0,6
15974.687,0.062,0.078,1.067,-4.27,5.95,1.07,0,6
15974.703,0.067,0.09,1.077,-0.09,2.78,3.2,0,6
15974.703,0.068,0.08,1.09,2.08,-0.37,4.3,0,6
15974.718,0.075,0.07,1.096,4.52,-4.39,4.36,0,6
15974.734,0.079,0.078,1.091,7.69,-8.48,4.12,0,6
15974.734,0.077,0.085,1.071,9.89,-11.87,4.27,0,6
15974.75,0.081,0.097,1.054,8.97,-14.74,4.79,0,6
15974.765,0.089,0.103,1.04,5.68,-16.79,5.52,0,6
15974.781,0.091,0.106,1.039,0.73,-18.25,6.35,0,6
15974.781,0.086,0.087,1.042,-2.78,-21.06,7.97,0,6
15974.796,0.079,0.069,1.034,-3.94,-25.3,10.77,0,6
15974.796,0.089,0.073,1.038,-3.63,-30.43,14.31,0,6
15974.812,0.101,0.074,1.03,-2.11,-34.3,18.89,0,6
15974.828,0.126,0.061,1.006,-0.82,-35.83,23.29,0,6
15974.828,0.148,0.052,0.989,0.0,-35.25,25.24,0,6
15974.843,0.161,0.042,0.969,1.13,-33.75,24.17,0,6
15974.859,0.171,0.035,0.955,2.81,-31.95,20.94,0,6
15974.859,0.175,0.038,0.929,5.4,-29.54,17.03,0,6
15974.875,0.178,0.057,0.904,7.57,-26.37,13.52,0,6
15974.875,0.17,0.08,0.898,7.97,-22.22,11.17,0,6
15974.89,0.169,0.086,0.891,6.68,-18.62,10.35,0,6
15974.906,0.174,0.091,0.873,4.73,-15.81,10.28,0,6
15974.906,0.173,0.084,0.857,4.18,-12.73,10.96,0,6
15974.921,0.182,0.075,0.847,5.19,-9.43,11.93,0,6
15974.937,0.18,0.077,0.839,7.11,-5.92,12.21,0,6
15974.937,0.179,0.083,0.837,7.23,-2.69,11.32,0,6
15974.953,0.183,0.085,0.837,5.52,0.0,9.34,0,6
15974.968,0.185,0.092,0.843,3.11,2.26,6.32,0,6
15974.968,0.181,0.08,0.846,1.92,4.36,3.45,0,6
15974.984,0.177,0.064,0.844,3.6,6.35,1.77,0,6
15974.984,0.18,0.075,0.835,6.84,7.93,1.07,0,6
15975.0,0.172,0.089,0.827,8.3,9.43,0.61,0,6
15975.015,0.163,0.092,0.832,7.35,10.38,0.37,0,6
15975.015,0.154,0.101,0.837,5.13,10.22,0.82,0,6
15975.031,0.152,0.102,0.837,3.45,9.43,1.5,0,6
15975.046,0.143,0.086,0.84,3.36,8.55,2.04,0,6
15975.046,0.139,0.066,0.834,5.83,7.14,2.38,0,6
15975.062,0.143,0.046,0.808,11.35,5.77,2.44,0,6
15975.078,0.161,0.044,0.779,17.37,5.19,2.08,0,6
15975.078,0.178,0.064,0.764,20.45,7.87,1.77,0,6
15975.093,0.166,0.071,0.752,18.89,12.94,0.82,0,6
15975.093,0.156,0.085,0.761,12.21,18.01,-0.27,0,6
15975.109,0.143,0.086,0.793,4.3,22.52,-1.59,0,6
15975.125,0.128,0.075,0.827,-1.28,25.73,-2.44,0,6
15975.14,0.108,0.067,0.85,-2.44,27.16,-2.69,0,6
15975.14,0.09,0.054,0.862,-0.03,26.55,-2.41,0,6
15975.156,0.086,0.029,0.855,5.92,23.9,-1.65,0,6
15975.156,0.1,0.03,0.839,12.79,22.46,-0.79,0,6
15975.171,0.118,0.056,0.831,16.14,25.27,-0.92,0,6
15975.187,0.109,0.055,0.839,14.4,30.27,-2.75,0,6
15975.203,0.094,0.046,0.854,10.25,34.15,-4.85,0,6
15975.203,0.082,0.055,0.873,6.68,36.35,-6.84,0,6
15975.203,0.08,0.07,0.888,4.18,38.18,-8.51,0,6
15975.218,0.06,0.086,0.916,1.37,40.5,-9.31,0,6
15975.234,0.04,0.092,0.938,-1.74,42.02,-9.58,0,6
15975.234,0.03,0.108,0.965,-4.82,42.27,-9.34,0,6
15975.25,0.018,0.106,0.99,-6.47,41.35,-8.94,0,6
15975.265,0.003,0.096,1.011,-5.49,39.19,-8.76,0,6
15975.281,0.003,0.086,1.03,0.03,36.68,-8.39,0,6
15975.281,0.003,0.082,1.035,9.95,34.61,-8.21,0,6
15975.296,0.004,0.094,1.03,21.21,34.03,-7.81,0,6
15975.296,-0.005,0.116,1.015,29.6,34.27,-7.29,0,6
15975.312,-0.008,0.139,1.015,31.86,34.64,-6.84,0,6
15975.328,-0.017,0.154,1.035,28.9,34.94,-6.2,0,6
15975.328,-0.032,0.15,1.053,24.08,34.12,-5.43,0,6
15975.343,-0.044,0.13,1.061,20.48,31.53,-5.13,0,6
15975.359,-0.045,0.115,1.053,20.08,28.35,-5.31,0,6
15975.359,-0.048,0.117,1.034,21.79,25.45,-6.23,0,6
15975.375,-0.039,0.116,1.004,24.38,22.58,-7.26,0,6
15975.375,-0.024,0.128,0.975,25.97,22.4,-8.06,0,6
15975.39,-0.011,0.152,0.97,24.26,26.15,-8.79,0,6
15975.406,-0.03,0.151,0.981,19.87,31.16,-10.62,0,6
15975.406,-0.043,0.14,1.0,14.77,35.43,-12.27,0,6
15975.421,-0.07,0.157,1.018,10.59,37.72,-14.19,0,6
15975.437,-0.093,0.156,1.03,8.48,36.87,-15.87,0,6
15975.453,-0.077,0.176,1.027,7.26,33.54,-16.48,0,6
15975.453,-0.079,0.193,1.031,6.32,31.43,-16.3,0,6
15975.453,-0.097,0.188,1.024,6.1,29.33,-15.69,0,6
15975.484,-0.106,0.193,1.015,6.38,26.37,-15.23,0,6
15975.484,-0.114,0.191,1.005,7.02,23.35,-15.05,0,6
15975.484,-0.116,0.188,0.986,7.45,20.33,-14.98,0,6
15975.5,-0.115,0.197,0.971,8.27,18.31,-15.17,0,6
15975.515,-0.112,0.194,0.952,10.22,17.0,-15.35,0,6
15975.515,-0.103,0.205,0.923,11.2,18.56,-13.31,0,6
15975.531,-0.092,0.224,0.904,7.75,23.44,-11.69,0,6
15975.546,-0.102,0.24,0.907,2.99,28.23,-10.35,0,6
15975.562,-0.126,0.233,0.919,-0.89,29.82,-9.8,0,6
15975.562,-0.153,0.219,0.938,-2.62,28.99,-9.28,0,6
15975.578,-0.162,0.208,0.944,-1.77,27.07,-8.3,0,6
15975.578,-0.16,0.211,0.942,-0.15,24.72,-7.32,0,6
15975.593,-0.155,0.232,0.954,-0.4,23.53,-5.95,0,6
15975.593,-0.17,0.235,0.964,-2.81,22.55,-4.73,0,6
15975.609,-0.185,0.219,0.979,-6.35,19.1,-3.54,0,6
15975.625,-0.187,0.215,0.985,-8.48,13.52,-1.95,0,6
15975.64,-0.185,0.215,0.995,-8.24,7.23,0.21,0,6
15975.64,-0.182,0.2,0.997,-6.62,0.82,3.08,0,6
15975.656,-0.179,0.194,0.996,-5.89,-4.94,6.1,0,6
15975.656,-0.166,0.191,0.986,-6.01,-9.13,8.06,0,6
15975.671,-0.14,0.168,0.97,-6.5,-10.68,7.72,0,6
15975.687,-0.131,0.146,0.95,-5.37,-8.73,5.1,0,6
15975.687,-0.126,0.138,0.931,-1.86,-4.61,1.83,0,6
15975.703,-0.111,0.156,0.926,4.03,0.98,-0.61,0,6
15975.718,-0.112,0.17,0.928,9.95,8.03,-1.83,0,6
15975.718,-0.128,0.18,0.932,13.52,15.2,-2.75,0,6
15975.734,-0.144,0.196,0.935,14.86,20.39,-3.66,0,6
15975.734,-0.167,0.201,0.933,15.35,24.11,-4.33,0,6
15975.75,-0.185,0.201,0.923,14.83,26.06,-4.85,0,6
15975.765,-0.208,0.188,0.909,14.47,26.37,-5.98,0,6
15975.765,-0.223,0.193,0.886,15.2,26.12,-7.45,0,6
15975.781,-0.227,0.189,0.862,16.51,25.76,-7.32,0,6
15975.796,-0.205,0.191,0.833,16.75,24.45,-5.65,0,6
15975.796,-0.183,0.206,0.807,16.05,25.76,-4.82,0,6
15975.812,-0.189,0.203,0.804,12.48,31.31,-4.46,0,6
15975.828,-0.217,0.197,0.812,7.45,37.84,-4.36,0,6
15975.828,-0.253,0.186,0.821,4.36,43.06,-3.51,0,6
15975.843,-0.284,0.177,0.831,2.59,46.08,-1.86,0,6
15975.859,-0.299,0.157,0.822,2.44,46.02,-1.83,0,6
15975.859,-0.304,0.145,0.811,3.48,45.14,-2.62,0,6
15975.875,-0.314,0.141,0.811,5.1,46.08,-3.69,0,6
15975.875,-0.324,0.136,0.801,7.87,46.88,-5.46,0,6
15975.89,-0.324,0.129,0.787,11.38,46.54,-7.17,0,6
15975.906,-0.317,0.125,0.767,15.38,46.17,-8.79,0,6
15975.906,-0.311,0.13,0.749,18.74,46.88,-9.8,0,6
15975.921,-0.306,0.141,0.729,19.5,48.98,-10.22,0,6
15975.937,-0.305,0.148,0.732,16.14,54.51,-10.28,0,6
15975.937,-0.32,0.145,0.757,10.35,62.01,-10.65,0,6
15975.953,-0.335,0.138,0.789,5.1,68.42,-11.38,0,6
15975.968,-0.367,0.148,0.837,0.06,74.56,-10.71,0,6
15975.968,-0.396,0.14,0.874,-5.43,76.78,-10.25,0,6
15975.984,-0.412,0.12,0.9,-9.28,74.74,-10.77,0,6
15975.984,-0.42,0.108,0.921,-10.47,70.44,-12.57,0,6
15976.0,-0.427,0.098,0.921,-8.33,65.46,-15.93,0,6
15976.015,-0.423,0.103,0.924,-4.3,62.62,-19.26,0,6
15976.031,-0.422,0.118,0.912,0.73,63.26,-22.77,0,6
15976.031,-0.421,0.135,0.908,6.53,65.25,-25.54,0,6
15976.046,-0.433,0.16,0.92,12.15,68.64,-26.25,0,6
15976.046,-0.456,0.177,0.936,16.11,70.59,-26.12,0,6
15976.062,-0.474,0.192,0.955,18.46,69.64,-25.45,0,6
15976.078,-0.503,0.226,0.975,20.08,66.29,-24.41,0,6
15976.078,-0.565,0.298,0.975,18.37,61.13,-22.13,0,6
15976.093,-0.624,0.373,0.958,5.77,52.55,-16.42,0,6
15976.109,-0.623,0.4,0.931,-17.79,40.62,-8.94,0,6
15976.109,-0.581,0.39,0.914,-44.16,30.73,-1.92,0,6
15976.125,-0.506,0.335,0.886,-65.65,25.03,5.4,0,6
15976.14,-0.448,0.294,0.887,-82.16,26.95,12.36,0,6
15976.14,-0.46,0.239,0.923,-91.89,37.6,17.46,0,6
15976.156,-0.488,0.172,0.968,-92.41,47.21,19.9,0,6
15976.156,-0.526,0.113,1.016,-80.66,52.55,20.63,0,6
15976.171,-0.572,0.058,1.039,-58.17,53.1,18.8,0,6
15976.187,-0.605,0.01,1.026,-29.51,48.65,14.37,0,6
15976.187,-0.6,-0.002,0.975,0.0,40.19,6.81,0,6
15976.203,-0.574,0.026,0.915,26.46,32.29,-3.2,0,6
15976.218,-0.545,0.075,0.846,45.08,29.94,-12.02,0,6
15976.218,-0.54,0.147,0.793,50.36,34.64,-16.85,0,6
15976.234,-0.536,0.229,0.751,44.62,42.42,-19.68,0,6
15976.234,-0.548,0.232,0.731,30.55,50.69,-18.62,0,6
15976.25,-0.553,0.23,0.748,12.21,59.21,-14.8,0,6
15976.265,-0.556,0.207,0.75,-2.2,65.71,-11.11,0,6
15976.265,-0.571,0.174,0.759,-13.64,70.22,-7.84,0,6
15976.281,-0.606,0.151,0.795,-22.49,74.25,-5.92,0,6
15976.296,-0.634,0.121,0.835,-27.74,75.87,-5.13,0,6
15976.296,-0.657,0.092,0.871,-28.96,75.17,-5.34,0,6
15976.312,-0.68,0.071,0.889,-24.93,72.21,-7.08,0,6
15976.328,-0.693,0.046,0.891,-16.54,67.51,-9.77,0,6
15976.328,-0.703,0.03,0.884,-4.43,62.17,-13.67,0,6
15976.343,-0.704,0.015,0.864,11.93,57.31,-19.17,0,6
15976.359,-0.702,0.016,0.826,31.34,54.23,-25.12,0,6
15976.359,-0.7,0.052,0.777,48.49,53.44,-30.12,0,6
15976.375,-0.684,0.113,0.73,58.17,54.45,-33.72,0,6
15976.39,-0.686,0.175,0.704,57.99,58.66,-35.19,0,6
15976.39,-0.704,0.222,0.703,47.0,64.76,-33.45,0,6
15976.406,-0.728,0.256,0.712,28.96,69.64,-31.04,0,6
15976.406,-0.752,0.215,0.754,11.9,70.1,-27.8,0,6
15976.421,-0.761,0.174,0.797,3.69,68.61,-23.5,0,6
15976.437,-0.758,0.126,0.807,6.62,64.21,-20.97,0,6
15976.453,-0.737,0.104,0.801,17.73,58.23,-21.09,0,6
15976.453,-0.722,0.121,0.778,32.2,54.05,-23.22,0,6
15976.468,-0.72,0.153,0.738,43.95,52.98,-24.78,0,6
15976.468,-0.742,0.209,0.712,45.29,54.96,-23.32,0,6
15976.484,-0.769,0.24,0.696,35.8,56.37,-20.05,0,6
15976.5,-0.781,0.227,0.699,20.84,56.18,-16.05,0,6
15976.5,-0.79,0.2,0.71,0.7,56.25,-10.04,0,6
15976.515,-0.806,0.15,0.716,1.25,54.81,-8.82,0,6
15976.515,-0.819,0.097,0.723,9.74,52.55,-8.88,0,6
15976.531,-0.831,0.055,0.723,22.58,49.75,-10.56,0,6
15976.546,-0.837,0.044,0.656,32.81,46.17,-13.67,0,6
15976.546,-0.832,0.068,0.593,36.9,42.94,-17.4,0,6
15976.562,-0.831,0.105,0.54,32.56,41.54,-19.87,0,6
15976.578,-0.83,0.136,0.51,21.21,42.82,-20.57,0,6
15976.578,-0.849,0.157,0.487,6.78,47.33,-20.08,0,6
15976.593,-0.869,0.145,0.484,-10.65,51.55,-17.76,0,6
15976.609,-0.876,0.117,0.507,-26.25,55.02,-14.77,0,6
15976.609,-0.884,0.08,0.536,-34.94,58.08,-12.73,0,6
15976.625,-0.888,0.049,0.56,-36.38,59.76,-12.33,0,6
15976.625,-0.885,0.023,0.58,-31.53,59.88,-13.25,0,6
15976.64,-0.888,0.013,0.583,-22.49,59.36,-15.11,0,6
15976.656,-0.885,0.019,0.577,-12.27,58.26,-18.43,0,6
15976.656,-0.894,0.042,0.556,-3.94,57.44,-21.88,0,6
15976.671,-0.902,0.065,0.532,0.0,56.86,-23.96,0,6
15976.687,-0.911,0.087,0.516,-1.31,57.16,-24.2,0,6
15976.687,-0.914,0.125,0.511,-5.74,58.5,-24.41,0,6
15976.703,-0.933,0.114,0.516,-11.29,59.97,-24.9,0,6
15976.718,-0.947,0.09,0.543,-16.05,60.49,-24.11,0,6
15976.718,-0.947,0.072,0.568,-15.05,59.6,-23.56,0,6
15976.734,-0.958,0.049,0.569,-7.35,57.71,-24.08,0,6
15976.75,-0.946,0.076,0.547,1.28,55.33,-25.18,0,6
15976.75,-0.93,0.135,0.513,4.64,52.83,-26.37,0,6
15976.765,-0.922,0.176,0.477,-0.27,51.61,-26.43,0,6
15976.765,-0.925,0.203,0.457,-13.25,52.64,-23.99,0,6
15976.781,-0.932,0.217,0.458,-30.58,54.93,-20.17,0,6
15976.796,-0.943,0.172,0.493,-45.72,56.22,-16.24,0,6
15976.796,-0.946,0.075,0.541,-49.44,55.91,-13.25,0,6
15976.812,-0.938,0.017,0.577,-38.36,54.02,-12.73,0,6
15976.828,-0.921,0.002,0.579,-17.58,51.3,-14.74,0,6
15976.828,-0.915,0.031,0.571,1.8,48.92,-18.43,0,6
15976.843,-0.921,0.059,0.553,14.8,45.81,-22.25,0,6
15976.843,-0.93,0.094,0.53,20.2,42.02,-24.17,0,6
15976.859,-0.924,0.125,0.499,19.01,37.69,-24.11,0,6
15976.875,-0.916,0.144,0.474,12.15,35.07,-22.8,0,6
15976.875,-0.92,0.132,0.475,3.39,34.39,-21.0,0,6
15976.89,-0.931,0.095,0.484,-1.86,34.73,-18.62,0,6
15976.906,-0.939,0.057,0.508,-2.5,35.1,-16.02,0,6
15976.906,-0.944,0.013,0.533,4.76,33.94,-14.59,0,6
15976.921,-0.944,-0.019,0.53,19.1,31.22,-14.98,0,6
15976.937,-0.945,-0.016,0.487,34.06,28.47,-16.82,0,6
15976.953,-0.944,0.022,0.445,41.44,26.37,-19.26,0,6
15976.953,-0.947,0.045,0.412,41.26,24.51,-21.39,0,6
15976.968,-0.96,0.073,0.378,35.98,23.22,-22.0,0,6
15976.968,-0.964,0.104,0.352,26.22,22.58,-20.48,0,6
15976.984,-0.967,0.114,0.339,14.01,21.88,-17.88,0,6
15977.0,-0.98,0.096,0.337,2.99,20.97,-14.16,0,6
15977.0,-0.982,0.06,0.34,-3.81,19.62,-9.77,0,6
15977.015,-0.973,0.018,0.34,-4.55,18.13,-6.47,0,6
15977.015,-0.952,-0.001,0.325,-0.85,16.3,-5.16,0,6
15977.031,-0.933,-0.012,0.305,4.76,14.95,-5.74,0,6
15977.046,-0.921,-0.006,0.28,8.79,15.41,-7.05,0,6
15977.046,-0.921,0.01,0.269,9.0,16.85,-7.39,0,6
15977.062,-0.931,0.0,0.265,6.81,18.1,-7.08,0,6
15977.078,-0.937,-0.007,0.268,4.27,19.01,-6.87,0,6
15977.078,-0.944,-0.01,0.266,2.78,19.23,-7.23,0,6
15977.093,-0.947,-0.018,0.267,2.81,19.14,-8.33,0,6
15977.109,-0.944,-0.016,0.266,4.0,19.38,-9.13,0,6
15977.109,-0.939,-0.012,0.263,5.98,19.87,-9.89,0,6
15977.125,-0.939,0.0,0.265,7.6,20.6,-10.41,0,6
15977.125,-0.944,0.0,0.268,8.7,21.21,-10.5,0,6
15977.14,-0.952,-0.007,0.269,9.77,21.67,-10.25,0,6
15977.156,-0.95,0.005,0.269,10.68,21.73,-10.28,0,6
15977.156,-0.949,0.017,0.262,11.29,21.36,-9.95,0,6
15977.171,-0.94,0.016,0.261,10.96,20.94,-9.43,0,6
15977.187,-0.933,0.015,0.266,10.32,21.15,-9.31,0,6
15977.203,-0.939,0.014,0.274,10.35,22.28,-9.22,0,6
15977.203,-0.956,0.009,0.279,10.1,22.77,-9.0,0,6
15977.218,-0.972,0.005,0.274,8.97,21.58,-9.16,0,6
15977.218,-0.978,0.008,0.263,7.39,19.53,-9.46,0,6
15977.234,-0.973,0.014,0.251,5.22,17.3,-9.25,0,6
15977.234,-0.965,0.016,0.23,3.33,16.17,-8.67,0,6
15977.25,-0.958,0.02,0.222,1.22,16.75,-7.78,0,6
15977.265,-0.953,0.015,0.22,-0.7,18.01,-6.56,0,6
15977.281,-0.947,0.005,0.221,-2.32,19.41,-4.91,0,6
15977.281,-0.943,-0.012,0.236,-2.59,21.0,-3.6,0,6
15977.296,-0.952,-0.035,0.245,-0.58,22.61,-3.14,0,6
15977.296,-0.958,-0.031,0.239,1.28,22.74,-2.96,0,6
15977.312,-0.965,-0.02,0.224,0.46,21.12,-3.6,0,6
15977.328,-0.967,-0.021,0.216,-3.14,18.59,-4.94,0,6
15977.328,-0.967,-0.028,0.212,-6.78,16.82,-5.95,0,6
15977.343,-0.963,-0.031,0.211,-8.55,15.66,-6.16,0,6
15977.343,-0.956,-0.036,0.208,-8.12,15.66,-5.98,0,6
15977.359,-0.953,-0.037,0.21,-5.8,16.72,-5.68,0,6
15977.375,-0.956,-0.036,0.217,-1.92,18.49,-5.49,0,6
15977.375,-0.965,-0.027,0.22,1.83,20.08,-5.62,0,6
15977.39,-0.977,-0.01,0.218,3.3,20.23,-5.71,0,6
15977.406,-0.989,-0.013,0.211,3.3,18.28,-5.25,0,6
15977.406,-0.983,-0.025,0.211,2.66,15.44,-3.78,0,6
15977.421,-0.967,-0.035,0.211,2.96,13.76,-2.78,0,6
15977.437,-0.959,-0.044,0.206,4.52,13.28,-2.84,0,6
15977.437,-0.961,-0.043,0.196,6.53,13.43,-2.9,0,6
15977.453,-0.972,-0.034,0.184,8.39,13.82,-3.2,0,6
15977.468,-0.957,-0.011,0.196,6.71,12.94,-3.27,0,6
15977.468,-0.963,-0.022,0.2,5.83,13.34,-2.23,0,6
15977.484,-0.972,-0.024,0.187,1.59,12.05,-0.21,0,6
15977.5,-0.967,-0.016,0.182,-1.59,10.83,-0.55,0,6
15977.5,-0.978,-0.028,0.179,-3.78,9.13,-0.67,0,6
15977.515,-0.98,-0.043,0.173,-5.34,7.42,-0.92,0,6
15977.515,-0.966,-0.055,0.166,-6.04,7.02,-1.95,0,6
15977.531,-0.968,-0.054,0.165,-5.4,7.84,-3.14,0,6
15977.546,-0.968,-0.042,0.172,-4.15,8.85,-3.81,0,6
15977.546,-0.982,-0.053,0.179,-1.53,9.13,-4.15,0,6
15977.562,-0.978,-0.056,0.175,0.49,8.09,-3.48,0,6
15977.578,-0.969,-0.049,0.172,0.61,6.53,-3.05,0,6
15977.578,-0.968,-0.069,0.161,-0.18,5.04,-3.11,0,6
15977.593,-0.962,-0.078,0.165,-1.53,4.03,-3.02,0,6
15977.609,-0.964,-0.078,0.166,-1.65,4.18,-2.59,0,6
15977.609,-0.978,-0.087,0.168,-1.56,4.33,-2.04,0,6
15977.625,-0.989,-0.11,0.153,-0.49,3.33,-1.4,0,6
15977.625,-0.976,-0.104,0.141,0.27,2.5,-1.13,0,6
15977.64,-0.981,-0.083,0.122,0.37,2.44,-1.89,0,6
15977.656,-0.991,-0.069,0.104,-2.11,2.5,-2.01,0,6
15977.656,-0.971,-0.056,0.113,-7.2,3.11,-0.76,0,6
15977.671,-0.965,-0.061,0.136,-11.63,4.52,-0.27,0,6
15977.687,-0.97,-0.077,0.159,-13.46,5.55,-0.79,0,6
15977.687,-0.98,-0.089,0.182,-11.51,5.13,-1.98,0,6
15977.703,-0.989,-0.087,0.178,-5.31,2.87,-3.66,0,6
15977.718,-0.989,-0.065,0.166,0.98,-0.09,-5.01,0,6
15977.718,-0.99,-0.062,0.146,6.16,-2.84,-4.97,0,6
15977.734,-0.973,-0.062,0.118,8.51,-5.07,-4.64,0,6
15977.734,-0.949,-0.057,0.108,8.7,-5.1,-5.52,0,6
15977.75,-0.948,-0.044,0.104,8.03,-2.14,-7.17,0,6
15977.765,-0.962,-0.023,0.1,6.93,1.5,-7.87,0,6
15977.765,-0.967,-0.003,0.108,5.13,3.36,-7.81,0,6
15977.781,-0.972,-0.001,0.113,2.84,4.3,-6.78,0,6
15977.796,-0.972,0.003,0.118,0.46,4.46,-4.85,0,6
15977.812,-0.97,0.0,0.128,-1.43,4.06,-3.08,0,6
15977.812,-0.977,-0.021,0.136,-2.04,3.36,-1.62,0,6
15977.828,-0.975,-0.04,0.142,-1.34,1.77,-0.03,0,6
15977.828,-0.965,-0.047,0.141,0.0,-0.09,-0.18,0,6
15977.843,-0.967,-0.059,0.134,2.01,-1.1,-1.8,0,6
15977.859,-0.967,-0.052,0.125,3.69,-1.8,-3.33,0,6
15977.859,-0.969,-0.039,0.112,5.46,-2.14,-4.46,0,6
15977.875,-0.966,-0.029,0.103,6.38,-1.98,-4.73,0,6
15977.875,-0.962,-0.013,0.108,6.07,-0.95,-3.97,0,6
15977.89,-0.976,-0.019,0.112,5.34,0.73,-2.53,0,6
15977.906,-0.974,-0.024,0.12,4.12,1.31,-0.64,0,6
15977.906,-0.989,-0.032,0.126,3.54,1.59,0.79,0,6
15977.921,-0.99,-0.045,0.117,2.26,0.24,2.17,0,6
15977.937,-0.976,-0.056,0.117,0.95,-1.74,2.56,0,6
15977.937,-0.978,-0.072,0.106,1.13,-2.59,1.86,0,6
15977.953,-0.981,-0.076,0.093,1.8,-3.08,1.1,0,6
15977.968,-0.97,-0.074,0.086,2.17,-3.14,0.52,0,6
15977.968,-0.969,-0.073,0.076,2.56,-1.92,0.34,0,6
15977.984,-0.966,-0.069,0.074,2.08,-0.34,0.73,0,6
15977.984,-0.965,-0.067,0.085,1.28,1.62,0.76,0,6
15978.0,-0.99,-0.071,0.093,1.16,3.66,0.82,0,6
15978.015,-0.998,-0.074,0.096,0.27,3.33,1.46,0,6
15978.015,-0.996,-0.073,0.091,-0.21,2.01,1.68,0,6
15978.031,-0.983,-0.063,0.086,-0.52,0.89,2.23,0,6
15978.046,-0.974,-0.05,0.081,-1.71,0.58,2.66,0,6
15978.046,-0.979,-0.056,0.087,-3.48,1.07,2.78,0,6
15978.062,-0.985,-0.06,0.103,-5.04,1.16,2.81,0,6
15978.078,-0.992,-0.064,0.125,-4.94,0.21,2.87,0,6
15978.078,-0.999,-0.076,0.142,-2.81,-1.95,3.17,0,6
15978.093,-0.992,-0.081,0.145,0.61,-4.18,3.57,0,6
15978.109,-0.981,-0.082,0.143,4.79,-6.38,3.45,0,6
15978.109,-0.969,-0.085,0.136,8.55,-7.84,2.78,0,6
15978.125,-0.951,-0.072,0.131,9.74,-8.09,2.14,0,6
15978.125,-0.946,-0.063,0.13,9.83,-6.29,1.43,0,6
15978.14,-0.951,-0.057,0.13,9.34,-3.54,1.31,0,6
15978.156,-0.963,-0.053,0.132,8.36,-1.25,1.77,0,6
15978.156,-0.972,-0.062,0.14,6.71,-0.46,1.74,0,6
15978.171,-0.976,-0.075,0.143,4.82,-1.01,1.59,0,6
15978.187,-0.973,-0.071,0.142,2.72,-1.77,1.31,0,6
15978.187,-0.97,-0.065,0.142,0.21,-2.17,0.73,0,6
15978.203,-0.968,-0.066,0.147,-1.77,-2.35,0.18,0,6
15978.218,-0.975,-0.072,0.15,-1.53,-2.53,-0.27,0,6
15978.218,-0.973,-0.07,0.142,0.21,-2.81,-0.34,0,6
15978.234,-0.971,-0.06,0.143,1.53,-2.87,-0.15,0,6
15978.234,-0.982,-0.069,0.138,2.23,-2.96,0.27,0,6
15978.25,-0.976,-0.078,0.128,2.5,-3.23,1.04,0,6
15978.265,-0.966,-0.072,0.119,2.47,-3.27,0.82,0,6
15978.265,-0.968,-0.069,0.116,2.17,-2.9,0.09,0,6
15978.281,-0.971,-0.063,0.118,1.28,-2.62,-0.31,0,6
15978.296,-0.973,-0.062,0.117,-0.09,-2.66,-0.18,0,6
15978.296,-0.969,-0.068,0.122,-2.01,-2.72,-0.03,0,6
15978.312,-0.971,-0.069,0.127,-3.27,-2.29,-0.52,0,6
15978.328,-0.98,-0.069,0.124,-3.39,-1.95,-0.95,0,6
15978.328,-0.983,-0.065,0.122,-2.69,-2.08,-0.82,0,6
15978.343,-0.978,-0.059,0.119,-2.04,-2.11,-0.15,0,6
15978.343,-0.975,-0.053,0.117,-2.2,-1.62,0.15,0,6
15978.359,-0.973,-0.054,0.118,-3.2,-1.43,-0.06,0,6
15978.375,-0.981,-0.062,0.126,-3.63,-1.22,-0.43,0,6
15978.375,-0.982,-0.069,0.127,-2.87,-1.22,-0.4,0,6
15978.39,-0.979,-0.065,0.123,-1.65,-1.77,-0.37,0,6
15978.406,-0.976,-0.062,0.124,-0.82,-1.71,-0.64,0,6
15978.406,-0.984,-0.071,0.12,-0.61,-1.77,-0.76,0,6
15978.421,-0.973,-0.074,0.118,-0.37,-2.75,-0.73,0,6
15978.437,-0.967,-0.065,0.116,-0.52,-2.99,-1.28,0,6
15978.453,-0.973,-0.069,0.112,-0.7,-2.56,-1.8,0,6
15978.453,-0.974,-0.069,0.116,-0.95,-2.53,-1.92,0,6
15978.468,-0.979,-0.067,0.119,-0.34,-2.47,-1.92,0,6
15978.468,-0.979,-0.068,0.114,1.74,-2.66,-1.65,0,6
15978.484,-0.982,-0.066,0.112,2.59,-2.93,-1.74,0,6
15978.484,-0.982,-0.065,0.113,3.75,-2.87,-1.43,0,6
15978.5,-0.981,-0.055,0.109,4.94,-2.44,-0.73,0,6
15978.515,-0.982,-0.062,0.105,5.71,-2.5,-0.4,0,6
15978.515,-0.982,-0.077,0.105,6.1,-2.5,-0.21,0,6
15978.531,-0.976,-0.078,0.097,5.83,-2.04,-0.58,0,6
15978.546,-0.967,-0.074,0.09,4.12,-1.28,-1.74,0,6
15978.546,-0.963,-0.068,0.096,1.89,-0.12,-3.2,0,6
15978.562,-0.966,-0.059,0.108,1.07,1.5,-4.09,0,6
15978.578,-0.975,-0.053,0.114,2.04,2.75,-4.24,0,6
15978.578,-0.983,-0.048,0.121,3.63,2.99,-4.15,0,6
15978.593,-0.989,-0.047,0.125,4.67,2.2,-3.66,0,6
15978.609,-0.991,-0.05,0.126,5.07,0.7,-2.75,0,6
15978.609,-0.992,-0.05,0.118,4.88,-0.92,-1.59,0,6
15978.625,-0.985,-0.049,0.112,3.81,-2.11,-0.46,0,6
15978.625,-0.981,-0.051,0.111,1.95,-2.44,0.21,0,6
