timestamp,ax,ay,az,gx,gy,gz,orient_label,motion_label
18483.609,0.027,-0.914,0.441,0.31,-2.35,1.83,3,4
18483.609,0.04,-0.917,0.428,-1.07,-2.47,2.17,3,4
18483.625,0.053,-0.918,0.434,-1.53,-2.35,1.46,3,4
18483.64,0.049,-0.914,0.439,-0.7,-1.62,0.55,3,4
18483.64,0.036,-0.913,0.436,-0.09,-1.1,0.49,3,4
18483.656,0.035,-0.913,0.432,-0.34,-1.22,0.73,3,4
18483.656,0.031,-0.913,0.427,-0.7,-0.61,0.73,3,4
18483.671,0.037,-0.913,0.43,-1.31,0.06,0.21,3,4
18483.687,0.048,-0.915,0.434,-1.01,0.55,-0.92,3,4
18483.687,0.042,-0.913,0.441,0.58,1.16,-2.78,3,4
18483.703,0.033,-0.913,0.442,2.2,1.16,-4.64,3,4
18483.718,0.034,-0.911,0.442,3.72,0.37,-6.78,3,4
18483.718,0.038,-0.902,0.43,5.55,0.03,-8.12,3,4
18483.734,0.039,-0.882,0.415,5.92,0.92,-7.84,3,4
18483.75,0.04,-0.859,0.402,3.54,2.41,-5.77,3,4
18483.75,0.031,-0.849,0.397,-1.65,4.3,-2.14,3,4
18483.765,0.034,-0.859,0.409,-7.26,5.34,1.59,3,4
18483.781,0.019,-0.894,0.445,-7.66,7.2,6.68,3,4
18483.796,0.023,-0.895,0.464,-5.01,6.07,8.33,3,4
18483.796,0.031,-0.902,0.467,-2.96,4.24,9.19,3,4
18483.812,0.043,-0.913,0.466,-2.2,2.08,9.34,3,4
18483.828,0.046,-0.929,0.466,-1.89,0.06,7.69,3,4
18483.828,0.032,-0.949,0.458,-0.49,-1.1,4.85,3,4
18483.843,0.039,-0.953,0.448,1.5,-2.66,1.56,3,4
18483.859,0.05,-0.946,0.441,4.12,-3.51,-2.5,3,4
18483.859,0.059,-0.939,0.431,6.07,-3.57,-6.44,3,4
18483.875,0.076,-0.927,0.446,7.84,-3.69,-10.1,3,4
18483.89,0.081,-0.901,0.471,11.38,-3.42,-13.4,3,4
18483.89,0.062,-0.868,0.489,15.2,-4.06,-16.02,3,4
18483.906,0.059,-0.838,0.499,17.4,-7.02,-17.55,3,4
18483.921,0.065,-0.817,0.506,19.5,-10.96,-17.52,3,4
18483.921,0.076,-0.79,0.505,22.03,-14.98,-16.75,3,4
18483.937,0.093,-0.771,0.501,24.96,-18.98,-15.9,3,4
18483.953,0.13,-0.722,0.506,33.51,-25.7,-13.92,3,4
18483.968,0.155,-0.692,0.528,37.97,-28.5,-13.06,3,4
18483.968,0.169,-0.677,0.558,44.1,-32.01,-13.31,3,4
18483.984,0.177,-0.647,0.571,51.48,-36.74,-14.28,3,4
18484.0,0.192,-0.582,0.571,58.57,-42.6,-16.27,3,4
18484.0,0.24,-0.552,0.593,66.62,-50.26,-17.49,3,4
18484.015,0.293,-0.52,0.631,76.45,-56.15,-16.85,3,4
18484.031,0.305,-0.474,0.677,87.13,-59.14,-15.9,3,4
18484.031,0.288,-0.446,0.73,97.42,-62.5,-15.29,3,4
18484.046,0.271,-0.429,0.783,108.04,-68.51,-15.59,3,4
18484.046,0.238,-0.401,0.79,119.82,-76.33,-17.7,3,4
18484.062,0.183,-0.325,0.763,132.69,-86.67,-24.17,3,4
18484.078,0.2,-0.305,0.736,148.41,-100.96,-30.52,3,4
18484.078,0.245,-0.268,0.723,164.28,-109.78,-33.97,3,4
18484.093,0.261,-0.196,0.717,179.33,-110.29,-33.63,3,4
18484.109,0.251,-0.109,0.726,189.43,-105.69,-27.34,3,4
18484.109,0.224,-0.045,0.737,192.51,-98.94,-14.56,3,4
18484.125,0.198,-0.013,0.765,187.93,-92.53,3.11,3,4
18484.14,0.155,0.004,0.793,180.27,-86.95,22.89,3,4
18484.14,0.101,0.003,0.77,167.21,-83.16,56.61,3,4
18484.156,0.093,0.008,0.74,162.69,-83.07,69.89,3,4
18484.171,0.138,-0.001,0.708,160.59,-78.49,79.41,3,4
18484.171,0.19,-0.001,0.684,162.54,-69.25,87.44,3,4
18484.187,0.275,-0.017,0.697,166.36,-54.02,95.03,3,4
18484.187,0.251,-0.012,0.723,170.11,-37.35,102.45,3,4
18484.203,0.198,-0.012,0.754,171.36,-23.29,110.32,3,4
18484.218,0.132,-0.004,0.793,169.65,-12.94,118.02,3,4
18484.218,0.074,-0.015,0.845,165.32,-7.84,125.52,3,4
18484.234,0.041,-0.036,0.901,160.62,-9.19,132.36,3,4
18484.25,0.023,-0.052,0.939,158.33,-13.7,138.83,3,4
18484.25,0.017,-0.075,0.932,158.91,-18.56,144.17,3,4
18484.265,0.036,-0.087,0.915,159.0,-23.04,146.98,3,4
18484.281,0.088,-0.124,0.885,162.6,-24.05,142.52,3,4
18484.296,0.1,-0.142,0.87,167.73,-20.63,137.15,3,4
18484.296,0.102,-0.156,0.861,174.02,-15.29,131.11,3,4
18484.312,0.086,-0.165,0.859,180.36,-8.3,124.3,3,4
18484.328,0.063,-0.176,0.866,186.62,-0.31,116.09,3,4
18484.328,0.037,-0.183,0.869,192.97,6.53,106.23,3,4
18484.343,0.012,-0.185,0.865,200.26,11.96,95.31,3,4
18484.359,-0.003,-0.181,0.876,207.31,15.78,84.32,3,4
18484.375,-0.011,-0.189,0.896,215.86,17.88,73.89,3,4
18484.375,-0.015,-0.182,0.905,227.0,19.32,65.58,3,4
18484.39,-0.019,-0.143,0.907,237.16,21.12,60.46,3,4
18484.39,-0.021,-0.105,0.899,243.23,23.35,57.99,3,4
18484.406,-0.018,-0.062,0.882,242.1,26.98,58.11,3,4
18484.406,0.0,-0.018,0.87,233.22,32.5,59.63,3,4
18484.421,0.008,0.017,0.866,217.96,39.4,62.93,3,4
18484.437,0.019,0.029,0.868,197.79,45.53,67.14,3,4
18484.453,0.049,0.068,0.919,149.54,54.51,77.06,3,4
18484.468,0.035,0.084,0.972,122.56,61.77,79.71,3,4
18484.468,0.044,0.087,1.047,98.42,70.1,78.07,3,4
18484.484,0.048,0.072,1.112,83.68,77.67,72.66,3,4
18484.5,0.009,0.064,1.182,79.99,82.49,64.67,3,4
18484.5,-0.031,0.064,1.285,85.18,80.66,57.07,3,4
18484.515,-0.064,0.068,1.373,96.19,70.74,50.45,3,4
18484.515,-0.111,0.095,1.434,109.65,57.31,42.85,3,4
18484.531,-0.142,0.164,1.49,120.73,44.77,34.36,3,4
18484.546,-0.153,0.245,1.509,127.32,33.94,24.48,3,4
18484.546,-0.141,0.319,1.492,127.6,23.9,13.61,3,4
18484.562,-0.111,0.381,1.479,124.0,15.38,4.76,3,4
18484.578,-0.089,0.417,1.456,121.31,9.28,-0.31,3,4
18484.593,-0.081,0.447,1.421,118.23,4.94,-1.53,3,4
18484.593,-0.093,0.48,1.379,112.46,2.32,-1.68,3,4
18484.609,-0.086,0.484,1.335,103.43,0.43,-1.56,3,4
18484.609,-0.079,0.478,1.308,92.59,-0.55,-0.24,3,4
18484.625,-0.094,0.464,1.297,84.78,-1.65,3.17,3,4
18484.64,-0.111,0.454,1.285,79.44,-4.82,9.06,3,4
18484.64,-0.128,0.455,1.282,73.76,-8.79,16.05,3,4
18484.656,-0.146,0.46,1.3,63.66,-9.25,22.74,3,4
18484.656,-0.183,0.465,1.324,45.5,-9.34,25.97,3,4
18484.671,-0.215,0.431,1.344,23.38,-14.74,25.15,3,4
18484.687,-0.229,0.356,1.362,6.35,-24.66,19.59,3,4
18484.687,-0.212,0.28,1.368,2.5,-37.11,8.42,3,4
18484.703,-0.176,0.237,1.358,15.38,-49.62,-9.09,3,4
18484.718,-0.141,0.245,1.319,42.85,-59.11,-30.98,3,4
18484.734,-0.121,0.301,1.243,76.48,-65.4,-53.5,3,4
18484.734,-0.109,0.405,1.146,106.2,-69.12,-72.39,3,4
18484.75,-0.096,0.545,1.05,124.18,-70.1,-82.67,3,4
18484.75,-0.074,0.667,0.95,126.07,-69.12,-82.25,3,4
18484.765,-0.056,0.761,0.871,110.14,-65.52,-72.08,3,4
18484.781,-0.04,0.817,0.828,80.72,-59.21,-56.12,3,4
18484.781,-0.016,0.812,0.823,45.87,-51.42,-37.66,3,4
18484.796,-0.007,0.751,0.84,12.57,-43.06,-19.62,3,4
18484.812,-0.011,0.681,0.889,-12.45,-35.19,-4.7,3,4
18484.812,-0.024,0.628,0.964,-25.09,-30.18,6.44,3,4
18484.828,-0.038,0.609,1.036,-26.03,-29.69,13.4,3,4
18484.828,-0.041,0.614,1.078,-20.36,-33.72,16.66,3,4
18484.843,-0.035,0.617,1.074,-13.58,-40.99,16.75,3,4
18484.859,-0.013,0.619,1.031,-8.45,-48.74,15.87,3,4
18484.859,0.024,0.622,0.961,-5.4,-53.99,14.62,3,4
18484.875,0.068,0.616,0.883,-4.09,-54.57,13.43,3,4
18484.89,0.096,0.612,0.817,-4.94,-49.93,12.88,3,4
18484.89,0.118,0.595,0.767,-6.71,-42.6,12.7,3,4
18484.906,0.145,0.584,0.744,-7.84,-33.45,13.0,3,4
18484.906,0.159,0.579,0.726,-7.57,-22.31,12.88,3,4
18484.921,0.161,0.567,0.719,-5.37,-10.74,11.84,3,4
18484.937,0.139,0.57,0.729,-1.43,0.24,10.56,3,4
18484.937,0.094,0.588,0.752,3.45,7.78,9.4,3,4
18484.953,0.044,0.599,0.779,8.24,10.1,9.49,3,4
18484.968,0.032,0.629,0.796,10.47,7.51,11.14,3,4
18484.968,0.043,0.661,0.793,8.15,3.36,13.25,3,4
18484.984,0.064,0.653,0.77,3.48,0.49,14.5,3,4
18485.0,0.093,0.635,0.75,-1.37,0.31,15.72,3,4
18485.0,0.111,0.625,0.74,-5.43,2.9,16.05,3,4
18485.015,0.129,0.602,0.734,-7.9,6.23,15.05,3,4
18485.031,0.142,0.58,0.735,-8.58,10.38,12.57,3,4
18485.031,0.149,0.574,0.746,-7.48,14.86,8.36,3,4
18485.046,0.148,0.574,0.76,-5.34,18.62,2.96,3,4
18485.062,0.135,0.578,0.774,-1.98,20.94,-2.75,3,4
18485.062,0.114,0.582,0.785,2.96,21.82,-7.02,3,4
18485.078,0.105,0.601,0.797,8.58,21.15,-8.73,3,4
18485.078,0.09,0.637,0.796,13.03,19.44,-8.7,3,4
18485.093,0.077,0.668,0.795,13.0,15.81,-6.93,3,4
18485.109,0.085,0.7,0.796,9.49,11.51,-3.36,3,4
18485.109,0.092,0.722,0.784,3.81,8.27,1.07,3,4
18485.125,0.101,0.714,0.767,-3.36,5.92,5.71,3,4
18485.14,0.115,0.697,0.757,-16.3,4.91,11.29,3,4
18485.14,0.128,0.672,0.754,-18.74,5.98,10.68,3,4
18485.156,0.142,0.636,0.755,-17.55,8.12,8.33,3,4
18485.171,0.152,0.609,0.767,-12.48,10.1,4.52,3,4
18485.171,0.158,0.579,0.78,-4.7,11.47,-0.03,3,4
18485.187,0.153,0.583,0.778,3.81,13.25,-5.1,3,4
18485.187,0.132,0.611,0.778,11.72,14.95,-9.7,3,4
18485.203,0.114,0.638,0.775,16.94,14.56,-12.33,3,4
18485.218,0.114,0.668,0.762,17.0,12.51,-13.0,3,4
18485.218,0.111,0.689,0.751,12.39,10.59,-12.63,3,4
18485.234,0.101,0.692,0.755,6.29,9.09,-11.35,3,4
18485.25,0.075,0.719,0.763,2.14,7.23,-7.11,3,4
18485.25,0.093,0.734,0.76,-1.53,4.58,-0.64,3,4
18485.265,0.106,0.711,0.754,-5.65,3.42,3.66,3,4
18485.281,0.112,0.694,0.761,-9.55,3.81,6.23,3,4
18485.281,0.116,0.683,0.779,-12.36,4.15,8.0,3,4
18485.296,0.112,0.674,0.779,-12.94,5.07,9.74,3,4
18485.296,0.12,0.66,0.773,-13.28,5.16,10.35,3,4
18485.312,0.121,0.632,0.786,-15.44,4.97,7.63,3,4
18485.328,0.126,0.609,0.79,-18.19,3.69,2.5,3,4
18485.328,0.195,0.542,0.748,-17.12,2.75,-4.06,3,4
18485.343,0.063,0.501,0.806,-12.76,8.21,-14.71,3,4
18485.359,0.022,0.668,0.893,-14.86,3.3,-18.4,3,4
18485.359,0.1,0.708,0.868,-9.43,-7.17,-13.46,3,4
18485.375,0.088,0.689,0.812,0.09,-5.86,-9.52,3,4
18485.39,0.091,0.718,0.805,0.85,-4.27,-3.91,3,4
18485.39,0.077,0.708,0.801,4.3,-1.86,1.19,3,4
18485.406,0.062,0.656,0.795,9.46,-1.28,5.68,3,4
18485.406,0.042,0.612,0.79,13.09,-2.99,8.7,3,4
18485.421,0.026,0.586,0.788,15.63,-7.11,10.5,3,4
18485.437,0.011,0.583,0.789,16.39,-14.22,11.47,3,4
18485.453,0.029,0.581,0.77,14.86,-22.98,13.73,3,4
18485.453,0.038,0.633,0.748,8.73,-30.7,16.75,3,4
18485.468,0.191,0.596,0.672,3.85,-34.76,21.82,3,4
18485.468,0.158,0.512,0.631,7.66,-24.63,19.96,3,4
18485.484,0.163,0.576,0.669,5.95,-17.3,20.42,3,4
18485.5,0.209,0.587,0.699,7.48,-12.18,22.68,3,4
18485.5,0.206,0.55,0.683,10.56,-4.61,21.09,3,4
18485.515,0.178,0.551,0.701,10.28,1.37,17.91,3,4
18485.531,0.157,0.573,0.752,9.74,3.75,15.66,3,4
18485.531,0.146,0.574,0.772,10.71,1.86,14.16,3,4
18485.546,0.157,0.586,0.763,10.19,-1.43,14.28,3,4
18485.546,0.179,0.598,0.754,8.39,-2.9,14.01,3,4
18485.562,0.193,0.604,0.749,6.23,-2.44,12.42,3,4
18485.578,0.198,0.603,0.751,3.75,-1.16,10.38,3,4
18485.578,0.204,0.601,0.76,2.01,0.43,8.06,3,4
18485.593,0.213,0.609,0.775,1.04,2.75,5.31,3,4
18485.609,0.216,0.622,0.787,0.4,5.19,2.11,3,4
18485.609,0.21,0.624,0.804,-0.76,6.74,-1.07,3,4
18485.625,0.193,0.637,0.835,-1.71,6.9,-3.6,3,4
18485.64,0.173,0.639,0.845,0.09,5.04,-3.94,3,4
18485.64,0.163,0.641,0.832,2.11,2.59,-3.27,3,4
18485.656,0.153,0.635,0.816,3.85,0.37,-3.42,3,4
18485.671,0.141,0.626,0.793,6.1,-1.53,-3.6,3,4
18485.671,0.142,0.626,0.77,6.96,-3.11,-3.2,3,4
18485.687,0.148,0.628,0.746,6.74,-3.23,-2.69,3,4
18485.687,0.143,0.625,0.723,6.07,-1.53,-2.32,3,4
18485.703,0.139,0.615,0.706,3.6,0.34,-2.26,3,4
18485.718,0.141,0.603,0.7,0.79,2.32,-2.81,3,4
18485.718,0.14,0.588,0.703,-0.31,4.88,-3.85,3,4
18485.734,0.139,0.572,0.713,-1.13,7.17,-5.68,3,4
18485.75,0.134,0.567,0.747,-3.85,8.67,-8.33,3,4
18485.75,0.128,0.583,0.776,-6.81,8.51,-10.53,3,4
18485.765,0.176,0.594,0.763,-7.02,6.87,-12.18,3,4
18485.781,0.19,0.526,0.764,-0.89,10.59,-16.14,3,4
18485.781,0.02,0.754,0.888,-5.89,13.09,-18.25,3,4
18485.796,0.091,0.841,0.926,-7.51,1.74,-6.23,3,4
18485.812,0.126,0.657,0.751,2.84,-2.87,6.71,3,4
18485.828,0.081,0.62,0.753,5.43,-1.95,8.55,3,4
18485.828,0.05,0.567,0.738,10.38,-4.36,10.47,3,4
18485.843,0.069,0.563,0.737,9.98,-10.83,12.21,3,4
18485.859,0.11,0.59,0.729,7.78,-16.21,12.97,3,4
18485.875,0.139,0.603,0.721,6.59,-17.15,13.43,3,4
18485.875,0.109,0.648,0.76,3.54,-17.27,14.4,3,4
18485.89,0.223,0.656,0.729,1.92,-18.89,18.71,3,4
18485.89,0.222,0.569,0.69,8.0,-12.85,16.79,3,4
18485.906,0.184,0.634,0.739,7.08,-6.26,14.47,3,4
18485.921,0.189,0.639,0.767,7.23,-6.01,13.76,3,4
18485.921,0.182,0.617,0.761,6.01,-7.35,11.9,3,4
18485.937,0.192,0.626,0.76,2.35,-8.55,9.92,3,4
18485.937,0.193,0.615,0.742,1.95,-8.24,7.48,3,4
18485.953,0.196,0.603,0.718,2.96,-6.93,5.22,3,4
18485.968,0.194,0.614,0.709,3.36,-4.18,4.27,3,4
18485.984,0.195,0.596,0.691,-0.82,2.59,-1.68,3,4
18486.0,0.168,0.617,0.737,-0.73,6.01,-3.42,3,4
18486.0,0.14,0.638,0.784,2.53,5.92,-2.44,3,4
18486.015,0.123,0.664,0.803,6.38,3.08,1.16,3,4
18486.031,0.114,0.68,0.809,7.23,-1.56,4.67,3,4
18486.031,0.127,0.673,0.792,5.49,-7.45,6.9,3,4
18486.046,0.152,0.659,0.755,3.57,-11.35,8.39,3,4
18486.062,0.168,0.656,0.724,0.12,-12.02,9.31,3,4
18486.062,0.187,0.634,0.7,-3.6,-10.62,9.77,3,4
18486.078,0.196,0.612,0.689,-6.35,-7.02,9.98,3,4
18486.078,0.206,0.603,0.688,-8.55,-2.78,10.01,3,4
18486.093,0.215,0.595,0.691,-10.28,1.25,8.91,3,4
18486.109,0.218,0.583,0.702,-11.23,4.97,6.78,3,4
18486.125,0.207,0.581,0.734,-7.14,8.21,0.85,3,4
18486.125,0.191,0.582,0.769,-3.2,6.56,-1.04,3,4
18486.14,0.182,0.591,0.788,-0.73,3.6,-2.17,3,4
18486.156,0.194,0.605,0.767,1.46,-1.46,-5.83,3,4
18486.156,0.191,0.602,0.741,3.08,-1.62,-7.97,3,4
18486.171,0.188,0.615,0.723,4.06,-0.64,-8.82,3,4
18486.187,0.188,0.631,0.717,3.42,1.25,-8.55,3,4
18486.187,0.188,0.642,0.716,1.37,3.54,-7.69,3,4
18486.203,0.175,0.642,0.721,-1.34,5.62,-6.56,3,4
18486.218,0.158,0.642,0.738,-4.49,6.84,-5.4,3,4
18486.218,0.154,0.64,0.752,-7.87,6.2,-3.85,3,4
18486.234,0.165,0.625,0.754,-9.89,4.97,-2.81,3,4
18486.25,0.173,0.609,0.753,-10.99,4.39,-2.78,3,4
18486.25,0.182,0.598,0.748,-11.54,4.73,-3.63,3,4
18486.265,0.182,0.583,0.744,-11.05,5.86,-5.43,3,4
18486.265,0.184,0.562,0.739,-11.26,7.39,-7.97,3,4
18486.281,0.183,0.552,0.742,-11.99,9.06,-11.54,3,4
18486.296,0.176,0.564,0.765,-12.97,10.9,-14.92,3,4
18486.312,0.167,0.588,0.77,-11.84,12.02,-17.27,3,4
18486.328,0.2,0.552,0.72,-3.42,17.03,-18.31,3,4
18486.328,-0.007,0.706,0.853,-6.41,19.26,-19.99,3,4
18486.343,0.02,0.851,0.939,-9.55,7.75,-8.36,3,4
18486.359,0.04,0.714,0.826,1.95,-3.72,1.65,3,4
18486.359,0.067,0.637,0.755,0.24,-8.27,7.72,3,4
18486.375,0.08,0.625,0.787,-1.5,-10.71,11.38,3,4
18486.39,0.064,0.604,0.792,0.09,-13.52,14.34,3,4
18486.39,0.053,0.611,0.817,-3.63,-19.44,16.66,3,4
18486.406,0.075,0.615,0.853,-8.3,-27.22,19.23,3,4
18486.421,0.126,0.655,0.836,-10.93,-34.46,21.55,3,4
18486.421,0.244,0.552,0.748,-6.44,-35.25,22.46,3,4
18486.437,0.18,0.541,0.714,-2.41,-27.34,19.07,3,4
18486.437,0.201,0.566,0.754,-4.85,-23.83,19.32,3,4
18486.453,0.24,0.549,0.741,-4.79,-22.58,17.49,3,4
18486.468,0.264,0.504,0.682,0.76,-17.33,14.62,3,4
18486.468,0.275,0.519,0.691,3.97,-9.13,9.61,3,4
18486.5,0.253,0.544,0.692,10.62,5.71,-0.64,3,4
18486.5,0.234,0.568,0.716,10.53,10.62,-3.97,3,4
18486.515,0.195,0.623,0.77,8.55,13.55,-6.32,3,4
18486.531,0.162,0.652,0.817,5.89,11.26,-6.93,3,4
18486.531,0.142,0.654,0.826,3.54,5.34,-6.23,3,4
18486.546,0.132,0.648,0.811,1.5,-0.85,-4.82,3,4
18486.546,0.145,0.641,0.799,-1.19,-6.59,-2.81,3,4
18486.562,0.17,0.63,0.772,-3.39,-10.07,-0.31,3,4
18486.578,0.19,0.61,0.734,-3.78,-10.01,2.35,3,4
18486.578,0.204,0.591,0.712,-3.78,-7.2,4.58,3,4
18486.593,0.206,0.593,0.722,-3.81,-3.45,5.68,3,4
18486.609,0.205,0.599,0.74,-3.78,-0.95,5.83,3,4
18486.609,0.208,0.598,0.745,-3.33,0.55,5.01,3,4
18486.625,0.205,0.595,0.746,-2.47,1.89,3.51,3,4
18486.64,0.193,0.597,0.754,-1.5,2.75,1.83,3,4
18486.64,0.189,0.609,0.769,-1.71,2.29,0.85,3,4
18486.656,0.176,0.621,0.793,-2.2,1.19,0.4,3,4
18486.656,0.155,0.616,0.803,-1.28,-0.55,0.98,3,4
18486.671,0.152,0.619,0.801,-1.59,-4.06,2.96,3,4
18486.687,0.17,0.616,0.785,-3.11,-7.57,4.73,3,4
18486.687,0.191,0.605,0.76,-3.78,-8.39,5.98,3,4
18486.703,0.195,0.592,0.738,-4.24,-6.99,6.81,3,4
18486.718,0.198,0.58,0.725,-5.1,-4.43,7.23,3,4
18486.718,0.204,0.572,0.715,-6.16,-1.25,6.53,3,4
18486.734,0.206,0.565,0.72,-7.02,2.29,4.7,3,4
18486.75,0.196,0.567,0.745,-7.57,5.74,2.32,3,4
18486.75,0.184,0.571,0.778,-7.29,7.17,0.67,3,4
18486.765,0.181,0.587,0.816,-6.16,6.53,-0.24,3,4
18486.781,0.173,0.596,0.841,-2.99,4.46,-0.46,3,4
18486.781,0.161,0.591,0.833,0.73,1.19,0.55,3,4
18486.796,0.165,0.594,0.811,2.56,-2.2,1.83,3,4
18486.812,0.175,0.589,0.782,2.72,-4.76,2.23,3,4
18486.812,0.186,0.582,0.754,1.71,-5.16,2.26,3,4
18486.828,0.191,0.582,0.742,0.52,-3.81,2.44,3,4
18486.828,0.196,0.589,0.754,-0.61,-2.01,3.08,3,4
18486.843,0.195,0.595,0.775,-0.82,-0.64,3.57,3,4
18486.859,0.183,0.596,0.799,0.95,-0.67,4.33,3,4
18486.859,0.173,0.611,0.819,3.57,-2.41,5.8,3,4
18486.875,0.165,0.62,0.825,6.87,-5.4,7.2,3,4
18486.89,0.17,0.615,0.811,8.88,-9.49,9.43,3,4
18486.89,0.181,0.605,0.784,9.31,-12.97,11.05,3,4
18486.906,0.197,0.594,0.749,8.82,-14.92,11.93,3,4
18486.906,0.224,0.592,0.724,6.59,-15.05,12.21,3,4
18486.921,0.242,0.587,0.704,4.55,-12.91,11.6,3,4
18486.937,0.255,0.582,0.692,3.27,-9.31,10.47,3,4
18486.937,0.261,0.584,0.689,1.53,-5.07,8.97,3,4
18486.953,0.268,0.583,0.697,-0.89,-0.92,6.96,3,4
18486.968,0.26,0.583,0.719,-3.11,2.93,4.18,3,4
18486.968,0.243,0.584,0.748,-4.52,5.37,1.59,3,4
18486.984,0.217,0.586,0.777,-5.19,5.8,-0.12,3,4
18487.0,0.194,0.587,0.809,-4.97,4.3,-0.79,3,4
18487.015,0.182,0.586,0.82,-1.56,-2.84,-0.18,3,4
18487.031,0.19,0.583,0.792,-0.12,-5.74,0.12,3,4
18487.031,0.198,0.576,0.761,0.85,-6.65,0.06,3,4
18487.046,0.212,0.575,0.731,1.46,-5.65,0.12,3,4
18487.046,0.225,0.579,0.713,1.07,-2.59,0.09,3,4
18487.062,0.229,0.586,0.711,-0.06,1.31,-0.49,3,4
18487.078,0.222,0.591,0.73,-1.13,4.76,-1.13,3,4
18487.093,0.213,0.6,0.755,-2.26,6.44,-1.28,3,4
18487.093,0.205,0.61,0.788,-2.87,6.29,-1.5,3,4
18487.109,0.193,0.6,0.797,-1.68,2.53,-0.18,3,4
18487.109,0.184,0.596,0.798,-2.14,-0.15,0.18,3,4
18487.125,0.186,0.591,0.794,-2.66,-2.44,0.21,3,4
18487.14,0.195,0.582,0.785,-1.98,-3.2,0.34,3,4
18487.14,0.204,0.581,0.766,-1.4,-2.96,0.61,3,4
18487.156,0.211,0.582,0.756,-1.01,-2.23,0.7,3,4
18487.156,0.219,0.585,0.75,-0.79,-1.22,0.4,3,4
18487.187,0.224,0.585,0.749,-2.38,1.1,-0.76,3,4
18487.187,0.223,0.586,0.759,-2.9,2.14,-1.37,3,4
18487.203,0.216,0.588,0.764,-2.53,2.56,-1.86,3,4
18487.218,0.211,0.592,0.779,-2.29,2.26,-1.92,3,4
18487.218,0.202,0.593,0.788,-1.59,1.53,-1.98,3,4
18487.234,0.196,0.591,0.789,-1.07,-0.15,-1.77,3,4
18487.25,0.195,0.589,0.784,-1.1,-1.77,-1.62,3,4
18487.25,0.199,0.589,0.773,-1.86,-3.02,-1.46,3,4
18487.265,0.21,0.585,0.758,-2.62,-3.23,-1.34,3,4
18487.281,0.212,0.578,0.743,-2.99,-2.11,-1.22,3,4
18487.281,0.221,0.579,0.743,-3.94,-0.49,-1.13,3,4
18487.296,0.224,0.58,0.747,-4.82,1.22,-1.62,3,4
18487.312,0.221,0.577,0.751,-6.13,2.32,-2.66,3,4
18487.312,0.225,0.578,0.758,-7.9,2.75,-4.09,3,4
18487.328,0.221,0.574,0.765,-8.27,3.3,-5.4,3,4
18487.328,0.222,0.569,0.765,-7.84,4.03,-6.47,3,4
18487.359,0.229,0.558,0.745,-6.84,6.9,-8.61,3,4
18487.359,0.229,0.55,0.734,-6.5,9.95,-10.19,3,4
18487.375,0.22,0.537,0.726,-6.29,13.55,-12.27,3,4
18487.39,0.218,0.537,0.735,-7.05,16.91,-14.53,3,4
18487.39,0.221,0.544,0.74,-8.94,20.02,-17.46,3,4
18487.406,0.222,0.553,0.728,-12.18,22.92,-21.12,3,4
18487.421,0.227,0.549,0.719,-16.36,26.25,-25.06,3,4
18487.421,0.229,0.544,0.738,-20.94,29.91,-29.27,3,4
18487.437,0.184,0.577,0.775,-22.71,33.97,-31.77,3,4
18487.437,0.123,0.621,0.838,-23.9,35.1,-30.95,3,4
18487.453,0.072,0.671,0.896,-26.18,30.55,-27.53,3,4
18487.468,0.123,0.617,0.833,-23.35,22.8,-22.43,3,4
18487.468,0.007,0.573,0.854,-22.06,20.48,-21.7,3,4
18487.484,-0.019,0.732,0.965,-28.11,13.06,-12.7,3,4
18487.5,0.073,0.603,0.877,-19.38,-0.79,-2.44,3,4
18487.515,0.067,0.524,0.816,-16.08,-2.93,0.64,3,4
18487.531,0.119,0.5,0.864,-9.28,-4.7,5.46,3,4
18487.531,0.107,0.518,0.891,-4.15,-5.49,5.19,3,4
18487.546,0.099,0.537,0.926,2.96,-8.88,5.55,3,4
18487.546,0.098,0.535,0.913,11.51,-13.73,6.41,3,4
18487.578,0.08,0.554,0.903,16.42,-18.65,7.35,3,4
18487.578,0.073,0.572,0.898,18.65,-24.78,9.61,3,4
18487.578,0.062,0.607,0.858,18.28,-31.28,13.09,3,4
18487.593,0.19,0.541,0.744,17.46,-35.25,18.07,3,4
18487.609,0.175,0.494,0.673,16.48,-29.3,14.95,3,4
18487.609,0.159,0.559,0.791,6.56,-23.47,14.62,3,4
18487.625,0.211,0.554,0.785,4.21,-25.27,14.86,3,4
18487.64,0.235,0.509,0.711,12.02,-20.42,14.95,3,4
18487.64,0.236,0.561,0.748,11.38,-12.3,13.7,3,4
18487.656,0.238,0.551,0.751,14.07,-6.59,12.21,3,4
18487.671,0.21,0.545,0.758,14.83,-1.98,10.35,3,4
18487.671,0.191,0.581,0.807,13.67,-0.34,8.79,3,4
18487.687,0.165,0.602,0.897,18.86,-5.98,9.74,3,4
18487.703,0.162,0.605,0.89,23.93,-9.95,13.64,3,4
18487.718,0.176,0.602,0.858,28.32,-12.85,19.04,3,4
18487.718,0.2,0.596,0.806,31.22,-14.1,23.26,3,4
18487.734,0.229,0.595,0.764,30.24,-13.0,25.51,3,4
18487.75,0.264,0.601,0.747,25.73,-9.46,25.48,3,4
18487.75,0.283,0.612,0.757,20.36,-3.81,23.56,3,4
18487.765,0.279,0.622,0.766,15.87,2.5,20.75,3,4
18487.781,0.277,0.636,0.792,12.18,7.45,18.56,3,4
18487.781,0.272,0.642,0.817,11.02,11.17,16.39,3,4
18487.796,0.269,0.647,0.829,11.75,13.31,15.44,3,4
18487.796,0.312,0.717,0.83,8.42,14.16,16.57,3,4
18487.812,0.411,0.875,0.946,-20.87,13.03,36.71,3,4
18487.828,0.291,0.852,1.058,-58.96,19.26,43.18,3,4
18487.843,0.336,0.624,1.141,-67.38,8.12,57.37,3,4
18487.843,0.407,0.646,1.212,-67.14,0.61,74.47,3,4
18487.859,0.525,0.589,1.207,-55.33,-13.64,85.12,3,4
18487.875,0.559,0.563,1.187,-52.8,-20.91,82.0,3,4
18487.89,0.604,0.56,1.154,-49.26,-29.73,76.27,3,4
18487.89,0.661,0.554,1.124,-44.28,-38.0,70.96,3,4
18487.906,0.719,0.602,1.087,-38.42,-43.58,70.07,3,4
18487.921,0.76,0.682,1.078,-35.46,-43.98,75.56,3,4
18487.921,0.782,0.726,1.068,-38.15,-41.14,87.8,3,4
18487.937,0.792,0.751,1.064,-48.22,-36.53,105.59,3,4
18487.937,0.782,0.738,1.065,-62.26,-32.14,124.36,3,4
18487.953,0.774,0.678,1.055,-75.75,-30.79,140.81,3,4
18487.968,0.778,0.621,1.051,-85.79,-31.28,153.81,3,4
18487.968,0.772,0.581,1.037,-89.91,-32.47,161.29,3,4
18487.984,0.778,0.54,1.014,-87.22,-34.61,162.76,3,4
18488.0,0.77,0.516,0.984,-78.49,-34.55,160.37,3,4
18488.0,0.733,0.541,0.937,-65.31,-33.17,155.8,3,4
18488.015,0.697,0.596,0.874,-50.36,-32.44,150.7,3,4
18488.031,0.671,0.684,0.793,-38.67,-31.28,147.77,3,4
18488.031,0.613,0.787,0.71,-34.94,-28.66,147.07,3,4
18488.046,0.597,0.823,0.666,-39.61,-24.41,152.84,3,4
18488.062,0.568,0.938,0.585,-46.51,-22.64,157.11,3,4
18488.062,0.553,0.935,0.574,-57.04,-19.87,166.05,3,4
18488.078,0.529,0.939,0.587,-64.52,-7.02,183.05,3,4
18488.078,0.438,0.915,0.602,-70.56,13.18,232.67,3,4
18488.093,0.404,0.807,0.624,-76.88,18.01,256.78,3,4
18488.109,0.362,0.75,0.62,-86.58,20.45,272.87,3,4
18488.109,0.358,0.6,0.639,-96.5,21.67,282.82,3,4
18488.125,0.289,0.243,0.684,-102.02,18.83,288.43,3,4
18488.14,0.283,0.049,0.694,-98.33,16.02,288.92,3,4
18488.14,0.276,-0.079,0.694,-90.33,12.33,281.59,3,4
18488.156,0.278,-0.17,0.692,-80.42,9.58,269.6,3,4
18488.171,0.275,-0.234,0.676,-70.35,8.51,254.74,3,4
18488.171,0.278,-0.265,0.669,-61.62,9.37,239.45,3,4
18488.187,0.261,-0.274,0.684,-55.85,12.91,225.93,3,4
18488.203,0.26,-0.253,0.705,-53.56,17.55,214.67,3,4
18488.203,0.214,-0.254,0.726,-53.77,20.02,204.11,3,4
18488.218,0.199,-0.285,0.755,-55.33,21.67,198.52,3,4
18488.218,0.198,-0.267,0.758,-54.87,17.88,191.23,3,4
18488.234,0.207,-0.275,0.748,-54.08,13.95,183.02,3,4
18488.25,0.197,-0.266,0.731,-55.45,9.83,173.41,3,4
18488.25,0.21,-0.268,0.723,-56.98,5.74,163.18,3,4
18488.265,0.213,-0.268,0.702,-55.3,4.27,153.42,3,4
18488.281,0.219,-0.274,0.686,-52.06,5.77,145.54,3,4
18488.281,0.213,-0.277,0.68,-49.07,9.16,139.74,3,4
18488.296,0.204,-0.268,0.677,-48.22,12.63,134.89,3,4
18488.296,0.194,-0.277,0.674,-49.9,15.5,130.31,3,4
18488.312,0.198,-0.287,0.703,-52.77,17.49,126.29,3,4
18488.328,0.185,-0.303,0.745,-54.45,19.56,123.23,3,4
18488.328,0.161,-0.341,0.769,-53.19,20.02,119.63,3,4
18488.343,0.146,-0.371,0.79,-50.94,17.91,115.57,3,4
18488.359,0.129,-0.433,0.807,-42.45,7.51,104.68,3,4
18488.375,0.134,-0.47,0.791,-36.53,0.52,97.48,3,4
18488.39,0.145,-0.492,0.764,-30.09,-4.76,90.15,3,4
18488.39,0.152,-0.512,0.752,-25.85,-7.48,83.59,3,4
18488.406,0.148,-0.533,0.738,-24.51,-9.13,77.64,3,4
18488.421,0.14,-0.549,0.731,-25.54,-9.25,72.27,3,4
18488.421,0.125,-0.586,0.739,-28.17,-7.66,69.12,3,4
18488.437,0.124,-0.629,0.755,-32.38,-5.62,68.33,3,4
18488.437,0.122,-0.674,0.79,-37.51,-3.54,68.36,3,4
18488.453,0.134,-0.708,0.822,-42.63,-2.78,66.87,3,4
18488.468,0.127,-0.716,0.846,-44.56,-3.39,58.05,3,4
18488.484,0.107,-0.788,0.882,-44.5,-6.53,49.59,3,4
18488.484,0.154,-0.749,0.898,-38.58,-16.11,37.51,3,4
18488.5,0.18,-0.691,0.865,-22.86,-26.18,16.63,3,4
18488.5,0.214,-0.63,0.829,-8.79,-31.74,-1.19,3,4
18488.515,0.222,-0.522,0.787,1.62,-33.42,-15.08,3,4
18488.531,0.205,-0.365,0.722,6.01,-27.38,-19.78,3,4
18488.546,0.185,-0.305,0.725,-1.13,-22.06,-11.93,3,4
18488.546,0.154,-0.29,0.741,-11.87,-17.33,0.7,3,4
18488.562,0.136,-0.331,0.769,-25.79,-12.24,17.3,3,4
18488.578,0.132,-0.374,0.781,-37.66,-9.64,30.03,3,4
18488.578,0.14,-0.45,0.781,-42.85,-12.63,35.83,3,4
18488.593,0.163,-0.52,0.784,-41.02,-17.12,37.39,3,4
18488.609,0.184,-0.554,0.769,-30.64,-20.87,35.52,3,4
18488.625,0.212,-0.555,0.739,-14.92,-22.49,31.13,3,4
18488.625,0.225,-0.523,0.704,-0.15,-21.21,26.58,3,4
18488.64,0.223,-0.49,0.678,7.63,-18.19,26.09,3,4
18488.64,0.23,-0.463,0.661,8.18,-14.74,30.06,3,4
18488.656,0.237,-0.454,0.651,4.15,-9.98,36.9,3,4
18488.656,0.247,-0.461,0.661,-3.23,-5.98,45.38,3,4
18488.671,0.26,-0.491,0.689,-11.54,-2.38,54.87,3,4
18488.687,0.257,-0.529,0.732,-19.5,2.04,64.09,3,4
18488.687,0.254,-0.589,0.776,-26.4,5.74,72.7,3,4
18488.703,0.243,-0.651,0.816,-32.65,7.87,78.92,3,4
18488.718,0.235,-0.721,0.853,-36.44,7.39,81.7,3,4
18488.718,0.226,-0.779,0.893,-37.14,4.85,80.36,3,4
18488.734,0.226,-0.831,0.916,-34.88,-0.06,74.4,3,4
18488.75,0.232,-0.865,0.919,-29.85,-6.47,64.7,3,4
18488.75,0.237,-0.878,0.927,-22.92,-12.36,53.83,3,4
18488.765,0.224,-0.853,0.914,-15.02,-17.82,42.79,3,4
18488.781,0.221,-0.814,0.881,-7.78,-24.32,32.65,3,4
18488.781,0.225,-0.77,0.855,-3.72,-28.38,26.4,3,4
18488.796,0.231,-0.731,0.831,-3.08,-28.93,24.54,3,4
18488.812,0.222,-0.689,0.806,-6.68,-26.76,25.51,3,4
18488.812,0.198,-0.669,0.799,-13.67,-24.26,27.68,3,4
18488.828,0.179,-0.668,0.82,-22.61,-23.1,31.62,3,4
18488.828,0.161,-0.67,0.833,-30.92,-24.02,35.62,3,4
18488.843,0.16,-0.694,0.826,-34.94,-28.38,37.54,3,4
18488.859,0.152,-0.714,0.814,-33.54,-33.3,37.87,3,4
18488.859,0.154,-0.724,0.783,-28.05,-38.33,37.9,3,4
18488.875,0.158,-0.711,0.741,-21.15,-43.7,36.74,3,4
18488.89,0.155,-0.721,0.72,-15.56,-46.94,37.75,3,4
18488.89,0.166,-0.73,0.712,-15.84,-46.91,42.54,3,4
18488.906,0.149,-0.745,0.7,-20.36,-45.2,47.67,3,4
18488.921,0.133,-0.759,0.692,-27.56,-45.11,52.0,3,4
18488.921,0.133,-0.768,0.671,-36.41,-47.03,54.72,3,4
18488.937,0.152,-0.811,0.634,-45.29,-49.44,55.3,3,4
18488.937,0.178,-0.849,0.602,-52.16,-50.66,52.95,3,4
18488.953,0.195,-0.877,0.567,-53.96,-49.99,46.75,3,4
18488.968,0.191,-0.891,0.549,-50.02,-48.49,37.26,3,4
18488.968,0.205,-0.892,0.552,-43.52,-46.91,26.37,3,4
18488.984,0.205,-0.884,0.563,-36.71,-41.57,15.69,3,4
18489.0,0.194,-0.88,0.585,-30.73,-33.78,6.78,3,4
18489.0,0.191,-0.845,0.603,-28.08,-28.38,-0.85,3,4
18489.015,0.177,-0.789,0.619,-29.21,-24.54,-9.43,3,4
18489.031,0.15,-0.757,0.637,-33.85,-25.39,-30.34,3,4
18489.046,0.134,-0.735,0.619,-26.49,-27.44,-42.33,3,4
18489.046,0.102,-0.679,0.599,-11.87,-28.35,-54.54,3,4
18489.062,0.094,-0.649,0.597,5.98,-28.69,-60.76,3,4
18489.078,0.1,-0.633,0.612,30.12,-20.05,-46.08,3,4
18489.093,0.067,-0.588,0.634,27.34,-17.03,-29.73,3,4
18489.093,0.027,-0.563,0.663,10.56,-20.84,-12.45,3,4
18489.109,0.002,-0.666,0.689,-10.47,-31.46,0.43,3,4
18489.109,0.028,-0.75,0.663,-24.2,-45.9,7.17,3,4
18489.125,0.079,-0.812,0.608,-25.36,-59.08,7.9,3,4
18489.14,0.131,-0.853,0.536,-15.35,-65.92,4.12,3,4
18489.14,0.156,-0.861,0.444,-0.67,-66.96,-1.4,3,4
18489.156,0.193,-0.834,0.355,12.67,-64.52,-6.81,3,4
18489.171,0.176,-0.801,0.273,23.59,-59.21,-12.42,3,4
18489.171,0.155,-0.771,0.196,30.09,-55.02,-15.47,3,4
18489.187,0.19,-0.734,0.156,29.21,-52.1,-15.81,3,4
18489.187,0.228,-0.709,0.138,24.72,-46.02,-16.21,3,4
18489.203,0.231,-0.703,0.13,18.71,-36.74,-15.5,3,4
18489.218,0.234,-0.712,0.14,12.57,-27.95,-14.13,3,4
18489.218,0.231,-0.741,0.151,9.31,-19.99,-12.88,3,4
18489.234,0.228,-0.769,0.167,10.62,-10.83,-10.96,3,4
18489.25,0.25,-0.768,0.187,14.37,0.52,-9.25,3,4
18489.265,0.263,-0.757,0.237,14.98,16.36,-8.58,3,4
18489.265,0.223,-0.737,0.313,9.25,33.45,-10.22,3,4
18489.281,0.165,-0.718,0.401,1.71,42.51,-16.51,3,4
18489.281,0.14,-0.704,0.464,0.67,41.9,-25.57,3,4
18489.296,0.146,-0.695,0.506,10.16,39.61,-32.75,3,4
18489.312,0.144,-0.642,0.551,23.29,41.47,-35.68,3,4
18489.312,0.118,-0.581,0.615,34.09,45.87,-34.03,3,4
18489.328,0.04,-0.531,0.642,40.53,48.86,-27.68,3,4
18489.343,0.015,-0.519,0.645,41.17,47.61,-13.0,3,4
18489.343,0.018,-0.496,0.648,33.6,48.8,6.44,3,4
18489.359,0.058,-0.503,0.669,22.31,52.1,26.28,3,4
18489.359,0.085,-0.547,0.712,7.26,60.4,45.9,3,4
18489.375,0.053,-0.61,0.767,-9.09,72.42,63.45,3,4
18489.39,-0.001,-0.68,0.846,-22.83,79.44,77.82,3,4
18489.39,-0.011,-0.753,0.917,-35.0,78.31,89.36,3,4
18489.406,-0.017,-0.844,0.955,-46.63,75.59,97.51,3,4
18489.421,-0.032,-0.935,0.959,-54.23,69.15,98.42,3,4
18489.421,-0.021,-1.016,0.923,-53.1,57.1,90.21,3,4
18489.437,0.009,-1.09,0.866,-41.23,44.34,77.0,3,4
18489.437,0.045,-1.1,0.794,-21.7,35.04,60.18,3,4
18489.453,0.067,-1.043,0.718,0.64,29.85,40.5,3,4
18489.468,0.08,-0.991,0.664,18.71,28.29,23.1,3,4
18489.484,0.075,-0.918,0.623,25.82,31.46,11.2,3,4
18489.484,0.055,-0.851,0.594,25.45,33.45,1.98,3,4
18489.5,0.068,-0.821,0.592,21.64,32.62,-3.23,3,4
18489.5,0.077,-0.78,0.589,17.49,32.9,-4.24,3,4
18489.515,0.072,-0.74,0.605,14.01,33.14,-2.9,3,4
18489.531,0.065,-0.725,0.638,12.91,31.95,1.53,3,4
18489.531,0.062,-0.714,0.673,11.35,29.97,9.52,3,4
18489.546,0.036,-0.713,0.681,5.92,27.86,17.37,3,4
18489.546,0.024,-0.739,0.684,-2.75,22.37,22.92,3,4
18489.562,0.058,-0.776,0.69,-8.39,14.47,25.57,3,4
18489.578,0.107,-0.796,0.677,-8.27,11.32,26.61,3,4
18489.578,0.136,-0.793,0.651,-5.16,14.01,25.94,3,4
18489.593,0.145,-0.789,0.641,-2.72,18.19,23.8,3,4
18489.609,0.133,-0.779,0.668,-2.5,21.58,21.76,3,4
18489.625,0.112,-0.786,0.709,-3.81,21.91,20.78,3,4
18489.625,0.118,-0.808,0.754,-5.98,18.22,21.0,3,4
18489.64,0.137,-0.825,0.799,-6.35,12.27,20.97,3,4
18489.64,0.147,-0.84,0.809,-3.2,5.43,17.82,3,4
18489.656,0.157,-0.85,0.811,3.08,-3.11,13.0,3,4
18489.671,0.172,-0.826,0.811,11.32,-11.99,7.75,3,4
18489.671,0.136,-0.798,0.787,20.05,-17.91,3.51,3,4
18489.687,0.093,-0.766,0.763,26.83,-23.87,2.04,3,4
18489.687,0.111,-0.747,0.769,30.76,-28.57,5.77,3,4
18489.703,0.105,-0.725,0.77,29.63,-27.56,14.65,3,4
18489.718,0.103,-0.711,0.783,22.19,-27.19,25.67,3,4
18489.718,0.084,-0.736,0.808,9.37,-28.32,35.95,3,4
18489.734,0.034,-0.808,0.804,-4.06,-31.4,43.37,3,4
18489.75,-0.01,-0.868,0.788,-13.82,-37.2,46.75,3,4
18489.765,-0.03,-0.933,0.768,-16.57,-41.72,47.43,3,4
18489.765,-0.035,-0.98,0.743,-16.14,-41.11,45.81,3,4
18489.781,-0.024,-0.979,0.731,-14.92,-37.08,39.19,3,4
18489.781,-0.025,-0.948,0.741,-12.21,-32.5,28.26,3,4
18489.796,-0.059,-0.895,0.748,-8.85,-30.52,14.95,3,4
18489.812,-0.081,-0.849,0.737,-3.45,-33.75,3.17,3,4
18489.812,-0.069,-0.781,0.716,2.44,-37.9,-2.87,3,4
18489.828,-0.074,-0.695,0.692,5.46,-40.01,-4.33,3,4
18489.828,-0.094,-0.657,0.651,3.23,-41.66,-1.37,3,4
18489.843,-0.085,-0.627,0.624,-3.66,-42.91,5.46,3,4
18489.859,-0.079,-0.614,0.613,-8.79,-42.15,12.76,3,4
18489.859,-0.083,-0.623,0.617,-11.78,-39.67,17.37,3,4
18489.875,-0.114,-0.652,0.651,-8.0,-37.02,17.55,3,4
18489.89,-0.123,-0.647,0.678,9.09,-35.4,16.6,3,4
18489.89,-0.116,-0.631,0.683,33.02,-31.65,19.14,3,4
18489.906,-0.117,-0.56,0.615,54.96,-28.02,25.42,3,4
18489.921,-0.079,-0.395,0.563,61.53,-25.33,38.91,3,4
18489.921,-0.077,-0.346,0.549,53.1,-24.2,52.89,3,4
18489.937,-0.112,-0.419,0.532,37.23,-24.72,65.37,3,4
18489.937,-0.072,-0.439,0.547,25.39,-24.51,78.07,3,4
18489.953,-0.039,-0.468,0.527,22.64,-22.03,86.15,3,4
18489.968,-0.036,-0.556,0.51,16.51,-17.03,86.34,3,4
18489.968,-0.03,-0.616,0.539,8.64,-13.52,77.33,3,4
18489.984,-0.064,-0.704,0.537,5.65,-11.72,63.75,3,4
18490.0,-0.088,-0.802,0.503,1.68,-11.69,51.55,3,4
18490.0,-0.071,-0.866,0.493,0.58,-12.57,38.94,3,4
18490.015,-0.067,-0.891,0.493,4.46,-10.07,25.3,3,4
18490.031,-0.081,-0.888,0.502,7.51,-5.49,10.65,3,4
18490.031,-0.111,-0.854,0.559,8.64,-1.5,-3.3,3,4
18490.046,-0.146,-0.843,0.615,11.54,0.09,-12.3,3,4
18490.046,-0.165,-0.843,0.626,11.66,-5.04,-14.77,3,4
18490.062,-0.099,-0.856,0.642,10.59,-4.09,-11.81,3,4
18490.078,-0.025,-0.861,0.677,6.59,1.77,-8.33,3,4
18490.093,-0.02,-0.892,0.726,0.76,4.55,-7.23,3,4
18490.093,-0.079,-0.959,0.818,0.4,0.7,-9.03,3,4
18490.109,-0.052,-0.994,0.81,5.01,-7.39,-13.0,3,4
18490.109,-0.002,-0.985,0.785,9.61,-12.57,-19.99,3,4
18490.125,0.011,-0.967,0.758,11.93,-13.31,-29.11,3,4
18490.14,0.022,-0.934,0.749,13.31,-12.33,-38.88,3,4
18490.14,0.008,-0.875,0.749,15.84,-8.94,-48.31,3,4
18490.156,0.002,-0.796,0.751,18.43,-6.2,-54.2,3,4
18490.171,-0.002,-0.705,0.781,17.49,-2.96,-52.92,3,4
18490.171,-0.041,-0.662,0.785,13.49,-0.49,-46.08,3,4
18490.187,-0.077,-0.645,0.775,6.16,-0.76,-32.53,3,4
18490.187,-0.081,-0.658,0.755,-4.85,-1.31,-16.27,3,4
18490.203,-0.058,-0.708,0.739,-18.31,-0.85,-4.76,3,4
18490.218,-0.055,-0.764,0.734,-28.23,1.1,-1.89,3,4
18490.218,-0.066,-0.791,0.74,-28.11,2.75,-6.04,3,4
18490.234,-0.102,-0.794,0.734,-18.92,2.99,-12.88,3,4
18490.25,-0.115,-0.754,0.717,-8.48,0.58,-17.73,3,4
18490.25,-0.129,-0.699,0.699,-2.14,-1.34,-18.77,3,4
18490.265,-0.155,-0.663,0.659,-3.39,-2.08,-15.29,3,4
18490.281,-0.138,-0.651,0.632,-11.41,-2.99,-8.91,3,4
18490.281,-0.12,-0.661,0.615,-19.84,-1.71,-2.93,3,4
18490.296,-0.108,-0.68,0.601,-24.87,1.65,1.01,3,4
18490.312,-0.084,-0.692,0.599,-25.15,6.23,2.81,3,4
18490.312,-0.104,-0.684,0.599,-23.35,13.09,4.03,3,4
18490.328,-0.135,-0.677,0.599,-24.05,17.91,4.94,3,4
18490.328,-0.139,-0.679,0.612,-26.43,18.52,5.52,3,4
18490.343,-0.139,-0.693,0.629,-26.31,18.56,5.92,3,4
18490.359,-0.127,-0.702,0.634,-24.93,18.77,6.71,3,4
18490.359,-0.116,-0.708,0.637,-24.29,19.78,6.41,3,4
18490.375,-0.123,-0.713,0.649,-24.38,21.33,5.16,3,4
18490.39,-0.147,-0.716,0.664,-24.45,22.16,4.21,3,4
18490.39,-0.164,-0.726,0.663,-24.41,20.78,3.72,3,4
18490.406,-0.172,-0.722,0.688,-25.15,18.04,3.63,3,4
18490.406,-0.187,-0.717,0.762,-25.61,14.31,4.91,3,4
18490.421,-0.216,-0.707,0.838,-25.51,8.48,8.94,3,4
18490.437,-0.239,-0.707,0.913,-26.83,-0.92,15.75,3,4
18490.453,-0.226,-0.733,0.957,-29.21,-13.67,24.08,3,4
18490.453,-0.167,-0.786,0.923,-33.69,-26.31,31.46,3,4
18490.468,-0.081,-0.859,0.864,-39.22,-35.46,34.06,3,4
18490.468,-0.024,-0.946,0.794,-41.29,-37.63,30.4,3,4
18490.484,0.006,-1.011,0.725,-39.46,-32.9,21.64,3,4
18490.5,0.01,-1.038,0.661,-34.09,-24.05,8.18,3,4
18490.5,-0.029,-1.029,0.616,-27.22,-14.44,-7.54,3,4
18490.515,-0.08,-0.998,0.585,-21.64,-6.65,-21.09,3,4
18490.531,-0.106,-0.957,0.567,-19.2,-1.22,-29.97,3,4
18490.531,-0.133,-0.92,0.534,-19.1,3.88,-34.27,3,4
18490.546,-0.148,-0.898,0.497,-21.33,11.29,-34.97,3,4
18490.546,-0.164,-0.874,0.49,-24.35,20.51,-33.33,3,4
18490.562,-0.192,-0.845,0.503,-25.51,29.08,-31.77,3,4
18490.578,-0.207,-0.831,0.509,-25.54,34.46,-32.2,3,4
18490.578,-0.197,-0.831,0.526,-24.32,37.35,-35.07,3,4
18490.593,-0.188,-0.819,0.526,-20.02,39.55,-38.36,3,4
18490.609,-0.18,-0.793,0.511,-16.54,42.15,-40.56,3,4
18490.625,-0.18,-0.783,0.5,-17.43,45.44,-41.66,3,4
18490.625,-0.185,-0.78,0.505,-20.2,48.28,-42.48,3,4
18490.64,-0.199,-0.779,0.512,-19.59,50.17,-42.91,3,4
18490.64,-0.19,-0.773,0.509,-17.33,52.1,-42.05,3,4
18490.656,-0.163,-0.749,0.525,-15.14,54.29,-41.69,3,4
18490.671,-0.157,-0.731,0.535,-13.18,56.18,-41.02,3,4
18490.671,-0.155,-0.718,0.542,-13.43,57.56,-38.64,3,4
18490.687,-0.137,-0.712,0.553,-15.96,59.08,-36.29,3,4
18490.703,-0.124,-0.721,0.559,-18.37,61.43,-34.55,3,4
18490.703,-0.116,-0.722,0.56,-18.8,63.6,-33.69,3,4
18490.718,-0.106,-0.734,0.559,-18.01,64.42,-34.79,3,4
18490.718,-0.101,-0.76,0.563,-16.79,64.79,-36.35,3,4
18490.734,-0.092,-0.772,0.577,-13.73,63.88,-38.97,3,4
18490.75,-0.078,-0.782,0.572,-9.43,62.01,-43.24,3,4
18490.75,-0.065,-0.782,0.553,-4.7,60.55,-48.22,3,4
18490.765,-0.063,-0.766,0.524,-0.46,59.94,-53.25,3,4
18490.781,-0.047,-0.756,0.504,0.46,61.59,-55.76,3,4
18490.781,-0.027,-0.755,0.502,-1.59,66.56,-54.51,3,4
18490.796,-0.033,-0.76,0.516,-4.61,74.5,-51.06,3,4
18490.796,-0.05,-0.777,0.564,-6.68,80.84,-47.55,3,4
18490.812,-0.066,-0.782,0.602,-5.52,82.55,-45.93,3,4
18490.828,-0.071,-0.78,0.615,-2.75,80.84,-46.39,3,4
18490.828,-0.067,-0.78,0.639,-1.19,78.43,-47.88,3,4
18490.843,-0.054,-0.788,0.637,0.0,75.23,-49.53,3,4
18490.859,-0.035,-0.785,0.615,0.12,72.88,-49.32,3,4
18490.859,-0.004,-0.792,0.592,-1.43,72.85,-49.2,3,4
18490.875,0.004,-0.798,0.591,-4.27,75.32,-49.68,3,4
18490.89,-0.007,-0.799,0.599,-5.25,78.43,-50.57,3,4
18490.89,-0.026,-0.792,0.607,-4.0,80.69,-52.0,3,4
18490.906,-0.062,-0.773,0.606,-1.59,81.58,-53.44,3,4
18490.921,-0.085,-0.772,0.591,0.34,79.81,-54.17,3,4
18490.921,-0.065,-0.786,0.568,1.77,77.46,-53.83,3,4
18490.937,-0.026,-0.788,0.549,2.69,77.61,-53.01,3,4
18490.937,0.004,-0.781,0.56,1.95,81.12,-52.52,3,4
18490.953,-0.001,-0.77,0.594,-0.67,86.28,-52.31,3,4
18490.968,-0.018,-0.769,0.637,-2.69,89.54,-51.94,3,4
18490.968,-0.039,-0.77,0.667,-2.35,89.72,-51.27,3,4
18490.984,-0.038,-0.776,0.675,-0.27,87.04,-49.71,3,4
18491.0,-0.031,-0.789,0.67,0.89,83.96,-47.88,3,4
18491.0,-0.006,-0.813,0.664,-0.09,80.9,-47.21,3,4
18491.015,0.017,-0.831,0.665,-0.55,79.41,-47.49,3,4
18491.031,0.027,-0.838,0.675,-0.24,79.84,-48.19,3,4
18491.031,0.031,-0.84,0.689,-0.24,79.93,-50.26,3,4
18491.046,0.027,-0.84,0.698,0.89,77.03,-57.37,3,4
18491.062,0.024,-0.829,0.702,2.62,74.31,-60.76,3,4
18491.062,0.01,-0.808,0.689,4.36,71.08,-62.81,3,4
18491.078,0.01,-0.768,0.637,4.82,69.09,-62.75,3,4
18491.078,0.028,-0.751,0.629,3.66,69.03,-61.01,3,4
18491.093,0.03,-0.745,0.631,2.08,70.83,-58.17,3,4
18491.109,0.031,-0.745,0.638,0.09,72.33,-54.23,3,4
18491.125,0.043,-0.751,0.648,-1.98,72.6,-51.15,3,4
18491.125,0.046,-0.76,0.65,-3.33,72.57,-50.29,3,4
18491.14,0.035,-0.766,0.653,-3.33,72.02,-50.05,3,4
18491.14,0.029,-0.769,0.653,-2.62,71.54,-48.86,3,4
18491.156,0.039,-0.776,0.651,-3.23,71.23,-46.48,3,4
18491.156,0.044,-0.793,0.66,-5.83,71.38,-44.62,3,4
18491.171,0.042,-0.833,0.677,-7.63,70.99,-44.74,3,4
18491.187,0.046,-0.862,0.69,-6.07,69.7,-46.39,3,4
18491.187,0.043,-0.868,0.691,-2.87,68.33,-50.33,3,4
18491.203,0.037,-0.872,0.69,-1.07,66.44,-56.86,3,4
18491.218,0.03,-0.861,0.689,0.7,63.33,-65.25,3,4
18491.218,0.02,-0.841,0.686,6.01,58.84,-73.61,3,4
18491.234,0.027,-0.8,0.676,13.15,54.81,-79.13,3,4
18491.25,0.027,-0.766,0.653,17.73,52.67,-82.8,3,4
18491.25,0.023,-0.732,0.633,17.94,51.15,-85.48,3,4
18491.265,0.014,-0.692,0.616,15.96,50.08,-85.63,3,4
18491.265,0.022,-0.659,0.594,12.82,49.96,-81.24,3,4
18491.281,0.036,-0.631,0.568,7.69,51.88,-73.49,3,4
18491.296,0.037,-0.628,0.553,1.01,55.6,-64.36,3,4
18491.296,0.032,-0.649,0.55,-5.62,60.09,-54.72,3,4
18491.312,0.036,-0.686,0.553,-10.86,63.91,-46.57,3,4
18491.328,0.034,-0.737,0.558,-12.54,66.93,-42.45,3,4
18491.343,0.028,-0.777,0.565,-10.59,69.8,-41.29,3,4
18491.343,0.023,-0.797,0.576,-6.99,72.12,-42.05,3,4
18491.359,0.019,-0.812,0.578,-4.15,73.52,-43.18,3,4
18491.359,0.018,-0.814,0.589,-3.23,74.62,-42.97,3,4
18491.375,0.017,-0.818,0.604,-5.19,75.59,-41.57,3,4
18491.39,0.013,-0.842,0.617,-8.64,75.96,-39.64,3,4
18491.39,0.014,-0.869,0.626,-11.26,75.47,-38.88,3,4
18491.406,0.003,-0.889,0.629,-11.72,75.05,-40.38,3,4
18491.421,-0.006,-0.903,0.627,-10.1,73.79,-44.25,3,4
18491.421,0.008,-0.901,0.612,-7.75,71.54,-48.52,3,4
18491.437,0.022,-0.885,0.596,-7.39,70.8,-51.76,3,4
18491.437,0.032,-0.891,0.59,-9.67,71.2,-54.14,3,4
18491.453,0.043,-0.904,0.6,-11.75,72.45,-55.24,3,4
18491.468,0.04,-0.907,0.608,-11.35,74.77,-56.98,3,4
18491.468,0.023,-0.895,0.593,-10.22,77.0,-59.88,3,4
18491.484,-0.008,-0.888,0.587,-9.09,77.94,-63.78,3,4
18491.5,-0.022,-0.882,0.611,-5.71,77.79,-66.74,3,4
18491.5,-0.035,-0.838,0.61,0.18,77.64,-67.14,3,4
18491.515,-0.04,-0.791,0.623,3.57,76.78,-64.7,3,4
18491.531,-0.019,-0.762,0.62,3.75,76.3,-59.94,3,4
18491.531,0.005,-0.733,0.619,2.32,77.3,-54.02,3,4
18491.546,0.008,-0.708,0.617,-1.53,78.95,-48.4,3,4
18491.562,0.013,-0.709,0.604,-9.43,80.48,-42.88,3,4
18491.562,0.017,-0.737,0.604,-18.56,82.06,-37.32,3,4
18491.578,0.015,-0.779,0.61,-23.96,85.33,-33.3,3,4
18491.578,0.033,-0.822,0.625,-25.06,88.08,-30.64,3,4
18491.593,0.049,-0.846,0.652,-23.32,90.33,-29.82,3,4
18491.609,0.039,-0.849,0.682,-19.59,91.89,-30.64,3,4
18491.609,0.013,-0.838,0.701,-16.42,91.01,-32.47,3,4
18491.625,0.011,-0.824,0.709,-16.51,86.95,-34.49,3,4
18491.64,-0.001,-0.817,0.71,-18.07,82.34,-36.56,3,4
18491.64,0.008,-0.822,0.691,-18.95,78.16,-37.23,3,4
18491.656,0.041,-0.804,0.658,-18.98,75.81,-37.51,3,4
18491.656,0.055,-0.8,0.65,-19.23,76.48,-38.73,3,4
18491.671,0.056,-0.805,0.67,-17.18,78.04,-40.47,3,4
18491.687,0.053,-0.796,0.677,-12.51,77.7,-41.84,3,4
18491.687,0.066,-0.774,0.675,-9.89,75.17,-42.42,3,4
18491.703,0.066,-0.764,0.674,-9.03,71.99,-42.91,3,4
18491.718,0.066,-0.765,0.676,-8.51,68.97,-41.51,3,4
18491.734,0.066,-0.754,0.669,-8.12,67.35,-39.34,3,4
18491.734,0.072,-0.755,0.658,-8.7,65.98,-37.54,3,4
18491.75,0.086,-0.762,0.642,-10.83,65.61,-35.43,3,4
18491.75,0.093,-0.77,0.637,-12.57,65.58,-33.66,3,4
18491.765,0.097,-0.778,0.637,-11.32,65.8,-31.68,3,4
18491.781,0.09,-0.767,0.635,-10.13,66.81,-28.63,3,4
18491.781,0.077,-0.766,0.648,-11.72,67.87,-25.48,3,4
18491.796,0.056,-0.778,0.668,-13.61,67.63,-22.1,3,4
18491.812,0.037,-0.783,0.66,-13.98,65.92,-18.4,3,4
18491.812,0.057,-0.794,0.643,-15.17,62.87,-15.53,3,4
18491.828,0.069,-0.809,0.63,-15.93,61.89,-13.98,3,4
18491.828,0.064,-0.814,0.622,-16.08,62.72,-12.21,3,4
18491.843,0.053,-0.81,0.62,-16.85,63.66,-10.38,3,4
18491.859,0.05,-0.822,0.624,-17.09,63.66,-9.31,3,4
18491.859,0.048,-0.825,0.627,-15.87,63.66,-8.18,3,4
18491.875,0.033,-0.83,0.63,-14.47,63.88,-7.63,3,4
18491.89,0.036,-0.843,0.633,-15.5,63.05,-6.81,3,4
18491.89,0.047,-0.847,0.637,-17.73,61.92,-6.65,3,4
18491.906,0.049,-0.87,0.633,-17.43,61.4,-6.81,3,4
18491.921,0.058,-0.861,0.63,-15.53,60.85,-6.5,3,4
18491.921,0.037,-0.839,0.629,-14.04,59.76,-7.9,3,4
18491.937,-0.0,-0.834,0.615,-13.73,56.89,-9.55,3,4
18491.953,0.008,-0.839,0.598,-13.76,53.07,-9.43,3,4
18491.953,0.027,-0.833,0.567,-12.91,51.64,-8.73,3,4
18491.968,0.02,-0.812,0.555,-12.12,53.01,-8.15,3,4
18491.968,0.016,-0.805,0.557,-11.99,54.6,-5.92,3,4
18491.984,0.004,-0.8,0.566,-13.73,55.45,-2.41,3,4
18492.0,-0.019,-0.825,0.568,-14.8,54.96,0.03,3,4
18492.0,-0.031,-0.846,0.548,-14.01,53.56,1.62,3,4
18492.015,-0.041,-0.867,0.512,-13.67,53.13,1.86,3,4
18492.031,-0.037,-0.893,0.503,-14.98,55.79,0.31,3,4
18492.031,-0.035,-0.917,0.513,-13.46,58.08,-2.53,3,4
18492.046,-0.042,-0.943,0.536,-10.62,58.72,-7.02,3,4
18492.046,-0.058,-0.936,0.544,-8.61,57.01,-12.33,3,4
18492.062,-0.076,-0.891,0.546,-7.11,54.51,-15.66,3,4
18492.078,-0.083,-0.864,0.529,-6.13,52.98,-16.69,3,4
18492.093,-0.079,-0.854,0.524,-6.13,52.16,-16.36,3,4
18492.093,-0.071,-0.86,0.51,-6.07,52.19,-14.71,3,4
18492.109,-0.055,-0.867,0.516,-6.5,52.95,-12.57,3,4
18492.109,-0.066,-0.866,0.513,-6.35,54.29,-11.63,3,4
18492.125,-0.065,-0.873,0.514,-6.04,54.69,-10.99,3,4
18492.14,-0.059,-0.875,0.511,-6.35,55.21,-11.08,3,4
18492.14,-0.076,-0.868,0.5,-7.81,55.82,-12.36,3,4
18492.156,-0.091,-0.886,0.504,-9.64,55.51,-13.06,3,4
18492.171,-0.087,-0.881,0.503,-9.22,54.2,-13.49,3,4
18492.171,-0.093,-0.882,0.5,-8.58,53.53,-14.62,3,4
18492.187,-0.103,-0.892,0.495,-9.06,53.59,-15.08,3,4
18492.187,-0.113,-0.886,0.483,-8.48,53.38,-15.75,3,4
18492.203,-0.121,-0.892,0.475,-7.57,50.97,-17.21,3,4
18492.218,-0.114,-0.891,0.463,-7.26,49.04,-18.31,3,4
18492.234,-0.12,-0.897,0.465,-6.65,51.18,-18.31,3,4
18492.234,-0.126,-0.884,0.474,-4.76,51.12,-18.98,3,4
18492.25,-0.12,-0.871,0.479,-2.26,50.78,-18.89,3,4
18492.25,-0.124,-0.865,0.482,-1.77,52.0,-17.79,3,4
18492.265,-0.119,-0.87,0.475,-3.14,51.79,-16.54,3,4
18492.281,-0.105,-0.879,0.466,-4.24,51.12,-16.14,3,4
18492.281,-0.104,-0.889,0.457,-3.48,51.45,-17.12,3,4
18492.296,-0.111,-0.889,0.448,-2.9,51.48,-18.4,3,4
18492.296,-0.107,-0.878,0.448,-3.48,51.64,-19.81,3,4
18492.312,-0.104,-0.877,0.451,-3.78,51.55,-21.94,3,4
18492.328,-0.109,-0.88,0.447,-1.13,51.82,-23.38,3,4
18492.328,-0.112,-0.867,0.453,2.9,52.4,-23.32,3,4
18492.343,-0.124,-0.856,0.448,4.46,53.04,-23.41,3,4
18492.359,-0.127,-0.845,0.451,3.02,52.46,-23.8,3,4
18492.375,-0.116,-0.848,0.458,2.11,51.48,-23.77,3,4
18492.375,-0.109,-0.835,0.449,2.81,51.88,-22.71,3,4
18492.39,-0.11,-0.829,0.44,3.08,52.58,-21.73,3,4
18492.39,-0.107,-0.842,0.443,2.78,53.13,-20.97,3,4
18492.406,-0.119,-0.849,0.44,2.87,54.29,-20.2,3,4
18492.421,-0.114,-0.876,0.447,2.59,54.14,-20.36,3,4
18492.421,-0.106,-0.894,0.46,3.05,53.56,-22.92,3,4
18492.437,-0.113,-0.896,0.45,6.13,52.13,-28.47,3,4
18492.437,-0.11,-0.875,0.432,11.11,49.5,-34.61,3,4
18492.453,-0.08,-0.851,0.421,16.11,48.1,-38.54,3,4
18492.468,-0.05,-0.844,0.415,19.01,49.5,-40.8,3,4
18492.468,-0.024,-0.859,0.435,18.34,52.28,-42.66,3,4
18492.484,-0.015,-0.889,0.476,16.85,54.69,-45.81,3,4
18492.5,-0.031,-0.884,0.516,16.94,55.42,-51.09,3,4
18492.5,-0.049,-0.843,0.544,21.06,52.25,-57.5,3,4
18492.515,-0.079,-0.784,0.538,26.0,47.27,-59.14,3,4
18492.531,-0.079,-0.745,0.509,25.61,41.2,-54.38,3,4
18492.531,-0.046,-0.739,0.469,20.23,36.5,-46.6,3,4
18492.546,-0.007,-0.757,0.43,14.98,36.53,-37.97,3,4
18492.546,0.028,-0.791,0.416,10.74,40.96,-28.96,3,4
18492.562,0.023,-0.822,0.428,7.2,48.92,-22.1,3,4
18492.578,-0.007,-0.853,0.461,4.67,55.21,-18.8,3,4
18492.593,-0.044,-0.873,0.49,3.39,56.03,-18.68,3,4
18492.593,-0.033,-0.9,0.514,4.21,52.64,-19.5,3,4
18492.609,-0.028,-0.902,0.52,7.14,50.36,-19.59,3,4
18492.609,-0.039,-0.898,0.517,7.66,48.59,-18.65,3,4
18492.625,-0.041,-0.91,0.522,4.3,45.72,-18.28,3,4
18492.64,-0.046,-0.934,0.534,1.77,43.4,-19.1,3,4
18492.64,-0.062,-0.939,0.516,5.71,42.57,-20.2,3,4
18492.656,-0.056,-0.916,0.483,11.26,38.3,-20.87,3,4
18492.671,-0.027,-0.921,0.475,13.34,39.19,-18.31,3,4
18492.671,-0.034,-0.889,0.459,12.57,40.93,-14.95,3,4
18492.687,-0.04,-0.875,0.467,9.7,43.76,-11.14,3,4
18492.687,-0.072,-0.875,0.463,4.49,42.88,-9.74,3,4
18492.703,-0.084,-0.95,0.497,-4.67,39.31,-7.26,3,4
18492.718,-0.083,-1.012,0.512,-7.23,41.66,-4.21,3,4
18492.734,-0.063,-1.024,0.503,-2.08,41.87,-5.16,3,4
18492.734,-0.042,-1.02,0.49,2.84,41.02,-11.78,3,4
18492.75,-0.023,-0.998,0.499,3.91,40.16,-20.17,3,4
18492.75,-0.018,-0.977,0.52,5.1,41.11,-27.34,3,4
18492.765,-0.011,-0.94,0.548,8.64,39.74,-33.6,3,4
18492.781,-0.014,-0.9,0.576,12.12,37.63,-38.7,3,4
18492.781,-0.03,-0.877,0.59,14.92,33.14,-42.91,3,4
18492.796,-0.048,-0.837,0.575,16.02,25.67,-46.08,3,4
18492.796,-0.041,-0.842,0.542,15.41,18.43,-46.51,3,4
18492.812,-0.003,-0.834,0.51,14.4,14.59,-42.79,3,4
18492.828,0.015,-0.805,0.489,13.46,15.84,-37.35,3,4
18492.828,0.022,-0.794,0.483,10.38,18.74,-31.8,3,4
18492.843,0.025,-0.788,0.48,7.81,20.87,-27.38,3,4
18492.859,0.021,-0.803,0.479,8.06,21.58,-23.41,3,4
18492.859,0.034,-0.82,0.483,8.06,22.25,-18.68,3,4
18492.875,0.028,-0.841,0.483,5.83,24.81,-15.69,3,4
18492.89,0.025,-0.882,0.496,2.62,26.7,-15.5,3,4
18492.89,0.027,-0.897,0.511,2.47,26.98,-18.28,3,4
18492.906,0.008,-0.886,0.523,6.38,26.0,-23.13,3,4
18492.921,-0.006,-0.839,0.515,11.2,22.58,-26.52,3,4
18492.921,-0.004,-0.796,0.497,12.76,18.83,-26.31,3,4
18492.937,0.028,-0.79,0.495,10.62,17.09,-20.69,3,4
18492.953,0.035,-0.791,0.484,7.32,20.51,-13.0,3,4
18492.953,0.033,-0.816,0.491,3.63,23.65,-6.68,3,4
18492.968,0.023,-0.843,0.508,0.85,25.54,-2.96,3,4
18492.968,0.002,-0.869,0.516,0.4,25.45,-3.02,3,4
18492.984,-0.015,-0.882,0.514,2.29,23.16,-5.89,3,4
18493.0,-0.018,-0.887,0.493,5.07,20.66,-8.51,3,4
18493.015,-0.015,-0.879,0.467,6.32,19.26,-9.92,3,4
18493.015,-0.007,-0.881,0.458,4.27,20.36,-10.1,3,4
18493.031,0.002,-0.879,0.468,3.2,21.91,-8.33,3,4
18493.031,0.009,-0.879,0.486,2.01,22.61,-7.11,3,4
18493.046,0.006,-0.869,0.535,1.37,23.32,-7.63,3,4
18493.062,-0.007,-0.868,0.552,1.68,22.34,-8.76,3,4
18493.062,-0.0,-0.852,0.555,3.23,19.35,-9.16,3,4
18493.078,0.004,-0.845,0.546,5.1,15.87,-8.27,3,4
18493.078,0.008,-0.85,0.527,5.16,13.98,-5.62,3,4
18493.093,0.014,-0.855,0.514,3.23,13.46,-3.23,3,4
18493.109,0.01,-0.876,0.515,1.68,13.52,-1.68,3,4
18493.125,0.017,-0.891,0.517,1.1,13.82,0.03,3,4
18493.125,0.032,-0.897,0.517,0.18,13.86,0.82,3,4
18493.14,0.033,-0.907,0.527,-0.67,13.82,0.06,3,4
18493.14,0.025,-0.904,0.538,0.37,13.58,-1.89,3,4
18493.156,0.019,-0.899,0.544,2.5,12.63,-4.46,3,4
18493.156,0.011,-0.884,0.554,4.61,11.63,-6.59,3,4
18493.171,-0.006,-0.871,0.541,5.77,10.13,-7.97,3,4
18493.187,-0.001,-0.879,0.535,5.55,6.5,-8.45,3,4
18493.187,0.001,-0.877,0.529,5.49,4.27,-7.75,3,4
18493.203,-0.006,-0.869,0.516,5.22,3.11,-6.01,3,4
18493.218,0.002,-0.865,0.512,3.85,2.2,-4.06,3,4
18493.218,0.017,-0.872,0.511,2.17,1.83,-2.62,3,4
18493.234,0.01,-0.869,0.518,1.53,2.38,-2.81,3,4
18493.25,-0.004,-0.88,0.519,2.56,2.08,-4.58,3,4
18493.25,-0.005,-0.883,0.528,4.85,0.21,-6.44,3,4
18493.265,-0.011,-0.876,0.519,7.57,-1.5,-7.93,3,4
18493.281,-0.003,-0.869,0.513,7.29,-2.93,-8.15,3,4
18493.281,-0.0,-0.858,0.515,4.64,-3.45,-7.84,3,4
18493.296,0.006,-0.857,0.519,0.52,-4.43,-7.42,3,4
18493.296,0.009,-0.857,0.523,-4.64,-5.49,-7.72,3,4
18493.312,0.005,-0.877,0.506,-8.42,-6.56,-9.19,3,4
18493.328,-0.007,-0.906,0.507,-8.18,-6.78,-11.08,3,4
18493.328,-0.009,-0.918,0.509,-2.59,-6.07,-12.09,3,4
18493.343,0.009,-0.907,0.5,5.01,-5.37,-12.42,3,4
18493.359,0.007,-0.893,0.485,9.83,-3.63,-12.79,3,4
18493.359,0.006,-0.888,0.487,9.83,-2.23,-13.15,3,4
18493.375,-0.001,-0.88,0.513,7.63,-1.68,-12.63,3,4
18493.39,-0.026,-0.886,0.534,6.68,-1.74,-10.38,3,4
18493.39,-0.045,-0.886,0.539,5.62,-2.96,-6.41,3,4
18493.406,-0.035,-0.887,0.535,3.72,-5.31,-2.32,3,4
18493.406,-0.023,-0.897,0.528,2.04,-7.69,0.06,3,4
18493.421,-0.018,-0.906,0.528,1.46,-9.0,0.79,3,4
18493.437,-0.002,-0.916,0.516,2.29,-9.77,0.73,3,4
18493.437,0.006,-0.913,0.508,4.12,-9.52,0.09,3,4
18493.453,-0.013,-0.907,0.499,4.85,-8.27,-0.31,3,4
18493.468,-0.023,-0.911,0.494,4.12,-8.3,-0.31,3,4
18493.468,-0.034,-0.917,0.487,3.54,-8.48,-0.76,3,4
18493.484,-0.043,-0.923,0.474,3.48,-8.21,-1.25,3,4
18493.5,-0.039,-0.914,0.465,2.93,-8.09,-1.92,3,4
18493.5,-0.028,-0.908,0.467,2.9,-7.45,-2.53,3,4
18493.515,-0.026,-0.906,0.456,2.9,-5.58,-2.44,3,4
18493.531,-0.014,-0.9,0.461,2.01,-3.91,-2.69,3,4
18493.531,-0.004,-0.888,0.481,1.77,-3.05,-3.88,3,4
18493.546,-0.005,-0.876,0.488,2.41,-2.38,-5.34,3,4
18493.546,-0.016,-0.87,0.499,2.62,-2.26,-6.23,3,4
18493.562,-0.023,-0.868,0.501,3.11,-3.14,-6.38,3,4
18493.578,-0.016,-0.87,0.479,3.91,-4.21,-5.86,3,4
18493.578,-0.003,-0.868,0.459,3.02,-3.78,-5.07,3,4
18493.593,0.007,-0.865,0.459,1.04,-1.92,-4.55,3,4
18493.609,0.007,-0.86,0.47,-0.31,-0.15,-4.03,3,4
18493.609,0.0,-0.849,0.487,-0.18,1.07,-3.27,3,4
18493.625,-0.007,-0.841,0.497,0.55,1.43,-2.08,3,4
18493.64,-0.004,-0.84,0.496,0.58,0.55,-1.07,3,4
18493.64,0.012,-0.85,0.493,0.12,-0.55,-0.15,3,4
18493.656,0.013,-0.861,0.49,-0.43,0.43,0.27,3,4
18493.656,0.006,-0.869,0.5,-1.16,1.04,0.12,3,4
18493.671,0.009,-0.884,0.508,-1.34,0.61,-0.52,3,4
18493.687,0.015,-0.892,0.506,-0.43,0.12,-1.68,3,4
18493.687,0.014,-0.892,0.504,1.31,-0.27,-3.3,3,4
18493.703,0.014,-0.893,0.498,3.39,-0.98,-5.04,3,4
18493.718,0.017,-0.883,0.487,4.61,-0.73,-6.71,3,4
18493.718,0.019,-0.871,0.482,4.85,0.15,-8.06,3,4
18493.734,0.025,-0.866,0.494,4.64,1.04,-8.91,3,4
18493.75,0.032,-0.86,0.515,4.88,2.2,-8.79,3,4
18493.765,0.033,-0.861,0.53,5.04,2.99,-8.24,3,4
18493.765,0.02,-0.864,0.548,4.39,2.9,-7.72,3,4
18493.781,-0.004,-0.866,0.553,3.14,1.62,-7.02,3,4
18493.781,-0.016,-0.879,0.543,1.1,-1.5,-6.41,3,4
18493.796,-0.016,-0.899,0.525,-1.43,-4.85,-6.44,3,4
18493.812,0.005,-0.918,0.508,-3.75,-7.48,-7.32,3,4
18493.812,0.03,-0.935,0.498,-3.6,-8.15,-9.06,3,4
18493.828,0.037,-0.936,0.499,-1.28,-6.23,-11.23,3,4
18493.828,0.032,-0.927,0.505,1.59,-3.91,-12.85,3,4
18493.843,0.016,-0.91,0.522,3.85,-2.78,-13.67,3,4
18493.859,-0.003,-0.895,0.531,6.1,-2.78,-13.25,3,4
18493.859,-0.01,-0.89,0.518,7.29,-4.18,-11.26,3,4
18493.875,-0.004,-0.879,0.502,6.56,-5.46,-8.85,3,4
18493.89,0.001,-0.875,0.487,4.03,-5.43,-6.47,3,4
18493.89,0.014,-0.888,0.478,1.13,-4.88,-4.21,3,4
18493.906,0.034,-0.894,0.473,-0.31,-3.54,-2.9,3,4
18493.906,0.036,-0.894,0.475,0.31,-0.82,-3.36,3,4
18493.921,0.032,-0.889,0.485,1.04,1.04,-4.76,3,4
18493.937,0.022,-0.889,0.49,1.65,1.8,-6.26,3,4
18493.937,0.019,-0.888,0.493,2.17,1.98,-7.26,3,4
18493.953,0.021,-0.882,0.498,2.66,1.74,-8.33,3,4
18493.968,0.01,-0.871,0.499,3.11,1.5,-8.58,3,4
18493.968,0.024,-0.861,0.497,2.84,0.4,-8.21,3,4
18493.984,0.041,-0.852,0.49,2.26,0.0,-8.67,3,4
18494.0,0.047,-0.845,0.484,2.17,1.65,-10.56,3,4
18494.0,0.044,-0.833,0.478,2.62,2.75,-10.38,3,4
18494.015,0.041,-0.818,0.478,2.38,3.66,-8.61,3,4
18494.031,0.039,-0.795,0.478,0.24,4.7,-5.95,3,4
18494.031,0.047,-0.776,0.473,-2.62,6.07,-2.93,3,4
18494.046,0.047,-0.764,0.47,-5.43,8.03,0.92,3,4
18494.062,0.044,-0.755,0.471,-9.22,9.86,5.07,3,4
18494.062,0.053,-0.772,0.484,-13.73,11.02,9.16,3,4
18494.078,0.057,-0.8,0.496,-16.42,12.02,12.73,3,4
18494.093,0.061,-0.831,0.516,-16.33,12.18,14.92,3,4
18494.093,0.062,-0.861,0.537,-13.09,11.51,14.86,3,4
18494.109,0.051,-0.878,0.559,-7.32,9.46,12.57,3,4
18494.109,0.032,-0.891,0.568,-0.49,5.86,9.19,3,4
