timestamp,ax,ay,az,gx,gy,gz,orient_label,motion_label
18494.125,0.019,-0.903,0.549,4.3,0.85,5.4,3,4
18494.14,0.025,-0.902,0.532,6.99,-3.63,2.04,3,4
18494.14,0.028,-0.898,0.511,8.76,-5.62,-0.4,3,4
18494.156,0.039,-0.89,0.493,8.85,-6.26,-1.92,3,4
18494.156,0.048,-0.883,0.491,8.27,-6.04,-3.17,3,4
18494.171,0.046,-0.865,0.499,7.93,-5.31,-3.51,3,4
18494.187,0.027,-0.861,0.497,7.02,-4.52,-2.59,3,4
18494.187,0.012,-0.874,0.485,4.76,-4.52,-0.15,3,4
18494.203,0.028,-0.892,0.476,2.29,-4.39,1.98,3,4
18494.218,0.042,-0.907,0.477,1.37,-2.72,2.69,3,4
18494.234,0.043,-0.912,0.487,1.92,0.03,2.35,3,4
18494.234,0.042,-0.915,0.506,2.62,1.89,0.79,3,4
18494.25,0.031,-0.921,0.533,3.91,2.29,-1.77,3,4
18494.25,0.005,-0.935,0.544,6.44,1.04,-4.7,3,4
18494.265,-0.01,-0.945,0.536,8.79,-1.4,-7.78,3,4
18494.281,-0.019,-0.955,0.508,10.53,-3.57,-10.56,3,4
18494.281,-0.018,-0.951,0.464,10.74,-4.36,-12.54,3,4
18494.296,0.008,-0.925,0.425,9.31,1.16,-14.92,3,4
18494.312,-0.006,-0.909,0.419,7.23,7.78,-11.81,3,4
18494.328,-0.023,-0.899,0.425,2.11,13.73,-6.5,3,4
18494.328,-0.021,-0.903,0.443,-4.46,17.7,-0.58,3,4
18494.343,-0.004,-0.919,0.471,-11.17,20.69,5.19,3,4
18494.359,0.003,-0.941,0.513,-16.24,23.77,9.64,3,4
18494.359,0.015,-0.964,0.551,-19.14,25.39,12.12,3,4
18494.375,0.029,-0.975,0.602,-19.44,24.05,11.17,3,4
18494.39,0.027,-0.979,0.643,-16.08,20.94,6.99,3,4
18494.39,0.025,-0.97,0.664,-10.47,14.92,0.18,3,4
18494.406,0.033,-0.946,0.668,-4.18,6.68,-8.58,3,4
18494.406,0.034,-0.924,0.644,2.14,-1.89,-16.42,3,4
18494.421,0.049,-0.89,0.623,7.35,-8.82,-21.79,3,4
18494.437,0.062,-0.85,0.583,12.3,-12.51,-25.21,3,4
18494.453,0.069,-0.807,0.559,13.89,-14.53,-27.22,3,4
18494.453,0.073,-0.773,0.549,13.76,-16.21,-27.53,3,4
18494.468,0.082,-0.746,0.537,13.89,-17.7,-25.88,3,4
18494.468,0.092,-0.731,0.531,14.37,-18.22,-22.43,3,4
18494.484,0.101,-0.733,0.532,15.05,-17.58,-18.04,3,4
18494.5,0.099,-0.742,0.541,15.35,-16.63,-14.62,3,4
18494.5,0.099,-0.772,0.574,16.45,-17.94,-14.37,3,4
18494.515,0.101,-0.813,0.619,20.81,-20.87,-17.3,3,4
18494.531,0.1,-0.839,0.649,29.08,-25.21,-22.74,3,4
18494.531,0.112,-0.822,0.647,39.06,-32.81,-32.5,3,4
18494.546,0.155,-0.806,0.663,50.17,-43.55,-45.59,3,4
18494.562,0.197,-0.78,0.707,64.73,-52.52,-58.05,3,4
18494.562,0.207,-0.721,0.744,81.73,-58.93,-67.96,3,4
18494.578,0.19,-0.658,0.802,95.83,-65.34,-75.23,3,4
18494.578,0.187,-0.621,0.89,109.01,-74.92,-80.45,3,4
18494.593,0.207,-0.594,0.974,124.82,-88.17,-83.19,3,4
18494.609,0.214,-0.559,1.003,141.21,-103.12,-84.66,3,4
18494.609,0.203,-0.491,0.966,152.29,-122.17,-88.38,3,4
18494.625,0.241,-0.471,0.945,160.07,-147.16,-95.86,3,4
18494.64,0.326,-0.487,0.911,170.48,-167.79,-100.68,3,4
18494.64,0.359,-0.446,0.822,178.84,-175.12,-98.61,3,4
18494.656,0.337,-0.406,0.738,178.04,-175.15,-95.74,3,4
18494.671,0.298,-0.416,0.696,171.21,-173.62,-92.99,3,4
18494.671,0.254,-0.427,0.643,162.94,-169.71,-87.16,3,4
18494.687,0.251,-0.423,0.604,152.04,-165.35,-78.77,3,4
18494.703,0.268,-0.431,0.591,138.58,-159.89,-69.46,3,4
18494.703,0.282,-0.443,0.59,123.81,-154.36,-60.06,3,4
18494.718,0.293,-0.522,0.599,107.94,-150.06,-48.74,3,4
18494.734,0.299,-0.597,0.555,89.02,-144.32,-33.6,3,4
18494.734,0.298,-0.632,0.483,67.66,-140.08,-23.22,3,4
18494.75,0.339,-0.704,0.433,51.61,-140.2,-24.96,3,4
18494.765,0.411,-0.762,0.401,47.7,-137.97,-35.16,3,4
18494.765,0.47,-0.781,0.379,56.22,-130.47,-50.11,3,4
18494.781,0.533,-0.767,0.383,74.34,-120.67,-68.36,3,4
18494.781,0.58,-0.714,0.409,96.59,-107.43,-85.24,3,4
18494.796,0.62,-0.539,0.49,127.11,-84.63,-100.86,3,4
18494.812,0.676,-0.471,0.521,131.75,-77.52,-99.67,3,4
18494.828,0.723,-0.394,0.543,127.87,-69.7,-93.57,3,4
18494.828,0.766,-0.319,0.567,117.92,-62.38,-85.18,3,4
18494.843,0.804,-0.251,0.571,105.93,-55.3,-75.9,3,4
18494.859,0.823,-0.184,0.565,93.87,-48.37,-65.92,3,4
18494.859,0.84,-0.135,0.564,83.62,-42.33,-55.88,3,4
18494.875,0.854,-0.096,0.562,77.21,-35.4,-46.48,3,4
18494.89,0.851,-0.051,0.567,73.73,-27.04,-38.03,3,4
18494.89,0.833,-0.02,0.595,73.43,-18.65,-30.4,3,4
18494.906,0.817,0.005,0.628,76.3,-11.96,-22.68,3,4
18494.906,0.805,0.047,0.664,81.24,-7.23,-15.11,3,4
18494.921,0.791,0.102,0.705,86.89,-4.15,-7.6,3,4
18494.937,0.784,0.168,0.736,89.39,-3.33,1.43,3,4
18494.953,0.777,0.22,0.767,86.34,-4.21,11.84,3,4
18494.953,0.765,0.243,0.789,80.78,-5.62,23.16,3,4
18494.968,0.757,0.247,0.792,74.92,-7.11,35.68,3,4
18494.968,0.745,0.238,0.804,69.43,-8.3,49.29,3,4
18494.984,0.733,0.202,0.799,62.41,-8.67,74.31,3,4
18495.0,0.725,0.174,0.784,58.38,-7.54,83.53,3,4
18495.0,0.713,0.138,0.777,55.27,-6.32,90.4,3,4
18495.015,0.675,0.046,0.762,54.14,-5.25,94.67,3,4
18495.031,0.657,0.006,0.754,55.67,-4.79,96.62,3,4
18495.031,0.637,-0.018,0.748,60.37,-4.39,96.16,3,4
18495.046,0.619,-0.027,0.75,66.32,-5.19,94.12,3,4
18495.046,0.611,-0.037,0.747,71.5,-7.84,91.77,3,4
18495.062,0.608,-0.041,0.738,75.05,-11.02,89.82,3,4
18495.078,0.609,-0.042,0.735,77.73,-13.7,88.2,3,4
18495.093,0.605,-0.052,0.719,80.6,-15.44,87.47,3,4
18495.093,0.616,-0.062,0.694,81.94,-16.36,88.05,3,4
18495.109,0.622,-0.071,0.67,81.51,-15.44,89.3,3,4
18495.109,0.614,-0.092,0.651,80.11,-12.76,90.46,3,4
18495.125,0.611,-0.114,0.641,78.86,-9.31,91.37,3,4
18495.14,0.613,-0.131,0.63,78.83,-5.34,91.98,3,4
18495.14,0.616,-0.149,0.627,79.53,-1.34,92.75,3,4
18495.156,0.612,-0.156,0.636,80.69,3.2,93.63,3,4
18495.171,0.605,-0.162,0.65,81.48,7.26,95.46,3,4
18495.171,0.587,-0.166,0.665,80.48,10.5,98.39,3,4
18495.187,0.563,-0.174,0.674,76.85,11.9,102.21,3,4
18495.187,0.559,-0.187,0.68,70.25,11.72,105.93,3,4
18495.203,0.557,-0.206,0.691,63.63,12.45,108.28,3,4
18495.218,0.553,-0.235,0.695,59.05,14.34,109.65,3,4
18495.218,0.556,-0.254,0.707,56.73,16.72,110.69,3,4
18495.234,0.548,-0.273,0.716,56.58,19.65,110.72,3,4
18495.25,0.535,-0.295,0.72,58.05,22.68,109.2,3,4
18495.25,0.535,-0.31,0.733,60.27,25.21,106.72,3,4
18495.265,0.528,-0.318,0.76,63.6,28.17,104.16,3,4
18495.281,0.509,-0.331,0.779,66.65,29.85,102.42,3,4
18495.281,0.521,-0.329,0.813,67.93,28.69,101.63,3,4
18495.296,0.519,-0.329,0.842,69.06,28.08,100.16,3,4
18495.312,0.501,-0.334,0.854,69.06,26.92,98.03,3,4
18495.312,0.499,-0.343,0.863,67.51,24.11,94.97,3,4
18495.328,0.503,-0.363,0.872,68.42,21.45,90.58,3,4
18495.328,0.51,-0.376,0.876,72.88,20.45,85.27,3,4
18495.343,0.515,-0.384,0.879,79.01,21.79,80.97,3,4
18495.359,0.511,-0.376,0.873,84.11,25.79,77.79,3,4
18495.359,0.508,-0.378,0.87,85.6,30.37,74.83,3,4
18495.375,0.509,-0.373,0.89,84.32,35.46,72.76,3,4
18495.39,0.483,-0.363,0.915,84.63,40.77,69.86,3,4
18495.39,0.428,-0.355,0.924,86.95,42.88,65.89,3,4
18495.406,0.374,-0.336,0.949,89.24,39.09,61.43,3,4
18495.406,0.345,-0.302,0.973,90.09,29.85,56.64,3,4
18495.421,0.339,-0.283,0.976,87.74,16.91,50.78,3,4
18495.437,0.357,-0.28,0.958,86.52,4.18,44.4,3,4
18495.437,0.395,-0.276,0.931,88.96,-3.72,39.37,3,4
18495.453,0.422,-0.264,0.91,92.32,-5.16,35.98,3,4
18495.468,0.438,-0.224,0.882,95.19,1.22,29.94,3,4
18495.484,0.441,-0.203,0.86,97.14,6.74,26.86,3,4
18495.5,0.424,-0.183,0.847,99.46,13.18,23.04,3,4
18495.5,0.396,-0.159,0.855,102.76,18.83,18.65,3,4
18495.515,0.347,-0.138,0.861,108.43,22.77,13.95,3,4
18495.531,0.316,-0.124,0.859,114.84,22.19,11.26,3,4
18495.531,0.323,-0.09,0.855,118.41,19.75,10.71,3,4
18495.546,0.337,-0.054,0.843,118.75,19.26,10.56,3,4
18495.562,0.336,-0.035,0.827,116.98,20.57,9.98,3,4
18495.562,0.335,-0.021,0.806,113.07,23.22,9.22,3,4
18495.578,0.335,-0.005,0.798,108.77,28.11,8.24,3,4
18495.578,0.337,0.005,0.79,106.3,34.24,6.74,3,4
18495.593,0.335,0.009,0.78,106.78,41.6,4.64,3,4
18495.609,0.346,0.013,0.777,109.35,51.21,2.66,3,4
18495.609,0.352,0.028,0.787,112.58,63.26,1.74,3,4
18495.625,0.324,0.05,0.805,114.38,77.3,1.98,3,4
18495.64,0.192,0.14,0.899,110.9,98.39,6.1,3,4
18495.656,0.151,0.171,0.956,104.83,100.25,10.16,3,4
18495.671,0.131,0.196,0.995,97.17,97.05,14.47,3,4
18495.671,0.131,0.213,1.011,89.66,91.16,17.49,3,4
18495.687,0.14,0.227,1.014,83.13,85.09,18.62,3,4
18495.687,0.096,0.223,1.018,78.31,81.58,18.49,3,4
18495.703,0.103,0.219,1.023,75.23,77.43,17.85,3,4
18495.718,0.126,0.23,1.025,75.78,76.51,17.12,3,4
18495.718,0.13,0.243,1.021,76.97,80.36,16.54,3,4
18495.734,0.135,0.252,1.021,75.08,85.97,16.72,3,4
18495.75,0.134,0.251,1.019,71.17,92.68,17.3,3,4
18495.765,0.08,0.241,1.028,66.26,99.61,17.7,3,4
18495.765,0.024,0.233,1.049,60.76,103.4,18.56,3,4
18495.781,-0.016,0.21,1.067,55.97,103.67,19.93,3,4
18495.781,-0.052,0.198,1.075,51.73,99.22,21.09,3,4
18495.796,-0.066,0.179,1.071,47.94,90.58,21.18,3,4
18495.812,-0.014,0.144,1.048,44.56,73.89,15.99,3,4
18495.828,0.004,0.121,1.032,44.92,71.2,12.97,3,4
18495.843,0.027,0.108,1.024,45.17,70.68,10.25,3,4
18495.843,0.033,0.099,1.012,45.66,72.21,6.71,3,4
18495.859,0.007,0.091,1.009,46.75,74.34,1.89,3,4
18495.859,-0.02,0.085,1.01,49.26,74.5,-4.49,3,4
18495.875,-0.043,0.083,1.006,52.98,71.72,-12.15,3,4
18495.89,-0.059,0.09,1.004,57.95,65.95,-20.81,3,4
18495.89,-0.062,0.106,1.008,64.91,57.56,-29.66,3,4
18495.906,-0.055,0.126,1.006,73.43,48.62,-37.29,3,4
18495.921,-0.037,0.146,0.997,80.23,40.41,-42.66,3,4
18495.921,-0.028,0.174,0.977,86.12,34.33,-46.33,3,4
18495.937,-0.024,0.207,0.963,90.18,29.33,-49.17,3,4
18495.937,0.001,0.244,0.955,90.58,24.35,-52.64,3,4
18495.953,0.024,0.28,0.945,89.88,21.45,-57.68,3,4
18495.968,0.034,0.316,0.942,89.85,20.05,-68.48,3,4
18495.968,0.033,0.355,0.941,90.43,18.22,-72.21,3,4
18495.984,0.028,0.388,0.941,90.95,14.13,-73.95,3,4
18496.0,0.026,0.415,0.939,90.73,8.61,-74.01,3,4
18496.0,0.041,0.453,0.919,90.15,3.48,-73.55,3,4
18496.015,0.052,0.463,0.904,89.39,-0.64,-73.31,3,4
18496.031,0.074,0.474,0.889,87.77,-3.51,-73.15,3,4
18496.031,0.089,0.492,0.873,86.64,-4.67,-73.21,3,4
18496.046,0.102,0.508,0.842,86.55,-4.43,-73.64,3,4
18496.046,0.105,0.528,0.837,87.28,-3.94,-73.85,3,4
18496.062,0.112,0.562,0.843,87.13,-4.33,-73.95,3,4
18496.078,0.105,0.592,0.839,87.77,-4.73,-74.98,3,4
18496.078,0.087,0.623,0.83,89.14,-4.3,-75.72,3,4
18496.093,0.075,0.666,0.829,89.54,-4.0,-75.9,3,4
18496.109,0.059,0.709,0.834,89.11,-4.27,-75.41,3,4
18496.109,0.035,0.736,0.833,87.89,-4.43,-73.34,3,4
18496.125,0.021,0.769,0.83,84.96,-4.91,-69.61,3,4
18496.14,0.019,0.786,0.818,80.48,-5.49,-65.03,3,4
18496.14,0.017,0.793,0.809,74.77,-4.09,-59.76,3,4
18496.156,0.002,0.808,0.811,67.54,-1.01,-53.93,3,4
18496.171,-0.016,0.804,0.819,59.63,1.4,-47.61,3,4
18496.171,-0.018,0.792,0.82,51.06,2.87,-40.1,3,4
18496.187,-0.018,0.793,0.818,41.32,4.3,-32.75,3,4
18496.187,-0.026,0.77,0.814,31.04,5.22,-26.83,3,4
18496.203,-0.036,0.738,0.819,20.75,4.36,-21.42,3,4
18496.218,-0.043,0.709,0.827,12.45,1.8,-15.87,3,4
18496.218,-0.038,0.667,0.829,8.0,-2.2,-11.14,3,4
18496.234,-0.025,0.636,0.831,6.1,-6.32,-7.35,3,4
18496.25,-0.017,0.608,0.824,5.4,-9.61,-4.91,3,4
18496.25,-0.006,0.569,0.817,5.16,-12.6,-4.27,3,4
18496.265,0.0,0.534,0.81,6.32,-14.98,-4.39,3,4
18496.281,-0.008,0.496,0.789,9.67,-16.42,-5.37,3,4
18496.281,-0.022,0.467,0.756,13.92,-17.73,-7.54,3,4
18496.296,-0.037,0.444,0.728,17.82,-20.57,-11.51,3,4
18496.296,-0.049,0.44,0.712,20.94,-25.85,-17.67,3,4
18496.312,-0.052,0.464,0.688,23.87,-31.19,-24.69,3,4
18496.328,-0.049,0.515,0.666,25.45,-35.1,-31.4,3,4
18496.343,-0.044,0.591,0.653,25.24,-37.08,-36.62,3,4
18496.343,-0.043,0.672,0.648,23.32,-37.23,-39.34,3,4
18496.359,-0.049,0.743,0.648,20.87,-35.92,-38.48,3,4
18496.359,-0.068,0.804,0.658,18.07,-34.42,-33.14,3,4
18496.375,-0.09,0.853,0.663,13.7,-34.36,-24.41,3,4
18496.39,-0.11,0.881,0.655,7.97,-35.86,-14.71,3,4
18496.39,-0.124,0.902,0.649,-0.73,-38.21,-5.07,3,4
18496.406,-0.125,0.91,0.64,-12.7,-41.26,3.3,3,4
18496.421,-0.121,0.913,0.635,-25.57,-43.95,9.98,3,4
18496.421,-0.132,0.902,0.636,-36.29,-45.26,14.89,3,4
18496.437,-0.151,0.876,0.652,-43.09,-45.63,18.68,3,4
18496.437,-0.17,0.847,0.668,-45.01,-44.74,21.33,3,4
18496.453,-0.19,0.799,0.677,-40.41,-44.4,22.46,3,4
18496.468,-0.208,0.768,0.69,-31.5,-46.69,22.34,3,4
18496.484,-0.242,0.759,0.645,-8.39,-59.24,18.56,3,4
18496.5,-0.216,0.797,0.599,-1.56,-66.38,17.12,3,4
18496.5,-0.187,0.829,0.558,1.62,-69.37,15.38,3,4
18496.515,-0.179,0.859,0.542,3.69,-67.75,14.71,3,4
18496.515,-0.168,0.878,0.532,4.33,-63.84,17.88,3,4
18496.531,-0.141,0.891,0.519,0.95,-57.99,23.96,3,4
18496.546,-0.124,0.899,0.517,-5.89,-50.45,30.85,3,4
18496.562,-0.105,0.88,0.533,-15.2,-42.85,38.27,3,4
18496.562,-0.087,0.858,0.56,-23.74,-35.86,45.11,3,4
18496.578,-0.077,0.826,0.584,-28.69,-29.94,51.0,3,4
18496.578,-0.07,0.804,0.597,-30.49,-24.99,55.94,3,4
18496.593,-0.065,0.781,0.611,-30.98,-20.97,59.66,3,4
18496.609,-0.055,0.753,0.635,-30.52,-16.66,61.95,3,4
18496.609,-0.049,0.73,0.66,-29.54,-12.36,62.87,3,4
18496.625,-0.037,0.709,0.677,-28.99,-9.31,62.59,3,4
18496.64,-0.017,0.698,0.692,-29.39,-6.68,61.56,3,4
18496.656,0.007,0.669,0.734,-30.61,-2.23,56.43,3,4
18496.671,0.021,0.656,0.762,-30.37,-1.46,53.59,3,4
18496.671,0.044,0.65,0.78,-29.18,-1.86,50.84,3,4
18496.687,0.067,0.647,0.791,-27.16,-2.87,47.18,3,4
18496.687,0.086,0.636,0.798,-24.14,-3.81,42.05,3,4
18496.703,0.102,0.635,0.799,-20.48,-4.27,36.32,3,4
18496.718,0.115,0.632,0.805,-17.43,-4.09,30.52,3,4
18496.718,0.121,0.634,0.82,-15.38,-3.66,24.11,3,4
18496.734,0.128,0.645,0.842,-14.65,-3.72,17.46,3,4
18496.75,0.137,0.656,0.864,-14.25,-4.27,10.99,3,4
18496.75,0.148,0.658,0.882,-12.21,-5.4,5.49,3,4
18496.765,0.16,0.657,0.889,-7.14,-6.56,1.13,3,4
18496.781,0.169,0.664,0.884,-0.55,-6.96,-2.84,3,4
18496.781,0.16,0.668,0.892,5.46,-6.96,-5.86,3,4
18496.796,0.143,0.682,0.902,8.73,-7.57,-7.9,3,4
18496.796,0.126,0.692,0.914,10.32,-9.58,-8.55,3,4
18496.828,0.121,0.715,0.896,7.75,-18.89,-7.45,3,4
18496.828,0.14,0.717,0.864,3.48,-23.04,-7.17,3,4
18496.843,0.156,0.702,0.829,-0.03,-24.96,-7.08,3,4
18496.859,0.175,0.681,0.792,-2.17,-24.57,-7.14,3,4
18496.859,0.187,0.659,0.757,-2.11,-21.49,-7.84,3,4
18496.875,0.181,0.643,0.736,0.0,-16.05,-8.64,3,4
18496.89,0.159,0.636,0.742,2.66,-10.01,-9.43,3,4
18496.89,0.128,0.644,0.768,3.69,-5.86,-9.86,3,4
18496.906,0.1,0.637,0.781,4.03,-5.22,-10.19,3,4
18496.921,0.081,0.629,0.783,3.91,-6.65,-10.28,3,4
18496.921,0.083,0.624,0.782,3.6,-8.97,-10.68,3,4
18496.937,0.098,0.615,0.764,4.39,-10.59,-12.09,3,4
18496.937,0.107,0.605,0.737,6.01,-10.28,-14.28,3,4
18496.953,0.109,0.594,0.712,10.44,-2.41,-20.11,3,4
18496.968,0.1,0.592,0.697,11.44,3.75,-22.58,3,4
18496.968,0.077,0.602,0.695,10.86,9.03,-24.2,3,4
18497.0,0.007,0.644,0.773,10.65,9.55,-20.69,3,4
18497.0,0.028,0.66,0.761,10.65,7.48,-17.21,3,4
18497.015,0.053,0.672,0.748,10.1,6.35,-13.76,3,4
18497.015,0.07,0.686,0.74,8.36,6.35,-10.5,3,4
18497.031,0.082,0.699,0.742,5.13,6.9,-7.11,3,4
18497.046,0.097,0.696,0.741,1.53,7.6,-4.03,3,4
18497.062,0.105,0.682,0.749,-1.28,8.36,-1.68,3,4
18497.062,0.107,0.665,0.751,-1.95,8.55,-0.27,3,4
18497.078,0.109,0.647,0.743,-0.34,8.67,-0.24,3,4
18497.078,0.11,0.631,0.735,2.53,8.97,-1.19,3,4
18497.093,0.106,0.623,0.734,5.46,9.46,-2.72,3,4
18497.109,0.083,0.637,0.753,6.26,9.19,-3.97,3,4
18497.109,0.08,0.661,0.778,2.99,5.77,-3.66,3,4
18497.125,0.085,0.664,0.791,-0.76,1.22,-2.32,3,4
18497.14,0.097,0.669,0.794,-4.3,-2.62,-0.18,3,4
18497.14,0.108,0.666,0.784,-6.71,-4.82,1.68,3,4
18497.156,0.104,0.662,0.77,-11.2,-6.68,3.51,3,4
18497.171,0.102,0.653,0.764,-10.86,-7.05,4.49,3,4
18497.187,0.102,0.648,0.753,-8.7,-6.93,5.74,3,4
18497.187,0.108,0.642,0.743,-6.38,-6.38,6.47,3,4
18497.203,0.105,0.64,0.736,-4.67,-5.25,6.01,3,4
18497.218,0.094,0.636,0.737,-3.36,-4.61,5.62,3,4
18497.218,0.094,0.644,0.746,-2.84,-4.73,6.2,3,4
18497.234,0.089,0.652,0.749,-2.2,-4.97,7.39,3,4
18497.25,0.097,0.654,0.745,-3.14,-5.62,8.64,3,4
18497.25,0.108,0.658,0.749,-6.78,-6.26,9.13,3,4
18497.265,0.127,0.639,0.749,-9.74,-6.62,8.79,3,4
18497.281,0.135,0.626,0.75,-10.44,-5.68,7.45,3,4
18497.281,0.124,0.632,0.764,-9.19,-4.21,5.89,3,4
18497.296,0.112,0.637,0.773,-7.17,-4.39,4.88,3,4
18497.296,0.119,0.64,0.765,-5.95,-5.8,4.39,3,4
18497.312,0.121,0.641,0.751,-5.52,-6.59,3.48,3,4
18497.328,0.124,0.636,0.742,-5.1,-6.44,2.66,3,4
18497.328,0.121,0.644,0.742,-4.97,-5.55,2.14,3,4
18497.343,0.127,0.647,0.747,-4.91,-5.04,2.01,3,4
18497.359,0.128,0.641,0.748,-3.97,-4.3,2.41,3,4
18497.375,0.12,0.642,0.755,-4.7,-3.88,2.38,3,4
18497.375,0.126,0.634,0.765,-6.93,-4.7,1.74,3,4
18497.39,0.122,0.619,0.782,-9.34,-6.07,-0.06,3,4
18497.39,0.12,0.606,0.799,-10.9,-8.33,-1.89,3,4
18497.406,0.126,0.595,0.792,-9.0,-10.62,-2.75,3,4
18497.421,0.141,0.598,0.774,-5.83,-11.23,-3.27,3,4
18497.421,0.145,0.613,0.763,-3.88,-9.92,-4.85,3,4
18497.437,0.129,0.614,0.759,-3.23,-8.42,-6.1,3,4
18497.437,0.11,0.62,0.763,-4.12,-7.63,-6.29,3,4
18497.453,0.097,0.634,0.779,-7.29,-8.82,-5.92,3,4
18497.468,0.105,0.636,0.795,-11.93,-11.72,-5.98,3,4
18497.468,0.106,0.616,0.797,-13.7,-14.22,-6.38,3,4
18497.484,0.117,0.604,0.782,-13.46,-15.69,-6.01,3,4
18497.5,0.136,0.594,0.763,-11.17,-15.32,-5.68,3,4
18497.5,0.141,0.584,0.743,-7.84,-12.79,-6.41,3,4
18497.515,0.142,0.581,0.731,-5.04,-9.16,-7.08,3,4
18497.531,0.143,0.584,0.731,-2.99,-5.34,-7.63,3,4
18497.531,0.135,0.582,0.74,-1.62,-1.92,-8.91,3,4
18497.546,0.119,0.592,0.751,0.73,0.58,-9.8,3,4
18497.562,0.105,0.607,0.753,2.84,0.98,-9.64,3,4
18497.562,0.11,0.621,0.751,2.17,0.12,-8.73,3,4
18497.578,0.115,0.629,0.758,0.03,-0.82,-8.06,3,4
18497.578,0.115,0.626,0.76,-1.31,-1.19,-6.93,3,4
18497.593,0.113,0.633,0.768,-2.53,-1.59,-4.3,3,4
18497.609,0.123,0.643,0.777,-5.46,-2.62,-1.28,3,4
18497.609,0.136,0.626,0.775,-8.73,-3.85,0.27,3,4
18497.625,0.141,0.606,0.777,-10.68,-4.55,0.31,3,4
18497.64,0.149,0.586,0.772,-10.62,-4.97,-0.58,3,4
18497.64,0.158,0.573,0.756,-8.15,-4.36,-2.41,3,4
18497.656,0.164,0.568,0.742,-4.91,-2.38,-4.64,3,4
18497.656,0.168,0.569,0.732,-1.95,0.43,-6.99,3,4
18497.671,0.159,0.582,0.739,0.03,3.66,-9.4,3,4
18497.687,0.139,0.599,0.76,1.53,5.89,-10.83,3,4
18497.703,0.124,0.619,0.789,2.17,6.13,-10.59,3,4
18497.703,0.111,0.643,0.818,1.68,4.76,-8.7,3,4
18497.718,0.104,0.666,0.83,-0.34,1.89,-5.46,3,4
18497.718,0.101,0.661,0.824,-2.72,-1.43,-2.32,3,4
18497.734,0.103,0.634,0.796,-3.11,-4.0,-0.15,3,4
18497.75,0.115,0.612,0.772,-2.81,-5.37,1.25,3,4
18497.75,0.118,0.607,0.755,-3.27,-5.01,1.28,3,4
18497.765,0.115,0.602,0.752,-4.12,-4.21,0.82,3,4
18497.781,0.111,0.591,0.755,-4.52,-3.17,0.4,3,4
18497.781,0.114,0.587,0.763,-4.85,-1.98,0.61,3,4
18497.796,0.111,0.588,0.775,-4.7,-0.95,1.01,3,4
18497.796,0.104,0.591,0.787,-4.49,-0.61,1.5,3,4
18497.812,0.103,0.588,0.792,-4.55,-1.25,2.04,3,4
18497.828,0.109,0.582,0.789,-4.55,-2.26,2.69,3,4
18497.828,0.119,0.574,0.78,-3.54,-2.93,3.02,3,4
18497.843,0.128,0.567,0.771,-2.69,-2.72,2.75,3,4
18497.859,0.131,0.573,0.775,-3.3,-2.2,1.86,3,4
18497.859,0.134,0.566,0.784,-3.2,-2.08,0.89,3,4
18497.875,0.135,0.574,0.785,-1.77,-1.65,-0.34,3,4
18497.89,0.14,0.591,0.779,0.27,-1.04,-1.59,3,4
18497.89,0.136,0.598,0.773,2.5,-0.34,-2.56,3,4
18497.906,0.135,0.619,0.765,3.36,0.06,-2.84,3,4
18497.921,0.136,0.633,0.762,3.23,0.55,-2.66,3,4
18497.921,0.13,0.64,0.762,2.29,1.04,-2.01,3,4
18497.937,0.122,0.635,0.763,-0.43,0.49,1.28,3,4
18497.937,0.116,0.624,0.761,-3.08,-0.24,2.38,3,4
18497.953,0.118,0.609,0.764,-5.16,-1.01,2.38,3,4
18497.968,0.112,0.588,0.776,-5.86,-1.95,2.41,3,4
18497.968,0.116,0.565,0.784,-5.31,-2.78,2.14,3,4
18497.984,0.118,0.565,0.784,-4.64,-3.23,1.4,3,4
18498.0,0.113,0.563,0.783,-3.88,-3.63,0.52,3,4
18498.0,0.115,0.569,0.785,-3.42,-4.33,0.15,3,4
18498.031,0.111,0.591,0.795,-2.47,-5.07,0.58,3,4
18498.031,0.123,0.595,0.799,-2.38,-6.13,1.31,3,4
18498.046,0.135,0.598,0.799,-0.34,-6.68,2.26,3,4
18498.046,0.153,0.616,0.8,2.29,-6.87,3.42,3,4
18498.062,0.155,0.63,0.803,4.24,-7.02,3.88,3,4
18498.078,0.152,0.627,0.798,5.86,-7.78,4.06,3,4
18498.078,0.15,0.629,0.79,6.07,-9.31,4.49,3,4
18498.093,0.147,0.633,0.781,5.07,-10.93,5.25,3,4
18498.109,0.143,0.631,0.772,3.23,-11.87,6.23,3,4
18498.109,0.124,0.617,0.754,0.82,-11.93,6.47,3,4
18498.125,0.108,0.587,0.734,-1.34,-11.26,5.55,3,4
18498.14,0.095,0.574,0.737,-2.96,-10.44,5.01,3,4
18498.14,0.094,0.583,0.746,-4.24,-9.58,5.43,3,4
18498.156,0.105,0.592,0.756,-5.98,-8.7,7.05,3,4
18498.156,0.116,0.596,0.786,-8.06,-7.69,8.94,3,4
18498.171,0.123,0.598,0.825,-8.55,-7.35,11.6,3,4
18498.203,0.151,0.585,0.852,-4.27,-10.62,17.06,3,4
18498.203,0.166,0.568,0.839,-0.73,-12.48,16.11,3,4
18498.218,0.162,0.558,0.818,3.48,-13.79,13.55,3,4
18498.218,0.151,0.561,0.806,6.44,-14.98,11.02,3,4
18498.234,0.139,0.621,0.762,9.28,-16.08,11.17,3,4
18498.25,0.181,0.594,0.699,12.24,-14.59,13.95,3,4
18498.25,0.18,0.615,0.733,0.15,-13.67,10.59,3,4
18498.265,0.199,0.613,0.75,-5.04,-13.58,10.56,3,4
18498.281,0.22,0.57,0.735,-3.85,-12.57,11.38,3,4
18498.281,0.241,0.588,0.73,-4.76,-9.7,11.54,3,4
18498.296,0.258,0.582,0.718,-3.94,-5.46,10.59,3,4
18498.296,0.249,0.567,0.738,-3.72,-1.68,8.61,3,4
18498.312,0.232,0.584,0.762,-6.16,-0.09,6.96,3,4
18498.328,0.221,0.575,0.782,-9.55,-0.76,5.25,3,4
18498.328,0.215,0.55,0.795,-12.15,-2.66,2.01,3,4
18498.343,0.214,0.529,0.781,-11.57,-3.81,-2.53,3,4
18498.359,0.204,0.522,0.753,-7.17,-0.15,-11.17,3,4
18498.375,0.195,0.537,0.759,-5.98,3.33,-14.07,3,4
18498.39,0.174,0.548,0.778,-4.61,6.32,-15.87,3,4
18498.39,0.173,0.564,0.801,-2.93,7.11,-15.75,3,4
18498.406,0.195,0.569,0.798,-0.76,7.45,-14.59,3,4
18498.421,0.187,0.574,0.796,1.92,9.16,-14.1,3,4
18498.421,0.154,0.586,0.815,4.36,9.77,-14.13,3,4
18498.437,0.129,0.598,0.841,5.13,6.93,-12.91,3,4
18498.437,0.114,0.605,0.844,3.91,1.46,-11.11,3,4
18498.453,0.121,0.596,0.826,1.8,-4.67,-9.77,3,4
18498.468,0.142,0.577,0.797,-0.67,-8.85,-9.89,3,4
18498.484,0.16,0.563,0.761,-2.78,-10.28,-12.05,3,4
18498.484,0.167,0.553,0.727,-4.03,-9.09,-14.71,3,4
18498.5,0.182,0.559,0.72,-5.65,-6.62,-16.63,3,4
18498.5,0.2,0.57,0.702,-6.84,-2.87,-18.31,3,4
18498.515,0.22,0.567,0.683,-9.03,2.04,-19.99,3,4
18498.531,0.272,0.55,0.636,-19.71,16.21,-26.86,3,4
18498.546,0.29,0.533,0.616,-27.71,26.46,-33.69,3,4
18498.562,0.269,0.508,0.641,-35.31,38.94,-42.05,3,4
18498.562,0.176,0.512,0.741,-39.92,49.23,-49.47,3,4
18498.578,0.055,0.595,0.864,-41.87,51.82,-51.0,3,4
18498.578,0.019,0.694,0.968,-45.41,44.16,-47.61,3,4
18498.593,-0.129,0.716,1.079,-37.66,32.2,-41.96,3,4
18498.609,-0.23,0.87,1.102,-33.33,11.38,-24.45,3,4
18498.625,0.011,0.653,0.944,-23.19,-11.51,-3.42,3,4
18498.625,0.089,0.461,0.778,-17.06,-16.02,0.79,3,4
18498.64,0.099,0.46,0.765,-18.28,-10.28,1.77,3,4
18498.64,0.09,0.453,0.808,-14.16,-4.52,4.06,3,4
18498.656,0.07,0.45,0.85,-10.56,-1.25,6.53,3,4
18498.671,0.07,0.463,0.9,-7.17,-3.11,7.84,3,4
18498.671,0.071,0.491,0.929,0.34,-6.71,8.27,3,4
18498.687,0.077,0.51,0.94,9.06,-10.93,8.27,3,4
18498.703,0.053,0.526,0.92,22.52,-21.03,7.81,3,4
18498.718,0.068,0.547,0.885,26.73,-25.79,9.74,3,4
18498.718,0.058,0.56,0.87,27.59,-28.72,10.41,3,4
18498.734,0.053,0.611,0.826,26.49,-32.26,13.34,3,4
18498.75,0.132,0.545,0.752,27.31,-32.59,17.79,3,4
18498.75,0.094,0.532,0.752,25.39,-29.42,16.94,3,4
18498.765,0.125,0.604,0.767,15.08,-29.18,17.55,3,4
18498.765,0.171,0.57,0.786,7.75,-28.66,16.39,3,4
18498.781,0.179,0.559,0.78,4.43,-28.23,14.28,3,4
18498.796,0.215,0.531,0.72,12.6,-23.44,16.21,3,4
18498.812,0.221,0.546,0.695,13.52,-15.96,14.68,3,4
18498.812,0.221,0.565,0.708,8.67,-9.83,11.69,3,4
18498.828,0.235,0.538,0.712,4.36,-5.07,8.76,3,4
18498.828,0.24,0.522,0.708,0.89,-0.09,4.36,3,4
18498.843,0.243,0.518,0.718,-2.23,5.31,-0.89,3,4
18498.859,0.244,0.511,0.728,-4.15,10.41,-6.53,3,4
18498.875,0.251,0.49,0.714,-5.86,21.76,-19.23,3,4
18498.89,0.255,0.485,0.717,-6.9,28.87,-26.46,3,4
18498.89,0.179,0.489,0.755,-7.6,36.44,-34.33,3,4
18498.906,0.06,0.62,0.895,-18.4,36.07,-39.0,3,4
18498.906,0.115,0.647,0.926,-19.04,28.29,-36.41,3,4
18498.921,-0.097,0.629,0.94,-13.58,10.32,-17.61,3,4
18498.937,-0.088,0.834,0.984,-5.89,-3.42,-1.53,3,4
18498.937,0.027,0.671,0.832,-7.35,-4.33,6.84,3,4
18498.953,0.091,0.562,0.784,-15.08,-3.23,13.64,3,4
18498.968,0.092,0.563,0.83,-15.78,-2.26,18.19,3,4
18498.968,0.083,0.562,0.883,-14.56,-4.46,21.36,3,4
18498.984,0.1,0.534,0.923,-10.93,-10.01,22.28,3,4
18499.0,0.116,0.512,0.928,-4.55,-16.27,20.51,3,4
18499.015,0.122,0.501,0.906,1.68,-21.88,16.91,3,4
18499.015,0.122,0.484,0.866,5.89,-25.88,12.57,3,4
18499.031,0.12,0.468,0.82,8.55,-27.89,8.12,3,4
18499.046,0.209,0.487,0.737,10.44,-24.26,2.5,3,4
18499.062,0.166,0.478,0.714,15.66,-14.71,-0.31,3,4
18499.062,0.148,0.579,0.771,9.13,-8.12,-1.22,3,4
18499.078,0.144,0.596,0.794,9.03,-5.8,0.49,3,4
18499.078,0.138,0.607,0.809,7.45,-5.22,2.47,3,4
18499.093,0.133,0.613,0.805,5.01,-5.37,4.27,3,4
18499.109,0.129,0.576,0.79,3.97,-5.71,6.78,3,4
18499.109,0.134,0.559,0.803,0.03,-6.65,8.48,3,4
18499.125,0.167,0.569,0.817,-4.73,-8.42,8.61,3,4
18499.14,0.171,0.543,0.817,-4.15,-7.97,8.61,3,4
18499.14,0.162,0.513,0.808,-2.44,-7.66,8.7,3,4
18499.156,0.184,0.513,0.806,-0.82,-8.51,8.61,3,4
18499.171,0.204,0.544,0.805,-0.34,-8.03,7.11,3,4
18499.171,0.208,0.542,0.793,-0.85,-7.23,4.18,3,4
18499.187,0.21,0.519,0.762,-0.09,-5.86,2.04,3,4
18499.187,0.223,0.513,0.744,1.43,-3.11,0.27,3,4
18499.218,0.236,0.517,0.735,0.52,6.04,-6.84,3,4
18499.218,0.234,0.486,0.719,0.7,12.33,-11.32,3,4
18499.234,0.242,0.476,0.723,1.43,19.87,-15.5,3,4
18499.25,0.262,0.482,0.735,2.5,28.63,-20.87,3,4
18499.25,0.243,0.458,0.729,4.09,38.88,-28.17,3,4
18499.265,0.068,0.493,0.841,0.43,46.63,-36.41,3,4
18499.265,0.028,0.682,1.0,-16.79,38.61,-39.09,3,4
18499.281,-0.049,0.59,0.992,-3.91,22.92,-36.04,3,4
18499.296,-0.108,0.733,0.982,-4.24,7.57,-27.47,3,4
18499.312,0.045,0.69,0.852,-0.46,-6.87,-12.27,3,4
18499.312,0.072,0.557,0.712,4.43,-7.02,-4.7,3,4
18499.328,0.098,0.555,0.711,-3.69,-2.29,0.27,3,4
18499.343,0.108,0.568,0.769,-9.49,1.46,3.48,3,4
18499.343,0.106,0.574,0.806,-12.12,2.99,5.62,3,4
18499.359,0.114,0.57,0.842,-12.54,2.38,6.41,3,4
18499.359,0.109,0.561,0.857,-9.49,1.07,6.74,3,4
18499.39,0.099,0.52,0.894,-0.49,-5.31,6.5,3,4
18499.39,0.099,0.488,0.875,4.67,-9.37,5.74,3,4
18499.406,0.113,0.48,0.857,8.21,-12.51,4.3,3,4
18499.421,0.122,0.502,0.835,12.21,-13.52,2.84,3,4
18499.421,0.123,0.527,0.807,14.77,-12.51,1.89,3,4
18499.437,0.119,0.544,0.785,14.56,-10.74,0.98,3,4
18499.437,0.122,0.558,0.775,12.12,-9.25,-0.03,3,4
18499.453,0.118,0.575,0.781,8.45,-7.84,-0.4,3,4
18499.468,0.102,0.602,0.806,5.1,-7.23,0.95,3,4
18499.468,0.07,0.636,0.849,2.96,-8.58,4.67,3,4
18499.484,0.119,0.65,0.836,2.26,-12.05,12.05,3,4
18499.5,0.164,0.52,0.741,4.15,-13.31,13.76,3,4
18499.5,0.134,0.55,0.779,-0.67,-9.58,11.75,3,4
18499.515,0.175,0.565,0.795,-2.62,-8.55,12.85,3,4
18499.531,0.176,0.526,0.761,-1.04,-5.83,11.26,3,4
18499.531,0.169,0.522,0.768,-2.69,-2.35,8.51,3,4
18499.546,0.155,0.539,0.81,-3.54,-0.73,5.4,3,4
18499.562,0.142,0.546,0.826,-3.2,-1.74,3.02,3,4
18499.562,0.14,0.561,0.836,-3.75,-3.72,1.31,3,4
18499.578,0.14,0.555,0.828,-2.35,-5.46,0.76,3,4
18499.578,0.142,0.555,0.802,-1.37,-6.07,1.28,3,4
18499.593,0.154,0.533,0.791,-3.02,-5.62,0.89,3,4
18499.609,0.161,0.541,0.79,-6.1,-4.91,-0.98,3,4
18499.609,0.169,0.541,0.766,-2.04,-1.83,0.58,3,4
18499.625,0.15,0.555,0.787,-2.62,1.65,0.76,3,4
18499.64,0.127,0.581,0.838,-5.92,1.95,0.27,3,4
18499.64,0.116,0.565,0.854,-5.25,-0.55,1.04,3,4
18499.656,0.121,0.559,0.842,-3.81,-3.57,2.69,3,4
18499.656,0.138,0.55,0.816,-2.75,-5.22,4.49,3,4
18499.671,0.154,0.535,0.791,-2.69,-4.97,4.94,3,4
18499.687,0.161,0.526,0.78,-2.81,-3.33,4.49,3,4
18499.687,0.167,0.524,0.777,-2.93,-1.28,3.72,3,4
18499.703,0.17,0.536,0.786,-3.97,0.82,2.17,3,4
18499.718,0.161,0.555,0.814,-5.62,2.2,0.03,3,4
18499.718,0.14,0.557,0.84,-6.2,2.04,-1.31,3,4
18499.734,0.119,0.556,0.853,-5.01,0.18,-0.55,3,4
18499.75,0.108,0.563,0.869,-4.3,-3.42,1.56,3,4
18499.75,0.124,0.574,0.872,-4.73,-8.0,3.81,3,4
18499.765,0.143,0.57,0.845,-4.36,-11.32,5.77,3,4
18499.781,0.154,0.54,0.802,-3.45,-12.05,7.29,3,4
18499.781,0.167,0.527,0.772,-3.6,-10.93,8.27,3,4
18499.796,0.18,0.518,0.755,-4.46,-8.33,7.84,3,4
18499.796,0.195,0.512,0.753,-6.53,-4.85,6.13,3,4
18499.812,0.196,0.504,0.762,-8.82,-0.73,3.08,3,4
18499.828,0.192,0.502,0.788,-9.67,2.75,0.03,3,4
18499.828,0.177,0.507,0.822,-8.82,4.88,-2.72,3,4
18499.843,0.16,0.509,0.84,-7.69,4.88,-5.34,3,4
18499.859,0.15,0.506,0.841,-7.51,3.45,-7.81,3,4
18499.859,0.15,0.504,0.83,-6.44,1.68,-10.32,3,4
18499.875,0.158,0.526,0.826,-6.99,0.49,-12.12,3,4
18499.89,0.157,0.554,0.822,-8.85,0.61,-12.88,3,4
18499.89,0.163,0.54,0.798,-9.19,1.71,-12.05,3,4
18499.906,0.183,0.527,0.775,-11.63,8.42,-10.53,3,4
18499.921,0.203,0.531,0.777,-14.59,13.55,-11.66,3,4
18499.921,0.22,0.531,0.792,-16.48,18.49,-13.67,3,4
18499.937,0.2,0.531,0.788,-16.36,23.16,-15.9,3,4
18499.953,0.045,0.477,0.835,-17.18,28.81,-21.33,3,4
18499.953,-0.019,0.683,1.027,-26.76,21.45,-18.04,3,4
18499.968,0.024,0.593,1.008,-16.27,4.21,-10.47,3,4
18499.968,0.025,0.529,0.907,-8.67,-5.4,-5.37,3,4
18499.984,0.08,0.501,0.871,-5.31,-9.61,0.03,3,4
18500.0,0.083,0.457,0.863,0.52,-9.7,1.43,3,4
18500.015,0.067,0.467,0.863,3.75,-10.22,2.53,3,4
18500.015,0.074,0.487,0.897,5.71,-13.06,4.61,3,4
18500.031,0.106,0.492,0.895,8.64,-16.39,6.29,3,4
18500.031,0.124,0.512,0.883,10.1,-18.31,6.32,3,4
18500.046,0.125,0.528,0.876,11.17,-19.01,6.23,3,4
18500.062,0.086,0.549,0.893,11.66,-20.39,7.39,3,4
18500.062,0.154,0.565,0.857,11.41,-23.1,12.45,3,4
18500.078,0.189,0.46,0.793,14.44,-20.81,11.84,3,4
18500.093,0.135,0.535,0.829,12.6,-14.98,9.09,3,4
18500.093,0.162,0.566,0.86,11.29,-13.82,11.23,3,4
18500.109,0.179,0.549,0.86,9.16,-13.28,11.51,3,4
18500.109,0.209,0.567,0.881,0.06,-13.52,9.46,3,4
18500.125,0.23,0.549,0.836,-0.4,-11.23,8.39,3,4
18500.14,0.227,0.536,0.816,1.22,-5.16,7.23,3,4
18500.14,0.215,0.544,0.812,0.31,1.19,5.01,3,4
18500.156,0.206,0.561,0.816,-2.44,6.87,3.66,3,4
18500.171,0.199,0.565,0.827,-5.98,11.93,3.45,3,4
18500.171,0.218,0.592,0.85,-11.69,16.05,5.8,3,4
18500.187,0.214,0.637,0.903,-28.02,20.39,11.81,3,4
18500.203,0.18,0.548,0.922,-39.46,21.64,14.04,3,4
18500.203,0.199,0.483,0.936,-40.01,18.95,18.16,3,4
18500.218,0.175,0.474,0.937,-31.16,16.85,20.17,3,4
18500.218,0.157,0.456,0.907,-19.59,12.67,21.09,3,4
18500.234,0.161,0.451,0.853,-15.99,6.32,21.79,3,4
18500.25,0.183,0.418,0.77,-18.62,1.1,20.97,3,4
18500.265,0.206,0.358,0.685,-22.92,0.73,19.32,3,4
18500.265,0.209,0.307,0.616,-25.33,6.93,17.88,3,4
18500.281,0.197,0.296,0.588,-25.12,17.58,16.6,3,4
18500.281,0.158,0.309,0.584,-25.82,29.82,15.02,3,4
18500.296,0.101,0.334,0.634,-32.41,38.79,13.09,3,4
18500.312,0.033,0.34,0.723,-38.97,41.38,11.08,3,4
18500.312,0.007,0.365,0.805,-38.79,38.85,12.45,3,4
18500.328,0.012,0.425,0.871,-36.77,33.51,15.69,3,4
18500.343,0.031,0.479,0.899,-36.62,26.49,17.76,3,4
18500.343,0.069,0.499,0.9,-40.35,19.04,19.59,3,4
18500.359,0.106,0.49,0.903,-45.35,12.94,19.87,3,4
18500.359,0.122,0.49,0.906,-45.01,9.83,20.48,3,4
18500.375,0.14,0.519,0.91,-42.63,8.85,23.41,3,4
18500.39,0.152,0.55,0.926,-44.43,8.73,27.25,3,4
18500.39,0.135,0.552,0.958,-47.85,8.42,30.37,3,4
18500.406,0.098,0.522,1.001,-46.21,8.27,34.06,3,4
18500.421,0.11,0.532,1.062,-42.88,7.57,39.12,3,4
18500.421,0.133,0.585,1.136,-39.92,6.9,41.44,3,4
18500.437,0.143,0.628,1.21,-35.89,5.49,40.77,3,4
18500.437,0.15,0.648,1.266,-32.44,1.98,38.91,3,4
18500.453,0.182,0.661,1.329,-28.32,-2.93,35.95,3,4
18500.468,0.236,0.679,1.392,-18.22,-7.84,30.92,3,4
18500.484,0.26,0.735,1.442,-2.9,-12.05,23.65,3,4
18500.484,0.242,0.803,1.466,13.15,-17.4,17.43,3,4
18500.5,0.231,0.853,1.465,23.22,-25.18,16.08,3,4
18500.5,0.252,0.905,1.473,25.91,-32.87,20.2,3,4
18500.515,0.296,0.942,1.469,26.0,-38.0,27.59,3,4
18500.531,0.338,0.946,1.437,23.93,-39.49,38.54,3,4
18500.531,0.372,0.94,1.427,18.52,-36.59,52.64,3,4
18500.546,0.389,0.922,1.438,12.85,-31.8,67.02,3,4
18500.562,0.39,0.876,1.445,8.42,-27.74,78.8,3,4
18500.562,0.404,0.812,1.461,4.73,-25.45,88.02,3,4
18500.578,0.455,0.76,1.446,3.75,-25.85,95.22,3,4
18500.578,0.52,0.732,1.398,5.43,-28.99,101.11,3,4
18500.593,0.606,0.686,1.352,7.14,-33.48,108.04,3,4
18500.609,0.711,0.621,1.316,8.09,-36.19,117.86,3,4
18500.609,0.801,0.573,1.268,9.09,-34.91,132.05,3,4
18500.625,0.866,0.555,1.203,8.97,-29.51,150.21,3,4
18500.64,0.908,0.551,1.121,6.29,-20.2,170.72,3,4
18500.64,0.895,0.554,1.032,0.76,-7.23,192.33,3,4
18500.656,0.829,0.54,0.948,-6.32,5.89,212.13,3,4
18500.671,0.723,0.566,0.858,-13.58,16.33,227.3,3,4
18500.671,0.587,0.622,0.747,-21.33,21.06,237.07,3,4
18500.687,0.496,0.662,0.615,-34.73,19.2,243.39,3,4
18500.687,0.458,0.696,0.543,-47.52,18.04,248.15,3,4
18500.703,0.407,0.7,0.513,-51.61,26.58,257.88,3,4
18500.718,0.339,0.675,0.465,-55.79,45.96,277.38,3,4
18500.718,0.246,0.643,0.419,-72.94,70.01,302.1,3,4
18500.75,0.128,0.387,0.413,-148.29,109.56,354.69,3,4
18500.75,0.057,0.226,0.429,-199.53,113.25,372.26,3,4
18500.765,0.029,-0.006,0.517,-240.09,107.06,379.07,3,4
18500.781,0.033,-0.213,0.603,-258.43,96.32,371.2,3,4
18500.781,0.046,-0.328,0.686,-255.9,82.61,349.19,3,4
18500.796,0.009,-0.437,0.655,-234.69,66.26,318.58,3,4
18500.812,0.013,-0.483,0.599,-215.09,42.33,283.67,3,4
18500.812,0.032,-0.511,0.591,-199.01,26.15,255.47,3,4
18500.828,0.017,-0.495,0.587,-175.48,21.0,233.41,3,4
18500.843,0.01,-0.377,0.573,-148.38,23.83,215.74,3,4
18500.843,-0.066,-0.264,0.513,-130.56,24.29,199.84,3,4
18500.859,-0.1,-0.208,0.505,-131.6,21.36,191.02,3,4
18500.875,-0.149,-0.174,0.526,-140.96,21.97,189.12,3,4
18500.875,-0.201,-0.177,0.542,-150.09,21.55,191.32,3,4
18500.89,-0.19,-0.197,0.554,-158.12,18.71,195.32,3,4
18500.89,-0.154,-0.261,0.572,-169.47,22.95,195.62,3,4
18500.906,-0.12,-0.353,0.586,-168.61,29.63,188.39,3,4
18500.921,-0.105,-0.39,0.611,-162.27,33.27,175.48,3,4
18500.921,-0.078,-0.439,0.667,-152.78,35.74,158.15,3,4
18500.937,-0.077,-0.444,0.709,-140.05,38.42,138.98,3,4
18500.937,-0.105,-0.413,0.733,-122.9,39.12,120.49,3,4
18500.953,-0.099,-0.396,0.742,-105.9,38.3,108.95,3,4
18500.968,-0.127,-0.311,0.719,-89.54,39.49,96.01,3,4
18500.968,-0.217,-0.378,0.718,-82.03,38.51,91.62,3,4
18500.984,-0.217,-0.339,0.745,-79.62,34.67,93.14,3,4
18501.0,-0.235,-0.353,0.715,-72.7,23.19,89.08,3,4
18501.0,-0.182,-0.398,0.712,-69.43,14.04,86.73,3,4
18501.015,-0.177,-0.394,0.674,-65.16,5.43,79.47,3,4
18501.031,-0.137,-0.48,0.682,-64.0,0.7,73.76,3,4
18501.031,-0.115,-0.491,0.689,-59.08,1.77,67.57,3,4
18501.046,-0.113,-0.518,0.676,-49.29,-0.4,56.98,3,4
18501.046,-0.108,-0.566,0.697,-40.86,-0.52,47.7,3,4
18501.062,-0.145,-0.58,0.714,-31.71,-1.07,37.78,3,4
18501.078,-0.176,-0.602,0.74,-22.89,-5.16,27.31,3,4
18501.093,-0.208,-0.615,0.764,-16.88,-12.15,17.58,3,4
18501.093,-0.241,-0.643,0.767,-16.08,-21.24,9.86,3,4
18501.109,-0.27,-0.684,0.764,-18.65,-31.77,4.39,3,4
18501.109,-0.305,-0.714,0.763,-21.24,-43.64,1.04,3,4
18501.125,-0.327,-0.758,0.732,-20.87,-58.41,-1.07,3,4
18501.14,-0.299,-0.786,0.67,-15.87,-72.82,-3.54,3,4
18501.14,-0.271,-0.779,0.599,-6.5,-81.88,-8.33,3,4
18501.156,-0.247,-0.767,0.525,3.45,-84.99,-12.97,3,4
18501.171,-0.211,-0.75,0.469,11.17,-83.04,-15.99,3,4
18501.171,-0.197,-0.714,0.427,16.94,-76.2,-18.62,3,4
18501.187,-0.2,-0.688,0.399,20.36,-68.0,-19.26,3,4
18501.187,-0.2,-0.659,0.393,21.24,-60.55,-17.3,3,4
18501.203,-0.202,-0.636,0.393,20.08,-54.57,-13.4,3,4
18501.218,-0.189,-0.636,0.394,16.21,-49.2,-7.6,3,4
18501.218,-0.154,-0.644,0.418,9.43,-42.3,0.21,3,4
18501.25,-0.15,-0.673,0.501,-7.14,-29.45,11.14,3,4
18501.25,-0.142,-0.694,0.541,-11.2,-28.87,11.38,3,4
18501.265,-0.124,-0.718,0.572,-7.84,-29.27,10.41,3,4
18501.281,-0.1,-0.724,0.579,0.15,-27.5,9.74,3,4
18501.281,-0.082,-0.719,0.578,7.63,-23.9,8.79,3,4
18501.296,-0.069,-0.717,0.586,11.75,-19.68,7.29,3,4
18501.312,-0.061,-0.719,0.603,11.93,-14.65,6.35,3,4
18501.312,-0.07,-0.709,0.618,8.85,-10.16,5.62,3,4
18501.328,-0.06,-0.714,0.641,5.55,-8.88,5.4,3,4
18501.328,-0.049,-0.72,0.657,4.97,-7.97,5.83,3,4
18501.343,-0.043,-0.716,0.656,6.78,-6.23,7.66,3,4
18501.359,-0.031,-0.698,0.664,8.03,-4.46,10.59,3,4
18501.359,-0.023,-0.685,0.663,7.54,-2.47,13.37,3,4
18501.375,-0.02,-0.686,0.662,4.58,0.31,16.54,3,4
18501.39,-0.04,-0.696,0.672,-0.18,3.08,20.39,3,4
18501.39,-0.05,-0.716,0.688,-5.95,4.43,24.11,3,4
18501.421,-0.052,-0.763,0.682,-10.83,-1.25,22.86,3,4
18501.421,-0.034,-0.772,0.665,-6.65,-5.34,17.73,3,4
18501.437,-0.017,-0.752,0.645,1.53,-6.56,11.75,3,4
18501.437,-0.004,-0.708,0.637,9.55,-4.79,6.81,3,4
18501.453,-0.007,-0.665,0.649,15.08,-1.16,3.94,3,4
18501.468,-0.026,-0.627,0.671,16.97,3.69,4.36,3,4
18501.468,-0.049,-0.602,0.695,14.04,7.02,8.55,3,4
18501.484,-0.059,-0.606,0.728,6.9,8.82,15.32,3,4
18501.5,-0.074,-0.632,0.747,-2.69,10.01,23.13,3,4
18501.5,-0.08,-0.672,0.765,-12.57,8.03,29.27,3,4
18501.515,-0.06,-0.72,0.793,-18.71,3.85,32.62,3,4
18501.531,-0.044,-0.754,0.798,-19.04,1.04,33.36,3,4
18501.531,-0.01,-0.767,0.79,-14.98,-0.52,31.89,3,4
18501.546,0.039,-0.759,0.817,-9.13,0.12,29.39,3,4
18501.546,0.057,-0.754,0.865,-5.22,5.4,28.14,3,4
18501.562,0.047,-0.745,0.922,-6.13,11.63,28.69,3,4
18501.578,0.043,-0.746,1.017,-11.05,15.38,31.1,3,4
18501.593,0.042,-0.752,1.131,-18.74,16.02,33.17,3,4
18501.593,0.06,-0.775,1.252,-25.85,12.76,32.99,3,4
18501.609,0.073,-0.803,1.372,-29.18,6.62,27.5,3,4
18501.609,0.059,-0.846,1.466,-24.63,-3.45,17.03,3,4
18501.625,0.028,-0.875,1.526,-8.3,-18.1,4.55,3,4
18501.64,-0.016,-0.874,1.515,19.56,-36.04,-8.21,3,4
18501.64,-0.06,-0.844,1.398,52.28,-56.61,-17.91,3,4
18501.656,-0.069,-0.76,1.239,77.12,-76.72,-21.0,3,4
18501.671,-0.086,-0.701,1.069,88.2,-93.66,-18.34,3,4
18501.671,-0.118,-0.697,0.899,85.33,-106.27,-9.19,3,4
18501.687,-0.148,-0.668,0.721,69.95,-114.84,6.35,3,4
18501.687,-0.126,-0.614,0.566,43.15,-121.71,24.48,3,4
18501.703,-0.041,-0.635,0.466,11.9,-125.1,39.49,3,4
18501.718,0.058,-0.698,0.397,-8.48,-119.21,48.71,3,4
18501.718,0.098,-0.698,0.34,-10.71,-101.93,55.36,3,4
18501.734,0.092,-0.679,0.317,-1.59,-80.36,61.31,3,4
18501.75,0.068,-0.676,0.331,9.43,-57.07,70.89,3,4
18501.75,0.064,-0.592,0.383,8.3,-32.5,87.53,3,4
18501.765,0.059,-0.55,0.468,-9.46,-15.69,99.61,3,4
18501.781,0.014,-0.612,0.594,-37.6,-10.9,105.23,3,4
18501.781,0.002,-0.675,0.727,-65.22,-12.54,111.36,3,4
18501.796,-0.058,-0.765,0.827,-80.08,-22.74,109.38,3,4
18501.812,-0.11,-0.949,0.853,-76.88,-44.8,102.15,3,4
18501.812,-0.046,-1.036,0.809,-54.69,-67.87,96.32,3,4
18501.828,0.019,-1.039,0.69,-22.0,-85.02,83.77,3,4
18501.843,0.087,-1.014,0.569,3.33,-91.56,65.28,3,4
18501.843,0.127,-0.949,0.511,12.51,-87.56,45.29,3,4
18501.859,0.132,-0.898,0.524,11.75,-77.58,27.59,3,4
18501.859,0.083,-0.813,0.603,4.79,-63.91,16.51,3,4
18501.875,0.025,-0.743,0.729,-13.43,-50.6,11.29,3,4
18501.89,-0.042,-0.699,0.878,-18.71,-56.31,13.12,3,4
18501.89,-0.072,-0.679,0.978,-20.26,-68.09,10.38,3,4
18501.906,-0.041,-0.669,1.029,-18.49,-80.45,0.34,3,4
18501.921,0.067,-0.664,1.03,-13.76,-87.16,-12.82,3,4
18501.921,0.057,-0.647,1.03,0.09,-87.8,-23.16,3,4
18501.937,0.042,-0.57,0.986,14.65,-85.7,-24.05,3,4
18501.937,0.007,-0.518,0.934,20.54,-80.87,-18.37,3,4
18501.953,-0.057,-0.47,0.867,16.02,-75.9,-9.13,3,4
18501.968,-0.103,-0.446,0.816,4.03,-75.93,0.67,3,4
18501.968,-0.135,-0.474,0.767,-7.81,-80.48,7.84,3,4
18501.984,-0.12,-0.5,0.701,-15.96,-85.73,12.85,3,4
18502.0,-0.086,-0.516,0.633,-19.2,-86.73,15.81,3,4
18502.0,-0.07,-0.523,0.573,-18.71,-81.94,16.94,3,4
18502.015,-0.075,-0.53,0.516,-17.46,-74.59,17.82,3,4
18502.031,-0.077,-0.55,0.471,-18.16,-67.26,17.91,3,4
18502.031,-0.097,-0.597,0.429,-19.01,-60.67,17.24,3,4
18502.046,-0.099,-0.646,0.409,-17.52,-54.26,17.55,3,4
18502.046,-0.104,-0.641,0.399,-12.63,-46.66,17.58,3,4
18502.062,-0.117,-0.638,0.386,-8.79,-39.49,16.11,3,4
18502.078,-0.108,-0.63,0.39,-9.74,-32.56,15.08,3,4
18502.078,-0.113,-0.617,0.394,-12.67,-24.08,15.63,3,4
18502.093,-0.133,-0.642,0.396,-18.56,-15.2,18.37,3,4
18502.109,-0.124,-0.696,0.425,-26.8,-7.26,21.0,3,4
18502.109,-0.137,-0.778,0.416,-33.2,0.73,21.0,3,4
18502.125,-0.131,-0.871,0.403,-35.95,6.71,17.58,3,4
18502.14,-0.108,-0.952,0.386,-30.18,13.89,9.16,3,4
18502.14,-0.096,-0.997,0.317,-18.07,25.67,-3.78,3,4
18502.156,-0.064,-0.97,0.333,-6.38,42.18,-19.07,3,4
18502.171,-0.118,-0.86,0.438,6.87,63.48,-32.56,3,4
18502.171,-0.219,-0.734,0.567,17.21,79.96,-38.12,3,4
18502.187,-0.322,-0.621,0.717,17.52,84.2,-35.43,3,4
18502.187,-0.371,-0.586,0.814,8.73,76.27,-24.84,3,4
18502.203,-0.346,-0.628,0.837,-6.2,61.62,-11.81,3,4
18502.218,-0.297,-0.692,0.842,-18.19,47.21,-3.42,3,4
18502.234,-0.262,-0.763,0.798,-20.51,34.85,-0.85,3,4
18502.234,-0.206,-0.799,0.74,-16.82,25.48,-2.53,3,4
18502.25,-0.167,-0.79,0.682,-9.74,21.7,-6.01,3,4
18502.25,-0.155,-0.778,0.63,-5.25,23.19,-8.45,3,4
18502.265,-0.153,-0.759,0.592,-8.55,25.36,-8.51,3,4
18502.281,-0.146,-0.747,0.591,-16.08,26.34,-6.44,3,4
18502.281,-0.13,-0.744,0.616,-21.76,26.83,-3.91,3,4
18502.296,-0.107,-0.725,0.652,-22.64,25.09,-1.56,3,4
18502.296,-0.085,-0.712,0.683,-19.53,22.16,1.31,3,4
18502.312,-0.077,-0.698,0.685,-15.99,19.17,2.38,3,4
18502.328,-0.056,-0.7,0.682,-13.86,14.44,0.82,3,4
18502.328,-0.031,-0.72,0.652,-10.47,11.23,1.07,3,4
18502.343,0.0,-0.734,0.598,-7.26,10.74,4.03,3,4
18502.359,0.025,-0.754,0.576,-8.24,14.56,8.21,3,4
18502.359,0.002,-0.774,0.584,-13.86,20.08,9.49,3,4
18502.375,-0.022,-0.802,0.611,-19.32,22.34,7.39,3,4
18502.39,-0.016,-0.823,0.647,-18.52,21.42,3.72,3,4
18502.39,-0.001,-0.821,0.651,-11.11,20.17,1.62,3,4
18502.406,0.002,-0.809,0.657,-4.67,21.18,0.76,3,4
18502.421,-0.01,-0.801,0.676,-1.53,23.22,-1.4,3,4
18502.421,-0.046,-0.797,0.704,0.46,24.2,-4.39,3,4
18502.437,-0.069,-0.788,0.715,2.32,21.85,-5.89,3,4
18502.437,-0.056,-0.767,0.711,4.52,17.21,-6.26,3,4
18502.453,-0.068,-0.769,0.694,6.38,14.98,-5.34,3,4
18502.468,-0.079,-0.778,0.676,4.79,14.01,-2.41,3,4
18502.468,-0.074,-0.793,0.658,-0.09,14.16,0.79,3,4
18502.484,-0.066,-0.835,0.639,-5.01,15.44,1.74,3,4
18502.5,-0.069,-0.867,0.626,-7.6,18.07,0.37,3,4
18502.5,-0.077,-0.877,0.628,-7.72,20.54,-2.29,3,4
18502.515,-0.08,-0.874,0.652,-6.59,22.4,-5.22,3,4
18502.531,-0.099,-0.854,0.674,-4.79,24.38,-7.42,3,4
18502.531,-0.125,-0.838,0.694,-4.15,24.99,-8.0,3,4
18502.546,-0.136,-0.836,0.693,-5.28,23.07,-7.6,3,4
18502.546,-0.137,-0.85,0.687,-6.41,20.2,-7.84,3,4
18502.562,-0.135,-0.864,0.674,-6.01,17.12,-9.74,3,4
18502.578,-0.141,-0.859,0.658,-4.21,14.8,-12.97,3,4
18502.578,-0.152,-0.862,0.631,-1.5,13.52,-15.78,3,4
18502.593,-0.142,-0.86,0.602,0.76,13.55,-18.16,3,4
18502.609,-0.146,-0.848,0.583,2.44,15.87,-21.15,3,4
18502.609,-0.168,-0.843,0.572,2.72,18.52,-24.11,3,4
18502.625,-0.179,-0.83,0.572,2.14,20.87,-26.8,3,4
18502.64,-0.195,-0.81,0.587,2.32,23.29,-29.02,3,4
18502.64,-0.218,-0.796,0.613,2.08,25.12,-29.73,3,4
18502.656,-0.233,-0.793,0.648,0.37,25.51,-29.08,3,4
18502.656,-0.237,-0.8,0.683,-1.01,24.05,-29.3,3,4
18502.671,-0.239,-0.819,0.698,0.82,20.6,-31.25,3,4
18502.687,-0.228,-0.843,0.677,5.8,17.27,-35.04,3,4
18502.703,-0.229,-0.849,0.642,12.05,15.2,-40.99,3,4
18502.703,-0.252,-0.852,0.589,18.86,13.86,-46.82,3,4
18502.718,-0.255,-0.83,0.54,23.32,13.18,-50.29,3,4
18502.718,-0.225,-0.797,0.498,24.84,14.04,-51.73,3,4
18502.734,-0.208,-0.765,0.48,23.01,18.37,-51.61,3,4
18502.75,-0.216,-0.731,0.483,17.3,24.6,-49.35,3,4
18502.75,-0.213,-0.723,0.496,8.12,29.79,-45.59,3,4
18502.765,-0.208,-0.732,0.53,-0.24,33.72,-42.54,3,4
18502.781,-0.208,-0.75,0.546,-2.87,36.59,-40.74,3,4
18502.781,-0.189,-0.752,0.549,-1.92,38.67,-40.13,3,4
18502.796,-0.167,-0.744,0.548,-0.21,41.38,-40.5,3,4
18502.796,-0.142,-0.743,0.558,0.92,45.44,-40.35,3,4
18502.812,-0.118,-0.732,0.574,-0.15,49.87,-40.31,3,4
18502.828,-0.11,-0.715,0.608,-2.75,54.63,-40.96,3,4
18502.828,-0.117,-0.718,0.642,-5.43,57.65,-40.96,3,4
18502.843,-0.1,-0.735,0.659,-7.39,58.41,-40.47,3,4
18502.859,-0.068,-0.741,0.669,-5.37,60.24,-42.57,3,4
18502.859,-0.056,-0.751,0.687,-1.46,61.04,-44.65,3,4
18502.875,-0.059,-0.757,0.699,1.22,60.43,-46.6,3,4
18502.89,-0.052,-0.764,0.7,1.89,59.08,-48.92,3,4
18502.89,-0.042,-0.748,0.709,2.35,57.99,-52.0,3,4
18502.906,-0.059,-0.744,0.698,2.96,56.92,-54.32,3,4
18502.921,-0.054,-0.737,0.691,2.56,55.91,-55.64,3,4
18502.921,-0.032,-0.732,0.682,1.37,55.79,-57.07,3,4
18502.937,-0.016,-0.723,0.697,-0.31,57.68,-58.23,3,4
18502.937,-0.014,-0.71,0.726,-1.71,59.24,-59.21,3,4
18502.953,-0.014,-0.707,0.75,-1.5,59.21,-59.51,3,4
18502.968,-0.028,-0.698,0.77,1.13,58.08,-59.08,3,4
18502.968,-0.054,-0.699,0.757,5.01,55.39,-57.89,3,4
18502.984,-0.063,-0.703,0.741,6.2,50.81,-56.73,3,4
18503.0,-0.051,-0.71,0.728,5.31,45.44,-56.0,3,4
18503.0,-0.036,-0.715,0.703,4.09,42.05,-55.42,3,4
18503.015,-0.009,-0.716,0.673,1.98,40.86,-55.82,3,4
18503.031,0.022,-0.723,0.66,0.18,42.66,-56.55,3,4
18503.031,0.027,-0.721,0.66,0.37,47.67,-57.25,3,4
18503.046,0.013,-0.714,0.666,1.31,53.74,-57.01,3,4
18503.046,0.002,-0.707,0.682,1.83,59.39,-55.67,3,4
18503.062,-0.022,-0.704,0.696,1.56,63.51,-54.08,3,4
18503.078,-0.044,-0.706,0.727,0.03,64.24,-53.13,3,4
18503.078,-0.055,-0.717,0.757,0.4,61.46,-52.89,3,4
18503.093,-0.047,-0.719,0.759,1.89,57.04,-52.49,3,4
18503.109,-0.04,-0.719,0.748,2.66,53.19,-53.19,3,4
18503.125,-0.039,-0.727,0.73,3.39,51.42,-54.93,3,4
18503.125,-0.046,-0.732,0.708,3.42,51.0,-56.03,3,4
18503.14,-0.046,-0.74,0.676,2.72,51.24,-56.52,3,4
18503.14,-0.033,-0.745,0.651,1.53,52.74,-56.86,3,4
18503.156,-0.021,-0.74,0.648,1.01,56.06,-57.16,3,4
18503.171,-0.022,-0.746,0.662,1.89,60.64,-56.31,3,4
18503.171,-0.003,-0.72,0.704,4.3,65.4,-54.84,3,4
18503.187,-0.017,-0.707,0.728,6.78,68.61,-56.03,3,4
18503.187,-0.039,-0.75,0.755,3.6,69.7,-55.91,3,4
18503.203,-0.007,-0.742,0.792,1.01,68.85,-56.46,3,4
18503.218,-0.033,-0.755,0.793,3.94,69.43,-60.34,3,4
18503.218,-0.067,-0.772,0.787,6.32,66.56,-64.82,3,4
18503.234,-0.05,-0.771,0.778,9.49,59.91,-70.77,3,4
18503.25,-0.041,-0.776,0.754,16.02,54.81,-77.58,3,4
18503.265,-0.031,-0.754,0.729,23.38,51.45,-81.94,3,4
18503.265,-0.015,-0.68,0.711,27.5,51.3,-82.61,3,4
18503.281,-0.017,-0.629,0.682,23.35,54.02,-80.11,3,4
18503.281,-0.016,-0.603,0.687,11.78,57.41,-75.2,3,4
18503.296,-0.02,-0.612,0.702,-0.03,62.44,-68.15,3,4
18503.312,-0.027,-0.624,0.727,-7.9,67.75,-61.43,3,4
18503.312,-0.037,-0.633,0.751,-9.74,70.83,-56.73,3,4
18503.328,-0.034,-0.647,0.763,-7.57,70.53,-53.8,3,4
18503.343,-0.015,-0.657,0.764,-5.13,68.64,-52.37,3,4
18503.343,-0.004,-0.666,0.746,-4.09,67.78,-52.03,3,4
18503.359,0.016,-0.673,0.735,-5.55,68.79,-51.88,3,4
18503.359,0.03,-0.671,0.742,-8.39,72.73,-51.88,3,4
18503.375,0.022,-0.672,0.759,-10.65,77.82,-52.31,3,4
18503.39,0.011,-0.663,0.798,-11.14,81.3,-52.0,3,4
18503.39,-0.018,-0.665,0.836,-8.55,82.0,-50.54,3,4
18503.406,-0.035,-0.669,0.85,-5.28,78.95,-48.04,3,4
18503.421,-0.03,-0.664,0.865,-4.85,72.6,-46.57,3,4
18503.421,-0.012,-0.684,0.87,-5.37,64.85,-46.17,3,4
18503.437,0.017,-0.702,0.87,-6.78,57.8,-46.14,3,4
18503.437,0.041,-0.697,0.867,-6.26,52.67,-47.88,3,4
18503.453,0.046,-0.686,0.833,-3.42,49.38,-49.93,3,4
18503.468,0.057,-0.683,0.791,-1.4,47.98,-51.12,3,4
18503.484,0.075,-0.686,0.773,-0.67,47.82,-51.79,3,4
18503.484,0.098,-0.679,0.764,-1.68,49.29,-51.7,3,4
18503.5,0.107,-0.666,0.779,-3.97,52.0,-52.1,3,4
18503.5,0.107,-0.667,0.793,-5.07,54.81,-51.55,3,4
18503.515,0.119,-0.655,0.811,-7.02,56.79,-49.13,3,4
18503.531,0.116,-0.648,0.824,-9.06,58.11,-47.33,3,4
18503.531,0.092,-0.649,0.826,-10.56,58.05,-46.05,3,4
18503.546,0.068,-0.646,0.822,-11.44,56.22,-44.4,3,4
18503.562,0.056,-0.662,0.795,-11.38,52.98,-42.05,3,4
18503.562,0.082,-0.677,0.775,-11.78,49.71,-39.4,3,4
18503.578,0.106,-0.684,0.764,-11.11,49.78,-37.57,3,4
18503.578,0.107,-0.687,0.742,-10.96,52.19,-36.62,3,4
18503.593,0.113,-0.686,0.739,-12.48,54.78,-36.16,3,4
18503.609,0.107,-0.68,0.748,-13.31,56.92,-36.1,3,4
18503.609,0.086,-0.672,0.743,-13.61,58.38,-35.31,3,4
18503.625,0.074,-0.677,0.732,-14.86,58.84,-33.97,3,4
18503.64,0.059,-0.697,0.723,-15.63,58.87,-33.05,3,4
18503.64,0.053,-0.714,0.725,-16.3,58.63,-31.65,3,4
18503.656,0.055,-0.721,0.719,-17.0,57.95,-30.67,3,4
18503.671,0.063,-0.738,0.72,-17.06,57.31,-30.46,3,4
18503.671,0.067,-0.741,0.73,-14.83,57.04,-31.1,3,4
18503.687,0.057,-0.73,0.728,-10.16,56.09,-31.89,3,4
18503.687,0.029,-0.705,0.721,-6.13,54.75,-32.41,3,4
18503.703,0.003,-0.691,0.712,-4.58,52.43,-32.11,3,4
18503.718,0.001,-0.686,0.706,-5.37,49.32,-30.03,3,4
18503.718,0.016,-0.685,0.685,-6.5,47.79,-26.64,3,4
18503.734,0.034,-0.688,0.649,-9.19,48.65,-22.43,3,4
18503.75,0.054,-0.695,0.636,-14.4,51.55,-19.14,3,4
18503.75,0.057,-0.716,0.645,-19.26,56.28,-16.94,3,4
18503.765,0.047,-0.739,0.651,-21.79,61.16,-15.2,3,4
18503.781,0.042,-0.757,0.673,-21.39,66.01,-13.15,3,4
18503.781,0.033,-0.769,0.698,-18.89,70.07,-12.45,3,4
18503.796,0.016,-0.771,0.727,-15.93,71.57,-13.76,3,4
18503.812,-0.012,-0.775,0.742,-12.82,70.1,-15.96,3,4
18503.812,-0.023,-0.772,0.747,-10.1,65.86,-17.46,3,4
18503.828,-0.004,-0.765,0.735,-7.57,60.46,-18.8,3,4
18503.828,0.012,-0.756,0.715,-5.25,57.92,-20.02,3,4
18503.843,0.018,-0.751,0.696,-6.65,60.43,-19.35,3,4
18503.859,0.023,-0.755,0.685,-9.95,63.36,-18.95,3,4
18503.875,0.014,-0.759,0.672,-13.43,65.25,-19.38,3,4
18503.875,-0.004,-0.763,0.672,-14.19,65.43,-20.42,3,4
18503.89,-0.05,-0.779,0.683,-12.15,64.33,-21.24,3,4
18503.89,-0.053,-0.773,0.679,-10.22,61.92,-22.55,3,4
18503.906,-0.058,-0.771,0.676,-8.7,59.33,-23.93,3,4
18503.921,-0.056,-0.763,0.663,-7.08,56.95,-25.06,3,4
18503.921,-0.037,-0.759,0.644,-6.01,54.29,-26.76,3,4
18503.937,-0.018,-0.765,0.637,-5.1,54.29,-28.14,3,4
18503.953,-0.01,-0.763,0.641,-3.39,57.07,-28.75,3,4
18503.953,-0.012,-0.754,0.652,-1.37,60.64,-28.81,3,4
18503.968,-0.033,-0.745,0.667,0.34,63.72,-28.53,3,4
18503.968,-0.063,-0.731,0.689,0.79,63.94,-28.29,3,4
18503.984,-0.085,-0.724,0.701,1.16,60.52,-28.2,3,4
18504.0,-0.101,-0.717,0.688,1.71,54.54,-27.53,3,4
18504.0,-0.082,-0.72,0.669,2.11,48.4,-25.57,3,4
18504.015,-0.049,-0.723,0.647,1.4,45.01,-23.65,3,4
18504.031,-0.033,-0.733,0.623,-0.85,46.14,-22.4,3,4
18504.031,-0.037,-0.751,0.615,-3.81,49.78,-21.55,3,4
18504.046,-0.049,-0.773,0.626,-6.84,53.77,-20.26,3,4
18504.062,-0.052,-0.795,0.64,-7.57,56.49,-20.17,3,4
18504.062,-0.062,-0.806,0.652,-5.01,57.71,-22.0,3,4
18504.078,-0.086,-0.807,0.661,-0.37,57.86,-24.69,3,4
18504.093,-0.109,-0.784,0.684,3.91,56.31,-26.67,3,4
18504.093,-0.128,-0.766,0.686,6.47,52.55,-26.67,3,4
18504.109,-0.122,-0.763,0.688,5.92,48.04,-23.77,3,4
18504.109,-0.094,-0.769,0.678,3.85,44.86,-21.15,3,4
18504.125,-0.073,-0.785,0.652,0.67,43.18,-20.69,3,4
18504.14,-0.075,-0.806,0.641,-2.47,43.58,-21.61,3,4
18504.14,-0.078,-0.827,0.636,-3.08,43.61,-22.92,3,4
18504.156,-0.076,-0.831,0.626,-0.95,44.16,-24.63,3,4
18504.156,-0.081,-0.828,0.614,1.25,45.44,-26.8,3,4
18504.171,-0.084,-0.819,0.619,2.17,46.17,-29.15,3,4
18504.187,-0.095,-0.821,0.633,3.57,46.57,-30.61,3,4
18504.187,-0.099,-0.809,0.632,5.46,46.63,-30.37,3,4
18504.203,-0.095,-0.79,0.632,5.89,45.72,-30.0,3,4
18504.218,-0.1,-0.781,0.639,5.1,44.74,-30.27,3,4
18504.218,-0.105,-0.776,0.647,3.78,43.98,-29.63,3,4
18504.234,-0.1,-0.77,0.649,2.35,42.39,-28.14,3,4
18504.25,-0.086,-0.782,0.651,0.31,40.19,-26.73,3,4
18504.25,-0.073,-0.806,0.651,-1.28,39.06,-26.0,3,4
18504.265,-0.067,-0.819,0.643,-1.25,38.79,-26.83,3,4
18504.281,-0.064,-0.825,0.632,0.27,38.45,-29.66,3,4
18504.281,-0.061,-0.826,0.626,3.33,38.39,-33.51,3,4
18504.296,-0.063,-0.806,0.632,7.35,39.12,-36.9,3,4
18504.296,-0.08,-0.786,0.639,10.74,39.95,-38.18,3,4
18504.312,-0.084,-0.765,0.643,11.05,39.12,-36.96,3,4
18504.328,-0.084,-0.748,0.643,8.85,37.23,-35.83,3,4
18504.328,-0.082,-0.754,0.647,6.2,34.82,-34.42,3,4
18504.343,-0.082,-0.757,0.65,4.18,32.78,-32.38,3,4
18504.359,-0.071,-0.754,0.638,3.48,30.76,-31.1,3,4
18504.359,-0.063,-0.753,0.623,4.03,29.08,-30.49,3,4
18504.375,-0.061,-0.756,0.61,5.49,29.54,-29.3,3,4
18504.39,-0.051,-0.755,0.595,7.14,31.13,-28.02,3,4
18504.39,-0.042,-0.765,0.592,7.81,33.08,-26.83,3,4
18504.406,-0.04,-0.78,0.601,6.84,35.68,-25.91,3,4
18504.421,-0.057,-0.786,0.602,5.62,37.72,-26.76,3,4
18504.421,-0.073,-0.794,0.607,4.3,37.42,-28.78,3,4
18504.437,-0.074,-0.805,0.624,4.82,35.55,-29.82,3,4
18504.437,-0.072,-0.802,0.624,7.42,34.42,-29.97,3,4
18504.453,-0.072,-0.798,0.622,8.27,34.21,-28.57,3,4
18504.468,-0.072,-0.791,0.627,5.98,34.3,-26.7,3,4
18504.468,-0.084,-0.799,0.637,2.5,33.6,-25.91,3,4
18504.484,-0.075,-0.803,0.659,1.1,32.41,-25.42,3,4
18504.5,-0.076,-0.803,0.654,3.33,31.46,-25.76,3,4
18504.5,-0.066,-0.791,0.642,5.43,30.09,-25.88,3,4
18504.515,-0.062,-0.79,0.631,6.32,29.45,-26.25,3,4
18504.531,-0.064,-0.794,0.626,5.07,30.12,-25.76,3,4
18504.531,-0.067,-0.805,0.629,2.69,30.64,-25.33,3,4
18504.546,-0.069,-0.828,0.637,1.04,30.82,-25.06,3,4
18504.562,-0.071,-0.843,0.654,0.43,31.71,-25.12,3,4
18504.562,-0.088,-0.847,0.663,1.19,30.98,-27.04,3,4
18504.578,-0.105,-0.858,0.672,2.69,28.41,-29.51,3,4
18504.578,-0.104,-0.86,0.664,4.64,24.72,-31.74,3,4
18504.593,-0.085,-0.858,0.644,7.48,21.03,-34.64,3,4
18504.609,-0.073,-0.841,0.633,11.05,19.44,-38.09,3,4
18504.609,-0.078,-0.819,0.626,13.55,19.53,-40.77,3,4
18504.625,-0.073,-0.781,0.624,13.37,18.86,-42.42,3,4
18504.64,-0.065,-0.753,0.625,12.27,18.56,-43.28,3,4
18504.64,-0.055,-0.731,0.635,11.57,18.77,-42.33,3,4
18504.656,-0.041,-0.708,0.632,10.38,19.75,-39.83,3,4
18504.671,-0.04,-0.684,0.627,8.18,20.45,-37.23,3,4
18504.671,-0.036,-0.672,0.641,6.78,20.26,-33.97,3,4
18504.687,-0.059,-0.679,0.636,4.49,21.3,-28.69,3,4
18504.703,-0.058,-0.695,0.637,-0.61,21.49,-21.42,3,4
18504.703,-0.06,-0.717,0.635,-4.55,20.66,-16.05,3,4
18504.718,-0.076,-0.755,0.606,-7.51,20.51,-11.66,3,4
18504.718,-0.064,-0.778,0.587,-8.85,19.29,-8.42,3,4
18504.734,-0.053,-0.817,0.58,-7.84,20.08,-5.37,3,4
18504.75,-0.059,-0.822,0.56,-6.84,23.68,-1.68,3,4
18504.75,-0.074,-0.834,0.552,-9.0,27.07,1.13,3,4
18504.765,-0.074,-0.863,0.559,-15.08,29.48,3.11,3,4
18504.781,-0.071,-0.893,0.574,-19.68,31.65,3.3,3,4
18504.781,-0.081,-0.911,0.597,-19.59,34.61,2.5,3,4
18504.796,-0.096,-0.908,0.599,-16.94,36.77,0.21,3,4
18504.796,-0.11,-0.92,0.591,-16.08,36.56,-3.2,3,4
18504.812,-0.124,-0.948,0.592,-16.94,35.89,-5.49,3,4
18504.828,-0.109,-0.95,0.588,-13.49,35.19,-13.09,3,4
18504.843,-0.097,-0.926,0.58,-13.34,36.38,-18.49,3,4
18504.843,-0.125,-0.919,0.586,-15.63,34.85,-21.21,3,4
18504.859,-0.132,-0.894,0.606,-15.35,33.27,-23.93,3,4
18504.859,-0.156,-0.872,0.613,-12.36,31.25,-26.0,3,4
18504.875,-0.147,-0.846,0.586,-9.03,27.01,-26.52,3,4
18504.89,-0.131,-0.828,0.553,-4.18,26.22,-26.58,3,4
18504.89,-0.119,-0.797,0.51,-1.68,27.01,-25.76,3,4
18504.906,-0.097,-0.769,0.483,-4.09,28.96,-23.93,3,4
18504.921,-0.091,-0.774,0.477,-8.91,34.03,-20.78,3,4
18504.921,-0.091,-0.795,0.498,-13.58,40.04,-15.81,3,4
18504.937,-0.107,-0.806,0.519,-15.78,45.29,-11.63,3,4
18504.953,-0.124,-0.83,0.539,-16.36,47.12,-10.16,3,4
18504.953,-0.127,-0.845,0.558,-15.02,45.69,-11.23,3,4
18504.968,-0.13,-0.853,0.565,-10.13,42.7,-13.52,3,4
18504.968,-0.127,-0.856,0.559,-4.85,40.47,-14.95,3,4
18504.984,-0.12,-0.85,0.549,-2.81,39.03,-15.75,3,4
18505.0,-0.118,-0.862,0.536,-4.58,37.6,-17.24,3,4
18505.0,-0.115,-0.889,0.525,-8.3,36.56,-19.2,3,4
18505.015,-0.109,-0.905,0.514,-9.0,36.35,-22.28,3,4
18505.031,-0.112,-0.91,0.499,-4.82,36.93,-26.83,3,4
18505.031,-0.112,-0.881,0.479,0.76,37.93,-31.43,3,4
18505.046,-0.109,-0.841,0.458,4.39,39.22,-34.88,3,4
18505.062,-0.107,-0.809,0.463,5.07,41.35,-35.74,3,4
18505.062,-0.114,-0.776,0.48,2.72,44.01,-34.06,3,4
18505.078,-0.126,-0.772,0.505,-0.4,44.95,-30.09,3,4
18505.078,-0.114,-0.79,0.528,-2.23,44.34,-25.45,3,4
18505.093,-0.094,-0.803,0.543,-3.17,42.79,-22.55,3,4
18505.109,-0.079,-0.816,0.543,-3.94,41.17,-23.5,3,4
18505.109,-0.051,-0.826,0.546,-3.81,40.07,-27.34,3,4
18505.125,-0.059,-0.814,0.548,-1.22,41.29,-31.43,3,4
18505.14,-0.07,-0.798,0.538,2.08,41.08,-34.12,3,4
18505.14,-0.046,-0.783,0.538,4.21,40.71,-35.37,3,4
18505.156,-0.044,-0.772,0.539,6.47,42.73,-35.92,3,4
18505.171,-0.061,-0.765,0.543,8.21,44.86,-35.8,3,4
18505.171,-0.066,-0.756,0.541,8.94,45.81,-35.43,3,4
18505.187,-0.075,-0.746,0.544,9.7,45.26,-35.07,3,4
18505.203,-0.109,-0.729,0.548,10.19,44.68,-33.14,3,4
18505.203,-0.115,-0.735,0.528,7.97,42.57,-28.96,3,4
18505.218,-0.089,-0.758,0.503,3.66,39.83,-23.87,3,4
18505.218,-0.072,-0.807,0.495,-0.12,39.52,-18.98,3,4
18505.234,-0.054,-0.859,0.496,-4.0,40.19,-14.98,3,4
18505.25,-0.059,-0.925,0.513,-7.69,42.79,-13.86,3,4
18505.25,-0.08,-0.971,0.527,-6.93,45.35,-15.35,3,4
18505.265,-0.078,-1.0,0.561,-0.52,45.41,-19.75,3,4
18505.281,-0.094,-0.968,0.545,12.54,46.85,-27.74,3,4
18505.281,-0.103,-0.891,0.51,19.5,38.39,-42.18,3,4
18505.296,-0.097,-0.889,0.539,15.87,36.23,-51.58,3,4
18505.296,-0.098,-0.846,0.544,15.44,36.81,-54.05,3,4
18505.312,-0.089,-0.774,0.531,19.47,35.68,-54.54,3,4
18505.328,-0.077,-0.736,0.531,21.24,35.77,-52.77,3,4
18505.343,-0.054,-0.713,0.536,19.23,36.74,-46.63,3,4
18505.343,-0.055,-0.707,0.515,14.44,39.06,-40.38,3,4
18505.359,-0.052,-0.738,0.509,6.07,41.63,-34.58,3,4
18505.359,-0.065,-0.806,0.513,-2.41,44.56,-29.66,3,4
18505.375,-0.089,-0.869,0.496,-5.89,45.84,-27.31,3,4
18505.39,-0.066,-0.915,0.489,-4.79,45.63,-27.28,3,4
18505.39,-0.042,-0.943,0.488,-1.56,48.46,-28.75,3,4
18505.406,-0.035,-0.945,0.486,0.82,53.22,-31.28,3,4
18505.421,-0.031,-0.925,0.526,1.28,58.84,-33.57,3,4
18505.421,-0.043,-0.903,0.57,3.2,62.41,-35.19,3,4
18505.437,-0.051,-0.876,0.606,4.21,62.29,-35.19,3,4
18505.437,-0.051,-0.857,0.609,3.51,60.49,-33.88,3,4
18505.453,-0.037,-0.843,0.612,1.13,58.26,-32.99,3,4
18505.468,-0.033,-0.833,0.62,-1.59,56.22,-32.9,3,4
18505.468,-0.035,-0.841,0.62,-3.2,54.51,-31.4,3,4
18505.484,-0.029,-0.863,0.616,-4.39,52.74,-28.6,3,4
18505.5,-0.027,-0.893,0.6,-5.86,51.21,-27.25,3,4
18505.5,-0.011,-0.91,0.59,-7.08,49.99,-28.72,3,4
18505.515,0.001,-0.911,0.587,-5.92,49.26,-32.5,3,4
18505.531,0.006,-0.896,0.589,-3.02,48.37,-36.93,3,4
18505.531,0.006,-0.865,0.596,-0.31,46.88,-40.89,3,4
18505.546,-0.007,-0.839,0.599,0.24,45.08,-42.97,3,4
18505.562,-0.011,-0.809,0.617,-2.14,43.15,-41.81,3,4
18505.562,-0.02,-0.799,0.622,-4.58,41.38,-38.45,3,4
18505.578,-0.014,-0.793,0.625,-5.86,38.79,-34.39,3,4
18505.578,0.001,-0.787,0.625,-4.91,35.77,-30.85,3,4
18505.593,0.019,-0.785,0.607,-3.08,33.2,-28.32,3,4
18505.609,0.041,-0.781,0.594,-1.77,31.16,-26.76,3,4
18505.625,0.028,-0.794,0.571,-0.34,31.13,-25.3,3,4
18505.625,0.018,-0.805,0.549,0.09,31.74,-23.01,3,4
18505.64,0.03,-0.808,0.545,-0.34,32.26,-21.67,3,4
18505.64,0.025,-0.815,0.558,-1.5,33.48,-21.39,3,4
18505.656,0.02,-0.814,0.6,-2.53,32.99,-20.97,3,4
18505.671,0.002,-0.799,0.64,-0.89,30.43,-19.87,3,4
18505.671,0.021,-0.782,0.672,0.85,23.99,-18.19,3,4
18505.687,0.052,-0.77,0.673,2.66,16.69,-17.91,3,4
18505.687,0.076,-0.763,0.662,5.58,11.08,-17.43,3,4
18505.703,0.068,-0.75,0.647,8.73,7.08,-15.26,3,4
18505.718,0.065,-0.74,0.611,8.64,3.97,-11.87,3,4
18505.718,0.087,-0.742,0.592,6.1,1.46,-8.55,3,4
18505.734,0.089,-0.749,0.591,6.13,1.62,-5.74,3,4
18505.75,0.064,-0.741,0.597,8.0,2.66,-2.66,3,4
18505.75,0.004,-0.736,0.602,9.74,1.62,1.31,3,4
18505.765,-0.046,-0.755,0.595,9.28,-2.17,7.29,3,4
18505.781,-0.06,-0.8,0.568,4.94,-7.39,13.79,3,4
18505.781,-0.016,-0.864,0.522,0.43,-11.32,17.0,3,4
18505.796,0.023,-0.909,0.486,-0.4,-11.08,15.47,3,4
18505.796,0.016,-0.933,0.475,1.62,-7.35,10.74,3,4
18505.812,0.023,-0.926,0.476,7.72,0.15,1.07,3,4
18505.828,0.027,-0.904,0.488,9.49,4.58,-1.25,3,4
18505.843,-0.008,-0.881,0.499,8.09,6.81,-1.13,3,4
18505.843,-0.036,-0.865,0.508,4.94,6.74,0.06,3,4
18505.859,-0.035,-0.866,0.531,2.47,6.29,2.35,3,4
18505.859,-0.028,-0.868,0.544,0.79,6.41,5.1,3,4
18505.875,-0.021,-0.876,0.546,-0.4,5.98,6.62,3,4
18505.89,-0.014,-0.877,0.557,-0.85,4.94,6.32,3,4
18505.89,-0.031,-0.874,0.562,0.18,4.03,5.43,3,4
18505.906,-0.052,-0.882,0.577,1.34,2.41,5.34,3,4
18505.921,-0.042,-0.892,0.563,1.43,-0.18,5.07,3,4
18505.921,-0.02,-0.909,0.544,1.1,-1.92,3.33,3,4
18505.937,-0.004,-0.915,0.538,2.26,-2.04,0.79,3,4
18505.937,-0.007,-0.895,0.548,4.61,-1.28,-2.38,3,4
18505.953,-0.039,-0.863,0.568,6.84,-0.85,-4.03,3,4
18505.968,-0.07,-0.839,0.575,6.65,-2.78,-2.53,3,4
18505.968,-0.068,-0.85,0.559,4.06,-6.96,0.34,3,4
18505.984,-0.025,-0.874,0.533,1.74,-9.92,2.72,3,4
18506.0,0.001,-0.884,0.514,0.79,-8.55,3.45,3,4
18506.0,-0.003,-0.896,0.507,0.4,-5.28,2.41,3,4
18506.015,-0.001,-0.891,0.536,0.61,-3.02,0.12,3,4
18506.031,-0.004,-0.875,0.567,2.93,-2.26,-3.08,3,4
18506.031,-0.011,-0.857,0.597,6.38,-3.23,-5.98,3,4
18506.046,-0.035,-0.842,0.622,9.64,-5.92,-7.72,3,4
18506.062,-0.072,-0.85,0.612,11.26,-10.38,-8.33,3,4
18506.062,-0.068,-0.859,0.584,9.86,-15.72,-7.72,3,4
18506.078,-0.031,-0.853,0.557,6.99,-20.17,-7.23,3,4
18506.078,0.004,-0.847,0.525,4.03,-21.12,-8.09,3,4
18506.093,0.021,-0.836,0.509,1.59,-19.59,-9.95,3,4
18506.109,0.013,-0.831,0.502,0.06,-16.45,-11.05,3,4
18506.125,-0.013,-0.84,0.504,-0.4,-13.31,-10.35,3,4
18506.125,-0.024,-0.852,0.504,2.11,-10.01,-7.2,3,4
18506.14,-0.051,-0.854,0.484,7.11,-5.77,-3.36,3,4
18506.14,-0.038,-0.849,0.469,8.45,-3.11,0.21,3,4
18506.156,-0.006,-0.846,0.48,4.27,-1.28,1.56,3,4
18506.171,-0.008,-0.854,0.51,-1.31,1.65,0.79,3,4
18506.171,-0.03,-0.859,0.554,-3.66,3.75,0.95,3,4
18506.187,-0.056,-0.859,0.579,-2.78,3.23,2.56,3,4
18506.187,-0.063,-0.863,0.586,-1.59,-0.34,4.15,3,4
18506.203,-0.036,-0.87,0.574,-0.4,-5.13,4.39,3,4
18506.218,0.001,-0.877,0.563,0.95,-7.51,2.99,3,4
18506.218,0.001,-0.874,0.564,2.75,-6.9,0.85,3,4
18506.234,-0.005,-0.859,0.568,4.24,-6.68,-1.04,3,4
18506.25,-0.025,-0.847,0.569,6.29,-7.6,-2.11,3,4
18506.265,-0.054,-0.852,0.558,7.35,-9.22,-1.98,3,4
18506.265,-0.045,-0.861,0.549,6.65,-11.93,-0.95,3,4
18506.281,-0.026,-0.868,0.532,5.62,-12.97,-0.85,3,4
18506.281,-0.023,-0.87,0.538,5.1,-11.9,-1.22,3,4
18506.296,-0.034,-0.866,0.555,6.29,-11.23,-1.8,3,4
18506.296,-0.048,-0.859,0.574,8.55,-12.12,-2.81,3,4
18506.312,-0.067,-0.858,0.572,11.96,-14.4,-3.14,3,4
18506.328,-0.072,-0.862,0.54,14.19,-17.55,-1.98,3,4
18506.328,-0.054,-0.871,0.507,14.53,-19.41,-0.09,3,4
18506.343,-0.028,-0.863,0.467,14.31,-18.1,1.83,3,4
18506.359,-0.007,-0.844,0.445,11.41,-13.25,3.3,3,4
18506.375,0.001,-0.84,0.457,6.16,-7.54,4.03,3,4
18506.375,-0.002,-0.842,0.483,1.53,-2.69,4.55,3,4
18506.39,-0.026,-0.847,0.52,-1.13,0.89,5.07,3,4
18506.39,-0.052,-0.852,0.537,-2.81,2.35,6.29,3,4
18506.406,-0.052,-0.862,0.551,-4.97,1.25,7.48,3,4
18506.421,-0.054,-0.873,0.565,-5.89,-0.12,8.18,3,4
18506.421,-0.042,-0.874,0.569,-6.01,-1.98,9.0,3,4
18506.437,-0.017,-0.875,0.562,-5.86,-3.91,8.85,3,4
18506.437,-0.004,-0.883,0.551,-5.28,-4.24,7.14,3,4
