timestamp,ax,ay,az,gx,gy,gz,orient_label,motion_label
18473.015,0.095,-0.856,0.551,1.01,-6.56,2.2,3,4
18473.015,0.091,-0.861,0.561,0.61,-4.82,0.37,3,4
18473.031,0.083,-0.865,0.572,0.95,-3.78,-1.19,3,4
18473.046,0.076,-0.863,0.57,2.01,-3.66,-2.81,3,4
18473.046,0.073,-0.855,0.562,2.81,-3.97,-4.3,3,4
18473.062,0.074,-0.855,0.55,2.69,-4.24,-5.58,3,4
18473.078,0.084,-0.854,0.547,2.75,-3.85,-6.59,3,4
18473.078,0.086,-0.84,0.553,3.42,-2.35,-7.11,3,4
18473.093,0.078,-0.817,0.557,3.78,-0.49,-6.47,3,4
18473.109,0.076,-0.798,0.56,2.08,0.79,-4.67,3,4
18473.109,0.081,-0.8,0.568,-0.46,1.56,-2.9,3,4
18473.125,0.089,-0.805,0.578,-1.5,2.14,-1.01,3,4
18473.14,0.082,-0.804,0.589,-0.82,2.81,0.4,3,4
18473.14,0.075,-0.8,0.595,0.67,2.47,1.77,3,4
18473.156,0.084,-0.798,0.588,0.55,1.28,3.33,3,4
18473.156,0.091,-0.809,0.582,-1.59,0.46,4.46,3,4
18473.171,0.094,-0.831,0.58,-3.23,-0.06,4.3,3,4
18473.187,0.096,-0.85,0.568,-0.34,0.7,1.16,3,4
18473.203,0.099,-0.846,0.571,0.61,1.37,-0.64,3,4
18473.218,0.089,-0.838,0.577,0.79,1.95,-2.29,3,4
18473.218,0.079,-0.829,0.582,1.22,1.65,-2.93,3,4
18473.234,0.084,-0.82,0.587,1.34,0.95,-3.02,3,4
18473.25,0.078,-0.819,0.587,1.74,0.43,-3.2,3,4
18473.25,0.079,-0.811,0.597,1.8,-0.95,-3.02,3,4
18473.265,0.093,-0.812,0.596,2.78,-2.41,-2.72,3,4
18473.281,0.1,-0.806,0.589,3.66,-3.3,-2.38,3,4
18473.281,0.094,-0.802,0.587,3.36,-3.27,-1.8,3,4
18473.296,0.088,-0.799,0.59,2.2,-3.42,-0.67,3,4
18473.296,0.096,-0.803,0.591,1.01,-4.15,0.31,3,4
18473.312,0.1,-0.807,0.593,2.23,-5.46,-0.06,3,4
18473.328,0.105,-0.81,0.596,3.94,-6.38,-1.34,3,4
18473.328,0.103,-0.808,0.603,5.34,-7.32,-2.23,3,4
18473.343,0.099,-0.8,0.605,6.29,-8.88,-2.69,3,4
18473.359,0.107,-0.785,0.623,8.0,-12.85,-3.94,3,4
18473.375,0.116,-0.783,0.63,8.61,-15.26,-5.28,3,4
18473.39,0.124,-0.782,0.644,10.07,-18.04,-7.02,3,4
18473.39,0.135,-0.767,0.654,12.82,-20.75,-8.58,3,4
18473.406,0.147,-0.744,0.659,15.78,-23.53,-10.01,3,4
18473.421,0.162,-0.718,0.672,18.4,-26.73,-11.29,3,4
18473.421,0.177,-0.69,0.683,20.69,-29.36,-11.87,3,4
18473.437,0.183,-0.664,0.695,21.67,-32.04,-11.54,3,4
18473.437,0.187,-0.648,0.714,22.61,-35.1,-10.41,3,4
18473.453,0.194,-0.636,0.73,25.64,-38.42,-8.7,3,4
18473.468,0.207,-0.619,0.734,29.91,-41.81,-6.16,3,4
18473.468,0.22,-0.596,0.736,33.33,-45.14,-3.66,3,4
18473.484,0.229,-0.58,0.74,35.13,-48.31,-1.5,3,4
18473.5,0.224,-0.565,0.743,36.41,-51.7,0.24,3,4
18473.5,0.223,-0.549,0.736,39.16,-56.52,1.59,3,4
18473.515,0.245,-0.543,0.734,43.64,-61.07,3.88,3,4
18473.531,0.283,-0.508,0.729,51.18,-60.82,12.76,3,4
18473.546,0.292,-0.493,0.737,50.84,-57.62,19.17,3,4
18473.546,0.286,-0.488,0.754,47.33,-54.14,26.43,3,4
18473.562,0.275,-0.49,0.794,41.41,-51.73,34.15,3,4
18473.578,0.26,-0.509,0.848,37.02,-50.97,41.57,3,4
18473.593,0.242,-0.528,0.868,35.49,-52.0,48.07,3,4
18473.593,0.218,-0.531,0.884,32.99,-55.57,52.16,3,4
18473.609,0.226,-0.557,0.906,31.01,-63.3,52.74,3,4
18473.609,0.252,-0.589,0.926,32.35,-72.36,47.91,3,4
18473.625,0.251,-0.589,0.944,39.31,-79.41,37.14,3,4
18473.64,0.23,-0.572,0.959,51.42,-84.81,22.95,3,4
18473.64,0.216,-0.563,0.96,66.71,-89.94,8.76,3,4
18473.656,0.221,-0.55,0.945,83.41,-93.05,-3.97,3,4
18473.671,0.233,-0.528,0.913,101.57,-91.31,-14.16,3,4
18473.671,0.244,-0.499,0.884,119.72,-84.38,-21.15,3,4
18473.687,0.248,-0.465,0.856,135.47,-73.61,-24.99,3,4
18473.687,0.224,-0.42,0.831,147.5,-60.03,-25.82,3,4
18473.703,0.171,-0.373,0.811,155.22,-45.38,-23.93,3,4
18473.718,0.12,-0.319,0.802,157.11,-32.5,-19.93,3,4
18473.718,0.102,-0.285,0.805,154.42,-24.87,-13.79,3,4
18473.734,0.128,-0.252,0.807,150.12,-19.1,-6.74,3,4
18473.75,0.088,-0.237,0.795,145.63,-9.58,0.49,3,4
18473.75,0.051,-0.243,0.766,138.28,1.8,7.54,3,4
18473.765,0.043,-0.24,0.756,127.99,13.0,14.95,3,4
18473.781,0.038,-0.251,0.749,119.72,28.26,21.03,3,4
18473.781,0.051,-0.274,0.727,114.29,46.57,26.73,3,4
18473.796,0.07,-0.294,0.704,110.97,69.64,33.69,3,4
18473.796,0.063,-0.314,0.683,109.68,97.2,40.89,3,4
18473.812,0.064,-0.328,0.678,108.58,126.07,48.77,3,4
18473.828,0.029,-0.341,0.694,106.78,154.76,56.92,3,4
18473.843,-0.045,-0.354,0.727,104.31,180.82,66.96,3,4
18473.843,-0.119,-0.348,0.783,104.43,202.12,78.83,3,4
18473.859,-0.195,-0.363,0.822,108.74,218.6,94.67,3,4
18473.859,-0.257,-0.366,0.857,112.8,228.03,115.82,3,4
18473.875,-0.272,-0.361,0.889,114.35,233.07,138.74,3,4
18473.89,-0.274,-0.352,0.921,111.27,238.69,160.99,3,4
18473.89,-0.292,-0.4,0.951,102.57,243.48,179.2,3,4
18473.906,-0.282,-0.481,0.968,89.69,242.77,186.41,3,4
18473.906,-0.303,-0.575,1.005,74.95,241.95,181.46,3,4
18473.921,-0.354,-0.676,1.044,65.1,235.18,164.07,3,4
18473.937,-0.359,-0.751,1.076,62.26,219.09,135.72,3,4
18473.937,-0.379,-0.763,1.092,67.6,200.38,102.24,3,4
18473.953,-0.438,-0.711,1.094,77.46,183.48,73.73,3,4
18473.968,-0.496,-0.606,1.121,85.45,167.52,57.19,3,4
18473.968,-0.529,-0.516,1.142,86.58,150.98,55.97,3,4
18473.984,-0.541,-0.489,1.163,79.47,131.44,66.53,3,4
18474.0,-0.539,-0.51,1.187,71.78,109.01,81.61,3,4
18474.0,-0.511,-0.535,1.203,70.35,84.96,95.0,3,4
18474.015,-0.499,-0.549,1.21,75.87,60.03,103.79,3,4
18474.031,-0.452,-0.547,1.165,89.66,10.22,111.42,3,4
18474.046,-0.429,-0.537,1.134,93.26,-11.29,111.7,3,4
18474.062,-0.402,-0.519,1.114,93.54,-28.72,109.96,3,4
18474.062,-0.388,-0.492,1.09,91.43,-43.03,105.93,3,4
18474.078,-0.372,-0.47,1.055,85.3,-56.49,100.01,3,4
18474.078,-0.348,-0.454,1.031,74.65,-69.0,91.95,3,4
18474.093,-0.323,-0.458,1.024,61.28,-80.45,81.7,3,4
18474.109,-0.302,-0.464,1.03,47.4,-92.26,68.73,3,4
18474.109,-0.28,-0.454,1.041,33.42,-104.13,53.99,3,4
18474.125,-0.266,-0.443,1.041,19.07,-115.94,38.15,3,4
18474.14,-0.263,-0.443,1.032,4.12,-127.72,22.55,3,4
18474.14,-0.248,-0.437,1.017,-9.86,-139.71,8.97,3,4
18474.156,-0.224,-0.422,1.003,-20.26,-150.79,-3.63,3,4
18474.171,-0.206,-0.429,0.98,-26.25,-161.96,-15.66,3,4
18474.171,-0.168,-0.439,0.968,-28.6,-173.16,-26.7,3,4
18474.187,-0.143,-0.433,0.955,-25.88,-183.26,-38.36,3,4
18474.187,-0.124,-0.428,0.94,-18.07,-191.81,-49.35,3,4
18474.203,-0.102,-0.41,0.937,-7.6,-199.22,-58.41,3,4
18474.218,-0.094,-0.382,0.932,5.89,-205.6,-64.36,3,4
18474.218,-0.086,-0.358,0.927,22.8,-210.61,-66.71,3,4
18474.234,-0.069,-0.31,0.915,42.42,-213.32,-67.11,3,4
18474.25,-0.063,-0.278,0.91,64.21,-214.64,-65.8,3,4
18474.25,-0.041,-0.228,0.924,85.63,-215.92,-66.59,3,4
18474.265,-0.014,-0.151,0.927,104.56,-218.05,-70.71,3,4
18474.281,0.005,-0.076,0.909,117.1,-221.84,-79.59,3,4
18474.281,0.034,0.035,0.86,119.91,-224.52,-92.23,3,4
18474.296,0.046,0.112,0.804,113.53,-220.86,-102.85,3,4
18474.312,0.134,0.208,0.805,86.92,-182.16,-103.09,3,4
18474.312,0.12,0.321,0.815,73.64,-163.64,-99.86,3,4
18474.328,0.079,0.443,0.854,63.75,-150.24,-95.22,3,4
18474.328,-0.016,0.652,1.025,61.37,-141.48,-90.95,3,4
18474.343,-0.067,0.735,1.09,68.48,-141.3,-84.29,3,4
18474.359,-0.025,0.817,1.102,95.13,-155.61,-67.17,3,4
18474.375,0.041,0.821,1.028,107.18,-161.69,-59.42,3,4
18474.39,0.107,0.819,0.93,115.05,-162.39,-52.89,3,4
18474.39,0.162,0.801,0.832,117.01,-156.13,-46.24,3,4
18474.406,0.216,0.786,0.755,112.67,-145.05,-39.98,3,4
18474.421,0.268,0.784,0.689,102.82,-129.0,-34.24,3,4
18474.421,0.273,0.762,0.638,87.98,-109.04,-28.72,3,4
18474.437,0.265,0.717,0.618,69.31,-89.42,-22.68,3,4
18474.453,0.273,0.669,0.622,49.41,-72.27,-17.61,3,4
18474.453,0.29,0.624,0.633,32.87,-56.7,-16.51,3,4
18474.468,0.287,0.584,0.655,22.43,-41.57,-19.47,3,4
18474.468,0.263,0.56,0.697,18.86,-28.5,-23.9,3,4
18474.484,0.245,0.543,0.741,22.16,-18.65,-27.19,3,4
18474.5,0.219,0.543,0.772,30.58,-10.04,-28.32,3,4
18474.5,0.188,0.552,0.796,38.61,-2.81,-28.29,3,4
18474.515,0.167,0.55,0.807,41.35,1.71,-29.48,3,4
18474.531,0.162,0.543,0.813,38.39,3.63,-32.99,3,4
18474.531,0.165,0.526,0.826,32.5,5.25,-37.26,3,4
18474.546,0.157,0.524,0.866,27.83,7.32,-41.78,3,4
18474.546,0.155,0.574,0.928,25.88,14.1,-49.87,3,4
18474.562,0.329,0.796,1.105,19.84,38.12,-69.46,3,4
18474.578,0.394,1.002,1.266,5.1,77.52,-93.51,3,4
18474.578,-0.102,0.704,1.201,4.12,82.89,-107.33,3,4
18474.593,-0.233,0.492,1.143,15.81,51.82,-92.99,3,4
18474.609,-0.051,0.62,1.132,34.06,14.68,-52.37,3,4
18474.625,0.042,0.708,0.984,60.73,-10.22,-18.98,3,4
18474.625,0.175,0.691,0.778,68.88,-25.12,-1.43,3,4
18474.64,0.277,0.655,0.65,49.65,-31.25,3.57,3,4
18474.64,0.346,0.622,0.572,26.58,-30.21,4.58,3,4
18474.656,0.417,0.579,0.512,11.63,-24.32,4.52,3,4
18474.671,0.475,0.551,0.493,2.56,-13.34,5.58,3,4
18474.671,0.508,0.532,0.502,-2.66,1.68,4.55,3,4
18474.687,0.512,0.51,0.533,-6.2,17.64,-1.04,3,4
18474.687,0.468,0.49,0.581,-7.81,32.17,-10.9,3,4
18474.703,0.411,0.492,0.624,-10.62,41.17,-20.26,3,4
18474.718,0.355,0.523,0.702,-16.54,43.55,-26.64,3,4
18474.718,0.303,0.557,0.773,-17.64,41.35,-33.08,3,4
18474.734,0.272,0.565,0.805,-11.23,37.26,-35.86,3,4
18474.75,0.25,0.622,0.83,-0.98,35.58,-33.75,3,4
18474.75,0.222,0.692,0.827,11.75,34.21,-28.96,3,4
18474.765,0.195,0.718,0.816,19.87,30.55,-20.97,3,4
18474.781,0.175,0.723,0.795,20.87,25.45,-10.96,3,4
18474.781,0.166,0.701,0.753,17.0,19.96,-0.27,3,4
18474.796,0.166,0.674,0.708,7.84,15.56,7.29,3,4
18474.796,0.176,0.641,0.664,-4.61,12.45,7.23,3,4
18474.812,0.186,0.596,0.645,-19.81,10.86,1.98,3,4
18474.828,0.219,0.565,0.636,-34.12,11.75,-5.77,3,4
18474.828,0.275,0.531,0.618,-42.91,18.07,-13.21,3,4
18474.843,0.286,0.497,0.605,-48.16,29.91,-17.73,3,4
18474.859,0.314,0.485,0.602,-51.97,43.15,-19.96,3,4
18474.859,0.29,0.486,0.651,-53.19,56.92,-23.77,3,4
18474.875,0.176,0.599,0.782,-57.1,61.53,-24.78,3,4
18474.89,0.174,0.663,0.962,-65.46,56.0,-21.12,3,4
18474.89,-0.02,0.771,1.113,-75.62,37.42,-17.94,3,4
18474.906,0.047,0.79,1.131,-77.76,9.98,-3.94,3,4
18474.906,0.183,0.522,0.965,-51.24,-10.07,9.7,3,4
18474.921,0.262,0.352,0.797,-30.79,-10.9,14.92,3,4
18474.937,0.249,0.333,0.777,-20.2,-2.47,10.41,3,4
18474.937,0.197,0.393,0.864,-10.56,3.91,5.8,3,4
18474.953,0.116,0.475,0.934,-1.68,3.14,3.63,3,4
18474.968,0.115,0.529,0.939,5.71,-4.85,6.29,3,4
18474.968,0.141,0.597,0.91,11.51,-13.34,10.47,3,4
18474.984,0.156,0.644,0.868,12.7,-19.62,16.05,3,4
18475.0,0.154,0.656,0.832,4.91,-26.28,22.86,3,4
18475.0,0.148,0.67,0.851,-9.89,-34.06,27.65,3,4
18475.015,0.22,0.66,0.782,-22.92,-42.09,32.72,3,4
18475.031,0.273,0.51,0.689,-31.31,-41.87,34.49,3,4
18475.031,0.243,0.503,0.727,-48.65,-38.24,30.79,3,4
18475.046,0.33,0.499,0.803,-63.14,-38.61,29.08,3,4
18475.046,0.37,0.353,0.723,-49.81,-30.76,29.45,3,4
18475.062,0.368,0.328,0.716,-43.92,-17.82,25.09,3,4
18475.078,0.387,0.346,0.756,-42.02,-6.44,18.77,3,4
18475.078,0.37,0.312,0.788,-35.62,3.45,10.86,3,4
18475.093,0.335,0.328,0.843,-29.97,10.47,4.03,3,4
18475.109,0.316,0.385,0.907,-23.5,13.09,0.06,3,4
18475.125,0.286,0.407,0.942,-16.54,12.51,-1.71,3,4
18475.125,0.257,0.42,0.948,-9.13,8.45,-2.56,3,4
18475.14,0.248,0.443,0.928,-3.57,2.59,-2.41,3,4
18475.14,0.255,0.447,0.897,-1.22,-3.02,-2.38,3,4
18475.156,0.261,0.436,0.865,-1.16,-6.35,-1.92,3,4
18475.171,0.267,0.434,0.84,-1.07,-7.14,-0.64,3,4
18475.171,0.275,0.439,0.833,-0.21,-6.47,0.85,3,4
18475.187,0.284,0.437,0.836,0.95,-5.13,2.04,3,4
18475.187,0.293,0.427,0.835,2.23,-3.2,2.93,3,4
18475.203,0.297,0.425,0.84,3.91,-1.07,3.39,3,4
18475.218,0.306,0.418,0.843,5.98,0.82,2.81,3,4
18475.218,0.32,0.394,0.824,8.48,2.23,0.46,3,4
18475.234,0.339,0.383,0.796,9.55,4.73,-3.51,3,4
18475.25,0.346,0.389,0.756,10.13,9.58,-8.24,3,4
18475.25,0.368,0.402,0.738,7.45,15.93,-14.19,3,4
18475.265,0.386,0.387,0.714,5.1,24.84,-21.21,3,4
18475.281,0.39,0.337,0.685,6.41,38.97,-28.53,3,4
18475.281,0.306,0.345,0.737,0.58,56.67,-36.81,3,4
18475.296,0.137,0.559,0.957,-8.51,41.69,-33.08,3,4
18475.312,0.119,0.631,1.129,-6.01,18.83,-28.26,3,4
18475.312,-0.064,0.687,1.148,-5.34,-9.25,-11.05,3,4
18475.328,0.183,0.468,0.835,7.39,-22.71,0.82,3,4
18475.343,0.193,0.451,0.737,6.1,-18.46,4.0,3,4
18475.343,0.188,0.454,0.765,2.01,-13.21,5.89,3,4
18475.359,0.18,0.481,0.824,-4.49,-12.39,7.81,3,4
18475.359,0.197,0.493,0.864,-10.96,-15.47,9.25,3,4
18475.375,0.219,0.51,0.897,-15.11,-17.46,12.02,3,4
18475.39,0.219,0.507,0.931,-16.63,-18.34,14.95,3,4
18475.39,0.158,0.472,0.952,-15.99,-22.55,16.48,3,4
18475.406,0.236,0.411,0.889,-13.34,-30.98,21.42,3,4
18475.406,0.274,0.308,0.828,-4.88,-32.44,21.52,3,4
18475.421,0.272,0.402,0.879,-8.09,-28.99,18.62,3,4
18475.437,0.278,0.417,0.91,-8.3,-29.24,16.05,3,4
18475.453,0.282,0.38,0.88,-2.87,-31.1,13.06,3,4
18475.453,0.274,0.363,0.845,6.9,-30.7,13.98,3,4
18475.468,0.324,0.392,0.81,14.4,-27.99,15.5,3,4
18475.468,0.338,0.424,0.766,19.07,-20.72,11.93,3,4
18475.484,0.305,0.401,0.734,17.94,-13.12,8.12,3,4
18475.5,0.338,0.412,0.732,13.64,-7.9,5.65,3,4
18475.5,0.348,0.444,0.735,10.74,0.12,2.08,3,4
18475.515,0.324,0.45,0.757,6.56,7.39,-0.82,3,4
18475.531,0.313,0.473,0.813,2.17,10.53,-2.69,3,4
18475.531,0.285,0.499,0.868,0.58,11.26,-2.44,3,4
18475.546,0.252,0.505,0.906,0.24,8.7,-0.34,3,4
18475.562,0.226,0.502,0.926,-0.21,2.47,2.66,3,4
18475.562,0.24,0.49,0.928,-0.79,-5.77,6.41,3,4
18475.578,0.259,0.485,0.925,-3.78,-12.6,8.76,3,4
18475.578,0.262,0.459,0.899,-6.74,-17.24,9.95,3,4
18475.593,0.253,0.412,0.856,-6.38,-21.58,11.81,3,4
18475.609,0.286,0.384,0.82,-4.46,-25.42,14.56,3,4
18475.625,0.35,0.407,0.809,-2.17,-24.81,15.99,3,4
18475.625,0.36,0.43,0.803,0.52,-19.81,14.34,3,4
18475.64,0.342,0.43,0.798,2.93,-15.29,12.82,3,4
18475.64,0.338,0.431,0.792,5.83,-13.21,13.03,3,4
18475.656,0.356,0.437,0.786,8.33,-11.63,13.18,3,4
18475.671,0.373,0.448,0.784,8.55,-8.61,11.72,3,4
18475.671,0.367,0.441,0.783,7.29,-5.4,8.64,3,4
18475.687,0.355,0.434,0.783,5.22,-3.23,4.76,3,4
18475.687,0.36,0.428,0.78,2.66,-1.62,1.53,3,4
18475.703,0.365,0.434,0.778,-1.28,1.77,-2.01,3,4
18475.718,0.336,0.426,0.77,-5.04,6.07,-6.59,3,4
18475.718,0.328,0.4,0.778,-8.27,9.37,-9.46,3,4
18475.734,0.342,0.398,0.8,-10.22,13.31,-10.99,3,4
18475.75,0.358,0.373,0.792,-7.26,18.52,-13.03,3,4
18475.75,0.355,0.356,0.761,-5.46,26.31,-15.84,3,4
18475.765,0.339,0.363,0.756,-6.65,34.91,-18.83,3,4
18475.781,0.372,0.34,0.759,-5.31,43.73,-21.33,3,4
18475.781,0.308,0.363,0.823,-2.81,54.63,-25.94,3,4
18475.796,0.197,0.547,0.986,-14.47,51.91,-29.82,3,4
18475.796,0.169,0.461,1.061,-15.41,38.42,-28.53,3,4
18475.812,0.019,0.562,1.101,-17.06,16.51,-27.62,3,4
18475.828,0.189,0.574,1.028,-12.3,-8.03,-14.62,3,4
18475.828,0.247,0.442,0.858,8.09,-13.03,-6.2,3,4
18475.843,0.244,0.458,0.792,15.26,-6.68,0.34,3,4
18475.859,0.224,0.479,0.794,19.44,-2.84,4.15,3,4
18475.859,0.218,0.535,0.85,16.69,-4.09,7.45,3,4
18475.875,0.23,0.557,0.894,10.68,-9.95,9.86,3,4
18475.89,0.256,0.524,0.89,4.91,-17.82,11.51,3,4
18475.89,0.275,0.478,0.845,0.64,-22.16,14.04,3,4
18475.906,0.257,0.458,0.836,-6.1,-24.2,13.46,3,4
18475.921,0.251,0.484,0.838,-11.87,-27.19,14.44,3,4
18475.921,0.349,0.387,0.788,-11.44,-26.83,17.27,3,4
18475.937,0.297,0.364,0.804,-11.47,-21.06,12.39,3,4
18475.937,0.31,0.4,0.853,-15.11,-18.77,11.08,3,4
18475.953,0.315,0.362,0.883,-14.98,-19.71,6.9,3,4
18475.968,0.314,0.365,0.885,-13.34,-21.33,2.75,3,4
18475.968,0.311,0.356,0.87,-2.23,-18.92,3.51,3,4
18475.984,0.299,0.389,0.871,3.3,-17.21,3.02,3,4
18476.0,0.294,0.393,0.86,6.81,-16.97,2.32,3,4
18476.0,0.303,0.401,0.839,7.11,-17.09,1.53,3,4
18476.015,0.314,0.417,0.834,6.9,-16.11,0.55,3,4
18476.031,0.318,0.422,0.809,9.28,-13.86,-0.03,3,4
18476.031,0.319,0.433,0.795,12.39,-10.53,0.73,3,4
18476.046,0.332,0.455,0.783,14.56,-7.05,1.59,3,4
18476.046,0.335,0.468,0.77,14.1,-3.39,1.77,3,4
18476.062,0.326,0.48,0.786,10.41,-0.31,1.53,3,4
18476.078,0.311,0.489,0.814,6.29,0.34,1.92,3,4
18476.078,0.319,0.488,0.838,2.44,-1.89,3.94,3,4
18476.093,0.325,0.491,0.845,0.34,-3.23,5.01,3,4
18476.109,0.31,0.477,0.843,-1.25,-4.27,6.23,3,4
18476.109,0.306,0.468,0.853,-3.02,-6.35,8.03,3,4
18476.125,0.311,0.458,0.854,-5.19,-9.52,9.13,3,4
18476.14,0.312,0.431,0.838,-7.48,-12.33,9.46,3,4
18476.14,0.324,0.409,0.818,-8.91,-13.76,9.22,3,4
18476.156,0.344,0.399,0.807,-9.06,-12.94,8.18,3,4
18476.156,0.351,0.39,0.802,-8.27,-9.49,5.89,3,4
18476.171,0.343,0.384,0.802,-6.62,-5.58,3.33,3,4
18476.187,0.339,0.395,0.816,-4.24,-2.87,1.77,3,4
18476.187,0.337,0.43,0.842,-1.8,-1.4,1.07,3,4
18476.203,0.33,0.459,0.855,-1.25,-1.16,1.01,3,4
18476.218,0.322,0.465,0.854,-1.77,-2.69,1.62,3,4
18476.218,0.321,0.457,0.841,-2.78,-5.01,3.02,3,4
18476.234,0.334,0.447,0.823,-4.58,-6.87,4.33,3,4
18476.25,0.351,0.428,0.817,-6.29,-7.02,5.16,3,4
18476.25,0.359,0.42,0.809,-6.74,-5.4,5.95,3,4
18476.265,0.365,0.417,0.805,-5.95,-3.05,6.07,3,4
18476.281,0.373,0.398,0.797,-5.95,1.98,3.91,3,4
18476.281,0.367,0.393,0.799,-6.74,4.3,1.62,3,4
18476.296,0.367,0.398,0.805,-6.2,6.78,0.03,3,4
18476.296,0.353,0.384,0.822,-4.91,9.92,-1.71,3,4
18476.312,0.339,0.393,0.836,-2.66,12.24,-3.2,3,4
18476.328,0.322,0.414,0.86,-0.27,13.21,-3.69,3,4
18476.328,0.309,0.423,0.879,1.37,12.21,-3.48,3,4
18476.343,0.305,0.421,0.887,1.83,8.94,-2.87,3,4
18476.359,0.308,0.423,0.888,2.53,5.22,-2.75,3,4
18476.359,0.304,0.423,0.878,4.09,2.44,-2.35,3,4
18476.375,0.296,0.429,0.865,5.13,0.03,-1.37,3,4
18476.39,0.299,0.435,0.855,4.79,-2.2,-0.24,3,4
18476.406,0.314,0.43,0.841,3.69,-4.52,3.02,3,4
18476.406,0.326,0.424,0.837,4.67,-4.61,4.55,3,4
18476.421,0.332,0.422,0.835,5.92,-3.97,5.49,3,4
18476.437,0.334,0.413,0.83,7.23,-3.39,5.71,3,4
18476.437,0.338,0.409,0.824,8.0,-2.84,4.94,3,4
18476.453,0.345,0.404,0.81,7.78,-1.86,1.92,3,4
18476.468,0.342,0.396,0.811,5.52,-1.31,-0.85,3,4
18476.468,0.345,0.417,0.818,2.93,-0.7,-3.72,3,4
18476.484,0.344,0.428,0.821,0.73,-0.55,-6.96,3,4
18476.5,0.336,0.433,0.83,-1.5,-0.67,-9.16,3,4
18476.5,0.335,0.449,0.848,-2.69,-1.28,-9.09,3,4
18476.515,0.324,0.447,0.853,-1.34,-2.11,-7.6,3,4
18476.515,0.326,0.445,0.847,0.92,-2.47,-5.07,3,4
18476.531,0.331,0.44,0.829,2.2,-2.62,-3.51,3,4
18476.546,0.332,0.423,0.815,1.28,-2.75,-3.51,3,4
18476.546,0.334,0.421,0.814,-1.16,-2.84,-4.73,3,4
18476.578,0.336,0.414,0.832,-2.08,-2.38,-7.51,3,4
18476.593,0.33,0.421,0.843,-0.55,-1.92,-8.39,3,4
18476.593,0.317,0.431,0.837,2.17,-1.4,-8.3,3,4
18476.609,0.32,0.444,0.842,3.33,-1.62,-7.97,3,4
18476.609,0.323,0.456,0.843,3.81,-2.41,-6.96,3,4
18476.625,0.322,0.461,0.851,5.49,-2.9,-4.61,3,4
18476.64,0.337,0.449,0.841,8.58,-3.3,-2.08,3,4
18476.64,0.342,0.426,0.814,10.38,-2.38,-1.13,3,4
18476.656,0.346,0.416,0.795,8.39,-1.31,-2.26,3,4
18476.656,0.348,0.412,0.789,4.55,0.24,-4.85,3,4
18476.671,0.346,0.406,0.797,0.52,2.17,-7.9,3,4
18476.687,0.343,0.395,0.812,-2.5,3.6,-10.41,3,4
18476.687,0.345,0.397,0.828,-3.11,5.07,-12.39,3,4
18476.703,0.338,0.412,0.838,-1.31,6.68,-13.82,3,4
18476.718,0.324,0.419,0.846,0.98,7.84,-15.05,3,4
18476.734,0.305,0.43,0.847,3.3,7.75,-15.5,3,4
18476.75,0.279,0.485,0.845,4.18,4.82,-14.5,3,4
18476.75,0.267,0.512,0.836,3.63,2.81,-12.54,3,4
18476.765,0.259,0.538,0.816,0.92,0.52,-9.86,3,4
18476.781,0.256,0.564,0.793,-4.03,-1.1,-6.29,3,4
18476.781,0.258,0.58,0.778,-11.63,-1.95,-2.26,3,4
18476.796,0.262,0.568,0.787,-21.45,-2.84,1.13,3,4
18476.796,0.283,0.539,0.822,-27.31,-3.27,5.1,3,4
18476.812,0.34,0.477,0.832,-25.54,-3.63,15.35,3,4
18476.828,0.399,0.443,0.822,-21.12,-1.16,24.08,3,4
18476.843,0.411,0.378,0.807,-17.33,2.66,23.32,3,4
18476.843,0.402,0.307,0.783,-15.72,6.13,17.15,3,4
18476.859,0.39,0.292,0.774,-15.38,11.69,10.86,3,4
18476.859,0.364,0.293,0.766,-13.03,18.98,4.3,3,4
18476.875,0.343,0.32,0.768,-10.71,26.09,-1.56,3,4
18476.89,0.313,0.371,0.794,-9.61,33.39,-7.17,3,4
18476.89,0.282,0.385,0.838,-10.1,38.54,-10.86,3,4
18476.921,0.188,0.458,1.013,-21.7,30.79,-12.33,3,4
18476.921,0.168,0.476,1.064,-24.23,17.91,-12.45,3,4
18476.937,0.153,0.435,1.025,-18.59,4.55,-9.55,3,4
18476.937,0.174,0.432,0.968,-11.17,-5.34,-2.93,3,4
18476.953,0.207,0.441,0.916,-2.5,-9.06,3.57,3,4
18476.968,0.252,0.402,0.877,3.36,-9.28,8.91,3,4
18476.968,0.3,0.362,0.855,4.61,-7.02,10.77,3,4
18476.984,0.315,0.327,0.833,5.89,-3.94,8.64,3,4
18477.0,0.318,0.311,0.814,8.15,-0.12,4.67,3,4
18477.0,0.32,0.325,0.805,10.07,4.73,-0.18,3,4
18477.015,0.306,0.352,0.805,11.14,10.28,-5.86,3,4
18477.031,0.281,0.385,0.811,10.35,15.35,-11.2,3,4
18477.031,0.257,0.44,0.832,7.08,17.79,-15.41,3,4
18477.046,0.235,0.495,0.863,1.53,15.9,-16.14,3,4
18477.046,0.228,0.537,0.892,-6.04,11.41,-12.05,3,4
18477.062,0.23,0.545,0.915,-12.67,6.23,-4.52,3,4
18477.093,0.255,0.479,0.886,-13.34,-1.83,11.14,3,4
18477.093,0.244,0.425,0.862,-11.32,-3.17,14.16,3,4
18477.109,0.256,0.384,0.867,-11.02,-4.85,13.49,3,4
18477.109,0.285,0.371,0.876,-9.46,-6.99,11.72,3,4
18477.125,0.305,0.36,0.877,-6.78,-7.6,11.29,3,4
18477.14,0.333,0.354,0.876,-4.33,-7.35,10.1,3,4
18477.14,0.338,0.353,0.859,-2.75,-7.23,7.17,3,4
18477.156,0.344,0.355,0.845,-3.11,-6.96,3.54,3,4
18477.156,0.35,0.393,0.829,-5.43,-4.85,1.5,3,4
18477.171,0.37,0.372,0.795,-3.45,0.31,1.4,3,4
18477.187,0.358,0.35,0.818,-5.65,6.35,-1.98,3,4
18477.187,0.344,0.338,0.815,-5.22,12.82,-5.95,3,4
18477.203,0.329,0.329,0.814,-4.79,17.55,-8.79,3,4
18477.218,0.302,0.351,0.844,-7.23,20.91,-9.58,3,4
18477.218,0.289,0.365,0.885,-9.98,21.64,-8.94,3,4
18477.234,0.269,0.366,0.924,-11.87,21.09,-9.55,3,4
18477.25,0.245,0.341,0.946,-10.65,18.65,-12.18,3,4
18477.25,0.244,0.318,0.957,2.11,11.44,-19.2,3,4
18477.265,0.231,0.325,0.97,10.19,8.15,-21.09,3,4
18477.281,0.22,0.331,0.966,17.18,4.52,-21.85,3,4
18477.281,0.215,0.338,0.948,22.64,1.34,-21.82,3,4
18477.296,0.23,0.372,0.907,27.53,-0.7,-22.0,3,4
18477.312,0.233,0.403,0.89,32.62,-1.46,-21.45,3,4
18477.312,0.301,0.39,0.81,38.91,0.67,-19.53,3,4
18477.328,0.228,0.339,0.839,43.86,8.55,-21.3,3,4
18477.328,0.158,0.526,0.978,34.15,7.26,-20.05,3,4
18477.343,0.219,0.489,0.95,37.42,-2.9,-16.27,3,4
18477.359,0.208,0.433,0.879,39.8,-10.32,-17.55,3,4
18477.359,0.23,0.45,0.838,37.66,-12.67,-18.1,3,4
18477.375,0.227,0.463,0.807,37.84,-12.02,-18.8,3,4
18477.39,0.199,0.493,0.814,36.56,-10.53,-18.83,3,4
18477.406,0.171,0.546,0.875,32.69,-12.15,-16.3,3,4
18477.406,0.165,0.576,0.948,32.14,-16.82,-10.56,3,4
18477.421,0.131,0.5,1.007,40.53,-33.3,4.46,3,4
18477.437,0.099,0.495,1.05,41.2,-47.64,10.22,3,4
18477.437,0.164,0.507,0.962,36.87,-65.16,19.47,3,4
18477.453,0.236,0.407,0.891,17.85,-80.75,13.43,3,4
18477.468,0.21,0.474,0.933,-6.2,-95.4,3.23,3,4
18477.468,0.293,0.429,0.808,3.2,-101.29,8.06,3,4
18477.484,0.325,0.484,0.778,7.08,-98.94,7.81,3,4
18477.5,0.337,0.534,0.814,14.31,-88.87,13.61,3,4
18477.5,0.334,0.46,0.794,33.33,-77.91,21.79,3,4
18477.515,0.349,0.402,0.766,55.51,-67.51,28.75,3,4
18477.531,0.36,0.391,0.724,76.57,-59.24,31.37,3,4
18477.531,0.377,0.419,0.705,90.49,-53.71,28.53,3,4
18477.546,0.366,0.482,0.723,95.22,-50.78,20.42,3,4
18477.546,0.355,0.59,0.779,86.06,-53.41,12.94,3,4
18477.562,0.381,0.658,0.8,71.75,-59.51,8.67,3,4
18477.578,0.419,0.66,0.77,61.01,-60.55,7.26,3,4
18477.593,0.539,0.686,0.736,70.35,-39.34,6.84,3,4
18477.609,0.807,0.879,0.82,86.58,-5.13,5.71,3,4
18477.625,0.928,1.244,0.865,103.03,46.63,-8.61,3,4
18477.625,0.857,1.617,0.952,109.04,112.31,-40.74,3,4
18477.64,0.541,1.909,1.095,66.32,153.11,-42.48,3,4
18477.64,0.269,2.001,1.239,5.46,169.16,-21.24,3,4
18477.656,0.097,1.94,1.349,-57.07,150.79,26.49,3,4
18477.671,0.136,1.667,1.372,-106.14,109.74,82.49,3,4
18477.671,0.334,1.305,1.336,-137.09,62.84,122.5,3,4
18477.687,0.541,0.97,1.266,-142.37,26.7,134.04,3,4
18477.687,0.645,0.689,1.203,-118.2,7.02,124.91,3,4
18477.703,0.661,0.539,1.115,-69.34,-3.17,106.45,3,4
18477.718,0.612,0.506,0.986,-11.9,-9.34,87.98,3,4
18477.718,0.556,0.558,0.84,36.71,-14.5,76.08,3,4
18477.734,0.543,0.619,0.702,65.52,-16.72,74.95,3,4
18477.75,0.559,0.666,0.619,68.58,-12.82,85.02,3,4
18477.765,0.641,0.685,0.515,15.14,7.97,126.07,3,4
18477.781,0.632,0.633,0.522,-22.55,21.73,141.79,3,4
18477.781,0.665,0.545,0.587,-52.8,29.27,153.81,3,4
18477.796,0.682,0.482,0.638,-65.61,34.33,159.03,3,4
18477.812,0.682,0.452,0.659,-61.37,36.84,160.16,3,4
18477.812,0.691,0.437,0.656,-46.88,37.17,161.02,3,4
18477.828,0.682,0.46,0.623,-29.91,37.72,161.44,3,4
18477.843,0.665,0.495,0.581,-15.32,39.52,163.15,3,4
18477.843,0.631,0.521,0.549,-7.63,44.31,167.09,3,4
18477.859,0.569,0.539,0.509,-7.35,48.25,170.57,3,4
18477.875,0.515,0.564,0.458,-12.67,49.96,172.8,3,4
18477.875,0.458,0.584,0.412,-22.98,49.96,173.83,3,4
18477.89,0.415,0.6,0.398,-35.46,48.13,174.44,3,4
18477.89,0.402,0.61,0.399,-43.95,47.64,177.62,3,4
18477.906,0.411,0.607,0.402,-47.3,49.93,184.27,3,4
18477.921,0.441,0.606,0.404,-48.34,53.04,192.14,3,4
18477.921,0.455,0.605,0.397,-51.85,56.37,197.61,3,4
18477.937,0.437,0.588,0.392,-58.05,57.8,197.61,3,4
18477.937,0.41,0.56,0.397,-65.86,53.68,193.49,3,4
18477.953,0.422,0.523,0.382,-73.67,42.73,187.08,3,4
18477.968,0.445,0.482,0.341,-81.09,30.34,178.14,3,4
18477.984,0.466,0.437,0.319,-88.47,21.36,167.7,3,4
18477.984,0.46,0.394,0.295,-96.13,16.48,159.34,3,4
18478.0,0.418,0.348,0.284,-107.24,13.37,154.97,3,4
18478.0,0.37,0.257,0.307,-119.39,13.31,156.07,3,4
18478.015,0.327,0.16,0.369,-124.94,19.38,167.73,3,4
18478.031,0.268,0.085,0.446,-125.74,27.07,187.78,3,4
18478.031,0.222,0.007,0.488,-131.93,27.31,209.66,3,4
18478.046,0.132,-0.109,0.493,-148.32,19.35,228.58,3,4
18478.046,0.015,-0.244,0.481,-183.63,-5.89,237.59,3,4
18478.062,-0.113,-0.337,0.527,-237.34,-56.49,234.69,3,4
18478.078,-0.133,-0.514,0.53,-281.93,-118.59,226.33,3,4
18478.093,0.111,-0.993,0.374,-264.32,-179.02,186.8,3,4
18478.109,0.232,-1.056,0.357,-198.55,-157.35,162.33,3,4
18478.109,0.244,-1.001,0.318,-115.21,-117.89,140.48,3,4
18478.125,0.217,-0.799,0.328,-51.48,-80.02,116.49,3,4
18478.14,0.197,-0.598,0.35,-19.23,-45.87,95.07,3,4
18478.14,0.183,-0.442,0.416,-23.8,-14.77,79.78,3,4
18478.156,0.132,-0.4,0.533,-59.82,10.74,68.61,3,4
18478.171,0.128,-0.499,0.685,-105.44,27.92,64.0,3,4
18478.171,0.141,-0.667,0.814,-128.27,44.07,63.6,3,4
18478.187,0.101,-0.797,0.948,-116.37,61.71,64.79,3,4
18478.203,0.098,-0.883,1.049,-88.56,75.47,71.57,3,4
18478.203,0.078,-0.831,1.066,-66.56,77.18,75.47,3,4
18478.218,0.099,-0.848,1.06,-55.91,77.97,80.48,3,4
18478.218,0.065,-0.846,1.062,-53.07,76.05,84.17,3,4
18478.234,0.009,-0.811,1.061,-53.99,69.34,86.98,3,4
18478.25,-0.051,-0.894,1.063,-73.43,36.93,91.13,3,4
18478.265,0.089,-0.999,1.044,-55.33,25.67,68.82,3,4
18478.281,0.073,-1.089,0.922,-40.28,29.42,46.3,3,4
18478.281,0.082,-1.038,0.879,-23.74,35.83,20.87,3,4
18478.296,0.038,-0.971,0.824,-5.43,43.67,-2.75,3,4
18478.296,0.008,-0.846,0.801,9.89,50.97,-19.81,3,4
18478.312,-0.048,-0.76,0.802,19.78,51.39,-21.67,3,4
18478.328,-0.092,-0.69,0.771,27.92,44.77,-9.09,3,4
18478.328,-0.12,-0.629,0.699,31.74,29.21,12.42,3,4
18478.343,-0.155,-0.604,0.611,25.54,5.4,38.73,3,4
18478.359,-0.114,-0.622,0.547,7.93,-22.19,63.51,3,4
18478.359,-0.018,-0.66,0.511,-12.45,-46.36,80.75,3,4
18478.375,0.038,-0.745,0.457,-23.5,-61.77,94.64,3,4
18478.39,0.115,-0.818,0.399,-24.05,-68.09,106.66,3,4
18478.39,0.192,-0.849,0.343,-19.23,-65.55,111.91,3,4
18478.406,0.262,-0.852,0.308,-13.55,-56.83,108.52,3,4
18478.406,0.312,-0.861,0.32,-6.29,-42.63,100.41,3,4
18478.421,0.324,-0.852,0.353,2.93,-25.03,93.23,3,4
18478.437,0.325,-0.838,0.428,5.19,-7.05,86.76,3,4
18478.453,0.346,-0.768,0.524,-2.08,5.86,75.44,3,4
18478.453,0.334,-0.759,0.59,-7.23,11.9,59.88,3,4
18478.468,0.283,-0.778,0.629,-8.0,14.16,49.1,3,4
18478.468,0.257,-0.756,0.646,-4.97,11.69,45.35,3,4
18478.484,0.251,-0.75,0.636,-2.2,7.26,46.3,3,4
18478.5,0.249,-0.751,0.601,-2.35,3.97,48.62,3,4
18478.5,0.257,-0.767,0.588,-5.52,4.0,53.01,3,4
18478.515,0.253,-0.782,0.58,-5.37,6.99,56.03,3,4
18478.531,0.24,-0.793,0.586,-0.09,10.93,55.45,3,4
18478.531,0.205,-0.796,0.596,6.93,15.75,51.45,3,4
18478.546,0.165,-0.78,0.597,11.08,18.22,42.79,3,4
18478.546,0.147,-0.761,0.596,9.22,17.76,29.66,3,4
18478.562,0.147,-0.748,0.621,4.73,15.29,13.52,3,4
18478.578,0.148,-0.723,0.636,3.3,11.78,-1.95,3,4
18478.578,0.157,-0.676,0.656,4.3,10.22,-12.67,3,4
18478.593,0.157,-0.645,0.676,8.73,10.77,-18.37,3,4
18478.609,0.15,-0.627,0.693,14.68,11.11,-18.34,3,4
18478.609,0.148,-0.598,0.708,18.62,10.44,-13.34,3,4
18478.625,0.153,-0.577,0.718,18.74,8.79,-5.1,3,4
18478.64,0.153,-0.571,0.732,14.8,6.01,3.48,3,4
18478.64,0.152,-0.583,0.739,9.55,2.38,10.41,3,4
18478.656,0.145,-0.606,0.734,6.59,-1.53,13.92,3,4
18478.671,0.142,-0.625,0.724,7.45,-5.49,12.6,3,4
18478.671,0.162,-0.636,0.719,11.11,-9.83,6.65,3,4
18478.687,0.176,-0.629,0.715,19.17,-11.44,-0.61,3,4
18478.687,0.189,-0.6,0.711,27.53,-9.49,-7.23,3,4
18478.703,0.207,-0.56,0.712,31.8,-8.06,-13.37,3,4
18478.718,0.211,-0.532,0.724,33.08,-5.74,-15.87,3,4
18478.718,0.188,-0.516,0.741,32.07,-2.26,-13.31,3,4
18478.734,0.165,-0.514,0.75,26.83,-1.53,-6.93,3,4
18478.75,0.154,-0.535,0.765,18.8,-4.33,1.92,3,4
18478.765,0.159,-0.579,0.768,12.18,-8.82,11.47,3,4
18478.765,0.184,-0.628,0.77,7.57,-12.27,20.39,3,4
18478.781,0.208,-0.672,0.769,6.16,-11.78,27.16,3,4
18478.781,0.208,-0.727,0.761,7.9,-7.84,30.18,3,4
18478.796,0.203,-0.756,0.766,8.7,-2.35,29.54,3,4
18478.812,0.19,-0.772,0.78,8.03,2.87,25.15,3,4
18478.812,0.168,-0.782,0.8,6.26,6.44,18.04,3,4
18478.828,0.174,-0.772,0.82,5.34,6.23,9.0,3,4
18478.828,0.196,-0.76,0.827,8.97,5.37,0.85,3,4
18478.843,0.211,-0.749,0.845,13.34,6.07,-2.99,3,4
18478.859,0.226,-0.742,0.86,13.03,4.88,-1.59,3,4
18478.875,0.246,-0.769,0.861,9.4,0.64,4.94,3,4
18478.875,0.261,-0.81,0.866,2.93,-3.91,14.74,3,4
18478.875,0.255,-0.858,0.875,-7.11,-9.22,23.16,3,4
18478.89,0.241,-0.94,0.858,-17.55,-18.25,27.56,3,4
18478.906,0.251,-1.024,0.837,-23.74,-28.05,27.16,3,4
18478.921,0.269,-1.082,0.808,-22.19,-34.85,22.31,3,4
18478.921,0.29,-1.142,0.769,-13.21,-38.18,15.23,3,4
18478.937,0.304,-1.153,0.733,-4.24,-37.39,5.16,3,4
18478.937,0.302,-1.144,0.701,0.43,-36.5,-9.8,3,4
18478.953,0.278,-1.145,0.693,2.62,-35.52,-27.25,3,4
18478.968,0.233,-1.152,0.68,5.83,-34.67,-42.12,3,4
18478.968,0.176,-1.12,0.635,11.44,-34.55,-52.95,3,4
18478.984,0.116,-1.059,0.571,16.6,-34.82,-60.09,3,4
18479.0,0.101,-1.006,0.491,19.99,-36.41,-63.84,3,4
18479.015,0.117,-0.938,0.401,21.49,-36.13,-65.13,3,4
18479.015,0.164,-0.849,0.348,16.17,-29.05,-62.35,3,4
18479.015,0.203,-0.77,0.372,4.43,-15.2,-56.18,3,4
18479.031,0.195,-0.731,0.421,-7.87,2.96,-48.43,3,4
18479.046,0.171,-0.661,0.527,-21.88,19.1,-39.31,3,4
18479.062,0.109,-0.595,0.716,-31.62,28.81,-29.18,3,4
18479.062,0.059,-0.568,0.841,-31.1,29.48,-15.44,3,4
18479.078,0.059,-0.488,0.942,-31.86,22.98,3.02,3,4
18479.078,0.096,-0.437,0.991,-34.79,13.25,21.91,3,4
18479.093,0.151,-0.388,1.002,-44.28,1.8,40.1,3,4
18479.109,0.183,-0.364,1.02,-58.17,-10.25,56.09,3,4
18479.109,0.184,-0.397,1.013,-70.56,-23.74,69.98,3,4
18479.125,0.179,-0.429,1.008,-77.27,-39.55,82.34,3,4
18479.14,0.192,-0.474,0.943,-72.05,-55.42,91.74,3,4
18479.14,0.224,-0.507,0.857,-62.84,-68.33,99.03,3,4
18479.156,0.271,-0.528,0.762,-54.08,-76.2,100.92,3,4
18479.171,0.318,-0.525,0.67,-48.65,-79.44,96.5,3,4
18479.171,0.346,-0.533,0.622,-47.49,-78.68,87.98,3,4
18479.187,0.339,-0.562,0.595,-45.53,-73.98,78.68,3,4
18479.187,0.306,-0.563,0.59,-39.31,-68.24,70.22,3,4
18479.203,0.239,-0.525,0.609,-29.11,-64.24,63.75,3,4
18479.218,0.109,-0.504,0.658,-17.12,-64.79,59.66,3,4
18479.218,0.05,-0.518,0.624,-5.71,-87.77,65.8,3,4
18479.234,0.092,-0.5,0.547,-8.73,-94.0,67.2,3,4
18479.25,0.133,-0.544,0.449,-11.93,-93.39,65.89,3,4
18479.265,0.175,-0.624,0.339,-13.49,-84.66,60.43,3,4
18479.265,0.206,-0.73,0.207,-10.93,-69.83,50.05,3,4
18479.281,0.176,-0.776,0.21,-6.99,-53.74,37.72,3,4
18479.281,0.157,-0.779,0.249,-2.75,-39.52,24.05,3,4
18479.296,0.137,-0.791,0.286,3.08,-25.39,11.51,3,4
18479.296,0.129,-0.784,0.324,7.48,-11.17,3.3,3,4
18479.312,0.103,-0.77,0.375,7.78,3.05,-2.35,3,4
18479.328,0.045,-0.753,0.492,4.39,13.43,-7.11,3,4
18479.328,-0.025,-0.752,0.607,3.08,16.48,-8.82,3,4
18479.343,-0.076,-0.756,0.669,2.35,14.04,-6.32,3,4
18479.359,-0.071,-0.758,0.722,1.53,6.84,-2.41,3,4
18479.375,-0.073,-0.771,0.735,5.58,-1.65,0.7,3,4
18479.375,-0.062,-0.788,0.714,10.56,-9.52,4.91,3,4
18479.39,-0.045,-0.792,0.683,11.84,-14.53,9.98,3,4
18479.39,-0.054,-0.822,0.669,10.62,-16.45,15.14,3,4
18479.406,-0.066,-0.846,0.652,10.83,-17.24,20.81,3,4
18479.421,-0.076,-0.849,0.621,11.05,-16.75,27.74,3,4
18479.421,-0.086,-0.873,0.598,7.48,-16.05,33.11,3,4
18479.437,-0.105,-0.898,0.588,2.96,-16.11,36.01,3,4
18479.437,-0.125,-0.916,0.564,0.37,-16.33,37.54,3,4
18479.453,-0.123,-0.923,0.552,-1.56,-16.3,37.87,3,4
18479.468,-0.135,-0.93,0.552,-0.85,-14.74,37.05,3,4
18479.468,-0.157,-0.927,0.534,-0.24,-12.85,37.08,3,4
18479.484,-0.139,-0.929,0.52,-2.99,-12.6,36.99,3,4
18479.5,-0.11,-0.953,0.513,-4.39,-11.99,35.4,3,4
18479.515,-0.096,-0.951,0.496,-2.96,-8.88,33.78,3,4
18479.515,-0.084,-0.941,0.48,-2.23,-4.58,31.4,3,4
18479.531,-0.098,-0.945,0.485,-2.23,-0.49,27.68,3,4
18479.531,-0.109,-0.948,0.483,-1.43,1.92,24.45,3,4
18479.546,-0.085,-0.925,0.481,-1.37,2.59,21.52,3,4
18479.546,-0.063,-0.91,0.488,-2.08,3.2,17.09,3,4
18479.562,-0.041,-0.898,0.508,-1.34,3.51,12.42,3,4
18479.578,-0.004,-0.866,0.523,0.82,3.27,7.51,3,4
18479.578,0.021,-0.836,0.55,3.2,3.51,2.69,3,4
18479.593,0.032,-0.814,0.576,6.29,3.81,-0.43,3,4
18479.609,0.036,-0.777,0.596,7.66,3.17,-1.25,3,4
18479.609,0.042,-0.758,0.61,6.56,0.98,-1.53,3,4
18479.625,0.041,-0.766,0.606,5.22,-2.17,-1.74,3,4
18479.64,0.05,-0.776,0.587,4.79,-5.19,-1.77,3,4
18479.64,0.075,-0.777,0.575,6.04,-6.41,-2.87,3,4
18479.656,0.078,-0.767,0.551,7.75,-5.74,-4.88,3,4
18479.656,0.094,-0.778,0.535,6.26,-4.39,-6.71,3,4
18479.671,0.118,-0.797,0.531,3.85,-2.17,-8.82,3,4
18479.687,0.127,-0.821,0.526,3.08,1.95,-11.29,3,4
18479.687,0.128,-0.832,0.536,3.3,6.87,-13.55,3,4
18479.703,0.13,-0.833,0.557,3.27,11.23,-16.02,3,4
18479.718,0.11,-0.844,0.585,2.78,14.37,-18.71,3,4
18479.718,0.086,-0.86,0.614,2.04,14.56,-20.72,3,4
18479.734,0.072,-0.874,0.63,2.11,12.45,-22.03,3,4
18479.75,0.091,-0.886,0.616,3.69,9.46,-24.23,3,4
18479.765,0.113,-0.895,0.609,4.94,7.45,-27.77,3,4
18479.765,0.131,-0.884,0.603,6.01,6.71,-32.23,3,4
18479.781,0.153,-0.874,0.615,6.62,6.41,-38.18,3,4
18479.781,0.169,-0.875,0.64,7.78,7.08,-43.79,3,4
18479.796,0.179,-0.856,0.677,13.21,8.21,-48.59,3,4
18479.812,0.157,-0.828,0.685,22.71,9.28,-52.25,3,4
18479.812,0.14,-0.787,0.687,27.44,6.26,-53.74,3,4
18479.828,0.127,-0.765,0.687,25.21,1.43,-53.99,3,4
18479.828,0.13,-0.759,0.707,16.36,-5.31,-51.61,3,4
18479.843,0.135,-0.766,0.721,10.28,-11.72,-47.76,3,4
18479.859,0.144,-0.759,0.712,10.35,-16.14,-42.97,3,4
18479.859,0.123,-0.728,0.72,14.71,-19.2,-38.67,3,4
18479.875,0.101,-0.704,0.691,20.29,-22.34,-32.32,3,4
18479.89,0.141,-0.689,0.661,20.45,-25.67,-22.22,3,4
18479.89,0.189,-0.683,0.623,17.91,-25.51,-10.8,3,4
18479.906,0.207,-0.675,0.603,13.4,-21.58,0.67,3,4
18479.921,0.189,-0.668,0.62,6.1,-16.6,9.25,3,4
18479.921,0.17,-0.696,0.649,1.37,-13.67,14.92,3,4
18479.937,0.111,-0.726,0.649,1.92,-12.48,20.02,3,4
18479.953,0.08,-0.761,0.603,1.92,-12.67,24.93,3,4
18479.953,0.091,-0.803,0.565,0.37,-12.63,28.11,3,4
18479.968,0.096,-0.834,0.545,1.1,-10.13,29.39,3,4
18479.968,0.108,-0.858,0.551,0.67,-6.68,29.79,3,4
18479.984,0.105,-0.889,0.572,-1.62,-3.91,28.72,3,4
18480.0,0.056,-0.918,0.591,-3.6,-1.89,26.92,3,4
18480.0,0.016,-0.942,0.591,-5.58,-2.35,24.78,3,4
18480.015,0.016,-0.966,0.57,-7.93,-4.18,19.59,3,4
18480.031,0.032,-0.985,0.549,-7.48,-4.79,11.69,3,4
18480.031,0.043,-0.982,0.544,-3.57,-2.99,2.72,3,4
18480.046,0.043,-0.953,0.562,0.27,-0.55,-6.01,3,4
18480.062,-0.006,-0.914,0.584,1.95,1.16,-12.45,3,4
18480.062,-0.06,-0.88,0.59,1.43,0.61,-14.4,3,4
18480.078,-0.063,-0.843,0.578,-0.46,-1.4,-12.33,3,4
18480.078,-0.053,-0.825,0.541,-2.62,-1.22,-7.42,3,4
18480.093,-0.03,-0.822,0.504,-6.53,2.11,-0.58,3,4
18480.109,-0.009,-0.824,0.484,-11.29,8.03,5.55,3,4
18480.125,0.006,-0.835,0.487,-16.51,14.77,9.86,3,4
18480.125,0.001,-0.856,0.512,-21.24,21.52,11.63,3,4
18480.14,-0.009,-0.881,0.535,-23.41,26.49,11.66,3,4
18480.14,-0.031,-0.891,0.563,-24.2,29.18,9.46,3,4
18480.156,-0.059,-0.906,0.587,-23.04,29.36,6.13,3,4
18480.171,-0.059,-0.897,0.587,-18.92,27.59,3.51,3,4
18480.171,-0.05,-0.862,0.567,-14.95,26.22,1.37,3,4
18480.187,-0.051,-0.834,0.577,-13.82,25.33,-0.92,3,4
18480.187,-0.042,-0.824,0.559,-14.83,24.84,-1.74,3,4
18480.203,-0.016,-0.813,0.543,-18.59,25.48,-1.4,3,4
18480.218,0.02,-0.821,0.537,-23.68,30.03,-5.28,3,4
18480.218,0.048,-0.833,0.542,-20.63,33.54,-10.65,3,4
18480.234,0.054,-0.834,0.552,-15.93,35.89,-15.99,3,4
18480.25,0.022,-0.811,0.562,-13.98,37.02,-20.11,3,4
18480.25,0.005,-0.807,0.561,-14.59,36.5,-22.89,3,4
18480.265,0.005,-0.809,0.562,-15.56,35.65,-25.18,3,4
18480.281,0.002,-0.805,0.552,-14.01,35.92,-27.19,3,4
18480.281,0.004,-0.772,0.546,-11.63,36.99,-28.96,3,4
18480.296,0.009,-0.745,0.552,-8.88,38.54,-30.09,3,4
18480.296,0.003,-0.725,0.538,-7.23,40.71,-28.29,3,4
18480.312,0.003,-0.712,0.538,-9.09,43.24,-24.41,3,4
18480.328,-0.004,-0.718,0.567,-10.83,44.77,-20.63,3,4
18480.343,-0.015,-0.735,0.574,-10.68,44.86,-15.2,3,4
18480.343,-0.007,-0.744,0.57,-11.87,44.83,-8.88,3,4
18480.359,0.001,-0.766,0.571,-13.7,45.5,-4.12,3,4
18480.359,-0.033,-0.791,0.571,-15.29,47.15,-0.7,3,4
18480.375,-0.045,-0.818,0.566,-17.7,47.82,1.89,3,4
18480.39,-0.017,-0.841,0.563,-20.08,47.46,1.43,3,4
18480.39,-0.004,-0.869,0.563,-18.22,48.19,-1.71,3,4
18480.406,0.005,-0.872,0.566,-13.15,49.93,-4.39,3,4
18480.406,0.013,-0.857,0.583,-9.49,52.13,-5.89,3,4
18480.421,-0.016,-0.867,0.605,-9.8,54.29,-6.78,3,4
18480.437,-0.051,-0.885,0.611,-14.16,54.11,-7.63,3,4
18480.437,-0.049,-0.904,0.616,-18.01,51.88,-9.16,3,4
18480.453,-0.051,-0.901,0.61,-16.69,50.81,-11.78,3,4
18480.468,-0.049,-0.891,0.595,-14.5,50.36,-14.56,3,4
18480.484,-0.042,-0.88,0.574,-13.43,49.9,-18.74,3,4
18480.484,-0.048,-0.876,0.57,-10.25,50.23,-23.77,3,4
18480.5,-0.059,-0.873,0.557,-6.38,51.42,-25.94,3,4
18480.5,-0.05,-0.864,0.553,-5.49,53.1,-26.18,3,4
18480.515,-0.047,-0.855,0.545,-4.94,55.15,-27.89,3,4
18480.531,-0.048,-0.853,0.551,-6.23,54.84,-30.34,3,4
18480.531,-0.058,-0.859,0.579,-8.03,58.17,-31.04,3,4
18480.546,-0.062,-0.831,0.591,-5.43,57.44,-32.29,3,4
18480.562,-0.061,-0.819,0.583,-2.9,56.46,-33.91,3,4
18480.562,-0.065,-0.817,0.565,-3.45,55.73,-35.1,3,4
18480.578,-0.038,-0.847,0.558,-3.88,53.83,-35.55,3,4
18480.578,-0.016,-0.861,0.546,-2.59,54.23,-35.65,3,4
18480.593,-0.003,-0.858,0.535,-2.35,55.82,-37.6,3,4
18480.609,-0.009,-0.867,0.55,-2.81,58.5,-40.8,3,4
18480.625,-0.026,-0.852,0.565,-2.11,60.67,-43.34,3,4
18480.625,-0.046,-0.821,0.573,-0.15,61.04,-45.99,3,4
18480.64,-0.052,-0.808,0.579,1.04,59.76,-48.04,3,4
18480.64,-0.053,-0.795,0.571,1.31,58.17,-49.23,3,4
18480.656,-0.032,-0.791,0.573,2.14,57.13,-49.53,3,4
18480.671,-0.027,-0.788,0.574,3.85,58.11,-47.91,3,4
18480.671,-0.015,-0.78,0.575,4.39,59.42,-44.83,3,4
18480.687,-0.012,-0.769,0.576,3.42,60.95,-42.21,3,4
18480.687,-0.026,-0.778,0.585,1.28,62.47,-39.8,3,4
18480.703,-0.033,-0.79,0.586,0.06,63.14,-37.63,3,4
18480.718,-0.031,-0.799,0.585,0.73,62.65,-36.41,3,4
18480.718,-0.018,-0.81,0.569,1.46,62.26,-36.13,3,4
18480.734,-0.011,-0.822,0.539,1.92,63.72,-36.44,3,4
18480.75,-0.002,-0.831,0.537,1.28,67.54,-36.99,3,4
18480.75,-0.017,-0.828,0.551,1.07,72.33,-37.6,3,4
18480.765,-0.039,-0.82,0.568,0.18,75.96,-37.66,3,4
18480.765,-0.047,-0.827,0.587,-2.72,77.3,-37.6,3,4
18480.781,-0.042,-0.848,0.611,-4.58,77.46,-38.24,3,4
18480.796,-0.029,-0.858,0.635,-3.54,76.42,-40.22,3,4
18480.812,-0.029,-0.844,0.655,-0.34,74.59,-43.49,3,4
18480.812,-0.031,-0.832,0.659,2.66,71.5,-47.82,3,4
18480.828,-0.018,-0.817,0.641,4.79,67.23,-52.25,3,4
18480.828,0.001,-0.801,0.6,6.99,64.09,-55.42,3,4
18480.843,0.026,-0.788,0.557,7.81,64.61,-55.7,3,4
18480.859,0.038,-0.776,0.539,5.95,68.64,-52.22,3,4
18480.859,0.024,-0.772,0.557,1.92,74.07,-46.51,3,4
18480.875,0.005,-0.787,0.589,-2.41,78.46,-39.52,3,4
18480.89,-0.006,-0.814,0.62,-5.77,80.84,-33.42,3,4
18480.89,-0.019,-0.837,0.641,-7.54,81.03,-30.18,3,4
18480.906,-0.026,-0.859,0.664,-7.39,78.95,-29.79,3,4
18480.906,-0.03,-0.866,0.683,-5.55,75.32,-31.5,3,4
18480.921,-0.016,-0.878,0.684,-2.84,70.59,-34.58,3,4
18480.937,0.008,-0.889,0.677,-1.16,66.62,-37.45,3,4
18480.953,0.042,-0.902,0.67,0.27,63.84,-40.56,3,4
18480.953,0.05,-0.922,0.669,1.92,62.11,-43.89,3,4
18480.968,0.018,-0.929,0.668,2.84,60.79,-47.46,3,4
18480.968,-0.028,-0.931,0.66,4.0,57.41,-51.27,3,4
18480.984,-0.095,-0.921,0.631,5.65,53.74,-54.41,3,4
18481.0,-0.151,-0.912,0.575,5.77,51.24,-56.15,3,4
18481.0,-0.142,-0.909,0.52,3.78,50.6,-55.36,3,4
18481.015,-0.102,-0.898,0.481,1.28,54.72,-52.64,3,4
18481.031,-0.066,-0.868,0.471,-2.9,63.26,-50.23,3,4
18481.031,-0.046,-0.84,0.495,-8.55,72.91,-48.95,3,4
18481.046,-0.044,-0.814,0.546,-12.85,81.27,-46.88,3,4
18481.046,-0.051,-0.782,0.607,-15.29,86.4,-43.06,3,4
18481.062,-0.058,-0.769,0.648,-16.36,88.05,-37.87,3,4
18481.078,-0.061,-0.765,0.674,-18.19,87.04,-32.07,3,4
18481.078,-0.051,-0.78,0.694,-19.78,84.08,-27.13,3,4
18481.093,-0.039,-0.795,0.676,-19.32,81.24,-24.02,3,4
18481.109,-0.026,-0.797,0.643,-19.29,79.38,-23.56,3,4
18481.109,-0.009,-0.799,0.623,-20.2,79.07,-25.03,3,4
18481.125,0.002,-0.8,0.607,-20.17,80.97,-26.61,3,4
18481.14,0.038,-0.791,0.61,-20.75,84.29,-26.46,3,4
18481.14,0.06,-0.783,0.631,-22.64,89.05,-24.57,3,4
18481.156,0.057,-0.806,0.669,-25.03,92.04,-22.1,3,4
18481.171,0.028,-0.822,0.725,-25.73,91.83,-21.09,3,4
18481.171,-0.016,-0.834,0.749,-22.0,87.62,-22.98,3,4
18481.187,-0.052,-0.828,0.721,-17.06,79.68,-26.73,3,4
18481.187,-0.052,-0.813,0.669,-11.47,65.03,-35.43,3,4
18481.203,-0.014,-0.818,0.617,-9.37,66.01,-36.26,3,4
18481.218,0.017,-0.811,0.566,-9.89,71.08,-34.79,3,4
18481.218,0.025,-0.804,0.547,-13.31,77.18,-32.53,3,4
18481.234,-0.028,-0.812,0.583,-16.69,80.2,-31.16,3,4
18481.25,-0.042,-0.821,0.616,-16.69,80.2,-30.76,3,4
18481.25,-0.054,-0.826,0.624,-13.18,78.98,-30.67,3,4
18481.265,-0.047,-0.828,0.614,-10.99,77.24,-30.24,3,4
18481.281,-0.034,-0.832,0.601,-11.41,75.81,-31.56,3,4
18481.296,-0.024,-0.85,0.6,-13.86,74.95,-34.21,3,4
18481.296,-0.027,-0.866,0.597,-15.26,74.5,-37.69,3,4
18481.296,-0.035,-0.869,0.6,-13.52,73.4,-41.38,3,4
18481.312,-0.047,-0.844,0.588,-9.77,72.15,-44.47,3,4
18481.328,-0.052,-0.81,0.567,-6.84,70.53,-46.3,3,4
18481.328,-0.05,-0.783,0.545,-5.74,69.31,-45.72,3,4
18481.343,-0.051,-0.764,0.514,-6.38,68.85,-42.73,3,4
18481.359,-0.047,-0.773,0.491,-8.76,70.19,-37.14,3,4
18481.359,-0.045,-0.797,0.486,-11.75,74.62,-29.15,3,4
18481.375,-0.052,-0.812,0.499,-15.02,80.78,-21.18,3,4
18481.39,-0.056,-0.844,0.527,-18.43,85.76,-15.14,3,4
18481.39,-0.062,-0.872,0.564,-21.73,88.78,-11.87,3,4
18481.406,-0.071,-0.9,0.595,-21.7,89.75,-11.78,3,4
18481.421,-0.083,-0.923,0.606,-18.83,88.69,-13.61,3,4
18481.421,-0.089,-0.937,0.612,-15.81,85.36,-17.27,3,4
18481.437,-0.102,-0.941,0.598,-13.76,81.09,-22.71,3,4
18481.437,-0.113,-0.942,0.583,-11.32,76.54,-29.54,3,4
18481.453,-0.114,-0.931,0.558,-7.05,72.91,-35.55,3,4
18481.468,-0.102,-0.903,0.527,-3.66,71.26,-38.33,3,4
18481.468,-0.098,-0.871,0.503,-4.03,71.93,-38.91,3,4
18481.484,-0.101,-0.868,0.493,-7.14,73.24,-38.0,3,4
18481.5,-0.104,-0.868,0.489,-9.8,75.2,-36.13,3,4
18481.5,-0.101,-0.865,0.486,-10.16,77.55,-34.58,3,4
18481.515,-0.096,-0.859,0.481,-10.07,79.32,-34.03,3,4
18481.515,-0.095,-0.856,0.488,-11.17,81.36,-33.36,3,4
18481.531,-0.092,-0.852,0.486,-12.54,83.44,-32.14,3,4
18481.546,-0.083,-0.858,0.492,-14.65,84.41,-30.49,3,4
18481.546,-0.075,-0.874,0.504,-16.51,85.45,-29.33,3,4
18481.562,-0.073,-0.883,0.513,-17.03,86.15,-28.66,3,4
18481.578,-0.086,-0.885,0.527,-16.91,85.85,-29.15,3,4
18481.578,-0.097,-0.898,0.548,-15.63,84.26,-29.79,3,4
18481.593,-0.11,-0.898,0.542,-12.85,81.85,-29.57,3,4
18481.609,-0.102,-0.895,0.539,-11.08,78.62,-29.24,3,4
18481.625,-0.097,-0.897,0.518,-10.41,76.6,-30.12,3,4
18481.625,-0.085,-0.906,0.497,-9.52,74.89,-32.07,3,4
18481.64,-0.072,-0.906,0.482,-7.32,74.59,-33.81,3,4
18481.64,-0.072,-0.897,0.476,-5.52,75.84,-35.13,3,4
18481.656,-0.075,-0.896,0.479,-5.34,76.36,-36.5,3,4
18481.671,-0.079,-0.892,0.487,-6.23,76.45,-37.9,3,4
18481.671,-0.075,-0.896,0.494,-6.53,75.26,-40.07,3,4
18481.687,-0.072,-0.896,0.5,-5.01,74.13,-41.57,3,4
18481.687,-0.073,-0.882,0.495,-2.53,72.57,-43.0,3,4
18481.703,-0.076,-0.879,0.482,-1.28,70.28,-44.8,3,4
18481.718,-0.075,-0.886,0.471,-1.56,68.42,-45.81,3,4
18481.718,-0.062,-0.87,0.448,-0.15,68.79,-45.81,3,4
18481.734,-0.063,-0.846,0.41,0.89,67.08,-47.15,3,4
18481.75,-0.054,-0.857,0.418,-1.74,68.91,-45.99,3,4
18481.75,-0.071,-0.846,0.418,-1.98,71.96,-43.64,3,4
18481.765,-0.065,-0.845,0.421,-2.11,72.91,-39.92,3,4
18481.781,-0.069,-0.843,0.432,-4.7,76.42,-34.88,3,4
18481.781,-0.072,-0.868,0.45,-8.03,77.97,-30.43,3,4
18481.796,-0.077,-0.898,0.471,-8.85,77.7,-28.32,3,4
18481.812,-0.085,-0.911,0.48,-6.26,75.32,-29.69,3,4
18481.812,-0.065,-0.939,0.499,-2.14,71.69,-31.59,3,4
18481.828,-0.057,-0.934,0.489,1.34,69.58,-32.59,3,4
18481.828,-0.029,-0.916,0.471,2.08,66.53,-33.42,3,4
18481.843,-0.01,-0.909,0.473,0.79,64.73,-33.51,3,4
18481.859,-0.037,-0.9,0.46,-1.98,64.33,-32.56,3,4
18481.859,-0.048,-0.909,0.481,-5.55,64.64,-29.97,3,4
18481.875,-0.071,-0.896,0.473,-4.39,65.22,-28.69,3,4
18481.89,-0.067,-0.879,0.456,-2.29,61.8,-30.4,3,4
18481.89,-0.055,-0.898,0.458,-0.79,60.46,-32.56,3,4
18481.906,-0.061,-0.892,0.428,3.02,59.85,-33.85,3,4
18481.921,-0.032,-0.879,0.405,5.92,58.11,-34.46,3,4
18481.921,-0.01,-0.875,0.406,4.88,59.45,-34.0,3,4
18481.937,-0.014,-0.896,0.424,1.83,62.35,-32.9,3,4
18481.937,-0.027,-0.903,0.463,0.52,63.45,-33.14,3,4
18481.953,-0.058,-0.926,0.493,1.98,62.26,-34.7,3,4
18481.968,-0.08,-0.92,0.504,4.64,58.63,-37.57,3,4
18481.968,-0.079,-0.897,0.482,10.38,52.37,-41.81,3,4
18481.984,-0.055,-0.872,0.444,14.31,47.52,-42.39,3,4
18482.0,-0.025,-0.847,0.417,13.03,46.78,-39.95,3,4
18482.0,-0.011,-0.85,0.394,9.34,48.46,-38.06,3,4
18482.015,-0.022,-0.875,0.397,6.38,51.06,-37.54,3,4
18482.031,-0.019,-0.896,0.409,7.11,53.22,-38.61,3,4
18482.031,-0.009,-0.882,0.405,10.68,54.75,-41.87,3,4
18482.046,0.021,-0.871,0.428,11.38,54.29,-45.2,3,4
18482.046,0.035,-0.849,0.454,8.21,55.57,-45.78,3,4
18482.062,0.018,-0.837,0.471,4.15,57.44,-43.92,3,4
18482.078,0.01,-0.845,0.516,2.29,55.97,-39.49,3,4
18482.093,-0.006,-0.853,0.527,2.72,53.44,-33.63,3,4
18482.093,0.002,-0.861,0.513,2.62,49.1,-30.12,3,4
18482.109,0.012,-0.87,0.488,2.35,44.89,-28.57,3,4
18482.109,0.028,-0.888,0.458,1.13,43.46,-26.73,3,4
18482.125,0.061,-0.891,0.427,-0.92,44.1,-26.0,3,4
18482.14,0.081,-0.906,0.407,-1.04,47.61,-26.15,3,4
18482.14,0.066,-0.915,0.404,0.82,53.96,-27.38,3,4
18482.156,0.053,-0.915,0.405,4.18,58.6,-30.3,3,4
18482.171,0.032,-0.916,0.411,7.69,61.68,-34.39,3,4
18482.171,0.007,-0.896,0.43,9.52,63.33,-37.81,3,4
18482.187,0.004,-0.883,0.439,9.13,59.6,-39.61,3,4
18482.187,0.046,-0.86,0.454,4.7,59.91,-36.84,3,4
18482.203,0.06,-0.815,0.484,0.76,60.15,-33.17,3,4
18482.218,0.041,-0.793,0.513,-1.28,57.99,-27.74,3,4
18482.234,0.027,-0.795,0.503,-1.71,55.94,-22.68,3,4
18482.234,0.029,-0.823,0.476,-0.79,52.64,-20.14,3,4
18482.25,0.04,-0.843,0.439,1.53,49.99,-19.62,3,4
18482.25,0.056,-0.858,0.396,3.69,50.11,-19.75,3,4
18482.265,0.077,-0.86,0.385,3.3,52.61,-19.78,3,4
18482.281,0.066,-0.849,0.389,2.08,57.07,-19.68,3,4
18482.281,0.06,-0.85,0.422,0.12,59.82,-17.73,3,4
18482.296,0.06,-0.841,0.458,-2.29,62.07,-14.89,3,4
18482.312,0.041,-0.857,0.463,-3.23,63.11,-13.67,3,4
18482.312,0.029,-0.867,0.478,-2.99,61.19,-13.34,3,4
18482.328,0.042,-0.869,0.482,-0.92,58.05,-13.64,3,4
18482.328,0.073,-0.866,0.487,0.67,55.18,-14.01,3,4
18482.343,0.088,-0.847,0.499,0.46,54.38,-15.17,3,4
18482.359,0.071,-0.844,0.511,0.89,53.99,-16.14,3,4
18482.359,0.057,-0.838,0.52,2.5,52.28,-14.83,3,4
18482.375,0.069,-0.836,0.5,3.63,48.92,-13.03,3,4
18482.39,0.102,-0.854,0.482,3.81,44.71,-11.02,3,4
18482.39,0.126,-0.865,0.475,3.02,43.95,-8.03,3,4
18482.406,0.126,-0.876,0.458,0.34,46.54,-5.8,3,4
18482.421,0.132,-0.901,0.471,-2.78,48.49,-5.22,3,4
18482.421,0.132,-0.915,0.501,-2.17,50.26,-6.65,3,4
18482.437,0.107,-0.921,0.526,0.92,51.09,-9.95,3,4
18482.437,0.092,-0.925,0.541,4.12,49.59,-13.21,3,4
18482.453,0.086,-0.911,0.549,6.16,46.63,-15.35,3,4
18482.468,0.095,-0.904,0.561,7.11,40.89,-16.08,3,4
18482.484,0.124,-0.896,0.566,7.69,35.1,-14.01,3,4
18482.484,0.152,-0.889,0.552,6.59,31.5,-9.89,3,4
18482.5,0.178,-0.89,0.545,3.17,30.03,-6.23,3,4
18482.5,0.168,-0.889,0.565,-0.4,30.46,-5.34,3,4
18482.515,0.141,-0.898,0.584,-1.34,29.33,-6.29,3,4
18482.531,0.134,-0.892,0.603,0.76,24.93,-7.69,3,4
18482.531,0.123,-0.888,0.587,4.43,20.33,-9.37,3,4
18482.546,0.125,-0.888,0.565,6.23,15.32,-10.16,3,4
18482.546,0.147,-0.895,0.544,7.32,10.93,-10.35,3,4
18482.562,0.156,-0.897,0.52,8.03,9.49,-10.1,3,4
18482.578,0.15,-0.894,0.515,7.42,9.74,-9.34,3,4
18482.593,0.124,-0.893,0.517,5.92,10.07,-8.67,3,4
18482.593,0.102,-0.907,0.524,4.88,8.45,-7.84,3,4
18482.609,0.101,-0.913,0.516,4.67,6.23,-6.71,3,4
18482.609,0.103,-0.918,0.498,4.64,5.13,-6.9,3,4
18482.625,0.106,-0.92,0.488,3.81,4.64,-7.78,3,4
18482.64,0.095,-0.915,0.485,3.36,4.88,-8.67,3,4
18482.64,0.094,-0.909,0.479,3.3,4.85,-9.09,3,4
18482.656,0.097,-0.892,0.498,4.12,3.88,-8.97,3,4
18482.656,0.078,-0.88,0.505,5.95,3.17,-8.09,3,4
18482.671,0.059,-0.876,0.499,6.2,1.04,-5.52,3,4
18482.687,0.055,-0.885,0.483,4.85,-1.83,-2.69,3,4
18482.687,0.06,-0.904,0.459,3.6,-3.57,-0.15,3,4
18482.703,0.071,-0.912,0.444,2.87,-4.06,1.46,3,4
18482.718,0.081,-0.924,0.435,2.5,-3.3,1.89,3,4
18482.718,0.072,-0.929,0.439,2.26,-1.07,2.17,3,4
18482.734,0.046,-0.933,0.442,1.92,0.95,1.77,3,4
18482.75,0.045,-0.945,0.452,1.25,0.46,0.79,3,4
18482.75,0.051,-0.951,0.452,1.74,-0.43,-0.82,3,4
18482.765,0.06,-0.955,0.451,2.59,-1.01,-2.44,3,4
18482.781,0.065,-0.949,0.459,3.3,-1.1,-4.09,3,4
18482.781,0.052,-0.947,0.459,3.69,-1.34,-5.98,3,4
18482.796,0.042,-0.933,0.462,3.14,-2.01,-7.23,3,4
18482.812,0.03,-0.924,0.458,3.69,-2.84,-7.81,3,4
18482.812,0.027,-0.915,0.438,4.36,-3.17,-7.11,3,4
18482.828,0.045,-0.906,0.425,4.27,-2.69,-6.23,3,4
18482.828,0.05,-0.902,0.432,4.06,-1.01,-5.62,3,4
18482.843,0.028,-0.891,0.453,3.51,0.95,-4.36,3,4
18482.859,0.018,-0.879,0.462,2.23,0.64,-2.01,3,4
18482.859,0.024,-0.882,0.464,0.37,-1.62,-0.18,3,4
18482.875,0.021,-0.899,0.458,-1.13,-3.75,1.25,3,4
18482.89,0.036,-0.912,0.449,-1.98,-4.91,1.95,3,4
18482.89,0.057,-0.921,0.439,-1.77,-5.52,1.43,3,4
18482.906,0.064,-0.925,0.437,-0.92,-4.79,-0.4,3,4
18482.906,0.056,-0.92,0.442,0.34,-3.33,-2.53,3,4
18482.921,0.042,-0.917,0.452,1.95,-2.96,-3.78,3,4
18482.937,0.037,-0.912,0.454,3.11,-3.72,-5.19,3,4
18482.937,0.031,-0.907,0.45,4.27,-4.27,-6.74,3,4
18482.953,0.023,-0.9,0.448,5.01,-4.7,-7.08,3,4
18482.968,0.029,-0.891,0.43,4.67,-5.19,-6.47,3,4
18482.968,0.039,-0.883,0.42,3.33,-5.31,-5.68,3,4
18482.984,0.042,-0.88,0.416,2.53,-3.94,-4.39,3,4
18483.0,0.047,-0.874,0.414,2.38,-2.26,-2.41,3,4
18483.0,0.043,-0.872,0.42,1.68,-0.43,-0.46,3,4
18483.015,0.04,-0.875,0.428,-0.18,0.58,1.01,3,4
18483.031,0.034,-0.889,0.441,-1.74,0.7,2.01,3,4
18483.031,0.025,-0.904,0.441,-2.38,0.34,2.5,3,4
18483.046,0.024,-0.917,0.434,-2.26,-0.43,2.59,3,4
18483.046,0.022,-0.924,0.447,-1.83,-0.55,1.86,3,4
18483.062,0.017,-0.927,0.462,-0.43,-1.8,0.73,3,4
18483.078,0.028,-0.916,0.456,1.04,-3.66,-0.18,3,4
18483.078,0.037,-0.909,0.447,2.32,-5.19,-1.46,3,4
18483.093,0.041,-0.909,0.441,2.99,-6.1,-2.81,3,4
18483.109,0.044,-0.904,0.438,3.36,-6.47,-3.23,3,4
18483.109,0.039,-0.9,0.428,3.66,-5.95,-2.59,3,4
18483.125,0.042,-0.901,0.42,2.5,-4.79,-0.89,3,4
18483.14,0.048,-0.904,0.417,0.15,-3.27,0.27,3,4
18483.14,0.05,-0.913,0.423,-1.53,-1.53,0.64,3,4
18483.156,0.044,-0.918,0.433,-1.37,0.24,0.64,3,4
18483.156,0.028,-0.911,0.443,-0.18,0.27,0.34,3,4
18483.171,0.013,-0.904,0.457,-1.19,-1.95,0.89,3,4
18483.187,0.004,-0.911,0.461,-2.26,-4.09,1.46,3,4
18483.187,0.008,-0.925,0.454,-2.11,-5.46,1.37,3,4
18483.203,0.047,-0.94,0.422,-1.1,-5.74,0.18,3,4
18483.218,0.062,-0.931,0.421,-0.27,-4.43,-1.95,3,4
18483.218,0.054,-0.919,0.424,0.58,-2.26,-4.15,3,4
18483.234,0.037,-0.908,0.433,1.28,-0.98,-5.37,3,4
18483.25,0.03,-0.905,0.447,1.98,-1.19,-5.98,3,4
18483.25,0.019,-0.907,0.449,2.9,-2.08,-6.2,3,4
18483.265,0.016,-0.906,0.446,3.81,-3.57,-6.35,3,4
18483.281,0.021,-0.906,0.438,4.21,-4.97,-6.47,3,4
18483.281,0.038,-0.897,0.43,3.97,-5.65,-6.38,3,4
18483.296,0.046,-0.888,0.422,4.03,-5.34,-5.89,3,4
18483.296,0.054,-0.884,0.422,3.54,-4.64,-5.13,3,4
18483.312,0.056,-0.878,0.422,2.84,-3.72,-4.06,3,4
18483.328,0.056,-0.88,0.418,1.95,-2.32,-3.27,3,4
18483.343,0.059,-0.878,0.428,0.92,-1.19,-3.05,3,4
18483.343,0.052,-0.879,0.436,1.07,0.0,-3.36,3,4
18483.359,0.046,-0.875,0.447,2.01,0.55,-3.33,3,4
18483.359,0.039,-0.869,0.452,3.08,0.0,-2.72,3,4
18483.375,0.026,-0.875,0.447,3.23,-0.79,-1.22,3,4
18483.39,0.039,-0.888,0.446,1.77,-2.11,1.01,3,4
18483.39,0.06,-0.9,0.445,1.01,-2.5,2.47,3,4
18483.406,0.063,-0.908,0.436,0.79,-1.4,2.96,3,4
18483.421,0.065,-0.914,0.437,-0.09,-0.61,2.66,3,4
18483.421,0.055,-0.928,0.445,-0.43,0.31,1.4,3,4
18483.437,0.046,-0.94,0.447,0.15,0.58,0.4,3,4
18483.437,0.051,-0.937,0.443,0.27,0.67,-0.7,3,4
18483.453,0.049,-0.938,0.438,-0.09,1.22,-2.11,3,4
18483.468,0.046,-0.933,0.44,-0.61,1.95,-3.48,3,4
18483.468,0.054,-0.922,0.442,-1.34,2.62,-5.1,3,4
18483.484,0.044,-0.917,0.455,-0.58,3.17,-6.78,3,4
18483.5,0.041,-0.902,0.466,0.52,2.56,-7.2,3,4
18483.5,0.04,-0.892,0.469,1.46,0.92,-6.9,3,4
18483.515,0.042,-0.887,0.462,1.4,-1.07,-6.26,3,4
18483.531,0.047,-0.882,0.454,0.24,-2.32,-4.58,3,4
18483.531,0.054,-0.884,0.446,-0.76,-2.5,-2.59,3,4
18483.546,0.057,-0.889,0.446,-1.56,-1.53,-0.79,3,4
18483.546,0.051,-0.895,0.456,-1.65,-0.43,0.21,3,4
18483.562,0.051,-0.899,0.464,-0.27,-0.76,0.52,3,4
18483.578,0.049,-0.9,0.462,1.62,-1.62,0.58,3,4
18483.578,0.044,-0.904,0.452,2.01,-2.41,0.4,3,4
18483.593,0.033,-0.914,0.451,1.25,-2.59,0.79,3,4
