timestamp,ax,ay,az,gx,gy,gz,orient_label,motion_label
16855.453,0.843,-0.101,0.527,-1.28,-1.5,-1.34,1,5
16855.468,0.847,-0.103,0.529,-1.65,-1.37,-1.53,1,5
16855.468,0.85,-0.101,0.53,-1.01,-1.34,-1.92,1,5
16855.484,0.84,-0.094,0.533,0.09,-1.25,-1.83,1,5
16855.5,0.84,-0.09,0.531,-0.06,-1.8,-1.5,1,5
16855.5,0.841,-0.09,0.525,-0.37,-2.32,-1.04,1,5
16855.515,0.838,-0.093,0.516,-0.43,-1.98,-0.58,1,5
16855.515,0.831,-0.089,0.517,-0.7,-1.37,-0.24,1,5
16855.531,0.829,-0.087,0.527,-1.37,-1.13,0.15,1,5
16855.546,0.829,-0.09,0.529,-1.68,-1.37,0.95,1,5
16855.562,0.832,-0.093,0.527,-1.68,-1.8,1.4,1,5
16855.562,0.842,-0.096,0.523,-1.59,-2.47,1.65,1,5
16855.578,0.851,-0.101,0.514,-1.37,-2.5,1.34,1,5
16855.578,0.852,-0.104,0.508,-0.67,-1.8,0.64,1,5
16855.593,0.847,-0.103,0.508,0.03,-0.76,0.15,1,5
16855.609,0.838,-0.099,0.51,-0.12,0.18,0.31,1,5
16855.609,0.831,-0.099,0.52,-1.04,0.64,0.55,1,5
16855.64,0.836,-0.107,0.535,-1.74,-0.24,1.95,1,5
16855.64,0.838,-0.109,0.53,-1.37,-0.73,2.01,1,5
16855.656,0.842,-0.111,0.526,-1.22,-1.37,1.43,1,5
16855.656,0.849,-0.113,0.522,-0.82,-1.71,0.58,1,5
16855.671,0.853,-0.11,0.52,0.03,-1.43,0.03,1,5
16855.687,0.848,-0.104,0.52,0.18,-1.07,-0.09,1,5
16855.687,0.847,-0.107,0.521,-0.34,-0.92,-0.06,1,5
16855.703,0.846,-0.111,0.521,-0.64,-0.67,0.18,1,5
16855.718,0.839,-0.11,0.518,-0.58,-0.46,0.09,1,5
16855.718,0.844,-0.113,0.521,-0.37,-0.55,-0.43,1,5
16855.734,0.841,-0.109,0.525,-0.03,-0.24,-1.04,1,5
16855.75,0.837,-0.105,0.527,0.79,-0.31,-0.89,1,5
16855.75,0.847,-0.099,0.523,0.4,-0.09,-0.15,1,5
16855.765,0.848,-0.095,0.522,-0.24,0.03,0.52,1,5
16855.781,0.843,-0.099,0.529,-0.37,-0.27,1.1,1,5
16855.781,0.835,-0.102,0.527,-0.85,-1.1,1.59,1,5
16855.796,0.843,-0.116,0.512,-1.59,-0.98,2.11,1,5
16855.812,0.84,-0.117,0.515,-1.59,-0.21,1.89,1,5
16855.828,0.834,-0.118,0.526,-1.1,0.27,1.25,1,5
16855.828,0.832,-0.114,0.528,-0.06,-0.03,0.98,1,5
16855.843,0.834,-0.108,0.526,0.12,-0.67,0.95,1,5
16855.859,0.84,-0.113,0.525,-0.21,-1.19,0.67,1,5
16855.859,0.842,-0.116,0.52,0.27,-1.16,0.12,1,5
16855.875,0.839,-0.115,0.519,1.28,-0.85,-0.06,1,5
16855.875,0.838,-0.111,0.52,1.89,-0.46,-0.24,1,5
16855.89,0.837,-0.109,0.52,2.17,-0.21,-0.43,1,5
16855.906,0.832,-0.11,0.524,2.47,0.0,-0.52,1,5
16855.906,0.827,-0.11,0.532,2.62,-0.09,-0.46,1,5
16855.921,0.826,-0.11,0.535,3.23,-0.58,-0.82,1,5
16855.937,0.826,-0.115,0.541,4.12,-1.37,-1.1,1,5
16855.937,0.828,-0.121,0.543,5.16,-2.29,-1.68,1,5
16855.953,0.83,-0.13,0.544,7.48,-2.99,-2.72,1,5
16855.968,0.811,-0.138,0.542,13.98,-3.81,-6.07,1,5
16855.984,0.803,-0.146,0.542,16.72,-4.61,-8.15,1,5
16856.0,0.786,-0.154,0.54,19.14,-5.25,-10.9,1,5
16856.0,0.761,-0.169,0.533,21.64,-5.68,-14.04,1,5
16856.015,0.731,-0.175,0.528,25.06,-5.8,-17.76,1,5
16856.031,0.698,-0.175,0.517,28.6,-5.86,-22.22,1,5
16856.031,0.66,-0.179,0.511,32.17,-5.68,-26.92,1,5
16856.046,0.616,-0.179,0.511,33.42,-5.92,-32.01,1,5
16856.046,0.619,-0.157,0.458,36.1,-8.09,-36.19,1,5
16856.062,0.602,-0.161,0.432,43.82,-6.78,-39.74,1,5
16856.078,0.598,-0.168,0.449,48.52,-6.5,-45.08,1,5
16856.078,0.605,-0.168,0.43,55.21,-6.56,-52.43,1,5
16856.093,0.606,-0.167,0.432,65.74,-4.46,-60.61,1,5
16856.109,0.601,-0.154,0.447,77.94,-3.17,-70.01,1,5
16856.109,0.579,-0.12,0.458,88.5,-2.56,-79.96,1,5
16856.125,0.541,-0.077,0.477,96.93,-2.69,-88.23,1,5
16856.14,0.486,0.007,0.502,108.55,-6.13,-97.51,1,5
16856.156,0.461,0.052,0.482,114.47,-6.53,-99.12,1,5
16856.156,0.433,0.103,0.428,117.98,-5.04,-98.06,1,5
16856.171,0.427,0.158,0.388,115.6,-2.29,-92.04,1,5
16856.187,0.431,0.214,0.374,107.67,1.62,-81.33,1,5
16856.187,0.45,0.257,0.344,95.46,6.93,-68.36,1,5
16856.203,0.466,0.278,0.337,80.66,14.56,-54.66,1,5
16856.218,0.439,0.28,0.365,67.23,24.38,-41.84,1,5
16856.218,0.406,0.271,0.379,57.95,31.83,-30.15,1,5
16856.234,0.424,0.271,0.389,49.56,33.45,-19.07,1,5
16856.25,0.467,0.269,0.398,42.82,34.79,-10.01,1,5
16856.25,0.493,0.258,0.388,36.53,39.43,-2.99,1,5
16856.265,0.498,0.242,0.39,29.15,46.48,1.34,1,5
16856.281,0.501,0.237,0.428,21.3,53.74,2.72,1,5
16856.281,0.5,0.229,0.445,15.23,58.57,1.89,1,5
16856.296,0.522,0.224,0.45,11.14,59.14,1.19,1,5
16856.312,0.622,0.245,0.465,5.89,61.65,-1.31,1,5
16856.328,0.646,0.257,0.494,6.01,66.84,-5.71,1,5
16856.328,0.636,0.254,0.526,7.81,72.79,-10.13,1,5
16856.343,0.627,0.254,0.565,8.82,77.49,-12.91,1,5
16856.359,0.609,0.256,0.584,7.93,82.03,-15.02,1,5
16856.375,0.595,0.26,0.607,4.76,84.2,-17.27,1,5
16856.375,0.602,0.263,0.629,1.1,84.17,-21.27,1,5
16856.39,0.623,0.264,0.627,0.24,81.88,-27.1,1,5
16856.39,0.656,0.281,0.629,1.89,79.62,-34.3,1,5
16856.406,0.68,0.303,0.637,5.04,80.08,-43.4,1,5
16856.406,0.683,0.321,0.66,10.32,82.67,-53.93,1,5
16856.421,0.67,0.351,0.684,17.3,85.57,-63.42,1,5
16856.437,0.66,0.388,0.691,23.26,86.09,-68.94,1,5
16856.453,0.664,0.425,0.691,25.67,85.79,-70.71,1,5
16856.453,0.676,0.456,0.685,24.2,85.21,-70.89,1,5
16856.468,0.688,0.476,0.687,20.33,84.9,-70.28,1,5
16856.484,0.686,0.502,0.745,11.87,86.34,-68.24,1,5
16856.5,0.672,0.49,0.753,12.15,86.55,-68.15,1,5
16856.5,0.671,0.489,0.746,17.79,84.66,-68.7,1,5
16856.515,0.669,0.503,0.74,25.82,82.95,-69.61,1,5
16856.531,0.646,0.546,0.711,31.74,81.45,-70.99,1,5
16856.531,0.628,0.579,0.69,32.47,79.38,-71.96,1,5
16856.546,0.631,0.592,0.695,28.87,78.34,-71.38,1,5
16856.546,0.633,0.598,0.693,25.51,80.02,-68.67,1,5
16856.562,0.62,0.606,0.7,21.73,84.05,-64.24,1,5
16856.578,0.601,0.6,0.712,18.49,87.62,-58.87,1,5
16856.578,0.59,0.592,0.714,16.48,88.9,-53.93,1,5
16856.593,0.58,0.581,0.715,15.5,89.39,-50.14,1,5
16856.609,0.564,0.569,0.723,14.56,90.88,-47.24,1,5
16856.609,0.532,0.562,0.736,14.25,91.8,-44.25,1,5
16856.625,0.469,0.542,0.732,15.29,90.91,-40.44,1,5
16856.64,0.399,0.512,0.706,14.1,86.55,-36.29,1,5
16856.64,0.377,0.515,0.708,7.57,79.41,-31.53,1,5
16856.656,0.409,0.517,0.713,0.4,72.91,-27.74,1,5
16856.656,0.438,0.517,0.706,-6.01,71.72,-25.88,1,5
16856.671,0.436,0.515,0.714,-11.44,75.47,-25.57,1,5
16856.687,0.431,0.513,0.75,-17.33,79.17,-26.34,1,5
16856.703,0.435,0.509,0.769,-21.91,81.82,-28.99,1,5
16856.703,0.41,0.491,0.788,-24.63,83.19,-33.97,1,5
16856.718,0.375,0.468,0.819,-26.89,83.25,-38.88,1,5
16856.718,0.345,0.446,0.85,-24.57,76.14,-44.19,1,5
16856.734,0.312,0.439,0.881,-17.24,71.05,-42.39,1,5
16856.75,0.289,0.443,0.886,-10.59,67.78,-37.08,1,5
16856.75,0.293,0.449,0.892,-6.38,67.93,-30.06,1,5
16856.765,0.318,0.513,0.932,-5.65,71.93,-22.43,1,5
16856.781,0.311,0.538,0.981,-9.52,76.82,-15.17,1,5
16856.781,0.299,0.552,1.051,-17.3,79.99,-9.37,1,5
16856.796,0.294,0.559,1.136,-25.09,79.59,-5.92,1,5
16856.796,0.292,0.573,1.218,-28.53,76.36,-4.24,1,5
16856.812,0.296,0.578,1.279,-28.14,71.35,-3.69,1,5
16856.828,0.281,0.574,1.329,-23.22,65.4,-4.12,1,5
16856.828,0.258,0.565,1.354,-14.98,58.44,-4.24,1,5
16856.843,0.227,0.558,1.356,-7.17,48.98,-4.36,1,5
16856.859,0.219,0.541,1.329,-1.13,36.81,-4.88,1,5
16856.859,0.236,0.526,1.281,3.27,24.51,-5.13,1,5
16856.875,0.257,0.519,1.207,6.5,16.08,-4.73,1,5
16856.89,0.271,0.508,1.143,6.93,13.09,-4.18,1,5
16856.89,0.269,0.493,1.099,5.25,14.13,-3.81,1,5
16856.906,0.259,0.477,1.082,4.33,17.79,-3.39,1,5
16856.906,0.233,0.462,1.085,5.58,22.43,-3.36,1,5
16856.921,0.201,0.451,1.096,9.64,26.7,-3.27,1,5
16856.937,0.168,0.456,1.109,15.99,30.15,-2.78,1,5
16856.937,0.125,0.474,1.117,20.69,31.34,-3.11,1,5
16856.953,0.083,0.499,1.141,18.77,27.83,-5.1,1,5
16856.968,0.044,0.517,1.171,13.21,19.41,-7.9,1,5
16856.968,0.037,0.522,1.182,8.55,7.26,-9.19,1,5
16856.984,0.055,0.53,1.158,7.54,-3.33,-8.73,1,5
16857.0,0.076,0.547,1.113,9.7,-9.52,-7.51,1,5
16857.0,0.091,0.558,1.066,11.81,-11.6,-5.95,1,5
16857.015,0.093,0.567,1.022,11.75,-10.71,-4.24,1,5
16857.015,0.091,0.567,0.983,9.58,-8.82,-2.96,1,5
16857.031,0.083,0.555,0.953,7.05,-6.1,-1.95,1,5
16857.046,0.071,0.543,0.92,6.01,-3.11,-1.13,1,5
16857.062,0.067,0.538,0.886,6.32,-0.31,-0.95,1,5
16857.062,0.058,0.544,0.858,8.48,3.08,-1.86,1,5
16857.078,0.017,0.532,0.849,11.93,6.96,-2.01,1,5
16857.078,0.007,0.534,0.846,15.08,9.64,0.03,1,5
16857.093,0.002,0.548,0.833,17.76,11.6,2.11,1,5
16857.109,-0.004,0.546,0.816,18.71,12.27,4.12,1,5
16857.109,-0.004,0.549,0.801,17.06,11.93,6.23,1,5
16857.125,-0.001,0.563,0.794,13.73,12.3,8.45,1,5
16857.14,-0.005,0.571,0.806,7.75,13.0,11.63,1,5
16857.14,-0.001,0.546,0.813,0.31,12.33,15.38,1,5
16857.156,-0.002,0.533,0.834,-8.21,10.1,18.16,1,5
16857.156,0.02,0.522,0.842,-14.68,5.92,19.87,1,5
16857.171,0.042,0.498,0.837,-17.82,3.2,20.45,1,5
16857.187,0.054,0.49,0.851,-18.46,3.27,20.23,1,5
16857.187,0.044,0.504,0.892,-17.0,4.73,19.35,1,5
16857.203,0.017,0.532,0.945,-16.97,4.64,18.77,1,5
16857.218,-0.024,0.558,1.01,-21.97,-0.12,17.37,1,5
16857.218,-0.003,0.588,1.052,-27.99,-9.31,16.54,1,5
16857.234,0.038,0.554,1.012,-25.03,-13.92,18.83,1,5
16857.25,0.059,0.521,0.961,-17.52,-13.43,20.14,1,5
16857.265,0.089,0.496,0.913,-7.39,-8.42,20.75,1,5
16857.265,0.07,0.481,0.865,5.25,0.06,20.02,1,5
16857.265,0.052,0.5,0.841,11.54,6.07,19.78,1,5
16857.281,0.011,0.49,0.843,6.84,7.17,16.33,1,5
16857.296,-0.032,0.478,0.851,-1.1,3.42,12.02,1,5
16857.312,-0.036,0.468,0.852,-3.72,-1.34,11.38,1,5
16857.312,-0.011,0.455,0.837,-4.43,-5.58,10.99,1,5
16857.328,0.007,0.424,0.805,-1.43,-5.46,10.35,1,5
16857.328,0.017,0.377,0.793,2.59,-1.8,8.24,1,5
16857.343,0.013,0.398,0.76,4.76,2.87,4.91,1,5
16857.359,-0.003,0.357,0.702,12.18,10.53,0.55,1,5
16857.359,-0.062,0.374,0.82,4.91,13.64,-9.67,1,5
16857.375,0.003,0.484,0.925,-13.7,5.92,-14.92,1,5
16857.39,0.043,0.359,0.849,-0.82,10.01,-13.92,1,5
16857.39,-0.095,0.509,0.952,-4.18,15.2,-13.58,1,5
16857.406,0.018,0.612,1.015,-17.06,7.63,-6.41,1,5
16857.421,0.002,0.515,0.975,-14.92,6.32,-1.92,1,5
16857.421,0.009,0.504,0.977,-16.48,6.07,4.18,1,5
16857.437,0.015,0.479,0.981,-12.6,6.29,8.24,1,5
16857.453,-0.008,0.434,0.964,-5.07,5.4,8.45,1,5
16857.453,-0.03,0.407,0.96,0.27,0.67,5.16,1,5
16857.468,-0.045,0.426,0.962,3.11,-7.54,0.98,1,5
16857.468,-0.04,0.472,0.94,3.42,-16.79,-1.56,1,5
16857.484,-0.018,0.522,0.896,0.46,-24.66,-1.22,1,5
16857.5,0.082,0.479,0.825,-0.37,-25.76,2.53,1,5
16857.5,0.004,0.469,0.789,4.85,-18.56,3.6,1,5
16857.515,0.067,0.521,0.767,6.1,-12.82,11.08,1,5
16857.531,0.101,0.468,0.771,0.58,-8.82,10.8,1,5
16857.531,0.098,0.436,0.786,-1.34,-2.47,9.31,1,5
16857.546,0.119,0.416,0.798,2.66,4.03,9.49,1,5
16857.562,0.1,0.424,0.832,8.39,9.67,8.18,1,5
16857.562,0.088,0.431,0.864,13.21,11.32,6.87,1,5
16857.578,0.073,0.449,0.879,14.98,9.31,5.07,1,5
16857.578,0.08,0.457,0.88,13.82,4.76,4.3,1,5
16857.593,0.099,0.461,0.873,11.23,0.43,4.09,1,5
16857.609,0.12,0.461,0.851,8.88,-1.28,4.76,1,5
16857.609,0.131,0.459,0.835,5.68,-0.79,5.4,1,5
16857.625,0.144,0.454,0.831,2.26,1.34,5.86,1,5
16857.625,0.142,0.451,0.832,-0.27,4.97,5.8,1,5
16857.64,0.127,0.444,0.844,-1.83,8.58,5.46,1,5
16857.656,0.117,0.432,0.866,-2.23,10.44,4.91,1,5
16857.671,0.086,0.433,0.9,1.5,8.91,2.59,1,5
16857.687,0.088,0.432,0.903,1.25,5.16,1.01,1,5
16857.687,0.092,0.428,0.89,0.82,2.04,-0.79,1,5
16857.703,0.091,0.426,0.875,0.55,0.92,-1.71,1,5
16857.718,0.093,0.42,0.868,0.98,1.65,-2.9,1,5
16857.718,0.092,0.415,0.867,2.9,2.87,-4.73,1,5
16857.734,0.094,0.404,0.865,6.5,5.19,-7.69,1,5
16857.75,0.065,0.375,0.845,11.35,8.15,-11.87,1,5
16857.75,0.02,0.43,0.912,11.26,7.54,-16.42,1,5
16857.765,0.023,0.486,0.953,6.87,1.71,-18.65,1,5
16857.781,0.068,0.456,0.908,9.7,-1.65,-18.37,1,5
16857.781,-0.031,0.474,0.944,12.45,-0.7,-18.83,1,5
16857.796,0.001,0.657,1.016,2.81,-6.68,-15.38,1,5
16857.796,0.026,0.622,0.971,2.84,-10.71,-9.55,1,5
16857.812,0.04,0.611,0.919,0.24,-9.28,-3.02,1,5
16857.828,0.059,0.599,0.905,-3.63,-5.13,3.11,1,5
16857.843,0.003,0.496,0.916,-1.74,0.92,7.32,1,5
16857.859,-0.021,0.466,0.923,2.9,-2.14,6.1,1,5
16857.875,-0.015,0.441,0.907,8.18,-8.7,4.49,1,5
16857.875,0.009,0.453,0.873,11.14,-14.62,1.74,1,5
16857.89,-0.005,0.493,0.869,10.47,-17.73,-0.09,1,5
16857.89,0.07,0.558,0.853,5.71,-19.87,2.2,1,5
16857.906,0.088,0.436,0.787,8.27,-14.86,3.66,1,5
16857.906,0.056,0.485,0.802,4.52,-7.97,4.55,1,5
16857.921,0.106,0.48,0.858,-3.81,-5.92,5.83,1,5
16857.937,0.081,0.458,0.869,-7.11,-4.7,5.46,1,5
16857.937,0.098,0.418,0.836,-1.34,-1.86,9.34,1,5
16857.953,0.107,0.425,0.837,-0.24,0.43,8.42,1,5
16857.968,0.096,0.424,0.846,0.46,2.56,5.37,1,5
16857.968,0.092,0.416,0.846,1.53,2.84,1.68,1,5
16857.984,0.083,0.417,0.85,1.89,2.69,-1.74,1,5
16858.0,0.081,0.437,0.859,2.93,2.59,-3.72,1,5
16858.0,0.082,0.457,0.863,3.48,1.77,-5.01,1,5
16858.015,0.087,0.468,0.866,2.53,-0.03,-5.58,1,5
16858.015,0.085,0.475,0.87,1.13,-1.01,-5.46,1,5
16858.031,0.08,0.481,0.871,0.18,-1.95,-4.85,1,5
16858.046,0.077,0.483,0.868,-0.31,-3.08,-3.88,1,5
16858.046,0.077,0.482,0.862,-0.46,-4.27,-3.23,1,5
16858.062,0.084,0.483,0.849,-0.31,-5.01,-3.08,1,5
16858.078,0.088,0.482,0.838,0.27,-4.39,-3.45,1,5
16858.078,0.084,0.474,0.827,1.59,-2.87,-4.09,1,5
16858.093,0.075,0.477,0.819,3.42,-1.1,-4.67,1,5
16858.109,0.063,0.488,0.82,4.39,0.37,-4.97,1,5
16858.109,0.054,0.492,0.824,3.69,0.85,-4.94,1,5
16858.125,0.051,0.495,0.813,3.17,1.25,-4.27,1,5
16858.14,0.053,0.499,0.802,3.3,2.81,-2.81,1,5
16858.14,0.053,0.497,0.795,3.39,5.55,-1.37,1,5
16858.156,0.052,0.487,0.786,3.81,9.06,-0.37,1,5
16858.156,0.05,0.475,0.782,4.79,13.64,-0.03,1,5
16858.171,0.053,0.464,0.765,7.02,18.77,-0.27,1,5
16858.187,0.029,0.448,0.754,11.11,25.94,-1.71,1,5
16858.187,-0.051,0.503,0.861,5.62,28.72,-4.79,1,5
16858.203,-0.012,0.598,0.949,-10.74,19.44,-4.58,1,5
16858.218,0.049,0.479,0.895,-11.08,15.02,-2.84,1,5
16858.218,-0.084,0.511,0.962,-11.54,15.99,-3.91,1,5
16858.234,0.0,0.632,1.041,-19.01,5.16,0.15,1,5
16858.25,-0.013,0.539,0.99,-8.36,0.34,2.38,1,5
16858.25,-0.011,0.536,0.957,-2.59,-2.01,5.55,1,5
16858.265,0.005,0.538,0.937,1.74,-4.15,7.17,1,5
16858.281,-0.034,0.519,0.921,6.23,-6.01,6.32,1,5
16858.281,-0.033,0.509,0.906,5.74,-11.78,5.92,1,5
16858.296,-0.019,0.514,0.882,3.14,-18.16,4.7,1,5
16858.296,-0.018,0.53,0.878,0.52,-22.46,4.18,1,5
16858.312,0.074,0.551,0.836,-2.5,-24.87,7.32,1,5
16858.328,0.086,0.436,0.783,1.01,-18.16,6.65,1,5
16858.328,0.044,0.494,0.831,-0.92,-9.95,5.07,1,5
16858.343,0.064,0.49,0.85,-2.44,-8.06,3.85,1,5
16858.359,0.056,0.459,0.854,0.98,-6.5,2.93,1,5
16858.359,0.073,0.474,0.853,3.97,-4.39,5.04,1,5
16858.375,0.056,0.483,0.855,5.16,-3.42,4.79,1,5
16858.39,0.045,0.471,0.871,4.21,-5.04,4.49,1,5
16858.39,0.061,0.472,0.871,1.74,-9.34,3.91,1,5
16858.406,0.085,0.465,0.856,0.82,-11.69,3.75,1,5
16858.421,0.105,0.462,0.845,1.92,-10.9,3.42,1,5
16858.421,0.12,0.467,0.834,3.75,-7.6,2.47,1,5
16858.437,0.13,0.469,0.819,5.92,-3.27,1.22,1,5
16858.437,0.13,0.463,0.804,7.9,1.62,0.43,1,5
16858.453,0.125,0.464,0.803,9.28,6.71,-0.18,1,5
16858.468,0.093,0.468,0.814,10.53,11.05,-0.92,1,5
16858.468,0.053,0.485,0.839,9.34,11.02,-1.43,1,5
16858.484,0.059,0.488,0.856,4.79,5.31,-1.1,1,5
16858.5,0.079,0.491,0.866,-1.13,-0.52,-1.28,1,5
16858.5,0.089,0.487,0.86,-4.3,-3.81,-1.1,1,5
16858.515,0.1,0.478,0.86,-4.91,-4.91,-0.09,1,5
16858.531,0.116,0.494,0.862,-3.91,-2.23,0.92,1,5
16858.546,0.104,0.49,0.867,-2.84,0.27,0.7,1,5
16858.546,0.093,0.495,0.875,-1.68,1.62,0.79,1,5
16858.562,0.081,0.503,0.875,0.09,2.23,0.85,1,5
16858.578,0.072,0.503,0.87,1.68,1.92,0.85,1,5
16858.578,0.062,0.504,0.866,2.53,0.98,0.64,1,5
16858.593,0.054,0.512,0.869,2.17,-0.58,0.52,1,5
16858.609,0.061,0.518,0.86,0.76,-2.41,0.61,1,5
16858.625,0.066,0.518,0.86,-0.73,-3.05,0.92,1,5
16858.625,0.057,0.522,0.871,-1.71,-2.66,1.77,1,5
16858.625,0.05,0.522,0.875,-1.71,-2.29,3.39,1,5
16858.64,0.048,0.517,0.875,-1.74,-2.53,4.91,1,5
16858.656,0.05,0.51,0.876,-2.23,-3.11,5.4,1,5
16858.656,0.047,0.501,0.873,-2.2,-3.66,5.31,1,5
16858.671,0.05,0.494,0.867,-2.01,-4.7,4.73,1,5
16858.687,0.061,0.493,0.859,-2.35,-5.89,3.88,1,5
16858.703,0.062,0.487,0.846,-0.92,-2.87,2.08,1,5
16858.718,0.058,0.482,0.842,-0.27,-2.11,1.98,1,5
16858.718,0.054,0.482,0.842,0.03,-1.74,1.59,1,5
16858.734,0.043,0.488,0.848,-0.37,-2.08,1.59,1,5
16858.75,0.047,0.491,0.851,-1.68,-3.54,1.8,1,5
16858.75,0.058,0.491,0.848,-2.5,-4.61,1.74,1,5
16858.765,0.063,0.487,0.844,-2.04,-4.09,1.4,1,5
16858.781,0.064,0.485,0.846,-0.98,-2.78,1.34,1,5
16858.781,0.063,0.483,0.849,0.24,-1.65,1.22,1,5
16858.796,0.062,0.48,0.85,0.95,-1.28,0.46,1,5
16858.796,0.064,0.481,0.853,1.07,-1.31,-0.18,1,5
16858.812,0.058,0.484,0.856,1.25,-1.4,-0.37,1,5
16858.828,0.047,0.492,0.86,1.19,-2.38,0.12,1,5
16858.828,0.052,0.493,0.858,0.09,-4.88,0.79,1,5
16858.843,0.062,0.492,0.852,-1.16,-7.29,1.22,1,5
16858.859,0.068,0.489,0.843,-1.56,-8.85,1.56,1,5
16858.875,0.093,0.48,0.817,-2.11,-9.49,1.53,1,5
16858.89,0.105,0.465,0.804,-1.92,-7.42,1.37,1,5
16858.89,0.113,0.443,0.796,-0.64,-3.88,0.85,1,5
16858.906,0.122,0.427,0.805,-0.61,0.4,-0.03,1,5
16858.921,0.15,0.418,0.773,1.89,4.94,-1.43,1,5
16858.921,0.167,0.353,0.683,9.77,14.71,-5.55,1,5
16858.937,0.141,0.357,0.671,16.39,28.6,-12.42,1,5
16858.937,0.079,0.412,0.723,21.49,42.15,-18.59,1,5
16858.953,-0.077,0.583,0.928,9.4,41.96,-24.32,1,5
16858.968,-0.072,0.744,1.14,-22.19,22.46,-18.43,1,5
16858.968,-0.122,0.797,1.19,-40.86,-1.37,-5.49,1,5
16858.984,0.051,0.716,1.12,-47.18,-18.8,14.59,1,5
16859.0,0.11,0.525,0.997,-33.36,-17.88,26.28,1,5
16859.015,0.09,0.45,0.968,-20.02,-11.26,25.45,1,5
16859.015,0.043,0.403,0.977,-5.58,-10.62,16.54,1,5
16859.031,-0.001,0.402,0.968,6.78,-16.3,6.29,1,5
16859.046,0.078,0.519,0.887,10.38,-35.77,-1.07,1,5
16859.062,0.068,0.455,0.812,13.55,-32.5,-0.37,1,5
16859.062,0.045,0.553,0.834,5.34,-29.48,2.56,1,5
16859.078,0.093,0.531,0.825,-3.51,-28.08,8.12,1,5
16859.078,0.085,0.468,0.804,-8.21,-24.38,11.17,1,5
16859.093,0.103,0.463,0.812,-11.54,-20.87,13.95,1,5
16859.109,0.109,0.444,0.81,-10.71,-18.34,13.58,1,5
16859.109,0.114,0.422,0.809,-7.6,-15.72,12.02,1,5
16859.125,0.123,0.42,0.804,-3.63,-12.85,9.61,1,5
16859.14,0.134,0.422,0.796,0.09,-9.34,6.9,1,5
16859.14,0.14,0.428,0.79,2.59,-4.88,4.09,1,5
16859.156,0.139,0.433,0.791,3.66,-0.09,1.46,1,5
16859.171,0.129,0.443,0.806,3.63,4.43,-1.34,1,5
16859.171,0.106,0.45,0.825,4.3,8.03,-3.39,1,5
16859.187,0.068,0.463,0.852,5.58,9.19,-4.79,1,5
16859.187,0.058,0.479,0.877,3.57,5.62,-5.49,1,5
16859.203,0.064,0.504,0.894,-0.34,0.43,-6.01,1,5
16859.218,0.068,0.508,0.895,-2.53,-3.08,-5.71,1,5
16859.218,0.074,0.518,0.896,-3.11,-3.48,-4.46,1,5
16859.234,0.065,0.528,0.9,-1.4,-1.04,-3.02,1,5
16859.25,0.028,0.537,0.918,0.55,2.87,-1.89,1,5
16859.25,-0.013,0.542,0.943,1.56,6.07,-0.95,1,5
16859.265,-0.051,0.544,0.964,2.56,7.87,-0.27,1,5
16859.281,-0.082,0.55,0.971,4.3,8.58,-0.03,1,5
16859.281,-0.133,0.543,0.977,7.51,9.22,-0.64,1,5
16859.296,-0.192,0.542,0.983,9.89,9.55,-1.34,1,5
16859.312,-0.253,0.533,0.98,12.36,9.37,-1.86,1,5
16859.312,-0.323,0.517,0.969,14.37,8.94,-2.47,1,5
16859.328,-0.391,0.502,0.948,15.14,8.42,-3.45,1,5
16859.328,-0.439,0.471,0.912,15.41,6.96,-5.22,1,5
16859.343,-0.463,0.448,0.878,16.11,5.55,-8.03,1,5
16859.359,-0.467,0.428,0.833,19.53,6.9,-11.96,1,5
16859.375,-0.466,0.394,0.789,25.54,11.81,-15.5,1,5
16859.375,-0.473,0.382,0.755,31.53,18.98,-18.4,1,5
16859.39,-0.478,0.385,0.728,35.37,25.79,-20.97,1,5
16859.39,-0.475,0.38,0.701,35.71,31.19,-23.38,1,5
16859.406,-0.475,0.374,0.684,32.53,35.77,-25.67,1,5
16859.421,-0.469,0.364,0.678,28.23,38.88,-27.16,1,5
16859.421,-0.463,0.364,0.687,24.17,41.02,-28.32,1,5
16859.437,-0.472,0.35,0.699,23.07,42.54,-28.93,1,5
16859.453,-0.473,0.355,0.723,23.96,42.45,-27.41,1,5
16859.453,-0.452,0.366,0.77,26.31,39.16,-23.32,1,5
16859.468,-0.404,0.367,0.771,28.6,34.24,-17.67,1,5
16859.468,-0.382,0.388,0.765,29.76,31.1,-11.84,1,5
16859.484,-0.36,0.373,0.792,30.21,26.18,-6.56,1,5
16859.5,-0.298,0.379,0.804,26.06,18.4,-0.49,1,5
16859.5,-0.225,0.391,0.759,17.06,12.33,3.69,1,5
16859.515,-0.166,0.388,0.722,3.97,8.97,5.1,1,5
16859.515,-0.075,0.399,0.706,-12.51,8.48,3.54,1,5
16859.531,0.029,0.382,0.696,-27.99,12.82,-0.52,1,5
16859.546,0.114,0.312,0.706,-39.52,40.5,-10.68,1,5
16859.562,0.086,0.297,0.698,-34.46,55.54,-15.41,1,5
16859.578,0.079,0.307,0.681,-31.25,67.63,-19.44,1,5
16859.578,0.083,0.322,0.664,-32.75,77.09,-25.39,1,5
16859.593,0.075,0.341,0.651,-37.87,87.28,-33.27,1,5
16859.609,0.069,0.341,0.657,-46.02,96.8,-41.6,1,5
16859.625,0.079,0.324,0.681,-53.74,106.2,-49.47,1,5
16859.625,0.116,0.35,0.703,-58.02,118.66,-56.37,1,5
16859.64,0.14,0.404,0.706,-64.03,134.04,-62.72,1,5
16859.64,0.152,0.433,0.735,-75.26,150.03,-70.53,1,5
16859.656,0.088,0.423,0.854,-83.35,165.32,-80.26,1,5
16859.671,-0.031,0.392,0.967,-79.96,174.29,-87.41,1,5
16859.671,-0.124,0.411,1.035,-60.12,167.52,-89.85,1,5
16859.687,-0.219,0.486,1.095,-57.01,152.9,-87.92,1,5
16859.687,-0.282,0.493,1.087,-61.95,135.11,-84.14,1,5
16859.703,-0.274,0.501,1.083,-62.81,120.49,-81.67,1,5
16859.734,-0.291,0.493,0.989,-55.27,105.32,-65.37,1,5
16859.734,-0.289,0.485,0.959,-53.71,104.01,-57.68,1,5
16859.75,-0.329,0.463,0.957,-53.74,104.5,-53.96,1,5
16859.75,-0.365,0.429,0.988,-54.2,103.61,-53.44,1,5
16859.765,-0.054,0.268,1.072,-49.93,95.49,-65.77,1,5
16859.781,-0.556,0.341,1.012,-37.84,91.89,-97.17,1,5
16859.781,-0.407,0.225,1.102,-33.42,87.01,-94.91,1,5
16859.796,-0.487,0.405,1.195,-20.87,78.55,-105.87,1,5
16859.796,-0.692,0.418,1.187,3.36,75.99,-97.51,1,5
16859.812,-0.462,0.509,1.089,18.04,63.54,-73.98,1,5
16859.828,-0.404,0.696,0.852,11.11,51.06,-77.61,1,5
16859.843,-0.437,0.522,0.859,-17.3,48.49,-82.03,1,5
16859.843,-0.47,0.341,0.91,-31.07,54.02,-80.81,1,5
16859.859,-0.438,0.315,0.909,-20.75,59.18,-78.37,1,5
16859.859,-0.451,0.304,0.848,-6.53,64.09,-86.25,1,5
16859.875,-0.498,0.2,0.859,2.32,70.16,-98.36,1,5
16859.89,-0.521,0.177,0.899,16.75,72.3,-114.51,1,5
16859.89,-0.612,0.122,0.89,39.22,72.15,-134.62,1,5
16859.906,-0.709,0.113,0.935,60.3,67.57,-151.43,1,5
16859.921,-0.799,0.213,0.956,79.2,58.72,-162.24,1,5
16859.921,-0.876,0.31,0.902,84.08,42.42,-163.15,1,5
16859.937,-0.841,0.354,0.836,69.61,25.33,-153.6,1,5
16859.953,-0.775,0.389,0.799,49.38,15.78,-138.46,1,5
16859.953,-0.764,0.357,0.71,30.7,11.69,-120.82,1,5
16859.968,-0.738,0.308,0.662,13.18,12.79,-101.6,1,5
16859.968,-0.678,0.253,0.645,3.08,19.32,-84.78,1,5
16859.984,-0.679,0.185,0.615,1.04,28.32,-74.98,1,5
16860.0,-0.677,0.129,0.597,2.17,37.84,-70.28,1,5
16860.0,-0.669,0.085,0.613,5.77,47.7,-70.56,1,5
16860.015,-0.752,0.005,0.641,13.37,56.12,-75.5,1,5
16860.031,-0.722,-0.034,0.696,25.18,61.92,-79.26,1,5
16860.031,-0.767,-0.049,0.722,40.59,63.54,-88.56,1,5
16860.046,-0.854,-0.111,0.684,46.17,58.87,-93.11,1,5
16860.046,-0.673,-0.019,0.778,48.07,55.33,-97.45,1,5
16860.062,-0.777,-0.059,0.753,53.87,49.29,-108.55,1,5
16860.078,-0.748,-0.081,0.757,51.12,44.47,-109.5,1,5
16860.078,-0.689,-0.045,0.79,51.12,41.72,-106.57,1,5
16860.093,-0.717,0.015,0.795,55.54,39.46,-110.93,1,5
16860.109,-0.81,0.009,0.752,54.23,38.58,-104.83,1,5
16860.109,-0.807,0.116,0.757,44.59,30.67,-94.24,1,5
16860.125,-0.84,0.102,0.673,36.74,28.17,-78.46,1,5
16860.14,-0.783,0.09,0.652,17.43,23.5,-52.19,1,5
16860.14,-0.786,0.094,0.616,-0.79,22.89,-34.18,1,5
16860.156,-0.674,0.084,0.608,-19.23,26.76,-15.81,1,5
16860.156,-0.854,-0.006,0.632,-34.88,30.15,-8.48,1,5
16860.171,-0.714,-0.081,0.752,-44.86,33.81,14.68,1,5
16860.187,-0.909,-0.053,0.81,-35.77,28.63,19.56,1,5
16860.187,-0.983,-0.036,0.77,-23.04,25.48,39.61,1,5
16860.203,-0.854,0.09,0.685,-25.97,8.85,60.21,1,5
16860.218,-0.736,0.059,0.592,-43.37,-0.92,63.17,1,5
16860.218,-0.871,-0.128,0.544,-68.76,-1.28,62.11,1,5
16860.234,-0.769,-0.104,0.604,-87.37,-2.56,75.56,1,5
16860.25,-0.803,-0.07,0.493,-91.4,3.63,79.44,1,5
16860.25,-0.844,-0.103,0.452,-106.57,7.42,82.34,1,5
16860.265,-0.744,-0.095,0.556,-121.1,8.36,80.48,1,5
16860.281,-0.844,-0.089,0.62,-114.54,11.11,67.26,1,5
16860.281,-0.883,-0.066,0.7,-97.57,8.15,62.04,1,5
16860.296,-0.837,0.014,0.691,-73.7,1.1,58.84,1,5
16860.296,-0.849,0.051,0.624,-56.25,-4.49,56.64,1,5
16860.312,-0.846,0.117,0.59,-53.96,-11.17,56.18,1,5
16860.328,-0.867,0.121,0.573,-60.7,-18.07,55.97,1,5
16860.328,-0.821,0.113,0.565,-70.62,-24.26,60.49,1,5
16860.343,-0.806,0.105,0.519,-76.17,-24.72,66.19,1,5
16860.359,-0.794,0.075,0.515,-82.43,-21.79,71.93,1,5
16860.359,-0.798,0.063,0.56,-85.42,-19.07,73.7,1,5
16860.375,-0.834,0.071,0.591,-81.3,-17.3,75.35,1,5
16860.39,-0.835,0.086,0.624,-76.33,-19.29,77.91,1,5
16860.39,-0.822,0.08,0.639,-71.78,-23.44,78.68,1,5
16860.406,-0.781,0.078,0.645,-66.23,-28.96,78.37,1,5
16860.406,-0.741,0.047,0.62,-60.64,-34.15,74.56,1,5
16860.421,-0.692,0.013,0.582,-54.08,-35.37,68.27,1,5
16860.437,-0.665,-0.027,0.53,-44.68,-31.16,59.76,1,5
16860.437,-0.663,-0.049,0.496,-36.07,-23.35,50.45,1,5
16860.453,-0.668,-0.052,0.508,-29.3,-14.89,40.28,1,5
16860.468,-0.668,-0.052,0.539,-22.95,-8.21,28.84,1,5
16860.468,-0.663,-0.049,0.569,-16.42,-3.51,16.79,1,5
16860.484,-0.664,-0.046,0.614,-10.22,-1.25,4.12,1,5
16860.5,-0.697,-0.048,0.706,-0.7,-1.74,-8.85,1,5
16860.5,-0.728,-0.066,0.727,15.26,-5.62,-18.77,1,5
16860.515,-0.732,-0.037,0.702,29.85,-11.08,-24.57,1,5
16860.531,-0.719,-0.03,0.672,40.47,-15.75,-30.09,1,5
16860.531,-0.701,-0.029,0.672,45.99,-19.65,-36.53,1,5
16860.546,-0.67,-0.047,0.614,51.15,-21.06,-42.85,1,5
16860.546,-0.662,-0.052,0.589,55.6,-17.91,-48.4,1,5
16860.562,-0.671,-0.056,0.633,61.04,-13.21,-52.49,1,5
16860.578,-0.698,-0.059,0.661,67.32,-9.46,-55.24,1,5
16860.578,-0.732,-0.042,0.689,69.95,-8.64,-55.6,1,5
16860.593,-0.762,-0.02,0.719,66.68,-12.51,-55.42,1,5
16860.609,-0.781,-0.028,0.729,60.76,-20.6,-55.54,1,5
16860.625,-0.769,-0.046,0.714,55.18,-29.54,-55.57,1,5
16860.625,-0.75,-0.052,0.704,52.67,-35.13,-55.67,1,5
16860.64,-0.756,-0.032,0.711,54.35,-36.68,-55.3,1,5
16860.64,-0.788,0.011,0.704,57.22,-35.68,-52.13,1,5
16860.656,-0.795,0.087,0.686,55.85,-33.81,-43.79,1,5
16860.671,-0.831,0.171,0.673,34.09,-26.06,-9.0,1,5
16860.671,-0.828,0.204,0.664,12.33,-20.48,15.53,1,5
16860.687,-0.793,0.217,0.666,-8.88,-12.45,38.61,1,5
16860.703,-0.811,0.139,0.677,-26.28,-3.48,58.72,1,5
16860.703,-0.866,0.131,0.704,-39.09,4.39,74.4,1,5
16860.718,-0.927,0.117,0.735,-48.46,8.39,85.3,1,5
16860.718,-0.919,0.088,0.759,-55.76,8.0,93.08,1,5
16860.734,-0.888,0.054,0.748,-58.44,7.2,96.56,1,5
16860.75,-0.886,0.008,0.73,-57.44,7.75,96.41,1,5
16860.75,-0.875,-0.017,0.72,-56.61,8.3,94.21,1,5
16860.765,-0.847,-0.06,0.689,-56.22,7.63,87.92,1,5
16860.781,-0.816,-0.105,0.639,-54.08,8.18,76.94,1,5
16860.781,-0.783,-0.115,0.598,-51.7,10.41,62.35,1,5
16860.796,-0.742,-0.122,0.563,-50.02,14.1,42.85,1,5
16860.812,-0.771,-0.132,0.598,-48.92,21.12,21.49,1,5
16860.812,-0.838,-0.155,0.702,-42.57,28.84,2.47,1,5
16860.828,-0.922,-0.158,0.767,-29.02,31.65,-12.54,1,5
16860.843,-1.014,-0.121,0.895,-13.64,28.23,-21.36,1,5
16860.843,-1.079,-0.101,0.964,7.02,16.05,-24.75,1,5
16860.859,-1.034,-0.027,0.903,21.64,-3.45,-22.89,1,5
16860.859,-0.895,0.03,0.819,23.74,-22.0,-20.6,1,5
16860.875,-0.781,0.03,0.744,22.16,-33.3,-22.25,1,5
16860.89,-0.715,0.014,0.656,23.07,-36.23,-24.63,1,5
16860.89,-0.666,0.013,0.578,24.14,-31.1,-25.3,1,5
16860.906,-0.664,0.016,0.534,23.65,-20.26,-25.54,1,5
16860.921,-0.691,0.006,0.51,19.29,-8.88,-24.45,1,5
16860.921,-0.696,-0.015,0.55,8.42,0.0,-21.03,1,5
16860.937,-0.706,-0.023,0.633,3.3,7.23,-17.67,1,5
16860.937,-0.72,-0.018,0.689,6.81,11.26,-14.34,1,5
16860.953,-0.704,-0.005,0.758,8.24,9.19,-12.79,1,5
16860.968,-0.684,-0.004,0.794,9.74,1.71,-14.01,1,5
16860.984,-0.641,-0.004,0.775,12.6,-9.4,-16.08,1,5
16860.984,-0.567,-0.021,0.735,16.08,-19.87,-20.14,1,5
16861.0,-0.52,-0.045,0.67,23.5,-26.37,-26.37,1,5
16861.0,-0.503,-0.063,0.606,30.73,-29.18,-33.27,1,5
16861.015,-0.505,-0.046,0.577,34.97,-30.82,-42.88,1,5
16861.031,-0.526,-0.041,0.568,39.92,-32.07,-54.2,1,5
16861.031,-0.545,-0.02,0.574,44.92,-33.97,-65.0,1,5
16861.046,-0.606,0.047,0.582,49.9,-35.89,-73.79,1,5
16861.062,-0.679,0.092,0.554,54.96,-38.58,-76.85,1,5
16861.062,-0.682,0.144,0.513,55.02,-40.35,-70.86,1,5
16861.078,-0.667,0.186,0.475,49.68,-38.79,-60.3,1,5
16861.078,-0.69,0.19,0.443,41.23,-34.12,-48.1,1,5
16861.093,-0.715,0.196,0.452,29.05,-28.93,-34.0,1,5
16861.109,-0.715,0.191,0.476,16.17,-25.27,-20.57,1,5
16861.109,-0.716,0.175,0.495,6.78,-22.4,-9.52,1,5
16861.125,-0.724,0.148,0.509,0.27,-17.79,-0.03,1,5
16861.14,-0.742,0.139,0.535,-4.49,-13.03,6.32,1,5
16861.14,-0.787,0.104,0.576,-3.78,-8.21,10.53,1,5
16861.156,-0.812,0.08,0.595,-0.09,-6.62,14.34,1,5
16861.156,-0.797,0.063,0.595,1.37,-7.75,16.3,1,5
16861.171,-0.773,0.036,0.589,1.68,-9.25,15.26,1,5
16861.187,-0.739,0.016,0.585,1.71,-9.03,12.76,1,5
16861.187,-0.709,-0.001,0.614,3.85,-6.26,9.25,1,5
16861.203,-0.696,-0.024,0.647,12.05,-2.26,5.01,1,5
16861.218,-0.688,-0.038,0.654,21.42,1.19,0.64,1,5
16861.218,-0.676,-0.043,0.667,27.13,2.01,-5.4,1,5
16861.234,-0.651,-0.084,0.689,32.07,2.08,-12.39,1,5
16861.25,-0.627,-0.108,0.714,38.61,2.04,-18.8,1,5
16861.25,-0.61,-0.126,0.748,47.12,3.08,-25.36,1,5
16861.265,-0.598,-0.152,0.769,56.28,3.3,-31.01,1,5
16861.265,-0.599,-0.172,0.772,62.65,2.2,-36.01,1,5
16861.281,-0.607,-0.193,0.758,62.81,1.68,-38.18,1,5
16861.296,-0.603,-0.185,0.742,56.25,0.49,-39.03,1,5
16861.312,-0.606,-0.178,0.72,46.51,-0.4,-40.38,1,5
16861.312,-0.646,-0.127,0.712,36.87,0.37,-40.38,1,5
16861.328,-0.705,-0.063,0.732,30.37,2.17,-36.74,1,5
16861.328,-0.738,0.025,0.711,23.83,-0.79,-28.63,1,5
16861.343,-0.745,0.087,0.741,10.13,-8.42,-18.28,1,5
16861.359,-0.753,0.073,0.741,2.11,-5.49,-1.28,1,5
16861.359,-0.742,0.11,0.696,-6.16,-7.17,17.52,1,5
16861.375,-0.737,0.1,0.658,-21.09,-6.29,33.94,1,5
16861.39,-0.744,0.046,0.641,-38.85,-4.09,47.18,1,5
16861.39,-0.735,0.009,0.635,-55.12,-1.22,57.44,1,5
16861.406,-0.713,-0.024,0.64,-65.86,2.14,62.53,1,5
16861.421,-0.691,-0.047,0.633,-69.98,5.8,61.8,1,5
16861.421,-0.676,-0.053,0.654,-67.11,10.35,56.09,1,5
16861.437,-0.708,-0.046,0.702,-58.53,12.91,45.81,1,5
16861.453,-0.726,-0.037,0.738,-47.58,10.22,34.3,1,5
16861.453,-0.717,-0.031,0.752,-36.77,4.18,22.83,1,5
16861.468,-0.704,-0.03,0.739,-25.36,-1.1,12.3,1,5
16861.468,-0.686,-0.027,0.708,-14.98,-4.18,3.72,1,5
16861.484,-0.67,-0.002,0.696,-10.04,-4.61,-2.93,1,5
16861.5,-0.695,0.002,0.695,-8.79,-3.97,-9.25,1,5
16861.515,-0.724,-0.007,0.69,-8.06,-4.03,-12.94,1,5
16861.515,-0.725,0.009,0.675,-8.06,-4.67,-12.94,1,5
16861.515,-0.711,0.022,0.647,-8.76,-4.43,-11.57,1,5
16861.531,-0.684,0.028,0.632,-11.02,-2.87,-9.83,1,5
16861.546,-0.678,0.021,0.655,-11.9,0.79,-7.63,1,5
16861.562,-0.686,0.026,0.678,-10.19,4.36,-4.18,1,5
16861.562,-0.679,0.041,0.713,-8.7,6.78,-0.85,1,5
16861.578,-0.686,0.031,0.743,-7.45,7.2,1.77,1,5
16861.578,-0.689,0.019,0.761,-8.73,6.53,5.83,1,5
16861.593,-0.676,0.022,0.773,-13.21,5.4,9.61,1,5
16861.609,-0.662,0.014,0.804,-17.15,3.02,11.05,1,5
16861.625,-0.638,0.002,0.821,-18.46,-0.76,11.93,1,5
16861.625,-0.591,0.014,0.821,-18.77,-4.7,12.48,1,5
16861.64,-0.562,0.031,0.834,-16.69,-7.35,11.69,1,5
16861.64,-0.576,0.045,0.844,-12.91,-11.63,9.19,1,5
16861.656,-0.593,0.063,0.834,-10.74,-15.23,9.34,1,5
16861.671,-0.61,0.082,0.828,-8.21,-17.12,11.14,1,5
16861.671,-0.558,0.042,0.832,-7.29,-16.69,14.37,1,5
16861.687,-0.526,0.053,0.769,-13.28,-19.53,16.69,1,5
16861.687,-0.52,0.031,0.775,-18.62,-19.04,18.16,1,5
16861.703,-0.469,0.031,0.791,-23.26,-19.47,20.69,1,5
16861.718,-0.432,0.043,0.813,-25.91,-18.71,21.73,1,5
16861.718,-0.427,0.057,0.862,-26.46,-17.06,21.61,1,5
16861.734,-0.441,0.068,0.9,-24.96,-16.66,20.51,1,5
16861.75,-0.473,0.082,0.949,-23.44,-18.28,19.29,1,5
16861.75,-0.526,0.09,0.997,-21.39,-22.77,18.52,1,5
16861.765,-0.559,0.101,1.012,-20.78,-30.27,19.26,1,5
16861.781,-0.568,0.113,0.994,-21.49,-38.58,19.93,1,5
16861.781,-0.571,0.11,0.958,-21.18,-44.89,21.55,1,5
16861.796,-0.56,0.132,0.927,-21.06,-48.4,24.75,1,5
16861.796,-0.536,0.153,0.909,-21.85,-49.5,28.11,1,5
16861.812,-0.542,0.158,0.898,-23.41,-49.35,29.27,1,5
16861.828,-0.548,0.161,0.917,-23.93,-48.65,31.71,1,5
16861.828,-0.547,0.196,0.929,-21.58,-49.99,34.12,1,5
16861.843,-0.562,0.203,0.943,-19.62,-53.47,36.35,1,5
16861.859,-0.567,0.236,0.963,-19.47,-58.47,39.89,1,5
16861.875,-0.563,0.253,0.974,-19.99,-64.33,43.79,1,5
16861.875,-0.578,0.228,0.969,-21.94,-70.77,48.4,1,5
16861.89,-0.571,0.222,0.966,-26.15,-76.2,54.32,1,5
16861.89,-0.587,0.164,0.927,-29.66,-76.45,61.83,1,5
16861.906,-0.572,0.147,0.904,-34.03,-76.6,66.84,1,5
16861.906,-0.578,0.081,0.892,-38.36,-74.13,69.25,1,5
16861.921,-0.546,0.077,0.921,-40.35,-72.21,68.79,1,5
16861.937,-0.558,0.06,0.933,-36.41,-70.19,65.1,1,5
16861.953,-0.526,0.046,0.962,-32.2,-71.35,59.76,1,5
16861.953,-0.532,0.037,0.988,-25.12,-73.21,52.34,1,5
16861.968,-0.528,0.042,1.0,-16.02,-76.02,46.02,1,5
16861.968,-0.517,0.074,0.992,-10.13,-78.25,40.47,1,5
16861.984,-0.492,0.085,1.01,-9.28,-79.9,34.64,1,5
16862.0,-0.517,0.091,1.038,-5.58,-80.6,28.78,1,5
16862.0,-0.533,0.095,1.038,1.74,-81.94,25.36,1,5
16862.015,-0.527,0.102,1.011,7.81,-83.62,23.53,1,5
16862.031,-0.512,0.11,0.988,11.26,-85.09,22.34,1,5
16862.031,-0.511,0.104,0.968,12.94,-86.0,21.97,1,5
16862.046,-0.505,0.089,0.957,12.51,-86.12,22.98,1,5
16862.046,-0.504,0.077,0.96,11.57,-85.02,24.23,1,5
16862.062,-0.504,0.08,0.965,11.23,-83.44,25.91,1,5
16862.078,-0.493,0.084,0.968,9.92,-81.85,28.2,1,5
16862.078,-0.478,0.087,0.988,6.96,-79.99,30.61,1,5
16862.093,-0.479,0.088,1.009,5.22,-79.41,32.69,1,5
16862.109,-0.47,0.081,1.011,4.61,-80.54,35.1,1,5
16862.109,-0.44,0.083,1.001,4.0,-82.09,37.17,1,5
16862.125,-0.43,0.089,1.004,2.62,-82.4,39.0,1,5
16862.14,-0.431,0.083,0.995,0.18,-82.31,40.89,1,5
16862.14,-0.413,0.078,0.995,-3.63,-81.48,43.49,1,5
16862.156,-0.393,0.069,0.996,-5.83,-80.17,45.35,1,5
16862.171,-0.37,0.058,0.979,-6.23,-78.34,46.08,1,5
16862.171,-0.337,0.053,0.97,-6.29,-76.69,45.05,1,5
16862.187,-0.293,0.043,0.957,-5.4,-75.08,42.18,1,5
16862.187,-0.266,0.033,0.954,-3.3,-71.69,38.15,1,5
16862.203,-0.255,0.025,0.977,0.18,-66.71,34.79,1,5
16862.218,-0.25,0.037,1.022,2.66,-62.44,33.17,1,5
16862.218,-0.252,0.047,1.059,3.75,-60.34,32.2,1,5
16862.234,-0.23,0.053,1.083,3.23,-60.7,32.26,1,5
16862.25,-0.198,0.067,1.107,1.59,-62.81,31.59,1,5
16862.25,-0.181,0.064,1.117,0.46,-65.52,29.54,1,5
16862.265,-0.159,0.062,1.118,1.53,-68.58,27.44,1,5
16862.281,-0.128,0.063,1.108,3.54,-71.47,26.09,1,5
16862.281,-0.111,0.067,1.092,3.88,-72.79,25.15,1,5
16862.296,-0.1,0.07,1.089,2.11,-73.06,24.41,1,5
16862.312,-0.085,0.066,1.095,0.37,-73.09,23.19,1,5
16862.312,-0.084,0.066,1.109,0.76,-72.66,21.88,1,5
16862.328,-0.088,0.077,1.121,1.92,-72.18,21.0,1,5
16862.328,-0.076,0.096,1.132,0.98,-72.85,20.84,1,5
16862.343,-0.056,0.107,1.14,-1.04,-74.65,21.39,1,5
16862.359,-0.041,0.111,1.139,-2.56,-76.14,22.77,1,5
16862.375,-0.029,0.114,1.143,-3.33,-77.27,24.32,1,5
16862.375,-0.019,0.11,1.144,-3.48,-78.4,25.94,1,5
16862.39,-0.007,0.098,1.13,-2.84,-79.68,26.83,1,5
16862.39,-0.004,0.089,1.129,-2.5,-80.14,27.25,1,5
16862.406,0.0,0.085,1.125,-3.45,-80.69,27.31,1,5
16862.406,0.006,0.08,1.127,-4.33,-80.94,27.07,1,5
16862.421,0.003,0.074,1.127,-4.39,-81.15,26.55,1,5
16862.437,0.021,0.071,1.128,-4.33,-82.28,26.28,1,5
16862.437,0.031,0.067,1.12,-4.73,-83.38,25.45,1,5
16862.453,0.032,0.053,1.117,-4.85,-84.48,23.68,1,5
16862.468,0.055,0.05,1.118,-4.64,-85.67,22.25,1,5
16862.468,0.085,0.054,1.106,-4.0,-86.49,20.14,1,5
16862.484,0.112,0.054,1.104,-2.84,-86.15,17.43,1,5
16862.5,0.127,0.057,1.101,-1.22,-85.73,14.65,1,5
16862.5,0.123,0.056,1.097,-0.55,-86.18,12.21,1,5
16862.515,0.122,0.039,1.113,1.83,-83.53,10.74,1,5
16862.515,0.106,0.015,1.081,8.03,-84.08,13.37,1,5
16862.531,0.168,0.113,1.034,5.8,-89.02,9.09,1,5
16862.546,0.128,0.038,1.066,-1.98,-89.57,6.32,1,5
16862.562,0.141,0.016,1.106,-2.11,-87.16,9.64,1,5
16862.562,0.139,0.072,1.018,4.36,-87.19,7.84,1,5
16862.578,0.175,0.032,1.044,-0.4,-88.41,4.82,1,5
16862.578,0.144,0.004,1.044,1.98,-86.58,5.07,1,5
16862.593,0.197,0.063,0.973,5.58,-89.05,2.11,1,5
16862.609,0.183,0.025,0.989,2.62,-87.25,-1.56,1,5
16862.625,0.178,0.026,0.992,4.18,-85.57,-2.26,1,5
16862.625,0.2,0.049,0.962,8.73,-82.37,-1.07,1,5
16862.625,0.205,0.063,0.95,3.85,-82.61,-0.52,1,5
16862.64,0.219,0.091,0.951,-1.68,-82.64,0.43,1,5
16862.656,0.217,0.077,0.955,-3.63,-82.83,3.27,1,5
16862.656,0.264,0.081,0.946,-2.17,-82.4,6.32,1,5
16862.671,0.284,0.086,0.917,-2.17,-80.75,7.72,1,5
16862.687,0.306,0.074,0.917,-3.33,-78.95,7.17,1,5
16862.687,0.328,0.072,0.926,-3.72,-77.27,6.53,1,5
16862.703,0.344,0.067,0.927,-3.97,-75.93,6.65,1,5
16862.718,0.356,0.045,0.924,-2.96,-74.07,6.81,1,5
16862.734,0.366,0.047,0.918,-0.67,-73.21,5.58,1,5
16862.734,0.365,0.049,0.908,0.31,-73.15,2.84,1,5
16862.75,0.354,0.041,0.919,0.52,-73.79,0.15,1,5
16862.75,0.361,0.045,0.913,2.04,-75.32,-1.1,1,5
16862.765,0.373,0.056,0.889,1.86,-76.57,-1.19,1,5
16862.781,0.389,0.064,0.872,0.58,-76.63,-1.74,1,5
16862.781,0.409,0.077,0.864,0.18,-75.96,-2.44,1,5
16862.796,0.421,0.089,0.857,-0.55,-74.68,-2.26,1,5
16862.796,0.422,0.095,0.848,-0.64,-72.97,-1.31,1,5
16862.812,0.433,0.095,0.837,-0.52,-72.05,0.18,1,5
16862.828,0.463,0.092,0.819,-1.01,-71.63,2.66,1,5
16862.828,0.471,0.088,0.798,-2.9,-70.19,5.37,1,5
16862.843,0.462,0.078,0.784,-5.49,-67.75,8.12,1,5
16862.859,0.461,0.068,0.775,-8.15,-65.65,10.16,1,5
16862.859,0.47,0.066,0.772,-9.61,-64.42,10.04,1,5
16862.875,0.485,0.061,0.765,-9.95,-63.48,9.16,1,5
16862.89,0.516,0.056,0.766,-9.61,-62.32,8.45,1,5
16862.89,0.531,0.051,0.772,-8.58,-60.79,8.12,1,5
16862.906,0.53,0.049,0.773,-7.23,-60.03,7.23,1,5
16862.906,0.527,0.052,0.774,-6.87,-60.4,5.86,1,5
16862.921,0.534,0.043,0.774,-6.23,-61.28,4.91,1,5
16862.937,0.559,0.047,0.751,-3.54,-61.83,4.12,1,5
16862.937,0.58,0.071,0.727,-2.44,-61.53,3.48,1,5
16862.953,0.588,0.084,0.716,-5.19,-60.24,3.63,1,5
16862.968,0.598,0.072,0.721,-7.35,-58.72,5.95,1,5
16862.968,0.593,0.066,0.709,-7.75,-57.41,9.06,1,5
16862.984,0.594,0.065,0.686,-9.95,-56.55,11.17,1,5
16863.0,0.601,0.05,0.677,-13.15,-55.88,11.93,1,5
16863.0,0.616,0.037,0.672,-14.19,-54.75,11.75,1,5
16863.015,0.629,0.037,0.668,-13.09,-53.01,11.14,1,5
16863.031,0.656,0.037,0.664,-11.44,-52.06,10.41,1,5
16863.031,0.669,0.037,0.667,-9.77,-51.3,9.89,1,5
16863.046,0.654,0.034,0.66,-8.67,-51.09,9.06,1,5
16863.062,0.661,0.025,0.642,-7.63,-52.22,7.51,1,5
16863.062,0.693,0.021,0.624,-5.34,-52.74,6.04,1,5
16863.078,0.697,0.035,0.611,-3.54,-51.3,4.94,1,5
16863.078,0.712,0.042,0.604,-3.36,-49.87,4.7,1,5
16863.093,0.715,0.048,0.608,-4.76,-48.13,5.49,1,5
16863.109,0.713,0.042,0.614,-6.47,-46.69,6.35,1,5
16863.125,0.714,0.036,0.617,-6.93,-46.17,6.01,1,5
16863.125,0.741,0.035,0.622,-5.4,-46.69,5.19,1,5
16863.14,0.753,0.044,0.625,-3.6,-46.97,4.82,1,5
16863.14,0.757,0.049,0.62,-3.05,-47.43,4.0,1,5
16863.156,0.763,0.046,0.619,-3.27,-47.94,3.81,1,5
16863.171,0.759,0.045,0.61,-3.27,-48.49,4.0,1,5
16863.171,0.76,0.038,0.6,-2.87,-48.95,3.94,1,5
16863.187,0.767,0.026,0.587,-1.86,-48.98,3.23,1,5
16863.187,0.783,0.025,0.572,-0.85,-47.94,3.08,1,5
16863.203,0.785,0.029,0.559,-1.34,-46.39,3.36,1,5
16863.218,0.77,0.024,0.555,-2.9,-44.34,3.81,1,5
16863.234,0.755,0.016,0.558,-4.03,-43.12,4.24,1,5
16863.234,0.747,0.011,0.556,-4.33,-42.79,4.79,1,5
16863.25,0.738,0.0,0.547,-4.0,-42.76,4.85,1,5
16863.25,0.734,-0.007,0.533,-2.99,-42.85,4.3,1,5
16863.265,0.742,-0.005,0.515,-3.27,-42.36,3.81,1,5
16863.281,0.757,0.0,0.5,-5.8,-41.02,3.69,1,5
16863.281,0.78,0.003,0.493,-8.91,-38.7,4.55,1,5
16863.296,0.797,0.012,0.495,-10.77,-35.98,5.8,1,5
16863.296,0.785,0.021,0.504,-12.18,-33.54,6.41,1,5
16863.312,0.746,0.011,0.516,-11.96,-32.47,6.99,1,5
16863.328,0.741,0.02,0.504,-9.34,-34.18,6.84,1,5
16863.343,0.758,0.023,0.476,-7.17,-35.04,5.46,1,5
16863.343,0.764,0.024,0.462,-6.84,-34.39,4.24,1,5
16863.359,0.757,0.033,0.453,-5.83,-33.05,3.63,1,5
16863.359,0.791,0.044,0.435,-3.69,-32.5,4.09,1,5
16863.375,0.81,0.062,0.431,-3.88,-31.16,6.71,1,5
16863.39,0.785,0.052,0.426,-6.26,-29.45,9.86,1,5
16863.39,0.767,0.022,0.423,-7.66,-28.69,12.02,1,5
16863.406,0.754,0.009,0.417,-7.11,-28.47,12.51,1,5
16863.406,0.787,0.015,0.403,-6.47,-28.17,12.6,1,5
16863.421,0.824,0.029,0.408,-8.06,-26.7,13.76,1,5
16863.437,0.83,0.029,0.42,-9.77,-24.75,14.71,1,5
16863.453,0.827,0.013,0.433,-10.22,-24.14,14.8,1,5
16863.453,0.82,-0.003,0.434,-8.76,-24.54,14.01,1,5
16863.468,0.831,-0.013,0.431,-6.68,-25.3,12.79,1,5
16863.468,0.86,-0.022,0.426,-5.31,-26.15,11.26,1,5
16863.484,0.866,-0.025,0.428,-4.33,-25.82,11.08,1,5
16863.5,0.852,-0.026,0.422,-4.43,-25.33,11.05,1,5
16863.5,0.839,-0.034,0.419,-3.88,-26.03,10.19,1,5
16863.515,0.861,-0.041,0.41,-2.29,-27.28,8.88,1,5
16863.531,0.897,-0.044,0.4,-0.76,-26.98,8.24,1,5
16863.531,0.906,-0.048,0.393,0.12,-24.9,7.69,1,5
16863.546,0.898,-0.053,0.409,0.76,-22.64,6.87,1,5
16863.546,0.88,-0.051,0.417,1.25,-21.97,5.83,1,5
16863.562,0.904,-0.054,0.425,0.4,-23.13,4.79,1,5
16863.578,0.901,-0.053,0.429,-0.67,-24.17,3.54,1,5
16863.578,0.896,-0.051,0.423,-0.55,-24.99,2.04,1,5
16863.593,0.91,-0.042,0.414,-0.43,-25.91,1.1,1,5
16863.609,0.914,-0.029,0.393,0.31,-26.18,-0.09,1,5
16863.609,0.893,-0.025,0.374,4.06,-25.06,-3.48,1,5
16863.625,0.882,-0.027,0.356,5.43,-23.65,-3.14,1,5
16863.64,0.891,-0.019,0.348,3.6,-20.97,-1.77,1,5
16863.64,0.848,-0.006,0.354,1.22,-18.71,-0.37,1,5
16863.656,0.823,-0.017,0.359,1.19,-17.64,1.59,1,5
16863.656,0.828,-0.016,0.339,2.32,-18.07,3.42,1,5
16863.671,0.87,-0.018,0.319,3.33,-18.56,4.67,1,5
16863.687,0.894,-0.017,0.305,2.66,-17.33,5.8,1,5
16863.687,0.896,-0.025,0.306,0.82,-15.11,7.45,1,5
16863.703,0.875,-0.035,0.309,-0.24,-13.21,8.73,1,5
16863.718,0.869,-0.04,0.315,0.09,-12.36,9.19,1,5
16863.718,0.88,-0.04,0.313,1.22,-12.15,9.61,1,5
16863.734,0.874,-0.039,0.305,1.19,-12.09,10.59,1,5
16863.75,0.857,-0.05,0.293,-0.21,-12.39,11.84,1,5
16863.75,0.85,-0.069,0.284,-1.95,-12.73,13.49,1,5
16863.765,0.863,-0.084,0.26,-3.45,-12.54,14.62,1,5
16863.781,0.871,-0.098,0.243,-4.03,-10.44,14.8,1,5
16863.781,0.875,-0.103,0.249,-4.64,-6.93,14.34,1,5
16863.796,0.866,-0.106,0.27,-5.34,-3.54,13.61,1,5
16863.812,0.852,-0.119,0.282,-5.4,-2.08,12.21,1,5
16863.812,0.858,-0.13,0.289,-4.36,-1.74,10.38,1,5
16863.828,0.862,-0.13,0.287,-2.53,-1.22,8.24,1,5
16863.828,0.856,-0.125,0.293,-1.83,-0.67,6.23,1,5
16863.843,0.849,-0.124,0.303,-2.14,-0.82,3.75,1,5
16863.859,0.863,-0.126,0.3,-1.1,-1.28,1.34,1,5
16863.859,0.883,-0.111,0.289,0.73,-0.55,-0.61,1,5
16863.875,0.891,-0.098,0.295,1.01,0.43,-2.47,1,5
16863.89,0.896,-0.091,0.306,0.34,1.31,-3.36,1,5
16863.906,0.901,-0.082,0.309,-0.15,1.92,-3.54,1,5
16863.906,0.908,-0.077,0.314,-0.79,2.9,-3.54,1,5
16863.906,0.911,-0.072,0.322,-0.82,3.97,-3.72,1,5
16863.921,0.917,-0.065,0.336,0.15,4.55,-3.88,1,5
16863.937,0.904,-0.058,0.342,1.19,4.55,-4.03,1,5
16863.953,0.895,-0.06,0.342,1.92,3.78,-3.85,1,5
16863.953,0.905,-0.059,0.333,1.68,3.27,-3.33,1,5
16863.968,0.93,-0.062,0.331,0.85,3.72,-2.56,1,5
16863.984,0.931,-0.056,0.346,0.4,5.25,-1.8,1,5
16863.984,0.924,-0.052,0.357,-0.06,5.77,-1.74,1,5
16864.0,0.927,-0.054,0.367,0.18,5.52,-2.29,1,5
16864.0,0.937,-0.049,0.376,1.13,4.76,-2.99,1,5
16864.015,0.951,-0.043,0.375,2.04,3.81,-2.87,1,5
16864.031,0.959,-0.042,0.368,1.83,3.23,-2.08,1,5
16864.031,0.957,-0.045,0.362,1.01,3.23,-1.13,1,5
16864.046,0.943,-0.045,0.362,0.09,3.94,-0.24,1,5
16864.046,0.928,-0.044,0.376,-0.55,3.94,0.7,1,5
16864.062,0.942,-0.045,0.384,-0.95,2.44,1.62,1,5
16864.078,0.954,-0.052,0.38,-0.55,1.62,2.62,1,5
16864.078,0.952,-0.06,0.369,-0.24,1.59,3.39,1,5
16864.093,0.949,-0.07,0.368,-0.58,1.68,3.05,1,5
16864.109,0.952,-0.077,0.365,-0.24,1.71,1.53,1,5
16864.109,0.965,-0.077,0.363,0.79,2.26,0.31,1,5
16864.125,0.963,-0.068,0.366,1.46,3.88,-0.85,1,5
16864.14,0.945,-0.06,0.381,1.53,5.1,-2.14,1,5
16864.14,0.928,-0.053,0.408,1.5,4.3,-2.99,1,5
16864.156,0.931,-0.051,0.415,2.38,2.11,-3.11,1,5
16864.156,0.939,-0.048,0.404,3.45,-0.31,-2.2,1,5
16864.171,0.946,-0.044,0.387,3.45,-2.14,-1.59,1,5
16864.187,0.945,-0.044,0.367,2.35,-3.23,-1.13,1,5
16864.203,0.937,-0.053,0.355,1.22,-2.96,-0.15,1,5
16864.203,0.934,-0.055,0.345,1.07,-1.92,0.52,1,5
16864.218,0.933,-0.051,0.339,1.07,-0.43,0.79,1,5
16864.218,0.926,-0.055,0.344,0.52,1.65,1.25,1,5
16864.234,0.921,-0.056,0.356,0.31,3.14,1.83,1,5
16864.25,0.916,-0.052,0.377,-0.27,3.51,2.17,1,5
16864.25,0.92,-0.056,0.39,-0.52,2.29,2.01,1,5
16864.265,0.923,-0.063,0.391,0.46,0.92,1.37,1,5
16864.281,0.936,-0.062,0.383,1.46,-0.52,0.82,1,5
16864.281,0.939,-0.061,0.368,1.71,-1.37,0.31,1,5
16864.296,0.93,-0.065,0.355,1.86,-1.62,-0.27,1,5
16864.296,0.916,-0.063,0.35,1.98,-1.1,-0.7,1,5
16864.312,0.909,-0.059,0.345,1.74,-0.34,-0.52,1,5
16864.328,0.918,-0.056,0.345,1.1,0.73,0.31,1,5
16864.328,0.921,-0.053,0.353,0.46,2.17,1.22,1,5
16864.343,0.923,-0.056,0.367,-0.21,2.87,2.26,1,5
16864.359,0.927,-0.059,0.379,-0.58,2.66,2.69,1,5
16864.359,0.932,-0.062,0.389,0.09,2.11,2.41,1,5
16864.375,0.928,-0.062,0.385,1.1,1.37,2.04,1,5
16864.39,0.93,-0.062,0.383,1.62,0.55,2.41,1,5
16864.39,0.931,-0.064,0.382,0.64,-0.27,2.81,1,5
16864.406,0.931,-0.073,0.377,-0.24,-0.89,2.69,1,5
16864.421,0.936,-0.081,0.368,0.18,-0.79,1.92,1,5
16864.421,0.932,-0.077,0.365,1.56,0.18,0.76,1,5
16864.437,0.93,-0.071,0.375,2.01,0.79,0.09,1,5
16864.437,0.925,-0.066,0.381,1.1,0.82,-0.03,1,5
16864.453,0.92,-0.069,0.383,0.55,0.43,0.03,1,5
16864.468,0.929,-0.07,0.381,1.1,-0.03,0.0,1,5
16864.468,0.94,-0.066,0.373,1.8,0.03,-0.49,1,5
16864.484,0.938,-0.064,0.376,2.59,0.58,-1.4,1,5
16864.5,0.935,-0.058,0.387,3.33,0.98,-1.19,1,5
16864.5,0.934,-0.05,0.393,2.53,0.89,0.27,1,5
16864.515,0.923,-0.061,0.39,1.34,0.27,1.46,1,5
16864.515,0.909,-0.075,0.386,0.12,-0.58,2.62,1,5
16864.531,0.92,-0.076,0.383,-1.01,-1.86,3.45,1,5
16864.546,0.933,-0.083,0.374,-1.22,-2.47,3.14,1,5
16864.546,0.925,-0.088,0.363,-0.67,-2.01,2.23,1,5
16864.562,0.912,-0.087,0.36,-0.03,-0.67,1.31,1,5
16864.578,0.917,-0.086,0.366,0.15,0.43,0.64,1,5
16864.578,0.923,-0.088,0.375,0.21,0.95,-0.24,1,5
16864.593,0.919,-0.094,0.375,2.04,1.5,-2.69,1,5
16864.609,0.923,-0.093,0.374,2.69,1.77,-3.66,1,5
16864.609,0.921,-0.087,0.37,2.32,1.92,-4.33,1,5
16864.625,0.905,-0.076,0.381,1.46,0.64,-4.27,1,5
16864.64,0.917,-0.064,0.384,0.76,-0.58,-3.17,1,5
16864.64,0.919,-0.057,0.38,-0.12,-1.04,-1.8,1,5
16864.656,0.92,-0.062,0.375,-0.92,-1.4,-1.31,1,5
16864.656,0.918,-0.064,0.372,-0.34,-1.28,-1.37,1,5
16864.671,0.913,-0.055,0.367,0.85,-0.79,-1.04,1,5
16864.687,0.912,-0.052,0.359,0.61,-0.34,-0.12,1,5
16864.687,0.917,-0.059,0.357,-1.13,0.27,0.95,1,5
16864.703,0.931,-0.066,0.359,-2.56,1.43,1.95,1,5
16864.718,0.933,-0.071,0.371,-3.05,2.84,2.04,1,5
16864.734,0.931,-0.075,0.387,-2.56,3.54,1.43,1,5
16864.734,0.931,-0.072,0.399,-1.25,3.42,0.24,1,5
16864.75,0.928,-0.069,0.402,-0.24,2.59,-0.85,1,5
16864.75,0.927,-0.067,0.403,0.18,1.37,-1.53,1,5
16864.765,0.92,-0.068,0.401,0.58,0.34,-1.83,1,5
16864.781,0.921,-0.063,0.394,0.85,-0.58,-2.41,1,5
16864.781,0.921,-0.058,0.384,1.01,-1.13,-3.08,1,5
16864.796,0.918,-0.055,0.381,1.1,-0.82,-3.17,1,5
16864.796,0.917,-0.045,0.385,1.25,-0.52,-2.17,1,5
16864.812,0.921,-0.039,0.387,0.06,-0.98,-0.34,1,5
16864.828,0.932,-0.046,0.384,-1.74,-1.37,0.79,1,5
16864.828,0.934,-0.053,0.385,-1.62,-0.98,1.34,1,5
16864.843,0.927,-0.055,0.384,-0.76,-0.58,1.4,1,5
16864.859,0.927,-0.054,0.386,-0.31,-0.43,1.28,1,5
16864.859,0.926,-0.055,0.384,-0.18,-0.4,1.34,1,5
16864.875,0.926,-0.059,0.38,-0.61,-0.37,1.62,1,5
16864.89,0.924,-0.061,0.378,-0.98,-0.03,1.53,1,5
16864.89,0.932,-0.062,0.383,-1.22,0.18,1.28,1,5
16864.906,0.932,-0.059,0.393,-1.07,0.49,0.95,1,5
16864.906,0.927,-0.061,0.407,-0.55,0.15,0.4,1,5
16864.921,0.924,-0.06,0.413,0.21,-0.95,0.06,1,5
16864.937,0.923,-0.056,0.401,0.89,-2.38,-0.27,1,5
16864.937,0.919,-0.061,0.387,1.43,-3.2,-0.46,1,5
16864.953,0.922,-0.063,0.369,1.31,-3.3,-0.18,1,5
16864.968,0.929,-0.068,0.357,0.67,-2.44,0.09,1,5
16864.968,0.927,-0.072,0.355,0.06,-0.61,-0.06,1,5
16864.984,0.914,-0.071,0.361,0.0,1.34,-0.55,1,5
16865.0,0.904,-0.067,0.384,0.31,2.29,-1.4,1,5
16865.0,0.903,-0.063,0.399,0.98,1.31,-1.92,1,5
16865.015,0.903,-0.059,0.402,1.89,-0.15,-2.17,1,5
