timestamp,ax,ay,az,gx,gy,gz,orient_label,motion_label
16783.234,-0.535,0.066,0.836,0.61,-0.55,0.43,1,5
16783.25,-0.538,0.062,0.832,0.58,-0.37,0.67,1,5
16783.265,-0.548,0.055,0.829,0.27,-0.21,1.13,1,5
16783.265,-0.554,0.051,0.831,-0.46,-0.34,1.53,1,5
16783.281,-0.556,0.049,0.83,-0.79,-0.55,1.62,1,5
16783.296,-0.56,0.046,0.824,-0.82,-0.92,1.83,1,5
16783.296,-0.552,0.043,0.816,-1.5,-1.16,1.71,1,5
16783.312,-0.545,0.034,0.809,-1.31,-0.43,0.79,1,5
16783.328,-0.554,0.036,0.814,-0.18,0.67,-0.24,1,5
16783.328,-0.561,0.042,0.824,0.67,1.16,-1.34,1,5
16783.343,-0.553,0.047,0.83,1.04,0.67,-2.14,1,5
16783.359,-0.548,0.053,0.827,1.1,-0.12,-2.87,1,5
16783.359,-0.543,0.056,0.825,1.04,-0.37,-3.45,1,5
16783.375,-0.544,0.057,0.824,1.37,0.12,-3.94,1,5
16783.375,-0.55,0.058,0.829,2.08,0.37,-4.39,1,5
16783.39,-0.555,0.055,0.83,2.23,0.0,-4.43,1,5
16783.406,-0.548,0.05,0.833,1.5,-0.58,-4.24,1,5
16783.421,-0.545,0.051,0.826,1.77,-0.55,-4.55,1,5
16783.437,-0.548,0.053,0.821,1.53,-0.37,-4.24,1,5
16783.437,-0.548,0.044,0.82,1.25,-0.09,-4.33,1,5
16783.453,-0.548,0.033,0.815,1.62,0.09,-4.3,1,5
16783.453,-0.549,0.029,0.816,1.37,0.64,-4.21,1,5
16783.468,-0.55,0.027,0.827,0.58,1.46,-5.01,1,5
16783.484,-0.548,0.033,0.834,0.61,1.83,-6.2,1,5
16783.484,-0.556,0.051,0.835,0.61,1.71,-6.68,1,5
16783.5,-0.562,0.063,0.838,-0.24,0.92,-6.53,1,5
16783.515,-0.553,0.065,0.827,-0.55,-0.21,-5.8,1,5
16783.515,-0.551,0.062,0.814,-0.76,-0.95,-4.73,1,5
16783.531,-0.544,0.054,0.806,-2.35,-0.58,-3.78,1,5
16783.546,-0.548,0.04,0.803,-3.57,0.52,-2.69,1,5
16783.546,-0.551,0.032,0.809,-4.21,2.04,-1.74,1,5
16783.562,-0.553,0.024,0.826,-4.94,3.23,-1.83,1,5
16783.578,-0.559,0.012,0.835,-5.07,3.2,-2.99,1,5
16783.593,-0.548,-0.011,0.834,-4.12,0.82,-7.14,1,5
16783.593,-0.541,-0.016,0.829,-2.84,0.27,-9.89,1,5
16783.609,-0.538,-0.011,0.827,-1.59,0.4,-12.85,1,5
16783.625,-0.571,0.024,0.819,-0.79,0.85,-14.71,1,5
16783.64,-0.599,0.055,0.811,-2.59,0.52,-13.49,1,5
16783.64,-0.614,0.089,0.801,-7.02,0.03,-8.58,1,5
16783.656,-0.616,0.101,0.796,-11.87,0.12,-0.03,1,5
16783.656,-0.601,0.113,0.797,-16.05,2.04,11.44,1,5
16783.671,-0.58,0.115,0.801,-19.71,4.15,23.19,1,5
16783.687,-0.569,0.086,0.815,-23.59,5.28,32.44,1,5
16783.687,-0.546,0.061,0.822,-26.09,6.74,39.61,1,5
16783.703,-0.527,0.039,0.83,-27.86,6.38,42.85,1,5
16783.718,-0.505,0.003,0.85,-28.02,7.48,43.55,1,5
16783.718,-0.476,-0.015,0.873,-24.99,8.76,42.05,1,5
16783.734,-0.454,-0.026,0.892,-21.27,8.21,37.17,1,5
16783.75,-0.463,-0.055,0.917,-18.34,6.81,29.39,1,5
16783.765,-0.468,-0.091,0.935,-9.09,0.52,12.79,1,5
16783.765,-0.452,-0.111,0.925,-0.73,-1.98,5.98,1,5
16783.781,-0.41,-0.092,0.912,5.62,-6.01,-1.62,1,5
16783.796,-0.381,-0.094,0.909,11.29,-7.14,-10.1,1,5
16783.812,-0.35,-0.081,0.918,16.91,-7.39,-17.94,1,5
16783.812,-0.325,-0.061,0.937,22.31,-7.42,-25.09,1,5
16783.828,-0.318,-0.04,0.964,28.11,-7.26,-31.95,1,5
16783.828,-0.316,-0.03,0.965,34.88,-7.93,-38.24,1,5
16783.843,-0.327,0.006,0.986,39.86,-8.85,-44.22,1,5
16783.859,-0.338,0.039,1.029,47.15,-10.71,-48.28,1,5
16783.859,-0.347,0.064,1.035,55.57,-13.7,-51.21,1,5
16783.875,-0.342,0.122,1.039,58.63,-18.19,-54.45,1,5
16783.875,-0.332,0.149,1.019,59.88,-23.07,-57.01,1,5
16783.89,-0.336,0.176,1.03,60.03,-27.53,-58.38,1,5
16783.906,-0.314,0.207,1.04,62.78,-31.98,-59.66,1,5
16783.906,-0.344,0.234,1.024,69.25,-35.4,-61.07,1,5
16783.921,-0.312,0.264,1.01,76.85,-36.99,-57.95,1,5
16783.937,-0.307,0.297,0.987,95.34,-33.63,-49.26,1,5
16783.937,-0.29,0.332,0.97,106.72,-27.65,-44.25,1,5
16783.953,-0.308,0.34,0.955,115.57,-22.86,-38.7,1,5
16783.968,-0.38,0.409,0.967,119.75,-18.86,-25.85,1,5
16783.968,-0.498,0.542,0.978,111.51,-25.94,-10.47,1,5
16783.984,-0.58,0.563,1.017,95.61,-39.55,2.29,1,5
16784.0,-0.538,0.561,1.043,77.67,-58.57,18.16,1,5
16784.0,-0.509,0.549,0.992,65.25,-75.08,31.19,1,5
16784.015,-0.417,0.496,0.94,58.87,-84.78,44.22,1,5
16784.015,-0.378,0.466,0.909,60.49,-85.45,51.82,1,5
16784.031,-0.354,0.451,0.871,68.15,-79.56,58.17,1,5
16784.046,-0.351,0.443,0.839,77.91,-71.26,61.98,1,5
16784.046,-0.367,0.44,0.824,89.91,-62.29,64.21,1,5
16784.062,-0.431,0.471,0.81,101.2,-55.09,65.86,1,5
16784.078,-0.472,0.519,0.812,104.86,-52.89,69.25,1,5
16784.093,-0.497,0.556,0.829,102.21,-55.45,73.37,1,5
16784.093,-0.513,0.594,0.845,96.04,-60.24,79.62,1,5
16784.109,-0.497,0.615,0.836,88.02,-64.91,88.53,1,5
16784.109,-0.469,0.609,0.821,79.84,-66.01,98.82,1,5
16784.125,-0.453,0.585,0.803,73.21,-64.42,108.04,1,5
16784.14,-0.432,0.56,0.782,70.19,-61.13,116.12,1,5
16784.14,-0.415,0.535,0.759,69.58,-56.73,122.01,1,5
16784.156,-0.415,0.517,0.736,68.79,-53.16,125.46,1,5
16784.156,-0.414,0.498,0.718,66.23,-51.48,126.62,1,5
16784.171,-0.396,0.477,0.692,62.81,-50.84,125.55,1,5
16784.187,-0.376,0.449,0.662,59.79,-50.02,122.81,1,5
16784.203,-0.336,0.423,0.645,59.24,-47.94,120.15,1,5
16784.203,-0.284,0.434,0.646,62.65,-42.12,118.32,1,5
16784.218,-0.258,0.445,0.635,67.54,-33.57,117.25,1,5
16784.218,-0.231,0.46,0.619,69.55,-24.69,117.65,1,5
16784.234,-0.217,0.495,0.623,67.23,-15.56,118.05,1,5
16784.234,-0.229,0.492,0.63,62.72,-8.97,117.83,1,5
16784.265,-0.25,0.455,0.628,49.04,-5.37,124.06,1,5
16784.265,-0.248,0.44,0.631,38.79,-6.26,127.51,1,5
16784.281,-0.241,0.429,0.645,26.22,-6.56,129.55,1,5
16784.296,-0.212,0.399,0.66,13.7,-6.81,130.07,1,5
16784.312,-0.182,0.378,0.677,3.3,-6.41,128.39,1,5
16784.312,-0.179,0.371,0.692,-3.08,-4.85,124.61,1,5
16784.328,-0.175,0.361,0.705,-7.08,-4.36,119.14,1,5
16784.328,-0.179,0.356,0.717,-9.0,-5.19,112.49,1,5
16784.343,-0.182,0.375,0.717,-9.49,-6.01,105.14,1,5
16784.359,-0.171,0.414,0.732,-10.9,-9.31,96.84,1,5
16784.359,-0.152,0.441,0.753,-10.77,-13.03,88.63,1,5
16784.375,-0.136,0.473,0.775,-7.66,-15.5,81.97,1,5
16784.375,-0.132,0.528,0.78,-4.09,-15.96,77.49,1,5
16784.39,-0.132,0.591,0.784,-5.25,-14.95,74.74,1,5
16784.406,-0.134,0.6,0.787,-10.86,-12.82,72.85,1,5
16784.406,-0.145,0.582,0.791,-16.91,-11.23,71.44,1,5
16784.437,-0.112,0.54,0.808,-21.55,-10.19,68.15,1,5
16784.437,-0.08,0.535,0.837,-21.64,-8.85,64.06,1,5
16784.453,-0.056,0.553,0.876,-20.87,-7.08,57.07,1,5
16784.468,-0.045,0.583,0.919,-18.83,-5.83,48.4,1,5
16784.468,-0.04,0.611,0.963,-14.56,-5.46,40.62,1,5
16784.484,-0.042,0.646,0.992,-6.01,-4.36,35.65,1,5
16784.484,-0.049,0.676,1.002,4.91,-3.63,32.62,1,5
16784.5,-0.047,0.699,0.993,14.92,-4.21,31.28,1,5
16784.515,-0.038,0.716,0.963,19.41,-5.58,30.95,1,5
16784.515,-0.035,0.727,0.931,16.72,-6.99,30.61,1,5
16784.531,-0.039,0.727,0.912,10.65,-7.39,30.82,1,5
16784.546,-0.055,0.721,0.883,5.49,-6.13,32.99,1,5
16784.546,-0.076,0.708,0.846,0.92,-4.15,37.66,1,5
16784.562,-0.084,0.691,0.82,-2.62,-0.82,43.67,1,5
16784.578,-0.081,0.678,0.78,-4.67,4.33,49.99,1,5
16784.578,-0.085,0.665,0.736,-8.42,10.28,55.54,1,5
16784.609,-0.101,0.586,0.711,-16.24,19.14,61.01,1,5
16784.609,-0.092,0.56,0.672,-16.82,21.36,63.54,1,5
16784.625,-0.066,0.56,0.648,-17.73,25.36,66.81,1,5
16784.64,-0.057,0.555,0.642,-20.14,31.4,69.98,1,5
16784.64,-0.052,0.551,0.662,-28.17,36.5,72.66,1,5
16784.656,-0.04,0.537,0.696,-39.74,40.25,75.72,1,5
16784.656,-0.022,0.505,0.742,-49.65,43.79,80.51,1,5
16784.671,-0.001,0.466,0.779,-54.6,47.24,86.28,1,5
16784.687,0.021,0.444,0.797,-55.85,50.66,90.49,1,5
16784.687,0.043,0.422,0.806,-58.14,53.1,91.83,1,5
16784.703,0.065,0.377,0.828,-61.46,55.21,90.06,1,5
16784.718,0.098,0.328,0.85,-62.5,57.13,86.31,1,5
16784.718,0.12,0.316,0.865,-61.34,60.09,80.81,1,5
16784.734,0.13,0.306,0.884,-60.85,62.78,73.18,1,5
16784.75,0.137,0.29,0.924,-61.98,63.39,63.6,1,5
16784.75,0.143,0.261,0.957,-60.55,62.5,53.99,1,5
16784.765,0.156,0.252,0.97,-55.48,61.19,45.69,1,5
16784.765,0.156,0.272,0.988,-48.34,59.54,38.24,1,5
16784.781,0.15,0.301,0.993,-40.25,56.52,31.46,1,5
16784.796,0.15,0.347,0.98,-34.55,51.97,25.61,1,5
16784.796,0.15,0.391,0.964,-31.89,46.57,20.78,1,5
16784.812,0.161,0.394,0.92,-29.88,42.27,18.22,1,5
16784.828,0.168,0.453,0.911,-27.92,41.38,18.37,1,5
16784.843,0.162,0.523,0.9,-28.14,42.21,22.37,1,5
16784.843,0.114,0.5,0.957,-31.16,41.72,28.84,1,5
16784.843,0.109,0.475,1.067,-30.12,34.09,38.21,1,5
16784.859,0.229,0.452,1.056,-34.82,20.14,44.86,1,5
16784.875,0.257,0.443,1.015,-42.66,11.87,41.6,1,5
16784.875,0.285,0.37,1.003,-44.68,9.46,38.91,1,5
16784.89,0.278,0.319,0.992,-41.2,9.13,34.21,1,5
16784.906,0.243,0.315,0.993,-36.5,7.84,27.53,1,5
16784.921,0.22,0.313,1.001,-28.87,4.91,23.13,1,5
16784.921,0.206,0.323,1.001,-2.01,2.04,23.19,1,5
16784.937,0.192,0.36,0.96,9.64,2.53,27.1,1,5
16784.937,0.193,0.404,0.883,13.03,5.8,32.38,1,5
16784.953,0.193,0.457,0.807,8.85,11.14,38.03,1,5
16784.968,0.172,0.438,0.831,1.22,16.91,43.43,1,5
16784.968,0.151,0.407,0.854,-7.54,19.96,47.85,1,5
16784.984,0.151,0.382,0.894,-17.46,20.26,50.78,1,5
16784.984,0.146,0.331,0.937,-23.71,18.98,50.81,1,5
16785.0,0.146,0.285,0.969,-25.76,16.24,48.49,1,5
16785.015,0.148,0.261,0.996,-24.72,12.67,43.37,1,5
16785.015,0.145,0.238,0.999,-21.12,8.15,36.9,1,5
16785.031,0.144,0.236,1.005,-16.79,4.82,31.46,1,5
16785.046,0.14,0.249,1.007,-11.23,3.54,28.23,1,5
16785.046,0.147,0.258,0.997,-4.24,4.43,29.3,1,5
16785.062,0.141,0.286,0.986,1.37,6.84,31.95,1,5
16785.078,0.124,0.304,0.98,0.64,8.15,33.05,1,5
16785.078,0.116,0.299,0.968,-5.65,7.32,33.66,1,5
16785.093,0.11,0.275,0.97,-11.69,5.95,34.64,1,5
16785.093,0.113,0.258,0.974,-14.22,4.33,34.33,1,5
16785.109,0.116,0.241,0.965,-12.88,3.33,32.65,1,5
16785.125,0.114,0.23,0.961,-9.0,3.48,29.66,1,5
16785.125,0.101,0.25,0.949,-4.3,3.88,25.76,1,5
16785.14,0.088,0.301,0.93,1.62,5.55,23.35,1,5
16785.156,0.078,0.354,0.928,9.22,8.76,23.53,1,5
16785.171,0.054,0.354,0.918,12.63,9.58,24.11,1,5
16785.171,0.048,0.37,0.907,9.98,8.94,25.85,1,5
16785.187,0.053,0.372,0.907,4.43,7.2,27.5,1,5
16785.187,0.065,0.354,0.925,-1.07,5.77,27.95,1,5
16785.203,0.072,0.32,0.943,-3.51,5.8,28.05,1,5
16785.218,0.082,0.288,0.964,-3.2,5.62,27.99,1,5
16785.218,0.095,0.252,0.972,-1.16,5.13,26.8,1,5
16785.234,0.111,0.223,0.971,1.71,5.07,24.54,1,5
16785.234,0.114,0.219,0.97,3.94,4.76,20.17,1,5
16785.25,0.108,0.219,0.975,5.43,3.81,15.93,1,5
16785.265,0.114,0.243,0.949,7.72,3.23,13.03,1,5
16785.281,0.11,0.297,0.933,10.99,4.85,11.6,1,5
16785.281,0.132,0.303,0.923,13.4,6.47,10.74,1,5
16785.296,0.097,0.339,0.927,17.27,11.05,11.26,1,5
16785.296,0.096,0.381,0.918,22.0,15.41,17.61,1,5
16785.312,0.106,0.422,0.884,20.42,18.43,24.32,1,5
16785.328,0.082,0.412,0.924,8.85,19.81,26.76,1,5
16785.328,0.072,0.357,0.982,-6.1,15.35,25.06,1,5
16785.343,0.079,0.289,1.028,-20.23,5.01,18.62,1,5
16785.359,0.096,0.226,1.035,-23.77,-5.1,9.74,1,5
16785.359,0.125,0.205,0.978,-15.69,-10.04,2.62,1,5
16785.375,0.14,0.224,0.936,-7.39,-9.61,-3.05,1,5
16785.375,0.133,0.232,0.926,-3.45,-7.45,-8.39,1,5
16785.39,0.115,0.252,0.93,-2.26,-5.92,-11.6,1,5
16785.406,0.094,0.297,0.941,-2.96,-6.04,-12.79,1,5
16785.406,0.078,0.328,0.944,-6.59,-8.24,-13.25,1,5
16785.421,0.08,0.35,0.93,-13.34,-11.47,-12.85,1,5
16785.437,0.089,0.344,0.93,-20.48,-13.79,-11.6,1,5
16785.437,0.091,0.309,0.942,-24.69,-14.92,-10.19,1,5
16785.453,0.099,0.252,0.966,-26.0,-15.96,-8.94,1,5
16785.468,0.113,0.185,0.97,-20.23,-15.78,-8.24,1,5
16785.468,0.142,0.176,0.95,-10.1,-14.16,-7.78,1,5
16785.484,0.142,0.198,0.955,-2.93,-11.87,-9.8,1,5
16785.484,0.138,0.229,0.96,1.8,-10.22,-11.54,1,5
16785.5,0.133,0.263,0.979,4.24,-9.74,-11.26,1,5
16785.515,0.13,0.287,0.987,5.13,-10.8,-10.04,1,5
16785.531,0.134,0.297,0.974,4.0,-12.54,-7.87,1,5
16785.531,0.14,0.305,0.947,-0.58,-13.73,-6.29,1,5
16785.546,0.15,0.296,0.951,-6.26,-14.01,-5.58,1,5
16785.546,0.148,0.267,0.945,-7.45,-13.64,-5.04,1,5
16785.562,0.147,0.256,0.94,-5.74,-12.45,-4.64,1,5
16785.578,0.142,0.255,0.935,-2.01,-11.26,-5.46,1,5
16785.578,0.148,0.258,0.89,0.06,-10.93,-7.32,1,5
16785.593,0.18,0.272,0.871,-1.89,-8.76,-10.8,1,5
16785.593,0.177,0.258,0.91,-0.55,-2.72,-13.43,1,5
16785.609,0.164,0.268,0.953,6.87,2.47,-13.25,1,5
16785.625,0.139,0.297,0.994,13.86,3.66,-11.81,1,5
16785.64,0.098,0.302,1.001,15.63,-0.89,-10.41,1,5
16785.64,0.073,0.307,0.962,10.96,-10.68,-7.54,1,5
16785.656,0.11,0.301,0.902,3.57,-21.58,-4.55,1,5
16785.656,0.172,0.28,0.847,-2.78,-28.35,-5.58,1,5
16785.671,0.254,0.25,0.882,-3.45,-27.56,-13.25,1,5
16785.687,0.303,0.267,0.953,5.89,-21.15,-23.44,1,5
16785.687,0.281,0.338,1.029,17.06,-11.23,-27.74,1,5
16785.703,0.321,0.387,1.05,21.03,-4.49,-24.75,1,5
16785.718,0.335,0.449,1.031,14.28,3.69,-20.2,1,5
16785.718,0.304,0.464,1.058,-0.18,16.02,-11.35,1,5
16785.734,0.261,0.395,1.05,-14.4,25.7,-1.19,1,5
16785.734,0.194,0.324,0.963,-27.86,31.89,5.01,1,5
16785.75,0.143,0.257,0.935,-37.02,36.81,8.48,1,5
16785.765,0.045,0.206,0.915,-33.45,35.77,8.73,1,5
16785.765,-0.034,0.221,0.916,-22.77,26.22,7.66,1,5
16785.781,-0.009,0.19,0.797,-10.77,13.43,2.56,1,5
16785.796,-0.035,0.228,0.779,-2.72,7.84,-4.97,1,5
16785.796,-0.035,0.26,0.806,5.58,5.52,-7.08,1,5
16785.812,-0.004,0.327,0.827,7.63,4.94,-4.24,1,5
16785.828,0.029,0.348,0.876,1.31,5.98,0.95,1,5
16785.828,0.059,0.308,0.916,-8.61,6.16,5.68,1,5
16785.843,0.079,0.269,0.956,-16.97,6.65,9.7,1,5
16785.859,0.089,0.203,0.995,-19.47,6.56,12.91,1,5
16785.859,0.094,0.149,0.99,-18.31,4.46,13.4,1,5
16785.875,0.113,0.131,0.983,-15.59,1.92,11.17,1,5
16785.89,0.125,0.137,0.983,-8.85,0.37,6.71,1,5
16785.89,0.126,0.168,0.965,-0.12,-0.64,2.56,1,5
16785.906,0.139,0.213,0.948,9.46,-0.4,-3.75,1,5
16785.906,0.141,0.262,0.944,8.73,0.34,-4.49,1,5
16785.921,0.141,0.308,0.948,5.46,0.55,-3.66,1,5
16785.937,0.14,0.338,0.951,0.06,0.7,-1.92,1,5
16785.937,0.133,0.333,0.977,-4.91,0.55,-1.19,1,5
16785.953,0.132,0.309,0.98,-6.2,-0.85,-0.7,1,5
16785.968,0.146,0.299,0.971,-4.61,-1.77,0.4,1,5
16785.968,0.155,0.287,0.984,-1.37,-1.43,0.7,1,5
16785.984,0.151,0.271,0.98,2.93,-2.08,-1.07,1,5
16785.984,0.151,0.278,0.964,4.7,-3.63,-2.66,1,5
16786.0,0.144,0.292,0.956,3.91,-5.07,-3.72,1,5
16786.015,0.136,0.298,0.945,2.44,-6.01,-3.2,1,5
16786.015,0.135,0.293,0.926,1.22,-6.1,-1.19,1,5
16786.031,0.138,0.282,0.93,-0.34,-5.65,-0.12,1,5
16786.046,0.132,0.263,0.942,-0.52,-5.22,-0.18,1,5
16786.062,0.127,0.252,0.937,1.4,-5.25,-0.85,1,5
16786.062,0.132,0.251,0.935,2.75,-5.4,-1.77,1,5
16786.062,0.132,0.246,0.95,3.45,-5.28,-3.02,1,5
16786.078,0.133,0.245,0.956,5.04,-5.16,-3.78,1,5
16786.093,0.138,0.249,0.955,5.37,-4.76,-4.3,1,5
16786.109,0.134,0.256,0.966,4.36,-4.55,-5.04,1,5
16786.109,0.131,0.26,0.96,3.54,-4.39,-5.07,1,5
16786.14,0.131,0.277,0.986,1.98,-3.08,-3.08,1,5
16786.14,0.121,0.28,0.985,2.17,-3.57,-2.47,1,5
16786.156,0.14,0.284,0.965,1.25,-4.88,-2.04,1,5
16786.156,0.142,0.274,0.955,0.46,-4.18,-2.99,1,5
16786.171,0.123,0.266,0.946,1.65,-2.26,-3.54,1,5
16786.187,0.119,0.263,0.942,3.23,-1.01,-3.66,1,5
16786.203,0.117,0.277,0.939,3.57,-0.37,-4.73,1,5
16786.203,0.1,0.302,0.934,3.57,0.89,-4.94,1,5
16786.203,0.091,0.295,0.93,3.17,1.13,-4.82,1,5
16786.218,0.099,0.277,0.939,2.99,0.12,-6.13,1,5
16786.234,0.104,0.258,0.974,4.76,-1.71,-8.39,1,5
16786.234,0.096,0.225,0.967,7.84,-6.38,-11.44,1,5
16786.25,0.139,0.217,0.926,8.06,-12.39,-14.77,1,5
16786.265,0.17,0.222,0.931,9.0,-12.27,-17.18,1,5
16786.265,0.161,0.238,0.956,12.39,-8.3,-18.25,1,5
16786.281,0.178,0.273,0.958,14.5,-4.46,-17.09,1,5
16786.296,0.166,0.327,0.959,9.95,1.74,-10.59,1,5
16786.312,0.155,0.35,0.959,3.14,5.28,-7.48,1,5
16786.328,0.134,0.333,0.953,-1.1,8.33,-4.55,1,5
16786.328,0.114,0.32,0.936,-3.36,10.47,-1.86,1,5
16786.343,0.102,0.313,0.921,-3.75,11.84,-0.85,1,5
16786.359,0.082,0.296,0.922,-3.05,13.0,-0.64,1,5
16786.359,0.068,0.28,0.917,-2.56,13.43,-0.31,1,5
16786.375,0.044,0.316,0.899,-2.5,13.55,0.43,1,5
16786.39,0.018,0.335,0.919,-1.16,13.4,4.03,1,5
16786.39,0.017,0.35,0.935,-0.15,10.71,8.94,1,5
16786.406,0.049,0.341,0.9,-1.65,5.77,13.18,1,5
16786.406,0.076,0.345,0.873,-7.81,2.26,13.25,1,5
16786.421,0.074,0.321,0.875,-13.34,2.04,13.15,1,5
16786.437,0.071,0.299,0.887,-17.76,2.59,13.43,1,5
16786.437,0.073,0.281,0.927,-19.84,2.93,14.19,1,5
16786.453,0.066,0.261,0.951,-18.92,2.04,14.74,1,5
16786.468,0.11,0.213,0.992,-12.18,-1.19,17.0,1,5
16786.484,0.126,0.192,1.013,-7.42,-1.8,15.78,1,5
16786.484,0.134,0.182,1.025,-0.52,-2.11,13.79,1,5
16786.5,0.141,0.183,1.016,5.37,-2.96,11.38,1,5
16786.515,0.155,0.194,0.985,7.69,-3.72,8.36,1,5
16786.515,0.169,0.21,0.96,6.65,-2.87,4.49,1,5
16786.531,0.172,0.229,0.955,5.62,-0.31,1.01,1,5
16786.546,0.16,0.249,0.956,5.92,2.78,-1.5,1,5
16786.562,0.153,0.267,0.957,6.35,4.43,-3.51,1,5
16786.562,0.154,0.283,0.966,5.58,4.36,-5.89,1,5
16786.562,0.151,0.289,0.97,4.67,3.51,-8.97,1,5
16786.578,0.148,0.294,0.974,4.52,2.75,-11.51,1,5
16786.593,0.153,0.294,0.95,4.76,2.44,-12.63,1,5
16786.593,0.165,0.292,0.934,3.75,4.18,-13.09,1,5
16786.609,0.139,0.296,0.944,2.14,6.62,-13.76,1,5
16786.625,0.113,0.297,0.962,1.83,7.32,-12.51,1,5
16786.64,0.089,0.308,0.974,2.59,3.27,-6.9,1,5
16786.656,0.083,0.316,0.97,2.23,-0.61,-4.52,1,5
16786.656,0.084,0.311,0.964,1.56,-4.21,-2.2,1,5
16786.671,0.08,0.324,0.948,0.89,-6.9,0.37,1,5
16786.687,0.088,0.339,0.929,-0.31,-8.55,3.08,1,5
16786.687,0.092,0.323,0.915,-2.04,-8.94,5.31,1,5
16786.703,0.092,0.304,0.914,-4.79,-8.39,6.9,1,5
16786.703,0.096,0.289,0.926,-6.59,-7.63,8.27,1,5
16786.718,0.107,0.271,0.934,-6.68,-6.99,9.06,1,5
16786.734,0.116,0.258,0.944,-5.8,-5.83,8.94,1,5
16786.734,0.115,0.249,0.954,-4.39,-4.64,8.15,1,5
16786.75,0.113,0.243,0.965,-3.02,-4.21,7.6,1,5
16786.765,0.113,0.247,0.97,-2.11,-4.91,6.9,1,5
16786.765,0.112,0.258,0.976,-2.01,-5.8,6.1,1,5
16786.781,0.108,0.257,0.978,-1.19,-6.68,5.04,1,5
16786.796,0.11,0.269,0.967,0.0,-7.26,4.39,1,5
16786.796,0.111,0.296,0.953,-0.15,-6.84,4.39,1,5
16786.812,0.101,0.301,0.948,-1.65,-6.29,4.33,1,5
16786.828,0.087,0.293,0.952,-3.02,-6.13,4.46,1,5
16786.828,0.088,0.285,0.952,-3.33,-6.53,5.04,1,5
16786.843,0.093,0.28,0.953,-3.14,-7.14,4.91,1,5
16786.843,0.096,0.265,0.963,-2.78,-8.45,4.09,1,5
16786.859,0.097,0.258,0.985,-1.28,-10.47,3.2,1,5
16786.875,0.095,0.259,0.99,0.46,-14.25,3.05,1,5
16786.875,0.112,0.259,0.969,-0.58,-18.74,2.72,1,5
16786.89,0.128,0.263,0.949,-5.13,-21.21,0.52,1,5
16786.906,0.139,0.263,0.937,-4.24,-18.83,0.37,1,5
16786.906,0.15,0.261,0.924,-3.45,-15.14,-0.37,1,5
16786.921,0.164,0.261,0.925,-3.78,-11.32,-1.68,1,5
16786.937,0.16,0.261,0.946,-3.42,-7.87,-2.96,1,5
16786.937,0.148,0.269,0.964,-2.56,-6.29,-3.69,1,5
16786.953,0.141,0.278,0.973,-2.29,-6.78,-3.45,1,5
16786.968,0.126,0.285,0.992,-2.41,-8.48,-2.9,1,5
16786.968,0.117,0.28,0.988,-2.35,-12.6,-2.35,1,5
16786.984,0.125,0.287,0.959,-5.74,-17.82,-1.86,1,5
16786.984,0.141,0.283,0.94,-9.98,-20.54,-1.83,1,5
16787.0,0.148,0.261,0.933,-10.77,-20.26,-1.68,1,5
16787.015,0.152,0.251,0.922,-8.36,-18.37,-0.85,1,5
16787.031,0.158,0.247,0.917,-6.29,-16.05,-0.4,1,5
16787.031,0.166,0.242,0.931,-5.22,-13.55,-0.46,1,5
16787.046,0.171,0.242,0.931,-4.06,-11.44,-0.73,1,5
16787.046,0.182,0.24,0.933,-4.21,-9.61,-1.31,1,5
16787.062,0.184,0.235,0.952,-3.57,-7.32,-2.08,1,5
16787.078,0.187,0.219,0.951,-0.03,-5.52,-1.68,1,5
16787.078,0.194,0.22,0.935,2.96,-3.88,-1.37,1,5
16787.093,0.203,0.216,0.935,4.73,-1.62,-1.77,1,5
16787.093,0.203,0.224,0.937,6.1,0.76,-2.35,1,5
16787.109,0.2,0.246,0.943,6.65,2.62,-2.2,1,5
16787.125,0.178,0.274,0.978,6.96,3.63,-1.19,1,5
16787.125,0.161,0.285,0.989,8.76,2.44,1.22,1,5
16787.14,0.165,0.298,0.982,10.44,0.7,4.82,1,5
16787.156,0.158,0.297,0.972,11.32,-1.19,6.93,1,5
16787.171,0.169,0.283,0.935,10.83,-3.36,6.87,1,5
16787.171,0.169,0.284,0.921,7.75,-3.91,5.74,1,5
16787.187,0.162,0.284,0.918,4.67,-3.36,4.85,1,5
16787.187,0.165,0.28,0.906,2.17,-2.93,5.49,1,5
16787.203,0.171,0.272,0.904,0.24,-1.92,6.23,1,5
16787.218,0.171,0.258,0.913,-0.52,-0.34,6.1,1,5
16787.218,0.171,0.254,0.926,-0.55,0.76,5.28,1,5
16787.234,0.171,0.261,0.954,0.18,1.28,4.43,1,5
16787.234,0.172,0.284,0.988,1.89,1.13,4.03,1,5
16787.25,0.181,0.295,0.987,4.43,-0.21,4.67,1,5
16787.265,0.196,0.293,0.976,5.65,-1.4,5.52,1,5
16787.265,0.199,0.293,0.958,4.94,-1.31,5.58,1,5
16787.281,0.189,0.289,0.945,2.62,-0.73,5.43,1,5
16787.296,0.187,0.275,0.927,0.73,-0.46,5.34,1,5
16787.312,0.183,0.27,0.911,-1.1,0.4,5.31,1,5
16787.328,0.171,0.269,0.914,-3.3,1.34,5.04,1,5
16787.328,0.162,0.255,0.915,-5.86,1.28,5.46,1,5
16787.343,0.163,0.253,0.923,-5.49,1.43,5.37,1,5
16787.359,0.156,0.26,0.938,-5.16,1.16,4.73,1,5
16787.359,0.154,0.274,0.951,-5.55,-0.21,4.64,1,5
16787.375,0.157,0.287,0.952,-5.46,-1.68,5.74,1,5
16787.39,0.171,0.283,0.939,-5.4,-2.75,7.57,1,5
16787.39,0.179,0.277,0.936,-5.65,-2.2,8.76,1,5
16787.406,0.175,0.262,0.939,-5.49,-1.22,9.25,1,5
16787.406,0.179,0.247,0.942,-5.25,-0.92,9.55,1,5
16787.421,0.185,0.23,0.948,-4.0,-0.95,8.97,1,5
16787.437,0.182,0.223,0.953,-1.59,-0.52,8.09,1,5
16787.437,0.178,0.233,0.955,0.27,-0.18,7.17,1,5
16787.453,0.182,0.232,0.955,0.49,-0.46,6.47,1,5
16787.468,0.18,0.228,0.954,-0.18,-0.79,5.43,1,5
16787.468,0.184,0.225,0.956,-1.13,-1.28,4.09,1,5
16787.484,0.188,0.235,0.96,-1.1,-1.8,2.75,1,5
16787.5,0.184,0.272,0.956,-1.68,-1.95,2.81,1,5
16787.515,0.186,0.283,0.956,-3.05,-2.17,3.36,1,5
16787.515,0.184,0.283,0.951,-3.91,-2.29,4.33,1,5
16787.531,0.182,0.278,0.947,-5.49,-2.47,4.67,1,5
16787.546,0.184,0.264,0.943,-6.81,-2.93,4.36,1,5
16787.546,0.186,0.249,0.943,-6.78,-3.11,3.66,1,5
16787.562,0.181,0.233,0.939,-5.16,-2.81,2.5,1,5
16787.578,0.185,0.223,0.934,-3.85,-2.53,1.19,1,5
16787.578,0.195,0.219,0.937,-3.2,-2.29,-0.7,1,5
16787.593,0.197,0.227,0.949,-3.05,-1.19,-3.02,1,5
16787.609,0.21,0.232,0.989,-3.54,-1.13,-4.73,1,5
16787.609,0.213,0.236,1.027,-2.01,-2.81,-7.51,1,5
16787.625,0.206,0.229,1.074,1.46,-7.48,-9.8,1,5
16787.625,0.189,0.226,1.038,2.53,-15.84,-10.77,1,5
16787.64,0.223,0.232,0.961,-1.31,-23.83,-11.29,1,5
16787.656,0.266,0.236,0.937,-4.33,-24.69,-14.4,1,5
16787.671,0.276,0.251,0.943,1.89,-15.17,-13.7,1,5
16787.687,0.272,0.285,0.954,3.33,-7.63,-12.02,1,5
16787.687,0.253,0.275,0.973,1.46,-0.37,-9.34,1,5
16787.703,0.236,0.26,0.974,-3.91,5.77,-5.68,1,5
16787.718,0.238,0.225,0.975,-11.57,10.25,-2.9,1,5
16787.718,0.239,0.178,0.976,-19.87,14.44,-2.35,1,5
16787.734,0.246,0.139,1.014,-24.96,18.95,-4.36,1,5
16787.734,0.186,0.13,1.166,-18.4,20.63,-9.64,1,5
16787.75,0.095,0.118,1.144,4.24,14.31,-14.19,1,5
16787.765,-0.034,0.219,1.046,24.66,2.41,-16.72,1,5
16787.781,-0.148,0.321,1.084,43.34,-13.25,-14.22,1,5
16787.781,-0.156,0.391,1.116,55.79,-36.07,-6.04,1,5
16787.796,0.06,0.452,0.972,49.17,-58.66,3.02,1,5
16787.796,0.151,0.489,0.851,24.29,-66.16,4.12,1,5
16787.812,0.168,0.412,0.848,5.04,-61.86,7.54,1,5
16787.828,0.172,0.304,0.871,0.37,-54.66,12.45,1,5
16787.843,0.163,0.258,0.853,18.68,-41.99,17.49,1,5
16787.859,0.161,0.308,0.82,32.96,-35.65,22.98,1,5
16787.859,0.171,0.32,0.786,41.84,-28.81,29.42,1,5
16787.875,0.203,0.31,0.753,30.52,-16.39,34.27,1,5
16787.875,0.234,0.316,0.723,17.55,-9.19,32.62,1,5
16787.89,0.252,0.298,0.716,4.39,-1.68,29.02,1,5
16787.906,0.257,0.262,0.724,-4.03,5.62,25.15,1,5
16787.906,0.263,0.208,0.809,-4.03,12.42,21.24,1,5
16787.921,0.265,0.175,0.831,1.37,19.07,17.82,1,5
16787.937,0.276,0.186,0.836,8.24,26.61,14.98,1,5
16787.937,0.273,0.202,0.863,13.28,33.3,12.05,1,5
16787.953,0.248,0.215,0.871,12.45,37.57,8.51,1,5
16787.968,0.23,0.228,0.895,5.1,36.9,4.76,1,5
16787.968,0.232,0.224,0.934,-4.91,32.5,0.18,1,5
16787.984,0.235,0.214,0.967,-11.66,27.16,-4.64,1,5
16788.0,0.246,0.211,0.977,-13.03,22.28,-8.06,1,5
16788.015,0.23,0.262,1.009,-5.55,18.59,-10.16,1,5
16788.015,0.151,0.313,1.224,3.66,11.05,-6.53,1,5
16788.031,0.314,0.32,1.113,15.87,-7.48,1.5,1,5
16788.046,0.364,0.418,0.91,7.42,-13.58,-0.79,1,5
16788.046,0.366,0.346,0.888,-4.21,-9.86,-3.17,1,5
16788.062,0.357,0.286,0.882,-7.35,-3.88,-2.01,1,5
16788.078,0.319,0.308,0.877,-7.45,2.32,-1.59,1,5
16788.078,0.282,0.311,0.895,-11.11,5.16,-0.95,1,5
16788.093,0.269,0.285,0.922,-15.59,4.58,-0.31,1,5
16788.109,0.268,0.264,0.943,-17.37,2.11,-1.37,1,5
16788.109,0.269,0.251,0.939,-14.59,0.43,-2.38,1,5
16788.125,0.261,0.272,0.932,-10.13,0.7,-2.81,1,5
16788.125,0.256,0.287,0.943,-7.45,1.04,-3.2,1,5
16788.14,0.257,0.297,0.957,-6.74,0.46,-3.45,1,5
16788.156,0.252,0.308,0.96,-6.16,0.21,-2.99,1,5
16788.156,0.247,0.315,0.962,-5.49,0.4,-2.11,1,5
16788.187,0.228,0.316,0.944,-6.65,1.19,0.0,1,5
16788.187,0.22,0.3,0.944,-7.54,1.71,0.67,1,5
16788.203,0.203,0.291,0.944,-7.17,2.11,1.16,1,5
16788.203,0.192,0.281,0.93,-6.13,1.92,1.71,1,5
16788.218,0.187,0.271,0.911,-6.1,1.4,2.17,1,5
16788.234,0.188,0.256,0.911,-8.18,0.73,1.46,1,5
16788.234,0.188,0.232,0.922,-9.0,-0.09,-0.34,1,5
16788.25,0.187,0.241,0.926,-6.44,-0.58,-1.31,1,5
16788.265,0.193,0.26,0.933,-2.44,-0.49,-1.95,1,5
16788.281,0.194,0.27,0.938,1.62,-0.24,-2.72,1,5
16788.281,0.195,0.288,0.934,4.09,0.09,-2.75,1,5
16788.296,0.204,0.301,0.932,4.52,-0.06,-2.53,1,5
16788.296,0.209,0.303,0.932,4.3,0.12,-2.29,1,5
16788.312,0.206,0.301,0.932,3.94,0.92,-1.56,1,5
16788.328,0.204,0.305,0.944,2.41,0.89,-0.55,1,5
16788.328,0.214,0.297,0.945,0.67,-0.18,0.15,1,5
16788.343,0.223,0.282,0.938,0.21,-0.37,0.15,1,5
16788.359,0.225,0.267,0.93,0.43,0.34,-0.52,1,5
16788.359,0.228,0.258,0.929,1.5,1.04,-1.92,1,5
16788.375,0.225,0.254,0.926,3.3,1.8,-3.57,1,5
16788.375,0.219,0.256,0.933,4.64,2.53,-4.88,1,5
16788.39,0.21,0.266,0.946,5.77,2.53,-5.98,1,5
16788.406,0.206,0.272,0.942,6.35,1.43,-6.71,1,5
16788.406,0.21,0.278,0.932,6.29,0.4,-6.93,1,5
16788.421,0.214,0.283,0.925,5.86,0.09,-6.99,1,5
16788.437,0.22,0.283,0.899,5.22,1.04,-6.44,1,5
16788.437,0.199,0.302,0.939,3.75,2.81,-5.83,1,5
16788.453,0.195,0.29,0.946,5.07,2.29,-3.88,1,5
16788.468,0.199,0.301,0.951,4.82,0.73,-1.65,1,5
16788.468,0.209,0.288,0.944,3.75,-1.01,-0.37,1,5
16788.484,0.214,0.275,0.939,2.69,-2.47,-0.31,1,5
16788.5,0.209,0.271,0.94,2.11,-3.02,-0.43,1,5
16788.5,0.197,0.271,0.955,0.92,-3.63,-1.16,1,5
16788.515,0.195,0.272,0.961,0.4,-4.97,-1.83,1,5
16788.515,0.206,0.274,0.946,0.82,-6.32,-1.71,1,5
16788.531,0.219,0.28,0.939,0.27,-5.95,-1.43,1,5
16788.546,0.219,0.278,0.954,-0.46,-5.4,-2.2,1,5
16788.546,0.217,0.279,0.949,-1.46,-5.4,-3.81,1,5
16788.562,0.215,0.293,0.945,-4.03,-6.29,-5.19,1,5
16788.578,0.206,0.295,0.939,-5.31,-7.42,-6.71,1,5
16788.578,0.196,0.289,0.912,-6.74,-8.51,-7.93,1,5
16788.593,0.187,0.297,0.904,-11.35,-9.16,-8.73,1,5
16788.609,0.165,0.304,0.909,-16.75,-9.52,-9.19,1,5
16788.609,0.177,0.318,0.882,-21.94,-10.16,-7.6,1,5
16788.625,0.156,0.341,0.913,-28.69,-8.76,-3.39,1,5
16788.64,0.188,0.316,0.916,-34.97,-9.16,2.2,1,5
16788.64,0.219,0.302,0.904,-43.61,-7.57,5.83,1,5
16788.656,0.24,0.243,0.94,-51.36,-5.34,8.12,1,5
16788.656,0.259,0.17,0.948,-52.13,-3.3,9.0,1,5
16788.671,0.261,0.126,0.959,-47.33,0.09,8.82,1,5
16788.687,0.252,0.097,0.981,-40.89,2.17,6.16,1,5
16788.703,0.259,0.086,0.97,-34.42,1.95,1.1,1,5
16788.703,0.262,0.115,0.965,-28.17,2.93,-4.64,1,5
16788.718,0.258,0.151,0.949,-21.97,4.7,-8.76,1,5
16788.718,0.249,0.192,0.947,-17.64,6.29,-10.96,1,5
16788.734,0.226,0.234,0.937,-15.69,7.45,-11.41,1,5
16788.75,0.215,0.245,0.919,-15.44,8.15,-10.65,1,5
16788.75,0.213,0.24,0.874,-17.27,9.28,-9.52,1,5
16788.765,0.24,0.216,0.927,-24.51,10.8,-10.07,1,5
16788.765,0.208,0.162,0.987,-25.45,9.49,-13.79,1,5
16788.781,0.231,0.174,0.977,-18.77,7.08,-14.44,1,5
16788.796,0.245,0.199,0.995,-12.6,6.74,-14.04,1,5
16788.796,0.228,0.2,0.998,-8.45,5.25,-13.98,1,5
16788.812,0.235,0.217,0.981,-6.84,3.08,-12.85,1,5
16788.828,0.223,0.216,0.973,-6.65,2.41,-11.32,1,5
16788.828,0.208,0.196,0.973,-6.04,2.11,-8.88,1,5
16788.843,0.195,0.189,0.946,-5.92,1.34,-6.41,1,5
16788.859,0.183,0.186,0.914,-12.94,-0.52,-4.21,1,5
16788.859,0.175,0.162,0.905,-15.2,-0.7,-3.88,1,5
16788.875,0.176,0.15,0.904,-15.99,0.27,-4.12,1,5
16788.875,0.183,0.147,0.907,-14.8,1.56,-4.61,1,5
16788.89,0.193,0.136,0.998,-9.98,1.92,-4.64,1,5
16788.906,0.206,0.16,1.018,-6.23,1.34,-4.36,1,5
16788.921,0.207,0.168,1.027,-3.42,0.89,-4.55,1,5
16788.921,0.21,0.18,1.005,-2.17,0.49,-4.33,1,5
16788.937,0.211,0.188,0.99,-3.48,0.49,-4.58,1,5
16788.937,0.204,0.185,0.979,-5.49,0.09,-5.62,1,5
16788.953,0.202,0.188,0.952,-7.54,-0.15,-6.01,1,5
16788.968,0.205,0.178,0.946,-9.86,0.09,-5.98,1,5
16788.968,0.197,0.157,0.953,-10.99,-0.12,-6.65,1,5
16788.984,0.205,0.155,0.942,-12.02,-0.55,-7.2,1,5
16788.984,0.203,0.154,0.962,-11.99,-0.15,-8.21,1,5
16789.0,0.203,0.162,0.98,-10.5,0.09,-8.27,1,5
16789.015,0.212,0.174,0.979,-9.58,0.09,-7.05,1,5
16789.015,0.211,0.172,0.989,-9.55,0.21,-6.84,1,5
16789.046,0.208,0.163,0.981,-6.93,1.37,-5.01,1,5
16789.062,0.188,0.146,0.976,-5.07,1.86,-5.07,1,5
16789.062,0.18,0.134,0.967,-2.56,1.62,-5.04,1,5
16789.062,0.172,0.134,0.957,-0.61,1.31,-5.22,1,5
16789.078,0.164,0.149,0.954,-0.43,1.46,-5.46,1,5
16789.093,0.162,0.159,0.952,-2.72,0.98,-5.16,1,5
16789.093,0.168,0.161,0.966,-6.38,-0.15,-3.85,1,5
16789.109,0.175,0.153,0.986,-8.18,-1.4,-1.25,1,5
16789.125,0.195,0.142,0.976,-8.67,-2.81,1.65,1,5
16789.14,0.217,0.123,0.983,-9.34,-3.36,2.44,1,5
16789.14,0.219,0.11,0.983,-7.78,-3.33,1.1,1,5
16789.156,0.228,0.109,0.975,-5.01,-2.62,-0.4,1,5
16789.156,0.236,0.12,0.968,-2.81,-1.28,-1.86,1,5
16789.171,0.217,0.137,0.975,-1.92,0.52,-3.33,1,5
16789.187,0.2,0.145,0.965,-1.31,0.92,-2.99,1,5
16789.187,0.192,0.166,0.937,-3.23,0.79,-1.8,1,5
16789.218,0.173,0.184,0.949,-6.78,1.43,0.76,1,5
16789.218,0.178,0.176,0.954,-8.15,1.16,2.32,1,5
16789.234,0.183,0.158,0.968,-8.12,0.98,2.53,1,5
16789.234,0.182,0.145,0.971,-6.74,0.12,2.14,1,5
16789.25,0.194,0.131,0.98,-5.37,0.0,1.92,1,5
16789.265,0.194,0.11,1.002,-3.33,0.49,0.4,1,5
16789.265,0.197,0.103,0.992,-1.31,0.12,-0.82,1,5
16789.281,0.2,0.107,0.98,-1.95,0.15,-2.01,1,5
16789.296,0.182,0.111,0.986,-3.6,0.15,-2.9,1,5
16789.296,0.17,0.115,0.971,-4.06,-0.79,-1.92,1,5
16789.312,0.178,0.124,0.953,-4.7,-1.71,-0.46,1,5
16789.328,0.173,0.124,0.953,-5.46,-1.8,-0.46,1,5
16789.328,0.176,0.125,0.952,-5.68,-2.11,-0.92,1,5
16789.343,0.183,0.134,0.951,-5.13,-1.8,-1.43,1,5
16789.359,0.177,0.145,0.966,-4.73,-0.76,-1.71,1,5
16789.359,0.17,0.152,0.984,-3.94,-0.15,-1.19,1,5
16789.375,0.18,0.153,1.003,-1.46,-1.46,1.04,1,5
16789.39,0.181,0.137,0.99,-0.76,-2.23,1.86,1,5
16789.406,0.181,0.119,0.985,-1.01,-2.93,2.35,1,5
16789.406,0.178,0.118,0.98,-1.04,-4.18,2.44,1,5
16789.421,0.171,0.117,0.989,-0.89,-5.89,2.32,1,5
16789.437,0.172,0.128,1.004,1.04,-8.36,2.72,1,5
16789.437,0.192,0.157,0.989,2.29,-11.35,3.54,1,5
16789.453,0.219,0.165,0.974,2.2,-11.93,4.52,1,5
16789.468,0.248,0.163,0.973,2.44,-9.98,4.61,1,5
16789.468,0.244,0.167,0.994,0.52,-7.54,3.91,1,5
16789.484,0.227,0.167,0.995,-0.18,-6.1,3.51,1,5
16789.484,0.214,0.169,0.965,-1.34,-5.25,3.85,1,5
16789.5,0.196,0.151,0.968,-3.6,-4.61,4.33,1,5
16789.515,0.186,0.115,0.961,-4.15,-5.19,4.39,1,5
16789.515,0.192,0.101,0.952,-3.02,-5.77,3.81,1,5
16789.531,0.193,0.1,0.967,-0.73,-5.19,2.84,1,5
16789.546,0.197,0.108,0.97,1.56,-5.01,2.17,1,5
16789.546,0.205,0.121,0.965,2.5,-4.79,2.08,1,5
16789.562,0.198,0.131,0.974,1.34,-4.21,1.86,1,5
16789.578,0.193,0.146,0.974,0.4,-3.6,2.32,1,5
16789.578,0.196,0.144,0.969,-0.98,-3.14,2.47,1,5
16789.593,0.176,0.132,0.979,-1.34,-2.14,2.81,1,5
16789.609,0.178,0.133,0.971,0.0,-2.38,3.91,1,5
16789.609,0.197,0.117,0.963,-1.07,-3.36,4.06,1,5
16789.625,0.212,0.085,0.97,-0.64,-3.39,2.87,1,5
16789.625,0.22,0.071,0.975,2.66,-2.87,1.89,1,5
16789.64,0.23,0.083,0.964,5.4,-2.69,0.58,1,5
16789.656,0.233,0.102,0.97,5.65,-2.11,-1.13,1,5
16789.656,0.226,0.116,0.985,6.2,-1.1,-2.5,1,5
16789.671,0.219,0.143,0.982,6.53,-0.34,-3.17,1,5
16789.687,0.206,0.159,0.974,4.06,-0.06,-3.33,1,5
16789.687,0.202,0.158,0.965,1.86,0.03,-2.96,1,5
16789.703,0.199,0.152,0.957,1.5,0.76,-2.01,1,5
16789.718,0.197,0.136,0.96,1.56,1.28,-2.04,1,5
16789.718,0.203,0.119,0.973,2.9,1.28,-3.72,1,5
16789.734,0.195,0.125,0.97,5.62,1.04,-6.07,1,5
16789.734,0.2,0.142,0.962,8.15,0.95,-7.57,1,5
16789.75,0.199,0.155,0.968,8.79,1.59,-7.9,1,5
16789.765,0.212,0.151,0.979,8.09,2.11,-6.47,1,5
16789.781,0.216,0.151,0.943,6.41,2.04,-4.91,1,5
16789.781,0.211,0.145,0.96,0.67,2.14,-3.42,1,5
16789.796,0.221,0.11,0.982,-0.92,1.5,-1.92,1,5
16789.812,0.225,0.113,0.973,1.71,0.98,-1.95,1,5
16789.812,0.211,0.133,0.963,2.93,0.52,-3.63,1,5
16789.828,0.21,0.148,0.955,3.27,0.18,-4.03,1,5
16789.828,0.206,0.155,0.96,4.12,0.7,-3.81,1,5
16789.843,0.191,0.158,0.952,5.62,1.68,-4.46,1,5
16789.843,0.193,0.156,0.951,6.74,2.26,-4.67,1,5
16789.859,0.19,0.138,0.965,8.61,2.08,-5.28,1,5
16789.875,0.203,0.124,0.965,9.92,1.56,-6.35,1,5
16789.89,0.21,0.121,0.969,11.02,1.74,-7.2,1,5
16789.906,0.217,0.115,0.983,14.37,1.37,-7.35,1,5
16789.906,0.221,0.109,0.981,16.69,0.76,-6.99,1,5
16789.921,0.224,0.099,0.982,19.68,0.34,-6.62,1,5
16789.937,0.219,0.09,0.976,23.5,0.0,-6.59,1,5
16789.937,0.215,0.089,0.966,28.11,0.03,-7.14,1,5
16789.953,0.197,0.112,0.961,31.68,0.82,-8.85,1,5
16789.953,0.168,0.174,0.959,31.04,0.09,-11.11,1,5
16789.968,0.16,0.239,0.952,27.25,-2.38,-11.54,1,5
16789.984,0.152,0.301,0.938,22.98,-3.17,-8.24,1,5
16790.0,0.149,0.327,0.942,16.14,-3.57,-2.26,1,5
16790.0,0.168,0.3,0.95,8.42,-4.46,3.54,1,5
16790.015,0.2,0.252,0.962,3.97,-4.85,6.5,1,5
16790.015,0.214,0.218,0.966,3.11,-4.52,6.44,1,5
16790.031,0.221,0.202,0.966,3.88,-3.88,4.73,1,5
16790.046,0.222,0.192,0.958,5.19,-2.81,3.14,1,5
16790.046,0.223,0.193,0.954,4.61,-2.01,2.26,1,5
16790.062,0.218,0.199,0.965,3.51,-1.28,2.26,1,5
16790.078,0.213,0.219,0.956,1.68,-0.27,4.12,1,5
16790.093,0.215,0.22,0.96,-1.89,0.61,6.56,1,5
16790.109,0.219,0.198,0.964,-3.81,2.23,9.03,1,5
16790.109,0.212,0.198,0.97,-3.2,5.52,11.02,1,5
16790.125,0.189,0.204,0.98,-0.21,9.4,12.57,1,5
16790.14,0.176,0.181,0.966,6.32,12.63,14.34,1,5
16790.14,0.184,0.136,0.951,16.3,15.05,14.95,1,5
16790.156,0.143,0.129,0.955,28.6,20.08,14.53,1,5
16790.156,0.12,0.144,0.904,34.42,20.42,14.47,1,5
16790.171,0.083,0.2,0.883,31.04,15.53,13.95,1,5
16790.187,0.04,0.212,0.895,24.51,6.59,16.3,1,5
16790.187,0.029,0.218,0.926,20.75,-5.16,20.26,1,5
16790.203,0.074,0.226,0.971,22.68,-15.96,25.33,1,5
16790.218,0.168,0.262,0.973,26.89,-23.62,29.05,1,5
16790.218,0.325,0.267,0.954,30.09,-24.9,29.45,1,5
16790.25,0.382,0.338,0.918,25.3,-6.16,21.73,1,5
16790.25,0.36,0.325,0.884,21.58,5.04,22.31,1,5
16790.265,0.317,0.331,0.912,7.93,14.53,23.13,1,5
16790.265,0.237,0.249,0.999,-0.06,19.41,23.62,1,5
16790.281,0.195,0.215,1.036,0.79,13.95,22.46,1,5
16790.296,0.208,0.212,1.052,5.95,4.91,20.57,1,5
16790.312,0.221,0.222,0.976,11.26,-4.0,16.66,1,5
16790.312,0.247,0.234,0.919,10.44,-8.33,13.46,1,5
16790.328,0.259,0.225,0.889,10.71,-6.26,11.66,1,5
16790.328,0.259,0.23,0.863,12.7,-0.24,12.27,1,5
16790.343,0.253,0.239,0.871,12.88,6.87,13.7,1,5
16790.359,0.246,0.215,0.893,13.89,13.09,14.34,1,5
16790.359,0.236,0.225,0.913,16.27,18.52,15.75,1,5
16790.375,0.203,0.256,0.935,14.77,22.28,16.57,1,5
16790.375,0.151,0.245,0.996,8.18,20.36,15.69,1,5
16790.39,0.136,0.23,1.051,3.17,11.47,14.65,1,5
16790.406,0.183,0.233,1.012,5.37,-5.77,13.18,1,5
16790.421,0.216,0.229,0.974,7.84,-6.99,12.42,1,5
16790.437,0.226,0.237,0.941,9.74,-3.75,11.08,1,5
16790.437,0.218,0.237,0.926,9.98,0.73,9.0,1,5
16790.453,0.214,0.233,0.907,9.67,5.07,6.16,1,5
16790.468,0.203,0.243,0.873,7.23,9.43,3.17,1,5
16790.468,0.194,0.25,0.875,3.63,15.2,0.43,1,5
16790.484,0.164,0.253,0.914,1.98,20.42,-2.08,1,5
16790.484,0.141,0.271,0.956,-0.12,21.18,-3.48,1,5
16790.5,0.123,0.29,0.998,-3.94,17.7,-3.54,1,5
16790.515,0.082,0.293,1.027,-5.4,10.99,-1.71,1,5
16790.531,0.101,0.279,1.09,-3.02,1.25,3.88,1,5
16790.531,0.184,0.238,1.009,-0.76,-9.06,5.58,1,5
16790.546,0.182,0.245,0.927,-2.29,-11.44,1.65,1,5
16790.546,0.177,0.24,0.932,-2.23,-9.74,0.21,1,5
16790.562,0.174,0.252,0.949,-1.65,-9.34,1.07,1,5
16790.578,0.18,0.265,0.952,-2.9,-11.57,1.28,1,5
16790.578,0.183,0.27,0.958,-3.69,-14.53,1.13,1,5
16790.593,0.18,0.269,0.942,-3.11,-17.46,1.31,1,5
16790.593,0.191,0.265,0.913,-4.52,-20.08,2.11,1,5
16790.609,0.219,0.256,0.901,-7.02,-20.11,3.08,1,5
16790.625,0.26,0.24,0.918,-5.62,-16.27,3.63,1,5
16790.625,0.26,0.25,0.893,-3.51,-11.41,2.99,1,5
16790.64,0.252,0.233,0.911,-5.13,-5.95,2.2,1,5
16790.656,0.243,0.215,0.935,-3.88,-1.43,0.79,1,5
16790.656,0.221,0.222,0.954,-1.46,0.49,-1.34,1,5
16790.671,0.213,0.232,0.953,-0.58,-0.34,-3.45,1,5
16790.687,0.215,0.235,0.947,-0.89,-1.31,-5.22,1,5
16790.687,0.208,0.244,0.947,-0.85,-1.65,-6.81,1,5
16790.703,0.202,0.258,0.943,-0.64,-1.8,-6.93,1,5
16790.718,0.215,0.265,0.949,-1.56,-2.32,-6.47,1,5
16790.718,0.212,0.258,0.934,-2.5,-2.81,-7.17,1,5
16790.734,0.218,0.267,0.943,-2.72,-1.5,-6.84,1,5
16790.734,0.208,0.253,0.95,-1.59,0.09,-5.98,1,5
16790.75,0.201,0.249,0.966,-1.1,0.12,-5.68,1,5
16790.765,0.204,0.231,0.954,-0.24,-1.62,-6.65,1,5
16790.765,0.192,0.246,0.936,-0.43,-2.41,-7.17,1,5
16790.781,0.193,0.258,0.938,-0.27,-1.74,-5.71,1,5
16790.796,0.19,0.266,0.937,-0.61,-1.4,-4.06,1,5
16790.812,0.198,0.261,0.933,-1.95,-1.46,-2.93,1,5
16790.812,0.207,0.254,0.938,-3.54,-1.46,-2.41,1,5
16790.828,0.208,0.247,0.944,-3.88,-0.7,-1.8,1,5
16790.828,0.206,0.239,0.955,-3.27,-0.82,-1.59,1,5
16790.843,0.201,0.236,0.948,-2.93,-0.92,-1.13,1,5
16790.859,0.203,0.237,0.939,-2.96,-0.61,-1.1,1,5
16790.859,0.209,0.241,0.939,-2.35,0.18,-1.62,1,5
16790.875,0.216,0.237,0.947,-1.77,0.95,-2.5,1,5
16790.875,0.214,0.243,0.958,-1.53,1.71,-3.17,1,5
16790.89,0.208,0.242,0.958,-0.34,1.95,-3.54,1,5
16790.906,0.203,0.252,0.948,0.61,2.01,-3.05,1,5
16790.906,0.189,0.261,0.95,0.52,1.46,-2.44,1,5
16790.921,0.188,0.263,0.94,0.12,-0.15,-1.34,1,5
16790.937,0.196,0.266,0.941,-1.22,-1.83,-0.12,1,5
16790.937,0.213,0.257,0.956,-2.2,-3.36,0.52,1,5
16790.953,0.228,0.259,0.964,-2.66,-4.97,0.46,1,5
16790.968,0.212,0.255,0.949,-2.75,-6.71,-0.09,1,5
16790.968,0.188,0.245,0.93,-3.45,-8.64,0.03,1,5
16790.984,0.197,0.252,0.928,-5.92,-10.96,1.19,1,5
16790.984,0.22,0.245,0.942,-9.25,-13.34,0.09,1,5
16791.0,0.249,0.227,0.963,-11.69,-15.41,-3.45,1,5
16791.015,0.246,0.217,1.0,-12.12,-17.52,-8.33,1,5
16791.015,0.224,0.199,0.978,-9.43,-20.33,-12.85,1,5
16791.031,0.242,0.214,0.928,-7.17,-20.6,-14.25,1,5
16791.046,0.277,0.23,0.908,-5.68,-15.44,-14.34,1,5
16791.046,0.259,0.234,0.961,-1.89,-7.54,-12.91,1,5
16791.062,0.262,0.23,0.968,4.18,-1.22,-8.64,1,5
16791.078,0.229,0.232,0.947,8.03,5.01,-4.82,1,5
16791.078,0.168,0.241,0.935,9.13,9.7,-2.17,1,5
16791.093,0.148,0.267,0.909,8.24,12.21,0.67,1,5
16791.093,0.118,0.313,0.897,7.51,13.67,3.57,1,5
16791.109,0.087,0.349,0.896,4.21,13.06,8.42,1,5
16791.125,0.101,0.365,0.913,-3.27,9.43,14.07,1,5
16791.14,0.115,0.342,0.936,-10.47,3.42,18.95,1,5
16791.14,0.172,0.251,0.909,-12.7,-1.83,21.76,1,5
16791.156,0.167,0.187,0.94,-10.5,-5.1,20.05,1,5
16791.156,0.185,0.134,0.97,-4.0,-10.07,17.21,1,5
16791.187,0.226,0.194,0.984,10.47,-16.54,11.23,1,5
16791.187,0.234,0.278,1.023,14.68,-17.88,11.57,1,5
16791.203,0.323,0.31,0.975,12.6,-18.98,17.64,1,5
16791.218,0.378,0.209,0.939,-3.11,-18.59,17.43,1,5
16791.218,0.349,0.118,0.908,-9.61,-14.92,9.83,1,5
16791.234,0.345,0.085,0.881,-0.49,-7.23,4.7,1,5
16791.234,0.357,0.138,0.83,9.49,1.83,-1.5,1,5
16791.25,0.342,0.177,0.831,8.45,11.9,-8.82,1,5
16791.265,0.313,0.18,0.878,5.89,20.94,-14.22,1,5
16791.281,0.263,0.205,0.94,10.53,27.44,-15.05,1,5
16791.281,0.171,0.269,0.975,14.01,29.76,-11.78,1,5
16791.296,0.106,0.318,1.035,10.38,22.4,-7.29,1,5
16791.296,0.137,0.303,1.031,4.52,7.08,-5.77,1,5
16791.312,0.18,0.301,0.953,-1.31,-4.27,-7.9,1,5
16791.328,0.202,0.296,0.917,-7.51,-6.47,-8.64,1,5
16791.328,0.218,0.267,0.911,-8.27,-2.29,-6.41,1,5
16791.359,0.241,0.257,0.91,-7.63,10.35,-1.71,1,5
16791.359,0.245,0.225,0.916,-9.16,14.62,-2.93,1,5
16791.375,0.242,0.204,0.927,-10.93,17.73,-6.26,1,5
16791.39,0.213,0.2,0.936,-10.19,20.26,-9.22,1,5
16791.39,0.093,0.255,1.064,-8.42,19.9,-8.27,1,5
16791.406,0.145,0.175,1.141,-2.01,7.17,-2.35,1,5
16791.406,0.204,0.172,1.009,-2.32,-6.32,-6.87,1,5
16791.421,0.199,0.242,0.957,-0.21,-7.75,-11.05,1,5
16791.437,0.173,0.252,0.951,1.53,-6.44,-9.19,1,5
16791.437,0.13,0.265,0.958,0.27,-7.69,-6.59,1,5
16791.453,0.118,0.287,0.959,-1.1,-12.91,-4.33,1,5
16791.453,0.123,0.325,0.953,-5.52,-20.11,-2.41,1,5
16791.468,0.152,0.325,0.925,-14.1,-27.22,-0.52,1,5
16791.484,0.22,0.284,0.888,-22.98,-30.4,1.56,1,5
16791.484,0.268,0.253,0.897,-28.69,-27.1,3.05,1,5
16791.5,0.262,0.195,0.923,-28.32,-20.54,2.99,1,5
16791.515,0.259,0.162,0.965,-15.84,-13.03,4.76,1,5
16791.531,0.254,0.163,0.978,-12.63,-13.49,2.5,1,5
16791.546,0.247,0.168,0.982,-9.09,-15.47,-1.01,1,5
16791.562,0.239,0.2,0.956,-5.86,-17.58,-2.93,1,5
16791.562,0.237,0.232,0.933,-3.97,-18.07,-3.63,1,5
16791.578,0.237,0.245,0.924,-4.3,-17.64,-3.51,1,5
16791.578,0.225,0.235,0.93,-7.48,-17.88,-2.96,1,5
16791.593,0.233,0.224,0.943,-9.34,-17.91,-0.31,1,5
16791.609,0.255,0.219,0.944,-11.11,-18.22,1.53,1,5
16791.609,0.259,0.207,0.941,-14.16,-18.13,1.19,1,5
16791.625,0.266,0.188,0.939,-15.11,-17.52,0.76,1,5
16791.625,0.274,0.159,0.953,-11.63,-14.92,0.34,1,5
16791.64,0.284,0.16,0.944,-4.39,-10.86,-0.03,1,5
16791.656,0.272,0.156,0.936,-0.21,-6.59,-1.16,1,5
16791.671,0.259,0.171,0.964,1.4,-3.91,-2.44,1,5
16791.671,0.259,0.169,0.971,4.55,-3.45,-3.39,1,5
16791.687,0.248,0.218,0.955,7.57,-3.91,-2.5,1,5
16791.703,0.244,0.226,0.971,7.35,-6.47,-1.56,1,5
16791.703,0.243,0.229,1.009,6.96,-9.83,0.4,1,5
16791.718,0.295,0.153,1.162,17.3,-12.27,1.04,1,5
16791.734,0.294,0.197,0.986,35.1,-21.27,-4.55,1,5
16791.75,0.369,0.319,0.949,31.5,-22.68,-7.97,1,5
16791.75,0.337,0.261,0.952,33.54,-15.78,-14.25,1,5
16791.765,0.295,0.27,0.949,41.84,-10.9,-16.75,1,5
16791.781,0.284,0.337,0.958,51.21,-7.42,-14.62,1,5
16791.781,0.26,0.336,0.964,56.61,-7.02,-12.54,1,5
16791.796,0.265,0.342,0.996,54.81,-11.05,-11.17,1,5
16791.796,0.296,0.354,1.032,50.26,-17.88,-10.86,1,5
16791.812,0.355,0.349,1.068,42.63,-30.24,-16.66,1,5
16791.828,0.417,0.333,1.115,47.21,-34.12,-24.08,1,5
16791.828,0.455,0.315,1.167,55.48,-39.16,-33.2,1,5
16791.843,0.473,0.314,1.215,63.66,-46.33,-43.28,1,5
16791.859,0.493,0.314,1.231,75.59,-54.9,-54.32,1,5
16791.859,0.506,0.321,1.21,91.62,-63.57,-65.28,1,5
16791.875,0.517,0.318,1.174,108.95,-72.12,-76.14,1,5
16791.89,0.517,0.316,1.137,127.08,-80.29,-87.5,1,5
16791.89,0.514,0.331,1.09,146.06,-87.31,-98.7,1,5
16791.906,0.507,0.352,1.053,164.1,-93.26,-110.05,1,5
16791.906,0.513,0.368,1.011,181.74,-99.12,-121.77,1,5
16791.921,0.497,0.402,0.955,198.92,-104.25,-136.33,1,5
16791.937,0.474,0.439,0.919,215.0,-109.32,-149.91,1,5
16791.937,0.42,0.452,0.879,233.31,-114.99,-162.82,1,5
16791.953,0.358,0.462,0.809,253.67,-121.92,-174.5,1,5
16791.968,0.319,0.501,0.736,274.39,-129.28,-184.06,1,5
16791.968,0.262,0.538,0.65,295.91,-135.81,-191.96,1,5
16791.984,0.199,0.567,0.55,314.31,-142.12,-197.76,1,5
16792.0,0.149,0.589,0.456,326.88,-147.47,-200.51,1,5
16792.0,0.106,0.603,0.374,335.73,-150.79,-199.41,1,5
16792.015,0.059,0.608,0.208,341.38,-151.74,-187.6,1,5
16792.031,0.023,0.59,0.141,340.22,-148.11,-177.65,1,5
16792.046,0.06,0.518,0.082,340.22,-141.94,-158.85,1,5
16792.046,0.046,0.635,0.0,342.78,-134.8,-154.36,1,5
16792.062,0.032,0.584,-0.075,339.73,-126.87,-151.65,1,5
16792.078,0.016,0.565,-0.139,330.48,-117.59,-148.38,1,5
16792.093,-0.004,0.592,-0.197,321.85,-106.6,-146.95,1,5
16792.093,-0.015,0.598,-0.243,316.87,-94.33,-147.65,1,5
16792.109,-0.042,0.619,-0.289,315.23,-81.12,-148.38,1,5
16792.109,-0.073,0.653,-0.358,313.73,-68.36,-148.26,1,5
16792.125,-0.103,0.698,-0.413,310.25,-55.54,-146.58,1,5
16792.14,-0.15,0.768,-0.461,305.12,-42.76,-142.19,1,5
16792.14,-0.19,0.836,-0.497,293.74,-31.8,-132.79,1,5
16792.156,-0.224,0.879,-0.517,274.79,-23.68,-119.51,1,5
16792.156,-0.242,0.898,-0.545,251.59,-18.16,-103.85,1,5
16792.171,-0.233,0.887,-0.566,225.23,-14.19,-86.21,1,5
16792.187,-0.226,0.882,-0.577,196.23,-9.95,-68.24,1,5
16792.187,-0.209,0.863,-0.591,165.93,-6.1,-52.95,1,5
16792.203,-0.197,0.829,-0.608,134.43,-2.62,-41.38,1,5
16792.218,-0.182,0.802,-0.61,102.97,0.67,-33.54,1,5
16792.218,-0.155,0.782,-0.6,75.5,4.94,-29.33,1,5
16792.234,-0.155,0.767,-0.589,54.66,11.02,-27.92,1,5
16792.234,-0.164,0.755,-0.573,41.69,16.48,-28.96,1,5
16792.25,-0.153,0.727,-0.559,38.09,20.63,-32.04,1,5
16792.265,-0.165,0.721,-0.542,42.36,25.09,-36.35,1,5
16792.265,-0.187,0.732,-0.536,53.07,27.83,-42.76,1,5
16792.281,-0.178,0.712,-0.523,68.79,28.32,-50.02,1,5
16792.296,-0.172,0.72,-0.525,88.63,29.33,-55.91,1,5
16792.312,-0.169,0.776,-0.562,105.69,31.5,-58.84,1,5
16792.312,-0.171,0.82,-0.596,111.45,32.93,-60.79,1,5
16792.328,-0.172,0.879,-0.587,100.99,31.68,-60.88,1,5
16792.328,-0.161,0.887,-0.599,86.31,30.98,-57.01,1,5
16792.359,-0.169,0.848,-0.661,58.6,35.46,-42.94,1,5
16792.359,-0.173,0.825,-0.672,46.75,38.06,-37.26,1,5
16792.375,-0.187,0.824,-0.667,34.55,38.79,-34.21,1,5
16792.39,-0.211,0.826,-0.662,20.42,36.44,-32.53,1,5
16792.39,-0.226,0.808,-0.649,7.32,31.95,-29.82,1,5
16792.406,-0.231,0.813,-0.645,-2.66,27.59,-24.87,1,5
16792.406,-0.223,0.829,-0.644,-12.63,24.54,-19.56,1,5
16792.421,-0.235,0.821,-0.643,-25.42,21.82,-16.3,1,5
16792.437,-0.237,0.81,-0.651,-42.12,19.38,-12.15,1,5
16792.437,-0.251,0.866,-0.68,-65.46,17.3,-7.23,1,5
16792.453,-0.271,0.952,-0.728,-102.05,13.31,0.98,1,5
16792.468,-0.268,1.011,-0.755,-155.1,9.95,12.3,1,5
16792.468,-0.256,1.025,-0.758,-221.05,8.76,26.49,1,5
16792.484,-0.245,1.011,-0.734,-293.1,3.39,37.48,1,5
16792.484,-0.232,0.928,-0.674,-360.03,-4.79,42.66,1,5
16792.5,-0.224,0.827,-0.591,-413.37,-12.54,47.49,1,5
16792.515,-0.221,0.769,-0.506,-449.66,-19.81,53.8,1,5
16792.515,-0.207,0.752,-0.45,-471.08,-24.99,61.83,1,5
16792.531,-0.21,0.746,-0.412,-484.36,-29.42,71.38,1,5
16792.546,-0.186,0.711,-0.34,-490.83,-30.67,84.78,1,5
16792.546,-0.141,0.684,-0.245,-484.66,-27.22,96.41,1,5
16792.562,-0.111,0.667,-0.177,-465.56,-18.59,106.02,1,5
16792.578,-0.087,0.687,-0.115,-443.19,-8.51,114.17,1,5
16792.578,-0.048,0.724,-0.035,-418.87,2.14,113.38,1,5
16792.593,-0.02,0.754,0.056,-393.26,13.31,105.84,1,5
16792.609,-0.019,0.78,0.152,-369.37,22.74,95.95,1,5
16792.609,-0.037,0.789,0.231,-346.11,28.35,88.38,1,5
16792.625,-0.052,0.789,0.313,-325.17,29.39,86.49,1,5
16792.64,-0.059,0.78,0.396,-305.31,26.09,86.79,1,5
16792.64,-0.058,0.762,0.457,-285.07,19.01,88.81,1,5
16792.656,-0.052,0.744,0.483,-265.63,9.83,92.17,1,5
16792.656,-0.009,0.715,0.492,-248.54,0.79,95.89,1,5
16792.671,0.057,0.677,0.494,-232.09,-3.78,98.33,1,5
16792.687,0.115,0.633,0.493,-214.21,-2.08,98.27,1,5
16792.687,0.181,0.598,0.511,-194.4,6.01,94.76,1,5
16792.703,0.226,0.585,0.559,-172.28,18.89,88.26,1,5
16792.718,0.215,0.581,0.62,-148.2,33.17,79.9,1,5
16792.718,0.181,0.59,0.678,-125.25,44.22,72.18,1,5
16792.734,0.158,0.618,0.72,-106.23,49.35,66.74,1,5
16792.75,0.142,0.634,0.759,-90.15,49.5,63.2,1,5
16792.75,0.128,0.643,0.775,-77.76,45.78,60.06,1,5
16792.765,0.148,0.653,0.776,-70.5,39.03,56.03,1,5
16792.765,0.179,0.66,0.78,-67.81,32.81,49.56,1,5
16792.781,0.187,0.64,0.78,-66.26,28.02,41.75,1,5
16792.796,0.197,0.594,0.788,-54.6,27.89,30.03,1,5
16792.796,0.203,0.58,0.776,-45.53,32.5,26.34,1,5
16792.812,0.198,0.578,0.772,-39.77,37.9,23.22,1,5
16792.828,0.164,0.616,0.828,-37.17,41.63,20.17,1,5
16792.843,0.137,0.643,0.856,-38.48,41.66,19.62,1,5
16792.843,0.118,0.634,0.883,-41.26,37.69,20.87,1,5
16792.859,0.114,0.615,0.888,-45.05,30.95,22.13,1,5
16792.859,0.13,0.581,0.895,-47.67,23.68,21.36,1,5
16792.875,0.146,0.548,0.894,-46.24,17.24,19.14,1,5
16792.89,0.174,0.52,0.887,-42.27,13.09,14.98,1,5
16792.89,0.18,0.493,0.865,-34.27,12.02,9.09,1,5
16792.906,0.186,0.496,0.865,-25.24,14.04,3.75,1,5
16792.921,0.182,0.51,0.868,-17.27,17.03,-2.53,1,5
16792.921,0.163,0.526,0.871,-12.09,19.84,-8.33,1,5
16792.937,0.139,0.545,0.87,-10.35,21.58,-11.57,1,5
16792.937,0.116,0.552,0.869,-11.57,21.42,-12.91,1,5
16792.953,0.103,0.55,0.87,-15.17,19.2,-13.64,1,5
16792.968,0.09,0.545,0.872,-18.07,15.81,-13.82,1,5
16792.968,0.081,0.529,0.871,-18.74,12.27,-13.61,1,5
16792.984,0.081,0.52,0.87,-18.01,9.06,-13.7,1,5
16793.0,0.09,0.512,0.865,-16.14,6.32,-14.13,1,5
16793.0,0.098,0.506,0.863,-13.73,4.88,-15.44,1,5
16793.015,0.094,0.497,0.865,-11.02,4.27,-16.97,1,5
16793.015,0.067,0.5,0.886,-8.27,3.6,-17.98,1,5
16793.031,-0.049,0.554,1.027,-0.55,-0.58,-15.56,1,5
16793.046,0.036,0.562,1.056,15.14,-14.56,-4.33,1,5
16793.062,0.093,0.62,0.928,16.79,-27.44,-0.43,1,5
16793.062,0.1,0.593,0.896,7.11,-32.53,-0.76,1,5
16793.078,0.099,0.517,0.905,0.09,-35.55,0.64,1,5
16793.078,0.071,0.5,0.917,-3.63,-39.46,1.46,1,5
16793.093,0.067,0.495,0.926,-6.59,-45.99,2.93,1,5
16793.109,0.076,0.478,0.896,-10.5,-53.56,3.75,1,5
16793.109,0.114,0.457,0.867,-16.69,-59.33,1.92,1,5
16793.125,0.15,0.442,0.863,-19.81,-61.49,-2.99,1,5
16793.125,0.168,0.431,0.856,-16.27,-59.57,-8.36,1,5
16793.14,0.185,0.444,0.835,-8.97,-54.6,-12.82,1,5
16793.156,0.188,0.48,0.831,-1.1,-47.82,-16.39,1,5
16793.156,0.181,0.514,0.839,6.2,-41.84,-18.95,1,5
16793.171,0.171,0.551,0.835,10.9,-36.99,-19.65,1,5
16793.187,0.158,0.587,0.834,11.63,-33.75,-18.43,1,5
16793.203,0.16,0.608,0.834,8.88,-32.14,-16.17,1,5
16793.203,0.176,0.611,0.824,4.46,-30.61,-13.31,1,5
16793.203,0.184,0.603,0.819,0.98,-27.83,-10.53,1,5
16793.218,0.185,0.582,0.815,-0.34,-24.11,-8.15,1,5
16793.234,0.186,0.569,0.803,-0.52,-20.02,-5.71,1,5
16793.234,0.185,0.56,0.807,-0.18,-16.3,-3.72,1,5
16793.25,0.175,0.547,0.815,0.76,-13.73,-2.2,1,5
16793.265,0.183,0.535,0.818,1.59,-12.67,-0.89,1,5
16793.265,0.196,0.529,0.813,1.68,-11.84,-0.85,1,5
16793.281,0.204,0.525,0.805,2.29,-10.13,-2.01,1,5
16793.296,0.205,0.527,0.803,3.72,-7.66,-3.02,1,5
16793.296,0.199,0.543,0.797,3.85,-5.04,-3.3,1,5
16793.312,0.207,0.561,0.806,0.58,-3.6,-2.75,1,5
16793.328,0.217,0.56,0.817,-2.87,-1.98,-1.4,1,5
16793.328,0.203,0.54,0.824,-3.81,0.27,0.09,1,5
16793.343,0.196,0.535,0.845,-4.18,1.56,2.26,1,5
16793.359,0.192,0.534,0.859,-4.79,0.98,3.75,1,5
16793.359,0.194,0.509,0.85,-5.19,-0.55,4.33,1,5
16793.375,0.201,0.49,0.84,-5.4,-0.82,4.3,1,5
16793.39,0.207,0.475,0.826,-3.97,0.31,3.27,1,5
16793.39,0.211,0.47,0.818,-1.59,2.62,1.83,1,5
16793.406,0.206,0.468,0.821,0.98,5.49,0.24,1,5
16793.406,0.192,0.478,0.837,2.9,7.75,-1.13,1,5
16793.421,0.18,0.499,0.854,3.51,7.84,-1.74,1,5
16793.437,0.178,0.512,0.858,3.11,6.78,-1.04,1,5
16793.437,0.179,0.515,0.844,1.68,5.83,-0.12,1,5
16793.453,0.172,0.519,0.844,-0.82,5.25,0.4,1,5
16793.468,0.163,0.527,0.841,-2.9,4.03,0.7,1,5
16793.468,0.167,0.526,0.824,-4.3,2.62,1.07,1,5
16793.484,0.163,0.524,0.819,-5.28,2.17,1.25,1,5
16793.484,0.165,0.525,0.814,-4.76,2.04,1.25,1,5
16793.5,0.162,0.531,0.814,-3.23,2.44,1.16,1,5
16793.515,0.154,0.532,0.818,-1.62,2.5,1.01,1,5
16793.515,0.155,0.532,0.813,-0.49,1.92,0.64,1,5
16793.531,0.165,0.525,0.81,-0.49,1.43,-0.09,1,5
16793.546,0.157,0.523,0.819,0.0,1.62,-0.7,1,5
16793.546,0.145,0.52,0.821,0.92,1.43,-0.55,1,5
16793.562,0.141,0.523,0.831,-0.15,0.46,0.52,1,5
16793.578,0.156,0.517,0.831,-2.04,-0.92,1.92,1,5
16793.578,0.165,0.502,0.832,-4.21,-1.28,2.66,1,5
16793.593,0.158,0.493,0.847,-5.58,-1.07,2.84,1,5
16793.593,0.157,0.49,0.849,-5.4,-1.62,3.17,1,5
16793.609,0.166,0.486,0.842,-5.49,-2.66,3.27,1,5
16793.625,0.18,0.483,0.838,-5.46,-3.2,2.41,1,5
16793.625,0.178,0.481,0.844,-3.97,-2.47,1.07,1,5
16793.64,0.171,0.486,0.847,-1.65,-1.77,-0.03,1,5
16793.656,0.172,0.501,0.847,-0.64,-1.8,-0.46,1,5
16793.656,0.171,0.514,0.848,-0.58,-1.86,-1.07,1,5
16793.671,0.17,0.514,0.845,-0.09,-1.92,-1.28,1,5
16793.687,0.169,0.518,0.838,0.09,-1.89,-0.58,1,5
16793.687,0.167,0.523,0.836,-0.95,-1.74,0.09,1,5
16793.703,0.168,0.514,0.838,-3.36,-2.11,0.64,1,5
16793.718,0.168,0.501,0.843,-5.98,-2.59,0.61,1,5
16793.718,0.167,0.49,0.849,-7.17,-3.23,0.4,1,5
16793.734,0.176,0.483,0.85,-6.78,-3.88,-0.06,1,5
16793.734,0.177,0.48,0.852,-5.1,-3.75,-1.25,1,5
16793.75,0.174,0.484,0.854,-3.08,-3.57,-2.23,1,5
16793.765,0.173,0.494,0.853,-1.92,-3.94,-2.69,1,5
16793.765,0.168,0.496,0.85,-3.05,-5.07,-3.69,1,5
16793.781,0.171,0.496,0.843,-3.78,-4.94,-3.97,1,5
16793.796,0.174,0.494,0.838,-3.85,-4.06,-3.94,1,5
16793.796,0.174,0.493,0.838,-3.33,-3.17,-3.85,1,5
16793.812,0.16,0.489,0.846,-3.17,-2.78,-3.39,1,5
16793.828,0.154,0.486,0.85,-3.69,-3.27,-2.9,1,5
16793.828,0.159,0.478,0.85,-4.88,-4.76,-2.99,1,5
16793.843,0.165,0.468,0.85,-5.77,-6.16,-4.12,1,5
16793.859,0.167,0.47,0.845,-5.55,-6.71,-5.4,1,5
16793.859,0.171,0.478,0.84,-4.79,-6.96,-6.65,1,5
16793.875,0.177,0.481,0.834,-3.75,-6.65,-7.78,1,5
16793.89,0.175,0.489,0.831,-2.32,-5.46,-8.85,1,5
16793.89,0.165,0.501,0.839,-0.55,-4.12,-9.13,1,5
16793.906,0.16,0.515,0.844,0.82,-3.39,-8.21,1,5
16793.921,0.164,0.518,0.841,1.37,-3.23,-6.5,1,5
16793.921,0.162,0.516,0.837,0.06,-3.08,-5.13,1,5
16793.937,0.156,0.515,0.844,-3.11,-3.72,-4.36,1,5
16793.937,0.163,0.503,0.848,-6.13,-4.97,-3.85,1,5
16793.953,0.162,0.489,0.845,-7.39,-5.89,-3.51,1,5
16793.968,0.158,0.485,0.845,-8.09,-6.53,-3.54,1,5
16793.968,0.16,0.479,0.846,-8.94,-7.78,-4.39,1,5
16793.984,0.168,0.473,0.846,-9.13,-8.91,-5.95,1,5
16794.0,0.172,0.467,0.846,-7.11,-8.91,-7.45,1,5
16794.0,0.173,0.472,0.848,-3.69,-7.97,-8.33,1,5
16794.015,0.174,0.483,0.846,-0.15,-6.71,-8.67,1,5
16794.015,0.166,0.493,0.846,1.8,-5.83,-8.48,1,5
16794.031,0.166,0.498,0.845,2.53,-5.13,-7.54,1,5
16794.046,0.16,0.506,0.845,1.01,-5.07,-6.38,1,5
16794.046,0.16,0.504,0.856,-2.2,-6.01,-5.25,1,5
16794.062,0.165,0.494,0.852,-5.13,-7.39,-3.94,1,5
16794.078,0.168,0.479,0.854,-7.05,-8.39,-3.17,1,5
16794.078,0.173,0.471,0.855,-8.0,-9.09,-3.08,1,5
16794.093,0.176,0.466,0.853,-8.76,-9.49,-3.78,1,5
16794.109,0.184,0.456,0.855,-9.06,-10.01,-5.01,1,5
16794.109,0.189,0.458,0.856,-8.03,-9.74,-6.44,1,5
16794.125,0.192,0.463,0.859,-6.16,-8.97,-7.63,1,5
16794.125,0.187,0.466,0.862,-3.81,-8.12,-8.21,1,5
16794.14,0.187,0.471,0.862,-1.5,-7.51,-8.06,1,5
16794.156,0.187,0.482,0.858,-0.37,-6.96,-7.42,1,5
16794.156,0.189,0.49,0.853,-0.79,-6.68,-6.71,1,5
16794.171,0.183,0.493,0.851,-2.2,-6.44,-6.1,1,5
16794.187,0.186,0.489,0.848,-3.78,-6.78,-5.49,1,5
16794.187,0.191,0.483,0.842,-4.79,-7.08,-5.19,1,5
16794.203,0.191,0.471,0.838,-4.24,-6.62,-5.31,1,5
16794.218,0.192,0.472,0.834,-3.08,-5.92,-5.68,1,5
16794.218,0.194,0.479,0.836,-1.83,-5.25,-6.1,1,5
16794.234,0.197,0.487,0.839,-0.73,-4.49,-6.04,1,5
16794.234,0.199,0.497,0.837,-0.18,-3.69,-5.25,1,5
16794.25,0.199,0.499,0.837,-0.76,-3.02,-4.3,1,5
16794.265,0.206,0.498,0.841,-1.89,-2.75,-3.72,1,5
16794.265,0.208,0.495,0.841,-2.56,-2.29,-3.08,1,5
16794.281,0.204,0.492,0.843,-2.53,-1.65,-2.5,1,5
16794.296,0.199,0.49,0.844,-2.35,-1.34,-2.32,1,5
16794.296,0.196,0.485,0.843,-2.47,-1.62,-2.32,1,5
16794.312,0.198,0.478,0.84,-2.56,-1.65,-2.26,1,5
16794.328,0.198,0.477,0.84,-2.72,-1.31,-2.14,1,5
16794.328,0.198,0.478,0.844,-3.11,-0.82,-2.01,1,5
16794.343,0.198,0.481,0.848,-3.45,-0.49,-1.8,1,5
16794.359,0.199,0.478,0.849,-3.6,-0.61,-1.68,1,5
16794.359,0.199,0.471,0.849,-3.14,-0.46,-1.71,1,5
16794.375,0.201,0.47,0.846,-1.92,-0.09,-1.89,1,5
16794.375,0.196,0.472,0.843,-0.58,0.37,-2.08,1,5
16794.39,0.192,0.482,0.846,-0.31,0.58,-2.41,1,5
16794.406,0.19,0.487,0.853,-0.43,0.31,-2.29,1,5
16794.406,0.191,0.487,0.849,-0.67,-0.21,-1.77,1,5
16794.421,0.194,0.486,0.846,-1.25,-0.37,-1.16,1,5
16794.437,0.193,0.48,0.845,-1.65,0.18,-0.79,1,5
16794.453,0.188,0.473,0.841,-0.98,0.79,-0.89,1,5
16794.453,0.183,0.469,0.84,0.37,1.16,-1.19,1,5
16794.453,0.182,0.471,0.836,1.5,1.19,-1.62,1,5
16794.468,0.183,0.473,0.834,2.2,1.13,-2.11,1,5
16794.484,0.185,0.478,0.835,2.62,1.62,-2.29,1,5
16794.484,0.182,0.485,0.838,2.01,1.59,-2.38,1,5
16794.5,0.185,0.486,0.841,1.04,0.98,-2.5,1,5
16794.515,0.185,0.485,0.845,0.55,0.92,-2.69,1,5
16794.515,0.181,0.486,0.853,0.7,0.76,-2.9,1,5
16794.531,0.179,0.497,0.857,0.73,-0.03,-2.62,1,5
16794.546,0.182,0.495,0.856,0.43,-1.04,-2.14,1,5
16794.546,0.19,0.491,0.849,-0.24,-1.59,-1.83,1,5
16794.562,0.189,0.487,0.85,-1.04,-1.4,-2.11,1,5
16794.578,0.183,0.481,0.851,-1.37,-1.46,-2.69,1,5
16794.578,0.184,0.478,0.847,-0.92,-1.68,-3.3,1,5
16794.593,0.187,0.474,0.846,0.09,-1.56,-4.24,1,5
16794.593,0.183,0.474,0.847,1.25,-1.22,-5.52,1,5
16794.609,0.182,0.478,0.847,2.41,-0.98,-6.71,1,5
16794.625,0.182,0.484,0.851,3.23,-0.52,-7.29,1,5
16794.625,0.177,0.49,0.854,3.88,-0.06,-7.48,1,5
16794.64,0.172,0.492,0.855,3.94,-0.18,-6.99,1,5
16794.656,0.171,0.496,0.858,3.57,-0.7,-6.32,1,5
16794.671,0.166,0.491,0.857,3.75,-0.95,-5.31,1,5
16794.671,0.17,0.485,0.845,3.23,-1.46,-4.3,1,5
16794.687,0.168,0.487,0.845,2.04,-1.5,-3.88,1,5
16794.687,0.169,0.481,0.842,1.04,-1.53,-3.72,1,5
16794.703,0.169,0.482,0.844,0.49,-1.83,-3.69,1,5
16794.718,0.168,0.481,0.85,0.55,-2.2,-3.48,1,5
16794.718,0.183,0.478,0.847,1.46,-2.53,-3.2,1,5
16794.734,0.179,0.481,0.863,2.72,-2.35,-3.42,1,5
16794.75,0.185,0.467,0.87,5.74,-3.08,-3.51,1,5
16794.75,0.194,0.461,0.879,9.09,-4.03,-4.33,1,5
16794.765,0.211,0.447,0.891,20.78,-6.41,-9.4,1,5
16794.765,0.222,0.433,0.897,28.02,-7.54,-11.9,1,5
16794.781,0.216,0.442,0.907,33.54,-10.59,-12.76,1,5
16794.796,0.192,0.507,1.035,34.88,-19.04,-10.32,1,5
16794.796,0.229,0.531,1.007,36.07,-34.03,-7.29,1,5
16794.812,0.276,0.578,0.947,27.38,-45.81,-2.99,1,5
16794.828,0.351,0.536,0.927,15.87,-52.46,1.25,1,5
16794.828,0.375,0.502,0.866,5.89,-54.32,3.05,1,5
16794.843,0.39,0.475,0.833,-3.72,-52.52,3.72,1,5
16794.843,0.401,0.435,0.826,-8.88,-48.8,3.3,1,5
16794.859,0.398,0.397,0.816,-9.49,-43.92,1.31,1,5
16794.875,0.401,0.381,0.804,-8.39,-39.31,-2.62,1,5
16794.875,0.398,0.376,0.785,-6.32,-34.3,-8.15,1,5
16794.89,0.382,0.379,0.773,-5.04,-29.42,-14.56,1,5
16794.906,0.36,0.386,0.773,-5.04,-25.33,-20.6,1,5
16794.906,0.329,0.403,0.785,-4.61,-21.55,-25.45,1,5
16794.921,0.287,0.428,0.798,-3.97,-19.62,-28.5,1,5
16794.937,0.267,0.446,0.804,-4.52,-21.06,-30.0,1,5
16794.953,0.271,0.463,0.808,-6.81,-23.93,-31.5,1,5
16794.953,0.281,0.472,0.798,-9.06,-26.03,-33.42,1,5
16794.953,0.293,0.478,0.777,-10.44,-25.94,-35.37,1,5
16794.968,0.305,0.487,0.753,-11.02,-22.92,-37.35,1,5
16794.984,0.316,0.493,0.73,-10.77,-16.54,-39.46,1,5
16795.0,0.315,0.494,0.715,-10.93,-7.48,-41.63,1,5
16795.0,0.302,0.493,0.701,-12.02,3.45,-44.25,1,5
16795.015,0.278,0.495,0.7,-12.3,15.56,-46.51,1,5
16795.015,0.249,0.495,0.711,-10.28,27.53,-47.98,1,5
16795.031,0.204,0.501,0.727,-6.38,38.24,-49.2,1,5
16795.046,0.13,0.517,0.755,-3.14,45.2,-50.6,1,5
16795.046,0.069,0.542,0.811,-3.14,44.86,-50.72,1,5
16795.062,0.038,0.566,0.857,-4.79,38.12,-49.38,1,5
16795.078,0.027,0.574,0.868,-5.68,29.02,-46.85,1,5
16795.078,0.024,0.583,0.87,-6.2,20.39,-43.61,1,5
16795.093,0.029,0.588,0.86,-6.04,12.85,-40.04,1,5
16795.109,0.047,0.584,0.832,-5.13,7.08,-36.38,1,5
16795.109,0.061,0.577,0.791,-4.73,4.18,-33.08,1,5
16795.125,0.07,0.569,0.756,-4.36,4.49,-29.94,1,5
16795.14,0.072,0.567,0.731,-2.84,8.58,-26.31,1,5
16795.14,0.068,0.531,0.738,-0.06,15.05,-22.4,1,5
16795.156,0.041,0.541,0.753,0.61,20.42,-20.69,1,5
16795.156,0.014,0.574,0.775,-2.35,22.95,-19.71,1,5
16795.171,-0.004,0.577,0.796,-7.11,22.19,-19.29,1,5
16795.187,-0.023,0.56,0.816,-10.77,19.56,-18.4,1,5
16795.187,-0.039,0.556,0.832,-12.63,16.08,-15.72,1,5
16795.203,-0.034,0.566,0.843,-13.34,12.39,-11.75,1,5
16795.218,-0.023,0.558,0.842,-12.45,9.37,-7.72,1,5
16795.218,-0.013,0.544,0.828,-11.29,7.51,-4.33,1,5
16795.234,-0.002,0.535,0.817,-10.83,7.63,-1.59,1,5
16795.234,0.007,0.519,0.808,-10.56,9.25,-0.03,1,5
16795.25,0.018,0.495,0.791,-9.37,11.81,0.55,1,5
16795.265,0.029,0.474,0.779,-6.99,16.05,0.46,1,5
16795.265,0.036,0.458,0.776,-4.33,21.7,-0.85,1,5
16795.281,0.035,0.452,0.785,-0.73,28.08,-3.17,1,5
16795.296,0.021,0.445,0.802,4.15,33.75,-5.8,1,5
16795.296,0.01,0.449,0.824,8.55,36.84,-8.36,1,5
16795.312,0.002,0.46,0.841,13.12,37.93,-10.44,1,5
16795.328,-0.058,0.497,0.912,14.44,36.93,-11.66,1,5
16795.343,-0.1,0.588,1.021,7.63,26.89,-10.01,1,5
16795.343,-0.075,0.625,1.059,1.04,11.11,-3.14,1,5
16795.343,-0.031,0.599,1.017,-2.14,-2.26,5.22,1,5
16795.359,0.029,0.56,0.956,-5.49,-9.43,11.44,1,5
16795.375,0.081,0.52,0.911,-7.81,-9.89,13.98,1,5
16795.39,0.096,0.467,0.888,-7.78,-6.62,12.42,1,5
16795.39,0.091,0.444,0.881,-7.29,-3.45,8.64,1,5
16795.406,0.081,0.44,0.877,-5.31,-1.71,4.58,1,5
16795.406,0.078,0.443,0.872,-1.62,-1.19,1.1,1,5
16795.421,0.073,0.455,0.869,2.2,-1.07,-1.56,1,5
16795.437,0.068,0.472,0.865,5.37,-1.4,-3.27,1,5
16795.437,0.067,0.492,0.86,7.39,-2.08,-4.15,1,5
16795.453,0.073,0.507,0.846,7.93,-2.9,-4.15,1,5
16795.468,0.072,0.523,0.836,7.14,-2.96,-4.09,1,5
16795.468,0.069,0.53,0.832,5.89,-3.51,-4.18,1,5
16795.484,0.074,0.53,0.828,4.49,-4.27,-3.94,1,5
16795.5,0.074,0.541,0.827,4.03,-4.46,-3.78,1,5
16795.5,0.073,0.555,0.824,4.27,-3.97,-3.05,1,5
16795.515,0.075,0.562,0.819,4.43,-3.17,-1.74,1,5
16795.515,0.074,0.572,0.82,3.42,-2.44,-0.46,1,5
16795.531,0.074,0.577,0.823,2.11,-1.68,0.64,1,5
16795.546,0.075,0.573,0.831,0.52,-1.19,1.62,1,5
16795.546,0.073,0.564,0.843,-0.49,-1.28,2.08,1,5
16795.562,0.069,0.551,0.854,-0.64,-1.92,1.74,1,5
16795.578,0.065,0.537,0.861,-0.67,-3.33,1.13,1,5
16795.578,0.063,0.527,0.864,-0.73,-5.25,0.24,1,5
16795.593,0.06,0.516,0.859,0.12,-7.45,-0.64,1,5
16795.609,0.065,0.508,0.847,1.22,-9.03,-1.22,1,5
16795.609,0.073,0.505,0.828,1.53,-9.25,-2.01,1,5
16795.625,0.075,0.501,0.828,1.74,-7.97,-2.69,1,5
16795.64,0.073,0.501,0.827,2.69,-6.5,-3.14,1,5
16795.64,0.067,0.511,0.841,3.14,-4.67,-3.23,1,5
16795.656,0.052,0.516,0.859,3.45,-4.61,-3.72,1,5
16795.656,0.056,0.518,0.871,4.0,-6.38,-3.97,1,5
16795.671,0.063,0.523,0.871,5.25,-8.0,-3.78,1,5
16795.687,0.061,0.524,0.866,6.44,-9.19,-3.72,1,5
16795.703,0.066,0.526,0.864,7.17,-10.62,-3.57,1,5
16795.703,0.072,0.524,0.853,7.54,-11.66,-3.6,1,5
16795.718,0.079,0.523,0.847,7.69,-11.9,-3.69,1,5
16795.718,0.081,0.53,0.849,7.57,-11.26,-3.91,1,5
16795.734,0.081,0.527,0.845,8.03,-10.53,-4.09,1,5
16795.75,0.079,0.525,0.841,7.97,-9.34,-4.79,1,5
16795.75,0.082,0.527,0.833,4.27,-9.89,-6.96,1,5
16795.765,0.092,0.501,0.852,-2.53,-12.67,-10.86,1,5
16795.765,0.083,0.502,0.872,-0.46,-14.4,-11.32,1,5
16795.781,0.074,0.504,0.862,0.61,-16.69,-10.5,1,5
16795.796,0.087,0.51,0.863,0.0,-19.17,-10.1,1,5
16795.812,0.085,0.506,0.855,1.04,-20.66,-9.4,1,5
16795.812,0.096,0.498,0.837,3.54,-20.87,-7.87,1,5
16795.828,0.11,0.498,0.822,6.44,-19.53,-6.44,1,5
16795.828,0.129,0.49,0.818,9.92,-16.3,-5.65,1,5
16795.843,0.134,0.486,0.81,13.55,-11.93,-5.62,1,5
16795.859,0.147,0.484,0.767,18.46,-6.41,-6.13,1,5
16795.859,0.15,0.47,0.709,22.28,2.01,-9.0,1,5
16795.875,0.125,0.452,0.67,23.9,12.3,-14.71,1,5
16795.875,0.065,0.543,0.753,14.4,20.29,-19.75,1,5
16795.89,0.071,0.648,0.824,-1.4,20.97,-18.13,1,5
16795.906,0.113,0.574,0.761,-4.33,22.49,-12.57,1,5
16795.906,0.019,0.496,0.813,-4.33,29.88,-8.39,1,5
16795.921,-0.043,0.702,0.925,-17.09,27.68,-3.23,1,5
16795.937,0.017,0.683,0.956,-22.19,20.17,4.64,1,5
16795.937,-0.037,0.603,0.938,-18.77,16.21,9.77,1,5
16795.953,-0.025,0.604,0.952,-15.41,13.89,16.17,1,5
16795.968,-0.029,0.598,0.94,-4.85,13.25,19.78,1,5
16795.968,-0.085,0.602,0.918,6.78,12.67,20.29,1,5
16795.984,-0.136,0.628,0.899,15.26,8.0,19.87,1,5
16796.0,-0.178,0.656,0.889,19.04,-0.89,19.87,1,5
16796.0,-0.219,0.717,0.889,16.94,-11.72,22.34,1,5
16796.015,-0.192,0.793,0.853,10.41,-22.92,29.54,1,5
16796.015,-0.183,0.79,0.769,12.36,-27.1,41.41,1,5
16796.031,-0.142,0.816,0.717,14.62,-22.34,57.77,1,5
16796.046,-0.06,0.793,0.704,3.14,-16.6,69.34,1,5
16796.046,-0.069,0.708,0.671,-4.24,-8.82,75.14,1,5
16796.062,-0.061,0.645,0.674,-7.69,0.06,81.3,1,5
16796.078,-0.053,0.603,0.682,-7.63,6.07,84.99,1,5
16796.078,-0.049,0.572,0.684,-2.78,10.44,88.5,1,5
16796.093,-0.022,0.532,0.683,3.48,13.67,91.56,1,5
16796.109,0.027,0.497,0.679,6.59,15.66,92.1,1,5
16796.109,0.056,0.507,0.689,4.73,18.43,90.09,1,5
16796.125,0.077,0.491,0.718,1.86,21.64,87.25,1,5
16796.14,0.098,0.465,0.773,0.85,24.51,84.9,1,5
16796.14,0.11,0.455,0.813,3.85,26.73,83.8,1,5
16796.156,0.126,0.457,0.855,9.03,28.05,83.59,1,5
16796.156,0.116,0.452,0.889,14.13,26.83,82.8,1,5
16796.171,0.104,0.448,0.908,15.38,21.55,81.85,1,5
16796.187,0.127,0.45,0.908,10.59,12.63,80.87,1,5
16796.187,0.179,0.446,0.885,1.19,2.84,77.91,1,5
16796.203,0.233,0.412,0.849,-9.06,-4.15,73.12,1,5
16796.218,0.271,0.373,0.822,-16.54,-5.77,67.81,1,5
16796.218,0.295,0.346,0.799,-18.95,-3.48,62.41,1,5
16796.234,0.297,0.329,0.793,-17.33,1.19,57.28,1,5
16796.25,0.268,0.327,0.8,-14.28,5.07,52.46,1,5
16796.25,0.249,0.332,0.817,-13.46,5.31,47.4,1,5
16796.265,0.247,0.325,0.843,-13.28,2.23,42.3,1,5
16796.281,0.255,0.321,0.849,-11.99,-2.08,38.39,1,5
16796.281,0.278,0.334,0.834,-10.44,-6.16,35.28,1,5
16796.296,0.302,0.343,0.809,-9.13,-7.75,32.59,1,5
16796.312,0.313,0.356,0.782,-7.87,-6.5,30.55,1,5
16796.312,0.334,0.361,0.76,-8.48,-3.81,29.21,1,5
16796.328,0.346,0.372,0.742,-11.63,0.79,27.38,1,5
16796.328,0.358,0.371,0.722,-17.15,6.2,24.72,1,5
16796.343,0.373,0.364,0.705,-23.99,12.63,21.64,1,5
16796.359,0.388,0.363,0.708,-31.34,20.75,17.91,1,5
16796.359,0.391,0.357,0.742,-37.02,29.63,12.67,1,5
16796.375,0.354,0.37,0.817,-36.68,37.87,7.29,1,5
16796.375,0.316,0.385,0.88,-30.98,42.39,5.34,1,5
16796.39,0.291,0.416,0.914,-21.09,44.1,5.77,1,5
16796.406,0.259,0.473,0.935,-10.71,43.49,6.74,1,5
16796.421,0.139,0.601,1.131,-3.78,38.03,9.52,1,5
16796.421,0.13,0.63,1.294,9.8,16.63,22.83,1,5
16796.437,0.397,0.641,0.975,7.29,-8.21,35.62,1,5
16796.437,0.398,0.695,0.818,-19.96,-10.01,33.11,1,5
16796.453,0.381,0.548,0.812,-36.5,-2.47,35.55,1,5
16796.468,0.369,0.489,0.775,-42.42,7.97,41.84,1,5
16796.468,0.316,0.465,0.782,-43.06,18.52,46.02,1,5
16796.484,0.252,0.421,0.839,-39.89,24.51,49.56,1,5
16796.484,0.25,0.387,0.889,-33.81,25.64,52.95,1,5
16796.5,0.269,0.363,0.896,-24.14,24.69,53.62,1,5
16796.515,0.266,0.355,0.896,-14.98,24.57,51.79,1,5
16796.515,0.271,0.347,0.911,-9.34,24.2,48.92,1,5
16796.531,0.26,0.348,0.919,-7.35,22.83,44.25,1,5
16796.546,0.251,0.354,0.925,-7.93,20.51,39.8,1,5
16796.546,0.253,0.357,0.931,-8.85,18.25,36.44,1,5
16796.562,0.249,0.356,0.922,-11.41,15.96,33.94,1,5
16796.578,0.245,0.351,0.907,-14.22,14.77,32.11,1,5
16796.593,0.236,0.335,0.895,-13.92,15.5,32.14,1,5
16796.593,0.226,0.327,0.883,-11.47,17.58,33.08,1,5
16796.609,0.222,0.329,0.877,-8.3,20.29,34.7,1,5
16796.609,0.215,0.343,0.887,-5.77,23.68,37.2,1,5
16796.625,0.207,0.348,0.915,-5.31,26.0,40.04,1,5
16796.625,0.2,0.34,0.926,-7.81,25.91,41.57,1,5
16796.64,0.196,0.338,0.95,-12.85,23.99,41.47,1,5
16796.656,0.197,0.313,0.964,-17.82,20.63,39.98,1,5
16796.656,0.208,0.268,0.966,-20.05,17.3,37.69,1,5
16796.671,0.217,0.234,0.97,-18.86,15.29,33.51,1,5
16796.687,0.228,0.229,0.967,-14.13,14.34,27.86,1,5
16796.687,0.236,0.238,0.951,-8.45,13.89,21.64,1,5
16796.703,0.238,0.258,0.934,-3.88,14.13,15.05,1,5
16796.718,0.227,0.304,0.927,-0.4,15.2,10.22,1,5
16796.718,0.219,0.346,0.916,1.53,17.52,8.88,1,5
16796.734,0.203,0.373,0.919,0.61,17.37,10.93,1,5
16796.734,0.181,0.403,0.928,-1.65,16.05,15.23,1,5
16796.75,0.172,0.418,0.925,-4.85,14.59,19.26,1,5
16796.765,0.175,0.369,0.907,-7.6,13.49,21.58,1,5
16796.765,0.165,0.343,0.92,-8.76,12.82,21.85,1,5
16796.781,0.162,0.313,0.933,-7.93,11.17,20.72,1,5
16796.796,0.176,0.294,0.937,-6.62,8.7,17.94,1,5
16796.796,0.19,0.278,0.937,-4.18,6.62,13.09,1,5
16796.812,0.199,0.266,0.934,-0.34,5.89,7.66,1,5
16796.828,0.195,0.273,0.932,3.91,5.68,1.86,1,5
16796.828,0.186,0.304,0.913,6.84,5.25,-3.14,1,5
16796.843,0.181,0.349,0.897,6.38,5.1,-5.98,1,5
16796.843,0.165,0.389,0.893,2.81,5.55,-6.07,1,5
16796.859,0.155,0.402,0.894,-2.93,5.65,-3.42,1,5
16796.875,0.15,0.398,0.903,-8.64,5.16,0.09,1,5
16796.875,0.131,0.382,0.927,-11.32,4.3,4.33,1,5
16796.89,0.14,0.359,0.934,-10.44,2.84,9.0,1,5
16796.906,0.138,0.333,0.938,-8.39,1.43,10.68,1,5
16796.921,0.137,0.31,0.936,-6.96,-0.24,9.46,1,5
16796.921,0.149,0.305,0.926,-5.95,-1.95,7.26,1,5
16796.937,0.16,0.293,0.92,-3.69,-1.98,5.07,1,5
16796.937,0.159,0.291,0.93,-0.12,-1.1,2.62,1,5
16796.953,0.167,0.301,0.931,4.58,-0.46,0.73,1,5
16796.968,0.172,0.313,0.921,7.87,0.12,-0.4,1,5
16796.968,0.179,0.33,0.919,9.03,1.07,-1.22,1,5
16796.984,0.181,0.345,0.918,9.25,2.2,-1.07,1,5
16797.0,0.176,0.353,0.921,9.06,3.05,-0.55,1,5
16797.0,0.178,0.358,0.918,8.91,3.27,0.76,1,5
16797.015,0.182,0.36,0.916,7.2,3.27,2.11,1,5
16797.015,0.179,0.357,0.92,4.12,2.87,2.11,1,5
16797.031,0.172,0.36,0.912,0.95,1.74,2.26,1,5
16797.046,0.186,0.362,0.909,-2.35,1.1,3.08,1,5
16797.046,0.185,0.358,0.934,-4.27,1.25,3.33,1,5
16797.062,0.172,0.342,0.955,-3.2,0.18,3.42,1,5
16797.078,0.179,0.343,0.941,-1.4,-2.08,4.33,1,5
16797.078,0.19,0.35,0.922,-1.83,-3.54,4.49,1,5
16797.093,0.192,0.341,0.934,-2.93,-4.0,3.54,1,5
16797.109,0.18,0.335,0.945,-2.9,-4.64,3.48,1,5
16797.109,0.187,0.328,0.929,-3.48,-6.2,4.67,1,5
16797.125,0.198,0.318,0.922,-3.94,-6.32,5.4,1,5
16797.14,0.2,0.311,0.927,-2.78,-4.67,5.1,1,5
16797.14,0.193,0.308,0.929,-0.67,-3.42,4.55,1,5
16797.156,0.188,0.316,0.931,0.12,-3.08,3.91,1,5
16797.156,0.172,0.328,0.964,0.82,-3.36,3.27,1,5
16797.171,0.161,0.327,0.949,2.81,-5.07,4.21,1,5
16797.187,0.174,0.322,0.914,2.23,-6.68,6.01,1,5
16797.187,0.177,0.315,0.882,0.06,-6.47,6.44,1,5
16797.203,0.179,0.309,0.87,-1.95,-4.3,6.68,1,5
16797.218,0.173,0.295,0.87,-3.39,-1.68,7.23,1,5
16797.218,0.163,0.289,0.882,-3.42,0.55,7.2,1,5
16797.234,0.158,0.284,0.918,-0.92,1.62,6.78,1,5
16797.234,0.153,0.288,0.915,2.9,1.1,5.95,1,5
16797.25,0.168,0.295,0.895,5.71,0.27,5.25,1,5
16797.265,0.185,0.29,0.885,8.0,0.64,3.45,1,5
16797.265,0.187,0.288,0.887,10.56,2.2,1.19,1,5
16797.281,0.191,0.295,0.897,12.7,3.45,-0.95,1,5
16797.296,0.192,0.331,0.907,13.67,4.43,-2.72,1,5
16797.296,0.189,0.368,0.916,11.99,4.33,-2.81,1,5
16797.312,0.198,0.392,0.92,7.66,3.33,-1.71,1,5
16797.328,0.206,0.407,0.914,3.14,3.14,0.06,1,5
16797.328,0.213,0.396,0.91,-1.19,3.54,2.11,1,5
16797.343,0.211,0.385,0.93,-5.07,4.06,3.54,1,5
16797.359,0.216,0.37,0.938,-7.17,3.6,4.09,1,5
16797.359,0.227,0.35,0.93,-8.33,2.62,3.91,1,5
16797.375,0.235,0.319,0.909,-8.55,2.81,2.78,1,5
16797.375,0.238,0.29,0.898,-8.82,3.88,0.03,1,5
16797.39,0.229,0.271,0.921,-7.87,4.55,-4.24,1,5
16797.406,0.184,0.232,0.911,-3.81,3.85,-8.45,1,5
16797.406,0.183,0.197,0.876,-0.52,0.89,-10.86,1,5
16797.421,0.181,0.228,0.96,1.98,-1.37,-14.5,1,5
16797.437,0.148,0.265,0.979,9.7,-3.94,-15.2,1,5
16797.437,0.207,0.336,0.939,11.02,-6.04,-14.13,1,5
16797.453,0.249,0.39,0.96,7.2,-3.23,-13.76,1,5
16797.468,0.262,0.41,0.997,6.01,1.86,-10.77,1,5
16797.468,0.265,0.43,1.01,5.28,6.93,-5.74,1,5
16797.484,0.23,0.423,1.028,1.13,10.38,-2.44,1,5
16797.484,0.221,0.411,1.048,-3.51,12.02,1.13,1,5
16797.5,0.201,0.383,1.03,-6.56,11.47,3.11,1,5
16797.515,0.156,0.33,0.996,-10.93,8.15,2.41,1,5
16797.515,0.147,0.285,1.001,-15.11,1.25,-0.34,1,5
16797.531,0.159,0.245,0.964,-12.63,-8.18,-5.86,1,5
16797.546,0.177,0.264,0.941,-9.37,-14.98,-13.46,1,5
16797.562,0.058,0.308,0.972,0.95,-20.48,-19.84,1,5
16797.562,-0.051,0.376,0.988,19.78,-30.67,-17.49,1,5
16797.578,0.02,0.443,0.969,30.43,-46.54,-9.4,1,5
16797.578,0.167,0.492,0.917,22.16,-60.15,-7.11,1,5
16797.593,0.217,0.496,0.85,6.23,-63.97,-8.21,1,5
16797.593,0.264,0.424,0.799,-6.9,-60.64,-6.29,1,5
16797.609,0.317,0.357,0.755,-10.8,-51.15,-3.81,1,5
16797.625,0.35,0.322,0.716,-6.71,-35.16,-1.74,1,5
16797.64,0.369,0.293,0.688,-1.77,-16.91,-2.23,1,5
16797.64,0.363,0.269,0.677,0.67,0.7,-6.74,1,5
16797.656,0.33,0.247,0.685,1.89,16.94,-13.92,1,5
16797.656,0.276,0.237,0.728,5.34,30.27,-21.12,1,5
16797.671,0.208,0.244,0.78,13.25,38.82,-26.34,1,5
16797.687,0.141,0.28,0.843,22.06,41.41,-28.63,1,5
16797.687,0.083,0.327,0.882,26.76,35.98,-29.63,1,5
16797.703,0.071,0.358,0.908,26.46,24.57,-28.9,1,5
16797.718,0.097,0.379,0.909,21.73,5.4,-22.83,1,5
16797.718,0.139,0.39,0.897,18.77,3.72,-18.46,1,5
16797.734,0.163,0.401,0.879,15.69,6.35,-14.01,1,5
16797.75,0.174,0.379,0.859,11.35,10.71,-10.59,1,5
16797.75,0.174,0.36,0.861,7.08,14.8,-8.82,1,5
16797.765,0.167,0.328,0.857,3.85,18.68,-8.94,1,5
16797.765,0.166,0.295,0.852,0.37,21.7,-11.2,1,5
16797.781,0.155,0.27,0.851,-2.14,24.69,-15.87,1,5
16797.796,0.027,0.301,0.986,-2.81,26.03,-21.33,1,5
16797.796,-0.04,0.325,1.226,5.89,12.54,-17.67,1,5
16797.812,0.114,0.348,1.142,15.53,-11.93,-11.81,1,5
16797.828,0.163,0.438,1.026,11.72,-23.44,-12.76,1,5
16797.828,0.197,0.404,1.003,6.68,-24.69,-12.82,1,5
16797.843,0.209,0.405,0.969,3.88,-22.31,-11.72,1,5
16797.859,0.193,0.422,0.947,-1.22,-19.41,-11.57,1,5
16797.859,0.163,0.419,0.965,-8.85,-18.86,-12.39,1,5
16797.875,0.161,0.408,0.975,-13.7,-20.87,-12.67,1,5
16797.875,0.173,0.393,0.964,-14.31,-23.62,-13.18,1,5
16797.89,0.181,0.37,0.949,-12.02,-25.24,-15.44,1,5
16797.906,0.185,0.343,0.928,-8.7,-26.06,-19.96,1,5
16797.921,0.182,0.328,0.92,-5.22,-25.51,-25.51,1,5
16797.921,0.18,0.329,0.923,-1.07,-24.48,-30.03,1,5
16797.937,0.169,0.345,0.92,2.99,-23.62,-33.23,1,5
16797.937,0.17,0.362,0.92,3.27,-23.8,-35.52,1,5
16797.953,0.182,0.361,0.924,1.1,-24.08,-36.71,1,5
16797.968,0.187,0.37,0.926,0.89,-22.13,-36.13,1,5
16797.968,0.189,0.372,0.918,2.62,-19.29,-33.66,1,5
16797.984,0.188,0.374,0.918,3.63,-16.72,-30.95,1,5
16798.0,0.185,0.377,0.918,4.82,-14.62,-28.87,1,5
16798.0,0.182,0.379,0.907,5.25,-13.18,-27.38,1,5
16798.015,0.175,0.378,0.908,4.15,-12.39,-27.38,1,5
16798.015,0.173,0.37,0.906,3.11,-12.39,-28.32,1,5
16798.031,0.162,0.364,0.906,3.57,-12.73,-29.6,1,5
16798.046,0.166,0.366,0.899,6.41,-12.88,-29.51,1,5
16798.062,0.18,0.375,0.881,8.88,-12.02,-28.63,1,5
16798.062,0.176,0.371,0.873,10.83,-10.01,-28.23,1,5
16798.078,0.176,0.365,0.872,12.39,-7.42,-27.04,1,5
16798.078,0.158,0.376,0.884,14.16,-4.76,-25.97,1,5
16798.093,0.158,0.391,0.886,14.77,-4.49,-24.32,1,5
16798.109,0.156,0.403,0.89,11.47,-6.29,-24.02,1,5
16798.109,0.156,0.405,0.89,8.36,-8.3,-24.2,1,5
16798.125,0.159,0.419,0.886,5.4,-10.44,-24.2,1,5
16798.125,0.163,0.43,0.883,2.44,-13.12,-24.29,1,5
16798.14,0.175,0.431,0.875,0.43,-15.63,-23.59,1,5
16798.156,0.186,0.427,0.866,-0.09,-16.6,-22.55,1,5
16798.156,0.196,0.429,0.859,0.98,-15.47,-21.27,1,5
16798.171,0.193,0.43,0.856,2.93,-13.03,-20.02,1,5
16798.187,0.192,0.434,0.854,5.55,-10.32,-18.68,1,5
16798.187,0.195,0.445,0.851,8.79,-7.23,-16.85,1,5
16798.203,0.189,0.458,0.857,11.47,-4.43,-15.44,1,5
16798.203,0.177,0.463,0.866,12.12,-3.11,-14.95,1,5
16798.218,0.173,0.463,0.876,10.68,-4.03,-14.59,1,5
16798.234,0.179,0.462,0.876,8.7,-5.92,-14.68,1,5
16798.234,0.178,0.447,0.871,7.9,-7.81,-15.41,1,5
16798.25,0.182,0.428,0.868,8.27,-9.4,-16.24,1,5
16798.265,0.188,0.417,0.866,10.01,-10.28,-17.3,1,5
16798.265,0.192,0.414,0.864,13.09,-10.35,-18.49,1,5
16798.281,0.185,0.431,0.863,15.9,-9.58,-19.53,1,5
16798.296,0.184,0.448,0.864,16.75,-9.64,-20.02,1,5
16798.296,0.191,0.463,0.86,16.36,-10.1,-20.6,1,5
16798.312,0.187,0.475,0.857,16.08,-9.61,-21.42,1,5
16798.328,0.177,0.493,0.857,15.63,-9.09,-22.16,1,5
16798.328,0.177,0.51,0.866,15.69,-9.16,-23.16,1,5
16798.343,0.168,0.514,0.861,17.21,-9.37,-24.45,1,5
16798.359,0.161,0.513,0.857,18.95,-9.86,-25.54,1,5
16798.359,0.155,0.518,0.853,21.06,-10.47,-26.31,1,5
16798.375,0.16,0.526,0.847,22.68,-11.51,-26.22,1,5
16798.39,0.171,0.528,0.835,22.95,-12.42,-25.3,1,5
16798.39,0.177,0.528,0.822,21.58,-12.57,-24.11,1,5
16798.406,0.178,0.525,0.814,18.86,-12.33,-22.64,1,5
16798.406,0.176,0.52,0.813,15.5,-12.15,-21.0,1,5
16798.421,0.178,0.518,0.815,12.21,-12.02,-19.5,1,5
16798.437,0.179,0.507,0.814,10.13,-11.57,-17.91,1,5
16798.437,0.181,0.5,0.823,9.98,-10.47,-16.63,1,5
16798.453,0.181,0.501,0.842,12.36,-8.76,-15.66,1,5
16798.468,0.177,0.497,0.865,17.03,-7.32,-14.74,1,5
16798.468,0.156,0.495,0.9,23.56,-5.8,-13.82,1,5
16798.484,0.129,0.527,0.924,30.06,-6.29,-13.7,1,5
16798.484,0.098,0.56,0.932,34.88,-11.14,-14.59,1,5
16798.5,0.074,0.556,0.955,39.03,-19.56,-15.78,1,5
16798.515,0.056,0.537,0.976,44.56,-30.09,-17.24,1,5
16798.515,0.096,0.559,0.952,53.16,-40.01,-15.56,1,5
16798.531,0.175,0.604,0.863,60.55,-44.07,-10.8,1,5
16798.546,0.199,0.615,0.786,58.17,-41.9,-9.37,1,5
16798.562,0.211,0.591,0.741,51.03,-35.86,-8.3,1,5
16798.562,0.21,0.568,0.72,43.46,-28.08,-8.45,1,5
16798.578,0.201,0.539,0.712,37.75,-20.36,-10.65,1,5
16798.578,0.182,0.528,0.728,34.39,-13.64,-13.55,1,5
16798.593,0.161,0.522,0.759,33.94,-8.97,-17.03,1,5
16798.609,0.146,0.519,0.774,35.25,-6.74,-21.61,1,5
16798.609,0.127,0.532,0.78,35.92,-6.2,-26.37,1,5
16798.625,0.113,0.549,0.801,34.3,-7.29,-31.1,1,5
16798.625,0.108,0.559,0.824,33.05,-9.95,-35.8,1,5
16798.64,0.103,0.578,0.84,32.53,-13.58,-39.8,1,5
16798.656,0.106,0.599,0.846,33.05,-17.03,-42.63,1,5
16798.656,0.111,0.615,0.842,33.81,-19.38,-44.37,1,5
16798.671,0.11,0.627,0.838,33.97,-20.72,-45.56,1,5
16798.687,0.11,0.638,0.834,33.11,-22.22,-45.9,1,5
16798.687,0.107,0.644,0.833,29.05,-25.64,-44.65,1,5
16798.703,0.101,0.644,0.829,25.91,-27.92,-43.4,1,5
16798.718,0.093,0.645,0.833,23.35,-31.28,-42.48,1,5
16798.718,0.087,0.625,0.829,21.85,-35.1,-41.47,1,5
16798.734,0.073,0.603,0.819,22.13,-39.37,-40.99,1,5
16798.734,0.068,0.584,0.803,23.99,-43.64,-40.93,1,5
16798.75,0.064,0.564,0.784,27.1,-47.15,-41.35,1,5
16798.765,0.052,0.542,0.75,30.92,-49.5,-42.6,1,5
16798.765,0.049,0.524,0.713,33.39,-51.24,-44.1,1,5
16798.781,0.049,0.518,0.681,34.55,-52.58,-47.0,1,5
16798.796,0.06,0.511,0.652,35.77,-52.03,-51.24,1,5
16798.812,0.063,0.512,0.638,36.93,-48.92,-55.97,1,5
16798.812,0.042,0.517,0.654,40.07,-44.56,-60.37,1,5
16798.828,0.002,0.535,0.677,45.87,-40.99,-62.96,1,5
16798.828,-0.021,0.578,0.67,52.46,-39.52,-62.07,1,5
16798.843,-0.033,0.63,0.657,56.79,-38.7,-58.53,1,5
16798.843,-0.034,0.686,0.631,58.02,-37.39,-53.62,1,5
16798.859,-0.041,0.741,0.61,52.28,-35.71,-48.01,1,5
16798.875,-0.036,0.783,0.59,39.8,-35.1,-41.75,1,5
16798.89,-0.011,0.809,0.57,24.9,-33.33,-34.88,1,5
16798.89,0.015,0.801,0.558,10.96,-29.94,-29.39,1,5
16798.906,0.032,0.779,0.554,-0.03,-25.3,-25.91,1,5
16798.906,0.042,0.761,0.561,-6.26,-19.47,-23.71,1,5
16798.921,0.056,0.74,0.553,-7.08,-13.18,-22.68,1,5
16798.937,0.079,0.735,0.546,-5.37,-6.71,-23.53,1,5
16798.937,0.109,0.73,0.533,-3.63,0.34,-26.7,1,5
16798.953,0.12,0.729,0.535,-2.69,7.87,-32.07,1,5
16798.968,0.109,0.728,0.544,-0.92,14.95,-38.97,1,5
16798.968,0.096,0.744,0.55,1.86,20.63,-46.02,1,5
16798.984,0.094,0.765,0.552,4.7,24.87,-52.64,1,5
16799.0,0.089,0.79,0.554,5.89,27.95,-58.93,1,5
16799.0,0.074,0.814,0.556,5.01,29.66,-64.49,1,5
16799.015,0.07,0.839,0.569,2.35,30.37,-68.12,1,5
16799.015,0.078,0.864,0.587,-0.06,30.85,-70.28,1,5
16799.031,0.076,0.863,0.597,0.27,31.25,-72.3,1,5
16799.046,0.076,0.845,0.602,3.6,31.62,-73.49,1,5
16799.046,0.073,0.844,0.611,10.01,32.78,-74.71,1,5
16799.062,0.061,0.838,0.614,19.01,32.81,-77.79,1,5
16799.078,0.076,0.816,0.607,29.63,30.76,-83.04,1,5
16799.078,0.09,0.801,0.583,39.22,28.41,-90.0,1,5
16799.093,0.091,0.792,0.579,46.48,26.09,-98.33,1,5
16799.109,0.08,0.803,0.585,53.99,24.05,-106.05,1,5
16799.109,0.034,0.841,0.589,61.04,21.67,-111.03,1,5
16799.125,-0.006,0.875,0.615,64.58,16.27,-111.73,1,5
16799.125,-0.016,0.918,0.63,63.78,7.54,-109.32,1,5
16799.14,-0.0,0.944,0.621,60.06,-2.38,-105.14,1,5
16799.156,0.026,0.936,0.613,55.3,-10.22,-100.62,1,5
16799.156,0.047,0.914,0.621,52.1,-15.32,-96.32,1,5
16799.171,0.071,0.884,0.634,52.98,-18.46,-92.99,1,5
16799.187,0.089,0.853,0.64,58.87,-20.17,-92.56,1,5
16799.187,0.092,0.819,0.644,68.39,-21.15,-95.52,1,5
16799.203,0.091,0.783,0.651,81.18,-21.0,-101.57,1,5
16799.218,0.07,0.749,0.646,99.15,-20.11,-109.16,1,5
16799.218,0.031,0.736,0.634,120.43,-18.92,-116.89,1,5
16799.234,-0.045,0.754,0.618,142.49,-19.53,-125.31,1,5
16799.234,-0.117,0.792,0.623,159.76,-25.82,-134.04,1,5
16799.25,-0.173,0.801,0.632,170.48,-38.67,-141.36,1,5
16799.265,-0.226,0.805,0.608,178.93,-54.48,-147.59,1,5
16799.265,-0.206,0.754,0.532,187.32,-68.82,-150.88,1,5
16799.281,-0.193,0.773,0.426,190.74,-81.51,-157.29,1,5
16799.296,-0.222,0.801,0.352,191.96,-85.57,-162.11,1,5
16799.296,-0.237,0.738,0.314,197.0,-84.14,-163.27,1,5
16799.312,-0.247,0.712,0.271,206.12,-80.08,-162.21,1,5
16799.328,-0.278,0.702,0.199,216.8,-73.76,-160.92,1,5
16799.328,-0.304,0.718,0.13,225.01,-66.84,-161.17,1,5
16799.343,-0.345,0.743,0.068,229.22,-58.2,-160.53,1,5
16799.359,-0.381,0.792,0.016,226.45,-49.1,-158.39,1,5
16799.359,-0.428,0.846,-0.054,216.86,-38.67,-154.45,1,5
16799.375,-0.469,0.895,-0.127,197.0,-27.04,-145.85,1,5
16799.375,-0.506,0.954,-0.16,167.7,-14.4,-133.61,1,5
16799.39,-0.559,1.004,-0.167,134.43,-1.37,-118.66,1,5
16799.406,-0.606,1.004,-0.175,99.67,10.01,-100.28,1,5
16799.406,-0.64,0.991,-0.164,65.43,19.53,-79.1,1,5
16799.421,-0.68,0.973,-0.128,35.37,27.74,-57.5,1,5
16799.437,-0.721,0.926,-0.097,12.42,32.53,-36.56,1,5
16799.437,-0.726,0.879,-0.077,-4.76,34.7,-16.51,1,5
16799.453,-0.704,0.841,-0.06,-17.12,36.5,-0.15,1,5
16799.468,-0.678,0.789,-0.048,-25.73,38.24,10.71,1,5
16799.468,-0.65,0.738,-0.027,-31.22,40.07,16.85,1,5
16799.484,-0.63,0.701,-0.007,-32.53,42.15,18.98,1,5
16799.5,-0.617,0.675,0.011,-29.97,43.89,17.79,1,5
16799.5,-0.606,0.657,0.025,-25.57,44.68,13.98,1,5
16799.515,-0.61,0.668,0.034,-20.54,43.98,9.06,1,5
16799.515,-0.613,0.693,0.029,-15.63,41.93,4.52,1,5
16799.531,-0.608,0.706,0.035,-11.87,38.73,0.34,1,5
16799.546,-0.607,0.724,0.037,-9.28,34.39,-2.62,1,5
16799.546,-0.601,0.746,0.022,-6.84,29.69,-4.43,1,5
16799.562,-0.599,0.768,0.004,-6.2,24.78,-5.89,1,5
16799.578,-0.597,0.782,-0.014,-7.29,19.44,-6.62,1,5
16799.578,-0.589,0.789,-0.038,-9.16,14.19,-6.41,1,5
16799.593,-0.565,0.796,-0.065,-11.29,9.83,-5.1,1,5
16799.609,-0.518,0.807,-0.089,-13.21,7.84,-3.05,1,5
16799.609,-0.464,0.827,-0.112,-16.17,9.58,-0.92,1,5
16799.625,-0.417,0.854,-0.125,-20.26,14.89,0.03,1,5
16799.64,-0.384,0.88,-0.123,-24.05,22.83,0.21,1,5
16799.64,-0.376,0.906,-0.111,-26.55,32.5,1.1,1,5
16799.656,-0.38,0.935,-0.097,-27.56,41.99,3.36,1,5
16799.656,-0.394,0.968,-0.083,-28.23,50.29,7.05,1,5
16799.671,-0.416,1.004,-0.073,-30.52,57.13,12.73,1,5
16799.687,-0.43,1.017,-0.062,-43.37,65.4,30.21,1,5
16799.703,-0.43,1.005,-0.045,-52.06,69.15,41.69,1,5
16799.703,-0.429,0.987,-0.035,-63.94,71.96,54.54,1,5
16799.718,-0.449,1.001,-0.048,-82.71,72.88,69.31,1,5
16799.718,-0.463,0.981,-0.048,-105.69,70.8,84.02,1,5
16799.734,-0.466,0.947,-0.038,-128.51,66.23,97.75,1,5
16799.75,-0.462,0.922,-0.029,-146.95,60.58,108.34,1,5
16799.75,-0.462,0.895,-0.016,-158.73,55.15,114.78,1,5
16799.765,-0.458,0.867,0.012,-163.09,50.14,117.19,1,5
16799.765,-0.454,0.863,0.032,-160.04,46.48,116.34,1,5
16799.781,-0.454,0.896,0.045,-152.47,43.89,112.86,1,5
16799.796,-0.464,0.969,0.046,-144.32,41.69,108.25,1,5
16799.796,-0.472,1.048,0.054,-138.92,38.54,103.52,1,5
16799.812,-0.48,1.11,0.074,-134.62,35.25,98.97,1,5
16799.828,-0.484,1.154,0.094,-128.76,32.29,96.32,1,5
16799.828,-0.48,1.182,0.112,-120.24,29.6,96.19,1,5
16799.843,-0.469,1.189,0.125,-109.2,27.28,97.48,1,5
16799.859,-0.453,1.187,0.121,-97.57,25.3,99.67,1,5
16799.859,-0.441,1.182,0.113,-89.57,23.32,103.06,1,5
16799.875,-0.424,1.165,0.105,-87.34,20.23,108.1,1,5
16799.875,-0.4,1.123,0.094,-89.69,17.03,114.29,1,5
16799.89,-0.372,1.09,0.075,-94.24,14.95,121.25,1,5
16799.906,-0.345,1.052,0.064,-101.72,14.01,129.37,1,5
16799.906,-0.317,0.998,0.074,-110.75,13.0,137.06,1,5
16799.921,-0.281,0.948,0.085,-117.44,12.73,143.77,1,5
16799.937,-0.243,0.905,0.102,-120.94,13.21,148.53,1,5
16799.937,-0.221,0.874,0.128,-121.19,14.47,150.46,1,5
16799.953,-0.199,0.859,0.157,-119.42,16.6,151.46,1,5
16799.968,-0.178,0.847,0.19,-116.82,18.4,151.25,1,5
16799.968,-0.174,0.851,0.234,-115.33,18.4,150.4,1,5
16799.984,-0.151,0.851,0.277,-114.9,17.09,150.43,1,5
16800.0,-0.13,0.834,0.305,-114.38,16.08,151.62,1,5
16800.0,-0.104,0.808,0.34,-114.47,14.44,152.99,1,5
16800.015,-0.071,0.789,0.365,-111.82,13.89,154.39,1,5
16800.015,-0.047,0.777,0.382,-107.46,15.63,155.8,1,5
16800.031,-0.011,0.756,0.396,-104.07,18.49,155.64,1,5
16800.046,0.027,0.755,0.411,-100.01,23.77,152.93,1,5
16800.046,0.039,0.74,0.436,-95.95,29.91,147.62,1,5
16800.062,0.045,0.704,0.454,-94.39,34.36,139.13,1,5
16800.078,0.042,0.674,0.473,-95.28,37.75,128.39,1,5
16800.093,0.017,0.635,0.494,-95.07,40.35,116.67,1,5
16800.093,-0.005,0.598,0.509,-90.03,41.41,105.72,1,5
16800.109,-0.036,0.559,0.506,-81.3,41.02,95.0,1,5
16800.109,-0.061,0.525,0.514,-71.72,38.76,85.36,1,5
16800.125,-0.082,0.498,0.536,-61.4,35.25,77.52,1,5
16800.125,-0.082,0.499,0.561,-49.23,31.92,71.29,1,5
16800.14,-0.059,0.532,0.579,-39.52,30.88,67.26,1,5
16800.156,-0.033,0.582,0.596,-37.02,32.44,63.45,1,5
16800.156,-0.027,0.618,0.596,-42.54,35.95,59.42,1,5
16800.171,-0.046,0.64,0.615,-56.4,40.44,57.41,1,5
16800.187,-0.053,0.646,0.668,-74.56,43.21,58.41,1,5
16800.203,-0.05,0.622,0.705,-89.11,45.08,61.4,1,5
16800.203,-0.052,0.62,0.723,-101.57,47.36,64.0,1,5
16800.218,-0.044,0.587,0.753,-113.99,49.84,65.55,1,5
16800.218,-0.037,0.525,0.783,-126.26,52.0,66.1,1,5
16800.234,-0.033,0.46,0.827,-136.97,54.14,66.47,1,5
16800.25,-0.042,0.378,0.868,-141.42,55.64,66.62,1,5
16800.25,-0.045,0.292,0.909,-140.17,54.96,65.28,1,5
16800.265,-0.021,0.229,0.943,-133.76,52.98,61.19,1,5
16800.265,-0.005,0.218,0.963,-119.88,50.81,56.03,1,5
16800.281,0.016,0.201,0.962,-100.31,50.2,51.42,1,5
16800.296,0.037,0.196,0.957,-81.33,52.22,46.08,1,5
16800.312,0.057,0.231,0.97,-67.6,54.35,40.16,1,5
16800.312,0.067,0.267,1.002,-60.24,56.34,34.18,1,5
16800.328,0.047,0.275,1.029,-57.83,56.34,28.47,1,5
16800.328,0.027,0.273,1.059,-60.98,50.6,22.49,1,5
16800.343,0.031,0.297,1.093,-65.98,40.5,15.9,1,5
16800.359,0.027,0.314,1.101,-66.44,28.78,8.97,1,5
16800.359,0.038,0.317,1.077,-62.04,16.94,2.32,1,5
16800.375,0.074,0.333,1.043,-55.18,9.03,-2.53,1,5
16800.39,0.098,0.36,1.013,-45.9,7.6,-6.47,1,5
16800.39,0.098,0.389,0.973,-34.79,11.23,-9.86,1,5
16800.406,0.104,0.412,0.945,-23.8,17.3,-9.77,1,5
16800.406,-0.027,0.558,1.011,-12.63,24.72,-4.61,1,5
16800.421,-0.074,0.672,1.216,8.33,25.09,17.98,1,5
16800.437,0.037,0.701,1.168,2.47,5.74,40.16,1,5
16800.453,0.139,0.669,1.054,-29.63,-10.86,44.98,1,5
16800.453,0.165,0.467,1.022,-43.46,-14.28,41.44,1,5
16800.468,0.176,0.365,0.978,-39.7,-10.86,35.92,1,5
16800.468,0.184,0.319,0.949,-25.54,-5.46,27.53,1,5
16800.484,0.159,0.294,0.952,-6.29,-0.85,16.79,1,5
16800.5,0.139,0.312,0.939,11.51,0.43,6.53,1,5
16800.5,0.136,0.347,0.934,24.35,-0.89,-0.95,1,5
16800.515,0.125,0.365,0.913,34.15,-2.44,-5.34,1,5
16800.515,0.135,0.405,0.867,40.16,-2.84,-6.16,1,5
16800.531,0.145,0.452,0.848,39.22,-1.13,-5.37,1,5
16800.546,0.137,0.472,0.856,33.08,0.95,-4.09,1,5
16800.546,0.121,0.477,0.864,24.02,1.8,-1.74,1,5
16800.562,0.11,0.48,0.863,13.0,1.77,1.77,1,5
16800.578,0.091,0.472,0.866,2.9,2.2,5.01,1,5
16800.578,0.076,0.449,0.869,-4.55,1.92,7.11,1,5
16800.593,0.076,0.417,0.868,-7.93,1.13,8.33,1,5
16800.609,0.075,0.393,0.868,-7.45,1.28,8.67,1,5
16800.609,0.07,0.392,0.872,-5.19,1.77,8.12,1,5
16800.625,0.075,0.388,0.872,-2.35,1.46,7.87,1,5
16800.625,0.082,0.381,0.872,0.64,1.34,8.36,1,5
16800.64,0.089,0.386,0.876,3.2,1.95,9.74,1,5
16800.656,0.098,0.395,0.886,3.54,2.66,11.05,1,5
16800.656,0.1,0.392,0.9,0.24,2.26,11.11,1,5
16800.671,0.105,0.385,0.906,-0.43,2.04,10.74,1,5
16800.687,0.115,0.384,0.91,0.55,2.47,10.19,1,5
16800.687,0.118,0.386,0.914,2.59,2.47,9.34,1,5
16800.703,0.132,0.393,0.923,5.49,2.23,8.24,1,5
16800.718,0.136,0.408,0.911,8.76,2.29,7.26,1,5
16800.718,0.14,0.428,0.906,10.59,2.69,5.92,1,5
16800.734,0.135,0.444,0.908,11.11,2.99,3.75,1,5
16800.75,0.134,0.454,0.903,11.69,3.05,2.32,1,5
16800.75,0.129,0.453,0.904,12.88,3.33,2.44,1,5
16800.765,0.124,0.444,0.894,15.08,3.81,3.33,1,5
16800.765,0.126,0.445,0.882,16.08,3.97,3.54,1,5
16800.781,0.132,0.437,0.878,16.11,4.88,2.87,1,5
16800.796,0.125,0.422,0.881,15.29,5.68,1.62,1,5
16800.812,0.114,0.413,0.883,14.07,5.4,-0.31,1,5
16800.812,0.111,0.421,0.888,12.48,4.18,-2.78,1,5
16800.828,0.108,0.43,0.896,11.38,2.2,-5.34,1,5
16800.828,0.103,0.434,0.89,11.63,0.21,-6.99,1,5
16800.843,0.107,0.453,0.888,12.48,-0.95,-6.71,1,5
16800.859,0.111,0.463,0.877,13.06,-1.16,-5.37,1,5
16800.859,0.116,0.462,0.866,12.42,-0.49,-3.88,1,5
16800.875,0.113,0.458,0.864,9.83,0.18,-3.02,1,5
16800.906,0.109,0.45,0.87,6.2,0.24,-3.11,1,5
16800.906,0.109,0.441,0.876,2.62,-0.21,-3.48,1,5
16800.906,0.103,0.442,0.887,-0.4,-0.95,-4.46,1,5
16800.906,0.097,0.447,0.898,-1.5,-2.11,-5.89,1,5
16800.921,0.104,0.446,0.891,0.55,-2.93,-6.59,1,5
16800.937,0.106,0.453,0.891,4.61,-2.44,-6.56,1,5
16800.937,0.105,0.456,0.882,9.58,-1.28,-6.35,1,5
16800.953,0.112,0.468,0.863,13.98,0.58,-5.25,1,5
16800.968,0.116,0.484,0.852,16.33,3.6,-3.6,1,5
16800.968,0.112,0.478,0.856,15.78,6.35,-2.26,1,5
16800.984,0.108,0.471,0.864,12.33,7.78,-0.92,1,5
16801.0,0.111,0.465,0.876,7.35,8.76,0.4,1,5
16801.0,0.109,0.449,0.892,2.59,9.22,1.31,1,5
16801.015,0.108,0.429,0.902,-0.67,9.13,1.53,1,5
16801.015,0.108,0.415,0.908,-1.65,8.7,1.13,1,5
16801.031,0.106,0.405,0.909,-0.37,8.06,-0.18,1,5
16801.046,0.105,0.395,0.904,2.93,7.02,-1.92,1,5
16801.046,0.11,0.399,0.893,7.63,5.89,-3.57,1,5
16801.062,0.115,0.419,0.887,11.96,5.58,-5.62,1,5
16801.078,0.11,0.436,0.884,14.37,5.13,-7.72,1,5
16801.078,0.099,0.454,0.887,14.19,3.88,-9.61,1,5
16801.093,0.093,0.467,0.882,12.15,1.92,-11.17,1,5
16801.109,0.09,0.479,0.867,10.71,0.18,-12.05,1,5
16801.109,0.086,0.491,0.854,9.95,-0.73,-12.73,1,5
16801.125,0.078,0.505,0.844,9.49,-1.01,-13.25,1,5
16801.125,0.065,0.519,0.84,9.13,-1.19,-13.4,1,5
16801.14,0.052,0.527,0.835,8.51,-1.59,-12.63,1,5
16801.156,0.05,0.529,0.83,6.38,-2.35,-11.57,1,5
16801.156,0.045,0.521,0.828,2.96,-3.36,-10.56,1,5
16801.171,0.043,0.504,0.828,-0.09,-3.97,-9.19,1,5
16801.187,0.039,0.491,0.834,-3.08,-4.49,-7.72,1,5
16801.187,0.038,0.475,0.841,-5.71,-5.28,-6.59,1,5
16801.203,0.038,0.462,0.839,-8.12,-6.44,-6.29,1,5
16801.218,0.041,0.453,0.846,-10.01,-7.84,-6.53,1,5
16801.218,0.046,0.443,0.854,-8.58,-8.39,-6.5,1,5
16801.234,0.048,0.435,0.859,-3.88,-8.7,-5.58,1,5
16801.25,0.06,0.438,0.865,1.01,-8.88,-4.46,1,5
16801.25,0.069,0.452,0.874,4.09,-8.48,-4.36,1,5
16801.265,0.079,0.456,0.876,4.46,-8.3,-4.97,1,5
16801.265,0.086,0.466,0.877,2.93,-7.51,-4.94,1,5
16801.281,0.085,0.475,0.879,1.31,-6.56,-4.15,1,5
16801.296,0.089,0.48,0.873,-0.31,-5.95,-3.05,1,5
16801.296,0.096,0.479,0.869,-1.5,-5.52,-2.08,1,5
16801.312,0.099,0.471,0.867,-1.71,-4.46,-1.46,1,5
16801.328,0.1,0.462,0.875,-1.01,-3.14,-0.95,1,5
16801.328,0.103,0.457,0.891,0.43,-1.95,-1.13,1,5
16801.343,0.103,0.444,0.901,3.05,-1.4,-2.38,1,5
16801.359,0.104,0.436,0.898,7.05,-1.46,-3.14,1,5
16801.359,0.107,0.447,0.889,11.17,-1.19,-3.81,1,5
16801.375,0.108,0.459,0.884,13.73,-1.13,-4.82,1,5
16801.39,0.108,0.475,0.878,14.62,-1.62,-5.19,1,5
16801.39,0.11,0.496,0.871,13.86,-1.83,-4.24,1,5
16801.406,0.113,0.506,0.869,11.99,-1.53,-2.69,1,5
16801.406,0.115,0.507,0.872,9.13,-0.85,-1.43,1,5
16801.421,0.112,0.502,0.868,5.8,-0.15,-0.55,1,5
16801.437,0.107,0.505,0.866,2.75,0.64,-0.15,1,5
16801.437,0.106,0.498,0.863,1.37,1.28,0.09,1,5
16801.453,0.103,0.492,0.856,1.68,2.14,0.52,1,5
16801.468,0.101,0.496,0.854,2.17,3.36,0.92,1,5
16801.468,0.098,0.491,0.849,2.72,4.39,1.22,1,5
16801.484,0.096,0.491,0.847,4.18,5.52,2.23,1,5
16801.484,0.097,0.498,0.849,5.83,7.23,4.06,1,5
16801.5,0.09,0.498,0.851,6.29,8.48,5.34,1,5
16801.515,0.082,0.5,0.853,4.76,8.58,6.04,1,5
16801.515,0.078,0.499,0.85,2.47,7.63,6.29,1,5
16801.531,0.077,0.49,0.847,1.07,6.9,6.65,1,5
16801.546,0.077,0.489,0.844,0.64,6.87,6.9,1,5
16801.546,0.078,0.496,0.846,0.34,6.99,6.71,1,5
16801.562,0.074,0.495,0.85,-0.18,7.02,6.26,1,5
16801.578,0.074,0.5,0.857,-1.28,6.9,5.98,1,5
16801.578,0.072,0.502,0.865,-3.48,6.5,5.37,1,5
16801.593,0.07,0.491,0.87,-5.07,5.98,4.49,1,5
16801.609,0.073,0.483,0.867,-5.16,5.95,4.03,1,5
16801.609,0.07,0.476,0.863,-4.12,6.26,3.72,1,5
16801.625,0.063,0.464,0.861,-2.69,6.1,2.9,1,5
16801.625,0.056,0.468,0.859,-1.68,5.68,2.08,1,5
16801.64,0.056,0.483,0.868,-3.23,4.82,0.95,1,5
16801.656,0.051,0.486,0.871,-5.37,4.15,1.07,1,5
16801.656,0.054,0.483,0.874,-7.54,3.81,1.22,1,5
16801.671,0.052,0.475,0.873,-9.0,3.42,1.07,1,5
16801.687,0.056,0.45,0.865,-9.58,3.02,0.7,1,5
16801.703,0.058,0.449,0.863,-9.19,2.78,-0.52,1,5
16801.703,0.059,0.453,0.862,-7.81,2.14,-1.71,1,5
16801.703,0.065,0.466,0.866,-5.77,1.5,-2.78,1,5
16801.718,0.061,0.487,0.867,-3.48,1.59,-4.3,1,5
16801.734,0.045,0.481,0.87,-2.5,1.65,-4.43,1,5
16801.734,0.056,0.487,0.877,-2.66,0.7,-2.59,1,5
16801.75,0.062,0.498,0.865,-1.56,0.31,-2.23,1,5
16801.765,0.058,0.495,0.866,-1.28,0.55,-2.44,1,5
16801.765,0.053,0.49,0.865,-0.73,0.34,-2.08,1,5
16801.781,0.054,0.485,0.856,0.18,-0.46,-1.62,1,5
16801.796,0.047,0.483,0.86,0.95,-1.04,-1.74,1,5
16801.796,0.029,0.474,0.86,2.35,-2.29,-2.53,1,5
16801.812,0.021,0.464,0.863,4.82,-4.73,-2.81,1,5
16801.828,0.003,0.466,0.885,9.52,-7.32,-2.44,1,5
16801.828,-0.029,0.471,0.911,17.0,-11.84,-1.37,1,5
16801.843,-0.052,0.482,0.93,25.85,-18.74,0.92,1,5
16801.859,-0.093,0.552,0.973,34.91,-28.29,3.85,1,5
16801.859,-0.061,0.667,0.997,37.6,-41.41,12.39,1,5
16801.875,-0.016,0.674,1.003,16.94,-60.98,13.55,1,5
16801.89,0.034,0.629,1.006,-9.7,-78.13,11.08,1,5
16801.89,0.089,0.566,0.971,-27.25,-88.78,12.82,1,5
16801.906,0.176,0.469,0.918,-29.73,-91.68,14.31,1,5
16801.906,0.237,0.414,0.859,-20.33,-84.11,15.14,1,5
16801.921,0.261,0.395,0.81,-7.93,-71.66,13.15,1,5
16801.937,0.263,0.367,0.776,0.4,-59.02,7.2,1,5
16801.937,0.252,0.356,0.767,2.53,-49.07,-1.1,1,5
16801.953,0.249,0.358,0.767,1.37,-42.3,-10.56,1,5
16801.968,0.25,0.358,0.77,0.95,-36.56,-19.26,1,5
16801.968,0.25,0.363,0.77,2.84,-30.4,-25.73,1,5
16801.984,0.255,0.38,0.759,5.28,-23.71,-30.4,1,5
16801.984,0.253,0.392,0.747,7.54,-15.93,-33.33,1,5
16802.0,0.239,0.407,0.737,9.22,-7.66,-34.42,1,5
16802.015,0.225,0.417,0.735,8.58,-0.73,-34.24,1,5
16802.031,0.217,0.425,0.744,5.74,4.46,-33.63,1,5
16802.031,0.197,0.429,0.758,3.02,8.03,-33.2,1,5
16802.046,0.17,0.424,0.77,0.18,8.58,-33.54,1,5
16802.046,0.154,0.435,0.784,-5.4,5.8,-34.88,1,5
16802.062,0.167,0.45,0.795,-12.63,0.7,-37.45,1,5
16802.078,0.19,0.45,0.787,-18.52,-3.14,-40.53,1,5
16802.078,0.199,0.442,0.773,-21.85,-3.66,-44.16,1,5
16802.093,0.21,0.432,0.769,-21.27,-0.7,-47.61,1,5
16802.093,0.212,0.453,0.768,-15.23,6.68,-49.17,1,5
16802.109,0.196,0.497,0.779,-5.16,17.61,-49.07,1,5
16802.125,0.156,0.548,0.791,5.92,27.68,-47.15,1,5
16802.125,0.106,0.591,0.797,15.72,36.19,-41.81,1,5
16802.14,-0.15,0.728,0.99,20.72,38.36,-33.75,1,5
16802.156,-0.122,0.942,1.267,9.92,13.95,-6.71,1,5
16802.156,0.172,0.766,0.981,-7.29,-20.63,12.7,1,5
16802.171,0.156,0.635,0.808,-25.45,-24.35,14.56,1,5
16802.187,0.174,0.512,0.832,-28.38,-13.52,18.13,1,5
16802.187,0.147,0.456,0.804,-18.37,-5.4,16.82,1,5
16802.203,0.129,0.45,0.805,-11.02,0.89,13.09,1,5
16802.218,0.106,0.455,0.835,-0.98,5.34,11.26,1,5
16802.218,0.091,0.448,0.821,11.32,7.6,11.93,1,5
16802.234,0.105,0.49,0.814,15.96,8.42,12.54,1,5
16802.234,0.103,0.521,0.825,14.74,9.89,12.15,1,5
16802.25,0.1,0.525,0.841,9.74,10.32,11.99,1,5
16802.265,0.098,0.526,0.86,2.75,10.07,12.85,1,5
16802.265,0.094,0.524,0.88,-4.3,9.03,13.21,1,5
16802.281,0.097,0.503,0.888,-10.41,7.08,13.12,1,5
16802.296,0.105,0.477,0.891,-13.86,5.58,12.48,1,5
16802.296,0.103,0.451,0.887,-14.19,5.1,10.83,1,5
16802.312,0.104,0.432,0.879,-12.97,5.13,8.97,1,5
16802.328,0.109,0.419,0.878,-10.93,5.34,6.56,1,5
16802.328,0.106,0.416,0.883,-8.82,5.34,3.57,1,5
16802.343,0.104,0.42,0.886,-7.39,5.01,0.49,1,5
16802.359,0.108,0.428,0.882,-6.32,4.64,-2.11,1,5
16802.359,0.109,0.436,0.881,-5.89,4.67,-4.39,1,5
16802.375,0.107,0.453,0.877,-6.2,5.07,-6.32,1,5
16802.375,0.099,0.472,0.873,-6.41,5.8,-6.78,1,5
16802.39,0.092,0.476,0.875,-6.13,6.65,-5.52,1,5
16802.406,0.082,0.492,0.881,-5.46,7.2,-3.08,1,5
16802.406,0.078,0.492,0.881,-5.01,6.81,-0.61,1,5
16802.421,0.081,0.476,0.885,-6.26,5.83,0.61,1,5
16802.437,0.088,0.46,0.883,-7.75,4.91,0.61,1,5
16802.437,0.092,0.449,0.88,-7.08,4.79,-0.18,1,5
16802.453,0.088,0.449,0.879,-4.64,5.34,-1.31,1,5
16802.468,0.085,0.455,0.874,-1.28,5.13,-2.32,1,5
16802.468,0.088,0.462,0.864,2.01,4.49,-3.02,1,5
16802.484,0.089,0.47,0.853,4.36,4.39,-3.11,1,5
16802.484,0.094,0.487,0.852,5.25,4.91,-2.69,1,5
16802.5,0.099,0.491,0.855,5.89,5.71,-2.29,1,5
16802.515,0.092,0.499,0.867,4.97,6.68,-1.86,1,5
16802.515,0.081,0.51,0.89,2.41,6.47,-0.98,1,5
16802.531,0.063,0.506,0.908,0.55,4.46,-0.06,1,5
16802.546,0.027,0.491,0.926,2.93,0.92,1.1,1,5
16802.546,-0.015,0.484,0.955,9.83,-5.46,2.84,1,5
16802.562,-0.044,0.481,0.975,18.95,-15.53,4.79,1,5
16802.578,-0.058,0.528,0.986,28.99,-27.04,7.66,1,5
16802.578,0.018,0.625,1.009,38.18,-37.57,17.91,1,5
16802.593,0.064,0.648,0.966,31.43,-48.49,23.07,1,5
16802.593,0.108,0.612,0.939,13.46,-56.52,22.37,1,5
16802.609,0.142,0.58,0.927,-4.73,-59.72,20.57,1,5
16802.625,0.143,0.529,0.919,-19.17,-62.59,13.67,1,5
16802.64,0.138,0.475,0.924,-35.77,-73.43,-6.71,1,5
16802.64,0.148,0.428,0.934,-27.83,-76.91,-16.72,1,5
16802.656,0.163,0.392,0.925,-10.74,-77.24,-25.97,1,5
16802.656,0.212,0.392,0.839,9.61,-72.97,-34.73,1,5
16802.671,0.215,0.428,0.792,26.76,-65.4,-42.42,1,5
16802.687,0.215,0.468,0.758,38.42,-56.12,-47.85,1,5
16802.687,0.209,0.507,0.737,44.74,-46.63,-50.94,1,5
16802.703,0.199,0.535,0.734,46.3,-37.97,-51.55,1,5
16802.718,0.188,0.545,0.747,45.9,-30.43,-49.9,1,5
16802.718,0.195,0.54,0.744,45.99,-24.08,-45.75,1,5
16802.734,0.178,0.548,0.735,46.36,-17.7,-40.16,1,5
16802.734,0.166,0.543,0.736,45.26,-13.73,-35.37,1,5
16802.75,0.188,0.534,0.746,42.82,-11.63,-32.47,1,5
16802.765,0.162,0.534,0.756,40.35,-10.32,-32.65,1,5
16802.765,0.148,0.526,0.771,36.71,-11.96,-34.33,1,5
16802.781,0.151,0.519,0.8,33.66,-15.5,-35.58,1,5
16802.796,0.182,0.516,0.8,32.84,-19.47,-36.93,1,5
16802.796,0.187,0.528,0.78,31.62,-21.45,-37.63,1,5
16802.812,0.218,0.523,0.787,32.62,-21.52,-39.95,1,5
16802.828,0.201,0.522,0.767,35.83,-20.36,-41.63,1,5
16802.828,0.204,0.522,0.745,34.49,-20.08,-41.2,1,5
16802.843,0.224,0.525,0.746,32.32,-19.65,-42.63,1,5
16802.859,0.2,0.522,0.748,32.23,-18.92,-45.32,1,5
16802.859,0.196,0.526,0.759,31.34,-19.56,-45.9,1,5
16802.875,0.197,0.546,0.774,30.64,-21.21,-45.99,1,5
16802.875,0.189,0.557,0.773,31.22,-23.93,-46.72,1,5
16802.89,0.186,0.567,0.771,29.91,-27.04,-47.06,1,5
16802.906,0.19,0.582,0.76,27.65,-30.34,-46.69,1,5
16802.921,0.192,0.591,0.744,24.32,-33.54,-46.14,1,5
16802.921,0.191,0.61,0.727,18.65,-36.19,-45.59,1,5
16802.937,0.197,0.622,0.706,12.57,-38.7,-44.16,1,5
16802.937,0.211,0.628,0.68,5.83,-40.74,-42.79,1,5
16802.953,0.227,0.631,0.652,0.21,-41.23,-41.54,1,5
16802.968,0.237,0.625,0.629,-2.56,-39.16,-39.92,1,5
16802.968,0.246,0.627,0.615,-3.33,-34.67,-38.54,1,5
16802.984,0.246,0.632,0.611,-3.08,-29.02,-37.6,1,5
16802.984,0.241,0.635,0.615,-2.08,-23.13,-36.93,1,5
16803.0,0.238,0.645,0.623,-0.61,-17.73,-36.01,1,5
16803.015,0.236,0.662,0.63,1.59,-12.6,-34.21,1,5
16803.015,0.229,0.681,0.645,3.85,-7.05,-31.5,1,5
16803.031,0.208,0.712,0.68,4.33,-2.29,-27.74,1,5
16803.046,0.199,0.736,0.715,2.47,-0.46,-23.01,1,5
16803.046,0.192,0.742,0.745,-0.03,-0.24,-18.1,1,5
16803.062,0.186,0.74,0.769,-1.19,-0.55,-13.0,1,5
16803.078,0.189,0.746,0.785,-1.5,-1.19,-8.51,1,5
16803.078,0.199,0.751,0.795,-1.89,-1.8,-4.79,1,5
16803.093,0.201,0.738,0.79,-1.77,-1.31,-1.95,1,5
16803.109,0.192,0.719,0.781,-0.64,0.12,0.0,1,5
16803.109,0.181,0.706,0.778,0.64,1.56,1.4,1,5
16803.125,0.176,0.699,0.777,1.4,1.98,2.2,1,5
16803.14,0.166,0.688,0.777,2.53,2.26,2.32,1,5
16803.14,0.129,0.68,0.781,3.45,1.83,2.29,1,5
16803.156,0.102,0.681,0.794,1.95,-2.23,2.29,1,5
16803.156,0.116,0.691,0.79,-1.28,-8.73,2.72,1,5
16803.171,0.135,0.68,0.763,-2.35,-13.09,3.85,1,5
16803.187,0.146,0.667,0.74,-1.62,-14.04,5.52,1,5
16803.187,0.157,0.671,0.72,-1.04,-12.91,7.26,1,5
16803.203,0.161,0.67,0.705,-0.58,-10.25,8.67,1,5
16803.203,0.151,0.667,0.704,-0.67,-7.35,9.64,1,5
16803.218,0.132,0.666,0.712,-1.89,-5.74,9.92,1,5
16803.234,0.116,0.663,0.721,-4.18,-6.23,9.89,1,5
16803.234,0.112,0.655,0.724,-5.71,-8.24,9.67,1,5
16803.25,0.117,0.643,0.718,-5.34,-10.04,9.25,1,5
16803.265,0.125,0.638,0.719,-4.46,-11.02,8.36,1,5
16803.281,0.128,0.623,0.705,-2.69,-10.9,6.9,1,5
16803.281,0.12,0.616,0.69,-0.18,-9.55,5.4,1,5
16803.296,0.114,0.621,0.674,2.11,-7.84,4.79,1,5
16803.296,0.115,0.62,0.667,3.05,-6.5,4.27,1,5
16803.312,0.11,0.62,0.665,3.88,-4.88,3.08,1,5
16803.328,0.098,0.622,0.666,5.34,-3.3,2.14,1,5
16803.328,0.095,0.623,0.672,5.98,-2.38,2.01,1,5
16803.343,0.086,0.631,0.68,6.13,-1.95,2.29,1,5
16803.359,0.075,0.64,0.685,6.93,-2.99,1.68,1,5
16803.359,0.077,0.627,0.676,7.72,-3.97,2.96,1,5
16803.375,0.08,0.641,0.667,7.66,-4.21,4.76,1,5
16803.375,0.094,0.641,0.666,8.21,-4.12,4.76,1,5
16803.39,0.087,0.632,0.655,9.0,-3.05,4.3,1,5
16803.406,0.075,0.647,0.656,8.36,-1.56,4.52,1,5
16803.421,0.077,0.646,0.671,8.79,-0.4,4.94,1,5
16803.421,0.067,0.646,0.678,11.29,0.7,5.71,1,5
16803.437,0.065,0.664,0.682,13.31,1.13,7.48,1,5
16803.437,0.068,0.677,0.693,13.58,0.27,9.09,1,5
16803.453,0.08,0.671,0.686,13.7,-0.95,10.62,1,5
16803.468,0.094,0.67,0.683,13.55,-1.56,11.78,1,5
16803.484,0.116,0.671,0.686,13.49,-1.07,12.15,1,5
16803.484,0.131,0.669,0.68,14.16,0.82,11.75,1,5
16803.484,0.139,0.666,0.696,15.56,3.57,10.8,1,5
16803.5,0.139,0.671,0.736,17.12,5.22,9.34,1,5
16803.515,0.116,0.684,0.767,18.8,3.97,8.06,1,5
16803.531,0.098,0.685,0.763,21.55,-0.12,7.51,1,5
16803.531,0.083,0.711,0.756,22.71,-4.91,7.9,1,5
16803.546,0.092,0.748,0.755,19.78,-10.8,9.28,1,5
16803.546,0.129,0.777,0.749,11.57,-17.06,11.38,1,5
16803.562,0.173,0.783,0.726,1.65,-20.63,14.65,1,5
16803.578,0.197,0.77,0.69,-7.29,-19.2,20.23,1,5
16803.578,0.209,0.736,0.678,-13.67,-13.73,27.44,1,5
16803.593,0.21,0.682,0.68,-15.17,-6.47,34.27,1,5
16803.609,0.202,0.634,0.679,-12.79,1.19,38.79,1,5
16803.609,0.196,0.595,0.679,-9.58,12.48,31.71,1,5
16803.625,0.195,0.558,0.69,-6.99,15.96,20.26,1,5
16803.625,0.187,0.523,0.701,-2.11,18.56,6.23,1,5
16803.64,0.182,0.502,0.707,3.94,20.87,-8.76,1,5
16803.656,0.175,0.518,0.686,10.35,23.71,-22.86,1,5
16803.671,0.165,0.541,0.663,14.89,26.98,-34.03,1,5
16803.671,0.15,0.565,0.641,16.48,30.67,-41.32,1,5
16803.687,0.131,0.574,0.629,15.81,34.46,-45.44,1,5
16803.687,0.117,0.575,0.62,14.56,37.81,-46.88,1,5
16803.703,0.105,0.573,0.608,12.88,41.02,-46.69,1,5
16803.718,0.092,0.563,0.595,10.38,44.07,-46.51,1,5
16803.718,0.084,0.554,0.601,6.56,46.42,-47.09,1,5
16803.734,0.08,0.542,0.627,3.69,48.16,-48.62,1,5
16803.75,0.07,0.535,0.646,3.57,49.96,-50.08,1,5
16803.75,0.057,0.542,0.672,3.72,51.18,-51.39,1,5
16803.765,0.047,0.553,0.696,3.54,50.69,-53.22,1,5
16803.765,0.037,0.565,0.708,2.44,48.28,-55.15,1,5
16803.781,0.031,0.567,0.707,0.27,44.89,-56.98,1,5
16803.796,0.026,0.559,0.695,-1.59,41.38,-58.81,1,5
16803.796,0.028,0.55,0.674,-2.01,38.88,-59.76,1,5
16803.812,0.042,0.566,0.653,-2.44,38.91,-60.06,1,5
16803.828,0.047,0.576,0.643,-3.78,41.02,-60.7,1,5
16803.828,0.033,0.581,0.644,-6.1,44.37,-61.95,1,5
16803.843,0.016,0.585,0.656,-9.43,46.85,-63.42,1,5
16803.859,0.011,0.582,0.67,-13.21,47.94,-64.85,1,5
16803.859,-0.001,0.583,0.671,-15.84,48.65,-67.08,1,5
16803.875,-0.033,0.572,0.685,-17.4,49.41,-69.4,1,5
16803.89,-0.066,0.57,0.706,-15.72,49.1,-71.2,1,5
16803.89,-0.075,0.582,0.701,-12.7,47.24,-71.57,1,5
16803.906,-0.03,0.574,0.675,-13.34,43.37,-72.91,1,5
16803.906,-0.125,0.589,0.677,-17.18,40.62,-78.74,1,5
16803.921,-0.099,0.516,0.688,-12.12,48.55,-73.49,1,5
16803.937,-0.068,0.576,0.659,-5.07,49.93,-72.79,1,5
16803.937,-0.114,0.56,0.616,-3.69,51.39,-77.21,1,5
16803.953,-0.115,0.581,0.646,-9.7,53.71,-80.23,1,5
16803.968,-0.166,0.643,0.665,-15.5,55.82,-81.79,1,5
16803.968,-0.188,0.647,0.719,-24.51,55.33,-79.47,1,5
16803.984,-0.215,0.676,0.78,-30.12,53.59,-74.89,1,5
16803.984,-0.242,0.699,0.802,-31.71,51.0,-67.32,1,5
16804.0,-0.23,0.671,0.805,-33.78,47.73,-59.88,1,5
16804.015,-0.211,0.64,0.802,-34.61,44.86,-56.52,1,5
16804.015,-0.232,0.62,0.782,-32.44,44.5,-56.61,1,5
16804.031,-0.211,0.624,0.756,-31.13,44.77,-57.83,1,5
16804.046,-0.239,0.622,0.731,-32.35,46.02,-61.56,1,5
16804.062,-0.244,0.607,0.716,-35.16,48.28,-63.57,1,5
16804.062,-0.272,0.599,0.696,-36.84,51.09,-65.52,1,5
16804.078,-0.285,0.59,0.689,-38.42,54.63,-65.92,1,5
16804.078,-0.321,0.6,0.701,-39.7,57.95,-65.58,1,5
16804.093,-0.357,0.595,0.721,-40.65,59.48,-63.91,1,5
16804.109,-0.367,0.597,0.754,-41.26,58.84,-61.74,1,5
16804.109,-0.361,0.589,0.762,-39.7,58.38,-59.85,1,5
16804.125,-0.352,0.565,0.74,-37.17,59.21,-59.24,1,5
16804.14,-0.345,0.558,0.713,-35.46,62.47,-59.97,1,5
16804.14,-0.35,0.557,0.683,-36.19,67.9,-61.71,1,5
16804.156,-0.374,0.547,0.694,-40.13,74.89,-63.94,1,5
16804.156,-0.422,0.527,0.722,-41.72,80.9,-65.8,1,5
16804.171,-0.47,0.517,0.735,-40.5,84.78,-64.97,1,5
16804.187,-0.512,0.517,0.762,-39.98,86.25,-62.62,1,5
16804.187,-0.55,0.494,0.794,-37.57,84.51,-61.1,1,5
16804.203,-0.578,0.503,0.802,-32.87,81.03,-58.38,1,5
16804.218,-0.596,0.519,0.793,-30.46,77.24,-53.47,1,5
16804.218,-0.589,0.518,0.786,-31.16,73.64,-48.28,1,5
16804.234,-0.589,0.508,0.78,-31.92,71.87,-43.37,1,5
16804.25,-0.601,0.498,0.764,-31.53,71.66,-38.3,1,5
16804.25,-0.603,0.481,0.754,-31.53,72.3,-33.48,1,5
16804.265,-0.601,0.473,0.758,-29.48,74.89,-29.91,1,5
16804.265,-0.631,0.486,0.776,-24.75,78.1,-26.31,1,5
16804.281,-0.668,0.513,0.8,-22.83,78.89,-20.84,1,5
16804.296,-0.692,0.521,0.823,-25.79,75.05,-15.66,1,5
16804.296,-0.699,0.512,0.851,-30.79,67.9,-11.44,1,5
16804.312,-0.723,0.503,0.864,-33.14,59.6,-7.32,1,5
16804.328,-0.726,0.485,0.854,-34.49,50.14,-2.59,1,5
16804.343,-0.7,0.462,0.826,-35.25,41.05,1.1,1,5
16804.343,-0.673,0.428,0.798,-34.09,34.97,1.77,1,5
16804.359,-0.653,0.394,0.769,-30.34,32.38,-0.18,1,5
16804.359,-0.645,0.376,0.745,-24.32,32.75,-3.11,1,5
16804.375,-0.652,0.374,0.731,-17.91,34.27,-6.35,1,5
16804.39,-0.669,0.391,0.723,-13.64,34.58,-9.58,1,5
16804.39,-0.701,0.408,0.729,-14.28,31.83,-11.08,1,5
16804.406,-0.702,0.408,0.737,-21.42,24.99,-11.29,1,5
16804.406,-0.677,0.384,0.737,-28.72,17.18,-10.93,1,5
16804.421,-0.644,0.343,0.715,-30.18,12.91,-9.67,1,5
16804.437,-0.622,0.335,0.689,-27.99,12.73,-8.27,1,5
16804.437,-0.617,0.329,0.676,-26.31,14.62,-7.39,1,5
16804.453,-0.633,0.33,0.693,-26.89,16.24,-7.29,1,5
16804.468,-0.682,0.351,0.725,-29.36,14.13,-7.51,1,5
16804.468,-0.704,0.342,0.786,-32.72,5.07,-7.45,1,5
16804.484,-0.709,0.303,0.851,-32.26,-8.58,-6.96,1,5
16804.484,-0.701,0.307,0.861,-24.84,-23.56,-3.85,1,5
16804.5,-0.647,0.339,0.838,-16.33,-34.24,1.95,1,5
16804.515,-0.6,0.354,0.803,-12.88,-40.96,5.01,1,5
16804.531,-0.579,0.344,0.739,-13.76,-42.97,5.31,1,5
16804.531,-0.591,0.354,0.7,-18.56,-40.68,5.04,1,5
16804.546,-0.602,0.354,0.701,-27.44,-38.88,4.03,1,5
16804.546,-0.612,0.332,0.71,-34.36,-38.94,2.08,1,5
16804.562,-0.609,0.29,0.731,-37.72,-39.25,-0.12,1,5
16804.578,-0.591,0.271,0.743,-37.81,-40.13,-3.45,1,5
16804.578,-0.568,0.259,0.73,-32.11,-38.51,-6.65,1,5
16804.593,-0.562,0.246,0.702,-15.05,-26.0,-10.59,1,5
16804.609,-0.563,0.239,0.675,-10.47,-17.7,-11.57,1,5
16804.609,-0.584,0.262,0.655,-10.47,-11.32,-11.87,1,5
16804.625,-0.613,0.274,0.668,-13.52,-8.0,-11.72,1,5
16804.625,-0.648,0.266,0.693,-17.21,-6.44,-11.23,1,5
16804.64,-0.655,0.271,0.694,-19.35,-5.65,-9.64,1,5
16804.656,-0.652,0.269,0.692,-22.03,-4.7,-7.54,1,5
16804.671,-0.652,0.263,0.687,-24.99,-3.48,-5.86,1,5
16804.671,-0.65,0.252,0.695,-27.07,-2.35,-4.94,1,5
16804.687,-0.642,0.235,0.693,-25.97,-0.37,-4.03,1,5
16804.687,-0.627,0.223,0.673,-23.07,2.87,-3.48,1,5
16804.703,-0.625,0.216,0.653,-19.53,7.87,-4.73,1,5
16804.718,-0.642,0.206,0.654,-16.91,13.18,-7.48,1,5
16804.718,-0.66,0.217,0.685,-15.96,16.24,-10.13,1,5
16804.734,-0.684,0.236,0.715,-15.2,16.79,-11.41,1,5
16804.734,-0.693,0.243,0.733,-15.69,14.74,-10.41,1,5
16804.75,-0.683,0.25,0.74,-16.82,11.63,-7.9,1,5
16804.765,-0.674,0.244,0.744,-17.58,9.03,-4.73,1,5
16804.765,-0.653,0.235,0.737,-20.33,6.56,-1.95,1,5
16804.781,-0.635,0.217,0.726,-23.41,4.55,-1.28,1,5
16804.796,-0.62,0.191,0.72,-24.08,3.54,-2.56,1,5
16804.796,-0.614,0.183,0.723,-21.45,3.66,-4.91,1,5
16804.812,-0.617,0.185,0.74,-17.37,4.06,-7.72,1,5
16804.828,-0.625,0.186,0.754,-14.31,3.42,-10.99,1,5
16804.828,-0.631,0.195,0.763,-12.57,1.4,-14.34,1,5
16804.843,-0.627,0.201,0.77,-11.32,-1.37,-16.85,1,5
16804.859,-0.623,0.206,0.772,-11.02,-3.42,-18.65,1,5
16804.859,-0.622,0.219,0.763,-11.81,-4.21,-19.75,1,5
16804.875,-0.614,0.221,0.749,-12.45,-3.97,-19.32,1,5
16804.89,-0.609,0.218,0.735,-12.33,-2.2,-17.88,1,5
16804.89,-0.61,0.214,0.72,-10.47,1.43,-16.45,1,5
16804.906,-0.611,0.216,0.706,-8.76,5.92,-15.47,1,5
16804.921,-0.625,0.225,0.705,-8.39,10.01,-14.28,1,5
16804.921,-0.663,0.239,0.738,-9.74,11.78,-12.05,1,5
16804.937,-0.685,0.223,0.772,-10.9,10.01,-8.45,1,5
16804.937,-0.68,0.217,0.78,-11.57,5.83,-4.33,1,5
16804.953,-0.662,0.209,0.761,-10.96,2.08,-0.4,1,5
16804.968,-0.641,0.193,0.738,-10.04,0.34,3.11,1,5
16804.968,-0.626,0.176,0.714,-10.19,0.7,4.91,1,5
16804.984,-0.62,0.162,0.704,-10.19,2.69,4.58,1,5
16804.984,-0.621,0.146,0.698,-8.33,5.83,2.99,1,5
16805.0,-0.627,0.14,0.692,-5.16,9.7,0.7,1,5
16805.015,-0.637,0.146,0.698,-2.44,13.76,-1.95,1,5
16805.015,-0.659,0.154,0.717,-1.22,16.39,-5.07,1,5
16805.031,-0.685,0.162,0.749,-0.98,16.27,-7.54,1,5
16805.046,-0.704,0.172,0.773,-1.28,13.09,-8.58,1,5
16805.046,-0.701,0.173,0.783,-2.66,8.18,-8.97,1,5
16805.062,-0.695,0.179,0.778,-2.11,3.57,-8.42,1,5
16805.078,-0.684,0.18,0.758,-0.46,0.09,-7.6,1,5
16805.078,-0.672,0.179,0.737,-0.85,-2.32,-7.54,1,5
16805.093,-0.663,0.173,0.715,-0.64,-2.75,-7.9,1,5
16805.109,-0.652,0.174,0.686,1.13,-0.76,-8.51,1,5
16805.109,-0.648,0.177,0.663,1.92,3.23,-9.37,1,5
16805.125,-0.657,0.177,0.666,1.28,7.75,-10.62,1,5
16805.125,-0.669,0.18,0.687,0.79,11.66,-12.02,1,5
16805.14,-0.682,0.183,0.709,1.86,14.19,-12.6,1,5
16805.156,-0.681,0.176,0.721,3.27,14.86,-12.33,1,5
16805.156,-0.683,0.177,0.731,3.69,14.04,-12.12,1,5
16805.171,-0.684,0.182,0.747,4.36,12.02,-11.81,1,5
16805.187,-0.68,0.184,0.759,5.34,9.06,-11.26,1,5
16805.187,-0.674,0.192,0.757,6.07,5.86,-10.53,1,5
16805.203,-0.669,0.203,0.749,6.07,2.87,-9.37,1,5
16805.218,-0.661,0.201,0.74,5.52,0.4,-8.15,1,5
16805.218,-0.667,0.194,0.72,5.4,-0.37,-6.96,1,5
16805.234,-0.689,0.194,0.704,5.25,0.09,-5.46,1,5
16805.234,-0.685,0.184,0.697,4.64,0.03,-4.15,1,5
16805.25,-0.68,0.172,0.691,6.26,0.55,-3.36,1,5
16805.265,-0.687,0.173,0.682,9.43,1.98,-2.35,1,5
16805.265,-0.682,0.172,0.679,10.96,2.66,-1.74,1,5
16805.281,-0.677,0.163,0.675,11.32,3.11,-1.46,1,5
16805.296,-0.68,0.159,0.678,10.93,3.69,-1.19,1,5
16805.296,-0.68,0.157,0.682,9.43,4.03,-1.19,1,5
16805.312,-0.684,0.153,0.681,8.15,4.18,-0.82,1,5
16805.328,-0.679,0.154,0.683,6.78,4.24,-0.18,1,5
16805.328,-0.675,0.159,0.682,5.83,4.33,0.27,1,5
16805.343,-0.678,0.158,0.674,4.91,4.91,1.1,1,5
16805.359,-0.673,0.155,0.67,3.81,5.98,2.04,1,5
16805.359,-0.672,0.155,0.671,2.99,7.48,3.11,1,5
16805.375,-0.675,0.156,0.679,2.35,8.33,4.61,1,5
16805.375,-0.684,0.151,0.691,1.37,8.21,5.92,1,5
16805.39,-0.698,0.157,0.701,-0.82,6.5,7.17,1,5
16805.406,-0.68,0.162,0.708,-4.67,2.81,8.76,1,5
16805.406,-0.658,0.157,0.702,-7.9,-0.06,10.01,1,5
16805.421,-0.641,0.149,0.69,-9.49,-0.7,11.54,1,5
16805.437,-0.633,0.147,0.686,-9.98,0.52,12.45,1,5
16805.437,-0.649,0.149,0.693,-9.49,2.17,12.54,1,5
16805.453,-0.666,0.148,0.714,-9.64,2.14,12.54,1,5
16805.468,-0.682,0.15,0.738,-9.7,-0.21,12.27,1,5
16805.468,-0.688,0.15,0.743,-8.67,-4.09,12.33,1,5
16805.484,-0.675,0.148,0.729,-7.57,-8.18,12.27,1,5
16805.5,-0.669,0.152,0.712,-6.2,-10.77,11.44,1,5
16805.5,-0.671,0.156,0.7,-4.58,-12.15,10.83,1,5
16805.515,-0.666,0.158,0.679,-3.48,-12.82,10.62,1,5
16805.515,-0.672,0.161,0.662,-3.75,-12.42,10.56,1,5
16805.531,-0.683,0.15,0.662,-4.43,-11.41,10.86,1,5
16805.546,-0.692,0.151,0.672,-4.61,-10.47,11.78,1,5
16805.546,-0.691,0.146,0.67,-5.1,-9.92,12.36,1,5
16805.562,-0.695,0.14,0.672,-5.71,-8.73,12.05,1,5
16805.578,-0.691,0.133,0.676,-6.07,-7.14,11.78,1,5
16805.578,-0.689,0.133,0.683,-5.89,-2.53,9.7,1,5
16805.593,-0.697,0.137,0.697,-5.8,-0.4,8.79,1,5
16805.609,-0.697,0.141,0.712,-6.29,1.22,7.78,1,5
16805.609,-0.695,0.147,0.733,-5.4,3.05,6.59,1,5
16805.625,-0.708,0.155,0.753,-3.75,4.61,5.71,1,5
16805.64,-0.714,0.165,0.779,-2.5,4.21,5.1,1,5
16805.64,-0.715,0.166,0.794,-0.89,2.08,5.16,1,5
16805.656,-0.707,0.171,0.798,-0.09,-1.43,5.52,1,5
16805.671,-0.693,0.172,0.792,0.89,-5.04,5.34,1,5
16805.671,-0.674,0.172,0.778,2.66,-8.18,5.31,1,5
16805.687,-0.658,0.177,0.757,4.21,-10.04,5.07,1,5
16805.687,-0.654,0.175,0.737,5.46,-10.62,4.79,1,5
16805.703,-0.651,0.177,0.725,5.89,-10.77,5.01,1,5
16805.718,-0.638,0.175,0.716,4.88,-11.02,5.16,1,5
16805.718,-0.633,0.17,0.713,4.0,-10.96,5.49,1,5
16805.734,-0.629,0.163,0.713,4.03,-10.68,5.74,1,5
16805.734,-0.624,0.161,0.712,5.07,-10.07,5.46,1,5
16805.75,-0.631,0.163,0.719,6.59,-9.64,4.91,1,5
16805.765,-0.637,0.17,0.733,6.26,-10.32,4.39,1,5
16805.765,-0.638,0.168,0.739,4.97,-12.39,3.3,1,5
16805.781,-0.63,0.16,0.737,5.16,-14.16,1.65,1,5
16805.796,-0.621,0.163,0.73,7.48,-15.11,-0.24,1,5
16805.796,-0.614,0.166,0.719,10.65,-15.35,-2.62,1,5
16805.812,-0.619,0.169,0.713,13.21,-15.08,-5.37,1,5
16805.828,-0.636,0.171,0.702,14.86,-15.23,-7.78,1,5
16805.828,-0.639,0.174,0.688,15.56,-15.96,-9.37,1,5
16805.843,-0.641,0.182,0.673,16.02,-16.21,-10.25,1,5
16805.859,-0.652,0.186,0.651,15.84,-15.72,-10.1,1,5
16805.859,-0.658,0.188,0.633,14.22,-14.37,-9.22,1,5
16805.875,-0.66,0.192,0.625,12.24,-12.12,-7.93,1,5
16805.89,-0.664,0.194,0.619,10.07,-9.49,-6.26,1,5
16805.89,-0.662,0.189,0.617,7.29,-6.59,-4.21,1,5
16805.906,-0.658,0.187,0.622,4.55,-3.02,-2.69,1,5
16805.906,-0.657,0.183,0.633,2.41,0.64,-1.83,1,5
16805.921,-0.655,0.183,0.647,1.22,3.81,-1.37,1,5
16805.937,-0.654,0.181,0.657,-0.03,6.81,-1.5,1,5
16805.937,-0.656,0.177,0.672,-0.89,9.25,-1.83,1,5
16805.953,-0.655,0.179,0.685,-1.34,10.9,-1.89,1,5
16805.968,-0.655,0.19,0.697,-1.92,12.02,-2.2,1,5
16805.968,-0.658,0.205,0.715,-3.66,12.27,-2.23,1,5
16805.984,-0.655,0.209,0.73,-5.92,10.99,-1.95,1,5
16805.984,-0.645,0.212,0.74,-7.63,9.31,-1.19,1,5
16806.0,-0.641,0.212,0.747,-7.84,8.12,-0.37,1,5
16806.015,-0.643,0.209,0.755,-7.17,7.51,0.21,1,5
16806.015,-0.645,0.207,0.767,-5.49,6.71,0.34,1,5
16806.031,-0.65,0.209,0.777,-2.35,5.89,0.21,1,5
16806.046,-0.653,0.212,0.788,0.89,4.36,-0.4,1,5
16806.046,-0.661,0.218,0.804,3.05,1.46,-1.53,1,5
16806.062,-0.661,0.214,0.815,4.88,-3.11,-2.44,1,5
16806.078,-0.652,0.212,0.814,7.29,-8.06,-2.93,1,5
16806.078,-0.635,0.21,0.805,10.1,-11.63,-3.2,1,5
16806.093,-0.623,0.209,0.802,13.15,-13.79,-3.45,1,5
16806.109,-0.619,0.207,0.812,16.08,-15.08,-3.85,1,5
16806.109,-0.616,0.202,0.841,18.98,-16.17,-4.43,1,5
16806.125,-0.611,0.204,0.878,22.49,-17.76,-5.43,1,5
16806.14,-0.614,0.207,0.914,26.92,-20.84,-6.99,1,5
16806.14,-0.612,0.213,0.957,32.17,-26.09,-8.85,1,5
16806.156,-0.604,0.223,0.987,38.82,-33.36,-11.05,1,5
16806.156,-0.585,0.241,1.001,46.39,-41.63,-13.64,1,5
16806.171,-0.565,0.258,1.011,52.49,-49.56,-16.88,1,5
16806.187,-0.551,0.269,1.017,57.37,-56.64,-19.65,1,5
16806.187,-0.547,0.28,1.024,61.07,-62.75,-21.03,1,5
16806.203,-0.54,0.287,1.042,63.48,-68.42,-21.12,1,5
16806.218,-0.541,0.29,1.055,66.84,-73.27,-19.93,1,5
16806.218,-0.554,0.298,1.066,70.56,-78.43,-18.43,1,5
16806.234,-0.558,0.306,1.071,74.8,-84.54,-17.06,1,5
16806.25,-0.549,0.313,1.07,79.07,-90.7,-16.08,1,5
16806.25,-0.544,0.324,1.053,83.07,-96.35,-15.59,1,5
16806.265,-0.531,0.337,1.036,85.76,-101.44,-15.32,1,5
16806.265,-0.511,0.348,1.022,86.76,-105.17,-14.22,1,5
16806.281,-0.504,0.372,1.02,86.15,-107.73,-12.27,1,5
16806.296,-0.495,0.393,1.017,84.54,-110.05,-8.91,1,5
16806.296,-0.484,0.409,1.017,81.67,-112.55,-4.3,1,5
16806.312,-0.476,0.42,1.011,78.86,-115.3,0.89,1,5
16806.328,-0.465,0.431,0.998,75.81,-118.84,5.92,1,5
16806.343,-0.445,0.435,0.966,72.24,-122.41,9.86,1,5
16806.343,-0.421,0.432,0.924,68.18,-124.61,12.54,1,5
16806.359,-0.403,0.425,0.894,64.3,-124.55,14.28,1,5
16806.359,-0.39,0.421,0.88,61.49,-122.96,15.38,1,5
16806.375,-0.39,0.433,0.867,59.57,-121.37,15.81,1,5
16806.375,-0.387,0.463,0.872,56.83,-121.89,17.06,1,5
16806.39,-0.362,0.463,0.869,52.34,-124.73,17.98,1,5
16806.406,-0.326,0.471,0.839,46.82,-126.22,18.43,1,5
16806.406,-0.277,0.481,0.802,44.13,-123.69,20.11,1,5
16806.421,-0.256,0.487,0.794,44.68,-116.92,22.64,1,5
16806.437,-0.265,0.488,0.793,46.11,-109.1,25.33,1,5
16806.437,-0.276,0.504,0.797,47.12,-102.63,29.08,1,5
16806.453,-0.281,0.521,0.804,46.72,-99.49,32.9,1,5
16806.468,-0.279,0.527,0.792,43.31,-99.12,35.31,1,5
16806.468,-0.27,0.529,0.777,38.54,-99.61,37.23,1,5
16806.484,-0.252,0.529,0.756,35.8,-99.34,39.83,1,5
16806.5,-0.224,0.531,0.724,33.97,-98.03,42.63,1,5
16806.5,-0.19,0.522,0.689,32.29,-93.72,45.66,1,5
16806.515,-0.166,0.509,0.675,32.5,-85.88,49.53,1,5
16806.515,-0.14,0.516,0.673,35.31,-75.81,54.72,1,5
16806.531,-0.121,0.532,0.681,37.63,-65.07,59.85,1,5
16806.546,-0.125,0.536,0.707,38.0,-55.97,63.72,1,5
16806.562,-0.139,0.533,0.732,36.56,-50.29,66.44,1,5
16806.562,-0.156,0.551,0.765,30.92,-53.35,70.65,1,5
16806.578,-0.16,0.568,0.801,27.89,-60.98,72.45,1,5
16806.578,-0.133,0.579,0.812,26.37,-67.23,74.34,1,5
16806.593,-0.08,0.575,0.784,26.83,-69.03,77.06,1,5
16806.609,0.024,0.563,0.706,27.86,-66.19,79.68,1,5
16806.609,0.044,0.561,0.69,27.41,-60.24,81.88,1,5
16806.625,0.032,0.548,0.702,23.65,-53.19,83.74,1,5
16806.64,0.017,0.522,0.735,17.98,-48.19,84.81,1,5
16806.64,0.014,0.502,0.759,14.25,-45.44,85.06,1,5
16806.656,0.019,0.487,0.77,12.67,-44.1,83.86,1,5
16806.656,0.025,0.475,0.773,12.82,-43.55,80.84,1,5
16806.671,0.025,0.472,0.768,14.28,-43.18,76.39,1,5
16806.687,0.042,0.459,0.753,16.02,-43.95,70.89,1,5
16806.687,0.068,0.454,0.737,18.04,-44.04,64.79,1,5
16806.703,0.081,0.457,0.719,21.36,-42.91,58.47,1,5
16806.718,0.102,0.457,0.693,24.66,-40.68,52.64,1,5
16806.718,0.131,0.469,0.667,26.31,-36.56,47.61,1,5
16806.734,0.15,0.483,0.649,26.83,-30.4,43.15,1,5
16806.75,0.144,0.488,0.63,26.52,-22.86,39.89,1,5
16806.75,0.126,0.482,0.614,25.36,-15.53,37.69,1,5
16806.765,0.101,0.476,0.62,23.83,-9.89,36.32,1,5
16806.765,0.087,0.479,0.643,21.15,-6.9,35.37,1,5
16806.781,0.068,0.476,0.668,19.17,-6.38,33.88,1,5
16806.796,0.058,0.484,0.688,18.01,-8.21,32.72,1,5
16806.812,0.077,0.508,0.696,17.15,-11.35,31.77,1,5
16806.812,0.107,0.523,0.688,16.85,-13.58,30.73,1,5
16806.828,0.149,0.545,0.677,16.66,-12.18,30.0,1,5
16806.828,0.186,0.579,0.666,16.97,-6.65,30.03,1,5
16806.859,0.222,0.617,0.661,16.51,2.53,30.79,1,5
16806.859,0.245,0.632,0.663,14.98,14.25,31.8,1,5
16806.859,0.243,0.62,0.658,14.01,28.2,32.99,1,5
16806.875,0.199,0.626,0.673,11.75,42.09,34.27,1,5
16806.89,0.118,0.625,0.742,8.67,49.68,34.58,1,5
16806.89,0.044,0.598,0.81,7.2,46.63,34.82,1,5
16806.906,0.028,0.589,0.862,3.81,33.75,35.52,1,5
16806.906,0.064,0.578,0.868,0.03,16.91,35.1,1,5
16806.921,0.123,0.56,0.832,-2.69,3.2,32.75,1,5
16806.937,0.183,0.541,0.793,-3.78,-3.6,28.84,1,5
16806.937,0.231,0.534,0.754,-1.5,-2.32,25.03,1,5
16806.953,0.257,0.528,0.714,3.2,5.4,22.1,1,5
16806.968,0.267,0.52,0.675,7.17,16.85,19.65,1,5
16806.968,0.256,0.507,0.629,9.55,31.01,17.7,1,5
16806.984,0.227,0.503,0.6,10.04,45.84,15.56,1,5
16807.0,0.186,0.504,0.621,8.36,58.08,12.48,1,5
16807.0,0.137,0.502,0.673,1.65,63.51,7.93,1,5
16807.015,0.102,0.51,0.714,-10.25,61.4,2.56,1,5
16807.015,0.078,0.489,0.759,-20.36,55.15,-2.53,1,5
16807.031,0.058,0.466,0.822,-25.85,47.24,-6.9,1,5
16807.046,0.05,0.459,0.858,-23.07,39.0,-8.94,1,5
16807.046,0.068,0.469,0.84,-14.68,32.41,-8.73,1,5
16807.062,0.099,0.485,0.806,-7.69,29.57,-8.24,1,5
16807.078,0.11,0.492,0.772,-4.55,30.85,-9.13,1,5
16807.093,0.11,0.508,0.768,-7.72,33.94,-11.57,1,5
16807.093,0.103,0.528,0.771,-16.08,35.58,-15.69,1,5
16807.109,0.09,0.528,0.776,-25.27,35.31,-20.39,1,5
16807.109,0.073,0.546,0.813,-34.39,33.94,-24.29,1,5
16807.125,0.068,0.552,0.84,-37.69,31.13,-25.61,1,5
16807.14,0.07,0.533,0.849,-33.94,28.84,-25.15,1,5
16807.14,0.057,0.539,0.869,-26.92,27.44,-23.26,1,5
16807.156,0.04,0.545,0.86,-16.33,25.57,-19.41,1,5
16807.171,0.041,0.547,0.832,-5.68,24.26,-14.25,1,5
16807.171,0.047,0.562,0.814,-0.7,23.65,-10.16,1,5
16807.187,0.054,0.565,0.791,-1.4,22.89,-8.09,1,5
16807.187,0.059,0.56,0.763,-6.1,23.26,-8.0,1,5
16807.203,0.053,0.581,0.761,-14.07,25.33,-8.55,1,5
16807.218,0.035,0.58,0.79,-23.59,26.55,-9.25,1,5
16807.218,0.022,0.567,0.825,-32.84,24.26,-10.47,1,5
16807.234,0.027,0.55,0.839,-38.79,20.75,-11.63,1,5
16807.25,0.034,0.525,0.836,-39.86,17.79,-12.85,1,5
16807.25,0.046,0.503,0.823,-36.26,16.54,-14.01,1,5
16807.265,0.057,0.495,0.814,-30.4,17.37,-15.9,1,5
16807.281,0.045,0.502,0.835,-22.83,19.17,-17.88,1,5
16807.281,0.02,0.505,0.858,-12.15,20.29,-17.82,1,5
16807.296,0.012,0.529,0.86,-1.56,20.75,-15.11,1,5
16807.312,0.004,0.572,0.862,3.78,20.63,-11.78,1,5
16807.312,-0.002,0.589,0.862,2.75,18.95,-9.74,1,5
16807.328,-0.003,0.585,0.861,-2.47,16.54,-8.06,1,5
16807.328,0.002,0.573,0.857,-8.61,14.22,-6.59,1,5
16807.343,0.008,0.556,0.853,-13.12,12.36,-5.43,1,5
16807.359,0.004,0.542,0.856,-14.74,11.35,-4.67,1,5
16807.359,-0.006,0.532,0.864,-14.31,9.89,-4.58,1,5
16807.375,-0.005,0.525,0.878,-13.09,7.2,-4.85,1,5
16807.375,-0.002,0.526,0.886,-10.83,4.27,-5.43,1,5
16807.39,0.001,0.525,0.882,-8.03,2.14,-6.04,1,5
16807.406,0.008,0.521,0.873,-5.62,1.31,-6.53,1,5
16807.421,0.017,0.523,0.867,-4.36,1.31,-7.2,1,5
16807.421,0.028,0.517,0.86,-3.45,1.71,-8.12,1,5
16807.437,0.03,0.511,0.853,-2.32,2.93,-9.03,1,5
16807.437,0.031,0.505,0.845,-1.71,4.85,-10.22,1,5
16807.453,0.029,0.499,0.845,-1.13,6.44,-11.9,1,5
16807.468,0.019,0.49,0.853,0.76,7.9,-13.06,1,5
16807.468,0.011,0.494,0.858,3.63,8.55,-13.46,1,5
16807.484,-0.001,0.513,0.871,5.62,7.72,-13.4,1,5
16807.5,-0.016,0.575,0.885,5.16,5.65,-11.23,1,5
16807.5,0.001,0.594,0.888,1.19,1.92,-7.9,1,5
16807.515,0.011,0.577,0.879,-4.27,-1.86,-5.01,1,5
16807.515,0.023,0.567,0.866,-7.84,-3.51,-2.11,1,5
16807.531,0.033,0.557,0.856,-8.48,-3.33,0.43,1,5
16807.546,0.034,0.546,0.857,-7.69,-2.41,2.44,1,5
16807.562,0.031,0.548,0.868,-6.56,-2.01,2.41,1,5
16807.562,0.024,0.543,0.875,-4.43,-2.47,2.26,1,5
16807.578,0.021,0.538,0.869,-2.04,-2.93,2.17,1,5
16807.578,0.031,0.525,0.856,0.18,-3.17,1.77,1,5
16807.593,0.026,0.521,0.862,1.59,-3.57,1.19,1,5
16807.609,0.025,0.525,0.865,1.1,-5.4,0.37,1,5
16807.609,0.036,0.524,0.859,-0.55,-7.93,-0.24,1,5
16807.625,0.04,0.521,0.854,-1.5,-8.21,-0.34,1,5
16807.64,0.039,0.519,0.85,-2.01,-7.14,0.15,1,5
16807.64,0.037,0.511,0.846,-2.08,-5.92,0.52,1,5
16807.656,0.027,0.51,0.845,-1.86,-4.52,0.24,1,5
16807.656,0.023,0.507,0.841,-1.65,-4.33,-0.49,1,5
16807.671,0.025,0.5,0.837,-0.79,-4.33,-1.1,1,5
