timestamp,ax,ay,az,gx,gy,gz,orient_label,motion_label
16865.031,0.907,-0.055,0.398,2.62,-1.5,-1.92,1,5
16865.031,0.917,-0.048,0.387,2.23,-2.29,-1.22,1,5
16865.046,0.917,-0.047,0.378,0.7,-2.29,0.09,1,5
16865.046,0.92,-0.051,0.376,-0.95,-2.01,1.1,1,5
16865.062,0.913,-0.057,0.377,-1.37,-1.5,1.56,1,5
16865.078,0.911,-0.06,0.369,-0.85,-1.19,1.65,1,5
16865.078,0.925,-0.067,0.364,-0.03,-0.64,1.46,1,5
16865.093,0.932,-0.066,0.366,0.0,0.61,1.16,1,5
16865.109,0.927,-0.07,0.377,-0.4,1.71,1.04,1,5
16865.109,0.924,-0.073,0.386,-0.18,2.01,0.4,1,5
16865.125,0.909,-0.069,0.397,0.24,1.65,-0.46,1,5
16865.14,0.91,-0.063,0.408,0.67,0.18,-0.95,1,5
16865.14,0.925,-0.061,0.403,1.22,-1.77,-1.22,1,5
16865.156,0.939,-0.059,0.384,1.46,-2.56,-1.37,1,5
16865.156,0.931,-0.061,0.378,1.59,-1.95,-1.74,1,5
16865.171,0.918,-0.064,0.38,1.59,-1.37,-1.89,1,5
16865.187,0.914,-0.062,0.384,1.07,-1.16,-1.77,1,5
16865.203,0.929,-0.056,0.379,1.4,-1.28,-2.41,1,5
16865.218,0.929,-0.045,0.382,1.68,-0.58,-2.2,1,5
16865.218,0.922,-0.039,0.385,1.5,-0.06,-1.56,1,5
16865.234,0.919,-0.036,0.387,0.55,0.09,-0.31,1,5
16865.25,0.918,-0.04,0.387,-0.58,0.0,1.19,1,5
16865.25,0.912,-0.045,0.392,-1.46,0.06,2.5,1,5
16865.265,0.908,-0.051,0.394,-2.11,-0.46,3.48,1,5
16865.265,0.914,-0.059,0.385,-2.01,-1.25,3.45,1,5
16865.281,0.916,-0.065,0.375,-1.34,-1.5,2.59,1,5
16865.296,0.914,-0.067,0.369,-0.4,-0.85,1.86,1,5
16865.296,0.916,-0.063,0.37,0.49,0.15,1.25,1,5
16865.312,0.916,-0.063,0.372,0.89,1.25,1.1,1,5
16865.328,0.911,-0.064,0.378,0.58,2.01,1.13,1,5
16865.328,0.904,-0.064,0.396,0.03,1.74,0.76,1,5
16865.343,0.903,-0.068,0.404,-0.06,0.37,0.64,1,5
16865.359,0.913,-0.07,0.396,0.61,-1.13,0.43,1,5
16865.375,0.917,-0.066,0.379,1.43,-1.77,-0.82,1,5
16865.39,0.912,-0.066,0.377,1.68,-1.28,-1.1,1,5
16865.39,0.911,-0.061,0.372,1.83,-0.58,-0.89,1,5
16865.406,0.921,-0.06,0.37,1.83,-0.09,-0.82,1,5
16865.406,0.921,-0.059,0.371,1.95,0.61,-0.79,1,5
16865.421,0.911,-0.058,0.372,2.04,1.25,-0.4,1,5
16865.437,0.904,-0.056,0.377,1.37,1.56,0.4,1,5
16865.437,0.902,-0.059,0.38,0.31,1.31,1.01,1,5
16865.453,0.903,-0.061,0.381,-0.24,1.4,1.92,1,5
16865.468,0.903,-0.061,0.382,-0.7,1.4,2.5,1,5
16865.484,0.909,-0.063,0.384,-0.82,1.22,2.53,1,5
16865.484,0.907,-0.064,0.385,0.12,1.43,1.98,1,5
16865.5,0.904,-0.066,0.386,1.71,1.59,1.31,1,5
16865.5,0.902,-0.065,0.382,3.2,1.56,0.61,1,5
16865.515,0.9,-0.065,0.381,4.43,1.68,-0.03,1,5
16865.531,0.896,-0.064,0.385,5.52,1.8,-0.55,1,5
16865.531,0.889,-0.06,0.389,5.83,1.46,-0.4,1,5
16865.546,0.886,-0.063,0.388,5.58,0.92,-0.31,1,5
16865.562,0.887,-0.068,0.389,6.65,0.37,-0.21,1,5
16865.562,0.891,-0.072,0.385,8.67,-0.27,-0.73,1,5
16865.578,0.896,-0.076,0.381,11.29,-0.61,-2.35,1,5
16865.578,0.89,-0.088,0.38,20.36,-0.67,-8.73,1,5
16865.593,0.883,-0.095,0.377,25.48,-0.64,-12.88,1,5
16865.609,0.882,-0.093,0.37,30.06,-0.79,-17.46,1,5
16865.625,0.871,-0.089,0.375,35.58,-1.16,-22.74,1,5
16865.625,0.863,-0.089,0.374,43.18,-1.62,-28.57,1,5
16865.64,0.856,-0.084,0.365,53.25,-2.96,-35.25,1,5
16865.64,0.845,-0.084,0.357,64.24,-3.45,-42.15,1,5
16865.656,0.831,-0.079,0.348,74.47,-2.14,-48.77,1,5
16865.656,0.818,-0.071,0.352,83.16,-0.03,-55.39,1,5
16865.671,0.774,-0.046,0.376,89.85,2.32,-61.59,1,5
16865.687,0.748,-0.025,0.415,92.96,1.37,-66.38,1,5
16865.687,0.734,-0.007,0.45,94.79,-2.04,-69.8,1,5
16865.718,0.717,0.007,0.476,103.24,-15.47,-76.3,1,5
16865.718,0.729,0.02,0.43,111.58,-21.55,-79.9,1,5
16865.734,0.735,0.039,0.392,120.27,-24.32,-83.71,1,5
16865.75,0.74,0.057,0.349,127.29,-23.96,-87.22,1,5
16865.75,0.726,0.087,0.312,130.31,-21.03,-89.82,1,5
16865.765,0.715,0.108,0.287,128.12,-16.79,-91.8,1,5
16865.781,0.697,0.124,0.276,124.7,-11.69,-93.05,1,5
16865.781,0.69,0.147,0.268,122.96,-7.48,-93.91,1,5
16865.796,0.705,0.192,0.271,121.8,-3.88,-93.84,1,5
16865.796,0.679,0.24,0.293,120.15,0.4,-92.93,1,5
16865.812,0.641,0.283,0.322,117.98,2.81,-91.04,1,5
16865.828,0.616,0.31,0.342,116.82,2.93,-88.26,1,5
16865.828,0.612,0.311,0.342,115.48,1.92,-83.86,1,5
16865.843,0.599,0.325,0.325,111.03,0.79,-78.59,1,5
16865.859,0.593,0.345,0.297,104.01,0.98,-71.84,1,5
16865.859,0.592,0.341,0.257,95.95,2.14,-65.89,1,5
16865.89,0.613,0.374,0.211,79.93,8.3,-55.91,1,5
16865.89,0.611,0.388,0.208,74.34,13.15,-53.5,1,5
16865.906,0.603,0.401,0.216,71.26,18.89,-52.89,1,5
16865.906,0.593,0.405,0.217,70.83,23.93,-52.58,1,5
16865.921,0.595,0.415,0.229,71.66,29.27,-51.39,1,5
16865.937,0.582,0.434,0.264,72.36,35.49,-49.41,1,5
16865.937,0.562,0.444,0.294,71.35,40.68,-46.69,1,5
16865.953,0.545,0.44,0.313,69.12,43.52,-44.37,1,5
16865.968,0.538,0.436,0.318,65.89,42.6,-42.54,1,5
16865.984,0.546,0.433,0.297,62.99,37.93,-42.02,1,5
16865.984,0.573,0.44,0.264,61.22,33.14,-43.24,1,5
16866.0,0.604,0.452,0.245,59.6,32.47,-45.56,1,5
16866.0,0.609,0.477,0.247,57.44,37.2,-49.32,1,5
16866.015,0.587,0.492,0.268,54.08,44.98,-54.17,1,5
16866.031,0.555,0.484,0.285,51.09,51.45,-57.95,1,5
16866.031,0.532,0.49,0.3,50.66,53.25,-59.72,1,5
16866.062,0.53,0.523,0.242,49.35,48.01,-58.72,1,5
16866.062,0.543,0.548,0.236,41.44,45.59,-57.44,1,5
16866.078,0.559,0.57,0.268,30.15,44.53,-56.79,1,5
16866.078,0.56,0.562,0.286,19.38,43.79,-58.69,1,5
16866.093,0.553,0.539,0.293,12.21,42.33,-62.17,1,5
16866.109,0.559,0.531,0.287,10.13,40.47,-65.92,1,5
16866.109,0.562,0.545,0.244,11.17,35.68,-70.68,1,5
16866.125,0.595,0.576,0.183,12.42,30.09,-75.75,1,5
16866.14,0.622,0.613,0.146,11.2,28.87,-79.78,1,5
16866.14,0.64,0.632,0.128,7.84,32.59,-82.83,1,5
16866.156,0.637,0.656,0.132,3.75,41.41,-84.96,1,5
16866.171,0.613,0.652,0.142,-1.22,54.17,-86.09,1,5
16866.171,0.56,0.641,0.163,-5.62,66.99,-85.54,1,5
16866.187,0.502,0.659,0.196,-10.25,74.13,-84.11,1,5
16866.187,0.475,0.681,0.212,-14.47,71.35,-84.93,1,5
16866.203,0.474,0.704,0.222,-17.73,63.57,-87.68,1,5
16866.218,0.491,0.728,0.237,-18.56,57.74,-90.98,1,5
16866.234,0.513,0.745,0.249,-16.17,57.01,-94.39,1,5
16866.234,0.516,0.761,0.268,-11.75,60.76,-96.99,1,5
16866.25,0.503,0.773,0.285,-7.2,67.57,-96.56,1,5
16866.25,0.485,0.788,0.297,-6.07,73.98,-92.84,1,5
16866.265,0.461,0.805,0.291,-9.98,75.99,-87.53,1,5
16866.281,0.447,0.823,0.279,-17.76,73.7,-82.46,1,5
16866.281,0.451,0.835,0.284,-27.16,70.59,-78.95,1,5
16866.296,0.463,0.846,0.309,-34.61,69.46,-77.88,1,5
16866.312,0.463,0.85,0.345,-36.29,71.57,-78.98,1,5
16866.312,0.445,0.852,0.381,-31.37,76.33,-80.2,1,5
16866.328,0.416,0.879,0.424,-24.35,81.45,-79.68,1,5
16866.328,0.388,0.904,0.45,-19.5,84.26,-77.15,1,5
16866.343,0.376,0.924,0.457,-19.29,83.41,-72.39,1,5
16866.359,0.374,0.958,0.462,-23.96,81.39,-66.47,1,5
16866.359,0.377,0.982,0.485,-31.62,80.05,-61.86,1,5
16866.375,0.38,0.988,0.517,-39.28,79.71,-58.08,1,5
16866.39,0.379,0.996,0.551,-44.53,79.65,-54.99,1,5
16866.39,0.384,1.006,0.604,-45.59,79.84,-53.04,1,5
16866.406,0.391,1.016,0.657,-41.47,80.57,-51.94,1,5
16866.406,0.385,1.039,0.704,-34.36,81.21,-50.94,1,5
16866.421,0.361,1.06,0.748,-26.83,80.02,-50.26,1,5
16866.437,0.333,1.076,0.772,-20.33,74.53,-48.89,1,5
16866.437,0.32,1.086,0.769,-16.79,64.88,-45.72,1,5
16866.453,0.328,1.096,0.742,-17.46,54.08,-40.89,1,5
16866.468,0.358,1.099,0.722,-22.43,45.59,-35.46,1,5
16866.484,0.393,1.095,0.709,-28.69,41.75,-29.94,1,5
16866.484,0.409,1.09,0.712,-33.05,43.09,-24.72,1,5
16866.5,0.416,1.077,0.73,-34.15,47.18,-19.65,1,5
16866.5,0.408,1.063,0.76,-32.23,51.61,-14.71,1,5
16866.515,0.395,1.052,0.79,-28.69,54.57,-10.25,1,5
16866.531,0.371,1.033,0.802,-23.83,54.9,-6.59,1,5
16866.531,0.345,1.015,0.808,-18.68,52.8,-2.47,1,5
16866.546,0.315,0.999,0.805,-15.26,48.83,1.92,1,5
16866.562,0.299,0.985,0.797,-15.41,41.93,5.92,1,5
16866.562,0.296,0.959,0.78,-21.88,25.76,11.51,1,5
16866.578,0.301,0.912,0.755,-24.05,20.66,14.98,1,5
16866.578,0.323,0.872,0.732,-23.99,19.38,18.34,1,5
16866.593,0.344,0.846,0.71,-22.83,20.97,21.03,1,5
16866.609,0.349,0.813,0.686,-22.25,23.65,22.71,1,5
16866.609,0.343,0.811,0.693,-22.03,26.03,23.29,1,5
16866.625,0.329,0.805,0.7,-21.36,27.92,23.19,1,5
16866.64,0.312,0.803,0.715,-20.36,28.69,22.86,1,5
16866.64,0.289,0.818,0.745,-18.49,28.41,22.55,1,5
16866.656,0.267,0.828,0.768,-16.21,26.49,22.98,1,5
16866.656,0.266,0.827,0.777,-15.9,22.28,24.05,1,5
16866.671,0.274,0.832,0.783,-17.94,17.7,24.75,1,5
16866.687,0.285,0.825,0.788,-21.39,13.52,24.48,1,5
16866.687,0.286,0.797,0.79,-24.05,9.95,23.16,1,5
16866.703,0.287,0.774,0.788,-24.11,7.51,21.58,1,5
16866.734,0.287,0.763,0.771,-18.4,5.86,15.35,1,5
16866.734,0.277,0.756,0.764,-15.5,6.01,10.62,1,5
16866.75,0.268,0.751,0.76,-12.51,6.62,6.41,1,5
16866.75,0.255,0.752,0.755,-9.58,7.69,2.38,1,5
16866.765,0.24,0.754,0.744,-6.9,8.61,-1.46,1,5
16866.781,0.22,0.754,0.733,-5.04,9.28,-4.67,1,5
16866.781,0.204,0.76,0.732,-3.51,9.8,-7.02,1,5
16866.796,0.168,0.781,0.743,-1.56,9.92,-8.3,1,5
16866.796,0.141,0.79,0.741,0.4,7.97,-7.26,1,5
16866.812,0.135,0.803,0.73,-0.31,5.22,-4.33,1,5
16866.828,0.132,0.802,0.714,-2.53,2.96,-1.43,1,5
16866.828,0.138,0.789,0.693,-5.46,1.65,0.64,1,5
16866.843,0.136,0.773,0.676,-7.87,2.38,1.74,1,5
16866.859,0.136,0.759,0.666,-8.94,4.43,2.04,1,5
16866.859,0.137,0.759,0.66,-8.67,7.48,1.37,1,5
16866.875,0.128,0.759,0.654,-7.81,10.71,-0.03,1,5
16866.875,0.115,0.761,0.653,-7.32,13.46,-1.22,1,5
16866.89,0.093,0.767,0.668,-6.44,15.38,-1.53,1,5
16866.906,0.071,0.767,0.674,-4.09,16.21,-0.21,1,5
16866.921,0.051,0.775,0.669,-2.72,16.05,2.93,1,5
16866.921,0.042,0.777,0.665,-5.07,14.47,6.62,1,5
16866.937,0.044,0.764,0.661,-10.32,11.81,9.86,1,5
16866.953,0.051,0.735,0.659,-15.72,9.64,12.24,1,5
16866.953,0.065,0.709,0.652,-19.47,8.51,14.1,1,5
16866.968,0.078,0.69,0.648,-21.45,9.25,14.92,1,5
16866.968,0.086,0.662,0.647,-21.55,11.51,14.1,1,5
16866.984,0.09,0.643,0.656,-19.71,14.28,11.84,1,5
16867.0,0.081,0.631,0.667,-16.05,17.06,8.21,1,5
16867.0,0.058,0.622,0.686,-10.68,18.74,4.3,1,5
16867.015,0.042,0.625,0.701,-4.21,18.4,1.28,1,5
16867.031,0.036,0.643,0.697,1.25,16.94,-0.7,1,5
16867.031,0.034,0.672,0.69,3.45,14.53,-2.04,1,5
16867.046,0.042,0.695,0.682,1.13,11.69,-2.87,1,5
16867.046,0.054,0.71,0.681,-3.63,9.83,-3.05,1,5
16867.062,0.054,0.706,0.681,-7.69,9.43,-2.38,1,5
16867.078,0.059,0.703,0.689,-9.89,9.83,-1.07,1,5
16867.078,0.06,0.699,0.696,-9.67,11.02,-0.73,1,5
16867.093,0.056,0.685,0.695,-7.39,12.05,-1.43,1,5
16867.109,0.051,0.677,0.695,-4.58,12.33,-2.35,1,5
16867.109,0.042,0.678,0.704,-1.74,11.75,-3.72,1,5
16867.125,0.029,0.681,0.712,0.82,9.92,-4.82,1,5
16867.14,0.03,0.689,0.71,1.89,6.65,-5.31,1,5
16867.14,0.042,0.7,0.702,1.5,3.23,-5.65,1,5
16867.156,0.054,0.708,0.695,0.52,1.19,-5.4,1,5
16867.156,0.068,0.711,0.683,-0.73,0.67,-4.73,1,5
16867.171,0.075,0.713,0.682,-1.71,1.98,-3.88,1,5
16867.187,0.074,0.716,0.685,-2.35,4.12,-2.99,1,5
16867.187,0.069,0.716,0.695,-2.78,5.8,-2.04,1,5
16867.203,0.063,0.717,0.708,-3.75,6.65,-1.07,1,5
16867.218,0.057,0.719,0.723,-4.79,6.41,-0.64,1,5
16867.218,0.054,0.709,0.732,-5.07,4.82,-0.46,1,5
16867.234,0.062,0.697,0.731,-4.82,2.72,-0.12,1,5
16867.25,0.07,0.691,0.725,-3.94,1.07,0.15,1,5
16867.25,0.079,0.69,0.718,-3.85,-0.4,-0.03,1,5
16867.265,0.091,0.679,0.705,-4.18,-1.1,-0.49,1,5
16867.281,0.1,0.672,0.701,-4.33,-0.31,-0.55,1,5
16867.281,0.101,0.672,0.705,-4.15,1.28,-0.43,1,5
16867.296,0.101,0.67,0.709,-4.43,2.69,-0.37,1,5
16867.296,0.097,0.67,0.721,-5.16,3.45,-0.58,1,5
16867.312,0.089,0.674,0.734,-5.83,3.2,-0.95,1,5
16867.328,0.08,0.681,0.745,-7.02,1.71,-1.25,1,5
16867.328,0.079,0.685,0.754,-8.06,-0.92,-1.31,1,5
16867.343,0.087,0.686,0.756,-8.73,-3.6,-1.04,1,5
16867.359,0.096,0.682,0.75,-9.52,-5.62,-0.89,1,5
16867.359,0.108,0.673,0.745,-10.5,-6.96,-0.85,1,5
16867.375,0.117,0.664,0.738,-11.41,-7.23,-1.07,1,5
16867.375,0.126,0.655,0.731,-11.66,-6.29,-1.5,1,5
16867.39,0.135,0.645,0.724,-10.5,-3.81,-1.74,1,5
16867.406,0.138,0.641,0.722,-8.76,-0.18,-2.2,1,5
16867.421,0.134,0.641,0.725,-6.74,3.78,-3.02,1,5
16867.421,0.11,0.647,0.738,-5.16,7.2,-4.21,1,5
16867.437,0.07,0.66,0.757,-5.71,7.69,-5.04,1,5
16867.437,0.048,0.678,0.778,-8.27,4.46,-4.82,1,5
16867.453,0.046,0.695,0.78,-11.17,-0.58,-3.81,1,5
16867.468,0.058,0.693,0.766,-14.74,-5.46,-2.78,1,5
16867.468,0.077,0.683,0.754,-18.46,-8.51,-2.17,1,5
16867.484,0.086,0.679,0.746,-19.2,-8.24,-1.71,1,5
16867.5,0.082,0.684,0.746,-18.07,-6.16,-0.85,1,5
16867.5,0.089,0.661,0.762,-18.34,-5.13,-0.55,1,5
16867.515,0.076,0.667,0.777,-19.71,-5.68,-1.22,1,5
16867.531,0.068,0.641,0.77,-14.95,-5.83,-0.34,1,5
16867.531,0.072,0.63,0.764,-12.39,-7.35,-1.04,1,5
16867.546,0.083,0.619,0.773,-11.44,-11.05,-6.41,1,5
16867.546,0.091,0.607,0.77,-7.93,-11.08,-8.15,1,5
16867.578,0.098,0.595,0.754,-4.24,-9.0,-9.28,1,5
16867.593,0.102,0.6,0.742,-2.32,-6.68,-10.38,1,5
16867.593,0.091,0.623,0.737,-2.72,-5.52,-11.44,1,5
16867.593,0.09,0.626,0.731,-4.12,-4.46,-12.3,1,5
16867.609,0.087,0.626,0.729,-4.49,-2.78,-12.3,1,5
16867.609,0.086,0.639,0.735,-3.91,-0.61,-11.05,1,5
16867.625,0.078,0.654,0.736,-2.04,1.89,-9.4,1,5
16867.64,0.072,0.665,0.74,-0.76,3.51,-7.35,1,5
16867.64,0.068,0.677,0.74,-0.37,4.09,-5.43,1,5
16867.656,0.059,0.688,0.747,-0.52,4.21,-3.81,1,5
16867.656,0.054,0.69,0.76,-1.77,2.99,-2.2,1,5
16867.671,0.054,0.688,0.77,-2.69,0.64,-0.52,1,5
16867.687,0.061,0.684,0.766,-3.81,-1.74,0.64,1,5
16867.687,0.073,0.659,0.773,-6.93,-4.43,-0.27,1,5
16867.703,0.084,0.642,0.782,-9.98,-6.96,-2.14,1,5
16867.718,0.098,0.615,0.767,-6.9,-7.35,-2.32,1,5
16867.718,0.108,0.614,0.757,-3.02,-6.47,-2.5,1,5
16867.734,0.114,0.616,0.748,0.7,-4.49,-2.78,1,5
16867.75,0.111,0.634,0.736,3.91,-1.1,-2.9,1,5
16867.765,0.105,0.634,0.731,3.02,0.0,-2.78,1,5
16867.765,0.096,0.636,0.74,1.46,1.22,-2.56,1,5
16867.781,0.086,0.639,0.745,0.64,1.77,-2.01,1,5
16867.796,0.08,0.633,0.743,0.24,1.43,-1.37,1,5
16867.796,0.076,0.632,0.74,-0.49,1.28,-0.95,1,5
16867.812,0.075,0.626,0.732,-1.04,1.22,-0.58,1,5
16867.828,0.08,0.619,0.727,-1.34,1.34,-0.24,1,5
16867.843,0.082,0.618,0.721,-2.11,2.04,-0.46,1,5
16867.843,0.081,0.615,0.72,-2.99,2.69,-1.28,1,5
16867.859,0.081,0.611,0.72,-3.36,3.2,-1.86,1,5
16867.859,0.084,0.612,0.714,-2.66,4.3,-1.95,1,5
16867.875,0.078,0.614,0.71,-2.35,6.13,-2.69,1,5
16867.89,0.074,0.62,0.71,-3.81,7.84,-3.6,1,5
16867.89,0.067,0.629,0.715,-6.9,9.61,-4.09,1,5
16867.906,0.057,0.631,0.725,-11.57,10.9,-4.58,1,5
16867.921,0.046,0.64,0.751,-21.12,11.87,-4.82,1,5
16867.937,0.043,0.639,0.758,-24.17,11.75,-5.13,1,5
16867.937,0.111,0.616,0.716,-23.32,12.73,-5.46,1,5
16867.953,0.051,0.552,0.714,-16.57,19.32,-10.83,1,5
16867.968,-0.084,0.715,0.811,-22.25,18.25,-15.05,1,5
16867.968,-0.033,0.67,0.86,-23.13,8.15,-5.89,1,5
16867.984,0.003,0.67,0.823,-12.51,2.41,1.83,1,5
16868.0,0.042,0.704,0.801,-7.72,0.61,7.75,1,5
16868.015,0.049,0.671,0.805,-5.74,0.76,9.61,1,5
16868.015,0.042,0.65,0.823,-4.24,0.37,9.83,1,5
16868.015,0.041,0.63,0.825,-1.31,-1.92,9.64,1,5
16868.031,0.033,0.625,0.83,1.62,-4.82,9.0,1,5
16868.046,0.045,0.613,0.832,4.73,-8.33,8.85,1,5
16868.062,0.053,0.608,0.816,8.45,-11.11,9.06,1,5
16868.062,0.065,0.609,0.802,11.35,-12.91,9.09,1,5
16868.078,0.059,0.609,0.8,12.7,-14.28,8.67,1,5
16868.093,0.165,0.596,0.717,10.47,-18.71,10.53,1,5
16868.109,0.098,0.547,0.697,12.33,-11.57,5.89,1,5
16868.109,0.101,0.617,0.733,7.48,-8.85,3.88,1,5
16868.125,0.09,0.6,0.738,7.57,-7.87,1.83,1,5
16868.14,0.074,0.6,0.743,6.99,-7.26,0.98,1,5
16868.14,0.09,0.607,0.745,5.65,-7.84,1.22,1,5
16868.156,0.088,0.613,0.775,2.41,-8.79,0.24,1,5
16868.171,0.087,0.62,0.772,2.84,-9.4,1.22,1,5
16868.171,0.091,0.608,0.756,5.68,-9.37,2.59,1,5
16868.187,0.098,0.623,0.755,5.22,-9.09,2.99,1,5
16868.203,0.107,0.627,0.75,5.04,-8.42,2.9,1,5
16868.203,0.115,0.624,0.744,4.73,-7.02,2.29,1,5
16868.218,0.113,0.623,0.739,4.12,-4.85,1.65,1,5
16868.218,0.109,0.624,0.737,3.3,-2.78,0.76,1,5
16868.234,0.1,0.623,0.742,2.69,-1.04,-0.31,1,5
16868.25,0.095,0.625,0.749,2.23,-0.34,-1.5,1,5
16868.25,0.091,0.63,0.755,2.35,0.15,-2.44,1,5
16868.265,0.086,0.634,0.759,3.51,0.92,-2.9,1,5
16868.281,0.073,0.637,0.766,5.1,1.31,-2.75,1,5
16868.281,0.067,0.646,0.771,5.58,0.61,-2.01,1,5
16868.296,0.069,0.655,0.772,4.88,-1.13,-1.13,1,5
16868.296,0.074,0.656,0.765,3.63,-2.72,-0.15,1,5
16868.312,0.083,0.654,0.757,2.2,-3.45,1.13,1,5
16868.328,0.093,0.651,0.75,1.01,-2.84,2.59,1,5
16868.328,0.097,0.645,0.747,-0.06,-1.16,3.88,1,5
16868.343,0.096,0.635,0.742,-1.4,1.07,4.64,1,5
16868.359,0.089,0.624,0.747,-2.59,2.78,5.01,1,5
16868.359,0.083,0.616,0.754,-3.2,3.75,4.94,1,5
16868.375,0.078,0.609,0.759,-3.02,3.81,4.61,1,5
16868.39,0.075,0.608,0.763,-2.5,2.93,4.15,1,5
16868.39,0.08,0.609,0.767,-2.04,1.43,3.69,1,5
16868.406,0.08,0.61,0.764,-1.16,0.52,3.2,1,5
16868.406,0.084,0.609,0.759,-0.46,0.24,3.11,1,5
16868.421,0.088,0.613,0.757,-0.55,0.46,3.14,1,5
16868.437,0.087,0.611,0.76,-0.82,0.82,3.08,1,5
16868.437,0.084,0.609,0.761,-1.37,0.79,2.62,1,5
16868.453,0.085,0.606,0.767,-1.71,0.03,2.2,1,5
16868.468,0.083,0.611,0.772,-1.5,-0.76,1.86,1,5
16868.468,0.081,0.616,0.771,-1.01,-2.01,1.5,1,5
16868.484,0.086,0.62,0.772,-1.04,-3.51,1.19,1,5
16868.5,0.087,0.624,0.77,-0.73,-4.55,1.13,1,5
16868.5,0.08,0.628,0.769,-0.64,-5.34,1.13,1,5
16868.515,0.085,0.63,0.765,-1.22,-6.59,1.34,1,5
16868.515,0.094,0.628,0.757,-1.13,-7.29,1.46,1,5
16868.531,0.094,0.623,0.751,-0.95,-7.05,1.4,1,5
16868.546,0.091,0.623,0.752,-1.65,-7.39,1.22,1,5
16868.546,0.089,0.63,0.757,-2.32,-8.36,1.01,1,5
16868.562,0.07,0.635,0.772,-3.72,-10.07,0.85,1,5
16868.578,0.069,0.632,0.786,-5.31,-13.25,0.76,1,5
16868.578,0.08,0.629,0.778,-5.95,-17.15,0.49,1,5
16868.593,0.101,0.619,0.748,-5.77,-19.2,0.09,1,5
16868.609,0.172,0.573,0.679,-9.74,-13.82,-2.62,1,5
16868.625,0.229,0.563,0.578,-11.6,-2.23,-5.68,1,5
16868.64,0.259,0.548,0.538,-10.56,17.58,-10.04,1,5
16868.64,0.214,0.534,0.567,-2.87,41.51,-14.92,1,5
16868.656,0.09,0.532,0.565,7.97,62.44,-20.11,1,5
16868.671,-0.102,0.678,0.752,-3.63,66.74,-23.22,1,5
16868.671,0.016,0.771,0.919,-40.65,46.97,-19.96,1,5
16868.687,-0.089,0.724,0.957,-56.98,28.66,-17.15,1,5
16868.687,0.01,0.812,0.995,-69.12,13.82,-2.78,1,5
16868.703,0.07,0.682,0.965,-56.37,7.32,9.61,1,5
16868.718,0.066,0.597,0.905,-40.74,6.93,15.29,1,5
16868.718,0.064,0.556,0.896,-28.84,7.39,15.84,1,5
16868.734,0.024,0.507,0.9,-13.09,5.22,10.96,1,5
16868.75,0.016,0.487,0.882,3.6,-0.79,5.92,1,5
16868.75,0.058,0.525,0.843,16.57,-7.97,-0.31,1,5
16868.765,0.014,0.526,0.796,23.9,-11.69,-7.17,1,5
16868.781,0.027,0.533,0.785,27.01,-14.22,-7.26,1,5
16868.781,0.024,0.62,0.787,30.0,-14.95,-5.46,1,5
16868.796,0.024,0.689,0.777,26.28,-17.37,-0.95,1,5
16868.796,0.11,0.605,0.728,20.51,-17.61,4.58,1,5
16868.812,0.025,0.582,0.719,17.64,-12.54,4.09,1,5
16868.828,0.045,0.625,0.758,9.19,-13.58,6.96,1,5
16868.828,0.054,0.598,0.769,6.04,-16.14,8.36,1,5
16868.843,0.074,0.591,0.775,0.49,-18.52,9.61,1,5
16868.859,0.105,0.584,0.768,-2.23,-18.98,10.56,1,5
16868.859,0.116,0.564,0.757,-0.21,-15.87,10.56,1,5
16868.875,0.132,0.563,0.752,1.62,-11.66,9.83,1,5
16868.89,0.142,0.558,0.745,3.81,-6.56,8.06,1,5
16868.89,0.141,0.549,0.745,6.26,-0.82,5.04,1,5
16868.906,0.128,0.552,0.752,8.27,4.0,1.92,1,5
16868.906,0.103,0.564,0.768,9.64,6.84,-1.13,1,5
16868.921,0.075,0.575,0.789,10.07,6.26,-3.75,1,5
16868.937,0.068,0.587,0.804,9.13,2.44,-5.25,1,5
16868.953,0.073,0.618,0.807,6.74,-6.26,-5.74,1,5
16868.968,0.091,0.625,0.795,5.49,-8.97,-4.39,1,5
16868.968,0.107,0.63,0.777,3.91,-9.46,-3.3,1,5
16868.984,0.109,0.625,0.767,3.02,-7.84,-2.69,1,5
16869.0,0.105,0.625,0.763,2.2,-5.95,-2.41,1,5
16869.0,0.102,0.623,0.762,1.59,-4.55,-2.29,1,5
16869.015,0.095,0.618,0.76,1.77,-3.75,-2.47,1,5
16869.031,0.083,0.615,0.757,2.08,-3.27,-2.69,1,5
16869.031,0.082,0.617,0.756,2.2,-3.57,-2.84,1,5
16869.046,0.088,0.616,0.751,2.14,-4.15,-2.96,1,5
16869.046,0.089,0.614,0.745,1.86,-4.15,-2.81,1,5
16869.062,0.085,0.615,0.744,1.71,-3.63,-2.5,1,5
16869.078,0.087,0.616,0.744,1.13,-3.23,-1.83,1,5
16869.078,0.088,0.62,0.746,0.31,-2.84,-1.1,1,5
16869.093,0.091,0.619,0.748,-0.79,-2.35,-0.67,1,5
16869.109,0.093,0.622,0.755,-1.5,-1.8,-0.4,1,5
16869.125,0.075,0.644,0.778,-1.59,-1.59,0.52,1,5
16869.14,0.063,0.655,0.79,-2.38,-3.02,1.65,1,5
16869.14,0.042,0.682,0.806,-4.94,-6.23,3.17,1,5
16869.156,0.016,0.719,0.823,-12.24,-12.67,5.62,1,5
16869.171,0.017,0.745,0.829,-25.03,-21.76,10.25,1,5
16869.171,0.023,0.737,0.831,-39.4,-31.01,16.36,1,5
16869.187,0.048,0.703,0.837,-50.94,-40.19,22.74,1,5
16869.187,0.095,0.659,0.823,-57.37,-46.54,28.63,1,5
16869.203,0.137,0.614,0.804,-58.11,-48.1,33.2,1,5
16869.218,0.169,0.56,0.778,-51.06,-44.65,36.32,1,5
16869.218,0.199,0.52,0.744,-39.89,-38.15,37.29,1,5
16869.234,0.212,0.496,0.714,-29.51,-29.15,34.85,1,5
16869.25,0.212,0.469,0.705,-22.13,-20.26,29.73,1,5
16869.25,0.228,0.447,0.705,-17.15,-13.03,23.5,1,5
16869.265,0.258,0.422,0.664,-11.02,-4.88,16.48,1,5
16869.281,0.285,0.394,0.616,-5.28,7.17,8.09,1,5
16869.296,0.311,0.371,0.595,6.01,44.86,-10.41,1,5
16869.296,0.277,0.354,0.573,16.14,66.56,-19.78,1,5
16869.312,0.25,0.36,0.548,23.8,87.37,-29.42,1,5
16869.328,0.212,0.393,0.55,29.76,108.8,-39.52,1,5
16869.343,0.049,0.471,0.635,28.38,126.59,-51.36,1,5
16869.343,-0.255,0.579,0.957,19.01,123.51,-59.79,1,5
16869.359,-0.496,0.976,1.446,-12.57,77.58,-50.23,1,5
16869.359,-0.371,1.26,1.554,-35.95,8.48,-14.71,1,5
16869.375,0.018,0.792,1.179,-26.0,-38.24,28.63,1,5
16869.39,0.222,0.657,0.871,-26.52,-42.24,39.74,1,5
16869.39,0.149,0.596,0.847,-24.11,-24.96,33.36,1,5
16869.406,0.055,0.488,0.857,-8.48,-14.68,27.53,1,5
16869.421,0.016,0.512,0.862,-1.53,-15.87,24.11,1,5
16869.421,0.127,0.525,0.795,-4.52,-22.25,19.5,1,5
16869.437,0.069,0.433,0.781,3.08,-19.59,12.21,1,5
16869.453,0.06,0.542,0.827,6.53,-17.85,12.33,1,5
16869.453,0.117,0.519,0.808,8.42,-19.78,11.81,1,5
16869.468,0.079,0.489,0.792,11.38,-19.01,9.06,1,5
16869.468,0.101,0.507,0.793,12.88,-17.76,9.92,1,5
16869.484,0.124,0.513,0.778,12.76,-16.85,8.88,1,5
16869.5,0.123,0.516,0.767,11.54,-14.01,7.6,1,5
16869.515,0.123,0.529,0.763,8.51,-11.81,5.86,1,5
16869.515,0.135,0.528,0.769,1.19,-9.19,1.62,1,5
16869.531,0.144,0.522,0.781,2.32,-6.07,-0.46,1,5
16869.531,0.146,0.515,0.783,5.95,-2.99,-1.77,1,5
16869.546,0.147,0.516,0.787,8.94,-0.76,-3.51,1,5
16869.546,0.136,0.539,0.79,10.56,0.95,-5.68,1,5
16869.562,0.124,0.547,0.792,10.56,1.59,-7.2,1,5
16869.578,0.125,0.555,0.789,9.34,1.28,-8.09,1,5
16869.578,0.115,0.565,0.79,8.09,1.37,-8.3,1,5
16869.593,0.1,0.568,0.796,6.96,0.73,-7.63,1,5
16869.609,0.106,0.575,0.798,5.07,-0.82,-6.38,1,5
16869.609,0.112,0.576,0.796,3.17,-1.68,-5.46,1,5
16869.64,0.118,0.568,0.795,2.32,-1.19,-4.3,1,5
16869.64,0.122,0.577,0.797,2.53,-0.34,-4.3,1,5
16869.656,0.116,0.58,0.799,2.75,0.67,-4.58,1,5
16869.671,0.104,0.581,0.802,2.75,1.46,-4.49,1,5
16869.671,0.092,0.581,0.806,2.38,1.19,-3.94,1,5
16869.687,0.091,0.581,0.809,1.77,-0.52,-3.14,1,5
16869.687,0.097,0.582,0.804,1.46,-2.08,-2.5,1,5
16869.703,0.099,0.575,0.797,1.62,-2.56,-1.53,1,5
16869.718,0.101,0.574,0.8,1.53,-2.59,-0.58,1,5
16869.734,0.096,0.576,0.805,1.1,-2.78,-0.03,1,5
16869.734,0.093,0.576,0.808,0.15,-3.54,0.0,1,5
16869.75,0.099,0.572,0.809,-0.89,-4.7,-0.09,1,5
16869.75,0.103,0.571,0.803,-1.1,-4.94,-0.31,1,5
16869.765,0.106,0.571,0.797,-0.61,-4.39,-0.34,1,5
16869.781,0.104,0.571,0.797,-0.18,-3.69,-0.31,1,5
16869.781,0.108,0.571,0.798,-0.03,-3.75,-0.24,1,5
16869.812,0.105,0.575,0.81,0.24,-4.15,-0.61,1,5
16869.812,0.108,0.578,0.812,0.61,-4.88,-0.4,1,5
16869.828,0.109,0.585,0.814,0.7,-5.46,-0.12,1,5
16869.828,0.107,0.586,0.818,0.49,-5.77,0.37,1,5
16869.843,0.103,0.585,0.821,-0.21,-6.44,0.85,1,5
16869.859,0.105,0.584,0.819,-1.31,-7.87,1.56,1,5
16869.859,0.112,0.58,0.816,-2.56,-9.13,1.98,1,5
16869.875,0.118,0.57,0.81,-2.96,-9.52,2.2,1,5
16869.89,0.12,0.566,0.816,-2.41,-9.19,2.32,1,5
16869.89,0.114,0.571,0.819,-1.16,-9.0,2.29,1,5
16869.906,0.119,0.57,0.815,-0.89,-9.86,2.29,1,5
16869.921,0.123,0.565,0.812,-1.5,-10.35,2.23,1,5
16869.921,0.112,0.562,0.81,-1.71,-10.41,1.86,1,5
16869.937,0.109,0.566,0.809,-2.14,-11.57,2.26,1,5
16869.953,0.118,0.57,0.807,-3.72,-13.31,2.62,1,5
16869.953,0.133,0.558,0.802,-5.1,-13.92,2.59,1,5
16869.968,0.148,0.531,0.767,-3.51,-10.47,2.26,1,5
16869.984,0.152,0.523,0.756,-1.4,-6.9,2.04,1,5
16870.0,0.156,0.514,0.743,0.31,-2.84,0.64,1,5
16870.0,0.153,0.504,0.735,1.34,1.46,-1.71,1,5
16870.015,0.15,0.489,0.726,1.46,5.83,-4.36,1,5
16870.015,0.161,0.487,0.689,2.11,10.77,-7.75,1,5
16870.031,0.188,0.462,0.647,4.55,19.29,-12.48,1,5
16870.046,0.209,0.456,0.641,4.33,31.13,-19.59,1,5
16870.046,0.218,0.454,0.643,4.67,44.56,-28.9,1,5
16870.062,0.223,0.433,0.598,8.06,60.88,-39.12,1,5
16870.078,0.147,0.44,0.583,8.21,81.7,-50.63,1,5
16870.078,-0.144,0.662,0.874,-7.81,91.1,-59.05,1,5
16870.093,-0.377,1.053,1.346,-40.41,65.52,-46.33,1,5
16870.109,-0.327,1.142,1.439,-43.43,14.1,-8.09,1,5
16870.109,0.071,0.792,1.106,-29.91,-22.95,32.01,1,5
16870.125,0.173,0.603,0.885,-28.5,-25.3,36.96,1,5
16870.14,0.023,0.449,0.893,8.7,-9.95,18.16,1,5
16870.156,-0.017,0.493,0.862,26.09,-13.52,10.99,1,5
16870.171,-0.034,0.562,0.843,30.82,-22.4,6.26,1,5
16870.171,0.055,0.606,0.769,28.6,-27.83,6.41,1,5
16870.187,-0.017,0.58,0.762,26.49,-26.25,5.07,1,5
16870.203,0.006,0.665,0.797,14.13,-27.65,9.31,1,5
16870.203,0.011,0.641,0.778,8.82,-26.18,16.24,1,5
16870.218,-0.006,0.605,0.774,4.64,-22.61,21.12,1,5
16870.218,-0.011,0.602,0.795,-0.03,-18.95,24.38,1,5
16870.234,-0.033,0.596,0.808,-0.98,-15.84,24.96,1,5
16870.25,-0.055,0.58,0.823,-0.49,-12.94,23.87,1,5
16870.265,-0.087,0.561,0.833,1.19,-10.01,20.36,1,5
16870.265,-0.146,0.547,0.851,5.22,-5.52,15.69,1,5
16870.281,-0.224,0.538,0.867,11.02,-2.5,10.1,1,5
16870.281,-0.271,0.539,0.881,15.14,-3.05,4.33,1,5
16870.296,-0.313,0.554,0.88,18.56,-4.97,-1.37,1,5
16870.312,-0.369,0.545,0.79,30.7,-6.53,-8.39,1,5
16870.328,-0.383,0.547,0.725,35.62,-3.23,-10.99,1,5
16870.328,-0.395,0.549,0.67,38.45,2.23,-13.89,1,5
16870.343,-0.411,0.549,0.638,38.76,9.09,-16.24,1,5
16870.359,-0.43,0.532,0.616,38.97,16.88,-17.24,1,5
16870.359,-0.453,0.518,0.627,39.55,24.48,-15.5,1,5
16870.375,-0.46,0.498,0.616,41.6,30.27,-11.69,1,5
16870.39,-0.419,0.482,0.602,41.47,36.32,-5.16,1,5
16870.39,-0.377,0.478,0.59,35.68,44.37,0.89,1,5
16870.406,-0.341,0.46,0.596,24.75,52.4,3.97,1,5
16870.406,-0.312,0.437,0.626,11.47,60.24,4.91,1,5
16870.421,-0.296,0.417,0.683,-0.09,67.05,5.37,1,5
16870.437,-0.277,0.379,0.703,-7.66,72.39,6.23,1,5
16870.453,-0.246,0.363,0.719,-13.64,77.61,6.41,1,5
16870.453,-0.224,0.351,0.762,-18.34,82.13,4.0,1,5
16870.468,-0.246,0.356,0.794,-19.62,84.72,-0.18,1,5
16870.484,-0.106,0.629,0.956,-38.7,76.69,22.16,1,5
16870.5,0.055,0.481,0.867,-100.65,65.61,4.27,1,5
16870.5,0.232,0.233,0.771,-83.5,85.12,-36.65,1,5
16870.515,0.063,-0.096,0.715,-34.76,110.02,-47.46,1,5
16870.531,-0.286,0.296,0.902,-25.09,98.39,-38.67,1,5
16870.531,-0.197,0.824,1.232,-54.6,58.14,-44.92,1,5
16870.546,-0.073,0.81,1.171,-88.93,22.64,-41.17,1,5
16870.546,0.125,0.703,1.083,-108.22,4.73,-33.33,1,5
16870.562,0.244,0.574,0.939,-104.86,9.43,-27.38,1,5
16870.578,0.321,0.48,0.795,-84.35,31.13,-22.13,1,5
16870.578,0.312,0.412,0.712,-60.46,60.76,-21.67,1,5
16870.593,0.271,0.391,0.669,-41.57,86.76,-26.67,1,5
16870.609,0.244,0.352,0.603,-30.4,106.75,-37.51,1,5
16870.609,0.209,0.302,0.528,-28.72,124.94,-53.77,1,5
16870.625,0.153,0.233,0.476,-31.31,143.74,-74.47,1,5
16870.64,0.045,0.164,0.497,-29.69,162.69,-97.42,1,5
16870.64,-0.143,0.15,0.592,-19.75,176.27,-119.36,1,5
16870.656,-0.308,0.174,0.678,-6.56,176.43,-134.59,1,5
16870.671,-0.382,0.247,0.695,-2.81,164.62,-142.61,1,5
16870.671,-0.376,0.307,0.676,-8.3,148.63,-147.19,1,5
16870.687,-0.393,0.348,0.708,-14.25,136.54,-149.42,1,5
16870.687,-0.443,0.383,0.654,-18.34,127.96,-144.26,1,5
16870.703,-0.46,0.422,0.596,-30.58,121.4,-131.53,1,5
16870.718,-0.44,0.417,0.555,-46.63,120.7,-118.2,1,5
16870.718,-0.437,0.397,0.512,-62.53,127.2,-108.68,1,5
16870.734,-0.448,0.367,0.486,-79.53,138.37,-103.46,1,5
16870.75,-0.481,0.329,0.551,-92.99,152.29,-103.64,1,5
16870.75,-0.597,0.334,0.643,-93.72,166.39,-106.33,1,5
16870.765,-0.725,0.369,0.746,-87.68,173.56,-104.8,1,5
16870.781,-0.82,0.41,0.896,-83.01,170.05,-100.89,1,5
16870.781,-0.896,0.412,1.019,-75.38,155.55,-97.63,1,5
16870.796,-0.951,0.42,1.074,-63.08,136.11,-91.77,1,5
16870.812,-0.873,0.454,1.038,-49.5,98.79,-74.98,1,5
16870.828,-0.848,0.468,0.981,-44.1,89.69,-70.5,1,5
16870.843,-0.851,0.494,0.933,-44.92,85.09,-66.01,1,5
16870.843,-0.865,0.471,1.002,-47.09,81.0,-61.92,1,5
16870.859,-0.943,0.43,1.117,-35.4,74.68,-55.67,1,5
16870.859,-1.028,0.453,1.208,-14.56,56.25,-47.21,1,5
16870.875,-1.012,0.434,1.165,5.28,34.82,-35.34,1,5
16870.89,-0.874,0.444,1.117,11.69,9.19,-30.92,1,5
16870.89,-0.786,0.479,1.026,11.35,-6.9,-33.81,1,5
16870.906,-0.783,0.421,0.918,4.18,-10.16,-31.13,1,5
16870.921,-0.666,0.432,0.903,-4.0,-11.69,-26.55,1,5
16870.921,-0.615,0.417,0.85,0.0,-3.75,-27.22,1,5
16870.937,-0.615,0.296,0.791,2.87,7.08,-23.9,1,5
16870.937,-0.572,0.224,0.826,1.68,10.83,-16.6,1,5
16870.953,-0.466,0.179,0.81,19.01,20.05,-24.9,1,5
16870.968,-0.576,0.037,0.812,33.39,25.15,-35.86,1,5
16870.984,-0.544,-0.001,0.863,59.14,19.35,-61.1,1,5
16871.0,-0.487,0.033,0.949,79.01,17.43,-87.28,1,5
16871.0,-0.808,-0.11,0.725,84.9,3.02,-100.99,1,5
16871.015,-0.407,0.044,0.855,80.51,-4.94,-110.29,1,5
16871.031,-0.632,-0.099,0.691,95.0,-1.74,-127.02,1,5
16871.031,-0.656,-0.108,0.658,86.73,-3.63,-120.91,1,5
16871.046,-0.376,0.012,0.724,89.14,3.05,-126.9,1,5
16871.062,-0.805,-0.084,0.484,88.75,9.28,-133.24,1,5
16871.062,-0.347,-0.085,0.662,65.68,15.78,-125.98,1,5
16871.078,-0.738,-0.087,0.591,76.51,31.65,-145.05,1,5
16871.093,-0.659,-0.11,0.679,74.62,35.52,-142.28,1,5
16871.093,-0.84,0.072,0.723,75.23,36.16,-143.35,1,5
16871.109,-0.918,0.17,0.665,62.07,34.27,-130.41,1,5
16871.109,-0.963,0.156,0.757,31.53,25.88,-104.34,1,5
16871.125,-0.884,0.161,0.786,12.48,20.02,-71.02,1,5
16871.14,-0.889,0.166,0.731,3.27,16.24,-38.97,1,5
16871.14,-0.758,0.173,0.657,-10.38,15.72,-6.07,1,5
16871.156,-0.733,0.141,0.58,-27.19,18.25,12.3,1,5
16871.171,-0.728,0.055,0.581,-44.89,23.22,25.73,1,5
16871.171,-0.729,-0.003,0.633,-51.42,28.14,32.04,1,5
16871.187,-0.782,-0.067,0.683,-45.78,31.74,34.09,1,5
16871.187,-0.828,-0.032,0.72,-34.27,31.89,34.42,1,5
16871.203,-0.936,0.012,0.722,-24.11,27.62,33.45,1,5
16871.218,-0.951,0.057,0.724,-27.07,13.79,36.04,1,5
16871.218,-0.918,0.059,0.695,-36.35,-2.72,37.48,1,5
16871.234,-0.853,0.039,0.629,-41.87,-13.43,39.28,1,5
16871.25,-0.808,0.036,0.553,-41.72,-15.81,40.22,1,5
16871.25,-0.772,0.008,0.506,-40.35,-11.75,39.67,1,5
16871.265,-0.783,0.01,0.518,-37.17,-3.88,36.32,1,5
16871.281,-0.863,0.023,0.558,-29.05,3.54,32.01,1,5
16871.281,-0.9,0.05,0.589,-21.09,5.71,29.42,1,5
16871.296,-0.888,0.073,0.619,-17.06,3.54,27.16,1,5
16871.296,-0.883,0.08,0.63,-12.88,-0.64,24.6,1,5
16871.312,-0.861,0.095,0.609,-8.7,-4.46,25.12,1,5
16871.328,-0.817,0.123,0.588,-7.72,-7.32,27.44,1,5
16871.328,-0.787,0.116,0.554,-7.48,-8.51,30.03,1,5
16871.343,-0.761,0.109,0.515,-8.45,-7.84,33.75,1,5
16871.359,-0.74,0.095,0.477,-12.09,-5.62,38.48,1,5
16871.359,-0.727,0.071,0.45,-18.28,-1.92,43.95,1,5
16871.375,-0.73,0.06,0.457,-26.03,2.35,49.01,1,5
16871.39,-0.734,0.048,0.481,-32.93,5.19,53.56,1,5
16871.39,-0.699,0.034,0.512,-37.45,5.71,58.08,1,5
16871.406,-0.666,0.025,0.529,-38.58,5.92,59.51,1,5
16871.406,-0.665,0.01,0.564,-37.35,6.29,57.28,1,5
16871.421,-0.697,0.004,0.629,-35.34,5.28,52.28,1,5
16871.437,-0.731,-0.023,0.664,-30.79,2.08,46.27,1,5
16871.453,-0.746,-0.023,0.7,-26.18,-1.68,39.95,1,5
16871.453,-0.784,-0.008,0.717,-22.06,-4.58,30.3,1,5
16871.468,-0.838,0.002,0.735,-17.88,-6.26,19.01,1,5
16871.468,-0.876,0.037,0.784,-13.92,-7.11,9.0,1,5
16871.484,-0.922,0.058,0.837,0.95,-8.85,-5.49,1,5
16871.5,-0.967,0.072,0.868,8.45,-11.05,-7.9,1,5
16871.5,-0.996,0.107,0.867,11.47,-15.17,-8.61,1,5
16871.515,-1.024,0.134,0.808,10.19,-20.39,-8.42,1,5
16871.531,-1.019,0.128,0.765,6.62,-24.84,-8.06,1,5
16871.531,-1.013,0.12,0.749,4.79,-27.19,-8.3,1,5
16871.546,-1.027,0.119,0.713,8.61,-26.67,-7.87,1,5
16871.546,-1.017,0.132,0.673,14.83,-24.2,-5.34,1,5
16871.562,-1.004,0.166,0.627,19.07,-20.63,-1.62,1,5
16871.578,-0.981,0.188,0.59,18.98,-17.79,2.35,1,5
16871.578,-0.95,0.192,0.577,16.02,-15.38,6.38,1,5
16871.593,-0.941,0.176,0.566,13.73,-13.43,10.59,1,5
16871.609,-0.93,0.148,0.57,12.15,-12.09,16.51,1,5
16871.609,-0.931,0.124,0.602,12.09,-11.2,23.5,1,5
16871.625,-0.942,0.092,0.59,15.23,-13.34,31.34,1,5
16871.64,-0.911,0.07,0.574,15.99,-18.13,40.77,1,5
16871.64,-0.858,0.058,0.542,15.2,-23.26,47.85,1,5
16871.656,-0.8,0.056,0.497,11.2,-28.66,51.36,1,5
16871.656,-0.727,0.035,0.473,3.36,-33.85,50.72,1,5
16871.671,-0.665,-0.006,0.451,-2.66,-36.87,46.14,1,5
16871.687,-0.625,-0.032,0.424,-4.0,-37.57,38.67,1,5
16871.687,-0.579,-0.059,0.401,-1.19,-35.19,29.6,1,5
16871.703,-0.536,-0.072,0.405,5.62,-31.31,17.94,1,5
16871.718,-0.517,-0.103,0.41,18.62,-24.41,4.79,1,5
16871.734,-0.523,-0.092,0.419,32.47,-19.2,-10.77,1,5
16871.734,-0.514,-0.109,0.454,43.58,-13.92,-24.78,1,5
16871.75,-0.529,-0.116,0.467,51.39,-10.77,-39.98,1,5
16871.75,-0.603,-0.111,0.47,51.48,-7.97,-51.85,1,5
16871.765,-0.619,-0.115,0.523,44.28,-5.28,-59.18,1,5
16871.781,-0.665,-0.128,0.557,39.0,-3.91,-62.84,1,5
16871.781,-0.679,-0.141,0.592,32.81,-4.7,-62.44,1,5
16871.796,-0.674,-0.138,0.605,26.55,-7.54,-62.04,1,5
16871.796,-0.668,-0.124,0.594,22.43,-9.55,-62.2,1,5
16871.812,-0.661,-0.109,0.592,20.78,-9.22,-62.5,1,5
16871.828,-0.669,-0.086,0.597,20.75,-7.05,-62.5,1,5
16871.828,-0.669,-0.038,0.608,19.1,-3.81,-61.25,1,5
16871.843,-0.693,0.053,0.626,15.53,1.92,-57.71,1,5
16871.859,-0.735,0.146,0.641,8.09,5.74,-50.14,1,5
16871.875,-0.75,0.245,0.673,-6.13,5.86,-37.69,1,5
16871.875,-0.765,0.316,0.695,-22.22,3.08,-20.78,1,5
16871.89,-0.791,0.295,0.686,-38.33,-1.1,-0.15,1,5
16871.89,-0.795,0.249,0.661,-52.67,-6.04,19.78,1,5
16871.906,-0.812,0.199,0.62,-61.37,-9.13,35.98,1,5
16871.921,-0.812,0.103,0.585,-64.85,-10.5,46.75,1,5
16871.921,-0.792,0.067,0.553,-64.18,-10.77,52.03,1,5
16871.937,-0.776,0.05,0.515,-61.86,-9.52,52.71,1,5
16871.937,-0.746,0.027,0.512,-60.3,-6.65,52.13,1,5
16871.953,-0.727,0.01,0.534,-55.3,-2.56,50.33,1,5
16871.968,-0.736,0.006,0.578,-47.21,0.43,46.85,1,5
16871.968,-0.76,-0.013,0.598,-35.28,1.95,42.88,1,5
16871.984,-0.782,-0.024,0.613,-25.06,0.09,37.57,1,5
16872.0,-0.766,0.001,0.628,-20.48,-5.55,31.98,1,5
16872.015,-0.735,0.004,0.635,-20.57,-7.81,26.55,1,5
16872.015,-0.739,-0.002,0.632,-23.47,-9.06,20.75,1,5
16872.031,-0.74,-0.002,0.641,-24.23,-10.35,14.4,1,5
16872.031,-0.743,-0.011,0.644,-18.98,-10.01,8.48,1,5
16872.046,-0.726,0.006,0.652,-10.62,-9.22,3.23,1,5
16872.062,-0.726,0.029,0.652,-1.46,-7.63,-1.92,1,5
16872.062,-0.745,0.057,0.64,4.33,-6.68,-6.16,1,5
16872.078,-0.756,0.085,0.646,5.89,-5.77,-8.12,1,5
16872.078,-0.778,0.117,0.651,5.74,-6.1,-8.03,1,5
16872.093,-0.788,0.131,0.653,2.72,-8.06,-5.46,1,5
16872.109,-0.768,0.128,0.667,-3.33,-11.2,-0.73,1,5
16872.109,-0.732,0.111,0.678,-7.93,-12.94,5.07,1,5
16872.125,-0.715,0.108,0.707,-12.3,-14.19,10.44,1,5
16872.14,-0.704,0.092,0.786,-17.58,-18.04,14.56,1,5
16872.14,-0.665,0.036,0.824,-19.5,-25.48,18.98,1,5
16872.156,-0.602,0.021,0.811,-22.16,-32.38,23.74,1,5
16872.171,-0.585,0.021,0.82,-27.59,-35.55,24.84,1,5
16872.171,-0.605,0.032,0.886,-33.23,-40.77,18.77,1,5
16872.187,-0.601,-0.01,0.882,-37.17,-50.33,10.96,1,5
16872.187,-0.552,-0.009,0.86,-41.54,-57.86,6.74,1,5
16872.203,-0.535,-0.0,0.872,-40.71,-61.13,1.19,1,5
16872.218,-0.534,-0.016,0.872,-34.06,-62.59,-4.18,1,5
16872.218,-0.542,0.005,0.871,-26.12,-63.33,-6.65,1,5
16872.234,-0.537,0.041,0.855,-17.21,-62.99,-6.07,1,5
16872.25,-0.524,0.099,0.831,-12.73,-62.32,-3.91,1,5
16872.265,-0.539,0.143,0.819,-16.24,-61.65,-2.08,1,5
16872.265,-0.539,0.135,0.831,-23.22,-62.9,0.37,1,5
16872.281,-0.524,0.129,0.838,-26.58,-63.17,5.04,1,5
16872.281,-0.536,0.132,0.833,-26.83,-61.16,11.14,1,5
16872.296,-0.534,0.133,0.831,-28.57,-59.21,17.52,1,5
16872.296,-0.535,0.121,0.823,-31.34,-57.86,23.04,1,5
16872.312,-0.516,0.105,0.826,-34.0,-56.98,28.23,1,5
16872.328,-0.505,0.101,0.838,-35.65,-55.45,32.11,1,5
16872.343,-0.532,0.107,0.88,-36.99,-52.83,34.85,1,5
16872.343,-0.577,0.112,0.931,-35.25,-50.94,33.88,1,5
16872.359,-0.58,0.106,0.963,-29.57,-52.28,31.19,1,5
16872.359,-0.593,0.116,0.958,-20.66,-54.23,28.69,1,5
16872.375,-0.563,0.135,0.904,-13.76,-55.76,29.45,1,5
16872.39,-0.532,0.162,0.853,-14.1,-57.01,30.12,1,5
16872.39,-0.521,0.16,0.832,-20.14,-56.31,31.37,1,5
16872.406,-0.498,0.124,0.837,-25.45,-52.31,34.15,1,5
16872.421,-0.497,0.131,0.877,-27.25,-47.91,38.06,1,5
16872.421,-0.521,0.115,0.893,-27.53,-44.8,44.74,1,5
16872.437,-0.515,0.13,0.937,-33.45,-45.78,52.83,1,5
16872.437,-0.527,0.103,0.964,-39.25,-48.37,60.49,1,5
16872.453,-0.523,0.079,0.995,-45.11,-52.83,67.35,1,5
16872.468,-0.515,0.074,1.037,-43.95,-65.07,69.03,1,5
16872.468,-0.498,0.066,1.054,-38.54,-70.01,64.49,1,5
16872.484,-0.474,0.068,1.055,-31.01,-72.91,58.44,1,5
16872.5,-0.472,0.066,1.038,-24.26,-74.71,53.19,1,5
16872.5,-0.465,0.108,1.001,-22.55,-75.81,47.7,1,5
16872.515,-0.485,0.059,1.045,-21.55,-75.01,46.48,1,5
16872.531,-0.456,0.115,1.057,-17.43,-77.52,44.89,1,5
16872.531,-0.492,0.083,1.038,-13.12,-78.74,42.79,1,5
16872.546,-0.441,0.084,1.077,-11.08,-81.64,42.39,1,5
16872.546,-0.465,0.078,1.063,-3.45,-82.67,41.35,1,5
16872.562,-0.439,0.09,1.039,0.0,-84.81,43.34,1,5
16872.578,-0.426,0.078,1.016,-0.55,-85.88,43.95,1,5
16872.593,-0.396,0.053,1.016,-2.99,-85.85,45.44,1,5
16872.593,-0.385,0.028,1.001,-3.05,-84.84,45.23,1,5
16872.609,-0.346,-0.009,0.995,-2.53,-83.19,44.59,1,5
16872.609,-0.327,-0.023,0.994,-0.09,-80.94,41.17,1,5
16872.625,-0.329,-0.034,0.998,2.59,-78.49,36.53,1,5
16872.64,-0.318,-0.037,1.001,3.42,-77.36,30.43,1,5
16872.64,-0.298,-0.027,1.025,4.7,-76.36,24.05,1,5
16872.656,-0.309,-0.019,1.035,8.55,-74.71,18.52,1,5
16872.671,-0.288,0.006,1.041,12.18,-73.34,16.33,1,5
16872.671,-0.267,0.048,1.05,14.5,-71.75,15.84,1,5
16872.687,-0.257,0.068,1.058,14.37,-70.5,15.93,1,5
16872.687,-0.256,0.078,1.066,12.33,-70.38,17.03,1,5
16872.703,-0.257,0.076,1.074,8.7,-70.8,19.35,1,5
16872.718,-0.258,0.063,1.082,5.04,-71.57,21.52,1,5
16872.718,-0.253,0.06,1.094,3.17,-72.51,23.22,1,5
16872.734,-0.233,0.073,1.096,2.9,-73.27,24.48,1,5
16872.75,-0.21,0.063,1.091,2.99,-74.43,23.99,1,5
16872.75,-0.19,0.055,1.09,3.08,-75.26,22.46,1,5
16872.765,-0.18,0.047,1.081,3.88,-75.87,19.96,1,5
16872.781,-0.162,0.042,1.074,5.77,-76.45,16.51,1,5
16872.781,-0.15,0.044,1.068,8.7,-76.14,13.34,1,5
16872.796,-0.139,0.064,1.076,10.62,-75.14,11.78,1,5
16872.812,-0.148,0.082,1.084,10.53,-74.4,11.32,1,5
16872.812,-0.149,0.086,1.095,9.52,-74.56,12.48,1,5
16872.828,-0.143,0.098,1.099,7.78,-75.5,15.26,1,5
16872.828,-0.142,0.107,1.095,4.91,-76.66,18.04,1,5
16872.843,-0.144,0.103,1.098,1.04,-77.73,19.9,1,5
16872.859,-0.14,0.093,1.101,-1.04,-79.32,20.26,1,5
16872.859,-0.129,0.09,1.088,0.73,-80.48,18.52,1,5
16872.875,-0.129,0.095,1.072,4.64,-80.84,15.44,1,5
16872.89,-0.125,0.091,1.048,10.04,-81.42,11.93,1,5
16872.89,-0.11,0.101,1.023,14.92,-81.82,10.1,1,5
16872.906,-0.088,0.12,0.983,16.24,-82.03,10.16,1,5
16872.906,-0.063,0.133,0.954,13.25,-80.81,12.48,1,5
16872.921,-0.052,0.147,0.949,7.42,-77.55,17.52,1,5
16872.937,-0.049,0.157,0.956,-0.24,-73.34,25.3,1,5
16872.953,-0.033,0.148,0.978,-9.37,-69.89,34.3,1,5
16872.953,-0.012,0.12,1.0,-16.69,-67.42,42.21,1,5
16872.968,0.003,0.084,1.017,-21.97,-65.86,48.1,1,5
16872.968,0.028,0.045,1.038,-25.73,-65.92,50.14,1,5
16872.984,0.058,-0.003,1.061,-24.99,-66.53,48.25,1,5
16873.0,0.081,-0.028,1.064,-20.45,-66.53,44.53,1,5
16873.0,0.109,-0.03,1.063,-15.93,-66.23,39.25,1,5
16873.015,0.093,-0.035,1.073,-14.04,-66.9,32.69,1,5
16873.031,0.095,-0.051,1.097,-11.29,-66.81,27.22,1,5
16873.031,0.107,-0.073,1.082,-5.8,-69.22,22.68,1,5
16873.046,0.154,-0.047,1.059,-3.91,-71.66,15.99,1,5
16873.046,0.142,-0.08,1.064,-4.27,-72.02,9.52,1,5
16873.062,0.15,-0.069,1.068,-4.18,-71.9,4.15,1,5
16873.078,0.145,-0.045,1.05,-2.5,-71.2,-2.44,1,5
16873.078,0.134,-0.025,1.054,-1.22,-70.44,-7.69,1,5
16873.093,0.141,-0.001,1.06,1.07,-69.55,-9.49,1,5
16873.109,0.159,0.027,1.046,3.66,-69.06,-9.22,1,5
16873.109,0.164,0.056,1.035,4.82,-68.82,-7.11,1,5
16873.125,0.169,0.081,1.021,2.35,-69.46,-3.3,1,5
16873.14,0.188,0.076,1.016,-1.86,-70.56,0.82,1,5
16873.14,0.198,0.064,1.007,-3.72,-70.74,3.97,1,5
16873.156,0.214,0.057,0.994,-3.88,-69.77,6.47,1,5
16873.156,0.229,0.047,0.982,-4.49,-67.84,7.42,1,5
16873.171,0.248,0.038,0.982,-4.39,-65.95,6.56,1,5
16873.187,0.248,0.039,0.989,-3.42,-64.91,4.85,1,5
16873.203,0.266,0.043,0.98,-2.9,-65.46,3.11,1,5
16873.203,0.273,0.055,0.977,-2.69,-66.26,1.8,1,5
16873.218,0.269,0.069,0.983,-3.11,-66.59,1.86,1,5
16873.218,0.274,0.071,0.979,-4.58,-67.57,2.78,1,5
16873.234,0.285,0.063,0.964,-4.27,-68.33,3.57,1,5
16873.25,0.297,0.061,0.947,-3.2,-68.61,4.27,1,5
16873.25,0.317,0.064,0.928,-2.72,-68.67,4.76,1,5
16873.265,0.323,0.064,0.913,-3.17,-67.63,4.94,1,5
16873.281,0.33,0.056,0.907,-4.15,-66.65,5.46,1,5
16873.281,0.345,0.047,0.901,-4.58,-65.49,6.29,1,5
16873.296,0.361,0.037,0.891,-4.39,-64.09,6.87,1,5
16873.312,0.366,0.029,0.892,-4.46,-62.56,7.05,1,5
16873.312,0.377,0.018,0.891,-4.91,-62.11,6.07,1,5
16873.328,0.384,0.014,0.882,-4.82,-62.23,4.12,1,5
16873.328,0.399,0.014,0.872,-3.81,-62.17,1.28,1,5
16873.343,0.399,0.025,0.866,-1.53,-61.28,-1.95,1,5
16873.359,0.384,0.04,0.854,1.01,-60.21,-4.15,1,5
16873.375,0.39,0.049,0.835,2.9,-59.97,-5.68,1,5
16873.375,0.402,0.052,0.815,3.72,-59.57,-6.04,1,5
16873.39,0.415,0.061,0.795,3.23,-58.69,-5.34,1,5
16873.39,0.447,0.062,0.778,1.8,-57.28,-3.17,1,5
16873.406,0.466,0.066,0.774,-0.95,-54.66,0.03,1,5
16873.421,0.473,0.066,0.779,-5.16,-51.7,4.27,1,5
16873.421,0.494,0.049,0.787,-9.52,-49.26,9.03,1,5
16873.437,0.508,0.031,0.811,-12.7,-47.06,12.79,1,5
16873.437,0.508,0.013,0.828,-12.57,-46.69,13.79,1,5
16873.453,0.516,0.005,0.839,-11.2,-47.94,12.33,1,5
16873.468,0.536,0.002,0.834,-9.43,-48.59,10.8,1,5
16873.468,0.552,0.001,0.83,-7.63,-48.92,8.85,1,5
16873.484,0.552,0.007,0.815,-5.83,-49.62,6.68,1,5
16873.5,0.561,0.009,0.803,-4.43,-50.6,5.07,1,5
16873.5,0.588,0.005,0.787,-3.23,-50.84,4.67,1,5
16873.515,0.591,0.014,0.775,-2.81,-49.56,4.85,1,5
16873.531,0.593,0.017,0.767,-3.54,-48.31,4.36,1,5
16873.531,0.59,0.014,0.767,-4.36,-47.4,4.18,1,5
16873.546,0.59,0.013,0.764,-4.76,-47.33,5.07,1,5
16873.546,0.606,0.009,0.757,-5.98,-47.43,6.68,1,5
16873.562,0.618,0.003,0.759,-6.44,-47.18,7.32,1,5
16873.578,0.613,-0.005,0.777,-5.28,-47.06,7.63,1,5
16873.593,0.61,-0.003,0.782,-4.3,-48.16,7.6,1,5
16873.593,0.621,-0.008,0.77,-3.69,-49.81,6.68,1,5
16873.609,0.619,-0.012,0.746,-2.59,-50.45,5.25,1,5
16873.609,0.63,-0.014,0.725,-2.11,-50.72,4.46,1,5
16873.625,0.634,-0.015,0.706,-2.29,-49.84,3.54,1,5
16873.64,0.642,-0.022,0.691,-2.2,-48.62,1.71,1,5
16873.64,0.656,-0.025,0.685,-1.5,-46.91,-0.4,1,5
16873.656,0.659,-0.023,0.685,0.21,-44.83,-1.98,1,5
16873.656,0.656,-0.023,0.689,2.11,-43.15,-3.39,1,5
16873.671,0.647,-0.013,0.698,3.14,-42.54,-4.39,1,5
16873.687,0.64,-0.001,0.695,2.26,-43.52,-4.94,1,5
16873.703,0.653,-0.002,0.679,1.31,-44.71,-4.97,1,5
16873.703,0.672,0.005,0.665,1.74,-44.47,-4.39,1,5
16873.718,0.677,0.014,0.654,2.62,-42.91,-3.91,1,5
16873.718,0.68,0.015,0.645,3.72,-41.57,-3.85,1,5
16873.734,0.679,0.013,0.632,4.67,-39.92,-3.75,1,5
16873.75,0.663,0.015,0.63,5.01,-38.42,-3.78,1,5
16873.765,0.65,0.015,0.635,4.91,-37.84,-3.08,1,5
16873.765,0.667,0.021,0.622,3.94,-38.48,-1.5,1,5
16873.781,0.69,0.016,0.612,1.53,-38.51,-0.09,1,5
16873.781,0.698,0.007,0.611,-0.15,-37.6,0.37,1,5
16873.796,0.698,0.003,0.613,-0.31,-36.71,0.67,1,5
16873.796,0.697,0.002,0.601,-0.31,-36.47,0.82,1,5
16873.812,0.712,-0.006,0.592,-0.73,-36.19,0.49,1,5
16873.828,0.717,-0.009,0.588,-0.58,-34.97,0.37,1,5
16873.828,0.73,-0.006,0.585,-0.73,-34.18,-0.03,1,5
16873.843,0.747,-0.006,0.588,-0.49,-33.39,-0.58,1,5
16873.859,0.752,0.005,0.595,0.24,-32.23,-1.1,1,5
16873.859,0.746,0.01,0.594,1.01,-31.65,-1.1,1,5
16873.875,0.752,0.011,0.595,1.22,-31.77,-0.27,1,5
16873.89,0.763,0.011,0.593,1.28,-31.8,0.73,1,5
16873.89,0.761,0.009,0.589,0.76,-31.68,1.46,1,5
16873.906,0.767,0.008,0.584,0.18,-31.92,2.11,1,5
16873.921,0.773,0.017,0.575,-0.37,-32.04,3.36,1,5
16873.921,0.78,0.018,0.563,-1.83,-31.65,4.97,1,5
16873.937,0.793,0.012,0.559,-2.9,-31.01,6.1,1,5
16873.937,0.799,0.011,0.562,-2.96,-30.03,7.45,1,5
16873.953,0.808,0.009,0.565,-3.39,-29.24,8.76,1,5
16873.968,0.819,0.005,0.575,-3.91,-28.63,9.19,1,5
16873.968,0.811,0.001,0.577,-4.09,-28.32,8.48,1,5
16873.984,0.799,-0.005,0.58,-4.3,-28.81,7.84,1,5
16874.0,0.801,-0.012,0.581,-3.78,-29.76,7.23,1,5
16874.0,0.814,-0.016,0.572,-2.17,-30.76,6.81,1,5
16874.015,0.826,-0.009,0.564,-1.19,-31.04,6.47,1,5
16874.031,0.819,-0.007,0.565,-0.61,-30.82,6.07,1,5
16874.031,0.806,-0.01,0.563,0.73,-31.07,5.22,1,5
16874.046,0.81,-0.013,0.55,2.72,-32.26,3.91,1,5
16874.046,0.813,-0.019,0.529,4.39,-32.78,2.44,1,5
16874.062,0.811,-0.023,0.504,5.95,-32.41,0.85,1,5
16874.078,0.812,-0.024,0.489,6.9,-31.53,-1.1,1,5
16874.078,0.825,-0.017,0.481,7.66,-30.73,-2.81,1,5
16874.093,0.826,-0.01,0.481,8.27,-29.15,-4.0,1,5
16874.109,0.816,-0.012,0.484,8.64,-27.95,-4.88,1,5
16874.109,0.808,-0.012,0.485,9.31,-27.59,-5.52,1,5
16874.125,0.807,-0.005,0.477,9.61,-27.28,-5.25,1,5
16874.14,0.805,0.01,0.464,7.66,-27.44,-3.81,1,5
16874.14,0.805,0.008,0.451,4.88,-27.38,-2.08,1,5
16874.156,0.803,0.01,0.438,3.42,-26.4,-0.43,1,5
16874.171,0.805,0.013,0.426,3.02,-25.24,0.82,1,5
16874.171,0.801,0.015,0.417,2.29,-23.83,2.32,1,5
16874.187,0.805,0.01,0.404,0.82,-22.31,4.12,1,5
16874.187,0.805,0.004,0.396,-1.31,-19.9,5.55,1,5
16874.203,0.791,-0.001,0.395,-2.93,-17.49,5.98,1,5
16874.218,0.791,-0.01,0.396,-3.63,-15.72,6.23,1,5
16874.234,0.808,-0.009,0.396,-3.02,-14.47,6.62,1,5
16874.234,0.813,-0.009,0.396,-2.29,-12.91,7.05,1,5
16874.25,0.804,-0.005,0.396,-2.47,-11.72,7.6,1,5
16874.25,0.814,0.003,0.402,-4.27,-11.87,8.18,1,5
16874.265,0.833,0.003,0.415,-5.89,-12.3,9.43,1,5
16874.281,0.84,-0.002,0.416,-6.35,-12.27,10.83,1,5
16874.281,0.851,-0.003,0.412,-6.26,-12.05,11.63,1,5
16874.296,0.859,-0.001,0.417,-6.68,-11.11,12.21,1,5
16874.296,0.852,-0.0,0.416,-7.45,-10.41,12.18,1,5
16874.312,0.873,0.0,0.418,-7.72,-9.92,12.45,1,5
16874.328,0.886,0.015,0.432,-8.0,-8.51,13.28,1,5
16874.343,0.878,0.025,0.439,-8.03,-7.39,13.52,1,5
16874.343,0.878,0.031,0.457,-7.97,-7.42,14.16,1,5
16874.359,0.877,0.046,0.46,-8.12,-8.18,15.59,1,5
16874.359,0.877,0.048,0.461,-9.06,-8.51,17.82,1,5
16874.375,0.873,0.039,0.467,-10.32,-8.36,19.71,1,5
16874.39,0.867,0.023,0.471,-9.58,-8.64,21.09,1,5
16874.39,0.874,0.006,0.467,-7.17,-9.49,21.49,1,5
16874.406,0.9,-0.013,0.468,-4.21,-10.5,21.42,1,5
16874.421,0.936,-0.024,0.469,-1.31,-11.63,21.33,1,5
16874.421,0.939,-0.034,0.476,-0.61,-12.36,21.3,1,5
16874.437,0.934,-0.057,0.477,-1.53,-16.79,18.89,1,5
16874.437,0.936,-0.082,0.468,-0.06,-18.01,17.24,1,5
16874.453,0.94,-0.095,0.458,1.68,-17.85,14.95,1,5
16874.468,0.892,-0.121,0.427,3.85,-17.98,12.05,1,5
16874.468,0.882,-0.129,0.409,6.41,-17.94,9.22,1,5
16874.484,0.894,-0.137,0.383,9.03,-17.82,6.9,1,5
16874.5,0.919,-0.139,0.375,10.56,-16.3,5.58,1,5
16874.5,0.921,-0.117,0.367,10.28,-13.98,5.1,1,5
16874.515,0.906,-0.103,0.381,7.63,-12.27,6.01,1,5
16874.531,0.888,-0.103,0.401,4.97,-12.05,7.42,1,5
16874.531,0.868,-0.106,0.403,3.88,-13.0,8.79,1,5
16874.546,0.858,-0.104,0.39,3.39,-14.47,9.13,1,5
16874.562,0.857,-0.091,0.369,1.95,-15.72,9.37,1,5
16874.562,0.872,-0.088,0.355,-0.82,-15.59,10.9,1,5
16874.578,0.861,-0.089,0.339,-4.09,-13.61,14.01,1,5
16874.578,0.845,-0.102,0.327,-8.58,-11.47,17.67,1,5
16874.593,0.837,-0.124,0.325,-12.67,-9.28,20.23,1,5
16874.609,0.845,-0.146,0.323,-14.56,-7.2,21.36,1,5
16874.609,0.865,-0.161,0.322,-15.05,-4.97,20.84,1,5
16874.625,0.883,-0.173,0.334,-15.08,-2.72,18.4,1,5
16874.64,0.89,-0.18,0.356,-13.95,-0.64,14.59,1,5
16874.64,0.893,-0.181,0.382,-11.32,0.27,10.07,1,5
16874.656,0.896,-0.18,0.403,-8.21,-0.37,5.34,1,5
16874.671,0.884,-0.183,0.414,-4.58,-1.8,0.49,1,5
16874.671,0.885,-0.179,0.401,0.21,-4.06,-4.15,1,5
16874.687,0.897,-0.16,0.379,3.02,-5.31,-7.78,1,5
16874.703,0.888,-0.143,0.357,3.3,-5.16,-10.99,1,5
16874.703,0.88,-0.134,0.35,3.3,-4.09,-13.37,1,5
16874.718,0.878,-0.12,0.347,3.63,-2.59,-15.14,1,5
16874.718,0.872,-0.104,0.342,3.88,-0.95,-16.3,1,5
16874.734,0.868,-0.092,0.34,3.85,0.37,-17.03,1,5
16874.75,0.871,-0.082,0.345,3.72,1.71,-16.66,1,5
16874.75,0.875,-0.069,0.35,3.33,3.08,-15.08,1,5
16874.765,0.884,-0.057,0.367,1.98,4.3,-12.39,1,5
16874.781,0.89,-0.048,0.383,-0.18,4.7,-9.25,1,5
16874.781,0.888,-0.051,0.397,-2.29,4.0,-5.77,1,5
16874.796,0.889,-0.058,0.405,-3.54,2.72,-2.81,1,5
16874.796,0.896,-0.064,0.398,-3.54,1.46,-1.07,1,5
16874.812,0.897,-0.07,0.388,-2.75,0.67,-0.31,1,5
16874.828,0.897,-0.076,0.375,-1.65,0.43,-0.43,1,5
16874.843,0.909,-0.072,0.37,-1.53,1.13,-0.15,1,5
16874.843,0.91,-0.069,0.375,-2.5,2.5,0.7,1,5
16874.859,0.907,-0.079,0.384,-3.51,3.54,1.89,1,5
16874.859,0.903,-0.085,0.391,-4.33,4.18,3.27,1,5
16874.875,0.9,-0.091,0.4,-5.25,4.15,3.94,1,5
16874.89,0.898,-0.101,0.402,-5.58,3.57,3.63,1,5
16874.89,0.894,-0.104,0.395,-4.88,3.66,2.29,1,5
16874.906,0.896,-0.102,0.391,-3.57,3.78,0.82,1,5
16874.921,0.909,-0.092,0.395,-2.5,4.06,0.15,1,5
16874.921,0.915,-0.084,0.405,-2.59,4.36,0.18,1,5
16874.937,0.908,-0.087,0.415,-3.02,4.06,0.06,1,5
16874.937,0.906,-0.09,0.424,-2.32,2.96,-0.79,1,5
16874.953,0.915,-0.091,0.415,-0.55,1.65,-1.74,1,5
16874.968,0.919,-0.088,0.4,0.79,1.43,-2.44,1,5
16874.968,0.915,-0.082,0.391,1.22,1.98,-2.93,1,5
16874.984,0.92,-0.074,0.398,0.85,2.38,-2.93,1,5
16875.0,0.923,-0.072,0.398,-0.12,2.93,-2.29,1,5
16875.0,0.918,-0.077,0.408,-0.95,3.42,-1.13,1,5
16875.015,0.91,-0.076,0.418,-1.83,3.14,-0.09,1,5
16875.031,0.914,-0.084,0.415,-2.26,2.2,0.4,1,5
16875.031,0.917,-0.087,0.41,-1.98,1.98,0.43,1,5
16875.046,0.926,-0.087,0.399,-1.31,2.53,0.03,1,5
16875.062,0.921,-0.083,0.407,-0.67,3.6,-0.79,1,5
16875.062,0.909,-0.078,0.419,-0.21,3.94,-1.25,1,5
16875.078,0.908,-0.079,0.422,-0.12,3.23,-0.89,1,5
16875.078,0.905,-0.082,0.426,0.12,2.5,-0.21,1,5
16875.093,0.906,-0.083,0.431,0.52,1.37,0.61,1,5
16875.109,0.906,-0.087,0.426,0.21,0.09,1.07,1,5
16875.109,0.916,-0.094,0.416,-0.31,-0.64,0.95,1,5
16875.125,0.919,-0.094,0.407,-0.18,-0.46,0.24,1,5
16875.14,0.92,-0.098,0.406,0.79,0.03,-0.52,1,5
16875.14,0.911,-0.098,0.405,1.56,0.52,-0.95,1,5
16875.156,0.903,-0.095,0.408,1.16,0.85,-1.1,1,5
16875.156,0.912,-0.092,0.412,-0.15,0.67,-1.04,1,5
16875.171,0.915,-0.095,0.409,-1.16,0.92,-1.07,1,5
16875.187,0.913,-0.096,0.408,-0.89,1.8,-1.5,1,5
16875.187,0.911,-0.089,0.406,0.61,2.44,-2.81,1,5
16875.203,0.896,-0.086,0.413,1.86,2.9,-4.12,1,5
16875.218,0.893,-0.083,0.424,2.08,2.69,-4.03,1,5
16875.218,0.904,-0.076,0.417,1.53,1.65,-2.81,1,5
16875.234,0.913,-0.078,0.408,-0.06,1.37,-1.86,1,5
16875.25,0.908,-0.081,0.415,-1.53,2.23,-0.85,1,5
16875.25,0.896,-0.071,0.421,-1.95,2.38,-0.31,1,5
16875.265,0.887,-0.066,0.42,-2.69,1.56,0.18,1,5
16875.281,0.887,-0.064,0.419,-3.63,1.1,1.68,1,5
16875.281,0.896,-0.057,0.399,-4.27,0.73,4.49,1,5
16875.296,0.902,-0.056,0.39,-6.29,1.71,7.39,1,5
16875.296,0.902,-0.072,0.398,-8.58,3.23,9.43,1,5
16875.312,0.893,-0.084,0.41,-8.79,4.18,9.77,1,5
16875.328,0.896,-0.095,0.421,-7.72,4.49,9.13,1,5
16875.328,0.909,-0.101,0.429,-5.49,4.43,8.36,1,5
16875.343,0.917,-0.097,0.433,-4.33,3.91,7.81,1,5
16875.359,0.918,-0.107,0.439,-4.73,3.11,6.9,1,5
16875.375,0.92,-0.119,0.445,-4.24,1.92,5.74,1,5
16875.375,0.915,-0.122,0.439,-2.59,0.79,4.61,1,5
16875.39,0.914,-0.12,0.429,-1.07,0.46,2.93,1,5
16875.39,0.915,-0.116,0.427,0.15,0.49,1.31,1,5
16875.406,0.912,-0.109,0.424,1.04,0.49,0.21,1,5
16875.406,0.908,-0.1,0.421,1.16,0.85,-0.55,1,5
16875.421,0.903,-0.098,0.421,0.55,0.95,-0.06,1,5
16875.437,0.899,-0.104,0.422,0.0,0.98,0.61,1,5
16875.437,0.898,-0.103,0.42,-0.46,1.04,1.04,1,5
16875.453,0.905,-0.114,0.422,-0.64,1.19,0.85,1,5
16875.468,0.915,-0.115,0.424,0.24,1.8,0.46,1,5
16875.468,0.915,-0.111,0.427,0.58,2.44,-0.49,1,5
16875.484,0.904,-0.113,0.437,0.85,2.75,-1.56,1,5
16875.5,0.898,-0.113,0.447,1.37,2.2,-1.86,1,5
16875.5,0.896,-0.112,0.445,1.71,1.07,-2.17,1,5
16875.515,0.893,-0.112,0.441,2.23,-0.12,-2.99,1,5
16875.531,0.895,-0.111,0.434,2.72,-0.98,-3.69,1,5
16875.531,0.898,-0.104,0.418,2.99,-0.98,-4.03,1,5
16875.546,0.908,-0.095,0.408,2.96,-0.49,-4.03,1,5
16875.546,0.903,-0.083,0.411,1.83,0.67,-3.27,1,5
16875.562,0.894,-0.082,0.417,-0.03,1.5,-1.34,1,5
16875.578,0.89,-0.088,0.428,-1.25,1.86,0.58,1,5
16875.593,0.893,-0.093,0.431,-1.31,1.65,1.37,1,5
16875.593,0.899,-0.098,0.437,-0.98,1.37,1.56,1,5
16875.609,0.907,-0.099,0.437,-0.49,1.34,1.34,1,5
16875.609,0.912,-0.098,0.441,-0.09,1.53,0.92,1,5
16875.625,0.904,-0.099,0.447,0.61,1.77,0.52,1,5
16875.64,0.892,-0.092,0.45,0.67,1.34,0.55,1,5
16875.64,0.896,-0.094,0.447,-0.12,-0.06,0.92,1,5
16875.656,0.903,-0.103,0.438,-0.98,-0.85,1.65,1,5
16875.671,0.902,-0.11,0.433,-1.74,-0.92,2.32,1,5
16875.671,0.897,-0.117,0.43,-2.62,-0.82,2.29,1,5
16875.687,0.895,-0.124,0.426,-3.39,-0.76,1.37,1,5
16875.687,0.9,-0.13,0.427,-2.96,-0.73,-0.03,1,5
16875.703,0.906,-0.121,0.42,-2.08,-0.12,-1.31,1,5
16875.718,0.914,-0.112,0.422,-2.04,0.82,-2.41,1,5
16875.718,0.907,-0.115,0.427,-2.08,1.8,-3.3,1,5
16875.734,0.899,-0.111,0.439,-2.11,2.2,-3.51,1,5
16875.75,0.894,-0.105,0.445,-1.86,1.95,-3.57,1,5
16875.75,0.899,-0.105,0.447,-1.31,1.16,-3.6,1,5
16875.765,0.906,-0.101,0.443,-1.04,0.79,-3.54,1,5
16875.781,0.909,-0.097,0.444,-1.13,0.43,-4.0,1,5
16875.781,0.903,-0.098,0.446,-0.55,0.06,-4.82,1,5
16875.796,0.904,-0.099,0.447,0.85,-0.37,-5.68,1,5
16875.796,0.906,-0.091,0.446,2.32,-0.7,-5.8,1,5
16875.812,0.9,-0.085,0.441,2.78,-0.82,-5.52,1,5
16875.828,0.893,-0.088,0.44,1.71,-0.92,-4.88,1,5
16875.828,0.886,-0.085,0.437,0.58,-1.43,-4.0,1,5
16875.843,0.88,-0.084,0.431,0.46,-1.83,-3.08,1,5
16875.859,0.887,-0.086,0.421,0.79,-1.83,-2.04,1,5
16875.859,0.894,-0.082,0.415,0.58,-1.19,-0.82,1,5
16875.875,0.898,-0.085,0.413,-0.76,-0.58,0.76,1,5
16875.89,0.899,-0.089,0.429,-2.56,0.34,2.47,1,5
16875.89,0.898,-0.094,0.441,-3.54,0.49,3.36,1,5
16875.906,0.899,-0.103,0.45,-3.27,0.18,2.87,1,5
16875.906,0.899,-0.107,0.45,-2.11,0.06,1.65,1,5
16875.921,0.896,-0.108,0.445,-0.31,-0.18,0.09,1,5
16875.937,0.897,-0.101,0.441,0.85,-0.64,-0.49,1,5
16875.937,0.898,-0.094,0.436,0.98,-0.95,-0.7,1,5
16875.953,0.898,-0.096,0.441,0.49,-1.04,-0.95,1,5
16875.968,0.892,-0.095,0.435,0.49,-1.31,-1.65,1,5
16875.968,0.889,-0.092,0.431,1.71,-1.46,-2.14,1,5
