timestamp,ax,ay,az,gx,gy,gz,orient_label,motion_label
16919.515,-0.557,0.109,0.802,-0.09,-2.08,2.9,1,6
16919.531,-0.562,0.119,0.81,1.83,-1.59,2.62,1,6
16919.531,-0.568,0.123,0.819,3.27,-1.89,2.69,1,6
16919.546,-0.574,0.124,0.818,3.72,-2.84,3.39,1,6
16919.562,-0.569,0.115,0.808,3.2,-3.94,4.15,1,6
16919.562,-0.579,0.105,0.8,2.26,-4.09,5.37,1,6
16919.578,-0.585,0.092,0.796,0.52,-3.75,6.93,1,6
16919.578,-0.579,0.078,0.796,-1.22,-2.99,8.09,1,6
16919.593,-0.582,0.061,0.8,-2.14,-2.11,8.67,1,6
16919.609,-0.576,0.049,0.811,-2.59,-1.62,8.3,1,6
16919.609,-0.568,0.041,0.817,-1.8,-1.56,6.74,1,6
16919.625,-0.567,0.038,0.817,-0.21,-1.34,4.7,1,6
16919.64,-0.569,0.039,0.817,1.59,-1.43,2.84,1,6
16919.656,-0.574,0.042,0.814,2.35,-1.89,1.13,1,6
16919.656,-0.584,0.044,0.812,2.81,-2.41,-0.09,1,6
16919.671,-0.576,0.047,0.808,2.9,-3.2,-0.06,1,6
16919.671,-0.561,0.046,0.802,1.62,-2.59,-0.18,1,6
16919.687,-0.585,0.055,0.796,0.24,-0.09,0.27,1,6
16919.703,-0.598,0.065,0.796,-2.11,-0.31,0.92,1,6
16919.718,-0.58,0.049,0.796,-3.39,-0.12,0.67,1,6
16919.734,-0.575,0.048,0.794,-3.08,0.67,0.06,1,6
16919.734,-0.572,0.059,0.801,-2.23,1.71,-0.92,1,6
16919.75,-0.569,0.067,0.806,-1.43,2.2,-2.17,1,6
16919.75,-0.566,0.075,0.808,-0.58,2.17,-3.36,1,6
16919.765,-0.58,0.088,0.814,0.52,1.95,-3.81,1,6
16919.781,-0.585,0.097,0.815,0.09,0.73,-3.08,1,6
16919.781,-0.571,0.099,0.807,-1.53,-0.85,-2.17,1,6
16919.796,-0.57,0.089,0.801,-2.66,-1.25,-1.56,1,6
16919.796,-0.564,0.08,0.802,-2.38,-0.89,-1.16,1,6
16919.812,-0.557,0.078,0.805,-1.07,0.03,-1.68,1,6
16919.828,-0.559,0.076,0.804,0.52,0.67,-2.72,1,6
16919.828,-0.564,0.079,0.805,1.43,1.13,-2.96,1,6
16919.843,-0.564,0.075,0.809,1.1,1.22,-2.84,1,6
16919.859,-0.562,0.06,0.821,1.16,0.89,-3.27,1,6
16919.875,-0.566,0.063,0.819,2.53,0.89,-4.06,1,6
16919.89,-0.57,0.068,0.816,2.87,0.52,-4.39,1,6
16919.89,-0.566,0.07,0.814,1.89,-0.31,-4.27,1,6
16919.906,-0.556,0.067,0.818,1.34,-0.82,-3.75,1,6
16919.921,-0.553,0.063,0.813,1.71,-1.1,-3.08,1,6
16919.921,-0.548,0.066,0.807,1.59,-0.85,-2.14,1,6
16919.937,-0.546,0.052,0.818,1.46,-0.21,-1.31,1,6
16919.953,-0.537,0.046,0.819,1.65,0.09,-0.98,1,6
16919.953,-0.526,0.039,0.824,2.59,0.52,-0.73,1,6
16919.968,-0.516,0.028,0.838,3.91,0.79,-1.34,1,6
16919.968,-0.5,0.021,0.85,6.13,0.46,-2.32,1,6
16919.984,-0.474,0.014,0.863,9.13,-0.31,-3.81,1,6
16920.0,-0.459,0.017,0.873,10.86,-1.92,-6.38,1,6
16920.0,-0.458,0.011,0.88,9.86,-5.01,-9.77,1,6
16920.015,-0.421,0.005,0.89,9.49,-6.16,-11.17,1,6
16920.031,-0.411,0.004,0.919,12.97,-7.32,-17.52,1,6
16920.046,-0.375,0.027,0.939,18.46,-8.15,-20.94,1,6
16920.062,-0.302,0.064,0.923,16.45,-14.83,-31.31,1,6
16920.062,-0.368,0.051,0.968,11.17,-18.28,-44.68,1,6
16920.078,-0.307,0.024,0.989,18.43,-14.07,-48.89,1,6
16920.078,-0.267,0.08,0.926,29.97,-11.44,-56.92,1,6
16920.093,-0.194,0.062,0.838,38.21,-3.36,-65.98,1,6
16920.109,-0.132,0.045,0.814,44.28,13.46,-78.37,1,6
16920.109,-0.137,0.055,0.857,59.24,37.78,-92.23,1,6
16920.125,-0.223,0.093,0.886,84.87,63.66,-102.97,1,6
16920.14,-0.409,0.146,0.974,110.35,84.44,-107.3,1,6
16920.156,-0.609,0.264,1.13,132.63,92.59,-102.15,1,6
16920.156,-0.782,0.378,1.254,148.99,79.9,-87.62,1,6
16920.171,-0.858,0.456,1.266,149.05,47.46,-64.3,1,6
16920.171,-0.804,0.548,1.225,131.44,6.62,-39.25,1,6
16920.187,-0.693,0.541,1.17,107.06,-31.37,-19.68,1,6
16920.203,-0.529,0.462,1.019,71.17,-75.29,-3.66,1,6
16920.218,-0.485,0.422,0.933,68.54,-80.29,-0.37,1,6
16920.218,-0.455,0.41,0.87,71.41,-76.54,1.16,1,6
16920.234,-0.437,0.421,0.833,79.56,-66.19,2.35,1,6
16920.25,-0.453,0.443,0.814,91.25,-51.3,4.88,1,6
16920.25,-0.527,0.498,0.849,102.3,-35.86,10.83,1,6
16920.265,-0.651,0.553,0.896,111.09,-27.44,22.37,1,6
16920.281,-0.704,0.61,0.931,112.4,-31.8,41.08,1,6
16920.281,-0.699,0.659,0.927,101.75,-45.63,60.24,1,6
16920.296,-0.662,0.649,0.888,81.21,-62.59,74.65,1,6
16920.312,-0.603,0.602,0.846,58.6,-76.33,85.06,1,6
16920.312,-0.549,0.547,0.824,42.05,-83.44,91.71,1,6
16920.328,-0.51,0.5,0.8,34.61,-84.51,95.58,1,6
16920.343,-0.484,0.463,0.767,34.67,-81.67,97.05,1,6
16920.343,-0.463,0.439,0.746,39.58,-76.75,96.22,1,6
16920.359,-0.456,0.441,0.737,47.55,-70.86,94.09,1,6
16920.359,-0.461,0.451,0.733,56.12,-65.95,92.78,1,6
16920.375,-0.473,0.471,0.734,61.43,-63.97,94.42,1,6
16920.39,-0.484,0.484,0.729,60.7,-65.46,99.03,1,6
16920.39,-0.476,0.474,0.718,53.83,-71.23,104.71,1,6
16920.406,-0.451,0.443,0.694,44.04,-77.18,109.04,1,6
16920.421,-0.431,0.414,0.67,32.32,-80.9,110.81,1,6
16920.421,-0.401,0.379,0.643,22.34,-82.4,111.51,1,6
16920.437,-0.365,0.348,0.62,16.21,-80.81,111.15,1,6
16920.453,-0.336,0.331,0.603,13.46,-76.24,109.47,1,6
16920.453,-0.308,0.317,0.594,13.73,-69.34,107.18,1,6
16920.468,-0.294,0.312,0.597,16.24,-61.28,104.68,1,6
16920.468,-0.295,0.316,0.615,18.86,-53.32,101.96,1,6
16920.484,-0.313,0.306,0.631,20.45,-48.04,99.83,1,6
16920.5,-0.331,0.288,0.648,18.83,-46.02,99.34,1,6
16920.5,-0.335,0.282,0.657,13.64,-47.4,98.12,1,6
16920.515,-0.315,0.278,0.66,5.37,-50.33,94.73,1,6
16920.531,-0.274,0.293,0.677,-3.88,-51.58,89.45,1,6
16920.531,-0.242,0.293,0.69,-9.92,-49.87,83.13,1,6
16920.546,-0.225,0.288,0.707,-11.9,-45.69,76.63,1,6
16920.562,-0.217,0.295,0.737,-9.58,-40.16,70.13,1,6
16920.562,-0.22,0.292,0.761,-2.99,-34.18,63.88,1,6
16920.578,-0.234,0.299,0.776,5.55,-28.81,58.08,1,6
16920.578,-0.255,0.32,0.783,13.28,-25.18,53.35,1,6
16920.593,-0.281,0.337,0.767,18.22,-24.81,49.5,1,6
16920.609,-0.289,0.34,0.735,19.04,-27.25,46.36,1,6
16920.625,-0.279,0.339,0.697,16.17,-29.79,43.67,1,6
16920.625,-0.247,0.349,0.67,11.26,-29.27,40.77,1,6
16920.64,-0.214,0.357,0.664,5.8,-24.26,36.84,1,6
16920.64,-0.198,0.358,0.682,1.62,-15.99,32.75,1,6
16920.656,-0.203,0.362,0.723,0.27,-7.2,29.33,1,6
16920.671,-0.23,0.363,0.768,4.58,3.2,28.14,1,6
16920.671,-0.249,0.379,0.81,5.31,3.05,28.11,1,6
16920.687,-0.258,0.402,0.837,3.08,0.58,27.28,1,6
16920.703,-0.229,0.436,0.861,-8.48,-7.51,23.53,1,6
16920.718,-0.21,0.441,0.852,-12.97,-8.7,20.75,1,6
16920.718,-0.2,0.45,0.86,-16.6,-6.29,17.7,1,6
16920.734,-0.197,0.467,0.891,-19.2,-1.92,14.37,1,6
16920.75,-0.21,0.474,0.939,-18.25,2.72,11.75,1,6
16920.75,-0.217,0.488,0.991,-14.16,4.88,10.96,1,6
16920.765,-0.216,0.519,1.032,-8.91,4.46,10.9,1,6
16920.781,-0.217,0.549,1.054,-5.71,0.24,9.67,1,6
16920.781,-0.198,0.574,1.059,-6.13,-8.0,7.66,1,6
16920.796,-0.163,0.596,1.044,-7.66,-16.97,5.89,1,6
16920.812,-0.134,0.602,1.01,-7.72,-23.47,5.13,1,6
16920.812,-0.101,0.597,0.97,-7.6,-26.7,5.49,1,6
16920.828,-0.072,0.588,0.918,-7.51,-26.67,5.68,1,6
16920.828,-0.056,0.569,0.877,-6.9,-24.11,5.07,1,6
16920.843,-0.048,0.554,0.849,-5.19,-19.59,4.49,1,6
16920.859,-0.048,0.554,0.827,-3.33,-13.98,4.09,1,6
16920.875,-0.056,0.566,0.81,-2.17,-5.68,4.94,1,6
16920.89,-0.057,0.574,0.802,-4.27,-4.18,6.01,1,6
16920.906,-0.061,0.573,0.802,-7.84,-3.94,7.23,1,6
16920.906,-0.062,0.593,0.804,-11.81,-3.97,9.43,1,6
16920.921,-0.048,0.595,0.819,-16.3,-4.15,12.15,1,6
16920.921,-0.039,0.593,0.85,-20.33,-3.3,14.68,1,6
16920.937,-0.027,0.591,0.874,-23.41,-2.84,16.08,1,6
16920.953,-0.019,0.576,0.886,-25.67,-3.91,15.93,1,6
16920.953,-0.008,0.571,0.895,-26.25,-5.13,14.92,1,6
16920.968,-0.009,0.581,0.904,-24.69,-5.65,13.52,1,6
16920.968,-0.015,0.58,0.9,-21.52,-6.2,12.02,1,6
16920.984,-0.018,0.58,0.894,-17.91,-6.47,10.59,1,6
16921.0,-0.017,0.58,0.89,-14.8,-6.62,8.33,1,6
16921.0,-0.023,0.562,0.88,-9.64,-6.5,5.62,1,6
16921.015,-0.026,0.565,0.858,-3.02,-5.01,3.94,1,6
16921.031,-0.021,0.583,0.835,0.79,-2.9,3.48,1,6
16921.031,-0.014,0.586,0.806,0.24,-0.92,3.6,1,6
16921.046,0.01,0.566,0.774,-3.94,0.85,3.94,1,6
16921.062,0.078,0.548,0.718,-9.61,5.74,3.6,1,6
16921.062,0.056,0.461,0.717,-9.28,18.22,1.31,1,6
16921.078,-0.072,0.555,0.846,-16.97,25.57,-0.85,1,6
16921.078,-0.005,0.6,0.912,-29.08,18.43,3.69,1,6
16921.093,-0.012,0.524,0.943,-26.73,15.59,7.66,1,6
16921.109,0.012,0.531,0.975,-26.86,12.24,10.68,1,6
16921.125,0.028,0.497,1.001,-22.52,8.88,11.6,1,6
16921.125,0.014,0.448,1.013,-14.19,5.49,11.35,1,6
16921.14,0.003,0.445,1.008,-5.34,-0.15,10.74,1,6
16921.14,0.009,0.419,0.982,2.75,-7.72,9.28,1,6
16921.156,0.013,0.428,0.957,8.09,-14.71,6.81,1,6
16921.171,0.01,0.46,0.928,10.9,-20.72,4.91,1,6
16921.171,0.011,0.489,0.929,8.55,-26.15,5.07,1,6
16921.187,0.086,0.538,0.883,6.74,-31.25,8.7,1,6
16921.187,0.072,0.444,0.739,26.95,-21.33,17.55,1,6
16921.203,0.109,0.501,0.765,15.08,-15.66,15.56,1,6
16921.218,0.108,0.496,0.797,-1.46,-14.37,9.46,1,6
16921.218,0.081,0.393,0.796,-1.98,-10.53,7.17,1,6
16921.234,0.092,0.423,0.8,-3.54,-8.36,6.47,1,6
16921.25,0.095,0.424,0.802,-3.2,-6.16,4.33,1,6
16921.25,0.079,0.399,0.813,-0.85,-4.58,1.19,1,6
16921.265,0.082,0.404,0.818,1.4,-4.12,-0.89,1,6
16921.281,0.094,0.42,0.814,2.14,-4.18,-3.2,1,6
16921.296,0.096,0.414,0.807,2.47,-3.02,-5.43,1,6
16921.296,0.095,0.424,0.805,2.75,-0.76,-6.93,1,6
16921.296,0.09,0.433,0.808,3.91,1.89,-7.66,1,6
16921.312,0.084,0.442,0.822,5.25,4.64,-7.72,1,6
16921.328,0.066,0.463,0.842,6.16,6.74,-7.66,1,6
16921.328,0.048,0.483,0.864,6.78,7.23,-6.99,1,6
16921.343,0.034,0.498,0.89,6.47,6.01,-5.77,1,6
16921.359,0.02,0.518,0.914,5.83,3.23,-4.46,1,6
16921.359,0.008,0.534,0.927,4.03,-1.62,-3.36,1,6
16921.375,0.016,0.546,0.931,-0.21,-7.51,-2.17,1,6
16921.39,0.033,0.534,0.914,-2.75,-11.6,-0.76,1,6
16921.39,0.041,0.513,0.885,-2.78,-12.36,0.37,1,6
16921.406,0.048,0.498,0.867,-2.59,-11.17,0.79,1,6
16921.421,0.048,0.484,0.859,-2.93,-9.03,0.0,1,6
16921.421,0.042,0.47,0.858,-3.69,-7.72,-1.62,1,6
16921.437,0.032,0.46,0.861,-4.06,-7.54,-3.51,1,6
16921.437,0.029,0.447,0.855,-2.59,-8.3,-5.55,1,6
16921.453,0.028,0.439,0.858,0.43,-9.13,-8.51,1,6
16921.468,0.015,0.449,0.866,3.36,-10.01,-11.72,1,6
16921.468,0.03,0.457,0.844,7.32,-11.35,-14.59,1,6
16921.484,0.09,0.427,0.801,14.16,-7.97,-16.17,1,6
16921.5,-0.047,0.469,0.837,16.69,-0.79,-19.53,1,6
16921.5,0.02,0.666,0.945,-2.5,-4.73,-16.75,1,6
16921.515,0.021,0.602,0.935,-6.07,-5.95,-10.74,1,6
16921.531,0.007,0.596,0.931,-11.05,-4.67,-3.66,1,6
16921.531,0.041,0.594,0.95,-13.58,-3.51,5.4,1,6
16921.546,0.015,0.537,0.946,-9.06,-2.23,11.08,1,6
16921.562,-0.01,0.505,0.948,-3.78,-4.91,13.73,1,6
16921.562,-0.006,0.47,0.917,1.46,-12.21,13.28,1,6
16921.578,0.018,0.452,0.879,3.51,-19.9,10.86,1,6
16921.578,0.01,0.471,0.874,2.38,-25.97,6.5,1,6
16921.593,0.054,0.544,0.856,-1.95,-31.74,4.15,1,6
16921.609,0.118,0.432,0.77,3.14,-28.93,4.97,1,6
16921.609,0.068,0.457,0.75,5.8,-19.2,5.04,1,6
16921.625,0.123,0.534,0.812,-2.93,-14.04,7.2,1,6
16921.64,0.121,0.48,0.794,-3.17,-8.94,8.33,1,6
16921.64,0.124,0.438,0.779,1.13,5.86,9.22,1,6
16921.656,0.124,0.463,0.804,5.95,10.41,6.87,1,6
16921.671,0.098,0.451,0.825,11.47,11.72,4.91,1,6
16921.671,0.044,0.481,0.853,13.82,8.97,3.69,1,6
16921.687,0.034,0.509,0.867,10.9,2.66,3.2,1,6
16921.703,0.05,0.513,0.871,4.09,-5.65,2.81,1,6
16921.703,0.088,0.504,0.859,-2.72,-11.47,3.23,1,6
16921.718,0.111,0.494,0.847,-6.81,-12.12,4.43,1,6
16921.718,0.119,0.479,0.84,-7.51,-9.22,5.34,1,6
16921.734,0.122,0.473,0.839,-6.74,-5.04,5.58,1,6
16921.75,0.123,0.465,0.833,-5.4,-1.1,4.43,1,6
16921.75,0.119,0.463,0.837,-4.09,2.81,2.62,1,6
16921.765,0.106,0.464,0.841,-1.98,6.35,0.43,1,6
16921.781,0.081,0.467,0.862,0.21,8.48,-1.46,1,6
16921.796,0.061,0.469,0.875,1.92,7.75,-3.05,1,6
16921.796,0.047,0.472,0.873,3.05,4.7,-4.06,1,6
16921.796,0.051,0.469,0.862,3.81,1.13,-4.61,1,6
16921.812,0.065,0.465,0.841,4.27,-1.53,-4.97,1,6
16921.828,0.078,0.475,0.824,4.03,-1.56,-4.97,1,6
16921.828,0.084,0.484,0.813,2.62,0.79,-5.04,1,6
16921.843,0.081,0.481,0.818,0.21,4.03,-5.07,1,6
16921.859,0.061,0.49,0.845,-1.5,7.08,-5.04,1,6
16921.875,0.035,0.514,0.879,-2.75,7.02,-4.09,1,6
16921.875,0.044,0.516,0.894,-4.33,3.42,-2.01,1,6
16921.89,0.058,0.504,0.89,-5.01,0.18,-0.55,1,6
16921.906,0.081,0.48,0.866,-3.45,-1.86,-0.31,1,6
16921.921,0.08,0.47,0.861,-2.29,-1.43,-1.71,1,6
16921.921,0.075,0.464,0.862,-0.24,-1.22,-3.48,1,6
16921.937,0.074,0.459,0.865,2.32,-1.53,-5.13,1,6
16921.953,0.074,0.453,0.864,5.83,-1.71,-6.26,1,6
16921.953,0.07,0.452,0.857,8.03,-1.28,-7.17,1,6
16921.968,0.087,0.465,0.862,8.91,-0.67,-8.58,1,6
16921.968,0.122,0.469,0.834,13.06,1.01,-10.25,1,6
16921.984,0.099,0.416,0.8,21.33,7.39,-13.12,1,6
16922.0,-0.03,0.603,0.924,15.96,10.1,-14.77,1,6
16922.0,0.068,0.696,0.975,2.11,0.55,-8.03,1,6
16922.015,0.055,0.634,0.918,-1.65,-2.29,-2.81,1,6
16922.031,0.075,0.639,0.91,-9.92,-1.59,4.27,1,6
16922.031,0.066,0.589,0.911,-10.96,-0.15,9.28,1,6
16922.046,0.035,0.525,0.911,-6.71,-0.31,11.6,1,6
16922.062,0.016,0.509,0.919,-0.18,-4.24,11.84,1,6
16922.078,0.052,0.464,0.859,12.05,-15.9,9.0,1,6
16922.078,0.028,0.484,0.873,13.79,-18.77,5.52,1,6
16922.093,0.094,0.539,0.832,11.41,-22.55,5.34,1,6
16922.109,0.144,0.422,0.758,14.56,-18.01,5.58,1,6
16922.109,0.083,0.487,0.775,11.29,-9.83,3.66,1,6
16922.125,0.132,0.527,0.821,2.99,-6.53,5.13,1,6
16922.14,0.125,0.497,0.816,-1.92,-3.27,5.22,1,6
16922.14,0.121,0.458,0.804,-2.69,1.19,5.92,1,6
16922.156,0.11,0.466,0.83,-2.66,5.01,5.16,1,6
16922.171,0.089,0.463,0.856,0.09,6.16,3.57,1,6
16922.171,0.068,0.463,0.871,3.54,4.64,1.89,1,6
16922.187,0.062,0.476,0.875,5.68,0.85,0.52,1,6
16922.187,0.07,0.492,0.871,5.46,-3.88,-1.04,1,6
16922.203,0.085,0.499,0.862,3.51,-7.69,-2.56,1,6
16922.218,0.1,0.502,0.848,0.7,-9.37,-3.66,1,6
16922.218,0.109,0.498,0.83,-1.53,-8.51,-3.63,1,6
16922.25,0.115,0.487,0.818,-4.36,-2.9,-2.44,1,6
16922.265,0.119,0.48,0.817,-5.77,-0.49,-2.38,1,6
16922.265,0.12,0.472,0.82,-6.53,1.83,-3.36,1,6
16922.281,0.109,0.473,0.832,-6.1,3.81,-4.82,1,6
16922.281,0.091,0.48,0.848,-4.36,4.52,-5.98,1,6
16922.296,0.074,0.49,0.861,-2.62,3.36,-6.41,1,6
16922.312,0.067,0.498,0.868,-1.34,0.61,-6.23,1,6
16922.312,0.071,0.507,0.868,-0.79,-2.23,-5.83,1,6
16922.328,0.076,0.52,0.863,-0.89,-3.94,-5.25,1,6
16922.343,0.081,0.521,0.86,-2.04,-4.97,-4.55,1,6
16922.343,0.086,0.526,0.866,-3.6,-5.31,-3.72,1,6
16922.359,0.083,0.531,0.872,-4.91,-5.25,-2.9,1,6
16922.359,0.087,0.522,0.867,-5.98,-6.13,-2.11,1,6
16922.375,0.092,0.52,0.865,-6.29,-6.47,-1.4,1,6
16922.39,0.095,0.513,0.86,-5.71,-5.89,-0.82,1,6
16922.39,0.098,0.502,0.845,-4.85,-4.97,-0.24,1,6
16922.406,0.098,0.491,0.841,-3.88,-3.66,0.21,1,6
16922.421,0.092,0.488,0.848,-2.84,-2.14,0.03,1,6
16922.421,0.083,0.494,0.859,-1.68,-1.77,-0.12,1,6
16922.437,0.075,0.499,0.869,-1.22,-2.41,-0.34,1,6
16922.437,0.069,0.508,0.881,-1.37,-3.69,-0.58,1,6
16922.453,0.064,0.517,0.89,-1.1,-5.25,0.0,1,6
16922.468,0.073,0.527,0.896,-0.76,-6.81,0.89,1,6
16922.468,0.08,0.531,0.893,-0.4,-7.29,1.56,1,6
16922.484,0.081,0.528,0.891,0.52,-6.9,2.29,1,6
16922.5,0.076,0.528,0.893,1.71,-6.01,3.05,1,6
16922.5,0.068,0.521,0.894,2.59,-5.74,3.48,1,6
16922.515,0.06,0.513,0.89,3.51,-6.2,3.69,1,6
16922.531,0.06,0.502,0.884,4.12,-7.66,3.75,1,6
16922.531,0.069,0.493,0.875,4.18,-9.37,3.54,1,6
16922.546,0.069,0.486,0.868,4.39,-10.25,2.59,1,6
16922.562,0.074,0.481,0.862,4.39,-10.93,1.53,1,6
16922.562,0.083,0.479,0.858,4.43,-10.93,0.55,1,6
16922.578,0.084,0.472,0.856,5.16,-10.13,-0.61,1,6
16922.578,0.08,0.468,0.867,6.23,-9.31,-1.71,1,6
16922.593,0.08,0.477,0.876,7.08,-9.43,-2.84,1,6
16922.609,0.087,0.487,0.877,7.66,-10.83,-4.06,1,6
16922.625,0.092,0.492,0.868,8.21,-11.9,-4.97,1,6
16922.625,0.101,0.498,0.854,7.66,-11.69,-5.49,1,6
16922.64,0.108,0.499,0.84,6.96,-10.47,-5.49,1,6
16922.64,0.11,0.499,0.835,6.01,-9.19,-5.4,1,6
16922.656,0.112,0.497,0.834,5.43,-8.09,-5.65,1,6
16922.671,0.108,0.485,0.852,6.84,-7.48,-5.92,1,6
16922.671,0.107,0.489,0.87,10.38,-7.51,-5.92,1,6
16922.687,0.116,0.511,0.88,13.95,-8.15,-5.55,1,6
16922.703,0.129,0.536,0.889,15.59,-8.73,-5.34,1,6
16922.703,0.137,0.553,0.899,15.35,-8.67,-4.85,1,6
16922.718,0.139,0.564,0.912,14.62,-8.21,-3.54,1,6
16922.718,0.136,0.568,0.928,13.58,-8.09,-1.62,1,6
16922.734,0.141,0.577,0.952,12.21,-8.45,0.89,1,6
16922.75,0.14,0.581,0.965,11.38,-9.37,2.66,1,6
16922.75,0.137,0.572,0.966,11.35,-10.62,3.91,1,6
16922.765,0.14,0.564,0.968,11.81,-11.99,4.52,1,6
16922.781,0.136,0.555,0.959,13.73,-13.12,3.3,1,6
16922.796,0.132,0.539,0.943,17.18,-14.01,0.85,1,6
16922.796,0.128,0.53,0.927,22.19,-13.98,-2.08,1,6
16922.796,0.127,0.528,0.907,28.57,-12.79,-5.4,1,6
16922.812,0.126,0.526,0.882,36.26,-10.07,-9.03,1,6
16922.828,0.119,0.531,0.86,44.37,-5.65,-12.27,1,6
16922.843,0.109,0.55,0.841,51.85,0.09,-14.68,1,6
16922.843,0.098,0.569,0.822,58.57,6.53,-15.9,1,6
16922.859,0.066,0.592,0.813,63.3,12.67,-15.78,1,6
16922.859,0.021,0.616,0.811,66.13,16.57,-14.13,1,6
16922.875,-0.005,0.635,0.816,65.83,16.14,-10.5,1,6
16922.89,-0.01,0.662,0.825,61.22,11.96,-6.16,1,6
16922.89,-0.009,0.677,0.819,52.71,5.01,-3.6,1,6
16922.906,0.0,0.678,0.817,40.8,-3.27,-2.78,1,6
16922.921,0.005,0.678,0.827,28.53,-11.44,-2.87,1,6
16922.921,0.02,0.661,0.829,19.26,-18.74,-3.23,1,6
16922.937,0.036,0.643,0.828,14.31,-24.17,-3.27,1,6
16922.937,0.046,0.631,0.816,13.67,-27.53,-2.87,1,6
16922.953,0.062,0.629,0.802,15.2,-29.08,-2.87,1,6
16922.968,0.076,0.624,0.788,17.09,-29.48,-3.81,1,6
16922.984,0.086,0.621,0.771,19.41,-29.48,-5.65,1,6
16922.984,0.095,0.625,0.758,22.25,-28.72,-7.14,1,6
16923.0,0.09,0.631,0.754,25.67,-27.68,-7.81,1,6
16923.0,0.082,0.643,0.744,27.71,-28.14,-7.26,1,6
16923.015,0.098,0.661,0.736,26.49,-30.64,-5.98,1,6
16923.031,0.118,0.669,0.721,23.01,-33.42,-5.19,1,6
16923.031,0.132,0.669,0.709,18.89,-34.7,-4.7,1,6
16923.046,0.145,0.667,0.702,15.38,-35.0,-2.96,1,6
16923.062,0.16,0.669,0.698,12.88,-34.15,-0.46,1,6
16923.062,0.172,0.665,0.69,11.08,-33.51,1.46,1,6
16923.078,0.195,0.658,0.687,9.46,-33.02,2.72,1,6
16923.078,0.21,0.65,0.683,9.13,-32.11,3.05,1,6
16923.093,0.217,0.638,0.676,9.98,-31.07,3.36,1,6
16923.109,0.228,0.636,0.669,10.96,-29.91,3.81,1,6
16923.109,0.237,0.638,0.664,11.57,-28.96,4.06,1,6
16923.125,0.243,0.639,0.657,11.96,-27.86,4.36,1,6
16923.14,0.243,0.638,0.656,11.57,-26.73,4.52,1,6
16923.14,0.239,0.639,0.656,10.28,-26.8,4.61,1,6
16923.156,0.237,0.641,0.655,8.94,-28.17,5.34,1,6
16923.171,0.247,0.657,0.654,7.14,-30.3,6.9,1,6
16923.171,0.265,0.661,0.648,5.43,-31.98,8.12,1,6
16923.187,0.277,0.661,0.64,4.39,-32.47,8.79,1,6
16923.187,0.289,0.672,0.639,3.78,-31.43,9.22,1,6
16923.203,0.289,0.672,0.634,4.3,-29.63,9.31,1,6
16923.218,0.285,0.664,0.625,5.46,-27.99,9.89,1,6
16923.218,0.289,0.663,0.616,6.78,-26.76,10.96,1,6
16923.234,0.284,0.658,0.61,7.45,-26.12,11.72,1,6
16923.25,0.282,0.656,0.602,6.99,-26.4,12.82,1,6
16923.25,0.287,0.653,0.589,6.5,-27.25,14.07,1,6
16923.265,0.289,0.645,0.574,5.46,-27.77,14.68,1,6
16923.281,0.3,0.64,0.568,2.93,-27.95,14.89,1,6
16923.281,0.307,0.634,0.565,1.25,-27.28,14.37,1,6
16923.296,0.309,0.635,0.567,0.55,-25.12,13.28,1,6
16923.312,0.305,0.647,0.574,0.67,-21.76,12.05,1,6
16923.312,0.3,0.655,0.582,0.82,-18.37,10.99,1,6
16923.328,0.294,0.662,0.591,0.98,-15.69,10.65,1,6
16923.328,0.288,0.668,0.603,1.77,-13.98,9.83,1,6
16923.343,0.283,0.673,0.624,3.54,-12.79,8.85,1,6
16923.359,0.277,0.679,0.633,6.5,-12.3,8.39,1,6
16923.359,0.271,0.696,0.638,9.19,-12.7,8.0,1,6
16923.375,0.265,0.718,0.64,10.25,-13.98,7.9,1,6
16923.39,0.264,0.729,0.641,9.13,-16.21,8.39,1,6
16923.39,0.277,0.734,0.638,6.81,-18.13,9.7,1,6
16923.406,0.292,0.732,0.633,4.82,-18.43,11.32,1,6
16923.421,0.301,0.72,0.628,3.63,-16.94,12.82,1,6
16923.421,0.31,0.718,0.627,2.99,-14.37,13.89,1,6
16923.437,0.314,0.729,0.637,2.5,-11.05,13.86,1,6
16923.453,0.3,0.728,0.65,2.29,-7.9,13.18,1,6
16923.453,0.284,0.724,0.664,2.62,-6.23,13.58,1,6
16923.468,0.274,0.718,0.672,4.55,-6.26,15.02,1,6
16923.468,0.275,0.714,0.679,7.08,-7.23,16.27,1,6
16923.484,0.28,0.711,0.68,9.06,-8.97,16.91,1,6
16923.5,0.283,0.705,0.674,10.71,-11.2,17.43,1,6
16923.5,0.284,0.7,0.669,11.35,-13.37,18.46,1,6
16923.515,0.298,0.694,0.659,10.74,-15.63,19.29,1,6
16923.531,0.318,0.687,0.642,9.58,-16.79,19.71,1,6
16923.546,0.324,0.678,0.626,8.3,-16.33,20.02,1,6
16923.546,0.334,0.677,0.62,6.56,-14.65,20.45,1,6
16923.562,0.337,0.678,0.616,4.79,-12.57,20.45,1,6
16923.562,0.341,0.672,0.614,3.27,-10.93,20.69,1,6
16923.578,0.35,0.666,0.615,2.08,-9.58,21.06,1,6
16923.578,0.354,0.662,0.615,1.59,-8.21,20.78,1,6
16923.593,0.351,0.657,0.618,1.53,-6.96,20.69,1,6
16923.609,0.36,0.659,0.623,1.28,-6.65,20.72,1,6
16923.609,0.368,0.665,0.626,0.7,-6.44,21.15,1,6
16923.625,0.371,0.665,0.63,0.15,-7.02,21.45,1,6
16923.64,0.379,0.665,0.637,0.37,-8.18,21.79,1,6
16923.64,0.398,0.656,0.636,1.28,-9.28,22.0,1,6
16923.656,0.411,0.66,0.634,1.71,-10.25,22.52,1,6
16923.671,0.426,0.668,0.629,1.34,-11.17,22.89,1,6
16923.671,0.437,0.674,0.628,0.61,-11.14,23.41,1,6
16923.687,0.441,0.678,0.631,-0.37,-10.13,24.48,1,6
16923.687,0.439,0.682,0.638,-1.46,-8.91,25.97,1,6
16923.703,0.441,0.686,0.651,-2.87,-8.73,27.19,1,6
16923.718,0.437,0.699,0.67,-4.64,-9.92,28.53,1,6
16923.718,0.438,0.699,0.683,-6.16,-12.39,30.27,1,6
16923.734,0.447,0.694,0.691,-7.6,-15.63,32.59,1,6
16923.75,0.461,0.691,0.699,-8.85,-19.23,34.46,1,6
16923.75,0.477,0.682,0.704,-9.58,-22.8,35.65,1,6
16923.765,0.495,0.672,0.696,-9.92,-25.76,36.26,1,6
16923.781,0.513,0.664,0.693,-9.89,-27.5,36.56,1,6
16923.781,0.524,0.651,0.69,-9.09,-27.89,36.68,1,6
16923.796,0.534,0.642,0.686,-7.84,-27.62,36.71,1,6
16923.796,0.539,0.647,0.688,-7.2,-27.74,36.41,1,6
16923.812,0.545,0.65,0.693,-7.32,-28.96,36.5,1,6
16923.828,0.55,0.657,0.699,-8.94,-31.37,37.51,1,6
16923.843,0.557,0.66,0.706,-11.69,-34.64,39.03,1,6
16923.843,0.573,0.656,0.716,-15.05,-38.85,40.68,1,6
16923.859,0.592,0.646,0.719,-17.67,-43.31,42.6,1,6
16923.859,0.618,0.632,0.714,-18.77,-47.61,44.74,1,6
16923.875,0.652,0.62,0.706,-18.46,-50.11,46.75,1,6
16923.89,0.687,0.611,0.705,-16.69,-50.23,48.37,1,6
16923.89,0.717,0.603,0.694,-14.04,-48.71,50.02,1,6
16923.906,0.732,0.597,0.688,-11.69,-46.11,51.64,1,6
16923.921,0.739,0.599,0.693,-10.53,-44.22,53.13,1,6
16923.921,0.745,0.596,0.704,-10.8,-44.1,53.8,1,6
16923.937,0.751,0.593,0.711,-11.57,-45.59,54.63,1,6
16923.937,0.758,0.598,0.719,-12.27,-48.13,55.7,1,6
16923.953,0.774,0.599,0.726,-13.64,-52.13,57.16,1,6
16923.968,0.815,0.605,0.726,-15.66,-56.98,59.33,1,6
16923.968,0.864,0.621,0.731,-17.3,-60.37,61.46,1,6
16923.984,0.916,0.638,0.732,-18.19,-61.74,63.2,1,6
16924.0,0.966,0.661,0.74,-18.19,-60.09,64.52,1,6
16924.0,1.01,0.69,0.76,-16.79,-55.79,65.16,1,6
16924.015,1.012,0.713,0.789,-13.37,-49.32,65.52,1,6
16924.031,0.979,0.717,0.806,-8.12,-44.47,67.11,1,6
16924.031,0.95,0.718,0.808,-2.29,-44.1,71.23,1,6
16924.046,0.934,0.719,0.811,0.73,-47.82,77.15,1,6
16924.046,0.923,0.706,0.798,-1.1,-54.05,83.29,1,6
16924.062,0.916,0.673,0.767,-7.97,-60.95,89.21,1,6
16924.078,0.896,0.618,0.737,-17.85,-66.35,94.88,1,6
16924.093,0.881,0.554,0.692,-28.66,-71.29,100.34,1,6
16924.093,0.876,0.497,0.635,-39.55,-76.27,104.43,1,6
16924.125,0.872,0.366,0.524,-60.58,-82.13,104.89,1,6
16924.125,0.879,0.318,0.48,-67.78,-80.84,101.84,1,6
16924.14,0.876,0.293,0.448,-71.81,-76.75,95.0,1,6
16924.14,0.867,0.261,0.428,-72.6,-72.63,85.73,1,6
16924.156,0.867,0.257,0.428,-69.37,-67.23,76.27,1,6
16924.171,0.863,0.277,0.436,-62.44,-59.72,66.26,1,6
16924.171,0.842,0.267,0.433,-51.52,-52.71,56.03,1,6
16924.187,0.818,0.265,0.432,-38.88,-46.85,47.15,1,6
16924.203,0.782,0.254,0.429,-26.22,-43.49,40.25,1,6
16924.203,0.756,0.211,0.439,-15.38,-42.82,38.64,1,6
16924.218,0.777,0.255,0.426,-6.47,-42.73,36.26,1,6
16924.218,0.73,0.217,0.384,-6.38,-42.91,34.3,1,6
16924.234,0.719,0.148,0.373,-19.62,-44.28,37.35,1,6
16924.25,0.759,0.153,0.371,-33.2,-46.48,38.7,1,6
16924.25,0.71,0.114,0.351,-42.66,-49.2,35.68,1,6
16924.265,0.678,0.061,0.356,-49.62,-51.15,33.81,1,6
16924.281,0.661,0.021,0.369,-38.48,-51.45,22.43,1,6
16924.296,0.653,0.011,0.35,-24.05,-49.62,14.07,1,6
16924.312,0.65,0.015,0.333,-7.9,-47.21,4.97,1,6
16924.312,0.668,0.045,0.318,7.42,-42.91,-4.46,1,6
16924.328,0.654,0.082,0.29,19.47,-36.23,-16.08,1,6
16924.328,0.655,0.098,0.28,24.69,-29.88,-25.67,1,6
16924.343,0.663,0.139,0.283,24.11,-24.63,-31.86,1,6
16924.359,0.67,0.192,0.266,19.2,-22.61,-36.04,1,6
16924.375,0.677,0.223,0.251,6.32,-22.83,-36.53,1,6
16924.375,0.697,0.245,0.257,-10.74,-23.62,-32.65,1,6
16924.39,0.71,0.267,0.283,-25.57,-23.41,-27.74,1,6
16924.39,0.72,0.271,0.313,-34.88,-20.42,-25.61,1,6
16924.406,0.736,0.267,0.339,-35.98,-16.6,-26.25,1,6
16924.421,0.737,0.284,0.356,-29.85,-13.43,-28.6,1,6
16924.421,0.733,0.324,0.373,-19.14,-11.72,-30.18,1,6
16924.437,0.715,0.379,0.388,-8.85,-10.22,-30.03,1,6
16924.453,0.726,0.436,0.392,-4.46,-14.25,-28.17,1,6
16924.453,0.758,0.52,0.376,-6.44,-22.22,-22.43,1,6
16924.468,0.789,0.569,0.356,-15.23,-27.8,-12.88,1,6
16924.468,0.831,0.58,0.336,-31.46,-28.08,-0.52,1,6
16924.484,0.871,0.57,0.344,-51.3,-25.61,11.35,1,6
16924.5,0.917,0.545,0.389,-66.1,-18.46,21.58,1,6
16924.515,0.918,0.509,0.459,-76.11,-7.69,30.09,1,6
16924.515,0.91,0.449,0.483,-83.74,-4.58,35.98,1,6
16924.531,0.919,0.4,0.482,-88.69,-9.4,40.53,1,6
16924.531,0.906,0.346,0.482,-92.01,-11.23,45.41,1,6
16924.546,0.889,0.279,0.453,-94.82,-13.89,48.77,1,6
16924.562,0.889,0.231,0.383,-95.68,-22.8,50.51,1,6
16924.562,0.891,0.182,0.319,-93.23,-30.03,50.6,1,6
16924.578,0.91,0.151,0.257,-90.67,-31.46,49.75,1,6
16924.593,0.936,0.161,0.204,-93.72,-27.04,51.12,1,6
16924.593,0.939,0.131,0.188,-120.76,-10.5,54.84,1,6
16924.609,0.895,0.044,0.195,-130.8,-6.38,49.62,1,6
16924.625,0.778,-0.006,0.169,-127.72,-13.43,35.86,1,6
16924.625,0.717,-0.06,0.13,-108.49,-22.13,14.31,1,6
16924.64,0.621,-0.015,-0.007,-78.71,-29.66,-13.15,1,6
16924.64,0.639,0.06,-0.102,-46.11,-34.42,-35.62,1,6
16924.656,0.687,0.129,-0.153,-22.49,-26.28,-45.26,1,6
16924.671,0.735,0.195,-0.139,-12.91,-4.33,-40.31,1,6
16924.671,0.737,0.217,-0.11,-17.7,23.5,-22.0,1,6
16924.687,0.653,0.208,-0.038,-38.0,46.69,1.4,1,6
16924.703,0.545,0.145,0.066,-65.22,59.48,20.97,1,6
16924.703,0.472,0.05,0.163,-87.01,65.07,34.24,1,6
16924.718,0.49,-0.043,0.268,-100.71,66.16,42.82,1,6
16924.734,0.556,-0.116,0.353,-102.21,63.63,46.63,1,6
16924.734,0.616,-0.174,0.39,-89.66,61.1,46.72,1,6
16924.75,0.649,-0.221,0.402,-71.41,59.66,45.29,1,6
16924.75,0.662,-0.227,0.397,-57.71,56.61,44.01,1,6
16924.765,0.648,-0.176,0.383,-53.83,52.8,41.63,1,6
16924.781,0.641,-0.144,0.403,-59.63,52.89,38.58,1,6
16924.781,0.686,-0.164,0.442,-71.66,54.35,38.33,1,6
16924.796,0.774,-0.179,0.485,-83.25,54.63,40.25,1,6
16924.812,0.879,-0.228,0.561,-87.95,56.25,44.86,1,6
16924.812,0.93,-0.305,0.66,-84.96,59.63,48.77,1,6
16924.828,0.921,-0.376,0.737,-73.49,58.08,43.58,1,6
16924.828,0.893,-0.44,0.771,-49.44,49.56,27.8,1,6
16924.843,0.844,-0.46,0.761,-15.2,37.35,3.02,1,6
16924.859,0.863,-0.395,0.731,19.38,23.29,-25.76,1,6
16924.859,0.895,-0.32,0.692,43.37,13.79,-49.93,1,6
16924.875,0.896,-0.221,0.634,53.13,7.35,-67.14,1,6
16924.89,0.892,-0.11,0.579,56.0,2.14,-78.01,1,6
16924.906,0.831,-0.028,0.535,56.55,-1.37,-83.9,1,6
16924.906,0.766,0.049,0.482,55.12,-4.15,-84.08,1,6
16924.921,0.732,0.115,0.424,54.08,-5.8,-79.32,1,6
16924.921,0.722,0.177,0.386,53.04,-5.43,-69.8,1,6
16924.937,0.741,0.244,0.387,48.34,-3.69,-53.32,1,6
16924.953,0.752,0.262,0.396,37.14,-1.46,-33.02,1,6
16924.953,0.755,0.249,0.417,22.0,-0.7,-13.98,1,6
16924.968,0.756,0.198,0.442,10.47,-1.62,2.41,1,6
16924.968,0.747,0.125,0.449,2.56,-4.24,15.08,1,6
16924.984,0.782,0.068,0.433,-3.85,-7.17,24.66,1,6
16925.0,0.835,0.022,0.413,-9.16,-7.48,31.62,1,6
16925.015,0.861,-0.015,0.406,-13.12,-4.55,34.79,1,6
16925.015,0.886,-0.046,0.407,-13.98,-0.34,33.97,1,6
16925.031,0.906,-0.068,0.432,-10.93,4.36,30.18,1,6
16925.031,0.9,-0.091,0.474,-4.67,8.82,24.96,1,6
16925.046,0.898,-0.096,0.511,1.74,10.56,19.53,1,6
16925.062,0.877,-0.097,0.549,6.87,10.59,16.79,1,6
16925.062,0.855,-0.083,0.557,8.55,8.39,17.06,1,6
16925.078,0.867,-0.057,0.543,6.04,4.15,17.76,1,6
16925.078,0.878,-0.058,0.538,2.44,0.85,18.01,1,6
16925.093,0.88,-0.065,0.535,0.27,-0.52,18.83,1,6
16925.109,0.887,-0.08,0.525,0.95,-0.98,19.93,1,6
16925.109,0.898,-0.1,0.517,2.96,-0.55,20.29,1,6
16925.125,0.897,-0.12,0.511,4.15,1.22,19.53,1,6
16925.14,0.903,-0.14,0.508,3.66,3.05,17.37,1,6
16925.14,0.903,-0.141,0.508,2.78,4.79,13.46,1,6
16925.156,0.886,-0.142,0.512,2.2,6.74,8.27,1,6
16925.171,0.876,-0.135,0.526,2.29,7.87,3.39,1,6
16925.171,0.872,-0.117,0.543,3.72,7.9,-0.18,1,6
16925.187,0.87,-0.103,0.556,5.55,7.81,-1.53,1,6
16925.187,0.863,-0.087,0.565,6.07,7.02,-1.74,1,6
16925.203,0.859,-0.083,0.572,6.65,4.58,-2.04,1,6
16925.218,0.846,-0.081,0.566,8.73,1.5,-2.56,1,6
16925.218,0.836,-0.065,0.539,10.41,-1.37,-2.87,1,6
16925.234,0.848,-0.052,0.513,10.19,-3.33,-2.56,1,6
16925.25,0.863,-0.042,0.493,8.09,-3.14,-1.25,1,6
16925.25,0.86,-0.043,0.492,5.4,-0.85,0.03,1,6
16925.265,0.86,-0.049,0.498,3.05,1.25,0.82,1,6
16925.281,0.859,-0.047,0.514,2.26,3.11,0.61,1,6
16925.281,0.842,-0.049,0.528,3.36,3.97,-0.64,1,6
16925.296,0.842,-0.048,0.538,4.7,3.27,-1.5,1,6
16925.312,0.837,-0.028,0.541,5.74,2.17,-1.28,1,6
16925.312,0.823,-0.031,0.53,5.4,0.89,0.55,1,6
16925.328,0.828,-0.047,0.516,2.2,-1.13,3.42,1,6
16925.328,0.836,-0.049,0.481,-0.76,-1.34,6.41,1,6
16925.343,0.832,-0.04,0.467,-2.35,1.1,9.61,1,6
16925.359,0.847,-0.04,0.453,-4.88,3.85,11.87,1,6
16925.359,0.865,-0.076,0.451,-6.96,6.71,10.62,1,6
16925.375,0.857,-0.086,0.461,-6.47,10.8,8.33,1,6
16925.39,0.858,-0.095,0.473,-4.43,15.05,6.65,1,6
16925.39,0.858,-0.103,0.495,-2.35,18.86,4.03,1,6
16925.406,0.843,-0.105,0.526,-0.06,20.97,0.49,1,6
16925.421,0.838,-0.091,0.558,1.56,20.6,-3.11,1,6
16925.421,0.845,-0.078,0.584,2.84,18.43,-6.71,1,6
16925.437,0.827,-0.06,0.611,5.34,15.75,-9.92,1,6
16925.437,0.795,-0.048,0.619,8.94,11.44,-11.38,1,6
16925.453,0.802,-0.03,0.6,11.05,5.37,-10.74,1,6
16925.468,0.834,-0.015,0.572,10.77,0.43,-8.21,1,6
16925.468,0.856,-0.016,0.548,8.85,-1.28,-4.73,1,6
16925.484,0.854,-0.025,0.526,6.47,-0.49,-1.25,1,6
16925.5,0.836,-0.031,0.515,3.94,0.67,1.68,1,6
16925.5,0.832,-0.041,0.505,1.68,1.31,3.48,1,6
16925.515,0.835,-0.053,0.496,-0.46,2.17,5.07,1,6
16925.531,0.848,-0.058,0.488,-3.14,3.33,6.47,1,6
16925.531,0.857,-0.065,0.488,-6.59,5.1,7.97,1,6
16925.546,0.845,-0.071,0.504,-10.65,7.14,9.43,1,6
16925.562,0.83,-0.078,0.526,-13.28,7.78,9.74,1,6
16925.562,0.822,-0.091,0.548,-12.7,6.71,9.61,1,6
16925.578,0.817,-0.098,0.553,-5.8,2.99,8.0,1,6
16925.578,0.825,-0.09,0.534,-3.81,2.01,6.07,1,6
16925.593,0.832,-0.086,0.514,-3.6,2.44,4.61,1,6
16925.609,0.826,-0.086,0.499,-3.97,3.14,2.93,1,6
16925.609,0.799,-0.088,0.478,-3.88,4.12,0.67,1,6
16925.625,0.787,-0.083,0.485,-2.72,5.07,-0.89,1,6
16925.64,0.773,-0.075,0.488,-0.12,5.8,-3.05,1,6
16925.64,0.755,-0.069,0.486,4.33,5.92,-5.95,1,6
16925.656,0.746,-0.059,0.475,9.06,5.55,-8.76,1,6
16925.671,0.756,-0.05,0.456,12.21,5.52,-9.52,1,6
16925.671,0.757,-0.036,0.446,11.75,7.05,-8.39,1,6
16925.687,0.767,-0.019,0.447,8.91,8.15,-6.99,1,6
16925.703,0.759,-0.012,0.459,6.35,9.83,-4.94,1,6
16925.703,0.73,-0.009,0.465,4.97,11.14,-3.2,1,6
16925.718,0.735,-0.003,0.468,4.46,10.8,-1.62,1,6
16925.718,0.747,-0.003,0.466,4.15,10.5,-0.09,1,6
16925.734,0.746,-0.009,0.46,3.48,11.47,1.71,1,6
16925.75,0.753,-0.018,0.463,2.59,13.09,3.88,1,6
16925.75,0.756,-0.025,0.468,1.5,15.35,5.52,1,6
16925.765,0.735,-0.034,0.483,0.58,17.94,6.32,1,6
16925.781,0.719,-0.041,0.511,0.0,19.04,6.35,1,6
16925.781,0.699,-0.044,0.527,1.71,18.07,4.82,1,6
16925.796,0.716,-0.05,0.527,5.07,16.3,3.54,1,6
16925.812,0.748,-0.046,0.52,6.81,15.69,3.42,1,6
16925.812,0.752,-0.037,0.497,6.1,17.4,3.42,1,6
16925.828,0.74,-0.039,0.48,2.78,20.05,3.85,1,6
16925.843,0.733,-0.044,0.475,-1.71,22.58,3.72,1,6
16925.843,0.73,-0.048,0.471,-4.52,25.97,3.57,1,6
16925.859,0.736,-0.047,0.481,-5.98,30.21,3.75,1,6
16925.859,0.747,-0.043,0.503,-6.29,34.97,4.76,1,6
16925.875,0.751,-0.042,0.538,-6.41,39.83,6.78,1,6
16925.89,0.73,-0.04,0.581,-7.14,42.76,8.09,1,6
16925.89,0.706,-0.05,0.63,-6.65,42.3,7.93,1,6
16925.906,0.693,-0.06,0.655,-3.45,39.55,7.05,1,6
16925.921,0.692,-0.057,0.645,0.52,36.07,6.07,1,6
16925.921,0.705,-0.05,0.622,2.62,32.62,4.97,1,6
16925.937,0.733,-0.05,0.6,1.89,31.28,4.88,1,6
16925.953,0.766,-0.054,0.593,-0.67,33.3,6.13,1,6
16925.953,0.763,-0.066,0.602,-2.44,37.35,6.68,1,6
16925.968,0.741,-0.093,0.627,-2.38,40.5,6.01,1,6
16925.968,0.718,-0.113,0.653,-0.03,42.09,3.81,1,6
16925.984,0.695,-0.125,0.663,4.12,40.99,1.19,1,6
16926.0,0.689,-0.128,0.671,7.35,38.7,-0.34,1,6
16926.0,0.673,-0.12,0.667,8.39,37.08,-2.14,1,6
16926.015,0.669,-0.112,0.659,7.26,34.82,-5.01,1,6
16926.031,0.664,-0.106,0.662,6.41,32.96,-8.79,1,6
16926.031,0.664,-0.104,0.651,9.0,32.72,-12.27,1,6
16926.046,0.687,-0.091,0.644,12.85,33.94,-14.04,1,6
16926.062,0.687,-0.066,0.637,14.44,36.77,-14.74,1,6
16926.062,0.676,-0.06,0.646,13.15,39.43,-14.62,1,6
16926.078,0.655,-0.052,0.672,10.5,41.2,-13.73,1,6
16926.093,0.648,-0.053,0.69,8.06,42.05,-13.95,1,6
16926.093,0.647,-0.054,0.715,7.42,42.18,-15.99,1,6
16926.109,0.637,-0.047,0.736,9.37,41.99,-18.92,1,6
16926.109,0.623,-0.035,0.742,12.7,40.96,-21.7,1,6
16926.125,0.642,-0.016,0.736,14.89,39.25,-22.71,1,6
16926.14,0.667,0.006,0.739,13.18,38.42,-20.78,1,6
16926.14,0.66,0.02,0.735,8.82,38.94,-17.94,1,6
16926.156,0.641,0.015,0.749,4.15,39.43,-15.78,1,6
16926.171,0.597,0.007,0.76,2.2,40.22,-14.98,1,6
16926.171,0.554,0.011,0.758,4.27,39.49,-15.96,1,6
16926.187,0.557,0.01,0.751,8.97,37.26,-17.4,1,6
16926.203,0.59,0.028,0.735,12.27,36.38,-16.24,1,6
16926.203,0.614,0.033,0.725,11.51,38.21,-12.63,1,6
16926.218,0.592,0.028,0.73,6.41,41.84,-8.27,1,6
16926.234,0.555,0.013,0.746,0.7,43.86,-6.59,1,6
16926.234,0.511,-0.007,0.762,-1.37,44.68,-8.06,1,6
16926.25,0.485,0.004,0.755,0.85,43.92,-11.9,1,6
16926.25,0.554,0.017,0.747,5.04,42.12,-14.4,1,6
16926.265,0.599,0.051,0.749,7.14,45.69,-13.73,1,6
16926.281,0.598,0.069,0.761,5.43,51.06,-11.66,1,6
16926.281,0.596,0.069,0.806,1.37,54.6,-9.09,1,6
16926.296,0.578,0.069,0.85,-1.34,56.31,-6.84,1,6
16926.312,0.538,0.062,0.887,-1.68,55.82,-4.82,1,6
16926.312,0.489,0.057,0.908,-0.21,52.67,-3.42,1,6
16926.328,0.454,0.04,0.891,2.87,47.24,-2.84,1,6
16926.343,0.482,0.021,0.85,6.26,41.84,-2.32,1,6
16926.343,0.528,0.009,0.824,8.21,40.71,-1.65,1,6
16926.359,0.558,-0.01,0.798,8.42,43.18,-1.89,1,6
16926.359,0.565,-0.023,0.819,5.92,48.16,-2.38,1,6
16926.375,0.542,-0.024,0.847,2.75,52.92,-5.19,1,6
16926.39,0.519,-0.029,0.889,2.75,55.09,-9.86,1,6
16926.406,0.475,-0.031,0.915,6.9,55.85,-15.32,1,6
16926.406,0.452,-0.031,0.915,15.02,54.02,-21.45,1,6
16926.421,0.463,-0.033,0.914,24.2,51.09,-27.13,1,6
16926.421,0.49,-0.04,0.915,32.26,49.84,-32.72,1,6
16926.437,0.487,-0.03,0.906,38.54,49.87,-39.49,1,6
16926.453,0.491,-0.007,0.919,41.84,49.35,-46.14,1,6
16926.453,0.477,0.029,0.932,43.55,50.08,-51.73,1,6
16926.468,0.444,0.08,0.933,43.46,51.15,-54.38,1,6
16926.484,0.417,0.127,0.94,40.59,50.81,-54.2,1,6
16926.484,0.403,0.159,0.928,36.81,48.89,-52.49,1,6
16926.5,0.411,0.178,0.924,32.96,47.15,-48.95,1,6
16926.5,0.395,0.215,0.904,29.39,46.39,-44.4,1,6
16926.515,0.42,0.235,0.897,24.72,45.29,-37.66,1,6
16926.531,0.417,0.248,0.901,17.85,47.03,-28.6,1,6
16926.531,0.371,0.233,0.916,8.55,50.75,-19.56,1,6
16926.546,0.331,0.208,0.953,-0.34,52.86,-12.76,1,6
16926.562,0.301,0.177,0.976,-2.72,52.95,-9.61,1,6
16926.562,0.294,0.149,0.977,5.52,47.82,-12.91,1,6
16926.578,0.308,0.137,0.959,10.71,45.26,-14.44,1,6
16926.578,0.363,0.14,0.933,11.41,46.17,-12.94,1,6
16926.593,0.398,0.183,0.932,6.23,51.27,-10.56,1,6
16926.609,0.331,0.177,0.975,-1.95,55.45,-8.24,1,6
16926.609,0.278,0.144,1.032,-6.2,54.96,-7.26,1,6
16926.625,0.243,0.124,1.051,-3.05,51.39,-7.97,1,6
16926.64,0.229,0.122,1.006,3.14,45.66,-11.08,1,6
16926.64,0.283,0.131,0.966,6.9,39.55,-14.44,1,6
16926.656,0.33,0.15,0.934,6.35,39.0,-14.8,1,6
16926.671,0.332,0.167,0.924,1.77,43.34,-12.88,1,6
16926.671,0.284,0.165,0.955,-4.3,49.1,-10.93,1,6
16926.687,0.243,0.15,1.003,-7.63,51.33,-10.13,1,6
16926.703,0.217,0.144,1.032,-6.32,50.23,-10.28,1,6
16926.703,0.194,0.141,1.021,-3.02,47.09,-11.11,1,6
16926.718,0.205,0.14,0.988,-0.21,42.94,-12.51,1,6
16926.718,0.226,0.146,0.957,1.28,41.08,-12.57,1,6
16926.734,0.232,0.158,0.944,-0.92,42.91,-10.32,1,6
16926.75,0.217,0.161,0.954,-5.74,46.54,-8.82,1,6
16926.765,0.179,0.146,0.984,-7.93,49.5,-9.55,1,6
16926.765,0.146,0.128,1.008,-5.19,49.41,-11.47,1,6
16926.781,0.144,0.123,1.013,0.49,46.72,-12.79,1,6
16926.781,0.169,0.141,0.991,4.76,43.92,-13.4,1,6
16926.796,0.202,0.154,0.961,4.61,42.45,-12.54,1,6
16926.812,0.218,0.159,0.957,-1.1,44.13,-9.89,1,6
16926.812,0.191,0.159,0.967,-7.39,48.65,-7.97,1,6
16926.828,0.139,0.144,0.988,-9.86,52.83,-7.63,1,6
16926.828,0.092,0.126,1.019,-7.87,54.9,-8.7,1,6
16926.843,0.057,0.118,1.037,-2.69,54.81,-11.17,1,6
16926.859,0.019,0.114,1.036,3.75,53.04,-15.11,1,6
16926.859,-0.003,0.114,1.032,10.47,49.53,-20.17,1,6
16926.875,0.005,0.11,1.006,17.33,44.77,-24.66,1,6
16926.89,0.017,0.132,0.97,22.16,42.24,-27.86,1,6
16926.906,0.026,0.162,0.925,23.32,41.69,-29.85,1,6
16926.906,0.067,0.171,0.908,20.36,43.31,-29.82,1,6
16926.921,0.091,0.182,0.929,16.39,49.13,-28.47,1,6
16926.921,0.066,0.182,0.966,13.58,55.97,-27.53,1,6
16926.937,0.034,0.175,1.023,11.78,59.69,-27.56,1,6
16926.953,-0.003,0.167,1.079,12.51,59.63,-29.08,1,6
16926.953,-0.043,0.172,1.107,16.17,55.6,-31.92,1,6
16926.968,-0.065,0.189,1.1,20.45,48.95,-35.07,1,6
16926.984,-0.051,0.203,1.061,23.9,41.87,-37.69,1,6
16926.984,-0.023,0.221,1.006,25.42,38.0,-39.46,1,6
16927.0,-0.002,0.236,0.964,23.65,38.39,-39.7,1,6
16927.0,0.012,0.242,0.949,18.92,41.93,-37.54,1,6
16927.015,0.018,0.242,0.968,12.51,47.52,-32.35,1,6
16927.031,0.006,0.239,1.001,6.07,53.1,-26.22,1,6
16927.031,-0.019,0.232,1.05,1.62,56.43,-22.25,1,6
16927.046,-0.037,0.226,1.093,0.98,56.22,-20.75,1,6
16927.062,-0.051,0.241,1.112,2.99,53.56,-20.26,1,6
16927.062,-0.052,0.251,1.098,5.31,49.32,-19.93,1,6
16927.078,-0.047,0.263,1.083,5.43,45.78,-17.73,1,6
16927.078,-0.058,0.268,1.062,2.75,44.74,-14.74,1,6
16927.093,-0.077,0.269,1.058,-0.64,44.83,-12.15,1,6
16927.109,-0.101,0.267,1.067,-3.02,44.89,-9.46,1,6
16927.125,-0.108,0.26,1.071,-4.58,44.5,-6.65,1,6
16927.125,-0.112,0.257,1.067,-4.94,44.34,-4.06,1,6
16927.14,-0.13,0.251,1.061,-5.83,44.53,-2.2,1,6
16927.14,-0.152,0.247,1.053,-7.08,44.92,-0.61,1,6
16927.156,-0.156,0.242,1.047,-8.33,44.71,1.1,1,6
16927.171,-0.146,0.239,1.035,-8.45,44.07,2.59,1,6
16927.171,-0.15,0.238,1.018,-8.51,44.04,4.18,1,6
16927.187,-0.147,0.231,1.015,-9.74,44.1,6.01,1,6
16927.187,-0.143,0.224,1.013,-10.9,44.34,8.03,1,6
16927.203,-0.154,0.212,1.004,-12.15,44.62,10.28,1,6
16927.218,-0.157,0.201,0.999,-13.73,44.47,12.02,1,6
16927.218,-0.161,0.198,0.989,-14.74,44.74,13.37,1,6
16927.234,-0.163,0.194,0.975,-15.87,45.23,14.34,1,6
16927.25,-0.161,0.188,0.968,-17.73,46.72,15.02,1,6
16927.265,-0.168,0.191,0.969,-18.86,49.32,15.08,1,6
16927.265,-0.182,0.188,0.975,-19.71,51.85,14.98,1,6
16927.281,-0.182,0.151,0.993,-19.47,53.07,15.32,1,6
16927.281,-0.185,0.117,1.014,-16.97,53.74,16.39,1,6
16927.296,-0.212,0.109,1.02,-14.37,53.41,16.33,1,6
16927.312,-0.223,0.098,1.011,-13.73,50.51,13.98,1,6
16927.312,-0.219,0.094,1.007,-14.8,47.36,10.16,1,6
16927.328,-0.216,0.095,1.004,-14.77,45.53,5.25,1,6
16927.343,-0.23,0.102,0.998,-12.18,45.56,0.52,1,6
16927.343,-0.251,0.118,0.989,-9.19,46.85,-2.44,1,6
16927.359,-0.266,0.137,0.974,-8.42,48.01,-3.88,1,6
16927.359,-0.257,0.144,0.97,-9.49,48.8,-4.24,1,6
16927.375,-0.248,0.138,0.98,-10.96,50.2,-3.6,1,6
16927.39,-0.26,0.142,0.995,-12.27,51.97,-2.23,1,6
16927.406,-0.276,0.141,1.006,-13.21,52.58,-1.28,1,6
16927.406,-0.283,0.142,1.012,-14.16,51.85,-0.76,1,6
16927.421,-0.29,0.143,1.01,-15.53,50.45,-0.21,1,6
16927.421,-0.292,0.145,1.002,-16.36,49.04,0.34,1,6
16927.437,-0.293,0.142,0.998,-15.96,48.34,0.85,1,6
16927.453,-0.297,0.125,0.994,-14.59,48.46,1.56,1,6
16927.453,-0.309,0.111,0.989,-13.15,49.04,2.08,1,6
16927.468,-0.331,0.083,0.983,-12.02,49.96,1.89,1,6
16927.468,-0.348,0.052,0.986,-11.17,50.69,0.55,1,6
16927.484,-0.374,0.032,1.002,-8.51,50.72,-2.35,1,6
16927.5,-0.397,0.016,1.007,-3.45,49.07,-6.81,1,6
16927.5,-0.403,0.014,0.995,2.75,46.08,-12.15,1,6
16927.515,-0.397,0.029,0.978,7.26,42.7,-17.76,1,6
16927.531,-0.392,0.045,0.959,8.85,39.98,-23.62,1,6
16927.531,-0.403,0.058,0.951,8.55,38.06,-28.5,1,6
16927.546,-0.418,0.067,0.94,8.24,36.35,-30.85,1,6
16927.562,-0.42,0.089,0.917,6.59,36.41,-29.79,1,6
16927.562,-0.418,0.116,0.897,3.36,37.17,-27.92,1,6
16927.578,-0.414,0.13,0.886,-0.61,38.97,-24.63,1,6
16927.593,-0.427,0.147,0.878,-4.67,41.75,-20.02,1,6
16927.593,-0.445,0.147,0.884,-8.88,44.16,-14.77,1,6
16927.609,-0.454,0.136,0.89,-12.94,45.59,-9.92,1,6
16927.609,-0.46,0.118,0.884,-15.87,47.49,-6.47,1,6
16927.625,-0.469,0.097,0.886,-16.48,50.26,-3.91,1,6
16927.64,-0.488,0.104,0.876,-16.51,53.22,-1.92,1,6
16927.64,-0.502,0.13,0.859,-18.74,55.48,0.89,1,6
16927.656,-0.52,0.138,0.859,-22.92,56.89,3.36,1,6
16927.671,-0.546,0.133,0.886,-28.47,55.88,4.94,1,6
16927.671,-0.569,0.123,0.921,-32.59,51.7,6.71,1,6
16927.687,-0.575,0.102,0.924,-33.85,45.23,9.09,1,6
16927.703,-0.543,0.082,0.92,-33.48,38.64,11.35,1,6
16927.703,-0.519,0.065,0.907,-30.21,34.85,10.74,1,6
16927.718,-0.515,0.052,0.884,-25.06,33.42,7.87,1,6
16927.734,-0.508,0.039,0.877,-20.29,32.69,2.9,1,6
16927.734,-0.504,0.027,0.871,-14.71,32.75,-3.36,1,6
16927.75,-0.519,0.035,0.863,-8.61,33.6,-9.0,1,6
16927.75,-0.547,0.059,0.866,-4.24,34.24,-13.15,1,6
16927.765,-0.59,0.082,0.878,-1.68,33.2,-15.44,1,6
16927.781,-0.615,0.088,0.869,0.61,29.73,-15.53,1,6
16927.781,-0.587,0.083,0.849,1.77,26.28,-14.44,1,6
16927.796,-0.545,0.057,0.851,2.47,24.17,-16.45,1,6
16927.812,-0.511,0.013,0.868,4.58,21.97,-21.94,1,6
16927.812,-0.587,0.01,0.841,8.15,24.2,-28.63,1,6
16927.828,-0.58,0.006,0.84,9.31,29.51,-24.69,1,6
16927.843,-0.553,0.134,0.799,13.25,25.85,-30.34,1,6
16927.843,-0.6,0.043,0.763,14.01,30.0,-34.24,1,6
16927.859,-0.685,0.037,0.826,9.61,29.69,-36.44,1,6
16927.875,-0.588,0.069,0.773,14.83,29.51,-29.91,1,6
16927.875,-0.638,0.093,0.74,13.28,27.89,-33.6,1,6
16927.89,-0.583,-0.015,0.785,9.37,32.07,-26.61,1,6
16927.89,-0.589,0.102,0.789,10.41,30.95,-32.47,1,6
16927.906,-0.628,-0.046,0.794,13.15,34.82,-33.27,1,6
16927.921,-0.55,0.028,0.831,16.48,34.06,-39.95,1,6
16927.921,-0.645,-0.042,0.81,27.68,33.63,-52.43,1,6
16927.937,-0.689,-0.046,0.817,36.38,34.33,-58.14,1,6
16927.953,-0.608,0.012,0.794,43.24,33.33,-55.36,1,6
16927.953,-0.637,0.066,0.756,41.6,29.42,-65.49,1,6
16927.968,-0.644,-0.006,0.782,35.43,27.95,-67.29,1,6
16927.968,-0.619,0.022,0.813,38.33,27.47,-71.44,1,6
16927.984,-0.644,0.027,0.79,45.63,28.44,-71.32,1,6
16928.0,-0.629,0.131,0.78,46.57,27.68,-72.73,1,6
16928.0,-0.677,0.145,0.772,42.12,27.62,-69.61,1,6
16928.015,-0.649,0.191,0.78,33.54,26.52,-62.32,1,6
16928.031,-0.652,0.17,0.78,27.13,26.25,-54.51,1,6
16928.031,-0.643,0.181,0.793,22.43,26.37,-46.14,1,6
16928.046,-0.652,0.171,0.803,19.62,26.28,-38.54,1,6
16928.062,-0.639,0.144,0.813,16.36,24.51,-31.46,1,6
16928.062,-0.601,0.133,0.815,15.59,22.74,-26.89,1,6
16928.078,-0.584,0.086,0.811,17.27,21.15,-27.07,1,6
16928.078,-0.569,0.083,0.818,19.71,20.54,-29.39,1,6
16928.093,-0.568,0.054,0.818,25.06,22.0,-30.92,1,6
16928.109,-0.575,0.094,0.799,29.36,22.03,-33.33,1,6
16928.109,-0.624,0.14,0.784,26.76,22.1,-33.05,1,6
16928.125,-0.647,0.143,0.795,19.14,19.78,-28.9,1,6
16928.14,-0.636,0.142,0.796,13.67,16.69,-23.29,1,6
16928.156,-0.605,0.149,0.801,10.59,14.07,-18.89,1,6
16928.156,-0.605,0.151,0.808,9.31,12.05,-16.17,1,6
16928.171,-0.621,0.119,0.831,9.43,10.71,-12.18,1,6
16928.171,-0.582,0.139,0.829,11.81,7.35,-9.43,1,6
16928.187,-0.584,0.118,0.813,13.86,4.67,-10.16,1,6
16928.203,-0.571,0.088,0.824,14.86,3.33,-11.14,1,6
16928.203,-0.576,0.078,0.824,19.68,2.26,-14.44,1,6
16928.218,-0.597,0.071,0.81,24.93,1.31,-17.46,1,6
16928.218,-0.603,0.085,0.799,28.81,0.21,-19.14,1,6
16928.234,-0.636,0.136,0.781,29.94,0.0,-17.88,1,6
16928.25,-0.656,0.148,0.774,24.9,-1.86,-13.21,1,6
16928.25,-0.654,0.132,0.772,17.67,-4.58,-8.24,1,6
16928.265,-0.65,0.106,0.767,14.16,-6.47,-3.97,1,6
16928.281,-0.643,0.068,0.763,14.68,-7.66,-1.59,1,6
16928.281,-0.643,0.035,0.759,17.33,-8.09,-2.32,1,6
16928.296,-0.641,0.008,0.763,22.19,-8.48,-5.55,1,6
16928.312,-0.644,0.008,0.763,29.39,-8.48,-10.16,1,6
16928.312,-0.674,0.057,0.748,34.06,-7.63,-11.99,1,6
16928.328,-0.706,0.087,0.73,31.31,-8.24,-9.58,1,6
16928.328,-0.72,0.1,0.72,23.32,-10.38,-4.18,1,6
16928.343,-0.734,0.082,0.707,15.69,-12.09,2.2,1,6
16928.359,-0.731,0.06,0.698,9.8,-13.06,8.97,1,6
16928.359,-0.726,0.045,0.684,5.83,-12.88,14.8,1,6
16928.375,-0.718,0.029,0.674,1.8,-12.3,19.2,1,6
16928.39,-0.702,0.007,0.668,-3.36,-11.47,21.52,1,6
16928.39,-0.703,-0.014,0.661,-7.39,-9.74,22.31,1,6
16928.406,-0.711,-0.029,0.657,-10.86,-7.57,23.07,1,6
16928.421,-0.71,-0.053,0.665,-14.19,-5.62,23.47,1,6
16928.421,-0.707,-0.08,0.68,-15.59,-3.75,22.4,1,6
16928.437,-0.71,-0.101,0.693,-14.68,-2.59,19.81,1,6
16928.453,-0.711,-0.106,0.707,-13.21,-2.56,16.14,1,6
16928.453,-0.711,-0.108,0.714,-10.68,-3.36,11.54,1,6
16928.468,-0.706,-0.102,0.704,-7.2,-4.36,7.32,1,6
16928.468,-0.692,-0.084,0.691,-4.06,-4.36,3.54,1,6
16928.484,-0.691,-0.047,0.686,-1.74,-3.11,0.37,1,6
16928.5,-0.703,-0.022,0.684,-1.16,-1.92,-1.19,1,6
16928.5,-0.701,0.005,0.689,-2.66,-1.19,-0.95,1,6
16928.515,-0.694,0.023,0.695,-4.27,-0.61,-0.37,1,6
16928.531,-0.689,0.033,0.703,-5.92,0.09,0.67,1,6
16928.531,-0.686,0.036,0.718,-4.79,-0.24,0.49,1,6
16928.546,-0.681,0.035,0.728,-2.5,-0.64,-0.27,1,6
16928.562,-0.679,0.042,0.731,-0.73,-0.85,-0.82,1,6
16928.562,-0.69,0.067,0.726,-0.64,-1.53,-1.04,1,6
16928.578,-0.684,0.065,0.721,-1.25,-2.5,-0.95,1,6
16928.578,-0.682,0.062,0.723,-1.46,-2.72,-1.04,1,6
16928.593,-0.685,0.063,0.719,-0.89,-2.56,-0.85,1,6
16928.609,-0.683,0.076,0.717,-0.76,-2.56,-0.58,1,6
16928.609,-0.687,0.087,0.717,-1.13,-2.44,0.4,1,6
16928.625,-0.68,0.088,0.721,-2.56,-2.99,2.29,1,6
16928.64,-0.669,0.079,0.723,-3.88,-3.39,3.54,1,6
16928.64,-0.664,0.072,0.718,-3.94,-3.02,4.24,1,6
16928.656,-0.667,0.066,0.715,-3.72,-2.14,5.07,1,6
16928.671,-0.672,0.058,0.727,-3.6,-1.37,5.68,1,6
16928.671,-0.684,0.047,0.737,-3.11,-1.34,5.95,1,6
16928.687,-0.684,0.038,0.74,-3.45,-2.84,6.2,1,6
16928.687,-0.676,0.024,0.738,-3.97,-4.39,5.31,1,6
16928.703,-0.672,0.008,0.727,-3.11,-5.37,3.6,1,6
16928.718,-0.667,0.003,0.717,-1.1,-5.04,1.83,1,6
16928.718,-0.656,0.005,0.706,0.64,-3.78,0.46,1,6
16928.734,-0.652,0.008,0.7,1.86,-1.53,-0.58,1,6
16928.75,-0.673,0.022,0.701,2.04,0.79,-1.19,1,6
16928.75,-0.701,0.034,0.707,0.67,2.35,-0.31,1,6
16928.765,-0.709,0.038,0.717,-2.08,1.92,1.89,1,6
16928.781,-0.7,0.036,0.724,-4.67,0.37,3.54,1,6
16928.781,-0.696,0.031,0.722,-5.62,-1.07,3.97,1,6
16928.796,-0.697,0.031,0.725,-5.55,-2.01,4.49,1,6
16928.812,-0.69,0.031,0.722,-5.49,-3.08,4.58,1,6
16928.812,-0.683,0.026,0.714,-5.31,-3.48,4.3,1,6
16928.828,-0.684,0.02,0.71,-4.82,-3.42,3.63,1,6
16928.828,-0.682,0.023,0.705,-4.39,-3.02,2.99,1,6
16928.843,-0.677,0.025,0.701,-4.12,-2.35,2.5,1,6
16928.859,-0.671,0.02,0.7,-3.45,-1.28,1.28,1,6
16928.859,-0.669,0.016,0.707,-1.1,0.37,-0.43,1,6
16928.875,-0.675,0.024,0.712,2.01,1.8,-2.01,1,6
16928.89,-0.686,0.034,0.718,4.0,1.98,-3.17,1,6
16928.906,-0.695,0.038,0.72,4.0,1.31,-3.72,1,6
16928.906,-0.704,0.046,0.724,2.96,0.03,-4.0,1,6
16928.921,-0.699,0.049,0.72,1.89,-1.8,-3.54,1,6
16928.921,-0.684,0.053,0.711,0.15,-3.45,-2.56,1,6
16928.937,-0.676,0.053,0.705,-1.07,-3.57,-1.65,1,6
16928.953,-0.67,0.051,0.702,-1.56,-2.69,-0.61,1,6
16928.953,-0.66,0.049,0.709,-1.59,-1.5,0.37,1,6
16928.968,-0.662,0.046,0.714,-1.19,0.15,0.7,1,6
16928.984,-0.678,0.041,0.724,-0.58,1.77,0.55,1,6
16928.984,-0.685,0.035,0.731,0.15,2.38,0.34,1,6
16929.0,-0.687,0.03,0.733,0.73,1.89,-0.27,1,6
16929.0,-0.687,0.019,0.731,1.37,0.79,-0.82,1,6
16929.015,-0.68,0.017,0.724,1.22,-0.24,-0.67,1,6
16929.031,-0.672,0.02,0.724,-0.15,-0.82,-0.61,1,6
16929.031,-0.67,0.021,0.726,-1.19,-0.95,-1.34,1,6
16929.046,-0.675,0.033,0.728,-1.22,-0.95,-1.71,1,6
16929.062,-0.683,0.042,0.728,-0.52,-1.22,-1.62,1,6
16929.062,-0.682,0.058,0.726,-0.27,-1.59,-0.85,1,6
16929.078,-0.684,0.063,0.722,-1.34,-1.89,0.61,1,6
16929.078,-0.679,0.059,0.727,-3.48,-2.62,2.35,1,6
16929.093,-0.673,0.046,0.73,-4.94,-3.33,3.27,1,6
16929.109,-0.673,0.038,0.73,-4.73,-3.75,3.36,1,6
16929.109,-0.67,0.031,0.727,-3.48,-4.0,3.05,1,6
16929.125,-0.666,0.027,0.72,-1.98,-3.85,2.26,1,6
16929.14,-0.667,0.025,0.716,-0.98,-2.99,1.34,1,6
16929.14,-0.674,0.026,0.711,0.03,-1.98,0.52,1,6
16929.156,-0.672,0.027,0.704,0.67,-1.01,-0.09,1,6
16929.171,-0.671,0.026,0.7,0.98,0.49,-0.64,1,6
16929.171,-0.673,0.028,0.703,1.5,1.95,-1.25,1,6
16929.187,-0.687,0.037,0.714,1.92,3.11,-1.68,1,6
16929.203,-0.699,0.04,0.723,1.59,2.81,-1.46,1,6
16929.203,-0.696,0.047,0.73,0.52,1.68,-0.67,1,6
16929.218,-0.697,0.047,0.733,-0.46,0.09,-0.09,1,6
16929.218,-0.691,0.043,0.729,-1.37,-1.68,0.34,1,6
16929.234,-0.677,0.036,0.725,-1.59,-3.08,0.55,1,6
16929.25,-0.671,0.031,0.714,-1.1,-3.27,0.27,1,6
16929.25,-0.67,0.025,0.713,-0.52,-2.62,0.03,1,6
16929.265,-0.676,0.024,0.715,-0.24,-1.71,-0.21,1,6
16929.281,-0.678,0.025,0.717,-0.31,-1.22,-0.4,1,6
16929.281,-0.679,0.024,0.717,-0.85,-0.82,-0.43,1,6
16929.296,-0.683,0.019,0.722,-1.16,-0.55,-0.64,1,6
16929.312,-0.681,0.017,0.731,-0.73,-0.52,-1.34,1,6
16929.312,-0.679,0.02,0.733,0.37,-0.73,-2.14,1,6
16929.328,-0.678,0.023,0.734,1.07,-1.34,-2.87,1,6
16929.343,-0.673,0.03,0.734,1.5,-2.01,-3.81,1,6
16929.343,-0.674,0.036,0.74,2.08,-2.5,-4.67,1,6
16929.359,-0.678,0.043,0.742,2.69,-3.57,-5.22,1,6
16929.359,-0.685,0.047,0.738,2.66,-4.67,-5.58,1,6
16929.375,-0.684,0.047,0.736,1.95,-6.04,-5.89,1,6
16929.39,-0.679,0.044,0.722,2.23,-6.78,-5.4,1,6
16929.39,-0.675,0.047,0.703,1.46,-6.16,-3.78,1,6
