timestamp,ax,ay,az,gx,gy,gz,orient_label,motion_label
16909.156,-0.61,0.046,0.759,1.62,-8.18,2.08,1,6
16909.171,-0.625,0.047,0.764,2.41,-5.89,1.98,1,6
16909.171,-0.636,0.05,0.775,2.99,-4.15,2.56,1,6
16909.187,-0.636,0.057,0.783,3.11,-3.27,3.14,1,6
16909.187,-0.63,0.058,0.782,3.23,-2.96,3.94,1,6
16909.203,-0.622,0.057,0.776,2.17,-2.81,5.01,1,6
16909.218,-0.612,0.057,0.783,-0.12,-2.5,6.2,1,6
16909.218,-0.61,0.046,0.789,-1.92,-2.2,6.93,1,6
16909.234,-0.61,0.034,0.791,-2.84,-2.04,7.11,1,6
16909.25,-0.605,0.027,0.794,-2.32,-1.77,6.38,1,6
16909.265,-0.603,0.024,0.787,-1.19,-1.25,4.7,1,6
16909.265,-0.603,0.03,0.785,-0.27,-0.55,2.78,1,6
16909.281,-0.598,0.036,0.786,0.43,-0.09,1.86,1,6
16909.281,-0.596,0.042,0.783,0.58,0.64,1.62,1,6
16909.296,-0.604,0.042,0.777,-0.12,1.59,1.71,1,6
16909.296,-0.595,0.035,0.775,-1.56,2.29,2.53,1,6
16909.312,-0.581,0.031,0.78,-2.17,3.48,2.72,1,6
16909.328,-0.61,0.033,0.802,-0.76,5.77,2.41,1,6
16909.343,-0.608,0.039,0.809,-1.31,5.19,2.41,1,6
16909.359,-0.605,0.039,0.815,-2.5,3.81,1.89,1,6
16909.359,-0.603,0.04,0.823,-3.57,1.95,1.62,1,6
16909.375,-0.591,0.039,0.813,-4.3,0.06,1.62,1,6
16909.39,-0.581,0.036,0.799,-4.27,-0.79,1.01,1,6
16909.39,-0.581,0.038,0.793,-3.3,-0.49,0.43,1,6
16909.406,-0.577,0.044,0.786,-2.75,0.24,0.49,1,6
16909.406,-0.582,0.045,0.782,-2.78,1.37,0.7,1,6
16909.421,-0.598,0.048,0.781,-3.27,2.29,1.16,1,6
16909.437,-0.605,0.047,0.79,-4.76,2.26,1.95,1,6
16909.437,-0.599,0.04,0.79,-5.95,1.65,2.72,1,6
16909.453,-0.592,0.03,0.784,-5.89,1.37,2.84,1,6
16909.468,-0.592,0.029,0.792,-5.16,1.95,2.29,1,6
16909.484,-0.6,0.034,0.8,-4.64,1.86,1.53,1,6
16909.484,-0.606,0.034,0.795,-5.04,0.89,1.07,1,6
16909.5,-0.603,0.022,0.783,-6.65,-0.12,0.0,1,6
16909.515,-0.602,0.019,0.779,-5.68,0.03,-1.34,1,6
16909.531,-0.6,0.023,0.775,-4.27,0.61,-2.2,1,6
16909.531,-0.596,0.028,0.777,-3.45,1.34,-3.11,1,6
16909.546,-0.596,0.03,0.782,-3.05,1.95,-3.85,1,6
16909.562,-0.597,0.027,0.784,-2.59,2.38,-4.12,1,6
16909.562,-0.599,0.027,0.784,-2.14,2.84,-4.21,1,6
16909.578,-0.599,0.028,0.793,-2.01,2.9,-4.61,1,6
16909.578,-0.601,0.027,0.792,-1.89,2.44,-4.58,1,6
16909.593,-0.591,0.024,0.782,-2.56,1.89,-3.48,1,6
16909.609,-0.58,0.02,0.775,-4.15,2.01,-2.11,1,6
16909.609,-0.581,0.005,0.771,-5.58,2.66,-1.1,1,6
16909.625,-0.571,-0.006,0.773,-6.65,3.63,-0.34,1,6
16909.64,-0.564,-0.012,0.789,-7.54,4.67,-0.73,1,6
16909.64,-0.557,-0.02,0.813,-7.42,5.37,-1.43,1,6
16909.656,-0.553,-0.023,0.833,-6.35,4.88,-2.96,1,6
16909.671,-0.558,-0.031,0.884,-1.53,2.29,-7.17,1,6
16909.687,-0.546,-0.03,0.9,3.66,-0.55,-9.64,1,6
16909.703,-0.54,-0.021,0.919,9.8,-3.66,-12.45,1,6
16909.703,-0.531,-0.013,0.928,15.56,-7.48,-15.41,1,6
16909.718,-0.511,0.004,0.917,19.38,-11.75,-18.34,1,6
16909.718,-0.497,0.017,0.903,20.63,-15.17,-21.06,1,6
16909.734,-0.472,0.027,0.9,20.39,-17.82,-23.53,1,6
16909.75,-0.464,0.03,0.898,22.4,-19.38,-26.12,1,6
16909.75,-0.446,0.047,0.909,26.4,-20.17,-27.77,1,6
16909.765,-0.438,0.077,0.92,29.97,-21.67,-29.36,1,6
16909.781,-0.418,0.091,0.925,33.6,-23.1,-30.27,1,6
16909.796,-0.412,0.105,0.939,36.13,-25.51,-31.43,1,6
16909.796,-0.396,0.118,0.955,39.28,-28.08,-32.14,1,6
16909.812,-0.392,0.135,0.965,43.37,-29.94,-32.44,1,6
16909.812,-0.399,0.168,0.975,46.27,-31.95,-31.68,1,6
16909.828,-0.402,0.189,0.977,47.18,-35.04,-29.88,1,6
16909.843,-0.411,0.222,0.999,48.83,-44.59,-24.51,1,6
16909.859,-0.434,0.224,1.0,50.11,-48.07,-21.73,1,6
16909.875,-0.406,0.262,0.996,52.92,-50.36,-19.71,1,6
16909.875,-0.387,0.28,1.004,56.4,-52.61,-17.88,1,6
16909.89,-0.379,0.305,1.001,61.77,-54.05,-15.72,1,6
16909.89,-0.38,0.318,0.989,66.87,-54.93,-13.15,1,6
16909.906,-0.375,0.342,0.993,71.08,-55.51,-9.98,1,6
16909.921,-0.394,0.358,1.0,75.69,-56.37,-6.65,1,6
16909.921,-0.41,0.356,1.018,80.14,-58.66,-2.17,1,6
16909.937,-0.417,0.357,1.024,84.63,-62.29,3.17,1,6
16909.953,-0.427,0.382,1.012,86.92,-65.95,9.22,1,6
16909.953,-0.438,0.397,1.0,85.79,-71.23,13.58,1,6
16909.968,-0.425,0.404,0.975,83.35,-77.61,17.49,1,6
16909.968,-0.408,0.421,0.948,79.96,-82.13,21.58,1,6
16909.984,-0.379,0.418,0.911,77.7,-84.96,25.82,1,6
16910.0,-0.346,0.408,0.87,76.85,-84.44,29.79,1,6
16910.015,-0.3,0.409,0.822,80.9,-73.34,36.23,1,6
16910.031,-0.305,0.412,0.811,85.12,-65.13,38.36,1,6
16910.046,-0.336,0.426,0.819,89.79,-57.16,41.08,1,6
16910.046,-0.374,0.459,0.844,93.17,-52.06,45.08,1,6
16910.062,-0.418,0.492,0.855,94.33,-51.58,50.2,1,6
16910.062,-0.452,0.528,0.857,88.93,-55.02,57.59,1,6
16910.078,-0.446,0.557,0.877,76.14,-62.14,66.9,1,6
16910.078,-0.405,0.544,0.866,61.92,-70.38,75.96,1,6
16910.093,-0.361,0.503,0.839,49.56,-74.83,83.07,1,6
16910.109,-0.32,0.46,0.815,41.87,-74.56,88.02,1,6
16910.125,-0.275,0.42,0.798,39.37,-70.89,90.43,1,6
16910.125,-0.242,0.393,0.794,41.99,-63.84,89.91,1,6
16910.14,-0.23,0.372,0.799,49.13,-55.24,87.22,1,6
16910.14,-0.244,0.368,0.803,58.84,-46.39,84.14,1,6
16910.156,-0.286,0.383,0.815,68.0,-38.94,81.42,1,6
16910.171,-0.333,0.406,0.815,72.63,-35.74,79.35,1,6
16910.171,-0.349,0.442,0.82,68.85,-37.75,78.43,1,6
16910.187,-0.34,0.459,0.824,59.48,-43.52,78.37,1,6
16910.203,-0.305,0.459,0.817,48.4,-49.65,78.59,1,6
16910.203,-0.258,0.432,0.801,38.27,-53.16,78.98,1,6
16910.218,-0.214,0.406,0.79,31.5,-52.58,78.77,1,6
16910.218,-0.172,0.391,0.792,29.48,-48.16,76.94,1,6
16910.234,-0.159,0.367,0.79,32.11,-40.71,73.73,1,6
16910.25,-0.175,0.336,0.775,37.26,-32.9,69.19,1,6
16910.25,-0.202,0.323,0.765,42.54,-27.13,64.0,1,6
16910.265,-0.236,0.322,0.754,46.75,-23.62,58.08,1,6
16910.281,-0.27,0.336,0.743,47.85,-23.38,52.83,1,6
16910.281,-0.27,0.358,0.729,43.64,-26.73,48.74,1,6
16910.296,-0.236,0.383,0.722,34.36,-30.52,45.26,1,6
16910.312,-0.194,0.411,0.723,22.71,-31.04,42.27,1,6
16910.312,-0.161,0.414,0.729,12.05,-26.86,39.46,1,6
16910.328,-0.139,0.411,0.747,4.39,-19.75,37.26,1,6
16910.328,-0.141,0.409,0.782,1.31,-12.12,34.97,1,6
16910.343,-0.173,0.4,0.822,4.24,-6.74,32.81,1,6
16910.359,-0.201,0.394,0.84,11.05,-5.1,31.8,1,6
16910.359,-0.225,0.411,0.849,17.64,-6.74,32.26,1,6
16910.375,-0.241,0.424,0.84,20.63,-12.09,32.56,1,6
16910.39,-0.236,0.44,0.826,16.97,-21.09,31.37,1,6
16910.39,-0.198,0.442,0.803,9.8,-29.97,28.87,1,6
16910.406,-0.161,0.437,0.773,3.27,-34.55,25.57,1,6
16910.421,-0.125,0.427,0.753,0.37,-33.36,22.49,1,6
16910.421,-0.1,0.436,0.739,0.79,-27.01,19.87,1,6
16910.437,-0.088,0.453,0.729,2.14,-17.52,17.4,1,6
16910.453,-0.088,0.465,0.733,2.29,-7.2,15.17,1,6
16910.453,-0.097,0.479,0.748,1.31,2.32,12.88,1,6
16910.468,-0.121,0.498,0.761,0.15,9.95,10.62,1,6
16910.468,-0.15,0.513,0.766,-1.16,14.4,9.16,1,6
16910.484,-0.159,0.533,0.782,-3.3,16.42,9.52,1,6
16910.5,-0.16,0.553,0.798,-5.86,17.24,10.5,1,6
16910.515,-0.164,0.565,0.819,-7.9,16.6,12.02,1,6
16910.515,-0.166,0.563,0.834,-7.97,15.08,14.83,1,6
16910.531,-0.16,0.571,0.833,-7.69,13.12,18.56,1,6
16910.531,-0.141,0.581,0.828,-8.55,10.83,21.73,1,6
16910.546,-0.115,0.589,0.828,-11.84,8.0,22.8,1,6
16910.562,-0.097,0.59,0.82,-16.11,6.56,22.77,1,6
16910.562,-0.093,0.572,0.822,-18.83,6.74,22.77,1,6
16910.578,-0.097,0.551,0.839,-19.32,7.54,23.83,1,6
16910.578,-0.115,0.534,0.877,-17.52,6.78,24.9,1,6
16910.593,-0.134,0.524,0.91,-12.88,1.37,25.91,1,6
16910.609,-0.123,0.513,0.921,-4.97,-6.84,28.41,1,6
16910.609,-0.111,0.521,0.898,1.77,-14.83,30.37,1,6
16910.625,-0.09,0.538,0.87,3.66,-22.34,30.4,1,6
16910.64,-0.046,0.551,0.85,0.76,-29.11,27.92,1,6
16910.64,-0.004,0.563,0.837,-4.88,-32.93,23.38,1,6
16910.656,0.029,0.57,0.841,-10.1,-33.11,18.1,1,6
16910.671,0.047,0.587,0.855,-12.91,-30.12,13.95,1,6
16910.671,0.059,0.597,0.867,-12.63,-25.73,11.23,1,6
16910.687,0.071,0.608,0.876,-10.53,-20.69,9.58,1,6
16910.703,0.08,0.625,0.877,-7.02,-15.66,8.73,1,6
16910.703,0.088,0.634,0.867,-3.72,-10.96,7.78,1,6
16910.718,0.087,0.632,0.853,-1.86,-6.84,6.56,1,6
16910.718,0.081,0.626,0.834,-0.85,-4.15,5.31,1,6
16910.734,0.09,0.62,0.804,-1.13,-2.29,4.43,1,6
16910.75,0.102,0.612,0.781,-3.42,0.15,2.99,1,6
16910.75,0.105,0.595,0.764,-6.01,3.78,1.04,1,6
16910.765,0.101,0.577,0.758,-8.21,8.12,-1.07,1,6
16910.781,0.093,0.562,0.762,-8.85,12.51,-2.44,1,6
16910.781,0.074,0.546,0.769,-7.54,16.27,-3.3,1,6
16910.796,0.066,0.543,0.784,-5.43,18.34,-4.27,1,6
16910.812,0.057,0.55,0.801,-4.15,19.29,-5.13,1,6
16910.812,0.045,0.564,0.823,-4.36,18.59,-5.86,1,6
16910.828,0.037,0.565,0.837,-10.32,11.2,-6.38,1,6
16910.828,-0.005,0.603,0.879,-17.15,2.56,-4.03,1,6
16910.843,0.003,0.643,0.906,-21.39,-5.07,-1.4,1,6
16910.859,0.033,0.621,0.898,-23.56,-8.48,-0.46,1,6
16910.859,0.052,0.578,0.86,-22.52,-9.46,-0.79,1,6
16910.875,0.055,0.553,0.835,-18.07,-8.36,-1.5,1,6
16910.89,0.072,0.539,0.807,-11.93,-5.55,-3.51,1,6
16910.89,0.025,0.491,0.799,-5.28,-0.79,-8.21,1,6
16910.906,-0.091,0.613,0.87,-7.9,-1.98,-12.36,1,6
16910.921,-0.032,0.655,0.892,-12.82,-12.27,-11.44,1,6
16910.921,-0.04,0.618,0.848,-8.24,-15.84,-9.83,1,6
16910.937,-0.014,0.617,0.828,-5.77,-15.53,-4.27,1,6
16910.953,0.013,0.601,0.827,-4.15,-12.82,1.28,1,6
16910.953,0.001,0.585,0.841,-2.81,-9.49,6.01,1,6
16910.968,-0.005,0.579,0.863,-2.35,-8.94,10.86,1,6
16910.984,0.004,0.562,0.873,-4.3,-11.29,15.32,1,6
16910.984,0.019,0.537,0.863,-8.18,-15.14,16.51,1,6
16911.0,0.051,0.512,0.859,-12.82,-19.17,15.05,1,6
16911.0,0.034,0.506,0.885,-13.15,-20.81,13.0,1,6
16911.031,0.125,0.434,0.804,-5.83,-21.15,11.35,1,6
16911.046,0.083,0.47,0.819,-1.28,-14.25,9.67,1,6
16911.046,0.108,0.531,0.843,1.62,-10.65,13.21,1,6
16911.046,0.119,0.479,0.819,4.15,-7.51,13.79,1,6
16911.062,0.113,0.464,0.821,0.12,-5.92,11.02,1,6
16911.078,0.108,0.474,0.834,-0.15,-4.18,9.58,1,6
16911.078,0.107,0.458,0.842,0.18,-4.58,7.6,1,6
16911.093,0.109,0.459,0.848,1.34,-6.16,5.25,1,6
16911.109,0.122,0.463,0.838,3.88,-7.66,3.51,1,6
16911.109,0.138,0.467,0.825,5.07,-8.48,1.8,1,6
16911.125,0.156,0.478,0.821,4.33,-7.97,0.03,1,6
16911.14,0.159,0.485,0.819,2.96,-6.65,-1.46,1,6
16911.14,0.17,0.484,0.819,0.89,-5.34,-2.17,1,6
16911.156,0.181,0.486,0.819,-1.4,-3.3,-2.84,1,6
16911.171,0.18,0.484,0.815,-2.72,-0.73,-4.3,1,6
16911.171,0.167,0.479,0.818,-2.84,1.83,-6.23,1,6
16911.187,0.145,0.484,0.834,-1.83,3.33,-8.0,1,6
16911.187,0.126,0.492,0.847,0.58,3.51,-9.22,1,6
16911.203,0.111,0.508,0.857,3.11,2.38,-9.8,1,6
16911.218,0.104,0.521,0.867,5.16,-0.03,-10.1,1,6
16911.218,0.094,0.534,0.864,6.9,-2.44,-9.7,1,6
16911.234,0.089,0.542,0.854,6.9,-4.88,-8.73,1,6
16911.25,0.095,0.558,0.845,4.82,-6.84,-7.45,1,6
16911.25,0.106,0.569,0.836,0.64,-8.76,-6.47,1,6
16911.265,0.109,0.544,0.818,-2.96,-9.86,-6.53,1,6
16911.281,0.118,0.528,0.807,-4.91,-9.22,-6.47,1,6
16911.281,0.123,0.517,0.799,-4.03,-7.02,-6.47,1,6
16911.296,0.118,0.498,0.788,-0.89,-3.63,-7.26,1,6
16911.312,0.104,0.487,0.798,2.9,-0.34,-8.51,1,6
16911.312,0.088,0.469,0.818,6.78,1.16,-10.19,1,6
16911.328,0.081,0.46,0.833,9.83,0.61,-12.45,1,6
16911.328,0.08,0.459,0.85,13.89,-0.95,-14.77,1,6
16911.343,0.08,0.49,0.849,18.46,-2.81,-16.94,1,6
16911.359,0.134,0.487,0.794,22.19,-2.23,-16.91,1,6
16911.375,-0.004,0.518,0.83,22.89,1.86,-17.43,1,6
16911.375,0.019,0.73,0.951,8.94,-4.46,-9.46,1,6
16911.39,0.065,0.673,0.928,5.07,-12.21,1.13,1,6
16911.39,0.089,0.637,0.892,0.52,-14.19,8.91,1,6
16911.406,0.122,0.604,0.883,-1.8,-13.25,14.22,1,6
16911.421,0.103,0.558,0.867,2.04,-10.99,14.59,1,6
16911.437,0.1,0.549,0.876,5.62,-10.71,13.7,1,6
16911.437,0.083,0.552,0.861,9.19,-12.6,11.26,1,6
16911.453,0.082,0.552,0.856,9.98,-16.08,9.64,1,6
16911.453,0.1,0.549,0.845,7.81,-20.02,8.45,1,6
16911.468,0.098,0.562,0.846,4.27,-22.58,7.51,1,6
16911.484,0.15,0.601,0.811,0.12,-25.03,9.34,1,6
16911.484,0.189,0.478,0.737,4.97,-18.92,10.62,1,6
16911.5,0.125,0.529,0.772,4.03,-10.22,9.16,1,6
16911.5,0.152,0.549,0.801,0.21,-8.64,9.4,1,6
16911.515,0.158,0.5,0.794,-0.43,-7.35,7.6,1,6
16911.531,0.168,0.514,0.789,0.52,-4.39,7.87,1,6
16911.531,0.16,0.514,0.8,2.44,-1.86,6.71,1,6
16911.546,0.143,0.516,0.816,3.6,-1.5,5.43,1,6
16911.546,0.148,0.529,0.813,3.54,-2.93,5.16,1,6
16911.562,0.147,0.535,0.81,1.5,-4.49,4.58,1,6
16911.578,0.158,0.53,0.81,-1.83,-6.26,4.12,1,6
16911.578,0.173,0.534,0.807,-4.3,-6.44,3.66,1,6
16911.593,0.177,0.529,0.798,-4.55,-4.64,2.99,1,6
16911.609,0.174,0.52,0.787,-4.0,-1.89,2.38,1,6
16911.625,0.169,0.516,0.775,-2.75,0.85,1.16,1,6
16911.625,0.169,0.507,0.755,-1.62,3.51,-0.64,1,6
16911.64,0.168,0.507,0.751,-0.92,6.9,-3.05,1,6
16911.64,0.161,0.5,0.754,0.55,10.5,-5.46,1,6
16911.656,0.15,0.502,0.761,2.93,14.04,-7.48,1,6
16911.671,0.131,0.502,0.748,6.62,17.21,-8.91,1,6
16911.671,0.119,0.503,0.741,9.37,20.02,-9.95,1,6
16911.687,0.107,0.519,0.742,8.58,22.03,-11.32,1,6
16911.687,0.07,0.528,0.78,3.48,22.55,-13.4,1,6
16911.718,0.109,0.574,0.859,-17.4,10.47,-13.15,1,6
16911.734,0.154,0.553,0.815,-19.17,10.32,-13.43,1,6
16911.734,0.197,0.476,0.805,-13.46,18.77,-15.41,1,6
16911.75,-0.022,0.616,0.967,-10.04,26.52,-19.81,1,6
16911.75,0.026,0.767,1.084,-12.88,14.59,-11.96,1,6
16911.765,0.04,0.667,1.005,-1.68,3.57,-3.81,1,6
16911.781,0.071,0.607,0.909,2.66,-1.56,3.81,1,6
16911.781,0.095,0.569,0.866,6.81,-1.25,8.21,1,6
16911.796,0.069,0.533,0.828,10.41,0.06,7.84,1,6
16911.812,0.035,0.534,0.819,6.81,-7.66,6.26,1,6
16911.812,0.022,0.531,0.843,5.43,-13.64,8.0,1,6
16911.828,0.048,0.544,0.828,3.54,-17.03,9.22,1,6
16911.843,0.042,0.545,0.821,-1.83,-19.78,11.54,1,6
16911.843,0.131,0.47,0.744,2.56,-13.98,10.35,1,6
16911.859,0.074,0.531,0.784,1.62,-8.03,7.84,1,6
16911.859,0.116,0.529,0.826,-1.37,-8.94,6.81,1,6
16911.89,0.119,0.514,0.816,4.85,-8.85,6.2,1,6
16911.906,0.141,0.522,0.796,8.21,-7.11,6.62,1,6
16911.906,0.132,0.521,0.799,8.06,-4.94,5.4,1,6
16911.921,0.133,0.524,0.795,7.48,-3.54,4.82,1,6
16911.921,0.129,0.525,0.795,5.65,-2.56,4.33,1,6
16911.937,0.132,0.513,0.792,4.27,-1.89,4.52,1,6
16911.953,0.143,0.514,0.786,3.57,-1.1,4.7,1,6
16911.953,0.153,0.521,0.79,2.87,-0.03,3.88,1,6
16911.968,0.153,0.532,0.8,1.68,1.71,2.17,1,6
16911.968,0.137,0.544,0.811,0.46,2.81,0.98,1,6
16911.984,0.137,0.546,0.817,-1.43,2.5,0.98,1,6
16912.0,0.139,0.544,0.824,-3.63,1.56,1.37,1,6
16912.0,0.144,0.538,0.825,-4.7,0.92,1.46,1,6
16912.015,0.144,0.532,0.821,-4.36,0.82,1.28,1,6
16912.031,0.144,0.527,0.823,-2.84,1.25,1.46,1,6
16912.031,0.147,0.525,0.82,-0.89,1.71,1.43,1,6
16912.062,0.128,0.548,0.844,1.25,1.62,0.4,1,6
16912.062,0.119,0.561,0.858,0.43,-0.73,0.49,1,6
16912.078,0.121,0.574,0.872,-1.07,-4.24,0.98,1,6
16912.078,0.124,0.581,0.885,-1.37,-7.26,2.04,1,6
16912.093,0.131,0.586,0.893,0.06,-9.43,3.39,1,6
16912.109,0.143,0.592,0.892,1.59,-10.8,5.16,1,6
16912.125,0.15,0.593,0.887,2.75,-10.86,6.68,1,6
16912.125,0.152,0.583,0.881,3.69,-10.47,7.63,1,6
16912.14,0.151,0.572,0.871,4.0,-10.1,8.0,1,6
16912.14,0.15,0.56,0.862,3.88,-10.04,7.45,1,6
16912.156,0.144,0.548,0.862,3.81,-9.98,6.26,1,6
16912.171,0.138,0.538,0.862,4.24,-10.71,5.04,1,6
16912.187,0.145,0.531,0.865,4.82,-12.42,4.03,1,6
16912.187,0.143,0.531,0.859,5.68,-13.98,2.72,1,6
16912.187,0.142,0.529,0.854,6.47,-15.59,1.71,1,6
16912.203,0.155,0.532,0.847,5.62,-17.58,0.24,1,6
16912.218,0.169,0.537,0.828,4.24,-18.8,-1.68,1,6
16912.218,0.176,0.534,0.819,3.42,-18.52,-3.3,1,6
16912.234,0.182,0.536,0.821,3.45,-16.97,-4.21,1,6
16912.25,0.185,0.549,0.828,5.04,-14.62,-4.61,1,6
16912.25,0.171,0.569,0.846,6.74,-12.54,-4.27,1,6
16912.265,0.159,0.578,0.863,7.72,-12.51,-2.78,1,6
16912.281,0.154,0.583,0.863,8.0,-14.5,-0.55,1,6
16912.281,0.163,0.586,0.858,6.23,-17.64,1.83,1,6
16912.296,0.188,0.583,0.843,3.42,-20.75,3.3,1,6
16912.312,0.202,0.57,0.826,1.04,-22.03,3.88,1,6
16912.312,0.21,0.558,0.823,-0.27,-21.7,4.18,1,6
16912.328,0.218,0.556,0.826,0.06,-20.36,4.7,1,6
16912.328,0.222,0.558,0.833,1.56,-18.86,5.25,1,6
16912.343,0.218,0.571,0.842,1.65,-17.98,5.65,1,6
16912.359,0.221,0.578,0.855,0.7,-18.56,6.44,1,6
16912.359,0.226,0.579,0.867,0.64,-19.65,7.57,1,6
16912.375,0.233,0.588,0.874,1.5,-21.0,9.19,1,6
16912.39,0.251,0.605,0.879,1.98,-22.58,11.05,1,6
16912.39,0.271,0.62,0.892,1.43,-24.11,12.88,1,6
16912.406,0.282,0.631,0.912,-0.12,-25.3,14.71,1,6
16912.421,0.298,0.638,0.939,-2.38,-26.83,16.69,1,6
16912.421,0.319,0.633,0.968,-3.05,-28.66,18.04,1,6
16912.437,0.347,0.615,0.985,-1.04,-30.92,18.13,1,6
16912.453,0.389,0.597,1.008,4.36,-33.36,15.66,1,6
16912.453,0.436,0.585,1.043,14.22,-34.97,8.88,1,6
16912.468,0.464,0.579,1.081,29.94,-36.26,-3.08,1,6
16912.468,0.463,0.594,1.114,50.26,-38.06,-17.61,1,6
16912.484,0.433,0.644,1.116,71.11,-41.54,-30.24,1,6
16912.5,0.402,0.713,1.087,87.04,-47.76,-36.53,1,6
16912.5,0.394,0.793,1.043,92.84,-56.37,-35.0,1,6
16912.515,0.395,0.869,0.982,86.7,-66.07,-27.68,1,6
16912.531,0.42,0.892,0.932,72.12,-75.29,-16.39,1,6
16912.546,0.443,0.89,0.894,54.81,-81.88,-2.99,1,6
16912.546,0.451,0.869,0.862,40.35,-85.57,9.49,1,6
16912.562,0.433,0.788,0.817,26.25,-89.88,27.59,1,6
16912.578,0.426,0.761,0.797,26.55,-92.07,32.29,1,6
16912.578,0.418,0.748,0.757,28.72,-94.36,34.06,1,6
16912.593,0.41,0.748,0.726,30.52,-95.92,34.09,1,6
16912.609,0.406,0.758,0.704,32.17,-96.13,33.42,1,6
16912.625,0.388,0.767,0.676,33.11,-94.64,33.6,1,6
16912.625,0.373,0.771,0.656,33.3,-92.78,35.46,1,6
16912.64,0.358,0.783,0.645,32.72,-90.55,38.61,1,6
16912.64,0.342,0.783,0.623,31.53,-88.5,42.39,1,6
16912.656,0.329,0.774,0.611,29.36,-86.03,47.03,1,6
16912.671,0.32,0.759,0.599,26.95,-83.68,52.31,1,6
16912.671,0.314,0.741,0.574,24.81,-81.94,57.71,1,6
16912.687,0.311,0.725,0.551,21.7,-80.51,62.75,1,6
16912.703,0.32,0.708,0.535,17.73,-79.44,66.62,1,6
16912.703,0.339,0.689,0.516,14.37,-78.25,69.28,1,6
16912.718,0.358,0.664,0.491,12.33,-76.57,71.41,1,6
16912.734,0.41,0.63,0.469,10.22,-70.65,74.19,1,6
16912.75,0.433,0.615,0.466,9.83,-67.02,74.98,1,6
16912.75,0.465,0.604,0.469,8.94,-64.79,75.41,1,6
16912.765,0.492,0.599,0.463,7.84,-64.42,75.62,1,6
16912.781,0.546,0.576,0.464,6.23,-65.28,75.9,1,6
16912.796,0.596,0.554,0.452,7.9,-66.59,75.01,1,6
16912.796,0.648,0.563,0.429,13.18,-63.11,67.38,1,6
16912.812,0.667,0.541,0.403,13.43,-57.59,64.36,1,6
16912.812,0.666,0.512,0.39,14.07,-52.19,62.29,1,6
16912.828,0.685,0.503,0.365,14.44,-46.36,59.66,1,6
16912.828,0.68,0.481,0.355,11.41,-41.99,57.71,1,6
16912.843,0.68,0.461,0.348,8.64,-40.1,56.25,1,6
16912.859,0.681,0.449,0.332,7.69,-39.7,54.63,1,6
16912.875,0.679,0.436,0.317,5.89,-38.21,53.16,1,6
16912.875,0.67,0.414,0.305,2.59,-35.25,52.28,1,6
16912.89,0.666,0.402,0.299,-1.83,-31.25,51.52,1,6
16912.906,0.664,0.388,0.287,-8.7,-22.86,45.38,1,6
16912.921,0.666,0.39,0.289,-9.49,-18.8,40.1,1,6
16912.921,0.662,0.4,0.319,-6.47,-14.25,34.09,1,6
16912.937,0.636,0.405,0.342,0.37,-10.19,28.41,1,6
16912.953,0.622,0.426,0.356,8.21,-8.15,24.45,1,6
16912.953,0.605,0.449,0.358,15.05,-9.25,22.0,1,6
16912.968,0.61,0.478,0.346,19.04,-12.88,21.82,1,6
16912.968,0.619,0.512,0.339,17.98,-17.49,24.2,1,6
16912.984,0.639,0.541,0.332,11.99,-21.12,28.87,1,6
16913.0,0.671,0.554,0.318,1.65,-22.03,33.17,1,6
16913.015,0.687,0.537,0.323,-9.0,-19.56,37.54,1,6
16913.015,0.69,0.526,0.342,-16.57,-14.77,42.39,1,6
16913.031,0.689,0.507,0.37,-20.63,-9.98,47.49,1,6
16913.031,0.675,0.476,0.386,-22.61,-8.12,51.48,1,6
16913.046,0.692,0.451,0.398,-23.59,-9.28,53.01,1,6
16913.062,0.69,0.429,0.411,-23.22,-11.66,51.91,1,6
16913.078,0.724,0.394,0.424,-17.82,-16.85,48.04,1,6
16913.093,0.726,0.398,0.426,-14.59,-17.37,45.44,1,6
16913.093,0.739,0.374,0.42,-11.72,-18.16,41.72,1,6
16913.109,0.761,0.351,0.408,-8.67,-19.47,37.87,1,6
16913.109,0.781,0.328,0.391,-3.81,-19.78,34.36,1,6
16913.125,0.783,0.304,0.381,0.76,-19.35,31.19,1,6
16913.14,0.786,0.285,0.375,2.99,-21.49,28.53,1,6
16913.14,0.799,0.277,0.366,1.62,-25.7,25.76,1,6
16913.156,0.793,0.279,0.373,-2.56,-30.79,22.89,1,6
16913.171,0.811,0.267,0.375,-9.67,-37.72,20.63,1,6
16913.171,0.836,0.269,0.415,-17.82,-42.54,19.71,1,6
16913.187,0.856,0.257,0.449,-23.41,-43.09,22.1,1,6
16913.203,0.864,0.248,0.485,-30.34,-39.4,27.07,1,6
16913.203,0.837,0.239,0.539,-39.83,-36.68,31.16,1,6
16913.218,0.808,0.224,0.585,-48.55,-41.84,30.18,1,6
16913.234,0.808,0.198,0.583,-52.64,-53.8,24.69,1,6
16913.234,0.807,0.166,0.558,-49.81,-66.56,14.83,1,6
16913.25,0.81,0.151,0.52,-39.64,-77.85,1.71,1,6
16913.25,0.827,0.164,0.456,-22.98,-87.04,-14.13,1,6
16913.265,0.839,0.183,0.367,-2.35,-92.96,-31.56,1,6
16913.281,0.835,0.195,0.268,19.17,-94.42,-48.71,1,6
16913.281,0.841,0.225,0.182,38.79,-90.67,-64.3,1,6
16913.296,0.836,0.259,0.112,55.02,-81.21,-77.12,1,6
16913.312,0.815,0.3,0.077,66.07,-68.27,-86.86,1,6
16913.312,0.778,0.36,0.063,71.9,-54.99,-93.75,1,6
16913.328,0.744,0.398,0.068,74.47,-44.28,-97.66,1,6
16913.328,0.704,0.442,0.085,74.86,-37.23,-99.09,1,6
16913.343,0.665,0.487,0.106,73.31,-34.36,-99.03,1,6
16913.359,0.655,0.5,0.11,71.5,-34.55,-97.69,1,6
16913.359,0.654,0.523,0.115,71.41,-33.81,-94.85,1,6
16913.375,0.648,0.555,0.09,71.32,-31.8,-89.97,1,6
16913.39,0.654,0.576,0.048,67.69,-28.84,-83.71,1,6
16913.39,0.67,0.589,0.026,62.35,-24.87,-77.3,1,6
16913.406,0.682,0.598,-0.005,57.41,-19.53,-71.26,1,6
16913.421,0.693,0.617,-0.02,50.69,-13.03,-64.58,1,6
16913.421,0.697,0.644,-0.02,41.29,-5.92,-55.51,1,6
16913.437,0.706,0.694,0.0,29.76,0.92,-44.8,1,6
16913.437,0.714,0.727,0.031,16.72,8.03,-31.95,1,6
16913.453,0.719,0.733,0.08,4.27,13.76,-16.94,1,6
16913.468,0.728,0.733,0.133,-7.29,17.15,-0.79,1,6
16913.484,0.743,0.727,0.185,-17.3,16.79,13.0,1,6
16913.484,0.76,0.703,0.215,-24.54,14.5,24.93,1,6
16913.5,0.793,0.671,0.235,-30.24,10.62,34.52,1,6
16913.5,0.831,0.649,0.245,-33.91,6.23,40.96,1,6
16913.515,0.874,0.628,0.247,-36.59,3.94,45.08,1,6
16913.531,0.914,0.61,0.256,-39.46,5.43,47.55,1,6
16913.531,0.932,0.603,0.308,-41.35,9.95,48.07,1,6
16913.546,0.918,0.585,0.36,-41.81,14.25,46.21,1,6
16913.562,0.906,0.587,0.364,-43.28,14.4,41.93,1,6
16913.562,0.9,0.627,0.413,-45.53,10.13,36.9,1,6
16913.578,0.887,0.637,0.45,-43.18,4.49,30.67,1,6
16913.578,0.889,0.649,0.458,-37.2,-3.91,23.93,1,6
16913.593,0.899,0.688,0.446,-28.05,-13.21,18.1,1,6
16913.609,0.904,0.713,0.417,-17.7,-21.76,15.38,1,6
16913.609,0.902,0.755,0.364,-11.72,-28.26,18.22,1,6
16913.625,0.889,0.775,0.313,-11.75,-35.04,25.85,1,6
16913.64,0.884,0.759,0.256,-17.03,-41.35,36.29,1,6
16913.656,0.897,0.716,0.211,-25.61,-46.42,48.59,1,6
16913.656,0.907,0.655,0.157,-33.05,-50.75,60.15,1,6
16913.671,0.935,0.598,0.097,-38.51,-54.14,70.59,1,6
16913.671,0.958,0.543,0.056,-42.48,-54.87,78.31,1,6
16913.687,0.97,0.505,0.019,-44.98,-52.8,83.41,1,6
16913.703,0.981,0.471,-0.006,-47.64,-49.07,87.19,1,6
16913.703,0.991,0.434,-0.024,-50.14,-44.65,89.72,1,6
16913.718,1.0,0.415,-0.037,-51.79,-40.22,91.16,1,6
16913.734,1.018,0.397,-0.034,-53.71,-35.83,93.36,1,6
16913.75,1.028,0.365,-0.016,-60.79,-26.15,101.44,1,6
16913.75,1.041,0.336,0.01,-65.86,-22.61,105.96,1,6
16913.765,1.031,0.299,0.041,-72.02,-19.9,109.65,1,6
16913.781,1.001,0.252,0.06,-79.23,-21.36,114.63,1,6
16913.781,0.967,0.199,0.066,-78.22,-24.66,113.99,1,6
16913.796,0.904,0.146,0.035,-73.31,-28.29,109.93,1,6
16913.812,0.846,0.085,-0.019,-64.27,-30.85,100.19,1,6
16913.812,0.735,0.068,-0.182,-53.74,-29.45,85.24,1,6
16913.828,0.732,0.098,-0.229,-46.94,-21.39,68.97,1,6
16913.843,0.74,0.107,-0.248,-43.98,-6.56,53.83,1,6
16913.843,0.746,0.109,-0.251,-41.41,12.27,41.69,1,6
16913.859,0.728,0.116,-0.228,-41.38,29.97,32.75,1,6
16913.859,0.719,0.104,-0.212,-43.21,42.57,25.45,1,6
16913.875,0.711,0.11,-0.211,-44.34,51.64,18.83,1,6
16913.89,0.744,0.122,-0.211,-44.04,60.12,13.98,1,6
16913.89,0.763,0.14,-0.196,-46.36,71.23,12.51,1,6
16913.921,0.752,0.114,-0.137,-55.09,92.93,13.28,1,6
16913.921,0.746,0.068,-0.089,-57.86,102.57,19.65,1,6
16913.937,0.752,0.01,-0.025,-61.56,111.27,29.39,1,6
16913.953,0.734,-0.042,0.029,-69.4,116.61,38.73,1,6
16913.953,0.744,-0.094,0.075,-78.34,118.59,41.84,1,6
16913.968,0.815,-0.162,0.139,-82.61,123.81,41.51,1,6
16913.968,0.812,-0.199,0.213,-86.21,134.95,39.0,1,6
16913.984,0.807,-0.21,0.318,-92.78,144.96,31.16,1,6
16914.0,0.85,-0.288,0.48,-97.29,152.53,24.66,1,6
16914.0,0.808,-0.36,0.628,-104.62,156.47,22.22,1,6
16914.015,0.799,-0.373,0.761,-115.54,149.85,17.49,1,6
16914.031,0.818,-0.408,0.903,-117.31,141.73,11.9,1,6
16914.031,0.816,-0.445,1.016,-112.4,134.46,5.22,1,6
16914.046,0.806,-0.39,1.089,-108.49,123.6,-3.97,1,6
16914.062,0.862,-0.379,1.16,-102.02,109.04,-12.54,1,6
16914.062,0.946,-0.4,1.232,-95.95,94.03,-16.51,1,6
16914.078,0.974,-0.365,1.288,-94.64,75.08,-19.65,1,6
16914.093,0.943,-0.312,1.287,-92.44,49.35,-27.92,1,6
16914.093,0.919,-0.276,1.222,-82.49,21.58,-41.54,1,6
16914.109,0.933,-0.23,1.061,-63.3,-2.59,-59.39,1,6
16914.109,0.979,-0.129,0.905,-41.05,-15.87,-75.87,1,6
16914.125,0.966,-0.028,0.803,-20.57,-17.61,-84.66,1,6
16914.14,0.912,0.06,0.712,-10.86,-19.23,-75.99,1,6
16914.14,0.887,0.085,0.711,-13.34,-20.45,-64.88,1,6
16914.156,0.886,0.141,0.739,-18.07,-22.06,-55.3,1,6
16914.171,0.815,0.16,0.718,-24.57,-30.49,-33.66,1,6
16914.171,0.81,0.112,0.658,-28.72,-41.41,-12.09,1,6
16914.187,0.849,0.086,0.586,-28.08,-47.0,0.98,1,6
16914.187,0.836,0.089,0.477,-27.44,-47.21,10.13,1,6
16914.203,0.857,0.105,0.41,-30.06,-42.33,15.41,1,6
16914.218,0.86,0.09,0.422,-36.62,-34.0,23.22,1,6
16914.218,0.893,0.053,0.458,-41.02,-26.37,26.7,1,6
16914.234,0.961,0.026,0.524,-38.21,-22.16,27.68,1,6
16914.25,0.967,-0.003,0.59,-29.42,-21.36,26.15,1,6
16914.265,0.932,-0.005,0.631,-22.03,-24.78,17.91,1,6
16914.265,0.908,0.01,0.652,-15.35,-32.75,4.18,1,6
16914.281,0.888,0.021,0.625,-2.62,-41.05,-9.58,1,6
16914.281,0.898,0.065,0.539,11.02,-47.67,-21.73,1,6
16914.296,0.917,0.113,0.456,21.97,-49.87,-28.53,1,6
16914.312,0.912,0.145,0.408,29.15,-47.27,-30.58,1,6
16914.312,0.932,0.146,0.402,34.85,-42.09,-28.05,1,6
16914.328,0.888,0.139,0.453,36.59,-36.84,-23.77,1,6
16914.343,0.787,0.12,0.509,38.51,-35.92,-20.48,1,6
16914.343,0.729,0.104,0.511,43.4,-40.96,-18.59,1,6
16914.359,0.726,0.089,0.488,46.63,-47.03,-15.93,1,6
16914.359,0.713,0.086,0.427,45.17,-52.64,-13.0,1,6
16914.375,0.756,0.064,0.333,41.47,-57.07,-7.87,1,6
16914.39,0.804,0.041,0.267,37.81,-55.21,0.0,1,6
16914.39,0.78,0.038,0.246,30.79,-48.25,7.9,1,6
16914.421,0.721,0.002,0.195,14.56,-36.04,17.98,1,6
16914.437,0.735,-0.003,0.158,10.68,-30.79,20.69,1,6
16914.437,0.767,0.003,0.13,3.97,-25.36,22.49,1,6
16914.453,0.8,-0.009,0.159,-4.24,-17.94,24.54,1,6
16914.453,0.773,-0.029,0.219,-9.61,-9.25,27.01,1,6
16914.468,0.725,-0.047,0.286,-11.78,-2.56,28.05,1,6
16914.468,0.686,-0.06,0.314,-10.38,-0.46,26.7,1,6
16914.484,0.692,-0.071,0.302,-8.06,-2.38,23.68,1,6
16914.5,0.746,-0.07,0.263,-5.68,-4.15,19.04,1,6
16914.5,0.818,-0.047,0.229,-3.05,-2.26,14.8,1,6
16914.515,0.86,-0.023,0.238,-3.45,3.94,13.15,1,6
16914.531,0.879,-0.007,0.298,-7.39,10.62,13.52,1,6
16914.531,0.858,0.001,0.382,-10.65,14.19,14.16,1,6
16914.546,0.829,-0.026,0.452,-11.17,13.0,14.07,1,6
16914.562,0.84,-0.036,0.467,-8.82,7.6,12.79,1,6
16914.562,0.889,-0.029,0.438,-3.94,1.04,9.98,1,6
16914.578,0.918,-0.025,0.399,0.06,-2.62,7.51,1,6
16914.578,0.946,-0.023,0.381,1.34,-2.69,6.32,1,6
16914.593,0.933,-0.014,0.39,0.18,-0.18,6.1,1,6
16914.609,0.9,-0.021,0.428,-0.46,2.38,7.05,1,6
16914.609,0.85,-0.017,0.464,-0.58,3.91,8.27,1,6
16914.625,0.832,-0.022,0.478,0.09,3.6,9.03,1,6
16914.64,0.845,-0.025,0.467,1.01,2.2,10.1,1,6
16914.656,0.886,-0.025,0.431,1.53,0.09,11.84,1,6
16914.656,0.932,-0.03,0.402,0.73,-0.82,14.01,1,6
16914.671,0.963,-0.04,0.409,-0.95,0.76,17.27,1,6
16914.671,0.956,-0.042,0.442,-3.54,3.85,21.09,1,6
16914.687,0.954,-0.051,0.475,-6.62,5.43,24.69,1,6
16914.703,0.963,-0.073,0.504,-9.61,4.33,27.47,1,6
16914.703,0.959,-0.104,0.502,-10.38,1.74,27.8,1,6
16914.718,0.953,-0.125,0.473,-8.24,-2.2,25.24,1,6
16914.718,0.959,-0.135,0.431,-5.62,-5.34,20.11,1,6
16914.734,0.972,-0.142,0.392,-3.33,-6.87,13.49,1,6
16914.75,0.981,-0.131,0.375,-0.98,-5.46,7.48,1,6
16914.75,0.966,-0.121,0.384,0.89,-0.15,-0.76,1,6
16914.765,0.948,-0.117,0.4,2.47,-0.18,-4.0,1,6
16914.781,0.934,-0.11,0.403,5.04,-1.22,-7.69,1,6
16914.781,0.911,-0.107,0.402,8.12,-3.08,-12.7,1,6
16914.796,0.878,-0.073,0.381,12.02,-4.7,-16.79,1,6
16914.812,0.857,-0.043,0.374,13.89,-5.13,-18.16,1,6
16914.812,0.85,-0.015,0.364,13.03,-5.52,-17.79,1,6
16914.828,0.845,0.007,0.353,10.56,-5.92,-14.95,1,6
16914.828,0.86,0.017,0.34,8.03,-5.28,-10.01,1,6
16914.843,0.875,0.025,0.329,5.1,-3.08,-4.79,1,6
16914.859,0.874,0.018,0.335,1.56,-0.95,0.03,1,6
16914.859,0.865,0.003,0.35,-1.65,0.82,4.67,1,6
16914.875,0.87,-0.014,0.359,-3.81,1.62,8.45,1,6
16914.89,0.887,-0.035,0.364,-4.79,2.62,10.77,1,6
16914.89,0.896,-0.043,0.375,-3.81,3.85,11.6,1,6
16914.906,0.905,-0.049,0.388,-2.29,4.12,11.44,1,6
16914.921,0.91,-0.056,0.399,-1.25,3.54,10.56,1,6
16914.921,0.897,-0.061,0.405,-0.09,2.38,9.25,1,6
16914.937,0.889,-0.068,0.407,0.98,0.95,7.48,1,6
16914.953,0.901,-0.074,0.406,2.66,-0.06,5.74,1,6
16914.953,0.913,-0.074,0.4,4.79,-0.21,4.46,1,6
16914.968,0.91,-0.067,0.392,5.95,-0.21,3.2,1,6
16914.968,0.903,-0.068,0.398,6.1,-0.43,2.17,1,6
16914.984,0.897,-0.065,0.408,5.77,-0.67,2.41,1,6
16915.0,0.894,-0.068,0.408,4.39,-1.37,3.81,1,6
16915.0,0.895,-0.078,0.405,2.99,-2.2,5.46,1,6
16915.015,0.894,-0.089,0.398,2.38,-2.5,6.78,1,6
16915.031,0.891,-0.097,0.384,1.77,-2.9,6.9,1,6
16915.031,0.892,-0.103,0.373,1.65,-3.02,6.04,1,6
16915.046,0.902,-0.102,0.361,1.95,-1.95,4.67,1,6
16915.062,0.913,-0.102,0.349,2.56,-0.09,3.54,1,6
16915.062,0.917,-0.094,0.359,2.84,3.05,3.27,1,6
16915.078,0.927,-0.093,0.378,1.13,6.38,4.39,1,6
16915.093,0.935,-0.104,0.394,-1.8,7.78,6.26,1,6
16915.093,0.924,-0.11,0.417,-3.05,7.48,6.84,1,6
16915.109,0.896,-0.119,0.435,-1.83,5.25,4.58,1,6
16915.109,0.887,-0.124,0.43,0.76,0.82,0.24,1,6
16915.125,0.894,-0.12,0.406,5.1,-2.32,-4.94,1,6
16915.14,0.894,-0.107,0.39,10.01,-3.33,-10.41,1,6
16915.14,0.881,-0.09,0.388,13.58,-2.41,-15.29,1,6
16915.156,0.869,-0.078,0.399,15.08,-0.34,-18.46,1,6
16915.171,0.868,-0.062,0.406,15.53,1.25,-19.38,1,6
16915.171,0.871,-0.041,0.404,15.2,1.22,-19.04,1,6
16915.187,0.872,-0.03,0.4,14.04,0.52,-17.43,1,6
16915.187,0.875,-0.018,0.386,12.57,0.46,-14.4,1,6
16915.203,0.88,-0.006,0.372,10.47,1.01,-10.59,1,6
16915.218,0.881,-0.012,0.368,7.02,2.26,-6.16,1,6
16915.218,0.883,-0.022,0.37,3.85,3.81,-1.4,1,6
16915.234,0.892,-0.024,0.374,1.46,5.62,2.99,1,6
16915.25,0.897,-0.034,0.387,-1.19,7.29,6.74,1,6
16915.25,0.903,-0.047,0.403,-3.36,8.18,9.55,1,6
16915.265,0.913,-0.066,0.421,-3.69,8.45,11.23,1,6
16915.281,0.916,-0.073,0.436,-3.97,8.24,11.35,1,6
16915.281,0.915,-0.08,0.437,-5.1,7.26,10.68,1,6
16915.296,0.931,-0.09,0.435,-5.89,6.32,9.92,1,6
16915.312,0.946,-0.095,0.425,-5.71,5.89,8.64,1,6
16915.312,0.959,-0.093,0.429,-5.28,6.47,7.08,1,6
16915.328,0.955,-0.09,0.449,-4.49,7.54,5.58,1,6
16915.328,0.944,-0.086,0.461,-3.78,7.08,4.21,1,6
16915.343,0.947,-0.088,0.468,-3.27,5.71,2.93,1,6
16915.359,0.96,-0.086,0.471,-2.17,3.78,1.22,1,6
16915.359,0.955,-0.079,0.463,-0.55,2.62,-1.28,1,6
16915.375,0.938,-0.073,0.454,0.7,2.08,-4.46,1,6
16915.39,0.919,-0.068,0.452,2.2,2.29,-7.14,1,6
16915.39,0.904,-0.057,0.445,4.06,3.14,-8.39,1,6
16915.406,0.891,-0.042,0.429,5.98,3.94,-8.79,1,6
16915.421,0.866,-0.028,0.413,7.35,5.22,-8.12,1,6
16915.421,0.853,-0.02,0.394,7.57,6.35,-6.16,1,6
16915.437,0.852,-0.023,0.391,7.11,7.69,-3.27,1,6
16915.453,0.834,-0.03,0.385,7.08,10.25,0.03,1,6
16915.453,0.799,-0.019,0.372,6.41,13.7,3.94,1,6
16915.468,0.776,-0.015,0.374,4.12,16.27,8.36,1,6
16915.468,0.759,-0.016,0.389,1.37,17.55,12.88,1,6
16915.484,0.757,-0.031,0.389,-1.28,16.82,17.67,1,6
16915.5,0.779,-0.045,0.401,-6.23,15.17,21.15,1,6
16915.5,0.795,-0.075,0.395,-9.64,13.92,21.97,1,6
16915.515,0.821,-0.091,0.38,-10.41,13.37,20.26,1,6
16915.531,0.836,-0.108,0.381,-8.45,14.19,16.69,1,6
16915.531,0.813,-0.108,0.392,-4.36,15.59,10.96,1,6
16915.546,0.78,-0.089,0.419,-0.49,16.17,5.04,1,6
16915.562,0.77,-0.08,0.431,2.26,14.98,-0.09,1,6
16915.562,0.818,-0.064,0.422,5.07,11.99,-2.38,1,6
16915.578,0.863,-0.03,0.412,6.16,10.93,-1.77,1,6
16915.593,0.885,-0.021,0.405,5.13,10.5,-0.46,1,6
16915.593,0.886,-0.024,0.403,4.52,10.32,0.85,1,6
16915.609,0.876,-0.025,0.414,6.04,10.1,0.61,1,6
16915.609,0.849,-0.029,0.417,10.5,8.97,-1.83,1,6
16915.625,0.813,-0.031,0.416,16.45,7.48,-6.29,1,6
16915.64,0.782,-0.034,0.409,22.31,6.13,-10.77,1,6
16915.64,0.748,-0.04,0.375,26.8,5.55,-14.07,1,6
16915.656,0.761,-0.046,0.35,28.96,5.1,-15.81,1,6
16915.671,0.765,-0.045,0.319,29.91,6.23,-16.72,1,6
16915.671,0.778,-0.047,0.312,27.89,9.13,-16.42,1,6
16915.687,0.79,-0.049,0.344,24.38,14.01,-14.92,1,6
16915.703,0.809,-0.057,0.38,21.06,18.43,-13.82,1,6
16915.703,0.821,-0.066,0.41,19.53,21.06,-13.28,1,6
16915.718,0.825,-0.068,0.43,19.44,21.79,-13.92,1,6
16915.734,0.831,-0.064,0.437,19.87,21.36,-15.96,1,6
16915.734,0.829,-0.059,0.438,20.84,20.69,-19.01,1,6
16915.75,0.822,-0.034,0.446,21.88,22.89,-22.74,1,6
16915.75,0.833,-0.015,0.458,21.21,24.63,-21.85,1,6
16915.765,0.839,0.004,0.479,19.1,25.24,-20.57,1,6
16915.781,0.793,0.018,0.507,17.64,24.05,-20.26,1,6
16915.781,0.737,0.025,0.503,18.49,22.43,-20.78,1,6
16915.796,0.709,0.032,0.467,18.83,20.91,-21.36,1,6
16915.812,0.722,0.035,0.446,19.84,21.09,-21.42,1,6
16915.812,0.724,0.044,0.429,20.84,23.99,-19.78,1,6
16915.828,0.746,0.049,0.431,18.83,27.8,-16.48,1,6
16915.843,0.755,0.051,0.453,14.68,31.74,-12.85,1,6
16915.843,0.751,0.043,0.476,10.59,34.27,-10.41,1,6
16915.859,0.737,0.032,0.487,8.42,34.85,-8.76,1,6
16915.859,0.737,0.02,0.491,7.69,34.88,-7.14,1,6
16915.875,0.735,0.019,0.492,7.9,36.01,-5.86,1,6
16915.89,0.735,0.017,0.505,6.81,38.21,-5.4,1,6
16915.906,0.754,0.007,0.524,4.91,40.77,-5.16,1,6
16915.906,0.773,0.001,0.555,3.45,43.89,-4.0,1,6
16915.921,0.785,-0.007,0.589,1.86,46.75,-2.66,1,6
16915.921,0.761,-0.016,0.632,-0.4,48.62,-2.69,1,6
16915.937,0.72,-0.025,0.676,-1.59,48.4,-4.49,1,6
16915.953,0.687,-0.026,0.689,-0.76,45.2,-7.81,1,6
16915.953,0.672,-0.017,0.665,2.47,40.44,-13.61,1,6
16915.968,0.681,-0.009,0.627,8.33,37.08,-20.57,1,6
16915.968,0.739,0.005,0.583,13.86,37.11,-23.83,1,6
16915.984,0.761,0.038,0.564,13.95,42.12,-22.68,1,6
16916.0,0.742,0.042,0.592,8.51,48.22,-19.47,1,6
16916.0,0.692,0.038,0.644,1.07,51.94,-15.05,1,6
16916.015,0.65,0.029,0.683,-4.76,52.0,-11.93,1,6
16916.031,0.635,0.011,0.689,-5.37,49.87,-11.72,1,6
16916.031,0.654,0.011,0.67,-1.92,47.09,-13.15,1,6
16916.046,0.691,0.028,0.633,1.31,45.75,-15.14,1,6
16916.062,0.725,0.038,0.627,0.98,47.67,-15.72,1,6
16916.062,0.717,0.047,0.651,-2.72,51.73,-15.56,1,6
16916.078,0.679,0.049,0.7,-5.65,54.99,-15.99,1,6
16916.093,0.618,0.054,0.742,-5.83,55.76,-16.97,1,6
16916.093,0.586,0.071,0.748,-3.6,53.04,-17.98,1,6
16916.109,0.609,0.08,0.731,-0.82,49.1,-18.4,1,6
16916.109,0.631,0.081,0.7,0.55,47.7,-17.79,1,6
16916.125,0.642,0.078,0.684,-0.03,48.92,-16.57,1,6
16916.14,0.645,0.075,0.689,-1.01,51.52,-15.87,1,6
16916.156,0.635,0.07,0.699,-1.4,54.17,-15.9,1,6
16916.156,0.62,0.071,0.728,-1.46,56.15,-16.66,1,6
16916.171,0.61,0.079,0.743,-0.89,56.76,-18.22,1,6
16916.171,0.615,0.09,0.745,-1.4,56.55,-19.23,1,6
16916.187,0.63,0.099,0.748,-2.17,56.83,-19.99,1,6
16916.203,0.635,0.102,0.763,-2.56,58.32,-19.59,1,6
16916.203,0.625,0.114,0.782,-4.12,59.72,-18.49,1,6
16916.218,0.626,0.112,0.804,-6.23,60.0,-17.79,1,6
16916.218,0.624,0.111,0.836,-7.66,60.55,-18.22,1,6
16916.234,0.617,0.121,0.864,-8.03,61.1,-19.93,1,6
16916.25,0.62,0.127,0.883,-7.84,60.64,-23.16,1,6
16916.25,0.644,0.136,0.896,-6.26,59.51,-26.67,1,6
16916.265,0.67,0.15,0.906,-3.11,58.93,-29.6,1,6
16916.281,0.674,0.162,0.934,-0.34,59.39,-32.23,1,6
16916.296,0.642,0.171,0.974,2.53,59.24,-34.61,1,6
16916.296,0.589,0.186,0.995,6.2,56.12,-36.68,1,6
16916.312,0.559,0.214,0.98,10.1,50.05,-38.51,1,6
16916.312,0.553,0.233,0.954,12.91,44.07,-38.82,1,6
16916.328,0.543,0.248,0.913,13.34,40.86,-36.41,1,6
16916.328,0.543,0.253,0.872,12.36,40.71,-31.77,1,6
16916.343,0.532,0.251,0.855,10.28,43.0,-25.94,1,6
16916.359,0.527,0.243,0.857,7.02,45.35,-19.2,1,6
16916.375,0.538,0.225,0.868,3.48,47.09,-12.76,1,6
16916.375,0.553,0.199,0.888,0.61,48.31,-7.6,1,6
16916.39,0.542,0.178,0.913,-1.74,49.81,-4.03,1,6
16916.39,0.504,0.165,0.94,-3.27,50.57,-2.84,1,6
16916.406,0.473,0.15,0.95,-2.84,49.32,-3.72,1,6
16916.421,0.463,0.154,0.945,-0.46,47.3,-5.55,1,6
16916.421,0.471,0.16,0.94,1.77,45.72,-6.53,1,6
16916.437,0.481,0.16,0.932,2.26,44.47,-6.41,1,6
16916.437,0.501,0.153,0.92,1.68,43.82,-6.07,1,6
16916.453,0.505,0.142,0.924,0.52,44.4,-5.65,1,6
16916.468,0.475,0.148,0.929,-0.27,45.38,-5.83,1,6
16916.484,0.451,0.152,0.934,-0.52,45.29,-6.2,1,6
16916.484,0.44,0.154,0.944,-0.67,45.23,-5.98,1,6
16916.5,0.433,0.164,0.951,-1.01,45.08,-4.61,1,6
16916.5,0.444,0.153,0.96,-1.86,44.19,-2.26,1,6
16916.515,0.447,0.141,0.97,-3.27,43.12,-0.15,1,6
16916.531,0.455,0.121,0.969,-3.36,41.47,0.79,1,6
16916.531,0.452,0.108,0.963,-2.87,39.98,1.19,1,6
16916.546,0.454,0.103,0.956,-2.9,38.39,0.64,1,6
16916.562,0.445,0.105,0.956,-3.51,37.93,-1.1,1,6
16916.562,0.425,0.103,0.961,-3.91,38.61,-2.87,1,6
16916.578,0.409,0.108,0.97,-3.02,39.16,-4.73,1,6
16916.593,0.394,0.116,0.976,-1.34,39.77,-6.35,1,6
16916.593,0.367,0.129,0.979,-0.06,39.7,-7.6,1,6
16916.609,0.349,0.138,0.97,0.58,38.09,-8.27,1,6
16916.609,0.345,0.145,0.951,0.46,36.13,-7.45,1,6
16916.625,0.349,0.156,0.934,-1.71,35.8,-4.52,1,6
16916.64,0.346,0.165,0.939,-6.2,37.32,-0.92,1,6
16916.64,0.334,0.165,0.958,-10.56,40.13,1.5,1,6
16916.656,0.315,0.164,0.993,-12.15,42.54,2.66,1,6
16916.671,0.306,0.166,1.025,-10.77,42.94,2.84,1,6
16916.671,0.304,0.166,1.036,-7.39,41.38,1.74,1,6
16916.687,0.294,0.17,1.031,-4.24,38.67,0.0,1,6
16916.703,0.292,0.18,1.017,-1.68,35.25,-0.95,1,6
16916.703,0.297,0.198,1.006,-0.73,31.77,-0.06,1,6
16916.718,0.289,0.209,1.005,-1.71,29.91,2.47,1,6
16916.718,0.263,0.211,1.007,-4.33,28.14,7.93,1,6
16916.734,0.25,0.201,1.016,-2.2,26.83,9.98,1,6
16916.75,0.266,0.177,1.016,1.37,26.18,11.54,1,6
16916.75,0.286,0.158,1.008,3.27,25.76,12.67,1,6
16916.765,0.292,0.115,0.994,3.14,24.99,12.7,1,6
16916.781,0.274,0.097,0.986,2.53,23.74,11.66,1,6
16916.781,0.261,0.08,0.974,2.14,22.55,10.01,1,6
16916.796,0.245,0.075,0.965,1.95,22.89,8.06,1,6
16916.812,0.23,0.073,0.956,2.26,24.2,5.83,1,6
16916.812,0.218,0.08,0.957,2.84,25.57,3.66,1,6
16916.828,0.219,0.09,0.964,3.02,26.52,2.41,1,6
16916.828,0.234,0.092,0.965,2.81,26.98,1.5,1,6
16916.843,0.251,0.093,0.967,2.14,27.41,0.67,1,6
16916.859,0.247,0.096,0.976,1.43,28.35,-0.7,1,6
16916.859,0.219,0.105,0.987,1.01,29.3,-2.47,1,6
16916.875,0.191,0.108,1.001,1.07,29.24,-4.21,1,6
16916.89,0.176,0.115,0.993,2.04,27.99,-5.62,1,6
16916.89,0.177,0.122,0.976,2.72,26.8,-6.35,1,6
16916.906,0.187,0.125,0.954,2.66,26.76,-6.9,1,6
16916.921,0.194,0.122,0.94,2.38,27.83,-6.96,1,6
16916.921,0.191,0.125,0.946,1.95,29.91,-6.93,1,6
16916.937,0.17,0.124,0.961,1.46,32.04,-6.93,1,6
16916.953,0.15,0.122,0.979,0.98,33.08,-6.87,1,6
16916.953,0.137,0.123,0.992,0.89,33.33,-7.2,1,6
16916.968,0.134,0.124,0.994,1.31,32.47,-8.45,1,6
16916.968,0.138,0.121,0.991,1.8,31.46,-9.64,1,6
16916.984,0.147,0.112,0.983,2.35,30.46,-10.59,1,6
16917.0,0.159,0.109,0.979,2.69,30.3,-11.23,1,6
16917.0,0.149,0.111,0.977,2.99,31.04,-12.48,1,6
16917.015,0.131,0.11,0.975,2.5,31.4,-14.1,1,6
16917.031,0.106,0.113,0.976,1.89,31.25,-15.66,1,6
16917.046,0.094,0.123,0.976,2.87,31.19,-16.57,1,6
16917.046,0.09,0.135,0.966,3.88,31.68,-16.69,1,6
16917.046,0.092,0.138,0.961,3.57,32.75,-16.24,1,6
16917.062,0.091,0.147,0.963,2.17,33.97,-14.4,1,6
16917.078,0.089,0.149,0.962,0.49,35.07,-12.36,1,6
16917.093,0.084,0.146,0.966,-1.4,35.98,-10.32,1,6
16917.093,0.081,0.148,0.974,-3.39,37.14,-8.18,1,6
16917.109,0.065,0.157,0.977,-5.4,39.03,-5.95,1,6
16917.109,0.053,0.159,0.984,-7.57,40.8,-3.27,1,6
16917.125,0.056,0.156,1.002,-10.01,41.93,-0.12,1,6
16917.14,0.07,0.138,1.019,-12.18,42.54,3.3,1,6
16917.14,0.079,0.119,1.05,-13.67,42.54,6.13,1,6
16917.156,0.088,0.1,1.064,-14.22,41.02,5.62,1,6
16917.171,0.095,0.077,1.069,-12.39,38.97,2.08,1,6
16917.171,0.106,0.071,1.065,-7.84,37.26,-3.05,1,6
16917.187,0.102,0.086,1.061,-2.41,36.41,-9.19,1,6
16917.203,0.081,0.11,1.058,2.38,35.95,-15.32,1,6
16917.203,0.059,0.143,1.059,5.89,34.94,-18.68,1,6
16917.218,0.047,0.169,1.041,7.81,33.42,-18.77,1,6
16917.218,0.021,0.191,1.036,7.72,32.35,-16.39,1,6
16917.234,-0.002,0.208,1.042,6.13,31.28,-11.63,1,6
16917.25,-0.013,0.214,1.04,2.44,29.57,-5.55,1,6
16917.25,-0.024,0.206,1.036,-1.83,28.69,0.98,1,6
16917.265,-0.023,0.185,1.038,-5.71,28.23,7.66,1,6
16917.281,-0.006,0.151,1.026,-8.51,28.11,13.15,1,6
16917.296,0.011,0.119,1.017,-10.53,28.84,15.63,1,6
16917.296,0.024,0.089,1.024,-11.44,29.91,14.86,1,6
16917.312,0.026,0.069,1.028,-10.04,30.88,11.66,1,6
16917.312,0.019,0.069,1.034,-7.26,31.19,6.96,1,6
16917.328,0.012,0.076,1.039,-4.09,30.7,1.8,1,6
16917.343,0.001,0.095,1.04,-1.62,29.73,-2.78,1,6
16917.343,-0.016,0.113,1.036,0.21,28.05,-6.5,1,6
16917.359,-0.029,0.126,1.027,1.71,26.86,-8.45,1,6
16917.359,-0.043,0.141,1.025,2.17,26.22,-9.0,1,6
16917.375,-0.043,0.142,1.016,1.62,25.18,-8.51,1,6
16917.39,-0.048,0.148,1.005,0.31,24.93,-7.54,1,6
16917.406,-0.047,0.147,1.0,-1.01,25.06,-6.5,1,6
16917.406,-0.046,0.144,0.995,-1.77,25.48,-5.89,1,6
16917.421,-0.051,0.148,0.992,-2.26,26.52,-5.71,1,6
16917.421,-0.064,0.155,0.996,-2.53,27.41,-5.71,1,6
16917.437,-0.07,0.161,0.999,-2.56,27.5,-5.55,1,6
16917.453,-0.071,0.161,0.999,-2.14,26.98,-5.16,1,6
16917.453,-0.073,0.161,0.997,-1.59,26.61,-4.12,1,6
16917.468,-0.083,0.164,1.005,-1.71,26.52,-2.66,1,6
16917.468,-0.099,0.16,1.012,-2.47,25.91,-1.1,1,6
16917.484,-0.111,0.15,1.012,-3.23,24.54,0.31,1,6
16917.5,-0.11,0.136,1.009,-3.36,23.01,1.16,1,6
16917.515,-0.099,0.112,1.007,-2.14,21.76,0.49,1,6
16917.515,-0.093,0.095,0.999,0.21,21.27,-0.67,1,6
16917.531,-0.092,0.096,0.991,1.65,21.42,-2.69,1,6
16917.531,-0.104,0.093,0.992,1.89,21.7,-5.62,1,6
16917.546,-0.111,0.094,0.997,2.11,21.91,-8.24,1,6
16917.562,-0.127,0.103,1.003,3.57,22.1,-10.22,1,6
16917.562,-0.147,0.116,1.005,5.49,21.91,-11.35,1,6
16917.578,-0.155,0.128,1.002,5.95,21.09,-10.99,1,6
16917.578,-0.154,0.136,0.991,4.79,20.23,-10.13,1,6
16917.593,-0.16,0.135,0.986,2.93,19.93,-9.13,1,6
16917.609,-0.163,0.125,0.982,1.46,20.02,-8.09,1,6
16917.625,-0.168,0.118,0.978,1.77,20.66,-7.26,1,6
16917.625,-0.17,0.117,0.975,2.2,21.24,-6.44,1,6
16917.64,-0.163,0.119,0.971,1.07,21.58,-5.55,1,6
16917.64,-0.166,0.117,0.974,-0.31,22.4,-5.1,1,6
16917.656,-0.172,0.115,0.98,-1.28,22.95,-4.49,1,6
16917.671,-0.175,0.114,0.988,-2.01,23.32,-4.09,1,6
16917.671,-0.191,0.112,1.006,-1.43,23.04,-4.18,1,6
16917.687,-0.2,0.109,1.013,-0.67,21.3,-4.33,1,6
16917.687,-0.212,0.118,1.028,-0.85,18.13,-4.33,1,6
16917.703,-0.201,0.12,1.035,0.95,11.81,-5.46,1,6
16917.718,-0.193,0.122,1.013,1.92,10.77,-6.26,1,6
16917.718,-0.186,0.137,1.02,3.94,9.8,-6.93,1,6
16917.734,-0.174,0.13,1.012,4.76,9.46,-7.14,1,6
16917.75,-0.165,0.128,1.0,4.64,9.52,-6.65,1,6
16917.75,-0.177,0.124,1.012,4.88,9.77,-6.16,1,6
16917.765,-0.189,0.126,1.03,4.58,8.36,-5.55,1,6
16917.781,-0.191,0.125,1.04,4.46,5.65,-5.37,1,6
16917.781,-0.189,0.12,1.033,4.82,2.53,-5.62,1,6
16917.796,-0.183,0.113,1.031,4.94,-0.34,-6.35,1,6
16917.812,-0.172,0.106,1.021,4.76,-2.41,-7.69,1,6
16917.812,-0.16,0.097,0.985,6.23,-2.38,-9.61,1,6
16917.828,-0.154,0.098,0.956,8.48,0.37,-12.21,1,6
16917.828,-0.156,0.097,0.933,11.17,4.88,-15.69,1,6
16917.843,-0.166,0.103,0.912,12.82,10.19,-19.35,1,6
16917.859,-0.19,0.117,0.911,13.55,15.53,-22.0,1,6
16917.875,-0.229,0.128,0.924,14.04,19.41,-23.13,1,6
16917.875,-0.252,0.136,0.935,13.12,20.6,-22.25,1,6
16917.89,-0.256,0.146,0.934,10.68,20.48,-20.17,1,6
16917.89,-0.265,0.149,0.942,7.63,20.11,-17.76,1,6
16917.906,-0.268,0.15,0.945,4.73,19.53,-15.47,1,6
16917.921,-0.269,0.148,0.952,2.69,18.98,-13.49,1,6
16917.921,-0.269,0.146,0.954,2.35,18.83,-12.05,1,6
16917.937,-0.264,0.147,0.941,2.96,19.26,-11.32,1,6
16917.953,-0.263,0.157,0.924,3.42,20.36,-11.11,1,6
16917.953,-0.272,0.165,0.919,2.84,22.13,-10.77,1,6
16917.968,-0.284,0.166,0.912,1.1,23.96,-10.13,1,6
16917.984,-0.302,0.167,0.918,-0.21,25.54,-8.45,1,6
16917.984,-0.312,0.162,0.918,-1.5,26.7,-5.49,1,6
16918.0,-0.317,0.157,0.923,-3.85,27.68,-2.2,1,6
16918.0,-0.331,0.145,0.937,-6.35,28.08,0.92,1,6
16918.015,-0.328,0.123,0.94,-8.18,27.65,3.05,1,6
16918.031,-0.318,0.103,0.936,-9.25,27.16,3.02,1,6
16918.031,-0.322,0.084,0.932,-9.0,27.34,1.31,1,6
16918.046,-0.323,0.078,0.918,-7.66,27.95,-1.01,1,6
16918.062,-0.318,0.08,0.904,-6.56,29.21,-4.15,1,6
16918.062,-0.328,0.091,0.909,-6.01,31.34,-7.11,1,6
16918.078,-0.346,0.102,0.924,-5.8,33.14,-8.3,1,6
16918.078,-0.356,0.116,0.938,-5.8,33.85,-8.0,1,6
16918.093,-0.358,0.126,0.943,-6.65,33.66,-6.59,1,6
16918.109,-0.355,0.118,0.943,-8.21,33.42,-5.22,1,6
16918.109,-0.349,0.117,0.948,-9.4,33.27,-4.24,1,6
16918.125,-0.347,0.113,0.947,-9.43,33.11,-3.97,1,6
16918.14,-0.345,0.114,0.948,-9.7,32.93,-4.21,1,6
16918.14,-0.343,0.116,0.952,-9.55,32.59,-4.85,1,6
16918.156,-0.346,0.119,0.951,-7.97,32.75,-5.46,1,6
16918.171,-0.349,0.127,0.951,-6.35,33.02,-5.04,1,6
16918.171,-0.348,0.136,0.954,-6.16,33.14,-3.57,1,6
16918.187,-0.352,0.142,0.961,-7.57,32.99,-1.34,1,6
16918.187,-0.359,0.132,0.963,-9.67,32.17,1.28,1,6
16918.203,-0.358,0.118,0.971,-10.62,31.16,3.27,1,6
16918.218,-0.348,0.108,0.982,-9.58,30.15,3.85,1,6
16918.218,-0.305,0.083,0.995,-6.47,28.78,2.11,1,6
16918.234,-0.327,0.073,1.005,-2.17,27.22,-3.27,1,6
16918.25,-0.305,0.087,1.003,0.18,23.5,-7.75,1,6
16918.25,-0.366,0.101,1.007,-0.7,19.59,-13.12,1,6
16918.265,-0.319,0.079,1.024,1.43,18.34,-11.26,1,6
16918.281,-0.303,0.123,0.985,6.26,16.3,-11.29,1,6
16918.281,-0.323,0.13,0.955,4.39,13.82,-14.98,1,6
16918.296,-0.332,0.088,0.982,0.43,13.43,-17.52,1,6
16918.312,-0.376,0.103,0.982,3.05,11.23,-21.09,1,6
16918.312,-0.403,0.08,0.945,8.15,9.06,-22.58,1,6
16918.328,-0.379,0.013,0.937,14.1,12.39,-19.1,1,6
16918.343,-0.291,0.114,0.891,17.82,7.42,-22.28,1,6
16918.343,-0.33,0.055,0.844,14.59,9.61,-30.52,1,6
16918.359,-0.444,0.004,0.946,10.19,13.67,-33.75,1,6
16918.359,-0.365,0.079,0.945,22.77,14.59,-30.18,1,6
16918.375,-0.414,0.134,0.846,26.28,9.43,-37.39,1,6
16918.39,-0.47,0.037,0.889,16.11,8.64,-37.93,1,6
16918.39,-0.4,0.113,0.87,18.43,8.18,-32.69,1,6
16918.406,-0.43,0.166,0.772,19.87,6.47,-34.3,1,6
16918.421,-0.46,0.104,0.801,10.16,9.95,-30.64,1,6
16918.421,-0.444,0.161,0.812,7.05,12.3,-27.31,1,6
16918.437,-0.496,0.108,0.791,5.89,15.53,-25.21,1,6
16918.453,-0.544,0.064,0.815,2.87,20.81,-18.71,1,6
16918.453,-0.494,0.112,0.793,2.84,22.55,-12.88,1,6
16918.468,-0.543,0.085,0.747,-0.03,24.96,-11.78,1,6
16918.484,-0.489,0.111,0.765,-8.12,26.64,-9.98,1,6
16918.484,-0.523,0.094,0.806,-10.99,31.25,-10.65,1,6
16918.5,-0.537,0.067,0.865,-7.17,36.62,-7.02,1,6
16918.5,-0.474,0.13,0.88,0.09,37.66,-5.49,1,6
16918.515,-0.545,0.104,0.871,3.78,36.84,-10.68,1,6
16918.531,-0.532,0.102,0.906,3.78,34.91,-10.86,1,6
16918.531,-0.558,0.129,0.88,6.5,31.37,-12.36,1,6
16918.546,-0.545,0.116,0.852,5.31,27.04,-12.36,1,6
16918.562,-0.527,0.107,0.835,1.19,25.76,-12.51,1,6
16918.562,-0.471,0.124,0.835,-1.65,25.61,-13.67,1,6
16918.578,-0.501,0.109,0.843,-2.75,27.13,-17.06,1,6
16918.578,-0.495,0.122,0.881,-2.96,27.89,-18.1,1,6
16918.593,-0.505,0.098,0.886,1.68,28.23,-18.65,1,6
16918.609,-0.493,0.11,0.888,5.22,26.83,-19.81,1,6
16918.625,-0.491,0.086,0.891,8.03,26.58,-21.24,1,6
16918.625,-0.494,0.11,0.885,10.44,27.1,-21.27,1,6
16918.64,-0.494,0.13,0.885,10.25,27.56,-19.93,1,6
16918.64,-0.531,0.103,0.903,8.61,27.22,-17.18,1,6
16918.656,-0.428,0.163,0.926,8.09,23.96,-14.28,1,6
16918.671,-0.585,0.111,0.909,8.27,21.09,-18.77,1,6
16918.671,-0.505,0.053,0.947,4.06,17.4,-1.56,1,6
16918.687,-0.409,0.254,0.905,5.43,11.47,-8.27,1,6
16918.687,-0.567,0.01,0.841,-10.32,7.97,-7.63,1,6
16918.703,-0.428,0.071,0.905,-3.3,9.55,-14.31,1,6
16918.718,-0.446,0.016,0.83,-2.81,12.39,-20.51,1,6
16918.718,-0.398,-0.047,0.865,3.48,16.14,-23.5,1,6
16918.734,-0.438,-0.023,0.849,12.33,18.19,-35.62,1,6
16918.75,-0.545,-0.065,0.857,13.92,18.25,-40.56,1,6
16918.765,-0.501,0.074,0.923,15.26,14.77,-42.54,1,6
16918.765,-0.521,0.102,0.902,17.58,11.35,-46.11,1,6
16918.781,-0.616,0.111,0.888,11.99,4.58,-44.83,1,6
16918.781,-0.549,0.132,0.854,7.63,2.84,-32.56,1,6
16918.796,-0.581,0.121,0.811,3.48,2.08,-23.1,1,6
16918.812,-0.515,0.112,0.788,-3.08,5.92,-12.27,1,6
16918.812,-0.539,0.09,0.794,-8.18,9.52,-6.41,1,6
16918.828,-0.54,0.073,0.811,-9.98,13.76,-2.11,1,6
16918.828,-0.544,0.051,0.844,-8.45,16.02,-0.49,1,6
16918.843,-0.587,0.035,0.844,-5.52,15.59,0.85,1,6
16918.859,-0.6,0.044,0.828,-4.64,13.7,0.27,1,6
16918.875,-0.598,0.032,0.818,-6.71,11.14,1.01,1,6
16918.875,-0.599,0.063,0.813,-10.9,7.42,-1.19,1,6
16918.89,-0.603,0.037,0.825,-13.73,5.89,-0.73,1,6
16918.89,-0.612,0.059,0.836,-12.48,4.79,1.68,1,6
16918.906,-0.567,0.113,0.811,-8.24,3.33,2.69,1,6
16918.921,-0.626,0.093,0.782,-8.55,1.46,1.74,1,6
16918.921,-0.641,0.072,0.791,-10.71,2.29,7.02,1,6
16918.937,-0.572,0.089,0.733,-11.08,3.51,13.61,1,6
16918.937,-0.571,0.091,0.701,-17.21,4.97,12.73,1,6
16918.953,-0.63,0.013,0.742,-25.21,9.4,14.28,1,6
16918.968,-0.536,0.025,0.784,-24.51,13.67,19.44,1,6
16918.984,-0.593,0.046,0.778,-20.57,14.01,15.11,1,6
16918.984,-0.565,0.007,0.834,-20.91,14.22,14.77,1,6
16919.0,-0.565,0.037,0.874,-15.87,11.63,12.05,1,6
16919.0,-0.507,0.054,0.855,-8.85,8.51,9.55,1,6
16919.015,-0.532,0.101,0.873,-5.77,3.69,1.31,1,6
16919.031,-0.537,0.102,0.89,-0.79,0.95,-2.08,1,6
16919.031,-0.555,0.156,0.882,5.13,-2.59,-1.68,1,6
16919.046,-0.558,0.183,0.855,6.74,-5.46,1.65,1,6
16919.046,-0.563,0.176,0.835,3.88,-7.54,6.53,1,6
16919.062,-0.57,0.153,0.807,-0.49,-8.06,13.25,1,6
16919.078,-0.561,0.12,0.789,-5.28,-6.53,19.35,1,6
16919.078,-0.56,0.087,0.793,-8.27,-3.78,23.22,1,6
16919.093,-0.56,0.06,0.811,-9.37,-1.59,24.57,1,6
16919.109,-0.566,0.051,0.832,-8.42,-0.55,22.92,1,6
16919.109,-0.593,0.052,0.854,-5.31,-1.37,20.33,1,6
16919.125,-0.597,0.052,0.856,-2.41,-4.76,17.85,1,6
16919.14,-0.593,0.057,0.842,0.31,-9.09,14.68,1,6
16919.14,-0.584,0.052,0.817,3.05,-12.27,11.69,1,6
16919.156,-0.578,0.058,0.788,4.61,-13.58,9.06,1,6
16919.171,-0.58,0.057,0.768,5.98,-13.15,7.14,1,6
16919.171,-0.583,0.054,0.752,7.63,-11.08,6.41,1,6
16919.187,-0.588,0.059,0.747,8.97,-7.93,6.29,1,6
16919.203,-0.593,0.054,0.748,9.13,-5.31,5.95,1,6
16919.203,-0.606,0.062,0.758,8.09,-3.33,5.28,1,6
16919.218,-0.625,0.061,0.768,7.45,-1.83,5.92,1,6
16919.218,-0.621,0.071,0.779,5.98,-1.53,7.45,1,6
16919.234,-0.63,0.081,0.792,4.94,-1.53,8.73,1,6
16919.25,-0.631,0.075,0.789,4.21,-2.59,10.9,1,6
16919.25,-0.619,0.076,0.788,2.38,-4.06,12.91,1,6
16919.265,-0.609,0.059,0.79,0.73,-5.13,14.37,1,6
16919.281,-0.585,0.039,0.786,-0.67,-5.77,15.38,1,6
16919.296,-0.57,0.024,0.781,-1.31,-4.97,15.47,1,6
16919.296,-0.564,0.011,0.789,-1.4,-3.57,14.28,1,6
16919.312,-0.563,0.001,0.792,-0.46,-2.01,12.39,1,6
16919.312,-0.558,-0.011,0.792,0.18,-0.82,9.92,1,6
16919.328,-0.558,-0.017,0.808,0.49,0.4,6.87,1,6
16919.343,-0.558,-0.016,0.829,0.92,0.85,4.06,1,6
16919.343,-0.562,-0.01,0.848,1.01,0.15,1.77,1,6
16919.359,-0.576,-0.003,0.87,1.65,-1.59,-0.31,1,6
16919.359,-0.577,0.009,0.872,2.44,-4.24,-0.85,1,6
16919.375,-0.572,0.018,0.856,1.25,-7.26,-0.98,1,6
16919.39,-0.556,0.015,0.846,-1.04,-9.49,-1.01,1,6
16919.39,-0.542,0.018,0.83,-2.17,-9.92,-1.19,1,6
16919.406,-0.543,0.022,0.811,-1.31,-8.39,-1.37,1,6
16919.421,-0.543,0.033,0.799,-0.12,-5.92,-1.13,1,6
16919.421,-0.548,0.046,0.801,0.46,-3.2,-0.89,1,6
16919.437,-0.57,0.058,0.81,0.34,-1.22,-0.82,1,6
16919.437,-0.582,0.07,0.814,-1.1,-1.01,0.0,1,6
16919.453,-0.575,0.078,0.818,-3.11,-1.77,0.55,1,6
16919.468,-0.574,0.08,0.818,-3.3,-2.47,0.55,1,6
16919.468,-0.575,0.087,0.811,-1.86,-2.96,0.89,1,6
16919.484,-0.572,0.102,0.8,-0.85,-3.17,1.86,1,6
16919.5,-0.569,0.111,0.798,-1.43,-3.08,2.5,1,6
16919.5,-0.561,0.104,0.8,-1.5,-2.87,2.84,1,6
