timestamp,ax,ay,az,gx,gy,gz,orient_label,motion_label
16897.546,-0.604,0.144,0.776,8.06,0.06,-2.38,1,6
16897.546,-0.603,0.135,0.804,3.88,0.34,3.66,1,6
16897.562,-0.592,0.116,0.831,0.03,-0.61,9.03,1,6
16897.578,-0.574,0.096,0.839,-1.92,-1.86,12.94,1,6
16897.578,-0.561,0.073,0.848,-2.78,-2.26,15.44,1,6
16897.593,-0.542,0.041,0.856,-1.95,-1.83,16.72,1,6
16897.609,-0.527,0.012,0.861,-0.34,-0.61,16.82,1,6
16897.609,-0.517,-0.015,0.872,0.7,1.65,16.14,1,6
16897.625,-0.516,-0.03,0.902,0.76,3.45,14.65,1,6
16897.64,-0.517,-0.047,0.934,0.61,3.27,12.27,1,6
16897.64,-0.514,-0.055,0.963,0.55,1.04,8.64,1,6
16897.656,-0.51,-0.069,0.982,2.08,-3.02,3.88,1,6
16897.656,-0.506,-0.074,0.975,4.58,-8.0,-1.43,1,6
16897.671,-0.494,-0.07,0.962,6.23,-12.18,-6.04,1,6
16897.687,-0.485,-0.06,0.943,7.72,-16.24,-10.96,1,6
16897.687,-0.485,-0.058,0.914,10.01,-18.8,-14.98,1,6
16897.703,-0.497,-0.037,0.89,12.33,-19.56,-17.3,1,6
16897.718,-0.499,-0.01,0.866,14.53,-19.81,-18.16,1,6
16897.718,-0.503,0.014,0.828,14.44,-19.5,-18.62,1,6
16897.734,-0.506,0.027,0.817,10.93,-19.38,-18.56,1,6
16897.75,-0.511,0.03,0.815,8.42,-18.4,-17.88,1,6
16897.75,-0.517,0.042,0.814,7.42,-17.52,-16.79,1,6
16897.765,-0.52,0.046,0.807,7.23,-16.39,-15.75,1,6
16897.781,-0.516,0.05,0.805,7.11,-15.56,-14.83,1,6
16897.781,-0.513,0.055,0.811,7.23,-14.71,-14.28,1,6
16897.796,-0.507,0.052,0.819,8.88,-14.28,-14.25,1,6
16897.796,-0.503,0.053,0.821,11.87,-14.01,-14.5,1,6
16897.812,-0.51,0.047,0.825,14.53,-14.01,-14.62,1,6
16897.828,-0.516,0.042,0.831,15.5,-14.25,-14.19,1,6
16897.843,-0.531,0.036,0.829,15.38,-14.62,-13.7,1,6
16897.843,-0.528,0.029,0.822,14.86,-15.29,-12.79,1,6
16897.859,-0.515,0.026,0.818,14.04,-15.14,-11.93,1,6
16897.859,-0.507,0.026,0.814,13.12,-13.55,-11.66,1,6
16897.875,-0.503,0.029,0.817,12.7,-11.08,-11.41,1,6
16897.89,-0.516,0.044,0.831,11.87,-8.09,-11.14,1,6
16897.89,-0.549,0.058,0.852,9.8,-5.58,-11.05,1,6
16897.906,-0.574,0.065,0.87,7.29,-4.18,-10.04,1,6
16897.921,-0.584,0.074,0.874,5.4,-4.12,-8.21,1,6
16897.921,-0.591,0.073,0.868,4.15,-4.3,-5.89,1,6
16897.937,-0.588,0.069,0.861,3.45,-4.03,-2.9,1,6
16897.937,-0.58,0.07,0.849,2.96,-3.75,0.34,1,6
16897.953,-0.562,0.056,0.839,0.37,-3.14,3.85,1,6
16897.968,-0.537,0.038,0.83,-3.91,-2.38,6.5,1,6
16897.968,-0.515,0.018,0.819,-6.65,-0.12,8.82,1,6
16897.984,-0.505,0.015,0.824,-9.06,2.59,10.07,1,6
16898.0,-0.498,0.012,0.841,-10.77,4.76,10.62,1,6
16898.015,-0.495,0.018,0.863,-10.93,6.35,10.19,1,6
16898.015,-0.5,0.019,0.888,-9.49,6.78,8.67,1,6
16898.031,-0.502,0.016,0.894,-6.56,5.49,6.96,1,6
16898.031,-0.498,0.018,0.887,-3.33,2.53,4.18,1,6
16898.046,-0.492,0.017,0.87,-3.48,1.71,2.72,1,6
16898.062,-0.484,0.013,0.86,-3.23,1.74,1.22,1,6
16898.062,-0.48,0.012,0.862,-2.14,1.77,-0.18,1,6
16898.078,-0.462,0.015,0.866,0.31,1.98,-1.86,1,6
16898.093,-0.459,0.017,0.871,2.99,2.59,-3.66,1,6
16898.093,-0.468,0.016,0.875,5.07,3.05,-4.82,1,6
16898.109,-0.477,0.021,0.888,3.81,3.36,-4.46,1,6
16898.109,-0.482,0.018,0.895,1.07,3.3,-4.67,1,6
16898.125,-0.492,0.01,0.911,0.31,2.93,-5.37,1,6
16898.14,-0.487,0.021,0.927,0.95,1.28,-6.84,1,6
16898.14,-0.477,0.021,0.929,3.02,-0.7,-9.06,1,6
16898.156,-0.469,0.028,0.931,6.59,-2.53,-11.93,1,6
16898.171,-0.473,0.038,0.934,11.2,-3.85,-14.77,1,6
16898.171,-0.476,0.047,0.933,15.81,-5.55,-17.61,1,6
16898.187,-0.473,0.051,0.928,20.05,-7.48,-19.96,1,6
16898.203,-0.481,0.058,0.928,23.87,-9.25,-22.0,1,6
16898.203,-0.472,0.065,0.925,26.89,-11.29,-23.01,1,6
16898.218,-0.454,0.074,0.915,29.15,-13.28,-24.48,1,6
16898.218,-0.439,0.078,0.915,31.59,-14.19,-26.61,1,6
16898.234,-0.429,0.083,0.923,35.52,-14.01,-29.21,1,6
16898.25,-0.428,0.097,0.941,41.6,-14.13,-31.98,1,6
16898.25,-0.429,0.117,0.957,48.71,-15.17,-34.79,1,6
16898.265,-0.431,0.145,0.97,54.99,-18.22,-37.66,1,6
16898.281,-0.43,0.163,0.984,59.82,-23.07,-40.5,1,6
16898.281,-0.424,0.176,0.994,65.03,-28.93,-43.31,1,6
16898.296,-0.417,0.164,1.002,71.66,-35.31,-46.45,1,6
16898.312,-0.407,0.186,0.997,80.57,-41.02,-49.41,1,6
16898.312,-0.391,0.202,0.976,91.34,-45.26,-51.61,1,6
16898.328,-0.374,0.21,0.949,100.62,-48.68,-53.87,1,6
16898.328,-0.359,0.247,0.931,107.12,-50.39,-55.33,1,6
16898.343,-0.35,0.268,0.919,114.11,-50.9,-55.45,1,6
16898.359,-0.346,0.293,0.905,118.99,-51.09,-54.54,1,6
16898.359,-0.35,0.323,0.884,120.64,-51.0,-53.13,1,6
16898.375,-0.358,0.338,0.86,121.31,-50.29,-51.45,1,6
16898.39,-0.384,0.424,0.831,122.84,-46.69,-45.01,1,6
16898.406,-0.375,0.471,0.809,119.66,-43.76,-37.11,1,6
16898.421,-0.361,0.521,0.792,113.25,-38.94,-26.15,1,6
16898.421,-0.354,0.558,0.816,105.75,-32.96,-11.47,1,6
16898.437,-0.363,0.571,0.849,96.44,-27.59,5.95,1,6
16898.453,-0.388,0.569,0.852,87.37,-23.87,23.01,1,6
16898.453,-0.385,0.559,0.837,79.13,-21.27,39.64,1,6
16898.468,-0.367,0.557,0.829,71.29,-19.38,54.69,1,6
16898.468,-0.343,0.55,0.81,63.14,-18.46,66.19,1,6
16898.484,-0.316,0.539,0.778,53.9,-18.52,73.55,1,6
16898.5,-0.288,0.532,0.751,44.74,-18.1,77.52,1,6
16898.515,-0.262,0.512,0.723,37.81,-16.66,79.07,1,6
16898.515,-0.233,0.495,0.7,34.18,-13.55,79.38,1,6
16898.531,-0.198,0.479,0.683,34.0,-8.45,78.46,1,6
16898.531,-0.165,0.471,0.681,37.29,-0.98,76.91,1,6
16898.546,-0.179,0.493,0.728,42.97,7.39,74.8,1,6
16898.562,-0.253,0.541,0.772,57.28,13.49,78.95,1,6
16898.578,-0.287,0.584,0.764,59.02,10.16,86.4,1,6
16898.593,-0.293,0.624,0.744,54.41,2.29,94.55,1,6
16898.593,-0.271,0.646,0.708,42.42,-8.0,102.33,1,6
16898.609,-0.229,0.647,0.673,26.76,-15.87,108.77,1,6
16898.609,-0.201,0.615,0.654,12.36,-18.83,113.8,1,6
16898.625,-0.189,0.571,0.653,4.39,-17.27,118.14,1,6
16898.64,-0.181,0.525,0.66,5.31,-12.51,122.1,1,6
16898.64,-0.18,0.499,0.667,11.87,-6.13,125.61,1,6
16898.656,-0.198,0.488,0.669,18.92,-0.31,127.87,1,6
16898.671,-0.22,0.484,0.686,22.74,2.35,128.57,1,6
16898.671,-0.236,0.479,0.693,23.56,1.65,127.72,1,6
16898.687,-0.253,0.485,0.701,20.11,-2.23,126.47,1,6
16898.703,-0.25,0.511,0.732,12.21,-9.43,124.91,1,6
16898.703,-0.229,0.541,0.77,3.02,-17.27,123.66,1,6
16898.718,-0.206,0.555,0.801,-5.04,-22.92,123.87,1,6
16898.734,-0.154,0.506,0.828,-13.31,-27.25,126.5,1,6
16898.75,-0.134,0.477,0.84,-12.45,-26.03,126.62,1,6
16898.75,-0.129,0.455,0.849,-11.11,-24.45,123.94,1,6
16898.765,-0.131,0.42,0.862,-9.7,-24.05,117.77,1,6
16898.781,-0.132,0.385,0.874,-7.39,-24.75,109.53,1,6
16898.781,-0.141,0.368,0.876,-4.61,-26.25,99.67,1,6
16898.796,-0.128,0.364,0.874,-2.41,-27.68,88.81,1,6
16898.796,-0.116,0.37,0.864,0.18,-26.52,76.78,1,6
16898.812,-0.12,0.395,0.865,3.08,-22.49,64.3,1,6
16898.828,-0.138,0.432,0.885,5.62,-17.79,52.16,1,6
16898.828,-0.167,0.459,0.895,9.46,-14.8,40.77,1,6
16898.843,-0.179,0.482,0.876,14.98,-13.31,31.04,1,6
16898.859,-0.22,0.482,0.841,21.67,-10.71,23.26,1,6
16898.859,-0.242,0.468,0.82,26.64,-7.29,20.57,1,6
16898.875,-0.251,0.497,0.812,29.79,-3.48,20.26,1,6
16898.89,-0.271,0.523,0.79,29.3,-1.22,21.06,1,6
16898.89,-0.271,0.534,0.773,21.15,-1.68,23.19,1,6
16898.906,-0.259,0.548,0.764,6.93,-2.72,25.61,1,6
16898.921,-0.242,0.543,0.757,-8.51,-2.87,28.29,1,6
16898.921,-0.224,0.537,0.779,-21.73,-0.89,31.83,1,6
16898.937,-0.23,0.557,0.84,-30.82,1.89,36.59,1,6
16898.937,-0.238,0.563,0.886,-34.67,2.56,41.35,1,6
16898.953,-0.245,0.549,0.911,-35.43,1.62,46.91,1,6
16898.968,-0.23,0.558,0.929,-34.49,-1.25,51.58,1,6
16898.984,-0.22,0.56,0.935,-33.3,-6.23,51.79,1,6
16898.984,-0.202,0.557,0.931,-33.85,-12.6,49.5,1,6
16899.0,-0.172,0.539,0.91,-33.63,-18.34,45.47,1,6
16899.0,-0.139,0.526,0.88,-31.4,-20.45,40.44,1,6
16899.015,-0.115,0.522,0.853,-27.47,-18.43,34.64,1,6
16899.031,-0.094,0.524,0.842,-17.61,-5.65,22.71,1,6
16899.031,-0.092,0.528,0.842,-13.46,0.95,17.03,1,6
16899.046,-0.098,0.517,0.848,-12.45,4.43,11.02,1,6
16899.062,-0.105,0.507,0.874,-14.77,3.39,3.45,1,6
16899.062,-0.101,0.52,0.882,-16.42,0.24,-5.74,1,6
16899.078,-0.138,0.506,0.902,-15.96,-4.18,-12.63,1,6
16899.093,-0.131,0.528,0.932,-14.8,-12.33,-15.41,1,6
16899.093,-0.089,0.568,0.932,-10.56,-21.94,-16.69,1,6
16899.109,-0.041,0.58,0.916,-4.7,-29.51,-16.91,1,6
16899.109,0.002,0.593,0.868,-0.21,-32.11,-17.12,1,6
16899.125,0.03,0.604,0.823,1.31,-29.21,-16.36,1,6
16899.14,0.037,0.598,0.782,0.89,-22.92,-14.59,1,6
16899.14,0.043,0.592,0.756,-0.31,-14.95,-11.2,1,6
16899.156,0.043,0.597,0.753,-1.65,-5.68,-6.62,1,6
16899.171,0.047,0.586,0.739,-2.81,3.3,-1.31,1,6
16899.171,0.05,0.569,0.741,-3.54,12.57,4.85,1,6
16899.187,0.045,0.555,0.756,-3.11,20.2,9.58,1,6
16899.187,0.044,0.527,0.761,-2.87,23.83,11.38,1,6
16899.203,0.038,0.496,0.77,-3.11,24.84,10.1,1,6
16899.218,0.036,0.486,0.774,-3.57,24.23,7.42,1,6
16899.218,0.029,0.467,0.779,-3.91,21.79,3.69,1,6
16899.234,0.034,0.448,0.78,-5.1,17.98,-0.7,1,6
16899.25,0.058,0.44,0.768,-4.88,15.41,-4.06,1,6
16899.25,0.073,0.45,0.751,-4.09,17.06,-6.65,1,6
16899.265,0.072,0.468,0.749,-4.64,21.85,-8.55,1,6
16899.281,0.065,0.49,0.776,-6.9,27.65,-9.52,1,6
16899.281,0.051,0.517,0.816,-9.16,32.78,-10.07,1,6
16899.296,0.03,0.531,0.854,-10.1,36.23,-10.01,1,6
16899.312,0.006,0.539,0.873,-9.52,37.32,-9.03,1,6
16899.312,-0.006,0.539,0.885,-7.35,36.44,-7.32,1,6
16899.328,-0.011,0.532,0.888,-4.36,34.76,-5.55,1,6
16899.328,-0.053,0.556,0.911,-4.55,30.76,-5.28,1,6
16899.343,-0.113,0.624,1.0,-18.19,18.28,-2.75,1,6
16899.359,-0.037,0.566,0.99,-26.7,2.29,4.91,1,6
16899.359,-0.041,0.521,0.916,-26.95,-6.41,7.29,1,6
16899.375,-0.009,0.501,0.891,-29.45,-12.12,8.51,1,6
16899.39,0.015,0.451,0.864,-25.64,-14.44,7.39,1,6
16899.39,0.026,0.437,0.834,-19.38,-13.82,4.88,1,6
16899.406,0.052,0.444,0.829,-14.98,-12.48,2.66,1,6
16899.421,0.059,0.451,0.84,-10.22,-9.09,0.7,1,6
16899.421,0.1,0.457,0.816,-4.61,-5.01,-0.06,1,6
16899.437,0.116,0.383,0.802,2.47,3.27,-3.81,1,6
16899.437,-0.069,0.534,0.939,4.7,9.49,-6.56,1,6
16899.453,0.006,0.616,0.994,5.25,0.15,2.2,1,6
16899.468,0.031,0.566,0.929,8.64,-6.56,6.81,1,6
16899.468,0.03,0.59,0.924,3.23,-7.63,9.34,1,6
16899.484,0.042,0.583,0.952,1.34,-8.15,11.02,1,6
16899.5,0.02,0.564,0.966,4.97,-8.06,12.18,1,6
16899.5,0.014,0.572,0.959,9.37,-9.77,13.7,1,6
16899.515,0.032,0.556,0.943,14.59,-12.05,14.71,1,6
16899.531,0.033,0.533,0.907,19.1,-13.34,13.64,1,6
16899.531,0.03,0.534,0.876,20.54,-14.89,11.29,1,6
16899.546,0.041,0.548,0.854,19.23,-16.85,9.37,1,6
16899.562,0.054,0.547,0.835,15.38,-17.76,8.21,1,6
16899.562,0.013,0.585,0.862,7.84,-17.94,8.39,1,6
16899.578,0.109,0.579,0.847,0.95,-20.02,12.57,1,6
16899.593,0.114,0.432,0.774,3.23,-15.93,12.09,1,6
16899.593,0.076,0.464,0.795,1.04,-8.79,10.19,1,6
16899.609,0.102,0.487,0.822,2.26,-5.71,10.01,1,6
16899.609,0.08,0.479,0.821,6.29,-2.75,10.01,1,6
16899.625,0.098,0.467,0.798,6.56,-2.04,9.89,1,6
16899.64,0.077,0.454,0.805,10.47,0.73,7.9,1,6
16899.64,0.063,0.488,0.83,13.46,2.32,6.74,1,6
16899.656,0.05,0.513,0.831,14.8,0.92,5.4,1,6
16899.671,0.038,0.528,0.837,11.99,-2.17,4.76,1,6
16899.671,0.037,0.529,0.837,7.2,-6.84,5.07,1,6
16899.687,0.052,0.523,0.825,3.3,-10.65,6.81,1,6
16899.703,0.076,0.506,0.808,0.98,-12.15,8.48,1,6
16899.703,0.103,0.498,0.792,-1.19,-10.71,9.43,1,6
16899.718,0.115,0.481,0.777,-3.2,-6.9,8.45,1,6
16899.718,0.123,0.466,0.778,-4.85,-1.95,5.89,1,6
16899.734,0.12,0.458,0.797,-5.16,3.36,2.47,1,6
16899.75,0.094,0.456,0.825,-3.23,7.75,-1.19,1,6
16899.75,0.057,0.477,0.872,0.0,9.4,-4.09,1,6
16899.765,0.02,0.52,0.914,3.39,6.65,-5.01,1,6
16899.781,0.015,0.559,0.932,5.52,0.52,-3.42,1,6
16899.781,0.034,0.582,0.921,5.13,-6.26,-1.37,1,6
16899.796,0.059,0.582,0.898,4.36,-10.35,-0.12,1,6
16899.796,0.07,0.578,0.868,4.15,-10.9,0.46,1,6
16899.812,0.074,0.568,0.841,5.16,-8.7,1.28,1,6
16899.828,0.073,0.56,0.826,5.52,-5.89,1.59,1,6
16899.828,0.064,0.552,0.819,4.76,-3.72,0.89,1,6
16899.843,0.054,0.542,0.818,3.88,-2.47,-0.12,1,6
16899.859,0.052,0.543,0.834,3.2,-2.35,-0.92,1,6
16899.859,0.048,0.557,0.846,4.15,-2.23,-1.28,1,6
16899.875,0.047,0.555,0.843,5.62,-2.35,-0.85,1,6
16899.89,0.059,0.553,0.839,5.98,-2.69,-0.46,1,6
16899.89,0.064,0.547,0.842,5.95,-2.2,-1.13,1,6
16899.906,0.06,0.534,0.838,6.62,-1.8,-1.77,1,6
16899.921,0.064,0.526,0.825,7.63,-2.17,-1.89,1,6
16899.937,0.063,0.526,0.816,7.11,-2.29,-2.47,1,6
16899.953,0.067,0.52,0.806,6.32,-2.2,-2.78,1,6
16899.953,0.07,0.518,0.798,5.46,-1.22,-3.08,1,6
16899.968,0.073,0.519,0.794,4.67,0.43,-3.27,1,6
16899.968,0.075,0.531,0.792,5.37,2.81,-2.41,1,6
16899.984,0.075,0.532,0.782,7.42,6.5,-0.73,1,6
16900.0,0.061,0.524,0.808,2.32,6.96,-2.59,1,6
16900.015,0.055,0.522,0.83,-1.22,3.42,-3.72,1,6
16900.015,0.06,0.513,0.832,-0.49,2.11,-3.78,1,6
16900.031,0.06,0.518,0.838,0.95,0.73,-3.81,1,6
16900.031,0.063,0.521,0.84,2.87,-0.15,-3.75,1,6
16900.046,0.07,0.527,0.834,3.75,-0.64,-3.91,1,6
16900.062,0.068,0.534,0.831,3.39,-1.28,-4.21,1,6
16900.062,0.069,0.546,0.832,2.38,-1.74,-4.49,1,6
16900.078,0.07,0.561,0.83,1.07,-1.74,-4.21,1,6
16900.093,0.071,0.574,0.831,-2.62,-0.76,-1.59,1,6
16900.109,0.075,0.574,0.834,-4.24,-0.34,-0.12,1,6
16900.109,0.069,0.562,0.836,-4.52,0.12,0.76,1,6
16900.125,0.071,0.553,0.842,-3.51,0.24,1.25,1,6
16900.14,0.068,0.545,0.843,-1.74,0.18,1.16,1,6
16900.14,0.061,0.536,0.84,-0.06,-0.21,0.76,1,6
16900.156,0.059,0.532,0.841,1.56,-1.22,0.43,1,6
16900.171,0.063,0.525,0.833,2.59,-2.59,0.09,1,6
16900.171,0.066,0.523,0.827,2.96,-3.36,-0.43,1,6
16900.187,0.064,0.522,0.82,3.05,-3.48,-1.16,1,6
16900.187,0.06,0.522,0.816,2.78,-3.54,-1.83,1,6
16900.203,0.06,0.521,0.807,2.59,-3.72,-2.41,1,6
16900.218,0.058,0.518,0.795,2.62,-3.39,-3.36,1,6
16900.218,0.059,0.515,0.788,2.47,-2.96,-4.36,1,6
16900.234,0.057,0.513,0.79,1.98,-2.53,-5.62,1,6
16900.25,0.06,0.518,0.793,2.23,-2.14,-7.05,1,6
16900.265,0.062,0.542,0.819,3.17,-0.12,-10.53,1,6
16900.281,0.059,0.549,0.828,3.57,0.12,-11.57,1,6
16900.281,0.059,0.545,0.824,4.67,0.18,-11.96,1,6
16900.296,0.093,0.545,0.801,5.04,0.03,-13.18,1,6
16900.296,0.121,0.457,0.757,9.89,4.88,-17.15,1,6
16900.312,-0.036,0.543,0.793,12.79,10.65,-22.34,1,6
16900.328,0.02,0.676,0.877,6.71,6.26,-18.89,1,6
16900.328,-0.019,0.644,0.853,8.0,1.71,-15.75,1,6
16900.343,-0.059,0.724,0.875,-0.73,-3.23,-8.55,1,6
16900.359,-0.051,0.735,0.885,-7.29,-10.65,2.23,1,6
16900.359,-0.027,0.671,0.873,-10.8,-17.03,11.47,1,6
16900.375,-0.025,0.656,0.882,-14.5,-21.88,18.04,1,6
16900.39,-0.008,0.595,0.873,-15.81,-27.07,22.22,1,6
16900.406,0.001,0.623,0.882,-17.88,-32.26,24.87,1,6
16900.406,0.139,0.517,0.81,-13.4,-32.59,26.98,1,6
16900.421,0.09,0.454,0.823,-8.51,-26.34,21.73,1,6
16900.437,0.168,0.462,0.8,-1.92,-19.5,23.19,1,6
16900.453,0.151,0.441,0.782,1.77,-11.41,20.69,1,6
16900.453,0.18,0.48,0.792,1.25,-4.88,17.73,1,6
16900.468,0.152,0.45,0.787,3.23,1.37,12.67,1,6
16900.468,0.115,0.446,0.814,4.3,5.71,9.49,1,6
16900.484,0.088,0.471,0.845,5.4,6.04,8.03,1,6
16900.5,0.074,0.49,0.871,5.46,2.69,7.05,1,6
16900.515,0.081,0.498,0.878,3.48,-3.14,5.68,1,6
16900.515,0.103,0.504,0.866,0.27,-8.58,3.45,1,6
16900.531,0.123,0.495,0.847,-1.16,-11.44,0.85,1,6
16900.531,0.141,0.494,0.827,-0.58,-11.35,-1.71,1,6
16900.546,0.15,0.503,0.807,1.77,-8.36,-4.12,1,6
16900.562,0.149,0.508,0.791,3.88,-3.91,-6.35,1,6
16900.562,0.138,0.508,0.78,4.82,0.49,-8.21,1,6
16900.578,0.122,0.512,0.784,5.89,4.39,-9.43,1,6
16900.578,0.11,0.518,0.787,7.11,6.93,-10.1,1,6
16900.593,0.088,0.53,0.799,8.21,8.51,-10.16,1,6
16900.609,0.059,0.543,0.817,8.7,7.93,-9.67,1,6
16900.609,0.057,0.559,0.83,6.74,4.27,-8.7,1,6
16900.625,0.064,0.567,0.835,4.21,0.03,-7.66,1,6
16900.64,0.069,0.576,0.832,2.53,-2.96,-5.89,1,6
16900.656,0.072,0.585,0.821,0.85,-4.46,-3.27,1,6
16900.656,0.082,0.583,0.809,-1.22,-5.43,-0.73,1,6
16900.671,0.098,0.575,0.798,-3.27,-5.37,0.98,1,6
16900.671,0.105,0.562,0.792,-4.43,-3.94,1.77,1,6
16900.687,0.103,0.548,0.79,-4.36,-1.68,1.62,1,6
16900.703,0.094,0.541,0.796,-3.08,0.4,0.82,1,6
16900.703,0.093,0.539,0.802,-1.65,1.46,-0.03,1,6
16900.718,0.097,0.544,0.806,-0.95,2.53,-1.19,1,6
16900.718,0.091,0.552,0.815,-0.43,4.0,-2.11,1,6
16900.734,0.086,0.56,0.824,-0.31,4.79,-2.35,1,6
16900.75,0.082,0.572,0.842,-0.46,4.91,-1.86,1,6
16900.75,0.07,0.574,0.852,0.61,4.67,-0.15,1,6
16900.765,0.065,0.575,0.852,1.43,3.2,2.29,1,6
16900.781,0.076,0.574,0.84,1.1,1.16,4.52,1,6
16900.781,0.085,0.571,0.822,-0.34,-0.06,6.04,1,6
16900.796,0.088,0.562,0.803,-2.87,-0.31,7.42,1,6
16900.796,0.093,0.549,0.787,-6.13,-0.03,8.55,1,6
16900.812,0.098,0.532,0.777,-8.39,1.37,9.19,1,6
16900.828,0.101,0.516,0.774,-9.25,3.69,9.16,1,6
16900.828,0.102,0.503,0.781,-8.97,6.07,8.0,1,6
16900.843,0.096,0.491,0.794,-6.84,8.3,6.04,1,6
16900.859,0.083,0.492,0.809,-3.17,9.86,4.21,1,6
16900.875,0.073,0.502,0.829,0.15,9.4,2.75,1,6
16900.875,0.07,0.515,0.834,2.38,6.96,1.31,1,6
16900.89,0.077,0.522,0.835,2.93,4.12,0.0,1,6
16900.89,0.086,0.534,0.828,2.08,2.17,-1.04,1,6
16900.906,0.091,0.547,0.821,0.37,1.5,-1.31,1,6
16900.921,0.093,0.555,0.818,-1.83,1.92,-0.55,1,6
16900.921,0.096,0.558,0.815,-3.66,3.57,0.92,1,6
16900.937,0.094,0.554,0.821,-5.83,5.19,2.04,1,6
16900.953,0.09,0.543,0.829,-6.16,7.9,2.56,1,6
16900.968,0.083,0.544,0.843,-5.92,8.79,2.14,1,6
16900.968,0.075,0.54,0.856,-4.58,9.13,1.4,1,6
16900.984,0.058,0.536,0.865,-2.08,8.3,0.82,1,6
16901.0,0.051,0.542,0.871,1.37,2.75,1.31,1,6
16901.0,0.05,0.549,0.863,0.24,-0.4,1.53,1,6
16901.015,0.057,0.557,0.855,-2.44,-2.78,1.5,1,6
16901.031,0.079,0.553,0.831,-4.76,-3.51,1.34,1,6
16901.031,0.085,0.55,0.824,-5.52,-2.32,1.83,1,6
16901.046,0.082,0.546,0.82,-4.52,0.18,2.75,1,6
16901.046,0.074,0.544,0.826,-4.18,1.89,3.6,1,6
16901.062,0.075,0.542,0.834,-4.52,1.8,3.91,1,6
16901.078,0.071,0.533,0.839,-4.15,1.31,3.72,1,6
16901.078,0.07,0.527,0.842,-3.57,0.52,3.39,1,6
16901.093,0.071,0.529,0.84,-2.87,-0.37,3.36,1,6
16901.109,0.07,0.534,0.834,-3.14,-0.82,3.63,1,6
16901.125,0.074,0.541,0.823,-6.93,-1.71,5.55,1,6
16901.14,0.071,0.542,0.826,-9.74,-1.68,6.9,1,6
16901.14,0.079,0.539,0.832,-13.15,-2.08,8.24,1,6
16901.156,0.087,0.519,0.831,-15.08,-2.29,9.19,1,6
16901.171,0.092,0.503,0.834,-15.35,-1.86,9.06,1,6
16901.171,0.095,0.484,0.835,-13.7,-1.43,7.78,1,6
16901.187,0.104,0.464,0.833,-10.86,-1.22,5.49,1,6
16901.187,0.115,0.454,0.829,-6.93,-0.52,2.38,1,6
16901.203,0.116,0.446,0.826,-1.95,1.28,-0.98,1,6
16901.218,0.114,0.456,0.833,1.56,3.6,-4.18,1,6
16901.234,0.101,0.477,0.835,3.48,5.55,-6.41,1,6
16901.234,0.088,0.488,0.834,3.51,6.38,-7.02,1,6
16901.25,0.087,0.501,0.838,1.1,6.1,-6.96,1,6
16901.25,0.087,0.506,0.84,-1.83,5.52,-6.78,1,6
16901.265,0.087,0.498,0.838,-4.0,5.07,-6.78,1,6
16901.281,0.092,0.492,0.831,-5.46,5.07,-7.02,1,6
16901.296,0.1,0.474,0.817,-4.21,7.35,-9.19,1,6
16901.312,0.1,0.464,0.804,-2.66,10.13,-11.08,1,6
16901.312,0.098,0.453,0.785,-2.11,13.12,-13.52,1,6
16901.328,0.103,0.427,0.762,-3.2,16.94,-16.42,1,6
16901.328,0.09,0.413,0.74,-5.07,22.77,-19.96,1,6
16901.343,0.054,0.44,0.721,-8.48,30.12,-21.97,1,6
16901.359,0.025,0.516,0.779,-20.63,36.1,-21.45,1,6
16901.359,0.055,0.549,0.822,-30.7,40.41,-19.14,1,6
16901.375,-0.164,0.556,0.994,-34.0,42.82,-18.31,1,6
16901.39,-0.215,0.759,1.149,-40.1,26.55,-6.96,1,6
16901.39,-0.067,0.703,1.092,-31.77,7.17,9.25,1,6
16901.406,-0.014,0.589,0.989,-22.31,1.59,16.42,1,6
16901.421,0.036,0.538,0.975,-16.27,3.11,16.75,1,6
16901.421,0.032,0.48,0.969,-2.69,7.48,13.52,1,6
16901.437,-0.017,0.468,0.944,10.19,8.85,8.88,1,6
16901.453,-0.044,0.486,0.932,16.24,4.7,5.28,1,6
16901.468,-0.062,0.5,0.91,20.17,-8.64,2.23,1,6
16901.468,-0.096,0.548,0.927,18.13,-14.5,3.17,1,6
16901.484,-0.012,0.588,0.889,13.18,-20.11,8.36,1,6
16901.5,-0.021,0.515,0.855,10.71,-18.68,8.45,1,6
16901.5,-0.052,0.549,0.895,3.3,-17.3,8.18,1,6
16901.515,-0.015,0.554,0.93,-3.88,-20.42,8.85,1,6
16901.531,-0.013,0.511,0.902,-0.15,-19.84,10.99,1,6
16901.531,-0.014,0.512,0.894,4.49,-18.13,12.88,1,6
16901.546,-0.015,0.508,0.884,8.73,-18.16,12.88,1,6
16901.562,-0.008,0.495,0.869,12.97,-19.23,12.54,1,6
16901.562,0.003,0.491,0.852,15.17,-20.84,11.57,1,6
16901.578,0.023,0.493,0.834,15.53,-21.88,10.13,1,6
16901.593,0.03,0.493,0.822,14.56,-21.61,8.55,1,6
16901.593,0.046,0.487,0.814,12.79,-21.06,6.9,1,6
16901.609,0.066,0.487,0.808,11.78,-20.02,5.65,1,6
16901.609,0.084,0.481,0.801,12.27,-17.7,4.55,1,6
16901.64,0.104,0.475,0.791,15.26,-10.19,1.25,1,6
16901.64,0.099,0.486,0.802,16.91,-6.16,-1.04,1,6
16901.656,0.079,0.491,0.809,17.76,-4.46,-3.27,1,6
16901.671,0.071,0.494,0.823,16.36,-5.46,-4.58,1,6
16901.671,0.072,0.506,0.827,14.56,-7.93,-5.16,1,6
16901.687,0.071,0.514,0.827,13.0,-10.47,-4.73,1,6
16901.703,0.079,0.524,0.828,10.28,-13.49,-3.11,1,6
16901.703,0.102,0.524,0.823,6.41,-16.42,-1.37,1,6
16901.718,0.124,0.508,0.806,3.11,-17.94,-0.58,1,6
16901.718,0.135,0.488,0.793,1.74,-17.15,-0.09,1,6
16901.734,0.146,0.472,0.781,2.35,-15.29,0.21,1,6
16901.75,0.162,0.474,0.769,3.6,-12.88,-0.24,1,6
16901.75,0.173,0.472,0.767,5.58,-9.34,-1.31,1,6
16901.765,0.171,0.471,0.77,7.35,-4.97,-2.9,1,6
16901.781,0.16,0.492,0.792,8.64,-0.92,-4.67,1,6
16901.781,0.134,0.52,0.821,10.04,1.92,-5.95,1,6
16901.812,0.104,0.557,0.86,8.91,0.89,-5.04,1,6
16901.812,0.099,0.584,0.882,7.08,-0.89,-4.3,1,6
16901.828,0.081,0.591,0.888,6.29,-2.66,-3.23,1,6
16901.828,0.076,0.596,0.895,4.58,-5.28,-1.65,1,6
16901.843,0.083,0.601,0.899,2.69,-8.36,-0.12,1,6
16901.859,0.092,0.597,0.894,2.38,-10.35,1.22,1,6
16901.859,0.101,0.588,0.884,3.14,-10.77,2.35,1,6
16901.875,0.104,0.581,0.872,4.24,-10.25,2.84,1,6
16901.89,0.105,0.578,0.867,5.31,-9.31,3.05,1,6
16901.89,0.094,0.58,0.873,6.01,-8.18,3.11,1,6
16901.906,0.08,0.574,0.879,6.32,-8.18,3.69,1,6
16901.906,0.084,0.574,0.884,5.83,-9.77,4.97,1,6
16901.921,0.092,0.57,0.882,5.58,-11.35,6.13,1,6
16901.937,0.096,0.562,0.883,4.85,-12.97,6.87,1,6
16901.937,0.102,0.563,0.891,4.15,-14.68,7.45,1,6
16901.953,0.115,0.566,0.893,3.88,-16.51,7.93,1,6
16901.968,0.132,0.565,0.886,2.81,-18.01,7.75,1,6
16901.968,0.148,0.56,0.882,1.98,-18.89,7.14,1,6
16901.984,0.158,0.558,0.882,2.59,-18.74,7.32,1,6
16902.0,0.165,0.561,0.886,2.99,-19.1,8.0,1,6
16902.015,0.179,0.573,0.897,2.84,-20.36,8.97,1,6
16902.015,0.194,0.569,0.899,1.56,-22.16,10.13,1,6
16902.031,0.217,0.565,0.901,0.06,-24.2,11.47,1,6
16902.031,0.234,0.563,0.902,-1.4,-24.99,12.73,1,6
16902.046,0.243,0.558,0.908,-3.2,-25.33,14.07,1,6
16902.062,0.257,0.548,0.905,-5.55,-25.67,14.68,1,6
16902.062,0.261,0.539,0.908,-7.23,-25.48,14.59,1,6
16902.078,0.258,0.53,0.909,-7.93,-25.48,13.79,1,6
16902.078,0.251,0.518,0.903,-7.9,-26.31,12.7,1,6
16902.093,0.245,0.512,0.894,-7.14,-27.68,11.47,1,6
16902.109,0.244,0.505,0.882,-5.22,-29.48,9.95,1,6
16902.109,0.246,0.506,0.865,-2.93,-30.73,8.64,1,6
16902.125,0.243,0.512,0.85,-0.85,-31.53,7.66,1,6
16902.14,0.241,0.521,0.835,0.37,-31.92,7.26,1,6
16902.14,0.23,0.539,0.829,-0.18,-32.32,7.35,1,6
16902.156,0.224,0.549,0.819,-2.69,-33.51,7.57,1,6
16902.171,0.225,0.55,0.804,-5.68,-34.58,8.24,1,6
16902.171,0.229,0.546,0.786,-7.51,-34.39,8.97,1,6
16902.187,0.231,0.537,0.773,-8.06,-33.23,9.61,1,6
16902.187,0.227,0.532,0.76,-7.66,-31.25,9.64,1,6
16902.203,0.218,0.524,0.752,-6.71,-29.27,9.06,1,6
16902.218,0.215,0.523,0.756,-5.16,-27.71,8.55,1,6
16902.234,0.2,0.528,0.762,-3.48,-27.04,8.45,1,6
16902.234,0.202,0.535,0.765,-2.69,-28.14,9.22,1,6
16902.25,0.224,0.545,0.762,-2.9,-29.69,9.98,1,6
16902.25,0.24,0.557,0.764,-3.78,-29.6,10.38,1,6
16902.265,0.241,0.564,0.772,-4.73,-27.99,11.57,1,6
16902.281,0.242,0.571,0.784,-6.71,-26.73,13.34,1,6
16902.281,0.25,0.568,0.793,-9.34,-26.73,14.71,1,6
16902.296,0.264,0.556,0.802,-11.78,-27.41,15.59,1,6
16902.312,0.278,0.538,0.806,-12.48,-27.89,15.63,1,6
16902.312,0.294,0.525,0.81,-11.6,-28.26,14.65,1,6
16902.328,0.317,0.518,0.82,-9.58,-28.87,13.4,1,6
16902.328,0.329,0.519,0.833,-6.62,-29.15,12.18,1,6
16902.343,0.337,0.527,0.846,-4.61,-30.12,11.23,1,6
16902.359,0.351,0.534,0.849,-4.3,-31.8,10.13,1,6
16902.375,0.358,0.532,0.853,-4.27,-32.9,9.22,1,6
16902.375,0.364,0.532,0.862,-4.24,-33.69,8.82,1,6
16902.39,0.37,0.538,0.869,-3.45,-34.88,8.67,1,6
16902.39,0.388,0.545,0.866,-2.17,-36.41,8.27,1,6
16902.406,0.411,0.554,0.86,-1.34,-37.48,8.06,1,6
16902.421,0.426,0.563,0.856,-0.61,-38.12,7.97,1,6
16902.421,0.439,0.572,0.851,-0.15,-38.94,8.85,1,6
16902.437,0.462,0.579,0.846,0.15,-40.25,10.86,1,6
16902.437,0.486,0.587,0.844,0.67,-41.9,13.31,1,6
16902.453,0.509,0.597,0.848,0.18,-43.7,16.02,1,6
16902.468,0.542,0.608,0.858,-1.71,-46.69,19.47,1,6
16902.484,0.575,0.615,0.863,-4.18,-50.51,22.52,1,6
16902.484,0.611,0.615,0.866,-5.98,-54.87,25.3,1,6
16902.5,0.656,0.615,0.866,-6.23,-59.02,27.77,1,6
16902.5,0.689,0.61,0.852,-4.82,-62.93,30.27,1,6
16902.515,0.73,0.604,0.842,-3.27,-65.86,34.0,1,6
16902.531,0.767,0.596,0.839,-2.9,-67.6,38.24,1,6
16902.531,0.795,0.595,0.846,-3.91,-69.06,42.42,1,6
16902.546,0.81,0.592,0.856,-5.25,-71.05,45.99,1,6
16902.562,0.814,0.588,0.875,-6.47,-74.8,49.62,1,6
16902.562,0.821,0.581,0.887,-7.54,-80.84,53.41,1,6
16902.578,0.833,0.577,0.886,-8.76,-88.02,56.79,1,6
16902.578,0.848,0.575,0.887,-9.09,-95.1,60.03,1,6
16902.593,0.876,0.579,0.88,-7.14,-101.11,62.72,1,6
16902.609,0.904,0.597,0.868,-4.46,-103.49,64.46,1,6
16902.609,0.908,0.606,0.859,-2.66,-101.78,65.03,1,6
16902.625,0.887,0.598,0.858,-1.65,-98.94,65.13,1,6
16902.64,0.852,0.577,0.855,0.85,-96.84,64.94,1,6
16902.656,0.738,0.521,0.821,8.06,-97.87,61.28,1,6
16902.671,0.691,0.478,0.791,12.21,-101.23,57.47,1,6
16902.671,0.657,0.435,0.745,17.76,-104.28,51.82,1,6
16902.687,0.635,0.393,0.687,24.51,-106.33,44.5,1,6
16902.703,0.625,0.354,0.608,32.47,-107.12,35.74,1,6
16902.703,0.618,0.322,0.515,41.17,-105.81,26.31,1,6
16902.718,0.611,0.308,0.425,48.74,-101.75,18.25,1,6
16902.734,0.624,0.321,0.358,50.36,-94.64,12.7,1,6
16902.734,0.642,0.356,0.326,44.74,-84.26,8.18,1,6
16902.75,0.642,0.382,0.331,35.28,-71.29,3.97,1,6
16902.75,0.624,0.401,0.35,25.06,-57.34,1.5,1,6
16902.765,0.639,0.372,0.391,18.25,-43.37,3.78,1,6
16902.781,0.629,0.432,0.391,17.98,-35.4,1.43,1,6
16902.781,0.612,0.35,0.4,15.99,-26.55,6.04,1,6
16902.796,0.626,0.364,0.378,15.11,-25.45,11.57,1,6
16902.812,0.705,0.44,0.35,9.8,-26.64,12.54,1,6
16902.828,0.682,0.378,0.434,-18.34,-14.13,22.13,1,6
16902.828,0.731,0.421,0.47,-18.98,-12.57,26.64,1,6
16902.843,0.724,0.441,0.476,-17.7,-13.43,26.34,1,6
16902.859,0.702,0.39,0.491,-20.42,-14.98,27.83,1,6
16902.859,0.697,0.381,0.523,-20.36,-19.65,30.55,1,6
16902.875,0.701,0.382,0.517,-15.72,-27.01,33.45,1,6
16902.89,0.722,0.38,0.469,-12.12,-36.04,34.21,1,6
16902.89,0.717,0.357,0.417,-13.0,-42.02,32.65,1,6
16902.906,0.732,0.33,0.4,-17.15,-43.0,32.5,1,6
16902.921,0.732,0.342,0.385,-19.68,-41.9,29.48,1,6
16902.921,0.709,0.315,0.367,-19.14,-43.03,24.11,1,6
16902.937,0.7,0.308,0.39,-16.66,-43.64,20.45,1,6
16902.937,0.688,0.334,0.41,-12.91,-43.92,16.85,1,6
16902.953,0.675,0.357,0.419,-16.02,-48.83,11.44,1,6
16902.968,0.669,0.39,0.443,-21.79,-49.53,11.72,1,6
16902.984,0.641,0.407,0.491,-27.28,-51.18,14.1,1,6
16903.0,0.684,0.464,0.538,-42.21,-53.5,15.69,1,6
16903.0,0.683,0.442,0.518,-50.97,-54.29,14.5,1,6
16903.015,0.677,0.407,0.511,-56.34,-52.95,14.1,1,6
16903.031,0.672,0.376,0.508,-56.22,-50.36,14.13,1,6
16903.031,0.668,0.362,0.521,-53.44,-47.12,14.16,1,6
16903.046,0.668,0.346,0.534,-48.68,-43.95,13.46,1,6
16903.062,0.65,0.326,0.531,-43.82,-40.8,12.7,1,6
16903.062,0.643,0.306,0.519,-41.84,-39.89,11.72,1,6
16903.078,0.657,0.289,0.491,-39.7,-41.05,9.03,1,6
16903.078,0.675,0.277,0.468,-36.84,-41.35,4.82,1,6
16903.093,0.687,0.279,0.465,-33.36,-39.83,-0.09,1,6
16903.109,0.687,0.287,0.445,-29.27,-37.66,-4.97,1,6
16903.109,0.683,0.288,0.428,-27.95,-35.89,-8.55,1,6
16903.125,0.737,0.303,0.449,-27.44,-31.1,-7.66,1,6
16903.14,0.707,0.356,0.438,-26.8,-29.05,-11.17,1,6
16903.156,0.673,0.301,0.418,-32.9,-29.69,-10.07,1,6
16903.156,0.697,0.327,0.429,-41.38,-29.76,-6.13,1,6
16903.171,0.649,0.309,0.397,-42.88,-28.6,-5.95,1,6
16903.171,0.593,0.287,0.351,-43.4,-27.68,-7.26,1,6
16903.187,0.541,0.296,0.306,-44.01,-26.58,-11.17,1,6
16903.203,0.491,0.312,0.242,-43.76,-25.06,-17.79,1,6
16903.203,0.466,0.35,0.176,-46.02,-21.94,-24.35,1,6
16903.218,0.507,0.442,0.174,-52.92,-16.85,-26.92,1,6
16903.218,0.586,0.608,0.224,-65.37,-8.36,-19.9,1,6
16903.234,0.592,0.751,0.249,-90.49,2.04,2.78,1,6
16903.25,0.581,0.74,0.298,-127.57,8.06,39.03,1,6
16903.25,0.558,0.669,0.359,-161.69,9.31,82.95,1,6
16903.265,0.533,0.541,0.368,-180.94,6.68,127.2,1,6
16903.281,0.546,0.38,0.356,-183.66,2.44,162.76,1,6
16903.281,0.627,0.208,0.353,-170.45,-0.18,184.82,1,6
16903.296,0.725,0.074,0.349,-146.73,1.34,192.72,1,6
16903.312,0.805,-0.023,0.367,-122.1,6.32,188.42,1,6
16903.312,0.851,-0.125,0.398,-101.96,10.71,176.73,1,6
16903.328,0.845,-0.224,0.432,-86.64,13.92,161.53,1,6
16903.343,0.819,-0.328,0.465,-73.98,14.53,144.47,1,6
16903.343,0.819,-0.39,0.47,-61.74,11.05,126.38,1,6
16903.359,0.873,-0.416,0.475,-50.51,6.44,108.71,1,6
16903.359,0.93,-0.442,0.453,-40.16,3.14,90.82,1,6
16903.375,0.94,-0.438,0.429,-32.38,1.13,73.73,1,6
16903.39,0.938,-0.441,0.42,-26.31,1.86,59.02,1,6
16903.39,0.928,-0.426,0.408,-21.12,2.35,44.95,1,6
16903.406,0.904,-0.411,0.387,-17.4,3.39,31.34,1,6
16903.421,0.879,-0.386,0.374,-14.34,5.49,19.32,1,6
16903.421,0.891,-0.35,0.367,-11.26,7.87,9.67,1,6
16903.437,0.907,-0.314,0.387,-9.64,10.53,3.23,1,6
16903.437,0.869,-0.283,0.406,-9.19,13.61,-1.71,1,6
16903.453,0.846,-0.276,0.434,-9.83,14.13,-5.25,1,6
16903.468,0.803,-0.269,0.452,-9.98,12.73,-9.52,1,6
16903.468,0.793,-0.249,0.465,-9.43,8.73,-12.91,1,6
16903.484,0.805,-0.231,0.466,-8.48,5.31,-14.92,1,6
16903.5,0.81,-0.214,0.453,-6.44,3.81,-17.27,1,6
16903.5,0.833,-0.194,0.438,-3.63,3.39,-18.68,1,6
16903.515,0.848,-0.166,0.42,-0.73,5.16,-18.4,1,6
16903.531,0.848,-0.146,0.41,0.89,7.9,-16.57,1,6
16903.531,0.839,-0.132,0.402,0.43,10.77,-14.07,1,6
16903.546,0.819,-0.118,0.412,-1.8,13.09,-11.17,1,6
16903.546,0.809,-0.105,0.428,-4.58,14.01,-8.12,1,6
16903.562,0.814,-0.103,0.438,-8.27,14.01,-3.48,1,6
16903.578,0.821,-0.1,0.442,-12.97,13.46,2.69,1,6
16903.578,0.832,-0.105,0.448,-17.76,12.48,9.95,1,6
16903.593,0.833,-0.114,0.462,-23.26,10.99,17.49,1,6
16903.609,0.844,-0.125,0.476,-28.87,8.12,24.23,1,6
16903.609,0.851,-0.14,0.476,-32.65,5.77,28.96,1,6
16903.625,0.875,-0.173,0.474,-34.18,4.03,32.62,1,6
16903.64,0.897,-0.192,0.473,-33.02,3.75,34.97,1,6
16903.656,0.909,-0.199,0.468,-30.3,5.25,35.1,1,6
16903.671,0.898,-0.24,0.486,-23.1,8.79,30.52,1,6
16903.671,0.881,-0.244,0.499,-18.83,8.88,27.41,1,6
16903.687,0.859,-0.253,0.506,-15.41,7.2,23.07,1,6
16903.703,0.82,-0.265,0.502,-11.69,4.21,17.52,1,6
16903.703,0.793,-0.269,0.484,-7.87,-0.09,11.69,1,6
16903.718,0.784,-0.259,0.448,-5.22,-4.43,5.92,1,6
16903.718,0.79,-0.248,0.408,-2.75,-7.54,-0.18,1,6
16903.734,0.831,-0.235,0.387,0.92,-8.09,-5.25,1,6
16903.75,0.824,-0.216,0.377,4.79,-4.82,-8.73,1,6
16903.765,0.815,-0.212,0.382,8.3,-2.01,-11.35,1,6
16903.765,0.799,-0.209,0.398,11.63,-0.76,-13.82,1,6
16903.781,0.781,-0.214,0.404,15.47,-1.5,-15.9,1,6
16903.781,0.795,-0.212,0.392,17.27,-3.81,-17.55,1,6
16903.796,0.811,-0.209,0.374,17.76,-4.94,-19.62,1,6
16903.812,0.811,-0.202,0.365,18.01,-4.94,-22.25,1,6
16903.812,0.814,-0.191,0.355,18.04,-4.43,-25.03,1,6
16903.828,0.865,-0.158,0.369,19.26,0.98,-26.06,1,6
16903.843,0.864,-0.137,0.395,18.8,4.33,-23.56,1,6
16903.859,0.866,-0.133,0.42,15.32,5.13,-19.78,1,6
16903.859,0.854,-0.135,0.445,10.62,4.21,-15.72,1,6
16903.875,0.85,-0.136,0.465,6.5,2.23,-11.87,1,6
16903.89,0.856,-0.134,0.482,3.63,-0.34,-8.21,1,6
16903.89,0.88,-0.129,0.487,1.37,-3.02,-4.46,1,6
16903.906,0.907,-0.13,0.487,-0.92,-4.76,-0.09,1,6
16903.921,0.924,-0.136,0.48,-2.99,-5.37,4.24,1,6
16903.921,0.937,-0.146,0.468,-4.46,-4.49,8.42,1,6
16903.937,0.943,-0.151,0.464,-6.68,-3.17,12.33,1,6
16903.937,0.926,-0.158,0.457,-11.87,-2.47,16.39,1,6
16903.953,0.91,-0.168,0.453,-12.79,-3.33,17.55,1,6
16903.968,0.907,-0.178,0.442,-14.31,-3.78,19.17,1,6
16903.984,0.894,-0.189,0.428,-15.59,-3.81,20.08,1,6
16903.984,0.885,-0.203,0.43,-15.84,-3.91,20.69,1,6
16904.0,0.899,-0.22,0.424,-14.53,-2.38,21.21,1,6
16904.015,0.895,-0.23,0.427,-12.97,-0.98,20.75,1,6
16904.031,0.892,-0.241,0.437,-11.99,-0.34,19.44,1,6
16904.031,0.883,-0.248,0.443,-11.17,-0.52,16.94,1,6
16904.046,0.894,-0.26,0.442,-9.74,-1.74,13.86,1,6
16904.062,0.909,-0.268,0.434,-7.69,-2.66,10.16,1,6
16904.062,0.908,-0.273,0.428,-5.83,-2.56,6.01,1,6
16904.078,0.9,-0.282,0.421,-3.66,-1.98,1.83,1,6
16904.078,0.903,-0.279,0.406,-1.62,-1.04,-2.11,1,6
16904.093,0.928,-0.268,0.397,-0.95,0.55,-4.97,1,6
16904.109,0.934,-0.256,0.404,-1.34,3.78,-6.78,1,6
16904.109,0.918,-0.241,0.428,-2.41,6.78,-7.97,1,6
16904.125,0.907,-0.234,0.452,-4.06,7.9,-8.61,1,6
16904.14,0.892,-0.232,0.47,-5.4,7.32,-9.16,1,6
16904.14,0.883,-0.228,0.489,-5.19,5.77,-9.95,1,6
16904.156,0.908,-0.221,0.498,-4.0,3.51,-10.04,1,6
16904.171,0.934,-0.21,0.487,-3.39,0.27,-9.89,1,6
16904.187,0.944,-0.222,0.484,-2.38,-1.19,-10.59,1,6
16904.203,0.945,-0.224,0.466,-0.82,-2.9,-12.09,1,6
16904.203,0.97,-0.223,0.436,1.62,-4.33,-14.68,1,6
16904.218,1.012,-0.22,0.407,5.43,-4.03,-17.82,1,6
16904.218,1.051,-0.213,0.396,10.44,-1.28,-20.29,1,6
16904.234,1.053,-0.196,0.397,15.5,2.69,-22.64,1,6
16904.25,1.053,-0.192,0.404,20.26,5.37,-24.6,1,6
16904.25,1.041,-0.193,0.422,24.78,7.72,-25.27,1,6
16904.265,1.056,-0.173,0.434,28.02,9.52,-23.5,1,6
16904.281,1.107,-0.138,0.467,26.43,11.9,-18.13,1,6
16904.281,1.117,-0.132,0.518,17.7,15.17,-9.03,1,6
16904.296,1.141,-0.156,0.592,5.95,16.48,2.53,1,6
16904.312,1.199,-0.184,0.669,-3.11,16.3,15.08,1,6
16904.312,1.223,-0.206,0.724,-10.07,15.38,27.1,1,6
16904.328,1.229,-0.24,0.781,-17.49,12.12,36.16,1,6
16904.328,1.252,-0.276,0.83,-24.75,6.81,41.66,1,6
16904.343,1.208,-0.318,0.864,-28.6,1.62,42.05,1,6
16904.359,1.191,-0.334,0.892,-28.99,-4.21,39.83,1,6
16904.359,1.151,-0.326,0.907,-28.78,-9.7,36.65,1,6
16904.375,1.079,-0.333,0.878,-27.8,-16.33,33.45,1,6
16904.39,1.026,-0.327,0.826,-25.42,-25.73,30.88,1,6
16904.406,1.031,-0.331,0.79,-21.73,-35.46,29.18,1,6
16904.406,1.018,-0.331,0.741,-17.37,-42.02,28.66,1,6
16904.421,1.007,-0.335,0.7,-14.89,-46.39,29.02,1,6
16904.421,0.961,-0.348,0.668,-17.15,-48.55,28.72,1,6
16904.437,0.899,-0.378,0.641,-20.29,-50.54,26.52,1,6
16904.437,0.843,-0.409,0.604,-20.57,-52.61,23.16,1,6
16904.453,0.787,-0.416,0.555,-18.43,-54.51,17.15,1,6
16904.468,0.725,-0.413,0.504,-14.47,-54.72,7.78,1,6
16904.468,0.645,-0.387,0.435,-9.0,-54.45,-2.9,1,6
16904.484,0.601,-0.346,0.356,-2.32,-55.33,-11.51,1,6
16904.5,0.612,-0.286,0.275,4.64,-56.22,-18.46,1,6
16904.5,0.602,-0.24,0.181,11.99,-55.02,-25.21,1,6
16904.515,0.574,-0.191,0.095,17.64,-50.23,-31.01,1,6
16904.531,0.562,-0.165,0.026,21.33,-45.44,-34.79,1,6
16904.531,0.596,-0.122,-0.022,23.99,-38.7,-36.65,1,6
16904.546,0.615,-0.045,-0.052,23.9,-29.66,-39.12,1,6
16904.562,0.59,-0.015,-0.046,18.16,-19.96,-41.99,1,6
16904.562,0.562,-0.009,-0.008,8.21,-12.63,-42.63,1,6
16904.578,0.561,0.006,0.026,0.92,-8.33,-40.77,1,6
16904.578,0.536,0.006,0.038,-3.6,-5.07,-36.59,1,6
16904.593,0.487,0.004,0.036,-9.06,-2.29,-32.04,1,6
16904.609,0.436,-0.016,0.032,-14.83,-0.06,-29.63,1,6
16904.625,0.441,-0.02,0.01,-18.83,2.29,-29.24,1,6
16904.625,0.527,-0.009,0.015,-20.78,6.47,-28.17,1,6
16904.64,0.615,-0.009,0.047,-22.19,13.76,-26.18,1,6
16904.64,0.658,0.001,0.085,-21.03,23.16,-24.41,1,6
16904.656,0.683,-0.01,0.132,-16.27,29.91,-24.29,1,6
16904.671,0.679,-0.034,0.177,-7.39,32.41,-26.4,1,6
16904.671,0.699,-0.041,0.205,4.55,31.89,-29.85,1,6
16904.687,0.766,-0.033,0.241,16.27,29.79,-33.48,1,6
16904.703,0.8,-0.04,0.274,25.06,29.6,-36.07,1,6
16904.703,0.826,-0.056,0.287,29.18,29.18,-36.26,1,6
16904.718,0.872,-0.075,0.311,28.96,28.14,-33.51,1,6
16904.718,0.868,-0.089,0.321,24.48,29.11,-30.18,1,6
16904.734,0.876,-0.104,0.331,18.31,30.58,-28.08,1,6
16904.75,0.934,-0.095,0.38,11.69,33.81,-26.06,1,6
16904.75,0.99,-0.081,0.43,5.25,38.18,-22.28,1,6
16904.765,1.049,-0.063,0.482,-0.92,40.62,-16.39,1,6
16904.781,1.085,-0.062,0.551,-5.4,40.93,-10.93,1,6
16904.781,1.064,-0.082,0.61,-4.91,38.73,-7.42,1,6
16904.796,1.04,-0.101,0.638,-0.24,33.39,-5.92,1,6
16904.812,1.038,-0.104,0.657,6.41,24.99,-7.54,1,6
16904.812,1.032,-0.104,0.664,14.19,16.88,-11.17,1,6
16904.828,1.003,-0.08,0.631,19.71,9.64,-14.89,1,6
16904.843,0.969,-0.038,0.587,21.97,2.17,-16.6,1,6
16904.843,0.922,0.012,0.525,22.1,-3.72,-14.77,1,6
16904.859,0.91,0.082,0.462,16.33,-7.48,-8.45,1,6
16904.859,0.938,0.126,0.41,2.44,-9.16,1.65,1,6
16904.875,0.971,0.117,0.405,-16.36,-6.62,16.75,1,6
16904.89,0.961,0.081,0.448,-34.39,-1.92,34.36,1,6
16904.906,0.965,0.034,0.492,-49.78,-0.49,52.1,1,6
16904.906,0.972,-0.051,0.517,-63.75,-2.01,67.42,1,6
16904.921,0.959,-0.159,0.55,-74.98,-4.55,79.1,1,6
16904.921,0.946,-0.245,0.554,-78.16,-13.12,84.17,1,6
16904.937,0.971,-0.308,0.544,-72.42,-15.38,78.31,1,6
16904.953,0.963,-0.36,0.526,-64.67,-16.88,68.06,1,6
16904.953,0.961,-0.389,0.5,-54.63,-17.82,55.57,1,6
16904.968,0.984,-0.419,0.456,-42.39,-16.42,43.24,1,6
16904.984,0.992,-0.409,0.452,-31.5,-13.4,31.65,1,6
16904.984,0.977,-0.387,0.457,-21.49,-9.83,20.45,1,6
16905.0,0.935,-0.373,0.48,-12.05,-7.11,9.89,1,6
16905.0,0.89,-0.356,0.514,-2.69,-6.81,1.4,1,6
16905.015,0.857,-0.338,0.513,5.89,-9.67,-5.65,1,6
16905.031,0.842,-0.305,0.482,11.75,-15.05,-10.99,1,6
16905.046,0.852,-0.269,0.438,14.34,-20.33,-14.28,1,6
16905.046,0.854,-0.243,0.39,13.64,-23.35,-16.21,1,6
16905.062,0.855,-0.223,0.354,11.32,-24.69,-17.09,1,6
16905.062,0.859,-0.204,0.33,9.49,-24.45,-16.91,1,6
16905.078,0.852,-0.203,0.31,9.0,-22.98,-15.75,1,6
16905.078,0.852,-0.203,0.293,9.28,-20.14,-13.28,1,6
16905.093,0.851,-0.194,0.289,9.67,-17.03,-10.71,1,6
16905.109,0.85,-0.192,0.291,8.82,-14.28,-8.55,1,6
16905.109,0.849,-0.191,0.297,5.89,-12.3,-6.38,1,6
16905.125,0.849,-0.194,0.309,2.08,-11.05,-3.57,1,6
16905.14,0.839,-0.207,0.314,-0.73,-9.86,-1.04,1,6
16905.14,0.827,-0.222,0.314,-1.95,-9.25,1.01,1,6
16905.156,0.812,-0.235,0.316,-2.47,-9.52,2.32,1,6
16905.171,0.821,-0.25,0.312,-3.36,-10.77,2.59,1,6
16905.171,0.841,-0.273,0.302,-3.27,-11.29,1.77,1,6
16905.187,0.845,-0.288,0.291,-0.98,-10.1,-0.52,1,6
16905.187,0.853,-0.294,0.293,2.23,-7.97,-3.66,1,6
16905.203,0.849,-0.294,0.3,5.19,-5.62,-7.84,1,6
16905.218,0.852,-0.293,0.302,8.73,-4.0,-12.85,1,6
16905.218,0.849,-0.292,0.302,12.79,-2.44,-18.13,1,6
16905.234,0.834,-0.293,0.293,17.3,-0.95,-23.44,1,6
16905.25,0.835,-0.28,0.281,20.51,-0.06,-27.56,1,6
16905.25,0.838,-0.261,0.275,21.94,1.31,-30.7,1,6
16905.265,0.829,-0.245,0.277,22.86,2.9,-33.14,1,6
16905.281,0.817,-0.222,0.274,23.26,4.15,-34.55,1,6
16905.281,0.814,-0.189,0.269,22.68,5.16,-34.91,1,6
16905.296,0.823,-0.164,0.267,22.06,5.83,-33.97,1,6
16905.312,0.832,-0.144,0.272,21.06,7.08,-31.28,1,6
16905.312,0.845,-0.129,0.277,19.01,8.67,-27.47,1,6
16905.328,0.845,-0.127,0.288,16.48,10.59,-23.38,1,6
16905.343,0.837,-0.131,0.297,14.22,12.02,-19.81,1,6
16905.343,0.822,-0.143,0.301,12.27,12.02,-17.09,1,6
16905.359,0.818,-0.154,0.298,9.77,10.77,-15.26,1,6
16905.359,0.814,-0.169,0.289,8.91,10.38,-14.19,1,6
16905.375,0.838,-0.171,0.28,9.43,10.83,-13.03,1,6
16905.39,0.85,-0.163,0.263,8.97,12.63,-12.09,1,6
16905.39,0.849,-0.165,0.27,6.65,15.69,-11.47,1,6
16905.406,0.848,-0.157,0.291,3.45,18.68,-10.53,1,6
16905.421,0.838,-0.144,0.322,0.06,20.91,-9.61,1,6
16905.421,0.804,-0.133,0.354,-0.85,21.76,-8.97,1,6
16905.437,0.769,-0.124,0.377,0.61,20.81,-7.57,1,6
16905.453,0.766,-0.106,0.372,2.81,18.74,-5.52,1,6
16905.453,0.778,-0.097,0.349,4.15,17.03,-3.97,1,6
16905.468,0.79,-0.099,0.327,3.75,17.03,-2.72,1,6
16905.468,0.796,-0.099,0.32,2.17,19.07,-1.89,1,6
16905.484,0.809,-0.104,0.329,1.13,22.16,-1.77,1,6
16905.5,0.816,-0.106,0.349,0.76,26.06,-2.26,1,6
16905.5,0.802,-0.107,0.375,1.8,29.76,-4.0,1,6
16905.515,0.775,-0.108,0.404,4.97,31.92,-7.05,1,6
16905.531,0.747,-0.1,0.405,10.16,31.46,-11.38,1,6
16905.531,0.774,-0.093,0.404,15.59,29.39,-13.98,1,6
16905.546,0.801,-0.066,0.403,18.13,29.27,-12.73,1,6
16905.562,0.795,-0.042,0.393,15.23,30.37,-9.25,1,6
16905.562,0.781,-0.047,0.408,8.73,31.13,-5.83,1,6
16905.578,0.754,-0.064,0.425,3.97,31.16,-3.42,1,6
16905.578,0.726,-0.081,0.416,4.43,30.76,-2.9,1,6
16905.593,0.71,-0.095,0.386,8.97,30.92,-4.73,1,6
16905.609,0.704,-0.088,0.351,14.25,32.44,-7.54,1,6
16905.609,0.747,-0.079,0.334,17.24,35.34,-8.03,1,6
16905.625,0.772,-0.058,0.346,14.71,41.54,-4.52,1,6
16905.64,0.762,-0.045,0.374,6.84,48.22,0.4,1,6
16905.656,0.739,-0.054,0.439,-2.81,52.22,4.7,1,6
16905.656,0.687,-0.08,0.503,-7.66,52.64,6.96,1,6
16905.671,0.645,-0.091,0.537,-4.06,49.23,6.29,1,6
16905.671,0.687,-0.093,0.516,5.65,43.76,4.06,1,6
16905.687,0.76,-0.071,0.485,12.57,41.66,4.03,1,6
16905.703,0.795,-0.04,0.46,12.7,43.95,5.62,1,6
16905.703,0.796,-0.032,0.469,6.29,48.65,8.03,1,6
16905.718,0.765,-0.055,0.508,-1.37,53.38,9.13,1,6
16905.718,0.709,-0.078,0.551,-3.42,56.64,7.48,1,6
16905.734,0.652,-0.092,0.583,2.2,57.22,2.47,1,6
16905.75,0.624,-0.09,0.572,13.4,55.18,-5.43,1,6
16905.765,0.688,-0.065,0.542,24.17,52.8,-10.96,1,6
16905.765,0.768,-0.022,0.525,26.28,54.84,-8.97,1,6
16905.781,0.769,0.019,0.539,18.01,60.91,-3.63,1,6
16905.781,0.707,0.001,0.596,6.78,65.34,0.73,1,6
16905.796,0.645,-0.035,0.652,0.92,65.31,2.99,1,6
16905.812,0.639,-0.041,0.652,4.52,61.98,2.53,1,6
16905.812,0.747,-0.036,0.633,12.24,58.93,4.3,1,6
16905.828,0.772,-0.006,0.621,11.84,62.07,9.92,1,6
16905.828,0.738,-0.015,0.644,3.36,65.86,15.38,1,6
16905.843,0.676,-0.06,0.709,-4.27,67.54,18.65,1,6
16905.859,0.629,-0.104,0.752,-4.46,66.16,19.14,1,6
16905.859,0.615,-0.12,0.744,2.99,62.65,14.86,1,6
16905.875,0.684,-0.136,0.728,13.43,59.45,9.28,1,6
16905.89,0.739,-0.115,0.723,19.17,60.3,6.59,1,6
16905.89,0.743,-0.086,0.73,17.09,63.05,6.62,1,6
16905.906,0.686,-0.096,0.769,7.05,64.67,7.78,1,6
16905.921,0.616,-0.118,0.809,8.48,61.22,5.89,1,6
16905.921,0.578,-0.133,0.812,14.89,57.13,2.32,1,6
16905.937,0.612,-0.15,0.787,20.63,56.55,1.25,1,6
16905.953,0.695,-0.121,0.745,20.2,59.51,1.19,1,6
16905.953,0.68,-0.116,0.772,14.34,63.72,0.67,1,6
16905.968,0.622,-0.136,0.821,9.37,66.07,-1.98,1,6
16905.968,0.576,-0.149,0.868,10.62,64.76,-6.2,1,6
16905.984,0.558,-0.143,0.883,17.18,61.74,-10.35,1,6
16906.0,0.536,-0.117,0.849,23.04,58.99,-13.98,1,6
16906.0,0.575,-0.097,0.824,24.78,56.86,-15.44,1,6
16906.015,0.608,-0.074,0.815,20.78,57.95,-13.06,1,6
16906.031,0.608,-0.069,0.826,14.5,60.73,-9.83,1,6
16906.031,0.582,-0.09,0.869,11.08,62.69,-8.39,1,6
16906.046,0.545,-0.108,0.894,11.84,62.59,-8.03,1,6
16906.062,0.516,-0.109,0.89,13.95,61.34,-8.97,1,6
16906.062,0.491,-0.101,0.876,15.96,60.09,-11.96,1,6
16906.078,0.494,-0.087,0.865,17.12,59.05,-13.92,1,6
16906.093,0.53,-0.06,0.851,15.2,59.33,-11.14,1,6
16906.093,0.558,-0.041,0.858,9.64,62.44,-5.65,1,6
16906.109,0.531,-0.039,0.897,2.23,65.46,-1.65,1,6
16906.109,0.495,-0.052,0.943,-3.33,65.86,-0.18,1,6
16906.125,0.448,-0.073,0.974,-4.24,64.88,0.89,1,6
16906.14,0.415,-0.059,0.963,-0.09,61.68,1.5,1,6
16906.14,0.409,-0.038,0.921,4.09,56.7,1.01,1,6
16906.156,0.434,-0.042,0.897,3.72,53.59,2.2,1,6
16906.171,0.491,-0.046,0.894,1.92,53.59,6.59,1,6
16906.171,0.523,-0.063,0.903,-0.95,57.34,14.25,1,6
16906.187,0.513,-0.09,0.943,-7.14,62.2,21.15,1,6
16906.203,0.48,-0.123,0.998,-12.85,64.85,23.8,1,6
16906.203,0.437,-0.158,1.041,-14.95,64.61,22.58,1,6
16906.218,0.395,-0.175,1.067,-11.57,62.35,17.85,1,6
16906.218,0.354,-0.16,1.058,-4.15,58.35,9.86,1,6
16906.234,0.346,-0.14,1.024,2.72,53.35,1.16,1,6
16906.25,0.377,-0.11,0.981,7.72,49.35,-4.67,1,6
16906.25,0.431,-0.081,0.947,10.62,48.8,-5.68,1,6
16906.265,0.444,-0.052,0.934,9.22,52.74,-2.9,1,6
16906.281,0.412,-0.045,0.956,3.97,57.04,0.12,1,6
16906.281,0.361,-0.066,1.005,-1.77,59.42,3.05,1,6
16906.296,0.315,-0.084,1.035,-4.85,58.93,5.1,1,6
16906.296,0.286,-0.087,1.048,-5.34,56.46,4.97,1,6
16906.312,0.274,-0.097,1.04,-3.88,53.59,2.41,1,6
16906.328,0.275,-0.1,1.015,-0.37,50.87,-1.22,1,6
16906.328,0.318,-0.089,0.987,4.27,49.2,-3.81,1,6
16906.343,0.336,-0.059,0.974,6.62,50.84,-4.97,1,6
16906.359,0.317,-0.046,0.979,5.37,53.93,-5.62,1,6
16906.359,0.276,-0.047,1.013,2.72,56.58,-5.92,1,6
16906.375,0.242,-0.056,1.041,1.92,56.55,-6.62,1,6
16906.39,0.215,-0.055,1.048,4.76,55.15,-8.51,1,6
16906.39,0.193,-0.043,1.031,8.33,52.92,-11.29,1,6
16906.406,0.185,-0.017,1.001,11.32,49.96,-14.68,1,6
16906.421,0.244,-0.0,0.979,14.28,46.88,-14.13,1,6
16906.421,0.271,0.032,0.964,11.93,48.52,-7.97,1,6
16906.437,0.239,0.03,0.97,5.04,52.52,-2.11,1,6
16906.453,0.187,-0.003,1.019,-0.92,55.3,1.83,1,6
16906.453,0.145,-0.028,1.051,-2.47,55.18,4.06,1,6
16906.468,0.14,-0.042,1.056,-0.37,52.86,3.94,1,6
16906.468,0.136,-0.044,1.031,4.33,50.39,1.22,1,6
16906.484,0.148,-0.037,0.998,8.06,48.46,-1.43,1,6
16906.5,0.157,-0.022,0.984,9.4,48.49,-2.9,1,6
16906.5,0.134,-0.012,0.975,9.74,50.51,-2.5,1,6
16906.515,0.09,-0.007,0.999,8.64,52.98,0.55,1,6
16906.531,0.074,-0.016,1.002,5.4,53.44,4.06,1,6
16906.531,0.073,-0.036,1.015,2.66,53.83,6.1,1,6
16906.546,0.058,-0.05,1.016,1.98,54.66,6.78,1,6
16906.562,0.068,-0.057,1.009,1.95,54.08,5.43,1,6
16906.562,0.088,-0.052,1.01,3.97,54.17,2.2,1,6
16906.578,0.082,-0.036,0.993,7.72,55.79,-0.85,1,6
16906.578,0.092,-0.024,0.993,9.58,57.74,-1.25,1,6
16906.593,0.08,-0.014,1.013,8.24,60.79,-0.18,1,6
16906.609,0.043,-0.027,1.036,6.56,62.59,0.37,1,6
16906.609,0.007,-0.043,1.063,5.71,61.98,0.61,1,6
16906.625,-0.017,-0.056,1.064,5.98,59.51,-0.37,1,6
16906.64,-0.041,-0.048,1.047,7.29,56.64,-2.99,1,6
16906.64,-0.043,-0.043,1.024,10.1,54.48,-6.01,1,6
16906.656,-0.028,-0.017,1.002,11.51,55.18,-6.81,1,6
16906.671,-0.04,0.015,0.984,10.38,58.9,-6.32,1,6
16906.671,-0.051,0.026,0.991,7.08,63.05,-4.58,1,6
16906.687,-0.048,0.024,1.016,3.57,66.41,-1.22,1,6
16906.687,-0.048,0.015,1.042,1.43,68.73,2.17,1,6
16906.703,-0.068,0.001,1.066,1.28,69.7,3.33,1,6
16906.718,-0.081,-0.008,1.08,3.14,67.93,2.29,1,6
16906.718,-0.076,-0.007,1.08,5.46,64.76,0.76,1,6
16906.734,-0.083,-0.003,1.065,7.32,62.65,-0.92,1,6
16906.75,-0.101,0.006,1.061,8.58,61.56,-1.71,1,6
16906.75,-0.106,0.008,1.054,8.73,61.04,-1.5,1,6
16906.765,-0.099,-0.002,1.049,9.13,61.25,0.03,1,6
16906.781,-0.102,-0.006,1.051,8.18,62.44,3.3,1,6
16906.781,-0.11,-0.016,1.061,5.1,63.33,5.49,1,6
16906.796,-0.127,-0.031,1.077,1.92,63.39,7.08,1,6
16906.796,-0.145,-0.048,1.086,-0.03,62.17,7.93,1,6
16906.812,-0.16,-0.058,1.086,0.24,60.7,7.39,1,6
16906.828,-0.179,-0.066,1.082,1.98,59.94,5.22,1,6
16906.828,-0.176,-0.077,1.076,3.85,59.51,3.11,1,6
16906.843,-0.173,-0.072,1.079,4.55,60.37,1.01,1,6
16906.859,-0.179,-0.069,1.083,5.04,61.19,-1.86,1,6
16906.859,-0.178,-0.064,1.092,5.65,61.01,-4.94,1,6
16906.875,-0.173,-0.059,1.102,7.32,60.43,-8.0,1,6
16906.89,-0.181,-0.056,1.107,10.19,59.3,-11.35,1,6
16906.89,-0.187,-0.054,1.103,17.61,54.35,-18.83,1,6
16906.906,-0.188,-0.053,1.097,20.69,51.15,-21.73,1,6
16906.921,-0.172,-0.054,1.083,22.74,48.8,-23.29,1,6
16906.921,-0.16,-0.047,1.055,22.74,47.36,-24.05,1,6
16906.937,-0.167,-0.043,1.062,20.91,46.36,-24.38,1,6
16906.953,-0.196,-0.028,1.076,19.29,45.75,-23.96,1,6
16906.953,-0.226,-0.02,1.083,17.24,44.34,-22.13,1,6
16906.968,-0.233,-0.014,1.086,14.44,42.36,-20.02,1,6
16906.968,-0.235,-0.018,1.086,12.76,40.8,-18.71,1,6
16906.984,-0.244,-0.032,1.085,12.76,39.52,-19.07,1,6
16907.0,-0.261,-0.039,1.083,14.77,38.36,-21.45,1,6
16907.0,-0.273,-0.038,1.07,18.37,36.81,-25.21,1,6
16907.015,-0.282,-0.019,1.051,21.97,35.25,-29.97,1,6
16907.031,-0.297,0.016,1.033,24.93,34.18,-34.3,1,6
16907.031,-0.316,0.051,1.016,26.03,33.17,-36.38,1,6
16907.046,-0.343,0.093,0.989,25.15,32.47,-35.71,1,6
16907.062,-0.355,0.122,0.96,22.4,32.07,-31.92,1,6
16907.062,-0.355,0.142,0.936,18.19,32.65,-25.79,1,6
16907.078,-0.363,0.154,0.924,12.88,34.7,-18.22,1,6
16907.078,-0.364,0.151,0.937,6.47,36.65,-10.25,1,6
16907.093,-0.363,0.136,0.95,2.5,37.78,-3.05,1,6
16907.109,-0.374,0.111,0.958,2.35,38.42,2.87,1,6
16907.109,-0.369,0.109,0.963,0.52,37.23,7.48,1,6
16907.125,-0.358,0.087,0.955,-0.67,35.49,9.74,1,6
16907.14,-0.359,0.068,0.951,-1.1,34.61,10.44,1,6
16907.14,-0.365,0.056,0.942,-0.82,34.39,10.28,1,6
16907.156,-0.371,0.045,0.939,-0.27,35.28,10.01,1,6
16907.171,-0.368,0.036,0.936,-0.58,36.5,9.92,1,6
16907.171,-0.377,0.026,0.938,-1.86,38.21,9.37,1,6
16907.187,-0.383,0.009,0.947,-2.84,39.46,8.27,1,6
16907.203,-0.371,-0.012,0.957,-2.26,40.68,6.01,1,6
16907.203,-0.368,-0.026,0.96,0.82,42.45,2.44,1,6
16907.218,-0.382,-0.033,0.972,5.43,43.73,-2.23,1,6
16907.218,-0.384,-0.033,0.981,9.16,43.61,-7.51,1,6
16907.234,-0.393,-0.032,0.991,11.08,42.45,-13.67,1,6
16907.25,-0.403,-0.042,1.002,11.96,39.92,-19.9,1,6
16907.25,-0.402,-0.048,1.003,13.46,36.87,-25.94,1,6
16907.265,-0.414,-0.041,0.991,16.24,34.58,-32.29,1,6
16907.281,-0.424,-0.023,0.971,19.53,32.62,-38.24,1,6
16907.281,-0.425,0.014,0.95,22.06,31.71,-42.21,1,6
16907.296,-0.425,0.044,0.933,23.19,31.74,-43.76,1,6
16907.312,-0.423,0.07,0.927,22.19,32.35,-42.54,1,6
16907.312,-0.415,0.085,0.924,19.41,33.36,-39.83,1,6
16907.328,-0.415,0.084,0.928,16.11,34.61,-36.32,1,6
16907.343,-0.421,0.079,0.936,14.04,35.74,-32.81,1,6
16907.343,-0.423,0.078,0.941,13.18,35.77,-30.03,1,6
16907.359,-0.428,0.081,0.949,12.48,35.4,-28.41,1,6
16907.359,-0.443,0.083,0.961,11.72,34.39,-27.99,1,6
16907.375,-0.453,0.083,0.966,11.84,32.35,-28.14,1,6
16907.39,-0.459,0.078,0.964,13.58,29.91,-28.14,1,6
16907.39,-0.466,0.08,0.954,16.05,28.14,-28.35,1,6
16907.406,-0.483,0.083,0.942,18.19,27.04,-29.11,1,6
16907.421,-0.503,0.088,0.923,19.68,25.57,-30.06,1,6
16907.421,-0.516,0.092,0.897,20.29,23.22,-30.4,1,6
16907.437,-0.519,0.099,0.867,20.17,20.97,-29.76,1,6
16907.437,-0.51,0.108,0.839,18.89,19.71,-27.92,1,6
16907.453,-0.497,0.114,0.818,15.35,19.99,-24.84,1,6
16907.468,-0.503,0.117,0.823,10.99,21.79,-21.12,1,6
16907.468,-0.532,0.111,0.837,7.66,22.92,-16.48,1,6
16907.484,-0.535,0.099,0.842,3.85,21.82,-11.99,1,6
16907.5,-0.522,0.089,0.845,1.13,20.2,-9.58,1,6
16907.5,-0.516,0.072,0.841,1.16,19.07,-8.79,1,6
16907.515,-0.516,0.064,0.832,2.2,19.01,-8.21,1,6
16907.531,-0.515,0.067,0.824,3.08,19.53,-8.79,1,6
16907.531,-0.516,0.066,0.829,4.21,20.26,-9.8,1,6
16907.546,-0.535,0.067,0.837,4.85,20.94,-9.7,1,6
16907.562,-0.543,0.064,0.848,4.36,20.97,-8.03,1,6
16907.562,-0.549,0.057,0.849,3.6,20.39,-6.93,1,6
16907.578,-0.541,0.037,0.842,3.14,19.38,-6.38,1,6
16907.578,-0.532,0.022,0.835,3.02,18.92,-7.2,1,6
16907.593,-0.529,0.024,0.842,2.66,18.25,-9.61,1,6
16907.609,-0.568,0.009,0.861,3.27,18.46,-11.69,1,6
16907.609,-0.538,0.017,0.869,4.43,16.94,-11.96,1,6
16907.625,-0.597,0.026,0.863,5.55,15.9,-14.53,1,6
16907.64,-0.555,-0.015,0.863,6.53,15.78,-12.18,1,6
16907.64,-0.552,0.057,0.824,6.13,10.59,-16.6,1,6
16907.656,-0.559,-0.01,0.811,3.45,11.41,-17.91,1,6
16907.671,-0.579,-0.051,0.841,3.2,14.28,-15.32,1,6
16907.671,-0.542,0.012,0.817,8.7,14.19,-13.21,1,6
16907.687,-0.528,-0.006,0.786,8.51,14.16,-15.87,1,6
16907.687,-0.589,-0.045,0.83,2.56,14.83,-19.17,1,6
16907.703,-0.569,-0.048,0.856,3.54,14.47,-16.36,1,6
16907.718,-0.577,0.011,0.814,5.31,10.07,-17.61,1,6
16907.718,-0.566,-0.044,0.81,0.18,8.27,-17.61,1,6
16907.734,-0.557,-0.049,0.823,-4.21,5.86,-18.56,1,6
16907.75,-0.552,-0.062,0.804,-2.01,6.32,-19.5,1,6
16907.75,-0.568,-0.075,0.808,1.95,7.2,-21.97,1,6
16907.765,-0.563,-0.055,0.801,7.45,7.6,-24.32,1,6
16907.781,-0.562,-0.026,0.78,11.17,7.66,-28.26,1,6
16907.781,-0.577,-0.011,0.782,11.29,7.69,-30.92,1,6
16907.796,-0.578,0.014,0.795,11.11,8.24,-30.4,1,6
16907.812,-0.589,0.037,0.795,11.6,8.7,-28.05,1,6
16907.812,-0.677,0.038,0.822,10.53,9.28,-23.8,1,6
16907.828,-0.597,-0.001,0.845,14.56,10.5,-9.67,1,6
16907.828,-0.554,0.155,0.728,14.1,3.91,-11.66,1,6
16907.843,-0.596,-0.006,0.739,0.64,3.66,-13.06,1,6
16907.859,-0.562,0.011,0.789,-5.71,4.67,-12.63,1,6
16907.859,-0.588,-0.011,0.753,0.06,6.32,-12.94,1,6
16907.875,-0.566,-0.037,0.758,3.42,11.99,-13.7,1,6
16907.89,-0.663,-0.069,0.812,12.54,12.45,-2.84,1,6
16907.89,-0.655,-0.036,0.795,7.42,4.52,-7.57,1,6
16907.906,-0.487,0.168,0.75,-5.95,7.26,-21.12,1,6
16907.921,-0.673,-0.074,0.937,-12.09,4.0,-19.26,1,6
16907.921,-0.617,0.089,0.846,13.31,4.58,-13.52,1,6
16907.937,-0.672,0.083,0.715,17.67,2.11,-11.51,1,6
16907.937,-0.565,0.076,0.752,-2.04,-1.13,-8.03,1,6
16907.953,-0.626,0.045,0.753,-7.57,0.55,-10.01,1,6
16907.968,-0.613,-0.029,0.765,-7.02,3.02,-4.39,1,6
16907.968,-0.582,0.047,0.768,-1.5,6.87,-2.72,1,6
16907.984,-0.625,0.0,0.761,1.71,9.89,-3.39,1,6
16908.0,-0.609,0.021,0.803,0.09,10.38,-4.61,1,6
16908.0,-0.663,0.027,0.818,1.56,10.16,-6.47,1,6
16908.015,-0.665,0.062,0.848,2.81,6.38,-4.91,1,6
16908.031,-0.687,0.081,0.824,5.49,1.89,-2.17,1,6
16908.031,-0.646,0.084,0.799,3.33,-3.05,2.75,1,6
16908.046,-0.624,0.076,0.78,0.34,-5.62,4.97,1,6
16908.062,-0.618,0.058,0.779,-0.27,-5.95,7.39,1,6
16908.062,-0.616,0.056,0.761,1.86,-4.61,9.92,1,6
16908.078,-0.618,0.056,0.748,2.93,-2.96,12.33,1,6
16908.078,-0.631,0.047,0.743,1.31,-1.74,13.92,1,6
16908.093,-0.631,0.035,0.755,-1.95,-0.76,15.87,1,6
16908.109,-0.636,0.037,0.773,-4.21,-0.09,17.46,1,6
16908.109,-0.639,0.024,0.781,-5.4,-0.67,18.43,1,6
16908.125,-0.627,0.018,0.795,-5.65,-2.2,18.04,1,6
16908.14,-0.626,0.015,0.801,-3.02,-3.88,16.08,1,6
16908.14,-0.625,0.018,0.788,1.16,-5.1,14.31,1,6
16908.156,-0.629,0.028,0.774,3.91,-6.07,13.25,1,6
16908.171,-0.641,0.027,0.762,4.43,-6.93,13.03,1,6
16908.171,-0.636,0.026,0.749,2.29,-7.35,14.22,1,6
16908.187,-0.622,0.027,0.743,-0.46,-6.96,15.08,1,6
16908.203,-0.614,0.016,0.741,-2.11,-5.43,15.69,1,6
16908.203,-0.615,0.012,0.756,-2.87,-3.45,15.5,1,6
16908.218,-0.626,0.014,0.777,-2.29,-2.5,14.8,1,6
16908.218,-0.63,0.014,0.791,-0.43,-3.02,14.25,1,6
16908.234,-0.633,0.01,0.79,1.56,-4.09,13.95,1,6
16908.25,-0.631,0.007,0.779,1.8,-5.37,14.1,1,6
16908.25,-0.617,0.009,0.773,0.73,-6.53,13.12,1,6
16908.265,-0.616,0.004,0.773,0.09,-6.74,11.29,1,6
16908.281,-0.621,-0.002,0.774,1.22,-6.35,10.44,1,6
16908.281,-0.607,0.006,0.771,3.17,-5.4,10.28,1,6
16908.296,-0.607,0.021,0.765,4.67,-3.94,9.77,1,6
16908.312,-0.626,0.023,0.761,4.49,-2.56,9.98,1,6
16908.312,-0.629,0.014,0.765,1.68,-2.47,11.26,1,6
16908.328,-0.621,0.004,0.764,-1.31,-2.78,12.3,1,6
16908.328,-0.615,-0.01,0.763,-2.99,-2.81,13.03,1,6
16908.343,-0.615,-0.015,0.765,-3.48,-2.2,13.4,1,6
16908.359,-0.611,-0.016,0.773,-3.33,-1.83,13.37,1,6
16908.375,-0.605,-0.017,0.771,-3.11,-1.74,12.39,1,6
16908.375,-0.608,-0.019,0.776,-3.14,-1.68,11.05,1,6
16908.39,-0.619,-0.024,0.781,-2.81,-1.98,9.37,1,6
16908.39,-0.626,-0.016,0.786,-1.59,-2.44,8.42,1,6
16908.406,-0.633,-0.002,0.792,-0.49,-3.45,7.45,1,6
16908.421,-0.631,0.004,0.788,0.27,-4.91,6.96,1,6
16908.421,-0.618,0.013,0.776,0.27,-5.8,7.29,1,6
16908.437,-0.607,0.012,0.766,-0.76,-5.37,7.78,1,6
16908.437,-0.604,0.009,0.767,-1.4,-4.09,7.57,1,6
16908.453,-0.609,0.014,0.772,-1.1,-2.66,7.02,1,6
16908.468,-0.619,0.022,0.782,-0.67,-2.23,6.96,1,6
16908.468,-0.631,0.02,0.787,-0.34,-2.78,7.26,1,6
16908.484,-0.621,0.01,0.774,-1.07,-3.91,7.87,1,6
16908.5,-0.595,-0.005,0.768,-2.01,-4.36,7.14,1,6
16908.515,-0.591,-0.013,0.777,-1.4,-2.93,4.55,1,6
16908.515,-0.609,-0.003,0.79,1.68,-1.4,1.37,1,6
16908.531,-0.622,0.013,0.787,4.82,-1.4,-1.07,1,6
16908.531,-0.624,0.025,0.776,5.86,-2.35,-3.11,1,6
16908.546,-0.629,0.034,0.771,5.74,-3.17,-4.58,1,6
16908.562,-0.629,0.041,0.76,5.4,-3.54,-4.18,1,6
16908.562,-0.624,0.053,0.759,4.43,-3.27,-2.75,1,6
16908.578,-0.629,0.06,0.768,4.06,-2.59,-1.22,1,6
16908.593,-0.625,0.067,0.777,3.6,-2.2,1.13,1,6
16908.593,-0.622,0.076,0.784,2.2,-2.26,3.08,1,6
16908.609,-0.632,0.067,0.784,0.7,-2.69,4.79,1,6
16908.609,-0.63,0.056,0.776,-1.37,-3.39,6.56,1,6
16908.625,-0.615,0.041,0.761,-3.08,-3.72,7.45,1,6
16908.64,-0.601,0.03,0.755,-3.91,-2.9,6.84,1,6
16908.64,-0.595,0.023,0.755,-3.51,-1.04,5.37,1,6
16908.656,-0.592,0.027,0.769,-1.98,1.01,3.11,1,6
16908.671,-0.604,0.033,0.778,0.37,2.47,0.76,1,6
16908.671,-0.619,0.044,0.792,2.66,2.69,-0.92,1,6
16908.687,-0.634,0.055,0.797,4.27,1.5,-1.34,1,6
16908.687,-0.633,0.056,0.78,4.06,-0.64,-0.55,1,6
16908.703,-0.612,0.056,0.765,2.23,-2.04,0.37,1,6
16908.718,-0.61,0.055,0.769,0.82,-1.71,0.46,1,6
16908.718,-0.623,0.058,0.776,1.37,-1.07,0.95,1,6
16908.734,-0.624,0.079,0.786,1.28,-0.82,1.95,1,6
16908.75,-0.622,0.069,0.783,0.76,-1.74,2.9,1,6
16908.75,-0.616,0.066,0.772,-0.31,-2.62,3.54,1,6
16908.765,-0.612,0.054,0.761,-0.79,-2.26,4.64,1,6
16908.781,-0.61,0.043,0.75,-1.59,-1.34,5.07,1,6
16908.781,-0.612,0.035,0.762,-1.62,0.09,4.64,1,6
16908.796,-0.62,0.029,0.773,-0.95,1.22,3.42,1,6
16908.812,-0.628,0.026,0.778,0.06,1.43,1.1,1,6
16908.812,-0.638,0.027,0.784,1.68,0.61,-2.04,1,6
16908.828,-0.642,0.034,0.785,3.54,-0.98,-4.91,1,6
16908.828,-0.649,0.046,0.777,5.07,-2.53,-6.56,1,6
16908.843,-0.653,0.064,0.767,3.88,-4.18,-6.35,1,6
16908.859,-0.647,0.068,0.763,-3.94,-7.69,-4.67,1,6
16908.859,-0.641,0.065,0.764,-6.71,-8.48,-3.23,1,6
16908.875,-0.622,0.056,0.759,-7.69,-7.9,-1.8,1,6
16908.89,-0.604,0.054,0.757,-7.23,-6.35,-0.58,1,6
16908.89,-0.604,0.053,0.769,-7.54,-4.73,0.58,1,6
16908.906,-0.6,0.047,0.785,-8.73,-4.52,1.25,1,6
16908.921,-0.604,0.037,0.79,-8.21,-4.36,1.01,1,6
16908.921,-0.606,0.033,0.794,-6.81,-4.49,0.43,1,6
16908.937,-0.592,0.035,0.795,-6.04,-4.55,-0.52,1,6
16908.953,-0.582,0.037,0.788,-5.07,-3.88,-2.01,1,6
16908.953,-0.579,0.032,0.785,-3.2,-2.41,-3.33,1,6
16908.968,-0.579,0.035,0.786,-0.03,0.03,-3.72,1,6
16908.968,-0.584,0.046,0.789,3.27,2.08,-3.36,1,6
16908.984,-0.588,0.054,0.796,4.67,3.42,-2.47,1,6
16909.0,-0.598,0.058,0.808,4.33,3.45,-1.77,1,6
16909.0,-0.604,0.054,0.812,3.36,1.98,-1.19,1,6
16909.015,-0.599,0.052,0.813,2.08,0.15,-0.64,1,6
16909.031,-0.593,0.05,0.807,1.65,-1.59,-0.64,1,6
16909.031,-0.602,0.054,0.798,1.95,-2.81,-0.67,1,6
16909.046,-0.601,0.048,0.797,1.77,-4.3,0.18,1,6
16909.046,-0.591,0.046,0.789,1.04,-5.74,1.13,1,6
16909.062,-0.583,0.042,0.773,1.04,-5.89,2.17,1,6
16909.078,-0.588,0.036,0.768,1.62,-4.79,3.17,1,6
16909.078,-0.606,0.036,0.785,1.28,-3.81,3.75,1,6
16909.093,-0.618,0.034,0.802,1.5,-4.36,4.18,1,6
16909.109,-0.62,0.038,0.798,1.31,-6.35,4.46,1,6
16909.109,-0.604,0.038,0.79,0.34,-8.85,4.12,1,6
16909.125,-0.598,0.035,0.782,0.21,-10.22,3.3,1,6
16909.14,-0.607,0.041,0.774,0.79,-10.41,2.56,1,6
16909.14,-0.609,0.041,0.765,1.19,-9.64,2.35,1,6
