timestamp,ax,ay,az,gx,gy,gz,orient_label,motion_label
16929.406,-0.67,0.044,0.696,-0.58,-4.67,-1.83,1,6
16929.421,-0.674,0.035,0.697,-2.35,-2.59,0.37,1,6
16929.437,-0.675,0.029,0.699,-3.27,-0.43,2.47,1,6
16929.437,-0.673,0.026,0.706,-3.94,1.22,3.51,1,6
16929.437,-0.675,0.018,0.721,-4.24,1.98,3.39,1,6
16929.453,-0.679,0.013,0.734,-3.08,2.04,2.23,1,6
16929.468,-0.678,0.015,0.739,-0.92,1.37,0.7,1,6
16929.468,-0.683,0.017,0.736,1.13,0.55,-1.13,1,6
16929.484,-0.69,0.02,0.728,2.78,-0.58,-2.84,1,6
16929.5,-0.688,0.023,0.72,3.36,-1.71,-3.54,1,6
16929.5,-0.676,0.024,0.708,3.11,-1.98,-3.72,1,6
16929.515,-0.675,0.027,0.701,2.44,0.79,-2.99,1,6
16929.531,-0.688,0.036,0.699,1.04,1.68,-1.34,1,6
16929.531,-0.692,0.044,0.707,-0.49,1.62,0.03,1,6
16929.546,-0.69,0.036,0.722,-1.65,0.79,1.16,1,6
16929.562,-0.685,0.028,0.728,-1.95,0.09,1.59,1,6
16929.562,-0.683,0.026,0.729,-1.34,-0.58,1.46,1,6
16929.578,-0.678,0.019,0.722,-1.07,-1.62,0.64,1,6
16929.593,-0.678,0.015,0.726,-0.76,-1.74,-0.27,1,6
16929.609,-0.684,0.015,0.731,0.76,-1.83,-1.07,1,6
16929.609,-0.678,0.02,0.729,1.53,-2.53,-1.71,1,6
16929.625,-0.672,0.019,0.721,1.4,-3.08,-2.56,1,6
16929.64,-0.665,0.019,0.717,1.19,-2.99,-3.6,1,6
16929.656,-0.671,0.027,0.722,1.95,-1.95,-4.46,1,6
16929.656,-0.681,0.037,0.729,3.23,-1.28,-4.49,1,6
16929.671,-0.681,0.051,0.734,3.27,-1.89,-3.85,1,6
16929.671,-0.675,0.054,0.729,1.95,-2.93,-3.33,1,6
16929.687,-0.671,0.051,0.725,0.82,-3.57,-2.53,1,6
16929.687,-0.667,0.042,0.719,0.46,-3.11,-1.56,1,6
16929.703,-0.673,0.037,0.719,0.27,-2.41,-0.55,1,6
16929.718,-0.675,0.033,0.723,-0.12,-2.01,0.61,1,6
16929.734,-0.672,0.03,0.723,-0.82,-1.98,1.62,1,6
16929.734,-0.662,0.02,0.733,-2.2,-2.17,1.98,1,6
16929.75,-0.662,0.02,0.761,-1.16,-3.57,0.82,1,6
16929.765,-0.649,0.022,0.771,0.15,-5.58,0.61,1,6
16929.781,-0.629,0.018,0.783,1.65,-7.93,0.31,1,6
16929.781,-0.62,0.02,0.783,3.78,-9.61,0.03,1,6
16929.796,-0.605,0.022,0.795,5.4,-11.05,0.4,1,6
16929.812,-0.584,0.017,0.81,7.05,-12.42,1.25,1,6
16929.812,-0.561,0.01,0.824,9.06,-14.01,2.04,1,6
16929.828,-0.526,0.01,0.85,11.81,-14.98,2.9,1,6
16929.828,-0.491,0.029,0.883,15.32,-15.47,3.54,1,6
16929.843,-0.463,0.073,0.924,17.94,-16.33,3.81,1,6
16929.859,-0.423,0.139,0.977,19.75,-19.29,3.17,1,6
16929.859,-0.415,0.206,1.036,20.54,-24.26,2.17,1,6
16929.875,-0.393,0.248,1.118,22.95,-29.11,4.33,1,6
16929.89,-0.398,0.303,1.194,28.08,-37.9,5.43,1,6
16929.89,-0.412,0.34,1.232,35.58,-46.42,7.11,1,6
16929.906,-0.444,0.37,1.24,45.11,-55.12,9.28,1,6
16929.921,-0.523,0.459,1.209,61.65,-68.73,21.27,1,6
16929.937,-0.556,0.525,1.176,61.68,-74.34,32.84,1,6
16929.937,-0.572,0.559,1.15,53.9,-80.02,47.24,1,6
16929.953,-0.574,0.548,1.115,42.57,-84.84,63.11,1,6
16929.968,-0.559,0.52,1.085,29.88,-88.26,78.74,1,6
16929.984,-0.525,0.488,1.064,19.62,-89.14,92.56,1,6
16929.984,-0.472,0.448,1.043,13.58,-88.08,101.17,1,6
16930.0,-0.457,0.414,1.045,12.82,-85.06,102.88,1,6
16930.0,-0.471,0.366,1.036,17.82,-80.23,104.1,1,6
16930.015,-0.433,0.375,1.007,23.77,-78.37,101.29,1,6
16930.031,-0.436,0.313,0.976,27.83,-75.47,94.79,1,6
16930.031,-0.396,0.285,0.971,31.62,-72.54,87.22,1,6
16930.046,-0.411,0.273,0.942,40.71,-68.33,77.52,1,6
16930.062,-0.383,0.258,0.9,50.2,-64.21,71.23,1,6
16930.062,-0.378,0.257,0.862,57.8,-60.58,64.33,1,6
16930.078,-0.366,0.264,0.842,62.41,-58.05,58.35,1,6
16930.093,-0.373,0.296,0.832,65.46,-57.13,52.77,1,6
16930.093,-0.374,0.316,0.796,68.45,-57.37,50.26,1,6
16930.109,-0.375,0.337,0.754,68.58,-59.39,49.23,1,6
16930.109,-0.365,0.334,0.715,66.29,-62.69,49.62,1,6
16930.125,-0.352,0.343,0.677,63.33,-65.43,50.81,1,6
16930.14,-0.339,0.351,0.635,60.18,-66.74,53.38,1,6
16930.14,-0.318,0.348,0.597,55.85,-67.11,56.7,1,6
16930.156,-0.296,0.341,0.59,49.68,-65.34,60.46,1,6
16930.171,-0.294,0.337,0.595,44.65,-61.16,63.26,1,6
16930.187,-0.319,0.32,0.591,42.33,-56.43,66.01,1,6
16930.187,-0.33,0.304,0.591,40.59,-53.19,70.04,1,6
16930.203,-0.328,0.294,0.591,38.94,-51.67,73.34,1,6
16930.203,-0.318,0.288,0.589,37.08,-51.94,74.1,1,6
16930.218,-0.289,0.29,0.587,34.64,-52.4,73.34,1,6
16930.218,-0.274,0.301,0.596,30.88,-50.69,70.99,1,6
16930.234,-0.281,0.31,0.627,27.04,-48.1,68.54,1,6
16930.25,-0.286,0.307,0.66,24.6,-46.11,67.93,1,6
16930.265,-0.29,0.299,0.666,23.29,-45.17,68.61,1,6
16930.265,-0.298,0.283,0.653,22.28,-45.84,69.22,1,6
16930.281,-0.289,0.269,0.639,20.48,-47.27,68.7,1,6
16930.281,-0.27,0.272,0.626,17.46,-47.33,66.44,1,6
16930.296,-0.248,0.272,0.628,13.34,-43.79,62.99,1,6
16930.312,-0.235,0.277,0.656,7.08,-35.04,59.72,1,6
16930.312,-0.253,0.281,0.704,-0.09,-24.05,54.48,1,6
16930.328,-0.265,0.272,0.765,-4.0,-13.95,48.01,1,6
16930.343,-0.28,0.269,0.812,-2.99,-5.13,40.99,1,6
16930.343,-0.308,0.28,0.854,2.14,0.43,33.14,1,6
16930.359,-0.342,0.293,0.877,12.05,1.53,24.87,1,6
16930.359,-0.384,0.315,0.891,23.32,-1.74,18.07,1,6
16930.375,-0.394,0.35,0.896,29.27,-9.13,13.82,1,6
16930.39,-0.377,0.406,0.896,30.37,-16.91,10.41,1,6
16930.39,-0.364,0.43,0.868,29.11,-22.92,8.51,1,6
16930.406,-0.343,0.446,0.854,24.14,-25.51,9.25,1,6
16930.421,-0.315,0.466,0.842,18.01,-25.45,11.57,1,6
16930.421,-0.293,0.479,0.835,11.38,-23.47,13.58,1,6
16930.437,-0.29,0.478,0.849,5.8,-20.23,13.92,1,6
16930.453,-0.306,0.461,0.863,3.78,-17.12,13.25,1,6
16930.453,-0.318,0.45,0.867,5.31,-15.87,12.12,1,6
16930.468,-0.318,0.464,0.867,8.55,-16.27,11.05,1,6
16930.484,-0.315,0.488,0.856,10.62,-17.58,9.25,1,6
16930.484,-0.308,0.505,0.857,11.51,-19.04,7.05,1,6
16930.5,-0.299,0.521,0.859,15.2,-18.59,7.69,1,6
16930.5,-0.29,0.539,0.864,16.79,-17.49,10.01,1,6
16930.515,-0.282,0.544,0.857,16.54,-17.61,11.99,1,6
16930.531,-0.271,0.542,0.855,15.29,-19.59,13.03,1,6
16930.531,-0.239,0.525,0.855,16.3,-22.06,13.4,1,6
16930.546,-0.226,0.527,0.869,20.39,-23.62,13.7,1,6
16930.562,-0.223,0.533,0.895,29.11,-24.9,15.23,1,6
16930.562,-0.222,0.549,0.922,40.5,-27.04,18.89,1,6
16930.578,-0.213,0.572,0.918,50.63,-31.34,23.74,1,6
16930.593,-0.128,0.62,0.86,52.1,-44.1,29.02,1,6
16930.609,-0.074,0.642,0.834,42.66,-48.4,27.65,1,6
16930.609,-0.03,0.667,0.826,29.42,-49.75,26.22,1,6
16930.625,0.004,0.663,0.818,18.89,-47.64,26.12,1,6
16930.64,0.021,0.654,0.814,11.2,-43.61,26.64,1,6
16930.656,0.039,0.645,0.809,5.83,-39.61,27.56,1,6
16930.656,0.059,0.625,0.803,3.14,-36.01,27.47,1,6
16930.671,0.07,0.613,0.792,2.62,-32.04,26.0,1,6
16930.671,0.074,0.6,0.783,3.88,-27.86,23.01,1,6
16930.687,0.076,0.588,0.772,5.95,-23.8,19.14,1,6
16930.703,0.072,0.59,0.756,8.55,-19.5,15.41,1,6
16930.703,0.07,0.59,0.737,11.23,-15.11,12.02,1,6
16930.718,0.073,0.592,0.727,12.97,-9.92,9.37,1,6
16930.718,0.067,0.604,0.725,13.46,-4.0,7.26,1,6
16930.734,0.063,0.608,0.729,12.57,2.2,6.41,1,6
16930.75,0.051,0.615,0.729,9.55,8.15,6.78,1,6
16930.765,0.033,0.614,0.733,4.12,19.32,12.15,1,6
16930.781,0.016,0.625,0.733,5.28,25.03,15.53,1,6
16930.781,0.008,0.633,0.737,9.37,30.43,18.95,1,6
16930.796,0.01,0.644,0.745,10.38,34.33,22.25,1,6
16930.812,0.007,0.645,0.726,2.9,36.07,23.07,1,6
16930.812,-0.01,0.615,0.741,-8.64,35.74,20.81,1,6
16930.828,-0.026,0.597,0.779,-19.01,33.11,19.04,1,6
16930.843,-0.02,0.59,0.797,-26.18,29.05,18.46,1,6
16930.843,-0.022,0.56,0.829,-27.99,25.51,17.03,1,6
16930.859,-0.058,0.592,0.897,-27.83,20.45,15.29,1,6
16930.859,-0.06,0.647,0.934,-29.02,11.26,14.28,1,6
16930.875,-0.047,0.654,0.928,-31.68,0.34,13.52,1,6
16930.89,0.003,0.64,0.897,-34.79,-7.17,13.79,1,6
16930.89,0.102,0.601,0.81,-32.56,-6.44,13.89,1,6
16930.906,0.058,0.493,0.793,-23.41,3.14,9.16,1,6
16930.921,0.003,0.631,0.853,-23.56,5.74,4.0,1,6
16930.937,0.003,0.6,0.851,-10.65,4.12,-1.34,1,6
16930.953,0.02,0.635,0.838,-5.8,2.2,-1.59,1,6
16930.953,0.042,0.642,0.818,2.26,3.14,-1.59,1,6
16930.968,0.035,0.644,0.82,8.0,7.05,-1.53,1,6
16930.968,0.024,0.664,0.85,9.25,9.61,-0.89,1,6
16930.984,0.013,0.65,0.862,8.36,8.88,1.16,1,6
16931.0,0.004,0.634,0.871,5.25,5.55,4.12,1,6
16931.015,0.002,0.603,0.866,2.72,0.18,7.17,1,6
16931.015,0.01,0.582,0.847,1.01,-5.68,9.7,1,6
16931.031,0.023,0.571,0.843,-1.5,-11.41,11.35,1,6
16931.031,0.031,0.549,0.854,-4.27,-16.85,10.93,1,6
16931.046,0.031,0.578,0.853,-5.58,-22.68,11.54,1,6
16931.062,0.138,0.514,0.795,-3.63,-24.35,12.27,1,6
16931.062,0.09,0.461,0.762,1.92,-19.96,7.87,1,6
16931.078,0.104,0.548,0.795,-1.74,-17.82,5.34,1,6
16931.078,0.126,0.521,0.8,-1.34,-16.63,2.59,1,6
16931.093,0.094,0.505,0.78,1.92,-13.4,2.04,1,6
16931.109,0.108,0.524,0.778,2.35,-11.14,2.75,1,6
16931.125,0.1,0.537,0.79,2.11,-9.64,0.95,1,6
16931.125,0.09,0.539,0.785,1.04,-8.94,-0.49,1,6
16931.14,0.078,0.535,0.778,-2.35,-9.25,-1.25,1,6
16931.14,0.074,0.535,0.78,-7.69,-10.28,-1.25,1,6
16931.156,0.079,0.528,0.782,-12.85,-11.75,-1.89,1,6
16931.171,0.089,0.513,0.775,-16.24,-12.6,-3.2,1,6
16931.171,0.088,0.497,0.763,-17.67,-12.21,-5.49,1,6
16931.187,0.088,0.493,0.762,-16.79,-10.28,-7.66,1,6
16931.187,0.085,0.489,0.761,-14.8,-7.72,-9.83,1,6
16931.203,0.079,0.479,0.76,-13.58,-5.68,-11.87,1,6
16931.218,0.08,0.456,0.749,-11.72,-3.11,-14.22,1,6
16931.234,0.078,0.429,0.747,-7.48,0.89,-16.97,1,6
16931.234,0.058,0.412,0.762,0.15,7.14,-19.53,1,6
16931.25,0.006,0.504,0.836,5.22,9.98,-19.14,1,6
16931.25,0.027,0.575,0.893,4.09,6.44,-16.91,1,6
16931.265,0.073,0.588,0.884,5.92,4.12,-14.34,1,6
16931.281,-0.053,0.617,0.974,11.69,5.98,-11.96,1,6
16931.281,-0.028,0.838,1.05,7.75,-3.27,-3.17,1,6
16931.296,0.111,0.745,0.942,10.07,-11.69,4.55,1,6
16931.296,0.127,0.657,0.834,10.01,-7.93,3.91,1,6
16931.312,0.132,0.64,0.824,8.73,-0.09,1.8,1,6
16931.328,0.09,0.613,0.834,14.37,7.78,-1.34,1,6
16931.343,0.031,0.618,0.851,17.64,10.8,-2.96,1,6
16931.343,-0.007,0.634,0.863,18.28,7.84,-2.23,1,6
16931.359,-0.042,0.617,0.857,19.44,1.31,0.92,1,6
16931.359,-0.052,0.6,0.852,19.26,-7.51,5.28,1,6
16931.375,-0.031,0.621,0.848,15.29,-17.06,9.25,1,6
16931.39,-0.017,0.669,0.822,10.01,-25.76,12.05,1,6
16931.39,0.112,0.6,0.742,4.27,-28.57,14.53,1,6
16931.406,0.077,0.514,0.735,-1.86,-24.14,8.24,1,6
16931.421,0.082,0.537,0.807,-11.08,-23.16,2.2,1,6
16931.421,0.078,0.551,0.784,-0.89,-19.1,4.67,1,6
16931.437,0.104,0.526,0.732,10.71,-12.7,8.0,1,6
16931.437,0.097,0.554,0.731,8.88,-8.82,5.92,1,6
16931.453,0.073,0.57,0.752,6.41,-6.26,3.94,1,6
16931.468,0.084,0.565,0.761,3.6,-6.65,3.39,1,6
16931.468,0.081,0.569,0.759,-1.56,-7.05,3.39,1,6
16931.484,0.084,0.571,0.761,-4.0,-6.84,2.87,1,6
16931.5,0.092,0.571,0.767,-5.19,-6.16,2.04,1,6
16931.5,0.089,0.562,0.772,-4.61,-5.49,1.59,1,6
16931.515,0.088,0.548,0.77,-3.72,-4.67,1.62,1,6
16931.531,0.093,0.547,0.77,-2.59,-3.85,0.92,1,6
16931.531,0.097,0.549,0.766,-1.37,-2.9,0.21,1,6
16931.546,0.095,0.554,0.761,-0.03,-2.04,-0.49,1,6
16931.562,0.095,0.563,0.755,1.19,-1.22,-1.28,1,6
16931.562,0.1,0.564,0.743,1.13,-0.55,-1.43,1,6
16931.578,0.108,0.559,0.732,-0.24,0.89,-1.22,1,6
16931.593,0.109,0.55,0.726,-2.53,3.14,-1.34,1,6
16931.593,0.108,0.537,0.727,-4.73,5.55,-2.26,1,6
16931.609,0.109,0.524,0.726,-4.52,8.3,-3.69,1,6
16931.609,0.113,0.502,0.731,-1.01,12.36,-5.19,1,6
16931.625,0.109,0.5,0.734,2.9,17.18,-7.69,1,6
16931.64,0.117,0.501,0.704,8.97,23.04,-11.23,1,6
16931.656,0.085,0.492,0.699,14.34,31.13,-15.87,1,6
16931.656,-0.018,0.601,0.829,4.85,31.65,-21.7,1,6
16931.671,0.061,0.735,0.884,-13.64,20.94,-21.82,1,6
16931.671,0.029,0.547,0.876,-8.91,20.69,-19.71,1,6
16931.687,-0.096,0.756,1.002,-17.4,15.5,-15.23,1,6
16931.703,0.033,0.785,1.045,-18.43,3.02,-2.87,1,6
16931.703,0.023,0.633,0.945,-3.85,-0.61,5.25,1,6
16931.718,0.087,0.615,0.892,-0.31,-1.53,10.8,1,6
16931.718,0.081,0.584,0.871,5.58,0.09,8.79,1,6
16931.734,0.035,0.561,0.861,12.24,0.4,5.86,1,6
16931.75,0.012,0.61,0.853,14.92,-3.57,5.58,1,6
16931.765,0.009,0.611,0.827,14.83,-9.4,6.71,1,6
16931.765,0.011,0.619,0.822,10.1,-15.56,8.06,1,6
16931.781,-0.014,0.629,0.832,3.88,-22.43,8.79,1,6
16931.781,0.09,0.651,0.793,-3.91,-28.75,11.32,1,6
16931.796,0.088,0.522,0.734,-0.49,-25.3,11.41,1,6
16931.812,0.058,0.599,0.78,-5.34,-22.22,10.07,1,6
16931.812,0.121,0.602,0.782,-7.9,-22.37,10.53,1,6
16931.828,0.117,0.53,0.758,-3.97,-18.28,9.55,1,6
16931.828,0.133,0.541,0.757,-3.75,-14.56,9.22,1,6
16931.843,0.153,0.537,0.753,-1.89,-11.54,7.51,1,6
16931.859,0.159,0.526,0.752,-0.27,-8.42,5.01,1,6
16931.875,0.158,0.539,0.752,1.43,-5.65,2.26,1,6
16931.875,0.146,0.555,0.757,3.36,-2.96,1.19,1,6
16931.89,0.142,0.568,0.764,2.5,-1.95,1.43,1,6
16931.89,0.14,0.571,0.772,0.37,-2.11,2.17,1,6
16931.906,0.135,0.572,0.785,-1.62,-2.75,3.39,1,6
16931.921,0.132,0.576,0.801,-3.97,-4.15,4.97,1,6
16931.921,0.144,0.578,0.815,-6.56,-6.01,5.95,1,6
16931.937,0.154,0.576,0.827,-7.81,-6.84,6.01,1,6
16931.937,0.157,0.573,0.838,-7.2,-6.32,5.55,1,6
16931.953,0.155,0.562,0.846,-5.22,-5.52,4.76,1,6
16931.968,0.15,0.561,0.848,-3.05,-5.37,3.57,1,6
16931.968,0.139,0.569,0.849,-1.19,-5.98,1.77,1,6
16931.984,0.124,0.575,0.849,-0.24,-7.97,0.64,1,6
16932.0,0.121,0.577,0.846,-0.49,-10.59,0.4,1,6
16932.015,0.12,0.574,0.835,-0.7,-12.45,0.64,1,6
16932.015,0.113,0.568,0.819,-0.4,-13.31,1.46,1,6
16932.031,0.102,0.571,0.812,-0.09,-13.34,2.38,1,6
16932.031,0.101,0.57,0.806,-0.43,-13.4,3.17,1,6
16932.046,0.101,0.556,0.794,-1.34,-13.61,3.36,1,6
16932.062,0.103,0.544,0.789,-2.62,-13.12,2.9,1,6
16932.062,0.101,0.537,0.791,-2.96,-12.39,2.04,1,6
16932.078,0.1,0.526,0.789,-2.38,-12.05,0.89,1,6
16932.078,0.097,0.518,0.785,-0.58,-11.72,-0.34,1,6
16932.093,0.1,0.513,0.774,2.2,-11.05,-1.19,1,6
16932.109,0.101,0.518,0.767,5.1,-9.61,-1.89,1,6
16932.109,0.096,0.526,0.756,7.9,-7.57,-2.32,1,6
16932.14,0.086,0.553,0.764,7.26,-4.33,-2.26,1,6
16932.14,0.072,0.594,0.787,3.48,-4.15,-2.08,1,6
16932.156,0.08,0.606,0.802,-2.96,-6.5,-1.83,1,6
16932.171,0.093,0.596,0.807,-8.27,-8.76,-1.28,1,6
16932.171,0.102,0.575,0.803,-9.16,-8.85,-0.43,1,6
16932.187,0.109,0.562,0.788,-7.42,-7.57,0.12,1,6
16932.203,0.115,0.551,0.78,-5.22,-5.52,-0.34,1,6
16932.203,0.114,0.541,0.776,-2.87,-3.54,-1.4,1,6
16932.218,0.109,0.544,0.77,-0.95,-1.59,-2.38,1,6
16932.218,0.105,0.543,0.769,-0.03,-0.12,-3.45,1,6
16932.234,0.096,0.555,0.781,0.73,1.22,-3.97,1,6
16932.25,0.083,0.59,0.798,0.79,1.86,-3.3,1,6
16932.25,0.078,0.609,0.813,-1.19,0.85,-1.92,1,6
16932.265,0.089,0.602,0.809,-4.46,-1.5,-0.61,1,6
16932.281,0.102,0.585,0.804,-6.81,-3.05,0.55,1,6
16932.296,0.11,0.565,0.79,-7.45,-3.33,1.22,1,6
16932.296,0.127,0.528,0.768,-6.41,-1.13,-0.52,1,6
16932.312,0.124,0.509,0.762,-5.22,0.58,-2.9,1,6
16932.328,0.118,0.496,0.751,-3.69,2.41,-5.34,1,6
16932.328,0.118,0.486,0.742,-2.44,4.61,-7.35,1,6
16932.343,0.12,0.481,0.738,-2.66,7.05,-9.46,1,6
16932.359,0.137,0.458,0.723,-2.23,9.74,-12.05,1,6
16932.359,0.137,0.444,0.72,-1.68,13.76,-16.17,1,6
16932.375,0.132,0.484,0.728,-2.17,18.31,-20.02,1,6
16932.39,0.127,0.512,0.742,-2.72,23.62,-23.01,1,6
16932.39,0.119,0.518,0.759,-2.9,29.42,-25.06,1,6
16932.406,0.03,0.57,0.844,-2.9,34.03,-25.94,1,6
16932.421,-0.034,0.754,1.008,-12.15,26.31,-21.79,1,6
16932.421,0.091,0.749,0.997,-17.55,10.65,-12.57,1,6
16932.437,0.096,0.551,0.899,-6.26,8.88,-6.99,1,6
16932.453,0.046,0.707,0.978,-7.93,7.14,-4.58,1,6
16932.453,0.166,0.693,0.964,-7.02,-0.15,-1.65,1,6
16932.468,0.118,0.65,0.896,6.93,1.59,-2.01,1,6
16932.484,0.11,0.643,0.884,9.0,1.31,-1.98,1,6
16932.5,0.061,0.643,0.869,10.28,-0.43,-0.27,1,6
16932.5,0.042,0.621,0.842,13.43,-3.27,2.84,1,6
16932.515,0.04,0.618,0.818,13.31,-7.42,5.25,1,6
16932.531,0.048,0.64,0.831,10.56,-10.93,7.08,1,6
16932.531,0.004,0.683,0.879,6.32,-15.53,8.55,1,6
16932.546,0.104,0.675,0.837,4.52,-20.54,12.7,1,6
16932.562,0.066,0.602,0.872,7.48,-19.2,12.42,1,6
16932.562,0.089,0.752,1.008,-1.16,-23.29,14.28,1,6
16932.578,0.147,0.732,0.991,6.78,-26.4,20.36,1,6
16932.593,0.174,0.722,0.984,12.51,-24.81,24.02,1,6
16932.593,0.203,0.772,1.03,11.2,-23.74,25.73,1,6
16932.609,0.218,0.766,1.054,12.33,-23.41,26.34,1,6
16932.625,0.234,0.76,1.087,12.21,-23.9,28.17,1,6
16932.625,0.247,0.767,1.124,12.73,-24.41,31.19,1,6
16932.64,0.306,0.798,1.218,10.1,-28.66,36.74,1,6
16932.656,0.34,0.811,1.267,7.93,-33.63,37.54,1,6
16932.671,0.366,0.824,1.319,6.9,-40.89,37.72,1,6
16932.671,0.389,0.828,1.358,8.64,-50.26,38.58,1,6
16932.687,0.424,0.823,1.364,11.54,-60.95,40.47,1,6
16932.703,0.464,0.813,1.351,14.37,-71.57,42.79,1,6
16932.703,0.518,0.8,1.313,17.55,-81.0,44.22,1,6
16932.718,0.558,0.814,1.291,20.54,-86.89,44.95,1,6
16932.718,0.563,0.838,1.28,22.28,-91.37,46.05,1,6
16932.734,0.567,0.862,1.267,22.52,-97.35,49.26,1,6
16932.75,0.58,0.882,1.254,22.0,-103.89,54.78,1,6
16932.75,0.586,0.883,1.217,20.69,-110.69,61.74,1,6
16932.765,0.594,0.873,1.168,18.19,-117.8,69.0,1,6
16932.781,0.606,0.861,1.115,14.04,-124.82,75.69,1,6
16932.781,0.615,0.843,1.057,8.97,-130.41,81.36,1,6
16932.796,0.622,0.826,1.008,3.75,-133.98,86.03,1,6
16932.812,0.63,0.796,0.931,-4.27,-135.87,93.54,1,6
16932.828,0.637,0.783,0.898,-5.95,-133.73,97.08,1,6
16932.843,0.639,0.784,0.881,-7.02,-130.1,99.98,1,6
16932.843,0.631,0.772,0.857,-8.03,-126.53,101.66,1,6
16932.859,0.619,0.745,0.832,-8.55,-123.29,102.85,1,6
16932.859,0.596,0.726,0.81,-8.0,-120.37,102.91,1,6
16932.875,0.59,0.675,0.806,-6.96,-117.31,105.56,1,6
16932.89,0.594,0.678,0.77,-3.63,-118.02,105.23,1,6
16932.89,0.607,0.678,0.728,-3.54,-118.14,101.81,1,6
16932.906,0.578,0.617,0.69,-7.9,-116.76,99.92,1,6
16932.921,0.57,0.56,0.651,-12.6,-118.69,99.06,1,6
16932.937,0.559,0.501,0.605,-13.76,-121.31,99.28,1,6
16932.937,0.558,0.445,0.541,-11.93,-123.81,99.03,1,6
16932.953,0.562,0.377,0.469,-10.9,-126.56,98.54,1,6
16932.953,0.585,0.327,0.402,-9.67,-127.14,97.11,1,6
16932.968,0.576,0.304,0.329,-8.97,-126.35,91.71,1,6
16932.968,0.572,0.244,0.278,-12.33,-123.17,87.47,1,6
16932.984,0.571,0.201,0.235,-15.78,-118.75,83.13,1,6
16933.0,0.548,0.175,0.179,-17.7,-115.94,76.2,1,6
16933.0,0.503,0.108,0.116,-22.28,-115.33,70.89,1,6
16933.015,0.489,0.07,0.078,-29.97,-116.43,66.87,1,6
16933.031,0.48,0.059,0.037,-36.41,-117.4,62.44,1,6
16933.031,0.445,0.031,-0.012,-44.5,-119.33,56.52,1,6
16933.046,0.432,-0.021,-0.04,-55.6,-120.15,50.69,1,6
16933.062,0.45,-0.087,-0.063,-63.72,-119.42,48.92,1,6
16933.078,0.463,-0.052,-0.104,-64.39,-112.46,43.18,1,6
16933.078,0.451,-0.047,-0.14,-64.55,-101.47,33.97,1,6
16933.093,0.435,-0.05,-0.153,-66.62,-89.69,21.79,1,6
16933.093,0.387,-0.044,-0.139,-66.99,-76.11,9.19,1,6
16933.109,0.385,-0.018,-0.077,-66.93,-63.75,0.0,1,6
16933.109,0.415,0.068,0.004,-65.19,-54.02,-9.37,1,6
16933.125,0.393,0.122,0.07,-57.68,-45.29,-17.58,1,6
16933.156,0.427,0.29,0.242,-37.45,-33.27,-17.73,1,6
16933.156,0.427,0.355,0.244,-30.49,-32.04,-14.53,1,6
16933.171,0.439,0.361,0.231,-35.43,-28.29,-3.63,1,6
16933.171,0.508,0.371,0.217,-47.7,-22.61,11.54,1,6
16933.187,0.583,0.369,0.21,-62.29,-12.02,26.28,1,6
16933.203,0.662,0.381,0.269,-79.84,5.89,38.76,1,6
16933.203,0.693,0.385,0.372,-97.14,26.31,44.47,1,6
16933.218,0.658,0.341,0.503,-107.36,38.61,44.59,1,6
16933.234,0.626,0.289,0.639,-105.38,40.04,42.63,1,6
16933.234,0.596,0.251,0.719,-90.49,34.0,40.62,1,6
16933.25,0.599,0.227,0.713,-69.92,21.15,38.3,1,6
16933.25,0.643,0.223,0.644,-51.64,5.07,36.01,1,6
16933.265,0.709,0.233,0.553,-37.81,-7.93,33.97,1,6
16933.281,0.767,0.26,0.465,-32.14,-13.28,32.47,1,6
16933.281,0.819,0.279,0.396,-33.51,-12.82,29.69,1,6
16933.296,0.826,0.268,0.374,-36.56,-7.54,26.43,1,6
16933.312,0.773,0.202,0.4,-41.99,11.41,28.99,1,6
16933.328,0.743,0.17,0.412,-43.28,17.85,33.11,1,6
16933.328,0.724,0.12,0.424,-44.22,17.3,36.04,1,6
16933.343,0.725,0.056,0.417,-42.09,8.36,36.81,1,6
16933.359,0.777,0.022,0.381,-35.68,-5.16,35.74,1,6
16933.359,0.834,0.028,0.321,-27.77,-13.34,33.57,1,6
16933.375,0.875,0.014,0.286,-22.68,-15.32,29.48,1,6
16933.39,0.898,-0.011,0.262,-20.66,-14.28,24.87,1,6
16933.406,0.911,-0.028,0.23,-18.83,-10.5,22.13,1,6
16933.406,0.927,-0.049,0.204,-15.63,-6.16,21.64,1,6
16933.421,0.949,-0.059,0.185,-15.53,-3.11,22.86,1,6
16933.421,0.973,-0.066,0.181,-20.26,-1.19,24.48,1,6
16933.437,0.987,-0.092,0.185,-26.49,0.76,25.36,1,6
16933.437,0.998,-0.111,0.193,-36.16,3.91,26.67,1,6
16933.453,1.024,-0.123,0.211,-37.32,6.9,27.34,1,6
16933.468,1.038,-0.115,0.227,-38.51,10.8,26.8,1,6
16933.484,0.999,-0.086,0.252,-44.53,16.66,21.91,1,6
16933.5,0.959,-0.083,0.261,-48.28,20.36,19.07,1,6
16933.5,0.924,-0.066,0.286,-50.14,23.07,14.25,1,6
16933.515,0.928,-0.078,0.321,-53.22,23.87,11.35,1,6
16933.531,0.91,-0.083,0.321,-60.24,24.2,13.03,1,6
16933.531,0.882,-0.071,0.31,-67.32,23.53,14.65,1,6
16933.546,0.873,-0.067,0.29,-73.27,23.26,14.56,1,6
16933.562,0.85,-0.048,0.247,-77.03,26.22,12.85,1,6
16933.562,0.851,-0.021,0.23,-77.0,33.48,10.53,1,6
16933.578,0.933,-0.022,0.276,-75.29,45.84,13.79,1,6
16933.593,0.955,-0.009,0.35,-77.58,64.55,27.95,1,6
16933.593,0.89,-0.003,0.421,-84.87,80.36,45.72,1,6
16933.609,0.789,-0.067,0.512,-96.87,86.37,61.13,1,6
16933.609,0.706,-0.133,0.593,-108.28,80.48,72.3,1,6
16933.625,0.687,-0.19,0.638,-114.66,64.33,78.37,1,6
16933.64,0.746,-0.242,0.676,-113.71,44.71,77.67,1,6
16933.64,0.837,-0.303,0.691,-103.15,29.76,72.12,1,6
16933.656,0.904,-0.354,0.675,-87.5,21.73,65.61,1,6
16933.671,0.902,-0.393,0.652,-70.96,18.74,56.18,1,6
16933.671,0.859,-0.428,0.608,-55.18,15.08,41.08,1,6
16933.687,0.868,-0.438,0.557,-38.94,9.13,21.94,1,6
16933.687,0.925,-0.427,0.521,-21.79,7.66,3.63,1,6
16933.703,0.938,-0.386,0.518,-7.66,11.9,-14.74,1,6
16933.718,0.895,-0.358,0.555,4.64,17.37,-31.74,1,6
16933.734,0.816,-0.336,0.597,18.68,18.62,-47.52,1,6
16933.734,0.786,-0.313,0.605,35.0,13.95,-59.94,1,6
16933.75,0.808,-0.251,0.588,47.64,7.51,-66.71,1,6
16933.75,0.871,-0.181,0.564,51.45,2.9,-69.19,1,6
16933.765,0.89,-0.135,0.556,48.13,2.29,-70.16,1,6
16933.781,0.857,-0.115,0.548,44.95,2.2,-71.41,1,6
16933.781,0.863,-0.096,0.546,45.11,-0.03,-70.56,1,6
16933.796,0.852,-0.06,0.526,47.55,-0.58,-67.26,1,6
16933.812,0.883,-0.011,0.494,48.49,-1.56,-61.59,1,6
16933.812,0.929,0.048,0.501,42.36,-0.67,-51.42,1,6
16933.828,0.916,0.077,0.516,28.57,1.34,-37.48,1,6
16933.828,0.889,0.081,0.53,11.05,0.4,-21.61,1,6
16933.843,0.9,0.072,0.543,-5.25,-3.3,-3.97,1,6
16933.859,0.92,0.042,0.539,-18.68,-7.51,12.51,1,6
16933.875,0.959,0.007,0.512,-27.04,-10.59,25.51,1,6
16933.875,1.004,-0.03,0.499,-32.17,-11.66,36.23,1,6
16933.89,1.037,-0.059,0.511,-36.47,-9.98,44.89,1,6
16933.89,1.025,-0.1,0.52,-40.62,-6.68,50.48,1,6
16933.906,1.022,-0.147,0.552,-44.01,-4.91,53.8,1,6
16933.921,1.007,-0.195,0.575,-44.83,-4.43,54.41,1,6
16933.921,1.005,-0.234,0.583,-42.54,-5.89,51.36,1,6
16933.937,1.025,-0.266,0.586,-36.74,-8.06,45.23,1,6
16933.953,1.057,-0.282,0.583,-29.24,-8.51,37.35,1,6
16933.953,1.067,-0.288,0.589,-22.34,-6.26,28.17,1,6
16933.968,1.016,-0.289,0.606,-15.14,-2.99,15.9,1,6
16933.968,0.92,-0.287,0.633,-5.13,-2.35,0.76,1,6
16933.984,0.813,-0.269,0.644,9.4,-5.86,-14.8,1,6
16934.0,0.756,-0.232,0.594,25.88,-13.98,-29.36,1,6
16934.015,0.738,-0.176,0.532,38.3,-21.91,-40.25,1,6
16934.015,0.718,-0.11,0.443,44.4,-25.94,-46.66,1,6
16934.031,0.736,-0.053,0.367,43.24,-27.47,-47.21,1,6
16934.031,0.759,-0.012,0.348,36.84,-24.99,-41.2,1,6
16934.046,0.743,0.019,0.336,27.95,-19.2,-31.5,1,6
16934.062,0.711,0.021,0.335,18.16,-13.18,-21.42,1,6
16934.062,0.705,0.004,0.342,9.77,-8.97,-12.85,1,6
16934.078,0.715,-0.011,0.349,3.88,-5.4,-5.43,1,6
16934.078,0.701,-0.024,0.346,-0.82,-1.56,0.43,1,6
16934.093,0.674,-0.04,0.349,-5.28,0.64,3.45,1,6
16934.109,0.671,-0.058,0.368,-7.42,0.98,4.39,1,6
16934.109,0.682,-0.073,0.36,-7.08,0.85,5.28,1,6
16934.125,0.69,-0.068,0.346,-6.93,1.46,6.68,1,6
16934.14,0.714,-0.07,0.34,-9.49,1.98,8.73,1,6
16934.14,0.734,-0.08,0.341,-13.86,2.78,11.38,1,6
16934.156,0.746,-0.102,0.354,-18.49,3.42,14.01,1,6
16934.171,0.75,-0.126,0.364,-22.28,3.81,14.8,1,6
16934.171,0.759,-0.146,0.369,-22.49,4.12,12.94,1,6
16934.187,0.798,-0.156,0.371,-19.1,4.27,9.67,1,6
16934.203,0.847,-0.148,0.386,-15.11,5.77,6.35,1,6
16934.203,0.86,-0.14,0.41,-11.57,8.06,2.44,1,6
16934.218,0.824,-0.136,0.442,-7.6,8.88,-2.69,1,6
16934.234,0.772,-0.13,0.483,-1.77,7.35,-8.61,1,6
16934.234,0.722,-0.109,0.508,6.01,3.75,-14.98,1,6
16934.25,0.697,-0.076,0.519,13.46,-0.4,-20.48,1,6
16934.25,0.675,-0.043,0.511,18.49,-2.93,-24.05,1,6
16934.265,0.684,-0.023,0.5,21.67,-4.12,-25.67,1,6
16934.281,0.715,-0.003,0.493,25.67,-3.05,-25.67,1,6
16934.281,0.744,0.015,0.484,30.24,-0.37,-24.41,1,6
16934.296,0.77,0.021,0.471,33.66,2.99,-21.49,1,6
16934.312,0.812,0.019,0.466,34.0,5.71,-15.38,1,6
16934.312,0.87,0.015,0.464,27.28,7.81,-4.91,1,6
16934.328,0.948,-0.005,0.479,14.04,9.61,8.55,1,6
16934.343,0.998,-0.043,0.515,-1.16,12.09,22.52,1,6
16934.343,1.005,-0.093,0.549,-14.59,13.95,35.4,1,6
16934.359,1.0,-0.152,0.568,-23.47,12.82,44.68,1,6
16934.359,0.983,-0.208,0.575,-26.83,8.82,48.55,1,6
16934.375,0.962,-0.258,0.569,-25.67,2.96,47.49,1,6
16934.39,0.954,-0.296,0.543,-21.0,-2.9,42.33,1,6
16934.39,0.967,-0.316,0.502,-14.07,-7.32,34.06,1,6
16934.406,0.968,-0.33,0.469,-6.96,-7.9,23.96,1,6
16934.421,0.946,-0.332,0.447,1.59,-4.82,12.54,1,6
16934.437,0.937,-0.308,0.44,20.57,4.85,-9.0,1,6
16934.437,0.929,-0.286,0.448,25.36,9.77,-16.45,1,6
16934.453,0.923,-0.248,0.476,25.91,13.34,-21.33,1,6
16934.453,0.879,-0.195,0.53,21.97,11.41,-24.02,1,6
16934.468,0.831,-0.134,0.6,16.66,5.4,-24.96,1,6
16934.468,0.84,-0.108,0.609,13.49,-1.53,-25.73,1,6
16934.484,0.848,-0.086,0.579,12.6,-7.2,-25.61,1,6
16934.5,0.85,-0.071,0.547,13.21,-9.86,-24.35,1,6
16934.5,0.856,-0.053,0.523,14.56,-10.56,-22.46,1,6
16934.515,0.859,-0.049,0.499,15.69,-9.58,-19.07,1,6
16934.531,0.85,-0.045,0.481,14.89,-6.9,-13.73,1,6
16934.531,0.845,-0.044,0.463,12.15,-4.03,-7.57,1,6
16934.546,0.845,-0.044,0.47,7.08,-1.53,-0.61,1,6
16934.562,0.832,-0.052,0.489,-0.79,-0.06,6.9,1,6
16934.562,0.821,-0.084,0.496,-8.67,-0.18,13.82,1,6
16934.578,0.814,-0.117,0.506,-13.86,-1.19,19.5,1,6
16934.593,0.806,-0.139,0.504,-16.54,-2.41,23.53,1,6
16934.593,0.805,-0.158,0.498,-19.01,-3.51,25.91,1,6
16934.609,0.821,-0.17,0.497,-21.15,-3.78,26.95,1,6
16934.609,0.834,-0.179,0.487,-21.7,-2.56,26.37,1,6
16934.625,0.845,-0.183,0.482,-20.78,-0.09,25.7,1,6
16934.64,0.846,-0.186,0.485,-19.71,3.08,24.81,1,6
16934.64,0.846,-0.19,0.491,-18.92,5.8,23.32,1,6
16934.656,0.845,-0.189,0.503,-18.65,6.96,21.12,1,6
16934.671,0.829,-0.192,0.522,-17.46,7.14,18.43,1,6
16934.671,0.817,-0.189,0.528,-14.86,5.52,15.53,1,6
16934.687,0.826,-0.181,0.515,-11.9,2.2,11.87,1,6
16934.687,0.85,-0.175,0.494,-8.33,-1.22,8.42,1,6
16934.703,0.865,-0.165,0.478,-4.55,-2.44,6.9,1,6
16934.718,0.869,-0.162,0.461,-1.89,-2.26,6.35,1,6
16934.734,0.859,-0.164,0.453,-0.7,-1.4,5.43,1,6
16934.734,0.851,-0.171,0.447,0.34,-0.92,3.81,1,6
16934.75,0.855,-0.172,0.446,1.59,-0.24,2.99,1,6
16934.75,0.847,-0.17,0.447,2.99,1.19,2.29,1,6
16934.765,0.833,-0.177,0.447,3.72,2.04,2.01,1,6
16934.781,0.83,-0.179,0.452,3.33,2.11,1.86,1,6
16934.781,0.824,-0.193,0.46,2.78,2.32,2.14,1,6
16934.796,0.821,-0.202,0.46,1.92,2.23,2.75,1,6
16934.812,0.831,-0.211,0.452,0.7,1.71,2.72,1,6
16934.812,0.855,-0.213,0.451,0.0,1.71,2.04,1,6
16934.828,0.873,-0.209,0.45,-0.34,2.93,0.61,1,6
16934.828,0.868,-0.204,0.456,-0.55,5.01,-1.37,1,6
16934.843,0.854,-0.203,0.473,-0.09,6.53,-3.36,1,6
16934.859,0.842,-0.202,0.476,1.53,6.84,-5.16,1,6
16934.859,0.839,-0.198,0.47,3.23,6.68,-6.35,1,6
16934.875,0.835,-0.19,0.466,3.27,6.9,-6.71,1,6
16934.89,0.827,-0.184,0.471,2.04,7.23,-7.32,1,6
16934.89,0.804,-0.181,0.475,1.56,7.39,-8.85,1,6
16934.906,0.79,-0.183,0.48,3.2,6.71,-10.47,1,6
16934.921,0.784,-0.174,0.476,6.9,5.71,-11.66,1,6
16934.921,0.778,-0.158,0.456,10.62,4.85,-12.7,1,6
16934.937,0.782,-0.146,0.436,12.02,4.64,-13.09,1,6
16934.953,0.772,-0.138,0.416,11.6,6.13,-12.73,1,6
16934.953,0.757,-0.127,0.396,10.5,8.55,-11.57,1,6
16934.968,0.749,-0.121,0.391,8.21,11.02,-9.83,1,6
16934.968,0.735,-0.124,0.387,5.65,14.04,-8.15,1,6
16934.984,0.736,-0.124,0.39,4.24,16.11,-6.62,1,6
16935.0,0.739,-0.124,0.397,3.63,18.16,-4.97,1,6
16935.0,0.739,-0.123,0.41,2.99,20.05,-3.63,1,6
16935.015,0.736,-0.127,0.424,2.01,21.03,-2.56,1,6
16935.031,0.726,-0.134,0.442,1.31,21.36,-2.66,1,6
16935.031,0.72,-0.142,0.456,2.01,21.03,-3.17,1,6
16935.046,0.721,-0.139,0.457,3.78,20.11,-3.88,1,6
16935.062,0.74,-0.136,0.447,5.8,19.47,-4.64,1,6
16935.062,0.748,-0.131,0.449,6.47,21.03,-4.39,1,6
16935.078,0.734,-0.13,0.452,5.83,23.07,-3.97,1,6
16935.093,0.726,-0.132,0.46,4.67,24.26,-4.09,1,6
16935.093,0.708,-0.142,0.467,5.19,25.39,-5.16,1,6
16935.109,0.714,-0.144,0.462,7.23,25.54,-6.44,1,6
16935.109,0.742,-0.127,0.463,8.58,25.97,-6.59,1,6
16935.125,0.749,-0.12,0.471,8.27,28.35,-5.95,1,6
16935.14,0.745,-0.126,0.486,6.65,30.85,-5.43,1,6
16935.14,0.721,-0.137,0.507,5.86,32.5,-5.74,1,6
16935.156,0.701,-0.147,0.522,6.71,32.87,-6.68,1,6
16935.171,0.693,-0.148,0.528,7.93,32.01,-8.27,1,6
16935.171,0.713,-0.147,0.522,9.09,30.98,-10.16,1,6
16935.187,0.726,-0.134,0.52,9.86,31.89,-11.2,1,6
16935.187,0.73,-0.118,0.528,9.31,34.64,-10.74,1,6
16935.203,0.724,-0.11,0.55,7.51,37.32,-9.83,1,6
16935.218,0.712,-0.11,0.569,5.83,38.09,-9.74,1,6
16935.218,0.709,-0.114,0.586,6.16,37.72,-9.86,1,6
16935.234,0.701,-0.107,0.591,7.6,37.39,-9.55,1,6
16935.25,0.697,-0.094,0.592,8.7,36.65,-9.46,1,6
16935.25,0.709,-0.092,0.601,9.16,36.38,-8.88,1,6
16935.265,0.705,-0.084,0.609,8.85,36.59,-7.26,1,6
16935.281,0.714,-0.083,0.622,7.57,36.38,-5.95,1,6
16935.281,0.697,-0.089,0.63,6.81,36.38,-5.74,1,6
16935.296,0.7,-0.092,0.627,7.35,35.77,-6.56,1,6
16935.312,0.722,-0.083,0.624,8.97,36.01,-7.54,1,6
16935.312,0.729,-0.074,0.624,10.25,38.18,-8.12,1,6
16935.328,0.729,-0.067,0.644,9.03,41.17,-8.27,1,6
16935.343,0.696,-0.071,0.676,7.39,43.67,-8.67,1,6
16935.343,0.653,-0.08,0.706,7.51,44.25,-9.77,1,6
16935.359,0.634,-0.083,0.709,10.25,41.6,-11.69,1,6
16935.359,0.672,-0.077,0.693,13.76,37.93,-13.06,1,6
16935.375,0.707,-0.059,0.679,15.59,37.2,-12.94,1,6
16935.39,0.709,-0.045,0.674,15.53,38.73,-11.75,1,6
16935.39,0.695,-0.04,0.688,12.94,40.96,-10.07,1,6
16935.406,0.678,-0.046,0.707,9.64,42.24,-8.58,1,6
16935.421,0.66,-0.049,0.728,8.76,42.94,-7.17,1,6
16935.421,0.652,-0.059,0.73,9.25,43.34,-7.08,1,6
16935.437,0.648,-0.049,0.73,8.73,43.92,-6.41,1,6
16935.437,0.644,-0.043,0.739,6.32,43.67,-5.07,1,6
16935.453,0.64,-0.046,0.755,3.78,43.86,-3.63,1,6
16935.468,0.623,-0.057,0.771,3.23,43.73,-3.14,1,6
16935.468,0.602,-0.07,0.778,5.4,42.66,-4.55,1,6
16935.484,0.579,-0.078,0.776,9.46,41.14,-7.26,1,6
16935.5,0.58,-0.072,0.752,14.5,39.4,-10.86,1,6
16935.5,0.617,-0.062,0.727,17.61,39.52,-12.39,1,6
16935.515,0.623,-0.032,0.717,16.02,42.54,-11.57,1,6
16935.531,0.609,-0.03,0.741,11.17,46.21,-9.95,1,6
16935.531,0.583,-0.041,0.783,5.89,48.59,-7.6,1,6
16935.546,0.55,-0.053,0.804,4.36,48.52,-6.78,1,6
16935.546,0.589,-0.065,0.811,6.23,46.05,-5.89,1,6
16935.562,0.603,-0.049,0.813,6.96,46.45,-4.06,1,6
16935.578,0.574,-0.045,0.82,4.64,48.01,-2.38,1,6
16935.593,0.542,-0.052,0.846,-0.24,48.01,-1.19,1,6
16935.593,0.503,-0.06,0.864,-2.93,46.66,-2.17,1,6
16935.609,0.478,-0.063,0.861,-1.07,44.13,-4.97,1,6
16935.609,0.49,-0.065,0.842,5.34,41.54,-8.85,1,6
16935.625,0.501,-0.048,0.828,12.05,41.78,-12.09,1,6
16935.64,0.477,-0.035,0.825,17.37,44.28,-15.14,1,6
16935.64,0.433,-0.031,0.831,21.42,46.05,-18.98,1,6
16935.656,0.375,-0.034,0.844,26.31,46.72,-24.08,1,6
16935.671,0.309,-0.029,0.835,33.97,45.29,-30.09,1,6
16935.671,0.287,-0.01,0.812,42.21,41.96,-34.52,1,6
16935.687,0.289,0.021,0.757,47.61,39.8,-36.71,1,6
16935.703,0.309,0.068,0.703,47.94,39.25,-35.22,1,6
16935.703,0.347,0.082,0.681,41.87,41.99,-30.21,1,6
16935.718,0.385,0.073,0.694,33.33,47.98,-23.74,1,6
16935.718,0.371,0.057,0.738,26.49,55.91,-18.01,1,6
16935.734,0.318,0.037,0.793,23.07,61.86,-15.96,1,6
16935.75,0.278,0.024,0.81,25.39,63.33,-18.98,1,6
16935.765,0.28,0.021,0.809,33.27,62.29,-24.57,1,6
16935.765,0.306,0.052,0.826,38.3,62.75,-28.44,1,6
16935.781,0.339,0.069,0.829,38.42,64.91,-30.64,1,6
16935.781,0.346,0.083,0.854,35.0,69.03,-32.07,1,6
16935.796,0.322,0.087,0.888,30.82,73.27,-33.75,1,6
16935.812,0.295,0.099,0.911,27.04,76.02,-35.13,1,6
16935.812,0.293,0.127,0.903,24.84,75.93,-37.6,1,6
16935.828,0.337,0.156,0.911,23.65,75.01,-38.18,1,6
16935.843,0.368,0.178,0.926,20.63,78.1,-35.1,1,6
16935.843,0.346,0.188,0.954,15.84,82.98,-30.7,1,6
16935.859,0.308,0.177,1.014,10.22,85.79,-26.15,1,6
16935.859,0.281,0.156,1.067,5.62,85.94,-22.34,1,6
16935.875,0.247,0.141,1.079,4.61,84.38,-20.75,1,6
16935.89,0.285,0.131,1.047,6.01,78.43,-22.28,1,6
16935.89,0.36,0.121,1.066,6.74,75.81,-21.67,1,6
16935.906,0.369,0.135,1.066,6.74,79.44,-21.03,1,6
16935.921,0.344,0.132,1.094,4.7,82.98,-21.82,1,6
16935.921,0.311,0.121,1.154,1.68,85.57,-23.1,1,6
16935.937,0.271,0.113,1.201,1.95,85.15,-25.76,1,6
16935.937,0.24,0.115,1.234,6.2,81.48,-30.27,1,6
16935.953,0.189,0.126,1.243,13.82,75.53,-38.12,1,6
16935.968,0.127,0.164,1.202,24.45,66.41,-48.46,1,6
16935.968,0.144,0.214,1.146,35.68,54.69,-56.34,1,6
16935.984,0.178,0.29,1.087,42.79,48.83,-56.34,1,6
16936.0,0.201,0.346,1.017,40.96,48.52,-48.34,1,6
16936.015,0.205,0.349,1.001,28.5,52.46,-33.94,1,6
16936.015,0.162,0.34,1.04,11.69,58.5,-17.58,1,6
16936.031,0.108,0.3,1.094,-0.34,61.28,-4.97,1,6
16936.031,0.084,0.248,1.14,-3.27,58.99,1.98,1,6
16936.046,0.078,0.234,1.153,3.33,54.38,4.21,1,6
16936.062,0.115,0.233,1.115,13.79,48.28,3.97,1,6
16936.062,0.145,0.256,1.125,18.89,45.41,5.77,1,6
16936.078,0.115,0.279,1.129,18.56,45.23,8.76,1,6
16936.078,0.078,0.284,1.122,13.95,44.13,11.93,1,6
16936.093,0.073,0.253,1.128,9.31,41.57,15.35,1,6
16936.109,0.076,0.229,1.122,7.02,39.19,17.43,1,6
16936.109,0.081,0.206,1.093,6.9,36.77,16.54,1,6
16936.125,0.101,0.18,1.049,7.81,34.67,13.98,1,6
16936.14,0.138,0.168,1.024,8.61,34.49,11.2,1,6
16936.14,0.165,0.166,1.007,9.0,36.87,7.54,1,6
16936.156,0.175,0.168,1.015,8.12,41.44,3.23,1,6
16936.171,0.171,0.17,1.042,7.66,46.48,-1.22,1,6
16936.171,0.16,0.176,1.063,8.7,50.42,-6.68,1,6
16936.187,0.146,0.183,1.085,10.83,52.34,-12.91,1,6
16936.203,0.122,0.194,1.12,13.79,52.16,-19.26,1,6
16936.203,0.087,0.203,1.128,18.22,49.1,-25.15,1,6
16936.218,0.065,0.226,1.108,21.97,44.56,-29.88,1,6
16936.218,0.065,0.254,1.071,24.45,39.89,-33.57,1,6
16936.234,0.073,0.283,1.032,24.14,38.21,-33.14,1,6
16936.25,0.081,0.305,1.0,19.59,40.07,-29.76,1,6
16936.25,0.07,0.309,0.992,12.82,44.28,-25.39,1,6
16936.265,0.053,0.29,0.996,6.32,48.92,-20.54,1,6
16936.281,0.042,0.271,1.01,1.59,53.5,-16.27,1,6
16936.296,0.012,0.248,1.026,-0.64,57.34,-13.89,1,6
16936.296,-0.032,0.23,1.041,-1.01,59.33,-13.15,1,6
16936.312,-0.073,0.227,1.047,0.73,58.84,-13.98,1,6
16936.312,-0.086,0.229,1.035,3.11,56.37,-15.32,1,6
16936.328,-0.08,0.243,1.02,4.46,54.48,-15.32,1,6
16936.343,-0.06,0.243,1.006,3.05,53.9,-13.21,1,6
16936.343,-0.039,0.234,1.002,-1.62,54.81,-9.19,1,6
16936.359,-0.033,0.209,1.006,-6.84,57.07,-4.94,1,6
16936.359,-0.041,0.182,1.022,-11.69,58.99,-1.31,1,6
16936.375,-0.058,0.154,1.038,-14.4,59.6,0.21,1,6
16936.39,-0.074,0.135,1.043,-13.67,58.81,-1.1,1,6
16936.39,-0.088,0.125,1.045,-4.12,55.27,-10.38,1,6
16936.406,-0.118,0.137,1.04,0.89,53.13,-14.74,1,6
16936.421,-0.148,0.169,1.035,2.44,50.39,-17.06,1,6
16936.421,-0.166,0.204,1.03,2.01,47.91,-17.33,1,6
16936.437,-0.203,0.229,1.003,-0.03,46.08,-15.05,1,6
16936.453,-0.201,0.227,0.984,-3.27,44.74,-11.54,1,6
16936.453,-0.191,0.204,0.986,-5.86,44.37,-8.27,1,6
16936.468,-0.194,0.184,0.995,-7.72,45.01,-4.7,1,6
16936.468,-0.203,0.166,0.998,-7.75,44.92,-2.59,1,6
16936.484,-0.212,0.158,1.005,-6.71,43.95,-1.98,1,6
16936.5,-0.228,0.157,1.019,-4.46,42.42,-2.32,1,6
16936.5,-0.239,0.164,1.029,-2.59,40.01,-2.29,1,6
16936.515,-0.249,0.171,1.015,-1.77,37.08,-1.92,1,6
16936.531,-0.257,0.175,1.002,-1.62,34.7,-1.59,1,6
16936.531,-0.266,0.188,1.005,-3.45,32.99,-0.31,1,6
16936.546,-0.26,0.198,0.992,-6.74,31.37,1.59,1,6
16936.562,-0.254,0.209,0.982,-10.47,31.07,2.87,1,6
16936.562,-0.253,0.204,0.985,-11.66,31.4,3.94,1,6
16936.578,-0.247,0.205,0.982,-10.86,32.56,5.77,1,6
16936.593,-0.222,0.187,0.989,-9.67,33.97,7.72,1,6
16936.593,-0.217,0.169,1.0,-9.37,35.37,9.09,1,6
16936.609,-0.233,0.16,1.014,-8.79,35.8,8.42,1,6
16936.609,-0.242,0.142,1.024,-6.71,34.24,5.01,1,6
16936.625,-0.245,0.145,1.023,-3.88,32.07,0.03,1,6
16936.64,-0.251,0.153,1.009,-0.24,30.03,-6.23,1,6
16936.64,-0.259,0.161,0.991,1.68,28.44,-11.9,1,6
16936.656,-0.271,0.167,0.969,1.34,28.17,-16.05,1,6
16936.671,-0.285,0.172,0.95,-0.49,29.05,-19.04,1,6
16936.671,-0.304,0.178,0.953,-2.04,30.73,-21.09,1,6
16936.687,-0.332,0.184,0.949,-1.95,32.01,-21.79,1,6
16936.703,-0.344,0.194,0.943,-2.11,32.81,-20.75,1,6
16936.703,-0.345,0.206,0.945,-3.02,33.02,-19.9,1,6
16936.718,-0.348,0.216,0.935,-4.67,32.99,-19.35,1,6
16936.718,-0.352,0.222,0.923,-6.71,33.02,-18.56,1,6
16936.734,-0.357,0.223,0.923,-8.18,33.14,-17.88,1,6
16936.75,-0.364,0.217,0.918,-7.69,33.48,-17.12,1,6
16936.75,-0.375,0.221,0.921,-6.84,34.0,-15.69,1,6
16936.765,-0.384,0.223,0.91,-6.44,34.36,-14.13,1,6
16936.781,-0.386,0.219,0.901,-7.51,34.49,-12.73,1,6
16936.781,-0.393,0.212,0.914,-8.45,34.79,-12.27,1,6
16936.796,-0.409,0.199,0.922,-6.96,34.64,-12.51,1,6
16936.812,-0.407,0.189,0.926,-4.21,34.06,-12.27,1,6
16936.812,-0.401,0.176,0.925,-1.8,33.6,-13.06,1,6
16936.828,-0.389,0.15,0.937,0.58,32.53,-15.93,1,6
16936.828,-0.373,0.112,0.984,4.24,30.43,-21.67,1,6
16936.843,-0.352,0.038,1.029,12.02,27.19,-30.03,1,6
16936.859,-0.405,0.077,0.991,19.62,23.65,-39.61,1,6
16936.859,-0.396,0.114,0.964,22.43,18.52,-47.55,1,6
16936.875,-0.399,0.135,0.932,25.21,16.72,-53.32,1,6
16936.89,-0.405,0.134,0.93,27.13,17.4,-57.68,1,6
16936.89,-0.421,0.105,0.96,30.95,19.78,-61.83,1,6
16936.906,-0.42,0.125,0.959,37.51,21.24,-62.99,1,6
16936.921,-0.46,0.176,0.919,40.56,20.97,-65.34,1,6
16936.921,-0.508,0.219,0.896,36.53,20.29,-63.14,1,6
16936.937,-0.543,0.278,0.885,31.53,19.81,-56.12,1,6
16936.953,-0.539,0.303,0.85,27.25,18.8,-47.33,1,6
16936.953,-0.525,0.278,0.844,22.25,19.29,-38.27,1,6
16936.968,-0.526,0.262,0.849,18.52,20.11,-31.53,1,6
16936.968,-0.537,0.226,0.842,15.84,20.69,-26.49,1,6
16936.984,-0.525,0.223,0.841,12.45,20.39,-22.37,1,6
16937.0,-0.544,0.23,0.824,9.92,21.15,-18.4,1,6
16937.015,-0.512,0.223,0.814,6.44,20.97,-14.04,1,6
16937.015,-0.496,0.202,0.807,3.39,21.06,-11.32,1,6
16937.031,-0.487,0.186,0.814,1.25,22.37,-9.55,1,6
16937.031,-0.485,0.183,0.827,1.43,24.17,-8.48,1,6
16937.046,-0.497,0.182,0.829,1.98,25.45,-8.73,1,6
16937.062,-0.486,0.176,0.836,1.86,25.54,-9.58,1,6
16937.062,-0.469,0.179,0.849,2.56,24.45,-12.73,1,6
16937.078,-0.461,0.156,0.836,4.12,23.5,-16.27,1,6
16937.078,-0.447,0.165,0.855,6.44,22.55,-20.45,1,6
16937.093,-0.449,0.15,0.857,10.65,22.64,-25.51,1,6
16937.109,-0.474,0.167,0.869,13.98,22.0,-31.31,1,6
16937.109,-0.494,0.176,0.885,18.01,20.48,-35.8,1,6
16937.125,-0.508,0.208,0.878,21.79,17.0,-39.28,1,6
16937.14,-0.495,0.224,0.858,23.53,14.01,-40.1,1,6
16937.156,-0.471,0.258,0.839,21.82,11.11,-39.64,1,6
16937.156,-0.466,0.251,0.841,19.14,12.15,-38.09,1,6
16937.171,-0.474,0.258,0.842,17.7,13.55,-34.58,1,6
16937.171,-0.44,0.261,0.831,17.61,14.22,-31.25,1,6
16937.187,-0.486,0.242,0.845,14.34,15.63,-31.19,1,6
16937.203,-0.46,0.223,0.853,12.39,15.11,-28.6,1,6
16937.203,-0.518,0.188,0.842,13.76,14.28,-31.4,1,6
16937.218,-0.482,0.126,0.847,15.32,14.31,-29.39,1,6
16937.234,-0.5,0.19,0.817,16.69,10.99,-33.51,1,6
16937.234,-0.53,0.133,0.822,16.02,13.0,-33.11,1,6
16937.25,-0.485,0.213,0.81,14.22,11.54,-30.64,1,6
16937.25,-0.493,0.215,0.788,9.92,12.36,-30.43,1,6
16937.265,-0.506,0.208,0.837,2.44,12.45,-27.71,1,6
16937.281,-0.506,0.196,0.854,1.59,14.59,-21.06,1,6
16937.281,-0.474,0.241,0.83,1.92,12.57,-16.91,1,6
16937.296,-0.478,0.202,0.812,-1.8,12.15,-16.51,1,6
16937.312,-0.479,0.176,0.853,-5.46,11.9,-15.75,1,6
16937.312,-0.479,0.176,0.865,-1.98,12.05,-14.4,1,6
16937.328,-0.479,0.178,0.872,3.27,11.6,-14.13,1,6
16937.328,-0.485,0.183,0.896,7.57,10.35,-15.14,1,6
16937.343,-0.508,0.193,0.905,11.96,7.93,-16.27,1,6
16937.359,-0.527,0.206,0.896,15.56,3.85,-17.18,1,6
16937.375,-0.532,0.217,0.879,16.6,-0.76,-17.0,1,6
16937.375,-0.538,0.228,0.859,14.65,-6.01,-12.02,1,6
16937.39,-0.535,0.238,0.834,12.12,-6.23,-7.14,1,6
16937.39,-0.539,0.243,0.816,8.21,-5.86,-1.71,1,6
16937.406,-0.55,0.232,0.809,4.33,-5.55,3.08,1,6
16937.421,-0.563,0.184,0.793,2.29,-5.34,6.59,1,6
16937.421,-0.569,0.167,0.78,1.86,-5.4,8.27,1,6
16937.437,-0.572,0.159,0.778,2.47,-5.22,9.06,1,6
16937.437,-0.581,0.153,0.776,4.12,-5.1,9.25,1,6
16937.453,-0.595,0.156,0.769,5.07,-4.82,9.64,1,6
16937.468,-0.599,0.154,0.77,5.1,-5.37,10.01,1,6
16937.468,-0.607,0.146,0.762,4.94,-6.26,9.92,1,6
16937.484,-0.609,0.138,0.752,4.76,-6.32,10.83,1,6
16937.5,-0.601,0.139,0.743,4.52,-5.86,11.72,1,6
16937.5,-0.6,0.143,0.74,4.12,-4.64,11.99,1,6
16937.515,-0.602,0.15,0.74,3.45,-2.99,12.48,1,6
16937.531,-0.605,0.155,0.752,2.66,-1.16,13.52,1,6
16937.531,-0.61,0.158,0.762,2.17,0.34,15.05,1,6
16937.546,-0.609,0.157,0.77,2.01,1.13,16.39,1,6
16937.562,-0.615,0.151,0.771,1.43,1.46,17.3,1,6
16937.562,-0.614,0.149,0.774,-0.31,1.31,18.22,1,6
16937.578,-0.615,0.139,0.778,-1.71,1.13,18.37,1,6
16937.593,-0.606,0.13,0.78,-2.53,0.92,18.16,1,6
16937.593,-0.591,0.128,0.776,-2.5,1.31,17.64,1,6
16937.609,-0.584,0.123,0.779,-1.8,2.87,16.24,1,6
16937.609,-0.592,0.121,0.791,-0.89,4.43,13.98,1,6
16937.625,-0.605,0.118,0.8,0.18,5.13,11.66,1,6
16937.64,-0.605,0.118,0.81,0.4,4.82,9.74,1,6
16937.64,-0.601,0.113,0.811,0.55,3.66,7.78,1,6
16937.656,-0.596,0.111,0.811,0.61,2.56,5.95,1,6
16937.671,-0.575,0.107,0.807,0.4,1.43,4.33,1,6
16937.671,-0.562,0.111,0.813,0.43,1.1,2.59,1,6
16937.687,-0.563,0.113,0.812,0.92,0.95,1.07,1,6
16937.687,-0.569,0.122,0.81,1.16,0.67,0.64,1,6
16937.703,-0.574,0.139,0.811,0.27,0.43,1.1,1,6
16937.718,-0.572,0.15,0.803,-2.2,-0.4,1.68,1,6
16937.718,-0.56,0.147,0.793,-5.55,-0.79,2.75,1,6
16937.734,-0.545,0.144,0.781,-8.24,0.0,3.63,1,6
16937.75,-0.543,0.151,0.785,-9.4,2.26,4.15,1,6
16937.765,-0.555,0.165,0.791,-9.16,4.97,4.36,1,6
16937.765,-0.572,0.18,0.798,-9.16,6.59,5.1,1,6
16937.781,-0.589,0.192,0.816,-10.28,6.53,6.04,1,6
16937.781,-0.597,0.195,0.823,-11.6,4.39,7.11,1,6
16937.796,-0.589,0.192,0.815,-13.46,1.46,7.9,1,6
16937.812,-0.589,0.187,0.814,-14.31,-0.98,8.0,1,6
16937.812,-0.589,0.183,0.807,-13.98,-3.2,8.15,1,6
16937.828,-0.581,0.182,0.793,-13.86,-4.58,8.55,1,6
16937.828,-0.579,0.176,0.783,-13.58,-5.1,9.03,1,6
16937.843,-0.565,0.165,0.77,-13.52,-5.04,9.46,1,6
16937.859,-0.555,0.153,0.763,-12.51,-4.15,8.61,1,6
16937.859,-0.562,0.15,0.759,-9.86,-2.35,7.23,1,6
16937.875,-0.579,0.155,0.768,-7.35,-0.95,6.04,1,6
16937.89,-0.594,0.162,0.778,-6.13,-1.25,5.25,1,6
16937.89,-0.588,0.162,0.775,-6.29,-2.9,5.1,1,6
16937.906,-0.57,0.158,0.771,-6.99,-4.09,4.7,1,6
16937.921,-0.567,0.156,0.772,-6.44,-4.0,3.66,1,6
16937.921,-0.574,0.163,0.776,-3.75,-2.96,2.84,1,6
16937.937,-0.582,0.177,0.77,-1.01,-2.01,2.53,1,6
16937.953,-0.593,0.186,0.772,0.03,-1.43,2.5,1,6
16937.953,-0.591,0.182,0.771,-0.61,-1.37,2.87,1,6
16937.968,-0.581,0.167,0.767,-1.37,-1.1,3.17,1,6
16937.968,-0.577,0.153,0.772,-0.95,0.09,2.99,1,6
16937.984,-0.583,0.151,0.779,0.73,1.46,2.5,1,6
16938.0,-0.582,0.153,0.782,1.31,1.92,2.44,1,6
16938.0,-0.581,0.148,0.788,0.27,1.8,1.95,1,6
16938.015,-0.594,0.146,0.81,0.43,1.31,0.98,1,6
16938.031,-0.599,0.156,0.809,1.25,-0.12,1.1,1,6
16938.031,-0.584,0.165,0.798,-0.34,-2.14,1.59,1,6
16938.046,-0.57,0.154,0.795,-2.66,-3.39,1.4,1,6
16938.062,-0.564,0.147,0.793,-2.99,-3.6,1.16,1,6
16938.062,-0.56,0.148,0.789,-2.01,-2.9,1.16,1,6
16938.078,-0.565,0.148,0.784,-1.13,-1.56,1.16,1,6
16938.093,-0.576,0.154,0.789,-1.37,-0.49,0.98,1,6
16938.093,-0.573,0.148,0.796,-2.62,-0.46,1.4,1,6
16938.109,-0.571,0.147,0.802,-3.33,-0.52,1.68,1,6
16938.109,-0.569,0.149,0.802,-2.56,-0.73,1.92,1,6
16938.125,-0.559,0.157,0.794,-2.04,-0.67,2.26,1,6
16938.14,-0.556,0.16,0.788,-2.14,0.18,2.44,1,6
16938.14,-0.571,0.168,0.794,-1.86,1.62,2.47,1,6
16938.156,-0.586,0.175,0.803,-1.92,1.53,3.05,1,6
16938.171,-0.576,0.173,0.8,-3.3,0.12,3.97,1,6
16938.187,-0.569,0.164,0.793,-4.21,-0.55,4.46,1,6
16938.187,-0.576,0.158,0.787,-3.78,-0.4,4.52,1,6
16938.187,-0.578,0.159,0.789,-3.72,0.09,4.73,1,6
16938.203,-0.579,0.157,0.793,-4.24,0.37,4.49,1,6
16938.218,-0.581,0.156,0.795,-4.18,0.4,4.15,1,6
16938.218,-0.582,0.158,0.796,-4.09,0.06,3.69,1,6
16938.234,-0.58,0.159,0.793,-3.94,-0.24,3.11,1,6
16938.25,-0.582,0.161,0.789,-3.2,-0.49,2.47,1,6
16938.265,-0.579,0.164,0.786,-3.11,-0.64,2.29,1,6
16938.265,-0.572,0.16,0.78,-3.33,-0.64,2.41,1,6
16938.281,-0.569,0.156,0.78,-2.56,0.03,2.08,1,6
16938.281,-0.588,0.165,0.785,-1.04,1.25,1.83,1,6
16938.296,-0.603,0.17,0.793,-1.04,1.16,2.23,1,6
16938.312,-0.594,0.162,0.793,-2.93,-0.52,2.93,1,6
16938.312,-0.582,0.145,0.79,-3.94,-1.68,3.2,1,6
16938.328,-0.577,0.133,0.781,-3.14,-1.62,3.02,1,6
16938.328,-0.573,0.133,0.771,-2.2,-0.79,2.38,1,6
16938.343,-0.574,0.134,0.774,-1.83,0.64,1.4,1,6
16938.359,-0.589,0.135,0.783,-1.01,1.92,0.15,1,6
16938.359,-0.605,0.146,0.794,-0.21,0.46,-1.37,1,6
16938.375,-0.602,0.161,0.8,-1.74,-1.46,-1.89,1,6
16938.39,-0.586,0.16,0.796,-1.68,-2.56,-2.29,1,6
16938.39,-0.578,0.162,0.781,-1.01,-2.96,-2.41,1,6
16938.406,-0.575,0.162,0.78,-1.07,-2.87,-2.29,1,6
16938.421,-0.582,0.161,0.783,-1.1,-2.17,-2.01,1,6
16938.421,-0.595,0.157,0.778,-1.19,-1.68,-1.31,1,6
16938.437,-0.585,0.149,0.78,-2.75,-1.89,-0.73,1,6
16938.437,-0.569,0.133,0.784,-4.03,-1.92,-1.37,1,6
16938.453,-0.561,0.125,0.787,-2.87,-1.25,-2.72,1,6
16938.468,-0.564,0.135,0.788,0.03,0.15,-4.21,1,6
16938.468,-0.571,0.149,0.783,2.75,1.31,-5.62,1,6
16938.484,-0.572,0.161,0.781,3.78,2.01,-6.23,1,6
16938.5,-0.583,0.168,0.787,3.97,2.26,-6.07,1,6
16938.5,-0.595,0.176,0.795,3.6,1.59,-4.82,1,6
16938.515,-0.598,0.182,0.809,1.74,-0.18,-3.14,1,6
16938.531,-0.593,0.178,0.812,-1.1,-2.66,-1.68,1,6
16938.531,-0.578,0.166,0.808,-3.11,-5.01,-0.31,1,6
16938.546,-0.558,0.151,0.796,-3.81,-6.01,0.12,1,6
16938.562,-0.552,0.141,0.784,-3.05,-5.13,-0.37,1,6
16938.562,-0.554,0.133,0.777,-1.25,-3.42,-1.19,1,6
16938.578,-0.562,0.131,0.774,0.18,-1.43,-1.95,1,6
16938.578,-0.572,0.135,0.782,1.28,0.34,-2.59,1,6
16938.593,-0.587,0.14,0.79,2.84,1.53,-3.17,1,6
16938.609,-0.597,0.152,0.796,3.51,1.34,-3.36,1,6
16938.609,-0.592,0.164,0.808,2.26,0.15,-3.02,1,6
16938.625,-0.585,0.159,0.806,0.76,-1.46,-3.11,1,6
16938.64,-0.582,0.157,0.801,0.49,-2.75,-2.78,1,6
16938.64,-0.579,0.157,0.795,0.4,-3.78,-2.47,1,6
16938.656,-0.575,0.152,0.783,0.06,-4.0,-2.32,1,6
16938.671,-0.565,0.146,0.778,-0.37,-3.66,-1.86,1,6
16938.671,-0.563,0.139,0.777,0.12,-2.66,-1.95,1,6
16938.687,-0.563,0.141,0.782,1.13,-1.25,-2.08,1,6
