timestamp,ax,ay,az,gx,gy,gz,orient_label,motion_label
16336.875,-0.932,0.094,0.287,-1.13,-2.26,0.09,1,1
16336.89,-0.926,0.093,0.289,-1.4,-1.89,0.03,1,1
16336.906,-0.922,0.088,0.292,-1.43,-1.4,-0.15,1,1
16336.906,-0.924,0.089,0.292,-1.01,-1.04,-0.76,1,1
16336.921,-0.931,0.093,0.292,-0.27,-0.73,-1.13,1,1
16336.937,-0.935,0.098,0.293,0.34,-0.82,-1.16,1,1
16336.937,-0.936,0.105,0.289,0.58,-1.04,-0.95,1,1
16336.953,-0.933,0.105,0.289,0.03,-1.28,-0.46,1,1
16336.968,-0.929,0.1,0.283,-0.79,-1.68,-0.34,1,1
16336.968,-0.927,0.099,0.284,-1.28,-1.74,-0.43,1,1
16336.984,-0.926,0.096,0.286,-1.28,-1.25,-0.49,1,1
16336.984,-0.926,0.095,0.29,-1.28,-0.73,-0.55,1,1
16337.0,-0.925,0.096,0.293,-1.34,-0.27,-0.82,1,1
16337.015,-0.928,0.098,0.294,-1.65,-0.03,-1.28,1,1
16337.015,-0.934,0.101,0.299,-1.71,-0.15,-1.59,1,1
16337.031,-0.934,0.1,0.303,-1.25,-0.31,-1.53,1,1
16337.046,-0.934,0.097,0.301,-0.21,-0.55,-1.07,1,1
16337.046,-0.931,0.104,0.299,0.76,-0.98,-0.85,1,1
16337.062,-0.934,0.105,0.297,1.5,-0.95,-0.85,1,1
16337.078,-0.935,0.101,0.296,1.59,-1.04,-0.76,1,1
16337.078,-0.933,0.097,0.296,1.46,-1.4,-0.95,1,1
16337.093,-0.932,0.099,0.293,1.53,-1.5,-1.31,1,1
16337.093,-0.934,0.102,0.288,0.98,-1.56,-1.4,1,1
16337.109,-0.934,0.103,0.285,-0.09,-1.5,-1.5,1,1
16337.125,-0.931,0.102,0.286,-0.76,-0.95,-1.59,1,1
16337.125,-0.933,0.1,0.289,-1.07,-0.4,-1.65,1,1
16337.14,-0.937,0.1,0.295,-0.95,-0.18,-1.28,1,1
16337.156,-0.934,0.098,0.296,-0.27,-0.21,-0.85,1,1
16337.156,-0.935,0.097,0.3,0.89,-0.64,-0.73,1,1
16337.171,-0.937,0.098,0.302,1.4,-1.65,-0.82,1,1
16337.187,-0.938,0.113,0.299,0.79,-2.78,-0.55,1,1
16337.187,-0.935,0.109,0.291,0.76,-3.23,0.31,1,1
16337.203,-0.935,0.103,0.291,0.92,-3.51,0.7,1,1
16337.203,-0.932,0.102,0.286,1.25,-3.66,0.61,1,1
16337.218,-0.936,0.1,0.289,1.65,-3.27,0.55,1,1
16337.234,-0.938,0.096,0.293,2.23,-2.9,0.67,1,1
16337.234,-0.936,0.097,0.295,3.08,-2.72,0.82,1,1
16337.25,-0.939,0.1,0.304,4.82,-2.81,0.95,1,1
16337.265,-0.932,0.105,0.31,6.01,-3.57,0.82,1,1
16337.265,-0.943,0.094,0.301,9.61,-3.66,1.5,1,1
16337.281,-0.944,0.118,0.311,11.57,-5.71,1.62,1,1
16337.296,-0.935,0.115,0.326,13.15,-8.09,1.4,1,1
16337.296,-0.924,0.104,0.311,16.21,-9.28,1.71,1,1
16337.312,-0.947,0.107,0.303,18.16,-9.34,0.67,1,1
16337.312,-0.936,0.125,0.311,20.45,-8.64,1.4,1,1
16337.328,-0.941,0.127,0.3,24.14,-7.97,3.39,1,1
16337.343,-0.947,0.145,0.301,23.96,-8.97,4.7,1,1
16337.343,-0.946,0.16,0.31,24.14,-9.98,7.42,1,1
16337.359,-0.942,0.168,0.304,21.91,-12.51,9.7,1,1
16337.375,-0.942,0.174,0.311,20.45,-13.34,10.99,1,1
16337.375,-0.94,0.168,0.297,21.03,-13.28,12.42,1,1
16337.39,-0.927,0.18,0.295,20.75,-12.21,13.52,1,1
16337.406,-0.941,0.176,0.293,22.25,-9.46,13.92,1,1
16337.406,-0.944,0.195,0.299,23.16,-7.39,14.44,1,1
16337.421,-0.952,0.193,0.326,25.61,-6.04,15.96,1,1
16337.437,-0.948,0.177,0.295,29.24,-5.28,17.03,1,1
16337.437,-0.959,0.204,0.326,31.65,-2.9,18.49,1,1
16337.453,-0.956,0.179,0.326,36.19,-3.85,19.71,1,1
16337.453,-0.951,0.165,0.308,38.21,-4.12,21.55,1,1
16337.468,-0.936,0.145,0.291,37.02,-4.18,22.31,1,1
16337.484,-0.914,0.118,0.265,34.36,-4.82,20.63,1,1
16337.5,-0.893,0.117,0.25,30.88,-3.63,18.04,1,1
16337.5,-0.889,0.1,0.228,28.08,-1.25,14.5,1,1
16337.515,-0.884,0.105,0.213,25.48,1.8,11.05,1,1
16337.515,-0.876,0.111,0.208,23.59,5.86,8.61,1,1
16337.531,-0.865,0.129,0.21,21.0,10.38,6.2,1,1
16337.546,-0.88,0.143,0.217,17.85,14.47,3.48,1,1
16337.546,-0.904,0.135,0.233,14.8,17.33,2.41,1,1
16337.562,-0.913,0.145,0.244,12.51,19.84,3.57,1,1
16337.578,-0.935,0.176,0.312,9.28,20.11,4.61,1,1
16337.578,-0.939,0.175,0.349,5.58,14.44,4.43,1,1
16337.593,-0.951,0.156,0.381,3.36,8.79,4.39,1,1
16337.609,-0.957,0.153,0.406,6.47,5.07,6.07,1,1
16337.609,-0.944,0.147,0.419,15.02,1.95,8.58,1,1
16337.625,-0.931,0.143,0.396,25.54,0.03,10.04,1,1
16337.625,-0.937,0.153,0.383,33.51,-0.85,10.1,1,1
16337.64,-0.945,0.149,0.364,37.93,-3.27,8.7,1,1
16337.656,-0.95,0.164,0.341,38.12,-6.9,6.93,1,1
16337.656,-0.946,0.173,0.326,35.58,-9.98,4.43,1,1
16337.671,-0.95,0.163,0.329,32.38,-11.96,0.92,1,1
16337.687,-0.964,0.159,0.352,28.81,-13.86,-2.84,1,1
16337.687,-0.965,0.156,0.396,26.58,-15.26,-6.16,1,1
16337.703,-0.973,0.142,0.445,28.08,-14.83,-9.4,1,1
16337.718,-0.995,0.147,0.514,33.66,-13.89,-11.6,1,1
16337.718,-1.044,0.143,0.6,44.47,-15.35,-11.72,1,1
16337.734,-1.091,0.134,0.677,62.53,-21.06,-7.63,1,1
16337.734,-1.111,0.118,0.728,87.19,-31.01,0.03,1,1
16337.75,-1.122,0.122,0.765,115.02,-42.94,7.45,1,1
16337.765,-1.131,0.134,0.78,143.56,-54.48,13.89,1,1
16337.765,-1.136,0.154,0.767,171.42,-67.6,17.33,1,1
16337.781,-1.179,0.187,0.741,196.75,-81.36,18.98,1,1
16337.796,-1.168,0.21,0.69,218.51,-91.28,24.08,1,1
16337.796,-1.146,0.283,0.638,232.61,-104.5,25.45,1,1
16337.812,-1.148,0.355,0.588,242.07,-113.99,26.58,1,1
16337.828,-1.123,0.444,0.544,243.26,-117.4,31.37,1,1
16337.828,-1.117,0.503,0.546,232.12,-117.44,35.92,1,1
16337.843,-1.117,0.547,0.541,214.76,-118.99,40.07,1,1
16337.859,-1.143,0.633,0.535,197.61,-122.14,46.39,1,1
16337.859,-1.135,0.678,0.487,182.07,-128.09,56.55,1,1
16337.875,-1.109,0.719,0.474,163.34,-134.34,66.93,1,1
16337.875,-1.079,0.758,0.481,145.48,-138.1,76.33,1,1
16337.906,-1.055,0.85,0.485,118.32,-138.37,93.36,1,1
16337.921,-1.024,0.875,0.507,106.66,-135.99,100.96,1,1
16337.921,-1.028,0.912,0.503,97.54,-132.69,108.55,1,1
16337.937,-1.017,0.962,0.492,88.84,-131.41,116.67,1,1
16337.937,-0.981,0.984,0.49,79.1,-130.47,125.4,1,1
16337.953,-0.951,0.98,0.475,67.2,-127.84,133.0,1,1
16337.968,-0.92,0.979,0.459,53.59,-124.82,138.31,1,1
16337.968,-0.894,0.975,0.457,39.64,-119.91,141.24,1,1
16337.984,-0.903,0.97,0.451,27.07,-115.18,141.79,1,1
16337.984,-0.906,0.984,0.436,15.53,-112.25,143.86,1,1
16338.0,-0.904,1.037,0.415,3.91,-109.29,147.89,1,1
16338.015,-0.882,1.091,0.376,-10.71,-104.19,153.84,1,1
16338.015,-0.852,1.091,0.385,-28.14,-99.03,158.57,1,1
16338.031,-0.831,1.11,0.411,-40.99,-91.25,162.05,1,1
16338.046,-0.797,1.089,0.424,-46.45,-81.45,167.09,1,1
16338.046,-0.758,1.048,0.429,-47.46,-71.54,173.1,1,1
16338.062,-0.709,1.034,0.442,-46.54,-63.54,177.95,1,1
16338.078,-0.628,0.959,0.441,-43.03,-58.96,179.02,1,1
16338.078,-0.565,0.851,0.422,-36.99,-57.83,175.94,1,1
16338.093,-0.514,0.821,0.406,-30.09,-57.41,172.19,1,1
16338.109,-0.464,0.835,0.396,-25.3,-55.85,168.92,1,1
16338.109,-0.412,0.786,0.377,-23.22,-55.21,168.13,1,1
16338.125,-0.357,0.715,0.361,-25.36,-57.13,169.93,1,1
16338.14,-0.278,0.605,0.332,-28.57,-63.08,171.79,1,1
16338.14,-0.182,0.47,0.301,-31.07,-72.15,173.99,1,1
16338.156,-0.093,0.381,0.266,-32.75,-81.51,174.02,1,1
16338.156,-0.023,0.383,0.227,-35.1,-88.2,168.77,1,1
16338.171,0.046,0.361,0.196,-39.4,-92.59,160.74,1,1
16338.187,0.096,0.315,0.179,-46.33,-94.76,152.1,1,1
16338.187,0.139,0.272,0.172,-52.95,-95.28,144.63,1,1
16338.203,0.18,0.236,0.171,-57.37,-94.12,139.26,1,1
16338.203,0.213,0.227,0.176,-61.01,-90.46,134.01,1,1
16338.234,0.243,0.224,0.178,-67.29,-80.81,118.63,1,1
16338.25,0.248,0.273,0.186,-72.97,-75.99,107.09,1,1
16338.25,0.258,0.265,0.198,-79.01,-72.66,93.45,1,1
16338.265,0.254,0.238,0.202,-82.86,-70.59,80.84,1,1
16338.281,0.253,0.272,0.215,-84.41,-68.18,70.5,1,1
16338.281,0.264,0.305,0.229,-84.11,-64.42,62.14,1,1
16338.296,0.264,0.305,0.241,-82.67,-58.63,55.82,1,1
16338.296,0.267,0.302,0.263,-80.54,-50.94,51.48,1,1
16338.312,0.27,0.297,0.293,-69.09,-36.07,44.5,1,1
16338.328,0.266,0.277,0.317,-60.55,-29.69,40.62,1,1
16338.328,0.258,0.278,0.349,-53.19,-24.32,35.55,1,1
16338.343,0.255,0.3,0.381,-49.84,-19.04,27.92,1,1
16338.359,0.23,0.4,0.398,-53.32,-10.65,18.01,1,1
16338.359,0.214,0.447,0.421,-63.23,0.09,6.84,1,1
16338.375,0.186,0.443,0.459,-75.5,11.87,-3.42,1,1
16338.375,0.129,0.5,0.521,-87.77,24.75,-12.57,1,1
16338.406,0.048,0.515,0.642,-110.78,39.77,-21.85,1,1
16338.406,0.02,0.462,0.705,-114.6,39.89,-22.4,1,1
16338.421,0.007,0.386,0.746,-107.91,35.71,-19.81,1,1
16338.437,0.016,0.337,0.805,-93.26,27.59,-15.02,1,1
16338.437,0.013,0.331,0.837,-71.99,18.56,-11.87,1,1
16338.453,0.008,0.329,0.818,-49.2,10.62,-11.41,1,1
16338.468,0.009,0.374,0.799,-30.85,8.0,-13.79,1,1
16338.468,0.008,0.433,0.786,-19.87,9.98,-19.07,1,1
16338.484,-0.014,0.474,0.777,-15.44,15.17,-24.17,1,1
16338.484,-0.042,0.529,0.791,-16.82,23.01,-27.65,1,1
16338.5,-0.05,0.535,0.812,-21.06,29.24,-28.32,1,1
16338.515,-0.047,0.494,0.849,-25.36,32.93,-25.45,1,1
16338.531,-0.035,0.474,0.892,-27.68,34.18,-22.52,1,1
16338.531,-0.007,0.439,0.929,-25.82,31.46,-22.13,1,1
16338.546,0.004,0.392,0.927,-19.53,25.73,-22.43,1,1
16338.546,0.024,0.417,0.921,-13.98,20.17,-23.38,1,1
16338.562,0.044,0.426,0.914,-9.22,15.44,-25.45,1,1
16338.578,0.031,0.427,0.906,-5.83,13.12,-26.37,1,1
16338.578,0.03,0.471,0.904,-6.78,13.06,-26.4,1,1
16338.593,0.047,0.51,0.906,-9.09,14.65,-27.25,1,1
16338.609,0.012,0.509,0.921,-11.99,17.67,-26.12,1,1
16338.609,-0.01,0.522,0.943,-15.02,20.33,-24.6,1,1
16338.625,-0.001,0.502,0.955,-15.08,16.69,-19.87,1,1
16338.625,0.024,0.49,0.943,-9.64,11.69,-17.49,1,1
16338.64,0.042,0.458,0.911,-2.69,7.35,-15.87,1,1
16338.656,0.043,0.473,0.888,1.43,6.9,-16.97,1,1
16338.656,0.029,0.504,0.874,0.21,9.13,-20.6,1,1
16338.671,0.005,0.522,0.889,-6.53,13.46,-23.56,1,1
16338.687,-0.029,0.558,0.914,-16.05,17.67,-25.85,1,1
16338.687,-0.064,0.545,0.95,-24.66,18.95,-25.48,1,1
16338.703,-0.054,0.506,0.973,-29.02,15.69,-21.94,1,1
16338.718,-0.044,0.474,0.976,-28.23,10.25,-17.94,1,1
16338.718,-0.005,0.443,0.96,-22.98,3.97,-14.62,1,1
16338.734,0.026,0.411,0.916,-13.73,-0.49,-13.03,1,1
16338.75,0.054,0.389,0.877,-3.69,-2.01,-11.9,1,1
16338.75,0.056,0.399,0.844,5.83,-0.58,-11.9,1,1
16338.765,0.054,0.419,0.816,13.06,3.11,-12.15,1,1
16338.765,0.066,0.449,0.793,16.54,8.24,-12.82,1,1
16338.781,0.068,0.473,0.79,16.82,13.89,-13.28,1,1
16338.796,0.023,0.517,0.834,13.4,19.2,-12.76,1,1
16338.796,-0.012,0.581,0.912,5.43,18.95,-9.03,1,1
16338.812,-0.009,0.584,0.951,-4.49,12.67,-4.3,1,1
16338.828,-0.016,0.545,0.956,-11.57,5.07,-2.17,1,1
16338.828,0.0,0.514,0.982,-14.47,-1.74,-1.13,1,1
16338.843,0.032,0.498,0.975,-10.74,-6.74,0.06,1,1
16338.843,0.049,0.483,0.932,-2.35,-6.99,1.43,1,1
16338.859,0.041,0.466,0.913,5.86,-4.79,1.43,1,1
16338.875,0.057,0.513,0.921,7.29,-3.66,0.0,1,1
16338.875,0.04,0.533,0.914,8.64,-0.92,-0.55,1,1
16338.89,0.036,0.533,0.901,6.87,0.27,-0.09,1,1
16338.906,0.04,0.537,0.885,2.72,-0.58,1.62,1,1
16338.906,0.039,0.525,0.868,0.18,-1.98,2.29,1,1
16338.921,0.055,0.509,0.858,-1.62,-4.18,2.38,1,1
16338.937,0.063,0.51,0.842,-1.98,-5.95,3.23,1,1
16338.937,0.062,0.512,0.847,-2.62,-6.23,4.61,1,1
16338.953,0.074,0.489,0.835,-4.3,-6.26,5.19,1,1
16338.968,0.073,0.5,0.835,-6.38,-4.91,5.1,1,1
16338.968,0.063,0.489,0.844,-7.6,-3.11,5.52,1,1
16338.984,0.055,0.48,0.853,-10.71,-3.51,5.34,1,1
16339.0,0.056,0.464,0.851,-10.71,-4.09,6.2,1,1
16339.0,0.055,0.458,0.849,-9.49,-3.94,6.26,1,1
16339.015,0.051,0.471,0.86,-9.55,-2.87,5.34,1,1
16339.015,0.047,0.467,0.866,-8.27,-2.01,4.79,1,1
16339.031,0.044,0.473,0.864,-6.29,-1.74,4.88,1,1
16339.046,0.044,0.481,0.857,-4.15,-1.56,5.62,1,1
16339.046,0.046,0.475,0.852,-1.34,-1.59,6.5,1,1
16339.062,0.051,0.481,0.847,1.98,-1.86,7.6,1,1
16339.078,0.041,0.497,0.844,4.39,-1.16,8.82,1,1
16339.078,0.047,0.507,0.843,4.97,0.27,10.16,1,1
16339.093,0.052,0.493,0.846,4.12,1.62,11.38,1,1
16339.109,0.06,0.496,0.848,2.56,2.87,12.51,1,1
16339.109,0.057,0.515,0.857,0.76,4.46,12.27,1,1
16339.125,0.036,0.518,0.87,-0.92,5.65,12.39,1,1
16339.125,0.016,0.54,0.893,-2.01,5.43,13.98,1,1
16339.14,-0.022,0.584,0.931,-1.16,3.72,16.75,1,1
16339.156,-0.059,0.614,0.965,2.44,-0.12,21.7,1,1
16339.156,-0.084,0.639,0.969,8.27,-6.68,28.75,1,1
16339.171,-0.11,0.666,0.965,16.82,-13.64,38.39,1,1
16339.187,-0.117,0.687,0.951,29.45,-20.75,48.16,1,1
16339.187,-0.111,0.709,0.923,46.63,-26.49,56.79,1,1
16339.203,-0.111,0.731,0.875,68.33,-28.17,64.58,1,1
16339.218,-0.084,0.746,0.809,90.27,-25.03,73.73,1,1
16339.218,-0.061,0.767,0.75,106.51,-16.79,85.33,1,1
16339.234,-0.042,0.775,0.71,112.89,-6.74,97.14,1,1
16339.234,-0.029,0.754,0.678,107.76,-0.18,106.3,1,1
16339.25,-0.002,0.711,0.655,91.46,1.37,112.06,1,1
16339.265,0.048,0.667,0.635,64.94,-0.46,113.28,1,1
16339.265,0.09,0.61,0.624,34.91,-1.92,110.69,1,1
16339.281,0.148,0.544,0.63,6.71,-0.24,105.84,1,1
16339.296,0.194,0.455,0.647,-14.31,5.22,99.19,1,1
16339.312,0.215,0.382,0.687,-36.68,17.27,82.09,1,1
16339.312,0.24,0.359,0.748,-34.64,22.37,76.08,1,1
16339.312,0.248,0.32,0.79,-28.26,24.87,71.08,1,1
16339.328,0.256,0.294,0.856,-22.86,24.78,67.57,1,1
16339.343,0.264,0.294,0.887,-20.84,21.21,62.75,1,1
16339.343,0.28,0.275,0.907,-23.01,13.4,55.42,1,1
16339.359,0.302,0.278,0.917,-28.66,3.27,46.82,1,1
16339.375,0.316,0.297,0.91,-36.04,-6.93,38.12,1,1
16339.39,0.334,0.285,0.894,-42.82,-15.35,31.01,1,1
16339.39,0.356,0.281,0.876,-47.24,-19.81,24.99,1,1
16339.406,0.372,0.282,0.84,-49.29,-19.5,18.34,1,1
16339.406,0.377,0.256,0.818,-48.92,-14.07,11.9,1,1
16339.421,0.382,0.221,0.793,-45.26,-5.55,5.31,1,1
16339.437,0.394,0.199,0.787,-40.68,5.07,-1.98,1,1
16339.437,0.392,0.202,0.794,-36.53,15.66,-10.13,1,1
16339.453,0.374,0.224,0.802,-32.9,23.93,-18.56,1,1
16339.468,0.339,0.247,0.805,-31.07,29.18,-24.54,1,1
16339.468,0.303,0.29,0.824,-32.72,31.31,-28.14,1,1
16339.484,0.271,0.337,0.851,-35.89,29.82,-29.36,1,1
16339.484,0.235,0.363,0.871,-39.12,25.48,-27.77,1,1
16339.5,0.21,0.368,0.884,-43.15,19.56,-23.22,1,1
16339.515,0.224,0.373,0.893,-45.17,14.19,-18.65,1,1
16339.515,0.224,0.366,0.893,-43.43,10.9,-16.72,1,1
16339.531,0.217,0.374,0.892,-40.07,10.28,-16.21,1,1
16339.546,0.212,0.389,0.894,-35.83,11.87,-16.11,1,1
16339.562,0.205,0.424,0.895,-31.07,15.05,-15.9,1,1
16339.562,0.179,0.456,0.933,-27.41,18.92,-14.34,1,1
16339.578,0.076,0.524,1.096,-22.28,18.07,-9.61,1,1
16339.578,0.106,0.494,1.144,-13.12,6.47,2.04,1,1
16339.593,0.199,0.486,1.073,-13.73,-7.75,8.3,1,1
16339.593,0.219,0.477,1.014,-17.3,-13.73,7.75,1,1
16339.609,0.226,0.416,0.974,-13.0,-12.6,9.7,1,1
16339.625,0.258,0.4,0.927,-5.01,-9.61,12.73,1,1
16339.625,0.263,0.413,0.889,2.14,-5.65,14.37,1,1
16339.64,0.244,0.411,0.859,6.9,-1.16,17.33,1,1
16339.656,0.255,0.415,0.854,7.63,2.08,21.7,1,1
16339.656,0.258,0.415,0.856,6.23,4.76,24.63,1,1
16339.671,0.246,0.4,0.868,4.09,6.07,25.51,1,1
16339.687,0.241,0.388,0.871,3.05,6.59,26.92,1,1
16339.687,0.231,0.393,0.856,2.62,7.97,29.39,1,1
16339.703,0.238,0.383,0.855,2.44,10.04,33.54,1,1
16339.718,0.257,0.403,0.878,4.36,13.18,33.94,1,1
16339.718,0.229,0.373,0.885,6.47,15.47,31.8,1,1
16339.734,0.214,0.359,0.908,5.49,15.29,31.1,1,1
16339.734,0.217,0.36,0.917,4.91,13.49,30.46,1,1
16339.75,0.211,0.353,0.919,3.72,11.63,29.39,1,1
16339.765,0.208,0.35,0.925,2.23,10.32,28.35,1,1
16339.765,0.211,0.347,0.928,1.19,9.28,27.62,1,1
16339.781,0.212,0.34,0.933,-0.24,8.39,26.22,1,1
16339.796,0.215,0.323,0.928,-1.65,7.45,24.57,1,1
16339.796,0.222,0.312,0.923,-1.8,7.32,22.83,1,1
16339.812,0.223,0.305,0.923,-0.12,8.36,21.82,1,1
16339.828,0.216,0.313,0.924,2.08,10.1,21.55,1,1
16339.828,0.214,0.323,0.931,3.11,11.63,21.15,1,1
16339.843,0.207,0.324,0.952,2.01,11.47,19.65,1,1
16339.843,0.192,0.33,0.975,-0.52,8.82,17.33,1,1
16339.859,0.185,0.324,0.982,-3.45,4.21,14.83,1,1
16339.875,0.196,0.305,0.97,-7.11,-0.61,11.44,1,1
16339.875,0.193,0.302,0.962,-10.53,-3.78,7.42,1,1
16339.89,0.188,0.299,0.954,-12.02,-5.07,4.21,1,1
16339.906,0.184,0.293,0.942,-11.6,-4.85,3.08,1,1
16339.906,0.181,0.286,0.933,-9.25,-3.78,3.27,1,1
16339.921,0.181,0.287,0.933,-6.41,-3.6,2.59,1,1
16339.921,0.18,0.288,0.931,-3.6,-4.33,1.1,1,1
16339.937,0.176,0.288,0.924,-1.92,-5.46,-0.27,1,1
16339.953,0.179,0.297,0.905,-1.68,-6.44,-1.01,1,1
16339.953,0.191,0.302,0.903,-2.2,-6.01,-1.43,1,1
16339.968,0.194,0.297,0.907,-2.84,-5.8,-3.81,1,1
16339.984,0.193,0.301,0.906,-3.11,-6.26,-6.65,1,1
16340.0,0.189,0.312,0.909,-2.01,-6.41,-8.03,1,1
16340.0,0.186,0.337,0.915,0.18,-6.04,-8.48,1,1
16340.015,0.175,0.359,0.92,2.5,-5.49,-7.75,1,1
16340.015,0.175,0.373,0.917,4.85,-5.13,-5.43,1,1
16340.031,0.178,0.391,0.917,5.62,-4.67,-3.54,1,1
16340.046,0.164,0.397,0.917,5.22,-4.21,-2.08,1,1
16340.046,0.176,0.392,0.925,4.46,-4.39,1.31,1,1
16340.062,0.191,0.426,0.914,5.8,-4.76,3.08,1,1
16340.078,0.176,0.411,0.893,7.02,-5.74,4.88,1,1
16340.078,0.195,0.415,0.866,6.81,-6.32,9.34,1,1
16340.093,0.219,0.423,0.836,5.83,-5.71,12.51,1,1
16340.093,0.227,0.404,0.83,3.08,-4.36,12.33,1,1
16340.109,0.226,0.389,0.854,-0.79,-2.75,11.17,1,1
16340.125,0.232,0.372,0.877,-3.42,-1.62,10.56,1,1
16340.14,0.231,0.36,0.893,-5.1,-0.79,9.98,1,1
16340.14,0.241,0.349,0.911,-5.16,0.09,9.77,1,1
16340.156,0.251,0.335,0.926,-4.97,0.61,7.87,1,1
16340.156,0.245,0.332,0.937,-4.94,0.4,3.75,1,1
16340.171,0.238,0.332,0.936,-5.16,-0.24,1.04,1,1
16340.187,0.238,0.323,0.931,-5.8,-0.79,-0.31,1,1
16340.187,0.238,0.313,0.926,-7.05,-1.13,-1.59,1,1
16340.203,0.238,0.316,0.923,-8.36,-1.31,-2.62,1,1
16340.218,0.24,0.309,0.916,-8.09,-1.16,-2.96,1,1
16340.218,0.242,0.308,0.918,-6.32,-0.55,-3.3,1,1
16340.234,0.236,0.319,0.917,-3.94,0.09,-4.18,1,1
16340.234,0.233,0.332,0.917,-1.89,0.31,-4.88,1,1
16340.25,0.227,0.353,0.92,-0.85,0.61,-5.04,1,1
16340.265,0.221,0.384,0.903,-1.53,0.73,-4.3,1,1
16340.281,0.21,0.398,0.913,-5.77,1.22,-2.81,1,1
16340.296,0.2,0.402,0.913,-8.58,0.43,-1.62,1,1
16340.296,0.203,0.394,0.898,-11.66,-0.21,-0.92,1,1
16340.312,0.211,0.359,0.882,-13.92,-1.01,-0.61,1,1
16340.312,0.218,0.338,0.868,-14.37,-1.74,-0.55,1,1
16340.328,0.221,0.317,0.864,-12.82,-1.62,-0.82,1,1
16340.343,0.22,0.314,0.874,-10.28,-0.64,-0.52,1,1
16340.343,0.22,0.318,0.885,-8.03,0.15,1.13,1,1
16340.359,0.222,0.321,0.89,-6.65,2.08,2.72,1,1
16340.375,0.218,0.322,0.911,-5.71,5.49,4.21,1,1
16340.375,0.215,0.327,0.938,-6.32,8.39,6.01,1,1
16340.39,0.213,0.323,0.947,-8.09,8.79,6.59,1,1
16340.406,0.215,0.312,0.943,-10.16,7.6,5.43,1,1
16340.406,0.213,0.299,0.928,-10.96,6.5,4.0,1,1
16340.421,0.209,0.297,0.911,-10.9,5.07,2.81,1,1
16340.437,0.197,0.238,0.89,-10.77,-4.36,2.59,1,1
16340.453,0.221,0.209,0.917,-8.24,-13.49,2.23,1,1
16340.453,0.262,0.225,0.924,-4.67,-20.11,0.49,1,1
16340.468,0.24,0.281,0.98,-2.96,-21.06,0.76,1,1
16340.484,0.302,0.279,1.003,-3.81,-19.99,1.86,1,1
16340.484,0.329,0.306,1.04,-8.03,-11.81,-0.46,1,1
16340.5,0.319,0.291,1.074,-10.04,1.83,-3.27,1,1
16340.515,0.318,0.26,1.08,-9.95,15.63,-5.65,1,1
16340.515,0.322,0.239,1.053,-7.69,28.14,-9.31,1,1
16340.531,0.289,0.229,1.039,-3.02,37.84,-15.08,1,1
16340.546,0.197,0.253,1.054,7.63,39.95,-20.26,1,1
16340.546,0.109,0.276,0.958,26.25,24.32,-18.19,1,1
16340.562,0.081,0.383,0.835,39.0,2.9,-15.5,1,1
16340.578,-0.038,0.465,0.866,43.49,-15.81,-8.39,1,1
16340.578,0.014,0.432,0.956,42.63,-39.09,5.31,1,1
16340.593,0.128,0.469,0.874,34.06,-60.06,15.9,1,1
16340.609,0.204,0.352,0.814,-12.73,-73.92,22.34,1,1
16340.625,0.318,0.334,0.786,-23.8,-68.27,19.26,1,1
16340.625,0.338,0.261,0.742,-18.59,-52.28,12.3,1,1
16340.64,0.329,0.237,0.725,-8.7,-32.84,6.87,1,1
16340.656,0.313,0.245,0.737,2.5,-17.3,1.68,1,1
16340.656,0.318,0.26,0.749,9.46,-7.42,-4.82,1,1
16340.671,0.306,0.292,0.749,9.86,-0.03,-11.26,1,1
16340.671,0.285,0.313,0.758,4.58,5.77,-15.78,1,1
16340.687,0.276,0.329,0.784,-3.45,10.38,-18.01,1,1
16340.703,0.277,0.325,0.812,-10.44,14.71,-18.8,1,1
16340.718,0.277,0.316,0.829,-15.69,20.14,-19.87,1,1
16340.718,0.267,0.309,0.869,-18.46,26.37,-21.79,1,1
16340.734,0.241,0.288,0.895,-17.61,30.67,-24.78,1,1
16340.734,0.219,0.293,0.921,-13.98,32.93,-25.67,1,1
16340.75,0.203,0.318,0.927,-8.45,33.45,-24.29,1,1
16340.765,0.186,0.348,0.926,-3.51,32.99,-21.94,1,1
16340.781,0.034,0.423,1.226,11.41,14.37,-1.89,1,1
16340.796,0.216,0.399,1.083,15.2,-11.26,6.13,1,1
16340.796,0.228,0.474,0.996,2.59,-20.14,2.23,1,1
16340.812,0.248,0.359,0.975,-2.99,-18.65,-0.15,1,1
16340.828,0.264,0.325,0.935,-0.43,-13.89,0.4,1,1
16340.828,0.256,0.324,0.915,4.3,-8.76,0.09,1,1
16340.843,0.249,0.341,0.926,7.48,-5.37,-0.64,1,1
16340.843,0.232,0.346,0.922,8.0,-4.67,-0.06,1,1
16340.859,0.221,0.344,0.927,6.1,-5.86,0.27,1,1
16340.875,0.224,0.335,0.918,5.34,-7.42,1.07,1,1
16340.89,0.228,0.337,0.913,5.19,-7.72,1.92,1,1
16340.89,0.227,0.341,0.899,4.3,-7.42,1.74,1,1
16340.906,0.228,0.345,0.898,2.66,-6.2,1.07,1,1
16340.906,0.224,0.336,0.908,1.59,-4.88,0.95,1,1
16340.921,0.225,0.329,0.905,1.43,-4.67,1.5,1,1
16340.937,0.233,0.331,0.904,1.25,-4.43,1.71,1,1
16340.953,0.24,0.319,0.909,2.56,-3.63,1.4,1,1
16340.953,0.247,0.325,0.906,3.72,-3.11,1.43,1,1
16340.968,0.249,0.329,0.9,4.91,-2.29,1.25,1,1
16340.984,0.252,0.331,0.896,5.22,-1.62,1.04,1,1
16340.984,0.251,0.333,0.897,4.49,-1.34,0.52,1,1
16341.0,0.249,0.335,0.896,3.23,-1.19,0.03,1,1
16341.015,0.248,0.336,0.902,2.32,-1.28,0.52,1,1
16341.015,0.247,0.333,0.905,2.38,-1.19,1.07,1,1
16341.031,0.243,0.338,0.913,2.32,-1.37,1.34,1,1
16341.046,0.24,0.34,0.918,2.35,-2.17,1.62,1,1
16341.046,0.24,0.336,0.917,2.69,-3.17,1.68,1,1
16341.062,0.239,0.341,0.914,3.17,-4.18,1.71,1,1
16341.078,0.246,0.335,0.908,3.48,-5.13,1.22,1,1
16341.078,0.245,0.33,0.903,3.66,-5.49,0.64,1,1
16341.093,0.248,0.329,0.903,3.91,-5.25,0.15,1,1
16341.109,0.251,0.334,0.899,4.03,-4.24,-0.43,1,1
16341.125,0.248,0.333,0.905,4.39,-2.75,-1.56,1,1
16341.125,0.249,0.337,0.905,4.27,-2.44,-1.62,1,1
16341.14,0.245,0.346,0.912,4.3,-2.53,-1.74,1,1
16341.156,0.24,0.347,0.911,4.21,-2.66,-1.95,1,1
16341.156,0.241,0.347,0.906,3.48,-2.87,-2.08,1,1
16341.171,0.237,0.351,0.904,2.69,-3.14,-2.56,1,1
16341.187,0.239,0.357,0.896,2.56,-3.42,-3.17,1,1
16341.187,0.238,0.353,0.888,2.9,-3.51,-3.14,1,1
16341.203,0.239,0.362,0.888,3.42,-2.99,-3.17,1,1
16341.203,0.235,0.365,0.882,4.52,-2.23,-2.59,1,1
16341.218,0.236,0.362,0.88,4.7,-1.98,-1.83,1,1
16341.234,0.234,0.368,0.88,3.63,-1.5,-1.59,1,1
16341.234,0.231,0.361,0.882,1.68,-0.79,-1.37,1,1
16341.25,0.232,0.355,0.889,-0.76,-0.21,-1.31,1,1
16341.265,0.233,0.349,0.891,-1.92,-0.55,-1.77,1,1
16341.265,0.235,0.341,0.89,-0.43,-0.79,-2.01,1,1
16341.281,0.241,0.339,0.884,2.01,-0.49,-2.41,1,1
16341.296,0.247,0.341,0.88,3.91,0.49,-2.59,1,1
16341.296,0.24,0.365,0.892,4.73,0.85,-2.41,1,1
16341.312,0.236,0.365,0.894,4.39,0.58,-1.8,1,1
16341.328,0.235,0.374,0.903,2.72,0.12,-1.07,1,1
16341.328,0.236,0.373,0.903,0.58,-0.58,-0.43,1,1
16341.343,0.245,0.373,0.904,-1.1,-1.19,-0.12,1,1
16341.343,0.244,0.363,0.906,-2.01,-1.13,-0.21,1,1
16341.359,0.244,0.362,0.915,-1.89,-1.68,-0.49,1,1
16341.375,0.252,0.352,0.904,-0.55,-2.53,-0.52,1,1
16341.375,0.259,0.348,0.898,0.03,-2.14,-0.82,1,1
16341.39,0.257,0.351,0.898,0.64,-1.01,-1.46,1,1
16341.406,0.25,0.353,0.901,0.67,-0.18,-1.86,1,1
16341.406,0.245,0.367,0.905,-0.43,0.43,-1.68,1,1
16341.421,0.241,0.364,0.906,-2.11,0.4,-0.98,1,1
16341.437,0.243,0.353,0.906,-3.63,-0.06,-0.61,1,1
16341.437,0.248,0.341,0.897,-3.6,-0.52,-0.67,1,1
16341.453,0.252,0.335,0.885,-1.92,-0.73,-1.07,1,1
16341.468,0.251,0.337,0.876,-0.49,-0.7,-1.22,1,1
16341.468,0.25,0.35,0.875,-0.37,-0.52,-1.04,1,1
16341.484,0.248,0.361,0.887,-0.95,-0.09,-0.89,1,1
16341.484,0.242,0.369,0.9,-2.11,0.09,-0.49,1,1
16341.5,0.24,0.368,0.909,-3.05,-0.21,0.27,1,1
16341.515,0.238,0.363,0.907,-3.75,-0.58,0.73,1,1
16341.515,0.241,0.36,0.904,-4.09,-1.04,0.73,1,1
16341.531,0.242,0.354,0.896,-3.88,-1.31,0.61,1,1
16341.546,0.236,0.356,0.892,-4.49,-1.1,0.67,1,1
16341.546,0.238,0.353,0.891,-5.86,-1.16,1.07,1,1
16341.562,0.242,0.346,0.89,-7.08,-1.28,1.19,1,1
16341.562,0.243,0.331,0.891,-7.45,-1.31,0.98,1,1
16341.578,0.245,0.32,0.896,-6.41,-1.62,0.7,1,1
16341.593,0.245,0.319,0.899,-4.21,-2.32,0.06,1,1
16341.593,0.246,0.322,0.896,-2.2,-2.66,-0.24,1,1
16341.609,0.251,0.342,0.902,-1.31,-2.23,0.24,1,1
16341.625,0.248,0.349,0.903,-1.13,-1.74,0.95,1,1
16341.64,0.24,0.344,0.885,-2.35,-2.17,1.34,1,1
16341.64,0.244,0.349,0.888,-4.94,-2.08,1.59,1,1
16341.656,0.238,0.357,0.895,-7.45,-2.11,1.4,1,1
16341.656,0.237,0.349,0.896,-9.16,-2.29,1.31,1,1
16341.671,0.242,0.346,0.903,-9.89,-2.32,0.89,1,1
16341.687,0.24,0.34,0.895,-9.52,-2.38,0.49,1,1
16341.687,0.244,0.352,0.878,-10.13,-2.08,0.15,1,1
16341.703,0.241,0.363,0.889,-12.27,-0.7,0.46,1,1
16341.703,0.24,0.347,0.896,-14.83,-1.16,2.14,1,1
16341.718,0.246,0.334,0.906,-18.25,-3.39,3.45,1,1
16341.734,0.235,0.303,0.931,-18.49,-7.17,4.73,1,1
16341.734,0.267,0.284,0.933,-17.67,-9.98,4.64,1,1
16341.75,0.28,0.298,0.966,-16.3,-6.87,2.38,1,1
16341.765,0.272,0.284,0.997,-11.14,-1.56,-0.43,1,1
16341.765,0.282,0.286,1.022,-3.66,4.55,-1.92,1,1
16341.781,0.29,0.297,1.023,4.39,10.22,-3.69,1,1
16341.796,0.286,0.299,1.011,10.44,14.4,-5.89,1,1
16341.812,0.227,0.334,0.986,18.59,23.71,-9.74,1,1
16341.812,0.184,0.339,0.963,23.29,17.24,-10.01,1,1
16341.828,0.187,0.351,0.87,24.96,4.36,-11.54,1,1
16341.843,0.137,0.405,0.854,22.92,-5.92,-11.69,1,1
16341.843,0.111,0.38,0.845,22.0,-17.21,-7.54,1,1
16341.859,0.128,0.385,0.888,17.15,-30.58,-1.34,1,1
16341.875,0.183,0.373,0.883,12.27,-43.34,3.97,1,1
16341.875,0.232,0.361,0.866,4.06,-51.45,7.54,1,1
16341.89,0.265,0.313,0.864,-2.62,-54.17,8.09,1,1
16341.906,0.297,0.283,0.853,-3.88,-52.4,6.41,1,1
16341.906,0.317,0.284,0.833,-0.7,-46.6,3.81,1,1
16341.921,0.313,0.294,0.843,4.33,-39.12,1.25,1,1
16341.937,0.287,0.313,0.873,8.76,-34.03,-0.49,1,1
16341.937,0.304,0.338,0.899,11.14,-33.02,-0.76,1,1
16341.953,0.309,0.361,0.906,12.97,-32.9,-0.95,1,1
16341.968,0.298,0.349,0.886,12.76,-32.17,-0.24,1,1
16341.984,0.359,0.381,0.836,5.28,-27.89,3.3,1,1
16341.984,0.374,0.362,0.822,-0.09,-23.07,1.83,1,1
16342.0,0.389,0.343,0.793,-5.16,-15.78,-0.55,1,1
16342.015,0.41,0.335,0.761,-9.16,-5.28,-2.69,1,1
16342.031,0.424,0.3,0.751,-11.41,8.51,-6.59,1,1
16342.031,0.397,0.293,0.748,-12.79,22.0,-12.73,1,1
16342.046,0.359,0.295,0.764,-12.76,32.9,-17.06,1,1
16342.046,0.21,0.38,0.944,-9.95,39.0,-17.27,1,1
16342.062,0.198,0.349,1.143,4.36,28.29,-6.71,1,1
16342.078,0.277,0.371,1.039,10.16,5.31,-1.98,1,1
16342.078,0.3,0.44,0.984,1.59,-6.87,-2.99,1,1
16342.093,0.323,0.38,0.952,-1.34,-8.85,-3.51,1,1
16342.093,0.331,0.374,0.886,0.82,-4.61,-1.43,1,1
16342.109,0.335,0.381,0.85,1.31,2.47,-1.1,1,1
16342.125,0.315,0.379,0.855,-0.52,8.09,-3.05,1,1
16342.125,0.292,0.374,0.866,-2.41,11.57,-3.88,1,1
16342.156,0.266,0.363,0.859,-3.66,11.78,-1.8,1,1
16342.156,0.268,0.358,0.848,-4.15,10.86,-1.28,1,1
16342.171,0.261,0.342,0.839,-4.79,10.8,-1.5,1,1
16342.187,0.259,0.335,0.85,-6.26,10.74,-1.89,1,1
16342.187,0.252,0.334,0.873,-6.35,10.35,-2.62,1,1
16342.203,0.23,0.347,0.921,-4.94,8.91,-2.56,1,1
16342.203,0.217,0.35,0.952,-2.38,4.49,-1.28,1,1
16342.218,0.234,0.346,0.95,-1.19,-1.22,0.37,1,1
16342.234,0.255,0.349,0.939,-1.71,-4.76,0.43,1,1
16342.234,0.259,0.34,0.93,-1.31,-5.22,-0.34,1,1
16342.25,0.261,0.33,0.907,0.55,-2.35,-0.67,1,1
16342.265,0.267,0.338,0.892,1.13,-0.27,-0.82,1,1
16342.281,0.268,0.343,0.883,1.56,0.73,-1.22,1,1
16342.281,0.257,0.341,0.874,1.83,0.52,-1.16,1,1
16342.296,0.264,0.339,0.868,1.86,-0.27,-1.01,1,1
16342.296,0.262,0.347,0.871,1.13,-0.4,-1.04,1,1
16342.328,0.264,0.353,0.87,-0.4,0.49,-0.12,1,1
16342.328,0.285,0.355,0.867,-2.32,2.11,-0.43,1,1
16342.343,0.26,0.357,0.904,-2.32,4.15,-0.98,1,1
16342.359,0.259,0.347,0.909,-0.37,3.81,-0.27,1,1
16342.359,0.269,0.356,0.905,-0.46,2.35,0.24,1,1
16342.375,0.269,0.345,0.904,-0.43,0.89,-0.61,1,1
16342.375,0.27,0.34,0.9,0.55,0.34,-1.19,1,1
16342.39,0.269,0.342,0.895,1.8,0.21,-1.25,1,1
16342.406,0.267,0.354,0.899,1.98,0.15,-1.4,1,1
16342.406,0.256,0.365,0.909,1.68,0.18,-1.04,1,1
16342.421,0.256,0.363,0.907,1.34,-0.49,-0.18,1,1
16342.437,0.26,0.364,0.906,0.37,-0.52,0.64,1,1
16342.437,0.255,0.357,0.908,0.43,0.61,1.37,1,1
16342.453,0.249,0.35,0.906,2.04,1.71,2.29,1,1
16342.468,0.242,0.354,0.9,4.43,1.77,2.93,1,1
16342.468,0.23,0.37,0.896,7.42,0.67,3.54,1,1
16342.484,0.207,0.37,0.874,9.61,-2.38,5.58,1,1
16342.484,0.225,0.367,0.89,5.68,-8.24,7.02,1,1
16342.5,0.175,0.372,0.98,4.52,-15.53,7.75,1,1
16342.515,0.185,0.385,0.98,11.32,-24.93,15.44,1,1
16342.515,0.254,0.392,0.957,14.07,-33.05,22.98,1,1
16342.531,0.289,0.378,0.929,13.67,-37.29,23.77,1,1
16342.546,0.317,0.37,0.882,11.51,-36.99,21.91,1,1
16342.546,0.34,0.351,0.852,8.48,-33.05,18.46,1,1
16342.562,0.344,0.341,0.838,5.28,-27.92,13.95,1,1
16342.578,0.338,0.342,0.828,3.17,-23.01,10.96,1,1
16342.578,0.345,0.334,0.811,3.2,-17.73,10.19,1,1
16342.593,0.36,0.333,0.793,4.03,-11.41,10.1,1,1
16342.593,0.371,0.327,0.788,4.36,-4.85,8.33,1,1
16342.609,0.383,0.318,0.763,2.78,1.74,3.81,1,1
16342.625,0.387,0.323,0.725,-3.08,9.34,-2.32,1,1
16342.625,0.33,0.34,0.708,-11.66,18.46,-8.51,1,1
16342.64,0.207,0.372,1.013,-15.99,21.18,-7.11,1,1
16342.656,0.314,0.299,1.031,-12.12,5.98,-4.15,1,1
16342.656,0.302,0.424,0.978,-24.05,-7.02,-5.83,1,1
16342.671,0.334,0.385,0.974,-36.59,-11.14,-4.91,1,1
16342.687,0.375,0.322,0.922,-42.66,-9.46,-4.43,1,1
16342.687,0.338,0.344,0.912,-45.38,-3.6,-6.29,1,1
16342.703,0.348,0.317,0.938,-43.55,0.76,-7.39,1,1
16342.703,0.328,0.317,0.925,-39.77,2.44,-8.42,1,1
16342.718,0.314,0.3,0.9,-34.97,2.59,-7.66,1,1
16342.734,0.323,0.269,0.871,-29.42,2.81,-6.07,1,1
16342.734,0.313,0.256,0.857,-25.3,3.66,-5.43,1,1
16342.75,0.302,0.246,0.851,-22.03,3.51,-5.65,1,1
16342.765,0.301,0.235,0.857,-19.41,2.69,-5.86,1,1
16342.765,0.3,0.237,0.869,-16.82,1.77,-6.74,1,1
16342.781,0.307,0.258,0.868,-13.82,1.28,-7.63,1,1
16342.796,0.315,0.285,0.872,-10.77,2.32,-8.03,1,1
16342.796,0.304,0.305,0.89,-8.91,3.63,-7.51,1,1
16342.812,0.31,0.334,0.918,-8.36,3.78,-5.95,1,1
16342.828,0.308,0.35,0.921,-7.75,2.81,-4.79,1,1
16342.828,0.314,0.358,0.913,-8.91,0.98,-4.09,1,1
16342.843,0.317,0.355,0.909,-10.01,-0.24,-3.14,1,1
16342.859,0.323,0.319,0.891,-10.38,-1.22,-2.96,1,1
16342.859,0.334,0.3,0.877,-11.81,-1.34,-4.61,1,1
16342.875,0.334,0.274,0.878,-12.6,-0.15,-6.62,1,1
16342.89,0.34,0.248,0.884,-12.45,2.17,-8.76,1,1
16342.89,0.338,0.233,0.895,-11.63,4.67,-12.12,1,1
16342.906,0.337,0.229,0.902,-10.25,6.47,-16.02,1,1
16342.906,0.329,0.225,0.916,-8.64,7.78,-19.47,1,1
16342.921,0.318,0.225,0.929,-6.74,7.78,-21.76,1,1
16342.937,0.307,0.228,0.931,-4.7,6.16,-23.01,1,1
16342.937,0.305,0.237,0.927,-2.32,4.27,-24.08,1,1
16342.953,0.298,0.251,0.922,0.0,2.78,-24.9,1,1
16342.953,0.296,0.274,0.911,1.4,2.17,-25.79,1,1
16342.968,0.298,0.285,0.92,1.56,3.11,-26.31,1,1
16342.984,0.289,0.295,0.929,1.62,4.79,-26.09,1,1
16342.984,0.292,0.306,0.925,1.04,6.44,-25.61,1,1
16343.0,0.286,0.315,0.929,-0.85,8.21,-25.7,1,1
16343.015,0.278,0.31,0.927,-2.44,9.49,-25.7,1,1
16343.015,0.273,0.306,0.918,-3.2,10.28,-25.24,1,1
16343.031,0.262,0.298,0.912,-4.09,10.44,-23.56,1,1
16343.046,0.262,0.306,0.904,-5.34,10.38,-21.61,1,1
16343.062,0.251,0.302,0.899,-6.84,10.47,-20.39,1,1
16343.062,0.245,0.295,0.928,-8.0,9.37,-18.52,1,1
16343.078,0.246,0.307,0.935,-5.22,7.78,-15.84,1,1
16343.078,0.245,0.309,0.927,-1.95,7.26,-13.37,1,1
16343.093,0.247,0.308,0.935,-1.07,7.6,-11.9,1,1
16343.093,0.245,0.308,0.931,-1.31,7.75,-11.96,1,1
16343.109,0.246,0.315,0.923,-3.97,8.33,-12.88,1,1
16343.125,0.232,0.317,0.929,-8.06,8.79,-12.91,1,1
16343.125,0.231,0.301,0.911,-10.32,8.42,-11.87,1,1
16343.14,0.237,0.271,0.903,-10.86,9.0,-11.63,1,1
16343.156,0.228,0.265,0.91,-10.28,10.59,-12.45,1,1
16343.156,0.222,0.269,0.908,-9.16,11.75,-12.57,1,1
16343.171,0.212,0.266,0.911,-8.48,12.79,-11.75,1,1
16343.187,0.204,0.282,0.939,-8.18,13.09,-9.61,1,1
16343.187,0.207,0.278,0.941,-6.41,12.27,-7.17,1,1
16343.203,0.219,0.27,0.936,-5.8,11.29,-6.71,1,1
16343.218,0.211,0.269,0.953,-5.95,9.92,-7.75,1,1
16343.218,0.209,0.283,0.954,-4.76,7.97,-7.54,1,1
16343.234,0.206,0.281,0.949,-1.56,4.43,-4.43,1,1
16343.234,0.209,0.293,0.936,0.43,4.46,-3.51,1,1
16343.25,0.215,0.297,0.916,2.11,5.68,-3.39,1,1
16343.265,0.197,0.304,0.91,2.01,5.62,-2.29,1,1
16343.265,0.191,0.302,0.901,0.09,4.88,0.24,1,1
16343.281,0.191,0.278,0.907,-2.32,4.15,2.2,1,1
16343.296,0.201,0.25,0.906,-5.71,2.2,3.02,1,1
16343.296,0.215,0.234,0.908,-9.64,1.04,1.89,1,1
16343.312,0.215,0.23,0.94,-11.6,1.92,1.04,1,1
16343.328,0.215,0.231,0.963,-10.01,1.83,1.22,1,1
16343.328,0.218,0.238,0.981,-7.17,1.19,1.98,1,1
16343.343,0.215,0.245,0.984,-3.75,0.58,2.41,1,1
16343.359,0.223,0.25,0.969,-1.31,0.0,2.66,1,1
16343.359,0.222,0.26,0.971,0.34,0.09,2.62,1,1
16343.375,0.213,0.262,0.96,2.44,-0.82,2.81,1,1
16343.375,0.227,0.256,0.939,3.57,-2.75,2.2,1,1
16343.39,0.223,0.261,0.921,4.18,-3.69,0.89,1,1
16343.406,0.213,0.269,0.916,5.49,-3.51,0.55,1,1
16343.406,0.21,0.287,0.919,6.26,-3.08,0.46,1,1
16343.421,0.194,0.296,0.933,5.4,-2.72,0.03,1,1
16343.437,0.196,0.306,0.944,4.06,-2.78,0.79,1,1
16343.437,0.198,0.3,0.941,2.66,-2.87,2.2,1,1
16343.453,0.201,0.279,0.944,1.01,-3.3,2.53,1,1
16343.453,0.206,0.269,0.946,0.73,-3.66,2.47,1,1
16343.468,0.206,0.274,0.932,1.1,-3.27,2.2,1,1
16343.484,0.197,0.281,0.942,0.24,-2.38,1.77,1,1
16343.484,0.181,0.283,0.965,-0.46,-3.39,0.58,1,1
16343.5,0.181,0.292,0.963,0.03,-5.52,0.09,1,1
16343.515,0.188,0.273,0.924,2.69,-4.52,-0.09,1,1
16343.531,0.193,0.272,0.92,4.39,-2.17,-0.21,1,1
16343.546,0.178,0.266,0.922,6.84,-1.25,-0.52,1,1
16343.546,0.182,0.276,0.903,8.24,-1.59,-0.06,1,1
16343.562,0.18,0.276,0.903,7.9,-1.19,0.21,1,1
16343.578,0.182,0.274,0.921,7.57,-1.16,0.4,1,1
16343.578,0.187,0.281,0.935,7.87,-2.26,0.4,1,1
16343.593,0.184,0.281,0.92,8.64,-4.67,-0.34,1,1
16343.593,0.203,0.284,0.894,9.22,-6.26,-0.76,1,1
16343.609,0.204,0.288,0.896,10.04,-5.95,-0.89,1,1
16343.625,0.207,0.291,0.895,11.38,-6.38,-0.37,1,1
16343.625,0.209,0.307,0.902,11.14,-8.09,-0.03,1,1
16343.64,0.219,0.306,0.902,10.56,-9.46,0.64,1,1
16343.656,0.23,0.307,0.92,9.7,-9.13,0.61,1,1
16343.656,0.229,0.305,0.93,9.13,-8.82,0.18,1,1
16343.671,0.242,0.311,0.922,8.27,-8.79,0.49,1,1
16343.687,0.25,0.309,0.926,5.16,-8.64,0.55,1,1
16343.703,0.261,0.308,0.93,3.75,-8.27,0.52,1,1
16343.703,0.256,0.295,0.932,3.23,-8.21,-0.31,1,1
16343.734,0.264,0.299,0.937,2.75,-7.72,-0.76,1,1
16343.734,0.262,0.297,0.942,3.36,-6.26,-0.61,1,1
16343.734,0.259,0.308,0.949,4.24,-4.43,-0.37,1,1
16343.75,0.244,0.31,0.957,5.22,-3.05,-0.4,1,1
16343.765,0.243,0.321,0.939,4.91,-2.35,-0.49,1,1
16343.765,0.235,0.314,0.936,4.27,-1.13,0.03,1,1
16343.781,0.234,0.308,0.918,5.01,-0.06,0.58,1,1
16343.796,0.235,0.31,0.907,4.61,0.67,0.67,1,1
16343.796,0.236,0.312,0.917,3.51,1.25,0.55,1,1
16343.812,0.238,0.321,0.923,3.33,2.26,0.64,1,1
16343.812,0.238,0.332,0.928,3.85,3.57,0.92,1,1
16343.828,0.234,0.346,0.934,4.06,5.52,1.22,1,1
16343.843,0.23,0.36,0.932,3.2,8.64,2.32,1,1
16343.859,0.237,0.355,0.902,-1.95,17.37,7.57,1,1
16343.875,0.246,0.347,0.903,-2.38,21.27,10.13,1,1
16343.875,0.246,0.339,0.898,0.76,25.09,13.52,1,1
16343.89,0.229,0.319,0.887,6.07,28.66,17.37,1,1
16343.906,0.209,0.269,0.877,10.86,32.53,20.51,1,1
16343.921,0.177,0.244,0.89,8.85,32.32,19.26,1,1
16343.921,0.142,0.215,0.941,6.13,27.71,14.04,1,1
16343.937,0.115,0.212,0.95,8.0,21.94,12.67,1,1
16343.937,0.074,0.233,0.979,11.44,15.08,13.49,1,1
16343.953,0.031,0.218,1.001,18.4,3.75,14.34,1,1
16343.968,0.013,0.243,1.042,26.49,-13.0,14.68,1,1
16343.968,-0.001,0.302,1.097,35.92,-33.88,16.17,1,1
16343.984,0.056,0.36,1.063,44.5,-56.12,21.85,1,1
16344.0,0.15,0.418,0.954,43.0,-72.51,27.04,1,1
16344.0,0.241,0.417,0.884,32.5,-76.45,28.41,1,1
16344.015,0.312,0.39,0.835,22.77,-69.06,26.73,1,1
16344.031,0.355,0.375,0.852,12.63,-42.24,20.84,1,1
16344.046,0.328,0.376,0.886,13.34,-33.69,18.13,1,1
16344.046,0.302,0.378,0.94,15.44,-32.26,16.17,1,1
16344.062,0.289,0.365,0.973,19.71,-36.23,15.93,1,1
16344.078,0.263,0.386,0.938,23.35,-42.18,18.49,1,1
16344.078,0.285,0.407,0.911,23.71,-48.71,23.83,1,1
16344.093,0.317,0.413,0.871,21.42,-54.69,26.83,1,1
16344.093,0.347,0.401,0.813,15.08,-56.79,27.25,1,1
16344.109,0.389,0.383,0.769,5.62,-53.56,26.46,1,1
16344.125,0.431,0.372,0.757,-2.35,-44.47,24.75,1,1
16344.125,0.447,0.348,0.753,-6.9,-31.92,23.1,1,1
16344.14,0.435,0.314,0.745,-8.94,-19.84,20.05,1,1
16344.156,0.426,0.274,0.741,-8.48,-10.01,15.47,1,1
16344.156,0.424,0.258,0.738,-6.41,-1.86,10.16,1,1
16344.171,0.42,0.244,0.735,-4.15,5.62,4.58,1,1
16344.187,0.415,0.239,0.734,-2.72,13.25,-0.89,1,1
16344.203,0.385,0.262,0.75,-6.53,24.9,-9.58,1,1
16344.203,0.374,0.264,0.79,-15.26,28.84,-15.66,1,1
16344.218,0.359,0.27,0.806,-17.12,29.42,-15.56,1,1
16344.234,0.329,0.278,0.83,-17.06,27.99,-14.44,1,1
16344.234,0.31,0.264,0.858,-15.93,23.9,-13.61,1,1
16344.25,0.119,0.311,1.286,-3.75,7.9,-6.38,1,1
16344.265,0.378,0.32,1.082,13.82,-20.08,2.17,1,1
16344.281,0.427,0.507,0.933,5.34,-22.95,-1.46,1,1
16344.281,0.399,0.368,0.941,-1.37,-12.76,-6.01,1,1
16344.296,0.376,0.361,0.934,-3.17,-5.49,-6.26,1,1
16344.296,0.362,0.405,0.889,-3.42,-2.35,-6.62,1,1
16344.312,0.348,0.374,0.882,-8.12,-2.41,-6.62,1,1
16344.312,0.336,0.336,0.867,-10.04,-3.66,-5.98,1,1
16344.328,0.339,0.326,0.831,-6.99,-3.78,-4.7,1,1
16344.343,0.334,0.321,0.817,-2.84,-2.69,-4.21,1,1
16344.343,0.329,0.327,0.821,-0.46,-1.74,-3.91,1,1
16344.375,0.321,0.344,0.851,0.52,-0.52,-1.92,1,1
16344.375,0.313,0.355,0.878,-0.27,-0.89,-0.82,1,1
16344.39,0.317,0.362,0.889,-0.61,-1.59,0.43,1,1
16344.406,0.326,0.364,0.889,-0.79,-1.86,1.28,1,1
16344.406,0.328,0.365,0.887,-0.92,-1.65,1.13,1,1
16344.421,0.327,0.369,0.875,-1.19,-1.16,0.79,1,1
16344.437,0.329,0.365,0.866,-1.92,-0.24,0.76,1,1
16344.437,0.329,0.353,0.862,-3.36,0.76,0.61,1,1
16344.453,0.325,0.338,0.864,-4.46,1.31,0.55,1,1
16344.453,0.324,0.328,0.874,-4.39,1.22,1.04,1,1
16344.468,0.329,0.319,0.882,-2.53,0.79,1.28,1,1
16344.484,0.328,0.311,0.879,0.06,0.52,0.79,1,1
16344.484,0.329,0.317,0.871,1.71,0.0,-0.37,1,1
16344.5,0.326,0.327,0.869,2.38,-0.24,-1.53,1,1
16344.515,0.322,0.334,0.872,2.32,-0.21,-1.98,1,1
16344.515,0.324,0.337,0.872,1.71,-0.09,-1.65,1,1
16344.531,0.325,0.34,0.881,0.79,-0.09,-1.46,1,1
16344.546,0.319,0.338,0.89,0.12,-0.34,-1.37,1,1
16344.546,0.326,0.345,0.899,-0.24,-0.67,-1.16,1,1
16344.562,0.321,0.356,0.906,-0.73,-0.89,-2.01,1,1
16344.578,0.315,0.374,0.916,-1.74,-1.31,-2.01,1,1
16344.578,0.318,0.378,0.912,-2.56,-1.46,-0.98,1,1
16344.593,0.316,0.359,0.892,-2.78,-1.13,-0.37,1,1
16344.593,0.316,0.338,0.879,-2.04,-0.58,-0.09,1,1
16344.609,0.309,0.328,0.875,-0.79,-0.15,0.06,1,1
16344.625,0.307,0.319,0.867,-0.18,-0.4,0.34,1,1
16344.625,0.306,0.318,0.862,-0.73,-0.85,0.73,1,1
16344.64,0.306,0.317,0.873,-1.53,-1.04,0.76,1,1
16344.656,0.311,0.321,0.879,-1.98,-1.22,0.73,1,1
16344.656,0.311,0.331,0.89,-2.44,-0.89,0.82,1,1
16344.671,0.312,0.337,0.895,-1.62,-0.31,1.19,1,1
16344.687,0.311,0.336,0.89,-0.7,0.15,1.71,1,1
16344.687,0.313,0.329,0.885,-0.31,0.27,1.62,1,1
16344.703,0.312,0.332,0.887,-0.37,-0.03,1.5,1,1
16344.718,0.316,0.338,0.881,-0.34,-0.67,1.74,1,1
16344.718,0.317,0.338,0.878,-0.89,-0.55,2.47,1,1
16344.734,0.319,0.332,0.876,-1.4,-0.31,3.17,1,1
16344.734,0.327,0.323,0.876,-2.14,-0.49,3.45,1,1
16344.75,0.333,0.32,0.88,-2.96,-1.19,2.44,1,1
16344.765,0.333,0.326,0.879,-2.72,-1.68,1.37,1,1
16344.765,0.331,0.33,0.882,-2.62,-1.95,1.13,1,1
16344.781,0.332,0.331,0.882,-3.05,-2.35,0.73,1,1
16344.796,0.333,0.33,0.882,-3.39,-2.38,0.21,1,1
16344.796,0.329,0.321,0.881,-2.96,-2.11,-0.52,1,1
16344.812,0.326,0.318,0.882,-2.38,-1.95,-1.13,1,1
16344.828,0.337,0.321,0.884,-1.92,-1.77,-1.28,1,1
16344.828,0.339,0.324,0.884,-1.07,-0.89,-1.53,1,1
16344.843,0.336,0.321,0.888,-0.12,-0.03,-1.74,1,1
16344.843,0.326,0.325,0.89,0.15,-0.18,-2.08,1,1
16344.859,0.325,0.333,0.883,-0.15,-1.01,-2.2,1,1
16344.875,0.36,0.319,0.775,-2.47,0.15,-2.14,1,1
16344.875,0.329,0.357,0.883,-8.88,5.65,-3.23,1,1
16344.89,0.297,0.323,0.904,-5.68,5.37,-1.89,1,1
16344.906,0.309,0.337,0.904,-7.11,2.17,-0.85,1,1
16344.906,0.306,0.328,0.924,-6.93,0.24,-1.25,1,1
16344.921,0.304,0.324,0.916,-4.06,-1.25,-0.27,1,1
16344.937,0.31,0.324,0.903,-2.32,-2.75,0.61,1,1
16344.937,0.317,0.319,0.893,-2.11,-3.57,0.76,1,1
16344.953,0.324,0.315,0.888,-2.08,-3.14,0.67,1,1
16344.953,0.326,0.308,0.888,-1.71,-2.38,1.04,1,1
16344.968,0.326,0.31,0.882,-0.95,-1.95,1.19,1,1
16344.984,0.331,0.32,0.875,-0.82,-1.92,1.13,1,1
16344.984,0.335,0.326,0.876,-0.95,-1.65,1.13,1,1
16345.0,0.334,0.332,0.876,-1.19,-1.22,0.89,1,1
16345.015,0.335,0.333,0.876,-1.77,-0.67,0.98,1,1
16345.015,0.337,0.321,0.879,-2.35,-0.06,0.85,1,1
16345.031,0.33,0.315,0.886,-2.99,0.03,0.49,1,1
16345.046,0.326,0.312,0.896,-2.41,-0.43,-0.03,1,1
16345.046,0.321,0.323,0.891,-0.09,-0.64,0.43,1,1
16345.062,0.321,0.33,0.886,0.89,-0.85,0.58,1,1
16345.078,0.312,0.33,0.895,-0.37,-1.59,0.09,1,1
16345.078,0.315,0.323,0.89,-1.34,-2.29,0.55,1,1
16345.093,0.319,0.312,0.884,-1.68,-2.11,1.19,1,1
16345.093,0.32,0.3,0.882,-1.4,-1.83,1.19,1,1
16345.109,0.318,0.302,0.89,-1.74,-1.86,0.64,1,1
16345.125,0.317,0.303,0.896,-2.53,-2.41,0.58,1,1
16345.125,0.323,0.304,0.889,-2.5,-2.93,0.85,1,1
16345.14,0.325,0.308,0.882,-2.17,-2.87,0.98,1,1
16345.156,0.324,0.318,0.882,-1.86,-2.72,1.1,1,1
16345.156,0.329,0.329,0.886,-1.98,-2.66,1.53,1,1
16345.171,0.337,0.332,0.885,-2.41,-2.26,1.89,1,1
16345.171,0.336,0.325,0.887,-2.66,-1.19,2.08,1,1
16345.187,0.33,0.314,0.901,-2.69,-0.46,2.17,1,1
16345.203,0.335,0.295,0.904,1.19,0.92,1.53,1,1
16345.203,0.329,0.284,0.904,5.92,2.66,1.59,1,1
16345.234,0.274,0.314,0.912,13.09,-0.82,2.41,1,1
16345.234,0.241,0.335,0.923,15.47,-7.29,4.18,1,1
16345.25,0.234,0.34,0.889,15.72,-16.21,8.09,1,1
16345.265,0.28,0.342,1.046,12.27,-27.13,12.51,1,1
16345.281,0.306,0.326,0.959,18.43,-38.24,14.95,1,1
16345.281,0.35,0.315,0.9,22.92,-40.77,18.86,1,1
16345.296,0.406,0.258,0.897,29.11,-37.42,19.01,1,1
16345.296,0.42,0.288,0.855,33.48,-32.11,14.68,1,1
16345.312,0.403,0.296,0.814,34.18,-25.33,10.62,1,1
16345.328,0.405,0.301,0.809,30.24,-19.53,8.51,1,1
16345.328,0.404,0.331,0.788,27.92,-14.65,7.23,1,1
16345.343,0.421,0.354,0.777,23.62,-9.89,5.65,1,1
16345.343,0.42,0.368,0.779,16.08,-5.19,2.14,1,1
16345.359,0.413,0.366,0.795,8.55,-0.58,-0.24,1,1
16345.375,0.401,0.367,0.814,4.43,3.91,-0.92,1,1
16345.39,0.392,0.379,0.836,3.51,7.11,-0.34,1,1
16345.406,0.381,0.39,0.855,6.93,11.63,1.34,1,1
16345.406,0.377,0.392,0.855,9.03,13.15,2.11,1,1
16345.421,0.371,0.372,0.851,8.51,13.86,1.68,1,1
16345.437,0.367,0.354,0.851,7.17,14.16,0.89,1,1
16345.437,0.364,0.352,0.846,6.47,15.05,0.52,1,1
16345.453,0.36,0.347,0.839,6.29,16.63,0.55,1,1
16345.453,0.359,0.353,0.837,5.46,18.1,0.55,1,1
16345.468,0.362,0.368,0.838,4.15,19.71,0.12,1,1
16345.484,0.36,0.374,0.834,2.41,21.82,-0.64,1,1
16345.484,0.359,0.367,0.828,0.03,24.48,-1.28,1,1
16345.5,0.361,0.371,0.823,-1.95,28.53,-0.98,1,1
16345.515,0.354,0.372,0.824,-4.24,33.2,-1.43,1,1
16345.515,0.34,0.357,0.838,-7.42,36.74,-2.96,1,1
16345.531,0.344,0.346,0.847,-10.5,39.03,-5.22,1,1
16345.546,0.338,0.337,0.846,-12.7,41.08,-9.16,1,1
16345.546,0.322,0.333,0.856,-14.53,43.12,-13.18,1,1
16345.562,0.26,0.348,0.887,-14.13,42.6,-17.7,1,1
16345.578,0.236,0.36,0.91,-14.01,38.33,-16.36,1,1
16345.593,0.228,0.357,0.918,-11.54,33.08,-12.94,1,1
16345.593,0.212,0.374,0.911,-8.45,28.38,-8.64,1,1
16345.609,0.171,0.385,0.983,-5.43,22.8,-2.75,1,1
16345.625,0.232,0.362,1.004,-1.8,11.51,2.72,1,1
16345.625,0.253,0.363,0.948,-0.92,2.17,3.36,1,1
16345.64,0.278,0.324,0.92,0.73,-1.31,2.44,1,1
16345.656,0.281,0.303,0.898,4.21,-1.16,1.04,1,1
16345.656,0.28,0.308,0.886,6.84,0.15,-0.09,1,1
16345.671,0.273,0.319,0.889,7.75,0.4,-1.37,1,1
16345.671,0.266,0.333,0.897,7.54,-0.92,-2.17,1,1
16345.687,0.275,0.344,0.889,6.78,-2.96,-2.17,1,1
16345.703,0.28,0.358,0.881,5.92,-4.12,-2.01,1,1
16345.703,0.288,0.366,0.873,5.55,-4.21,-1.8,1,1
16345.718,0.285,0.375,0.862,4.7,-3.51,-1.92,1,1
16345.734,0.283,0.385,0.861,3.08,-2.47,-1.56,1,1
16345.734,0.282,0.398,0.866,2.2,-1.28,-0.27,1,1
16345.75,0.278,0.395,0.87,1.43,-1.13,1.04,1,1
16345.765,0.276,0.391,0.871,0.06,-1.98,1.65,1,1
16345.765,0.278,0.379,0.879,-2.17,-3.2,1.22,1,1
16345.781,0.276,0.36,0.881,-3.78,-4.24,0.98,1,1
16345.796,0.275,0.342,0.885,-4.67,-5.13,1.34,1,1
16345.796,0.279,0.337,0.893,-5.04,-6.01,1.16,1,1
16345.812,0.282,0.339,0.896,-4.39,-6.87,0.49,1,1
16345.828,0.277,0.342,0.896,-3.42,-7.23,-0.27,1,1
16345.828,0.276,0.348,0.895,-2.35,-7.23,-0.06,1,1
16345.843,0.28,0.36,0.896,-1.59,-6.71,0.27,1,1
16345.843,0.279,0.358,0.889,-1.16,-6.38,-0.09,1,1
16345.859,0.278,0.365,0.876,-1.43,-6.1,-0.4,1,1
16345.875,0.277,0.376,0.872,-2.56,-5.52,0.12,1,1
16345.89,0.273,0.378,0.875,-4.15,-4.79,0.76,1,1
16345.89,0.271,0.368,0.876,-6.07,-4.46,1.28,1,1
16345.906,0.273,0.366,0.876,-8.21,-4.03,1.86,1,1
16345.906,0.267,0.358,0.886,-10.1,-3.85,1.89,1,1
16345.921,0.268,0.344,0.912,-12.12,-4.97,1.98,1,1
16345.937,0.278,0.336,0.913,-13.34,-6.9,1.5,1,1
16345.937,0.283,0.357,0.904,-13.55,-7.87,0.89,1,1
16345.953,0.305,0.352,0.928,-13.28,-6.56,0.98,1,1
16345.953,0.299,0.339,0.94,-13.0,-4.49,0.52,1,1
16345.968,0.297,0.296,0.908,-12.18,-6.23,-2.29,1,1
16345.984,0.328,0.27,0.906,-16.33,-9.06,-9.31,1,1
16345.984,0.315,0.276,0.904,-22.89,-10.86,-17.33,1,1
16346.0,0.318,0.313,0.888,-23.96,-11.17,-20.63,1,1
16346.015,0.323,0.365,0.86,-20.51,-8.64,-18.86,1,1
16346.015,0.313,0.397,0.854,-16.94,-3.17,-13.06,1,1
16346.031,0.312,0.381,0.88,-16.97,2.5,-5.52,1,1
16346.046,0.31,0.344,0.914,-19.93,7.35,-0.73,1,1
16346.062,0.306,0.284,0.909,-20.75,11.9,1.53,1,1
16346.062,0.317,0.241,0.911,-17.27,18.34,2.78,1,1
16346.078,0.313,0.227,0.941,-5.83,23.56,2.41,1,1
16346.078,0.299,0.224,0.901,11.29,23.56,0.49,1,1
16346.093,0.294,0.305,0.862,20.11,23.68,-0.76,1,1
16346.109,0.257,0.408,0.877,15.14,24.63,-0.43,1,1
16346.109,0.205,0.458,0.908,-0.27,19.87,1.83,1,1
16346.125,0.183,0.449,0.89,-19.32,8.79,4.0,1,1
16346.125,0.175,0.422,0.894,-36.74,-2.41,4.39,1,1
16346.14,0.158,0.376,0.899,-41.23,-13.31,2.99,1,1
16346.156,0.181,0.373,0.859,-37.42,-22.37,2.38,1,1
16346.156,0.214,0.373,0.865,-35.37,-23.32,2.87,1,1
16346.171,0.226,0.331,0.919,-34.09,-17.58,5.46,1,1
16346.187,0.268,0.216,0.944,-34.82,-1.71,15.11,1,1
16346.187,0.318,0.098,0.973,-30.85,6.87,13.15,1,1
16346.203,0.345,-0.011,1.003,-17.7,11.96,7.87,1,1
16346.203,0.358,-0.032,0.996,1.43,15.41,2.14,1,1
16346.218,0.309,0.1,0.973,21.49,17.67,-1.22,1,1
16346.234,0.279,0.196,0.95,38.97,16.85,-2.04,1,1
16346.234,0.252,0.298,0.948,50.26,12.42,-1.8,1,1
16346.25,0.213,0.359,0.898,55.91,4.3,-1.5,1,1
16346.265,0.234,0.425,0.794,52.31,-2.99,-1.19,1,1
16346.265,0.218,0.468,0.732,41.23,-3.51,0.43,1,1
16346.281,0.22,0.491,0.711,25.88,2.08,5.07,1,1
16346.296,0.223,0.48,0.755,8.91,9.98,11.23,1,1
16346.296,0.204,0.417,0.793,-7.48,12.63,14.89,1,1
16346.312,0.212,0.359,0.851,-19.38,9.95,17.52,1,1
16346.312,0.231,0.322,0.932,-23.13,6.04,19.04,1,1
16346.328,0.235,0.327,1.011,-23.74,-0.12,18.43,1,1
16346.343,0.257,0.312,1.035,-23.1,-9.0,15.9,1,1
16346.359,0.298,0.276,1.012,-21.49,-14.92,12.79,1,1
16346.359,0.323,0.236,0.999,-16.66,-15.35,9.34,1,1
16346.375,0.332,0.202,0.985,-6.32,-13.18,5.71,1,1
16346.375,0.331,0.202,0.971,4.85,-10.56,2.11,1,1
16346.39,0.315,0.215,0.961,13.21,-8.36,-1.46,1,1
16346.406,0.301,0.239,0.944,17.79,-7.97,-3.45,1,1
16346.406,0.292,0.265,0.926,19.75,-8.06,-3.78,1,1
16346.421,0.283,0.291,0.907,19.38,-8.27,-3.42,1,1
16346.437,0.27,0.314,0.893,17.21,-8.82,-2.53,1,1
16346.437,0.266,0.321,0.892,13.76,-9.95,-1.37,1,1
16346.453,0.263,0.32,0.887,10.56,-11.47,-0.06,1,1
16346.468,0.275,0.316,0.886,8.21,-12.6,1.01,1,1
16346.468,0.276,0.323,0.884,6.93,-12.88,1.71,1,1
16346.484,0.279,0.324,0.89,6.23,-12.67,2.75,1,1
16346.484,0.285,0.326,0.899,6.16,-12.05,3.57,1,1
16346.5,0.284,0.324,0.909,6.2,-11.2,3.63,1,1
16346.515,0.285,0.311,0.918,7.32,-10.35,3.69,1,1
16346.531,0.283,0.304,0.925,9.8,-9.83,4.09,1,1
16346.531,0.289,0.303,0.928,12.45,-9.46,4.79,1,1
16346.546,0.297,0.291,0.923,14.1,-9.34,4.85,1,1
16346.546,0.302,0.28,0.908,15.75,-9.09,4.03,1,1
16346.562,0.305,0.284,0.898,17.64,-8.64,2.59,1,1
16346.578,0.3,0.293,0.884,18.04,-8.76,0.95,1,1
16346.578,0.299,0.309,0.876,17.03,-9.74,-0.64,1,1
16346.593,0.298,0.332,0.876,14.56,-10.99,-1.31,1,1
16346.593,0.296,0.35,0.882,11.57,-11.75,-0.89,1,1
16346.609,0.296,0.347,0.883,8.73,-12.3,0.85,1,1
16346.625,0.302,0.341,0.879,6.47,-12.18,2.78,1,1
16346.64,0.308,0.34,0.876,5.34,-11.41,4.24,1,1
16346.64,0.316,0.334,0.886,4.91,-10.56,5.01,1,1
16346.656,0.311,0.321,0.898,5.04,-10.25,4.73,1,1
16346.656,0.318,0.315,0.905,5.95,-10.74,4.7,1,1
16346.671,0.322,0.324,0.911,6.96,-11.17,4.58,1,1
16346.687,0.322,0.327,0.913,8.85,-12.27,4.27,1,1
16346.687,0.326,0.33,0.896,10.53,-13.4,4.18,1,1
16346.703,0.335,0.328,0.88,11.87,-14.1,4.36,1,1
16346.703,0.341,0.328,0.863,12.7,-13.89,3.81,1,1
16346.718,0.343,0.33,0.855,12.21,-12.79,2.66,1,1
16346.734,0.345,0.346,0.854,10.9,-11.6,1.5,1,1
16346.75,0.343,0.347,0.851,8.73,-10.77,0.92,1,1
16346.75,0.344,0.352,0.846,6.16,-9.92,0.7,1,1
16346.765,0.34,0.363,0.85,4.0,-8.39,1.22,1,1
16346.765,0.341,0.369,0.863,2.66,-6.5,2.56,1,1
16346.781,0.335,0.363,0.875,2.35,-5.13,4.36,1,1
16346.796,0.332,0.353,0.884,3.23,-4.82,5.83,1,1
16346.796,0.329,0.35,0.894,4.36,-5.52,7.2,1,1
16346.812,0.334,0.35,0.893,5.43,-7.17,8.45,1,1
16346.828,0.341,0.34,0.869,7.32,-8.61,8.67,1,1
16346.828,0.346,0.343,0.85,9.22,-8.09,9.03,1,1
16346.843,0.344,0.354,0.85,8.88,-6.62,9.64,1,1
16346.843,0.344,0.359,0.864,7.17,-5.62,10.44,1,1
16346.859,0.346,0.357,0.866,6.2,-5.1,10.86,1,1
16346.875,0.34,0.344,0.86,6.44,-4.52,11.51,1,1
16346.875,0.342,0.332,0.87,6.84,-4.15,12.57,1,1
16346.89,0.345,0.33,0.881,7.54,-4.64,13.43,1,1
16346.906,0.35,0.322,0.873,10.32,-5.4,13.7,1,1
16346.906,0.357,0.332,0.863,13.64,-5.22,14.16,1,1
16346.921,0.359,0.355,0.874,13.76,-4.73,14.13,1,1
16346.937,0.371,0.358,0.868,13.21,-4.94,13.03,1,1
16346.937,0.377,0.352,0.852,13.92,-3.85,11.17,1,1
16346.953,0.378,0.36,0.862,13.76,-1.92,10.19,1,1
16346.953,0.381,0.368,0.875,11.63,-1.5,9.25,1,1
16346.968,0.386,0.342,0.865,10.68,-2.01,7.23,1,1
16346.984,0.386,0.314,0.842,11.75,-1.68,3.91,1,1
16346.984,0.372,0.329,0.829,11.54,-2.41,0.55,1,1
16347.0,0.351,0.365,0.834,8.76,-5.55,-2.56,1,1
16347.015,0.322,0.382,0.839,5.89,-11.41,-4.06,1,1
16347.015,0.328,0.372,0.857,1.25,-20.97,-4.73,1,1
16347.031,0.396,0.373,0.849,-2.96,-29.91,-7.32,1,1
16347.046,0.427,0.387,0.808,-6.23,-30.7,-10.62,1,1
16347.046,0.43,0.366,0.784,-8.64,-25.21,-13.34,1,1
16347.062,0.431,0.356,0.78,-9.13,-16.42,-14.95,1,1
16347.078,0.425,0.378,0.796,-9.22,-7.02,-15.53,1,1
16347.078,0.4,0.414,0.814,-10.04,1.65,-14.86,1,1
16347.093,0.365,0.421,0.827,-11.47,7.51,-12.09,1,1
16347.109,0.351,0.392,0.835,-14.01,9.58,-9.4,1,1
16347.109,0.349,0.377,0.85,-16.72,9.13,-8.24,1,1
16347.125,0.352,0.368,0.868,-18.92,7.11,-8.0,1,1
16347.125,0.359,0.343,0.877,-19.87,4.33,-7.48,1,1
16347.14,0.376,0.327,0.866,-19.53,1.95,-7.81,1,1
16347.156,0.388,0.323,0.853,-18.49,1.8,-9.95,1,1
16347.156,0.38,0.327,0.856,-14.25,6.59,-11.32,1,1
16347.171,0.361,0.348,0.857,-11.38,9.8,-7.72,1,1
16347.187,0.32,0.375,0.873,-7.78,9.0,-2.08,1,1
16347.187,0.266,0.38,0.981,-1.89,-0.98,0.34,1,1
16347.203,0.337,0.325,0.933,4.76,-6.59,-0.37,1,1
16347.218,0.354,0.318,0.896,14.5,-6.5,1.83,1,1
16347.218,0.358,0.324,0.863,22.83,-3.57,2.47,1,1
16347.234,0.339,0.357,0.853,24.93,-0.15,2.72,1,1
16347.234,0.336,0.363,0.861,22.55,0.76,3.54,1,1
16347.25,0.334,0.353,0.858,20.69,0.73,5.25,1,1
16347.265,0.341,0.358,0.85,19.41,0.37,8.09,1,1
16347.265,0.349,0.372,0.842,18.34,-0.03,10.62,1,1
16347.281,0.362,0.367,0.823,17.49,-0.52,11.35,1,1
16347.296,0.37,0.361,0.81,15.05,-0.85,10.32,1,1
16347.296,0.377,0.367,0.812,10.71,-0.27,9.37,1,1
16347.312,0.384,0.374,0.815,6.59,1.01,8.94,1,1
16347.328,0.389,0.37,0.822,2.44,2.17,7.9,1,1
16347.328,0.385,0.364,0.838,-1.19,2.87,6.16,1,1
16347.343,0.378,0.363,0.858,-2.81,2.62,4.3,1,1
16347.343,0.368,0.364,0.865,-1.86,1.34,3.11,1,1
16347.359,0.366,0.369,0.852,1.1,0.49,3.17,1,1
16347.375,0.364,0.379,0.844,3.05,0.52,3.08,1,1
16347.375,0.354,0.375,0.841,3.23,0.89,2.69,1,1
16347.39,0.352,0.377,0.835,2.47,1.31,3.27,1,1
16347.406,0.353,0.377,0.836,1.77,1.31,4.0,1,1
16347.406,0.355,0.384,0.845,0.61,1.16,4.55,1,1
16347.421,0.358,0.392,0.842,-0.55,0.73,4.91,1,1
16347.437,0.367,0.384,0.837,-1.77,0.43,5.46,1,1
16347.437,0.376,0.38,0.837,-2.99,1.16,6.04,1,1
16347.453,0.375,0.372,0.845,-4.39,2.17,5.62,1,1
16347.453,0.372,0.355,0.856,-5.71,2.84,4.76,1,1
16347.468,0.369,0.348,0.863,-6.44,2.62,3.88,1,1
16347.484,0.362,0.34,0.871,-6.04,2.14,2.87,1,1
16347.484,0.355,0.342,0.875,-4.58,2.01,2.9,1,1
16347.5,0.347,0.353,0.88,-2.2,2.29,4.39,1,1
16347.515,0.344,0.354,0.871,0.61,2.62,6.26,1,1
16347.515,0.349,0.351,0.862,2.26,2.96,7.97,1,1
16347.531,0.353,0.35,0.859,3.02,3.11,8.55,1,1
16347.546,0.356,0.356,0.86,3.2,2.5,8.09,1,1
16347.546,0.361,0.363,0.85,3.17,1.16,7.17,1,1
16347.562,0.368,0.371,0.841,2.17,-0.67,5.37,1,1
16347.578,0.381,0.376,0.821,0.52,-1.89,2.53,1,1
16347.578,0.378,0.379,0.82,-2.62,-2.38,0.06,1,1
16347.593,0.376,0.381,0.835,-5.68,-2.38,-1.16,1,1
16347.593,0.372,0.38,0.839,-8.24,-2.44,-1.01,1,1
16347.609,0.379,0.367,0.835,-11.29,-2.56,-1.28,1,1
16347.625,0.387,0.346,0.86,-13.82,-1.28,-2.35,1,1
16347.625,0.379,0.319,0.879,-13.37,0.7,-3.66,1,1
16347.64,0.375,0.303,0.88,-10.9,1.62,-5.25,1,1
16347.656,0.369,0.307,0.9,-8.36,2.14,-6.59,1,1
16347.656,0.365,0.335,0.903,-4.94,1.65,-7.66,1,1
16347.671,0.361,0.359,0.871,-3.05,-0.06,-9.49,1,1
16347.687,0.343,0.377,0.866,-4.18,-2.04,-10.96,1,1
16347.687,0.32,0.381,0.873,-8.76,-6.13,-10.01,1,1
16347.703,0.314,0.365,0.883,-17.55,-12.09,-7.17,1,1
16347.703,0.339,0.35,0.867,-25.3,-16.72,-2.41,1,1
16347.718,0.328,0.34,0.868,-31.1,-18.62,0.4,1,1
16347.734,0.385,0.299,0.88,-30.79,-18.65,2.56,1,1
16347.734,0.426,0.289,0.878,-24.87,-13.31,2.81,1,1
16347.75,0.428,0.268,0.885,-13.92,-3.94,1.34,1,1
16347.765,0.412,0.266,0.88,-1.62,5.49,-0.06,1,1
16347.765,0.385,0.302,0.864,7.23,12.54,-1.13,1,1
16347.781,0.361,0.328,0.84,13.15,14.47,-1.77,1,1
16347.796,0.342,0.36,0.789,19.01,14.01,-1.4,1,1
16347.796,0.323,0.438,0.78,19.96,11.38,0.21,1,1
16347.812,0.291,0.483,0.819,14.95,5.1,2.87,1,1
16347.828,0.346,0.463,0.762,6.41,-2.29,6.44,1,1
16347.828,0.34,0.447,0.755,-7.2,-3.88,8.3,1,1
16347.843,0.341,0.361,0.789,-16.63,-3.23,10.1,1,1
16347.859,0.343,0.324,0.817,-20.84,-2.38,11.63,1,1
16347.859,0.346,0.307,0.84,-22.95,-1.43,11.96,1,1
16347.875,0.349,0.281,0.888,-25.64,-1.53,10.68,1,1
16347.875,0.358,0.253,0.931,-26.61,-3.17,8.36,1,1
16347.89,0.371,0.237,0.948,-24.6,-6.78,5.49,1,1
16347.906,0.393,0.235,0.946,-21.61,-10.13,2.44,1,1
16347.906,0.422,0.245,0.942,-16.82,-10.56,-0.55,1,1
16347.921,0.439,0.253,0.944,-10.71,-8.03,-2.93,1,1
16347.937,0.449,0.264,0.936,-3.72,-3.85,-4.7,1,1
16347.937,0.439,0.279,0.927,2.04,0.79,-7.26,1,1
16347.953,0.419,0.282,0.902,7.6,4.64,-10.83,1,1
16347.953,0.401,0.291,0.878,11.29,6.87,-13.86,1,1
16347.968,0.382,0.314,0.871,11.6,8.33,-15.29,1,1
16347.984,0.369,0.333,0.84,10.1,9.03,-15.96,1,1
16348.0,0.386,0.34,0.791,5.19,11.51,-16.42,1,1
16348.0,0.35,0.346,0.833,-0.06,15.38,-16.48,1,1
16348.015,0.331,0.333,0.84,-3.72,16.21,-15.11,1,1
16348.015,0.332,0.34,0.857,-8.12,15.44,-13.64,1,1
16348.031,0.321,0.339,0.888,-9.77,13.82,-12.57,1,1
16348.046,0.302,0.342,0.912,-8.39,10.59,-10.07,1,1
16348.046,0.301,0.336,0.915,-5.52,6.78,-5.52,1,1
16348.062,0.309,0.325,0.908,-2.93,3.75,-1.13,1,1
16348.062,0.318,0.316,0.902,-1.13,1.28,0.85,1,1
16348.078,0.328,0.304,0.891,0.0,-0.09,0.76,1,1
16348.093,0.335,0.296,0.883,0.67,0.0,0.06,1,1
16348.093,0.335,0.298,0.887,1.1,0.82,-0.24,1,1
16348.109,0.339,0.301,0.889,1.59,1.31,-0.34,1,1
16348.125,0.34,0.3,0.89,2.08,1.86,-0.95,1,1
16348.125,0.344,0.297,0.888,2.72,1.92,-2.01,1,1
16348.14,0.345,0.303,0.886,3.3,2.2,-3.11,1,1
16348.156,0.343,0.31,0.888,4.73,3.85,-4.24,1,1
16348.156,0.337,0.312,0.887,5.19,4.09,-4.82,1,1
16348.171,0.338,0.317,0.885,5.68,3.75,-5.62,1,1
16348.187,0.328,0.335,0.873,5.58,3.14,-5.46,1,1
16348.187,0.33,0.338,0.865,4.39,2.29,-4.82,1,1
16348.203,0.329,0.343,0.869,2.84,1.62,-3.88,1,1
16348.203,0.339,0.34,0.858,0.92,1.5,-2.72,1,1
16348.218,0.322,0.344,0.891,-0.79,1.53,-1.89,1,1
16348.234,0.328,0.332,0.881,0.67,-0.06,-0.34,1,1
16348.234,0.339,0.321,0.872,0.31,-0.85,-0.21,1,1
16348.25,0.336,0.307,0.881,0.64,-0.49,-0.98,1,1
16348.265,0.334,0.304,0.882,1.95,-0.64,-1.53,1,1
16348.281,0.335,0.312,0.879,2.38,-1.19,-1.92,1,1
16348.281,0.334,0.312,0.885,1.77,-1.59,-2.84,1,1
16348.296,0.333,0.316,0.886,2.35,-1.71,-3.27,1,1
16348.296,0.333,0.336,0.884,2.93,-1.5,-2.66,1,1
16348.312,0.329,0.343,0.885,2.66,-0.95,-2.35,1,1
16348.328,0.332,0.33,0.86,1.86,-0.64,-1.46,1,1
16348.328,0.352,0.335,0.855,-1.31,1.83,-1.25,1,1
16348.343,0.306,0.324,0.91,-1.13,3.45,-1.71,1,1
16348.359,0.327,0.323,0.888,-0.03,0.85,-0.21,1,1
16348.359,0.334,0.331,0.889,-0.18,-0.49,0.24,1,1
16348.375,0.335,0.324,0.882,1.01,-1.25,0.46,1,1
16348.375,0.343,0.332,0.875,0.98,-1.77,0.46,1,1
16348.39,0.339,0.329,0.882,0.37,-1.65,-0.21,1,1
16348.406,0.336,0.331,0.88,0.43,-1.56,-0.76,1,1
16348.406,0.332,0.328,0.878,0.06,-1.62,-1.62,1,1
16348.421,0.331,0.317,0.879,-0.67,-2.14,-2.53,1,1
16348.437,0.325,0.314,0.882,-1.28,-2.38,-3.36,1,1
16348.437,0.324,0.313,0.858,-1.46,-2.56,-3.69,1,1
16348.453,0.358,0.317,0.85,-3.81,-0.64,-3.91,1,1
16348.468,0.308,0.336,0.918,-3.63,1.22,-4.64,1,1
16348.468,0.322,0.331,0.895,-1.5,-0.85,-3.51,1,1
16348.484,0.331,0.34,0.894,-2.11,-0.98,-3.05,1,1
16348.484,0.326,0.325,0.883,-0.49,-0.15,-3.6,1,1
16348.5,0.326,0.329,0.877,0.67,0.64,-3.81,1,1
16348.515,0.323,0.338,0.879,0.73,1.04,-4.09,1,1
16348.515,0.32,0.342,0.872,1.07,0.92,-4.03,1,1
16348.531,0.319,0.35,0.875,1.04,0.85,-3.05,1,1
16348.546,0.323,0.349,0.876,0.76,0.49,-1.46,1,1
16348.546,0.324,0.341,0.874,-0.4,-0.34,0.03,1,1
16348.562,0.333,0.332,0.866,-1.83,-1.16,0.76,1,1
16348.578,0.333,0.323,0.868,-2.62,-1.43,0.4,1,1
16348.578,0.329,0.325,0.877,-3.45,-1.71,-0.12,1,1
16348.593,0.328,0.321,0.886,-4.33,-2.35,-0.43,1,1
16348.609,0.326,0.316,0.896,-5.13,-2.96,-0.73,1,1
16348.609,0.333,0.308,0.895,-4.85,-3.48,-1.31,1,1
16348.625,0.331,0.304,0.897,-3.88,-3.17,-1.89,1,1
16348.625,0.33,0.302,0.901,-2.81,-3.05,-2.59,1,1
16348.64,0.333,0.311,0.901,-1.31,-2.84,-3.3,1,1
16348.656,0.331,0.317,0.893,0.79,-1.92,-3.45,1,1
16348.656,0.327,0.321,0.884,2.59,-0.95,-3.36,1,1
16348.671,0.325,0.328,0.882,3.85,-0.31,-2.78,1,1
16348.687,0.325,0.339,0.879,4.36,0.12,-1.98,1,1
16348.687,0.326,0.346,0.869,4.15,0.37,-1.5,1,1
16348.703,0.326,0.348,0.865,3.11,0.21,-0.89,1,1
16348.718,0.328,0.346,0.866,1.83,-0.03,-0.21,1,1
16348.718,0.325,0.341,0.875,0.85,-0.06,0.58,1,1
16348.734,0.323,0.33,0.88,0.34,-0.34,1.1,1,1
16348.734,0.326,0.316,0.881,0.34,-0.64,1.13,1,1
16348.75,0.326,0.311,0.883,0.67,-0.98,0.49,1,1
16348.765,0.325,0.313,0.884,0.95,-1.07,-0.18,1,1
16348.765,0.325,0.323,0.897,1.43,-0.76,-0.46,1,1
16348.781,0.319,0.329,0.898,2.14,-0.95,-0.64,1,1
16348.796,0.325,0.328,0.895,2.35,-1.43,-0.34,1,1
16348.796,0.327,0.324,0.889,2.47,-1.5,-0.31,1,1
16348.812,0.326,0.324,0.881,2.69,-1.22,-0.18,1,1
16348.812,0.324,0.339,0.877,2.59,-0.73,0.55,1,1
16348.828,0.324,0.342,0.871,2.17,-0.55,1.19,1,1
16348.843,0.328,0.343,0.87,1.25,-0.64,1.5,1,1
16348.859,0.328,0.338,0.871,0.92,-0.61,1.65,1,1
16348.859,0.327,0.338,0.874,1.1,-0.4,1.86,1,1
16348.875,0.332,0.334,0.876,0.82,-0.52,2.01,1,1
16348.89,0.334,0.328,0.881,0.49,-0.55,1.68,1,1
16348.89,0.334,0.323,0.884,0.64,-0.49,1.04,1,1
16348.906,0.33,0.326,0.891,1.19,-0.64,0.4,1,1
16348.906,0.327,0.332,0.89,1.98,-0.67,0.58,1,1
16348.921,0.324,0.327,0.888,2.62,-0.43,0.73,1,1
16348.937,0.321,0.32,0.884,3.23,-0.27,0.46,1,1
16348.937,0.319,0.324,0.884,3.51,-0.61,0.12,1,1
16348.953,0.323,0.332,0.882,3.51,-1.16,0.15,1,1
16348.968,0.325,0.333,0.882,3.23,-1.68,0.09,1,1
16348.968,0.326,0.334,0.88,2.87,-2.23,0.15,1,1
16348.984,0.331,0.335,0.881,2.69,-2.72,0.12,1,1
16348.984,0.332,0.335,0.878,2.32,-2.78,-0.15,1,1
16349.0,0.332,0.334,0.875,2.62,-2.78,-0.55,1,1
16349.015,0.334,0.336,0.87,2.93,-2.87,-0.92,1,1
16349.015,0.336,0.342,0.876,2.78,-2.69,-1.31,1,1
16349.031,0.334,0.343,0.878,3.11,-2.5,-1.28,1,1
16349.046,0.332,0.341,0.874,3.17,-2.56,-0.76,1,1
16349.046,0.333,0.338,0.88,3.08,-2.62,-0.27,1,1
16349.062,0.333,0.33,0.883,3.6,-2.84,-0.46,1,1
16349.078,0.333,0.325,0.884,4.55,-3.42,-0.82,1,1
16349.078,0.334,0.326,0.887,5.77,-4.0,-1.25,1,1
16349.093,0.333,0.326,0.887,7.42,-4.61,-2.01,1,1
16349.109,0.331,0.327,0.881,8.91,-5.25,-3.2,1,1
16349.109,0.326,0.336,0.869,9.37,-5.83,-4.12,1,1
16349.125,0.33,0.354,0.866,8.3,-6.07,-4.49,1,1
16349.125,0.329,0.368,0.862,5.28,-5.34,-3.72,1,1
16349.14,0.323,0.367,0.858,2.96,-5.46,-3.14,1,1
16349.156,0.327,0.366,0.862,1.65,-5.65,-2.32,1,1
16349.156,0.328,0.364,0.863,0.98,-5.86,-1.37,1,1
16349.171,0.341,0.353,0.869,0.37,-5.55,-0.95,1,1
16349.187,0.344,0.347,0.87,0.37,-5.1,-1.04,1,1
16349.187,0.348,0.344,0.868,0.49,-4.82,-1.19,1,1
16349.203,0.352,0.346,0.868,0.92,-4.12,-1.31,1,1
16349.203,0.351,0.346,0.869,1.53,-3.17,-1.77,1,1
16349.218,0.348,0.346,0.869,1.89,-2.47,-2.41,1,1
16349.234,0.341,0.348,0.869,2.26,-2.17,-2.93,1,1
16349.234,0.336,0.348,0.866,2.35,-1.98,-3.54,1,1
16349.25,0.332,0.351,0.864,2.26,-2.04,-3.85,1,1
16349.265,0.327,0.354,0.864,1.92,-2.44,-3.91,1,1
16349.265,0.328,0.357,0.861,1.34,-2.84,-3.66,1,1
16349.281,0.329,0.36,0.862,0.43,-2.72,-3.2,1,1
16349.296,0.329,0.361,0.861,-0.4,-2.38,-2.5,1,1
16349.296,0.332,0.356,0.866,-0.98,-2.01,-1.92,1,1
16349.312,0.334,0.355,0.87,-1.28,-1.74,-1.5,1,1
16349.328,0.334,0.36,0.867,-1.16,-1.46,-0.89,1,1
16349.328,0.34,0.356,0.869,-0.95,-1.13,-0.4,1,1
16349.343,0.342,0.35,0.872,-0.82,-1.07,-0.4,1,1
16349.343,0.346,0.35,0.868,-0.24,-1.01,-0.24,1,1
16349.359,0.349,0.35,0.869,0.21,-0.76,-0.37,1,1
16349.375,0.348,0.348,0.871,0.49,-0.58,-0.95,1,1
16349.375,0.343,0.347,0.869,0.85,-0.34,-1.5,1,1
16349.39,0.341,0.353,0.868,1.16,-0.15,-1.65,1,1
16349.406,0.34,0.357,0.869,1.19,0.21,-1.43,1,1
16349.406,0.335,0.351,0.868,1.19,0.58,-1.56,1,1
16349.421,0.329,0.352,0.867,1.01,0.64,-1.68,1,1
16349.437,0.328,0.357,0.869,0.89,0.37,-1.46,1,1
16349.437,0.327,0.357,0.868,0.82,0.18,-1.16,1,1
16349.453,0.323,0.357,0.872,0.73,-0.24,-0.95,1,1
16349.468,0.327,0.36,0.873,0.79,-0.85,-0.46,1,1
16349.468,0.334,0.362,0.865,1.01,-1.01,0.12,1,1
16349.484,0.335,0.355,0.862,1.04,-0.82,0.21,1,1
16349.484,0.337,0.352,0.863,0.79,-0.64,0.06,1,1
16349.5,0.341,0.352,0.864,0.67,-0.76,-0.37,1,1
16349.515,0.344,0.356,0.865,0.7,-0.85,-0.7,1,1
16349.515,0.341,0.357,0.865,0.82,-0.7,-0.92,1,1
16349.531,0.34,0.354,0.868,0.76,-0.52,-1.1,1,1
16349.546,0.34,0.355,0.869,0.76,-0.58,-1.1,1,1
16349.562,0.335,0.359,0.866,0.95,-0.27,-0.7,1,1
16349.562,0.336,0.359,0.866,0.98,-0.12,-0.27,1,1
16349.578,0.337,0.353,0.865,0.95,-0.24,-0.37,1,1
16349.578,0.333,0.352,0.865,0.49,-0.24,-0.55,1,1
16349.593,0.334,0.355,0.867,0.31,-0.37,-0.58,1,1
16349.593,0.334,0.354,0.866,0.37,-0.58,-0.64,1,1
16349.609,0.336,0.353,0.867,0.43,-0.61,-0.79,1,1
16349.625,0.332,0.357,0.868,0.52,-0.37,-1.04,1,1
16349.64,0.332,0.361,0.869,0.49,-0.27,-0.95,1,1
16349.64,0.331,0.361,0.867,0.43,-0.46,-0.92,1,1
16349.656,0.329,0.359,0.864,0.55,-0.4,-1.07,1,1
16349.656,0.328,0.359,0.865,0.34,-0.43,-0.82,1,1
16349.671,0.332,0.36,0.863,-0.06,-0.82,-0.7,1,1
16349.687,0.333,0.36,0.863,-0.46,-1.04,-0.64,1,1
16349.687,0.335,0.36,0.867,-0.64,-0.73,-0.76,1,1
16349.703,0.331,0.358,0.875,-0.46,-0.61,-0.67,1,1
16349.718,0.331,0.359,0.874,0.09,-0.7,0.03,1,1
16349.718,0.335,0.357,0.87,0.49,-0.64,0.4,1,1
16349.734,0.336,0.348,0.87,0.82,-0.43,0.37,1,1
16349.734,0.336,0.347,0.867,1.19,-0.34,0.15,1,1
16349.75,0.339,0.35,0.866,1.37,-0.55,-0.09,1,1
16349.765,0.34,0.355,0.864,1.56,-0.46,-0.34,1,1
16349.765,0.338,0.36,0.866,1.43,-0.37,-0.58,1,1
16349.781,0.336,0.36,0.867,1.31,-0.49,-0.95,1,1
16349.796,0.332,0.359,0.866,1.22,-0.67,-1.4,1,1
16349.796,0.331,0.361,0.863,0.98,-0.85,-1.65,1,1
16349.812,0.329,0.363,0.863,0.58,-0.85,-1.59,1,1
16349.828,0.327,0.367,0.866,0.34,-0.73,-1.19,1,1
16349.828,0.325,0.362,0.867,0.27,-0.92,-0.82,1,1
16349.843,0.327,0.361,0.869,0.12,-0.79,-0.7,1,1
16349.859,0.327,0.358,0.871,0.52,-0.34,-0.37,1,1
16349.859,0.326,0.355,0.871,1.13,-0.24,0.21,1,1
16349.875,0.331,0.357,0.868,1.71,-0.43,0.58,1,1
16349.875,0.333,0.359,0.864,1.92,-0.46,0.7,1,1
16349.89,0.333,0.36,0.864,1.83,-0.4,0.64,1,1
16349.906,0.335,0.361,0.862,1.43,-0.61,0.4,1,1
16349.906,0.335,0.362,0.862,0.98,-1.13,0.27,1,1
16349.921,0.337,0.365,0.863,0.55,-1.62,0.18,1,1
16349.937,0.339,0.366,0.861,0.09,-1.71,-0.21,1,1
16349.937,0.337,0.362,0.861,-0.4,-1.71,-0.55,1,1
16349.953,0.336,0.36,0.866,-0.7,-1.65,-0.76,1,1
16349.953,0.336,0.364,0.869,-0.7,-1.46,-0.76,1,1
16349.968,0.334,0.361,0.868,-0.46,-1.16,-0.82,1,1
16349.984,0.329,0.355,0.867,0.0,-0.85,-0.7,1,1
16349.984,0.327,0.356,0.866,0.43,-0.89,-0.49,1,1
16350.0,0.327,0.358,0.864,0.61,-0.98,-0.12,1,1
16350.015,0.328,0.363,0.865,0.61,-1.1,0.21,1,1
16350.015,0.33,0.365,0.864,0.43,-1.25,0.4,1,1
16350.031,0.333,0.365,0.861,0.21,-1.31,0.52,1,1
16350.046,0.334,0.365,0.864,-0.21,-1.31,0.52,1,1
16350.046,0.334,0.363,0.869,-0.49,-1.25,0.18,1,1
16350.062,0.333,0.361,0.869,-0.49,-1.04,-0.03,1,1
16350.078,0.331,0.359,0.87,-0.27,-1.01,0.15,1,1
16350.078,0.332,0.356,0.868,-0.09,-1.1,0.27,1,1
16350.093,0.334,0.356,0.866,0.15,-1.13,0.27,1,1
16350.093,0.335,0.357,0.866,0.21,-0.92,0.27,1,1
16350.109,0.334,0.358,0.867,0.27,-1.1,0.21,1,1
16350.125,0.338,0.361,0.866,0.37,-1.04,-0.06,1,1
16350.125,0.339,0.361,0.865,0.31,-0.76,-0.43,1,1
16350.14,0.338,0.362,0.866,0.37,-0.58,-0.79,1,1
16350.156,0.335,0.362,0.866,0.34,-0.46,-1.01,1,1
16350.171,0.333,0.361,0.866,0.46,-0.18,-1.16,1,1
16350.171,0.331,0.364,0.867,0.43,-0.12,-1.25,1,1
16350.187,0.329,0.364,0.866,0.24,-0.12,-1.37,1,1
16350.187,0.328,0.363,0.865,0.09,-0.15,-1.28,1,1
16350.203,0.329,0.362,0.865,0.12,-0.15,-1.07,1,1
16350.218,0.329,0.36,0.864,0.09,-0.15,-1.1,1,1
16350.218,0.328,0.359,0.865,0.37,-0.31,-1.16,1,1
16350.234,0.327,0.362,0.864,0.67,-0.37,-1.34,1,1
16350.234,0.327,0.366,0.864,0.4,-0.79,-1.28,1,1
16350.25,0.328,0.367,0.865,-0.27,-1.13,-1.16,1,1
16350.265,0.33,0.364,0.862,-0.55,-1.07,-1.16,1,1
16350.265,0.331,0.366,0.862,-0.58,-0.73,-1.01,1,1
16350.281,0.332,0.365,0.861,-0.52,-0.4,-0.95,1,1
16350.296,0.331,0.362,0.865,-0.34,-0.12,-0.95,1,1
16350.296,0.332,0.359,0.863,0.09,0.27,-0.98,1,1
16350.312,0.33,0.357,0.874,-0.24,0.27,-1.68,1,1
16350.328,0.323,0.368,0.873,0.49,-0.18,-1.5,1,1
16350.328,0.331,0.367,0.865,1.28,-0.4,-0.79,1,1
16350.343,0.327,0.363,0.868,0.67,-0.09,-0.92,1,1
16350.343,0.327,0.362,0.867,0.55,-0.09,-1.25,1,1
16350.359,0.327,0.364,0.867,0.98,-0.27,-1.1,1,1
16350.375,0.33,0.362,0.868,0.92,-0.4,-0.85,1,1
16350.39,0.331,0.363,0.864,1.01,-0.49,-0.89,1,1
16350.39,0.33,0.363,0.864,0.55,-0.37,-1.04,1,1
16350.406,0.332,0.364,0.866,0.61,-0.27,-1.01,1,1
16350.406,0.329,0.36,0.866,0.43,-0.24,-0.95,1,1
16350.421,0.329,0.36,0.867,0.31,-0.24,-1.01,1,1
16350.437,0.327,0.362,0.87,0.46,-0.18,-1.1,1,1
16350.437,0.326,0.362,0.869,0.82,-0.21,-1.13,1,1
16350.453,0.327,0.362,0.865,0.92,-0.31,-1.25,1,1
16350.468,0.331,0.363,0.866,1.22,-0.27,-1.43,1,1
16350.468,0.331,0.365,0.866,1.56,0.03,-1.4,1,1
16350.484,0.329,0.367,0.869,1.68,0.46,-1.16,1,1
16350.484,0.33,0.368,0.868,1.59,0.61,-1.13,1,1
16350.5,0.329,0.366,0.869,1.22,0.61,-1.1,1,1
16350.515,0.328,0.363,0.87,1.5,0.98,-0.95,1,1
16350.515,0.328,0.36,0.869,2.14,1.25,-0.85,1,1
16350.531,0.326,0.36,0.869,2.62,1.31,-0.85,1,1
16350.546,0.326,0.361,0.868,2.99,1.56,-0.92,1,1
16350.546,0.323,0.363,0.868,3.27,1.53,-1.1,1,1
16350.562,0.319,0.365,0.869,3.36,1.43,-1.16,1,1
16350.578,0.319,0.367,0.864,3.69,1.19,-1.13,1,1
16350.578,0.317,0.368,0.862,3.72,0.92,-1.4,1,1
16350.593,0.314,0.371,0.864,3.6,0.55,-1.71,1,1
16350.593,0.317,0.372,0.857,3.33,-0.18,-1.68,1,1
16350.609,0.316,0.372,0.859,2.87,-0.49,-1.59,1,1
16350.625,0.318,0.371,0.859,2.53,-0.61,-1.34,1,1
16350.64,0.319,0.369,0.863,2.08,-0.52,-1.07,1,1
16350.64,0.323,0.371,0.868,1.62,-1.1,-0.76,1,1
16350.656,0.332,0.371,0.865,1.4,-1.92,-0.89,1,1
16350.656,0.329,0.372,0.866,1.28,-1.74,-1.4,1,1
16350.671,0.326,0.375,0.87,1.28,-1.4,-1.62,1,1
16350.687,0.325,0.376,0.871,1.59,-1.22,-1.71,1,1
16350.687,0.323,0.373,0.871,1.56,-1.28,-1.5,1,1
16350.703,0.327,0.369,0.866,1.95,-1.62,-1.5,1,1
16350.703,0.326,0.367,0.864,2.17,-1.8,-1.68,1,1
16350.718,0.326,0.37,0.862,2.11,-1.86,-1.71,1,1
16350.734,0.325,0.371,0.862,2.14,-1.8,-1.83,1,1
16350.734,0.327,0.371,0.858,1.8,-1.74,-1.95,1,1
16350.75,0.325,0.375,0.859,1.46,-1.68,-1.92,1,1
16350.765,0.326,0.38,0.86,1.22,-1.74,-1.92,1,1
16350.765,0.323,0.381,0.865,0.76,-1.77,-1.77,1,1
16350.781,0.323,0.384,0.861,0.95,-1.77,-1.25,1,1
16350.796,0.329,0.385,0.861,1.04,-1.71,-0.7,1,1
16350.796,0.33,0.379,0.86,1.13,-1.53,-0.7,1,1
16350.812,0.331,0.379,0.863,1.07,-1.28,-0.49,1,1
16350.828,0.329,0.381,0.862,0.92,-1.43,-0.46,1,1
16350.828,0.327,0.383,0.861,0.92,-1.5,-0.21,1,1
16350.843,0.325,0.383,0.864,1.07,-1.13,0.31,1,1
16350.843,0.325,0.379,0.867,1.01,-0.82,0.61,1,1
16350.859,0.318,0.371,0.87,1.28,-0.79,0.31,1,1
16350.875,0.32,0.374,0.867,1.89,-0.92,0.24,1,1
16350.875,0.321,0.372,0.864,2.01,-1.1,0.03,1,1
16350.89,0.316,0.376,0.864,1.86,-1.16,0.06,1,1
16350.906,0.319,0.376,0.855,1.74,-1.53,-0.52,1,1
16350.921,0.322,0.368,0.848,1.59,-1.56,-1.74,1,1
16350.921,0.314,0.377,0.857,1.1,-1.62,-2.2,1,1
16350.937,0.316,0.377,0.861,0.85,-2.72,-2.66,1,1
16350.937,0.317,0.381,0.862,0.46,-3.6,-3.14,1,1
16350.953,0.322,0.38,0.853,0.34,-4.12,-3.33,1,1
16350.953,0.323,0.382,0.859,0.18,-3.97,-3.66,1,1
16350.968,0.324,0.385,0.86,0.49,-3.57,-4.0,1,1
16350.984,0.322,0.382,0.86,1.31,-2.9,-3.39,1,1
16350.984,0.323,0.385,0.862,1.65,-2.08,-2.11,1,1
16351.0,0.325,0.386,0.865,1.43,-1.8,-1.25,1,1
16351.015,0.323,0.379,0.868,1.37,-1.98,-1.16,1,1
16351.015,0.323,0.37,0.862,1.56,-2.47,-1.28,1,1
16351.031,0.326,0.369,0.859,1.89,-2.69,-1.71,1,1
16351.046,0.324,0.371,0.858,2.17,-2.84,-2.08,1,1
16351.046,0.325,0.378,0.858,2.29,-3.17,-2.26,1,1
16351.062,0.328,0.383,0.851,2.35,-3.66,-2.41,1,1
16351.062,0.327,0.391,0.854,1.86,-3.91,-2.14,1,1
16351.078,0.332,0.393,0.85,1.31,-4.06,-1.53,1,1
16351.093,0.336,0.4,0.852,0.43,-3.48,-1.07,1,1
16351.093,0.338,0.397,0.856,0.09,-2.69,-0.85,1,1
16351.109,0.337,0.39,0.857,0.09,-2.04,-0.92,1,1
16351.125,0.339,0.389,0.859,0.21,-1.59,-0.76,1,1
16351.125,0.333,0.378,0.859,0.67,-1.53,-0.73,1,1
16351.14,0.333,0.381,0.859,0.7,-1.34,-0.58,1,1
16351.156,0.334,0.381,0.857,0.85,-1.01,-0.27,1,1
16351.156,0.328,0.382,0.86,1.19,-0.79,-0.31,1,1
16351.171,0.325,0.383,0.857,1.25,-1.13,-0.7,1,1
16351.187,0.329,0.386,0.851,1.25,-1.34,-0.82,1,1
16351.187,0.325,0.391,0.853,0.85,-1.13,-0.67,1,1
16351.203,0.323,0.393,0.856,0.67,-0.73,-0.15,1,1
16351.218,0.323,0.393,0.858,0.31,-0.37,0.4,1,1
16351.218,0.324,0.388,0.857,0.12,-0.37,0.73,1,1
16351.234,0.325,0.383,0.858,0.27,-0.06,1.07,1,1
16351.234,0.325,0.381,0.859,0.64,0.31,1.53,1,1
16351.25,0.323,0.38,0.861,1.01,0.67,1.62,1,1
16351.265,0.322,0.38,0.864,1.46,0.73,1.56,1,1
16351.265,0.324,0.384,0.863,2.01,0.67,1.65,1,1
16351.281,0.325,0.387,0.86,2.81,1.28,1.92,1,1
16351.296,0.325,0.391,0.862,2.87,1.46,2.59,1,1
16351.296,0.332,0.387,0.85,2.72,1.07,2.81,1,1
16351.312,0.331,0.386,0.851,2.29,1.07,2.5,1,1
16351.328,0.331,0.387,0.85,1.71,0.52,2.08,1,1
16351.328,0.33,0.385,0.849,1.25,-0.09,1.46,1,1
16351.343,0.328,0.39,0.856,0.7,-0.55,1.13,1,1
16351.359,0.324,0.391,0.859,0.52,-0.98,1.13,1,1
16351.359,0.325,0.384,0.852,0.82,-1.13,1.1,1,1
16351.375,0.319,0.381,0.856,1.19,-1.19,1.1,1,1
16351.375,0.322,0.375,0.851,2.17,-1.43,0.67,1,1
16351.39,0.305,0.399,0.872,2.08,-1.68,1.13,1,1
16351.406,0.308,0.413,0.87,1.71,-3.39,2.87,1,1
16351.406,0.325,0.393,0.854,2.23,-4.61,3.54,1,1
16351.421,0.324,0.379,0.845,3.48,-4.43,3.66,1,1
16351.437,0.326,0.381,0.848,3.27,-4.06,3.36,1,1
16351.437,0.328,0.395,0.862,2.04,-4.15,3.14,1,1
16351.453,0.332,0.398,0.869,2.01,-5.01,3.69,1,1
16351.453,0.341,0.392,0.854,3.51,-5.55,3.94,1,1
16351.468,0.351,0.396,0.854,3.57,-5.19,3.81,1,1
16351.484,0.347,0.393,0.848,3.48,-4.43,2.99,1,1
16351.484,0.341,0.387,0.85,2.66,-3.23,2.47,1,1
16351.5,0.346,0.373,0.843,2.17,-2.29,2.23,1,1
16351.515,0.341,0.362,0.849,2.17,-0.98,1.95,1,1
16351.515,0.328,0.374,0.864,2.04,-0.73,1.86,1,1
16351.531,0.335,0.383,0.858,2.81,-1.25,2.04,1,1
16351.546,0.338,0.388,0.851,3.91,-0.92,2.29,1,1
16351.546,0.335,0.397,0.846,4.64,-0.09,2.72,1,1
16351.562,0.336,0.403,0.844,4.12,0.92,2.81,1,1
16351.578,0.335,0.401,0.843,3.2,1.89,3.11,1,1
16351.578,0.338,0.397,0.842,3.08,2.9,3.2,1,1
16351.593,0.332,0.401,0.844,2.78,3.97,3.23,1,1
16351.593,0.336,0.406,0.842,2.56,4.39,3.23,1,1
16351.609,0.335,0.406,0.842,2.04,4.79,3.14,1,1
16351.625,0.333,0.4,0.844,1.34,5.16,3.02,1,1
16351.625,0.335,0.39,0.845,0.79,5.71,2.81,1,1
16351.64,0.335,0.388,0.852,0.27,6.23,2.41,1,1
16351.656,0.337,0.389,0.856,0.27,6.38,2.01,1,1
16351.671,0.334,0.383,0.857,0.31,5.98,1.1,1,1
16351.671,0.33,0.379,0.856,0.46,5.31,0.12,1,1
16351.687,0.328,0.379,0.855,0.73,4.43,-0.89,1,1
16351.687,0.327,0.384,0.852,0.67,3.33,-1.98,1,1
16351.703,0.327,0.39,0.845,0.49,2.29,-2.96,1,1
16351.718,0.325,0.401,0.846,-0.27,1.37,-3.39,1,1
16351.718,0.326,0.41,0.847,-1.28,0.4,-3.11,1,1
16351.734,0.33,0.411,0.842,-2.56,-0.49,-2.29,1,1
16351.75,0.33,0.41,0.845,-4.0,-0.79,-2.14,1,1
16351.75,0.33,0.405,0.848,-4.64,-0.92,-2.35,1,1
16351.765,0.33,0.397,0.847,-4.61,-0.85,-2.44,1,1
16351.765,0.328,0.388,0.857,-4.36,-0.73,-3.02,1,1
16351.781,0.326,0.383,0.859,-3.94,-1.01,-3.97,1,1
16351.796,0.322,0.387,0.859,-3.36,-1.8,-4.76,1,1
16351.796,0.322,0.388,0.859,-2.75,-2.81,-5.28,1,1
16351.812,0.315,0.396,0.855,-1.89,-3.39,-4.58,1,1
16351.812,0.323,0.401,0.857,-2.08,-3.75,-3.51,1,1
16351.828,0.324,0.392,0.851,-1.77,-3.69,-3.2,1,1
16351.843,0.327,0.392,0.849,-2.17,-3.57,-3.14,1,1
16351.843,0.334,0.389,0.854,-2.44,-3.51,-3.72,1,1
16351.859,0.336,0.389,0.856,-2.75,-3.36,-4.24,1,1
16351.875,0.35,0.384,0.863,-3.39,-3.05,-5.46,1,1
16351.875,0.349,0.375,0.866,-4.09,-2.81,-7.84,1,1
16351.89,0.349,0.368,0.871,-4.76,-3.02,-11.47,1,1
16351.906,0.358,0.353,0.835,-4.85,-3.63,-15.84,1,1
16351.906,0.36,0.378,0.83,-6.41,-2.11,-20.87,1,1
16351.921,0.339,0.399,0.846,-6.68,0.95,-23.38,1,1
16351.937,0.336,0.402,0.845,-8.09,2.14,-23.83,1,1
16351.937,0.333,0.411,0.845,-10.62,2.93,-23.65,1,1
16351.953,0.323,0.413,0.859,-12.54,3.72,-22.37,1,1
16351.953,0.331,0.418,0.868,-13.12,4.82,-20.6,1,1
16351.968,0.307,0.412,0.872,-13.03,6.35,-19.35,1,1
16351.984,0.306,0.378,0.88,-12.54,6.68,-15.66,1,1
16352.0,0.314,0.384,0.88,-11.08,7.72,-12.12,1,1
16352.0,0.317,0.358,0.868,-9.4,8.73,-11.81,1,1
16352.015,0.318,0.326,0.869,-9.03,9.74,-14.89,1,1
16352.015,0.318,0.331,0.881,-11.66,9.13,-22.0,1,1
16352.031,0.317,0.333,0.886,-15.75,7.26,-30.46,1,1
16352.046,0.323,0.315,0.881,-22.58,5.01,-39.06,1,1
16352.046,0.315,0.298,0.882,-31.95,3.2,-49.59,1,1
16352.062,0.288,0.28,0.917,-39.89,2.04,-56.58,1,1
16352.078,0.271,0.284,0.968,-40.99,0.15,-58.23,1,1
16352.078,0.254,0.287,1.003,-21.03,-8.36,-51.42,1,1
16352.093,0.24,0.275,1.0,-8.06,-12.82,-47.09,1,1
16352.093,0.239,0.29,0.967,2.11,-15.44,-43.58,1,1
16352.109,0.239,0.317,0.937,7.87,-17.09,-42.21,1,1
16352.125,0.239,0.362,0.892,6.99,-18.59,-44.16,1,1
16352.125,0.226,0.394,0.882,1.07,-20.97,-47.73,1,1
16352.14,0.221,0.413,0.865,-6.68,-23.47,-48.65,1,1
16352.156,0.23,0.436,0.849,-14.53,-24.78,-46.14,1,1
16352.156,0.233,0.44,0.84,-20.48,-24.32,-41.11,1,1
16352.171,0.239,0.429,0.841,-20.81,-21.88,-33.14,1,1
16352.187,0.242,0.413,0.843,-12.36,-17.37,-22.06,1,1
16352.187,0.239,0.411,0.838,3.6,-11.11,-10.62,1,1
16352.203,0.229,0.451,0.847,21.91,-4.24,-0.37,1,1
16352.203,0.207,0.485,0.86,40.13,-0.76,8.88,1,1
16352.218,0.194,0.514,0.863,52.83,-2.5,16.33,1,1
16352.234,0.176,0.543,0.871,54.14,-9.4,19.81,1,1
16352.234,0.152,0.567,0.914,50.78,-19.23,24.02,1,1
16352.25,0.2,0.584,0.884,50.63,-28.6,35.68,1,1
16352.265,0.267,0.559,0.81,49.04,-31.95,48.71,1,1
16352.281,0.299,0.492,0.773,43.52,-28.66,54.2,1,1
16352.281,0.35,0.456,0.73,35.46,-22.68,52.92,1,1
16352.296,0.376,0.429,0.706,26.4,-14.53,46.57,1,1
16352.296,0.377,0.405,0.709,17.82,-5.22,38.03,1,1
16352.312,0.362,0.406,0.714,10.86,3.3,31.13,1,1
16352.312,0.356,0.384,0.717,7.17,10.28,27.19,1,1
16352.328,0.359,0.365,0.716,3.85,16.48,23.8,1,1
16352.343,0.359,0.37,0.726,-1.22,20.94,17.73,1,1
16352.343,0.342,0.361,0.73,-5.98,23.41,11.35,1,1
16352.359,0.331,0.361,0.748,-11.6,26.37,7.32,1,1
16352.375,0.326,0.401,0.777,-18.04,30.95,5.07,1,1
16352.375,0.282,0.448,0.821,-24.41,35.55,4.39,1,1
16352.39,0.107,0.574,1.139,-34.64,31.25,13.92,1,1
16352.406,0.214,0.51,1.223,-42.73,5.01,31.95,1,1
16352.421,0.342,0.406,1.001,-46.45,-14.13,37.45,1,1
16352.421,0.357,0.257,0.911,-33.91,-9.64,38.45,1,1
16352.437,0.374,0.232,0.874,-6.01,4.36,39.28,1,1
16352.437,0.355,0.308,0.832,26.06,20.54,40.13,1,1
16352.453,0.323,0.395,0.839,45.93,33.33,41.23,1,1
16352.453,0.282,0.49,0.864,47.43,38.54,43.64,1,1
16352.468,0.279,0.522,0.85,38.3,38.61,48.59,1,1
16352.484,0.296,0.48,0.835,27.07,37.81,54.41,1,1
16352.5,0.313,0.407,0.819,19.96,38.73,58.17,1,1
16352.5,0.324,0.362,0.82,17.98,40.83,57.92,1,1
16352.515,0.321,0.346,0.838,17.98,42.3,54.17,1,1
16352.515,0.318,0.341,0.86,17.46,42.09,49.84,1,1
16352.531,0.307,0.347,0.886,16.27,41.23,46.63,1,1
16352.546,0.305,0.351,0.907,15.05,39.67,44.98,1,1
16352.546,0.307,0.345,0.907,14.71,38.3,43.24,1,1
16352.562,0.299,0.346,0.914,14.25,37.32,40.1,1,1
16352.578,0.287,0.359,0.932,13.09,35.16,36.38,1,1
16352.578,0.276,0.355,0.927,13.34,32.23,32.32,1,1
16352.593,0.272,0.354,0.909,14.8,29.39,28.84,1,1
16352.609,0.261,0.366,0.892,15.87,26.61,25.45,1,1
16352.609,0.245,0.378,0.88,16.72,24.51,22.55,1,1
16352.625,0.239,0.386,0.871,17.73,22.95,22.74,1,1
16352.625,0.233,0.395,0.86,18.01,21.67,23.93,1,1
16352.64,0.235,0.398,0.858,16.66,19.96,24.23,1,1
16352.656,0.237,0.403,0.869,13.76,17.73,23.19,1,1
16352.656,0.251,0.392,0.871,11.84,14.44,20.78,1,1
16352.671,0.259,0.383,0.865,11.35,10.99,17.21,1,1
16352.687,0.259,0.4,0.866,10.96,8.73,13.55,1,1
16352.687,0.252,0.412,0.866,10.41,7.14,11.63,1,1
16352.703,0.251,0.422,0.871,9.8,6.32,11.75,1,1
16352.703,0.252,0.426,0.87,10.19,6.2,12.39,1,1
16352.718,0.249,0.415,0.869,11.66,7.11,14.59,1,1
16352.734,0.258,0.414,0.874,13.79,8.18,16.91,1,1
16352.75,0.254,0.406,0.88,15.78,7.87,15.75,1,1
16352.75,0.251,0.393,0.878,16.27,4.82,12.88,1,1
16352.765,0.251,0.405,0.874,15.2,0.7,9.98,1,1
16352.765,0.25,0.418,0.864,14.28,-2.59,7.17,1,1
16352.781,0.242,0.428,0.859,14.5,-3.94,5.58,1,1
16352.796,0.228,0.439,0.853,16.33,-3.23,7.26,1,1
16352.796,0.231,0.447,0.852,18.98,-1.13,11.78,1,1
16352.812,0.242,0.452,0.863,21.79,1.1,15.9,1,1
16352.812,0.243,0.452,0.861,24.6,2.11,16.75,1,1
16352.828,0.246,0.451,0.85,26.67,1.92,16.33,1,1
16352.843,0.244,0.465,0.837,28.41,2.26,16.97,1,1
16352.843,0.25,0.472,0.828,31.25,4.15,19.44,1,1
16352.859,0.267,0.464,0.83,34.94,7.23,24.02,1,1
16352.875,0.282,0.455,0.843,38.82,9.7,27.01,1,1
16352.875,0.283,0.444,0.849,42.63,10.44,27.62,1,1
16352.89,0.289,0.434,0.861,45.53,10.16,29.45,1,1
16352.906,0.303,0.409,0.883,48.1,9.16,29.76,1,1
16352.906,0.313,0.361,0.872,49.81,5.8,24.99,1,1
16352.921,0.325,0.329,0.853,45.23,-2.53,16.75,1,1
16352.937,0.313,0.334,0.856,35.4,-13.06,8.67,1,1
16352.937,0.282,0.354,0.913,23.83,-27.04,2.87,1,1
16352.953,0.316,0.361,0.959,13.64,-47.12,-1.53,1,1
16352.953,0.386,0.386,0.933,1.86,-68.15,-11.57,1,1
16352.968,0.418,0.408,0.876,-11.93,-82.67,-26.15,1,1
16352.984,0.424,0.416,0.835,-28.87,-91.1,-40.96,1,1
16352.984,0.451,0.448,0.783,-49.26,-97.11,-58.11,1,1
16353.0,0.437,0.424,0.715,-69.19,-97.75,-76.91,1,1
16353.015,0.442,0.45,0.688,-86.21,-91.46,-89.36,1,1
16353.031,0.431,0.48,0.701,-98.64,-78.22,-93.69,1,1
16353.031,0.407,0.447,0.715,-96.22,-58.84,-93.78,1,1
16353.046,0.383,0.466,0.734,-78.13,-36.07,-87.65,1,1
16353.046,0.338,0.554,0.721,-55.06,-12.73,-76.14,1,1
16353.062,0.296,0.649,0.731,-25.67,20.78,-51.27,1,1
16353.078,0.237,0.693,0.799,-20.29,21.76,-35.98,1,1
16353.078,0.195,0.699,0.831,-14.56,16.82,-22.64,1,1
16353.093,0.177,0.633,0.807,-8.45,12.85,-9.95,1,1
16353.109,0.175,0.554,0.827,-5.04,10.74,2.66,1,1
16353.109,0.236,0.477,0.861,-4.64,4.0,12.02,1,1
16353.125,0.259,0.45,0.829,-2.14,0.79,17.52,1,1
16353.125,0.281,0.427,0.828,4.91,3.97,22.31,1,1
16353.14,0.281,0.425,0.835,11.93,8.55,25.03,1,1
16353.156,0.289,0.436,0.854,14.37,11.66,25.88,1,1
16353.171,0.286,0.422,0.865,12.76,12.42,25.39,1,1
16353.171,0.301,0.402,0.87,10.68,12.24,24.29,1,1
16353.187,0.308,0.387,0.864,10.44,12.33,22.89,1,1
16353.187,0.312,0.378,0.853,10.96,12.39,20.87,1,1
16353.203,0.321,0.366,0.859,10.16,11.57,17.98,1,1
16353.203,0.324,0.364,0.857,9.06,9.37,13.28,1,1
16353.218,0.325,0.381,0.845,8.42,6.62,7.81,1,1
16353.234,0.316,0.417,0.833,7.54,4.91,3.54,1,1
16353.234,0.298,0.454,0.841,6.01,4.18,2.81,1,1
16353.25,0.297,0.477,0.843,4.85,3.69,5.86,1,1
16353.265,0.301,0.481,0.833,4.64,3.48,9.09,1,1
16353.265,0.303,0.476,0.825,4.27,3.45,10.96,1,1
16353.281,0.308,0.465,0.819,4.94,4.09,12.97,1,1
16353.296,0.311,0.461,0.822,6.44,4.33,14.71,1,1
16353.296,0.317,0.457,0.819,7.02,3.27,14.95,1,1
16353.312,0.321,0.454,0.814,5.98,0.95,13.37,1,1
16353.328,0.325,0.442,0.816,3.57,-2.11,10.71,1,1
16353.328,0.33,0.436,0.815,0.98,-5.28,7.63,1,1
16353.343,0.337,0.438,0.811,-1.37,-7.35,4.76,1,1
16353.343,0.33,0.445,0.81,-3.05,-7.72,2.41,1,1
16353.359,0.327,0.445,0.818,-4.76,-7.35,2.11,1,1
16353.375,0.329,0.444,0.834,-5.89,-7.2,1.83,1,1
16353.375,0.325,0.447,0.831,-5.98,-7.23,0.55,1,1
16353.39,0.325,0.447,0.839,-5.83,-6.29,0.24,1,1
16353.406,0.328,0.432,0.848,-4.49,-5.19,-0.06,1,1
16353.406,0.33,0.428,0.84,-3.08,-4.61,-1.4,1,1
16353.421,0.321,0.443,0.836,-3.33,-4.18,-2.41,1,1
16353.437,0.317,0.446,0.836,-3.42,-4.46,-2.41,1,1
16353.437,0.323,0.426,0.835,-2.44,-4.33,-1.92,1,1
16353.453,0.323,0.421,0.838,-2.08,-4.36,-2.23,1,1
16353.468,0.326,0.424,0.838,-2.29,-5.19,-3.33,1,1
16353.468,0.323,0.433,0.84,-1.77,-5.68,-4.79,1,1
16353.484,0.325,0.424,0.836,-0.89,-6.56,-6.01,1,1
16353.484,0.329,0.423,0.833,-0.7,-7.97,-7.97,1,1
16353.5,0.324,0.43,0.83,-1.07,-8.88,-9.7,1,1
16353.515,0.327,0.445,0.824,-1.65,-9.09,-10.19,1,1
16353.515,0.332,0.441,0.825,-1.65,-8.55,-9.98,1,1
16353.531,0.332,0.442,0.828,-2.32,-8.36,-11.05,1,1
16353.546,0.328,0.447,0.833,-3.39,-8.21,-12.3,1,1
16353.546,0.33,0.45,0.826,-2.69,-7.39,-12.24,1,1
16353.562,0.33,0.451,0.823,-1.56,-6.32,-11.81,1,1
16353.562,0.331,0.454,0.828,-1.68,-5.28,-11.84,1,1
16353.578,0.325,0.445,0.833,-1.95,-4.58,-12.18,1,1
16353.593,0.323,0.425,0.838,-3.02,-4.39,-12.54,1,1
16353.609,0.317,0.421,0.836,-2.56,-4.61,-12.63,1,1
16353.609,0.32,0.425,0.84,-0.98,-4.58,-11.51,1,1
16353.625,0.323,0.431,0.833,0.06,-4.52,-10.47,1,1
16353.625,0.325,0.432,0.826,0.73,-4.3,-10.13,1,1
16353.64,0.319,0.448,0.819,0.09,-3.88,-10.53,1,1
16353.656,0.309,0.453,0.821,-2.23,-4.06,-10.8,1,1
16353.671,0.298,0.447,0.831,-3.39,-3.85,-9.37,1,1
16353.671,0.296,0.457,0.826,-2.29,-3.72,-7.02,1,1
16353.687,0.294,0.468,0.822,-0.98,-3.23,-4.46,1,1
16353.687,0.295,0.467,0.822,0.49,-2.53,-1.98,1,1
16353.703,0.299,0.459,0.82,0.79,-2.56,-0.37,1,1
16353.703,0.302,0.456,0.819,-1.4,-3.42,0.46,1,1
16353.718,0.31,0.454,0.816,-3.42,-4.49,1.1,1,1
16353.734,0.318,0.449,0.815,-4.58,-5.1,1.53,1,1
16353.734,0.321,0.448,0.82,-5.8,-5.95,1.34,1,1
16353.75,0.327,0.447,0.823,-6.78,-6.81,0.95,1,1
16353.765,0.332,0.442,0.832,-7.23,-6.93,0.52,1,1
16353.765,0.334,0.429,0.827,-7.26,-7.84,-0.46,1,1
16353.781,0.338,0.431,0.826,-7.05,-8.21,-1.16,1,1
16353.796,0.333,0.435,0.828,-6.53,-7.42,-0.89,1,1
16353.796,0.334,0.437,0.832,-6.56,-6.53,-0.03,1,1
16353.812,0.328,0.441,0.833,-6.13,-5.55,0.34,1,1
16353.828,0.324,0.444,0.838,-5.58,-4.79,1.04,1,1
16353.828,0.317,0.441,0.853,-5.07,-4.39,1.95,1,1
16353.843,0.318,0.432,0.843,-4.15,-4.79,2.32,1,1
16353.859,0.328,0.428,0.833,-3.88,-5.58,2.53,1,1
16353.859,0.331,0.427,0.83,-3.97,-5.62,2.38,1,1
16353.875,0.332,0.427,0.819,-4.43,-5.89,2.35,1,1
16353.89,0.339,0.437,0.818,-6.62,-6.26,2.35,1,1
16353.89,0.338,0.46,0.829,-9.92,-5.62,2.14,1,1
16353.906,0.341,0.476,0.819,-12.88,-4.15,2.38,1,1
16353.906,0.339,0.463,0.822,-16.08,-0.76,4.03,1,1
16353.921,0.333,0.443,0.852,-19.2,1.43,6.32,1,1
16353.937,0.335,0.415,0.858,-20.36,0.37,7.05,1,1
16353.937,0.332,0.408,0.853,-22.55,-2.47,5.98,1,1
16353.953,0.333,0.41,0.858,-26.98,-6.41,2.35,1,1
16353.953,0.331,0.377,0.833,-28.93,-8.76,-2.17,1,1
16353.968,0.335,0.38,0.822,-28.38,-7.66,-5.49,1,1
16353.984,0.297,0.383,0.829,-22.4,-5.8,-5.4,1,1
16353.984,0.314,0.402,0.801,-16.66,-5.95,-2.87,1,1
16354.0,0.328,0.415,0.835,-15.5,-2.93,0.79,1,1
16354.015,0.33,0.367,0.88,-13.73,1.43,3.75,1,1
16354.015,0.336,0.332,0.897,-9.92,4.43,4.88,1,1
16354.031,0.337,0.304,0.896,-4.09,5.46,4.21,1,1
16354.046,0.348,0.292,0.891,3.42,6.2,3.2,1,1
16354.046,0.358,0.316,0.882,17.43,6.9,-1.1,1,1
16354.062,0.352,0.347,0.869,19.81,5.28,-1.98,1,1
16354.078,0.357,0.394,0.842,17.18,4.36,-1.46,1,1
16354.078,0.325,0.494,0.798,10.53,3.14,0.55,1,1
16354.093,0.354,0.475,0.739,2.23,0.67,2.01,1,1
16354.093,0.312,0.49,0.757,-6.99,1.8,2.75,1,1
16354.109,0.301,0.458,0.826,-12.51,1.07,5.68,1,1
16354.125,0.291,0.433,0.876,-15.47,-3.42,8.33,1,1
16354.14,0.314,0.383,0.874,-15.78,-8.51,10.22,1,1
16354.14,0.338,0.346,0.885,-14.16,-10.53,11.26,1,1
16354.156,0.348,0.326,0.891,-9.03,-10.22,10.62,1,1
16354.156,0.354,0.32,0.896,-3.05,-9.67,9.37,1,1
16354.171,0.36,0.329,0.895,2.23,-9.22,7.75,1,1
16354.187,0.364,0.354,0.892,6.68,-8.39,5.71,1,1
16354.187,0.362,0.378,0.879,10.32,-7.6,4.12,1,1
16354.203,0.354,0.413,0.863,12.18,-7.08,3.33,1,1
16354.203,0.346,0.426,0.845,11.96,-6.65,3.14,1,1
16354.218,0.34,0.42,0.842,10.65,-6.74,3.78,1,1
16354.234,0.341,0.424,0.84,9.34,-6.47,5.25,1,1
16354.234,0.344,0.42,0.846,9.0,-5.07,7.26,1,1
16354.25,0.337,0.404,0.859,9.55,-4.09,9.55,1,1
16354.265,0.344,0.386,0.861,10.19,-4.55,10.59,1,1
16354.265,0.342,0.376,0.871,11.17,-5.19,10.5,1,1
16354.281,0.338,0.378,0.877,14.1,-6.1,10.65,1,1
16354.296,0.328,0.385,0.884,18.16,-7.75,11.63,1,1
16354.312,0.345,0.384,0.847,21.91,-9.86,13.0,1,1
16354.312,0.369,0.401,0.819,22.58,-9.58,13.43,1,1
16354.328,0.38,0.414,0.804,22.49,-6.5,13.86,1,1
16354.328,0.383,0.422,0.794,20.66,-2.99,13.49,1,1
16354.343,0.389,0.421,0.794,17.67,-0.09,12.7,1,1
16354.359,0.395,0.419,0.798,14.65,2.14,10.93,1,1
16354.359,0.403,0.413,0.793,11.87,4.06,8.61,1,1
16354.375,0.402,0.407,0.797,8.91,5.89,5.8,1,1
16354.375,0.399,0.406,0.805,6.35,6.84,2.66,1,1
16354.39,0.394,0.408,0.815,3.81,6.84,-1.22,1,1
16354.406,0.375,0.415,0.828,2.38,6.32,-4.03,1,1
16354.421,0.357,0.431,0.834,3.54,5.95,-3.69,1,1
16354.421,0.348,0.44,0.827,6.13,5.8,-1.59,1,1
16354.421,0.344,0.432,0.825,6.47,5.22,0.21,1,1
16354.437,0.339,0.427,0.818,4.76,3.57,1.4,1,1
16354.453,0.343,0.426,0.807,3.33,1.8,2.59,1,1
16354.453,0.347,0.429,0.798,2.11,0.4,3.94,1,1
16354.468,0.35,0.432,0.789,-0.82,-1.04,4.36,1,1
16354.484,0.358,0.428,0.787,-6.2,-2.75,3.08,1,1
16354.5,0.365,0.431,0.777,-11.84,-3.81,1.59,1,1
16354.5,0.379,0.445,0.783,-16.02,-2.93,1.37,1,1
16354.515,0.382,0.45,0.819,-19.29,-1.13,1.5,1,1
16354.515,0.384,0.421,0.844,-20.87,-0.61,0.4,1,1
16354.531,0.382,0.385,0.857,-21.03,-1.01,-1.83,1,1
16354.546,0.394,0.35,0.859,-19.29,-2.17,-5.16,1,1
16354.546,0.397,0.336,0.865,-15.5,-2.26,-9.06,1,1
16354.562,0.391,0.346,0.873,-10.07,-1.19,-12.54,1,1
16354.562,0.379,0.365,0.866,-3.97,-0.03,-14.62,1,1
16354.578,0.36,0.401,0.858,0.06,0.76,-15.53,1,1
16354.593,0.337,0.433,0.835,1.68,0.55,-14.8,1,1
16354.609,0.336,0.461,0.824,0.34,1.13,-11.81,1,1
16354.609,0.327,0.467,0.818,-3.3,1.65,-8.03,1,1
16354.625,0.318,0.466,0.832,-9.43,0.85,-4.06,1,1
16354.625,0.327,0.448,0.834,-13.89,-0.37,0.09,1,1
16354.64,0.333,0.451,0.835,-19.99,-0.4,3.63,1,1
16354.656,0.34,0.403,0.876,-25.97,-0.58,7.11,1,1
16354.671,0.38,0.348,0.864,-26.98,-0.18,7.75,1,1
16354.671,0.38,0.298,0.87,-22.31,4.91,7.57,1,1
16354.687,0.379,0.254,0.875,-11.38,10.8,6.96,1,1
16354.687,0.369,0.271,0.866,1.46,15.75,5.77,1,1
16354.703,0.342,0.286,0.862,12.02,18.01,5.55,1,1
16354.718,0.32,0.324,0.856,20.36,16.72,5.71,1,1
16354.718,0.294,0.386,0.842,28.32,13.76,6.07,1,1
16354.734,0.289,0.49,0.854,32.62,7.05,5.77,1,1
16354.734,0.308,0.501,0.808,28.96,-2.38,6.5,1,1
16354.75,0.34,0.5,0.788,15.72,-7.02,4.79,1,1
16354.765,0.324,0.456,0.794,7.66,-6.32,4.97,1,1
16354.765,0.34,0.437,0.763,1.34,-4.58,6.93,1,1
16354.781,0.34,0.431,0.797,-4.55,0.46,8.21,1,1
16354.796,0.298,0.412,0.843,-6.35,3.02,10.01,1,1
16354.796,0.293,0.409,0.841,-8.0,0.18,13.52,1,1
16354.812,0.343,0.392,0.912,-8.61,-4.43,16.88,1,1
16354.828,0.351,0.389,0.884,-4.3,-7.9,18.4,1,1
16354.828,0.384,0.368,0.871,-0.55,-8.48,19.59,1,1
16354.843,0.411,0.344,0.853,2.5,-7.23,17.49,1,1
16354.843,0.417,0.343,0.848,4.43,-4.7,13.37,1,1
16354.859,0.43,0.365,0.847,6.71,-2.29,8.18,1,1
16354.875,0.407,0.379,0.834,8.18,-0.18,3.51,1,1
16354.875,0.392,0.398,0.816,7.6,1.19,1.43,1,1
16354.89,0.374,0.422,0.783,5.92,2.9,0.95,1,1
16354.906,0.363,0.419,0.781,1.34,4.73,2.08,1,1
16354.921,0.385,0.416,0.785,-4.76,5.58,2.29,1,1
16354.921,0.378,0.411,0.769,-9.86,6.71,0.52,1,1
16354.937,0.373,0.407,0.778,-14.95,9.22,0.0,1,1
16354.937,0.364,0.402,0.797,-19.26,11.14,-0.43,1,1
16354.953,0.357,0.402,0.814,-22.98,11.78,-0.92,1,1
16354.968,0.353,0.397,0.829,-26.55,11.51,-1.5,1,1
16354.968,0.353,0.384,0.843,-28.87,10.62,-1.74,1,1
16354.984,0.36,0.374,0.857,-30.34,9.67,-2.53,1,1
16354.984,0.359,0.352,0.875,-30.61,8.67,-4.3,1,1
16355.0,0.358,0.335,0.885,-29.76,7.84,-6.23,1,1
16355.015,0.312,0.339,0.936,-27.07,7.35,-7.51,1,1
16355.031,0.321,0.319,1.02,-19.87,1.74,-6.99,1,1
16355.031,0.37,0.294,0.976,-1.22,-6.99,-15.56,1,1
16355.046,0.376,0.278,0.94,7.69,-6.53,-20.51,1,1
16355.046,0.367,0.282,0.932,14.07,-7.2,-25.73,1,1
16355.062,0.362,0.306,0.911,17.49,-8.06,-30.37,1,1
16355.078,0.339,0.356,0.874,18.56,-8.97,-34.85,1,1
16355.078,0.324,0.364,0.855,15.02,-9.34,-39.37,1,1
16355.093,0.301,0.339,0.866,8.18,-9.7,-40.8,1,1
16355.093,0.297,0.339,0.873,4.76,-10.71,-39.12,1,1
16355.109,0.296,0.34,0.864,3.97,-12.12,-37.23,1,1
16355.125,0.301,0.348,0.862,2.81,-13.12,-35.77,1,1
16355.125,0.303,0.355,0.87,1.74,-13.86,-35.07,1,1
16355.14,0.306,0.356,0.877,-0.92,-15.41,-36.53,1,1
16355.156,0.303,0.371,0.885,-4.33,-18.04,-40.01,1,1
16355.156,0.293,0.368,0.887,-6.32,-20.17,-41.99,1,1
16355.171,0.304,0.374,0.876,-6.32,-21.12,-40.65,1,1
16355.187,0.31,0.383,0.857,-4.27,-19.68,-37.69,1,1
16355.187,0.314,0.386,0.84,-2.08,-16.54,-34.09,1,1
16355.203,0.321,0.395,0.834,-1.71,-12.76,-30.61,1,1
16355.203,0.322,0.404,0.843,-2.47,-9.16,-27.62,1,1
16355.218,0.317,0.412,0.852,-3.51,-6.5,-25.06,1,1
16355.234,0.317,0.415,0.853,-4.76,-5.74,-23.47,1,1
16355.234,0.321,0.411,0.851,-5.92,-5.68,-22.58,1,1
16355.25,0.321,0.403,0.853,-7.54,-6.1,-22.28,1,1
16355.265,0.319,0.403,0.853,-8.18,-7.35,-22.55,1,1
16355.281,0.321,0.406,0.844,-7.2,-8.24,-22.34,1,1
16355.281,0.325,0.4,0.833,-5.55,-8.33,-21.09,1,1
16355.296,0.328,0.402,0.829,-3.51,-7.72,-19.56,1,1
16355.296,0.329,0.411,0.821,-0.76,-6.78,-17.67,1,1
16355.312,0.334,0.426,0.819,1.71,-5.34,-14.92,1,1
16355.328,0.335,0.448,0.825,2.9,-4.33,-12.54,1,1
16355.328,0.336,0.459,0.823,2.08,-4.91,-11.35,1,1
16355.343,0.343,0.462,0.822,-0.4,-6.01,-10.41,1,1
16355.343,0.348,0.462,0.827,-2.29,-6.38,-9.19,1,1
16355.359,0.35,0.453,0.823,-2.81,-6.81,-8.36,1,1
16355.375,0.35,0.437,0.822,-2.38,-7.6,-8.09,1,1
16355.375,0.354,0.449,0.824,0.34,-7.54,-8.88,1,1
16355.39,0.35,0.474,0.82,5.74,-6.26,-9.74,1,1
16355.406,0.339,0.499,0.81,12.33,-3.78,-9.28,1,1
16355.406,0.329,0.525,0.806,16.33,-1.43,-7.97,1,1
16355.421,0.317,0.526,0.827,15.59,-0.27,-5.19,1,1
16355.421,0.317,0.527,0.808,18.28,-0.89,-1.59,1,1
16355.437,0.328,0.528,0.767,19.38,-2.81,0.7,1,1
16355.453,0.325,0.518,0.757,13.67,-5.07,0.98,1,1
16355.468,0.334,0.517,0.788,10.62,-6.2,2.84,1,1
16355.468,0.358,0.523,0.786,12.97,-6.65,6.93,1,1
16355.484,0.366,0.523,0.768,13.92,-6.32,8.3,1,1
16355.484,0.361,0.517,0.768,13.95,-3.75,8.88,1,1
16355.5,0.361,0.51,0.759,15.29,0.89,10.8,1,1
16355.515,0.35,0.512,0.762,16.08,6.59,12.6,1,1
16355.515,0.331,0.513,0.777,16.02,13.31,14.56,1,1
16355.531,0.307,0.531,0.797,13.06,18.77,16.94,1,1
16355.546,0.287,0.519,0.811,9.61,21.79,20.23,1,1
16355.546,0.278,0.495,0.818,7.02,22.77,23.62,1,1
16355.562,0.283,0.461,0.825,5.43,22.52,25.51,1,1
16355.562,0.288,0.421,0.837,3.57,21.36,24.87,1,1
16355.578,0.289,0.386,0.855,1.25,18.8,22.34,1,1
16355.593,0.283,0.358,0.868,-0.67,15.53,19.29,1,1
16355.593,0.284,0.334,0.879,-1.25,12.21,17.33,1,1
16355.609,0.29,0.317,0.883,-0.34,8.97,15.2,1,1
16355.625,0.295,0.303,0.886,1.1,6.5,13.09,1,1
16355.625,0.3,0.303,0.888,1.92,3.72,10.41,1,1
16355.64,0.302,0.299,0.886,2.2,1.34,7.87,1,1
16355.656,0.309,0.294,0.883,2.44,-0.12,5.8,1,1
16355.656,0.308,0.288,0.878,3.17,-1.28,3.6,1,1
16355.671,0.305,0.293,0.875,3.72,-2.32,1.22,1,1
16355.687,0.293,0.308,0.879,3.17,-4.36,-1.98,1,1
16355.687,0.279,0.317,0.884,1.74,-8.27,-5.4,1,1
16355.703,0.269,0.341,0.903,-2.29,-15.53,-9.46,1,1
16355.703,0.277,0.36,0.916,-7.69,-25.3,-12.79,1,1
16355.718,0.299,0.358,0.916,-10.9,-33.33,-13.92,1,1
16355.734,0.317,0.338,0.905,-9.52,-37.84,-13.89,1,1
16355.734,0.338,0.337,0.895,-5.71,-39.83,-14.16,1,1
16355.75,0.359,0.34,0.876,0.61,-39.4,-15.14,1,1
16355.765,0.374,0.347,0.844,7.63,-36.59,-16.14,1,1
16355.781,0.382,0.368,0.824,13.0,-32.5,-17.52,1,1
16355.781,0.381,0.397,0.808,16.6,-28.63,-19.65,1,1
16355.796,0.37,0.437,0.81,16.6,-26.12,-21.39,1,1
16355.796,0.355,0.527,0.832,10.13,-25.82,-21.45,1,1
16355.812,0.343,0.595,0.842,0.27,-27.65,-19.53,1,1
16355.828,0.347,0.575,0.843,-7.39,-30.03,-15.87,1,1
16355.828,0.363,0.528,0.838,-9.7,-31.34,-11.87,1,1
16355.843,0.38,0.492,0.818,-6.16,-30.58,-9.7,1,1
16355.843,0.391,0.478,0.796,0.4,-27.89,-9.09,1,1
16355.859,0.39,0.477,0.767,6.93,-23.62,-9.25,1,1
16355.875,0.387,0.483,0.747,10.77,-18.65,-8.58,1,1
16355.875,0.386,0.484,0.739,12.12,-12.97,-6.9,1,1
16355.89,0.389,0.492,0.731,12.73,-6.93,-4.97,1,1
16355.906,0.385,0.498,0.727,11.38,-1.31,-3.66,1,1
16355.906,0.372,0.502,0.735,7.9,3.02,-3.48,1,1
16355.921,0.356,0.507,0.75,4.0,6.53,-2.2,1,1
16355.937,0.341,0.497,0.758,0.89,8.97,0.4,1,1
16355.937,0.342,0.488,0.774,-1.4,10.01,2.81,1,1
16355.953,0.345,0.479,0.787,-2.59,10.28,3.81,1,1
16355.953,0.345,0.462,0.792,-2.78,10.13,3.91,1,1
16355.968,0.346,0.45,0.793,-1.95,10.53,4.03,1,1
16355.984,0.347,0.453,0.799,-0.58,11.44,4.52,1,1
16356.0,0.347,0.452,0.804,0.89,12.6,4.76,1,1
16356.0,0.345,0.459,0.813,-0.06,12.48,4.0,1,1
16356.015,0.346,0.469,0.823,-2.29,11.38,2.99,1,1
16356.015,0.352,0.451,0.825,-1.59,9.37,1.74,1,1
16356.031,0.355,0.433,0.806,-1.46,9.28,0.82,1,1
16356.046,0.356,0.433,0.809,-0.67,8.82,-0.24,1,1
16356.062,0.361,0.432,0.804,-0.27,8.09,-1.13,1,1
16356.062,0.353,0.438,0.804,-1.13,6.65,-2.04,1,1
16356.078,0.354,0.443,0.81,-2.2,4.85,-1.68,1,1
16356.078,0.361,0.451,0.812,-2.23,3.08,-0.58,1,1
16356.093,0.369,0.464,0.814,-2.66,1.13,-0.21,1,1
16356.093,0.384,0.47,0.822,-3.81,-0.31,-0.31,1,1
16356.109,0.401,0.466,0.823,-4.27,-1.37,-1.22,1,1
16356.125,0.406,0.452,0.778,-4.91,-1.28,-3.39,1,1
16356.14,0.397,0.461,0.769,-5.71,1.77,-4.76,1,1
16356.14,0.384,0.466,0.776,-5.71,4.79,-5.01,1,1
16356.156,0.373,0.475,0.778,-8.39,6.26,-5.28,1,1
16356.156,0.368,0.473,0.782,-12.63,7.23,-5.86,1,1
16356.171,0.348,0.462,0.787,-15.93,8.36,-5.8,1,1
16356.187,0.337,0.454,0.798,-18.28,9.34,-5.46,1,1
16356.187,0.322,0.453,0.822,-19.32,10.13,-4.91,1,1
16356.203,0.318,0.454,0.852,-18.25,9.03,-3.97,1,1
16356.203,0.321,0.448,0.851,-16.54,6.56,-3.75,1,1
16356.218,0.326,0.446,0.845,-14.89,5.07,-3.94,1,1
16356.234,0.321,0.43,0.845,-13.06,5.07,-3.78,1,1
16356.234,0.315,0.422,0.854,-10.9,6.13,-2.78,1,1
16356.25,0.304,0.425,0.867,-8.94,6.26,-1.65,1,1
16356.265,0.307,0.412,0.868,-7.75,4.82,-0.73,1,1
16356.265,0.308,0.398,0.875,-7.26,3.63,-1.04,1,1
16356.281,0.302,0.382,0.884,-6.38,2.14,-1.92,1,1
16356.296,0.31,0.376,0.872,-2.41,1.31,-1.65,1,1
16356.296,0.312,0.392,0.853,1.98,1.98,-1.89,1,1
16356.312,0.308,0.401,0.841,3.42,3.63,-3.75,1,1
16356.328,0.299,0.412,0.846,0.61,4.82,-5.92,1,1
16356.328,0.282,0.408,0.857,-3.72,5.01,-7.35,1,1
16356.343,0.278,0.4,0.864,-6.68,4.55,-7.45,1,1
16356.343,0.279,0.391,0.87,-8.24,4.0,-7.23,1,1
16356.359,0.281,0.376,0.873,-7.81,3.69,-8.36,1,1
16356.375,0.282,0.366,0.87,-5.62,3.72,-9.55,1,1
16356.375,0.283,0.365,0.863,-2.87,4.03,-10.47,1,1
16356.39,0.285,0.363,0.861,0.64,4.43,-11.14,1,1
16356.406,0.29,0.375,0.864,3.88,4.58,-11.41,1,1
16356.406,0.287,0.394,0.864,6.5,4.03,-11.81,1,1
16356.421,0.285,0.414,0.872,7.48,2.9,-11.23,1,1
16356.437,0.293,0.436,0.879,7.42,1.1,-10.07,1,1
16356.437,0.297,0.448,0.877,6.96,-1.34,-9.19,1,1
16356.453,0.303,0.458,0.869,5.58,-3.97,-8.42,1,1
16356.468,0.311,0.461,0.847,4.3,-5.74,-7.87,1,1
16356.468,0.32,0.459,0.831,3.27,-6.23,-6.93,1,1
16356.484,0.326,0.461,0.812,3.05,-6.38,-5.74,1,1
16356.484,0.333,0.466,0.8,3.3,-6.65,-4.91,1,1
16356.5,0.338,0.463,0.789,3.94,-6.78,-4.36,1,1
16356.515,0.34,0.462,0.783,5.8,-6.53,-3.6,1,1
16356.515,0.345,0.469,0.774,8.61,-5.77,-2.35,1,1
16356.531,0.347,0.48,0.763,11.08,-4.67,-1.07,1,1
16356.546,0.348,0.49,0.761,12.6,-3.3,0.21,1,1
16356.546,0.35,0.5,0.769,13.49,-2.11,0.82,1,1
16356.562,0.341,0.508,0.774,13.79,-1.56,1.04,1,1
16356.578,0.335,0.51,0.779,13.76,-1.83,1.98,1,1
16356.578,0.335,0.511,0.787,12.82,-2.62,3.51,1,1
16356.593,0.337,0.511,0.796,11.44,-3.11,4.64,1,1
16356.593,0.337,0.504,0.804,9.4,-3.6,5.16,1,1
16356.609,0.336,0.5,0.812,5.86,-4.7,4.64,1,1
16356.625,0.339,0.493,0.818,2.69,-5.46,4.18,1,1
16356.625,0.344,0.484,0.819,1.04,-5.13,4.24,1,1
16356.64,0.34,0.483,0.824,0.58,-3.78,4.36,1,1
16356.656,0.335,0.473,0.83,1.1,-2.75,5.16,1,1
16356.671,0.335,0.469,0.829,2.26,-1.8,6.78,1,1
16356.671,0.338,0.464,0.825,3.66,-0.4,8.06,1,1
16356.687,0.339,0.466,0.819,5.25,1.98,8.7,1,1
16356.687,0.331,0.467,0.818,7.05,4.91,9.34,1,1
16356.703,0.323,0.462,0.823,7.78,7.29,10.01,1,1
16356.718,0.319,0.465,0.828,6.81,8.48,10.44,1,1
16356.718,0.317,0.466,0.835,4.12,8.76,10.38,1,1
16356.734,0.315,0.459,0.838,0.61,8.33,9.46,1,1
16356.734,0.31,0.45,0.845,-2.78,8.03,8.64,1,1
16356.75,0.315,0.432,0.844,-5.31,8.06,8.15,1,1
16356.765,0.32,0.422,0.856,-7.42,9.09,6.26,1,1
16356.765,0.308,0.411,0.866,-7.97,9.95,4.06,1,1
16356.781,0.304,0.405,0.876,-7.9,10.19,2.93,1,1
16356.796,0.304,0.396,0.88,-6.81,9.89,2.47,1,1
16356.796,0.309,0.386,0.869,-4.03,9.43,2.26,1,1
16356.812,0.303,0.386,0.862,-0.46,9.95,1.74,1,1
16356.812,0.288,0.39,0.867,3.85,9.55,1.98,1,1
16356.828,0.288,0.409,0.873,8.91,5.19,2.69,1,1
16356.843,0.3,0.41,0.871,14.16,-0.98,3.33,1,1
16356.843,0.324,0.407,0.875,18.13,-6.41,3.23,1,1
16356.859,0.355,0.387,0.886,19.17,-10.9,1.34,1,1
16356.875,0.384,0.363,0.883,17.88,-13.89,-2.14,1,1
16356.875,0.407,0.35,0.877,15.96,-14.56,-5.16,1,1
16356.89,0.416,0.33,0.883,14.04,-14.65,-9.43,1,1
16356.906,0.423,0.319,0.889,12.12,-15.02,-14.04,1,1
16356.921,0.433,0.326,0.89,9.98,-15.81,-18.52,1,1
16356.921,0.428,0.34,0.891,7.81,-17.0,-23.44,1,1
16356.921,0.418,0.363,0.893,5.46,-18.68,-26.58,1,1
16356.937,0.414,0.39,0.891,3.39,-20.29,-27.71,1,1
16356.953,0.415,0.407,0.889,2.01,-22.1,-28.44,1,1
16356.968,0.416,0.427,0.884,0.46,-23.8,-29.24,1,1
16356.968,0.42,0.445,0.881,-0.79,-24.96,-29.94,1,1
16356.984,0.416,0.456,0.88,-0.92,-25.94,-31.43,1,1
16356.984,0.413,0.464,0.874,0.73,-26.86,-32.84,1,1
16357.0,0.426,0.483,0.856,5.86,-26.09,-36.1,1,1
16357.015,0.42,0.481,0.824,7.35,-24.6,-38.21,1,1
16357.015,0.415,0.482,0.789,7.6,-22.43,-39.37,1,1
16357.031,0.404,0.469,0.747,5.86,-19.56,-39.09,1,1
16357.046,0.409,0.455,0.68,2.62,-15.41,-39.74,1,1
16357.046,0.405,0.442,0.658,-2.66,-9.58,-40.77,1,1
16357.062,0.413,0.454,0.652,-11.32,-1.53,-43.21,1,1
16357.078,0.408,0.488,0.646,-22.25,8.09,-51.24,1,1
16357.078,0.361,0.458,0.653,-34.27,17.33,-59.54,1,1
16357.093,0.328,0.478,0.704,-42.91,25.18,-63.6,1,1
16357.109,0.28,0.462,0.729,-43.09,29.11,-65.0,1,1
16357.109,0.252,0.434,0.733,-39.74,29.6,-64.64,1,1
16357.125,0.237,0.458,0.743,-35.89,30.88,-64.55,1,1
16357.125,0.204,0.487,0.753,-33.78,32.29,-65.25,1,1
16357.14,0.18,0.474,0.781,-32.93,31.71,-64.33,1,1
16357.156,0.161,0.484,0.785,-31.16,32.01,-62.59,1,1
16357.156,0.14,0.493,0.786,-29.45,33.85,-61.89,1,1
16357.171,0.128,0.521,0.796,-28.17,35.83,-61.1,1,1
16357.187,0.108,0.54,0.803,-26.06,38.15,-59.94,1,1
16357.187,0.092,0.548,0.821,-25.09,38.67,-58.44,1,1
16357.203,0.075,0.568,0.84,-25.79,37.05,-57.89,1,1
16357.218,0.082,0.578,0.86,-27.95,33.6,-54.75,1,1
16357.218,0.055,0.567,0.868,-32.47,28.2,-50.94,1,1
16357.234,0.05,0.548,0.877,-34.64,23.26,-47.94,1,1
16357.234,0.05,0.54,0.878,-33.81,19.41,-45.9,1,1
16357.25,0.06,0.515,0.865,-30.03,15.78,-44.1,1,1
16357.265,0.037,0.505,0.865,-27.16,11.9,-41.78,1,1
16357.265,0.036,0.509,0.866,-22.46,9.4,-39.55,1,1
16357.281,0.031,0.505,0.866,-18.31,7.08,-36.74,1,1
16357.296,0.022,0.497,0.864,-14.47,6.16,-34.12,1,1
16357.296,0.021,0.498,0.864,-11.47,6.41,-30.79,1,1
16357.312,0.029,0.488,0.864,-9.03,7.08,-28.2,1,1
16357.328,0.042,0.486,0.868,-8.15,7.45,-25.82,1,1
16357.328,0.037,0.487,0.868,-8.79,6.84,-24.05,1,1
16357.343,0.043,0.468,0.86,-9.8,6.41,-23.1,1,1
16357.343,0.051,0.464,0.871,-11.32,7.23,-22.83,1,1
16357.359,0.035,0.476,0.881,-12.36,8.33,-22.74,1,1
16357.375,0.033,0.469,0.893,-12.51,8.79,-21.06,1,1
16357.375,0.035,0.462,0.907,-12.63,8.7,-19.62,1,1
16357.39,0.038,0.468,0.918,-12.51,8.3,-18.25,1,1
16357.406,0.029,0.453,0.922,-11.66,7.78,-16.3,1,1
16357.421,0.026,0.44,0.925,-10.5,7.05,-13.06,1,1
16357.421,0.026,0.442,0.932,-8.45,5.86,-8.91,1,1
16357.437,0.034,0.426,0.929,-5.68,3.66,-5.28,1,1
16357.437,0.042,0.405,0.918,-3.54,1.01,-2.56,1,1
16357.453,0.049,0.394,0.907,-1.86,-1.34,-1.37,1,1
16357.468,0.064,0.387,0.892,-0.73,-3.3,-1.92,1,1
16357.468,0.076,0.384,0.873,-0.43,-4.67,-3.54,1,1
16357.484,0.082,0.389,0.857,-0.67,-4.79,-4.43,1,1
16357.484,0.088,0.39,0.85,-0.76,-4.21,-4.3,1,1
16357.5,0.092,0.391,0.853,-0.98,-3.48,-3.48,1,1
16357.515,0.088,0.398,0.863,-0.31,-2.17,-2.9,1,1
16357.515,0.088,0.405,0.872,0.79,-0.64,-1.86,1,1
16357.531,0.089,0.408,0.881,0.46,0.09,-1.16,1,1
16357.546,0.081,0.422,0.897,-0.61,0.27,-0.15,1,1
16357.562,0.102,0.433,0.88,-1.53,0.98,1.71,1,1
16357.562,0.12,0.377,0.866,1.89,6.07,2.99,1,1
16357.578,0.018,0.457,0.945,1.59,11.47,1.46,1,1
16357.578,0.073,0.547,0.999,-7.2,7.54,2.75,1,1
16357.593,0.034,0.478,0.989,-6.62,4.82,3.45,1,1
16357.609,0.016,0.473,0.983,-6.9,1.34,4.61,1,1
16357.609,0.051,0.471,0.972,-2.81,-2.59,7.32,1,1
16357.625,0.036,0.451,0.933,8.03,-5.07,8.39,1,1
16357.64,0.032,0.439,0.894,17.0,-7.54,9.37,1,1
16357.64,0.039,0.44,0.89,22.0,-8.61,8.85,1,1
16357.656,0.044,0.44,0.865,26.73,-9.16,6.01,1,1
16357.656,0.03,0.456,0.85,27.16,-10.13,3.72,1,1
16357.671,0.031,0.548,0.857,18.4,-13.92,4.27,1,1
16357.687,0.097,0.477,0.798,14.74,-14.19,6.26,1,1
16357.687,0.033,0.432,0.789,13.03,-7.97,4.85,1,1
16357.703,0.061,0.522,0.839,1.43,-5.74,5.58,1,1
16357.718,0.072,0.505,0.837,0.21,-3.57,8.15,1,1
16357.718,0.076,0.457,0.841,1.56,-0.21,10.53,1,1
16357.734,0.117,0.441,0.856,0.79,1.1,11.29,1,1
16357.75,0.118,0.428,0.861,3.39,1.8,10.04,1,1
16357.75,0.121,0.419,0.863,6.38,1.8,9.37,1,1
16357.765,0.139,0.419,0.861,7.75,0.37,9.03,1,1
16357.765,0.147,0.41,0.853,7.75,-0.98,8.15,1,1
16357.781,0.153,0.41,0.853,5.4,-1.62,7.2,1,1
16357.796,0.172,0.403,0.854,1.65,-1.68,6.13,1,1
16357.796,0.189,0.39,0.86,-2.04,-1.04,4.76,1,1
16357.812,0.191,0.381,0.87,-4.33,0.4,3.08,1,1
16357.828,0.184,0.381,0.886,-5.43,2.41,0.76,1,1
16357.828,0.167,0.382,0.901,-6.23,4.27,-0.61,1,1
16357.843,0.154,0.39,0.912,-6.38,5.49,-0.85,1,1
16357.843,0.139,0.386,0.924,-5.98,6.1,-0.7,1,1
16357.859,0.123,0.382,0.935,-5.22,6.07,-1.16,1,1
16357.875,0.114,0.378,0.939,-2.08,6.07,-2.59,1,1
16357.875,0.101,0.391,0.938,1.98,5.92,-4.58,1,1
16357.89,0.083,0.418,0.94,4.88,5.28,-6.47,1,1
16357.906,0.07,0.443,0.936,6.44,3.45,-6.93,1,1
16357.906,0.069,0.461,0.929,5.83,0.49,-5.68,1,1
16357.921,0.073,0.467,0.911,3.11,-2.66,-3.88,1,1
16357.937,0.082,0.459,0.895,-0.55,-5.04,-2.53,1,1
16357.937,0.087,0.45,0.885,-3.63,-6.01,-2.23,1,1
16357.953,0.091,0.444,0.873,-5.28,-6.23,-2.44,1,1
16357.968,0.096,0.441,0.865,-5.4,-5.62,-2.59,1,1
16357.968,0.094,0.433,0.862,-4.46,-4.24,-2.93,1,1
16357.984,0.092,0.433,0.861,-0.49,-1.5,-3.45,1,1
16357.984,0.087,0.443,0.867,1.04,-0.18,-3.39,1,1
16358.0,0.078,0.446,0.869,1.19,0.15,-2.38,1,1
16358.015,0.073,0.457,0.868,1.04,-0.43,-0.85,1,1
16358.015,0.076,0.456,0.873,0.24,-1.01,-0.73,1,1
16358.031,0.079,0.463,0.876,-1.16,-1.8,-0.92,1,1
16358.046,0.085,0.462,0.88,-2.59,-2.96,-0.89,1,1
16358.046,0.092,0.459,0.878,-3.72,-3.88,-0.67,1,1
16358.062,0.098,0.452,0.875,-3.78,-4.06,-0.15,1,1
16358.078,0.099,0.448,0.877,-2.53,-3.42,0.21,1,1
16358.078,0.1,0.448,0.876,-0.79,-2.56,0.43,1,1
16358.093,0.101,0.447,0.879,0.46,-1.74,0.52,1,1
16358.093,0.102,0.44,0.877,1.07,-0.95,0.49,1,1
16358.109,0.101,0.437,0.881,1.28,-0.31,-0.18,1,1
16358.125,0.099,0.441,0.885,1.25,-0.12,-0.95,1,1
16358.125,0.099,0.44,0.884,0.67,-0.7,-1.68,1,1
16358.14,0.101,0.439,0.887,-0.58,-1.53,-2.23,1,1
16358.156,0.099,0.441,0.89,-1.65,-1.77,-2.9,1,1
16358.156,0.099,0.441,0.892,-2.29,-2.2,-3.45,1,1
16358.171,0.102,0.439,0.896,-2.26,-2.56,-3.23,1,1
16358.187,0.098,0.447,0.898,-1.4,-2.35,-2.72,1,1
16358.203,0.101,0.45,0.895,-0.15,-2.59,-2.11,1,1
16358.203,0.105,0.446,0.888,0.82,-2.99,-1.43,1,1
16358.203,0.109,0.443,0.88,1.77,-2.84,-0.98,1,1
16358.218,0.12,0.441,0.874,2.41,-2.2,-0.76,1,1
16358.234,0.127,0.439,0.865,2.81,-0.76,-1.28,1,1
16358.25,0.125,0.438,0.855,3.33,1.68,-2.04,1,1
16358.25,0.123,0.439,0.847,3.45,4.39,-2.38,1,1
16358.265,0.115,0.443,0.847,2.44,6.65,-2.59,1,1
16358.281,0.106,0.447,0.858,0.76,8.15,-2.78,1,1
16358.281,0.09,0.455,0.878,-1.13,8.61,-2.38,1,1
16358.296,0.083,0.454,0.897,-3.27,7.54,-2.26,1,1
16358.296,0.078,0.45,0.91,-4.39,5.13,-2.66,1,1
16358.312,0.074,0.446,0.92,-4.73,2.26,-2.59,1,1
16358.328,0.077,0.439,0.921,-3.72,-0.43,-1.98,1,1
16358.343,0.082,0.435,0.913,-2.26,-2.41,-1.83,1,1
16358.343,0.084,0.434,0.906,-0.7,-3.42,-1.68,1,1
16358.343,0.082,0.429,0.905,0.34,-3.05,-2.08,1,1
16358.359,0.076,0.431,0.901,0.55,-1.8,-1.98,1,1
16358.375,0.069,0.432,0.897,-0.95,-0.09,-1.43,1,1
16358.375,0.077,0.45,0.884,-4.7,2.01,-0.4,1,1
16358.39,0.118,0.46,0.851,-8.48,4.85,0.67,1,1
16358.406,0.097,0.367,0.838,-3.63,12.39,-1.1,1,1
16358.421,0.002,0.474,0.916,-8.67,15.11,-3.2,1,1
16358.421,0.062,0.508,0.95,-17.43,9.58,-2.29,1,1
16358.437,0.011,0.436,0.929,-16.48,5.28,-2.08,1,1
16358.437,0.015,0.432,0.936,-15.41,0.37,0.4,1,1
16358.453,0.047,0.418,0.927,-8.94,-4.52,2.78,1,1
16358.468,0.028,0.393,0.907,1.77,-7.32,3.17,1,1
16358.468,0.035,0.397,0.887,12.3,-9.52,3.57,1,1
16358.484,0.037,0.403,0.89,21.79,-10.86,2.69,1,1
16358.484,0.019,0.404,0.899,27.19,-13.37,0.21,1,1
16358.5,0.002,0.443,0.906,28.02,-17.43,-1.01,1,1
16358.515,0.03,0.54,0.894,20.51,-23.26,2.17,1,1
16358.531,0.089,0.453,0.836,19.23,-23.22,3.66,1,1
16358.531,0.021,0.458,0.829,16.85,-18.04,2.9,1,1
16358.546,0.067,0.524,0.884,4.52,-16.51,2.62,1,1
16358.546,0.073,0.502,0.903,-1.22,-16.51,1.56,1,1
16358.562,0.042,0.495,0.881,-1.22,-16.05,4.82,1,1
16358.578,0.072,0.501,0.896,-0.67,-15.78,9.37,1,1
16358.593,0.063,0.491,0.903,3.33,-15.81,11.66,1,1
16358.593,0.061,0.486,0.889,8.73,-16.45,13.73,1,1
16358.609,0.073,0.498,0.866,13.43,-16.57,16.21,1,1
16358.609,0.079,0.504,0.84,16.75,-15.38,17.94,1,1
16358.625,0.078,0.507,0.819,17.3,-13.52,18.92,1,1
16358.64,0.078,0.526,0.806,15.23,-10.93,19.41,1,1
16358.64,0.069,0.551,0.802,12.09,-7.26,18.98,1,1
16358.656,0.059,0.567,0.805,7.81,-4.09,18.13,1,1
16358.656,0.053,0.585,0.816,3.02,-2.69,18.19,1,1
16358.671,0.047,0.584,0.808,0.85,-2.72,19.84,1,1
16358.687,0.039,0.591,0.795,1.22,-2.75,22.98,1,1
16358.687,0.039,0.598,0.791,2.99,-2.17,27.01,1,1
16358.703,0.048,0.588,0.777,5.55,-1.5,31.22,1,1
16358.718,0.059,0.574,0.762,7.23,-0.12,35.4,1,1
16358.718,0.081,0.558,0.752,8.36,2.44,39.89,1,1
16358.734,0.096,0.534,0.746,8.85,6.35,42.79,1,1
16358.734,0.107,0.512,0.748,7.23,10.5,42.33,1,1
16358.75,0.115,0.506,0.759,2.9,13.95,38.97,1,1
16358.765,0.116,0.512,0.766,-3.08,16.57,34.36,1,1
16358.781,0.118,0.507,0.767,-10.22,18.49,31.25,1,1
16358.781,0.122,0.495,0.777,-16.88,21.3,31.1,1,1
16358.796,0.127,0.482,0.789,-21.67,25.48,32.81,1,1
16358.796,0.132,0.466,0.814,-24.51,30.85,35.52,1,1
16358.812,0.139,0.428,0.847,-23.9,35.4,38.3,1,1
16358.812,0.147,0.389,0.874,-19.23,37.57,40.31,1,1
16358.828,0.156,0.383,0.892,-11.9,37.45,41.84,1,1
16358.843,0.161,0.386,0.9,-3.57,35.86,43.61,1,1
16358.843,0.17,0.376,0.904,3.63,33.85,44.62,1,1
16358.875,0.182,0.378,0.912,7.93,31.86,44.89,1,1
16358.875,0.184,0.391,0.922,9.86,30.76,44.95,1,1
16358.875,0.19,0.396,0.938,9.74,29.08,45.26,1,1
16358.89,0.185,0.398,0.949,8.85,26.8,45.32,1,1
16358.906,0.18,0.402,0.96,7.72,23.47,45.99,1,1
16358.906,0.179,0.399,0.974,6.99,19.07,46.72,1,1
16358.921,0.185,0.401,0.977,7.35,13.86,47.7,1,1
16358.937,0.185,0.396,0.969,8.85,7.9,48.92,1,1
16358.937,0.201,0.392,0.954,9.95,2.2,50.84,1,1
16358.953,0.211,0.371,0.928,13.43,-0.34,53.01,1,1
16358.968,0.206,0.381,0.919,13.25,-3.63,55.02,1,1
16358.968,0.24,0.392,0.902,13.89,-4.85,60.73,1,1
16358.984,0.236,0.361,0.868,13.98,-2.04,64.3,1,1
16358.984,0.243,0.358,0.846,14.68,2.35,68.0,1,1
16359.0,0.232,0.366,0.844,17.82,7.57,70.47,1,1
16359.015,0.207,0.359,0.855,20.2,11.08,73.15,1,1
16359.015,0.216,0.362,0.866,21.52,12.18,75.17,1,1
16359.031,0.229,0.355,0.878,21.06,12.12,72.88,1,1
16359.046,0.245,0.338,0.878,18.07,10.56,65.49,1,1
16359.046,0.253,0.323,0.866,12.79,8.88,54.57,1,1
16359.062,0.257,0.321,0.866,4.7,8.42,41.75,1,1
16359.078,0.257,0.325,0.865,-3.14,9.61,29.39,1,1
16359.078,0.207,0.348,0.881,-9.49,12.15,19.2,1,1
16359.093,0.168,0.345,1.022,-13.92,11.23,15.41,1,1
16359.093,0.213,0.312,1.064,-18.1,1.07,10.62,1,1
16359.109,0.205,0.357,1.061,-25.36,-7.9,4.18,1,1
16359.125,0.217,0.322,1.045,-27.34,-13.34,0.76,1,1
16359.125,0.234,0.289,1.0,-22.64,-14.56,-1.4,1,1
16359.14,0.246,0.299,0.963,-14.65,-11.81,-4.06,1,1
16359.156,0.237,0.31,0.943,-5.95,-8.45,-8.51,1,1
16359.156,0.223,0.333,0.925,1.95,-5.62,-12.7,1,1
16359.171,0.209,0.369,0.903,8.45,-3.69,-15.63,1,1
16359.187,0.185,0.408,0.891,11.93,-2.87,-16.11,1,1
16359.187,0.176,0.444,0.883,11.38,-3.45,-14.53,1,1
16359.203,0.177,0.463,0.868,7.32,-5.19,-12.97,1,1
16359.203,0.18,0.468,0.869,1.04,-6.35,-12.21,1,1
16359.218,0.178,0.464,0.868,-4.12,-6.44,-11.38,1,1
16359.234,0.18,0.46,0.873,-6.35,-5.83,-9.19,1,1
16359.234,0.184,0.453,0.874,-5.52,-4.39,-6.5,1,1
16359.25,0.19,0.442,0.871,-2.69,-2.87,-4.21,1,1
16359.265,0.196,0.441,0.87,0.82,-1.5,-3.36,1,1
16359.265,0.194,0.437,0.863,3.63,-0.55,-3.6,1,1
16359.281,0.193,0.434,0.857,5.01,-0.76,-4.27,1,1
16359.296,0.189,0.444,0.856,5.13,-1.04,-4.91,1,1
16359.296,0.188,0.458,0.855,3.14,-1.65,-5.4,1,1
16359.312,0.187,0.456,0.854,-0.49,-2.84,-5.25,1,1
16359.328,0.19,0.45,0.857,-3.94,-3.57,-4.76,1,1
16359.328,0.192,0.44,0.861,-5.77,-3.97,-4.43,1,1
16359.343,0.197,0.429,0.861,-5.62,-4.21,-3.91,1,1
16359.343,0.205,0.418,0.855,-3.81,-4.0,-3.75,1,1
16359.359,0.207,0.415,0.855,-1.01,-3.14,-4.06,1,1
16359.375,0.206,0.42,0.86,1.62,-2.29,-4.15,1,1
16359.375,0.206,0.432,0.862,3.42,-1.92,-3.94,1,1
16359.39,0.206,0.439,0.862,4.49,-1.74,-4.0,1,1
16359.406,0.204,0.441,0.864,4.46,-1.77,-4.12,1,1
16359.406,0.202,0.446,0.866,3.66,-2.11,-4.27,1,1
16359.421,0.199,0.455,0.865,2.72,-2.66,-4.39,1,1
16359.437,0.203,0.459,0.866,1.19,-3.2,-4.52,1,1
16359.437,0.203,0.461,0.869,-0.37,-3.78,-4.88,1,1
16359.453,0.203,0.458,0.868,-0.58,-4.06,-4.39,1,1
16359.453,0.203,0.455,0.871,0.95,-3.51,-3.66,1,1
16359.468,0.199,0.451,0.861,3.6,-2.78,-2.44,1,1
16359.484,0.208,0.456,0.854,5.98,-2.38,-0.92,1,1
16359.5,0.213,0.461,0.85,8.06,-1.92,-0.12,1,1
16359.5,0.213,0.47,0.85,9.49,-1.19,0.4,1,1
16359.515,0.21,0.487,0.849,9.98,-0.27,1.56,1,1
16359.515,0.203,0.497,0.856,8.79,0.18,2.96,1,1
16359.531,0.198,0.5,0.865,6.04,0.31,4.12,1,1
16359.546,0.194,0.497,0.871,2.66,0.18,5.1,1,1
16359.546,0.188,0.486,0.876,-0.06,0.09,6.38,1,1
16359.562,0.185,0.474,0.882,-1.16,0.06,8.03,1,1
16359.578,0.18,0.459,0.884,0.0,-0.67,8.91,1,1
16359.578,0.167,0.45,0.886,2.96,-3.23,9.7,1,1
16359.593,0.146,0.457,0.897,7.63,-8.24,10.68,1,1
16359.609,0.102,0.482,0.903,12.85,-17.67,13.49,1,1
16359.609,0.093,0.471,0.961,15.14,-32.65,18.4,1,1
16359.625,0.078,0.489,1.013,16.75,-53.04,23.8,1,1
16359.625,0.128,0.55,0.951,20.26,-71.93,34.61,1,1
16359.64,0.184,0.555,0.885,16.3,-84.81,41.66,1,1
16359.656,0.21,0.529,0.835,9.67,-90.0,42.21,1,1
16359.671,0.271,0.503,0.772,4.43,-87.34,41.05,1,1
16359.671,0.307,0.477,0.757,0.85,-78.8,37.32,1,1
16359.687,0.325,0.426,0.741,2.78,-68.09,32.84,1,1
16359.687,0.34,0.405,0.732,6.78,-57.47,29.51,1,1
16359.703,0.359,0.397,0.735,11.14,-47.98,25.91,1,1
16359.718,0.365,0.379,0.744,14.92,-40.68,21.76,1,1
16359.718,0.382,0.376,0.743,16.69,-35.19,17.76,1,1
16359.734,0.399,0.382,0.74,15.9,-29.97,13.82,1,1
16359.734,0.404,0.376,0.744,13.03,-24.2,9.98,1,1
16359.75,0.417,0.373,0.744,8.48,-18.1,6.44,1,1
16359.765,0.421,0.377,0.748,3.42,-11.44,2.62,1,1
16359.765,0.418,0.369,0.757,-1.89,-4.67,-0.58,1,1
16359.781,0.417,0.367,0.769,-6.62,1.62,-3.54,1,1
16359.796,0.404,0.369,0.795,-9.19,7.29,-6.47,1,1
16359.796,0.388,0.371,0.818,-8.39,10.74,-8.55,1,1
16359.812,0.377,0.379,0.829,-5.98,12.12,-10.16,1,1
16359.828,0.363,0.396,0.839,-3.39,12.09,-11.84,1,1
16359.828,0.353,0.417,0.846,-1.31,10.65,-13.03,1,1
16359.843,0.346,0.434,0.849,-0.37,8.39,-13.43,1,1
16359.859,0.344,0.445,0.85,-0.76,6.16,-13.18,1,1
16359.859,0.343,0.454,0.847,-2.29,4.46,-12.6,1,1
16359.875,0.347,0.458,0.848,-4.15,3.08,-11.72,1,1
16359.875,0.349,0.456,0.851,-5.37,2.44,-11.05,1,1
16359.89,0.349,0.456,0.855,-6.23,2.41,-10.9,1,1
16359.906,0.345,0.457,0.857,-6.5,2.38,-10.9,1,1
16359.906,0.34,0.461,0.862,-6.13,1.92,-10.59,1,1
16359.921,0.328,0.467,0.868,-4.52,0.92,-9.83,1,1
16359.937,0.32,0.474,0.87,-1.98,-1.13,-8.36,1,1
16359.937,0.32,0.476,0.864,0.58,-3.54,-6.13,1,1
16359.953,0.324,0.48,0.853,5.04,-6.81,-2.44,1,1
16359.953,0.329,0.485,0.837,5.43,-7.32,-1.1,1,1
16359.968,0.327,0.488,0.831,5.46,-7.81,0.18,1,1
16359.984,0.328,0.487,0.825,5.37,-8.27,1.37,1,1
16359.984,0.325,0.483,0.82,4.94,-8.82,2.23,1,1
16360.0,0.323,0.477,0.815,4.7,-9.98,3.08,1,1
16360.015,0.325,0.467,0.807,4.61,-11.23,3.85,1,1
16360.015,0.335,0.462,0.803,4.82,-11.99,4.18,1,1
16360.031,0.34,0.457,0.794,5.25,-12.33,3.78,1,1
16360.046,0.341,0.453,0.78,5.37,-11.99,3.2,1,1
16360.046,0.345,0.453,0.777,5.22,-10.93,2.72,1,1
16360.062,0.349,0.452,0.774,4.73,-9.43,1.83,1,1
16360.062,0.353,0.452,0.778,3.39,-7.69,0.92,1,1
16360.078,0.353,0.448,0.776,1.98,-5.86,-0.18,1,1
16360.093,0.356,0.443,0.773,0.85,-4.27,-1.28,1,1
16360.109,0.361,0.448,0.771,-0.15,-2.11,-2.62,1,1
16360.109,0.354,0.455,0.777,-1.19,0.7,-3.85,1,1
16360.125,0.343,0.453,0.787,-1.83,2.59,-4.43,1,1
16360.125,0.342,0.46,0.794,-2.41,3.48,-4.58,1,1
16360.14,0.341,0.467,0.804,-2.47,4.15,-4.91,1,1
16360.156,0.336,0.465,0.809,-2.47,4.76,-5.01,1,1
16360.156,0.335,0.467,0.812,-3.39,4.79,-4.64,1,1
16360.171,0.332,0.467,0.817,-4.43,4.76,-4.49,1,1
16360.187,0.331,0.468,0.825,-5.55,4.67,-4.39,1,1
16360.187,0.329,0.461,0.828,-6.04,4.3,-4.24,1,1
16360.203,0.331,0.455,0.827,-5.58,3.85,-3.94,1,1
16360.218,0.334,0.457,0.824,-4.64,3.75,-4.12,1,1
16360.218,0.335,0.455,0.818,-3.91,4.21,-4.67,1,1
16360.234,0.336,0.451,0.813,-3.88,5.01,-5.34,1,1
16360.234,0.336,0.451,0.813,-4.0,6.07,-5.65,1,1
16360.25,0.334,0.447,0.812,-4.12,6.78,-5.68,1,1
16360.265,0.336,0.446,0.809,-4.73,7.26,-5.8,1,1
16360.265,0.335,0.444,0.812,-5.28,7.97,-6.16,1,1
16360.281,0.331,0.444,0.812,-5.25,8.67,-6.62,1,1
16360.296,0.327,0.444,0.813,-4.94,9.22,-7.02,1,1
16360.296,0.325,0.449,0.813,-4.85,9.8,-7.29,1,1
16360.312,0.323,0.45,0.815,-5.01,10.28,-7.97,1,1
16360.328,0.322,0.447,0.813,-4.97,10.96,-8.88,1,1
16360.328,0.319,0.449,0.814,-5.04,11.26,-9.83,1,1
16360.343,0.307,0.455,0.814,-4.79,11.47,-9.83,1,1
16360.359,0.302,0.451,0.808,-4.06,11.57,-9.22,1,1
16360.359,0.301,0.455,0.807,-3.85,11.78,-8.79,1,1
16360.375,0.294,0.464,0.808,-4.03,12.12,-8.55,1,1
16360.375,0.291,0.466,0.803,-4.67,12.6,-8.09,1,1
16360.39,0.288,0.469,0.806,-5.98,13.25,-7.69,1,1
16360.406,0.273,0.481,0.83,-6.87,13.58,-7.48,1,1
16360.421,0.254,0.489,0.882,-5.95,11.41,-5.65,1,1
16360.421,0.269,0.488,0.892,-4.85,6.07,-3.27,1,1
16360.437,0.282,0.494,0.891,-5.52,1.77,-2.17,1,1
16360.437,0.289,0.479,0.888,-5.52,-0.03,-1.62,1,1
16360.453,0.296,0.466,0.88,-4.49,-0.27,-1.19,1,1
16360.468,0.299,0.459,0.869,-3.45,0.24,-1.07,1,1
16360.468,0.295,0.45,0.861,-2.78,0.67,-1.28,1,1
16360.484,0.293,0.444,0.857,-2.29,0.46,-1.56,1,1
16360.484,0.288,0.445,0.851,-1.95,-0.34,-1.71,1,1
16360.5,0.285,0.447,0.839,-1.53,-1.13,-1.28,1,1
16360.515,0.287,0.445,0.833,-1.4,-1.62,-0.61,1,1
16360.515,0.286,0.444,0.828,-1.5,-1.56,-0.4,1,1
16360.531,0.287,0.444,0.831,-1.65,-1.28,-0.24,1,1
16360.546,0.287,0.441,0.832,-1.8,-0.79,-0.18,1,1
16360.546,0.289,0.442,0.836,-2.29,-0.31,-0.12,1,1
16360.562,0.286,0.443,0.846,-2.32,0.12,0.03,1,1
16360.578,0.284,0.437,0.849,-1.86,-0.03,-0.03,1,1
16360.578,0.285,0.438,0.851,-1.5,-0.64,-0.09,1,1
16360.593,0.286,0.439,0.85,-0.7,-1.13,-0.24,1,1
16360.593,0.285,0.44,0.845,-0.24,-1.34,-0.24,1,1
16360.609,0.283,0.442,0.838,-0.58,-1.25,-0.52,1,1
16360.625,0.283,0.444,0.833,-0.85,-1.34,-0.61,1,1
16360.64,0.285,0.443,0.828,-1.37,-1.28,-0.52,1,1
16360.64,0.286,0.443,0.828,-1.68,-1.34,-0.43,1,1
16360.656,0.285,0.443,0.832,-1.77,-1.31,-0.4,1,1
16360.656,0.283,0.444,0.834,-1.8,-1.4,-0.24,1,1
16360.671,0.283,0.442,0.838,-1.74,-1.43,-0.15,1,1
16360.687,0.286,0.439,0.839,-1.22,-1.92,0.0,1,1
16360.687,0.291,0.434,0.837,-0.73,-2.2,-0.09,1,1
16360.703,0.295,0.436,0.833,0.0,-2.14,-0.52,1,1
16360.718,0.297,0.44,0.829,0.61,-2.01,-0.7,1,1
16360.718,0.297,0.443,0.83,0.21,-1.95,-0.64,1,1
16360.734,0.3,0.445,0.827,-0.67,-1.89,-0.61,1,1
16360.734,0.301,0.442,0.825,-1.28,-1.65,-0.37,1,1
16360.75,0.303,0.44,0.829,-1.71,-1.01,-0.12,1,1
16360.765,0.3,0.436,0.832,-1.43,-0.21,-0.06,1,1
16360.765,0.298,0.438,0.836,-1.07,0.06,0.15,1,1
16360.781,0.301,0.44,0.84,-0.98,-0.31,0.0,1,1
16360.796,0.297,0.438,0.842,-0.82,-1.16,-0.21,1,1
16360.796,0.304,0.438,0.837,-0.64,-2.35,-0.24,1,1
16360.812,0.305,0.438,0.835,-0.06,-2.78,-0.43,1,1
16360.828,0.302,0.448,0.834,-0.09,-2.44,-0.73,1,1
16360.828,0.296,0.452,0.837,-0.49,-1.92,-0.82,1,1
16360.843,0.291,0.453,0.843,-1.5,-1.71,-0.43,1,1
16360.859,0.291,0.454,0.844,-2.75,-1.8,0.0,1,1
16360.859,0.292,0.447,0.845,-3.6,-2.26,0.15,1,1
16360.875,0.3,0.444,0.845,-3.97,-2.59,0.49,1,1
16360.875,0.303,0.439,0.842,-3.6,-2.47,0.58,1,1
16360.89,0.304,0.437,0.841,-2.75,-2.01,0.49,1,1
16360.906,0.304,0.437,0.843,-2.17,-1.4,0.37,1,1
16360.906,0.299,0.437,0.845,-1.89,-0.79,0.12,1,1
16360.921,0.293,0.446,0.853,-2.14,-0.4,-0.03,1,1
16360.937,0.289,0.452,0.861,-3.3,-0.43,0.34,1,1
16360.937,0.288,0.453,0.864,-3.54,-0.76,1.07,1,1
16360.953,0.291,0.45,0.865,-2.9,-0.76,1.74,1,1
16360.968,0.294,0.448,0.867,-0.79,0.18,2.78,1,1
16360.968,0.275,0.444,0.864,2.11,1.07,4.76,1,1
16360.984,0.267,0.454,0.858,4.52,0.89,7.26,1,1
16360.984,0.254,0.451,0.863,6.53,-0.61,8.97,1,1
16361.0,0.233,0.461,0.868,8.15,-5.43,9.49,1,1
16361.015,0.217,0.487,0.873,9.09,-12.91,10.59,1,1
16361.015,0.235,0.512,0.908,8.18,-20.6,13.61,1,1
16361.031,0.276,0.517,0.916,4.94,-27.59,16.24,1,1
16361.046,0.308,0.512,0.88,-1.19,-30.85,16.66,1,1
16361.062,0.323,0.482,0.879,-7.48,-28.99,16.63,1,1
16361.062,0.333,0.453,0.873,-10.93,-25.7,15.2,1,1
16361.078,0.329,0.434,0.868,-11.96,-22.22,12.97,1,1
16361.078,0.324,0.417,0.87,-10.68,-19.29,11.23,1,1
16361.093,0.319,0.405,0.871,-7.08,-17.64,10.01,1,1
16361.109,0.312,0.407,0.867,-3.17,-17.37,8.91,1,1
16361.109,0.312,0.408,0.858,-0.37,-18.16,7.66,1,1
16361.125,0.315,0.409,0.85,0.55,-18.86,6.47,1,1
16361.125,0.31,0.421,0.841,-0.31,-19.14,5.22,1,1
16361.14,0.303,0.428,0.837,-2.35,-19.07,4.46,1,1
16361.156,0.298,0.429,0.835,-5.22,-18.95,4.3,1,1
16361.156,0.296,0.426,0.834,-8.0,-18.74,3.85,1,1
16361.171,0.299,0.43,0.834,-9.98,-18.25,3.33,1,1
16361.187,0.291,0.424,0.831,-9.95,-17.18,2.69,1,1
16361.187,0.284,0.418,0.829,-8.42,-16.11,2.17,1,1
16361.203,0.283,0.419,0.827,-5.89,-15.5,1.46,1,1
16361.218,0.281,0.426,0.819,-2.99,-14.68,0.4,1,1
16361.218,0.272,0.432,0.815,-0.61,-13.7,-0.79,1,1
16361.234,0.264,0.437,0.816,1.89,-13.25,-0.67,1,1
16361.234,0.262,0.445,0.813,4.33,-13.79,0.09,1,1
16361.25,0.271,0.454,0.805,5.83,-14.86,0.43,1,1
16361.265,0.281,0.455,0.795,5.98,-15.72,0.24,1,1
16361.281,0.294,0.448,0.784,6.29,-15.32,0.18,1,1
16361.281,0.306,0.442,0.779,7.17,-13.67,0.55,1,1
16361.296,0.311,0.435,0.773,7.9,-12.12,1.28,1,1
16361.296,0.323,0.433,0.776,8.18,-10.96,1.56,1,1
16361.312,0.329,0.428,0.776,8.58,-9.55,1.28,1,1
16361.328,0.342,0.422,0.776,8.61,-8.03,0.82,1,1
16361.328,0.339,0.421,0.783,9.16,-6.56,-0.06,1,1
16361.343,0.338,0.417,0.792,10.68,-6.2,-0.43,1,1
16361.343,0.347,0.424,0.798,12.27,-6.96,-0.98,1,1
16361.359,0.347,0.407,0.798,12.88,-8.27,-0.89,1,1
16361.375,0.367,0.413,0.799,12.94,-9.58,-1.13,1,1
16361.375,0.373,0.398,0.79,12.97,-10.38,-2.17,1,1
16361.39,0.38,0.398,0.794,11.57,-10.62,-3.45,1,1
16361.406,0.385,0.398,0.796,10.16,-10.74,-5.13,1,1
16361.406,0.373,0.393,0.796,8.58,-11.51,-6.96,1,1
16361.421,0.379,0.389,0.803,7.26,-13.03,-7.84,1,1
16361.437,0.394,0.406,0.799,7.69,-14.37,-9.25,1,1
16361.437,0.393,0.389,0.796,8.12,-15.29,-10.38,1,1
16361.453,0.403,0.4,0.798,9.25,-15.81,-11.35,1,1
16361.453,0.401,0.39,0.792,10.99,-16.33,-11.99,1,1
16361.468,0.411,0.401,0.786,11.96,-17.15,-12.73,1,1
16361.484,0.421,0.404,0.78,11.96,-17.73,-13.58,1,1
16361.5,0.418,0.402,0.774,10.74,-18.52,-15.35,1,1
16361.5,0.417,0.418,0.773,8.7,-19.78,-17.12,1,1
16361.515,0.423,0.421,0.764,6.01,-21.33,-18.1,1,1
16361.515,0.426,0.43,0.751,3.33,-22.13,-19.44,1,1
16361.531,0.434,0.432,0.749,0.73,-21.52,-19.44,1,1
16361.546,0.44,0.438,0.745,-0.82,-19.44,-19.75,1,1
16361.546,0.453,0.431,0.744,-1.28,-16.14,-19.41,1,1
16361.562,0.46,0.437,0.743,-0.43,-11.96,-19.68,1,1
16361.578,0.448,0.449,0.747,0.37,-7.17,-21.21,1,1
16361.578,0.439,0.446,0.753,0.34,-3.6,-21.64,1,1
16361.593,0.427,0.465,0.766,0.18,-1.31,-21.91,1,1
16361.593,0.412,0.484,0.773,0.18,-0.85,-22.06,1,1
16361.609,0.392,0.49,0.778,-0.12,-2.41,-21.27,1,1
