timestamp,ax,ay,az,gx,gy,gz,orient_label,motion_label
16385.421,0.766,0.065,0.646,-0.12,-1.83,1.65,1,1
16385.437,0.758,0.061,0.653,1.01,-0.58,1.68,1,1
16385.437,0.744,0.062,0.658,1.5,-0.55,1.56,1,1
16385.453,0.739,0.061,0.663,0.43,-1.92,1.4,1,1
16385.468,0.749,0.056,0.661,-0.98,-3.94,1.8,1,1
16385.468,0.768,0.051,0.658,-2.11,-5.25,2.17,1,1
16385.484,0.786,0.052,0.654,-1.31,-5.01,1.71,1,1
16385.5,0.789,0.059,0.655,0.49,-4.18,0.82,1,1
16385.5,0.785,0.064,0.663,1.34,-4.21,-0.52,1,1
16385.515,0.782,0.066,0.675,1.8,-5.01,-1.83,1,1
16385.515,0.766,0.064,0.679,2.26,-8.88,-1.71,1,1
16385.531,0.763,0.066,0.668,-0.37,-11.2,-1.04,1,1
16385.546,0.773,0.063,0.652,-1.62,-12.24,-1.16,1,1
16385.546,0.787,0.056,0.63,-0.92,-11.14,-2.04,1,1
16385.562,0.796,0.046,0.604,1.01,-8.73,-3.17,1,1
16385.578,0.79,0.054,0.602,1.86,-6.29,-4.09,1,1
16385.578,0.782,0.058,0.607,1.5,-4.18,-4.3,1,1
16385.593,0.766,0.06,0.619,-0.24,-1.89,-2.14,1,1
16385.609,0.755,0.068,0.628,-1.07,-1.04,-0.58,1,1
16385.625,0.75,0.053,0.632,-1.89,-1.16,1.25,1,1
16385.625,0.766,0.045,0.631,-3.23,-1.16,2.93,1,1
16385.64,0.783,0.041,0.635,-3.2,-1.04,2.2,1,1
16385.656,0.779,0.034,0.639,-2.08,-1.07,-0.24,1,1
16385.656,0.787,0.047,0.64,-0.64,-1.4,-2.69,1,1
16385.671,0.785,0.057,0.634,1.43,-1.83,-4.7,1,1
16385.687,0.77,0.07,0.631,2.72,-1.37,-5.01,1,1
16385.687,0.761,0.09,0.64,1.92,-0.85,-3.78,1,1
16385.703,0.76,0.089,0.64,0.06,-1.68,-2.41,1,1
16385.718,0.748,0.079,0.643,-0.89,-2.29,-0.61,1,1
16385.718,0.759,0.084,0.649,-1.59,-3.45,1.59,1,1
16385.734,0.777,0.083,0.643,-2.35,-4.73,2.47,1,1
16385.734,0.773,0.077,0.641,-2.29,-5.52,2.5,1,1
16385.75,0.779,0.076,0.628,-1.28,-5.89,2.26,1,1
16385.765,0.776,0.074,0.597,-0.34,-3.33,2.11,1,1
16385.781,0.755,0.07,0.61,-1.98,-1.83,2.44,1,1
16385.796,0.752,0.057,0.626,-3.94,-1.1,3.69,1,1
16385.796,0.767,0.056,0.625,-4.06,-0.76,4.12,1,1
16385.812,0.762,0.037,0.621,-2.78,0.0,3.2,1,1
16385.828,0.758,0.035,0.635,-1.56,0.98,2.81,1,1
16385.828,0.761,0.06,0.648,-0.21,0.61,1.89,1,1
16385.843,0.759,0.053,0.631,1.13,-0.61,0.18,1,1
16385.859,0.772,0.05,0.627,0.79,-0.85,0.21,1,1
16385.859,0.778,0.065,0.63,0.03,-0.43,0.73,1,1
16385.875,0.767,0.053,0.641,-1.5,-0.52,0.95,1,1
16385.875,0.767,0.048,0.649,-2.11,-0.89,1.68,1,1
16385.89,0.76,0.057,0.648,-1.34,-1.4,1.68,1,1
16385.906,0.757,0.057,0.648,-1.04,-2.35,1.1,1,1
16385.906,0.762,0.06,0.644,-0.34,-3.11,1.07,1,1
16385.921,0.778,0.064,0.633,0.85,-3.23,1.34,1,1
16385.937,0.778,0.066,0.638,0.89,-2.78,1.59,1,1
16385.953,0.777,0.069,0.653,0.95,-2.72,2.14,1,1
16385.953,0.777,0.068,0.657,1.98,-2.99,2.9,1,1
16385.968,0.773,0.068,0.656,3.27,-3.17,3.78,1,1
16385.968,0.76,0.071,0.644,4.55,-2.96,4.33,1,1
16385.984,0.748,0.065,0.643,5.1,-2.93,5.62,1,1
16386.0,0.75,0.059,0.648,4.85,-2.96,7.14,1,1
16386.0,0.754,0.056,0.655,3.6,-2.72,8.09,1,1
16386.015,0.77,0.049,0.67,1.62,-2.99,8.45,1,1
16386.015,0.793,0.043,0.698,1.8,-3.51,8.7,1,1
16386.031,0.81,0.046,0.727,4.15,-4.3,7.78,1,1
16386.046,0.819,0.048,0.748,7.2,-5.65,6.23,1,1
16386.046,0.825,0.058,0.768,11.32,-7.48,4.64,1,1
16386.062,0.818,0.073,0.785,16.11,-9.31,3.23,1,1
16386.078,0.806,0.095,0.798,20.26,-11.72,2.5,1,1
16386.093,0.776,0.118,0.802,24.02,-14.5,3.42,1,1
16386.093,0.747,0.136,0.829,23.07,-20.14,6.29,1,1
16386.109,0.722,0.135,0.84,22.03,-26.95,10.19,1,1
16386.109,0.715,0.123,0.816,23.99,-32.93,14.04,1,1
16386.125,0.715,0.113,0.789,27.77,-36.93,16.91,1,1
16386.125,0.697,0.108,0.764,31.56,-39.67,19.53,1,1
16386.14,0.689,0.098,0.746,34.06,-43.86,22.86,1,1
16386.156,0.706,0.088,0.735,35.68,-46.78,26.64,1,1
16386.171,0.693,0.089,0.724,35.83,-47.27,30.43,1,1
16386.171,0.694,0.082,0.738,31.89,-49.47,34.52,1,1
16386.187,0.702,0.061,0.75,27.19,-52.03,38.79,1,1
16386.187,0.696,0.046,0.752,25.24,-53.41,41.75,1,1
16386.203,0.679,0.036,0.743,25.79,-54.2,43.03,1,1
16386.218,0.672,0.033,0.736,28.35,-55.12,42.63,1,1
16386.218,0.659,0.036,0.723,33.27,-56.83,40.68,1,1
16386.234,0.654,0.03,0.703,38.42,-59.48,38.06,1,1
16386.25,0.663,0.032,0.677,39.61,-61.13,36.19,1,1
16386.25,0.681,0.033,0.661,36.68,-61.86,34.97,1,1
16386.265,0.685,0.03,0.668,32.72,-59.79,34.46,1,1
16386.265,0.673,0.034,0.679,29.3,-56.67,33.54,1,1
16386.281,0.661,0.037,0.674,27.62,-55.27,30.95,1,1
16386.296,0.666,0.024,0.652,30.18,-55.82,26.8,1,1
16386.296,0.715,-0.008,0.617,37.39,-54.48,23.26,1,1
16386.312,0.749,-0.016,0.578,47.4,-48.65,21.15,1,1
16386.328,0.749,0.002,0.579,58.66,-38.73,21.61,1,1
16386.328,0.708,0.033,0.606,66.01,-30.92,22.89,1,1
16386.343,0.677,0.06,0.621,64.64,-30.18,23.93,1,1
16386.359,0.647,0.075,0.612,56.25,-36.99,24.2,1,1
16386.359,0.668,0.069,0.604,43.98,-49.38,24.84,1,1
16386.375,0.74,0.047,0.567,40.13,-60.27,25.36,1,1
16386.375,0.804,0.02,0.5,46.21,-62.9,26.55,1,1
16386.39,0.831,0.013,0.439,52.13,-57.04,27.68,1,1
16386.406,0.832,0.004,0.416,54.45,-47.85,26.64,1,1
16386.406,0.809,-0.026,0.419,55.57,-38.0,22.92,1,1
16386.421,0.781,-0.042,0.404,55.79,-33.23,16.75,1,1
16386.437,0.781,-0.031,0.369,57.44,-35.1,8.91,1,1
16386.453,0.801,0.039,0.349,60.67,-38.88,-7.42,1,1
16386.468,0.82,0.049,0.306,61.43,-41.47,-11.51,1,1
16386.468,0.868,0.072,0.295,61.01,-39.28,-11.23,1,1
16386.484,0.871,0.072,0.273,60.64,-33.78,-7.14,1,1
16386.5,0.9,0.073,0.217,57.13,-30.76,-1.43,1,1
16386.5,0.948,0.099,0.178,42.36,-18.4,7.17,1,1
16386.515,0.949,0.114,0.181,34.15,-11.11,11.17,1,1
16386.515,0.919,0.115,0.208,23.8,-6.1,14.01,1,1
16386.531,0.903,0.124,0.268,15.02,-5.22,15.08,1,1
16386.546,0.889,0.038,0.331,11.84,-9.28,15.56,1,1
16386.546,0.927,0.019,0.335,13.52,-15.72,14.71,1,1
16386.562,0.97,0.009,0.307,19.99,-23.65,10.35,1,1
16386.578,1.009,0.02,0.259,28.5,-28.6,5.19,1,1
16386.578,1.031,0.037,0.236,37.02,-26.76,1.86,1,1
16386.593,1.019,0.034,0.183,42.57,-21.03,-0.43,1,1
16386.609,1.008,0.034,0.17,40.44,-14.13,0.21,1,1
16386.625,1.024,0.008,0.189,30.03,-0.67,1.59,1,1
16386.64,1.008,-0.012,0.173,28.2,2.62,0.76,1,1
16386.64,1.018,-0.039,0.163,28.63,5.13,-0.55,1,1
16386.656,1.034,-0.041,0.179,29.18,8.91,-4.03,1,1
16386.656,1.021,-0.041,0.189,30.43,13.43,-9.34,1,1
16386.671,1.004,-0.044,0.203,30.85,16.69,-15.53,1,1
16386.687,0.969,-0.035,0.217,31.92,18.95,-22.03,1,1
16386.687,0.928,-0.029,0.232,33.63,17.85,-27.59,1,1
16386.703,0.932,-0.011,0.25,33.23,13.55,-32.41,1,1
16386.718,0.922,0.01,0.251,32.9,9.55,-35.77,1,1
16386.718,0.914,0.019,0.245,31.56,6.53,-37.42,1,1
16386.734,0.949,0.032,0.243,29.54,4.58,-38.24,1,1
16386.734,0.952,0.043,0.233,28.11,5.13,-39.12,1,1
16386.75,0.969,0.054,0.225,27.13,6.13,-40.53,1,1
16386.765,0.935,0.049,0.215,26.89,7.63,-42.82,1,1
16386.781,0.934,0.04,0.216,27.89,10.65,-43.43,1,1
16386.796,0.872,0.08,0.199,27.92,7.69,-49.2,1,1
16386.796,0.9,0.096,0.213,21.91,1.34,-51.52,1,1
16386.812,0.894,0.101,0.206,18.83,-2.59,-54.48,1,1
16386.828,0.898,0.092,0.204,16.45,-4.24,-55.48,1,1
16386.828,0.934,0.105,0.198,14.25,-3.39,-54.72,1,1
16386.843,0.955,0.108,0.187,10.53,0.31,-53.38,1,1
16386.859,0.971,0.119,0.196,4.82,4.58,-54.17,1,1
16386.859,0.971,0.11,0.206,0.79,7.6,-56.67,1,1
16386.875,0.987,0.123,0.225,1.37,10.9,-58.78,1,1
16386.875,0.975,0.157,0.228,6.71,14.37,-62.17,1,1
16386.89,0.949,0.166,0.221,12.18,15.75,-64.79,1,1
16386.906,0.959,0.211,0.222,15.5,15.08,-66.59,1,1
16386.906,0.941,0.235,0.203,17.85,15.29,-68.18,1,1
16386.921,0.951,0.266,0.208,15.81,16.05,-66.99,1,1
16386.937,0.944,0.296,0.225,11.29,16.69,-65.19,1,1
16386.937,0.944,0.291,0.236,5.55,17.03,-62.32,1,1
16386.968,0.955,0.28,0.232,-6.32,18.65,-54.84,1,1
16386.968,0.951,0.278,0.24,-11.14,20.17,-53.44,1,1
16386.984,0.961,0.281,0.258,-13.31,22.13,-53.32,1,1
16387.0,0.95,0.3,0.274,-11.47,24.08,-54.72,1,1
16387.0,0.932,0.311,0.284,-7.54,25.51,-56.06,1,1
16387.015,0.925,0.329,0.278,-2.66,26.55,-56.58,1,1
16387.015,0.919,0.366,0.278,1.71,27.89,-57.34,1,1
16387.031,0.904,0.392,0.294,2.81,27.74,-58.35,1,1
16387.046,0.895,0.407,0.306,0.46,25.82,-58.63,1,1
16387.046,0.897,0.424,0.314,-2.32,24.14,-57.71,1,1
16387.062,0.889,0.451,0.326,-5.16,23.87,-55.57,1,1
16387.078,0.874,0.46,0.33,-8.61,23.9,-52.34,1,1
16387.078,0.869,0.459,0.345,-11.93,23.65,-48.86,1,1
16387.093,0.866,0.469,0.376,-12.7,22.95,-45.72,1,1
16387.109,0.84,0.477,0.388,-10.13,21.0,-42.85,1,1
16387.109,0.832,0.475,0.38,-7.6,17.12,-39.19,1,1
16387.125,0.857,0.493,0.376,-8.09,10.41,-34.09,1,1
16387.14,0.855,0.49,0.357,-10.99,7.51,-33.36,1,1
16387.156,0.864,0.482,0.345,-15.11,5.71,-32.72,1,1
16387.156,0.868,0.47,0.337,-16.57,6.38,-32.29,1,1
16387.171,0.86,0.471,0.334,-16.08,8.42,-31.77,1,1
16387.187,0.859,0.478,0.334,-15.99,10.28,-31.43,1,1
16387.187,0.849,0.481,0.338,-15.32,12.7,-31.83,1,1
16387.203,0.841,0.491,0.355,-13.31,15.23,-32.56,1,1
16387.218,0.832,0.513,0.383,-9.67,17.33,-33.45,1,1
16387.218,0.814,0.534,0.4,-4.03,18.83,-33.48,1,1
16387.234,0.793,0.554,0.411,1.56,19.26,-32.17,1,1
16387.25,0.79,0.581,0.421,5.92,18.19,-30.3,1,1
16387.25,0.788,0.603,0.422,8.67,16.97,-28.57,1,1
16387.265,0.769,0.62,0.421,9.31,16.05,-25.85,1,1
16387.265,0.741,0.632,0.418,7.05,13.92,-21.12,1,1
16387.281,0.762,0.646,0.416,2.47,9.77,-15.38,1,1
16387.296,0.778,0.628,0.429,-6.78,5.58,-5.16,1,1
16387.312,0.751,0.585,0.41,-7.42,5.16,-2.14,1,1
16387.328,0.766,0.55,0.407,-9.52,3.2,0.61,1,1
16387.328,0.779,0.533,0.41,-8.64,2.84,2.35,1,1
16387.343,0.792,0.534,0.404,-6.16,4.15,1.8,1,1
16387.343,0.776,0.532,0.401,-4.06,6.78,0.49,1,1
16387.359,0.758,0.515,0.42,-2.62,8.58,0.67,1,1
16387.375,0.761,0.53,0.428,0.43,9.13,1.53,1,1
16387.375,0.752,0.537,0.429,2.78,9.52,2.47,1,1
16387.39,0.752,0.54,0.441,3.39,9.64,3.08,1,1
16387.406,0.734,0.538,0.447,3.91,9.83,3.33,1,1
16387.406,0.72,0.527,0.447,4.12,8.88,4.21,1,1
16387.421,0.723,0.52,0.443,3.2,6.38,5.01,1,1
16387.437,0.731,0.507,0.438,2.2,4.18,4.64,1,1
16387.453,0.734,0.49,0.432,2.04,2.69,3.27,1,1
16387.453,0.738,0.482,0.427,2.96,1.65,2.2,1,1
16387.468,0.761,0.485,0.409,4.12,0.92,-1.1,1,1
16387.484,0.757,0.478,0.406,5.25,2.08,-2.99,1,1
16387.484,0.755,0.478,0.411,10.8,4.88,-4.76,1,1
16387.5,0.759,0.493,0.412,12.54,6.47,-5.74,1,1
16387.515,0.753,0.5,0.412,12.7,7.97,-6.53,1,1
16387.515,0.719,0.524,0.428,11.93,9.19,-6.01,1,1
16387.531,0.702,0.533,0.441,9.67,8.73,-4.09,1,1
16387.546,0.702,0.532,0.453,7.11,6.81,-1.86,1,1
16387.546,0.709,0.531,0.462,5.46,4.85,-0.21,1,1
16387.562,0.715,0.528,0.468,4.61,3.2,0.76,1,1
16387.578,0.714,0.525,0.469,4.79,2.14,1.16,1,1
16387.578,0.715,0.518,0.465,5.55,1.5,1.28,1,1
16387.593,0.721,0.518,0.471,6.87,1.5,0.89,1,1
16387.609,0.715,0.528,0.48,8.73,2.17,-0.09,1,1
16387.609,0.702,0.524,0.477,10.44,1.74,-0.52,1,1
16387.625,0.692,0.522,0.477,12.18,0.82,0.03,1,1
16387.625,0.698,0.525,0.482,14.01,-0.49,0.0,1,1
16387.64,0.704,0.537,0.48,15.14,-1.16,-0.85,1,1
16387.656,0.702,0.546,0.473,15.05,-1.13,-1.28,1,1
16387.656,0.699,0.548,0.467,14.07,-0.79,-0.92,1,1
16387.671,0.693,0.545,0.462,12.33,-0.43,-0.12,1,1
16387.687,0.68,0.535,0.46,10.07,-0.7,0.82,1,1
16387.687,0.683,0.534,0.464,7.69,-1.71,1.89,1,1
16387.703,0.697,0.545,0.463,5.34,-2.2,2.62,1,1
16387.718,0.702,0.537,0.459,3.69,-1.28,2.56,1,1
16387.718,0.704,0.533,0.472,2.87,-0.03,2.11,1,1
16387.734,0.704,0.535,0.478,3.17,0.89,1.53,1,1
16387.75,0.702,0.534,0.479,3.78,1.19,1.22,1,1
16387.75,0.703,0.535,0.482,4.21,0.76,0.82,1,1
16387.765,0.7,0.536,0.487,4.82,0.24,0.31,1,1
16387.765,0.698,0.535,0.49,5.37,-0.92,0.03,1,1
16387.781,0.703,0.536,0.493,6.04,-2.69,-0.15,1,1
16387.796,0.699,0.532,0.493,6.99,-4.27,-0.7,1,1
16387.796,0.689,0.542,0.484,7.26,-6.44,-0.37,1,1
16387.812,0.694,0.558,0.474,5.04,-10.19,1.1,1,1
16387.828,0.706,0.553,0.455,1.31,-14.1,3.05,1,1
16387.828,0.726,0.541,0.446,-2.59,-17.24,4.73,1,1
16387.843,0.748,0.531,0.44,-4.15,-18.56,5.16,1,1
16387.859,0.76,0.528,0.433,-3.17,-18.49,5.01,1,1
16387.859,0.767,0.527,0.433,-0.89,-17.82,4.52,1,1
16387.875,0.756,0.54,0.437,2.17,-16.82,3.75,1,1
16387.875,0.745,0.554,0.453,5.95,-17.12,4.0,1,1
16387.89,0.739,0.574,0.452,8.36,-19.41,4.21,1,1
16387.906,0.732,0.59,0.459,8.97,-22.4,4.79,1,1
16387.906,0.739,0.596,0.468,9.98,-26.06,5.62,1,1
16387.921,0.749,0.606,0.453,11.05,-28.87,6.44,1,1
16387.937,0.76,0.61,0.437,11.02,-30.06,7.69,1,1
16387.937,0.767,0.607,0.425,10.59,-29.94,9.06,1,1
16387.953,0.767,0.608,0.414,9.58,-29.05,10.35,1,1
16387.968,0.773,0.606,0.402,7.6,-27.71,11.81,1,1
16387.968,0.754,0.581,0.395,7.11,-25.12,13.15,1,1
16387.984,0.748,0.566,0.394,6.16,-23.83,14.8,1,1
16388.0,0.737,0.534,0.376,7.17,-23.26,16.39,1,1
16388.0,0.743,0.51,0.36,8.21,-23.04,17.98,1,1
16388.015,0.742,0.503,0.343,8.3,-23.04,17.98,1,1
16388.031,0.745,0.479,0.322,7.66,-24.11,16.94,1,1
16388.031,0.761,0.464,0.313,6.56,-24.38,15.69,1,1
16388.046,0.77,0.45,0.303,7.84,-22.13,14.28,1,1
16388.046,0.769,0.438,0.291,10.04,-18.92,13.18,1,1
16388.062,0.777,0.434,0.285,11.93,-16.82,11.47,1,1
16388.078,0.781,0.432,0.277,13.55,-14.31,9.31,1,1
16388.078,0.782,0.434,0.282,14.01,-12.05,7.9,1,1
16388.093,0.789,0.433,0.279,13.12,-10.68,6.56,1,1
16388.109,0.799,0.429,0.275,11.72,-9.16,5.52,1,1
16388.109,0.801,0.427,0.275,10.59,-7.14,4.43,1,1
16388.125,0.799,0.43,0.28,9.61,-5.19,3.45,1,1
16388.125,0.791,0.43,0.285,8.27,-3.88,3.08,1,1
16388.14,0.796,0.428,0.291,6.44,-3.23,2.93,1,1
16388.156,0.8,0.436,0.299,5.77,-2.17,2.35,1,1
16388.156,0.791,0.427,0.307,6.26,-1.01,1.8,1,1
16388.171,0.792,0.431,0.316,5.83,-1.1,1.46,1,1
16388.187,0.797,0.431,0.31,5.43,-1.5,0.18,1,1
16388.203,0.802,0.423,0.312,5.46,-1.5,-1.65,1,1
16388.203,0.807,0.43,0.318,6.93,0.0,-3.81,1,1
16388.218,0.801,0.439,0.317,10.01,2.35,-5.28,1,1
16388.218,0.786,0.464,0.318,11.66,4.06,-6.13,1,1
16388.234,0.782,0.484,0.322,10.44,3.85,-6.44,1,1
16388.25,0.787,0.508,0.334,7.51,3.36,-6.35,1,1
16388.25,0.774,0.514,0.341,5.71,3.27,-5.74,1,1
16388.265,0.766,0.521,0.347,4.09,2.29,-3.85,1,1
16388.265,0.766,0.523,0.344,2.32,0.06,-2.08,1,1
16388.281,0.772,0.514,0.341,0.15,-1.95,-1.01,1,1
16388.296,0.775,0.504,0.337,-0.31,-3.08,-0.55,1,1
16388.296,0.772,0.485,0.325,1.07,-3.72,-0.73,1,1
16388.312,0.776,0.464,0.314,3.05,-4.27,-0.92,1,1
16388.328,0.782,0.481,0.299,6.74,-2.78,-4.15,1,1
16388.343,0.779,0.485,0.295,6.56,-2.17,-4.97,1,1
16388.359,0.784,0.494,0.297,6.1,-1.34,-4.94,1,1
16388.359,0.781,0.51,0.298,5.68,0.09,-5.19,1,1
16388.375,0.767,0.51,0.301,4.58,0.85,-5.19,1,1
16388.375,0.769,0.506,0.303,3.23,0.46,-4.33,1,1
16388.39,0.779,0.51,0.305,2.84,0.0,-3.85,1,1
16388.406,0.782,0.516,0.309,2.78,0.12,-4.64,1,1
16388.421,0.78,0.52,0.313,2.99,0.12,-5.22,1,1
16388.421,0.779,0.523,0.316,3.63,-0.37,-5.46,1,1
16388.437,0.783,0.528,0.314,4.46,-0.55,-5.43,1,1
16388.437,0.78,0.542,0.313,5.01,-0.37,-5.71,1,1
16388.453,0.764,0.544,0.317,5.46,-0.4,-5.43,1,1
16388.468,0.759,0.555,0.315,5.58,-1.62,-4.27,1,1
16388.468,0.76,0.572,0.31,1.77,-4.73,-0.49,1,1
16388.484,0.767,0.573,0.304,-1.07,-5.31,1.07,1,1
16388.5,0.788,0.563,0.301,-3.14,-2.66,3.11,1,1
16388.515,0.795,0.548,0.302,-2.56,-0.34,3.05,1,1
16388.515,0.792,0.534,0.308,-1.31,1.62,2.38,1,1
16388.531,0.784,0.527,0.317,0.37,2.75,1.68,1,1
16388.546,0.775,0.519,0.319,2.29,2.72,1.07,1,1
16388.546,0.772,0.516,0.319,4.06,1.89,0.37,1,1
16388.562,0.771,0.514,0.321,4.91,0.79,-0.37,1,1
16388.578,0.775,0.516,0.317,5.74,0.21,-1.22,1,1
16388.578,0.778,0.517,0.31,6.41,0.55,-1.8,1,1
16388.593,0.778,0.521,0.309,6.5,1.59,-2.04,1,1
16388.609,0.771,0.523,0.309,6.07,2.62,-2.26,1,1
16388.609,0.767,0.522,0.31,5.13,3.08,-1.71,1,1
16388.625,0.766,0.522,0.31,3.33,2.99,-0.92,1,1
16388.64,0.761,0.516,0.305,1.56,2.9,-0.52,1,1
16388.64,0.763,0.503,0.302,0.43,2.47,-0.27,1,1
16388.656,0.766,0.495,0.294,0.09,1.83,-0.49,1,1
16388.656,0.771,0.492,0.278,0.58,1.65,-1.31,1,1
16388.671,0.774,0.492,0.263,1.34,2.14,-2.5,1,1
16388.687,0.77,0.501,0.254,1.65,2.84,-3.39,1,1
16388.687,0.77,0.503,0.235,1.89,3.94,-3.63,1,1
16388.703,0.77,0.51,0.231,1.56,5.43,-3.39,1,1
16388.718,0.774,0.522,0.222,1.1,6.29,-2.69,1,1
16388.718,0.784,0.526,0.21,0.7,7.35,-2.04,1,1
16388.734,0.795,0.537,0.199,-0.21,9.28,-0.85,1,1
16388.734,0.805,0.539,0.196,-1.31,11.72,0.79,1,1
16388.75,0.82,0.55,0.204,-2.99,13.98,2.32,1,1
16388.765,0.823,0.545,0.209,-2.96,17.61,3.78,1,1
16388.765,0.826,0.555,0.233,-3.78,20.63,4.88,1,1
16388.781,0.834,0.555,0.256,-3.42,22.74,6.16,1,1
16388.796,0.838,0.562,0.278,-2.5,24.17,7.66,1,1
16388.796,0.84,0.571,0.294,-2.29,24.9,9.77,1,1
16388.812,0.842,0.568,0.308,-2.99,24.78,12.39,1,1
16388.828,0.848,0.557,0.317,-4.82,24.41,15.14,1,1
16388.828,0.852,0.544,0.327,-7.26,23.87,17.76,1,1
16388.843,0.858,0.529,0.335,-9.34,23.35,19.87,1,1
16388.843,0.853,0.506,0.351,-10.01,23.16,20.94,1,1
16388.859,0.853,0.49,0.36,-9.49,23.04,21.3,1,1
16388.875,0.855,0.48,0.366,-8.51,22.8,20.66,1,1
16388.875,0.845,0.476,0.377,-7.23,23.29,19.1,1,1
16388.89,0.827,0.47,0.389,-6.01,23.77,17.98,1,1
16388.906,0.823,0.475,0.395,-4.97,23.87,17.09,1,1
16388.906,0.812,0.487,0.399,-4.79,24.78,16.02,1,1
16388.921,0.786,0.486,0.408,-4.97,25.48,15.08,1,1
16388.937,0.767,0.485,0.424,-5.13,25.03,14.92,1,1
16388.937,0.757,0.489,0.44,-4.24,24.11,14.98,1,1
16388.953,0.742,0.489,0.456,-2.93,22.71,14.31,1,1
16388.968,0.74,0.491,0.469,-1.5,20.54,13.12,1,1
16388.968,0.735,0.503,0.481,0.18,18.98,11.29,1,1
16388.984,0.714,0.506,0.485,2.41,17.24,9.22,1,1
16388.984,0.707,0.504,0.486,4.33,14.53,7.84,1,1
16389.0,0.702,0.516,0.479,6.38,11.2,5.8,1,1
16389.015,0.694,0.521,0.472,7.02,8.64,3.69,1,1
16389.015,0.679,0.51,0.472,6.26,6.9,2.41,1,1
16389.031,0.667,0.501,0.477,6.68,5.22,1.86,1,1
16389.046,0.668,0.507,0.472,7.81,2.99,1.53,1,1
16389.046,0.672,0.503,0.466,8.33,1.34,1.07,1,1
16389.062,0.679,0.502,0.461,8.88,1.07,0.12,1,1
16389.078,0.675,0.503,0.456,9.43,1.56,-0.98,1,1
16389.078,0.667,0.499,0.453,9.13,1.46,-1.98,1,1
16389.093,0.667,0.495,0.45,8.51,1.07,-2.9,1,1
16389.109,0.666,0.489,0.442,7.9,0.92,-3.66,1,1
16389.109,0.662,0.489,0.44,6.96,0.98,-4.18,1,1
16389.125,0.66,0.484,0.438,6.07,0.67,-4.88,1,1
16389.125,0.665,0.476,0.439,5.4,-0.09,-5.71,1,1
16389.14,0.672,0.465,0.438,5.13,-0.58,-6.84,1,1
16389.156,0.674,0.458,0.432,5.83,-0.89,-8.15,1,1
16389.156,0.684,0.458,0.425,6.41,-0.85,-9.52,1,1
16389.171,0.696,0.457,0.419,6.65,-0.18,-11.02,1,1
16389.187,0.702,0.456,0.419,6.78,1.59,-12.3,1,1
16389.187,0.704,0.46,0.421,6.81,3.66,-13.03,1,1
16389.203,0.705,0.467,0.419,6.29,5.07,-13.7,1,1
16389.218,0.706,0.465,0.419,4.82,5.83,-14.59,1,1
16389.218,0.707,0.458,0.426,3.72,6.44,-15.23,1,1
16389.234,0.715,0.461,0.429,3.69,7.02,-15.5,1,1
16389.25,0.718,0.464,0.429,4.0,7.54,-15.99,1,1
16389.25,0.725,0.464,0.43,3.45,7.45,-16.75,1,1
16389.265,0.736,0.47,0.439,2.93,7.48,-17.73,1,1
16389.265,0.736,0.484,0.44,3.08,8.15,-18.86,1,1
16389.281,0.736,0.496,0.441,2.75,8.33,-19.26,1,1
16389.296,0.742,0.509,0.448,1.95,7.9,-19.41,1,1
16389.312,0.743,0.517,0.45,1.07,7.75,-19.44,1,1
16389.312,0.739,0.516,0.448,0.7,7.39,-18.95,1,1
16389.328,0.736,0.517,0.446,0.43,6.74,-18.31,1,1
16389.328,0.74,0.517,0.44,0.73,6.01,-17.88,1,1
16389.343,0.746,0.522,0.441,1.74,5.8,-17.94,1,1
16389.359,0.732,0.542,0.437,2.87,5.65,-18.25,1,1
16389.375,0.731,0.551,0.432,2.32,5.04,-17.76,1,1
16389.375,0.729,0.564,0.435,1.28,4.76,-17.03,1,1
16389.39,0.722,0.567,0.441,0.24,4.36,-16.42,1,1
16389.406,0.721,0.565,0.442,-0.21,3.2,-15.35,1,1
16389.421,0.722,0.558,0.439,0.61,2.17,-14.59,1,1
16389.421,0.728,0.559,0.433,2.38,1.37,-14.13,1,1
16389.437,0.727,0.566,0.425,3.88,1.1,-14.34,1,1
16389.437,0.723,0.568,0.422,4.3,1.04,-14.37,1,1
16389.453,0.722,0.573,0.417,4.55,1.19,-13.25,1,1
16389.468,0.717,0.576,0.416,4.91,1.1,-12.54,1,1
16389.468,0.714,0.58,0.421,5.62,0.52,-11.6,1,1
16389.484,0.712,0.58,0.418,6.62,0.0,-11.02,1,1
16389.484,0.716,0.575,0.402,7.63,-0.06,-10.59,1,1
16389.5,0.716,0.585,0.4,8.15,0.73,-10.62,1,1
16389.515,0.712,0.595,0.399,8.06,1.86,-10.71,1,1
16389.531,0.696,0.601,0.402,7.05,2.75,-8.94,1,1
16389.546,0.696,0.609,0.407,6.13,2.47,-8.06,1,1
16389.546,0.694,0.608,0.407,5.37,2.14,-7.14,1,1
16389.562,0.692,0.602,0.406,5.55,2.23,-5.98,1,1
16389.578,0.691,0.599,0.407,6.29,2.5,-4.88,1,1
16389.578,0.69,0.602,0.407,6.99,2.62,-4.09,1,1
16389.593,0.687,0.601,0.407,7.11,2.84,-3.57,1,1
16389.609,0.686,0.6,0.403,6.84,2.81,-2.78,1,1
16389.609,0.684,0.599,0.404,6.13,2.87,-1.83,1,1
16389.625,0.681,0.596,0.404,5.46,3.05,-1.07,1,1
16389.625,0.677,0.597,0.408,4.73,3.17,-0.15,1,1
16389.64,0.675,0.597,0.407,4.24,2.9,0.64,1,1
16389.656,0.676,0.597,0.408,3.17,2.53,1.37,1,1
16389.656,0.675,0.596,0.41,2.14,1.98,1.8,1,1
16389.671,0.675,0.591,0.41,1.31,1.34,1.95,1,1
16389.687,0.675,0.59,0.411,0.89,1.1,2.14,1,1
16389.703,0.678,0.578,0.413,1.28,1.04,1.89,1,1
16389.718,0.679,0.578,0.418,2.01,1.28,1.65,1,1
16389.718,0.677,0.577,0.42,2.59,1.16,0.89,1,1
16389.734,0.676,0.574,0.421,2.78,0.76,0.52,1,1
16389.75,0.677,0.571,0.423,3.36,0.73,0.43,1,1
16389.75,0.681,0.571,0.42,4.09,0.61,0.27,1,1
16389.765,0.682,0.572,0.419,4.21,0.89,-0.27,1,1
16389.765,0.679,0.571,0.42,4.3,1.28,-1.1,1,1
16389.781,0.677,0.572,0.424,4.52,1.46,-1.34,1,1
16389.796,0.677,0.578,0.425,4.55,1.16,-1.5,1,1
16389.796,0.674,0.583,0.427,3.91,0.76,-1.65,1,1
16389.812,0.673,0.58,0.431,3.17,-0.12,-1.62,1,1
16389.828,0.678,0.578,0.427,3.11,-0.92,-1.37,1,1
16389.843,0.682,0.576,0.425,3.36,-1.19,-1.56,1,1
16389.843,0.684,0.572,0.422,3.85,-1.1,-2.26,1,1
16389.843,0.682,0.569,0.42,4.52,-0.82,-2.96,1,1
16389.859,0.683,0.573,0.416,5.01,-0.58,-3.6,1,1
16389.875,0.678,0.571,0.412,5.01,-0.4,-4.24,1,1
16389.875,0.681,0.569,0.409,4.64,-0.7,-4.61,1,1
16389.89,0.686,0.568,0.406,4.24,-1.13,-4.85,1,1
16389.906,0.694,0.563,0.399,3.75,-1.98,-5.4,1,1
16389.921,0.703,0.552,0.384,4.21,-2.08,-6.04,1,1
16389.921,0.717,0.555,0.392,4.85,-1.56,-6.44,1,1
16389.937,0.728,0.553,0.388,6.32,-1.16,-7.63,1,1
16389.937,0.739,0.559,0.385,8.03,-0.61,-8.64,1,1
16389.953,0.762,0.569,0.379,9.34,-0.27,-9.22,1,1
16389.968,0.787,0.577,0.379,10.77,0.0,-9.25,1,1
16389.968,0.814,0.594,0.377,11.75,0.64,-8.73,1,1
16389.984,0.837,0.622,0.381,11.41,1.89,-7.14,1,1
16389.984,0.863,0.637,0.385,9.61,3.2,-4.21,1,1
16390.0,0.89,0.647,0.382,5.07,4.18,0.0,1,1
16390.015,0.918,0.647,0.383,-1.4,5.28,5.22,1,1
16390.015,0.937,0.633,0.383,-9.67,6.53,10.74,1,1
16390.031,0.953,0.61,0.378,-18.8,7.57,16.24,1,1
16390.046,0.949,0.563,0.355,-28.32,7.87,20.45,1,1
16390.046,0.946,0.504,0.33,-39.28,8.24,23.44,1,1
16390.062,0.944,0.452,0.313,-48.92,8.97,24.32,1,1
16390.078,0.936,0.399,0.284,-55.18,10.99,22.98,1,1
16390.093,0.939,0.365,0.273,-59.97,15.38,19.68,1,1
16390.093,0.952,0.355,0.281,-61.8,23.99,14.44,1,1
16390.109,0.949,0.359,0.287,-61.56,36.41,7.08,1,1
16390.109,0.924,0.344,0.291,-59.54,49.96,-1.65,1,1
16390.125,0.909,0.347,0.303,-56.18,63.78,-9.34,1,1
16390.14,0.874,0.37,0.311,-52.71,76.63,-16.88,1,1
16390.14,0.83,0.386,0.307,-52.03,87.56,-23.44,1,1
16390.156,0.778,0.403,0.295,-55.36,96.29,-28.9,1,1
16390.171,0.735,0.407,0.293,-62.44,102.97,-33.02,1,1
16390.171,0.687,0.396,0.295,-71.84,108.95,-35.65,1,1
16390.187,0.648,0.399,0.312,-82.64,114.6,-36.87,1,1
16390.187,0.594,0.386,0.337,-91.07,119.6,-38.3,1,1
16390.203,0.563,0.367,0.377,-95.16,124.7,-39.0,1,1
16390.218,0.529,0.384,0.419,-95.19,132.51,-40.31,1,1
16390.218,0.488,0.407,0.472,-92.99,142.37,-43.95,1,1
16390.234,0.442,0.401,0.518,-88.47,151.37,-47.15,1,1
16390.234,0.397,0.395,0.559,-81.91,158.76,-48.62,1,1
16390.25,0.329,0.422,0.619,-75.05,163.95,-48.13,1,1
16390.265,0.255,0.438,0.691,-67.45,161.2,-45.53,1,1
16390.281,0.194,0.447,0.759,-59.82,148.23,-39.12,1,1
16390.281,0.155,0.462,0.801,-51.3,127.2,-28.99,1,1
16390.296,0.141,0.481,0.825,-43.37,102.69,-17.67,1,1
16390.296,0.157,0.502,0.831,-39.74,78.19,-8.97,1,1
16390.312,0.175,0.48,0.83,-40.83,56.37,-5.43,1,1
16390.328,0.196,0.453,0.823,-45.08,39.31,-6.5,1,1
16390.328,0.215,0.44,0.815,-49.9,29.66,-11.32,1,1
16390.343,0.222,0.441,0.821,-53.47,29.69,-18.4,1,1
16390.359,0.21,0.439,0.821,-56.58,37.69,-26.0,1,1
16390.359,0.188,0.424,0.841,-59.18,50.26,-32.29,1,1
16390.375,0.152,0.396,0.894,-55.21,74.07,-39.98,1,1
16390.39,0.114,0.404,0.924,-48.1,83.59,-42.85,1,1
16390.406,0.066,0.412,0.955,-38.79,90.15,-44.71,1,1
16390.406,0.025,0.446,0.988,-31.07,92.62,-44.8,1,1
16390.421,-0.0,0.469,0.998,-25.42,90.18,-43.89,1,1
16390.437,-0.008,0.496,1.017,-22.98,85.02,-42.79,1,1
16390.437,0.001,0.532,1.025,-21.61,75.81,-44.07,1,1
16390.453,-0.009,0.516,1.001,-21.94,72.63,-42.18,1,1
16390.468,-0.021,0.525,0.998,-19.78,69.58,-37.29,1,1
16390.468,-0.042,0.495,0.99,-17.46,63.75,-31.77,1,1
16390.484,-0.033,0.473,0.99,-15.63,55.94,-27.47,1,1
16390.5,-0.019,0.453,0.979,-14.53,47.43,-24.99,1,1
16390.5,-0.009,0.417,0.959,-15.41,38.94,-24.48,1,1
16390.515,0.004,0.405,0.956,-18.04,31.77,-25.73,1,1
16390.515,0.01,0.403,0.948,-21.15,26.28,-28.6,1,1
16390.531,0.003,0.383,0.936,-24.51,22.4,-31.8,1,1
16390.562,-0.006,0.364,0.889,-27.99,25.85,-36.56,1,1
16390.562,-0.014,0.35,0.896,-27.04,32.26,-38.09,1,1
16390.578,-0.028,0.347,0.906,-23.13,38.51,-37.97,1,1
16390.578,-0.038,0.349,0.905,-17.98,42.97,-36.26,1,1
16390.593,-0.126,0.421,1.073,-9.55,42.54,-31.98,1,1
16390.609,-0.149,0.411,1.137,7.78,28.41,-20.08,1,1
16390.609,-0.081,0.442,1.101,9.98,7.84,-14.22,1,1
16390.625,-0.143,0.471,1.159,7.97,-11.47,-11.72,1,1
16390.64,-0.032,0.37,0.994,7.78,-30.3,-8.39,1,1
16390.64,0.05,0.389,0.882,0.61,-35.4,-9.8,1,1
16390.656,0.057,0.37,0.827,-0.49,-27.01,-11.23,1,1
16390.656,0.047,0.348,0.856,1.53,-14.4,-9.86,1,1
16390.671,0.017,0.379,0.915,2.47,-3.69,-8.09,1,1
16390.687,-0.016,0.389,0.966,1.86,1.59,-4.55,1,1
16390.687,-0.025,0.367,0.997,-0.24,3.11,0.92,1,1
16390.703,-0.004,0.35,1.007,-0.89,2.75,4.79,1,1
16390.718,0.011,0.329,0.987,9.22,-0.43,5.07,1,1
16390.734,0.002,0.361,1.003,14.13,-4.03,4.21,1,1
16390.734,-0.009,0.38,1.002,19.38,-12.02,5.52,1,1
16390.75,0.075,0.344,0.883,18.13,-19.59,5.89,1,1
16390.765,0.04,0.426,0.915,13.21,-19.81,5.52,1,1
16390.765,0.047,0.356,0.899,18.1,-19.38,9.95,1,1
16390.781,0.098,0.355,0.897,14.71,-21.58,10.41,1,1
16390.796,0.102,0.38,0.887,10.56,-21.45,8.76,1,1
16390.796,0.113,0.371,0.887,6.65,-20.81,7.42,1,1
16390.812,0.122,0.368,0.889,2.11,-20.33,5.25,1,1
16390.828,0.129,0.368,0.889,-1.68,-18.77,3.02,1,1
16390.828,0.128,0.372,0.89,-3.63,-15.93,1.22,1,1
16390.843,0.13,0.37,0.896,-4.0,-11.72,0.37,1,1
16390.859,0.13,0.368,0.902,-3.36,-8.0,-0.73,1,1
16390.859,0.127,0.364,0.905,-1.77,-5.43,-1.5,1,1
16390.875,0.127,0.37,0.904,-0.18,-3.94,-1.68,1,1
16390.89,0.136,0.371,0.885,2.23,-2.47,-2.35,1,1
16390.906,0.137,0.375,0.877,2.35,-1.37,-2.41,1,1
16390.906,0.14,0.374,0.865,1.46,0.03,-2.62,1,1
16390.921,0.138,0.37,0.86,-0.31,0.95,-2.75,1,1
16390.937,0.137,0.367,0.863,-1.65,1.8,-2.44,1,1
16390.937,0.132,0.366,0.871,-2.41,2.96,-1.8,1,1
16390.953,0.128,0.364,0.884,-2.75,3.66,-1.43,1,1
16390.968,0.123,0.364,0.892,-2.84,4.52,-1.53,1,1
16390.968,0.12,0.368,0.895,-2.78,4.97,-2.2,1,1
16390.984,0.115,0.371,0.899,-3.05,4.97,-3.05,1,1
16390.984,0.107,0.376,0.904,-3.2,4.85,-3.6,1,1
16391.0,0.099,0.381,0.908,-3.11,5.01,-3.75,1,1
16391.015,0.084,0.392,0.917,-3.39,5.68,-3.3,1,1
16391.015,0.073,0.399,0.932,-4.09,6.56,-3.08,1,1
16391.031,0.068,0.392,0.945,-4.7,6.53,-2.78,1,1
16391.046,0.072,0.394,0.951,-4.27,5.52,-2.23,1,1
16391.062,0.066,0.377,0.938,-2.17,1.56,-1.34,1,1
16391.078,0.08,0.383,0.926,-0.92,-0.12,-0.85,1,1
16391.078,0.081,0.379,0.905,0.43,-0.85,-1.1,1,1
16391.093,0.091,0.368,0.889,0.58,-1.01,-1.56,1,1
16391.109,0.1,0.36,0.876,-0.18,0.55,-2.29,1,1
16391.109,0.106,0.352,0.881,-1.68,3.14,-3.48,1,1
16391.125,0.124,0.339,0.865,-2.96,5.92,-5.8,1,1
16391.125,0.118,0.335,0.804,-3.6,10.99,-9.61,1,1
16391.14,0.028,0.389,0.89,-2.75,18.62,-11.14,1,1
16391.156,0.021,0.38,1.028,4.85,17.06,-5.8,1,1
16391.156,0.074,0.375,0.923,6.47,6.81,-3.63,1,1
16391.171,0.078,0.425,0.919,-4.06,4.91,-6.9,1,1
16391.187,-0.039,0.421,1.057,-1.83,5.4,-4.49,1,1
16391.187,0.036,0.342,1.01,6.5,-1.68,2.2,1,1
16391.203,0.061,0.421,0.959,2.44,-5.25,2.53,1,1
16391.218,0.044,0.393,0.957,1.04,-2.11,2.78,1,1
16391.218,0.052,0.348,0.957,0.98,1.16,3.66,1,1
16391.234,0.06,0.357,0.95,1.56,3.17,3.33,1,1
16391.25,0.056,0.355,0.935,2.35,2.9,2.62,1,1
16391.25,0.05,0.381,0.935,2.32,0.98,2.2,1,1
16391.265,0.056,0.383,0.945,3.36,-2.32,2.56,1,1
16391.265,0.053,0.38,0.959,3.63,-6.78,3.94,1,1
16391.281,0.02,0.402,0.982,4.88,-12.02,6.68,1,1
16391.296,0.108,0.329,0.895,6.41,-17.24,10.25,1,1
16391.296,0.114,0.372,0.876,0.95,-17.61,6.53,1,1
16391.312,0.069,0.353,0.897,4.18,-12.85,5.58,1,1
16391.328,0.099,0.344,0.914,8.67,-11.32,7.29,1,1
16391.328,0.117,0.374,0.9,8.12,-11.02,6.59,1,1
16391.343,0.108,0.383,0.896,5.58,-9.55,4.55,1,1
16391.359,0.103,0.374,0.896,4.15,-7.63,3.36,1,1
16391.359,0.104,0.368,0.901,3.66,-5.74,2.69,1,1
16391.375,0.104,0.378,0.906,3.94,-4.21,2.01,1,1
16391.375,0.102,0.387,0.902,4.55,-3.2,1.1,1,1
16391.39,0.099,0.386,0.901,4.3,-2.66,0.49,1,1
16391.406,0.094,0.388,0.909,3.97,-2.5,0.43,1,1
16391.406,0.098,0.396,0.913,4.12,-3.2,0.34,1,1
16391.421,0.1,0.399,0.908,3.78,-4.97,0.4,1,1
16391.437,0.096,0.402,0.907,3.45,-5.74,0.76,1,1
16391.437,0.094,0.403,0.91,3.51,-6.1,1.04,1,1
16391.453,0.094,0.407,0.908,3.36,-5.37,1.19,1,1
16391.468,0.1,0.408,0.903,2.5,-4.27,1.25,1,1
16391.468,0.099,0.399,0.903,2.01,-3.05,1.22,1,1
16391.484,0.098,0.396,0.904,2.29,-2.11,1.25,1,1
16391.5,0.102,0.393,0.905,2.87,-1.43,1.13,1,1
16391.5,0.108,0.39,0.901,3.78,-1.19,1.01,1,1
16391.515,0.105,0.386,0.901,4.94,-1.13,1.1,1,1
16391.531,0.1,0.385,0.902,5.89,-1.31,1.25,1,1
16391.531,0.1,0.385,0.904,6.35,-1.56,1.13,1,1
16391.546,0.094,0.39,0.908,5.19,-2.11,0.46,1,1
16391.546,0.089,0.392,0.913,3.05,-3.2,-0.06,1,1
16391.562,0.095,0.394,0.918,0.43,-4.82,-0.31,1,1
16391.578,0.099,0.387,0.914,-2.59,-7.32,-0.95,1,1
16391.593,0.096,0.385,0.913,-2.87,-7.6,-1.16,1,1
16391.609,0.097,0.381,0.916,-2.14,-7.02,-0.85,1,1
16391.609,0.1,0.38,0.918,-0.55,-6.2,-0.31,1,1
16391.625,0.105,0.379,0.914,2.01,-5.55,0.15,1,1
16391.625,0.108,0.375,0.908,4.82,-4.91,0.4,1,1
16391.64,0.111,0.381,0.905,6.62,-3.97,0.61,1,1
16391.656,0.111,0.391,0.898,7.17,-3.14,0.43,1,1
16391.671,0.114,0.394,0.894,6.74,-2.41,0.18,1,1
16391.671,0.112,0.395,0.89,5.65,-1.83,0.18,1,1
16391.687,0.11,0.399,0.892,4.67,-0.85,0.24,1,1
16391.687,0.106,0.403,0.895,3.75,-0.34,0.43,1,1
16391.703,0.103,0.406,0.895,2.96,-0.43,0.95,1,1
16391.718,0.106,0.405,0.893,2.29,-0.52,1.34,1,1
16391.718,0.107,0.404,0.897,1.95,-0.27,1.68,1,1
16391.734,0.104,0.409,0.9,2.17,-0.06,1.86,1,1
16391.75,0.101,0.403,0.903,2.59,0.12,1.98,1,1
16391.765,0.1,0.404,0.907,2.53,-0.31,1.56,1,1
16391.765,0.104,0.405,0.908,2.56,-1.34,1.34,1,1
16391.781,0.102,0.407,0.906,2.5,-2.29,1.31,1,1
16391.796,0.101,0.411,0.904,1.89,-3.17,1.28,1,1
16391.796,0.106,0.409,0.902,1.22,-4.21,1.31,1,1
16391.812,0.108,0.406,0.899,0.98,-4.88,1.4,1,1
16391.828,0.114,0.405,0.897,1.71,-5.1,1.86,1,1
16391.828,0.123,0.407,0.885,3.39,-4.09,1.92,1,1
16391.843,0.112,0.409,0.88,4.52,-2.11,1.46,1,1
16391.843,0.114,0.399,0.881,4.36,-0.7,2.01,1,1
16391.859,0.116,0.409,0.884,3.75,0.12,2.59,1,1
16391.875,0.116,0.413,0.886,3.69,0.31,2.66,1,1
16391.875,0.116,0.407,0.894,3.48,0.09,2.29,1,1
16391.89,0.11,0.412,0.899,2.14,-0.64,1.74,1,1
16391.906,0.103,0.413,0.902,0.7,-2.04,1.37,1,1
16391.906,0.103,0.417,0.908,-0.95,-4.0,1.25,1,1
16391.921,0.098,0.415,0.913,-1.95,-6.35,1.71,1,1
16391.937,0.099,0.411,0.917,-2.26,-9.03,2.69,1,1
16391.937,0.104,0.406,0.919,-1.62,-11.17,3.66,1,1
16391.953,0.112,0.403,0.915,0.06,-12.33,4.06,1,1
16391.968,0.116,0.4,0.909,1.98,-12.51,3.97,1,1
16391.968,0.123,0.402,0.901,3.23,-11.87,3.45,1,1
16391.984,0.126,0.403,0.894,3.66,-10.38,2.75,1,1
16391.984,0.129,0.403,0.889,3.33,-8.18,2.26,1,1
16392.0,0.128,0.4,0.885,2.78,-5.65,1.86,1,1
16392.015,0.134,0.4,0.888,1.71,-3.72,1.5,1,1
16392.015,0.137,0.404,0.89,1.19,-2.08,0.61,1,1
16392.031,0.137,0.403,0.887,0.82,-0.64,-0.46,1,1
16392.046,0.136,0.402,0.887,0.49,0.43,-0.95,1,1
16392.046,0.134,0.407,0.891,0.52,1.19,-1.19,1,1
16392.062,0.131,0.405,0.892,0.61,1.62,-1.25,1,1
16392.078,0.129,0.403,0.894,0.46,2.14,-1.16,1,1
16392.078,0.13,0.405,0.896,0.55,2.66,-1.28,1,1
16392.093,0.126,0.403,0.898,0.98,3.17,-1.34,1,1
16392.109,0.125,0.401,0.898,1.62,3.33,-1.56,1,1
16392.109,0.121,0.407,0.898,2.08,3.05,-1.86,1,1
16392.125,0.119,0.407,0.896,2.11,2.2,-1.83,1,1
16392.125,0.115,0.414,0.895,1.74,1.74,-1.92,1,1
16392.14,0.111,0.421,0.892,0.92,1.59,-2.08,1,1
16392.156,0.107,0.428,0.897,-0.79,1.31,-1.98,1,1
16392.156,0.104,0.432,0.904,-2.5,1.01,-1.5,1,1
16392.171,0.103,0.43,0.906,-3.14,0.31,-0.79,1,1
16392.187,0.103,0.423,0.902,-2.96,-0.58,0.03,1,1
16392.203,0.112,0.417,0.898,-2.04,-1.22,0.64,1,1
16392.203,0.122,0.407,0.89,-1.01,-1.28,0.98,1,1
16392.203,0.128,0.402,0.883,-0.21,-0.61,1.01,1,1
16392.218,0.129,0.4,0.884,0.55,0.58,0.7,1,1
16392.234,0.126,0.4,0.886,1.07,1.25,0.27,1,1
16392.234,0.125,0.402,0.887,0.85,1.56,-0.09,1,1
16392.25,0.122,0.402,0.891,0.37,1.68,-0.61,1,1
16392.265,0.122,0.401,0.891,-0.79,1.43,-1.5,1,1
16392.281,0.12,0.401,0.892,-0.92,1.62,-1.92,1,1
16392.296,0.117,0.405,0.893,-0.61,2.14,-1.95,1,1
16392.296,0.113,0.406,0.894,-0.18,2.26,-1.92,1,1
16392.312,0.11,0.41,0.895,-0.34,2.04,-1.86,1,1
16392.328,0.109,0.412,0.893,-0.73,1.83,-1.56,1,1
16392.328,0.111,0.405,0.892,-1.01,1.62,-1.31,1,1
16392.343,0.111,0.4,0.893,-0.85,2.01,-1.31,1,1
16392.359,0.108,0.405,0.898,-0.76,2.78,-1.5,1,1
16392.359,0.105,0.408,0.902,-0.79,3.27,-1.56,1,1
16392.375,0.092,0.414,0.914,-1.01,3.6,-1.62,1,1
16392.375,0.074,0.436,0.936,-2.29,3.66,-1.59,1,1
16392.39,0.053,0.452,0.962,-3.81,2.87,-1.22,1,1
16392.406,0.021,0.471,0.998,-4.97,1.8,0.58,1,1
16392.421,-0.015,0.496,1.047,-3.63,-4.43,7.66,1,1
16392.421,-0.053,0.52,1.095,-1.34,-10.13,11.51,1,1
16392.437,-0.106,0.566,1.216,7.29,-30.24,20.75,1,1
16392.453,-0.094,0.584,1.225,12.45,-42.18,25.79,1,1
16392.468,-0.078,0.573,1.221,17.52,-53.07,29.82,1,1
16392.468,-0.057,0.564,1.211,20.54,-61.62,33.33,1,1
16392.484,-0.044,0.575,1.19,23.22,-66.32,35.86,1,1
16392.5,-0.072,0.558,1.163,25.7,-68.91,38.06,1,1
16392.5,-0.103,0.567,1.184,25.67,-71.26,40.25,1,1
16392.515,-0.134,0.566,1.199,25.7,-76.02,41.11,1,1
16392.515,-0.186,0.557,1.208,27.04,-82.46,42.09,1,1
16392.531,-0.225,0.553,1.216,30.85,-91.31,45.05,1,1
16392.546,-0.256,0.568,1.231,36.93,-102.91,49.38,1,1
16392.546,-0.27,0.567,1.224,45.56,-117.95,54.6,1,1
16392.562,-0.245,0.583,1.2,54.26,-134.98,60.43,1,1
16392.578,-0.216,0.594,1.162,64.58,-154.94,67.51,1,1
16392.578,-0.16,0.585,1.071,74.07,-176.37,76.27,1,1
16392.593,-0.085,0.595,0.95,77.36,-195.38,82.13,1,1
16392.609,-0.008,0.608,0.845,73.43,-208.53,83.19,1,1
16392.609,0.028,0.628,0.789,65.86,-219.0,82.98,1,1
16392.625,0.078,0.619,0.733,60.24,-229.68,86.7,1,1
16392.625,0.104,0.583,0.689,59.02,-240.97,93.66,1,1
16392.64,0.096,0.553,0.678,65.13,-254.8,105.87,1,1
16392.656,0.093,0.479,0.674,79.56,-274.79,123.05,1,1
16392.656,0.118,0.455,0.631,97.02,-298.99,141.45,1,1
16392.671,0.209,0.45,0.507,108.74,-320.63,156.41,1,1
16392.687,0.318,0.472,0.394,106.75,-334.76,162.51,1,1
16392.687,0.397,0.468,0.29,92.17,-343.55,161.99,1,1
16392.703,0.471,0.408,0.161,70.25,-349.25,157.6,1,1
16392.718,0.571,0.328,0.041,46.82,-348.67,153.05,1,1
16392.718,0.658,0.261,-0.065,32.17,-340.77,147.86,1,1
16392.734,0.8,0.196,-0.167,30.15,-323.77,142.06,1,1
16392.75,0.891,0.117,-0.283,35.22,-297.22,133.92,1,1
16392.75,0.972,0.07,-0.378,41.05,-264.72,125.28,1,1
16392.765,1.098,0.014,-0.452,43.24,-191.2,105.35,1,1
16392.781,1.082,-0.02,-0.444,39.03,-154.97,93.23,1,1
16392.796,1.047,-0.064,-0.402,35.04,-124.45,82.28,1,1
16392.796,1.005,-0.122,-0.364,31.95,-99.09,74.95,1,1
16392.812,0.999,-0.151,-0.312,31.07,-78.16,70.62,1,1
16392.828,0.989,-0.176,-0.27,31.98,-61.07,65.74,1,1
16392.828,0.989,-0.19,-0.222,31.56,-47.94,60.27,1,1
16392.843,1.01,-0.197,-0.193,31.37,-37.72,52.83,1,1
16392.859,1.017,-0.207,-0.161,31.19,-28.69,43.34,1,1
16392.859,1.031,-0.209,-0.143,31.77,-21.7,33.14,1,1
16392.875,1.031,-0.188,-0.149,31.98,-16.27,21.64,1,1
16392.875,1.029,-0.185,-0.163,30.79,-10.32,10.22,1,1
16392.89,1.022,-0.146,-0.186,28.53,-2.78,-1.25,1,1
16392.906,1.009,-0.112,-0.169,25.21,5.31,-11.05,1,1
16392.906,0.989,-0.071,-0.105,17.18,12.21,-15.93,1,1
16392.921,0.952,-0.037,-0.031,5.07,14.65,-16.75,1,1
16392.937,0.917,-0.029,0.171,-10.28,2.14,-7.6,1,1
16392.953,0.947,-0.02,0.17,-12.91,-10.41,-0.85,1,1
16392.968,1.016,-0.002,0.116,-18.25,-23.71,0.98,1,1
16392.984,1.089,-0.027,0.054,-23.83,-31.83,-1.43,1,1
16392.984,1.14,-0.008,-0.015,-24.57,-32.99,-6.78,1,1
16392.984,1.129,0.042,-0.072,-22.58,-29.18,-14.98,1,1
16393.0,1.072,0.077,-0.102,-22.28,-24.23,-22.31,1,1
16393.015,1.009,0.129,-0.117,-22.49,-21.3,-27.1,1,1
16393.031,0.958,0.171,-0.127,-23.16,-20.11,-29.05,1,1
16393.031,0.902,0.214,-0.144,-24.11,-19.9,-27.92,1,1
16393.046,0.877,0.264,-0.152,-25.88,-20.84,-23.47,1,1
16393.062,0.885,0.297,-0.177,-29.15,-21.91,-15.81,1,1
16393.062,0.866,0.3,-0.21,-35.65,-22.8,-7.08,1,1
16393.078,0.903,0.311,-0.236,-44.22,-21.85,2.66,1,1
16393.078,0.924,0.31,-0.256,-51.73,-20.69,8.03,1,1
16393.093,0.925,0.27,-0.237,-57.47,-16.54,11.87,1,1
16393.109,0.905,0.241,-0.241,-56.09,-11.51,15.47,1,1
16393.109,0.905,0.239,-0.258,-55.3,-10.44,16.75,1,1
16393.125,0.933,0.216,-0.271,-55.6,-10.1,15.84,1,1
16393.14,0.948,0.2,-0.256,-51.82,-6.47,13.34,1,1
16393.14,0.949,0.21,-0.226,-44.8,-2.14,10.07,1,1
16393.156,0.924,0.211,-0.215,-37.11,1.77,8.09,1,1
16393.156,0.929,0.2,-0.176,-30.61,4.52,8.36,1,1
16393.171,0.93,0.196,-0.145,-21.82,6.93,9.7,1,1
16393.187,0.947,0.194,-0.139,-11.84,9.13,11.6,1,1
16393.203,0.96,0.22,-0.124,-2.2,11.35,12.97,1,1
16393.203,0.962,0.254,-0.115,6.07,12.73,14.59,1,1
16393.218,0.99,0.267,-0.105,11.99,10.93,14.98,1,1
16393.234,0.999,0.264,-0.099,15.9,9.4,15.44,1,1
16393.25,1.008,0.269,-0.088,20.75,7.39,15.66,1,1
16393.25,1.007,0.28,-0.064,23.68,4.03,15.41,1,1
16393.265,0.987,0.281,-0.032,23.35,-1.01,15.32,1,1
16393.265,0.972,0.276,-0.019,20.87,-8.27,15.93,1,1
16393.281,0.973,0.27,-0.037,18.19,-15.75,19.29,1,1
16393.296,0.981,0.245,-0.062,15.53,-21.39,23.5,1,1
16393.296,0.991,0.233,-0.087,11.54,-25.42,26.15,1,1
16393.312,0.995,0.175,-0.096,7.54,-25.94,28.96,1,1
16393.328,0.996,0.165,-0.099,6.87,-25.12,29.97,1,1
16393.328,0.985,0.147,-0.099,9.09,-24.08,27.8,1,1
16393.343,0.967,0.121,-0.092,11.78,-23.32,23.9,1,1
16393.359,0.96,0.136,-0.107,14.59,-23.04,19.78,1,1
16393.359,0.954,0.144,-0.11,17.03,-22.25,16.54,1,1
16393.375,0.947,0.158,-0.111,19.35,-20.57,14.95,1,1
16393.39,0.967,0.168,-0.145,13.28,-11.63,22.25,1,1
16393.406,0.985,0.166,-0.155,8.21,-6.87,24.17,1,1
16393.421,0.979,0.157,-0.166,0.89,-4.21,23.13,1,1
16393.421,0.977,0.15,-0.162,-3.08,-2.87,18.56,1,1
16393.437,0.976,0.125,-0.175,-4.24,-1.77,12.54,1,1
16393.437,0.98,0.12,-0.16,-1.22,-0.09,6.71,1,1
16393.453,0.976,0.122,-0.167,4.06,1.98,2.81,1,1
16393.468,0.975,0.143,-0.141,2.87,1.68,-0.03,1,1
16393.468,0.967,0.119,-0.114,-0.52,-0.92,-1.62,1,1
16393.484,0.987,0.138,-0.071,-10.77,-6.84,-3.57,1,1
16393.5,0.982,0.09,-0.017,-12.7,-12.33,-6.71,1,1
16393.5,0.972,0.04,-0.019,-6.68,-17.82,-10.07,1,1
16393.515,0.996,0.046,-0.027,-5.52,-24.05,-13.86,1,1
16393.531,1.045,0.021,-0.069,-5.58,-28.99,-19.35,1,1
16393.531,1.069,0.009,-0.143,-5.65,-29.15,-23.93,1,1
16393.546,1.097,0.02,-0.207,-9.19,-24.02,-26.7,1,1
16393.562,1.058,0.026,-0.241,-21.12,-4.24,-30.67,1,1
16393.578,1.005,0.033,-0.198,-27.41,5.19,-32.75,1,1
16393.578,0.929,0.025,-0.128,-23.8,13.7,-32.35,1,1
16393.593,0.854,0.04,-0.052,-10.99,18.52,-27.22,1,1
16393.609,0.824,0.109,-0.01,3.11,16.94,-20.14,1,1
16393.609,0.832,0.169,-0.016,9.37,11.02,-13.49,1,1
16393.625,0.871,0.183,-0.043,7.39,4.58,-7.78,1,1
16393.625,0.928,0.209,-0.052,2.99,0.82,-1.37,1,1
16393.64,0.965,0.236,-0.054,2.32,1.4,5.28,1,1
16393.656,0.998,0.237,-0.102,1.59,3.81,12.57,1,1
16393.656,1.049,0.235,-0.133,-4.76,8.3,20.11,1,1
16393.671,1.08,0.229,-0.121,-11.08,15.32,27.99,1,1
16393.687,1.103,0.205,-0.114,-17.82,21.88,35.86,1,1
16393.687,1.097,0.163,-0.089,-24.75,26.58,41.05,1,1
16393.703,1.068,0.121,-0.063,-28.72,28.9,43.09,1,1
16393.718,1.034,0.096,-0.038,-29.97,28.44,41.29,1,1
16393.734,1.012,0.071,-0.006,-22.98,21.42,30.37,1,1
16393.75,1.011,0.076,-0.013,-14.56,19.99,28.63,1,1
16393.75,0.996,0.086,-0.03,-8.21,20.94,31.43,1,1
16393.765,0.983,0.088,-0.041,-5.52,23.44,37.45,1,1
16393.781,0.967,0.073,-0.057,-7.17,26.37,44.68,1,1
16393.781,0.954,0.044,-0.065,-12.6,29.3,50.87,1,1
16393.796,0.954,0.019,-0.067,-19.59,32.01,54.32,1,1
16393.812,0.962,-0.005,-0.048,-26.15,34.76,54.9,1,1
16393.812,0.951,-0.033,-0.031,-29.02,38.06,52.31,1,1
16393.828,0.956,-0.031,-0.011,-31.68,39.22,47.36,1,1
16393.828,0.961,-0.03,0.022,-33.81,38.48,40.35,1,1
16393.843,0.956,-0.026,0.04,-32.75,36.41,31.68,1,1
16393.859,0.947,0.005,0.037,-28.87,34.46,22.1,1,1
16393.859,0.933,0.038,0.019,-24.81,33.23,14.04,1,1
16393.875,0.926,0.066,0.015,-23.65,32.84,9.28,1,1
16393.89,0.925,0.088,0.009,-23.59,33.2,8.33,1,1
16393.89,0.921,0.092,-0.002,-25.18,34.36,11.08,1,1
16393.906,0.922,0.081,0.005,-29.39,35.43,16.21,1,1
16393.906,0.932,0.064,0.03,-36.5,34.88,22.16,1,1
16393.921,0.96,0.04,0.057,-44.5,32.04,26.83,1,1
16393.937,0.978,-0.004,0.088,-50.66,27.38,28.5,1,1
16393.937,0.996,-0.044,0.115,-52.43,21.61,27.1,1,1
16393.953,1.023,-0.062,0.116,-50.45,16.24,21.88,1,1
16393.968,1.046,-0.059,0.108,-49.29,11.2,11.99,1,1
16393.968,1.056,-0.049,0.107,-46.85,7.08,-0.58,1,1
16393.984,1.054,-0.022,0.091,-40.47,5.04,-11.75,1,1
16394.0,1.032,0.023,0.069,-32.84,4.76,-19.78,1,1
16394.0,1.009,0.073,0.056,-27.86,4.82,-24.29,1,1
16394.015,0.985,0.111,0.049,-27.65,3.94,-25.06,1,1
16394.015,0.968,0.134,0.044,-31.8,1.4,-21.45,1,1
16394.031,0.974,0.134,0.04,-36.87,-1.56,-14.22,1,1
16394.046,0.986,0.123,0.031,-40.38,-3.51,-5.37,1,1
16394.046,1.001,0.108,0.029,-42.94,-4.3,1.34,1,1
16394.062,1.017,0.081,0.025,-43.92,-4.76,4.3,1,1
16394.078,1.032,0.056,0.026,-41.32,-4.61,4.85,1,1
16394.078,1.038,0.046,0.023,-34.58,-3.39,4.12,1,1
16394.093,1.027,0.046,0.006,-27.04,-1.56,2.44,1,1
16394.109,1.012,0.045,-0.007,-20.29,0.76,1.1,1,1
16394.109,0.993,0.045,-0.016,-15.93,2.44,1.13,1,1
16394.125,0.975,0.046,-0.027,-15.66,3.17,2.44,1,1
16394.125,0.965,0.031,-0.026,-18.1,3.91,4.3,1,1
16394.14,0.957,0.014,-0.018,-19.81,5.74,5.98,1,1
16394.156,0.947,-0.001,-0.004,-19.87,7.75,6.96,1,1
16394.156,0.943,-0.014,0.008,-18.62,9.83,6.99,1,1
16394.171,0.937,-0.027,0.021,-15.59,12.33,6.84,1,1
16394.187,0.942,-0.031,0.036,-12.27,14.34,6.23,1,1
16394.187,0.944,-0.021,0.046,-9.16,15.9,4.64,1,1
16394.203,0.955,-0.019,0.05,-6.84,16.39,3.2,1,1
16394.218,0.964,-0.01,0.059,-5.34,17.27,2.32,1,1
16394.218,0.963,0.004,0.078,-3.91,17.94,2.5,1,1
16394.234,0.965,0.012,0.092,-2.53,17.06,3.23,1,1
16394.25,0.974,0.016,0.09,-3.88,14.47,4.39,1,1
16394.25,0.991,0.01,0.099,-8.45,11.08,4.97,1,1
16394.265,0.998,-0.008,0.11,-11.26,8.15,4.61,1,1
16394.265,1.004,-0.022,0.111,-11.44,5.46,3.05,1,1
16394.281,1.013,-0.022,0.102,-9.89,2.75,0.46,1,1
16394.296,1.011,-0.019,0.085,-7.78,0.67,-2.44,1,1
16394.312,1.014,-0.014,0.07,-5.86,-0.24,-4.97,1,1
16394.312,1.003,-0.013,0.052,-3.85,-0.21,-6.56,1,1
16394.328,0.999,-0.003,0.04,-2.81,0.55,-6.74,1,1
16394.328,0.975,-0.0,0.036,-2.62,1.77,-5.07,1,1
16394.343,0.968,0.007,0.047,-2.75,2.32,-2.5,1,1
16394.359,0.973,0.013,0.048,-2.84,1.71,-0.64,1,1
16394.359,0.981,0.009,0.05,-3.33,0.76,0.49,1,1
16394.375,0.995,0.007,0.061,-1.37,0.09,0.73,1,1
16394.39,1.011,0.005,0.061,1.95,1.5,0.12,1,1
16394.39,1.017,0.003,0.055,3.88,3.17,-0.76,1,1
16394.406,1.013,0.013,0.06,4.21,4.12,-2.01,1,1
16394.406,1.005,0.002,0.089,4.7,4.67,-2.87,1,1
16394.421,0.993,0.006,0.098,5.8,5.19,-2.81,1,1
16394.437,0.996,0.008,0.103,6.2,4.55,-2.14,1,1
16394.437,1.003,0.001,0.101,5.89,3.72,-1.8,1,1
16394.453,1.002,-0.002,0.099,5.98,3.88,-1.46,1,1
16394.468,0.995,-0.005,0.099,6.04,4.58,-0.61,1,1
16394.468,0.987,-0.01,0.104,5.8,4.67,0.4,1,1
16394.484,1.0,-0.008,0.109,4.36,4.0,0.79,1,1
16394.484,1.009,-0.008,0.121,3.05,3.88,0.37,1,1
16394.5,0.997,-0.015,0.132,3.14,3.66,-0.09,1,1
16394.515,0.995,-0.009,0.141,3.36,2.56,-0.24,1,1
16394.515,0.99,-0.007,0.139,4.03,0.89,-0.37,1,1
16394.531,0.989,-0.004,0.126,4.09,-1.13,-0.46,1,1
16394.546,0.987,0.001,0.117,3.36,-2.69,-0.52,1,1
16394.546,0.988,0.005,0.114,2.08,-3.6,-0.67,1,1
16394.562,0.996,0.009,0.108,1.5,-4.18,-0.67,1,1
16394.578,1.0,0.012,0.099,0.92,-3.81,-0.49,1,1
16394.578,1.002,0.011,0.094,0.49,-2.66,-0.09,1,1
16394.593,1.001,0.017,0.095,-0.09,-1.04,0.18,1,1
16394.609,0.994,0.021,0.096,-0.43,0.64,0.46,1,1
16394.609,0.982,0.017,0.096,-1.01,1.37,0.46,1,1
16394.625,0.979,0.015,0.105,-2.32,1.68,0.37,1,1
16394.625,0.981,0.013,0.112,-2.62,1.56,0.24,1,1
16394.64,0.984,0.013,0.112,-2.29,0.85,0.37,1,1
16394.656,0.986,0.009,0.109,-1.68,0.58,0.64,1,1
16394.656,0.989,0.011,0.113,-1.43,0.37,0.92,1,1
16394.671,0.981,0.015,0.112,-1.46,-0.18,1.07,1,1
16394.687,0.984,0.014,0.112,-2.14,-1.46,1.19,1,1
16394.687,1.003,0.011,0.115,-2.29,-2.26,1.16,1,1
16394.703,1.009,0.016,0.116,-1.25,-1.68,0.89,1,1
16394.718,1.003,0.018,0.116,-0.49,-0.82,0.89,1,1
16394.718,1.001,0.017,0.117,-1.13,-0.89,1.4,1,1
16394.734,1.004,0.014,0.115,-1.83,-1.22,2.04,1,1
16394.75,1.002,0.011,0.115,-2.04,-1.1,2.17,1,1
16394.75,0.99,0.007,0.12,-2.14,-1.53,2.53,1,1
16394.765,0.989,0.008,0.125,-2.59,-2.81,2.78,1,1
16394.765,0.997,0.004,0.122,-2.56,-3.97,2.5,1,1
16394.781,0.993,0.0,0.116,-1.77,-4.39,2.11,1,1
16394.796,0.986,-0.001,0.106,-0.76,-4.06,2.29,1,1
16394.796,0.986,0.002,0.101,-0.55,-3.85,2.93,1,1
16394.812,0.992,0.001,0.096,-0.98,-3.66,3.42,1,1
16394.828,0.986,-0.002,0.095,-1.59,-2.84,3.72,1,1
16394.843,0.971,-0.011,0.1,-2.32,-2.56,4.12,1,1
16394.843,0.978,-0.014,0.106,-2.56,-3.36,4.27,1,1
16394.843,0.992,-0.015,0.103,-1.83,-3.72,3.45,1,1
16394.859,0.996,-0.016,0.092,-0.92,-3.14,1.8,1,1
16394.875,0.994,-0.009,0.086,-0.4,-1.77,-0.37,1,1
16394.875,0.996,-0.005,0.085,-0.64,-0.82,-2.23,1,1
16394.89,0.997,-0.0,0.086,-0.89,0.49,-3.23,1,1
16394.906,0.983,0.005,0.096,-0.61,1.86,-3.39,1,1
16394.906,0.973,0.003,0.105,-0.09,2.2,-2.56,1,1
16394.921,0.972,0.014,0.107,1.04,1.71,-1.1,1,1
16394.937,0.972,0.031,0.105,1.25,1.22,0.55,1,1
16394.937,0.974,0.033,0.102,-1.1,-0.58,1.98,1,1
16394.953,0.989,0.028,0.095,-4.27,-2.66,3.33,1,1
16394.968,1.001,0.02,0.094,-5.25,-3.11,4.39,1,1
16394.968,1.006,0.012,0.096,-3.88,-2.66,4.82,1,1
16394.984,1.008,0.013,0.098,-1.83,-1.8,4.73,1,1
16394.984,1.008,0.018,0.101,-1.28,-1.34,3.75,1,1
16395.0,1.006,0.011,0.109,-1.53,-1.86,2.14,1,1
16395.015,1.003,0.004,0.119,-0.82,-2.75,1.16,1,1
16395.015,1.0,0.002,0.116,0.58,-3.75,0.85,1,1
16395.031,0.997,-0.001,0.113,1.56,-4.3,1.1,1,1
16395.046,0.997,-0.0,0.106,1.5,-4.73,1.95,1,1
16395.062,0.999,-0.005,0.105,0.7,-5.22,2.62,1,1
16395.062,0.998,-0.011,0.099,0.09,-5.22,3.05,1,1
16395.078,0.996,-0.017,0.095,-0.09,-5.13,3.57,1,1
16395.078,0.995,-0.016,0.097,0.43,-4.3,3.81,1,1
16395.093,0.982,-0.016,0.097,2.11,-3.17,4.03,1,1
16395.109,0.98,-0.01,0.097,2.08,-3.02,4.15,1,1
16395.109,0.985,-0.01,0.097,0.46,-3.54,4.03,1,1
16395.125,0.993,-0.012,0.097,-0.21,-3.66,3.48,1,1
16395.14,0.988,-0.016,0.093,0.82,-2.66,3.11,1,1
16395.14,0.985,-0.014,0.096,2.08,-1.53,2.72,1,1
16395.156,0.982,-0.003,0.096,2.69,-1.04,2.38,1,1
16395.156,0.974,-0.001,0.096,2.04,-1.16,1.92,1,1
16395.171,0.972,-0.006,0.099,1.04,-1.95,1.77,1,1
16395.187,0.981,-0.009,0.091,0.89,-2.47,1.89,1,1
16395.187,0.988,-0.01,0.077,0.95,-1.92,1.8,1,1
16395.203,0.993,-0.016,0.077,0.58,-0.64,1.16,1,1
16395.218,0.992,-0.02,0.083,0.06,0.37,0.06,1,1
16395.218,1.0,-0.025,0.092,0.43,1.07,-1.01,1,1
16395.234,1.003,-0.02,0.102,2.26,2.14,-2.08,1,1
16395.234,0.999,-0.011,0.107,4.12,2.62,-3.3,1,1
16395.25,0.99,-0.007,0.108,4.67,2.38,-3.94,1,1
16395.265,0.986,-0.001,0.109,4.27,1.31,-3.97,1,1
16395.265,0.989,0.002,0.105,3.57,0.12,-3.51,1,1
16395.281,0.993,0.003,0.095,3.17,-0.37,-2.84,1,1
16395.296,0.994,0.003,0.087,2.04,-0.37,-2.04,1,1
16395.296,1.002,0.003,0.083,0.49,-0.15,-1.19,1,1
16395.312,1.004,0.001,0.083,-0.49,0.82,-0.58,1,1
16395.328,1.005,-0.006,0.092,-1.13,2.38,-0.21,1,1
16395.328,0.997,0.0,0.098,-0.95,3.08,-0.18,1,1
16395.343,0.993,-0.012,0.105,-0.58,2.9,-0.55,1,1
16395.359,0.986,-0.01,0.112,-0.21,2.08,-0.95,1,1
16395.359,0.984,-0.011,0.111,1.43,-0.06,0.52,1,1
16395.375,0.992,-0.013,0.105,1.46,-0.49,0.82,1,1
16395.39,0.997,-0.01,0.097,1.53,-0.03,0.64,1,1
16395.406,0.997,-0.018,0.086,1.53,0.98,-0.03,1,1
16395.406,0.992,-0.008,0.095,0.52,1.56,-1.19,1,1
16395.421,0.986,-0.016,0.104,-0.67,1.34,-1.83,1,1
16395.437,0.986,-0.018,0.112,-0.82,0.67,-1.86,1,1
16395.437,0.993,-0.006,0.11,0.55,0.09,-1.59,1,1
16395.437,0.993,0.004,0.101,1.62,0.24,-1.25,1,1
16395.453,0.984,0.004,0.097,0.79,0.15,-0.89,1,1
16395.468,0.989,0.002,0.099,-0.67,-0.15,-0.18,1,1
16395.468,1.001,0.003,0.098,-1.07,0.52,0.27,1,1
16395.484,1.0,0.002,0.1,-0.76,2.29,0.34,1,1
16395.5,0.985,0.005,0.11,-0.24,3.48,0.12,1,1
16395.5,0.977,0.009,0.124,-0.31,2.96,-0.03,1,1
16395.515,0.981,0.01,0.134,-0.49,1.43,0.15,1,1
16395.515,0.98,0.009,0.134,-0.37,-0.15,0.64,1,1
16395.531,0.977,0.003,0.131,-0.09,-1.8,1.68,1,1
16395.546,0.978,0.002,0.121,-0.43,-3.2,2.84,1,1
16395.546,0.983,-0.0,0.116,-1.65,-4.58,3.75,1,1
16395.562,0.983,-0.011,0.111,-2.56,-5.55,4.21,1,1
16395.578,0.979,-0.015,0.109,-2.23,-5.83,5.13,1,1
16395.578,0.991,-0.012,0.104,-1.25,-5.95,6.23,1,1
16395.593,0.996,-0.011,0.096,-0.76,-5.49,5.98,1,1
16395.609,0.996,-0.019,0.091,-1.31,-5.04,4.94,1,1
16395.609,0.998,-0.017,0.095,-1.62,-4.67,4.06,1,1
16395.625,0.99,-0.018,0.092,-0.92,-4.3,3.63,1,1
16395.625,0.985,-0.009,0.091,-0.73,-4.46,4.09,1,1
16395.64,0.982,-0.005,0.084,-1.62,-5.01,4.64,1,1
16395.656,0.994,-0.009,0.076,-3.81,-5.77,5.1,1,1
16395.671,0.993,-0.015,0.079,-5.22,-5.62,5.31,1,1
16395.671,0.997,-0.02,0.082,-4.52,-4.97,5.65,1,1
16395.687,1.001,-0.017,0.075,-3.17,-3.69,5.77,1,1
16395.687,0.99,-0.017,0.069,-3.27,-2.59,5.77,1,1
16395.703,0.996,-0.01,0.07,-4.55,-1.8,5.83,1,1
16395.718,0.994,-0.006,0.064,-5.68,-0.49,6.71,1,1
16395.718,0.998,-0.003,0.06,-7.54,1.31,8.3,1,1
16395.734,0.997,0.003,0.065,-9.86,3.54,10.16,1,1
16395.734,0.986,0.0,0.074,-12.27,5.65,12.15,1,1
16395.75,0.985,-0.007,0.087,-14.83,6.5,13.52,1,1
16395.765,0.978,-0.025,0.111,-14.89,6.96,13.92,1,1
16395.765,0.976,-0.036,0.133,-13.58,6.1,14.16,1,1
16395.781,0.986,-0.041,0.131,-10.96,4.64,14.5,1,1
16395.796,0.998,-0.043,0.124,-8.91,3.63,13.95,1,1
16395.796,1.005,-0.048,0.121,-8.88,2.5,12.05,1,1
16395.812,0.999,-0.062,0.123,-9.22,1.62,9.89,1,1
16395.828,0.999,-0.071,0.132,-7.9,0.82,7.87,1,1
16395.828,1.002,-0.073,0.127,-5.07,0.31,5.46,1,1
16395.843,1.0,-0.075,0.118,-2.72,-0.18,2.5,1,1
16395.859,1.0,-0.073,0.104,-1.74,-0.82,-0.4,1,1
16395.859,0.995,-0.069,0.088,-1.22,-0.52,-2.75,1,1
16395.875,0.988,-0.069,0.08,-0.89,0.18,-4.39,1,1
16395.875,0.98,-0.061,0.07,-1.46,1.28,-5.31,1,1
16395.89,0.971,-0.055,0.065,-3.11,2.26,-5.46,1,1
16395.906,0.966,-0.055,0.071,-5.34,2.72,-4.82,1,1
16395.906,0.969,-0.056,0.078,-5.83,3.27,-3.51,1,1
16395.921,0.973,-0.056,0.083,-4.79,3.66,-2.04,1,1
16395.937,0.976,-0.051,0.087,-4.18,3.75,-1.25,1,1
16395.937,0.981,-0.048,0.092,-3.57,3.39,-1.19,1,1
16395.953,0.982,-0.041,0.09,-2.84,2.87,-0.89,1,1
16395.968,0.988,-0.037,0.087,-1.92,1.8,-0.4,1,1
16395.968,1.0,-0.034,0.082,-1.34,1.31,0.21,1,1
16395.984,1.001,-0.033,0.075,-1.07,1.43,0.95,1,1
16396.0,1.001,-0.036,0.073,-1.19,1.71,2.01,1,1
16396.0,1.006,-0.04,0.067,-1.04,1.92,3.45,1,1
16396.015,1.014,-0.043,0.061,-0.61,2.56,4.64,1,1
16396.015,1.014,-0.051,0.059,0.0,3.69,5.37,1,1
16396.031,1.009,-0.062,0.057,1.1,4.91,5.62,1,1
16396.046,0.994,-0.07,0.056,2.75,5.62,6.1,1,1
16396.046,0.98,-0.068,0.05,4.43,5.77,6.9,1,1
16396.062,0.964,-0.065,0.038,5.52,5.4,8.21,1,1
16396.078,0.959,-0.071,0.022,4.73,4.91,10.74,1,1
16396.078,0.962,-0.07,0.01,1.89,5.19,14.31,1,1
16396.093,0.991,-0.074,0.012,-2.04,6.35,17.85,1,1
16396.109,1.008,-0.092,0.026,-5.68,9.06,19.93,1,1
16396.109,1.006,-0.11,0.048,-9.0,11.41,20.39,1,1
16396.125,1.008,-0.137,0.077,-10.32,12.02,19.17,1,1
16396.125,1.001,-0.163,0.091,-8.76,11.51,16.21,1,1
16396.14,1.014,-0.17,0.098,-5.16,10.13,12.36,1,1
16396.156,1.014,-0.161,0.09,-0.64,9.28,7.48,1,1
16396.156,1.008,-0.147,0.069,1.89,8.7,3.27,1,1
16396.171,1.019,-0.125,0.058,1.01,8.61,0.79,1,1
16396.187,1.02,-0.106,0.053,-0.79,10.22,-0.73,1,1
16396.187,1.013,-0.085,0.062,-2.26,12.51,-1.31,1,1
16396.203,1.001,-0.068,0.085,-2.08,14.37,-1.16,1,1
16396.218,0.98,-0.055,0.095,-1.31,14.62,-0.31,1,1
16396.218,0.965,-0.046,0.102,-0.12,12.85,1.74,1,1
16396.234,0.972,-0.039,0.1,2.26,10.5,4.61,1,1
16396.25,0.979,-0.028,0.096,3.45,8.64,6.81,1,1
16396.25,0.98,-0.032,0.089,3.45,6.74,8.58,1,1
16396.265,0.999,-0.032,0.089,3.3,5.22,10.1,1,1
16396.265,1.003,-0.037,0.09,4.3,4.82,10.83,1,1
16396.281,0.995,-0.054,0.085,6.68,4.33,10.9,1,1
16396.296,0.986,-0.07,0.075,10.01,3.05,10.96,1,1
16396.312,0.979,-0.079,0.056,12.94,1.25,11.26,1,1
16396.312,0.968,-0.093,0.031,14.19,-0.37,11.87,1,1
16396.328,0.968,-0.108,0.001,14.16,-1.71,13.43,1,1
16396.328,1.007,-0.101,-0.004,12.82,-1.16,14.77,1,1
16396.343,1.025,-0.087,0.016,9.31,5.13,11.02,1,1
16396.359,1.009,-0.093,0.037,10.8,5.77,9.03,1,1
16396.359,0.998,-0.092,0.065,14.53,4.55,6.78,1,1
16396.375,0.979,-0.082,0.067,17.76,1.37,4.64,1,1
16396.375,0.94,-0.098,0.019,21.0,-2.41,3.14,1,1
16396.39,0.934,-0.104,-0.026,23.8,-4.61,2.47,1,1
16396.406,0.927,-0.099,-0.066,24.84,-4.36,1.98,1,1
16396.421,0.945,-0.091,-0.083,23.77,-1.16,1.25,1,1
16396.421,0.961,-0.081,-0.077,21.52,5.01,0.27,1,1
16396.437,0.997,-0.059,-0.039,18.8,12.33,-1.31,1,1
16396.437,1.005,-0.036,0.024,17.06,19.96,-4.79,1,1
16396.453,0.98,-0.04,0.085,17.21,24.23,-8.03,1,1
16396.468,0.988,-0.036,0.133,18.98,24.72,-9.03,1,1
16396.468,1.0,-0.008,0.163,21.88,24.57,-9.0,1,1
16396.484,0.98,-0.009,0.189,24.32,23.1,-8.24,1,1
16396.5,0.956,-0.029,0.189,26.28,18.74,-4.85,1,1
16396.5,0.952,-0.043,0.16,27.16,13.25,1.28,1,1
16396.515,0.971,-0.064,0.106,26.03,9.06,8.67,1,1
16396.515,1.058,-0.057,0.097,20.45,9.19,14.83,1,1
16396.531,1.09,-0.054,0.122,11.96,15.17,15.99,1,1
16396.546,1.054,-0.108,0.152,6.07,21.27,14.8,1,1
16396.562,1.031,-0.14,0.194,4.82,24.05,14.77,1,1
16396.562,1.011,-0.159,0.203,7.42,24.35,14.86,1,1
16396.578,0.999,-0.179,0.192,10.13,23.19,14.92,1,1
16396.578,1.016,-0.178,0.186,10.65,22.71,14.92,1,1
16396.593,1.007,-0.182,0.179,8.7,24.69,13.18,1,1
16396.609,0.979,-0.198,0.162,4.73,26.86,10.5,1,1
16396.609,0.971,-0.204,0.138,0.52,28.99,8.64,1,1
16396.625,0.984,-0.202,0.125,-2.59,33.66,7.69,1,1
16396.625,0.989,-0.204,0.125,-5.16,40.96,6.96,1,1
16396.64,1.013,-0.181,0.144,-9.55,49.81,5.86,1,1
16396.656,0.996,-0.167,0.191,-14.77,59.76,2.99,1,1
16396.656,0.941,-0.172,0.256,-18.49,66.1,-0.64,1,1
16396.671,0.883,-0.173,0.325,-19.62,65.58,-3.17,1,1
16396.687,0.858,-0.172,0.376,-18.34,58.08,-4.09,1,1
16396.687,0.882,-0.156,0.386,-16.27,47.67,-3.78,1,1
16396.703,0.946,-0.119,0.369,-14.22,41.38,-3.17,1,1
16396.718,0.974,-0.076,0.384,-14.13,41.11,-3.6,1,1
16396.718,0.947,-0.058,0.406,-14.77,41.63,-4.55,1,1
16396.734,0.911,-0.044,0.428,-14.95,39.12,-2.99,1,1
16396.75,0.879,-0.049,0.441,-14.59,33.14,1.04,1,1
16396.75,0.865,-0.075,0.412,-13.98,24.75,6.68,1,1
16396.765,0.874,-0.105,0.376,-13.12,17.0,12.63,1,1
16396.765,0.892,-0.123,0.334,-12.76,11.81,17.0,1,1
16396.781,0.908,-0.146,0.28,-14.68,10.13,18.89,1,1
16396.796,0.942,-0.168,0.254,-18.86,12.48,17.94,1,1
16396.796,0.986,-0.174,0.29,-23.35,20.36,13.86,1,1
16396.812,0.968,-0.185,0.348,-24.87,30.55,5.95,1,1
16396.828,0.924,-0.197,0.412,-22.03,36.38,-2.81,1,1
16396.843,0.881,-0.178,0.457,-16.05,36.19,-9.31,1,1
16396.843,0.865,-0.15,0.461,-9.25,31.43,-12.39,1,1
16396.859,0.856,-0.122,0.431,-6.07,26.09,-12.27,1,1
16396.859,0.86,-0.11,0.408,-8.79,22.19,-8.82,1,1
16396.875,0.875,-0.099,0.41,-15.47,20.69,-3.17,1,1
16396.89,0.874,-0.118,0.419,-21.88,20.11,1.59,1,1
16396.89,0.895,-0.125,0.455,-26.37,20.54,3.85,1,1
16396.906,0.897,-0.133,0.486,-27.07,21.55,2.32,1,1
16396.906,0.891,-0.148,0.509,-23.38,21.21,-1.31,1,1
16396.921,0.894,-0.144,0.518,-17.24,20.14,-5.52,1,1
16396.937,0.887,-0.136,0.512,-11.63,18.71,-9.22,1,1
16396.937,0.872,-0.126,0.505,-8.73,16.54,-11.41,1,1
16396.953,0.867,-0.107,0.493,-7.69,14.31,-11.93,1,1
16396.968,0.856,-0.099,0.471,-9.22,11.99,-10.83,1,1
16396.968,0.849,-0.102,0.452,-11.32,9.74,-8.27,1,1
16396.984,0.859,-0.115,0.432,-12.85,8.58,-5.01,1,1
16396.984,0.87,-0.134,0.411,-14.28,9.0,-1.65,1,1
16397.0,0.898,-0.144,0.408,-17.33,11.11,0.61,1,1
16397.015,0.931,-0.155,0.418,-20.63,14.56,0.82,1,1
16397.015,0.946,-0.164,0.443,-22.68,19.17,-0.79,1,1
16397.031,0.941,-0.171,0.477,-23.41,23.59,-3.94,1,1
16397.046,0.935,-0.183,0.514,-22.13,25.82,-7.14,1,1
16397.046,0.915,-0.193,0.534,-19.56,25.39,-9.86,1,1
16397.062,0.912,-0.193,0.541,-17.18,22.68,-11.54,1,1
16397.078,0.907,-0.187,0.514,-15.66,18.86,-12.94,1,1
16397.078,0.906,-0.183,0.462,-14.71,15.59,-14.37,1,1
16397.093,0.925,-0.162,0.424,-14.77,15.23,-14.71,1,1
16397.109,0.925,-0.141,0.399,-16.14,18.28,-13.76,1,1
16397.109,0.898,-0.137,0.402,-19.81,22.68,-11.84,1,1
16397.125,0.861,-0.146,0.425,-24.14,25.97,-10.01,1,1
16397.125,0.831,-0.148,0.459,-28.14,27.22,-9.58,1,1
16397.14,0.816,-0.16,0.491,-30.49,26.22,-11.38,1,1
16397.156,0.82,-0.167,0.502,-27.44,24.41,-14.44,1,1
16397.156,0.832,-0.153,0.504,-19.56,24.14,-17.85,1,1
16397.171,0.835,-0.129,0.502,-11.99,24.75,-21.03,1,1
16397.187,0.835,-0.106,0.492,-6.81,25.06,-22.71,1,1
16397.187,0.824,-0.09,0.483,-4.21,25.54,-21.33,1,1
16397.203,0.807,-0.075,0.481,-5.31,25.7,-18.25,1,1
16397.218,0.793,-0.07,0.495,-9.58,25.33,-14.47,1,1
16397.218,0.771,-0.075,0.515,-13.31,23.8,-11.11,1,1
16397.234,0.775,-0.102,0.52,-13.03,21.7,-8.03,1,1
16397.25,0.799,-0.093,0.49,-8.42,18.89,-6.26,1,1
16397.25,0.847,-0.065,0.465,-7.48,17.64,-8.64,1,1
16397.265,0.824,-0.126,0.473,-9.83,23.19,-6.56,1,1
16397.265,0.848,-0.092,0.479,-10.25,25.97,-2.87,1,1
16397.281,0.839,-0.12,0.481,-12.85,26.46,-1.16,1,1
16397.296,0.841,-0.164,0.51,-18.34,26.49,0.43,1,1
16397.312,0.853,-0.171,0.523,-18.98,26.4,2.29,1,1
16397.312,0.872,-0.174,0.542,-17.82,26.89,2.2,1,1
16397.328,0.867,-0.184,0.588,-13.4,28.93,-4.46,1,1
16397.328,0.844,-0.196,0.62,-11.66,26.73,-8.64,1,1
16397.343,0.827,-0.203,0.628,-10.62,23.35,-11.93,1,1
16397.359,0.833,-0.192,0.614,-8.24,20.6,-14.89,1,1
16397.359,0.864,-0.173,0.562,-6.01,20.11,-16.3,1,1
16397.375,0.867,-0.14,0.554,-7.05,21.42,-16.72,1,1
16397.39,0.865,-0.133,0.576,-11.81,23.59,-15.99,1,1
16397.39,0.851,-0.114,0.614,-17.12,24.6,-14.25,1,1
16397.406,0.837,-0.115,0.646,-20.91,23.93,-11.41,1,1
16397.406,0.831,-0.114,0.669,-20.81,21.42,-8.67,1,1
16397.421,0.836,-0.124,0.68,-17.88,18.74,-6.16,1,1
16397.437,0.837,-0.123,0.687,-15.26,16.27,-4.82,1,1
16397.437,0.843,-0.148,0.693,-13.31,13.67,-4.27,1,1
16397.453,0.841,-0.164,0.688,-10.96,11.14,-4.24,1,1
16397.468,0.847,-0.176,0.665,-9.46,8.36,-4.82,1,1
16397.468,0.847,-0.181,0.63,-9.7,5.4,-6.59,1,1
16397.484,0.849,-0.182,0.596,-10.96,4.36,-8.15,1,1
16397.5,0.851,-0.168,0.569,-12.42,5.07,-10.07,1,1
16397.5,0.842,-0.17,0.556,-14.16,7.9,-12.63,1,1
16397.515,0.826,-0.178,0.569,-15.69,11.6,-14.31,1,1
16397.515,0.813,-0.176,0.588,-16.36,13.73,-16.05,1,1
16397.531,0.801,-0.179,0.602,-15.72,14.37,-18.52,1,1
16397.546,0.809,-0.17,0.617,-13.82,14.25,-21.88,1,1
16397.546,0.804,-0.147,0.623,-10.86,13.89,-26.34,1,1
16397.562,0.798,-0.127,0.623,-7.93,12.79,-30.4,1,1
16397.578,0.79,-0.093,0.621,-6.38,11.23,-32.87,1,1
16397.578,0.787,-0.061,0.612,-6.62,9.4,-32.9,1,1
16397.593,0.792,-0.047,0.596,-7.75,8.09,-30.61,1,1
16397.609,0.799,-0.031,0.596,-9.22,8.61,-26.31,1,1
16397.609,0.795,-0.031,0.596,-10.25,9.77,-21.64,1,1
16397.625,0.795,-0.025,0.603,-12.3,10.32,-18.43,1,1
16397.625,0.799,-0.033,0.617,-12.15,9.95,-17.21,1,1
16397.64,0.797,-0.033,0.616,-8.24,9.4,-16.51,1,1
16397.656,0.786,-0.028,0.609,-5.16,9.13,-14.83,1,1
16397.656,0.781,-0.022,0.604,-4.64,7.78,-12.88,1,1
16397.671,0.779,-0.014,0.582,-4.46,5.74,-10.8,1,1
16397.687,0.777,-0.016,0.555,-3.6,4.58,-8.48,1,1
16397.687,0.783,-0.019,0.534,-4.21,4.33,-5.19,1,1
16397.703,0.797,-0.023,0.512,-5.8,4.7,-1.74,1,1
16397.718,0.796,-0.038,0.509,-8.76,5.37,1.46,1,1
16397.718,0.811,-0.057,0.52,-12.42,5.74,4.33,1,1
16397.734,0.825,-0.083,0.539,-14.16,6.78,6.9,1,1
16397.75,0.831,-0.106,0.561,-14.13,8.82,8.73,1,1
16397.75,0.836,-0.111,0.579,-15.59,9.92,8.64,1,1
16397.765,0.827,-0.131,0.617,-16.88,10.25,5.62,1,1
16397.765,0.818,-0.135,0.645,-14.53,9.46,0.89,1,1
16397.781,0.824,-0.143,0.647,-9.52,7.48,-4.06,1,1
16397.796,0.838,-0.12,0.64,-3.54,5.71,-7.81,1,1
16397.796,0.838,-0.105,0.626,0.76,5.07,-10.38,1,1
16397.812,0.826,-0.101,0.62,1.1,5.07,-11.54,1,1
16397.828,0.817,-0.102,0.624,0.46,5.19,-11.44,1,1
16397.828,0.798,-0.109,0.618,0.79,4.97,-11.38,1,1
16397.843,0.793,-0.11,0.62,1.53,4.39,-11.57,1,1
16397.859,0.795,-0.122,0.629,3.91,4.67,-11.26,1,1
16397.859,0.771,-0.123,0.629,9.43,5.8,-10.38,1,1
16397.875,0.751,-0.112,0.618,14.86,7.17,-9.0,1,1
16397.89,0.726,-0.091,0.604,17.64,8.18,-7.93,1,1
16397.89,0.721,-0.073,0.588,18.89,8.42,-7.39,1,1
16397.906,0.721,-0.049,0.559,18.19,9.16,-6.53,1,1
16397.906,0.722,-0.043,0.551,14.01,11.75,-4.27,1,1
16397.921,0.74,-0.013,0.558,9.19,15.02,-1.68,1,1
16397.937,0.712,-0.04,0.567,4.82,17.21,0.79,1,1
16397.937,0.714,-0.043,0.582,0.89,19.5,5.98,1,1
16397.953,0.726,-0.035,0.607,-2.66,21.55,10.74,1,1
16397.968,0.725,-0.069,0.644,-5.19,23.38,14.01,1,1
16397.968,0.713,-0.077,0.676,-3.88,24.23,16.14,1,1
16397.984,0.709,-0.087,0.69,-2.04,22.46,15.63,1,1
16397.984,0.729,-0.096,0.696,-1.34,18.07,12.42,1,1
16398.0,0.744,-0.111,0.684,0.18,14.34,8.21,1,1
16398.015,0.752,-0.096,0.675,2.17,11.51,2.69,1,1
16398.015,0.756,-0.108,0.664,3.33,9.61,-1.98,1,1
16398.031,0.772,-0.081,0.661,2.99,8.58,-5.46,1,1
16398.046,0.76,-0.07,0.65,3.78,7.9,-9.7,1,1
16398.046,0.759,-0.083,0.659,4.49,7.54,-10.9,1,1
16398.062,0.766,-0.062,0.654,7.93,7.29,-11.51,1,1
16398.078,0.761,-0.062,0.627,11.84,8.18,-11.84,1,1
16398.078,0.757,-0.05,0.633,10.04,9.98,-10.04,1,1
16398.093,0.749,-0.023,0.648,5.31,10.07,-9.37,1,1
16398.109,0.73,-0.058,0.664,3.05,9.16,-9.4,1,1
16398.109,0.763,-0.041,0.674,2.78,8.18,-6.56,1,1
16398.125,0.766,-0.02,0.667,1.62,7.08,-5.1,1,1
16398.125,0.76,-0.056,0.688,-2.2,4.73,-3.6,1,1
16398.14,0.779,-0.053,0.692,-4.09,2.75,-1.19,1,1
16398.156,0.778,-0.055,0.664,-2.84,1.1,-2.14,1,1
16398.171,0.774,-0.089,0.669,-2.35,0.95,-3.23,1,1
16398.171,0.787,-0.054,0.69,-0.61,1.13,-3.75,1,1
16398.187,0.766,-0.066,0.69,3.17,-0.43,-5.55,1,1
16398.187,0.762,-0.077,0.689,6.78,-1.5,-4.49,1,1
16398.203,0.757,-0.032,0.65,10.04,-2.26,-2.99,1,1
16398.218,0.735,-0.039,0.63,8.15,-2.08,-1.98,1,1
16398.218,0.737,-0.059,0.641,6.93,-0.89,0.0,1,1
16398.234,0.733,-0.04,0.614,10.04,1.53,2.9,1,1
16398.25,0.74,-0.028,0.61,7.78,3.11,5.77,1,1
16398.25,0.754,-0.037,0.627,3.75,4.06,9.37,1,1
16398.265,0.78,-0.047,0.634,1.98,4.67,12.85,1,1
16398.265,0.795,-0.058,0.66,-1.19,5.65,16.27,1,1
16398.281,0.813,-0.069,0.707,-5.83,4.91,17.7,1,1
16398.296,0.799,-0.106,0.739,-7.14,3.11,15.9,1,1
16398.296,0.784,-0.134,0.752,-3.23,-0.43,12.18,1,1
16398.312,0.796,-0.126,0.728,1.77,-11.17,0.15,1,1
16398.328,0.806,-0.136,0.69,1.77,-12.82,-4.88,1,1
16398.328,0.849,-0.125,0.666,2.41,-11.29,-9.64,1,1
16398.343,0.813,-0.103,0.684,2.53,-9.46,-12.73,1,1
16398.359,0.772,-0.081,0.686,6.47,-9.0,-14.5,1,1
16398.359,0.749,-0.072,0.661,11.63,-9.92,-15.5,1,1
16398.375,0.717,-0.078,0.632,12.51,-10.16,-14.83,1,1
16398.375,0.727,-0.066,0.608,10.04,-9.92,-12.39,1,1
16398.39,0.725,-0.067,0.598,6.53,-7.97,-9.61,1,1
16398.406,0.733,-0.062,0.595,1.8,-5.98,-6.71,1,1
16398.421,0.736,-0.08,0.612,-0.95,-3.39,-4.97,1,1
16398.421,0.728,-0.09,0.631,-0.34,-1.16,-3.17,1,1
16398.437,0.718,-0.089,0.631,1.34,-0.55,-2.93,1,1
16398.437,0.714,-0.112,0.62,2.32,-0.98,-3.81,1,1
16398.453,0.711,-0.107,0.592,3.45,-0.24,-4.39,1,1
16398.468,0.729,-0.106,0.576,3.3,1.56,-4.39,1,1
16398.468,0.741,-0.097,0.573,2.81,5.58,-3.72,1,1
16398.484,0.717,-0.092,0.588,1.25,9.98,-3.69,1,1
16398.484,0.692,-0.107,0.624,-2.17,12.6,-2.62,1,1
16398.5,0.701,-0.097,0.652,-4.58,12.73,-1.77,1,1
16398.515,0.711,-0.1,0.657,-5.22,10.71,-2.87,1,1
16398.515,0.744,-0.128,0.667,-4.39,9.43,-3.48,1,1
16398.531,0.772,-0.094,0.667,-0.89,9.46,-3.91,1,1
16398.546,0.76,-0.062,0.672,-0.09,9.25,-5.01,1,1
16398.562,0.751,-0.064,0.707,-2.14,7.84,-5.22,1,1
16398.562,0.747,-0.049,0.707,-2.78,5.31,-4.79,1,1
16398.578,0.744,-0.041,0.694,-2.99,3.14,-4.27,1,1
16398.578,0.753,-0.029,0.691,-3.66,1.56,-2.9,1,1
16398.593,0.771,-0.025,0.682,-5.1,-0.03,-1.53,1,1
16398.609,0.769,-0.036,0.687,-6.26,-0.37,-0.46,1,1
16398.609,0.756,-0.051,0.688,-4.55,-0.27,0.03,1,1
16398.625,0.748,-0.052,0.674,-1.77,-0.55,-0.31,1,1
16398.625,0.738,-0.06,0.661,-1.13,-0.82,-1.16,1,1
16398.64,0.756,-0.068,0.647,-2.26,-0.89,-2.41,1,1
16398.656,0.757,-0.071,0.642,-3.11,0.4,-3.88,1,1
16398.656,0.752,-0.07,0.658,-2.66,2.08,-4.94,1,1
16398.671,0.752,-0.05,0.668,-0.49,2.66,-5.25,1,1
16398.687,0.75,-0.031,0.673,0.52,2.23,-4.58,1,1
16398.687,0.756,-0.026,0.674,-0.92,0.49,-3.42,1,1
16398.703,0.77,-0.025,0.683,-1.83,-1.22,-1.77,1,1
16398.718,0.76,-0.027,0.683,-1.04,-2.14,0.03,1,1
16398.718,0.746,-0.024,0.663,-0.09,-3.02,1.34,1,1
16398.734,0.749,-0.03,0.654,-0.27,-4.09,1.83,1,1
16398.734,0.747,-0.032,0.639,-0.61,-4.52,2.17,1,1
16398.75,0.752,-0.034,0.626,-2.01,-4.21,3.02,1,1
16398.765,0.763,-0.052,0.625,-3.57,-3.02,4.06,1,1
16398.781,0.765,-0.054,0.625,-5.19,-1.71,4.91,1,1
16398.781,0.772,-0.074,0.637,-8.7,-0.85,4.88,1,1
16398.796,0.775,-0.097,0.66,-10.38,-0.31,3.45,1,1
16398.796,0.779,-0.1,0.669,-8.36,-0.06,0.76,1,1
16398.812,0.782,-0.103,0.681,-5.31,-0.4,-2.84,1,1
16398.828,0.778,-0.091,0.695,-1.25,-0.67,-5.68,1,1
16398.828,0.765,-0.062,0.685,3.08,-1.56,-6.56,1,1
16398.843,0.772,-0.041,0.68,3.48,-3.17,-6.04,1,1
16398.859,0.771,-0.035,0.68,2.11,-4.43,-4.46,1,1
16398.859,0.758,-0.035,0.664,1.74,-5.25,-2.53,1,1
16398.875,0.75,-0.028,0.649,1.37,-5.92,-0.64,1,1
16398.875,0.758,-0.033,0.636,-0.06,-6.29,0.79,1,1
16398.89,0.769,-0.043,0.626,-1.56,-5.43,1.92,1,1
16398.906,0.77,-0.052,0.625,-2.75,-3.81,1.95,1,1
16398.906,0.761,-0.073,0.634,-3.27,-2.56,1.34,1,1
16398.921,0.758,-0.078,0.648,-3.78,-2.17,0.24,1,1
16398.937,0.761,-0.094,0.66,-3.66,-2.41,-1.37,1,1
16398.937,0.76,-0.082,0.652,-2.26,-3.05,-3.17,1,1
16398.953,0.758,-0.076,0.635,-1.25,-3.23,-4.61,1,1
16398.968,0.759,-0.066,0.632,-1.31,-2.78,-5.62,1,1
16398.968,0.755,-0.056,0.633,-0.82,-2.17,-5.77,1,1
16398.984,0.744,-0.045,0.638,-0.4,-1.8,-5.19,1,1
16399.0,0.739,-0.045,0.638,0.49,-1.8,-3.85,1,1
16399.0,0.743,-0.033,0.627,1.13,-1.86,-1.71,1,1
16399.015,0.739,-0.043,0.62,-0.15,-1.1,0.43,1,1
16399.015,0.739,-0.052,0.629,-1.5,0.06,2.53,1,1
16399.031,0.731,-0.053,0.636,-2.04,0.73,4.09,1,1
16399.046,0.741,-0.06,0.639,-2.66,0.64,5.1,1,1
16399.046,0.751,-0.065,0.642,-2.87,0.21,5.16,1,1
16399.062,0.761,-0.077,0.641,-2.96,-0.15,4.39,1,1
16399.078,0.769,-0.08,0.64,-2.84,-0.18,3.27,1,1
16399.078,0.764,-0.081,0.642,-2.78,-0.24,1.5,1,1
16399.093,0.761,-0.082,0.649,-3.23,-0.95,-0.46,1,1
16399.093,0.762,-0.081,0.654,-2.96,-1.65,-1.89,1,1
16399.109,0.753,-0.076,0.659,-1.25,-2.14,-2.2,1,1
16399.125,0.749,-0.063,0.651,0.31,-2.66,-1.92,1,1
16399.125,0.754,-0.053,0.632,1.22,-2.72,-1.74,1,1
16399.14,0.762,-0.048,0.622,1.65,-1.53,-1.68,1,1
16399.156,0.759,-0.047,0.623,1.37,0.12,-1.07,1,1
16399.156,0.764,-0.053,0.627,-0.31,1.46,0.12,1,1
16399.171,0.766,-0.058,0.631,-2.32,2.78,1.25,1,1
16399.187,0.765,-0.061,0.648,-4.79,3.27,1.59,1,1
16399.187,0.771,-0.065,0.668,-7.14,2.93,1.34,1,1
16399.203,0.767,-0.071,0.686,-7.08,2.44,0.67,1,1
16399.218,0.767,-0.066,0.692,-4.91,1.5,-0.58,1,1
16399.218,0.77,-0.064,0.685,-2.81,0.43,-1.86,1,1
16399.234,0.773,-0.054,0.677,-2.44,-0.55,-2.75,1,1
16399.234,0.772,-0.056,0.675,-2.5,-1.28,-3.81,1,1
16399.25,0.766,-0.065,0.667,-0.95,-2.11,-4.18,1,1
16399.265,0.766,-0.055,0.654,0.21,-2.14,-3.88,1,1
16399.265,0.756,-0.042,0.64,0.18,-1.43,-2.99,1,1
16399.281,0.75,-0.045,0.634,-0.85,-0.85,-1.22,1,1
16399.296,0.753,-0.051,0.632,-3.54,0.92,2.41,1,1
16399.312,0.76,-0.059,0.636,-3.3,1.53,2.78,1,1
16399.312,0.773,-0.076,0.651,-1.86,1.92,2.78,1,1
16399.328,0.778,-0.083,0.658,0.27,2.32,1.95,1,1
16399.328,0.762,-0.079,0.671,2.56,1.89,0.76,1,1
16399.343,0.749,-0.07,0.675,3.39,0.64,-0.06,1,1
16399.359,0.751,-0.061,0.672,3.08,-0.92,-0.73,1,1
16399.359,0.752,-0.058,0.659,4.06,-2.01,-1.43,1,1
16399.375,0.754,-0.057,0.641,5.4,-1.77,-1.22,1,1
16399.375,0.766,-0.05,0.631,5.86,-0.95,-1.13,1,1
16399.39,0.768,-0.054,0.625,6.1,0.61,-1.28,1,1
16399.406,0.758,-0.055,0.628,5.43,2.41,-0.46,1,1
16399.406,0.747,-0.05,0.64,4.15,3.69,0.37,1,1
16399.421,0.745,-0.061,0.652,3.14,3.57,0.85,1,1
16399.437,0.739,-0.067,0.662,1.74,2.78,1.31,1,1
16399.437,0.741,-0.067,0.662,1.19,1.62,1.19,1,1
16399.453,0.742,-0.071,0.651,1.59,0.64,0.4,1,1
16399.468,0.743,-0.073,0.642,1.98,0.37,-0.37,1,1
16399.468,0.747,-0.067,0.635,2.59,1.19,-0.76,1,1
16399.484,0.745,-0.052,0.637,3.02,2.62,-0.95,1,1
16399.5,0.747,-0.045,0.643,3.08,3.66,-0.85,1,1
16399.5,0.743,-0.037,0.655,2.69,4.3,-0.34,1,1
16399.515,0.75,-0.033,0.668,1.86,4.21,0.95,1,1
16399.531,0.75,-0.031,0.679,0.09,3.72,2.69,1,1
16399.531,0.754,-0.044,0.68,-1.56,2.41,4.79,1,1
16399.546,0.764,-0.057,0.678,-3.05,0.89,6.56,1,1
16399.546,0.768,-0.067,0.677,-3.6,-0.12,7.39,1,1
16399.562,0.781,-0.073,0.673,-4.06,-1.19,7.54,1,1
16399.578,0.783,-0.082,0.681,-4.88,-2.11,6.81,1,1
16399.578,0.779,-0.095,0.674,-4.15,-2.69,5.4,1,1
16399.593,0.774,-0.094,0.657,-2.14,-2.56,3.6,1,1
16399.609,0.763,-0.095,0.652,-0.52,-2.08,1.53,1,1
16399.609,0.749,-0.098,0.656,0.55,-1.59,0.0,1,1
16399.625,0.753,-0.091,0.649,1.1,-1.53,-0.85,1,1
16399.625,0.761,-0.09,0.641,1.28,-1.01,-1.92,1,1
16399.64,0.758,-0.086,0.634,1.53,0.27,-3.45,1,1
16399.656,0.757,-0.077,0.638,2.11,1.83,-4.58,1,1
16399.656,0.763,-0.059,0.647,1.65,3.2,-4.76,1,1
16399.671,0.751,-0.05,0.668,0.37,3.91,-4.52,1,1
16399.687,0.743,-0.049,0.69,-1.07,2.62,-3.88,1,1
16399.687,0.745,-0.05,0.694,-1.4,0.06,-3.14,1,1
16399.703,0.741,-0.053,0.679,-0.98,-2.17,-2.41,1,1
16399.718,0.748,-0.057,0.659,-1.19,-3.48,-1.68,1,1
16399.718,0.754,-0.059,0.641,-2.41,-3.6,-1.71,1,1
16399.734,0.751,-0.066,0.637,-2.9,-2.38,-2.44,1,1
16399.75,0.741,-0.054,0.645,-2.5,-0.98,-3.33,1,1
16399.75,0.746,-0.058,0.65,-2.59,-0.73,-3.72,1,1
16399.765,0.757,-0.061,0.647,-1.92,-0.43,-3.69,1,1
16399.765,0.743,-0.055,0.647,-1.1,0.4,-3.14,1,1
16399.781,0.726,-0.056,0.658,-1.86,0.15,-2.38,1,1
16399.796,0.726,-0.06,0.659,-2.38,-1.13,-1.71,1,1
16399.796,0.734,-0.058,0.645,-1.71,-2.17,-1.62,1,1
16399.812,0.74,-0.056,0.633,-0.52,-2.14,-2.11,1,1
16399.828,0.741,-0.056,0.63,0.46,-1.28,-2.44,1,1
16399.828,0.747,-0.056,0.628,0.7,-0.34,-2.23,1,1
16399.843,0.749,-0.058,0.628,-0.09,0.7,-1.53,1,1
16399.843,0.753,-0.064,0.635,-1.95,1.89,-0.4,1,1
16399.859,0.751,-0.069,0.638,-3.97,2.62,0.43,1,1
16399.875,0.749,-0.075,0.632,-6.01,3.36,0.52,1,1
16399.875,0.747,-0.079,0.636,-7.48,4.43,0.27,1,1
16399.89,0.752,-0.08,0.638,-7.48,5.71,-0.61,1,1
16399.906,0.759,-0.083,0.636,-5.92,7.78,-1.59,1,1
16399.906,0.756,-0.077,0.648,-4.24,10.13,-2.93,1,1
16399.921,0.752,-0.07,0.687,-2.01,11.2,-4.12,1,1
16399.937,0.74,-0.063,0.707,1.56,10.68,-4.49,1,1
16399.937,0.747,-0.042,0.718,3.57,8.15,-4.64,1,1
16399.953,0.753,-0.038,0.716,4.24,5.16,-4.73,1,1
16399.968,0.747,-0.038,0.707,5.04,2.84,-4.64,1,1
16399.968,0.733,-0.031,0.692,6.29,1.34,-3.91,1,1
16399.984,0.735,-0.021,0.673,5.83,0.58,-2.87,1,1
16399.984,0.733,-0.019,0.658,4.09,0.58,-1.5,1,1
16400.0,0.738,-0.019,0.66,1.89,1.04,0.21,1,1
16400.015,0.745,-0.028,0.67,-0.06,1.59,2.26,1,1
16400.015,0.749,-0.041,0.675,-1.13,1.92,4.03,1,1
16400.031,0.754,-0.054,0.681,-2.44,1.89,5.19,1,1
16400.046,0.751,-0.069,0.686,-4.0,1.31,5.28,1,1
16400.046,0.753,-0.078,0.688,-4.61,0.67,4.52,1,1
16400.062,0.749,-0.079,0.697,-3.63,0.27,2.87,1,1
16400.078,0.737,-0.076,0.695,-1.62,-0.31,0.98,1,1
16400.078,0.738,-0.07,0.69,-0.55,-1.37,-0.52,1,1
16400.093,0.742,-0.073,0.685,-0.18,-2.29,-1.37,1,1
16400.109,0.751,-0.075,0.685,0.09,-2.5,-1.43,1,1
16400.109,0.754,-0.069,0.681,0.12,-2.35,-1.07,1,1
16400.125,0.752,-0.071,0.68,-0.67,-2.29,-1.25,1,1
16400.125,0.749,-0.073,0.686,-1.31,-2.01,-1.5,1,1
16400.14,0.734,-0.07,0.697,-0.89,-2.11,-1.62,1,1
16400.156,0.735,-0.067,0.696,-0.34,-3.57,-1.5,1,1
16400.156,0.743,-0.065,0.693,0.98,-4.76,-0.89,1,1
16400.171,0.743,-0.059,0.682,2.2,-5.25,0.21,1,1
16400.187,0.746,-0.054,0.669,1.01,-5.68,1.46,1,1
16400.203,0.751,-0.066,0.664,-0.98,-5.46,2.66,1,1
16400.203,0.755,-0.073,0.662,-1.01,-4.21,4.06,1,1
16400.218,0.75,-0.076,0.655,-0.61,-2.59,4.52,1,1
16400.218,0.749,-0.08,0.657,-1.46,-1.62,4.3,1,1
16400.234,0.752,-0.088,0.671,-2.84,-1.28,3.54,1,1
16400.25,0.747,-0.095,0.681,-3.51,-0.79,2.69,1,1
16400.25,0.743,-0.097,0.682,-2.87,-0.92,1.65,1,1
16400.265,0.748,-0.09,0.687,-1.89,-1.31,0.43,1,1
16400.281,0.75,-0.083,0.684,0.24,-2.59,-2.29,1,1
16400.281,0.747,-0.093,0.674,0.95,-2.41,-2.99,1,1
16400.296,0.749,-0.069,0.668,1.04,-2.56,-4.03,1,1
16400.296,0.733,-0.065,0.663,0.73,-2.35,-4.24,1,1
16400.312,0.746,-0.05,0.642,0.89,-1.65,-3.63,1,1
16400.328,0.743,-0.048,0.638,-0.12,-0.03,-3.05,1,1
16400.328,0.738,-0.047,0.648,-1.65,1.89,-2.01,1,1
16400.343,0.723,-0.042,0.669,-2.01,2.81,-0.46,1,1
16400.359,0.716,-0.038,0.689,-2.17,1.8,1.22,1,1
16400.359,0.73,-0.041,0.69,-3.17,-0.79,2.56,1,1
