timestamp,ax,ay,az,gx,gy,gz,orient_label,motion_label
16415.609,0.753,0.032,0.649,2.78,-4.97,3.72,1,1
16415.609,0.759,0.023,0.645,3.11,-4.7,3.78,1,1
16415.625,0.759,0.027,0.646,3.2,-3.88,3.54,1,1
16415.64,0.749,0.025,0.657,2.41,-3.42,3.6,1,1
16415.64,0.751,0.02,0.665,1.13,-4.18,3.6,1,1
16415.656,0.751,0.018,0.661,1.01,-4.88,3.39,1,1
16415.656,0.751,0.014,0.655,1.89,-5.01,3.27,1,1
16415.671,0.746,0.017,0.653,2.84,-4.79,3.27,1,1
16415.687,0.748,0.018,0.646,2.75,-5.16,3.45,1,1
16415.687,0.752,0.018,0.638,1.86,-5.34,3.33,1,1
16415.703,0.758,0.016,0.634,1.19,-4.94,3.27,1,1
16415.718,0.754,0.018,0.632,0.27,-4.06,3.51,1,1
16415.718,0.761,0.01,0.638,-1.22,-3.33,3.72,1,1
16415.734,0.768,0.006,0.641,-1.46,-2.14,3.66,1,1
16415.75,0.767,0.007,0.643,-1.62,-1.28,3.42,1,1
16415.75,0.761,-0.007,0.652,-2.04,-0.64,2.62,1,1
16415.765,0.755,-0.006,0.663,-1.34,-0.64,1.92,1,1
16415.781,0.759,0.008,0.662,-0.61,-2.72,0.34,1,1
16415.796,0.767,0.007,0.658,0.06,-3.11,-0.27,1,1
16415.812,0.768,0.018,0.646,0.95,-2.99,-0.52,1,1
16415.812,0.767,0.024,0.644,0.55,-2.23,-0.64,1,1
16415.828,0.763,0.029,0.656,0.15,-1.5,-0.46,1,1
16415.828,0.758,0.029,0.658,-0.06,-1.1,0.52,1,1
16415.843,0.756,0.027,0.664,-0.55,-1.16,1.83,1,1
16415.859,0.751,0.022,0.668,-0.76,-1.65,2.47,1,1
16415.859,0.751,0.014,0.662,-0.52,-2.38,2.72,1,1
16415.875,0.758,0.011,0.659,-0.15,-2.99,2.62,1,1
16415.875,0.749,0.006,0.655,0.06,-3.08,2.38,1,1
16415.89,0.747,-0.004,0.663,-0.46,-2.47,2.99,1,1
16415.906,0.759,0.006,0.667,-0.58,-2.08,3.33,1,1
16415.906,0.744,-0.003,0.664,-0.34,-2.14,2.38,1,1
16415.921,0.739,-0.014,0.675,-0.52,-2.35,2.47,1,1
16415.937,0.75,0.004,0.683,0.76,-2.84,2.66,1,1
16415.953,0.742,-0.005,0.692,1.43,-4.97,2.62,1,1
16415.968,0.753,0.001,0.696,2.14,-5.92,3.14,1,1
16415.968,0.744,-0.002,0.7,3.02,-6.78,3.08,1,1
16415.984,0.74,-0.003,0.714,3.33,-8.18,3.17,1,1
16415.984,0.749,0.004,0.726,4.79,-9.86,3.57,1,1
16416.0,0.757,0.01,0.736,6.71,-11.35,3.75,1,1
16416.015,0.756,0.02,0.752,12.12,-14.92,4.09,1,1
16416.031,0.753,0.029,0.769,15.72,-17.88,5.07,1,1
16416.031,0.747,0.035,0.775,18.43,-21.15,6.62,1,1
16416.046,0.747,0.04,0.78,20.87,-24.26,7.72,1,1
16416.046,0.737,0.046,0.799,24.78,-26.89,7.26,1,1
16416.062,0.738,0.046,0.812,32.11,-29.08,5.55,1,1
16416.078,0.713,0.073,0.791,41.72,-29.94,3.45,1,1
16416.078,0.676,0.115,0.788,48.01,-30.55,4.36,1,1
16416.093,0.649,0.127,0.824,47.15,-32.75,8.97,1,1
16416.109,0.624,0.128,0.857,41.6,-36.68,14.56,1,1
16416.125,0.596,0.097,0.89,34.33,-46.72,27.13,1,1
16416.14,0.619,0.071,0.889,36.23,-52.25,29.51,1,1
16416.14,0.657,0.074,0.865,43.76,-53.01,30.15,1,1
16416.156,0.692,0.058,0.84,51.52,-49.53,26.95,1,1
16416.156,0.68,0.033,0.799,63.63,-41.6,20.02,1,1
16416.171,0.681,0.031,0.765,81.42,-26.7,13.06,1,1
16416.187,0.627,0.064,0.758,98.42,-9.0,5.65,1,1
16416.203,0.565,0.086,0.787,113.04,11.2,0.58,1,1
16416.203,0.481,0.131,0.799,126.13,25.54,-3.63,1,1
16416.218,0.386,0.16,0.814,134.16,32.17,-4.76,1,1
16416.218,0.365,0.174,0.834,136.45,30.27,-2.14,1,1
16416.234,0.373,0.189,0.817,132.73,22.98,1.34,1,1
16416.25,0.398,0.165,0.775,123.11,14.28,2.11,1,1
16416.25,0.491,0.125,0.713,112.37,4.52,-0.61,1,1
16416.265,0.566,0.108,0.636,107.76,-2.5,-8.18,1,1
16416.281,0.606,0.059,0.574,109.44,1.16,-16.11,1,1
16416.296,0.669,0.045,0.47,125.06,33.08,-34.3,1,1
16416.296,0.665,0.043,0.434,133.85,51.88,-42.15,1,1
16416.312,0.66,0.031,0.403,141.94,72.39,-46.82,1,1
16416.328,0.661,0.02,0.369,147.53,91.19,-49.9,1,1
16416.328,0.659,0.023,0.332,149.97,103.0,-52.74,1,1
16416.343,0.665,0.048,0.283,149.3,106.97,-55.18,1,1
16416.359,0.671,0.088,0.252,143.04,106.69,-57.62,1,1
16416.359,0.672,0.13,0.258,130.95,107.12,-61.13,1,1
16416.375,0.673,0.161,0.289,115.82,108.52,-63.48,1,1
16416.39,0.692,0.182,0.304,101.35,109.78,-62.47,1,1
16416.39,0.724,0.193,0.302,87.28,112.22,-58.26,1,1
16416.406,0.738,0.207,0.32,71.84,115.33,-54.14,1,1
16416.406,0.758,0.194,0.339,56.52,113.96,-52.46,1,1
16416.421,0.777,0.205,0.347,43.55,107.91,-54.2,1,1
16416.437,0.782,0.228,0.36,32.2,102.57,-58.26,1,1
16416.453,0.8,0.246,0.379,19.53,97.45,-63.45,1,1
16416.453,0.82,0.268,0.415,6.07,93.26,-68.39,1,1
16416.468,0.828,0.292,0.461,-6.78,90.46,-73.06,1,1
16416.468,0.818,0.299,0.509,-18.65,87.01,-76.72,1,1
16416.484,0.821,0.323,0.555,-28.78,80.78,-78.07,1,1
16416.5,0.811,0.341,0.595,-33.08,70.1,-77.49,1,1
16416.5,0.781,0.36,0.658,-30.55,57.25,-74.92,1,1
16416.515,0.742,0.395,0.725,-24.48,41.72,-72.88,1,1
16416.531,0.711,0.429,0.772,-18.46,23.16,-72.33,1,1
16416.531,0.706,0.458,0.811,-12.73,4.18,-71.6,1,1
16416.546,0.742,0.48,0.831,-9.92,-12.57,-71.57,1,1
16416.546,0.771,0.526,0.842,-12.97,-26.12,-73.27,1,1
16416.562,0.779,0.542,0.82,-17.15,-36.53,-74.47,1,1
16416.578,0.774,0.554,0.788,-21.12,-42.24,-72.33,1,1
16416.578,0.773,0.574,0.756,-24.66,-43.49,-67.93,1,1
16416.593,0.74,0.577,0.736,-27.28,-39.86,-64.64,1,1
16416.609,0.694,0.564,0.769,-32.69,-32.72,-59.14,1,1
16416.609,0.703,0.619,0.81,-36.23,-24.32,-55.73,1,1
16416.625,0.674,0.638,0.828,-33.48,-13.4,-57.19,1,1
16416.625,0.614,0.613,0.85,-30.79,-4.24,-56.76,1,1
16416.64,0.596,0.628,0.851,-24.96,0.61,-55.15,1,1
16416.656,0.566,0.628,0.834,-12.7,3.11,-54.45,1,1
16416.656,0.542,0.622,0.814,1.92,3.97,-52.43,1,1
16416.671,0.529,0.639,0.789,16.36,4.52,-49.93,1,1
16416.687,0.521,0.651,0.759,27.56,5.37,-46.78,1,1
16416.687,0.517,0.654,0.731,31.71,6.99,-44.56,1,1
16416.703,0.516,0.651,0.705,28.08,9.31,-43.15,1,1
16416.718,0.513,0.625,0.687,18.31,11.87,-41.38,1,1
16416.718,0.512,0.602,0.674,5.4,14.47,-39.4,1,1
16416.734,0.518,0.58,0.659,-7.57,17.37,-38.48,1,1
16416.75,0.52,0.553,0.637,-18.83,20.91,-40.25,1,1
16416.75,0.514,0.534,0.624,-26.28,26.06,-44.8,1,1
16416.765,0.488,0.534,0.624,-28.75,32.69,-50.17,1,1
16416.765,0.449,0.533,0.643,-26.18,39.86,-52.92,1,1
16416.781,0.407,0.545,0.67,-19.32,45.63,-52.31,1,1
16416.796,0.363,0.576,0.702,-9.22,49.07,-48.1,1,1
16416.796,0.321,0.589,0.732,1.56,49.65,-40.59,1,1
16416.812,0.294,0.61,0.755,10.04,46.88,-32.32,1,1
16416.828,0.287,0.639,0.76,15.96,43.0,-25.82,1,1
16416.843,0.286,0.655,0.751,17.52,39.52,-21.76,1,1
16416.843,0.283,0.673,0.739,13.76,37.11,-19.32,1,1
16416.859,0.279,0.67,0.734,5.92,35.4,-17.4,1,1
16416.859,0.277,0.653,0.745,-3.57,34.58,-15.78,1,1
16416.875,0.27,0.638,0.76,-11.47,34.15,-14.01,1,1
16416.89,0.264,0.596,0.77,-15.96,33.2,-11.96,1,1
16416.89,0.268,0.563,0.777,-16.91,32.29,-10.07,1,1
16416.906,0.267,0.543,0.777,-13.89,32.35,-9.7,1,1
16416.921,0.267,0.529,0.774,-8.82,33.69,-10.68,1,1
16416.921,0.261,0.528,0.773,-2.62,35.98,-12.57,1,1
16416.937,0.254,0.548,0.781,4.18,38.64,-15.44,1,1
16416.937,0.207,0.528,0.791,10.16,40.28,-16.75,1,1
16416.968,0.166,0.601,0.817,19.29,37.11,-18.65,1,1
16416.968,0.155,0.607,0.838,19.84,29.79,-17.06,1,1
16416.984,0.146,0.647,0.846,16.75,20.78,-15.81,1,1
16417.0,0.146,0.666,0.846,1.28,-2.14,-13.06,1,1
16417.0,0.151,0.672,0.836,-6.38,-10.47,-10.22,1,1
16417.015,0.168,0.651,0.824,-11.96,-14.83,-7.75,1,1
16417.015,0.198,0.626,0.814,-13.73,-15.44,-6.16,1,1
16417.031,0.241,0.568,0.792,-11.35,-12.97,-5.8,1,1
16417.046,0.253,0.552,0.781,-6.5,-7.9,-6.71,1,1
16417.062,0.254,0.561,0.787,-1.25,-1.65,-9.09,1,1
16417.062,0.256,0.576,0.787,4.3,3.85,-11.99,1,1
16417.078,0.236,0.594,0.789,10.44,7.32,-13.43,1,1
16417.078,0.222,0.616,0.793,16.21,7.78,-12.57,1,1
16417.093,0.218,0.652,0.799,19.26,4.97,-11.32,1,1
16417.109,0.212,0.667,0.782,18.77,0.4,-9.83,1,1
16417.125,0.217,0.678,0.764,13.67,-4.0,-7.81,1,1
16417.125,0.214,0.676,0.747,-1.43,-9.28,-4.33,1,1
16417.14,0.221,0.653,0.735,-7.39,-9.34,-2.26,1,1
16417.156,0.228,0.633,0.725,-10.35,-7.29,-0.95,1,1
16417.156,0.231,0.613,0.714,-10.44,-3.05,-0.92,1,1
16417.171,0.23,0.595,0.701,-9.31,2.62,-2.01,1,1
16417.187,0.232,0.585,0.695,-7.54,9.34,-2.84,1,1
16417.187,0.236,0.575,0.685,-5.65,16.42,-3.81,1,1
16417.203,0.225,0.567,0.678,-3.97,22.77,-6.44,1,1
16417.218,0.214,0.562,0.668,-2.66,27.95,-8.33,1,1
16417.218,0.222,0.58,0.657,-3.91,32.69,-10.53,1,1
16417.234,0.217,0.585,0.645,-9.25,37.72,-14.53,1,1
16417.25,0.207,0.578,0.652,-18.37,43.67,-19.96,1,1
16417.25,0.135,0.603,0.728,-33.39,47.49,-26.15,1,1
16417.265,0.069,0.718,0.84,-54.72,40.86,-26.55,1,1
16417.281,0.133,0.733,0.824,-65.34,31.89,-19.68,1,1
16417.281,0.075,0.642,0.906,-70.93,27.1,-16.57,1,1
16417.296,0.117,0.685,1.002,-81.45,-4.61,5.4,1,1
16417.312,0.143,0.545,0.937,-67.81,-11.99,10.62,1,1
16417.328,0.174,0.479,0.905,-53.87,-13.89,11.57,1,1
16417.328,0.197,0.468,0.884,-36.16,-11.38,10.16,1,1
16417.343,0.187,0.475,0.883,-19.56,-7.66,7.54,1,1
16417.359,0.168,0.503,0.889,-6.23,-6.44,5.95,1,1
16417.359,0.149,0.549,0.874,5.01,-6.87,6.78,1,1
16417.375,0.133,0.557,0.863,11.84,-9.86,9.64,1,1
16417.39,0.088,0.629,0.892,8.61,-18.04,13.25,1,1
16417.39,0.164,0.611,0.845,6.04,-26.49,20.57,1,1
16417.406,0.128,0.543,0.844,2.78,-30.09,20.91,1,1
16417.406,0.123,0.601,0.867,-6.35,-36.53,22.89,1,1
16417.421,0.175,0.559,0.853,-9.64,-40.8,25.51,1,1
16417.437,0.177,0.486,0.83,-11.26,-41.84,24.05,1,1
16417.437,0.198,0.464,0.825,-12.15,-39.98,22.37,1,1
16417.453,0.224,0.452,0.82,-9.89,-36.81,20.02,1,1
16417.468,0.247,0.391,0.765,-1.46,-25.85,15.69,1,1
16417.484,0.258,0.368,0.751,3.81,-17.67,13.09,1,1
16417.5,0.262,0.364,0.74,9.64,-8.21,10.38,1,1
16417.5,0.26,0.362,0.733,14.74,1.34,7.63,1,1
16417.515,0.242,0.362,0.735,17.09,8.42,3.91,1,1
16417.531,0.228,0.394,0.744,16.14,12.67,0.34,1,1
16417.531,0.22,0.426,0.749,12.39,14.86,-2.59,1,1
16417.546,0.205,0.435,0.758,6.1,14.89,-4.73,1,1
16417.546,0.198,0.445,0.775,-0.95,12.91,-5.55,1,1
16417.562,0.197,0.447,0.791,-6.16,9.74,-5.04,1,1
16417.578,0.198,0.441,0.807,-8.79,6.56,-4.33,1,1
16417.593,0.2,0.434,0.82,-9.16,3.78,-4.15,1,1
16417.593,0.202,0.431,0.831,-7.51,1.86,-4.85,1,1
16417.609,0.197,0.44,0.84,-5.16,0.82,-6.29,1,1
16417.609,0.196,0.458,0.845,-3.75,0.09,-8.03,1,1
16417.625,0.196,0.48,0.85,-4.09,-0.03,-9.46,1,1
16417.64,0.192,0.5,0.863,-7.45,-0.18,-10.74,1,1
16417.656,0.193,0.501,0.873,-9.58,-1.28,-10.93,1,1
16417.656,0.199,0.503,0.884,-10.93,-3.14,-11.35,1,1
16417.671,0.202,0.506,0.891,-10.44,-5.71,-11.66,1,1
16417.687,0.205,0.515,0.89,-8.51,-8.51,-11.87,1,1
16417.687,0.217,0.517,0.889,-7.39,-11.08,-11.51,1,1
16417.703,0.229,0.528,0.885,-7.08,-13.0,-10.99,1,1
16417.718,0.232,0.527,0.876,-6.44,-14.34,-10.44,1,1
16417.718,0.244,0.517,0.869,-5.89,-14.74,-10.13,1,1
16417.734,0.238,0.51,0.866,-5.65,-14.37,-10.44,1,1
16417.75,0.235,0.51,0.865,-6.26,-14.28,-10.9,1,1
16417.75,0.241,0.502,0.86,-7.29,-14.83,-11.23,1,1
16417.765,0.246,0.479,0.856,-8.18,-15.59,-12.39,1,1
16417.765,0.251,0.467,0.85,-7.97,-16.05,-14.28,1,1
16417.781,0.266,0.458,0.822,-6.16,-14.89,-15.84,1,1
16417.796,0.276,0.434,0.788,-2.01,-10.9,-17.33,1,1
16417.812,0.27,0.459,0.778,6.65,3.57,-19.59,1,1
16417.828,0.245,0.489,0.788,9.58,9.95,-18.92,1,1
16417.828,0.215,0.513,0.799,10.86,14.4,-16.85,1,1
16417.843,0.186,0.548,0.817,9.61,15.93,-13.4,1,1
16417.859,0.159,0.57,0.838,7.17,13.92,-8.61,1,1
16417.859,0.152,0.572,0.855,3.23,8.82,-3.17,1,1
16417.875,0.153,0.583,0.867,-1.13,2.75,0.43,1,1
16417.875,0.143,0.563,0.878,-5.01,-3.75,2.29,1,1
16417.89,0.156,0.538,0.89,-9.28,-9.95,3.11,1,1
16417.906,0.174,0.527,0.89,-12.85,-15.63,3.11,1,1
16417.921,0.2,0.5,0.879,-13.52,-19.23,2.66,1,1
16417.921,0.215,0.479,0.867,-11.87,-19.41,2.38,1,1
16417.937,0.22,0.464,0.858,-8.64,-17.91,2.35,1,1
16417.937,0.233,0.452,0.85,-3.48,-15.72,2.38,1,1
16417.953,0.245,0.449,0.831,2.69,-12.82,2.38,1,1
16417.968,0.25,0.444,0.811,7.93,-9.46,1.62,1,1
16417.984,0.257,0.462,0.783,13.15,0.12,-2.17,1,1
16418.0,0.25,0.476,0.777,10.8,1.98,-2.26,1,1
16418.0,0.234,0.492,0.781,7.35,2.62,-2.2,1,1
16418.015,0.211,0.509,0.808,3.51,2.11,-1.83,1,1
16418.031,0.208,0.517,0.812,0.52,1.16,-1.62,1,1
16418.031,0.202,0.509,0.816,-1.16,0.4,-1.04,1,1
16418.046,0.204,0.501,0.821,-1.83,0.12,-0.12,1,1
16418.046,0.212,0.495,0.828,-0.79,0.24,0.27,1,1
16418.062,0.216,0.499,0.834,1.16,0.15,-0.12,1,1
16418.078,0.229,0.508,0.836,2.5,-0.34,-0.58,1,1
16418.078,0.243,0.509,0.836,3.11,-0.49,-0.82,1,1
16418.093,0.255,0.505,0.83,4.24,0.37,-0.98,1,1
16418.109,0.274,0.501,0.82,6.26,2.53,-1.5,1,1
16418.109,0.296,0.501,0.81,8.09,5.89,-2.11,1,1
16418.125,0.311,0.502,0.814,9.61,9.55,-2.17,1,1
16418.125,0.328,0.5,0.823,11.69,13.03,-2.78,1,1
16418.14,0.347,0.507,0.831,14.98,15.26,-3.48,1,1
16418.156,0.356,0.527,0.841,17.76,16.85,-4.52,1,1
16418.171,0.352,0.546,0.84,18.8,17.33,-5.68,1,1
16418.171,0.359,0.55,0.831,19.47,18.1,-5.46,1,1
16418.187,0.36,0.556,0.83,18.25,18.77,-4.27,1,1
16418.187,0.357,0.555,0.816,14.86,19.14,-2.75,1,1
16418.203,0.346,0.538,0.791,9.34,19.96,-1.59,1,1
16418.218,0.323,0.53,0.784,1.16,21.18,-1.89,1,1
16418.218,0.304,0.507,0.78,-6.87,21.79,-2.93,1,1
16418.234,0.281,0.48,0.77,-12.97,23.62,-4.91,1,1
16418.25,0.262,0.467,0.766,-16.33,28.9,-8.58,1,1
16418.25,0.235,0.459,0.778,-16.39,36.59,-12.94,1,1
16418.265,0.196,0.458,0.79,-12.36,43.79,-16.66,1,1
16418.281,0.159,0.476,0.801,-6.74,49.23,-18.1,1,1
16418.281,0.108,0.494,0.803,-0.92,52.19,-16.05,1,1
16418.296,0.068,0.517,0.806,3.72,53.83,-10.9,1,1
16418.312,0.047,0.541,0.801,6.5,54.6,-6.47,1,1
16418.312,0.029,0.548,0.793,6.35,54.48,-4.76,1,1
16418.328,0.01,0.545,0.781,4.09,53.71,-4.3,1,1
16418.328,0.01,0.533,0.766,0.43,52.49,-4.52,1,1
16418.343,0.015,0.518,0.75,-4.03,52.03,-5.34,1,1
16418.359,0.007,0.498,0.734,-8.64,52.37,-7.45,1,1
16418.359,-0.039,0.482,0.766,-13.37,52.98,-10.38,1,1
16418.375,-0.118,0.574,0.887,-24.75,45.96,-10.68,1,1
16418.375,-0.119,0.619,0.954,-37.87,29.6,-3.54,1,1
16418.39,-0.079,0.491,0.91,-41.6,15.02,0.21,1,1
16418.406,-0.131,0.403,0.941,-42.05,6.5,-4.58,1,1
16418.421,-0.12,0.527,1.002,-44.07,-5.98,-5.77,1,1
16418.421,-0.074,0.48,0.983,-34.33,-15.38,-3.94,1,1
16418.437,-0.057,0.432,0.932,-23.62,-19.81,-2.93,1,1
16418.437,-0.021,0.438,0.897,-12.42,-17.49,-0.46,1,1
16418.453,-0.014,0.454,0.872,-1.34,-10.86,0.64,1,1
16418.468,-0.032,0.474,0.869,5.19,-3.17,1.1,1,1
16418.468,-0.041,0.491,0.883,7.93,1.65,2.35,1,1
16418.484,-0.065,0.501,0.895,9.49,3.02,4.43,1,1
16418.484,-0.086,0.516,0.899,9.74,1.65,6.9,1,1
16418.5,-0.107,0.535,0.905,8.64,-1.95,8.88,1,1
16418.515,-0.124,0.572,0.918,4.12,-8.06,10.44,1,1
16418.531,-0.137,0.604,0.947,-3.6,-17.09,12.82,1,1
16418.531,-0.112,0.635,0.957,-16.05,-30.15,17.43,1,1
16418.546,-0.036,0.513,0.901,-27.01,-39.74,15.69,1,1
16418.546,-0.064,0.487,0.919,-35.65,-44.47,10.62,1,1
16418.562,-0.011,0.515,0.94,-37.97,-50.75,15.14,1,1
16418.578,0.057,0.443,0.919,-31.56,-57.65,19.84,1,1
16418.578,0.078,0.386,0.886,-24.48,-62.84,21.0,1,1
16418.593,0.139,0.366,0.865,-14.16,-64.49,20.42,1,1
16418.609,0.17,0.351,0.834,-2.93,-61.68,17.06,1,1
16418.609,0.197,0.346,0.805,6.07,-55.94,12.63,1,1
16418.625,0.224,0.367,0.783,11.66,-48.31,8.3,1,1
16418.64,0.246,0.404,0.771,13.28,-39.55,4.79,1,1
16418.64,0.257,0.42,0.753,12.12,-29.82,2.5,1,1
16418.671,0.274,0.421,0.763,5.95,-12.21,0.79,1,1
16418.671,0.279,0.416,0.768,2.59,-6.47,-0.43,1,1
16418.687,0.295,0.406,0.773,-0.79,-2.56,-2.23,1,1
16418.687,0.301,0.406,0.78,-4.24,-0.21,-5.13,1,1
16418.703,0.299,0.404,0.786,-8.3,0.46,-8.09,1,1
16418.718,0.303,0.409,0.792,-13.64,1.04,-10.71,1,1
16418.734,0.307,0.4,0.793,-18.37,1.22,-13.06,1,1
16418.734,0.305,0.39,0.81,-20.72,1.31,-13.95,1,1
16418.75,0.295,0.39,0.828,-20.2,1.68,-13.58,1,1
16418.75,0.289,0.371,0.84,-16.02,2.08,-12.57,1,1
16418.765,0.283,0.36,0.857,-8.55,2.96,-11.54,1,1
16418.781,0.259,0.38,0.876,1.28,4.82,-11.81,1,1
16418.781,0.211,0.428,0.909,10.13,5.4,-11.75,1,1
16418.796,0.189,0.5,0.96,11.66,1.83,-10.16,1,1
16418.796,0.167,0.538,0.979,9.13,-3.66,-9.19,1,1
16418.812,0.148,0.553,0.982,5.65,-8.09,-8.42,1,1
16418.828,0.167,0.563,0.982,3.91,-10.99,-6.74,1,1
16418.843,0.173,0.568,0.953,6.87,-11.6,-4.76,1,1
16418.843,0.182,0.565,0.916,11.51,-10.5,-2.2,1,1
16418.859,0.187,0.558,0.886,14.4,-8.97,0.18,1,1
16418.859,0.191,0.54,0.85,14.59,-7.57,2.11,1,1
16418.875,0.193,0.51,0.82,12.21,-5.52,3.3,1,1
16418.89,0.195,0.483,0.802,8.73,-3.2,3.42,1,1
16418.89,0.194,0.451,0.796,5.89,-1.37,2.38,1,1
16418.906,0.194,0.438,0.798,5.43,0.09,1.04,1,1
16418.906,0.187,0.432,0.808,5.83,0.76,0.15,1,1
16418.921,0.184,0.427,0.828,5.52,0.61,-0.43,1,1
16418.937,0.177,0.417,0.857,4.79,0.03,-1.04,1,1
16418.937,0.154,0.417,0.893,3.3,-1.16,-1.71,1,1
16418.953,0.143,0.439,0.898,0.82,-4.06,-2.78,1,1
16418.968,0.174,0.449,0.864,4.27,-1.95,-6.16,1,1
16418.968,0.192,0.351,0.826,0.27,-0.64,-9.0,1,1
16418.984,0.084,0.488,0.907,-4.73,-6.1,-5.8,1,1
16419.0,0.177,0.539,0.923,2.96,-7.54,-5.34,1,1
16419.0,0.157,0.485,0.868,4.36,-6.99,-3.45,1,1
16419.015,0.171,0.508,0.876,8.03,-4.82,-1.04,1,1
16419.031,0.152,0.498,0.876,13.31,-2.72,0.92,1,1
16419.031,0.155,0.496,0.885,16.24,-3.23,2.9,1,1
16419.046,0.15,0.501,0.887,19.35,-6.32,4.46,1,1
16419.046,0.14,0.498,0.879,21.61,-9.98,6.53,1,1
16419.062,0.147,0.506,0.881,21.18,-14.86,9.06,1,1
16419.078,0.156,0.508,0.876,20.14,-19.44,10.71,1,1
16419.093,0.115,0.519,0.903,14.62,-24.93,11.08,1,1
16419.093,0.21,0.543,0.875,6.04,-33.2,13.15,1,1
16419.109,0.214,0.411,0.791,14.56,-31.62,12.42,1,1
16419.109,0.184,0.499,0.85,6.32,-30.98,9.4,1,1
16419.125,0.232,0.529,0.873,-1.25,-33.94,10.1,1,1
16419.14,0.215,0.461,0.82,4.97,-33.97,9.52,1,1
16419.14,0.242,0.47,0.807,4.36,-33.17,9.83,1,1
16419.156,0.262,0.491,0.803,4.3,-30.7,8.55,1,1
16419.156,0.244,0.46,0.782,6.84,-27.07,7.32,1,1
16419.171,0.266,0.466,0.774,6.84,-22.98,7.39,1,1
16419.187,0.271,0.482,0.763,7.14,-18.4,5.68,1,1
16419.203,0.278,0.478,0.758,6.84,-13.4,4.21,1,1
16419.203,0.275,0.486,0.767,5.83,-8.39,2.59,1,1
16419.218,0.264,0.489,0.776,4.27,-4.79,1.68,1,1
16419.218,0.264,0.492,0.791,2.5,-2.62,1.31,1,1
16419.234,0.256,0.499,0.806,0.67,-1.71,0.61,1,1
16419.25,0.249,0.507,0.829,-1.28,-2.32,0.06,1,1
16419.25,0.245,0.517,0.843,-3.39,-3.94,-0.12,1,1
16419.265,0.244,0.522,0.848,-5.04,-5.46,0.03,1,1
16419.265,0.238,0.529,0.855,-6.13,-7.17,0.46,1,1
16419.281,0.235,0.528,0.859,-6.68,-9.31,1.4,1,1
16419.296,0.238,0.518,0.85,-6.44,-11.08,2.72,1,1
16419.296,0.241,0.498,0.833,-5.22,-11.69,3.94,1,1
16419.312,0.252,0.488,0.823,-3.54,-11.2,4.94,1,1
16419.328,0.254,0.481,0.814,-1.56,-9.95,5.13,1,1
16419.343,0.253,0.473,0.808,-0.49,-8.91,4.97,1,1
16419.343,0.258,0.466,0.798,0.58,-8.15,4.79,1,1
16419.359,0.27,0.463,0.791,0.27,-7.29,3.94,1,1
16419.359,0.269,0.47,0.799,-1.4,-5.65,2.59,1,1
16419.375,0.262,0.476,0.811,-1.43,-4.03,1.34,1,1
16419.39,0.261,0.491,0.833,-2.62,-3.11,1.77,1,1
16419.39,0.253,0.48,0.848,-3.88,-3.14,1.95,1,1
16419.406,0.255,0.475,0.857,-3.23,-4.33,2.26,1,1
16419.406,0.263,0.48,0.857,-2.29,-6.01,1.95,1,1
16419.421,0.266,0.478,0.845,-1.25,-6.99,1.16,1,1
16419.437,0.272,0.469,0.829,-0.46,-6.93,0.49,1,1
16419.437,0.279,0.464,0.818,0.24,-6.29,-0.06,1,1
16419.453,0.288,0.463,0.793,1.77,-4.73,-0.55,1,1
16419.468,0.296,0.453,0.772,3.14,-1.22,-1.68,1,1
16419.468,0.3,0.459,0.759,1.95,3.69,-3.63,1,1
16419.484,0.314,0.461,0.728,1.07,10.25,-5.77,1,1
16419.5,0.312,0.452,0.679,0.09,19.71,-8.45,1,1
16419.5,0.309,0.465,0.686,-3.08,31.83,-10.65,1,1
16419.531,0.29,0.45,0.642,-5.13,57.5,-14.89,1,1
16419.531,0.284,0.443,0.635,-6.71,72.45,-20.2,1,1
16419.546,0.18,0.485,0.783,-17.76,83.22,-27.92,1,1
16419.546,0.084,0.672,0.986,-47.46,73.7,-31.34,1,1
16419.562,0.031,0.631,1.112,-58.84,54.17,-26.28,1,1
16419.578,-0.027,0.668,1.194,-60.98,24.63,-13.03,1,1
16419.578,0.102,0.572,1.126,-46.66,-1.95,4.85,1,1
16419.593,0.164,0.457,0.971,-21.36,-13.52,13.28,1,1
16419.609,0.203,0.4,0.885,-8.33,-14.86,14.89,1,1
16419.609,0.208,0.369,0.863,-0.82,-11.47,13.03,1,1
16419.625,0.207,0.346,0.846,5.52,-8.67,10.9,1,1
16419.64,0.209,0.353,0.838,6.96,-7.9,8.18,1,1
16419.64,0.205,0.367,0.856,6.62,-8.76,4.61,1,1
16419.656,0.195,0.377,0.882,8.85,-10.41,1.34,1,1
16419.656,0.189,0.402,0.903,14.37,-12.33,-0.98,1,1
16419.671,0.185,0.441,0.915,20.05,-13.76,-1.71,1,1
16419.687,0.187,0.551,0.942,18.92,-21.58,0.89,1,1
16419.703,0.223,0.432,0.832,28.02,-21.73,3.02,1,1
16419.718,0.173,0.487,0.823,26.22,-18.56,3.88,1,1
16419.734,0.221,0.541,0.832,18.56,-17.88,5.83,1,1
16419.734,0.198,0.472,0.806,14.4,-18.59,5.07,1,1
16419.75,0.226,0.458,0.827,3.66,-21.06,4.0,1,1
16419.75,0.233,0.497,0.817,2.23,-21.21,4.3,1,1
16419.765,0.239,0.471,0.802,4.21,-19.71,5.07,1,1
16419.781,0.244,0.472,0.822,3.39,-17.49,5.43,1,1
16419.781,0.245,0.483,0.83,5.07,-15.59,5.86,1,1
16419.796,0.254,0.479,0.83,6.2,-14.1,5.83,1,1
16419.796,0.25,0.482,0.832,6.74,-12.3,4.85,1,1
16419.812,0.245,0.479,0.829,8.27,-11.2,4.15,1,1
16419.828,0.242,0.477,0.827,9.64,-10.62,3.81,1,1
16419.828,0.243,0.49,0.825,9.86,-9.77,3.72,1,1
16419.843,0.243,0.497,0.82,9.34,-8.94,3.57,1,1
16419.859,0.243,0.495,0.816,6.68,-8.73,4.3,1,1
16419.875,0.253,0.5,0.81,5.4,-9.13,5.19,1,1
16419.89,0.264,0.506,0.811,2.99,-8.91,5.01,1,1
16419.89,0.265,0.495,0.81,0.89,-8.03,4.7,1,1
16419.906,0.264,0.486,0.814,0.34,-7.05,4.76,1,1
16419.921,0.256,0.494,0.832,1.37,-6.32,5.46,1,1
16419.921,0.249,0.499,0.845,2.99,-6.04,6.62,1,1
16419.937,0.242,0.495,0.848,4.15,-6.84,7.93,1,1
16419.937,0.244,0.496,0.848,5.01,-8.36,8.79,1,1
16419.953,0.242,0.498,0.846,5.04,-11.44,8.7,1,1
16419.968,0.241,0.499,0.839,4.64,-12.42,9.19,1,1
16419.968,0.242,0.495,0.83,4.91,-12.57,10.16,1,1
16419.984,0.258,0.479,0.815,5.8,-12.39,11.08,1,1
16420.0,0.268,0.47,0.808,7.23,-12.02,11.99,1,1
16420.0,0.281,0.465,0.801,9.03,-11.23,12.82,1,1
16420.015,0.292,0.461,0.796,10.99,-10.35,13.12,1,1
16420.031,0.309,0.491,0.805,11.84,-7.97,10.93,1,1
16420.046,0.304,0.507,0.814,10.68,-7.39,9.64,1,1
16420.046,0.301,0.516,0.823,9.28,-7.42,8.94,1,1
16420.062,0.302,0.524,0.827,8.88,-7.69,8.7,1,1
16420.078,0.303,0.53,0.826,9.13,-7.81,8.48,1,1
16420.078,0.293,0.533,0.828,9.92,-8.42,8.55,1,1
16420.093,0.282,0.534,0.829,10.5,-10.04,9.52,1,1
16420.109,0.278,0.544,0.831,10.28,-11.72,10.62,1,1
16420.109,0.271,0.551,0.831,9.52,-13.43,10.9,1,1
16420.125,0.261,0.559,0.828,7.66,-14.89,11.17,1,1
16420.14,0.247,0.558,0.841,5.77,-15.75,10.93,1,1
16420.14,0.24,0.571,0.844,8.64,-15.63,10.16,1,1
16420.156,0.232,0.588,0.844,11.05,-14.28,11.17,1,1
16420.171,0.213,0.593,0.836,12.91,-12.15,10.96,1,1
16420.171,0.218,0.599,0.835,14.71,-9.95,11.75,1,1
16420.187,0.209,0.609,0.831,14.71,-7.32,12.85,1,1
16420.203,0.202,0.61,0.836,11.35,-6.04,16.63,1,1
16420.218,0.207,0.594,0.836,9.64,-7.75,19.1,1,1
16420.234,0.216,0.581,0.834,8.61,-10.96,21.33,1,1
16420.234,0.233,0.564,0.828,8.55,-14.53,23.16,1,1
16420.234,0.249,0.55,0.828,8.82,-17.06,24.38,1,1
16420.25,0.251,0.537,0.831,9.61,-18.28,25.09,1,1
16420.265,0.252,0.526,0.839,10.71,-19.84,25.61,1,1
16420.281,0.278,0.519,0.842,11.32,-22.03,26.31,1,1
16420.281,0.294,0.528,0.838,11.84,-22.68,25.33,1,1
16420.296,0.297,0.516,0.842,12.02,-21.97,23.83,1,1
16420.296,0.297,0.516,0.851,12.33,-20.66,23.07,1,1
16420.312,0.297,0.515,0.852,13.76,-19.87,22.83,1,1
16420.328,0.299,0.511,0.851,15.14,-19.99,22.83,1,1
16420.328,0.301,0.514,0.852,16.45,-21.39,22.89,1,1
16420.343,0.301,0.513,0.854,17.46,-23.74,23.01,1,1
16420.359,0.303,0.52,0.854,18.22,-26.7,23.1,1,1
16420.375,0.319,0.521,0.829,20.33,-33.6,23.87,1,1
16420.39,0.326,0.527,0.821,21.39,-36.01,23.47,1,1
16420.39,0.348,0.524,0.806,22.37,-38.21,23.26,1,1
16420.406,0.361,0.524,0.786,23.29,-39.98,22.86,1,1
16420.406,0.372,0.519,0.767,23.35,-41.6,23.13,1,1
16420.421,0.39,0.521,0.754,22.19,-41.99,23.71,1,1
16420.437,0.406,0.522,0.743,20.42,-41.44,23.29,1,1
16420.437,0.411,0.516,0.735,18.31,-40.1,22.52,1,1
16420.453,0.417,0.508,0.725,16.48,-39.16,21.91,1,1
16420.468,0.428,0.507,0.714,14.5,-39.34,21.97,1,1
16420.484,0.441,0.523,0.695,12.21,-38.51,21.79,1,1
16420.484,0.452,0.527,0.686,7.97,-36.84,21.06,1,1
16420.5,0.466,0.523,0.677,0.34,-35.77,19.32,1,1
16420.5,0.472,0.518,0.67,-8.91,-34.27,16.72,1,1
16420.515,0.487,0.497,0.671,-16.69,-31.5,13.98,1,1
16420.531,0.497,0.479,0.675,-20.84,-27.38,11.38,1,1
16420.546,0.5,0.46,0.697,-17.09,-17.64,7.57,1,1
16420.546,0.503,0.454,0.716,-10.83,-13.34,7.48,1,1
16420.562,0.497,0.457,0.725,-1.22,-10.25,8.06,1,1
16420.578,0.499,0.459,0.726,8.73,-8.67,9.89,1,1
16420.578,0.502,0.475,0.726,16.79,-8.06,11.38,1,1
16420.593,0.5,0.489,0.722,21.79,-8.45,11.81,1,1
16420.609,0.499,0.516,0.711,22.06,-9.03,11.05,1,1
16420.609,0.488,0.529,0.707,18.25,-9.98,10.65,1,1
16420.625,0.486,0.527,0.712,14.07,-10.83,11.44,1,1
16420.625,0.473,0.536,0.712,10.99,-12.21,12.76,1,1
16420.64,0.483,0.55,0.714,8.64,-14.47,14.5,1,1
16420.656,0.458,0.55,0.724,6.13,-16.33,15.59,1,1
16420.671,0.47,0.537,0.735,3.78,-19.71,17.46,1,1
16420.671,0.486,0.53,0.724,4.67,-24.11,18.37,1,1
16420.687,0.489,0.516,0.71,8.18,-27.5,19.17,1,1
16420.687,0.492,0.493,0.691,11.75,-30.09,19.99,1,1
16420.718,0.514,0.467,0.651,18.8,-33.39,19.32,1,1
16420.718,0.514,0.45,0.62,23.38,-34.61,17.55,1,1
16420.734,0.518,0.45,0.604,25.64,-34.67,16.24,1,1
16420.75,0.522,0.452,0.595,25.85,-35.19,14.31,1,1
16420.75,0.528,0.445,0.586,26.06,-36.07,13.4,1,1
16420.765,0.526,0.455,0.576,25.85,-37.45,12.67,1,1
16420.781,0.553,0.468,0.578,24.23,-39.49,13.86,1,1
16420.781,0.561,0.476,0.576,22.98,-41.54,14.37,1,1
16420.796,0.583,0.47,0.574,22.61,-43.49,15.44,1,1
16420.796,0.594,0.466,0.553,23.74,-45.14,15.44,1,1
16420.812,0.589,0.444,0.53,24.17,-47.21,16.69,1,1
16420.828,0.622,0.451,0.512,24.35,-48.4,18.59,1,1
16420.828,0.649,0.477,0.481,24.57,-47.94,17.09,1,1
16420.843,0.642,0.461,0.452,21.73,-46.51,14.65,1,1
16420.859,0.653,0.461,0.443,16.27,-44.1,14.65,1,1
16420.859,0.67,0.473,0.436,12.36,-41.75,15.26,1,1
16420.875,0.672,0.47,0.422,10.53,-37.78,16.45,1,1
16420.875,0.7,0.468,0.407,7.75,-31.37,17.64,1,1
16420.89,0.73,0.474,0.366,3.33,-23.1,15.99,1,1
16420.906,0.728,0.463,0.323,-2.87,-11.75,13.64,1,1
16420.906,0.746,0.472,0.32,-9.31,3.48,13.34,1,1
16420.921,0.753,0.487,0.337,-11.57,21.36,12.94,1,1
16420.937,0.734,0.475,0.351,-7.72,54.41,14.5,1,1
16420.937,0.722,0.46,0.375,-6.01,68.27,14.37,1,1
16420.953,0.712,0.461,0.408,-4.82,76.66,11.93,1,1
16420.968,0.685,0.46,0.446,-3.85,77.49,10.44,1,1
16420.968,0.611,0.406,0.577,-0.89,70.01,12.36,1,1
16420.984,0.627,0.429,0.609,5.46,58.02,13.09,1,1
16421.0,0.604,0.43,0.628,8.85,44.16,13.46,1,1
16421.0,0.624,0.431,0.633,6.9,29.85,16.57,1,1
16421.015,0.671,0.479,0.627,3.51,19.9,17.67,1,1
16421.015,0.647,0.469,0.63,-1.31,13.82,18.01,1,1
16421.031,0.67,0.438,0.642,-6.38,9.74,20.66,1,1
16421.046,0.7,0.462,0.64,-7.97,8.85,20.51,1,1
16421.062,0.682,0.46,0.641,-8.42,10.41,18.07,1,1
16421.062,0.663,0.435,0.67,-9.67,10.8,17.06,1,1
16421.078,0.668,0.467,0.683,-7.6,9.03,15.66,1,1
16421.078,0.64,0.464,0.681,-4.91,5.28,14.04,1,1
16421.093,0.646,0.464,0.701,-3.23,0.43,13.64,1,1
16421.109,0.658,0.491,0.708,0.64,-4.58,12.73,1,1
16421.109,0.629,0.477,0.704,3.63,-10.44,11.69,1,1
16421.125,0.658,0.491,0.698,5.28,-18.13,11.35,1,1
16421.14,0.653,0.507,0.68,7.11,-24.48,9.31,1,1
16421.14,0.654,0.489,0.672,6.2,-29.36,8.42,1,1
16421.156,0.672,0.503,0.66,5.28,-32.81,8.03,1,1
16421.171,0.666,0.496,0.64,5.31,-34.76,8.7,1,1
16421.171,0.693,0.503,0.625,5.89,-35.83,8.88,1,1
16421.187,0.669,0.478,0.61,6.81,-36.13,8.82,1,1
16421.187,0.686,0.47,0.605,7.32,-37.02,10.01,1,1
16421.203,0.682,0.496,0.604,9.52,-37.48,9.95,1,1
16421.218,0.672,0.491,0.598,11.63,-39.31,10.07,1,1
16421.218,0.656,0.471,0.593,12.48,-43.58,10.32,1,1
16421.234,0.673,0.494,0.586,13.73,-48.1,11.2,1,1
16421.25,0.667,0.488,0.569,15.78,-51.55,11.6,1,1
16421.25,0.688,0.486,0.559,15.59,-54.38,12.73,1,1
16421.265,0.696,0.495,0.542,15.66,-54.72,13.25,1,1
16421.265,0.697,0.498,0.521,15.38,-53.62,13.52,1,1
16421.281,0.712,0.502,0.503,14.07,-52.03,14.07,1,1
16421.296,0.705,0.509,0.498,12.33,-50.29,14.01,1,1
16421.296,0.706,0.493,0.5,9.55,-49.75,14.34,1,1
16421.312,0.71,0.499,0.506,6.96,-50.23,15.29,1,1
16421.328,0.713,0.506,0.513,6.41,-50.66,16.85,1,1
16421.328,0.712,0.494,0.509,7.54,-51.88,18.83,1,1
16421.343,0.717,0.481,0.498,8.39,-54.32,20.84,1,1
16421.359,0.723,0.487,0.488,7.84,-57.59,21.76,1,1
16421.359,0.741,0.485,0.482,5.95,-60.82,22.4,1,1
16421.375,0.756,0.49,0.462,4.03,-63.17,22.4,1,1
16421.39,0.766,0.488,0.439,2.2,-63.51,22.95,1,1
16421.39,0.786,0.5,0.434,-0.4,-61.19,24.35,1,1
16421.406,0.791,0.505,0.439,-2.53,-58.5,25.18,1,1
16421.406,0.779,0.503,0.43,-5.77,-57.34,25.76,1,1
16421.421,0.768,0.501,0.424,-10.83,-57.92,26.95,1,1
16421.437,0.772,0.502,0.435,-13.73,-58.84,28.75,1,1
16421.437,0.762,0.486,0.422,-13.31,-59.94,30.7,1,1
16421.453,0.766,0.481,0.407,-12.94,-62.44,31.89,1,1
16421.468,0.761,0.488,0.395,-14.16,-65.55,32.72,1,1
16421.484,0.763,0.484,0.379,-18.59,-70.5,33.63,1,1
16421.484,0.786,0.488,0.367,-26.46,-75.62,33.81,1,1
16421.5,0.801,0.48,0.352,-33.23,-78.46,34.03,1,1
16421.5,0.828,0.449,0.326,-37.39,-77.3,35.1,1,1
16421.515,0.84,0.437,0.315,-39.22,-72.36,36.29,1,1
16421.531,0.835,0.411,0.298,-37.87,-66.26,37.78,1,1
16421.531,0.836,0.39,0.284,-36.65,-61.1,38.33,1,1
16421.546,0.84,0.382,0.275,-35.68,-56.25,38.0,1,1
16421.562,0.839,0.367,0.264,-34.88,-51.79,38.21,1,1
16421.562,0.838,0.362,0.264,-35.77,-48.31,39.77,1,1
16421.578,0.834,0.348,0.278,-38.18,-46.3,42.02,1,1
16421.578,0.839,0.328,0.295,-40.86,-46.17,43.95,1,1
16421.593,0.839,0.303,0.318,-41.69,-47.49,46.66,1,1
16421.609,0.845,0.28,0.315,-40.22,-50.05,49.56,1,1
16421.609,0.868,0.251,0.28,-39.22,-53.59,52.1,1,1
16421.625,0.92,0.226,0.251,-40.62,-55.36,52.61,1,1
16421.64,0.959,0.202,0.231,-41.44,-52.77,50.66,1,1
16421.64,0.976,0.175,0.231,-40.53,-47.36,47.4,1,1
16421.656,0.981,0.146,0.244,-35.98,-42.82,43.34,1,1
16421.656,0.983,0.121,0.25,-27.71,-40.47,37.87,1,1
16421.671,0.992,0.121,0.242,-17.55,-40.74,31.01,1,1
16421.687,1.0,0.148,0.232,-7.45,-41.02,24.05,1,1
16421.687,0.984,0.181,0.228,0.85,-39.98,19.04,1,1
16421.703,0.975,0.214,0.223,6.26,-37.87,17.27,1,1
16421.718,0.969,0.253,0.209,6.74,-34.7,18.07,1,1
16421.734,0.951,0.274,0.217,0.4,-30.21,20.45,1,1
16421.734,0.922,0.256,0.23,-6.62,-26.67,24.11,1,1
16421.75,0.902,0.234,0.235,-10.65,-23.68,29.3,1,1
16421.75,0.901,0.205,0.232,-12.45,-21.64,34.18,1,1
16421.765,0.911,0.178,0.226,-12.73,-19.75,37.02,1,1
16421.765,0.926,0.147,0.205,-10.77,-17.33,37.57,1,1
16421.781,0.936,0.129,0.192,-7.84,-14.22,36.07,1,1
16421.796,0.94,0.099,0.177,-4.79,-11.08,32.78,1,1
16421.796,0.952,0.078,0.147,-2.08,-8.03,28.38,1,1
16421.812,0.967,0.072,0.139,-1.25,-4.18,22.86,1,1
16421.828,0.972,0.062,0.139,-1.16,0.43,15.96,1,1
16421.828,0.953,0.059,0.144,-0.37,4.94,8.97,1,1
16421.843,0.934,0.058,0.159,2.32,7.97,3.66,1,1
16421.859,0.929,0.074,0.188,5.07,9.89,-0.34,1,1
16421.859,0.909,0.092,0.21,6.29,10.5,-4.15,1,1
16421.875,0.887,0.098,0.236,5.37,8.73,-6.93,1,1
16421.875,0.878,0.113,0.265,3.97,5.01,-8.39,1,1
16421.89,0.89,0.124,0.275,2.69,0.24,-9.4,1,1
16421.906,0.907,0.127,0.256,0.37,-3.66,-10.41,1,1
16421.906,0.925,0.129,0.244,-2.47,-4.49,-14.65,1,1
16421.921,0.939,0.129,0.235,-2.69,-2.35,-17.37,1,1
16421.937,0.942,0.137,0.22,-3.33,0.49,-20.33,1,1
16421.953,0.936,0.128,0.208,-3.36,3.36,-23.1,1,1
16421.953,0.922,0.151,0.203,-3.48,5.55,-25.42,1,1
16421.968,0.909,0.153,0.219,-4.18,7.11,-27.25,1,1
16421.968,0.898,0.163,0.239,-3.45,7.69,-28.75,1,1
16421.984,0.871,0.171,0.242,-1.01,6.68,-28.84,1,1
16422.0,0.872,0.2,0.265,0.49,3.54,-27.22,1,1
16422.015,0.89,0.227,0.274,0.92,-0.67,-25.94,1,1
16422.015,0.905,0.234,0.257,-0.34,-4.39,-24.96,1,1
16422.015,0.932,0.236,0.247,-2.14,-6.07,-24.17,1,1
16422.031,0.945,0.245,0.237,-2.04,-5.58,-24.23,1,1
16422.046,0.949,0.246,0.229,-0.82,-4.27,-24.41,1,1
16422.062,0.953,0.253,0.228,-0.15,-3.23,-24.72,1,1
16422.062,0.957,0.261,0.215,0.09,-2.66,-25.06,1,1
16422.078,0.953,0.264,0.195,-0.55,-2.59,-25.48,1,1
16422.078,0.965,0.263,0.186,-0.55,-2.29,-25.91,1,1
16422.093,0.954,0.267,0.181,1.19,-1.19,-26.55,1,1
16422.109,0.951,0.274,0.184,3.91,-0.58,-26.49,1,1
16422.125,0.944,0.297,0.202,7.08,-1.07,-27.13,1,1
16422.125,0.918,0.292,0.211,11.05,-2.96,-27.41,1,1
16422.14,0.925,0.304,0.214,13.95,-6.78,-27.31,1,1
16422.14,0.916,0.318,0.216,14.56,-11.14,-28.75,1,1
16422.156,0.915,0.311,0.228,13.31,-15.78,-30.61,1,1
16422.171,0.925,0.319,0.252,13.82,-19.99,-32.47,1,1
16422.171,0.911,0.309,0.233,15.84,-24.14,-34.18,1,1
16422.187,0.916,0.323,0.195,13.06,-27.47,-35.31,1,1
16422.187,0.936,0.341,0.197,9.0,-27.86,-35.49,1,1
16422.203,0.931,0.341,0.203,9.58,-25.88,-34.76,1,1
16422.218,0.924,0.352,0.2,10.56,-23.83,-32.47,1,1
16422.234,0.914,0.388,0.181,8.51,-19.78,-24.08,1,1
16422.25,0.905,0.391,0.173,5.58,-18.56,-19.2,1,1
16422.25,0.903,0.392,0.171,1.89,-17.91,-13.95,1,1
16422.265,0.908,0.402,0.171,-1.5,-17.58,-8.76,1,1
16422.265,0.912,0.388,0.163,-4.12,-17.58,-4.61,1,1
16422.281,0.925,0.376,0.159,-5.86,-16.97,-1.22,1,1
16422.296,0.939,0.367,0.159,-5.43,-14.83,0.73,1,1
16422.312,0.948,0.35,0.159,-3.45,-11.6,1.46,1,1
16422.312,0.958,0.346,0.167,0.0,-7.51,1.4,1,1
16422.328,0.949,0.354,0.169,5.22,-3.14,0.55,1,1
16422.328,0.932,0.362,0.172,9.37,0.15,0.55,1,1
16422.343,0.92,0.382,0.191,11.29,1.53,1.56,1,1
16422.359,0.9,0.398,0.196,12.21,0.95,3.57,1,1
16422.359,0.897,0.41,0.187,9.67,-1.16,6.78,1,1
16422.375,0.9,0.414,0.191,4.85,-3.3,10.22,1,1
16422.39,0.902,0.406,0.197,0.85,-5.28,13.46,1,1
16422.39,0.915,0.393,0.194,-2.23,-7.17,16.63,1,1
16422.406,0.931,0.379,0.191,-4.21,-7.93,18.77,1,1
16422.406,0.941,0.371,0.192,-4.55,-7.29,19.9,1,1
16422.421,0.933,0.371,0.202,-3.2,-5.89,20.94,1,1
16422.437,0.918,0.368,0.205,-1.1,-5.4,22.68,1,1
16422.453,0.912,0.369,0.2,-0.15,-6.47,25.12,1,1
16422.453,0.908,0.364,0.195,-0.67,-8.55,27.07,1,1
16422.468,0.908,0.344,0.188,-2.26,-11.35,28.35,1,1
16422.468,0.914,0.334,0.186,-3.08,-13.95,29.27,1,1
16422.484,0.926,0.328,0.179,-1.62,-15.78,29.66,1,1
16422.5,0.93,0.327,0.167,0.09,-16.85,29.27,1,1
16422.5,0.933,0.323,0.161,0.85,-17.7,28.47,1,1
16422.515,0.928,0.316,0.158,2.2,-18.13,27.71,1,1
16422.531,0.933,0.314,0.144,4.91,-18.25,27.68,1,1
16422.531,0.941,0.325,0.121,6.78,-17.67,27.68,1,1
16422.546,0.945,0.335,0.114,6.38,-16.36,27.47,1,1
16422.546,0.935,0.337,0.116,5.71,-15.2,27.13,1,1
16422.562,0.913,0.352,0.109,4.76,-14.98,27.68,1,1
16422.578,0.901,0.365,0.11,2.35,-16.27,29.57,1,1
16422.578,0.902,0.353,0.098,-0.89,-18.98,32.04,1,1
16422.593,0.921,0.347,0.073,-5.34,-21.7,33.54,1,1
16422.609,0.942,0.326,0.046,-11.6,-23.41,32.93,1,1
16422.609,0.957,0.297,0.024,-18.28,-24.08,29.79,1,1
16422.625,0.975,0.271,0.002,-22.64,-23.59,23.99,1,1
16422.64,1.009,0.258,-0.018,-22.4,-20.84,15.35,1,1
16422.64,1.029,0.254,-0.04,-16.45,-14.47,3.75,1,1
16422.656,1.017,0.271,-0.065,-7.66,-5.58,-9.49,1,1
16422.656,0.988,0.298,-0.067,-0.89,3.11,-22.31,1,1
16422.671,0.973,0.312,-0.06,2.44,10.53,-33.48,1,1
16422.687,0.959,0.314,-0.045,4.46,19.5,-39.67,1,1
16422.687,0.934,0.325,0.01,6.84,29.66,-39.55,1,1
16422.703,0.879,0.323,0.12,12.36,37.45,-33.39,1,1
16422.718,0.84,0.3,0.191,19.99,39.49,-20.48,1,1
16422.718,0.814,0.289,0.198,24.9,37.26,-3.51,1,1
16422.75,0.895,0.227,0.244,19.93,25.54,29.11,1,1
16422.75,0.939,0.164,0.248,13.25,20.45,38.36,1,1
16422.765,0.991,0.115,0.269,6.81,17.37,42.54,1,1
16422.765,1.015,0.061,0.289,4.24,15.93,42.18,1,1
16422.781,1.026,0.011,0.296,4.49,14.77,39.09,1,1
16422.796,1.037,-0.013,0.311,6.23,13.43,33.75,1,1
16422.812,1.027,-0.023,0.316,10.13,11.51,27.07,1,1
16422.812,1.021,-0.022,0.304,13.58,8.12,20.54,1,1
16422.828,1.028,0.014,0.286,14.59,4.91,14.31,1,1
16422.828,1.016,0.043,0.265,13.64,2.75,9.43,1,1
16422.843,1.014,0.065,0.249,10.13,1.1,6.71,1,1
16422.859,1.008,0.089,0.238,5.37,0.79,5.31,1,1
16422.859,0.985,0.115,0.236,0.61,1.53,5.07,1,1
16422.875,0.952,0.128,0.241,-3.85,0.85,6.44,1,1
16422.875,0.954,0.143,0.244,-8.39,-2.08,8.21,1,1
16422.89,0.968,0.161,0.234,-11.87,-4.61,8.51,1,1
16422.906,0.966,0.179,0.204,-13.58,-4.12,5.34,1,1
16422.921,0.966,0.189,0.197,-12.33,-3.23,3.23,1,1
16422.937,0.947,0.214,0.172,-10.35,-2.41,2.32,1,1
16422.937,0.949,0.239,0.172,-8.76,-1.25,2.11,1,1
16422.953,0.938,0.24,0.172,-7.39,0.24,3.27,1,1
16422.968,0.923,0.245,0.164,-7.51,0.27,4.7,1,1
16422.968,0.922,0.244,0.164,-8.06,-1.04,6.38,1,1
16422.984,0.931,0.241,0.164,-8.42,-3.05,7.26,1,1
16423.0,0.94,0.229,0.16,-7.9,-4.43,7.93,1,1
16423.0,0.955,0.239,0.166,-6.1,-4.85,7.9,1,1
16423.015,0.946,0.244,0.164,-4.43,-5.13,6.84,1,1
16423.015,0.944,0.249,0.172,-4.3,-6.01,6.1,1,1
16423.031,0.948,0.244,0.179,-3.23,-7.11,6.1,1,1
16423.046,0.939,0.236,0.17,-1.95,-8.15,6.81,1,1
16423.046,0.948,0.235,0.168,-1.59,-9.7,7.69,1,1
16423.062,0.959,0.234,0.163,-1.34,-11.32,8.24,1,1
16423.078,0.971,0.227,0.157,-1.04,-12.33,9.03,1,1
16423.078,0.981,0.221,0.147,-0.06,-12.33,9.58,1,1
16423.093,0.981,0.216,0.137,0.92,-12.21,9.83,1,1
16423.109,0.983,0.207,0.131,1.74,-12.05,10.44,1,1
16423.109,0.991,0.21,0.131,1.92,-11.81,11.14,1,1
16423.125,0.993,0.214,0.146,1.5,-11.81,11.23,1,1
16423.125,0.992,0.21,0.162,1.22,-12.33,11.23,1,1
16423.14,0.99,0.21,0.178,1.89,-13.89,11.57,1,1
16423.156,0.991,0.217,0.182,4.27,-15.99,12.57,1,1
16423.171,0.996,0.226,0.176,6.01,-18.62,14.01,1,1
16423.171,1.014,0.233,0.174,5.71,-21.15,15.38,1,1
16423.187,1.025,0.237,0.168,4.49,-22.71,16.14,1,1
16423.187,1.024,0.236,0.169,3.11,-23.16,16.45,1,1
16423.203,1.01,0.229,0.168,2.96,-23.32,16.94,1,1
16423.218,0.984,0.225,0.169,3.51,-24.2,17.61,1,1
16423.218,0.963,0.22,0.167,4.46,-25.94,18.8,1,1
16423.234,0.943,0.214,0.154,5.49,-27.89,20.2,1,1
16423.25,0.929,0.202,0.146,5.43,-29.57,22.31,1,1
16423.25,0.916,0.183,0.123,3.69,-31.4,25.85,1,1
16423.265,0.92,0.165,0.11,-0.58,-32.99,29.88,1,1
16423.281,0.919,0.135,0.102,-6.2,-33.57,33.75,1,1
16423.281,0.929,0.098,0.093,-11.81,-33.94,36.84,1,1
16423.296,0.937,0.061,0.078,-15.9,-32.93,38.79,1,1
16423.312,0.937,0.047,0.074,-20.23,-31.13,38.85,1,1
16423.312,0.934,0.024,0.087,-24.05,-31.07,37.32,1,1
16423.328,0.939,-0.005,0.077,-25.33,-31.28,35.16,1,1
16423.328,0.956,-0.004,0.075,-24.45,-30.52,32.69,1,1
16423.343,0.961,0.005,0.071,-21.3,-28.41,30.15,1,1
16423.359,0.965,0.01,0.039,-19.1,-25.91,28.26,1,1
16423.359,0.977,0.022,0.004,-19.26,-21.85,26.37,1,1
16423.375,0.996,0.038,-0.022,-21.82,-15.84,24.99,1,1
16423.39,1.02,0.049,-0.058,-26.98,-7.32,24.26,1,1
16423.39,1.036,0.051,-0.08,-34.33,3.91,24.11,1,1
16423.406,1.044,0.039,-0.071,-41.14,17.12,24.41,1,1
16423.421,0.97,0.015,0.012,-44.98,41.11,26.58,1,1
16423.437,0.945,0.002,0.052,-45.35,45.53,29.02,1,1
16423.437,0.96,-0.021,0.084,-43.58,46.02,30.3,1,1
16423.453,0.975,-0.022,0.103,-37.54,47.52,30.95,1,1
16423.468,0.956,-0.013,0.115,-32.53,48.34,29.3,1,1
16423.468,0.948,0.005,0.157,-34.52,43.86,25.09,1,1
16423.484,0.97,0.005,0.17,-38.15,35.98,20.81,1,1
16423.5,1.015,-0.014,0.173,-39.16,29.79,16.94,1,1
16423.5,1.047,-0.033,0.183,-35.68,28.08,13.82,1,1
16423.515,1.062,-0.041,0.211,-30.82,28.47,12.39,1,1
16423.515,1.077,-0.06,0.218,-29.15,28.2,13.43,1,1
16423.531,1.091,-0.078,0.25,-31.86,27.74,15.02,1,1
16423.546,1.069,-0.098,0.275,-34.36,25.51,15.72,1,1
16423.546,1.053,-0.118,0.272,-36.04,20.33,14.07,1,1
16423.562,1.038,-0.121,0.282,-35.74,14.13,9.43,1,1
16423.578,1.014,-0.11,0.276,-33.11,6.47,2.11,1,1
16423.593,0.97,-0.039,0.225,-23.71,-7.11,-10.41,1,1
16423.609,0.971,-0.003,0.171,-19.81,-11.41,-12.97,1,1
16423.609,0.986,0.039,0.134,-18.52,-10.93,-13.06,1,1
16423.625,0.971,0.062,0.11,-17.82,-5.58,-10.19,1,1
16423.64,0.944,0.091,0.09,-19.75,0.73,-5.07,1,1
16423.64,0.92,0.107,0.087,-26.4,4.49,0.82,1,1
16423.656,0.902,0.086,0.103,-33.78,5.52,6.29,1,1
16423.656,0.889,0.058,0.132,-37.63,3.2,10.59,1,1
16423.671,0.892,0.036,0.147,-37.08,-2.08,12.63,1,1
16423.687,0.918,0.008,0.142,-33.51,-8.42,11.78,1,1
16423.703,0.964,-0.008,0.125,-26.76,-11.99,8.3,1,1
16423.703,0.987,0.001,0.104,-18.62,-10.9,4.67,1,1
16423.718,1.005,0.029,0.105,-12.39,-7.02,2.59,1,1
16423.718,0.986,0.052,0.105,-7.93,-2.35,2.41,1,1
16423.734,0.973,0.067,0.112,-6.32,0.61,3.54,1,1
16423.75,0.954,0.073,0.129,-6.44,0.98,6.29,1,1
16423.75,0.956,0.07,0.143,-6.65,-1.5,9.49,1,1
16423.765,0.966,0.056,0.15,-7.72,-5.89,11.6,1,1
16423.765,0.991,0.03,0.137,-8.88,-10.41,11.08,1,1
16423.781,1.012,0.008,0.12,-7.78,-12.27,8.76,1,1
16423.796,1.024,-0.012,0.123,-2.99,-11.51,5.43,1,1
16423.796,1.018,-0.018,0.13,4.82,-10.1,1.13,1,1
16423.828,1.018,-0.017,0.126,13.61,-9.4,-2.99,1,1
16423.828,1.009,-0.008,0.125,23.29,-9.19,-7.26,1,1
16423.828,1.004,-0.009,0.119,34.73,-9.13,-11.57,1,1
16423.843,1.009,-0.001,0.103,47.98,-8.48,-15.05,1,1
16423.859,1.008,0.057,0.065,59.69,-5.98,-16.24,1,1
16423.875,0.985,0.122,0.016,62.62,-2.14,-13.49,1,1
16423.875,0.964,0.13,-0.008,57.56,2.04,-7.11,1,1
16423.89,0.932,0.123,-0.022,41.38,10.62,15.99,1,1
16423.89,0.899,0.087,-0.017,28.26,10.44,27.22,1,1
16423.906,0.893,0.045,0.043,15.63,5.49,32.99,1,1
16423.906,0.915,-0.034,0.089,9.0,0.55,32.69,1,1
16423.921,0.963,-0.196,0.133,12.57,-1.68,28.44,1,1
16423.937,0.992,-0.229,0.125,22.55,-1.1,22.03,1,1
16423.937,1.007,-0.206,0.113,33.42,3.02,15.44,1,1
16423.953,0.99,-0.165,0.103,38.58,7.93,8.67,1,1
16423.968,0.971,-0.131,0.112,35.77,10.77,4.18,1,1
16423.968,0.956,-0.097,0.138,29.33,11.66,3.57,1,1
16423.984,0.954,-0.077,0.161,21.97,10.22,4.7,1,1
16424.0,0.966,-0.079,0.172,13.21,7.72,5.46,1,1
16424.0,0.972,-0.085,0.195,5.04,5.86,5.95,1,1
16424.015,0.975,-0.09,0.222,-0.67,3.45,5.58,1,1
16424.015,0.99,-0.097,0.229,-3.48,-0.03,3.78,1,1
16424.031,1.008,-0.101,0.22,-3.3,-2.5,1.13,1,1
16424.046,1.015,-0.1,0.221,-0.34,-2.81,-1.86,1,1
16424.046,0.998,-0.089,0.205,4.0,-3.05,-4.91,1,1
16424.062,0.985,-0.072,0.192,6.84,-4.27,-7.2,1,1
16424.078,0.978,-0.05,0.182,7.48,-6.41,-8.18,1,1
16424.093,0.988,-0.04,0.16,7.29,-9.22,-8.61,1,1
16424.093,0.991,-0.021,0.134,5.55,-9.86,-8.24,1,1
16424.093,0.984,-0.012,0.113,2.47,-8.64,-6.87,1,1
16424.109,0.984,-0.007,0.125,-0.31,-6.23,-4.82,1,1
16424.125,0.966,-0.004,0.131,-1.74,-4.12,-2.32,1,1
16424.14,0.959,-0.012,0.125,-3.3,-3.42,0.15,1,1
16424.14,0.975,-0.015,0.131,-4.82,-3.39,1.5,1,1
16424.156,0.984,-0.028,0.135,-4.33,-3.08,0.98,1,1
16424.171,0.986,-0.041,0.13,-2.35,-2.56,-0.09,1,1
16424.171,0.987,-0.034,0.14,0.09,-1.37,-1.25,1,1
16424.187,0.974,-0.031,0.143,2.81,-0.92,-2.41,1,1
16424.187,0.965,-0.033,0.142,4.64,-1.74,-2.96,1,1
16424.203,0.977,-0.028,0.145,5.46,-2.66,-3.57,1,1
16424.218,0.979,-0.022,0.138,5.77,-2.47,-4.18,1,1
16424.218,0.967,-0.019,0.123,3.66,-2.11,-3.02,1,1
16424.234,0.978,-0.027,0.117,-0.4,-2.32,-1.28,1,1
16424.25,1.002,-0.035,0.119,-4.03,-1.8,-0.12,1,1
16424.25,1.007,-0.045,0.128,-5.83,0.21,0.4,1,1
16424.265,0.999,-0.056,0.143,-5.89,2.35,0.76,1,1
16424.265,0.992,-0.059,0.16,-4.49,3.17,0.52,1,1
16424.281,0.991,-0.06,0.165,-2.78,2.56,-0.98,1,1
16424.296,0.988,-0.058,0.161,-1.74,1.56,-2.53,1,1
16424.296,0.982,-0.052,0.158,-1.22,0.76,-3.2,1,1
16424.312,0.986,-0.049,0.149,-1.13,0.15,-3.3,1,1
16424.328,1.001,-0.047,0.16,-1.53,-0.06,-3.88,1,1
16424.328,1.003,-0.045,0.167,-0.55,0.0,-4.85,1,1
16424.343,0.999,-0.033,0.17,1.56,-0.09,-5.22,1,1
16424.359,0.989,-0.026,0.166,3.3,-0.92,-5.34,1,1
16424.359,0.991,-0.028,0.156,3.54,-2.38,-5.58,1,1
16424.375,0.995,-0.029,0.138,3.42,-3.42,-6.04,1,1
16424.39,0.987,-0.016,0.131,2.38,-3.39,-5.62,1,1
16424.39,0.975,-0.013,0.128,0.61,-3.08,-4.88,1,1
16424.406,0.966,-0.022,0.127,-0.76,-3.36,-3.75,1,1
16424.406,0.968,-0.021,0.127,-2.23,-4.64,-2.75,1,1
16424.421,0.973,-0.025,0.12,-3.23,-5.4,-2.08,1,1
16424.437,0.986,-0.035,0.12,-3.6,-5.19,-2.08,1,1
16424.437,0.99,-0.038,0.118,-2.41,-4.7,-2.99,1,1
16424.453,0.992,-0.041,0.113,-0.49,-4.06,-4.27,1,1
16424.468,0.989,-0.038,0.111,1.34,-3.14,-5.71,1,1
16424.468,0.979,-0.025,0.113,1.8,-2.2,-6.23,1,1
16424.484,0.981,-0.012,0.118,1.5,-2.01,-5.8,1,1
16424.5,0.993,-0.003,0.12,0.92,-1.71,-5.28,1,1
16424.5,0.989,-0.003,0.115,0.34,-0.95,-4.82,1,1
16424.515,0.982,0.001,0.113,-0.55,-0.15,-3.81,1,1
16424.515,0.987,0.005,0.119,-1.5,-0.12,-3.02,1,1
16424.531,0.987,0.008,0.128,-2.08,-0.4,-2.5,1,1
16424.546,0.984,-0.004,0.127,-2.04,-0.46,-1.59,1,1
16424.546,0.982,-0.008,0.132,-1.4,-0.55,-0.73,1,1
16424.562,0.985,-0.008,0.141,-0.31,-0.85,-0.31,1,1
16424.578,0.993,-0.005,0.155,1.16,-0.95,-0.24,1,1
16424.578,0.996,0.003,0.166,2.56,-0.49,-0.06,1,1
16424.593,0.993,0.005,0.178,4.0,-0.18,0.12,1,1
16424.609,0.99,0.005,0.189,5.07,-0.64,0.49,1,1
16424.609,0.979,-0.001,0.184,5.19,-1.71,0.98,1,1
16424.625,0.985,-0.008,0.18,4.3,-3.51,0.95,1,1
16424.625,0.993,-0.012,0.178,3.11,-4.85,-0.06,1,1
16424.64,0.992,-0.018,0.171,2.66,-4.79,-1.34,1,1
16424.656,0.989,-0.023,0.168,3.11,-4.18,-2.23,1,1
16424.656,0.985,-0.021,0.154,3.42,-3.91,-2.72,1,1
16424.671,0.986,-0.015,0.145,2.56,-3.42,-3.36,1,1
16424.687,0.976,-0.016,0.138,0.92,-2.75,-4.03,1,1
16424.703,0.97,-0.021,0.122,-0.85,-2.9,-4.03,1,1
16424.703,0.977,-0.017,0.11,-2.47,-3.14,-3.54,1,1
16424.718,0.983,-0.023,0.09,-3.72,-2.41,-3.51,1,1
16424.718,0.982,-0.03,0.08,-4.27,-0.58,-3.78,1,1
16424.734,0.97,-0.028,0.078,-4.12,1.34,-3.85,1,1
16424.75,0.955,-0.027,0.078,-3.54,1.68,-3.48,1,1
16424.75,0.953,-0.025,0.069,-3.91,0.03,-2.87,1,1
16424.765,0.964,-0.026,0.052,-5.31,-2.17,-2.35,1,1
16424.781,0.98,-0.028,0.031,-7.14,-3.57,-2.11,1,1
16424.781,0.997,-0.022,0.014,-9.64,-3.2,-2.2,1,1
16424.796,0.995,-0.024,0.003,-12.15,-1.65,-2.08,1,1
16424.796,0.994,-0.029,0.006,-14.44,-0.34,-1.28,1,1
16424.812,0.997,-0.023,0.023,-16.14,0.58,-0.15,1,1
16424.828,0.991,-0.03,0.022,-16.39,0.82,0.67,1,1
16424.828,0.99,-0.04,0.021,-16.94,0.52,1.28,1,1
16424.843,0.992,-0.049,0.02,-16.08,1.01,1.53,1,1
16424.859,0.986,-0.064,0.005,-14.04,1.98,1.86,1,1
16424.859,0.983,-0.073,-0.01,-10.59,3.85,2.59,1,1
16424.875,1.006,-0.073,-0.008,-8.06,7.23,1.83,1,1
16424.89,1.005,-0.071,0.002,-5.16,10.44,1.4,1,1
16424.89,0.989,-0.073,0.009,-2.69,12.79,1.62,1,1
16424.906,0.97,-0.072,0.042,0.46,14.19,2.5,1,1
16424.906,0.973,-0.07,0.037,2.47,14.74,4.36,1,1
16424.921,0.992,-0.056,0.037,2.53,15.9,5.98,1,1
16424.937,1.006,-0.057,0.036,1.28,18.13,6.41,1,1
16424.953,1.029,-0.043,0.07,-0.55,22.13,6.07,1,1
16424.953,1.016,-0.027,0.108,0.06,27.16,4.97,1,1
16424.968,0.991,-0.028,0.128,1.71,28.78,4.24,1,1
16424.968,0.986,-0.023,0.159,3.54,27.5,4.24,1,1
16424.984,0.975,-0.023,0.164,6.35,25.21,4.85,1,1
16425.0,0.973,-0.03,0.158,7.69,22.34,5.83,1,1
16425.0,0.981,-0.034,0.157,7.63,20.02,6.44,1,1
16425.015,0.993,-0.044,0.155,6.96,18.86,6.04,1,1
16425.015,0.999,-0.046,0.164,5.92,18.86,4.61,1,1
16425.031,0.997,-0.052,0.179,6.81,19.62,2.41,1,1
16425.046,0.988,-0.051,0.196,9.52,20.97,0.73,1,1
16425.046,0.992,-0.034,0.219,11.78,21.52,-0.67,1,1
16425.062,0.974,-0.019,0.235,12.51,20.94,-2.23,1,1
16425.078,0.951,-0.024,0.236,12.7,17.61,-3.05,1,1
16425.078,0.953,-0.026,0.232,12.6,12.91,-2.96,1,1
16425.093,0.957,-0.023,0.219,12.54,9.16,-2.72,1,1
16425.109,0.972,-0.027,0.21,11.93,7.26,-2.53,1,1
16425.109,0.986,-0.027,0.205,11.05,8.39,-2.35,1,1
16425.125,0.99,-0.034,0.201,10.38,11.26,-2.32,1,1
16425.125,0.994,-0.036,0.209,9.77,14.83,-2.66,1,1
16425.14,0.974,-0.032,0.217,9.16,17.46,-4.18,1,1
16425.156,0.978,-0.033,0.229,8.94,18.28,-5.74,1,1
16425.171,0.983,-0.0,0.265,9.83,19.17,-7.32,1,1
16425.171,0.957,0.015,0.279,12.45,18.77,-9.0,1,1
16425.187,0.946,0.03,0.283,14.98,16.6,-9.06,1,1
16425.187,0.937,0.052,0.271,16.57,13.76,-7.51,1,1
16425.203,0.947,0.066,0.265,15.11,10.96,-5.07,1,1
16425.218,0.964,0.077,0.28,11.11,9.34,-3.05,1,1
16425.218,0.963,0.058,0.272,8.39,9.06,-1.25,1,1
16425.234,0.959,0.047,0.273,6.78,9.34,0.61,1,1
16425.25,0.938,0.033,0.274,6.59,9.19,2.14,1,1
16425.25,0.936,0.013,0.266,6.26,7.2,3.63,1,1
16425.265,0.946,-0.001,0.246,4.73,4.97,4.58,1,1
16425.265,0.96,-0.023,0.234,3.6,3.97,4.06,1,1
16425.281,0.975,-0.028,0.233,3.88,5.07,2.26,1,1
16425.296,0.979,-0.023,0.23,4.73,7.17,-0.7,1,1
16425.296,0.987,-0.019,0.237,5.8,9.28,-3.6,1,1
16425.312,0.985,0.002,0.26,7.14,12.48,-5.22,1,1
16425.328,0.964,0.014,0.278,7.72,15.5,-4.85,1,1
16425.328,0.954,0.022,0.302,6.41,16.08,-2.62,1,1
16425.343,0.948,0.02,0.31,4.3,14.53,0.0,1,1
16425.359,0.947,-0.006,0.304,1.98,12.36,2.47,1,1
16425.359,0.947,-0.031,0.297,-0.03,10.41,4.18,1,1
16425.375,0.958,-0.058,0.282,-1.16,8.42,4.36,1,1
16425.375,0.978,-0.066,0.273,-2.32,7.42,2.08,1,1
16425.39,1.002,-0.05,0.279,-0.98,9.0,-1.8,1,1
16425.406,1.008,-0.039,0.297,2.14,12.02,-6.71,1,1
16425.421,0.993,-0.018,0.324,5.46,13.34,-11.6,1,1
16425.421,0.978,0.014,0.345,8.85,12.3,-14.71,1,1
16425.437,0.96,0.037,0.345,11.72,9.64,-15.53,1,1
16425.437,0.951,0.05,0.323,13.34,4.73,-13.86,1,1
16425.453,0.954,0.049,0.284,12.79,-0.49,-11.05,1,1
16425.468,0.962,0.025,0.232,9.89,-4.64,-8.21,1,1
16425.468,0.977,0.002,0.184,5.13,-6.01,-5.65,1,1
16425.484,0.989,-0.016,0.156,0.49,-3.63,-4.12,1,1
16425.484,0.982,-0.033,0.155,-2.59,1.74,-3.85,1,1
16425.5,0.967,-0.048,0.16,-3.54,7.17,-4.24,1,1
16425.515,0.966,-0.044,0.187,-2.72,11.63,-5.62,1,1
16425.531,0.963,-0.025,0.222,-0.24,14.89,-7.87,1,1
16425.531,0.951,0.014,0.255,3.08,16.39,-10.25,1,1
16425.546,0.921,0.022,0.277,5.74,15.56,-10.22,1,1
16425.546,0.916,0.044,0.29,6.84,11.66,-8.03,1,1
16425.562,0.915,0.038,0.27,7.2,6.41,-5.46,1,1
16425.578,0.921,0.024,0.246,4.46,1.1,-3.02,1,1
16425.578,0.938,-0.011,0.225,1.04,-3.27,-1.5,1,1
16425.593,0.954,-0.047,0.192,-1.95,-5.07,-1.01,1,1
16425.609,0.957,-0.097,0.162,-3.2,-3.66,-2.47,1,1
16425.609,0.948,-0.138,0.135,-0.98,-0.24,-4.94,1,1
16425.625,0.943,-0.163,0.102,2.04,2.99,-8.51,1,1
16425.64,0.967,-0.153,0.113,4.85,7.63,-12.6,1,1
16425.64,0.961,-0.118,0.157,8.03,13.18,-18.92,1,1
16425.656,0.944,-0.08,0.213,10.65,18.25,-24.23,1,1
16425.656,0.925,-0.007,0.267,12.51,20.02,-27.83,1,1
16425.671,0.913,0.053,0.308,13.92,17.55,-30.64,1,1
16425.687,0.905,0.097,0.326,13.06,13.12,-30.27,1,1
16425.687,0.905,0.127,0.324,10.1,7.78,-27.13,1,1
16425.703,0.906,0.133,0.305,5.77,2.84,-22.77,1,1
16425.718,0.909,0.121,0.265,1.07,-0.82,-17.27,1,1
16425.718,0.908,0.094,0.222,-5.19,-2.32,-11.51,1,1
16425.734,0.944,0.07,0.155,-11.63,-1.62,-6.99,1,1
16425.75,0.971,0.039,0.07,-18.49,4.27,-5.52,1,1
16425.75,1.031,0.03,0.083,-25.61,17.4,-6.65,1,1
16425.765,1.06,0.046,0.135,-30.52,37.48,-10.01,1,1
16425.765,1.02,0.094,0.237,-33.66,59.39,-14.74,1,1
16425.781,0.927,0.124,0.403,-28.66,73.55,-17.76,1,1
16425.796,0.833,0.139,0.503,-18.83,74.68,-16.94,1,1
16425.796,0.797,0.175,0.549,-11.75,65.25,-12.79,1,1
16425.812,0.842,0.209,0.57,-9.64,51.61,-8.36,1,1
16425.828,0.884,0.233,0.569,-12.33,40.04,-6.87,1,1
16425.828,0.914,0.219,0.548,-16.45,31.31,-6.78,1,1
16425.843,0.968,0.225,0.538,-19.75,27.92,-6.81,1,1
16425.859,0.987,0.237,0.535,-16.91,33.36,-5.31,1,1
16425.859,0.973,0.233,0.509,-17.15,35.68,-2.9,1,1
16425.875,0.961,0.222,0.486,-19.99,37.69,0.0,1,1
16425.89,0.914,0.156,0.463,-24.35,37.54,2.23,1,1
16425.89,0.896,0.102,0.466,-26.76,35.55,2.99,1,1
16425.906,0.87,0.052,0.462,-25.03,33.14,2.69,1,1
16425.906,0.847,0.016,0.455,-21.45,29.42,0.27,1,1
16425.921,0.844,0.008,0.441,-17.58,25.09,-5.19,1,1
16425.937,0.859,0.025,0.434,-13.86,22.55,-13.61,1,1
16425.937,0.871,0.054,0.444,-12.82,21.27,-25.27,1,1
16425.953,0.868,0.082,0.461,-11.17,20.33,-36.68,1,1
16425.968,0.864,0.12,0.494,-5.98,19.93,-44.65,1,1
16425.968,0.849,0.177,0.538,0.76,19.1,-48.71,1,1
16425.984,0.812,0.227,0.547,4.39,14.1,-48.55,1,1
16426.0,0.806,0.269,0.533,-0.06,4.64,-43.21,1,1
16426.0,0.835,0.28,0.528,-9.49,-4.58,-33.27,1,1
16426.015,0.869,0.254,0.522,-15.23,-9.4,-19.44,1,1
16426.031,0.892,0.224,0.473,-16.21,-9.03,-2.17,1,1
16426.031,0.911,0.196,0.395,-20.63,-5.34,14.31,1,1
16426.046,0.927,0.141,0.361,-28.81,0.43,27.62,1,1
16426.046,0.928,0.072,0.345,-33.05,8.18,36.5,1,1
16426.062,0.981,0.047,0.355,-36.07,17.0,40.31,1,1
16426.078,1.02,0.031,0.391,-37.97,28.9,37.17,1,1
16426.078,0.985,0.008,0.457,-36.53,41.08,29.24,1,1
16426.093,0.925,-0.013,0.536,-29.94,49.2,21.27,1,1
16426.109,0.86,-0.006,0.599,-19.41,50.11,14.92,1,1
16426.109,0.807,0.018,0.635,-10.53,43.98,10.53,1,1
16426.125,0.801,0.02,0.63,-6.74,33.05,7.54,1,1
16426.125,0.819,0.016,0.596,-7.02,23.16,7.14,1,1
16426.14,0.845,0.011,0.545,-9.0,17.0,8.48,1,1
16426.156,0.872,-0.0,0.494,-12.76,15.38,9.52,1,1
16426.156,0.889,-0.011,0.478,-17.27,18.01,8.67,1,1
16426.171,0.873,-0.021,0.477,-18.34,22.71,6.29,1,1
16426.187,0.861,-0.029,0.481,-15.93,27.19,3.69,1,1
16426.187,0.851,-0.033,0.518,-12.63,31.86,2.17,1,1
16426.203,0.845,0.007,0.531,-7.32,32.01,0.58,1,1
16426.218,0.841,0.082,0.541,-8.58,27.8,-4.7,1,1
16426.234,0.764,-0.003,0.587,-14.1,27.16,-4.76,1,1
16426.234,0.781,0.027,0.608,-14.16,22.98,-0.79,1,1
16426.25,0.78,0.042,0.567,-10.19,17.67,-0.15,1,1
16426.25,0.76,-0.012,0.553,-12.79,14.4,-0.15,1,1
16426.265,0.764,-0.017,0.543,-16.6,13.03,0.46,1,1
16426.265,0.772,-0.028,0.522,-17.0,12.36,-1.1,1,1
16426.281,0.783,-0.033,0.515,-16.08,12.91,-3.69,1,1
16426.296,0.786,-0.012,0.518,-14.37,14.95,-6.99,1,1
16426.296,0.785,-0.011,0.541,-12.18,16.48,-10.07,1,1
16426.312,0.765,-0.002,0.58,-10.41,17.37,-11.08,1,1
16426.328,0.757,0.0,0.612,-10.28,16.39,-10.5,1,1
16426.328,0.755,-0.011,0.631,-11.96,13.49,-9.74,1,1
16426.343,0.751,-0.018,0.642,-14.56,10.68,-10.16,1,1
16426.359,0.756,-0.028,0.631,-15.17,7.9,-12.54,1,1
16426.359,0.771,-0.034,0.607,-13.09,6.5,-15.93,1,1
16426.375,0.793,-0.018,0.58,-8.76,8.0,-20.26,1,1
16426.39,0.809,-0.011,0.558,-3.91,12.36,-24.32,1,1
16426.39,0.805,0.012,0.554,-2.04,18.19,-26.8,1,1
16426.406,0.784,0.033,0.582,-4.06,23.19,-28.26,1,1
16426.406,0.758,0.056,0.623,-6.44,25.18,-28.75,1,1
16426.421,0.739,0.079,0.665,-7.11,24.69,-27.31,1,1
16426.437,0.726,0.088,0.682,-8.36,22.77,-24.11,1,1
16426.437,0.757,0.096,0.682,-11.54,19.17,-18.86,1,1
16426.453,0.797,0.097,0.66,-15.23,16.66,-12.97,1,1
16426.468,0.817,0.072,0.644,-20.11,16.33,-8.33,1,1
16426.468,0.844,0.042,0.646,-24.29,18.07,-5.01,1,1
16426.484,0.847,0.035,0.641,-25.09,20.84,-4.3,1,1
16426.5,0.821,-0.004,0.652,-25.03,22.43,-6.74,1,1
16426.5,0.807,-0.028,0.677,-23.65,23.93,-9.52,1,1
16426.515,0.808,-0.006,0.677,-19.1,24.2,-14.01,1,1
16426.531,0.805,0.005,0.673,-14.4,23.93,-19.65,1,1
16426.531,0.784,0.01,0.679,-10.71,24.35,-23.22,1,1
16426.546,0.78,0.034,0.679,-8.67,23.8,-24.48,1,1
16426.546,0.756,0.046,0.682,-9.25,22.52,-24.78,1,1
16426.562,0.742,0.047,0.683,-11.63,21.91,-23.68,1,1
16426.578,0.724,0.05,0.671,-12.85,20.84,-23.56,1,1
16426.593,0.717,0.044,0.662,-13.31,19.9,-23.44,1,1
16426.593,0.719,0.065,0.648,-13.49,19.26,-23.44,1,1
16426.609,0.738,0.08,0.632,-13.28,20.26,-23.16,1,1
16426.609,0.755,0.091,0.635,-13.61,22.34,-21.45,1,1
16426.625,0.752,0.101,0.645,-17.06,25.51,-18.04,1,1
16426.64,0.732,0.092,0.666,-22.58,28.08,-14.56,1,1
16426.64,0.719,0.075,0.702,-27.13,29.21,-10.59,1,1
16426.656,0.708,0.071,0.734,-28.78,28.23,-7.05,1,1
16426.671,0.721,0.072,0.76,-29.94,25.7,-4.39,1,1
16426.671,0.724,0.086,0.78,-30.64,23.01,-2.75,1,1
16426.687,0.73,0.083,0.794,-30.34,19.26,-1.22,1,1
16426.687,0.739,0.087,0.815,-29.48,15.66,1.28,1,1
16426.703,0.742,0.081,0.815,-29.02,11.75,3.69,1,1
16426.718,0.767,0.062,0.803,-28.6,7.81,5.83,1,1
16426.718,0.775,0.051,0.797,-26.8,4.97,7.02,1,1
16426.734,0.77,0.036,0.799,-25.48,3.42,8.06,1,1
16426.75,0.765,0.039,0.804,-25.48,0.67,7.93,1,1
16426.75,0.762,0.027,0.801,-25.54,-3.17,7.66,1,1
16426.765,0.777,0.007,0.797,-25.18,-7.02,7.87,1,1
16426.781,0.797,-0.006,0.755,-24.29,-8.97,7.11,1,1
16426.781,0.801,-0.026,0.729,-22.71,-8.39,5.25,1,1
16426.796,0.798,-0.032,0.717,-21.09,-5.92,2.72,1,1
16426.796,0.78,-0.042,0.709,-19.14,-2.59,-0.52,1,1
16426.812,0.747,-0.04,0.707,-17.46,0.03,-4.52,1,1
16426.828,0.717,-0.038,0.691,-15.14,0.64,-9.0,1,1
16426.828,0.696,-0.026,0.671,-8.12,1.31,-16.21,1,1
16426.843,0.673,-0.003,0.645,-6.13,1.98,-16.63,1,1
16426.859,0.648,0.021,0.632,-7.72,2.53,-13.76,1,1
16426.859,0.649,0.037,0.614,-12.3,3.45,-9.03,1,1
16426.875,0.667,0.04,0.591,-18.43,5.22,-2.72,1,1
16426.89,0.698,0.022,0.591,-23.26,7.48,2.23,1,1
16426.89,0.722,-0.018,0.6,-26.86,10.96,6.07,1,1
16426.906,0.72,-0.035,0.641,-30.37,14.92,8.39,1,1
16426.906,0.694,-0.061,0.686,-32.11,16.75,8.39,1,1
16426.921,0.672,-0.076,0.737,-31.68,15.05,6.5,1,1
16426.937,0.656,-0.087,0.776,-25.76,10.77,3.54,1,1
16426.937,0.657,-0.08,0.795,-15.84,5.31,1.13,1,1
16426.953,0.661,-0.058,0.801,-5.22,0.15,-0.34,1,1
16426.968,0.655,-0.052,0.795,4.55,-3.69,0.0,1,1
16426.968,0.67,-0.019,0.778,11.75,-7.63,0.46,1,1
16426.984,0.668,0.001,0.725,14.86,-10.25,0.37,1,1
16427.0,0.662,0.027,0.713,12.51,-12.42,-1.22,1,1
16427.0,0.639,0.031,0.708,12.36,-14.68,-2.53,1,1
16427.015,0.654,0.059,0.718,12.6,-17.64,-0.7,1,1
16427.031,0.65,0.074,0.746,14.19,-21.0,1.1,1,1
16427.031,0.66,0.061,0.736,17.49,-25.42,5.52,1,1
16427.046,0.715,0.069,0.685,16.97,-28.75,11.26,1,1
16427.046,0.763,0.068,0.635,13.46,-28.02,13.86,1,1
16427.062,0.794,0.052,0.641,12.6,-24.2,13.09,1,1
16427.078,0.819,0.054,0.629,16.36,-20.81,11.38,1,1
16427.093,0.834,0.052,0.618,16.21,-16.21,9.55,1,1
16427.093,0.841,0.052,0.631,12.24,-12.3,7.45,1,1
16427.109,0.838,0.045,0.66,8.76,-9.89,5.04,1,1
16427.109,0.823,0.037,0.691,6.5,-8.45,2.29,1,1
16427.125,0.805,0.021,0.703,6.35,-9.0,-0.89,1,1
16427.14,0.819,-0.0,0.679,8.33,-10.56,-4.03,1,1
16427.14,0.83,0.0,0.66,10.59,-9.19,-6.01,1,1
16427.156,0.804,0.011,0.646,10.38,-5.77,-7.93,1,1
16427.156,0.779,0.003,0.638,6.65,-2.93,-9.55,1,1
16427.171,0.726,-0.001,0.634,3.33,-0.67,-11.02,1,1
16427.187,0.69,-0.005,0.656,0.79,0.31,-11.02,1,1
16427.187,0.674,-0.002,0.65,0.49,-0.85,-10.62,1,1
16427.203,0.706,-0.014,0.631,0.24,-1.68,-7.78,1,1
16427.218,0.713,-0.012,0.639,-0.67,-0.46,-3.48,1,1
16427.218,0.741,-0.024,0.628,-3.97,-0.21,0.67,1,1
16427.234,0.752,-0.043,0.634,-9.74,1.07,2.84,1,1
16427.25,0.76,-0.061,0.641,-13.09,1.56,2.17,1,1
16427.25,0.761,-0.099,0.63,-13.28,2.35,-0.79,1,1
16427.265,0.792,-0.098,0.646,-11.6,4.43,-4.82,1,1
16427.265,0.785,-0.075,0.631,-7.02,6.62,-12.24,1,1
16427.281,0.764,-0.086,0.64,-4.46,8.79,-18.49,1,1
16427.296,0.757,-0.034,0.683,-2.84,9.83,-23.07,1,1
16427.296,0.707,-0.034,0.718,0.55,8.61,-26.25,1,1
16427.312,0.69,-0.009,0.721,4.0,5.92,-25.94,1,1
16427.328,0.702,0.025,0.671,6.78,1.89,-24.51,1,1
16427.328,0.721,0.041,0.648,3.81,0.4,-21.58,1,1
16427.343,0.748,0.051,0.633,0.21,0.89,-19.1,1,1
16427.359,0.757,0.054,0.618,-1.31,2.81,-17.7,1,1
16427.359,0.752,0.038,0.653,-2.59,6.38,-15.56,1,1
16427.375,0.751,0.064,0.701,-0.85,8.55,-12.21,1,1
16427.39,0.742,0.063,0.705,0.73,7.45,-7.63,1,1
16427.39,0.744,0.043,0.729,-1.89,5.52,-2.44,1,1
16427.406,0.763,0.047,0.734,-3.51,2.44,0.58,1,1
16427.406,0.737,0.023,0.732,-3.42,-0.79,-0.31,1,1
16427.421,0.718,-0.001,0.738,-1.71,-3.57,-1.25,1,1
16427.437,0.706,0.028,0.708,2.62,-6.99,-2.81,1,1
16427.437,0.722,-0.002,0.677,3.94,-9.37,-2.99,1,1
16427.453,0.743,0.024,0.641,2.87,-8.82,-2.53,1,1
16427.468,0.736,0.017,0.612,1.31,-6.62,-2.47,1,1
16427.468,0.735,0.012,0.62,-2.17,-2.87,-1.25,1,1
16427.484,0.741,0.047,0.64,-3.54,0.7,-0.55,1,1
16427.5,0.697,0.024,0.658,-2.23,3.69,-0.12,1,1
16427.5,0.715,0.042,0.688,-1.5,4.3,1.86,1,1
16427.515,0.725,0.055,0.691,-0.43,2.5,2.01,1,1
16427.531,0.721,0.017,0.706,-0.82,0.7,2.04,1,1
16427.531,0.733,0.037,0.722,1.28,-0.52,2.2,1,1
16427.546,0.711,0.062,0.716,5.62,-3.02,-0.15,1,1
16427.546,0.664,0.051,0.724,7.51,-5.8,-1.77,1,1
16427.562,0.673,0.083,0.728,8.91,-10.22,-1.01,1,1
16427.578,0.681,0.099,0.706,10.68,-14.5,1.68,1,1
16427.578,0.678,0.081,0.704,9.43,-16.94,7.23,1,1
16427.593,0.7,0.088,0.694,9.13,-18.56,13.82,1,1
16427.609,0.72,0.071,0.666,10.93,-19.62,18.37,1,1
16427.609,0.727,0.056,0.659,12.27,-18.98,21.82,1,1
16427.625,0.742,0.041,0.646,13.58,-18.13,23.62,1,1
16427.64,0.755,0.023,0.655,14.89,-17.09,24.57,1,1
16427.64,0.759,0.005,0.674,16.91,-16.27,24.84,1,1
16427.656,0.771,-0.004,0.687,17.73,-16.88,23.83,1,1
16427.656,0.779,-0.021,0.697,18.07,-18.46,21.49,1,1
16427.671,0.793,-0.037,0.696,19.32,-20.87,18.49,1,1
16427.687,0.809,-0.04,0.671,20.33,-22.92,14.5,1,1
16427.687,0.812,-0.04,0.655,19.56,-23.38,9.49,1,1
16427.703,0.805,-0.044,0.637,20.14,-22.16,3.78,1,1
16427.718,0.8,-0.028,0.61,21.97,-20.75,-1.04,1,1
16427.734,0.795,-0.013,0.589,22.19,-18.37,-4.39,1,1
16427.734,0.788,-0.007,0.579,19.29,-15.32,-5.83,1,1
16427.75,0.807,0.013,0.574,15.47,-12.36,-5.49,1,1
16427.75,0.801,0.032,0.56,12.02,-8.73,-4.94,1,1
16427.765,0.797,0.037,0.566,6.87,-5.74,-3.72,1,1
16427.781,0.801,0.033,0.57,1.43,-3.2,-1.98,1,1
16427.781,0.812,0.02,0.572,-1.83,-0.37,-1.13,1,1
16427.796,0.809,0.011,0.577,-2.66,2.29,-1.37,1,1
16427.796,0.801,0.007,0.587,-2.87,4.06,-2.47,1,1
16427.812,0.791,0.01,0.609,-3.78,3.42,-4.55,1,1
16427.828,0.775,0.011,0.628,-4.52,1.13,-4.15,1,1
16427.828,0.758,0.006,0.637,-5.37,-0.73,-2.9,1,1
16427.843,0.774,0.007,0.64,-5.16,-1.77,-3.88,1,1
16427.859,0.757,0.001,0.62,-5.04,-1.92,-5.19,1,1
16427.859,0.764,0.016,0.611,-4.91,-1.31,-6.16,1,1
16427.875,0.761,0.025,0.601,-4.64,-0.52,-7.75,1,1
16427.875,0.765,0.025,0.6,-4.88,1.16,-8.33,1,1
16427.89,0.782,0.05,0.612,-4.67,3.3,-8.15,1,1
16427.906,0.775,0.048,0.626,-4.36,4.67,-7.29,1,1
16427.906,0.777,0.051,0.633,-4.3,5.43,-5.04,1,1
16427.921,0.783,0.057,0.632,-3.97,5.62,-3.66,1,1
16427.937,0.783,0.041,0.633,-4.0,4.67,-3.97,1,1
16427.937,0.788,0.041,0.634,-3.02,3.33,-5.01,1,1
16427.953,0.792,0.047,0.626,-1.71,2.08,-5.8,1,1
16427.968,0.783,0.042,0.626,-2.29,1.98,-5.19,1,1
16427.968,0.776,0.054,0.636,-3.91,2.29,-3.6,1,1
16427.984,0.754,0.051,0.643,-3.97,2.14,-2.5,1,1
16428.0,0.736,0.047,0.653,-2.72,0.95,-1.22,1,1
16428.0,0.752,0.053,0.637,-1.92,-0.92,0.06,1,1
16428.015,0.778,0.049,0.606,-2.53,-2.17,0.09,1,1
16428.015,0.785,0.02,0.566,-4.67,-0.12,-0.31,1,1
16428.031,0.767,0.034,0.598,-4.97,2.72,-0.76,1,1
16428.046,0.753,0.035,0.62,-2.69,4.49,-0.4,1,1
16428.046,0.758,0.039,0.64,-3.63,5.16,0.34,1,1
16428.062,0.753,0.027,0.648,-2.75,4.94,1.04,1,1
16428.078,0.754,0.031,0.659,-2.84,3.3,1.37,1,1
16428.093,0.761,0.026,0.66,-3.08,0.67,0.12,1,1
16428.093,0.774,0.022,0.654,-1.59,-1.16,-1.07,1,1
16428.109,0.776,0.038,0.644,0.46,-1.43,-1.43,1,1
16428.109,0.775,0.046,0.638,-0.18,-1.56,-1.43,1,1
16428.125,0.767,0.043,0.636,-1.83,-1.56,-1.28,1,1
16428.14,0.764,0.038,0.629,-2.01,-1.1,-0.98,1,1
16428.14,0.763,0.043,0.622,-1.77,-0.15,-0.64,1,1
16428.156,0.758,0.046,0.617,-1.89,0.67,-0.24,1,1
16428.156,0.763,0.044,0.616,-2.53,1.1,0.82,1,1
16428.171,0.766,0.032,0.622,-3.94,2.14,2.62,1,1
16428.187,0.778,0.033,0.635,-5.19,3.63,4.06,1,1
16428.187,0.77,0.03,0.646,-4.67,4.58,3.3,1,1
16428.203,0.755,0.011,0.662,-3.2,4.46,1.37,1,1
16428.218,0.754,0.021,0.661,-0.12,3.78,-0.49,1,1
16428.218,0.753,0.038,0.644,2.35,2.32,-3.33,1,1
16428.234,0.743,0.025,0.63,2.41,2.17,-4.97,1,1
16428.25,0.744,0.039,0.626,2.01,3.63,-4.64,1,1
16428.25,0.733,0.051,0.617,1.5,5.95,-3.78,1,1
16428.265,0.719,0.049,0.631,-0.43,7.63,-1.31,1,1
16428.265,0.732,0.052,0.667,-3.3,6.62,1.22,1,1
16428.281,0.758,0.034,0.687,-5.43,4.12,3.17,1,1
16428.296,0.784,0.02,0.691,-5.19,1.86,3.66,1,1
16428.312,0.799,0.022,0.682,-3.11,0.21,2.47,1,1
16428.312,0.798,0.02,0.67,-1.37,-0.64,-0.21,1,1
16428.328,0.78,0.044,0.683,-0.89,-1.25,-2.62,1,1
16428.328,0.778,0.029,0.667,1.89,-2.32,-2.62,1,1
16428.343,0.765,0.052,0.652,3.3,-2.35,-1.65,1,1
16428.359,0.76,0.052,0.641,2.26,-2.17,-0.06,1,1
16428.359,0.755,0.043,0.627,0.82,-1.68,2.04,1,1
16428.375,0.754,0.044,0.631,-1.34,-0.79,4.09,1,1
16428.39,0.762,0.031,0.632,-3.3,0.15,5.68,1,1
16428.39,0.774,0.026,0.644,-4.58,0.98,6.59,1,1
16428.406,0.781,0.012,0.666,-5.1,1.37,6.38,1,1
16428.406,0.781,0.005,0.681,-3.91,0.89,5.04,1,1
16428.421,0.782,0.005,0.678,-1.31,-0.18,2.44,1,1
16428.437,0.778,0.011,0.679,1.28,-1.4,-0.46,1,1
16428.437,0.767,0.025,0.671,3.23,-2.93,-2.41,1,1
16428.453,0.761,0.038,0.659,3.66,-4.03,-3.02,1,1
16428.468,0.757,0.041,0.64,3.42,-4.61,-3.02,1,1
16428.468,0.756,0.04,0.625,3.3,-4.27,-3.05,1,1
16428.484,0.755,0.043,0.609,3.42,-2.81,-3.05,1,1
16428.5,0.748,0.054,0.608,1.71,-1.04,-2.5,1,1
16428.5,0.749,0.053,0.619,-0.98,-0.18,-1.83,1,1
16428.515,0.753,0.043,0.629,-2.11,0.4,-1.01,1,1
16428.531,0.762,0.043,0.626,-1.43,0.98,-0.82,1,1
16428.531,0.772,0.042,0.631,-0.24,1.13,-1.34,1,1
16428.546,0.754,0.033,0.645,-0.18,1.95,-1.16,1,1
16428.546,0.751,0.04,0.671,-1.98,0.89,0.09,1,1
16428.562,0.76,0.032,0.672,-3.11,-1.65,0.52,1,1
16428.578,0.758,0.015,0.666,-2.29,-2.96,0.82,1,1
16428.578,0.762,0.019,0.652,-0.4,-3.17,0.73,1,1
16428.593,0.766,0.027,0.64,-0.15,-2.96,0.0,1,1
16428.609,0.76,0.014,0.638,-1.5,-1.92,-0.64,1,1
16428.609,0.763,0.012,0.641,-1.16,-0.82,-0.09,1,1
16428.625,0.766,0.019,0.639,-0.31,0.34,0.15,1,1
16428.64,0.766,0.014,0.642,-0.82,0.92,0.27,1,1
16428.64,0.766,0.011,0.651,-1.98,1.04,0.82,1,1
16428.656,0.772,0.009,0.653,-2.93,0.31,0.89,1,1
16428.656,0.768,-0.002,0.653,-2.96,-0.27,0.18,1,1
16428.671,0.77,-0.0,0.657,-2.04,-0.76,-0.98,1,1
16428.687,0.767,0.01,0.661,-1.62,-1.34,-2.47,1,1
16428.687,0.761,0.011,0.658,-0.49,-2.14,-4.21,1,1
16428.703,0.757,0.026,0.649,1.01,-2.81,-5.04,1,1
16428.718,0.767,0.035,0.637,0.89,-3.36,-5.4,1,1
16428.718,0.773,0.028,0.626,-0.03,-2.66,-4.97,1,1
16428.734,0.766,0.031,0.621,-0.76,-0.64,-4.18,1,1
16428.75,0.762,0.032,0.624,-1.89,1.53,-3.33,1,1
16428.75,0.758,0.03,0.632,-3.66,2.75,-2.38,1,1
16428.765,0.762,0.026,0.64,-4.94,3.3,-1.4,1,1
16428.765,0.774,0.026,0.653,-5.52,3.17,-0.58,1,1
16428.781,0.786,0.024,0.66,-6.16,2.75,-0.55,1,1
16428.796,0.783,0.02,0.669,-6.04,2.44,-1.1,1,1
16428.796,0.769,0.026,0.684,-1.8,0.21,-1.16,1,1
