timestamp,ax,ay,az,gx,gy,gz,orient_label,motion_label
16428.812,0.764,0.039,0.677,-2.01,-1.74,-0.89,1,1
16428.828,0.766,0.043,0.665,-2.66,-2.96,-0.85,1,1
16428.843,0.779,0.03,0.65,-2.08,-2.81,-0.52,1,1
16428.843,0.77,0.035,0.652,-1.43,-1.83,-0.12,1,1
16428.859,0.764,0.033,0.657,-2.2,-1.92,0.34,1,1
16428.859,0.769,0.025,0.657,-3.02,-2.99,0.61,1,1
16428.875,0.778,0.022,0.657,-2.72,-3.39,0.61,1,1
16428.89,0.781,0.021,0.655,-1.74,-3.36,0.4,1,1
16428.89,0.775,0.02,0.654,-1.34,-3.6,-0.24,1,1
16428.906,0.773,0.018,0.654,-0.79,-3.78,-1.31,1,1
16428.906,0.766,0.022,0.657,-0.06,-3.97,-1.92,1,1
16428.921,0.765,0.025,0.662,0.03,-4.73,-2.35,1,1
16428.937,0.77,0.025,0.655,-0.09,-5.65,-2.53,1,1
16428.937,0.767,0.03,0.646,0.06,-6.04,-2.75,1,1
16428.953,0.765,0.028,0.631,0.24,-6.16,-3.33,1,1
16428.968,0.765,0.03,0.619,0.55,-5.58,-4.21,1,1
16428.968,0.762,0.04,0.616,0.92,-4.33,-4.61,1,1
16428.984,0.759,0.046,0.633,-1.16,-2.66,-2.84,1,1
16429.0,0.761,0.044,0.638,-1.16,-2.29,-1.86,1,1
16429.015,0.758,0.044,0.642,-1.07,-2.47,-1.07,1,1
16429.015,0.766,0.038,0.642,-1.28,-2.99,-0.64,1,1
16429.031,0.769,0.034,0.636,-0.82,-3.08,-0.64,1,1
16429.046,0.765,0.034,0.628,-0.34,-2.32,-0.82,1,1
16429.062,0.755,0.039,0.627,-0.61,-1.92,-1.13,1,1
16429.062,0.748,0.037,0.636,-1.07,-2.17,-1.37,1,1
16429.078,0.74,0.034,0.636,-0.37,-1.89,-0.37,1,1
16429.078,0.736,0.039,0.631,0.37,-1.95,0.79,1,1
16429.093,0.726,0.028,0.647,-0.49,-2.44,2.29,1,1
16429.109,0.739,0.025,0.644,-1.43,-3.85,4.03,1,1
16429.109,0.759,0.022,0.624,-1.95,-4.7,4.61,1,1
16429.125,0.76,0.005,0.626,-2.41,-3.94,4.33,1,1
16429.14,0.761,0.01,0.633,-1.46,-2.81,4.12,1,1
16429.14,0.764,0.02,0.635,-0.06,-2.23,3.17,1,1
16429.156,0.76,0.021,0.666,2.35,-2.2,0.95,1,1
16429.171,0.761,0.03,0.68,4.73,-3.48,0.55,1,1
16429.187,0.765,0.036,0.686,7.02,-5.25,1.07,1,1
16429.187,0.772,0.043,0.693,8.33,-7.26,2.32,1,1
16429.203,0.773,0.048,0.694,8.79,-9.4,4.09,1,1
16429.218,0.78,0.046,0.696,9.49,-11.35,5.71,1,1
16429.218,0.786,0.051,0.704,11.2,-12.48,7.11,1,1
16429.234,0.792,0.053,0.712,13.67,-13.79,7.72,1,1
16429.25,0.798,0.054,0.735,17.7,-15.72,7.08,1,1
16429.25,0.787,0.061,0.768,23.83,-17.82,5.86,1,1
16429.265,0.769,0.073,0.801,31.53,-21.24,4.33,1,1
16429.265,0.756,0.089,0.817,39.31,-26.52,4.0,1,1
16429.281,0.756,0.107,0.814,44.98,-33.05,6.26,1,1
16429.296,0.767,0.122,0.792,47.43,-39.8,11.05,1,1
16429.312,0.767,0.122,0.772,47.0,-45.2,16.85,1,1
16429.312,0.766,0.104,0.762,47.46,-49.07,22.16,1,1
16429.328,0.726,0.099,0.757,59.57,-51.7,28.38,1,1
16429.343,0.696,0.102,0.75,67.51,-53.29,28.41,1,1
16429.359,0.66,0.111,0.765,74.01,-54.51,28.47,1,1
16429.359,0.639,0.127,0.785,80.32,-56.49,28.78,1,1
16429.375,0.639,0.137,0.775,85.82,-58.2,28.2,1,1
16429.39,0.663,0.13,0.737,91.01,-57.22,27.31,1,1
16429.39,0.675,0.142,0.715,95.98,-50.57,26.25,1,1
16429.406,0.67,0.155,0.705,103.03,-38.79,25.45,1,1
16429.421,0.641,0.146,0.697,111.27,-23.26,24.11,1,1
16429.421,0.606,0.118,0.688,119.85,-3.45,20.84,1,1
16429.437,0.572,0.15,0.676,129.03,16.36,14.47,1,1
16429.437,0.482,0.189,0.674,136.33,34.42,6.74,1,1
16429.453,0.378,0.221,0.672,134.28,42.15,0.61,1,1
16429.468,0.334,0.269,0.753,124.09,39.58,-1.59,1,1
16429.468,0.251,0.26,0.866,114.84,30.55,-1.31,1,1
16429.484,0.269,0.212,0.887,106.78,17.49,3.33,1,1
16429.515,0.404,0.115,0.782,93.39,-3.81,15.38,1,1
16429.515,0.501,0.093,0.711,93.97,-7.81,16.48,1,1
16429.515,0.56,0.067,0.611,96.93,-8.36,14.37,1,1
16429.531,0.613,0.032,0.534,97.6,-4.64,10.62,1,1
16429.546,0.664,0.018,0.481,97.63,3.57,7.05,1,1
16429.562,0.712,0.024,0.427,98.09,14.71,3.27,1,1
16429.562,0.744,0.036,0.386,95.95,29.21,-1.19,1,1
16429.578,0.759,0.034,0.344,91.28,43.31,-6.53,1,1
16429.578,0.76,0.048,0.311,83.77,51.33,-11.29,1,1
16429.593,0.749,0.067,0.289,75.05,55.42,-14.4,1,1
16429.609,0.761,0.065,0.282,66.19,59.66,-16.24,1,1
16429.609,0.779,0.053,0.301,55.67,65.25,-17.94,1,1
16429.625,0.809,0.057,0.313,43.55,71.57,-19.81,1,1
16429.64,0.83,0.04,0.332,34.24,80.54,-22.28,1,1
16429.64,0.86,0.01,0.323,29.73,89.97,-26.61,1,1
16429.656,0.876,-0.009,0.287,29.73,96.65,-32.75,1,1
16429.671,0.902,0.026,0.257,39.46,107.3,-46.27,1,1
16429.687,0.901,0.049,0.269,44.74,112.16,-54.69,1,1
16429.687,0.905,0.105,0.317,43.06,116.67,-64.27,1,1
16429.703,0.904,0.13,0.386,37.81,120.61,-73.61,1,1
16429.718,0.919,0.149,0.467,33.2,125.77,-78.86,1,1
16429.718,0.918,0.225,0.557,28.93,130.8,-82.77,1,1
16429.734,0.876,0.254,0.606,28.32,127.99,-84.87,1,1
16429.75,0.82,0.255,0.633,31.31,115.85,-81.39,1,1
16429.75,0.793,0.302,0.664,33.14,98.7,-74.92,1,1
16429.765,0.788,0.352,0.689,31.86,79.99,-69.37,1,1
16429.765,0.785,0.379,0.708,27.13,62.87,-64.67,1,1
16429.781,0.795,0.397,0.72,9.55,37.11,-61.01,1,1
16429.796,0.808,0.401,0.73,-1.07,26.4,-62.93,1,1
16429.796,0.841,0.423,0.732,-9.64,16.3,-67.02,1,1
16429.812,0.847,0.45,0.722,-12.73,8.18,-69.22,1,1
16429.828,0.83,0.434,0.703,-11.44,4.12,-68.18,1,1
16429.843,0.813,0.444,0.704,-6.41,4.61,-66.41,1,1
16429.843,0.801,0.436,0.71,1.71,8.15,-65.68,1,1
16429.859,0.789,0.412,0.717,11.05,13.67,-65.19,1,1
16429.859,0.788,0.408,0.724,19.9,18.37,-64.61,1,1
16429.875,0.789,0.438,0.715,28.41,20.29,-65.68,1,1
16429.89,0.779,0.465,0.691,31.65,19.62,-68.12,1,1
16429.89,0.737,0.474,0.676,25.82,16.42,-69.22,1,1
16429.906,0.72,0.487,0.673,15.05,10.35,-67.78,1,1
16429.921,0.68,0.495,0.667,5.04,5.01,-65.25,1,1
16429.921,0.653,0.494,0.681,-4.09,1.34,-61.77,1,1
16429.937,0.626,0.515,0.688,-8.51,0.95,-59.54,1,1
16429.937,0.586,0.555,0.721,-7.51,1.22,-59.36,1,1
16429.953,0.535,0.588,0.767,0.27,-2.04,-59.18,1,1
16429.968,0.502,0.642,0.789,13.03,-9.49,-56.95,1,1
16429.984,0.499,0.706,0.781,26.06,-19.2,-51.82,1,1
16429.984,0.507,0.739,0.744,34.82,-28.26,-45.69,1,1
16430.0,0.523,0.738,0.692,35.37,-34.46,-39.7,1,1
16430.0,0.555,0.735,0.639,27.44,-35.28,-35.43,1,1
16430.015,0.586,0.738,0.61,13.64,-30.49,-34.67,1,1
16430.031,0.6,0.729,0.595,-1.1,-21.88,-36.23,1,1
16430.031,0.598,0.725,0.594,-14.04,-9.09,-38.36,1,1
16430.046,0.579,0.735,0.616,-25.09,5.74,-41.32,1,1
16430.062,0.543,0.704,0.64,-31.4,19.81,-43.76,1,1
16430.062,0.496,0.666,0.669,-33.78,31.37,-44.01,1,1
16430.078,0.453,0.649,0.711,-31.74,39.09,-41.81,1,1
16430.078,0.42,0.613,0.747,-24.99,42.09,-38.15,1,1
16430.093,0.402,0.592,0.764,-15.93,41.69,-35.74,1,1
16430.109,0.381,0.592,0.765,-7.14,40.38,-35.8,1,1
16430.109,0.381,0.586,0.745,0.52,39.0,-36.84,1,1
16430.125,0.375,0.586,0.725,7.75,39.25,-38.03,1,1
16430.14,0.365,0.59,0.703,14.01,41.05,-38.7,1,1
16430.156,0.363,0.6,0.677,17.21,44.77,-38.61,1,1
16430.156,0.356,0.609,0.655,15.05,49.81,-39.03,1,1
16430.156,0.337,0.616,0.647,8.18,56.22,-41.11,1,1
16430.171,0.301,0.615,0.655,-0.98,62.23,-43.09,1,1
16430.187,0.26,0.602,0.67,-9.4,65.8,-42.94,1,1
16430.203,0.238,0.585,0.688,-15.02,66.23,-41.47,1,1
16430.203,0.216,0.573,0.713,-17.91,64.64,-39.77,1,1
16430.218,0.202,0.574,0.726,-18.52,61.95,-38.24,1,1
16430.234,0.165,0.603,0.751,-15.75,59.79,-36.84,1,1
16430.234,0.13,0.618,0.777,-11.17,56.98,-32.78,1,1
16430.25,0.096,0.626,0.799,-6.47,51.94,-26.8,1,1
16430.25,0.082,0.637,0.821,-0.92,44.98,-20.02,1,1
16430.265,0.082,0.643,0.815,2.81,36.16,-14.65,1,1
16430.281,0.095,0.638,0.807,3.39,26.58,-11.05,1,1
16430.281,0.103,0.621,0.798,1.92,17.3,-9.13,1,1
16430.296,0.118,0.612,0.787,-1.13,9.98,-9.0,1,1
16430.296,0.134,0.597,0.779,-4.73,4.64,-9.8,1,1
16430.312,0.154,0.578,0.769,-8.21,1.43,-10.99,1,1
16430.328,0.177,0.566,0.762,-10.77,0.24,-13.21,1,1
16430.343,0.202,0.564,0.757,-11.35,0.64,-15.96,1,1
16430.343,0.19,0.565,0.759,-9.55,3.57,-18.89,1,1
16430.359,0.2,0.575,0.763,-6.53,6.13,-19.32,1,1
16430.359,0.186,0.611,0.772,-2.17,8.7,-18.83,1,1
16430.375,0.177,0.634,0.778,2.87,10.71,-16.97,1,1
16430.39,0.172,0.644,0.784,7.05,11.96,-14.44,1,1
16430.39,0.169,0.664,0.788,9.31,11.93,-12.02,1,1
16430.406,0.178,0.679,0.787,8.91,10.59,-10.25,1,1
16430.406,0.173,0.695,0.805,5.01,8.15,-9.16,1,1
16430.421,0.164,0.716,0.835,-2.66,2.75,-6.84,1,1
16430.437,0.188,0.693,0.831,-8.73,-3.51,-3.66,1,1
16430.453,0.201,0.651,0.808,-10.77,-7.02,-2.41,1,1
16430.453,0.215,0.613,0.782,-9.13,-7.08,-2.53,1,1
16430.468,0.216,0.587,0.764,-6.23,-4.94,-3.81,1,1
16430.468,0.217,0.565,0.755,-3.51,-2.17,-5.43,1,1
16430.484,0.198,0.566,0.759,-3.08,0.06,-7.9,1,1
16430.5,0.182,0.593,0.756,-5.07,0.92,-10.25,1,1
16430.5,0.177,0.594,0.753,-7.93,1.34,-11.57,1,1
16430.515,0.145,0.609,0.752,-15.26,1.31,-12.45,1,1
16430.515,0.145,0.649,0.73,-24.84,1.16,-13.0,1,1
16430.531,0.188,0.643,0.657,-28.63,5.77,-12.45,1,1
16430.546,0.143,0.537,0.692,-30.24,16.79,-17.82,1,1
16430.562,0.016,0.73,0.85,-44.5,15.66,-18.13,1,1
16430.562,0.063,0.716,0.893,-43.61,6.16,-8.91,1,1
16430.578,0.04,0.615,0.859,-33.91,-2.62,1.16,1,1
16430.578,0.097,0.568,0.826,-25.48,-10.44,8.79,1,1
16430.593,0.121,0.547,0.807,-13.82,-13.61,10.19,1,1
16430.609,0.103,0.561,0.812,-1.5,-14.95,10.32,1,1
16430.609,0.098,0.555,0.791,10.9,-18.86,12.33,1,1
16430.625,0.093,0.539,0.778,19.99,-25.91,14.92,1,1
16430.64,0.124,0.579,0.776,23.77,-33.85,16.51,1,1
16430.64,0.113,0.673,0.792,20.72,-41.6,17.91,1,1
16430.656,0.201,0.633,0.766,9.61,-47.82,19.75,1,1
16430.656,0.16,0.558,0.816,-5.4,-48.89,15.44,1,1
16430.671,0.156,0.652,0.853,-16.97,-50.6,18.01,1,1
16430.687,0.224,0.612,0.843,-19.04,-51.55,21.18,1,1
16430.687,0.221,0.541,0.833,-21.42,-51.27,19.75,1,1
16430.703,0.235,0.52,0.83,-20.33,-50.66,19.17,1,1
16430.718,0.27,0.501,0.812,-12.57,-49.38,17.98,1,1
16430.734,0.281,0.47,0.783,-2.44,-45.99,15.35,1,1
16430.734,0.294,0.46,0.756,7.54,-41.02,12.36,1,1
16430.75,0.309,0.464,0.73,17.55,-34.42,8.88,1,1
16430.75,0.317,0.478,0.704,26.0,-26.43,5.28,1,1
16430.765,0.318,0.493,0.68,30.46,-17.61,2.14,1,1
16430.781,0.317,0.518,0.67,26.83,-1.59,-2.41,1,1
16430.781,0.31,0.549,0.671,19.68,3.75,-2.99,1,1
16430.796,0.293,0.585,0.685,9.0,5.62,-1.83,1,1
16430.796,0.278,0.621,0.732,-2.75,4.36,0.09,1,1
16430.812,0.281,0.616,0.763,-12.82,1.4,1.46,1,1
16430.828,0.292,0.606,0.786,-18.95,-1.5,1.74,1,1
16430.828,0.298,0.598,0.792,-20.75,-3.27,1.4,1,1
16430.843,0.299,0.588,0.782,-20.17,-3.54,1.07,1,1
16430.859,0.294,0.567,0.774,-18.31,-2.32,1.43,1,1
16430.859,0.296,0.547,0.768,-15.9,-0.03,1.83,1,1
16430.875,0.295,0.528,0.756,-12.79,2.56,1.8,1,1
16430.89,0.293,0.517,0.748,-10.07,5.46,1.4,1,1
16430.89,0.289,0.516,0.746,-7.75,8.27,0.64,1,1
16430.906,0.284,0.521,0.746,-5.95,10.8,-0.09,1,1
16430.906,0.277,0.529,0.751,-5.1,12.94,-0.95,1,1
16430.921,0.269,0.542,0.76,-4.94,14.95,-1.56,1,1
16430.937,0.261,0.553,0.773,-5.16,16.3,-1.8,1,1
16430.937,0.252,0.565,0.78,-6.16,16.6,-2.29,1,1
16430.953,0.244,0.563,0.785,-7.9,16.39,-2.41,1,1
16430.968,0.249,0.561,0.783,-10.13,15.5,-2.47,1,1
16430.968,0.255,0.562,0.772,-10.71,15.26,-2.53,1,1
16430.984,0.265,0.55,0.75,-9.98,17.58,-2.23,1,1
16431.0,0.262,0.523,0.735,-11.66,20.97,-3.72,1,1
16431.0,0.287,0.516,0.716,-14.28,26.06,-5.46,1,1
16431.015,0.296,0.5,0.675,-13.25,35.52,-8.06,1,1
16431.031,0.286,0.481,0.66,-12.3,47.58,-11.66,1,1
16431.031,0.203,0.522,0.761,-17.37,56.28,-15.69,1,1
16431.046,0.135,0.664,0.943,-35.8,48.16,-15.96,1,1
16431.062,0.223,0.552,0.923,-34.09,36.23,-12.48,1,1
16431.062,0.029,0.577,1.0,-33.81,22.31,-13.95,1,1
16431.078,0.124,0.69,1.025,-36.9,0.76,-6.13,1,1
16431.078,0.162,0.544,0.896,-15.5,-8.64,1.1,1,1
16431.093,0.155,0.508,0.818,-8.64,-11.26,4.91,1,1
16431.109,0.206,0.481,0.814,-7.39,-10.22,8.0,1,1
16431.109,0.181,0.464,0.822,-3.14,-8.51,8.39,1,1
16431.125,0.193,0.466,0.842,-1.25,-9.09,9.77,1,1
16431.125,0.205,0.494,0.857,0.31,-11.41,8.67,1,1
16431.14,0.194,0.508,0.873,2.14,-14.77,6.65,1,1
16431.156,0.166,0.527,0.921,2.81,-20.29,5.68,1,1
16431.171,0.196,0.583,0.914,1.77,-28.23,6.59,1,1
16431.171,0.252,0.461,0.799,9.7,-31.13,7.72,1,1
16431.187,0.186,0.482,0.819,4.33,-29.91,4.91,1,1
16431.187,0.238,0.52,0.877,-3.97,-33.36,3.85,1,1
16431.203,0.222,0.495,0.812,6.47,-34.12,6.01,1,1
16431.218,0.258,0.488,0.779,8.61,-32.78,7.72,1,1
16431.234,0.277,0.507,0.782,7.05,-29.3,7.35,1,1
16431.234,0.289,0.502,0.771,10.07,-24.96,6.71,1,1
16431.25,0.286,0.501,0.765,12.18,-20.45,5.92,1,1
16431.25,0.279,0.505,0.756,13.09,-16.45,6.74,1,1
16431.265,0.303,0.53,0.749,13.67,-12.67,7.97,1,1
16431.265,0.295,0.532,0.75,12.45,-8.88,6.87,1,1
16431.281,0.293,0.526,0.758,10.1,-6.41,5.31,1,1
16431.296,0.291,0.552,0.767,7.93,-4.52,4.06,1,1
16431.296,0.278,0.555,0.765,5.49,-3.66,2.11,1,1
16431.312,0.269,0.546,0.773,1.43,-3.48,1.16,1,1
16431.328,0.271,0.542,0.773,-2.08,-3.48,1.1,1,1
16431.343,0.275,0.53,0.773,-3.39,-2.93,1.1,1,1
16431.343,0.276,0.523,0.776,-4.03,-1.28,1.22,1,1
16431.359,0.276,0.518,0.778,-4.09,0.43,1.1,1,1
16431.359,0.276,0.516,0.785,-4.0,1.77,0.76,1,1
16431.375,0.273,0.515,0.791,-4.03,2.56,-0.12,1,1
16431.39,0.273,0.515,0.795,-4.0,2.78,-1.04,1,1
16431.39,0.271,0.522,0.796,-3.88,2.78,-1.68,1,1
16431.406,0.267,0.526,0.793,-3.97,2.66,-2.08,1,1
16431.421,0.272,0.533,0.788,-4.67,2.5,-2.23,1,1
16431.421,0.278,0.531,0.774,-6.07,2.81,-2.47,1,1
16431.437,0.283,0.525,0.759,-9.0,3.85,-3.33,1,1
16431.437,0.296,0.522,0.746,-11.44,6.74,-3.88,1,1
16431.453,0.305,0.511,0.731,-12.73,11.66,-4.64,1,1
16431.468,0.312,0.493,0.728,-14.28,17.79,-5.89,1,1
16431.484,0.318,0.472,0.702,-15.23,25.42,-8.03,1,1
16431.484,0.315,0.463,0.707,-17.3,34.61,-11.14,1,1
16431.5,0.315,0.449,0.714,-17.61,44.74,-16.45,1,1
16431.5,0.217,0.495,0.825,-22.92,50.39,-23.01,1,1
16431.515,0.17,0.635,0.954,-40.86,40.1,-25.12,1,1
16431.515,0.186,0.471,0.966,-33.63,30.73,-23.74,1,1
16431.531,0.0,0.632,1.045,-33.14,14.95,-21.12,1,1
16431.546,0.148,0.598,0.992,-24.41,-2.72,-9.03,1,1
16431.546,0.138,0.462,0.864,-9.49,-9.49,-3.66,1,1
16431.562,0.177,0.446,0.816,-6.26,-10.5,-0.27,1,1
16431.578,0.191,0.443,0.812,-2.99,-7.29,2.41,1,1
16431.578,0.181,0.444,0.838,-0.7,-4.73,4.55,1,1
16431.593,0.199,0.473,0.875,1.86,-3.97,6.2,1,1
16431.609,0.192,0.499,0.905,6.38,-6.07,6.1,1,1
16431.609,0.184,0.506,0.92,10.86,-11.05,6.2,1,1
16431.625,0.187,0.524,0.929,12.39,-18.13,6.71,1,1
16431.625,0.175,0.512,0.93,12.39,-26.25,6.9,1,1
16431.64,0.196,0.56,0.877,11.29,-33.97,8.27,1,1
16431.656,0.261,0.432,0.766,14.86,-35.74,9.67,1,1
16431.656,0.211,0.453,0.781,4.52,-34.06,4.7,1,1
16431.671,0.254,0.492,0.822,-2.23,-34.06,3.02,1,1
16431.687,0.247,0.502,0.795,4.52,-31.71,6.01,1,1
16431.687,0.281,0.5,0.788,3.72,-29.05,7.93,1,1
16431.703,0.284,0.52,0.798,2.08,-25.76,8.03,1,1
16431.718,0.285,0.504,0.795,5.52,-22.52,9.31,1,1
16431.718,0.3,0.494,0.788,7.45,-20.02,10.96,1,1
16431.734,0.312,0.501,0.769,8.42,-16.75,11.69,1,1
16431.75,0.318,0.493,0.752,8.61,-12.48,10.99,1,1
16431.75,0.316,0.485,0.744,5.4,-3.2,7.23,1,1
16431.765,0.315,0.488,0.747,3.17,0.58,4.82,1,1
16431.765,0.309,0.497,0.759,0.67,3.2,2.75,1,1
16431.781,0.303,0.508,0.773,-1.83,4.52,1.28,1,1
16431.796,0.273,0.532,0.819,-2.99,4.55,1.07,1,1
16431.796,0.255,0.534,0.838,-2.72,2.96,2.62,1,1
16431.812,0.254,0.535,0.852,-2.2,0.18,4.64,1,1
16431.828,0.248,0.516,0.847,-2.35,-3.36,6.23,1,1
16431.828,0.271,0.502,0.828,-2.69,-6.44,6.87,1,1
16431.843,0.261,0.487,0.811,-3.36,-7.72,5.98,1,1
16431.859,0.274,0.467,0.809,-4.18,-8.55,6.2,1,1
16431.859,0.287,0.481,0.809,-4.03,-8.33,6.01,1,1
16431.89,0.288,0.482,0.801,-3.17,-6.41,4.36,1,1
16431.89,0.294,0.484,0.803,-3.33,-5.77,3.75,1,1
16431.906,0.296,0.484,0.806,-2.62,-4.82,3.57,1,1
16431.906,0.302,0.481,0.803,-1.31,-3.69,3.45,1,1
16431.921,0.303,0.485,0.804,-0.12,-2.32,2.87,1,1
16431.937,0.293,0.491,0.81,0.46,-1.43,2.11,1,1
16431.953,0.294,0.492,0.812,0.89,-1.22,2.04,1,1
16431.953,0.301,0.495,0.806,1.07,-1.31,1.89,1,1
16431.968,0.304,0.493,0.797,0.37,-1.16,0.95,1,1
16431.968,0.299,0.489,0.792,-0.46,-0.34,0.18,1,1
16431.984,0.292,0.495,0.803,-1.74,0.52,-0.21,1,1
16432.0,0.287,0.505,0.813,-2.78,0.46,-0.15,1,1
16432.0,0.282,0.507,0.822,-2.84,0.0,0.18,1,1
16432.015,0.282,0.504,0.826,-2.72,-1.07,0.89,1,1
16432.031,0.281,0.502,0.834,-2.08,-2.11,1.4,1,1
16432.031,0.267,0.497,0.847,-0.27,-3.27,2.56,1,1
16432.046,0.261,0.5,0.865,4.36,-8.09,6.2,1,1
16432.062,0.241,0.503,0.88,6.74,-11.08,7.6,1,1
16432.078,0.214,0.514,0.905,9.83,-14.86,10.71,1,1
16432.093,0.194,0.531,0.921,14.37,-20.05,15.75,1,1
16432.093,0.172,0.559,0.948,18.52,-26.46,21.94,1,1
16432.109,0.145,0.58,0.977,22.89,-34.52,29.97,1,1
16432.109,0.12,0.604,1.015,28.57,-44.37,40.59,1,1
16432.125,0.094,0.662,1.072,36.44,-55.06,52.22,1,1
16432.14,0.049,0.692,1.104,48.65,-64.12,62.5,1,1
16432.14,-0.006,0.704,1.086,63.81,-71.2,68.91,1,1
16432.156,-0.056,0.752,1.036,81.61,-72.15,59.08,1,1
16432.171,0.032,0.923,1.054,90.49,-71.08,46.11,1,1
16432.171,0.017,1.097,1.093,76.14,-67.26,40.1,1,1
16432.187,-0.01,1.122,1.113,51.45,-66.29,40.89,1,1
16432.187,-0.004,1.071,1.121,28.84,-70.01,52.83,1,1
16432.203,0.037,1.006,1.129,13.61,-79.35,68.58,1,1
16432.218,0.24,0.79,1.077,-4.73,-107.55,88.23,1,1
16432.234,0.294,0.704,1.038,-8.15,-115.91,86.64,1,1
16432.25,0.36,0.649,1.009,-8.73,-120.64,82.64,1,1
16432.25,0.394,0.611,0.953,-8.82,-124.36,76.05,1,1
16432.265,0.421,0.613,0.905,-13.15,-125.8,68.73,1,1
16432.281,0.433,0.62,0.882,-18.49,-125.95,60.06,1,1
16432.281,0.482,0.693,0.9,-24.05,-121.4,51.12,1,1
16432.296,0.494,0.814,0.954,-30.24,-111.06,40.19,1,1
16432.296,0.462,0.829,0.961,-32.2,-101.69,31.5,1,1
16432.312,0.436,0.82,0.925,-31.37,-93.02,31.86,1,1
16432.328,0.431,0.84,0.907,-30.64,-86.15,37.6,1,1
16432.328,0.431,0.782,0.879,-27.86,-85.02,43.52,1,1
16432.343,0.431,0.666,0.794,-23.68,-89.85,51.61,1,1
16432.359,0.459,0.573,0.684,-21.24,-96.62,61.31,1,1
16432.359,0.5,0.478,0.553,-23.1,-106.81,69.64,1,1
16432.375,0.561,0.404,0.464,-28.87,-114.96,75.53,1,1
16432.39,0.58,0.314,0.404,-33.6,-123.11,79.04,1,1
16432.39,0.571,0.226,0.358,-30.67,-134.1,82.64,1,1
16432.406,0.548,0.119,0.321,-19.38,-149.94,89.69,1,1
16432.406,0.568,0.069,0.305,-2.2,-168.0,101.41,1,1
16432.421,0.605,0.022,0.251,19.47,-183.26,114.54,1,1
16432.437,0.658,-0.037,0.2,38.36,-193.73,127.14,1,1
16432.437,0.688,-0.088,0.139,51.52,-200.42,138.16,1,1
16432.453,0.733,-0.137,-0.006,55.67,-205.39,143.41,1,1
16432.468,0.798,-0.136,-0.144,48.8,-204.54,141.42,1,1
16432.468,0.884,-0.108,-0.224,31.46,-196.75,136.85,1,1
16432.484,0.936,-0.16,-0.25,12.15,-180.76,130.99,1,1
16432.5,0.934,-0.234,-0.257,-5.55,-161.63,125.68,1,1
16432.5,0.93,-0.273,-0.224,-19.32,-142.95,120.94,1,1
16432.515,0.893,-0.322,-0.145,-27.04,-128.3,116.15,1,1
16432.531,0.85,-0.344,-0.091,-29.57,-121.71,108.55,1,1
16432.531,0.863,-0.408,-0.055,-28.84,-119.97,102.73,1,1
16432.562,0.973,-0.282,-0.179,-37.9,-117.19,76.27,1,1
16432.562,1.053,-0.263,-0.199,-51.0,-108.58,59.57,1,1
16432.578,1.081,-0.244,-0.17,-60.67,-92.53,45.72,1,1
16432.593,1.076,-0.185,-0.122,-65.19,-72.82,37.2,1,1
16432.593,1.01,-0.13,-0.093,-67.32,-56.55,31.4,1,1
16432.609,0.959,-0.098,-0.063,-71.99,-47.61,27.19,1,1
16432.609,0.94,-0.069,-0.03,-74.74,-43.79,24.63,1,1
16432.625,0.923,-0.027,-0.035,-73.85,-42.3,22.64,1,1
16432.64,0.914,-0.005,-0.049,-71.6,-42.36,20.66,1,1
16432.64,0.933,0.027,-0.051,-69.52,-43.03,19.47,1,1
16432.656,0.952,0.044,-0.09,-67.29,-43.12,17.7,1,1
16432.671,0.973,0.05,-0.124,-66.1,-40.16,14.31,1,1
16432.671,0.978,0.048,-0.167,-62.17,-33.85,11.26,1,1
16432.687,0.981,0.039,-0.231,-56.25,-25.3,9.0,1,1
16432.687,0.974,0.048,-0.263,-52.61,-14.28,8.21,1,1
16432.703,0.953,0.052,-0.268,-50.81,-2.08,9.0,1,1
16432.718,0.881,0.069,-0.189,-54.17,16.42,13.79,1,1
16432.734,0.869,0.03,-0.106,-48.31,11.66,14.4,1,1
16432.75,0.879,-0.007,-0.068,-38.12,6.32,11.99,1,1
16432.75,0.928,-0.005,-0.038,-23.41,3.75,7.54,1,1
16432.765,0.962,0.005,-0.034,-10.01,2.69,2.78,1,1
16432.781,1.019,0.05,-0.035,0.67,2.99,-1.1,1,1
16432.781,1.027,0.072,-0.053,8.55,4.85,-3.02,1,1
16432.796,1.037,0.09,-0.054,11.63,7.45,-2.75,1,1
16432.796,1.023,0.109,-0.045,12.45,11.87,-0.67,1,1
16432.812,0.994,0.12,0.003,12.63,15.63,4.7,1,1
16432.828,0.955,0.099,0.035,14.01,14.19,11.66,1,1
16432.828,0.96,0.09,0.035,11.6,7.97,19.75,1,1
16432.843,0.974,0.107,0.056,3.88,-2.32,24.57,1,1
16432.859,0.975,0.037,0.104,-2.5,-13.86,27.74,1,1
16432.859,1.028,-0.016,0.125,-2.78,-24.81,30.18,1,1
16432.875,1.069,-0.027,0.12,2.84,-31.19,29.85,1,1
16432.89,1.054,-0.077,0.086,18.07,-32.44,26.58,1,1
16432.906,1.038,-0.071,0.067,22.64,-33.6,24.69,1,1
16432.921,0.965,-0.107,0.027,23.1,-36.35,24.2,1,1
16432.921,1.003,-0.103,0.002,18.56,-42.09,25.06,1,1
16432.937,1.009,-0.076,-0.031,13.7,-47.49,21.33,1,1
16432.937,0.992,-0.113,-0.048,6.13,-48.62,17.58,1,1
16432.953,1.0,-0.089,-0.044,-1.31,-49.2,13.64,1,1
16432.968,0.991,-0.085,-0.062,-1.8,-47.4,9.92,1,1
16432.968,0.991,-0.08,-0.093,-0.15,-42.94,7.6,1,1
16432.984,0.983,-0.049,-0.087,1.68,-36.29,5.19,1,1
16433.0,0.95,-0.035,-0.066,3.85,-30.64,2.93,1,1
16433.0,0.916,-0.042,-0.068,5.86,-28.93,2.87,1,1
16433.015,0.93,-0.026,-0.097,6.74,-29.66,3.33,1,1
16433.015,0.929,-0.028,-0.117,5.31,-27.71,3.78,1,1
16433.031,0.931,-0.04,-0.124,2.66,-25.24,4.97,1,1
16433.046,0.948,-0.038,-0.14,-0.06,-23.41,5.22,1,1
16433.046,0.952,-0.045,-0.156,-3.23,-20.02,5.1,1,1
16433.062,0.96,-0.066,-0.153,-6.1,-15.81,4.91,1,1
16433.078,0.968,-0.077,-0.148,-7.02,-11.38,4.21,1,1
16433.078,0.965,-0.09,-0.14,-5.37,-6.71,2.93,1,1
16433.093,0.957,-0.1,-0.125,-1.4,-2.23,2.26,1,1
16433.109,0.958,-0.089,-0.112,3.02,0.85,2.26,1,1
16433.109,0.955,-0.069,-0.105,5.8,2.69,2.23,1,1
16433.125,0.956,-0.066,-0.116,5.37,3.08,1.74,1,1
16433.14,0.967,-0.061,-0.107,2.38,3.05,1.43,1,1
16433.14,0.975,-0.061,-0.098,-0.27,3.2,1.5,1,1
16433.156,0.985,-0.058,-0.092,-3.11,3.63,1.53,1,1
16433.156,0.992,-0.063,-0.079,-5.01,4.43,0.85,1,1
16433.171,0.988,-0.078,-0.066,-4.94,4.88,-0.31,1,1
16433.187,0.99,-0.088,-0.054,-2.29,4.88,-1.68,1,1
16433.187,0.986,-0.088,-0.065,2.14,5.16,-2.35,1,1
16433.203,0.99,-0.08,-0.08,4.49,5.58,-1.89,1,1
16433.218,0.989,-0.08,-0.086,4.24,6.2,-0.82,1,1
16433.234,1.001,-0.076,-0.085,-0.85,7.17,1.25,1,1
16433.25,1.001,-0.084,-0.069,-3.2,6.44,0.95,1,1
16433.25,1.005,-0.091,-0.059,-3.78,5.1,0.12,1,1
16433.265,1.009,-0.084,-0.049,-1.46,3.88,-1.34,1,1
16433.281,1.004,-0.077,-0.043,2.69,2.53,-3.17,1,1
16433.281,0.999,-0.053,-0.05,5.74,0.15,-5.25,1,1
16433.296,0.992,-0.028,-0.051,7.29,-1.77,-6.01,1,1
16433.296,0.974,-0.023,-0.062,8.73,-3.2,-4.73,1,1
16433.312,0.971,-0.016,-0.083,7.84,-4.64,-1.89,1,1
16433.328,0.981,-0.027,-0.081,5.77,-5.16,0.67,1,1
16433.328,0.972,-0.048,-0.079,3.91,-5.04,1.95,1,1
16433.343,0.974,-0.064,-0.081,2.47,-4.94,2.56,1,1
16433.359,0.968,-0.08,-0.077,2.9,-3.88,2.01,1,1
16433.375,0.952,-0.096,-0.079,5.4,-2.96,0.76,1,1
16433.375,0.939,-0.095,-0.078,7.66,-2.5,-0.49,1,1
16433.39,0.93,-0.092,-0.078,9.61,-2.2,-2.14,1,1
16433.39,0.923,-0.092,-0.078,10.9,-1.83,-4.03,1,1
16433.406,0.927,-0.081,-0.068,11.44,-1.01,-5.4,1,1
16433.421,0.937,-0.075,-0.063,11.69,0.0,-5.86,1,1
16433.421,0.956,-0.069,-0.064,10.19,1.22,-5.07,1,1
16433.437,0.984,-0.055,-0.045,7.14,2.75,-4.27,1,1
16433.437,1.005,-0.054,-0.026,4.39,4.09,-4.03,1,1
16433.453,1.008,-0.049,0.0,2.72,4.24,-4.27,1,1
16433.468,1.011,-0.056,0.003,2.99,2.9,-4.3,1,1
16433.468,1.027,-0.05,0.007,3.94,0.7,-4.64,1,1
16433.484,1.024,-0.048,0.007,5.37,-1.98,-6.35,1,1
16433.5,1.027,-0.043,-0.007,5.13,-6.13,-8.39,1,1
16433.5,1.029,-0.03,-0.008,4.21,-9.83,-10.32,1,1
16433.515,1.022,-0.027,-0.029,4.58,-12.57,-11.2,1,1
16433.531,1.024,-0.018,-0.063,4.33,-13.98,-10.47,1,1
16433.531,1.019,-0.011,-0.095,2.32,-13.46,-9.19,1,1
16433.546,1.016,-0.026,-0.121,-1.01,-12.05,-8.0,1,1
16433.562,1.021,-0.047,-0.137,-4.06,-9.58,-7.26,1,1
16433.562,1.022,-0.065,-0.15,-5.22,-5.43,-7.26,1,1
16433.578,1.018,-0.075,-0.156,-4.36,-0.43,-7.63,1,1
16433.578,1.016,-0.072,-0.154,-2.93,4.67,-8.42,1,1
16433.593,1.003,-0.06,-0.15,-2.9,9.37,-9.16,1,1
16433.609,0.987,-0.052,-0.141,-2.87,13.12,-8.85,1,1
16433.609,0.985,-0.053,-0.135,-1.65,16.3,-7.26,1,1
16433.625,0.992,-0.04,-0.143,0.24,19.5,-5.16,1,1
16433.625,1.004,-0.024,-0.144,0.24,23.01,-3.36,1,1
16433.64,1.013,-0.013,-0.119,-2.11,26.46,-2.72,1,1
16433.656,1.012,-0.006,-0.08,-4.85,28.78,-2.72,1,1
16433.656,1.014,0.012,-0.057,-7.2,29.45,-2.23,1,1
16433.671,1.003,0.005,-0.032,-9.77,29.82,-1.31,1,1
16433.687,0.988,-0.006,0.008,-10.86,30.21,0.46,1,1
16433.687,0.973,0.009,0.028,-11.08,27.41,1.53,1,1
16433.703,0.974,-0.003,0.029,-11.51,22.34,1.4,1,1
16433.718,0.982,-0.012,0.035,-11.32,17.76,1.04,1,1
16433.718,0.99,-0.024,0.034,-5.01,11.63,-0.03,1,1
16433.734,0.995,-0.025,0.034,-1.56,8.91,-0.79,1,1
16433.75,0.999,-0.035,0.033,1.92,6.59,-2.04,1,1
16433.75,1.01,-0.04,-0.001,5.16,5.55,-3.14,1,1
16433.765,1.013,-0.03,-0.02,6.9,5.98,-3.88,1,1
16433.781,1.013,-0.03,-0.04,6.23,6.74,-4.67,1,1
16433.781,1.009,-0.026,-0.055,3.51,8.06,-5.19,1,1
16433.796,1.004,-0.027,-0.058,0.12,9.92,-5.46,1,1
16433.812,0.994,-0.034,-0.049,-3.05,11.54,-5.55,1,1
16433.812,0.978,-0.046,-0.046,-5.04,12.05,-5.28,1,1
16433.828,0.971,-0.053,-0.037,-4.97,10.86,-5.04,1,1
16433.828,0.972,-0.063,-0.028,-2.47,9.13,-4.85,1,1
16433.843,0.978,-0.058,-0.037,2.59,8.39,-3.97,1,1
16433.859,0.996,-0.04,-0.049,7.69,8.39,-3.27,1,1
16433.859,1.001,-0.027,-0.061,9.8,9.25,-4.39,1,1
16433.875,0.988,-0.016,-0.064,8.42,10.35,-5.22,1,1
16433.875,0.98,-0.009,-0.065,5.8,10.5,-4.27,1,1
16433.89,0.984,-0.006,-0.061,3.48,10.28,-2.29,1,1
16433.906,0.979,-0.014,-0.068,1.62,10.16,-0.31,1,1
16433.906,0.98,-0.031,-0.067,0.37,9.49,1.19,1,1
16433.921,0.996,-0.039,-0.059,0.89,8.64,1.53,1,1
16433.937,1.004,-0.047,-0.059,3.54,9.16,1.07,1,1
16433.937,1.017,-0.045,-0.052,7.14,10.9,0.12,1,1
16433.953,1.021,-0.037,-0.037,11.08,13.4,-0.98,1,1
16433.968,1.021,-0.029,-0.023,14.16,15.69,-0.64,1,1
16433.968,1.026,-0.019,-0.011,15.9,17.67,0.03,1,1
16433.984,1.022,-0.015,-0.004,15.9,18.98,0.92,1,1
16434.0,1.015,-0.015,0.006,14.47,19.53,2.38,1,1
16434.0,1.005,-0.025,0.013,13.03,19.26,4.33,1,1
16434.015,0.996,-0.037,0.015,11.75,17.98,6.84,1,1
16434.031,0.993,-0.05,0.015,10.16,16.54,9.25,1,1
16434.031,1.003,-0.067,0.014,8.61,15.26,11.17,1,1
16434.046,1.017,-0.068,0.023,6.96,15.17,11.66,1,1
16434.046,1.014,-0.077,0.023,5.98,15.56,10.68,1,1
16434.062,1.025,-0.08,0.035,5.37,16.11,8.64,1,1
16434.078,1.015,-0.073,0.048,6.53,17.67,5.86,1,1
16434.093,0.995,-0.067,0.059,8.15,18.04,3.51,1,1
16434.093,0.969,-0.062,0.063,9.28,16.6,1.86,1,1
16434.109,0.951,-0.057,0.058,10.1,13.58,1.16,1,1
16434.109,0.946,-0.049,0.048,9.67,10.07,0.92,1,1
16434.125,0.954,-0.042,0.043,7.72,6.56,0.34,1,1
16434.125,0.963,-0.045,0.034,5.55,3.94,-0.85,1,1
16434.14,0.989,-0.044,0.033,4.3,3.45,-2.29,1,1
16434.156,0.999,-0.04,0.041,5.52,5.31,-4.24,1,1
16434.156,0.996,-0.036,0.046,7.6,8.03,-5.28,1,1
16434.171,0.995,-0.024,0.054,9.49,10.5,-5.89,1,1
16434.187,0.994,-0.007,0.062,11.02,12.24,-6.62,1,1
16434.187,0.98,0.002,0.074,12.05,12.82,-7.45,1,1
16434.203,0.966,0.013,0.087,12.54,11.99,-7.72,1,1
16434.218,0.94,0.017,0.093,12.88,9.55,-7.02,1,1
16434.218,0.951,0.016,0.098,12.3,5.22,-5.55,1,1
16434.234,0.969,0.027,0.101,11.02,2.26,-5.13,1,1
16434.25,0.971,0.028,0.102,9.0,0.27,-5.25,1,1
16434.25,0.985,0.021,0.105,6.65,-1.74,-5.65,1,1
16434.265,1.007,0.027,0.116,6.65,-2.35,-5.98,1,1
16434.281,1.004,0.023,0.119,10.68,-0.92,-6.47,1,1
16434.281,0.999,0.023,0.115,15.87,0.34,-6.35,1,1
16434.296,1.002,0.039,0.126,20.29,0.67,-6.13,1,1
16434.296,0.986,0.043,0.123,23.32,-0.18,-6.07,1,1
16434.312,0.989,0.039,0.112,23.93,-2.53,-5.71,1,1
16434.328,0.994,0.042,0.113,22.58,-4.97,-5.04,1,1
16434.328,0.991,0.034,0.107,21.52,-7.54,-4.09,1,1
16434.343,1.005,0.024,0.097,20.6,-9.64,-2.62,1,1
16434.359,1.018,0.025,0.092,19.35,-10.13,-1.68,1,1
16434.359,1.019,0.009,0.084,18.49,-9.8,-1.8,1,1
16434.375,1.029,-0.003,0.071,18.46,-8.79,-2.01,1,1
16434.39,1.032,-0.001,0.074,20.14,-6.23,-2.2,1,1
16434.39,1.013,-0.012,0.075,23.5,-3.45,-2.08,1,1
16434.406,1.011,-0.012,0.077,25.76,-2.5,-1.59,1,1
16434.406,1.021,0.001,0.081,25.64,-1.92,-1.92,1,1
16434.421,1.019,-0.001,0.092,24.81,-0.76,-2.59,1,1
16434.437,1.037,0.004,0.097,23.35,0.79,-2.59,1,1
16434.453,1.051,0.027,0.11,21.06,3.75,-2.47,1,1
16434.453,1.049,0.01,0.113,20.11,6.44,-2.81,1,1
16434.468,1.044,0.014,0.124,19.04,8.18,-3.11,1,1
16434.468,1.037,0.017,0.135,18.62,8.09,-3.57,1,1
16434.484,1.025,0.005,0.128,18.49,6.23,-4.3,1,1
16434.5,1.014,0.001,0.125,17.09,3.2,-4.82,1,1
16434.515,1.008,-0.005,0.117,14.92,-0.24,-4.88,1,1
16434.515,0.999,-0.022,0.111,12.85,-4.03,-4.79,1,1
16434.515,1.002,-0.025,0.098,12.48,-7.35,-4.06,1,1
16434.531,1.023,-0.022,0.08,13.67,-9.13,-3.36,1,1
16434.546,1.05,-0.017,0.063,16.17,-8.09,-3.69,1,1
16434.546,1.06,0.002,0.055,17.76,-4.97,-4.15,1,1
16434.562,1.054,0.016,0.057,17.49,-1.4,-4.64,1,1
16434.578,1.036,0.02,0.058,15.81,1.13,-4.82,1,1
16434.578,1.013,0.026,0.058,13.28,1.56,-4.33,1,1
16434.593,0.985,0.024,0.059,10.8,0.15,-2.87,1,1
16434.609,0.96,0.013,0.054,9.58,-2.9,-0.4,1,1
16434.609,0.946,-0.008,0.033,9.67,-6.26,2.9,1,1
16434.625,0.942,-0.037,0.0,9.83,-8.45,6.23,1,1
16434.64,0.953,-0.057,-0.025,9.19,-8.82,8.45,1,1
16434.64,0.962,-0.068,-0.046,7.2,-6.96,8.85,1,1
16434.656,0.973,-0.08,-0.056,4.09,-3.45,7.29,1,1
16434.656,0.977,-0.09,-0.045,1.43,1.16,4.82,1,1
16434.671,0.975,-0.097,-0.023,1.22,5.89,1.34,1,1
16434.687,0.966,-0.088,0.003,2.08,9.86,-2.84,1,1
16434.703,0.945,-0.086,0.015,3.36,11.96,-7.23,1,1
16434.703,0.947,-0.081,0.015,4.58,13.86,-15.99,1,1
16434.718,0.999,-0.032,0.029,3.23,19.35,-22.19,1,1
16434.718,1.016,-0.012,0.051,1.89,26.8,-27.86,1,1
16434.734,1.021,0.013,0.085,3.02,32.93,-33.2,1,1
16434.75,0.976,0.049,0.153,6.38,36.77,-37.84,1,1
16434.75,0.966,0.064,0.188,11.2,36.26,-42.39,1,1
16434.765,0.959,0.083,0.197,16.08,33.23,-46.54,1,1
16434.781,0.948,0.096,0.201,19.99,30.21,-49.07,1,1
16434.781,0.936,0.14,0.206,23.8,27.01,-49.5,1,1
16434.796,0.924,0.178,0.189,25.54,22.95,-47.09,1,1
16434.796,0.935,0.209,0.176,22.0,18.8,-42.12,1,1
16434.812,0.932,0.22,0.158,16.14,15.32,-35.98,1,1
16434.828,0.943,0.208,0.139,9.7,11.93,-28.35,1,1
16434.828,0.955,0.19,0.134,3.69,10.32,-20.29,1,1
16434.843,0.966,0.172,0.134,-0.4,10.04,-13.52,1,1
16434.859,0.983,0.157,0.151,-2.04,10.25,-8.67,1,1
16434.859,0.986,0.139,0.163,-1.07,11.6,-5.71,1,1
16434.875,0.976,0.123,0.159,1.65,11.87,-3.85,1,1
16434.89,0.977,0.115,0.151,4.46,10.93,-2.17,1,1
16434.89,0.981,0.125,0.144,4.82,9.49,-1.37,1,1
16434.906,0.97,0.115,0.135,2.59,7.75,-1.13,1,1
16434.906,0.982,0.099,0.136,-1.46,5.4,-0.49,1,1
16434.921,0.999,0.105,0.144,-4.27,5.01,-0.73,1,1
16434.937,0.998,0.087,0.149,-4.18,6.26,-1.43,1,1
16434.937,1.01,0.088,0.159,-1.71,8.39,-1.92,1,1
16434.953,1.001,0.106,0.166,1.83,11.47,-2.62,1,1
16434.968,0.968,0.103,0.174,4.03,12.79,-2.81,1,1
16434.968,0.959,0.107,0.177,3.78,10.32,-2.08,1,1
16434.984,0.951,0.11,0.169,2.14,6.59,-0.98,1,1
16435.0,0.954,0.101,0.164,0.21,2.59,-0.12,1,1
16435.0,0.957,0.096,0.15,-0.98,0.03,0.61,1,1
16435.015,0.983,0.087,0.131,-1.43,-0.61,1.5,1,1
16435.015,1.003,0.11,0.133,-3.02,1.62,1.25,1,1
16435.031,0.992,0.108,0.136,-5.13,4.85,0.03,1,1
16435.046,0.985,0.102,0.16,-6.99,6.78,-0.49,1,1
16435.046,0.982,0.112,0.18,-6.65,7.66,0.09,1,1
16435.062,0.977,0.117,0.189,-5.28,6.9,0.92,1,1
16435.078,0.97,0.113,0.193,-4.46,4.55,1.95,1,1
16435.078,0.964,0.1,0.182,-3.91,1.1,3.17,1,1
16435.093,0.982,0.096,0.161,-4.67,-2.29,4.03,1,1
16435.109,1.0,0.095,0.136,-6.41,-3.48,3.48,1,1
16435.109,1.026,0.094,0.132,-8.97,-1.31,1.65,1,1
16435.125,1.026,0.094,0.131,-9.7,3.6,-1.25,1,1
16435.125,1.002,0.082,0.129,-8.15,8.55,-3.51,1,1
16435.14,0.996,0.079,0.135,-5.71,12.63,-4.27,1,1
16435.156,0.983,0.096,0.144,-2.81,15.63,-5.25,1,1
16435.171,0.968,0.101,0.142,-0.55,17.18,-5.83,1,1
16435.171,0.969,0.123,0.138,0.0,18.01,-5.34,1,1
16435.187,0.955,0.134,0.134,-1.98,19.32,-3.97,1,1
16435.187,0.961,0.136,0.138,-6.96,20.51,-1.56,1,1
16435.203,0.963,0.134,0.148,-12.6,22.83,1.68,1,1
16435.218,0.964,0.12,0.163,-17.98,24.81,4.55,1,1
16435.218,0.982,0.094,0.183,-21.61,26.98,6.26,1,1
16435.234,1.001,0.082,0.206,-22.22,30.21,6.29,1,1
16435.25,0.991,0.066,0.226,-19.71,33.69,3.69,1,1
16435.25,0.976,0.045,0.236,-15.44,35.46,0.24,1,1
16435.265,0.967,0.045,0.243,-10.25,35.49,-3.54,1,1
16435.281,0.956,0.044,0.24,-5.19,35.07,-6.93,1,1
16435.281,0.95,0.058,0.236,-2.11,33.97,-9.74,1,1
16435.296,0.952,0.076,0.235,-2.17,34.12,-10.96,1,1
16435.296,0.948,0.124,0.233,-6.71,35.28,-10.96,1,1
16435.312,0.942,0.137,0.27,-16.08,36.35,-9.52,1,1
16435.328,0.924,0.137,0.302,-27.19,36.62,-7.48,1,1
16435.328,0.913,0.128,0.321,-33.88,34.82,-4.15,1,1
16435.343,0.915,0.097,0.324,-32.93,32.72,-1.07,1,1
16435.359,0.913,0.079,0.316,-28.9,31.53,0.85,1,1
16435.375,0.907,0.067,0.303,-25.57,31.04,1.77,1,1
16435.375,0.916,0.059,0.297,-22.98,30.82,1.65,1,1
16435.375,0.923,0.065,0.307,-21.58,31.71,-0.46,1,1
16435.39,0.906,0.058,0.321,-20.54,32.59,-3.57,1,1
16435.406,0.883,0.053,0.333,-18.43,32.04,-5.07,1,1
16435.421,0.875,0.052,0.328,-15.59,30.06,-5.19,1,1
16435.421,0.889,0.057,0.314,-14.37,27.8,-4.61,1,1
16435.437,0.897,0.066,0.303,-15.59,27.77,-3.48,1,1
16435.437,0.895,0.065,0.296,-18.16,28.57,-1.83,1,1
16435.453,0.906,0.062,0.295,-21.18,29.42,0.34,1,1
16435.468,0.91,0.064,0.299,-24.26,30.92,1.86,1,1
16435.468,0.919,0.049,0.312,-26.83,32.32,2.5,1,1
16435.484,0.944,0.063,0.344,-27.71,35.04,2.59,1,1
16435.5,0.946,0.085,0.373,-26.98,38.03,0.52,1,1
16435.5,0.922,0.076,0.405,-26.31,39.7,-1.07,1,1
16435.515,0.894,0.078,0.434,-26.4,38.15,-1.28,1,1
16435.515,0.879,0.061,0.444,-26.03,34.09,-0.89,1,1
16435.531,0.887,0.067,0.443,-25.24,28.66,-0.82,1,1
16435.546,0.891,0.069,0.443,-23.96,24.57,-0.64,1,1
16435.562,0.888,0.065,0.445,-22.8,21.52,-0.37,1,1
16435.562,0.887,0.067,0.434,-21.52,18.98,0.06,1,1
16435.578,0.898,0.068,0.426,-22.71,17.76,-0.03,1,1
16435.578,0.897,0.057,0.431,-25.42,18.49,-1.01,1,1
16435.593,0.881,0.046,0.446,-27.31,19.78,-2.47,1,1
16435.609,0.882,0.027,0.467,-27.59,19.62,-3.91,1,1
16435.609,0.88,0.037,0.485,-25.79,18.71,-6.13,1,1
16435.625,0.867,0.03,0.489,-23.01,17.55,-9.06,1,1
16435.64,0.862,0.029,0.496,-20.48,15.5,-10.99,1,1
16435.64,0.862,0.052,0.497,-17.12,12.12,-12.51,1,1
16435.656,0.867,0.051,0.481,-15.35,9.28,-12.63,1,1
16435.656,0.876,0.057,0.464,-17.55,8.0,-10.93,1,1
16435.671,0.903,0.083,0.464,-21.33,9.34,-10.25,1,1
16435.687,0.882,0.06,0.464,-28.29,17.24,-8.7,1,1
16435.703,0.877,0.044,0.472,-27.04,18.07,-8.94,1,1
16435.703,0.889,0.051,0.468,-24.23,17.09,-10.71,1,1
16435.718,0.899,0.041,0.453,-23.26,16.91,-11.78,1,1
16435.718,0.916,0.028,0.432,-23.62,18.71,-11.96,1,1
16435.734,0.91,0.022,0.451,-25.03,21.94,-11.11,1,1
16435.75,0.892,0.016,0.477,-26.25,24.48,-10.44,1,1
16435.75,0.875,0.005,0.505,-26.34,25.18,-9.95,1,1
16435.765,0.87,-0.003,0.512,-24.9,24.26,-9.95,1,1
16435.781,0.868,0.009,0.501,-24.2,22.31,-10.62,1,1
16435.781,0.88,0.024,0.51,-25.39,19.68,-12.88,1,1
16435.796,0.882,0.033,0.525,-27.77,18.43,-15.5,1,1
16435.796,0.88,0.055,0.54,-28.72,17.55,-18.68,1,1
16435.812,0.872,0.064,0.555,-26.49,16.11,-20.97,1,1
16435.828,0.866,0.08,0.56,-22.37,14.68,-21.7,1,1
16435.828,0.861,0.099,0.552,-18.31,13.31,-22.0,1,1
16435.843,0.839,0.106,0.542,-17.12,12.18,-21.79,1,1
16435.859,0.833,0.119,0.53,-18.16,10.65,-20.29,1,1
16435.859,0.831,0.122,0.512,-19.38,9.03,-17.64,1,1
16435.875,0.836,0.114,0.497,-21.82,8.51,-13.89,1,1
16435.89,0.85,0.11,0.485,-24.23,9.22,-10.44,1,1
16435.89,0.86,0.093,0.488,-26.0,12.27,-8.21,1,1
16435.906,0.857,0.08,0.498,-26.12,16.17,-8.03,1,1
16435.921,0.853,0.067,0.519,-23.96,18.74,-8.67,1,1
16435.921,0.836,0.078,0.551,-20.66,20.2,-9.77,1,1
16435.937,0.828,0.087,0.569,-19.41,19.5,-10.9,1,1
16435.953,0.824,0.099,0.579,-19.65,16.08,-12.09,1,1
16435.953,0.822,0.093,0.584,-18.86,13.03,-11.44,1,1
16435.968,0.822,0.104,0.573,-18.22,10.62,-9.46,1,1
16435.968,0.84,0.096,0.556,-18.83,8.39,-7.51,1,1
16435.984,0.835,0.088,0.545,-19.5,7.87,-5.83,1,1
16436.0,0.835,0.073,0.533,-20.66,8.88,-4.91,1,1
16436.0,0.833,0.073,0.527,-21.12,10.5,-5.34,1,1
16436.015,0.829,0.088,0.542,-19.96,12.57,-6.68,1,1
16436.031,0.817,0.121,0.556,-18.16,13.86,-8.12,1,1
16436.031,0.819,0.145,0.566,-17.73,14.77,-7.57,1,1
16436.046,0.812,0.165,0.571,-18.46,15.75,-5.34,1,1
16436.046,0.808,0.165,0.574,-21.73,17.55,-1.4,1,1
16436.062,0.793,0.156,0.578,-27.38,18.65,1.74,1,1
16436.078,0.814,0.13,0.573,-31.28,19.59,3.91,1,1
16436.078,0.815,0.111,0.57,-31.34,21.64,3.81,1,1
16436.093,0.816,0.075,0.588,-29.69,25.85,4.15,1,1
16436.109,0.813,0.098,0.607,-27.44,29.08,3.36,1,1
16436.109,0.769,0.098,0.624,-27.5,30.7,2.08,1,1
16436.125,0.744,0.089,0.658,-31.56,30.21,1.77,1,1
16436.14,0.743,0.082,0.661,-33.17,27.22,0.61,1,1
16436.14,0.761,0.077,0.635,-30.82,24.14,-1.43,1,1
16436.156,0.784,0.088,0.61,-28.32,23.44,-3.17,1,1
16436.156,0.825,0.103,0.594,-28.2,26.43,-3.02,1,1
16436.171,0.853,0.119,0.605,-30.03,31.62,-1.95,1,1
16436.187,0.861,0.097,0.64,-33.48,37.26,1.01,1,1
16436.187,0.872,0.081,0.692,-37.78,41.29,5.1,1,1
16436.203,0.836,0.038,0.746,-40.5,42.7,6.93,1,1
16436.218,0.799,0.009,0.794,-40.16,39.52,4.79,1,1
16436.218,0.756,-0.012,0.823,-33.66,31.56,-1.34,1,1
16436.234,0.728,-0.034,0.834,-23.56,20.36,-7.78,1,1
16436.25,0.758,-0.023,0.79,-13.03,6.68,-13.73,1,1
16436.25,0.774,-0.009,0.747,-4.36,-2.23,-17.49,1,1
16436.265,0.796,0.023,0.701,2.53,-5.4,-18.8,1,1
16436.281,0.784,0.035,0.666,9.25,-6.41,-19.32,1,1
16436.281,0.76,0.064,0.64,11.41,-6.96,-18.01,1,1
16436.296,0.736,0.08,0.609,9.64,-9.74,-16.75,1,1
16436.296,0.754,0.078,0.566,6.38,-13.89,-14.13,1,1
16436.312,0.782,0.074,0.534,2.32,-15.26,-7.87,1,1
16436.328,0.805,0.062,0.515,-2.66,-11.78,0.61,1,1
16436.328,0.799,0.041,0.509,-8.24,-7.17,7.05,1,1
16436.343,0.785,0.009,0.532,-13.25,-3.66,11.38,1,1
16436.359,0.778,-0.018,0.552,-15.29,-2.44,13.82,1,1
16436.359,0.779,-0.059,0.577,-14.37,-2.38,15.47,1,1
16436.375,0.788,-0.056,0.594,-11.38,-3.33,15.32,1,1
16436.39,0.807,-0.069,0.591,-7.66,-4.94,12.94,1,1
16436.39,0.838,-0.079,0.598,-5.34,-6.38,9.55,1,1
16436.406,0.856,-0.071,0.6,-2.87,-7.84,5.83,1,1
16436.406,0.871,-0.062,0.594,-0.79,-8.24,2.69,1,1
16436.421,0.86,-0.048,0.602,1.74,-7.39,0.43,1,1
16436.437,0.816,-0.028,0.612,2.99,-7.45,-0.85,1,1
16436.437,0.798,-0.027,0.615,1.13,-8.7,-0.4,1,1
16436.453,0.782,-0.001,0.615,-0.76,-9.98,-0.12,1,1
16436.468,0.753,-0.026,0.625,-1.46,-11.23,-0.06,1,1
16436.468,0.766,-0.021,0.63,-1.77,-13.67,-0.12,1,1
16436.484,0.791,-0.029,0.621,0.67,-14.92,-0.24,1,1
16436.5,0.814,-0.026,0.587,3.17,-13.89,-0.7,1,1
16436.5,0.843,-0.014,0.554,4.15,-11.41,-1.98,1,1
16436.515,0.827,-0.003,0.567,3.02,-5.58,-2.41,1,1
16436.531,0.786,-0.008,0.577,0.49,0.21,-3.14,1,1
16436.531,0.773,-0.007,0.588,-1.83,2.44,-6.07,1,1
16436.546,0.775,-0.015,0.601,-2.01,3.81,-7.9,1,1
16436.546,0.778,0.005,0.614,-2.35,5.31,-7.57,1,1
16436.562,0.789,0.007,0.63,-4.79,6.47,-6.35,1,1
16436.578,0.773,0.001,0.654,-9.46,7.11,-4.39,1,1
16436.578,0.772,-0.02,0.665,-13.7,5.95,-2.23,1,1
16436.593,0.769,-0.039,0.639,-15.78,3.85,-3.36,1,1
16436.609,0.77,-0.053,0.615,-15.32,3.48,-7.11,1,1
16436.609,0.76,-0.044,0.562,-11.66,4.36,-12.12,1,1
16436.625,0.771,-0.036,0.507,-9.86,7.48,-16.45,1,1
16436.64,0.783,-0.015,0.487,-10.65,14.13,-20.02,1,1
16436.64,0.772,-0.002,0.501,-9.74,23.1,-21.18,1,1
16436.656,0.722,0.028,0.534,-8.36,31.19,-19.23,1,1
16436.656,0.67,0.032,0.579,-12.18,34.73,-15.9,1,1
16436.671,0.651,0.038,0.603,-24.45,30.21,-9.31,1,1
16436.687,0.659,0.034,0.619,-28.47,28.53,-5.98,1,1
16436.703,0.694,0.052,0.645,-29.24,28.02,-2.93,1,1
16436.703,0.762,0.062,0.7,-28.14,27.38,0.09,1,1
16436.718,0.757,0.049,0.722,-26.37,25.73,1.89,1,1
16436.718,0.735,0.022,0.744,-25.03,22.34,3.78,1,1
16436.734,0.736,0.012,0.756,-24.32,17.21,5.01,1,1
16436.75,0.739,-0.007,0.744,-22.95,11.6,3.33,1,1
16436.75,0.749,-0.031,0.714,-20.48,7.54,0.03,1,1
16436.765,0.764,-0.026,0.705,-15.75,6.53,-4.18,1,1
16436.781,0.759,-0.021,0.688,-8.76,7.45,-7.69,1,1
16436.781,0.747,-0.013,0.685,-6.07,8.79,-8.82,1,1
16436.796,0.737,-0.004,0.707,-7.51,8.58,-9.25,1,1
16436.812,0.727,-0.013,0.734,-8.97,6.29,-8.67,1,1
16436.812,0.727,-0.015,0.746,-9.49,3.2,-7.42,1,1
16436.828,0.74,-0.007,0.766,-9.58,-0.61,-6.71,1,1
16436.828,0.734,-0.008,0.777,-7.57,-4.24,-6.65,1,1
16436.843,0.739,0.001,0.768,-4.58,-8.61,-6.87,1,1
16436.859,0.752,0.003,0.754,-0.98,-13.0,-7.2,1,1
16436.859,0.776,-0.004,0.742,2.69,-17.03,-7.11,1,1
16436.875,0.804,0.001,0.716,4.61,-19.99,-6.04,1,1
16436.89,0.826,-0.0,0.677,3.81,-20.54,-4.55,1,1
16436.89,0.828,0.011,0.663,1.83,-18.8,-2.75,1,1
16436.906,0.797,0.014,0.675,1.01,-16.57,-1.19,1,1
16436.906,0.769,0.006,0.673,0.09,-16.63,-0.09,1,1
16436.921,0.77,-0.009,0.661,-0.98,-17.52,1.46,1,1
16436.937,0.799,-0.027,0.636,-1.43,-17.98,3.81,1,1
16436.937,0.826,-0.037,0.616,-2.87,-17.12,6.35,1,1
16436.953,0.837,-0.052,0.605,-5.31,-14.62,6.81,1,1
16436.968,0.829,-0.06,0.599,-6.26,-11.32,5.04,1,1
16436.968,0.832,-0.041,0.595,-4.94,-7.97,3.51,1,1
16436.984,0.824,-0.03,0.583,-3.23,-4.94,1.43,1,1
16437.0,0.829,-0.028,0.568,-3.11,-2.2,-0.43,1,1
16437.0,0.826,-0.022,0.577,-3.75,1.71,-1.31,1,1
16437.015,0.81,-0.026,0.585,-4.49,5.58,-1.68,1,1
16437.015,0.799,-0.017,0.602,-6.44,7.35,-2.04,1,1
16437.031,0.776,-0.03,0.633,-8.55,8.3,-2.41,1,1
16437.046,0.732,-0.026,0.676,-8.39,6.93,-3.17,1,1
16437.046,0.725,-0.013,0.691,-5.83,1.43,-3.97,1,1
16437.062,0.763,-0.008,0.674,-3.85,-3.94,-5.95,1,1
16437.078,0.784,0.013,0.643,-0.58,-6.13,-7.02,1,1
16437.078,0.771,0.019,0.607,1.92,-5.98,-6.99,1,1
16437.093,0.774,0.034,0.594,1.22,-4.06,-6.16,1,1
16437.109,0.763,0.046,0.597,0.03,-1.68,-5.46,1,1
16437.109,0.744,0.044,0.598,-1.4,0.61,-3.85,1,1
16437.125,0.745,0.055,0.62,-2.62,2.69,-1.34,1,1
16437.14,0.711,0.05,0.639,-3.27,2.75,1.74,1,1
16437.14,0.715,0.032,0.655,-5.62,0.18,5.86,1,1
16437.156,0.752,0.036,0.648,-7.23,-3.85,8.51,1,1
16437.156,0.77,0.004,0.621,-7.6,-6.35,10.01,1,1
16437.171,0.793,-0.011,0.609,-8.15,-5.77,11.78,1,1
16437.187,0.79,-0.009,0.602,-7.97,-4.03,11.02,1,1
16437.187,0.758,-0.028,0.608,-7.05,-2.11,8.97,1,1
16437.203,0.736,-0.029,0.613,-4.49,-0.73,7.48,1,1
16437.218,0.728,-0.026,0.607,-0.85,0.34,6.16,1,1
16437.218,0.736,-0.031,0.611,0.58,0.64,6.29,1,1
16437.234,0.743,-0.03,0.615,-1.16,0.7,7.6,1,1
16437.25,0.74,-0.04,0.626,-2.87,0.67,7.97,1,1
16437.25,0.731,-0.054,0.638,-2.44,0.18,7.39,1,1
16437.265,0.755,-0.054,0.632,-0.27,-1.62,5.8,1,1
16437.281,0.777,-0.054,0.623,1.65,-2.44,3.88,1,1
16437.281,0.782,-0.054,0.61,1.86,-1.89,2.29,1,1
16437.296,0.78,-0.052,0.61,1.4,-0.64,0.64,1,1
16437.312,0.772,-0.055,0.616,1.46,0.76,-0.4,1,1
16437.312,0.768,-0.05,0.615,1.43,1.5,-0.7,1,1
16437.328,0.775,-0.048,0.622,1.92,1.59,-1.19,1,1
16437.328,0.769,-0.045,0.626,2.78,1.22,-1.04,1,1
16437.343,0.772,-0.043,0.627,2.11,0.37,-0.34,1,1
16437.359,0.775,-0.041,0.622,1.19,-1.04,-0.18,1,1
16437.359,0.773,-0.036,0.604,0.67,-2.5,-1.28,1,1
16437.375,0.774,-0.036,0.594,0.15,-3.11,-2.93,1,1
16437.39,0.769,-0.029,0.58,1.68,-2.29,-4.43,1,1
16437.39,0.764,-0.017,0.563,3.63,0.03,-5.16,1,1
16437.406,0.758,0.004,0.559,3.27,3.39,-5.4,1,1
16437.406,0.747,0.011,0.578,2.41,6.16,-5.4,1,1
16437.421,0.753,0.013,0.596,1.98,7.35,-4.39,1,1
16437.437,0.767,0.023,0.614,-0.09,7.78,-2.59,1,1
16437.453,0.769,0.004,0.644,-2.96,8.09,-0.92,1,1
16437.453,0.776,-0.008,0.672,-3.66,7.97,1.65,1,1
16437.468,0.79,0.004,0.68,-4.39,6.56,3.91,1,1
16437.468,0.796,-0.009,0.689,-5.43,5.52,4.46,1,1
16437.484,0.793,-0.014,0.707,-3.48,4.79,4.79,1,1
16437.5,0.788,-0.007,0.703,0.55,3.66,5.16,1,1
16437.5,0.778,-0.014,0.697,2.01,1.86,5.16,1,1
16437.515,0.772,-0.031,0.694,1.86,-0.7,4.91,1,1
16437.531,0.764,-0.043,0.676,3.05,-2.9,4.67,1,1
16437.531,0.756,-0.048,0.653,4.21,-4.61,4.27,1,1
16437.546,0.763,-0.053,0.637,4.15,-5.83,3.3,1,1
16437.546,0.775,-0.058,0.621,3.39,-5.71,2.47,1,1
16437.562,0.774,-0.058,0.613,2.23,-4.3,1.53,1,1
16437.578,0.782,-0.055,0.619,1.53,-2.87,1.22,1,1
16437.578,0.776,-0.053,0.627,1.16,-0.89,1.07,1,1
16437.593,0.765,-0.061,0.639,2.41,0.46,0.76,1,1
16437.609,0.762,-0.061,0.645,4.64,0.79,0.4,1,1
16437.609,0.762,-0.051,0.652,5.01,0.43,-0.37,1,1
16437.625,0.754,-0.052,0.662,5.22,0.37,-1.01,1,1
16437.64,0.754,-0.051,0.659,5.65,-0.43,-1.22,1,1
16437.64,0.764,-0.048,0.652,5.83,-1.83,-1.74,1,1
16437.656,0.765,-0.045,0.656,5.49,-3.57,-1.71,1,1
16437.671,0.772,-0.047,0.649,5.43,-3.6,-1.95,1,1
16437.671,0.778,-0.041,0.632,5.37,-2.75,-2.26,1,1
16437.687,0.763,-0.04,0.62,4.36,-1.5,-1.34,1,1
16437.687,0.747,-0.036,0.62,2.62,-0.73,0.55,1,1
16437.703,0.745,-0.045,0.618,0.15,-0.89,2.72,1,1
16437.718,0.757,-0.058,0.618,-2.35,-1.28,4.3,1,1
16437.718,0.774,-0.071,0.619,-3.75,-0.95,4.58,1,1
16437.734,0.777,-0.077,0.616,-3.39,0.06,3.42,1,1
16437.75,0.767,-0.073,0.617,-1.89,1.04,1.31,1,1
16437.75,0.773,-0.067,0.619,-0.49,1.46,-0.55,1,1
16437.765,0.778,-0.049,0.622,0.49,1.86,-2.35,1,1
16437.765,0.77,-0.035,0.631,0.67,1.98,-3.33,1,1
16437.781,0.77,-0.024,0.634,-0.03,1.4,-3.69,1,1
16437.796,0.765,-0.017,0.641,-1.07,0.85,-4.52,1,1
16437.796,0.761,-0.016,0.659,-0.85,0.21,-5.13,1,1
16437.812,0.761,-0.002,0.674,0.95,-1.56,-5.37,1,1
16437.828,0.763,0.006,0.679,2.44,-4.21,-5.65,1,1
16437.828,0.769,0.008,0.676,3.57,-6.47,-5.83,1,1
16437.843,0.777,0.015,0.663,5.31,-8.24,-5.74,1,1
16437.859,0.791,0.026,0.639,5.43,-8.79,-4.79,1,1
16437.859,0.799,0.031,0.633,3.57,-8.06,-3.48,1,1
16437.875,0.796,0.026,0.631,2.23,-6.5,-1.1,1,1
16437.89,0.795,0.025,0.628,1.01,-4.49,1.68,1,1
16437.89,0.791,0.022,0.636,-0.76,-3.17,3.97,1,1
16437.906,0.784,0.003,0.639,-3.05,-2.35,6.01,1,1
16437.906,0.786,-0.015,0.646,-4.91,-1.59,7.54,1,1
16437.921,0.785,-0.025,0.653,-5.25,-0.95,7.72,1,1
16437.937,0.776,-0.037,0.657,-4.64,-0.49,7.29,1,1
16437.937,0.78,-0.04,0.663,-3.85,-1.25,6.62,1,1
16437.953,0.788,-0.044,0.666,-3.6,-2.23,5.4,1,1
16437.968,0.783,-0.049,0.672,-3.23,-2.96,3.57,1,1
16437.968,0.773,-0.052,0.675,-1.62,-4.36,1.77,1,1
16437.984,0.779,-0.054,0.662,0.21,-6.04,0.12,1,1
16438.0,0.781,-0.045,0.65,2.26,-6.71,-2.23,1,1
16438.0,0.757,-0.041,0.632,4.85,-5.95,-4.36,1,1
16438.015,0.753,-0.028,0.618,5.07,-5.34,-5.31,1,1
16438.031,0.765,-0.018,0.614,4.06,-4.49,-5.62,1,1
16438.031,0.775,-0.01,0.61,3.36,-2.5,-5.07,1,1
16438.046,0.769,-0.005,0.619,2.11,0.12,-3.2,1,1
16438.046,0.75,-0.011,0.637,0.03,1.43,0.0,1,1
16438.062,0.755,-0.015,0.644,-2.17,0.27,3.14,1,1
16438.078,0.762,-0.031,0.642,-3.57,-1.34,4.61,1,1
16438.078,0.75,-0.047,0.651,-4.52,-2.44,5.49,1,1
16438.093,0.753,-0.06,0.648,-4.67,-4.03,5.92,1,1
16438.109,0.779,-0.068,0.631,-3.94,-5.46,5.37,1,1
16438.109,0.789,-0.071,0.614,-3.2,-5.19,3.91,1,1
16438.125,0.781,-0.078,0.606,-3.33,-3.6,2.47,1,1
16438.125,0.776,-0.074,0.607,-3.36,-2.26,1.04,1,1
16438.14,0.775,-0.075,0.603,-3.2,-1.68,-1.04,1,1
16438.156,0.772,-0.076,0.605,-3.14,-1.13,-3.3,1,1
16438.156,0.77,-0.073,0.601,-2.32,-0.37,-5.62,1,1
16438.171,0.771,-0.058,0.597,-1.5,0.37,-7.84,1,1
16438.187,0.749,-0.041,0.616,-0.98,1.07,-9.67,1,1
16438.203,0.732,-0.027,0.647,-0.15,0.15,-10.22,1,1
16438.203,0.744,0.001,0.65,0.49,-2.9,-9.92,1,1
16438.218,0.759,0.028,0.633,0.92,-5.34,-10.07,1,1
16438.218,0.75,0.042,0.624,1.86,-5.98,-9.77,1,1
16438.234,0.759,0.067,0.611,2.47,-5.8,-7.9,1,1
16438.25,0.777,0.084,0.598,2.01,-4.18,-4.18,1,1
16438.25,0.778,0.091,0.597,-0.92,-1.4,0.76,1,1
16438.265,0.768,0.086,0.606,-4.97,1.13,6.01,1,1
16438.265,0.77,0.065,0.617,-8.09,2.72,10.59,1,1
16438.281,0.772,0.037,0.623,-9.92,3.33,14.04,1,1
