timestamp,ax,ay,az,gx,gy,gz,orient_label,motion_label
18228.203,-0.022,-0.862,0.491,8.55,-2.35,-20.14,3,1
18228.203,-0.023,-0.847,0.486,7.2,-4.94,-17.73,3,1
18228.218,-0.005,-0.85,0.476,4.55,-7.6,-14.07,3,1
18228.234,0.008,-0.856,0.455,3.05,-8.79,-10.59,3,1
18228.234,0.021,-0.861,0.415,1.13,-8.0,-8.09,3,1
18228.25,0.032,-0.871,0.435,0.15,-6.5,-6.1,3,1
18228.25,0.026,-0.866,0.452,1.53,-5.34,-4.43,3,1
18228.265,0.025,-0.862,0.454,2.14,-5.31,-2.23,3,1
18228.281,0.02,-0.869,0.461,1.65,-5.95,0.24,3,1
18228.296,0.016,-0.874,0.478,1.56,-7.29,2.56,3,1
18228.296,0.014,-0.872,0.467,2.04,-8.97,5.07,3,1
18228.312,0.024,-0.882,0.454,0.98,-10.68,7.48,3,1
18228.312,0.032,-0.915,0.443,0.18,-11.2,8.58,3,1
18228.328,0.032,-0.931,0.422,1.89,-9.86,8.7,3,1
18228.343,0.023,-0.928,0.401,2.32,-7.57,8.55,3,1
18228.343,0.009,-0.949,0.393,0.06,-5.25,7.08,3,1
18228.359,0.001,-0.965,0.409,-0.58,-3.08,4.88,3,1
18228.359,-0.015,-0.963,0.407,1.16,-0.67,3.3,3,1
18228.375,0.001,-0.954,0.413,0.64,0.58,2.23,3,1
18228.39,0.007,-0.957,0.431,-1.53,1.46,0.0,3,1
18228.39,0.0,-0.96,0.451,-1.77,2.01,-2.59,3,1
18228.406,-0.003,-0.945,0.466,-0.06,1.89,-4.43,3,1
18228.421,-0.019,-0.932,0.466,1.04,0.95,-5.83,3,1
18228.437,-0.017,-0.922,0.48,0.61,-1.13,-7.08,3,1
18228.437,-0.014,-0.911,0.495,0.82,-3.54,-8.15,3,1
18228.453,-0.008,-0.9,0.473,1.31,-5.62,-7.97,3,1
18228.453,0.016,-0.892,0.459,1.71,-7.08,-7.81,3,1
18228.468,0.035,-0.892,0.437,2.26,-7.14,-8.61,3,1
18228.484,0.019,-0.885,0.428,2.44,-5.58,-10.04,3,1
18228.484,-0.004,-0.881,0.427,2.04,-3.72,-10.47,3,1
18228.5,-0.003,-0.876,0.439,2.29,-2.26,-9.58,3,1
18228.5,0.004,-0.872,0.449,4.06,-1.4,-8.39,3,1
18228.515,0.003,-0.869,0.463,5.65,-1.01,-6.93,3,1
18228.531,0.006,-0.881,0.483,6.5,-2.11,-6.07,3,1
18228.531,0.008,-0.899,0.501,7.45,-4.33,-6.62,3,1
18228.546,0.005,-0.914,0.514,9.37,-6.99,-8.42,3,1
18228.562,0.005,-0.917,0.532,11.47,-9.55,-10.71,3,1
18228.578,0.012,-0.907,0.549,13.79,-12.79,-14.16,3,1
18228.578,0.036,-0.891,0.59,16.69,-17.33,-18.98,3,1
18228.593,0.061,-0.859,0.637,22.1,-22.49,-24.57,3,1
18228.593,0.073,-0.808,0.689,30.06,-30.12,-30.85,3,1
18228.609,0.079,-0.769,0.719,38.12,-40.22,-36.9,3,1
18228.625,0.074,-0.748,0.734,46.72,-51.85,-43.24,3,1
18228.625,0.08,-0.762,0.727,57.53,-65.61,-51.03,3,1
18228.64,0.104,-0.764,0.692,71.57,-78.07,-59.39,3,1
18228.656,0.132,-0.769,0.67,86.18,-86.89,-67.96,3,1
18228.656,0.15,-0.768,0.654,98.64,-91.49,-76.66,3,1
18228.671,0.166,-0.738,0.659,108.58,-93.48,-85.18,3,1
18228.671,0.195,-0.705,0.668,113.65,-95.31,-93.97,3,1
18228.687,0.246,-0.699,0.651,116.09,-94.88,-105.01,3,1
18228.703,0.287,-0.704,0.661,125.37,-80.14,-136.05,3,1
18228.718,0.235,-0.682,0.688,135.69,-67.66,-154.36,3,1
18228.734,0.146,-0.659,0.702,149.6,-56.06,-170.14,3,1
18228.734,0.124,-0.658,0.697,165.35,-49.26,-179.57,3,1
18228.75,0.148,-0.634,0.719,181.68,-43.73,-183.63,3,1
18228.765,0.167,-0.576,0.73,202.83,-35.55,-186.07,3,1
18228.765,0.223,-0.505,0.697,221.32,-25.3,-186.74,3,1
18228.781,0.212,-0.455,0.631,230.17,-12.6,-191.56,3,1
18228.781,0.197,-0.462,0.592,228.55,-4.85,-194.98,3,1
18228.796,0.245,-0.425,0.563,224.98,3.48,-198.83,3,1
18228.812,0.268,-0.386,0.55,225.1,17.15,-203.96,3,1
18228.812,0.24,-0.36,0.568,227.52,34.76,-207.98,3,1
18228.828,0.302,-0.317,0.594,229.29,53.01,-207.71,3,1
18228.843,0.303,-0.237,0.652,230.78,74.28,-206.92,3,1
18228.843,0.231,-0.195,0.74,233.53,96.68,-200.6,3,1
18228.859,0.235,-0.145,0.783,235.76,104.59,-191.08,3,1
18228.875,0.211,-0.097,0.816,236.64,109.04,-179.14,3,1
18228.875,0.175,-0.077,0.836,236.76,108.49,-164.16,3,1
18228.89,0.224,-0.064,0.827,232.98,96.26,-149.21,3,1
18228.906,0.29,-0.006,0.814,222.14,76.42,-140.84,3,1
18228.906,0.325,0.027,0.808,208.29,55.76,-136.91,3,1
18228.921,0.368,0.036,0.812,195.2,41.93,-131.05,3,1
18228.937,0.401,0.069,0.816,181.95,36.01,-121.19,3,1
18228.937,0.464,0.107,0.819,167.33,33.57,-110.23,3,1
18228.953,0.557,0.121,0.825,150.27,33.05,-102.97,3,1
18228.953,0.657,0.189,0.816,133.15,33.39,-102.54,3,1
18228.968,0.592,0.146,0.792,116.61,31.98,-98.67,3,1
18228.984,0.602,0.136,0.827,98.7,31.77,-88.6,3,1
18228.984,0.535,0.137,0.86,81.58,27.04,-79.96,3,1
18229.0,0.662,0.227,0.904,64.33,14.31,-75.5,3,1
18229.0,0.662,0.332,0.933,49.04,6.53,-83.99,3,1
18229.015,0.573,0.296,0.922,28.26,-3.97,-86.06,3,1
18229.031,0.582,0.286,0.961,3.17,-19.2,-80.45,3,1
18229.046,0.588,0.281,0.989,-12.57,-33.08,-74.19,3,1
18229.046,0.588,0.23,0.98,-17.76,-43.92,-69.25,3,1
18229.062,0.565,0.203,0.979,-16.79,-46.78,-68.03,3,1
18229.062,0.546,0.153,1.006,-13.21,-43.82,-68.58,3,1
18229.078,0.551,0.107,1.038,-5.07,-38.09,-72.3,3,1
18229.093,0.551,0.086,1.036,8.55,-32.84,-78.34,3,1
18229.093,0.552,0.117,1.012,24.72,-27.65,-84.54,3,1
18229.109,0.516,0.161,0.966,37.05,-24.87,-90.55,3,1
18229.125,0.494,0.202,0.924,41.81,-28.72,-93.02,3,1
18229.125,0.506,0.283,0.891,41.38,-35.55,-92.62,3,1
18229.14,0.474,0.363,0.851,36.68,-34.0,-89.75,3,1
18229.14,0.446,0.408,0.837,29.15,-30.46,-86.52,3,1
18229.156,0.447,0.421,0.862,23.56,-27.68,-84.05,3,1
18229.171,0.399,0.406,0.914,22.31,-25.57,-80.45,3,1
18229.171,0.386,0.418,0.925,21.27,-24.14,-77.67,3,1
18229.187,0.371,0.451,0.919,18.77,-23.04,-75.32,3,1
18229.203,0.342,0.521,0.871,6.04,-24.54,-67.87,3,1
18229.218,0.322,0.55,0.858,-3.69,-27.41,-64.06,3,1
18229.234,0.31,0.554,0.837,-11.63,-32.44,-58.93,3,1
18229.234,0.307,0.526,0.831,-15.99,-36.29,-51.55,3,1
18229.25,0.324,0.483,0.829,-17.0,-36.93,-44.65,3,1
18229.265,0.351,0.437,0.82,-13.03,-34.67,-40.62,3,1
18229.265,0.359,0.399,0.819,-4.36,-27.1,-40.5,3,1
18229.281,0.346,0.402,0.841,6.29,-15.38,-43.79,3,1
18229.296,0.316,0.454,0.867,17.49,-1.28,-47.33,3,1
18229.296,0.265,0.492,0.928,28.23,11.78,-48.83,3,1
18229.312,0.204,0.516,0.991,39.67,18.01,-47.4,3,1
18229.312,0.161,0.541,1.02,53.93,15.66,-41.87,3,1
18229.328,0.167,0.553,1.023,68.76,7.11,-33.48,3,1
18229.343,0.197,0.589,1.004,79.13,-2.72,-26.28,3,1
18229.343,0.25,0.625,0.965,83.13,-10.44,-21.52,3,1
18229.359,0.285,0.64,0.923,78.04,-14.4,-18.92,3,1
18229.375,0.307,0.589,0.838,55.27,-25.21,-16.05,3,1
18229.39,0.331,0.551,0.798,43.49,-32.26,-14.13,3,1
18229.406,0.356,0.525,0.761,34.7,-36.65,-14.16,3,1
18229.406,0.391,0.527,0.711,29.36,-37.6,-15.63,3,1
18229.421,0.407,0.557,0.657,25.51,-34.73,-18.52,3,1
18229.421,0.412,0.575,0.616,20.78,-28.05,-21.21,3,1
18229.437,0.412,0.585,0.585,16.69,-18.8,-22.95,3,1
18229.453,0.408,0.59,0.57,13.21,-8.33,-24.6,3,1
18229.468,0.398,0.607,0.556,9.34,2.84,-25.97,3,1
18229.468,0.385,0.626,0.555,4.79,14.86,-25.88,3,1
18229.484,0.36,0.62,0.573,0.03,26.43,-25.03,3,1
18229.484,0.338,0.603,0.609,-5.19,36.99,-23.83,3,1
18229.5,0.313,0.603,0.641,-10.77,45.38,-23.74,3,1
18229.5,0.284,0.596,0.659,-16.72,50.51,-24.75,3,1
18229.515,0.264,0.585,0.677,-25.48,53.25,-27.34,3,1
18229.531,0.244,0.582,0.703,-36.01,54.48,-30.92,3,1
18229.546,0.184,0.61,0.82,-46.21,52.89,-33.14,3,1
18229.546,0.084,0.735,1.013,-58.69,41.32,-28.17,3,1
18229.562,0.103,0.748,1.081,-60.85,23.87,-17.58,3,1
18229.562,0.093,0.62,1.028,-44.83,9.16,-7.45,3,1
18229.578,0.167,0.567,0.917,-30.49,-0.64,2.35,3,1
18229.593,0.21,0.468,0.829,-12.54,-0.18,5.95,3,1
18229.593,0.121,0.516,0.881,-9.0,-1.77,4.46,3,1
18229.609,0.204,0.521,0.858,-11.41,-6.84,7.93,3,1
18229.609,0.185,0.48,0.787,-8.12,-8.18,5.95,3,1
18229.625,0.213,0.488,0.757,-14.07,-7.84,5.89,3,1
18229.64,0.237,0.508,0.742,-17.24,-5.89,6.23,3,1
18229.656,0.232,0.513,0.74,-17.91,-1.95,6.74,3,1
18229.656,0.216,0.553,0.777,-20.17,1.34,8.88,3,1
18229.671,0.198,0.614,0.828,-22.37,1.95,13.46,3,1
18229.671,0.191,0.622,0.868,-22.13,-1.46,20.14,3,1
18229.687,0.183,0.571,0.892,-16.97,-6.23,26.15,3,1
18229.703,0.199,0.529,0.917,-8.88,-12.51,30.34,3,1
18229.703,0.216,0.478,0.914,2.14,-19.26,29.97,3,1
18229.718,0.216,0.507,0.894,10.1,-25.61,28.17,3,1
18229.734,0.288,0.498,0.827,24.41,-28.23,33.75,3,1
18229.734,0.27,0.481,0.787,25.39,-28.93,33.6,3,1
18229.75,0.289,0.51,0.771,10.13,-31.46,29.97,3,1
18229.75,0.306,0.49,0.753,-0.18,-32.01,26.46,3,1
18229.765,0.325,0.441,0.724,-9.28,-31.59,20.78,3,1
18229.781,0.348,0.442,0.706,-19.62,-28.53,14.83,3,1
18229.796,0.363,0.458,0.706,-27.1,-22.58,10.65,3,1
18229.796,0.366,0.454,0.719,-30.24,-14.59,7.81,3,1
18229.812,0.352,0.458,0.74,-30.4,-5.95,7.02,3,1
18229.812,0.337,0.474,0.775,-26.89,1.74,8.39,3,1
18229.828,0.322,0.471,0.798,-20.42,8.0,10.74,3,1
18229.843,0.309,0.477,0.822,-14.71,12.12,13.03,3,1
18229.843,0.305,0.471,0.836,-10.77,13.34,13.64,3,1
18229.859,0.302,0.46,0.839,-9.43,12.39,11.63,3,1
18229.859,0.3,0.453,0.829,-9.95,10.28,8.15,3,1
18229.875,0.302,0.45,0.82,-12.48,8.36,4.61,3,1
18229.89,0.303,0.446,0.813,-15.47,7.14,1.34,3,1
18229.89,0.302,0.442,0.814,-17.76,6.71,-1.56,3,1
18229.906,0.298,0.448,0.826,-18.25,7.23,-3.54,3,1
18229.921,0.291,0.457,0.841,-15.9,7.87,-3.69,3,1
18229.921,0.279,0.466,0.861,-12.33,8.27,-2.04,3,1
18229.937,0.27,0.472,0.874,-8.76,7.69,0.12,3,1
18229.953,0.263,0.467,0.878,-6.26,5.77,2.11,3,1
18229.953,0.259,0.457,0.871,-5.68,2.78,2.84,3,1
18229.968,0.268,0.452,0.861,-7.6,-0.98,1.59,3,1
18229.984,0.275,0.443,0.851,-10.68,-4.18,-0.73,3,1
18229.984,0.28,0.431,0.839,-13.49,-6.5,-3.17,3,1
18230.0,0.292,0.424,0.826,-15.41,-7.32,-4.88,3,1
18230.015,0.295,0.419,0.823,-15.2,-6.68,-6.44,3,1
18230.015,0.301,0.424,0.828,-13.52,-4.97,-7.35,3,1
18230.031,0.304,0.427,0.832,-10.71,-2.78,-7.66,3,1
18230.031,0.301,0.426,0.835,-7.29,-0.43,-7.93,3,1
18230.046,0.297,0.428,0.837,-4.64,1.43,-8.06,3,1
18230.062,0.289,0.436,0.835,-3.81,2.38,-8.51,3,1
18230.062,0.287,0.441,0.838,-4.7,2.44,-9.67,3,1
18230.078,0.283,0.449,0.849,-6.47,1.46,-10.83,3,1
18230.093,0.277,0.451,0.861,-7.32,0.4,-11.02,3,1
18230.093,0.281,0.448,0.867,-6.68,-0.95,-10.35,3,1
18230.109,0.287,0.452,0.868,-2.87,-2.44,-8.18,3,1
18230.125,0.288,0.449,0.86,-1.43,-2.93,-7.54,3,1
18230.125,0.29,0.443,0.846,-0.92,-2.53,-6.96,3,1
18230.14,0.291,0.438,0.83,-1.28,-1.01,-6.62,3,1
18230.156,0.291,0.426,0.809,-2.17,1.56,-6.96,3,1
18230.156,0.29,0.419,0.803,-2.59,4.24,-8.09,3,1
18230.171,0.287,0.421,0.806,-2.87,7.11,-9.64,3,1
18230.171,0.279,0.426,0.821,-3.6,9.98,-11.38,3,1
18230.187,0.271,0.436,0.844,-3.81,12.15,-12.3,3,1
18230.203,0.251,0.443,0.873,-2.47,13.55,-11.99,3,1
18230.218,0.222,0.467,0.91,1.19,12.85,-9.74,3,1
18230.218,0.219,0.495,0.925,3.57,9.28,-5.92,3,1
18230.234,0.211,0.483,0.909,5.04,4.43,-3.48,3,1
18230.234,0.22,0.461,0.882,5.37,-0.34,-2.04,3,1
18230.25,0.236,0.447,0.85,5.01,-3.69,-1.31,3,1
18230.265,0.261,0.442,0.831,2.96,-5.19,-1.53,3,1
18230.265,0.27,0.44,0.822,-0.24,-4.88,-2.66,3,1
18230.281,0.276,0.431,0.821,-1.8,-4.3,-3.91,3,1
18230.296,0.281,0.44,0.83,-2.32,-3.27,-4.3,3,1
18230.296,0.278,0.446,0.847,-2.44,-1.92,-4.61,3,1
18230.312,0.268,0.45,0.869,-1.07,-1.37,-4.91,3,1
18230.312,0.256,0.456,0.879,1.1,-1.98,-4.55,3,1
18230.328,0.254,0.455,0.872,3.6,-3.66,-3.42,3,1
18230.343,0.254,0.452,0.852,5.04,-4.91,-2.5,3,1
18230.359,0.254,0.452,0.838,4.27,-5.16,-2.41,3,1
18230.359,0.259,0.449,0.846,1.19,-5.31,-3.27,3,1
18230.375,0.26,0.444,0.843,1.74,-4.94,-2.84,3,1
18230.375,0.266,0.452,0.836,2.9,-4.85,-1.86,3,1
18230.39,0.265,0.458,0.847,2.93,-3.94,-2.2,3,1
18230.406,0.263,0.456,0.846,2.2,-4.18,-2.62,3,1
18230.421,0.264,0.452,0.842,1.8,-5.01,-3.08,3,1
18230.437,0.268,0.452,0.838,1.25,-5.8,-3.63,3,1
18230.437,0.27,0.46,0.84,0.64,-5.8,-3.88,3,1
18230.453,0.265,0.465,0.841,0.64,-5.1,-3.36,3,1
18230.453,0.259,0.464,0.844,1.37,-4.97,-2.23,3,1
18230.468,0.256,0.464,0.85,2.2,-5.16,-1.22,3,1
18230.484,0.26,0.466,0.856,2.84,-5.83,-0.67,3,1
18230.484,0.257,0.46,0.853,2.5,-6.47,-0.4,3,1
18230.5,0.255,0.45,0.847,2.04,-7.48,-0.37,3,1
18230.515,0.257,0.451,0.842,1.01,-8.45,-0.12,3,1
18230.515,0.255,0.452,0.835,-0.4,-9.77,-0.49,3,1
18230.531,0.265,0.464,0.834,-3.17,-10.9,-0.89,3,1
18230.531,0.262,0.463,0.843,-6.53,-11.93,-1.56,3,1
18230.546,0.271,0.457,0.851,-9.4,-13.43,-1.83,3,1
18230.578,0.286,0.438,0.844,-8.7,-14.28,-1.56,3,1
18230.578,0.296,0.422,0.829,-5.19,-11.99,-1.56,3,1
18230.593,0.302,0.4,0.816,-0.67,-8.24,-2.08,3,1
18230.593,0.299,0.394,0.825,2.38,-3.75,-3.23,3,1
18230.609,0.32,0.392,0.803,5.77,1.86,-4.33,3,1
18230.625,0.327,0.379,0.756,8.73,8.3,-8.0,3,1
18230.625,0.327,0.397,0.733,6.41,15.93,-13.18,3,1
18230.64,0.306,0.424,0.746,0.95,22.28,-18.8,3,1
18230.64,0.252,0.513,0.812,-9.92,23.53,-21.09,3,1
18230.656,0.244,0.583,0.878,-23.19,19.29,-18.71,3,1
18230.671,0.258,0.557,0.837,-27.25,14.34,-15.32,3,1
18230.687,0.309,0.423,0.765,-25.85,16.11,-13.43,3,1
18230.687,0.149,0.508,0.903,-27.86,18.34,-14.98,3,1
18230.703,0.203,0.609,1.007,-31.74,8.61,-4.76,3,1
18230.703,0.208,0.509,0.961,-18.77,-0.15,3.17,3,1
18230.718,0.214,0.455,0.914,-14.04,-4.27,9.77,3,1
18230.734,0.25,0.382,0.853,-2.32,-5.22,15.96,3,1
18230.75,0.262,0.379,0.841,-0.82,-5.22,15.17,3,1
18230.765,0.262,0.394,0.859,-1.5,-4.67,12.76,3,1
18230.765,0.245,0.408,0.901,-0.06,-5.16,10.5,3,1
18230.781,0.237,0.41,0.937,5.07,-8.15,9.67,3,1
18230.781,0.24,0.414,0.938,11.78,-11.63,10.28,3,1
18230.796,0.231,0.42,0.921,18.52,-14.34,10.62,3,1
18230.812,0.218,0.419,0.923,23.1,-18.1,10.59,3,1
18230.828,0.207,0.483,0.93,19.62,-25.67,11.63,3,1
18230.828,0.308,0.401,0.829,22.4,-29.36,14.31,3,1
18230.843,0.245,0.377,0.783,26.67,-25.82,12.21,3,1
18230.843,0.263,0.49,0.829,17.0,-24.84,15.5,3,1
18230.859,0.296,0.493,0.797,16.97,-24.29,18.98,3,1
18230.875,0.305,0.44,0.768,12.45,-22.0,17.76,3,1
18230.875,0.313,0.43,0.766,3.17,-18.68,14.65,3,1
18230.89,0.336,0.428,0.762,-0.61,-15.17,11.6,3,1
18230.906,0.365,0.405,0.766,-5.28,-5.58,5.86,3,1
18230.921,0.367,0.403,0.774,-5.92,-0.27,2.75,3,1
18230.921,0.365,0.414,0.791,-5.4,4.33,-0.37,3,1
18230.937,0.357,0.426,0.814,-4.33,8.21,-2.5,3,1
18230.953,0.335,0.434,0.848,-2.11,10.8,-3.45,3,1
18230.953,0.316,0.449,0.88,2.11,11.26,-2.75,3,1
18230.968,0.297,0.461,0.896,6.47,9.49,-1.37,3,1
18230.984,0.286,0.458,0.886,9.61,6.41,-0.61,3,1
18230.984,0.283,0.452,0.869,11.35,3.23,-0.64,3,1
18231.0,0.284,0.451,0.849,10.93,0.61,-0.85,3,1
18231.0,0.287,0.451,0.824,9.16,-0.64,-0.67,3,1
18231.015,0.288,0.449,0.805,6.87,-0.89,-0.27,3,1
18231.031,0.292,0.455,0.794,3.75,0.03,-0.18,3,1
18231.031,0.294,0.464,0.793,-0.37,1.8,-0.52,3,1
18231.046,0.297,0.464,0.796,-4.27,3.81,-0.89,3,1
18231.062,0.294,0.458,0.803,-6.65,6.04,-0.58,3,1
18231.078,0.288,0.453,0.84,-7.11,9.52,1.31,3,1
18231.093,0.28,0.448,0.861,-5.62,10.13,1.92,3,1
18231.093,0.272,0.445,0.878,0.49,7.26,3.48,3,1
18231.109,0.266,0.446,0.891,3.33,4.06,3.63,3,1
18231.125,0.262,0.443,0.897,5.68,0.52,3.02,3,1
18231.125,0.27,0.439,0.876,7.14,-3.27,2.44,3,1
18231.14,0.278,0.444,0.855,6.99,-6.26,1.95,3,1
18231.14,0.289,0.441,0.831,5.98,-8.06,1.68,3,1
18231.156,0.3,0.441,0.816,4.61,-8.36,1.31,3,1
18231.171,0.308,0.441,0.806,2.96,-7.2,0.92,3,1
18231.171,0.312,0.441,0.803,1.34,-5.46,0.46,3,1
18231.187,0.311,0.441,0.805,-0.58,-3.66,-0.27,3,1
18231.203,0.31,0.441,0.81,-2.35,-1.89,-1.37,3,1
18231.203,0.308,0.436,0.819,-3.51,-0.34,-2.56,3,1
18231.218,0.303,0.43,0.829,-4.24,0.52,-3.94,3,1
18231.234,0.3,0.428,0.841,-4.3,0.92,-5.49,3,1
18231.234,0.296,0.429,0.849,-3.45,1.01,-7.11,3,1
18231.25,0.292,0.436,0.846,-2.23,0.52,-8.27,3,1
18231.265,0.293,0.443,0.846,-1.01,0.24,-8.94,3,1
18231.265,0.293,0.442,0.845,0.89,0.61,-9.61,3,1
18231.281,0.291,0.443,0.83,3.57,1.22,-9.98,3,1
18231.281,0.305,0.445,0.817,4.43,3.17,-10.25,3,1
18231.296,0.319,0.433,0.799,5.62,6.84,-11.17,3,1
18231.312,0.335,0.416,0.754,7.66,13.03,-12.51,3,1
18231.312,0.344,0.418,0.72,7.26,21.03,-14.68,3,1
18231.328,0.348,0.423,0.712,5.28,30.61,-16.85,3,1
18231.343,0.304,0.434,0.753,2.41,39.03,-19.17,3,1
18231.343,0.212,0.527,0.897,-10.86,37.35,-20.17,3,1
18231.359,0.198,0.592,0.964,-22.98,25.73,-17.82,3,1
18231.375,0.277,0.493,0.848,-17.33,16.88,-15.38,3,1
18231.375,0.146,0.462,0.877,-14.68,16.91,-16.17,3,1
18231.39,0.159,0.612,0.983,-28.08,8.39,-10.41,3,1
18231.39,0.181,0.476,0.931,-18.13,1.25,-3.36,3,1
18231.406,0.166,0.466,0.897,-14.8,-1.83,2.9,3,1
18231.421,0.216,0.474,0.871,-14.19,-4.0,8.91,3,1
18231.421,0.214,0.422,0.86,-11.51,-3.75,9.95,3,1
18231.437,0.216,0.411,0.871,-10.96,-3.48,10.71,3,1
18231.453,0.234,0.419,0.865,-9.0,-3.94,11.78,3,1
18231.453,0.24,0.406,0.862,-5.95,-4.06,10.8,3,1
18231.468,0.241,0.397,0.876,-2.72,-4.85,9.0,3,1
18231.484,0.246,0.422,0.897,0.4,-6.41,7.87,3,1
18231.5,0.241,0.433,0.911,4.73,-8.67,7.66,3,1
18231.5,0.241,0.431,0.934,9.95,-12.05,8.06,3,1
18231.5,0.235,0.428,0.946,14.53,-16.21,8.79,3,1
18231.515,0.224,0.42,0.934,18.04,-21.15,9.16,3,1
18231.531,0.196,0.434,0.95,17.91,-27.47,9.22,3,1
18231.546,0.247,0.492,0.905,13.52,-37.78,10.1,3,1
18231.546,0.301,0.366,0.788,22.28,-39.12,10.8,3,1
18231.562,0.246,0.444,0.796,19.44,-36.96,9.7,3,1
18231.562,0.307,0.497,0.826,8.7,-37.97,14.47,3,1
18231.578,0.299,0.422,0.785,6.56,-36.77,12.91,3,1
18231.593,0.326,0.414,0.762,4.18,-33.54,11.81,3,1
18231.593,0.381,0.456,0.738,4.52,-27.47,10.19,3,1
18231.609,0.381,0.438,0.711,6.16,-18.56,7.81,3,1
18231.625,0.386,0.424,0.702,5.43,-9.0,6.93,3,1
18231.625,0.394,0.436,0.702,4.33,1.01,5.92,3,1
18231.64,0.373,0.44,0.724,2.66,10.56,3.63,3,1
18231.64,0.357,0.452,0.761,0.18,16.88,1.89,3,1
18231.656,0.334,0.47,0.812,-3.08,20.14,0.43,3,1
18231.671,0.296,0.473,0.866,-4.76,20.51,-0.24,3,1
18231.671,0.272,0.475,0.909,-4.18,17.3,0.76,3,1
18231.687,0.257,0.473,0.926,-3.36,11.63,2.5,3,1
18231.703,0.253,0.459,0.915,-2.41,5.22,3.88,3,1
18231.703,0.253,0.444,0.895,-1.31,-0.82,4.97,3,1
18231.718,0.265,0.432,0.872,-1.46,-5.13,5.62,3,1
18231.734,0.28,0.423,0.844,-2.23,-6.71,5.62,3,1
18231.734,0.286,0.41,0.821,-2.75,-6.5,4.43,3,1
18231.75,0.301,0.403,0.811,-3.05,-5.28,2.99,3,1
18231.765,0.315,0.405,0.807,-2.14,-3.14,1.4,3,1
18231.765,0.327,0.422,0.81,-1.01,-0.03,0.4,3,1
18231.781,0.322,0.436,0.819,0.4,2.81,-0.49,3,1
18231.796,0.314,0.443,0.835,2.2,4.46,-0.67,3,1
18231.796,0.309,0.461,0.845,3.17,4.18,-0.37,3,1
18231.812,0.31,0.474,0.844,2.78,3.2,-0.31,3,1
18231.812,0.308,0.47,0.834,1.59,2.69,-0.61,3,1
18231.828,0.299,0.462,0.824,-0.55,1.86,-1.31,3,1
18231.843,0.299,0.463,0.822,-2.87,1.22,-1.37,3,1
18231.859,0.296,0.466,0.828,-5.01,1.28,-0.92,3,1
18231.859,0.291,0.46,0.834,-6.2,1.62,0.18,3,1
18231.859,0.291,0.455,0.84,-6.44,1.68,1.62,3,1
18231.875,0.29,0.445,0.843,-5.71,1.74,2.9,3,1
18231.89,0.294,0.439,0.841,-4.58,2.04,4.27,3,1
18231.89,0.291,0.431,0.84,-3.91,2.29,4.91,3,1
18231.906,0.29,0.427,0.842,-3.63,2.56,4.82,3,1
18231.921,0.288,0.422,0.844,-3.63,2.5,4.39,3,1
18231.937,0.285,0.421,0.863,-4.0,1.62,2.81,3,1
18231.953,0.28,0.425,0.876,-3.54,-0.03,2.11,3,1
18231.953,0.283,0.425,0.884,-3.02,-2.66,0.95,3,1
18231.968,0.291,0.414,0.877,-2.01,-5.1,-0.37,3,1
18231.984,0.297,0.403,0.866,-0.4,-6.9,-2.11,3,1
18231.984,0.303,0.393,0.857,1.62,-7.14,-3.63,3,1
18232.0,0.318,0.391,0.821,3.45,-5.31,-5.13,3,1
18232.015,0.351,0.41,0.756,3.81,0.31,-5.58,3,1
18232.015,0.385,0.4,0.715,1.98,10.62,-6.9,3,1
18232.031,0.387,0.389,0.704,0.24,23.44,-8.94,3,1
18232.031,0.39,0.389,0.716,1.71,37.14,-10.07,3,1
18232.046,0.371,0.38,0.728,7.02,50.02,-11.41,3,1
18232.062,0.253,0.423,0.793,8.06,57.95,-13.49,3,1
18232.062,0.169,0.594,1.004,-15.05,46.21,-15.11,3,1
18232.078,0.24,0.446,0.96,-17.64,13.76,-21.94,3,1
18232.093,0.085,0.516,0.979,-26.43,-1.5,-14.65,3,1
18232.109,0.194,0.493,0.899,-4.79,-7.75,-1.86,3,1
18232.125,0.207,0.48,0.875,0.64,-7.66,6.96,3,1
18232.125,0.211,0.43,0.885,5.86,-7.51,12.39,3,1
18232.14,0.202,0.424,0.907,8.45,-8.61,17.24,3,1
18232.156,0.207,0.452,0.939,12.51,-11.02,21.73,3,1
18232.156,0.21,0.45,0.952,18.07,-14.65,25.85,3,1
18232.171,0.189,0.453,0.98,20.81,-20.66,29.6,3,1
18232.171,0.219,0.509,0.97,19.35,-31.59,34.64,3,1
18232.187,0.294,0.397,0.874,29.91,-36.07,39.7,3,1
18232.203,0.23,0.472,0.877,37.11,-35.62,44.37,3,1
18232.203,0.294,0.543,0.885,39.09,-36.77,60.67,3,1
18232.218,0.328,0.442,0.85,41.47,-39.03,67.81,3,1
18232.234,0.316,0.407,0.836,43.34,-35.71,71.17,3,1
18232.234,0.352,0.407,0.82,46.33,-33.6,72.08,3,1
18232.25,0.373,0.381,0.801,49.13,-30.52,67.6,3,1
18232.265,0.375,0.383,0.819,50.54,-26.7,61.62,3,1
18232.281,0.358,0.45,0.895,56.43,-20.17,58.78,3,1
18232.296,0.323,0.472,0.952,62.62,-16.05,64.64,3,1
18232.296,0.282,0.506,0.975,74.56,-15.05,76.3,3,1
18232.312,0.27,0.585,0.969,89.82,-15.5,91.49,3,1
18232.328,0.258,0.708,0.956,101.84,-15.44,106.51,3,1
18232.328,0.276,0.864,0.936,106.54,-12.94,121.07,3,1
18232.343,0.284,1.012,0.899,100.34,-7.02,135.93,3,1
18232.359,0.282,1.149,0.875,80.81,2.99,153.81,3,1
18232.359,0.263,1.249,0.865,52.61,21.79,172.7,3,1
18232.375,0.172,1.3,0.837,11.26,51.85,180.85,3,1
18232.375,0.143,1.153,0.777,-42.6,60.58,193.37,3,1
18232.39,0.228,1.16,0.796,-102.42,70.77,215.46,3,1
18232.39,0.174,1.063,0.806,-153.14,83.5,233.83,3,1
18232.406,0.232,0.852,0.912,-191.32,89.79,244.76,3,1
18232.421,0.213,0.663,0.98,-206.09,94.09,249.79,3,1
18232.421,0.152,0.526,0.99,-202.34,87.68,250.28,3,1
18232.437,0.173,0.429,1.003,-187.72,72.45,250.04,3,1
18232.453,0.23,0.334,0.991,-164.83,59.48,245.19,3,1
18232.453,0.257,0.258,0.948,-138.71,52.22,235.69,3,1
18232.468,0.249,0.163,0.883,-111.64,48.34,227.15,3,1
18232.484,0.257,0.105,0.822,-87.56,47.46,221.96,3,1
18232.484,0.27,0.109,0.758,-72.7,52.06,218.45,3,1
18232.5,0.256,0.115,0.71,-71.23,59.51,215.43,3,1
18232.515,0.228,0.112,0.68,-85.15,67.51,215.06,3,1
18232.515,0.186,0.052,0.668,-108.89,74.4,217.05,3,1
18232.531,0.157,-0.046,0.676,-133.7,79.62,220.07,3,1
18232.546,0.133,-0.163,0.7,-150.73,82.06,223.0,3,1
18232.546,0.123,-0.273,0.743,-158.02,82.09,224.49,3,1
18232.562,0.118,-0.385,0.776,-153.66,80.32,223.52,3,1
18232.578,0.11,-0.468,0.799,-139.16,75.81,218.79,3,1
18232.578,0.107,-0.508,0.82,-119.3,69.03,212.1,3,1
18232.593,0.094,-0.546,0.812,-98.39,61.86,205.85,3,1
18232.609,0.097,-0.621,0.78,-67.9,48.46,196.11,3,1
18232.625,0.117,-0.642,0.756,-59.21,44.92,191.47,3,1
18232.625,0.161,-0.668,0.732,-55.76,45.75,186.9,3,1
18232.64,0.154,-0.692,0.716,-55.18,50.39,180.3,3,1
18232.64,0.149,-0.719,0.686,-58.47,53.93,172.64,3,1
18232.656,0.156,-0.739,0.686,-63.94,58.5,162.42,3,1
18232.671,0.137,-0.766,0.695,-67.38,62.75,151.46,3,1
18232.671,0.13,-0.775,0.72,-70.22,65.68,140.26,3,1
18232.687,0.1,-0.767,0.773,-71.38,66.04,128.42,3,1
18232.703,0.062,-0.771,0.831,-68.27,62.44,118.81,3,1
18232.718,0.047,-0.783,0.862,-61.34,55.64,111.97,3,1
18232.718,0.032,-0.787,0.857,-52.77,47.76,106.57,3,1
18232.734,0.066,-0.775,0.825,-44.92,40.41,101.63,3,1
18232.734,0.089,-0.75,0.785,-40.65,38.15,93.08,3,1
18232.75,0.111,-0.732,0.757,-41.84,40.13,82.03,3,1
18232.75,0.106,-0.722,0.749,-47.27,44.62,69.34,3,1
18232.781,0.057,-0.736,0.754,-58.11,56.0,48.07,3,1
18232.781,0.031,-0.742,0.78,-59.85,61.86,40.53,3,1
18232.796,0.0,-0.741,0.828,-58.57,65.65,33.88,3,1
18232.812,-0.053,-0.736,0.861,-52.98,66.23,28.14,3,1
18232.828,-0.104,-0.732,0.874,-44.37,63.69,25.15,3,1
18232.828,-0.141,-0.701,0.885,-35.8,58.02,23.1,3,1
18232.843,-0.155,-0.668,0.875,-31.86,48.4,20.97,3,1
18232.843,-0.154,-0.646,0.844,-33.75,36.62,17.94,3,1
18232.859,-0.138,-0.629,0.804,-39.25,26.31,13.98,3,1
18232.875,-0.1,-0.623,0.777,-45.75,20.84,9.31,3,1
18232.875,-0.079,-0.634,0.758,-49.99,20.51,4.27,3,1
18232.89,-0.084,-0.65,0.756,-49.93,23.47,0.64,3,1
18232.89,-0.109,-0.658,0.761,-46.6,26.73,-1.34,3,1
18232.906,-0.117,-0.671,0.759,-41.41,28.35,-2.41,3,1
18232.921,-0.117,-0.665,0.778,-36.41,28.11,-3.42,3,1
18232.921,-0.139,-0.659,0.779,-30.67,26.0,-5.8,3,1
18232.937,-0.164,-0.651,0.759,-27.62,20.63,-8.45,3,1
18232.953,-0.159,-0.631,0.757,-27.56,13.31,-10.8,3,1
18232.968,-0.148,-0.627,0.752,-28.41,5.95,-11.66,3,1
18232.968,-0.14,-0.635,0.741,-30.09,-0.21,-10.99,3,1
18232.968,-0.122,-0.633,0.725,-32.72,-4.76,-9.06,3,1
18232.984,-0.092,-0.637,0.699,-35.68,-7.6,-7.87,3,1
18233.0,-0.068,-0.647,0.685,-38.03,-7.81,-8.39,3,1
18233.015,-0.061,-0.656,0.677,-38.42,-5.98,-9.77,3,1
18233.015,-0.075,-0.649,0.675,-36.71,-4.36,-11.17,3,1
18233.031,-0.078,-0.644,0.678,-34.15,-4.3,-9.64,3,1
18233.031,-0.087,-0.632,0.686,-30.52,-4.91,-6.47,3,1
18233.046,-0.091,-0.639,0.687,-26.4,-7.66,-2.14,3,1
18233.062,-0.066,-0.635,0.674,-24.99,-11.47,1.62,3,1
18233.078,-0.066,-0.649,0.66,-31.53,-19.23,4.85,3,1
18233.078,-0.029,-0.668,0.652,-32.41,-19.84,3.57,3,1
18233.093,-0.0,-0.682,0.652,-30.52,-18.07,2.93,3,1
18233.093,-0.042,-0.7,0.674,-27.86,-18.31,4.49,3,1
18233.109,-0.052,-0.692,0.674,-23.59,-19.26,6.65,3,1
18233.109,-0.076,-0.681,0.679,-20.84,-21.67,9.67,3,1
18233.125,-0.091,-0.683,0.67,-21.03,-27.07,13.0,3,1
18233.14,-0.047,-0.704,0.653,-24.05,-33.81,15.72,3,1
18233.156,-0.044,-0.709,0.655,-25.3,-34.91,15.63,3,1
18233.156,-0.069,-0.744,0.663,-24.93,-37.42,16.3,3,1
18233.171,-0.068,-0.75,0.661,-23.74,-41.69,18.04,3,1
18233.171,-0.111,-0.758,0.642,-22.13,-47.12,18.46,3,1
18233.187,-0.073,-0.758,0.634,-22.74,-55.24,21.15,3,1
18233.203,-0.024,-0.75,0.612,-22.28,-56.89,21.18,3,1
18233.203,-0.036,-0.758,0.584,-20.87,-53.1,18.1,3,1
18233.218,-0.039,-0.761,0.568,-19.75,-52.22,16.51,3,1
18233.234,-0.046,-0.772,0.566,-18.4,-52.31,17.43,3,1
18233.234,0.021,-0.756,0.568,-15.96,-50.97,19.1,3,1
18233.25,0.024,-0.76,0.542,-13.18,-43.92,17.76,3,1
18233.265,0.035,-0.772,0.532,-14.92,-39.28,18.28,3,1
18233.265,0.078,-0.769,0.539,-18.28,-34.18,17.46,3,1
18233.281,0.043,-0.775,0.543,-20.02,-25.12,13.7,3,1
18233.281,-0.001,-0.779,0.562,-21.58,-19.1,11.32,3,1
18233.296,-0.029,-0.792,0.592,-22.46,-16.57,11.44,3,1
18233.312,-0.037,-0.815,0.602,-21.09,-14.62,14.01,3,1
18233.312,-0.03,-0.832,0.611,-18.37,-13.58,15.99,3,1
18233.328,-0.019,-0.842,0.623,-15.17,-13.49,16.36,3,1
18233.343,0.008,-0.852,0.613,-12.85,-12.82,14.44,3,1
18233.343,0.032,-0.858,0.598,-11.6,-10.1,10.35,3,1
18233.359,0.034,-0.861,0.584,-10.47,-5.07,5.49,3,1
18233.359,0.042,-0.874,0.573,-9.46,0.52,0.73,3,1
18233.375,0.036,-0.863,0.584,-6.87,8.03,-3.94,3,1
18233.39,-0.015,-0.856,0.585,-3.17,16.6,-7.54,3,1
18233.39,-0.034,-0.856,0.587,-1.53,21.06,-9.16,3,1
18233.406,-0.034,-0.86,0.603,-0.64,24.23,-10.71,3,1
18233.421,-0.078,-0.839,0.617,1.53,28.02,-12.48,3,1
18233.421,-0.127,-0.795,0.646,3.02,26.86,-13.37,3,1
18233.437,-0.157,-0.756,0.685,2.75,21.09,-11.41,3,1
18233.453,-0.149,-0.74,0.681,0.79,13.21,-6.01,3,1
18233.453,-0.093,-0.737,0.664,-2.41,5.4,-0.58,3,1
18233.468,-0.031,-0.746,0.65,-5.71,0.89,2.62,3,1
18233.484,0.007,-0.766,0.628,-8.51,0.43,2.96,3,1
18233.484,0.034,-0.776,0.626,-10.32,2.59,1.4,3,1
18233.5,0.027,-0.769,0.637,-9.46,6.9,-1.53,3,1
18233.5,-0.009,-0.756,0.645,-6.5,10.86,-3.3,3,1
18233.515,-0.026,-0.743,0.651,-3.45,11.41,-2.99,3,1
18233.531,-0.038,-0.735,0.659,-0.64,10.07,-2.59,3,1
18233.531,-0.061,-0.728,0.669,1.8,8.27,-2.17,3,1
18233.546,-0.086,-0.729,0.668,2.99,5.04,-0.89,3,1
18233.562,-0.088,-0.73,0.662,2.23,0.27,1.31,3,1
18233.562,-0.078,-0.738,0.651,0.67,-3.6,2.59,3,1
18233.578,-0.077,-0.754,0.634,-0.43,-5.19,3.2,3,1
18233.593,-0.073,-0.771,0.621,-1.1,-5.43,3.39,3,1
18233.593,-0.056,-0.79,0.612,-0.79,-4.03,2.75,3,1
18233.609,-0.053,-0.795,0.607,0.43,-1.28,0.4,3,1
18233.609,-0.072,-0.79,0.614,1.71,2.01,-2.04,3,1
18233.625,-0.097,-0.786,0.635,2.81,5.01,-3.08,3,1
18233.64,-0.103,-0.782,0.646,4.46,6.13,-1.89,3,1
18233.64,-0.089,-0.775,0.647,6.93,6.13,-0.67,3,1
18233.656,-0.091,-0.759,0.646,8.27,6.65,0.03,3,1
18233.671,-0.105,-0.759,0.641,5.68,6.81,0.24,3,1
18233.687,-0.105,-0.767,0.653,1.68,5.77,0.92,3,1
18233.687,-0.087,-0.778,0.67,0.46,4.43,1.31,3,1
18233.703,-0.075,-0.785,0.67,2.11,3.81,0.85,3,1
18233.703,-0.075,-0.782,0.666,3.78,3.69,0.21,3,1
18233.718,-0.064,-0.784,0.668,3.72,2.59,-0.52,3,1
18233.734,-0.05,-0.787,0.664,3.69,1.8,-2.69,3,1
18233.734,-0.045,-0.779,0.663,4.55,1.89,-5.77,3,1
18233.75,-0.053,-0.761,0.664,5.77,2.69,-8.18,3,1
18233.765,-0.07,-0.745,0.654,6.71,3.88,-8.7,3,1
18233.765,-0.078,-0.728,0.654,6.41,4.03,-7.2,3,1
18233.781,-0.086,-0.714,0.661,5.07,3.3,-5.07,3,1
18233.781,-0.102,-0.714,0.655,2.14,3.02,-1.95,3,1
18233.796,-0.102,-0.719,0.659,-1.16,1.46,1.43,3,1
18233.812,-0.108,-0.72,0.677,-2.53,-0.52,3.88,3,1
18233.812,-0.11,-0.729,0.679,-2.23,-3.2,6.59,3,1
18233.828,-0.087,-0.741,0.668,-2.72,-6.65,9.03,3,1
18233.843,-0.059,-0.758,0.657,-3.39,-8.58,9.64,3,1
18233.843,-0.048,-0.769,0.65,-3.39,-8.03,8.12,3,1
18233.859,-0.044,-0.784,0.643,-1.8,-6.23,5.58,3,1
18233.859,-0.06,-0.775,0.648,0.7,-3.66,3.36,3,1
18233.875,-0.081,-0.768,0.646,1.98,-1.89,2.41,3,1
18233.89,-0.08,-0.766,0.647,0.37,-1.68,2.47,3,1
18233.89,-0.081,-0.765,0.651,-2.04,-1.01,2.35,3,1
18233.906,-0.093,-0.778,0.649,-4.36,-0.21,2.72,3,1
18233.921,-0.086,-0.782,0.665,-6.5,-0.52,3.11,3,1
18233.921,-0.099,-0.788,0.679,-6.07,-0.79,2.81,3,1
18233.937,-0.105,-0.795,0.675,-4.46,-1.83,3.05,3,1
18233.953,-0.089,-0.799,0.67,-2.9,-3.72,3.02,3,1
18233.953,-0.071,-0.802,0.657,-1.89,-4.85,1.19,3,1
18233.968,-0.07,-0.804,0.645,-1.92,-4.67,-1.89,3,1
18233.984,-0.064,-0.805,0.636,-1.4,-4.06,-4.85,3,1
18233.984,-0.063,-0.789,0.633,0.15,-2.96,-7.2,3,1
18234.0,-0.081,-0.767,0.63,1.37,-1.16,-8.12,3,1
18234.0,-0.085,-0.754,0.621,0.34,-0.64,-7.02,3,1
18234.015,-0.07,-0.747,0.622,-2.29,-0.67,-4.85,3,1
18234.031,-0.062,-0.752,0.618,-4.55,-0.31,-3.23,3,1
18234.046,-0.052,-0.764,0.619,-6.44,-0.06,-2.35,3,1
18234.046,-0.047,-0.771,0.616,-7.97,1.22,-1.86,3,1
18234.062,-0.05,-0.778,0.617,-7.23,1.8,-1.5,3,1
18234.062,-0.058,-0.781,0.623,-6.99,1.37,-0.27,3,1
18234.078,-0.06,-0.782,0.62,-7.97,0.18,0.43,3,1
18234.093,-0.058,-0.794,0.598,-9.58,-0.58,0.82,3,1
18234.093,-0.051,-0.803,0.584,-11.29,-1.4,1.22,3,1
18234.109,-0.047,-0.814,0.574,-13.37,-2.01,1.19,3,1
18234.125,-0.045,-0.831,0.569,-14.37,-1.77,1.59,3,1
18234.125,-0.046,-0.83,0.575,-13.89,-0.37,2.66,3,1
18234.14,-0.063,-0.817,0.592,-11.87,1.4,4.03,3,1
18234.14,-0.071,-0.807,0.594,-10.01,1.19,6.13,3,1
18234.156,-0.075,-0.8,0.588,-9.7,-0.18,8.21,3,1
18234.171,-0.07,-0.798,0.584,-10.77,-2.35,9.34,3,1
18234.171,-0.064,-0.802,0.576,-13.21,-4.76,9.37,3,1
18234.187,-0.057,-0.807,0.568,-15.96,-6.93,7.97,3,1
18234.203,-0.059,-0.819,0.571,-18.01,-8.06,5.86,3,1
18234.203,-0.076,-0.835,0.576,-16.79,-8.0,4.79,3,1
18234.218,-0.092,-0.84,0.574,-12.36,-8.09,5.8,3,1
18234.234,-0.099,-0.836,0.562,-7.29,-7.75,7.48,3,1
18234.234,-0.102,-0.827,0.544,-4.97,-7.57,8.3,3,1
18234.25,-0.101,-0.818,0.54,-6.47,-8.06,7.84,3,1
18234.265,-0.087,-0.815,0.55,-8.91,-8.45,6.71,3,1
18234.265,-0.086,-0.808,0.564,-9.89,-7.69,6.04,3,1
18234.281,-0.078,-0.807,0.574,-10.19,-7.42,5.95,3,1
18234.281,-0.072,-0.808,0.58,-9.77,-6.9,6.04,3,1
18234.296,-0.075,-0.815,0.576,-9.34,-5.98,6.29,3,1
18234.312,-0.079,-0.823,0.569,-9.58,-5.62,5.83,3,1
18234.328,-0.091,-0.834,0.563,-9.86,-5.83,4.85,3,1
18234.328,-0.102,-0.854,0.554,-9.83,-6.26,4.3,3,1
18234.343,-0.109,-0.87,0.542,-8.12,-6.56,4.06,3,1
18234.343,-0.118,-0.878,0.523,-4.94,-5.98,3.97,3,1
18234.359,-0.128,-0.872,0.502,-3.27,-4.97,3.85,3,1
18234.375,-0.131,-0.863,0.489,-4.85,-4.24,3.02,3,1
18234.375,-0.133,-0.869,0.489,-8.48,-4.15,1.5,3,1
18234.39,-0.13,-0.875,0.493,-10.19,-3.45,0.4,3,1
18234.406,-0.125,-0.874,0.5,-9.61,-2.44,-0.4,3,1
18234.406,-0.118,-0.871,0.506,-8.03,-0.98,-1.19,3,1
18234.421,-0.115,-0.872,0.507,-6.9,0.76,-1.92,3,1
18234.421,-0.11,-0.873,0.508,-7.39,2.53,-3.27,3,1
18234.437,-0.109,-0.878,0.509,-8.45,4.21,-4.79,3,1
18234.453,-0.11,-0.876,0.519,-9.22,5.43,-5.89,3,1
18234.453,-0.11,-0.876,0.522,-8.51,5.98,-6.5,3,1
18234.468,-0.106,-0.878,0.516,-7.26,6.41,-6.84,3,1
18234.484,-0.1,-0.88,0.518,-5.4,6.84,-7.08,3,1
18234.484,-0.094,-0.88,0.516,-2.11,7.51,-6.71,3,1
18234.5,-0.078,-0.866,0.513,0.52,8.45,-6.56,3,1
18234.5,-0.07,-0.853,0.516,0.52,9.92,-7.39,3,1
18234.515,-0.071,-0.848,0.528,-2.01,11.38,-8.61,3,1
18234.531,-0.08,-0.848,0.554,-4.36,11.57,-9.25,3,1
18234.546,-0.083,-0.847,0.564,-4.67,11.29,-8.85,3,1
18234.546,-0.082,-0.843,0.573,-4.91,10.41,-7.69,3,1
18234.562,-0.086,-0.842,0.578,-5.4,8.55,-6.78,3,1
18234.562,-0.073,-0.847,0.582,-6.87,5.62,-6.01,3,1
18234.578,-0.049,-0.851,0.584,-8.21,2.5,-5.77,3,1
18234.593,-0.03,-0.865,0.578,-8.15,0.73,-5.95,3,1
18234.593,-0.009,-0.868,0.58,-6.87,0.0,-6.01,3,1
18234.609,0.002,-0.856,0.579,-5.25,0.31,-6.1,3,1
18234.625,-0.012,-0.859,0.572,-5.13,0.15,-6.81,3,1
18234.625,0.032,-0.844,0.597,-5.98,-2.72,-6.93,3,1
18234.64,0.021,-0.824,0.598,-3.05,0.09,-10.01,3,1
18234.64,-0.011,-0.831,0.585,-1.65,2.14,-12.09,3,1
18234.656,0.003,-0.825,0.593,-1.8,1.04,-12.88,3,1
18234.671,0.004,-0.831,0.586,0.0,1.59,-14.07,3,1
18234.671,0.0,-0.822,0.58,0.43,1.46,-14.71,3,1
18234.687,-0.021,-0.821,0.58,-0.43,1.34,-15.02,3,1
18234.703,-0.041,-0.832,0.578,-1.8,-0.98,-14.28,3,1
18234.703,-0.033,-0.842,0.578,-2.41,-4.82,-13.21,3,1
18234.718,-0.038,-0.841,0.567,-1.19,-6.87,-13.15,3,1
18234.734,-0.044,-0.84,0.55,0.03,-7.93,-13.12,3,1
18234.734,-0.039,-0.838,0.539,0.49,-9.19,-12.73,3,1
18234.75,-0.043,-0.845,0.522,0.24,-9.22,-12.48,3,1
18234.75,-0.04,-0.846,0.516,0.0,-8.94,-12.24,3,1
18234.765,-0.042,-0.842,0.512,0.49,-7.87,-12.39,3,1
18234.781,-0.054,-0.846,0.5,0.76,-6.1,-11.72,3,1
18234.796,-0.047,-0.844,0.504,0.43,-5.52,-10.44,3,1
18234.796,-0.043,-0.833,0.51,0.89,-4.21,-9.83,3,1
18234.812,-0.051,-0.826,0.504,1.16,-2.56,-9.52,3,1
18234.812,-0.042,-0.829,0.505,0.82,-1.56,-9.19,3,1
18234.828,-0.03,-0.834,0.496,1.22,1.56,-9.67,3,1
18234.843,-0.034,-0.841,0.491,2.08,5.34,-10.83,3,1
18234.843,-0.038,-0.84,0.485,2.96,9.13,-11.96,3,1
18234.859,-0.042,-0.835,0.485,2.99,12.51,-13.46,3,1
18234.875,-0.046,-0.829,0.49,3.45,14.65,-15.69,3,1
18234.875,-0.046,-0.816,0.491,5.22,15.56,-18.04,3,1
18234.89,-0.047,-0.795,0.504,8.51,15.72,-20.26,3,1
18234.906,-0.051,-0.772,0.509,13.03,15.59,-21.55,3,1
18234.906,-0.05,-0.746,0.504,15.47,15.11,-20.81,3,1
18234.921,-0.038,-0.726,0.504,15.02,15.23,-18.83,3,1
18234.921,-0.034,-0.722,0.489,12.97,17.7,-16.08,3,1
18234.937,-0.023,-0.727,0.484,9.89,21.76,-12.18,3,1
18234.953,-0.018,-0.734,0.495,6.87,27.13,-7.69,3,1
18234.953,-0.029,-0.749,0.513,4.79,32.93,-3.3,3,1
18234.968,-0.029,-0.763,0.537,2.93,37.32,0.85,3,1
18234.984,-0.03,-0.781,0.561,1.04,40.65,3.36,3,1
18234.984,-0.046,-0.81,0.572,-0.34,42.3,3.6,3,1
18235.0,-0.06,-0.834,0.589,-0.46,41.93,1.65,3,1
18235.0,-0.078,-0.845,0.603,1.07,40.31,-1.31,3,1
18235.015,-0.076,-0.849,0.607,4.12,38.12,-3.85,3,1
18235.031,-0.067,-0.836,0.614,9.7,37.14,-6.99,3,1
18235.031,-0.062,-0.819,0.617,8.61,37.63,-7.78,3,1
18235.046,-0.06,-0.807,0.624,5.22,38.64,-7.66,3,1
18235.062,-0.05,-0.796,0.636,-0.06,38.09,-8.33,3,1
18235.062,-0.073,-0.828,0.674,-4.67,40.5,-6.2,3,1
18235.078,-0.114,-0.86,0.666,-5.01,38.12,-4.39,3,1
18235.093,-0.072,-0.867,0.692,-4.94,37.32,-1.59,3,1
18235.093,-0.099,-0.867,0.671,-2.14,38.58,-3.23,3,1
18235.109,-0.106,-0.874,0.665,-2.26,35.95,-6.9,3,1
18235.125,-0.11,-0.876,0.672,-4.15,33.85,-10.35,3,1
18235.125,-0.119,-0.871,0.669,-4.85,32.93,-13.7,3,1
18235.14,-0.138,-0.873,0.652,-5.22,30.09,-16.33,3,1
18235.14,-0.113,-0.865,0.656,-5.62,27.41,-17.88,3,1
18235.156,-0.105,-0.851,0.643,-4.21,27.95,-20.54,3,1
18235.171,-0.105,-0.832,0.637,-4.33,28.69,-22.13,3,1
18235.171,-0.104,-0.814,0.652,-5.37,30.06,-21.76,3,1
18235.187,-0.109,-0.799,0.656,-5.43,30.43,-21.09,3,1
18235.203,-0.104,-0.767,0.667,-5.62,28.66,-20.91,3,1
18235.203,-0.102,-0.728,0.687,-4.94,26.31,-21.33,3,1
18235.218,-0.125,-0.669,0.715,-3.48,22.92,-20.51,3,1
18235.234,-0.133,-0.616,0.719,-2.32,17.49,-15.35,3,1
18235.234,-0.098,-0.584,0.717,-3.85,11.75,-5.8,3,1
18235.25,-0.064,-0.577,0.709,-8.79,8.15,5.16,3,1
18235.265,-0.028,-0.6,0.665,-15.56,8.09,15.5,3,1
18235.265,-0.015,-0.651,0.64,-21.91,10.22,23.19,3,1
18235.281,-0.046,-0.721,0.623,-25.51,12.76,27.99,3,1
18235.296,-0.077,-0.779,0.601,-25.91,13.64,29.76,3,1
18235.296,-0.115,-0.837,0.574,-22.83,13.34,28.17,3,1
18235.312,-0.119,-0.875,0.548,-19.23,12.33,24.66,3,1
18235.312,-0.121,-0.902,0.53,-16.45,13.34,19.47,3,1
18235.328,-0.122,-0.921,0.532,-15.23,16.14,14.34,3,1
18235.343,-0.139,-0.938,0.557,-14.53,19.23,9.49,3,1
18235.359,-0.163,-0.946,0.572,-13.37,21.58,5.71,3,1
18235.359,-0.168,-0.955,0.582,-12.79,21.7,2.59,3,1
18235.375,-0.184,-0.973,0.592,-12.18,20.81,-1.19,3,1
18235.375,-0.192,-0.982,0.598,-10.5,18.86,-5.43,3,1
18235.39,-0.19,-0.977,0.596,-8.27,16.88,-10.59,3,1
18235.406,-0.206,-0.956,0.587,-6.53,15.47,-16.27,3,1
18235.406,-0.219,-0.948,0.577,-6.53,13.31,-19.99,3,1
18235.421,-0.22,-0.941,0.56,-8.27,11.54,-21.97,3,1
18235.421,-0.195,-0.939,0.545,-10.22,10.62,-23.5,3,1
18235.437,-0.176,-0.937,0.535,-11.99,10.65,-26.31,3,1
18235.453,-0.149,-0.927,0.532,-12.82,11.47,-30.58,3,1
18235.453,-0.144,-0.9,0.539,-12.42,13.34,-35.49,3,1
18235.468,-0.154,-0.869,0.552,-11.44,15.35,-39.77,3,1
18235.484,-0.165,-0.828,0.576,-9.09,16.11,-41.08,3,1
18235.484,-0.177,-0.785,0.576,-8.33,15.44,-38.7,3,1
18235.5,-0.144,-0.764,0.553,-11.51,13.73,-35.0,3,1
18235.515,-0.113,-0.758,0.532,-14.56,13.37,-32.17,3,1
18235.515,-0.115,-0.762,0.508,-16.27,15.69,-28.29,3,1
18235.531,-0.096,-0.756,0.507,-17.33,18.89,-22.89,3,1
18235.531,-0.098,-0.741,0.517,-16.82,22.95,-17.7,3,1
18235.546,-0.102,-0.736,0.53,-16.63,25.73,-11.96,3,1
18235.562,-0.098,-0.735,0.541,-16.48,26.73,-6.59,3,1
18235.562,-0.117,-0.749,0.517,-16.91,27.59,-1.34,3,1
18235.578,-0.118,-0.773,0.497,-20.54,27.99,4.3,3,1
18235.593,-0.089,-0.816,0.494,-23.9,28.11,8.18,3,1
18235.593,-0.086,-0.849,0.495,-22.95,30.12,9.16,3,1
18235.609,-0.094,-0.866,0.504,-19.26,32.47,9.28,3,1
18235.609,-0.12,-0.875,0.505,-15.78,33.81,9.28,3,1
18235.625,-0.153,-0.896,0.483,-14.16,33.33,9.09,3,1
18235.64,-0.153,-0.912,0.464,-15.41,31.04,8.45,3,1
18235.64,-0.137,-0.928,0.46,-16.02,29.15,5.98,3,1
18235.656,-0.109,-0.928,0.484,-13.4,28.41,3.14,3,1
18235.671,-0.082,-0.91,0.518,-9.13,28.44,0.49,3,1
18235.671,-0.069,-0.889,0.557,-5.4,28.23,-2.14,3,1
18235.687,-0.095,-0.882,0.576,-4.18,25.88,-4.3,3,1
18235.703,-0.11,-0.895,0.572,-5.95,21.18,-5.71,3,1
18235.703,-0.072,-0.906,0.592,-7.26,14.77,-7.51,3,1
18235.718,-0.052,-0.895,0.615,-4.18,9.67,-10.07,3,1
18235.734,-0.05,-0.873,0.635,1.22,5.31,-11.87,3,1
18235.734,-0.062,-0.846,0.676,5.92,-1.07,-13.25,3,1
18235.75,-0.076,-0.835,0.699,12.24,-10.32,-14.07,3,1
18235.765,-0.076,-0.806,0.713,17.76,-22.19,-13.67,3,1
18235.765,-0.103,-0.794,0.665,20.51,-35.07,-14.22,3,1
18235.781,-0.117,-0.829,0.582,17.15,-48.01,-15.59,3,1
18235.781,-0.112,-0.868,0.492,13.12,-57.99,-19.07,3,1
18235.796,-0.104,-0.88,0.405,12.79,-61.95,-23.62,3,1
18235.812,-0.14,-0.894,0.307,14.01,-57.62,-26.92,3,1
18235.812,-0.117,-0.902,0.281,13.43,-49.17,-25.42,3,1
18235.828,-0.134,-0.899,0.269,13.15,-37.54,-22.16,3,1
18235.843,-0.15,-0.876,0.278,9.92,-25.09,-16.72,3,1
18235.859,-0.154,-0.872,0.315,5.25,-15.38,-13.0,3,1
18235.859,-0.163,-0.868,0.323,2.96,-8.61,-10.62,3,1
18235.875,-0.166,-0.867,0.325,0.55,-2.93,-7.66,3,1
18235.875,-0.133,-0.881,0.359,-1.01,1.95,-5.04,3,1
18235.89,-0.1,-0.895,0.389,-0.64,7.39,-2.72,3,1
18235.906,-0.119,-0.893,0.42,-0.85,13.15,-1.37,3,1
18235.906,-0.135,-0.908,0.448,-2.44,15.75,0.21,3,1
18235.921,-0.124,-0.947,0.458,-3.85,16.45,1.13,3,1
18235.921,-0.128,-0.974,0.455,-5.19,16.97,-1.19,3,1
18235.937,-0.097,-0.999,0.429,-8.33,18.19,-5.55,3,1
18235.953,-0.105,-1.009,0.436,-8.27,22.86,-11.05,3,1
18235.968,-0.1,-0.975,0.475,-5.13,26.7,-14.5,3,1
18235.968,-0.09,-0.909,0.508,-3.57,28.08,-15.47,3,1
18235.984,-0.107,-0.876,0.531,-5.65,27.89,-15.05,3,1
18235.984,-0.099,-0.866,0.525,-9.37,26.49,-11.9,3,1
18236.0,-0.108,-0.878,0.481,-13.64,26.7,-8.45,3,1
18236.015,-0.109,-0.923,0.435,-18.62,28.78,-6.38,3,1
18236.015,-0.064,-0.959,0.43,-18.04,41.38,-7.11,3,1
18236.031,-0.073,-0.974,0.442,-17.0,48.83,-8.12,3,1
18236.031,-0.078,-0.989,0.473,-17.82,54.11,-7.48,3,1
18236.046,-0.045,-0.976,0.529,-20.2,57.01,-7.93,3,1
18236.062,-0.021,-0.987,0.688,-23.13,53.41,-10.59,3,1
18236.062,0.008,-0.987,0.736,-22.61,44.04,-16.6,3,1
18236.078,-0.027,-0.965,0.723,-17.88,31.92,-26.58,3,1
18236.093,-0.073,-0.955,0.635,-13.43,19.01,-36.5,3,1
18236.109,-0.073,-0.941,0.539,-12.02,9.77,-44.1,3,1
18236.109,-0.066,-0.918,0.472,-10.8,6.84,-47.85,3,1
18236.125,-0.034,-0.901,0.442,-9.52,8.06,-48.04,3,1
18236.125,0.011,-0.858,0.446,-7.66,11.35,-46.72,3,1
18236.14,-0.001,-0.823,0.454,-5.19,15.02,-43.61,3,1
18236.156,-0.03,-0.782,0.476,-5.68,15.84,-38.42,3,1
18236.156,-0.052,-0.776,0.5,-6.93,13.61,-31.19,3,1
18236.171,-0.063,-0.813,0.473,-8.18,9.4,-22.86,3,1
18236.171,-0.041,-0.843,0.431,-9.4,6.1,-18.43,3,1
18236.187,-0.036,-0.869,0.425,-8.15,5.55,-16.63,3,1
18236.203,-0.044,-0.874,0.419,-6.32,5.01,-15.29,3,1
18236.203,-0.023,-0.88,0.411,-5.16,3.2,-15.84,3,1
18236.218,-0.021,-0.884,0.424,-2.08,1.37,-17.21,3,1
18236.234,-0.013,-0.865,0.439,1.8,-1.86,-18.89,3,1
18236.234,0.014,-0.839,0.469,6.41,-7.35,-20.94,3,1
18236.25,0.04,-0.784,0.503,12.42,-14.98,-23.32,3,1
18236.265,0.072,-0.713,0.55,20.26,-25.64,-24.87,3,1
18236.265,0.124,-0.653,0.606,30.95,-38.67,-23.29,3,1
18236.281,0.127,-0.584,0.593,41.26,-50.97,-18.74,3,1
18236.281,0.0,-0.558,0.496,42.76,-59.91,-10.13,3,1
18236.296,-0.117,-0.639,0.326,32.87,-63.88,0.64,3,1
18236.312,-0.104,-0.755,0.185,21.09,-59.39,11.08,3,1
18236.312,-0.054,-0.842,0.145,15.69,-43.58,19.9,3,1
18236.328,-0.03,-0.88,0.187,14.65,-22.34,24.96,3,1
18236.343,-0.042,-0.879,0.279,13.21,-3.85,27.34,3,1
18236.343,-0.105,-0.92,0.344,9.7,8.03,29.33,3,1
18236.359,-0.112,-0.993,0.416,4.61,12.21,29.82,3,1
18236.375,-0.091,-1.043,0.477,2.66,11.38,26.09,3,1
18236.375,-0.079,-1.065,0.513,3.42,7.97,18.49,3,1
18236.39,-0.07,-1.08,0.555,6.32,2.66,8.51,3,1
18236.39,-0.061,-1.071,0.568,11.08,-3.66,-0.73,3,1
18236.406,-0.044,-1.043,0.54,13.89,-8.85,-8.82,3,1
18236.421,-0.029,-1.018,0.506,14.92,-11.32,-15.93,3,1
18236.421,-0.028,-0.99,0.472,14.83,-10.77,-20.48,3,1
18236.437,-0.017,-0.954,0.454,13.09,-7.93,-21.58,3,1
18236.453,-0.018,-0.923,0.456,11.75,-3.72,-20.2,3,1
18236.453,-0.008,-0.898,0.466,11.11,0.52,-15.17,3,1
18236.468,0.007,-0.87,0.483,7.35,3.14,-7.75,3,1
18236.484,0.021,-0.865,0.501,1.95,3.78,-1.34,3,1
18236.484,0.019,-0.872,0.518,0.0,3.08,3.78,3,1
18236.5,0.001,-0.874,0.52,0.37,1.01,9.03,3,1
18236.5,0.008,-0.893,0.496,-0.61,-2.14,12.51,3,1
18236.515,0.037,-0.93,0.474,-0.61,-3.57,13.34,3,1
18236.531,0.024,-0.937,0.456,1.13,-2.44,12.79,3,1
18236.531,-0.014,-0.951,0.437,0.95,-0.64,12.36,3,1
18236.546,-0.024,-0.964,0.418,-1.65,1.62,11.96,3,1
18236.562,-0.024,-0.969,0.411,-3.54,5.07,11.2,3,1
18236.562,-0.025,-0.962,0.422,-4.39,8.7,11.08,3,1
18236.578,-0.004,-0.954,0.452,-4.85,10.62,10.77,3,1
18236.593,0.017,-0.943,0.481,-4.52,10.5,9.03,3,1
18236.593,0.022,-0.93,0.496,-3.69,9.16,6.81,3,1
18236.609,0.011,-0.923,0.491,-3.78,7.2,4.33,3,1
18236.625,-0.008,-0.923,0.47,-4.24,5.19,1.56,3,1
18236.625,-0.009,-0.921,0.453,-4.46,4.0,-0.79,3,1
18236.64,-0.003,-0.909,0.458,-4.06,3.57,-2.44,3,1
18236.64,0.015,-0.89,0.475,-3.3,2.9,-3.42,3,1
18236.656,0.023,-0.866,0.481,-1.86,2.29,-4.88,3,1
18236.671,0.02,-0.842,0.485,-0.03,1.43,-5.19,3,1
18236.671,0.025,-0.808,0.492,0.61,-0.12,-3.78,3,1
18236.687,0.028,-0.792,0.491,-0.18,-1.95,-1.16,3,1
18236.703,0.01,-0.803,0.477,-2.08,-2.44,3.6,3,1
18236.703,-0.007,-0.82,0.452,-4.91,-1.74,9.22,3,1
18236.718,-0.018,-0.85,0.437,-8.03,-0.4,14.07,3,1
18236.734,-0.013,-0.884,0.428,-10.86,2.17,17.82,3,1
18236.734,0.005,-0.913,0.448,-12.42,5.28,19.81,3,1
18236.75,-0.005,-0.934,0.48,-11.6,7.9,19.75,3,1
18236.765,-0.018,-0.945,0.515,-10.25,7.78,17.94,3,1
18236.765,-0.025,-0.963,0.546,-9.13,4.55,15.17,3,1
18236.781,-0.023,-0.984,0.562,-7.57,-0.24,11.75,3,1
18236.781,-0.01,-1.0,0.571,-4.12,-5.77,7.11,3,1
18236.796,0.008,-0.998,0.562,0.03,-11.29,1.89,3,1
18236.812,0.009,-0.983,0.535,2.9,-15.72,-3.78,3,1
18236.812,0.009,-0.969,0.518,4.09,-19.2,-8.39,3,1
18236.828,-0.001,-0.946,0.495,4.73,-20.91,-10.96,3,1
18236.843,0.0,-0.918,0.475,3.66,-20.81,-10.93,3,1
18236.843,-0.008,-0.891,0.468,1.89,-19.65,-9.43,3,1
18236.859,-0.016,-0.877,0.458,0.64,-18.83,-6.9,3,1
18236.875,-0.019,-0.864,0.437,-1.34,-17.4,-3.45,3,1
18236.875,-0.025,-0.853,0.419,-3.57,-15.05,-0.09,3,1
18236.89,-0.046,-0.857,0.406,-5.71,-11.84,4.36,3,1
18236.89,-0.062,-0.862,0.399,-8.3,-8.64,8.82,3,1
18236.906,-0.076,-0.876,0.404,-9.55,-6.07,11.23,3,1
18236.921,-0.08,-0.889,0.411,-8.0,-4.21,12.24,3,1
18236.921,-0.094,-0.881,0.423,-6.07,-2.93,12.36,3,1
18236.937,-0.088,-0.882,0.428,-5.28,-3.08,11.75,3,1
18236.953,-0.084,-0.88,0.432,-4.7,-4.0,10.5,3,1
18236.953,-0.107,-0.892,0.42,-3.97,-4.55,9.0,3,1
18236.968,-0.119,-0.897,0.401,-3.85,-5.34,7.51,3,1
18236.984,-0.117,-0.908,0.387,-2.81,-5.77,5.62,3,1
18236.984,-0.103,-0.915,0.371,-1.92,-4.24,3.54,3,1
18237.0,-0.088,-0.91,0.376,0.76,1.43,-0.73,3,1
18237.015,-0.096,-0.897,0.396,0.82,2.87,-0.76,3,1
18237.015,-0.101,-0.881,0.416,-0.89,2.56,-0.24,3,1
18237.031,-0.104,-0.89,0.426,-1.53,1.62,0.12,3,1
18237.031,-0.071,-0.923,0.411,-1.22,1.68,0.12,3,1
18237.046,-0.057,-0.934,0.415,-0.95,2.72,-0.73,3,1
18237.062,-0.044,-0.944,0.428,0.0,3.69,-2.53,3,1
18237.078,-0.033,-0.944,0.439,1.65,4.46,-4.55,3,1
18237.078,-0.024,-0.94,0.45,2.96,4.64,-6.84,3,1
18237.093,-0.011,-0.926,0.469,4.09,4.24,-8.97,3,1
18237.093,0.004,-0.906,0.484,4.46,3.78,-9.89,3,1
18237.109,0.01,-0.891,0.496,3.17,3.02,-9.92,3,1
18237.125,0.007,-0.889,0.499,1.01,1.95,-9.37,3,1
18237.125,0.004,-0.895,0.489,-0.95,0.55,-8.39,3,1
18237.14,0.01,-0.903,0.463,-2.11,-0.34,-8.03,3,1
18237.14,0.016,-0.898,0.44,-3.11,0.0,-8.76,3,1
18237.156,0.017,-0.889,0.439,-3.48,1.53,-9.92,3,1
18237.171,0.031,-0.864,0.457,-2.9,3.23,-9.7,3,1
18237.171,0.036,-0.836,0.487,-2.69,4.49,-7.32,3,1
18237.187,0.031,-0.831,0.512,-3.94,3.97,-2.81,3,1
18237.203,0.036,-0.836,0.531,-5.49,1.04,1.83,3,1
18237.203,0.029,-0.849,0.533,-5.07,-3.2,4.91,3,1
18237.218,0.021,-0.866,0.5,-4.36,-7.57,6.29,3,1
18237.234,0.005,-0.886,0.463,-4.52,-11.02,5.34,3,1
18237.234,0.004,-0.908,0.419,-3.97,-12.67,3.17,3,1
18237.25,0.022,-0.913,0.393,-2.17,-11.38,1.07,3,1
18237.265,0.018,-0.895,0.404,0.18,-7.78,0.09,3,1
18237.265,-0.001,-0.877,0.422,1.86,-4.64,1.5,3,1
18237.281,-0.017,-0.865,0.446,0.92,-3.36,5.46,3,1
18237.281,-0.019,-0.882,0.453,-2.2,-3.51,9.4,3,1
18237.296,-0.021,-0.921,0.45,-4.39,-3.97,11.96,3,1
18237.312,-0.024,-0.957,0.441,-4.21,-3.81,13.64,3,1
18237.312,-0.024,-0.978,0.432,-3.97,-3.39,13.86,3,1
18237.328,-0.021,-0.999,0.433,-4.36,-3.54,11.6,3,1
18237.343,-0.039,-1.017,0.434,-3.75,-3.81,7.63,3,1
18237.359,-0.048,-1.022,0.433,-2.9,-4.73,2.96,3,1
18237.359,-0.053,-1.016,0.429,-1.98,-5.74,-2.08,3,1
18237.375,-0.06,-0.998,0.431,-1.43,-6.35,-6.38,3,1
18237.375,-0.051,-0.976,0.438,-0.82,-6.87,-9.7,3,1
18237.39,-0.044,-0.95,0.459,-0.24,-7.2,-11.84,3,1
18237.406,-0.046,-0.92,0.471,1.19,-7.51,-12.76,3,1
18237.406,-0.04,-0.895,0.461,1.59,-8.39,-12.3,3,1
18237.421,-0.025,-0.879,0.451,-0.06,-8.91,-11.08,3,1
18237.421,-0.016,-0.868,0.45,-1.71,-8.48,-9.64,3,1
18237.437,-0.016,-0.864,0.452,-2.41,-7.54,-7.69,3,1
18237.453,-0.019,-0.856,0.45,-3.33,-6.16,-4.88,3,1
18237.453,-0.015,-0.86,0.454,-4.52,-5.13,-2.38,3,1
18237.468,-0.012,-0.867,0.457,-5.68,-4.55,-0.18,3,1
18237.484,-0.017,-0.878,0.472,-6.84,-4.03,1.98,3,1
18237.484,-0.032,-0.896,0.48,-7.51,-4.43,4.12,3,1
18237.5,-0.04,-0.917,0.464,-7.66,-5.4,6.01,3,1
18237.5,-0.047,-0.95,0.431,-8.91,-5.74,6.71,3,1
18237.515,-0.043,-0.978,0.415,-10.62,-5.22,5.49,3,1
18237.531,-0.044,-0.996,0.408,-10.13,-4.06,3.08,3,1
18237.531,-0.038,-0.994,0.403,-8.51,-2.5,0.4,3,1
18237.546,-0.037,-0.979,0.414,-7.35,-1.31,-2.69,3,1
18237.562,-0.05,-0.971,0.417,-5.34,-0.95,-5.58,3,1
18237.562,-0.044,-0.949,0.42,-3.72,-2.41,-7.39,3,1
18237.578,-0.034,-0.937,0.409,-2.87,-3.91,-8.51,3,1
18237.593,-0.022,-0.935,0.392,-3.05,-4.3,-8.88,3,1
18237.593,-0.012,-0.935,0.383,-3.2,-3.94,-8.51,3,1
18237.609,-0.016,-0.933,0.378,-3.23,-2.72,-8.21,3,1
18237.625,-0.026,-0.938,0.372,-3.08,-1.92,-8.18,3,1
18237.625,-0.031,-0.946,0.366,-3.14,-1.74,-8.73,3,1
18237.64,-0.023,-0.969,0.371,-2.35,-1.62,-10.56,3,1
18237.64,-0.027,-0.985,0.379,-0.95,-0.92,-13.31,3,1
18237.656,-0.03,-0.986,0.391,0.21,-0.55,-17.21,3,1
18237.671,-0.04,-0.96,0.399,-0.58,-1.53,-22.16,3,1
18237.671,-0.032,-0.944,0.415,-3.08,-3.48,-26.52,3,1
18237.687,-0.021,-0.916,0.416,-5.37,-5.74,-29.57,3,1
18237.703,-0.003,-0.897,0.422,-8.15,-8.7,-32.17,3,1
18237.703,0.014,-0.898,0.425,-7.54,-10.8,-34.18,3,1
18237.718,0.032,-0.872,0.419,-2.99,-11.75,-35.0,3,1
18237.734,0.036,-0.828,0.397,1.1,-11.05,-34.49,3,1
18237.734,0.039,-0.797,0.385,1.68,-9.43,-31.71,3,1
18237.75,0.037,-0.773,0.382,0.76,-6.9,-26.86,3,1
18237.75,0.047,-0.764,0.373,-0.46,-3.97,-19.38,3,1
18237.765,0.064,-0.75,0.375,-1.65,-0.27,-10.9,3,1
18237.781,0.059,-0.749,0.382,-1.86,3.51,-2.99,3,1
18237.781,0.051,-0.766,0.386,-2.81,6.2,4.85,3,1
18237.796,0.056,-0.791,0.39,-4.24,7.66,11.35,3,1
18237.812,0.053,-0.828,0.394,-5.01,9.06,15.84,3,1
18237.812,0.055,-0.86,0.403,-6.13,9.95,19.04,3,1
18237.828,0.055,-0.887,0.416,-6.32,10.5,20.48,3,1
18237.843,0.051,-0.908,0.432,-5.46,9.89,19.96,3,1
18237.843,0.044,-0.92,0.443,-3.69,7.78,17.33,3,1
18237.859,0.029,-0.929,0.44,-0.7,4.61,14.13,3,1
18237.875,0.02,-0.942,0.416,1.53,1.22,11.41,3,1
18237.875,0.038,-0.959,0.376,1.83,-1.01,8.73,3,1
18237.89,0.047,-0.969,0.359,2.17,-0.46,5.37,3,1
18237.89,0.051,-0.974,0.36,3.51,1.74,2.53,3,1
18237.906,0.06,-0.964,0.379,5.34,4.52,1.43,3,1
