timestamp,ax,ay,az,gx,gy,gz,orient_label,motion_label
18247.015,0.158,-0.823,0.501,9.43,-7.32,-10.68,3,1
18247.015,0.144,-0.792,0.516,9.13,-5.71,-9.09,3,1
18247.031,0.126,-0.787,0.521,6.44,-4.79,-4.18,3,1
18247.046,0.137,-0.8,0.506,3.23,-4.49,1.25,3,1
18247.046,0.144,-0.82,0.5,1.68,-3.02,5.19,3,1
18247.062,0.145,-0.827,0.509,0.7,-1.04,8.73,3,1
18247.062,0.156,-0.831,0.512,-1.16,-0.21,11.41,3,1
18247.078,0.157,-0.845,0.518,-2.53,0.55,12.42,3,1
18247.093,0.136,-0.846,0.543,-2.04,1.43,12.94,3,1
18247.093,0.101,-0.848,0.585,-0.79,0.49,14.19,3,1
18247.109,0.098,-0.86,0.564,0.06,-3.3,15.2,3,1
18247.125,0.112,-0.87,0.523,-2.47,-6.26,15.14,3,1
18247.125,0.114,-0.902,0.513,-4.18,-6.2,12.85,3,1
18247.14,0.105,-0.886,0.513,-1.68,-4.61,9.8,3,1
18247.14,0.099,-0.873,0.51,1.04,-3.75,6.78,3,1
18247.156,0.103,-0.853,0.516,1.83,-3.69,4.52,3,1
18247.171,0.106,-0.834,0.542,2.17,-3.94,3.02,3,1
18247.187,0.101,-0.796,0.57,4.24,-8.79,3.75,3,1
18247.203,0.089,-0.818,0.552,2.72,-12.18,4.76,3,1
18247.203,0.119,-0.85,0.552,2.96,-14.47,5.4,3,1
18247.218,0.14,-0.868,0.556,6.87,-15.08,3.51,3,1
18247.234,0.136,-0.874,0.594,10.41,-15.29,-0.27,3,1
18247.234,0.134,-0.886,0.657,14.28,-17.88,-5.28,3,1
18247.25,0.155,-0.901,0.725,20.33,-24.41,-10.38,3,1
18247.25,0.183,-0.903,0.782,28.26,-33.81,-17.12,3,1
18247.265,0.212,-0.893,0.835,36.68,-45.96,-26.73,3,1
18247.281,0.238,-0.863,0.893,46.54,-60.64,-38.58,3,1
18247.281,0.244,-0.796,0.939,57.95,-76.51,-51.03,3,1
18247.296,0.249,-0.716,0.963,69.55,-92.78,-62.81,3,1
18247.312,0.259,-0.636,0.964,82.06,-108.16,-74.04,3,1
18247.312,0.243,-0.581,0.95,94.21,-121.65,-86.03,3,1
18247.328,0.22,-0.536,0.932,106.63,-133.06,-97.45,3,1
18247.343,0.196,-0.48,0.911,118.93,-140.54,-106.33,3,1
18247.359,0.134,-0.413,0.885,127.75,-144.47,-113.22,3,1
18247.359,0.056,-0.36,0.885,131.75,-146.79,-116.34,3,1
18247.375,0.03,-0.317,0.909,132.33,-151.28,-114.29,3,1
18247.375,0.093,-0.279,0.904,129.86,-157.41,-110.05,3,1
18247.39,0.138,-0.276,0.849,125.46,-158.51,-109.26,3,1
18247.406,0.174,-0.307,0.799,122.47,-155.74,-111.12,3,1
18247.406,0.236,-0.331,0.75,124.64,-149.69,-113.74,3,1
18247.421,0.296,-0.346,0.681,131.53,-137.76,-118.69,3,1
18247.437,0.344,-0.37,0.613,140.78,-119.21,-126.65,3,1
18247.437,0.383,-0.396,0.552,150.7,-94.36,-136.02,3,1
18247.453,0.401,-0.415,0.506,161.53,-64.55,-145.63,3,1
18247.468,0.391,-0.426,0.473,172.77,-31.19,-154.76,3,1
18247.468,0.43,-0.411,0.444,182.9,3.78,-162.94,3,1
18247.484,0.397,-0.358,0.413,188.06,34.85,-175.88,3,1
18247.484,0.312,-0.422,0.413,183.36,64.42,-180.91,3,1
18247.5,0.357,-0.4,0.438,171.09,86.55,-183.81,3,1
18247.515,0.425,-0.368,0.433,157.23,130.07,-190.83,3,1
18247.531,0.468,-0.363,0.434,152.32,149.97,-187.32,3,1
18247.546,0.502,-0.336,0.447,147.59,170.69,-180.64,3,1
18247.546,0.518,-0.353,0.467,144.78,193.98,-171.06,3,1
18247.562,0.509,-0.393,0.499,140.75,219.95,-160.77,3,1
18247.578,0.472,-0.406,0.566,133.18,243.35,-153.32,3,1
18247.578,0.438,-0.387,0.686,126.77,254.65,-152.07,3,1
18247.593,0.422,-0.42,0.761,129.06,248.15,-153.94,3,1
18247.609,0.447,-0.371,0.859,137.85,222.85,-154.45,3,1
18247.609,0.467,-0.298,0.929,155.1,190.28,-154.18,3,1
18247.625,0.489,-0.21,1.0,172.89,153.39,-151.86,3,1
18247.625,0.446,-0.148,1.07,184.42,116.61,-139.93,3,1
18247.64,0.398,-0.053,1.145,186.77,75.84,-123.26,3,1
18247.656,0.508,0.118,1.211,180.24,35.25,-109.32,3,1
18247.656,0.541,0.239,1.233,166.57,4.52,-101.75,3,1
18247.671,0.513,0.295,1.231,140.32,-21.03,-95.92,3,1
18247.671,0.533,0.37,1.22,101.72,-46.69,-91.53,3,1
18247.687,0.547,0.392,1.203,62.5,-67.45,-88.17,3,1
18247.703,0.588,0.366,1.183,27.47,-81.36,-85.06,3,1
18247.703,0.62,0.349,1.147,0.76,-89.66,-83.53,3,1
18247.718,0.623,0.313,1.111,-15.35,-90.95,-81.64,3,1
18247.734,0.609,0.253,1.079,-25.61,-88.14,-80.05,3,1
18247.734,0.585,0.2,1.049,-29.82,-84.57,-79.59,3,1
18247.75,0.547,0.167,1.023,-25.61,-80.39,-80.26,3,1
18247.765,0.507,0.139,1.013,-14.68,-75.72,-81.76,3,1
18247.765,0.482,0.138,0.999,-1.19,-72.85,-84.69,3,1
18247.781,0.47,0.161,0.991,15.23,-70.86,-88.02,3,1
18247.781,0.47,0.237,1.008,33.05,-67.2,-92.04,3,1
18247.796,0.516,0.388,1.052,47.03,-60.58,-95.31,3,1
18247.812,0.597,0.635,1.137,52.19,-41.54,-98.48,3,1
18247.812,0.585,0.825,1.221,40.89,-11.17,-100.19,3,1
18247.828,0.363,0.73,1.226,37.54,-14.56,-79.23,3,1
18247.859,0.212,0.473,0.977,92.1,-51.67,-33.3,3,1
18247.859,0.277,0.513,0.81,99.73,-55.02,-23.22,3,1
18247.875,0.415,0.492,0.564,85.15,-50.05,-21.97,3,1
18247.875,0.454,0.462,0.491,60.43,-39.31,-27.86,3,1
18247.89,0.445,0.423,0.478,34.67,-24.66,-34.91,3,1
18247.89,0.431,0.38,0.496,15.35,-9.98,-41.35,3,1
18247.906,0.433,0.364,0.518,2.08,4.73,-47.36,3,1
18247.921,0.427,0.394,0.552,-7.26,20.54,-53.16,3,1
18247.921,0.402,0.436,0.614,-14.19,35.1,-58.5,3,1
18247.937,0.368,0.458,0.684,-17.55,48.4,-61.92,3,1
18247.953,0.331,0.51,0.757,-17.79,60.03,-62.96,3,1
18247.953,0.281,0.56,0.827,-14.37,67.17,-60.37,3,1
18247.968,0.207,0.58,0.924,-8.55,68.85,-53.99,3,1
18247.984,0.051,0.704,1.086,-5.43,59.36,-40.8,3,1
18247.984,0.033,0.842,1.157,-10.32,33.54,-23.38,3,1
18248.0,0.165,0.618,1.0,-8.18,10.71,-14.98,3,1
18248.015,0.207,0.529,0.845,-26.12,-16.54,-8.12,3,1
18248.031,0.221,0.418,0.753,-22.4,-18.31,-7.66,3,1
18248.046,0.258,0.421,0.74,-29.76,-14.62,-7.51,3,1
18248.046,0.289,0.424,0.761,-34.58,-8.64,-8.58,3,1
18248.062,0.284,0.407,0.792,-33.39,-0.24,-10.41,3,1
18248.062,0.262,0.434,0.846,-30.76,5.86,-11.6,3,1
18248.078,0.221,0.474,0.897,-28.81,7.66,-10.28,3,1
18248.093,0.218,0.482,0.934,-25.21,5.19,-5.01,3,1
18248.093,0.196,0.512,0.975,-17.67,1.77,1.8,3,1
18248.109,0.193,0.506,0.986,-6.84,-3.39,11.29,3,1
18248.125,0.187,0.492,0.996,3.72,-9.13,20.02,3,1
18248.125,0.193,0.422,0.966,16.14,-13.58,24.69,3,1
18248.14,0.192,0.367,0.945,28.87,-18.01,24.51,3,1
18248.14,0.16,0.389,0.958,33.94,-26.55,20.17,3,1
18248.156,0.165,0.51,0.933,27.89,-42.57,16.21,3,1
18248.171,0.271,0.416,0.828,26.03,-54.02,15.69,3,1
18248.187,0.279,0.51,0.814,-16.39,-69.73,15.59,3,1
18248.203,0.304,0.443,0.76,-23.99,-72.21,13.49,3,1
18248.203,0.333,0.419,0.744,-27.53,-68.33,13.58,3,1
18248.218,0.376,0.417,0.725,-26.06,-61.65,13.64,3,1
18248.234,0.411,0.408,0.709,-22.06,-51.12,13.37,3,1
18248.234,0.428,0.394,0.692,-17.0,-38.18,12.48,3,1
18248.25,0.445,0.384,0.681,-12.33,-24.29,11.29,3,1
18248.25,0.454,0.375,0.672,-8.51,-9.74,9.89,3,1
18248.265,0.454,0.368,0.675,-5.28,3.97,7.42,3,1
18248.281,0.445,0.373,0.706,-3.63,15.38,3.36,3,1
18248.296,0.427,0.395,0.757,-3.36,23.26,-1.4,3,1
18248.296,0.409,0.423,0.812,-4.33,26.83,-5.16,3,1
18248.312,0.383,0.44,0.874,-5.83,26.92,-6.96,3,1
18248.312,0.363,0.444,0.924,-6.01,23.56,-6.23,3,1
18248.328,0.339,0.446,0.944,-4.27,17.76,-4.58,3,1
18248.343,0.317,0.437,0.934,-1.4,10.74,-3.33,3,1
18248.359,0.311,0.418,0.877,1.56,-0.67,-3.91,3,1
18248.375,0.311,0.41,0.846,0.43,-3.63,-4.18,3,1
18248.375,0.319,0.406,0.821,-1.95,-4.58,-4.67,3,1
18248.39,0.329,0.407,0.8,-4.27,-3.81,-5.01,3,1
18248.39,0.339,0.406,0.793,-6.29,-1.86,-5.25,3,1
18248.406,0.348,0.411,0.796,-7.57,1.1,-5.01,3,1
18248.421,0.353,0.413,0.803,-7.29,4.55,-4.55,3,1
18248.421,0.352,0.415,0.813,-5.8,8.18,-4.58,3,1
18248.437,0.347,0.413,0.818,-4.24,10.96,-4.79,3,1
18248.453,0.34,0.408,0.824,-2.93,13.37,-5.65,3,1
18248.453,0.328,0.408,0.832,-1.77,14.74,-6.81,3,1
18248.468,0.318,0.415,0.838,-1.59,14.83,-7.9,3,1
18248.484,0.313,0.426,0.85,-2.56,13.82,-8.82,3,1
18248.484,0.305,0.431,0.857,-3.91,12.39,-9.43,3,1
18248.5,0.304,0.426,0.853,-5.43,10.56,-10.35,3,1
18248.515,0.312,0.426,0.843,-6.68,9.43,-11.08,3,1
18248.531,0.32,0.401,0.827,-7.17,11.47,-12.05,3,1
18248.546,0.32,0.398,0.81,-7.51,14.53,-12.76,3,1
18248.546,0.323,0.392,0.801,-7.02,18.1,-13.73,3,1
18248.562,0.319,0.386,0.826,-7.97,22.46,-15.17,3,1
18248.562,0.325,0.396,0.827,-7.54,28.93,-16.79,3,1
18248.578,0.344,0.365,0.796,-1.77,37.29,-17.82,3,1
18248.593,0.354,0.352,0.771,2.93,48.55,-20.39,3,1
18248.609,0.336,0.381,0.782,6.96,61.25,-21.76,3,1
18248.609,0.183,0.489,0.923,-2.75,64.27,-24.23,3,1
18248.609,0.139,0.599,1.145,-27.95,47.98,-21.0,3,1
18248.625,-0.019,0.679,1.236,-33.81,16.82,-19.9,3,1
18248.64,0.101,0.552,1.096,-26.7,-15.96,-7.26,3,1
18248.656,0.197,0.401,0.853,-6.13,-30.18,-1.04,3,1
18248.656,0.26,0.388,0.735,0.34,-26.28,2.04,3,1
18248.671,0.264,0.382,0.726,-0.43,-15.59,4.3,3,1
18248.671,0.232,0.359,0.781,-0.89,-5.58,5.74,3,1
18248.703,0.235,0.341,0.919,-1.25,-8.09,5.77,3,1
18248.718,0.232,0.344,0.948,2.5,-10.9,3.36,3,1
18248.718,0.213,0.35,0.972,8.73,-15.35,1.74,3,1
18248.734,0.209,0.362,0.99,15.5,-20.97,2.38,3,1
18248.734,0.19,0.42,1.001,17.94,-28.66,3.75,3,1
18248.75,0.285,0.37,0.919,24.05,-34.76,6.78,3,1
18248.765,0.238,0.336,0.858,33.97,-33.91,6.1,3,1
18248.765,0.246,0.45,0.887,25.36,-34.15,7.54,3,1
18248.781,0.285,0.465,0.839,25.33,-35.71,9.28,3,1
18248.781,0.299,0.425,0.772,26.7,-33.08,9.86,3,1
18248.796,0.315,0.459,0.753,20.66,-28.57,10.35,3,1
18248.812,0.343,0.477,0.735,15.78,-23.35,11.14,3,1
18248.812,0.355,0.468,0.716,5.49,-8.85,10.53,3,1
18248.828,0.363,0.467,0.709,-0.34,-1.37,9.43,3,1
18248.843,0.375,0.47,0.704,-5.98,6.23,8.0,3,1
18248.843,0.355,0.447,0.742,-10.74,13.46,5.98,3,1
18248.875,0.336,0.451,0.824,-17.15,19.38,1.74,3,1
18248.875,0.325,0.445,0.846,-20.26,18.92,0.27,3,1
18248.89,0.314,0.428,0.865,-21.7,18.16,-1.1,3,1
18248.89,0.3,0.417,0.89,-19.99,17.58,-1.8,3,1
18248.906,0.285,0.412,0.897,-16.14,16.42,-1.19,3,1
18248.921,0.278,0.408,0.899,-12.15,14.65,0.15,3,1
18248.921,0.272,0.403,0.897,-8.88,12.91,1.56,3,1
18248.937,0.267,0.395,0.893,-6.81,11.05,1.98,3,1
18248.953,0.262,0.388,0.89,-6.04,9.19,1.56,3,1
18248.953,0.26,0.385,0.883,-6.29,7.57,0.76,3,1
18248.968,0.26,0.38,0.877,-6.74,6.38,0.0,3,1
18248.984,0.262,0.383,0.875,-6.5,5.86,-0.76,3,1
18248.984,0.262,0.385,0.876,-5.13,5.55,-1.34,3,1
18249.0,0.259,0.396,0.881,-3.17,5.16,-1.4,3,1
18249.015,0.263,0.409,0.88,-1.56,4.82,-1.1,3,1
18249.015,0.262,0.416,0.878,-0.46,4.39,-0.73,3,1
18249.031,0.262,0.418,0.874,0.4,2.5,0.24,3,1
18249.046,0.266,0.422,0.874,0.58,1.04,0.7,3,1
18249.062,0.267,0.424,0.875,0.03,-0.24,0.92,3,1
18249.062,0.266,0.421,0.873,-0.73,-1.65,0.55,3,1
18249.078,0.269,0.416,0.872,-1.46,-3.11,0.52,3,1
18249.093,0.273,0.414,0.871,-2.04,-4.21,0.67,3,1
18249.093,0.278,0.408,0.864,-2.41,-4.67,0.73,3,1
18249.109,0.282,0.399,0.855,-2.35,-4.52,0.92,3,1
18249.125,0.286,0.397,0.848,-2.17,-3.78,1.16,3,1
18249.125,0.293,0.396,0.844,-2.29,-2.35,1.31,3,1
18249.14,0.294,0.394,0.845,-2.81,-0.24,1.04,3,1
18249.14,0.288,0.394,0.851,-2.9,1.68,0.58,3,1
18249.156,0.284,0.394,0.86,-2.38,3.08,0.27,3,1
18249.171,0.28,0.397,0.867,-1.34,3.72,0.0,3,1
18249.171,0.276,0.402,0.873,-0.12,4.15,-0.43,3,1
18249.187,0.269,0.404,0.876,1.04,4.46,-0.85,3,1
18249.203,0.263,0.406,0.876,2.23,4.33,-0.85,3,1
18249.203,0.259,0.409,0.876,3.42,3.57,-0.52,3,1
18249.218,0.258,0.414,0.873,4.24,2.81,-0.18,3,1
18249.234,0.261,0.417,0.866,4.46,2.41,0.37,3,1
18249.234,0.265,0.418,0.862,4.03,2.26,1.07,3,1
18249.25,0.269,0.421,0.862,3.2,2.2,1.71,3,1
18249.265,0.27,0.418,0.862,2.93,2.17,2.2,3,1
18249.265,0.27,0.414,0.862,1.89,2.2,2.2,3,1
18249.281,0.274,0.413,0.863,0.43,2.04,2.01,3,1
18249.281,0.267,0.405,0.875,-0.95,1.65,1.68,3,1
18249.296,0.264,0.396,0.885,-1.68,0.55,1.07,3,1
18249.312,0.265,0.395,0.891,-1.65,-1.46,0.18,3,1
18249.312,0.269,0.393,0.892,-1.5,-3.42,-0.89,3,1
18249.328,0.272,0.389,0.895,-1.01,-4.39,-2.04,3,1
18249.343,0.282,0.379,0.884,1.8,-4.97,-2.53,3,1
18249.359,0.294,0.386,0.881,5.46,-3.17,-2.62,3,1
18249.359,0.314,0.396,0.875,11.81,0.4,-3.11,3,1
18249.375,0.341,0.361,0.801,17.82,6.2,-4.46,3,1
18249.375,0.344,0.347,0.741,17.73,17.7,-8.3,3,1
18249.39,0.333,0.375,0.709,19.04,32.41,-10.19,3,1
18249.406,0.255,0.444,0.811,9.46,39.95,-11.11,3,1
18249.406,0.238,0.55,0.917,-9.98,36.71,-10.65,3,1
18249.421,0.214,0.391,0.903,-4.33,32.81,-10.8,3,1
18249.421,0.033,0.475,0.98,-13.49,19.07,-13.73,3,1
18249.437,0.138,0.57,0.999,-23.26,-0.09,-8.03,3,1
18249.453,0.156,0.434,0.912,-7.69,-13.92,-7.32,3,1
18249.453,0.179,0.449,0.939,-3.23,-19.62,-5.43,3,1
18249.468,0.175,0.462,0.998,0.43,-25.97,-1.68,3,1
18249.484,0.137,0.406,1.059,2.44,-35.43,0.98,3,1
18249.484,0.113,0.455,1.048,0.82,-51.0,4.06,3,1
18249.5,0.246,0.293,0.977,8.24,-65.28,9.16,3,1
18249.515,0.188,0.353,1.072,-3.08,-77.0,5.34,3,1
18249.515,0.23,0.364,0.924,6.1,-85.33,8.85,3,1
18249.531,0.316,0.323,0.767,10.07,-86.58,6.44,3,1
18249.531,0.392,0.379,0.69,4.12,-71.26,5.71,3,1
18249.546,0.476,0.372,0.564,6.56,-48.62,3.72,3,1
18249.562,0.538,0.362,0.465,7.63,-18.4,2.96,3,1
18249.562,0.573,0.351,0.42,9.25,16.82,4.67,3,1
18249.578,0.582,0.288,0.392,20.29,54.23,3.81,3,1
18249.593,0.553,0.286,0.425,37.32,93.48,0.31,3,1
18249.593,0.481,0.357,0.521,50.81,127.78,-4.39,3,1
18249.609,0.295,0.415,0.776,51.88,149.11,-10.32,3,1
18249.625,-0.205,0.745,1.473,-6.84,121.4,-21.67,3,1
18249.625,-0.297,1.124,1.761,-78.1,36.62,-25.88,3,1
18249.64,0.056,0.583,1.339,-43.37,-36.71,-11.02,3,1
18249.656,0.139,0.303,0.939,3.42,-62.84,-1.22,3,1
18249.656,0.271,0.385,0.773,18.4,-60.79,9.67,3,1
18249.671,0.213,0.433,0.833,19.75,-52.52,9.61,3,1
18249.671,0.22,0.434,0.858,18.25,-49.35,10.22,3,1
18249.687,0.214,0.29,0.838,28.75,-48.04,10.8,3,1
18249.703,0.185,0.423,0.863,21.67,-51.76,14.28,3,1
18249.703,0.295,0.451,0.854,7.72,-56.4,19.65,3,1
18249.718,0.279,0.368,0.826,3.81,-57.65,13.89,3,1
18249.734,0.295,0.378,0.834,0.85,-55.79,12.54,3,1
18249.75,0.333,0.411,0.828,3.63,-53.96,13.21,3,1
18249.75,0.358,0.416,0.791,10.56,-48.4,14.89,3,1
18249.765,0.37,0.417,0.755,15.14,-41.2,17.33,3,1
18249.765,0.396,0.433,0.737,16.75,-33.81,18.74,3,1
18249.781,0.414,0.439,0.712,16.72,-24.99,18.22,3,1
18249.781,0.427,0.43,0.69,15.38,-15.53,16.24,3,1
18249.796,0.434,0.431,0.676,10.04,4.36,9.4,3,1
18249.812,0.425,0.433,0.685,7.66,12.12,5.98,3,1
18249.812,0.403,0.438,0.724,5.49,16.14,2.96,3,1
18249.828,0.387,0.453,0.77,1.22,17.15,0.64,3,1
18249.843,0.355,0.481,0.828,-3.11,16.51,-1.53,3,1
18249.843,0.329,0.477,0.857,-5.49,13.95,-2.17,3,1
18249.859,0.313,0.468,0.873,-6.01,10.22,-1.16,3,1
18249.875,0.306,0.469,0.878,-4.64,6.44,0.85,3,1
18249.875,0.309,0.463,0.866,-3.17,2.81,2.9,3,1
18249.89,0.31,0.453,0.851,-2.84,0.03,4.33,3,1
18249.906,0.313,0.443,0.838,-3.02,-1.98,5.58,3,1
18249.906,0.323,0.436,0.823,-3.57,-3.02,6.68,3,1
18249.921,0.329,0.43,0.811,-4.91,-2.72,7.2,3,1
18249.921,0.337,0.42,0.805,-6.41,-1.22,7.2,3,1
18249.937,0.343,0.411,0.804,-6.87,0.73,6.56,3,1
18249.953,0.347,0.409,0.806,-6.16,2.56,5.89,3,1
18249.953,0.35,0.415,0.818,-4.7,4.09,5.31,3,1
18249.968,0.351,0.424,0.839,-2.99,5.01,4.43,3,1
18249.984,0.336,0.438,0.873,-0.85,4.18,3.85,3,1
18249.984,0.33,0.449,0.894,1.77,0.76,4.06,3,1
18250.0,0.328,0.455,0.891,3.57,-4.24,4.55,3,1
18250.015,0.33,0.454,0.866,4.3,-9.16,4.49,3,1
18250.015,0.34,0.45,0.84,3.88,-12.67,4.39,3,1
18250.031,0.346,0.447,0.815,3.17,-14.25,4.94,3,1
18250.046,0.351,0.446,0.798,2.32,-14.5,5.86,3,1
18250.046,0.361,0.451,0.792,1.53,-13.52,7.2,3,1
18250.062,0.366,0.456,0.792,0.85,-11.78,8.97,3,1
18250.062,0.366,0.458,0.796,0.76,-9.74,11.17,3,1
18250.078,0.363,0.459,0.802,1.43,-7.72,13.46,3,1
18250.093,0.36,0.466,0.814,2.44,-6.44,16.24,3,1
18250.109,0.349,0.462,0.819,2.96,-6.35,19.87,3,1
18250.109,0.365,0.464,0.818,3.48,-6.47,23.59,3,1
18250.125,0.361,0.478,0.824,4.46,-5.95,25.88,3,1
18250.125,0.346,0.474,0.842,5.04,-6.62,29.36,3,1
18250.14,0.353,0.484,0.855,6.07,-8.85,34.97,3,1
18250.156,0.358,0.481,0.847,8.64,-11.08,40.31,3,1
18250.156,0.354,0.461,0.838,9.89,-13.18,44.53,3,1
18250.171,0.37,0.439,0.814,10.28,-15.59,47.79,3,1
18250.171,0.383,0.425,0.784,9.0,-16.88,48.04,3,1
18250.187,0.397,0.409,0.753,4.88,-16.08,46.88,3,1
18250.203,0.408,0.388,0.726,-1.07,-13.15,43.64,3,1
18250.203,0.422,0.377,0.711,-8.12,-9.0,39.31,3,1
18250.218,0.43,0.367,0.704,-15.2,-3.17,33.81,3,1
18250.234,0.437,0.339,0.709,-20.94,3.33,27.92,3,1
18250.234,0.448,0.314,0.729,-24.84,9.83,21.15,3,1
18250.25,0.455,0.308,0.752,-26.31,16.05,13.18,3,1
18250.265,0.457,0.308,0.77,-25.7,21.52,5.8,3,1
18250.265,0.445,0.307,0.8,-24.9,26.58,-0.12,3,1
18250.281,0.427,0.303,0.837,-22.46,29.97,-4.39,3,1
18250.296,0.421,0.283,0.871,-18.01,30.0,-8.7,3,1
18250.296,0.424,0.271,0.903,-14.37,27.53,-16.45,3,1
18250.312,0.416,0.279,0.913,-11.6,23.47,-27.22,3,1
18250.312,0.405,0.27,0.908,-10.71,18.01,-39.49,3,1
18250.328,0.405,0.274,0.894,-13.4,11.81,-52.13,3,1
18250.343,0.406,0.276,0.859,-16.21,7.54,-61.74,3,1
18250.343,0.4,0.267,0.826,-17.7,6.29,-69.52,3,1
18250.359,0.413,0.27,0.806,-18.68,7.57,-76.82,3,1
18250.375,0.426,0.283,0.791,-17.79,12.42,-83.99,3,1
18250.375,0.398,0.289,0.776,-13.15,19.23,-90.3,3,1
18250.39,0.359,0.343,0.844,-6.41,24.11,-94.0,3,1
18250.39,0.288,0.441,1.013,3.36,23.32,-93.2,3,1
18250.406,0.229,0.525,1.123,13.95,13.58,-86.25,3,1
18250.421,0.179,0.61,1.181,22.43,-3.94,-71.41,3,1
18250.421,0.148,0.631,1.158,31.89,-25.09,-51.76,3,1
18250.437,0.143,0.606,1.101,41.44,-45.93,-31.83,3,1
18250.453,0.158,0.588,0.999,48.34,-64.46,-14.44,3,1
18250.453,0.197,0.583,0.873,48.83,-78.49,-1.8,3,1
18250.468,0.245,0.556,0.743,42.85,-86.12,5.43,3,1
18250.484,0.277,0.529,0.669,30.67,-86.95,8.55,3,1
18250.484,0.297,0.521,0.644,16.51,-83.47,10.62,3,1
18250.5,0.355,0.501,0.624,5.19,-78.31,14.19,3,1
18250.515,0.401,0.507,0.602,-2.29,-68.48,15.81,3,1
18250.515,0.414,0.493,0.596,-7.87,-54.99,18.13,3,1
18250.531,0.441,0.478,0.629,-10.93,-40.35,21.64,3,1
18250.531,0.451,0.485,0.671,-8.09,-26.09,25.76,3,1
18250.546,0.458,0.488,0.701,-1.86,-14.04,32.17,3,1
18250.562,0.445,0.483,0.721,4.15,-3.78,39.46,3,1
18250.562,0.442,0.474,0.763,8.61,2.44,45.81,3,1
18250.578,0.424,0.491,0.829,11.29,4.18,46.78,3,1
18250.593,0.381,0.501,0.922,11.17,0.95,46.36,3,1
18250.593,0.336,0.502,1.024,12.27,-8.91,50.45,3,1
18250.609,0.346,0.533,1.102,17.12,-23.93,60.46,3,1
18250.625,0.289,0.577,1.189,29.39,-40.16,76.72,3,1
18250.625,0.283,0.546,1.158,48.92,-58.2,105.9,3,1
18250.64,0.299,0.541,1.027,71.02,-72.76,136.66,3,1
18250.64,0.325,0.529,0.869,90.67,-80.02,161.23,3,1
18250.656,0.401,0.502,0.723,100.71,-79.2,174.69,3,1
18250.671,0.478,0.516,0.61,92.2,-69.52,172.55,3,1
18250.687,0.554,0.568,0.499,59.6,-56.31,156.83,3,1
18250.687,0.626,0.543,0.434,11.9,-44.22,136.81,3,1
18250.703,0.68,0.49,0.404,-37.08,-30.85,119.3,3,1
18250.718,0.729,0.42,0.38,-80.26,-8.06,109.35,3,1
18250.718,0.624,0.347,0.48,-116.28,28.11,97.72,3,1
18250.734,0.657,0.084,0.521,-140.11,44.1,95.4,3,1
18250.734,0.7,-0.056,0.563,-148.05,56.06,97.32,3,1
18250.75,0.669,-0.113,0.601,-141.97,67.72,88.63,3,1
18250.75,0.729,-0.204,0.65,-133.67,67.84,69.4,3,1
18250.765,0.755,-0.282,0.689,-121.43,68.42,41.05,3,1
18250.781,0.729,-0.326,0.703,-101.6,70.16,8.76,3,1
18250.781,0.692,-0.348,0.722,-38.85,71.75,-43.73,3,1
18250.796,0.65,-0.308,0.789,4.64,72.45,-59.24,3,1
18250.812,0.577,-0.214,0.866,49.96,70.13,-66.74,3,1
18250.812,0.375,0.128,1.071,91.65,63.45,-65.71,3,1
18250.828,0.297,0.292,1.096,117.28,49.07,-57.34,3,1
18250.843,0.303,0.493,1.115,122.53,31.07,-46.33,3,1
18250.843,0.291,0.66,1.126,111.3,13.21,-38.0,3,1
18250.859,0.277,0.76,1.137,89.27,-4.18,-30.67,3,1
18250.875,0.275,0.811,1.14,64.18,-18.07,-21.3,3,1
18250.875,0.282,0.866,1.169,43.49,-27.89,-9.06,3,1
18250.89,0.274,0.896,1.206,33.6,-35.13,4.49,3,1
18250.906,0.283,0.879,1.201,43.4,-44.53,42.82,3,1
18250.921,0.309,0.858,1.129,53.71,-43.49,63.54,3,1
18250.921,0.362,0.82,1.06,61.8,-37.57,80.32,3,1
18250.937,0.382,0.796,1.026,70.1,-27.04,90.09,3,1
18250.953,0.334,0.776,1.008,81.45,-16.82,97.87,3,1
18250.953,0.299,0.791,0.952,91.8,-12.57,114.72,3,1
18250.968,0.33,0.79,0.843,92.68,-12.57,140.2,3,1
18250.984,0.387,0.796,0.78,79.71,-11.41,164.83,3,1
18250.984,0.442,0.758,0.705,59.14,-6.44,184.21,3,1
18251.0,0.511,0.721,0.622,32.11,4.39,197.33,3,1
18251.015,0.509,0.678,0.601,-0.82,19.07,205.36,3,1
18251.015,0.469,0.584,0.591,-35.43,28.87,212.68,3,1
18251.031,0.462,0.46,0.575,-71.66,33.05,223.0,3,1
18251.031,0.461,0.358,0.566,-101.63,34.97,232.8,3,1
18251.046,0.477,0.21,0.517,-121.8,34.39,238.47,3,1
18251.062,0.509,0.091,0.502,-140.14,33.39,238.44,3,1
18251.078,0.513,-0.133,0.519,-170.48,29.6,226.91,3,1
18251.093,0.481,-0.224,0.58,-173.92,26.12,221.69,3,1
18251.093,0.425,-0.304,0.648,-165.53,19.47,220.77,3,1
18251.109,0.366,-0.365,0.694,-145.45,9.55,225.17,3,1
18251.125,0.33,-0.417,0.66,-123.84,-4.27,233.34,3,1
18251.125,0.377,-0.479,0.61,-107.91,-20.97,240.97,3,1
18251.14,0.485,-0.501,0.573,-96.99,-31.8,239.75,3,1
18251.156,0.537,-0.522,0.55,-90.12,-33.66,228.49,3,1
18251.156,0.537,-0.524,0.576,-86.31,-29.3,215.49,3,1
18251.171,0.491,-0.534,0.591,-83.16,-21.15,207.59,3,1
18251.187,0.419,-0.559,0.6,-81.58,-13.73,205.54,3,1
18251.187,0.419,-0.574,0.617,-84.14,-10.86,207.19,3,1
18251.203,0.428,-0.583,0.593,-91.71,-8.51,207.31,3,1
18251.203,0.421,-0.63,0.571,-104.95,-5.74,203.92,3,1
18251.218,0.435,-0.714,0.556,-118.5,-4.46,195.84,3,1
18251.234,0.478,-0.798,0.543,-124.45,-2.14,182.96,3,1
18251.234,0.5,-0.869,0.551,-119.14,4.36,165.44,3,1
18251.25,0.506,-0.941,0.57,-102.33,14.31,147.19,3,1
18251.25,0.505,-0.97,0.586,-74.92,28.44,130.68,3,1
18251.265,0.475,-0.951,0.571,-42.45,45.99,115.85,3,1
18251.281,0.451,-0.908,0.532,-14.31,62.44,102.45,3,1
18251.296,0.441,-0.845,0.518,3.08,77.39,89.54,3,1
18251.296,0.414,-0.794,0.531,10.01,91.31,77.36,3,1
18251.312,0.322,-0.754,0.565,9.52,102.63,67.23,3,1
18251.312,0.233,-0.728,0.619,6.74,106.81,62.75,3,1
18251.328,0.159,-0.709,0.66,2.04,104.37,63.57,3,1
18251.343,0.151,-0.715,0.686,-5.13,95.4,65.89,3,1
18251.343,0.18,-0.711,0.718,-12.39,84.99,65.55,3,1
18251.359,0.198,-0.737,0.726,-17.21,76.17,61.71,3,1
18251.375,0.209,-0.774,0.719,-18.8,69.61,56.06,3,1
18251.375,0.223,-0.792,0.718,-16.33,65.03,49.53,3,1
18251.39,0.222,-0.791,0.707,-10.22,62.35,43.15,3,1
18251.406,0.217,-0.765,0.708,-3.11,61.1,37.63,3,1
18251.406,0.186,-0.718,0.72,3.27,60.3,33.6,3,1
18251.421,0.155,-0.683,0.714,6.13,57.68,32.23,3,1
18251.421,0.18,-0.658,0.724,3.2,52.03,32.84,3,1
18251.437,0.196,-0.63,0.736,-1.28,47.27,33.2,3,1
18251.453,0.204,-0.62,0.73,-7.35,43.92,34.09,3,1
18251.468,0.218,-0.597,0.739,-15.72,40.35,34.36,3,1
18251.468,0.208,-0.611,0.761,-22.86,37.69,33.94,3,1
18251.484,0.213,-0.632,0.773,-28.5,33.63,33.57,3,1
18251.484,0.21,-0.647,0.78,-29.69,29.91,34.03,3,1
18251.5,0.209,-0.672,0.773,-26.55,26.28,34.94,3,1
18251.515,0.229,-0.698,0.757,-22.19,21.24,34.82,3,1
18251.515,0.241,-0.71,0.738,-17.55,16.27,32.62,3,1
18251.531,0.236,-0.714,0.725,-15.11,11.29,29.66,3,1
18251.546,0.254,-0.704,0.714,-17.79,6.68,25.61,3,1
18251.546,0.208,-0.671,0.709,-23.71,3.81,18.28,3,1
18251.562,0.152,-0.678,0.71,-32.72,-0.49,12.18,3,1
18251.562,0.099,-0.666,0.753,-44.13,-4.7,9.46,3,1
18251.578,0.048,-0.668,0.779,-50.11,-9.34,10.47,3,1
18251.593,0.033,-0.665,0.773,-49.96,-15.63,15.05,3,1
18251.593,0.03,-0.661,0.738,-46.94,-22.46,19.75,3,1
18251.609,0.042,-0.672,0.676,-45.56,-29.05,22.43,3,1
18251.625,0.054,-0.688,0.623,-45.56,-33.6,23.38,3,1
18251.625,0.096,-0.693,0.577,-44.74,-35.4,23.83,3,1
18251.64,0.107,-0.688,0.547,-42.48,-31.22,23.56,3,1
18251.64,0.104,-0.699,0.513,-40.25,-24.93,24.02,3,1
18251.656,0.093,-0.705,0.49,-39.67,-19.07,24.11,3,1
18251.671,0.079,-0.735,0.47,-38.45,-12.05,24.14,3,1
18251.671,0.089,-0.739,0.459,-37.11,-5.34,23.35,3,1
18251.687,0.067,-0.748,0.466,-35.04,3.17,21.18,3,1
18251.703,0.029,-0.765,0.482,-32.17,10.41,19.84,3,1
18251.718,-0.007,-0.775,0.505,-28.53,15.32,20.91,3,1
18251.718,-0.005,-0.781,0.525,-23.99,17.06,23.56,3,1
18251.734,0.008,-0.783,0.541,-18.62,17.18,24.63,3,1
18251.734,0.013,-0.802,0.551,-14.28,17.91,24.72,3,1
18251.75,0.038,-0.814,0.561,-12.18,17.85,23.83,3,1
18251.765,0.055,-0.83,0.56,-11.96,17.7,20.78,3,1
18251.765,0.068,-0.859,0.554,-15.66,20.54,12.42,3,1
18251.781,0.081,-0.891,0.552,-16.27,23.19,8.06,3,1
18251.796,0.093,-0.917,0.537,-17.46,25.97,2.35,3,1
18251.796,0.116,-0.929,0.539,-17.37,30.21,-3.85,3,1
18251.812,0.045,-0.939,0.609,-15.05,33.33,-7.2,3,1
18251.812,0.023,-0.918,0.637,-12.63,33.02,-7.17,3,1
18251.828,0.004,-0.887,0.664,-11.75,28.9,-7.11,3,1
18251.843,-0.013,-0.889,0.662,-13.95,21.79,-6.68,3,1
18251.843,0.017,-0.905,0.651,-18.74,13.25,-6.16,3,1
18251.859,0.065,-0.897,0.632,-22.16,5.28,-7.66,3,1
18251.875,0.086,-0.894,0.594,-24.02,-0.21,-11.57,3,1
18251.875,0.099,-0.895,0.563,-24.63,-3.51,-16.6,3,1
18251.89,0.096,-0.875,0.54,-21.76,-5.19,-21.7,3,1
18251.89,0.089,-0.849,0.505,-17.43,-5.46,-23.99,3,1
18251.906,0.104,-0.835,0.485,-14.1,-4.58,-23.9,3,1
18251.921,0.099,-0.809,0.468,-10.83,-2.17,-22.55,3,1
18251.921,0.092,-0.797,0.441,-9.13,-0.4,-19.14,3,1
18251.937,0.106,-0.795,0.432,-11.44,0.09,-15.17,3,1
18251.953,0.114,-0.802,0.431,-13.86,1.04,-12.6,3,1
18251.953,0.119,-0.81,0.442,-14.59,1.83,-10.71,3,1
18251.968,0.138,-0.813,0.463,-11.99,0.58,-10.35,3,1
18251.984,0.143,-0.836,0.461,-5.04,-1.8,-12.42,3,1
18252.0,0.151,-0.856,0.458,4.88,-5.52,-16.24,3,1
18252.0,0.146,-0.865,0.435,18.13,-9.34,-22.16,3,1
18252.015,0.148,-0.838,0.412,31.83,-12.27,-28.53,3,1
18252.015,0.123,-0.792,0.422,42.73,-12.73,-32.44,3,1
18252.031,0.099,-0.736,0.406,46.05,-12.6,-30.21,3,1
18252.031,0.115,-0.685,0.391,38.79,-13.12,-23.07,3,1
18252.046,0.135,-0.676,0.389,24.05,-11.84,-14.13,3,1
18252.062,0.142,-0.708,0.405,8.18,-8.76,-5.34,3,1
18252.062,0.152,-0.746,0.453,-4.15,-5.92,3.3,3,1
18252.078,0.166,-0.791,0.493,-10.35,-3.11,10.47,3,1
18252.093,0.162,-0.848,0.533,-10.83,0.49,15.59,3,1
18252.093,0.147,-0.885,0.579,-7.14,2.99,18.22,3,1
18252.109,0.131,-0.912,0.613,-1.95,2.87,18.43,3,1
18252.125,0.134,-0.931,0.645,2.01,0.27,16.08,3,1
18252.125,0.114,-0.932,0.67,5.52,-2.96,10.44,3,1
18252.14,0.082,-0.921,0.683,8.42,-7.93,4.46,3,1
18252.14,0.081,-0.908,0.696,9.64,-15.23,0.15,3,1
18252.156,0.086,-0.879,0.703,11.08,-21.64,-2.93,3,1
18252.171,0.079,-0.861,0.679,12.39,-26.34,-3.48,3,1
18252.171,0.104,-0.847,0.661,11.35,-29.63,-1.5,3,1
18252.187,0.123,-0.829,0.647,8.82,-30.21,0.98,3,1
18252.203,0.122,-0.829,0.627,5.49,-28.23,2.93,3,1
18252.203,0.124,-0.844,0.618,2.93,-24.99,4.36,3,1
18252.218,0.119,-0.85,0.609,2.44,-20.26,4.76,3,1
18252.234,0.096,-0.84,0.607,3.45,-14.77,4.49,3,1
18252.234,0.053,-0.822,0.603,4.36,-10.71,4.27,3,1
18252.25,0.018,-0.806,0.602,3.39,-9.22,5.25,3,1
18252.25,0.007,-0.805,0.598,1.13,-10.38,7.14,3,1
18252.265,0.026,-0.806,0.584,-0.79,-12.3,8.3,3,1
18252.281,0.034,-0.809,0.571,-1.43,-12.12,8.36,3,1
18252.281,0.039,-0.809,0.561,-1.77,-10.44,8.24,3,1
18252.296,0.039,-0.804,0.552,-1.98,-8.06,8.55,3,1
18252.312,0.041,-0.812,0.54,-1.68,-5.22,9.34,3,1
18252.328,0.052,-0.812,0.531,-1.19,-2.29,9.8,3,1
18252.328,0.054,-0.807,0.532,-0.18,1.34,9.49,3,1
18252.343,0.041,-0.806,0.529,0.7,5.13,9.4,3,1
18252.343,0.034,-0.808,0.532,0.12,7.93,9.89,3,1
18252.359,0.044,-0.811,0.537,-1.19,9.43,10.04,3,1
18252.375,0.052,-0.818,0.541,-2.5,11.05,9.64,3,1
18252.375,0.055,-0.83,0.544,-2.59,12.79,9.34,3,1
18252.39,0.055,-0.828,0.556,-1.95,14.5,9.13,3,1
18252.39,0.05,-0.83,0.563,-1.8,15.41,9.03,3,1
18252.406,0.059,-0.833,0.569,-2.59,15.02,9.28,3,1
18252.421,0.069,-0.833,0.587,-3.39,14.62,8.7,3,1
18252.421,0.064,-0.835,0.601,-3.27,14.13,7.9,3,1
18252.437,0.054,-0.834,0.608,-3.42,12.88,7.72,3,1
18252.453,0.053,-0.83,0.622,-4.46,10.19,7.42,3,1
18252.453,0.048,-0.831,0.631,-6.13,6.74,6.13,3,1
18252.468,0.047,-0.847,0.625,-7.29,3.11,5.07,3,1
18252.484,0.059,-0.868,0.615,-6.68,-0.24,4.21,3,1
18252.484,0.087,-0.871,0.597,-4.21,-2.35,2.75,3,1
18252.5,0.091,-0.862,0.58,-1.16,-1.98,0.49,3,1
18252.515,0.082,-0.855,0.56,0.15,-0.73,-1.5,3,1
18252.515,0.082,-0.852,0.552,-0.92,0.67,-2.47,3,1
18252.531,0.088,-0.849,0.544,-3.05,1.92,-3.39,3,1
18252.531,0.094,-0.844,0.543,-5.31,2.72,-5.01,3,1
18252.546,0.097,-0.845,0.549,-6.01,3.08,-7.11,3,1
18252.562,0.092,-0.829,0.566,-5.4,3.33,-9.34,3,1
18252.562,0.083,-0.808,0.577,-3.54,2.23,-10.62,3,1
18252.578,0.077,-0.788,0.581,-1.74,-1.01,-10.74,3,1
18252.593,0.084,-0.767,0.579,-0.98,-5.62,-10.16,3,1
18252.593,0.105,-0.758,0.567,-1.04,-10.56,-9.25,3,1
18252.609,0.125,-0.757,0.552,-1.62,-13.82,-8.51,3,1
18252.625,0.136,-0.763,0.536,-2.2,-14.68,-8.0,3,1
18252.625,0.129,-0.772,0.522,-2.81,-13.79,-7.08,3,1
18252.64,0.119,-0.787,0.512,-3.3,-12.3,-5.95,3,1
18252.64,0.111,-0.8,0.506,-3.45,-10.22,-4.21,3,1
18252.656,0.103,-0.819,0.498,-2.47,-7.75,-2.5,3,1
18252.671,0.105,-0.827,0.498,-1.19,-5.25,-1.31,3,1
18252.671,0.089,-0.836,0.513,-0.37,-2.17,-1.04,3,1
18252.687,0.06,-0.841,0.536,0.27,-0.98,-0.98,3,1
18252.703,0.042,-0.843,0.553,0.76,-2.5,-0.27,3,1
18252.718,0.039,-0.843,0.562,0.49,-5.95,0.43,3,1
18252.718,0.046,-0.846,0.57,-0.37,-10.32,0.49,3,1
18252.734,0.05,-0.851,0.563,-0.64,-13.76,0.61,3,1
18252.734,0.062,-0.86,0.555,-1.13,-16.11,0.37,3,1
18252.75,0.075,-0.871,0.547,-3.88,-17.27,-3.23,3,1
18252.765,0.084,-0.885,0.536,-5.49,-16.72,-6.59,3,1
18252.765,0.093,-0.908,0.527,-4.76,-14.77,-9.7,3,1
18252.781,0.097,-0.925,0.514,-2.04,-11.6,-12.02,3,1
18252.781,0.112,-0.914,0.502,1.65,-7.05,-14.04,3,1
18252.796,0.104,-0.892,0.505,4.49,-2.14,-14.8,3,1
18252.812,0.096,-0.864,0.523,5.19,1.62,-13.89,3,1
18252.812,0.094,-0.843,0.554,4.67,3.69,-11.54,3,1
18252.828,0.09,-0.832,0.569,4.15,4.7,-8.39,3,1
18252.843,0.092,-0.826,0.578,3.63,4.24,-5.04,3,1
18252.843,0.102,-0.824,0.58,3.02,2.44,-3.02,3,1
18252.859,0.113,-0.83,0.569,2.44,0.89,-2.35,3,1
18252.875,0.125,-0.836,0.557,1.98,0.52,-2.38,3,1
18252.875,0.133,-0.839,0.547,2.5,1.62,-2.99,3,1
18252.89,0.127,-0.831,0.53,3.48,3.88,-3.54,3,1
18252.906,0.116,-0.823,0.527,3.6,6.23,-3.51,3,1
18252.906,0.114,-0.819,0.53,3.23,8.21,-2.35,3,1
18252.921,0.108,-0.815,0.529,2.72,10.04,-1.19,3,1
18252.921,0.107,-0.815,0.541,1.56,11.51,-0.27,3,1
18252.937,0.11,-0.811,0.555,-0.43,12.42,0.27,3,1
18252.953,0.108,-0.809,0.579,-2.23,12.63,0.12,3,1
18252.953,0.104,-0.807,0.607,-2.96,12.27,-0.43,3,1
18252.968,0.107,-0.811,0.618,-1.83,11.2,-0.7,3,1
18252.984,0.118,-0.816,0.628,0.73,10.01,-0.85,3,1
18252.984,0.122,-0.816,0.632,3.85,9.64,-1.4,3,1
18253.0,0.121,-0.81,0.633,5.65,9.03,-2.26,3,1
18253.015,0.124,-0.801,0.635,5.98,7.9,-3.3,3,1
18253.015,0.12,-0.8,0.628,6.26,7.51,-4.03,3,1
18253.031,0.118,-0.802,0.621,6.5,7.54,-3.54,3,1
18253.031,0.126,-0.805,0.614,6.84,8.09,-2.66,3,1
18253.046,0.128,-0.807,0.604,7.39,9.49,-1.89,3,1
18253.062,0.123,-0.812,0.597,7.23,11.05,-1.04,3,1
18253.062,0.114,-0.816,0.604,6.23,12.27,-0.31,3,1
18253.078,0.105,-0.82,0.615,4.58,12.21,-0.55,3,1
18253.093,0.103,-0.824,0.617,3.27,11.44,-1.74,3,1
18253.109,0.093,-0.829,0.635,3.66,10.41,-3.33,3,1
18253.109,0.075,-0.828,0.649,6.35,8.61,-4.33,3,1
18253.109,0.069,-0.813,0.635,9.28,5.74,-3.69,3,1
18253.125,0.08,-0.802,0.623,9.67,2.2,-3.11,3,1
18253.14,0.102,-0.799,0.602,7.32,-0.76,-3.72,3,1
18253.14,0.116,-0.8,0.582,4.27,-1.19,-4.94,3,1
18253.156,0.127,-0.807,0.573,2.23,0.24,-6.13,3,1
18253.171,0.133,-0.803,0.567,1.74,2.96,-6.23,3,1
18253.171,0.137,-0.799,0.561,1.01,5.68,-5.89,3,1
18253.187,0.139,-0.797,0.569,-1.56,7.81,-5.89,3,1
18253.203,0.13,-0.8,0.59,-4.61,8.45,-6.04,3,1
18253.203,0.118,-0.805,0.614,-6.93,6.9,-5.86,3,1
18253.218,0.115,-0.805,0.638,-8.61,3.57,-6.13,3,1
18253.234,0.118,-0.81,0.646,-8.94,-0.24,-7.08,3,1
18253.234,0.125,-0.804,0.647,-8.67,-3.33,-8.45,3,1
18253.25,0.135,-0.799,0.662,-7.84,-5.86,-10.38,3,1
18253.265,0.15,-0.804,0.653,-5.77,-7.9,-12.67,3,1
18253.265,0.149,-0.801,0.645,-3.72,-7.84,-14.28,3,1
18253.281,0.149,-0.798,0.636,-2.29,-7.6,-14.62,3,1
18253.296,0.157,-0.795,0.62,-2.14,-7.32,-14.19,3,1
18253.296,0.154,-0.798,0.612,-3.27,-5.86,-13.98,3,1
18253.312,0.139,-0.806,0.61,-3.97,-3.75,-13.12,3,1
18253.312,0.123,-0.814,0.619,-4.18,-2.59,-11.26,3,1
18253.328,0.111,-0.815,0.624,-4.18,-3.14,-8.94,3,1
18253.343,0.107,-0.82,0.625,-4.55,-4.52,-7.02,3,1
18253.343,0.109,-0.834,0.621,-5.07,-6.71,-5.92,3,1
18253.359,0.115,-0.847,0.609,-4.88,-9.22,-6.01,3,1
18253.375,0.123,-0.851,0.596,-3.6,-11.38,-7.29,3,1
18253.375,0.114,-0.844,0.58,-1.83,-12.36,-8.76,3,1
18253.39,0.11,-0.84,0.556,-0.76,-13.15,-9.28,3,1
18253.39,0.12,-0.835,0.533,-0.67,-13.55,-9.25,3,1
18253.406,0.137,-0.833,0.51,-0.89,-11.99,-9.22,3,1
18253.421,0.145,-0.833,0.494,-1.28,-8.27,-9.13,3,1
18253.437,0.139,-0.827,0.5,-1.77,-3.6,-8.85,3,1
18253.437,0.123,-0.818,0.508,-1.19,0.46,-8.09,3,1
18253.453,0.12,-0.804,0.51,-1.1,3.54,-6.23,3,1
18253.453,0.116,-0.795,0.531,-1.53,5.8,-4.64,3,1
18253.468,0.096,-0.792,0.542,-1.68,7.08,-2.69,3,1
18253.484,0.093,-0.792,0.548,-2.53,6.44,0.12,3,1
18253.484,0.105,-0.799,0.551,-3.66,5.49,2.35,3,1
18253.5,0.113,-0.808,0.543,-4.49,5.98,3.63,3,1
18253.515,0.116,-0.814,0.539,-4.58,7.87,4.03,3,1
18253.515,0.116,-0.817,0.543,-3.57,9.98,3.63,3,1
18253.531,0.117,-0.815,0.543,-2.08,12.21,3.66,3,1
18253.546,0.122,-0.813,0.542,-1.25,14.22,3.75,3,1
18253.546,0.11,-0.819,0.547,-1.1,16.75,3.6,3,1
18253.562,0.086,-0.831,0.539,-0.43,18.89,3.75,3,1
18253.578,0.082,-0.839,0.537,-0.52,19.53,4.46,3,1
18253.578,0.095,-0.843,0.537,-0.98,19.68,3.85,3,1
18253.593,0.098,-0.839,0.541,-0.31,20.57,1.4,3,1
18253.593,0.101,-0.832,0.546,1.86,22.0,-0.95,3,1
18253.609,0.105,-0.812,0.561,4.21,24.08,-2.62,3,1
18253.625,0.089,-0.788,0.573,6.65,26.46,-3.08,3,1
18253.64,0.068,-0.771,0.581,7.26,27.77,-1.31,3,1
18253.64,0.056,-0.771,0.581,4.88,27.19,1.71,3,1
18253.64,0.061,-0.791,0.569,1.16,25.67,4.18,3,1
18253.656,0.076,-0.809,0.561,-1.98,25.3,5.07,3,1
18253.671,0.088,-0.822,0.561,-3.91,26.83,4.55,3,1
18253.671,0.092,-0.832,0.57,-3.88,29.48,2.69,3,1
18253.687,0.085,-0.83,0.586,-1.65,32.41,0.24,3,1
18253.703,0.064,-0.818,0.605,1.28,33.66,-2.35,3,1
18253.703,0.048,-0.803,0.615,3.94,32.53,-3.91,3,1
18253.718,0.037,-0.787,0.619,4.85,29.39,-4.21,3,1
18253.734,0.022,-0.788,0.61,4.21,25.85,-3.3,3,1
18253.734,0.026,-0.799,0.595,0.18,19.14,0.4,3,1
18253.75,0.047,-0.815,0.574,-1.37,18.77,0.82,3,1
18253.765,0.06,-0.833,0.558,-1.92,20.36,0.49,3,1
18253.765,0.053,-0.844,0.542,-3.54,21.52,-0.79,3,1
18253.781,0.067,-0.848,0.556,-4.67,24.84,-1.4,3,1
18253.781,0.049,-0.85,0.551,-2.96,25.09,-3.69,3,1
18253.796,0.06,-0.846,0.557,-1.25,25.54,-5.49,3,1
18253.812,0.031,-0.838,0.529,0.61,25.42,-8.88,3,1
18253.812,0.046,-0.836,0.509,0.64,23.35,-11.17,3,1
18253.828,0.062,-0.829,0.486,1.53,23.07,-14.22,3,1
18253.843,0.06,-0.817,0.46,3.33,24.05,-17.43,3,1
18253.859,0.064,-0.807,0.438,4.09,25.18,-18.92,3,1
18253.859,0.076,-0.795,0.43,3.3,28.17,-18.04,3,1
18253.875,0.13,-0.759,0.457,1.68,33.78,-15.2,3,1
18253.875,0.128,-0.73,0.486,1.4,43.73,-12.7,3,1
18253.89,0.099,-0.719,0.536,-0.58,52.86,-7.81,3,1
18253.906,0.083,-0.712,0.599,-3.33,57.53,-0.92,3,1
18253.906,0.057,-0.723,0.639,-5.65,58.87,6.29,3,1
18253.921,0.034,-0.746,0.658,-9.55,55.85,12.02,3,1
18253.921,0.042,-0.788,0.666,-13.95,49.78,14.44,3,1
18253.937,0.048,-0.838,0.643,-15.2,43.4,12.97,3,1
18253.953,0.05,-0.875,0.637,-13.86,39.09,9.55,3,1
18253.953,0.063,-0.884,0.635,-9.55,37.9,5.92,3,1
18253.968,0.064,-0.86,0.643,-5.04,39.8,2.62,3,1
18253.984,0.05,-0.822,0.671,-2.56,42.76,0.92,3,1
18253.984,0.027,-0.803,0.695,-1.98,44.16,1.16,3,1
18254.0,0.011,-0.8,0.708,-3.14,43.03,3.17,3,1
18254.015,0.01,-0.8,0.713,-5.34,40.28,4.79,3,1
18254.015,-0.001,-0.819,0.698,-7.39,37.42,5.16,3,1
18254.031,-0.019,-0.848,0.686,-10.13,34.82,4.49,3,1
18254.031,-0.028,-0.874,0.682,-11.17,32.14,2.29,3,1
18254.046,-0.037,-0.886,0.677,-10.19,30.37,-1.01,3,1
18254.062,-0.036,-0.879,0.673,-9.28,29.48,-4.73,3,1
18254.062,-0.046,-0.855,0.676,-8.73,28.87,-9.09,3,1
18254.078,-0.055,-0.842,0.683,-7.84,28.14,-12.09,3,1
18254.093,-0.056,-0.821,0.69,-6.84,27.38,-12.91,3,1
18254.093,-0.053,-0.803,0.695,-6.16,26.8,-13.12,3,1
18254.109,-0.05,-0.802,0.712,-7.08,25.76,-12.6,3,1
18254.125,-0.041,-0.795,0.735,-7.57,25.03,-11.96,3,1
18254.125,-0.036,-0.789,0.749,-7.26,23.77,-11.72,3,1
18254.14,-0.045,-0.788,0.756,-8.42,21.55,-11.81,3,1
18254.156,-0.06,-0.798,0.758,-9.37,18.01,-11.99,3,1
18254.156,-0.069,-0.81,0.747,-9.22,11.99,-11.93,3,1
18254.171,-0.076,-0.823,0.71,-9.13,6.13,-11.93,3,1
18254.171,-0.06,-0.835,0.67,-9.64,0.95,-12.39,3,1
18254.187,-0.055,-0.857,0.626,-9.22,-0.85,-13.67,3,1
18254.203,-0.041,-0.87,0.59,-8.33,-0.4,-14.83,3,1
18254.218,-0.016,-0.859,0.579,-6.84,1.68,-16.21,3,1
18254.218,-0.028,-0.839,0.59,-4.64,4.3,-18.49,3,1
18254.234,-0.061,-0.807,0.621,-3.02,4.85,-19.59,3,1
18254.234,-0.085,-0.785,0.642,-1.62,2.04,-17.12,3,1
18254.25,-0.084,-0.783,0.636,-1.83,-3.23,-13.06,3,1
18254.265,-0.062,-0.8,0.611,-3.75,-8.27,-10.62,3,1
18254.265,-0.027,-0.823,0.595,-4.43,-11.05,-11.02,3,1
18254.281,-0.005,-0.834,0.577,-3.3,-10.35,-13.7,3,1
18254.281,0.008,-0.845,0.575,-1.95,-7.87,-17.33,3,1
18254.296,0.014,-0.854,0.604,0.15,-5.77,-21.15,3,1
18254.312,0.017,-0.854,0.646,2.93,-5.1,-23.9,3,1
18254.328,0.032,-0.858,0.694,5.74,-6.26,-25.67,3,1
18254.328,0.04,-0.866,0.756,8.39,-9.86,-28.08,3,1
18254.343,0.039,-0.882,0.824,12.09,-15.9,-31.92,3,1
18254.343,0.041,-0.877,0.87,17.85,-25.79,-37.63,3,1
18254.359,0.043,-0.846,0.874,23.83,-39.12,-45.84,3,1
18254.375,0.045,-0.822,0.844,29.33,-54.08,-55.76,3,1
18254.375,0.057,-0.79,0.8,34.64,-66.87,-62.41,3,1
18254.39,0.053,-0.762,0.709,38.21,-74.37,-63.11,3,1
18254.39,0.066,-0.76,0.619,34.73,-76.3,-57.41,3,1
18254.406,0.1,-0.772,0.55,26.76,-73.21,-49.04,3,1
18254.421,0.099,-0.786,0.488,17.94,-66.44,-41.38,3,1
18254.421,0.078,-0.81,0.446,10.13,-59.69,-35.77,3,1
18254.437,0.054,-0.833,0.408,6.01,-53.96,-31.34,3,1
18254.453,0.03,-0.849,0.364,4.58,-48.4,-27.16,3,1
18254.453,0.031,-0.865,0.325,3.75,-42.02,-22.89,3,1
18254.468,0.065,-0.864,0.315,2.62,-33.94,-19.07,3,1
18254.484,0.093,-0.848,0.339,1.77,-23.44,-17.12,3,1
18254.484,0.099,-0.824,0.384,1.83,-12.79,-16.05,3,1
18254.5,0.103,-0.787,0.429,2.2,-4.79,-13.86,3,1
18254.515,0.098,-0.756,0.47,2.23,0.7,-10.71,3,1
18254.515,0.08,-0.749,0.486,1.98,3.57,-5.65,3,1
18254.531,0.077,-0.738,0.487,-0.06,5.43,1.92,3,1
18254.546,0.081,-0.77,0.465,-3.48,8.15,9.92,3,1
18254.546,0.094,-0.813,0.438,-7.72,12.09,17.24,3,1
18254.562,0.095,-0.856,0.417,-11.29,17.24,20.6,3,1
18254.562,0.111,-0.897,0.421,-13.21,22.58,19.68,3,1
18254.578,0.132,-0.893,0.451,-12.09,28.6,15.5,3,1
18254.593,0.131,-0.869,0.5,-8.18,34.24,10.47,3,1
18254.609,0.097,-0.817,0.559,-4.73,37.6,6.65,3,1
18254.609,0.084,-0.772,0.611,-2.41,37.9,5.89,3,1
18254.625,0.061,-0.738,0.623,-1.8,36.56,9.03,3,1
18254.625,0.08,-0.739,0.622,-4.79,34.06,15.08,3,1
18254.64,0.134,-0.757,0.624,-8.88,32.87,20.63,3,1
18254.656,0.138,-0.779,0.621,-12.73,33.75,22.31,3,1
18254.656,0.159,-0.808,0.628,-16.72,33.72,20.36,3,1
18254.671,0.152,-0.809,0.664,-18.13,33.3,14.22,3,1
18254.671,0.12,-0.799,0.663,-15.41,31.89,7.02,3,1
18254.687,0.104,-0.772,0.657,-13.67,29.24,3.42,3,1
18254.703,0.116,-0.751,0.656,-13.58,27.56,3.33,3,1
18254.703,0.115,-0.756,0.64,-14.83,26.43,5.28,3,1
18254.718,0.106,-0.781,0.624,-23.65,26.09,9.95,3,1
18254.734,0.074,-0.821,0.58,-28.32,25.39,8.55,3,1
18254.734,0.08,-0.867,0.553,-28.6,27.22,5.52,3,1
18254.75,0.112,-0.907,0.542,-23.96,31.31,1.4,3,1
18254.765,0.117,-0.889,0.592,-17.94,36.32,-1.95,3,1
18254.765,0.091,-0.91,0.639,-14.37,38.39,-2.47,3,1
18254.781,0.069,-0.976,0.647,-8.12,38.36,-2.75,3,1
18254.796,0.082,-0.969,0.587,3.23,37.78,-4.94,3,1
18254.796,0.074,-0.968,0.548,10.86,40.07,-10.41,3,1
18254.812,0.071,-0.962,0.55,16.36,43.43,-17.43,3,1
18254.812,0.06,-0.872,0.555,21.58,46.72,-22.43,3,1
18254.828,0.042,-0.806,0.593,19.62,48.43,-24.9,3,1
18254.843,0.021,-0.763,0.634,13.4,46.14,-24.87,3,1
18254.843,-0.008,-0.76,0.665,4.39,41.51,-20.69,3,1
18254.859,-0.011,-0.772,0.691,-4.06,32.96,-15.9,3,1
18254.875,0.014,-0.815,0.668,-7.87,23.5,-14.53,3,1
18254.875,0.028,-0.857,0.629,-10.1,17.61,-16.08,3,1
18254.89,0.047,-0.888,0.601,-10.74,15.11,-20.26,3,1
18254.89,0.05,-0.879,0.579,-8.15,16.69,-23.74,3,1
18254.906,0.049,-0.818,0.592,-7.2,19.1,-25.73,3,1
18254.921,0.033,-0.781,0.624,-9.0,19.14,-26.43,3,1
18254.921,0.02,-0.782,0.646,-10.65,16.24,-24.45,3,1
18254.937,0.023,-0.778,0.633,-8.18,11.75,-22.52,3,1
18254.953,0.033,-0.771,0.593,-5.07,9.03,-19.71,3,1
18254.953,0.061,-0.768,0.575,-6.81,9.03,-15.08,3,1
18254.968,0.071,-0.783,0.581,-9.61,9.8,-11.6,3,1
18254.984,0.038,-0.798,0.582,-10.07,9.86,-9.19,3,1
18254.984,0.043,-0.831,0.562,-9.8,7.9,-8.0,3,1
18255.0,0.048,-0.848,0.521,-8.21,6.44,-8.39,3,1
18255.0,0.052,-0.882,0.487,-6.38,6.56,-10.35,3,1
18255.015,0.053,-0.906,0.452,-1.68,8.3,-14.01,3,1
18255.031,0.064,-0.885,0.434,5.01,11.6,-17.15,3,1
18255.046,0.069,-0.874,0.484,10.65,14.56,-20.63,3,1
18255.046,0.031,-0.859,0.536,18.34,13.7,-23.26,3,1
18255.062,0.009,-0.844,0.593,24.51,6.13,-24.54,3,1
18255.062,0.02,-0.824,0.609,28.53,-7.39,-27.95,3,1
18255.078,0.057,-0.744,0.564,30.67,-20.84,-30.85,3,1
18255.093,0.102,-0.683,0.52,29.08,-28.66,-29.69,3,1
18255.093,0.112,-0.631,0.487,24.66,-28.96,-23.26,3,1
18255.109,0.117,-0.628,0.478,18.43,-25.06,-13.52,3,1
18255.125,0.125,-0.677,0.497,14.34,-19.2,-2.59,3,1
18255.125,0.092,-0.751,0.536,15.08,-13.61,6.04,3,1
18255.14,0.028,-0.825,0.54,17.15,-10.9,9.0,3,1
18255.14,0.05,-0.851,0.505,16.45,-10.28,7.72,3,1
18255.156,0.114,-0.865,0.489,13.55,-5.55,5.83,3,1
18255.171,0.116,-0.874,0.528,12.09,3.75,3.6,3,1
18255.171,0.126,-0.815,0.604,8.67,8.36,0.85,3,1
18255.187,0.094,-0.795,0.652,7.02,11.47,0.43,3,1
18255.203,0.075,-0.779,0.702,6.53,10.04,5.04,3,1
18255.203,0.082,-0.773,0.732,4.85,2.99,9.95,3,1
18255.218,0.089,-0.814,0.696,2.44,-3.78,13.4,3,1
18255.234,0.102,-0.863,0.622,-0.49,-6.93,14.98,3,1
18255.234,0.121,-0.912,0.571,-1.89,-4.79,13.7,3,1
18255.25,0.136,-0.936,0.557,-2.5,1.37,9.92,3,1
18255.265,0.124,-0.929,0.575,-1.86,8.55,4.82,3,1
18255.265,0.092,-0.911,0.633,-0.79,12.82,0.43,3,1
18255.281,0.061,-0.881,0.663,-1.28,12.02,-2.84,3,1
18255.296,0.065,-0.845,0.66,-2.99,8.06,-4.88,3,1
18255.296,0.064,-0.821,0.647,-4.03,3.23,-5.55,3,1
18255.312,0.076,-0.809,0.622,-4.85,-0.34,-5.01,3,1
18255.312,0.09,-0.795,0.606,-4.27,-1.89,-3.42,3,1
18255.328,0.101,-0.792,0.588,-2.26,-1.98,-1.92,3,1
18255.343,0.106,-0.809,0.572,-0.89,-1.04,-1.22,3,1
18255.343,0.123,-0.829,0.55,1.77,0.79,-1.25,3,1
18255.359,0.128,-0.813,0.521,4.43,4.64,-1.59,3,1
18255.375,0.119,-0.796,0.533,4.15,9.13,-1.28,3,1
18255.375,0.102,-0.768,0.565,2.04,11.93,0.0,3,1
18255.39,0.089,-0.737,0.613,-0.27,11.66,2.17,3,1
18255.39,0.083,-0.724,0.647,-0.89,8.85,6.41,3,1
18255.406,0.08,-0.714,0.668,-2.17,4.15,11.93,3,1
18255.421,0.075,-0.76,0.657,-4.33,-1.37,15.63,3,1
18255.437,0.103,-0.794,0.623,-3.14,-5.07,17.52,3,1
18255.437,0.109,-0.785,0.596,0.06,-5.43,17.61,3,1
18255.453,0.083,-0.808,0.587,0.61,-3.78,16.66,3,1
18255.453,0.08,-0.827,0.586,0.18,-1.92,15.9,3,1
18255.468,0.053,-0.833,0.593,-0.18,0.15,15.53,3,1
18255.484,0.029,-0.864,0.602,-2.66,1.34,14.77,3,1
18255.484,0.047,-0.871,0.622,-4.94,1.01,12.6,3,1
18255.5,0.057,-0.859,0.637,-3.91,-0.61,8.88,3,1
18255.5,0.066,-0.84,0.671,-2.78,-4.03,6.65,3,1
18255.515,0.104,-0.834,0.704,-1.74,-10.32,5.62,3,1
18255.531,0.158,-0.814,0.716,2.47,-17.67,4.21,3,1
18255.531,0.156,-0.767,0.702,10.16,-24.78,3.81,3,1
18255.546,0.043,-0.737,0.646,12.02,-29.76,6.56,3,1
18255.562,-0.022,-0.759,0.561,5.43,-33.27,12.73,3,1
18255.562,-0.033,-0.804,0.467,-1.83,-31.95,20.42,3,1
18255.578,-0.016,-0.861,0.401,-8.7,-24.38,26.61,3,1
18255.593,0.025,-0.897,0.394,-14.1,-13.64,28.72,3,1
18255.609,0.04,-0.898,0.445,-14.07,-3.33,26.83,3,1
18255.609,0.04,-0.859,0.537,-11.69,2.87,24.6,3,1
18255.625,-0.0,-0.833,0.604,-9.67,3.39,22.77,3,1
18255.625,-0.022,-0.841,0.615,-7.87,-0.58,22.19,3,1
18255.64,0.02,-0.85,0.597,-5.22,-5.01,22.68,3,1
18255.656,0.01,-0.857,0.57,-3.91,-6.59,22.06,3,1
18255.656,0.012,-0.886,0.554,-5.04,-7.05,20.05,3,1
18255.671,0.038,-0.894,0.553,-4.61,-6.5,16.85,3,1
18255.687,0.043,-0.876,0.57,-3.14,-5.34,12.51,3,1
18255.687,0.043,-0.856,0.587,-2.14,-5.86,7.63,3,1
18255.703,0.017,-0.818,0.592,-1.53,-7.35,3.6,3,1
18255.718,-0.018,-0.81,0.571,-0.98,-10.04,1.34,3,1
18255.718,-0.027,-0.825,0.533,-0.82,-7.84,3.2,3,1
18255.734,-0.016,-0.828,0.51,-3.66,-3.48,4.88,3,1
18255.734,0.022,-0.839,0.539,-4.67,0.37,4.7,3,1
18255.75,0.034,-0.831,0.569,-3.6,2.9,3.45,3,1
18255.765,0.035,-0.82,0.604,-1.83,3.14,1.68,3,1
18255.765,0.028,-0.815,0.615,0.18,1.19,-0.15,3,1
18255.781,0.031,-0.821,0.603,1.95,-0.98,-1.25,3,1
18255.796,0.042,-0.819,0.584,2.23,-2.38,-2.5,3,1
18255.796,0.055,-0.842,0.578,2.93,-2.47,-4.15,3,1
18255.812,0.053,-0.848,0.577,4.24,-0.55,-3.78,3,1
18255.812,0.058,-0.835,0.586,2.87,1.5,-2.81,3,1
18255.828,0.052,-0.833,0.613,1.04,2.29,-2.53,3,1
18255.843,0.034,-0.814,0.623,0.98,1.86,-0.73,3,1
18255.843,0.047,-0.806,0.619,0.64,0.15,1.25,3,1
18255.859,0.048,-0.835,0.612,0.76,-2.35,1.5,3,1
18255.875,0.052,-0.87,0.591,2.41,-3.88,1.07,3,1
18255.875,0.07,-0.874,0.574,4.46,-4.91,0.03,3,1
18255.89,0.064,-0.88,0.566,4.58,-5.01,-2.69,3,1
18255.89,0.052,-0.878,0.573,4.3,-5.46,-6.04,3,1
18255.906,0.046,-0.868,0.574,5.1,-6.78,-8.51,3,1
18255.921,0.037,-0.878,0.549,5.74,-7.75,-10.5,3,1
18255.937,0.046,-0.883,0.524,5.52,-7.32,-12.27,3,1
18255.937,0.052,-0.869,0.517,4.85,-5.31,-13.25,3,1
18255.953,0.053,-0.842,0.531,3.78,-2.62,-13.49,3,1
18255.953,0.063,-0.813,0.543,3.45,-0.24,-12.39,3,1
18255.968,0.064,-0.781,0.55,3.33,2.32,-9.19,3,1
18255.984,0.06,-0.763,0.559,0.98,4.46,-5.28,3,1
18255.984,0.054,-0.763,0.58,-2.14,5.34,-1.43,3,1
18256.0,0.054,-0.781,0.581,-3.48,5.25,1.8,3,1
18256.015,0.063,-0.796,0.585,-4.06,4.79,3.72,3,1
18256.015,0.07,-0.806,0.589,-3.66,4.03,3.45,3,1
18256.031,0.066,-0.803,0.589,-2.75,3.63,1.71,3,1
18256.031,0.055,-0.8,0.586,-2.23,3.57,-0.21,3,1
18256.046,0.048,-0.803,0.592,-1.92,3.39,-1.1,3,1
18256.062,0.045,-0.803,0.605,-0.79,3.02,-1.13,3,1
18256.078,0.052,-0.796,0.61,0.76,1.65,-0.79,3,1
18256.078,0.06,-0.789,0.61,0.95,-0.09,-0.21,3,1
18256.093,0.056,-0.792,0.601,0.4,-1.56,0.27,3,1
18256.093,0.036,-0.801,0.58,-0.58,-2.11,1.62,3,1
18256.109,0.025,-0.814,0.562,-2.81,-1.5,3.51,3,1
18256.125,0.033,-0.838,0.561,-4.09,-0.52,4.06,3,1
18256.125,0.034,-0.858,0.566,-2.47,1.1,3.36,3,1
18256.14,0.04,-0.854,0.583,-1.19,2.56,3.17,3,1
18256.156,0.048,-0.851,0.605,-1.56,2.08,2.41,3,1
18256.156,0.038,-0.859,0.618,-2.01,-0.18,0.64,3,1
18256.171,0.025,-0.872,0.612,-1.65,-2.87,-0.67,3,1
18256.171,0.03,-0.873,0.583,-0.79,-5.58,-1.43,3,1
18256.187,0.031,-0.872,0.562,-0.73,-6.53,-2.17,3,1
18256.203,0.022,-0.889,0.544,-0.34,-5.71,-2.59,3,1
18256.203,0.024,-0.889,0.538,-0.15,-4.21,-2.26,3,1
18256.218,0.03,-0.894,0.54,-0.18,-2.9,-3.14,3,1
18256.234,0.032,-0.902,0.547,0.79,-1.86,-5.55,3,1
18256.234,0.039,-0.889,0.554,2.41,-1.83,-9.46,3,1
18256.25,0.035,-0.869,0.557,4.03,-2.5,-13.58,3,1
18256.265,0.031,-0.857,0.552,4.76,-3.23,-16.72,3,1
18256.265,0.044,-0.851,0.543,5.19,-3.48,-19.17,3,1
18256.281,0.052,-0.839,0.541,5.95,-2.5,-21.12,3,1
18256.296,0.058,-0.817,0.556,5.86,-0.98,-22.19,3,1
18256.296,0.065,-0.797,0.571,5.22,0.09,-22.86,3,1
