timestamp,ax,ay,az,gx,gy,gz,orient_label,motion_label
18045.718,-0.411,-0.013,0.952,3.66,4.94,-2.9,3,1
18045.734,-0.411,-0.036,0.987,7.93,4.91,-4.76,3,1
18045.75,-0.414,-0.044,0.998,10.44,2.78,-7.97,3,1
18045.75,-0.427,-0.042,1.004,9.92,-1.01,-11.96,3,1
18045.765,-0.442,-0.039,0.989,9.03,-4.36,-14.83,3,1
18045.781,-0.435,-0.024,0.957,8.42,-6.59,-15.17,3,1
18045.781,-0.412,0.008,0.921,7.23,-6.41,-14.37,3,1
18045.796,-0.413,0.033,0.896,4.88,-3.45,-12.51,3,1
18045.796,-0.425,0.043,0.9,2.2,0.03,-8.82,3,1
18045.812,-0.43,0.045,0.903,0.21,2.14,-4.12,3,1
18045.828,-0.431,0.031,0.905,-1.92,3.3,-0.46,3,1
18045.828,-0.427,0.01,0.91,-3.69,3.72,1.83,3,1
18045.843,-0.428,-0.005,0.913,-3.6,3.51,2.56,3,1
18045.859,-0.432,-0.009,0.909,-2.72,2.32,2.26,3,1
18045.859,-0.429,-0.015,0.9,-2.38,0.43,0.98,3,1
18045.875,-0.43,-0.023,0.88,-1.65,-1.16,-0.58,3,1
18045.89,-0.42,-0.027,0.869,-0.15,-2.2,-2.26,3,1
18045.89,-0.43,-0.011,0.861,3.2,-2.5,-4.21,3,1
18045.906,-0.429,0.018,0.846,4.7,-2.99,-4.49,3,1
18045.921,-0.424,0.025,0.836,3.66,-3.14,-3.48,3,1
18045.921,-0.43,0.037,0.843,2.32,-2.32,-1.74,3,1
18045.937,-0.444,0.029,0.847,1.43,-1.4,0.98,3,1
18045.937,-0.445,0.013,0.843,0.06,-0.76,4.0,3,1
18045.953,-0.445,-0.014,0.845,-1.13,0.27,4.82,3,1
18045.968,-0.453,-0.036,0.858,-1.13,1.65,3.81,3,1
18045.968,-0.442,-0.048,0.88,0.31,2.66,2.14,3,1
18045.984,-0.438,-0.049,0.905,3.08,3.2,-1.37,3,1
18046.0,-0.446,-0.044,0.927,5.71,2.69,-5.52,3,1
18046.0,-0.453,-0.035,0.945,7.51,1.34,-8.48,3,1
18046.015,-0.451,-0.019,0.96,8.55,-0.76,-10.74,3,1
18046.015,-0.453,-0.001,0.959,9.13,-2.69,-12.09,3,1
18046.031,-0.457,0.019,0.946,8.03,-3.54,-11.54,3,1
18046.046,-0.454,0.031,0.934,5.1,-3.33,-10.04,3,1
18046.046,-0.446,0.031,0.926,2.41,-2.35,-8.18,3,1
18046.062,-0.439,0.033,0.919,0.64,-0.76,-6.1,3,1
18046.078,-0.444,0.035,0.924,-0.34,0.61,-4.46,3,1
18046.078,-0.449,0.028,0.922,-0.92,0.85,-2.81,3,1
18046.093,-0.438,0.018,0.915,-1.43,0.03,-1.86,3,1
18046.109,-0.429,0.002,0.904,-0.37,-1.37,-4.3,3,1
18046.109,-0.431,-0.008,0.89,0.49,-0.95,-5.22,3,1
18046.125,-0.432,-0.006,0.882,1.07,-0.64,-5.68,3,1
18046.14,-0.428,-0.007,0.885,1.4,-0.55,-6.47,3,1
18046.14,-0.418,-0.027,0.889,2.59,-0.61,-7.72,3,1
18046.156,-0.428,-0.033,0.902,4.82,-1.62,-9.49,3,1
18046.156,-0.433,-0.039,0.9,7.35,-3.75,-11.51,3,1
18046.171,-0.433,-0.052,0.9,9.77,-6.47,-13.89,3,1
18046.187,-0.413,-0.077,0.913,13.15,-10.07,-17.91,3,1
18046.203,-0.4,-0.085,0.908,19.35,-13.64,-23.83,3,1
18046.203,-0.396,-0.073,0.908,24.69,-16.94,-30.43,3,1
18046.218,-0.389,-0.069,0.925,28.6,-20.29,-37.35,3,1
18046.218,-0.39,-0.053,0.956,33.02,-23.38,-43.46,3,1
18046.234,-0.389,-0.036,0.989,37.78,-27.41,-48.92,3,1
18046.25,-0.384,-0.024,1.033,42.05,-32.38,-53.93,3,1
18046.25,-0.392,-0.02,1.089,46.57,-38.06,-59.14,3,1
18046.265,-0.398,-0.037,1.141,52.92,-45.47,-64.33,3,1
18046.281,-0.408,-0.042,1.186,60.09,-54.08,-70.38,3,1
18046.281,-0.431,-0.053,1.215,69.55,-64.03,-78.89,3,1
18046.296,-0.456,-0.045,1.224,80.14,-75.59,-88.38,3,1
18046.296,-0.452,-0.027,1.217,90.06,-89.45,-98.06,3,1
18046.312,-0.43,-0.016,1.21,99.7,-102.15,-106.69,3,1
18046.328,-0.411,-0.001,1.193,108.07,-111.39,-112.83,3,1
18046.328,-0.391,-0.001,1.167,113.8,-117.13,-116.95,3,1
18046.343,-0.373,-0.011,1.14,117.77,-119.54,-119.08,3,1
18046.359,-0.363,-0.012,1.103,119.57,-119.69,-121.49,3,1
18046.359,-0.346,-0.006,1.067,119.24,-117.86,-125.28,3,1
18046.375,-0.334,0.004,1.03,111.09,-113.25,-131.08,3,1
18046.39,-0.323,-0.019,0.987,92.87,-108.22,-141.51,3,1
18046.406,-0.283,-0.061,1.057,68.06,-89.48,-166.11,3,1
18046.406,-0.426,-0.068,1.107,78.74,-80.2,-176.58,3,1
18046.421,-0.479,-0.031,1.081,85.76,-78.71,-175.27,3,1
18046.437,-0.497,0.058,1.154,83.71,-82.4,-170.78,3,1
18046.437,-0.553,0.065,1.193,83.77,-87.86,-166.48,3,1
18046.453,-0.54,0.081,1.202,77.27,-103.55,-161.99,3,1
18046.468,-0.67,0.269,0.841,61.74,-121.56,-152.9,3,1
18046.468,-0.466,0.688,0.834,-13.21,-139.77,-123.48,3,1
18046.484,-0.234,0.313,1.551,-72.24,-140.42,-108.19,3,1
18046.5,-0.509,-0.223,1.785,-35.77,-148.29,-107.55,3,1
18046.5,-0.513,0.121,1.525,23.83,-175.85,-83.65,3,1
18046.515,-0.216,0.427,1.275,54.23,-197.33,-60.27,3,1
18046.531,-0.005,0.337,1.171,51.48,-202.31,-62.17,3,1
18046.531,-0.008,0.219,0.984,33.23,-194.65,-73.31,3,1
18046.546,0.094,0.15,0.857,18.77,-183.63,-78.13,3,1
18046.546,0.173,0.174,0.774,22.52,-160.16,-78.8,3,1
18046.562,0.231,0.217,0.767,25.91,-127.84,-72.63,3,1
18046.578,0.22,0.347,0.901,20.94,-96.62,-65.83,3,1
18046.578,0.132,0.461,1.178,18.56,-75.14,-58.08,3,1
18046.593,0.002,0.469,1.434,32.01,-71.08,-46.75,3,1
18046.609,-0.087,0.517,1.583,56.73,-83.83,-28.2,3,1
18046.609,-0.079,0.645,1.625,88.41,-106.14,-5.65,3,1
18046.625,-0.014,0.79,1.554,116.0,-129.58,17.52,3,1
18046.64,0.101,0.892,1.405,123.97,-150.0,41.29,3,1
18046.64,0.248,0.919,1.242,110.2,-164.59,63.72,3,1
18046.656,0.398,0.858,1.112,88.66,-170.72,82.89,3,1
18046.656,0.54,0.734,1.016,72.54,-166.54,98.24,3,1
18046.671,0.658,0.605,0.967,70.25,-152.26,110.63,3,1
18046.687,0.702,0.517,0.963,83.04,-131.9,119.63,3,1
18046.687,0.703,0.454,0.925,104.5,-112.58,126.04,3,1
18046.703,0.716,0.45,0.889,120.12,-96.71,131.23,3,1
18046.718,0.693,0.464,0.855,123.29,-85.39,132.97,3,1
18046.734,0.603,0.379,0.767,84.51,-83.41,130.38,3,1
18046.75,0.58,0.275,0.727,54.2,-89.48,127.57,3,1
18046.75,0.561,0.146,0.687,25.18,-96.47,121.68,3,1
18046.765,0.524,-0.028,0.625,5.55,-102.48,112.43,3,1
18046.781,0.568,-0.198,0.562,4.55,-104.13,104.4,3,1
18046.781,0.639,-0.275,0.499,24.05,-94.85,96.1,3,1
18046.796,0.669,-0.3,0.411,59.24,-74.07,85.06,3,1
18046.812,0.653,-0.285,0.316,97.84,-47.06,72.7,3,1
18046.812,0.574,-0.239,0.224,126.96,-19.2,57.59,3,1
18046.828,0.539,-0.213,0.162,134.62,2.11,42.21,3,1
18046.828,0.456,-0.172,0.141,123.26,17.18,21.64,3,1
18046.843,0.433,-0.103,0.137,101.44,21.45,1.16,3,1
18046.859,0.42,-0.063,0.138,77.88,25.24,-17.4,3,1
18046.859,0.394,-0.062,0.132,57.77,33.81,-27.83,3,1
18046.875,0.419,-0.025,0.163,47.88,46.75,-31.8,3,1
18046.89,0.368,0.081,0.24,51.45,64.03,-28.63,3,1
18046.89,0.384,0.187,-0.011,71.05,88.53,-18.37,3,1
18046.906,0.445,0.223,0.083,57.92,109.93,-14.89,3,1
18046.921,0.32,0.353,0.198,33.27,123.84,-18.07,3,1
18046.921,0.282,0.445,0.145,22.1,135.69,-6.96,3,1
18046.937,0.272,0.513,0.196,-5.07,140.26,1.83,3,1
18046.937,0.217,0.632,0.321,-40.01,138.8,4.79,3,1
18046.953,0.157,0.621,0.431,-69.52,129.64,12.63,3,1
18046.968,0.15,0.537,0.552,-94.15,111.7,24.48,3,1
18046.968,0.174,0.441,0.616,-106.66,89.91,35.43,3,1
18046.984,0.21,0.31,0.624,-104.53,69.15,40.44,3,1
18047.0,0.278,0.22,0.643,-93.33,56.7,38.27,3,1
18047.0,0.322,0.224,0.652,-77.91,56.52,26.06,3,1
18047.015,0.299,0.271,0.674,-61.4,64.61,8.24,3,1
18047.031,0.228,0.341,0.75,-46.48,77.36,-5.86,3,1
18047.031,0.127,0.452,0.987,-37.69,88.11,-14.01,3,1
18047.046,-0.177,0.865,1.593,-36.44,82.67,-15.29,3,1
18047.046,-0.111,0.945,1.659,-23.96,30.24,2.9,3,1
18047.062,0.103,0.764,1.19,-29.69,-27.19,12.05,3,1
18047.078,0.214,0.53,0.96,-45.47,-40.04,27.38,3,1
18047.078,0.199,0.33,0.846,-39.95,-26.09,33.17,3,1
18047.093,0.271,0.211,0.719,-32.75,-12.7,30.37,3,1
18047.109,0.304,0.194,0.655,-26.95,-1.86,23.56,3,1
18047.109,0.313,0.142,0.633,-21.39,9.89,18.31,3,1
18047.125,0.342,0.153,0.634,-12.05,22.98,14.8,3,1
18047.14,0.303,0.164,0.771,-3.72,33.45,10.99,3,1
18047.14,0.231,0.188,0.956,5.1,34.88,8.64,3,1
18047.156,0.276,0.213,0.95,17.3,29.91,8.73,3,1
18047.171,0.317,0.28,0.991,24.26,28.57,5.83,3,1
18047.171,0.276,0.292,1.004,31.5,28.9,0.4,3,1
18047.187,0.286,0.309,0.997,37.84,27.44,1.13,3,1
18047.187,0.294,0.318,0.95,41.14,26.28,1.83,3,1
18047.203,0.29,0.296,0.89,41.02,25.42,0.12,3,1
18047.218,0.291,0.307,0.859,35.22,25.33,0.09,3,1
18047.218,0.273,0.311,0.853,27.53,27.25,-0.98,3,1
18047.234,0.26,0.308,0.852,21.85,28.23,-3.27,3,1
18047.25,0.249,0.34,0.862,16.21,28.93,-2.47,3,1
18047.25,0.224,0.332,0.872,13.7,28.81,-3.57,3,1
18047.265,0.215,0.314,0.89,15.9,25.18,-4.49,3,1
18047.265,0.201,0.323,0.884,23.19,20.87,-5.16,3,1
18047.281,0.185,0.352,0.881,28.2,15.59,-4.52,3,1
18047.296,0.16,0.355,0.888,30.03,10.47,-1.86,3,1
18047.296,0.181,0.327,0.886,29.85,5.31,2.66,3,1
18047.312,0.212,0.313,0.883,28.05,3.54,5.58,3,1
18047.328,0.225,0.311,0.897,23.99,3.14,4.85,3,1
18047.328,0.232,0.31,0.913,15.63,0.79,0.67,3,1
18047.343,0.229,0.313,0.934,4.73,-3.05,-3.75,3,1
18047.359,0.23,0.309,0.949,-4.94,-7.6,-7.05,3,1
18047.359,0.22,0.319,0.968,-10.62,-12.24,-9.52,3,1
18047.375,0.208,0.336,0.97,-12.12,-17.0,-8.88,3,1
18047.375,0.235,0.342,0.93,-11.38,-21.39,-4.33,3,1
18047.39,0.271,0.352,0.921,-8.09,-22.49,0.64,3,1
18047.406,0.281,0.352,0.924,-2.99,-22.03,3.45,3,1
18047.406,0.301,0.336,0.912,0.95,-22.1,4.27,3,1
18047.421,0.333,0.323,0.886,3.42,-21.24,3.2,3,1
18047.437,0.351,0.33,0.866,5.65,-18.22,-0.24,3,1
18047.437,0.34,0.34,0.856,7.63,-13.61,-2.78,3,1
18047.453,0.33,0.367,0.855,8.97,-10.96,-1.71,3,1
18047.468,0.344,0.382,0.854,9.55,-10.86,-1.13,3,1
18047.468,0.347,0.39,0.869,7.97,-9.28,-1.5,3,1
18047.484,0.32,0.393,0.882,4.7,-7.72,-2.53,3,1
18047.484,0.292,0.374,0.894,0.15,-10.38,-2.44,3,1
18047.5,0.296,0.356,0.892,-2.04,-13.76,-0.46,3,1
18047.515,0.294,0.356,0.881,-0.46,-13.61,2.29,3,1
18047.515,0.291,0.348,0.878,1.86,-12.51,5.01,3,1
18047.531,0.297,0.354,0.89,4.06,-12.12,7.97,3,1
18047.546,0.297,0.37,0.897,4.64,-12.91,10.28,3,1
18047.546,0.297,0.378,0.898,1.62,-15.93,11.84,3,1
18047.562,0.305,0.362,0.882,-3.94,-21.33,12.45,3,1
18047.578,0.323,0.349,0.853,-10.59,-26.28,12.7,3,1
18047.578,0.34,0.343,0.834,-17.7,-30.43,11.96,3,1
18047.593,0.361,0.337,0.816,-24.26,-32.17,10.74,3,1
18047.609,0.387,0.332,0.778,-28.47,-29.69,10.28,3,1
18047.609,0.407,0.321,0.765,-30.21,-23.1,11.57,3,1
18047.625,0.417,0.316,0.798,-29.3,-14.56,13.37,3,1
18047.64,0.419,0.333,0.85,-25.12,-6.68,16.21,3,1
18047.64,0.419,0.335,0.886,-19.81,-1.46,18.37,3,1
18047.656,0.415,0.31,0.907,-15.59,0.21,18.49,3,1
18047.656,0.41,0.286,0.921,-11.35,0.24,17.0,3,1
18047.671,0.403,0.264,0.906,-5.62,0.27,14.19,3,1
18047.687,0.4,0.244,0.889,-0.49,0.85,11.69,3,1
18047.687,0.396,0.239,0.878,2.66,1.62,9.09,3,1
18047.703,0.379,0.255,0.874,4.82,2.93,6.35,3,1
18047.718,0.356,0.296,0.895,7.17,3.48,6.5,3,1
18047.718,0.354,0.315,0.904,10.59,2.93,9.46,3,1
18047.734,0.361,0.326,0.91,13.06,2.41,11.9,3,1
18047.75,0.362,0.323,0.888,14.4,1.31,12.12,3,1
18047.75,0.366,0.312,0.864,13.58,0.18,11.51,3,1
18047.765,0.382,0.31,0.851,10.1,-1.22,9.31,3,1
18047.765,0.381,0.318,0.834,5.25,-2.14,5.98,3,1
18047.781,0.372,0.346,0.833,-0.49,-2.5,4.94,3,1
18047.796,0.376,0.365,0.841,-4.49,-2.38,6.81,3,1
18047.812,0.37,0.377,0.862,-7.11,-1.43,9.8,3,1
18047.812,0.353,0.369,0.868,-8.76,-0.98,14.16,3,1
18047.828,0.365,0.332,0.875,-9.89,-1.37,19.47,3,1
18047.828,0.373,0.294,0.878,-9.61,-0.98,22.98,3,1
18047.843,0.382,0.27,0.881,-7.51,-0.4,24.6,3,1
18047.859,0.396,0.266,0.884,-2.99,0.7,25.33,3,1
18047.859,0.404,0.256,0.874,1.07,2.14,24.32,3,1
18047.875,0.398,0.253,0.881,3.66,3.11,21.49,3,1
18047.875,0.397,0.247,0.886,6.53,4.43,19.29,3,1
18047.89,0.397,0.246,0.887,9.28,5.92,17.64,3,1
18047.906,0.403,0.236,0.891,12.05,7.35,15.84,3,1
18047.921,0.411,0.231,0.883,14.22,7.42,12.42,3,1
18047.921,0.415,0.24,0.874,15.53,7.08,7.97,3,1
18047.937,0.422,0.247,0.866,15.75,6.81,3.97,3,1
18047.937,0.42,0.268,0.858,16.02,6.9,-0.37,3,1
18047.953,0.414,0.31,0.856,16.36,7.54,-3.97,3,1
18047.968,0.398,0.354,0.848,16.21,8.79,-4.76,3,1
18047.968,0.386,0.371,0.841,15.17,10.01,-2.78,3,1
18047.984,0.374,0.365,0.837,12.24,10.22,-1.28,3,1
18047.984,0.361,0.352,0.839,7.57,9.92,-0.15,3,1
18048.0,0.358,0.338,0.86,2.11,9.37,2.04,3,1
18048.015,0.372,0.321,0.876,-0.85,8.33,2.56,3,1
18048.015,0.361,0.301,0.875,-2.59,6.2,2.32,3,1
18048.031,0.378,0.296,0.887,-3.66,2.93,-0.4,3,1
18048.046,0.371,0.286,0.881,-4.76,2.62,-2.23,3,1
18048.046,0.383,0.302,0.876,-5.13,-0.06,-4.82,3,1
18048.062,0.383,0.327,0.874,-7.29,-2.23,-8.0,3,1
18048.078,0.362,0.351,0.871,-11.93,-4.03,-8.15,3,1
18048.093,0.362,0.387,0.834,-19.78,-1.46,-0.4,3,1
18048.109,0.346,0.35,0.851,-23.32,-1.56,3.3,3,1
18048.109,0.367,0.338,0.824,-28.2,-2.23,6.01,3,1
18048.125,0.384,0.354,0.833,-34.18,-2.44,6.81,3,1
18048.125,0.381,0.347,0.845,-39.67,-2.14,7.81,3,1
18048.14,0.377,0.337,0.867,-45.41,-1.77,10.56,3,1
18048.156,0.404,0.301,0.85,-49.93,-0.7,12.18,3,1
18048.156,0.378,0.25,0.902,-53.16,1.07,10.96,3,1
18048.171,0.363,0.192,0.924,-51.48,0.46,10.96,3,1
18048.187,0.376,0.137,0.943,-47.33,2.01,9.4,3,1
18048.187,0.356,0.078,0.978,-37.63,6.87,6.2,3,1
18048.203,0.318,0.033,0.998,-23.53,9.16,3.2,3,1
18048.218,0.304,0.019,1.013,-7.2,8.79,2.01,3,1
18048.218,0.283,0.024,1.012,11.38,6.01,2.04,3,1
18048.234,0.264,0.046,0.996,29.45,-0.64,2.72,3,1
18048.25,0.286,0.102,0.985,43.73,-10.77,2.72,3,1
18048.265,0.304,0.371,0.917,45.72,-42.36,-2.32,3,1
18048.281,0.376,0.479,0.844,24.96,-55.88,-4.7,3,1
18048.281,0.362,0.557,0.922,11.41,-58.44,0.12,3,1
18048.296,0.371,0.552,0.882,17.55,-53.38,22.22,3,1
18048.296,0.437,0.322,0.875,9.03,-48.59,35.49,3,1
18048.312,0.487,0.21,0.849,7.87,-45.78,32.53,3,1
18048.328,0.514,0.17,0.725,15.38,-35.92,32.29,3,1
18048.328,0.514,0.156,0.7,23.71,-22.55,27.74,3,1
18048.343,0.555,0.17,0.677,28.78,-9.22,22.98,3,1
18048.359,0.574,0.229,0.67,25.51,6.5,16.82,3,1
18048.359,0.57,0.261,0.676,24.11,23.22,10.13,3,1
18048.375,0.526,0.275,0.688,23.59,38.12,5.52,3,1
18048.39,0.5,0.307,0.733,19.44,49.13,3.3,3,1
18048.39,0.473,0.327,0.779,12.97,56.4,1.53,3,1
18048.406,0.436,0.331,0.819,4.21,58.6,-0.82,3,1
18048.406,0.402,0.315,0.858,-7.63,55.51,-4.33,3,1
18048.437,0.279,0.272,1.064,-32.69,34.46,-15.38,3,1
18048.453,0.259,0.203,1.153,-33.11,10.65,-15.47,3,1
18048.453,0.37,0.178,1.011,-29.79,-10.41,-17.0,3,1
18048.468,0.376,0.154,0.896,-25.21,-11.81,-21.03,3,1
18048.468,0.394,0.077,0.863,-19.1,-7.84,-23.41,3,1
18048.484,0.391,0.087,0.898,-11.08,-3.57,-27.5,3,1
18048.5,0.402,0.152,0.904,0.24,1.28,-29.88,3,1
18048.5,0.407,0.209,0.912,6.32,4.82,-33.23,3,1
18048.515,0.396,0.229,0.908,9.25,6.1,-38.91,3,1
18048.515,0.384,0.241,0.907,11.81,5.68,-44.47,3,1
18048.531,0.37,0.26,0.895,14.74,4.46,-47.79,3,1
18048.546,0.378,0.269,0.863,17.12,3.2,-49.5,3,1
18048.546,0.372,0.309,0.867,17.49,4.46,-49.96,3,1
18048.562,0.364,0.351,0.885,17.4,6.81,-48.43,3,1
18048.578,0.329,0.361,0.894,18.31,7.63,-46.45,3,1
18048.578,0.282,0.405,0.924,21.94,6.44,-39.92,3,1
18048.609,0.273,0.428,0.879,20.97,-0.4,-23.56,3,1
18048.609,0.28,0.443,0.884,11.9,-4.27,-16.79,3,1
18048.625,0.279,0.395,0.849,3.3,-9.58,-13.55,3,1
18048.64,0.284,0.353,0.831,-4.03,-12.42,-9.06,3,1
18048.64,0.32,0.35,0.839,-8.51,-12.05,-3.27,3,1
18048.656,0.333,0.342,0.852,-12.05,-9.86,-0.15,3,1
18048.656,0.335,0.323,0.881,-14.28,-7.42,2.44,3,1
18048.671,0.344,0.287,0.894,-13.76,-6.68,3.97,3,1
18048.687,0.354,0.267,0.91,-11.02,-6.41,4.46,3,1
18048.687,0.365,0.275,0.915,-7.05,-4.85,5.46,3,1
18048.703,0.373,0.263,0.908,-1.59,-3.54,5.55,3,1
18048.718,0.375,0.256,0.901,3.81,-2.56,4.46,3,1
18048.718,0.379,0.27,0.895,8.64,-1.77,3.17,3,1
18048.734,0.366,0.307,0.901,12.51,-1.1,2.5,3,1
18048.75,0.354,0.337,0.89,15.56,-1.13,3.57,3,1
18048.75,0.351,0.34,0.878,17.21,-1.59,5.52,3,1
18048.781,0.358,0.327,0.856,17.43,-0.18,8.85,3,1
18048.781,0.357,0.334,0.865,17.94,2.38,10.74,3,1
18048.796,0.354,0.323,0.865,18.74,4.27,11.63,3,1
18048.796,0.352,0.316,0.863,18.28,5.07,10.8,3,1
18048.812,0.35,0.315,0.853,17.3,5.46,9.58,3,1
18048.828,0.355,0.319,0.862,15.32,6.2,8.33,3,1
18048.828,0.355,0.311,0.863,13.15,6.53,6.26,3,1
18048.843,0.357,0.311,0.861,11.6,5.43,3.51,3,1
18048.859,0.356,0.335,0.868,9.77,4.46,1.62,3,1
18048.859,0.353,0.349,0.872,8.97,4.36,1.22,3,1
18048.875,0.351,0.357,0.874,9.58,4.76,2.29,3,1
18048.89,0.343,0.362,0.875,9.7,4.09,3.48,3,1
18048.89,0.332,0.377,0.885,9.37,2.32,5.13,3,1
18048.906,0.352,0.387,0.871,11.47,2.01,10.32,3,1
18048.906,0.342,0.372,0.862,10.59,1.28,11.99,3,1
18048.921,0.342,0.364,0.853,9.61,1.28,14.71,3,1
18048.953,0.357,0.34,0.853,6.84,1.83,18.46,3,1
18048.953,0.369,0.33,0.857,5.8,2.78,18.77,3,1
18048.968,0.374,0.299,0.851,4.46,2.56,16.36,3,1
18048.968,0.388,0.281,0.86,2.17,1.65,11.57,3,1
18048.984,0.394,0.277,0.861,0.61,0.82,4.94,3,1
18049.0,0.379,0.288,0.862,-0.31,0.37,-2.26,3,1
18049.0,0.377,0.322,0.866,1.86,0.82,-6.01,3,1
18049.015,0.365,0.351,0.862,4.85,1.8,-7.75,3,1
18049.015,0.352,0.366,0.856,6.1,3.63,-7.54,3,1
18049.031,0.337,0.368,0.871,5.83,5.74,-5.4,3,1
18049.046,0.329,0.36,0.885,5.8,5.55,-3.11,3,1
18049.046,0.334,0.345,0.877,3.81,0.4,-2.62,3,1
18049.062,0.341,0.343,0.86,1.53,-1.19,-3.33,3,1
18049.078,0.347,0.36,0.855,-0.73,-2.23,-3.85,3,1
18049.093,0.351,0.376,0.85,-3.85,-3.08,-4.09,3,1
18049.093,0.352,0.379,0.839,-8.09,-4.33,-4.46,3,1
18049.109,0.354,0.364,0.849,-11.78,-5.46,-5.04,3,1
18049.109,0.359,0.354,0.872,-15.26,-6.93,-5.95,3,1
18049.125,0.357,0.331,0.872,-17.37,-9.03,-8.7,3,1
18049.14,0.357,0.31,0.871,-18.22,-9.25,-10.04,3,1
18049.14,0.363,0.284,0.877,-15.53,-7.9,-10.38,3,1
18049.156,0.363,0.284,0.899,-10.38,-5.01,-10.16,3,1
18049.156,0.36,0.294,0.913,-4.06,-3.17,-10.44,3,1
18049.171,0.35,0.287,0.901,1.34,-3.51,-11.87,3,1
18049.187,0.358,0.302,0.872,3.05,-4.09,-13.49,3,1
18049.203,0.371,0.309,0.828,3.08,-2.81,-15.41,3,1
18049.203,0.356,0.333,0.845,3.08,0.7,-16.05,3,1
18049.218,0.349,0.374,0.879,5.62,4.03,-12.76,3,1
18049.218,0.34,0.39,0.88,8.51,4.76,-9.4,3,1
18049.234,0.34,0.377,0.874,8.0,4.09,-7.48,3,1
18049.25,0.326,0.366,0.889,6.53,2.35,-7.05,3,1
18049.25,0.318,0.368,0.897,6.56,0.18,-5.01,3,1
18049.265,0.333,0.349,0.878,7.39,-1.98,-3.39,3,1
18049.265,0.341,0.334,0.864,7.26,-2.81,-3.3,3,1
18049.281,0.347,0.339,0.856,7.14,-2.41,-3.91,3,1
18049.296,0.347,0.346,0.852,7.72,-1.19,-4.43,3,1
18049.296,0.341,0.366,0.874,7.63,0.06,-4.09,3,1
18049.312,0.334,0.377,0.893,8.36,-0.37,-3.14,3,1
18049.328,0.334,0.377,0.885,9.86,-1.77,-1.71,3,1
18049.328,0.338,0.375,0.853,9.98,-2.59,-0.55,3,1
18049.343,0.336,0.38,0.834,7.75,-2.53,-0.55,3,1
18049.359,0.323,0.401,0.834,4.55,-3.05,-0.34,3,1
18049.359,0.331,0.419,0.823,0.09,-4.7,0.58,3,1
18049.375,0.341,0.429,0.817,-6.53,-5.16,1.28,3,1
18049.375,0.344,0.401,0.821,-11.96,-3.91,2.17,3,1
18049.39,0.343,0.366,0.833,-15.26,-2.23,2.87,3,1
18049.406,0.35,0.34,0.851,-16.85,-1.37,3.08,3,1
18049.421,0.356,0.319,0.881,-16.66,-0.37,2.69,3,1
18049.421,0.353,0.308,0.902,-14.22,0.09,2.59,3,1
18049.437,0.358,0.305,0.891,-9.92,-0.73,2.32,3,1
18049.437,0.369,0.331,0.883,-6.78,-0.79,1.95,3,1
18049.453,0.366,0.341,0.871,-4.76,-0.73,1.19,3,1
18049.468,0.362,0.35,0.852,-5.07,-1.16,-0.09,3,1
18049.468,0.363,0.379,0.85,-8.06,-1.1,-0.43,3,1
18049.484,0.331,0.398,0.88,-10.44,-1.4,1.31,3,1
18049.484,0.35,0.366,0.878,-11.93,-2.66,4.55,3,1
18049.5,0.348,0.333,0.875,-13.12,-1.22,5.16,3,1
18049.515,0.34,0.273,0.877,-10.68,1.25,4.97,3,1
18049.531,0.337,0.23,0.881,-5.86,3.11,3.51,3,1
18049.531,0.327,0.21,0.89,0.18,4.97,0.92,3,1
18049.546,0.317,0.219,0.898,6.5,6.29,-1.53,3,1
18049.546,0.313,0.25,0.884,13.18,7.2,-2.29,3,1
18049.562,0.327,0.273,0.891,18.62,6.38,-2.35,3,1
18049.578,0.34,0.306,0.89,25.51,4.85,-2.93,3,1
18049.578,0.334,0.379,0.923,30.95,3.51,-3.08,3,1
18049.593,0.3,0.454,0.91,32.41,-4.0,-2.81,3,1
18049.609,0.329,0.515,0.889,26.52,-13.52,-1.95,3,1
18049.609,0.26,0.565,0.867,17.73,-22.46,-1.13,3,1
18049.625,0.228,0.559,0.839,3.3,-31.22,5.37,3,1
18049.64,0.265,0.454,0.845,-16.17,-39.19,13.52,3,1
18049.64,0.33,0.323,0.864,-28.81,-45.53,15.59,3,1
18049.656,0.387,0.286,0.854,-27.53,-45.87,16.94,3,1
18049.656,0.419,0.244,0.865,-19.99,-42.42,15.53,3,1
18049.671,0.453,0.214,0.867,-12.3,-39.25,9.92,3,1
18049.687,0.456,0.255,0.855,-5.13,-35.0,3.91,3,1
18049.703,0.464,0.299,0.84,1.34,-31.1,-0.24,3,1
18049.703,0.472,0.311,0.814,3.78,-27.5,-4.18,3,1
18049.718,0.465,0.313,0.798,5.37,-22.64,-6.96,3,1
18049.718,0.462,0.325,0.787,8.36,-16.94,-7.87,3,1
18049.734,0.46,0.348,0.784,9.64,-10.99,-8.64,3,1
18049.75,0.438,0.354,0.773,8.85,-5.1,-9.7,3,1
18049.75,0.425,0.35,0.775,6.74,-0.06,-9.55,3,1
18049.765,0.426,0.353,0.78,4.55,4.12,-9.61,3,1
18049.765,0.427,0.368,0.792,0.89,7.75,-10.1,3,1
18049.781,0.408,0.388,0.8,-4.85,10.47,-10.74,3,1
18049.796,0.393,0.385,0.808,-10.22,10.93,-11.6,3,1
18049.812,0.396,0.381,0.805,-14.65,10.19,-11.63,3,1
18049.812,0.404,0.382,0.803,-18.71,10.32,-11.57,3,1
18049.828,0.411,0.377,0.803,-22.22,12.21,-10.99,3,1
18049.828,0.416,0.368,0.812,-23.59,16.08,-10.01,3,1
18049.843,0.414,0.342,0.805,-21.88,21.12,-9.25,3,1
18049.859,0.412,0.327,0.82,-19.01,26.89,-8.67,3,1
18049.859,0.336,0.339,0.967,-15.26,30.43,-8.36,3,1
18049.875,0.281,0.292,1.092,-8.3,20.78,-6.99,3,1
18049.875,0.329,0.285,1.014,-4.39,5.07,-8.33,3,1
18049.89,0.327,0.289,0.929,1.74,-0.43,-8.67,3,1
18049.906,0.334,0.247,0.885,8.67,-1.46,-7.42,3,1
18049.906,0.34,0.276,0.867,11.72,-0.58,-5.55,3,1
18049.921,0.339,0.321,0.863,11.02,0.92,-4.7,3,1
18049.937,0.344,0.331,0.866,9.37,1.62,-3.14,3,1
18049.937,0.36,0.351,0.864,10.32,1.53,-1.37,3,1
18049.953,0.362,0.37,0.859,11.96,1.59,-0.37,3,1
18049.968,0.369,0.382,0.839,11.87,1.16,-0.12,3,1
18049.968,0.383,0.393,0.824,11.23,2.38,-0.21,3,1
18049.984,0.368,0.386,0.838,9.98,4.67,0.18,3,1
18049.984,0.354,0.364,0.842,7.23,4.3,0.27,3,1
18050.0,0.359,0.368,0.862,4.7,3.48,1.8,3,1
18050.015,0.36,0.364,0.861,4.33,3.23,3.42,3,1
18050.015,0.361,0.351,0.858,5.22,2.87,4.27,3,1
18050.031,0.364,0.346,0.85,5.92,3.02,4.39,3,1
18050.046,0.36,0.361,0.855,6.93,5.62,5.31,3,1
18050.046,0.353,0.355,0.855,7.57,6.81,6.2,3,1
18050.062,0.349,0.358,0.859,7.87,7.23,6.96,3,1
18050.078,0.337,0.363,0.871,6.84,6.5,7.42,3,1
18050.078,0.338,0.354,0.866,4.82,4.15,7.51,3,1
18050.093,0.348,0.347,0.87,1.37,0.95,6.74,3,1
18050.109,0.352,0.348,0.876,-3.08,-1.92,4.61,3,1
18050.109,0.355,0.346,0.857,-5.46,-4.7,2.87,3,1
18050.125,0.369,0.354,0.833,-5.55,-5.55,2.14,3,1
18050.14,0.375,0.368,0.851,-1.77,-0.52,2.66,3,1
18050.156,0.367,0.357,0.864,-0.18,1.5,2.11,3,1
18050.156,0.366,0.334,0.865,1.77,1.68,1.04,3,1
18050.171,0.363,0.326,0.863,4.12,1.25,-0.15,3,1
18050.187,0.366,0.337,0.865,6.16,1.68,-0.49,3,1
18050.203,0.365,0.357,0.864,6.87,1.89,-0.55,3,1
18050.203,0.363,0.363,0.855,5.95,0.95,-1.22,3,1
18050.218,0.363,0.363,0.843,3.94,-0.21,-1.98,3,1
18050.218,0.359,0.368,0.843,1.65,-0.03,-1.71,3,1
18050.234,0.353,0.373,0.854,-0.24,0.79,-0.18,3,1
18050.25,0.349,0.37,0.863,-2.11,0.49,0.7,3,1
18050.25,0.346,0.358,0.863,-3.91,-0.49,0.67,3,1
18050.265,0.346,0.344,0.864,-4.36,-0.79,0.98,3,1
18050.265,0.349,0.343,0.866,-4.09,-0.95,1.56,3,1
18050.281,0.351,0.347,0.864,-4.58,-1.68,1.37,3,1
18050.296,0.358,0.348,0.863,-4.49,-2.04,0.82,3,1
18050.312,0.367,0.343,0.868,-0.82,-0.76,-0.15,3,1
18050.328,0.364,0.348,0.868,0.92,-0.58,-1.16,3,1
18050.328,0.36,0.347,0.857,2.81,-0.73,-2.38,3,1
18050.343,0.357,0.349,0.855,4.49,-0.37,-2.56,3,1
18050.359,0.359,0.36,0.858,5.83,0.43,-1.71,3,1
18050.359,0.363,0.365,0.864,6.32,0.85,-1.16,3,1
18050.375,0.359,0.361,0.856,5.52,0.64,-1.53,3,1
18050.375,0.355,0.366,0.849,3.69,-0.21,-1.8,3,1
18050.39,0.357,0.372,0.843,2.08,-1.04,-1.53,3,1
18050.406,0.357,0.384,0.841,-0.31,-1.62,-1.31,3,1
18050.421,0.359,0.383,0.842,-3.88,-1.92,-1.37,3,1
18050.421,0.354,0.369,0.844,-7.29,-2.17,-1.46,3,1
18050.437,0.355,0.355,0.854,-8.7,-2.23,-1.1,3,1
18050.437,0.358,0.339,0.862,-8.51,-2.11,-1.31,3,1
18050.453,0.359,0.327,0.869,-7.63,-1.53,-2.04,3,1
18050.468,0.356,0.331,0.885,-5.8,-0.46,-2.35,3,1
18050.468,0.354,0.33,0.89,-2.04,-0.09,-2.14,3,1
18050.484,0.355,0.335,0.884,2.04,-0.09,-1.8,3,1
18050.5,0.356,0.335,0.875,4.82,-0.15,-1.89,3,1
18050.5,0.357,0.344,0.866,6.68,0.03,-1.83,3,1
18050.515,0.36,0.357,0.857,8.39,0.4,-1.4,3,1
18050.515,0.365,0.363,0.852,8.79,0.46,-1.25,3,1
18050.531,0.36,0.37,0.85,7.81,0.21,-1.71,3,1
18050.546,0.351,0.383,0.846,6.2,-0.21,-1.19,3,1
18050.546,0.351,0.384,0.849,4.43,-0.12,0.52,3,1
18050.562,0.357,0.377,0.854,3.27,0.09,2.17,3,1
18050.578,0.354,0.35,0.845,1.89,-0.61,1.59,3,1
18050.578,0.359,0.35,0.851,-0.06,-1.34,0.31,3,1
18050.593,0.359,0.358,0.857,-1.04,-1.62,-0.64,3,1
18050.609,0.362,0.356,0.855,-1.16,-1.62,-1.68,3,1
18050.609,0.359,0.353,0.853,-0.95,-1.5,-2.9,3,1
18050.625,0.358,0.355,0.853,-1.31,-1.59,-4.03,3,1
18050.64,0.351,0.355,0.865,-2.38,-2.01,-5.25,3,1
18050.64,0.337,0.37,0.865,-2.01,-2.23,-5.46,3,1
18050.656,0.338,0.381,0.867,-0.24,-1.46,-2.47,3,1
18050.656,0.341,0.367,0.87,1.77,-0.82,-0.09,3,1
18050.671,0.339,0.353,0.865,2.47,-0.82,0.95,3,1
18050.687,0.347,0.356,0.859,1.5,-1.62,1.53,3,1
18050.687,0.358,0.369,0.858,0.67,-2.23,2.35,3,1
18050.703,0.365,0.375,0.851,0.61,-2.56,3.02,3,1
18050.718,0.369,0.369,0.845,-0.18,-2.69,3.11,3,1
18050.718,0.371,0.361,0.847,-1.86,-2.69,2.87,3,1
18050.734,0.375,0.351,0.847,-2.87,-2.9,2.23,3,1
18050.75,0.37,0.351,0.85,-3.23,-2.23,1.19,3,1
18050.75,0.361,0.344,0.856,-2.84,-1.31,0.12,3,1
18050.765,0.354,0.341,0.866,-2.26,-0.82,-0.46,3,1
18050.765,0.359,0.353,0.879,-2.04,-0.85,-0.52,3,1
18050.781,0.355,0.349,0.873,-0.85,-0.67,-0.85,3,1
18050.796,0.35,0.339,0.863,1.07,-0.55,-0.64,3,1
18050.796,0.355,0.336,0.857,4.27,-0.03,-0.24,3,1
18050.812,0.35,0.35,0.862,7.14,1.1,-0.98,3,1
18050.828,0.339,0.377,0.865,9.13,1.83,-1.59,3,1
18050.828,0.334,0.392,0.858,9.74,1.37,-1.28,3,1
18050.843,0.337,0.394,0.842,8.21,0.03,-0.27,3,1
18050.859,0.349,0.391,0.824,5.13,-1.68,0.73,3,1
18050.859,0.357,0.409,0.833,0.12,-2.53,1.98,3,1
18050.875,0.359,0.403,0.839,-4.82,-3.39,2.78,3,1
18050.875,0.362,0.375,0.835,-8.45,-4.39,2.87,3,1
18050.89,0.364,0.349,0.846,-10.01,-4.52,2.53,3,1
18050.906,0.364,0.345,0.866,-10.8,-4.03,2.17,3,1
18050.906,0.361,0.341,0.878,-10.71,-3.69,1.56,3,1
18050.921,0.363,0.325,0.876,-9.4,-3.94,0.82,3,1
18050.937,0.364,0.317,0.873,-6.9,-4.0,0.31,3,1
18050.937,0.367,0.323,0.871,-4.43,-3.57,0.21,3,1
18050.953,0.365,0.334,0.872,-2.23,-2.5,0.4,3,1
18050.968,0.363,0.337,0.868,-0.24,-1.98,0.37,3,1
18050.968,0.366,0.346,0.861,1.5,-2.2,-0.09,3,1
18050.984,0.365,0.351,0.848,3.02,-1.98,-0.61,3,1
18051.0,0.366,0.376,0.848,3.63,-0.64,-0.76,3,1
18051.015,0.359,0.372,0.84,3.54,-0.7,-1.13,3,1
18051.015,0.351,0.381,0.847,1.37,-0.52,0.03,3,1
18051.031,0.345,0.376,0.848,-0.24,-0.76,1.46,3,1
18051.046,0.344,0.366,0.854,-1.77,-1.34,2.26,3,1
18051.046,0.351,0.361,0.866,-2.35,-2.08,2.56,3,1
18051.062,0.359,0.345,0.867,-2.75,-3.2,2.44,3,1
18051.078,0.371,0.331,0.865,-2.47,-4.12,1.77,3,1
18051.093,0.378,0.331,0.86,-1.65,-4.15,1.04,3,1
18051.093,0.383,0.326,0.851,-0.27,-3.54,-0.4,3,1
18051.109,0.387,0.343,0.856,0.85,-2.66,-1.07,3,1
18051.109,0.386,0.35,0.855,2.47,-1.74,-1.83,3,1
18051.125,0.382,0.347,0.853,3.69,-1.1,-2.69,3,1
18051.125,0.379,0.357,0.85,4.0,-0.67,-3.33,3,1
18051.14,0.373,0.36,0.844,4.46,-0.4,-3.85,3,1
18051.156,0.373,0.374,0.848,4.27,-0.15,-3.75,3,1
18051.171,0.363,0.367,0.843,3.33,1.07,-3.63,3,1
18051.187,0.359,0.361,0.846,3.39,1.95,-2.9,3,1
18051.187,0.35,0.356,0.851,3.17,2.78,-2.38,3,1
18051.203,0.341,0.361,0.865,1.98,2.66,-1.89,3,1
18051.218,0.338,0.364,0.872,1.1,1.56,-1.19,3,1
18051.218,0.34,0.365,0.876,1.16,0.49,0.06,3,1
18051.234,0.336,0.369,0.871,1.1,-0.55,1.01,3,1
18051.25,0.34,0.367,0.864,0.58,-1.83,1.65,3,1
18051.25,0.345,0.365,0.857,0.0,-3.11,2.29,3,1
18051.265,0.354,0.368,0.85,-0.43,-3.88,2.47,3,1
18051.265,0.361,0.378,0.851,-1.22,-4.09,2.75,3,1
18051.281,0.36,0.377,0.849,-2.26,-4.76,2.35,3,1
18051.296,0.362,0.372,0.858,-3.81,-6.32,1.98,3,1
18051.296,0.371,0.364,0.858,-5.52,-9.06,0.4,3,1
18051.312,0.369,0.357,0.866,-8.58,-12.6,-2.41,3,1
18051.328,0.361,0.36,0.876,-13.18,-17.18,-5.74,3,1
18051.328,0.364,0.351,0.873,-17.0,-22.8,-8.67,3,1
18051.343,0.367,0.343,0.879,-20.51,-27.74,-11.2,3,1
18051.359,0.376,0.329,0.881,-21.76,-30.73,-13.18,3,1
18051.359,0.376,0.321,0.873,-21.15,-31.65,-14.34,3,1
18051.375,0.377,0.318,0.875,-18.37,-30.34,-14.25,3,1
18051.39,0.382,0.305,0.871,-11.78,-27.44,-12.97,3,1
18051.39,0.394,0.307,0.868,-3.23,-22.98,-10.47,3,1
18051.406,0.398,0.312,0.859,4.73,-18.43,-9.28,3,1
18051.406,0.396,0.312,0.848,10.19,-14.71,-9.06,3,1
18051.421,0.402,0.323,0.835,13.46,-11.41,-8.94,3,1
18051.437,0.404,0.336,0.818,15.44,-8.48,-8.76,3,1
18051.437,0.406,0.354,0.817,16.75,-6.26,-8.39,3,1
18051.453,0.41,0.386,0.821,17.15,-4.36,-7.39,3,1
18051.468,0.402,0.402,0.82,16.57,-3.2,-6.56,3,1
18051.468,0.396,0.415,0.817,15.63,-2.87,-4.91,3,1
18051.484,0.389,0.414,0.815,14.89,-2.23,-2.26,3,1
18051.5,0.381,0.409,0.823,13.92,-3.02,0.12,3,1
18051.515,0.38,0.369,0.857,10.13,-8.94,2.01,3,1
18051.515,0.38,0.336,0.875,8.55,-13.25,1.56,3,1
18051.531,0.39,0.329,0.862,8.7,-16.45,1.25,3,1
18051.546,0.433,0.346,0.826,11.26,-14.83,3.6,3,1
18051.546,0.455,0.339,0.805,14.8,-9.0,4.18,3,1
18051.562,0.461,0.33,0.769,19.14,-0.82,3.75,3,1
18051.578,0.468,0.336,0.733,23.22,7.97,3.85,3,1
18051.578,0.47,0.364,0.722,22.13,16.66,2.81,3,1
18051.593,0.455,0.399,0.716,18.19,24.75,0.61,3,1
18051.609,0.427,0.44,0.72,13.76,31.98,-0.31,3,1
18051.609,0.41,0.456,0.724,9.37,38.03,1.25,3,1
18051.625,0.407,0.463,0.724,4.21,43.52,4.12,3,1
18051.625,0.412,0.449,0.736,-2.38,47.33,5.19,3,1
18051.64,0.386,0.455,0.757,-10.28,50.48,3.48,3,1
18051.656,0.359,0.451,0.79,-16.21,53.41,3.91,3,1
18051.671,0.355,0.425,0.834,-19.29,54.63,5.19,3,1
18051.671,0.335,0.409,0.855,-21.09,54.11,4.76,3,1
18051.687,0.316,0.395,0.891,-23.04,51.09,3.6,3,1
18051.687,0.3,0.363,0.921,-25.67,44.04,0.12,3,1
18051.703,0.188,0.392,1.049,-29.15,34.33,-3.14,3,1
18051.718,0.116,0.351,1.242,-26.18,12.73,0.73,3,1
18051.718,0.235,0.269,1.11,-20.23,-18.71,2.38,3,1
18051.734,0.275,0.264,0.971,-14.47,-31.98,0.43,3,1
18051.75,0.282,0.284,0.914,-4.52,-34.85,0.37,3,1
18051.75,0.3,0.323,0.91,5.13,-35.46,3.3,3,1
18051.765,0.287,0.376,0.904,10.53,-35.34,5.95,3,1
18051.765,0.287,0.408,0.899,10.41,-37.35,9.77,3,1
18051.781,0.309,0.417,0.88,9.34,-40.96,14.34,3,1
18051.796,0.333,0.4,0.847,8.42,-43.4,18.49,3,1
18051.796,0.365,0.383,0.818,7.35,-43.95,21.42,3,1
18051.812,0.394,0.373,0.787,6.62,-42.15,23.07,3,1
18051.828,0.424,0.362,0.775,6.01,-37.51,24.2,3,1
18051.828,0.458,0.347,0.758,5.8,-31.4,23.99,3,1
18051.843,0.479,0.33,0.75,6.59,-23.16,22.25,3,1
18051.859,0.499,0.317,0.746,9.09,-13.67,19.44,3,1
18051.859,0.504,0.302,0.753,11.54,-4.49,15.44,3,1
18051.875,0.493,0.302,0.77,13.18,3.23,10.56,3,1
18051.875,0.464,0.316,0.801,12.76,8.21,4.97,3,1
18051.89,0.43,0.334,0.826,10.1,9.09,-0.03,3,1
18051.906,0.411,0.356,0.824,6.68,7.63,-3.48,3,1
18051.906,0.395,0.392,0.819,3.39,6.07,-5.1,3,1
18051.921,0.354,0.424,0.841,0.43,4.12,-3.88,3,1
18051.937,0.349,0.421,0.861,-2.66,-1.19,-0.52,3,1
18051.937,0.36,0.413,0.873,-7.39,-8.12,2.38,3,1
18051.953,0.383,0.381,0.856,-10.74,-12.48,4.03,3,1
18051.968,0.401,0.351,0.836,-11.69,-12.97,4.64,3,1
18051.968,0.417,0.329,0.826,-8.55,-10.83,5.04,3,1
18051.984,0.433,0.325,0.811,-4.73,-6.99,4.06,3,1
18052.0,0.431,0.338,0.808,-2.9,-2.38,2.29,3,1
18052.0,0.43,0.36,0.82,-4.36,2.44,-0.12,3,1
18052.015,0.422,0.354,0.817,-5.43,2.5,-0.98,3,1
18052.015,0.422,0.359,0.82,-6.81,2.41,-1.68,3,1
18052.046,0.423,0.366,0.823,-7.69,2.56,-2.66,3,1
18052.046,0.409,0.356,0.823,-7.81,3.2,-3.81,3,1
18052.062,0.413,0.356,0.824,-8.03,3.33,-4.39,3,1
18052.062,0.401,0.358,0.822,-8.7,4.0,-5.04,3,1
18052.078,0.397,0.359,0.828,-9.92,4.46,-4.76,3,1
18052.078,0.392,0.366,0.839,-11.35,4.73,-3.63,3,1
18052.093,0.39,0.355,0.85,-11.87,4.58,-2.69,3,1
18052.109,0.385,0.352,0.855,-12.88,3.48,-1.83,3,1
18052.109,0.383,0.343,0.861,-14.59,1.92,-1.31,3,1
18052.125,0.387,0.333,0.865,-15.78,0.27,-0.92,3,1
18052.125,0.392,0.321,0.87,-15.75,-0.82,-0.4,3,1
18052.14,0.398,0.323,0.866,-13.89,-1.13,0.52,3,1
18052.156,0.405,0.331,0.867,-10.35,-0.49,1.68,3,1
18052.156,0.402,0.318,0.862,-6.53,0.24,1.53,3,1
18052.171,0.407,0.325,0.859,-4.03,0.61,0.89,3,1
18052.187,0.407,0.329,0.856,-2.84,1.37,0.21,3,1
18052.187,0.4,0.319,0.849,-1.98,1.77,-0.31,3,1
18052.203,0.406,0.326,0.847,-0.92,1.86,0.4,3,1
18052.218,0.412,0.334,0.844,0.4,3.23,1.13,3,1
18052.218,0.408,0.326,0.839,2.23,5.28,1.37,3,1
18052.234,0.403,0.327,0.838,3.57,6.81,1.43,3,1
18052.25,0.405,0.33,0.841,3.75,7.78,1.37,3,1
18052.25,0.409,0.327,0.846,2.66,8.64,0.34,3,1
18052.265,0.411,0.326,0.875,1.19,9.4,-1.56,3,1
18052.265,0.4,0.322,0.897,0.64,9.77,-3.54,3,1
18052.281,0.398,0.329,0.89,2.59,8.27,-4.58,3,1
18052.296,0.411,0.337,0.856,5.28,7.35,-5.28,3,1
18052.296,0.384,0.341,0.858,5.22,6.99,-7.6,3,1
18052.312,0.315,0.347,0.949,4.12,5.31,-6.59,3,1
18052.328,0.368,0.297,0.994,5.22,-5.89,-4.15,3,1
18052.343,0.353,0.297,0.939,8.51,-17.7,-9.06,3,1
18052.343,0.381,0.283,0.844,14.13,-20.17,-9.09,3,1
18052.359,0.406,0.288,0.801,17.98,-16.39,-9.8,3,1
18052.359,0.388,0.321,0.794,20.26,-10.86,-10.5,3,1
18052.375,0.376,0.359,0.801,19.01,-7.66,-10.35,3,1
18052.39,0.381,0.404,0.806,14.28,-7.26,-9.58,3,1
18052.39,0.388,0.423,0.796,8.94,-7.29,-8.24,3,1
18052.406,0.393,0.404,0.793,4.06,-6.41,-7.35,3,1
18052.406,0.391,0.381,0.802,0.43,-5.77,-7.72,3,1
18052.421,0.39,0.372,0.818,-3.51,-6.68,-9.16,3,1
18052.437,0.383,0.366,0.84,-7.57,-8.67,-11.29,3,1
18052.453,0.374,0.361,0.873,-11.23,-11.87,-13.0,3,1
18052.453,0.378,0.34,0.886,-14.68,-16.54,-14.8,3,1
18052.468,0.38,0.325,0.884,-16.39,-21.24,-17.12,3,1
18052.468,0.383,0.318,0.877,-15.32,-23.96,-17.85,3,1
18052.484,0.395,0.322,0.866,-11.29,-24.51,-17.06,3,1
18052.5,0.408,0.344,0.849,-5.34,-22.16,-14.83,3,1
18052.5,0.412,0.361,0.834,0.55,-18.46,-12.18,3,1
18052.515,0.417,0.373,0.823,4.33,-15.23,-9.7,3,1
18052.531,0.417,0.382,0.81,5.65,-12.27,-7.66,3,1
18052.531,0.413,0.382,0.804,4.76,-10.59,-6.53,3,1
18052.546,0.417,0.389,0.808,2.17,-9.52,-5.43,3,1
18052.546,0.418,0.383,0.802,-0.73,-8.7,-5.04,3,1
18052.562,0.412,0.384,0.805,-3.33,-7.54,-4.39,3,1
18052.578,0.411,0.388,0.813,-4.39,-6.26,-2.66,3,1
18052.578,0.411,0.384,0.822,-4.49,-4.88,-0.58,3,1
18052.593,0.408,0.368,0.825,-4.21,-3.39,0.79,3,1
18052.609,0.404,0.351,0.842,-3.36,-2.9,1.5,3,1
18052.609,0.403,0.341,0.847,-1.77,-2.93,1.68,3,1
18052.625,0.412,0.337,0.843,0.06,-3.2,1.46,3,1
18052.625,0.416,0.344,0.837,2.32,-2.75,1.19,3,1
18052.64,0.417,0.349,0.827,4.7,-1.89,1.16,3,1
18052.656,0.411,0.356,0.82,6.41,-0.7,1.16,3,1
18052.656,0.405,0.379,0.821,6.65,0.82,2.38,3,1
18052.671,0.384,0.405,0.834,5.77,1.43,4.18,3,1
18052.687,0.346,0.41,0.865,4.21,-1.31,7.45,3,1
18052.687,0.346,0.414,0.891,2.01,-9.0,11.41,3,1
18052.718,0.366,0.41,0.867,-1.34,-22.49,21.58,3,1
18052.718,0.394,0.372,0.825,-2.9,-24.54,27.01,3,1
18052.734,0.445,0.34,0.787,-2.93,-22.92,30.92,3,1
18052.75,0.491,0.317,0.763,-2.26,-17.76,31.31,3,1
18052.75,0.521,0.307,0.748,-1.56,-9.61,28.32,3,1
18052.765,0.521,0.303,0.738,-1.31,0.58,24.48,3,1
18052.781,0.521,0.294,0.728,0.12,10.41,20.91,3,1
18052.781,0.529,0.303,0.727,1.83,19.84,17.76,3,1
18052.796,0.525,0.317,0.737,3.33,29.69,14.53,3,1
18052.796,0.506,0.33,0.75,5.13,39.31,12.02,3,1
18052.812,0.479,0.329,0.768,6.35,46.02,9.0,3,1
18052.828,0.454,0.341,0.797,5.28,49.41,5.77,3,1
18052.828,0.432,0.357,0.828,2.72,50.26,3.2,3,1
18052.843,0.409,0.347,0.85,0.24,49.07,1.25,3,1
18052.859,0.4,0.334,0.868,0.06,46.66,0.31,3,1
18052.859,0.399,0.332,0.862,0.85,43.21,-1.74,3,1
18052.89,0.378,0.324,0.87,-7.29,36.47,-9.98,3,1
18052.89,0.362,0.31,0.872,-13.7,30.61,-15.53,3,1
18052.906,0.301,0.323,0.97,-19.01,22.22,-20.78,3,1
18052.906,0.314,0.318,1.029,-17.55,6.81,-22.46,3,1
18052.921,0.329,0.334,0.956,-16.91,-6.74,-24.48,3,1
18052.937,0.351,0.309,0.891,-18.16,-13.25,-27.07,3,1
18052.937,0.363,0.271,0.874,-17.49,-14.16,-28.99,3,1
18052.953,0.365,0.276,0.859,-13.46,-12.82,-29.63,3,1
18052.968,0.37,0.297,0.852,-12.27,-11.14,-30.21,3,1
18052.968,0.374,0.317,0.857,-13.95,-9.55,-32.01,3,1
18052.984,0.368,0.326,0.854,-13.31,-7.23,-32.59,3,1
18053.0,0.363,0.344,0.848,-5.25,-0.21,-26.86,3,1
18053.0,0.362,0.366,0.842,-3.51,3.05,-23.59,3,1
18053.015,0.346,0.382,0.84,-3.48,6.53,-18.43,3,1
18053.015,0.313,0.397,0.854,-1.59,10.19,-10.16,3,1
18053.031,0.314,0.403,0.862,0.85,13.28,-1.68,3,1
18053.046,0.287,0.412,0.88,-1.04,15.2,9.89,3,1
18053.062,0.26,0.413,0.904,-3.17,12.27,16.97,3,1
18053.078,0.236,0.446,0.991,-2.93,6.07,26.67,3,1
18053.078,0.215,0.493,1.087,6.16,-2.32,41.99,3,1
18053.093,0.233,0.471,1.05,16.69,-14.74,57.99,3,1
18053.109,0.256,0.382,0.986,19.14,-28.38,66.26,3,1
18053.109,0.286,0.298,0.948,17.88,-40.65,68.36,3,1
18053.125,0.345,0.248,0.88,15.44,-50.02,66.26,3,1
18053.14,0.401,0.215,0.793,9.55,-53.62,60.0,3,1
18053.14,0.449,0.178,0.72,1.65,-49.68,50.97,3,1
18053.156,0.499,0.193,0.696,-3.54,-40.22,41.41,3,1
18053.156,0.547,0.236,0.702,-3.27,-27.07,33.45,3,1
18053.171,0.571,0.28,0.677,-1.16,-11.35,26.58,3,1
18053.187,0.583,0.306,0.669,-2.56,3.88,19.14,3,1
18053.187,0.576,0.31,0.653,-8.55,18.37,11.29,3,1
18053.203,0.57,0.321,0.598,-15.26,34.52,5.74,3,1
18053.218,0.542,0.328,0.565,-39.64,70.07,-5.13,3,1
18053.234,0.436,0.384,0.751,-63.72,82.25,-12.7,3,1
18053.25,0.291,0.586,1.113,-100.07,73.98,-14.62,3,1
18053.25,0.078,0.388,1.493,-92.44,43.67,-0.64,3,1
18053.265,0.363,0.192,1.189,-62.96,-2.14,21.3,3,1
18053.265,0.46,0.103,0.897,-58.75,-5.16,19.71,3,1
18053.281,0.365,-0.144,1.007,-41.72,12.18,7.17,3,1
18053.296,0.275,-0.118,1.044,-12.09,15.78,1.28,3,1
18053.296,0.337,0.049,0.953,5.77,10.65,-2.5,3,1
18053.312,0.329,0.096,0.954,15.2,12.88,-7.84,3,1
18053.328,0.308,0.151,0.934,29.05,13.21,-8.55,3,1
18053.328,0.322,0.233,0.88,41.23,9.37,-7.45,3,1
18053.343,0.321,0.267,0.868,46.14,5.92,-7.29,3,1
18053.359,0.319,0.29,0.882,48.55,2.47,-6.81,3,1
18053.359,0.324,0.302,0.887,52.86,-1.77,-6.59,3,1
18053.375,0.318,0.311,0.859,57.47,-6.65,-7.23,3,1
18053.39,0.356,0.401,0.873,46.6,-12.24,-5.71,3,1
18053.406,0.364,0.417,0.883,38.15,-12.24,-4.52,3,1
18053.406,0.352,0.391,0.883,31.19,-12.39,-2.5,3,1
18053.421,0.326,0.355,0.909,29.91,-14.86,-0.09,3,1
18053.437,0.327,0.375,0.904,31.04,-20.29,4.43,3,1
18053.437,0.34,0.353,0.918,26.12,-26.46,7.54,3,1
18053.453,0.352,0.33,0.9,22.64,-32.87,8.03,3,1
18053.468,0.338,0.353,0.906,10.1,-36.07,10.22,3,1
18053.468,0.373,0.305,0.882,0.27,-40.93,9.43,3,1
18053.484,0.415,0.249,0.834,0.24,-40.65,9.74,3,1
18053.484,0.443,0.248,0.797,3.27,-36.71,7.6,3,1
18053.5,0.468,0.258,0.784,5.68,-30.58,2.93,3,1
18053.515,0.472,0.273,0.777,5.71,-23.26,-2.56,3,1
18053.531,0.473,0.296,0.777,3.91,-16.6,-7.81,3,1
18053.531,0.469,0.314,0.783,1.71,-10.59,-11.87,3,1
18053.546,0.456,0.334,0.784,0.18,-5.04,-14.1,3,1
18053.562,0.415,0.399,0.846,1.62,3.27,-10.53,3,1
18053.578,0.385,0.402,0.872,-0.03,2.11,-7.75,3,1
18053.593,0.379,0.374,0.885,-3.57,-2.99,-4.97,3,1
18053.593,0.384,0.36,0.877,-6.01,-8.51,-3.36,3,1
18053.609,0.384,0.337,0.862,-7.48,-12.42,-2.2,3,1
18053.609,0.397,0.324,0.868,-7.97,-15.53,-1.92,3,1
18053.625,0.407,0.327,0.861,-6.35,-17.46,-1.65,3,1
18053.64,0.41,0.316,0.836,-4.67,-16.97,-0.76,3,1
18053.64,0.423,0.319,0.849,-2.56,-14.56,0.92,3,1
18053.656,0.443,0.323,0.862,0.58,-12.88,1.77,3,1
18053.656,0.441,0.313,0.818,0.4,-11.38,0.31,3,1
18053.671,0.414,0.327,0.82,-1.16,-8.12,-0.85,3,1
18053.687,0.43,0.303,0.825,0.67,-5.98,0.95,3,1
18053.687,0.456,0.304,0.802,1.5,-3.48,0.92,3,1
18053.703,0.45,0.313,0.793,0.76,1.68,0.09,3,1
18053.718,0.447,0.305,0.807,0.55,7.11,0.03,3,1
18053.734,0.45,0.315,0.792,-2.32,11.54,-4.03,3,1
18053.734,0.425,0.325,0.803,-8.36,11.57,-7.17,3,1
18053.75,0.394,0.339,0.883,-14.1,9.09,-8.12,3,1
18053.765,0.404,0.33,0.93,-14.92,1.56,-8.06,3,1
18053.781,0.432,0.298,0.883,-14.37,-5.34,-10.16,3,1
18053.781,0.428,0.266,0.83,-15.96,-7.08,-14.68,3,1
18053.796,0.436,0.242,0.79,-16.02,-5.04,-18.34,3,1
18053.796,0.45,0.24,0.809,-16.57,-1.74,-22.52,3,1
18053.812,0.435,0.246,0.819,-17.0,1.04,-28.17,3,1
18053.828,0.44,0.256,0.83,-21.12,1.04,-35.04,3,1
18053.828,0.437,0.263,0.85,-26.61,-0.7,-43.55,3,1
18053.843,0.426,0.265,0.863,-30.18,-2.38,-51.42,3,1
18053.859,0.428,0.277,0.872,-31.95,-3.85,-57.47,3,1
18053.859,0.41,0.289,0.883,-32.72,-4.67,-62.69,3,1
18053.875,0.384,0.311,0.912,-32.9,-6.68,-65.68,3,1
18053.875,0.375,0.321,0.926,-30.43,-9.34,-64.82,3,1
18053.906,0.356,0.321,0.918,-19.78,-12.36,-57.01,3,1
18053.921,0.35,0.335,0.905,-13.7,-13.28,-52.25,3,1
18053.921,0.332,0.34,0.879,-8.33,-12.88,-45.56,3,1
18053.937,0.338,0.344,0.864,-2.66,-12.15,-36.38,3,1
18053.937,0.357,0.364,0.85,2.56,-10.74,-28.32,3,1
18053.953,0.364,0.37,0.833,4.09,-8.24,-23.1,3,1
18053.968,0.372,0.353,0.82,2.69,-5.25,-19.14,3,1
18053.968,0.394,0.349,0.828,3.63,3.81,-14.16,3,1
18053.984,0.368,0.335,0.842,6.59,7.42,-7.97,3,1
18054.0,0.363,0.339,0.86,11.26,11.29,-1.5,3,1
18054.0,0.371,0.347,0.862,14.89,15.11,1.8,3,1
18054.015,0.345,0.337,0.892,17.76,17.27,4.09,3,1
18054.015,0.31,0.37,0.904,20.05,16.3,8.3,3,1
18054.031,0.294,0.409,0.909,21.03,12.97,14.77,3,1
18054.046,0.258,0.475,0.988,24.45,8.79,25.27,3,1
18054.046,0.215,0.523,1.059,35.07,2.04,43.31,3,1
18054.062,0.233,0.516,1.01,47.49,-6.16,66.47,3,1
18054.078,0.28,0.48,0.909,54.11,-11.9,85.51,3,1
18054.078,0.332,0.401,0.845,55.97,-14.04,95.31,3,1
18054.093,0.382,0.317,0.784,55.79,-11.87,98.88,3,1
18054.109,0.428,0.275,0.738,53.1,-7.32,96.9,3,1
18054.109,0.477,0.246,0.712,47.18,-1.86,88.6,3,1
18054.125,0.503,0.237,0.698,39.61,5.04,75.53,3,1
18054.125,0.513,0.257,0.693,31.62,13.49,64.3,3,1
18054.14,0.553,0.255,0.71,26.15,22.46,54.84,3,1
18054.156,0.586,0.246,0.713,22.92,30.52,41.35,3,1
18054.156,0.57,0.251,0.692,16.72,37.42,24.17,3,1
18054.171,0.534,0.254,0.701,7.6,43.52,9.43,3,1
18054.187,0.513,0.277,0.746,-1.53,47.55,-1.59,3,1
18054.203,0.46,0.331,0.853,-10.22,49.23,-10.07,3,1
18054.203,0.292,0.371,1.13,-13.86,39.25,-15.17,3,1
18054.218,0.355,0.306,1.111,-6.16,10.59,-16.33,3,1
18054.218,0.428,0.278,0.883,-2.84,-5.13,-22.77,3,1
18054.234,0.367,0.246,0.808,-3.14,-5.37,-30.64,3,1
18054.25,0.378,0.264,0.812,-5.31,-5.55,-34.36,3,1
18054.25,0.382,0.319,0.827,-4.49,-2.72,-34.79,3,1
18054.265,0.365,0.378,0.85,-1.62,0.73,-33.36,3,1
18054.265,0.367,0.44,0.873,-1.43,0.85,-30.85,3,1
18054.281,0.346,0.461,0.864,-3.91,-1.68,-29.88,3,1
18054.296,0.334,0.425,0.849,-8.09,-5.31,-27.89,3,1
18054.296,0.339,0.41,0.856,-10.47,-8.76,-24.75,3,1
18054.312,0.336,0.409,0.851,-10.59,-10.22,-20.94,3,1
18054.328,0.344,0.394,0.841,-11.54,-9.89,-17.06,3,1
18054.328,0.353,0.365,0.844,-12.48,-8.61,-14.8,3,1
18054.343,0.349,0.342,0.854,-11.35,-6.68,-13.7,3,1
18054.359,0.348,0.339,0.868,-8.15,-4.7,-11.51,3,1
18054.359,0.359,0.348,0.882,-3.57,-2.84,-8.51,3,1
18054.375,0.361,0.352,0.879,0.67,-1.77,-6.93,3,1
18054.375,0.361,0.356,0.863,2.59,-2.32,-6.32,3,1
18054.39,0.372,0.368,0.838,2.62,-3.42,-5.52,3,1
18054.406,0.387,0.368,0.83,0.85,-3.85,-5.34,3,1
18054.421,0.387,0.379,0.833,-0.15,-3.42,-5.71,3,1
18054.421,0.388,0.386,0.83,0.31,-2.11,-4.7,3,1
18054.437,0.378,0.37,0.843,-0.34,-1.13,-4.33,3,1
18054.437,0.368,0.379,0.863,0.92,-0.37,-2.96,3,1
18054.453,0.367,0.384,0.865,1.25,-0.4,-1.31,3,1
18054.468,0.369,0.349,0.853,1.1,-0.4,-1.28,3,1
18054.468,0.358,0.327,0.85,2.08,0.73,-1.46,3,1
18054.484,0.362,0.323,0.859,3.78,0.61,-1.89,3,1
18054.5,0.363,0.348,0.864,4.27,-0.03,-2.96,3,1
18054.5,0.366,0.373,0.858,3.45,-0.95,-4.33,3,1
18054.515,0.364,0.377,0.844,2.47,-1.8,-4.91,3,1
18054.515,0.364,0.378,0.836,1.89,-2.53,-4.21,3,1
18054.531,0.368,0.392,0.838,1.13,-2.9,-3.63,3,1
18054.546,0.36,0.409,0.858,-0.49,-2.5,-1.95,3,1
18054.546,0.367,0.386,0.862,-0.43,-2.44,0.4,3,1
18054.562,0.371,0.362,0.858,0.03,-3.23,1.83,3,1
18054.578,0.382,0.336,0.836,-0.4,-5.1,0.89,3,1
18054.578,0.389,0.349,0.826,-2.01,-5.8,-1.4,3,1
18054.593,0.39,0.365,0.816,-3.36,-4.94,-3.14,3,1
18054.609,0.389,0.384,0.821,-5.07,-3.27,-3.94,3,1
18054.609,0.376,0.395,0.837,-6.99,-2.17,-4.15,3,1
18054.625,0.366,0.405,0.857,-10.41,-3.57,-4.82,3,1
18054.64,0.366,0.421,0.838,-15.41,-5.22,-4.43,3,1
18054.64,0.371,0.416,0.817,-20.97,-4.24,-2.11,3,1
18054.656,0.369,0.412,0.833,-25.7,-2.41,0.03,3,1
18054.656,0.371,0.43,0.863,-30.52,-2.01,2.26,3,1
18054.671,0.357,0.4,0.845,-35.07,-2.5,3.72,3,1
18054.687,0.359,0.367,0.862,-38.97,-3.2,5.4,3,1
18054.703,0.366,0.308,0.86,-36.96,-4.52,6.65,3,1
18054.703,0.385,0.258,0.852,-32.59,-3.78,6.68,3,1
18054.718,0.382,0.208,0.87,-25.21,0.82,5.65,3,1
18054.718,0.37,0.171,0.891,-14.4,5.74,4.18,3,1
18054.734,0.364,0.167,0.912,-1.65,8.76,2.87,3,1
18054.75,0.341,0.165,0.926,13.0,9.19,1.59,3,1
18054.765,0.346,0.213,0.937,26.58,7.05,0.79,3,1
18054.765,0.358,0.257,0.932,40.13,4.21,2.01,3,1
18054.765,0.352,0.352,0.946,48.62,-1.25,2.84,3,1
18054.781,0.362,0.432,0.864,49.56,-9.16,2.84,3,1
18054.796,0.406,0.476,0.75,39.0,-10.07,3.54,3,1
18054.796,0.394,0.476,0.796,24.93,-4.12,3.94,3,1
18054.812,0.33,0.416,0.834,19.65,-1.19,6.9,3,1
18054.828,0.308,0.414,0.845,14.19,-4.12,12.45,3,1
18054.828,0.327,0.381,0.839,7.32,-9.58,16.08,3,1
18054.843,0.378,0.349,0.844,1.89,-12.27,17.55,3,1
18054.859,0.409,0.338,0.839,2.04,-10.68,17.73,3,1
18054.859,0.418,0.312,0.832,3.45,-9.19,14.65,3,1
18054.875,0.434,0.308,0.817,4.33,-8.12,10.35,3,1
18054.875,0.444,0.329,0.803,3.91,-6.23,5.16,3,1
18054.89,0.448,0.342,0.796,2.23,-3.48,0.4,3,1
18054.906,0.447,0.345,0.787,0.98,-0.73,-4.06,3,1
18054.906,0.453,0.374,0.786,0.76,3.11,-7.2,3,1
18054.921,0.43,0.404,0.802,-0.06,7.97,-8.94,3,1
18054.937,0.397,0.407,0.826,-2.72,10.62,-9.19,3,1
18054.937,0.372,0.404,0.833,-6.35,10.25,-8.3,3,1
18054.953,0.367,0.39,0.834,-13.0,7.11,-5.37,3,1
18054.968,0.37,0.374,0.84,-17.06,6.2,-4.43,3,1
18054.968,0.372,0.369,0.852,-20.45,4.73,-4.39,3,1
18054.984,0.361,0.355,0.863,-22.0,2.04,-4.55,3,1
18055.0,0.371,0.329,0.873,-21.61,-0.24,-4.43,3,1
18055.0,0.38,0.333,0.872,-20.57,-0.46,-4.09,3,1
18055.015,0.386,0.327,0.875,-18.19,0.7,-4.06,3,1
18055.015,0.374,0.309,0.874,-14.95,1.68,-4.55,3,1
18055.031,0.384,0.295,0.868,-11.9,1.92,-4.73,3,1
18055.046,0.393,0.308,0.865,-8.97,4.21,-5.1,3,1
18055.046,0.391,0.309,0.863,-5.16,7.17,-5.77,3,1
18055.062,0.39,0.3,0.872,-2.11,8.91,-7.26,3,1
18055.078,0.392,0.306,0.876,-0.4,9.55,-9.61,3,1
18055.078,0.384,0.323,0.863,0.03,9.25,-12.51,3,1
18055.093,0.381,0.328,0.871,0.64,9.58,-14.65,3,1
18055.109,0.374,0.338,0.86,1.37,9.4,-16.63,3,1
18055.109,0.333,0.355,0.867,0.89,9.34,-17.85,3,1
18055.125,0.304,0.38,0.934,1.28,7.08,-15.38,3,1
18055.125,0.318,0.377,0.941,3.57,1.31,-11.11,3,1
18055.14,0.316,0.352,0.902,5.28,-2.87,-8.06,3,1
18055.156,0.336,0.314,0.879,7.66,-4.49,-5.49,3,1
18055.156,0.348,0.304,0.864,9.49,-4.55,-4.76,3,1
18055.171,0.347,0.322,0.854,10.83,-3.54,-4.79,3,1
18055.187,0.355,0.348,0.854,10.9,-2.66,-4.64,3,1
18055.187,0.359,0.37,0.855,10.41,-2.44,-5.1,3,1
18055.203,0.355,0.382,0.853,9.67,-2.66,-5.22,3,1
18055.218,0.354,0.385,0.845,8.64,-2.87,-4.36,3,1
18055.218,0.35,0.381,0.831,6.68,-2.62,-3.54,3,1
18055.234,0.348,0.375,0.824,4.03,-1.98,-2.56,3,1
18055.25,0.349,0.375,0.831,1.56,-0.55,-0.76,3,1
18055.25,0.35,0.375,0.85,0.4,1.5,1.71,3,1
18055.265,0.35,0.363,0.866,0.37,2.99,3.17,3,1
18055.265,0.352,0.342,0.868,0.61,2.38,3.05,3,1
18055.281,0.354,0.337,0.858,0.76,1.07,2.17,3,1
18055.296,0.361,0.358,0.857,0.58,1.04,1.77,3,1
18055.312,0.359,0.364,0.852,0.82,1.83,1.65,3,1
18055.312,0.358,0.354,0.848,1.37,2.87,1.74,3,1
18055.328,0.358,0.358,0.853,1.53,3.97,2.35,3,1
18055.328,0.353,0.365,0.869,1.37,4.97,2.87,3,1
18055.343,0.341,0.361,0.877,2.2,5.28,3.63,3,1
18055.359,0.341,0.358,0.884,3.42,4.64,4.97,3,1
18055.359,0.345,0.355,0.884,4.58,3.23,5.49,3,1
18055.375,0.348,0.349,0.878,5.07,1.71,4.91,3,1
18055.39,0.346,0.344,0.866,5.34,0.12,3.51,3,1
18055.39,0.345,0.349,0.859,5.1,-0.92,2.2,3,1
18055.406,0.35,0.359,0.856,5.22,-1.28,2.23,3,1
18055.406,0.346,0.371,0.854,5.07,-1.04,2.5,3,1
18055.421,0.342,0.379,0.854,4.3,-0.34,3.66,3,1
18055.437,0.337,0.38,0.864,4.24,0.24,5.43,3,1
18055.437,0.334,0.38,0.867,5.52,0.37,8.15,3,1
18055.453,0.335,0.381,0.874,5.95,0.31,10.83,3,1
18055.468,0.347,0.382,0.875,7.32,0.34,13.55,3,1
18055.468,0.355,0.356,0.864,9.55,0.09,14.31,3,1
18055.484,0.359,0.347,0.855,10.1,-0.95,13.0,3,1
18055.5,0.361,0.348,0.848,8.3,-2.11,10.5,3,1
18055.5,0.369,0.345,0.847,5.86,-2.69,8.15,3,1
18055.515,0.376,0.34,0.845,4.39,-3.02,5.65,3,1
18055.531,0.378,0.339,0.839,3.75,-3.63,2.14,3,1
18055.531,0.377,0.356,0.837,1.92,-4.18,-1.01,3,1
18055.546,0.374,0.37,0.84,0.15,-4.52,-3.51,3,1
18055.546,0.37,0.382,0.834,-0.52,-4.46,-4.27,3,1
18055.562,0.366,0.383,0.83,-2.04,-4.46,-4.61,3,1
18055.578,0.364,0.383,0.842,-4.49,-4.3,-4.61,3,1
18055.578,0.36,0.38,0.848,-6.1,-4.06,-3.97,3,1
18055.593,0.358,0.369,0.849,-7.23,-3.88,-3.08,3,1
18055.609,0.36,0.351,0.855,-8.12,-4.0,-2.75,3,1
18055.609,0.363,0.338,0.858,-8.85,-4.52,-3.88,3,1
18055.625,0.362,0.341,0.861,-9.37,-5.62,-5.58,3,1
18055.625,0.362,0.348,0.867,-9.61,-6.74,-6.9,3,1
18055.64,0.367,0.343,0.865,-9.25,-7.87,-8.48,3,1
18055.656,0.372,0.336,0.866,-9.25,-9.58,-11.08,3,1
18055.656,0.372,0.33,0.877,-9.74,-11.72,-15.32,3,1
18055.671,0.363,0.335,0.885,-10.68,-14.71,-19.65,3,1
18055.687,0.353,0.334,0.89,-11.17,-17.58,-22.49,3,1
18055.687,0.352,0.331,0.888,-10.41,-20.14,-23.65,3,1
18055.703,0.356,0.337,0.874,-7.97,-20.78,-23.07,3,1
18055.718,0.363,0.35,0.864,-3.75,-18.68,-20.26,3,1
18055.718,0.37,0.361,0.858,1.28,-15.87,-17.33,3,1
18055.734,0.367,0.365,0.85,4.18,-13.92,-15.63,3,1
18055.75,0.365,0.368,0.842,4.43,-13.03,-14.65,3,1
18055.75,0.361,0.373,0.846,3.66,-12.76,-13.73,3,1
18055.765,0.363,0.375,0.847,2.62,-13.03,-12.39,3,1
18055.765,0.368,0.382,0.842,2.08,-12.73,-10.71,3,1
18055.781,0.374,0.386,0.839,2.35,-11.78,-8.45,3,1
18055.796,0.377,0.384,0.832,2.5,-10.9,-6.71,3,1
18055.796,0.379,0.381,0.826,2.32,-9.31,-5.22,3,1
18055.812,0.383,0.38,0.823,2.11,-7.57,-3.91,3,1
18055.828,0.386,0.374,0.829,1.4,-6.59,-3.72,3,1
18055.828,0.383,0.372,0.832,0.37,-6.5,-4.33,3,1
18055.843,0.383,0.37,0.832,-0.31,-6.04,-4.55,3,1
18055.859,0.383,0.369,0.834,-0.49,-5.83,-5.04,3,1
18055.859,0.381,0.374,0.84,-1.31,-6.16,-6.13,3,1
18055.875,0.375,0.374,0.843,-2.14,-6.56,-6.87,3,1
18055.89,0.372,0.372,0.845,-2.66,-6.99,-7.11,3,1
18055.89,0.37,0.375,0.84,-3.02,-7.29,-6.9,3,1
18055.906,0.373,0.377,0.843,-3.02,-7.23,-5.98,3,1
18055.906,0.379,0.383,0.853,-2.66,-7.45,-4.97,3,1
18055.921,0.376,0.386,0.85,-2.26,-8.27,-4.52,3,1
18055.937,0.381,0.383,0.849,-2.32,-9.13,-3.66,3,1
18055.937,0.388,0.379,0.846,-2.41,-9.0,-2.11,3,1
18055.953,0.396,0.359,0.834,-2.26,-8.06,-2.84,3,1
18055.968,0.397,0.349,0.826,-1.95,-7.26,-3.91,3,1
18055.984,0.407,0.344,0.83,-1.95,-5.8,-5.37,3,1
18055.984,0.403,0.352,0.838,-1.86,-4.36,-7.29,3,1
18055.984,0.392,0.358,0.839,-1.37,-3.51,-8.48,3,1
18056.015,0.39,0.363,0.839,-0.64,-2.9,-8.61,3,1
18056.015,0.386,0.368,0.84,0.43,-2.29,-8.45,3,1
18056.031,0.382,0.373,0.838,0.76,-1.95,-8.27,3,1
18056.031,0.381,0.373,0.826,0.4,-1.71,-8.15,3,1
18056.046,0.382,0.379,0.835,-0.43,-0.92,-7.72,3,1
18056.046,0.377,0.386,0.838,0.09,-0.03,-6.53,3,1
18056.062,0.383,0.391,0.84,0.58,0.43,-4.67,3,1
18056.078,0.378,0.393,0.842,0.15,0.76,-3.66,3,1
18056.078,0.374,0.38,0.838,-0.31,0.46,-2.62,3,1
18056.093,0.379,0.374,0.835,-0.85,-0.27,-1.89,3,1
18056.109,0.383,0.374,0.836,-1.5,-0.82,-2.08,3,1
18056.109,0.383,0.378,0.839,-1.86,-1.34,-2.32,3,1
18056.125,0.385,0.374,0.835,-2.01,-1.77,-2.32,3,1
18056.14,0.39,0.373,0.832,-2.38,-1.77,-2.35,3,1
18056.14,0.394,0.369,0.836,-2.5,-1.1,-2.47,3,1
18056.156,0.392,0.362,0.84,-1.98,-0.06,-2.59,3,1
18056.156,0.39,0.36,0.854,-1.37,0.64,-2.78,3,1
18056.171,0.389,0.348,0.859,0.0,0.55,-3.45,3,1
18056.187,0.385,0.346,0.848,0.98,-0.09,-5.01,3,1
18056.203,0.38,0.356,0.845,1.19,-0.46,-6.62,3,1
18056.203,0.378,0.367,0.839,1.71,-0.89,-7.32,3,1
18056.218,0.377,0.383,0.832,1.5,-1.43,-7.9,3,1
18056.218,0.373,0.396,0.83,0.31,-2.04,-8.03,3,1
18056.234,0.366,0.4,0.849,-0.98,-2.93,-7.39,3,1
18056.25,0.369,0.367,0.831,-4.24,-5.37,-7.81,3,1
18056.25,0.386,0.367,0.834,-6.1,-5.49,-8.82,3,1
18056.265,0.374,0.379,0.851,-2.78,-3.66,-7.08,3,1
18056.281,0.381,0.363,0.838,-0.67,-4.27,-6.65,3,1
18056.281,0.379,0.372,0.847,-0.73,-3.51,-6.62,3,1
18056.296,0.379,0.377,0.853,0.06,-3.33,-6.5,3,1
18056.296,0.384,0.372,0.842,2.04,-3.14,-5.62,3,1
18056.312,0.386,0.371,0.845,4.24,-1.77,-4.61,3,1
18056.328,0.383,0.379,0.847,7.23,-0.31,-3.36,3,1
18056.328,0.382,0.374,0.84,8.85,0.55,-2.35,3,1
18056.343,0.379,0.365,0.83,8.33,0.76,-2.66,3,1
18056.359,0.378,0.385,0.826,6.35,-0.06,-3.69,3,1
18056.359,0.381,0.403,0.827,3.97,-0.73,-4.36,3,1
18056.375,0.378,0.405,0.819,2.08,-1.07,-4.15,3,1
18056.375,0.377,0.404,0.818,-0.31,-1.46,-4.15,3,1
18056.39,0.376,0.401,0.819,-2.87,-1.77,-4.39,3,1
18056.406,0.371,0.403,0.825,-4.67,-1.25,-3.57,3,1
18056.406,0.376,0.395,0.847,-5.4,-0.21,-1.8,3,1
18056.421,0.37,0.384,0.869,-5.19,0.61,-0.92,3,1
18056.437,0.364,0.364,0.879,-3.3,0.21,-0.95,3,1
18056.437,0.358,0.372,0.872,-1.16,-1.34,-0.46,3,1
18056.453,0.369,0.389,0.857,-0.7,-3.81,-0.12,3,1
18056.468,0.364,0.405,0.811,-3.08,-5.98,-1.01,3,1
18056.468,0.381,0.444,0.764,-10.13,-6.38,-1.56,3,1
18056.484,0.405,0.472,0.751,-21.3,-3.69,-0.98,3,1
18056.5,0.411,0.469,0.769,-33.48,0.4,-0.46,3,1
18056.5,0.421,0.443,0.823,-42.85,4.33,1.28,3,1
18056.515,0.405,0.373,0.892,-45.26,8.12,2.69,3,1
18056.515,0.381,0.306,0.949,-37.72,9.03,3.69,3,1
18056.531,0.383,0.272,0.907,-25.36,7.14,4.58,3,1
18056.546,0.38,0.254,0.893,-14.68,7.39,2.53,3,1
18056.562,0.356,0.221,0.887,-4.27,7.45,-0.15,3,1
18056.578,0.361,0.238,0.861,2.44,6.9,-1.74,3,1
18056.578,0.352,0.255,0.845,6.78,7.2,-3.08,3,1
18056.593,0.343,0.256,0.845,10.65,7.17,-4.3,3,1
18056.593,0.336,0.271,0.845,16.36,6.23,-5.62,3,1
18056.609,0.331,0.307,0.853,24.29,2.99,-6.71,3,1
18056.609,0.33,0.34,0.857,31.13,-2.59,-6.9,3,1
18056.625,0.337,0.376,0.857,34.7,-8.36,-6.74,3,1
18056.625,0.347,0.423,0.832,34.18,-13.18,-5.92,3,1
18056.64,0.38,0.473,0.799,28.2,-13.37,-3.23,3,1
18056.656,0.401,0.459,0.831,19.41,-7.26,-0.98,3,1
18056.671,0.404,0.377,0.836,14.37,2.08,-0.03,3,1
18056.671,0.368,0.333,0.838,15.66,8.94,0.0,3,1
18056.687,0.369,0.33,0.854,19.56,10.22,0.03,3,1
18056.687,0.367,0.37,0.863,23.38,9.25,-0.4,3,1
18056.703,0.363,0.422,0.85,24.57,7.84,0.4,3,1
18056.718,0.364,0.46,0.827,21.33,5.86,1.16,3,1
18056.718,0.362,0.475,0.81,16.11,4.27,1.59,3,1
18056.734,0.353,0.472,0.799,10.07,2.72,2.72,3,1
18056.75,0.358,0.46,0.803,3.97,1.34,4.09,3,1
18056.75,0.358,0.439,0.804,-1.28,0.49,5.04,3,1
18056.765,0.361,0.42,0.82,-5.65,-0.15,5.28,3,1
18056.781,0.364,0.403,0.836,-7.72,-0.67,4.94,3,1
18056.781,0.365,0.382,0.838,-8.27,-0.49,4.55,3,1
18056.796,0.373,0.367,0.863,-7.57,-0.06,4.12,3,1
18056.796,0.374,0.369,0.875,-5.74,-0.43,2.17,3,1
18056.812,0.364,0.365,0.868,-4.82,-2.32,-0.18,3,1
18056.828,0.374,0.366,0.853,-4.46,-4.36,-1.83,3,1
18056.828,0.371,0.355,0.845,-4.21,-6.38,-4.3,3,1
18056.843,0.381,0.344,0.826,-5.98,-8.91,-9.25,3,1
18056.859,0.379,0.382,0.827,-5.89,-8.18,-12.33,3,1
18056.875,0.376,0.402,0.83,-4.7,-6.68,-12.33,3,1
18056.875,0.372,0.415,0.847,-2.62,-4.88,-11.11,3,1
18056.89,0.361,0.433,0.856,1.37,-3.17,-8.3,3,1
18056.89,0.357,0.435,0.846,4.79,-1.86,-3.91,3,1
18056.906,0.35,0.417,0.843,5.46,-0.7,-0.12,3,1
18056.906,0.346,0.384,0.833,4.21,-1.16,0.89,3,1
18056.921,0.345,0.383,0.821,-0.52,-3.2,1.53,3,1
18056.937,0.356,0.4,0.823,-2.87,-2.9,2.29,3,1
18056.937,0.36,0.414,0.826,-5.1,-2.69,2.78,3,1
18056.953,0.365,0.411,0.824,-7.08,-2.66,2.93,3,1
18056.968,0.378,0.388,0.826,-8.09,-2.35,2.96,3,1
18056.968,0.381,0.375,0.835,-7.87,-1.31,2.66,3,1
18056.984,0.383,0.367,0.844,-6.07,0.09,2.26,3,1
18057.0,0.384,0.361,0.853,-3.27,1.25,1.95,3,1
18057.0,0.381,0.358,0.861,0.15,2.2,1.43,3,1
18057.015,0.374,0.36,0.859,3.91,3.05,0.95,3,1
18057.015,0.37,0.367,0.851,7.17,3.66,0.73,3,1
18057.031,0.367,0.374,0.851,9.22,3.72,0.09,3,1
18057.046,0.363,0.388,0.851,9.8,3.11,-0.61,3,1
18057.046,0.36,0.402,0.841,10.22,2.32,-0.49,3,1
18057.062,0.358,0.409,0.827,9.55,1.77,0.0,3,1
18057.078,0.359,0.413,0.822,7.11,1.04,-0.15,3,1
18057.093,0.358,0.414,0.814,4.24,0.06,-0.55,3,1
18057.093,0.362,0.423,0.824,1.43,-0.37,-0.03,3,1
18057.109,0.36,0.43,0.835,-0.76,-0.34,0.89,3,1
18057.109,0.354,0.416,0.833,-2.2,-0.24,1.98,3,1
18057.125,0.349,0.396,0.828,-1.95,0.7,3.91,3,1
18057.14,0.351,0.392,0.83,-0.37,2.66,7.57,3,1
18057.14,0.356,0.396,0.847,1.43,4.18,10.01,3,1
18057.156,0.353,0.394,0.858,2.11,4.33,10.44,3,1
18057.156,0.344,0.393,0.859,1.65,2.9,10.65,3,1
18057.171,0.348,0.391,0.857,2.53,1.28,11.75,3,1
18057.187,0.354,0.403,0.855,4.21,0.0,13.06,3,1
18057.187,0.356,0.411,0.857,3.97,-2.11,13.18,3,1
18057.203,0.353,0.408,0.85,1.89,-4.97,12.36,3,1
18057.218,0.352,0.413,0.854,0.03,-7.87,12.02,3,1
18057.218,0.338,0.424,0.876,-0.43,-11.6,12.42,3,1
18057.234,0.357,0.42,0.904,-2.5,-18.01,12.27,3,1
18057.25,0.344,0.411,0.891,-2.87,-25.82,9.67,3,1
18057.25,0.34,0.398,0.863,-5.16,-32.29,8.48,3,1
18057.265,0.368,0.363,0.86,-11.11,-40.41,4.85,3,1
18057.281,0.371,0.346,0.849,-15.41,-45.69,0.03,3,1
18057.281,0.38,0.351,0.823,-19.71,-50.11,-4.46,3,1
18057.296,0.405,0.368,0.796,-25.36,-52.06,-7.57,3,1
18057.296,0.442,0.376,0.758,-30.21,-49.26,-9.55,3,1
18057.312,0.464,0.361,0.73,-32.47,-41.96,-10.19,3,1
18057.328,0.475,0.364,0.756,-32.84,-32.65,-9.92,3,1
18057.328,0.467,0.365,0.788,-29.18,-25.21,-9.28,3,1
18057.343,0.445,0.38,0.845,-23.9,-20.14,-7.29,3,1
18057.359,0.438,0.369,0.897,-16.51,-19.71,-3.27,3,1
18057.359,0.443,0.351,0.878,-9.43,-22.1,0.15,3,1
18057.375,0.444,0.326,0.822,-4.52,-23.68,1.04,3,1
18057.375,0.459,0.308,0.789,-1.98,-23.19,-0.03,3,1
18057.39,0.462,0.303,0.781,0.37,-21.21,-1.68,3,1
18057.406,0.455,0.306,0.784,2.56,-18.74,-1.98,3,1
18057.421,0.45,0.319,0.792,3.2,-16.66,-1.98,3,1
18057.421,0.453,0.352,0.807,4.61,-14.56,-0.67,3,1
18057.437,0.426,0.37,0.836,8.39,-11.75,2.41,3,1
18057.437,0.402,0.374,0.864,15.66,-9.49,9.0,3,1
18057.453,0.414,0.409,0.873,22.86,-10.1,18.07,3,1
18057.468,0.446,0.424,0.842,26.76,-10.86,25.73,3,1
18057.468,0.492,0.401,0.786,30.82,-5.89,32.17,3,1
18057.484,0.491,0.371,0.701,36.99,5.07,37.78,3,1
18057.5,0.502,0.342,0.652,41.26,17.06,42.45,3,1
18057.5,0.522,0.333,0.63,43.89,32.14,45.38,3,1
18057.515,0.518,0.349,0.616,43.09,48.92,45.93,3,1
18057.531,0.514,0.375,0.672,36.71,61.71,42.94,3,1
18057.531,0.512,0.401,0.717,28.32,68.36,36.5,3,1
18057.546,0.494,0.423,0.71,21.0,74.95,31.46,3,1
18057.562,0.474,0.41,0.746,16.63,82.03,28.9,3,1
18057.562,0.457,0.391,0.771,14.44,85.76,25.12,3,1
18057.578,0.43,0.382,0.792,9.13,86.06,20.14,3,1
18057.578,0.408,0.351,0.821,1.86,81.73,12.39,3,1
18057.593,0.381,0.342,0.86,-7.78,74.07,3.11,3,1
18057.609,0.273,0.363,1.023,-16.85,62.32,-5.43,3,1
18057.609,0.152,0.379,1.299,-20.08,33.2,-6.16,3,1
18057.625,0.3,0.312,1.187,-16.14,-8.7,-5.1,3,1
18057.64,0.375,0.277,0.95,-9.16,-28.6,-12.36,3,1
18057.64,0.358,0.285,0.865,-2.11,-34.03,-19.44,3,1
18057.656,0.36,0.32,0.844,2.87,-35.71,-22.28,3,1
18057.656,0.354,0.374,0.845,6.13,-35.43,-21.45,3,1
18057.671,0.339,0.397,0.828,2.56,-36.9,-20.29,3,1
18057.687,0.369,0.426,0.833,-2.9,-37.66,-15.69,3,1
18057.703,0.387,0.417,0.818,-1.74,-34.52,-9.64,3,1
18057.703,0.401,0.388,0.791,2.17,-30.27,-4.79,3,1
18057.718,0.413,0.381,0.773,4.76,-25.73,-1.83,3,1
18057.718,0.429,0.38,0.787,5.37,-21.39,-0.12,3,1
18057.734,0.449,0.38,0.793,7.29,-16.91,1.04,3,1
18057.75,0.458,0.382,0.783,11.63,-10.68,2.5,3,1
18057.75,0.456,0.368,0.79,15.99,-4.88,3.36,3,1
18057.765,0.448,0.359,0.799,18.25,-1.22,2.35,3,1
18057.765,0.44,0.366,0.797,18.04,0.43,0.09,3,1
18057.781,0.426,0.385,0.788,15.9,0.73,-2.35,3,1
18057.796,0.425,0.411,0.79,13.43,0.98,-3.23,3,1
18057.812,0.413,0.437,0.805,11.32,0.82,-3.08,3,1
18057.812,0.394,0.444,0.812,8.55,-0.76,-2.23,3,1
18057.828,0.391,0.436,0.818,4.61,-4.24,-1.37,3,1
18057.828,0.392,0.431,0.818,0.67,-7.05,-0.27,3,1
18057.843,0.395,0.418,0.804,-2.44,-9.13,0.34,3,1
18057.859,0.4,0.402,0.781,-5.46,-10.13,0.37,3,1
18057.859,0.405,0.394,0.772,-7.54,-8.45,1.1,3,1
18057.875,0.415,0.399,0.77,-8.94,-5.13,3.05,3,1
18057.89,0.434,0.403,0.767,-11.96,-2.23,3.81,3,1
18057.89,0.445,0.405,0.783,-15.38,1.37,3.39,3,1
18057.906,0.424,0.4,0.802,-16.75,4.85,3.88,3,1
18057.906,0.418,0.395,0.808,-18.83,4.18,4.43,3,1
18057.921,0.419,0.383,0.829,-18.19,3.08,3.23,3,1
18057.937,0.424,0.37,0.83,-16.24,3.6,2.66,3,1
18057.937,0.433,0.369,0.799,-15.2,5.52,3.39,3,1
18057.953,0.432,0.391,0.797,-15.69,8.73,4.76,3,1
18057.968,0.429,0.422,0.802,-19.17,11.17,5.74,3,1
18057.968,0.43,0.436,0.824,-24.2,12.15,6.01,3,1
18057.984,0.396,0.404,0.845,-27.19,13.31,6.68,3,1
18058.0,0.385,0.357,0.852,-28.5,11.84,7.72,3,1
18058.0,0.398,0.312,0.862,-28.53,8.67,6.96,3,1
18058.015,0.416,0.267,0.85,-26.46,6.96,4.58,3,1
18058.015,0.393,0.246,0.907,-20.6,6.93,1.68,3,1
18058.031,0.394,0.23,0.894,-10.19,4.73,0.34,3,1
18058.062,0.422,0.271,0.896,-4.94,5.04,-0.52,3,1
18058.062,0.4,0.265,0.907,1.31,5.86,-2.78,3,1
18058.062,0.395,0.27,0.879,8.18,4.7,-4.49,3,1
18058.078,0.399,0.298,0.871,13.37,3.14,-5.77,3,1
18058.078,0.371,0.324,0.876,18.16,1.46,-6.56,3,1
18058.093,0.35,0.357,0.858,21.36,-1.43,-4.64,3,1
18058.109,0.362,0.373,0.841,21.7,-5.04,-1.46,3,1
18058.109,0.369,0.384,0.847,20.39,-8.7,0.7,3,1
18058.125,0.378,0.393,0.864,18.92,-13.06,2.5,3,1
18058.14,0.365,0.38,0.855,18.04,-19.1,3.78,3,1
18058.14,0.407,0.367,0.778,13.12,-23.04,3.75,3,1
18058.156,0.413,0.368,0.763,5.49,-21.79,1.8,3,1
18058.171,0.45,0.35,0.778,1.43,-18.8,1.37,3,1
18058.171,0.485,0.375,0.762,-0.27,-13.76,-0.18,3,1
18058.187,0.466,0.409,0.751,-4.15,-5.86,-2.08,3,1
18058.187,0.463,0.404,0.799,-7.39,0.73,-1.34,3,1
18058.203,0.454,0.397,0.816,-7.26,3.6,-1.46,3,1
18058.218,0.432,0.377,0.813,-7.02,4.06,-1.62,3,1
18058.218,0.438,0.357,0.82,-8.33,3.94,-1.98,3,1
18058.234,0.432,0.353,0.84,-8.91,4.91,-3.27,3,1
18058.25,0.422,0.34,0.845,-6.99,5.55,-4.12,3,1
18058.25,0.421,0.327,0.817,-5.46,5.68,-5.37,3,1
18058.265,0.436,0.321,0.798,-5.07,7.72,-6.93,3,1
18058.265,0.44,0.345,0.793,-4.64,12.39,-8.73,3,1
18058.281,0.431,0.353,0.801,-5.25,17.58,-9.86,3,1
18058.296,0.422,0.352,0.812,-7.17,20.51,-11.47,3,1
18058.296,0.418,0.344,0.822,-8.67,21.94,-12.94,3,1
18058.312,0.412,0.349,0.855,-10.01,22.61,-14.47,3,1
18058.328,0.394,0.36,0.87,-9.67,22.22,-15.53,3,1
18058.328,0.389,0.351,0.859,-8.88,20.87,-16.27,3,1
18058.343,0.383,0.338,0.863,-7.78,19.96,-16.97,3,1
18058.359,0.366,0.34,0.869,-5.28,19.17,-17.0,3,1
18058.359,0.353,0.356,0.872,-3.3,18.4,-15.2,3,1
18058.375,0.35,0.368,0.884,-1.01,18.19,-12.54,3,1
18058.39,0.337,0.371,0.885,1.89,17.64,-10.01,3,1
18058.39,0.334,0.364,0.89,3.78,15.9,-7.11,3,1
18058.406,0.344,0.36,0.878,4.43,13.25,-5.46,3,1
18058.406,0.35,0.361,0.872,4.61,11.96,-5.22,3,1
18058.421,0.328,0.356,0.862,5.07,11.17,-5.28,3,1
18058.437,0.344,0.372,0.852,2.84,9.49,-3.27,3,1
18058.437,0.358,0.379,0.839,2.08,8.91,-2.14,3,1
18058.453,0.359,0.379,0.828,0.79,9.34,-2.47,3,1
18058.468,0.347,0.383,0.841,-2.17,9.83,-2.75,3,1
18058.468,0.347,0.378,0.84,-4.91,8.76,-2.93,3,1
18058.484,0.348,0.379,0.84,-7.81,8.88,-2.84,3,1
18058.5,0.341,0.372,0.853,-8.67,10.38,-1.25,3,1
18058.5,0.354,0.356,0.856,-7.75,12.45,0.76,3,1
18058.515,0.356,0.347,0.871,-5.37,14.98,1.71,3,1
18058.531,0.33,0.342,0.9,-2.72,15.53,1.19,3,1
18058.531,0.315,0.336,0.943,-1.1,11.26,0.12,3,1
18058.546,0.298,0.331,0.961,1.13,3.72,-1.65,3,1
18058.546,0.315,0.325,0.928,3.17,-4.94,-3.3,3,1
18058.562,0.334,0.342,0.86,5.07,-9.31,-3.97,3,1
18058.578,0.359,0.361,0.827,5.04,-7.93,-3.51,3,1
18058.593,0.357,0.357,0.819,4.46,-4.24,-3.63,3,1
18058.593,0.346,0.362,0.823,2.81,-1.34,-4.03,3,1
18058.609,0.346,0.383,0.845,-0.34,0.49,-4.03,3,1
18058.609,0.339,0.389,0.861,-2.53,1.22,-3.54,3,1
18058.625,0.328,0.385,0.874,-3.85,0.92,-2.72,3,1
18058.625,0.323,0.375,0.891,-4.73,-0.7,-1.8,3,1
18058.64,0.321,0.364,0.91,-4.7,-3.57,-1.1,3,1
18058.656,0.319,0.37,0.903,-4.79,-7.26,-0.76,3,1
18058.671,0.327,0.361,0.87,-5.13,-10.62,-1.13,3,1
18058.671,0.336,0.36,0.856,-6.13,-11.17,-1.04,3,1
18058.687,0.335,0.363,0.849,-5.65,-9.83,-0.4,3,1
18058.687,0.338,0.359,0.842,-5.1,-8.45,0.52,3,1
18058.703,0.345,0.344,0.845,-5.34,-7.11,1.07,3,1
18058.718,0.346,0.331,0.862,-4.88,-5.95,1.01,3,1
18058.718,0.346,0.329,0.876,-3.45,-5.55,0.98,3,1
18058.734,0.358,0.332,0.869,-2.2,-4.85,1.25,3,1
18058.75,0.366,0.336,0.869,-0.73,-2.84,1.43,3,1
18058.75,0.36,0.33,0.869,2.11,-0.95,1.37,3,1
18058.765,0.354,0.34,0.878,4.58,-0.21,1.86,3,1
18058.765,0.346,0.359,0.87,6.59,0.0,2.69,3,1
18058.781,0.341,0.375,0.851,7.75,0.18,3.97,3,1
18058.796,0.343,0.367,0.836,8.06,1.01,5.65,3,1
18058.812,0.346,0.376,0.83,7.26,3.17,7.97,3,1
18058.812,0.349,0.394,0.836,5.31,5.01,9.89,3,1
18058.828,0.355,0.384,0.844,1.86,5.92,10.22,3,1
18058.828,0.351,0.379,0.862,-2.32,6.04,9.92,3,1
18058.843,0.341,0.373,0.888,-5.4,4.52,9.37,3,1
18058.859,0.335,0.362,0.875,-7.35,1.83,8.58,3,1
18058.859,0.35,0.342,0.856,-9.4,0.12,7.69,3,1
18058.875,0.355,0.333,0.865,-11.2,0.52,6.47,3,1
18058.875,0.362,0.326,0.892,-10.16,0.92,4.94,3,1
18058.89,0.35,0.333,0.887,-4.76,1.65,3.91,3,1
18058.906,0.354,0.334,0.885,-2.38,3.02,3.78,3,1
18058.906,0.359,0.322,0.86,-1.65,4.85,2.32,3,1
18058.921,0.379,0.323,0.849,-3.17,7.57,-0.52,3,1
18058.937,0.359,0.362,0.854,-5.65,8.45,-3.3,3,1
18058.937,0.347,0.392,0.831,-9.95,7.39,-4.36,3,1
18058.953,0.332,0.411,0.837,-15.72,6.29,-3.42,3,1
18058.968,0.317,0.404,0.83,-20.17,4.94,-0.52,3,1
18058.968,0.321,0.368,0.83,-25.06,4.55,2.38,3,1
18058.984,0.29,0.329,0.888,-27.04,4.15,4.33,3,1
18059.0,0.302,0.271,0.9,-24.81,1.98,6.96,3,1
18059.0,0.306,0.238,0.941,-19.47,0.7,7.9,3,1
18059.015,0.3,0.193,0.963,-9.64,-2.11,7.9,3,1
18059.015,0.324,0.187,0.968,0.4,-6.53,7.32,3,1
18059.031,0.357,0.193,0.924,9.98,-10.47,4.85,3,1
18059.046,0.396,0.252,0.896,17.12,-8.15,3.51,3,1
18059.046,0.39,0.299,0.901,23.47,-1.28,2.2,3,1
18059.062,0.354,0.33,0.894,26.67,2.17,0.06,3,1
18059.078,0.354,0.356,0.836,26.43,1.59,-0.64,3,1
18059.078,0.329,0.394,0.844,22.92,1.92,-1.01,3,1
18059.093,0.293,0.389,0.877,21.27,-0.03,1.71,3,1
18059.109,0.299,0.398,0.899,17.33,-6.47,4.43,3,1
18059.109,0.3,0.415,0.907,12.6,-13.89,5.49,3,1
18059.125,0.294,0.403,0.867,8.33,-21.67,6.13,3,1
18059.14,0.321,0.44,0.76,-1.07,-26.95,7.51,3,1
18059.14,0.354,0.465,0.725,-18.56,-25.3,9.34,3,1
18059.156,0.368,0.436,0.748,-33.33,-19.41,11.57,3,1
18059.156,0.378,0.402,0.773,-41.02,-13.98,14.47,3,1
18059.171,0.398,0.387,0.794,-46.08,-9.92,17.12,3,1
18059.187,0.402,0.355,0.829,-50.36,-6.65,17.37,3,1
18059.187,0.402,0.288,0.865,-50.69,-4.79,15.99,3,1
18059.203,0.408,0.251,0.894,-46.72,-3.48,14.5,3,1
18059.218,0.398,0.215,0.909,-41.38,-1.95,12.3,3,1
18059.234,0.392,0.19,0.931,-35.4,-0.43,11.02,3,1
18059.234,0.392,0.165,0.946,-27.56,0.43,9.64,3,1
18059.25,0.391,0.147,0.95,-20.14,0.76,7.11,3,1
18059.25,0.392,0.152,0.959,-13.12,1.16,3.72,3,1
18059.265,0.387,0.152,0.951,-4.27,1.22,-0.21,3,1
18059.281,0.386,0.197,0.941,3.36,1.5,-2.84,3,1
18059.281,0.384,0.237,0.917,10.22,2.11,-4.36,3,1
18059.296,0.379,0.261,0.877,14.83,3.36,-4.85,3,1
18059.296,0.376,0.28,0.856,16.51,5.68,-4.33,3,1
18059.312,0.372,0.304,0.866,15.63,7.57,-3.39,3,1
18059.328,0.362,0.321,0.865,12.42,8.36,-2.62,3,1
18059.328,0.363,0.319,0.846,8.42,8.61,-1.92,3,1
18059.343,0.371,0.301,0.855,5.1,9.34,-1.07,3,1
18059.359,0.372,0.293,0.873,3.42,10.22,-1.01,3,1
18059.359,0.365,0.284,0.889,3.02,11.35,-0.7,3,1
18059.375,0.362,0.264,0.89,4.18,11.81,-0.61,3,1
18059.39,0.36,0.262,0.897,6.2,12.39,-1.04,3,1
18059.39,0.355,0.269,0.899,8.85,13.06,-1.4,3,1
18059.406,0.35,0.284,0.896,10.77,13.31,-1.56,3,1
18059.406,0.346,0.299,0.876,11.35,12.91,-2.08,3,1
18059.421,0.342,0.318,0.86,9.74,13.12,-2.01,3,1
18059.437,0.339,0.323,0.859,6.74,14.31,-1.16,3,1
18059.437,0.343,0.324,0.866,4.3,15.05,-0.73,3,1
18059.453,0.327,0.339,0.878,1.74,15.14,0.34,3,1
18059.468,0.325,0.338,0.877,-1.37,14.74,2.5,3,1
18059.468,0.334,0.319,0.887,-3.75,14.71,4.43,3,1
18059.484,0.332,0.296,0.903,-3.69,15.11,5.86,3,1
18059.5,0.331,0.28,0.918,-2.04,15.14,7.08,3,1
18059.5,0.338,0.273,0.909,0.55,15.05,7.97,3,1
18059.515,0.343,0.269,0.895,4.55,15.99,8.27,3,1
18059.515,0.336,0.28,0.907,7.42,17.4,8.24,3,1
18059.531,0.326,0.29,0.905,8.21,17.06,7.63,3,1
18059.546,0.313,0.301,0.91,7.75,16.02,7.11,3,1
18059.546,0.314,0.289,0.912,6.99,13.73,6.53,3,1
18059.562,0.32,0.283,0.905,6.71,11.02,5.13,3,1
18059.578,0.314,0.286,0.913,6.53,9.13,3.66,3,1
18059.578,0.306,0.288,0.928,6.68,6.71,1.86,3,1
18059.593,0.306,0.295,0.932,6.84,3.27,-0.27,3,1
18059.609,0.285,0.303,0.942,6.78,-0.55,-2.75,3,1
18059.609,0.262,0.314,0.94,7.11,-5.62,-2.41,3,1
18059.625,0.271,0.324,0.928,7.81,-10.47,0.24,3,1
18059.64,0.277,0.333,0.885,8.82,-12.79,2.9,3,1
18059.64,0.274,0.38,0.903,9.22,-12.82,7.54,3,1
18059.656,0.257,0.365,0.967,9.06,-15.53,14.92,3,1
18059.656,0.268,0.302,0.967,6.68,-25.33,16.91,3,1
18059.671,0.306,0.282,0.944,4.55,-33.08,17.4,3,1
18059.687,0.336,0.265,0.903,6.44,-35.34,17.46,3,1
18059.703,0.343,0.266,0.904,9.89,-34.58,16.66,3,1
18059.703,0.333,0.284,0.919,14.19,-34.88,16.05,3,1
18059.718,0.326,0.312,0.925,15.11,-38.45,16.08,3,1
18059.718,0.335,0.32,0.909,13.73,-45.11,15.78,3,1
18059.734,0.365,0.318,0.876,12.18,-50.75,15.69,3,1
18059.75,0.395,0.317,0.839,10.53,-51.67,15.14,3,1
18059.75,0.433,0.299,0.81,9.37,-48.01,14.28,3,1
18059.765,0.473,0.275,0.801,10.22,-40.41,12.24,3,1
18059.781,0.487,0.256,0.766,11.99,-30.37,8.45,3,1
18059.781,0.486,0.269,0.74,12.79,-19.26,4.33,3,1
18059.796,0.488,0.284,0.733,12.3,-8.3,0.76,3,1
18059.796,0.506,0.292,0.73,10.1,2.44,-2.5,3,1
18059.812,0.507,0.316,0.722,7.02,12.85,-6.32,3,1
18059.828,0.465,0.346,0.763,3.39,22.13,-10.32,3,1
18059.828,0.337,0.372,0.957,1.89,25.06,-9.55,3,1
18059.843,0.375,0.29,0.997,4.18,13.21,-5.52,3,1
18059.859,0.357,0.277,0.961,6.2,4.67,-6.93,3,1
18059.859,0.368,0.249,0.903,14.74,2.69,-6.1,3,1
18059.875,0.388,0.236,0.864,28.5,8.36,-7.66,3,1
18059.89,0.39,0.266,0.81,32.5,16.48,-5.68,3,1
18059.89,0.394,0.341,0.814,32.23,21.39,-4.58,3,1
18059.906,0.394,0.369,0.811,28.47,23.56,-5.4,3,1
18059.906,0.367,0.419,0.809,23.59,24.05,-4.27,3,1
18059.921,0.356,0.427,0.814,18.01,23.1,-2.78,3,1
18059.937,0.348,0.423,0.818,10.65,20.91,-1.71,3,1
18059.937,0.341,0.414,0.85,3.72,17.85,-0.89,3,1
18059.953,0.324,0.41,0.892,-1.22,13.86,0.34,3,1
18059.968,0.319,0.383,0.923,-3.63,7.14,1.34,3,1
18059.968,0.325,0.337,0.884,-4.55,0.0,0.92,3,1
18059.984,0.352,0.315,0.847,-5.65,-2.23,0.12,3,1
18060.0,0.359,0.326,0.866,-3.66,0.58,0.52,3,1
18060.0,0.359,0.332,0.87,1.01,2.78,1.28,3,1
18060.015,0.367,0.353,0.855,2.14,3.39,1.25,3,1
18060.015,0.37,0.364,0.853,1.83,3.88,0.92,3,1
18060.031,0.365,0.375,0.855,1.28,3.85,1.01,3,1
18060.046,0.363,0.374,0.848,0.34,2.87,0.76,3,1
18060.046,0.36,0.373,0.837,-1.98,1.65,0.06,3,1
18060.062,0.367,0.387,0.822,-5.52,1.5,-0.37,3,1
18060.078,0.35,0.417,0.852,-9.89,1.8,0.31,3,1
18060.078,0.338,0.41,0.833,-16.36,-0.73,0.34,3,1
18060.093,0.351,0.409,0.842,-24.54,-2.93,1.07,3,1
18060.109,0.347,0.4,0.865,-30.06,-4.7,1.83,3,1
18060.109,0.354,0.392,0.839,-35.22,-6.81,3.08,3,1
18060.125,0.375,0.368,0.821,-42.05,-6.93,3.14,3,1
18060.14,0.38,0.353,0.849,-47.98,-4.15,2.11,3,1
18060.14,0.342,0.331,0.89,-48.71,-2.93,2.75,3,1
18060.156,0.362,0.279,0.879,-46.05,-4.97,3.78,3,1
18060.156,0.349,0.256,0.892,-42.02,-4.43,3.3,3,1
18060.171,0.329,0.219,0.917,-33.97,-3.91,3.69,3,1
18060.187,0.331,0.183,0.937,-23.22,-4.79,5.37,3,1
18060.203,0.329,0.18,0.943,-10.35,-5.19,7.29,3,1
18060.203,0.337,0.197,0.94,1.4,-5.16,9.0,3,1
18060.218,0.351,0.224,0.949,10.8,-6.56,9.06,3,1
18060.218,0.354,0.265,0.946,18.95,-9.83,8.45,3,1
18060.234,0.341,0.313,0.907,23.13,-14.31,7.87,3,1
18060.25,0.403,0.332,0.797,19.65,-14.62,8.18,3,1
18060.25,0.423,0.337,0.821,13.0,-5.52,6.68,3,1
18060.265,0.388,0.275,0.85,13.86,2.69,6.5,3,1
18060.265,0.375,0.265,0.862,13.7,4.18,5.65,3,1
18060.281,0.374,0.294,0.882,11.26,2.23,3.91,3,1
18060.296,0.356,0.313,0.895,7.48,-1.65,2.32,3,1
18060.296,0.353,0.286,0.9,1.22,-8.33,0.67,3,1
18060.312,0.359,0.276,0.905,-1.5,-16.36,-2.75,3,1
18060.328,0.428,0.309,0.881,-2.11,-19.84,-2.23,3,1
18060.328,0.424,0.314,0.87,-3.39,-18.62,-5.16,3,1
18060.343,0.436,0.304,0.847,1.8,-13.55,-4.67,3,1
18060.359,0.448,0.308,0.812,8.48,-7.11,-3.72,3,1
18060.359,0.45,0.323,0.798,11.38,-0.64,-5.07,3,1
18060.375,0.437,0.326,0.796,10.07,5.89,-7.42,3,1
18060.39,0.41,0.32,0.809,7.17,10.9,-9.89,3,1
18060.39,0.384,0.313,0.834,3.75,12.33,-12.09,3,1
18060.406,0.365,0.336,0.876,-1.37,9.64,-14.31,3,1
18060.406,0.348,0.349,0.909,-7.97,3.57,-16.39,3,1
18060.421,0.336,0.335,0.926,-12.42,-4.52,-18.13,3,1
18060.437,0.321,0.316,0.926,-14.31,-12.67,-18.95,3,1
18060.437,0.32,0.318,0.916,-15.11,-18.92,-17.4,3,1
18060.453,0.336,0.329,0.905,-13.64,-21.45,-13.55,3,1
18060.468,0.352,0.328,0.896,-8.85,-20.14,-8.33,3,1
18060.468,0.363,0.308,0.906,-2.08,-17.85,-3.33,3,1
18060.484,0.374,0.292,0.894,4.61,-16.27,-0.31,3,1
18060.5,0.383,0.298,0.875,8.27,-15.5,1.07,3,1
18060.5,0.388,0.295,0.865,8.85,-15.66,0.79,3,1
18060.515,0.395,0.301,0.855,8.06,-16.54,-0.4,3,1
18060.531,0.407,0.322,0.849,7.48,-16.75,-1.01,3,1
18060.531,0.411,0.342,0.835,6.74,-15.9,-0.98,3,1
18060.546,0.414,0.344,0.819,5.8,-14.1,-0.31,3,1
18060.546,0.422,0.332,0.815,4.61,-11.38,0.31,3,1
18060.562,0.425,0.319,0.809,2.99,-7.93,0.31,3,1
18060.578,0.424,0.313,0.807,0.34,-4.49,-0.37,3,1
18060.578,0.424,0.306,0.819,-2.29,-1.13,-1.46,3,1
18060.593,0.421,0.301,0.836,-3.88,2.01,-2.53,3,1
18060.609,0.419,0.293,0.852,-4.12,3.66,-4.52,3,1
18060.609,0.41,0.297,0.848,-4.85,3.33,-7.42,3,1
18060.625,0.414,0.301,0.855,-5.22,2.78,-10.1,3,1
18060.64,0.414,0.312,0.871,-5.31,2.96,-12.05,3,1
18060.64,0.409,0.316,0.867,-4.7,3.51,-13.06,3,1
18060.656,0.398,0.313,0.845,-2.9,4.79,-12.91,3,1
18060.656,0.404,0.308,0.842,0.24,7.08,-11.32,3,1
18060.671,0.405,0.328,0.833,2.08,10.04,-9.4,3,1
18060.687,0.367,0.344,0.879,1.86,12.24,-7.69,3,1
18060.687,0.362,0.312,0.933,2.32,8.79,-6.07,3,1
18060.703,0.368,0.297,0.902,3.94,3.72,-6.47,3,1
18060.718,0.37,0.305,0.87,6.5,1.86,-6.01,3,1
18060.734,0.383,0.314,0.863,8.97,2.75,-4.94,3,1
18060.734,0.374,0.316,0.855,11.02,5.19,-4.27,3,1
18060.734,0.366,0.325,0.853,12.42,7.32,-3.14,3,1
18060.75,0.363,0.336,0.853,13.21,8.79,-1.62,3,1
18060.765,0.357,0.356,0.87,13.28,9.67,-0.15,3,1
18060.781,0.363,0.357,0.849,13.95,9.77,1.4,3,1
18060.781,0.371,0.369,0.831,14.65,11.29,3.36,3,1
18060.796,0.365,0.364,0.833,14.37,13.67,5.89,3,1
18060.796,0.367,0.353,0.84,13.18,14.28,7.48,3,1
18060.812,0.371,0.371,0.86,10.68,13.73,8.0,3,1
18060.828,0.364,0.382,0.87,6.9,11.81,8.12,3,1
18060.843,0.362,0.36,0.856,3.3,8.18,7.72,3,1
18060.843,0.365,0.341,0.84,0.61,5.55,7.26,3,1
18060.859,0.378,0.359,0.835,-0.52,6.13,7.75,3,1
18060.859,0.364,0.373,0.844,0.18,12.91,12.12,3,1
18060.875,0.363,0.361,0.856,3.08,16.3,14.19,3,1
18060.89,0.351,0.343,0.869,6.47,17.73,15.38,3,1
18060.89,0.328,0.336,0.869,8.21,18.71,17.79,3,1
18060.906,0.346,0.344,0.877,9.77,21.18,21.73,3,1
18060.906,0.356,0.329,0.881,13.28,22.89,22.8,3,1
18060.921,0.343,0.327,0.878,15.14,21.67,20.72,3,1
18060.937,0.335,0.335,0.885,13.06,18.22,18.52,3,1
18060.937,0.345,0.347,0.891,10.77,14.83,18.13,3,1
18060.953,0.339,0.355,0.888,10.71,12.33,18.49,3,1
18060.968,0.333,0.366,0.878,12.09,10.38,20.91,3,1
18060.968,0.365,0.388,0.871,15.99,10.44,25.09,3,1
18060.984,0.373,0.381,0.857,20.54,11.87,26.64,3,1
18061.0,0.358,0.368,0.854,20.75,12.48,25.24,3,1
18061.0,0.344,0.36,0.87,19.29,12.24,24.17,3,1
18061.015,0.344,0.356,0.817,17.33,11.69,25.06,3,1
18061.015,0.358,0.362,0.772,7.69,11.32,24.72,3,1
18061.031,0.355,0.345,0.799,-5.71,10.16,20.87,3,1
18061.046,0.348,0.304,0.864,-16.79,6.81,14.53,3,1
18061.046,0.338,0.298,0.911,-21.94,2.35,8.3,3,1
18061.062,0.333,0.309,0.923,-20.97,-0.49,5.86,3,1
18061.078,0.34,0.302,0.926,-15.84,-0.7,6.62,3,1
18061.078,0.35,0.283,0.926,-7.78,0.95,7.87,3,1
18061.093,0.356,0.274,0.916,0.67,2.87,8.0,3,1
18061.109,0.358,0.283,0.905,7.23,4.09,7.48,3,1
18061.109,0.371,0.309,0.887,12.51,4.64,7.14,3,1
18061.125,0.377,0.321,0.867,14.56,4.24,4.85,3,1
18061.125,0.374,0.326,0.859,14.16,3.66,1.71,3,1
18061.14,0.369,0.339,0.849,12.94,2.59,-1.25,3,1
18061.156,0.355,0.356,0.833,10.44,1.31,-3.66,3,1
18061.156,0.351,0.37,0.83,6.99,0.52,-4.67,3,1
18061.171,0.341,0.387,0.844,3.57,0.89,-4.24,3,1
18061.187,0.34,0.39,0.864,1.01,1.83,-2.66,3,1
18061.203,0.338,0.354,0.88,-0.06,2.17,-2.11,3,1
18061.203,0.33,0.322,0.879,0.34,1.77,-2.66,3,1
18061.218,0.329,0.311,0.877,1.31,1.8,-3.05,3,1
18061.218,0.328,0.32,0.877,2.14,1.86,-3.51,3,1
18061.234,0.336,0.34,0.886,2.04,1.16,-4.0,3,1
18061.25,0.336,0.365,0.876,0.79,-0.7,-4.79,3,1
18061.25,0.329,0.396,0.845,-2.14,-3.81,-5.71,3,1
18061.265,0.325,0.431,0.826,-8.7,-6.62,-4.79,3,1
18061.265,0.332,0.432,0.818,-15.38,-7.45,-1.37,3,1
18061.281,0.343,0.4,0.826,-20.69,-6.41,2.01,3,1
18061.296,0.344,0.347,0.868,-24.57,-4.82,3.66,3,1
18061.296,0.354,0.299,0.929,-24.2,-4.7,4.12,3,1
18061.312,0.358,0.271,0.939,-18.95,-5.25,3.94,3,1
18061.328,0.367,0.254,0.91,-11.87,-4.76,3.3,3,1
18061.328,0.367,0.239,0.898,-4.64,-2.14,1.5,3,1
18061.343,0.358,0.239,0.898,2.5,1.04,-0.73,3,1
18061.359,0.351,0.258,0.866,8.85,3.27,-1.89,3,1
18061.359,0.373,0.316,0.839,10.41,5.89,-2.69,3,1
18061.375,0.335,0.385,0.866,8.24,8.91,-4.03,3,1
18061.39,0.337,0.399,0.835,5.31,7.08,-3.36,3,1
18061.39,0.339,0.434,0.811,-3.57,5.28,-3.69,3,1
18061.406,0.3,0.431,0.828,-13.03,6.13,-3.05,3,1
18061.406,0.29,0.398,0.839,-20.2,6.23,-0.24,3,1
18061.421,0.278,0.378,0.855,-24.81,5.31,2.11,3,1
18061.437,0.261,0.36,0.891,-27.31,3.63,5.16,3,1
18061.437,0.258,0.332,0.925,-26.86,1.13,10.8,3,1
18061.453,0.301,0.292,0.939,-23.59,-3.72,15.69,3,1
18061.468,0.324,0.259,0.952,-20.05,-10.5,15.56,3,1
18061.468,0.324,0.25,0.994,-16.17,-17.33,13.34,3,1
18061.484,0.357,0.245,0.946,-9.77,-23.8,13.03,3,1
18061.5,0.408,0.287,0.825,-9.13,-22.86,11.63,3,1
18061.5,0.441,0.311,0.83,-10.68,-13.18,10.22,3,1
18061.515,0.438,0.32,0.866,-8.3,-5.58,8.91,3,1
18061.515,0.406,0.311,0.865,-5.31,-3.11,7.35,3,1
18061.531,0.392,0.299,0.869,-4.15,-2.38,7.6,3,1
18061.546,0.392,0.269,0.882,-1.89,-1.01,7.48,3,1
18061.546,0.332,0.246,0.928,2.81,-0.06,6.84,3,1
18061.562,0.34,0.224,0.91,7.48,-1.31,7.63,3,1
18061.578,0.318,0.216,0.899,10.19,1.22,7.14,3,1
18061.578,0.313,0.211,0.905,13.0,3.33,6.5,3,1
18061.593,0.321,0.232,0.898,15.2,1.86,4.97,3,1
18061.609,0.341,0.272,0.885,16.36,-1.53,3.54,3,1
18061.609,0.354,0.313,0.896,16.51,-3.69,2.32,3,1
18061.625,0.338,0.324,0.945,17.58,-6.96,1.16,3,1
18061.625,0.398,0.307,0.898,20.14,-11.66,0.82,3,1
18061.64,0.384,0.311,0.874,21.18,-10.8,-2.66,3,1
18061.656,0.363,0.295,0.835,22.58,-8.79,-4.49,3,1
18061.656,0.358,0.308,0.837,19.84,-7.72,-5.71,3,1
18061.671,0.329,0.336,0.895,17.58,-8.06,-6.07,3,1
18061.687,0.276,0.346,0.887,15.63,-12.33,-2.66,3,1
18061.687,0.33,0.327,0.946,1.74,-25.79,-2.59,3,1
18061.703,0.364,0.29,0.93,-6.71,-39.0,-8.97,3,1
18061.718,0.372,0.309,0.921,-11.11,-47.73,-13.73,3,1
18061.718,0.391,0.28,0.912,-13.37,-56.09,-20.11,3,1
18061.734,0.408,0.287,0.876,-14.77,-62.01,-26.22,3,1
18061.75,0.434,0.305,0.835,-15.69,-62.56,-29.85,3,1
18061.75,0.458,0.296,0.815,-15.35,-58.32,-32.56,3,1
18061.765,0.477,0.281,0.789,-13.89,-51.82,-35.58,3,1
18061.765,0.482,0.284,0.772,-12.36,-43.31,-38.39,3,1
18061.781,0.492,0.285,0.761,-10.35,-34.18,-40.68,3,1
18061.796,0.494,0.288,0.753,-7.05,-24.05,-42.6,3,1
18061.812,0.485,0.306,0.75,-3.45,-13.31,-43.61,3,1
18061.812,0.464,0.342,0.764,-1.56,-3.51,-44.04,3,1
18061.828,0.439,0.38,0.791,-1.71,4.15,-42.51,3,1
18061.828,0.425,0.414,0.801,-2.62,9.64,-39.0,3,1
18061.843,0.417,0.433,0.796,-1.92,18.34,-27.62,3,1
18061.859,0.391,0.43,0.784,-3.85,22.1,-20.72,3,1
18061.859,0.377,0.424,0.791,-7.81,24.26,-16.24,3,1
18061.875,0.388,0.413,0.809,-13.15,24.75,-15.5,3,1
18061.89,0.358,0.349,0.832,-18.56,23.5,-14.83,3,1
18061.89,0.317,0.369,0.913,-20.39,21.94,-11.99,3,1
18061.906,0.323,0.349,0.954,-17.49,16.3,-6.38,3,1
18061.906,0.34,0.331,0.908,-15.9,11.51,-2.72,3,1
18061.921,0.335,0.304,0.884,-12.82,11.96,0.85,3,1
18061.937,0.35,0.272,0.896,-7.51,14.74,5.4,3,1
18061.937,0.349,0.272,0.911,-0.98,18.28,8.27,3,1
18061.953,0.329,0.274,0.928,5.58,20.11,9.49,3,1
18061.968,0.329,0.279,0.94,10.22,19.68,11.17,3,1
18061.968,0.339,0.309,0.919,16.02,18.89,12.45,3,1
18061.984,0.336,0.332,0.885,23.13,19.17,14.8,3,1
18062.0,0.336,0.368,0.868,28.29,21.91,19.41,3,1
18062.0,0.343,0.383,0.852,30.37,23.56,23.22,3,1
18062.015,0.353,0.378,0.845,29.88,24.29,25.15,3,1
18062.031,0.336,0.375,0.843,27.07,23.96,25.24,3,1
18062.031,0.34,0.379,0.845,22.89,21.94,25.54,3,1
18062.046,0.35,0.391,0.839,18.86,20.33,26.06,3,1
18062.046,0.368,0.387,0.842,15.84,18.95,25.88,3,1
18062.062,0.364,0.37,0.831,11.35,16.75,23.22,3,1
18062.078,0.365,0.36,0.836,3.63,13.31,19.44,3,1
18062.078,0.366,0.342,0.855,-3.94,9.55,14.25,3,1
18062.093,0.375,0.325,0.87,-10.1,4.91,8.33,3,1
18062.109,0.363,0.307,0.873,-14.53,0.98,1.98,3,1
18062.109,0.358,0.3,0.89,-17.06,-1.8,-2.62,3,1
18062.125,0.349,0.301,0.895,-15.75,-3.66,-4.94,3,1
18062.14,0.356,0.305,0.894,-11.66,-2.75,-4.79,3,1
18062.14,0.361,0.312,0.878,-6.68,0.18,-3.94,3,1
18062.156,0.358,0.323,0.896,-1.53,3.91,-2.66,3,1
18062.156,0.355,0.306,0.894,2.53,4.36,-2.87,3,1
18062.171,0.356,0.311,0.882,3.57,3.54,-5.22,3,1
18062.187,0.345,0.315,0.89,4.3,2.75,-7.32,3,1
18062.187,0.337,0.311,0.882,5.07,0.37,-9.0,3,1
18062.203,0.342,0.341,0.884,5.65,-1.98,-9.74,3,1
18062.218,0.342,0.36,0.877,5.92,-3.11,-10.65,3,1
18062.218,0.329,0.352,0.861,5.77,-2.99,-11.23,3,1
18062.234,0.328,0.354,0.851,4.91,-2.08,-10.28,3,1
18062.25,0.331,0.369,0.847,3.11,0.92,-9.22,3,1
18062.25,0.307,0.339,0.871,1.98,4.0,-8.85,3,1
18062.265,0.293,0.33,0.903,3.02,4.09,-7.17,3,1
18062.281,0.301,0.341,0.899,3.78,2.29,-5.89,3,1
18062.281,0.298,0.363,0.904,2.9,0.27,-4.79,3,1
18062.296,0.294,0.353,0.895,2.38,-2.38,-4.18,3,1
18062.296,0.31,0.354,0.856,2.62,-5.13,-1.86,3,1
18062.312,0.331,0.384,0.85,1.53,-5.46,0.61,3,1
18062.328,0.335,0.395,0.842,-0.4,-4.36,2.78,3,1
18062.328,0.349,0.379,0.846,-2.69,-3.6,4.61,3,1
18062.343,0.358,0.361,0.855,-4.27,-3.17,4.33,3,1
18062.359,0.351,0.338,0.859,-4.64,-2.69,2.87,3,1
18062.359,0.346,0.328,0.866,-4.67,-2.47,2.01,3,1
18062.375,0.347,0.334,0.874,-5.13,-2.81,1.5,3,1
18062.39,0.349,0.34,0.874,-5.92,-3.54,0.12,3,1
18062.39,0.342,0.345,0.876,-6.59,-3.23,-1.28,3,1
18062.406,0.327,0.348,0.88,-6.9,-2.69,-0.58,3,1
18062.406,0.319,0.359,0.893,-7.51,-3.23,0.98,3,1
18062.421,0.32,0.36,0.922,-8.03,-4.88,2.69,3,1
18062.437,0.317,0.351,0.926,-7.51,-8.0,3.42,3,1
18062.437,0.326,0.342,0.888,-7.29,-11.47,3.88,3,1
18062.453,0.345,0.347,0.845,-9.31,-12.39,4.67,3,1
18062.468,0.377,0.358,0.815,-12.7,-12.15,4.33,3,1
18062.468,0.39,0.387,0.805,-18.4,-9.83,2.66,3,1
18062.484,0.396,0.38,0.798,-24.45,-5.16,1.83,3,1
18062.5,0.377,0.356,0.85,-28.87,0.95,1.74,3,1
18062.5,0.33,0.297,0.881,-27.53,3.27,2.96,3,1
18062.515,0.343,0.244,0.884,-24.11,3.63,4.18,3,1
18062.515,0.302,0.214,0.912,-15.84,7.69,3.02,3,1
18062.531,0.263,0.244,0.972,-6.04,8.0,2.2,3,1
18062.546,0.249,0.276,0.986,5.55,3.33,7.66,3,1
18062.546,0.26,0.309,0.999,13.52,-4.18,12.79,3,1
18062.562,0.296,0.378,0.986,13.82,-17.49,12.67,3,1
18062.578,0.299,0.408,0.907,10.83,-31.77,11.57,3,1
18062.578,0.354,0.405,0.695,-1.83,-40.59,11.72,3,1
18062.593,0.434,0.422,0.618,-25.7,-33.94,11.54,3,1
18062.609,0.484,0.371,0.639,-44.71,-16.21,11.54,3,1
18062.609,0.483,0.322,0.739,-53.1,1.46,12.09,3,1
18062.625,0.477,0.267,0.873,-52.22,11.66,11.11,3,1
18062.64,0.461,0.21,0.965,-45.53,15.14,7.57,3,1
18062.64,0.458,0.125,0.998,-34.21,15.2,1.28,3,1
18062.656,0.416,0.042,1.028,-17.06,17.15,-6.41,3,1
18062.671,0.36,-0.014,1.056,7.66,19.47,-11.05,3,1
18062.671,0.315,-0.005,1.027,33.05,20.78,-14.4,3,1
18062.687,0.286,0.086,0.982,54.69,20.63,-17.21,3,1
18062.687,0.27,0.256,0.939,68.36,17.3,-17.21,3,1
18062.703,0.26,0.41,0.894,72.82,9.46,-15.14,3,1
18062.718,0.261,0.527,0.881,66.44,0.55,-11.35,3,1
18062.734,0.276,0.529,0.83,53.16,-7.54,-5.46,3,1
18062.734,0.304,0.479,0.798,34.7,-12.12,-1.31,3,1
18062.734,0.285,0.405,0.822,22.28,-11.72,4.0,3,1
18062.75,0.289,0.36,0.849,14.56,-12.63,9.74,3,1
18062.765,0.298,0.37,0.918,9.22,-15.14,13.76,3,1
18062.781,0.266,0.386,0.87,9.46,-18.8,18.92,3,1
18062.781,0.319,0.34,0.915,2.78,-26.61,23.29,3,1
18062.796,0.36,0.291,0.914,-4.12,-36.32,18.49,3,1
18062.796,0.355,0.289,0.89,-6.99,-45.01,12.51,3,1
18062.812,0.409,0.289,0.811,-8.0,-49.38,9.64,3,1
18062.828,0.491,0.293,0.785,-10.1,-43.67,6.74,3,1
18062.828,0.509,0.273,0.782,4.18,-18.4,-0.52,3,1
18062.843,0.496,0.291,0.778,10.86,-8.64,-3.14,3,1
18062.859,0.502,0.333,0.793,12.63,-2.2,-7.2,3,1
18062.859,0.464,0.346,0.78,9.89,1.25,-11.14,3,1
18062.875,0.461,0.344,0.765,5.04,3.85,-15.02,3,1
18062.875,0.439,0.352,0.774,-1.89,6.29,-19.81,3,1
18062.89,0.434,0.345,0.792,-9.8,5.98,-23.93,3,1
18062.906,0.413,0.349,0.778,-18.31,5.01,-28.78,3,1
18062.906,0.406,0.352,0.773,-28.11,6.35,-31.98,3,1
18062.921,0.408,0.347,0.79,-34.49,11.23,-32.47,3,1
18062.937,0.402,0.349,0.805,-34.33,19.1,-30.49,3,1
18062.937,0.384,0.357,0.824,-32.26,27.04,-27.99,3,1
18062.953,0.359,0.342,0.852,-31.95,31.74,-26.25,3,1
18062.968,0.347,0.324,0.879,-32.84,33.05,-25.67,3,1
18062.968,0.341,0.313,0.899,-33.36,32.84,-25.67,3,1
18062.984,0.324,0.325,0.92,-32.75,31.8,-26.31,3,1
18063.0,0.308,0.313,0.939,-31.34,28.99,-25.48,3,1
18063.0,0.273,0.322,0.953,-28.75,26.09,-23.47,3,1
18063.015,0.176,0.367,1.093,-20.63,20.94,-16.21,3,1
18063.031,0.224,0.29,1.109,-8.15,4.58,-3.91,3,1
18063.031,0.284,0.268,1.0,-3.6,-10.13,-1.1,3,1
18063.046,0.294,0.22,0.923,2.11,-12.82,-2.2,3,1
18063.062,0.311,0.195,0.886,10.04,-9.83,-1.68,3,1
18063.062,0.313,0.244,0.884,16.08,-4.94,-0.67,3,1
18063.078,0.316,0.289,0.897,19.17,-1.77,0.52,3,1
18063.078,0.322,0.327,0.904,19.65,-1.37,1.56,3,1
18063.093,0.321,0.349,0.897,19.14,-2.35,2.38,3,1
18063.109,0.316,0.364,0.896,18.37,-4.18,3.72,3,1
18063.109,0.312,0.36,0.89,17.98,-5.92,5.92,3,1
18063.125,0.308,0.354,0.881,16.69,-7.32,8.61,3,1
18063.14,0.311,0.349,0.88,14.47,-8.36,11.35,3,1
18063.14,0.321,0.35,0.876,12.82,-9.31,13.98,3,1
18063.156,0.329,0.349,0.866,12.02,-9.89,15.87,3,1
18063.156,0.334,0.341,0.859,11.17,-9.67,17.0,3,1
18063.171,0.349,0.334,0.851,9.8,-8.97,18.16,3,1
18063.187,0.354,0.331,0.847,9.0,-7.45,18.59,3,1
18063.187,0.363,0.327,0.842,8.21,-6.01,18.1,3,1
18063.203,0.37,0.33,0.842,6.81,-3.88,16.94,3,1
18063.218,0.371,0.329,0.842,4.73,-1.86,15.69,3,1
18063.218,0.371,0.326,0.849,3.2,0.0,14.56,3,1
18063.234,0.369,0.323,0.854,2.53,1.59,13.76,3,1
18063.25,0.374,0.323,0.862,2.44,2.78,12.36,3,1
18063.25,0.361,0.318,0.866,1.71,3.63,9.98,3,1
18063.265,0.355,0.308,0.875,0.95,4.39,9.74,3,1
18063.281,0.358,0.31,0.89,2.59,5.22,10.65,3,1
18063.281,0.355,0.308,0.897,5.83,5.86,10.74,3,1
18063.296,0.35,0.301,0.901,8.06,5.65,10.71,3,1
18063.296,0.353,0.307,0.895,10.13,4.73,10.96,3,1
18063.312,0.363,0.312,0.889,11.9,3.17,10.13,3,1
18063.328,0.367,0.309,0.877,11.75,1.19,7.57,3,1
18063.328,0.372,0.322,0.865,10.44,-1.04,4.61,3,1
18063.343,0.364,0.332,0.849,8.94,-1.8,2.59,3,1
18063.359,0.371,0.345,0.842,7.29,-1.46,1.8,3,1
18063.359,0.376,0.354,0.841,6.56,-0.03,1.04,3,1
18063.375,0.365,0.356,0.842,5.34,0.79,-0.52,3,1
18063.39,0.355,0.35,0.839,4.43,1.25,-2.32,3,1
18063.39,0.339,0.365,0.857,1.95,1.65,-4.3,3,1
18063.406,0.33,0.382,0.881,-1.19,-1.37,-5.83,3,1
18063.421,0.315,0.385,0.895,-4.46,-6.29,-5.16,3,1
18063.421,0.299,0.358,0.934,-5.83,-10.5,-2.66,3,1
18063.437,0.297,0.307,0.98,-2.38,-15.35,0.31,3,1
18063.437,0.312,0.266,1.0,4.49,-21.55,3.14,3,1
18063.453,0.334,0.254,0.965,13.15,-26.92,3.6,3,1
18063.468,0.349,0.259,0.922,21.49,-28.32,3.75,3,1
18063.484,0.36,0.275,0.904,27.25,-27.99,2.78,3,1
18063.484,0.378,0.312,0.877,31.07,-28.53,1.65,3,1
18063.5,0.384,0.352,0.846,32.69,-27.56,1.74,3,1
18063.5,0.394,0.387,0.802,34.36,-24.29,4.49,3,1
18063.515,0.42,0.428,0.759,34.12,-19.29,8.45,3,1
18063.531,0.426,0.444,0.71,29.11,-13.76,10.22,3,1
18063.531,0.428,0.439,0.7,17.3,-9.34,9.31,3,1
18063.546,0.438,0.42,0.704,2.17,-6.59,7.39,3,1
18063.546,0.465,0.413,0.669,-11.57,-3.27,5.31,3,1
18063.562,0.486,0.411,0.624,-23.19,5.43,2.93,3,1
18063.578,0.472,0.42,0.639,-36.56,17.12,-0.67,3,1
18063.578,0.426,0.401,0.716,-50.97,26.25,-4.49,3,1
18063.593,0.346,0.518,0.879,-75.23,24.48,-7.6,3,1
18063.609,0.367,0.49,0.861,-92.44,12.6,-7.66,3,1
18063.609,0.369,0.378,0.795,-97.84,5.83,-5.83,3,1
18063.625,0.392,0.391,0.766,-109.56,4.58,-6.74,3,1
18063.64,0.317,0.378,0.835,-122.78,6.07,-10.04,3,1
18063.64,0.226,0.348,1.081,-125.58,1.31,-0.82,3,1
18063.656,0.378,0.272,1.079,-115.18,-13.98,12.51,3,1
18063.671,0.394,0.156,0.946,-104.16,-13.18,15.69,3,1
18063.671,0.383,-0.053,0.959,-88.72,-3.69,15.81,3,1
18063.687,0.35,-0.163,1.036,-65.37,2.81,14.62,3,1
18063.687,0.387,-0.123,1.012,-39.77,4.03,10.16,3,1
18063.703,0.375,-0.101,0.983,-18.77,6.32,2.75,3,1
18063.718,0.372,-0.057,1.002,0.09,7.48,-1.92,3,1
18063.718,0.379,0.054,0.977,19.26,7.05,-3.97,3,1
18063.734,0.38,0.141,0.947,33.88,6.99,-5.62,3,1
18063.75,0.381,0.189,0.926,43.12,6.29,-7.6,3,1
18063.75,0.372,0.24,0.898,48.77,4.09,-8.36,3,1
18063.765,0.36,0.278,0.885,52.22,1.16,-7.87,3,1
18063.781,0.343,0.286,0.89,54.6,-1.89,-6.81,3,1
18063.781,0.33,0.302,0.911,58.02,-6.62,-5.98,3,1
18063.796,0.316,0.327,0.926,62.23,-14.71,-4.7,3,1
18063.796,0.293,0.352,0.914,64.0,-23.74,-1.4,3,1
18063.812,0.363,0.384,0.771,36.96,-25.54,5.95,3,1
18063.828,0.39,0.36,0.782,16.39,-18.52,6.07,3,1
18063.828,0.322,0.292,0.796,-1.31,-22.61,5.89,3,1
18063.843,0.383,0.346,0.975,-6.47,-30.03,6.38,3,1
18063.859,0.361,0.354,0.946,-3.57,-34.67,9.89,3,1
18063.859,0.392,0.256,0.952,0.76,-39.52,13.25,3,1
18063.875,0.411,0.246,0.937,5.83,-45.72,12.48,3,1
18063.875,0.408,0.247,0.831,7.26,-50.17,8.42,3,1
18063.89,0.447,0.242,0.76,-0.85,-48.16,4.88,3,1
18063.906,0.492,0.219,0.754,-6.38,-38.54,2.69,3,1
18063.906,0.51,0.224,0.744,-4.09,-26.0,1.37,3,1
18063.921,0.516,0.239,0.756,-1.8,-14.59,-0.15,3,1
18063.937,0.516,0.25,0.789,-4.36,-6.29,-2.75,3,1
18063.937,0.516,0.296,0.776,-6.59,-0.09,-4.58,3,1
18063.953,0.529,0.325,0.778,-5.62,7.84,-2.11,3,1
18063.968,0.519,0.316,0.787,-3.54,16.48,0.18,3,1
18063.968,0.487,0.302,0.787,-3.36,23.32,0.18,3,1
18063.984,0.456,0.281,0.799,-5.71,27.77,0.12,3,1
18064.0,0.445,0.275,0.836,-9.31,29.97,0.37,3,1
18064.0,0.435,0.253,0.86,-11.29,31.31,0.52,3,1
18064.015,0.413,0.234,0.873,-10.77,31.95,-0.18,3,1
18064.015,0.393,0.236,0.891,-9.64,31.04,-2.04,3,1
18064.031,0.38,0.226,0.917,-9.8,29.08,-4.43,3,1
18064.046,0.369,0.206,0.925,-10.01,25.82,-6.84,3,1
18064.062,0.354,0.208,0.941,-9.98,21.94,-9.0,3,1
18064.062,0.305,0.225,1.028,-6.9,16.54,-9.77,3,1
18064.078,0.322,0.203,1.067,1.22,5.22,-7.78,3,1
18064.078,0.352,0.21,1.015,8.61,-5.58,-7.57,3,1
18064.093,0.357,0.214,0.955,16.14,-11.54,-8.58,3,1
18064.109,0.369,0.216,0.905,21.7,-14.13,-8.82,3,1
18064.109,0.378,0.245,0.885,23.65,-14.37,-7.57,3,1
18064.125,0.389,0.267,0.866,24.75,-13.79,-6.13,3,1
18064.14,0.407,0.293,0.847,24.93,-12.7,-4.36,3,1
18064.14,0.414,0.311,0.84,23.93,-12.12,-3.48,3,1
18064.156,0.411,0.316,0.842,21.39,-12.27,-2.96,3,1
18064.156,0.422,0.33,0.834,19.47,-12.57,-1.16,3,1
18064.171,0.433,0.332,0.82,17.58,-11.75,0.31,3,1
18064.187,0.433,0.327,0.819,13.58,-10.62,0.27,3,1
18064.187,0.434,0.308,0.808,9.43,-9.49,-0.27,3,1
18064.203,0.439,0.295,0.806,6.1,-7.08,-0.61,3,1
18064.218,0.434,0.29,0.814,4.12,-4.36,-1.5,3,1
18064.218,0.425,0.295,0.828,2.29,-2.01,-2.84,3,1
18064.234,0.417,0.298,0.843,0.27,-0.24,-3.66,3,1
18064.25,0.409,0.302,0.862,-0.37,1.31,-3.51,3,1
18064.25,0.394,0.299,0.873,0.34,2.01,-2.69,3,1
18064.265,0.395,0.291,0.875,1.25,1.28,-1.8,3,1
18064.265,0.396,0.289,0.875,1.98,0.06,-1.86,3,1
18064.281,0.396,0.296,0.877,2.87,-0.52,-1.83,3,1
18064.296,0.398,0.304,0.875,4.43,-1.07,-1.28,3,1
18064.296,0.402,0.302,0.867,5.83,-1.98,-0.98,3,1
18064.312,0.402,0.3,0.861,6.23,-2.93,-1.31,3,1
18064.328,0.405,0.311,0.858,5.62,-3.97,-1.74,3,1
18064.328,0.404,0.312,0.861,4.18,-5.19,-1.86,3,1
18064.343,0.397,0.317,0.879,2.56,-6.9,-1.56,3,1
18064.359,0.398,0.302,0.852,0.73,-9.74,-1.68,3,1
18064.375,0.416,0.306,0.849,-1.65,-10.9,-1.13,3,1
18064.375,0.416,0.299,0.84,-1.83,-9.74,-0.67,3,1
18064.39,0.424,0.294,0.834,-1.59,-7.97,0.55,3,1
18064.39,0.434,0.291,0.834,-1.65,-5.43,1.1,3,1
18064.406,0.433,0.29,0.847,-1.65,-2.69,1.13,3,1
18064.421,0.422,0.297,0.862,-0.64,-0.89,1.65,3,1
18064.421,0.422,0.302,0.866,0.95,-0.7,2.5,3,1
18064.437,0.43,0.292,0.862,2.26,-0.95,2.59,3,1
18064.437,0.428,0.288,0.86,3.27,-1.07,1.43,3,1
18064.453,0.421,0.299,0.863,4.97,-0.89,0.92,3,1
18064.468,0.414,0.302,0.862,7.66,-0.58,1.8,3,1
18064.468,0.411,0.301,0.86,9.98,0.06,3.51,3,1
18064.484,0.41,0.316,0.884,11.6,0.06,4.82,3,1
18064.5,0.399,0.317,0.858,14.59,-0.31,6.5,3,1
18064.5,0.417,0.318,0.849,15.05,-0.7,8.79,3,1
18064.515,0.417,0.317,0.84,15.44,-0.24,9.4,3,1
18064.515,0.415,0.317,0.834,15.14,0.92,9.89,3,1
18064.531,0.416,0.33,0.84,15.17,2.9,12.42,3,1
18064.546,0.424,0.332,0.847,16.3,4.64,15.26,3,1
18064.562,0.426,0.313,0.842,16.51,5.07,15.17,3,1
18064.562,0.419,0.304,0.834,13.86,4.3,13.0,3,1
18064.578,0.424,0.297,0.827,10.41,2.81,10.59,3,1
18064.578,0.427,0.3,0.817,8.03,2.56,8.45,3,1
18064.593,0.432,0.312,0.822,6.2,4.0,7.81,3,1
18064.609,0.432,0.322,0.838,5.77,5.28,7.57,3,1
18064.625,0.43,0.329,0.845,5.83,5.68,7.23,3,1
18064.625,0.435,0.323,0.843,6.01,4.94,6.23,3,1
18064.625,0.427,0.316,0.836,5.52,4.27,4.58,3,1
18064.64,0.424,0.317,0.841,4.39,3.94,3.63,3,1
18064.656,0.432,0.318,0.846,4.43,3.97,2.9,3,1
18064.656,0.425,0.313,0.844,4.39,3.54,1.8,3,1
18064.671,0.425,0.316,0.838,2.41,1.83,-0.4,3,1
18064.687,0.414,0.316,0.844,-0.61,-0.12,-2.44,3,1
18064.703,0.424,0.328,0.84,-2.66,-2.2,-3.3,3,1
18064.703,0.416,0.333,0.828,-5.07,-2.87,-4.03,3,1
18064.718,0.415,0.334,0.836,-7.78,-2.62,-3.72,3,1
18064.718,0.405,0.33,0.851,-8.88,-1.83,-2.08,3,1
18064.734,0.406,0.314,0.862,-8.45,-0.89,0.27,3,1
18064.75,0.408,0.295,0.869,-8.27,-0.89,1.13,3,1
18064.765,0.407,0.282,0.866,-7.78,-1.37,0.21,3,1
18064.765,0.406,0.291,0.871,-5.43,-0.73,0.18,3,1
18064.765,0.409,0.303,0.868,-1.01,0.46,1.77,3,1
18064.781,0.421,0.31,0.862,2.69,1.74,2.41,3,1
18064.796,0.416,0.317,0.853,5.95,3.51,2.59,3,1
18064.796,0.415,0.322,0.839,7.6,4.82,4.18,3,1
18064.812,0.411,0.334,0.838,9.0,5.46,5.52,3,1
18064.828,0.417,0.339,0.834,8.67,5.68,5.62,3,1
18064.828,0.403,0.338,0.839,6.29,4.64,5.04,3,1
18064.843,0.4,0.337,0.843,3.45,2.9,4.7,3,1
18064.859,0.403,0.332,0.842,1.92,2.14,5.58,3,1
18064.859,0.414,0.323,0.847,1.95,2.72,6.53,3,1
18064.875,0.415,0.317,0.855,3.02,3.48,6.68,3,1
18064.89,0.408,0.301,0.853,2.44,2.62,5.22,3,1
18064.89,0.403,0.297,0.858,-0.21,0.64,3.11,3,1
18064.906,0.407,0.295,0.858,-2.41,-1.74,1.77,3,1
18064.921,0.419,0.307,0.853,-3.63,-3.08,0.98,3,1
18064.921,0.426,0.316,0.848,-4.24,-3.36,0.06,3,1
18064.937,0.423,0.312,0.843,-4.97,-3.94,-1.01,3,1
18064.937,0.424,0.314,0.849,-5.46,-3.66,-0.89,3,1
18064.953,0.426,0.319,0.856,-4.49,-2.69,0.64,3,1
18064.968,0.421,0.302,0.862,-2.72,-1.74,1.62,3,1
18064.968,0.412,0.296,0.867,-0.61,-0.85,2.59,3,1
18064.984,0.415,0.316,0.871,2.59,0.49,4.94,3,1
18065.0,0.416,0.312,0.865,6.2,1.59,6.93,3,1
18065.0,0.416,0.305,0.855,7.97,1.86,7.08,3,1
18065.015,0.411,0.334,0.86,11.47,2.2,7.32,3,1
18065.015,0.414,0.347,0.843,15.11,3.42,9.34,3,1
18065.031,0.394,0.332,0.853,14.37,3.51,9.37,3,1
18065.046,0.392,0.343,0.869,15.93,4.27,12.45,3,1
18065.062,0.392,0.346,0.866,19.44,4.24,15.26,3,1
18065.062,0.397,0.325,0.86,22.83,4.67,17.24,3,1
18065.078,0.398,0.313,0.854,24.23,4.91,17.3,3,1
18065.078,0.4,0.304,0.846,24.66,4.76,16.91,3,1
18065.093,0.41,0.319,0.847,25.18,5.25,16.82,3,1
18065.109,0.429,0.32,0.846,26.58,5.8,16.72,3,1
18065.109,0.434,0.308,0.832,27.59,6.32,14.83,3,1
18065.125,0.432,0.309,0.826,26.31,6.26,11.99,3,1
18065.14,0.43,0.315,0.823,23.53,5.58,9.06,3,1
18065.14,0.429,0.323,0.817,19.62,4.55,7.05,3,1
18065.156,0.433,0.345,0.804,14.59,3.02,5.16,3,1
18065.156,0.432,0.374,0.811,6.9,0.03,2.53,3,1
18065.171,0.399,0.409,0.84,0.61,-4.49,0.55,3,1
18065.187,0.362,0.421,0.837,-4.09,-11.9,2.35,3,1
18065.187,0.38,0.402,0.87,-13.09,-22.92,4.21,3,1
18065.203,0.408,0.375,0.84,-20.36,-32.38,4.36,3,1
18065.218,0.405,0.335,0.791,-24.84,-33.42,5.4,3,1
18065.218,0.444,0.298,0.796,-25.61,-30.09,7.23,3,1
18065.234,0.486,0.285,0.796,-22.83,-24.32,6.23,3,1
18065.25,0.508,0.284,0.787,-19.99,-16.05,2.26,3,1
18065.25,0.496,0.283,0.778,-17.61,-6.87,-2.47,3,1
18065.265,0.496,0.284,0.773,-14.1,1.46,-5.04,3,1
18065.265,0.494,0.303,0.777,-9.98,10.74,-5.31,3,1
18065.281,0.484,0.306,0.795,-6.16,19.56,-5.28,3,1
18065.296,0.463,0.303,0.813,-4.09,25.36,-6.59,3,1
18065.296,0.436,0.313,0.834,-4.33,27.41,-8.06,3,1
18065.312,0.42,0.316,0.853,-6.59,25.3,-9.28,3,1
18065.328,0.426,0.317,0.867,-8.7,21.67,-10.1,3,1
18065.328,0.42,0.311,0.866,-8.39,19.32,-10.38,3,1
18065.343,0.414,0.311,0.87,-8.94,17.03,-11.35,3,1
18065.359,0.387,0.312,0.9,-9.67,13.64,-12.57,3,1
18065.375,0.392,0.311,0.927,-8.51,7.81,-11.99,3,1
18065.375,0.399,0.3,0.916,-6.44,2.14,-12.51,3,1
18065.39,0.404,0.284,0.888,-4.03,-0.98,-13.89,3,1
18065.39,0.403,0.287,0.864,-1.8,-1.77,-14.92,3,1
18065.406,0.406,0.286,0.849,0.79,-0.24,-15.2,3,1
18065.421,0.408,0.298,0.84,2.41,2.04,-15.72,3,1
18065.421,0.399,0.315,0.84,2.5,3.42,-17.4,3,1
18065.437,0.395,0.333,0.838,0.64,3.05,-19.53,3,1
18065.437,0.391,0.344,0.839,-1.22,2.53,-20.75,3,1
18065.453,0.384,0.35,0.841,-2.11,2.69,-20.69,3,1
18065.468,0.369,0.353,0.832,-3.3,3.02,-19.38,3,1
18065.468,0.383,0.342,0.829,-6.99,3.94,-17.24,3,1
18065.484,0.367,0.344,0.863,-8.15,5.4,-15.47,3,1
18065.5,0.371,0.352,0.875,-3.94,6.62,-10.65,3,1
18065.5,0.379,0.363,0.877,-0.61,7.14,-7.08,3,1
18065.515,0.378,0.338,0.869,-0.31,6.32,-5.92,3,1
18065.531,0.375,0.321,0.834,-2.81,4.33,-5.95,3,1
18065.531,0.4,0.33,0.818,-6.56,4.61,-5.22,3,1
18065.546,0.417,0.341,0.805,-9.89,8.03,-4.73,3,1
18065.562,0.423,0.339,0.792,-12.51,12.76,-4.39,3,1
18065.562,0.435,0.323,0.775,-15.69,17.61,-4.82,3,1
18065.578,0.455,0.308,0.759,-20.63,24.02,-7.29,3,1
18065.578,0.451,0.298,0.775,-23.5,33.11,-10.65,3,1
18065.593,0.416,0.295,0.805,-23.16,42.45,-13.15,3,1
18065.609,0.395,0.294,0.855,-23.32,48.19,-15.32,3,1
18065.609,0.371,0.296,0.888,-20.36,51.61,-16.36,3,1
18065.625,0.346,0.283,0.911,-15.05,53.9,-16.24,3,1
18065.64,0.338,0.26,0.927,-7.72,56.4,-15.72,3,1
18065.64,0.315,0.262,0.932,1.28,59.39,-14.5,3,1
18065.656,0.289,0.275,0.946,10.56,61.59,-12.21,3,1
18065.656,0.242,0.305,0.972,16.27,59.42,-11.84,3,1
18065.671,0.177,0.375,1.016,17.76,51.0,-10.47,3,1
18065.687,0.13,0.423,1.027,16.75,36.62,-4.55,3,1
18065.687,0.142,0.421,1.019,12.48,19.26,2.62,3,1
18065.703,0.133,0.419,1.035,8.06,2.38,7.29,3,1
18065.718,0.099,0.413,1.096,5.28,-17.3,11.66,3,1
18065.718,0.087,0.405,1.13,4.82,-41.44,18.65,3,1
18065.734,0.13,0.357,1.067,4.73,-64.42,27.13,3,1
18065.75,0.178,0.31,0.988,2.66,-81.09,31.4,3,1
18065.75,0.215,0.289,0.958,2.84,-90.37,33.33,3,1
18065.765,0.261,0.286,0.917,7.97,-92.59,37.39,3,1
18065.781,0.316,0.277,0.86,12.76,-91.1,41.96,3,1
18065.781,0.393,0.278,0.828,14.25,-82.09,40.22,3,1
18065.796,0.461,0.267,0.803,15.84,-73.03,34.36,3,1
18065.796,0.519,0.257,0.748,19.29,-59.14,27.44,3,1
18065.812,0.548,0.28,0.671,19.04,-44.62,22.25,3,1
18065.828,0.6,0.287,0.65,14.28,-31.01,16.33,3,1
18065.828,0.618,0.252,0.6,9.25,-14.31,7.48,3,1
18065.843,0.627,0.23,0.568,5.83,6.41,-0.15,3,1
18065.859,0.629,0.253,0.566,3.08,30.18,-7.02,3,1
18065.875,0.537,0.304,0.754,-2.08,50.51,-14.62,3,1
18065.875,0.301,0.375,1.111,-3.02,46.57,-18.16,3,1
18065.89,0.417,0.346,1.034,6.04,25.09,-11.6,3,1
18065.89,0.407,0.322,0.923,10.04,18.89,-10.96,3,1
18065.906,0.358,0.244,0.872,17.24,18.92,-13.79,3,1
18065.921,0.356,0.234,0.84,21.39,18.8,-13.4,3,1
18065.921,0.344,0.295,0.826,22.37,20.48,-13.43,3,1
18065.937,0.341,0.357,0.833,19.5,21.61,-14.01,3,1
18065.937,0.349,0.391,0.842,14.86,21.33,-14.31,3,1
18065.953,0.336,0.412,0.847,11.14,21.12,-13.06,3,1
18065.968,0.328,0.418,0.849,6.47,18.43,-11.47,3,1
18065.968,0.331,0.409,0.854,2.2,14.56,-10.1,3,1
18065.984,0.329,0.394,0.848,-1.56,12.36,-8.39,3,1
18066.0,0.326,0.377,0.845,-4.43,11.17,-5.77,3,1
18066.0,0.34,0.37,0.857,-6.32,10.83,-2.99,3,1
18066.015,0.342,0.364,0.881,-6.53,10.5,-1.59,3,1
18066.015,0.338,0.344,0.884,-5.22,8.97,-1.31,3,1
18066.031,0.35,0.337,0.871,-3.75,7.54,-0.98,3,1
18066.046,0.364,0.351,0.864,-2.93,7.81,-0.27,3,1
18066.046,0.375,0.344,0.857,-1.65,8.91,-0.12,3,1
18066.062,0.378,0.321,0.853,0.06,9.67,-1.19,3,1
18066.078,0.376,0.329,0.864,1.56,9.89,-2.44,3,1
18066.078,0.376,0.346,0.86,1.68,9.06,-4.24,3,1
18066.093,0.369,0.352,0.851,-0.06,8.36,-5.98,3,1
18066.109,0.365,0.351,0.836,-1.43,9.06,-6.99,3,1
18066.109,0.358,0.349,0.847,-1.5,11.44,-6.44,3,1
18066.125,0.334,0.363,0.887,-1.95,12.42,-5.89,3,1
18066.14,0.316,0.367,0.901,-2.04,11.23,-4.33,3,1
18066.14,0.315,0.35,0.89,-1.62,10.47,-2.01,3,1
18066.156,0.321,0.323,0.872,0.03,10.74,-0.67,3,1
18066.156,0.329,0.317,0.864,1.68,12.6,0.12,3,1
18066.171,0.347,0.314,0.871,4.24,15.9,0.31,3,1
18066.187,0.351,0.32,0.854,7.05,19.1,-1.37,3,1
18066.203,0.359,0.333,0.844,8.3,21.79,-3.69,3,1
18066.203,0.356,0.349,0.832,8.24,24.32,-5.62,3,1
18066.218,0.345,0.377,0.844,6.13,25.82,-7.14,3,1
18066.218,0.317,0.398,0.855,2.26,24.87,-8.51,3,1
18066.234,0.31,0.392,0.848,-2.32,22.95,-7.97,3,1
18066.25,0.308,0.389,0.865,-6.04,22.74,-6.93,3,1
18066.25,0.281,0.381,0.903,-6.38,22.52,-5.62,3,1
18066.265,0.264,0.37,0.928,-4.49,20.91,-3.05,3,1
18066.265,0.254,0.362,0.963,-1.98,17.15,-0.7,3,1
18066.281,0.223,0.353,1.004,1.53,9.89,0.7,3,1
18066.296,0.229,0.328,0.955,5.01,0.12,1.92,3,1
18066.296,0.279,0.319,0.881,4.97,-4.76,1.8,3,1
18066.312,0.285,0.321,0.856,5.8,-2.35,1.31,3,1
18066.328,0.281,0.342,0.85,6.78,1.04,2.11,3,1
18066.328,0.297,0.364,0.848,5.58,2.75,2.75,3,1
18066.343,0.307,0.385,0.849,2.08,3.69,1.46,3,1
18066.359,0.302,0.397,0.856,-1.31,5.13,0.43,3,1
18066.359,0.302,0.383,0.866,-3.78,5.22,0.03,3,1
18066.375,0.293,0.374,0.86,-7.32,3.75,-0.67,3,1
18066.39,0.294,0.388,0.869,-12.63,2.04,-0.52,3,1
18066.39,0.292,0.409,0.901,-17.94,0.24,0.15,3,1
18066.406,0.292,0.411,0.93,-20.91,-4.27,0.73,3,1
18066.406,0.311,0.405,0.947,-22.43,-10.04,0.43,3,1
18066.421,0.327,0.395,0.941,-22.0,-14.65,-1.16,3,1
18066.437,0.353,0.352,0.944,-18.95,-17.18,-3.42,3,1
18066.453,0.299,0.323,0.959,-11.75,-16.85,-5.58,3,1
18066.453,0.317,0.268,0.909,-1.04,-14.44,-2.87,3,1
18066.468,0.316,0.24,0.861,9.83,-6.96,-1.22,3,1
18066.468,0.274,0.218,0.851,20.84,2.32,-0.27,3,1
18066.484,0.251,0.218,0.871,29.21,8.36,1.22,3,1
18066.5,0.227,0.23,0.896,33.2,9.89,1.01,3,1
18066.5,0.188,0.261,0.91,33.75,9.37,0.92,3,1
18066.515,0.209,0.282,0.888,32.35,6.1,3.14,3,1
18066.515,0.291,0.333,0.904,29.33,0.0,3.27,3,1
18066.531,0.29,0.421,0.959,31.89,-5.16,2.41,3,1
18066.546,0.284,0.482,0.916,38.54,-11.41,6.26,3,1
18066.562,0.321,0.506,0.836,35.4,-16.36,7.87,3,1
18066.562,0.302,0.48,0.774,23.26,-16.54,6.38,3,1
18066.578,0.328,0.418,0.765,10.41,-13.92,6.44,3,1
18066.593,0.311,0.369,0.777,3.85,-10.5,6.23,3,1
18066.593,0.316,0.358,0.783,-1.62,-9.22,7.05,3,1
18066.609,0.36,0.373,0.781,-9.92,-8.21,5.43,3,1
18066.609,0.398,0.369,0.791,-16.14,-4.52,1.59,3,1
18066.625,0.412,0.372,0.801,-19.41,0.95,-4.15,3,1
18066.625,0.394,0.384,0.817,-19.75,7.45,-9.34,3,1
18066.64,0.375,0.396,0.842,-18.92,13.21,-12.02,3,1
18066.656,0.348,0.409,0.835,-17.27,18.71,-12.7,3,1
18066.671,0.319,0.393,0.844,-15.78,24.57,-12.24,3,1
18066.671,0.301,0.359,0.87,-15.02,27.25,-12.33,3,1
18066.687,0.28,0.349,0.886,-17.46,26.49,-14.07,3,1
18066.687,0.259,0.346,0.9,-21.52,23.68,-16.17,3,1
18066.703,0.224,0.357,0.933,-24.48,19.5,-16.94,3,1
18066.718,0.166,0.392,1.041,-22.22,12.91,-13.28,3,1
18066.718,0.193,0.38,1.056,-15.38,0.27,-5.43,3,1
18066.734,0.222,0.335,0.99,-11.41,-10.99,-2.5,3,1
18066.75,0.246,0.3,0.947,-5.55,-14.62,-0.18,3,1
18066.75,0.26,0.306,0.929,2.01,-14.98,2.75,3,1
18066.765,0.262,0.334,0.925,9.61,-19.62,4.46,3,1
18066.765,0.26,0.368,0.93,10.99,-23.59,5.62,3,1
18066.781,0.269,0.387,0.923,11.81,-27.07,6.2,3,1
18066.796,0.274,0.384,0.898,11.17,-28.99,6.71,3,1
18066.812,0.288,0.373,0.853,9.55,-29.79,7.57,3,1
18066.812,0.301,0.365,0.838,6.81,-29.36,7.78,3,1
18066.828,0.314,0.367,0.832,3.05,-27.83,7.29,3,1
18066.828,0.325,0.372,0.83,0.09,-25.57,6.99,3,1
18066.843,0.335,0.374,0.829,-2.14,-23.19,6.96,3,1
18066.859,0.352,0.377,0.821,-4.24,-19.9,6.71,3,1
18066.859,0.362,0.366,0.816,-6.07,-15.63,6.29,3,1
18066.875,0.369,0.354,0.821,-8.21,-11.47,5.46,3,1
18066.89,0.371,0.348,0.823,-10.19,-8.21,3.94,3,1
18066.89,0.37,0.349,0.837,-11.81,-5.34,2.5,3,1
18066.906,0.362,0.354,0.854,-12.27,-3.14,1.31,3,1
18066.921,0.345,0.357,0.873,-12.73,-2.08,0.79,3,1
18066.921,0.342,0.341,0.882,-12.73,-2.01,1.1,3,1
18066.937,0.338,0.321,0.887,-11.44,-1.74,0.89,3,1
18066.937,0.327,0.316,0.891,-9.31,-1.19,0.67,3,1
18066.953,0.326,0.318,0.899,-6.99,-0.95,1.01,3,1
18066.968,0.327,0.313,0.905,-4.67,-1.01,0.95,3,1
18066.968,0.329,0.313,0.905,-2.44,-1.01,0.79,3,1
18066.984,0.331,0.315,0.9,0.61,-1.22,0.15,3,1
18066.984,0.327,0.322,0.887,2.9,-1.5,-0.31,3,1
18067.0,0.328,0.34,0.882,4.0,-1.68,-0.43,3,1
18067.015,0.329,0.351,0.877,4.73,-1.83,-0.43,3,1
18067.031,0.329,0.35,0.867,4.7,-2.11,-0.55,3,1
18067.031,0.326,0.358,0.865,4.43,-1.68,-0.03,3,1
18067.046,0.325,0.366,0.866,3.6,-1.19,1.43,3,1
18067.046,0.331,0.357,0.868,2.5,-1.34,2.47,3,1
18067.062,0.334,0.347,0.868,1.04,-2.14,2.2,3,1
18067.078,0.339,0.345,0.863,0.09,-2.72,1.68,3,1
18067.078,0.346,0.344,0.861,-0.03,-2.56,1.68,3,1
18067.093,0.349,0.345,0.858,0.21,-1.77,1.28,3,1
18067.109,0.345,0.347,0.858,-0.21,-0.82,0.46,3,1
18067.109,0.339,0.344,0.865,-1.01,0.12,0.06,3,1
18067.125,0.338,0.34,0.875,-1.4,0.64,0.03,3,1
18067.14,0.334,0.338,0.877,-1.34,0.52,-0.49,3,1
18067.14,0.329,0.329,0.879,-1.07,0.21,-0.95,3,1
18067.156,0.33,0.331,0.884,-0.24,0.43,-1.16,3,1
18067.156,0.331,0.342,0.885,0.61,0.76,-1.16,3,1
18067.171,0.326,0.343,0.875,0.95,0.49,-1.13,3,1
18067.187,0.326,0.345,0.868,0.58,-0.12,-0.55,3,1
18067.187,0.33,0.35,0.871,-0.24,-0.7,-0.21,3,1
18067.203,0.329,0.356,0.873,-0.79,-0.95,0.0,3,1
18067.218,0.333,0.352,0.877,-1.22,-1.25,0.34,3,1
18067.218,0.321,0.337,0.875,-0.95,-1.31,0.58,3,1
18067.234,0.305,0.259,0.847,4.27,-1.01,-3.11,3,1
18067.25,0.321,0.367,0.954,2.75,1.22,-2.87,3,1
18067.25,0.308,0.474,1.005,-5.01,1.46,3.36,3,1
18067.265,0.358,0.314,0.884,-2.11,-5.95,5.16,3,1
18067.265,0.349,0.186,0.756,7.29,-8.15,2.81,3,1
18067.281,0.394,0.222,0.769,18.62,-5.04,1.53,3,1
18067.296,0.372,0.501,0.934,12.24,4.88,4.21,3,1
18067.296,0.381,0.454,0.879,9.03,6.16,2.26,3,1
18067.312,0.34,0.313,0.815,13.09,6.47,0.06,3,1
18067.328,0.334,0.306,0.858,17.85,6.38,0.46,3,1
18067.328,0.326,0.366,0.888,18.28,5.68,0.24,3,1
18067.343,0.32,0.413,0.898,11.2,4.82,0.73,3,1
18067.359,0.32,0.339,0.835,7.48,2.32,-2.23,3,1
18067.359,0.31,0.334,0.829,6.44,1.62,-3.81,3,1
18067.375,0.312,0.392,0.845,3.14,1.4,-3.14,3,1
18067.39,0.317,0.404,0.85,-2.44,1.8,-3.57,3,1
18067.39,0.296,0.393,0.844,-8.36,3.42,-3.2,3,1
18067.406,0.31,0.364,0.847,-12.05,3.08,-1.89,3,1
18067.421,0.315,0.369,0.885,-15.17,3.3,0.0,3,1
18067.421,0.321,0.344,0.902,-16.6,2.14,0.64,3,1
18067.437,0.343,0.322,0.939,-16.75,-0.7,-0.55,3,1
18067.437,0.361,0.35,0.993,-13.76,-4.85,-3.08,3,1
18067.453,0.377,0.375,1.011,-8.33,-12.15,-7.08,3,1
18067.468,0.369,0.372,0.908,-6.32,-19.59,-12.7,3,1
18067.484,0.377,0.346,0.825,-7.05,-19.5,-16.72,3,1
18067.484,0.335,0.304,0.8,-4.27,-12.39,-13.67,3,1
18067.5,0.339,0.309,0.805,-1.86,-7.29,-11.08,3,1
18067.5,0.31,0.333,0.835,0.18,-3.51,-9.55,3,1
18067.515,0.31,0.307,0.846,4.46,-1.25,-6.59,3,1
18067.531,0.293,0.279,0.869,10.13,1.43,-5.04,3,1
18067.531,0.271,0.277,0.894,16.57,2.93,-4.27,3,1
18067.546,0.277,0.299,0.889,21.85,3.45,-3.2,3,1
18067.546,0.303,0.319,0.885,25.42,3.85,-2.35,3,1
18067.562,0.316,0.34,0.88,30.24,5.19,-2.87,3,1
18067.578,0.307,0.377,0.873,35.34,5.8,-2.93,3,1
18067.578,0.303,0.434,0.894,35.71,4.39,-0.89,3,1
18067.593,0.301,0.471,0.837,31.83,0.4,1.4,3,1
18067.609,0.325,0.479,0.775,22.1,-1.31,3.54,3,1
18067.609,0.304,0.467,0.76,11.75,-0.49,5.58,3,1
18067.625,0.322,0.477,0.758,0.67,-1.28,8.33,3,1
18067.64,0.326,0.491,0.765,-12.21,-2.44,9.37,3,1
18067.64,0.328,0.467,0.799,-24.51,-3.39,10.41,3,1
18067.656,0.331,0.412,0.83,-33.23,-5.31,11.17,3,1
18067.656,0.349,0.355,0.829,-39.61,-7.87,9.98,3,1
18067.671,0.371,0.31,0.908,-42.27,-10.53,6.78,3,1
18067.687,0.374,0.3,0.889,-37.02,-10.22,3.78,3,1
18067.703,0.392,0.285,0.891,-32.32,-7.2,1.22,3,1
18067.703,0.392,0.263,0.915,-26.18,-4.09,-3.33,3,1
18067.718,0.374,0.287,0.903,-18.65,0.52,-6.01,3,1
18067.718,0.37,0.3,0.878,-10.04,6.53,-6.23,3,1
18067.734,0.355,0.3,0.873,-4.36,11.75,-7.54,3,1
18067.75,0.343,0.301,0.878,-3.81,14.07,-13.31,3,1
18067.75,0.335,0.305,0.872,-4.88,13.98,-15.72,3,1
18067.765,0.333,0.317,0.869,-5.71,13.58,-17.0,3,1
18067.765,0.322,0.345,0.878,-6.2,12.12,-17.49,3,1
18067.781,0.288,0.392,0.9,-6.62,9.95,-16.72,3,1
18067.796,0.252,0.419,0.965,-5.46,5.83,-13.06,3,1
18067.812,0.273,0.393,0.963,-3.66,-3.45,-8.33,3,1
18067.812,0.279,0.352,0.923,-4.49,-11.26,-7.08,3,1
18067.828,0.299,0.319,0.909,-3.69,-15.2,-6.26,3,1
18067.828,0.306,0.307,0.912,-2.23,-17.43,-6.5,3,1
18067.843,0.301,0.322,0.907,-1.1,-19.14,-7.35,3,1
18067.859,0.312,0.331,0.905,0.95,-21.61,-7.84,3,1
18067.875,0.307,0.338,0.901,1.1,-24.2,-9.31,3,1
18067.875,0.305,0.344,0.889,-0.58,-26.86,-10.16,3,1
18067.89,0.313,0.341,0.886,-2.62,-29.05,-10.28,3,1
18067.89,0.317,0.34,0.879,-4.09,-30.43,-10.19,3,1
18067.906,0.314,0.344,0.858,-4.46,-30.27,-8.73,3,1
18067.921,0.327,0.339,0.845,-2.44,-28.05,-5.13,3,1
18067.921,0.345,0.36,0.846,0.09,-23.04,-0.58,3,1
18067.937,0.357,0.367,0.847,3.14,-17.52,2.23,3,1
18067.937,0.347,0.346,0.846,4.55,-14.01,2.17,3,1
18067.953,0.35,0.342,0.855,3.91,-12.82,1.86,3,1
18067.968,0.355,0.354,0.86,2.35,-12.05,1.89,3,1
18067.984,0.359,0.353,0.86,0.34,-11.78,2.01,3,1
18067.984,0.36,0.357,0.859,-1.92,-11.87,2.59,3,1
18067.984,0.363,0.347,0.854,-2.08,-12.33,3.78,3,1
18068.0,0.364,0.34,0.853,-1.16,-12.97,5.16,3,1
18068.015,0.377,0.349,0.853,-0.24,-13.31,6.07,3,1
18068.031,0.381,0.37,0.854,-0.4,-12.15,6.38,3,1
18068.031,0.375,0.369,0.848,0.15,-11.51,5.65,3,1
18068.046,0.375,0.373,0.839,1.22,-10.19,6.29,3,1
18068.046,0.374,0.379,0.847,1.1,-9.52,7.66,3,1
18068.062,0.358,0.37,0.846,0.15,-10.01,8.58,3,1
18068.078,0.367,0.35,0.87,-2.2,-10.65,10.07,3,1
18068.093,0.395,0.303,0.886,-3.63,-11.96,9.7,3,1
18068.093,0.407,0.258,0.874,-2.56,-11.41,7.39,3,1
18068.109,0.406,0.234,0.876,0.76,-8.24,4.61,3,1
18068.109,0.406,0.229,0.889,6.23,-4.64,1.62,3,1
18068.125,0.411,0.233,0.909,12.63,-1.19,-1.37,3,1
18068.14,0.418,0.247,0.926,19.81,0.31,-5.25,3,1
18068.14,0.421,0.264,0.928,27.19,-0.12,-10.19,3,1
18068.156,0.416,0.281,0.929,34.7,-1.74,-14.92,3,1
18068.171,0.417,0.289,0.927,42.94,-3.63,-18.31,3,1
18068.171,0.422,0.303,0.917,51.48,-4.91,-21.15,3,1
18068.187,0.431,0.313,0.905,60.27,-5.71,-23.5,3,1
18068.187,0.441,0.322,0.895,68.18,-5.52,-26.06,3,1
18068.203,0.446,0.33,0.888,75.26,-4.03,-29.24,3,1
18068.218,0.447,0.342,0.882,82.09,-1.07,-32.59,3,1
18068.218,0.44,0.369,0.874,88.56,2.9,-35.43,3,1
18068.234,0.427,0.388,0.874,92.75,6.5,-37.39,3,1
18068.25,0.419,0.401,0.871,93.33,7.57,-41.81,3,1
18068.25,0.417,0.414,0.852,91.4,6.16,-48.37,3,1
18068.265,0.433,0.45,0.829,84.72,3.3,-52.64,3,1
18068.281,0.469,0.522,0.803,73.06,-1.92,-44.95,3,1
18068.281,0.421,0.574,0.817,54.41,-8.27,-31.8,3,1
18068.296,0.415,0.599,0.806,33.94,-16.66,-38.51,3,1
18068.296,0.493,0.56,0.773,10.86,-26.34,-40.86,3,1
18068.312,0.504,0.561,0.758,-15.96,-31.31,-41.63,3,1
18068.328,0.493,0.533,0.746,-38.79,-33.6,-48.71,3,1
18068.343,0.495,0.493,0.706,-56.49,-34.97,-55.85,3,1
18068.343,0.47,0.443,0.689,-74.92,-33.08,-59.76,3,1
18068.359,0.469,0.378,0.683,-81.94,-28.69,-68.06,3,1
18068.359,0.469,0.343,0.674,-81.24,-23.26,-72.94,3,1
18068.375,0.446,0.355,0.677,-77.82,-16.91,-75.29,3,1
18068.39,0.431,0.406,0.676,-70.41,-8.0,-76.45,3,1
18068.39,0.351,0.412,0.677,-66.53,0.82,-75.53,3,1
18068.406,0.331,0.388,0.694,-69.73,6.13,-71.11,3,1
18068.421,0.318,0.41,0.707,-71.9,12.57,-71.9,3,1
18068.421,0.288,0.415,0.704,-72.73,19.04,-74.31,3,1
18068.437,0.279,0.411,0.716,-73.55,25.79,-78.8,3,1
18068.437,0.249,0.412,0.72,-74.8,33.39,-84.54,3,1
18068.453,0.18,0.413,0.734,-76.33,42.21,-88.6,3,1
18068.468,0.162,0.458,0.767,-75.69,49.5,-89.79,3,1
18068.468,0.096,0.471,0.806,-73.4,54.51,-86.46,3,1
18068.484,0.011,0.418,0.842,-71.14,53.53,-74.31,3,1
18068.5,0.037,0.361,0.899,-62.93,47.43,-58.87,3,1
18068.5,0.038,0.36,0.911,-46.85,41.44,-52.34,3,1
18068.515,0.013,0.329,0.902,-30.46,35.0,-46.27,3,1
18068.515,0.032,0.34,0.904,-14.34,30.92,-41.23,3,1
18068.531,0.005,0.333,0.904,1.95,30.24,-42.42,3,1
18068.546,-0.021,0.33,0.936,11.57,24.75,-43.46,3,1
18068.546,-0.005,0.434,0.966,21.3,19.17,-45.29,3,1
18068.562,-0.073,0.423,0.957,32.47,13.12,-43.0,3,1
18068.578,-0.054,0.433,0.965,40.65,4.82,-36.41,3,1
18068.593,-0.052,0.479,0.963,49.07,-1.95,-33.63,3,1
18068.593,-0.052,0.489,0.953,55.42,-10.28,-31.56,3,1
18068.609,-0.026,0.493,0.945,57.13,-17.67,-30.03,3,1
18068.609,-0.01,0.504,0.943,54.69,-23.99,-29.3,3,1
18068.625,0.005,0.496,0.934,51.3,-31.22,-27.71,3,1
18068.64,0.045,0.501,0.918,48.01,-38.12,-25.21,3,1
18068.64,0.061,0.506,0.903,44.04,-41.72,-24.75,3,1
18068.656,0.076,0.509,0.899,36.9,-45.72,-24.96,3,1
18068.671,0.105,0.523,0.89,30.09,-48.59,-26.46,3,1
18068.671,0.124,0.534,0.886,23.96,-49.93,-27.44,3,1
18068.687,0.13,0.543,0.886,17.98,-50.45,-27.56,3,1
18068.687,0.154,0.545,0.874,13.64,-51.61,-26.4,3,1
18068.703,0.159,0.538,0.867,12.48,-51.48,-25.73,3,1
18068.718,0.159,0.547,0.879,13.09,-51.61,-25.73,3,1
18068.718,0.17,0.556,0.878,14.59,-53.53,-26.37,3,1
18068.734,0.167,0.567,0.855,16.51,-57.59,-26.09,3,1
18068.75,0.175,0.572,0.822,14.71,-58.81,-23.74,3,1
18068.75,0.18,0.548,0.788,12.7,-57.47,-22.68,3,1
18068.765,0.218,0.522,0.731,11.54,-54.87,-21.15,3,1
18068.781,0.242,0.517,0.706,10.68,-49.81,-20.91,3,1
18068.781,0.262,0.517,0.7,10.56,-42.85,-21.76,3,1
18068.796,0.261,0.531,0.693,10.74,-34.3,-23.35,3,1
18068.796,0.274,0.533,0.692,11.54,-26.18,-22.31,3,1
18068.812,0.271,0.554,0.677,13.73,-17.09,-19.01,3,1
18068.828,0.296,0.583,0.67,15.78,-8.18,-14.16,3,1
18068.828,0.292,0.603,0.663,16.08,0.4,-13.21,3,1
18068.843,0.302,0.618,0.673,11.84,6.47,-13.49,3,1
18068.859,0.3,0.64,0.685,4.85,10.13,-14.8,3,1
18068.859,0.276,0.646,0.697,-3.6,11.69,-14.01,3,1
18068.875,0.275,0.66,0.718,-12.79,11.93,-10.19,3,1
18068.89,0.267,0.672,0.739,-19.93,11.72,-5.04,3,1
18068.89,0.258,0.647,0.762,-25.18,11.32,0.06,3,1
18068.906,0.256,0.622,0.794,-30.37,10.41,1.89,3,1
18068.921,0.245,0.615,0.827,-35.04,8.15,0.55,3,1
18068.921,0.221,0.584,0.847,-39.31,3.91,-1.13,3,1
18068.937,0.207,0.544,0.861,-42.79,-1.31,-1.98,3,1
18068.937,0.205,0.526,0.868,-44.34,-7.14,-2.2,3,1
18068.953,0.213,0.519,0.869,-44.71,-11.75,-2.01,3,1
18068.968,0.219,0.5,0.865,-45.26,-14.16,-2.38,3,1
18068.984,0.221,0.47,0.863,-45.53,-15.56,-3.3,3,1
18068.984,0.234,0.459,0.861,-43.95,-16.45,-4.85,3,1
18069.0,0.236,0.445,0.848,-40.93,-16.27,-6.16,3,1
18069.0,0.24,0.445,0.844,-37.51,-14.83,-5.86,3,1
18069.015,0.244,0.442,0.832,-32.96,-12.27,-3.33,3,1
18069.031,0.252,0.436,0.83,-28.9,-9.22,-1.13,3,1
18069.031,0.26,0.435,0.826,-25.67,-4.94,-1.53,3,1
18069.046,0.259,0.432,0.8,-25.33,-0.37,-4.39,3,1
18069.046,0.257,0.435,0.773,-30.76,5.16,-8.3,3,1
18069.062,0.255,0.421,0.737,-41.44,11.75,-12.42,3,1
18069.078,0.268,0.405,0.725,-55.21,19.99,-17.7,3,1
18069.078,0.166,0.426,0.85,-64.67,29.6,-24.75,3,1
18069.093,0.172,0.397,0.961,-62.11,30.12,-23.96,3,1
18069.109,0.06,0.502,1.137,-59.82,20.81,-26.46,3,1
18069.125,0.028,0.482,1.197,-50.63,-0.61,-18.01,3,1
18069.125,0.148,0.453,1.026,-50.69,-24.9,-11.05,3,1
18069.14,0.177,0.439,0.923,-53.77,-30.18,-6.1,3,1
18069.14,0.203,0.333,0.851,-43.4,-26.49,0.64,3,1
18069.156,0.225,0.259,0.816,-27.71,-19.65,4.21,3,1
18069.156,0.207,0.232,0.799,-10.93,-11.57,5.89,3,1
18069.171,0.208,0.253,0.822,3.85,-5.89,7.87,3,1
18069.187,0.214,0.321,0.864,15.38,-5.19,8.3,3,1
18069.187,0.215,0.375,0.906,22.22,-4.82,10.07,3,1
18069.203,0.215,0.405,0.947,22.1,-4.49,10.99,3,1
18069.218,0.192,0.432,0.976,16.75,-6.01,11.51,3,1
18069.218,0.196,0.426,0.985,9.74,-9.92,14.89,3,1
18069.234,0.162,0.421,1.039,5.07,-15.38,19.1,3,1
18069.25,0.232,0.316,0.939,7.32,-24.11,23.87,3,1
18069.25,0.246,0.35,0.859,10.59,-24.99,21.97,3,1
18069.265,0.241,0.361,0.937,33.23,-18.13,30.64,3,1
18069.265,0.294,0.303,0.876,51.48,-20.94,33.11,3,1
18069.281,0.291,0.372,0.855,56.06,-18.46,25.97,3,1
18069.296,0.322,0.378,0.831,58.23,-14.34,22.16,3,1
18069.296,0.33,0.378,0.808,54.63,-10.68,14.31,3,1
18069.312,0.318,0.397,0.785,47.24,-6.07,7.14,3,1
18069.328,0.311,0.405,0.767,39.34,-1.95,2.08,3,1
18069.328,0.301,0.419,0.771,30.67,1.89,-1.07,3,1
18069.343,0.287,0.441,0.785,21.91,4.79,-2.81,3,1
18069.359,0.281,0.447,0.799,13.76,6.78,-3.54,3,1
18069.359,0.279,0.452,0.811,8.67,8.88,-4.82,3,1
18069.375,0.265,0.455,0.824,6.29,11.23,-5.89,3,1
18069.39,0.251,0.461,0.837,5.34,13.06,-6.29,3,1
18069.39,0.246,0.469,0.85,5.83,14.34,-5.65,3,1
18069.406,0.235,0.475,0.851,6.65,15.38,-4.36,3,1
18069.421,0.221,0.468,0.852,7.51,15.78,-2.72,3,1
18069.421,0.219,0.469,0.857,8.21,15.96,-0.89,3,1
18069.437,0.213,0.475,0.866,9.25,15.53,0.52,3,1
18069.437,0.206,0.471,0.869,10.01,14.44,1.65,3,1
18069.453,0.207,0.475,0.874,9.58,12.54,2.11,3,1
18069.468,0.204,0.474,0.885,9.31,10.22,2.26,3,1
18069.468,0.208,0.476,0.887,8.97,7.45,2.29,3,1
18069.484,0.206,0.473,0.881,7.75,4.7,1.77,3,1
18069.5,0.209,0.464,0.877,5.98,1.53,1.4,3,1
18069.5,0.223,0.461,0.869,4.55,-1.19,1.22,3,1
18069.515,0.227,0.452,0.853,4.18,-3.27,0.95,3,1
18069.531,0.241,0.451,0.84,4.09,-3.78,0.7,3,1
18069.531,0.246,0.443,0.83,4.46,-3.02,-0.06,3,1
18069.546,0.247,0.437,0.83,5.71,-0.95,-0.89,3,1
18069.546,0.242,0.445,0.83,7.02,0.95,-1.46,3,1
18069.562,0.24,0.456,0.831,7.6,2.14,-1.86,3,1
18069.578,0.239,0.478,0.836,6.35,2.72,-2.53,3,1
18069.578,0.232,0.484,0.836,4.12,2.66,-2.81,3,1
18069.593,0.231,0.481,0.842,1.86,2.41,-2.78,3,1
18069.609,0.227,0.487,0.845,-0.18,1.95,-2.75,3,1
18069.625,0.227,0.496,0.843,-1.59,1.01,-2.17,3,1
18069.625,0.232,0.499,0.836,-2.62,0.34,-1.04,3,1
18069.64,0.237,0.491,0.832,-3.39,0.37,0.09,3,1
18069.64,0.24,0.482,0.827,-3.91,1.07,1.1,3,1
18069.656,0.24,0.474,0.824,-4.0,2.26,1.89,3,1
18069.656,0.243,0.467,0.825,-3.57,3.63,2.38,3,1
18069.671,0.243,0.463,0.825,-3.23,5.19,2.81,3,1
18069.687,0.236,0.453,0.827,-2.84,6.74,2.81,3,1
18069.703,0.234,0.454,0.837,-2.56,8.36,2.32,3,1
18069.703,0.226,0.458,0.845,-2.56,9.61,1.53,3,1
18069.718,0.22,0.46,0.85,-3.42,10.62,0.52,3,1
18069.718,0.218,0.468,0.853,-4.3,9.89,0.55,3,1
18069.734,0.194,0.455,0.859,-5.4,8.09,0.73,3,1
18069.75,0.204,0.46,0.872,-5.62,6.2,0.58,3,1
18069.75,0.202,0.463,0.878,-5.65,4.46,0.89,3,1
18069.765,0.208,0.455,0.878,-5.49,2.99,1.68,3,1
18069.781,0.208,0.445,0.873,-3.97,2.04,2.14,3,1
18069.781,0.21,0.441,0.873,-2.29,1.56,2.2,3,1
18069.796,0.213,0.437,0.873,-0.52,1.25,1.86,3,1
18069.812,0.219,0.439,0.863,1.19,1.28,1.4,3,1
18069.812,0.216,0.437,0.851,2.62,1.74,0.7,3,1
18069.828,0.219,0.433,0.844,3.66,2.2,0.09,3,1
18069.843,0.221,0.446,0.845,4.24,3.42,-0.76,3,1
18069.843,0.218,0.454,0.841,4.46,4.09,-1.53,3,1
18069.859,0.219,0.462,0.837,4.06,4.64,-1.74,3,1
18069.859,0.218,0.467,0.838,3.08,5.25,-2.11,3,1
18069.875,0.212,0.467,0.842,2.04,5.58,-2.23,3,1
18069.89,0.212,0.477,0.847,0.89,5.65,-2.26,3,1
18069.89,0.209,0.484,0.854,0.09,5.1,-2.38,3,1
18069.906,0.206,0.486,0.86,-1.86,4.24,-1.86,3,1
18069.921,0.207,0.484,0.862,-4.0,2.99,-1.53,3,1
18069.921,0.208,0.475,0.858,-5.34,1.77,-1.13,3,1
18069.937,0.21,0.464,0.853,-5.71,1.4,-0.73,3,1
18069.937,0.208,0.456,0.851,-5.43,1.65,-0.31,3,1
18069.953,0.206,0.451,0.85,-4.97,2.29,0.0,3,1
18069.968,0.206,0.449,0.855,-4.61,2.96,0.06,3,1
18069.968,0.204,0.448,0.859,-4.73,3.08,-0.31,3,1
18069.984,0.2,0.453,0.869,-5.25,2.9,-0.85,3,1
18070.0,0.196,0.453,0.872,-5.65,2.56,-1.37,3,1
18070.0,0.195,0.448,0.875,-5.68,1.74,-1.83,3,1
18070.015,0.192,0.447,0.874,-5.31,0.76,-2.23,3,1
18070.031,0.193,0.452,0.876,-4.73,-0.52,-2.44,3,1
18070.031,0.196,0.453,0.871,-4.46,-1.65,-2.69,3,1
18070.046,0.198,0.448,0.872,-4.58,-2.78,-2.93,3,1
18070.046,0.2,0.442,0.873,-4.27,-3.66,-3.51,3,1
18070.062,0.201,0.438,0.866,-3.2,-4.52,-4.39,3,1
18070.078,0.206,0.437,0.86,-3.05,-4.61,-5.34,3,1
18070.078,0.209,0.431,0.86,-3.39,-4.46,-6.99,3,1
18070.093,0.212,0.428,0.863,-2.78,-4.43,-8.7,3,1
18070.109,0.215,0.425,0.858,-2.23,-4.21,-10.44,3,1
18070.109,0.212,0.424,0.853,-2.47,-3.45,-12.27,3,1
18070.125,0.215,0.426,0.86,-2.81,-2.38,-13.49,3,1
18070.14,0.214,0.429,0.862,-2.47,-1.77,-14.65,3,1
18070.14,0.214,0.432,0.858,-2.59,-1.31,-15.59,3,1
18070.156,0.217,0.429,0.851,-2.69,-0.27,-16.88,3,1
18070.156,0.22,0.424,0.848,-3.05,1.22,-18.52,3,1
18070.171,0.21,0.433,0.854,-2.72,2.96,-20.45,3,1
18070.187,0.196,0.444,0.851,-1.56,4.21,-21.06,3,1
18070.203,0.182,0.452,0.864,-1.31,5.22,-20.08,3,1
18070.203,0.182,0.455,0.871,-1.37,5.46,-19.26,3,1
18070.218,0.182,0.466,0.867,-1.65,5.46,-19.32,3,1
18070.218,0.173,0.463,0.86,-2.2,5.71,-19.23,3,1
18070.234,0.169,0.454,0.855,-2.2,6.29,-18.74,3,1
18070.25,0.168,0.453,0.851,-1.83,6.81,-18.4,3,1
18070.25,0.167,0.454,0.848,-2.11,7.63,-18.68,3,1
18070.265,0.168,0.457,0.853,-3.3,8.03,-20.02,3,1
18070.281,0.164,0.459,0.854,-5.13,8.36,-20.91,3,1
18070.281,0.157,0.456,0.855,-7.48,8.55,-21.79,3,1
18070.296,0.142,0.441,0.861,-8.82,7.97,-22.28,3,1
18070.312,0.152,0.448,0.878,-8.73,6.96,-22.46,3,1
18070.312,0.137,0.46,0.894,-8.42,5.55,-23.65,3,1
18070.328,0.119,0.479,0.917,-8.85,3.69,-23.62,3,1
18070.328,0.11,0.487,0.93,-6.2,0.82,-19.84,3,1
18070.343,0.131,0.475,0.91,-1.13,-1.86,-13.92,3,1
18070.359,0.134,0.486,0.887,1.59,-2.2,-10.38,3,1
18070.375,0.144,0.477,0.864,2.23,-2.23,-7.32,3,1
18070.375,0.151,0.451,0.841,2.44,-1.5,-4.91,3,1
18070.39,0.153,0.446,0.831,1.04,0.06,-3.02,3,1
18070.39,0.155,0.442,0.835,-0.67,1.98,-1.62,3,1
18070.406,0.156,0.447,0.856,-1.74,4.06,-1.43,3,1
18070.406,0.147,0.449,0.875,-2.14,5.16,-1.8,3,1
18070.421,0.141,0.451,0.891,-1.28,5.31,-1.62,3,1
18070.437,0.135,0.454,0.897,0.18,4.94,-0.89,3,1
18070.453,0.131,0.455,0.894,2.14,4.0,-0.06,3,1
