timestamp,ax,ay,az,gx,gy,gz,orient_label,motion_label
18237.921,0.05,-0.95,0.4,6.59,6.59,0.98,3,1
18237.937,0.033,-0.953,0.419,6.53,6.96,0.92,3,1
18237.937,0.02,-0.959,0.428,6.68,6.41,1.04,3,1
18237.953,0.026,-0.959,0.426,8.06,5.04,0.4,3,1
18237.953,0.033,-0.938,0.425,10.04,3.54,-1.16,3,1
18237.968,0.042,-0.912,0.431,10.28,2.2,-2.59,3,1
18237.984,0.052,-0.902,0.44,7.81,0.82,-3.3,3,1
18237.984,0.051,-0.897,0.449,3.23,-2.14,-3.17,3,1
18238.0,0.042,-0.903,0.454,3.94,-3.39,-3.11,3,1
18238.015,0.027,-0.91,0.445,4.7,-4.3,-2.81,3,1
18238.015,0.02,-0.923,0.416,3.45,-4.88,-2.99,3,1
18238.031,0.021,-0.931,0.411,1.43,-4.49,-3.97,3,1
18238.031,0.013,-0.931,0.417,0.7,-3.23,-5.16,3,1
18238.046,0.016,-0.919,0.43,1.83,-2.29,-5.62,3,1
18238.062,0.017,-0.898,0.439,2.96,-2.08,-5.46,3,1
18238.062,-0.001,-0.891,0.439,3.08,-2.26,-4.73,3,1
18238.078,0.0,-0.899,0.43,1.59,-3.69,-3.17,3,1
18238.093,0.027,-0.918,0.408,1.13,-4.18,-2.11,3,1
18238.109,0.03,-0.918,0.407,2.01,-2.62,-1.62,3,1
18238.125,0.032,-0.913,0.411,1.8,-1.19,-0.49,3,1
18238.125,0.035,-0.917,0.423,0.79,-0.52,0.4,3,1
18238.14,0.026,-0.931,0.431,1.25,-0.27,0.61,3,1
18238.156,0.008,-0.94,0.428,2.38,-0.52,0.34,3,1
18238.156,0.008,-0.946,0.433,2.41,-1.59,-0.31,3,1
18238.171,0.017,-0.959,0.442,3.08,-3.27,-2.11,3,1
18238.171,0.026,-0.963,0.451,5.16,-5.13,-4.88,3,1
18238.187,0.032,-0.969,0.469,8.0,-7.2,-8.42,3,1
18238.203,0.037,-0.977,0.495,11.47,-10.25,-12.54,3,1
18238.218,0.044,-0.973,0.521,15.08,-14.62,-17.43,3,1
18238.218,0.066,-0.964,0.557,19.07,-20.91,-24.08,3,1
18238.234,0.091,-0.942,0.603,25.51,-29.15,-32.44,3,1
18238.234,0.108,-0.899,0.65,34.42,-39.28,-41.47,3,1
18238.25,0.118,-0.841,0.697,44.5,-51.94,-50.75,3,1
18238.265,0.073,-0.758,0.727,64.76,-81.39,-67.26,3,1
18238.281,0.055,-0.715,0.707,73.34,-95.61,-74.37,3,1
18238.296,0.042,-0.658,0.693,81.45,-107.64,-81.24,3,1
18238.296,0.035,-0.606,0.696,88.32,-117.5,-86.55,3,1
18238.312,0.028,-0.545,0.691,92.1,-125.86,-90.58,3,1
18238.312,0.031,-0.477,0.682,92.93,-132.88,-93.2,3,1
18238.328,0.031,-0.43,0.663,93.08,-138.19,-96.04,3,1
18238.343,0.048,-0.403,0.621,94.73,-140.69,-98.61,3,1
18238.343,0.084,-0.383,0.576,98.09,-138.28,-101.17,3,1
18238.359,0.136,-0.388,0.537,102.97,-129.86,-104.04,3,1
18238.375,0.164,-0.381,0.521,107.06,-115.48,-107.67,3,1
18238.375,0.188,-0.389,0.52,111.48,-97.29,-111.51,3,1
18238.39,0.186,-0.409,0.508,115.73,-78.34,-114.93,3,1
18238.406,0.181,-0.428,0.486,118.84,-60.0,-118.47,3,1
18238.406,0.168,-0.419,0.48,121.16,-42.88,-121.95,3,1
18238.421,0.174,-0.421,0.49,125.58,-29.48,-123.6,3,1
18238.421,0.214,-0.441,0.492,130.8,-18.59,-123.23,3,1
18238.437,0.265,-0.453,0.496,133.73,-7.75,-121.52,3,1
18238.453,0.326,-0.464,0.508,133.7,3.2,-116.95,3,1
18238.453,0.384,-0.486,0.51,130.01,14.44,-109.62,3,1
18238.468,0.425,-0.507,0.497,121.19,24.99,-102.57,3,1
18238.484,0.512,-0.515,0.47,108.31,33.57,-97.72,3,1
18238.484,0.515,-0.564,0.45,93.26,41.29,-97.29,3,1
18238.5,0.562,-0.641,0.457,75.93,49.2,-96.9,3,1
18238.515,0.636,-0.668,0.489,61.1,55.27,-103.58,3,1
18238.515,0.683,-0.734,0.52,53.87,65.65,-114.57,3,1
18238.531,0.724,-0.783,0.548,52.03,77.3,-128.73,3,1
18238.546,0.722,-0.813,0.581,56.55,87.5,-147.89,3,1
18238.546,0.708,-0.845,0.61,68.7,95.55,-167.82,3,1
18238.562,0.716,-0.848,0.658,88.66,101.57,-185.61,3,1
18238.562,0.718,-0.801,0.728,115.82,108.46,-200.66,3,1
18238.578,0.703,-0.749,0.797,146.76,113.41,-212.26,3,1
18238.593,0.657,-0.601,0.981,199.99,110.05,-218.15,3,1
18238.609,0.625,-0.506,1.052,218.63,99.12,-216.16,3,1
18238.625,0.597,-0.407,1.073,229.07,81.0,-211.68,3,1
18238.625,0.612,-0.273,1.061,230.78,58.69,-205.57,3,1
18238.64,0.646,-0.132,1.03,223.33,38.67,-197.24,3,1
18238.64,0.682,0.003,0.98,206.46,26.89,-188.7,3,1
18238.656,0.691,0.112,0.957,179.78,25.09,-182.01,3,1
18238.671,0.686,0.199,0.993,147.34,30.18,-177.01,3,1
18238.671,0.652,0.244,1.033,120.3,37.42,-172.67,3,1
18238.687,0.581,0.25,1.035,104.34,42.21,-166.88,3,1
18238.703,0.533,0.248,1.024,96.59,40.77,-159.73,3,1
18238.703,0.488,0.255,1.005,96.68,35.95,-154.67,3,1
18238.718,0.461,0.27,0.968,103.61,27.83,-150.36,3,1
18238.734,0.456,0.324,0.939,115.82,19.47,-144.93,3,1
18238.734,0.462,0.393,0.907,129.92,14.01,-134.92,3,1
18238.75,0.452,0.454,0.883,138.98,13.21,-120.85,3,1
18238.765,0.434,0.507,0.882,136.11,14.89,-102.33,3,1
18238.765,0.43,0.527,0.898,120.09,16.02,-83.86,3,1
18238.781,0.409,0.524,0.93,92.75,14.53,-71.6,3,1
18238.781,0.385,0.514,0.966,60.82,9.22,-65.77,3,1
18238.796,0.38,0.513,0.973,31.28,0.03,-64.85,3,1
18238.812,0.383,0.511,0.954,8.09,-11.84,-64.88,3,1
18238.812,0.369,0.506,0.914,-5.16,-20.33,-63.33,3,1
18238.828,0.356,0.49,0.858,-8.7,-24.17,-59.14,3,1
18238.843,0.332,0.479,0.822,-6.29,-23.62,-52.71,3,1
18238.859,0.292,0.485,0.801,-0.21,-19.14,-46.57,3,1
18238.859,0.263,0.498,0.778,7.48,-12.51,-40.38,3,1
18238.875,0.241,0.491,0.758,16.17,-4.79,-33.48,3,1
18238.875,0.22,0.459,0.756,21.49,2.96,-27.19,3,1
18238.89,0.202,0.447,0.781,20.72,8.79,-24.69,3,1
18238.906,0.204,0.46,0.793,17.85,11.38,-26.43,3,1
18238.906,0.218,0.483,0.784,10.68,11.93,-29.27,3,1
18238.921,0.228,0.507,0.783,-2.99,11.57,-29.45,3,1
18238.921,0.245,0.519,0.808,-18.04,10.22,-26.61,3,1
18238.937,0.261,0.518,0.839,-29.85,9.25,-21.61,3,1
18238.953,0.276,0.496,0.856,-35.98,8.51,-16.36,3,1
18238.953,0.301,0.478,0.869,-37.63,7.66,-12.42,3,1
18238.968,0.327,0.459,0.866,-27.8,10.5,-10.41,3,1
18238.984,0.321,0.412,0.866,-23.1,9.7,-10.38,3,1
18239.0,0.325,0.402,0.876,-19.35,7.72,-11.08,3,1
18239.0,0.341,0.416,0.878,-17.91,6.04,-11.51,3,1
18239.015,0.335,0.402,0.879,-19.1,3.88,-11.17,3,1
18239.015,0.34,0.386,0.89,-20.81,1.83,-10.9,3,1
18239.031,0.334,0.357,0.872,-20.02,0.09,-11.99,3,1
18239.031,0.339,0.334,0.857,-17.49,-1.22,-14.5,3,1
18239.046,0.385,0.365,0.865,-17.33,5.01,-17.58,3,1
18239.062,0.357,0.357,0.847,-14.74,12.91,-23.41,3,1
18239.078,0.323,0.344,0.845,-5.98,18.46,-24.96,3,1
18239.078,0.271,0.358,0.859,1.65,20.42,-22.68,3,1
18239.093,0.23,0.502,0.974,1.98,18.28,-16.02,3,1
18239.109,0.257,0.469,0.906,5.1,15.05,-14.25,3,1
18239.125,0.169,0.382,0.885,13.46,15.2,-12.6,3,1
18239.125,0.127,0.536,0.955,1.28,5.49,-7.63,3,1
18239.14,0.199,0.488,0.925,2.59,-3.02,-1.46,3,1
18239.14,0.189,0.451,0.856,3.69,-6.56,-0.49,3,1
18239.156,0.223,0.44,0.803,0.46,-7.54,1.68,3,1
18239.171,0.237,0.404,0.782,-1.28,-5.25,3.33,3,1
18239.171,0.232,0.431,0.823,-4.09,-2.26,2.23,3,1
18239.187,0.229,0.439,0.865,-4.46,-0.82,2.84,3,1
18239.203,0.221,0.446,0.903,-4.46,-1.71,4.85,3,1
18239.203,0.224,0.427,0.928,-0.82,-4.85,8.36,3,1
18239.218,0.245,0.411,0.931,4.61,-8.18,12.05,3,1
18239.234,0.259,0.397,0.917,9.49,-10.59,13.7,3,1
18239.234,0.268,0.391,0.898,11.11,-12.94,14.53,3,1
18239.25,0.268,0.385,0.902,10.04,-15.29,14.95,3,1
18239.265,0.242,0.414,0.907,4.76,-21.24,14.25,3,1
18239.265,0.347,0.344,0.844,4.52,-24.35,12.76,3,1
18239.281,0.306,0.285,0.793,12.97,-20.66,7.97,3,1
18239.281,0.304,0.398,0.827,6.62,-17.94,5.83,3,1
18239.296,0.304,0.423,0.846,5.95,-16.82,6.87,3,1
18239.312,0.293,0.405,0.838,5.28,-16.24,9.03,3,1
18239.312,0.31,0.411,0.841,-0.67,-17.0,6.35,3,1
18239.328,0.307,0.438,0.843,-4.39,-17.09,3.05,3,1
18239.343,0.306,0.45,0.847,-6.1,-16.02,1.04,3,1
18239.343,0.309,0.432,0.842,-5.58,-14.59,-0.52,3,1
18239.359,0.3,0.416,0.832,-3.94,-11.87,-1.07,3,1
18239.375,0.292,0.419,0.83,-1.5,-8.97,-0.24,3,1
18239.375,0.294,0.407,0.837,-0.12,-7.11,-0.06,3,1
18239.39,0.292,0.405,0.845,-0.95,-7.11,-1.53,3,1
18239.39,0.294,0.414,0.849,-3.91,-8.15,-2.93,3,1
18239.406,0.302,0.416,0.849,-8.61,-9.64,-3.72,3,1
18239.421,0.311,0.406,0.849,-12.54,-10.28,-4.21,3,1
18239.437,0.322,0.404,0.843,-14.34,-9.43,-4.09,3,1
18239.437,0.335,0.402,0.839,-13.76,-7.72,-3.51,3,1
18239.453,0.344,0.378,0.823,-10.1,-4.61,-4.3,3,1
18239.453,0.368,0.37,0.83,-4.85,0.27,-5.95,3,1
18239.468,0.372,0.377,0.835,-1.53,8.48,-8.42,3,1
18239.484,0.362,0.357,0.812,1.01,15.66,-11.35,3,1
18239.484,0.36,0.317,0.764,5.77,22.19,-13.95,3,1
18239.5,0.358,0.311,0.743,9.4,30.64,-16.94,3,1
18239.5,0.351,0.331,0.754,8.45,41.63,-20.69,3,1
18239.515,0.235,0.397,0.865,-0.46,46.21,-24.96,3,1
18239.531,0.189,0.566,0.96,-19.53,35.19,-24.66,3,1
18239.531,0.222,0.409,0.953,-13.98,27.62,-20.42,3,1
18239.546,0.07,0.582,1.018,-22.06,13.09,-20.42,3,1
18239.562,0.185,0.607,1.016,-24.05,0.43,-9.28,3,1
18239.562,0.153,0.463,0.918,-6.29,-7.08,-2.93,3,1
18239.578,0.19,0.467,0.872,-0.82,-9.31,7.14,3,1
18239.593,0.231,0.458,0.853,1.34,-9.28,14.07,3,1
18239.593,0.239,0.387,0.862,2.11,-8.21,16.97,3,1
18239.609,0.244,0.369,0.892,1.04,-9.89,17.91,3,1
18239.625,0.251,0.374,0.925,0.58,-13.92,17.98,3,1
18239.625,0.258,0.361,0.947,1.01,-18.71,17.49,3,1
18239.64,0.225,0.37,0.983,0.92,-24.96,16.66,3,1
18239.656,0.309,0.396,0.933,1.25,-33.11,15.84,3,1
18239.656,0.316,0.244,0.84,17.85,-31.4,14.16,3,1
18239.671,0.276,0.367,0.865,17.37,-30.85,11.32,3,1
18239.687,0.321,0.434,0.872,15.5,-31.86,13.89,3,1
18239.687,0.318,0.385,0.823,14.98,-31.5,11.84,3,1
18239.703,0.317,0.371,0.797,9.28,-30.18,8.27,3,1
18239.703,0.324,0.41,0.799,2.72,-28.17,5.95,3,1
18239.718,0.339,0.412,0.791,-0.64,-25.85,3.91,3,1
18239.734,0.35,0.403,0.777,-3.14,-21.58,2.01,3,1
18239.734,0.355,0.412,0.779,-4.49,-15.69,1.01,3,1
18239.75,0.352,0.421,0.79,-4.0,-10.19,0.76,3,1
18239.765,0.357,0.422,0.794,-3.36,-5.37,1.74,3,1
18239.765,0.357,0.422,0.798,-3.39,-0.52,2.78,3,1
18239.781,0.351,0.416,0.81,-3.97,3.63,3.63,3,1
18239.781,0.345,0.41,0.828,-4.82,6.04,4.03,3,1
18239.796,0.337,0.398,0.841,-5.89,7.11,4.27,3,1
18239.812,0.332,0.389,0.852,-7.72,7.17,3.23,3,1
18239.812,0.327,0.387,0.871,-9.31,6.38,1.19,3,1
18239.828,0.316,0.385,0.882,-10.01,4.82,-1.13,3,1
18239.843,0.308,0.377,0.888,-10.53,2.84,-2.81,3,1
18239.843,0.304,0.374,0.887,-9.09,1.53,-3.63,3,1
18239.859,0.307,0.376,0.882,-5.89,0.61,-3.78,3,1
18239.875,0.315,0.379,0.874,-3.14,0.24,-3.75,3,1
18239.875,0.327,0.381,0.866,-0.58,1.19,-3.51,3,1
18239.89,0.333,0.367,0.855,2.59,2.9,-3.75,3,1
18239.89,0.347,0.364,0.851,4.73,5.77,-4.85,3,1
18239.906,0.343,0.359,0.834,8.0,9.25,-6.87,3,1
18239.921,0.349,0.346,0.804,9.77,12.76,-9.03,3,1
18239.921,0.341,0.358,0.787,9.16,17.49,-11.57,3,1
18239.937,0.329,0.376,0.788,8.06,21.91,-13.37,3,1
18239.953,0.328,0.388,0.796,4.3,24.48,-15.72,3,1
18239.953,0.323,0.4,0.797,-7.05,29.85,-20.39,3,1
18239.968,0.323,0.402,0.793,-12.24,34.3,-23.01,3,1
18239.984,0.327,0.4,0.806,-15.96,37.72,-25.09,3,1
18239.984,0.21,0.521,0.979,-24.63,32.81,-24.93,3,1
18240.0,0.26,0.521,0.955,-25.94,24.35,-20.72,3,1
18240.015,0.133,0.42,0.974,-17.7,18.83,-17.49,3,1
18240.015,0.129,0.591,1.054,-26.73,6.16,-11.84,3,1
18240.031,0.197,0.425,0.955,-14.04,-5.92,-2.29,3,1
18240.031,0.197,0.341,0.869,-8.0,-10.22,0.67,3,1
18240.046,0.244,0.36,0.858,-5.68,-9.25,3.94,3,1
18240.062,0.253,0.339,0.889,-1.31,-8.03,5.46,3,1
18240.062,0.245,0.341,0.928,0.76,-8.48,6.32,3,1
18240.078,0.238,0.359,0.965,3.39,-10.93,7.84,3,1
18240.093,0.238,0.354,0.981,8.15,-15.14,9.55,3,1
18240.093,0.222,0.346,1.004,13.67,-19.93,10.59,3,1
18240.109,0.203,0.427,0.977,15.29,-28.57,11.02,3,1
18240.125,0.302,0.319,0.855,26.06,-31.68,13.25,3,1
18240.125,0.243,0.318,0.83,28.75,-31.31,11.23,3,1
18240.14,0.278,0.459,0.886,12.7,-33.72,12.45,3,1
18240.14,0.278,0.405,0.799,19.35,-33.57,14.01,3,1
18240.156,0.291,0.398,0.78,16.39,-31.07,14.37,3,1
18240.171,0.318,0.447,0.796,9.89,-27.07,16.82,3,1
18240.171,0.342,0.433,0.776,10.13,-21.94,15.93,3,1
18240.187,0.355,0.418,0.746,7.54,-15.69,13.55,3,1
18240.203,0.362,0.424,0.743,1.59,-9.16,12.36,3,1
18240.203,0.363,0.425,0.765,-3.2,-3.02,11.69,3,1
18240.218,0.359,0.421,0.788,-6.07,1.74,11.54,3,1
18240.234,0.357,0.421,0.828,-9.13,4.76,11.57,3,1
18240.234,0.337,0.423,0.874,-10.16,5.95,11.69,3,1
18240.25,0.324,0.408,0.911,-9.28,4.12,12.45,3,1
18240.25,0.318,0.397,0.925,-7.66,0.06,13.4,3,1
18240.265,0.32,0.38,0.915,-5.49,-4.43,13.61,3,1
18240.281,0.324,0.364,0.896,-3.72,-8.18,13.09,3,1
18240.281,0.326,0.357,0.873,-2.2,-10.9,12.24,3,1
18240.296,0.332,0.355,0.855,-1.59,-12.12,11.26,3,1
18240.312,0.34,0.359,0.838,-1.74,-11.72,10.1,3,1
18240.312,0.344,0.352,0.821,-1.83,-10.01,8.12,3,1
18240.328,0.347,0.347,0.815,-2.2,-7.08,5.65,3,1
18240.343,0.362,0.359,0.816,-2.44,-3.08,2.78,3,1
18240.343,0.345,0.36,0.812,-1.16,1.62,-0.73,3,1
18240.359,0.329,0.363,0.82,-0.76,4.91,-2.9,3,1
18240.375,0.325,0.384,0.845,-1.34,6.78,-3.05,3,1
18240.375,0.318,0.399,0.875,-1.56,7.35,-2.5,3,1
18240.39,0.307,0.405,0.899,-0.64,6.2,-1.34,3,1
18240.406,0.303,0.411,0.915,0.64,3.2,0.37,3,1
18240.406,0.303,0.41,0.908,1.71,-0.43,1.92,3,1
18240.421,0.307,0.398,0.888,1.95,-3.66,2.72,3,1
18240.421,0.312,0.39,0.872,1.86,-5.89,3.27,3,1
18240.437,0.318,0.389,0.856,1.34,-7.51,4.12,3,1
18240.453,0.332,0.389,0.845,0.06,-8.33,4.88,3,1
18240.453,0.347,0.385,0.838,-0.73,-7.57,4.61,3,1
18240.468,0.353,0.369,0.827,0.12,-5.46,3.27,3,1
18240.484,0.354,0.366,0.827,0.76,-2.96,2.14,3,1
18240.484,0.356,0.376,0.83,1.07,-1.1,2.14,3,1
18240.5,0.362,0.375,0.832,1.16,0.98,1.98,3,1
18240.5,0.349,0.371,0.834,0.46,2.99,1.25,3,1
18240.515,0.332,0.381,0.849,1.19,3.88,0.27,3,1
18240.531,0.329,0.392,0.878,0.46,2.84,-0.06,3,1
18240.531,0.317,0.392,0.88,-1.13,1.5,-0.61,3,1
18240.546,0.309,0.385,0.874,-1.59,-0.18,-0.82,3,1
18240.562,0.316,0.384,0.867,-1.62,-1.53,-0.06,3,1
18240.562,0.324,0.387,0.856,-1.28,-1.86,0.95,3,1
18240.578,0.325,0.383,0.851,-0.21,-1.22,1.68,3,1
18240.593,0.326,0.384,0.849,0.89,-0.46,2.56,3,1
18240.593,0.33,0.395,0.852,1.19,-0.12,3.75,3,1
18240.609,0.34,0.396,0.853,0.92,-0.43,5.01,3,1
18240.625,0.348,0.396,0.852,0.24,-0.55,5.52,3,1
18240.64,0.35,0.391,0.846,-0.82,-0.43,5.16,3,1
18240.64,0.349,0.401,0.856,-1.68,-0.89,5.68,3,1
18240.656,0.341,0.405,0.863,-1.59,-1.04,7.05,3,1
18240.671,0.342,0.402,0.86,-0.52,-0.79,9.19,3,1
18240.671,0.343,0.405,0.851,-0.06,-0.76,11.14,3,1
18240.687,0.339,0.411,0.842,-0.67,-1.1,12.27,3,1
18240.703,0.336,0.404,0.828,-2.32,-1.1,13.55,3,1
18240.703,0.33,0.396,0.817,-5.77,-0.18,14.4,3,1
18240.718,0.327,0.393,0.822,-9.03,1.4,15.66,3,1
18240.734,0.326,0.387,0.826,-10.62,2.62,16.94,3,1
18240.734,0.32,0.385,0.844,-12.05,4.79,19.2,3,1
18240.75,0.307,0.387,0.879,-11.32,6.13,22.1,3,1
18240.75,0.299,0.392,0.918,-8.36,5.31,25.97,3,1
18240.765,0.293,0.399,0.952,-4.79,2.04,30.58,3,1
18240.781,0.289,0.409,0.995,-1.4,-3.45,35.16,3,1
18240.781,0.273,0.404,1.028,2.96,-11.11,41.02,3,1
18240.812,0.299,0.393,1.065,18.34,-31.83,59.45,3,1
18240.812,0.294,0.417,1.069,29.21,-40.68,68.12,3,1
18240.828,0.278,0.435,1.112,41.44,-49.1,80.05,3,1
18240.843,0.23,0.463,1.158,57.1,-56.49,97.17,3,1
18240.843,0.176,0.514,1.165,75.14,-62.99,118.63,3,1
18240.859,0.149,0.575,1.125,91.4,-68.42,143.13,3,1
18240.875,0.176,0.688,1.067,98.73,-69.25,166.42,3,1
18240.875,0.241,0.845,1.006,91.53,-63.17,185.31,3,1
18240.89,0.305,0.973,0.96,72.33,-44.47,195.44,3,1
18240.89,0.284,1.048,0.947,44.5,-6.04,186.22,3,1
18240.906,0.263,0.958,0.918,1.07,15.75,179.48,3,1
18240.921,0.212,0.787,0.979,-31.22,31.89,176.76,3,1
18240.921,0.247,0.769,1.073,-38.79,38.36,176.92,3,1
18240.937,0.197,0.686,1.043,-32.14,41.54,191.9,3,1
18240.953,0.194,0.589,1.012,-38.45,34.64,195.53,3,1
18240.953,0.276,0.537,1.009,-42.21,30.64,193.79,3,1
18240.968,0.275,0.465,0.962,-52.28,24.08,191.29,3,1
18240.984,0.333,0.306,0.875,-67.02,19.17,188.76,3,1
18240.984,0.343,0.204,0.836,-81.24,18.1,185.74,3,1
18241.0,0.371,0.099,0.796,-92.9,19.17,182.68,3,1
18241.015,0.398,0.034,0.78,-100.65,23.65,177.92,3,1
18241.015,0.404,-0.01,0.779,-104.83,30.49,171.51,3,1
18241.031,0.39,-0.067,0.773,-108.1,36.87,165.07,3,1
18241.031,0.367,-0.15,0.775,-110.26,40.44,161.53,3,1
18241.046,0.372,-0.231,0.776,-109.93,41.41,159.79,3,1
18241.062,0.39,-0.285,0.768,-108.86,41.51,156.5,3,1
18241.062,0.419,-0.34,0.76,-106.81,41.32,150.4,3,1
18241.078,0.445,-0.385,0.75,-105.01,43.06,142.52,3,1
18241.093,0.443,-0.433,0.689,-103.46,47.12,133.24,3,1
18241.093,0.454,-0.46,0.63,-107.43,54.51,123.94,3,1
18241.109,0.462,-0.484,0.627,-113.96,65.25,114.69,3,1
18241.125,0.43,-0.546,0.635,-115.91,75.32,105.5,3,1
18241.125,0.37,-0.557,0.711,-118.38,78.77,96.59,3,1
18241.14,0.334,-0.526,0.783,-122.59,74.59,95.31,3,1
18241.14,0.38,-0.556,0.759,-132.27,69.77,93.45,3,1
18241.156,0.436,-0.595,0.783,-150.58,62.93,82.43,3,1
18241.171,0.447,-0.649,0.803,-157.02,58.38,69.46,3,1
18241.187,0.422,-0.713,0.781,-143.31,64.15,64.64,3,1
18241.187,0.412,-0.71,0.827,-119.17,74.98,65.86,3,1
18241.203,0.375,-0.67,0.867,-91.86,84.51,67.23,3,1
18241.218,0.344,-0.619,0.868,-71.75,89.72,67.63,3,1
18241.218,0.321,-0.574,0.846,-63.66,90.0,65.19,3,1
18241.234,0.304,-0.531,0.837,-63.57,90.0,60.79,3,1
18241.234,0.249,-0.51,0.821,-65.37,90.85,57.99,3,1
18241.25,0.197,-0.487,0.845,-69.19,90.43,58.35,3,1
18241.25,0.147,-0.465,0.896,-69.95,86.21,61.46,3,1
18241.265,0.093,-0.478,0.887,-67.08,75.93,67.14,3,1
18241.281,0.094,-0.47,0.855,-65.28,63.14,72.82,3,1
18241.296,0.125,-0.455,0.789,-64.58,52.89,76.24,3,1
18241.312,0.194,-0.507,0.696,-67.17,45.35,74.65,3,1
18241.312,0.216,-0.53,0.7,-65.13,49.35,72.18,3,1
18241.328,0.192,-0.545,0.706,-58.41,54.66,69.83,3,1
18241.343,0.165,-0.566,0.681,-51.48,58.2,69.25,3,1
18241.343,0.153,-0.575,0.689,-48.19,58.32,68.91,3,1
18241.359,0.127,-0.599,0.713,-47.4,52.49,65.74,3,1
18241.375,0.093,-0.654,0.705,-45.72,42.7,60.64,3,1
18241.375,0.118,-0.694,0.683,-42.33,31.92,55.67,3,1
18241.39,0.154,-0.726,0.677,-34.76,26.25,49.13,3,1
18241.406,0.141,-0.758,0.658,-24.35,24.02,40.74,3,1
18241.406,0.119,-0.766,0.647,-16.72,21.79,33.36,3,1
18241.421,0.098,-0.749,0.663,-12.27,20.84,25.91,3,1
18241.421,0.068,-0.76,0.647,-10.41,18.92,20.2,3,1
18241.437,0.083,-0.768,0.644,-12.67,15.32,16.6,3,1
18241.453,0.098,-0.767,0.654,-15.11,14.19,12.05,3,1
18241.453,0.093,-0.779,0.666,-16.27,14.77,6.71,3,1
18241.468,0.081,-0.754,0.696,-15.29,16.05,3.05,3,1
18241.484,0.072,-0.738,0.689,-13.06,16.05,2.14,3,1
18241.484,0.094,-0.699,0.698,-14.16,14.83,2.66,3,1
18241.5,0.1,-0.665,0.696,-17.3,14.34,2.66,3,1
18241.5,0.099,-0.658,0.686,-24.14,13.25,3.11,3,1
18241.515,0.11,-0.66,0.685,-32.01,12.51,3.88,3,1
18241.531,0.114,-0.675,0.678,-36.99,13.37,3.75,3,1
18241.546,0.133,-0.696,0.677,-39.95,15.29,3.33,3,1
18241.546,0.129,-0.72,0.679,-40.38,18.83,2.26,3,1
18241.562,0.101,-0.743,0.683,-37.69,22.83,0.34,3,1
18241.562,0.062,-0.764,0.694,-33.23,26.12,0.03,3,1
18241.578,0.047,-0.766,0.707,-26.64,27.07,1.31,3,1
18241.593,0.027,-0.749,0.715,-18.37,25.39,1.1,3,1
18241.593,-0.001,-0.72,0.744,-12.82,20.6,-0.34,3,1
18241.609,-0.019,-0.684,0.778,-11.66,12.33,0.92,3,1
18241.609,-0.008,-0.668,0.763,-13.86,1.86,3.11,3,1
18241.625,0.004,-0.66,0.761,-19.62,-6.81,6.04,3,1
18241.64,0.001,-0.662,0.738,-25.24,-13.21,10.41,3,1
18241.656,0.019,-0.669,0.694,-29.82,-19.1,14.8,3,1
18241.656,0.038,-0.685,0.669,-32.5,-23.1,17.88,3,1
18241.671,0.021,-0.718,0.644,-33.78,-24.87,21.27,3,1
18241.671,0.083,-0.721,0.642,-35.04,-25.06,25.12,3,1
18241.687,0.037,-0.739,0.618,-33.05,-17.15,26.34,3,1
18241.703,-0.003,-0.776,0.599,-35.07,-14.77,29.3,3,1
18241.703,0.016,-0.787,0.619,-38.94,-15.81,32.96,3,1
18241.718,-0.014,-0.782,0.644,-38.88,-14.44,34.18,3,1
18241.734,-0.033,-0.805,0.634,-37.84,-17.03,35.43,3,1
18241.734,0.014,-0.812,0.653,-36.71,-21.12,37.05,3,1
18241.75,0.03,-0.826,0.651,-30.98,-21.58,36.29,3,1
18241.765,0.056,-0.829,0.642,-23.5,-21.12,34.09,3,1
18241.765,0.064,-0.813,0.634,-16.05,-17.7,29.69,3,1
18241.781,0.042,-0.808,0.613,-10.9,-13.67,24.81,3,1
18241.781,0.023,-0.802,0.59,-8.73,-10.96,20.84,3,1
18241.796,-0.003,-0.792,0.583,-8.45,-8.36,17.3,3,1
18241.812,-0.027,-0.786,0.587,-9.77,-7.75,14.31,3,1
18241.812,-0.057,-0.768,0.614,-12.15,-8.12,13.34,3,1
18241.828,-0.083,-0.761,0.611,-15.14,-9.67,15.75,3,1
18241.843,-0.068,-0.766,0.614,-20.75,-13.43,18.89,3,1
18241.843,-0.047,-0.779,0.636,-24.81,-17.64,20.29,3,1
18241.859,-0.02,-0.8,0.629,-25.36,-20.72,19.59,3,1
18241.875,0.013,-0.805,0.621,-22.89,-20.97,17.09,3,1
18241.875,0.025,-0.813,0.625,-17.64,-18.52,13.34,3,1
18241.89,0.017,-0.81,0.635,-11.02,-15.75,9.58,3,1
18241.906,0.0,-0.785,0.632,-4.61,-13.92,7.05,3,1
18241.906,-0.017,-0.763,0.605,-1.46,-13.03,5.62,3,1
18241.921,-0.026,-0.745,0.608,-2.56,-13.15,3.45,3,1
18241.921,-0.057,-0.726,0.63,-6.01,-19.07,1.86,3,1
18241.937,-0.075,-0.736,0.609,-6.71,-23.07,4.24,3,1
18241.953,-0.055,-0.75,0.588,-5.65,-24.41,5.65,3,1
18241.968,0.006,-0.784,0.563,-4.33,-24.05,5.25,3,1
18241.984,0.034,-0.809,0.56,-0.24,-16.48,-2.9,3,1
18241.984,0.02,-0.809,0.578,4.79,-14.28,-8.48,3,1
18242.0,0.006,-0.798,0.58,12.12,-12.51,-12.33,3,1
18242.015,-0.01,-0.77,0.575,17.64,-10.53,-13.25,3,1
18242.015,-0.017,-0.748,0.571,18.83,-9.52,-11.69,3,1
18242.031,-0.013,-0.732,0.586,15.59,-9.22,-9.31,3,1
18242.031,-0.025,-0.731,0.601,10.59,-8.94,-6.13,3,1
18242.046,-0.026,-0.746,0.611,5.37,-9.4,-1.53,3,1
18242.062,-0.002,-0.758,0.629,1.92,-10.35,2.56,3,1
18242.078,0.018,-0.781,0.648,1.68,-10.16,4.21,3,1
18242.078,0.019,-0.782,0.676,4.21,-8.67,3.94,3,1
18242.093,0.004,-0.78,0.692,9.4,-7.63,2.87,3,1
18242.093,0.001,-0.772,0.703,13.82,-8.55,1.71,3,1
18242.109,0.004,-0.769,0.702,16.97,-9.77,-0.24,3,1
18242.125,0.0,-0.771,0.698,18.71,-10.59,-2.01,3,1
18242.125,0.0,-0.765,0.71,19.01,-10.8,-3.05,3,1
18242.14,-0.039,-0.735,0.728,18.62,-9.67,-2.81,3,1
18242.14,-0.08,-0.727,0.712,15.41,-9.98,0.85,3,1
18242.156,-0.066,-0.737,0.708,8.82,-12.51,5.95,3,1
18242.171,-0.046,-0.745,0.723,3.14,-14.37,9.37,3,1
18242.187,-0.035,-0.758,0.709,0.27,-14.92,11.08,3,1
18242.187,-0.02,-0.768,0.689,-2.66,-14.56,11.2,3,1
18242.203,-0.005,-0.779,0.684,-5.55,-13.34,9.58,3,1
18242.203,-0.002,-0.79,0.676,-6.62,-10.59,6.93,3,1
18242.218,-0.002,-0.795,0.668,-5.4,-6.74,4.03,3,1
18242.234,-0.03,-0.78,0.683,-2.69,-3.2,1.92,3,1
18242.234,-0.052,-0.771,0.675,-0.06,-1.46,1.37,3,1
18242.25,-0.054,-0.757,0.678,1.59,-0.95,1.25,3,1
18242.25,-0.069,-0.738,0.676,3.08,-1.22,1.19,3,1
18242.265,-0.075,-0.726,0.659,1.92,-2.23,2.78,3,1
18242.281,-0.061,-0.729,0.65,-1.86,-4.03,4.88,3,1
18242.281,-0.039,-0.744,0.651,-4.88,-5.04,6.5,3,1
18242.296,-0.012,-0.767,0.638,-5.86,-4.49,7.75,3,1
18242.312,0.014,-0.787,0.624,-6.01,-2.81,7.11,3,1
18242.328,0.035,-0.803,0.614,-5.65,-0.09,4.0,3,1
18242.328,0.061,-0.811,0.607,-4.39,4.09,-0.95,3,1
18242.343,0.06,-0.811,0.596,-2.69,10.41,-6.65,3,1
18242.343,0.045,-0.806,0.593,-1.43,16.48,-11.69,3,1
18242.359,0.016,-0.785,0.613,-0.64,21.7,-15.17,3,1
18242.375,-0.044,-0.75,0.659,0.27,24.14,-15.99,3,1
18242.375,-0.089,-0.72,0.692,0.61,21.3,-13.31,3,1
18242.39,-0.097,-0.693,0.711,-1.22,13.95,-8.06,3,1
18242.39,-0.081,-0.678,0.728,-3.33,4.73,-2.84,3,1
18242.406,-0.048,-0.685,0.723,-4.97,-4.03,1.53,3,1
18242.421,0.004,-0.701,0.714,-6.13,-10.71,3.94,3,1
18242.437,0.044,-0.719,0.704,-5.19,-13.43,4.18,3,1
18242.437,0.048,-0.728,0.696,-3.02,-12.73,3.23,3,1
18242.453,0.039,-0.735,0.691,-0.76,-11.41,2.2,3,1
18242.453,0.013,-0.732,0.695,1.34,-9.98,1.68,3,1
18242.468,-0.028,-0.731,0.692,1.98,-9.83,2.47,3,1
18242.484,-0.049,-0.73,0.692,0.24,-12.24,3.97,3,1
18242.484,-0.058,-0.747,0.683,-2.23,-15.26,6.01,3,1
18242.5,-0.051,-0.764,0.672,-5.07,-18.13,8.06,3,1
18242.5,-0.043,-0.78,0.664,-6.68,-19.62,9.4,3,1
18242.515,-0.036,-0.798,0.649,-7.26,-19.35,10.35,3,1
18242.531,-0.023,-0.805,0.649,-7.14,-18.31,10.38,3,1
18242.531,-0.019,-0.809,0.652,-5.8,-17.12,9.13,3,1
18242.546,-0.011,-0.801,0.647,-4.61,-16.69,7.26,3,1
18242.562,-0.008,-0.79,0.64,-3.66,-16.21,4.82,3,1
18242.562,-0.005,-0.782,0.641,-2.75,-15.35,3.36,3,1
18242.578,0.003,-0.765,0.642,-1.53,-14.74,2.66,3,1
18242.593,0.008,-0.755,0.637,-1.34,-14.19,2.5,3,1
18242.593,0.012,-0.755,0.635,-3.11,-12.42,3.85,3,1
18242.609,0.02,-0.755,0.629,-5.31,-11.29,4.46,3,1
18242.625,0.031,-0.77,0.62,-7.08,-10.74,3.81,3,1
18242.625,0.042,-0.785,0.624,-7.63,-8.82,3.05,3,1
18242.64,0.035,-0.786,0.634,-5.16,-5.1,2.47,3,1
18242.64,0.017,-0.782,0.629,-2.26,-3.51,1.86,3,1
18242.656,0.004,-0.771,0.637,-1.98,-2.75,2.2,3,1
18242.671,-0.014,-0.768,0.643,-3.05,-2.75,2.81,3,1
18242.687,-0.004,-0.77,0.647,-4.43,-5.07,3.39,3,1
18242.687,0.014,-0.778,0.638,-5.04,-6.96,3.51,3,1
18242.703,0.024,-0.789,0.636,-5.01,-6.81,3.36,3,1
18242.703,0.031,-0.793,0.643,-4.85,-5.22,3.33,3,1
18242.718,0.019,-0.797,0.647,-4.12,-3.66,3.36,3,1
18242.734,0.006,-0.799,0.649,-3.63,-2.99,4.0,3,1
18242.734,0.008,-0.799,0.647,-3.05,-4.09,3.94,3,1
18242.75,0.017,-0.798,0.652,-1.4,-5.52,2.81,3,1
18242.75,0.019,-0.796,0.649,1.16,-5.83,1.53,3,1
18242.765,0.017,-0.788,0.638,3.2,-5.07,0.82,3,1
18242.781,0.015,-0.779,0.64,2.9,-4.79,0.49,3,1
18242.781,0.002,-0.777,0.64,1.95,-4.52,0.4,3,1
18242.796,-0.008,-0.78,0.628,1.31,-4.58,1.37,3,1
18242.812,-0.003,-0.773,0.63,0.76,-5.25,2.72,3,1
18242.812,-0.004,-0.78,0.615,0.09,-5.4,3.57,3,1
18242.828,0.001,-0.791,0.605,-2.08,-5.43,4.27,3,1
18242.843,0.006,-0.803,0.605,-4.18,-4.97,4.39,3,1
18242.843,0.006,-0.815,0.598,-5.25,-4.12,3.97,3,1
18242.859,0.005,-0.821,0.595,-5.28,-2.56,3.51,3,1
18242.875,-0.002,-0.82,0.595,-4.82,-1.04,3.14,3,1
18242.875,-0.009,-0.818,0.595,-4.49,-0.09,3.05,3,1
18242.89,-0.011,-0.811,0.596,-4.94,-0.06,2.84,3,1
18242.906,-0.012,-0.809,0.593,-5.46,-0.4,2.9,3,1
18242.906,-0.006,-0.809,0.592,-7.14,-1.31,2.99,3,1
18242.921,-0.001,-0.814,0.589,-7.84,-1.43,2.81,3,1
18242.921,-0.005,-0.819,0.582,-8.79,-2.14,2.72,3,1
18242.937,-0.01,-0.821,0.577,-10.32,-2.99,3.11,3,1
18242.953,0.002,-0.84,0.552,-11.81,-2.5,3.6,3,1
18242.953,0.001,-0.855,0.536,-12.3,-1.28,3.69,3,1
18242.968,0.006,-0.868,0.521,-11.93,0.37,3.33,3,1
18242.984,0.007,-0.869,0.512,-11.63,2.35,2.5,3,1
18242.984,0.011,-0.868,0.504,-12.63,4.33,1.62,3,1
18243.0,0.019,-0.873,0.509,-14.34,6.41,-0.09,3,1
18243.015,0.013,-0.872,0.527,-15.23,8.39,-2.41,3,1
18243.015,-0.002,-0.863,0.553,-13.67,9.25,-4.27,3,1
18243.031,-0.021,-0.85,0.578,-10.8,8.3,-4.49,3,1
18243.031,-0.039,-0.832,0.595,-8.09,5.22,-3.33,3,1
18243.046,-0.035,-0.827,0.586,-7.51,-0.03,-1.46,3,1
18243.062,-0.009,-0.833,0.569,-9.06,-5.58,-0.31,3,1
18243.062,0.01,-0.84,0.547,-10.9,-8.7,-0.43,3,1
18243.078,0.012,-0.845,0.533,-11.66,-9.74,-1.56,3,1
18243.093,0.01,-0.849,0.519,-11.26,-9.55,-2.29,3,1
18243.093,0.019,-0.854,0.507,-10.22,-8.39,-2.87,3,1
18243.109,0.025,-0.854,0.497,-8.97,-5.86,-3.66,3,1
18243.125,0.015,-0.848,0.498,-8.3,-2.84,-5.04,3,1
18243.125,-0.008,-0.851,0.504,-7.29,-0.82,-5.71,3,1
18243.14,-0.012,-0.849,0.515,-6.2,-1.1,-4.82,3,1
18243.14,-0.007,-0.839,0.531,-4.67,-2.44,-4.09,3,1
18243.156,0.008,-0.836,0.54,-2.96,-3.75,-3.66,3,1
18243.171,0.018,-0.828,0.554,-1.77,-4.24,-3.94,3,1
18243.171,0.026,-0.824,0.561,-0.4,-5.22,-4.76,3,1
18243.187,0.035,-0.817,0.567,0.18,-7.02,-5.25,3,1
18243.203,0.043,-0.812,0.58,0.55,-8.82,-5.22,3,1
18243.203,0.048,-0.808,0.581,1.16,-9.83,-4.33,3,1
18243.218,0.054,-0.808,0.575,0.95,-10.35,-2.84,3,1
18243.234,0.061,-0.807,0.571,0.4,-9.4,-1.89,3,1
18243.25,0.063,-0.811,0.566,-0.34,-7.48,-1.77,3,1
18243.25,0.059,-0.812,0.573,-1.19,-4.94,-1.56,3,1
18243.25,0.051,-0.814,0.581,-1.4,-2.47,-1.1,3,1
18243.265,0.043,-0.819,0.596,-1.28,-0.21,0.09,3,1
18243.281,0.03,-0.823,0.612,0.12,1.07,1.71,3,1
18243.281,0.027,-0.83,0.613,1.89,0.34,3.72,3,1
18243.296,0.03,-0.829,0.622,2.84,-1.74,5.25,3,1
18243.312,0.025,-0.82,0.633,3.17,-4.36,5.04,3,1
18243.312,0.018,-0.821,0.635,2.44,-7.26,4.46,3,1
18243.328,0.03,-0.827,0.64,1.04,-10.68,3.63,3,1
18243.343,0.04,-0.827,0.635,1.16,-13.34,1.8,3,1
18243.343,0.042,-0.819,0.63,2.29,-14.44,-0.18,3,1
18243.359,0.048,-0.811,0.63,2.78,-15.17,-1.98,3,1
18243.375,0.058,-0.799,0.63,3.69,-15.41,-3.11,3,1
18243.375,0.055,-0.8,0.619,5.16,-14.37,-3.63,3,1
18243.39,0.06,-0.795,0.62,5.77,-12.82,-3.08,3,1
18243.39,0.051,-0.795,0.622,6.96,-10.53,-2.23,3,1
18243.406,0.041,-0.787,0.621,7.2,-8.76,-0.73,3,1
18243.421,0.041,-0.779,0.625,5.58,-8.39,0.37,3,1
18243.421,0.039,-0.781,0.625,2.9,-8.21,1.16,3,1
18243.437,0.033,-0.796,0.622,0.4,-8.15,2.01,3,1
18243.453,0.037,-0.813,0.625,-1.46,-7.93,3.14,3,1
18243.453,0.038,-0.824,0.628,-2.62,-7.11,3.66,3,1
18243.468,0.04,-0.842,0.626,-3.81,-6.5,3.39,3,1
18243.484,0.037,-0.859,0.634,-5.07,-6.23,2.2,3,1
18243.484,0.027,-0.875,0.634,-4.85,-5.95,0.03,3,1
18243.5,0.015,-0.889,0.627,-3.88,-6.41,-3.02,3,1
18243.515,0.008,-0.899,0.611,-1.74,-8.27,-6.65,3,1
18243.515,0.013,-0.896,0.587,2.11,-11.2,-10.86,3,1
18243.531,0.011,-0.875,0.575,7.48,-13.76,-14.98,3,1
18243.531,0.002,-0.842,0.564,12.85,-15.99,-16.54,3,1
18243.546,0.015,-0.799,0.55,14.53,-17.15,-14.62,3,1
18243.562,0.031,-0.771,0.542,11.96,-16.33,-11.02,3,1
18243.562,0.052,-0.758,0.538,5.86,-13.58,-6.44,3,1
18243.578,0.059,-0.752,0.548,-1.19,-8.48,-2.2,3,1
18243.593,0.054,-0.763,0.564,-6.9,-3.97,1.22,3,1
18243.593,0.051,-0.78,0.578,-10.25,-1.43,3.51,3,1
18243.609,0.04,-0.789,0.602,-10.62,-0.61,3.97,3,1
18243.625,0.036,-0.793,0.61,-7.57,-1.59,3.39,3,1
18243.625,0.046,-0.78,0.616,-3.3,-2.93,2.75,3,1
18243.64,0.051,-0.751,0.616,0.58,-3.23,2.2,3,1
18243.64,0.055,-0.717,0.608,0.82,-2.84,2.38,3,1
18243.656,0.069,-0.695,0.604,-3.36,-2.32,4.03,3,1
18243.671,0.081,-0.7,0.597,-8.79,-0.31,6.78,3,1
18243.671,0.109,-0.715,0.604,-12.88,3.33,9.8,3,1
18243.687,0.112,-0.733,0.61,-13.37,9.09,11.87,3,1
18243.703,0.116,-0.759,0.618,-11.66,14.34,13.52,3,1
18243.703,0.114,-0.766,0.647,-7.93,19.14,13.73,3,1
18243.718,0.081,-0.766,0.669,-2.69,21.94,12.33,3,1
18243.734,0.047,-0.756,0.692,1.71,20.51,10.86,3,1
18243.734,0.016,-0.753,0.699,4.97,15.99,9.37,3,1
18243.75,-0.009,-0.745,0.695,7.2,9.22,7.87,3,1
18243.75,-0.012,-0.747,0.679,7.81,1.1,7.78,3,1
18243.765,0.01,-0.763,0.644,7.48,-6.26,8.24,3,1
18243.781,0.026,-0.785,0.598,7.23,-9.09,8.03,3,1
18243.781,0.03,-0.812,0.552,7.66,-8.06,7.11,3,1
18243.796,0.037,-0.822,0.53,8.18,-3.88,6.53,3,1
18243.812,0.025,-0.824,0.546,9.28,2.2,6.04,3,1
18243.812,0.0,-0.818,0.559,10.5,8.0,6.13,3,1
18243.828,-0.031,-0.807,0.577,9.49,12.42,7.48,3,1
18243.843,-0.052,-0.816,0.6,7.14,13.43,8.03,3,1
18243.843,-0.075,-0.825,0.603,4.97,10.96,6.2,3,1
18243.859,-0.067,-0.864,0.623,2.11,6.81,4.49,3,1
18243.875,-0.076,-0.881,0.601,4.06,6.13,2.81,3,1
18243.875,-0.044,-0.89,0.587,6.9,2.84,0.52,3,1
18243.89,-0.042,-0.887,0.583,10.53,8.82,-5.1,3,1
18243.89,-0.057,-0.874,0.568,7.32,10.59,-7.02,3,1
18243.906,-0.061,-0.871,0.579,2.62,12.3,-7.42,3,1
18243.921,-0.057,-0.859,0.583,-2.01,13.37,-8.27,3,1
18243.937,-0.053,-0.892,0.579,-6.23,15.96,-8.58,3,1
18243.937,-0.043,-0.907,0.579,-10.01,17.61,-9.98,3,1
18243.953,-0.047,-0.933,0.578,-11.72,20.6,-12.79,3,1
18243.953,-0.054,-0.939,0.586,-11.2,23.8,-17.06,3,1
18243.968,-0.068,-0.927,0.609,-8.36,26.28,-22.74,3,1
18243.984,-0.077,-0.904,0.626,-3.42,27.13,-27.28,3,1
18243.984,-0.081,-0.849,0.643,0.95,27.19,-29.21,3,1
18244.0,-0.078,-0.802,0.649,2.29,25.91,-29.27,3,1
18244.015,-0.075,-0.771,0.65,-0.12,23.9,-28.35,3,1
18244.015,-0.058,-0.757,0.648,-5.1,22.1,-26.31,3,1
18244.031,-0.043,-0.762,0.641,-11.02,21.79,-24.32,3,1
18244.031,-0.028,-0.778,0.628,-15.63,21.36,-23.13,3,1
18244.046,0.001,-0.79,0.621,-17.82,21.79,-23.47,3,1
18244.062,0.012,-0.798,0.626,-17.06,24.17,-26.15,3,1
18244.062,0.01,-0.8,0.625,-13.55,26.09,-29.21,3,1
18244.078,0.009,-0.783,0.624,-8.97,27.5,-30.88,3,1
18244.093,0.009,-0.755,0.635,-5.52,28.99,-31.07,3,1
18244.093,0.011,-0.73,0.632,-4.61,30.4,-29.57,3,1
18244.109,0.013,-0.715,0.634,-6.81,31.4,-27.07,3,1
18244.125,0.029,-0.724,0.642,-10.04,32.11,-24.05,3,1
18244.125,0.048,-0.736,0.642,-11.41,32.99,-21.52,3,1
18244.14,0.06,-0.747,0.64,-9.98,33.48,-20.51,3,1
18244.156,0.067,-0.752,0.641,-6.65,34.7,-20.48,3,1
18244.156,0.069,-0.746,0.648,-2.66,35.74,-21.06,3,1
18244.171,0.064,-0.73,0.66,1.19,36.44,-21.67,3,1
18244.171,0.053,-0.707,0.683,2.75,36.16,-21.3,3,1
18244.187,0.054,-0.693,0.696,1.71,33.88,-18.83,3,1
18244.203,0.054,-0.704,0.689,-0.67,31.16,-14.65,3,1
18244.203,0.058,-0.726,0.671,-3.75,28.72,-9.34,3,1
18244.218,0.045,-0.766,0.639,-6.29,27.07,-4.03,3,1
18244.234,0.024,-0.81,0.625,-8.39,25.3,-0.06,3,1
18244.234,0.027,-0.849,0.611,-7.32,22.86,1.4,3,1
18244.25,0.041,-0.858,0.598,-3.36,21.55,0.55,3,1
18244.265,0.061,-0.841,0.614,0.46,22.49,-1.1,3,1
18244.265,0.061,-0.81,0.63,2.14,24.99,-2.87,3,1
18244.281,0.04,-0.794,0.648,0.79,26.28,-2.69,3,1
18244.281,0.016,-0.781,0.674,-1.74,25.7,-0.12,3,1
18244.296,0.004,-0.777,0.692,-4.7,21.79,3.63,3,1
18244.312,0.025,-0.785,0.712,-7.45,15.53,6.2,3,1
18244.312,0.026,-0.785,0.725,-6.59,9.83,6.07,3,1
18244.328,0.029,-0.772,0.729,-2.96,3.42,5.28,3,1
18244.343,0.043,-0.764,0.709,-0.18,-1.37,5.25,3,1
18244.343,0.041,-0.767,0.66,0.03,-2.62,5.01,3,1
18244.359,0.027,-0.787,0.629,-2.84,-3.02,4.7,3,1
18244.375,0.021,-0.812,0.61,-6.5,-2.72,5.1,3,1
18244.375,0.016,-0.817,0.599,-8.64,-0.85,5.98,3,1
18244.39,0.01,-0.822,0.603,-10.07,1.01,6.84,3,1
18244.39,-0.008,-0.815,0.613,-10.62,2.78,7.48,3,1
18244.406,-0.053,-0.817,0.619,-11.23,4.3,9.58,3,1
18244.421,-0.074,-0.844,0.611,-13.58,1.95,12.7,3,1
18244.421,-0.087,-0.893,0.571,-15.81,-1.59,13.89,3,1
18244.437,-0.113,-0.96,0.527,-17.3,-4.0,12.85,3,1
18244.453,-0.081,-1.0,0.493,-16.97,-5.71,8.85,3,1
18244.453,-0.028,-0.997,0.489,-13.28,-3.39,1.1,3,1
18244.468,-0.007,-0.937,0.512,-7.57,4.27,-6.87,3,1
18244.484,-0.03,-0.863,0.543,-3.42,14.25,-11.23,3,1
18244.484,-0.057,-0.791,0.599,-2.99,19.68,-11.08,3,1
18244.5,-0.09,-0.746,0.632,-4.91,20.81,-7.05,3,1
18244.5,-0.141,-0.747,0.619,-9.95,17.91,-0.7,3,1
18244.515,-0.157,-0.808,0.571,-17.21,11.44,5.52,3,1
18244.531,-0.118,-0.885,0.517,-22.43,4.79,8.12,3,1
18244.531,-0.091,-0.943,0.474,-22.43,2.93,4.12,3,1
18244.546,-0.059,-0.96,0.486,-17.43,5.58,-2.62,3,1
18244.562,-0.025,-0.914,0.541,-7.26,10.96,-8.88,3,1
18244.562,-0.019,-0.831,0.597,3.36,17.12,-12.24,3,1
18244.578,-0.051,-0.765,0.643,9.19,20.29,-11.87,3,1
18244.593,-0.066,-0.723,0.669,8.94,17.37,-8.12,3,1
18244.609,-0.062,-0.719,0.651,3.97,11.05,-2.96,3,1
18244.609,-0.037,-0.736,0.603,-4.39,5.52,1.13,3,1
18244.609,-0.034,-0.767,0.57,-11.63,4.3,2.23,3,1
18244.625,-0.01,-0.798,0.555,-13.92,5.13,1.56,3,1
18244.64,0.001,-0.803,0.55,-12.05,8.33,0.18,3,1
18244.64,0.004,-0.795,0.557,-8.06,12.91,-1.16,3,1
18244.656,-0.01,-0.756,0.563,-5.4,16.42,-2.01,3,1
18244.671,-0.053,-0.746,0.554,-8.0,18.77,-1.95,3,1
18244.671,-0.047,-0.74,0.575,-14.56,17.88,-0.4,3,1
18244.687,-0.047,-0.76,0.585,-18.8,16.24,-0.43,3,1
18244.703,-0.031,-0.78,0.58,-20.36,15.32,-1.89,3,1
18244.718,-0.03,-0.79,0.601,-19.59,14.98,-4.67,3,1
18244.718,-0.056,-0.759,0.63,-17.88,13.4,-6.99,3,1
18244.734,-0.056,-0.716,0.622,-17.61,7.66,-7.17,3,1
18244.734,-0.062,-0.706,0.554,-22.0,1.8,-5.49,3,1
18244.75,-0.085,-0.749,0.5,-34.18,-1.62,-2.47,3,1
18244.765,-0.076,-0.862,0.451,-45.35,-1.22,1.68,3,1
18244.765,-0.031,-0.961,0.407,-49.62,4.85,1.59,3,1
18244.781,-0.055,-1.017,0.414,-44.62,16.17,-3.08,3,1
18244.781,-0.045,-1.002,0.512,-35.83,25.27,-7.6,3,1
18244.796,-0.057,-0.945,0.611,-24.96,30.46,-12.67,3,1
18244.812,-0.104,-0.901,0.658,-18.74,29.33,-14.98,3,1
18244.812,-0.126,-0.908,0.655,-19.14,20.57,-17.15,3,1
18244.828,-0.081,-0.927,0.632,-20.42,9.95,-19.75,3,1
18244.843,-0.039,-0.927,0.59,-17.43,3.2,-24.08,3,1
18244.843,-0.005,-0.91,0.542,-12.6,1.77,-29.45,3,1
18244.859,0.024,-0.87,0.529,-7.35,3.42,-33.94,3,1
18244.875,-0.041,-0.842,0.539,-2.87,6.71,-35.31,3,1
18244.875,-0.073,-0.852,0.559,-0.06,3.36,-30.55,3,1
18244.89,-0.03,-0.857,0.568,5.01,0.79,-29.69,3,1
18244.89,-0.005,-0.868,0.583,9.28,-2.66,-32.38,3,1
18244.906,-0.0,-0.881,0.59,13.58,-8.42,-37.66,3,1
18244.921,0.023,-0.971,0.591,19.78,-13.7,-43.76,3,1
18244.937,0.05,-1.03,0.558,27.74,-16.97,-51.09,3,1
18244.937,0.051,-1.053,0.569,38.39,-18.07,-61.43,3,1
18244.953,0.042,-1.036,0.61,52.0,-20.08,-72.88,3,1
18244.968,0.042,-0.963,0.627,65.03,-25.51,-81.39,3,1
18244.968,0.024,-0.878,0.637,70.74,-33.33,-84.84,3,1
18244.984,0.035,-0.816,0.618,66.84,-43.0,-83.41,3,1
18244.984,0.055,-0.806,0.561,58.93,-50.6,-79.01,3,1
18245.0,0.072,-0.802,0.485,51.76,-51.94,-72.54,3,1
18245.015,0.119,-0.774,0.423,46.82,-47.98,-64.85,3,1
18245.015,0.149,-0.714,0.4,44.37,-39.31,-56.12,3,1
18245.031,0.146,-0.655,0.402,41.54,-27.89,-43.79,3,1
18245.046,0.094,-0.618,0.419,34.27,-16.48,-27.77,3,1
18245.046,0.043,-0.619,0.441,24.54,-8.18,-10.04,3,1
18245.062,0.017,-0.648,0.435,13.09,-2.72,7.81,3,1
18245.062,0.072,-0.692,0.445,1.77,0.98,21.27,3,1
18245.078,0.085,-0.749,0.458,-4.06,6.41,29.6,3,1
18245.093,0.069,-0.787,0.469,-7.93,11.87,35.1,3,1
18245.093,0.044,-0.816,0.486,-12.85,15.26,36.62,3,1
18245.109,0.033,-0.868,0.501,-17.64,17.67,37.05,3,1
18245.125,0.034,-0.902,0.515,-22.06,19.1,36.16,3,1
18245.125,0.024,-0.943,0.535,-21.45,21.03,33.02,3,1
18245.14,-0.01,-0.948,0.523,-13.89,22.83,29.82,3,1
18245.14,-0.001,-0.924,0.484,-8.58,24.05,25.88,3,1
18245.156,0.037,-0.951,0.468,-11.57,25.45,19.38,3,1
18245.171,0.046,-0.998,0.473,-15.44,28.69,10.38,3,1
18245.171,0.052,-1.009,0.503,-14.74,32.84,1.16,3,1
18245.187,0.058,-0.986,0.535,-11.87,35.28,-7.81,3,1
18245.203,0.047,-0.948,0.542,-12.82,34.97,-16.33,3,1
18245.218,0.063,-0.924,0.533,-19.23,32.26,-22.25,3,1
18245.218,0.086,-0.904,0.506,-28.93,29.3,-26.37,3,1
18245.234,0.073,-0.886,0.488,-40.31,28.47,-29.79,3,1
18245.234,0.056,-0.891,0.533,-49.41,28.23,-32.56,3,1
18245.25,0.059,-0.949,0.609,-42.76,28.53,-32.01,3,1
18245.265,0.065,-0.89,0.639,-22.98,30.85,-26.67,3,1
18245.265,0.075,-0.774,0.655,-5.19,30.88,-20.29,3,1
18245.281,0.106,-0.746,0.627,0.4,26.28,-12.15,3,1
18245.281,0.133,-0.748,0.615,-8.88,20.87,-4.21,3,1
18245.296,0.157,-0.804,0.603,-17.79,15.99,-0.27,3,1
18245.312,0.148,-0.841,0.573,-16.39,14.56,1.43,3,1
18245.312,0.118,-0.834,0.545,-11.6,14.86,1.68,3,1
18245.328,0.113,-0.833,0.523,-10.22,14.19,0.4,3,1
18245.343,0.103,-0.837,0.537,-10.65,13.12,-1.28,3,1
18245.359,0.104,-0.856,0.572,-8.24,10.13,-2.62,3,1
18245.359,0.106,-0.852,0.567,-2.29,5.37,-4.39,3,1
18245.359,0.086,-0.823,0.545,1.59,0.06,-6.56,3,1
18245.375,0.088,-0.811,0.536,1.56,-5.77,-8.42,3,1
18245.39,0.112,-0.813,0.515,1.13,-10.53,-8.97,3,1
18245.39,0.101,-0.804,0.475,0.67,-12.33,-8.51,3,1
18245.406,0.081,-0.818,0.449,-0.92,-11.96,-7.72,3,1
18245.421,0.063,-0.827,0.436,-1.86,-10.25,-6.93,3,1
18245.421,0.051,-0.811,0.416,-0.82,-7.2,-5.55,3,1
18245.437,0.067,-0.816,0.423,1.53,-3.97,-4.24,3,1
18245.453,0.072,-0.811,0.442,5.28,-0.46,-2.56,3,1
18245.453,0.086,-0.793,0.478,6.41,1.95,0.76,3,1
18245.468,0.104,-0.786,0.523,7.14,1.83,4.24,3,1
18245.484,0.114,-0.793,0.543,9.98,-0.98,7.39,3,1
18245.5,0.105,-0.808,0.538,11.54,-4.49,8.39,3,1
18245.5,0.124,-0.83,0.526,12.05,-7.57,8.33,3,1
18245.515,0.095,-0.847,0.491,12.24,-7.72,8.94,3,1
18245.515,0.07,-0.878,0.467,8.88,-5.83,9.49,3,1
18245.531,0.09,-0.92,0.475,5.25,-3.97,8.73,3,1
18245.531,0.091,-0.931,0.481,4.7,-1.04,6.41,3,1
18245.546,0.101,-0.952,0.514,5.34,0.58,2.9,3,1
18245.562,0.101,-0.99,0.557,7.51,-0.4,-2.81,3,1
18245.562,0.067,-1.037,0.594,11.96,-3.6,-10.53,3,1
18245.578,0.03,-1.105,0.591,16.82,-9.86,-21.21,3,1
18245.593,0.026,-1.157,0.543,19.93,-17.67,-36.04,3,1
18245.609,0.069,-1.152,0.478,20.72,-22.83,-53.65,3,1
18245.609,0.137,-1.091,0.435,19.38,-21.94,-70.89,3,1
18245.625,0.173,-0.982,0.427,14.77,-14.59,-82.28,3,1
18245.625,0.159,-0.859,0.464,5.68,-5.34,-85.3,3,1
18245.64,0.141,-0.777,0.562,-1.53,0.21,-80.81,3,1
18245.656,0.114,-0.708,0.615,-1.43,0.76,-69.31,3,1
18245.656,0.11,-0.639,0.655,2.78,-1.77,-51.33,3,1
18245.671,0.104,-0.645,0.648,8.09,-5.37,-30.61,3,1
18245.671,0.142,-0.655,0.588,6.68,-8.21,-10.99,3,1
18245.687,0.212,-0.681,0.534,-0.58,-8.42,3.97,3,1
18245.703,0.226,-0.757,0.502,-7.69,-5.19,12.91,3,1
18245.718,0.227,-0.81,0.492,-12.21,0.09,17.15,3,1
18245.718,0.205,-0.837,0.515,-11.9,5.77,18.13,3,1
18245.734,0.171,-0.852,0.548,-8.42,8.67,17.0,3,1
18245.734,0.144,-0.853,0.577,-5.34,8.15,14.4,3,1
18245.75,0.118,-0.846,0.597,-2.59,5.37,11.93,3,1
18245.765,0.117,-0.835,0.579,-0.98,0.58,11.51,3,1
18245.765,0.14,-0.841,0.555,-1.19,-3.05,11.2,3,1
18245.781,0.148,-0.855,0.559,-0.15,-4.24,11.54,3,1
18245.781,0.154,-0.851,0.548,2.44,-4.85,13.64,3,1
18245.796,0.163,-0.855,0.523,2.53,-5.4,14.56,3,1
18245.812,0.172,-0.88,0.511,1.25,-4.94,12.67,3,1
18245.828,0.168,-0.889,0.504,2.04,-4.3,9.58,3,1
18245.828,0.174,-0.874,0.49,3.08,-3.78,6.35,3,1
18245.843,0.2,-0.876,0.483,2.44,-2.56,2.87,3,1
18245.843,0.195,-0.869,0.49,2.53,-0.06,-0.31,3,1
18245.859,0.166,-0.848,0.525,5.43,2.47,-1.31,3,1
18245.875,0.132,-0.823,0.567,6.81,-0.4,1.37,3,1
18245.875,0.113,-0.815,0.568,5.52,-4.3,2.69,3,1
18245.89,0.139,-0.831,0.554,4.15,-6.96,1.04,3,1
18245.906,0.155,-0.858,0.534,4.58,-8.97,-1.28,3,1
18245.906,0.169,-0.862,0.505,6.44,-9.92,-4.43,3,1
18245.921,0.176,-0.878,0.493,8.48,-9.34,-9.37,3,1
18245.921,0.169,-0.89,0.488,10.93,-7.54,-15.14,3,1
18245.937,0.16,-0.891,0.488,13.31,-5.83,-21.27,3,1
18245.953,0.139,-0.882,0.496,14.65,-3.69,-26.8,3,1
18245.968,0.139,-0.844,0.507,14.44,-1.28,-29.57,3,1
18245.968,0.153,-0.788,0.518,12.09,2.2,-28.11,3,1
18245.984,0.151,-0.738,0.548,7.2,5.49,-23.47,3,1
18245.984,0.136,-0.722,0.593,3.3,6.41,-16.88,3,1
18246.0,0.128,-0.725,0.613,3.05,5.34,-7.57,3,1
18246.015,0.148,-0.733,0.608,2.81,2.62,1.22,3,1
18246.015,0.176,-0.764,0.577,0.61,-0.37,5.37,3,1
18246.031,0.182,-0.805,0.577,-1.89,-1.4,6.23,3,1
18246.031,0.179,-0.832,0.579,0.24,-1.53,5.71,3,1
18246.046,0.188,-0.819,0.563,4.09,-1.98,4.3,3,1
18246.062,0.191,-0.823,0.554,4.82,-2.14,2.04,3,1
18246.062,0.184,-0.835,0.548,3.88,-1.68,0.82,3,1
18246.078,0.169,-0.845,0.55,3.42,-0.82,0.92,3,1
18246.093,0.162,-0.85,0.565,3.51,-0.4,1.43,3,1
18246.093,0.163,-0.854,0.579,4.88,-1.13,1.68,3,1
18246.109,0.173,-0.852,0.585,7.26,-2.41,2.17,3,1
18246.125,0.179,-0.848,0.58,8.64,-3.69,2.99,3,1
18246.125,0.187,-0.847,0.582,8.0,-4.94,4.12,3,1
18246.14,0.177,-0.849,0.571,6.99,-5.77,4.79,3,1
18246.14,0.174,-0.859,0.556,4.91,-6.32,5.77,3,1
18246.156,0.174,-0.875,0.54,2.69,-6.07,5.4,3,1
18246.171,0.172,-0.888,0.526,1.92,-5.1,3.69,3,1
18246.171,0.171,-0.888,0.52,1.4,-3.23,1.53,3,1
18246.187,0.174,-0.878,0.535,1.16,-1.4,-1.1,3,1
18246.203,0.163,-0.868,0.551,2.53,-0.34,-2.96,3,1
18246.203,0.16,-0.85,0.564,4.39,-0.46,-2.78,3,1
18246.218,0.169,-0.83,0.574,5.22,-1.53,-1.89,3,1
18246.234,0.164,-0.831,0.57,5.1,-2.59,-1.13,3,1
18246.234,0.145,-0.831,0.554,3.6,-3.17,0.49,3,1
18246.25,0.138,-0.828,0.543,0.06,-3.27,2.11,3,1
18246.25,0.141,-0.834,0.532,-4.0,-3.05,2.93,3,1
18246.265,0.156,-0.849,0.51,-6.2,-2.56,2.69,3,1
18246.281,0.18,-0.851,0.51,-6.32,-0.67,0.98,3,1
18246.281,0.186,-0.843,0.525,-4.03,2.32,-2.32,3,1
18246.296,0.178,-0.82,0.547,-0.85,4.03,-5.55,3,1
18246.312,0.155,-0.802,0.58,1.95,3.91,-8.27,3,1
18246.328,0.123,-0.8,0.588,4.64,1.92,-9.77,3,1
18246.328,0.12,-0.802,0.569,6.29,-1.98,-10.68,3,1
18246.343,0.14,-0.813,0.532,6.74,-5.68,-12.24,3,1
18246.343,0.174,-0.818,0.476,5.8,-6.41,-14.68,3,1
18246.359,0.2,-0.805,0.44,5.13,-3.85,-17.12,3,1
18246.375,0.222,-0.777,0.446,4.12,1.74,-18.37,3,1
18246.375,0.211,-0.737,0.486,1.56,8.36,-17.52,3,1
18246.39,0.186,-0.71,0.554,-3.11,11.93,-14.62,3,1
18246.39,0.168,-0.721,0.624,-6.78,10.62,-9.74,3,1
18246.406,0.166,-0.739,0.659,-6.2,5.71,-3.27,3,1
18246.421,0.178,-0.76,0.653,-4.0,-0.27,2.35,3,1
18246.421,0.19,-0.793,0.613,-4.58,-5.65,5.28,3,1
18246.437,0.213,-0.822,0.575,-5.52,-8.85,6.65,3,1
18246.453,0.219,-0.844,0.545,-4.3,-8.03,7.32,3,1
18246.453,0.208,-0.855,0.522,-3.42,-4.88,7.14,3,1
18246.468,0.202,-0.854,0.53,-3.97,-2.41,6.41,3,1
18246.484,0.178,-0.869,0.555,-4.06,-0.15,5.4,3,1
18246.484,0.147,-0.878,0.581,-3.48,0.43,4.24,3,1
18246.5,0.148,-0.874,0.595,-2.93,-1.46,2.96,3,1
18246.515,0.155,-0.855,0.599,-2.26,-4.3,1.43,3,1
18246.515,0.173,-0.835,0.575,-1.07,-6.32,0.79,3,1
18246.531,0.195,-0.828,0.554,-1.74,-7.39,-0.31,3,1
18246.531,0.192,-0.84,0.544,-3.39,-7.6,-3.42,3,1
18246.546,0.191,-0.848,0.528,-2.81,-6.81,-5.46,3,1
18246.562,0.202,-0.837,0.513,-1.25,-4.61,-6.04,3,1
18246.562,0.207,-0.823,0.524,-0.27,-1.89,-5.89,3,1
18246.578,0.202,-0.808,0.548,0.58,0.24,-4.58,3,1
18246.593,0.195,-0.794,0.565,1.95,0.55,-2.29,3,1
18246.593,0.182,-0.798,0.566,1.95,-0.09,0.92,3,1
18246.609,0.174,-0.808,0.565,-0.15,-1.04,4.21,3,1
18246.625,0.173,-0.833,0.574,-2.75,-2.84,7.32,3,1
18246.625,0.185,-0.858,0.565,-4.52,-4.58,9.49,3,1
18246.64,0.201,-0.869,0.548,-5.86,-5.16,10.04,3,1
18246.656,0.212,-0.869,0.536,-5.86,-4.12,9.4,3,1
18246.656,0.214,-0.865,0.538,-4.79,-2.17,8.03,3,1
18246.671,0.196,-0.863,0.538,-3.11,0.12,6.93,3,1
18246.671,0.166,-0.858,0.536,-2.17,1.89,7.39,3,1
18246.687,0.152,-0.848,0.549,-3.39,2.11,8.18,3,1
18246.703,0.146,-0.849,0.547,-5.1,1.16,8.64,3,1
18246.703,0.153,-0.846,0.559,-6.04,-0.09,9.25,3,1
18246.718,0.155,-0.843,0.555,-6.2,-1.43,9.03,3,1
18246.734,0.159,-0.851,0.534,-6.87,-2.08,7.81,3,1
18246.734,0.168,-0.857,0.515,-6.04,-1.8,5.89,3,1
18246.75,0.172,-0.846,0.487,-4.55,-0.4,3.94,3,1
18246.75,0.177,-0.829,0.474,-4.3,1.8,2.23,3,1
18246.765,0.169,-0.814,0.472,-5.04,4.36,1.65,3,1
18246.781,0.156,-0.791,0.48,-6.38,6.74,2.87,3,1
18246.781,0.15,-0.768,0.502,-7.42,8.36,6.56,3,1
18246.796,0.163,-0.765,0.52,-9.22,8.58,11.75,3,1
18246.812,0.184,-0.784,0.527,-11.08,8.06,16.27,3,1
18246.812,0.204,-0.807,0.532,-11.32,7.75,18.95,3,1
18246.828,0.203,-0.826,0.538,-10.47,7.84,19.9,3,1
18246.843,0.191,-0.843,0.548,-9.31,8.12,19.56,3,1
18246.843,0.177,-0.844,0.572,-5.22,5.28,18.28,3,1
18246.859,0.164,-0.831,0.598,-4.06,1.56,19.38,3,1
18246.875,0.152,-0.821,0.616,-4.21,-3.39,22.31,3,1
18246.875,0.144,-0.833,0.587,-5.95,-8.42,24.81,3,1
18246.89,0.141,-0.872,0.534,-9.46,-12.24,25.51,3,1
18246.906,0.165,-0.901,0.491,-11.11,-13.46,24.11,3,1
18246.906,0.18,-0.916,0.468,-9.83,-10.5,21.3,3,1
18246.921,0.179,-0.913,0.472,-7.35,-5.31,17.7,3,1
18246.921,0.16,-0.903,0.505,-4.73,-0.95,13.67,3,1
18246.937,0.138,-0.888,0.55,-2.66,0.24,10.07,3,1
18246.953,0.113,-0.878,0.577,-1.46,-1.53,6.96,3,1
18246.953,0.099,-0.891,0.575,-0.37,-4.88,4.3,3,1
18246.968,0.106,-0.899,0.539,1.71,-8.21,1.4,3,1
18246.984,0.134,-0.895,0.502,2.72,-9.83,-2.84,3,1
18246.984,0.142,-0.883,0.507,4.12,-9.09,-7.66,3,1
18247.0,0.144,-0.861,0.507,7.45,-8.27,-10.28,3,1
