timestamp,ax,ay,az,gx,gy,gz,orient_label,motion_label
18216.328,-0.01,-0.933,0.391,-1.19,-8.67,1.56,3,1
18216.328,0.001,-0.936,0.382,0.12,-9.61,-2.04,3,1
18216.343,0.009,-0.939,0.375,2.01,-8.76,-4.0,3,1
18216.359,0.007,-0.935,0.378,4.21,-7.63,-5.68,3,1
18216.359,0.001,-0.924,0.385,6.01,-7.17,-6.56,3,1
18216.375,-0.006,-0.901,0.373,6.29,-7.05,-6.53,3,1
18216.375,-0.004,-0.897,0.368,4.94,-6.74,-6.13,3,1
18216.39,-0.003,-0.893,0.37,3.39,-5.77,-5.04,3,1
18216.39,-0.014,-0.896,0.372,2.87,-4.15,-2.81,3,1
18216.406,-0.018,-0.899,0.373,2.2,-2.72,0.4,3,1
18216.421,-0.016,-0.907,0.379,0.27,-1.74,3.05,3,1
18216.421,-0.019,-0.928,0.386,-1.86,-1.22,4.73,3,1
18216.437,-0.029,-0.949,0.395,-2.66,-1.07,5.34,3,1
18216.453,-0.03,-0.963,0.394,-1.89,-2.04,5.1,3,1
18216.453,-0.027,-0.971,0.384,-0.73,-2.9,3.97,3,1
18216.468,-0.022,-0.978,0.372,-0.12,-3.45,2.04,3,1
18216.468,-0.023,-0.984,0.369,0.76,-3.48,0.0,3,1
18216.5,-0.025,-0.976,0.35,2.96,-3.05,-3.27,3,1
18216.5,-0.027,-0.966,0.352,2.62,-2.2,-4.33,3,1
18216.515,-0.027,-0.96,0.352,1.68,-0.89,-4.49,3,1
18216.531,-0.018,-0.954,0.359,0.52,0.4,-3.81,3,1
18216.531,-0.035,-0.941,0.375,0.46,2.01,-3.14,3,1
18216.546,-0.053,-0.924,0.388,0.34,2.2,-1.28,3,1
18216.562,-0.034,-0.922,0.395,-1.65,0.18,1.01,3,1
18216.562,-0.013,-0.931,0.388,-2.29,-1.28,1.77,3,1
18216.578,-0.014,-0.936,0.381,-0.67,-1.28,1.59,3,1
18216.593,-0.022,-0.926,0.379,0.03,-1.19,1.86,3,1
18216.593,-0.024,-0.933,0.372,-1.46,-1.37,2.41,3,1
18216.609,-0.018,-0.952,0.364,-2.78,-1.25,2.66,3,1
18216.625,-0.013,-0.966,0.358,-2.75,0.18,1.34,3,1
18216.625,-0.021,-0.967,0.362,-2.14,1.8,-1.22,3,1
18216.64,-0.035,-0.959,0.377,-1.62,2.84,-3.97,3,1
18216.64,-0.037,-0.949,0.393,-0.64,2.72,-5.89,3,1
18216.671,-0.038,-0.918,0.413,1.74,-0.21,-7.6,3,1
18216.671,-0.027,-0.912,0.42,2.08,-2.5,-7.29,3,1
18216.687,-0.03,-0.917,0.407,2.44,-4.27,-6.41,3,1
18216.703,-0.03,-0.929,0.388,2.17,-5.25,-5.04,3,1
18216.703,-0.018,-0.94,0.374,1.16,-5.49,-4.55,3,1
18216.718,-0.02,-0.95,0.366,1.07,-4.82,-5.01,3,1
18216.718,-0.02,-0.948,0.363,1.56,-3.94,-5.4,3,1
18216.734,-0.016,-0.94,0.361,2.62,-3.33,-5.55,3,1
18216.75,-0.017,-0.931,0.366,3.2,-3.05,-5.4,3,1
18216.75,-0.024,-0.931,0.373,3.33,-2.93,-4.82,3,1
18216.765,-0.026,-0.943,0.383,3.88,-3.51,-3.78,3,1
18216.781,-0.029,-0.954,0.381,5.07,-4.27,-2.84,3,1
18216.781,-0.032,-0.968,0.38,5.22,-5.13,-3.14,3,1
18216.796,-0.025,-0.982,0.382,4.73,-6.01,-4.67,3,1
18216.812,-0.005,-0.981,0.396,5.43,-7.02,-7.23,3,1
18216.812,0.006,-0.97,0.396,7.48,-7.69,-10.38,3,1
18216.843,0.017,-0.919,0.449,13.18,-11.29,-15.87,3,1
18216.843,0.017,-0.894,0.463,15.17,-14.74,-17.09,3,1
18216.859,-0.004,-0.884,0.458,16.27,-18.56,-17.49,3,1
18216.875,-0.021,-0.892,0.418,16.45,-21.7,-16.75,3,1
18216.875,0.0,-0.878,0.384,15.87,-22.77,-15.08,3,1
18216.89,0.018,-0.862,0.359,14.59,-20.63,-12.97,3,1
18216.89,0.025,-0.841,0.373,12.09,-16.82,-9.95,3,1
18216.906,0.028,-0.829,0.411,10.71,-13.52,-6.23,3,1
18216.921,0.017,-0.826,0.447,10.32,-12.18,-1.5,3,1
18216.921,0.009,-0.836,0.467,9.03,-12.76,3.85,3,1
18216.937,0.03,-0.865,0.484,6.87,-14.98,8.48,3,1
18216.953,0.032,-0.895,0.498,6.07,-17.55,10.47,3,1
18216.953,0.017,-0.927,0.504,7.23,-20.72,9.58,3,1
18216.968,0.009,-0.949,0.508,10.22,-24.9,6.07,3,1
18216.984,0.018,-0.96,0.499,14.56,-29.39,1.46,3,1
18216.984,0.01,-0.959,0.485,18.34,-32.62,-3.14,3,1
18217.0,0.024,-0.983,0.453,22.98,-36.01,-13.55,3,1
18217.015,0.039,-0.98,0.461,27.44,-35.77,-18.68,3,1
18217.031,0.059,-0.973,0.472,31.28,-34.85,-23.19,3,1
18217.031,0.085,-0.966,0.478,33.94,-34.12,-27.41,3,1
18217.046,0.073,-0.95,0.496,36.19,-31.8,-31.5,3,1
18217.062,0.019,-0.913,0.552,37.66,-29.88,-34.33,3,1
18217.062,-0.03,-0.877,0.593,38.88,-32.9,-35.43,3,1
18217.078,-0.036,-0.859,0.602,39.09,-40.04,-33.23,3,1
18217.093,-0.025,-0.853,0.583,38.09,-47.09,-30.27,3,1
18217.093,0.024,-0.845,0.542,35.49,-54.78,-29.48,3,1
18217.109,0.059,-0.84,0.506,33.27,-58.57,-30.34,3,1
18217.125,0.097,-0.836,0.481,32.29,-58.6,-31.92,3,1
18217.125,0.134,-0.827,0.47,33.94,-55.48,-33.48,3,1
18217.14,0.156,-0.832,0.461,37.35,-48.43,-34.88,3,1
18217.14,0.168,-0.836,0.447,40.71,-39.22,-35.46,3,1
18217.156,0.152,-0.837,0.444,43.31,-28.72,-36.96,3,1
18217.171,0.142,-0.832,0.489,45.66,-20.42,-38.7,3,1
18217.187,0.103,-0.796,0.533,50.11,-12.79,-40.53,3,1
18217.187,0.033,-0.755,0.598,56.86,-9.34,-41.29,3,1
18217.203,0.005,-0.72,0.663,64.88,-14.71,-39.22,3,1
18217.203,0.026,-0.685,0.68,73.34,-25.51,-35.16,3,1
18217.218,0.07,-0.627,0.656,79.38,-35.37,-30.4,3,1
18217.234,0.128,-0.6,0.608,80.51,-40.35,-25.03,3,1
18217.234,0.177,-0.578,0.581,75.53,-39.74,-19.35,3,1
18217.25,0.204,-0.586,0.554,67.9,-33.75,-13.86,3,1
18217.265,0.22,-0.609,0.527,61.49,-24.72,-10.44,3,1
18217.265,0.227,-0.625,0.526,57.65,-14.95,-10.16,3,1
18217.281,0.261,-0.653,0.517,57.53,-5.65,-13.89,3,1
18217.281,0.277,-0.678,0.501,63.88,5.8,-22.0,3,1
18217.296,0.295,-0.66,0.507,73.03,20.6,-32.81,3,1
18217.312,0.229,-0.65,0.551,84.6,36.53,-45.11,3,1
18217.312,0.156,-0.657,0.604,108.77,51.79,-53.1,3,1
18217.343,0.093,-0.62,0.638,121.71,46.17,-50.66,3,1
18217.343,0.166,-0.624,0.536,124.91,44.1,-47.49,3,1
18217.359,0.218,-0.644,0.501,127.54,49.23,-44.13,3,1
18217.375,0.257,-0.661,0.481,128.54,61.1,-41.81,3,1
18217.375,0.29,-0.672,0.487,125.68,78.65,-42.66,3,1
18217.39,0.286,-0.702,0.517,119.08,100.19,-47.91,3,1
18217.39,0.26,-0.744,0.559,110.29,120.27,-57.44,3,1
18217.406,0.238,-0.78,0.575,107.0,136.48,-71.26,3,1
18217.421,0.163,-0.779,0.66,114.02,147.43,-86.73,3,1
18217.437,0.084,-0.777,0.759,129.64,147.92,-100.07,3,1
18217.437,0.041,-0.743,0.82,145.54,133.55,-111.88,3,1
18217.453,0.003,-0.701,0.88,161.87,108.65,-121.65,3,1
18217.453,-0.014,-0.654,0.923,181.19,79.41,-125.95,3,1
18217.468,0.005,-0.596,0.923,200.99,47.43,-123.36,3,1
18217.484,0.048,-0.534,0.9,216.32,18.46,-115.57,3,1
18217.484,0.129,-0.483,0.871,222.88,-3.3,-106.33,3,1
18217.515,0.272,-0.371,0.807,208.78,-22.52,-103.06,3,1
18217.515,0.328,-0.34,0.818,189.92,-22.83,-107.58,3,1
18217.531,0.36,-0.303,0.848,170.32,-17.58,-114.23,3,1
18217.531,0.361,-0.275,0.882,155.0,-9.16,-120.12,3,1
18217.546,0.354,-0.262,0.906,143.62,-1.04,-122.62,3,1
18217.562,0.323,-0.235,0.942,136.78,5.92,-122.59,3,1
18217.562,0.312,-0.188,0.965,133.73,7.66,-121.04,3,1
18217.578,0.313,-0.123,0.966,132.27,1.34,-121.49,3,1
18217.593,0.298,-0.045,0.981,132.39,-6.84,-121.1,3,1
18217.593,0.276,0.039,1.029,134.74,-11.66,-117.4,3,1
18217.609,0.249,0.067,1.072,136.02,-16.24,-112.03,3,1
18217.625,0.24,0.08,1.121,135.78,-21.33,-105.53,3,1
18217.625,0.249,0.148,1.168,135.72,-26.8,-100.44,3,1
18217.64,0.266,0.244,1.149,134.83,-37.48,-97.45,3,1
18217.64,0.278,0.313,1.106,130.86,-50.78,-93.81,3,1
18217.656,0.277,0.334,1.077,124.33,-61.83,-88.56,3,1
18217.671,0.289,0.328,1.057,117.53,-70.68,-82.49,3,1
18217.671,0.306,0.32,1.039,111.3,-75.05,-77.94,3,1
18217.687,0.322,0.299,1.042,104.34,-73.15,-77.09,3,1
18217.703,0.339,0.273,1.062,96.99,-68.36,-80.08,3,1
18217.703,0.345,0.258,1.067,93.14,-62.9,-82.98,3,1
18217.718,0.346,0.242,1.06,94.24,-57.71,-84.08,3,1
18217.734,0.354,0.232,1.02,99.31,-56.64,-84.63,3,1
18217.734,0.359,0.256,0.947,106.11,-56.92,-83.93,3,1
18217.75,0.36,0.317,0.883,108.89,-55.7,-84.08,3,1
18217.75,0.369,0.389,0.829,102.33,-53.07,-85.91,3,1
18217.765,0.375,0.439,0.797,87.5,-46.69,-86.79,3,1
18217.781,0.363,0.476,0.789,68.54,-37.69,-86.03,3,1
18217.781,0.367,0.486,0.784,49.07,-28.99,-82.4,3,1
18217.796,0.393,0.502,0.793,33.75,-21.06,-77.24,3,1
18217.812,0.404,0.53,0.808,26.43,-13.61,-72.73,3,1
18217.812,0.34,0.53,0.824,24.29,-10.93,-65.46,3,1
18217.843,0.344,0.51,0.853,26.55,-15.44,-39.28,3,1
18217.843,0.349,0.503,0.841,29.15,-17.0,-30.21,3,1
18217.859,0.352,0.488,0.813,29.48,-17.06,-24.51,3,1
18217.875,0.36,0.486,0.791,25.79,-14.25,-21.18,3,1
18217.875,0.363,0.479,0.777,19.47,-8.73,-20.29,3,1
18217.89,0.363,0.459,0.766,13.06,-1.74,-20.81,3,1
18217.89,0.349,0.429,0.767,7.81,4.76,-22.0,3,1
18217.906,0.336,0.416,0.791,4.06,10.77,-23.32,3,1
18217.921,0.321,0.412,0.817,2.47,15.47,-25.48,3,1
18217.921,0.304,0.418,0.825,2.2,18.07,-28.72,3,1
18217.937,0.261,0.419,0.821,-1.86,16.27,-30.24,3,1
18217.953,0.265,0.417,0.831,-9.74,11.57,-30.06,3,1
18217.953,0.267,0.419,0.828,-18.28,7.51,-32.59,3,1
18217.968,0.262,0.408,0.808,-27.1,4.67,-35.43,3,1
18217.984,0.278,0.392,0.803,-36.13,5.13,-38.18,3,1
18217.984,0.285,0.383,0.802,-43.03,11.6,-41.44,3,1
18218.0,0.283,0.387,0.79,-46.66,43.0,-49.59,3,1
18218.015,0.221,0.394,0.898,-47.58,61.01,-54.26,3,1
18218.031,0.012,0.603,1.137,-47.55,61.74,-50.02,3,1
18218.031,-0.032,0.668,1.271,-39.25,41.54,-28.53,3,1
18218.046,-0.093,0.694,1.311,-33.14,11.14,-8.15,3,1
18218.062,0.06,0.623,1.212,-28.02,-15.9,12.3,3,1
18218.078,0.18,0.373,0.989,-7.17,-26.28,19.68,3,1
18218.078,0.222,0.276,0.867,5.13,-23.07,19.07,3,1
18218.093,0.249,0.254,0.833,14.53,-17.06,15.78,3,1
18218.093,0.232,0.255,0.817,22.89,-12.79,9.43,3,1
18218.109,0.202,0.294,0.857,25.03,-13.43,3.91,3,1
18218.109,0.178,0.338,0.929,21.7,-21.27,2.38,3,1
18218.125,0.169,0.354,0.985,20.14,-30.7,3.17,3,1
18218.14,0.175,0.375,1.034,23.01,-37.29,4.15,3,1
18218.14,0.16,0.464,1.079,23.53,-43.79,3.81,3,1
18218.156,0.259,0.451,1.014,28.63,-49.07,4.76,3,1
18218.171,0.171,0.459,0.943,39.06,-53.29,6.65,3,1
18218.187,0.246,0.463,0.888,38.09,-60.85,12.79,3,1
18218.203,0.241,0.425,0.787,39.06,-64.18,12.76,3,1
18218.203,0.264,0.461,0.728,29.54,-64.7,12.3,3,1
18218.218,0.315,0.49,0.702,17.85,-62.69,10.77,3,1
18218.234,0.332,0.499,0.688,8.45,-57.07,7.32,3,1
18218.234,0.333,0.508,0.689,-0.43,-50.23,5.86,3,1
18218.25,0.351,0.525,0.708,-8.76,-43.7,5.77,3,1
18218.25,0.356,0.537,0.732,-14.59,-36.81,6.07,3,1
18218.265,0.348,0.528,0.754,-17.73,-31.71,8.12,3,1
18218.281,0.348,0.52,0.767,-19.23,-28.26,11.63,3,1
18218.281,0.358,0.515,0.773,-20.2,-25.79,15.26,3,1
18218.296,0.372,0.509,0.77,-26.09,-20.72,19.47,3,1
18218.312,0.382,0.491,0.761,-30.09,-17.79,19.96,3,1
18218.312,0.381,0.455,0.751,-33.94,-14.74,19.78,3,1
18218.328,0.392,0.423,0.741,-38.15,-10.86,18.8,3,1
18218.343,0.414,0.395,0.738,-42.3,-5.55,16.97,3,1
18218.343,0.412,0.379,0.749,-45.69,-0.18,15.02,3,1
18218.359,0.41,0.37,0.766,-48.25,4.97,13.7,3,1
18218.375,0.403,0.369,0.797,-48.98,9.95,13.21,3,1
18218.375,0.391,0.37,0.828,-48.01,14.37,13.64,3,1
18218.39,0.373,0.367,0.857,-45.56,16.69,15.14,3,1
18218.39,0.363,0.36,0.879,-42.27,17.24,17.4,3,1
18218.406,0.359,0.352,0.894,-38.82,16.85,18.92,3,1
18218.421,0.355,0.341,0.91,-35.28,15.59,19.47,3,1
18218.421,0.351,0.327,0.92,-32.38,12.94,18.52,3,1
18218.437,0.352,0.312,0.914,-30.88,9.49,16.97,3,1
18218.453,0.354,0.298,0.902,-31.13,6.35,15.23,3,1
18218.453,0.357,0.273,0.897,-32.41,4.06,12.85,3,1
18218.468,0.36,0.248,0.898,-33.66,2.72,9.25,3,1
18218.484,0.356,0.231,0.898,-32.81,1.86,5.07,3,1
18218.484,0.36,0.222,0.9,-30.15,1.65,1.37,3,1
18218.5,0.366,0.224,0.91,-26.55,2.66,-1.71,3,1
18218.515,0.364,0.226,0.922,-20.69,3.88,-4.24,3,1
18218.515,0.354,0.232,0.923,-13.18,4.55,-5.28,3,1
18218.531,0.348,0.241,0.93,-4.79,4.67,-4.7,3,1
18218.531,0.348,0.25,0.933,3.17,4.39,-2.81,3,1
18218.546,0.349,0.262,0.937,10.62,4.46,-1.74,3,1
18218.562,0.345,0.271,0.921,16.82,3.72,-1.46,3,1
18218.562,0.341,0.285,0.897,20.6,2.72,-1.53,3,1
18218.578,0.348,0.297,0.883,22.28,2.17,-2.01,3,1
18218.593,0.352,0.313,0.866,22.58,2.69,-2.93,3,1
18218.593,0.35,0.326,0.844,21.39,3.88,-3.45,3,1
18218.609,0.358,0.33,0.832,18.86,5.71,-3.54,3,1
18218.609,0.363,0.342,0.838,15.66,7.69,-4.12,3,1
18218.625,0.356,0.345,0.845,12.97,9.83,-4.36,3,1
18218.64,0.349,0.35,0.855,11.14,11.26,-4.03,3,1
18218.64,0.345,0.353,0.864,9.16,11.54,-2.96,3,1
18218.656,0.344,0.357,0.874,6.04,11.35,-1.89,3,1
18218.671,0.337,0.354,0.882,3.85,10.9,-1.31,3,1
18218.671,0.331,0.346,0.889,3.63,9.77,-1.46,3,1
18218.687,0.329,0.341,0.884,3.81,8.7,-1.83,3,1
18218.703,0.324,0.338,0.878,3.3,7.93,-1.89,3,1
18218.718,0.325,0.334,0.879,2.29,7.54,-1.71,3,1
18218.718,0.329,0.335,0.874,1.16,7.32,-1.98,3,1
18218.734,0.33,0.333,0.866,0.43,7.45,-2.26,3,1
18218.734,0.335,0.332,0.86,0.06,8.15,-2.56,3,1
18218.75,0.336,0.328,0.859,-0.55,9.52,-3.14,3,1
18218.75,0.334,0.323,0.851,-1.16,11.57,-4.12,3,1
18218.765,0.336,0.309,0.843,-1.16,14.34,-5.62,3,1
18218.781,0.33,0.308,0.855,-1.37,16.6,-7.23,3,1
18218.781,0.316,0.335,0.89,-1.71,19.07,-8.09,3,1
18218.796,0.296,0.349,0.919,-1.31,19.5,-7.63,3,1
18218.812,0.275,0.349,0.941,0.21,17.3,-5.4,3,1
18218.812,0.269,0.349,0.947,2.2,13.18,-2.81,3,1
18218.828,0.274,0.349,0.943,2.72,8.73,-1.37,3,1
18218.843,0.273,0.338,0.933,1.07,4.55,-1.56,3,1
18218.859,0.276,0.316,0.914,-0.76,-2.59,-2.81,3,1
18218.859,0.291,0.324,0.907,-0.12,-4.76,-2.9,3,1
18218.875,0.3,0.333,0.898,0.15,-5.4,-3.2,3,1
18218.89,0.298,0.328,0.887,0.37,-5.07,-3.97,3,1
18218.89,0.298,0.325,0.878,1.53,-4.85,-4.46,3,1
18218.906,0.309,0.337,0.871,2.66,-4.33,-4.09,3,1
18218.921,0.317,0.345,0.867,3.45,-2.9,-3.57,3,1
18218.921,0.317,0.352,0.866,3.75,-0.61,-3.63,3,1
18218.937,0.31,0.348,0.864,4.33,1.37,-3.48,3,1
18218.953,0.309,0.35,0.864,4.73,2.66,-2.62,3,1
18218.953,0.312,0.356,0.864,4.58,3.91,-2.11,3,1
18218.968,0.307,0.358,0.864,3.51,5.43,-1.95,3,1
18218.984,0.303,0.358,0.868,0.7,6.93,-1.95,3,1
18218.984,0.296,0.347,0.877,-1.83,7.51,-2.11,3,1
18219.0,0.293,0.342,0.887,-3.2,7.17,-1.92,3,1
18219.0,0.298,0.347,0.894,-4.24,6.96,-2.08,3,1
18219.031,0.274,0.332,0.919,-5.77,4.85,-1.59,3,1
18219.031,0.281,0.333,0.926,-4.24,2.47,-0.49,3,1
18219.046,0.279,0.331,0.922,-2.04,0.4,-0.03,3,1
18219.062,0.281,0.326,0.921,-0.61,-1.46,0.43,3,1
18219.078,0.286,0.325,0.914,0.64,-3.45,0.37,3,1
18219.078,0.291,0.324,0.9,2.2,-4.91,-0.03,3,1
18219.078,0.293,0.327,0.888,3.54,-5.22,-0.61,3,1
18219.093,0.293,0.334,0.884,4.79,-4.43,-1.19,3,1
18219.109,0.294,0.342,0.881,5.22,-3.81,-1.59,3,1
18219.125,0.291,0.344,0.871,4.64,-3.11,-2.14,3,1
18219.125,0.288,0.345,0.868,3.57,-2.26,-2.47,3,1
18219.14,0.29,0.345,0.871,2.5,-1.43,-2.56,3,1
18219.14,0.299,0.351,0.878,1.04,-0.61,-2.32,3,1
18219.156,0.295,0.349,0.882,-0.58,0.03,-2.08,3,1
18219.171,0.301,0.341,0.886,-0.79,0.76,-1.22,3,1
18219.171,0.304,0.333,0.891,1.07,1.83,-0.46,3,1
18219.187,0.315,0.317,0.897,4.39,3.48,0.15,3,1
18219.203,0.335,0.301,0.9,7.51,5.34,-0.09,3,1
18219.218,0.352,0.266,0.883,14.1,9.34,-2.01,3,1
18219.218,0.372,0.237,0.865,21.94,16.82,-6.53,3,1
18219.234,0.334,0.252,0.829,27.07,25.61,-11.87,3,1
18219.234,0.245,0.354,0.965,17.37,27.13,-15.81,3,1
18219.25,0.268,0.423,1.004,10.1,18.83,-14.74,3,1
18219.265,0.303,0.262,0.918,26.15,15.08,-14.77,3,1
18219.265,0.14,0.42,0.966,23.29,10.01,-16.48,3,1
18219.281,0.216,0.515,0.954,18.34,0.15,-9.92,3,1
18219.281,0.236,0.394,0.872,26.7,-6.53,-6.1,3,1
18219.296,0.219,0.407,0.838,25.3,-5.43,-2.59,3,1
18219.312,0.235,0.433,0.817,22.86,-3.94,-1.62,3,1
18219.312,0.224,0.432,0.837,17.09,-4.15,-1.62,3,1
18219.328,0.221,0.459,0.852,11.54,-7.9,-2.11,3,1
18219.343,0.226,0.476,0.866,4.33,-12.6,-1.4,3,1
18219.343,0.238,0.479,0.872,-3.05,-16.45,0.95,3,1
18219.359,0.25,0.443,0.867,-8.51,-19.1,3.2,3,1
18219.359,0.258,0.406,0.863,-11.75,-20.2,5.37,3,1
18219.375,0.266,0.383,0.866,-12.82,-20.23,7.17,3,1
18219.39,0.248,0.405,0.884,-13.98,-20.72,8.58,3,1
18219.39,0.323,0.375,0.849,-13.55,-21.76,11.6,3,1
18219.406,0.316,0.301,0.816,-8.33,-17.12,9.58,3,1
18219.421,0.305,0.35,0.852,-11.66,-12.15,7.9,3,1
18219.421,0.327,0.364,0.887,-16.02,-10.41,6.2,3,1
18219.437,0.331,0.333,0.872,-14.83,-10.59,1.34,3,1
18219.453,0.333,0.337,0.864,-8.21,-8.51,1.59,3,1
18219.453,0.355,0.364,0.857,-3.94,-4.94,3.78,3,1
18219.468,0.345,0.359,0.856,-0.21,-0.61,3.94,3,1
18219.484,0.321,0.37,0.883,2.56,2.96,4.58,3,1
18219.484,0.309,0.376,0.901,5.1,3.36,5.68,3,1
18219.5,0.299,0.372,0.901,6.38,1.68,6.41,3,1
18219.5,0.298,0.372,0.896,6.53,-0.46,6.35,3,1
18219.515,0.296,0.372,0.886,5.83,-2.32,5.46,3,1
18219.531,0.293,0.369,0.873,4.55,-3.69,4.18,3,1
18219.546,0.292,0.369,0.859,2.5,-4.43,3.17,3,1
18219.546,0.295,0.368,0.847,0.89,-4.33,2.56,3,1
18219.562,0.299,0.372,0.84,0.24,-3.02,1.92,3,1
18219.562,0.301,0.38,0.842,-0.31,-0.76,1.46,3,1
18219.578,0.299,0.386,0.85,-0.55,1.28,1.8,3,1
18219.593,0.296,0.392,0.86,-0.64,2.66,2.87,3,1
18219.593,0.3,0.395,0.867,-0.89,3.51,4.06,3,1
18219.609,0.297,0.393,0.878,-1.31,3.88,4.82,3,1
18219.625,0.292,0.393,0.885,-2.2,3.08,5.62,3,1
18219.625,0.295,0.384,0.882,-3.57,1.37,6.41,3,1
18219.64,0.3,0.373,0.873,-5.19,-0.06,6.44,3,1
18219.64,0.304,0.364,0.867,-6.71,-0.92,5.52,3,1
18219.656,0.309,0.36,0.868,-8.09,-1.13,4.3,3,1
18219.671,0.313,0.359,0.866,-9.31,-1.19,2.87,3,1
18219.671,0.318,0.36,0.866,-10.04,-1.07,1.68,3,1
18219.687,0.318,0.369,0.872,-10.19,-0.52,1.4,3,1
18219.703,0.32,0.367,0.878,-9.43,0.18,1.83,3,1
18219.703,0.319,0.362,0.886,-7.32,0.64,2.66,3,1
18219.718,0.317,0.356,0.886,-4.46,0.79,3.72,3,1
18219.734,0.315,0.349,0.881,-2.2,0.73,4.27,3,1
18219.734,0.318,0.345,0.881,-1.16,0.64,4.24,3,1
18219.75,0.321,0.34,0.877,-0.73,0.79,3.48,3,1
18219.765,0.317,0.336,0.871,-0.24,1.07,2.17,3,1
18219.765,0.316,0.335,0.868,0.24,1.46,0.7,3,1
18219.781,0.313,0.345,0.872,0.46,1.89,-0.79,3,1
18219.781,0.302,0.356,0.876,0.27,2.53,-1.98,3,1
18219.796,0.292,0.36,0.88,-0.09,2.87,-2.26,3,1
18219.812,0.287,0.357,0.887,0.0,3.11,-1.56,3,1
18219.812,0.285,0.351,0.89,0.58,3.2,-0.82,3,1
18219.828,0.281,0.348,0.894,1.59,3.08,-0.34,3,1
18219.843,0.28,0.351,0.9,2.69,2.78,0.37,3,1
18219.843,0.277,0.354,0.903,4.43,2.41,1.01,3,1
18219.859,0.278,0.355,0.902,6.26,1.74,1.43,3,1
18219.859,0.278,0.362,0.896,7.48,0.64,1.56,3,1
18219.89,0.292,0.371,0.884,6.29,-1.77,1.65,3,1
18219.89,0.297,0.372,0.879,5.01,-2.66,1.43,3,1
18219.906,0.3,0.371,0.871,4.09,-3.23,1.16,3,1
18219.921,0.305,0.371,0.864,3.42,-3.39,1.04,3,1
18219.921,0.306,0.374,0.859,2.81,-2.9,0.89,3,1
18219.937,0.306,0.37,0.855,2.14,-1.95,0.67,3,1
18219.953,0.307,0.37,0.861,1.34,-0.79,0.79,3,1
18219.953,0.297,0.372,0.869,1.43,0.24,0.79,3,1
18219.968,0.293,0.371,0.877,2.53,0.46,1.16,3,1
18219.984,0.289,0.376,0.885,3.02,0.67,1.34,3,1
18219.984,0.282,0.371,0.888,3.51,0.12,1.89,3,1
18220.0,0.287,0.372,0.891,3.75,-0.98,2.87,3,1
18220.0,0.29,0.37,0.886,4.12,-1.98,3.17,3,1
18220.015,0.293,0.367,0.879,4.15,-2.81,3.36,3,1
18220.031,0.297,0.368,0.874,3.39,-3.2,2.84,3,1
18220.031,0.3,0.369,0.872,2.69,-3.36,2.23,3,1
18220.046,0.299,0.37,0.868,2.17,-3.27,1.83,3,1
18220.062,0.299,0.371,0.87,1.56,-3.05,2.14,3,1
18220.062,0.301,0.378,0.875,1.07,-2.75,2.62,3,1
18220.078,0.301,0.376,0.875,0.49,-3.08,3.17,3,1
18220.093,0.306,0.369,0.873,0.46,-3.48,3.81,3,1
18220.093,0.312,0.362,0.868,0.79,-3.3,4.03,3,1
18220.109,0.312,0.359,0.864,0.64,-2.53,3.63,3,1
18220.109,0.311,0.351,0.861,0.85,-1.62,2.84,3,1
18220.125,0.309,0.348,0.859,1.53,-0.46,2.01,3,1
18220.14,0.309,0.354,0.859,2.5,1.01,1.28,3,1
18220.14,0.305,0.366,0.868,3.08,2.2,0.79,3,1
18220.156,0.299,0.378,0.881,3.39,2.93,1.04,3,1
18220.171,0.294,0.383,0.887,4.3,2.69,2.23,3,1
18220.171,0.293,0.384,0.89,5.68,1.62,3.51,3,1
18220.187,0.295,0.387,0.892,6.07,0.15,4.64,3,1
18220.203,0.295,0.384,0.885,5.58,-1.5,5.19,3,1
18220.218,0.295,0.379,0.878,4.55,-3.3,5.1,3,1
18220.218,0.296,0.371,0.868,3.69,-4.55,4.82,3,1
18220.234,0.308,0.369,0.86,2.62,-5.65,4.82,3,1
18220.234,0.322,0.378,0.857,1.92,-4.88,4.03,3,1
18220.25,0.316,0.371,0.851,1.56,-3.11,2.99,3,1
18220.265,0.317,0.364,0.849,1.28,-1.62,2.62,3,1
18220.265,0.318,0.37,0.855,1.98,0.95,2.41,3,1
18220.281,0.32,0.377,0.861,2.14,1.95,2.35,3,1
18220.296,0.317,0.374,0.865,1.95,2.2,2.17,3,1
18220.296,0.312,0.372,0.872,2.01,1.5,1.92,3,1
18220.312,0.311,0.376,0.881,2.62,0.76,1.71,3,1
18220.312,0.309,0.375,0.878,3.42,0.06,1.31,3,1
18220.328,0.31,0.376,0.87,3.75,-0.7,1.04,3,1
18220.343,0.309,0.379,0.863,3.45,-1.37,0.58,3,1
18220.343,0.315,0.378,0.855,2.72,-1.34,0.37,3,1
18220.359,0.318,0.381,0.851,2.2,-0.7,0.06,3,1
18220.375,0.319,0.377,0.846,1.86,0.06,-0.31,3,1
18220.375,0.319,0.378,0.846,1.25,1.31,-0.4,3,1
18220.39,0.32,0.376,0.85,1.28,3.3,-0.73,3,1
18220.406,0.308,0.371,0.86,1.83,6.38,-1.68,3,1
18220.421,0.304,0.378,0.869,1.5,7.11,-1.98,3,1
18220.421,0.298,0.38,0.882,1.01,7.17,-2.23,3,1
18220.437,0.287,0.377,0.888,0.64,6.2,-2.38,3,1
18220.453,0.285,0.381,0.894,0.82,4.73,-1.86,3,1
18220.453,0.283,0.38,0.896,1.62,3.2,-1.28,3,1
18220.468,0.282,0.374,0.893,2.69,1.5,-0.76,3,1
18220.484,0.288,0.377,0.889,3.05,-0.24,-0.58,3,1
18220.484,0.288,0.375,0.882,3.54,-1.5,-0.82,3,1
18220.5,0.291,0.376,0.875,3.97,-2.41,-0.76,3,1
18220.515,0.299,0.38,0.867,4.43,-3.08,-0.92,3,1
18220.515,0.3,0.386,0.859,4.7,-2.84,-1.37,3,1
18220.531,0.301,0.397,0.849,4.61,-1.98,-1.77,3,1
18220.531,0.299,0.398,0.843,3.85,-1.13,-1.83,3,1
18220.546,0.296,0.406,0.849,2.47,-0.46,-1.28,3,1
18220.562,0.294,0.414,0.856,1.37,0.06,-0.43,3,1
18220.578,0.289,0.415,0.871,-1.07,0.0,1.65,3,1
18220.593,0.289,0.406,0.873,-1.92,-0.92,2.87,3,1
18220.593,0.295,0.394,0.87,-2.87,-1.95,3.63,3,1
18220.609,0.304,0.385,0.864,-4.03,-2.47,3.85,3,1
18220.609,0.312,0.374,0.859,-5.04,-2.56,3.54,3,1
18220.625,0.324,0.363,0.857,-5.16,-2.2,3.2,3,1
18220.64,0.333,0.359,0.855,-4.79,-1.04,2.44,3,1
18220.64,0.337,0.355,0.856,-3.88,0.52,0.98,3,1
18220.656,0.338,0.357,0.85,-2.78,1.89,-0.61,3,1
18220.671,0.337,0.358,0.846,-1.53,3.39,-2.32,3,1
18220.671,0.335,0.375,0.853,-1.37,5.68,-3.75,3,1
18220.687,0.32,0.38,0.851,-1.92,7.75,-5.28,3,1
18220.703,0.313,0.38,0.853,-1.89,9.03,-5.83,3,1
18220.703,0.304,0.387,0.858,-0.89,9.64,-5.28,3,1
18220.718,0.298,0.394,0.864,-0.82,10.53,-4.55,3,1
18220.734,0.287,0.386,0.868,-0.98,11.14,-4.43,3,1
18220.734,0.275,0.375,0.869,-0.85,11.32,-4.46,3,1
18220.75,0.266,0.374,0.867,-0.31,11.02,-4.15,3,1
18220.75,0.266,0.377,0.874,-0.24,11.08,-4.3,3,1
18220.765,0.259,0.381,0.878,-1.46,11.87,-5.34,3,1
18220.781,0.235,0.376,0.88,-2.84,11.69,-6.38,3,1
18220.796,0.227,0.382,0.894,-4.43,9.8,-5.83,3,1
18220.796,0.233,0.389,0.906,-5.68,8.12,-5.07,3,1
18220.812,0.229,0.386,0.91,-6.59,6.41,-4.43,3,1
18220.812,0.23,0.377,0.91,-6.74,3.6,-2.69,3,1
18220.828,0.246,0.376,0.915,-5.52,0.52,-0.12,3,1
18220.843,0.258,0.386,0.92,-4.43,-1.46,1.43,3,1
18220.843,0.261,0.382,0.924,-4.3,-2.93,2.08,3,1
18220.859,0.264,0.366,0.911,-2.5,-5.01,2.69,3,1
18220.875,0.275,0.355,0.893,0.03,-6.93,3.05,3,1
18220.875,0.287,0.354,0.879,1.46,-7.35,2.2,3,1
18220.89,0.284,0.348,0.869,2.56,-6.29,0.55,3,1
18220.89,0.287,0.35,0.864,4.49,-4.79,-0.67,3,1
18220.906,0.285,0.367,0.86,6.38,-3.3,-1.37,3,1
18220.921,0.286,0.375,0.863,7.75,-1.98,-1.62,3,1
18220.921,0.288,0.391,0.867,7.69,-0.27,-1.74,3,1
18220.937,0.285,0.391,0.869,7.69,0.52,-1.92,3,1
18220.953,0.286,0.392,0.87,7.54,0.67,-1.31,3,1
18220.953,0.295,0.394,0.871,7.45,1.04,-0.46,3,1
18220.968,0.293,0.397,0.867,7.11,1.68,-0.03,3,1
18220.968,0.294,0.39,0.873,5.19,2.23,-0.09,3,1
18220.984,0.287,0.384,0.872,3.51,2.04,0.0,3,1
18221.0,0.292,0.378,0.858,2.81,2.29,0.31,3,1
18221.0,0.288,0.376,0.837,1.28,3.54,-0.06,3,1
18221.015,0.29,0.383,0.825,-1.65,6.59,0.21,3,1
18221.031,0.291,0.405,0.807,-3.2,11.44,1.62,3,1
18221.031,0.292,0.41,0.808,-3.75,16.33,2.99,3,1
18221.046,0.339,0.363,0.759,-0.46,22.1,3.14,3,1
18221.062,0.243,0.31,0.824,2.2,30.82,-1.92,3,1
18221.062,0.189,0.494,0.979,-14.89,25.73,-4.82,3,1
18221.078,0.23,0.459,0.986,-17.12,14.95,-3.88,3,1
18221.093,0.2,0.396,0.953,-13.18,6.62,-4.88,3,1
18221.093,0.22,0.41,0.943,-11.14,0.67,-2.69,3,1
18221.109,0.224,0.391,0.932,-7.14,-2.32,-0.43,3,1
18221.125,0.219,0.353,0.926,-3.2,-4.27,1.04,3,1
18221.125,0.232,0.333,0.931,-1.16,-6.9,2.17,3,1
18221.14,0.244,0.326,0.928,0.67,-9.22,1.68,3,1
18221.14,0.249,0.323,0.918,3.45,-10.65,0.4,3,1
18221.156,0.258,0.332,0.914,6.53,-11.47,-0.61,3,1
18221.171,0.257,0.344,0.913,9.98,-12.09,-1.5,3,1
18221.171,0.253,0.356,0.906,12.39,-13.03,-1.68,3,1
18221.187,0.235,0.381,0.919,13.46,-14.8,-1.86,3,1
18221.203,0.249,0.442,0.919,11.54,-19.44,-0.7,3,1
18221.203,0.307,0.362,0.834,17.73,-20.78,0.64,3,1
18221.218,0.245,0.387,0.83,18.25,-16.82,-1.28,3,1
18221.234,0.279,0.454,0.863,9.55,-15.69,0.58,3,1
18221.234,0.267,0.426,0.854,8.48,-15.53,0.92,3,1
18221.25,0.253,0.425,0.841,-6.01,-17.7,1.65,3,1
18221.25,0.277,0.431,0.86,-11.08,-18.8,0.24,3,1
18221.265,0.278,0.409,0.877,-6.78,-18.19,3.33,3,1
18221.281,0.281,0.392,0.85,-5.1,-16.63,5.98,3,1
18221.281,0.316,0.392,0.826,-4.73,-12.48,6.84,3,1
18221.296,0.324,0.377,0.826,-4.58,-8.58,7.29,3,1
18221.312,0.326,0.371,0.821,-5.13,-4.7,6.96,3,1
18221.312,0.32,0.364,0.823,-5.31,-0.79,5.77,3,1
18221.328,0.321,0.361,0.838,-4.55,2.08,4.36,3,1
18221.343,0.315,0.371,0.856,-4.64,4.15,2.78,3,1
18221.343,0.302,0.383,0.878,-5.07,5.16,1.25,3,1
18221.359,0.288,0.386,0.896,-5.19,4.43,0.27,3,1
18221.375,0.282,0.384,0.901,-4.82,2.2,-0.18,3,1
18221.375,0.278,0.387,0.901,-3.97,-0.21,-0.21,3,1
18221.39,0.276,0.391,0.902,-3.42,-1.98,0.4,3,1
18221.39,0.275,0.388,0.894,-2.66,-3.75,1.31,3,1
18221.406,0.276,0.385,0.883,-2.17,-5.77,2.23,3,1
18221.421,0.286,0.391,0.869,-2.53,-7.23,3.08,3,1
18221.437,0.301,0.39,0.856,-5.55,-6.93,4.55,3,1
18221.453,0.307,0.391,0.857,-6.35,-6.04,5.55,3,1
18221.468,0.308,0.381,0.865,-6.5,-4.73,7.57,3,1
18221.468,0.305,0.371,0.882,-5.89,-3.2,10.19,3,1
18221.484,0.305,0.365,0.9,-3.11,-2.29,13.49,3,1
18221.484,0.301,0.361,0.918,2.04,-1.8,17.52,3,1
18221.5,0.29,0.361,0.93,8.91,-1.86,22.52,3,1
18221.515,0.29,0.366,0.94,16.05,-2.44,27.89,3,1
18221.515,0.29,0.368,0.933,23.26,-3.02,32.65,3,1
18221.531,0.273,0.359,0.914,29.3,-3.39,36.93,3,1
18221.531,0.283,0.353,0.918,34.21,-3.48,41.93,3,1
18221.546,0.276,0.356,0.932,41.05,-1.5,46.51,3,1
18221.562,0.258,0.368,0.937,52.34,2.23,51.06,3,1
18221.562,0.228,0.402,0.932,65.13,5.89,56.98,3,1
18221.578,0.213,0.447,0.927,76.6,9.4,65.58,3,1
18221.593,0.207,0.505,0.942,86.25,11.9,74.95,3,1
18221.609,0.184,0.682,0.942,93.3,14.31,91.04,3,1
18221.625,0.199,0.773,0.911,83.99,17.52,100.68,3,1
18221.625,0.221,0.857,0.895,65.4,22.4,110.05,3,1
18221.64,0.274,0.875,0.871,41.17,22.1,118.41,3,1
18221.656,0.23,0.839,0.808,17.49,14.8,125.03,3,1
18221.656,0.279,0.921,0.82,-2.59,47.91,111.7,3,1
18221.671,0.305,1.097,0.875,-60.46,88.29,94.45,3,1
18221.687,0.095,0.817,0.971,-129.76,89.85,103.43,3,1
18221.687,0.047,0.774,1.035,-176.03,87.5,112.8,3,1
18221.703,0.04,0.686,1.088,-204.96,71.38,129.98,3,1
18221.718,0.076,0.499,1.118,-225.59,51.21,143.16,3,1
18221.718,0.131,0.387,1.14,-240.85,32.01,147.07,3,1
18221.734,0.128,0.274,1.163,-244.82,13.73,143.28,3,1
18221.734,0.131,0.16,1.199,-240.15,-7.51,139.59,3,1
18221.75,0.17,0.06,1.208,-226.81,-28.69,137.64,3,1
18221.765,0.205,-0.024,1.168,-204.69,-44.62,136.05,3,1
18221.765,0.256,-0.076,1.132,-180.0,-55.51,134.46,3,1
18221.781,0.317,-0.075,1.094,-159.18,-60.55,131.44,3,1
18221.781,0.348,-0.059,1.028,-144.9,-60.12,127.51,3,1
18221.796,0.368,-0.038,0.983,-137.7,-55.57,124.39,3,1
18221.812,0.351,-0.036,0.921,-136.51,-49.38,124.67,3,1
18221.812,0.347,-0.059,0.864,-139.26,-43.21,129.15,3,1
18221.828,0.359,-0.077,0.852,-143.44,-35.1,134.56,3,1
18221.843,0.348,-0.107,0.858,-145.21,-27.99,138.37,3,1
18221.843,0.331,-0.14,0.865,-144.96,-25.24,139.93,3,1
18221.859,0.322,-0.144,0.9,-141.76,-27.13,140.35,3,1
18221.875,0.294,-0.16,0.896,-131.9,-30.85,141.91,3,1
18221.875,0.262,-0.211,0.848,-119.48,-36.62,146.06,3,1
18221.89,0.322,-0.231,0.811,-110.66,-41.47,151.1,3,1
18221.89,0.352,-0.242,0.763,-102.63,-38.67,152.1,3,1
18221.906,0.356,-0.272,0.708,-94.52,-32.84,151.07,3,1
18221.921,0.377,-0.308,0.655,-88.26,-25.21,150.36,3,1
18221.937,0.374,-0.373,0.588,-79.44,-3.85,147.95,3,1
18221.953,0.388,-0.397,0.554,-72.27,10.01,148.63,3,1
18221.968,0.377,-0.427,0.545,-62.11,27.07,148.66,3,1
18221.968,0.322,-0.458,0.534,-49.17,44.92,149.08,3,1
18221.984,0.267,-0.47,0.532,-38.42,59.72,151.55,3,1
18221.984,0.232,-0.488,0.56,-32.59,69.19,153.87,3,1
18222.0,0.208,-0.515,0.594,-32.44,73.15,153.26,3,1
18222.0,0.184,-0.541,0.624,-37.63,73.82,150.33,3,1
18222.015,0.146,-0.576,0.626,-45.84,72.27,146.86,3,1
18222.031,0.129,-0.633,0.626,-54.75,69.73,143.44,3,1
18222.031,0.131,-0.674,0.647,-61.22,70.04,139.1,3,1
18222.046,0.089,-0.716,0.662,-62.84,72.02,133.21,3,1
18222.062,0.054,-0.767,0.685,-61.4,70.93,126.62,3,1
18222.078,0.034,-0.776,0.725,-57.99,67.87,119.21,3,1
18222.078,-0.006,-0.788,0.733,-52.37,61.89,111.15,3,1
18222.093,-0.014,-0.801,0.732,-49.56,53.74,103.67,3,1
18222.109,-0.015,-0.789,0.749,-49.41,46.69,96.13,3,1
18222.109,-0.027,-0.793,0.735,-47.24,40.38,88.99,3,1
18222.125,-0.025,-0.797,0.701,-45.38,37.05,83.29,3,1
18222.125,-0.01,-0.793,0.699,-43.73,38.06,78.92,3,1
18222.14,-0.012,-0.789,0.705,-40.13,41.81,74.62,3,1
18222.14,-0.032,-0.775,0.685,-37.6,46.45,69.4,3,1
18222.156,-0.062,-0.769,0.659,-40.31,50.08,64.09,3,1
18222.171,-0.097,-0.773,0.679,-45.9,52.19,58.5,3,1
18222.187,-0.141,-0.787,0.708,-48.92,49.65,53.44,3,1
18222.187,-0.172,-0.798,0.725,-47.46,42.7,49.9,3,1
18222.203,-0.185,-0.803,0.736,-42.02,32.69,47.85,3,1
18222.203,-0.191,-0.8,0.729,-33.57,21.64,47.15,3,1
18222.218,-0.193,-0.807,0.693,-25.21,11.63,47.73,3,1
18222.234,-0.16,-0.805,0.657,-20.84,3.72,47.64,3,1
18222.234,-0.133,-0.8,0.608,-21.61,0.55,42.88,3,1
18222.25,-0.143,-0.802,0.559,-26.86,2.44,41.6,3,1
18222.265,-0.142,-0.821,0.52,-30.79,6.26,40.35,3,1
18222.265,-0.137,-0.862,0.508,-32.5,11.35,37.66,3,1
18222.281,-0.166,-0.902,0.532,-30.76,14.07,34.94,3,1
18222.281,-0.181,-0.927,0.558,-23.87,14.74,32.56,3,1
18222.296,-0.196,-0.924,0.581,-12.94,14.16,29.51,3,1
18222.312,-0.201,-0.906,0.593,-0.03,11.57,26.18,3,1
18222.312,-0.196,-0.883,0.573,10.86,8.73,23.9,3,1
18222.328,-0.18,-0.83,0.556,15.44,7.51,22.03,3,1
18222.343,-0.141,-0.791,0.563,12.73,7.9,20.2,3,1
18222.343,-0.144,-0.783,0.552,5.13,10.19,16.54,3,1
18222.359,-0.139,-0.77,0.56,-9.03,11.96,13.79,3,1
18222.375,-0.141,-0.771,0.585,-21.15,13.34,12.39,3,1
18222.375,-0.162,-0.784,0.6,-29.24,14.34,11.44,3,1
18222.39,-0.159,-0.792,0.599,-36.41,12.12,10.9,3,1
18222.406,-0.139,-0.793,0.595,-42.27,10.32,9.34,3,1
18222.406,-0.135,-0.803,0.591,-45.93,9.89,6.38,3,1
18222.421,-0.119,-0.797,0.582,-49.41,9.55,2.35,3,1
18222.421,-0.127,-0.796,0.609,-52.13,7.9,-2.9,3,1
18222.437,-0.141,-0.81,0.656,-48.74,6.5,-5.01,3,1
18222.453,-0.154,-0.775,0.668,-38.54,3.75,-4.15,3,1
18222.468,-0.168,-0.72,0.665,-26.58,-0.61,-2.29,3,1
18222.468,-0.187,-0.68,0.625,-19.04,-8.64,-0.06,3,1
18222.468,-0.182,-0.634,0.613,-18.92,-21.49,1.8,3,1
18222.484,-0.164,-0.643,0.589,-22.46,-35.0,5.1,3,1
18222.5,-0.07,-0.624,0.559,-27.56,-39.52,8.85,3,1
18222.515,-0.098,-0.635,0.54,-29.11,-34.27,9.49,3,1
18222.515,-0.136,-0.657,0.526,-28.17,-32.04,12.09,3,1
18222.531,-0.178,-0.657,0.538,-25.76,-32.32,15.23,3,1
18222.531,-0.247,-0.673,0.548,-22.0,-36.16,19.81,3,1
18222.546,-0.278,-0.682,0.525,-20.36,-46.42,26.7,3,1
18222.562,-0.189,-0.674,0.541,-22.37,-57.56,32.96,3,1
18222.562,-0.137,-0.699,0.536,-23.35,-59.42,34.46,3,1
18222.578,-0.134,-0.765,0.498,-23.77,-57.92,33.11,3,1
18222.593,-0.082,-0.803,0.522,-21.85,-54.96,32.59,3,1
18222.609,-0.184,-0.836,0.501,-6.56,-39.46,26.95,3,1
18222.625,-0.174,-0.846,0.54,-6.99,-40.86,25.18,3,1
18222.625,-0.169,-0.857,0.557,-4.97,-40.22,20.87,3,1
18222.64,-0.2,-0.875,0.545,-3.08,-38.51,16.45,3,1
18222.64,-0.181,-0.876,0.563,-3.72,-37.84,14.62,3,1
18222.656,-0.167,-0.897,0.547,-3.72,-35.68,11.81,3,1
18222.671,-0.133,-0.911,0.513,-5.34,-31.59,8.45,3,1
18222.687,-0.102,-0.922,0.518,-6.78,-24.14,4.0,3,1
18222.687,-0.106,-0.925,0.56,-4.82,-14.22,-0.55,3,1
18222.703,-0.14,-0.907,0.588,0.03,-4.33,-2.84,3,1
18222.703,-0.153,-0.882,0.575,3.54,2.23,-3.2,3,1
18222.718,-0.166,-0.834,0.58,1.71,6.23,-4.15,3,1
18222.734,-0.188,-0.81,0.606,-4.46,6.35,-6.04,3,1
18222.734,-0.173,-0.81,0.626,-9.86,3.33,-7.2,3,1
18222.75,-0.158,-0.808,0.636,-10.38,1.65,-7.69,3,1
18222.765,-0.158,-0.786,0.68,-7.17,0.4,-7.08,3,1
18222.781,-0.154,-0.749,0.651,0.37,-5.4,-0.95,3,1
18222.781,-0.126,-0.751,0.632,-0.95,-7.9,1.16,3,1
18222.796,-0.112,-0.76,0.611,-1.89,-8.58,1.34,3,1
18222.812,-0.102,-0.759,0.602,-1.92,-7.42,1.28,3,1
18222.812,-0.108,-0.756,0.595,-1.04,-4.88,1.95,3,1
18222.828,-0.111,-0.767,0.578,-0.61,-2.38,2.87,3,1
18222.843,-0.124,-0.773,0.581,-0.52,0.31,3.39,3,1
18222.843,-0.159,-0.793,0.576,0.09,2.78,3.94,3,1
18222.859,-0.172,-0.807,0.586,0.03,2.75,3.94,3,1
18222.875,-0.184,-0.818,0.588,1.16,2.04,2.47,3,1
18222.875,-0.193,-0.829,0.583,2.59,1.1,1.28,3,1
18222.89,-0.184,-0.818,0.593,3.23,0.64,1.04,3,1
18222.906,-0.165,-0.812,0.593,3.57,0.27,1.13,3,1
18222.906,-0.142,-0.799,0.592,2.93,0.15,0.43,3,1
18222.921,-0.15,-0.784,0.597,2.23,1.13,-0.73,3,1
18222.921,-0.159,-0.783,0.609,1.13,1.25,-1.83,3,1
18222.953,-0.154,-0.778,0.611,2.72,1.74,-2.44,3,1
18222.953,-0.148,-0.786,0.595,3.45,2.47,-2.53,3,1
18222.968,-0.144,-0.794,0.587,3.57,4.03,-3.3,3,1
18222.984,-0.154,-0.795,0.583,3.02,5.95,-4.61,3,1
18222.984,-0.179,-0.795,0.582,1.56,7.48,-5.37,3,1
18223.0,-0.185,-0.797,0.602,-1.04,6.38,-5.28,3,1
18223.015,-0.19,-0.791,0.635,-1.65,4.33,-4.55,3,1
18223.015,-0.201,-0.792,0.638,-0.34,2.23,-3.14,3,1
18223.031,-0.179,-0.784,0.646,0.73,-1.1,-1.25,3,1
18223.031,-0.178,-0.762,0.648,1.92,-3.48,-0.49,3,1
18223.046,-0.187,-0.758,0.644,1.16,-5.92,0.0,3,1
18223.062,-0.166,-0.765,0.643,-0.95,-9.7,1.1,3,1
18223.062,-0.14,-0.779,0.625,-1.86,-11.38,2.32,3,1
18223.078,-0.131,-0.79,0.604,-3.2,-10.47,2.81,3,1
18223.093,-0.123,-0.808,0.584,-5.28,-8.51,2.9,3,1
18223.093,-0.117,-0.827,0.577,-6.71,-4.55,1.86,3,1
18223.125,-0.122,-0.862,0.574,-6.41,5.28,-2.9,3,1
18223.125,-0.159,-0.854,0.599,-4.64,9.8,-6.07,3,1
18223.14,-0.216,-0.833,0.609,-2.41,11.99,-6.84,3,1
18223.14,-0.242,-0.806,0.633,-3.11,9.09,-5.19,3,1
18223.156,-0.233,-0.792,0.649,-4.91,2.62,-3.6,3,1
18223.171,-0.201,-0.799,0.634,-6.5,-4.09,-2.87,3,1
18223.171,-0.162,-0.806,0.614,-6.41,-8.09,-3.17,3,1
18223.187,-0.14,-0.809,0.598,-4.36,-9.0,-4.73,3,1
18223.203,-0.129,-0.809,0.58,-2.26,-7.63,-6.44,3,1
18223.203,-0.119,-0.802,0.571,-1.07,-4.94,-7.54,3,1
18223.218,-0.116,-0.783,0.569,-0.15,1.83,-7.97,3,1
18223.234,-0.129,-0.765,0.572,-0.92,3.63,-6.78,3,1
18223.234,-0.136,-0.754,0.582,-0.89,4.0,-4.91,3,1
18223.25,-0.15,-0.742,0.597,-0.82,3.51,-1.83,3,1
18223.265,-0.158,-0.737,0.594,-3.45,1.59,1.74,3,1
18223.265,-0.137,-0.754,0.611,-6.44,-0.21,4.33,3,1
18223.281,-0.143,-0.765,0.603,-7.23,-1.4,4.88,3,1
18223.281,-0.13,-0.785,0.603,-7.9,-3.51,4.3,3,1
18223.296,-0.113,-0.821,0.61,-6.41,-3.69,3.39,3,1
18223.312,-0.107,-0.832,0.599,-1.37,-2.53,1.01,3,1
18223.312,-0.116,-0.821,0.589,3.54,-0.37,-2.14,3,1
18223.328,-0.148,-0.797,0.592,5.74,1.25,-4.73,3,1
18223.343,-0.183,-0.793,0.598,5.74,2.01,-4.21,3,1
18223.343,-0.18,-0.784,0.596,4.73,0.64,-1.68,3,1
18223.359,-0.165,-0.786,0.591,2.84,-0.09,-0.21,3,1
18223.375,-0.173,-0.795,0.586,0.21,1.13,1.1,3,1
18223.375,-0.171,-0.809,0.586,-2.59,1.5,1.95,3,1
18223.39,-0.157,-0.816,0.598,-4.73,1.34,2.04,3,1
18223.39,-0.171,-0.808,0.609,-5.13,1.07,1.04,3,1
18223.406,-0.181,-0.817,0.61,-4.97,0.12,1.34,3,1
18223.421,-0.158,-0.818,0.614,-4.3,-1.8,2.14,3,1
18223.421,-0.139,-0.816,0.603,-2.72,-3.02,1.07,3,1
18223.437,-0.132,-0.812,0.595,-2.26,-3.42,-1.07,3,1
18223.453,-0.131,-0.817,0.591,-2.11,-2.41,-2.87,3,1
18223.453,-0.145,-0.813,0.594,-1.13,-0.49,-3.91,3,1
18223.468,-0.161,-0.797,0.579,-0.15,0.67,-4.46,3,1
18223.484,-0.16,-0.787,0.56,0.03,1.28,-3.85,3,1
18223.484,-0.159,-0.775,0.571,-0.61,1.65,-2.93,3,1
18223.5,-0.168,-0.771,0.575,-1.16,2.04,-2.11,3,1
18223.515,-0.167,-0.766,0.582,-2.08,1.71,-0.61,3,1
18223.515,-0.163,-0.764,0.589,-2.53,1.25,1.16,3,1
18223.531,-0.162,-0.768,0.594,-2.5,0.67,2.62,3,1
18223.531,-0.153,-0.772,0.6,-2.23,-0.09,3.97,3,1
18223.546,-0.153,-0.781,0.595,-1.53,-0.52,4.79,3,1
18223.562,-0.153,-0.794,0.596,-1.53,-0.95,4.76,3,1
18223.578,-0.156,-0.806,0.59,-1.4,-1.07,4.0,3,1
18223.578,-0.155,-0.818,0.586,-0.7,-1.01,2.9,3,1
18223.593,-0.154,-0.826,0.581,0.49,-0.64,1.65,3,1
18223.593,-0.153,-0.824,0.573,1.53,0.12,0.61,3,1
18223.609,-0.162,-0.811,0.573,1.1,1.19,0.18,3,1
18223.625,-0.173,-0.806,0.575,-0.34,1.95,0.43,3,1
18223.625,-0.177,-0.806,0.595,-1.65,2.38,1.46,3,1
18223.64,-0.18,-0.8,0.6,-1.28,2.01,2.38,3,1
18223.656,-0.176,-0.796,0.599,-1.31,1.22,3.42,3,1
18223.656,-0.165,-0.792,0.592,-2.26,-0.52,3.57,3,1
18223.671,-0.159,-0.795,0.592,-4.03,-1.62,3.27,3,1
18223.671,-0.156,-0.804,0.589,-5.95,-1.13,3.94,3,1
18223.687,-0.151,-0.802,0.586,-6.44,-1.56,3.75,3,1
18223.703,-0.151,-0.811,0.583,-6.29,-2.04,2.99,3,1
18223.703,-0.151,-0.817,0.581,-5.86,-1.07,2.72,3,1
18223.718,-0.151,-0.81,0.582,-4.27,-0.52,2.08,3,1
18223.734,-0.16,-0.806,0.581,-3.17,-0.31,1.25,3,1
18223.734,-0.173,-0.803,0.583,-3.54,-0.58,0.95,3,1
18223.75,-0.17,-0.801,0.578,-4.33,-1.98,0.95,3,1
18223.75,-0.162,-0.806,0.574,-4.85,-2.87,1.01,3,1
18223.765,-0.156,-0.815,0.577,-4.79,-2.78,0.98,3,1
18223.781,-0.159,-0.813,0.581,-3.39,-3.02,0.03,3,1
18223.781,-0.168,-0.812,0.581,-1.65,-3.69,-1.19,3,1
18223.796,-0.161,-0.807,0.583,-0.06,-5.04,-1.71,3,1
18223.812,-0.156,-0.799,0.578,1.86,-5.86,-2.01,3,1
18223.812,-0.156,-0.8,0.566,2.69,-5.65,-1.98,3,1
18223.828,-0.152,-0.803,0.563,2.35,-4.85,-1.77,3,1
18223.843,-0.158,-0.802,0.563,2.41,-4.09,-1.56,3,1
18223.843,-0.164,-0.805,0.555,1.95,-3.63,-1.13,3,1
18223.859,-0.163,-0.81,0.56,1.62,-2.66,-0.58,3,1
18223.875,-0.166,-0.808,0.566,2.2,-1.65,0.09,3,1
18223.875,-0.168,-0.803,0.576,2.26,-1.31,0.85,3,1
18223.89,-0.172,-0.805,0.581,1.19,-1.5,1.77,3,1
18223.89,-0.166,-0.81,0.585,-0.4,-2.2,2.32,3,1
18223.906,-0.151,-0.814,0.59,-0.79,-3.17,1.98,3,1
18223.921,-0.147,-0.816,0.59,-0.03,-2.9,1.4,3,1
18223.921,-0.142,-0.818,0.589,0.58,-2.23,1.22,3,1
18223.937,-0.137,-0.811,0.592,1.31,-1.43,0.73,3,1
18223.953,-0.144,-0.81,0.589,1.92,-0.34,0.34,3,1
18223.953,-0.152,-0.813,0.586,2.11,-0.03,0.27,3,1
18223.968,-0.155,-0.814,0.585,2.23,0.15,0.09,3,1
18223.984,-0.169,-0.809,0.59,2.78,0.37,0.03,3,1
18223.984,-0.175,-0.803,0.584,2.9,0.18,0.58,3,1
18224.0,-0.177,-0.801,0.58,1.71,-0.49,1.07,3,1
18224.015,-0.18,-0.807,0.577,-0.27,-1.25,1.43,3,1
18224.015,-0.176,-0.814,0.578,-1.65,-2.32,1.68,3,1
18224.031,-0.166,-0.824,0.575,-1.62,-2.69,1.43,3,1
18224.031,-0.163,-0.818,0.57,-0.43,-2.38,0.79,3,1
18224.046,-0.165,-0.818,0.566,0.92,-1.98,0.12,3,1
18224.062,-0.164,-0.81,0.567,2.04,-1.68,-0.31,3,1
18224.062,-0.162,-0.796,0.564,2.96,-1.59,-0.61,3,1
18224.078,-0.162,-0.787,0.559,2.44,-1.19,-0.61,3,1
18224.093,-0.17,-0.79,0.557,1.16,-0.58,-0.52,3,1
18224.109,-0.167,-0.798,0.558,0.7,-0.43,-0.18,3,1
18224.109,-0.166,-0.798,0.556,1.4,-0.03,0.24,3,1
18224.109,-0.166,-0.8,0.554,1.53,0.52,0.49,3,1
18224.125,-0.171,-0.805,0.56,1.37,0.64,0.61,3,1
18224.14,-0.172,-0.815,0.557,1.43,-0.21,1.07,3,1
18224.14,-0.158,-0.818,0.557,1.5,-1.34,1.37,3,1
18224.156,-0.158,-0.824,0.561,1.56,-1.77,0.7,3,1
18224.171,-0.163,-0.829,0.567,1.95,-1.8,0.37,3,1
18224.171,-0.159,-0.823,0.573,3.17,-1.77,0.55,3,1
18224.187,-0.156,-0.816,0.573,4.39,-1.74,0.55,3,1
18224.203,-0.152,-0.813,0.572,3.78,-1.74,0.34,3,1
18224.203,-0.149,-0.816,0.572,0.46,-1.01,0.76,3,1
18224.218,-0.144,-0.825,0.572,-0.4,-0.18,1.34,3,1
18224.234,-0.148,-0.826,0.569,-1.74,0.06,1.92,3,1
18224.234,-0.175,-0.827,0.567,-3.33,-0.79,2.78,3,1
18224.25,-0.178,-0.837,0.566,-4.73,-2.9,3.75,3,1
18224.25,-0.178,-0.85,0.558,-5.65,-5.07,4.18,3,1
18224.265,-0.183,-0.865,0.545,-5.8,-6.5,4.15,3,1
18224.281,-0.185,-0.873,0.525,-6.04,-7.78,3.81,3,1
18224.281,-0.178,-0.88,0.503,-6.87,-8.48,3.3,3,1
18224.296,-0.177,-0.887,0.483,-7.93,-8.48,2.26,3,1
18224.312,-0.18,-0.886,0.461,-8.94,-8.85,1.28,3,1
18224.328,-0.179,-0.887,0.447,-9.83,-9.37,0.67,3,1
18224.328,-0.174,-0.886,0.439,-10.96,-8.97,0.61,3,1
18224.343,-0.167,-0.891,0.438,-12.24,-8.18,0.89,3,1
18224.343,-0.164,-0.9,0.44,-13.86,-7.02,1.19,3,1
18224.359,-0.168,-0.91,0.441,-15.44,-5.95,0.58,3,1
18224.375,-0.178,-0.915,0.439,-16.79,-4.7,-0.46,3,1
18224.375,-0.187,-0.924,0.438,-17.94,-4.21,-2.08,3,1
18224.39,-0.187,-0.925,0.443,-17.91,-4.67,-4.15,3,1
18224.39,-0.191,-0.925,0.443,-15.59,-5.01,-6.47,3,1
18224.406,-0.19,-0.92,0.443,-11.14,-5.58,-7.9,3,1
18224.421,-0.173,-0.904,0.433,-6.35,-6.38,-8.73,3,1
18224.421,-0.164,-0.887,0.422,-3.27,-5.4,-9.06,3,1
18224.437,-0.172,-0.876,0.417,-2.78,-3.11,-8.64,3,1
18224.453,-0.172,-0.872,0.424,-4.15,-1.89,-7.2,3,1
18224.453,-0.158,-0.865,0.425,-5.62,0.03,-5.68,3,1
18224.468,-0.168,-0.876,0.418,-8.39,2.75,-4.43,3,1
18224.484,-0.158,-0.886,0.428,-12.09,3.6,-3.2,3,1
18224.484,-0.153,-0.899,0.444,-13.82,3.97,-3.17,3,1
18224.5,-0.145,-0.914,0.454,-13.06,3.94,-3.75,3,1
18224.515,-0.133,-0.922,0.474,-9.86,4.3,-4.46,3,1
18224.515,-0.134,-0.917,0.486,-4.85,5.49,-5.62,3,1
18224.531,-0.141,-0.905,0.481,-0.95,6.68,-6.78,3,1
18224.531,-0.149,-0.889,0.483,-0.12,6.71,-8.09,3,1
18224.546,-0.129,-0.873,0.488,-0.92,5.77,-9.77,3,1
18224.562,-0.115,-0.867,0.492,-0.46,6.35,-12.18,3,1
18224.562,-0.108,-0.869,0.495,1.34,8.24,-14.25,3,1
18224.578,-0.102,-0.855,0.508,4.43,10.25,-15.53,3,1
18224.593,-0.111,-0.834,0.515,6.71,11.69,-16.11,3,1
18224.593,-0.116,-0.815,0.521,5.25,10.28,-15.81,3,1
18224.609,-0.125,-0.811,0.532,1.59,7.39,-15.11,3,1
18224.625,-0.126,-0.827,0.529,-1.13,3.72,-14.25,3,1
18224.625,-0.119,-0.846,0.524,-0.55,0.82,-13.55,3,1
18224.64,-0.11,-0.861,0.52,2.75,-1.04,-13.76,3,1
18224.64,-0.093,-0.864,0.511,6.81,-2.41,-15.23,3,1
18224.656,-0.074,-0.841,0.508,9.92,-1.89,-18.04,3,1
18224.671,-0.094,-0.836,0.507,11.57,-0.12,-21.09,3,1
18224.671,-0.101,-0.811,0.519,11.35,0.03,-21.88,3,1
18224.687,-0.112,-0.768,0.543,9.77,-0.43,-20.84,3,1
18224.703,-0.126,-0.748,0.548,6.13,-1.31,-17.76,3,1
18224.703,-0.123,-0.762,0.548,1.04,-2.99,-12.97,3,1
18224.718,-0.11,-0.779,0.547,-2.69,-4.15,-8.48,3,1
18224.734,-0.096,-0.812,0.539,-5.16,-4.36,-4.94,3,1
18224.734,-0.068,-0.833,0.542,-6.1,-3.39,-3.51,3,1
18224.75,-0.073,-0.849,0.542,-5.25,-0.82,-4.24,3,1
18224.75,-0.081,-0.865,0.55,-4.24,1.25,-5.98,3,1
18224.765,-0.088,-0.851,0.571,-1.95,2.66,-8.18,3,1
18224.781,-0.107,-0.836,0.584,0.67,3.23,-9.49,3,1
18224.781,-0.108,-0.835,0.598,2.04,1.59,-10.04,3,1
18224.796,-0.108,-0.834,0.6,4.55,-0.4,-10.74,3,1
18224.812,-0.113,-0.835,0.594,7.2,-2.5,-11.9,3,1
18224.828,-0.097,-0.818,0.593,7.9,-4.15,-12.7,3,1
18224.828,-0.084,-0.799,0.581,7.29,-2.72,-12.51,3,1
18224.843,-0.082,-0.785,0.585,4.73,1.1,-10.86,3,1
18224.843,-0.097,-0.782,0.593,1.04,5.92,-7.08,3,1
18224.859,-0.109,-0.79,0.612,-3.66,9.31,-1.89,3,1
18224.875,-0.104,-0.823,0.641,-7.72,9.8,2.38,3,1
18224.875,-0.104,-0.849,0.655,-7.93,8.85,4.15,3,1
18224.89,-0.11,-0.856,0.682,-4.03,6.44,3.66,3,1
18224.89,-0.11,-0.858,0.689,2.84,2.01,1.74,3,1
18224.906,-0.092,-0.84,0.675,9.4,-3.66,-1.46,3,1
18224.921,-0.098,-0.808,0.659,13.28,-8.82,-5.77,3,1
18224.921,-0.085,-0.777,0.653,14.34,-13.79,-8.91,3,1
18224.937,-0.084,-0.76,0.632,13.86,-15.23,-10.86,3,1
18224.953,-0.073,-0.749,0.601,10.19,-15.56,-9.98,3,1
18224.953,-0.052,-0.743,0.588,5.25,-14.4,-8.21,3,1
18224.968,-0.042,-0.757,0.574,1.04,-10.68,-6.23,3,1
18224.984,-0.033,-0.77,0.574,-3.3,-6.41,-5.07,3,1
18224.984,-0.044,-0.791,0.579,-5.98,-2.2,-4.85,3,1
18225.0,-0.068,-0.817,0.589,-7.32,0.24,-5.68,3,1
18225.015,-0.089,-0.844,0.612,-6.32,0.52,-7.9,3,1
18225.015,-0.113,-0.85,0.604,-0.73,-0.37,-10.04,3,1
18225.031,-0.109,-0.822,0.598,3.48,-1.8,-11.44,3,1
18225.031,-0.112,-0.801,0.59,4.0,-3.69,-12.82,3,1
18225.046,-0.095,-0.792,0.59,2.56,-1.46,-11.32,3,1
18225.062,-0.099,-0.787,0.595,0.76,-2.01,-7.87,3,1
18225.078,-0.083,-0.787,0.596,0.31,2.17,-2.23,3,1
18225.078,-0.102,-0.805,0.566,0.0,6.29,1.22,3,1
18225.093,-0.093,-0.845,0.562,-2.11,8.48,2.14,3,1
18225.093,-0.089,-0.866,0.565,-2.72,10.68,0.31,3,1
18225.109,-0.093,-0.857,0.581,-0.79,14.65,-4.09,3,1
18225.125,-0.131,-0.839,0.588,1.95,18.56,-7.45,3,1
18225.125,-0.155,-0.813,0.598,1.13,19.68,-7.14,3,1
18225.14,-0.166,-0.812,0.591,-1.77,19.65,-4.67,3,1
18225.14,-0.155,-0.82,0.586,-6.16,18.59,-1.43,3,1
18225.156,-0.148,-0.848,0.589,-9.86,18.8,0.85,3,1
18225.171,-0.127,-0.862,0.585,-10.22,19.47,1.5,3,1
18225.171,-0.111,-0.852,0.6,-8.73,21.06,0.0,3,1
18225.187,-0.118,-0.844,0.609,-4.94,23.22,-4.15,3,1
18225.203,-0.127,-0.831,0.61,-5.28,21.79,-5.58,3,1
18225.203,-0.117,-0.831,0.609,-5.22,21.24,-6.87,3,1
18225.218,-0.123,-0.839,0.604,-6.04,20.08,-7.87,3,1
18225.234,-0.125,-0.852,0.57,-7.69,18.37,-8.64,3,1
18225.234,-0.115,-0.855,0.553,-8.3,17.64,-9.64,3,1
18225.25,-0.095,-0.849,0.559,-8.24,18.07,-11.81,3,1
18225.265,-0.068,-0.838,0.565,-6.53,18.74,-13.98,3,1
18225.265,-0.056,-0.812,0.571,-5.49,21.85,-15.14,3,1
18225.281,-0.064,-0.797,0.594,-5.4,25.73,-15.2,3,1
18225.281,-0.084,-0.783,0.603,-5.01,28.23,-13.28,3,1
18225.296,-0.098,-0.779,0.606,-5.92,28.14,-10.9,3,1
18225.312,-0.099,-0.789,0.594,-7.14,26.15,-9.28,3,1
18225.312,-0.09,-0.813,0.581,-8.21,23.83,-8.03,3,1
18225.328,-0.074,-0.825,0.575,-8.03,22.89,-8.36,3,1
18225.343,-0.082,-0.821,0.577,-6.38,22.49,-9.83,3,1
18225.359,-0.091,-0.819,0.581,-5.77,21.0,-10.77,3,1
18225.359,-0.079,-0.829,0.572,-6.41,18.83,-12.05,3,1
18225.359,-0.067,-0.84,0.567,-5.89,17.67,-14.13,3,1
18225.375,-0.075,-0.837,0.575,-5.28,17.64,-16.69,3,1
18225.39,-0.1,-0.83,0.59,-4.21,17.46,-18.07,3,1
18225.406,-0.116,-0.82,0.592,-3.48,15.35,-16.79,3,1
18225.406,-0.111,-0.824,0.587,-5.07,12.36,-15.53,3,1
18225.421,-0.111,-0.849,0.585,-6.1,10.22,-16.08,3,1
18225.421,-0.103,-0.86,0.585,-5.52,8.15,-17.27,3,1
18225.437,-0.09,-0.859,0.562,-4.49,7.08,-19.32,3,1
18225.453,-0.087,-0.861,0.547,-4.7,7.63,-21.58,3,1
18225.453,-0.101,-0.852,0.551,-5.01,8.18,-23.13,3,1
18225.468,-0.123,-0.848,0.535,-4.03,8.48,-23.38,3,1
18225.484,-0.115,-0.844,0.528,-3.33,8.24,-22.03,3,1
18225.484,-0.096,-0.836,0.537,-2.56,8.09,-21.33,3,1
18225.5,-0.093,-0.833,0.538,-0.67,8.79,-20.81,3,1
18225.515,-0.084,-0.83,0.533,-0.7,8.67,-19.59,3,1
18225.515,-0.056,-0.843,0.539,-2.41,8.24,-19.35,3,1
18225.531,-0.059,-0.855,0.547,-1.86,8.97,-19.84,3,1
18225.531,-0.054,-0.85,0.553,-0.15,9.19,-19.47,3,1
18225.546,-0.041,-0.825,0.558,1.04,9.4,-19.14,3,1
18225.562,-0.046,-0.813,0.562,1.28,9.49,-17.91,3,1
18225.578,-0.063,-0.817,0.547,-0.85,8.67,-15.56,3,1
18225.578,-0.072,-0.854,0.524,-3.63,7.35,-13.73,3,1
18225.593,-0.063,-0.894,0.501,-4.52,5.89,-13.12,3,1
18225.593,-0.045,-0.92,0.464,-3.97,6.13,-14.95,3,1
18225.609,-0.034,-0.928,0.44,-3.69,8.76,-19.38,3,1
18225.625,-0.049,-0.902,0.454,-2.9,13.4,-23.9,3,1
18225.625,-0.08,-0.865,0.47,-3.11,17.7,-24.84,3,1
18225.64,-0.088,-0.841,0.51,-4.88,19.14,-22.52,3,1
18225.64,-0.084,-0.832,0.528,-5.19,18.52,-19.07,3,1
18225.656,-0.07,-0.828,0.533,-5.77,17.55,-15.44,3,1
18225.671,-0.055,-0.838,0.535,-6.13,16.45,-14.59,3,1
18225.671,-0.072,-0.852,0.52,-5.22,15.23,-15.63,3,1
18225.687,-0.082,-0.868,0.496,-5.31,13.46,-16.51,3,1
18225.703,-0.061,-0.892,0.48,-4.33,12.27,-18.4,3,1
18225.703,-0.047,-0.886,0.478,-0.21,13.28,-21.39,3,1
18225.718,-0.06,-0.847,0.479,2.53,15.59,-23.77,3,1
18225.734,-0.083,-0.836,0.482,2.26,17.73,-23.13,3,1
18225.734,-0.087,-0.831,0.489,-0.18,18.43,-19.99,3,1
18225.75,-0.099,-0.845,0.484,-3.51,19.65,-17.43,3,1
18225.765,-0.073,-0.882,0.502,-4.21,19.87,-15.99,3,1
18225.765,-0.046,-0.878,0.528,-0.55,20.72,-17.15,3,1
18225.781,-0.041,-0.868,0.553,2.93,21.33,-20.57,3,1
18225.781,-0.034,-0.857,0.597,5.34,19.53,-24.6,3,1
18225.796,-0.041,-0.84,0.626,8.33,15.69,-28.02,3,1
18225.812,-0.042,-0.828,0.613,10.07,10.47,-29.73,3,1
18225.812,-0.034,-0.836,0.602,9.31,5.62,-30.79,3,1
18225.828,-0.037,-0.865,0.584,10.47,1.43,-32.07,3,1
18225.843,-0.029,-0.887,0.511,12.97,-0.85,-33.39,3,1
18225.843,-0.02,-0.909,0.493,14.1,0.27,-35.83,3,1
18225.859,-0.029,-0.889,0.493,17.94,2.96,-37.87,3,1
18225.875,-0.054,-0.838,0.53,20.78,4.94,-38.58,3,1
18225.875,-0.086,-0.797,0.616,21.76,3.2,-37.97,3,1
18225.89,-0.095,-0.771,0.662,22.43,-4.43,-35.52,3,1
18225.89,-0.069,-0.772,0.625,19.65,-14.34,-32.69,3,1
18225.906,-0.038,-0.813,0.552,15.08,-20.87,-30.64,3,1
18225.921,0.01,-0.839,0.496,12.63,-21.73,-28.23,3,1
18225.921,0.03,-0.83,0.456,12.05,-15.63,-25.24,3,1
18225.937,0.026,-0.827,0.445,10.19,-6.13,-20.54,3,1
18225.953,0.012,-0.82,0.474,7.54,2.29,-14.8,3,1
18225.953,-0.026,-0.832,0.488,4.33,7.05,-9.55,3,1
18225.968,-0.043,-0.876,0.466,0.0,8.97,-4.73,3,1
18225.984,0.013,-0.904,0.459,-1.98,10.32,-1.98,3,1
18225.984,0.055,-0.879,0.487,-0.06,14.74,-1.83,3,1
18226.0,0.055,-0.846,0.537,3.3,21.33,-1.04,3,1
18226.015,0.055,-0.808,0.582,4.09,25.27,2.62,3,1
18226.015,0.021,-0.804,0.584,0.92,26.86,7.08,3,1
18226.031,-0.001,-0.852,0.574,-5.31,25.82,11.87,3,1
18226.031,0.022,-0.882,0.565,-9.98,23.74,15.11,3,1
18226.046,0.042,-0.889,0.573,-10.8,24.11,16.08,3,1
18226.062,0.046,-0.885,0.603,-9.77,24.69,15.23,3,1
18226.062,0.044,-0.87,0.626,-6.78,23.87,13.61,3,1
18226.078,0.025,-0.851,0.632,-3.42,21.85,12.63,3,1
18226.093,-0.021,-0.855,0.609,-3.05,18.56,12.63,3,1
18226.093,-0.006,-0.888,0.566,-6.01,14.01,12.02,3,1
18226.109,0.022,-0.911,0.53,-7.48,11.81,8.82,3,1
18226.109,0.007,-0.917,0.492,-6.29,14.04,4.33,3,1
18226.125,0.008,-0.898,0.483,-5.28,17.7,0.98,3,1
18226.14,-0.005,-0.86,0.503,-4.73,21.55,-1.28,3,1
18226.14,-0.042,-0.834,0.522,-4.49,23.68,-1.22,3,1
18226.156,-0.043,-0.82,0.538,-6.59,23.56,2.08,3,1
18226.171,-0.003,-0.827,0.557,-9.77,21.49,4.39,3,1
18226.171,-0.016,-0.85,0.544,-11.66,18.89,0.89,3,1
18226.187,-0.019,-0.872,0.532,-12.33,17.88,-2.08,3,1
18226.203,-0.005,-0.867,0.516,-15.47,18.62,-5.34,3,1
18226.218,-0.037,-0.884,0.473,-21.91,19.62,-7.35,3,1
18226.218,-0.077,-0.895,0.485,-27.13,21.09,-8.91,3,1
18226.234,-0.104,-0.912,0.487,-26.7,21.27,-8.33,3,1
18226.234,-0.075,-0.902,0.49,-24.17,20.26,-5.95,3,1
18226.25,-0.063,-0.878,0.523,-20.42,20.14,-5.65,3,1
18226.265,-0.065,-0.863,0.532,-14.53,19.75,-4.09,3,1
18226.265,-0.065,-0.823,0.524,-10.32,18.77,-1.25,3,1
18226.281,-0.077,-0.793,0.485,-9.52,17.88,1.83,3,1
18226.281,-0.061,-0.797,0.463,-14.19,16.33,5.01,3,1
18226.296,-0.034,-0.828,0.452,-19.87,17.09,7.23,3,1
18226.312,-0.025,-0.867,0.444,-21.15,19.93,7.29,3,1
18226.312,-0.017,-0.872,0.444,-18.46,23.9,5.8,3,1
18226.328,-0.002,-0.851,0.481,-14.8,27.56,3.3,3,1
18226.343,-0.02,-0.826,0.53,-11.69,29.54,1.25,3,1
18226.343,-0.012,-0.799,0.572,-10.77,27.95,1.65,3,1
18226.359,0.008,-0.798,0.594,-12.21,24.26,4.12,3,1
18226.375,-0.006,-0.824,0.59,-15.29,21.36,7.78,3,1
18226.375,-0.015,-0.844,0.56,-17.91,17.91,10.99,3,1
18226.39,-0.009,-0.87,0.523,-18.74,14.07,11.87,3,1
18226.406,0.002,-0.886,0.485,-18.46,11.87,9.92,3,1
18226.406,0.017,-0.898,0.476,-15.84,11.57,6.71,3,1
18226.421,-0.008,-0.879,0.492,-10.5,13.4,5.74,3,1
18226.421,-0.061,-0.835,0.504,-7.6,14.89,8.03,3,1
18226.437,-0.062,-0.824,0.524,-10.56,11.78,12.02,3,1
18226.453,-0.075,-0.849,0.526,-14.62,7.75,16.08,3,1
18226.453,-0.064,-0.882,0.516,-16.14,3.27,19.96,3,1
18226.468,-0.061,-0.9,0.494,-15.47,-0.27,21.39,3,1
18226.484,-0.058,-0.901,0.469,-15.17,-1.83,20.75,3,1
18226.484,-0.055,-0.916,0.457,-15.17,-3.85,18.28,3,1
18226.5,-0.094,-0.92,0.455,-12.7,-5.22,15.02,3,1
18226.5,-0.094,-0.912,0.469,-8.58,-8.85,13.0,3,1
18226.515,-0.078,-0.891,0.472,-4.49,-13.64,10.96,3,1
18226.531,-0.069,-0.88,0.458,-2.56,-16.57,9.67,3,1
18226.531,-0.047,-0.882,0.456,-2.14,-18.86,9.83,3,1
18226.546,-0.063,-0.879,0.48,1.28,-20.29,9.83,3,1
18226.562,-0.078,-0.871,0.497,6.32,-23.53,11.26,3,1
18226.562,-0.114,-0.859,0.507,8.91,-27.68,12.79,3,1
18226.578,-0.149,-0.871,0.501,10.19,-32.59,13.73,3,1
18226.593,-0.228,-0.903,0.435,10.56,-37.78,15.26,3,1
18226.609,-0.238,-0.97,0.333,5.68,-41.17,15.66,3,1
18226.609,-0.174,-1.046,0.271,2.41,-39.64,12.73,3,1
18226.609,-0.143,-1.05,0.267,6.32,-30.18,7.87,3,1
18226.625,-0.133,-1.004,0.297,11.63,-18.1,4.43,3,1
18226.64,-0.117,-0.967,0.353,12.36,-8.48,3.69,3,1
18226.656,-0.109,-0.944,0.453,9.13,-2.62,5.31,3,1
18226.656,-0.103,-0.937,0.535,5.68,-2.81,7.81,3,1
18226.671,-0.127,-0.965,0.559,2.04,-7.23,9.28,3,1
18226.671,-0.117,-1.046,0.532,-1.28,-13.7,7.87,3,1
18226.687,-0.093,-1.098,0.483,-0.37,-18.04,1.68,3,1
18226.703,-0.076,-1.094,0.438,3.14,-17.61,-9.37,3,1
18226.718,-0.034,-1.056,0.438,6.38,-14.13,-21.06,3,1
18226.718,-0.017,-0.981,0.481,9.64,-8.85,-29.33,3,1
18226.734,-0.052,-0.891,0.523,10.71,-4.94,-31.28,3,1
18226.734,-0.06,-0.851,0.538,7.05,-4.76,-26.76,3,1
18226.75,-0.047,-0.828,0.55,1.04,-6.81,-20.54,3,1
18226.765,-0.05,-0.851,0.52,-2.01,-8.64,-15.72,3,1
18226.765,-0.027,-0.877,0.479,-3.14,-9.58,-11.14,3,1
18226.781,-0.047,-0.889,0.436,-3.88,-7.54,-8.79,3,1
18226.781,-0.067,-0.92,0.405,-5.04,-3.54,-7.78,3,1
18226.796,-0.068,-0.916,0.397,-4.7,0.98,-7.75,3,1
18226.812,-0.076,-0.897,0.406,-4.21,6.32,-8.94,3,1
18226.812,-0.065,-0.894,0.436,-4.91,10.35,-8.94,3,1
18226.828,-0.076,-0.865,0.471,-5.86,12.51,-8.51,3,1
18226.843,-0.079,-0.858,0.493,-5.83,11.9,-8.91,3,1
18226.843,-0.093,-0.852,0.501,-5.8,9.83,-8.15,3,1
18226.859,-0.076,-0.866,0.5,-7.48,7.11,-7.78,3,1
18226.875,-0.059,-0.897,0.469,-7.69,4.55,-9.67,3,1
18226.875,-0.099,-0.908,0.409,-7.84,4.06,-12.36,3,1
18226.89,-0.078,-0.915,0.374,-10.53,5.04,-15.02,3,1
18226.906,-0.052,-0.913,0.354,-10.71,8.27,-17.27,3,1
18226.906,-0.071,-0.872,0.347,-8.97,13.28,-18.01,3,1
18226.921,-0.086,-0.847,0.347,-9.06,17.64,-16.72,3,1
18226.921,-0.108,-0.835,0.37,-10.65,21.58,-13.34,3,1
18226.937,-0.133,-0.821,0.419,-12.39,23.44,-9.0,3,1
18226.953,-0.14,-0.834,0.423,-13.46,21.94,-3.17,3,1
18226.953,-0.142,-0.848,0.449,-15.08,17.49,1.83,3,1
18226.968,-0.105,-0.891,0.455,-16.91,11.44,2.53,3,1
18226.984,-0.051,-0.928,0.436,-16.97,6.1,-0.27,3,1
18226.984,-0.035,-0.927,0.416,-14.25,4.3,-5.16,3,1
18227.0,-0.023,-0.9,0.433,-11.93,3.3,-9.49,3,1
18227.0,-0.041,-0.849,0.477,-9.06,1.25,-12.18,3,1
18227.015,-0.058,-0.818,0.486,-4.49,-2.44,-10.16,3,1
18227.031,-0.058,-0.788,0.47,-1.8,-6.65,-3.42,3,1
18227.031,-0.052,-0.798,0.44,-1.68,-9.58,3.6,3,1
18227.046,-0.051,-0.834,0.424,0.46,-10.41,10.07,3,1
18227.062,-0.092,-0.846,0.374,3.88,-7.35,14.8,3,1
18227.062,-0.081,-0.875,0.341,3.39,-3.05,18.31,3,1
18227.078,-0.066,-0.911,0.365,0.43,2.56,20.51,3,1
18227.093,-0.092,-0.938,0.419,-2.62,7.32,20.63,3,1
18227.093,-0.096,-0.981,0.471,-2.11,7.78,19.84,3,1
18227.109,-0.089,-0.999,0.495,2.59,5.13,17.27,3,1
18227.109,-0.105,-0.995,0.48,5.89,1.89,11.23,3,1
18227.125,-0.099,-0.997,0.459,6.47,-1.46,4.21,3,1
18227.14,-0.081,-0.991,0.449,6.53,-4.0,-1.86,3,1
18227.14,-0.078,-0.972,0.439,5.92,-4.58,-7.42,3,1
18227.156,-0.085,-0.953,0.454,8.91,-4.61,-12.88,3,1
18227.171,-0.075,-0.918,0.454,10.8,-5.25,-12.24,3,1
18227.171,-0.07,-0.862,0.458,9.37,-5.31,-8.67,3,1
18227.187,-0.085,-0.83,0.455,5.68,-6.38,-2.17,3,1
18227.203,-0.054,-0.844,0.433,2.66,-5.74,3.66,3,1
18227.203,-0.079,-0.892,0.411,-0.61,-3.2,8.48,3,1
18227.218,-0.06,-0.933,0.408,-3.39,-1.13,11.78,3,1
18227.234,-0.057,-0.965,0.408,-4.36,1.28,11.51,3,1
18227.234,-0.071,-0.989,0.424,-4.21,3.48,8.24,3,1
18227.25,-0.074,-1.003,0.446,-1.98,4.0,4.49,3,1
18227.25,-0.082,-0.991,0.46,-0.18,2.93,1.25,3,1
18227.265,-0.073,-0.981,0.487,-1.53,0.46,-2.17,3,1
18227.281,-0.064,-0.977,0.504,0.03,-3.08,-5.07,3,1
18227.281,-0.042,-0.949,0.487,4.33,-6.9,-5.95,3,1
18227.296,-0.026,-0.923,0.457,6.01,-9.31,-7.02,3,1
18227.312,-0.035,-0.921,0.434,4.91,-9.7,-8.12,3,1
18227.328,-0.041,-0.91,0.4,3.48,-8.64,-6.81,3,1
18227.328,-0.055,-0.91,0.379,0.34,-5.98,-3.48,3,1
18227.343,-0.051,-0.927,0.396,-2.62,-2.87,-0.15,3,1
18227.343,-0.044,-0.924,0.41,-2.38,0.12,3.17,3,1
18227.359,-0.049,-0.915,0.422,-4.21,2.04,5.49,3,1
18227.375,-0.052,-0.936,0.443,-7.11,1.71,4.64,3,1
18227.375,-0.077,-0.955,0.46,-5.83,0.7,2.23,3,1
18227.39,-0.095,-0.96,0.451,-3.23,-1.8,0.12,3,1
18227.39,-0.08,-0.979,0.42,-2.96,-4.03,-3.45,3,1
18227.406,-0.064,-0.987,0.41,-2.14,-4.15,-8.76,3,1
18227.421,-0.054,-0.968,0.404,1.07,-2.72,-13.43,3,1
18227.421,-0.042,-0.935,0.417,2.93,-1.13,-16.72,3,1
18227.437,-0.048,-0.9,0.437,3.63,-0.15,-19.2,3,1
18227.453,-0.063,-0.886,0.431,4.36,-0.34,-19.26,3,1
18227.468,-0.047,-0.885,0.408,4.03,-0.67,-18.07,3,1
18227.468,-0.034,-0.899,0.386,3.6,1.07,-17.76,3,1
18227.484,-0.041,-0.905,0.38,2.84,4.88,-18.07,3,1
18227.484,-0.033,-0.906,0.391,1.86,8.09,-18.86,3,1
18227.5,-0.028,-0.912,0.402,2.01,10.8,-19.71,3,1
18227.515,-0.025,-0.897,0.433,1.37,12.88,-20.02,3,1
18227.515,-0.04,-0.869,0.468,0.67,12.3,-20.72,3,1
18227.531,-0.066,-0.858,0.479,0.58,9.22,-19.99,3,1
18227.531,-0.06,-0.844,0.483,-0.15,3.69,-17.49,3,1
18227.546,-0.033,-0.841,0.469,-0.73,-1.71,-15.69,3,1
18227.562,-0.003,-0.853,0.44,-0.76,-4.64,-13.89,3,1
18227.578,0.024,-0.855,0.427,0.06,-4.82,-11.9,3,1
18227.578,0.031,-0.855,0.437,2.26,-2.84,-9.4,3,1
18227.593,0.015,-0.84,0.443,4.12,-1.1,-5.8,3,1
18227.593,0.004,-0.849,0.441,2.35,-0.89,-1.68,3,1
18227.609,-0.008,-0.883,0.435,-0.98,-0.58,1.31,3,1
18227.625,-0.005,-0.912,0.419,-2.66,0.12,2.72,3,1
18227.625,0.0,-0.93,0.407,-3.08,1.77,2.17,3,1
18227.64,0.005,-0.935,0.405,-2.96,4.3,0.03,3,1
18227.64,0.008,-0.929,0.419,-2.11,6.68,-2.41,3,1
18227.656,-0.002,-0.917,0.441,-1.16,8.21,-4.09,3,1
18227.671,-0.024,-0.913,0.474,-0.4,7.81,-5.46,3,1
18227.671,-0.058,-0.9,0.496,0.76,5.16,-6.16,3,1
18227.687,-0.055,-0.884,0.496,0.76,-0.31,-5.16,3,1
18227.703,-0.007,-0.896,0.473,-0.24,-6.35,-4.73,3,1
18227.718,0.013,-0.902,0.45,1.59,-8.61,-5.68,3,1
18227.718,0.004,-0.871,0.428,4.39,-8.0,-5.4,3,1
18227.718,-0.006,-0.854,0.407,2.41,-7.29,-3.23,3,1
18227.734,-0.002,-0.874,0.398,-2.29,-5.65,-0.61,3,1
18227.75,0.018,-0.899,0.399,-3.48,-3.27,1.37,3,1
18227.75,0.02,-0.899,0.412,-0.82,0.0,2.41,3,1
18227.765,0.007,-0.901,0.425,1.37,2.29,2.72,3,1
18227.781,-0.005,-0.9,0.453,2.41,2.04,3.45,3,1
18227.796,-0.036,-0.895,0.468,2.84,0.24,5.8,3,1
18227.796,-0.031,-0.911,0.457,0.76,-4.15,9.34,3,1
18227.812,-0.011,-0.946,0.431,-1.04,-7.9,9.8,3,1
18227.812,-0.005,-0.965,0.408,0.27,-8.27,7.63,3,1
18227.828,-0.003,-0.951,0.395,2.62,-6.65,5.13,3,1
18227.843,-0.013,-0.94,0.398,3.54,-4.21,2.93,3,1
18227.843,-0.017,-0.938,0.403,3.14,-2.14,1.74,3,1
18227.859,-0.007,-0.94,0.414,2.96,-0.85,1.25,3,1
18227.875,-0.015,-0.931,0.44,2.96,0.03,0.73,3,1
18227.875,-0.045,-0.922,0.461,3.17,-0.24,0.34,3,1
18227.89,-0.056,-0.91,0.466,2.99,-2.66,1.28,3,1
18227.89,-0.047,-0.915,0.45,1.71,-5.77,1.28,3,1
18227.906,-0.037,-0.935,0.419,0.73,-6.68,-0.58,3,1
18227.921,-0.018,-0.938,0.404,0.92,-5.25,-3.05,3,1
18227.921,-0.013,-0.927,0.403,1.34,-2.23,-6.01,3,1
18227.937,-0.02,-0.914,0.422,1.04,0.52,-8.67,3,1
18227.953,-0.024,-0.905,0.443,1.62,1.46,-10.19,3,1
18227.953,-0.018,-0.889,0.461,3.2,1.01,-10.16,3,1
18227.968,-0.022,-0.868,0.467,4.12,-0.21,-9.43,3,1
18227.984,-0.026,-0.855,0.474,4.79,-1.89,-8.48,3,1
18227.984,-0.037,-0.836,0.463,4.94,-3.54,-5.22,3,1
18228.0,-0.017,-0.84,0.438,1.86,-5.25,-0.95,3,1
18228.015,0.019,-0.871,0.429,-1.4,-5.37,1.31,3,1
18228.015,0.02,-0.883,0.43,-0.92,-3.23,2.75,3,1
18228.031,0.016,-0.885,0.434,-0.46,-1.22,4.3,3,1
18228.031,0.011,-0.9,0.451,-1.65,-0.58,5.37,3,1
18228.046,0.003,-0.922,0.459,-0.95,-1.13,5.98,3,1
18228.062,-0.006,-0.931,0.438,0.15,-1.74,6.2,3,1
18228.062,-0.017,-0.947,0.418,-0.79,-2.47,4.79,3,1
18228.078,-0.017,-0.97,0.407,-1.77,-2.56,2.32,3,1
18228.093,-0.002,-0.967,0.403,-1.13,-1.62,-0.61,3,1
18228.093,-0.005,-0.947,0.413,0.92,0.37,-3.51,3,1
18228.109,-0.019,-0.921,0.439,2.47,1.68,-4.88,3,1
18228.125,-0.041,-0.903,0.453,2.99,1.13,-4.58,3,1
18228.125,-0.04,-0.904,0.465,1.46,-1.34,-2.81,3,1
18228.14,-0.026,-0.923,0.454,-0.52,-4.52,-2.32,3,1
18228.14,-0.022,-0.941,0.434,0.37,-4.43,-4.85,3,1
18228.156,-0.021,-0.947,0.42,1.04,-3.57,-8.91,3,1
18228.171,-0.015,-0.947,0.407,1.8,-2.04,-13.25,3,1
18228.171,-0.006,-0.922,0.448,4.21,-0.73,-16.88,3,1
18228.187,-0.009,-0.889,0.474,7.11,-0.89,-19.38,3,1
