timestamp,ax,ay,az,gx,gy,gz,orient_label,motion_label
15307.89,-0.115,0.37,0.906,2.72,-8.73,-0.43,0,2
15307.89,-0.11,0.382,0.903,3.94,-8.06,0.95,0,2
15307.906,-0.114,0.38,0.9,3.88,-7.54,2.04,0,2
15307.921,-0.118,0.384,0.904,3.2,-7.39,2.53,0,2
15307.921,-0.124,0.384,0.91,3.36,-7.39,2.17,0,2
15307.937,-0.129,0.372,0.92,3.51,-8.51,1.59,0,2
15307.937,-0.112,0.376,0.917,2.84,-10.83,1.56,0,2
15307.953,-0.104,0.387,0.915,3.2,-12.51,1.8,0,2
15307.968,-0.089,0.379,0.913,3.05,-13.95,1.86,0,2
15307.968,-0.073,0.375,0.906,2.96,-15.05,1.43,0,2
15307.984,-0.068,0.377,0.899,2.72,-15.78,-0.27,0,2
15308.0,-0.067,0.378,0.895,1.07,-16.11,-1.62,0,2
15308.0,-0.065,0.375,0.9,-0.95,-16.05,-2.04,0,2
15308.015,-0.061,0.367,0.891,-0.18,-14.62,-2.32,0,2
15308.031,-0.064,0.377,0.901,0.09,-12.91,-2.96,0,2
15308.031,-0.08,0.373,0.906,-0.76,-11.54,-4.88,0,2
15308.046,-0.081,0.349,0.914,-1.83,-10.5,-5.01,0,2
15308.062,-0.07,0.375,0.929,-0.21,-7.84,0.37,0,2
15308.078,-0.087,0.371,0.938,0.7,-6.53,2.08,0,2
15308.078,-0.096,0.362,0.947,1.16,-5.89,3.45,0,2
15308.093,-0.09,0.363,0.947,2.56,-5.34,4.39,0,2
15308.109,-0.074,0.363,0.946,4.33,-4.73,5.4,0,2
15308.109,-0.064,0.383,0.944,4.73,-4.61,5.31,0,2
15308.125,-0.066,0.386,0.943,3.3,-4.73,4.24,0,2
15308.14,-0.07,0.377,0.941,0.46,-5.43,2.14,0,2
15308.14,-0.052,0.384,0.959,-3.45,-6.59,0.43,0,2
15308.156,-0.055,0.374,0.959,-4.09,-6.99,-0.73,0,2
15308.171,-0.073,0.359,0.958,-4.58,-7.39,3.39,0,2
15308.171,-0.029,0.345,0.972,-0.24,-6.84,7.9,0,2
15308.187,-0.004,0.324,0.965,4.91,-6.74,13.28,0,2
15308.203,0.019,0.322,0.953,8.42,-6.2,18.19,0,2
15308.203,0.045,0.321,0.941,10.1,-5.46,22.1,0,2
15308.218,0.064,0.326,0.93,9.58,-4.88,23.35,0,2
15308.234,0.091,0.303,0.912,3.94,-2.78,16.36,0,2
15308.25,0.105,0.301,0.906,0.43,-1.25,9.4,0,2
15308.25,0.116,0.304,0.902,-3.51,0.85,1.4,0,2
15308.265,0.115,0.309,0.905,-7.87,3.66,-5.98,0,2
15308.281,0.107,0.309,0.922,-11.47,6.84,-10.93,0,2
15308.281,0.098,0.309,0.948,-12.51,10.28,-12.7,0,2
15308.296,0.085,0.31,0.976,-10.93,12.97,-11.93,0,2
15308.312,0.071,0.321,0.989,-8.18,14.22,-8.61,0,2
15308.312,0.069,0.33,1.0,-6.13,14.8,-2.62,0,2
15308.328,0.066,0.319,1.015,-2.96,16.24,5.01,0,2
15308.328,0.077,0.307,1.041,0.0,17.33,16.17,0,2
15308.343,0.081,0.3,1.049,4.24,16.94,26.89,0,2
15308.359,0.098,0.315,1.051,7.9,15.75,32.53,0,2
15308.359,0.128,0.321,1.049,8.12,13.61,34.21,0,2
15308.375,0.147,0.323,1.047,4.94,10.1,32.38,0,2
15308.39,0.164,0.314,1.047,0.79,6.47,29.36,0,2
15308.39,0.177,0.285,1.034,-2.59,3.33,27.19,0,2
15308.406,0.192,0.264,1.025,-4.82,1.98,26.12,0,2
15308.421,0.203,0.24,1.024,-5.37,2.84,25.06,0,2
15308.421,0.207,0.217,1.026,-4.24,4.15,23.8,0,2
15308.437,0.198,0.21,1.01,-2.38,5.65,20.91,0,2
15308.437,0.192,0.206,1.016,-1.22,7.81,17.73,0,2
15308.453,0.171,0.229,1.011,-0.49,9.4,12.33,0,2
15308.468,0.145,0.265,1.003,-2.38,9.34,4.91,0,2
15308.468,0.108,0.284,0.996,-7.32,7.57,-2.9,0,2
15308.484,0.083,0.311,0.994,-15.11,4.39,-10.65,0,2
15308.5,0.063,0.325,0.996,-23.96,0.24,-16.97,0,2
15308.5,0.056,0.323,1.005,-32.29,-3.27,-21.97,0,2
15308.515,0.052,0.31,1.005,-38.51,-5.74,-26.46,0,2
15308.531,0.056,0.308,1.002,-42.33,-8.42,-30.21,0,2
15308.531,0.044,0.304,0.991,-44.04,-10.47,-31.37,0,2
15308.546,0.053,0.285,0.983,-45.5,-11.35,-28.57,0,2
15308.562,0.064,0.257,0.967,-43.58,-11.41,-23.68,0,2
15308.562,0.084,0.257,0.963,-40.83,-11.26,-16.85,0,2
15308.578,0.088,0.245,0.953,-36.19,-11.57,-7.57,0,2
15308.578,0.041,0.26,0.933,-31.53,-12.09,1.89,0,2
15308.593,0.013,0.292,0.922,-26.28,-11.75,9.98,0,2
15308.609,-0.002,0.316,0.926,-22.13,-11.63,16.33,0,2
15308.609,0.004,0.325,0.927,-19.17,-12.39,22.25,0,2
15308.625,0.026,0.327,0.92,-15.84,-13.31,28.53,0,2
15308.64,0.051,0.315,0.892,-12.15,-14.04,35.22,0,2
15308.64,0.096,0.294,0.87,-7.97,-14.56,42.24,0,2
15308.656,0.124,0.287,0.838,-1.53,-14.37,46.72,0,2
15308.671,0.137,0.297,0.801,3.75,-13.61,47.43,0,2
15308.671,0.156,0.32,0.771,5.04,-12.12,44.22,0,2
15308.687,0.168,0.347,0.746,2.23,-10.62,39.03,0,2
15308.703,0.163,0.361,0.717,-4.36,-10.1,33.33,0,2
15308.703,0.165,0.371,0.709,-12.7,-9.43,28.02,0,2
15308.718,0.168,0.357,0.709,-20.36,-8.88,24.51,0,2
15308.718,0.17,0.358,0.711,-26.58,-8.73,22.55,0,2
15308.75,0.156,0.353,0.72,-32.75,-6.9,21.21,0,2
15308.75,0.126,0.341,0.734,-32.44,-3.81,21.36,0,2
15308.765,0.11,0.333,0.763,-30.95,0.52,21.49,0,2
15308.781,0.097,0.342,0.789,-27.28,5.31,19.71,0,2
15308.781,0.089,0.346,0.808,-23.68,10.04,16.75,0,2
15308.796,0.094,0.343,0.828,-20.97,13.43,14.89,0,2
15308.812,0.099,0.34,0.837,-15.84,14.95,16.02,0,2
15308.812,0.078,0.347,0.819,-8.36,15.14,19.84,0,2
15308.828,0.056,0.356,0.815,-1.5,15.53,26.22,0,2
15308.828,0.021,0.363,0.804,2.56,16.05,32.84,0,2
15308.843,0.003,0.351,0.799,2.41,16.08,40.41,0,2
15308.859,0.015,0.357,0.806,1.77,19.04,44.74,0,2
15308.859,0.019,0.335,0.806,1.68,25.09,46.27,0,2
15308.875,0.008,0.294,0.814,2.29,31.46,47.03,0,2
15308.89,0.009,0.282,0.822,5.68,37.39,48.13,0,2
15308.89,-0.017,0.288,0.825,10.32,43.67,48.34,0,2
15308.921,-0.079,0.303,0.885,3.6,57.92,43.92,0,2
15308.921,-0.095,0.285,0.922,-4.82,61.77,41.84,0,2
15308.937,-0.101,0.273,0.97,-11.9,61.74,40.86,0,2
15308.953,-0.081,0.264,1.016,-14.59,57.56,40.77,0,2
15308.953,-0.064,0.245,1.037,-10.96,50.81,40.5,0,2
15308.968,-0.054,0.234,1.04,-3.33,42.45,40.19,0,2
15308.968,-0.061,0.24,1.022,5.71,32.84,39.4,0,2
15308.984,-0.068,0.255,0.993,12.42,23.65,38.51,0,2
15309.0,-0.076,0.26,0.968,13.79,15.87,37.9,0,2
15309.0,-0.08,0.268,0.952,11.05,9.49,37.29,0,2
15309.015,-0.083,0.265,0.942,5.07,3.94,34.18,0,2
15309.031,-0.077,0.258,0.949,-3.42,-0.89,28.02,0,2
15309.031,-0.079,0.25,0.968,-11.66,-4.88,20.51,0,2
15309.046,-0.099,0.24,0.987,-17.21,-10.01,13.37,0,2
15309.062,-0.113,0.247,0.995,-20.78,-17.37,7.69,0,2
15309.062,-0.129,0.245,0.993,-22.52,-26.15,4.7,0,2
15309.078,-0.121,0.257,0.979,-22.74,-44.77,3.39,0,2
15309.093,-0.112,0.241,0.969,-22.61,-52.98,2.14,0,2
15309.109,-0.091,0.231,0.96,-21.42,-58.72,0.27,0,2
15309.109,-0.092,0.223,0.955,-18.65,-60.3,-1.71,0,2
15309.125,-0.1,0.214,0.949,-18.52,-55.48,-6.74,0,2
15309.14,-0.119,0.213,0.945,-22.58,-50.69,-11.63,0,2
15309.14,-0.136,0.236,0.968,-26.7,-47.46,-17.46,0,2
15309.156,-0.154,0.235,0.996,-29.79,-47.0,-21.55,0,2
15309.171,-0.189,0.194,1.047,-30.4,-49.59,-23.93,0,2
15309.171,-0.196,0.188,1.053,-26.55,-53.35,-25.15,0,2
15309.187,-0.205,0.203,1.059,-20.54,-57.31,-26.86,0,2
15309.203,-0.213,0.211,1.046,-13.0,-61.34,-28.2,0,2
15309.203,-0.229,0.225,1.025,-6.29,-64.09,-28.26,0,2
15309.218,-0.224,0.225,1.005,-1.74,-64.36,-27.07,0,2
15309.218,-0.199,0.19,0.997,3.81,-62.41,-24.2,0,2
15309.234,-0.186,0.157,0.983,14.62,-57.28,-21.0,0,2
15309.265,-0.183,0.222,0.964,36.26,-37.54,-20.63,0,2
15309.265,-0.202,0.257,0.977,41.51,-26.64,-22.16,0,2
15309.281,-0.21,0.275,0.987,44.31,-18.01,-23.38,0,2
15309.281,-0.212,0.283,1.003,45.99,-12.24,-23.74,0,2
15309.296,-0.206,0.282,1.016,49.07,-10.04,-23.07,0,2
15309.312,-0.219,0.274,1.019,52.64,-11.41,-21.39,0,2
15309.312,-0.221,0.271,1.035,54.78,-15.78,-18.31,0,2
15309.328,-0.182,0.313,1.035,57.31,-21.73,-18.22,0,2
15309.328,-0.194,0.322,1.013,57.22,-25.85,-20.69,0,2
15309.343,-0.173,0.321,1.007,51.48,-28.35,-21.7,0,2
15309.359,-0.163,0.352,0.999,44.43,-28.41,-24.54,0,2
15309.359,-0.172,0.377,0.997,34.58,-25.64,-27.71,0,2
15309.375,-0.145,0.377,1.01,22.92,-21.73,-29.94,0,2
15309.39,-0.131,0.352,1.032,14.25,-17.91,-30.15,0,2
15309.406,-0.106,0.366,1.044,11.32,-16.11,-29.97,0,2
15309.406,-0.092,0.358,1.047,12.02,-16.27,-29.91,0,2
15309.421,-0.069,0.329,1.051,13.98,-18.19,-28.6,0,2
15309.421,-0.051,0.32,1.043,20.26,-20.87,-26.86,0,2
15309.437,-0.044,0.317,1.025,27.99,-22.55,-24.75,0,2
15309.453,-0.033,0.337,1.008,33.48,-22.83,-23.83,0,2
15309.453,-0.021,0.347,0.992,36.68,-21.88,-24.54,0,2
15309.468,-0.008,0.369,0.976,37.14,-19.71,-25.64,0,2
15309.468,0.003,0.398,0.96,34.03,-15.99,-27.5,0,2
15309.484,0.012,0.411,0.954,27.34,-11.63,-28.96,0,2
15309.5,0.027,0.423,0.966,19.9,-7.78,-29.73,0,2
15309.5,0.035,0.416,0.98,14.31,-4.94,-29.36,0,2
15309.515,0.044,0.402,0.993,10.28,-4.21,-28.5,0,2
15309.531,0.058,0.387,1.001,8.55,-6.07,-27.62,0,2
15309.531,0.066,0.377,0.999,8.64,-8.94,-25.97,0,2
15309.546,0.071,0.381,0.991,7.66,-10.65,-24.41,0,2
15309.562,0.084,0.398,0.983,5.22,-11.54,-24.14,0,2
15309.562,0.086,0.419,0.976,1.5,-11.11,-24.87,0,2
15309.578,0.077,0.423,0.975,-3.85,-9.22,-25.42,0,2
15309.578,0.073,0.418,0.978,-9.31,-6.87,-25.76,0,2
15309.593,0.076,0.406,0.987,-11.6,-5.34,-25.97,0,2
15309.609,0.075,0.39,0.988,-8.76,-5.07,-25.64,0,2
15309.609,0.07,0.384,0.98,-2.84,-5.65,-24.84,0,2
15309.625,0.073,0.378,0.959,4.15,-6.71,-23.38,0,2
15309.64,0.079,0.393,0.932,10.44,-7.17,-21.79,0,2
15309.64,0.079,0.415,0.906,14.34,-6.13,-20.42,0,2
15309.656,0.071,0.443,0.889,14.04,-3.05,-20.14,0,2
15309.671,0.049,0.44,0.883,9.37,1.71,-19.56,0,2
15309.671,0.066,0.475,0.894,3.45,5.22,-20.48,0,2
15309.687,0.051,0.469,0.899,-0.79,8.15,-20.29,0,2
15309.703,0.051,0.466,0.905,-4.03,8.91,-19.41,0,2
15309.703,0.062,0.456,0.907,-5.1,8.79,-18.19,0,2
15309.718,0.06,0.432,0.907,-4.82,8.76,-16.27,0,2
15309.718,0.075,0.425,0.905,-2.81,8.42,-13.55,0,2
15309.734,0.062,0.405,0.902,0.4,7.57,-10.53,0,2
15309.75,0.077,0.402,0.904,3.85,6.04,-7.32,0,2
15309.75,0.081,0.403,0.889,8.09,5.98,-5.92,0,2
15309.765,0.072,0.397,0.879,10.04,7.51,-5.19,0,2
15309.781,0.079,0.407,0.878,9.25,9.67,-5.19,0,2
15309.781,0.084,0.412,0.876,6.84,12.21,-5.46,0,2
15309.796,0.082,0.407,0.872,3.81,14.77,-5.28,0,2
15309.812,0.079,0.41,0.881,0.73,17.73,-5.1,0,2
15309.812,0.066,0.413,0.893,-1.5,20.84,-5.31,0,2
15309.828,0.057,0.412,0.906,-2.99,23.65,-4.39,0,2
15309.828,0.042,0.419,0.924,-3.27,25.85,-3.63,0,2
15309.843,0.02,0.416,0.944,-2.69,26.43,-3.42,0,2
15309.859,0.009,0.418,0.961,-1.98,24.96,-3.33,0,2
15309.859,0.004,0.412,0.962,0.09,22.31,-3.42,0,2
15309.875,-0.006,0.408,0.955,3.02,18.89,-3.02,0,2
15309.89,-0.02,0.409,0.942,5.46,16.11,-2.08,0,2
15309.89,-0.037,0.423,0.932,6.53,14.28,-1.04,0,2
15309.906,-0.035,0.399,0.925,6.47,12.33,1.1,0,2
15309.921,-0.039,0.386,0.9,5.95,11.14,3.08,0,2
15309.937,-0.0,0.371,0.897,6.01,11.14,6.07,0,2
15309.953,0.025,0.352,0.9,7.02,11.47,4.18,0,2
15309.953,0.028,0.354,0.904,9.16,11.57,2.11,0,2
15309.968,0.017,0.366,0.901,11.6,10.99,0.24,0,2
15309.968,0.007,0.377,0.898,11.57,8.91,-0.46,0,2
15309.984,0.003,0.387,0.902,10.56,5.98,-0.89,0,2
15310.0,-0.005,0.399,0.903,9.03,3.69,-1.8,0,2
15310.0,-0.009,0.412,0.904,6.23,2.53,-2.66,0,2
15310.015,-0.024,0.412,0.908,2.78,1.68,-3.33,0,2
15310.031,-0.023,0.409,0.921,-0.31,0.7,-3.08,0,2
15310.031,-0.026,0.416,0.937,-2.14,-0.12,-3.48,0,2
15310.046,-0.032,0.411,0.951,-2.59,-1.74,-3.97,0,2
15310.062,-0.03,0.413,0.959,-1.98,-3.45,-4.58,0,2
15310.062,-0.031,0.419,0.957,-1.31,-4.82,-5.43,0,2
15310.078,-0.032,0.426,0.955,-1.68,-5.74,-5.77,0,2
15310.078,-0.027,0.433,0.953,-2.44,-6.07,-5.89,0,2
15310.109,-0.013,0.426,0.956,-3.69,-5.37,-4.88,0,2
15310.109,-0.013,0.416,0.953,-2.84,-5.4,-4.36,0,2
15310.125,0.001,0.399,0.95,-0.55,-5.28,-4.67,0,2
15310.14,0.019,0.393,0.943,1.8,-4.73,-5.49,0,2
15310.14,0.019,0.402,0.928,2.62,-4.52,-5.86,0,2
15310.156,0.004,0.399,0.929,2.29,-5.13,-5.49,0,2
15310.171,0.012,0.402,0.936,1.19,-6.62,-4.79,0,2
15310.171,0.01,0.387,0.934,0.06,-8.45,-4.61,0,2
15310.187,0.015,0.385,0.936,-1.92,-9.95,-4.79,0,2
15310.203,0.006,0.382,0.93,-3.91,-10.22,-5.77,0,2
15310.203,0.013,0.37,0.927,-5.83,-10.44,-5.8,0,2
15310.218,0.008,0.369,0.92,-6.2,-9.86,-6.2,0,2
15310.218,0.009,0.36,0.924,-6.38,-8.85,-5.71,0,2
15310.234,0.024,0.361,0.926,-5.74,-8.0,-6.07,0,2
15310.25,0.007,0.354,0.925,-4.64,-7.08,-6.96,0,2
15310.25,0.013,0.362,0.93,-4.03,-6.87,-7.45,0,2
15310.265,0.008,0.371,0.926,-2.96,-6.96,-8.82,0,2
15310.281,0.0,0.362,0.916,-2.56,-7.23,-9.37,0,2
15310.281,-0.003,0.369,0.909,-2.9,-7.45,-10.01,0,2
15310.296,-0.007,0.376,0.914,-4.15,-7.39,-10.8,0,2
15310.312,-0.014,0.376,0.917,-5.8,-7.57,-11.87,0,2
15310.312,-0.015,0.368,0.921,-7.48,-8.24,-11.96,0,2
15310.328,-0.013,0.376,0.922,-8.33,-8.94,-12.02,0,2
15310.328,-0.017,0.368,0.921,-8.61,-9.16,-11.81,0,2
15310.343,-0.007,0.371,0.921,-8.7,-9.19,-11.96,0,2
15310.359,-0.012,0.363,0.92,-8.15,-8.97,-12.45,0,2
15310.359,-0.006,0.359,0.921,-7.39,-8.58,-12.36,0,2
15310.375,-0.002,0.361,0.916,-5.86,-8.15,-13.03,0,2
15310.39,-0.0,0.348,0.908,-4.67,-7.26,-13.52,0,2
15310.39,0.015,0.352,0.9,-3.75,-5.98,-13.98,0,2
15310.406,0.011,0.358,0.895,-3.66,-4.15,-14.74,0,2
15310.421,0.013,0.35,0.91,-5.25,-2.56,-14.77,0,2
15310.421,0.023,0.351,0.919,-5.8,-1.65,-15.23,0,2
15310.437,0.021,0.352,0.922,-6.44,-1.4,-15.87,0,2
15310.453,0.027,0.353,0.929,-6.9,-1.77,-16.05,0,2
15310.453,0.02,0.352,0.927,-5.49,-2.5,-16.72,0,2
15310.468,0.021,0.36,0.918,-4.33,-3.27,-17.03,0,2
15310.468,0.017,0.379,0.908,-4.36,-4.18,-17.49,0,2
15310.484,0.004,0.381,0.902,-5.4,-4.88,-17.15,0,2
15310.5,0.004,0.384,0.903,-7.45,-5.1,-15.59,0,2
15310.5,0.012,0.381,0.904,-9.28,-4.64,-13.89,0,2
15310.515,0.016,0.374,0.909,-9.61,-3.75,-12.51,0,2
15310.531,0.02,0.371,0.915,-8.55,-2.62,-11.66,0,2
15310.531,0.029,0.364,0.916,-6.35,-1.46,-10.86,0,2
15310.546,0.029,0.369,0.917,-3.45,-0.64,-10.25,0,2
15310.562,0.028,0.371,0.914,-0.61,0.24,-9.92,0,2
15310.562,0.025,0.379,0.909,1.22,0.09,-9.52,0,2
15310.578,0.018,0.392,0.903,1.31,-0.98,-9.25,0,2
15310.578,0.013,0.393,0.902,0.03,-2.04,-8.61,0,2
15310.593,0.013,0.389,0.905,-1.83,-2.72,-8.03,0,2
15310.609,0.011,0.379,0.912,-3.3,-2.84,-7.35,0,2
15310.609,0.011,0.375,0.919,-4.0,-2.56,-6.65,0,2
15310.625,0.014,0.372,0.931,-3.78,-2.41,-6.29,0,2
15310.64,0.013,0.367,0.941,-2.56,-2.11,-6.07,0,2
15310.64,0.017,0.364,0.944,0.21,-2.44,-5.77,0,2
15310.656,0.019,0.365,0.938,3.11,-3.36,-5.13,0,2
15310.656,0.021,0.365,0.933,4.85,-4.88,-4.49,0,2
15310.671,0.022,0.364,0.926,5.58,-6.84,-4.06,0,2
15310.687,0.028,0.366,0.917,5.65,-8.82,-3.88,0,2
15310.703,0.031,0.366,0.913,4.67,-10.22,-4.06,0,2
15310.703,0.03,0.366,0.913,3.54,-11.47,-4.18,0,2
15310.718,0.028,0.364,0.919,3.11,-12.54,-3.72,0,2
15310.718,0.028,0.364,0.921,3.48,-13.7,-2.87,0,2
15310.734,0.031,0.364,0.924,4.3,-15.26,-2.04,0,2
15310.75,0.026,0.364,0.937,6.87,-17.3,-0.92,0,2
15310.75,0.021,0.37,0.953,10.96,-20.91,1.1,0,2
15310.765,0.019,0.37,0.957,14.89,-26.64,3.94,0,2
15310.781,0.021,0.378,0.969,18.25,-34.03,7.26,0,2
15310.781,0.026,0.389,0.965,21.82,-41.96,10.65,0,2
15310.796,0.027,0.382,0.954,24.6,-49.1,13.58,0,2
15310.812,0.048,0.385,0.94,25.42,-54.2,15.5,0,2
15310.812,0.07,0.392,0.918,24.87,-56.4,14.92,0,2
15310.828,0.088,0.391,0.901,22.37,-56.25,12.91,0,2
15310.843,0.102,0.381,0.887,19.17,-53.77,10.77,0,2
15310.843,0.123,0.381,0.874,16.51,-49.75,8.58,0,2
15310.859,0.13,0.384,0.868,15.11,-44.07,6.32,0,2
15310.859,0.138,0.39,0.865,13.98,-37.45,4.06,0,2
15310.875,0.142,0.395,0.863,13.34,-31.31,2.41,0,2
15310.89,0.148,0.403,0.856,12.97,-24.69,1.28,0,2
15310.89,0.151,0.417,0.861,11.78,-18.1,0.24,0,2
15310.906,0.149,0.423,0.868,10.22,-12.63,-0.31,0,2
15310.921,0.147,0.425,0.865,8.24,-7.9,-0.73,0,2
15310.921,0.143,0.426,0.861,5.89,-3.57,-1.19,0,2
15310.937,0.144,0.422,0.863,3.48,0.7,-2.01,0,2
15310.953,0.15,0.42,0.863,1.34,4.64,-3.17,0,2
15310.953,0.144,0.419,0.861,-0.37,8.36,-4.24,0,2
15310.968,0.14,0.416,0.865,-1.89,11.99,-4.67,0,2
15310.968,0.138,0.411,0.872,-2.47,15.02,-4.64,0,2
15310.984,0.133,0.405,0.876,-1.89,17.37,-4.58,0,2
15311.0,0.12,0.414,0.883,-0.98,18.77,-4.49,0,2
15311.0,0.109,0.418,0.893,-0.58,18.77,-4.03,0,2
15311.015,0.094,0.417,0.904,-0.46,17.58,-3.08,0,2
15311.031,0.088,0.423,0.912,-0.21,15.53,-2.17,0,2
15311.031,0.084,0.426,0.912,-0.34,12.73,-1.89,0,2
15311.046,0.081,0.426,0.908,-0.73,9.89,-1.74,0,2
15311.062,0.085,0.429,0.906,-1.37,7.54,-1.71,0,2
15311.062,0.084,0.43,0.898,-2.35,6.29,-2.11,0,2
15311.078,0.081,0.435,0.895,-3.23,6.68,-2.56,0,2
15311.078,0.078,0.436,0.898,-3.94,7.75,-2.78,0,2
15311.093,0.076,0.433,0.902,-3.17,9.25,-1.28,0,2
15311.109,0.076,0.432,0.904,-2.23,9.09,-0.4,0,2
15311.109,0.075,0.428,0.906,-1.25,8.09,0.09,0,2
15311.14,0.08,0.408,0.888,0.15,5.74,-0.58,0,2
15311.14,0.078,0.416,0.884,0.03,4.94,-1.43,0,2
15311.156,0.071,0.42,0.877,-0.73,4.55,-1.5,0,2
15311.171,0.072,0.414,0.883,-2.2,4.79,-0.82,0,2
15311.171,0.07,0.406,0.89,-3.27,5.46,-0.12,0,2
15311.187,0.068,0.404,0.899,-3.54,6.35,0.21,0,2
15311.187,0.068,0.395,0.906,-2.62,7.14,0.43,0,2
15311.203,0.066,0.39,0.913,-1.5,7.02,0.37,0,2
15311.218,0.07,0.391,0.913,-0.12,6.38,0.18,0,2
15311.218,0.072,0.388,0.91,1.5,5.65,-0.06,0,2
15311.234,0.071,0.387,0.909,2.78,4.82,0.12,0,2
15311.25,0.072,0.388,0.908,3.36,4.03,-0.06,0,2
15311.25,0.071,0.391,0.909,2.81,3.2,-0.76,0,2
15311.265,0.068,0.398,0.91,1.5,2.29,-1.95,0,2
15311.281,0.066,0.398,0.917,-0.18,1.4,-2.56,0,2
15311.281,0.066,0.402,0.923,-1.34,0.55,-2.93,0,2
15311.296,0.064,0.407,0.925,-0.67,-0.52,-2.93,0,2
15311.312,0.064,0.41,0.923,0.37,-0.55,-2.62,0,2
15311.328,0.064,0.411,0.92,1.77,-0.67,-2.04,0,2
15311.328,0.064,0.414,0.916,2.84,-1.19,-1.62,0,2
15311.343,0.061,0.414,0.91,3.27,-1.92,-0.95,0,2
15311.359,0.063,0.413,0.909,3.08,-2.53,-0.15,0,2
15311.375,0.067,0.414,0.909,2.56,-2.93,0.03,0,2
15311.375,0.069,0.417,0.911,1.77,-2.96,-0.43,0,2
15311.39,0.067,0.42,0.913,0.58,-2.56,-0.92,0,2
15311.39,0.067,0.421,0.918,-0.43,-2.32,-1.22,0,2
15311.406,0.07,0.424,0.919,-0.34,-2.47,-0.82,0,2
15311.421,0.07,0.42,0.912,0.61,-2.59,-0.52,0,2
15311.421,0.068,0.418,0.902,1.1,-3.08,-0.43,0,2
15311.437,0.07,0.413,0.892,1.01,-3.51,-0.09,0,2
15311.437,0.071,0.405,0.877,0.79,-3.54,0.09,0,2
15311.453,0.075,0.399,0.871,0.21,-3.08,-0.15,0,2
15311.468,0.079,0.398,0.874,-0.64,-1.86,-0.67,0,2
15311.484,0.08,0.404,0.883,-1.4,-0.64,-1.1,0,2
15311.484,0.074,0.408,0.897,-1.46,0.24,-0.85,0,2
15311.5,0.071,0.412,0.911,-0.67,0.34,-0.34,0,2
15311.5,0.068,0.414,0.916,0.82,-0.03,0.09,0,2
15311.515,0.066,0.417,0.915,2.56,-0.55,0.34,0,2
15311.531,0.068,0.418,0.91,3.3,-1.31,0.73,0,2
15311.531,0.074,0.415,0.903,3.39,-1.71,0.82,0,2
15311.546,0.073,0.413,0.898,3.23,-1.65,0.4,0,2
15311.562,0.069,0.411,0.895,2.87,-1.53,0.09,0,2
15311.562,0.067,0.407,0.893,2.5,-1.59,0.24,0,2
15311.578,0.066,0.407,0.892,2.08,-1.8,0.52,0,2
15311.593,0.067,0.403,0.893,1.86,-1.92,0.7,0,2
15311.593,0.065,0.402,0.895,1.5,-1.95,0.76,0,2
15311.609,0.066,0.401,0.901,1.46,-2.08,0.67,0,2
15311.609,0.067,0.4,0.904,2.08,-2.62,0.49,0,2
15311.625,0.068,0.404,0.906,3.11,-2.87,0.12,0,2
15311.64,0.061,0.406,0.914,4.27,-2.56,-0.37,0,2
15311.656,0.067,0.412,0.923,8.67,-2.84,0.18,0,2
15311.671,0.067,0.417,0.92,11.38,-3.14,0.12,0,2
15311.671,0.07,0.422,0.911,12.6,-3.63,-0.06,0,2
15311.687,0.073,0.431,0.904,12.73,-4.24,-0.18,0,2
15311.687,0.072,0.434,0.894,12.24,-4.85,-0.27,0,2
15311.703,0.077,0.437,0.886,10.8,-5.28,0.03,0,2
15311.718,0.083,0.441,0.883,8.97,-5.58,0.15,0,2
15311.718,0.086,0.442,0.879,7.32,-5.62,-0.15,0,2
15311.734,0.084,0.446,0.877,5.58,-5.43,-0.58,0,2
15311.75,0.084,0.447,0.873,3.81,-5.31,-0.79,0,2
15311.75,0.083,0.444,0.87,2.32,-4.85,-0.98,0,2
15311.765,0.083,0.446,0.871,1.13,-4.03,-1.16,0,2
15311.781,0.077,0.449,0.877,0.27,-2.9,-1.4,0,2
15311.781,0.07,0.447,0.883,-0.67,-2.01,-1.1,0,2
15311.796,0.069,0.445,0.89,-0.89,-1.5,-0.15,0,2
15311.796,0.071,0.438,0.9,-0.03,-1.31,1.1,0,2
15311.828,0.075,0.421,0.906,1.65,-2.56,2.14,0,2
15311.828,0.077,0.411,0.903,2.2,-3.54,1.65,0,2
15311.843,0.073,0.414,0.902,2.53,-4.39,0.79,0,2
15311.859,0.07,0.424,0.899,2.5,-5.28,0.06,0,2
15311.859,0.073,0.427,0.89,2.59,-5.92,-0.24,0,2
15311.875,0.074,0.433,0.884,2.9,-5.92,-0.18,0,2
15311.89,0.081,0.439,0.878,2.96,-5.65,-0.21,0,2
15311.89,0.086,0.438,0.875,2.69,-5.07,-0.31,0,2
15311.906,0.087,0.438,0.879,1.74,-4.0,-0.09,0,2
15311.921,0.093,0.441,0.885,1.25,-2.75,-0.15,0,2
15311.921,0.095,0.445,0.889,1.83,-1.46,-0.03,0,2
15311.937,0.092,0.446,0.891,2.56,-0.85,0.31,0,2
15311.953,0.088,0.446,0.89,3.17,-0.76,0.52,0,2
15311.953,0.091,0.449,0.887,2.44,-1.04,0.55,0,2
15311.968,0.088,0.453,0.88,1.22,-1.4,0.09,0,2
15311.968,0.082,0.448,0.873,-0.18,-1.43,-0.31,0,2
15311.984,0.086,0.441,0.871,-1.53,-1.19,-0.18,0,2
15312.0,0.084,0.437,0.871,-2.47,-0.58,-0.24,0,2
15312.0,0.081,0.432,0.874,-3.11,0.34,-0.37,0,2
15312.015,0.08,0.43,0.878,-3.48,1.07,-0.52,0,2
15312.031,0.075,0.43,0.885,-3.78,1.4,-0.64,0,2
15312.031,0.069,0.438,0.899,-4.46,1.16,-0.55,0,2
15312.046,0.07,0.44,0.908,-4.39,-0.12,-0.09,0,2
15312.062,0.075,0.444,0.911,-3.63,-1.34,0.82,0,2
15312.062,0.082,0.436,0.904,-2.38,-2.08,1.37,0,2
15312.078,0.085,0.427,0.901,-0.21,-2.2,1.83,0,2
15312.093,0.084,0.421,0.901,1.1,-2.41,1.86,0,2
15312.093,0.084,0.419,0.899,2.14,-2.93,1.34,0,2
15312.109,0.086,0.421,0.892,2.99,-3.08,0.7,0,2
15312.109,0.086,0.422,0.885,3.48,-2.72,0.27,0,2
15312.125,0.085,0.438,0.886,3.3,-2.41,-0.03,0,2
15312.14,0.084,0.44,0.884,2.99,-2.08,-0.24,0,2
15312.14,0.084,0.437,0.881,2.78,-1.74,-0.4,0,2
15312.156,0.083,0.441,0.879,2.53,-1.56,-0.24,0,2
15312.171,0.082,0.451,0.883,1.53,-1.59,-0.15,0,2
15312.171,0.083,0.451,0.883,0.49,-1.92,-0.03,0,2
15312.187,0.089,0.446,0.881,-0.12,-2.59,0.4,0,2
15312.203,0.094,0.441,0.879,-0.34,-3.02,0.7,0,2
15312.203,0.095,0.445,0.88,-1.16,-2.78,0.4,0,2
15312.218,0.093,0.45,0.881,-2.23,-2.38,-0.15,0,2
15312.218,0.091,0.438,0.876,-2.44,-1.92,-0.4,0,2
15312.234,0.087,0.432,0.872,-3.14,-1.34,-0.64,0,2
15312.25,0.086,0.432,0.879,-4.18,-0.55,-1.04,0,2
15312.25,0.081,0.433,0.886,-4.64,0.12,-1.31,0,2
15312.265,0.08,0.432,0.893,-4.79,0.18,-1.19,0,2
15312.281,0.086,0.43,0.897,-4.52,-0.34,-0.98,0,2
15312.281,0.087,0.428,0.898,-3.85,-0.7,-1.1,0,2
15312.296,0.084,0.435,0.9,-3.17,-0.85,-1.19,0,2
15312.312,0.08,0.439,0.901,-2.69,-1.4,-1.01,0,2
15312.312,0.078,0.434,0.895,-2.53,-2.2,-0.67,0,2
15312.328,0.083,0.435,0.892,-2.72,-2.99,-0.37,0,2
15312.343,0.089,0.432,0.884,-3.81,-3.33,-0.4,0,2
15312.359,0.088,0.424,0.887,-4.03,-2.93,-0.31,0,2
15312.359,0.089,0.425,0.89,-4.27,-2.35,-0.46,0,2
15312.375,0.091,0.428,0.89,-4.64,-1.68,-0.79,0,2
15312.39,0.088,0.423,0.894,-4.52,-1.1,-0.98,0,2
15312.39,0.088,0.425,0.894,-4.39,-0.89,-1.1,0,2
15312.406,0.086,0.423,0.896,-3.91,-0.64,-1.22,0,2
15312.421,0.085,0.42,0.898,-3.05,-0.46,-0.92,0,2
15312.421,0.084,0.423,0.901,-2.2,-0.64,-0.64,0,2
15312.437,0.084,0.424,0.904,-1.4,-0.85,-0.4,0,2
15312.437,0.086,0.423,0.897,-0.73,-1.25,-0.27,0,2
15312.453,0.086,0.419,0.895,-0.09,-1.56,-0.4,0,2
15312.468,0.085,0.43,0.891,-0.37,-1.5,-0.37,0,2
15312.468,0.088,0.422,0.888,-0.43,-1.31,-0.49,0,2
15312.484,0.083,0.43,0.888,-1.25,-1.04,-0.55,0,2
15312.5,0.088,0.425,0.886,-1.68,-0.79,-0.55,0,2
15312.515,0.089,0.431,0.899,-2.44,-0.52,-0.4,0,2
15312.531,0.085,0.427,0.9,-2.32,-0.67,-0.37,0,2
15312.531,0.085,0.413,0.893,-1.46,-0.85,-0.34,0,2
15312.546,0.087,0.409,0.894,-0.95,-0.67,-0.43,0,2
15312.546,0.083,0.42,0.906,-0.79,0.03,-0.79,0,2
15312.562,0.082,0.434,0.907,-0.15,-0.12,-0.79,0,2
15312.578,0.082,0.428,0.898,1.68,-0.89,0.03,0,2
15312.578,0.086,0.435,0.892,2.17,-1.37,1.13,0,2
15312.593,0.09,0.434,0.889,1.65,-1.34,1.53,0,2
15312.609,0.09,0.436,0.884,0.61,-0.49,2.01,0,2
15312.609,0.096,0.432,0.88,-0.43,0.12,2.29,0,2
15312.625,0.098,0.425,0.87,-0.61,1.01,2.69,0,2
15312.64,0.117,0.414,0.85,-0.34,3.14,2.9,0,2
15312.64,0.113,0.405,0.881,-3.08,5.98,2.14,0,2
15312.656,0.105,0.433,0.883,-4.21,7.11,0.46,0,2
15312.671,0.099,0.414,0.881,-1.43,8.73,1.22,0,2
15312.671,0.094,0.438,0.912,-1.59,9.77,1.46,0,2
15312.687,0.093,0.441,0.914,-0.03,10.41,1.04,0,2
15312.687,0.062,0.44,0.915,0.21,12.42,-0.76,0,2
15312.703,0.042,0.472,0.947,-8.12,11.63,-1.89,0,2
15312.718,0.093,0.473,0.946,-16.42,7.84,-1.43,0,2
15312.718,0.084,0.362,0.88,-8.97,9.13,-0.98,0,2
15312.734,0.04,0.448,0.913,-10.44,9.46,1.34,0,2
15312.75,0.117,0.425,0.896,-10.71,7.75,1.77,0,2
15312.75,0.071,0.377,0.864,-7.05,9.03,-1.07,0,2
15312.765,0.06,0.412,0.868,-9.0,7.66,-1.8,0,2
15312.781,0.059,0.411,0.871,-9.49,4.67,-0.82,0,2
15312.781,0.041,0.404,0.88,-9.52,0.92,0.55,0,2
15312.796,0.044,0.4,0.894,-9.55,-3.3,1.31,0,2
15312.812,0.042,0.391,0.901,-7.39,-6.65,1.43,0,2
15312.812,0.035,0.391,0.902,-5.1,-8.39,0.95,0,2
15312.828,0.037,0.389,0.908,-3.57,-8.15,0.55,0,2
15312.828,0.033,0.398,0.928,-3.27,-6.9,1.07,0,2
15312.843,0.037,0.397,0.942,-3.14,-6.2,2.29,0,2
15312.859,0.048,0.382,0.954,-2.32,-6.96,3.51,0,2
15312.859,0.053,0.383,0.963,-1.04,-8.51,3.85,0,2
15312.875,0.061,0.38,0.956,0.79,-11.11,3.48,0,2
15312.89,0.06,0.37,0.948,4.18,-13.7,2.93,0,2
15312.89,0.059,0.416,0.957,5.8,-16.88,2.99,0,2
15312.906,0.135,0.38,0.89,8.76,-19.75,2.53,0,2
15312.921,0.091,0.345,0.844,14.34,-16.45,-0.34,0,2
15312.921,0.107,0.433,0.844,10.16,-13.89,-1.37,0,2
15312.937,0.115,0.413,0.829,7.42,-10.32,-1.74,0,2
15312.953,0.103,0.408,0.819,2.62,-5.19,-2.32,0,2
15312.953,0.113,0.423,0.842,-4.12,-0.18,-2.93,0,2
15312.968,0.108,0.431,0.871,-7.54,3.94,-2.9,0,2
15312.968,0.097,0.43,0.897,-8.51,6.1,-2.38,0,2
15312.984,0.092,0.43,0.918,-8.85,6.13,-1.62,0,2
15313.0,0.089,0.426,0.932,-8.58,5.25,-1.19,0,2
15313.0,0.082,0.415,0.932,-8.0,3.81,-1.37,0,2
15313.015,0.076,0.398,0.921,-7.23,2.41,-1.53,0,2
15313.031,0.073,0.384,0.903,-4.79,1.46,-1.4,0,2
15313.046,0.072,0.378,0.906,-3.08,2.08,-1.5,0,2
15313.062,0.078,0.4,0.895,0.73,3.17,-0.15,0,2
15313.062,0.078,0.404,0.887,-1.62,4.15,-0.27,0,2
15313.078,0.076,0.39,0.898,-3.2,4.24,-1.25,0,2
15313.078,0.082,0.397,0.898,-3.57,4.49,-1.68,0,2
15313.093,0.075,0.403,0.91,-4.58,4.18,-1.74,0,2
15313.109,0.075,0.408,0.921,-4.36,3.45,-1.53,0,2
15313.109,0.065,0.41,0.93,-3.57,2.66,-1.1,0,2
15313.125,0.062,0.409,0.933,-2.9,1.28,-0.4,0,2
15313.14,0.063,0.406,0.93,-1.98,-0.15,0.49,0,2
15313.14,0.068,0.395,0.923,-1.68,-1.28,0.64,0,2
15313.156,0.07,0.389,0.911,-1.34,-1.8,0.58,0,2
15313.171,0.074,0.389,0.902,-0.73,-1.77,0.61,0,2
15313.171,0.078,0.388,0.896,-0.73,-1.37,0.49,0,2
15313.187,0.078,0.39,0.893,-1.1,-0.64,0.27,0,2
15313.203,0.079,0.396,0.899,-2.66,0.46,-0.73,0,2
15313.218,0.078,0.4,0.904,-3.14,0.73,-1.25,0,2
15313.218,0.074,0.401,0.913,-3.45,0.73,-1.31,0,2
15313.234,0.068,0.401,0.916,-3.14,0.79,-1.01,0,2
15313.25,0.065,0.395,0.918,-2.72,0.4,-0.58,0,2
15313.25,0.061,0.391,0.921,-2.17,-0.12,-0.03,0,2
15313.265,0.059,0.389,0.922,-1.56,-0.82,0.43,0,2
15313.281,0.062,0.389,0.919,-1.16,-1.74,0.64,0,2
15313.281,0.066,0.384,0.914,-0.82,-2.53,0.49,0,2
15313.296,0.07,0.384,0.912,-0.7,-2.75,-0.06,0,2
15313.312,0.077,0.394,0.905,-0.43,-2.56,-0.46,0,2
15313.312,0.075,0.388,0.905,-1.13,-1.95,-0.58,0,2
15313.328,0.077,0.386,0.906,-1.28,-1.22,-0.7,0,2
15313.328,0.079,0.39,0.906,-0.64,-0.89,-0.67,0,2
15313.343,0.077,0.395,0.906,-0.34,-0.58,-0.58,0,2
15313.359,0.074,0.395,0.904,-0.18,-0.24,-0.49,0,2
15313.359,0.073,0.392,0.905,-0.12,-0.03,-0.15,0,2
15313.375,0.077,0.388,0.907,0.15,0.18,0.4,0,2
15313.39,0.083,0.38,0.906,0.89,0.24,0.61,0,2
15313.39,0.083,0.379,0.907,1.74,0.73,0.27,0,2
15313.406,0.078,0.385,0.908,2.32,1.37,-0.15,0,2
15313.421,0.075,0.386,0.91,2.2,1.16,-0.64,0,2
15313.421,0.07,0.394,0.914,1.4,0.67,-0.89,0,2
15313.437,0.068,0.405,0.917,0.12,0.27,-1.46,0,2
15313.437,0.064,0.407,0.917,-0.79,-0.03,-1.83,0,2
15313.453,0.068,0.41,0.91,-0.58,-0.31,-1.4,0,2
15313.468,0.069,0.405,0.903,0.18,0.03,-0.79,0,2
15313.468,0.074,0.396,0.896,0.64,0.98,-0.24,0,2
15313.484,0.078,0.392,0.89,1.01,2.17,0.06,0,2
15313.5,0.079,0.39,0.887,1.16,4.0,0.24,0,2
15313.5,0.081,0.384,0.888,1.77,6.13,0.0,0,2
15313.515,0.093,0.402,0.907,3.45,8.15,0.46,0,2
15313.531,0.096,0.454,0.914,3.54,9.74,0.85,0,2
15313.531,0.094,0.451,0.922,2.38,10.56,1.04,0,2
15313.546,0.098,0.459,0.927,1.16,9.58,2.78,0,2
15313.562,0.11,0.482,0.925,-0.43,8.51,5.25,0,2
15313.562,0.112,0.487,0.931,-2.69,9.13,7.69,0,2
15313.578,0.11,0.475,0.938,-3.88,10.71,10.19,0,2
15313.578,0.104,0.467,0.939,-2.29,12.02,13.52,0,2
15313.593,0.11,0.458,0.94,-0.76,13.09,16.27,0,2
15313.609,0.109,0.454,0.945,-0.89,13.67,17.3,0,2
15313.609,0.102,0.451,0.951,-1.98,14.04,17.82,0,2
15313.625,0.102,0.447,0.945,-3.63,13.73,17.91,0,2
15313.64,0.095,0.435,0.945,-5.74,13.4,17.79,0,2
15313.64,0.099,0.424,0.945,-7.81,12.33,17.67,0,2
15313.656,0.098,0.414,0.945,-8.91,10.86,17.37,0,2
15313.671,0.089,0.396,0.943,-9.64,9.52,16.91,0,2
15313.671,0.093,0.393,0.937,-9.58,8.97,16.33,0,2
15313.687,0.086,0.386,0.936,-8.73,9.92,15.63,0,2
15313.703,0.086,0.374,0.936,-7.14,11.47,15.81,0,2
15313.703,0.084,0.373,0.936,-4.33,12.82,15.69,0,2
15313.734,0.079,0.37,0.934,2.11,14.16,15.63,0,2
15313.734,0.07,0.37,0.924,5.22,14.31,14.83,0,2
15313.75,0.071,0.375,0.911,5.8,13.15,13.25,0,2
15313.75,0.062,0.382,0.901,3.48,11.9,11.23,0,2
15313.765,0.061,0.387,0.897,-1.01,10.47,10.01,0,2
15313.781,0.057,0.383,0.883,-6.74,9.0,8.42,0,2
15313.781,0.058,0.367,0.885,-12.05,8.48,7.72,0,2
15313.796,0.06,0.36,0.891,-14.68,8.64,7.26,0,2
15313.796,0.062,0.347,0.896,-15.05,9.03,7.11,0,2
15313.812,0.062,0.34,0.898,-13.15,9.77,6.44,0,2
15313.828,0.057,0.33,0.893,-9.61,10.74,5.95,0,2
15313.828,0.049,0.333,0.889,-6.16,12.02,5.19,0,2
15313.843,0.043,0.323,0.881,-2.96,13.18,4.3,0,2
15313.859,0.039,0.32,0.873,-0.55,14.37,3.39,0,2
15313.875,0.028,0.335,0.869,0.31,15.44,1.95,0,2
15313.875,0.013,0.354,0.87,-0.85,15.63,0.21,0,2
15313.89,-0.008,0.374,0.878,-8.61,13.18,-1.28,0,2
15313.906,-0.013,0.369,0.884,-12.67,10.86,-1.43,0,2
15313.921,-0.011,0.356,0.89,-15.08,8.45,-1.31,0,2
15313.921,-0.007,0.348,0.898,-15.47,6.78,-1.13,0,2
15313.937,-0.008,0.341,0.904,-13.67,6.59,-0.58,0,2
15313.953,-0.013,0.347,0.906,-11.05,6.68,0.4,0,2
15313.953,-0.016,0.357,0.902,-7.63,7.35,1.4,0,2
15313.968,-0.017,0.354,0.903,-4.24,7.9,1.95,0,2
15313.968,-0.02,0.359,0.901,-2.11,7.6,1.74,0,2
15313.984,-0.023,0.366,0.893,-0.92,6.78,1.8,0,2
15314.0,-0.023,0.354,0.886,-0.73,5.89,1.89,0,2
15314.0,-0.022,0.355,0.889,-2.32,5.49,1.43,0,2
15314.015,-0.025,0.365,0.886,-4.06,5.83,1.16,0,2
15314.031,-0.029,0.362,0.894,-5.19,7.17,0.92,0,2
15314.031,-0.036,0.35,0.902,-4.7,12.21,0.7,0,2
15314.046,-0.041,0.346,0.911,-2.84,14.62,0.18,0,2
15314.062,-0.028,0.336,0.923,-0.18,16.11,-4.15,0,2
15314.078,-0.019,0.323,0.887,-0.79,16.24,-6.96,0,2
15314.078,-0.018,0.324,0.88,-2.66,15.93,-9.28,0,2
15314.093,-0.02,0.32,0.881,-5.34,15.32,-10.83,0,2
15314.109,-0.018,0.297,0.861,-8.24,14.5,-11.11,0,2
15314.109,-0.016,0.275,0.858,-12.67,14.01,-12.24,0,2
15314.125,-0.013,0.25,0.852,-15.32,13.76,-13.4,0,2
15314.14,-0.021,0.235,0.852,-15.9,13.64,-14.22,0,2
15314.14,-0.024,0.236,0.866,-15.26,15.29,-15.69,0,2
15314.156,-0.013,0.231,0.849,-14.89,19.87,-19.5,0,2
15314.171,-0.063,0.256,0.795,-14.19,30.15,-25.45,0,2
15314.171,-0.308,0.39,1.001,-11.63,43.89,-23.8,0,2
15314.187,-0.382,0.428,1.39,0.0,37.02,-6.62,0,2
15314.187,-0.396,0.456,1.458,6.07,4.76,7.26,0,2
15314.203,-0.256,0.354,1.201,-4.73,-29.6,10.04,0,2
15314.218,-0.141,0.29,1.051,-16.88,-36.84,3.91,0,2
15314.234,-0.142,0.235,0.944,4.91,-5.98,-3.6,0,2
15314.25,-0.15,0.314,0.898,18.89,6.71,-0.67,0,2
15314.25,-0.171,0.363,0.916,27.47,14.4,2.32,0,2
15314.265,-0.232,0.406,1.011,30.64,13.12,5.8,0,2
15314.281,-0.131,0.3,1.02,30.55,0.79,9.4,0,2
15314.296,-0.218,0.35,0.898,15.02,-14.86,-2.72,0,2
15314.296,-0.175,0.323,0.93,4.88,-22.64,-4.33,0,2
15314.296,-0.155,0.283,0.931,-2.29,-33.23,-4.76,0,2
15314.312,-0.116,0.279,0.918,-8.39,-41.9,-5.62,0,2
15314.328,-0.063,0.247,0.887,-10.71,-46.91,-7.63,0,2
15314.343,-0.048,0.226,0.875,-6.62,-45.66,-11.35,0,2
15314.343,-0.046,0.223,0.877,0.12,-41.75,-15.32,0,2
15314.359,-0.045,0.237,0.871,5.46,-38.0,-18.89,0,2
15314.359,-0.036,0.264,0.87,8.61,-34.03,-21.94,0,2
15314.375,-0.017,0.29,0.876,9.22,-30.58,-24.35,0,2
15314.39,0.004,0.313,0.871,7.26,-28.23,-26.31,0,2
15314.406,0.028,0.365,0.864,-3.48,-25.3,-31.16,0,2
15314.421,0.031,0.377,0.864,-9.98,-25.24,-33.08,0,2
15314.421,0.032,0.389,0.871,-15.93,-25.54,-34.0,0,2
15314.437,0.041,0.387,0.879,-20.87,-26.12,-34.03,0,2
15314.453,0.047,0.381,0.893,-24.81,-26.49,-33.72,0,2
15314.453,0.06,0.386,0.918,-28.47,-27.89,-33.81,0,2
15314.468,0.081,0.379,0.931,-30.64,-29.82,-34.21,0,2
15314.468,0.088,0.352,0.942,-30.7,-31.01,-35.83,0,2
15314.484,0.081,0.376,0.966,-30.43,-31.56,-35.37,0,2
15314.5,0.09,0.369,0.983,-28.08,-31.89,-32.04,0,2
15314.515,0.112,0.326,0.985,-22.46,-31.43,-28.87,0,2
15314.515,0.11,0.321,0.981,-14.31,-28.69,-24.96,0,2
15314.531,0.117,0.326,0.976,-3.91,-24.48,-20.39,0,2
15314.531,0.117,0.315,0.969,6.26,-20.26,-16.97,0,2
15314.546,0.119,0.325,0.951,14.37,-16.11,-14.95,0,2
15314.562,0.116,0.35,0.932,18.43,-12.05,-15.05,0,2
15314.578,0.115,0.347,0.924,9.98,-8.85,-15.26,0,2
15314.578,0.097,0.351,0.917,3.91,-8.21,-15.63,0,2
15314.593,0.099,0.358,0.919,-1.1,-7.2,-14.53,0,2
15314.609,0.096,0.335,0.924,-3.42,-5.16,-13.52,0,2
15314.609,0.079,0.336,0.937,-3.14,-2.11,-11.72,0,2
15314.625,0.063,0.345,0.954,0.4,1.13,-8.48,0,2
15314.64,0.052,0.352,0.963,6.78,3.57,-4.12,0,2
15314.64,0.047,0.358,0.96,14.04,5.62,0.7,0,2
15314.656,0.043,0.355,0.959,18.07,6.1,2.69,0,2
15314.671,0.036,0.36,0.961,18.77,5.43,2.2,0,2
15314.671,0.029,0.368,0.956,16.91,3.85,1.37,0,2
15314.687,0.027,0.372,0.955,13.0,1.37,0.76,0,2
15314.703,0.024,0.375,0.951,8.61,-1.34,0.73,0,2
15314.703,0.026,0.367,0.942,5.19,-3.23,0.85,0,2
15314.718,0.025,0.357,0.937,3.88,-4.03,1.43,0,2
15314.718,0.028,0.354,0.935,3.94,-3.91,1.65,0,2
15314.75,0.026,0.344,0.933,5.4,-2.53,0.89,0,2
15314.75,0.027,0.347,0.93,4.82,-2.08,0.73,0,2
15314.765,0.026,0.342,0.929,3.69,-1.92,0.79,0,2
15314.781,0.031,0.334,0.928,2.53,-2.04,0.89,0,2
15314.781,0.036,0.328,0.934,2.08,-1.86,0.89,0,2
15314.796,0.039,0.321,0.933,2.93,-1.37,0.82,0,2
15314.812,0.04,0.315,0.935,4.21,-0.7,0.43,0,2
15314.812,0.036,0.326,0.942,5.46,0.24,0.24,0,2
15314.828,0.028,0.338,0.95,6.16,0.79,0.0,0,2
15314.828,0.021,0.342,0.954,5.65,-0.12,-0.15,0,2
15314.843,0.02,0.348,0.953,4.15,-2.08,-0.31,0,2
15314.859,0.021,0.349,0.947,2.23,-4.3,-0.92,0,2
15314.859,0.022,0.347,0.938,0.67,-5.86,-1.4,0,2
15314.875,0.021,0.349,0.934,-0.79,-6.71,-1.8,0,2
15314.89,0.024,0.347,0.933,-2.11,-7.2,-2.01,0,2
15314.89,0.026,0.343,0.935,-2.41,-7.51,-2.11,0,2
15314.906,0.026,0.343,0.939,-1.86,-8.3,-1.98,0,2
15314.921,0.036,0.344,0.944,-1.74,-9.28,-1.89,0,2
15314.921,0.041,0.342,0.944,-1.4,-9.95,-2.35,0,2
15314.937,0.045,0.328,0.924,-0.18,-9.95,-2.84,0,2
15314.937,0.047,0.326,0.921,-0.12,-9.31,-3.42,0,2
15314.953,0.047,0.331,0.928,0.34,-8.18,-3.75,0,2
15314.968,0.044,0.33,0.935,1.22,-8.03,-3.72,0,2
15314.968,0.048,0.334,0.933,1.65,-9.19,-4.03,0,2
15314.984,0.052,0.335,0.924,1.92,-10.25,-4.39,0,2
15315.0,0.052,0.341,0.918,1.74,-10.41,-4.73,0,2
15315.0,0.056,0.343,0.916,0.61,-10.41,-4.79,0,2
15315.015,0.056,0.345,0.914,-0.82,-10.59,-4.64,0,2
15315.031,0.055,0.347,0.915,-2.17,-9.92,-3.78,0,2
15315.031,0.056,0.347,0.921,-1.95,-9.55,-3.2,0,2
15315.046,0.056,0.345,0.925,-1.59,-8.91,-2.38,0,2
15315.062,0.059,0.344,0.938,-0.95,-8.27,-1.92,0,2
15315.062,0.062,0.341,0.939,-0.03,-8.61,-1.59,0,2
15315.078,0.065,0.343,0.935,0.37,-9.28,-1.25,0,2
15315.093,0.067,0.337,0.933,1.04,-9.8,-1.19,0,2
15315.093,0.06,0.338,0.934,1.5,-10.16,-1.62,0,2
15315.109,0.061,0.341,0.934,1.71,-11.35,-1.68,0,2
15315.109,0.064,0.339,0.928,1.95,-12.05,-1.53,0,2
15315.125,0.064,0.339,0.925,1.8,-11.2,-1.22,0,2
15315.14,0.065,0.339,0.927,0.89,-9.58,-1.43,0,2
15315.14,0.067,0.337,0.927,0.0,-8.18,-2.04,0,2
15315.156,0.072,0.343,0.926,-0.24,-6.99,-2.2,0,2
15315.171,0.073,0.347,0.922,0.0,-5.55,-1.98,0,2
15315.171,0.075,0.343,0.914,0.61,-4.33,-1.31,0,2
15315.187,0.078,0.34,0.908,1.43,-2.66,-0.49,0,2
15315.203,0.083,0.335,0.903,3.02,-0.61,0.21,0,2
15315.203,0.077,0.332,0.906,4.76,1.28,0.52,0,2
15315.218,0.072,0.34,0.916,5.28,1.86,0.49,0,2
15315.218,0.066,0.344,0.919,4.64,0.85,0.31,0,2
15315.234,0.06,0.347,0.933,2.84,-1.16,-0.18,0,2
15315.25,0.059,0.354,0.942,0.34,-3.75,-1.13,0,2
15315.265,0.062,0.351,0.953,-4.49,-8.51,-2.41,0,2
15315.281,0.066,0.343,0.951,-4.43,-9.58,-2.47,0,2
15315.281,0.071,0.343,0.946,-2.81,-9.4,-2.47,0,2
15315.296,0.071,0.343,0.941,-0.21,-8.33,-2.32,0,2
15315.312,0.07,0.344,0.94,1.8,-7.08,-2.14,0,2
15315.312,0.07,0.347,0.939,2.99,-6.44,-1.46,0,2
15315.328,0.067,0.345,0.94,3.54,-6.5,-0.64,0,2
15315.328,0.073,0.352,0.94,3.05,-7.17,-0.24,0,2
15315.343,0.074,0.356,0.938,1.74,-7.97,-0.58,0,2
15315.359,0.073,0.349,0.941,0.0,-8.51,-1.07,0,2
15315.359,0.076,0.35,0.945,-0.92,-9.83,-1.28,0,2
15315.375,0.078,0.355,0.944,-0.89,-11.66,-1.59,0,2
15315.39,0.079,0.351,0.936,-0.52,-13.15,-1.34,0,2
15315.39,0.083,0.343,0.934,0.37,-14.01,-1.01,0,2
15315.406,0.087,0.343,0.933,1.46,-14.13,-0.79,0,2
15315.421,0.086,0.347,0.932,2.17,-13.46,-0.43,0,2
15315.437,0.095,0.346,0.929,3.08,-12.18,0.85,0,2
15315.437,0.1,0.349,0.931,3.33,-11.6,1.28,0,2
15315.453,0.099,0.349,0.926,3.85,-11.41,1.8,0,2
15315.468,0.105,0.345,0.913,5.31,-10.9,2.53,0,2
15315.468,0.11,0.34,0.91,5.92,-10.1,2.81,0,2
15315.484,0.112,0.343,0.903,5.89,-9.31,2.53,0,2
15315.5,0.111,0.344,0.9,6.23,-7.78,2.35,0,2
15315.5,0.116,0.336,0.9,5.95,-6.1,1.8,0,2
15315.515,0.126,0.334,0.91,4.94,-4.0,0.89,0,2
15315.531,0.146,0.33,0.907,4.67,-1.01,-1.01,0,2
15315.531,0.146,0.318,0.885,5.22,4.3,-4.3,0,2
15315.546,0.098,0.335,0.938,4.36,10.93,-7.66,0,2
15315.562,0.085,0.462,1.026,-12.3,8.03,-8.82,0,2
15315.562,0.134,0.344,0.978,-13.89,5.83,-7.84,0,2
15315.578,-0.02,0.355,1.009,-9.83,5.43,-8.88,0,2
15315.578,0.042,0.478,1.041,-16.48,-3.48,-3.97,0,2
15315.593,0.062,0.368,1.025,-7.84,-9.83,-0.37,0,2
15315.609,0.077,0.319,0.958,0.43,-15.38,0.18,0,2
15315.609,0.109,0.331,0.891,6.44,-16.79,-0.98,0,2
15315.625,0.11,0.3,0.866,16.91,-13.12,-0.85,0,2
15315.64,0.11,0.288,0.843,24.57,-10.71,-1.16,0,2
15315.656,0.111,0.326,0.827,26.22,-9.06,-1.74,0,2
15315.656,0.1,0.36,0.82,23.53,-6.38,-0.31,0,2
15315.671,0.087,0.373,0.824,17.3,-3.72,3.2,0,2
15315.671,0.085,0.377,0.849,10.04,-1.71,6.74,0,2
15315.687,0.09,0.373,0.874,5.83,-0.43,9.09,0,2
15315.703,0.094,0.378,0.888,3.88,0.09,10.59,0,2
15315.703,0.095,0.379,0.893,3.33,0.55,11.38,0,2
15315.718,0.092,0.368,0.908,3.75,0.92,11.99,0,2
15315.734,0.099,0.371,0.928,4.43,-0.21,12.42,0,2
15315.734,0.082,0.404,0.958,3.57,-2.47,11.17,0,2
15315.75,0.112,0.43,0.975,-3.11,-8.73,10.32,0,2
15315.75,0.154,0.345,0.921,-0.95,-10.04,8.06,0,2
15315.765,0.114,0.364,0.927,-2.17,-8.21,4.85,0,2
15315.781,0.15,0.4,0.943,-6.16,-7.2,4.15,0,2
15315.781,0.142,0.367,0.934,-6.07,-5.31,3.3,0,2
15315.796,0.149,0.362,0.931,-6.65,-3.85,2.2,0,2
15315.812,0.15,0.364,0.929,-6.38,-3.02,0.76,0,2
15315.812,0.143,0.357,0.923,-5.55,-2.41,-0.34,0,2
15315.828,0.142,0.352,0.91,-4.24,-1.59,-0.89,0,2
15315.843,0.128,0.357,0.905,-1.98,0.18,-1.37,0,2
15315.843,0.115,0.361,0.904,-0.67,1.8,-0.98,0,2
15315.859,0.111,0.376,0.906,0.7,3.23,0.61,0,2
15315.859,0.104,0.388,0.908,1.5,4.24,2.96,0,2
15315.875,0.12,0.365,0.916,-1.25,4.0,2.41,0,2
15315.89,0.107,0.367,0.925,-4.39,3.23,1.07,0,2
15315.89,0.111,0.366,0.928,-5.13,2.04,1.28,0,2
15315.906,0.119,0.354,0.926,-5.1,1.19,1.5,0,2
15315.921,0.121,0.344,0.924,-4.24,1.25,0.98,0,2
15315.921,0.122,0.34,0.925,-3.05,2.01,0.43,0,2
15315.937,0.122,0.337,0.921,-1.83,2.62,-0.34,0,2
15315.953,0.116,0.339,0.922,0.52,3.36,-1.46,0,2
15315.968,0.11,0.348,0.924,1.89,3.75,-1.95,0,2
15315.968,0.106,0.36,0.929,2.87,3.91,-2.11,0,2
15315.984,0.105,0.367,0.929,3.6,3.75,-1.92,0,2
15316.0,0.103,0.372,0.924,3.97,3.39,-1.65,0,2
15316.0,0.105,0.373,0.92,3.97,2.38,-0.89,0,2
15316.015,0.1,0.374,0.929,3.63,0.58,-0.34,0,2
15316.031,0.088,0.381,0.935,1.53,-2.11,-0.06,0,2
15316.046,0.085,0.389,0.938,-1.4,-4.97,-0.31,0,2
15316.046,0.09,0.384,0.927,-3.78,-7.45,-0.18,0,2
15316.046,0.096,0.375,0.924,-5.77,-8.61,0.37,0,2
15316.062,0.11,0.365,0.915,-6.1,-8.61,0.85,0,2
15316.078,0.117,0.347,0.905,-5.25,-7.75,1.25,0,2
15316.078,0.125,0.339,0.899,-4.24,-6.26,1.22,0,2
15316.093,0.129,0.336,0.899,-3.45,-4.52,0.85,0,2
15316.109,0.132,0.34,0.908,-3.02,-2.96,0.34,0,2
15316.109,0.13,0.347,0.916,-2.44,-1.5,-0.37,0,2
15316.125,0.125,0.355,0.921,-1.59,-0.43,-0.64,0,2
15316.14,0.117,0.366,0.925,-1.31,0.27,-0.89,0,2
15316.156,0.11,0.38,0.931,-1.68,0.06,-0.76,0,2
15316.156,0.103,0.385,0.93,-2.81,-0.76,-0.24,0,2
15316.156,0.099,0.383,0.923,-4.3,-1.98,0.4,0,2
15316.171,0.1,0.378,0.918,-6.16,-3.66,0.73,0,2
15316.187,0.104,0.372,0.913,-8.48,-5.28,1.04,0,2
15316.187,0.112,0.363,0.909,-10.47,-6.23,1.22,0,2
15316.203,0.117,0.346,0.907,-11.38,-6.04,1.34,0,2
15316.218,0.123,0.336,0.916,-11.26,-5.49,1.56,0,2
15316.218,0.128,0.331,0.925,-10.28,-4.79,1.56,0,2
15316.234,0.131,0.324,0.93,-8.64,-3.69,1.22,0,2
15316.25,0.132,0.318,0.938,-6.32,-2.56,0.82,0,2
15316.25,0.132,0.319,0.942,-3.91,-1.71,0.27,0,2
15316.265,0.127,0.325,0.942,-1.59,-1.04,-0.21,0,2
15316.281,0.121,0.332,0.944,-0.18,-0.92,-0.67,0,2
15316.281,0.114,0.34,0.942,0.76,-1.31,-1.04,0,2
15316.296,0.113,0.344,0.935,1.65,-2.04,-0.92,0,2
15316.312,0.114,0.345,0.923,2.56,-2.41,-0.46,0,2
15316.312,0.115,0.347,0.917,2.96,-1.98,-0.12,0,2
15316.328,0.115,0.351,0.912,2.78,-1.19,0.24,0,2
15316.343,0.115,0.351,0.912,2.29,-0.58,0.61,0,2
15316.343,0.116,0.351,0.916,1.46,-0.46,0.92,0,2
15316.359,0.12,0.354,0.921,0.55,-0.64,0.98,0,2
15316.359,0.121,0.354,0.923,-0.24,-0.79,0.82,0,2
15316.375,0.124,0.349,0.924,-0.82,-0.89,0.92,0,2
15316.39,0.128,0.347,0.926,-0.89,-0.82,1.13,0,2
15316.39,0.132,0.34,0.928,-0.7,-0.31,1.25,0,2
15316.406,0.127,0.337,0.932,-0.4,0.03,0.82,0,2
15316.421,0.124,0.337,0.936,-0.18,-0.09,0.0,0,2
15316.421,0.12,0.339,0.93,-0.06,-0.67,-0.61,0,2
15316.437,0.117,0.342,0.926,0.12,-0.67,-1.22,0,2
15316.453,0.116,0.343,0.922,0.34,-0.27,-1.34,0,2
15316.453,0.115,0.347,0.921,0.7,-0.09,-1.1,0,2
15316.468,0.112,0.35,0.919,1.1,-0.12,-0.89,0,2
15316.468,0.116,0.351,0.917,0.76,-0.03,-0.61,0,2
15316.484,0.116,0.352,0.919,0.52,0.18,-0.34,0,2
15316.5,0.115,0.352,0.926,0.43,0.52,0.0,0,2
15316.5,0.116,0.352,0.93,0.49,0.43,0.37,0,2
15316.515,0.119,0.349,0.928,0.67,0.18,0.7,0,2
15316.531,0.118,0.345,0.926,0.82,0.12,0.82,0,2
15316.531,0.12,0.343,0.927,0.82,-0.03,0.82,0,2
15316.546,0.123,0.34,0.928,0.64,-0.09,0.49,0,2
15316.562,0.125,0.339,0.926,1.07,0.18,0.18,0,2
15316.562,0.12,0.344,0.923,1.53,0.82,-0.06,0,2
15316.578,0.115,0.346,0.923,1.89,1.01,0.09,0,2
15316.578,0.113,0.349,0.926,1.74,1.01,0.21,0,2
15316.593,0.112,0.353,0.93,1.62,1.07,0.21,0,2
15316.609,0.107,0.348,0.922,1.95,0.82,0.15,0,2
15316.609,0.108,0.33,0.9,4.12,0.67,-0.4,0,2
15316.625,0.111,0.34,0.906,5.52,1.68,-0.15,0,2
15316.64,0.111,0.378,0.925,3.48,4.06,0.15,0,2
15316.64,0.098,0.372,0.94,0.12,5.28,-0.37,0,2
15316.656,0.093,0.343,0.941,-0.7,3.17,0.24,0,2
15316.671,0.11,0.324,0.936,0.7,-0.73,1.68,0,2
15316.671,0.123,0.341,0.952,1.31,-3.36,2.32,0,2
15316.687,0.124,0.376,0.964,0.49,-4.88,1.4,0,2
15316.687,0.122,0.367,0.95,1.74,-6.26,0.43,0,2
15316.703,0.12,0.352,0.924,4.03,-6.93,0.7,0,2
15316.718,0.124,0.358,0.906,3.72,-6.04,0.85,0,2
15316.718,0.12,0.346,0.892,1.77,-3.88,0.12,0,2
15316.734,0.121,0.336,0.878,0.34,-1.92,-0.46,0,2
15316.75,0.125,0.335,0.886,0.12,-0.7,-0.37,0,2
15316.75,0.125,0.36,0.913,-0.98,0.43,0.03,0,2
15316.765,0.12,0.37,0.933,-2.29,1.16,-0.61,0,2
15316.781,0.107,0.361,0.939,-1.95,1.07,-1.1,0,2
15316.781,0.105,0.353,0.934,-0.92,0.06,-0.61,0,2
15316.796,0.11,0.351,0.932,-0.27,-0.7,-0.18,0,2
15316.796,0.113,0.355,0.93,-0.49,-0.73,-0.03,0,2
15316.812,0.112,0.347,0.923,-0.06,-0.95,-0.06,0,2
15316.828,0.117,0.344,0.916,0.98,-1.07,0.15,0,2
15316.828,0.118,0.349,0.918,1.13,-0.79,0.18,0,2
15316.843,0.117,0.353,0.922,0.67,-0.49,-0.18,0,2
15316.859,0.116,0.352,0.921,0.46,-0.12,-0.37,0,2
15316.859,0.117,0.353,0.922,0.46,-0.27,-0.4,0,2
15316.875,0.12,0.358,0.925,0.12,-0.7,-0.58,0,2
15316.89,0.12,0.357,0.919,-0.46,-0.76,-0.76,0,2
15316.89,0.121,0.352,0.912,-1.04,-0.21,-1.22,0,2
15316.906,0.12,0.351,0.909,-1.19,0.61,-1.28,0,2
15316.921,0.118,0.352,0.912,-1.31,1.46,-1.28,0,2
15316.921,0.113,0.353,0.921,-1.83,2.04,-1.37,0,2
15316.937,0.108,0.354,0.93,-2.23,1.8,-1.28,0,2
15316.937,0.105,0.357,0.932,-2.5,0.85,-0.85,0,2
15316.953,0.102,0.357,0.938,-2.44,-0.31,-0.52,0,2
15316.968,0.101,0.357,0.938,-2.14,-1.4,0.09,0,2
15316.984,0.103,0.352,0.935,-1.28,-2.47,0.73,0,2
15316.984,0.106,0.345,0.928,0.73,-3.27,1.16,0,2
15317.0,0.108,0.341,0.925,1.28,-3.05,0.79,0,2
15317.0,0.114,0.34,0.922,1.68,-2.38,0.46,0,2
15317.015,0.118,0.34,0.919,2.23,-1.77,0.27,0,2
15317.031,0.119,0.342,0.927,2.78,-1.22,0.09,0,2
15317.031,0.119,0.342,0.93,3.54,-0.92,-0.15,0,2
15317.046,0.118,0.341,0.933,4.55,-1.01,-0.37,0,2
15317.062,0.118,0.345,0.931,5.4,-1.4,-0.64,0,2
15317.062,0.117,0.35,0.926,6.01,-1.74,-1.01,0,2
15317.078,0.117,0.354,0.921,6.35,-1.86,-1.4,0,2
15317.093,0.116,0.356,0.914,6.53,-1.86,-1.53,0,2
15317.093,0.117,0.359,0.911,6.16,-1.71,-1.77,0,2
15317.109,0.115,0.361,0.912,5.52,-1.62,-2.2,0,2
15317.109,0.115,0.364,0.913,4.91,-1.77,-2.38,0,2
15317.125,0.115,0.368,0.916,4.55,-1.8,-2.38,0,2
15317.14,0.116,0.368,0.916,3.85,-2.01,-2.69,0,2
15317.14,0.118,0.362,0.92,2.81,-2.47,-3.3,0,2
15317.156,0.117,0.362,0.918,1.65,-3.14,-4.39,0,2
15317.171,0.12,0.362,0.914,0.61,-3.78,-5.58,0,2
15317.171,0.121,0.359,0.909,-0.18,-3.85,-6.47,0,2
15317.187,0.119,0.363,0.907,-0.67,-3.08,-6.68,0,2
15317.203,0.117,0.365,0.909,-0.76,-1.89,-6.44,0,2
15317.203,0.113,0.367,0.913,-0.58,-0.7,-5.86,0,2
15317.218,0.104,0.369,0.92,-0.15,0.15,-4.97,0,2
15317.218,0.104,0.37,0.937,0.46,0.09,-3.48,0,2
15317.234,0.1,0.369,0.935,1.46,-1.07,-2.69,0,2
15317.25,0.099,0.366,0.933,1.83,-2.08,-2.47,0,2
15317.25,0.103,0.36,0.925,2.44,-2.87,-1.86,0,2
15317.265,0.108,0.359,0.922,2.72,-3.33,-1.37,0,2
15317.281,0.111,0.362,0.92,2.53,-3.66,-1.34,0,2
15317.281,0.116,0.363,0.917,2.01,-3.97,-1.68,0,2
15317.296,0.121,0.358,0.92,1.13,-4.61,-2.66,0,2
15317.312,0.123,0.368,0.917,0.67,-5.16,-3.69,0,2
15317.312,0.124,0.377,0.91,1.04,-4.46,-2.99,0,2
15317.328,0.121,0.376,0.909,1.31,-3.45,-2.26,0,2
15317.328,0.119,0.376,0.911,1.5,-2.44,-1.62,0,2
15317.343,0.117,0.373,0.909,1.65,-1.71,-0.85,0,2
15317.359,0.113,0.369,0.914,1.22,-1.16,-0.79,0,2
15317.359,0.106,0.369,0.919,1.04,-1.16,-0.85,0,2
15317.375,0.105,0.371,0.922,0.85,-1.53,-0.64,0,2
15317.39,0.104,0.369,0.919,0.55,-2.04,-0.52,0,2
15317.39,0.104,0.368,0.918,0.24,-2.62,-0.24,0,2
15317.406,0.105,0.372,0.92,-0.12,-3.08,0.09,0,2
15317.421,0.111,0.371,0.919,-0.67,-3.6,0.49,0,2
15317.421,0.115,0.372,0.919,-1.1,-4.03,0.76,0,2
15317.437,0.117,0.369,0.92,-1.4,-4.49,0.76,0,2
15317.453,0.12,0.37,0.922,-1.71,-5.1,0.67,0,2
15317.453,0.123,0.362,0.919,-2.47,-5.65,0.24,0,2
15317.468,0.123,0.361,0.919,-2.81,-5.86,-0.46,0,2
15317.468,0.127,0.359,0.918,-1.98,-5.49,-0.34,0,2
15317.484,0.127,0.355,0.922,-0.98,-4.76,-0.37,0,2
15317.5,0.127,0.357,0.924,0.34,-4.06,-0.7,0,2
15317.5,0.126,0.356,0.919,1.5,-3.81,-1.34,0,2
15317.515,0.127,0.356,0.914,2.32,-3.36,-1.74,0,2
15317.531,0.125,0.361,0.909,3.27,-2.44,-1.68,0,2
15317.531,0.122,0.366,0.908,3.72,-1.31,-1.4,0,2
15317.546,0.121,0.369,0.913,3.91,-0.43,-1.13,0,2
15317.562,0.118,0.37,0.923,3.94,-0.12,-0.89,0,2
15317.562,0.117,0.372,0.926,3.54,-0.98,-1.1,0,2
15317.578,0.117,0.368,0.926,3.42,-2.23,-1.59,0,2
15317.578,0.118,0.364,0.923,3.45,-3.51,-2.17,0,2
15317.593,0.118,0.365,0.918,3.48,-4.36,-2.62,0,2
15317.609,0.121,0.366,0.91,3.6,-4.33,-2.66,0,2
15317.625,0.122,0.369,0.909,4.3,-3.85,-2.23,0,2
15317.625,0.122,0.375,0.909,4.97,-2.9,-1.65,0,2
15317.64,0.119,0.375,0.906,5.92,-1.46,-0.34,0,2
15317.64,0.124,0.377,0.901,7.05,0.24,1.77,0,2
15317.656,0.133,0.368,0.907,7.08,1.28,2.14,0,2
15317.671,0.138,0.346,0.923,6.41,1.07,-0.52,0,2
15317.671,0.142,0.335,0.937,6.74,0.09,-5.07,0,2
15317.687,0.145,0.326,0.942,8.82,-1.13,-9.86,0,2
15317.703,0.137,0.34,0.944,12.76,-1.25,-11.93,0,2
15317.703,0.135,0.352,0.939,19.01,0.0,-11.11,0,2
15317.718,0.132,0.348,0.938,26.03,2.38,-9.55,0,2
15317.718,0.123,0.347,0.933,32.62,4.7,-7.81,0,2
15317.734,0.121,0.354,0.926,38.45,6.44,-6.87,0,2
15317.75,0.114,0.371,0.916,43.18,7.9,-6.26,0,2
15317.75,0.106,0.395,0.905,46.82,9.16,-5.4,0,2
15317.765,0.096,0.422,0.895,48.8,9.43,-4.76,0,2
15317.781,0.086,0.453,0.883,48.25,8.33,-4.21,0,2
15317.796,0.082,0.482,0.866,45.2,6.5,-3.66,0,2
15317.796,0.082,0.497,0.853,40.35,4.7,-2.81,0,2
15317.796,0.087,0.505,0.84,34.36,3.23,-1.71,0,2
15317.812,0.091,0.513,0.837,28.11,2.01,-0.55,0,2
15317.828,0.096,0.511,0.837,21.7,0.92,0.34,0,2
15317.828,0.102,0.508,0.84,15.81,-0.03,0.76,0,2
15317.843,0.102,0.501,0.836,10.83,-0.89,1.01,0,2
15317.859,0.102,0.503,0.835,6.56,-1.19,1.4,0,2
15317.875,0.108,0.499,0.84,3.14,-0.95,2.32,0,2
15317.875,0.109,0.489,0.845,-0.34,-0.46,2.23,0,2
15317.89,0.106,0.475,0.856,-3.11,-0.21,1.83,0,2
15317.89,0.104,0.469,0.871,-5.1,-0.67,1.62,0,2
15317.906,0.104,0.463,0.879,-5.95,-1.5,1.19,0,2
15317.921,0.104,0.454,0.883,-5.49,-2.2,1.01,0,2
15317.921,0.106,0.448,0.881,-4.58,-2.72,0.79,0,2
15317.937,0.106,0.44,0.883,-3.27,-2.78,0.79,0,2
15317.953,0.104,0.451,0.887,-2.62,-2.44,0.7,0,2
15317.953,0.103,0.448,0.879,-1.37,-2.5,0.79,0,2
15317.968,0.105,0.436,0.873,0.21,-2.47,1.22,0,2
15317.984,0.103,0.457,0.885,0.12,-1.95,1.46,0,2
15317.984,0.105,0.458,0.885,0.98,-2.59,1.59,0,2
15318.0,0.108,0.451,0.879,0.89,-2.87,1.4,0,2
15318.0,0.114,0.458,0.871,1.07,-2.84,0.98,0,2
15318.015,0.11,0.462,0.87,1.01,-2.38,0.58,0,2
15318.031,0.11,0.462,0.867,0.98,-2.17,0.31,0,2
15318.031,0.106,0.456,0.861,1.04,-1.83,0.0,0,2
15318.046,0.103,0.46,0.863,0.09,-1.4,-0.21,0,2
15318.062,0.101,0.466,0.871,-1.25,-1.65,-0.15,0,2
15318.062,0.101,0.47,0.872,-2.41,-2.14,0.12,0,2
15318.078,0.106,0.465,0.872,-3.14,-2.53,0.82,0,2
15318.078,0.11,0.46,0.873,-3.63,-2.87,1.5,0,2
15318.093,0.113,0.458,0.875,-4.21,-3.14,1.74,0,2
15318.109,0.116,0.456,0.878,-4.39,-3.33,1.71,0,2
15318.109,0.116,0.453,0.874,-4.06,-3.17,1.65,0,2
15318.125,0.117,0.451,0.876,-3.75,-2.66,1.59,0,2
15318.14,0.114,0.452,0.878,-3.3,-1.92,1.37,0,2
15318.14,0.11,0.451,0.88,-2.81,-1.71,1.31,0,2
15318.156,0.109,0.447,0.874,-2.35,-1.86,1.19,0,2
15318.171,0.108,0.449,0.875,-2.01,-2.04,1.01,0,2
15318.171,0.109,0.453,0.876,-2.14,-2.41,0.95,0,2
15318.187,0.109,0.456,0.874,-2.44,-2.72,1.13,0,2
15318.187,0.113,0.455,0.875,-2.93,-2.75,1.13,0,2
15318.203,0.114,0.449,0.873,-3.11,-2.93,1.28,0,2
15318.218,0.115,0.449,0.869,-3.11,-2.87,1.34,0,2
15318.218,0.115,0.45,0.874,-3.11,-2.66,1.19,0,2
15318.234,0.112,0.449,0.879,-3.08,-2.26,0.98,0,2
15318.25,0.11,0.446,0.882,-2.75,-2.17,0.89,0,2
15318.25,0.112,0.447,0.884,-2.41,-2.62,0.95,0,2
15318.265,0.112,0.447,0.884,-2.14,-2.84,1.19,0,2
15318.281,0.115,0.447,0.886,-1.68,-2.96,1.5,0,2
15318.281,0.113,0.451,0.88,-0.79,-3.14,2.01,0,2
15318.296,0.116,0.445,0.878,-0.24,-2.96,2.56,0,2
15318.312,0.116,0.442,0.88,-0.21,-2.96,2.29,0,2
15318.312,0.122,0.442,0.877,-0.31,-3.23,1.89,0,2
15318.328,0.122,0.447,0.878,-0.92,-3.17,1.28,0,2
15318.328,0.123,0.442,0.884,-0.58,-3.05,1.22,0,2
15318.343,0.123,0.45,0.879,-0.52,-3.27,0.95,0,2
15318.359,0.124,0.446,0.876,-0.18,-2.9,1.01,0,2
15318.359,0.123,0.443,0.875,0.12,-2.69,1.19,0,2
15318.375,0.125,0.446,0.875,0.09,-2.5,1.07,0,2
15318.39,0.121,0.447,0.881,0.12,-2.38,0.82,0,2
15318.406,0.12,0.446,0.882,0.58,-2.72,0.61,0,2
15318.406,0.119,0.447,0.875,0.98,-2.72,0.37,0,2
15318.421,0.118,0.445,0.873,1.13,-2.47,0.27,0,2
15318.421,0.115,0.447,0.875,0.85,-2.53,-0.06,0,2
15318.437,0.115,0.449,0.873,0.31,-2.66,-0.21,0,2
15318.453,0.115,0.451,0.872,-0.34,-2.72,-0.09,0,2
15318.453,0.116,0.453,0.872,-1.07,-2.59,0.4,0,2
15318.468,0.121,0.454,0.878,-1.68,-2.53,0.73,0,2
15318.484,0.121,0.45,0.884,-2.53,-2.84,0.61,0,2
15318.484,0.125,0.438,0.883,-3.39,-3.88,-0.15,0,2
15318.5,0.128,0.448,0.877,-2.56,-4.33,0.03,0,2
15318.515,0.133,0.459,0.869,-0.95,-3.27,1.4,0,2
15318.515,0.134,0.448,0.873,-1.13,-2.08,1.43,0,2
15318.531,0.129,0.439,0.877,-0.89,-1.77,1.1,0,2
15318.531,0.131,0.44,0.871,-0.85,-2.11,0.76,0,2
15318.546,0.133,0.443,0.87,-1.22,-1.71,0.24,0,2
15318.562,0.131,0.447,0.867,-1.59,-0.67,0.0,0,2
15318.562,0.129,0.444,0.869,-1.65,0.46,-0.06,0,2
15318.578,0.127,0.444,0.875,-1.89,1.16,0.15,0,2
15318.593,0.125,0.445,0.879,-2.69,1.16,0.09,0,2
15318.593,0.125,0.447,0.884,-3.14,0.89,0.0,0,2
15318.609,0.123,0.446,0.882,-3.02,0.67,0.06,0,2
15318.609,0.122,0.443,0.881,-2.59,0.67,0.4,0,2
15318.625,0.121,0.442,0.88,-2.17,0.73,0.46,0,2
15318.64,0.12,0.435,0.882,-1.8,0.73,0.15,0,2
15318.64,0.117,0.436,0.883,-1.59,0.52,-0.06,0,2
15318.656,0.114,0.438,0.884,-1.28,0.18,-0.37,0,2
15318.671,0.112,0.442,0.885,-1.19,-0.31,-0.46,0,2
15318.671,0.111,0.447,0.889,-1.22,-0.85,-0.24,0,2
15318.687,0.114,0.444,0.888,-0.98,-1.59,0.15,0,2
15318.703,0.116,0.442,0.884,-0.85,-2.38,0.61,0,2
15318.703,0.122,0.441,0.884,-1.13,-2.93,0.85,0,2
15318.718,0.126,0.438,0.881,-1.34,-3.11,0.82,0,2
15318.718,0.129,0.438,0.878,-1.56,-2.9,0.73,0,2
15318.734,0.132,0.436,0.877,-1.59,-2.72,0.52,0,2
15318.75,0.131,0.435,0.88,-1.62,-2.53,0.21,0,2
15318.75,0.131,0.433,0.88,-1.43,-2.38,-0.15,0,2
15318.765,0.129,0.443,0.883,-1.28,-1.86,-0.46,0,2
15318.781,0.124,0.442,0.878,-0.76,-1.31,-0.61,0,2
15318.781,0.122,0.431,0.873,0.24,-1.16,-0.55,0,2
15318.796,0.121,0.442,0.881,-0.09,-0.92,-0.27,0,2
15318.812,0.12,0.454,0.887,-0.98,-0.92,-0.24,0,2
15318.812,0.117,0.447,0.882,-0.58,-1.37,0.34,0,2
15318.828,0.122,0.443,0.879,-0.34,-1.92,0.82,0,2
15318.828,0.126,0.438,0.879,-0.79,-2.35,0.73,0,2
15318.843,0.125,0.443,0.879,-1.8,-2.62,0.46,0,2
15318.859,0.126,0.443,0.876,-2.32,-2.81,0.12,0,2
15318.859,0.128,0.438,0.875,-2.5,-2.87,0.0,0,2
15318.875,0.127,0.441,0.879,-3.39,-2.75,0.0,0,2
15318.89,0.126,0.445,0.884,-4.82,-2.87,-0.21,0,2
15318.89,0.123,0.434,0.877,-5.25,-3.42,-0.46,0,2
15318.906,0.125,0.425,0.889,-6.16,-4.27,-1.1,0,2
15318.921,0.12,0.443,0.893,-5.89,-5.43,-1.19,0,2
15318.921,0.121,0.443,0.897,-5.4,-6.29,-0.73,0,2
15318.937,0.123,0.445,0.895,-6.56,-7.66,-0.82,0,2
15318.937,0.123,0.436,0.889,-5.86,-8.88,-0.79,0,2
15318.953,0.124,0.437,0.884,-6.47,-9.16,0.31,0,2
15318.968,0.133,0.434,0.872,-6.81,-7.84,0.79,0,2
15318.968,0.133,0.431,0.867,-6.65,-6.56,1.22,0,2
15318.984,0.137,0.423,0.907,-5.55,-5.58,1.43,0,2
15319.0,0.143,0.424,0.937,-1.74,-5.25,1.5,0,2
15319.0,0.162,0.402,0.917,4.06,-5.62,0.95,0,2
15319.015,0.148,0.359,0.91,9.34,-3.54,-1.62,0,2
15319.031,0.089,0.439,0.995,2.23,-5.71,-3.48,0,2
15319.046,0.154,0.436,0.936,4.55,-12.45,-2.62,0,2
15319.046,0.186,0.325,0.824,16.42,-10.9,-1.95,0,2
15319.046,0.122,0.341,0.86,19.41,-3.48,-1.77,0,2
15319.062,0.131,0.488,0.902,12.45,-4.09,-1.95,0,2
15319.078,0.151,0.41,0.859,19.53,-4.67,-2.5,0,2
15319.078,0.108,0.43,0.853,18.59,-4.76,-2.69,0,2
15319.093,0.14,0.473,0.863,15.14,-7.02,-2.47,0,2
15319.109,0.133,0.48,0.85,13.89,-8.36,-2.9,0,2
15319.109,0.128,0.486,0.843,10.86,-9.06,-2.78,0,2
15319.125,0.14,0.498,0.839,6.41,-10.35,-2.78,0,2
15319.14,0.141,0.5,0.831,2.17,-10.68,-2.53,0,2
15319.14,0.144,0.492,0.835,-1.77,-9.7,-0.58,0,2
15319.156,0.151,0.485,0.833,-5.04,-8.09,1.83,0,2
15319.171,0.156,0.47,0.836,-6.99,-5.55,3.54,0,2
15319.171,0.154,0.456,0.85,-8.61,-3.02,4.12,0,2
15319.187,0.149,0.442,0.863,-9.64,-1.74,4.46,0,2
15319.203,0.139,0.438,0.883,-10.13,-1.43,4.94,0,2
15319.203,0.113,0.452,0.914,-11.2,-2.99,5.34,0,2
15319.218,0.159,0.486,0.91,-14.13,-7.2,6.44,0,2
15319.218,0.183,0.378,0.846,-6.56,-6.87,6.44,0,2
15319.234,0.147,0.422,0.866,-9.22,-3.97,5.62,0,2
15319.25,0.184,0.443,0.881,-11.05,-3.2,5.28,0,2
15319.25,0.169,0.413,0.868,-9.13,-2.04,3.72,0,2
15319.265,0.175,0.417,0.868,-9.55,-0.89,2.59,0,2
15319.281,0.173,0.423,0.866,-9.7,0.49,1.46,0,2
15319.281,0.169,0.425,0.875,-9.25,2.08,0.79,0,2
15319.296,0.162,0.43,0.885,-8.61,3.02,0.31,0,2
15319.296,0.162,0.426,0.887,-7.84,2.96,-0.27,0,2
15319.312,0.159,0.423,0.888,-7.35,2.69,-0.67,0,2
15319.328,0.157,0.424,0.886,-6.78,2.5,-0.82,0,2
15319.328,0.156,0.423,0.889,-6.47,2.38,-0.95,0,2
15319.343,0.155,0.417,0.895,-6.1,2.14,-1.16,0,2
15319.359,0.154,0.411,0.893,-5.28,2.11,-1.62,0,2
15319.359,0.153,0.403,0.894,-4.18,2.35,-2.14,0,2
15319.375,0.157,0.399,0.894,-2.38,2.75,-2.5,0,2
15319.39,0.164,0.397,0.893,-0.27,3.54,-2.87,0,2
15319.406,0.166,0.394,0.891,2.38,5.04,-3.45,0,2
15319.406,0.16,0.395,0.889,5.65,7.08,-4.0,0,2
15319.406,0.148,0.404,0.891,8.39,8.24,-4.33,0,2
15319.421,0.142,0.423,0.9,8.73,8.06,-5.07,0,2
15319.437,0.137,0.437,0.898,8.64,7.26,-5.8,0,2
15319.453,0.133,0.44,0.887,9.37,6.5,-5.55,0,2
15319.453,0.134,0.442,0.879,9.77,6.59,-4.24,0,2
15319.468,0.132,0.446,0.88,9.55,7.17,-3.02,0,2
15319.468,0.13,0.445,0.878,9.03,7.45,-2.01,0,2
15319.484,0.128,0.443,0.877,7.81,7.23,-1.77,0,2
15319.5,0.123,0.444,0.883,6.5,6.81,-1.5,0,2
15319.515,0.116,0.444,0.891,5.34,6.2,-0.92,0,2
15319.515,0.117,0.448,0.901,3.97,4.97,-0.52,0,2
15319.531,0.118,0.447,0.909,3.81,3.51,0.03,0,2
15319.531,0.113,0.433,0.902,4.55,2.2,1.07,0,2
15319.546,0.142,0.446,0.891,5.74,1.16,2.14,0,2
15319.546,0.141,0.45,0.873,7.05,1.62,1.4,0,2
15319.562,0.138,0.435,0.865,7.17,3.23,1.16,0,2
15319.578,0.135,0.432,0.871,7.23,5.58,1.77,0,2
15319.578,0.138,0.431,0.889,8.21,8.88,2.69,0,2
15319.593,0.132,0.421,0.904,10.71,11.93,2.99,0,2
15319.609,0.126,0.407,0.905,14.98,13.55,3.14,0,2
15319.609,0.125,0.414,0.903,19.41,14.28,3.08,0,2
15319.625,0.12,0.437,0.9,22.52,14.74,2.38,0,2
15319.64,0.101,0.456,0.907,23.9,15.44,1.46,0,2
15319.64,0.083,0.478,0.919,24.72,16.45,1.98,0,2
15319.656,0.077,0.505,0.918,26.28,18.86,3.08,0,2
15319.671,0.074,0.508,0.923,29.18,25.12,3.69,0,2
15319.671,0.043,0.499,0.955,30.67,34.79,4.06,0,2
15319.687,0.02,0.494,0.987,32.04,45.59,3.81,0,2
15319.687,0.026,0.519,1.045,31.37,59.08,-0.31,0,2
15319.703,0.002,0.562,1.129,29.88,67.57,-4.58,0,2
15319.718,-0.012,0.609,1.154,30.79,72.76,-7.72,0,2
15319.718,0.017,0.669,1.166,31.56,76.51,-9.49,0,2
15319.734,0.035,0.693,1.149,31.65,80.05,-9.52,0,2
15319.75,0.044,0.712,1.14,28.23,82.55,-7.26,0,2
15319.75,0.06,0.729,1.128,22.34,82.64,-3.33,0,2
15319.765,0.076,0.742,1.117,13.7,80.72,1.5,0,2
15319.781,0.093,0.766,1.089,2.62,76.72,6.2,0,2
15319.781,0.071,0.754,1.071,-10.96,72.7,10.44,0,2
15319.796,0.061,0.73,1.068,-27.56,66.47,18.16,0,2
15319.812,0.061,0.714,1.073,-42.51,58.02,26.12,0,2
15319.812,0.069,0.691,1.065,-56.03,48.55,31.86,0,2
15319.828,0.089,0.659,1.055,-68.94,39.83,34.0,0,2
15319.828,0.106,0.613,1.044,-79.47,33.54,32.96,0,2
15319.843,0.126,0.583,1.021,-88.38,29.45,29.08,0,2
15319.859,0.154,0.542,0.995,-94.33,27.07,23.41,0,2
15319.859,0.163,0.5,0.957,-96.22,26.46,16.33,0,2
15319.875,0.175,0.469,0.925,-95.74,27.28,9.86,0,2
15319.89,0.192,0.429,0.912,-93.54,28.11,5.01,0,2
15319.89,0.175,0.376,0.913,-87.77,25.91,4.21,0,2
15319.906,0.169,0.353,0.931,-76.57,18.37,8.45,0,2
15319.921,0.173,0.323,0.937,-60.27,6.41,15.47,0,2
15319.921,0.183,0.278,0.916,-41.35,-7.6,22.46,0,2
15319.937,0.197,0.241,0.884,-10.28,-31.98,28.32,0,2
15319.953,0.213,0.222,0.847,-0.27,-38.76,27.13,0,2
15319.953,0.216,0.21,0.794,5.71,-41.51,24.69,0,2
15319.968,0.212,0.192,0.738,6.96,-40.07,20.72,0,2
15319.968,0.157,0.249,0.649,1.68,-34.39,14.71,0,2
15319.984,0.155,0.293,0.641,-8.97,-26.46,6.13,0,2
15320.0,0.111,0.328,0.639,-23.44,-17.55,-4.3,0,2
15320.0,0.052,0.322,0.656,-41.23,-10.59,-11.57,0,2
15320.015,0.028,0.321,0.683,-57.56,-6.56,-15.59,0,2
15320.031,0.009,0.308,0.704,-66.35,-4.27,-16.42,0,2
15320.031,-0.007,0.295,0.729,-67.48,-4.55,-14.31,0,2
15320.046,-0.002,0.295,0.746,-62.47,-6.1,-10.35,0,2
15320.062,-0.028,0.278,0.75,-53.38,-6.38,-5.22,0,2
15320.062,-0.048,0.244,0.768,-42.09,-4.58,1.77,0,2
15320.078,-0.042,0.26,0.779,-29.73,-0.43,6.59,0,2
15320.093,-0.044,0.23,0.785,-16.51,6.68,7.75,0,2
15320.093,-0.073,0.187,0.794,-7.35,14.92,8.79,0,2
15320.109,-0.07,0.178,0.81,1.77,22.8,8.42,0,2
15320.125,-0.081,0.154,0.806,11.72,27.89,6.96,0,2
15320.125,-0.094,0.163,0.796,20.45,30.34,3.3,0,2
15320.14,-0.119,0.188,0.796,27.22,31.16,-2.56,0,2
15320.156,-0.153,0.22,0.801,30.43,31.04,-9.34,0,2
15320.156,-0.176,0.263,0.81,27.1,28.2,-14.4,0,2
15320.171,-0.188,0.323,0.816,16.27,22.95,-18.98,0,2
15320.187,-0.202,0.349,0.825,-0.37,18.98,-22.03,0,2
15320.187,-0.212,0.348,0.857,-21.0,15.35,-24.32,0,2
15320.203,-0.211,0.337,0.887,-40.01,11.78,-26.61,0,2
15320.203,-0.225,0.306,0.925,-53.9,9.37,-27.38,0,2
15320.218,-0.236,0.279,0.955,-60.82,5.77,-27.56,0,2
15320.234,-0.227,0.272,0.959,-61.53,0.24,-27.07,0,2
15320.234,-0.232,0.257,0.943,-57.37,-5.16,-24.9,0,2
15320.25,-0.246,0.237,0.922,-51.18,-10.04,-20.94,0,2
15320.25,-0.237,0.22,0.889,-45.01,-14.62,-16.3,0,2
15320.265,-0.215,0.23,0.85,-40.25,-17.43,-13.31,0,2
15320.281,-0.217,0.217,0.813,-38.45,-17.06,-11.54,0,2
15320.281,-0.209,0.208,0.785,-40.01,-14.01,-11.57,0,2
15320.296,-0.188,0.219,0.764,-43.49,-9.25,-12.91,0,2
15320.296,-0.198,0.217,0.74,-46.3,-2.41,-15.2,0,2
15320.312,-0.173,0.245,0.72,-50.23,3.66,-17.37,0,2
15320.328,-0.17,0.307,0.7,-54.78,9.89,-19.04,0,2
15320.343,-0.179,0.327,0.714,-62.04,18.68,-17.61,0,2
15320.343,-0.203,0.319,0.779,-73.21,28.44,-12.88,0,2
15320.359,-0.22,0.295,0.853,-86.06,35.16,-6.9,0,2
15320.359,-0.241,0.262,0.933,-98.54,38.0,-2.53,0,2
15320.375,-0.257,0.201,1.05,-108.52,37.2,0.52,0,2
15320.39,-0.251,0.096,1.154,-112.31,32.59,3.08,0,2
15320.39,-0.225,0.038,1.225,-109.29,23.59,4.64,0,2
15320.406,-0.213,0.006,1.254,-100.74,12.12,5.62,0,2
15320.421,-0.179,-0.055,1.253,-88.17,1.19,7.17,0,2
15320.421,-0.127,-0.095,1.226,-74.22,-8.18,9.13,0,2
15320.437,-0.102,-0.107,1.193,-61.07,-13.12,11.11,0,2
15320.453,-0.075,-0.131,1.162,-51.18,-13.0,12.15,0,2
15320.453,-0.05,-0.143,1.149,-45.2,-10.38,11.84,0,2
15320.468,-0.035,-0.155,1.136,-40.38,-7.2,10.41,0,2
15320.468,-0.019,-0.173,1.131,-35.58,-4.52,8.03,0,2
15320.484,-0.013,-0.18,1.128,-32.44,-2.99,5.43,0,2
15320.5,-0.011,-0.198,1.121,-30.43,-2.35,2.29,0,2
15320.5,-0.002,-0.213,1.128,-28.63,-2.47,-0.61,0,2
15320.515,-0.004,-0.215,1.132,-25.61,-3.05,-3.39,0,2
15320.531,-0.006,-0.23,1.131,-21.15,-4.46,-5.89,0,2
15320.531,-0.001,-0.226,1.123,-14.53,-6.9,-8.97,0,2
15320.546,-0.007,-0.202,1.098,-6.44,-9.64,-12.67,0,2
15320.562,-0.017,-0.175,1.063,0.7,-11.41,-16.02,0,2
15320.562,-0.033,-0.145,1.032,5.04,-11.72,-18.68,0,2
15320.578,-0.043,-0.117,1.004,7.42,-11.6,-20.78,0,2
15320.578,-0.04,-0.087,0.979,9.25,-11.6,-22.19,0,2
15320.593,-0.055,-0.063,0.958,11.08,-11.96,-22.49,0,2
15320.609,-0.044,-0.049,0.937,12.39,-12.63,-21.64,0,2
15320.625,-0.029,-0.04,0.92,13.06,-11.57,-20.36,0,2
15320.625,-0.029,-0.031,0.923,12.48,-7.93,-19.78,0,2
15320.64,-0.035,-0.021,0.936,10.99,-4.12,-19.71,0,2
15320.64,-0.039,-0.016,0.943,9.55,-1.34,-19.9,0,2
15320.656,-0.037,-0.007,0.96,8.51,0.79,-19.56,0,2
15320.671,-0.042,-0.004,0.977,8.64,2.32,-19.04,0,2
15320.671,-0.059,0.002,0.986,8.79,2.93,-18.4,0,2
15320.687,-0.067,0.017,0.999,8.94,2.26,-18.22,0,2
15320.703,-0.084,0.019,1.012,8.73,0.24,-17.64,0,2
15320.703,-0.091,0.028,1.019,8.73,-3.75,-16.51,0,2
15320.718,-0.094,0.025,1.025,9.83,-8.09,-14.47,0,2
15320.718,-0.083,0.01,1.027,12.79,-11.63,-11.93,0,2
15320.734,-0.069,0.006,1.026,18.25,-13.7,-9.83,0,2
15320.75,-0.058,-0.01,1.02,27.74,-14.56,-7.48,0,2
15320.75,-0.048,-0.028,0.994,41.54,-17.03,-4.7,0,2
15320.765,-0.019,-0.026,0.945,59.69,-20.63,-2.44,0,2
15320.781,0.016,-0.009,0.887,77.09,-21.33,-1.07,0,2
15320.781,0.024,0.018,0.846,87.28,-15.99,-0.89,0,2
15320.796,0.021,0.038,0.826,89.08,-7.63,-2.56,0,2
15320.812,0.009,0.069,0.826,84.2,1.92,-5.52,0,2
15320.812,-0.006,0.093,0.853,74.62,10.96,-8.64,0,2
15320.828,-0.027,0.107,0.896,62.53,17.58,-11.72,0,2
15320.828,-0.044,0.117,0.941,51.39,21.12,-14.01,0,2
15320.843,-0.072,0.115,0.984,42.76,21.21,-14.4,0,2
15320.859,-0.092,0.11,1.011,36.77,17.4,-13.7,0,2
15320.875,-0.089,0.122,1.028,31.83,11.9,-13.12,0,2
15320.875,-0.093,0.125,1.029,26.4,6.01,-13.21,0,2
15320.89,-0.092,0.13,1.02,19.96,0.21,-13.76,0,2
15320.89,-0.087,0.137,1.008,12.33,-4.21,-14.34,0,2
15320.906,-0.077,0.136,1.012,3.78,-7.11,-14.86,0,2
15320.921,-0.071,0.126,1.014,-8.97,-9.13,-15.87,0,2
15320.937,-0.058,0.14,1.016,-12.39,-8.97,-16.69,0,2
15320.937,-0.072,0.141,1.016,-13.61,-8.79,-16.66,0,2
15320.937,-0.096,0.124,1.025,-12.42,-8.73,-15.63,0,2
15320.953,-0.109,0.127,1.019,-8.42,-8.64,-15.14,0,2
15320.968,-0.108,0.118,1.018,-3.36,-9.37,-13.25,0,2
15320.968,-0.101,0.144,1.016,2.78,-9.8,-11.26,0,2
15320.984,-0.107,0.157,1.001,7.9,-10.83,-9.86,0,2
15321.0,-0.116,0.164,0.982,10.68,-12.7,-8.79,0,2
15321.0,-0.106,0.173,0.969,10.62,-15.08,-7.2,0,2
15321.015,-0.099,0.187,0.947,10.07,-17.27,-6.2,0,2
15321.031,-0.106,0.166,0.928,10.04,-18.74,-4.79,0,2
15321.031,-0.085,0.16,0.922,10.86,-19.53,-2.66,0,2
15321.046,-0.058,0.164,0.911,12.79,-18.68,-0.4,0,2
15321.062,-0.044,0.159,0.916,13.61,-15.02,1.01,0,2
15321.062,-0.037,0.164,0.946,11.32,-9.55,1.71,0,2
15321.078,-0.044,0.151,0.971,8.27,-5.8,1.04,0,2
15321.078,-0.054,0.134,0.99,6.96,-5.77,0.24,0,2
15321.093,-0.067,0.149,1.012,7.14,-7.93,-0.76,0,2
15321.109,-0.081,0.149,1.022,5.98,-10.47,-0.82,0,2
15321.109,-0.097,0.138,1.027,3.27,-12.79,-0.03,0,2
15321.125,-0.081,0.147,1.021,1.4,-16.42,0.4,0,2
15321.14,-0.066,0.156,1.012,0.21,-19.78,0.09,0,2
15321.14,-0.065,0.15,1.009,-1.86,-22.13,-0.49,0,2
15321.156,-0.058,0.14,1.006,-5.46,-24.14,-1.07,0,2
15321.171,-0.043,0.155,0.993,-8.85,-25.15,-2.72,0,2
15321.187,-0.04,0.147,0.977,-11.96,-24.57,-4.43,0,2
15321.187,-0.04,0.136,0.976,-15.14,-22.71,-4.7,0,2
15321.203,-0.036,0.123,0.961,-13.82,-22.8,-4.24,0,2
15321.203,-0.01,0.108,0.955,-9.83,-20.23,-2.08,0,2
15321.218,0.007,0.109,0.969,-7.75,-14.74,-0.24,0,2
15321.218,-0.002,0.092,0.974,-5.52,-9.25,0.27,0,2
15321.234,-0.008,0.073,0.976,-3.27,-5.19,0.73,0,2
15321.25,-0.001,0.061,0.979,-1.4,-3.17,0.79,0,2
15321.25,0.009,0.065,0.978,-1.1,-1.16,-0.52,0,2
15321.265,-0.003,0.057,0.976,-2.87,1.22,-3.3,0,2
15321.281,0.003,0.045,0.977,-4.18,2.01,-6.16,0,2
15321.296,-0.009,0.048,0.981,-2.81,1.46,-8.36,0,2
15321.312,-0.013,0.049,0.992,0.03,0.12,-9.64,0,2
15321.312,-0.017,0.037,0.991,4.15,-1.28,-10.32,0,2
15321.328,-0.032,0.039,0.975,10.5,-3.91,-10.62,0,2
15321.343,-0.048,0.04,0.951,16.45,-7.11,-9.98,0,2
15321.359,-0.023,0.072,0.97,18.95,-10.04,-7.69,0,2
15321.359,-0.003,0.107,0.981,20.23,-10.16,-6.59,0,2
15321.375,-0.006,0.107,0.999,16.79,-9.25,-6.68,0,2
15321.375,-0.009,0.109,0.998,10.16,-8.09,-6.53,0,2
15321.39,-0.008,0.108,0.99,4.39,-5.4,-6.1,0,2
15321.406,-0.012,0.09,0.986,0.61,-1.92,-6.44,0,2
15321.421,-0.009,0.081,0.989,-1.77,0.55,-7.66,0,2
15321.421,-0.011,0.081,0.996,-3.05,2.29,-8.76,0,2
15321.421,-0.005,0.074,0.99,-4.09,4.0,-9.09,0,2
15321.437,-0.004,0.076,0.989,-5.01,5.74,-9.09,0,2
15321.437,-0.012,0.084,1.004,-5.46,7.87,-8.18,0,2
15321.437,-0.019,0.074,1.017,-5.83,9.64,-6.62,0,2
15321.453,-0.022,0.073,1.024,-5.13,9.55,-5.95,0,2
15321.468,-0.02,0.073,1.024,-2.5,8.64,-6.13,0,2
15321.468,-0.024,0.08,1.018,0.06,8.51,-7.23,0,2
15321.484,-0.027,0.096,1.007,1.8,8.3,-9.03,0,2
15321.5,-0.027,0.123,0.997,3.27,7.63,-10.83,0,2
15321.5,-0.034,0.135,0.997,3.97,7.48,-11.17,0,2
15321.515,-0.046,0.137,1.002,3.08,7.08,-10.28,0,2
15321.531,-0.039,0.141,1.006,0.7,5.86,-9.09,0,2
15321.531,-0.029,0.153,1.001,-1.46,5.04,-8.91,0,2
15321.546,-0.031,0.148,0.992,-3.51,4.09,-8.85,0,2
15321.562,-0.016,0.162,1.004,-5.34,2.75,-8.91,0,2
15321.562,-0.007,0.174,1.003,-5.62,1.22,-8.42,0,2
15321.578,-0.006,0.188,0.993,-5.19,1.07,-6.32,0,2
15321.578,-0.026,0.169,0.996,-4.43,1.1,-2.99,0,2
15321.593,0.028,0.189,1.006,-1.86,0.37,0.46,0,2
15321.609,-0.006,0.196,0.985,4.21,0.73,0.49,0,2
15321.609,-0.028,0.167,0.981,9.06,0.92,2.59,0,2
15321.625,-0.042,0.125,0.983,15.32,2.01,7.84,0,2
15321.64,-0.022,0.125,0.975,22.58,1.92,13.89,0,2
15321.656,0.022,0.123,0.957,29.82,3.6,17.55,0,2
15321.656,0.004,0.083,0.964,31.5,10.19,19.78,0,2
15321.671,0.012,0.079,0.977,28.2,14.74,19.84,0,2
15321.671,-0.001,0.084,0.967,24.17,15.38,15.56,0,2
15321.687,-0.007,0.095,0.962,17.09,14.4,12.18,0,2
15321.703,-0.02,0.127,0.956,8.91,14.04,8.79,0,2
15321.703,-0.083,0.118,0.963,-0.21,14.71,7.9,0,2
15321.718,-0.094,0.113,0.984,-5.74,13.52,9.83,0,2
15321.718,-0.115,0.131,0.977,-4.55,11.6,10.47,0,2
15321.734,-0.14,0.085,0.976,-1.37,12.02,12.88,0,2
15321.75,-0.119,0.057,0.977,2.72,11.72,13.89,0,2
15321.765,-0.089,0.083,0.978,8.0,12.3,11.69,0,2
15321.765,-0.086,0.101,0.99,10.83,13.82,6.65,0,2
15321.781,-0.089,0.123,1.002,9.13,12.33,-0.15,0,2
15321.781,-0.123,0.15,0.997,5.74,8.42,-5.68,0,2
15321.796,-0.127,0.171,0.986,2.62,3.05,-8.36,0,2
15321.796,-0.123,0.192,0.966,0.27,-2.75,-8.82,0,2
15321.812,-0.114,0.225,0.941,-0.09,-7.48,-7.97,0,2
15321.828,-0.11,0.237,0.904,1.25,-9.16,-6.59,0,2
15321.843,-0.083,0.219,0.876,1.8,-8.12,-4.12,0,2
15321.843,-0.077,0.219,0.859,3.48,-3.23,-2.26,0,2
15321.859,-0.074,0.224,0.866,4.27,3.54,-0.61,0,2
15321.859,-0.089,0.212,0.893,3.69,10.86,0.31,0,2
15321.875,-0.105,0.216,0.945,2.44,15.87,1.1,0,2
15321.89,-0.122,0.222,0.989,2.62,17.76,2.11,0,2
15321.89,-0.128,0.229,1.034,3.69,16.51,3.45,0,2
15321.906,-0.114,0.243,1.065,12.48,8.15,8.03,0,2
15321.921,-0.117,0.266,1.076,23.35,1.56,11.02,0,2
15321.937,-0.135,0.267,1.063,34.91,-4.3,16.21,0,2
15321.937,-0.115,0.298,0.986,39.37,-8.61,23.07,0,2
15321.937,-0.119,0.279,0.986,35.4,-9.8,28.93,0,2
15321.953,-0.111,0.218,1.016,27.56,-7.17,32.62,0,2
15321.968,-0.104,0.157,1.044,21.58,-2.93,33.97,0,2
15321.968,-0.093,0.126,1.072,21.88,0.55,32.69,0,2
15321.984,-0.103,0.108,1.08,27.31,1.71,29.21,0,2
15322.0,-0.099,0.119,1.057,33.94,-0.49,24.57,0,2
15322.0,-0.083,0.152,1.023,39.58,-2.87,19.68,0,2
15322.015,-0.102,0.188,0.983,41.9,-3.51,16.08,0,2
15322.031,-0.112,0.222,0.952,39.25,-3.27,14.95,0,2
15322.031,-0.091,0.26,0.917,30.98,-3.78,16.3,0,2
15322.046,-0.105,0.288,0.895,18.25,-3.6,17.88,0,2
15322.062,-0.09,0.282,0.896,2.23,-2.93,18.74,0,2
15322.062,-0.065,0.25,0.909,-12.88,-1.98,19.23,0,2
15322.078,-0.088,0.223,0.931,-21.24,0.92,18.92,0,2
15322.078,-0.056,0.207,0.968,-23.5,3.45,17.79,0,2
15322.093,-0.052,0.195,0.992,-20.17,4.64,16.3,0,2
15322.109,-0.06,0.195,1.004,-13.34,4.15,16.02,0,2
15322.109,-0.051,0.194,0.996,-6.2,2.62,15.99,0,2
15322.125,-0.057,0.216,0.985,-1.31,0.98,15.41,0,2
15322.14,-0.075,0.206,0.968,1.31,-0.55,14.71,0,2
15322.14,-0.057,0.228,0.944,1.25,-2.84,14.34,0,2
15322.156,-0.042,0.269,0.916,-2.66,-5.25,13.79,0,2
15322.171,-0.048,0.299,0.9,-13.25,-6.68,13.09,0,2
15322.171,-0.061,0.306,0.916,-29.02,-7.81,13.4,0,2
15322.187,-0.082,0.289,0.946,-43.21,-9.03,12.76,0,2
15322.187,-0.066,0.251,0.977,-49.84,-10.9,11.99,0,2
15322.203,-0.049,0.221,1.007,-45.96,-11.84,11.14,0,2
15322.218,-0.023,0.192,1.02,-31.89,-12.24,12.36,0,2
15322.234,0.003,0.154,1.012,-10.44,-10.65,15.29,0,2
15322.234,0.007,0.169,0.995,11.96,-7.08,17.98,0,2
15322.25,-0.017,0.18,0.957,30.95,-2.04,18.56,0,2
15322.25,-0.044,0.208,0.936,41.29,4.52,18.19,0,2
15322.265,-0.071,0.25,0.945,42.54,10.99,18.16,0,2
15322.281,-0.066,0.275,0.962,35.95,13.86,16.88,0,2
15322.281,-0.039,0.295,0.976,24.69,12.67,14.13,0,2
15322.296,-0.049,0.308,0.981,11.66,9.46,11.29,0,2
15322.312,-0.071,0.295,0.99,-2.62,3.72,9.61,0,2
15322.312,-0.054,0.31,0.992,-14.4,-2.72,8.12,0,2
15322.328,-0.077,0.305,0.99,-21.64,-7.08,7.42,0,2
15322.343,-0.096,0.28,1.002,-24.78,-8.73,8.39,0,2
15322.343,-0.089,0.257,1.022,-22.31,-8.27,10.59,0,2
15322.359,-0.08,0.23,1.038,-14.56,-6.35,12.88,0,2
15322.359,-0.059,0.194,1.042,-3.2,-5.16,14.65,0,2
15322.375,-0.051,0.196,1.026,9.64,-4.94,16.45,0,2
15322.39,-0.054,0.222,0.996,18.07,-6.04,17.55,0,2
15322.39,-0.062,0.244,0.967,19.62,-8.15,17.12,0,2
15322.406,-0.101,0.26,0.956,15.84,-8.94,16.85,0,2
15322.421,-0.131,0.278,0.961,7.6,-9.4,16.54,0,2
15322.421,-0.165,0.276,0.98,-0.34,-9.52,16.11,0,2
15322.437,-0.181,0.264,1.007,-2.84,-7.87,16.72,0,2
15322.453,-0.096,0.237,1.044,0.31,-7.23,19.26,0,2
15322.453,-0.016,0.23,1.039,7.54,-7.23,22.92,0,2
15322.468,0.051,0.247,0.97,14.5,-10.13,25.54,0,2
15322.484,0.048,0.285,0.898,15.87,-13.82,25.18,0,2
15322.484,0.016,0.297,0.875,6.29,-14.98,23.99,0,2
15322.5,0.007,0.31,0.873,-12.82,-14.68,21.52,0,2
15322.5,-0.015,0.283,0.895,-30.79,-10.16,18.83,0,2
15322.515,-0.032,0.217,0.947,-43.49,-3.78,17.12,0,2
15322.531,-0.013,0.146,1.007,-45.87,1.19,15.72,0,2
15322.531,0.008,0.111,1.04,-35.89,3.54,14.86,0,2
15322.546,-0.008,0.113,1.025,-20.36,4.21,15.05,0,2
15322.562,0.002,0.174,0.992,-8.3,2.87,14.68,0,2
15322.562,-0.007,0.234,0.952,-2.66,1.25,14.44,0,2
15322.578,-0.007,0.282,0.937,-7.02,-1.43,15.32,0,2
15322.593,-0.003,0.279,0.935,-18.1,-5.52,17.03,0,2
15322.593,0.012,0.234,0.931,-29.63,-9.16,19.2,0,2
15322.609,0.041,0.174,0.945,-37.66,-11.17,20.6,0,2
15322.609,0.051,0.123,0.953,-39.58,-10.93,20.87,0,2
15322.625,0.027,0.097,0.949,-36.01,-8.39,20.08,0,2
15322.64,0.018,0.095,0.951,-30.27,-3.69,19.47,0,2
15322.656,0.045,0.108,0.964,-24.99,1.95,19.68,0,2
15322.656,0.057,0.13,0.976,-18.31,7.78,20.87,0,2
15322.671,0.028,0.116,0.993,-10.74,13.95,21.52,0,2
15322.671,0.006,0.085,1.012,-6.65,17.94,21.79,0,2
15322.687,-0.006,0.025,1.028,-4.21,17.94,21.88,0,2
15322.703,0.036,0.049,1.041,-0.27,15.99,22.95,0,2
15322.703,0.066,0.103,1.031,5.1,14.19,22.37,0,2
15322.718,0.042,0.129,1.012,4.36,11.14,20.45,0,2
15322.718,0.008,0.144,1.007,-0.61,8.51,20.72,0,2
15322.734,-0.004,0.162,1.029,-3.66,7.35,22.22,0,2
15322.75,-0.027,0.158,1.049,-3.3,6.53,22.43,0,2
15322.75,-0.026,0.138,1.064,-1.77,4.43,22.46,0,2
15322.765,0.004,0.146,1.054,0.46,1.43,21.88,0,2
15322.781,0.03,0.159,1.019,2.81,-2.08,20.81,0,2
15322.781,0.038,0.153,0.982,3.88,-6.16,19.81,0,2
15322.796,0.041,0.156,0.954,2.72,-9.61,18.89,0,2
15322.812,0.045,0.178,0.935,-0.34,-11.84,16.85,0,2
15322.812,0.027,0.184,0.931,-4.03,-11.78,15.26,0,2
15322.828,0.012,0.177,0.942,-7.08,-10.38,15.35,0,2
15322.843,0.04,0.166,0.948,-8.21,-8.51,16.11,0,2
15322.843,0.063,0.163,0.957,-7.54,-6.35,16.72,0,2
15322.859,0.067,0.147,0.961,-5.74,-4.79,17.88,0,2
15322.859,0.048,0.127,0.962,-2.87,-4.39,19.87,0,2
15322.875,0.028,0.119,0.959,1.07,-4.15,21.09,0,2
15322.89,0.035,0.114,0.953,4.79,-3.33,20.02,0,2
15322.89,0.038,0.12,0.951,3.78,-1.95,18.62,0,2
15322.906,0.045,0.13,0.95,-0.64,-1.37,15.87,0,2
15322.921,0.046,0.142,0.947,-8.7,-1.68,12.15,0,2
15322.921,0.002,0.132,0.972,-15.66,-2.75,8.82,0,2
15322.937,-0.023,0.121,0.992,-17.91,-4.24,7.11,0,2
15322.937,-0.031,0.11,1.006,-13.86,-5.98,6.93,0,2
15322.953,-0.019,0.109,1.015,-5.07,-6.32,7.32,0,2
15322.968,-0.026,0.106,1.023,5.55,-4.67,8.94,0,2
15322.984,-0.022,0.098,1.03,14.28,-3.48,11.11,0,2
15322.984,-0.006,0.077,1.029,19.44,-4.24,12.73,0,2
15323.0,0.047,0.083,1.015,21.76,-7.14,12.02,0,2
15323.0,0.086,0.134,0.986,20.72,-11.29,7.57,0,2
15323.015,0.091,0.166,0.961,15.26,-15.17,2.47,0,2
15323.031,0.086,0.181,0.951,7.02,-17.55,-0.55,0,2
15323.031,0.071,0.172,0.951,0.37,-17.91,-1.4,0,2
15323.046,0.069,0.152,0.96,-2.29,-17.33,0.21,0,2
15323.062,0.099,0.15,0.972,-0.15,-16.21,1.01,0,2
15323.062,0.129,0.133,0.97,4.94,-14.5,1.86,0,2
15323.078,0.145,0.149,0.958,10.99,-12.79,3.08,0,2
15323.078,0.134,0.165,0.939,15.81,-11.35,4.49,0,2
15323.093,0.123,0.172,0.926,18.28,-9.98,5.83,0,2
15323.109,0.098,0.192,0.914,18.59,-8.36,6.04,0,2
15323.125,0.092,0.218,0.901,16.08,-7.17,4.36,0,2
15323.125,0.116,0.244,0.894,9.67,-6.2,2.29,0,2
15323.14,0.128,0.263,0.896,0.79,-4.85,1.07,0,2
15323.14,0.118,0.243,0.903,-7.39,-3.33,1.04,0,2
15323.156,0.109,0.222,0.92,-14.89,-2.04,2.23,0,2
15323.171,0.096,0.191,0.943,-18.77,-0.15,3.6,0,2
15323.171,0.091,0.153,0.97,-17.52,2.01,4.24,0,2
15323.187,0.109,0.138,0.984,-13.03,4.0,4.06,0,2
15323.203,0.127,0.157,0.985,-8.21,5.98,3.78,0,2
15323.203,0.119,0.179,0.987,-4.79,8.12,4.0,0,2
15323.218,0.106,0.185,0.99,-4.46,9.28,5.1,0,2
15323.218,0.086,0.187,0.991,-6.93,9.52,5.77,0,2
15323.234,0.056,0.176,0.993,-10.99,9.25,5.16,0,2
15323.25,0.031,0.168,1.007,-14.83,9.46,3.88,0,2
15323.25,0.012,0.161,1.026,-17.58,10.35,1.95,0,2
15323.265,0.007,0.167,1.038,-19.26,11.26,0.43,0,2
15323.281,0.023,0.169,1.046,-19.68,11.29,0.03,0,2
15323.281,0.038,0.179,1.05,-18.95,10.74,0.52,0,2
15323.296,0.04,0.182,1.05,-17.43,9.86,2.23,0,2
15323.312,0.038,0.168,1.052,-14.95,8.61,5.25,0,2
15323.312,0.036,0.152,1.052,-11.14,7.02,8.42,0,2
15323.328,0.041,0.139,1.047,-6.81,5.49,11.02,0,2
15323.343,0.05,0.136,1.04,-2.72,4.33,12.54,0,2
15323.343,0.046,0.14,1.028,0.37,3.33,13.15,0,2
15323.359,0.043,0.153,1.017,1.04,2.29,12.91,0,2
15323.359,0.036,0.162,1.01,-1.04,0.98,12.24,0,2
15323.375,0.04,0.16,1.005,-4.21,-1.13,11.78,0,2
15323.39,0.028,0.166,0.999,-7.11,-2.59,11.72,0,2
15323.39,0.016,0.157,0.999,-9.61,-3.94,11.96,0,2
15323.406,0.007,0.145,1.001,-10.9,-4.85,12.15,0,2
15323.421,0.008,0.136,1.007,-10.74,-5.13,11.78,0,2
15323.437,0.009,0.133,1.012,-9.74,-5.68,11.05,0,2
15323.437,0.012,0.13,1.012,-9.03,-7.05,10.22,0,2
15323.437,0.021,0.121,1.014,-9.16,-8.88,10.07,0,2
15323.453,0.023,0.116,1.012,-8.64,-10.96,10.83,0,2
15323.468,0.033,0.113,1.003,-8.18,-12.7,11.38,0,2
15323.468,0.038,0.106,0.996,-8.73,-14.34,11.2,0,2
15323.484,0.033,0.096,0.994,-9.95,-15.53,10.38,0,2
15323.5,0.036,0.092,0.989,-11.38,-16.33,9.31,0,2
15323.5,0.044,0.089,0.981,-11.87,-16.33,7.57,0,2
15323.515,0.044,0.099,0.979,-12.12,-15.63,5.95,0,2
15323.531,0.041,0.103,0.98,-12.36,-14.53,4.94,0,2
15323.531,0.036,0.106,0.978,-12.24,-13.15,4.49,0,2
15323.546,0.037,0.099,0.98,-11.96,-12.12,4.27,0,2
15323.562,0.043,0.098,0.983,-11.87,-11.41,4.06,0,2
15323.562,0.048,0.105,0.984,-11.02,-11.08,3.54,0,2
15323.578,0.057,0.106,0.985,-10.41,-11.26,3.14,0,2
15323.578,0.065,0.121,0.983,-10.5,-12.05,2.35,0,2
15323.593,0.073,0.132,0.977,-12.05,-13.28,1.5,0,2
15323.609,0.077,0.125,0.976,-14.68,-14.13,1.28,0,2
15323.609,0.077,0.107,0.978,-16.85,-14.28,1.65,0,2
15323.625,0.082,0.094,0.981,-17.98,-13.34,1.83,0,2
15323.64,0.085,0.06,0.987,-16.82,-10.86,2.14,0,2
15323.64,0.076,0.05,0.997,-13.18,-7.29,2.44,0,2
15323.656,0.074,0.054,0.998,-9.52,-4.3,1.92,0,2
15323.671,0.081,0.056,1.003,-7.39,-2.59,1.4,0,2
15323.671,0.088,0.064,1.008,-5.16,-1.31,2.04,0,2
15323.687,0.097,0.075,1.01,-3.6,-1.53,3.14,0,2
15323.687,0.101,0.07,1.008,-3.02,-2.93,4.18,0,2
15323.703,0.104,0.069,1.009,-2.93,-5.04,4.91,0,2
15323.718,0.111,0.07,1.005,-4.0,-7.66,4.97,0,2
15323.718,0.111,0.066,0.998,-6.26,-10.13,4.97,0,2
15323.734,0.111,0.063,0.995,-9.25,-11.51,4.24,0,2
15323.75,0.113,0.06,0.992,-13.0,-12.51,2.26,0,2
15323.765,0.106,0.055,0.991,-16.82,-12.85,0.12,0,2
15323.765,0.098,0.052,0.994,-19.65,-12.45,-1.1,0,2
15323.781,0.095,0.045,0.991,-21.21,-11.78,-1.5,0,2
15323.781,0.099,0.032,0.99,-21.18,-10.5,-1.1,0,2
15323.796,0.104,0.026,1.0,-18.56,-8.03,-0.12,0,2
15323.812,0.11,0.018,1.008,-13.82,-5.04,1.25,0,2
15323.812,0.11,0.029,1.009,-8.36,-2.11,2.41,0,2
15323.828,0.107,0.026,1.007,-4.15,-0.27,3.72,0,2
15323.843,0.108,0.044,1.004,-2.38,0.4,4.27,0,2
15323.843,0.108,0.054,0.994,-3.57,0.09,3.3,0,2
15323.859,0.11,0.05,0.994,-7.66,-0.79,2.41,0,2
15323.859,0.105,0.059,0.998,-13.67,-2.14,-0.34,0,2
15323.875,0.096,0.048,1.0,-14.86,-2.08,-0.85,0,2
15323.89,0.085,0.048,1.002,-14.62,-1.16,-1.01,0,2
15323.89,0.087,0.051,1.001,-13.25,0.15,-0.64,0,2
15323.906,0.092,0.055,0.984,-11.23,2.01,0.85,0,2
15323.921,0.099,0.053,0.983,-9.61,3.39,3.39,0,2
15323.921,0.107,0.027,0.985,-7.78,4.18,5.98,0,2
15323.937,0.113,0.013,0.981,-5.43,4.97,8.09,0,2
15323.937,0.119,0.008,0.98,-2.56,6.41,9.0,0,2
15323.953,0.115,0.007,0.98,0.55,8.45,8.67,0,2
15323.968,0.121,0.02,0.979,2.35,10.1,8.18,0,2
15323.968,0.124,0.035,0.973,2.29,10.68,6.99,0,2
15323.984,0.121,0.036,0.971,-0.09,10.68,5.83,0,2
15324.0,0.12,0.033,0.97,-3.72,10.99,5.52,0,2
15324.015,0.108,0.024,0.971,-6.04,11.99,5.31,0,2
15324.015,0.1,0.023,0.978,-7.08,13.82,4.36,0,2
15324.031,0.087,0.024,0.988,-7.02,16.17,3.23,0,2
15324.031,0.072,0.022,0.998,-5.4,18.1,3.17,0,2
15324.046,0.06,0.018,1.018,-2.23,19.41,4.49,0,2
15324.062,0.065,0.019,1.031,2.01,19.01,6.47,0,2
15324.062,0.057,0.021,1.03,7.39,17.4,8.3,0,2
15324.078,0.07,0.04,1.027,11.81,15.29,10.25,0,2
15324.078,0.058,0.062,1.009,14.22,14.01,10.35,0,2
15324.093,0.067,0.054,1.001,10.71,11.44,9.55,0,2
15324.109,0.07,0.062,0.992,4.82,8.55,6.93,0,2
15324.109,0.062,0.044,0.989,-2.32,5.65,4.58,0,2
15324.125,0.066,0.038,0.998,-9.34,3.85,2.23,0,2
15324.14,0.055,0.007,1.008,-12.73,2.96,0.85,0,2
15324.14,0.06,0.011,1.011,-13.0,2.93,-0.03,0,2
15324.156,0.056,0.011,1.009,-11.2,3.27,-0.95,0,2
15324.171,0.056,0.011,1.009,-9.13,3.23,-1.37,0,2
15324.171,0.05,0.025,1.006,-7.72,3.48,-1.56,0,2
15324.187,0.053,0.022,1.006,-7.45,3.42,-0.61,0,2
15324.203,0.041,0.022,1.007,-6.59,3.11,0.92,0,2
15324.203,0.044,-0.001,1.024,-4.73,3.48,2.9,0,2
15324.218,0.049,-0.002,1.031,-2.69,4.39,4.03,0,2
15324.218,0.056,0.006,1.027,-0.27,3.63,3.42,0,2
15324.234,0.046,0.015,1.025,0.37,1.98,2.38,0,2
15324.25,0.049,0.014,1.018,-2.11,-0.98,1.56,0,2
15324.265,0.053,0.005,1.004,-4.58,-4.33,1.53,0,2
15324.265,0.064,-0.001,0.986,-6.04,-6.93,1.89,0,2
15324.281,0.062,-0.013,0.968,-6.23,-7.6,2.23,0,2
15324.281,0.053,-0.006,0.955,-6.26,-6.5,1.59,0,2
15324.296,0.054,0.001,0.949,-7.93,-4.21,0.15,0,2
15324.312,0.062,-0.006,0.956,-10.47,-1.07,-0.61,0,2
15324.312,0.058,-0.019,0.974,-11.51,2.96,-1.16,0,2
15324.328,0.058,-0.032,0.994,-9.92,6.9,-1.31,0,2
15324.343,0.047,-0.036,1.009,-5.62,10.25,-1.25,0,2
15324.343,0.038,-0.023,1.016,-1.28,12.15,-2.08,0,2
15324.359,0.027,-0.005,1.011,0.89,12.48,-2.53,0,2
15324.359,0.021,0.004,1.008,0.0,11.2,-2.32,0,2
15324.375,0.02,0.007,1.005,-3.48,8.73,-2.66,0,2
15324.39,0.022,0.001,1.003,-7.84,6.07,-3.81,0,2
15324.39,0.022,-0.01,1.001,-11.72,3.66,-5.49,0,2
15324.406,0.017,-0.003,1.001,-13.46,2.47,-6.81,0,2
15324.421,0.012,-0.02,1.001,-13.15,2.62,-6.53,0,2
15324.421,0.013,-0.023,1.0,-11.54,3.17,-4.97,0,2
15324.437,0.02,-0.027,0.996,-7.57,4.33,-2.32,0,2
15324.437,0.034,-0.03,0.993,-2.04,6.32,0.49,0,2
15324.453,0.025,-0.026,0.985,2.84,8.79,2.2,0,2
15324.468,0.043,-0.025,0.984,5.01,10.86,3.3,0,2
15324.468,0.037,-0.024,0.98,4.61,13.0,3.17,0,2
15324.484,0.043,-0.019,0.992,2.2,14.4,2.26,0,2
15324.5,0.041,-0.026,1.001,-0.06,15.63,0.76,0,2
15324.5,0.046,-0.025,1.014,-1.07,16.6,-0.7,0,2
15324.515,0.038,-0.021,1.018,-0.85,16.54,-1.92,0,2
15324.531,0.04,-0.009,1.021,-0.64,15.63,-2.87,0,2
15324.531,0.031,-0.008,1.023,-0.03,14.77,-3.33,0,2
15324.546,0.016,-0.001,1.02,-0.06,13.7,-3.45,0,2
15324.562,0.018,-0.004,1.019,-0.89,12.05,-2.66,0,2
15324.562,0.024,-0.0,1.017,-0.79,10.68,-1.13,0,2
15324.578,0.01,-0.008,1.015,0.82,10.8,-0.27,0,2
15324.593,0.009,-0.032,1.02,1.53,11.05,0.46,0,2
15324.593,0.012,-0.014,1.023,2.87,11.38,0.27,0,2
15324.609,0.012,-0.02,1.017,4.55,11.63,0.21,0,2
15324.609,0.02,0.001,1.017,5.43,12.05,0.0,0,2
15324.625,0.014,-0.012,1.018,6.59,12.63,0.92,0,2
15324.64,0.017,-0.007,1.019,8.27,13.18,2.35,0,2
15324.64,0.012,0.008,1.016,11.23,13.92,2.93,0,2
15324.656,0.009,0.014,1.011,13.76,13.92,3.17,0,2
15324.671,-0.005,0.026,1.005,14.59,13.28,3.14,0,2
15324.671,0.0,0.03,1.001,12.54,11.14,3.6,0,2
15324.687,-0.008,0.036,1.003,9.95,9.0,3.48,0,2
15324.703,-0.01,0.027,1.003,5.8,6.96,2.08,0,2
15324.703,-0.016,0.022,1.003,0.55,4.64,-1.22,0,2
15324.718,-0.01,0.018,1.007,-4.88,2.53,-4.61,0,2
15324.734,-0.011,0.024,1.006,-8.64,1.74,-7.26,0,2
15324.734,-0.033,-0.017,1.01,-11.14,1.59,-7.78,0,2
15324.75,-0.012,-0.008,1.021,-11.2,0.89,-6.9,0,2
15324.75,-0.015,-0.007,1.014,-6.32,1.19,-5.43,0,2
15324.765,-0.016,-0.001,1.011,-2.01,2.04,-3.85,0,2
15324.781,-0.022,0.016,1.007,0.34,2.47,-2.84,0,2
15324.781,-0.029,0.005,1.0,0.95,2.72,-1.62,0,2
15324.796,-0.039,0.002,1.0,0.03,3.14,-0.34,0,2
15324.812,-0.032,0.003,1.007,-0.85,2.59,0.18,0,2
15324.812,-0.039,0.002,1.005,-0.27,1.5,-0.06,0,2
15324.828,-0.04,0.003,0.998,0.0,0.31,0.12,0,2
15324.843,-0.032,0.002,0.992,0.31,-0.76,0.27,0,2
15324.843,-0.032,0.006,0.981,0.12,-1.92,-1.04,0,2
15324.859,-0.035,0.013,0.972,-1.07,-0.85,-1.77,0,2
15324.859,-0.04,0.017,0.968,-1.65,1.22,-1.43,0,2
15324.875,-0.045,0.015,0.972,-0.76,3.88,-0.58,0,2
15324.89,-0.055,0.017,0.983,1.04,6.65,-0.06,0,2
15324.89,-0.045,0.014,0.995,1.07,7.75,0.21,0,2
15324.906,-0.05,0.024,0.995,0.4,7.02,-1.01,0,2
15324.921,-0.048,0.028,0.987,-1.59,4.58,-2.29,0,2
15324.921,-0.057,0.036,0.977,-5.19,2.01,-3.6,0,2
15324.937,-0.054,0.015,0.975,-9.74,-0.7,-3.81,0,2
15324.953,-0.038,0.017,0.976,-12.33,-2.38,-3.75,0,2
15324.953,-0.038,0.019,0.971,-11.84,-1.95,-4.21,0,2
15324.968,-0.038,0.007,0.972,-10.32,0.92,-4.21,0,2
15324.968,-0.046,0.006,0.976,-8.55,4.82,-3.97,0,2
15324.984,-0.039,0.004,0.987,-6.68,8.18,-2.75,0,2
15325.0,-0.04,0.017,1.0,-3.72,11.17,-1.71,0,2
15325.0,-0.055,0.015,1.009,-0.89,12.63,-1.07,0,2
15325.015,-0.074,0.01,1.02,-0.43,12.82,-0.27,0,2
15325.031,-0.073,0.006,1.037,-1.56,11.26,1.53,0,2
15325.031,-0.071,0.002,1.048,-0.82,8.76,2.9,0,2
15325.046,-0.073,-0.01,1.043,0.43,5.8,3.36,0,2
15325.046,-0.071,-0.014,1.041,1.16,3.2,3.69,0,2
15325.062,-0.067,-0.019,1.036,2.99,1.83,4.3,0,2
15325.078,-0.054,-0.02,1.031,5.07,1.34,5.58,0,2
15325.078,-0.057,-0.024,1.024,7.2,2.26,5.52,0,2
15325.093,-0.057,-0.036,1.022,7.6,3.17,5.16,0,2
15325.109,-0.061,-0.022,1.019,7.14,3.85,3.6,0,2
15325.109,-0.067,-0.03,1.019,5.83,4.12,1.95,0,2
15325.125,-0.057,-0.015,1.025,3.88,4.09,0.15,0,2
15325.14,-0.064,-0.016,1.023,2.72,3.88,-1.65,0,2
15325.14,-0.058,-0.018,1.026,1.37,2.75,-2.47,0,2
15325.156,-0.057,-0.024,1.028,1.04,1.16,-2.75,0,2
15325.171,-0.045,-0.02,1.023,1.65,-0.92,-2.96,0,2
15325.171,-0.047,-0.01,1.007,2.66,-2.5,-3.51,0,2
15325.187,-0.034,-0.002,0.997,2.99,-3.91,-3.05,0,2
15325.187,-0.039,0.008,0.984,4.39,-4.15,-2.38,0,2
15325.203,-0.028,0.017,0.976,5.89,-3.48,-1.19,0,2
15325.218,-0.057,0.001,0.969,7.11,-1.46,-0.52,0,2
15325.234,-0.035,-0.005,0.975,7.02,0.0,0.82,0,2
15325.234,-0.031,0.011,0.969,8.24,1.65,0.64,0,2
15325.25,-0.03,0.006,0.962,8.0,2.75,-0.4,0,2
15325.25,-0.03,0.017,0.96,6.35,3.42,-1.77,0,2
15325.265,-0.03,0.018,0.963,5.16,4.09,-2.44,0,2
15325.281,-0.037,0.015,0.966,4.55,5.43,-2.29,0,2
15325.281,-0.035,0.011,0.975,5.13,7.2,-1.59,0,2
15325.296,-0.047,0.015,0.981,6.44,9.46,-2.2,0,2
15325.312,-0.053,0.008,0.991,7.02,11.32,-2.62,0,2
15325.312,-0.059,0.015,1.005,8.15,13.15,-2.81,0,2
15325.328,-0.064,0.022,1.016,9.52,14.19,-2.56,0,2
15325.343,-0.071,0.03,1.021,10.56,14.31,-2.5,0,2
15325.343,-0.076,0.03,1.026,10.8,13.34,-2.47,0,2
15325.359,-0.078,0.04,1.025,9.55,11.2,-3.2,0,2
15325.359,-0.084,0.045,1.017,6.62,8.24,-4.73,0,2
15325.375,-0.089,0.041,1.013,2.29,5.07,-6.56,0,2
15325.39,-0.086,0.035,1.006,-2.35,2.01,-8.36,0,2
15325.39,-0.085,0.026,1.002,-6.71,-0.7,-10.32,0,2
15325.406,-0.083,0.009,1.002,-9.77,-2.32,-12.18,0,2
15325.421,-0.092,-0.004,1.004,-10.53,-2.5,-13.37,0,2
15325.421,-0.093,-0.008,1.008,-9.03,-0.95,-14.22,0,2
15325.437,-0.095,-0.013,1.007,-5.74,1.13,-13.61,0,2
15325.453,-0.096,-0.014,1.011,-1.34,3.69,-11.93,0,2
15325.453,-0.103,-0.005,1.013,4.27,6.53,-10.19,0,2
15325.468,-0.107,0.01,1.012,10.22,8.97,-8.24,0,2
15325.484,-0.112,0.027,1.013,15.23,10.5,-5.95,0,2
15325.484,-0.112,0.038,1.011,18.43,10.86,-4.27,0,2
15325.5,-0.113,0.053,1.006,18.46,9.55,-4.0,0,2
15325.5,-0.111,0.062,0.997,15.23,7.17,-5.37,0,2
15325.515,-0.112,0.058,1.001,10.16,4.49,-7.42,0,2
15325.531,-0.109,0.047,1.006,5.58,1.98,-9.4,0,2
15325.531,-0.107,0.044,1.005,3.54,0.52,-11.32,0,2
15325.546,-0.121,0.035,0.998,3.2,0.03,-12.76,0,2
15325.562,-0.119,0.036,1.001,3.85,0.49,-12.79,0,2
15325.562,-0.116,0.052,0.998,6.62,1.77,-11.87,0,2
15325.578,-0.126,0.064,0.991,9.67,3.2,-10.96,0,2
15325.578,-0.128,0.072,0.992,11.11,4.7,-9.55,0,2
15325.593,-0.128,0.081,0.993,10.8,5.01,-9.25,0,2
15325.609,-0.127,0.064,0.999,9.0,5.25,-9.34,0,2
15325.609,-0.154,0.061,1.007,4.61,5.01,-10.01,0,2
15325.625,-0.157,0.052,1.014,-2.14,3.94,-12.27,0,2
15325.64,-0.159,0.049,1.021,-11.23,2.32,-15.66,0,2
15325.64,-0.159,0.035,1.04,-19.1,0.18,-19.2,0,2
15325.656,-0.15,0.031,1.053,-23.99,-3.11,-23.16,0,2
15325.671,-0.137,0.017,1.06,-23.99,-7.23,-25.91,0,2
15325.671,-0.132,0.023,1.051,-20.08,-10.93,-25.85,0,2
15325.687,-0.137,0.016,1.028,-14.74,-13.61,-23.53,0,2
15325.687,-0.121,0.022,1.01,-8.79,-14.34,-19.32,0,2
15325.703,-0.123,0.034,0.982,-2.87,-12.97,-16.21,0,2
15325.718,-0.105,0.029,0.971,1.25,-11.02,-13.79,0,2
15325.718,-0.103,0.025,0.96,4.15,-8.24,-12.3,0,2
15325.734,-0.095,0.021,0.961,5.01,-6.1,-12.18,0,2
15325.75,-0.086,0.016,0.964,4.91,-4.79,-13.82,0,2
15325.765,-0.078,0.014,0.968,3.97,-4.15,-15.93,0,2
15325.765,-0.096,0.012,0.974,2.75,-3.17,-18.04,0,2
15325.781,-0.095,0.012,0.987,2.32,-2.35,-18.8,0,2
15325.781,-0.103,0.021,0.998,4.18,-0.79,-19.44,0,2
15325.796,-0.093,0.018,1.008,7.08,-0.12,-19.68,0,2
15325.812,-0.092,0.018,1.009,10.28,-0.76,-19.81,0,2
15325.812,-0.083,0.02,1.005,12.12,-2.5,-19.41,0,2
15325.828,-0.079,0.031,0.988,12.36,-4.46,-19.38,0,2
15325.843,-0.081,0.035,0.979,8.45,-5.83,-21.58,0,2
15325.843,-0.071,0.041,0.972,6.74,-5.46,-23.22,0,2
15325.859,-0.072,0.033,0.96,5.83,-3.94,-23.65,0,2
15325.859,-0.081,0.034,0.951,6.99,-0.82,-22.68,0,2
15325.875,-0.077,0.042,0.949,10.38,2.56,-20.72,0,2
15325.89,-0.076,0.054,0.944,15.78,6.71,-18.19,0,2
15325.89,-0.08,0.065,0.939,20.17,10.65,-16.11,0,2
15325.906,-0.089,0.062,0.95,22.03,14.77,-14.77,0,2
15325.921,-0.09,0.056,0.964,21.64,17.82,-14.74,0,2
15325.921,-0.091,0.049,0.982,19.65,19.68,-15.35,0,2
15325.937,-0.09,0.038,1.007,18.13,20.26,-16.02,0,2
15325.953,-0.089,0.023,1.023,18.52,19.62,-16.24,0,2
15325.953,-0.089,0.018,1.031,19.53,17.85,-16.91,0,2
15325.968,-0.103,0.024,1.032,20.2,15.93,-17.98,0,2
15325.968,-0.115,0.03,1.034,19.78,14.28,-18.8,0,2
15325.984,-0.114,0.034,1.035,19.59,13.15,-19.38,0,2
15326.0,-0.115,0.042,1.03,19.41,11.38,-20.63,0,2
15326.0,-0.109,0.053,1.026,17.79,8.97,-22.31,0,2
15326.015,-0.103,0.065,1.016,15.32,5.92,-24.69,0,2
15326.031,-0.103,0.069,1.01,11.87,3.33,-27.59,0,2
15326.031,-0.102,0.061,1.01,7.63,1.68,-30.24,0,2
15326.046,-0.102,0.048,1.013,4.7,0.82,-31.83,0,2
15326.062,-0.098,0.053,1.012,3.69,0.7,-33.14,0,2
15326.062,-0.097,0.063,1.013,3.91,0.34,-34.46,0,2
15326.078,-0.098,0.075,1.012,4.03,-0.37,-35.49,0,2
15326.078,-0.111,0.086,1.008,3.66,-1.98,-35.25,0,2
15326.093,-0.114,0.094,1.008,3.36,-3.78,-32.5,0,2
15326.109,-0.104,0.099,1.008,5.25,-5.22,-28.47,0,2
15326.125,-0.091,0.113,0.993,9.09,-6.26,-25.03,0,2
15326.125,-0.082,0.124,0.972,11.78,-6.65,-22.31,0,2
15326.14,-0.08,0.125,0.956,13.18,-6.13,-19.47,0,2
15326.14,-0.075,0.123,0.947,13.95,-4.73,-17.06,0,2
15326.156,-0.074,0.113,0.935,14.28,-2.5,-15.29,0,2
15326.171,-0.079,0.104,0.942,13.89,0.82,-14.86,0,2
15326.171,-0.088,0.093,0.952,13.37,4.18,-15.72,0,2
15326.187,-0.1,0.085,0.969,12.76,7.84,-17.18,0,2
15326.187,-0.112,0.085,0.982,11.9,10.59,-19.29,0,2
15326.203,-0.133,0.095,1.005,10.22,11.87,-21.61,0,2
15326.218,-0.145,0.1,1.026,7.48,11.2,-23.1,0,2
15326.234,-0.15,0.102,1.044,5.16,8.27,-23.74,0,2
15326.234,-0.149,0.104,1.053,3.6,3.42,-24.2,0,2
15326.25,-0.141,0.108,1.048,1.4,-2.87,-25.12,0,2
15326.25,-0.132,0.11,1.039,-2.84,-9.61,-27.89,0,2
