timestamp,ax,ay,az,gx,gy,gz,orient_label,motion_label
15249.656,-0.015,0.093,0.988,11.11,10.16,3.97,0,2
15249.671,-0.021,0.097,0.99,11.81,13.12,3.78,0,2
15249.687,-0.027,0.094,0.997,12.05,15.59,3.57,0,2
15249.687,-0.05,0.093,1.023,12.97,15.99,3.33,0,2
15249.703,-0.05,0.099,1.045,14.07,11.81,4.7,0,2
15249.718,-0.053,0.118,1.045,15.87,5.71,5.98,0,2
15249.718,-0.05,0.121,1.032,16.42,-1.16,7.81,0,2
15249.734,-0.046,0.136,1.007,15.26,-6.81,9.19,0,2
15249.75,-0.048,0.126,0.98,12.54,-10.47,9.4,0,2
15249.765,-0.042,0.125,0.969,9.06,-11.38,8.39,0,2
15249.765,-0.045,0.124,0.96,6.07,-9.49,5.62,0,2
15249.765,-0.043,0.118,0.955,2.81,-5.86,1.25,0,2
15249.781,-0.048,0.12,0.952,0.06,-1.01,-3.94,0,2
15249.796,-0.051,0.123,0.95,-1.68,4.24,-8.94,0,2
15249.796,-0.047,0.106,0.943,-2.72,8.27,-11.87,0,2
15249.812,-0.023,0.12,0.946,-1.95,11.87,-12.91,0,2
15249.828,-0.012,0.127,0.951,1.71,15.11,-13.95,0,2
15249.843,-0.042,0.139,0.982,5.92,16.79,-14.62,0,2
15249.859,-0.052,0.162,0.988,6.32,12.76,-14.25,0,2
15249.859,-0.055,0.148,0.989,4.39,7.14,-13.28,0,2
15249.875,-0.049,0.154,0.991,2.44,1.4,-13.28,0,2
15249.89,-0.052,0.142,0.984,1.16,-3.33,-14.59,0,2
15249.89,-0.047,0.127,0.97,-1.04,-6.84,-15.9,0,2
15249.906,-0.032,0.123,0.964,-2.72,-8.76,-15.93,0,2
15249.906,-0.019,0.124,0.963,-2.47,-9.22,-15.75,0,2
15249.921,-0.016,0.127,0.96,-0.82,-8.79,-16.05,0,2
15249.937,-0.016,0.137,0.955,-0.03,-7.9,-16.36,0,2
15249.937,-0.013,0.146,0.95,0.95,-7.26,-16.17,0,2
15249.953,-0.004,0.16,0.945,2.62,-7.39,-15.11,0,2
15249.968,0.007,0.167,0.941,4.06,-8.18,-12.73,0,2
15249.984,0.023,0.166,0.939,5.89,-9.09,-9.61,0,2
15249.984,0.036,0.161,0.929,8.67,-8.97,-6.59,0,2
15249.984,0.047,0.17,0.923,10.77,-7.87,-4.03,0,2
15250.015,0.053,0.185,0.923,12.73,-4.09,-0.64,0,2
15250.031,0.042,0.195,0.933,11.35,-1.56,-0.03,0,2
15250.031,0.026,0.198,0.953,8.82,1.07,-0.15,0,2
15250.046,0.01,0.195,0.98,6.13,2.66,-0.15,0,2
15250.046,0.0,0.192,1.007,4.15,3.05,0.73,0,2
15250.062,-0.008,0.188,1.029,3.63,1.92,2.23,0,2
15250.078,-0.019,0.185,1.036,4.06,-0.15,4.27,0,2
15250.078,-0.026,0.185,1.029,4.39,-2.29,6.71,0,2
15250.093,-0.037,0.188,1.017,4.15,-3.78,8.7,0,2
15250.109,-0.044,0.192,1.01,3.17,-3.66,9.22,0,2
15250.109,-0.045,0.184,1.012,1.25,-2.41,8.33,0,2
15250.125,-0.041,0.178,1.014,0.12,-0.76,6.96,0,2
15250.14,-0.037,0.183,1.01,0.18,0.12,5.71,0,2
15250.14,-0.035,0.186,1.005,0.27,-0.06,5.86,0,2
15250.156,-0.03,0.182,0.996,0.37,-1.04,7.57,0,2
15250.171,-0.02,0.174,0.985,2.29,-3.36,12.24,0,2
15250.187,0.003,0.154,0.961,6.5,-3.36,15.59,0,2
15250.187,0.004,0.145,0.954,8.82,-2.04,16.27,0,2
15250.203,0.001,0.166,0.941,9.22,-0.21,15.81,0,2
15250.218,0.004,0.165,0.949,7.75,2.01,15.23,0,2
15250.218,0.007,0.169,0.96,6.87,3.69,14.59,0,2
15250.234,0.014,0.176,0.964,6.5,4.64,14.04,0,2
15250.25,0.022,0.174,0.967,7.17,4.85,14.22,0,2
15250.25,0.033,0.176,0.965,8.51,4.3,15.35,0,2
15250.265,0.048,0.188,0.961,10.44,3.66,17.4,0,2
15250.281,0.06,0.195,0.945,12.67,2.66,20.45,0,2
15250.281,0.067,0.211,0.928,14.04,2.04,23.38,0,2
15250.296,0.079,0.228,0.919,14.68,2.56,25.57,0,2
15250.312,0.096,0.239,0.919,14.56,4.06,27.62,0,2
15250.312,0.118,0.247,0.914,14.53,5.86,29.88,0,2
15250.328,0.134,0.261,0.918,15.81,7.72,31.89,0,2
15250.328,0.158,0.262,0.923,17.58,8.3,34.67,0,2
15250.343,0.168,0.266,0.923,19.53,7.6,38.48,0,2
15250.359,0.186,0.267,0.927,21.76,6.01,41.9,0,2
15250.359,0.212,0.252,0.923,24.84,2.62,46.14,0,2
15250.375,0.249,0.243,0.914,28.35,-2.66,51.88,0,2
15250.39,0.278,0.23,0.879,33.78,-8.58,59.36,0,2
15250.39,0.27,0.224,0.829,38.18,-11.57,66.59,0,2
15250.406,0.28,0.246,0.8,36.84,-10.99,71.63,0,2
15250.421,0.277,0.242,0.773,31.92,-7.2,74.28,0,2
15250.421,0.252,0.238,0.779,23.74,0.95,72.73,0,2
15250.437,0.253,0.237,0.815,14.07,11.29,67.69,0,2
15250.437,0.255,0.215,0.857,5.22,20.17,61.19,0,2
15250.453,0.267,0.195,0.894,0.52,25.54,54.96,0,2
15250.468,0.278,0.194,0.922,1.43,27.34,51.03,0,2
15250.484,0.287,0.2,0.93,5.43,24.9,50.66,0,2
15250.484,0.276,0.197,0.925,10.77,19.87,53.93,0,2
15250.5,0.25,0.188,0.905,15.78,15.35,59.51,0,2
15250.5,0.206,0.183,0.905,17.33,14.1,62.93,0,2
15250.515,0.17,0.206,0.917,14.07,17.73,61.4,0,2
15250.531,0.153,0.194,0.936,6.26,23.22,55.64,0,2
15250.531,0.144,0.176,0.96,-2.11,29.15,48.46,0,2
15250.546,0.148,0.195,0.98,-8.42,33.17,40.71,0,2
15250.546,0.157,0.226,0.99,-11.63,35.49,33.69,0,2
15250.562,0.154,0.252,1.007,-13.15,35.77,29.3,0,2
15250.578,0.114,0.255,1.023,-13.21,33.42,28.14,0,2
15250.578,0.062,0.237,1.048,-13.4,29.6,30.06,0,2
15250.593,0.021,0.209,1.086,-14.04,26.61,33.02,0,2
15250.609,0.007,0.166,1.124,-13.79,24.63,35.16,0,2
15250.609,0.018,0.129,1.151,-10.86,22.71,35.49,0,2
15250.625,0.038,0.096,1.166,-2.75,20.2,35.37,0,2
15250.625,0.046,0.092,1.155,10.5,16.33,35.0,0,2
15250.64,0.053,0.139,1.126,24.84,9.95,33.48,0,2
15250.656,0.047,0.181,1.091,36.23,1.37,31.4,0,2
15250.671,0.033,0.197,1.065,40.77,-7.63,30.27,0,2
15250.671,0.032,0.205,1.033,38.67,-16.21,28.5,0,2
15250.687,0.05,0.205,1.009,32.35,-23.96,25.3,0,2
15250.687,0.066,0.206,0.997,27.13,-30.15,21.15,0,2
15250.703,0.059,0.21,0.978,24.29,-34.58,16.79,0,2
15250.718,0.057,0.221,0.979,22.31,-37.63,12.3,0,2
15250.734,0.053,0.215,0.97,22.89,-40.53,8.27,0,2
15250.734,0.04,0.184,0.96,24.69,-42.79,5.07,0,2
15250.75,0.029,0.167,0.963,26.98,-46.27,3.48,0,2
15250.75,0.04,0.127,0.95,33.81,-50.45,3.33,0,2
15250.765,0.053,0.107,0.928,41.72,-54.66,1.98,0,2
15250.781,0.063,0.119,0.891,48.25,-59.11,-1.4,0,2
15250.781,0.038,0.189,0.851,49.71,-62.75,-9.37,0,2
15250.796,0.011,0.274,0.826,43.12,-67.2,-22.34,0,2
15250.796,0.014,0.351,0.818,31.92,-70.1,-35.52,0,2
15250.812,-0.014,0.369,0.814,18.59,-74.25,-45.5,0,2
15250.828,-0.004,0.401,0.822,5.43,-77.85,-50.78,0,2
15250.843,-0.012,0.392,0.828,-2.69,-80.72,-51.55,0,2
15250.843,-0.007,0.359,0.842,-4.76,-82.64,-50.39,0,2
15250.859,-0.004,0.296,0.855,-0.31,-83.19,-47.36,0,2
15250.859,-0.01,0.262,0.861,8.03,-80.87,-45.29,0,2
15250.875,-0.024,0.283,0.864,13.89,-75.96,-47.61,0,2
15250.89,-0.022,0.304,0.87,14.19,-70.62,-53.93,0,2
15250.89,-0.051,0.348,0.868,9.19,-65.03,-62.62,0,2
15250.906,-0.069,0.408,0.876,-0.52,-60.73,-71.26,0,2
15250.906,-0.101,0.432,0.883,-12.15,-58.66,-77.97,0,2
15250.921,-0.098,0.422,0.898,-23.53,-58.81,-78.86,0,2
15250.937,-0.104,0.451,0.91,-29.97,-57.34,-77.76,0,2
15250.953,-0.104,0.446,0.938,-32.04,-55.3,-75.11,0,2
15250.953,-0.096,0.401,0.958,-29.63,-53.35,-70.38,0,2
15250.968,-0.113,0.396,0.971,-23.16,-49.78,-65.71,0,2
15250.968,-0.114,0.455,0.988,-17.21,-45.32,-64.24,0,2
15250.984,-0.136,0.481,0.98,-13.76,-40.41,-64.85,0,2
15251.0,-0.155,0.538,0.98,-17.46,-34.18,-64.94,0,2
15251.0,-0.143,0.565,0.99,-24.66,-27.68,-62.99,0,2
15251.015,-0.138,0.518,1.006,-29.76,-21.97,-56.86,0,2
15251.031,-0.101,0.474,1.074,-14.22,-10.13,-37.05,0,2
15251.046,-0.08,0.418,1.09,7.93,-5.13,-28.05,0,2
15251.046,-0.054,0.364,1.081,34.52,-2.26,-20.08,0,2
15251.062,-0.023,0.338,1.051,61.13,-1.04,-14.98,0,2
15251.078,-0.012,0.342,1.008,82.74,1.68,-14.31,0,2
15251.078,-0.017,0.413,0.978,91.59,7.14,-17.49,0,2
15251.093,-0.043,0.492,0.958,85.97,12.09,-22.43,0,2
15251.109,-0.091,0.567,0.958,67.48,14.74,-25.27,0,2
15251.109,-0.116,0.602,0.973,41.38,12.73,-24.9,0,2
15251.125,-0.125,0.578,1.002,15.32,6.1,-21.52,0,2
15251.14,-0.111,0.521,1.025,-5.37,-3.51,-17.37,0,2
15251.14,-0.079,0.473,1.034,-17.27,-12.51,-14.92,0,2
15251.156,-0.045,0.427,1.033,-15.05,-20.14,-16.08,0,2
15251.156,-0.032,0.415,1.027,-6.99,-17.09,-17.06,0,2
15251.171,-0.039,0.455,1.021,2.53,-12.79,-16.14,0,2
15251.187,-0.031,0.455,1.0,12.21,-7.63,-11.81,0,2
15251.203,-0.008,0.451,0.982,24.66,1.59,-3.97,0,2
15251.218,-0.006,0.435,0.966,27.34,4.49,-3.33,0,2
15251.218,-0.007,0.433,0.959,27.5,6.5,-3.48,0,2
15251.234,-0.023,0.447,0.955,26.4,7.17,-3.54,0,2
15251.25,-0.024,0.444,0.942,24.69,5.34,-3.02,0,2
15251.25,-0.003,0.441,0.925,23.04,2.08,-2.56,0,2
15251.265,0.015,0.444,0.903,22.52,-1.16,-2.66,0,2
15251.281,0.03,0.439,0.879,21.76,-3.23,-2.87,0,2
15251.281,0.036,0.444,0.861,19.01,-3.6,-3.45,0,2
15251.296,0.029,0.458,0.85,15.02,-2.9,-4.85,0,2
15251.296,0.026,0.478,0.839,9.92,-1.1,-6.07,0,2
15251.312,0.008,0.507,0.845,3.66,1.89,-5.92,0,2
15251.328,-0.008,0.52,0.871,-1.62,4.55,-3.85,0,2
15251.328,0.0,0.51,0.892,-4.85,6.04,-0.52,0,2
15251.343,0.015,0.5,0.905,-5.16,5.83,2.04,0,2
15251.359,0.031,0.486,0.907,-2.23,3.97,3.27,0,2
15251.375,0.065,0.472,0.867,9.13,-0.64,5.95,0,2
15251.375,0.081,0.469,0.841,14.65,-1.4,7.2,0,2
15251.39,0.103,0.47,0.821,18.86,0.21,7.26,0,2
15251.406,0.113,0.472,0.815,20.2,3.94,6.68,0,2
15251.406,0.109,0.486,0.819,17.91,6.81,4.52,0,2
15251.421,0.096,0.506,0.819,13.55,7.72,1.86,0,2
15251.437,0.074,0.543,0.823,7.48,7.08,0.37,0,2
15251.437,0.063,0.568,0.824,0.76,5.01,0.21,0,2
15251.453,0.055,0.575,0.823,-4.55,2.59,1.37,0,2
15251.468,0.055,0.566,0.822,-7.42,0.92,3.72,0,2
15251.468,0.069,0.548,0.827,-9.16,0.27,6.2,0,2
15251.484,0.075,0.537,0.828,-9.22,0.21,6.71,0,2
15251.5,0.088,0.523,0.828,-7.57,1.46,7.32,0,2
15251.5,0.101,0.518,0.827,-4.27,4.09,8.58,0,2
15251.515,0.11,0.511,0.826,-0.09,7.35,9.95,0,2
15251.531,0.115,0.525,0.822,4.39,10.65,11.51,0,2
15251.531,0.112,0.536,0.817,8.67,13.73,13.28,0,2
15251.546,0.108,0.532,0.818,11.23,15.93,14.77,0,2
15251.546,0.107,0.517,0.819,11.54,17.43,15.26,0,2
15251.562,0.099,0.51,0.817,9.4,17.52,13.61,0,2
15251.578,0.093,0.507,0.824,4.64,16.82,10.5,0,2
15251.578,0.082,0.507,0.836,-1.74,16.17,8.39,0,2
15251.593,0.075,0.494,0.85,-7.72,15.23,8.24,0,2
15251.609,0.072,0.468,0.858,-11.96,13.61,9.03,0,2
15251.609,0.074,0.442,0.861,-13.73,11.47,9.37,0,2
15251.625,0.084,0.421,0.863,-13.64,8.79,8.3,0,2
15251.625,0.089,0.397,0.85,-12.09,6.9,5.92,0,2
15251.64,0.09,0.386,0.828,-9.7,6.9,4.06,0,2
15251.656,0.085,0.383,0.815,-7.26,9.55,2.59,0,2
15251.671,0.079,0.385,0.801,-8.12,12.76,0.98,0,2
15251.671,0.091,0.377,0.749,-7.81,18.16,-1.68,0,2
15251.687,0.081,0.357,0.715,-4.7,28.29,-5.89,0,2
15251.687,0.071,0.359,0.721,-1.86,39.37,-10.5,0,2
15251.703,0.074,0.348,0.71,0.79,49.59,-16.11,0,2
15251.718,0.062,0.361,0.699,-0.89,60.37,-24.72,0,2
15251.718,0.02,0.445,0.748,-9.16,71.05,-32.59,0,2
15251.734,-0.133,0.496,0.932,-21.61,73.46,-33.51,0,2
15251.75,-0.362,0.717,1.285,-49.9,47.0,-21.64,0,2
15251.75,-0.225,0.767,1.376,-68.54,1.34,-1.37,0,2
15251.765,-0.168,0.525,1.295,-60.91,-31.22,8.21,0,2
15251.781,-0.052,0.439,1.155,-47.94,-47.7,10.13,0,2
15251.781,0.063,0.348,1.018,-20.39,-41.35,5.95,0,2
15251.796,0.049,0.343,0.955,8.39,-23.16,1.59,0,2
15251.796,0.057,0.407,0.934,30.12,-5.62,0.15,0,2
15251.812,0.03,0.46,0.93,41.26,6.38,-0.4,0,2
15251.828,-0.025,0.497,0.97,38.91,8.09,0.24,0,2
15251.828,0.03,0.53,0.949,28.32,0.4,2.9,0,2
15251.843,0.046,0.44,0.885,22.0,-4.76,2.75,0,2
15251.859,0.035,0.463,0.883,13.18,-7.78,2.2,0,2
15251.859,0.074,0.482,0.884,6.23,-11.11,2.41,0,2
15251.875,0.067,0.48,0.887,1.68,-13.09,3.05,0,2
15251.89,0.088,0.485,0.899,-4.12,-15.29,4.58,0,2
15251.89,0.107,0.447,0.883,-8.24,-16.05,4.24,0,2
15251.906,0.1,0.421,0.876,-10.41,-13.73,3.05,0,2
15251.921,0.098,0.422,0.878,-9.92,-10.07,2.9,0,2
15251.921,0.097,0.412,0.877,-7.93,-6.68,2.81,0,2
15251.937,0.093,0.403,0.879,-6.26,-3.78,2.62,0,2
15251.937,0.087,0.407,0.884,-4.43,-1.31,2.44,0,2
15251.953,0.075,0.411,0.886,-2.69,0.67,2.14,0,2
15251.968,0.066,0.416,0.887,-1.83,1.68,1.65,0,2
15251.968,0.063,0.42,0.888,-1.31,1.68,1.19,0,2
15251.984,0.059,0.431,0.892,-1.19,1.22,0.73,0,2
15252.0,0.057,0.439,0.893,-2.01,0.27,0.55,0,2
15252.0,0.06,0.435,0.89,-3.08,-1.28,0.79,0,2
15252.015,0.066,0.427,0.884,-4.09,-3.05,1.01,0,2
15252.031,0.071,0.426,0.878,-4.73,-4.43,0.7,0,2
15252.031,0.075,0.423,0.872,-5.04,-5.01,0.18,0,2
15252.046,0.079,0.42,0.862,-4.76,-4.88,-0.37,0,2
15252.062,0.092,0.417,0.844,-2.59,-2.53,0.49,0,2
15252.078,0.09,0.414,0.839,-0.85,-0.34,0.82,0,2
15252.078,0.092,0.412,0.846,0.18,1.83,0.95,0,2
15252.093,0.096,0.407,0.851,0.7,3.69,0.64,0,2
15252.109,0.083,0.41,0.861,1.1,4.82,0.06,0,2
15252.109,0.072,0.417,0.873,1.68,5.1,-0.03,0,2
15252.125,0.069,0.423,0.879,1.83,4.46,0.31,0,2
15252.14,0.063,0.423,0.888,3.85,2.35,1.59,0,2
15252.14,0.058,0.422,0.893,4.7,1.31,1.65,0,2
15252.156,0.062,0.427,0.897,4.88,0.61,1.1,0,2
15252.156,0.063,0.428,0.902,4.91,0.43,0.61,0,2
15252.171,0.069,0.422,0.911,5.16,0.67,0.58,0,2
15252.187,0.073,0.421,0.913,5.58,1.28,0.52,0,2
15252.187,0.073,0.423,0.918,6.29,2.01,0.0,0,2
15252.203,0.069,0.43,0.923,7.02,2.59,-0.79,0,2
15252.218,0.069,0.444,0.924,7.69,2.69,-1.53,0,2
15252.234,0.078,0.461,0.92,8.64,0.92,-1.19,0,2
15252.25,0.081,0.46,0.917,9.4,-0.12,-0.15,0,2
15252.25,0.087,0.461,0.913,9.52,-1.13,1.04,0,2
15252.265,0.097,0.465,0.907,9.06,-1.53,1.53,0,2
15252.281,0.108,0.471,0.902,8.36,-1.22,1.59,0,2
15252.281,0.138,0.485,0.896,8.06,-0.43,1.74,0,2
15252.296,0.162,0.509,0.891,7.6,1.1,2.08,0,2
15252.296,0.174,0.535,0.885,5.52,3.42,2.5,0,2
15252.312,0.177,0.545,0.88,3.69,7.48,3.39,0,2
15252.328,0.177,0.544,0.878,3.27,12.91,4.64,0,2
15252.328,0.172,0.533,0.854,2.78,18.52,5.52,0,2
15252.343,0.148,0.534,0.833,3.08,24.48,6.78,0,2
15252.359,0.133,0.533,0.84,6.9,30.24,9.89,0,2
15252.375,0.12,0.532,0.842,11.32,33.14,13.49,0,2
15252.375,0.104,0.541,0.836,14.37,33.94,17.15,0,2
15252.39,0.083,0.537,0.815,15.9,33.94,20.54,0,2
15252.39,0.069,0.532,0.809,14.56,34.27,22.31,0,2
15252.406,0.051,0.526,0.825,8.67,33.27,20.81,0,2
15252.421,0.02,0.536,0.824,-0.55,29.6,17.64,0,2
15252.421,-0.001,0.534,0.822,-10.07,25.48,16.05,0,2
15252.437,-0.008,0.51,0.829,-18.49,21.67,15.72,0,2
15252.437,-0.014,0.474,0.831,-24.78,18.16,15.47,0,2
15252.453,-0.012,0.44,0.832,-28.11,16.05,14.8,0,2
15252.468,-0.021,0.421,0.83,-27.99,15.75,13.64,0,2
15252.468,-0.028,0.42,0.825,-26.18,17.03,13.95,0,2
15252.484,-0.03,0.42,0.828,-24.6,18.95,15.63,0,2
15252.5,-0.038,0.404,0.842,-22.68,21.03,17.61,0,2
15252.5,-0.047,0.384,0.858,-20.29,22.13,18.4,0,2
15252.515,-0.063,0.373,0.871,-18.4,22.1,17.09,0,2
15252.515,-0.073,0.374,0.886,-18.4,21.06,14.13,0,2
15252.531,-0.075,0.373,0.898,-20.51,18.25,10.5,0,2
15252.546,-0.079,0.373,0.906,-23.1,14.53,7.54,0,2
15252.562,-0.083,0.368,0.912,-25.12,10.8,6.2,0,2
15252.562,-0.078,0.368,0.914,-26.37,7.2,6.32,0,2
15252.578,-0.053,0.366,0.915,-26.06,4.55,6.96,0,2
15252.578,-0.028,0.364,0.912,-23.53,3.08,7.42,0,2
15252.593,-0.017,0.356,0.907,-18.59,3.3,7.75,0,2
15252.609,-0.004,0.355,0.908,-13.67,4.21,7.39,0,2
15252.609,0.0,0.352,0.91,-9.37,5.01,6.04,0,2
15252.625,0.002,0.344,0.9,-5.49,5.86,4.3,0,2
15252.64,0.003,0.354,0.884,-3.88,6.53,3.05,0,2
15252.64,0.005,0.358,0.871,-5.04,6.87,1.8,0,2
15252.656,0.008,0.344,0.862,-8.39,6.96,-0.61,0,2
15252.656,0.01,0.33,0.84,-14.04,6.53,-4.46,0,2
15252.671,0.012,0.32,0.815,-20.45,6.59,-8.39,0,2
15252.687,0.017,0.29,0.795,-26.43,7.69,-11.23,0,2
15252.687,0.035,0.255,0.768,-31.22,10.13,-13.73,0,2
15252.703,0.047,0.222,0.732,-32.59,15.93,-17.4,0,2
15252.718,0.043,0.194,0.699,-29.36,26.31,-22.25,0,2
15252.718,0.017,0.214,0.67,-24.63,41.41,-26.89,0,2
15252.734,-0.036,0.283,0.671,-21.88,60.79,-29.91,0,2
15252.75,-0.114,0.328,0.705,-22.49,80.63,-30.52,0,2
15252.75,-0.28,0.352,0.865,-23.99,94.67,-28.11,0,2
15252.765,-0.632,0.559,1.617,-14.77,87.53,-14.83,0,2
15252.765,-0.808,0.515,2.064,24.99,30.73,22.19,0,2
15252.781,-0.29,0.29,1.402,27.86,-50.97,34.61,0,2
15252.796,-0.218,0.433,1.041,-5.86,-64.09,13.76,0,2
15252.796,-0.172,0.217,1.016,-2.11,-28.08,0.43,0,2
15252.812,-0.209,0.252,1.007,16.88,6.2,-5.62,0,2
15252.828,-0.222,0.381,1.022,33.08,25.91,-4.55,0,2
15252.828,-0.307,0.4,1.145,47.88,30.52,-0.55,0,2
15252.843,-0.195,0.348,1.134,58.9,17.4,5.4,0,2
15252.859,-0.35,0.448,1.063,42.27,-4.15,-7.05,0,2
15252.859,-0.316,0.439,1.091,30.64,-20.97,-3.45,0,2
15252.875,-0.268,0.44,1.046,21.21,-38.21,6.99,0,2
15252.89,-0.227,0.375,1.016,12.76,-50.02,10.59,0,2
15252.89,-0.174,0.292,0.999,9.0,-57.37,7.48,0,2
15252.906,-0.124,0.276,0.954,13.12,-59.72,1.37,0,2
15252.921,-0.102,0.28,0.901,20.45,-57.53,-3.78,0,2
15252.921,-0.095,0.292,0.854,25.51,-53.9,-6.65,0,2
15252.937,-0.073,0.323,0.826,26.31,-50.48,-8.76,0,2
15252.937,-0.066,0.344,0.803,24.75,-48.25,-10.56,0,2
15252.953,-0.058,0.344,0.784,21.39,-47.4,-11.6,0,2
15252.968,-0.019,0.358,0.779,15.9,-47.88,-12.6,0,2
15252.968,0.019,0.391,0.766,10.53,-48.31,-15.23,0,2
15252.984,0.031,0.412,0.75,6.65,-47.18,-18.04,0,2
15253.0,0.036,0.433,0.737,2.99,-44.13,-18.4,0,2
15253.0,0.055,0.459,0.736,2.11,-39.34,-16.36,0,2
15253.015,0.087,0.478,0.739,4.27,-34.85,-14.22,0,2
15253.031,0.111,0.493,0.737,8.09,-31.01,-12.63,0,2
15253.031,0.138,0.506,0.737,12.12,-27.16,-10.68,0,2
15253.046,0.135,0.52,0.73,14.47,-22.64,-8.7,0,2
15253.046,0.14,0.523,0.728,13.49,-19.04,-5.46,0,2
15253.062,0.162,0.526,0.728,12.21,-17.3,-2.81,0,2
15253.078,0.177,0.523,0.727,11.78,-15.93,-1.83,0,2
15253.078,0.179,0.527,0.727,11.11,-14.47,-1.5,0,2
15253.093,0.173,0.549,0.73,9.8,-13.25,-2.08,0,2
15253.109,0.171,0.565,0.737,6.99,-11.99,-1.28,0,2
15253.109,0.167,0.569,0.755,2.47,-9.98,3.85,0,2
15253.125,0.155,0.554,0.762,1.98,-9.46,6.99,0,2
15253.14,0.155,0.539,0.772,2.62,-9.0,9.52,0,2
15253.14,0.15,0.537,0.786,3.42,-10.01,11.99,0,2
15253.156,0.141,0.53,0.774,2.11,-11.63,14.92,0,2
15253.171,0.134,0.504,0.762,-0.85,-12.79,16.6,0,2
15253.171,0.121,0.473,0.759,-6.04,-13.31,17.46,0,2
15253.187,0.107,0.46,0.768,-11.99,-13.37,17.82,0,2
15253.187,0.09,0.437,0.76,-17.55,-13.52,19.71,0,2
15253.203,0.079,0.401,0.736,-19.68,-12.63,22.31,0,2
15253.218,0.074,0.365,0.742,-17.55,-8.64,25.42,0,2
15253.234,0.113,0.335,0.757,-13.4,-1.19,27.19,0,2
15253.234,0.149,0.291,0.738,-6.13,11.54,22.13,0,2
15253.25,0.154,0.247,0.737,1.04,28.2,12.02,0,2
15253.25,0.161,0.231,0.767,4.46,45.29,0.43,0,2
15253.265,0.132,0.249,0.821,4.88,61.43,-12.82,0,2
15253.281,-0.027,0.32,1.011,-2.47,71.29,-25.12,0,2
15253.281,-0.274,0.578,1.462,-35.28,50.36,-28.38,0,2
15253.296,-0.297,0.843,1.67,-72.54,-2.2,-17.43,0,2
15253.296,-0.162,0.623,1.542,-68.39,-40.96,-2.47,0,2
15253.312,-0.058,0.412,1.356,-38.15,-53.29,8.09,0,2
15253.328,0.084,0.402,1.185,-1.65,-45.87,9.83,0,2
15253.343,0.092,0.41,1.056,37.2,-24.99,3.97,0,2
15253.343,0.051,0.467,0.98,67.87,-5.28,-1.28,0,2
15253.359,0.026,0.542,0.92,81.76,3.6,-2.56,0,2
15253.359,0.014,0.594,0.865,75.69,2.69,-0.82,0,2
15253.375,-0.019,0.627,0.855,53.04,-5.4,2.44,0,2
15253.39,0.064,0.632,0.792,22.71,-17.67,8.09,0,2
15253.39,0.076,0.464,0.738,4.06,-19.9,8.55,0,2
15253.406,0.057,0.504,0.838,-17.64,-23.32,8.76,0,2
15253.421,0.114,0.512,0.855,-28.84,-28.66,11.72,0,2
15253.421,0.12,0.387,0.814,-24.26,-25.91,11.69,0,2
15253.437,0.123,0.376,0.831,-17.03,-18.77,9.61,0,2
15253.437,0.12,0.407,0.845,-7.57,-11.44,7.84,0,2
15253.453,0.11,0.408,0.839,0.27,-5.68,7.42,0,2
15253.468,0.102,0.406,0.84,3.85,-1.59,7.72,0,2
15253.468,0.096,0.419,0.843,3.75,0.95,7.42,0,2
15253.484,0.086,0.428,0.847,0.18,2.32,6.29,0,2
15253.5,0.081,0.426,0.863,-5.74,2.59,4.91,0,2
15253.5,0.082,0.423,0.879,-11.29,2.29,3.45,0,2
15253.515,0.083,0.425,0.893,-14.86,1.59,1.86,0,2
15253.515,0.085,0.422,0.899,-15.63,0.89,0.76,0,2
15253.531,0.083,0.418,0.904,-13.7,0.09,0.43,0,2
15253.546,0.081,0.419,0.907,-9.95,-0.43,0.7,0,2
15253.562,0.082,0.425,0.905,-6.16,-0.89,0.89,0,2
15253.562,0.085,0.425,0.9,-3.51,-1.13,1.07,0,2
15253.578,0.088,0.425,0.889,-1.8,-1.65,1.71,0,2
15253.578,0.089,0.421,0.885,-1.16,-2.04,2.66,0,2
15253.593,0.093,0.415,0.88,-0.7,-2.56,3.45,0,2
15253.609,0.098,0.414,0.878,-0.4,-3.11,4.06,0,2
15253.609,0.093,0.412,0.878,-1.07,-3.11,3.75,0,2
15253.625,0.091,0.415,0.879,-2.72,-3.36,2.81,0,2
15253.64,0.095,0.413,0.883,-4.18,-3.78,1.8,0,2
15253.64,0.094,0.421,0.886,-5.04,-3.69,1.22,0,2
15253.656,0.091,0.424,0.886,-5.28,-3.54,0.76,0,2
15253.671,0.087,0.416,0.889,-4.58,-3.36,0.82,0,2
15253.671,0.085,0.414,0.889,-3.2,-3.42,1.13,0,2
15253.687,0.09,0.416,0.887,-2.29,-3.42,1.37,0,2
15253.687,0.083,0.413,0.886,-1.98,-3.39,1.19,0,2
15253.703,0.079,0.407,0.886,-2.26,-4.03,0.31,0,2
15253.718,0.08,0.41,0.886,-3.33,-4.88,-0.37,0,2
15253.718,0.072,0.413,0.887,-4.06,-5.52,-0.7,0,2
15253.734,0.071,0.406,0.892,-4.55,-6.62,-0.85,0,2
15253.75,0.069,0.396,0.893,-4.67,-8.09,-1.34,0,2
15253.75,0.073,0.393,0.886,-3.78,-8.67,-1.1,0,2
15253.781,0.092,0.387,0.877,-0.92,-5.95,0.7,0,2
15253.781,0.103,0.381,0.866,0.92,-4.58,0.55,0,2
15253.796,0.107,0.382,0.856,3.05,-3.72,-0.21,0,2
15253.796,0.106,0.385,0.844,4.39,-3.3,-1.25,0,2
15253.812,0.109,0.383,0.829,4.52,-3.54,-2.93,0,2
15253.828,0.109,0.386,0.817,3.42,-3.72,-4.79,0,2
15253.828,0.11,0.38,0.807,1.04,-3.85,-6.68,0,2
15253.843,0.11,0.374,0.796,-2.26,-4.03,-8.85,0,2
15253.859,0.111,0.369,0.784,-5.13,-3.42,-10.86,0,2
15253.859,0.113,0.36,0.772,-7.87,-1.65,-12.09,0,2
15253.875,0.13,0.35,0.759,-10.32,1.37,-12.48,0,2
15253.89,0.144,0.345,0.746,-10.25,6.07,-13.21,0,2
15253.89,0.15,0.33,0.733,-6.99,12.57,-14.04,0,2
15253.906,0.165,0.325,0.719,-1.71,21.06,-14.47,0,2
15253.906,0.17,0.319,0.696,6.65,33.81,-15.78,0,2
15253.921,0.134,0.334,0.692,14.71,49.38,-19.87,0,2
15253.937,0.015,0.465,0.796,15.08,76.33,-27.59,0,2
15253.953,-0.164,0.521,0.978,4.27,79.17,-27.28,0,2
15253.968,-0.407,0.757,1.456,-32.01,52.58,-17.15,0,2
15253.968,-0.328,0.91,1.654,-69.95,-5.19,3.6,0,2
15253.984,-0.097,0.573,1.407,-69.8,-46.63,14.65,0,2
15254.0,0.014,0.296,1.181,-44.53,-49.04,12.63,0,2
15254.0,0.1,0.29,1.057,-11.14,-29.27,4.88,0,2
15254.015,0.063,0.346,0.998,25.27,-3.3,-1.31,0,2
15254.031,0.027,0.401,0.975,51.94,13.82,-2.81,0,2
15254.031,0.009,0.47,0.959,62.72,17.91,-1.34,0,2
15254.046,-0.007,0.506,0.927,57.92,12.15,2.01,0,2
15254.062,-0.016,0.524,0.918,39.89,0.82,5.62,0,2
15254.062,0.046,0.536,0.891,14.92,-12.94,8.67,0,2
15254.078,0.083,0.405,0.813,-0.67,-17.7,7.2,0,2
15254.078,0.042,0.407,0.857,-10.04,-16.11,4.33,0,2
15254.093,0.071,0.459,0.902,-11.41,-17.79,5.86,0,2
15254.109,0.066,0.387,0.885,-8.85,-13.95,3.05,0,2
15254.125,0.057,0.413,0.883,-8.58,-11.75,3.02,0,2
15254.14,0.049,0.402,0.884,-9.0,-9.77,3.3,0,2
15254.14,0.048,0.399,0.884,-7.6,-8.27,4.09,0,2
15254.156,0.053,0.401,0.889,-5.74,-6.62,4.58,0,2
15254.171,0.054,0.398,0.889,-3.69,-5.1,4.58,0,2
15254.171,0.057,0.402,0.892,-1.53,-3.91,4.06,0,2
15254.187,0.05,0.414,0.896,0.0,-3.3,3.78,0,2
15254.187,0.043,0.425,0.896,-0.37,-4.06,3.69,0,2
15254.203,0.047,0.423,0.891,-1.65,-5.46,3.78,0,2
15254.218,0.048,0.419,0.891,-2.72,-6.53,3.94,0,2
15254.218,0.05,0.418,0.89,-3.36,-7.45,4.03,0,2
15254.234,0.055,0.408,0.887,-3.45,-8.09,4.18,0,2
15254.25,0.063,0.401,0.887,-3.11,-7.72,4.3,0,2
15254.25,0.067,0.399,0.887,-2.32,-6.47,3.72,0,2
15254.265,0.061,0.402,0.889,-1.19,-5.22,2.81,0,2
15254.281,0.057,0.408,0.892,0.06,-4.82,2.5,0,2
15254.281,0.059,0.417,0.892,0.79,-5.31,2.56,0,2
15254.296,0.061,0.426,0.889,0.95,-5.55,2.56,0,2
15254.312,0.059,0.434,0.89,0.43,-4.94,2.23,0,2
15254.312,0.059,0.435,0.893,-0.49,-4.58,2.38,0,2
15254.328,0.061,0.432,0.897,-1.13,-4.58,3.23,0,2
15254.328,0.066,0.426,0.899,-1.13,-4.46,4.0,0,2
15254.343,0.067,0.42,0.904,-0.79,-4.0,3.94,0,2
15254.359,0.066,0.416,0.905,-0.24,-3.91,3.69,0,2
15254.359,0.065,0.414,0.91,0.15,-4.3,3.94,0,2
15254.375,0.068,0.412,0.909,0.67,-5.16,4.21,0,2
15254.39,0.076,0.411,0.902,0.98,-5.86,4.03,0,2
15254.39,0.08,0.412,0.895,0.64,-5.77,3.63,0,2
15254.406,0.079,0.408,0.89,0.06,-5.01,3.05,0,2
15254.421,0.081,0.407,0.889,-0.4,-3.81,2.66,0,2
15254.421,0.081,0.407,0.896,-1.16,-2.35,2.35,0,2
15254.437,0.078,0.406,0.904,-2.08,-1.28,1.65,0,2
15254.437,0.077,0.4,0.917,-2.87,-0.98,1.4,0,2
15254.453,0.072,0.394,0.929,-3.94,-1.86,1.71,0,2
15254.468,0.078,0.384,0.929,-3.39,-3.39,1.86,0,2
15254.468,0.078,0.376,0.923,-1.46,-4.61,1.68,0,2
15254.484,0.078,0.375,0.923,0.67,-5.43,1.83,0,2
15254.5,0.077,0.37,0.917,2.72,-6.1,2.01,0,2
15254.5,0.085,0.371,0.91,4.21,-6.71,1.89,0,2
15254.515,0.086,0.376,0.907,5.19,-6.32,1.04,0,2
15254.531,0.081,0.385,0.909,4.91,-5.77,-0.21,0,2
15254.531,0.083,0.389,0.912,3.97,-5.65,-1.16,0,2
15254.546,0.081,0.392,0.913,3.39,-5.55,-1.68,0,2
15254.546,0.078,0.394,0.916,3.39,-5.89,-1.71,0,2
15254.562,0.069,0.401,0.921,3.23,-6.35,-1.65,0,2
15254.578,0.06,0.41,0.933,2.75,-6.41,-1.68,0,2
15254.578,0.052,0.412,0.944,2.17,-6.78,-1.65,0,2
15254.593,0.048,0.423,0.956,1.46,-7.42,-1.86,0,2
15254.609,0.048,0.432,0.964,1.43,-8.27,-1.98,0,2
15254.609,0.047,0.443,0.971,2.32,-9.4,-1.92,0,2
15254.64,0.062,0.447,0.976,7.93,-11.47,0.27,0,2
15254.64,0.075,0.449,0.972,12.18,-11.84,1.62,0,2
15254.656,0.085,0.452,0.968,16.48,-11.57,3.23,0,2
15254.656,0.094,0.454,0.972,20.33,-10.83,4.46,0,2
15254.671,0.112,0.455,0.979,24.29,-10.13,5.34,0,2
15254.687,0.137,0.453,0.981,28.96,-9.7,6.2,0,2
15254.687,0.168,0.472,0.982,33.57,-9.46,6.99,0,2
15254.703,0.192,0.495,0.975,37.42,-9.19,6.87,0,2
15254.718,0.208,0.512,0.967,39.67,-8.88,7.02,0,2
15254.718,0.227,0.534,0.96,39.89,-9.09,7.48,0,2
15254.734,0.24,0.552,0.952,38.0,-9.16,7.87,0,2
15254.75,0.245,0.564,0.953,34.79,-8.82,8.51,0,2
15254.75,0.248,0.575,0.954,30.24,-9.22,9.52,0,2
15254.765,0.253,0.588,0.96,25.24,-10.71,10.56,0,2
15254.781,0.253,0.599,0.963,20.54,-13.15,11.57,0,2
15254.781,0.248,0.615,0.957,14.62,-16.08,12.3,0,2
15254.812,0.222,0.626,0.941,-2.53,-19.26,12.63,0,2
15254.812,0.212,0.631,0.945,-12.57,-19.9,12.54,0,2
15254.828,0.207,0.626,0.953,-21.06,-20.23,12.91,0,2
15254.828,0.202,0.613,0.957,-25.7,-20.45,13.52,0,2
15254.843,0.203,0.592,0.961,-25.82,-20.29,14.74,0,2
15254.859,0.211,0.565,0.959,-22.8,-19.93,16.66,0,2
15254.875,0.227,0.539,0.945,-17.43,-18.77,18.46,0,2
15254.875,0.243,0.51,0.923,-10.8,-16.05,19.9,0,2
15254.89,0.258,0.475,0.898,-3.97,-11.6,20.33,0,2
15254.89,0.281,0.438,0.873,2.78,-5.16,19.78,0,2
15254.906,0.309,0.406,0.846,9.58,3.6,17.79,0,2
15254.921,0.339,0.384,0.809,16.66,14.22,13.58,0,2
15254.921,0.368,0.378,0.77,23.13,26.83,7.51,0,2
15254.937,0.355,0.393,0.737,28.47,41.41,0.0,0,2
15254.937,0.32,0.415,0.739,31.62,55.76,-4.94,0,2
15254.953,0.267,0.48,0.769,31.59,65.1,-5.55,0,2
15254.984,0.205,0.477,0.809,25.57,58.29,5.98,0,2
15254.984,0.201,0.472,0.811,24.32,47.4,9.34,0,2
15255.0,0.212,0.468,0.794,22.92,34.55,8.36,0,2
15255.0,0.217,0.493,0.752,19.38,22.86,4.18,0,2
15255.015,0.215,0.516,0.699,13.49,16.08,0.09,0,2
15255.031,0.208,0.511,0.663,5.55,15.63,-2.78,0,2
15255.031,0.211,0.498,0.641,-3.05,21.12,-5.62,0,2
15255.046,0.213,0.482,0.637,-10.93,31.28,-9.8,0,2
15255.046,0.214,0.464,0.64,-16.57,42.57,-15.44,0,2
15255.062,0.188,0.468,0.648,-19.71,54.26,-21.52,0,2
15255.078,0.143,0.521,0.715,-20.11,62.07,-24.72,0,2
15255.093,0.072,0.529,0.747,-30.85,45.44,-15.59,0,2
15255.093,0.027,0.495,0.797,-35.37,27.86,-8.91,0,2
15255.109,0.011,0.467,0.83,-38.45,8.91,-5.22,0,2
15255.109,0.012,0.438,0.811,-41.51,-7.39,-4.21,0,2
15255.125,0.005,0.407,0.784,-44.25,-18.68,-4.03,0,2
15255.14,0.004,0.375,0.716,-45.72,-26.49,-5.28,0,2
15255.156,-0.013,0.359,0.703,-45.08,-23.22,-6.07,0,2
15255.171,0.016,0.347,0.702,-45.47,-19.56,-4.46,0,2
15255.171,0.017,0.379,0.681,-42.88,-15.23,-4.85,0,2
15255.187,-0.005,0.35,0.662,-39.98,-11.11,-4.3,0,2
15255.187,-0.011,0.351,0.669,-40.07,-8.67,-2.69,0,2
15255.203,-0.011,0.348,0.665,-41.69,-7.42,-1.01,0,2
15255.218,-0.018,0.343,0.669,-45.72,-5.74,0.24,0,2
15255.218,-0.029,0.32,0.678,-51.39,-2.87,1.65,0,2
15255.234,-0.029,0.301,0.697,-59.14,1.13,0.95,0,2
15255.25,-0.007,0.295,0.719,-68.54,6.2,-2.32,0,2
15255.25,-0.021,0.291,0.749,-80.08,12.27,-8.15,0,2
15255.265,-0.061,0.289,0.793,-93.26,17.79,-14.34,0,2
15255.281,-0.101,0.28,0.85,-106.02,22.0,-17.49,0,2
15255.281,-0.128,0.255,0.913,-117.04,23.68,-17.33,0,2
15255.296,-0.135,0.231,0.983,-124.09,23.38,-16.02,0,2
15255.312,-0.137,0.153,1.071,-116.0,12.67,-14.07,0,2
15255.328,-0.105,0.126,1.085,-100.25,3.36,-13.98,0,2
15255.328,-0.062,0.132,1.08,-79.41,-5.55,-13.89,0,2
15255.343,-0.027,0.137,1.052,-58.47,-11.44,-14.5,0,2
15255.359,-0.026,0.165,1.022,-42.12,-11.32,-15.11,0,2
15255.375,-0.049,0.19,1.003,-32.04,-6.96,-15.26,0,2
15255.375,-0.069,0.195,1.007,-30.09,-0.76,-14.07,0,2
15255.39,-0.07,0.187,1.035,-32.44,5.19,-13.43,0,2
15255.39,-0.089,0.166,1.063,-34.12,8.61,-13.86,0,2
15255.406,-0.101,0.137,1.085,-33.23,6.93,-14.89,0,2
15255.406,-0.082,0.133,1.099,-30.03,2.08,-16.08,0,2
15255.421,-0.075,0.146,1.104,-25.36,-2.93,-16.05,0,2
15255.437,-0.058,0.139,1.106,-20.63,-7.66,-13.92,0,2
15255.437,-0.041,0.134,1.104,-16.54,-11.96,-11.35,0,2
15255.453,-0.004,0.135,1.102,-12.51,-16.82,-10.25,0,2
15255.468,0.02,0.14,1.098,-9.28,-20.45,-9.31,0,2
15255.468,0.034,0.15,1.106,-9.86,-21.49,-7.9,0,2
15255.484,0.029,0.139,1.113,-14.25,-21.49,-7.29,0,2
15255.5,0.044,0.115,1.115,-20.94,-23.07,-6.96,0,2
15255.5,0.046,0.112,1.112,-26.4,-24.02,-7.39,0,2
15255.515,0.049,0.093,1.133,-28.75,-25.3,-8.06,0,2
15255.531,0.048,0.096,1.158,-29.18,-28.6,-8.42,0,2
15255.531,0.042,0.091,1.169,-28.35,-33.66,-7.14,0,2
15255.546,0.049,0.083,1.181,-27.41,-37.72,-5.98,0,2
15255.546,0.053,0.066,1.199,-25.45,-41.51,-6.99,0,2
15255.562,0.061,0.06,1.198,-21.64,-47.61,-9.77,0,2
15255.578,0.072,0.051,1.179,-16.36,-54.35,-11.93,0,2
15255.578,0.094,0.055,1.151,-10.04,-58.23,-12.39,0,2
15255.593,0.094,0.06,1.096,-1.34,-58.29,-12.27,0,2
15255.609,0.089,0.038,1.045,9.19,-56.31,-12.18,0,2
15255.609,0.094,0.022,0.987,21.91,-55.36,-12.12,0,2
15255.625,0.13,0.027,0.905,38.33,-53.56,-11.87,0,2
15255.64,0.148,0.037,0.838,54.14,-47.03,-12.45,0,2
15255.64,0.132,0.072,0.799,63.84,-36.77,-13.06,0,2
15255.656,0.123,0.092,0.776,68.85,-26.76,-13.09,0,2
15255.656,0.089,0.1,0.74,69.64,-19.26,-13.12,0,2
15255.671,0.067,0.112,0.718,68.91,-14.65,-13.61,0,2
15255.687,0.06,0.113,0.692,68.06,-12.94,-14.47,0,2
15255.703,0.08,0.156,0.683,64.97,-12.36,-15.11,0,2
15255.703,0.088,0.188,0.662,58.9,-11.14,-15.81,0,2
15255.718,0.108,0.211,0.652,47.24,-9.28,-15.96,0,2
15255.718,0.133,0.259,0.66,30.21,-5.83,-15.59,0,2
15255.734,0.138,0.284,0.679,9.7,0.27,-14.37,0,2
15255.75,0.125,0.279,0.716,-12.21,7.23,-11.54,0,2
15255.75,0.113,0.269,0.763,-31.34,11.6,-7.66,0,2
15255.765,0.115,0.224,0.814,-44.53,13.55,-3.81,0,2
15255.765,0.13,0.218,0.862,-52.19,15.02,-0.79,0,2
15255.781,0.113,0.197,0.906,-56.31,17.43,1.4,0,2
15255.796,0.11,0.157,0.957,-58.08,18.77,3.63,0,2
15255.812,0.107,0.126,0.995,-55.91,19.53,5.43,0,2
15255.812,0.102,0.089,1.023,-49.53,19.41,6.35,0,2
15255.828,0.12,0.085,1.048,-39.52,18.62,6.04,0,2
15255.828,0.119,0.078,1.067,-28.5,19.35,5.55,0,2
15255.843,0.128,0.093,1.091,-20.26,20.87,4.7,0,2
15255.859,0.115,0.088,1.116,-14.34,22.55,3.51,0,2
15255.875,0.108,0.108,1.143,-10.35,22.71,2.87,0,2
15255.875,0.091,0.089,1.161,-6.35,20.45,3.05,0,2
15255.89,0.096,0.077,1.163,-0.64,14.95,2.59,0,2
15255.89,0.098,0.062,1.143,7.72,7.87,1.07,0,2
15255.906,0.131,0.081,1.113,15.56,2.11,-1.25,0,2
15255.906,0.124,0.112,1.085,19.5,0.79,-3.75,0,2
15255.921,0.121,0.126,1.066,18.4,0.18,-5.46,0,2
15255.937,0.116,0.144,1.054,15.41,0.21,-6.41,0,2
15255.937,0.105,0.151,1.041,11.72,0.0,-6.93,0,2
15255.953,0.115,0.154,1.032,8.73,-0.52,-6.65,0,2
15255.968,0.109,0.151,1.021,7.54,-0.12,-6.32,0,2
15255.968,0.123,0.165,1.015,7.05,-0.21,-6.44,0,2
15255.984,0.121,0.184,1.017,5.68,0.7,-6.56,0,2
15256.0,0.117,0.191,1.019,2.84,1.13,-6.47,0,2
15256.0,0.125,0.193,1.025,-0.09,1.28,-6.2,0,2
15256.015,0.124,0.184,1.027,-2.2,1.46,-5.77,0,2
15256.031,0.122,0.167,1.03,-2.78,0.92,-5.71,0,2
15256.031,0.12,0.155,1.028,-1.83,0.06,-6.32,0,2
15256.046,0.122,0.148,1.018,0.64,-1.37,-7.63,0,2
15256.046,0.128,0.155,1.003,4.24,-2.53,-9.43,0,2
15256.062,0.127,0.17,0.987,6.38,-1.59,-11.02,0,2
15256.078,0.125,0.188,0.981,4.61,-0.21,-10.96,0,2
15256.078,0.112,0.198,0.978,3.08,-0.12,-10.32,0,2
15256.093,0.105,0.192,0.977,1.77,-0.85,-9.28,0,2
15256.109,0.113,0.204,0.989,0.67,-2.11,-9.25,0,2
15256.109,0.11,0.21,0.991,-0.27,-3.36,-9.52,0,2
15256.125,0.102,0.204,0.99,-1.04,-3.97,-9.16,0,2
15256.14,0.097,0.21,0.991,-1.19,-5.04,-8.88,0,2
15256.14,0.098,0.206,0.985,0.0,-6.2,-8.3,0,2
15256.156,0.101,0.209,0.968,2.59,-5.49,-7.2,0,2
15256.171,0.097,0.216,0.961,3.75,-4.94,-6.87,0,2
15256.187,0.099,0.221,0.955,4.21,-4.46,-6.16,0,2
15256.187,0.101,0.23,0.959,3.54,-3.63,-5.31,0,2
15256.203,0.096,0.23,0.964,1.68,-2.93,-4.3,0,2
15256.218,0.09,0.226,0.972,-0.4,-2.99,-3.17,0,2
15256.218,0.094,0.213,0.974,-0.89,-3.81,-2.11,0,2
15256.234,0.1,0.217,0.97,0.18,-4.64,-1.1,0,2
15256.25,0.097,0.218,0.967,1.16,-5.58,-0.67,0,2
15256.25,0.092,0.211,0.961,1.74,-6.68,-0.21,0,2
15256.265,0.094,0.21,0.95,2.59,-8.15,0.27,0,2
15256.281,0.11,0.217,0.943,3.72,-8.73,1.16,0,2
15256.281,0.106,0.216,0.939,3.57,-7.57,2.59,0,2
15256.296,0.111,0.203,0.936,3.2,-6.65,3.6,0,2
15256.296,0.117,0.203,0.926,3.39,-6.53,3.85,0,2
15256.312,0.118,0.202,0.922,3.05,-6.07,3.57,0,2
15256.328,0.111,0.198,0.926,1.71,-4.94,3.51,0,2
15256.328,0.11,0.189,0.931,0.18,-4.03,3.88,0,2
15256.343,0.121,0.19,0.941,-0.89,-2.66,4.39,0,2
15256.359,0.117,0.185,0.957,-1.74,-1.04,4.43,0,2
15256.359,0.115,0.174,0.978,-2.41,-0.09,3.94,0,2
15256.375,0.115,0.173,0.997,-2.62,-0.06,3.23,0,2
15256.39,0.11,0.17,1.009,-2.32,-0.79,2.38,0,2
15256.39,0.113,0.164,1.019,-1.01,-2.14,1.59,0,2
15256.406,0.107,0.168,1.021,1.92,-3.51,0.98,0,2
15256.406,0.111,0.173,1.021,4.97,-4.88,0.21,0,2
15256.421,0.114,0.173,1.011,8.06,-5.98,-0.09,0,2
15256.437,0.11,0.181,0.996,10.19,-7.05,-0.21,0,2
15256.437,0.124,0.2,0.987,9.7,-7.75,-0.34,0,2
15256.453,0.127,0.206,0.979,7.14,-8.06,-0.55,0,2
15256.468,0.12,0.202,0.974,3.51,-8.09,-0.27,0,2
15256.468,0.11,0.204,0.973,-0.49,-8.45,0.12,0,2
15256.484,0.111,0.203,0.973,-4.15,-9.74,0.76,0,2
15256.5,0.129,0.209,0.972,-7.6,-10.41,2.01,0,2
15256.5,0.135,0.201,0.97,-9.8,-8.73,2.9,0,2
15256.515,0.135,0.185,0.978,-10.96,-6.9,3.27,0,2
15256.531,0.134,0.188,0.991,-11.05,-6.78,3.54,0,2
15256.531,0.134,0.184,0.995,-10.5,-7.66,3.57,0,2
15256.546,0.128,0.177,0.999,-11.11,-8.7,3.6,0,2
15256.562,0.13,0.19,1.008,-12.12,-10.13,2.87,0,2
15256.562,0.12,0.197,1.019,-13.79,-11.75,2.29,0,2
15256.578,0.132,0.197,1.027,-16.63,-13.21,2.93,0,2
15256.578,0.126,0.186,1.026,-18.16,-13.76,3.42,0,2
15256.593,0.129,0.157,1.014,-16.88,-14.04,4.21,0,2
15256.609,0.136,0.147,1.001,-12.54,-13.7,4.76,0,2
15256.609,0.143,0.13,0.987,-5.83,-13.15,4.73,0,2
15256.625,0.151,0.134,0.96,1.37,-12.15,4.06,0,2
15256.625,0.165,0.144,0.938,7.05,-9.55,3.72,0,2
15256.64,0.171,0.162,0.92,9.31,-5.43,3.48,0,2
15256.656,0.151,0.158,0.905,7.78,-1.34,3.02,0,2
15256.671,0.151,0.159,0.906,3.75,1.22,2.62,0,2
15256.671,0.138,0.146,0.91,-0.31,2.5,1.83,0,2
15256.687,0.146,0.132,0.91,-3.39,2.35,1.01,0,2
15256.703,0.147,0.137,0.915,-5.83,2.53,-0.06,0,2
15256.703,0.134,0.135,0.916,-7.78,2.17,-1.5,0,2
15256.718,0.144,0.14,0.921,-10.56,1.68,-1.74,0,2
15256.718,0.146,0.154,0.949,-13.52,1.8,-1.98,0,2
15256.734,0.098,0.145,0.979,-15.41,0.27,-2.08,0,2
15256.75,0.116,0.131,0.965,-16.17,-3.11,-0.24,0,2
15256.75,0.137,0.122,0.959,-14.98,-5.07,-0.24,0,2
15256.765,0.131,0.119,0.951,-11.54,-5.34,-2.04,0,2
15256.781,0.127,0.139,0.953,-8.73,-4.0,-2.44,0,2
15256.781,0.107,0.141,0.96,-7.57,-2.5,-1.95,0,2
15256.796,0.096,0.144,0.974,-7.78,-3.14,-0.55,0,2
15256.796,0.102,0.134,0.97,-7.45,-4.76,0.85,0,2
15256.812,0.109,0.126,0.962,-6.07,-5.77,1.77,0,2
15256.828,0.119,0.119,0.958,-3.69,-6.04,2.5,0,2
15256.828,0.125,0.11,0.95,-0.89,-5.34,2.66,0,2
15256.859,0.149,0.137,0.951,-0.31,-2.08,1.83,0,2
15256.859,0.138,0.126,0.954,-3.08,-0.21,1.62,0,2
15256.875,0.138,0.12,0.959,-5.68,0.98,2.32,0,2
15256.89,0.13,0.111,0.969,-7.11,1.68,2.38,0,2
15256.89,0.122,0.108,0.99,-8.67,1.01,2.01,0,2
15256.906,0.128,0.112,0.992,-10.01,-0.58,1.86,0,2
15256.906,0.131,0.097,0.996,-9.92,-1.74,1.4,0,2
15256.921,0.12,0.1,1.005,-10.5,-3.39,0.7,0,2
15256.937,0.133,0.094,1.008,-10.5,-5.43,0.79,0,2
15256.937,0.15,0.087,1.013,-9.61,-6.71,1.01,0,2
15256.953,0.164,0.082,1.012,-7.78,-7.14,1.01,0,2
15256.968,0.165,0.074,1.009,-5.62,-6.56,0.79,0,2
15256.984,0.18,0.071,1.007,-3.27,-6.38,-0.12,0,2
15256.984,0.186,0.084,1.009,-0.89,-6.07,-1.01,0,2
15257.0,0.178,0.103,1.013,-0.06,-5.34,-1.65,0,2
15257.0,0.182,0.11,1.026,-1.1,-4.18,-1.25,0,2
15257.015,0.133,0.107,1.031,-2.08,-2.5,-0.43,0,2
15257.031,0.139,0.105,1.019,-0.03,-3.6,-0.27,0,2
15257.046,0.146,0.115,1.011,5.49,-7.29,-1.19,0,2
15257.046,0.137,0.127,1.005,4.52,-9.43,-0.15,0,2
15257.062,0.153,0.144,1.004,1.68,-10.68,0.15,0,2
15257.078,0.161,0.148,0.997,-1.83,-10.96,0.61,0,2
15257.078,0.151,0.143,1.01,-5.31,-10.96,1.74,0,2
15257.093,0.156,0.135,1.025,-8.48,-11.99,1.62,0,2
15257.109,0.154,0.119,1.024,-8.64,-13.76,0.79,0,2
15257.109,0.15,0.108,1.002,-5.62,-15.75,1.1,0,2
15257.125,0.163,0.108,0.978,-1.4,-16.66,1.68,0,2
15257.14,0.171,0.117,0.967,2.93,-16.48,1.5,0,2
15257.14,0.174,0.12,0.953,4.64,-16.27,1.98,0,2
15257.156,0.191,0.123,0.951,3.48,-16.05,2.35,0,2
15257.171,0.197,0.137,0.965,-0.03,-15.26,1.95,0,2
15257.171,0.204,0.138,0.981,-4.27,-13.67,1.95,0,2
15257.187,0.206,0.122,0.981,-6.87,-10.65,1.59,0,2
15257.187,0.188,0.105,0.987,-8.18,-7.26,0.46,0,2
15257.203,0.204,0.094,0.978,-6.2,-6.23,-1.77,0,2
15257.218,0.198,0.099,0.95,-0.82,-6.44,-5.22,0,2
15257.218,0.193,0.112,0.924,5.65,-6.16,-6.32,0,2
15257.234,0.207,0.139,0.909,9.28,-3.81,-5.34,0,2
15257.25,0.213,0.153,0.913,7.32,0.21,-3.97,0,2
15257.25,0.195,0.144,0.949,0.58,4.49,-3.05,0,2
15257.265,0.179,0.13,0.985,-6.84,6.16,-2.41,0,2
15257.281,0.187,0.12,0.984,-10.07,6.96,-1.56,0,2
15257.281,0.165,0.113,0.993,-9.92,8.55,-1.86,0,2
15257.296,0.151,0.122,1.005,-8.61,6.9,-3.14,0,2
15257.296,0.153,0.13,0.992,-5.31,3.6,-2.75,0,2
15257.312,0.157,0.12,0.974,-2.17,-0.55,-1.74,0,2
15257.328,0.165,0.109,0.952,-0.49,-5.49,-1.65,0,2
15257.328,0.172,0.1,0.933,0.27,-8.82,-1.56,0,2
15257.343,0.182,0.093,0.909,1.59,-9.61,-0.73,0,2
15257.359,0.198,0.099,0.881,2.5,-7.54,-0.06,0,2
15257.359,0.198,0.093,0.871,2.35,-3.02,-0.34,0,2
15257.375,0.195,0.1,0.885,0.95,1.16,-0.49,0,2
15257.39,0.185,0.111,0.919,-1.98,3.78,-0.12,0,2
15257.39,0.183,0.108,0.959,-5.37,4.55,1.1,0,2
15257.406,0.193,0.113,0.993,-7.63,3.75,2.69,0,2
15257.421,0.187,0.099,1.021,-7.69,0.7,3.36,0,2
15257.421,0.193,0.093,1.024,-5.01,-4.15,2.96,0,2
15257.437,0.184,0.081,1.021,-0.89,-8.94,2.04,0,2
15257.453,0.199,0.096,1.0,2.75,-12.76,1.01,0,2
15257.453,0.215,0.105,0.975,4.49,-13.7,-0.46,0,2
15257.468,0.222,0.106,0.966,3.14,-12.24,-1.37,0,2
15257.468,0.23,0.118,0.971,0.31,-9.19,-1.25,0,2
15257.484,0.233,0.118,0.978,-2.59,-5.77,-1.19,0,2
15257.5,0.242,0.124,0.991,-4.67,-2.23,-2.04,0,2
15257.5,0.22,0.121,1.012,-4.67,1.98,-3.33,0,2
15257.515,0.198,0.109,1.03,-2.66,4.55,-3.45,0,2
15257.531,0.191,0.112,1.024,0.12,3.72,-3.23,0,2
15257.531,0.204,0.107,1.013,3.02,1.31,-3.51,0,2
15257.546,0.197,0.116,1.005,5.1,-0.79,-3.78,0,2
15257.546,0.196,0.124,0.995,5.19,-2.69,-3.11,0,2
15257.562,0.194,0.127,0.987,3.2,-4.91,-2.35,0,2
15257.578,0.198,0.124,0.978,0.64,-6.71,-2.32,0,2
15257.578,0.199,0.121,0.978,-1.59,-6.84,-2.11,0,2
15257.593,0.2,0.122,0.98,-3.11,-5.77,-1.13,0,2
15257.609,0.209,0.115,0.979,-4.36,-4.09,0.0,0,2
15257.609,0.212,0.106,0.979,-5.92,-1.1,1.01,0,2
15257.625,0.208,0.084,0.988,-7.02,2.14,1.56,0,2
15257.64,0.198,0.072,1.001,-7.78,4.27,1.43,0,2
15257.64,0.192,0.063,1.013,-7.97,4.0,0.73,0,2
15257.656,0.2,0.062,1.017,-7.57,2.08,0.7,0,2
15257.656,0.202,0.061,1.01,-5.92,1.07,0.73,0,2
15257.671,0.193,0.052,1.01,-3.78,-0.09,0.37,0,2
15257.687,0.192,0.045,0.997,-0.15,-2.35,-0.18,0,2
15257.687,0.182,0.05,0.979,4.33,-4.06,-1.37,0,2
15257.703,0.178,0.05,0.946,8.91,-4.79,-2.47,0,2
15257.718,0.172,0.061,0.923,11.87,-3.63,-3.23,0,2
15257.718,0.161,0.071,0.925,12.09,-2.35,-3.36,0,2
15257.734,0.159,0.092,0.921,9.03,-2.84,-2.81,0,2
15257.75,0.163,0.101,0.921,5.07,-3.6,-1.83,0,2
15257.75,0.161,0.106,0.932,0.73,-3.36,0.55,0,2
15257.765,0.157,0.102,0.936,-2.08,-2.32,3.63,0,2
15257.765,0.196,0.113,0.939,-2.35,-0.79,4.36,0,2
15257.781,0.179,0.111,0.955,-1.68,1.71,3.81,0,2
15257.796,0.19,0.13,0.976,-0.98,4.03,5.68,0,2
15257.796,0.226,0.148,0.993,-0.15,6.71,6.32,0,2
15257.812,0.22,0.14,1.02,-0.58,10.56,5.01,0,2
15257.828,0.198,0.143,1.065,-1.4,11.6,3.66,0,2
15257.828,0.195,0.146,1.074,-0.15,9.09,2.41,0,2
15257.843,0.18,0.133,1.064,2.38,6.44,0.18,0,2
15257.859,0.173,0.129,1.04,6.81,3.54,-2.69,0,2
15257.859,0.179,0.14,1.006,11.47,0.79,-5.65,0,2
15257.875,0.191,0.153,0.982,14.22,0.21,-7.81,0,2
15257.89,0.202,0.164,0.951,14.59,1.56,-8.15,0,2
15257.89,0.216,0.159,0.938,11.99,4.0,-7.08,0,2
15257.906,0.215,0.158,0.946,6.23,7.17,-5.34,0,2
15257.921,0.198,0.153,0.949,0.67,9.86,-3.45,0,2
15257.921,0.178,0.128,0.941,-1.07,12.27,-1.16,0,2
15257.937,0.168,0.108,0.954,-2.17,12.6,1.4,0,2
15257.937,0.169,0.096,0.957,-2.59,10.71,2.08,0,2
15257.953,0.182,0.093,0.968,-3.78,8.64,1.31,0,2
15257.968,0.181,0.102,0.986,-5.58,7.81,1.46,0,2
15257.968,0.175,0.093,0.985,-6.53,6.56,1.25,0,2
15257.984,0.172,0.073,0.981,-5.43,4.82,0.58,0,2
15258.0,0.165,0.067,0.984,-2.32,3.45,-0.24,0,2
15258.0,0.151,0.072,0.971,2.08,1.74,-1.86,0,2
15258.015,0.147,0.077,0.953,6.41,0.06,-3.63,0,2
15258.031,0.151,0.105,0.944,9.06,0.46,-4.94,0,2
15258.031,0.161,0.129,0.947,9.16,3.72,-4.39,0,2
15258.046,0.168,0.132,0.93,12.33,10.35,-3.91,0,2
15258.046,0.17,0.115,0.897,16.33,19.81,-3.78,0,2
15258.062,0.129,0.099,0.887,19.2,29.69,-3.05,0,2
15258.078,0.102,0.112,0.89,21.42,38.79,-2.96,0,2
15258.078,0.089,0.129,0.917,20.36,47.73,-0.89,0,2
15258.093,0.082,0.155,0.953,15.35,55.12,2.38,0,2
15258.109,0.098,0.169,0.975,6.96,61.19,6.71,0,2
15258.109,0.077,0.166,1.027,-2.47,65.92,11.75,0,2
15258.125,0.063,0.133,1.069,-10.68,65.77,17.55,0,2
15258.14,0.054,0.101,1.125,-16.66,60.79,22.46,0,2
15258.14,0.046,0.087,1.162,-19.23,51.18,24.72,0,2
15258.156,0.061,0.057,1.163,-18.68,39.12,25.09,0,2
15258.156,0.077,0.035,1.14,-15.56,27.83,22.86,0,2
15258.171,0.102,0.011,1.113,-9.34,20.2,19.56,0,2
15258.187,0.12,0.03,1.084,-0.52,16.45,15.35,0,2
15258.187,0.114,0.064,1.054,8.7,16.33,11.47,0,2
15258.203,0.107,0.092,1.024,16.3,16.14,7.2,0,2
15258.218,0.087,0.148,1.013,21.64,14.47,3.78,0,2
15258.218,0.052,0.219,1.007,25.24,11.9,3.42,0,2
15258.234,0.017,0.246,0.987,25.76,6.53,5.19,0,2
15258.25,0.002,0.267,0.961,22.61,-0.82,6.04,0,2
15258.25,-0.003,0.288,0.947,18.8,-6.78,6.5,0,2
15258.265,-0.018,0.251,0.926,14.13,-11.57,6.65,0,2
15258.281,-0.014,0.228,0.895,7.81,-14.83,5.83,0,2
15258.281,0.0,0.233,0.901,2.87,-14.77,7.42,0,2
15258.296,-0.025,0.215,0.955,-0.95,-15.41,9.77,0,2
15258.296,-0.027,0.213,0.983,-5.19,-21.21,13.31,0,2
15258.312,-0.022,0.145,0.958,-5.71,-27.71,15.84,0,2
15258.328,-0.022,0.105,0.944,-2.23,-33.69,14.59,0,2
15258.343,-0.017,0.091,0.926,4.3,-39.58,11.81,0,2
15258.343,-0.006,0.089,0.946,11.69,-43.86,9.22,0,2
15258.359,0.035,0.11,0.942,15.99,-46.24,7.29,0,2
15258.359,0.078,0.107,0.882,18.4,-40.71,5.89,0,2
15258.375,0.094,0.1,0.863,18.4,-28.17,3.17,0,2
15258.39,0.09,0.115,0.876,14.74,-14.59,-0.89,0,2
15258.39,0.085,0.138,0.893,8.67,-2.69,-4.43,0,2
15258.406,0.07,0.156,0.924,3.54,6.59,-7.11,0,2
15258.406,0.06,0.177,0.941,1.4,11.9,-7.42,0,2
15258.421,0.072,0.187,0.957,-0.7,15.38,-4.67,0,2
15258.437,0.064,0.175,0.983,-3.85,17.64,-1.92,0,2
15258.437,0.077,0.147,1.011,-6.5,15.9,-0.46,0,2
15258.453,0.095,0.109,1.021,-6.35,13.52,-0.4,0,2
15258.468,0.108,0.061,1.013,-2.41,11.72,-1.53,0,2
15258.484,0.132,0.055,0.999,3.66,10.65,-2.9,0,2
15258.484,0.15,0.07,0.984,9.43,12.7,-4.7,0,2
15258.5,0.142,0.09,0.971,12.09,16.39,-6.68,0,2
15258.5,0.125,0.116,0.97,11.54,17.61,-8.15,0,2
15258.515,0.113,0.138,0.973,9.67,17.3,-8.76,0,2
15258.531,0.096,0.156,0.986,6.9,16.42,-8.76,0,2
15258.531,0.093,0.176,1.013,3.27,14.59,-8.76,0,2
15258.546,0.084,0.191,1.037,-0.61,12.54,-8.73,0,2
15258.546,0.063,0.212,1.061,-4.79,10.04,-8.3,0,2
15258.562,0.05,0.219,1.075,-9.58,5.86,-6.84,0,2
15258.578,0.046,0.208,1.069,-11.66,0.7,-5.16,0,2
15258.578,0.066,0.208,1.054,-8.51,-3.88,-3.54,0,2
15258.593,0.075,0.216,1.024,-1.16,-6.35,-2.59,0,2
15258.609,0.087,0.231,0.998,7.35,-7.17,-1.43,0,2
15258.609,0.082,0.247,0.963,14.95,-6.32,0.24,0,2
15258.625,0.072,0.276,0.93,19.59,-4.67,2.87,0,2
15258.64,0.042,0.288,0.898,21.64,-2.78,5.86,0,2
15258.64,0.018,0.293,0.862,21.33,-1.53,8.7,0,2
15258.656,0.027,0.288,0.844,19.29,0.31,11.32,0,2
15258.656,0.074,0.283,0.845,15.47,4.3,13.76,0,2
15258.671,0.088,0.289,0.864,6.87,12.09,15.32,0,2
15258.687,0.071,0.269,0.889,-6.74,19.35,14.77,0,2
15258.703,0.071,0.243,0.92,-24.08,24.35,14.37,0,2
15258.703,0.041,0.248,0.966,-41.81,27.8,14.07,0,2
15258.718,-0.003,0.21,1.013,-55.79,28.53,14.74,0,2
15258.718,-0.026,0.157,1.058,-63.66,25.03,17.67,0,2
15258.734,-0.012,0.125,1.082,-61.68,18.49,20.69,0,2
15258.75,0.014,0.077,1.079,-50.97,11.99,22.28,0,2
15258.75,0.029,0.052,1.085,-37.87,9.09,22.71,0,2
15258.765,0.049,0.035,1.085,-23.22,8.21,20.39,0,2
15258.781,0.042,0.027,1.06,-7.05,8.45,16.51,0,2
15258.781,0.033,0.051,1.023,9.4,8.58,12.91,0,2
15258.796,0.029,0.086,0.979,23.35,10.13,11.02,0,2
15258.796,0.023,0.133,0.947,31.04,15.11,10.86,0,2
15258.812,0.034,0.169,0.936,31.4,21.24,11.41,0,2
15258.828,0.035,0.178,0.937,27.41,29.15,11.9,0,2
15258.828,-0.001,0.165,0.951,21.64,36.9,12.24,0,2
15258.843,-0.025,0.158,0.991,15.84,39.95,11.66,0,2
15258.859,-0.045,0.163,1.024,12.05,37.45,11.32,0,2
15258.859,-0.067,0.151,1.042,8.55,31.43,14.07,0,2
15258.875,-0.063,0.16,1.053,5.83,24.63,17.49,0,2
15258.89,-0.061,0.171,1.029,3.51,16.85,18.59,0,2
15258.89,-0.051,0.176,1.006,-1.34,11.41,19.53,0,2
15258.906,-0.04,0.181,0.993,-8.88,10.5,20.23,0,2
15258.906,-0.035,0.171,0.992,-19.93,11.44,19.41,0,2
15258.921,-0.026,0.133,0.993,-33.97,10.38,16.6,0,2
15258.937,-0.028,0.087,1.004,-47.46,7.93,11.57,0,2
15258.937,-0.047,0.028,1.013,-55.15,4.7,5.19,0,2
15258.953,-0.022,-0.016,1.015,-58.35,0.64,-1.71,0,2
15258.968,0.029,-0.024,0.992,-55.33,-2.44,-8.33,0,2
15258.968,0.047,-0.01,0.948,-46.66,-0.79,-12.82,0,2
15258.984,0.049,0.007,0.936,-36.01,8.27,-14.37,0,2
15259.0,0.017,0.031,0.964,-24.17,21.82,-14.13,0,2
15259.0,-0.028,0.061,1.014,-14.07,32.29,-11.38,0,2
15259.015,-0.046,0.057,1.065,-2.2,36.5,-2.87,0,2
15259.031,-0.03,0.067,1.092,-5.31,25.64,-0.37,0,2
15259.031,-0.023,0.114,1.08,-15.47,8.88,2.04,0,2
15259.046,-0.027,0.13,1.019,-30.52,-6.56,3.72,0,2
15259.046,-0.015,0.126,1.01,-46.24,-15.87,3.33,0,2
15259.062,-0.02,0.106,1.01,-57.89,-16.72,0.98,0,2
15259.078,-0.039,0.06,1.044,-61.25,-10.44,-0.61,0,2
15259.093,-0.033,0.015,1.086,-53.96,-1.92,-0.79,0,2
15259.093,-0.025,-0.014,1.107,-36.35,5.49,-1.19,0,2
15259.109,-0.034,-0.04,1.118,-13.89,10.93,-0.4,0,2
15259.109,-0.003,-0.017,1.105,7.2,12.6,0.92,0,2
15259.125,0.001,0.041,1.064,23.83,10.99,1.53,0,2
15259.14,-0.019,0.082,1.012,33.75,9.03,3.05,0,2
15259.14,-0.049,0.112,0.984,34.97,9.03,5.58,0,2
15259.156,-0.066,0.125,0.974,29.02,9.92,8.45,0,2
15259.156,-0.054,0.117,0.979,18.98,10.9,9.31,0,2
15259.171,-0.047,0.091,0.996,8.7,11.44,7.97,0,2
15259.187,-0.031,0.065,1.025,2.38,10.8,5.74,0,2
15259.187,-0.02,0.056,1.029,1.86,9.03,3.23,0,2
15259.203,-0.025,0.074,1.015,3.81,6.96,1.16,0,2
15259.218,-0.027,0.095,1.003,7.05,6.38,0.61,0,2
15259.218,-0.045,0.1,0.996,10.44,6.78,2.53,0,2
15259.234,-0.059,0.095,1.003,14.56,7.23,6.93,0,2
15259.25,-0.072,0.073,1.013,20.94,6.93,11.9,0,2
15259.25,-0.075,0.051,1.023,27.59,5.1,15.81,0,2
15259.265,-0.063,0.031,1.031,33.72,3.17,17.61,0,2
15259.281,-0.057,0.016,1.03,39.49,2.29,17.18,0,2
15259.281,-0.055,0.026,1.026,43.64,1.86,14.68,0,2
15259.296,-0.037,0.064,1.006,43.98,-0.64,9.7,0,2
15259.296,-0.021,0.111,0.959,39.64,-4.67,4.0,0,2
15259.312,-0.024,0.163,0.918,30.98,-8.61,0.12,0,2
15259.328,-0.045,0.205,0.895,19.38,-11.05,-1.68,0,2
15259.328,-0.056,0.222,0.894,5.22,-12.76,-1.01,0,2
15259.343,-0.067,0.194,0.913,-6.87,-12.05,1.71,0,2
15259.359,-0.059,0.138,0.958,-12.36,-9.67,5.89,0,2
15259.359,-0.037,0.071,1.001,-8.36,-7.08,8.88,0,2
15259.375,-0.011,0.014,1.032,3.05,-4.67,10.59,0,2
15259.375,0.001,0.005,1.04,18.37,-3.05,10.99,0,2
15259.39,0.0,0.043,1.021,31.22,-3.75,10.04,0,2
15259.406,-0.0,0.082,0.986,38.27,-5.25,8.67,0,2
15259.406,-0.009,0.137,0.949,36.84,-6.87,7.45,0,2
15259.421,-0.028,0.176,0.925,27.8,-8.82,6.16,0,2
15259.437,-0.03,0.181,0.926,14.07,-10.62,4.91,0,2
15259.437,-0.021,0.175,0.94,-1.13,-12.42,3.51,0,2
15259.453,-0.018,0.153,0.96,-11.6,-12.7,2.53,0,2
15259.468,-0.014,0.126,0.988,-16.42,-11.93,2.41,0,2
15259.468,-0.007,0.131,1.014,-15.87,-11.17,2.87,0,2
15259.484,-0.014,0.124,1.024,-11.75,-10.19,3.33,0,2
15259.5,-0.011,0.119,1.025,-9.03,-11.6,4.61,0,2
15259.5,-0.003,0.135,1.018,-6.71,-13.49,5.98,0,2
15259.515,0.008,0.14,0.999,-4.73,-15.23,7.14,0,2
15259.531,0.001,0.143,0.984,-3.66,-16.11,8.18,0,2
15259.531,0.003,0.129,0.976,-3.45,-15.53,8.91,0,2
15259.546,0.001,0.11,0.977,-3.42,-13.37,8.82,0,2
15259.546,0.0,0.099,0.991,-2.56,-10.13,8.18,0,2
15259.562,0.011,0.116,1.0,-2.32,-7.78,6.35,0,2
15259.578,0.007,0.124,1.001,-2.87,-7.11,4.61,0,2
15259.578,0.003,0.12,1.007,-3.91,-7.84,3.66,0,2
15259.593,-0.001,0.127,1.003,-5.86,-9.37,2.81,0,2
15259.609,-0.011,0.124,0.997,-8.64,-10.13,1.77,0,2
15259.609,-0.01,0.117,1.0,-11.23,-9.64,0.95,0,2
15259.625,-0.007,0.114,1.009,-12.73,-8.79,0.27,0,2
15259.64,-0.007,0.112,1.017,-12.39,-8.85,0.09,0,2
15259.64,-0.007,0.111,1.023,-10.19,-9.52,0.73,0,2
15259.656,-0.01,0.12,1.028,-6.96,-10.07,1.98,0,2
15259.656,-0.013,0.125,1.022,-3.81,-10.71,3.3,0,2
15259.671,-0.022,0.118,1.015,-0.43,-11.47,4.58,0,2
15259.687,-0.026,0.129,1.001,2.14,-12.12,5.55,0,2
15259.687,-0.011,0.137,0.985,2.5,-12.82,5.65,0,2
15259.703,0.001,0.141,0.97,1.25,-12.88,5.55,0,2
15259.718,0.002,0.146,0.964,-1.01,-12.18,5.55,0,2
15259.718,0.002,0.137,0.972,-3.3,-11.35,6.1,0,2
15259.734,0.003,0.129,0.987,-5.07,-10.71,6.38,0,2
15259.75,0.013,0.114,0.991,-5.62,-10.71,6.1,0,2
15259.75,0.014,0.108,0.994,-4.43,-10.74,6.23,0,2
15259.765,0.01,0.112,0.99,-2.29,-10.99,7.42,0,2
15259.765,0.018,0.112,0.984,-0.12,-11.51,8.97,0,2
15259.781,0.014,0.119,0.977,1.16,-12.18,9.49,0,2
15259.796,0.021,0.128,0.969,0.67,-12.97,9.28,0,2
15259.812,0.046,0.143,0.964,-1.31,-13.37,8.91,0,2
15259.812,0.053,0.159,0.961,-4.27,-13.03,9.0,0,2
15259.828,0.05,0.144,0.964,-7.6,-11.99,10.01,0,2
15259.828,0.054,0.122,0.974,-10.25,-10.71,11.29,0,2
15259.843,0.046,0.113,0.987,-11.44,-9.19,11.44,0,2
15259.859,0.047,0.097,0.996,-12.3,-8.09,10.77,0,2
15259.859,0.044,0.082,1.005,-12.33,-6.81,9.95,0,2
15259.875,0.04,0.079,1.012,-11.2,-6.32,8.73,0,2
15259.875,0.044,0.089,1.015,-9.49,-7.05,7.54,0,2
15259.89,0.038,0.091,1.01,-7.78,-9.0,7.39,0,2
15259.906,0.034,0.089,1.002,-7.08,-11.23,8.3,0,2
15259.906,0.039,0.074,0.992,-6.96,-13.0,9.58,0,2
15259.921,0.04,0.065,0.985,-5.65,-13.98,10.65,0,2
15259.937,0.044,0.072,0.978,-4.21,-13.86,10.71,0,2
15259.953,0.06,0.077,0.971,-3.94,-13.28,10.22,0,2
15259.953,0.063,0.083,0.967,-3.81,-11.87,10.01,0,2
15259.968,0.073,0.09,0.968,-4.15,-10.62,9.46,0,2
15259.968,0.073,0.09,0.967,-4.52,-9.31,8.36,0,2
15259.984,0.075,0.084,0.974,-5.49,-7.84,7.35,0,2
15260.0,0.065,0.073,0.983,-7.39,-5.86,6.84,0,2
15260.0,0.05,0.055,0.986,-6.96,-5.4,6.81,0,2
15260.015,0.038,0.04,0.993,-4.94,-5.19,6.68,0,2
15260.031,0.022,0.029,0.993,-1.59,-5.19,6.71,0,2
15260.031,0.012,0.024,0.989,3.69,-5.31,6.68,0,2
15260.046,0.018,0.031,0.987,11.2,-4.97,7.57,0,2
15260.046,0.014,0.042,0.985,19.99,-3.17,8.7,0,2
15260.062,0.026,0.062,0.983,26.37,-0.58,9.61,0,2
15260.078,0.041,0.079,0.974,28.93,1.8,9.58,0,2
15260.078,0.064,0.11,0.966,26.49,3.2,8.36,0,2
15260.093,0.076,0.143,0.954,18.83,3.17,6.2,0,2
15260.109,0.091,0.155,0.947,7.48,2.14,3.63,0,2
15260.125,0.113,0.159,0.95,-4.3,1.92,1.8,0,2
15260.125,0.104,0.139,0.956,-11.84,3.81,0.21,0,2
15260.14,0.094,0.105,0.973,-14.8,5.62,-0.85,0,2
15260.14,0.09,0.103,0.996,-13.0,7.97,-1.19,0,2
15260.156,0.069,0.097,1.009,-8.82,10.74,-0.37,0,2
15260.156,0.054,0.094,1.014,-3.78,12.88,1.25,0,2
15260.171,0.058,0.094,1.017,1.71,13.89,3.05,0,2
15260.187,0.05,0.096,1.001,7.26,13.67,4.97,0,2
15260.203,0.05,0.114,0.986,11.81,12.48,7.29,0,2
15260.203,0.063,0.135,0.965,14.28,10.71,9.13,0,2
15260.218,0.072,0.138,0.947,14.07,9.46,10.86,0,2
15260.218,0.082,0.143,0.94,10.62,9.67,11.75,0,2
15260.234,0.077,0.139,0.941,5.37,11.11,11.05,0,2
15260.25,0.066,0.132,0.951,-0.15,13.18,9.74,0,2
15260.265,0.057,0.117,0.967,-5.37,15.02,8.88,0,2
15260.265,0.044,0.107,0.979,-8.94,15.69,8.0,0,2
15260.265,0.032,0.1,0.988,-10.99,15.53,6.71,0,2
15260.281,0.033,0.09,0.992,-12.33,14.74,6.07,0,2
15260.296,0.041,0.104,0.995,-14.25,13.95,5.31,0,2
15260.296,0.057,0.104,1.002,-17.06,13.7,4.49,0,2
15260.312,0.055,0.086,1.015,-19.44,14.16,4.3,0,2
15260.328,0.065,0.067,1.032,-20.11,14.77,4.46,0,2
15260.328,0.053,0.046,1.036,-18.25,15.53,4.33,0,2
15260.343,0.035,0.035,1.041,-14.8,16.48,4.91,0,2
15260.359,0.015,0.053,1.038,-10.93,17.03,5.52,0,2
15260.359,-0.008,0.065,1.032,-7.54,17.4,6.62,0,2
15260.375,-0.017,0.085,1.031,-5.58,16.69,8.45,0,2
15260.39,-0.016,0.103,1.019,-3.91,15.41,10.32,0,2
15260.39,-0.021,0.112,1.007,-3.6,13.64,12.67,0,2
15260.406,-0.016,0.099,1.01,-4.12,10.96,15.2,0,2
15260.421,-0.01,0.083,1.01,-5.89,8.55,16.57,0,2
15260.421,-0.003,0.072,1.019,-8.03,7.23,15.75,0,2
15260.437,0.008,0.064,1.02,-10.01,6.53,12.54,0,2
15260.453,0.007,0.074,1.02,-12.27,6.41,8.61,0,2
15260.453,-0.006,0.09,1.037,-13.7,6.41,6.32,0,2
15260.468,-0.02,0.093,1.039,-14.4,4.67,5.89,0,2
15260.468,-0.022,0.099,1.043,-15.63,1.04,6.2,0,2
15260.484,-0.025,0.095,1.038,-15.11,-3.02,7.35,0,2
15260.5,-0.034,0.092,1.027,-14.07,-7.17,8.21,0,2
15260.5,-0.033,0.08,1.013,-13.49,-10.9,9.16,0,2
15260.515,-0.025,0.066,1.006,-12.97,-12.79,10.19,0,2
15260.531,-0.007,0.053,1.005,-12.57,-12.79,10.28,0,2
15260.531,0.02,0.044,1.007,-12.33,-11.32,9.13,0,2
15260.546,0.033,0.032,1.011,-11.11,-9.22,7.57,0,2
15260.546,0.027,0.031,1.012,-9.28,-8.42,6.62,0,2
15260.562,0.023,0.047,1.006,-8.15,-9.28,6.16,0,2
15260.578,0.013,0.056,0.998,-8.03,-10.77,6.5,0,2
15260.578,0.006,0.073,0.989,-9.37,-12.39,6.41,0,2
15260.593,0.006,0.077,0.977,-12.27,-13.31,5.37,0,2
15260.609,-0.008,0.072,0.973,-14.62,-12.57,4.91,0,2
15260.609,-0.006,0.068,0.984,-15.87,-11.02,5.49,0,2
15260.625,-0.001,0.04,0.996,-15.59,-9.52,7.17,0,2
15260.64,0.015,0.021,1.009,-13.89,-8.03,8.58,0,2
15260.656,0.018,0.012,1.014,-11.69,-6.84,8.67,0,2
15260.656,0.025,0.006,1.01,-10.28,-5.62,7.9,0,2
15260.656,0.027,0.002,1.006,-9.92,-4.39,7.08,0,2
15260.671,0.026,0.001,1.003,-9.89,-3.23,6.53,0,2
15260.687,0.029,0.001,1.003,-10.16,-2.59,6.04,0,2
15260.687,0.025,-0.009,1.002,-10.59,-2.9,5.55,0,2
15260.703,0.023,-0.01,1.0,-10.96,-3.36,5.28,0,2
15260.718,0.025,-0.006,0.996,-12.12,-4.27,4.21,0,2
15260.734,0.028,-0.004,0.996,-14.25,-4.43,3.02,0,2
15260.734,0.033,-0.017,0.995,-15.69,-3.69,2.59,0,2
15260.75,0.037,-0.032,1.005,-14.74,-2.32,2.59,0,2
15260.75,0.034,-0.036,1.009,-11.69,-0.76,2.41,0,2
15260.765,0.037,-0.034,1.008,-7.6,0.55,2.44,0,2
15260.765,0.042,-0.022,1.004,-3.3,1.77,2.62,0,2
15260.781,0.041,-0.01,0.998,0.49,3.05,3.14,0,2
15260.796,0.035,0.004,0.993,2.75,4.52,4.15,0,2
15260.812,0.032,0.015,0.99,2.84,5.74,4.91,0,2
15260.812,0.029,0.009,0.991,1.74,6.44,5.07,0,2
15260.828,0.023,0.008,0.992,0.82,6.78,4.97,0,2
15260.828,0.027,0.011,0.995,-0.73,6.87,3.88,0,2
15260.843,0.024,0.003,0.997,-3.11,5.95,1.95,0,2
15260.859,0.025,0.0,0.997,-5.55,5.04,0.24,0,2
15260.859,0.025,-0.004,0.998,-7.51,4.97,-0.52,0,2
15260.875,0.023,-0.011,0.996,-8.24,6.01,-0.24,0,2
15260.89,0.023,-0.016,1.0,-7.57,7.78,0.85,0,2
15260.89,0.027,-0.029,1.0,-4.27,9.55,2.56,0,2
15260.906,0.026,-0.03,0.996,0.58,10.83,4.39,0,2
15260.921,0.029,-0.026,0.987,4.82,11.38,5.55,0,2
15260.921,0.031,-0.016,0.976,6.35,11.11,5.43,0,2
15260.937,0.032,-0.01,0.966,4.03,10.28,4.15,0,2
15260.937,0.026,-0.003,0.964,-2.11,9.28,2.2,0,2
15260.953,0.022,-0.006,0.975,-9.58,8.45,0.4,0,2
15260.968,0.021,-0.021,0.989,-15.69,8.18,-1.28,0,2
15260.968,0.02,-0.036,1.01,-16.88,7.63,-4.43,0,2
15260.984,0.016,-0.049,1.021,-12.39,7.29,-5.28,0,2
15261.0,0.01,-0.045,1.029,-7.08,6.65,-5.37,0,2
15261.015,0.0,-0.04,1.023,-2.17,6.26,-4.52,0,2
15261.015,0.001,-0.029,1.018,3.36,6.07,-3.08,0,2
15261.015,0.001,-0.029,1.013,8.79,5.83,-1.62,0,2
15261.031,0.004,-0.018,1.007,11.96,5.1,-1.16,0,2
15261.046,0.003,-0.017,0.996,11.41,3.63,-1.59,0,2
15261.046,0.004,-0.021,0.988,8.15,2.01,-3.17,0,2
15261.062,0.003,-0.019,0.982,4.46,0.61,-5.8,0,2
15261.078,-0.0,-0.009,0.979,1.01,0.12,-9.03,0,2
15261.078,-0.008,0.002,0.975,-2.17,0.24,-11.32,0,2
15261.093,-0.011,0.006,0.981,-3.85,1.46,-12.33,0,2
15261.109,-0.019,0.004,0.989,-3.3,3.63,-11.87,0,2
15261.109,-0.019,0.007,0.998,-1.22,5.04,-11.11,0,2
15261.125,-0.015,0.007,1.002,1.28,5.52,-10.5,0,2
15261.14,-0.016,0.011,1.001,2.81,5.04,-9.98,0,2
15261.14,-0.015,0.017,0.996,2.59,3.97,-9.8,0,2
15261.156,-0.013,0.019,0.992,1.31,3.08,-10.19,0,2
15261.156,-0.006,0.021,0.991,-0.49,2.81,-10.99,0,2
15261.171,-0.01,0.008,0.992,-2.2,2.81,-11.66,0,2
15261.187,-0.003,0.0,0.996,-3.42,2.96,-12.05,0,2
15261.187,-0.007,-0.002,0.999,-3.11,3.27,-12.18,0,2
15261.203,-0.015,-0.003,1.009,-2.14,3.05,-11.93,0,2
15261.218,-0.019,0.01,1.016,-1.77,2.59,-11.26,0,2
15261.218,-0.023,0.014,1.021,-2.01,1.56,-10.83,0,2
15261.234,-0.021,0.012,1.024,-2.17,0.61,-10.44,0,2
15261.25,-0.02,0.005,1.022,-1.56,-0.55,-10.5,0,2
15261.265,-0.021,-0.007,1.015,-0.43,-2.01,-10.68,0,2
15261.265,-0.017,-0.004,1.008,0.55,-3.48,-10.93,0,2
15261.281,-0.014,0.002,0.999,0.09,-4.52,-11.38,0,2
15261.281,-0.01,-0.003,0.993,-1.74,-5.37,-12.09,0,2
15261.296,0.0,-0.015,0.997,-3.66,-5.68,-12.51,0,2
15261.296,0.006,-0.03,1.004,-3.66,-5.37,-12.7,0,2
15261.312,0.011,-0.037,1.003,-2.01,-4.82,-13.03,0,2
15261.328,0.019,-0.033,1.0,-0.03,-4.24,-13.58,0,2
15261.328,0.021,-0.026,0.991,1.5,-4.03,-13.49,0,2
15261.343,0.022,-0.026,0.985,2.69,-3.72,-12.88,0,2
15261.359,0.03,-0.021,0.98,3.05,-2.78,-12.51,0,2
15261.359,0.026,-0.018,0.977,3.3,-1.8,-12.6,0,2
15261.375,0.017,-0.017,0.979,3.11,-0.67,-12.76,0,2
15261.39,0.016,-0.013,0.985,2.62,0.43,-12.45,0,2
15261.39,0.011,-0.009,0.988,2.01,1.25,-12.45,0,2
15261.406,0.006,-0.007,0.992,1.01,1.74,-12.33,0,2
15261.421,0.003,-0.004,0.995,1.1,2.35,-12.3,0,2
15261.421,0.0,0.003,0.994,2.26,3.3,-12.57,0,2
15261.437,-0.006,0.005,0.995,3.57,4.36,-11.96,0,2
15261.437,-0.011,0.006,1.004,4.88,5.01,-10.38,0,2
15261.453,-0.011,0.004,1.004,6.01,5.13,-8.82,0,2
15261.468,-0.012,0.002,1.007,5.89,4.79,-8.09,0,2
15261.468,-0.018,-0.003,1.012,5.16,3.97,-8.06,0,2
15261.484,-0.02,-0.007,1.02,4.33,3.05,-8.15,0,2
15261.5,-0.019,-0.009,1.023,4.49,2.26,-8.03,0,2
15261.5,-0.024,-0.01,1.023,5.16,1.01,-8.12,0,2
15261.515,-0.019,-0.005,1.022,5.62,-0.55,-8.21,0,2
15261.515,-0.024,-0.003,1.015,6.87,-1.43,-7.93,0,2
15261.531,-0.032,-0.001,1.01,8.61,-1.71,-7.26,0,2
15261.546,-0.038,0.005,1.008,10.16,-1.4,-6.1,0,2
15261.546,-0.033,0.008,1.008,11.51,-0.98,-4.39,0,2
15261.562,-0.032,0.007,1.009,12.85,-0.82,-2.62,0,2
15261.578,-0.024,0.01,1.008,13.89,-1.65,-2.04,0,2
15261.578,-0.016,0.008,0.992,13.98,-2.62,-2.11,0,2
15261.593,-0.023,0.015,0.983,13.06,-2.69,-2.87,0,2
15261.609,-0.027,0.015,0.982,10.8,-2.17,-4.36,0,2
15261.609,-0.031,0.008,0.992,8.67,-1.37,-5.46,0,2
15261.625,-0.037,-0.001,1.004,8.76,-0.49,-5.65,0,2
15261.64,-0.041,-0.0,1.011,10.9,-0.12,-5.37,0,2
15261.64,-0.043,0.004,1.009,13.4,-0.46,-4.82,0,2
15261.656,-0.043,0.016,1.011,14.74,-1.04,-4.18,0,2
15261.671,-0.044,0.026,1.012,14.13,-2.14,-4.27,0,2
15261.671,-0.042,0.027,1.012,12.54,-3.48,-4.88,0,2
15261.687,-0.039,0.03,1.015,10.53,-4.67,-5.46,0,2
15261.687,-0.04,0.034,1.013,8.33,-5.71,-6.47,0,2
15261.703,-0.037,0.032,1.013,6.62,-6.23,-7.42,0,2
15261.718,-0.033,0.033,1.015,6.56,-6.16,-8.06,0,2
15261.718,-0.026,0.042,1.013,6.99,-6.26,-8.97,0,2
15261.734,-0.021,0.047,1.005,6.59,-7.02,-9.83,0,2
15261.75,-0.016,0.049,0.998,6.01,-7.48,-9.98,0,2
15261.765,-0.016,0.048,0.996,5.52,-7.17,-9.43,0,2
15261.765,-0.011,0.046,1.001,5.1,-6.26,-9.09,0,2
15261.765,-0.011,0.041,1.004,5.25,-5.1,-9.22,0,2
15261.781,-0.009,0.039,1.006,6.23,-4.39,-9.46,0,2
15261.796,-0.007,0.045,1.0,6.96,-4.79,-9.49,0,2
15261.796,-0.007,0.05,0.991,6.32,-6.1,-9.34,0,2
15261.812,-0.003,0.053,0.986,4.49,-7.6,-9.34,0,2
15261.828,-0.004,0.047,0.976,1.86,-8.06,-10.04,0,2
15261.828,-0.004,0.038,0.978,-1.04,-6.87,-11.29,0,2
15261.843,-0.002,0.034,0.986,-2.32,-4.67,-13.12,0,2
15261.859,-0.001,0.032,0.993,-1.95,-2.23,-14.56,0,2
15261.859,-0.002,0.024,1.001,0.37,0.34,-14.74,0,2
15261.875,-0.008,0.033,1.007,4.18,1.89,-13.92,0,2
15261.89,-0.002,0.052,1.005,7.48,1.68,-12.36,0,2
15261.89,-0.002,0.049,0.99,8.33,0.06,-10.65,0,2
15261.906,0.009,0.044,0.982,8.51,-1.31,-8.55,0,2
15261.921,0.028,0.041,0.975,9.89,-1.71,-6.74,0,2
15261.921,0.033,0.047,0.963,11.02,-1.22,-6.2,0,2
15261.937,0.031,0.058,0.952,9.8,-0.18,-6.9,0,2
15261.937,0.034,0.059,0.954,6.16,1.25,-8.36,0,2
15261.953,0.027,0.044,0.966,1.46,3.27,-10.04,0,2
15261.968,0.023,0.037,0.985,-4.27,7.05,-13.46,0,2
15261.968,0.013,0.027,1.004,-4.52,8.48,-14.83,0,2
15261.984,0.005,0.019,1.021,-2.53,9.43,-15.11,0,2
15262.0,-0.014,0.03,1.036,-0.46,8.88,-14.86,0,2
15262.0,-0.015,0.037,1.035,-0.06,6.99,-15.11,0,2
15262.015,-0.017,0.041,1.028,-1.19,4.55,-15.59,0,2
15262.031,-0.022,0.047,1.023,-3.51,2.44,-16.85,0,2
15262.031,-0.021,0.042,1.022,-6.04,0.79,-18.19,0,2
15262.046,-0.019,0.04,1.018,-7.02,-0.21,-19.07,0,2
15262.046,-0.021,0.044,1.012,-6.44,-0.92,-19.41,0,2
15262.062,-0.021,0.054,1.001,-5.65,-1.83,-19.26,0,2
15262.078,-0.022,0.066,0.996,-5.52,-1.68,-18.92,0,2
15262.093,-0.02,0.071,0.995,-6.47,-1.25,-19.17,0,2
15262.093,-0.021,0.068,1.0,-7.32,-0.55,-18.95,0,2
15262.109,-0.025,0.063,1.013,-6.41,0.4,-17.76,0,2
15262.109,-0.023,0.063,1.02,-3.78,0.52,-16.08,0,2
15262.125,-0.027,0.064,1.024,-0.34,0.12,-13.98,0,2
15262.14,-0.025,0.066,1.028,2.56,-0.7,-11.9,0,2
15262.14,-0.03,0.066,1.024,4.82,-1.89,-10.5,0,2
15262.156,-0.026,0.063,1.021,6.59,-2.84,-8.82,0,2
15262.171,-0.025,0.075,1.015,7.78,-3.36,-7.78,0,2
15262.171,-0.021,0.078,1.008,7.32,-4.24,-7.23,0,2
15262.187,-0.029,0.079,1.006,6.29,-4.61,-7.17,0,2
15262.187,-0.022,0.074,1.003,4.79,-5.1,-7.11,0,2
15262.203,-0.027,0.075,1.006,4.06,-5.07,-7.14,0,2
15262.218,-0.027,0.068,1.013,3.91,-4.76,-6.74,0,2
15262.218,-0.027,0.06,1.021,4.79,-4.33,-6.29,0,2
15262.234,-0.028,0.061,1.021,6.99,-4.09,-5.8,0,2
15262.25,-0.03,0.069,1.017,9.13,-4.61,-4.46,0,2
15262.25,-0.035,0.083,1.013,10.32,-5.31,-3.36,0,2
15262.265,-0.033,0.077,1.013,11.14,-6.04,-1.8,0,2
15262.281,-0.037,0.074,1.011,13.4,-5.83,-0.21,0,2
15262.281,-0.041,0.076,1.016,16.94,-4.55,1.53,0,2
15262.296,-0.039,0.08,1.033,22.4,-2.53,4.06,0,2
15262.296,-0.046,0.079,1.019,29.79,-0.55,6.99,0,2
15262.312,-0.041,0.097,1.027,35.31,0.61,9.98,0,2
15262.328,-0.037,0.129,1.017,39.4,0.7,11.81,0,2
15262.343,-0.043,0.128,1.006,39.19,-0.82,12.85,0,2
15262.343,-0.036,0.138,1.001,36.5,-2.72,13.92,0,2
15262.359,-0.027,0.129,1.0,34.85,-3.39,14.44,0,2
15262.359,-0.024,0.12,0.991,33.02,-3.2,13.79,0,2
15262.375,-0.019,0.131,0.981,28.11,-3.51,11.38,0,2
15262.39,-0.022,0.129,0.982,21.76,-3.66,8.27,0,2
15262.39,-0.026,0.116,0.983,15.53,-3.72,5.8,0,2
15262.406,-0.021,0.109,0.989,11.44,-4.61,3.97,0,2
15262.421,-0.025,0.108,0.99,11.23,-4.21,2.56,0,2
15262.421,-0.025,0.111,0.988,13.37,-3.72,1.89,0,2
15262.437,-0.029,0.106,0.999,17.12,-1.92,2.38,0,2
15262.437,-0.041,0.099,1.011,22.68,1.16,4.55,0,2
15262.453,-0.035,0.11,1.012,29.27,3.3,6.29,0,2
15262.468,-0.037,0.126,1.006,35.71,4.55,7.69,0,2
15262.484,-0.04,0.154,0.999,39.95,5.19,9.28,0,2
15262.484,-0.034,0.188,0.993,41.26,5.01,10.62,0,2
15262.5,-0.032,0.201,0.988,40.04,3.88,10.93,0,2
15262.5,-0.026,0.218,0.983,36.38,2.35,10.35,0,2
15262.515,-0.026,0.212,0.985,32.87,1.22,9.22,0,2
15262.531,-0.022,0.195,0.988,30.12,0.06,8.64,0,2
15262.531,-0.014,0.189,0.979,27.38,-1.95,7.75,0,2
15262.546,-0.01,0.18,0.969,24.02,-4.21,6.47,0,2
15262.546,-0.007,0.179,0.963,20.51,-6.07,4.52,0,2
15262.562,-0.007,0.18,0.955,17.73,-7.11,2.44,0,2
15262.578,-0.007,0.167,0.955,15.35,-7.78,1.1,0,2
15262.578,-0.002,0.154,0.96,14.28,-8.12,0.06,0,2
15262.593,-0.001,0.145,0.957,15.26,-8.18,-1.13,0,2
15262.609,-0.002,0.149,0.957,16.79,-7.54,-2.23,0,2
15262.625,-0.001,0.155,0.955,18.43,-6.93,-2.87,0,2
15262.625,-0.001,0.159,0.955,20.39,-6.1,-3.14,0,2
15262.64,-0.003,0.168,0.955,21.39,-5.4,-3.36,0,2
15262.64,-0.002,0.182,0.961,20.97,-5.01,-4.52,0,2
15262.656,0.0,0.209,0.956,18.89,-5.04,-6.99,0,2
15262.656,0.001,0.226,0.953,15.11,-5.83,-10.16,0,2
15262.671,0.004,0.232,0.956,10.1,-6.96,-12.57,0,2
15262.687,0.009,0.232,0.956,5.37,-8.42,-14.53,0,2
15262.687,0.007,0.223,0.956,2.17,-9.7,-15.93,0,2
15262.703,0.005,0.22,0.957,-0.37,-10.65,-17.37,0,2
15262.718,0.001,0.217,0.958,-2.56,-10.96,-18.89,0,2
15262.718,0.003,0.217,0.961,-4.27,-10.99,-20.23,0,2
