timestamp,ax,ay,az,gx,gy,gz,orient_label,motion_label
15277.125,-0.154,0.393,0.884,1.34,-0.4,11.08,0,2
15277.14,-0.157,0.389,0.881,2.47,1.71,12.82,0,2
15277.14,-0.163,0.371,0.881,4.27,4.15,14.92,0,2
15277.156,-0.166,0.361,0.888,7.32,6.44,16.88,0,2
15277.171,-0.174,0.374,0.892,10.28,8.39,16.75,0,2
15277.171,-0.191,0.385,0.888,10.22,8.76,14.83,0,2
15277.187,-0.208,0.396,0.893,6.99,7.45,11.75,0,2
15277.187,-0.219,0.392,0.903,2.87,5.19,8.94,0,2
15277.203,-0.226,0.387,0.911,-0.31,2.38,6.81,0,2
15277.218,-0.227,0.372,0.916,-1.22,-0.4,6.26,0,2
15277.218,-0.231,0.375,0.913,-0.09,-2.66,6.84,0,2
15277.234,-0.232,0.381,0.905,1.92,-4.39,7.87,0,2
15277.25,-0.234,0.393,0.892,3.54,-5.68,8.91,0,2
15277.25,-0.242,0.405,0.884,4.06,-6.26,9.06,0,2
15277.265,-0.257,0.415,0.877,3.72,-6.1,8.39,0,2
15277.281,-0.261,0.419,0.878,3.05,-5.49,7.48,0,2
15277.281,-0.256,0.416,0.877,3.36,-4.64,6.71,0,2
15277.312,-0.227,0.416,0.874,5.58,-1.62,7.02,0,2
15277.312,-0.214,0.413,0.869,7.32,0.61,8.58,0,2
15277.328,-0.208,0.411,0.864,9.61,3.17,10.53,0,2
15277.328,-0.2,0.412,0.866,11.72,6.26,12.36,0,2
15277.343,-0.197,0.417,0.88,14.04,9.19,13.55,0,2
15277.359,-0.184,0.421,0.891,16.27,10.13,14.28,0,2
15277.359,-0.159,0.442,0.897,17.46,7.63,14.62,0,2
15277.375,-0.135,0.46,0.897,16.02,2.08,14.95,0,2
15277.39,-0.117,0.473,0.886,12.67,-4.21,15.66,0,2
15277.39,-0.112,0.468,0.887,9.06,-10.28,16.48,0,2
15277.406,-0.09,0.47,0.877,5.22,-15.84,16.79,0,2
15277.406,-0.077,0.443,0.858,3.88,-18.62,16.88,0,2
15277.421,-0.059,0.436,0.847,2.81,-19.68,16.6,0,2
15277.437,-0.043,0.427,0.824,2.84,-18.62,15.5,0,2
15277.437,-0.036,0.421,0.81,2.35,-15.32,13.98,0,2
15277.453,-0.026,0.414,0.803,1.5,-10.41,12.54,0,2
15277.468,-0.02,0.403,0.816,0.95,1.86,10.22,0,2
15277.484,-0.019,0.398,0.836,2.23,7.6,10.74,0,2
15277.5,-0.018,0.406,0.852,4.15,11.78,11.14,0,2
15277.5,-0.022,0.422,0.864,4.73,13.79,10.68,0,2
15277.515,-0.034,0.435,0.88,2.47,13.89,10.13,0,2
15277.531,-0.046,0.434,0.898,-1.01,12.09,11.02,0,2
15277.531,-0.052,0.42,0.911,-2.99,9.92,12.97,0,2
15277.546,-0.058,0.413,0.911,-3.23,8.03,14.62,0,2
15277.562,-0.068,0.4,0.899,-2.78,6.81,15.69,0,2
15277.562,-0.073,0.394,0.895,-2.14,7.05,16.69,0,2
15277.578,-0.076,0.407,0.885,-1.71,8.27,16.33,0,2
15277.578,-0.08,0.408,0.877,-2.59,9.95,14.68,0,2
15277.593,-0.081,0.403,0.89,-4.76,11.54,12.73,0,2
15277.609,-0.091,0.405,0.907,-5.71,12.24,11.02,0,2
15277.609,-0.09,0.418,0.93,-6.5,11.23,10.22,0,2
15277.625,-0.079,0.422,0.95,-7.39,8.79,11.08,0,2
15277.64,-0.054,0.409,0.965,-7.51,1.59,19.44,0,2
15277.656,-0.043,0.392,0.958,-5.68,-1.71,26.67,0,2
15277.671,-0.039,0.371,0.955,-1.92,-3.88,34.33,0,2
15277.671,-0.035,0.375,0.939,2.62,-5.77,39.28,0,2
15277.687,-0.027,0.392,0.917,3.51,-9.09,35.43,0,2
15277.687,-0.022,0.404,0.905,-2.2,-11.2,27.31,0,2
15277.703,-0.01,0.419,0.903,-10.65,-13.73,17.09,0,2
15277.718,0.024,0.409,0.902,-20.23,-16.88,7.32,0,2
15277.718,0.035,0.405,0.894,-31.04,-19.35,1.59,0,2
15277.734,0.052,0.375,0.915,-40.01,-20.26,1.62,0,2
15277.75,0.072,0.327,0.938,-41.63,-20.26,5.86,0,2
15277.765,0.089,0.302,0.947,-35.4,-18.86,12.05,0,2
15277.765,0.109,0.295,0.948,-25.64,-17.0,16.85,0,2
15277.781,0.122,0.274,0.934,-17.15,-15.93,18.83,0,2
15277.781,0.126,0.269,0.921,-12.6,-15.44,18.13,0,2
15277.796,0.118,0.274,0.908,-11.51,-14.98,15.81,0,2
15277.812,0.083,0.279,0.9,-14.86,-9.7,12.54,0,2
15277.828,0.074,0.282,0.907,-16.08,-5.16,12.09,0,2
15277.828,0.062,0.288,0.908,-16.3,-1.25,11.23,0,2
15277.843,0.062,0.299,0.906,-15.81,2.01,10.01,0,2
15277.859,0.052,0.313,0.897,-16.27,4.91,8.58,0,2
15277.875,0.033,0.338,0.898,-18.34,8.21,6.56,0,2
15277.875,0.018,0.361,0.904,-20.33,11.47,5.86,0,2
15277.89,0.005,0.382,0.913,-21.12,14.04,7.51,0,2
15277.89,0.007,0.384,0.922,-19.71,15.84,11.05,0,2
15277.906,0.021,0.383,0.926,-16.63,16.27,15.41,0,2
15277.921,0.061,0.382,0.92,-11.93,14.77,19.84,0,2
15277.921,0.096,0.366,0.897,-5.71,11.51,24.54,0,2
15277.937,0.114,0.356,0.871,0.55,6.38,28.84,0,2
15277.937,0.107,0.368,0.824,5.49,0.7,30.43,0,2
15277.953,0.086,0.393,0.789,4.39,-3.51,28.11,0,2
15277.968,0.07,0.405,0.777,-3.91,-6.65,22.86,0,2
15277.984,0.042,0.397,0.784,-29.36,-8.55,9.92,0,2
15278.0,0.04,0.372,0.79,-39.92,-7.2,4.67,0,2
15278.0,0.051,0.358,0.812,-46.88,-4.58,2.08,0,2
15278.015,0.05,0.348,0.83,-48.8,-1.8,1.25,0,2
15278.031,0.043,0.345,0.857,-48.31,-0.67,1.22,0,2
15278.031,0.033,0.357,0.878,-48.16,-1.86,0.7,0,2
15278.046,0.026,0.356,0.893,-48.89,-5.37,-1.01,0,2
15278.062,0.02,0.341,0.906,-49.35,-10.74,-1.86,0,2
15278.062,0.018,0.344,0.911,-48.83,-16.42,-0.82,0,2
15278.078,0.023,0.337,0.905,-46.42,-22.1,2.47,0,2
15278.078,0.026,0.325,0.899,-41.87,-26.4,7.45,0,2
15278.093,0.024,0.31,0.891,-35.0,-28.66,12.94,0,2
15278.109,0.021,0.29,0.882,-27.65,-29.02,18.49,0,2
15278.125,0.02,0.28,0.881,-20.57,-27.16,23.16,0,2
15278.125,0.019,0.282,0.879,-14.28,-24.08,25.97,0,2
15278.14,0.028,0.264,0.876,-9.58,-21.36,28.02,0,2
15278.156,0.053,0.247,0.889,0.95,-16.91,29.3,0,2
15278.171,0.06,0.246,0.876,6.38,-17.7,28.23,0,2
15278.171,0.057,0.24,0.86,10.16,-19.65,27.13,0,2
15278.187,0.053,0.251,0.848,11.23,-21.24,26.09,0,2
15278.187,0.038,0.263,0.833,8.51,-21.76,23.8,0,2
15278.203,0.018,0.28,0.834,0.18,-21.21,19.44,0,2
15278.218,0.004,0.308,0.851,-11.72,-19.81,14.19,0,2
15278.234,-0.014,0.308,0.874,-21.45,-17.43,9.37,0,2
15278.234,-0.03,0.303,0.898,-27.41,-15.84,5.58,0,2
15278.25,-0.034,0.306,0.922,-29.6,-15.96,4.21,0,2
15278.25,-0.036,0.298,0.946,-26.89,-17.61,5.01,0,2
15278.265,-0.053,0.298,0.948,-20.72,-22.06,6.01,0,2
15278.281,-0.06,0.311,0.936,-13.95,-28.5,6.13,0,2
15278.281,-0.066,0.32,0.917,-9.34,-33.72,5.49,0,2
15278.296,-0.084,0.335,0.905,-9.64,-37.14,4.61,0,2
15278.296,-0.087,0.361,0.909,-13.52,-39.16,2.38,0,2
15278.328,-0.092,0.345,0.924,-20.72,-37.17,-1.68,0,2
15278.328,-0.091,0.342,0.937,-22.37,-33.05,-3.78,0,2
15278.343,-0.104,0.352,0.957,-22.86,-29.66,-6.9,0,2
15278.359,-0.112,0.364,0.968,-20.42,-27.99,-9.52,0,2
15278.359,-0.13,0.392,0.981,-16.21,-26.92,-11.11,0,2
15278.375,-0.15,0.417,1.016,-9.06,-26.8,-10.28,0,2
15278.39,-0.17,0.427,1.058,2.38,-26.95,-6.1,0,2
15278.39,-0.17,0.412,1.079,17.98,-27.74,0.79,0,2
15278.406,-0.162,0.392,1.089,39.52,-26.92,8.67,0,2
15278.406,-0.17,0.396,1.08,66.16,-22.61,15.59,0,2
15278.421,-0.173,0.416,1.072,92.62,-15.84,20.42,0,2
15278.437,-0.191,0.445,1.058,114.78,-7.57,23.32,0,2
15278.453,-0.206,0.501,1.048,130.44,-0.98,25.36,0,2
15278.453,-0.23,0.56,1.035,139.41,3.08,27.1,0,2
15278.468,-0.234,0.578,1.019,141.36,3.54,29.57,0,2
15278.468,-0.221,0.585,1.007,138.74,1.53,31.92,0,2
15278.5,-0.215,0.557,0.986,125.8,-6.87,34.12,0,2
15278.5,-0.193,0.545,0.97,115.7,-12.7,32.96,0,2
15278.515,-0.17,0.521,0.954,103.85,-18.52,30.06,0,2
15278.531,-0.149,0.509,0.933,91.22,-23.68,25.21,0,2
15278.531,-0.12,0.495,0.904,78.04,-27.74,18.68,0,2
15278.546,-0.098,0.485,0.875,64.49,-30.4,10.8,0,2
15278.546,-0.086,0.497,0.857,51.06,-31.13,2.84,0,2
15278.562,-0.087,0.489,0.85,38.61,-29.94,-2.87,0,2
15278.578,-0.083,0.474,0.863,28.35,-27.01,-5.89,0,2
15278.578,-0.063,0.462,0.894,21.61,-21.94,-7.42,0,2
15278.593,-0.055,0.43,0.924,19.53,-15.9,-8.21,0,2
15278.609,-0.041,0.401,0.946,21.79,-10.01,-8.51,0,2
15278.609,-0.025,0.396,0.957,27.31,-4.58,-9.4,0,2
15278.625,-0.009,0.408,0.951,34.21,-0.52,-11.14,0,2
15278.64,0.012,0.424,0.934,39.52,1.62,-12.51,0,2
15278.64,0.039,0.449,0.912,41.05,2.35,-13.73,0,2
15278.671,0.047,0.49,0.88,18.83,2.96,-24.14,0,2
15278.671,0.049,0.502,0.863,5.92,5.04,-28.93,0,2
15278.687,0.041,0.509,0.875,-4.7,7.32,-32.04,0,2
15278.687,0.04,0.509,0.901,-12.88,8.94,-34.46,0,2
15278.703,0.032,0.49,0.946,-17.76,10.16,-35.98,0,2
15278.718,0.026,0.486,0.97,-19.5,11.14,-37.32,0,2
15278.718,0.027,0.482,0.987,-18.8,10.47,-38.61,0,2
15278.734,0.027,0.491,1.011,-15.81,7.84,-39.74,0,2
15278.75,0.018,0.518,1.014,-11.87,2.2,-40.56,0,2
15278.75,0.007,0.536,0.992,-8.82,-5.22,-40.47,0,2
15278.765,0.007,0.554,0.974,-5.46,-12.05,-38.58,0,2
15278.781,0.021,0.573,0.946,-2.96,-17.7,-34.91,0,2
15278.781,0.041,0.574,0.918,-2.38,-21.09,-30.09,0,2
15278.796,0.052,0.569,0.889,-1.74,-21.33,-26.15,0,2
15278.796,0.061,0.568,0.87,-0.15,-18.8,-23.68,0,2
15278.812,0.062,0.578,0.87,1.04,-14.01,-21.7,0,2
15278.843,0.071,0.586,0.867,3.54,-7.02,-16.75,0,2
15278.843,0.087,0.6,0.87,6.07,-6.44,-13.89,0,2
15278.859,0.093,0.611,0.862,8.45,-7.75,-12.18,0,2
15278.859,0.097,0.616,0.846,9.55,-10.07,-11.35,0,2
15278.875,0.097,0.627,0.834,9.25,-13.18,-10.59,0,2
15278.89,0.094,0.631,0.815,8.73,-15.29,-9.8,0,2
15278.89,0.089,0.629,0.807,5.22,-16.02,-8.85,0,2
15278.906,0.091,0.625,0.822,0.55,-15.23,-7.81,0,2
15278.906,0.082,0.614,0.83,-2.75,-14.5,-7.72,0,2
15278.921,0.083,0.602,0.842,-4.55,-14.31,-7.66,0,2
15278.937,0.085,0.601,0.854,-4.09,-14.65,-7.32,0,2
15278.937,0.081,0.597,0.857,-1.59,-15.78,-6.29,0,2
15278.953,0.091,0.593,0.854,1.89,-17.7,-4.46,0,2
15278.968,0.097,0.598,0.842,6.32,-19.78,-2.29,0,2
15278.984,0.092,0.605,0.828,10.19,-21.73,-0.09,0,2
15278.984,0.097,0.606,0.807,11.93,-23.65,2.29,0,2
15279.0,0.12,0.588,0.786,11.78,-25.64,6.65,0,2
15279.015,0.133,0.579,0.781,10.86,-25.51,8.33,0,2
15279.031,0.138,0.573,0.774,10.56,-25.03,8.82,0,2
15279.031,0.15,0.565,0.769,10.56,-24.66,9.0,0,2
15279.046,0.152,0.568,0.762,11.29,-24.26,8.42,0,2
15279.046,0.141,0.579,0.76,11.11,-24.02,7.69,0,2
15279.062,0.141,0.597,0.766,10.44,-24.93,7.2,0,2
15279.078,0.137,0.595,0.754,9.98,-26.73,7.48,0,2
15279.078,0.136,0.592,0.749,8.45,-28.38,8.21,0,2
15279.093,0.146,0.593,0.752,7.72,-29.36,8.48,0,2
15279.109,0.147,0.592,0.739,7.87,-29.66,8.3,0,2
15279.109,0.143,0.59,0.73,7.69,-29.15,7.78,0,2
15279.125,0.15,0.592,0.729,8.21,-28.23,6.96,0,2
15279.14,0.156,0.598,0.723,8.55,-27.07,6.59,0,2
15279.14,0.154,0.609,0.709,7.87,-25.3,5.71,0,2
15279.156,0.157,0.61,0.705,6.32,-22.89,5.07,0,2
15279.171,0.148,0.622,0.709,1.92,-15.35,4.64,0,2
15279.187,0.144,0.622,0.72,-1.04,-11.14,4.82,0,2
15279.187,0.13,0.619,0.739,-3.81,-7.08,4.91,0,2
15279.203,0.124,0.61,0.757,-6.47,-4.06,4.91,0,2
15279.218,0.128,0.602,0.777,-8.15,-2.93,4.94,0,2
15279.218,0.124,0.59,0.792,-7.54,-3.42,5.25,0,2
15279.234,0.128,0.574,0.794,-5.74,-4.94,6.1,0,2
15279.25,0.14,0.569,0.791,-3.05,-6.47,6.32,0,2
15279.25,0.149,0.573,0.781,0.06,-6.84,5.37,0,2
15279.265,0.14,0.574,0.769,1.98,-5.98,4.03,0,2
15279.281,0.135,0.582,0.77,2.41,-4.21,3.2,0,2
15279.281,0.13,0.585,0.776,1.62,-2.01,3.2,0,2
15279.296,0.125,0.579,0.785,0.92,-0.76,3.51,0,2
15279.296,0.128,0.578,0.787,0.73,-0.58,3.33,0,2
15279.312,0.131,0.582,0.789,0.95,-0.52,2.29,0,2
15279.328,0.13,0.58,0.785,1.56,-0.64,1.37,0,2
15279.328,0.129,0.585,0.775,2.87,-0.89,1.19,0,2
15279.343,0.126,0.594,0.766,3.72,-0.95,1.43,0,2
15279.359,0.123,0.594,0.76,3.94,-0.64,1.74,0,2
15279.359,0.128,0.584,0.76,3.75,-0.27,3.02,0,2
15279.375,0.135,0.584,0.763,3.94,0.7,4.0,0,2
15279.39,0.129,0.58,0.763,4.21,2.11,4.24,0,2
15279.39,0.125,0.577,0.768,3.91,3.54,3.72,0,2
15279.406,0.129,0.579,0.777,3.66,3.94,2.81,0,2
15279.421,0.132,0.583,0.778,3.63,3.69,1.86,0,2
15279.421,0.133,0.582,0.775,3.6,2.87,1.25,0,2
15279.437,0.129,0.587,0.773,3.6,2.26,0.98,0,2
15279.437,0.128,0.598,0.77,3.36,2.01,0.31,0,2
15279.453,0.129,0.598,0.768,2.66,1.95,-0.06,0,2
15279.468,0.128,0.599,0.769,2.29,1.86,0.18,0,2
15279.468,0.129,0.599,0.767,2.75,1.62,0.61,0,2
15279.484,0.129,0.594,0.769,3.2,1.65,1.04,0,2
15279.5,0.133,0.585,0.767,3.91,2.14,1.22,0,2
15279.5,0.126,0.589,0.769,4.58,3.33,0.89,0,2
15279.531,0.112,0.589,0.787,4.79,5.19,0.37,0,2
15279.531,0.107,0.597,0.8,4.97,4.79,0.85,0,2
15279.546,0.1,0.598,0.802,5.28,3.3,1.19,0,2
15279.562,0.107,0.597,0.803,5.92,1.31,1.86,0,2
15279.562,0.115,0.597,0.803,7.17,-0.82,2.69,0,2
15279.578,0.128,0.589,0.797,9.06,-2.9,3.54,0,2
15279.578,0.134,0.589,0.787,11.51,-4.12,3.81,0,2
15279.593,0.135,0.598,0.776,13.43,-4.43,3.3,0,2
15279.609,0.131,0.597,0.765,14.1,-3.51,2.87,0,2
15279.609,0.128,0.602,0.762,12.7,-1.83,2.14,0,2
15279.625,0.125,0.604,0.763,9.95,0.24,1.4,0,2
15279.64,0.124,0.598,0.769,6.96,2.17,-0.24,0,2
15279.64,0.113,0.593,0.776,3.94,4.61,-2.81,0,2
15279.656,0.101,0.595,0.793,6.71,4.15,-2.17,0,2
15279.671,0.081,0.598,0.814,12.91,2.41,0.46,0,2
15279.671,0.066,0.602,0.821,20.94,-0.12,3.69,0,2
15279.687,0.08,0.623,0.791,38.03,-5.31,7.57,0,2
15279.703,0.088,0.639,0.768,44.56,-7.45,8.79,0,2
15279.718,0.101,0.647,0.751,49.17,-9.31,9.83,0,2
15279.718,0.107,0.659,0.711,51.09,-10.38,10.01,0,2
15279.734,0.123,0.671,0.705,50.33,-10.32,10.01,0,2
15279.75,0.133,0.673,0.692,49.04,-10.47,9.7,0,2
15279.75,0.14,0.684,0.685,45.93,-10.68,9.61,0,2
15279.765,0.15,0.689,0.68,41.96,-11.2,9.06,0,2
15279.781,0.148,0.691,0.68,37.69,-11.99,8.15,0,2
15279.781,0.143,0.71,0.68,32.99,-13.18,6.99,0,2
15279.796,0.143,0.722,0.682,27.34,-15.29,5.89,0,2
15279.812,0.146,0.72,0.683,21.27,-17.61,5.31,0,2
15279.812,0.15,0.72,0.686,14.89,-19.29,4.61,0,2
15279.828,0.163,0.712,0.692,9.83,-20.29,3.85,0,2
15279.828,0.17,0.7,0.696,6.53,-20.14,2.62,0,2
15279.843,0.184,0.683,0.703,5.19,-19.04,1.65,0,2
15279.875,0.203,0.673,0.702,8.12,-14.86,-1.28,0,2
15279.875,0.208,0.682,0.697,10.07,-12.12,-2.17,0,2
15279.89,0.206,0.693,0.692,10.93,-9.31,-2.53,0,2
15279.89,0.206,0.698,0.686,9.98,-6.74,-2.29,0,2
15279.906,0.203,0.715,0.687,7.23,-4.24,-2.08,0,2
15279.921,0.197,0.719,0.695,3.57,-2.47,-1.62,0,2
15279.921,0.195,0.708,0.706,0.31,-2.11,0.0,0,2
15279.937,0.199,0.704,0.712,-1.56,-2.72,1.74,0,2
15279.953,0.199,0.699,0.721,-2.01,-3.54,2.56,0,2
15279.953,0.202,0.688,0.728,-1.68,-4.64,3.63,0,2
15279.968,0.21,0.673,0.727,-0.4,-6.26,5.01,0,2
15279.968,0.223,0.661,0.717,1.34,-7.6,5.95,0,2
15279.984,0.23,0.651,0.707,3.11,-8.45,5.74,0,2
15280.0,0.236,0.658,0.696,3.88,-8.61,4.73,0,2
15280.0,0.239,0.662,0.683,3.08,-8.3,3.08,0,2
15280.015,0.234,0.664,0.675,1.04,-7.48,1.59,0,2
15280.031,0.23,0.678,0.674,-1.8,-6.74,0.21,0,2
15280.031,0.222,0.689,0.671,-4.91,-6.26,-1.28,0,2
15280.046,0.214,0.692,0.674,-8.42,-6.1,-2.2,0,2
15280.062,0.201,0.707,0.678,-11.93,-6.29,-3.11,0,2
15280.062,0.195,0.688,0.684,-15.9,-7.75,-2.5,0,2
15280.078,0.207,0.691,0.687,-17.12,-9.06,-1.59,0,2
15280.078,0.205,0.682,0.68,-16.24,-9.89,-1.5,0,2
15280.093,0.209,0.666,0.672,-14.92,-10.59,-1.22,0,2
15280.109,0.217,0.66,0.666,-12.6,-10.41,-0.82,0,2
15280.109,0.218,0.655,0.656,-9.89,-9.37,-0.82,0,2
15280.125,0.224,0.645,0.653,-7.32,-7.23,-0.31,0,2
15280.14,0.232,0.648,0.651,-5.22,-4.39,-0.61,0,2
15280.156,0.22,0.641,0.648,-3.81,-1.8,-1.89,0,2
15280.156,0.225,0.647,0.649,-4.09,-0.03,-2.99,0,2
15280.171,0.217,0.648,0.646,-5.34,1.5,-4.12,0,2
15280.171,0.218,0.651,0.652,-7.93,2.44,-4.58,0,2
15280.187,0.21,0.655,0.66,-10.96,2.72,-4.64,0,2
15280.187,0.213,0.652,0.67,-13.7,2.26,-4.03,0,2
15280.203,0.217,0.645,0.679,-15.14,1.4,-3.97,0,2
15280.218,0.219,0.644,0.686,-15.38,0.61,-4.33,0,2
15280.234,0.221,0.645,0.696,-15.11,0.15,-4.79,0,2
15280.234,0.223,0.645,0.704,-14.62,0.0,-5.16,0,2
15280.25,0.227,0.644,0.707,-13.79,0.27,-5.43,0,2
15280.25,0.227,0.64,0.711,-12.42,0.89,-5.71,0,2
15280.265,0.23,0.638,0.714,-10.59,1.74,-5.74,0,2
15280.281,0.231,0.644,0.716,-8.21,2.69,-5.95,0,2
15280.281,0.229,0.651,0.716,-5.83,3.57,-6.16,0,2
15280.296,0.227,0.657,0.712,-4.46,4.49,-6.35,0,2
15280.312,0.223,0.665,0.711,-4.3,5.31,-6.29,0,2
15280.312,0.219,0.677,0.716,-5.52,6.32,-6.2,0,2
15280.328,0.212,0.673,0.723,-7.6,6.99,-5.68,0,2
15280.328,0.21,0.669,0.733,-9.74,7.23,-4.79,0,2
15280.343,0.209,0.67,0.745,-11.05,6.68,-3.94,0,2
15280.359,0.204,0.665,0.753,-11.81,5.1,-3.11,0,2
15280.359,0.206,0.659,0.757,-12.15,2.93,-2.08,0,2
15280.375,0.209,0.652,0.759,-11.69,0.82,-1.22,0,2
15280.39,0.213,0.646,0.756,-10.93,-0.67,-0.79,0,2
15280.39,0.216,0.641,0.749,-10.04,-1.46,-0.61,0,2
15280.406,0.216,0.637,0.748,-9.28,-1.16,-0.49,0,2
15280.406,0.212,0.639,0.751,-8.42,-0.37,-0.24,0,2
15280.421,0.209,0.64,0.753,-8.15,0.27,-0.09,0,2
15280.437,0.208,0.635,0.758,-8.09,0.73,-0.12,0,2
15280.437,0.207,0.632,0.762,-8.0,0.58,0.06,0,2
15280.453,0.203,0.633,0.765,-7.75,-0.06,0.34,0,2
15280.468,0.206,0.627,0.76,-7.57,-1.19,0.55,0,2
15280.468,0.209,0.621,0.755,-7.14,-2.2,0.64,0,2
15280.484,0.212,0.621,0.75,-6.78,-2.72,0.21,0,2
15280.5,0.211,0.619,0.743,-6.84,-2.87,-0.21,0,2
15280.515,0.214,0.619,0.736,-7.42,-2.78,-0.49,0,2
15280.515,0.213,0.617,0.731,-8.33,-2.38,-0.61,0,2
15280.531,0.215,0.612,0.73,-9.52,-1.8,-0.73,0,2
15280.531,0.217,0.609,0.727,-10.38,-1.34,-0.98,0,2
15280.562,0.215,0.614,0.731,-11.9,-0.49,-1.4,0,2
15280.562,0.212,0.607,0.734,-12.36,0.15,-1.68,0,2
15280.578,0.214,0.599,0.736,-12.05,1.01,-1.31,0,2
15280.593,0.219,0.596,0.734,-10.93,1.59,-0.92,0,2
15280.593,0.216,0.592,0.735,-9.22,2.14,-1.01,0,2
15280.609,0.219,0.591,0.734,-7.39,2.59,-0.89,0,2
15280.609,0.219,0.594,0.735,-5.89,3.05,-0.82,0,2
15280.625,0.215,0.605,0.735,-6.32,4.49,-1.43,0,2
15280.64,0.214,0.613,0.735,-7.78,5.19,-1.83,0,2
15280.64,0.205,0.615,0.738,-9.28,5.13,-1.4,0,2
15280.656,0.199,0.618,0.745,-10.68,4.7,-1.01,0,2
15280.671,0.195,0.619,0.758,-11.96,4.24,-0.98,0,2
15280.671,0.194,0.615,0.76,-12.3,3.54,-0.82,0,2
15280.687,0.19,0.611,0.761,-11.93,3.14,-0.49,0,2
15280.687,0.186,0.614,0.763,-11.44,3.11,-0.37,0,2
15280.703,0.181,0.617,0.765,-11.26,3.42,-0.37,0,2
15280.718,0.17,0.615,0.777,-11.32,3.91,0.55,0,2
15280.734,0.171,0.61,0.785,-10.83,3.6,1.5,0,2
15280.75,0.169,0.599,0.787,-9.7,3.02,2.26,0,2
15280.75,0.173,0.596,0.788,-8.33,2.59,2.81,0,2
15280.765,0.175,0.587,0.789,-6.26,2.08,3.02,0,2
15280.781,0.179,0.578,0.782,-4.27,1.83,3.57,0,2
15280.781,0.185,0.575,0.774,-2.14,1.86,3.94,0,2
15280.796,0.184,0.573,0.77,-0.34,2.26,3.85,0,2
15280.796,0.189,0.573,0.765,0.55,2.75,4.0,0,2
15280.812,0.188,0.574,0.759,0.82,3.11,4.0,0,2
15280.828,0.184,0.577,0.757,0.52,3.42,3.78,0,2
15280.828,0.185,0.575,0.759,-0.24,3.36,3.66,0,2
15280.843,0.187,0.572,0.758,-0.73,3.05,3.69,0,2
15280.859,0.19,0.568,0.755,-0.85,2.93,3.54,0,2
15280.859,0.191,0.567,0.755,-0.58,3.14,3.2,0,2
15280.875,0.19,0.567,0.755,0.03,3.57,2.66,0,2
15280.89,0.186,0.57,0.757,0.64,3.48,2.17,0,2
15280.89,0.179,0.583,0.759,0.76,3.27,1.89,0,2
15280.906,0.176,0.582,0.758,0.4,2.93,2.01,0,2
15280.906,0.175,0.579,0.762,-0.03,2.41,2.38,0,2
15280.921,0.181,0.579,0.761,-0.37,1.98,2.5,0,2
15280.937,0.19,0.573,0.758,-0.43,2.32,2.17,0,2
15280.937,0.193,0.572,0.756,-0.4,3.27,1.68,0,2
15280.953,0.191,0.578,0.76,-0.67,4.76,1.31,0,2
15280.968,0.187,0.582,0.765,-1.43,6.47,0.92,0,2
15280.984,0.183,0.585,0.771,-2.75,7.57,1.1,0,2
15280.984,0.181,0.584,0.779,-4.06,8.33,1.5,0,2
15281.0,0.178,0.581,0.79,-4.58,8.12,1.83,0,2
15281.0,0.174,0.577,0.798,-4.27,7.05,2.14,0,2
15281.015,0.176,0.573,0.799,-3.23,5.52,2.38,0,2
15281.031,0.179,0.57,0.798,-1.5,4.06,2.41,0,2
15281.031,0.182,0.568,0.796,0.34,3.05,2.17,0,2
15281.046,0.184,0.567,0.796,1.83,2.2,1.71,0,2
15281.062,0.188,0.571,0.794,2.96,1.46,1.16,0,2
15281.078,0.183,0.585,0.79,3.27,0.61,-0.27,0,2
15281.093,0.181,0.59,0.786,2.04,0.18,-0.7,0,2
15281.093,0.178,0.595,0.782,0.73,-0.09,-0.89,0,2
15281.109,0.175,0.6,0.783,-0.79,0.03,-0.98,0,2
15281.109,0.171,0.603,0.782,-2.53,0.34,-0.85,0,2
15281.125,0.165,0.602,0.785,-4.0,0.55,-0.64,0,2
15281.14,0.16,0.609,0.79,-5.22,0.64,-0.46,0,2
15281.14,0.157,0.613,0.795,-6.41,0.49,-0.06,0,2
15281.156,0.153,0.606,0.797,-6.96,0.27,0.31,0,2
15281.156,0.151,0.6,0.803,-6.65,-0.27,0.82,0,2
15281.171,0.151,0.598,0.802,-5.25,-1.19,1.56,0,2
15281.187,0.15,0.595,0.796,-3.51,-2.01,1.95,0,2
15281.203,0.153,0.588,0.791,-1.89,-2.29,2.29,0,2
15281.203,0.156,0.584,0.786,-0.21,-2.29,2.62,0,2
15281.218,0.16,0.58,0.779,1.5,-2.11,2.62,0,2
15281.218,0.164,0.583,0.772,2.32,-1.53,2.5,0,2
15281.25,0.164,0.58,0.767,1.07,0.09,1.95,0,2
15281.25,0.163,0.578,0.767,0.06,0.52,1.89,0,2
15281.265,0.166,0.573,0.769,-0.46,0.64,1.71,0,2
15281.281,0.165,0.571,0.771,-0.76,1.04,1.5,0,2
15281.281,0.163,0.573,0.773,-1.1,1.28,1.1,0,2
15281.296,0.161,0.571,0.774,-1.28,1.59,0.79,0,2
15281.296,0.162,0.567,0.777,-1.1,1.46,0.58,0,2
15281.312,0.163,0.572,0.776,-0.7,1.16,0.37,0,2
15281.328,0.161,0.572,0.775,-0.37,1.07,-0.12,0,2
15281.328,0.163,0.568,0.777,-0.06,0.73,-0.43,0,2
15281.343,0.166,0.569,0.775,0.37,0.43,-0.58,0,2
15281.359,0.169,0.569,0.772,0.79,0.06,-1.07,0,2
15281.359,0.168,0.572,0.772,0.73,0.37,-1.71,0,2
15281.375,0.166,0.573,0.775,0.18,0.98,-2.35,0,2
15281.39,0.166,0.573,0.774,-0.34,1.34,-2.53,0,2
15281.39,0.169,0.573,0.778,-0.34,1.46,-2.47,0,2
15281.406,0.17,0.576,0.781,-0.34,1.8,-2.87,0,2
15281.421,0.169,0.576,0.787,-0.21,1.92,-3.36,0,2
15281.421,0.168,0.576,0.789,0.31,1.53,-3.33,0,2
15281.437,0.17,0.58,0.79,0.79,1.07,-2.99,0,2
15281.437,0.174,0.582,0.791,0.85,0.61,-2.96,0,2
15281.453,0.174,0.58,0.79,0.73,0.58,-2.93,0,2
15281.468,0.174,0.579,0.792,0.58,0.52,-2.84,0,2
15281.468,0.172,0.581,0.789,0.34,0.58,-2.78,0,2
15281.484,0.173,0.585,0.786,0.03,0.82,-3.08,0,2
15281.5,0.172,0.585,0.789,-0.49,1.22,-3.2,0,2
15281.5,0.171,0.586,0.799,-0.79,1.01,-3.14,0,2
15281.515,0.173,0.591,0.793,-1.37,0.4,-3.02,0,2
15281.531,0.176,0.593,0.792,-1.8,0.49,-2.81,0,2
15281.531,0.176,0.586,0.797,-1.65,1.01,-2.53,0,2
15281.546,0.174,0.588,0.8,-1.46,1.46,-2.26,0,2
15281.546,0.171,0.595,0.802,-1.4,1.56,-1.98,0,2
15281.562,0.167,0.593,0.807,-1.56,1.1,-1.68,0,2
15281.578,0.169,0.593,0.807,-1.74,0.31,-1.43,0,2
15281.578,0.171,0.589,0.805,-1.8,-0.4,-1.19,0,2
15281.593,0.171,0.586,0.801,-1.62,-1.16,-1.04,0,2
15281.609,0.171,0.582,0.799,-1.04,-1.77,-0.95,0,2
15281.625,0.17,0.585,0.794,-0.58,-2.66,-0.92,0,2
15281.625,0.167,0.584,0.788,-0.85,-2.87,-0.89,0,2
15281.64,0.166,0.583,0.784,-1.07,-3.02,-0.52,0,2
15281.64,0.172,0.578,0.771,-1.07,-2.93,-0.37,0,2
15281.656,0.172,0.578,0.768,-1.22,-2.17,-0.7,0,2
15281.671,0.169,0.575,0.765,-1.56,-1.16,-0.95,0,2
15281.671,0.167,0.576,0.765,-1.46,-0.31,-0.98,0,2
15281.687,0.165,0.577,0.766,-1.37,0.24,-0.92,0,2
15281.687,0.166,0.575,0.766,-1.53,0.43,-0.67,0,2
15281.703,0.164,0.574,0.766,-1.46,0.55,-0.58,0,2
15281.718,0.163,0.574,0.766,-1.07,0.55,-0.43,0,2
15281.734,0.16,0.576,0.767,-0.61,0.43,-0.24,0,2
15281.734,0.159,0.579,0.768,-0.49,0.43,-0.12,0,2
15281.75,0.16,0.577,0.766,-0.52,0.61,-0.15,0,2
15281.765,0.154,0.583,0.77,-0.58,1.43,-0.34,0,2
15281.781,0.151,0.587,0.772,-0.73,1.34,-0.49,0,2
15281.781,0.151,0.586,0.773,-0.73,1.07,-0.34,0,2
15281.796,0.151,0.581,0.774,-0.34,0.76,-0.06,0,2
15281.812,0.149,0.58,0.771,0.31,0.7,0.34,0,2
15281.812,0.151,0.583,0.772,0.55,1.1,0.49,0,2
15281.828,0.154,0.58,0.773,0.7,1.68,0.76,0,2
15281.843,0.156,0.577,0.774,0.55,2.53,0.58,0,2
15281.843,0.154,0.58,0.779,0.34,3.66,0.43,0,2
15281.859,0.152,0.581,0.788,-0.18,4.46,0.15,0,2
15281.859,0.15,0.576,0.796,-0.55,4.58,0.12,0,2
15281.875,0.151,0.576,0.799,-0.67,4.24,0.24,0,2
15281.89,0.151,0.573,0.805,-0.55,3.6,0.12,0,2
15281.89,0.147,0.575,0.805,-0.27,3.05,0.0,0,2
15281.906,0.148,0.575,0.807,-0.09,2.23,-0.09,0,2
15281.906,0.15,0.571,0.807,-0.03,1.25,0.0,0,2
15281.921,0.155,0.568,0.802,0.18,0.52,-0.12,0,2
15281.937,0.154,0.573,0.799,0.43,0.24,-0.61,0,2
15281.937,0.155,0.575,0.797,0.21,-0.09,-1.16,0,2
15281.953,0.153,0.577,0.793,-0.12,-0.24,-1.19,0,2
15281.968,0.156,0.578,0.788,-0.4,-0.4,-1.04,0,2
15281.968,0.157,0.58,0.787,-0.67,-0.15,-1.13,0,2
15281.984,0.156,0.577,0.793,-1.13,0.12,-1.22,0,2
15282.0,0.155,0.575,0.794,-1.37,0.34,-1.22,0,2
15282.0,0.154,0.576,0.793,-1.34,0.31,-1.13,0,2
15282.015,0.154,0.578,0.791,-1.04,0.46,-1.22,0,2
15282.031,0.15,0.583,0.792,-1.01,0.67,-1.37,0,2
15282.031,0.148,0.58,0.795,-1.01,0.24,-1.1,0,2
15282.046,0.149,0.581,0.794,-0.92,-0.55,-0.85,0,2
15282.046,0.148,0.584,0.795,-0.95,-0.95,-0.79,0,2
15282.062,0.149,0.579,0.794,-0.89,-1.13,-0.67,0,2
15282.078,0.15,0.576,0.792,-0.43,-1.28,-0.34,0,2
15282.078,0.154,0.576,0.787,0.37,-1.34,-0.09,0,2
15282.093,0.154,0.577,0.783,1.13,-1.43,-0.18,0,2
15282.109,0.152,0.583,0.78,1.37,-1.13,-0.46,0,2
15282.109,0.154,0.58,0.78,1.16,-0.95,-0.46,0,2
15282.125,0.155,0.58,0.776,0.55,-0.92,-0.49,0,2
15282.14,0.153,0.586,0.777,-0.15,-0.49,-0.55,0,2
15282.156,0.151,0.586,0.781,-1.01,-0.09,-0.73,0,2
15282.156,0.149,0.582,0.784,-1.53,0.0,-0.64,0,2
15282.171,0.149,0.581,0.785,-1.43,-0.03,-0.52,0,2
15282.171,0.147,0.578,0.787,-0.95,0.37,-0.37,0,2
15282.187,0.147,0.579,0.789,-0.76,0.79,-0.27,0,2
15282.203,0.146,0.578,0.792,-0.73,1.1,-0.12,0,2
15282.203,0.146,0.576,0.794,-0.49,1.01,0.12,0,2
15282.218,0.145,0.574,0.794,-0.4,0.85,0.24,0,2
15282.218,0.144,0.574,0.795,-0.49,0.85,0.06,0,2
15282.234,0.143,0.57,0.797,-0.49,0.49,0.09,0,2
15282.25,0.143,0.567,0.793,-0.18,-0.21,0.21,0,2
15282.265,0.147,0.567,0.791,0.15,-0.61,0.21,0,2
15282.265,0.151,0.562,0.79,0.43,-0.67,0.03,0,2
15282.281,0.161,0.555,0.78,1.34,-0.76,-0.31,0,2
15282.296,0.162,0.56,0.776,1.56,-0.49,-0.82,0,2
15282.296,0.161,0.569,0.775,1.07,0.09,-1.53,0,2
15282.312,0.16,0.568,0.776,0.24,0.55,-1.8,0,2
15282.328,0.159,0.572,0.776,-0.15,0.55,-1.86,0,2
15282.328,0.159,0.579,0.775,-0.52,0.7,-2.08,0,2
15282.343,0.155,0.582,0.78,-1.13,1.13,-2.29,0,2
15282.359,0.153,0.583,0.782,-1.4,1.65,-2.2,0,2
15282.375,0.15,0.586,0.784,-1.19,1.92,-1.83,0,2
15282.375,0.147,0.591,0.787,-0.98,2.29,-1.68,0,2
15282.39,0.147,0.59,0.787,-0.92,2.72,-1.68,0,2
15282.39,0.144,0.591,0.786,-0.73,3.14,-1.53,0,2
15282.406,0.142,0.595,0.788,-0.76,3.42,-1.1,0,2
15282.421,0.138,0.596,0.791,-1.1,3.72,-0.61,0,2
15282.421,0.133,0.597,0.799,-1.74,3.94,-0.43,0,2
15282.437,0.132,0.593,0.802,-2.2,3.75,-0.21,0,2
15282.453,0.137,0.59,0.803,-1.71,2.9,0.49,0,2
15282.468,0.135,0.589,0.806,-1.34,2.75,0.43,0,2
15282.484,0.134,0.586,0.803,-1.01,2.47,0.79,0,2
15282.484,0.131,0.583,0.801,-0.64,1.98,1.19,0,2
15282.5,0.131,0.583,0.801,-0.37,1.62,1.5,0,2
15282.5,0.131,0.581,0.803,-0.49,1.4,1.65,0,2
15282.515,0.13,0.577,0.803,-0.58,1.1,1.74,0,2
15282.531,0.128,0.578,0.802,-0.49,0.67,1.74,0,2
15282.531,0.128,0.578,0.804,-0.31,0.12,1.77,0,2
15282.546,0.13,0.572,0.803,-0.15,-0.37,1.8,0,2
15282.562,0.134,0.567,0.8,0.15,-0.92,1.86,0,2
15282.562,0.136,0.568,0.793,0.64,-1.31,1.74,0,2
15282.578,0.135,0.571,0.791,0.79,-1.28,1.31,0,2
15282.578,0.135,0.57,0.787,0.52,-1.28,0.95,0,2
15282.593,0.134,0.568,0.785,-0.12,-1.07,0.89,0,2
15282.609,0.134,0.568,0.783,-0.58,-0.55,0.46,0,2
15282.609,0.132,0.572,0.782,-0.82,0.0,0.24,0,2
15282.625,0.132,0.568,0.781,-0.92,0.64,0.4,0,2
15282.64,0.131,0.574,0.789,-1.07,1.28,0.43,0,2
15282.64,0.13,0.572,0.793,-1.04,1.53,0.49,0,2
15282.656,0.13,0.571,0.795,-0.73,1.43,0.76,0,2
15282.671,0.13,0.57,0.798,-0.46,1.37,0.95,0,2
15282.671,0.13,0.567,0.799,-0.09,1.1,0.89,0,2
15282.687,0.129,0.568,0.797,-0.03,0.61,0.67,0,2
15282.687,0.13,0.57,0.795,-0.15,0.27,0.37,0,2
15282.703,0.132,0.568,0.796,-0.43,0.31,0.37,0,2
15282.718,0.136,0.563,0.797,-0.55,0.12,0.43,0,2
15282.718,0.138,0.561,0.793,-0.09,0.0,0.4,0,2
15282.734,0.137,0.568,0.792,0.24,0.31,-0.06,0,2
15282.75,0.135,0.575,0.794,-0.34,0.85,-0.64,0,2
15282.75,0.135,0.572,0.797,-1.04,1.04,-0.73,0,2
15282.765,0.135,0.573,0.802,-1.53,1.01,-0.37,0,2
15282.781,0.135,0.573,0.805,-1.5,0.64,-0.37,0,2
15282.781,0.133,0.57,0.806,-1.25,0.37,-0.46,0,2
15282.796,0.129,0.571,0.807,-0.12,-0.82,0.12,0,2
15282.812,0.129,0.575,0.805,0.18,-1.19,0.12,0,2
15282.828,0.132,0.576,0.804,0.06,-1.62,-0.21,0,2
15282.828,0.13,0.574,0.803,-0.24,-1.98,-0.15,0,2
15282.843,0.131,0.575,0.797,-0.15,-2.35,-0.03,0,2
15282.859,0.135,0.573,0.793,0.06,-2.59,0.03,0,2
15282.859,0.135,0.571,0.794,0.09,-2.38,0.15,0,2
15282.875,0.136,0.571,0.792,0.24,-2.14,-0.12,0,2
15282.89,0.137,0.571,0.791,0.64,-2.32,-0.15,0,2
15282.89,0.136,0.57,0.789,0.82,-2.44,0.03,0,2
15282.906,0.138,0.569,0.788,0.85,-2.38,0.18,0,2
15282.906,0.136,0.568,0.787,0.79,-2.2,0.09,0,2
15282.921,0.134,0.57,0.787,0.67,-2.04,-0.21,0,2
15282.937,0.134,0.571,0.789,0.27,-1.86,-0.34,0,2
15282.937,0.134,0.571,0.792,0.03,-1.95,-0.31,0,2
15282.953,0.135,0.57,0.792,0.18,-2.23,-0.27,0,2
15282.968,0.136,0.572,0.788,0.95,-2.47,-0.49,0,2
15282.984,0.133,0.574,0.788,1.16,-2.32,-0.52,0,2
15283.0,0.129,0.576,0.788,1.16,-2.26,-0.61,0,2
15283.015,0.126,0.578,0.786,1.13,-2.14,-0.73,0,2
15283.015,0.12,0.582,0.787,1.01,-2.14,-0.82,0,2
15283.031,0.117,0.584,0.79,0.55,-2.04,-1.04,0,2
15283.031,0.112,0.582,0.792,0.49,-1.98,-0.79,0,2
15283.046,0.111,0.576,0.794,0.95,-1.95,-0.31,0,2
15283.046,0.11,0.575,0.797,1.92,-2.04,0.18,0,2
15283.062,0.114,0.573,0.799,3.23,-2.17,0.55,0,2
15283.078,0.116,0.569,0.801,4.46,-2.35,0.82,0,2
15283.078,0.117,0.568,0.798,5.37,-2.59,0.85,0,2
15283.093,0.121,0.566,0.793,6.16,-3.14,0.76,0,2
15283.109,0.123,0.566,0.792,6.56,-4.03,0.82,0,2
15283.125,0.124,0.567,0.79,6.71,-4.61,0.82,0,2
15283.125,0.126,0.566,0.787,6.62,-4.79,0.92,0,2
15283.14,0.127,0.565,0.787,6.41,-4.55,0.89,0,2
15283.14,0.128,0.561,0.791,6.71,-4.06,1.13,0,2
15283.156,0.13,0.56,0.795,7.23,-3.6,1.46,0,2
15283.171,0.132,0.558,0.796,7.9,-3.3,1.56,0,2
15283.171,0.135,0.556,0.799,8.67,-3.27,1.8,0,2
15283.187,0.14,0.556,0.798,9.19,-3.36,1.95,0,2
15283.187,0.143,0.556,0.793,9.31,-3.63,1.68,0,2
15283.203,0.147,0.559,0.788,9.16,-3.85,1.4,0,2
15283.218,0.15,0.565,0.784,8.39,-3.94,0.7,0,2
15283.218,0.154,0.57,0.78,7.51,-3.85,0.12,0,2
15283.234,0.153,0.575,0.776,6.59,-3.6,-0.15,0,2
15283.25,0.153,0.583,0.773,5.86,-3.17,-0.34,0,2
15283.25,0.154,0.586,0.772,5.46,-2.41,-0.37,0,2
15283.265,0.153,0.589,0.773,5.46,-1.5,-0.06,0,2
15283.281,0.152,0.594,0.77,5.71,-0.52,0.34,0,2
15283.281,0.152,0.599,0.771,5.71,0.46,0.64,0,2
15283.296,0.152,0.604,0.768,5.77,1.07,0.79,0,2
15283.312,0.15,0.605,0.767,5.77,1.4,1.16,0,2
15283.312,0.147,0.609,0.764,5.8,1.62,1.68,0,2
15283.328,0.145,0.614,0.762,5.52,1.68,2.23,0,2
15283.328,0.146,0.613,0.761,5.16,2.01,2.78,0,2
15283.343,0.148,0.615,0.76,4.61,2.29,3.2,0,2
15283.359,0.152,0.62,0.764,4.21,2.75,3.42,0,2
15283.359,0.158,0.622,0.767,3.94,3.45,3.63,0,2
15283.375,0.165,0.628,0.773,3.72,4.49,3.66,0,2
15283.39,0.154,0.629,0.778,3.57,5.34,3.6,0,2
15283.39,0.152,0.624,0.783,3.23,5.43,4.15,0,2
15283.406,0.153,0.632,0.792,3.33,4.85,4.7,0,2
15283.421,0.15,0.637,0.791,3.85,3.72,5.22,0,2
15283.421,0.145,0.642,0.789,3.63,2.44,5.58,0,2
15283.437,0.141,0.647,0.786,2.96,1.22,5.95,0,2
15283.437,0.136,0.65,0.784,2.11,0.18,6.59,0,2
15283.453,0.132,0.641,0.785,1.28,-0.49,7.54,0,2
15283.468,0.135,0.632,0.788,0.89,-0.76,8.58,0,2
15283.468,0.136,0.625,0.79,1.25,-0.67,9.09,0,2
15283.5,0.138,0.612,0.79,3.72,-1.25,9.67,0,2
15283.5,0.138,0.607,0.784,4.64,-2.17,9.55,0,2
15283.515,0.14,0.608,0.776,5.01,-3.27,9.34,0,2
15283.531,0.142,0.609,0.767,4.67,-4.43,8.94,0,2
15283.531,0.142,0.607,0.756,3.81,-5.37,8.45,0,2
15283.546,0.144,0.601,0.75,2.84,-6.01,8.12,0,2
15283.546,0.15,0.596,0.746,2.23,-5.95,7.9,0,2
15283.562,0.151,0.588,0.742,2.38,-5.37,7.42,0,2
15283.578,0.156,0.585,0.739,4.03,-3.6,6.59,0,2
15283.578,0.158,0.583,0.734,4.88,-2.96,6.32,0,2
15283.593,0.162,0.583,0.731,5.46,-2.44,5.71,0,2
15283.609,0.166,0.583,0.726,5.28,-1.86,4.79,0,2
15283.609,0.169,0.589,0.723,4.43,-1.37,3.91,0,2
15283.625,0.167,0.595,0.724,3.08,-0.67,2.78,0,2
15283.64,0.165,0.595,0.725,1.65,0.12,1.8,0,2
15283.64,0.163,0.594,0.732,0.55,0.49,1.04,0,2
15283.656,0.159,0.599,0.74,0.24,0.73,0.43,0,2
15283.671,0.159,0.596,0.743,0.55,0.82,0.06,0,2
15283.671,0.157,0.595,0.747,1.31,1.1,-0.24,0,2
15283.687,0.159,0.598,0.749,2.14,1.31,-0.64,0,2
15283.687,0.156,0.601,0.748,2.69,1.77,-1.1,0,2
15283.703,0.158,0.605,0.747,2.81,2.17,-1.62,0,2
15283.718,0.159,0.606,0.748,2.53,2.35,-2.08,0,2
15283.718,0.158,0.613,0.753,1.74,2.72,-2.66,0,2
15283.734,0.158,0.618,0.758,0.55,3.11,-3.42,0,2
15283.75,0.158,0.615,0.76,-0.43,3.33,-4.0,0,2
15283.765,0.156,0.619,0.765,-0.92,3.48,-4.0,0,2
15283.765,0.154,0.622,0.774,-1.25,3.57,-3.91,0,2
15283.781,0.156,0.619,0.779,-1.1,3.42,-3.88,0,2
15283.781,0.154,0.621,0.781,-0.67,3.27,-3.69,0,2
15283.796,0.156,0.622,0.783,-0.4,2.93,-3.66,0,2
15283.812,0.157,0.621,0.787,0.0,2.23,-3.48,0,2
15283.812,0.159,0.622,0.786,0.27,1.34,-3.17,0,2
15283.828,0.161,0.622,0.783,0.15,0.27,-3.17,0,2
15283.828,0.164,0.619,0.779,-0.06,-0.82,-3.23,0,2
15283.843,0.167,0.618,0.773,-0.46,-1.8,-3.14,0,2
15283.859,0.17,0.617,0.769,-0.79,-2.41,-3.2,0,2
15283.859,0.172,0.618,0.765,-1.22,-2.47,-3.66,0,2
15283.875,0.171,0.62,0.761,-1.65,-2.17,-4.09,0,2
15283.89,0.167,0.625,0.759,-2.11,-1.95,-4.06,0,2
15283.89,0.167,0.626,0.757,-2.62,-1.95,-3.97,0,2
15283.906,0.165,0.627,0.756,-2.87,-2.04,-3.6,0,2
15283.921,0.165,0.628,0.756,-2.66,-2.2,-3.14,0,2
15283.921,0.17,0.626,0.753,-2.17,-2.29,-2.96,0,2
15283.937,0.168,0.625,0.748,-1.68,-2.23,-2.81,0,2
15283.953,0.169,0.625,0.745,-1.31,-2.11,-2.44,0,2
15283.953,0.171,0.625,0.743,-1.31,-1.86,-1.95,0,2
15283.968,0.17,0.626,0.739,-1.65,-1.53,-1.86,0,2
15283.968,0.168,0.629,0.74,-2.01,-1.04,-1.95,0,2
15283.984,0.168,0.63,0.738,-2.69,-0.4,-2.14,0,2
15284.0,0.164,0.635,0.74,-3.36,0.24,-2.08,0,2
15284.015,0.162,0.633,0.747,-3.63,1.19,-1.04,0,2
15284.031,0.162,0.632,0.747,-3.11,1.46,-0.46,0,2
15284.031,0.16,0.632,0.751,-2.41,1.8,0.03,0,2
15284.046,0.158,0.638,0.751,-2.04,2.32,0.4,0,2
15284.046,0.15,0.645,0.752,-2.29,3.05,0.76,0,2
15284.062,0.141,0.647,0.757,-3.14,3.66,1.22,0,2
15284.078,0.137,0.646,0.762,-4.27,3.72,1.92,0,2
15284.078,0.136,0.64,0.768,-4.82,3.33,2.9,0,2
15284.093,0.138,0.628,0.767,-4.46,2.84,3.6,0,2
15284.109,0.141,0.62,0.766,-3.3,2.69,4.09,0,2
15284.109,0.144,0.615,0.762,-2.29,3.42,4.3,0,2
15284.125,0.145,0.611,0.756,-1.8,4.21,4.64,0,2
15284.14,0.145,0.606,0.759,-1.98,5.22,4.73,0,2
15284.14,0.147,0.599,0.764,-2.5,6.1,4.82,0,2
15284.156,0.151,0.593,0.768,-3.17,6.5,4.7,0,2
15284.171,0.15,0.591,0.773,-3.69,6.53,4.21,0,2
15284.171,0.146,0.588,0.778,-4.18,6.26,3.85,0,2
15284.187,0.145,0.585,0.779,-4.85,5.68,3.54,0,2
15284.187,0.147,0.581,0.781,-5.43,5.31,3.2,0,2
15284.203,0.146,0.577,0.782,-5.86,4.94,2.72,0,2
15284.218,0.148,0.576,0.78,-5.98,4.76,2.29,0,2
15284.218,0.148,0.572,0.778,-5.83,4.64,1.86,0,2
15284.234,0.151,0.568,0.774,-5.4,4.3,1.59,0,2
15284.25,0.152,0.566,0.771,-4.88,4.0,1.5,0,2
15284.25,0.156,0.563,0.766,-4.49,4.18,1.31,0,2
15284.265,0.162,0.558,0.766,-4.15,4.64,1.07,0,2
15284.281,0.164,0.56,0.767,-4.12,5.22,0.43,0,2
15284.281,0.164,0.563,0.769,-4.33,5.58,-0.09,0,2
15284.296,0.164,0.566,0.774,-4.94,5.55,-0.55,0,2
15284.296,0.164,0.571,0.78,-5.58,5.43,-1.37,0,2
15284.312,0.161,0.576,0.783,-6.23,5.13,-2.08,0,2
15284.328,0.154,0.579,0.791,-6.93,5.01,-2.53,0,2
15284.328,0.145,0.578,0.801,-7.35,4.73,-3.05,0,2
15284.343,0.138,0.58,0.813,-7.48,4.3,-3.23,0,2
15284.359,0.133,0.574,0.822,-6.78,3.81,-3.39,0,2
15284.359,0.132,0.564,0.828,-5.62,2.87,-3.75,0,2
15284.375,0.129,0.563,0.831,-4.18,1.5,-4.09,0,2
15284.39,0.126,0.565,0.834,-2.99,-0.15,-4.49,0,2
15284.39,0.123,0.566,0.832,-2.44,-1.83,-4.82,0,2
15284.406,0.126,0.567,0.826,-2.5,-3.45,-5.43,0,2
15284.406,0.127,0.568,0.821,-3.05,-4.79,-6.26,0,2
15284.421,0.124,0.571,0.825,-3.88,-6.16,-6.99,0,2
15284.437,0.122,0.578,0.817,-4.36,-7.63,-7.45,0,2
15284.437,0.118,0.573,0.814,-4.03,-8.42,-7.35,0,2
15284.453,0.115,0.58,0.814,-4.46,-9.61,-6.84,0,2
15284.468,0.119,0.568,0.809,-3.72,-10.68,-6.41,0,2
15284.468,0.119,0.562,0.797,-2.81,-11.81,-6.53,0,2
15284.484,0.122,0.562,0.79,-2.11,-12.85,-7.02,0,2
15284.5,0.125,0.556,0.788,-1.53,-13.61,-7.48,0,2
15284.5,0.131,0.551,0.782,-1.22,-14.53,-7.97,0,2
15284.515,0.138,0.551,0.773,-1.65,-14.95,-8.33,0,2
15284.531,0.145,0.544,0.764,-1.89,-14.59,-8.42,0,2
15284.531,0.154,0.54,0.759,-1.77,-13.28,-8.42,0,2
15284.546,0.161,0.541,0.758,-1.37,-11.38,-8.51,0,2
15284.546,0.168,0.54,0.757,-1.04,-9.4,-8.94,0,2
15284.562,0.175,0.541,0.758,-0.92,-6.32,-10.5,0,2
15284.578,0.179,0.544,0.761,-0.55,-5.74,-11.57,0,2
15284.578,0.181,0.549,0.76,0.27,-5.28,-12.54,0,2
15284.593,0.176,0.571,0.753,0.34,-4.94,-13.28,0,2
15284.609,0.171,0.588,0.755,-0.76,-4.55,-13.7,0,2
15284.609,0.165,0.6,0.76,-2.41,-4.33,-13.61,0,2
15284.625,0.158,0.609,0.765,-4.03,-4.49,-13.18,0,2
15284.64,0.157,0.615,0.774,-5.01,-4.55,-12.3,0,2
15284.64,0.155,0.615,0.781,-4.7,-4.67,-11.66,0,2
15284.656,0.15,0.624,0.783,-3.66,-4.88,-11.44,0,2
15284.671,0.143,0.635,0.784,-2.32,-5.01,-11.2,0,2
15284.671,0.135,0.645,0.784,-1.5,-5.04,-10.5,0,2
15284.687,0.124,0.658,0.789,-1.28,-4.94,-9.31,0,2
15284.687,0.12,0.662,0.792,-1.53,-4.91,-7.48,0,2
15284.703,0.119,0.665,0.798,-1.89,-5.16,-5.16,0,2
15284.718,0.12,0.667,0.807,-2.11,-5.65,-3.36,0,2
15284.718,0.115,0.665,0.813,-2.14,-6.47,-2.17,0,2
15284.734,0.115,0.662,0.816,-2.17,-7.9,-1.4,0,2
15284.75,0.113,0.659,0.819,-2.14,-8.97,-0.43,0,2
15284.75,0.111,0.649,0.82,-2.38,-10.01,0.67,0,2
15284.765,0.115,0.635,0.819,-2.44,-11.17,1.56,0,2
15284.781,0.119,0.616,0.816,-2.11,-11.84,2.14,0,2
15284.781,0.122,0.602,0.816,-1.74,-12.12,2.59,0,2
15284.796,0.123,0.582,0.815,-1.28,-12.39,2.5,0,2
15284.812,0.121,0.575,0.819,-1.31,-12.24,2.2,0,2
15284.812,0.116,0.573,0.824,-2.17,-12.21,1.62,0,2
15284.828,0.119,0.558,0.829,-3.51,-12.6,0.95,0,2
15284.843,0.125,0.541,0.833,-4.15,-13.34,0.52,0,2
15284.843,0.131,0.528,0.833,-3.63,-14.5,-0.31,0,2
15284.859,0.135,0.515,0.829,-1.98,-16.05,-1.71,0,2
15284.859,0.138,0.511,0.819,-0.06,-18.16,-3.48,0,2
15284.875,0.141,0.506,0.805,1.92,-20.26,-5.01,0,2
15284.89,0.147,0.498,0.791,2.87,-22.61,-6.81,0,2
15284.89,0.151,0.488,0.778,3.02,-24.93,-8.73,0,2
15284.906,0.155,0.483,0.761,3.14,-26.25,-10.38,0,2
15284.921,0.162,0.478,0.752,2.17,-26.67,-13.03,0,2
15284.921,0.169,0.47,0.743,0.18,-26.18,-16.27,0,2
15284.937,0.176,0.474,0.738,-2.53,-25.12,-19.96,0,2
15284.953,0.185,0.478,0.735,-6.26,-24.11,-24.6,0,2
15284.953,0.191,0.474,0.734,-9.77,-23.26,-29.39,0,2
15284.968,0.181,0.483,0.74,-12.36,-22.46,-33.14,0,2
15284.968,0.17,0.49,0.75,-13.98,-22.25,-34.91,0,2
15284.984,0.162,0.494,0.761,-14.71,-22.77,-36.04,0,2
15285.0,0.149,0.515,0.769,-14.53,-22.92,-37.6,0,2
15285.0,0.138,0.534,0.778,-14.4,-22.8,-38.88,0,2
15285.015,0.127,0.538,0.786,-13.95,-22.86,-38.85,0,2
15285.031,0.123,0.563,0.789,-13.31,-22.4,-38.88,0,2
15285.031,0.118,0.586,0.791,-13.03,-21.21,-39.58,0,2
15285.046,0.117,0.591,0.795,-13.43,-20.11,-40.8,0,2
15285.046,0.109,0.608,0.793,-14.07,-18.68,-42.12,0,2
15285.062,0.101,0.623,0.791,-15.53,-16.36,-42.91,0,2
15285.078,0.095,0.628,0.793,-17.4,-13.61,-42.39,0,2
15285.078,0.089,0.627,0.795,-19.1,-10.71,-39.92,0,2
15285.093,0.088,0.621,0.802,-20.2,-8.09,-36.23,0,2
15285.109,0.095,0.603,0.81,-19.75,-5.98,-32.99,0,2
15285.109,0.098,0.589,0.812,-17.06,-3.94,-31.56,0,2
15285.125,0.101,0.587,0.805,-12.91,-1.19,-31.68,0,2
15285.14,0.102,0.583,0.794,-9.22,2.26,-32.44,0,2
15285.14,0.104,0.584,0.783,-6.35,6.96,-33.2,0,2
15285.156,0.099,0.592,0.769,-5.1,12.54,-34.0,0,2
15285.156,0.095,0.6,0.764,-5.52,18.34,-34.18,0,2
15285.171,0.076,0.619,0.776,-6.59,23.5,-33.2,0,2
15285.187,0.063,0.622,0.783,-8.51,26.15,-30.37,0,2
15285.203,0.057,0.621,0.797,-10.74,26.95,-26.43,0,2
15285.203,0.035,0.617,0.811,-11.2,25.51,-22.1,0,2
15285.218,0.031,0.607,0.817,-10.35,22.28,-16.69,0,2
15285.218,0.038,0.595,0.817,-8.67,18.83,-11.93,0,2
15285.234,0.039,0.584,0.824,-6.56,15.87,-8.88,0,2
15285.25,0.044,0.575,0.82,-5.16,13.46,-7.14,0,2
15285.25,0.047,0.573,0.819,-4.67,12.57,-5.77,0,2
15285.265,0.037,0.574,0.825,-4.27,12.27,-4.27,0,2
15285.281,0.032,0.568,0.833,-3.85,10.96,-1.68,0,2
15285.281,0.031,0.56,0.841,-2.93,8.7,1.37,0,2
15285.296,0.038,0.559,0.846,-1.31,5.74,4.0,0,2
15285.296,0.045,0.554,0.85,0.76,2.69,5.22,0,2
15285.312,0.053,0.559,0.858,2.56,-0.76,5.4,0,2
15285.328,0.054,0.559,0.856,4.18,-5.25,5.68,0,2
15285.328,0.061,0.558,0.854,5.01,-11.02,6.5,0,2
15285.343,0.07,0.561,0.854,4.46,-17.73,7.29,0,2
15285.359,0.085,0.549,0.852,2.32,-24.51,7.57,0,2
15285.375,0.096,0.542,0.834,-1.07,-30.18,6.78,0,2
15285.375,0.1,0.543,0.82,-5.4,-32.62,4.73,0,2
15285.39,0.11,0.54,0.833,-8.97,-32.81,2.66,0,2
15285.39,0.106,0.537,0.837,-11.72,-32.5,0.7,0,2
15285.406,0.107,0.54,0.851,-12.91,-32.14,-0.06,0,2
15285.421,0.11,0.527,0.859,-10.71,-32.78,0.64,0,2
15285.421,0.116,0.508,0.832,-6.74,-34.27,2.11,0,2
15285.437,0.132,0.5,0.819,-3.33,-35.86,2.99,0,2
15285.437,0.149,0.498,0.812,0.52,-36.87,2.5,0,2
15285.453,0.153,0.497,0.779,1.77,-37.26,0.21,0,2
15285.468,0.148,0.518,0.771,-2.11,-35.0,-3.54,0,2
15285.468,0.144,0.528,0.773,-7.72,-30.98,-6.99,0,2
15285.484,0.126,0.54,0.78,-13.89,-25.33,-9.31,0,2
15285.5,0.11,0.555,0.805,-19.29,-18.16,-10.13,0,2
15285.5,0.101,0.548,0.831,-21.91,-11.2,-9.86,0,2
15285.515,0.094,0.545,0.856,-20.6,-5.43,-8.48,0,2
15285.531,0.09,0.535,0.872,-15.63,-1.65,-6.68,0,2
15285.531,0.086,0.526,0.876,-7.81,-0.49,-4.3,0,2
15285.546,0.088,0.521,0.868,8.45,-3.75,0.55,0,2
15285.562,0.103,0.514,0.847,12.94,-5.95,1.34,0,2
15285.562,0.12,0.504,0.815,14.31,-7.39,0.67,0,2
15285.578,0.136,0.498,0.776,12.79,-7.6,-1.16,0,2
15285.578,0.137,0.511,0.773,9.58,-6.41,-3.81,0,2
15285.593,0.123,0.527,0.791,5.95,-3.81,-5.77,0,2
15285.609,0.111,0.545,0.818,3.48,-1.34,-6.62,0,2
15285.609,0.102,0.553,0.84,3.33,0.37,-6.5,0,2
15285.625,0.094,0.576,0.87,4.36,0.73,-5.25,0,2
15285.64,0.092,0.585,0.882,6.23,-0.67,-3.02,0,2
15285.64,0.097,0.579,0.884,7.78,-3.23,-0.64,0,2
15285.656,0.109,0.569,0.878,9.13,-6.23,1.04,0,2
15285.671,0.126,0.56,0.86,9.67,-8.51,1.77,0,2
15285.671,0.136,0.547,0.836,9.25,-9.89,1.28,0,2
15285.687,0.145,0.534,0.812,8.58,-10.41,0.31,0,2
15285.703,0.153,0.532,0.79,8.09,-10.38,-0.52,0,2
15285.703,0.157,0.531,0.772,7.39,-9.83,-1.13,0,2
15285.718,0.155,0.535,0.765,6.41,-8.7,-1.46,0,2
15285.718,0.156,0.537,0.764,6.53,-7.17,-1.16,0,2
15285.734,0.152,0.545,0.775,7.05,-5.07,-0.31,0,2
15285.75,0.144,0.551,0.793,8.03,-2.41,1.1,0,2
15285.75,0.144,0.558,0.819,9.4,0.98,2.38,0,2
15285.765,0.139,0.556,0.833,11.69,4.21,3.45,0,2
15285.781,0.134,0.558,0.85,13.82,6.16,4.27,0,2
15285.781,0.136,0.552,0.853,16.69,6.41,4.73,0,2
15285.796,0.136,0.541,0.843,19.65,5.52,4.58,0,2
15285.796,0.131,0.544,0.822,21.15,3.72,3.63,0,2
15285.812,0.132,0.553,0.804,20.14,1.19,1.62,0,2
15285.828,0.133,0.561,0.791,17.79,-1.1,-0.67,0,2
15285.828,0.134,0.572,0.772,15.26,-2.9,-2.29,0,2
15285.843,0.132,0.59,0.771,12.33,-3.94,-2.72,0,2
15285.859,0.132,0.602,0.769,10.07,-4.64,-2.32,0,2
15285.859,0.133,0.612,0.771,8.03,-4.52,-1.77,0,2
15285.875,0.134,0.618,0.776,5.83,-4.64,-0.98,0,2
15285.89,0.132,0.619,0.78,3.54,-4.91,0.21,0,2
15285.89,0.136,0.61,0.777,1.16,-5.43,1.28,0,2
15285.906,0.14,0.602,0.778,-1.28,-5.86,2.11,0,2
15285.921,0.143,0.597,0.775,-3.69,-6.41,2.38,0,2
15285.921,0.148,0.594,0.775,-6.74,-7.08,1.98,0,2
15285.937,0.152,0.584,0.773,-9.74,-7.11,1.16,0,2
15285.953,0.156,0.573,0.773,-11.66,-6.41,0.58,0,2
15285.953,0.16,0.568,0.777,-12.36,-5.04,0.27,0,2
15285.968,0.166,0.564,0.782,-12.42,-2.99,0.03,0,2
15285.968,0.168,0.555,0.788,-11.69,-0.64,-0.27,0,2
15285.984,0.167,0.548,0.796,-10.19,1.68,-0.58,0,2
15286.0,0.158,0.548,0.808,-7.97,3.75,-0.82,0,2
15286.0,0.148,0.551,0.817,-5.13,5.16,-0.49,0,2
15286.015,0.14,0.55,0.825,-1.8,6.2,0.52,0,2
15286.031,0.131,0.55,0.831,1.59,6.5,1.77,0,2
15286.031,0.124,0.554,0.833,4.27,5.98,2.59,0,2
15286.046,0.118,0.554,0.829,5.83,4.58,2.81,0,2
15286.046,0.117,0.555,0.826,6.74,2.53,2.69,0,2
15286.062,0.118,0.56,0.823,7.2,0.27,2.62,0,2
15286.078,0.121,0.565,0.819,7.63,-1.62,2.81,0,2
15286.078,0.124,0.57,0.812,8.42,-2.96,3.33,0,2
15286.093,0.128,0.575,0.807,9.49,-3.78,4.18,0,2
15286.109,0.134,0.579,0.802,10.28,-4.64,4.97,0,2
15286.109,0.138,0.582,0.797,10.56,-5.58,5.34,0,2
15286.125,0.145,0.584,0.79,10.13,-6.47,5.4,0,2
15286.14,0.149,0.586,0.781,9.22,-7.26,5.25,0,2
15286.14,0.152,0.589,0.776,7.72,-7.6,4.91,0,2
15286.156,0.153,0.589,0.771,6.1,-7.63,4.79,0,2
15286.156,0.156,0.593,0.77,4.3,-7.6,4.7,0,2
15286.171,0.157,0.592,0.77,2.53,-7.29,4.49,0,2
15286.187,0.159,0.59,0.77,0.98,-6.9,4.64,0,2
15286.187,0.162,0.587,0.771,-0.31,-6.38,4.88,0,2
15286.203,0.167,0.584,0.772,-1.01,-5.71,4.97,0,2
15286.218,0.167,0.579,0.776,-1.37,-4.79,4.91,0,2
15286.218,0.169,0.577,0.779,-1.68,-3.85,4.67,0,2
15286.234,0.167,0.574,0.782,-1.89,-2.96,4.3,0,2
15286.25,0.167,0.57,0.785,-1.56,-2.2,4.18,0,2
15286.25,0.169,0.567,0.787,-0.89,-1.56,4.27,0,2
15286.265,0.171,0.567,0.787,-0.03,-0.49,4.03,0,2
15286.281,0.172,0.567,0.787,0.95,0.58,3.85,0,2
15286.281,0.172,0.566,0.783,2.08,1.65,3.48,0,2
15286.296,0.168,0.566,0.783,2.5,2.56,3.02,0,2
15286.296,0.166,0.569,0.782,2.72,3.42,2.56,0,2
15286.312,0.165,0.573,0.782,2.84,4.12,2.35,0,2
15286.328,0.161,0.579,0.782,2.59,4.43,2.2,0,2
15286.328,0.159,0.582,0.779,2.04,4.61,1.89,0,2
15286.343,0.155,0.581,0.778,1.53,4.97,1.89,0,2
15286.359,0.155,0.584,0.777,1.1,5.25,2.32,0,2
15286.359,0.154,0.587,0.779,0.73,5.68,2.56,0,2
15286.375,0.156,0.585,0.779,0.43,6.1,2.96,0,2
15286.39,0.157,0.584,0.779,0.21,6.35,3.27,0,2
15286.39,0.16,0.585,0.779,0.0,6.87,3.36,0,2
15286.406,0.162,0.583,0.775,-0.61,7.26,3.23,0,2
15286.421,0.162,0.579,0.773,-1.4,7.66,2.84,0,2
15286.421,0.162,0.578,0.775,-2.38,8.15,2.32,0,2
15286.437,0.161,0.576,0.779,-3.39,8.73,1.62,0,2
15286.437,0.158,0.579,0.783,-3.81,9.31,1.13,0,2
15286.453,0.154,0.578,0.792,-3.81,9.55,0.95,0,2
15286.468,0.149,0.577,0.797,-3.2,9.52,1.13,0,2
15286.468,0.147,0.575,0.799,-2.32,9.28,1.56,0,2
15286.484,0.145,0.573,0.8,-1.53,8.97,1.83,0,2
15286.5,0.141,0.572,0.803,-1.25,8.51,1.86,0,2
15286.5,0.138,0.568,0.801,-1.4,7.54,1.59,0,2
15286.515,0.136,0.569,0.804,-1.56,6.59,1.37,0,2
15286.531,0.135,0.569,0.808,-0.82,4.3,0.79,0,2
15286.531,0.132,0.567,0.809,-0.06,3.54,0.82,0,2
15286.546,0.134,0.568,0.808,1.19,2.93,0.92,0,2
15286.562,0.134,0.569,0.807,2.26,2.47,1.01,0,2
15286.562,0.132,0.575,0.8,3.02,1.68,1.31,0,2
15286.578,0.134,0.577,0.8,3.33,0.85,1.65,0,2
15286.578,0.134,0.581,0.8,3.3,0.0,1.89,0,2
15286.593,0.135,0.581,0.796,3.08,-0.98,1.92,0,2
15286.609,0.138,0.581,0.792,2.84,-1.8,1.95,0,2
15286.609,0.14,0.581,0.792,2.62,-2.41,2.04,0,2
15286.625,0.139,0.58,0.789,2.2,-2.69,2.01,0,2
15286.64,0.143,0.578,0.789,1.95,-2.87,2.11,0,2
15286.64,0.142,0.577,0.789,1.83,-2.87,2.08,0,2
15286.656,0.144,0.578,0.79,1.95,-2.84,1.98,0,2
15286.671,0.144,0.577,0.792,2.17,-2.84,1.98,0,2
15286.671,0.144,0.578,0.79,2.2,-3.05,1.8,0,2
15286.687,0.147,0.575,0.787,2.35,-3.02,1.8,0,2
15286.687,0.148,0.577,0.788,2.59,-2.78,1.8,0,2
15286.703,0.147,0.579,0.789,3.02,-2.53,1.77,0,2
15286.718,0.143,0.582,0.79,3.08,-2.53,1.8,0,2
15286.718,0.14,0.589,0.796,3.36,-2.9,2.11,0,2
15286.734,0.138,0.59,0.795,3.6,-3.72,2.35,0,2
15286.75,0.139,0.589,0.793,3.69,-4.64,2.93,0,2
15286.75,0.141,0.586,0.79,3.45,-5.55,3.3,0,2
15286.765,0.145,0.585,0.782,2.9,-6.2,3.57,0,2
15286.781,0.149,0.585,0.775,2.29,-6.38,3.69,0,2
15286.781,0.155,0.582,0.773,1.5,-6.16,3.63,0,2
15286.796,0.16,0.582,0.773,0.73,-5.55,3.33,0,2
15286.796,0.162,0.583,0.77,0.09,-4.73,2.84,0,2
15286.812,0.163,0.581,0.772,-0.55,-3.91,2.41,0,2
15286.828,0.163,0.579,0.773,-0.95,-3.17,2.11,0,2
15286.828,0.163,0.577,0.775,-1.13,-2.26,1.62,0,2
15286.843,0.16,0.581,0.779,-0.95,-1.25,1.34,0,2
15286.859,0.16,0.585,0.783,-0.73,-0.61,1.34,0,2
15286.859,0.156,0.575,0.787,-0.95,-0.34,1.07,0,2
15286.875,0.155,0.573,0.792,-0.85,-0.55,0.85,0,2
15286.89,0.155,0.579,0.792,-1.1,-1.25,0.55,0,2
15286.89,0.154,0.576,0.791,-1.37,-1.71,0.12,0,2
15286.906,0.156,0.573,0.79,-1.01,-1.86,0.0,0,2
15286.906,0.157,0.576,0.788,-0.27,-2.08,0.0,0,2
15286.921,0.157,0.579,0.787,-0.15,-1.89,-0.12,0,2
15286.937,0.157,0.578,0.783,0.09,-1.83,-0.27,0,2
15286.937,0.157,0.578,0.779,0.27,-1.5,-0.4,0,2
15286.953,0.158,0.58,0.78,0.27,-1.1,-0.46,0,2
15286.968,0.16,0.582,0.777,0.15,-0.61,-0.58,0,2
15286.968,0.158,0.579,0.78,-0.03,-0.18,-0.7,0,2
15286.984,0.156,0.58,0.782,0.0,0.27,-0.92,0,2
15287.0,0.155,0.581,0.785,-0.09,0.37,-1.13,0,2
15287.0,0.155,0.581,0.786,-0.15,0.43,-1.16,0,2
15287.015,0.152,0.582,0.786,0.03,0.43,-1.13,0,2
15287.031,0.148,0.585,0.787,0.06,0.09,-1.04,0,2
15287.031,0.148,0.588,0.789,-0.18,-0.46,-0.92,0,2
15287.046,0.15,0.586,0.783,-0.76,-1.07,-1.1,0,2
15287.046,0.153,0.586,0.777,-1.31,-1.37,-1.04,0,2
15287.062,0.153,0.584,0.779,-1.8,-1.16,-0.73,0,2
15287.078,0.155,0.582,0.78,-2.44,-0.92,-0.64,0,2
15287.078,0.154,0.581,0.786,-2.81,-0.64,-0.55,0,2
15287.093,0.155,0.577,0.788,-2.81,-0.52,-0.55,0,2
15287.109,0.157,0.576,0.787,-2.5,-0.67,-0.82,0,2
15287.109,0.156,0.576,0.788,-2.35,-0.55,-1.01,0,2
15287.125,0.154,0.576,0.788,-2.11,-0.49,-1.25,0,2
15287.14,0.155,0.577,0.788,-1.71,-0.37,-1.4,0,2
15287.14,0.152,0.578,0.788,-1.25,-0.43,-1.4,0,2
15287.156,0.153,0.58,0.789,-1.31,-0.4,-1.62,0,2
15287.171,0.151,0.58,0.789,-1.19,-0.46,-1.59,0,2
15287.171,0.151,0.577,0.786,-0.98,-0.46,-1.43,0,2
15287.187,0.15,0.577,0.788,-0.98,-0.52,-1.22,0,2
15287.203,0.149,0.579,0.788,-1.37,-0.61,-1.28,0,2
15287.203,0.148,0.578,0.79,-1.56,-0.92,-1.34,0,2
15287.218,0.148,0.578,0.79,-1.62,-0.95,-1.25,0,2
15287.218,0.149,0.577,0.788,-1.56,-0.98,-1.13,0,2
15287.234,0.149,0.577,0.79,-1.46,-1.07,-1.16,0,2
15287.25,0.15,0.576,0.789,-1.13,-1.07,-1.25,0,2
15287.25,0.15,0.576,0.789,-1.04,-1.16,-1.43,0,2
15287.265,0.148,0.574,0.79,-0.98,-1.25,-1.5,0,2
15287.281,0.148,0.577,0.791,-0.89,-1.4,-1.4,0,2
15287.281,0.147,0.58,0.792,-0.89,-1.65,-1.25,0,2
15287.296,0.147,0.581,0.796,-0.95,-1.74,-0.76,0,2
15287.312,0.149,0.576,0.796,-0.85,-1.98,-0.49,0,2
15287.312,0.151,0.573,0.793,-0.58,-2.29,-0.27,0,2
15287.328,0.153,0.571,0.792,-0.55,-2.26,-0.37,0,2
15287.328,0.152,0.57,0.791,-0.49,-2.01,-0.61,0,2
15287.343,0.152,0.57,0.791,0.0,-1.62,-0.46,0,2
15287.359,0.152,0.569,0.792,0.64,-1.01,-0.4,0,2
15287.359,0.151,0.571,0.79,1.04,-0.55,-0.27,0,2
15287.375,0.15,0.574,0.79,1.62,-0.24,-0.52,0,2
15287.39,0.15,0.577,0.79,1.98,-0.06,-0.61,0,2
15287.39,0.15,0.579,0.79,2.32,0.12,-0.55,0,2
15287.406,0.148,0.582,0.789,2.59,0.21,-0.43,0,2
15287.421,0.145,0.583,0.785,2.62,0.12,-0.34,0,2
15287.421,0.144,0.584,0.785,2.32,0.12,-0.09,0,2
15287.437,0.146,0.589,0.783,1.53,-0.15,0.06,0,2
15287.437,0.148,0.583,0.784,0.82,-0.37,0.06,0,2
15287.453,0.15,0.581,0.782,0.34,-0.37,0.24,0,2
15287.468,0.149,0.579,0.784,-0.4,-0.09,0.37,0,2
15287.468,0.149,0.577,0.788,-0.89,-0.09,0.24,0,2
15287.484,0.146,0.576,0.793,-1.04,-0.31,0.0,0,2
15287.5,0.146,0.575,0.795,-0.92,-0.58,0.09,0,2
15287.5,0.148,0.575,0.799,0.46,-0.95,0.43,0,2
15287.515,0.146,0.575,0.798,1.53,-1.01,0.64,0,2
15287.531,0.146,0.571,0.797,2.35,-1.22,0.7,0,2
15287.531,0.148,0.573,0.794,3.27,-1.37,0.64,0,2
15287.546,0.15,0.58,0.788,3.72,-1.59,0.98,0,2
15287.546,0.153,0.589,0.789,3.42,-1.53,1.1,0,2
15287.562,0.153,0.594,0.789,3.02,-1.68,1.04,0,2
15287.578,0.152,0.588,0.782,2.93,-2.04,1.13,0,2
15287.578,0.154,0.581,0.777,2.47,-2.35,1.25,0,2
15287.593,0.156,0.579,0.774,1.16,-2.35,0.98,0,2
15287.609,0.157,0.577,0.776,-0.18,-2.01,0.49,0,2
15287.609,0.156,0.576,0.778,-0.58,-1.59,-0.18,0,2
15287.625,0.157,0.572,0.778,0.15,-0.92,-0.85,0,2
15287.64,0.151,0.573,0.783,0.79,-0.18,-1.1,0,2
15287.64,0.148,0.58,0.79,1.01,0.49,-1.22,0,2
15287.656,0.144,0.583,0.791,1.59,0.61,-1.31,0,2
15287.671,0.145,0.582,0.787,2.38,0.12,-0.98,0,2
15287.671,0.144,0.582,0.785,2.93,-0.4,-0.76,0,2
15287.687,0.145,0.592,0.791,2.38,-0.55,-0.46,0,2
15287.687,0.145,0.597,0.79,1.43,-0.73,-0.43,0,2
15287.703,0.143,0.59,0.788,1.53,-1.22,-0.15,0,2
15287.718,0.147,0.58,0.778,2.2,-1.8,-0.03,0,2
15287.718,0.148,0.577,0.772,1.92,-1.77,-0.27,0,2
15287.734,0.151,0.58,0.773,0.95,-1.37,-0.64,0,2
15287.75,0.149,0.584,0.78,0.27,-1.1,-0.67,0,2
15287.75,0.151,0.585,0.785,0.58,-0.95,-0.52,0,2
15287.765,0.153,0.582,0.784,1.22,-0.92,-0.67,0,2
15287.781,0.152,0.579,0.787,1.77,-0.76,-0.67,0,2
15287.781,0.15,0.586,0.787,1.92,-0.55,-0.85,0,2
15287.796,0.145,0.588,0.791,2.23,-0.52,-0.82,0,2
15287.812,0.143,0.594,0.792,2.56,-1.25,-0.43,0,2
15287.812,0.139,0.592,0.789,2.62,-2.26,-0.03,0,2
15287.828,0.139,0.594,0.787,2.04,-3.6,0.58,0,2
15287.843,0.143,0.597,0.786,1.19,-4.88,0.89,0,2
15287.843,0.143,0.592,0.782,0.37,-5.92,1.25,0,2
15287.859,0.145,0.592,0.776,-0.37,-6.62,1.56,0,2
15287.859,0.148,0.593,0.772,-1.46,-7.26,1.71,0,2
15287.875,0.153,0.594,0.765,-2.81,-7.32,1.53,0,2
15287.89,0.157,0.585,0.759,-4.21,-7.08,1.28,0,2
15287.89,0.169,0.589,0.761,-5.4,-5.77,1.13,0,2
15287.906,0.176,0.596,0.772,-6.44,-3.6,0.7,0,2
15287.921,0.173,0.588,0.775,-6.44,-1.59,0.09,0,2
15287.921,0.168,0.565,0.773,-5.07,-0.52,-0.15,0,2
15287.937,0.167,0.561,0.777,-4.61,0.67,-0.43,0,2
15287.953,0.158,0.573,0.792,-5.8,1.71,-1.01,0,2
15287.953,0.148,0.576,0.807,-5.83,1.65,-1.25,0,2
15287.968,0.139,0.579,0.815,-3.78,0.52,-0.09,0,2
15287.968,0.137,0.574,0.813,-1.04,-0.73,1.16,0,2
15287.984,0.133,0.575,0.81,0.34,-1.68,2.11,0,2
15288.0,0.133,0.574,0.806,1.22,-2.87,2.87,0,2
15288.0,0.137,0.576,0.797,2.5,-4.15,3.69,0,2
15288.015,0.148,0.581,0.789,3.33,-5.13,4.49,0,2
15288.031,0.157,0.586,0.783,3.23,-5.65,4.79,0,2
15288.031,0.163,0.589,0.774,2.59,-5.98,4.67,0,2
15288.046,0.173,0.59,0.765,1.65,-6.56,4.39,0,2
15288.062,0.188,0.607,0.767,-0.73,-5.86,3.63,0,2
15288.062,0.192,0.598,0.76,-3.14,-5.19,2.35,0,2
15288.078,0.194,0.585,0.75,-4.97,-4.21,1.13,0,2
15288.078,0.199,0.567,0.738,-5.98,-2.2,0.03,0,2
15288.093,0.197,0.565,0.745,-7.87,0.98,-1.71,0,2
15288.109,0.184,0.56,0.755,-9.19,4.36,-3.66,0,2
15288.109,0.17,0.562,0.769,-9.09,6.71,-4.76,0,2
15288.125,0.158,0.564,0.781,-8.39,7.81,-5.31,0,2
15288.14,0.146,0.58,0.802,-8.51,8.15,-5.65,0,2
15288.14,0.133,0.593,0.812,-9.4,7.23,-6.01,0,2
15288.156,0.124,0.594,0.817,-9.95,5.25,-5.04,0,2
15288.156,0.124,0.589,0.814,-9.8,2.29,-3.39,0,2
15288.171,0.128,0.585,0.808,-10.56,-0.21,-1.59,0,2
15288.187,0.139,0.572,0.805,-11.93,-2.32,-0.61,0,2
15288.203,0.151,0.563,0.807,-12.82,-3.85,-0.09,0,2
15288.203,0.165,0.555,0.799,-12.85,-4.79,-0.24,0,2
15288.218,0.174,0.537,0.792,-11.93,-4.58,-1.25,0,2
15288.218,0.179,0.544,0.793,-11.99,-2.93,-2.62,0,2
15288.234,0.175,0.538,0.794,-11.38,-0.7,-4.64,0,2
15288.25,0.161,0.539,0.797,-9.64,1.16,-5.62,0,2
15288.25,0.152,0.544,0.798,-7.26,2.08,-5.83,0,2
15288.265,0.146,0.552,0.807,-6.1,2.5,-5.8,0,2
15288.281,0.141,0.563,0.815,-5.95,2.38,-5.43,0,2
15288.281,0.136,0.564,0.821,-5.68,1.28,-4.94,0,2
15288.296,0.135,0.565,0.825,-5.43,-0.67,-4.24,0,2
15288.312,0.134,0.562,0.824,-5.4,-2.66,-3.81,0,2
15288.312,0.134,0.557,0.822,-5.74,-4.61,-3.75,0,2
15288.328,0.137,0.562,0.82,-6.93,-6.26,-3.97,0,2
15288.328,0.142,0.553,0.813,-8.0,-7.66,-4.79,0,2
15288.343,0.145,0.542,0.805,-8.21,-8.73,-5.52,0,2
15288.359,0.153,0.543,0.8,-8.3,-8.94,-5.86,0,2
15288.359,0.156,0.546,0.801,-8.61,-8.24,-6.44,0,2
15288.375,0.155,0.539,0.805,-8.3,-7.23,-6.81,0,2
15288.39,0.156,0.544,0.812,-7.57,-6.5,-6.16,0,2
15288.39,0.156,0.547,0.824,-6.5,-6.13,-5.74,0,2
15288.406,0.153,0.543,0.83,-4.97,-6.29,-5.34,0,2
15288.421,0.151,0.542,0.829,-2.84,-7.05,-4.7,0,2
15288.421,0.156,0.544,0.825,-1.56,-7.39,-4.27,0,2
15288.437,0.157,0.542,0.816,-1.19,-7.2,-4.61,0,2
15288.453,0.156,0.538,0.803,-0.98,-6.9,-4.85,0,2
15288.453,0.16,0.538,0.792,-1.1,-6.16,-4.91,0,2
15288.468,0.161,0.542,0.788,-2.47,-4.52,-4.88,0,2
15288.468,0.163,0.543,0.79,-4.12,-2.5,-4.94,0,2
15288.484,0.164,0.543,0.794,-5.37,-0.52,-4.97,0,2
15288.5,0.161,0.543,0.806,-5.68,1.68,-4.52,0,2
15288.5,0.154,0.539,0.822,-5.34,1.8,-4.46,0,2
15288.515,0.15,0.537,0.832,-3.97,1.83,-4.52,0,2
15288.531,0.135,0.533,0.835,-1.92,1.62,-4.0,0,2
15288.531,0.128,0.535,0.835,0.09,1.22,-3.11,0,2
15288.546,0.125,0.54,0.836,1.65,0.52,-2.11,0,2
15288.562,0.125,0.542,0.84,2.87,-0.09,-1.07,0,2
15288.562,0.123,0.544,0.847,4.33,-1.04,0.24,0,2
15288.578,0.122,0.545,0.863,6.81,-2.56,2.23,0,2
15288.578,0.13,0.544,0.866,9.7,-5.19,4.24,0,2
15288.593,0.149,0.543,0.86,13.15,-7.14,5.83,0,2
15288.609,0.168,0.535,0.872,18.59,-8.0,7.35,0,2
15288.609,0.193,0.526,0.879,24.69,-9.52,8.03,0,2
15288.625,0.249,0.523,0.884,32.69,-10.56,8.27,0,2
15288.64,0.298,0.513,0.889,45.11,-9.49,7.93,0,2
15288.64,0.339,0.512,0.881,63.97,-4.46,5.01,0,2
15288.656,0.351,0.513,0.895,87.19,3.94,1.65,0,2
15288.671,0.354,0.513,0.933,119.08,9.95,2.14,0,2
15288.671,0.29,0.526,0.889,169.01,4.64,7.35,0,2
15288.687,0.372,0.743,0.854,224.19,5.28,9.19,0,2
15288.687,0.289,0.852,0.764,275.31,15.11,1.83,0,2
15288.703,0.132,0.888,0.681,317.06,25.97,-11.87,0,2
15288.718,0.028,1.12,0.622,342.72,37.81,-26.89,0,2
15288.718,-0.093,1.429,0.563,348.09,51.73,-39.89,0,2
15288.734,-0.277,1.663,0.537,325.27,60.18,-45.01,0,2
15288.75,-0.406,1.666,0.539,293.01,52.64,-37.87,0,2
15288.75,-0.454,1.631,0.464,262.28,33.88,-16.48,0,2
15288.765,-0.435,1.616,0.403,234.23,13.46,11.32,0,2
15288.781,-0.396,1.537,0.362,207.53,-5.43,40.1,0,2
15288.781,-0.339,1.448,0.299,179.42,-19.68,67.72,0,2
15288.796,-0.265,1.364,0.246,150.55,-25.33,92.01,0,2
15288.812,-0.183,1.276,0.239,124.52,-21.64,109.87,0,2
15288.812,-0.131,1.184,0.267,104.92,-13.31,119.05,0,2
15288.828,-0.085,1.091,0.318,95.68,-4.03,122.47,0,2
15288.828,-0.047,1.038,0.37,99.19,5.19,123.36,0,2
15288.843,-0.032,1.035,0.406,113.25,12.76,123.26,0,2
15288.859,-0.018,1.042,0.423,131.84,17.21,123.45,0,2
15288.859,-0.013,1.068,0.422,149.17,17.4,125.43,0,2
15288.875,-0.029,1.131,0.392,160.25,13.89,128.85,0,2
15288.89,-0.008,1.155,0.324,161.99,7.05,135.99,0,2
15288.89,0.031,1.179,0.281,154.48,1.1,148.35,0,2
15288.906,0.038,1.248,0.276,140.45,-2.99,163.61,0,2
15288.906,0.091,1.244,0.245,121.22,-9.22,177.4,0,2
15288.921,0.115,1.204,0.216,97.69,-14.92,189.43,0,2
15288.937,0.067,1.239,0.229,73.92,-20.42,197.15,0,2
15288.937,0.065,1.212,0.237,53.41,-32.26,202.55,0,2
15288.953,0.086,1.164,0.202,37.35,-46.51,211.58,0,2
15288.968,0.034,1.173,0.195,29.42,-56.34,220.56,0,2
15288.984,0.062,1.126,0.141,29.57,-66.32,225.53,0,2
15288.984,0.098,1.035,0.081,29.02,-71.96,232.06,0,2
15289.0,0.062,1.026,0.033,28.57,-71.66,237.43,0,2
15289.0,0.098,0.991,0.001,29.36,-70.04,238.32,0,2
15289.015,0.143,0.929,-0.024,31.89,-62.75,239.72,0,2
15289.031,0.131,0.883,-0.045,35.58,-49.44,242.74,0,2
15289.031,0.11,0.806,-0.048,39.46,-37.32,249.58,0,2
15289.046,0.098,0.704,-0.068,42.51,-29.33,259.96,0,2
15289.062,0.078,0.59,-0.101,41.47,-26.03,272.5,0,2
15289.062,0.075,0.423,-0.13,38.15,-28.02,288.28,0,2
15289.078,0.105,0.232,-0.162,35.62,-35.95,306.47,0,2
15289.078,0.127,0.018,-0.196,34.58,-47.61,327.37,0,2
15289.093,0.171,-0.166,-0.235,35.62,-62.96,345.26,0,2
15289.109,0.214,-0.359,-0.293,36.53,-81.12,356.64,0,2
15289.109,0.221,-0.552,-0.358,31.16,-100.89,357.13,0,2
15289.125,0.331,-0.764,-0.415,17.58,-120.12,352.52,0,2
15289.14,0.524,-0.896,-0.468,-1.74,-136.75,338.79,0,2
15289.14,0.681,-1.014,-0.514,-19.9,-144.99,314.52,0,2
15289.156,0.773,-1.155,-0.543,-32.69,-146.89,286.39,0,2
15289.171,0.832,-1.303,-0.548,-38.21,-144.41,260.69,0,2
15289.171,0.894,-1.411,-0.527,-33.91,-139.04,238.93,0,2
15289.187,0.908,-1.449,-0.495,-17.7,-130.62,218.45,0,2
15289.203,0.952,-1.402,-0.497,7.66,-121.31,193.0,0,2
15289.203,1.018,-1.232,-0.516,31.22,-111.33,158.45,0,2
15289.218,1.093,-0.995,-0.525,47.88,-100.47,112.8,0,2
15289.218,1.179,-0.758,-0.539,55.15,-88.72,60.12,0,2
15289.234,1.236,-0.552,-0.601,61.53,-66.77,9.03,0,2
15289.25,1.217,-0.346,-0.527,71.63,-34.49,-35.07,0,2
15289.25,1.144,-0.125,-0.387,86.03,-2.81,-69.67,0,2
15289.265,1.058,0.054,-0.293,105.84,24.84,-92.47,0,2
15289.281,0.958,0.202,-0.247,126.5,48.52,-105.62,0,2
15289.281,0.855,0.305,-0.2,143.74,66.07,-108.13,0,2
15289.296,0.779,0.354,-0.189,153.63,75.62,-100.19,0,2
15289.312,0.726,0.358,-0.192,151.65,76.69,-84.38,0,2
15289.312,0.689,0.288,-0.209,137.91,71.2,-64.03,0,2
15289.328,0.694,0.139,-0.23,111.58,60.73,-40.38,0,2
15289.328,0.731,-0.049,-0.258,74.59,48.43,-15.87,0,2
15289.343,0.767,-0.236,-0.277,29.27,37.57,8.61,0,2
15289.359,0.85,-0.434,-0.297,-21.03,26.46,29.51,0,2
15289.359,0.947,-0.603,-0.307,-70.41,14.89,43.09,0,2
15289.375,1.031,-0.716,-0.333,-108.25,5.68,44.74,0,2
15289.39,1.07,-0.75,-0.348,-129.52,1.37,30.82,0,2
15289.39,1.08,-0.722,-0.352,-133.4,3.14,3.14,0,2
15289.406,1.09,-0.636,-0.35,-121.52,9.09,-31.68,0,2
15289.421,1.063,-0.51,-0.343,-93.05,22.16,-63.6,0,2
15289.421,1.006,-0.331,-0.33,-54.93,42.42,-88.56,0,2
15289.437,0.937,-0.154,-0.302,-17.61,67.2,-104.8,0,2
15289.437,0.856,-0.01,-0.287,10.07,90.24,-110.11,0,2
15289.453,0.768,0.087,-0.284,22.98,107.88,-102.69,0,2
15289.468,0.707,0.144,-0.287,19.99,118.72,-84.75,0,2
15289.468,0.67,0.143,-0.286,-28.5,116.34,-36.04,0,2
15289.484,0.686,0.092,-0.265,-65.86,105.23,-13.58,0,2
15289.5,0.713,0.002,-0.257,-104.1,89.79,4.21,0,2
15289.515,0.815,-0.263,-0.219,-135.9,73.12,16.91,0,2
15289.515,0.846,-0.392,-0.193,-157.6,58.41,23.87,0,2
15289.531,0.884,-0.518,-0.172,-167.55,46.39,25.3,0,2
15289.531,0.921,-0.63,-0.153,-165.23,38.48,22.06,0,2
15289.546,0.982,-0.677,-0.13,-153.08,33.66,12.67,0,2
15289.562,1.025,-0.679,-0.113,-132.6,34.06,-2.9,0,2
15289.562,1.042,-0.67,-0.105,-108.77,40.07,-23.04,0,2
15289.578,1.062,-0.607,-0.088,-86.52,50.2,-45.66,0,2
15289.593,1.086,-0.534,-0.068,-65.74,64.0,-68.24,0,2
15289.593,1.091,-0.457,-0.043,-47.0,80.69,-89.75,0,2
15289.609,1.076,-0.394,-0.006,-30.55,98.15,-108.71,0,2
15289.609,1.061,-0.316,0.04,-14.74,114.75,-125.46,0,2
15289.625,1.012,-0.228,0.093,2.2,129.58,-139.9,0,2
15289.64,0.956,-0.165,0.142,19.81,139.56,-150.52,0,2
15289.64,0.906,-0.099,0.182,37.78,144.69,-156.1,0,2
15289.656,0.856,-0.02,0.213,56.43,144.99,-157.93,0,2
15289.671,0.826,0.044,0.232,74.98,139.26,-156.59,0,2
15289.671,0.816,0.116,0.245,90.55,129.28,-151.86,0,2
15289.687,0.82,0.194,0.237,101.63,118.14,-144.44,0,2
15289.703,0.832,0.262,0.214,107.12,107.09,-136.33,0,2
15289.703,0.838,0.341,0.195,106.45,98.06,-129.03,0,2
15289.718,0.831,0.419,0.189,100.28,90.09,-123.69,0,2
15289.718,0.817,0.493,0.189,90.12,82.19,-119.27,0,2
15289.734,0.779,0.573,0.199,76.51,74.07,-114.6,0,2
15289.75,0.749,0.633,0.21,61.19,63.02,-109.1,0,2
15289.75,0.719,0.672,0.212,47.09,49.5,-101.9,0,2
15289.765,0.688,0.717,0.226,33.42,34.58,-92.75,0,2
15289.781,0.668,0.761,0.235,19.75,17.33,-82.52,0,2
15289.781,0.665,0.773,0.223,8.61,-0.15,-71.63,0,2
15289.796,0.678,0.775,0.208,-0.4,-15.66,-60.46,0,2
15289.796,0.714,0.751,0.185,-6.62,-27.86,-49.2,0,2
15289.812,0.751,0.725,0.161,-9.7,-35.52,-39.22,0,2
15289.828,0.78,0.714,0.147,-10.25,-37.97,-32.29,0,2
15289.843,0.798,0.702,0.144,-9.06,-37.35,-28.53,0,2
15289.843,0.81,0.689,0.139,-5.89,-35.31,-26.8,0,2
15289.859,0.812,0.685,0.139,-0.89,-31.77,-25.18,0,2
15289.859,0.82,0.679,0.139,5.46,-28.14,-23.22,0,2
15289.875,0.829,0.668,0.129,12.63,-24.26,-20.97,0,2
15289.89,0.839,0.648,0.117,19.1,-20.54,-18.04,0,2
15289.89,0.849,0.639,0.109,23.32,-17.21,-14.71,0,2
15289.906,0.864,0.638,0.105,24.69,-14.5,-12.05,0,2
15289.921,0.884,0.636,0.102,23.5,-12.45,-10.16,0,2
15289.921,0.897,0.631,0.1,19.75,-10.83,-9.31,0,2
15289.937,0.904,0.623,0.099,14.68,-9.19,-8.76,0,2
15289.937,0.912,0.619,0.098,8.88,-7.63,-8.24,0,2
15289.953,0.921,0.608,0.094,4.24,-5.1,-7.39,0,2
15289.968,0.92,0.586,0.1,0.55,-2.44,-6.2,0,2
15289.968,0.93,0.571,0.099,-1.89,0.09,-4.79,0,2
15289.984,0.931,0.551,0.103,-2.69,3.57,-3.75,0,2
15290.0,0.93,0.541,0.115,-3.88,7.66,-2.56,0,2
15290.0,0.927,0.537,0.129,-5.52,11.32,-1.62,0,2
15290.015,0.921,0.529,0.141,-7.11,14.25,-0.7,0,2
15290.031,0.911,0.531,0.153,-8.48,16.57,-0.24,0,2
15290.031,0.896,0.527,0.162,-10.1,17.98,0.03,0,2
15290.046,0.876,0.527,0.171,-11.84,18.07,0.09,0,2
15290.062,0.853,0.526,0.183,-13.55,16.97,0.4,0,2
15290.062,0.831,0.522,0.189,-14.65,15.08,1.59,0,2
15290.078,0.823,0.509,0.191,-15.56,13.03,3.6,0,2
15290.093,0.822,0.492,0.191,-16.72,11.29,5.89,0,2
15290.093,0.828,0.472,0.197,-18.01,9.98,7.48,0,2
15290.109,0.837,0.452,0.218,-18.13,9.74,8.09,0,2
15290.109,0.833,0.399,0.227,-15.26,9.0,6.16,0,2
15290.125,0.837,0.387,0.226,-10.74,7.29,1.89,0,2
15290.14,0.852,0.392,0.232,-3.54,6.59,-3.85,0,2
15290.14,0.848,0.398,0.227,6.81,7.08,-10.19,0,2
15290.156,0.837,0.425,0.204,17.43,8.09,-15.02,0,2
15290.171,0.827,0.459,0.176,25.21,8.64,-18.71,0,2
15290.171,0.821,0.518,0.156,28.84,8.97,-21.42,0,2
15290.187,0.775,0.829,0.144,14.1,6.96,-21.03,0,2
15290.203,0.747,0.612,0.1,3.39,5.55,-15.96,0,2
15290.203,0.768,0.595,0.132,-10.96,1.56,-8.7,0,2
15290.218,0.754,0.787,0.124,-16.36,0.49,0.67,0,2
15290.218,0.757,0.691,0.153,-26.7,-4.49,-0.21,0,2
15290.234,0.754,0.593,0.146,-35.22,-8.09,3.81,0,2
15290.25,0.775,0.611,0.161,-41.14,-10.07,6.62,0,2
15290.25,0.793,0.52,0.169,-41.96,-10.77,6.38,0,2
15290.265,0.791,0.487,0.16,-40.22,-9.7,4.94,0,2
15290.281,0.795,0.481,0.154,-35.95,-7.57,3.36,0,2
15290.281,0.796,0.45,0.157,-28.44,-3.66,2.04,0,2
15290.296,0.799,0.438,0.159,-20.72,0.15,0.43,0,2
15290.312,0.804,0.445,0.15,-13.61,3.81,-1.56,0,2
15290.312,0.804,0.47,0.149,-8.06,7.69,-3.97,0,2
15290.328,0.785,0.49,0.145,-4.97,10.71,-6.44,0,2
15290.328,0.775,0.519,0.13,-3.94,13.18,-7.84,0,2
15290.343,0.767,0.553,0.133,-4.09,15.08,-7.97,0,2
15290.359,0.759,0.568,0.116,-4.7,17.12,-5.31,0,2
15290.359,0.776,0.563,0.111,-8.55,19.71,-0.76,0,2
15290.375,0.798,0.562,0.144,-11.29,23.77,4.39,0,2
15290.39,0.822,0.548,0.155,-9.8,28.35,8.0,0,2
15290.39,0.834,0.557,0.128,-9.25,31.43,8.85,0,2
15290.406,0.848,0.545,0.131,-12.15,33.81,8.76,0,2
15290.421,0.859,0.512,0.147,-13.03,36.77,8.09,0,2
15290.421,0.858,0.506,0.169,-9.58,39.03,5.98,0,2
15290.437,0.855,0.5,0.182,-2.41,41.23,3.45,0,2
15290.453,0.845,0.503,0.189,5.98,44.5,1.71,0,2
15290.453,0.835,0.515,0.199,18.56,50.14,1.62,0,2
15290.468,0.833,0.517,0.215,23.41,52.06,2.72,0,2
15290.468,0.832,0.514,0.228,27.53,52.4,4.15,0,2
15290.484,0.838,0.512,0.245,32.72,51.0,4.27,0,2
15290.5,0.85,0.488,0.263,38.76,48.49,2.56,0,2
15290.515,0.844,0.484,0.258,43.03,45.05,-0.55,0,2
15290.515,0.842,0.49,0.257,43.79,41.41,-3.14,0,2
15290.531,0.832,0.509,0.256,40.77,37.6,-4.76,0,2
15290.531,0.821,0.518,0.26,34.88,33.45,-5.92,0,2
15290.546,0.81,0.547,0.273,26.4,29.54,-5.77,0,2
15290.562,0.805,0.572,0.288,15.72,26.25,-3.91,0,2
15290.562,0.8,0.575,0.3,3.81,23.07,-1.28,0,2
15290.578,0.787,0.56,0.314,-7.23,19.9,1.53,0,2
15290.578,0.79,0.523,0.336,-15.02,16.6,5.13,0,2
15290.593,0.805,0.488,0.347,-15.93,14.1,7.63,0,2
15290.609,0.819,0.424,0.345,-11.02,12.36,7.87,0,2
15290.609,0.826,0.384,0.333,-2.29,11.47,6.2,0,2
15290.625,0.823,0.369,0.317,8.45,10.96,2.66,0,2
15290.64,0.818,0.38,0.302,17.43,10.68,-0.98,0,2
15290.64,0.807,0.416,0.287,20.69,9.89,-3.51,0,2
15290.656,0.794,0.425,0.277,15.99,8.12,-4.61,0,2
15290.671,0.796,0.427,0.282,4.09,5.71,-5.1,0,2
15290.671,0.804,0.399,0.287,-9.46,3.23,-5.37,0,2
15290.687,0.819,0.35,0.289,-17.55,1.98,-5.16,0,2
15290.703,0.842,0.341,0.29,-19.75,2.08,-5.95,0,2
15290.703,0.856,0.322,0.289,-17.73,4.3,-8.27,0,2
15290.718,0.891,0.313,0.355,-14.71,8.76,-11.84,0,2
15290.718,0.916,0.302,0.492,-2.81,17.52,-18.65,0,2
15290.734,0.897,0.305,0.547,24.66,31.07,-27.01,0,2
15290.75,0.844,0.307,0.533,52.31,42.33,-32.93,0,2
15290.765,0.804,0.354,0.523,66.07,45.26,-35.4,0,2
15290.765,0.745,0.428,0.532,64.73,41.14,-35.62,0,2
15290.781,0.705,0.499,0.495,54.66,29.69,-34.09,0,2
15290.781,0.691,0.53,0.417,42.24,15.72,-31.4,0,2
15290.796,0.692,0.522,0.349,30.34,4.55,-28.17,0,2
15290.812,0.712,0.514,0.299,18.68,-2.84,-25.64,0,2
15290.812,0.739,0.496,0.258,9.43,-6.53,-25.21,0,2
15290.828,0.759,0.471,0.239,3.17,-6.96,-27.13,0,2
15290.828,0.77,0.454,0.233,-0.73,-5.89,-29.82,0,2
15290.843,0.786,0.449,0.238,-2.38,-4.0,-32.62,0,2
15290.859,0.79,0.437,0.248,-2.84,-1.56,-35.04,0,2
15290.859,0.8,0.425,0.264,-3.81,0.18,-37.26,0,2
15290.875,0.802,0.408,0.277,-4.88,1.65,-39.92,0,2
15290.89,0.801,0.39,0.294,-6.2,2.81,-43.4,0,2
15290.89,0.788,0.383,0.324,-6.62,3.17,-46.6,0,2
15290.906,0.76,0.392,0.339,-6.26,2.62,-48.68,0,2
15290.921,0.754,0.407,0.359,-4.91,2.08,-50.17,0,2
15290.921,0.741,0.425,0.372,-1.56,2.17,-51.33,0,2
15290.937,0.721,0.466,0.364,3.3,2.93,-51.42,0,2
15290.953,0.713,0.515,0.349,8.82,3.88,-50.54,0,2
15290.953,0.708,0.556,0.34,13.0,5.62,-49.1,0,2
15290.968,0.687,0.571,0.335,13.95,7.72,-46.21,0,2
15290.968,0.674,0.601,0.336,10.8,9.4,-43.0,0,2
15290.984,0.672,0.646,0.343,5.34,11.2,-40.77,0,2
15291.0,0.671,0.677,0.353,-1.86,15.11,-39.31,0,2
15291.0,0.652,0.712,0.373,-15.2,20.02,-38.67,0,2
15291.015,0.612,0.772,0.43,-32.32,21.97,-39.83,0,2
15291.031,0.571,0.769,0.475,-43.52,20.33,-38.54,0,2
15291.031,0.541,0.745,0.519,-50.2,14.83,-32.17,0,2
15291.046,0.531,0.713,0.548,-48.8,8.09,-22.31,0,2
15291.062,0.526,0.666,0.576,-39.83,2.66,-12.39,0,2
15291.062,0.536,0.623,0.607,-24.69,-2.35,-5.71,0,2
15291.078,0.577,0.621,0.599,-3.91,-6.78,-1.1,0,2
15291.078,0.581,0.641,0.561,9.13,-9.0,2.11,0,2
15291.093,0.561,0.637,0.545,7.54,-11.41,0.61,0,2
15291.109,0.585,0.624,0.548,2.62,-16.97,-8.33,0,2
15291.109,0.602,0.574,0.543,3.05,-23.8,-19.17,0,2
15291.125,0.605,0.567,0.518,6.01,-31.16,-27.16,0,2
15291.14,0.616,0.571,0.479,11.78,-38.91,-33.2,0,2
15291.14,0.629,0.572,0.448,17.94,-46.63,-37.78,0,2
15291.156,0.646,0.572,0.398,24.05,-53.5,-41.26,0,2
15291.171,0.66,0.575,0.341,30.0,-58.29,-43.95,0,2
15291.171,0.672,0.591,0.286,35.89,-60.34,-46.27,0,2
15291.187,0.672,0.603,0.223,41.2,-61.04,-48.55,0,2
15291.187,0.673,0.608,0.15,45.2,-61.34,-50.6,0,2
15291.203,0.679,0.622,0.072,46.51,-60.58,-52.64,0,2
15291.218,0.682,0.633,0.004,44.43,-57.89,-54.93,0,2
15291.218,0.685,0.645,-0.047,39.06,-53.01,-58.2,0,2
15291.234,0.671,0.649,-0.085,31.59,-45.99,-60.67,0,2
15291.25,0.649,0.673,-0.109,23.13,-37.05,-61.56,0,2
15291.25,0.588,0.815,-0.111,9.46,-28.32,-60.55,0,2
15291.265,0.615,1.264,-0.156,-13.64,-20.6,-54.81,0,2
15291.281,0.546,0.844,-0.139,-55.06,-12.18,-55.7,0,2
15291.281,0.504,0.474,0.019,-92.53,-3.54,-37.57,0,2
15291.296,0.65,1.095,0.083,-94.15,-0.37,-28.84,0,2
15291.312,0.616,0.673,0.063,-76.82,8.64,-35.55,0,2
15291.312,0.572,0.681,0.1,-76.27,18.68,-34.36,0,2
15291.328,0.587,0.769,0.137,-65.0,26.67,-35.65,0,2
15291.343,0.57,0.693,0.162,-47.03,35.0,-37.45,0,2
15291.343,0.556,0.715,0.195,-35.46,41.32,-38.15,0,2
15291.359,0.55,0.749,0.223,-27.04,46.66,-37.78,0,2
15291.359,0.53,0.721,0.25,-19.9,51.39,-37.51,0,2
15291.375,0.532,0.633,0.277,-9.34,55.88,-37.35,0,2
15291.39,0.53,0.67,0.289,8.82,61.49,-38.21,0,2
15291.39,0.52,0.687,0.307,24.02,66.13,-42.02,0,2
15291.406,0.487,0.703,0.314,33.48,70.41,-44.1,0,2
15291.421,0.46,0.785,0.314,38.27,72.97,-44.5,0,2
15291.421,0.428,0.897,0.315,38.18,72.94,-44.37,0,2
15291.437,0.398,0.988,0.306,5.62,62.65,-37.57,0,2
15291.453,0.374,1.098,0.29,-27.41,54.78,-32.62,0,2
15291.453,0.35,1.13,0.282,-64.82,47.24,-26.89,0,2
15291.468,0.349,1.023,0.303,-88.84,43.46,-24.78,0,2
15291.468,0.376,0.98,0.304,-97.2,45.84,-24.41,0,2
15291.484,0.382,0.954,0.376,-103.58,51.3,-21.94,0,2
15291.5,0.383,0.938,0.417,-101.57,57.83,-22.34,0,2
15291.5,0.37,0.923,0.475,-96.84,64.33,-20.94,0,2
15291.515,0.352,0.936,0.538,-94.85,68.97,-16.72,0,2
15291.531,0.332,0.923,0.596,-92.14,71.81,-13.52,0,2
15291.531,0.31,0.89,0.643,-86.18,72.79,-9.19,0,2
15291.546,0.314,0.869,0.67,-75.75,72.45,-2.72,0,2
15291.562,0.321,0.855,0.675,-60.91,72.36,1.13,0,2
15291.562,0.302,0.853,0.667,-45.66,73.21,3.2,0,2
15291.578,0.283,0.836,0.668,-33.3,73.15,4.15,0,2
15291.593,0.264,0.813,0.681,-23.19,70.59,5.65,0,2
15291.593,0.266,0.801,0.668,-14.98,66.53,7.02,0,2
15291.609,0.264,0.776,0.642,-10.07,62.5,6.1,0,2
15291.609,0.247,0.736,0.628,-10.13,58.14,3.3,0,2
15291.625,0.246,0.741,0.628,-15.26,52.58,0.82,0,2
15291.64,0.245,0.729,0.621,-21.85,46.88,-1.28,0,2
15291.656,0.225,0.731,0.614,-29.39,42.24,-3.54,0,2
15291.656,0.211,0.77,0.641,-40.38,37.02,-6.26,0,2
15291.671,0.191,0.772,0.668,-50.51,31.34,-8.03,0,2
15291.671,0.17,0.76,0.704,-56.37,26.34,-9.03,0,2
15291.687,0.174,0.763,0.735,-55.15,22.03,-9.77,0,2
15291.703,0.183,0.749,0.753,-47.49,19.01,-10.8,0,2
15291.703,0.172,0.729,0.747,-36.68,16.88,-12.05,0,2
15291.718,0.171,0.719,0.735,-25.45,13.92,-12.88,0,2
15291.718,0.183,0.706,0.712,-15.99,10.38,-12.97,0,2
15291.734,0.18,0.699,0.683,-9.8,6.78,-13.03,0,2
15291.75,0.192,0.687,0.646,-7.32,3.05,-12.45,0,2
15291.765,0.204,0.678,0.617,-7.57,0.4,-11.63,0,2
15291.765,0.205,0.688,0.596,-10.96,-1.83,-10.96,0,2
15291.781,0.224,0.714,0.567,-19.32,-4.52,-11.17,0,2
15291.781,0.23,0.717,0.553,-33.27,-6.41,-13.18,0,2
15291.796,0.227,0.724,0.58,-49.2,-7.93,-15.11,0,2
15291.796,0.252,0.725,0.639,-57.77,-8.18,-16.54,0,2
15291.812,0.26,0.703,0.676,-54.29,-7.11,-19.44,0,2
15291.828,0.249,0.681,0.684,-48.1,-6.01,-21.45,0,2
15291.828,0.254,0.679,0.691,-45.59,-4.76,-21.0,0,2
15291.843,0.263,0.665,0.715,-43.24,-3.3,-20.14,0,2
15291.859,0.269,0.645,0.724,-37.57,-2.59,-18.8,0,2
15291.859,0.279,0.638,0.722,-31.34,-2.69,-17.52,0,2
15291.875,0.285,0.623,0.721,-26.8,-2.75,-16.94,0,2
15291.89,0.288,0.616,0.727,-22.8,-2.87,-16.82,0,2
15291.89,0.304,0.63,0.703,-17.15,-2.32,-16.66,0,2
15291.906,0.313,0.629,0.671,-11.93,0.24,-16.82,0,2
15291.921,0.309,0.634,0.657,-10.04,4.03,-16.85,0,2
15291.921,0.298,0.682,0.651,-11.14,8.21,-16.39,0,2
15291.937,0.293,0.707,0.642,-13.92,12.94,-15.5,0,2
15291.953,0.273,0.716,0.664,-20.36,16.94,-13.92,0,2
15291.953,0.264,0.72,0.705,-27.47,19.5,-11.54,0,2
15291.968,0.264,0.71,0.741,-32.07,22.06,-9.28,0,2
15291.968,0.257,0.688,0.772,-33.48,24.87,-7.84,0,2
15291.984,0.243,0.662,0.793,-33.17,27.1,-6.56,0,2
15292.0,0.238,0.646,0.816,-32.44,28.44,-5.25,0,2
15292.0,0.234,0.621,0.841,-30.55,29.11,-4.06,0,2
15292.015,0.222,0.581,0.873,-27.19,29.15,-2.72,0,2
15292.031,0.21,0.574,0.908,-23.59,27.07,-1.65,0,2
15292.031,0.203,0.583,0.92,-19.44,22.71,-0.82,0,2
15292.046,0.198,0.581,0.925,-15.14,16.27,-0.34,0,2
15292.062,0.201,0.557,0.899,-11.47,8.3,0.06,0,2
15292.062,0.208,0.548,0.871,-8.91,0.64,0.43,0,2
15292.078,0.21,0.54,0.84,-5.89,-5.22,0.79,0,2
15292.078,0.211,0.546,0.821,-4.03,-8.97,0.79,0,2
15292.093,0.213,0.54,0.804,-3.27,-10.83,2.66,0,2
15292.109,0.215,0.472,0.789,-2.08,-10.44,4.33,0,2
15292.109,0.224,0.439,0.789,1.71,-8.33,2.78,0,2
15292.125,0.236,0.449,0.802,10.5,-5.25,1.07,0,2
15292.14,0.223,0.483,0.799,19.71,-4.27,-1.28,0,2
15292.14,0.194,0.542,0.775,23.01,-5.77,-4.82,0,2
15292.156,0.144,0.6,0.766,12.73,-9.86,-10.1,0,2
15292.171,0.131,0.588,0.783,-8.09,-15.9,-14.74,0,2
15292.171,0.143,0.577,0.794,-27.22,-22.13,-18.04,0,2
15292.187,0.147,0.576,0.815,-41.78,-27.1,-21.24,0,2
15292.203,0.152,0.57,0.835,-52.06,-30.43,-24.05,0,2
15292.203,0.156,0.559,0.851,-58.02,-31.19,-26.09,0,2
15292.218,0.161,0.535,0.875,-59.63,-29.05,-26.22,0,2
15292.218,0.158,0.514,0.942,-53.13,-25.64,-24.6,0,2
15292.234,0.117,0.553,1.018,-28.96,-22.49,-17.24,0,2
15292.25,0.14,0.601,1.025,0.06,-22.98,-5.25,0,2
15292.25,0.185,0.553,0.959,16.42,-26.03,1.04,0,2
15292.265,0.195,0.519,0.906,17.0,-27.62,0.89,0,2
15292.281,0.214,0.529,0.898,8.48,-27.71,-1.86,0,2
15292.281,0.241,0.5,0.911,-1.37,-27.59,-5.31,0,2
15292.296,0.201,0.47,0.909,-8.21,-29.15,-11.41,0,2
15292.296,0.21,0.602,0.986,1.56,-30.18,-6.59,0,2
15292.312,0.322,0.442,0.966,25.85,-35.16,2.62,0,2
15292.328,0.206,0.545,0.928,27.8,-50.66,-8.73,0,2
15292.328,0.317,0.595,0.905,10.07,-70.13,-17.67,0,2
15292.343,0.373,0.45,0.793,-12.33,-84.32,-35.13,0,2
15292.359,0.21,0.541,0.68,-34.67,-89.69,-47.33,0,2
15292.359,0.344,0.577,0.661,-42.12,-83.41,-34.64,0,2
15292.375,0.369,0.52,0.706,-53.16,-79.84,-34.33,0,2
15292.39,0.345,0.561,0.711,-58.93,-76.48,-30.06,0,2
15292.39,0.436,0.506,0.675,-59.69,-73.49,-29.08,0,2
15292.406,0.403,0.485,0.689,-55.45,-66.38,-32.41,0,2
15292.421,0.416,0.452,0.705,-44.25,-62.14,-33.91,0,2
15292.421,0.428,0.406,0.683,-17.82,-63.6,-37.78,0,2
15292.437,0.42,0.388,0.65,-7.81,-65.52,-39.86,0,2
15292.453,0.429,0.396,0.622,-3.36,-67.72,-44.16,0,2
15292.453,0.412,0.43,0.592,-3.54,-70.5,-48.55,0,2
15292.468,0.393,0.493,0.568,-11.17,-72.85,-52.64,0,2
15292.468,0.382,0.546,0.563,-24.35,-74.4,-56.79,0,2
15292.484,0.376,0.549,0.562,-36.84,-74.89,-59.27,0,2
15292.5,0.373,0.557,0.561,-47.94,-73.98,-59.05,0,2
15292.515,0.387,0.531,0.572,-56.15,-72.05,-58.99,0,2
15292.515,0.389,0.485,0.586,-59.18,-70.47,-60.88,0,2
15292.531,0.381,0.475,0.59,-56.83,-68.12,-63.88,0,2
15292.531,0.362,0.509,0.598,-53.13,-63.51,-67.35,0,2
15292.546,0.321,0.543,0.61,-51.45,-57.77,-70.41,0,2
15292.562,0.276,0.583,0.631,-51.39,-51.79,-70.65,0,2
15292.562,0.245,0.623,0.658,-51.94,-46.69,-67.54,0,2
15292.578,0.225,0.628,0.684,-51.97,-43.24,-62.29,0,2
15292.578,0.217,0.602,0.704,-49.84,-41.44,-56.06,0,2
15292.593,0.226,0.568,0.717,-44.47,-41.75,-51.82,0,2
15292.609,0.236,0.545,0.719,-36.81,-42.05,-51.64,0,2
15292.609,0.24,0.512,0.705,-28.2,-41.78,-53.68,0,2
15292.625,0.247,0.511,0.693,-20.87,-39.34,-56.25,0,2
15292.64,0.237,0.587,0.693,-19.07,-32.75,-60.76,0,2
15292.64,0.209,0.644,0.707,-21.91,-24.48,-64.33,0,2
15292.656,0.176,0.683,0.739,-27.22,-16.42,-63.2,0,2
15292.671,0.146,0.718,0.777,-32.93,-10.96,-58.11,0,2
15292.671,0.146,0.708,0.806,-35.71,-9.46,-51.03,0,2
15292.687,0.156,0.665,0.822,-33.69,-10.35,-44.86,0,2
15292.703,0.178,0.631,0.829,-28.5,-12.3,-40.83,0,2
15292.703,0.196,0.588,0.823,-22.03,-14.04,-39.7,0,2
15292.718,0.22,0.561,0.814,-17.06,-14.56,-40.99,0,2
15292.718,0.229,0.559,0.805,-15.44,-12.54,-44.68,0,2
15292.734,0.248,0.54,0.794,-16.14,-8.58,-48.04,0,2
15292.75,0.264,0.524,0.781,-19.29,-2.66,-50.26,0,2
15292.75,0.276,0.52,0.779,-23.07,4.7,-50.42,0,2
15292.765,0.27,0.524,0.793,-25.76,11.38,-49.07,0,2
15292.781,0.252,0.516,0.816,-25.97,15.63,-46.69,0,2
15292.781,0.238,0.513,0.849,-24.35,15.66,-43.58,0,2
15292.796,0.234,0.511,0.866,-20.39,13.12,-40.38,0,2
15292.812,0.225,0.503,0.864,-15.41,8.67,-38.15,0,2
15292.812,0.231,0.491,0.858,-11.38,3.36,-36.53,0,2
15292.828,0.254,0.507,0.842,-9.22,-0.61,-35.86,0,2
15292.828,0.271,0.518,0.821,-8.91,-1.62,-36.32,0,2
15292.843,0.28,0.513,0.806,-10.9,-0.76,-36.01,0,2
15292.859,0.277,0.535,0.808,-13.95,1.68,-35.13,0,2
15292.859,0.259,0.546,0.824,-17.21,4.73,-33.63,0,2
15292.875,0.239,0.538,0.847,-20.87,6.68,-31.86,0,2
15292.89,0.235,0.53,0.862,-23.59,7.14,-30.88,0,2
15292.89,0.234,0.525,0.87,-23.5,6.65,-30.98,0,2
15292.906,0.221,0.503,0.871,-21.52,4.94,-30.76,0,2
15292.921,0.22,0.507,0.866,-17.33,2.47,-29.76,0,2
15292.921,0.207,0.519,0.851,-11.51,0.61,-28.32,0,2
15292.937,0.192,0.527,0.831,-6.56,-0.52,-26.37,0,2
15292.937,0.173,0.548,0.809,-3.97,-0.61,-24.51,0,2
15292.953,0.143,0.573,0.798,-2.99,0.55,-23.19,0,2
15292.968,0.114,0.591,0.8,-3.81,2.26,-21.12,0,2
15292.968,0.107,0.592,0.809,-4.73,3.48,-17.58,0,2
15292.984,0.12,0.571,0.814,-3.51,4.43,-12.88,0,2
15293.0,0.143,0.549,0.818,-0.27,4.39,-8.48,0,2
15293.0,0.16,0.544,0.816,3.51,3.72,-6.01,0,2
15293.015,0.168,0.547,0.815,4.88,2.47,-5.43,0,2
15293.031,0.159,0.553,0.812,2.87,1.92,-6.1,0,2
15293.031,0.167,0.563,0.818,-1.46,2.56,-7.14,0,2
15293.046,0.168,0.552,0.826,-6.65,4.21,-7.02,0,2
15293.062,0.173,0.547,0.848,-11.66,7.66,-5.31,0,2
15293.062,0.174,0.533,0.868,-14.04,11.35,-3.11,0,2
15293.078,0.181,0.511,0.877,-12.48,13.86,-1.65,0,2
15293.078,0.179,0.505,0.871,-8.67,15.47,-1.62,0,2
15293.093,0.185,0.495,0.855,-4.97,15.5,-1.22,0,2
15293.109,0.189,0.511,0.831,-2.08,14.74,-1.01,0,2
15293.109,0.179,0.514,0.815,-1.25,12.94,-0.73,0,2
15293.125,0.168,0.518,0.812,-3.11,10.77,-0.49,0,2
15293.14,0.177,0.514,0.821,-7.23,10.16,-0.27,0,2
15293.156,0.173,0.501,0.838,-11.47,11.35,-0.61,0,2
15293.156,0.168,0.476,0.855,-13.89,12.7,-0.7,0,2
15293.171,0.169,0.46,0.867,-13.82,12.88,-0.61,0,2
15293.171,0.152,0.438,0.871,-11.72,12.45,-1.34,0,2
15293.187,0.148,0.426,0.878,-10.32,11.14,-2.47,0,2
15293.203,0.152,0.429,0.866,-9.13,9.52,-4.15,0,2
15293.203,0.165,0.396,0.837,-6.96,8.91,-6.74,0,2
15293.218,0.168,0.418,0.844,-8.21,9.64,-9.16,0,2
15293.218,0.162,0.461,0.867,-9.46,12.15,-9.46,0,2
15293.234,0.142,0.459,0.895,-9.25,14.83,-9.25,0,2
15293.25,0.119,0.467,0.927,-9.22,15.05,-7.75,0,2
15293.25,0.117,0.497,0.949,-6.84,13.61,-5.19,0,2
15293.265,0.101,0.503,0.947,-2.69,10.47,-2.32,0,2
15293.281,0.104,0.497,0.923,1.04,5.46,1.74,0,2
15293.281,0.12,0.493,0.888,3.85,0.24,5.01,0,2
15293.296,0.136,0.472,0.86,4.67,-3.63,4.73,0,2
15293.296,0.147,0.462,0.84,2.35,-6.65,1.59,0,2
15293.312,0.148,0.468,0.829,-3.14,-8.51,-1.8,0,2
15293.328,0.146,0.465,0.828,-8.03,-9.28,-3.57,0,2
15293.328,0.146,0.457,0.833,-11.9,-8.79,-3.42,0,2
15293.343,0.15,0.45,0.846,-14.86,-7.14,-2.35,0,2
15293.359,0.151,0.449,0.869,-14.95,-5.16,-1.07,0,2
15293.359,0.147,0.451,0.895,-12.91,-3.97,1.56,0,2
15293.375,0.142,0.453,0.911,-9.95,-3.85,5.1,0,2
15293.39,0.147,0.448,0.916,-6.01,-4.7,8.03,0,2
15293.39,0.152,0.439,0.915,-2.66,-5.77,9.03,0,2
15293.406,0.161,0.429,0.916,1.31,-9.83,6.47,0,2
15293.406,0.17,0.426,0.906,3.33,-11.69,5.34,0,2
15293.421,0.178,0.424,0.893,5.07,-12.76,4.06,0,2
15293.437,0.195,0.434,0.867,8.15,-12.54,2.99,0,2
15293.453,0.202,0.448,0.849,11.78,-11.17,2.75,0,2
15293.453,0.202,0.455,0.84,13.61,-9.13,2.41,0,2
15293.468,0.203,0.462,0.838,14.37,-6.93,1.56,0,2
15293.468,0.203,0.474,0.837,14.16,-5.65,0.64,0,2
15293.484,0.201,0.484,0.833,12.97,-4.61,-0.18,0,2
15293.5,0.208,0.49,0.82,11.78,-3.27,-0.34,0,2
15293.5,0.207,0.49,0.816,10.53,-1.56,0.03,0,2
15293.515,0.204,0.505,0.82,7.87,-0.21,0.46,0,2
15293.531,0.199,0.507,0.816,5.58,1.04,1.01,0,2
15293.531,0.189,0.509,0.823,2.93,1.92,1.65,0,2
15293.546,0.185,0.509,0.832,-0.37,1.89,1.92,0,2
15293.562,0.183,0.504,0.839,-3.69,1.19,1.4,0,2
15293.562,0.182,0.492,0.84,-6.78,-0.43,0.4,0,2
15293.578,0.183,0.487,0.843,-9.64,-2.14,-0.85,0,2
15293.578,0.182,0.486,0.849,-12.7,-3.48,-1.95,0,2
15293.593,0.182,0.481,0.848,-14.74,-4.7,-2.5,0,2
15293.609,0.184,0.479,0.849,-15.41,-5.25,-1.95,0,2
15293.609,0.183,0.471,0.854,-15.5,-4.82,-0.89,0,2
15293.625,0.189,0.457,0.861,-14.95,-3.85,0.37,0,2
15293.64,0.19,0.439,0.868,-13.95,-2.87,1.07,0,2
15293.64,0.192,0.428,0.875,-12.3,-2.38,0.7,0,2
15293.656,0.192,0.43,0.884,-11.17,-2.29,-0.37,0,2
15293.671,0.19,0.429,0.888,-9.77,-2.84,-1.22,0,2
15293.671,0.185,0.428,0.884,-7.51,-3.39,-1.59,0,2
15293.687,0.187,0.434,0.887,-5.52,-3.88,-1.71,0,2
15293.703,0.185,0.441,0.888,-3.48,-4.55,-2.01,0,2
15293.703,0.186,0.444,0.884,-1.59,-5.34,-1.89,0,2
15293.718,0.187,0.446,0.874,-0.15,-6.01,-1.83,0,2
15293.718,0.19,0.448,0.863,0.58,-6.29,-2.04,0,2
15293.734,0.191,0.452,0.856,0.89,-6.16,-2.23,0,2
15293.75,0.195,0.454,0.85,0.73,-5.8,-2.2,0,2
15293.75,0.198,0.459,0.846,0.06,-5.19,-2.14,0,2
15293.765,0.201,0.464,0.845,-0.95,-4.18,-2.14,0,2
15293.781,0.2,0.464,0.847,-2.08,-3.33,-1.92,0,2
15293.781,0.198,0.47,0.847,-3.08,-2.59,-1.4,0,2
15293.796,0.196,0.473,0.847,-4.36,-2.11,-0.43,0,2
15293.796,0.194,0.47,0.851,-5.74,-1.68,0.49,0,2
15293.812,0.192,0.464,0.855,-7.23,-1.56,1.16,0,2
15293.828,0.189,0.457,0.858,-8.76,-1.8,1.74,0,2
15293.843,0.191,0.446,0.863,-10.07,-2.32,1.71,0,2
15293.843,0.192,0.442,0.867,-10.86,-2.75,1.46,0,2
15293.859,0.19,0.44,0.869,-10.83,-3.27,1.28,0,2
15293.859,0.192,0.442,0.872,-10.5,-3.63,1.1,0,2
15293.875,0.194,0.443,0.871,-10.22,-3.75,0.85,0,2
15293.89,0.193,0.442,0.87,-9.86,-3.91,0.76,0,2
15293.89,0.194,0.443,0.87,-9.74,-3.94,0.95,0,2
15293.906,0.197,0.44,0.868,-9.49,-3.72,1.31,0,2
15293.921,0.199,0.435,0.867,-9.43,-3.3,2.04,0,2
15293.921,0.201,0.431,0.867,-9.52,-2.84,2.5,0,2
15293.937,0.205,0.425,0.871,-9.52,-2.38,2.59,0,2
15293.937,0.207,0.42,0.876,-9.31,-1.89,2.5,0,2
15293.953,0.205,0.414,0.881,-8.76,-1.59,2.08,0,2
15293.968,0.203,0.412,0.89,-7.42,-1.59,1.74,0,2
15293.968,0.2,0.41,0.896,-5.71,-1.95,1.37,0,2
15293.984,0.198,0.408,0.896,-3.66,-2.5,0.92,0,2
15294.0,0.2,0.409,0.892,-2.01,-3.23,0.18,0,2
15294.0,0.2,0.414,0.885,-0.82,-3.78,-0.4,0,2
15294.015,0.199,0.419,0.88,0.18,-4.03,-0.49,0,2
15294.031,0.2,0.424,0.875,1.01,-3.97,-0.27,0,2
15294.031,0.202,0.424,0.871,1.77,-3.36,0.03,0,2
15294.046,0.205,0.42,0.87,2.41,-2.35,0.31,0,2
15294.046,0.208,0.42,0.87,2.62,-1.53,0.37,0,2
15294.062,0.209,0.416,0.872,3.02,-0.73,0.24,0,2
15294.078,0.208,0.414,0.876,3.51,0.03,-0.06,0,2
15294.078,0.202,0.409,0.87,4.79,1.28,-0.55,0,2
15294.093,0.206,0.413,0.87,6.93,2.93,-1.13,0,2
15294.109,0.191,0.419,0.879,7.66,3.69,-1.04,0,2
15294.109,0.188,0.428,0.889,8.21,3.23,-0.49,0,2
15294.125,0.182,0.428,0.888,8.73,1.8,-0.55,0,2
15294.14,0.181,0.434,0.884,9.4,0.89,-1.07,0,2
15294.14,0.177,0.443,0.877,9.92,0.21,-1.04,0,2
15294.156,0.18,0.453,0.868,9.92,-0.27,-0.09,0,2
15294.156,0.187,0.46,0.859,8.7,-0.76,1.34,0,2
15294.171,0.198,0.467,0.85,6.81,-0.89,2.26,0,2
15294.187,0.21,0.466,0.841,4.7,-0.82,2.84,0,2
15294.187,0.218,0.465,0.836,2.08,-0.27,3.11,0,2
15294.203,0.231,0.461,0.839,-0.46,0.55,3.17,0,2
15294.218,0.234,0.454,0.845,-2.72,1.5,3.54,0,2
15294.218,0.229,0.443,0.852,-4.76,2.04,3.75,0,2
15294.234,0.222,0.432,0.855,-5.58,2.87,2.87,0,2
15294.25,0.209,0.434,0.859,-5.65,3.75,1.34,0,2
15294.25,0.197,0.44,0.866,-6.13,3.94,0.95,0,2
15294.265,0.193,0.45,0.871,-6.96,3.63,1.56,0,2
15294.281,0.186,0.444,0.874,-7.42,3.2,2.08,0,2
15294.281,0.183,0.441,0.878,-8.24,2.5,2.59,0,2
15294.296,0.184,0.436,0.88,-8.94,1.5,2.96,0,2
15294.296,0.188,0.426,0.882,-9.34,0.46,3.11,0,2
15294.312,0.195,0.415,0.883,-9.0,-0.43,2.84,0,2
15294.328,0.201,0.405,0.883,-8.21,-0.82,2.04,0,2
15294.328,0.204,0.402,0.887,-7.08,-0.89,1.34,0,2
15294.343,0.206,0.402,0.886,-5.4,-0.73,0.4,0,2
15294.359,0.2,0.396,0.895,-3.14,-0.21,-0.31,0,2
15294.359,0.191,0.397,0.902,0.09,0.0,-0.55,0,2
15294.375,0.185,0.399,0.909,3.51,-0.18,-0.46,0,2
15294.39,0.185,0.4,0.911,10.22,-2.44,-0.37,0,2
15294.39,0.186,0.401,0.906,12.94,-4.0,-0.52,0,2
15294.406,0.19,0.408,0.899,14.8,-5.13,-1.19,0,2
15294.421,0.197,0.417,0.886,15.96,-5.77,-2.04,0,2
15294.421,0.207,0.441,0.859,16.08,-6.01,-2.84,0,2
15294.437,0.213,0.454,0.844,15.14,-5.92,-3.69,0,2
15294.453,0.215,0.468,0.832,12.91,-5.25,-4.36,0,2
15294.453,0.211,0.48,0.828,9.77,-4.52,-4.7,0,2
15294.468,0.204,0.487,0.83,6.13,-3.81,-4.7,0,2
15294.468,0.197,0.484,0.835,2.38,-3.17,-4.27,0,2
15294.484,0.191,0.482,0.841,-1.4,-2.96,-3.69,0,2
15294.5,0.186,0.479,0.847,-4.94,-3.42,-3.2,0,2
15294.5,0.186,0.468,0.85,-7.93,-4.06,-2.35,0,2
15294.515,0.187,0.463,0.858,-10.93,-4.76,-1.56,0,2
15294.531,0.19,0.458,0.868,-13.73,-5.62,-0.89,0,2
15294.531,0.186,0.449,0.875,-14.77,-6.68,-0.09,0,2
15294.546,0.189,0.438,0.878,-14.98,-7.45,0.92,0,2
15294.546,0.191,0.428,0.883,-14.71,-8.0,1.62,0,2
15294.562,0.195,0.421,0.885,-13.86,-8.39,2.23,0,2
15294.578,0.2,0.412,0.883,-12.67,-8.55,2.59,0,2
15294.578,0.205,0.407,0.883,-11.54,-8.45,2.99,0,2
15294.593,0.209,0.404,0.881,-10.44,-7.81,3.27,0,2
15294.609,0.208,0.403,0.882,-9.22,-7.14,3.27,0,2
15294.609,0.213,0.409,0.884,-7.42,-6.56,3.45,0,2
15294.625,0.215,0.407,0.885,-4.21,-5.34,4.61,0,2
15294.64,0.221,0.407,0.884,-1.62,-3.81,5.65,0,2
15294.64,0.223,0.406,0.883,0.79,-2.44,6.26,0,2
15294.656,0.224,0.401,0.882,3.51,-1.31,6.41,0,2
15294.656,0.227,0.406,0.88,5.77,-0.64,6.07,0,2
15294.671,0.228,0.408,0.871,7.6,0.06,5.49,0,2
15294.687,0.23,0.412,0.863,8.7,1.16,4.97,0,2
15294.703,0.228,0.419,0.86,8.91,2.41,4.43,0,2
15294.703,0.223,0.422,0.856,9.03,3.48,4.0,0,2
15294.718,0.221,0.426,0.852,8.7,4.58,3.75,0,2
15294.718,0.217,0.432,0.856,7.42,5.65,3.02,0,2
15294.734,0.207,0.432,0.863,5.86,5.86,2.2,0,2
15294.75,0.199,0.436,0.871,4.55,5.28,1.77,0,2
15294.75,0.195,0.441,0.879,3.54,4.3,1.86,0,2
15294.765,0.194,0.438,0.886,2.93,3.02,2.08,0,2
15294.781,0.195,0.436,0.882,2.93,1.74,2.32,0,2
15294.781,0.198,0.43,0.881,3.14,0.58,2.75,0,2
15294.796,0.203,0.426,0.881,3.45,-0.4,2.81,0,2
15294.812,0.207,0.424,0.884,3.97,-1.31,2.62,0,2
15294.812,0.213,0.424,0.884,4.88,-2.04,2.44,0,2
15294.828,0.219,0.425,0.877,6.26,-2.53,1.92,0,2
15294.828,0.224,0.425,0.868,7.54,-2.84,1.22,0,2
15294.843,0.225,0.426,0.86,8.33,-2.59,0.49,0,2
15294.859,0.226,0.433,0.853,8.42,-1.83,-0.24,0,2
15294.859,0.224,0.441,0.851,8.03,-1.04,-0.89,0,2
15294.875,0.219,0.449,0.852,7.42,-0.34,-1.34,0,2
15294.89,0.217,0.454,0.851,6.62,0.12,-1.5,0,2
15294.89,0.214,0.458,0.853,5.37,0.52,-1.65,0,2
15294.906,0.209,0.458,0.855,3.85,0.58,-1.92,0,2
15294.921,0.202,0.453,0.861,2.99,0.21,-1.62,0,2
15294.921,0.201,0.451,0.863,1.95,-0.12,-1.07,0,2
15294.937,0.199,0.449,0.867,0.7,-0.52,-0.73,0,2
15294.953,0.198,0.443,0.871,0.34,-1.19,-0.46,0,2
15294.953,0.201,0.44,0.872,0.55,-1.95,0.09,0,2
15294.968,0.203,0.438,0.871,0.82,-2.47,0.03,0,2
15294.968,0.205,0.436,0.87,1.25,-2.84,-0.27,0,2
15294.984,0.208,0.44,0.867,1.68,-3.08,-0.31,0,2
15295.0,0.212,0.441,0.862,2.29,-3.14,-0.15,0,2
15295.0,0.212,0.443,0.86,2.66,-2.78,-0.03,0,2
15295.015,0.212,0.445,0.86,2.87,-2.32,0.03,0,2
15295.031,0.212,0.449,0.859,2.9,-1.8,0.21,0,2
15295.046,0.212,0.452,0.86,2.93,-1.65,0.49,0,2
15295.046,0.21,0.453,0.861,2.72,-1.65,0.7,0,2
15295.046,0.21,0.454,0.86,2.69,-1.71,0.89,0,2
15295.062,0.213,0.453,0.859,2.5,-1.77,1.31,0,2
15295.078,0.214,0.451,0.854,2.04,-2.17,1.34,0,2
15295.078,0.215,0.455,0.854,0.89,-2.29,0.95,0,2
15295.093,0.217,0.453,0.853,-0.06,-2.26,0.89,0,2
15295.109,0.219,0.451,0.85,-1.01,-2.29,0.58,0,2
15295.109,0.219,0.45,0.85,-1.5,-1.86,0.31,0,2
15295.125,0.22,0.449,0.849,-2.2,-1.25,-0.21,0,2
15295.14,0.22,0.447,0.85,-2.69,-0.89,-0.55,0,2
15295.14,0.217,0.445,0.851,-3.11,-0.21,-0.92,0,2
15295.156,0.215,0.445,0.851,-3.17,0.34,-1.37,0,2
15295.156,0.215,0.447,0.853,-3.02,0.98,-1.31,0,2
15295.171,0.211,0.449,0.858,-3.27,1.4,-1.34,0,2
15295.187,0.205,0.453,0.866,-3.88,1.25,-1.53,0,2
15295.187,0.2,0.45,0.873,-4.24,0.43,-1.5,0,2
15295.203,0.198,0.45,0.874,-4.58,-0.7,-1.01,0,2
15295.218,0.197,0.451,0.873,-4.79,-2.04,-0.34,0,2
15295.218,0.199,0.449,0.871,-5.13,-2.99,0.27,0,2
15295.234,0.206,0.445,0.865,-5.34,-3.66,0.98,0,2
15295.25,0.214,0.441,0.861,-5.43,-4.09,1.19,0,2
15295.25,0.224,0.438,0.857,-5.65,-3.97,1.01,0,2
15295.265,0.235,0.433,0.853,-5.86,-3.36,0.43,0,2
15295.281,0.242,0.429,0.848,-5.8,-2.29,-0.58,0,2
15295.281,0.242,0.426,0.847,-5.55,-0.82,-1.86,0,2
15295.296,0.239,0.424,0.85,-5.43,1.04,-3.27,0,2
15295.312,0.229,0.429,0.856,-5.31,2.72,-4.39,0,2
15295.312,0.213,0.431,0.864,-5.07,3.94,-5.28,0,2
15295.328,0.198,0.432,0.878,-4.7,4.12,-5.52,0,2
15295.328,0.188,0.433,0.89,-4.03,3.45,-5.13,0,2
15295.343,0.181,0.433,0.899,-3.33,1.95,-4.43,0,2
15295.359,0.178,0.429,0.904,-2.29,-0.06,-3.48,0,2
15295.359,0.182,0.424,0.902,1.19,-3.91,-1.22,0,2
15295.375,0.192,0.423,0.897,3.05,-5.16,-0.7,0,2
15295.39,0.201,0.419,0.888,4.52,-5.83,-0.79,0,2
15295.39,0.211,0.419,0.879,5.71,-5.89,-1.5,0,2
15295.406,0.219,0.421,0.861,6.53,-5.37,-2.29,0,2
15295.421,0.217,0.429,0.858,7.08,-4.49,-2.72,0,2
15295.421,0.212,0.438,0.86,7.45,-3.39,-2.84,0,2
15295.437,0.204,0.446,0.863,7.54,-2.69,-2.38,0,2
15295.453,0.201,0.453,0.867,7.39,-2.69,-1.56,0,2
15295.453,0.203,0.46,0.865,7.11,-3.14,-0.67,0,2
15295.468,0.206,0.463,0.862,6.56,-3.94,0.18,0,2
15295.468,0.211,0.463,0.852,5.49,-4.27,0.79,0,2
15295.484,0.217,0.462,0.842,4.09,-4.21,1.28,0,2
15295.5,0.221,0.459,0.835,2.32,-3.78,1.34,0,2
15295.5,0.227,0.458,0.833,0.18,-2.87,0.92,0,2
15295.515,0.222,0.456,0.837,-2.01,-1.56,0.49,0,2
15295.531,0.219,0.454,0.84,-3.88,-0.27,0.46,0,2
15295.531,0.214,0.45,0.851,-5.01,0.49,0.52,0,2
15295.546,0.205,0.443,0.862,-5.58,0.95,0.79,0,2
15295.562,0.194,0.436,0.876,-5.49,1.13,1.46,0,2
15295.562,0.184,0.433,0.89,-4.64,0.34,2.66,0,2
15295.578,0.18,0.43,0.904,-3.17,-0.98,4.06,0,2
15295.578,0.184,0.425,0.91,-0.92,-2.81,5.49,0,2
15295.593,0.197,0.421,0.908,2.17,-4.85,6.65,0,2
15295.609,0.214,0.419,0.897,5.55,-6.56,7.05,0,2
15295.609,0.231,0.417,0.883,8.39,-7.45,6.81,0,2
15295.625,0.247,0.421,0.871,10.47,-7.78,5.46,0,2
15295.64,0.26,0.435,0.854,11.6,-8.06,3.23,0,2
15295.64,0.273,0.439,0.828,13.55,-6.81,1.43,0,2
15295.656,0.276,0.446,0.808,12.88,-4.15,-0.85,0,2
15295.671,0.274,0.447,0.797,11.78,-0.85,-3.3,0,2
15295.671,0.263,0.449,0.788,9.8,3.33,-5.16,0,2
15295.687,0.25,0.454,0.794,6.96,7.66,-6.78,0,2
15295.703,0.224,0.455,0.813,4.52,11.47,-7.75,0,2
15295.703,0.197,0.464,0.844,2.32,13.46,-8.03,0,2
15295.718,0.167,0.481,0.887,0.76,13.0,-7.08,0,2
15295.718,0.147,0.488,0.918,-0.27,9.37,-5.68,0,2
15295.734,0.141,0.483,0.921,-0.55,3.54,-3.88,0,2
15295.75,0.149,0.474,0.903,0.06,-2.2,-1.8,0,2
15295.75,0.166,0.464,0.88,0.76,-6.32,0.37,0,2
15295.765,0.182,0.458,0.862,0.76,-8.42,2.17,0,2
15295.781,0.198,0.458,0.851,-0.09,-9.06,3.14,0,2
15295.781,0.209,0.459,0.849,-0.7,-8.94,3.78,0,2
15295.796,0.22,0.458,0.85,-1.04,-8.39,4.18,0,2
15295.812,0.23,0.458,0.846,-0.95,-7.66,4.3,0,2
15295.812,0.237,0.452,0.843,-1.04,-6.56,4.0,0,2
15295.828,0.244,0.451,0.843,-1.71,-5.74,3.05,0,2
15295.828,0.246,0.454,0.833,-0.92,-4.52,2.44,0,2
15295.843,0.246,0.452,0.828,-0.64,-2.53,2.08,0,2
15295.859,0.241,0.453,0.834,-1.43,-0.43,1.34,0,2
15295.859,0.233,0.451,0.839,-1.8,1.1,0.58,0,2
15295.875,0.224,0.454,0.846,-2.29,2.08,0.12,0,2
15295.89,0.218,0.454,0.86,-2.56,2.53,-0.18,0,2
15295.89,0.212,0.457,0.867,-2.38,2.32,-0.24,0,2
15295.906,0.209,0.456,0.87,-2.2,1.31,-0.21,0,2
15295.921,0.206,0.453,0.871,-2.32,0.0,-0.55,0,2
15295.921,0.205,0.451,0.864,-2.78,-1.4,-0.73,0,2
15295.937,0.205,0.45,0.861,-3.23,-2.44,-0.73,0,2
15295.953,0.207,0.45,0.861,-3.63,-2.93,-0.61,0,2
15295.953,0.207,0.448,0.864,-3.66,-3.14,-0.18,0,2
15295.968,0.209,0.447,0.868,-3.2,-3.39,0.24,0,2
15295.968,0.213,0.445,0.87,-2.66,-3.75,0.34,0,2
15295.984,0.213,0.444,0.871,-2.11,-4.43,0.31,0,2
15296.0,0.216,0.444,0.87,-1.5,-5.04,0.34,0,2
15296.0,0.221,0.439,0.866,-0.61,-5.4,0.09,0,2
15296.015,0.225,0.438,0.862,0.31,-5.49,-0.09,0,2
15296.031,0.229,0.438,0.858,1.31,-5.34,-0.31,0,2
15296.031,0.233,0.443,0.854,1.95,-4.79,-0.98,0,2
15296.046,0.231,0.444,0.848,2.14,-4.27,-1.74,0,2
15296.062,0.23,0.444,0.844,2.44,-3.63,-2.04,0,2
15296.062,0.23,0.454,0.842,2.01,-2.53,-2.04,0,2
15296.078,0.231,0.457,0.841,1.37,-1.37,-2.17,0,2
15296.078,0.23,0.456,0.842,1.19,-0.49,-1.77,0,2
15296.093,0.231,0.461,0.841,0.55,0.31,-1.71,0,2
15296.109,0.23,0.457,0.841,-0.61,1.04,-2.11,0,2
15296.109,0.229,0.456,0.845,-1.89,1.65,-2.38,0,2
15296.125,0.227,0.454,0.848,-2.5,2.08,-2.56,0,2
15296.14,0.226,0.452,0.851,-2.62,2.66,-2.53,0,2
15296.14,0.226,0.45,0.854,-2.62,3.3,-2.53,0,2
15296.156,0.221,0.447,0.859,-2.26,3.72,-2.72,0,2
15296.171,0.218,0.447,0.862,-1.8,3.6,-2.81,0,2
15296.171,0.215,0.445,0.866,-1.34,3.36,-2.93,0,2
15296.187,0.208,0.445,0.866,-0.7,3.3,-2.96,0,2
15296.187,0.203,0.449,0.866,-0.12,3.08,-2.81,0,2
15296.203,0.196,0.448,0.867,0.18,2.78,-2.59,0,2
15296.218,0.192,0.448,0.87,0.46,1.83,-2.17,0,2
15296.218,0.19,0.45,0.873,0.52,1.1,-1.53,0,2
15296.234,0.19,0.452,0.876,0.76,0.21,-0.67,0,2
15296.25,0.19,0.452,0.875,1.4,-0.85,0.18,0,2
15296.25,0.195,0.452,0.876,2.26,-2.17,1.16,0,2
15296.265,0.202,0.457,0.879,2.2,-3.27,1.8,0,2
15296.281,0.202,0.45,0.871,2.78,-4.52,1.92,0,2
15296.281,0.217,0.443,0.861,3.97,-5.86,2.32,0,2
15296.296,0.225,0.454,0.862,3.39,-6.29,2.01,0,2
15296.296,0.227,0.454,0.858,3.11,-6.23,1.16,0,2
15296.312,0.227,0.457,0.851,3.69,-6.47,0.55,0,2
15296.328,0.23,0.459,0.846,3.51,-6.38,-0.09,0,2
15296.328,0.229,0.46,0.852,1.46,-6.68,-1.34,0,2
15296.343,0.231,0.459,0.835,1.62,-6.41,-1.71,0,2
15296.359,0.226,0.461,0.836,0.85,-4.27,-1.68,0,2
15296.359,0.224,0.462,0.843,-0.03,-3.36,-1.65,0,2
15296.375,0.22,0.465,0.838,-1.46,-2.41,-1.37,0,2
15296.39,0.211,0.461,0.841,-2.72,-1.77,-0.82,0,2
15296.39,0.209,0.457,0.847,-3.6,-1.46,-0.15,0,2
15296.406,0.207,0.459,0.855,-5.07,-1.46,0.49,0,2
15296.421,0.208,0.451,0.862,-5.77,-1.71,0.92,0,2
15296.421,0.208,0.445,0.87,-5.92,-2.32,1.31,0,2
15296.437,0.217,0.451,0.871,-6.2,-3.45,1.25,0,2
15296.437,0.223,0.443,0.87,-5.83,-4.43,0.61,0,2
15296.453,0.228,0.443,0.866,-5.01,-4.67,0.4,0,2
15296.468,0.233,0.441,0.86,-3.45,-4.73,0.49,0,2
15296.468,0.239,0.439,0.852,-1.4,-3.97,0.55,0,2
15296.484,0.241,0.439,0.848,0.15,-2.38,0.43,0,2
15296.5,0.243,0.433,0.845,1.56,-1.07,-0.09,0,2
15296.5,0.237,0.438,0.847,2.11,0.37,-0.64,0,2
15296.515,0.234,0.44,0.848,2.53,1.31,-1.74,0,2
15296.531,0.228,0.443,0.845,2.59,2.01,-2.78,0,2
15296.531,0.223,0.452,0.851,2.08,2.75,-3.39,0,2
15296.546,0.214,0.454,0.856,1.4,3.11,-3.85,0,2
15296.562,0.206,0.455,0.862,0.89,2.75,-3.72,0,2
15296.562,0.204,0.462,0.871,-0.52,1.13,-3.42,0,2
15296.578,0.201,0.457,0.881,-2.66,-1.19,-3.48,0,2
15296.578,0.205,0.456,0.88,-3.36,-3.39,-3.36,0,2
15296.593,0.213,0.447,0.878,-3.57,-5.8,-3.33,0,2
15296.609,0.22,0.446,0.882,-3.42,-7.75,-3.63,0,2
15296.609,0.231,0.441,0.872,-2.32,-9.06,-4.7,0,2
15296.625,0.241,0.423,0.854,-0.58,-8.97,-6.23,0,2
15296.64,0.243,0.424,0.84,0.43,-6.84,-7.48,0,2
15296.64,0.24,0.434,0.798,1.01,-2.44,-7.78,0,2
15296.656,0.237,0.458,0.782,1.1,5.46,-5.52,0,2
15296.671,0.231,0.51,0.801,-7.54,11.47,-3.51,0,2
15296.671,0.23,0.497,0.797,-14.16,14.71,-2.9,0,2
15296.687,0.2,0.481,0.818,-19.35,16.33,-1.01,0,2
15296.703,0.235,0.495,0.785,-23.19,16.11,1.43,0,2
15296.703,0.211,0.4,0.825,-22.4,20.2,1.98,0,2
15296.718,0.087,0.578,0.977,-37.72,14.13,0.92,0,2
15296.718,0.154,0.557,0.962,-38.33,0.43,4.09,0,2
15296.734,0.142,0.452,0.899,-33.02,-8.76,6.32,0,2
15296.75,0.197,0.417,0.877,-32.11,-12.67,8.39,0,2
15296.765,0.206,0.371,0.875,-27.86,-11.41,9.55,0,2
15296.765,0.216,0.326,0.893,-24.2,-9.95,8.55,0,2
15296.781,0.238,0.308,0.916,-18.31,-9.13,5.4,0,2
15296.781,0.25,0.293,0.949,-8.24,-7.69,0.98,0,2
15296.796,0.245,0.286,0.989,2.5,-7.2,-3.3,0,2
15296.812,0.235,0.288,0.992,14.25,-8.33,-6.53,0,2
15296.812,0.208,0.308,0.988,25.09,-10.04,-8.3,0,2
15296.828,0.175,0.383,0.986,31.5,-14.04,-8.55,0,2
15296.828,0.262,0.377,0.891,40.22,-17.55,-7.02,0,2
15296.843,0.213,0.345,0.812,49.26,-13.0,-7.35,0,2
15296.859,0.22,0.457,0.826,42.82,-9.06,-5.83,0,2
15296.859,0.224,0.482,0.807,39.67,-7.11,-4.27,0,2
15296.875,0.207,0.492,0.781,34.09,-5.13,-3.45,0,2
15296.89,0.22,0.525,0.772,25.09,-3.14,-1.98,0,2
15296.89,0.222,0.528,0.803,12.82,-3.23,-2.23,0,2
15296.906,0.229,0.542,0.783,7.81,-3.42,-0.21,0,2
15296.921,0.239,0.529,0.767,4.97,-0.64,2.81,0,2
15296.921,0.234,0.53,0.788,-1.07,2.9,5.19,0,2
15296.937,0.235,0.503,0.805,-5.22,5.46,7.14,0,2
15296.937,0.231,0.474,0.821,-9.49,6.16,7.26,0,2
15296.953,0.229,0.455,0.852,-13.4,5.74,5.95,0,2
15296.968,0.225,0.435,0.883,-15.26,4.55,4.06,0,2
15296.968,0.219,0.425,0.901,-15.44,2.26,2.17,0,2
15296.984,0.22,0.412,0.908,-13.76,-0.52,0.79,0,2
15297.0,0.218,0.408,0.904,-10.8,-2.59,0.03,0,2
15297.0,0.219,0.406,0.895,-7.2,-3.57,-0.21,0,2
15297.015,0.221,0.406,0.884,-3.69,-3.72,-0.21,0,2
15297.031,0.223,0.41,0.869,-0.89,-3.23,-0.24,0,2
15297.031,0.226,0.418,0.857,0.92,-2.26,-0.64,0,2
15297.046,0.223,0.428,0.854,2.11,-1.13,-0.73,0,2
15297.062,0.22,0.44,0.853,2.44,-0.12,-0.82,0,2
15297.062,0.222,0.452,0.855,2.38,0.55,-0.31,0,2
15297.078,0.218,0.455,0.857,1.53,0.85,0.03,0,2
15297.093,0.217,0.456,0.86,1.01,0.58,0.64,0,2
15297.093,0.22,0.456,0.862,0.52,-0.12,1.56,0,2
15297.109,0.224,0.456,0.864,-0.46,-0.79,1.83,0,2
15297.109,0.226,0.448,0.858,-1.07,-1.4,1.86,0,2
15297.125,0.228,0.438,0.854,-1.46,-1.68,1.59,0,2
15297.14,0.23,0.437,0.858,-1.98,-1.56,1.34,0,2
15297.14,0.233,0.434,0.861,-2.47,-1.28,0.58,0,2
15297.156,0.232,0.428,0.858,-2.08,-0.82,0.0,0,2
15297.171,0.232,0.427,0.856,-1.25,-0.09,-0.12,0,2
15297.171,0.232,0.427,0.859,-0.55,0.92,-0.37,0,2
15297.187,0.228,0.431,0.861,-0.09,1.8,-0.76,0,2
15297.187,0.224,0.434,0.86,0.21,2.17,-1.16,0,2
15297.203,0.22,0.438,0.86,0.49,2.5,-1.43,0,2
15297.218,0.216,0.44,0.863,0.52,2.66,-1.43,0,2
15297.218,0.216,0.439,0.864,0.61,2.78,-1.19,0,2
15297.234,0.213,0.441,0.866,0.76,2.93,-0.89,0,2
15297.25,0.211,0.442,0.868,0.79,2.84,-0.52,0,2
15297.25,0.213,0.442,0.869,0.89,2.35,-0.21,0,2
15297.265,0.214,0.442,0.87,0.64,1.53,0.0,0,2
15297.281,0.217,0.443,0.87,0.21,0.67,-0.15,0,2
15297.281,0.218,0.444,0.869,-0.21,-0.15,-0.43,0,2
15297.296,0.224,0.442,0.862,-0.12,-0.85,-0.55,0,2
15297.296,0.227,0.442,0.853,0.03,-1.01,-0.67,0,2
15297.312,0.232,0.443,0.848,-0.34,-0.49,-0.79,0,2
15297.328,0.233,0.446,0.849,-1.13,0.73,-1.07,0,2
15297.328,0.23,0.442,0.849,-1.22,3.14,-1.34,0,2
15297.343,0.236,0.449,0.849,-0.64,4.67,-1.1,0,2
15297.359,0.243,0.46,0.847,0.43,7.14,-0.61,0,2
15297.359,0.256,0.462,0.851,2.9,9.8,1.04,0,2
15297.375,0.326,0.485,0.872,8.64,13.06,2.72,0,2
15297.39,0.361,0.49,0.865,17.15,18.89,4.7,0,2
15297.39,0.402,0.49,0.844,27.47,28.23,6.74,0,2
15297.406,0.428,0.461,0.835,41.32,41.96,6.29,0,2
15297.421,0.409,0.429,0.82,59.14,59.45,2.14,0,2
15297.421,0.479,0.392,0.877,83.47,73.24,-1.01,0,2
15297.437,0.415,0.459,0.821,133.76,68.42,11.63,0,2
15297.453,0.345,0.737,0.769,170.14,78.25,20.69,0,2
15297.453,0.336,0.826,0.746,162.91,91.49,22.92,0,2
15297.468,0.147,0.773,0.708,145.36,99.28,20.39,0,2
15297.468,0.155,0.855,0.682,110.9,98.54,20.14,0,2
15297.484,0.106,0.931,0.689,65.89,94.85,25.67,0,2
15297.5,0.092,0.862,0.711,20.6,87.92,28.66,0,2
15297.5,0.11,0.792,0.727,-22.1,80.75,31.74,0,2
15297.515,0.116,0.71,0.73,-58.78,72.76,30.95,0,2
15297.531,0.138,0.596,0.728,-86.89,65.61,26.15,0,2
15297.546,0.139,0.49,0.734,-105.01,62.11,18.74,0,2
15297.546,0.144,0.432,0.761,-113.32,62.01,10.65,0,2
15297.562,0.118,0.4,0.784,-111.97,64.24,1.8,0,2
15297.562,0.031,0.309,0.806,-104.95,67.35,-3.97,0,2
15297.578,-0.02,0.232,0.853,-95.89,67.38,-1.22,0,2
15297.578,0.009,0.333,0.896,-79.9,67.35,-2.44,0,2
15297.593,-0.052,0.346,0.889,-60.7,70.19,-10.53,0,2
15297.609,-0.124,0.269,0.9,-53.25,69.95,-18.16,0,2
15297.609,-0.116,0.292,0.908,-53.07,66.47,-27.16,0,2
15297.625,-0.142,0.305,0.901,-52.22,62.17,-36.29,0,2
15297.64,-0.171,0.299,0.897,-53.8,55.97,-40.62,0,2
15297.64,-0.149,0.3,0.893,-55.45,47.79,-40.07,0,2
15297.656,-0.154,0.29,0.871,-54.05,41.78,-38.85,0,2
15297.671,-0.163,0.282,0.856,-53.35,36.5,-35.07,0,2
15297.671,-0.134,0.279,0.835,-50.17,31.31,-29.48,0,2
15297.687,-0.128,0.3,0.83,-43.86,28.26,-28.66,0,2
15297.703,-0.209,0.326,0.904,-35.31,24.93,-28.23,0,2
15297.703,-0.256,0.3,0.961,-24.66,13.09,-20.66,0,2
15297.718,-0.329,0.441,1.057,-15.41,-4.09,-16.24,0,2
15297.734,-0.441,0.526,1.18,-4.64,-23.29,-7.02,0,2
15297.734,-0.348,0.462,0.961,-13.52,-48.04,-6.84,0,2
15297.75,-0.336,0.451,0.839,-42.3,-50.23,-7.66,0,2
15297.75,-0.267,0.403,0.837,-55.76,-34.18,-6.1,0,2
15297.765,-0.264,0.348,0.851,-52.03,-12.54,-1.46,0,2
15297.781,-0.259,0.294,0.89,-42.12,7.48,6.26,0,2
15297.781,-0.276,0.247,0.966,-27.28,22.25,9.77,0,2
15297.796,-0.313,0.211,1.021,-7.29,26.52,8.55,0,2
15297.812,-0.357,0.209,1.07,12.79,20.29,6.2,0,2
15297.812,-0.412,0.306,1.157,26.0,5.92,1.74,0,2
15297.828,-0.336,0.23,1.105,22.37,-24.87,-2.01,0,2
15297.828,-0.422,0.321,1.025,0.27,-55.85,-16.63,0,2
15297.843,-0.297,0.254,1.048,-12.57,-81.48,-19.35,0,2
15297.859,-0.249,0.191,0.972,-24.57,-107.46,-25.24,0,2
15297.859,-0.134,0.194,0.923,-35.4,-123.75,-31.25,0,2
15297.875,-0.011,0.161,0.888,-39.4,-130.07,-37.63,0,2
15297.89,0.106,0.137,0.866,-37.63,-129.4,-44.62,0,2
15297.89,0.218,0.15,0.824,-31.13,-123.51,-50.39,0,2
15297.906,0.306,0.172,0.762,-25.27,-113.41,-55.24,0,2
15297.921,0.374,0.195,0.73,-22.28,-99.34,-60.85,0,2
15297.921,0.413,0.252,0.703,-20.29,-81.51,-66.68,0,2
15297.937,0.441,0.306,0.673,-19.65,-59.82,-71.05,0,2
15297.937,0.438,0.346,0.686,-19.53,-35.13,-71.35,0,2
15297.953,0.409,0.384,0.714,-15.66,-9.95,-65.95,0,2
15297.968,0.378,0.403,0.764,-7.78,11.96,-55.3,0,2
15297.968,0.344,0.407,0.792,3.85,27.31,-42.12,0,2
15297.984,0.311,0.41,0.83,18.22,37.11,-28.5,0,2
15298.0,0.253,0.383,0.875,34.36,41.66,-16.33,0,2
15298.0,0.113,0.444,0.94,46.08,39.89,-4.91,0,2
15298.015,0.058,0.522,1.057,37.81,27.44,4.15,0,2
15298.031,-0.048,0.482,1.161,20.45,11.32,1.65,0,2
15298.031,-0.087,0.578,1.28,-10.35,-10.8,-3.02,0,2
15298.046,-0.04,0.497,1.253,-25.61,-28.05,-6.07,0,2
15298.062,-0.034,0.429,1.191,-23.22,-32.04,-4.91,0,2
15298.062,0.014,0.397,1.127,-7.51,-26.09,0.79,0,2
15298.078,0.007,0.375,1.084,16.33,-13.98,4.15,0,2
15298.078,0.017,0.361,1.046,38.48,-4.61,4.36,0,2
15298.093,0.031,0.383,0.996,53.13,-1.77,1.95,0,2
15298.109,0.027,0.411,0.951,58.9,-4.85,0.82,0,2
15298.109,0.015,0.416,0.916,56.15,-12.76,1.56,0,2
15298.125,0.005,0.422,0.895,46.72,-23.1,4.27,0,2
15298.14,0.004,0.465,0.887,31.43,-35.13,8.58,0,2
15298.14,0.098,0.394,0.798,20.08,-43.28,13.34,0,2
15298.156,0.063,0.303,0.764,17.37,-38.88,12.02,0,2
15298.171,0.083,0.391,0.82,6.9,-35.58,13.52,0,2
15298.171,0.111,0.393,0.857,-1.65,-36.16,16.69,0,2
15298.187,0.125,0.313,0.822,-2.29,-34.39,16.75,0,2
15298.187,0.134,0.295,0.838,-0.76,-28.14,14.34,0,2
15298.203,0.15,0.324,0.866,2.5,-22.31,11.44,0,2
15298.218,0.156,0.336,0.878,8.03,-16.85,8.48,0,2
15298.218,0.149,0.352,0.897,12.3,-11.87,6.26,0,2
15298.234,0.143,0.365,0.906,15.2,-8.79,5.13,0,2
15298.25,0.142,0.377,0.905,16.79,-7.69,6.01,0,2
15298.25,0.143,0.386,0.899,16.94,-7.32,7.35,0,2
15298.265,0.142,0.381,0.882,15.14,-7.23,8.0,0,2
15298.281,0.146,0.381,0.873,11.75,-6.59,7.93,0,2
15298.281,0.152,0.377,0.86,7.51,-5.58,6.62,0,2
15298.296,0.159,0.365,0.855,2.17,-3.6,4.21,0,2
15298.312,0.161,0.352,0.858,-2.84,-0.4,1.92,0,2
15298.312,0.159,0.344,0.867,-8.79,7.78,-2.87,0,2
15298.328,0.155,0.339,0.881,-10.04,11.63,-4.94,0,2
15298.328,0.143,0.341,0.903,-10.59,14.37,-6.65,0,2
15298.343,0.131,0.342,0.925,-9.25,15.26,-7.72,0,2
15298.359,0.115,0.337,0.94,-5.92,14.92,-8.06,0,2
15298.359,0.101,0.343,0.945,-1.53,12.73,-7.9,0,2
15298.375,0.098,0.357,0.934,2.44,8.85,-7.72,0,2
15298.39,0.098,0.377,0.918,3.85,4.46,-7.78,0,2
15298.39,0.1,0.392,0.901,1.92,1.01,-7.87,0,2
15298.406,0.101,0.404,0.887,-2.29,-0.79,-7.63,0,2
15298.406,0.106,0.406,0.88,-7.66,-0.98,-6.96,0,2
15298.421,0.11,0.396,0.879,-11.96,-0.43,-6.01,0,2
15298.437,0.115,0.389,0.877,-13.67,1.19,-4.85,0,2
15298.453,0.13,0.381,0.876,-12.12,4.36,-3.97,0,2
15298.453,0.137,0.368,0.873,-8.39,8.82,-3.23,0,2
15298.468,0.142,0.359,0.866,-3.88,13.95,-2.9,0,2
15298.468,0.132,0.365,0.861,-0.46,19.75,-3.27,0,2
15298.484,0.103,0.401,0.903,-3.63,24.08,-4.21,0,2
15298.5,0.096,0.448,0.98,-18.4,21.03,-4.85,0,2
15298.5,0.118,0.368,1.001,-30.09,15.38,-6.56,0,2
15298.515,-0.02,0.434,1.112,-40.28,9.74,-9.43,0,2
15298.531,0.059,0.46,1.176,-49.26,-1.98,-2.56,0,2
15298.546,0.057,0.344,1.134,-39.22,-5.49,-0.18,0,2
15298.546,0.046,0.31,1.114,-24.11,-2.14,1.71,0,2
15298.562,0.067,0.296,1.084,-1.95,3.6,2.78,0,2
15298.562,0.065,0.296,1.047,21.85,10.38,1.86,0,2
15298.578,0.052,0.321,1.034,41.81,14.16,0.46,0,2
15298.578,0.039,0.331,0.994,57.41,11.78,-0.43,0,2
15298.593,0.034,0.351,0.945,63.2,5.16,-0.55,0,2
15298.609,0.027,0.402,0.914,58.14,-3.51,0.92,0,2
15298.609,0.0,0.455,0.904,43.03,-14.8,2.9,0,2
15298.625,0.071,0.462,0.832,21.79,-26.76,6.84,0,2
15298.64,0.085,0.334,0.787,11.02,-26.64,7.69,0,2
15298.64,0.07,0.418,0.828,-6.44,-26.28,8.42,0,2
15298.656,0.109,0.438,0.874,-24.02,-29.11,11.57,0,2
15298.671,0.123,0.32,0.856,-26.83,-27.34,11.87,0,2
15298.671,0.139,0.293,0.854,-23.8,-21.36,10.56,0,2
15298.687,0.154,0.32,0.862,-17.49,-14.01,9.03,0,2
15298.703,0.157,0.303,0.857,-7.75,-5.65,7.87,0,2
15298.703,0.156,0.296,0.855,1.01,2.96,6.04,0,2
15298.718,0.15,0.315,0.858,8.03,10.83,3.39,0,2
15298.734,0.137,0.338,0.863,13.37,17.03,0.82,0,2
15298.734,0.121,0.358,0.869,15.72,21.06,-0.82,0,2
15298.75,0.102,0.378,0.876,15.26,23.04,-1.59,0,2
15298.75,0.086,0.403,0.885,12.36,22.68,-1.37,0,2
15298.765,0.07,0.414,0.89,6.93,20.08,-0.89,0,2
15298.781,0.058,0.415,0.899,-0.31,16.51,-0.43,0,2
15298.781,0.056,0.414,0.915,-7.6,12.94,-0.34,0,2
15298.796,0.063,0.406,0.938,-13.86,9.7,-0.37,0,2
15298.812,0.057,0.388,0.943,-17.52,6.93,-0.49,0,2
15298.812,0.053,0.374,0.958,-18.71,5.58,-0.58,0,2
15298.828,0.056,0.366,0.973,-16.69,5.49,-0.27,0,2
15298.828,0.058,0.362,0.981,-12.36,6.47,0.18,0,2
15298.843,0.063,0.361,0.985,-7.11,8.21,1.13,0,2
15298.859,0.062,0.359,0.991,-1.59,11.08,2.23,0,2
15298.859,0.068,0.359,0.998,3.97,14.28,3.14,0,2
15298.875,0.068,0.362,1.004,8.7,17.49,4.06,0,2
15298.89,0.067,0.361,1.014,11.84,19.93,5.46,0,2
15298.89,0.07,0.365,1.028,13.67,21.45,6.53,0,2
15298.906,0.074,0.368,1.04,14.13,21.64,6.99,0,2
15298.921,0.078,0.367,1.057,13.25,21.58,7.54,0,2
15298.921,0.078,0.364,1.078,12.27,21.7,8.12,0,2
15298.937,0.08,0.354,1.101,12.39,21.67,8.76,0,2
15298.953,0.074,0.351,1.124,14.86,21.24,9.43,0,2
15298.953,0.073,0.355,1.139,20.69,21.06,9.98,0,2
15298.968,0.076,0.359,1.148,28.84,21.7,10.32,0,2
15298.984,0.071,0.375,1.156,38.03,22.98,10.83,0,2
15298.984,0.067,0.396,1.158,47.33,24.29,11.99,0,2
15299.0,0.067,0.416,1.154,54.51,25.61,13.89,0,2
15299.0,0.062,0.451,1.148,57.1,25.76,15.69,0,2
15299.015,0.056,0.48,1.136,54.93,23.83,17.15,0,2
15299.031,0.054,0.505,1.121,47.12,19.56,18.34,0,2
15299.046,0.057,0.517,1.119,35.37,12.39,18.86,0,2
15299.046,0.068,0.504,1.122,24.66,2.44,18.52,0,2
15299.062,0.087,0.476,1.118,19.62,-8.39,17.79,0,2
15299.062,0.114,0.445,1.113,20.91,-18.34,17.88,0,2
15299.078,0.157,0.41,1.094,27.34,-26.83,19.32,0,2
15299.093,0.193,0.386,1.058,37.9,-32.26,20.72,0,2
15299.093,0.237,0.375,1.007,49.01,-34.7,21.06,0,2
15299.109,0.278,0.407,0.944,54.93,-35.68,19.5,0,2
15299.109,0.3,0.45,0.882,50.81,-37.35,16.48,0,2
15299.125,0.324,0.481,0.838,34.61,-40.74,13.34,0,2
15299.14,0.34,0.5,0.805,6.47,-47.49,8.12,0,2
15299.14,0.36,0.492,0.747,-35.8,-60.37,-0.43,0,2
15299.156,0.383,0.397,0.723,-88.23,-76.33,-13.67,0,2
15299.171,0.448,0.294,0.711,-142.92,-93.78,-33.36,0,2
15299.171,0.526,0.202,0.673,-193.58,-109.62,-60.0,0,2
15299.187,0.601,0.095,0.627,-234.26,-118.87,-88.69,0,2
15299.187,0.654,0.023,0.6,-265.18,-120.18,-114.05,0,2
15299.203,0.655,-0.014,0.623,-283.24,-113.9,-131.63,0,2
15299.218,0.532,0.012,0.68,-283.7,-102.39,-139.41,0,2
15299.218,0.351,0.043,0.772,-269.57,-86.0,-135.26,0,2
15299.234,0.269,0.046,0.902,-244.36,-66.9,-119.69,0,2
15299.25,0.204,0.039,0.988,-200.2,-45.59,-101.66,0,2
15299.25,0.132,0.022,1.022,-141.85,-18.95,-83.53,0,2
15299.265,0.104,0.013,1.032,-82.52,5.13,-64.76,0,2
15299.281,0.113,0.055,1.025,-25.21,23.13,-50.2,0,2
15299.281,0.107,0.095,0.974,26.31,35.83,-40.28,0,2
15299.296,0.08,0.164,0.912,79.04,48.95,-22.83,0,2
15299.296,0.044,0.231,0.857,73.79,51.06,-13.79,0,2
15299.312,-0.006,0.267,0.841,51.76,51.03,-8.82,0,2
15299.328,-0.027,0.298,0.849,21.52,49.47,-6.93,0,2
15299.328,-0.015,0.291,0.859,-7.63,49.38,-5.89,0,2
15299.343,0.007,0.228,0.876,-31.86,51.36,-2.59,0,2
15299.359,0.003,0.15,0.92,-46.3,56.92,2.9,0,2
15299.359,-0.003,0.107,0.953,-48.74,67.02,11.75,0,2
15299.375,-0.046,0.094,1.021,-38.33,84.11,18.95,0,2
15299.39,-0.109,0.07,1.076,-21.36,96.1,22.4,0,2
15299.406,-0.144,0.082,1.088,-5.86,95.03,22.16,0,2
15299.406,-0.153,0.093,1.094,7.57,88.56,18.59,0,2
15299.421,-0.185,0.033,1.108,20.08,82.22,10.74,0,2
15299.421,-0.191,0.002,1.13,30.24,75.14,3.11,0,2
15299.437,-0.16,0.092,1.116,38.48,64.36,-5.04,0,2
15299.453,-0.129,0.166,1.08,46.05,51.82,-12.94,0,2
15299.453,-0.113,0.235,1.038,50.72,41.2,-15.56,0,2
15299.468,-0.137,0.339,1.002,55.64,32.56,-11.14,0,2
15299.468,-0.159,0.398,0.962,62.78,22.64,-0.79,0,2
15299.484,-0.18,0.408,0.913,71.47,10.71,11.72,0,2
15299.5,-0.189,0.412,0.868,83.71,-0.43,24.26,0,2
15299.515,-0.173,0.388,0.828,100.16,-6.35,36.23,0,2
15299.515,-0.113,0.418,0.803,114.57,-5.58,43.46,0,2
15299.531,-0.15,0.438,0.78,123.69,2.08,48.01,0,2
15299.531,-0.181,0.429,0.792,128.09,14.07,51.42,0,2
15299.546,-0.162,0.468,0.81,130.89,23.65,49.62,0,2
15299.562,-0.166,0.576,0.768,126.65,25.82,44.8,0,2
15299.562,-0.261,0.68,0.715,103.37,17.33,40.25,0,2
15299.578,-0.334,0.656,0.715,65.25,1.31,37.54,0,2
15299.593,-0.237,0.66,0.751,22.16,-17.37,33.3,0,2
15299.593,-0.173,0.679,0.788,-15.38,-30.4,29.33,0,2
15299.609,-0.207,0.654,0.824,-41.78,-35.83,26.73,0,2
15299.609,-0.247,0.567,0.872,-56.46,-37.51,26.15,0,2
15299.625,-0.232,0.552,0.944,-55.6,-37.87,27.56,0,2
15299.64,-0.273,0.591,0.973,-35.07,-36.47,31.59,0,2
15299.64,-0.333,0.616,0.946,-10.62,-38.97,40.22,0,2
15299.656,-0.26,0.614,0.928,10.25,-48.89,51.36,0,2
15299.671,-0.163,0.683,0.875,30.98,-59.02,60.21,0,2
15299.671,-0.127,0.757,0.806,37.11,-64.15,68.3,0,2
15299.687,-0.135,0.772,0.769,20.11,-64.79,72.42,0,2
15299.687,-0.102,0.734,0.764,-11.11,-63.81,72.88,0,2
15299.703,-0.055,0.675,0.761,-41.6,-61.43,70.19,0,2
15299.718,-0.013,0.609,0.756,-62.62,-59.08,66.53,0,2
15299.718,0.048,0.562,0.747,-71.11,-57.77,61.83,0,2
15299.734,0.107,0.505,0.739,-69.31,-53.47,59.69,0,2
15299.75,0.129,0.474,0.746,-62.93,-42.85,59.63,0,2
15299.75,0.188,0.432,0.774,-56.52,-29.54,58.63,0,2
15299.765,0.239,0.401,0.78,-50.78,-15.69,54.75,0,2
15299.781,0.264,0.373,0.782,-43.28,-1.19,49.47,0,2
15299.781,0.29,0.346,0.8,-35.77,14.65,45.2,0,2
15299.796,0.289,0.326,0.82,-32.14,31.68,41.96,0,2
15299.812,0.255,0.276,0.858,-33.88,49.29,40.07,0,2
15299.812,0.261,0.217,0.913,-41.14,64.61,39.83,0,2
15299.828,0.255,0.127,0.951,-50.02,78.16,38.61,0,2
15299.828,0.193,0.029,0.996,-60.12,89.57,34.79,0,2
15299.843,0.176,-0.064,1.067,-72.73,94.0,30.21,0,2
15299.859,0.135,-0.178,1.128,-81.73,89.05,22.92,0,2
15299.859,0.147,-0.256,1.165,-84.78,74.77,15.56,0,2
15299.875,0.134,-0.315,1.169,-81.24,59.66,8.06,0,2
15299.89,0.116,-0.378,1.161,-75.5,45.01,2.01,0,2
15299.89,0.132,-0.399,1.139,-65.83,29.69,-4.43,0,2
15299.906,0.138,-0.419,1.091,-50.69,16.85,-11.51,0,2
15299.921,0.112,-0.444,1.014,-33.97,7.29,-18.8,0,2
15299.921,0.093,-0.415,0.942,-19.41,1.13,-26.61,0,2
15299.937,0.081,-0.363,0.865,-6.32,-1.77,-36.29,0,2
15299.937,0.074,-0.281,0.788,2.66,-1.68,-46.51,0,2
15299.953,0.074,-0.18,0.738,5.86,0.03,-55.85,0,2
15299.968,0.059,-0.092,0.699,5.16,2.35,-62.62,0,2
15299.968,0.042,-0.018,0.666,-0.24,4.76,-63.14,0,2
15299.984,0.036,0.109,0.666,-14.04,7.45,-59.48,0,2
15300.0,-0.002,0.154,0.702,-37.66,9.19,-54.35,0,2
15300.015,-0.035,0.133,0.757,-67.05,6.9,-48.4,0,2
15300.015,-0.038,0.127,0.824,-96.07,0.64,-41.75,0,2
15300.031,-0.037,0.083,0.897,-119.48,-7.81,-37.11,0,2
15300.031,-0.039,0.034,0.96,-135.29,-17.37,-35.58,0,2
15300.046,-0.026,-0.002,1.016,-140.69,-25.3,-36.07,0,2
15300.062,-0.003,-0.033,1.058,-130.83,-28.57,-37.29,0,2
15300.062,0.01,-0.041,1.084,-106.97,-28.26,-36.74,0,2
15300.078,-0.006,-0.04,1.092,-71.75,-24.84,-33.51,0,2
15300.078,-0.013,-0.028,1.077,-32.84,-20.08,-27.38,0,2
15300.093,-0.006,-0.002,1.052,1.56,-13.37,-19.35,0,2
15300.109,-0.01,0.032,1.025,27.04,-6.16,-12.48,0,2
15300.109,0.018,0.074,1.004,41.93,1.59,-8.0,0,2
15300.125,0.016,0.117,1.01,43.06,13.03,-5.22,0,2
15300.14,0.003,0.111,1.052,34.7,20.6,-3.45,0,2
15300.14,0.013,0.102,1.086,24.9,22.92,-1.8,0,2
15300.156,0.017,0.11,1.109,15.17,21.55,-1.19,0,2
15300.171,0.001,0.08,1.122,8.0,18.4,0.03,0,2
15300.171,-0.018,0.061,1.123,5.58,14.13,2.81,0,2
15300.187,-0.003,0.039,1.096,7.6,8.21,8.48,0,2
15300.203,0.034,0.022,1.078,11.87,4.55,15.08,0,2
15300.203,0.05,-0.003,1.064,15.29,2.93,18.74,0,2
15300.218,0.074,-0.028,1.043,17.58,1.07,17.88,0,2
15300.234,0.091,-0.037,1.022,17.91,1.98,15.41,0,2
15300.234,0.095,-0.029,1.035,14.83,5.68,12.15,0,2
15300.25,0.084,-0.035,1.056,10.04,7.78,8.06,0,2
15300.25,0.081,-0.046,1.059,6.68,6.93,4.52,0,2
15300.265,0.084,-0.042,1.047,5.68,4.58,2.87,0,2
15300.281,0.089,-0.038,1.032,6.84,1.25,2.04,0,2
15300.281,0.102,-0.028,1.019,9.92,-2.96,0.98,0,2
15300.296,0.083,-0.022,0.997,9.74,-3.42,1.62,0,2
15300.312,0.078,-0.02,0.976,9.98,-3.14,2.59,0,2
15300.312,0.081,0.024,0.944,10.13,-1.4,3.3,0,2
15300.328,0.083,0.036,0.952,9.58,1.71,4.21,0,2
15300.328,0.082,0.04,0.972,9.13,4.58,5.4,0,2
15300.343,0.056,0.047,0.987,9.28,5.65,5.86,0,2
15300.359,0.051,0.044,1.009,10.22,4.94,5.58,0,2
15300.359,0.045,0.045,1.015,12.15,3.2,5.16,0,2
15300.375,0.04,0.037,1.021,14.07,1.07,5.34,0,2
15300.39,0.043,0.033,1.022,15.35,-0.82,6.53,0,2
15300.406,0.051,0.039,1.014,16.33,-1.86,8.09,0,2
15300.406,0.059,0.031,1.005,17.4,-0.98,10.04,0,2
15300.406,0.063,0.014,1.014,19.87,1.74,12.02,0,2
15300.421,0.042,-0.024,1.034,26.4,5.49,14.19,0,2
15300.437,0.045,-0.059,1.053,35.86,9.37,15.44,0,2
15300.453,0.046,-0.059,1.082,46.08,13.21,14.34,0,2
15300.453,0.047,-0.064,1.113,55.42,17.09,10.83,0,2
15300.468,0.059,-0.02,1.132,60.98,20.33,5.4,0,2
15300.468,0.029,0.023,1.133,62.23,21.49,-0.55,0,2
15300.484,-0.001,0.055,1.116,59.39,16.91,-4.88,0,2
15300.5,-0.0,0.121,1.098,53.99,8.42,-6.74,0,2
15300.5,-0.018,0.145,1.065,48.71,0.37,-5.74,0,2
15300.515,-0.012,0.142,1.029,42.73,-5.8,-2.72,0,2
15300.531,0.0,0.152,0.996,36.26,-8.76,0.58,0,2
15300.531,0.012,0.138,0.961,30.85,-9.86,2.04,0,2
15300.546,0.01,0.127,0.938,25.36,-7.93,1.5,0,2
15300.562,0.002,0.126,0.905,19.35,-5.74,-1.01,0,2
15300.562,0.019,0.143,0.887,14.34,-3.11,-4.36,0,2
15300.578,-0.003,0.165,0.872,9.74,1.62,-7.26,0,2
15300.578,0.015,0.185,0.875,5.07,6.59,-9.0,0,2
15300.593,0.006,0.207,0.887,1.19,12.42,-10.56,0,2
15300.609,-0.031,0.199,0.905,-1.31,15.81,-11.81,0,2
15300.609,-0.043,0.199,0.904,0.21,13.12,-12.02,0,2
15300.625,-0.026,0.231,0.899,2.47,10.22,-10.41,0,2
15300.64,-0.025,0.255,0.914,-0.34,10.5,-7.08,0,2
15300.64,-0.025,0.245,0.919,-4.94,10.59,-4.09,0,2
15300.656,-0.016,0.233,0.913,-9.43,8.88,-1.01,0,2
15300.671,-0.029,0.189,0.899,-10.8,5.19,2.11,0,2
15300.671,-0.001,0.16,0.878,-8.39,0.18,4.79,0,2
15300.687,0.013,0.159,0.839,-5.31,-1.71,5.55,0,2
15300.703,0.007,0.129,0.804,-3.69,-0.92,5.31,0,2
15300.703,0.035,0.133,0.789,-4.76,2.01,4.88,0,2
15300.718,0.032,0.142,0.797,-9.22,7.9,3.78,0,2
15300.718,0.029,0.116,0.827,-16.75,14.5,2.29,0,2
15300.734,0.043,0.121,0.864,-22.92,18.89,0.09,0,2
15300.75,0.003,0.088,0.894,-23.22,20.75,-1.56,0,2
15300.75,-0.001,0.05,0.923,-20.78,18.8,-0.49,0,2
15300.765,0.011,0.07,0.935,-15.17,14.95,0.55,0,2
15300.781,-0.001,0.078,0.933,-9.09,12.6,0.27,0,2
15300.781,-0.005,0.089,0.934,-6.84,12.36,-0.95,0,2
15300.796,0.004,0.11,0.946,-8.67,13.37,-2.5,0,2
15300.812,-0.0,0.113,0.959,-12.42,14.13,-3.69,0,2
15300.812,-0.004,0.108,0.971,-15.56,13.25,-3.91,0,2
15300.828,-0.005,0.1,0.983,-16.57,11.2,-3.48,0,2
15300.828,-0.018,0.076,0.987,-15.2,8.91,-3.02,0,2
15300.843,-0.014,0.05,0.976,-11.75,6.68,-2.35,0,2
15300.859,0.002,0.06,0.967,-8.39,5.46,-2.78,0,2
15300.859,-0.016,0.069,0.973,-8.33,6.13,-4.88,0,2
15300.875,-0.026,0.068,0.985,-10.99,7.05,-7.63,0,2
15300.89,-0.044,0.083,0.988,-13.12,8.58,-9.28,0,2
15300.89,-0.061,0.1,0.995,-14.8,9.98,-9.16,0,2
15300.906,-0.062,0.102,1.014,-15.66,10.53,-7.9,0,2
15300.921,-0.052,0.11,1.038,-15.29,11.17,-6.32,0,2
15300.921,-0.057,0.102,1.053,-13.12,11.54,-4.94,0,2
15300.937,-0.057,0.085,1.06,-8.97,10.93,-3.36,0,2
15300.953,-0.061,0.083,1.066,-4.33,11.11,-1.71,0,2
15300.953,-0.063,0.074,1.075,-2.41,11.75,-1.04,0,2
15300.968,-0.059,0.075,1.074,-0.76,10.93,-1.62,0,2
15300.968,-0.064,0.084,1.052,0.7,9.4,-2.56,0,2
15300.984,-0.065,0.09,1.042,-1.8,8.18,-3.23,0,2
15301.0,-0.059,0.09,1.037,-5.89,7.26,-3.39,0,2
15301.0,-0.066,0.082,1.039,-8.0,7.35,-3.11,0,2
15301.015,-0.071,0.069,1.05,-8.18,8.09,-2.56,0,2
15301.031,-0.066,0.059,1.059,-5.74,8.27,-2.38,0,2
15301.031,-0.065,0.063,1.06,-1.53,8.12,-2.81,0,2
15301.046,-0.071,0.075,1.059,2.04,8.76,-3.39,0,2
15301.046,-0.069,0.087,1.062,3.42,9.95,-3.72,0,2
15301.062,-0.065,0.108,1.075,1.46,10.77,-4.06,0,2
15301.078,-0.081,0.122,1.099,-3.08,11.6,-5.31,0,2
15301.078,-0.098,0.11,1.119,-8.36,10.68,-6.23,0,2
15301.093,-0.121,0.118,1.13,-11.63,6.93,-6.84,0,2
15301.109,-0.128,0.119,1.124,-12.73,1.22,-6.59,0,2
15301.109,-0.121,0.13,1.102,-13.18,-4.36,-6.56,0,2
15301.125,-0.113,0.132,1.082,-13.31,-7.87,-6.04,0,2
15301.14,-0.107,0.133,1.069,-13.06,-8.97,-5.07,0,2
15301.14,-0.095,0.13,1.055,-11.05,-9.22,-3.78,0,2
15301.156,-0.095,0.124,1.048,-6.87,-8.21,-2.04,0,2
15301.171,-0.097,0.122,1.045,-2.14,-6.74,-0.37,0,2
15301.171,-0.102,0.12,1.046,2.41,-5.46,0.89,0,2
15301.187,-0.101,0.123,1.037,5.83,-5.28,1.98,0,2
15301.187,-0.086,0.127,1.023,6.59,-6.29,3.08,0,2
15301.203,-0.071,0.13,1.012,4.39,-7.66,3.39,0,2
15301.218,-0.073,0.114,1.01,0.31,-7.29,3.57,0,2
15301.234,-0.071,0.092,1.012,-4.94,-6.41,3.69,0,2
15301.234,-0.066,0.077,1.011,-8.24,-5.83,3.08,0,2
15301.25,-0.073,0.062,1.012,-9.25,-5.4,2.2,0,2
15301.25,-0.085,0.049,1.014,-8.91,-5.52,1.16,0,2
15301.265,-0.075,0.047,1.014,-5.83,-5.04,-0.79,0,2
15301.281,-0.074,0.056,1.017,-4.39,-3.05,-1.1,0,2
15301.281,-0.086,0.041,1.017,-2.23,-2.29,-0.98,0,2
15301.296,-0.084,0.045,1.02,2.23,-2.26,-0.58,0,2
15301.296,-0.093,0.048,0.998,6.35,-2.35,-0.92,0,2
15301.312,-0.086,0.063,0.982,7.39,-2.53,-1.28,0,2
15301.328,-0.088,0.073,0.974,5.95,-2.62,-1.4,0,2
15301.343,-0.084,0.075,0.976,2.44,-2.32,-1.59,0,2
15301.343,-0.083,0.071,0.982,-1.25,-2.47,-1.01,0,2
15301.359,-0.081,0.064,0.979,-2.96,-3.51,-0.64,0,2
15301.359,-0.08,0.052,0.97,-3.23,-4.67,-0.43,0,2
15301.375,-0.073,0.043,0.964,-2.14,-5.07,-0.18,0,2
15301.39,-0.066,0.042,0.959,-0.34,-4.73,-0.15,0,2
15301.39,-0.057,0.054,0.943,0.67,-4.7,-0.7,0,2
15301.406,-0.057,0.063,0.932,0.09,-3.69,-1.31,0,2
15301.421,-0.061,0.062,0.936,-2.01,-2.17,-1.25,0,2
15301.421,-0.051,0.072,0.948,-4.79,-0.73,-1.16,0,2
15301.437,-0.065,0.065,0.963,-6.87,0.76,-1.43,0,2
15301.453,-0.07,0.052,0.979,-7.9,1.16,-1.5,0,2
15301.453,-0.072,0.056,0.987,-6.53,0.76,-1.31,0,2
15301.468,-0.077,0.06,0.992,-3.81,0.52,-1.25,0,2
15301.468,-0.075,0.067,0.997,-0.95,0.37,-0.79,0,2
15301.484,-0.073,0.073,1.0,1.89,0.52,0.09,0,2
15301.5,-0.06,0.082,0.996,2.99,1.19,0.76,0,2
15301.5,-0.058,0.086,0.996,1.43,1.68,0.82,0,2
15301.515,-0.066,0.079,1.008,-2.04,2.08,1.56,0,2
15301.531,-0.069,0.058,1.02,-6.5,1.46,2.53,0,2
15301.531,-0.076,0.038,1.028,-9.22,0.49,2.81,0,2
15301.546,-0.085,0.029,1.029,-9.77,-1.01,2.11,0,2
15301.562,-0.095,0.027,1.034,-9.83,-2.47,1.31,0,2
15301.562,-0.099,0.015,1.037,-9.37,-3.2,1.04,0,2
15301.578,-0.081,0.012,1.037,-7.69,-3.54,1.13,0,2
15301.578,-0.045,0.01,1.039,-4.36,-3.17,0.85,0,2
15301.593,-0.025,0.021,1.022,0.12,-3.39,0.15,0,2
15301.609,-0.032,0.039,0.99,5.62,-4.3,-0.21,0,2
15301.609,-0.035,0.05,0.964,9.25,-4.79,0.4,0,2
15301.625,-0.036,0.06,0.947,9.52,-3.69,1.34,0,2
15301.64,-0.047,0.051,0.943,7.26,-1.19,1.43,0,2
15301.64,-0.049,0.042,0.948,3.33,1.16,0.7,0,2
15301.656,-0.052,0.054,0.957,-1.04,3.11,-1.04,0,2
15301.671,-0.058,0.061,0.972,-5.34,4.43,-3.39,0,2
15301.671,-0.063,0.069,0.997,-8.7,4.7,-5.43,0,2
15301.687,-0.059,0.088,1.012,-9.77,3.27,-6.53,0,2
15301.687,-0.08,0.095,1.017,-7.75,0.98,-6.53,0,2
15301.703,-0.093,0.087,1.01,-3.17,-2.47,-5.49,0,2
15301.718,-0.082,0.092,0.995,2.5,-5.8,-3.91,0,2
15301.718,-0.08,0.104,0.967,7.54,-6.81,-2.78,0,2
15301.734,-0.079,0.11,0.942,10.13,-5.86,-2.2,0,2
15301.75,-0.07,0.125,0.925,9.46,-3.69,-2.2,0,2
15301.765,-0.072,0.136,0.917,6.16,-1.37,-2.17,0,2
15301.765,-0.068,0.139,0.918,0.76,0.24,-1.8,0,2
15301.781,-0.067,0.14,0.932,-5.04,1.62,-0.95,0,2
15301.781,-0.075,0.124,0.951,-10.07,2.2,0.18,0,2
15301.796,-0.074,0.105,0.968,-13.06,1.53,1.13,0,2
15301.812,-0.076,0.089,0.978,-13.31,0.03,1.89,0,2
15301.812,-0.069,0.072,0.983,-12.39,-0.79,2.59,0,2
15301.828,-0.066,0.063,0.989,-11.81,-0.37,2.99,0,2
