timestamp,ax,ay,az,gx,gy,gz,orient_label,motion_label
17378.718,0.248,-0.036,0.996,10.35,-37.35,7.23,2,3
17378.718,0.257,-0.071,0.96,16.48,-36.81,21.94,2,3
17378.734,0.276,-0.109,0.924,18.89,-35.68,29.76,2,3
17378.75,0.278,-0.128,0.9,19.38,-32.17,30.18,2,3
17378.765,0.279,-0.133,0.916,16.97,-27.47,26.46,2,3
17378.765,0.281,-0.134,0.952,14.89,-23.83,22.25,2,3
17378.781,0.284,-0.111,0.978,14.83,-22.98,20.36,2,3
17378.781,0.276,-0.101,0.981,15.66,-24.2,23.5,2,3
17378.796,0.292,-0.09,0.971,16.72,-25.54,31.04,2,3
17378.812,0.309,-0.105,0.962,19.84,-24.9,38.91,2,3
17378.812,0.315,-0.115,0.949,24.51,-22.74,43.73,2,3
17378.828,0.317,-0.11,0.925,26.86,-21.36,44.8,2,3
17378.843,0.312,-0.122,0.92,25.73,-21.18,41.84,2,3
17378.843,0.325,-0.146,0.931,22.98,-21.67,35.58,2,3
17378.859,0.353,-0.154,0.928,20.39,-23.47,26.55,2,3
17378.875,0.362,-0.131,0.921,17.7,-25.12,17.0,2,3
17378.875,0.371,-0.088,0.911,13.67,-26.89,9.19,2,3
17378.89,0.378,-0.04,0.906,10.56,-28.11,5.49,2,3
17378.89,0.379,0.012,0.9,9.67,-28.53,7.63,2,3
17378.906,0.36,0.038,0.89,11.23,-27.68,16.82,2,3
17378.921,0.363,0.046,0.881,15.08,-25.73,32.56,2,3
17378.937,0.385,0.034,0.867,22.03,-23.04,48.86,2,3
17378.937,0.382,0.01,0.849,27.83,-19.35,61.89,2,3
17378.953,0.372,-0.029,0.847,29.6,-15.96,70.04,2,3
17378.953,0.35,-0.062,0.841,29.48,-14.04,73.79,2,3
17378.968,0.329,-0.065,0.846,28.78,-13.4,73.0,2,3
17378.968,0.317,-0.05,0.869,26.25,-12.88,68.24,2,3
17378.984,0.274,-0.033,0.905,23.16,-11.84,62.17,2,3
17379.0,0.241,-0.023,0.945,21.06,-13.28,58.29,2,3
17379.015,0.291,-0.023,0.967,20.17,-18.16,57.71,2,3
17379.015,0.344,0.003,0.963,19.17,-22.95,56.52,2,3
17379.031,0.389,-0.034,0.963,15.72,-26.89,55.48,2,3
17379.031,0.454,-0.088,0.96,13.58,-29.94,53.96,2,3
17379.046,0.516,-0.119,0.923,13.79,-32.14,47.76,2,3
17379.062,0.557,-0.094,0.87,3.02,-34.24,18.46,2,3
17379.062,0.566,-0.086,0.836,-4.67,-33.63,5.22,2,3
17379.078,0.559,-0.072,0.831,-8.3,-31.43,-2.62,2,3
17379.093,0.56,-0.02,0.833,-8.03,-27.74,-2.11,2,3
17379.093,0.572,0.095,0.814,-4.88,-23.56,6.9,2,3
17379.109,0.586,0.127,0.807,0.24,-18.46,21.03,2,3
17379.109,0.579,0.133,0.798,5.34,-11.41,36.07,2,3
17379.125,0.579,0.112,0.81,9.55,-4.0,49.68,2,3
17379.14,0.586,0.081,0.819,11.69,1.77,59.45,2,3
17379.156,0.572,0.039,0.828,11.72,5.71,64.94,2,3
17379.156,0.543,-0.023,0.847,10.83,8.45,65.8,2,3
17379.171,0.508,-0.063,0.865,9.06,10.38,61.13,2,3
17379.171,0.5,-0.101,0.885,5.68,10.93,53.62,2,3
17379.187,0.519,-0.117,0.901,1.86,9.58,44.71,2,3
17379.203,0.516,-0.125,0.915,-1.16,8.18,35.89,2,3
17379.203,0.508,-0.145,0.919,-4.24,6.71,29.02,2,3
17379.218,0.514,-0.146,0.906,-5.58,5.34,22.86,2,3
17379.218,0.512,-0.137,0.879,-6.1,4.94,16.72,2,3
17379.234,0.507,-0.136,0.862,-8.15,5.83,10.59,2,3
17379.25,0.472,-0.148,0.862,-10.28,7.72,4.67,2,3
17379.265,0.447,-0.147,0.889,-10.25,10.74,0.85,2,3
17379.265,0.429,-0.119,0.906,-9.06,12.97,-1.43,2,3
17379.281,0.424,-0.091,0.928,-9.0,13.49,-1.77,2,3
17379.281,0.405,-0.09,0.952,-8.91,13.25,1.16,2,3
17379.296,0.389,-0.099,0.952,-7.17,12.18,5.89,2,3
17379.312,0.389,-0.111,0.934,-5.01,10.9,10.62,2,3
17379.312,0.383,-0.121,0.913,-3.91,10.83,12.18,2,3
17379.328,0.375,-0.147,0.923,-5.04,12.33,10.32,2,3
17379.343,0.372,-0.187,0.951,-6.04,13.37,5.55,2,3
17379.343,0.36,-0.202,0.965,-6.38,12.6,-0.43,2,3
17379.359,0.363,-0.199,0.951,-8.09,9.55,-5.62,2,3
17379.375,0.372,-0.183,0.931,-10.59,6.13,-10.01,2,3
17379.375,0.382,-0.179,0.909,-12.18,4.67,-12.82,2,3
17379.39,0.394,-0.161,0.891,-12.12,6.2,-15.29,2,3
17379.39,0.395,-0.132,0.894,-10.93,9.7,-17.88,2,3
17379.406,0.394,-0.102,0.909,-10.62,12.67,-19.53,2,3
17379.421,0.399,-0.071,0.926,-10.86,13.7,-19.17,2,3
17379.421,0.403,-0.06,0.929,-11.54,12.82,-16.39,2,3
17379.437,0.404,-0.044,0.911,-11.93,10.9,-12.54,2,3
17379.453,0.412,-0.05,0.891,-12.42,10.38,-7.48,2,3
17379.453,0.407,-0.076,0.885,-11.41,12.15,-1.62,2,3
17379.468,0.407,-0.09,0.885,-8.15,15.17,2.53,2,3
17379.484,0.402,-0.079,0.875,-5.28,17.85,5.16,2,3
17379.484,0.42,-0.064,0.871,-7.11,19.41,6.32,2,3
17379.5,0.428,-0.061,0.884,-11.05,20.39,5.95,2,3
17379.515,0.438,-0.088,0.893,-11.9,20.63,6.71,2,3
17379.515,0.439,-0.084,0.875,-9.83,20.97,8.33,2,3
17379.531,0.468,-0.089,0.849,-8.79,21.64,10.93,2,3
17379.531,0.465,-0.116,0.835,-8.24,23.83,11.38,2,3
17379.546,0.432,-0.133,0.833,-8.36,26.46,8.61,2,3
17379.562,0.42,-0.11,0.843,-11.87,30.52,-0.95,2,3
17379.578,0.41,-0.078,0.855,-13.43,33.48,-3.36,2,3
17379.593,0.401,-0.05,0.867,-13.89,36.29,-0.31,2,3
17379.593,0.424,-0.021,0.87,-11.32,38.06,7.48,2,3
17379.609,0.434,-0.014,0.859,-7.29,39.31,15.32,2,3
17379.609,0.37,-0.032,0.845,-5.37,40.41,20.11,2,3
17379.625,0.336,-0.076,0.853,-7.78,41.93,20.51,2,3
17379.64,0.323,-0.111,0.865,-11.23,43.67,15.32,2,3
17379.656,0.304,-0.111,0.869,-14.74,43.73,7.26,2,3
17379.656,0.29,-0.107,0.87,-19.93,41.35,0.15,2,3
17379.671,0.269,-0.097,0.863,-25.18,38.3,-4.82,2,3
17379.671,0.241,-0.079,0.84,-28.32,35.52,-6.5,2,3
17379.687,0.229,-0.06,0.821,-30.12,34.3,-3.42,2,3
17379.703,0.256,-0.056,0.823,-29.51,36.04,3.23,2,3
17379.703,0.271,-0.036,0.828,-26.03,40.13,8.12,2,3
17379.718,0.245,-0.018,0.846,-25.61,44.92,11.78,2,3
17379.734,0.179,-0.092,0.898,-30.09,46.78,29.85,2,3
17379.75,0.161,-0.1,0.883,-26.4,45.38,43.43,2,3
17379.75,0.142,-0.091,0.845,-23.35,44.77,57.47,2,3
17379.765,0.145,-0.122,0.834,-22.19,46.82,72.73,2,3
17379.781,0.199,-0.227,0.858,-17.12,50.02,83.41,2,3
17379.781,0.229,-0.313,0.882,-5.71,55.48,84.38,2,3
17379.796,0.18,-0.339,0.894,1.59,61.77,78.04,2,3
17379.812,0.126,-0.349,0.913,-0.37,63.57,65.89,2,3
17379.812,0.091,-0.378,0.926,-7.69,59.14,50.78,2,3
17379.828,0.074,-0.385,0.921,-16.97,51.21,36.29,2,3
17379.843,0.053,-0.362,0.894,-25.15,43.15,24.02,2,3
17379.843,0.027,-0.339,0.871,-29.51,38.0,16.36,2,3
17379.859,0.003,-0.293,0.849,-29.36,34.97,14.83,2,3
17379.875,0.045,-0.237,0.836,-26.34,35.34,19.07,2,3
17379.875,0.176,-0.227,0.855,-22.25,40.59,24.26,2,3
17379.89,0.186,-0.217,0.87,-17.0,49.29,26.49,2,3
17379.906,0.019,-0.246,0.924,-12.51,57.77,34.03,2,3
17379.921,-0.029,-0.269,0.891,-13.28,55.42,39.86,2,3
17379.921,-0.052,-0.293,0.931,-13.15,52.43,45.75,2,3
17379.937,-0.091,-0.262,0.89,-9.43,45.53,51.73,2,3
17379.953,-0.078,-0.219,0.833,-8.3,41.05,60.82,2,3
17379.953,-0.051,-0.202,0.82,-7.87,40.01,70.25,2,3
17379.968,-0.034,-0.178,0.801,-6.32,41.93,79.29,2,3
17379.968,0.001,-0.126,0.794,-3.14,49.38,88.23,2,3
17379.984,-0.014,-0.115,0.804,0.52,59.05,96.9,2,3
17380.0,-0.071,-0.122,0.794,3.97,66.04,105.87,2,3
17380.0,-0.122,-0.135,0.78,5.16,69.64,114.35,2,3
17380.015,-0.16,-0.178,0.787,4.91,71.08,119.27,2,3
17380.031,-0.192,-0.232,0.793,6.65,70.44,120.27,2,3
17380.046,-0.206,-0.269,0.78,7.29,66.56,107.88,2,3
17380.046,-0.206,-0.241,0.768,0.89,66.47,94.94,2,3
17380.062,-0.198,-0.267,0.761,-5.8,68.36,83.29,2,3
17380.062,-0.144,-0.225,0.773,-16.48,72.05,63.91,2,3
17380.078,-0.115,-0.193,0.825,-24.78,73.0,48.68,2,3
17380.093,-0.178,-0.176,0.866,-39.98,69.4,30.37,2,3
17380.093,-0.239,-0.22,0.852,-51.21,58.11,17.18,2,3
17380.109,-0.286,-0.224,0.819,-58.17,44.86,6.65,2,3
17380.125,-0.319,-0.255,0.765,-65.22,31.98,-1.95,2,3
17380.125,-0.345,-0.302,0.72,-71.81,22.92,-8.48,2,3
17380.14,-0.331,-0.315,0.699,-75.41,19.44,-15.53,2,3
17380.14,-0.316,-0.344,0.682,-77.43,21.06,-24.54,2,3
17380.156,-0.312,-0.371,0.689,-79.26,26.31,-34.42,2,3
17380.171,-0.332,-0.385,0.697,-80.84,31.59,-42.63,2,3
17380.171,-0.371,-0.387,0.702,-82.31,35.34,-47.3,2,3
17380.187,-0.399,-0.395,0.715,-83.5,37.93,-46.17,2,3
17380.203,-0.421,-0.396,0.732,-84.6,39.83,-40.28,2,3
17380.203,-0.44,-0.418,0.75,-83.32,41.02,-31.46,2,3
17380.218,-0.435,-0.439,0.763,-77.94,41.17,-22.28,2,3
17380.234,-0.436,-0.41,0.746,-70.71,39.0,-15.5,2,3
17380.234,-0.445,-0.378,0.718,-66.19,36.19,-10.38,2,3
17380.25,-0.474,-0.369,0.701,-67.05,34.21,-5.52,2,3
17380.25,-0.516,-0.389,0.691,-69.92,32.04,0.34,2,3
17380.265,-0.539,-0.414,0.685,-71.38,30.4,9.52,2,3
17380.281,-0.537,-0.433,0.681,-69.64,30.34,20.42,2,3
17380.296,-0.503,-0.44,0.651,-64.82,31.04,30.95,2,3
17380.296,-0.475,-0.423,0.611,-61.07,33.72,38.91,2,3
17380.312,-0.469,-0.444,0.596,-59.24,38.97,44.89,2,3
17380.312,-0.484,-0.495,0.605,-57.86,45.9,48.43,2,3
17380.328,-0.504,-0.529,0.615,-55.48,51.76,48.86,2,3
17380.328,-0.521,-0.548,0.631,-53.59,55.12,46.97,2,3
17380.343,-0.511,-0.545,0.625,-54.05,54.87,41.81,2,3
17380.359,-0.497,-0.511,0.637,-59.18,53.25,34.24,2,3
17380.375,-0.505,-0.519,0.657,-67.78,48.86,23.65,2,3
17380.375,-0.535,-0.521,0.654,-76.51,41.38,11.6,2,3
17380.39,-0.598,-0.493,0.658,-85.45,32.38,2.47,2,3
17380.406,-0.69,-0.548,0.646,-98.42,10.74,1.74,2,3
17380.421,-0.678,-0.579,0.644,-95.37,0.98,10.01,2,3
17380.421,-0.634,-0.606,0.631,-85.18,-5.22,19.53,2,3
17380.437,-0.587,-0.588,0.598,-73.4,-7.54,24.99,2,3
17380.453,-0.587,-0.551,0.544,-66.16,-7.54,26.58,2,3
17380.453,-0.631,-0.554,0.498,-66.01,-6.71,27.92,2,3
17380.468,-0.662,-0.577,0.486,-70.47,-5.34,31.34,2,3
17380.468,-0.668,-0.606,0.481,-73.76,-3.23,36.62,2,3
17380.484,-0.652,-0.626,0.485,-73.37,-0.64,42.36,2,3
17380.5,-0.641,-0.621,0.488,-70.59,1.83,48.22,2,3
17380.515,-0.634,-0.611,0.477,-66.13,4.55,54.48,2,3
17380.515,-0.634,-0.587,0.465,-62.87,7.81,60.85,2,3
17380.531,-0.637,-0.569,0.446,-61.53,10.83,66.32,2,3
17380.531,-0.639,-0.583,0.445,-61.31,14.16,69.31,2,3
17380.546,-0.654,-0.606,0.445,-60.52,18.43,70.04,2,3
17380.562,-0.678,-0.635,0.452,-59.85,24.02,71.69,2,3
17380.578,-0.694,-0.684,0.507,-54.9,33.27,76.3,2,3
17380.593,-0.686,-0.66,0.5,-50.33,33.2,77.46,2,3
17380.593,-0.702,-0.632,0.482,-47.49,31.77,76.48,2,3
17380.609,-0.716,-0.627,0.47,-48.01,30.18,74.77,2,3
17380.609,-0.692,-0.609,0.464,-50.78,28.53,72.39,2,3
17380.625,-0.675,-0.567,0.445,-54.99,26.95,67.81,2,3
17380.64,-0.686,-0.55,0.437,-60.09,26.28,62.2,2,3
17380.64,-0.704,-0.553,0.443,-64.82,25.94,58.2,2,3
17380.656,-0.719,-0.567,0.459,-67.11,26.49,57.99,2,3
17380.671,-0.716,-0.592,0.482,-65.4,27.44,62.5,2,3
17380.671,-0.706,-0.596,0.493,-59.18,27.65,70.31,2,3
17380.687,-0.676,-0.569,0.48,-50.42,26.92,79.07,2,3
17380.703,-0.65,-0.539,0.446,-42.09,26.61,87.31,2,3
17380.703,-0.643,-0.51,0.413,-36.62,27.19,92.9,2,3
17380.718,-0.62,-0.477,0.391,-35.98,29.18,95.71,2,3
17380.718,-0.625,-0.468,0.379,-39.49,33.69,96.1,2,3
17380.734,-0.663,-0.514,0.386,-44.13,39.98,96.32,2,3
17380.75,-0.698,-0.554,0.403,-46.82,46.24,96.84,2,3
17380.75,-0.76,-0.59,0.421,-44.19,51.94,96.87,2,3
17380.765,-0.792,-0.618,0.426,-38.42,55.39,97.42,2,3
17380.781,-0.818,-0.593,0.412,-33.57,56.55,97.75,2,3
17380.796,-0.833,-0.576,0.393,-31.16,57.68,98.09,2,3
17380.796,-0.82,-0.558,0.384,-33.39,60.03,98.82,2,3
17380.812,-0.804,-0.532,0.382,-37.51,63.69,98.67,2,3
17380.812,-0.796,-0.522,0.388,-40.28,68.54,97.51,2,3
17380.828,-0.796,-0.516,0.4,-40.77,74.5,97.35,2,3
17380.843,-0.801,-0.503,0.411,-37.9,79.29,98.12,2,3
17380.843,-0.789,-0.461,0.391,-32.59,78.49,97.93,2,3
17380.859,-0.812,-0.412,0.339,-27.22,73.67,96.07,2,3
17380.875,-0.86,-0.43,0.3,-23.32,70.5,96.16,2,3
17380.875,-0.882,-0.459,0.286,-21.97,70.13,98.45,2,3
17380.89,-0.897,-0.475,0.269,-21.61,71.5,100.34,2,3
17380.89,-0.909,-0.503,0.253,-19.9,76.08,103.06,2,3
17380.906,-0.922,-0.505,0.244,-16.69,84.51,105.41,2,3
17380.921,-0.933,-0.477,0.239,-13.37,93.78,105.29,2,3
17380.921,-0.94,-0.411,0.219,-10.71,97.02,99.25,2,3
17380.937,-0.954,-0.359,0.198,-8.61,92.93,87.25,2,3
17380.953,-0.985,-0.369,0.193,-7.84,85.97,74.47,2,3
17380.953,-0.991,-0.366,0.195,-12.3,81.12,65.49,2,3
17380.968,-0.977,-0.36,0.187,-20.54,76.45,59.94,2,3
17380.968,-0.957,-0.387,0.191,-27.99,74.95,57.99,2,3
17380.984,-0.952,-0.398,0.212,-30.21,75.87,57.65,2,3
17381.0,-0.936,-0.425,0.212,-25.33,75.32,59.05,2,3
17381.0,-0.966,-0.436,0.189,-15.53,75.2,59.42,2,3
17381.015,-1.023,-0.409,0.14,-1.89,72.79,55.3,2,3
17381.031,-1.056,-0.364,0.069,10.35,56.43,38.51,2,3
17381.031,-1.1,-0.32,0.014,4.64,49.47,28.72,2,3
17381.046,-1.142,-0.285,-0.029,-6.87,43.7,17.67,2,3
17381.062,-1.157,-0.241,-0.08,-20.94,39.92,5.74,2,3
17381.078,-1.12,-0.226,-0.032,-44.04,37.78,-10.5,2,3
17381.093,-1.064,-0.212,-0.0,-47.43,38.45,-12.45,2,3
17381.093,-1.033,-0.205,0.027,-44.71,38.79,-10.07,2,3
17381.109,-1.028,-0.241,0.052,-36.01,37.87,-1.34,2,3
17381.125,-1.0,-0.28,0.073,-22.49,36.56,15.17,2,3
17381.125,-0.969,-0.286,0.078,-4.67,36.13,34.03,2,3
17381.14,-0.956,-0.297,0.051,16.57,36.93,51.42,2,3
17381.14,-0.954,-0.306,0.008,36.59,38.91,66.16,2,3
17381.156,-0.964,-0.289,-0.033,51.24,42.09,76.97,2,3
17381.171,-0.97,-0.271,-0.061,60.34,46.72,82.43,2,3
17381.171,-0.975,-0.276,-0.085,65.37,52.46,83.1,2,3
17381.187,-0.983,-0.278,-0.102,66.62,58.44,80.54,2,3
17381.203,-0.984,-0.282,-0.109,65.86,62.38,76.57,2,3
17381.203,-0.999,-0.299,-0.108,65.37,64.03,71.75,2,3
17381.218,-1.037,-0.302,-0.096,66.35,64.46,64.73,2,3
17381.234,-1.048,-0.285,-0.092,67.48,62.72,54.54,2,3
17381.234,-1.042,-0.257,-0.094,65.83,58.26,42.36,2,3
17381.25,-1.063,-0.225,-0.1,61.59,51.24,29.39,2,3
17381.25,-1.074,-0.197,-0.1,54.51,42.18,16.48,2,3
17381.265,-1.084,-0.192,-0.095,44.68,31.74,5.8,2,3
17381.281,-1.11,-0.207,-0.086,34.97,20.81,-2.17,2,3
17381.281,-1.13,-0.23,-0.082,27.34,9.46,-7.42,2,3
17381.296,-1.136,-0.246,-0.078,22.98,-2.53,-10.59,2,3
17381.312,-1.149,-0.273,-0.087,22.68,-14.19,-12.24,2,3
17381.312,-1.17,-0.289,-0.101,24.11,-23.62,-12.97,2,3
17381.328,-1.182,-0.288,-0.113,25.03,-30.27,-13.06,2,3
17381.343,-1.177,-0.276,-0.128,24.96,-34.94,-12.94,2,3
17381.343,-1.171,-0.259,-0.139,23.71,-37.45,-13.92,2,3
17381.359,-1.175,-0.244,-0.145,21.36,-37.54,-15.93,2,3
17381.375,-1.189,-0.256,-0.133,18.89,-34.18,-18.22,2,3
17381.375,-1.195,-0.285,-0.111,16.85,-26.95,-19.5,2,3
17381.39,-1.189,-0.298,-0.087,15.81,-17.43,-21.0,2,3
17381.39,-1.182,-0.295,-0.072,17.06,-7.26,-23.77,2,3
17381.406,-1.177,-0.281,-0.065,19.5,3.05,-27.38,2,3
17381.421,-1.171,-0.258,-0.061,21.18,12.57,-30.58,2,3
17381.421,-1.156,-0.227,-0.055,21.06,20.14,-32.75,2,3
17381.437,-1.151,-0.197,-0.056,18.86,25.18,-34.03,2,3
17381.453,-1.136,-0.152,-0.06,13.55,28.08,-35.0,2,3
17381.453,-1.161,-0.165,-0.07,5.34,29.39,-35.49,2,3
17381.468,-1.161,-0.202,-0.046,-3.69,33.33,-32.23,2,3
17381.468,-1.167,-0.202,-0.024,-9.25,29.08,-29.21,2,3
17381.484,-1.141,-0.206,-0.028,-9.61,21.39,-27.95,2,3
17381.5,-1.131,-0.214,-0.035,-10.5,20.26,-26.4,2,3
17381.515,-1.122,-0.187,-0.044,-14.65,17.24,-25.33,2,3
17381.515,-1.099,-0.177,-0.059,-20.11,11.44,-24.54,2,3
17381.531,-1.084,-0.18,-0.079,-26.58,7.35,-23.83,2,3
17381.546,-1.075,-0.192,-0.083,-34.64,4.85,-22.71,2,3
17381.546,-1.058,-0.209,-0.067,-41.57,3.02,-22.28,2,3
17381.562,-1.053,-0.222,-0.077,-46.21,-0.7,-25.76,2,3
17381.578,-1.038,-0.294,-0.055,-48.49,3.94,-24.48,2,3
17381.593,-1.012,-0.245,-0.056,-43.79,5.92,-24.78,2,3
17381.593,-0.997,-0.245,-0.063,-36.96,8.45,-24.96,2,3
17381.609,-0.982,-0.242,-0.058,-30.82,11.93,-23.56,2,3
17381.609,-0.974,-0.214,-0.06,-23.26,12.91,-22.43,2,3
17381.625,-0.979,-0.216,-0.065,-14.25,12.63,-20.23,2,3
17381.64,-0.99,-0.204,-0.07,-7.2,12.63,-16.66,2,3
17381.64,-1.009,-0.188,-0.081,-2.32,11.72,-12.67,2,3
17381.656,-1.024,-0.191,-0.092,0.09,10.16,-7.75,2,3
17381.671,-1.033,-0.193,-0.099,0.85,8.55,-2.93,2,3
17381.687,-1.03,-0.198,-0.103,1.28,6.84,1.19,2,3
17381.687,-1.03,-0.205,-0.112,1.46,5.37,4.61,2,3
17381.703,-1.018,-0.209,-0.113,0.89,4.18,7.11,2,3
17381.703,-1.01,-0.212,-0.109,0.46,3.36,8.18,2,3
17381.718,-1.007,-0.239,-0.106,1.83,1.74,8.18,2,3
17381.718,-0.995,-0.26,-0.104,4.82,0.37,8.58,2,3
17381.75,-0.991,-0.259,-0.12,13.67,-2.87,7.97,2,3
17381.765,-0.983,-0.258,-0.125,16.79,-3.97,7.97,2,3
17381.765,-0.979,-0.241,-0.133,18.49,-4.58,7.45,2,3
17381.781,-0.965,-0.223,-0.141,18.01,-4.55,6.87,2,3
17381.781,-0.961,-0.204,-0.148,15.53,-3.85,6.29,2,3
17381.796,-0.951,-0.189,-0.15,11.84,-2.78,6.01,2,3
17381.812,-0.946,-0.177,-0.154,7.29,-1.98,6.29,2,3
17381.828,-0.95,-0.184,-0.156,3.02,-1.98,7.48,2,3
17381.828,-0.953,-0.194,-0.153,0.21,-2.66,8.79,2,3
17381.843,-0.961,-0.202,-0.152,-0.52,-3.66,9.74,2,3
17381.843,-0.961,-0.213,-0.151,-0.24,-4.27,10.13,2,3
17381.859,-0.964,-0.22,-0.15,-0.24,-4.3,9.22,2,3
17381.859,-0.966,-0.223,-0.146,-0.52,-3.81,7.02,2,3
17381.875,-0.965,-0.218,-0.142,-1.37,-2.66,4.46,2,3
17381.89,-0.964,-0.21,-0.139,-2.99,-2.08,2.59,2,3
17381.89,-0.951,-0.205,-0.138,-4.79,-2.78,1.71,2,3
17381.921,-0.922,-0.206,-0.142,-5.16,-6.99,3.02,2,3
17381.921,-0.924,-0.208,-0.146,-2.81,-9.86,5.13,2,3
17381.937,-0.928,-0.213,-0.15,0.18,-12.33,7.26,2,3
17381.953,-0.932,-0.215,-0.15,2.84,-13.58,8.73,2,3
17381.953,-0.955,-0.218,-0.157,5.07,-14.16,9.55,2,3
17381.968,-0.965,-0.224,-0.157,6.44,-14.31,10.44,2,3
17381.968,-0.964,-0.213,-0.157,6.93,-13.34,11.02,2,3
17381.984,-0.96,-0.203,-0.165,6.47,-11.96,11.08,2,3
17382.0,-0.942,-0.194,-0.169,4.67,-11.08,10.9,2,3
17382.015,-0.935,-0.2,-0.17,1.34,-10.41,11.29,2,3
17382.015,-0.936,-0.21,-0.168,1.34,-10.32,11.44,2,3
17382.031,-0.937,-0.209,-0.165,1.65,-10.28,10.56,2,3
17382.031,-0.946,-0.204,-0.166,1.1,-10.35,9.4,2,3
17382.046,-0.963,-0.201,-0.17,-0.82,-10.35,8.73,2,3
17382.062,-0.961,-0.204,-0.167,-3.6,-9.86,8.67,2,3
17382.062,-0.956,-0.2,-0.152,-6.13,-8.21,8.64,2,3
17382.078,-0.938,-0.206,-0.146,-7.6,-6.96,8.06,2,3
17382.093,-0.943,-0.196,-0.16,-9.13,-4.3,6.2,2,3
17382.093,-0.94,-0.196,-0.144,-9.22,-1.46,4.94,2,3
17382.109,-0.94,-0.195,-0.137,-8.45,-1.1,3.3,2,3
17382.125,-0.946,-0.189,-0.142,-7.63,-0.85,2.5,2,3
17382.125,-0.961,-0.186,-0.14,-7.57,-0.03,2.47,2,3
17382.14,-0.962,-0.182,-0.132,-8.18,0.79,2.9,2,3
17382.14,-0.963,-0.181,-0.13,-8.85,1.98,3.48,2,3
17382.156,-0.967,-0.183,-0.127,-9.25,3.17,3.88,2,3
17382.171,-0.959,-0.186,-0.121,-8.94,3.69,4.36,2,3
17382.171,-0.95,-0.181,-0.122,-7.66,3.69,4.33,2,3
17382.187,-0.954,-0.175,-0.125,-5.71,3.39,4.27,2,3
17382.203,-0.944,-0.171,-0.126,-4.27,2.56,4.76,2,3
17382.218,-0.957,-0.179,-0.125,-2.99,2.2,5.95,2,3
17382.218,-0.97,-0.194,-0.124,-1.46,1.53,7.29,2,3
17382.218,-0.977,-0.198,-0.12,-0.4,1.19,8.18,2,3
17382.234,-0.978,-0.199,-0.122,0.06,1.22,8.09,2,3
17382.25,-0.954,-0.196,-0.121,-1.56,2.17,7.14,2,3
17382.265,-0.944,-0.192,-0.127,-2.08,1.89,6.56,2,3
17382.281,-0.946,-0.196,-0.136,-1.53,-0.06,6.13,2,3
17382.296,-0.935,-0.192,-0.143,-1.1,-2.5,6.53,2,3
17382.296,-0.947,-0.185,-0.151,-0.79,-3.81,6.93,2,3
17382.312,-0.958,-0.191,-0.157,-1.31,-4.39,6.93,2,3
17382.312,-0.96,-0.196,-0.158,-3.08,-3.75,6.93,2,3
17382.328,-0.966,-0.193,-0.157,-4.97,-2.11,6.2,2,3
17382.343,-0.965,-0.193,-0.151,-7.29,0.43,4.79,2,3
17382.343,-0.956,-0.191,-0.141,-9.4,3.57,2.69,2,3
17382.359,-0.945,-0.179,-0.133,-10.71,6.41,-0.18,2,3
17382.359,-0.942,-0.162,-0.131,-10.9,8.45,-2.75,2,3
17382.375,-0.94,-0.147,-0.129,-10.41,9.0,-3.63,2,3
17382.39,-0.942,-0.136,-0.129,-9.58,8.21,-2.84,2,3
17382.39,-0.948,-0.13,-0.13,-8.7,6.81,-1.13,2,3
17382.406,-0.946,-0.125,-0.128,-7.6,5.22,0.61,2,3
17382.437,-0.939,-0.125,-0.121,-5.13,4.67,3.72,2,3
17382.437,-0.947,-0.129,-0.123,-3.36,4.3,5.19,2,3
17382.453,-0.939,-0.126,-0.127,-1.19,3.14,7.02,2,3
17382.453,-0.943,-0.119,-0.143,1.77,1.62,8.88,2,3
17382.468,-0.93,-0.114,-0.156,4.39,-0.15,10.77,2,3
17382.484,-0.924,-0.099,-0.161,6.01,-0.58,12.82,2,3
17382.484,-0.941,-0.105,-0.176,7.84,-0.7,14.89,2,3
17382.5,-0.931,-0.111,-0.181,8.79,-1.1,17.21,2,3
17382.5,-0.92,-0.102,-0.177,9.28,-0.09,18.98,2,3
17382.515,-0.924,-0.098,-0.178,9.95,2.5,19.84,2,3
17382.531,-0.911,-0.094,-0.177,9.58,4.88,20.78,2,3
17382.531,-0.895,-0.078,-0.172,9.13,7.11,21.42,2,3
17382.546,-0.884,-0.064,-0.171,8.73,9.22,22.31,2,3
17382.562,-0.87,-0.049,-0.17,8.0,10.62,23.38,2,3
17382.562,-0.857,-0.035,-0.166,7.35,11.32,24.87,2,3
17382.578,-0.851,-0.026,-0.157,6.81,11.75,26.55,2,3
17382.593,-0.854,-0.025,-0.152,6.84,11.44,28.84,2,3
17382.593,-0.85,-0.029,-0.148,7.93,10.1,31.68,2,3
17382.609,-0.843,-0.032,-0.151,10.19,8.18,34.46,2,3
17382.609,-0.838,-0.037,-0.153,13.4,6.68,36.87,2,3
17382.625,-0.82,-0.034,-0.157,16.66,6.26,38.7,2,3
17382.64,-0.803,-0.027,-0.161,19.75,7.14,39.52,2,3
17382.656,-0.785,-0.02,-0.162,21.55,9.52,39.8,2,3
17382.656,-0.769,-0.006,-0.157,21.73,12.91,39.52,2,3
17382.671,-0.779,0.011,-0.156,20.78,16.54,38.73,2,3
17382.671,-0.804,0.029,-0.149,18.31,19.5,38.18,2,3
17382.687,-0.833,0.06,-0.137,13.73,21.58,37.93,2,3
17382.703,-0.872,0.082,-0.129,7.39,21.67,37.81,2,3
17382.703,-0.917,0.08,-0.119,0.43,18.95,38.18,2,3
17382.718,-0.97,0.075,-0.101,-5.74,14.68,39.92,2,3
17382.734,-1.015,0.073,-0.071,-10.74,10.74,42.45,2,3
17382.734,-1.053,0.066,-0.037,-14.22,7.42,44.95,2,3
17382.75,-1.094,0.061,-0.014,-15.56,4.12,46.66,2,3
17382.75,-1.132,0.07,-0.002,-14.68,0.34,47.85,2,3
17382.765,-1.163,0.087,0.008,-11.35,-4.97,48.89,2,3
17382.781,-1.175,0.097,-0.001,-5.58,-12.18,50.39,2,3
17382.781,-1.19,0.129,-0.01,1.4,-21.09,52.86,2,3
17382.796,-1.212,0.158,-0.03,10.8,-30.4,56.98,2,3
17382.812,-1.248,0.178,-0.048,20.87,-39.67,62.81,2,3
17382.828,-1.275,0.194,-0.061,29.73,-47.76,70.22,2,3
17382.828,-1.305,0.203,-0.078,35.95,-53.8,78.04,2,3
17382.843,-1.318,0.2,-0.097,39.06,-58.63,85.97,2,3
17382.843,-1.3,0.201,-0.108,37.81,-61.95,93.05,2,3
17382.859,-1.269,0.198,-0.118,34.58,-64.09,98.79,2,3
17382.875,-1.247,0.18,-0.121,32.32,-64.97,103.21,2,3
17382.875,-1.232,0.173,-0.121,31.8,-65.49,106.17,2,3
17382.89,-1.205,0.183,-0.12,32.99,-65.74,107.76,2,3
17382.906,-1.168,0.194,-0.12,35.19,-65.25,108.19,2,3
17382.906,-1.156,0.214,-0.118,37.69,-64.21,108.1,2,3
17382.937,-1.138,0.295,-0.121,34.76,-64.58,114.17,2,3
17382.937,-1.134,0.323,-0.12,26.83,-63.97,119.54,2,3
17382.953,-1.1,0.326,-0.121,15.69,-63.66,123.78,2,3
17382.953,-1.074,0.296,-0.117,4.73,-62.87,125.98,2,3
17382.968,-1.05,0.274,-0.103,-3.6,-60.3,124.64,2,3
17382.984,-1.019,0.264,-0.093,-8.3,-58.6,120.85,2,3
17382.984,-1.011,0.278,-0.079,-9.89,-55.94,114.38,2,3
17383.0,-0.998,0.305,-0.073,-11.35,-54.96,110.87,2,3
17383.015,-0.985,0.34,-0.07,-14.62,-52.98,105.99,2,3
17383.015,-0.96,0.366,-0.062,-19.65,-49.96,101.17,2,3
17383.031,-0.922,0.416,-0.018,-23.96,-46.27,98.27,2,3
17383.046,-0.922,0.444,0.016,-26.15,-42.97,97.6,2,3
17383.046,-0.933,0.495,0.057,-25.91,-39.31,97.81,2,3
17383.062,-0.922,0.539,0.094,-25.21,-36.62,98.88,2,3
17383.062,-0.891,0.541,0.116,-24.05,-35.68,100.62,2,3
17383.078,-0.853,0.511,0.132,-21.0,-35.58,102.6,2,3
17383.093,-0.786,0.504,0.15,-9.4,-38.15,101.96,2,3
17383.109,-0.775,0.512,0.14,-5.25,-39.77,97.42,2,3
17383.125,-0.78,0.534,0.134,-4.91,-40.38,92.01,2,3
17383.125,-0.778,0.562,0.132,-8.51,-41.26,87.86,2,3
17383.14,-0.779,0.582,0.133,-15.44,-42.7,84.26,2,3
17383.14,-0.774,0.582,0.137,-23.83,-44.8,80.45,2,3
17383.156,-0.756,0.583,0.141,-31.86,-46.45,77.61,2,3
17383.171,-0.748,0.572,0.141,-37.45,-46.39,76.33,2,3
17383.171,-0.735,0.563,0.16,-42.21,-46.75,75.14,2,3
17383.187,-0.724,0.543,0.17,-43.82,-48.07,73.46,2,3
17383.203,-0.734,0.548,0.186,-43.95,-49.5,70.22,2,3
17383.203,-0.729,0.574,0.208,-44.89,-51.91,65.49,2,3
17383.218,-0.74,0.584,0.224,-46.3,-55.18,60.37,2,3
17383.218,-0.752,0.595,0.24,-47.58,-57.95,56.22,2,3
17383.234,-0.739,0.605,0.247,-48.62,-60.64,53.32,2,3
17383.25,-0.736,0.613,0.256,-48.07,-62.35,50.6,2,3
17383.25,-0.729,0.623,0.272,-46.24,-62.96,48.16,2,3
17383.265,-0.714,0.632,0.278,-42.42,-64.27,47.21,2,3
17383.281,-0.714,0.656,0.255,-37.17,-64.21,46.21,2,3
17383.281,-0.705,0.638,0.277,-30.7,-62.65,48.19,2,3
17383.296,-0.683,0.637,0.277,-25.33,-61.83,50.6,2,3
17383.312,-0.662,0.639,0.271,-19.07,-57.77,51.7,2,3
17383.328,-0.649,0.633,0.273,-15.14,-53.35,51.64,2,3
17383.328,-0.644,0.649,0.282,-14.04,-49.26,50.36,2,3
17383.343,-0.635,0.656,0.291,-15.23,-46.11,48.31,2,3
17383.343,-0.629,0.647,0.299,-18.74,-44.07,45.56,2,3
17383.359,-0.626,0.649,0.314,-23.1,-42.97,41.93,2,3
17383.359,-0.613,0.647,0.331,-27.62,-43.15,38.36,2,3
17383.375,-0.614,0.643,0.348,-31.74,-44.89,35.62,2,3
17383.39,-0.618,0.661,0.365,-35.68,-47.24,33.11,2,3
17383.406,-0.601,0.668,0.376,-38.94,-51.88,31.77,2,3
17383.406,-0.595,0.655,0.387,-39.89,-56.86,31.71,2,3
17383.421,-0.584,0.638,0.385,-37.23,-60.58,33.08,2,3
17383.421,-0.56,0.623,0.387,-32.01,-62.9,34.82,2,3
17383.437,-0.543,0.624,0.388,-25.24,-62.47,35.98,2,3
17383.453,-0.529,0.621,0.38,-17.98,-60.3,36.47,2,3
17383.453,-0.52,0.627,0.372,-11.32,-56.64,35.92,2,3
17383.468,-0.501,0.632,0.368,-5.8,-52.16,34.85,2,3
17383.484,-0.488,0.633,0.361,-1.34,-48.19,33.63,2,3
17383.484,-0.482,0.638,0.356,1.53,-43.95,32.01,2,3
17383.5,-0.472,0.648,0.367,2.53,-40.77,30.52,2,3
17383.5,-0.469,0.654,0.379,1.77,-39.74,28.9,2,3
17383.515,-0.469,0.652,0.381,-0.7,-40.22,27.34,2,3
17383.531,-0.463,0.654,0.385,-4.79,-41.9,24.99,2,3
17383.546,-0.453,0.647,0.387,-10.19,-44.59,21.88,2,3
17383.546,-0.447,0.648,0.389,-16.54,-46.63,18.07,2,3
17383.562,-0.435,0.65,0.391,-23.9,-47.52,13.49,2,3
17383.562,-0.426,0.646,0.39,-31.4,-47.46,8.76,2,3
17383.578,-0.425,0.639,0.395,-38.85,-46.11,4.3,2,3
17383.593,-0.443,0.668,0.433,-51.42,-41.78,-2.23,2,3
17383.609,-0.453,0.681,0.454,-56.18,-40.83,-4.73,2,3
17383.625,-0.457,0.679,0.477,-59.63,-41.44,-5.68,2,3
17383.625,-0.466,0.679,0.499,-60.88,-43.31,-5.13,2,3
17383.64,-0.463,0.687,0.515,-60.3,-46.3,-4.06,2,3
17383.64,-0.457,0.679,0.522,-58.53,-48.83,-2.93,2,3
17383.656,-0.446,0.657,0.528,-56.64,-50.57,-1.56,2,3
17383.671,-0.433,0.641,0.528,-54.02,-51.06,-0.64,2,3
17383.687,-0.423,0.63,0.526,-50.94,-49.87,-0.98,2,3
17383.687,-0.412,0.63,0.528,-48.34,-47.18,-2.44,2,3
17383.703,-0.404,0.635,0.533,-47.27,-43.86,-4.33,2,3
17383.703,-0.401,0.638,0.539,-47.61,-40.16,-5.37,2,3
17383.718,-0.393,0.642,0.547,-49.35,-36.44,-5.83,2,3
17383.734,-0.383,0.637,0.557,-52.22,-33.78,-6.29,2,3
17383.734,-0.378,0.63,0.569,-55.27,-32.11,-6.81,2,3
17383.75,-0.376,0.626,0.583,-57.95,-31.34,-7.29,2,3
17383.765,-0.372,0.613,0.607,-62.99,-33.91,-8.67,2,3
17383.781,-0.369,0.601,0.618,-63.69,-34.94,-9.58,2,3
17383.781,-0.366,0.588,0.627,-62.9,-34.36,-10.38,2,3
17383.796,-0.363,0.585,0.644,-61.04,-31.43,-11.14,2,3
17383.812,-0.37,0.585,0.663,-58.66,-27.65,-11.93,2,3
17383.812,-0.381,0.586,0.686,-55.18,-23.35,-12.27,2,3
17383.828,-0.387,0.592,0.712,-50.94,-19.38,-11.66,2,3
17383.843,-0.398,0.595,0.735,-45.66,-17.06,-10.16,2,3
17383.843,-0.402,0.587,0.746,-39.46,-16.66,-7.54,2,3
17383.859,-0.397,0.575,0.749,-32.99,-18.31,-4.36,2,3
17383.859,-0.388,0.563,0.741,-27.25,-21.27,-1.56,2,3
17383.875,-0.381,0.565,0.727,-23.41,-24.38,-0.34,2,3
17383.89,-0.365,0.565,0.709,-23.8,-26.86,-0.27,2,3
17383.906,-0.355,0.559,0.702,-28.2,-29.05,-1.37,2,3
17383.906,-0.351,0.553,0.704,-34.36,-30.34,-2.69,2,3
17383.921,-0.351,0.544,0.719,-39.8,-30.34,-3.48,2,3
17383.921,-0.356,0.535,0.745,-42.76,-29.3,-3.81,2,3
17383.937,-0.36,0.523,0.767,-42.94,-27.8,-3.81,2,3
17383.953,-0.358,0.509,0.787,-40.01,-26.8,-3.63,2,3
17383.953,-0.353,0.493,0.794,-33.72,-26.92,-3.2,2,3
17383.968,-0.345,0.48,0.787,-25.73,-28.35,-2.17,2,3
17383.984,-0.339,0.475,0.772,-11.38,-29.82,-0.79,2,3
17383.984,-0.333,0.487,0.769,-8.58,-30.82,-0.64,2,3
17384.0,-0.329,0.493,0.76,-8.67,-31.65,-0.43,2,3
17384.0,-0.329,0.522,0.754,-11.2,-30.52,-0.24,2,3
17384.015,-0.325,0.532,0.767,-15.44,-27.38,-0.73,2,3
17384.031,-0.331,0.528,0.787,-19.81,-22.8,-1.34,2,3
17384.046,-0.333,0.523,0.8,-22.4,-18.37,-1.53,2,3
17384.046,-0.329,0.508,0.814,-22.61,-15.93,-0.92,2,3
17384.062,-0.327,0.495,0.821,-20.36,-15.66,-0.15,2,3
17384.062,-0.321,0.484,0.821,-15.5,-16.21,1.16,2,3
17384.078,-0.316,0.479,0.821,-9.09,-16.94,2.81,2,3
17384.093,-0.312,0.48,0.819,-2.56,-17.46,4.49,2,3
17384.093,-0.305,0.475,0.815,2.53,-18.01,6.01,2,3
17384.109,-0.298,0.471,0.804,5.31,-18.65,6.99,2,3
17384.109,-0.287,0.475,0.793,5.8,-18.98,6.62,2,3
17384.125,-0.28,0.475,0.786,3.85,-19.23,5.1,2,3
17384.14,-0.278,0.475,0.78,-0.15,-19.07,2.93,2,3
17384.156,-0.281,0.477,0.785,-4.55,-18.43,0.58,2,3
17384.156,-0.286,0.481,0.794,-8.42,-17.91,-1.13,2,3
17384.171,-0.292,0.487,0.812,-10.96,-17.15,-2.08,2,3
17384.171,-0.294,0.487,0.824,-11.69,-15.75,-1.98,2,3
17384.187,-0.292,0.471,0.834,-10.07,-14.44,-1.07,2,3
17384.203,-0.295,0.464,0.842,-6.53,-13.37,-0.24,2,3
17384.203,-0.287,0.46,0.843,-2.17,-12.76,-0.43,2,3
17384.218,-0.284,0.465,0.844,1.89,-12.33,-1.74,2,3
17384.234,-0.287,0.472,0.842,4.58,-12.54,-3.11,2,3
17384.234,-0.282,0.481,0.834,6.1,-13.86,-4.03,2,3
17384.25,-0.279,0.49,0.826,6.2,-15.11,-4.43,2,3
17384.265,-0.274,0.499,0.819,4.61,-16.17,-4.09,2,3
17384.265,-0.266,0.495,0.81,2.17,-16.54,-3.6,2,3
17384.281,-0.26,0.495,0.811,-0.92,-15.56,-3.48,2,3
17384.281,-0.26,0.49,0.818,-2.84,-14.37,-3.39,2,3
17384.296,-0.265,0.484,0.826,-3.3,-13.25,-2.99,2,3
17384.312,-0.263,0.48,0.832,-1.65,-12.48,-1.59,2,3
17384.328,-0.263,0.485,0.831,1.01,-11.41,-0.55,2,3
17384.328,-0.266,0.491,0.84,3.14,-10.59,-0.15,2,3
17384.343,-0.271,0.5,0.84,3.81,-10.83,-0.09,2,3
17384.343,-0.266,0.505,0.837,3.66,-11.69,0.15,2,3
17384.359,-0.264,0.508,0.834,2.9,-12.97,0.67,2,3
17384.359,-0.269,0.521,0.841,1.74,-14.07,1.43,2,3
17384.375,-0.273,0.53,0.846,1.25,-15.81,2.38,2,3
17384.39,-0.273,0.534,0.853,0.61,-18.04,3.42,2,3
17384.39,-0.263,0.525,0.844,0.43,-19.84,4.06,2,3
17384.406,-0.253,0.515,0.843,-0.37,-21.52,3.78,2,3
17384.421,-0.241,0.503,0.844,-1.74,-22.83,3.05,2,3
17384.421,-0.229,0.493,0.843,-2.96,-23.9,1.92,2,3
17384.437,-0.221,0.487,0.846,-3.81,-24.63,0.92,2,3
17384.453,-0.216,0.484,0.844,-3.45,-24.63,0.95,2,3
17384.453,-0.207,0.487,0.843,-2.44,-23.74,1.46,2,3
17384.468,-0.202,0.486,0.845,-1.92,-22.83,1.46,2,3
17384.484,-0.2,0.484,0.846,-1.43,-21.82,1.5,2,3
17384.484,-0.197,0.488,0.843,-0.7,-20.45,2.14,2,3
17384.5,-0.193,0.488,0.843,-0.15,-19.2,2.44,2,3
17384.5,-0.189,0.485,0.841,-0.31,-18.52,2.17,2,3
17384.515,-0.183,0.483,0.831,-1.22,-17.88,1.34,2,3
17384.531,-0.174,0.478,0.823,-2.29,-17.03,0.03,2,3
17384.531,-0.166,0.487,0.801,-3.75,-15.17,-1.65,2,3
17384.546,-0.161,0.496,0.805,-5.71,-11.72,-2.11,2,3
17384.562,-0.159,0.478,0.797,-6.13,-7.6,-2.38,2,3
17384.562,-0.168,0.474,0.809,-6.38,-2.96,-2.14,2,3
17384.578,-0.18,0.481,0.832,-4.85,0.49,-1.65,2,3
17384.593,-0.191,0.479,0.846,-1.68,2.17,-1.25,2,3
17384.593,-0.201,0.483,0.852,0.79,1.98,-0.89,2,3
17384.609,-0.201,0.492,0.848,2.62,0.49,-0.55,2,3
17384.625,-0.199,0.496,0.836,2.84,-1.53,-0.49,2,3
17384.625,-0.196,0.502,0.827,1.16,-2.75,-0.31,2,3
17384.64,-0.192,0.498,0.829,-1.43,-2.93,-0.12,2,3
17384.64,-0.191,0.492,0.833,-4.24,-2.75,0.0,2,3
17384.656,-0.191,0.485,0.839,-6.32,-2.5,-0.18,2,3
17384.671,-0.193,0.479,0.846,-7.35,-2.17,-0.64,2,3
17384.671,-0.198,0.476,0.848,-6.99,-2.2,-1.19,2,3
17384.687,-0.195,0.472,0.842,-5.55,-2.72,-1.53,2,3
17384.703,-0.186,0.474,0.831,-3.88,-2.62,-1.59,2,3
17384.703,-0.179,0.471,0.826,-2.17,-0.98,-1.62,2,3
17384.718,-0.181,0.465,0.828,-1.37,0.98,-1.59,2,3
17384.718,-0.185,0.47,0.84,-1.43,2.32,-1.98,2,3
17384.734,-0.195,0.474,0.852,-1.92,2.44,-2.62,2,3
17384.75,-0.202,0.473,0.86,-2.75,1.53,-2.75,2,3
17384.765,-0.204,0.481,0.862,-3.75,-0.15,-2.32,2,3
17384.765,-0.198,0.484,0.855,-4.94,-1.89,-1.92,2,3
17384.781,-0.194,0.48,0.85,-6.56,-3.11,-1.74,2,3
17384.781,-0.19,0.48,0.847,-8.73,-3.94,-1.71,2,3
17384.796,-0.182,0.477,0.845,-11.2,-3.75,-1.8,2,3
17384.812,-0.177,0.466,0.845,-12.54,-2.87,-2.01,2,3
17384.812,-0.174,0.453,0.849,-12.33,-1.43,-2.08,2,3
17384.828,-0.175,0.449,0.85,-10.59,0.15,-1.98,2,3
17384.843,-0.175,0.445,0.851,-7.93,1.28,-2.47,2,3
17384.843,-0.177,0.445,0.849,-5.4,1.95,-3.48,2,3
17384.859,-0.179,0.451,0.849,-3.27,2.44,-4.09,2,3
17384.859,-0.189,0.451,0.855,-1.71,2.5,-3.91,2,3
17384.875,-0.192,0.454,0.861,-0.85,1.5,-2.84,2,3
17384.89,-0.187,0.463,0.857,-1.13,0.21,-2.08,2,3
17384.89,-0.186,0.47,0.858,-3.42,-0.92,-2.14,2,3
17384.906,-0.183,0.465,0.855,-6.2,-1.95,-2.29,2,3
17384.921,-0.179,0.456,0.848,-8.15,-2.53,-2.26,2,3
17384.921,-0.173,0.449,0.837,-8.79,-2.62,-2.29,2,3
17384.937,-0.166,0.436,0.826,-8.45,-1.74,-1.95,2,3
17384.953,-0.166,0.425,0.828,-7.32,0.52,-1.92,2,3
17384.953,-0.173,0.424,0.838,-5.31,4.33,-2.78,2,3
17384.968,-0.189,0.425,0.847,-4.27,4.58,-3.11,2,3
17384.984,-0.199,0.424,0.853,-3.05,4.06,-3.48,2,3
17384.984,-0.201,0.422,0.85,-1.89,3.2,-3.94,2,3
17385.0,-0.206,0.435,0.845,-0.64,2.87,-3.81,2,3
17385.0,-0.221,0.459,0.86,-0.06,2.66,-2.93,2,3
17385.015,-0.231,0.479,0.875,-1.68,0.73,-1.59,2,3
17385.031,-0.232,0.491,0.886,-4.7,-2.78,-0.46,2,3
17385.031,-0.226,0.488,0.883,-7.72,-6.26,0.49,2,3
17385.046,-0.221,0.469,0.879,-9.58,-8.58,1.5,2,3
17385.062,-0.21,0.447,0.869,-9.55,-10.16,2.29,2,3
17385.078,-0.198,0.43,0.859,-8.0,-10.62,2.08,2,3
17385.078,-0.186,0.412,0.854,-6.2,-9.8,0.89,2,3
17385.078,-0.12,0.385,0.806,-3.33,-7.51,-0.58,2,3
17385.093,-0.195,0.345,0.858,4.7,0.76,-4.88,2,3
17385.109,-0.351,0.463,1.046,8.27,-1.1,-3.94,2,3
17385.109,-0.217,0.531,1.026,4.88,-17.09,1.13,2,3
17385.125,-0.172,0.517,0.936,3.72,-20.57,-0.03,2,3
17385.14,-0.167,0.495,0.901,2.08,-14.83,-0.18,2,3
17385.14,-0.149,0.474,0.894,5.22,-7.11,0.52,2,3
17385.156,-0.167,0.474,0.878,10.71,-0.61,-1.04,2,3
17385.171,-0.189,0.488,0.875,15.26,2.56,-2.2,2,3
17385.171,-0.202,0.481,0.871,20.17,1.62,-2.08,2,3
17385.187,-0.208,0.458,0.846,23.93,-1.4,-1.4,2,3
17385.203,-0.206,0.455,0.826,24.14,-3.94,-1.1,2,3
17385.203,-0.197,0.467,0.823,21.0,-4.09,-1.07,2,3
17385.218,-0.201,0.48,0.84,14.07,-4.49,-2.2,2,3
17385.234,-0.198,0.496,0.819,8.94,-3.14,0.37,2,3
17385.234,-0.195,0.494,0.825,4.91,-0.27,3.6,2,3
17385.25,-0.204,0.48,0.848,2.23,0.79,4.21,2,3
17385.265,-0.22,0.485,0.885,1.74,0.15,4.58,2,3
17385.265,-0.267,0.539,0.902,2.11,-5.13,6.26,2,3
17385.281,-0.136,0.483,0.83,2.44,-10.8,9.16,2,3
17385.296,-0.176,0.405,0.802,5.01,-8.67,4.24,2,3
17385.296,-0.195,0.454,0.816,5.43,-7.39,4.3,2,3
17385.312,-0.142,0.425,0.792,6.32,-8.55,3.57,2,3
17385.312,-0.171,0.483,0.877,-11.72,-12.73,-1.28,2,3
17385.328,-0.167,0.464,0.847,-17.21,-14.74,1.56,2,3
17385.343,-0.143,0.415,0.812,-14.98,-14.28,3.23,2,3
17385.343,-0.139,0.411,0.839,-16.75,-11.81,2.08,2,3
17385.359,-0.14,0.408,0.845,-13.31,-9.31,0.18,2,3
17385.375,-0.132,0.405,0.838,-6.96,-6.26,-1.89,2,3
17385.375,-0.135,0.406,0.839,-0.15,-2.17,-4.24,2,3
17385.39,-0.151,0.42,0.84,5.77,1.25,-6.13,2,3
17385.39,-0.162,0.439,0.844,10.53,3.57,-6.5,2,3
17385.406,-0.17,0.458,0.841,14.34,4.46,-6.53,2,3
17385.421,-0.172,0.472,0.834,16.42,4.73,-6.2,2,3
17385.421,-0.179,0.491,0.829,15.26,4.79,-5.89,2,3
17385.437,-0.181,0.505,0.827,10.96,4.27,-5.62,2,3
17385.453,-0.189,0.511,0.835,5.13,3.2,-5.13,2,3
17385.453,-0.198,0.511,0.849,-0.7,1.56,-4.03,2,3
17385.468,-0.201,0.506,0.858,-5.07,-0.67,-2.5,2,3
17385.468,-0.196,0.493,0.855,-7.42,-3.08,-1.13,2,3
17385.484,-0.192,0.486,0.854,-8.18,-4.88,-0.52,2,3
17385.5,-0.187,0.485,0.845,-7.17,-5.43,-0.03,2,3
17385.5,-0.177,0.477,0.832,-5.55,-4.79,0.43,2,3
17385.515,-0.176,0.469,0.828,-3.45,-3.05,0.85,2,3
17385.531,-0.173,0.46,0.825,-1.46,-0.98,0.85,2,3
17385.531,-0.173,0.454,0.828,-0.52,0.55,-0.03,2,3
17385.546,-0.176,0.449,0.837,-0.15,1.19,-0.49,2,3
17385.562,-0.175,0.447,0.845,-0.31,1.34,-0.79,2,3
17385.562,-0.171,0.446,0.845,-0.61,0.82,-1.04,2,3
17385.578,-0.172,0.443,0.853,-1.37,0.34,-1.31,2,3
17385.593,-0.174,0.447,0.865,-2.38,0.03,-1.43,2,3
17385.593,-0.169,0.446,0.865,-2.78,-0.46,-1.92,2,3
17385.609,-0.126,0.434,0.817,-2.38,-0.18,-2.62,2,3
17385.609,-0.067,0.376,0.751,-0.34,7.32,-5.86,2,3
17385.625,-0.302,0.445,0.954,6.74,18.16,-8.61,2,3
17385.64,-0.262,0.545,1.035,9.77,7.26,0.49,2,3
17385.64,-0.18,0.587,0.956,4.43,-4.46,1.98,2,3
17385.656,-0.21,0.567,0.933,-4.09,-6.65,0.55,2,3
17385.671,-0.185,0.503,0.916,-5.4,-5.25,3.27,2,3
17385.671,-0.183,0.495,0.896,-1.43,-1.43,4.36,2,3
17385.687,-0.197,0.489,0.902,3.48,0.79,2.99,2,3
17385.703,-0.209,0.493,0.901,10.01,-0.46,0.24,2,3
17385.703,-0.217,0.494,0.888,15.93,-3.23,-0.85,2,3
17385.718,-0.208,0.509,0.862,17.91,-7.14,-0.85,2,3
17385.734,-0.252,0.552,0.883,16.02,-10.59,1.56,2,3
17385.734,-0.135,0.545,0.808,9.19,-16.17,8.18,2,3
17385.75,-0.094,0.464,0.735,-0.21,-11.51,4.88,2,3
17385.75,-0.2,0.428,0.815,-5.74,-3.97,2.08,2,3
17385.765,-0.17,0.448,0.828,-8.82,-4.43,3.27,2,3
17385.781,-0.156,0.455,0.829,-6.53,-4.27,2.93,2,3
17385.796,-0.17,0.434,0.834,-3.51,-4.0,2.96,2,3
17385.812,-0.158,0.443,0.834,-2.14,-5.52,1.59,2,3
17385.812,-0.153,0.445,0.834,-2.41,-5.52,1.07,2,3
17385.828,-0.143,0.453,0.84,-3.11,-4.7,0.76,2,3
17385.843,-0.142,0.459,0.843,-3.45,-3.33,0.15,2,3
17385.843,-0.148,0.459,0.847,-3.45,-1.53,-0.15,2,3
17385.859,-0.147,0.457,0.854,-2.99,-0.37,-0.09,2,3
17385.875,-0.157,0.455,0.856,-1.59,0.15,-0.4,2,3
17385.875,-0.157,0.452,0.852,0.0,-0.49,-0.58,2,3
17385.89,-0.157,0.456,0.842,1.13,-1.43,-0.85,2,3
17385.89,-0.15,0.453,0.83,1.65,-2.08,-0.73,2,3
17385.906,-0.146,0.453,0.819,1.25,-2.2,-0.67,2,3
17385.921,-0.147,0.455,0.817,0.31,-1.19,-0.76,2,3
17385.921,-0.153,0.454,0.817,-0.92,-0.03,-1.13,2,3
17385.937,-0.153,0.443,0.815,-1.98,0.61,-1.53,2,3
17385.953,-0.152,0.44,0.815,-1.92,2.44,-2.78,2,3
17385.953,-0.155,0.438,0.81,-1.1,4.27,-3.81,2,3
17385.984,-0.155,0.428,0.786,1.8,9.49,-5.28,2,3
17385.984,-0.17,0.426,0.779,4.06,13.12,-6.59,2,3
17386.0,-0.227,0.462,0.853,4.43,14.16,-6.62,2,3
17386.015,-0.228,0.519,0.901,-0.03,8.03,-4.36,2,3
17386.015,-0.171,0.517,0.853,-6.41,1.56,-2.04,2,3
17386.031,-0.117,0.448,0.804,-12.88,4.15,-2.87,2,3
17386.031,-0.336,0.514,1.015,-13.18,10.32,-2.66,2,3
17386.046,-0.259,0.579,1.051,-13.25,-2.69,6.38,2,3
17386.062,-0.173,0.551,0.949,-15.75,-11.78,6.16,2,3
17386.078,-0.193,0.491,0.918,-16.69,-8.85,3.39,2,3
17386.078,-0.179,0.439,0.924,-8.45,-3.3,3.88,2,3
17386.078,-0.19,0.426,0.907,5.46,-0.15,2.04,2,3
17386.093,-0.197,0.433,0.902,16.6,0.64,-0.7,2,3
17386.109,-0.208,0.461,0.899,25.24,-1.34,-3.39,2,3
17386.109,-0.206,0.474,0.876,30.55,-4.85,-4.46,2,3
17386.125,-0.197,0.511,0.852,29.02,-7.32,-4.33,2,3
17386.14,-0.221,0.586,0.884,12.97,-12.05,4.21,2,3
17386.156,-0.09,0.526,0.766,-0.46,-14.95,7.45,2,3
17386.171,-0.171,0.445,0.803,-8.15,-7.63,3.88,2,3
17386.171,-0.193,0.442,0.861,-10.16,-7.2,4.58,2,3
17386.187,-0.151,0.469,0.816,-8.06,-8.91,4.67,2,3
17386.203,-0.165,0.434,0.821,-2.69,-7.2,3.63,2,3
17386.203,-0.155,0.447,0.837,-1.68,-6.65,4.43,2,3
17386.218,-0.145,0.463,0.822,0.0,-5.68,4.64,2,3
17386.218,-0.148,0.433,0.818,1.71,-3.78,4.24,2,3
17386.234,-0.138,0.443,0.83,1.8,-2.41,3.75,2,3
17386.25,-0.138,0.45,0.834,2.53,-1.53,2.75,2,3
17386.25,-0.147,0.45,0.836,2.56,-1.04,1.8,2,3
17386.265,-0.145,0.456,0.838,1.62,-0.64,1.56,2,3
17386.281,-0.147,0.463,0.842,0.09,-0.43,1.1,2,3
17386.281,-0.156,0.461,0.85,-1.34,-0.52,0.79,2,3
17386.296,-0.159,0.462,0.856,-2.5,-1.46,0.34,2,3
17386.312,-0.155,0.464,0.853,-2.81,-2.47,-0.27,2,3
17386.312,-0.147,0.467,0.847,-2.53,-2.78,-0.89,2,3
17386.328,-0.149,0.468,0.846,-1.86,-1.53,-1.4,2,3
17386.343,-0.157,0.47,0.852,-0.79,0.18,-1.5,2,3
17386.343,-0.162,0.474,0.857,0.58,0.89,-1.74,2,3
17386.359,-0.162,0.484,0.857,1.43,1.07,-1.77,2,3
17386.375,-0.164,0.489,0.855,1.37,1.37,-1.89,2,3
17386.375,-0.167,0.492,0.86,0.76,1.86,-1.34,2,3
17386.39,-0.175,0.488,0.862,0.31,2.11,-0.64,2,3
17386.39,-0.176,0.482,0.861,-0.31,1.19,-0.12,2,3
17386.406,-0.172,0.478,0.857,-0.98,-0.52,-0.12,2,3
17386.421,-0.162,0.479,0.847,-1.62,-1.68,-0.49,2,3
17386.421,-0.158,0.473,0.84,-1.92,-1.56,-0.61,2,3
17386.437,-0.156,0.466,0.843,-1.92,-0.4,-0.55,2,3
17386.453,-0.156,0.463,0.847,-1.71,0.85,-0.67,2,3
17386.453,-0.159,0.464,0.854,-1.4,1.95,-0.73,2,3
17386.468,-0.159,0.464,0.857,-1.01,2.78,-1.19,2,3
17386.468,-0.16,0.466,0.86,-0.49,3.3,-1.71,2,3
17386.484,-0.164,0.469,0.864,-0.06,3.57,-2.11,2,3
17386.5,-0.168,0.472,0.861,0.31,3.3,-2.26,2,3
17386.5,-0.173,0.471,0.862,0.31,2.56,-2.29,2,3
17386.515,-0.175,0.477,0.862,0.52,1.31,-1.89,2,3
17386.531,-0.169,0.481,0.854,0.4,0.18,-1.37,2,3
17386.531,-0.167,0.483,0.85,-0.37,-0.18,-1.19,2,3
17386.546,-0.164,0.48,0.849,-1.13,0.06,-1.01,2,3
17386.562,-0.159,0.477,0.848,-1.65,0.85,-0.82,2,3
17386.578,-0.161,0.473,0.851,-1.74,1.83,-0.89,2,3
17386.578,-0.163,0.471,0.855,-1.46,2.75,-1.13,2,3
17386.593,-0.166,0.477,0.861,-0.7,3.23,-1.59,2,3
17386.593,-0.174,0.485,0.866,0.03,3.3,-1.71,2,3
17386.609,-0.177,0.487,0.866,0.43,2.87,-1.5,2,3
17386.625,-0.177,0.487,0.863,0.4,1.71,-1.16,2,3
17386.625,-0.174,0.486,0.862,-0.09,0.61,-0.67,2,3
17386.64,-0.172,0.48,0.862,-0.73,0.09,-0.21,2,3
17386.656,-0.171,0.475,0.858,-1.31,-0.15,-0.09,2,3
17386.656,-0.171,0.473,0.855,-1.62,-0.12,-0.27,2,3
17386.671,-0.175,0.468,0.851,-1.28,-0.27,-0.31,2,3
17386.671,-0.174,0.466,0.842,-0.89,-0.31,-0.37,2,3
17386.687,-0.172,0.472,0.844,-0.61,-0.12,-0.34,2,3
17386.703,-0.166,0.468,0.849,-0.18,-0.03,-0.09,2,3
17386.703,-0.167,0.469,0.836,-0.73,0.03,-0.43,2,3
17386.718,-0.174,0.469,0.849,-1.34,1.04,-0.34,2,3
17386.718,-0.176,0.461,0.852,-0.98,1.34,-0.34,2,3
17386.734,-0.179,0.467,0.854,-0.98,1.43,-0.43,2,3
17386.75,-0.179,0.466,0.855,-1.31,1.25,-0.73,2,3
17386.75,-0.183,0.464,0.858,-1.65,0.89,-1.16,2,3
17386.765,-0.19,0.47,0.862,-1.59,0.21,-1.43,2,3
17386.781,-0.193,0.476,0.86,-1.37,-0.95,-1.5,2,3
17386.781,-0.19,0.48,0.854,-1.74,-2.26,-1.13,2,3
17386.796,-0.183,0.476,0.848,-2.01,-2.78,-0.43,2,3
17386.812,-0.181,0.471,0.849,-1.86,-2.2,0.09,2,3
17386.812,-0.191,0.474,0.857,-1.77,-1.16,0.37,2,3
17386.828,-0.201,0.481,0.867,-1.65,-0.73,0.37,2,3
17386.843,-0.214,0.488,0.874,-1.5,-0.79,0.34,2,3
17386.843,-0.234,0.498,0.884,-0.85,-1.1,0.67,2,3
17386.859,-0.271,0.504,0.894,-0.03,-1.37,1.31,2,3
17386.875,-0.319,0.501,0.903,1.25,-1.77,2.47,2,3
17386.875,-0.367,0.497,0.908,2.96,-1.68,3.91,2,3
17386.89,-0.404,0.512,0.915,4.76,-0.76,4.33,2,3
17386.89,-0.448,0.534,0.928,6.1,1.62,3.42,2,3
17386.906,-0.501,0.542,0.944,7.66,5.4,2.81,2,3
17386.921,-0.561,0.563,0.96,9.34,10.32,3.17,2,3
17386.921,-0.626,0.573,0.966,15.96,20.72,3.51,2,3
17386.937,-0.691,0.554,0.959,21.94,23.93,3.81,2,3
17386.953,-0.732,0.519,0.929,30.55,25.91,4.85,2,3
17386.953,-0.741,0.481,0.876,40.96,28.66,5.92,2,3
17386.968,-0.695,0.414,0.741,50.9,33.33,6.74,2,3
17386.984,-0.652,0.388,0.676,58.93,40.53,6.38,2,3
17386.984,-0.619,0.38,0.627,63.63,50.2,4.27,2,3
17387.0,-0.589,0.37,0.593,64.76,60.85,1.04,2,3
17387.0,-0.565,0.362,0.572,62.9,71.54,-3.33,2,3
17387.015,-0.557,0.367,0.563,58.69,83.01,-8.85,2,3
17387.031,-0.54,0.356,0.553,52.98,92.93,-15.41,2,3
17387.031,-0.537,0.342,0.559,47.43,101.96,-22.4,2,3
17387.046,-0.542,0.356,0.57,41.32,110.02,-29.94,2,3
17387.062,-0.524,0.342,0.577,35.68,115.7,-36.9,2,3
17387.078,-0.504,0.317,0.588,32.87,119.97,-43.09,2,3
17387.078,-0.483,0.31,0.59,31.65,122.93,-49.56,2,3
17387.093,-0.465,0.29,0.572,32.07,125.31,-56.43,2,3
17387.109,-0.431,0.282,0.56,31.34,131.17,-63.05,2,3
17387.109,-0.389,0.27,0.565,25.7,142.25,-69.64,2,3
17387.109,-0.358,0.224,0.54,14.89,155.58,-78.49,2,3
17387.125,-0.325,0.163,0.485,0.06,171.48,-90.52,2,3
17387.14,-0.301,0.102,0.45,-15.17,191.35,-106.85,2,3
17387.14,-0.292,0.018,0.397,-24.6,216.16,-127.87,2,3
17387.156,-0.28,-0.034,0.296,-31.37,248.7,-151.19,2,3
17387.171,-0.309,-0.066,0.168,-36.77,291.42,-175.12,2,3
17387.171,-0.405,-0.103,0.061,-44.71,341.9,-199.07,2,3
17387.187,-0.507,-0.13,-0.051,-58.81,395.52,-220.53,2,3
17387.203,-0.609,-0.162,-0.179,-76.3,449.35,-238.53,2,3
17387.203,-0.751,-0.234,-0.232,-91.13,494.28,-251.53,2,3
17387.218,-0.842,-0.282,-0.213,-100.47,523.09,-257.18,2,3
17387.234,-0.87,-0.273,-0.185,-96.65,537.03,-256.84,2,3
17387.234,-0.868,-0.249,-0.107,-79.62,538.16,-250.22,2,3
17387.25,-0.811,-0.216,-0.049,-55.48,524.89,-238.35,2,3
17387.265,-0.764,-0.162,-0.043,-26.95,504.07,-223.58,2,3
17387.265,-0.783,-0.117,-0.081,6.16,479.87,-208.56,2,3
17387.281,-0.84,-0.07,-0.133,38.73,451.83,-195.87,2,3
17387.296,-0.939,-0.006,-0.157,66.41,419.32,-186.62,2,3
17387.296,-1.031,0.066,-0.194,84.2,380.75,-179.24,2,3
17387.312,-1.14,0.138,-0.246,89.45,339.79,-174.17,2,3
17387.328,-1.183,0.189,-0.275,81.39,299.57,-171.39,2,3
17387.328,-1.194,0.178,-0.305,63.66,260.38,-167.73,2,3
17387.343,-1.239,0.127,-0.358,45.56,224.25,-161.14,2,3
17387.343,-1.234,0.083,-0.415,33.36,190.56,-149.82,2,3
17387.359,-1.202,0.057,-0.494,27.1,161.29,-135.44,2,3
17387.375,-1.178,0.009,-0.627,26.95,140.11,-120.18,2,3
17387.375,-1.232,-0.045,-0.776,30.12,130.71,-108.25,2,3
17387.39,-1.372,-0.11,-0.924,36.07,137.46,-96.13,2,3
17387.39,-1.39,-0.071,-1.02,38.21,156.35,-86.31,2,3
17387.406,-1.336,-0.042,-1.094,34.21,178.17,-81.06,2,3
17387.421,-1.364,-0.056,-1.104,25.48,197.39,-78.62,2,3
17387.421,-1.367,-0.074,-1.039,16.45,212.2,-72.45,2,3
17387.437,-1.356,-0.062,-0.969,9.95,216.22,-65.25,2,3
17387.453,-1.325,-0.047,-0.953,4.49,211.58,-60.67,2,3
17387.453,-1.294,-0.042,-0.937,-1.92,205.97,-57.01,2,3
17387.468,-1.261,-0.032,-0.878,-9.83,196.72,-52.03,2,3
17387.484,-1.203,-0.038,-0.818,-15.84,183.32,-46.85,2,3
17387.484,-1.175,-0.052,-0.776,-18.74,168.13,-41.26,2,3
17387.5,-1.159,-0.069,-0.763,-18.52,150.3,-32.87,2,3
17387.5,-1.103,-0.067,-0.742,-16.88,131.9,-21.06,2,3
17387.515,-1.027,-0.069,-0.727,-12.97,115.45,-8.18,2,3
17387.531,-0.933,-0.089,-0.727,-9.13,100.01,3.57,2,3
17387.531,-0.84,-0.111,-0.717,-4.85,85.82,12.57,2,3
17387.546,-0.765,-0.135,-0.709,2.32,72.02,17.73,2,3
17387.562,-0.72,-0.156,-0.707,9.16,57.41,20.08,2,3
17387.578,-0.671,-0.19,-0.704,12.91,41.96,21.55,2,3
17387.578,-0.578,-0.201,-0.697,13.58,27.28,22.98,2,3
17387.593,-0.449,-0.227,-0.714,13.15,14.16,25.57,2,3
17387.593,-0.385,-0.286,-0.716,15.11,4.73,29.85,2,3
17387.609,-0.33,-0.369,-0.734,22.43,-0.34,38.88,2,3
17387.609,-0.287,-0.407,-0.771,34.09,-3.51,44.92,2,3
17387.625,-0.366,-0.397,-0.789,46.94,-4.49,44.59,2,3
17387.64,-0.432,-0.42,-0.809,57.62,-2.59,45.35,2,3
17387.64,-0.486,-0.346,-0.818,58.26,-6.59,40.04,2,3
17387.656,-0.53,-0.3,-0.798,51.42,-9.77,32.38,2,3
17387.671,-0.537,-0.296,-0.781,39.34,-12.6,23.83,2,3
17387.671,-0.55,-0.267,-0.81,24.87,-15.96,13.09,2,3
17387.687,-0.56,-0.23,-0.853,12.45,-15.81,3.11,2,3
17387.703,-0.569,-0.241,-0.889,6.29,-10.68,-3.02,2,3
17387.718,-0.57,-0.231,-0.9,3.57,-2.53,-5.8,2,3
17387.718,-0.565,-0.206,-0.887,3.27,3.75,-7.81,2,3
17387.734,-0.581,-0.214,-0.875,5.16,6.9,-9.09,2,3
17387.734,-0.597,-0.236,-0.878,7.6,9.52,-8.51,2,3
17387.75,-0.609,-0.222,-0.917,6.44,11.44,-7.93,2,3
17387.75,-0.609,-0.217,-0.928,-0.58,17.21,-6.23,2,3
17387.765,-0.594,-0.24,-0.913,-10.8,25.21,-3.91,2,3
17387.781,-0.581,-0.28,-0.895,-19.14,31.07,-1.83,2,3
17387.781,-0.544,-0.326,-0.858,-23.59,34.24,0.06,2,3
17387.796,-0.535,-0.379,-0.829,-21.7,36.32,1.13,2,3
17387.812,-0.54,-0.387,-0.807,-15.14,39.43,2.38,2,3
17387.828,-0.54,-0.381,-0.791,-7.87,41.57,3.27,2,3
17387.828,-0.533,-0.37,-0.787,-2.87,43.06,3.17,2,3
17387.843,-0.525,-0.346,-0.788,-1.22,43.92,1.98,2,3
17387.843,-0.525,-0.343,-0.794,-1.37,43.34,2.23,2,3
17387.859,-0.516,-0.345,-0.805,-2.78,42.57,4.06,2,3
17387.875,-0.493,-0.342,-0.825,-2.9,42.54,5.34,2,3
17387.875,-0.473,-0.324,-0.853,-2.84,44.89,5.86,2,3
17387.89,-0.466,-0.305,-0.881,-5.98,48.59,6.65,2,3
17387.89,-0.443,-0.291,-0.88,-12.24,52.43,7.72,2,3
17387.906,-0.431,-0.305,-0.858,-16.02,60.88,5.46,2,3
17387.921,-0.424,-0.335,-0.818,-12.36,61.95,3.81,2,3
17387.937,-0.422,-0.363,-0.781,-7.35,59.97,1.37,2,3
17387.937,-0.427,-0.361,-0.755,-4.49,55.09,-1.28,2,3
17387.953,-0.452,-0.333,-0.73,-4.85,47.43,-1.98,2,3
17387.953,-0.439,-0.321,-0.732,-6.81,38.82,-0.76,2,3
17387.968,-0.432,-0.326,-0.741,-6.35,31.53,1.19,2,3
17387.984,-0.411,-0.346,-0.76,-2.96,26.03,5.71,2,3
17387.984,-0.387,-0.36,-0.777,3.05,22.46,10.5,2,3
17388.0,-0.381,-0.363,-0.806,9.64,20.57,12.05,2,3
17388.0,-0.384,-0.357,-0.822,12.18,19.07,11.44,2,3
17388.015,-0.385,-0.361,-0.824,9.86,16.88,9.61,2,3
17388.031,-0.386,-0.376,-0.824,6.23,13.4,6.53,2,3
17388.046,-0.387,-0.387,-0.849,3.39,8.03,4.39,2,3
17388.046,-0.382,-0.375,-0.877,-0.34,2.9,3.78,2,3
17388.062,-0.361,-0.379,-0.921,-3.39,-1.37,3.45,2,3
17388.062,-0.329,-0.382,-0.96,-5.43,-2.44,3.2,2,3
17388.078,-0.31,-0.387,-0.993,-6.81,-0.55,2.32,2,3
17388.093,-0.295,-0.402,-1.005,-7.05,2.84,-0.64,2,3
17388.093,-0.286,-0.39,-0.997,-6.44,7.63,-4.49,2,3
17388.109,-0.28,-0.378,-0.982,-6.32,11.96,-8.09,2,3
17388.109,-0.279,-0.364,-0.964,-7.14,14.59,-11.11,2,3
17388.125,-0.267,-0.354,-0.946,-8.42,14.25,-12.97,2,3
17388.14,-0.258,-0.36,-0.931,-8.06,12.27,-14.16,2,3
17388.14,-0.258,-0.349,-0.921,-6.41,10.04,-14.4,2,3
17388.156,-0.253,-0.347,-0.919,-4.52,7.35,-14.28,2,3
17388.171,-0.249,-0.332,-0.921,-2.59,5.1,-15.35,2,3
17388.171,-0.249,-0.308,-0.931,-2.44,3.85,-16.63,2,3
17388.187,-0.247,-0.295,-0.942,-4.55,3.27,-17.43,2,3
17388.203,-0.244,-0.283,-0.936,-6.68,3.48,-17.85,2,3
17388.203,-0.246,-0.263,-0.933,-6.96,4.39,-17.64,2,3
17388.218,-0.235,-0.263,-0.928,-6.44,5.58,-15.29,2,3
17388.234,-0.211,-0.274,-0.919,-3.88,6.53,-11.81,2,3
17388.234,-0.193,-0.274,-0.906,0.95,7.42,-6.99,2,3
17388.25,-0.185,-0.272,-0.899,6.35,7.39,-1.92,2,3
17388.265,-0.177,-0.274,-0.888,10.47,6.26,2.29,2,3
17388.265,-0.177,-0.282,-0.879,12.79,4.12,5.25,2,3
17388.281,-0.191,-0.281,-0.885,12.79,1.5,6.96,2,3
17388.296,-0.199,-0.267,-0.885,10.22,-0.79,7.78,2,3
17388.312,-0.198,-0.265,-0.876,6.99,-2.62,7.69,2,3
17388.312,-0.199,-0.266,-0.875,5.16,-4.49,7.14,2,3
17388.328,-0.184,-0.261,-0.882,3.3,-6.56,6.59,2,3
17388.328,-0.173,-0.291,-0.896,1.34,-8.48,6.07,2,3
17388.343,-0.181,-0.294,-0.914,0.58,-9.19,4.52,2,3
17388.343,-0.194,-0.284,-0.914,-1.34,-9.13,2.93,2,3
17388.359,-0.208,-0.301,-0.904,-3.6,-8.88,0.67,2,3
17388.359,-0.224,-0.309,-0.887,-3.69,-8.76,-1.98,2,3
17388.375,-0.238,-0.3,-0.871,-1.25,-9.25,-4.09,2,3
17388.39,-0.248,-0.295,-0.865,1.28,-10.44,-3.88,2,3
17388.39,-0.247,-0.289,-0.878,3.94,-12.05,-1.53,2,3
17388.406,-0.244,-0.264,-0.904,6.56,-12.54,1.34,2,3
17388.421,-0.251,-0.244,-0.929,6.2,-11.29,4.43,2,3
17388.421,-0.249,-0.248,-0.933,4.03,-8.51,6.13,2,3
17388.437,-0.259,-0.248,-0.919,2.66,-4.61,5.86,2,3
17388.453,-0.282,-0.25,-0.898,2.23,-1.77,5.55,2,3
17388.453,-0.306,-0.241,-0.871,2.23,-1.16,5.89,2,3
17388.468,-0.319,-0.234,-0.848,2.59,-2.53,6.87,2,3
17388.468,-0.315,-0.233,-0.834,2.35,-6.07,8.33,2,3
17388.484,-0.31,-0.246,-0.835,1.92,-11.41,10.5,2,3
17388.5,-0.321,-0.259,-0.853,2.38,-17.18,13.37,2,3
17388.5,-0.332,-0.255,-0.883,2.32,-22.16,16.51,2,3
17388.515,-0.335,-0.276,-0.932,1.13,-25.57,18.52,2,3
17388.531,-0.355,-0.295,-0.984,-0.52,-26.15,18.22,2,3
17388.546,-0.386,-0.292,-1.027,-3.36,-23.22,16.79,2,3
17388.546,-0.408,-0.283,-1.038,-7.84,-18.01,15.35,2,3
17388.562,-0.432,-0.292,-1.023,-11.05,-12.73,14.71,2,3
17388.562,-0.455,-0.301,-0.991,-11.63,-9.86,15.56,2,3
17388.578,-0.463,-0.308,-0.967,-9.43,-10.41,18.62,2,3
17388.578,-0.461,-0.294,-0.948,-6.32,-13.34,23.41,2,3
17388.593,-0.444,-0.324,-0.942,-2.75,-17.94,29.45,2,3
17388.609,-0.427,-0.374,-0.954,2.5,-22.34,36.44,2,3
17388.625,-0.42,-0.369,-0.963,8.85,-24.2,41.41,2,3
17388.625,-0.43,-0.371,-0.991,13.21,-23.71,42.54,2,3
17388.64,-0.433,-0.364,-1.01,13.21,-21.58,39.95,2,3
17388.64,-0.422,-0.329,-1.004,8.64,-18.1,34.52,2,3
17388.656,-0.407,-0.332,-0.979,2.2,-14.22,27.65,2,3
17388.671,-0.4,-0.352,-0.945,-2.35,-12.02,21.55,2,3
17388.671,-0.384,-0.335,-0.906,-2.66,-11.72,17.27,2,3
17388.687,-0.365,-0.318,-0.876,-0.85,-13.0,15.99,2,3
17388.703,-0.352,-0.305,-0.873,1.74,-15.41,16.91,2,3
17388.703,-0.318,-0.301,-0.869,4.88,-18.04,17.24,2,3
17388.718,-0.284,-0.289,-0.868,7.11,-21.36,12.88,2,3
17388.718,-0.288,-0.238,-0.891,3.72,-26.34,3.27,2,3
17388.734,-0.317,-0.209,-0.923,-9.64,-33.23,-6.99,2,3
17388.75,-0.341,-0.247,-0.915,-28.5,-39.09,-13.28,2,3
17388.75,-0.342,-0.317,-0.907,-39.61,-41.17,-16.57,2,3
17388.765,-0.355,-0.336,-0.913,-36.81,-37.35,-19.38,2,3
17388.781,-0.349,-0.297,-0.935,-26.15,-28.81,-22.71,2,3
17388.781,-0.338,-0.253,-0.929,-17.61,-18.56,-25.18,2,3
17388.796,-0.336,-0.222,-0.901,-13.03,-9.8,-26.15,2,3
17388.812,-0.354,-0.185,-0.855,-11.35,-2.87,-25.57,2,3
17388.812,-0.358,-0.165,-0.808,-9.22,1.92,-22.25,2,3
17388.828,-0.351,-0.14,-0.809,-10.41,2.32,-18.95,2,3
17388.843,-0.346,-0.172,-0.78,-17.55,3.45,-15.75,2,3
17388.843,-0.314,-0.239,-0.712,-22.46,3.05,-15.02,2,3
17388.859,-0.386,-0.24,-0.72,-20.45,-0.49,-17.76,2,3
17388.859,-0.304,-0.28,-0.756,-16.75,-0.85,-11.96,2,3
17388.875,-0.301,-0.253,-0.81,-15.84,-3.27,-14.04,2,3
17388.89,-0.277,-0.324,-0.866,-15.9,1.37,-13.06,2,3
17388.89,-0.245,-0.367,-0.878,-13.79,9.06,-20.23,2,3
17388.906,-0.226,-0.411,-0.879,-10.86,11.66,-25.91,2,3
17388.921,-0.239,-0.417,-0.875,-10.65,12.09,-31.62,2,3
17388.921,-0.313,-0.389,-0.851,-11.99,10.8,-35.62,2,3
17388.937,-0.331,-0.35,-0.856,-12.63,8.91,-38.15,2,3
17388.953,-0.349,-0.305,-0.864,-12.24,7.05,-38.79,2,3
17388.953,-0.345,-0.269,-0.866,-10.53,5.55,-37.78,2,3
17388.968,-0.361,-0.248,-0.883,-8.97,3.97,-36.01,2,3
17388.984,-0.38,-0.25,-0.889,-8.36,4.33,-31.28,2,3
17388.984,-0.37,-0.265,-0.883,-5.16,6.04,-23.74,2,3
17389.0,-0.412,-0.236,-0.882,2.01,6.87,-15.56,2,3
17389.0,-0.415,-0.283,-0.872,12.51,14.83,1.8,2,3
17389.015,-0.413,-0.174,-0.855,18.52,10.41,8.79,2,3
17389.031,-0.392,-0.292,-0.871,24.99,13.31,21.21,2,3
17389.031,-0.353,-0.256,-0.89,24.51,5.22,21.21,2,3
17389.046,-0.424,-0.32,-0.917,24.54,5.77,23.19,2,3
17389.062,-0.32,-0.359,-0.918,21.39,1.4,20.39,2,3
17389.062,-0.353,-0.362,-0.937,15.72,-3.11,6.01,2,3
17389.078,-0.423,-0.413,-0.937,7.78,-1.1,-5.1,2,3
17389.093,-0.328,-0.401,-0.92,0.31,-2.96,-17.43,2,3
17389.093,-0.347,-0.364,-0.945,-5.65,-4.94,-33.91,2,3
17389.109,-0.339,-0.357,-0.962,-14.59,-5.25,-43.28,2,3
17389.125,-0.303,-0.339,-0.956,-22.4,-6.01,-49.68,2,3
17389.125,-0.298,-0.323,-0.94,-22.8,-4.52,-52.34,2,3
17389.14,-0.306,-0.318,-0.925,-18.52,-1.95,-51.36,2,3
17389.156,-0.314,-0.29,-0.919,-12.51,0.03,-47.88,2,3
17389.156,-0.326,-0.254,-0.928,-5.89,3.17,-43.28,2,3
17389.171,-0.332,-0.232,-0.911,-4.49,5.89,-38.54,2,3
17389.171,-0.333,-0.247,-0.88,-5.83,5.65,-34.61,2,3
17389.187,-0.323,-0.271,-0.86,-5.89,3.05,-31.77,2,3
17389.203,-0.313,-0.285,-0.863,-3.66,-0.43,-29.42,2,3
17389.218,-0.317,-0.283,-0.875,-2.87,-3.72,-27.19,2,3
17389.218,-0.303,-0.295,-0.872,-5.22,-6.47,-26.46,2,3
17389.234,-0.296,-0.328,-0.87,-7.23,-9.25,-27.34,2,3
17389.234,-0.287,-0.36,-0.881,-5.77,-10.74,-28.02,2,3
17389.25,-0.28,-0.366,-0.903,-3.27,-11.05,-28.75,2,3
17389.265,-0.342,-0.388,-0.909,1.01,-6.44,-25.48,2,3
17389.265,-0.228,-0.332,-0.926,7.26,-4.61,-22.98,2,3
17389.281,-0.301,-0.284,-0.97,9.43,-2.2,-29.85,2,3
17389.281,-0.285,-0.375,-0.95,3.45,2.9,-29.51,2,3
17389.296,-0.278,-0.394,-0.893,0.82,3.81,-32.35,2,3
17389.312,-0.282,-0.425,-0.874,3.81,5.04,-34.42,2,3
17389.328,-0.284,-0.495,-0.868,8.55,7.9,-33.23,2,3
17389.328,-0.273,-0.431,-0.883,13.82,7.69,-32.87,2,3
17389.343,-0.278,-0.374,-0.922,16.05,8.67,-34.39,2,3
17389.343,-0.307,-0.384,-0.934,12.79,10.8,-33.88,2,3
17389.359,-0.332,-0.34,-0.925,10.19,11.23,-31.74,2,3
17389.375,-0.34,-0.326,-0.921,10.07,11.84,-26.49,2,3
17389.375,-0.317,-0.321,-0.907,11.72,11.66,-21.03,2,3
17389.39,-0.344,-0.341,-0.911,15.66,11.32,-16.08,2,3
17389.39,-0.343,-0.34,-0.893,19.78,9.28,-7.87,2,3
17389.406,-0.355,-0.324,-0.903,24.48,6.96,-0.12,2,3
17389.421,-0.36,-0.357,-0.898,25.36,5.16,7.87,2,3
17389.421,-0.335,-0.4,-0.876,24.75,3.33,13.55,2,3
17389.437,-0.339,-0.438,-0.857,27.5,1.4,15.53,2,3
17389.453,-0.342,-0.441,-0.851,31.5,-1.37,17.18,2,3
17389.453,-0.343,-0.432,-0.869,32.69,-5.04,17.88,2,3
17389.468,-0.332,-0.456,-0.871,30.95,-8.12,18.65,2,3
17389.468,-0.329,-0.485,-0.863,31.13,-9.89,18.37,2,3
17389.484,-0.338,-0.512,-0.868,33.75,-10.53,17.76,2,3
17389.5,-0.326,-0.515,-0.882,35.77,-11.08,16.08,2,3
17389.515,-0.331,-0.524,-0.888,35.77,-11.93,13.55,2,3
17389.515,-0.331,-0.54,-0.881,34.46,-13.61,10.16,2,3
17389.531,-0.333,-0.553,-0.875,33.3,-15.9,5.68,2,3
17389.531,-0.333,-0.567,-0.887,32.72,-17.98,1.59,2,3
17389.546,-0.323,-0.574,-0.895,31.5,-19.32,-2.17,2,3
17389.562,-0.311,-0.612,-0.89,31.22,-18.71,-4.49,2,3
17389.562,-0.297,-0.62,-0.885,33.51,-16.45,-7.17,2,3
17389.578,-0.301,-0.598,-0.874,35.77,-13.61,-10.62,2,3
17389.593,-0.311,-0.6,-0.854,36.44,-11.6,-13.4,2,3
17389.593,-0.311,-0.597,-0.831,37.81,-11.44,-13.76,2,3
17389.609,-0.311,-0.587,-0.824,41.57,-11.84,-11.87,2,3
17389.609,-0.309,-0.58,-0.829,45.32,-12.54,-9.89,2,3
17389.625,-0.325,-0.57,-0.834,48.25,-13.21,-8.39,2,3
17389.64,-0.343,-0.575,-0.835,50.57,-13.25,-6.44,2,3
17389.64,-0.343,-0.589,-0.835,52.19,-13.55,-4.3,2,3
17389.656,-0.345,-0.609,-0.843,53.53,-13.37,-3.08,2,3
17389.671,-0.342,-0.616,-0.849,53.87,-13.15,-3.66,2,3
17389.671,-0.351,-0.615,-0.845,54.08,-11.72,-4.94,2,3
17389.687,-0.36,-0.628,-0.833,54.45,-10.1,-6.59,2,3
17389.703,-0.364,-0.631,-0.816,55.06,-9.8,-9.64,2,3
17389.703,-0.39,-0.632,-0.801,54.93,-10.83,-12.91,2,3
17389.718,-0.39,-0.651,-0.784,53.93,-13.06,-15.38,2,3
17389.734,-0.379,-0.654,-0.777,53.93,-15.75,-16.85,2,3
17389.734,-0.367,-0.649,-0.779,55.3,-18.56,-18.56,2,3
17389.75,-0.365,-0.653,-0.781,56.61,-20.39,-18.52,2,3
17389.75,-0.365,-0.651,-0.778,58.53,-21.33,-17.24,2,3
17389.765,-0.348,-0.654,-0.776,61.37,-21.58,-15.84,2,3
17389.781,-0.343,-0.675,-0.795,63.91,-21.21,-14.68,2,3
17389.781,-0.338,-0.678,-0.791,64.33,-20.23,-14.59,2,3
17389.796,-0.332,-0.706,-0.802,64.21,-18.37,-15.99,2,3
17389.812,-0.338,-0.734,-0.789,63.94,-14.92,-18.65,2,3
17389.812,-0.341,-0.746,-0.777,65.03,-11.84,-20.87,2,3
17389.828,-0.349,-0.735,-0.754,65.77,-10.41,-21.33,2,3
17389.843,-0.351,-0.727,-0.734,66.68,-10.19,-19.75,2,3
17389.843,-0.354,-0.709,-0.726,67.84,-10.96,-17.03,2,3
17389.859,-0.376,-0.714,-0.724,69.25,-11.6,-13.73,2,3
17389.859,-0.394,-0.718,-0.718,70.65,-11.6,-10.28,2,3
17389.875,-0.401,-0.715,-0.716,72.02,-11.14,-4.73,2,3
17389.89,-0.397,-0.71,-0.715,72.21,-11.08,-1.83,2,3
17389.89,-0.404,-0.703,-0.701,73.27,-11.32,2.41,2,3
17389.906,-0.405,-0.712,-0.678,75.99,-12.15,7.45,2,3
17389.921,-0.395,-0.741,-0.694,79.44,-12.18,11.14,2,3
17389.921,-0.397,-0.737,-0.704,81.55,-11.54,13.61,2,3
17389.937,-0.408,-0.738,-0.697,81.76,-10.68,14.13,2,3
17389.953,-0.404,-0.751,-0.672,80.69,-10.74,13.43,2,3
17389.953,-0.394,-0.768,-0.652,78.49,-11.08,11.93,2,3
17389.968,-0.393,-0.774,-0.633,76.75,-12.36,9.46,2,3
17389.984,-0.4,-0.768,-0.617,75.59,-13.98,7.72,2,3
17389.984,-0.402,-0.762,-0.609,74.74,-15.44,7.42,2,3
17390.0,-0.402,-0.756,-0.615,74.25,-17.03,8.06,2,3
17390.0,-0.413,-0.738,-0.619,73.89,-17.7,8.73,2,3
17390.015,-0.42,-0.727,-0.622,73.18,-17.73,9.19,2,3
17390.031,-0.426,-0.723,-0.617,72.27,-16.72,10.07,2,3
17390.031,-0.424,-0.736,-0.595,71.81,-15.23,11.6,2,3
17390.046,-0.416,-0.763,-0.574,72.42,-14.53,13.82,2,3
17390.062,-0.415,-0.773,-0.566,74.13,-13.98,16.17,2,3
17390.062,-0.403,-0.774,-0.562,75.38,-14.13,17.76,2,3
17390.078,-0.399,-0.761,-0.565,74.47,-14.74,18.77,2,3
17390.093,-0.402,-0.764,-0.553,72.3,-15.14,19.38,2,3
17390.109,-0.411,-0.773,-0.536,70.74,-15.11,19.65,2,3
17390.109,-0.418,-0.8,-0.517,69.92,-14.44,20.48,2,3
17390.109,-0.42,-0.82,-0.498,70.1,-13.82,19.99,2,3
17390.125,-0.423,-0.839,-0.472,70.53,-13.4,17.85,2,3
17390.14,-0.411,-0.867,-0.452,69.37,-14.13,14.13,2,3
17390.14,-0.4,-0.862,-0.433,66.19,-16.57,9.06,2,3
17390.156,-0.391,-0.868,-0.425,61.98,-20.23,4.27,2,3
17390.171,-0.379,-0.862,-0.427,58.26,-23.35,0.43,2,3
17390.171,-0.37,-0.85,-0.432,56.4,-24.54,-0.92,2,3
17390.187,-0.369,-0.853,-0.432,57.1,-23.19,0.21,2,3
17390.203,-0.368,-0.849,-0.418,60.03,-19.78,2.69,2,3
17390.203,-0.38,-0.837,-0.401,62.84,-15.5,4.94,2,3
17390.218,-0.412,-0.833,-0.378,63.57,-12.7,7.69,2,3
17390.234,-0.421,-0.859,-0.346,63.72,-11.6,11.66,2,3
17390.234,-0.406,-0.871,-0.326,65.49,-11.44,15.38,2,3
17390.25,-0.401,-0.867,-0.316,67.93,-11.78,17.37,2,3
17390.25,-0.408,-0.879,-0.309,68.97,-12.73,18.34,2,3
17390.265,-0.42,-0.895,-0.303,68.73,-13.82,18.19,2,3
17390.281,-0.437,-0.909,-0.289,67.69,-15.08,16.27,2,3
17390.281,-0.448,-0.922,-0.278,66.16,-16.42,13.15,2,3
17390.296,-0.467,-0.898,-0.274,64.18,-17.61,8.88,2,3
17390.312,-0.482,-0.883,-0.262,61.25,-18.77,5.01,2,3
17390.328,-0.472,-0.88,-0.247,58.72,-19.93,3.3,2,3
17390.328,-0.461,-0.88,-0.235,58.23,-20.17,3.39,2,3
17390.328,-0.456,-0.885,-0.226,59.21,-19.9,4.82,2,3
17390.343,-0.462,-0.885,-0.222,60.79,-18.92,7.84,2,3
17390.359,-0.46,-0.887,-0.22,62.35,-17.18,10.25,2,3
17390.375,-0.468,-0.878,-0.204,62.84,-15.72,10.93,2,3
17390.375,-0.485,-0.888,-0.179,62.93,-15.47,11.75,2,3
17390.39,-0.481,-0.886,-0.158,63.08,-16.27,11.38,2,3
17390.39,-0.48,-0.863,-0.143,61.83,-16.82,9.34,2,3
17390.406,-0.481,-0.871,-0.13,58.96,-18.8,7.14,2,3
17390.421,-0.49,-0.895,-0.117,56.76,-21.73,5.34,2,3
17390.421,-0.497,-0.92,-0.108,55.76,-24.54,3.54,2,3
17390.437,-0.492,-0.932,-0.108,55.12,-27.31,1.1,2,3
17390.453,-0.485,-0.935,-0.109,54.38,-29.33,-1.95,2,3
17390.468,-0.495,-0.923,-0.108,52.46,-30.92,-5.95,2,3
17390.468,-0.504,-0.924,-0.101,48.34,-32.87,-10.01,2,3
17390.484,-0.491,-0.937,-0.093,45.69,-33.66,-13.18,2,3
17390.484,-0.482,-0.934,-0.082,45.63,-32.65,-15.69,2,3
17390.5,-0.478,-0.935,-0.063,46.17,-31.46,-17.85,2,3
17390.5,-0.474,-0.93,-0.057,45.78,-31.28,-18.89,2,3
17390.515,-0.476,-0.926,-0.045,45.56,-31.5,-19.2,2,3
17390.531,-0.473,-0.919,-0.042,46.78,-31.34,-19.14,2,3
17390.546,-0.486,-0.903,-0.032,47.91,-30.85,-19.68,2,3
17390.546,-0.489,-0.922,-0.003,47.88,-30.18,-20.48,2,3
17390.562,-0.493,-0.935,0.023,48.04,-30.73,-22.4,2,3
17390.562,-0.499,-0.971,0.049,47.94,-32.59,-25.24,2,3
17390.578,-0.49,-0.98,0.047,46.88,-35.77,-29.48,2,3
17390.593,-0.467,-0.946,0.03,43.67,-38.12,-34.88,2,3
17390.593,-0.459,-0.929,0.03,39.03,-39.06,-39.4,2,3
17390.609,-0.467,-0.929,0.045,35.46,-39.61,-41.29,2,3
17390.625,-0.467,-0.928,0.063,35.92,-40.28,-41.66,2,3
17390.625,-0.466,-0.915,0.06,40.68,-39.77,-38.88,2,3
17390.64,-0.454,-0.89,0.046,45.87,-39.06,-33.97,2,3
17390.64,-0.423,-0.85,0.031,48.92,-37.75,-29.11,2,3
17390.656,-0.413,-0.839,0.025,48.8,-34.88,-25.39,2,3
17390.671,-0.419,-0.856,0.063,48.71,-31.5,-22.03,2,3
17390.671,-0.433,-0.871,0.1,52.46,-29.42,-19.47,2,3
17390.687,-0.442,-0.844,0.123,57.41,-28.29,-17.06,2,3
17390.703,-0.436,-0.832,0.134,61.07,-27.22,-14.16,2,3
17390.703,-0.422,-0.85,0.14,63.26,-27.68,-9.52,2,3
17390.718,-0.407,-0.853,0.141,65.58,-27.71,-4.58,2,3
17390.734,-0.403,-0.851,0.143,66.81,-26.28,-1.19,2,3
17390.734,-0.403,-0.852,0.151,66.23,-24.17,1.31,2,3
17390.75,-0.399,-0.852,0.166,64.76,-22.49,2.81,2,3
17390.75,-0.401,-0.869,0.195,62.78,-21.55,3.17,2,3
17390.765,-0.415,-0.893,0.224,61.56,-21.76,2.9,2,3
17390.781,-0.408,-0.907,0.246,60.3,-23.44,2.32,2,3
17390.796,-0.392,-0.899,0.249,58.5,-25.85,0.64,2,3
17390.796,-0.392,-0.883,0.246,55.42,-28.26,-1.56,2,3
17390.812,-0.381,-0.889,0.26,51.85,-30.27,-2.32,2,3
17390.812,-0.374,-0.907,0.275,51.39,-30.82,-1.53,2,3
17390.828,-0.362,-0.899,0.276,54.2,-30.4,0.0,2,3
17390.843,-0.347,-0.878,0.266,56.7,-29.45,1.68,2,3
17390.843,-0.34,-0.865,0.256,56.18,-27.95,3.54,2,3
17390.859,-0.334,-0.849,0.268,52.64,-22.61,7.32,2,3
17390.875,-0.338,-0.848,0.269,51.91,-20.2,10.22,2,3
17390.875,-0.34,-0.831,0.284,52.16,-17.79,13.86,2,3
17390.89,-0.334,-0.827,0.309,53.35,-15.84,16.33,2,3
17390.89,-0.361,-0.846,0.356,53.74,-15.66,17.58,2,3
17390.906,-0.358,-0.853,0.375,53.38,-17.09,18.59,2,3
17390.921,-0.347,-0.852,0.383,52.4,-18.95,18.59,2,3
17390.921,-0.346,-0.853,0.384,50.63,-21.3,15.93,2,3
17390.937,-0.347,-0.846,0.388,47.7,-23.01,12.94,2,3
17390.953,-0.328,-0.855,0.4,45.44,-23.87,9.77,2,3
17390.953,-0.32,-0.854,0.41,44.8,-24.08,4.91,2,3
17390.968,-0.312,-0.844,0.417,43.79,-24.35,0.27,2,3
17390.984,-0.296,-0.829,0.414,42.18,-25.36,-3.39,2,3
17390.984,-0.299,-0.801,0.404,39.95,-26.09,-6.47,2,3
17391.0,-0.305,-0.782,0.398,37.51,-25.88,-8.21,2,3
17391.015,-0.305,-0.766,0.406,35.95,-23.77,-7.57,2,3
17391.015,-0.316,-0.768,0.431,36.68,-20.84,-4.76,2,3
17391.031,-0.333,-0.761,0.457,40.35,-18.74,-0.34,2,3
17391.031,-0.339,-0.752,0.468,44.8,-17.88,4.85,2,3
17391.046,-0.349,-0.761,0.476,48.07,-17.46,9.49,2,3
17391.062,-0.351,-0.768,0.483,49.56,-17.91,12.18,2,3
17391.062,-0.336,-0.776,0.487,49.32,-18.95,12.36,2,3
17391.078,-0.333,-0.79,0.496,47.85,-19.78,9.92,2,3
17391.093,-0.336,-0.795,0.514,45.59,-20.26,6.29,2,3
17391.109,-0.341,-0.788,0.532,43.0,-21.76,1.95,2,3
17391.109,-0.344,-0.785,0.543,40.96,-23.68,-1.31,2,3
17391.109,-0.343,-0.772,0.546,39.46,-25.45,-2.5,2,3
17391.125,-0.336,-0.771,0.556,39.58,-26.4,-2.14,2,3
17391.14,-0.333,-0.768,0.562,41.63,-26.09,-0.49,2,3
17391.156,-0.341,-0.773,0.567,44.4,-24.9,1.19,2,3
17391.156,-0.352,-0.759,0.567,46.6,-23.9,2.62,2,3
17391.171,-0.351,-0.742,0.567,47.15,-23.87,3.81,2,3
17391.171,-0.354,-0.72,0.565,46.75,-24.08,4.85,2,3
17391.187,-0.351,-0.708,0.579,46.6,-24.17,6.53,2,3
17391.203,-0.345,-0.71,0.595,47.64,-23.87,9.0,2,3
17391.203,-0.341,-0.714,0.606,50.78,-23.41,12.05,2,3
17391.218,-0.337,-0.713,0.607,53.35,-23.56,14.77,2,3
17391.234,-0.335,-0.715,0.607,53.71,-24.26,15.78,2,3
17391.234,-0.335,-0.721,0.612,52.43,-25.18,15.44,2,3
17391.25,-0.33,-0.737,0.622,50.72,-25.88,14.4,2,3
17391.25,-0.331,-0.745,0.639,50.11,-26.31,11.84,2,3
17391.265,-0.337,-0.737,0.652,49.56,-27.16,8.7,2,3
17391.281,-0.332,-0.721,0.659,47.76,-28.9,4.64,2,3
17391.281,-0.334,-0.699,0.666,45.01,-30.61,0.34,2,3
17391.296,-0.34,-0.69,0.675,41.44,-32.56,-2.99,2,3
17391.312,-0.338,-0.687,0.683,39.09,-34.61,-4.97,2,3
17391.328,-0.325,-0.687,0.69,38.79,-35.92,-5.8,2,3
17391.328,-0.319,-0.678,0.681,39.7,-36.62,-6.5,2,3
17391.343,-0.309,-0.665,0.678,40.38,-36.74,-5.95,2,3
17391.343,-0.307,-0.662,0.683,40.99,-36.13,-4.39,2,3
17391.359,-0.305,-0.653,0.683,42.02,-35.25,-2.23,2,3
17391.375,-0.319,-0.652,0.69,43.15,-34.06,-0.37,2,3
17391.375,-0.322,-0.66,0.71,44.19,-32.99,0.46,2,3
17391.39,-0.317,-0.65,0.725,44.59,-32.62,-0.4,2,3
17391.39,-0.318,-0.643,0.737,44.62,-33.39,-2.47,2,3
17391.406,-0.318,-0.649,0.748,43.73,-35.43,-5.1,2,3
17391.421,-0.335,-0.664,0.761,43.64,-37.57,-8.12,2,3
17391.421,-0.351,-0.663,0.778,44.83,-39.67,-11.41,2,3
17391.437,-0.355,-0.661,0.786,45.38,-41.72,-14.13,2,3
17391.453,-0.368,-0.663,0.803,45.99,-42.97,-17.18,2,3
17391.468,-0.379,-0.674,0.826,46.45,-44.19,-20.78,2,3
17391.468,-0.385,-0.683,0.848,44.07,-46.78,-24.78,2,3
17391.484,-0.35,-0.686,0.857,43.03,-50.63,-26.73,2,3
17391.484,-0.297,-0.658,0.838,44.86,-54.48,-26.52,2,3
17391.5,-0.241,-0.644,0.809,46.63,-57.89,-26.58,2,3
17391.5,-0.222,-0.617,0.762,47.03,-60.24,-27.65,2,3
17391.515,-0.231,-0.583,0.725,45.38,-60.21,-28.69,2,3
17391.531,-0.23,-0.551,0.714,41.96,-57.99,-28.69,2,3
17391.546,-0.224,-0.541,0.739,39.74,-53.38,-26.34,2,3
17391.546,-0.234,-0.522,0.768,41.29,-48.31,-21.06,2,3
17391.562,-0.215,-0.518,0.801,45.84,-45.2,-14.19,2,3
17391.562,-0.2,-0.512,0.812,52.03,-43.76,-6.53,2,3
17391.578,-0.178,-0.458,0.79,57.5,-45.05,-0.15,2,3
17391.593,-0.148,-0.439,0.778,57.89,-46.57,4.73,2,3
17391.593,-0.141,-0.431,0.769,55.82,-47.61,6.96,2,3
17391.609,-0.137,-0.447,0.775,54.41,-47.64,8.85,2,3
17391.625,-0.128,-0.477,0.781,55.39,-45.78,12.57,2,3
17391.625,-0.111,-0.468,0.776,58.5,-43.18,16.14,2,3
17391.64,-0.091,-0.433,0.766,60.58,-41.14,18.8,2,3
17391.64,-0.078,-0.437,0.768,59.42,-38.7,21.58,2,3
17391.656,-0.068,-0.389,0.779,58.47,-36.01,24.9,2,3
17391.671,-0.05,-0.398,0.787,58.05,-34.79,27.22,2,3
17391.671,-0.046,-0.361,0.795,58.14,-33.88,26.49,2,3
17391.687,-0.043,-0.322,0.781,55.27,-35.22,22.86,2,3
17391.703,-0.037,-0.306,0.794,47.49,-37.57,18.1,2,3
17391.703,-0.022,-0.301,0.816,40.86,-39.58,15.72,2,3
17391.718,-0.028,-0.285,0.831,37.42,-40.8,14.77,2,3
17391.734,-0.018,-0.279,0.856,34.58,-41.14,17.58,2,3
17391.734,0.012,-0.291,0.872,33.85,-41.54,24.63,2,3
17391.75,0.042,-0.27,0.85,36.56,-42.6,33.91,2,3
17391.75,0.058,-0.302,0.835,39.58,-41.63,44.07,2,3
17391.765,0.066,-0.364,0.822,42.45,-38.21,53.38,2,3
17391.781,0.078,-0.395,0.82,46.85,-32.26,56.79,2,3
17391.796,0.076,-0.435,0.836,49.71,-24.93,55.64,2,3
17391.796,0.068,-0.433,0.857,49.5,-19.71,47.61,2,3
17391.812,0.037,-0.455,0.898,45.47,-17.55,34.18,2,3
17391.812,-0.011,-0.455,0.944,39.22,-19.56,20.39,2,3
17391.828,-0.023,-0.43,0.98,33.69,-25.48,8.76,2,3
17391.843,-0.041,-0.426,1.004,30.09,-31.71,1.71,2,3
17391.843,-0.05,-0.398,1.0,34.94,-42.42,0.09,2,3
17391.859,-0.029,-0.363,0.964,38.03,-45.08,2.44,2,3
17391.875,-0.011,-0.322,0.918,38.64,-44.59,4.88,2,3
17391.875,0.034,-0.284,0.859,37.17,-40.86,6.81,2,3
17391.89,0.039,-0.304,0.884,39.31,-35.46,8.24,2,3
17391.89,0.007,-0.279,0.905,45.78,-29.54,10.22,2,3
17391.906,-0.029,-0.207,0.889,50.02,-27.31,13.73,2,3
17391.921,-0.062,-0.138,0.865,48.43,-30.55,16.75,2,3
17391.921,-0.083,-0.102,0.831,44.68,-36.68,20.29,2,3
17391.937,-0.077,-0.026,0.805,41.51,-41.57,21.79,2,3
17391.953,-0.066,0.009,0.81,37.54,-41.6,23.83,2,3
17391.968,-0.04,0.002,0.834,36.01,-38.36,28.99,2,3
17391.968,-0.003,0.067,0.861,38.18,-34.79,32.56,2,3
17391.984,-0.013,0.053,0.886,36.93,-32.62,38.3,2,3
17391.984,-0.017,0.022,0.908,33.2,-34.52,47.33,2,3
17392.0,-0.027,-0.029,0.918,32.01,-37.87,56.31,2,3
17392.0,-0.029,-0.078,0.902,33.05,-40.19,65.98,2,3
17392.015,-0.008,-0.067,0.865,35.1,-40.8,72.05,2,3
17392.031,-0.001,-0.069,0.844,33.66,-39.19,76.2,2,3
17392.046,0.001,-0.105,0.859,30.09,-36.5,81.3,2,3
17392.046,0.03,-0.144,0.888,30.52,-33.02,87.25,2,3
17392.062,0.051,-0.149,0.922,34.3,-27.99,93.6,2,3
17392.062,0.075,-0.172,0.965,37.84,-22.83,99.8,2,3
17392.078,0.089,-0.212,0.999,41.57,-19.53,105.47,2,3
17392.093,0.081,-0.192,1.009,44.77,-19.29,107.12,2,3
17392.093,0.075,-0.191,1.012,42.76,-22.37,104.59,2,3
17392.109,0.073,-0.197,1.012,37.26,-28.14,98.42,2,3
17392.125,0.085,-0.198,1.001,31.1,-34.21,90.67,2,3
17392.125,0.109,-0.185,0.977,25.36,-39.7,82.83,2,3
17392.14,0.132,-0.155,0.957,22.03,-42.94,77.67,2,3
17392.14,0.168,-0.12,0.94,20.36,-43.76,76.33,2,3
17392.156,0.192,-0.138,0.937,20.75,-42.54,78.19,2,3
17392.171,0.186,-0.158,0.934,24.51,-39.95,81.88,2,3
17392.171,0.217,-0.176,0.923,28.72,-37.23,86.92,2,3
17392.187,0.259,-0.194,0.911,32.26,-34.06,90.09,2,3
17392.203,0.232,-0.198,0.886,35.04,-30.73,90.12,2,3
17392.203,0.212,-0.2,0.868,34.15,-28.69,87.04,2,3
17392.218,0.189,-0.196,0.87,31.1,-27.16,80.94,2,3
17392.234,0.184,-0.203,0.896,27.95,-25.73,71.96,2,3
17392.234,0.225,-0.18,0.926,24.05,-25.45,62.87,2,3
17392.25,0.22,-0.166,0.951,20.84,-25.03,56.12,2,3
17392.25,0.221,-0.178,0.981,19.93,-25.73,52.58,2,3
17392.265,0.219,-0.149,0.987,20.91,-29.15,47.36,2,3
17392.281,0.207,-0.123,0.955,19.9,-32.87,41.35,2,3
17392.281,0.233,-0.098,0.955,15.84,-35.89,35.68,2,3
17392.296,0.28,-0.1,0.961,11.54,-38.36,30.98,2,3
17392.312,0.321,-0.1,0.963,10.47,-40.19,25.39,2,3
17392.328,0.351,-0.081,0.944,9.22,-42.45,18.34,2,3
17392.328,0.358,-0.105,0.944,5.1,-44.47,10.68,2,3
17392.343,0.346,-0.119,0.948,2.14,-45.56,5.31,2,3
17392.343,0.353,-0.119,0.937,2.32,-45.81,3.08,2,3
17392.359,0.339,-0.092,0.896,5.52,-44.28,4.7,2,3
17392.375,0.355,-0.064,0.865,6.78,-42.05,8.03,2,3
17392.375,0.347,-0.062,0.868,7.42,-38.24,9.74,2,3
17392.39,0.332,-0.073,0.888,9.67,-32.69,14.16,2,3
17392.39,0.345,-0.071,0.892,13.55,-27.83,22.4,2,3
17392.406,0.319,-0.053,0.896,18.77,-23.26,31.07,2,3
17392.421,0.322,-0.082,0.901,23.1,-19.62,38.06,2,3
17392.421,0.321,-0.093,0.911,26.18,-16.72,39.52,2,3
17392.437,0.331,-0.08,0.941,26.25,-13.73,38.24,2,3
17392.453,0.329,-0.081,0.976,23.59,-12.15,33.97,2,3
17392.468,0.313,-0.075,0.999,20.57,-13.82,28.14,2,3
17392.468,0.318,-0.047,1.007,16.3,-18.89,21.82,2,3
17392.484,0.326,-0.028,1.005,12.18,-24.69,16.02,2,3
17392.484,0.341,-0.026,0.99,9.61,-29.39,13.06,2,3
17392.5,0.364,-0.02,0.957,9.43,-33.2,11.44,2,3
17392.5,0.369,-0.014,0.917,9.0,-35.22,11.72,2,3
17392.515,0.402,0.003,0.882,7.08,-35.16,13.43,2,3
17392.531,0.436,0.007,0.853,6.2,-32.93,13.55,2,3
17392.531,0.45,0.01,0.841,6.84,-28.5,14.92,2,3
17392.546,0.479,0.013,0.845,8.24,-23.13,18.04,2,3
17392.562,0.498,0.003,0.847,10.44,-17.67,20.81,2,3
17392.562,0.491,-0.004,0.857,12.39,-12.51,21.49,2,3
17392.578,0.478,0.008,0.868,11.44,-9.34,18.98,2,3
17392.593,0.451,0.003,0.897,8.12,-7.57,15.66,2,3
17392.593,0.429,0.007,0.922,6.13,-6.26,12.79,2,3
17392.609,0.413,0.037,0.933,5.77,-6.01,10.22,2,3
17392.609,0.401,0.044,0.934,4.06,-7.02,9.61,2,3
17392.625,0.398,0.025,0.935,2.41,-8.48,9.83,2,3
17392.64,0.405,0.013,0.917,2.44,-9.98,9.25,2,3
17392.64,0.408,0.004,0.887,2.2,-10.35,7.78,2,3
17392.656,0.401,-0.005,0.871,0.34,-9.06,5.04,2,3
17392.671,0.394,-0.014,0.87,-1.98,-6.81,1.4,2,3
17392.671,0.364,-0.019,0.882,-3.66,-3.69,-1.34,2,3
17392.687,0.348,-0.016,0.904,-4.36,-0.98,-3.02,2,3
17392.703,0.339,0.002,0.924,-4.46,0.67,-4.39,2,3
17392.703,0.316,0.005,0.947,-4.91,1.53,-4.58,2,3
17392.718,0.294,-0.003,0.963,-4.79,0.82,-3.54,2,3
17392.734,0.285,0.002,0.966,-3.66,-0.82,-1.98,2,3
17392.734,0.287,0.005,0.964,-2.84,-2.56,-0.7,2,3
17392.75,0.287,-0.004,0.962,-3.6,-3.6,0.64,2,3
17392.75,0.289,-0.019,0.958,-4.03,-4.49,1.37,2,3
17392.765,0.271,-0.038,0.962,-3.66,-5.19,1.13,2,3
17392.781,0.266,-0.042,0.963,-3.88,-5.74,0.85,2,3
17392.781,0.279,-0.041,0.953,-4.67,-6.5,-0.58,2,3
17392.796,0.286,-0.035,0.948,-5.77,-6.93,-3.02,2,3
17392.812,0.299,-0.024,0.949,-7.48,-7.2,-4.94,2,3
17392.812,0.291,-0.022,0.961,-9.09,-7.51,-6.16,2,3
17392.828,0.278,-0.03,0.972,-7.26,-8.45,2.08,2,3
17392.843,0.287,-0.025,0.975,-3.45,-8.45,8.64,2,3
17392.843,0.288,-0.029,0.973,-0.12,-7.97,16.02,2,3
17392.859,0.302,-0.027,0.97,2.84,-7.05,22.89,2,3
17392.875,0.369,-0.06,0.989,5.71,-6.32,29.3,2,3
17392.875,0.418,-0.077,0.989,9.25,-6.16,35.4,2,3
17392.89,0.45,-0.107,0.975,13.49,-6.44,38.94,2,3
17392.89,0.453,-0.152,0.954,17.12,-6.68,39.16,2,3
17392.906,0.432,-0.174,0.932,19.17,-6.93,35.65,2,3
17392.921,0.411,-0.176,0.896,17.33,-6.68,28.08,2,3
17392.937,0.394,-0.169,0.89,9.58,-6.2,17.03,2,3
17392.937,0.379,-0.159,0.888,0.7,-5.16,5.37,2,3
17392.953,0.367,-0.134,0.915,-4.88,-3.72,-4.64,2,3
17392.953,0.362,-0.109,0.944,-7.72,-2.81,-9.98,2,3
17392.968,0.359,-0.079,0.956,-6.2,-2.81,-11.75,2,3
17392.984,0.353,-0.048,0.946,-2.69,-3.36,-10.93,2,3
17392.984,0.343,-0.02,0.929,-1.28,-3.57,-8.64,2,3
17393.0,0.341,-0.018,0.92,-2.14,-2.81,-6.32,2,3
17393.0,0.331,-0.034,0.927,-2.72,-0.43,-4.3,2,3
17393.015,0.319,-0.052,0.945,-0.7,2.84,-0.67,2,3
17393.031,0.323,-0.044,0.95,2.93,5.01,2.53,2,3
17393.031,0.309,-0.033,0.944,5.71,6.07,5.25,2,3
17393.046,0.304,-0.036,0.945,5.68,5.83,8.79,2,3
17393.062,0.315,-0.044,0.945,4.88,5.74,11.84,2,3
17393.078,0.308,-0.063,0.943,5.16,6.1,11.87,2,3
17393.078,0.303,-0.08,0.952,5.43,7.08,11.14,2,3
17393.093,0.3,-0.079,0.964,5.07,8.03,9.58,2,3
17393.093,0.293,-0.071,0.977,4.73,7.87,6.29,2,3
17393.109,0.279,-0.053,0.985,2.78,6.16,3.11,2,3
17393.125,0.275,-0.04,0.988,-0.92,2.93,1.46,2,3
17393.125,0.277,-0.043,0.993,-3.69,-1.07,0.89,2,3
17393.14,0.291,-0.042,0.98,-3.81,-4.61,1.86,2,3
17393.14,0.307,-0.039,0.958,-2.72,-6.9,4.46,2,3
17393.156,0.31,-0.056,0.938,-1.25,-7.14,8.3,2,3
17393.171,0.315,-0.062,0.921,0.31,-5.8,12.02,2,3
17393.171,0.323,-0.064,0.919,2.04,-3.17,14.5,2,3
17393.187,0.327,-0.062,0.934,3.33,-0.34,17.21,2,3
17393.203,0.334,-0.062,0.949,3.94,0.98,19.56,2,3
17393.203,0.326,-0.074,0.958,4.24,1.5,20.29,2,3
17393.218,0.317,-0.089,0.96,5.01,0.61,18.86,2,3
17393.234,0.303,-0.082,0.95,3.97,-0.85,15.14,2,3
17393.234,0.294,-0.09,0.949,1.71,-1.77,10.35,2,3
