timestamp,ax,ay,az,gx,gy,gz,orient_label,motion_label
17393.25,0.298,-0.1,0.958,-1.56,-2.35,5.62,2,3
17393.265,0.315,-0.102,0.96,-3.69,-2.56,0.89,2,3
17393.265,0.326,-0.094,0.946,-4.88,-2.29,-3.2,2,3
17393.281,0.34,-0.092,0.934,-6.04,-1.56,-5.71,2,3
17393.281,0.354,-0.084,0.933,-7.17,-0.67,-6.9,2,3
17393.296,0.354,-0.082,0.935,-6.29,0.37,-6.84,2,3
17393.312,0.34,-0.071,0.927,-3.81,2.01,-5.71,2,3
17393.312,0.328,-0.053,0.923,-2.11,3.66,-4.09,2,3
17393.328,0.319,-0.054,0.921,-0.98,5.98,-1.8,2,3
17393.343,0.317,-0.055,0.938,-0.46,8.15,0.82,2,3
17393.343,0.307,-0.063,0.954,0.85,9.7,3.36,2,3
17393.359,0.308,-0.06,0.973,2.69,10.13,6.04,2,3
17393.359,0.313,-0.073,0.988,3.81,9.28,8.97,2,3
17393.375,0.316,-0.087,0.996,4.97,7.45,11.38,2,3
17393.39,0.319,-0.094,0.992,6.29,5.28,12.18,2,3
17393.406,0.315,-0.1,0.988,6.68,3.27,12.18,2,3
17393.406,0.319,-0.104,0.979,6.56,1.22,11.47,2,3
17393.421,0.326,-0.087,0.948,4.79,-1.01,5.37,2,3
17393.437,0.327,-0.079,0.94,2.32,-0.76,1.56,2,3
17393.453,0.322,-0.075,0.945,0.15,-0.15,-1.92,2,3
17393.453,0.315,-0.07,0.954,-0.7,0.58,-4.24,2,3
17393.468,0.308,-0.055,0.96,-0.4,0.89,-4.64,2,3
17393.468,0.305,-0.059,0.97,0.21,0.76,-3.23,2,3
17393.484,0.31,-0.047,0.966,1.71,-0.37,-1.13,2,3
17393.5,0.322,-0.037,0.954,3.48,-1.89,0.89,2,3
17393.5,0.319,-0.04,0.937,3.94,-2.72,2.47,2,3
17393.515,0.312,-0.045,0.927,3.72,-2.72,2.9,2,3
17393.531,0.315,-0.046,0.924,2.99,-1.68,3.02,2,3
17393.531,0.329,-0.047,0.926,1.98,0.09,2.93,2,3
17393.546,0.337,-0.054,0.935,1.77,1.83,3.36,2,3
17393.562,0.336,-0.047,0.941,3.05,2.9,4.61,2,3
17393.562,0.335,-0.034,0.935,4.33,3.33,5.52,2,3
17393.578,0.332,-0.023,0.927,4.27,3.81,6.07,2,3
17393.593,0.35,-0.016,0.939,1.86,4.97,6.59,2,3
17393.609,0.352,-0.021,0.938,2.23,5.34,7.45,2,3
17393.625,0.351,-0.033,0.939,3.05,5.22,8.58,2,3
17393.625,0.34,-0.036,0.932,3.78,5.04,9.25,2,3
17393.64,0.347,-0.033,0.921,3.88,4.73,9.46,2,3
17393.64,0.365,-0.025,0.914,3.3,4.49,8.03,2,3
17393.656,0.379,-0.013,0.911,1.56,4.85,6.16,2,3
17393.671,0.397,0.005,0.913,-0.73,5.22,5.34,2,3
17393.671,0.412,0.027,0.907,-2.14,5.58,6.23,2,3
17393.687,0.427,0.037,0.915,-2.84,6.53,10.68,2,3
17393.703,0.446,0.038,0.903,-1.5,8.15,17.76,2,3
17393.703,0.46,0.045,0.894,2.44,10.77,26.46,2,3
17393.718,0.462,0.048,0.885,7.2,14.01,36.68,2,3
17393.734,0.463,0.048,0.88,11.93,18.22,48.71,2,3
17393.734,0.477,0.056,0.881,17.85,22.55,61.77,2,3
17393.75,0.485,0.069,0.877,23.53,26.64,74.53,2,3
17393.765,0.544,0.037,0.891,34.12,36.56,103.89,2,3
17393.781,0.55,-0.001,0.889,41.17,42.18,118.11,2,3
17393.781,0.537,-0.05,0.886,47.4,47.49,130.74,2,3
17393.796,0.53,-0.104,0.882,53.47,51.24,141.09,2,3
17393.812,0.508,-0.132,0.862,59.39,52.89,146.12,2,3
17393.812,0.482,-0.132,0.833,60.79,51.36,141.45,2,3
17393.828,0.459,-0.143,0.816,56.0,48.43,131.08,2,3
17393.843,0.42,-0.141,0.794,46.33,42.45,116.58,2,3
17393.843,0.357,-0.051,0.732,31.01,34.3,98.51,2,3
17393.859,0.329,-0.004,0.693,11.47,25.85,80.29,2,3
17393.859,0.302,0.039,0.653,-9.74,17.85,64.06,2,3
17393.875,0.285,0.075,0.62,-30.76,11.14,52.8,2,3
17393.89,0.283,0.085,0.6,-48.46,6.47,48.71,2,3
17393.89,0.276,0.083,0.578,-58.99,3.85,51.06,2,3
17393.906,0.25,0.071,0.55,-59.97,3.14,58.93,2,3
17393.921,0.223,0.04,0.515,-53.83,2.96,69.77,2,3
17393.937,0.206,-0.01,0.445,-35.89,3.91,82.25,2,3
17393.953,0.178,-0.004,0.379,-34.36,4.61,80.57,2,3
17393.953,0.15,-0.031,0.33,-41.9,5.92,74.4,2,3
17393.968,0.12,-0.053,0.297,-54.38,7.63,64.3,2,3
17393.984,0.093,-0.064,0.252,-68.18,9.92,54.38,2,3
17393.984,0.089,-0.076,0.24,-82.0,14.65,44.68,2,3
17394.0,0.046,-0.046,0.23,-93.69,20.72,34.58,2,3
17394.0,0.017,-0.092,0.218,-103.64,28.69,28.72,2,3
17394.015,-0.011,-0.059,0.228,-114.38,36.04,22.06,2,3
17394.031,-0.1,-0.078,0.229,-121.8,42.21,17.91,2,3
17394.031,-0.139,-0.065,0.255,-127.69,47.88,18.07,2,3
17394.046,-0.195,-0.107,0.268,-130.1,53.07,21.21,2,3
17394.062,-0.254,-0.145,0.306,-127.63,58.53,21.67,2,3
17394.062,-0.343,-0.16,0.322,-121.95,61.46,14.71,2,3
17394.078,-0.355,-0.141,0.35,-121.77,61.83,9.43,2,3
17394.093,-0.38,-0.114,0.373,-124.45,60.67,0.79,2,3
17394.109,-0.378,-0.199,0.407,-138.0,64.18,3.08,2,3
17394.109,-0.37,-0.246,0.472,-142.34,71.29,4.73,2,3
17394.125,-0.336,-0.343,0.534,-140.26,79.81,12.33,2,3
17394.14,-0.33,-0.373,0.581,-135.53,88.84,20.05,2,3
17394.14,-0.322,-0.386,0.619,-125.55,96.77,36.29,2,3
17394.156,-0.305,-0.431,0.663,-116.76,103.09,46.17,2,3
17394.171,-0.319,-0.434,0.71,-110.02,106.72,56.06,2,3
17394.171,-0.329,-0.418,0.751,-102.88,111.58,60.82,2,3
17394.187,-0.358,-0.451,0.795,-99.25,112.06,59.18,2,3
17394.203,-0.362,-0.471,0.829,-98.79,106.39,54.87,2,3
17394.203,-0.36,-0.476,0.842,-101.26,95.07,49.62,2,3
17394.218,-0.382,-0.502,0.844,-104.16,80.94,44.95,2,3
17394.234,-0.397,-0.551,0.853,-106.88,67.6,42.42,2,3
17394.234,-0.414,-0.586,0.854,-108.52,56.61,42.3,2,3
17394.25,-0.427,-0.603,0.851,-107.97,49.62,45.32,2,3
17394.25,-0.411,-0.622,0.852,-105.29,48.28,51.61,2,3
17394.265,-0.396,-0.591,0.84,-102.15,51.06,58.44,2,3
17394.281,-0.387,-0.549,0.833,-98.42,56.0,64.52,2,3
17394.281,-0.371,-0.545,0.829,-95.71,60.03,70.65,2,3
17394.296,-0.402,-0.554,0.804,-93.17,60.4,77.94,2,3
17394.312,-0.432,-0.595,0.778,-87.25,58.99,89.39,2,3
17394.312,-0.44,-0.656,0.77,-77.0,58.99,106.05,2,3
17394.328,-0.438,-0.699,0.74,-61.68,62.47,123.17,2,3
17394.343,-0.443,-0.666,0.677,-47.58,72.91,137.18,2,3
17394.343,-0.479,-0.626,0.658,-36.74,87.71,147.04,2,3
17394.359,-0.542,-0.63,0.607,-32.23,102.05,148.59,2,3
17394.375,-0.579,-0.642,0.607,-34.76,117.01,150.33,2,3
17394.375,-0.665,-0.687,0.644,-36.87,127.48,150.43,2,3
17394.39,-0.688,-0.718,0.683,-34.97,133.37,153.54,2,3
17394.406,-0.7,-0.641,0.702,-32.96,135.07,156.5,2,3
17394.406,-0.739,-0.577,0.702,-33.3,130.53,155.28,2,3
17394.421,-0.785,-0.521,0.698,-38.94,120.88,154.24,2,3
17394.437,-0.832,-0.541,0.711,-55.67,95.1,158.6,2,3
17394.453,-0.828,-0.545,0.707,-53.93,85.54,166.54,2,3
17394.453,-0.854,-0.589,0.69,-42.63,79.47,178.59,2,3
17394.468,-0.906,-0.655,0.655,-20.63,75.41,193.46,2,3
17394.484,-0.934,-0.68,0.616,9.43,77.79,210.43,2,3
17394.484,-0.945,-0.675,0.577,42.45,88.81,229.35,2,3
17394.5,-0.97,-0.632,0.526,74.59,101.17,242.87,2,3
17394.515,-0.973,-0.571,0.484,100.74,116.34,251.17,2,3
17394.515,-0.997,-0.542,0.475,119.72,135.47,254.4,2,3
17394.531,-1.0,-0.467,0.472,132.79,153.78,249.98,2,3
17394.531,-0.983,-0.318,0.454,135.96,164.59,238.26,2,3
17394.546,-0.997,-0.188,0.423,131.44,163.55,220.1,2,3
17394.562,-1.061,-0.154,0.401,124.61,155.71,201.91,2,3
17394.562,-1.147,-0.164,0.42,117.83,148.23,189.79,2,3
17394.578,-1.208,-0.155,0.457,113.1,140.96,182.5,2,3
17394.593,-1.262,-0.142,0.49,113.35,132.51,173.07,2,3
17394.593,-1.285,-0.124,0.498,115.54,122.1,161.35,2,3
17394.609,-1.272,-0.054,0.469,117.07,106.97,146.73,2,3
17394.609,-1.241,0.025,0.444,118.47,89.11,130.65,2,3
17394.625,-1.189,0.067,0.428,119.57,71.9,117.16,2,3
17394.64,-1.123,0.082,0.405,120.46,54.96,105.35,2,3
17394.64,-1.1,0.073,0.373,123.84,38.7,91.89,2,3
17394.656,-1.137,0.066,0.352,126.53,25.91,77.67,2,3
17394.671,-1.149,0.116,0.352,122.35,16.66,62.23,2,3
17394.687,-1.14,0.178,0.36,109.65,9.55,47.27,2,3
17394.687,-1.172,0.194,0.37,92.99,2.23,36.53,2,3
17394.703,-1.188,0.16,0.37,80.23,-10.22,35.19,2,3
17394.703,-1.167,0.145,0.372,79.32,-21.64,41.35,2,3
17394.718,-1.116,0.158,0.382,91.98,-28.93,51.36,2,3
17394.734,-1.032,0.171,0.372,113.99,-36.04,62.78,2,3
17394.734,-0.988,0.163,0.328,141.76,-43.49,71.6,2,3
17394.75,-1.022,0.174,0.267,170.72,-47.06,74.1,2,3
17394.765,-1.09,0.32,0.209,192.75,-40.25,55.42,2,3
17394.781,-1.104,0.443,0.228,172.8,-32.32,39.46,2,3
17394.796,-1.147,0.559,0.264,135.72,-24.81,26.31,2,3
17394.796,-1.205,0.676,0.337,57.95,-27.28,21.21,2,3
17394.812,-1.259,0.735,0.408,36.65,-38.0,27.83,2,3
17394.812,-1.309,0.741,0.473,32.35,-53.77,37.75,2,3
17394.828,-1.339,0.709,0.524,44.04,-72.88,50.11,2,3
17394.843,-1.309,0.641,0.516,64.24,-89.36,61.53,2,3
17394.843,-1.281,0.618,0.463,86.12,-96.32,68.45,2,3
17394.859,-1.215,0.61,0.402,101.84,-93.75,70.07,2,3
17394.875,-1.139,0.631,0.357,107.0,-82.64,70.13,2,3
17394.875,-1.084,0.676,0.325,101.93,-64.97,68.94,2,3
17394.89,-1.062,0.674,0.297,88.99,-46.6,68.24,2,3
17394.89,-1.066,0.642,0.276,69.49,-30.95,70.16,2,3
17394.906,-1.044,0.632,0.3,48.89,-17.76,74.31,2,3
17394.921,-1.025,0.604,0.315,31.5,-8.82,78.68,2,3
17394.937,-1.024,0.528,0.324,3.54,-3.88,81.85,2,3
17394.953,-1.012,0.523,0.331,-7.42,-4.7,79.2,2,3
17394.953,-0.996,0.518,0.343,-17.3,-7.32,74.25,2,3
17394.968,-0.972,0.514,0.348,-26.92,-10.44,68.94,2,3
17394.984,-0.954,0.513,0.351,-36.1,-12.42,64.94,2,3
17394.984,-0.961,0.501,0.358,-44.19,-12.3,62.81,2,3
17395.0,-0.984,0.468,0.37,-51.27,-10.32,62.11,2,3
17395.0,-0.98,0.412,0.384,-57.07,-7.35,62.81,2,3
17395.015,-0.955,0.363,0.4,-60.09,-2.72,63.17,2,3
17395.031,-0.93,0.342,0.412,-58.81,3.14,61.68,2,3
17395.046,-0.913,0.337,0.423,-54.29,7.75,59.57,2,3
17395.046,-0.892,0.335,0.43,-48.37,8.97,58.35,2,3
17395.062,-0.862,0.334,0.433,-40.74,7.11,58.2,2,3
17395.062,-0.837,0.342,0.43,-30.67,3.94,58.69,2,3
17395.078,-0.804,0.361,0.42,-19.56,0.03,59.05,2,3
17395.093,-0.772,0.39,0.41,-9.31,-3.3,59.05,2,3
17395.093,-0.744,0.427,0.403,-0.89,-4.85,58.57,2,3
17395.109,-0.724,0.462,0.405,4.7,-5.49,58.2,2,3
17395.109,-0.708,0.492,0.403,7.45,-5.83,58.32,2,3
17395.125,-0.696,0.526,0.405,7.84,-5.77,58.72,2,3
17395.14,-0.686,0.541,0.416,6.84,-5.4,57.68,2,3
17395.156,-0.677,0.555,0.437,5.22,-6.53,54.23,2,3
17395.156,-0.673,0.587,0.462,4.36,-9.34,48.89,2,3
17395.171,-0.683,0.631,0.491,5.55,-13.18,43.61,2,3
17395.171,-0.699,0.671,0.506,7.69,-18.43,40.68,2,3
17395.187,-0.704,0.695,0.512,10.99,-24.57,39.86,2,3
17395.203,-0.695,0.72,0.512,16.6,-30.37,40.07,2,3
17395.203,-0.688,0.754,0.507,23.59,-35.04,39.86,2,3
17395.218,-0.673,0.783,0.495,30.21,-39.03,39.31,2,3
17395.234,-0.654,0.805,0.479,36.26,-41.78,39.06,2,3
17395.234,-0.64,0.83,0.468,41.81,-43.46,38.76,2,3
17395.25,-0.623,0.864,0.462,46.27,-44.74,39.16,2,3
17395.25,-0.609,0.897,0.455,49.68,-46.42,40.1,2,3
17395.265,-0.603,0.919,0.438,53.07,-49.01,41.78,2,3
17395.281,-0.592,0.936,0.429,55.64,-51.0,44.01,2,3
17395.296,-0.573,0.959,0.413,57.01,-52.25,46.54,2,3
17395.296,-0.547,0.99,0.4,54.6,-53.53,48.77,2,3
17395.312,-0.522,1.011,0.392,48.89,-54.84,51.18,2,3
17395.328,-0.495,1.02,0.378,41.51,-57.22,53.8,2,3
17395.328,-0.473,1.024,0.367,33.97,-60.12,56.28,2,3
17395.343,-0.455,1.025,0.354,27.38,-62.01,58.75,2,3
17395.343,-0.431,1.017,0.343,21.39,-62.5,60.88,2,3
17395.359,-0.405,1.006,0.34,15.78,-61.19,62.78,2,3
17395.375,-0.381,0.997,0.342,10.47,-58.57,64.52,2,3
17395.375,-0.36,0.983,0.347,5.46,-55.09,66.04,2,3
17395.39,-0.351,0.956,0.354,0.95,-51.82,67.35,2,3
17395.406,-0.344,0.914,0.356,-1.74,-49.99,68.73,2,3
17395.406,-0.321,0.874,0.353,-2.38,-49.93,69.7,2,3
17395.421,-0.299,0.846,0.345,-1.13,-50.75,69.7,2,3
17395.421,-0.285,0.817,0.335,1.1,-52.1,68.7,2,3
17395.437,-0.285,0.772,0.325,3.85,-54.32,67.45,2,3
17395.453,-0.298,0.746,0.321,7.32,-55.67,64.94,2,3
17395.453,-0.29,0.735,0.318,10.86,-56.73,60.27,2,3
17395.468,-0.278,0.724,0.312,14.01,-57.86,54.2,2,3
17395.484,-0.276,0.71,0.303,17.03,-57.92,48.22,2,3
17395.484,-0.262,0.674,0.292,19.78,-57.74,43.82,2,3
17395.5,-0.255,0.644,0.275,23.29,-57.34,40.28,2,3
17395.5,-0.273,0.652,0.278,26.67,-56.06,35.98,2,3
17395.515,-0.303,0.657,0.275,30.06,-56.92,31.34,2,3
17395.531,-0.326,0.672,0.268,32.5,-59.82,28.29,2,3
17395.531,-0.355,0.736,0.273,32.75,-60.76,24.96,2,3
17395.546,-0.37,0.772,0.258,30.06,-62.53,20.54,2,3
17395.562,-0.374,0.771,0.235,23.32,-65.1,17.98,2,3
17395.578,-0.377,0.775,0.213,12.85,-66.53,18.1,2,3
17395.578,-0.367,0.763,0.186,-0.85,-68.21,19.75,2,3
17395.593,-0.344,0.728,0.178,-16.85,-69.28,20.81,2,3
17395.609,-0.328,0.671,0.207,-44.16,-63.94,17.3,2,3
17395.625,-0.36,0.653,0.253,-50.51,-57.62,13.67,2,3
17395.625,-0.388,0.612,0.293,-49.62,-51.36,10.19,2,3
17395.64,-0.398,0.58,0.324,-43.0,-45.56,7.45,2,3
17395.656,-0.408,0.573,0.345,-31.8,-40.1,3.27,2,3
17395.656,-0.424,0.574,0.382,-17.12,-35.22,-1.98,2,3
17395.671,-0.468,0.619,0.4,0.73,-29.27,-6.62,2,3
17395.671,-0.504,0.702,0.359,14.13,-23.13,-9.34,2,3
17395.687,-0.497,0.777,0.307,18.1,-18.34,-8.61,2,3
17395.703,-0.491,0.863,0.294,14.62,-10.32,-4.76,2,3
17395.703,-0.477,0.898,0.256,6.32,1.1,0.18,2,3
17395.718,-0.477,0.89,0.255,-6.38,11.96,6.1,2,3
17395.718,-0.488,0.871,0.292,-14.56,24.51,11.08,2,3
17395.734,-0.513,0.846,0.303,-18.07,35.65,11.75,2,3
17395.75,-0.522,0.817,0.286,-22.8,46.33,10.62,2,3
17395.75,-0.496,0.79,0.296,-28.99,52.55,6.81,2,3
17395.781,-0.567,0.767,0.405,-18.28,50.66,-6.74,2,3
17395.781,-0.584,0.777,0.483,-0.7,43.61,-3.11,2,3
17395.796,-0.586,0.845,0.506,14.01,36.81,4.73,2,3
17395.812,-0.553,0.911,0.503,20.84,31.46,12.76,2,3
17395.812,-0.476,0.907,0.494,18.71,25.76,17.76,2,3
17395.828,-0.465,0.882,0.579,14.53,18.4,18.62,2,3
17395.843,-0.529,0.771,0.62,12.82,0.61,14.68,2,3
17395.843,-0.459,0.745,0.538,6.74,-15.17,9.64,2,3
17395.859,-0.355,0.757,0.468,2.04,-23.87,9.74,2,3
17395.875,-0.301,0.788,0.403,2.69,-24.35,0.73,2,3
17395.875,-0.336,0.834,0.37,2.14,-15.32,-4.85,2,3
17395.89,-0.376,0.806,0.386,5.1,-7.93,0.06,2,3
17395.89,-0.36,0.782,0.415,9.13,-0.85,2.81,2,3
17395.906,-0.388,0.771,0.414,16.97,-1.1,3.6,2,3
17395.921,-0.282,0.803,0.324,17.3,-3.97,0.95,2,3
17395.921,-0.275,0.847,0.275,8.36,0.37,-8.03,2,3
17395.953,-0.345,0.864,0.311,-13.82,11.29,-14.28,2,3
17395.968,-0.348,0.823,0.353,-14.31,7.87,-10.41,2,3
17395.968,-0.366,0.844,0.363,-12.48,4.43,-6.71,2,3
17395.968,-0.372,0.88,0.431,-3.23,5.22,-1.19,2,3
17395.984,-0.346,0.844,0.436,11.05,0.4,5.62,2,3
17396.0,-0.28,0.853,0.391,11.17,-4.7,7.6,2,3
17396.0,-0.295,0.887,0.403,5.58,-6.59,1.83,2,3
17396.015,-0.283,0.851,0.388,2.2,-8.58,-2.62,2,3
17396.031,-0.273,0.848,0.401,-0.61,-6.56,-4.97,2,3
17396.031,-0.287,0.85,0.397,2.93,-3.85,-5.58,2,3
17396.046,-0.284,0.88,0.426,7.11,-3.11,-4.33,2,3
17396.062,-0.332,0.869,0.494,16.51,-4.49,-0.98,2,3
17396.062,-0.276,0.856,0.475,26.46,-9.95,3.33,2,3
17396.078,-0.259,0.895,0.43,30.27,-11.38,2.75,2,3
17396.093,-0.264,0.913,0.335,27.65,-8.3,1.46,2,3
17396.093,-0.213,0.931,0.323,17.46,-0.37,1.59,2,3
17396.125,-0.383,0.881,0.447,10.96,3.88,3.63,2,3
17396.125,-0.339,0.906,0.464,7.51,-3.81,7.9,2,3
17396.14,-0.306,0.872,0.361,3.63,-7.69,5.22,2,3
17396.156,-0.31,0.865,0.338,-2.59,-4.39,4.97,2,3
17396.156,-0.304,0.822,0.338,-0.85,-2.56,6.16,2,3
17396.171,-0.354,0.791,0.343,3.14,-1.46,6.29,2,3
17396.171,-0.333,0.812,0.357,8.42,-4.27,8.18,2,3
17396.187,-0.301,0.817,0.33,13.09,-6.16,7.9,2,3
17396.203,-0.297,0.846,0.346,14.07,-7.11,5.4,2,3
17396.203,-0.274,0.88,0.361,14.47,-7.6,3.42,2,3
17396.218,-0.278,0.906,0.391,13.18,-7.32,3.3,2,3
17396.234,-0.28,0.915,0.402,10.8,-8.36,3.11,2,3
17396.234,-0.265,0.914,0.398,6.78,-9.49,3.27,2,3
17396.25,-0.253,0.914,0.381,2.53,-9.67,3.51,2,3
17396.25,-0.238,0.904,0.378,0.18,-9.52,3.48,2,3
17396.265,-0.233,0.868,0.375,1.62,-8.15,2.32,2,3
17396.296,-0.236,0.869,0.337,6.96,-3.66,0.52,2,3
17396.296,-0.24,0.864,0.342,7.93,-1.59,-0.73,2,3
17396.312,-0.243,0.862,0.354,8.12,-0.64,-2.35,2,3
17396.312,-0.247,0.883,0.362,7.05,0.06,-3.39,2,3
17396.328,-0.254,0.903,0.37,5.43,0.73,-2.62,2,3
17396.343,-0.271,0.913,0.378,3.42,0.34,-1.43,2,3
17396.343,-0.28,0.907,0.359,1.04,-1.62,-0.15,2,3
17396.359,-0.269,0.901,0.359,-2.72,-3.39,-0.18,2,3
17396.359,-0.277,0.88,0.384,-3.6,-3.08,-1.31,2,3
17396.375,-0.276,0.86,0.374,-2.08,-2.62,-2.66,2,3
17396.39,-0.257,0.862,0.341,-1.98,-2.14,-4.61,2,3
17396.39,-0.283,0.864,0.356,-1.53,-0.34,-6.07,2,3
17396.406,-0.252,0.843,0.345,1.46,0.61,-5.52,2,3
17396.421,-0.274,0.849,0.368,2.66,2.38,-5.71,2,3
17396.421,-0.256,0.842,0.33,2.69,2.56,-5.28,2,3
17396.437,-0.28,0.865,0.353,-0.85,4.36,-4.79,2,3
17396.453,-0.287,0.842,0.358,-1.4,3.36,-3.85,2,3
17396.453,-0.277,0.857,0.358,-3.3,1.83,-4.58,2,3
17396.468,-0.276,0.869,0.353,-2.56,2.66,-5.65,2,3
17396.484,-0.294,0.868,0.369,-0.24,3.97,-6.32,2,3
17396.484,-0.316,0.886,0.378,1.5,3.27,-6.13,2,3
17396.5,-0.306,0.898,0.353,1.8,0.79,-4.33,2,3
17396.515,-0.291,0.896,0.337,-0.21,-0.98,-2.66,2,3
17396.515,-0.289,0.876,0.346,-1.62,-1.34,-1.37,2,3
17396.531,-0.293,0.857,0.373,-1.68,-2.26,-1.04,2,3
17396.531,-0.274,0.849,0.369,-0.06,-3.69,-1.31,2,3
17396.546,-0.234,0.837,0.355,4.09,-3.14,-3.39,2,3
17396.562,-0.208,0.855,0.33,6.47,2.53,-7.75,2,3
17396.562,-0.256,0.866,0.386,8.39,8.33,-11.51,2,3
17396.578,-0.278,0.874,0.397,13.79,8.18,-12.67,2,3
17396.593,-0.268,0.897,0.376,16.75,7.2,-12.48,2,3
17396.593,-0.266,0.902,0.336,15.29,8.21,-13.49,2,3
17396.609,-0.252,0.918,0.299,10.86,9.74,-15.14,2,3
17396.625,-0.283,0.915,0.316,8.12,12.02,-16.94,2,3
17396.625,-0.299,0.908,0.318,7.02,11.02,-17.15,2,3
17396.64,-0.301,0.913,0.298,4.18,10.32,-16.79,2,3
17396.64,-0.321,0.902,0.323,0.46,10.71,-15.35,2,3
17396.656,-0.316,0.889,0.306,-3.17,9.92,-13.46,2,3
17396.671,-0.325,0.881,0.299,-7.72,11.32,-13.0,2,3
17396.687,-0.359,0.845,0.317,-9.92,11.2,-11.84,2,3
17396.687,-0.332,0.83,0.292,-11.87,10.65,-10.28,2,3
17396.703,-0.343,0.833,0.295,-14.86,12.6,-9.43,2,3
17396.703,-0.326,0.8,0.275,-15.9,15.02,-8.36,2,3
17396.718,-0.322,0.791,0.278,-16.75,19.93,-8.85,2,3
17396.734,-0.322,0.764,0.267,-14.59,26.37,-10.38,2,3
17396.734,-0.328,0.789,0.278,-13.49,30.58,-13.43,2,3
17396.75,-0.381,0.817,0.35,-10.9,31.74,-16.33,2,3
17396.765,-0.435,0.782,0.445,-2.01,23.22,-13.64,2,3
17396.765,-0.394,0.828,0.445,5.49,-0.76,-6.68,2,3
17396.781,-0.385,0.884,0.426,6.56,-6.35,-2.5,2,3
17396.796,-0.334,0.866,0.368,4.33,-7.72,4.91,2,3
17396.812,-0.329,0.83,0.361,3.78,-4.85,5.92,2,3
17396.812,-0.352,0.812,0.37,5.28,-1.92,4.79,2,3
17396.828,-0.356,0.809,0.357,8.15,-1.04,3.66,2,3
17396.843,-0.35,0.813,0.342,10.22,-0.24,2.69,2,3
17396.843,-0.36,0.824,0.338,12.02,1.53,1.68,2,3
17396.859,-0.361,0.836,0.336,13.46,2.11,0.34,2,3
17396.875,-0.356,0.845,0.328,13.86,2.41,-1.1,2,3
17396.875,-0.348,0.853,0.308,13.34,3.78,-2.04,2,3
17396.89,-0.352,0.864,0.31,11.08,5.68,-2.9,2,3
17396.906,-0.355,0.86,0.313,10.07,5.86,-3.39,2,3
17396.906,-0.347,0.877,0.304,8.94,5.13,-3.6,2,3
17396.921,-0.348,0.904,0.303,7.14,4.67,-3.91,2,3
17396.921,-0.338,0.904,0.316,5.28,3.78,-3.6,2,3
17396.937,-0.335,0.897,0.294,4.15,2.87,-4.49,2,3
17396.953,-0.378,0.93,0.318,-0.85,4.88,-2.99,2,3
17396.953,-0.363,0.891,0.378,0.24,1.8,0.98,2,3
17396.968,-0.317,0.845,0.323,0.49,-1.13,1.5,2,3
17396.968,-0.323,0.846,0.331,-2.08,0.67,-0.03,2,3
17396.984,-0.335,0.832,0.33,1.25,3.2,-0.49,2,3
17397.0,-0.35,0.849,0.324,2.56,4.61,-0.55,2,3
17397.0,-0.364,0.839,0.317,3.02,4.39,-0.52,2,3
17397.015,-0.366,0.833,0.316,2.87,3.08,0.49,2,3
17397.031,-0.366,0.837,0.313,3.3,1.56,1.19,2,3
17397.031,-0.364,0.835,0.3,4.46,0.37,1.16,2,3
17397.046,-0.364,0.838,0.295,5.58,-0.18,0.31,2,3
17397.062,-0.372,0.846,0.294,6.9,-0.31,-0.09,2,3
17397.062,-0.374,0.849,0.303,8.06,-1.13,0.46,2,3
17397.078,-0.363,0.839,0.311,9.92,-1.68,2.14,2,3
17397.093,-0.348,0.826,0.318,12.51,-1.34,4.0,2,3
17397.093,-0.344,0.827,0.326,14.13,-0.4,4.79,2,3
17397.109,-0.338,0.833,0.323,14.8,-0.37,5.1,2,3
17397.109,-0.33,0.834,0.303,15.59,-1.31,4.67,2,3
17397.125,-0.331,0.838,0.299,15.41,-2.53,2.96,2,3
17397.14,-0.344,0.848,0.313,16.69,-2.87,1.5,2,3
17397.14,-0.338,0.855,0.288,19.87,-0.82,1.98,2,3
17397.156,-0.345,0.876,0.281,19.96,-0.95,1.98,2,3
17397.171,-0.353,0.886,0.287,17.79,-2.81,1.77,2,3
17397.171,-0.355,0.9,0.291,14.95,-4.49,1.98,2,3
17397.187,-0.353,0.912,0.289,11.87,-5.95,2.04,2,3
17397.203,-0.334,0.898,0.307,8.48,-7.81,1.56,2,3
17397.203,-0.351,0.864,0.285,5.22,-12.67,-1.62,2,3
17397.218,-0.309,0.886,0.263,4.12,-10.04,0.64,2,3
17397.234,-0.314,0.904,0.277,7.6,-6.01,3.27,2,3
17397.234,-0.329,0.876,0.268,10.28,-3.3,4.85,2,3
17397.25,-0.327,0.868,0.286,9.0,-1.5,7.48,2,3
17397.25,-0.339,0.863,0.278,6.68,-2.04,7.32,2,3
17397.265,-0.339,0.878,0.29,2.5,-3.08,6.84,2,3
17397.281,-0.337,0.888,0.298,1.37,-3.78,6.01,2,3
17397.281,-0.341,0.878,0.287,1.16,-4.76,4.82,2,3
17397.296,-0.333,0.883,0.272,0.24,-6.62,4.61,2,3
17397.312,-0.289,0.879,0.212,-2.04,-7.05,4.43,2,3
17397.312,-0.28,0.828,0.245,-7.66,-3.3,2.26,2,3
17397.328,-0.36,0.884,0.282,-4.36,2.32,2.72,2,3
17397.343,-0.336,0.907,0.289,0.85,2.66,7.02,2,3
17397.343,-0.316,0.869,0.277,1.46,1.13,5.65,2,3
17397.359,-0.331,0.876,0.274,-0.89,1.98,1.77,2,3
17397.375,-0.327,0.887,0.276,-4.39,0.52,-1.01,2,3
17397.375,-0.324,0.88,0.275,-6.74,-2.26,-3.05,2,3
17397.39,-0.32,0.872,0.281,-6.16,-4.03,-3.51,2,3
17397.39,-0.314,0.86,0.279,-2.38,-4.61,-3.08,2,3
17397.406,-0.309,0.872,0.269,1.8,-4.67,-2.96,2,3
17397.421,-0.307,0.879,0.266,4.52,-3.57,-3.66,2,3
17397.421,-0.308,0.88,0.268,4.55,-1.95,-5.19,2,3
17397.437,-0.313,0.884,0.269,2.96,-0.61,-6.99,2,3
17397.453,-0.325,0.887,0.273,0.92,0.89,-8.27,2,3
17397.468,-0.339,0.887,0.286,-0.79,1.98,-8.55,2,3
17397.468,-0.355,0.885,0.294,-1.46,1.28,-8.09,2,3
17397.484,-0.354,0.903,0.292,-0.64,-2.23,-6.35,2,3
17397.5,-0.353,0.894,0.281,-0.4,-3.88,-5.37,2,3
17397.5,-0.345,0.887,0.272,-0.67,-4.39,-3.72,2,3
17397.515,-0.338,0.882,0.267,-0.06,-4.3,-1.74,2,3
17397.531,-0.337,0.886,0.265,2.66,-2.81,1.16,2,3
17397.531,-0.345,0.894,0.261,5.1,-0.73,3.63,2,3
17397.546,-0.339,0.891,0.254,4.76,0.06,4.0,2,3
17397.562,-0.338,0.892,0.262,3.63,1.16,2.99,2,3
17397.562,-0.338,0.891,0.263,3.33,3.23,2.2,2,3
17397.578,-0.346,0.9,0.269,2.38,4.12,1.71,2,3
17397.593,-0.359,0.901,0.283,-0.15,3.78,0.64,2,3
17397.593,-0.362,0.899,0.3,-3.05,1.95,-0.18,2,3
17397.609,-0.358,0.899,0.303,-4.43,-1.46,-0.73,2,3
17397.625,-0.351,0.893,0.295,-4.7,-4.36,-0.67,2,3
17397.625,-0.35,0.887,0.293,-4.82,-5.58,-0.4,2,3
17397.64,-0.354,0.88,0.294,-4.79,-5.98,-0.55,2,3
17397.656,-0.356,0.875,0.304,-4.85,-7.72,-1.37,2,3
17397.671,-0.36,0.871,0.313,-4.82,-8.21,-2.32,2,3
17397.687,-0.371,0.872,0.325,-3.97,-8.42,-3.11,2,3
17397.687,-0.395,0.885,0.34,-2.9,-9.43,-4.12,2,3
17397.703,-0.424,0.92,0.351,-3.69,-12.63,-5.4,2,3
17397.703,-0.447,0.957,0.352,-7.26,-17.37,-5.98,2,3
17397.718,-0.456,0.976,0.356,-13.73,-23.87,-5.71,2,3
17397.734,-0.446,0.973,0.363,-20.84,-30.82,-3.78,2,3
17397.734,-0.427,0.956,0.357,-24.87,-35.62,-0.89,2,3
17397.75,-0.41,0.938,0.349,-22.58,-38.18,4.39,2,3
17397.75,-0.405,0.919,0.354,-17.7,-36.87,5.28,2,3
17397.765,-0.403,0.903,0.361,-12.57,-34.67,4.82,2,3
17397.781,-0.408,0.904,0.368,-8.51,-32.72,2.84,2,3
17397.796,-0.4,0.93,0.361,-6.47,-30.92,0.24,2,3
17397.796,-0.406,0.94,0.356,-7.23,-29.36,-1.13,2,3
17397.812,-0.431,0.93,0.361,-8.82,-28.14,1.53,2,3
17397.828,-0.451,0.889,0.393,-0.37,-29.05,12.82,2,3
17397.843,-0.444,0.865,0.373,7.14,-27.28,19.87,2,3
17397.843,-0.447,0.89,0.369,12.45,-25.82,22.74,2,3
17397.859,-0.459,0.886,0.367,17.4,-21.94,22.55,2,3
17397.875,-0.486,0.892,0.36,20.26,-17.61,20.87,2,3
17397.875,-0.518,0.908,0.355,20.42,-14.25,19.65,2,3
17397.89,-0.531,0.926,0.34,18.74,-13.43,18.68,2,3
17397.89,-0.551,0.956,0.324,15.66,-12.39,17.76,2,3
17397.906,-0.575,0.972,0.308,10.04,-11.41,18.01,2,3
17397.921,-0.584,0.971,0.287,1.98,-10.38,19.07,2,3
17397.921,-0.577,0.954,0.272,-6.87,-8.82,21.33,2,3
17397.937,-0.56,0.907,0.275,-12.42,-6.1,24.51,2,3
17397.953,-0.541,0.84,0.273,-11.9,-2.75,28.41,2,3
17397.953,-0.523,0.761,0.248,-6.93,0.55,33.48,2,3
17397.968,-0.508,0.714,0.215,-1.16,4.79,37.78,2,3
17397.984,-0.474,0.671,0.177,2.29,8.76,39.8,2,3
17397.984,-0.432,0.594,0.139,3.05,10.56,40.16,2,3
17398.0,-0.395,0.541,0.113,2.44,12.79,38.09,2,3
17398.0,-0.346,0.528,0.083,1.1,14.1,32.26,2,3
17398.015,-0.317,0.534,0.045,-0.15,15.93,22.8,2,3
17398.031,-0.312,0.558,0.021,-1.31,20.33,12.05,2,3
17398.031,-0.326,0.627,0.019,-6.5,26.61,1.98,2,3
17398.046,-0.336,0.684,0.024,-16.57,30.64,-5.07,2,3
17398.062,-0.328,0.697,0.031,-28.53,32.59,-7.23,2,3
17398.062,-0.27,0.67,0.026,-38.88,33.75,-4.7,2,3
17398.078,-0.195,0.626,0.028,-45.17,34.88,-0.76,2,3
17398.093,-0.122,0.587,0.037,-45.87,37.75,1.89,2,3
17398.093,-0.071,0.566,0.057,-41.38,42.24,1.46,2,3
17398.109,-0.019,0.552,0.093,-33.88,49.35,-2.14,2,3
17398.125,0.047,0.551,0.131,-27.07,58.93,-8.27,2,3
17398.125,0.071,0.572,0.172,-20.45,70.1,-16.97,2,3
17398.14,0.064,0.596,0.209,-13.37,81.06,-27.59,2,3
17398.14,0.054,0.646,0.266,-10.16,88.23,-37.63,2,3
17398.156,0.03,0.697,0.343,-8.82,90.85,-45.44,2,3
17398.171,-0.019,0.74,0.411,-7.87,88.69,-49.01,2,3
17398.171,-0.075,0.798,0.464,-11.93,80.81,-46.51,2,3
17398.187,-0.13,0.864,0.519,-24.26,66.47,-39.98,2,3
17398.203,-0.173,0.925,0.564,-44.19,47.03,-32.38,2,3
17398.203,-0.198,0.961,0.592,-70.68,25.06,-25.7,2,3
17398.218,-0.224,0.977,0.621,-98.48,5.4,-22.8,2,3
17398.218,-0.253,0.989,0.651,-120.61,-9.28,-24.32,2,3
17398.234,-0.264,0.97,0.674,-132.36,-19.17,-27.56,2,3
17398.25,-0.261,0.933,0.699,-131.81,-24.38,-29.21,2,3
17398.25,-0.255,0.901,0.712,-119.42,-25.09,-27.71,2,3
17398.265,-0.25,0.883,0.701,-99.49,-23.53,-23.62,2,3
17398.281,-0.247,0.879,0.682,-77.88,-21.94,-18.46,2,3
17398.281,-0.271,0.863,0.725,-60.34,-20.78,-13.52,2,3
17398.296,-0.448,1.062,0.903,-46.08,-29.33,-3.63,2,3
17398.312,-0.492,1.341,0.904,-21.03,-48.68,28.63,2,3
17398.312,-0.222,1.161,0.798,-14.68,-61.74,62.23,2,3
17398.328,-0.104,1.028,0.69,-39.58,-64.36,58.05,2,3
17398.343,-0.12,0.969,0.621,-58.2,-55.21,44.8,2,3
17398.343,-0.126,0.859,0.624,-60.03,-41.54,37.48,2,3
17398.359,-0.141,0.807,0.649,-52.71,-31.25,31.28,2,3
17398.359,-0.157,0.783,0.661,-41.72,-24.32,25.51,2,3
17398.375,-0.176,0.767,0.655,-31.86,-21.61,19.07,2,3
17398.39,-0.183,0.749,0.643,-24.02,-21.52,13.18,2,3
17398.39,-0.188,0.728,0.626,-16.66,-21.49,8.94,2,3
17398.406,-0.198,0.698,0.614,-10.8,-20.87,6.1,2,3
17398.421,-0.195,0.709,0.62,-7.6,-19.71,3.39,2,3
17398.421,-0.188,0.731,0.625,-4.12,-17.7,0.46,2,3
17398.437,-0.158,0.73,0.609,0.34,-13.25,0.24,2,3
17398.453,-0.201,0.687,0.591,8.09,-5.43,-0.15,2,3
17398.453,-0.227,0.751,0.632,2.69,-4.46,-1.19,2,3
17398.468,-0.196,0.792,0.644,-7.17,-4.24,-0.37,2,3
17398.484,-0.238,0.783,0.63,-15.87,-4.52,0.4,2,3
17398.5,-0.239,0.786,0.627,-39.95,-9.8,4.06,2,3
17398.5,-0.236,0.757,0.617,-45.87,-10.93,5.49,2,3
17398.515,-0.23,0.727,0.615,-46.85,-9.67,6.23,2,3
17398.531,-0.225,0.706,0.606,-44.07,-6.71,5.01,2,3
17398.531,-0.216,0.703,0.599,-40.35,-2.78,2.66,2,3
17398.546,-0.219,0.7,0.599,-37.26,1.59,0.55,2,3
17398.562,-0.221,0.72,0.62,-36.35,6.26,-0.85,2,3
17398.562,-0.24,0.756,0.648,-36.35,10.01,-1.68,2,3
17398.578,-0.265,0.763,0.671,-36.16,11.32,-1.46,2,3
17398.593,-0.278,0.746,0.675,-35.25,10.9,-0.89,2,3
17398.593,-0.279,0.731,0.676,-34.3,10.41,-0.92,2,3
17398.609,-0.278,0.71,0.675,-32.01,9.8,-2.04,2,3
17398.625,-0.279,0.684,0.665,-27.62,8.67,-3.72,2,3
17398.625,-0.274,0.671,0.656,-22.03,8.18,-5.62,2,3
17398.64,-0.271,0.674,0.647,-15.99,8.67,-7.63,2,3
17398.64,-0.278,0.676,0.638,-11.02,9.64,-9.0,2,3
17398.671,-0.289,0.688,0.622,-9.61,9.74,-9.67,2,3
17398.671,-0.295,0.688,0.619,-11.2,9.19,-9.37,2,3
17398.687,-0.303,0.678,0.631,-13.34,8.55,-7.97,2,3
17398.703,-0.314,0.669,0.645,-14.37,7.6,-6.32,2,3
17398.703,-0.315,0.648,0.645,-13.89,5.65,-5.01,2,3
17398.718,-0.315,0.627,0.649,-12.88,3.72,-4.09,2,3
17398.734,-0.316,0.613,0.648,-5.4,1.62,-5.52,2,3
17398.734,-0.315,0.604,0.647,-0.31,0.82,-6.07,2,3
17398.75,-0.324,0.615,0.653,4.21,-0.31,-5.77,2,3
17398.765,-0.328,0.631,0.649,7.08,-1.46,-5.1,2,3
17398.765,-0.322,0.669,0.626,7.84,-2.23,-4.46,2,3
17398.781,-0.322,0.679,0.62,7.9,-2.29,-3.57,2,3
17398.781,-0.321,0.681,0.619,7.17,-2.11,-2.11,2,3
17398.796,-0.314,0.682,0.621,5.49,-2.35,-0.89,2,3
17398.812,-0.31,0.682,0.625,3.85,-2.47,-0.18,2,3
17398.812,-0.308,0.672,0.629,3.33,-2.35,0.03,2,3
17398.843,-0.306,0.681,0.645,2.75,-2.81,-0.06,2,3
17398.843,-0.308,0.689,0.644,2.87,-3.63,-0.06,2,3
17398.859,-0.307,0.693,0.643,2.17,-4.3,0.21,2,3
17398.859,-0.302,0.691,0.641,1.01,-4.67,0.43,2,3
17398.875,-0.296,0.692,0.642,-0.7,-4.82,0.27,2,3
17398.89,-0.291,0.692,0.645,-2.32,-4.39,-0.06,2,3
17398.89,-0.287,0.69,0.648,-3.2,-3.91,-0.49,2,3
17398.906,-0.283,0.691,0.652,-3.94,-3.05,-0.58,2,3
17398.921,-0.279,0.687,0.66,-4.33,-2.08,-0.27,2,3
17398.921,-0.277,0.68,0.667,-4.43,-1.25,-0.18,2,3
17398.937,-0.276,0.675,0.671,-4.39,-0.89,-0.64,2,3
17398.953,-0.274,0.671,0.676,-4.33,-0.82,-1.07,2,3
17398.953,-0.274,0.67,0.678,-3.66,-0.7,-1.5,2,3
17398.968,-0.274,0.668,0.683,-2.72,-0.37,-1.92,2,3
17398.984,-0.281,0.667,0.685,-1.92,-0.18,-2.29,2,3
17398.984,-0.281,0.675,0.678,-1.71,-0.76,-2.2,2,3
17399.0,-0.274,0.676,0.673,-2.08,-0.92,-1.95,2,3
17399.0,-0.272,0.673,0.665,-2.62,-0.09,-1.68,2,3
17399.015,-0.275,0.672,0.667,-3.72,0.82,-1.16,2,3
17399.031,-0.279,0.669,0.67,-5.1,1.25,-0.55,2,3
17399.031,-0.279,0.66,0.67,-6.38,1.43,-0.09,2,3
17399.046,-0.281,0.651,0.678,-6.87,1.46,0.12,2,3
17399.062,-0.284,0.646,0.679,-6.44,1.13,-0.03,2,3
17399.062,-0.284,0.643,0.678,-5.01,0.49,-0.15,2,3
17399.078,-0.285,0.639,0.677,-2.78,-0.03,-0.52,2,3
17399.078,-0.286,0.64,0.672,0.0,-0.46,-0.95,2,3
17399.093,-0.288,0.647,0.668,2.59,-0.61,-1.34,2,3
17399.109,-0.288,0.658,0.664,4.03,-0.52,-1.5,2,3
17399.125,-0.29,0.664,0.664,4.49,-0.43,-1.37,2,3
17399.125,-0.293,0.669,0.66,4.06,-0.4,-0.89,2,3
17399.14,-0.291,0.67,0.657,3.17,-0.58,-0.43,2,3
17399.14,-0.294,0.675,0.659,2.17,-0.61,-0.34,2,3
17399.156,-0.296,0.678,0.659,1.25,-1.01,-0.27,2,3
17399.171,-0.294,0.672,0.655,0.79,-1.37,-0.37,2,3
17399.171,-0.294,0.671,0.649,0.67,-1.5,-0.37,2,3
17399.187,-0.294,0.672,0.648,0.37,-1.53,-0.34,2,3
17399.203,-0.295,0.674,0.652,-0.06,-1.37,-0.52,2,3
17399.218,-0.299,0.675,0.651,-0.76,-1.25,-0.7,2,3
17399.218,-0.299,0.675,0.652,-1.77,-1.5,-0.67,2,3
17399.234,-0.298,0.672,0.651,-2.41,-1.62,-0.46,2,3
17399.234,-0.296,0.667,0.652,-2.53,-1.37,-0.15,2,3
17399.25,-0.296,0.664,0.654,-2.2,-0.98,-0.09,2,3
17399.25,-0.298,0.661,0.656,-1.71,-0.85,-0.31,2,3
17399.265,-0.299,0.662,0.659,-1.43,-1.07,-0.43,2,3
17399.281,-0.298,0.664,0.659,-1.01,-1.4,-0.64,2,3
17399.296,-0.299,0.663,0.657,-0.55,-1.71,-0.76,2,3
17399.296,-0.298,0.664,0.655,0.0,-1.62,-0.89,2,3
17399.312,-0.296,0.67,0.655,0.06,-1.37,-1.19,2,3
17399.312,-0.296,0.673,0.654,-0.03,-1.07,-1.43,2,3
17399.328,-0.295,0.671,0.653,-0.61,-0.79,-1.28,2,3
17399.343,-0.295,0.672,0.658,-1.62,-0.55,-1.37,2,3
17399.343,-0.299,0.671,0.666,-2.44,-0.64,-1.37,2,3
17399.359,-0.3,0.666,0.665,-2.96,-1.37,-1.16,2,3
17399.375,-0.294,0.666,0.664,-3.14,-1.92,-1.16,2,3
17399.375,-0.294,0.666,0.66,-2.96,-1.71,-1.31,2,3
17399.39,-0.299,0.663,0.66,-2.59,-1.34,-1.37,2,3
17399.39,-0.296,0.663,0.66,-2.66,-1.37,-1.5,2,3
17399.406,-0.295,0.663,0.659,-2.62,-1.31,-1.43,2,3
17399.421,-0.298,0.658,0.659,-2.47,-1.19,-1.28,2,3
17399.421,-0.298,0.653,0.66,-2.29,-1.43,-1.1,2,3
17399.437,-0.297,0.654,0.661,-1.83,-1.86,-1.1,2,3
17399.453,-0.297,0.66,0.662,-1.46,-1.92,-1.19,2,3
17399.453,-0.295,0.66,0.662,-1.19,-1.92,-0.98,2,3
17399.468,-0.293,0.661,0.662,-1.4,-1.53,-0.98,2,3
17399.484,-0.294,0.662,0.667,-1.62,-1.13,-1.07,2,3
17399.484,-0.295,0.663,0.668,-1.71,-0.55,-1.04,2,3
17399.5,-0.296,0.663,0.674,-1.95,-0.24,-0.82,2,3
17399.515,-0.296,0.658,0.675,-1.83,-0.24,-0.61,2,3
17399.515,-0.3,0.656,0.673,-1.31,-0.52,-0.7,2,3
17399.531,-0.298,0.654,0.668,-0.58,-0.64,-0.89,2,3
17399.531,-0.296,0.653,0.664,0.37,-0.64,-1.16,2,3
17399.546,-0.297,0.655,0.663,1.19,-0.46,-1.43,2,3
17399.562,-0.301,0.66,0.659,1.5,-0.58,-1.62,2,3
17399.562,-0.298,0.666,0.658,0.85,-0.64,-1.56,2,3
17399.578,-0.295,0.666,0.655,-0.27,-0.67,-1.25,2,3
17399.593,-0.295,0.665,0.66,-1.92,-0.52,-0.85,2,3
17399.593,-0.298,0.662,0.666,-3.2,-0.34,-0.52,2,3
17399.609,-0.299,0.657,0.664,-3.6,-0.55,-0.24,2,3
17399.625,-0.297,0.653,0.666,-3.36,-0.89,-0.12,2,3
17399.625,-0.295,0.654,0.669,-2.41,-0.7,-0.18,2,3
17399.64,-0.299,0.654,0.672,-1.19,-0.34,-0.27,2,3
17399.64,-0.299,0.656,0.673,-0.43,-0.37,-0.34,2,3
17399.656,-0.297,0.656,0.671,0.12,-0.49,-0.18,2,3
17399.671,-0.298,0.657,0.667,0.18,-0.64,-0.18,2,3
17399.671,-0.295,0.659,0.662,-0.09,-0.61,-0.18,2,3
17399.687,-0.293,0.661,0.664,-0.61,-0.58,-0.37,2,3
17399.703,-0.294,0.662,0.663,-1.22,-0.4,-0.58,2,3
17399.703,-0.296,0.661,0.665,-1.89,-0.34,-0.67,2,3
17399.718,-0.3,0.664,0.67,-2.81,-0.73,-0.79,2,3
17399.734,-0.304,0.665,0.672,-2.84,-0.89,-0.95,2,3
17399.734,-0.302,0.66,0.665,-2.75,-0.49,-1.13,2,3
17399.75,-0.305,0.659,0.665,-2.11,0.18,-1.25,2,3
17399.75,-0.306,0.654,0.662,-1.65,0.58,-1.43,2,3
17399.765,-0.302,0.649,0.659,-1.56,0.89,-1.43,2,3
17399.781,-0.302,0.645,0.658,-1.43,1.31,-1.59,2,3
17399.781,-0.307,0.641,0.662,-1.22,1.5,-1.59,2,3
17399.796,-0.314,0.642,0.669,-1.04,0.73,-1.53,2,3
17399.812,-0.311,0.644,0.665,-0.27,-0.64,-1.25,2,3
17399.828,-0.304,0.65,0.662,0.31,-1.5,-0.92,2,3
17399.828,-0.299,0.659,0.666,0.18,-1.4,-0.64,2,3
17399.843,-0.299,0.662,0.669,-0.49,-1.01,-0.4,2,3
17399.843,-0.298,0.662,0.671,-1.98,-0.64,-0.18,2,3
17399.859,-0.313,0.673,0.684,-3.63,-0.34,-0.12,2,3
17399.875,-0.298,0.66,0.675,-4.12,-0.43,0.55,2,3
17399.875,-0.295,0.657,0.674,-4.21,0.89,0.58,2,3
17399.89,-0.306,0.656,0.681,-3.39,2.04,0.34,2,3
17399.89,-0.298,0.645,0.677,-2.44,2.53,0.0,2,3
17399.906,-0.304,0.644,0.681,-1.68,2.69,-0.52,2,3
17399.921,-0.297,0.636,0.672,-0.85,1.5,-0.61,2,3
17399.921,-0.281,0.636,0.661,-0.73,0.34,-1.16,2,3
17399.937,-0.284,0.644,0.662,-0.95,-0.52,-1.43,2,3
17399.953,-0.279,0.652,0.662,-1.98,-1.83,-1.34,2,3
17399.953,-0.277,0.662,0.676,-3.81,-3.36,-1.13,2,3
17399.968,-0.285,0.663,0.703,-3.72,-4.64,-0.31,2,3
17399.984,-0.281,0.648,0.741,-0.4,-5.1,1.37,2,3
17399.984,-0.275,0.627,0.767,5.8,-5.62,2.11,2,3
17400.0,-0.268,0.607,0.769,13.09,-6.04,0.49,2,3
17400.015,-0.269,0.595,0.764,20.84,-5.68,-3.45,2,3
17400.015,-0.278,0.59,0.748,29.66,-5.01,-7.39,2,3
17400.031,-0.295,0.601,0.716,37.54,-4.39,-10.68,2,3
17400.046,-0.307,0.629,0.679,42.82,-3.88,-12.73,2,3
17400.046,-0.314,0.657,0.642,45.05,-3.14,-13.52,2,3
17400.062,-0.32,0.676,0.603,44.95,-1.46,-13.09,2,3
17400.062,-0.331,0.698,0.584,41.84,0.85,-11.81,2,3
17400.078,-0.346,0.727,0.587,36.62,2.81,-9.43,2,3
17400.093,-0.373,0.75,0.613,31.71,3.72,-5.77,2,3
17400.093,-0.388,0.754,0.634,29.02,3.3,-0.64,2,3
17400.109,-0.387,0.747,0.635,27.07,2.53,4.73,2,3
17400.125,-0.386,0.738,0.631,24.2,1.92,8.48,2,3
17400.125,-0.381,0.722,0.62,21.3,1.68,9.98,2,3
17400.14,-0.384,0.702,0.607,19.2,2.26,9.58,2,3
17400.14,-0.391,0.699,0.604,17.76,2.44,8.85,2,3
17400.156,-0.407,0.714,0.62,16.82,1.25,8.39,2,3
17400.171,-0.426,0.69,0.624,16.21,-1.68,8.58,2,3
17400.171,-0.447,0.692,0.643,10.9,-7.69,8.09,2,3
17400.187,-0.433,0.704,0.641,6.87,-15.81,8.24,2,3
17400.203,-0.442,0.681,0.614,7.66,-25.54,12.94,2,3
17400.218,-0.424,0.706,0.612,4.43,-28.35,14.59,2,3
17400.234,-0.416,0.708,0.6,3.97,-28.81,16.42,2,3
17400.234,-0.397,0.698,0.577,4.03,-27.13,18.4,2,3
17400.25,-0.388,0.694,0.564,3.23,-23.26,17.98,2,3
17400.265,-0.399,0.681,0.563,4.3,-18.16,15.56,2,3
17400.265,-0.416,0.672,0.564,8.09,-13.67,13.28,2,3
17400.281,-0.43,0.675,0.562,14.04,-10.25,11.41,2,3
17400.296,-0.447,0.682,0.555,21.03,-7.75,10.1,2,3
17400.296,-0.454,0.683,0.546,27.71,-6.32,9.61,2,3
17400.312,-0.448,0.685,0.529,33.14,-5.46,9.31,2,3
17400.312,-0.433,0.68,0.502,37.2,-3.45,8.94,2,3
17400.328,-0.412,0.669,0.467,39.58,-0.49,8.51,2,3
17400.343,-0.382,0.657,0.436,40.35,4.06,8.18,2,3
17400.343,-0.366,0.647,0.429,39.77,10.44,7.72,2,3
17400.359,-0.36,0.635,0.425,39.31,17.21,6.87,2,3
17400.375,-0.358,0.607,0.422,38.82,23.74,4.94,2,3
17400.375,-0.367,0.612,0.432,37.72,30.03,2.99,2,3
17400.39,-0.378,0.621,0.446,38.09,34.85,1.46,2,3
17400.406,-0.374,0.627,0.454,39.0,37.17,-1.01,2,3
17400.406,-0.383,0.625,0.446,39.7,38.45,-4.24,2,3
17400.421,-0.37,0.618,0.432,39.52,39.4,-6.68,2,3
17400.421,-0.353,0.615,0.418,38.54,40.77,-9.61,2,3
17400.437,-0.325,0.617,0.404,36.87,42.94,-13.73,2,3
17400.453,-0.299,0.613,0.404,33.33,46.78,-18.95,2,3
17400.453,-0.28,0.61,0.417,28.69,51.88,-23.53,2,3
17400.468,-0.273,0.604,0.433,24.6,57.56,-27.31,2,3
17400.484,-0.277,0.601,0.443,21.27,63.14,-31.07,2,3
17400.484,-0.281,0.598,0.451,18.65,67.45,-35.31,2,3
17400.5,-0.289,0.602,0.463,16.05,69.83,-40.96,2,3
17400.515,-0.307,0.598,0.479,15.02,70.31,-47.55,2,3
17400.515,-0.322,0.6,0.488,15.44,68.94,-53.8,2,3
17400.531,-0.329,0.605,0.491,16.08,66.29,-60.61,2,3
17400.531,-0.337,0.602,0.487,16.91,63.02,-68.7,2,3
17400.546,-0.347,0.6,0.481,18.1,60.0,-76.75,2,3
17400.562,-0.356,0.599,0.473,20.57,57.28,-83.96,2,3
17400.562,-0.367,0.606,0.465,24.51,55.45,-90.43,2,3
17400.578,-0.376,0.624,0.456,29.36,54.9,-96.04,2,3
17400.593,-0.386,0.643,0.444,34.91,55.48,-101.05,2,3
17400.609,-0.392,0.655,0.424,40.83,57.56,-105.47,2,3
17400.609,-0.405,0.657,0.393,45.78,61.43,-109.84,2,3
17400.625,-0.424,0.652,0.366,48.43,66.19,-113.86,2,3
17400.625,-0.449,0.648,0.364,48.04,70.22,-117.44,2,3
17400.64,-0.478,0.637,0.355,45.93,72.76,-119.94,2,3
17400.64,-0.52,0.619,0.357,42.54,72.82,-121.28,2,3
17400.656,-0.565,0.6,0.366,40.1,69.09,-120.33,2,3
17400.671,-0.604,0.587,0.37,39.4,61.71,-117.4,2,3
17400.671,-0.635,0.597,0.373,39.49,52.1,-114.23,2,3
17400.687,-0.652,0.608,0.365,38.85,41.26,-112.61,2,3
17400.703,-0.694,0.643,0.325,19.44,10.25,-110.54,2,3
17400.718,-0.693,0.675,0.293,2.81,3.63,-109.29,2,3
17400.734,-0.68,0.672,0.264,-16.66,0.34,-107.79,2,3
17400.734,-0.696,0.62,0.241,-37.63,-2.08,-105.56,2,3
17400.75,-0.714,0.569,0.269,-55.73,-5.22,-103.12,2,3
17400.75,-0.743,0.516,0.29,-66.07,-8.55,-99.25,2,3
17400.765,-0.763,0.475,0.297,-70.07,-11.41,-94.52,2,3
17400.781,-0.785,0.465,0.324,-69.77,-12.09,-92.53,2,3
17400.781,-0.827,0.452,0.344,-64.64,-12.12,-92.99,2,3
17400.796,-0.863,0.464,0.36,-56.55,-11.38,-94.52,2,3
17400.812,-0.881,0.477,0.363,-46.91,-9.98,-96.87,2,3
17400.828,-0.889,0.457,0.36,-36.26,-7.93,-99.09,2,3
17400.828,-0.906,0.452,0.362,-25.42,-4.12,-100.19,2,3
17400.843,-0.92,0.449,0.356,-14.22,0.92,-101.05,2,3
17400.843,-0.928,0.434,0.345,-3.45,6.93,-103.4,2,3
17400.859,-0.94,0.411,0.332,6.44,13.98,-106.75,2,3
17400.875,-0.969,0.364,0.303,23.26,30.52,-116.03,2,3
17400.89,-0.987,0.341,0.287,30.95,40.62,-121.62,2,3
17400.906,-1.008,0.324,0.27,37.72,52.4,-127.32,2,3
17400.906,-1.032,0.315,0.249,42.7,65.58,-133.52,2,3
17400.921,-1.064,0.309,0.227,45.56,79.44,-140.51,2,3
17400.921,-1.101,0.297,0.211,47.24,93.75,-147.13,2,3
17400.937,-1.141,0.283,0.189,48.28,107.82,-153.14,2,3
17400.953,-1.178,0.27,0.158,48.07,120.37,-158.6,2,3
17400.953,-1.22,0.258,0.137,46.63,131.05,-162.76,2,3
17400.968,-1.256,0.244,0.11,44.77,139.65,-164.83,2,3
17400.984,-1.283,0.237,0.092,41.29,145.54,-165.01,2,3
17400.984,-1.31,0.239,0.078,36.13,148.41,-163.34,2,3
17401.0,-1.323,0.232,0.055,30.27,149.3,-159.58,2,3
17401.0,-1.324,0.225,0.043,24.29,148.38,-154.15,2,3
17401.015,-1.316,0.221,0.035,18.74,145.97,-147.04,2,3
17401.031,-1.301,0.221,0.029,13.25,142.12,-138.8,2,3
17401.031,-1.281,0.22,0.024,7.35,136.72,-129.55,2,3
17401.046,-1.256,0.215,0.022,1.04,129.76,-119.63,2,3
17401.062,-1.239,0.202,0.015,-5.46,121.59,-109.44,2,3
17401.062,-1.224,0.196,0.009,-12.02,112.25,-99.22,2,3
17401.078,-1.206,0.187,0.006,-18.56,100.83,-89.51,2,3
17401.093,-1.173,0.171,0.004,-24.93,88.32,-80.66,2,3
17401.109,-1.14,0.154,-0.005,-30.61,76.17,-72.76,2,3
17401.109,-1.102,0.145,-0.016,-36.38,64.76,-65.55,2,3
17401.125,-1.063,0.136,-0.023,-42.48,54.35,-59.76,2,3
17401.125,-1.021,0.118,-0.034,-48.31,44.92,-55.15,2,3
17401.14,-0.991,0.104,-0.052,-54.29,37.48,-50.51,2,3
17401.156,-0.969,0.087,-0.072,-59.48,32.62,-45.29,2,3
17401.156,-0.952,0.057,-0.095,-63.11,29.33,-39.06,2,3
17401.171,-0.944,0.026,-0.098,-64.76,27.38,-32.26,2,3
17401.187,-0.932,0.009,-0.086,-65.03,25.57,-25.54,2,3
17401.187,-0.92,-0.01,-0.072,-62.69,24.51,-19.93,2,3
17401.203,-0.923,-0.06,-0.021,-45.2,20.78,-9.89,2,3
17401.218,-0.915,-0.065,-0.018,-32.17,17.79,-6.59,2,3
17401.234,-0.915,-0.057,-0.028,-18.86,15.17,-5.01,2,3
17401.234,-0.924,-0.052,-0.039,-6.01,11.87,-4.91,2,3
17401.25,-0.923,-0.038,-0.051,5.28,7.63,-5.28,2,3
17401.25,-0.917,-0.027,-0.063,14.47,3.02,-5.16,2,3
17401.265,-0.922,-0.03,-0.085,21.67,-1.43,-3.2,2,3
17401.281,-0.916,-0.026,-0.101,26.61,-5.95,-0.09,2,3
17401.281,-0.902,-0.017,-0.118,29.3,-10.07,2.59,2,3
17401.296,-0.907,-0.008,-0.126,29.73,-13.49,4.36,2,3
17401.312,-0.914,-0.02,-0.135,28.53,-16.3,6.38,2,3
17401.312,-0.923,-0.033,-0.145,26.15,-18.16,8.67,2,3
17401.328,-0.93,-0.032,-0.15,22.92,-19.53,10.56,2,3
17401.343,-0.945,-0.032,-0.158,19.44,-20.75,10.93,2,3
17401.343,-0.98,-0.033,-0.163,15.05,-22.49,10.16,2,3
17401.359,-1.01,-0.029,-0.159,10.07,-24.81,9.09,2,3
17401.375,-1.048,-0.027,-0.151,5.77,-26.98,8.15,2,3
17401.375,-1.078,-0.036,-0.147,3.2,-29.91,8.27,2,3
17401.39,-1.074,-0.046,-0.147,2.99,-34.33,10.07,2,3
17401.39,-1.048,-0.062,-0.151,5.25,-38.97,13.46,2,3
17401.406,-1.03,-0.08,-0.157,9.83,-43.15,17.76,2,3
17401.421,-0.999,-0.092,-0.157,15.5,-47.24,22.28,2,3
17401.421,-0.952,-0.117,-0.163,22.19,-50.51,27.38,2,3
17401.437,-0.927,-0.171,-0.175,30.4,-50.84,33.2,2,3
17401.453,-0.905,-0.205,-0.175,37.57,-49.59,38.15,2,3
17401.468,-0.871,-0.231,-0.169,43.89,-46.63,41.11,2,3
17401.468,-0.836,-0.261,-0.177,49.1,-40.59,41.38,2,3
17401.484,-0.806,-0.279,-0.179,50.94,-32.47,38.94,2,3
17401.484,-0.774,-0.29,-0.172,48.34,-23.87,34.36,2,3
17401.5,-0.75,-0.308,-0.167,42.21,-15.17,27.56,2,3
17401.5,-0.731,-0.324,-0.157,34.24,-7.29,18.49,2,3
17401.515,-0.715,-0.327,-0.144,25.79,-1.01,7.57,2,3
17401.531,-0.715,-0.333,-0.139,18.22,4.36,-4.12,2,3
17401.531,-0.732,-0.346,-0.143,11.84,9.19,-14.95,2,3
17401.546,-0.762,-0.337,-0.146,6.38,12.54,-24.6,2,3
17401.562,-0.794,-0.307,-0.143,2.29,13.52,-33.36,2,3
17401.562,-0.83,-0.269,-0.139,-0.64,13.09,-41.51,2,3
17401.578,-0.867,-0.228,-0.136,-3.51,12.05,-47.88,2,3
17401.593,-0.909,-0.186,-0.134,-6.32,11.41,-51.94,2,3
17401.593,-0.958,-0.153,-0.138,-7.35,11.38,-53.1,2,3
17401.609,-1.011,-0.139,-0.144,-6.81,12.09,-50.81,2,3
17401.625,-1.059,-0.129,-0.153,-5.16,13.43,-45.75,2,3
17401.625,-1.098,-0.114,-0.158,-3.11,14.8,-39.7,2,3
17401.64,-1.127,-0.1,-0.157,-1.86,16.79,-33.66,2,3
17401.64,-1.149,-0.1,-0.155,-1.95,20.54,-27.77,2,3
17401.656,-1.161,-0.094,-0.145,-3.91,25.67,-22.64,2,3
17401.671,-1.157,-0.075,-0.127,-7.66,31.86,-19.29,2,3
17401.671,-1.154,-0.065,-0.108,-13.03,38.24,-18.16,2,3
17401.687,-1.147,-0.061,-0.085,-28.44,46.78,-19.71,2,3
17401.703,-1.123,-0.05,-0.062,-34.52,48.22,-20.11,2,3
17401.703,-1.089,-0.045,-0.036,-38.27,47.27,-18.89,2,3
17401.718,-1.023,-0.042,-0.01,-39.16,44.19,-15.69,2,3
17401.734,-0.993,-0.034,-0.002,-37.29,39.25,-11.35,2,3
17401.734,-0.968,-0.024,0.003,-33.54,33.54,-6.38,2,3
17401.75,-0.957,-0.006,0.007,-29.27,27.19,-1.28,2,3
17401.75,-0.952,0.017,0.009,-25.24,20.29,3.6,2,3
17401.765,-0.951,0.03,0.007,-22.1,13.49,8.67,2,3
17401.781,-0.957,0.037,-0.0,-20.02,6.87,14.37,2,3
17401.781,-0.97,0.043,-0.008,-18.68,0.15,20.42,2,3
17401.796,-0.984,0.043,-0.014,-17.64,-6.96,26.22,2,3
17401.812,-0.999,0.034,-0.021,-16.54,-13.82,32.14,2,3
17401.828,-1.013,0.024,-0.034,-15.26,-20.26,37.63,2,3
17401.828,-1.023,0.001,-0.041,-13.92,-26.18,43.15,2,3
17401.843,-1.022,-0.043,-0.044,-11.9,-30.37,49.17,2,3
17401.843,-1.003,-0.068,-0.049,-8.58,-32.72,53.47,2,3
17401.859,-0.981,-0.071,-0.059,-4.24,-33.48,54.81,2,3
17401.875,-0.966,-0.066,-0.067,-0.89,-32.07,53.56,2,3
17401.875,-0.954,-0.056,-0.069,0.61,-29.11,50.63,2,3
17401.89,-0.945,-0.038,-0.076,1.04,-25.82,47.09,2,3
17401.89,-0.944,-0.019,-0.087,0.64,-22.64,43.64,2,3
17401.906,-0.95,0.003,-0.092,-0.27,-20.05,41.29,2,3
17401.921,-0.962,0.025,-0.095,-1.5,-18.25,40.01,2,3
17401.921,-0.983,0.04,-0.096,-2.53,-16.75,39.8,2,3
17401.937,-1.004,0.047,-0.096,-3.17,-16.42,41.08,2,3
17401.953,-1.022,0.061,-0.094,-3.51,-16.66,43.52,2,3
17401.968,-1.031,0.081,-0.092,-3.72,-17.0,46.57,2,3
17401.968,-1.048,0.094,-0.091,-4.18,-18.34,49.68,2,3
17401.984,-1.064,0.092,-0.089,-4.91,-20.91,52.89,2,3
17401.984,-1.07,0.081,-0.092,-4.94,-24.69,56.98,2,3
17402.0,-1.071,0.065,-0.093,-3.57,-28.47,61.95,2,3
17402.015,-1.071,0.043,-0.097,-0.73,-31.53,67.35,2,3
17402.015,-1.06,0.018,-0.105,3.48,-33.88,73.06,2,3
17402.031,-1.046,-0.005,-0.113,8.58,-35.19,77.85,2,3
17402.031,-1.038,-0.027,-0.121,13.92,-35.19,80.66,2,3
17402.046,-1.033,-0.042,-0.128,18.71,-34.15,81.42,2,3
17402.062,-1.024,-0.056,-0.137,22.43,-32.65,80.78,2,3
17402.062,-1.013,-0.066,-0.143,24.69,-30.3,79.01,2,3
17402.078,-1.002,-0.074,-0.148,25.42,-27.53,76.24,2,3
17402.093,-0.996,-0.082,-0.151,25.36,-24.32,72.54,2,3
17402.093,-0.991,-0.087,-0.15,24.54,-20.66,68.21,2,3
17402.109,-0.982,-0.095,-0.15,22.74,-16.91,63.57,2,3
17402.125,-0.972,-0.1,-0.145,20.17,-12.7,58.38,2,3
17402.125,-0.968,-0.103,-0.139,17.0,-8.45,52.83,2,3
17402.14,-0.964,-0.105,-0.132,13.73,-4.39,47.12,2,3
17402.14,-0.955,-0.108,-0.125,10.62,-0.7,41.35,2,3
17402.156,-0.954,-0.108,-0.114,7.9,2.29,35.77,2,3
17402.171,-0.954,-0.112,-0.103,5.83,4.7,30.34,2,3
17402.187,-0.956,-0.114,-0.092,4.36,6.38,25.12,2,3
17402.187,-0.961,-0.117,-0.083,3.75,6.99,20.2,2,3
17402.203,-0.966,-0.12,-0.075,3.85,7.08,15.35,2,3
17402.203,-0.969,-0.118,-0.068,4.58,6.5,10.74,2,3
17402.218,-0.971,-0.118,-0.062,5.74,5.83,5.98,2,3
17402.234,-0.976,-0.115,-0.062,6.87,4.79,1.34,2,3
17402.234,-0.974,-0.107,-0.065,8.21,3.54,-3.17,2,3
17402.25,-0.975,-0.099,-0.069,9.09,2.04,-7.75,2,3
17402.25,-0.975,-0.088,-0.074,9.4,0.67,-11.9,2,3
17402.265,-0.968,-0.076,-0.08,9.09,-0.18,-15.53,2,3
17402.281,-0.962,-0.067,-0.083,8.12,-0.49,-19.26,2,3
17402.281,-0.963,-0.06,-0.088,6.59,-0.06,-22.71,2,3
17402.296,-0.962,-0.056,-0.089,4.67,0.55,-25.94,2,3
17402.312,-0.961,-0.051,-0.085,2.62,1.25,-28.96,2,3
17402.312,-0.965,-0.052,-0.083,0.89,2.11,-32.11,2,3
17402.328,-0.968,-0.052,-0.076,-0.58,2.93,-35.22,2,3
17402.343,-0.973,-0.051,-0.072,-1.56,3.72,-38.18,2,3
17402.343,-0.979,-0.05,-0.068,-1.92,4.39,-41.17,2,3
17402.359,-0.983,-0.047,-0.066,-1.92,4.88,-44.19,2,3
17402.359,-0.989,-0.039,-0.065,-1.65,5.13,-46.88,2,3
17402.375,-0.994,-0.033,-0.064,-1.28,5.31,-49.13,2,3
17402.39,-0.999,-0.028,-0.063,-0.76,5.22,-50.97,2,3
17402.39,-1.003,-0.024,-0.066,-0.09,4.7,-52.28,2,3
17402.406,-1.008,-0.022,-0.071,0.95,3.81,-52.98,2,3
17402.421,-1.012,-0.016,-0.074,1.98,2.81,-53.62,2,3
17402.421,-1.014,-0.009,-0.081,2.69,1.74,-54.29,2,3
17402.437,-1.019,0.0,-0.089,2.84,0.85,-54.75,2,3
17402.453,-1.023,0.007,-0.097,2.29,-0.06,-54.81,2,3
17402.453,-1.02,0.013,-0.102,1.19,-0.79,-54.72,2,3
17402.468,-1.022,0.014,-0.106,-0.27,-1.01,-54.45,2,3
17402.484,-1.022,0.017,-0.114,-1.74,-1.07,-54.2,2,3
17402.484,-1.021,0.019,-0.116,-3.05,-0.98,-54.02,2,3
17402.5,-1.02,0.021,-0.119,-4.18,-0.58,-53.9,2,3
17402.5,-1.02,0.025,-0.121,-5.34,0.24,-53.53,2,3
17402.515,-1.02,0.032,-0.123,-6.5,1.46,-52.92,2,3
17402.531,-1.021,0.037,-0.118,-7.69,3.05,-51.85,2,3
17402.546,-1.022,0.038,-0.11,-8.61,5.28,-50.63,2,3
17402.546,-1.025,0.037,-0.101,-8.73,7.54,-49.23,2,3
17402.562,-1.029,0.034,-0.092,-7.93,9.19,-47.58,2,3
17402.562,-1.029,0.033,-0.087,-6.23,10.1,-45.56,2,3
17402.578,-1.027,0.033,-0.082,-4.27,10.38,-43.49,2,3
17402.593,-1.027,0.03,-0.077,-1.59,10.25,-41.08,2,3
17402.593,-1.027,0.024,-0.074,1.31,9.8,-38.76,2,3
17402.609,-1.028,0.023,-0.075,4.18,8.94,-36.56,2,3
17402.609,-1.027,0.026,-0.076,6.47,7.72,-34.46,2,3
17402.625,-1.027,0.03,-0.081,7.93,6.59,-32.53,2,3
17402.64,-1.026,0.033,-0.084,8.79,5.68,-30.27,2,3
17402.656,-1.025,0.035,-0.088,9.03,4.67,-27.92,2,3
17402.656,-1.022,0.038,-0.089,9.03,3.51,-25.36,2,3
17402.671,-1.02,0.035,-0.094,8.82,1.68,-20.26,2,3
17402.671,-1.016,0.037,-0.101,8.88,0.85,-17.3,2,3
17402.687,-1.008,0.036,-0.104,9.06,0.24,-14.22,2,3
17402.703,-1.002,0.033,-0.107,9.34,0.03,-10.71,2,3
17402.718,-0.992,0.018,-0.112,9.89,0.03,-7.66,2,3
17402.718,-0.984,0.012,-0.116,10.74,0.49,-4.73,2,3
17402.718,-0.976,0.008,-0.117,11.47,1.34,-2.35,2,3
17402.734,-0.968,-0.0,-0.117,11.9,2.35,0.15,2,3
17402.75,-0.962,-0.008,-0.117,12.12,3.45,2.56,2,3
17402.765,-0.96,-0.019,-0.113,12.48,4.61,4.76,2,3
17402.765,-0.957,-0.031,-0.105,13.12,5.22,6.87,2,3
17402.781,-0.954,-0.041,-0.103,13.86,5.55,8.48,2,3
17402.781,-0.954,-0.052,-0.099,14.89,5.37,9.89,2,3
17402.796,-0.959,-0.063,-0.097,16.08,4.91,10.99,2,3
17402.812,-0.959,-0.068,-0.094,16.75,4.36,11.57,2,3
17402.828,-0.953,-0.07,-0.099,16.82,3.78,11.75,2,3
17402.828,-0.948,-0.073,-0.103,16.39,3.6,11.44,2,3
17402.843,-0.946,-0.074,-0.107,15.47,3.23,11.11,2,3
17402.843,-0.941,-0.075,-0.112,14.62,3.02,10.9,2,3
17402.859,-0.942,-0.081,-0.114,13.7,2.9,10.74,2,3
17402.875,-0.941,-0.086,-0.117,12.97,2.75,10.8,2,3
17402.875,-0.939,-0.088,-0.123,12.48,2.62,10.9,2,3
17402.89,-0.938,-0.091,-0.127,11.96,2.93,10.68,2,3
17402.89,-0.941,-0.095,-0.128,11.32,3.39,10.56,2,3
17402.906,-0.94,-0.095,-0.129,10.28,4.15,10.19,2,3
17402.921,-0.938,-0.097,-0.133,9.13,5.19,9.4,2,3
17402.921,-0.934,-0.101,-0.135,7.17,6.01,8.61,2,3
17402.937,-0.928,-0.099,-0.134,5.25,6.65,7.84,2,3
17402.953,-0.928,-0.099,-0.134,3.63,7.2,7.14,2,3
17402.953,-0.931,-0.103,-0.132,1.89,7.66,6.71,2,3
17402.968,-0.937,-0.106,-0.129,0.55,7.69,6.23,2,3
17402.984,-0.946,-0.109,-0.129,-0.58,7.42,5.74,2,3
17402.984,-0.956,-0.112,-0.129,-1.71,6.93,5.19,2,3
17403.0,-0.966,-0.111,-0.125,-2.96,6.47,4.46,2,3
17403.0,-0.971,-0.111,-0.124,-4.24,5.83,3.97,2,3
17403.015,-0.974,-0.112,-0.122,-5.62,5.34,3.3,2,3
17403.031,-0.981,-0.115,-0.123,-6.5,5.19,2.56,2,3
17403.031,-0.987,-0.119,-0.123,-7.02,4.82,1.89,2,3
17403.046,-0.991,-0.12,-0.123,-7.11,4.49,1.16,2,3
17403.062,-0.998,-0.117,-0.121,-6.84,4.24,0.34,2,3
17403.062,-1.004,-0.116,-0.121,-6.35,4.18,-0.03,2,3
17403.078,-1.006,-0.111,-0.123,-5.74,4.06,-0.27,2,3
17403.093,-1.006,-0.107,-0.124,-5.01,3.75,-0.46,2,3
17403.093,-1.006,-0.104,-0.125,-4.61,3.33,-0.55,2,3
17403.109,-1.005,-0.098,-0.127,-4.33,3.08,-0.43,2,3
17403.125,-1.005,-0.097,-0.13,-4.12,2.69,-0.03,2,3
17403.125,-1.003,-0.095,-0.133,-4.15,2.23,0.55,2,3
17403.14,-0.999,-0.093,-0.136,-4.43,1.8,1.04,2,3
17403.14,-0.998,-0.093,-0.134,-4.91,1.74,1.53,2,3
17403.156,-0.998,-0.093,-0.132,-5.86,1.71,1.83,2,3
17403.171,-0.996,-0.094,-0.132,-6.9,1.74,2.17,2,3
17403.171,-0.998,-0.095,-0.131,-8.12,1.74,2.29,2,3
17403.187,-0.998,-0.098,-0.129,-9.46,1.8,2.53,2,3
17403.203,-0.995,-0.098,-0.127,-10.56,1.77,2.5,2,3
17403.218,-0.995,-0.096,-0.125,-11.69,1.71,2.35,2,3
17403.218,-0.995,-0.098,-0.125,-12.73,1.77,2.23,2,3
17403.218,-0.994,-0.099,-0.12,-13.61,1.65,2.23,2,3
17403.234,-0.991,-0.098,-0.117,-13.98,1.22,2.38,2,3
17403.25,-0.99,-0.098,-0.113,-14.13,0.58,2.44,2,3
17403.265,-0.987,-0.102,-0.112,-13.92,-0.37,2.62,2,3
17403.265,-0.986,-0.105,-0.111,-13.46,-1.22,2.99,2,3
17403.281,-0.982,-0.109,-0.111,-12.76,-2.11,2.96,2,3
17403.281,-0.981,-0.106,-0.111,-12.02,-2.84,2.69,2,3
17403.296,-0.978,-0.104,-0.115,-11.47,-3.27,2.32,2,3
17403.312,-0.976,-0.101,-0.118,-11.26,-3.45,1.98,2,3
17403.312,-0.973,-0.099,-0.119,-10.96,-3.78,1.77,2,3
17403.328,-0.97,-0.097,-0.12,-10.38,-4.0,1.71,2,3
17403.343,-0.965,-0.095,-0.123,-9.64,-4.18,1.83,2,3
17403.343,-0.963,-0.093,-0.126,-8.61,-4.21,2.04,2,3
17403.359,-0.963,-0.09,-0.127,-7.48,-4.15,2.11,2,3
17403.375,-0.963,-0.089,-0.127,-6.47,-4.27,2.41,2,3
17403.375,-0.961,-0.09,-0.129,-5.74,-4.27,2.81,2,3
17403.39,-0.962,-0.089,-0.131,-4.88,-4.21,2.99,2,3
17403.406,-0.962,-0.089,-0.134,-4.36,-4.3,3.17,2,3
17403.406,-0.96,-0.09,-0.134,-4.21,-4.39,3.14,2,3
17403.421,-0.96,-0.09,-0.136,-3.94,-4.76,3.02,2,3
17403.421,-0.96,-0.09,-0.139,-3.69,-5.07,2.99,2,3
17403.437,-0.958,-0.091,-0.142,-3.48,-5.43,2.99,2,3
17403.453,-0.956,-0.094,-0.146,-3.36,-5.65,2.78,2,3
17403.453,-0.952,-0.093,-0.149,-3.27,-5.62,2.56,2,3
17403.468,-0.952,-0.092,-0.151,-3.27,-5.25,2.35,2,3
17403.468,-0.954,-0.093,-0.154,-3.05,-4.85,2.14,2,3
17403.484,-0.954,-0.097,-0.159,-2.78,-4.36,2.01,2,3
17403.5,-0.95,-0.097,-0.16,-2.35,-4.03,1.86,2,3
17403.5,-0.95,-0.097,-0.161,-1.89,-3.69,1.59,2,3
17403.515,-0.954,-0.099,-0.163,-1.53,-3.2,1.22,2,3
17403.531,-0.956,-0.099,-0.161,-1.25,-2.5,0.89,2,3
17403.531,-0.958,-0.1,-0.161,-1.1,-1.77,0.4,2,3
17403.546,-0.961,-0.097,-0.161,-1.1,-1.22,-0.27,2,3
17403.562,-0.963,-0.096,-0.158,-0.64,-0.73,-0.92,2,3
17403.562,-0.963,-0.092,-0.159,0.7,-0.03,-1.19,2,3
17403.578,-0.963,-0.088,-0.158,2.41,0.55,-1.01,2,3
17403.593,-0.96,-0.088,-0.158,4.33,1.16,-0.73,2,3
17403.593,-0.961,-0.086,-0.159,6.23,2.04,-0.37,2,3
17403.609,-0.961,-0.087,-0.161,8.0,3.02,-0.18,2,3
17403.625,-0.961,-0.085,-0.159,9.22,3.94,-0.09,2,3
17403.625,-0.966,-0.083,-0.154,9.64,4.79,-0.27,2,3
17403.64,-0.968,-0.081,-0.154,9.58,5.25,-0.49,2,3
17403.64,-0.972,-0.079,-0.151,8.33,4.97,-0.82,2,3
17403.656,-0.972,-0.078,-0.146,7.48,4.36,-0.89,2,3
17403.671,-0.974,-0.08,-0.144,6.71,3.57,-0.92,2,3
17403.671,-0.975,-0.082,-0.143,6.07,2.75,-1.13,2,3
17403.687,-0.975,-0.082,-0.147,5.65,1.8,-1.22,2,3
17403.703,-0.976,-0.08,-0.151,5.22,1.16,-1.25,2,3
17403.703,-0.972,-0.08,-0.153,4.88,0.85,-1.28,2,3
17403.718,-0.97,-0.08,-0.156,4.43,0.85,-1.22,2,3
17403.734,-0.97,-0.082,-0.155,4.12,1.1,-1.31,2,3
17403.734,-0.968,-0.084,-0.157,3.91,1.74,-1.34,2,3
17403.75,-0.968,-0.084,-0.153,4.0,2.32,-1.4,2,3
17403.75,-0.969,-0.084,-0.15,4.15,3.05,-1.43,2,3
17403.765,-0.971,-0.088,-0.146,4.61,3.66,-1.4,2,3
17403.781,-0.97,-0.086,-0.143,5.19,3.97,-1.28,2,3
17403.781,-0.973,-0.083,-0.141,5.89,3.88,-1.22,2,3
17403.796,-0.972,-0.079,-0.14,6.26,3.69,-1.19,2,3
17403.812,-0.969,-0.076,-0.142,6.35,3.39,-0.82,2,3
17403.812,-0.965,-0.073,-0.143,6.1,2.99,-0.4,2,3
17403.828,-0.961,-0.074,-0.144,5.31,2.69,-0.03,2,3
17403.843,-0.956,-0.08,-0.145,4.33,2.32,0.46,2,3
17403.843,-0.956,-0.082,-0.144,3.57,2.14,0.76,2,3
17403.859,-0.953,-0.088,-0.144,2.96,1.98,1.1,2,3
17403.859,-0.948,-0.095,-0.143,2.5,2.11,1.25,2,3
17403.875,-0.945,-0.098,-0.145,2.38,2.17,1.1,2,3
17403.89,-0.943,-0.103,-0.145,2.47,2.35,0.82,2,3
17403.89,-0.943,-0.106,-0.144,2.72,2.56,0.61,2,3
17403.906,-0.944,-0.111,-0.144,2.96,2.81,0.18,2,3
17403.921,-0.942,-0.114,-0.145,3.11,2.9,-0.27,2,3
17403.937,-0.94,-0.114,-0.147,3.3,2.99,-0.73,2,3
17403.937,-0.943,-0.115,-0.149,3.27,3.08,-1.4,2,3
17403.953,-0.942,-0.117,-0.151,2.93,3.08,-2.26,2,3
17403.953,-0.945,-0.119,-0.151,2.56,2.84,-2.9,2,3
17403.968,-0.949,-0.121,-0.153,2.17,2.5,-3.63,2,3
17403.984,-0.951,-0.121,-0.155,1.77,2.26,-4.7,2,3
17403.984,-0.953,-0.12,-0.154,1.43,2.11,-5.74,2,3
17404.0,-0.952,-0.119,-0.154,0.98,2.17,-6.93,2,3
17404.015,-0.955,-0.12,-0.156,0.73,2.32,-8.0,2,3
17404.015,-0.961,-0.116,-0.153,0.58,2.44,-9.0,2,3
17404.031,-0.966,-0.113,-0.151,0.52,2.72,-9.89,2,3
17404.031,-0.973,-0.112,-0.151,0.92,2.99,-10.8,2,3
17404.046,-0.979,-0.109,-0.146,1.4,3.27,-11.6,2,3
17404.062,-0.984,-0.101,-0.145,2.08,3.11,-11.9,2,3
17404.078,-0.988,-0.096,-0.144,2.84,2.66,-11.84,2,3
17404.078,-0.99,-0.092,-0.145,3.51,1.98,-11.81,2,3
17404.093,-0.992,-0.086,-0.145,4.33,1.37,-11.35,2,3
17404.093,-0.995,-0.082,-0.148,5.04,0.73,-10.8,2,3
17404.109,-0.996,-0.081,-0.151,5.65,0.09,-10.07,2,3
17404.125,-0.996,-0.079,-0.154,6.41,-0.4,-9.28,2,3
17404.125,-1.0,-0.078,-0.158,6.84,-0.58,-8.24,2,3
17404.14,-0.997,-0.079,-0.162,7.02,-0.61,-7.14,2,3
17404.14,-0.996,-0.081,-0.164,7.11,-0.37,-6.2,2,3
17404.156,-0.994,-0.084,-0.165,7.2,0.0,-5.16,2,3
17404.171,-0.99,-0.088,-0.167,7.02,0.52,-4.39,2,3
17404.171,-0.992,-0.091,-0.165,6.87,1.19,-3.81,2,3
17404.187,-0.998,-0.097,-0.157,6.41,1.71,-3.2,2,3
17404.203,-1.002,-0.104,-0.155,6.16,1.83,-2.87,2,3
17404.203,-1.003,-0.109,-0.15,6.01,1.59,-2.81,2,3
17404.218,-1.002,-0.109,-0.147,5.71,1.1,-2.9,2,3
17404.234,-0.998,-0.106,-0.148,5.34,0.49,-3.17,2,3
17404.234,-0.996,-0.106,-0.146,4.73,0.0,-3.27,2,3
17404.25,-0.998,-0.107,-0.145,4.27,-0.24,-3.11,2,3
17404.265,-0.996,-0.106,-0.141,4.03,-0.49,-2.84,2,3
17404.265,-0.994,-0.11,-0.137,3.85,-0.61,-2.59,2,3
17404.281,-0.991,-0.109,-0.137,4.06,-0.73,-2.62,2,3
17404.281,-0.986,-0.11,-0.138,4.36,-0.98,-2.84,2,3
17404.296,-0.985,-0.105,-0.136,4.52,-1.22,-2.9,2,3
17404.312,-0.984,-0.104,-0.137,4.52,-1.46,-2.66,2,3
17404.312,-0.98,-0.105,-0.14,4.52,-1.65,-2.41,2,3
17404.328,-0.978,-0.103,-0.142,4.58,-1.62,-2.29,2,3
17404.343,-0.972,-0.103,-0.145,4.67,-1.56,-2.2,2,3
17404.343,-0.972,-0.101,-0.146,4.55,-1.4,-2.04,2,3
17404.359,-0.967,-0.102,-0.15,4.21,-1.43,-1.92,2,3
17404.375,-0.963,-0.103,-0.153,3.51,-1.56,-1.65,2,3
17404.375,-0.963,-0.1,-0.157,2.5,-1.46,-1.59,2,3
17404.39,-0.959,-0.102,-0.16,1.34,-1.53,-1.59,2,3
17404.39,-0.957,-0.107,-0.162,-0.15,-1.43,-1.65,2,3
17404.406,-0.958,-0.107,-0.161,-1.74,-1.22,-1.98,2,3
17404.421,-0.957,-0.107,-0.159,-3.3,-0.85,-2.44,2,3
17404.437,-0.96,-0.108,-0.156,-4.64,-0.49,-3.17,2,3
17404.437,-0.962,-0.105,-0.152,-5.77,-0.18,-3.63,2,3
17404.453,-0.963,-0.1,-0.149,-6.96,0.15,-4.06,2,3
17404.453,-0.967,-0.096,-0.147,-7.75,0.24,-4.49,2,3
17404.468,-0.973,-0.094,-0.144,-7.81,0.03,-4.39,2,3
17404.484,-0.975,-0.092,-0.143,-7.2,-0.37,-3.97,2,3
17404.484,-0.976,-0.091,-0.144,-5.98,-1.31,-3.14,2,3
17404.5,-0.975,-0.091,-0.149,-4.27,-2.29,-1.95,2,3
17404.515,-0.973,-0.094,-0.155,-2.62,-3.14,-1.01,2,3
17404.515,-0.967,-0.095,-0.163,-1.5,-3.51,-0.27,2,3
17404.531,-0.962,-0.094,-0.175,-1.19,-3.48,-0.03,2,3
17404.531,-0.959,-0.093,-0.18,-2.01,-2.9,0.21,2,3
17404.546,-0.957,-0.095,-0.185,-3.69,-1.98,0.12,2,3
17404.562,-0.955,-0.096,-0.183,-5.89,-1.04,0.0,2,3
17404.562,-0.954,-0.099,-0.182,-8.42,-0.24,-0.34,2,3
17404.578,-0.956,-0.101,-0.177,-10.44,0.31,-0.61,2,3
17404.593,-0.956,-0.104,-0.174,-11.66,0.34,-0.82,2,3
17404.593,-0.953,-0.104,-0.174,-12.39,0.0,-0.85,2,3
17404.609,-0.951,-0.104,-0.176,-12.97,-0.4,-0.89,2,3
17404.625,-0.949,-0.105,-0.176,-13.43,-0.58,-0.76,2,3
17404.625,-0.944,-0.107,-0.179,-13.89,-0.58,-0.76,2,3
17404.64,-0.941,-0.114,-0.183,-15.02,-0.52,-0.98,2,3
17404.64,-0.939,-0.117,-0.183,-15.87,-0.34,-1.62,2,3
17404.656,-0.941,-0.121,-0.182,-16.69,0.06,-2.29,2,3
17404.671,-0.948,-0.125,-0.181,-17.43,0.43,-3.05,2,3
17404.671,-0.953,-0.124,-0.179,-18.07,0.64,-3.97,2,3
17404.687,-0.96,-0.121,-0.177,-18.43,0.95,-4.73,2,3
17404.703,-0.965,-0.116,-0.174,-18.74,1.04,-5.16,2,3
17404.703,-0.969,-0.11,-0.17,-18.95,0.92,-5.31,2,3
17404.718,-0.971,-0.111,-0.169,-18.68,0.55,-5.01,2,3
17404.734,-0.972,-0.111,-0.168,-18.13,0.15,-4.49,2,3
17404.734,-0.972,-0.114,-0.165,-16.91,-0.49,-3.69,2,3
17404.75,-0.973,-0.118,-0.171,-15.32,-1.16,-3.36,2,3
17404.75,-0.973,-0.119,-0.173,-14.16,-1.53,-2.96,2,3
17404.765,-0.973,-0.121,-0.175,-13.06,-1.71,-2.56,2,3
17404.781,-0.975,-0.127,-0.179,-12.15,-1.5,-2.17,2,3
17404.781,-0.976,-0.131,-0.181,-11.6,-1.13,-2.17,2,3
17404.796,-0.977,-0.131,-0.182,-11.2,-1.04,-2.32,2,3
17404.812,-0.977,-0.133,-0.182,-10.93,-0.52,-2.44,2,3
17404.812,-0.982,-0.135,-0.18,-10.5,-0.12,-2.41,2,3
17404.828,-0.987,-0.136,-0.176,-10.13,0.34,-2.32,2,3
17404.843,-0.986,-0.141,-0.171,-9.7,0.31,-2.32,2,3
17404.843,-0.985,-0.144,-0.169,-9.09,0.21,-2.32,2,3
17404.859,-0.983,-0.148,-0.168,-8.36,-0.06,-2.44,2,3
17404.875,-0.98,-0.156,-0.17,-7.51,-0.67,-2.5,2,3
17404.875,-0.97,-0.161,-0.171,-6.71,-1.22,-2.56,2,3
17404.89,-0.969,-0.166,-0.169,-6.04,-1.43,-2.75,2,3
17404.89,-0.97,-0.169,-0.171,-5.43,-1.37,-3.14,2,3
17404.906,-0.971,-0.171,-0.173,-4.76,-1.34,-3.57,2,3
17404.921,-0.968,-0.172,-0.173,-4.3,-1.31,-4.0,2,3
17404.921,-0.963,-0.168,-0.175,-4.12,-1.34,-4.43,2,3
17404.937,-0.962,-0.163,-0.175,-3.91,-1.43,-4.61,2,3
17404.953,-0.965,-0.16,-0.174,-3.94,-1.31,-4.52,2,3
17404.968,-0.964,-0.157,-0.17,-3.88,-1.34,-4.27,2,3
17404.968,-0.966,-0.154,-0.168,-3.72,-1.43,-4.06,2,3
17404.968,-0.968,-0.157,-0.167,-3.6,-1.46,-3.72,2,3
17404.984,-0.966,-0.153,-0.164,-3.33,-1.43,-3.3,2,3
17405.0,-0.967,-0.152,-0.162,-2.96,-1.43,-2.9,2,3
17405.0,-0.968,-0.153,-0.161,-2.69,-1.68,-2.69,2,3
17405.015,-0.965,-0.149,-0.16,-2.53,-1.86,-2.26,2,3
17405.031,-0.966,-0.15,-0.16,-2.2,-1.86,-1.56,2,3
17405.031,-0.967,-0.155,-0.162,-1.68,-2.14,-0.98,2,3
17405.046,-0.965,-0.157,-0.162,-1.13,-2.47,-0.52,2,3
17405.062,-0.961,-0.159,-0.162,-0.34,-2.66,-0.09,2,3
17405.062,-0.957,-0.162,-0.165,0.37,-2.87,0.31,2,3
17405.078,-0.95,-0.166,-0.167,0.95,-3.02,0.55,2,3
17405.093,-0.945,-0.17,-0.171,1.22,-2.87,0.34,2,3
17405.093,-0.938,-0.171,-0.172,1.59,-2.69,0.0,2,3
17405.109,-0.938,-0.171,-0.17,1.59,-2.26,-0.55,2,3
17405.125,-0.94,-0.172,-0.172,1.5,-2.08,-1.1,2,3
17405.125,-0.939,-0.17,-0.173,1.34,-2.11,-1.68,2,3
17405.14,-0.936,-0.166,-0.177,1.53,-2.14,-2.17,2,3
17405.14,-0.935,-0.164,-0.181,1.22,-2.14,-2.78,2,3
17405.156,-0.932,-0.162,-0.189,0.55,-2.11,-3.17,2,3
17405.171,-0.927,-0.163,-0.194,0.09,-2.01,-3.36,2,3
17405.187,-0.923,-0.169,-0.197,-0.12,-1.74,-3.42,2,3
17405.187,-0.919,-0.172,-0.2,0.18,-1.28,-3.48,2,3
17405.203,-0.919,-0.176,-0.202,0.37,-0.7,-3.85,2,3
17405.203,-0.92,-0.185,-0.204,0.58,-0.37,-4.49,2,3
17405.218,-0.921,-0.188,-0.203,0.85,0.27,-5.43,2,3
17405.234,-0.918,-0.188,-0.2,0.73,0.85,-6.71,2,3
17405.234,-0.916,-0.197,-0.196,0.61,1.53,-8.15,2,3
17405.25,-0.913,-0.204,-0.19,1.04,2.29,-9.43,2,3
17405.265,-0.918,-0.211,-0.182,2.38,2.93,-10.86,2,3
17405.265,-0.921,-0.217,-0.176,3.66,3.05,-12.36,2,3
17405.281,-0.922,-0.222,-0.171,5.1,2.96,-13.76,2,3
17405.281,-0.929,-0.226,-0.167,5.86,3.11,-15.32,2,3
17405.296,-0.941,-0.228,-0.165,5.92,3.17,-17.46,2,3
17405.312,-0.955,-0.224,-0.165,5.25,3.66,-20.08,2,3
17405.328,-0.974,-0.214,-0.159,3.57,4.49,-23.38,2,3
17405.328,-0.985,-0.2,-0.154,0.64,5.13,-26.64,2,3
17405.343,-1.004,-0.186,-0.148,-2.81,5.28,-29.42,2,3
17405.343,-1.015,-0.174,-0.14,-5.77,4.85,-30.85,2,3
17405.359,-1.015,-0.165,-0.136,-7.69,3.39,-30.95,2,3
17405.375,-1.016,-0.162,-0.136,-7.97,1.4,-30.15,2,3
17405.375,-1.013,-0.16,-0.139,-6.78,-1.01,-28.53,2,3
17405.39,-1.009,-0.158,-0.15,-4.39,-2.99,-26.43,2,3
17405.39,-1.002,-0.157,-0.163,-1.16,-4.15,-24.11,2,3
17405.406,-0.995,-0.16,-0.183,1.95,-4.03,-22.03,2,3
17405.421,-0.986,-0.159,-0.205,3.91,-1.68,-19.93,2,3
17405.437,-0.973,-0.16,-0.232,4.33,3.72,-17.49,2,3
17405.437,-0.954,-0.165,-0.265,2.44,11.87,-15.26,2,3
17405.453,-0.946,-0.166,-0.28,-1.43,21.7,-13.61,2,3
17405.453,-0.93,-0.181,-0.321,-6.59,30.73,-12.21,2,3
17405.468,-0.92,-0.194,-0.326,-14.65,39.77,-10.86,2,3
17405.484,-0.922,-0.211,-0.31,-19.78,47.61,-10.68,2,3
17405.484,-0.929,-0.231,-0.301,-22.28,53.53,-11.14,2,3
17405.5,-0.929,-0.232,-0.292,-24.78,57.41,-12.18,2,3
17405.5,-0.934,-0.225,-0.278,-27.16,59.21,-13.61,2,3
17405.515,-0.938,-0.225,-0.262,-28.38,58.81,-14.86,2,3
17405.531,-0.938,-0.228,-0.251,-28.72,56.18,-15.44,2,3
17405.531,-0.935,-0.225,-0.239,-28.53,51.97,-15.38,2,3
17405.546,-0.935,-0.22,-0.228,-27.31,46.54,-14.89,2,3
17405.562,-0.936,-0.228,-0.225,-24.87,40.22,-13.98,2,3
17405.562,-0.929,-0.234,-0.224,-21.49,33.39,-12.91,2,3
17405.578,-0.922,-0.238,-0.225,-17.12,26.64,-11.47,2,3
17405.593,-0.921,-0.24,-0.231,-12.36,20.48,-10.01,2,3
17405.593,-0.92,-0.245,-0.24,-7.72,14.53,-8.27,2,3
17405.609,-0.919,-0.25,-0.25,-3.45,8.64,-6.78,2,3
17405.625,-0.916,-0.257,-0.269,0.98,-0.58,-5.46,2,3
17405.625,-0.907,-0.261,-0.294,-0.37,-3.78,-6.62,2,3
17405.64,-0.896,-0.256,-0.323,-4.76,-5.58,-8.88,2,3
17405.656,-0.885,-0.242,-0.348,-12.51,-5.86,-11.47,2,3
17405.656,-0.876,-0.238,-0.369,-21.88,-5.13,-13.82,2,3
17405.671,-0.876,-0.246,-0.367,-30.58,-3.45,-16.21,2,3
17405.671,-0.882,-0.255,-0.358,-37.51,-1.37,-18.22,2,3
17405.687,-0.888,-0.268,-0.35,-42.12,0.85,-19.99,2,3
17405.703,-0.889,-0.277,-0.351,-44.89,3.94,-22.06,2,3
17405.718,-0.893,-0.274,-0.353,-48.19,6.53,-24.45,2,3
17405.718,-0.891,-0.258,-0.369,-54.38,8.3,-27.53,2,3
17405.718,-0.879,-0.233,-0.401,-66.32,11.08,-31.68,2,3
17405.734,-0.877,-0.222,-0.413,-83.07,15.14,-36.5,2,3
17405.75,-0.877,-0.238,-0.43,-99.46,19.96,-41.96,2,3
17405.765,-0.879,-0.254,-0.449,-112.67,27.25,-47.06,2,3
17405.765,-0.877,-0.273,-0.463,-121.52,38.36,-51.3,2,3
17405.781,-0.856,-0.296,-0.481,-126.53,53.22,-54.57,2,3
17405.796,-0.841,-0.313,-0.503,-128.09,71.5,-57.01,2,3
17405.796,-0.832,-0.34,-0.537,-124.06,92.35,-60.27,2,3
17405.812,-0.833,-0.362,-0.579,-117.74,111.33,-63.3,2,3
17405.828,-0.846,-0.346,-0.595,-113.65,129.61,-66.68,2,3
17405.828,-0.846,-0.363,-0.602,-106.33,145.82,-71.41,2,3
17405.843,-0.847,-0.367,-0.602,-100.31,157.2,-76.48,2,3
17405.859,-0.852,-0.356,-0.605,-93.57,165.47,-82.8,2,3
17405.859,-0.852,-0.375,-0.591,-84.48,171.33,-88.78,2,3
17405.875,-0.826,-0.37,-0.583,-73.49,176.0,-92.26,2,3
17405.875,-0.864,-0.349,-0.637,-61.46,179.88,-94.7,2,3
17405.89,-0.845,-0.307,-0.726,-56.67,180.3,-92.07,2,3
17405.906,-0.791,-0.23,-0.732,-63.88,183.63,-86.98,2,3
17405.906,-0.761,-0.257,-0.721,-71.38,188.12,-83.9,2,3
17405.921,-0.731,-0.298,-0.723,-75.59,188.85,-81.45,2,3
17405.921,-0.723,-0.305,-0.746,-76.97,187.2,-77.49,2,3
17405.937,-0.708,-0.288,-0.751,-78.16,181.92,-72.02,2,3
17405.953,-0.678,-0.273,-0.729,-78.62,174.26,-67.54,2,3
17405.953,-0.658,-0.278,-0.714,-77.43,164.83,-64.7,2,3
17405.968,-0.652,-0.282,-0.692,-74.56,153.9,-63.02,2,3
17405.984,-0.593,-0.295,-0.645,-68.58,140.08,-59.27,2,3
17405.984,-0.564,-0.287,-0.666,-58.53,127.05,-57.41,2,3
17406.0,-0.527,-0.261,-0.713,-50.87,115.45,-54.54,2,3
17406.0,-0.496,-0.252,-0.742,-45.66,104.89,-52.4,2,3
17406.015,-0.477,-0.272,-0.766,-40.59,97.54,-50.17,2,3
17406.031,-0.459,-0.268,-0.776,-34.42,92.32,-47.61,2,3
17406.031,-0.441,-0.254,-0.798,-27.25,86.89,-43.34,2,3
17406.046,-0.427,-0.246,-0.824,-23.22,80.9,-38.58,2,3
17406.062,-0.395,-0.231,-0.832,-22.58,73.73,-35.37,2,3
17406.062,-0.373,-0.244,-0.817,-20.84,67.93,-34.46,2,3
17406.078,-0.368,-0.26,-0.832,-16.36,62.84,-34.3,2,3
17406.093,-0.347,-0.248,-0.87,-13.61,58.14,-32.84,2,3
17406.093,-0.336,-0.227,-0.888,-14.01,54.26,-32.29,2,3
17406.109,-0.316,-0.239,-0.88,-15.32,51.21,-31.68,2,3
17406.125,-0.305,-0.25,-0.873,-14.5,48.65,-31.95,2,3
17406.125,-0.319,-0.251,-0.882,-10.38,46.94,-30.37,2,3
17406.14,-0.291,-0.257,-0.883,-4.64,46.48,-24.78,2,3
17406.156,-0.245,-0.225,-0.908,-0.15,44.74,-21.61,2,3
17406.156,-0.308,-0.212,-0.941,0.34,45.17,-21.06,2,3
17406.171,-0.266,-0.262,-0.925,-2.9,45.11,-14.59,2,3
17406.171,-0.209,-0.257,-0.892,-1.71,42.79,-14.16,2,3
17406.187,-0.224,-0.248,-0.92,3.27,40.53,-18.95,2,3
17406.203,-0.278,-0.279,-0.932,3.3,41.32,-19.07,2,3
17406.203,-0.209,-0.29,-0.9,3.54,40.56,-14.74,2,3
17406.218,-0.185,-0.212,-0.929,6.65,36.59,-18.95,2,3
17406.234,-0.275,-0.237,-0.957,3.72,36.87,-20.94,2,3
17406.234,-0.181,-0.283,-0.922,-3.36,32.87,-17.0,2,3
17406.25,-0.19,-0.24,-0.921,-3.33,29.79,-20.51,2,3
17406.25,-0.176,-0.265,-0.936,-4.15,27.13,-19.81,2,3
17406.265,-0.173,-0.264,-0.912,-7.26,23.62,-20.87,2,3
17406.281,-0.164,-0.284,-0.898,-6.04,20.69,-20.33,2,3
17406.296,-0.176,-0.267,-0.905,-3.27,16.69,-20.14,2,3
17406.296,-0.172,-0.267,-0.916,-0.58,13.7,-17.0,2,3
17406.312,-0.156,-0.25,-0.942,1.4,11.05,-13.89,2,3
17406.312,-0.16,-0.242,-0.974,2.59,10.62,-11.23,2,3
17406.328,-0.146,-0.258,-0.987,3.17,12.91,-7.23,2,3
17406.343,-0.119,-0.262,-0.997,4.79,17.06,-4.33,2,3
17406.343,-0.122,-0.264,-1.006,7.45,22.31,-3.78,2,3
17406.359,-0.117,-0.292,-0.993,9.92,27.95,-2.23,2,3
17406.359,-0.132,-0.279,-0.966,12.27,31.19,-2.41,2,3
17406.375,-0.14,-0.277,-0.949,13.82,32.17,-2.47,2,3
17406.39,-0.14,-0.276,-0.924,11.08,29.39,-3.85,2,3
17406.39,-0.127,-0.291,-0.922,7.51,25.39,-6.99,2,3
17406.406,-0.126,-0.292,-0.935,4.7,21.49,-10.96,2,3
17406.421,-0.111,-0.306,-0.941,2.01,18.37,-13.49,2,3
17406.421,-0.097,-0.329,-0.938,-0.09,16.17,-15.75,2,3
17406.437,-0.099,-0.333,-0.927,0.82,15.78,-19.14,2,3
17406.453,-0.102,-0.335,-0.928,4.85,15.96,-20.26,2,3
17406.453,-0.108,-0.321,-0.936,11.51,17.64,-19.75,2,3
17406.468,-0.137,-0.289,-0.932,18.22,19.35,-20.45,2,3
17406.484,-0.169,-0.251,-0.911,21.12,18.34,-18.65,2,3
17406.484,-0.179,-0.248,-0.894,22.55,14.1,-13.82,2,3
17406.5,-0.163,-0.252,-0.916,23.26,8.24,-8.09,2,3
17406.5,-0.134,-0.233,-0.964,22.46,4.85,-4.21,2,3
17406.515,-0.12,-0.234,-1.02,22.37,6.07,-4.7,2,3
17406.531,-0.119,-0.235,-1.057,19.07,9.77,-7.54,2,3
17406.546,-0.123,-0.235,-1.046,12.18,13.61,-12.42,2,3
17406.546,-0.131,-0.257,-1.001,4.91,16.42,-17.33,2,3
17406.562,-0.14,-0.271,-0.949,1.16,17.27,-21.24,2,3
17406.562,-0.149,-0.252,-0.913,-0.12,15.2,-23.16,2,3
17406.578,-0.15,-0.224,-0.894,-2.23,10.01,-22.92,2,3
17406.593,-0.149,-0.206,-0.888,-5.92,2.93,-20.78,2,3
17406.593,-0.15,-0.202,-0.894,-9.95,-4.58,-17.0,2,3
17406.609,-0.135,-0.211,-0.899,-13.55,-16.54,-10.13,2,3
17406.625,-0.13,-0.226,-0.929,-13.15,-18.68,-7.97,2,3
17406.625,-0.113,-0.233,-0.963,-12.97,-17.79,-6.44,2,3
17406.64,-0.096,-0.267,-1.004,-13.09,-14.95,-5.95,2,3
17406.64,-0.096,-0.266,-1.012,-13.25,-10.86,-5.83,2,3
17406.656,-0.094,-0.285,-1.004,-13.34,-6.44,-5.58,2,3
17406.671,-0.096,-0.293,-0.985,-12.27,-2.69,-5.65,2,3
17406.687,-0.104,-0.29,-0.97,-10.59,-0.52,-4.55,2,3
17406.687,-0.099,-0.286,-0.958,-9.46,-0.31,-1.86,2,3
17406.703,-0.098,-0.276,-0.951,-8.45,-0.85,0.79,2,3
17406.703,-0.107,-0.276,-0.944,-8.33,-2.11,2.87,2,3
17406.718,-0.115,-0.283,-0.952,-7.84,-3.85,4.06,2,3
17406.734,-0.123,-0.273,-0.972,-6.65,-4.85,4.73,2,3
17406.734,-0.126,-0.286,-1.0,-5.89,-4.7,5.74,2,3
17406.75,-0.119,-0.301,-1.023,-4.91,-3.94,6.23,2,3
17406.765,-0.121,-0.297,-1.047,-3.27,-1.95,5.25,2,3
17406.765,-0.139,-0.291,-1.064,-3.33,-0.12,3.17,2,3
17406.781,-0.154,-0.299,-1.077,-4.85,1.77,1.16,2,3
17406.781,-0.168,-0.309,-1.076,-5.68,4.21,-1.25,2,3
17406.796,-0.188,-0.316,-1.089,-4.88,5.34,-3.69,2,3
17406.812,-0.197,-0.307,-1.101,-3.94,5.65,-5.58,2,3
17406.812,-0.199,-0.305,-1.104,-3.11,6.81,-6.1,2,3
17406.828,-0.21,-0.308,-1.095,-2.78,7.32,-6.32,2,3
17406.843,-0.214,-0.314,-1.081,-2.11,7.08,-5.55,2,3
17406.843,-0.211,-0.337,-1.053,-0.24,5.07,-5.13,2,3
17406.859,-0.218,-0.338,-1.023,2.44,1.28,-7.2,2,3
17406.875,-0.227,-0.358,-0.938,6.04,-4.33,-10.53,2,3
17406.875,-0.231,-0.388,-0.868,15.84,-11.41,-12.12,2,3
17406.89,-0.255,-0.348,-0.925,23.13,-21.91,-10.16,2,3
17406.906,-0.229,-0.301,-1.009,15.23,-32.41,-6.04,2,3
17406.906,-0.179,-0.355,-1.05,0.98,-38.27,-4.73,2,3
17406.921,-0.14,-0.407,-1.036,-3.39,-36.65,-6.29,2,3
17406.921,-0.109,-0.434,-1.01,4.76,-29.66,-7.39,2,3
17406.937,-0.099,-0.426,-0.978,15.2,-21.24,-7.26,2,3
17406.953,-0.101,-0.465,-0.912,23.13,-14.53,-3.66,2,3
17406.953,-0.088,-0.5,-0.846,31.62,-13.12,0.79,2,3
17406.968,-0.112,-0.49,-0.81,39.55,-15.87,2.93,2,3
17406.984,-0.128,-0.482,-0.765,43.06,-22.89,2.9,2,3
17406.984,-0.131,-0.522,-0.713,41.63,-33.2,-1.16,2,3
17407.0,-0.151,-0.547,-0.726,41.14,-45.05,-9.83,2,3
17407.0,-0.191,-0.469,-0.837,42.39,-53.71,-19.75,2,3
17407.015,-0.177,-0.303,-0.972,39.09,-56.73,-25.7,2,3
17407.031,-0.09,-0.243,-1.069,19.26,-56.0,-29.54,2,3
17407.031,-0.044,-0.315,-1.116,-11.87,-51.73,-36.99,2,3
17407.046,-0.037,-0.401,-1.091,-34.09,-43.24,-46.72,2,3
17407.062,-0.112,-0.342,-1.192,-41.75,-30.37,-53.35,2,3
17407.078,-0.055,-0.264,-1.063,-54.57,-16.48,-55.45,2,3
17407.078,-0.071,-0.401,-0.82,-43.06,-2.35,-61.92,2,3
17407.093,-0.155,-0.356,-0.745,-9.13,4.46,-58.81,2,3
17407.093,-0.152,-0.131,-0.789,12.63,-1.1,-42.57,2,3
17407.109,-0.139,-0.05,-0.797,10.19,-12.94,-26.52,2,3
17407.125,-0.133,-0.111,-0.802,-0.06,-24.29,-11.81,2,3
17407.125,-0.124,-0.162,-0.852,-3.36,-31.8,0.52,2,3
17407.14,-0.113,-0.185,-0.901,-0.64,-33.88,8.36,2,3
17407.14,-0.12,-0.183,-0.949,1.5,-31.04,11.84,2,3
17407.156,-0.118,-0.178,-0.981,1.89,-24.54,13.28,2,3
17407.171,-0.101,-0.183,-0.975,0.89,-15.69,14.19,2,3
17407.171,-0.096,-0.198,-0.939,0.61,-7.23,14.4,2,3
17407.187,-0.1,-0.207,-0.897,2.59,-1.86,15.56,2,3
17407.203,-0.11,-0.202,-0.867,6.13,0.37,18.59,2,3
17407.203,-0.116,-0.213,-0.85,9.83,0.49,24.2,2,3
17407.218,-0.12,-0.226,-0.844,13.06,-0.85,30.85,2,3
17407.234,-0.128,-0.23,-0.846,16.24,-3.05,35.28,2,3
17407.234,-0.133,-0.234,-0.86,18.34,-5.68,36.1,2,3
17407.25,-0.136,-0.231,-0.892,16.11,-8.48,33.3,2,3
17407.265,-0.132,-0.245,-0.902,9.92,-10.59,27.16,2,3
17407.265,-0.143,-0.268,-0.909,4.36,-11.44,18.77,2,3
17407.281,-0.16,-0.259,-0.931,0.24,-11.54,9.37,2,3
17407.281,-0.166,-0.249,-0.951,-4.73,-11.57,0.7,2,3
17407.296,-0.172,-0.269,-0.953,-10.44,-11.17,-5.46,2,3
17407.312,-0.197,-0.282,-0.959,-12.7,-10.25,-9.46,2,3
17407.328,-0.223,-0.286,-0.973,-11.75,-9.98,-10.9,2,3
17407.328,-0.24,-0.288,-0.991,-10.16,-9.95,-10.1,2,3
17407.343,-0.248,-0.295,-1.008,-9.46,-9.52,-8.51,2,3
17407.343,-0.24,-0.315,-1.033,-9.22,-10.1,-8.09,2,3
17407.359,-0.24,-0.307,-1.063,-9.95,-11.2,-10.96,2,3
17407.375,-0.256,-0.297,-1.084,-14.86,-11.99,-17.55,2,3
17407.375,-0.267,-0.302,-1.076,-23.04,-12.36,-26.22,2,3
17407.39,-0.269,-0.308,-1.05,-30.09,-11.32,-34.21,2,3
17407.39,-0.26,-0.32,-1.006,-33.69,-9.34,-39.09,2,3
17407.406,-0.244,-0.325,-0.962,-32.9,-7.84,-39.06,2,3
17407.421,-0.226,-0.303,-0.931,-28.38,-6.62,-33.66,2,3
17407.421,-0.213,-0.31,-0.909,-22.49,-5.31,-24.05,2,3
17407.437,-0.195,-0.334,-0.898,-14.1,-3.88,-12.82,2,3
17407.453,-0.186,-0.306,-0.899,-4.82,-1.71,-3.81,2,3
17407.453,-0.189,-0.296,-0.901,-0.52,0.31,1.1,2,3
17407.468,-0.198,-0.287,-0.894,-0.43,1.37,1.34,2,3
17407.484,-0.213,-0.274,-0.887,-2.2,1.22,-2.47,2,3
17407.484,-0.221,-0.263,-0.877,-6.68,-0.06,-8.45,2,3
17407.5,-0.224,-0.249,-0.862,-12.09,-2.81,-14.62,2,3
17407.5,-0.221,-0.244,-0.853,-16.08,-6.78,-18.4,2,3
17407.515,-0.217,-0.24,-0.848,-17.55,-11.11,-18.89,2,3
17407.531,-0.222,-0.224,-0.85,-17.09,-14.95,-15.9,2,3
17407.531,-0.234,-0.228,-0.858,-15.38,-18.13,-8.85,2,3
17407.546,-0.232,-0.229,-0.873,-12.12,-19.9,0.49,2,3
17407.562,-0.232,-0.217,-0.896,-7.63,-20.29,9.16,2,3
17407.562,-0.216,-0.222,-0.912,-4.49,-19.41,16.42,2,3
17407.578,-0.182,-0.236,-0.931,-1.01,-16.85,21.36,2,3
17407.593,-0.156,-0.235,-0.935,1.25,-8.67,24.81,2,3
17407.593,-0.153,-0.272,-0.915,3.27,-4.43,25.39,2,3
17407.609,-0.159,-0.286,-0.887,6.16,-0.76,24.99,2,3
17407.625,-0.173,-0.289,-0.866,6.56,1.4,23.71,2,3
17407.625,-0.193,-0.299,-0.819,6.53,1.62,21.09,2,3
17407.64,-0.196,-0.29,-0.816,5.4,-0.89,17.88,2,3
17407.64,-0.184,-0.293,-0.824,2.26,-5.37,14.59,2,3
17407.656,-0.172,-0.302,-0.839,-1.37,-9.86,10.74,2,3
17407.671,-0.157,-0.329,-0.857,-3.81,-13.82,6.47,2,3
17407.671,-0.146,-0.346,-0.879,-4.36,-17.09,1.74,2,3
17407.687,-0.157,-0.337,-0.911,-4.91,-18.49,-3.39,2,3
17407.703,-0.177,-0.323,-0.95,-7.63,-19.04,-7.97,2,3
17407.703,-0.19,-0.313,-0.98,-12.12,-18.56,-12.27,2,3
17407.718,-0.194,-0.315,-0.992,-15.59,-16.94,-15.69,2,3
17407.734,-0.195,-0.308,-0.996,-16.79,-14.25,-18.1,2,3
17407.734,-0.19,-0.308,-0.992,-15.47,-10.93,-18.62,2,3
17407.75,-0.191,-0.307,-0.986,-12.7,-7.39,-17.09,2,3
17407.75,-0.198,-0.299,-0.973,-9.67,-3.94,-13.95,2,3
17407.765,-0.205,-0.297,-0.951,-7.05,-1.25,-10.71,2,3
17407.781,-0.227,-0.294,-0.925,-4.43,0.21,-8.27,2,3
17407.796,-0.249,-0.284,-0.911,-2.41,0.18,-6.2,2,3
17407.796,-0.261,-0.27,-0.907,-2.41,-1.31,-4.91,2,3
17407.812,-0.252,-0.28,-0.906,-3.54,-2.78,-3.51,2,3
17407.812,-0.254,-0.286,-0.904,-3.2,-3.54,-2.35,2,3
17407.828,-0.248,-0.284,-0.911,-1.04,-3.75,-0.4,2,3
17407.843,-0.246,-0.28,-0.927,0.76,-4.06,0.64,2,3
17407.843,-0.251,-0.271,-0.953,1.07,-4.46,0.85,2,3
17407.859,-0.237,-0.275,-0.976,-0.24,-4.0,0.7,2,3
17407.875,-0.223,-0.272,-0.995,-0.67,-1.83,0.27,2,3
17407.875,-0.205,-0.268,-0.998,-0.18,1.62,-0.82,2,3
17407.89,-0.198,-0.268,-0.988,0.64,5.52,-2.9,2,3
17407.89,-0.199,-0.264,-0.971,1.01,9.19,-5.25,2,3
17407.906,-0.206,-0.269,-0.947,1.1,12.12,-7.66,2,3
17407.921,-0.233,-0.269,-0.928,0.24,13.28,-10.41,2,3
17407.937,-0.243,-0.271,-0.913,-2.29,12.24,-12.67,2,3
17407.937,-0.244,-0.27,-0.915,-4.67,8.67,-15.63,2,3
17407.953,-0.243,-0.259,-0.934,-5.4,5.25,-18.65,2,3
17407.953,-0.229,-0.244,-0.968,-7.69,2.87,-21.27,2,3
17407.968,-0.212,-0.235,-0.991,-11.26,2.29,-23.71,2,3
17407.984,-0.206,-0.241,-1.001,-13.12,4.43,-25.03,2,3
17407.984,-0.229,-0.234,-1.004,-13.73,7.6,-25.51,2,3
17408.0,-0.246,-0.216,-0.994,-14.44,11.14,-24.32,2,3
17408.0,-0.259,-0.209,-0.971,-14.04,14.13,-22.1,2,3
17408.015,-0.282,-0.204,-0.951,-12.51,16.21,-18.74,2,3
17408.031,-0.301,-0.206,-0.936,-10.38,17.03,-13.12,2,3
17408.031,-0.311,-0.219,-0.928,-7.39,16.66,-6.26,2,3
17408.046,-0.317,-0.229,-0.933,-2.66,16.02,0.09,2,3
17408.062,-0.305,-0.237,-0.956,0.67,15.38,5.65,2,3
17408.062,-0.287,-0.235,-0.967,1.16,15.35,7.97,2,3
17408.078,-0.287,-0.232,-0.988,-0.27,15.99,6.26,2,3
17408.093,-0.284,-0.238,-1.0,-3.66,16.82,3.23,2,3
17408.093,-0.283,-0.259,-1.002,-6.78,18.86,-0.43,2,3
17408.109,-0.28,-0.272,-0.999,-6.93,21.88,-3.17,2,3
17408.125,-0.275,-0.26,-0.984,-5.71,25.48,-4.33,2,3
17408.14,-0.272,-0.24,-0.967,-4.64,28.23,-4.43,2,3
17408.156,-0.275,-0.225,-0.95,-4.09,29.42,-3.88,2,3
17408.156,-0.279,-0.21,-0.928,-3.75,28.78,-2.01,2,3
17408.171,-0.274,-0.202,-0.907,-3.85,26.73,1.37,2,3
17408.187,-0.266,-0.215,-0.889,-2.9,24.35,5.62,2,3
17408.203,-0.253,-0.226,-0.881,-0.21,21.97,10.5,2,3
17408.218,-0.245,-0.221,-0.883,2.72,19.23,14.5,2,3
17408.234,-0.24,-0.226,-0.896,4.43,16.27,16.72,2,3
17408.234,-0.238,-0.23,-0.907,3.48,13.46,16.75,2,3
17408.25,-0.246,-0.237,-0.913,0.76,10.9,15.59,2,3
17408.265,-0.251,-0.25,-0.904,-1.74,8.09,13.67,2,3
17408.281,-0.267,-0.255,-0.902,-2.26,4.73,11.44,2,3
17408.281,-0.282,-0.241,-0.912,-2.87,-0.09,9.49,2,3
17408.296,-0.282,-0.236,-0.924,-4.67,-6.04,8.88,2,3
17408.296,-0.278,-0.239,-0.942,-5.98,-11.78,9.31,2,3
17408.312,-0.267,-0.252,-0.976,-6.62,-16.51,9.74,2,3
17408.328,-0.247,-0.261,-1.012,-6.41,-18.95,10.16,2,3
17408.328,-0.235,-0.259,-1.048,-5.01,-18.13,10.25,2,3
17408.343,-0.231,-0.264,-1.067,-3.72,-14.65,9.95,2,3
17408.343,-0.228,-0.281,-1.059,-2.53,-10.44,8.88,2,3
17408.343,-0.234,-0.281,-1.051,-0.92,-7.05,7.93,2,3
17408.343,-0.237,-0.274,-1.032,0.15,-5.01,7.9,2,3
17408.359,-0.237,-0.265,-1.018,0.76,-4.0,8.03,2,3
17408.359,-0.238,-0.262,-1.0,0.52,-3.85,8.33,2,3
17408.375,-0.242,-0.264,-0.98,0.21,-4.09,8.39,2,3
17408.375,-0.247,-0.267,-0.963,0.67,-5.49,8.36,2,3
17408.39,-0.246,-0.257,-0.957,1.34,-7.97,8.36,2,3
17408.39,-0.245,-0.253,-0.951,0.67,-10.77,8.48,2,3
17408.406,-0.237,-0.267,-0.95,-0.18,-13.86,9.4,2,3
17408.421,-0.232,-0.266,-0.957,0.67,-16.57,10.53,2,3
17408.437,-0.224,-0.27,-0.975,2.81,-17.76,12.12,2,3
17408.437,-0.211,-0.271,-0.986,4.39,-17.76,13.28,2,3
17408.453,-0.208,-0.266,-0.992,4.7,-17.52,13.0,2,3
17408.453,-0.208,-0.27,-0.997,4.15,-16.45,12.82,2,3
17408.468,-0.193,-0.283,-0.99,4.61,-14.68,13.31,2,3
17408.484,-0.203,-0.278,-0.986,7.14,-12.7,13.0,2,3
17408.484,-0.211,-0.266,-0.98,8.82,-10.01,12.79,2,3
17408.5,-0.222,-0.258,-0.96,8.76,-8.58,11.9,2,3
17408.5,-0.238,-0.256,-0.948,8.61,-8.33,10.9,2,3
17408.515,-0.242,-0.261,-0.947,8.24,-8.85,10.44,2,3
17408.531,-0.246,-0.253,-0.942,7.66,-9.31,9.77,2,3
17408.531,-0.238,-0.244,-0.95,8.09,-8.55,9.77,2,3
17408.546,-0.238,-0.239,-0.95,7.72,-8.09,9.13,2,3
17408.562,-0.241,-0.238,-0.95,7.75,-7.29,8.55,2,3
17408.562,-0.242,-0.222,-0.946,8.45,-3.42,5.4,2,3
17408.578,-0.267,-0.218,-0.93,8.27,-2.23,3.2,2,3
17408.593,-0.293,-0.212,-0.912,7.72,-2.47,1.25,2,3
17408.593,-0.312,-0.203,-0.894,7.51,-2.72,0.7,2,3
17408.609,-0.308,-0.207,-0.862,8.64,-4.49,-0.52,2,3
17408.609,-0.272,-0.197,-0.869,10.1,-6.13,-2.11,2,3
17408.625,-0.244,-0.182,-0.88,9.28,-7.32,-4.67,2,3
17408.64,-0.22,-0.195,-0.877,7.69,-6.56,-7.51,2,3
17408.64,-0.22,-0.193,-0.866,7.29,-5.16,-11.35,2,3
17408.656,-0.224,-0.193,-0.864,5.92,-5.13,-14.89,2,3
17408.671,-0.228,-0.2,-0.858,3.69,-6.62,-16.02,2,3
17408.671,-0.213,-0.21,-0.868,3.45,-8.42,-14.4,2,3
17408.687,-0.183,-0.199,-0.901,5.16,-10.1,-10.8,2,3
17408.703,-0.151,-0.201,-0.939,5.98,-10.38,-6.1,2,3
17408.703,-0.125,-0.207,-0.96,6.16,-8.7,-2.93,2,3
17408.718,-0.118,-0.224,-0.957,6.35,-5.28,-2.01,2,3
17408.734,-0.112,-0.243,-0.935,6.9,-2.44,-1.86,2,3
17408.734,-0.114,-0.258,-0.919,7.63,-1.65,-1.71,2,3
17408.75,-0.108,-0.27,-0.913,8.15,-3.36,-2.35,2,3
17408.75,-0.102,-0.274,-0.925,7.51,-6.35,-4.03,2,3
17408.765,-0.099,-0.273,-0.936,6.29,-8.76,-6.65,2,3
17408.781,-0.098,-0.284,-0.964,5.65,-10.53,-10.22,2,3
17408.781,-0.107,-0.314,-0.991,5.52,-9.67,-13.21,2,3
17408.796,-0.11,-0.331,-0.987,7.08,-7.32,-16.02,2,3
17408.812,-0.114,-0.328,-1.002,9.16,-3.45,-18.43,2,3
17408.812,-0.13,-0.305,-1.023,9.55,1.71,-20.23,2,3
17408.828,-0.129,-0.269,-1.045,8.15,8.61,-20.17,2,3
17408.843,-0.129,-0.243,-1.026,7.17,17.0,-20.66,2,3
17408.843,-0.151,-0.212,-0.998,7.14,23.87,-20.97,2,3
17408.859,-0.174,-0.187,-0.956,6.5,27.62,-18.71,2,3
17408.875,-0.182,-0.188,-0.904,6.1,27.65,-14.31,2,3
17408.875,-0.201,-0.187,-0.866,6.35,23.56,-9.22,2,3
17408.89,-0.219,-0.203,-0.864,5.46,16.14,-3.51,2,3
17408.89,-0.221,-0.234,-0.878,4.58,7.9,1.92,2,3
17408.906,-0.231,-0.244,-0.909,3.97,1.71,6.47,2,3
17408.921,-0.22,-0.267,-0.939,2.81,-2.41,10.62,2,3
17408.921,-0.188,-0.301,-0.959,2.53,-3.81,14.37,2,3
17408.937,-0.177,-0.311,-0.987,5.34,-1.13,16.02,2,3
17408.953,-0.185,-0.317,-0.998,8.33,3.63,16.05,2,3
17408.953,-0.186,-0.329,-0.973,7.87,8.09,14.53,2,3
17408.968,-0.2,-0.334,-0.937,6.59,12.39,10.47,2,3
17408.984,-0.216,-0.333,-0.905,5.58,13.0,6.32,2,3
17408.984,-0.226,-0.324,-0.875,3.66,11.08,5.86,2,3
17409.0,-0.217,-0.335,-0.855,2.14,6.71,7.97,2,3
17409.0,-0.222,-0.363,-0.873,1.8,-0.31,10.01,2,3
17409.015,-0.229,-0.382,-0.913,1.95,-5.86,12.21,2,3
17409.031,-0.222,-0.397,-0.946,1.65,-8.21,12.67,2,3
17409.031,-0.215,-0.408,-0.967,2.38,-7.75,10.74,2,3
17409.046,-0.218,-0.393,-0.97,3.33,-5.86,6.81,2,3
17409.062,-0.231,-0.381,-0.958,2.44,-3.57,2.84,2,3
17409.062,-0.241,-0.375,-0.937,1.07,-2.5,0.7,2,3
17409.078,-0.229,-0.368,-0.919,1.83,-2.81,1.22,2,3
17409.093,-0.215,-0.368,-0.908,3.63,-3.11,4.09,2,3
17409.109,-0.21,-0.384,-0.897,6.35,-2.84,8.21,2,3
17409.109,-0.214,-0.381,-0.897,10.19,-2.99,10.77,2,3
17409.125,-0.226,-0.381,-0.905,13.18,-2.93,10.8,2,3
17409.125,-0.226,-0.369,-0.908,13.06,-3.45,7.39,2,3
17409.14,-0.225,-0.372,-0.908,10.01,-5.31,1.5,2,3
17409.14,-0.221,-0.375,-0.901,5.8,-7.54,-4.18,2,3
17409.156,-0.221,-0.386,-0.895,2.81,-10.32,-8.97,2,3
17409.171,-0.222,-0.4,-0.896,2.32,-13.12,-12.21,2,3
17409.171,-0.229,-0.392,-0.907,3.69,-14.98,-14.13,2,3
17409.187,-0.236,-0.383,-0.917,4.61,-16.51,-14.65,2,3
17409.203,-0.228,-0.38,-0.923,4.85,-17.15,-14.01,2,3
17409.218,-0.234,-0.38,-0.932,6.13,-16.88,-13.92,2,3
17409.218,-0.237,-0.383,-0.924,8.09,-16.11,-12.88,2,3
17409.234,-0.233,-0.378,-0.932,11.14,-15.08,-11.69,2,3
17409.234,-0.244,-0.377,-0.967,13.28,-13.03,-11.54,2,3
17409.25,-0.255,-0.396,-0.974,13.12,-10.56,-12.82,2,3
17409.265,-0.275,-0.402,-0.961,13.0,-9.19,-17.12,2,3
17409.265,-0.291,-0.404,-0.943,11.63,-9.19,-22.46,2,3
17409.281,-0.291,-0.406,-0.937,8.91,-11.9,-27.34,2,3
17409.296,-0.283,-0.421,-0.925,5.77,-15.17,-30.64,2,3
17409.296,-0.274,-0.431,-0.924,5.46,-17.33,-32.11,2,3
17409.312,-0.27,-0.427,-0.924,7.35,-17.61,-31.62,2,3
17409.312,-0.268,-0.442,-0.924,9.22,-17.12,-29.15,2,3
17409.328,-0.266,-0.449,-0.928,12.15,-16.08,-26.03,2,3
17409.343,-0.261,-0.445,-0.94,15.35,-14.19,-23.16,2,3
17409.343,-0.256,-0.424,-0.947,17.52,-11.63,-20.81,2,3
17409.359,-0.243,-0.407,-0.944,19.1,-8.58,-17.91,2,3
17409.375,-0.229,-0.397,-0.925,21.21,-5.8,-14.89,2,3
17409.375,-0.227,-0.389,-0.904,23.29,-3.85,-11.35,2,3
17409.39,-0.232,-0.392,-0.892,24.84,-3.27,-6.62,2,3
17409.39,-0.232,-0.408,-0.881,27.34,-3.27,-0.46,2,3
17409.406,-0.233,-0.415,-0.886,30.15,-3.36,6.2,2,3
17409.421,-0.232,-0.425,-0.89,32.62,-3.02,11.84,2,3
17409.421,-0.229,-0.443,-0.889,35.25,-2.38,16.21,2,3
17409.437,-0.228,-0.463,-0.888,37.32,-1.46,19.17,2,3
17409.453,-0.221,-0.486,-0.883,38.42,-1.25,20.63,2,3
17409.453,-0.219,-0.501,-0.886,40.19,-1.1,20.54,2,3
17409.468,-0.221,-0.503,-0.898,41.08,-0.31,18.68,2,3
17409.484,-0.225,-0.508,-0.901,40.31,0.58,15.53,2,3
17409.484,-0.233,-0.508,-0.896,38.51,0.76,12.7,2,3
17409.5,-0.238,-0.516,-0.881,36.99,0.34,10.9,2,3
17409.5,-0.245,-0.518,-0.869,37.9,0.15,12.05,2,3
17409.515,-0.243,-0.535,-0.864,40.99,0.55,16.63,2,3
17409.531,-0.236,-0.562,-0.874,46.42,1.5,21.36,2,3
17409.531,-0.248,-0.552,-0.885,51.45,4.7,22.16,2,3
17409.546,-0.267,-0.552,-0.881,52.25,7.97,18.8,2,3
17409.562,-0.279,-0.55,-0.853,46.33,6.65,6.59,2,3
17409.562,-0.3,-0.546,-0.828,43.15,2.01,2.23,2,3
17409.578,-0.3,-0.548,-0.815,41.9,-3.14,0.24,2,3
17409.593,-0.28,-0.554,-0.849,42.73,-6.16,1.68,2,3
17409.593,-0.273,-0.547,-0.868,45.05,-6.23,4.85,2,3
17409.609,-0.27,-0.561,-0.875,47.94,-3.91,8.24,2,3
17409.625,-0.271,-0.579,-0.873,51.39,-0.4,9.67,2,3
17409.625,-0.288,-0.559,-0.86,53.87,2.9,7.63,2,3
17409.64,-0.302,-0.553,-0.836,51.73,4.21,4.03,2,3
17409.64,-0.301,-0.57,-0.804,48.16,2.35,0.34,2,3
17409.656,-0.305,-0.578,-0.793,47.4,-0.76,-2.44,2,3
17409.671,-0.306,-0.581,-0.796,47.33,-4.21,-3.36,2,3
17409.671,-0.3,-0.576,-0.807,47.55,-7.35,-3.23,2,3
17409.687,-0.292,-0.581,-0.817,47.7,-9.19,-1.89,2,3
17409.703,-0.284,-0.587,-0.825,48.83,-9.77,0.76,2,3
17409.703,-0.262,-0.581,-0.829,51.15,-8.76,3.48,2,3
17409.718,-0.285,-0.57,-0.837,52.67,-6.13,4.76,2,3
17409.734,-0.293,-0.577,-0.846,53.47,-9.37,5.95,2,3
17409.734,-0.285,-0.558,-0.825,52.43,-5.52,5.95,2,3
17409.75,-0.304,-0.579,-0.81,49.44,-0.43,7.23,2,3
17409.765,-0.303,-0.605,-0.787,49.56,-2.14,8.48,2,3
17409.765,-0.295,-0.611,-0.781,52.22,-3.78,10.8,2,3
17409.781,-0.28,-0.608,-0.788,54.17,-3.85,13.12,2,3
17409.781,-0.277,-0.606,-0.794,54.41,-3.3,13.67,2,3
17409.796,-0.279,-0.618,-0.8,52.83,-4.36,13.25,2,3
17409.812,-0.267,-0.631,-0.803,51.3,-6.68,12.05,2,3
17409.812,-0.264,-0.648,-0.806,50.42,-7.66,10.8,2,3
17409.828,-0.251,-0.664,-0.819,50.02,-8.21,8.97,2,3
17409.843,-0.243,-0.657,-0.821,48.83,-7.45,5.58,2,3
17409.843,-0.246,-0.663,-0.804,45.78,-5.86,2.38,2,3
17409.859,-0.247,-0.665,-0.79,45.11,-5.4,1.16,2,3
17409.859,-0.234,-0.646,-0.806,46.69,-6.78,2.78,2,3
17409.875,-0.223,-0.625,-0.838,47.91,-8.21,5.65,2,3
17409.89,-0.232,-0.614,-0.857,47.18,-7.6,7.97,2,3
17409.89,-0.249,-0.648,-0.852,46.02,-5.25,9.89,2,3
17409.906,-0.262,-0.663,-0.832,46.63,-1.46,10.07,2,3
17409.921,-0.272,-0.665,-0.798,45.81,1.56,8.48,2,3
17409.921,-0.269,-0.674,-0.762,44.13,2.2,7.93,2,3
17409.937,-0.264,-0.688,-0.738,43.79,2.72,9.06,2,3
17409.953,-0.263,-0.696,-0.726,44.65,2.96,11.23,2,3
17409.953,-0.252,-0.706,-0.709,45.69,4.09,13.55,2,3
17409.968,-0.25,-0.735,-0.678,46.42,5.74,14.19,2,3
17409.984,-0.256,-0.764,-0.65,47.94,6.99,12.12,2,3
17409.984,-0.259,-0.773,-0.615,48.52,7.08,7.51,2,3
17410.0,-0.27,-0.788,-0.582,46.48,5.16,0.76,2,3
17410.015,-0.279,-0.806,-0.55,43.49,1.46,-6.53,2,3
17410.015,-0.289,-0.81,-0.532,41.29,-3.02,-13.03,2,3
17410.031,-0.289,-0.811,-0.53,39.77,-7.51,-17.37,2,3
17410.031,-0.284,-0.802,-0.542,39.77,-10.86,-19.78,2,3
17410.046,-0.281,-0.791,-0.558,41.02,-12.82,-19.84,2,3
17410.062,-0.275,-0.783,-0.571,42.63,-13.09,-18.59,2,3
17410.078,-0.274,-0.778,-0.575,44.01,-12.36,-17.24,2,3
17410.078,-0.282,-0.778,-0.571,44.86,-10.93,-15.84,2,3
17410.093,-0.29,-0.798,-0.571,46.05,-9.16,-14.44,2,3
17410.093,-0.291,-0.81,-0.565,47.94,-8.36,-13.55,2,3
17410.109,-0.292,-0.818,-0.558,49.07,-7.97,-13.21,2,3
17410.109,-0.293,-0.828,-0.551,48.95,-8.7,-14.28,2,3
17410.125,-0.304,-0.831,-0.546,47.85,-9.8,-15.78,2,3
17410.14,-0.316,-0.834,-0.538,46.17,-10.56,-16.66,2,3
17410.156,-0.32,-0.825,-0.525,45.96,-10.44,-16.51,2,3
17410.156,-0.328,-0.807,-0.523,46.88,-9.83,-14.71,2,3
17410.171,-0.325,-0.791,-0.522,48.4,-9.37,-10.62,2,3
17410.171,-0.318,-0.791,-0.514,50.42,-9.28,-5.98,2,3
17410.187,-0.321,-0.799,-0.508,51.88,-9.77,-2.23,2,3
17410.203,-0.334,-0.808,-0.503,52.4,-10.13,0.82,2,3
17410.203,-0.332,-0.817,-0.497,52.16,-10.83,3.39,2,3
17410.218,-0.326,-0.835,-0.49,52.67,-10.77,6.16,2,3
17410.218,-0.326,-0.841,-0.492,54.26,-10.28,9.09,2,3
17410.234,-0.339,-0.838,-0.492,55.27,-9.06,11.2,2,3
17410.25,-0.344,-0.846,-0.483,55.6,-8.3,13.03,2,3
17410.25,-0.336,-0.859,-0.472,56.06,-8.64,13.86,2,3
17410.265,-0.334,-0.859,-0.461,55.79,-9.03,13.73,2,3
17410.281,-0.345,-0.871,-0.448,54.29,-9.77,12.85,2,3
17410.281,-0.348,-0.892,-0.435,53.62,-11.17,11.9,2,3
17410.296,-0.344,-0.893,-0.432,53.9,-12.63,11.17,2,3
17410.312,-0.337,-0.897,-0.429,53.96,-14.44,10.56,2,3
17410.312,-0.33,-0.908,-0.433,53.93,-15.5,10.22,2,3
17410.328,-0.321,-0.91,-0.436,53.68,-16.75,9.06,2,3
17410.343,-0.324,-0.909,-0.429,52.58,-17.3,5.89,2,3
17410.343,-0.327,-0.926,-0.415,50.81,-17.73,2.69,2,3
17410.359,-0.318,-0.938,-0.404,51.24,-18.1,-1.01,2,3
17410.375,-0.32,-0.927,-0.402,51.33,-17.98,-5.49,2,3
17410.375,-0.322,-0.916,-0.395,48.59,-18.89,-9.49,2,3
17410.39,-0.31,-0.92,-0.38,46.54,-19.84,-12.18,2,3
17410.39,-0.306,-0.923,-0.371,46.48,-20.26,-13.49,2,3
17410.406,-0.312,-0.918,-0.369,47.0,-20.2,-14.16,2,3
17410.421,-0.321,-0.92,-0.363,46.97,-19.59,-15.17,2,3
17410.437,-0.319,-0.941,-0.35,46.05,-19.17,-16.72,2,3
17410.437,-0.3,-0.952,-0.331,45.41,-19.29,-18.71,2,3
17410.453,-0.282,-0.949,-0.323,45.23,-19.84,-21.64,2,3
17410.453,-0.279,-0.947,-0.327,43.98,-21.82,-24.32,2,3
17410.468,-0.266,-0.936,-0.328,41.84,-23.29,-26.73,2,3
17410.484,-0.283,-0.93,-0.335,40.41,-21.91,-28.63,2,3
17410.484,-0.295,-0.937,-0.324,39.95,-21.52,-28.38,2,3
17410.5,-0.299,-0.929,-0.306,41.32,-19.2,-26.7,2,3
17410.515,-0.307,-0.917,-0.295,43.76,-16.08,-22.61,2,3
17410.515,-0.298,-0.911,-0.275,46.08,-13.28,-15.14,2,3
17410.531,-0.301,-0.915,-0.256,49.29,-11.08,-6.04,2,3
17410.531,-0.32,-0.919,-0.245,57.56,-6.87,13.52,2,3
17410.546,-0.325,-0.935,-0.231,61.31,-4.82,19.81,2,3
17410.562,-0.331,-0.947,-0.221,62.23,-4.64,22.98,2,3
17410.562,-0.339,-0.962,-0.206,60.73,-5.71,24.45,2,3
17410.578,-0.341,-1.023,-0.175,59.33,-6.96,24.78,2,3
17410.593,-0.345,-1.046,-0.162,59.18,-8.33,23.01,2,3
17410.609,-0.354,-1.053,-0.16,58.78,-9.8,19.44,2,3
17410.609,-0.359,-1.071,-0.152,57.25,-11.69,15.72,2,3
17410.625,-0.355,-1.081,-0.147,56.03,-13.43,12.18,2,3
17410.625,-0.351,-1.076,-0.146,56.03,-14.71,8.45,2,3
17410.64,-0.343,-1.056,-0.151,56.18,-15.5,5.19,2,3
17410.656,-0.335,-1.034,-0.147,55.6,-15.56,3.17,2,3
17410.656,-0.344,-1.011,-0.143,54.99,-14.98,1.86,2,3
17410.671,-0.353,-0.994,-0.131,53.93,-14.37,1.68,2,3
17410.671,-0.344,-0.996,-0.115,54.08,-14.37,2.26,2,3
17410.687,-0.342,-0.985,-0.116,55.24,-14.1,2.53,2,3
17410.703,-0.354,-0.972,-0.114,54.87,-13.79,2.78,2,3
17410.703,-0.35,-0.976,-0.102,53.68,-13.4,3.51,2,3
17410.718,-0.346,-0.974,-0.095,53.47,-12.48,3.91,2,3
17410.734,-0.345,-0.971,-0.085,53.77,-11.47,4.64,2,3
17410.734,-0.342,-0.963,-0.071,55.09,-10.13,6.01,2,3
17410.75,-0.35,-0.959,-0.053,56.67,-9.16,6.84,2,3
17410.75,-0.36,-0.96,-0.024,56.7,-9.31,7.42,2,3
17410.765,-0.369,-0.961,-0.004,57.1,-10.07,8.45,2,3
17410.781,-0.374,-0.949,0.006,58.23,-11.75,9.92,2,3
17410.796,-0.373,-0.944,0.013,59.14,-13.89,12.15,2,3
17410.796,-0.37,-0.937,0.022,60.0,-16.21,14.74,2,3
17410.812,-0.371,-0.942,0.026,60.79,-18.34,17.21,2,3
17410.812,-0.366,-0.953,0.024,61.31,-20.51,18.86,2,3
17410.828,-0.347,-0.959,0.016,61.71,-22.77,19.53,2,3
17410.843,-0.33,-0.961,0.016,60.82,-23.74,19.1,2,3
17410.843,-0.331,-0.97,0.037,59.94,-22.74,17.76,2,3
17410.859,-0.341,-0.971,0.053,60.18,-21.82,15.81,2,3
17410.875,-0.352,-0.962,0.08,60.95,-20.97,13.98,2,3
17410.875,-0.367,-0.955,0.105,61.49,-20.54,13.15,2,3
17410.89,-0.384,-0.949,0.124,62.07,-21.09,13.64,2,3
17410.906,-0.397,-0.936,0.136,62.69,-22.19,15.75,2,3
17410.906,-0.398,-0.946,0.143,62.81,-23.29,18.13,2,3
17410.921,-0.389,-0.948,0.149,62.93,-24.54,18.95,2,3
17410.921,-0.38,-0.963,0.151,62.04,-25.64,18.4,2,3
17410.937,-0.365,-0.973,0.16,60.85,-27.5,15.56,2,3
17410.953,-0.36,-0.976,0.171,59.72,-29.05,10.71,2,3
17410.953,-0.363,-0.963,0.171,57.86,-30.7,4.52,2,3
17410.968,-0.369,-0.952,0.176,55.09,-32.75,-1.19,2,3
17410.984,-0.371,-0.944,0.186,52.92,-33.78,-4.7,2,3
17410.984,-0.369,-0.917,0.2,52.49,-33.54,-6.13,2,3
17411.0,-0.366,-0.896,0.214,53.47,-32.75,-5.8,2,3
17411.0,-0.349,-0.894,0.215,55.45,-32.59,-3.27,2,3
17411.015,-0.357,-0.862,0.199,57.13,-31.56,0.92,2,3
17411.031,-0.347,-0.838,0.194,57.25,-30.61,2.96,2,3
17411.046,-0.346,-0.831,0.202,55.7,-28.57,4.12,2,3
17411.046,-0.359,-0.838,0.23,54.69,-25.73,6.35,2,3
17411.062,-0.361,-0.83,0.254,55.64,-23.59,9.92,2,3
17411.062,-0.385,-0.822,0.277,57.89,-21.82,14.37,2,3
17411.078,-0.387,-0.814,0.286,59.21,-21.64,18.83,2,3
17411.093,-0.359,-0.817,0.287,59.11,-22.64,22.61,2,3
17411.093,-0.35,-0.821,0.304,58.02,-22.64,24.72,2,3
17411.109,-0.363,-0.858,0.326,56.95,-21.73,26.4,2,3
17411.125,-0.37,-0.883,0.349,57.5,-20.66,28.02,2,3
17411.125,-0.381,-0.887,0.364,59.51,-19.32,29.39,2,3
17411.14,-0.381,-0.899,0.384,60.15,-18.92,29.57,2,3
17411.14,-0.388,-0.908,0.396,59.82,-19.59,27.62,2,3
17411.156,-0.393,-0.918,0.42,58.84,-20.78,24.11,2,3
17411.171,-0.394,-0.947,0.453,57.74,-21.88,21.36,2,3
17411.171,-0.394,-0.955,0.477,57.99,-23.62,19.38,2,3
17411.187,-0.385,-0.954,0.487,57.99,-26.28,17.24,2,3
17411.203,-0.371,-0.947,0.481,57.13,-29.73,14.44,2,3
17411.203,-0.359,-0.929,0.465,56.0,-33.14,10.65,2,3
17411.218,-0.353,-0.93,0.461,54.26,-34.58,8.09,2,3
17411.234,-0.338,-0.937,0.456,54.84,-34.03,6.96,2,3
17411.234,-0.317,-0.922,0.446,57.99,-32.62,5.52,2,3
17411.25,-0.302,-0.907,0.442,59.24,-30.88,3.08,2,3
17411.25,-0.294,-0.884,0.451,58.72,-29.51,-1.07,2,3
17411.265,-0.308,-0.864,0.472,56.89,-28.32,-5.89,2,3
17411.281,-0.33,-0.877,0.495,55.82,-27.59,-8.15,2,3
17411.281,-0.33,-0.867,0.504,58.6,-27.07,-7.23,2,3
17411.296,-0.337,-0.826,0.499,62.9,-26.73,-6.78,2,3
17411.312,-0.35,-0.801,0.505,64.09,-26.73,-6.87,2,3
17411.312,-0.357,-0.772,0.512,63.51,-27.34,-7.84,2,3
17411.328,-0.362,-0.762,0.527,62.65,-28.02,-9.09,2,3
17411.343,-0.367,-0.75,0.537,62.59,-28.6,-8.97,2,3
17411.343,-0.361,-0.737,0.544,63.02,-29.69,-7.39,2,3
17411.359,-0.344,-0.754,0.548,64.24,-30.03,-4.61,2,3
17411.375,-0.34,-0.759,0.545,66.23,-29.05,-2.44,2,3
17411.375,-0.352,-0.763,0.541,67.23,-27.77,-4.91,2,3
17411.39,-0.338,-0.73,0.544,65.77,-27.86,-11.11,2,3
17411.39,-0.337,-0.746,0.572,61.71,-28.35,-8.58,2,3
17411.406,-0.334,-0.753,0.592,60.27,-29.45,-11.87,2,3
17411.421,-0.349,-0.737,0.61,60.37,-29.82,-14.86,2,3
17411.437,-0.356,-0.713,0.617,59.51,-30.88,-15.84,2,3
17411.437,-0.351,-0.7,0.631,59.02,-31.86,-14.98,2,3
17411.453,-0.352,-0.67,0.636,59.79,-32.14,-12.91,2,3
17411.453,-0.364,-0.671,0.658,61.13,-31.1,-9.03,2,3
17411.468,-0.357,-0.646,0.664,62.78,-31.4,-6.16,2,3
17411.484,-0.365,-0.633,0.67,63.66,-32.93,-4.24,2,3
17411.484,-0.377,-0.655,0.695,62.99,-33.81,-0.95,2,3
17411.5,-0.386,-0.684,0.714,64.3,-34.24,2.78,2,3
17411.5,-0.391,-0.686,0.719,68.27,-34.61,5.92,2,3
17411.515,-0.371,-0.66,0.704,71.99,-38.27,5.95,2,3
17411.531,-0.356,-0.596,0.671,67.84,-40.44,2.66,2,3
17411.531,-0.355,-0.578,0.677,63.11,-41.54,0.76,2,3
17411.546,-0.343,-0.557,0.713,63.26,-42.85,0.73,2,3
17411.562,-0.34,-0.559,0.745,64.82,-43.34,3.14,2,3
17411.578,-0.321,-0.556,0.73,67.54,-44.01,6.68,2,3
17411.578,-0.283,-0.519,0.7,68.7,-44.83,7.72,2,3
17411.593,-0.264,-0.494,0.684,67.69,-44.37,6.35,2,3
17411.593,-0.268,-0.493,0.69,65.46,-42.76,5.4,2,3
17411.609,-0.287,-0.478,0.702,64.64,-41.02,4.24,2,3
17411.625,-0.297,-0.49,0.736,65.52,-38.73,4.39,2,3
17411.625,-0.284,-0.447,0.741,67.35,-37.75,5.65,2,3
17411.64,-0.252,-0.382,0.733,68.27,-39.37,5.86,2,3
17411.656,-0.215,-0.344,0.74,65.03,-41.05,5.58,2,3
17411.656,-0.176,-0.301,0.729,60.49,-43.12,3.97,2,3
17411.671,-0.161,-0.265,0.717,55.57,-45.14,1.07,2,3
17411.671,-0.179,-0.285,0.741,49.35,-44.01,2.93,2,3
17411.687,-0.183,-0.325,0.764,48.46,-41.26,9.46,2,3
17411.703,-0.165,-0.33,0.768,54.81,-37.51,17.24,2,3
17411.703,-0.152,-0.305,0.756,60.58,-33.88,25.94,2,3
17411.718,-0.127,-0.283,0.765,60.91,-30.76,32.2,2,3
17411.734,-0.148,-0.335,0.809,58.72,-27.59,35.98,2,3
17411.734,-0.176,-0.361,0.849,58.66,-25.82,38.42,2,3
17411.75,-0.17,-0.343,0.863,60.18,-26.4,37.97,2,3
17411.765,-0.17,-0.317,0.861,58.32,-29.45,35.28,2,3
17411.765,-0.141,-0.294,0.859,53.25,-34.15,31.62,2,3
17411.781,-0.114,-0.302,0.862,48.13,-37.39,27.31,2,3
17411.796,-0.109,-0.314,0.854,46.36,-38.73,23.47,2,3
17411.796,-0.071,-0.293,0.833,46.17,-39.03,20.36,2,3
17411.812,-0.044,-0.281,0.819,44.56,-38.09,15.5,2,3
17411.812,-0.038,-0.251,0.82,42.21,-36.59,9.58,2,3
17411.828,-0.05,-0.234,0.828,39.34,-34.82,6.26,2,3
17411.843,-0.067,-0.214,0.847,36.41,-33.45,6.96,2,3
17411.843,-0.052,-0.21,0.864,34.91,-31.86,13.34,2,3
17411.859,-0.056,-0.168,0.864,37.26,-29.48,18.8,2,3
17411.875,-0.028,-0.193,0.863,39.4,-27.44,25.79,2,3
17411.875,-0.007,-0.157,0.87,39.98,-25.27,30.06,2,3
17411.89,0.015,-0.164,0.888,39.25,-23.19,32.11,2,3
17411.89,0.025,-0.206,0.913,37.45,-21.64,33.05,2,3
17411.906,0.018,-0.257,0.937,36.81,-21.79,32.84,2,3
17411.921,-0.008,-0.313,0.941,37.54,-22.4,32.78,2,3
17411.921,-0.025,-0.33,0.937,38.76,-22.0,32.65,2,3
17411.937,-0.024,-0.307,0.904,40.62,-20.78,31.04,2,3
17411.953,-0.054,-0.258,0.885,40.19,-18.49,26.64,2,3
17411.953,-0.102,-0.222,0.894,38.42,-16.66,20.78,2,3
17411.968,-0.118,-0.192,0.93,37.35,-15.53,15.75,2,3
17411.984,-0.142,-0.167,0.964,38.48,-15.08,13.76,2,3
17411.984,-0.14,-0.127,0.97,39.95,-16.39,15.69,2,3
17412.0,-0.124,-0.083,0.974,39.34,-19.14,18.31,2,3
17412.0,-0.117,-0.117,0.983,37.75,-21.82,23.68,2,3
17412.015,-0.101,-0.148,0.98,39.06,-23.53,29.42,2,3
17412.031,-0.095,-0.15,0.958,42.91,-23.53,32.99,2,3
17412.031,-0.104,-0.151,0.94,43.92,-22.98,34.18,2,3
17412.046,-0.101,-0.157,0.946,42.82,-21.97,34.39,2,3
17412.062,-0.081,-0.148,0.961,41.96,-21.09,32.47,2,3
17412.078,-0.077,-0.126,0.969,41.6,-20.87,29.39,2,3
17412.078,-0.078,-0.118,0.966,40.25,-22.13,27.92,2,3
17412.093,-0.075,-0.094,0.96,39.06,-24.78,25.42,2,3
17412.093,-0.087,-0.054,0.95,36.71,-27.44,22.13,2,3
17412.109,-0.086,-0.049,0.96,32.38,-28.53,20.94,2,3
17412.125,-0.073,-0.049,0.968,31.04,-29.21,21.94,2,3
17412.125,-0.064,-0.026,0.95,32.9,-29.66,23.16,2,3
17412.14,-0.061,0.005,0.927,33.45,-30.03,24.69,2,3
17412.156,-0.08,0.015,0.918,32.26,-29.63,26.37,2,3
17412.156,-0.102,0.027,0.927,31.01,-28.84,26.18,2,3
17412.171,-0.124,0.077,0.923,29.94,-28.5,24.66,2,3
17412.171,-0.133,0.126,0.923,27.07,-28.66,24.99,2,3
17412.187,-0.126,0.151,0.949,23.74,-28.53,31.25,2,3
17412.203,-0.113,0.168,0.973,22.49,-28.84,44.34,2,3
17412.203,-0.075,0.184,0.961,24.96,-29.11,62.29,2,3
17412.218,-0.052,0.181,0.923,29.42,-27.92,82.09,2,3
17412.234,-0.045,0.118,0.886,34.15,-25.27,101.35,2,3
17412.234,-0.066,0.09,0.864,39.22,-20.81,113.28,2,3
17412.25,-0.1,0.096,0.867,39.19,-15.99,117.62,2,3
17412.25,-0.109,0.066,0.912,33.72,-12.33,119.39,2,3
17412.265,-0.099,0.09,0.957,30.21,-11.11,118.66,2,3
17412.281,-0.115,0.138,0.972,28.2,-13.55,119.36,2,3
17412.281,-0.075,0.138,0.973,23.87,-19.44,124.88,2,3
17412.296,-0.06,0.16,0.963,18.62,-26.28,130.13,2,3
17412.312,-0.039,0.184,0.911,16.11,-31.8,138.92,2,3
17412.312,0.021,0.172,0.859,16.42,-32.59,151.19,2,3
17412.328,0.081,0.183,0.833,18.83,-26.43,163.67,2,3
17412.343,0.13,0.106,0.852,24.05,-15.75,173.77,2,3
17412.343,0.131,0.063,0.862,28.66,-7.63,177.77,2,3
17412.359,0.135,0.022,0.889,27.1,-3.57,179.3,2,3
17412.375,0.14,-0.049,0.942,22.16,-1.4,179.05,2,3
17412.375,0.136,-0.086,0.953,20.45,-2.87,175.82,2,3
17412.39,0.176,-0.128,0.958,21.7,-4.82,169.32,2,3
17412.39,0.196,-0.168,0.951,21.91,-6.01,155.0,2,3
17412.406,0.192,-0.239,0.96,18.98,-8.45,133.58,2,3
17412.421,0.195,-0.286,0.983,13.73,-12.42,107.58,2,3
17412.421,0.189,-0.302,1.026,7.11,-16.63,78.34,2,3
17412.437,0.203,-0.277,1.064,-0.27,-22.95,45.78,2,3
17412.453,0.228,-0.222,1.075,-8.67,-32.78,12.42,2,3
17412.468,0.25,-0.168,1.079,-17.52,-44.56,-18.25,2,3
17412.468,0.279,-0.136,1.064,-25.82,-57.04,-43.58,2,3
17412.484,0.291,-0.118,1.015,-31.28,-68.48,-61.71,2,3
17412.484,0.302,-0.085,0.933,-32.38,-76.72,-74.1,2,3
17412.5,0.306,-0.029,0.855,-32.59,-79.13,-84.05,2,3
17412.515,0.276,0.033,0.796,-35.46,-67.69,-91.22,2,3
17412.515,0.229,0.104,0.821,-34.79,-52.13,-76.48,2,3
17412.531,0.225,0.088,0.927,-24.26,-40.53,-54.75,2,3
17412.546,0.235,0.223,0.975,-9.64,-34.58,-28.84,2,3
17412.546,0.229,0.245,0.946,-0.34,-32.65,-3.6,2,3
17412.562,0.207,0.243,0.92,3.23,-32.38,18.31,2,3
17412.562,0.199,0.178,0.94,3.85,-29.88,35.31,2,3
17412.578,0.209,0.12,0.97,5.43,-25.36,49.9,2,3
17412.593,0.227,0.104,1.0,9.55,-21.73,60.09,2,3
17412.593,0.201,0.07,1.005,12.82,-21.58,66.35,2,3
17412.609,0.174,0.03,0.977,12.21,-25.94,70.89,2,3
17412.625,0.156,-0.017,0.945,10.32,-30.92,72.66,2,3
17412.625,0.15,-0.06,0.917,7.87,-33.57,71.08,2,3
17412.64,0.163,-0.08,0.893,5.19,-34.06,65.92,2,3
17412.656,0.177,-0.073,0.872,3.05,-31.77,58.84,2,3
17412.656,0.189,-0.075,0.898,0.03,-26.55,51.88,2,3
17412.671,0.222,-0.084,0.951,-2.01,-20.48,45.69,2,3
17412.687,0.251,-0.078,0.999,-0.18,-16.51,38.58,2,3
17412.687,0.241,-0.076,1.038,2.23,-15.66,32.65,2,3
17412.703,0.251,-0.056,1.059,1.77,-19.07,27.68,2,3
17412.703,0.264,-0.042,1.052,-1.83,-25.21,22.61,2,3
17412.718,0.278,-0.052,1.043,-7.57,-31.83,19.32,2,3
17412.734,0.298,-0.07,1.015,-10.86,-37.35,17.7,2,3
17412.734,0.325,-0.101,0.985,-10.22,-39.37,19.38,2,3
17412.75,0.387,-0.116,0.948,-5.86,-37.78,23.1,2,3
17412.75,0.457,-0.126,0.903,-0.98,-33.45,24.69,2,3
17412.765,0.478,-0.151,0.873,1.25,-28.02,23.68,2,3
17412.781,0.49,-0.163,0.865,2.59,-22.43,21.15,2,3
17412.781,0.493,-0.15,0.863,3.23,-16.72,16.27,2,3
17412.796,0.464,-0.123,0.883,2.29,-10.86,10.38,2,3
17412.812,0.436,-0.102,0.928,1.19,-5.25,5.55,2,3
17412.828,0.405,-0.074,0.963,1.46,-2.14,1.98,2,3
17412.828,0.385,-0.044,0.981,2.59,-2.56,0.82,2,3
17412.828,0.371,-0.014,0.982,2.9,-5.31,0.79,2,3
17412.843,0.365,-0.007,0.977,2.01,-8.27,1.43,2,3
17412.859,0.358,-0.006,0.964,1.46,-10.86,0.73,2,3
17412.875,0.337,-0.003,0.95,1.8,-11.63,-0.27,2,3
17412.875,0.309,0.005,0.936,1.56,-11.57,-1.68,2,3
17412.89,0.288,0.02,0.93,0.0,-11.69,-2.99,2,3
17412.89,0.285,0.034,0.936,-2.35,-10.93,-3.85,2,3
17412.906,0.285,0.03,0.956,-3.91,-9.06,-4.39,2,3
17412.921,0.291,0.046,0.962,-2.75,-7.84,-4.79,2,3
17412.921,0.299,0.055,0.958,-2.47,-7.17,-5.07,2,3
17412.937,0.299,0.044,0.956,-2.78,-6.35,-4.12,2,3
17412.953,0.301,0.047,0.948,-2.66,-6.53,-3.91,2,3
17412.968,0.279,0.053,0.951,-3.14,-7.57,-4.91,2,3
17412.968,0.262,0.057,0.967,-5.4,-8.91,-5.89,2,3
17412.968,0.251,0.034,0.999,-8.09,-10.47,-5.28,2,3
17412.984,0.256,0.005,1.033,-7.97,-12.33,-1.95,2,3
17413.0,0.281,0.004,1.037,-4.58,-15.53,1.46,2,3
17413.015,0.283,-0.014,1.027,-2.11,-19.65,4.7,2,3
17413.015,0.285,-0.027,1.014,-0.95,-24.48,8.0,2,3
17413.031,0.294,-0.037,0.998,0.98,-28.5,10.35,2,3
17413.031,0.303,-0.03,0.977,2.56,-31.77,11.32,2,3
17413.046,0.319,-0.03,0.964,2.78,-34.03,12.94,2,3
17413.062,0.371,-0.026,0.966,3.27,-35.98,15.5,2,3
17413.078,0.411,-0.011,0.954,4.3,-37.87,19.99,2,3
17413.078,0.429,-0.035,0.954,7.78,-37.29,25.3,2,3
