timestamp,ax,ay,az,gx,gy,gz,orient_label,motion_label
17413.093,0.448,-0.07,0.96,16.85,-34.97,26.0,2,3
17413.093,0.428,-0.05,0.904,26.83,-33.2,24.6,2,3
17413.109,0.442,-0.017,0.857,25.91,-30.09,25.45,2,3
17413.109,0.444,-0.038,0.84,17.67,-25.76,25.09,2,3
17413.125,0.468,-0.095,0.813,9.13,-20.84,24.6,2,3
17413.14,0.484,-0.154,0.822,3.88,-13.82,21.39,2,3
17413.14,0.466,-0.172,0.826,6.07,-6.47,16.36,2,3
17413.156,0.48,-0.128,0.808,9.28,1.65,13.52,2,3
17413.171,0.462,-0.091,0.818,6.93,10.71,8.06,2,3
17413.171,0.429,-0.118,0.87,2.17,19.29,2.56,2,3
17413.187,0.375,-0.135,0.925,2.44,26.22,-2.11,2,3
17413.203,0.342,-0.1,0.968,5.74,30.24,-4.49,2,3
17413.203,0.331,-0.049,0.992,7.26,30.3,-5.71,2,3
17413.218,0.308,-0.007,1.002,4.7,26.98,-6.32,2,3
17413.234,0.296,-0.015,1.023,1.28,22.22,-5.37,2,3
17413.234,0.293,-0.024,1.032,0.73,16.24,-3.63,2,3
17413.25,0.286,-0.021,1.02,3.63,10.53,-1.68,2,3
17413.265,0.291,0.016,0.972,7.08,3.2,0.09,2,3
17413.281,0.299,0.031,0.946,5.52,2.11,-0.03,2,3
17413.281,0.311,0.016,0.939,2.17,1.56,-1.62,2,3
17413.296,0.298,-0.01,0.942,-0.4,1.56,-2.75,2,3
17413.312,0.305,-0.02,0.951,-0.64,1.95,-2.9,2,3
17413.312,0.317,-0.013,0.953,0.67,2.38,-3.08,2,3
17413.328,0.341,0.002,0.944,2.01,2.75,-3.08,2,3
17413.343,0.362,0.018,0.936,2.66,3.08,-3.27,2,3
17413.343,0.356,0.022,0.93,2.99,2.87,-3.57,2,3
17413.359,0.351,0.026,0.923,2.69,1.98,-2.87,2,3
17413.359,0.346,0.038,0.909,2.56,2.01,-1.04,2,3
17413.375,0.349,0.04,0.909,1.4,2.96,0.89,2,3
17413.39,0.341,0.028,0.918,0.12,4.49,2.2,2,3
17413.39,0.334,0.034,0.921,0.79,6.13,2.9,2,3
17413.406,0.351,0.034,0.927,1.95,7.57,4.06,2,3
17413.421,0.357,0.014,0.931,3.2,8.24,6.13,2,3
17413.437,0.349,0.024,0.921,6.35,7.75,6.1,2,3
17413.453,0.339,0.034,0.916,4.64,7.66,4.06,2,3
17413.453,0.334,0.038,0.923,0.12,8.15,1.77,2,3
17413.468,0.335,0.029,0.945,-3.81,8.55,0.37,2,3
17413.484,0.357,0.035,0.95,-3.85,7.6,-0.37,2,3
17413.484,0.384,0.047,0.936,-1.43,4.61,2.26,2,3
17413.5,0.406,0.059,0.918,-1.25,3.97,4.39,2,3
17413.515,0.424,0.052,0.892,-0.92,5.04,6.71,2,3
17413.515,0.419,0.05,0.871,-0.76,8.03,8.03,2,3
17413.531,0.423,0.059,0.854,-1.89,11.99,7.63,2,3
17413.531,0.417,0.072,0.869,-3.14,16.39,5.95,2,3
17413.546,0.41,0.095,0.883,-4.24,19.07,4.21,2,3
17413.562,0.418,0.128,0.891,-6.16,18.8,3.51,2,3
17413.562,0.451,0.158,0.89,-9.22,16.05,4.67,2,3
17413.578,0.498,0.191,0.873,-12.51,12.54,8.15,2,3
17413.593,0.533,0.216,0.847,-14.5,9.98,13.25,2,3
17413.609,0.569,0.238,0.79,-13.37,11.57,30.34,2,3
17413.625,0.543,0.224,0.77,-10.32,16.08,42.21,2,3
17413.625,0.508,0.195,0.76,-5.62,22.52,56.22,2,3
17413.64,0.491,0.195,0.751,0.37,28.63,69.15,2,3
17413.64,0.47,0.195,0.746,5.04,34.12,79.84,2,3
17413.656,0.442,0.185,0.74,7.32,38.3,87.77,2,3
17413.671,0.402,0.175,0.732,7.97,40.25,92.53,2,3
17413.671,0.369,0.171,0.717,6.93,40.56,94.67,2,3
17413.687,0.344,0.136,0.711,3.54,39.74,92.78,2,3
17413.703,0.312,0.12,0.71,-0.46,39.12,83.86,2,3
17413.703,0.295,0.109,0.702,-7.26,41.23,73.24,2,3
17413.718,0.253,0.116,0.7,-19.75,43.34,60.27,2,3
17413.734,0.203,0.137,0.709,-35.4,41.6,47.33,2,3
17413.734,0.209,0.125,0.739,-51.55,36.5,38.27,2,3
17413.75,0.268,0.08,0.743,-64.03,27.01,35.07,2,3
17413.75,0.237,0.08,0.719,-70.01,16.88,36.26,2,3
17413.781,0.169,0.013,0.655,-67.87,5.92,53.93,2,3
17413.796,0.121,0.002,0.605,-63.81,3.91,63.11,2,3
17413.796,0.059,-0.004,0.564,-60.21,4.67,72.15,2,3
17413.812,0.004,-0.053,0.561,-57.53,7.72,83.96,2,3
17413.812,-0.016,-0.122,0.576,-52.1,11.02,97.48,2,3
17413.828,-0.039,-0.151,0.601,-42.02,14.47,111.97,2,3
17413.843,-0.084,-0.148,0.61,-31.16,15.02,128.21,2,3
17413.843,-0.088,-0.167,0.62,-24.96,12.27,146.92,2,3
17413.859,-0.075,-0.193,0.626,-19.29,6.74,163.24,2,3
17413.875,-0.04,-0.182,0.613,-12.24,-2.93,173.01,2,3
17413.875,-0.056,-0.125,0.55,-7.57,-14.19,175.7,2,3
17413.89,-0.049,-0.093,0.485,-11.2,-22.83,177.28,2,3
17413.89,-0.027,-0.09,0.462,-21.76,-27.31,174.47,2,3
17413.906,-0.084,-0.104,0.449,-31.31,-27.71,166.66,2,3
17413.921,-0.093,-0.12,0.434,-39.43,-27.99,160.99,2,3
17413.921,-0.099,-0.133,0.427,-47.36,-28.29,155.86,2,3
17413.953,-0.032,-0.196,0.439,-52.13,-24.9,148.26,2,3
17413.953,-0.054,-0.231,0.445,-51.15,-17.0,140.93,2,3
17413.968,-0.054,-0.196,0.447,-52.1,-9.31,133.3,2,3
17413.984,-0.134,-0.218,0.449,-59.08,-1.13,124.12,2,3
17413.984,-0.178,-0.24,0.492,-68.67,8.03,122.9,2,3
17414.0,-0.15,-0.319,0.571,-78.65,16.51,121.01,2,3
17414.0,-0.198,-0.284,0.658,-80.97,24.69,118.05,2,3
17414.015,-0.225,-0.371,0.67,-77.85,29.76,115.09,2,3
17414.031,-0.239,-0.389,0.712,-77.46,32.59,112.13,2,3
17414.031,-0.262,-0.385,0.722,-74.77,29.51,104.5,2,3
17414.046,-0.283,-0.403,0.732,-73.82,25.21,96.38,2,3
17414.062,-0.309,-0.292,0.757,-73.06,19.47,95.34,2,3
17414.062,-0.325,-0.293,0.755,-77.49,12.33,95.61,2,3
17414.078,-0.344,-0.339,0.776,-86.09,6.01,101.35,2,3
17414.093,-0.375,-0.354,0.81,-87.13,2.35,109.71,2,3
17414.093,-0.36,-0.378,0.804,-76.17,-0.24,128.06,2,3
17414.109,-0.297,-0.44,0.811,-57.34,3.02,146.82,2,3
17414.125,-0.239,-0.463,0.815,-28.93,9.03,161.23,2,3
17414.125,-0.231,-0.356,0.799,2.04,16.39,168.52,2,3
17414.14,-0.276,-0.268,0.772,25.36,24.2,169.01,2,3
17414.14,-0.36,-0.177,0.792,28.44,30.64,170.51,2,3
17414.156,-0.43,-0.16,0.844,17.58,31.46,176.37,2,3
17414.171,-0.473,-0.253,0.901,7.9,27.71,183.29,2,3
17414.171,-0.455,-0.326,0.944,8.27,21.09,188.27,2,3
17414.187,-0.403,-0.284,0.944,18.74,14.83,186.53,2,3
17414.203,-0.406,-0.229,0.912,32.47,10.59,179.08,2,3
17414.203,-0.401,-0.171,0.897,41.72,8.18,170.84,2,3
17414.218,-0.394,-0.132,0.907,45.93,8.55,167.85,2,3
17414.234,-0.42,-0.173,0.929,52.71,12.39,170.69,2,3
17414.234,-0.422,-0.207,0.935,66.5,18.62,177.04,2,3
17414.25,-0.351,-0.229,0.935,86.83,27.28,186.16,2,3
17414.265,-0.313,-0.249,0.929,114.54,38.67,195.38,2,3
17414.281,-0.212,-0.188,0.884,179.6,65.92,206.34,2,3
17414.281,-0.192,-0.11,0.856,209.3,85.33,206.4,2,3
17414.296,-0.224,-0.035,0.834,232.0,106.57,204.05,2,3
17414.312,-0.289,0.037,0.828,247.23,126.9,199.26,2,3
17414.312,-0.341,0.1,0.837,256.14,144.6,192.6,2,3
17414.328,-0.442,0.143,0.867,258.89,160.86,182.68,2,3
17414.343,-0.51,0.151,0.954,258.43,174.96,172.15,2,3
17414.343,-0.502,0.19,1.022,255.87,186.28,162.02,2,3
17414.359,-0.49,0.252,1.07,254.28,187.23,150.73,2,3
17414.375,-0.459,0.299,1.072,258.25,179.17,139.41,2,3
17414.375,-0.461,0.387,1.046,264.2,165.44,129.37,2,3
17414.39,-0.511,0.445,1.118,274.12,146.0,119.54,2,3
17414.39,-0.629,0.45,1.059,294.99,113.5,108.25,2,3
17414.406,-0.677,0.619,0.95,307.2,83.19,91.74,2,3
17414.421,-0.769,0.76,0.971,303.14,63.6,75.01,2,3
17414.421,-0.804,0.802,0.94,290.44,43.28,57.07,2,3
17414.437,-0.759,0.845,0.888,267.68,24.35,39.92,2,3
17414.453,-0.711,0.886,0.834,241.89,7.97,25.36,2,3
17414.453,-0.685,0.885,0.803,215.58,-4.09,17.55,2,3
17414.468,-0.708,0.764,0.816,192.45,-12.73,11.41,2,3
17414.484,-0.669,0.651,0.932,171.67,-26.31,-21.27,2,3
17414.484,-0.68,0.655,0.933,161.44,-37.87,-49.62,2,3
17414.5,-0.73,0.734,0.846,139.29,-51.42,-71.9,2,3
17414.515,-0.902,0.959,0.713,110.75,-67.29,-86.64,2,3
17414.515,-0.888,0.942,0.592,78.01,-79.5,-89.66,2,3
17414.531,-0.851,0.89,0.483,46.36,-80.08,-85.51,2,3
17414.531,-0.78,0.852,0.482,21.18,-65.58,-78.07,2,3
17414.546,-0.678,0.763,0.534,2.17,-39.77,-68.79,2,3
17414.562,-0.607,0.615,0.584,-13.12,-6.29,-62.62,2,3
17414.578,-0.582,0.502,0.633,-24.84,30.15,-62.62,2,3
17414.578,-0.582,0.413,0.639,-34.18,63.66,-70.38,2,3
17414.593,-0.644,0.331,0.639,-46.69,93.08,-88.6,2,3
17414.593,-0.762,0.413,0.756,-63.57,116.31,-112.95,2,3
17414.609,-0.934,0.552,0.867,-76.36,121.25,-123.54,2,3
17414.609,-1.098,0.541,0.902,-84.54,108.16,-109.59,2,3
17414.625,-1.185,0.501,0.903,-87.47,81.73,-80.39,2,3
17414.64,-1.112,0.471,0.879,-77.3,53.29,-52.49,2,3
17414.64,-1.042,0.385,0.816,-54.57,33.54,-38.82,2,3
17414.656,-1.015,0.268,0.763,-28.63,25.64,-38.79,2,3
17414.671,-1.011,0.214,0.732,-4.73,27.95,-44.86,2,3
17414.687,-1.032,0.213,0.679,18.25,37.72,-50.66,2,3
17414.687,-1.069,0.246,0.639,37.51,50.48,-54.57,2,3
17414.703,-1.131,0.339,0.624,53.9,62.26,-53.74,2,3
17414.703,-1.19,0.461,0.606,67.08,71.26,-43.4,2,3
17414.718,-1.2,0.455,0.617,81.12,77.03,-28.81,2,3
17414.734,-1.167,0.456,0.582,97.84,72.15,-22.55,2,3
17414.734,-1.142,0.501,0.551,114.38,65.65,-16.6,2,3
17414.75,-1.13,0.543,0.506,131.78,58.44,-8.48,2,3
17414.765,-1.105,0.576,0.47,146.98,50.87,2.17,2,3
17414.781,-1.033,0.72,0.373,162.27,44.16,7.48,2,3
17414.781,-1.018,0.816,0.365,159.03,47.7,2.32,2,3
17414.796,-1.014,0.841,0.352,154.7,54.9,2.38,2,3
17414.812,-0.984,0.869,0.329,150.98,61.95,4.24,2,3
17414.812,-0.947,0.944,0.323,149.36,66.32,5.86,2,3
17414.828,-0.928,0.959,0.297,152.44,70.41,14.89,2,3
17414.843,-0.899,0.948,0.263,160.07,76.39,29.42,2,3
17414.843,-0.86,0.989,0.239,174.05,81.97,41.26,2,3
17414.859,-0.828,1.018,0.197,193.4,87.25,51.55,2,3
17414.875,-0.802,1.023,0.127,210.52,92.75,64.36,2,3
17414.875,-0.798,1.08,0.059,221.9,96.77,76.69,2,3
17414.89,-0.78,1.135,-0.005,227.21,99.58,88.32,2,3
17414.906,-0.749,1.173,-0.061,224.04,104.13,101.14,2,3
17414.906,-0.737,1.207,-0.093,210.94,106.36,110.9,2,3
17414.921,-0.739,1.207,-0.116,193.03,103.67,116.67,2,3
17414.937,-0.741,1.214,-0.141,171.85,96.22,119.51,2,3
17414.937,-0.722,1.208,-0.168,145.91,83.19,121.77,2,3
17414.953,-0.702,1.194,-0.187,115.88,66.68,124.82,2,3
17414.968,-0.697,1.187,-0.204,83.83,48.19,129.52,2,3
17414.968,-0.692,1.18,-0.213,49.71,27.74,137.0,2,3
17414.984,-0.667,1.145,-0.22,16.05,8.64,146.34,2,3
17414.984,-0.611,1.075,-0.224,-14.28,-6.53,153.2,2,3
17415.0,-0.551,0.983,-0.225,-39.55,-16.27,155.03,2,3
17415.015,-0.504,0.897,-0.206,-60.18,-22.89,152.04,2,3
17415.015,-0.465,0.819,-0.175,-75.56,-28.2,145.51,2,3
17415.031,-0.457,0.791,-0.136,-84.87,-33.39,137.76,2,3
17415.031,-0.478,0.801,-0.115,-90.98,-40.28,133.09,2,3
17415.046,-0.48,0.8,-0.106,-99.28,-49.44,132.08,2,3
17415.062,-0.463,0.83,-0.095,-112.98,-58.99,130.83,2,3
17415.078,-0.46,0.86,-0.106,-136.36,-70.01,127.84,2,3
17415.078,-0.455,0.853,-0.108,-172.43,-85.39,122.32,2,3
17415.093,-0.428,0.805,-0.084,-215.0,-104.43,113.74,2,3
17415.109,-0.364,0.648,-0.02,-291.45,-140.69,93.6,2,3
17415.125,-0.326,0.552,0.006,-314.25,-152.29,85.54,2,3
17415.125,-0.31,0.487,0.034,-324.66,-158.27,77.21,2,3
17415.14,-0.299,0.442,0.076,-324.32,-160.47,69.31,2,3
17415.156,-0.291,0.428,0.129,-315.35,-158.18,63.17,2,3
17415.156,-0.296,0.467,0.189,-300.91,-151.31,57.44,2,3
17415.171,-0.297,0.538,0.249,-285.13,-141.42,50.14,2,3
17415.171,-0.309,0.61,0.33,-270.79,-129.25,41.9,2,3
17415.187,-0.327,0.633,0.407,-256.29,-119.08,34.03,2,3
17415.203,-0.317,0.624,0.478,-240.03,-108.92,28.29,2,3
17415.203,-0.307,0.591,0.509,-221.81,-98.67,25.09,2,3
17415.218,-0.297,0.554,0.512,-201.82,-87.89,22.95,2,3
17415.234,-0.284,0.524,0.506,-182.38,-76.66,20.81,2,3
17415.234,-0.275,0.526,0.52,-165.44,-65.49,17.12,2,3
17415.25,-0.278,0.573,0.558,-151.34,-50.14,9.58,2,3
17415.25,-0.284,0.612,0.62,-141.42,-32.47,2.44,2,3
17415.265,-0.328,0.617,0.689,-132.36,-15.56,-2.81,2,3
17415.281,-0.326,0.623,0.77,-120.85,1.43,-2.47,2,3
17415.296,-0.345,0.658,0.816,-104.43,15.44,-7.72,2,3
17415.296,-0.4,0.589,0.813,-89.08,20.63,-11.17,2,3
17415.312,-0.395,0.551,0.827,-78.22,23.68,-11.6,2,3
17415.312,-0.411,0.572,0.827,-67.11,21.52,-15.41,2,3
17415.328,-0.415,0.55,0.825,-56.43,13.89,-17.18,2,3
17415.343,-0.42,0.554,0.831,-47.03,4.91,-16.51,2,3
17415.343,-0.413,0.538,0.81,-39.89,-4.55,-10.74,2,3
17415.359,-0.373,0.541,0.797,-37.39,-12.48,-1.37,2,3
17415.375,-0.323,0.558,0.779,-36.38,-17.21,5.71,2,3
17415.375,-0.29,0.549,0.757,-36.07,-18.56,9.31,2,3
17415.39,-0.281,0.535,0.75,-38.67,-18.59,10.62,2,3
17415.39,-0.262,0.535,0.758,-43.46,-18.31,10.86,2,3
17415.406,-0.242,0.527,0.772,-47.7,-18.46,9.4,2,3
17415.421,-0.232,0.497,0.778,-49.65,-19.14,6.99,2,3
17415.437,-0.221,0.468,0.774,-48.62,-19.87,4.39,2,3
17415.437,-0.208,0.445,0.777,-43.34,-19.41,2.2,2,3
17415.453,-0.199,0.444,0.789,-34.46,-16.33,1.22,2,3
17415.453,-0.191,0.455,0.795,-16.21,-4.49,1.22,2,3
17415.468,-0.193,0.472,0.801,-11.54,1.25,0.58,2,3
17415.484,-0.202,0.499,0.826,-10.04,4.3,-0.09,2,3
17415.484,-0.214,0.516,0.845,-11.87,2.9,-0.67,2,3
17415.5,-0.222,0.528,0.863,-15.47,-1.71,-0.46,2,3
17415.5,-0.209,0.525,0.842,-18.31,-6.68,0.15,2,3
17415.515,-0.192,0.513,0.831,-20.84,-9.52,0.73,2,3
17415.531,-0.179,0.51,0.827,-22.37,-8.61,0.43,2,3
17415.546,-0.17,0.492,0.821,-21.45,-5.22,-0.79,2,3
17415.546,-0.163,0.486,0.834,-18.68,0.89,-2.93,2,3
17415.562,-0.173,0.492,0.859,-12.6,9.03,-5.83,2,3
17415.562,-0.196,0.491,0.868,-3.3,16.17,-8.61,2,3
17415.578,-0.226,0.517,0.878,5.43,22.13,-10.32,2,3
17415.593,-0.298,0.571,0.901,10.07,24.2,-11.32,2,3
17415.593,-0.334,0.63,0.941,4.85,17.52,-10.28,2,3
17415.609,-0.316,0.644,0.949,-6.38,4.52,-7.6,2,3
17415.625,-0.284,0.604,0.913,-15.96,-7.51,-5.25,2,3
17415.625,-0.236,0.55,0.875,-22.4,-14.16,-2.41,2,3
17415.64,-0.207,0.494,0.849,-21.58,-14.83,-0.12,2,3
17415.64,-0.195,0.447,0.834,-15.41,-12.45,0.4,2,3
17415.656,-0.189,0.425,0.835,-8.0,-9.89,-0.92,2,3
17415.671,-0.2,0.423,0.824,-1.25,-7.32,-3.48,2,3
17415.671,-0.191,0.444,0.792,1.07,-5.31,-4.88,2,3
17415.687,-0.12,0.439,0.769,4.06,1.25,-3.39,2,3
17415.703,-0.284,0.417,0.83,9.55,10.71,-2.72,2,3
17415.703,-0.296,0.619,0.949,-7.78,4.36,0.89,2,3
17415.718,-0.211,0.566,0.934,-13.92,-4.15,5.77,2,3
17415.718,-0.233,0.484,0.912,-15.11,-6.68,4.49,2,3
17415.734,-0.193,0.47,0.917,-15.32,-5.77,5.07,2,3
17415.75,-0.182,0.463,0.922,-6.23,-1.65,3.72,2,3
17415.75,-0.215,0.469,0.934,4.97,2.47,2.56,2,3
17415.765,-0.225,0.481,0.934,13.18,2.5,2.08,2,3
17415.781,-0.226,0.477,0.925,20.36,-0.03,1.04,2,3
17415.781,-0.232,0.476,0.89,27.28,-3.54,-0.4,2,3
17415.796,-0.231,0.488,0.85,30.4,-7.29,-1.74,2,3
17415.812,-0.229,0.511,0.846,25.64,-11.6,-4.27,2,3
17415.828,-0.261,0.561,0.852,16.51,-18.07,-5.58,2,3
17415.828,-0.164,0.592,0.812,5.49,-24.05,-2.69,2,3
17415.843,-0.145,0.463,0.761,4.88,-21.45,-1.07,2,3
17415.843,-0.186,0.484,0.797,-1.07,-17.43,-0.55,2,3
17415.859,-0.145,0.554,0.854,-10.16,-17.09,3.39,2,3
17415.875,-0.132,0.493,0.832,-9.13,-16.91,4.91,2,3
17415.875,-0.139,0.442,0.814,-6.38,-15.26,4.64,2,3
17415.89,-0.125,0.455,0.813,-4.67,-13.55,4.82,2,3
17415.89,-0.111,0.443,0.799,0.27,-11.38,4.27,2,3
17415.906,-0.099,0.425,0.781,4.85,-7.9,3.39,2,3
17415.921,-0.093,0.426,0.775,7.57,-2.72,2.08,2,3
17415.921,-0.101,0.436,0.782,8.79,2.93,0.4,2,3
17415.937,-0.112,0.442,0.79,8.94,7.45,-1.04,2,3
17415.953,-0.125,0.446,0.801,8.09,10.71,-1.59,2,3
17415.953,-0.141,0.456,0.812,6.56,11.99,-2.04,2,3
17415.968,-0.163,0.469,0.838,4.24,11.2,-2.32,2,3
17415.984,-0.182,0.484,0.862,1.31,8.15,-1.95,2,3
17415.984,-0.187,0.493,0.879,-2.84,3.02,-1.1,2,3
17416.0,-0.18,0.497,0.886,-6.65,-1.95,-0.43,2,3
17416.015,-0.171,0.489,0.882,-8.79,-5.25,-0.27,2,3
17416.015,-0.165,0.479,0.872,-9.0,-6.53,-0.52,2,3
17416.031,-0.163,0.473,0.862,-7.51,-6.16,-0.67,2,3
17416.031,-0.163,0.469,0.856,-5.28,-4.76,-1.01,2,3
17416.046,-0.163,0.461,0.85,-2.59,-2.99,-1.5,2,3
17416.062,-0.162,0.451,0.846,-0.06,-1.1,-2.23,2,3
17416.062,-0.162,0.45,0.838,1.68,0.67,-3.33,2,3
17416.078,-0.167,0.454,0.833,3.08,2.47,-4.36,2,3
17416.093,-0.18,0.463,0.836,4.15,4.0,-5.34,2,3
17416.093,-0.192,0.473,0.834,4.39,4.76,-5.92,2,3
17416.109,-0.198,0.483,0.834,3.94,5.04,-5.95,2,3
17416.109,-0.203,0.487,0.832,2.84,5.01,-5.68,2,3
17416.125,-0.209,0.487,0.83,1.43,4.94,-5.37,2,3
17416.14,-0.207,0.481,0.829,0.37,4.67,-4.82,2,3
17416.14,-0.213,0.476,0.832,0.64,3.91,-4.06,2,3
17416.156,-0.216,0.487,0.835,0.31,1.92,-3.27,2,3
17416.171,-0.197,0.494,0.834,-1.22,-0.73,-2.9,2,3
17416.171,-0.189,0.478,0.821,-1.43,-2.04,-3.51,2,3
17416.187,-0.186,0.468,0.818,-1.19,-1.37,-4.06,2,3
17416.203,-0.183,0.481,0.824,-1.1,0.27,-4.33,2,3
17416.203,-0.192,0.488,0.835,-0.43,1.62,-4.33,2,3
17416.218,-0.2,0.486,0.841,0.43,1.92,-4.06,2,3
17416.234,-0.199,0.485,0.843,0.61,1.77,-3.48,2,3
17416.234,-0.192,0.483,0.853,1.19,2.23,-1.4,2,3
17416.25,-0.168,0.478,0.832,4.67,3.39,1.65,2,3
17416.25,-0.108,0.415,0.792,11.32,8.21,1.89,2,3
17416.265,-0.255,0.439,0.886,17.21,13.18,-2.26,2,3
17416.281,-0.218,0.593,0.98,11.08,6.93,0.49,2,3
17416.281,-0.205,0.61,0.947,9.34,-0.21,2.01,2,3
17416.296,-0.218,0.602,0.915,2.53,-3.75,4.18,2,3
17416.312,-0.177,0.589,0.897,-5.83,-5.77,7.84,2,3
17416.312,-0.183,0.541,0.881,-7.11,-5.34,8.36,2,3
17416.328,-0.201,0.505,0.886,-4.64,-4.85,7.75,2,3
17416.343,-0.216,0.486,0.888,2.66,-6.62,5.83,2,3
17416.343,-0.234,0.479,0.888,11.41,-10.71,3.42,2,3
17416.359,-0.226,0.511,0.88,18.65,-15.29,3.6,2,3
17416.375,-0.236,0.57,0.862,20.57,-19.81,5.19,2,3
17416.375,-0.123,0.558,0.809,16.39,-22.22,8.48,2,3
17416.39,-0.146,0.476,0.751,13.61,-18.04,5.55,2,3
17416.39,-0.172,0.525,0.776,4.09,-13.46,4.24,2,3
17416.406,-0.139,0.522,0.806,-5.49,-12.48,3.88,2,3
17416.421,-0.153,0.506,0.825,-14.47,-13.7,1.59,2,3
17416.421,-0.159,0.468,0.815,-12.94,-12.18,4.94,2,3
17416.437,-0.138,0.452,0.817,-9.25,-11.38,4.43,2,3
17416.453,-0.133,0.453,0.819,-5.04,-9.28,2.5,2,3
17416.453,-0.128,0.448,0.822,-0.18,-6.96,0.09,2,3
17416.468,-0.127,0.445,0.815,3.6,-4.21,-1.83,2,3
17416.484,-0.127,0.463,0.795,5.86,-1.22,-3.48,2,3
17416.484,-0.13,0.471,0.794,7.14,1.71,-4.24,2,3
17416.5,-0.135,0.478,0.79,6.93,3.81,-4.88,2,3
17416.5,-0.143,0.483,0.795,5.43,5.13,-5.46,2,3
17416.515,-0.157,0.489,0.807,4.12,5.65,-5.86,2,3
17416.531,-0.164,0.499,0.819,2.72,5.1,-5.92,2,3
17416.531,-0.167,0.512,0.827,0.64,3.51,-5.62,2,3
17416.546,-0.174,0.517,0.829,-1.22,2.04,-5.13,2,3
17416.562,-0.173,0.518,0.834,-2.44,0.85,-4.43,2,3
17416.562,-0.172,0.516,0.839,-2.75,0.21,-3.45,2,3
17416.578,-0.169,0.508,0.835,-1.86,-0.06,-2.66,2,3
17416.593,-0.166,0.508,0.834,-0.46,0.27,-2.01,2,3
17416.593,-0.164,0.518,0.834,0.98,1.07,-1.68,2,3
17416.609,-0.166,0.519,0.829,2.14,1.62,-1.53,2,3
17416.625,-0.167,0.518,0.824,2.2,2.11,-1.28,2,3
17416.64,-0.168,0.509,0.812,1.1,2.53,-0.09,2,3
17416.64,-0.162,0.501,0.805,0.64,2.59,-0.12,2,3
17416.656,-0.157,0.492,0.8,0.52,3.33,-0.37,2,3
17416.671,-0.155,0.481,0.795,1.31,4.91,-0.79,2,3
17416.671,-0.156,0.472,0.801,2.75,6.87,-1.46,2,3
17416.687,-0.168,0.484,0.824,1.92,8.06,-2.75,2,3
17416.703,-0.177,0.499,0.846,-0.46,7.2,-3.69,2,3
17416.718,-0.181,0.489,0.857,-1.5,5.16,-4.36,2,3
17416.718,-0.179,0.479,0.854,-2.56,3.39,-4.46,2,3
17416.734,-0.172,0.48,0.85,-3.02,2.99,-3.48,2,3
17416.734,-0.159,0.489,0.849,-1.77,5.07,-2.23,2,3
17416.75,-0.134,0.495,0.829,0.37,9.0,-2.14,2,3
17416.765,-0.139,0.434,0.814,6.99,16.97,-4.06,2,3
17416.765,-0.311,0.531,0.912,6.65,20.39,-7.57,2,3
17416.781,-0.261,0.68,0.991,-4.33,10.65,-3.33,2,3
17416.781,-0.26,0.587,0.938,-2.56,1.16,0.58,2,3
17416.812,-0.181,0.529,0.862,-6.96,-4.64,6.1,2,3
17416.812,-0.2,0.49,0.85,-0.98,-2.04,4.85,2,3
17416.828,-0.215,0.498,0.85,4.82,-1.46,4.52,2,3
17416.843,-0.209,0.508,0.847,9.46,-4.3,3.88,2,3
17416.843,-0.202,0.509,0.835,11.14,-6.84,2.96,2,3
17416.859,-0.213,0.531,0.826,9.52,-8.3,2.26,2,3
17416.875,-0.222,0.578,0.841,3.17,-10.93,3.51,2,3
17416.875,-0.115,0.545,0.791,-0.67,-10.96,6.16,2,3
17416.89,-0.187,0.443,0.758,3.63,-4.03,4.27,2,3
17416.89,-0.188,0.523,0.818,-1.8,-0.73,4.27,2,3
17416.906,-0.188,0.512,0.831,0.06,-0.82,4.18,2,3
17416.921,-0.21,0.491,0.826,2.14,-2.29,3.63,2,3
17416.921,-0.197,0.521,0.837,0.79,-4.39,5.4,2,3
17416.937,-0.173,0.522,0.824,-0.61,-6.2,6.32,2,3
17416.953,-0.169,0.479,0.806,-1.65,-6.35,5.34,2,3
17416.953,-0.167,0.474,0.805,-2.41,-5.31,4.03,2,3
17416.984,-0.156,0.465,0.807,-0.09,-2.11,0.67,2,3
17417.0,-0.167,0.479,0.811,1.5,0.0,-0.95,2,3
17417.0,-0.168,0.483,0.813,2.29,0.64,-1.92,2,3
17417.0,-0.174,0.484,0.817,3.17,1.22,-2.26,2,3
17417.015,-0.19,0.501,0.82,3.75,1.28,-2.38,2,3
17417.031,-0.196,0.517,0.827,3.08,0.12,-2.38,2,3
17417.031,-0.197,0.528,0.83,1.74,-1.04,-2.29,2,3
17417.046,-0.206,0.528,0.829,1.19,-1.83,-1.89,2,3
17417.062,-0.22,0.541,0.838,1.04,-1.5,-1.31,2,3
17417.062,-0.26,0.547,0.848,1.53,0.34,-0.89,2,3
17417.078,-0.302,0.541,0.858,1.74,2.35,-0.46,2,3
17417.093,-0.343,0.543,0.874,2.26,4.73,-0.18,2,3
17417.093,-0.39,0.548,0.891,3.48,7.08,-0.67,2,3
17417.109,-0.428,0.549,0.908,5.58,8.67,-1.71,2,3
17417.125,-0.465,0.552,0.913,8.73,9.7,-2.81,2,3
17417.125,-0.505,0.563,0.916,12.3,11.63,-4.15,2,3
17417.14,-0.545,0.563,0.912,16.17,13.98,-5.98,2,3
17417.14,-0.585,0.546,0.898,20.72,15.75,-7.93,2,3
17417.156,-0.615,0.525,0.866,26.73,17.03,-9.28,2,3
17417.171,-0.633,0.504,0.825,34.67,18.92,-10.38,2,3
17417.187,-0.629,0.484,0.779,43.67,22.71,-11.84,2,3
17417.187,-0.616,0.467,0.732,52.64,28.96,-13.79,2,3
17417.203,-0.607,0.464,0.684,60.91,37.9,-16.14,2,3
17417.203,-0.595,0.467,0.643,67.38,47.91,-18.86,2,3
17417.218,-0.577,0.477,0.618,71.93,60.09,-22.25,2,3
17417.234,-0.573,0.471,0.588,75.59,72.57,-25.97,2,3
17417.234,-0.576,0.467,0.576,79.04,83.9,-28.53,2,3
17417.25,-0.568,0.479,0.575,82.58,94.85,-29.73,2,3
17417.265,-0.563,0.474,0.554,86.21,105.01,-30.55,2,3
17417.265,-0.567,0.472,0.539,89.05,113.62,-31.65,2,3
17417.281,-0.56,0.481,0.534,89.42,120.73,-31.62,2,3
17417.296,-0.546,0.486,0.531,86.79,125.71,-31.5,2,3
17417.296,-0.527,0.474,0.522,82.77,129.37,-31.8,2,3
17417.312,-0.46,0.45,0.553,69.28,139.26,-37.02,2,3
17417.328,-0.4,0.418,0.531,64.58,150.36,-42.6,2,3
17417.343,-0.35,0.399,0.414,61.62,171.64,-49.13,2,3
17417.343,-0.363,0.41,0.368,59.72,199.74,-54.84,2,3
17417.359,-0.382,0.404,0.362,57.44,227.64,-59.97,2,3
17417.375,-0.389,0.393,0.305,49.13,254.8,-65.03,2,3
17417.375,-0.412,0.432,0.251,32.62,285.9,-71.66,2,3
17417.39,-0.476,0.45,0.203,13.79,320.32,-77.21,2,3
17417.406,-0.574,0.416,0.145,-7.45,350.9,-81.21,2,3
17417.406,-0.665,0.359,0.124,-33.17,371.75,-85.39,2,3
17417.421,-0.696,0.271,0.144,-54.69,384.84,-93.91,2,3
17417.437,-0.698,0.193,0.233,-54.14,394.51,-131.72,2,3
17417.437,-0.714,0.147,0.313,-33.3,381.97,-149.66,2,3
17417.453,-0.731,0.128,0.297,-14.25,361.22,-157.57,2,3
17417.468,-0.697,0.165,0.305,2.47,336.07,-157.57,2,3
17417.468,-0.668,0.136,0.281,20.39,310.34,-156.9,2,3
17417.484,-0.659,0.11,0.184,42.57,289.44,-160.37,2,3
17417.484,-0.662,0.084,0.093,67.6,276.68,-166.14,2,3
17417.5,-0.675,0.052,-0.03,90.27,269.69,-171.91,2,3
17417.515,-0.7,0.07,-0.146,102.6,267.65,-179.85,2,3
17417.515,-0.716,0.102,-0.224,107.46,268.75,-191.47,2,3
17417.531,-0.748,0.091,-0.299,106.54,270.91,-205.02,2,3
17417.531,-0.821,0.086,-0.342,97.96,273.78,-219.15,2,3
17417.546,-0.861,0.112,-0.4,84.48,274.54,-232.03,2,3
17417.562,-0.863,0.134,-0.456,62.93,272.68,-240.12,2,3
17417.562,-0.872,0.114,-0.479,34.76,268.59,-243.72,2,3
17417.578,-0.898,0.076,-0.506,11.14,266.55,-244.21,2,3
17417.593,-0.901,0.037,-0.519,-4.64,266.03,-240.7,2,3
17417.593,-0.921,-0.008,-0.539,-11.38,264.6,-235.33,2,3
17417.609,-0.964,-0.021,-0.594,-8.36,263.07,-229.8,2,3
17417.625,-0.982,-0.004,-0.647,-2.04,260.23,-218.94,2,3
17417.625,-1.009,0.027,-0.704,4.3,256.6,-203.22,2,3
17417.656,-0.965,0.163,-0.923,3.63,254.62,-157.48,2,3
17417.656,-0.912,0.181,-1.0,-1.4,261.88,-131.69,2,3
17417.671,-0.899,0.149,-1.034,3.75,274.18,-105.44,2,3
17417.687,-0.905,0.138,-1.007,20.26,283.67,-77.49,2,3
17417.687,-0.924,0.153,-0.978,44.56,284.07,-52.83,2,3
17417.703,-0.921,0.178,-0.937,66.77,272.62,-32.69,2,3
17417.703,-0.921,0.232,-0.927,79.29,251.35,-15.38,2,3
17417.718,-0.853,0.272,-0.944,77.67,223.61,1.95,2,3
17417.734,-0.794,0.244,-0.991,69.67,195.07,12.79,2,3
17417.734,-0.761,0.176,-1.041,61.98,172.28,20.87,2,3
17417.75,-0.713,0.102,-1.089,58.5,156.38,28.66,2,3
17417.75,-0.69,0.03,-1.164,61.19,143.5,32.01,2,3
17417.765,-0.657,-0.023,-1.223,63.78,135.14,29.88,2,3
17417.781,-0.623,-0.061,-1.26,60.46,129.25,21.82,2,3
17417.796,-0.577,-0.122,-1.262,53.96,125.64,6.56,2,3
17417.796,-0.527,-0.166,-1.21,45.69,122.35,-14.07,2,3
17417.812,-0.47,-0.173,-1.136,35.83,116.46,-36.5,2,3
17417.812,-0.43,-0.165,-1.07,24.78,106.81,-57.53,2,3
17417.828,-0.408,-0.153,-1.019,13.37,94.3,-74.07,2,3
17417.843,-0.416,-0.147,-0.992,2.75,79.9,-83.9,2,3
17417.843,-0.432,-0.133,-0.995,-4.24,64.55,-86.21,2,3
17417.859,-0.424,-0.108,-1.006,-7.39,50.9,-83.71,2,3
17417.875,-0.41,-0.092,-1.02,-10.8,40.89,-79.5,2,3
17417.875,-0.374,-0.096,-1.027,-13.89,34.46,-76.24,2,3
17417.89,-0.348,-0.079,-1.037,-16.24,30.92,-75.69,2,3
17417.89,-0.348,-0.047,-1.041,-20.87,29.69,-75.93,2,3
17417.906,-0.393,-0.057,-1.026,-25.42,30.03,-75.53,2,3
17417.921,-0.444,-0.062,-0.983,-27.19,28.08,-73.52,2,3
17417.921,-0.474,-0.045,-0.92,-29.24,22.43,-68.58,2,3
17417.937,-0.513,-0.072,-0.866,-30.7,12.85,-63.45,2,3
17417.953,-0.534,-0.091,-0.846,-31.8,-0.55,-58.72,2,3
17417.953,-0.511,-0.092,-0.853,-37.05,-15.38,-53.99,2,3
17417.984,-0.359,-0.188,-0.851,-46.91,-36.65,-43.18,2,3
17417.984,-0.283,-0.211,-0.894,-42.79,-39.34,-35.25,2,3
17418.0,-0.221,-0.23,-0.942,-36.87,-37.02,-26.86,2,3
17418.0,-0.197,-0.248,-0.975,-32.5,-32.07,-22.92,2,3
17418.015,-0.201,-0.238,-0.994,-31.65,-26.76,-22.22,2,3
17418.031,-0.198,-0.248,-0.988,-33.51,-22.52,-22.31,2,3
17418.031,-0.188,-0.25,-0.972,-34.33,-19.62,-20.91,2,3
17418.046,-0.149,-0.265,-0.949,-31.77,-17.73,-15.75,2,3
17418.062,-0.128,-0.278,-0.937,-24.2,-15.99,-9.31,2,3
17418.078,-0.111,-0.264,-0.951,-17.76,-15.44,-2.93,2,3
17418.078,-0.105,-0.272,-0.962,-16.17,-15.35,1.56,2,3
17418.093,-0.125,-0.28,-0.968,-15.2,-14.25,4.21,2,3
17418.093,-0.137,-0.296,-0.957,-13.06,-13.09,5.31,2,3
17418.109,-0.144,-0.297,-0.96,-10.56,-12.48,4.61,2,3
17418.125,-0.134,-0.29,-0.974,-9.74,-11.9,2.53,2,3
17418.125,-0.128,-0.285,-0.995,-10.56,-10.56,-1.43,2,3
17418.14,-0.076,-0.334,-0.999,-13.58,-4.43,-10.71,2,3
17418.156,-0.079,-0.336,-1.015,-10.74,0.7,-14.22,2,3
17418.171,-0.083,-0.325,-1.013,-8.79,4.88,-16.3,2,3
17418.171,-0.093,-0.3,-1.002,-8.03,7.45,-17.91,2,3
17418.187,-0.114,-0.279,-0.977,-7.29,8.33,-19.35,2,3
17418.203,-0.125,-0.262,-0.956,-5.62,7.9,-20.14,2,3
17418.203,-0.14,-0.24,-0.956,-4.15,6.84,-20.29,2,3
17418.218,-0.123,-0.228,-0.956,-3.36,6.32,-18.59,2,3
17418.234,-0.116,-0.214,-0.951,-2.59,5.55,-17.12,2,3
17418.234,-0.128,-0.228,-0.958,-1.01,4.61,-14.37,2,3
17418.25,-0.136,-0.245,-0.982,2.14,2.78,-9.8,2,3
17418.25,-0.128,-0.233,-1.013,6.01,1.56,-6.41,2,3
17418.265,-0.132,-0.217,-1.043,6.84,2.2,-6.13,2,3
17418.281,-0.13,-0.211,-1.064,5.13,5.37,-7.63,2,3
17418.281,-0.119,-0.201,-1.057,3.75,10.16,-10.93,2,3
17418.296,-0.12,-0.203,-1.033,4.15,15.63,-13.52,2,3
17418.312,-0.131,-0.198,-1.008,5.8,19.1,-14.37,2,3
17418.312,-0.127,-0.192,-0.984,8.64,20.17,-12.88,2,3
17418.328,-0.134,-0.171,-0.978,10.41,19.04,-11.93,2,3
17418.343,-0.138,-0.154,-0.978,9.22,16.75,-11.08,2,3
17418.343,-0.122,-0.153,-0.969,7.2,14.25,-10.07,2,3
17418.359,-0.123,-0.155,-0.974,6.96,12.51,-10.1,2,3
17418.375,-0.133,-0.156,-0.985,6.78,11.38,-10.9,2,3
17418.375,-0.141,-0.167,-0.988,5.83,11.14,-11.08,2,3
17418.39,-0.154,-0.179,-0.985,5.62,11.08,-12.45,2,3
17418.406,-0.164,-0.191,-0.982,6.44,11.75,-14.01,2,3
17418.406,-0.162,-0.202,-0.977,6.84,12.15,-23.04,2,3
17418.421,-0.172,-0.211,-0.962,6.26,11.2,-28.38,2,3
17418.421,-0.177,-0.204,-0.943,5.43,9.34,-32.2,2,3
17418.437,-0.184,-0.194,-0.919,4.94,6.07,-32.84,2,3
17418.453,-0.19,-0.166,-0.848,6.93,0.46,-31.65,2,3
17418.453,-0.193,-0.166,-0.857,10.16,-7.87,-30.34,2,3
17418.468,-0.207,-0.128,-0.918,10.04,-17.82,-28.17,2,3
17418.484,-0.177,-0.099,-0.976,1.59,-26.09,-23.87,2,3
17418.484,-0.143,-0.141,-0.998,-7.6,-30.21,-23.07,2,3
17418.5,-0.133,-0.211,-1.021,-9.43,-29.15,-24.14,2,3
17418.5,-0.105,-0.227,-1.05,-5.98,-24.6,-24.66,2,3
17418.515,-0.083,-0.207,-1.073,-2.56,-16.75,-24.51,2,3
17418.531,-0.089,-0.195,-1.065,-2.78,-8.21,-23.35,2,3
17418.546,-0.095,-0.201,-1.023,-3.91,-2.17,-21.91,2,3
17418.546,-0.104,-0.197,-0.977,-2.62,0.61,-19.32,2,3
17418.562,-0.102,-0.182,-0.952,0.58,0.61,-15.14,2,3
17418.562,-0.094,-0.172,-0.952,3.14,-0.98,-9.55,2,3
17418.578,-0.099,-0.159,-0.964,4.46,-2.53,-4.03,2,3
17418.593,-0.108,-0.159,-0.965,4.52,-3.39,0.18,2,3
17418.593,-0.121,-0.17,-0.967,4.43,-3.17,2.5,2,3
17418.609,-0.137,-0.178,-0.972,4.7,-2.69,2.81,2,3
17418.625,-0.139,-0.175,-0.976,3.63,-2.9,2.66,2,3
17418.625,-0.123,-0.184,-0.973,1.68,-3.11,2.35,2,3
17418.64,-0.114,-0.21,-0.966,1.62,-2.41,1.89,2,3
17418.64,-0.115,-0.207,-0.964,3.27,-1.95,1.16,2,3
17418.656,-0.112,-0.187,-0.965,3.63,-2.53,0.82,2,3
17418.671,-0.111,-0.191,-0.967,2.56,-3.69,0.52,2,3
17418.687,-0.113,-0.198,-0.978,0.85,-5.49,-0.55,2,3
17418.687,-0.106,-0.196,-0.987,-0.49,-6.78,-1.95,2,3
17418.703,-0.102,-0.202,-0.987,-1.19,-6.87,-2.75,2,3
17418.703,-0.103,-0.211,-0.99,-0.98,-6.96,-2.99,2,3
17418.718,-0.115,-0.201,-1.004,-0.95,-7.17,-3.2,2,3
17418.734,-0.126,-0.183,-1.014,-2.14,-6.81,-3.81,2,3
17418.734,-0.13,-0.186,-1.007,-3.97,-5.8,-4.67,2,3
17418.75,-0.122,-0.201,-0.994,-4.36,-4.24,-4.94,2,3
17418.765,-0.121,-0.205,-0.99,-2.38,-2.93,-3.75,2,3
17418.765,-0.127,-0.189,-0.998,0.58,-2.29,-1.22,2,3
17418.781,-0.13,-0.183,-1.009,1.8,-1.59,1.86,2,3
17418.781,-0.123,-0.194,-1.004,1.56,-0.67,4.33,2,3
17418.796,-0.125,-0.197,-1.0,2.41,-0.18,4.79,2,3
17418.812,-0.12,-0.209,-0.995,2.2,-0.27,4.61,2,3
17418.812,-0.12,-0.232,-0.985,1.62,-0.58,3.6,2,3
17418.828,-0.131,-0.246,-0.982,2.08,-1.07,2.04,2,3
17418.843,-0.143,-0.24,-0.988,1.62,-1.89,0.49,2,3
17418.843,-0.162,-0.238,-1.0,0.52,-2.69,-0.98,2,3
17418.859,-0.158,-0.24,-1.015,-0.43,-3.14,-1.28,2,3
17418.859,-0.14,-0.234,-1.018,0.0,-2.17,-1.16,2,3
17418.875,-0.126,-0.252,-1.026,3.36,0.52,0.0,2,3
17418.89,-0.127,-0.251,-1.037,7.23,3.2,-0.03,2,3
17418.89,-0.127,-0.25,-1.039,8.91,6.07,-0.27,2,3
17418.906,-0.124,-0.259,-1.02,8.42,8.06,-2.62,2,3
17418.921,-0.127,-0.268,-0.996,7.63,8.88,-5.89,2,3
17418.921,-0.116,-0.263,-0.979,6.53,7.81,-9.22,2,3
17418.937,-0.096,-0.251,-0.965,5.01,5.52,-11.75,2,3
17418.953,-0.083,-0.24,-0.963,2.75,2.56,-14.62,2,3
17418.953,-0.086,-0.235,-0.958,0.06,-0.79,-17.58,2,3
17418.968,-0.094,-0.224,-0.962,-2.35,-3.85,-19.65,2,3
17418.984,-0.098,-0.22,-0.967,-3.63,-5.55,-20.45,2,3
17418.984,-0.097,-0.211,-0.975,-3.33,-5.74,-20.17,2,3
17419.0,-0.104,-0.199,-0.98,-2.69,-4.39,-19.23,2,3
17419.015,-0.1,-0.186,-0.983,-2.35,-2.44,-17.43,2,3
17419.015,-0.101,-0.171,-0.978,-0.95,-0.27,-15.32,2,3
17419.031,-0.109,-0.152,-0.98,0.06,1.22,-12.97,2,3
17419.031,-0.111,-0.139,-0.972,-0.43,1.65,-10.07,2,3
17419.046,-0.119,-0.131,-0.963,-0.58,1.5,-5.92,2,3
17419.062,-0.127,-0.136,-0.954,0.79,1.13,-1.13,2,3
17419.062,-0.116,-0.157,-0.953,3.48,0.18,3.91,2,3
17419.078,-0.111,-0.158,-0.965,6.99,-0.67,8.3,2,3
17419.093,-0.11,-0.171,-0.981,8.39,-1.31,11.26,2,3
17419.093,-0.102,-0.195,-0.999,7.57,-1.37,12.42,2,3
17419.109,-0.099,-0.204,-1.02,7.48,-0.43,10.86,2,3
17419.125,-0.106,-0.187,-1.032,6.01,1.43,7.9,2,3
17419.125,-0.108,-0.169,-1.023,3.14,3.23,5.4,2,3
17419.14,-0.115,-0.155,-1.008,1.92,4.39,4.03,2,3
17419.14,-0.117,-0.141,-0.997,2.87,4.49,4.46,2,3
17419.156,-0.115,-0.128,-0.993,5.07,3.91,5.77,2,3
17419.171,-0.116,-0.115,-0.988,6.47,2.9,7.66,2,3
17419.171,-0.112,-0.12,-0.974,6.99,2.23,10.28,2,3
17419.187,-0.113,-0.149,-0.951,8.91,2.56,13.52,2,3
17419.203,-0.116,-0.164,-0.936,11.9,2.56,16.3,2,3
17419.203,-0.12,-0.173,-0.934,13.58,2.2,17.94,2,3
17419.218,-0.131,-0.178,-0.941,12.02,2.01,18.1,2,3
17419.234,-0.144,-0.196,-0.926,8.55,1.5,17.15,2,3
17419.234,-0.156,-0.229,-0.912,5.13,-0.06,16.42,2,3
17419.25,-0.16,-0.272,-0.896,3.94,-2.14,17.15,2,3
17419.25,-0.143,-0.307,-0.888,5.25,-4.82,19.1,2,3
17419.265,-0.12,-0.316,-0.924,6.53,-8.09,20.91,2,3
17419.281,-0.103,-0.344,-0.954,5.98,-9.7,22.31,2,3
17419.281,-0.068,-0.425,-0.957,6.32,-9.64,23.22,2,3
17419.296,-0.053,-0.489,-0.958,10.74,-7.63,22.25,2,3
17419.312,-0.047,-0.525,-0.962,15.23,-4.94,19.38,2,3
17419.312,-0.033,-0.554,-0.965,17.64,-2.81,14.25,2,3
17419.328,-0.052,-0.545,-0.979,18.68,-1.22,6.23,2,3
17419.343,-0.079,-0.494,-1.018,15.81,0.7,-2.59,2,3
17419.343,-0.097,-0.446,-1.043,8.27,3.6,-11.81,2,3
17419.359,-0.127,-0.44,-1.043,0.98,7.42,-21.64,2,3
17419.375,-0.129,-0.408,-1.033,-2.69,11.17,-28.9,2,3
17419.375,-0.115,-0.369,-1.004,-1.19,14.86,-31.83,2,3
17419.39,-0.126,-0.321,-0.983,5.19,17.64,-32.81,2,3
17419.39,-0.113,-0.271,-0.955,6.5,12.05,-25.85,2,3
17419.406,-0.12,-0.323,-0.961,12.33,9.16,-22.86,2,3
17419.421,-0.129,-0.295,-0.942,15.69,6.74,-17.33,2,3
17419.437,-0.122,-0.281,-0.958,17.03,3.36,-12.82,2,3
17419.437,-0.146,-0.277,-0.96,17.98,1.22,-11.51,2,3
17419.453,-0.143,-0.28,-0.961,17.18,-1.04,-10.8,2,3
17419.453,-0.168,-0.269,-0.969,14.28,-2.69,-13.46,2,3
17419.468,-0.182,-0.292,-0.967,11.9,-4.0,-13.43,2,3
17419.484,-0.179,-0.286,-0.959,10.68,-6.59,-13.37,2,3
17419.484,-0.191,-0.296,-0.953,10.96,-9.7,-12.6,2,3
17419.5,-0.193,-0.27,-0.979,12.05,-14.71,-10.22,2,3
17419.515,-0.188,-0.256,-1.008,11.96,-19.71,-6.2,2,3
17419.515,-0.165,-0.244,-1.048,11.78,-24.35,-1.16,2,3
17419.531,-0.179,-0.23,-1.086,10.77,-27.1,3.94,2,3
17419.531,-0.175,-0.221,-1.116,9.77,-28.17,10.9,2,3
17419.546,-0.135,-0.211,-1.131,10.62,-27.47,19.29,2,3
17419.562,-0.075,-0.232,-1.144,14.92,-23.8,30.7,2,3
17419.578,-0.038,-0.27,-1.154,22.92,-16.6,43.86,2,3
17419.578,-0.045,-0.32,-1.138,33.11,-6.29,56.43,2,3
17419.593,-0.096,-0.353,-1.102,42.39,4.49,65.61,2,3
17419.593,-0.139,-0.383,-1.06,47.3,12.18,71.17,2,3
17419.609,-0.131,-0.388,-1.011,48.04,14.68,72.3,2,3
17419.625,-0.11,-0.409,-0.959,46.72,13.21,69.25,2,3
17419.625,-0.121,-0.436,-0.924,44.16,9.37,62.59,2,3
17419.64,-0.146,-0.466,-0.9,41.08,4.27,53.56,2,3
17419.656,-0.176,-0.484,-0.892,37.42,-1.53,44.07,2,3
17419.656,-0.173,-0.492,-0.902,33.75,-7.29,34.49,2,3
17419.671,-0.138,-0.486,-0.912,30.49,-12.21,24.63,2,3
17419.671,-0.135,-0.483,-0.915,28.78,-14.8,14.68,2,3
17419.687,-0.14,-0.482,-0.916,27.1,-15.47,5.43,2,3
17419.703,-0.161,-0.488,-0.902,24.57,-14.83,-1.77,2,3
17419.703,-0.185,-0.5,-0.867,23.68,-13.61,-7.14,2,3
17419.718,-0.2,-0.5,-0.838,25.24,-13.46,-10.9,2,3
17419.734,-0.207,-0.486,-0.83,28.26,-15.2,-12.45,2,3
17419.734,-0.184,-0.475,-0.828,31.07,-18.25,-11.96,2,3
17419.75,-0.189,-0.472,-0.833,33.02,-20.57,-10.93,2,3
17419.75,-0.2,-0.49,-0.829,34.06,-21.91,-9.28,2,3
17419.765,-0.21,-0.511,-0.829,35.77,-22.06,-7.66,2,3
17419.781,-0.22,-0.518,-0.834,38.09,-21.09,-6.71,2,3
17419.796,-0.218,-0.516,-0.834,39.55,-20.02,-5.62,2,3
17419.796,-0.209,-0.53,-0.824,40.31,-19.01,-4.46,2,3
17419.812,-0.206,-0.565,-0.814,43.15,-17.18,-2.2,2,3
17419.812,-0.212,-0.569,-0.796,48.1,-15.05,-0.37,2,3
17419.828,-0.233,-0.577,-0.784,51.85,-14.74,-0.58,2,3
17419.843,-0.245,-0.583,-0.778,52.98,-16.69,-1.28,2,3
17419.843,-0.238,-0.583,-0.775,52.22,-20.14,-2.41,2,3
17419.859,-0.236,-0.6,-0.781,51.18,-24.14,-4.52,2,3
17419.875,-0.246,-0.596,-0.799,50.81,-27.89,-6.62,2,3
17419.875,-0.248,-0.597,-0.816,50.45,-31.04,-8.15,2,3
17419.89,-0.246,-0.592,-0.843,51.21,-32.35,-8.64,2,3
17419.89,-0.246,-0.584,-0.869,53.13,-31.8,-8.3,2,3
17419.906,-0.24,-0.589,-0.878,54.57,-29.79,-7.11,2,3
17419.921,-0.236,-0.589,-0.873,56.89,-27.16,-5.46,2,3
17419.937,-0.233,-0.593,-0.877,59.24,-25.67,-3.11,2,3
17419.937,-0.224,-0.599,-0.88,60.79,-25.7,-0.21,2,3
17419.953,-0.221,-0.607,-0.89,62.72,-25.88,2.17,2,3
17419.953,-0.237,-0.616,-0.905,64.61,-25.61,3.08,2,3
17419.968,-0.261,-0.642,-0.911,65.77,-24.96,4.18,2,3
17419.984,-0.266,-0.652,-0.911,66.07,-23.16,4.91,2,3
17419.984,-0.28,-0.649,-0.893,65.49,-20.63,2.66,2,3
17420.0,-0.292,-0.663,-0.868,63.72,-18.83,-0.55,2,3
17420.015,-0.279,-0.671,-0.817,63.02,-18.49,-2.56,2,3
17420.015,-0.255,-0.651,-0.823,63.97,-27.38,-4.21,2,3
17420.031,-0.255,-0.629,-0.811,62.07,-22.34,-8.33,2,3
17420.031,-0.257,-0.687,-0.798,58.63,-24.26,-11.38,2,3
17420.046,-0.264,-0.706,-0.793,59.14,-27.28,-14.71,2,3
17420.062,-0.263,-0.728,-0.779,61.65,-26.64,-22.86,2,3
17420.078,-0.331,-0.708,-0.776,60.4,-26.89,-35.25,2,3
17420.078,-0.352,-0.688,-0.753,51.61,-29.33,-45.56,2,3
17420.093,-0.336,-0.694,-0.721,41.96,-34.06,-51.64,2,3
17420.093,-0.326,-0.678,-0.718,39.95,-39.03,-52.92,2,3
17420.109,-0.309,-0.634,-0.766,43.79,-43.0,-49.99,2,3
17420.125,-0.293,-0.573,-0.822,48.04,-43.55,-43.43,2,3
17420.125,-0.298,-0.528,-0.858,50.08,-39.92,-35.37,2,3
17420.14,-0.314,-0.517,-0.865,51.76,-33.45,-25.7,2,3
17420.156,-0.326,-0.514,-0.837,55.33,-25.76,-14.8,2,3
17420.156,-0.325,-0.529,-0.79,60.82,-19.04,-2.81,2,3
17420.171,-0.324,-0.566,-0.746,67.6,-14.74,9.52,2,3
17420.171,-0.314,-0.596,-0.713,73.27,-12.82,19.59,2,3
17420.187,-0.319,-0.636,-0.693,75.84,-13.15,26.73,2,3
17420.203,-0.314,-0.677,-0.676,75.38,-15.11,29.51,2,3
17420.203,-0.311,-0.699,-0.673,72.51,-18.46,28.44,2,3
17420.218,-0.317,-0.705,-0.671,66.99,-21.73,24.66,2,3
17420.234,-0.325,-0.72,-0.667,60.46,-25.12,20.14,2,3
17420.234,-0.318,-0.734,-0.664,56.46,-27.5,17.88,2,3
17420.25,-0.288,-0.742,-0.668,56.67,-28.75,17.98,2,3
17420.265,-0.282,-0.736,-0.677,59.3,-27.71,19.47,2,3
17420.265,-0.281,-0.735,-0.678,61.07,-25.06,21.61,2,3
17420.281,-0.275,-0.745,-0.661,61.74,-21.88,23.07,2,3
17420.281,-0.29,-0.749,-0.636,62.5,-18.4,23.29,2,3
17420.296,-0.307,-0.756,-0.6,62.9,-16.48,23.29,2,3
17420.312,-0.308,-0.775,-0.559,62.96,-16.75,24.57,2,3
17420.312,-0.303,-0.786,-0.535,63.3,-18.37,26.28,2,3
17420.328,-0.308,-0.811,-0.523,63.97,-20.26,26.31,2,3
17420.343,-0.309,-0.843,-0.525,63.63,-23.22,24.23,2,3
17420.359,-0.316,-0.857,-0.528,61.89,-25.03,19.78,2,3
17420.359,-0.313,-0.88,-0.525,57.77,-25.82,13.46,2,3
17420.375,-0.3,-0.888,-0.514,53.13,-27.01,6.5,2,3
17420.375,-0.3,-0.881,-0.506,48.13,-28.6,-4.94,2,3
17420.39,-0.302,-0.876,-0.492,46.69,-28.53,-7.78,2,3
17420.39,-0.309,-0.868,-0.493,46.45,-28.41,-8.48,2,3
17420.406,-0.307,-0.884,-0.477,48.86,-26.98,-8.39,2,3
17420.421,-0.33,-0.89,-0.461,51.0,-24.78,-8.85,2,3
17420.421,-0.338,-0.905,-0.447,51.15,-22.92,-8.85,2,3
17420.437,-0.339,-0.907,-0.426,50.42,-21.61,-9.03,2,3
17420.453,-0.33,-0.932,-0.408,50.42,-21.58,-10.56,2,3
17420.453,-0.333,-0.967,-0.396,51.88,-22.46,-15.56,2,3
17420.468,-0.355,-0.988,-0.384,52.06,-23.62,-22.13,2,3
17420.484,-0.354,-0.989,-0.374,48.49,-26.46,-28.41,2,3
17420.484,-0.332,-1.001,-0.369,44.83,-30.06,-34.49,2,3
17420.5,-0.323,-0.989,-0.378,42.7,-33.36,-40.01,2,3
17420.515,-0.333,-0.956,-0.399,42.05,-35.37,-44.4,2,3
17420.515,-0.329,-0.932,-0.417,40.93,-35.28,-47.52,2,3
17420.531,-0.324,-0.938,-0.405,39.8,-32.78,-49.5,2,3
17420.531,-0.34,-0.954,-0.381,40.99,-29.51,-52.19,2,3
17420.546,-0.346,-0.968,-0.341,43.12,-26.06,-54.78,2,3
17420.562,-0.345,-0.99,-0.295,45.35,-24.32,-60.58,2,3
17420.562,-0.362,-1.005,-0.256,45.53,-25.67,-70.16,2,3
17420.578,-0.352,-1.004,-0.246,41.6,-31.28,-79.47,2,3
17420.593,-0.323,-1.009,-0.249,36.16,-38.36,-88.41,2,3
17420.609,-0.313,-1.019,-0.278,30.88,-44.01,-96.71,2,3
17420.609,-0.306,-1.033,-0.32,28.72,-47.18,-100.89,2,3
17420.625,-0.278,-0.986,-0.347,29.91,-43.0,-103.92,2,3
17420.625,-0.283,-0.958,-0.349,30.34,-35.16,-103.52,2,3
17420.64,-0.252,-0.947,-0.33,32.56,-30.4,-96.87,2,3
17420.64,-0.238,-0.903,-0.296,38.39,-24.51,-87.8,2,3
17420.656,-0.259,-0.884,-0.276,44.77,-20.05,-75.35,2,3
17420.671,-0.244,-0.892,-0.259,50.14,-17.91,-61.04,2,3
17420.687,-0.239,-0.919,-0.245,56.34,-17.24,-49.29,2,3
17420.687,-0.245,-0.95,-0.24,60.67,-17.79,-40.22,2,3
17420.703,-0.225,-0.999,-0.222,62.87,-19.35,-35.13,2,3
17420.703,-0.222,-1.021,-0.208,63.11,-21.06,-34.79,2,3
17420.718,-0.192,-1.045,-0.206,59.33,-23.9,-36.32,2,3
17420.734,-0.159,-1.055,-0.208,55.36,-27.28,-40.16,2,3
17420.734,-0.143,-1.048,-0.222,52.19,-29.11,-43.95,2,3
17420.75,-0.122,-1.02,-0.24,48.92,-29.48,-45.87,2,3
17420.765,-0.104,-0.999,-0.244,47.7,-27.34,-45.84,2,3
17420.765,-0.098,-0.996,-0.241,48.95,-23.01,-42.79,2,3
17420.781,-0.09,-0.991,-0.224,53.04,-17.27,-38.61,2,3
17420.781,-0.1,-0.988,-0.201,58.38,-11.63,-33.81,2,3
17420.796,-0.111,-0.966,-0.175,61.95,-8.15,-29.36,2,3
17420.812,-0.122,-0.962,-0.148,62.9,-7.51,-25.03,2,3
17420.812,-0.119,-0.975,-0.126,63.45,-9.16,-20.45,2,3
17420.828,-0.112,-0.975,-0.128,65.61,-11.75,-16.63,2,3
17420.843,-0.093,-0.974,-0.141,67.05,-13.92,-15.32,2,3
17420.843,-0.089,-0.985,-0.153,65.98,-14.34,-15.69,2,3
17420.859,-0.074,-0.989,-0.151,64.52,-12.76,-15.66,2,3
17420.875,-0.053,-0.986,-0.141,64.27,-9.46,-14.86,2,3
17420.875,-0.048,-0.967,-0.129,64.61,-5.71,-12.24,2,3
17420.89,-0.036,-0.955,-0.106,66.01,-1.86,-6.53,2,3
17420.89,-0.027,-0.935,-0.079,68.94,1.95,1.16,2,3
17420.906,-0.047,-0.93,-0.046,72.18,5.16,8.33,2,3
17420.921,-0.059,-0.959,-0.012,74.86,6.47,13.34,2,3
17420.921,-0.076,-0.982,0.013,77.43,5.89,15.41,2,3
17420.937,-0.08,-0.994,0.021,77.94,3.69,15.75,2,3
17420.953,-0.063,-0.989,0.014,74.62,-0.06,13.28,2,3
17420.953,-0.047,-0.983,0.011,68.03,-2.72,9.4,2,3
17420.968,-0.036,-1.005,0.024,62.14,-3.94,6.16,2,3
17420.984,-0.033,-1.013,0.037,61.8,-3.05,4.55,2,3
17420.984,-0.042,-0.989,0.037,64.42,-0.46,3.66,2,3
17421.0,-0.054,-0.971,0.043,65.13,2.47,4.09,2,3
17421.0,-0.06,-0.956,0.064,64.33,4.58,4.79,2,3
17421.015,-0.072,-0.943,0.091,63.88,5.31,4.73,2,3
17421.031,-0.096,-0.928,0.117,62.87,4.43,4.76,2,3
17421.031,-0.114,-0.931,0.143,60.73,2.44,4.49,2,3
17421.046,-0.119,-0.943,0.167,58.99,-0.61,3.42,2,3
17421.062,-0.127,-0.932,0.173,57.99,-3.57,2.66,2,3
17421.062,-0.121,-0.934,0.18,56.43,-6.74,3.23,2,3
17421.078,-0.12,-0.937,0.184,56.4,-8.67,5.28,2,3
17421.093,-0.12,-0.925,0.175,57.47,-9.03,8.61,2,3
17421.093,-0.105,-0.926,0.17,58.9,-8.18,13.46,2,3
17421.109,-0.09,-0.924,0.17,62.35,-5.68,17.12,2,3
17421.125,-0.09,-0.927,0.18,65.0,-2.08,17.82,2,3
17421.125,-0.11,-0.944,0.218,65.0,1.04,15.17,2,3
17421.14,-0.135,-0.958,0.266,63.81,1.01,9.95,2,3
17421.14,-0.149,-0.95,0.302,61.74,-3.08,5.04,2,3
17421.156,-0.15,-0.927,0.31,59.05,-9.89,1.68,2,3
17421.171,-0.122,-0.908,0.303,56.25,-16.82,-0.03,2,3
17421.171,-0.103,-0.877,0.281,54.17,-21.27,-0.18,2,3
17421.187,-0.091,-0.877,0.271,53.25,-21.91,1.37,2,3
17421.203,-0.087,-0.872,0.258,55.33,-19.38,4.88,2,3
17421.218,-0.095,-0.871,0.242,57.53,-14.13,9.25,2,3
17421.218,-0.1,-0.858,0.225,59.02,-7.42,14.19,2,3
17421.234,-0.1,-0.826,0.235,59.36,0.09,18.37,2,3
17421.234,-0.111,-0.805,0.262,57.16,5.1,21.64,2,3
17421.25,-0.118,-0.804,0.309,53.93,7.17,26.46,2,3
17421.25,-0.105,-0.839,0.359,54.38,7.54,30.92,2,3
17421.265,-0.119,-0.854,0.395,58.2,7.54,32.75,2,3
17421.281,-0.15,-0.861,0.415,60.27,6.53,34.7,2,3
17421.281,-0.149,-0.872,0.429,60.09,3.33,35.95,2,3
17421.296,-0.143,-0.875,0.429,58.69,-0.64,34.33,2,3
17421.312,-0.153,-0.865,0.394,55.24,-4.52,29.57,2,3
17421.312,-0.157,-0.855,0.379,49.87,-6.35,24.02,2,3
17421.328,-0.133,-0.872,0.4,44.8,-4.76,19.9,2,3
17421.343,-0.134,-0.866,0.424,44.1,-1.71,15.78,2,3
17421.343,-0.148,-0.855,0.446,44.95,0.61,12.67,2,3
17421.359,-0.157,-0.838,0.46,43.82,-1.56,11.84,2,3
17421.375,-0.173,-0.793,0.458,41.93,-4.09,11.96,2,3
17421.375,-0.186,-0.78,0.453,40.47,-5.07,13.92,2,3
17421.39,-0.179,-0.791,0.461,42.79,-3.88,15.5,2,3
17421.406,-0.188,-0.811,0.487,45.17,-2.2,15.75,2,3
17421.406,-0.187,-0.816,0.507,44.4,-1.8,15.08,2,3
17421.421,-0.177,-0.815,0.531,42.05,-3.97,12.36,2,3
17421.421,-0.178,-0.81,0.541,38.73,-7.11,9.28,2,3
17421.437,-0.173,-0.804,0.54,35.65,-10.07,7.32,2,3
17421.453,-0.185,-0.815,0.551,34.67,-11.54,7.08,2,3
17421.453,-0.193,-0.818,0.547,35.95,-11.81,8.24,2,3
17421.468,-0.202,-0.82,0.541,38.21,-10.9,9.52,2,3
17421.484,-0.199,-0.833,0.539,39.55,-9.4,10.01,2,3
17421.484,-0.188,-0.832,0.55,39.61,-8.24,9.4,2,3
17421.5,-0.183,-0.82,0.558,38.64,-8.12,8.0,2,3
17421.5,-0.182,-0.819,0.569,37.32,-8.45,5.95,2,3
17421.515,-0.189,-0.802,0.579,36.29,-9.09,3.23,2,3
17421.531,-0.189,-0.802,0.586,35.71,-10.04,1.53,2,3
17421.531,-0.185,-0.793,0.595,35.68,-11.17,0.85,2,3
17421.546,-0.179,-0.786,0.595,36.44,-12.51,1.31,2,3
17421.562,-0.181,-0.769,0.588,37.2,-14.07,2.44,2,3
17421.562,-0.183,-0.765,0.59,37.26,-14.71,3.36,2,3
17421.578,-0.19,-0.768,0.59,37.26,-14.59,4.33,2,3
17421.593,-0.192,-0.775,0.596,37.72,-14.1,5.22,2,3
17421.593,-0.178,-0.77,0.598,38.06,-13.37,5.55,2,3
17421.609,-0.17,-0.764,0.606,37.6,-12.6,4.97,2,3
17421.625,-0.181,-0.771,0.62,36.56,-11.81,4.06,2,3
17421.625,-0.193,-0.773,0.637,35.77,-11.44,3.42,2,3
17421.64,-0.192,-0.761,0.647,35.98,-11.6,3.72,2,3
17421.64,-0.186,-0.764,0.645,37.11,-11.75,4.55,2,3
17421.656,-0.183,-0.751,0.64,39.06,-11.84,5.13,2,3
17421.671,-0.187,-0.751,0.64,39.83,-11.23,6.32,2,3
17421.671,-0.19,-0.759,0.653,40.07,-10.44,7.29,2,3
17421.687,-0.191,-0.76,0.668,41.08,-9.92,6.9,2,3
17421.703,-0.214,-0.74,0.68,41.35,-10.04,5.25,2,3
17421.703,-0.223,-0.716,0.69,39.7,-11.6,3.39,2,3
17421.718,-0.217,-0.7,0.689,36.96,-14.53,1.77,2,3
17421.734,-0.215,-0.678,0.68,35.71,-17.55,0.73,2,3
17421.734,-0.204,-0.674,0.672,34.61,-19.71,0.73,2,3
17421.75,-0.197,-0.668,0.673,34.06,-19.81,1.46,2,3
17421.75,-0.213,-0.69,0.697,34.49,-17.12,4.12,2,3
17421.765,-0.219,-0.718,0.736,35.83,-14.44,8.18,2,3
17421.781,-0.222,-0.749,0.774,39.74,-12.6,12.91,2,3
17421.781,-0.229,-0.756,0.792,44.07,-12.91,17.49,2,3
17421.796,-0.215,-0.764,0.786,46.88,-15.35,20.54,2,3
17421.812,-0.214,-0.768,0.765,48.22,-18.68,20.11,2,3
17421.828,-0.221,-0.766,0.747,47.24,-21.73,15.5,2,3
17421.828,-0.215,-0.765,0.745,43.31,-23.8,8.67,2,3
17421.843,-0.215,-0.769,0.753,39.92,-24.75,2.23,2,3
17421.843,-0.216,-0.736,0.766,38.67,-25.27,-3.05,2,3
17421.859,-0.222,-0.7,0.788,37.02,-25.45,-5.83,2,3
17421.875,-0.244,-0.693,0.813,35.8,-25.67,-5.22,2,3
17421.875,-0.255,-0.694,0.841,37.63,-25.61,-0.58,2,3
17421.89,-0.262,-0.703,0.859,42.05,-25.27,7.39,2,3
17421.89,-0.254,-0.725,0.87,48.92,-25.39,16.66,2,3
17421.906,-0.247,-0.737,0.863,57.22,-26.0,24.26,2,3
17421.921,-0.241,-0.731,0.841,62.96,-27.95,27.53,2,3
17421.921,-0.233,-0.713,0.809,63.88,-31.43,26.92,2,3
17421.937,-0.206,-0.697,0.775,60.27,-35.37,23.87,2,3
17421.953,-0.17,-0.697,0.759,55.06,-37.05,18.92,2,3
17421.968,-0.144,-0.703,0.759,52.19,-35.95,15.26,2,3
17421.968,-0.143,-0.697,0.768,53.44,-32.5,14.28,2,3
17421.984,-0.149,-0.675,0.781,57.07,-28.2,14.74,2,3
17421.984,-0.156,-0.637,0.789,60.0,-24.72,15.84,2,3
17422.0,-0.157,-0.596,0.806,61.28,-23.74,16.3,2,3
17422.0,-0.17,-0.578,0.833,60.64,-25.3,15.63,2,3
17422.015,-0.178,-0.548,0.849,59.82,-29.45,14.92,2,3
17422.031,-0.169,-0.542,0.856,59.02,-34.15,14.65,2,3
17422.046,-0.15,-0.525,0.855,58.81,-38.03,14.86,2,3
17422.046,-0.129,-0.52,0.847,59.21,-40.56,15.96,2,3
17422.062,-0.108,-0.512,0.815,60.15,-42.33,16.82,2,3
17422.062,-0.099,-0.52,0.789,59.63,-41.29,18.19,2,3
17422.078,-0.072,-0.532,0.767,60.52,-38.18,19.65,2,3
17422.093,-0.05,-0.504,0.756,62.96,-34.12,18.68,2,3
17422.093,-0.051,-0.489,0.754,62.5,-29.82,15.84,2,3
17422.109,-0.042,-0.446,0.765,59.45,-26.52,11.14,2,3
17422.125,-0.035,-0.41,0.794,55.18,-24.9,6.01,2,3
17422.125,-0.029,-0.381,0.829,50.78,-25.67,1.22,2,3
17422.14,-0.031,-0.36,0.853,48.65,-27.62,-1.71,2,3
17422.14,-0.029,-0.337,0.86,47.85,-30.18,-2.04,2,3
17422.156,-0.035,-0.315,0.859,48.13,-32.2,-0.98,2,3
17422.171,-0.039,-0.302,0.851,48.77,-34.09,1.16,2,3
17422.171,-0.046,-0.294,0.835,48.95,-34.73,4.76,2,3
17422.187,-0.038,-0.291,0.817,48.77,-33.51,9.7,2,3
17422.203,-0.016,-0.298,0.811,49.13,-30.3,14.74,2,3
17422.218,-0.007,-0.288,0.817,50.94,-25.88,18.86,2,3
17422.218,-0.01,-0.297,0.84,52.19,-20.97,22.83,2,3
17422.234,-0.01,-0.296,0.86,52.77,-17.58,26.15,2,3
17422.234,0.001,-0.274,0.871,52.89,-16.85,26.52,2,3
17422.25,-0.005,-0.27,0.889,50.57,-17.24,24.72,2,3
17422.25,-0.023,-0.274,0.911,47.61,-18.52,22.77,2,3
17422.265,-0.033,-0.284,0.924,45.93,-20.42,20.75,2,3
17422.281,-0.049,-0.284,0.935,45.05,-22.74,18.86,2,3
17422.296,-0.067,-0.282,0.945,44.5,-24.6,17.85,2,3
17422.296,-0.063,-0.271,0.954,43.7,-26.49,17.27,2,3
17422.312,-0.07,-0.252,0.952,43.4,-28.17,16.79,2,3
17422.312,-0.073,-0.227,0.945,43.09,-29.94,17.0,2,3
17422.328,-0.074,-0.205,0.931,43.15,-31.43,18.49,2,3
17422.343,-0.087,-0.176,0.921,43.92,-31.62,21.79,2,3
17422.343,-0.098,-0.174,0.925,46.94,-30.0,33.11,2,3
17422.359,-0.081,-0.162,0.928,49.17,-28.5,38.88,2,3
17422.375,-0.071,-0.137,0.928,49.99,-26.89,44.8,2,3
17422.375,-0.085,-0.16,0.942,50.72,-25.48,50.11,2,3
17422.39,-0.083,-0.167,0.965,50.9,-24.75,52.0,2,3
17422.406,-0.073,-0.175,0.982,49.38,-25.45,51.94,2,3
17422.406,-0.045,-0.163,0.994,46.51,-28.26,50.45,2,3
17422.421,-0.025,-0.183,1.003,42.94,-32.17,48.4,2,3
17422.421,-0.023,-0.196,1.001,41.17,-36.56,46.33,2,3
17422.437,-0.01,-0.218,0.987,41.29,-40.31,44.47,2,3
17422.453,0.022,-0.201,0.956,41.17,-43.37,41.6,2,3
17422.453,0.052,-0.203,0.929,40.28,-44.19,38.33,2,3
17422.468,0.093,-0.177,0.91,38.73,-43.86,33.85,2,3
17422.484,0.114,-0.183,0.903,35.77,-42.76,29.24,2,3
17422.484,0.122,-0.186,0.907,33.97,-40.96,25.82,2,3
17422.5,0.127,-0.172,0.905,34.24,-39.25,23.22,2,3
17422.515,0.104,-0.156,0.901,35.0,-37.48,21.45,2,3
17422.515,0.087,-0.098,0.894,34.36,-36.65,20.2,2,3
17422.531,0.066,-0.06,0.901,31.07,-36.26,19.14,2,3
17422.531,0.071,-0.051,0.927,27.5,-35.25,21.45,2,3
17422.546,0.078,-0.049,0.944,29.11,-33.78,25.48,2,3
17422.562,0.08,-0.04,0.952,34.24,-32.69,30.34,2,3
17422.578,0.105,-0.042,0.938,38.7,-33.42,34.0,2,3
17422.578,0.093,-0.027,0.9,40.83,-35.65,32.07,2,3
17422.593,0.062,-0.004,0.861,36.87,-38.7,23.87,2,3
17422.593,0.006,0.037,0.826,26.92,-42.6,10.86,2,3
17422.609,-0.05,0.076,0.819,13.82,-46.82,-1.68,2,3
17422.625,-0.125,0.089,0.821,2.41,-50.9,-7.81,2,3
17422.625,-0.147,0.129,0.85,-2.84,-54.08,-4.49,2,3
17422.64,-0.036,0.079,0.924,-0.85,-52.86,11.23,2,3
17422.64,0.078,0.056,0.966,12.88,-47.85,32.84,2,3
17422.656,0.17,0.045,0.957,32.84,-41.54,52.64,2,3
17422.671,0.247,0.001,0.945,45.44,-36.35,67.69,2,3
17422.671,0.312,-0.05,0.93,48.52,-34.97,72.18,2,3
17422.687,0.333,-0.091,0.914,44.8,-36.38,63.05,2,3
17422.703,0.331,-0.141,0.918,33.2,-39.34,46.54,2,3
17422.703,0.331,-0.168,0.941,17.98,-42.57,30.34,2,3
17422.718,0.327,-0.184,0.983,7.51,-44.01,17.09,2,3
17422.734,0.31,-0.185,1.01,5.49,-44.65,10.22,2,3
17422.734,0.308,-0.119,0.996,10.71,-46.36,9.8,2,3
17422.75,0.318,-0.059,0.961,16.66,-47.52,13.03,2,3
17422.75,0.329,-0.011,0.915,19.93,-48.01,17.64,2,3
17422.765,0.349,0.01,0.883,21.15,-46.08,23.04,2,3
17422.781,0.356,0.023,0.87,22.52,-41.57,29.24,2,3
17422.781,0.357,0.054,0.854,24.99,-36.59,36.01,2,3
17422.796,0.356,0.079,0.837,26.8,-31.62,44.43,2,3
17422.812,0.351,0.104,0.826,27.07,-26.61,54.51,2,3
17422.828,0.34,0.114,0.843,27.1,-20.17,66.41,2,3
17422.828,0.334,0.115,0.862,29.27,-13.37,80.14,2,3
17422.843,0.333,0.133,0.868,33.91,-7.97,94.33,2,3
17422.843,0.327,0.134,0.875,39.09,-2.93,108.31,2,3
17422.859,0.298,0.141,0.881,43.37,1.01,120.4,2,3
17422.875,0.288,0.093,0.898,44.95,4.27,131.35,2,3
17422.875,0.293,-0.02,0.926,48.31,7.42,138.58,2,3
17422.89,0.29,-0.096,0.953,56.95,10.93,139.68,2,3
17422.906,0.306,-0.106,0.952,62.81,12.42,133.95,2,3
17422.906,0.308,-0.117,0.944,58.44,10.99,120.79,2,3
17422.921,0.279,-0.138,0.953,47.58,7.14,100.68,2,3
17422.921,0.261,-0.139,0.985,33.85,0.67,76.75,2,3
17422.937,0.241,-0.135,1.021,19.93,-8.06,52.06,2,3
17422.953,0.228,-0.133,1.058,10.19,-17.55,30.76,2,3
17422.953,0.239,-0.094,1.066,5.71,-28.41,14.04,2,3
17422.968,0.244,-0.045,1.047,4.03,-38.94,2.81,2,3
17422.984,0.276,-0.009,1.016,1.83,-47.85,-4.39,2,3
17422.984,0.288,0.025,0.963,0.52,-54.54,-9.22,2,3
17423.0,0.297,0.052,0.918,-0.03,-57.5,-10.16,2,3
17423.0,0.32,0.077,0.871,0.12,-57.5,-9.06,2,3
17423.015,0.327,0.094,0.841,1.04,-53.13,-4.3,2,3
17423.031,0.353,0.082,0.837,2.93,-44.86,3.69,2,3
17423.031,0.372,0.08,0.84,7.72,-35.4,10.99,2,3
17423.046,0.39,0.101,0.84,12.57,-26.46,18.16,2,3
17423.062,0.394,0.099,0.855,14.22,-19.04,25.06,2,3
17423.062,0.391,0.091,0.884,14.37,-13.82,30.34,2,3
17423.078,0.404,0.075,0.909,14.53,-12.02,32.93,2,3
17423.093,0.397,0.055,0.93,14.62,-11.99,32.53,2,3
17423.093,0.393,0.043,0.938,14.07,-13.09,32.5,2,3
17423.109,0.408,0.026,0.932,12.67,-15.26,31.43,2,3
17423.125,0.42,0.032,0.924,11.9,-17.43,27.38,2,3
17423.125,0.433,0.043,0.911,10.13,-19.5,22.16,2,3
17423.14,0.451,0.047,0.893,6.04,-22.49,17.98,2,3
17423.14,0.468,0.056,0.879,3.33,-24.87,14.74,2,3
17423.156,0.495,0.082,0.857,2.11,-26.86,11.75,2,3
17423.171,0.497,0.093,0.838,0.82,-27.19,10.86,2,3
17423.171,0.486,0.12,0.827,0.37,-26.06,12.39,2,3
17423.187,0.477,0.129,0.821,0.79,-23.71,16.36,2,3
17423.203,0.48,0.099,0.817,2.04,-19.59,21.7,2,3
17423.203,0.484,0.101,0.81,4.52,-14.98,24.99,2,3
17423.218,0.481,0.105,0.801,5.83,-10.28,24.75,2,3
17423.234,0.464,0.096,0.815,3.08,-5.55,21.3,2,3
17423.234,0.436,0.047,0.872,-2.47,-1.31,17.49,2,3
17423.25,0.425,-0.004,0.937,-4.33,0.73,14.95,2,3
17423.25,0.435,-0.02,0.967,-1.74,-0.03,13.18,2,3
17423.265,0.438,-0.023,0.977,0.95,-3.3,9.83,2,3
17423.281,0.431,-0.016,0.974,0.55,-8.3,5.1,2,3
17423.281,0.445,-0.04,0.967,-3.14,-14.19,-0.18,2,3
17423.296,0.455,-0.06,0.949,-5.86,-19.78,-7.66,2,3
17423.312,0.458,-0.053,0.926,-7.69,-23.07,-13.89,2,3
17423.312,0.471,-0.027,0.908,-9.61,-24.23,-18.34,2,3
17423.328,0.468,0.0,0.892,-10.65,-20.29,-19.56,2,3
17423.343,0.477,0.023,0.906,-7.45,-17.24,-15.66,2,3
17423.343,0.496,0.039,0.914,-2.59,-14.74,-11.38,2,3
17423.359,0.503,0.056,0.911,-0.4,-12.85,-7.02,2,3
17423.375,0.507,0.054,0.908,-1.13,-11.78,-1.65,2,3
17423.375,0.509,0.026,0.909,-0.06,-10.59,3.33,2,3
17423.39,0.506,0.022,0.904,3.02,-8.97,6.29,2,3
17423.39,0.502,0.035,0.888,5.01,-7.9,8.09,2,3
17423.406,0.503,0.032,0.875,5.01,-6.47,9.19,2,3
17423.421,0.506,0.028,0.874,4.91,-4.91,8.76,2,3
17423.421,0.513,0.048,0.872,5.1,-3.6,7.48,2,3
17423.437,0.507,0.051,0.874,3.97,-2.53,6.59,2,3
17423.453,0.508,0.031,0.877,2.59,-2.04,5.8,2,3
17423.468,0.5,0.037,0.877,2.35,-1.77,4.33,2,3
17423.468,0.493,0.039,0.88,1.46,-0.73,3.02,2,3
17423.484,0.508,0.027,0.886,0.21,-0.24,2.01,2,3
17423.484,0.506,0.028,0.87,0.95,-0.46,0.21,2,3
17423.5,0.494,0.05,0.854,1.31,-0.24,-2.08,2,3
17423.5,0.485,0.076,0.849,-0.79,0.37,-4.03,2,3
17423.515,0.474,0.067,0.865,-3.51,1.86,-4.73,2,3
17423.531,0.46,0.055,0.884,-4.43,3.75,-4.09,2,3
17423.531,0.452,0.064,0.9,-2.38,5.77,-1.8,2,3
17423.546,0.457,0.068,0.907,-0.27,6.93,1.1,2,3
17423.562,0.455,0.05,0.909,0.98,6.65,3.2,2,3
17423.562,0.452,0.044,0.904,2.32,5.37,4.46,2,3
17423.578,0.447,0.036,0.897,2.11,4.15,4.7,2,3
