timestamp,ax,ay,az,gx,gy,gz,orient_label,motion_label
17423.593,0.445,0.016,0.892,1.16,3.72,4.58,2,3
17423.593,0.437,0.01,0.886,1.04,4.03,3.81,2,3
17423.609,0.422,0.008,0.895,0.85,5.4,2.9,2,3
17423.609,0.422,0.007,0.907,0.15,6.68,2.38,2,3
17423.625,0.414,0.01,0.913,0.4,7.57,2.47,2,3
17423.64,0.401,0.019,0.926,1.65,7.97,3.11,2,3
17423.64,0.393,0.042,0.93,2.47,7.48,3.54,2,3
17423.656,0.39,0.05,0.932,2.5,6.71,4.24,2,3
17423.671,0.385,0.048,0.935,2.08,5.71,5.37,2,3
17423.687,0.387,0.035,0.948,1.89,4.55,7.45,2,3
17423.687,0.391,0.038,0.94,3.39,3.2,10.19,2,3
17423.703,0.41,0.028,0.93,5.55,2.38,13.4,2,3
17423.703,0.424,0.016,0.914,7.72,2.23,15.53,2,3
17423.718,0.418,0.016,0.894,9.46,2.78,15.75,2,3
17423.734,0.407,0.026,0.879,9.37,4.18,15.02,2,3
17423.734,0.404,0.026,0.88,7.45,6.32,14.4,2,3
17423.75,0.397,0.028,0.896,5.71,8.79,14.34,2,3
17423.75,0.393,0.038,0.917,5.98,10.56,15.02,2,3
17423.765,0.392,0.057,0.93,7.05,11.26,16.91,2,3
17423.781,0.394,0.053,0.945,7.42,10.86,19.99,2,3
17423.796,0.405,0.039,0.949,8.42,8.76,22.25,2,3
17423.796,0.415,0.038,0.936,10.01,6.13,22.52,2,3
17423.812,0.414,0.016,0.93,9.46,4.97,21.76,2,3
17423.812,0.431,-0.007,0.925,8.03,4.49,19.99,2,3
17423.828,0.443,-0.016,0.917,8.27,4.7,16.69,2,3
17423.843,0.44,-0.009,0.902,8.42,5.13,12.15,2,3
17423.843,0.437,0.009,0.891,5.62,4.97,6.93,2,3
17423.859,0.423,0.014,0.896,1.5,5.19,2.35,2,3
17423.859,0.413,0.009,0.908,-1.1,5.55,-0.46,2,3
17423.875,0.42,0.025,0.915,-1.13,5.49,-2.38,2,3
17423.89,0.426,0.04,0.91,-0.37,4.73,-3.3,2,3
17423.89,0.435,0.059,0.902,-0.46,3.78,-3.08,2,3
17423.906,0.452,0.068,0.894,-1.25,3.3,-2.08,2,3
17423.921,0.469,0.066,0.884,-1.59,3.36,-0.95,2,3
17423.921,0.473,0.066,0.877,-0.61,4.7,0.15,2,3
17423.937,0.477,0.069,0.871,0.03,6.53,1.4,2,3
17423.953,0.48,0.074,0.861,-0.21,8.36,2.93,2,3
17423.953,0.471,0.078,0.859,-0.4,10.86,4.76,2,3
17423.968,0.463,0.085,0.859,-0.73,13.25,7.29,2,3
17423.984,0.455,0.099,0.859,-0.79,15.14,10.5,2,3
17423.984,0.451,0.109,0.862,-0.43,16.57,14.47,2,3
17424.0,0.452,0.115,0.858,0.27,17.73,19.1,2,3
17424.0,0.448,0.123,0.849,1.5,18.52,23.93,2,3
17424.015,0.43,0.138,0.832,2.66,18.34,28.87,2,3
17424.031,0.405,0.156,0.805,2.75,17.3,34.94,2,3
17424.031,0.382,0.181,0.784,2.35,16.42,42.54,2,3
17424.046,0.368,0.211,0.754,2.29,16.45,50.75,2,3
17424.062,0.357,0.252,0.738,1.8,18.8,59.48,2,3
17424.062,0.35,0.282,0.738,1.4,23.26,69.89,2,3
17424.078,0.348,0.294,0.753,1.56,29.57,82.83,2,3
17424.093,0.353,0.283,0.785,3.91,36.56,98.48,2,3
17424.109,0.362,0.199,0.805,19.32,44.07,123.26,2,3
17424.125,0.358,0.177,0.801,25.3,43.92,130.25,2,3
17424.125,0.345,0.14,0.779,26.15,42.79,134.43,2,3
17424.14,0.327,0.073,0.769,24.23,43.52,134.04,2,3
17424.156,0.361,0.042,0.795,19.32,46.72,127.23,2,3
17424.156,0.364,0.046,0.806,13.09,50.66,114.78,2,3
17424.171,0.353,0.073,0.795,3.88,52.58,100.99,2,3
17424.171,0.345,0.104,0.807,-10.32,51.79,85.91,2,3
17424.187,0.36,0.118,0.813,-25.42,48.37,73.0,2,3
17424.203,0.362,0.122,0.818,-38.79,42.85,63.08,2,3
17424.203,0.353,0.133,0.814,-47.18,37.32,55.42,2,3
17424.218,0.331,0.139,0.816,-52.1,32.9,50.69,2,3
17424.234,0.301,0.161,0.813,-55.91,28.47,49.29,2,3
17424.234,0.26,0.179,0.798,-60.03,24.75,49.93,2,3
17424.25,0.203,0.202,0.788,-65.37,23.68,53.87,2,3
17424.265,0.167,0.224,0.79,-71.72,22.25,60.12,2,3
17424.265,0.085,0.227,0.772,-76.48,18.34,66.44,2,3
17424.281,0.013,0.212,0.753,-80.54,10.86,76.33,2,3
17424.281,-0.029,0.189,0.731,-82.74,1.13,90.09,2,3
17424.296,-0.072,0.153,0.695,-82.86,-10.28,104.95,2,3
17424.312,-0.131,0.076,0.646,-79.29,-35.0,136.11,2,3
17424.312,-0.136,-0.009,0.61,-73.73,-45.26,148.11,2,3
17424.328,-0.114,-0.102,0.584,-63.94,-49.93,158.3,2,3
17424.343,-0.106,-0.199,0.559,-52.43,-53.07,162.76,2,3
17424.343,-0.123,-0.318,0.497,-41.29,-56.37,164.49,2,3
17424.359,-0.099,-0.331,0.45,-34.3,-60.52,162.82,2,3
17424.375,-0.088,-0.342,0.423,-33.6,-62.01,157.35,2,3
17424.375,-0.108,-0.353,0.41,-38.06,-63.02,147.92,2,3
17424.39,-0.124,-0.361,0.395,-45.93,-65.34,135.72,2,3
17424.39,-0.153,-0.37,0.384,-56.43,-69.09,122.17,2,3
17424.406,-0.169,-0.425,0.38,-65.68,-73.0,111.15,2,3
17424.421,-0.12,-0.428,0.388,-73.85,-75.53,104.04,2,3
17424.437,-0.013,-0.372,0.397,-85.21,-66.01,95.25,2,3
17424.453,-0.035,-0.388,0.408,-89.18,-56.73,93.81,2,3
17424.453,-0.061,-0.409,0.423,-89.79,-49.65,96.44,2,3
17424.468,-0.088,-0.436,0.428,-84.23,-45.56,103.37,2,3
17424.484,-0.057,-0.46,0.429,-72.3,-41.66,114.17,2,3
17424.484,0.026,-0.419,0.438,-58.63,-33.51,124.3,2,3
17424.5,0.062,-0.352,0.454,-48.07,-19.71,130.22,2,3
17424.515,0.017,-0.341,0.463,-44.68,-5.77,135.01,2,3
17424.515,-0.046,-0.371,0.495,-48.04,4.18,143.22,2,3
17424.531,-0.101,-0.433,0.546,-49.68,8.55,156.5,2,3
17424.531,-0.091,-0.551,0.577,-42.39,9.25,174.02,2,3
17424.546,-0.013,-0.613,0.611,-25.39,13.49,188.91,2,3
17424.562,0.024,-0.581,0.612,-3.72,22.19,195.2,2,3
17424.578,0.002,-0.577,0.568,13.12,32.93,193.98,2,3
17424.578,-0.011,-0.596,0.545,18.86,45.38,190.89,2,3
17424.593,-0.006,-0.615,0.555,20.54,60.18,188.02,2,3
17424.609,0.048,-0.586,0.606,23.01,94.18,178.81,2,3
17424.625,0.034,-0.571,0.639,22.52,112.09,172.09,2,3
17424.625,-0.032,-0.6,0.692,21.21,129.83,167.09,2,3
17424.64,-0.105,-0.672,0.758,23.44,145.12,168.0,2,3
17424.64,-0.155,-0.704,0.817,33.02,155.71,172.92,2,3
17424.656,-0.146,-0.65,0.85,48.46,162.14,178.53,2,3
17424.671,-0.111,-0.509,0.838,63.81,166.08,179.72,2,3
17424.671,-0.12,-0.355,0.813,72.51,168.19,175.63,2,3
17424.687,-0.193,-0.288,0.788,72.97,169.32,172.25,2,3
17424.703,-0.307,-0.312,0.784,69.0,173.35,175.7,2,3
17424.703,-0.408,-0.362,0.805,68.73,181.62,187.35,2,3
17424.718,-0.485,-0.396,0.811,80.05,192.72,202.43,2,3
17424.734,-0.566,-0.405,0.799,101.84,206.18,217.05,2,3
17424.734,-0.655,-0.403,0.793,130.25,220.86,229.13,2,3
17424.75,-0.734,-0.384,0.781,162.51,234.75,239.75,2,3
17424.765,-0.764,-0.299,0.765,194.19,246.22,247.05,2,3
17424.765,-0.76,-0.169,0.734,219.95,252.27,248.66,2,3
17424.781,-0.783,-0.028,0.691,237.28,251.96,243.69,2,3
17424.796,-0.812,0.105,0.635,246.44,243.35,232.55,2,3
17424.796,-0.867,0.227,0.575,249.73,227.82,214.64,2,3
17424.812,-0.902,0.324,0.533,248.12,210.67,197.3,2,3
17424.812,-0.935,0.393,0.499,243.93,194.04,185.83,2,3
17424.828,-0.996,0.45,0.476,243.87,181.59,179.75,2,3
17424.843,-1.022,0.525,0.455,251.59,173.62,180.49,2,3
17424.843,-0.998,0.619,0.43,265.63,169.9,188.67,2,3
17424.859,-0.951,0.718,0.401,283.21,170.17,203.8,2,3
17424.875,-0.934,0.823,0.355,303.75,172.34,222.94,2,3
17424.875,-0.949,0.93,0.289,327.13,172.58,239.72,2,3
17424.89,-0.949,1.053,0.21,350.54,168.31,245.98,2,3
17424.89,-0.935,1.191,0.128,364.7,161.81,239.72,2,3
17424.906,-0.928,1.33,0.07,361.83,152.78,223.4,2,3
17424.921,-0.909,1.411,0.044,344.86,140.51,202.58,2,3
17424.921,-0.883,1.479,0.036,318.95,127.17,183.54,2,3
17424.937,-0.838,1.529,0.055,289.77,113.13,172.43,2,3
17424.953,-0.797,1.513,0.084,265.69,98.06,168.0,2,3
17424.953,-0.763,1.459,0.117,250.74,83.38,167.55,2,3
17424.968,-0.747,1.426,0.132,244.64,68.36,168.58,2,3
17424.984,-0.738,1.422,0.12,243.08,51.33,166.42,2,3
17424.984,-0.736,1.432,0.097,240.36,32.26,160.34,2,3
17425.0,-0.742,1.455,0.079,231.09,10.53,151.74,2,3
17425.0,-0.726,1.468,0.064,213.51,-13.25,141.97,2,3
17425.015,-0.695,1.438,0.061,190.37,-36.87,132.6,2,3
17425.031,-0.674,1.408,0.073,164.56,-58.87,122.81,2,3
17425.031,-0.646,1.393,0.091,138.28,-79.59,111.88,2,3
17425.046,-0.616,1.346,0.087,112.83,-99.55,99.73,2,3
17425.062,-0.61,1.298,0.099,87.8,-117.31,86.09,2,3
17425.078,-0.621,1.304,0.11,59.69,-133.98,70.28,2,3
17425.078,-0.627,1.337,0.122,26.37,-151.83,52.1,2,3
17425.093,-0.627,1.339,0.131,-13.37,-170.75,33.91,2,3
17425.093,-0.636,1.313,0.133,-60.55,-190.74,18.74,2,3
17425.109,-0.637,1.257,0.138,-108.86,-209.45,8.27,2,3
17425.125,-0.615,1.15,0.157,-151.65,-224.13,3.33,2,3
17425.125,-0.583,1.069,0.211,-186.16,-234.57,1.86,2,3
17425.14,-0.54,1.019,0.237,-207.86,-240.33,2.14,2,3
17425.14,-0.514,0.976,0.247,-217.81,-237.46,2.17,2,3
17425.156,-0.513,0.948,0.254,-220.04,-226.45,1.98,2,3
17425.171,-0.536,0.943,0.283,-218.73,-211.92,3.17,2,3
17425.171,-0.566,0.977,0.318,-218.85,-198.58,7.11,2,3
17425.187,-0.594,1.02,0.326,-227.79,-190.13,14.37,2,3
17425.203,-0.607,1.026,0.364,-248.18,-188.3,22.64,2,3
17425.203,-0.604,0.948,0.414,-267.07,-190.65,29.24,2,3
17425.218,-0.574,0.821,0.47,-279.09,-194.49,34.09,2,3
17425.234,-0.528,0.697,0.526,-282.17,-197.79,35.16,2,3
17425.234,-0.481,0.577,0.573,-273.02,-199.35,31.62,2,3
17425.25,-0.439,0.462,0.598,-250.74,-197.0,24.99,2,3
17425.265,-0.434,0.314,0.625,-182.16,-175.08,7.66,2,3
17425.281,-0.464,0.359,0.671,-149.21,-158.76,-2.2,2,3
17425.296,-0.512,0.463,0.709,-124.88,-144.2,-12.09,2,3
17425.296,-0.555,0.544,0.744,-103.0,-116.25,-17.67,2,3
17425.312,-0.557,0.587,0.791,-96.84,-109.01,-18.68,2,3
17425.312,-0.6,0.605,0.815,-90.4,-107.15,-17.09,2,3
17425.328,-0.531,0.558,0.804,-81.27,-104.77,-15.63,2,3
17425.343,-0.498,0.535,0.762,-71.38,-99.55,-13.95,2,3
17425.343,-0.468,0.529,0.731,-63.23,-91.1,-11.66,2,3
17425.359,-0.433,0.524,0.711,-57.19,-81.51,-8.91,2,3
17425.375,-0.393,0.516,0.699,-53.53,-70.25,-5.04,2,3
17425.375,-0.377,0.533,0.703,-51.03,-56.43,-2.41,2,3
17425.39,-0.378,0.542,0.742,-48.98,-41.96,-1.59,2,3
17425.39,-0.388,0.528,0.794,-47.64,-29.91,-2.75,2,3
17425.406,-0.402,0.532,0.841,-47.27,-22.43,-5.71,2,3
17425.421,-0.405,0.529,0.873,-44.31,-19.01,-8.73,2,3
17425.421,-0.407,0.537,0.914,-37.81,-17.15,-10.04,2,3
17425.437,-0.402,0.567,0.932,-29.33,-17.15,-8.27,2,3
17425.453,-0.387,0.602,0.936,-22.8,-18.92,-4.52,2,3
17425.453,-0.369,0.633,0.929,-19.71,-19.78,0.06,2,3
17425.468,-0.344,0.646,0.909,-20.45,-19.96,4.46,2,3
17425.484,-0.312,0.637,0.889,-23.53,-18.8,8.58,2,3
17425.484,-0.28,0.626,0.886,-26.8,-15.81,11.78,2,3
17425.5,-0.258,0.614,0.887,-27.65,-11.96,14.47,2,3
17425.515,-0.234,0.594,0.898,-26.09,-8.39,17.18,2,3
17425.515,-0.223,0.587,0.928,-22.25,-5.74,19.44,2,3
17425.531,-0.248,0.611,0.954,-16.66,-3.97,21.67,2,3
17425.531,-0.262,0.647,0.967,-14.53,-4.85,25.06,2,3
17425.546,-0.224,0.666,0.964,-17.85,-8.82,28.63,2,3
17425.562,-0.192,0.644,0.952,-20.51,-11.96,31.5,2,3
17425.562,-0.187,0.584,0.93,-20.33,-13.15,33.39,2,3
17425.578,-0.199,0.554,0.953,-23.1,-15.08,33.54,2,3
17425.593,-0.169,0.541,0.952,-29.45,-26.43,27.16,2,3
17425.609,-0.141,0.5,0.923,-28.87,-29.57,22.55,2,3
17425.625,-0.118,0.469,0.895,-24.08,-28.35,18.37,2,3
17425.625,-0.104,0.464,0.867,-15.5,-23.26,14.74,2,3
17425.64,-0.083,0.442,0.845,-4.61,-16.6,11.35,2,3
17425.64,-0.085,0.436,0.857,3.02,-10.96,6.44,2,3
17425.656,-0.085,0.472,0.853,6.44,-8.97,1.92,2,3
17425.671,-0.068,0.48,0.855,7.97,-8.48,0.21,2,3
17425.671,-0.058,0.472,0.856,6.71,-6.38,0.82,2,3
17425.687,-0.08,0.485,0.857,4.94,-3.08,1.22,2,3
17425.703,-0.121,0.475,0.883,2.81,0.15,6.13,2,3
17425.703,-0.142,0.468,0.89,3.36,0.79,13.52,2,3
17425.718,-0.161,0.467,0.884,2.5,-1.07,16.39,2,3
17425.734,-0.186,0.473,0.931,-6.9,-7.97,12.51,2,3
17425.734,-0.157,0.478,0.948,-19.47,-18.4,8.12,2,3
17425.75,-0.064,0.443,0.841,-23.68,-24.2,5.31,2,3
17425.765,-0.106,0.42,0.824,-11.75,3.97,1.65,2,3
17425.781,-0.09,0.555,0.898,-17.09,8.7,3.57,2,3
17425.781,-0.145,0.492,0.903,-14.07,9.52,3.54,2,3
17425.796,-0.184,0.526,0.955,-19.38,6.29,3.94,2,3
17425.812,-0.17,0.541,0.979,-20.45,0.49,7.45,2,3
17425.812,-0.159,0.508,0.97,-13.67,-4.03,9.37,2,3
17425.828,-0.157,0.478,0.955,-4.09,-5.62,10.5,2,3
17425.843,-0.164,0.447,0.926,8.18,-7.08,9.7,2,3
17425.843,-0.168,0.433,0.912,20.78,-9.25,7.48,2,3
17425.859,-0.147,0.448,0.884,30.52,-12.27,5.13,2,3
17425.875,-0.121,0.473,0.823,33.94,-13.52,1.77,2,3
17425.875,-0.125,0.495,0.795,30.55,-11.29,-0.43,2,3
17425.89,-0.144,0.506,0.79,23.56,-10.01,-0.43,2,3
17425.89,-0.163,0.5,0.8,14.44,-11.38,0.95,2,3
17425.906,-0.144,0.57,0.8,0.52,-17.0,2.69,2,3
17425.921,0.011,0.453,0.726,0.52,-16.88,7.29,2,3
17425.937,-0.081,0.487,0.81,-5.07,-2.99,5.68,2,3
17425.953,-0.069,0.449,0.805,0.49,-1.77,5.01,2,3
17425.953,-0.08,0.45,0.815,1.53,-0.85,3.75,2,3
17425.968,-0.063,0.461,0.823,1.43,-0.92,3.88,2,3
17425.984,-0.062,0.462,0.812,2.11,-0.49,3.2,2,3
17425.984,-0.064,0.458,0.812,1.62,0.52,3.39,2,3
17426.0,-0.058,0.462,0.814,1.95,1.28,3.08,2,3
17426.0,-0.055,0.461,0.814,2.81,3.02,2.41,2,3
17426.015,-0.053,0.456,0.806,3.54,5.49,1.86,2,3
17426.031,-0.058,0.452,0.822,2.62,7.72,1.22,2,3
17426.031,-0.063,0.474,0.859,-2.35,7.9,0.27,2,3
17426.046,-0.07,0.48,0.886,-7.6,6.41,0.03,2,3
17426.062,-0.079,0.479,0.905,-12.12,3.88,-0.03,2,3
17426.078,-0.087,0.487,0.918,-14.89,1.37,0.09,2,3
17426.078,-0.088,0.488,0.92,-16.27,-1.25,0.52,2,3
17426.093,-0.096,0.482,0.922,-17.06,-3.78,0.73,2,3
17426.093,-0.06,0.471,0.888,-15.17,-5.46,0.85,2,3
17426.109,-0.022,0.365,0.801,-6.04,-0.24,-0.52,2,3
17426.125,-0.154,0.419,0.881,-5.01,5.19,-5.89,2,3
17426.125,-0.083,0.577,0.966,-14.95,1.53,-2.84,2,3
17426.14,-0.128,0.492,0.927,-7.6,0.7,-0.52,2,3
17426.14,-0.129,0.507,0.949,-12.33,-1.53,2.41,2,3
17426.156,-0.084,0.516,0.97,-15.75,-2.29,4.64,2,3
17426.171,-0.106,0.474,0.974,-9.37,-0.24,4.0,2,3
17426.171,-0.111,0.449,0.97,-2.26,0.82,4.24,2,3
17426.187,-0.106,0.447,0.952,5.83,-0.15,3.14,2,3
17426.203,-0.127,0.436,0.934,14.95,-2.14,0.43,2,3
17426.203,-0.13,0.437,0.915,20.97,-7.57,-3.57,2,3
17426.218,-0.119,0.455,0.889,24.93,-12.88,-6.2,2,3
17426.234,-0.115,0.496,0.849,24.81,-16.45,-7.75,2,3
17426.234,-0.144,0.539,0.853,18.98,-18.83,-6.81,2,3
17426.25,-0.064,0.586,0.845,7.72,-21.58,-1.22,2,3
17426.265,-0.039,0.442,0.776,6.81,-16.97,1.77,2,3
17426.265,-0.092,0.466,0.798,0.43,-9.86,2.32,2,3
17426.281,-0.037,0.478,0.854,-11.9,-7.29,3.48,2,3
17426.281,-0.038,0.459,0.891,-4.21,-3.72,5.68,2,3
17426.296,-0.035,0.41,0.859,3.88,0.27,6.29,2,3
17426.312,-0.01,0.396,0.851,12.39,5.25,5.04,2,3
17426.312,-0.026,0.425,0.841,19.81,8.51,4.33,2,3
17426.328,-0.031,0.445,0.836,22.31,10.68,2.96,2,3
17426.343,-0.048,0.465,0.842,20.81,11.32,1.22,2,3
17426.343,-0.069,0.481,0.855,15.81,9.31,-0.21,2,3
17426.359,-0.072,0.485,0.861,9.46,4.76,-0.49,2,3
17426.375,-0.063,0.489,0.86,3.42,0.24,-0.37,2,3
17426.375,-0.051,0.488,0.854,-1.19,-2.32,0.0,2,3
17426.39,-0.043,0.482,0.847,-4.0,-2.29,-0.27,2,3
17426.39,-0.04,0.467,0.842,-3.97,-0.4,-0.67,2,3
17426.406,-0.045,0.458,0.834,-1.43,2.53,-1.37,2,3
17426.421,-0.049,0.452,0.824,2.78,5.83,-2.56,2,3
17426.421,-0.05,0.452,0.818,7.05,8.76,-4.27,2,3
17426.437,-0.05,0.45,0.803,11.23,11.93,-6.62,2,3
17426.453,-0.075,0.435,0.78,16.05,16.45,-9.06,2,3
17426.453,-0.135,0.472,0.839,13.52,16.88,-11.51,2,3
17426.468,-0.122,0.55,0.894,2.96,10.47,-11.75,2,3
17426.484,-0.102,0.52,0.867,0.27,5.04,-11.72,2,3
17426.484,-0.064,0.462,0.811,-0.4,6.38,-11.57,2,3
17426.5,-0.214,0.524,0.901,-2.41,10.1,-12.15,2,3
17426.5,-0.163,0.691,1.005,-12.88,2.93,-4.7,2,3
17426.515,-0.155,0.59,0.96,-7.35,-2.66,1.34,2,3
17426.531,-0.141,0.547,0.931,-7.39,-4.55,5.83,2,3
17426.531,-0.103,0.519,0.922,-5.34,-4.52,7.54,2,3
17426.546,-0.121,0.467,0.897,4.55,-3.45,4.36,2,3
17426.562,-0.145,0.453,0.895,14.04,-3.81,1.74,2,3
17426.562,-0.148,0.483,0.887,20.91,-8.0,-1.04,2,3
17426.578,-0.142,0.504,0.865,23.68,-12.91,-2.93,2,3
17426.593,-0.163,0.58,0.864,18.86,-17.49,-1.95,2,3
17426.593,-0.03,0.553,0.8,12.12,-19.35,3.3,2,3
17426.609,-0.09,0.474,0.752,10.56,-12.63,2.9,2,3
17426.625,-0.1,0.539,0.795,-0.06,-7.32,6.44,2,3
17426.625,-0.069,0.533,0.854,-10.86,-7.84,8.76,2,3
17426.64,-0.078,0.496,0.844,-14.62,-8.24,9.98,2,3
17426.656,-0.063,0.447,0.834,-11.29,-6.87,11.81,2,3
17426.656,-0.053,0.459,0.851,-8.06,-5.28,10.83,2,3
17426.671,-0.062,0.45,0.855,-0.15,-3.2,9.77,2,3
17426.671,-0.058,0.445,0.844,8.48,-2.01,8.55,2,3
17426.687,-0.052,0.455,0.824,13.64,-0.76,6.84,2,3
17426.703,-0.053,0.476,0.813,14.53,0.46,4.21,2,3
17426.703,-0.064,0.489,0.808,12.39,1.8,2.01,2,3
17426.718,-0.068,0.493,0.805,7.84,2.38,0.46,2,3
17426.734,-0.068,0.489,0.804,3.11,2.59,-0.31,2,3
17426.734,-0.066,0.489,0.814,-0.34,3.23,-0.73,2,3
17426.75,-0.065,0.486,0.824,-2.04,4.33,-1.19,2,3
17426.75,-0.063,0.481,0.83,-1.98,5.25,-1.59,2,3
17426.765,-0.07,0.475,0.833,-0.21,6.1,-1.8,2,3
17426.781,-0.079,0.477,0.838,2.59,6.2,-2.04,2,3
17426.781,-0.081,0.485,0.839,5.37,5.37,-2.56,2,3
17426.796,-0.074,0.495,0.834,7.14,4.46,-2.84,2,3
17426.812,-0.074,0.508,0.83,7.42,4.49,-3.05,2,3
17426.812,-0.08,0.513,0.837,6.07,4.55,-3.08,2,3
17426.828,-0.087,0.525,0.849,3.33,3.97,-3.02,2,3
17426.843,-0.1,0.537,0.857,0.06,2.47,-2.62,2,3
17426.843,-0.103,0.535,0.858,-3.17,-0.21,-2.14,2,3
17426.859,-0.092,0.527,0.853,-5.58,-2.72,-1.4,2,3
17426.875,-0.079,0.521,0.841,-5.49,-3.57,-1.01,2,3
17426.875,-0.073,0.517,0.827,-4.49,-2.41,-0.76,2,3
17426.89,-0.06,0.516,0.825,-3.39,-0.4,-0.95,2,3
17426.89,-0.062,0.52,0.841,-1.4,2.29,-1.62,2,3
17426.906,-0.082,0.53,0.855,1.62,4.85,-2.08,2,3
17426.921,-0.094,0.545,0.858,3.11,5.58,-1.62,2,3
17426.921,-0.094,0.556,0.863,1.65,5.07,-0.46,2,3
17426.937,-0.092,0.545,0.866,-0.85,4.15,1.04,2,3
17426.953,-0.088,0.524,0.863,-2.75,3.75,2.66,2,3
17426.953,-0.072,0.502,0.855,-3.81,3.08,3.69,2,3
17426.968,-0.054,0.488,0.85,-4.03,2.75,3.75,2,3
17426.984,-0.047,0.472,0.847,-2.11,3.45,2.5,2,3
17426.984,-0.041,0.461,0.834,0.7,5.25,0.27,2,3
17427.0,-0.038,0.464,0.827,2.41,7.2,-2.53,2,3
17427.015,-0.048,0.48,0.836,2.32,8.64,-5.68,2,3
17427.015,-0.053,0.494,0.84,2.62,9.52,-7.17,2,3
17427.031,-0.065,0.491,0.842,3.14,10.44,-7.6,2,3
17427.031,-0.098,0.503,0.856,1.25,10.01,-7.54,2,3
17427.046,-0.119,0.529,0.881,-2.69,7.48,-5.92,2,3
17427.062,-0.128,0.539,0.907,-5.86,3.48,-3.69,2,3
17427.062,-0.131,0.527,0.907,-7.81,-0.82,-2.14,2,3
17427.078,-0.128,0.509,0.894,-7.87,-4.52,-1.31,2,3
17427.093,-0.113,0.495,0.873,-6.65,-7.2,-1.04,2,3
17427.093,-0.1,0.478,0.843,-4.49,-7.6,-1.77,2,3
17427.109,-0.102,0.477,0.826,-2.11,-5.83,-2.75,2,3
17427.109,-0.109,0.484,0.819,-0.49,-3.08,-3.2,2,3
17427.14,-0.13,0.496,0.828,-2.17,0.55,-2.69,2,3
17427.14,-0.14,0.502,0.836,-4.33,1.56,-2.17,2,3
17427.156,-0.143,0.494,0.843,-6.26,1.37,-1.62,2,3
17427.171,-0.146,0.486,0.853,-6.78,0.89,-1.34,2,3
17427.171,-0.147,0.477,0.853,-4.24,0.49,-1.37,2,3
17427.187,-0.144,0.465,0.851,-0.79,-0.06,-2.04,2,3
17427.203,-0.132,0.467,0.848,1.53,-0.18,-2.59,2,3
17427.203,-0.11,0.474,0.83,3.36,1.19,-3.51,2,3
17427.218,-0.046,0.442,0.801,8.39,7.57,-4.97,2,3
17427.234,-0.183,0.408,0.851,16.27,15.69,-7.87,2,3
17427.234,-0.188,0.619,0.953,6.84,13.34,-8.09,2,3
17427.25,-0.174,0.606,0.956,9.31,9.37,-3.94,2,3
17427.25,-0.219,0.572,0.953,12.02,6.84,-0.67,2,3
17427.265,-0.228,0.602,0.967,18.16,3.14,8.76,2,3
17427.281,-0.304,0.587,0.985,23.29,-1.46,9.77,2,3
17427.281,-0.401,0.564,1.016,22.16,-11.87,10.01,2,3
17427.312,-0.485,0.568,0.934,4.0,-26.4,2.14,2,3
17427.312,-0.539,0.628,0.94,-4.94,-27.13,5.34,2,3
17427.328,-0.495,0.639,0.929,-6.96,-24.26,16.11,2,3
17427.343,-0.505,0.548,0.896,-4.94,-21.06,20.87,2,3
17427.343,-0.547,0.509,0.889,-1.04,-13.82,24.45,2,3
17427.359,-0.531,0.489,0.88,6.29,-7.75,24.96,2,3
17427.375,-0.524,0.444,0.848,15.87,-1.59,19.9,2,3
17427.375,-0.524,0.415,0.811,27.1,5.89,12.73,2,3
17427.39,-0.503,0.392,0.76,40.53,13.89,5.4,2,3
17427.406,-0.475,0.39,0.722,54.2,25.18,-1.5,2,3
17427.406,-0.469,0.392,0.689,67.02,38.12,-8.91,2,3
17427.421,-0.471,0.379,0.669,78.49,49.41,-16.3,2,3
17427.421,-0.475,0.367,0.645,89.6,57.74,-22.55,2,3
17427.437,-0.459,0.36,0.607,99.31,63.36,-28.11,2,3
17427.453,-0.441,0.376,0.57,103.95,67.6,-33.63,2,3
17427.453,-0.421,0.406,0.544,102.15,70.65,-39.58,2,3
17427.468,-0.391,0.409,0.531,95.83,73.27,-45.66,2,3
17427.484,-0.36,0.396,0.506,86.49,77.82,-50.81,2,3
17427.484,-0.345,0.393,0.506,75.9,85.12,-54.45,2,3
17427.5,-0.3,0.385,0.525,67.63,94.88,-57.83,2,3
17427.515,-0.277,0.372,0.524,62.2,106.6,-64.61,2,3
17427.515,-0.265,0.324,0.515,58.69,118.63,-70.5,2,3
17427.531,-0.238,0.289,0.495,56.83,130.89,-75.59,2,3
17427.531,-0.216,0.268,0.471,57.92,143.65,-81.39,2,3
17427.546,-0.208,0.246,0.466,60.18,156.41,-88.38,2,3
17427.562,-0.202,0.227,0.476,61.92,169.8,-96.9,2,3
17427.562,-0.162,0.209,0.482,61.4,186.22,-107.46,2,3
17427.578,-0.151,0.198,0.524,56.37,201.39,-117.74,2,3
17427.593,-0.168,0.165,0.551,50.69,212.71,-127.75,2,3
17427.593,-0.174,0.117,0.529,47.82,224.16,-136.27,2,3
17427.609,-0.184,0.092,0.475,49.71,239.66,-140.23,2,3
17427.625,-0.224,0.116,0.404,57.31,260.72,-142.58,2,3
17427.625,-0.287,0.153,0.316,69.06,286.39,-147.31,2,3
17427.64,-0.371,0.194,0.216,76.24,315.84,-156.25,2,3
17427.656,-0.488,0.199,0.137,78.65,344.77,-173.16,2,3
17427.656,-0.605,0.131,0.08,84.23,369.43,-196.26,2,3
17427.671,-0.716,0.098,-0.01,94.36,387.01,-222.82,2,3
17427.671,-0.808,0.136,-0.132,103.12,395.28,-248.51,2,3
17427.687,-0.89,0.189,-0.243,104.56,397.72,-269.91,2,3
17427.703,-0.943,0.242,-0.335,95.22,396.16,-284.8,2,3
17427.703,-0.971,0.299,-0.425,76.97,392.16,-294.93,2,3
17427.718,-1.027,0.36,-0.498,52.03,386.85,-302.68,2,3
17427.734,-1.062,0.384,-0.542,20.84,376.9,-308.36,2,3
17427.734,-1.045,0.355,-0.572,-14.37,361.77,-311.81,2,3
17427.75,-1.026,0.286,-0.59,-48.62,345.62,-310.31,2,3
17427.765,-1.031,0.219,-0.555,-77.49,328.29,-305.43,2,3
17427.765,-1.051,0.184,-0.574,-92.38,314.0,-300.39,2,3
17427.781,-1.133,0.193,-0.622,-98.15,308.15,-298.29,2,3
17427.796,-1.194,0.182,-0.717,-103.76,300.85,-298.5,2,3
17427.796,-1.252,0.158,-0.801,-111.88,292.58,-299.45,2,3
17427.812,-1.281,0.14,-0.85,-118.53,286.75,-294.75,2,3
17427.828,-1.29,0.126,-0.895,-123.48,282.14,-280.98,2,3
17427.828,-1.291,0.139,-0.919,-124.58,278.33,-261.54,2,3
17427.843,-1.264,0.149,-0.947,-118.38,277.08,-236.7,2,3
17427.859,-1.238,0.139,-0.982,-103.98,279.09,-209.23,2,3
17427.859,-1.219,0.14,-1.014,-83.86,282.85,-179.42,2,3
17427.875,-1.22,0.138,-1.055,-62.04,287.15,-147.92,2,3
17427.875,-1.205,0.125,-1.087,-41.93,290.29,-117.07,2,3
17427.89,-1.156,0.102,-1.067,-23.29,290.9,-88.69,2,3
17427.89,-1.102,0.08,-1.044,-5.95,288.13,-65.92,2,3
17427.906,-1.036,0.058,-1.035,3.6,280.4,-50.26,2,3
17427.921,-0.955,0.026,-1.001,3.63,269.05,-41.6,2,3
17427.921,-0.892,-0.015,-0.961,1.19,255.01,-39.09,2,3
17427.937,-0.86,-0.086,-0.952,-0.64,238.47,-36.74,2,3
17427.953,-0.849,-0.138,-0.907,-0.73,219.34,-34.67,2,3
17427.968,-0.824,-0.155,-0.726,-1.31,164.13,-36.81,2,3
17427.984,-0.802,-0.168,-0.653,-5.25,128.51,-45.01,2,3
17428.0,-0.753,-0.159,-0.63,-12.39,89.75,-55.3,2,3
17428.0,-0.672,-0.143,-0.642,-23.68,51.21,-65.07,2,3
17428.0,-0.604,-0.119,-0.707,-37.9,14.5,-72.91,2,3
17428.015,-0.526,-0.095,-0.79,-54.23,-18.95,-78.86,2,3
17428.031,-0.45,-0.106,-0.927,-69.12,-44.89,-84.02,2,3
17428.031,-0.417,-0.071,-1.062,-78.52,-58.23,-89.39,2,3
17428.046,-0.389,-0.019,-1.14,-83.44,-56.12,-91.4,2,3
17428.062,-0.359,-0.021,-1.162,-81.79,-41.99,-89.75,2,3
17428.078,-0.362,-0.009,-1.15,-71.66,-20.6,-83.71,2,3
17428.078,-0.385,0.002,-1.122,-56.22,1.98,-71.57,2,3
17428.093,-0.411,-0.0,-1.065,-40.74,18.56,-54.81,2,3
17428.093,-0.417,0.006,-1.03,-28.23,26.34,-35.68,2,3
17428.109,-0.401,0.026,-0.993,-22.22,27.13,-16.08,2,3
17428.125,-0.379,0.031,-0.961,-19.26,23.87,0.79,2,3
17428.125,-0.362,-0.006,-0.945,-18.49,18.89,14.4,2,3
17428.14,-0.356,-0.077,-0.936,-16.3,14.89,24.54,2,3
17428.156,-0.346,-0.151,-0.939,-10.59,14.19,31.22,2,3
17428.156,-0.312,-0.211,-0.954,-2.2,18.25,32.04,2,3
17428.171,-0.272,-0.249,-0.976,6.16,27.65,28.53,2,3
17428.171,-0.27,-0.25,-0.987,8.76,39.25,21.67,2,3
17428.187,-0.274,-0.249,-0.965,7.11,48.25,11.66,2,3
17428.203,-0.246,-0.256,-0.921,3.6,53.1,1.5,2,3
17428.203,-0.233,-0.257,-0.886,1.43,54.35,-6.53,2,3
17428.218,-0.227,-0.258,-0.859,1.56,53.77,-13.46,2,3
17428.234,-0.205,-0.282,-0.848,2.72,51.06,-22.22,2,3
17428.234,-0.231,-0.258,-0.853,0.89,47.73,-34.12,2,3
17428.25,-0.283,-0.236,-0.872,-16.05,36.32,-58.17,2,3
17428.25,-0.268,-0.238,-0.885,-23.9,30.61,-66.9,2,3
17428.265,-0.229,-0.196,-0.903,-27.1,27.5,-73.31,2,3
17428.281,-0.209,-0.14,-0.926,-27.86,26.31,-75.35,2,3
17428.296,-0.173,-0.066,-0.947,-27.19,25.09,-73.24,2,3
17428.296,-0.19,-0.052,-0.949,-24.14,23.87,-67.23,2,3
17428.312,-0.22,-0.065,-0.942,-20.87,21.76,-57.5,2,3
17428.312,-0.219,-0.079,-0.938,-15.96,17.58,-45.72,2,3
17428.328,-0.207,-0.056,-0.951,-9.98,13.79,-33.81,2,3
17428.343,-0.187,-0.046,-0.957,-4.39,11.2,-24.2,2,3
17428.343,-0.159,-0.057,-0.973,0.06,9.83,-15.32,2,3
17428.359,-0.147,-0.069,-0.997,4.03,9.95,-7.29,2,3
17428.375,-0.146,-0.081,-1.01,7.29,11.02,-0.82,2,3
17428.375,-0.154,-0.083,-1.016,8.21,11.81,3.3,2,3
17428.39,-0.147,-0.08,-1.009,7.23,12.33,5.1,2,3
17428.39,-0.128,-0.085,-0.992,5.34,12.88,4.12,2,3
17428.406,-0.093,-0.115,-0.977,4.49,12.18,2.62,2,3
17428.421,-0.075,-0.127,-0.973,5.16,10.22,1.37,2,3
17428.421,-0.069,-0.117,-0.992,5.77,7.11,-1.25,2,3
17428.437,-0.071,-0.116,-1.002,3.97,4.3,-3.08,2,3
17428.453,-0.088,-0.089,-1.006,0.46,1.25,-5.31,2,3
17428.468,-0.092,-0.082,-0.995,-3.36,-0.89,-7.45,2,3
17428.468,-0.074,-0.082,-0.993,-4.91,-2.78,-8.67,2,3
17428.484,-0.053,-0.092,-1.011,-2.9,-4.24,-9.34,2,3
17428.484,-0.027,-0.107,-1.024,-0.12,-3.88,-9.58,2,3
17428.5,-0.021,-0.092,-1.04,1.28,-1.86,-10.07,2,3
17428.5,-0.042,-0.089,-1.048,1.4,0.7,-10.8,2,3
17428.515,-0.062,-0.09,-1.031,0.31,2.87,-11.17,2,3
17428.531,-0.074,-0.093,-0.993,0.58,4.97,-10.9,2,3
17428.546,-0.057,-0.118,-0.961,3.81,4.36,-8.09,2,3
17428.546,-0.05,-0.126,-0.962,9.86,2.44,-1.86,2,3
17428.562,-0.042,-0.132,-0.997,15.44,0.24,4.49,2,3
17428.562,-0.039,-0.138,-1.037,17.43,-2.04,6.56,2,3
17428.578,-0.049,-0.132,-1.05,15.93,-2.69,4.88,2,3
17428.593,-0.066,-0.141,-1.055,12.79,-1.16,0.7,2,3
17428.593,-0.086,-0.14,-1.053,10.5,1.71,-3.11,2,3
17428.609,-0.11,-0.107,-1.044,9.09,5.19,-4.7,2,3
17428.625,-0.117,-0.088,-1.019,9.55,8.42,-4.39,2,3
17428.625,-0.114,-0.082,-0.995,11.9,10.59,-2.29,2,3
17428.64,-0.114,-0.069,-0.97,15.14,10.99,2.23,2,3
17428.64,-0.113,-0.062,-0.944,18.22,9.74,8.27,2,3
17428.656,-0.11,-0.089,-0.933,21.09,5.8,14.44,2,3
17428.671,-0.109,-0.115,-0.952,22.43,-0.03,19.87,2,3
17428.671,-0.105,-0.142,-0.965,22.74,-6.07,23.65,2,3
17428.687,-0.091,-0.2,-0.991,24.45,-11.08,25.7,2,3
17428.703,-0.091,-0.219,-1.052,27.5,-12.85,25.82,2,3
17428.703,-0.087,-0.2,-1.113,29.39,-9.37,23.9,2,3
17428.718,-0.087,-0.191,-1.126,29.05,-1.37,19.04,2,3
17428.734,-0.108,-0.185,-1.112,28.41,7.17,11.87,2,3
17428.75,-0.141,-0.154,-1.066,26.52,12.7,4.0,2,3
17428.75,-0.173,-0.135,-1.007,22.95,13.03,-2.81,2,3
17428.765,-0.18,-0.137,-0.959,18.52,7.78,-6.9,2,3
17428.765,-0.172,-0.136,-0.942,15.41,-1.19,-7.42,2,3
17428.781,-0.163,-0.134,-0.945,12.42,-11.26,-5.49,2,3
17428.796,-0.164,-0.153,-0.966,10.16,-20.2,-3.36,2,3
17428.796,-0.16,-0.165,-1.002,9.46,-26.76,-1.68,2,3
17428.812,-0.151,-0.17,-1.033,9.25,-29.63,-0.7,2,3
17428.812,-0.142,-0.185,-1.055,9.49,-29.05,0.0,2,3
17428.828,-0.144,-0.19,-1.064,10.35,-25.97,0.52,2,3
17428.843,-0.133,-0.21,-1.056,10.83,-22.86,1.74,2,3
17428.843,-0.132,-0.245,-1.043,12.05,-20.14,3.75,2,3
17428.859,-0.138,-0.27,-1.034,15.2,-18.56,6.23,2,3
17428.875,-0.124,-0.287,-1.033,18.37,-18.34,8.76,2,3
17428.875,-0.104,-0.309,-1.039,21.3,-18.43,10.86,2,3
17428.89,-0.096,-0.306,-1.061,23.5,-18.16,12.33,2,3
17428.906,-0.093,-0.299,-1.072,25.03,-15.84,12.79,2,3
17428.906,-0.104,-0.283,-1.069,24.87,-12.18,11.66,2,3
17428.921,-0.109,-0.275,-1.042,24.9,-8.55,10.77,2,3
17428.937,-0.117,-0.264,-1.006,26.46,-6.26,10.93,2,3
17428.937,-0.121,-0.253,-0.974,28.26,-6.38,12.88,2,3
17428.953,-0.113,-0.256,-0.958,29.57,-9.4,16.97,2,3
17428.953,-0.111,-0.269,-0.953,31.1,-13.49,21.33,2,3
17428.968,-0.121,-0.277,-0.957,31.98,-17.3,23.71,2,3
17428.984,-0.124,-0.278,-0.969,31.28,-20.17,23.8,2,3
17428.984,-0.124,-0.269,-0.981,29.85,-21.27,22.83,2,3
17429.0,-0.117,-0.249,-0.983,28.75,-20.54,21.33,2,3
17429.015,-0.106,-0.241,-0.982,28.26,-18.77,19.96,2,3
17429.015,-0.115,-0.245,-0.98,28.96,-16.48,19.87,2,3
17429.031,-0.128,-0.244,-0.973,30.55,-15.26,20.29,2,3
17429.031,-0.137,-0.258,-0.975,31.8,-15.11,21.55,2,3
17429.046,-0.137,-0.255,-0.973,33.11,-15.26,22.74,2,3
17429.062,-0.129,-0.247,-0.965,33.78,-15.2,22.74,2,3
17429.062,-0.134,-0.245,-0.953,33.27,-15.41,22.0,2,3
17429.078,-0.144,-0.244,-0.933,32.04,-15.84,21.21,2,3
17429.093,-0.146,-0.254,-0.907,31.46,-16.57,21.42,2,3
17429.093,-0.152,-0.27,-0.912,32.41,-17.58,21.52,2,3
17429.109,-0.166,-0.254,-0.923,33.51,-18.37,20.54,2,3
17429.125,-0.172,-0.25,-0.92,33.2,-18.56,19.35,2,3
17429.125,-0.181,-0.258,-0.921,32.04,-18.71,16.97,2,3
17429.14,-0.193,-0.254,-0.918,30.58,-19.59,14.71,2,3
17429.14,-0.201,-0.261,-0.921,28.81,-20.97,13.98,2,3
17429.156,-0.2,-0.266,-0.934,27.28,-22.43,14.04,2,3
17429.171,-0.196,-0.287,-0.946,27.19,-22.37,15.38,2,3
17429.171,-0.193,-0.318,-0.952,28.53,-20.75,17.52,2,3
17429.187,-0.193,-0.322,-0.957,31.25,-18.46,19.47,2,3
17429.203,-0.183,-0.318,-0.953,33.36,-15.75,20.63,2,3
17429.218,-0.171,-0.345,-0.932,33.97,-13.55,20.39,2,3
17429.218,-0.169,-0.365,-0.91,33.81,-13.15,17.94,2,3
17429.234,-0.183,-0.386,-0.895,29.97,-16.48,9.09,2,3
17429.234,-0.199,-0.421,-0.878,28.35,-19.26,2.81,2,3
17429.25,-0.205,-0.455,-0.871,27.77,-21.52,-3.05,2,3
17429.265,-0.204,-0.461,-0.888,26.0,-22.43,-6.96,2,3
17429.265,-0.187,-0.447,-0.918,22.68,-22.46,-9.7,2,3
17429.281,-0.176,-0.468,-0.915,20.84,-21.18,-12.21,2,3
17429.281,-0.174,-0.494,-0.91,22.25,-19.44,-14.65,2,3
17429.296,-0.181,-0.509,-0.908,25.91,-17.46,-17.18,2,3
17429.312,-0.193,-0.519,-0.896,28.2,-15.53,-20.05,2,3
17429.312,-0.193,-0.541,-0.879,28.96,-15.08,-23.96,2,3
17429.328,-0.189,-0.564,-0.863,30.03,-16.17,-29.18,2,3
17429.343,-0.189,-0.566,-0.865,30.92,-18.07,-35.37,2,3
17429.343,-0.188,-0.561,-0.885,30.27,-20.23,-41.81,2,3
17429.359,-0.185,-0.546,-0.911,27.68,-21.67,-48.19,2,3
17429.375,-0.174,-0.527,-0.933,24.57,-22.06,-54.23,2,3
17429.375,-0.158,-0.52,-0.936,21.49,-21.03,-59.05,2,3
17429.39,-0.156,-0.516,-0.932,19.99,-18.74,-62.32,2,3
17429.39,-0.163,-0.505,-0.924,20.17,-16.05,-63.39,2,3
17429.406,-0.165,-0.499,-0.912,21.39,-13.58,-61.71,2,3
17429.421,-0.159,-0.495,-0.904,24.81,-10.99,-57.5,2,3
17429.421,-0.157,-0.485,-0.897,30.34,-8.51,-51.58,2,3
17429.437,-0.162,-0.461,-0.897,36.07,-6.1,-43.89,2,3
17429.453,-0.164,-0.455,-0.893,41.11,-3.78,-34.91,2,3
17429.453,-0.17,-0.459,-0.881,45.44,-1.92,-25.67,2,3
17429.468,-0.181,-0.478,-0.867,48.52,-1.34,-17.4,2,3
17429.484,-0.199,-0.498,-0.857,50.08,-1.77,-10.65,2,3
17429.484,-0.212,-0.523,-0.845,50.94,-2.38,-3.81,2,3
17429.5,-0.216,-0.542,-0.833,52.77,-2.93,2.66,2,3
17429.515,-0.2,-0.57,-0.834,55.57,-3.17,8.42,2,3
17429.515,-0.198,-0.594,-0.842,58.84,-2.96,13.7,2,3
17429.531,-0.199,-0.624,-0.851,61.53,-1.77,18.49,2,3
17429.531,-0.198,-0.664,-0.849,63.63,0.76,21.73,2,3
17429.546,-0.201,-0.694,-0.84,65.86,3.39,21.58,2,3
17429.562,-0.201,-0.695,-0.827,66.74,4.7,18.52,2,3
17429.578,-0.228,-0.694,-0.819,64.88,3.51,13.73,2,3
17429.578,-0.214,-0.698,-0.78,61.53,5.07,9.95,2,3
17429.593,-0.23,-0.706,-0.753,60.21,3.63,9.03,2,3
17429.593,-0.217,-0.719,-0.771,63.02,-4.91,9.7,2,3
17429.609,-0.201,-0.67,-0.78,65.52,-2.78,6.53,2,3
17429.625,-0.256,-0.619,-0.798,61.13,-1.53,1.71,2,3
17429.625,-0.254,-0.653,-0.793,55.57,-4.3,-0.46,2,3
17429.64,-0.247,-0.644,-0.779,52.92,-4.73,-2.84,2,3
17429.64,-0.259,-0.632,-0.771,52.8,-2.75,-2.93,2,3
17429.656,-0.251,-0.625,-0.766,53.71,-3.72,-1.53,2,3
17429.671,-0.244,-0.626,-0.769,55.6,-3.91,1.31,2,3
17429.687,-0.235,-0.627,-0.771,58.63,-3.88,4.76,2,3
17429.687,-0.234,-0.63,-0.776,61.95,-2.23,8.09,2,3
17429.703,-0.229,-0.631,-0.781,64.36,-1.16,11.84,2,3
17429.703,-0.238,-0.617,-0.779,65.74,1.01,14.37,2,3
17429.718,-0.252,-0.617,-0.777,65.13,2.53,14.47,2,3
17429.734,-0.26,-0.611,-0.761,62.56,2.78,12.94,2,3
17429.734,-0.279,-0.61,-0.735,60.34,2.75,10.86,2,3
17429.75,-0.29,-0.618,-0.709,58.38,1.8,8.85,2,3
17429.75,-0.295,-0.632,-0.685,56.86,-0.12,7.35,2,3
17429.765,-0.285,-0.644,-0.676,55.39,-3.45,5.83,2,3
17429.781,-0.279,-0.652,-0.682,53.35,-7.97,5.25,2,3
17429.796,-0.27,-0.663,-0.691,51.27,-12.09,6.44,2,3
17429.796,-0.26,-0.68,-0.706,50.42,-13.82,8.27,2,3
17429.812,-0.261,-0.676,-0.713,50.84,-12.42,9.98,2,3
17429.812,-0.252,-0.69,-0.711,51.48,-8.88,12.6,2,3
17429.828,-0.247,-0.701,-0.696,52.49,-4.91,14.8,2,3
17429.843,-0.24,-0.717,-0.668,54.23,-0.82,15.99,2,3
17429.843,-0.257,-0.732,-0.644,56.09,1.68,16.85,2,3
17429.859,-0.267,-0.739,-0.626,57.22,2.11,17.88,2,3
17429.875,-0.271,-0.756,-0.615,56.55,0.64,18.19,2,3
17429.875,-0.27,-0.771,-0.608,55.15,-1.83,17.91,2,3
17429.89,-0.269,-0.779,-0.611,53.65,-4.43,15.72,2,3
17429.89,-0.269,-0.797,-0.617,51.94,-7.05,11.35,2,3
17429.906,-0.27,-0.81,-0.615,50.14,-9.03,5.04,2,3
17429.921,-0.276,-0.82,-0.621,47.64,-10.56,-3.42,2,3
17429.937,-0.273,-0.825,-0.621,43.37,-12.05,-11.81,2,3
17429.937,-0.262,-0.829,-0.617,37.93,-12.88,-18.92,2,3
17429.953,-0.261,-0.837,-0.599,33.11,-13.15,-23.96,2,3
17429.953,-0.253,-0.844,-0.578,31.07,-13.18,-26.8,2,3
17429.968,-0.258,-0.834,-0.555,31.37,-13.15,-27.04,2,3
17429.984,-0.268,-0.825,-0.54,33.63,-12.88,-25.67,2,3
17429.984,-0.277,-0.82,-0.529,36.13,-13.28,-23.59,2,3
17430.0,-0.282,-0.827,-0.517,38.03,-14.07,-20.81,2,3
17430.015,-0.286,-0.846,-0.502,39.89,-14.86,-19.26,2,3
17430.015,-0.304,-0.869,-0.489,41.78,-16.36,-19.07,2,3
17430.031,-0.296,-0.886,-0.487,42.21,-19.32,-18.59,2,3
17430.031,-0.287,-0.888,-0.495,41.84,-22.77,-17.85,2,3
17430.046,-0.274,-0.895,-0.509,40.99,-24.9,-16.3,2,3
17430.062,-0.257,-0.9,-0.524,41.2,-25.27,-14.74,2,3
17430.062,-0.248,-0.911,-0.534,43.21,-23.26,-13.12,2,3
17430.078,-0.259,-0.911,-0.537,46.36,-19.2,-13.15,2,3
17430.093,-0.278,-0.911,-0.522,47.3,-14.37,-13.89,2,3
17430.093,-0.273,-0.92,-0.498,46.6,-10.62,-14.28,2,3
17430.109,-0.268,-0.914,-0.472,47.18,-8.24,-14.8,2,3
17430.125,-0.266,-0.912,-0.449,48.55,-7.42,-14.65,2,3
17430.125,-0.281,-0.896,-0.435,49.29,-8.51,-14.22,2,3
17430.14,-0.286,-0.884,-0.425,48.62,-10.53,-12.73,2,3
17430.14,-0.282,-0.889,-0.419,48.43,-12.91,-10.62,2,3
17430.156,-0.282,-0.887,-0.421,49.35,-14.59,-8.7,2,3
17430.171,-0.275,-0.883,-0.436,50.02,-15.47,-6.62,2,3
17430.187,-0.256,-0.887,-0.452,50.42,-14.59,-4.36,2,3
17430.187,-0.234,-0.914,-0.459,51.55,-12.12,-2.72,2,3
17430.203,-0.232,-0.916,-0.456,52.49,-8.94,-2.78,2,3
17430.203,-0.235,-0.922,-0.443,52.95,-5.62,-2.75,2,3
17430.218,-0.233,-0.93,-0.425,53.9,-0.24,-1.8,2,3
17430.234,-0.233,-0.928,-0.41,55.3,1.16,-2.11,2,3
17430.234,-0.228,-0.923,-0.397,55.21,1.25,-2.56,2,3
17430.25,-0.216,-0.908,-0.396,53.19,0.18,-3.63,2,3
17430.25,-0.213,-0.899,-0.392,48.34,-0.24,-5.92,2,3
17430.265,-0.215,-0.916,-0.384,45.63,1.07,-7.63,2,3
17430.281,-0.212,-0.913,-0.357,46.54,2.53,-9.0,2,3
17430.296,-0.208,-0.897,-0.329,47.09,3.17,-8.39,2,3
17430.296,-0.22,-0.904,-0.312,46.88,2.2,-6.99,2,3
17430.312,-0.225,-0.911,-0.303,47.03,-0.34,-4.82,2,3
17430.312,-0.228,-0.917,-0.298,47.88,-2.87,-2.35,2,3
17430.328,-0.244,-0.922,-0.294,49.32,-4.24,-0.76,2,3
17430.343,-0.255,-0.928,-0.288,49.53,-4.39,0.21,2,3
17430.343,-0.25,-0.937,-0.279,48.83,-4.36,0.49,2,3
17430.359,-0.233,-0.945,-0.267,47.3,-4.52,0.31,2,3
17430.375,-0.214,-0.962,-0.258,46.66,-4.27,-0.15,2,3
17430.375,-0.211,-0.972,-0.25,47.09,-3.66,-0.95,2,3
17430.39,-0.211,-0.969,-0.246,47.21,-3.88,-1.8,2,3
17430.39,-0.218,-0.959,-0.241,46.27,-4.03,-2.59,2,3
17430.406,-0.234,-0.973,-0.229,45.08,-3.88,-3.23,2,3
17430.421,-0.216,-0.978,-0.219,45.84,-4.79,-2.32,2,3
17430.421,-0.228,-0.943,-0.206,47.36,-2.5,-3.75,2,3
17430.437,-0.236,-0.985,-0.2,47.94,-3.6,-0.49,2,3
17430.453,-0.22,-0.95,-0.191,49.47,-5.52,1.98,2,3
17430.453,-0.235,-0.94,-0.182,49.62,-5.83,2.93,2,3
17430.468,-0.24,-0.954,-0.171,48.1,-6.99,3.85,2,3
17430.484,-0.241,-0.953,-0.16,47.27,-7.11,4.27,2,3
17430.484,-0.241,-0.98,-0.158,47.09,-7.23,5.1,2,3
17430.5,-0.238,-0.99,-0.151,47.76,-7.78,5.8,2,3
17430.515,-0.239,-0.999,-0.142,48.98,-7.42,5.92,2,3
17430.515,-0.247,-1.0,-0.144,49.23,-7.17,5.13,2,3
17430.531,-0.247,-0.998,-0.142,47.15,-7.57,4.09,2,3
17430.531,-0.236,-0.993,-0.13,44.77,-7.48,2.93,2,3
17430.546,-0.24,-0.985,-0.116,44.4,-6.96,1.74,2,3
17430.562,-0.249,-0.969,-0.102,44.86,-6.35,1.4,2,3
17430.562,-0.257,-0.968,-0.086,44.98,-6.23,2.53,2,3
17430.578,-0.254,-0.972,-0.068,45.96,-6.2,5.01,2,3
17430.593,-0.25,-0.976,-0.058,48.1,-6.35,7.57,2,3
17430.593,-0.251,-0.975,-0.054,49.44,-6.87,9.86,2,3
17430.609,-0.247,-0.975,-0.052,49.32,-7.93,11.08,2,3
17430.625,-0.243,-0.981,-0.052,48.83,-9.03,11.08,2,3
17430.625,-0.23,-1.01,-0.052,48.83,-9.4,10.47,2,3
17430.64,-0.242,-1.005,-0.053,49.35,-9.19,7.9,2,3
17430.64,-0.249,-0.988,-0.051,48.25,-9.06,4.82,2,3
17430.656,-0.262,-0.984,-0.035,45.63,-8.73,3.33,2,3
17430.671,-0.258,-0.991,-0.006,45.26,-8.24,4.18,2,3
17430.671,-0.258,-0.979,0.009,48.13,-7.87,7.05,2,3
17430.687,-0.269,-0.962,0.014,52.13,-7.17,11.08,2,3
17430.703,-0.276,-0.969,0.03,54.78,-5.98,16.02,2,3
17430.703,-0.28,-0.983,0.047,56.86,-5.13,20.81,2,3
17430.718,-0.287,-0.999,0.055,59.85,-4.67,23.83,2,3
17430.734,-0.295,-1.015,0.062,62.11,-4.85,24.84,2,3
17430.75,-0.299,-1.025,0.074,62.2,-5.28,22.89,2,3
17430.75,-0.309,-1.024,0.09,60.34,-6.65,18.19,2,3
17430.75,-0.322,-1.037,0.101,57.04,-9.37,13.06,2,3
17430.765,-0.318,-1.024,0.114,53.59,-12.39,8.3,2,3
17430.781,-0.319,-1.004,0.119,50.84,-15.02,4.7,2,3
17430.796,-0.312,-1.001,0.12,48.8,-17.24,3.63,2,3
17430.796,-0.307,-0.99,0.122,48.28,-18.31,4.58,2,3
17430.812,-0.308,-0.984,0.117,49.96,-17.33,6.23,2,3
17430.812,-0.308,-0.99,0.118,52.71,-14.86,8.18,2,3
17430.828,-0.312,-0.984,0.117,54.66,-12.45,9.74,2,3
17430.843,-0.319,-0.979,0.128,55.12,-10.47,10.1,2,3
17430.843,-0.33,-0.978,0.149,54.66,-8.91,9.7,2,3
17430.859,-0.334,-0.976,0.179,53.35,-8.73,8.55,2,3
17430.875,-0.346,-0.968,0.2,52.83,-10.22,7.48,2,3
17430.875,-0.353,-0.949,0.215,52.67,-12.63,7.42,2,3
17430.89,-0.335,-0.957,0.226,52.03,-15.38,8.21,2,3
17430.89,-0.33,-0.956,0.226,52.0,-18.01,8.79,2,3
17430.906,-0.322,-0.958,0.222,52.1,-20.23,8.76,2,3
17430.921,-0.312,-0.961,0.211,51.27,-22.03,8.03,2,3
17430.937,-0.32,-0.973,0.207,50.11,-22.19,6.74,2,3
17430.937,-0.33,-0.972,0.209,48.86,-21.52,4.64,2,3
17430.953,-0.326,-0.963,0.224,48.07,-20.51,2.17,2,3
17430.953,-0.327,-0.939,0.238,47.12,-19.26,0.43,2,3
17430.968,-0.332,-0.913,0.253,46.69,-18.37,0.21,2,3
17430.984,-0.341,-0.89,0.27,47.0,-18.49,0.85,2,3
17430.984,-0.352,-0.896,0.291,47.36,-19.2,2.53,2,3
17431.0,-0.356,-0.897,0.311,49.01,-20.11,5.1,2,3
17431.015,-0.34,-0.903,0.321,50.94,-22.03,6.9,2,3
17431.015,-0.335,-0.904,0.323,51.73,-24.72,7.32,2,3
17431.031,-0.324,-0.89,0.319,50.75,-27.74,7.23,2,3
17431.031,-0.307,-0.885,0.315,48.4,-30.21,6.62,2,3
17431.046,-0.303,-0.879,0.313,46.51,-31.59,6.62,2,3
17431.062,-0.292,-0.889,0.315,45.63,-32.17,7.66,2,3
17431.078,-0.284,-0.896,0.319,46.39,-31.74,8.27,2,3
17431.078,-0.288,-0.905,0.32,47.61,-30.15,9.09,2,3
17431.093,-0.288,-0.902,0.321,49.04,-28.17,10.77,2,3
17431.093,-0.288,-0.908,0.334,50.66,-25.24,13.61,2,3
17431.109,-0.286,-0.929,0.354,52.64,-21.64,16.97,2,3
17431.125,-0.275,-0.944,0.378,55.85,-18.71,19.93,2,3
17431.125,-0.276,-0.934,0.4,58.72,-16.75,21.09,2,3
17431.14,-0.275,-0.93,0.421,59.33,-16.45,19.47,2,3
17431.156,-0.289,-0.913,0.441,57.5,-18.1,15.26,2,3
17431.156,-0.297,-0.928,0.461,53.5,-20.87,10.93,2,3
17431.171,-0.3,-0.933,0.471,49.62,-23.9,6.56,2,3
17431.171,-0.303,-0.912,0.473,47.85,-26.4,2.14,2,3
17431.187,-0.312,-0.896,0.464,46.17,-28.75,-0.15,2,3
17431.203,-0.305,-0.9,0.459,51.55,-31.13,2.04,2,3
17431.203,-0.271,-0.873,0.448,54.45,-28.08,0.82,2,3
17431.218,-0.284,-0.819,0.424,50.87,-25.97,1.31,2,3
17431.234,-0.312,-0.822,0.435,49.68,-22.77,5.49,2,3
17431.234,-0.312,-0.798,0.489,53.74,-19.68,7.48,2,3
17431.25,-0.306,-0.766,0.492,57.07,-18.52,9.28,2,3
17431.25,-0.292,-0.743,0.499,58.17,-17.98,11.63,2,3
17431.265,-0.294,-0.727,0.506,57.99,-18.98,12.09,2,3
17431.281,-0.3,-0.739,0.519,55.76,-20.94,12.27,2,3
17431.296,-0.3,-0.751,0.536,54.11,-22.98,13.18,2,3
17431.296,-0.297,-0.748,0.549,54.05,-24.23,13.73,2,3
17431.312,-0.299,-0.745,0.556,53.87,-24.69,14.95,2,3
17431.312,-0.304,-0.733,0.563,54.29,-25.18,16.88,2,3
17431.328,-0.307,-0.734,0.579,55.79,-24.93,18.59,2,3
17431.343,-0.299,-0.726,0.584,57.5,-24.63,19.62,2,3
17431.343,-0.293,-0.714,0.589,58.11,-25.06,19.23,2,3
17431.359,-0.29,-0.714,0.6,57.62,-26.09,18.1,2,3
17431.375,-0.284,-0.709,0.607,56.61,-27.59,15.78,2,3
17431.375,-0.288,-0.677,0.598,54.41,-30.12,12.15,2,3
17431.39,-0.289,-0.67,0.603,49.84,-32.23,9.0,2,3
17431.39,-0.282,-0.674,0.624,45.53,-32.81,8.0,2,3
17431.406,-0.276,-0.664,0.638,44.86,-32.93,7.69,2,3
17431.421,-0.269,-0.66,0.647,46.91,-32.84,8.58,2,3
17431.421,-0.27,-0.65,0.648,49.29,-32.59,10.47,2,3
17431.437,-0.28,-0.626,0.646,50.14,-32.35,11.54,2,3
17431.453,-0.289,-0.616,0.647,48.52,-32.41,11.69,2,3
17431.453,-0.279,-0.616,0.659,46.11,-32.11,12.02,2,3
17431.468,-0.274,-0.626,0.678,46.21,-30.98,12.91,2,3
17431.484,-0.284,-0.631,0.694,48.74,-29.6,14.07,2,3
17431.484,-0.285,-0.629,0.704,51.18,-28.87,15.56,2,3
17431.5,-0.283,-0.609,0.707,52.1,-29.18,16.63,2,3
17431.5,-0.282,-0.601,0.704,51.03,-30.24,16.33,2,3
17431.515,-0.28,-0.607,0.708,48.95,-30.85,16.3,2,3
17431.531,-0.276,-0.598,0.713,47.7,-30.73,16.94,2,3
17431.531,-0.273,-0.6,0.723,47.09,-29.45,18.31,2,3
17431.546,-0.257,-0.628,0.739,47.76,-27.77,20.23,2,3
17431.562,-0.243,-0.633,0.746,50.81,-26.52,21.18,2,3
17431.578,-0.236,-0.609,0.739,53.5,-25.94,20.33,2,3
17431.578,-0.234,-0.592,0.735,51.85,-26.28,18.52,2,3
17431.593,-0.235,-0.572,0.743,48.01,-27.5,15.99,2,3
17431.593,-0.245,-0.567,0.756,44.65,-28.6,13.12,2,3
17431.609,-0.248,-0.571,0.774,42.88,-29.08,12.15,2,3
17431.625,-0.238,-0.563,0.787,43.67,-29.33,12.82,2,3
17431.625,-0.247,-0.551,0.793,45.96,-28.9,13.79,2,3
17431.64,-0.238,-0.545,0.797,47.12,-28.66,15.99,2,3
17431.656,-0.229,-0.535,0.797,47.98,-29.18,17.98,2,3
17431.656,-0.221,-0.52,0.799,48.62,-29.76,18.19,2,3
17431.671,-0.229,-0.529,0.798,48.13,-30.12,18.28,2,3
17431.671,-0.229,-0.519,0.793,48.28,-30.4,17.64,2,3
17431.687,-0.218,-0.515,0.792,48.55,-30.37,16.6,2,3
17431.703,-0.213,-0.521,0.799,48.16,-29.97,14.59,2,3
17431.703,-0.196,-0.503,0.801,47.49,-29.51,12.82,2,3
17431.718,-0.181,-0.455,0.799,45.87,-29.97,10.44,2,3
17431.734,-0.184,-0.437,0.805,42.66,-29.73,9.86,2,3
17431.75,-0.185,-0.43,0.823,40.5,-28.47,12.51,2,3
17431.75,-0.193,-0.42,0.84,42.42,-26.8,15.59,2,3
17431.765,-0.217,-0.413,0.837,46.82,-25.85,19.53,2,3
17431.765,-0.212,-0.387,0.823,50.45,-26.95,24.41,2,3
17431.781,-0.182,-0.362,0.806,51.79,-28.53,27.77,2,3
17431.781,-0.163,-0.362,0.8,50.29,-28.93,29.66,2,3
17431.796,-0.138,-0.358,0.8,48.43,-28.41,29.97,2,3
17431.812,-0.129,-0.359,0.808,46.88,-26.18,29.36,2,3
17431.828,-0.121,-0.391,0.834,45.35,-23.22,29.76,2,3
17431.828,-0.111,-0.393,0.852,45.56,-20.91,29.27,2,3
17431.843,-0.115,-0.389,0.86,46.27,-19.47,27.31,2,3
17431.843,-0.134,-0.366,0.865,44.8,-19.9,24.81,2,3
17431.859,-0.145,-0.349,0.875,41.84,-21.42,22.58,2,3
17431.875,-0.157,-0.342,0.888,38.67,-22.74,20.91,2,3
17431.875,-0.173,-0.35,0.9,37.6,-23.59,20.75,2,3
17431.89,-0.182,-0.338,0.911,38.54,-24.02,21.7,2,3
17431.906,-0.172,-0.337,0.917,39.64,-24.38,23.83,2,3
17431.906,-0.159,-0.341,0.92,40.83,-24.63,25.91,2,3
17431.921,-0.156,-0.333,0.917,42.79,-25.48,26.61,2,3
17431.921,-0.15,-0.338,0.913,43.58,-26.31,26.22,2,3
17431.937,-0.133,-0.326,0.91,42.97,-27.1,24.72,2,3
17431.953,-0.126,-0.331,0.911,41.75,-27.44,21.73,2,3
17431.953,-0.122,-0.314,0.908,39.74,-28.32,17.49,2,3
17431.968,-0.113,-0.294,0.904,36.53,-29.73,12.51,2,3
17431.984,-0.113,-0.28,0.905,33.39,-30.88,7.87,2,3
17431.984,-0.104,-0.252,0.907,30.58,-32.32,3.33,2,3
17432.0,-0.107,-0.237,0.908,27.83,-33.02,0.76,2,3
17432.015,-0.114,-0.221,0.913,25.73,-32.96,0.34,2,3
17432.015,-0.115,-0.219,0.915,25.76,-32.38,2.01,2,3
17432.031,-0.102,-0.232,0.912,28.44,-31.65,4.46,2,3
17432.031,-0.09,-0.212,0.895,33.11,-30.4,6.47,2,3
17432.046,-0.069,-0.2,0.874,35.55,-28.93,7.42,2,3
17432.062,-0.053,-0.174,0.859,34.94,-27.83,6.04,2,3
17432.078,-0.045,-0.134,0.846,32.56,-27.16,1.89,2,3
17432.078,-0.047,-0.105,0.843,27.44,-26.64,-3.17,2,3
17432.093,-0.052,-0.106,0.857,20.81,-24.99,-4.85,2,3
17432.093,-0.049,-0.122,0.896,17.18,-21.7,-2.44,2,3
17432.109,-0.063,-0.153,0.941,19.32,-17.3,4.24,2,3
17432.125,-0.083,-0.159,0.969,25.67,-14.04,13.89,2,3
17432.125,-0.098,-0.149,0.975,32.99,-12.63,23.8,2,3
17432.14,-0.112,-0.149,0.969,38.24,-12.45,32.17,2,3
17432.14,-0.104,-0.163,0.966,41.75,-12.63,36.59,2,3
17432.156,-0.122,-0.186,0.972,43.4,-12.39,36.53,2,3
17432.171,-0.111,-0.187,0.984,42.27,-13.58,33.36,2,3
17432.171,-0.086,-0.184,0.999,32.87,-21.06,19.07,2,3
17432.187,-0.084,-0.187,1.002,27.41,-25.09,11.54,2,3
17432.203,-0.089,-0.202,0.998,23.41,-28.23,6.23,2,3
17432.203,-0.09,-0.195,0.997,21.67,-29.76,3.14,2,3
17432.218,-0.087,-0.188,0.996,22.46,-29.91,2.2,2,3
17432.234,-0.084,-0.156,0.988,25.06,-29.51,1.92,2,3
17432.234,-0.094,-0.139,0.985,26.4,-28.38,3.63,2,3
17432.25,-0.092,-0.133,0.991,26.34,-27.25,6.5,2,3
17432.265,-0.07,-0.117,0.986,27.44,-26.67,8.97,2,3
17432.265,-0.059,-0.11,0.981,28.75,-24.81,11.54,2,3
17432.281,-0.065,-0.135,0.984,30.52,-22.43,14.56,2,3
17432.296,-0.081,-0.118,0.985,32.78,-20.75,16.3,2,3
17432.296,-0.074,-0.126,0.992,32.56,-20.2,16.54,2,3
17432.312,-0.089,-0.148,0.996,31.31,-19.81,15.26,2,3
17432.312,-0.091,-0.123,0.997,29.94,-19.9,11.99,2,3
17432.328,-0.079,-0.137,1.004,26.98,-20.48,8.21,2,3
17432.343,-0.078,-0.137,1.011,25.3,-21.73,5.1,2,3
17432.343,-0.067,-0.113,1.015,25.91,-23.16,3.75,2,3
17432.359,-0.048,-0.099,1.017,26.92,-24.93,3.17,2,3
17432.375,-0.039,-0.083,1.008,28.35,-26.37,4.18,2,3
17432.375,-0.039,-0.071,0.998,30.09,-27.5,5.89,2,3
17432.39,-0.033,-0.059,0.991,30.88,-28.41,7.42,2,3
17432.39,-0.02,-0.037,0.983,31.04,-28.99,9.74,2,3
17432.406,-0.014,-0.023,0.974,31.71,-29.69,11.84,2,3
17432.421,-0.015,-0.01,0.969,31.92,-29.97,14.16,2,3
17432.421,-0.016,-0.025,0.962,32.01,-29.02,18.07,2,3
17432.437,-0.018,-0.034,0.959,33.72,-27.53,20.84,2,3
17432.453,-0.013,-0.029,0.955,35.31,-25.73,22.43,2,3
17432.468,-0.003,-0.026,0.958,34.55,-24.35,22.16,2,3
17432.468,0.011,-0.003,0.966,32.41,-24.23,19.07,2,3
17432.484,0.021,0.02,0.979,28.6,-25.76,15.11,2,3
17432.484,0.032,0.023,0.994,24.38,-28.72,11.93,2,3
17432.5,0.054,0.05,0.996,22.31,-32.62,9.89,2,3
17432.515,0.061,0.039,0.985,21.76,-36.16,10.1,2,3
17432.515,0.076,0.052,0.965,22.58,-39.28,10.86,2,3
17432.531,0.094,0.093,0.925,23.77,-41.78,11.05,2,3
17432.546,0.098,0.122,0.886,21.7,-42.73,9.74,2,3
17432.546,0.091,0.155,0.865,16.69,-42.09,9.7,2,3
17432.562,0.082,0.177,0.856,12.3,-39.89,13.92,2,3
17432.562,0.084,0.202,0.858,11.05,-37.11,22.43,2,3
17432.578,0.089,0.212,0.853,14.04,-34.52,36.29,2,3
17432.593,0.109,0.187,0.849,21.12,-31.1,54.63,2,3
17432.593,0.149,0.157,0.856,30.67,-24.29,73.95,2,3
17432.609,0.199,0.154,0.856,38.94,-15.78,88.69,2,3
17432.625,0.229,0.121,0.865,41.96,-7.75,96.96,2,3
17432.625,0.239,0.078,0.892,40.8,-1.83,100.31,2,3
17432.64,0.239,0.024,0.923,38.61,1.37,99.52,2,3
17432.64,0.223,0.017,0.941,36.32,1.43,93.39,2,3
17432.656,0.199,0.023,0.956,31.4,-0.85,84.51,2,3
17432.671,0.194,-0.014,0.982,24.63,-3.11,78.31,2,3
17432.671,0.211,-0.016,1.007,21.58,-4.67,73.95,2,3
17432.687,0.226,-0.024,1.013,23.96,-5.55,69.61,2,3
17432.703,0.229,-0.012,1.011,26.61,-6.32,63.81,2,3
17432.703,0.224,0.002,1.001,26.67,-7.54,55.85,2,3
17432.718,0.196,0.019,0.988,23.44,-9.95,45.05,2,3
17432.734,0.172,0.017,0.999,17.3,-12.79,33.42,2,3
17432.734,0.157,0.01,1.016,11.41,-15.23,22.68,2,3
17432.75,0.145,0.014,1.026,8.27,-17.94,15.14,2,3
17432.765,0.156,0.018,1.038,8.0,-20.84,11.11,2,3
17432.765,0.175,0.031,1.028,10.41,-23.5,9.06,2,3
17432.781,0.186,0.062,1.004,12.57,-26.03,7.17,2,3
17432.781,0.193,0.06,0.982,12.7,-28.26,4.3,2,3
17432.796,0.188,0.067,0.97,11.63,-29.94,-0.34,2,3
17432.812,0.19,0.08,0.959,9.22,-30.82,-5.65,2,3
17432.812,0.198,0.08,0.957,5.83,-31.01,-10.35,2,3
17432.828,0.213,0.086,0.964,2.87,-31.22,-13.21,2,3
17432.843,0.227,0.09,0.966,1.83,-31.65,-12.79,2,3
17432.843,0.232,0.113,0.959,3.3,-31.68,-9.77,2,3
17432.859,0.229,0.122,0.948,6.2,-30.82,-4.79,2,3
17432.875,0.234,0.132,0.934,9.95,-29.11,1.19,2,3
17432.875,0.258,0.137,0.924,13.82,-26.25,7.2,2,3
17432.89,0.275,0.15,0.909,16.88,-22.74,11.99,2,3
17432.906,0.28,0.154,0.903,17.91,-19.29,15.53,2,3
17432.906,0.267,0.136,0.913,17.55,-15.56,19.01,2,3
17432.921,0.27,0.119,0.931,17.79,-12.27,21.97,2,3
17432.921,0.273,0.111,0.938,19.53,-9.52,23.62,2,3
17432.937,0.274,0.117,0.945,21.21,-7.75,24.69,2,3
17432.953,0.287,0.11,0.951,21.42,-7.42,24.63,2,3
17432.953,0.288,0.115,0.949,21.0,-8.21,22.4,2,3
17432.968,0.281,0.121,0.944,19.71,-9.7,19.9,2,3
17432.984,0.275,0.115,0.936,17.49,-11.38,18.28,2,3
17432.984,0.278,0.127,0.928,16.51,-12.39,17.24,2,3
17433.0,0.285,0.152,0.919,16.39,-12.6,15.93,2,3
17433.015,0.296,0.175,0.906,15.72,-12.67,15.29,2,3
17433.015,0.302,0.205,0.899,14.8,-12.82,16.05,2,3
17433.031,0.309,0.204,0.897,14.13,-12.15,19.65,2,3
