timestamp,ax,ay,az,gx,gy,gz,orient_label,motion_label
18806.453,0.12,1.022,-0.051,7.14,-1.34,-10.9,4,2
18806.468,0.121,1.03,-0.042,9.31,-4.43,-7.69,4,2
18806.468,0.125,1.042,-0.053,8.67,-7.32,-2.53,4,2
18806.484,0.133,1.033,-0.081,4.21,-8.58,3.97,4,2
18806.484,0.137,1.008,-0.101,-4.64,-8.39,11.14,4,2
18806.5,0.134,0.97,-0.096,-14.37,-7.6,17.0,4,2
18806.515,0.137,0.942,-0.083,-19.04,-6.71,20.48,4,2
18806.515,0.147,0.93,-0.087,-17.27,-5.95,21.52,4,2
18806.531,0.158,0.93,-0.099,-13.76,-5.19,19.26,4,2
18806.546,0.146,0.919,-0.109,-10.44,-3.23,14.1,4,2
18806.546,0.129,0.902,-0.107,-7.2,-1.04,9.46,4,2
18806.562,0.13,0.91,-0.095,-5.01,-0.18,6.07,4,2
18806.578,0.134,0.928,-0.082,-4.33,-0.58,1.98,4,2
18806.578,0.128,0.942,-0.07,-3.66,-1.19,-2.2,4,2
18806.593,0.127,0.958,-0.069,-1.92,-2.66,-5.68,4,2
18806.593,0.125,0.971,-0.089,0.73,-4.12,-6.9,4,2
18806.609,0.142,0.982,-0.105,1.8,-4.24,-4.79,4,2
18806.625,0.124,0.999,-0.128,-1.89,0.98,0.95,4,2
18806.64,0.109,0.994,-0.124,-6.53,2.78,4.24,4,2
18806.656,0.114,0.983,-0.13,-9.06,3.33,6.44,4,2
18806.656,0.12,0.978,-0.14,-8.85,4.39,7.08,4,2
18806.671,0.126,0.971,-0.153,-6.5,6.29,6.44,4,2
18806.687,0.141,0.963,-0.16,-2.99,8.73,5.52,4,2
18806.687,0.147,0.969,-0.161,1.46,12.36,4.76,4,2
18806.703,0.138,0.975,-0.148,4.09,16.42,4.7,4,2
18806.718,0.136,0.981,-0.135,3.3,19.38,6.2,4,2
18806.718,0.133,0.984,-0.114,0.95,21.67,8.18,4,2
18806.734,0.116,0.977,-0.087,-1.37,23.68,10.5,4,2
18806.734,0.105,0.961,-0.065,-2.44,25.21,13.18,4,2
18806.75,0.095,0.941,-0.047,-1.95,26.52,15.72,4,2
18806.765,0.072,0.919,-0.039,1.4,28.05,16.69,4,2
18806.765,0.039,0.896,-0.049,7.93,30.43,16.6,4,2
18806.781,0.003,0.887,-0.074,16.17,33.6,17.33,4,2
18806.796,-0.027,0.904,-0.136,29.08,43.86,21.82,4,2
18806.812,-0.055,0.909,-0.149,33.02,52.28,25.82,4,2
18806.828,-0.081,0.917,-0.156,34.79,62.29,30.88,4,2
18806.828,-0.118,0.934,-0.144,34.36,72.63,38.33,4,2
18806.843,-0.154,0.957,-0.116,32.44,85.33,49.07,4,2
18806.859,-0.147,0.95,-0.042,31.4,98.09,59.63,4,2
18806.859,-0.266,0.932,0.0,32.47,109.74,65.16,4,2
18806.875,-0.348,0.906,0.043,31.19,124.33,73.95,4,2
18806.875,-0.439,0.877,0.089,30.64,138.62,83.35,4,2
18806.89,-0.537,0.857,0.119,33.02,155.86,95.98,4,2
18806.906,-0.588,0.808,0.106,34.67,171.58,110.63,4,2
18806.906,-0.539,0.731,0.025,25.82,180.91,125.68,4,2
18806.921,-0.481,0.678,-0.024,2.99,190.19,138.0,4,2
18806.937,-0.439,0.609,-0.01,-24.63,202.55,145.3,4,2
18806.937,-0.387,0.533,0.025,-49.04,217.26,148.47,4,2
18806.953,-0.321,0.468,0.103,-67.84,234.57,147.65,4,2
18806.968,-0.279,0.433,0.193,-77.64,253.12,140.57,4,2
18806.968,-0.253,0.389,0.187,-81.39,266.03,129.7,4,2
18806.984,-0.227,0.364,0.119,-103.85,269.42,119.94,4,2
18806.984,-0.212,0.343,0.103,-120.0,270.42,117.4,4,2
18807.0,-0.178,0.28,0.124,-131.63,271.37,111.21,4,2
18807.015,-0.14,0.233,0.137,-137.73,274.42,101.41,4,2
18807.015,0.098,0.16,0.204,-140.35,278.91,88.6,4,2
18807.031,0.139,0.156,0.193,-143.59,278.42,70.38,4,2
18807.046,0.155,0.158,0.214,-148.29,277.57,55.09,4,2
18807.046,0.162,0.178,0.264,-154.36,275.46,37.81,4,2
18807.062,0.144,0.156,0.326,-160.16,272.41,19.07,4,2
18807.078,0.137,0.152,0.411,-163.3,268.11,2.38,4,2
18807.078,0.179,0.197,0.538,-159.49,265.63,-10.74,4,2
18807.093,0.243,0.28,0.676,-146.37,265.24,-21.94,4,2
18807.109,0.262,0.355,0.775,-125.98,263.99,-34.61,4,2
18807.109,0.237,0.398,0.82,-107.97,259.87,-47.88,4,2
18807.125,0.195,0.456,0.93,-82.34,241.95,-77.49,4,2
18807.14,0.191,0.512,1.011,-66.19,232.95,-91.53,4,2
18807.156,0.18,0.579,1.098,-50.54,225.53,-102.36,4,2
18807.156,0.17,0.662,1.192,-38.54,219.79,-106.94,4,2
18807.171,0.117,0.759,1.265,-30.34,213.11,-106.45,4,2
18807.187,0.05,0.833,1.292,-30.4,199.56,-100.8,4,2
18807.187,0.021,0.891,1.301,-41.63,179.54,-93.33,4,2
18807.203,0.017,0.929,1.287,-58.08,159.37,-86.89,4,2
18807.218,0.012,0.925,1.253,-72.21,142.12,-80.72,4,2
18807.218,0.031,0.891,1.233,-79.62,128.97,-71.87,4,2
18807.234,0.058,0.853,1.235,-75.78,122.26,-60.76,4,2
18807.234,0.065,0.835,1.222,-63.78,121.74,-49.5,4,2
18807.25,0.068,0.803,1.21,-54.45,121.62,-40.71,4,2
18807.265,0.058,0.775,1.205,-51.91,120.61,-34.15,4,2
18807.281,0.029,0.767,1.193,-56.67,118.29,-28.84,4,2
18807.281,-0.002,0.758,1.204,-68.82,114.17,-22.34,4,2
18807.296,-0.036,0.751,1.228,-82.98,108.22,-15.11,4,2
18807.296,-0.071,0.734,1.26,-92.44,99.67,-6.71,4,2
18807.312,-0.097,0.695,1.288,-94.39,88.32,3.75,4,2
18807.328,-0.098,0.659,1.287,-89.97,74.77,16.11,4,2
18807.328,-0.072,0.626,1.266,-82.67,61.1,27.01,4,2
18807.343,-0.044,0.587,1.234,-76.36,50.94,34.36,4,2
18807.359,-0.038,0.573,1.218,-73.18,44.86,39.09,4,2
18807.359,-0.048,0.569,1.211,-73.03,38.85,43.15,4,2
18807.375,-0.049,0.538,1.202,-75.56,31.95,47.3,4,2
18807.375,-0.052,0.49,1.189,-78.59,25.64,51.82,4,2
18807.39,-0.062,0.43,1.187,-80.23,19.1,54.57,4,2
18807.406,-0.085,0.363,1.178,-77.27,10.04,54.48,4,2
18807.406,-0.12,0.303,1.158,-66.38,-0.79,52.34,4,2
18807.421,-0.148,0.276,1.134,-47.49,-10.71,48.83,4,2
18807.437,-0.133,0.294,1.124,-25.85,-16.24,45.11,4,2
18807.437,-0.109,0.346,1.148,-4.82,-15.63,42.12,4,2
18807.453,-0.115,0.403,1.187,14.89,-10.83,40.38,4,2
18807.468,-0.14,0.469,1.234,29.88,-4.52,40.71,4,2
18807.468,-0.168,0.544,1.287,35.98,-0.43,43.37,4,2
18807.484,-0.214,0.599,1.323,31.83,-4.61,47.18,4,2
18807.484,-0.232,0.598,1.323,17.91,-17.64,51.94,4,2
18807.5,-0.214,0.542,1.287,0.64,-35.55,55.21,4,2
18807.515,-0.194,0.456,1.191,-10.96,-51.88,56.58,4,2
18807.531,-0.163,0.387,1.048,-17.76,-61.62,56.34,4,2
18807.531,-0.104,0.363,0.922,-24.11,-61.46,54.66,4,2
18807.546,-0.04,0.343,0.84,-30.82,-51.52,50.78,4,2
18807.546,-0.011,0.349,0.823,-40.1,-35.46,44.77,4,2
18807.562,-0.007,0.361,0.853,-48.37,-18.37,39.67,4,2
18807.578,-0.022,0.373,0.908,-52.46,-4.15,37.45,4,2
18807.578,-0.052,0.378,0.969,-51.79,4.0,37.17,4,2
18807.593,-0.103,0.383,1.081,-48.46,3.57,36.65,4,2
18807.609,-0.231,0.456,1.278,-37.93,-10.38,37.66,4,2
18807.609,-0.181,0.508,1.287,-21.64,-36.77,49.01,4,2
18807.625,0.086,0.527,0.986,-19.87,-64.52,59.82,4,2
18807.64,0.074,0.463,0.9,-26.52,-56.64,56.7,4,2
18807.656,0.085,0.469,0.904,-36.35,-46.33,56.28,4,2
18807.656,0.061,0.458,0.931,-40.41,-37.35,56.28,4,2
18807.671,0.028,0.413,0.947,-37.93,-32.53,55.94,4,2
18807.687,0.021,0.392,0.941,-32.59,-31.56,54.81,4,2
18807.687,0.03,0.376,0.924,-24.78,-32.38,51.52,4,2
18807.703,0.045,0.378,0.913,-14.86,-32.38,47.24,4,2
18807.718,0.049,0.4,0.908,-3.39,-30.37,43.09,4,2
18807.718,0.064,0.431,0.91,5.71,-28.14,40.53,4,2
18807.734,0.078,0.495,0.937,5.37,-26.09,39.7,4,2
18807.734,0.083,0.523,0.954,-1.19,-23.99,41.38,4,2
18807.75,0.081,0.502,0.956,-7.87,-21.64,46.33,4,2
18807.765,0.073,0.469,0.955,-13.0,-19.2,53.22,4,2
18807.781,0.054,0.419,0.947,-14.92,-16.91,59.27,4,2
18807.781,0.03,0.385,0.938,-12.82,-16.27,63.42,4,2
18807.796,0.079,0.359,0.878,-3.88,-16.97,65.55,4,2
18807.812,0.08,0.359,0.858,-1.56,-15.05,61.83,4,2
18807.828,0.085,0.369,0.86,-0.95,-12.85,57.65,4,2
18807.828,0.119,0.364,0.877,1.07,-9.28,55.7,4,2
18807.843,0.12,0.387,0.91,6.13,-3.85,55.73,4,2
18807.859,0.106,0.417,0.941,9.98,0.06,57.5,4,2
18807.859,0.1,0.429,0.97,8.12,0.67,59.72,4,2
18807.875,0.098,0.4,0.969,3.33,-0.43,61.34,4,2
18807.875,0.096,0.366,0.953,-0.82,-1.1,62.23,4,2
18807.89,0.096,0.358,0.951,-4.73,-1.59,61.37,4,2
18807.906,0.097,0.325,0.95,-8.09,-3.14,58.17,4,2
18807.906,0.099,0.281,0.952,-8.97,-5.16,54.02,4,2
18807.921,0.091,0.279,0.964,-2.66,-6.26,49.71,4,2
18807.937,0.08,0.317,0.966,11.05,-7.42,44.71,4,2
18807.937,0.078,0.343,0.967,26.09,-9.67,38.94,4,2
18807.953,0.061,0.355,0.937,38.15,-13.03,32.75,4,2
18807.968,0.062,0.449,0.874,32.56,-15.41,28.23,4,2
18807.984,0.078,0.462,0.853,25.54,-11.35,33.69,4,2
18807.984,0.115,0.458,0.835,19.71,-4.46,39.58,4,2
18808.0,0.116,0.422,0.857,10.74,2.47,41.96,4,2
18808.015,0.109,0.405,0.891,0.15,6.56,42.36,4,2
18808.031,0.125,0.366,0.933,-8.94,7.72,39.28,4,2
18808.031,0.132,0.349,0.986,-13.37,7.42,32.59,4,2
18808.046,0.128,0.333,1.017,-9.98,5.16,25.97,4,2
18808.046,0.134,0.335,1.003,-1.68,1.77,20.84,4,2
18808.062,0.154,0.354,0.966,4.82,-0.64,15.99,4,2
18808.078,0.159,0.377,0.935,8.3,-0.7,9.7,4,2
18808.078,0.152,0.399,0.916,9.89,1.19,2.78,4,2
18808.093,0.146,0.427,0.908,9.95,3.42,-3.3,4,2
18808.093,0.144,0.461,0.901,9.92,5.34,-8.42,4,2
18808.109,0.131,0.504,0.908,8.88,6.56,-12.09,4,2
18808.125,0.111,0.542,0.92,6.56,6.1,-12.73,4,2
18808.14,0.151,0.54,0.867,-1.8,2.44,-3.33,4,2
18808.156,0.166,0.498,0.837,-7.75,3.14,0.55,4,2
18808.156,0.168,0.44,0.827,-11.87,5.68,2.29,4,2
18808.171,0.169,0.411,0.846,-12.02,8.85,2.35,4,2
18808.187,0.161,0.396,0.878,-8.27,11.72,1.19,4,2
18808.187,0.148,0.395,0.917,-2.72,13.18,-1.01,4,2
18808.203,0.149,0.407,0.929,0.37,11.99,-3.27,4,2
18808.218,0.159,0.406,0.953,-0.21,9.28,-5.37,4,2
18808.218,0.153,0.395,0.96,-0.49,7.26,-6.26,4,2
18808.234,0.16,0.393,0.94,-2.38,5.37,-5.04,4,2
18808.25,0.176,0.404,0.928,-7.32,4.52,-3.57,4,2
18808.25,0.173,0.39,0.917,-12.57,5.07,-3.17,4,2
18808.265,0.143,0.386,0.922,-16.75,6.26,-2.56,4,2
18808.281,0.115,0.374,0.915,-19.84,5.74,-1.53,4,2
18808.281,0.105,0.343,0.906,-22.13,4.03,-1.01,4,2
18808.296,0.1,0.319,0.895,-21.15,2.93,-1.25,4,2
18808.312,0.097,0.312,0.865,-15.14,3.69,-4.76,4,2
18808.328,0.1,0.319,0.87,-12.12,4.79,-7.45,4,2
18808.328,0.106,0.344,0.878,-9.13,6.29,-9.31,4,2
18808.343,0.105,0.356,0.875,-6.1,7.08,-10.83,4,2
18808.343,0.117,0.355,0.881,-2.78,7.29,-12.15,4,2
18808.359,0.125,0.358,0.887,2.29,8.51,-13.64,4,2
18808.375,0.125,0.377,0.897,7.29,10.32,-15.02,4,2
18808.375,0.123,0.423,0.934,9.37,11.6,-15.29,4,2
18808.39,0.123,0.453,0.942,8.61,10.44,-13.58,4,2
18808.406,0.129,0.436,0.923,4.03,7.97,-10.19,4,2
18808.406,0.134,0.41,0.9,-3.45,6.23,-8.27,4,2
18808.421,0.129,0.384,0.835,-11.63,5.55,-8.48,4,2
18808.437,0.131,0.349,0.773,-21.03,7.05,-9.31,4,2
18808.437,0.172,0.29,0.795,-28.44,12.02,-13.03,4,2
18808.453,0.176,0.258,0.905,-24.75,18.98,-21.36,4,2
18808.468,0.071,0.295,0.998,-11.38,22.13,-27.62,4,2
18808.484,0.112,0.406,1.027,-2.17,14.31,-18.83,4,2
18808.484,0.118,0.401,1.059,-6.26,15.32,-16.97,4,2
18808.5,0.138,0.372,1.095,-8.82,18.46,-12.09,4,2
18808.515,0.151,0.365,1.148,-10.16,21.03,-6.93,4,2
18808.515,0.115,0.32,1.19,-9.22,19.59,-5.31,4,2
18808.531,0.059,0.255,1.212,-6.68,12.33,-5.07,4,2
18808.546,0.034,0.173,1.225,-1.74,-3.88,-6.47,4,2
18808.546,0.012,0.121,1.224,10.96,-25.03,-10.71,4,2
18808.562,-0.031,0.243,1.13,32.23,-42.82,-13.09,4,2
18808.578,-0.088,0.376,0.917,53.04,-54.48,-7.08,4,2
18808.578,-0.031,0.33,0.919,49.68,-66.56,-2.78,4,2
18808.593,0.169,0.333,0.768,35.8,-76.14,-2.44,4,2
18808.593,0.257,0.392,0.653,13.18,-69.43,-7.26,4,2
18808.609,0.248,0.32,0.614,1.1,-49.41,-11.44,4,2
18808.625,0.263,0.256,0.572,-3.17,-29.27,-12.02,4,2
18808.64,0.282,0.261,0.522,-8.21,-6.32,-16.54,4,2
18808.656,0.2,0.245,0.542,-25.06,43.46,-38.45,4,2
18808.656,0.086,0.26,0.658,-27.74,62.99,-49.2,4,2
18808.671,-0.046,0.304,0.783,-22.0,72.6,-54.78,4,2
18808.687,-0.149,0.349,0.903,-11.84,69.83,-53.9,4,2
18808.687,-0.208,0.394,0.978,-0.67,57.01,-48.65,4,2
18808.703,-0.218,0.427,0.991,8.18,40.47,-40.77,4,2
18808.718,-0.244,0.497,1.036,12.73,25.42,-31.83,4,2
18808.718,-0.245,0.636,1.16,24.93,10.8,-13.49,4,2
18808.734,0.014,0.669,1.041,30.64,-4.09,11.63,4,2
18808.734,0.088,0.677,0.948,12.51,-7.29,15.5,4,2
18808.75,0.035,0.589,0.962,-6.2,0.12,12.82,4,2
18808.765,0.032,0.484,1.006,-13.03,1.43,15.66,4,2
18808.765,0.025,0.419,0.991,-9.67,-1.56,15.26,4,2
18808.781,0.009,0.366,0.98,-4.46,-5.74,11.11,4,2
18808.796,0.024,0.328,0.971,1.92,-10.38,6.99,4,2
18808.796,0.048,0.331,0.946,10.1,-12.94,3.23,4,2
18808.828,0.063,0.352,0.886,19.84,-11.23,-2.29,4,2
18808.828,0.076,0.373,0.895,17.94,-9.06,-3.97,4,2
18808.843,0.076,0.38,0.902,15.2,-7.2,-4.79,4,2
18808.843,0.069,0.387,0.91,12.6,-5.77,-4.61,4,2
18808.859,0.069,0.399,0.926,10.44,-5.52,-3.57,4,2
18808.875,0.077,0.397,0.928,9.43,-6.01,-2.53,4,2
18808.875,0.078,0.392,0.92,9.0,-6.29,-2.29,4,2
18808.89,0.075,0.383,0.921,8.61,-6.56,-2.41,4,2
18808.906,0.078,0.376,0.915,8.82,-6.68,-2.84,4,2
18808.906,0.084,0.375,0.9,9.31,-6.62,-3.27,4,2
18808.921,0.086,0.377,0.892,8.91,-5.8,-3.97,4,2
18808.937,0.082,0.389,0.891,7.84,-4.61,-4.61,4,2
18808.937,0.086,0.398,0.88,5.83,-3.81,-4.36,4,2
18808.953,0.096,0.397,0.867,2.26,0.55,-4.27,4,2
18808.953,0.098,0.389,0.865,1.22,3.05,-4.91,4,2
18808.968,0.081,0.388,0.876,0.95,3.78,-4.82,4,2
18809.0,0.069,0.376,0.891,1.65,0.92,-3.17,4,2
18809.0,0.074,0.377,0.895,2.56,-0.27,-4.49,4,2
18809.015,0.077,0.385,0.895,5.04,-1.5,-6.04,4,2
18809.031,0.08,0.392,0.889,8.67,-1.83,-7.32,4,2
18809.031,0.084,0.402,0.897,11.96,-1.22,-8.7,4,2
18809.046,0.078,0.423,0.918,15.14,-0.4,-9.61,4,2
18809.046,0.06,0.455,0.928,16.72,-0.21,-8.67,4,2
18809.062,0.058,0.472,0.922,14.65,-1.31,-6.32,4,2
18809.078,0.065,0.471,0.911,9.06,-2.23,-3.78,4,2
18809.078,0.066,0.464,0.906,1.92,-2.44,-1.98,4,2
18809.093,0.061,0.453,0.903,-4.39,-2.41,-0.64,4,2
18809.093,0.057,0.434,0.902,-9.46,-2.87,0.43,4,2
18809.109,0.056,0.419,0.929,-11.54,-3.48,1.04,4,2
18809.125,0.045,0.405,0.943,-9.31,-4.43,1.8,4,2
18809.125,0.052,0.394,0.922,-7.45,-6.56,2.96,4,2
18809.14,0.055,0.391,0.896,-8.3,-8.42,2.17,4,2
18809.156,0.052,0.392,0.871,-10.47,-8.61,0.21,4,2
18809.171,0.041,0.393,0.821,-13.89,-8.12,-1.34,4,2
18809.171,0.051,0.364,0.763,-20.75,-6.26,-4.06,4,2
18809.187,0.092,0.337,0.803,-28.17,-2.47,-10.62,4,2
18809.187,0.092,0.37,0.978,-25.76,0.89,-16.33,4,2
18809.203,0.078,0.409,1.055,-15.41,-0.21,-15.78,4,2
18809.218,0.098,0.466,1.112,-13.03,-4.58,-11.32,4,2
18809.218,0.217,0.443,1.113,-16.91,-8.67,-6.44,4,2
18809.234,0.26,0.407,1.147,-21.09,-5.16,-5.49,4,2
18809.234,0.254,0.352,1.166,-18.86,2.56,-4.55,4,2
18809.25,0.216,0.334,1.182,-15.08,7.57,-4.15,4,2
18809.265,0.134,0.332,1.176,-9.4,8.7,-5.74,4,2
18809.281,0.02,0.33,1.134,-0.61,7.26,-8.12,4,2
18809.281,-0.117,0.345,1.044,10.41,-0.64,-8.88,4,2
18809.296,-0.17,0.386,0.905,18.92,-17.15,-4.73,4,2
18809.296,-0.287,0.45,0.942,25.79,-34.73,0.09,4,2
18809.312,-0.196,0.427,1.009,36.38,-60.18,11.78,4,2
18809.328,0.128,0.557,0.768,16.21,-79.87,18.49,4,2
18809.343,0.145,0.435,0.75,1.59,-70.47,16.48,4,2
18809.359,0.162,0.374,0.738,-6.01,-62.26,13.82,4,2
18809.359,0.147,0.36,0.71,-3.81,-51.09,9.95,4,2
18809.375,0.144,0.328,0.664,-1.04,-41.84,4.91,4,2
18809.375,0.187,0.284,0.618,-1.46,-32.84,-2.35,4,2
18809.39,0.209,0.263,0.603,-0.95,-18.68,-13.61,4,2
18809.406,0.179,0.274,0.622,2.56,0.79,-24.69,4,2
18809.406,0.126,0.313,0.651,7.97,20.87,-31.28,4,2
18809.421,0.07,0.347,0.688,13.0,36.62,-33.42,4,2
18809.437,0.002,0.387,0.77,12.12,45.14,-32.17,4,2
18809.437,-0.034,0.419,0.832,7.57,45.41,-27.89,4,2
18809.453,-0.023,0.421,0.858,2.69,41.11,-21.88,4,2
18809.468,-0.014,0.405,0.882,-1.22,35.8,-17.18,4,2
18809.468,-0.003,0.406,0.886,-3.33,30.03,-14.53,4,2
18809.484,0.011,0.409,0.906,-3.81,24.45,-12.85,4,2
18809.5,0.02,0.431,1.051,7.11,1.71,-4.49,4,2
18809.515,0.137,0.474,0.988,7.42,-9.58,-1.04,4,2
18809.515,0.154,0.466,0.934,5.04,-7.72,-2.35,4,2
18809.531,0.173,0.429,0.916,1.89,-2.93,-1.62,4,2
18809.546,0.161,0.429,0.896,0.76,2.17,-0.85,4,2
18809.546,0.146,0.422,0.905,-1.5,5.71,-0.98,4,2
18809.562,0.125,0.407,0.926,-4.49,6.96,-2.11,4,2
18809.578,0.113,0.393,0.937,-3.94,5.86,-2.99,4,2
18809.578,0.104,0.406,0.946,0.49,4.46,-3.36,4,2
18809.593,0.094,0.408,0.937,7.97,2.53,-3.27,4,2
18809.593,0.094,0.398,0.92,14.71,0.79,-3.94,4,2
18809.609,0.088,0.407,0.909,18.68,0.55,-5.22,4,2
18809.625,0.077,0.425,0.899,20.23,0.92,-5.95,4,2
18809.625,0.072,0.452,0.908,18.07,1.37,-6.04,4,2
18809.64,0.061,0.479,0.923,14.65,1.37,-5.19,4,2
18809.656,0.047,0.479,0.913,10.35,0.46,-3.02,4,2
18809.656,0.056,0.478,0.903,4.33,-1.04,-0.4,4,2
18809.671,0.062,0.441,0.897,2.53,0.79,2.11,4,2
18809.687,0.037,0.427,0.897,0.98,1.89,1.77,4,2
18809.687,0.046,0.421,0.901,-0.61,1.77,2.17,4,2
18809.703,0.044,0.399,0.9,0.21,2.9,1.83,4,2
18809.718,0.032,0.393,0.899,0.95,3.51,0.34,4,2
18809.718,0.034,0.389,0.897,1.89,3.3,-0.92,4,2
18809.734,0.042,0.389,0.899,3.75,3.51,-2.2,4,2
18809.734,0.041,0.394,0.898,7.11,4.49,-3.23,4,2
18809.75,0.043,0.402,0.901,10.65,5.83,-3.33,4,2
18809.765,0.041,0.421,0.901,12.57,6.99,-3.97,4,2
18809.765,0.04,0.446,0.909,13.46,8.12,-3.97,4,2
18809.781,0.027,0.467,0.932,14.19,8.55,-2.47,4,2
18809.796,0.019,0.476,0.951,14.5,7.42,0.0,4,2
18809.796,0.015,0.472,0.956,14.07,5.04,2.17,4,2
18809.812,0.003,0.477,0.967,14.44,2.11,4.36,4,2
18809.828,-0.006,0.468,0.953,16.88,-2.04,6.65,4,2
18809.828,-0.017,0.468,0.932,19.29,-7.32,8.39,4,2
18809.843,-0.046,0.471,0.967,22.03,-13.7,10.04,4,2
18809.843,-0.087,0.472,1.042,26.67,-25.7,12.97,4,2
18809.859,-0.025,0.485,0.996,30.24,-42.63,19.2,4,2
18809.875,0.093,0.505,0.913,25.12,-54.35,22.37,4,2
18809.89,0.144,0.487,0.849,18.01,-55.57,19.26,4,2
18809.89,0.166,0.443,0.787,12.02,-50.94,15.26,4,2
18809.906,0.18,0.426,0.745,6.65,-43.06,11.6,4,2
18809.906,0.168,0.414,0.738,4.27,-32.93,8.48,4,2
18809.921,0.15,0.403,0.754,4.39,-23.65,6.78,4,2
18809.937,0.139,0.42,0.782,11.96,-10.62,8.15,4,2
18809.937,0.131,0.44,0.789,13.25,-6.96,7.66,4,2
18809.953,0.125,0.446,0.777,8.76,-5.25,4.97,4,2
18809.968,0.116,0.46,0.779,2.14,-5.19,1.56,4,2
18809.968,0.136,0.454,0.792,-3.3,-4.76,-1.8,4,2
18809.984,0.148,0.453,0.794,-5.89,-2.69,-4.61,4,2
18810.0,0.145,0.452,0.799,-5.86,0.98,-6.84,4,2
18810.0,0.128,0.456,0.823,-4.39,4.46,-8.18,4,2
18810.015,0.11,0.459,0.85,-2.32,6.2,-8.51,4,2
18810.015,0.096,0.463,0.869,0.18,5.46,-8.12,4,2
18810.031,0.103,0.475,0.875,3.05,3.54,-7.48,4,2
18810.046,0.123,0.498,0.874,5.49,2.56,-6.53,4,2
18810.046,0.128,0.506,0.86,6.68,3.08,-5.89,4,2
18810.062,0.136,0.514,0.851,6.16,4.79,-4.85,4,2
18810.078,0.141,0.516,0.829,5.04,7.45,-3.45,4,2
18810.078,0.13,0.516,0.818,1.31,10.71,-2.72,4,2
18810.093,0.089,0.517,0.875,-4.21,13.09,-2.14,4,2
18810.093,0.083,0.499,0.954,-8.21,10.13,-0.15,4,2
18810.109,0.116,0.49,0.943,-12.05,2.56,0.03,4,2
18810.125,0.138,0.476,0.927,-16.33,-1.98,-2.56,4,2
18810.14,0.145,0.439,0.93,-16.39,-3.45,-6.29,4,2
18810.14,0.126,0.442,0.925,-12.09,-4.79,-9.74,4,2
18810.156,0.147,0.447,0.873,-8.33,-6.84,-11.96,4,2
18810.156,0.149,0.469,0.866,-8.94,-6.38,-15.14,4,2
18810.171,0.133,0.457,0.87,-9.28,-5.19,-17.7,4,2
18810.187,0.124,0.453,0.878,-8.85,-5.07,-18.1,4,2
18810.187,0.115,0.459,0.879,-6.29,-4.85,-17.33,4,2
18810.203,0.11,0.464,0.877,-3.27,-4.64,-16.21,4,2
18810.218,0.111,0.463,0.877,-2.41,-5.04,-15.35,4,2
18810.218,0.116,0.456,0.871,-3.17,-5.98,-15.96,4,2
18810.234,0.113,0.46,0.871,-3.91,-6.16,-16.75,4,2
18810.234,0.106,0.463,0.877,-3.51,-6.5,-16.82,4,2
18810.25,0.098,0.458,0.881,-2.72,-7.26,-16.51,4,2
18810.265,0.092,0.462,0.875,-2.96,-8.48,-16.21,4,2
18810.265,0.096,0.459,0.868,-4.73,-10.04,-16.17,4,2
18810.281,0.097,0.448,0.867,-6.01,-10.83,-16.51,4,2
18810.296,0.097,0.437,0.867,-5.65,-10.9,-16.75,4,2
18810.312,0.093,0.433,0.87,-3.23,-10.62,-17.06,4,2
18810.312,0.091,0.442,0.872,-0.15,-11.11,-17.33,4,2
18810.328,0.094,0.448,0.877,3.08,-12.3,-18.31,4,2
18810.328,0.091,0.45,0.868,6.9,-13.92,-19.29,4,2
18810.343,0.1,0.47,0.861,9.64,-15.56,-19.1,4,2
18810.359,0.108,0.493,0.86,10.38,-16.51,-19.01,4,2
18810.359,0.112,0.501,0.852,8.91,-17.12,-18.83,4,2
18810.375,0.113,0.508,0.845,5.92,-17.37,-17.88,4,2
18810.375,0.115,0.513,0.852,3.11,-16.48,-16.39,4,2
18810.39,0.115,0.509,0.859,1.86,-15.2,-14.1,4,2
18810.406,0.108,0.503,0.863,1.43,-13.89,-11.38,4,2
18810.406,0.104,0.503,0.868,0.09,-13.21,-9.74,4,2
18810.421,0.104,0.49,0.873,-1.77,-13.0,-9.16,4,2
18810.437,0.099,0.472,0.871,-2.9,-12.94,-9.16,4,2
18810.437,0.097,0.458,0.874,-2.11,-12.57,-9.0,4,2
18810.453,0.095,0.452,0.877,-0.12,-12.05,-8.85,4,2
18810.453,0.099,0.456,0.874,0.27,-11.93,-9.0,4,2
18810.468,0.107,0.455,0.869,-0.92,-11.99,-9.49,4,2
18810.484,0.115,0.443,0.869,-1.86,-11.17,-9.92,4,2
18810.484,0.114,0.442,0.877,-2.47,-9.67,-10.22,4,2
18810.5,0.125,0.446,0.89,-3.02,-8.61,-9.46,4,2
18810.515,0.131,0.445,0.898,-3.08,-7.39,-8.58,4,2
18810.515,0.128,0.439,0.904,-2.47,-6.5,-7.9,4,2
18810.531,0.129,0.435,0.905,-2.11,-6.38,-7.75,4,2
18810.546,0.128,0.426,0.894,-0.79,-6.44,-8.48,4,2
18810.546,0.124,0.431,0.883,0.98,-5.95,-9.67,4,2
18810.562,0.121,0.438,0.881,2.2,-5.43,-11.11,4,2
18810.578,0.119,0.445,0.882,2.08,-5.31,-12.54,4,2
18810.578,0.114,0.45,0.882,1.62,-5.28,-13.73,4,2
18810.593,0.108,0.451,0.883,0.92,-5.74,-14.47,4,2
18810.593,0.113,0.455,0.886,0.12,-6.87,-14.71,4,2
18810.609,0.118,0.458,0.882,0.34,-7.35,-14.95,4,2
18810.625,0.115,0.462,0.875,1.28,-7.11,-15.35,4,2
18810.625,0.114,0.465,0.871,1.98,-6.84,-15.59,4,2
18810.64,0.112,0.474,0.871,2.81,-6.38,-15.84,4,2
18810.656,0.104,0.481,0.867,4.18,-6.13,-16.14,4,2
18810.656,0.093,0.49,0.863,5.52,-6.2,-15.59,4,2
18810.671,0.092,0.503,0.856,6.78,-6.47,-14.16,4,2
18810.687,0.09,0.508,0.845,7.45,-6.1,-12.82,4,2
18810.687,0.086,0.509,0.837,6.01,-5.58,-11.54,4,2
18810.703,0.086,0.507,0.835,2.53,-5.31,-10.44,4,2
18810.703,0.086,0.499,0.84,-0.12,-5.19,-9.4,4,2
18810.718,0.087,0.49,0.846,-1.37,-4.79,-8.06,4,2
18810.734,0.094,0.484,0.846,-1.83,-4.55,-6.93,4,2
18810.734,0.1,0.48,0.848,-1.56,-4.18,-6.26,4,2
18810.75,0.103,0.478,0.856,-0.31,-3.63,-5.86,4,2
18810.765,0.103,0.485,0.853,1.98,-3.14,-5.62,4,2
18810.781,0.103,0.495,0.85,4.39,-2.41,-5.49,4,2
18810.781,0.099,0.501,0.855,6.44,-1.5,-5.46,4,2
18810.796,0.094,0.512,0.854,7.51,-1.25,-5.1,4,2
18810.796,0.096,0.517,0.846,6.62,-1.25,-4.06,4,2
18810.812,0.096,0.521,0.846,3.94,-1.07,-2.35,4,2
18810.828,0.098,0.513,0.844,0.85,-0.7,-0.58,4,2
18810.828,0.104,0.494,0.848,-1.37,-0.34,1.25,4,2
18810.843,0.11,0.477,0.852,-2.17,0.55,2.84,4,2
18810.859,0.114,0.462,0.859,-1.86,1.4,3.51,4,2
18810.859,0.112,0.451,0.868,-0.61,1.98,2.9,4,2
18810.875,0.113,0.45,0.874,0.46,1.86,1.77,4,2
18810.875,0.114,0.453,0.874,2.01,1.5,0.49,4,2
18810.89,0.116,0.459,0.872,3.66,1.25,-0.61,4,2
18810.906,0.116,0.47,0.869,4.46,1.04,-1.46,4,2
18810.906,0.118,0.484,0.863,4.49,1.01,-1.95,4,2
18810.921,0.118,0.493,0.854,3.72,1.71,-0.61,4,2
18810.937,0.115,0.494,0.855,2.44,2.08,-0.06,4,2
18810.937,0.113,0.49,0.85,1.4,2.26,0.64,4,2
18810.953,0.115,0.481,0.857,1.13,2.44,0.92,4,2
18810.968,0.111,0.479,0.86,1.19,2.47,0.98,4,2
18810.968,0.111,0.48,0.858,0.82,1.92,0.89,4,2
18810.984,0.119,0.48,0.858,0.06,1.34,0.21,4,2
18811.0,0.117,0.476,0.86,0.43,1.28,-0.46,4,2
18811.0,0.114,0.476,0.858,1.98,1.16,-0.7,4,2
18811.015,0.12,0.487,0.856,3.91,1.5,-0.73,4,2
18811.015,0.117,0.492,0.855,6.65,2.56,-0.76,4,2
18811.046,0.105,0.504,0.852,8.73,3.81,0.09,4,2
18811.046,0.099,0.503,0.85,7.32,3.54,0.09,4,2
18811.062,0.092,0.503,0.851,4.55,2.84,0.03,4,2
18811.078,0.092,0.502,0.853,1.4,1.56,-0.06,4,2
18811.078,0.096,0.496,0.849,-0.43,0.73,-0.15,4,2
18811.093,0.095,0.492,0.849,-0.61,0.34,-0.09,4,2
18811.109,0.096,0.489,0.849,0.4,0.43,0.09,4,2
18811.109,0.101,0.494,0.849,2.08,1.01,0.27,4,2
18811.125,0.095,0.496,0.854,3.14,1.71,-0.03,4,2
18811.125,0.089,0.498,0.86,2.62,1.62,-0.89,4,2
18811.14,0.089,0.5,0.865,1.98,0.82,-1.19,4,2
18811.156,0.088,0.495,0.858,2.38,0.34,-0.92,4,2
18811.156,0.094,0.496,0.848,2.35,0.37,-0.73,4,2
18811.171,0.093,0.499,0.845,2.38,0.58,-0.95,4,2
18811.187,0.089,0.5,0.847,2.87,1.19,-0.92,4,2
18811.187,0.083,0.502,0.852,2.66,1.01,-0.64,4,2
18811.203,0.082,0.503,0.858,1.98,0.21,-0.43,4,2
18811.218,0.082,0.5,0.86,1.83,-0.43,-0.27,4,2
18811.218,0.086,0.495,0.858,2.66,-0.82,-0.15,4,2
18811.234,0.087,0.492,0.85,4.27,-0.92,-0.24,4,2
18811.234,0.084,0.493,0.847,5.65,-0.79,-0.95,4,2
18811.25,0.08,0.5,0.845,6.81,-1.04,-1.43,4,2
18811.265,0.074,0.512,0.837,7.72,-1.31,-1.71,4,2
18811.265,0.074,0.52,0.835,7.2,-1.34,-1.59,4,2
18811.281,0.074,0.526,0.834,5.8,-1.34,-1.04,4,2
18811.296,0.071,0.528,0.837,3.33,-1.16,-0.82,4,2
18811.296,0.073,0.522,0.845,0.24,-1.56,-0.7,4,2
18811.312,0.076,0.513,0.849,-1.4,-1.77,-0.27,4,2
18811.328,0.077,0.508,0.85,-1.53,-1.68,0.31,4,2
18811.328,0.078,0.5,0.852,-0.85,-1.89,0.55,4,2
18811.343,0.078,0.488,0.853,0.55,-2.23,0.15,4,2
18811.359,0.08,0.483,0.855,2.56,-2.47,-0.55,4,2
18811.359,0.082,0.484,0.851,4.82,-2.93,-1.4,4,2
18811.375,0.086,0.487,0.848,6.29,-3.33,-2.35,4,2
18811.375,0.087,0.5,0.846,6.56,-3.45,-3.2,4,2
18811.39,0.088,0.51,0.843,6.1,-3.11,-3.42,4,2
18811.406,0.09,0.524,0.845,5.22,-2.66,-2.84,4,2
18811.406,0.088,0.537,0.849,4.12,-2.23,-1.43,4,2
18811.421,0.088,0.536,0.848,2.56,-2.01,0.24,4,2
18811.437,0.089,0.524,0.844,0.31,-1.53,1.62,4,2
18811.453,0.09,0.514,0.847,-1.98,-1.13,2.23,4,2
18811.453,0.091,0.507,0.852,-3.85,-1.19,2.08,4,2
18811.453,0.094,0.502,0.856,-4.67,-1.34,1.68,4,2
18811.468,0.098,0.499,0.858,-3.91,-1.1,1.68,4,2
18811.484,0.096,0.498,0.861,-2.17,-0.37,2.04,4,2
18811.484,0.096,0.504,0.868,-0.49,0.06,2.35,4,2
18811.5,0.091,0.51,0.87,0.12,-0.34,2.38,4,2
18811.515,0.096,0.509,0.86,-0.85,-1.37,2.56,4,2
18811.531,0.104,0.509,0.851,-2.41,-1.89,2.69,4,2
18811.531,0.107,0.503,0.846,-3.2,-1.89,2.35,4,2
18811.546,0.107,0.498,0.842,-3.42,-1.46,1.98,4,2
18811.546,0.11,0.497,0.837,-2.9,-0.79,1.86,4,2
18811.562,0.106,0.49,0.837,-1.62,0.31,1.65,4,2
18811.578,0.101,0.488,0.839,-0.21,1.28,1.25,4,2
18811.578,0.097,0.491,0.842,0.58,1.83,1.25,4,2
18811.593,0.094,0.495,0.846,0.58,2.04,1.34,4,2
18811.593,0.096,0.493,0.85,-0.4,1.62,1.43,4,2
18811.609,0.098,0.494,0.853,-1.74,1.16,1.34,4,2
18811.625,0.097,0.503,0.856,-2.17,1.01,1.13,4,2
18811.625,0.1,0.503,0.854,-1.68,0.89,1.37,4,2
18811.64,0.1,0.502,0.852,-0.98,0.76,1.65,4,2
18811.656,0.098,0.501,0.85,-0.27,0.64,1.77,4,2
18811.656,0.096,0.502,0.849,0.76,0.61,1.95,4,2
18811.671,0.094,0.505,0.843,1.37,0.37,2.2,4,2
18811.687,0.103,0.509,0.837,0.89,-0.06,2.41,4,2
18811.687,0.107,0.503,0.838,-0.24,-0.15,2.29,4,2
18811.703,0.108,0.501,0.842,-1.1,-0.24,1.83,4,2
18811.718,0.109,0.492,0.847,-1.1,-0.27,1.56,4,2
18811.734,0.111,0.491,0.857,1.01,-0.43,0.31,4,2
18811.734,0.107,0.502,0.864,2.41,-0.46,-0.55,4,2
18811.75,0.104,0.516,0.865,2.78,-0.73,-0.7,4,2
18811.765,0.109,0.523,0.86,1.92,-1.37,-0.24,4,2
18811.765,0.113,0.519,0.859,1.19,-1.34,0.18,4,2
18811.781,0.112,0.517,0.864,1.28,-0.79,0.67,4,2
18811.796,0.103,0.514,0.872,1.89,-0.4,1.37,4,2
18811.796,0.083,0.509,0.882,2.59,-0.4,1.62,4,2
18811.812,0.052,0.514,0.897,3.45,-2.47,2.01,4,2
18811.828,0.021,0.508,0.926,6.62,-9.09,2.84,4,2
18811.828,-0.026,0.511,0.953,14.28,-18.37,4.82,4,2
18811.843,-0.066,0.53,0.97,25.91,-29.63,9.31,4,2
18811.859,-0.033,0.573,0.992,37.11,-43.67,17.33,4,2
18811.859,0.089,0.603,0.953,44.19,-58.29,26.43,4,2
18811.875,0.16,0.623,0.819,38.85,-64.64,28.35,4,2
18811.89,0.207,0.613,0.763,23.29,-61.25,27.25,4,2
18811.906,0.25,0.525,0.677,-2.5,-31.71,18.74,4,2
18811.921,0.257,0.503,0.671,-6.1,-20.17,14.62,4,2
18811.921,0.266,0.466,0.67,-6.04,-8.24,9.58,4,2
18811.937,0.272,0.441,0.672,-1.86,4.46,4.06,4,2
18811.937,0.233,0.436,0.665,3.78,16.97,-0.98,4,2
18811.953,0.188,0.456,0.691,9.43,29.02,-4.46,4,2
18811.968,0.129,0.489,0.74,13.4,36.56,-6.32,4,2
18811.968,0.098,0.53,0.776,12.82,37.54,-6.59,4,2
18811.984,0.084,0.557,0.805,8.45,34.55,-6.41,4,2
18811.984,0.077,0.556,0.835,2.29,29.21,-6.84,4,2
18812.0,0.089,0.553,0.845,-2.14,23.04,-6.1,4,2
18812.015,0.113,0.541,0.836,-2.08,18.77,-4.43,4,2
18812.031,0.131,0.53,0.82,0.12,17.24,-3.2,4,2
18812.031,0.145,0.529,0.81,2.2,18.28,-2.81,4,2
18812.046,0.151,0.531,0.801,4.12,21.36,-2.78,4,2
18812.046,0.149,0.541,0.797,4.97,25.42,-2.96,4,2
18812.078,0.117,0.541,0.812,0.0,31.83,-4.94,4,2
18812.078,0.101,0.534,0.825,-5.04,32.65,-6.23,4,2
18812.093,0.056,0.533,0.875,-9.43,31.77,-7.63,4,2
18812.093,0.002,0.54,0.991,-10.5,25.18,-6.32,4,2
18812.109,0.047,0.531,1.004,-9.06,11.26,-2.17,4,2
18812.125,0.113,0.553,0.949,-10.35,0.58,-0.7,4,2
18812.125,0.14,0.535,0.902,-11.17,-2.5,-1.92,4,2
18812.14,0.145,0.512,0.875,-11.38,-1.86,-4.36,4,2
18812.156,0.121,0.532,0.868,-12.09,-0.46,-7.39,4,2
18812.156,0.1,0.534,0.875,-13.28,-0.95,-9.74,4,2
18812.171,0.09,0.533,0.881,-15.05,-3.45,-11.81,4,2
18812.187,0.083,0.528,0.885,-16.75,-7.17,-14.31,4,2
18812.187,0.086,0.51,0.881,-17.73,-11.38,-17.18,4,2
18812.203,0.093,0.494,0.874,-17.49,-14.62,-20.11,4,2
18812.218,0.099,0.48,0.862,-14.53,-16.24,-22.49,4,2
18812.218,0.099,0.477,0.851,-9.46,-16.3,-23.93,4,2
18812.234,0.088,0.503,0.843,0.46,-14.56,-22.71,4,2
18812.25,0.081,0.515,0.839,1.04,-14.59,-21.73,4,2
18812.265,0.081,0.52,0.83,-1.22,-15.11,-20.6,4,2
18812.265,0.085,0.517,0.826,-4.0,-15.44,-19.32,4,2
18812.281,0.09,0.512,0.82,-5.68,-14.92,-18.4,4,2
18812.296,0.09,0.509,0.819,-5.8,-13.7,-17.55,4,2
18812.296,0.09,0.508,0.82,-4.88,-12.36,-16.69,4,2
18812.312,0.088,0.51,0.818,-2.81,-10.96,-15.59,4,2
18812.328,0.09,0.511,0.813,-1.01,-9.92,-14.31,4,2
18812.328,0.098,0.514,0.809,0.73,-8.55,-12.7,4,2
18812.343,0.1,0.521,0.81,2.93,-6.32,-11.23,4,2
18812.343,0.102,0.529,0.807,5.52,-3.66,-9.13,4,2
18812.359,0.1,0.541,0.81,6.47,-1.04,-6.56,4,2
18812.375,0.093,0.543,0.821,5.58,0.98,-4.3,4,2
18812.375,0.093,0.528,0.827,4.33,1.59,-1.83,4,2
18812.39,0.1,0.527,0.823,4.12,1.62,0.79,4,2
18812.406,0.106,0.525,0.829,4.91,3.05,3.17,4,2
18812.421,0.104,0.516,0.841,6.81,3.45,3.6,4,2
18812.437,0.1,0.504,0.837,10.74,3.69,4.33,4,2
18812.437,0.103,0.516,0.821,14.56,4.21,5.77,4,2
18812.453,0.108,0.528,0.823,16.39,5.34,7.35,4,2
18812.468,0.106,0.511,0.813,17.03,6.1,8.58,4,2
18812.468,0.112,0.531,0.802,14.71,6.74,9.95,4,2
18812.484,0.122,0.548,0.806,10.53,7.97,10.25,4,2
18812.484,0.126,0.527,0.798,5.25,8.58,8.91,4,2
18812.5,0.138,0.515,0.787,0.09,9.06,7.17,4,2
18812.515,0.159,0.529,0.788,-2.56,10.96,5.95,4,2
18812.531,0.159,0.54,0.801,-0.24,14.77,6.41,4,2
18812.531,0.146,0.553,0.796,5.55,19.04,9.34,4,2
18812.546,0.144,0.581,0.797,9.8,22.92,13.06,4,2
18812.546,0.124,0.593,0.805,9.49,25.82,14.62,4,2
18812.562,0.097,0.586,0.828,3.36,26.25,13.79,4,2
18812.578,0.084,0.577,0.85,-5.43,23.32,11.47,4,2
18812.578,0.08,0.556,0.866,-11.41,18.83,9.0,4,2
18812.593,0.083,0.531,0.864,-12.54,14.44,7.02,4,2
18812.593,0.095,0.515,0.859,-9.43,11.69,5.58,4,2
18812.609,0.083,0.493,0.843,-3.81,10.59,3.85,4,2
18812.625,0.08,0.499,0.836,0.52,9.31,2.78,4,2
18812.64,0.065,0.51,0.839,4.82,9.09,2.59,4,2
18812.64,0.047,0.518,0.84,7.29,8.24,3.17,4,2
18812.656,0.04,0.529,0.842,5.8,6.04,3.63,4,2
18812.656,0.037,0.537,0.845,1.65,3.36,3.57,4,2
18812.671,0.036,0.535,0.851,-2.84,0.7,3.33,4,2
18812.687,0.045,0.524,0.852,-5.95,-1.8,3.48,4,2
18812.687,0.055,0.517,0.848,-7.17,-2.81,3.14,4,2
18812.703,0.056,0.517,0.853,-7.11,-3.36,2.32,4,2
18812.703,0.047,0.516,0.853,-6.65,-4.12,1.07,4,2
18812.718,0.048,0.514,0.848,-6.74,-5.19,-0.67,4,2
18812.734,0.06,0.513,0.839,-7.2,-6.41,-2.56,4,2
18812.734,0.066,0.521,0.833,-6.84,-6.13,-4.85,4,2
18812.75,0.06,0.53,0.834,-5.95,-5.31,-6.56,4,2
18812.765,0.057,0.538,0.829,-5.4,-4.79,-7.02,4,2
18812.765,0.06,0.551,0.825,-5.55,-4.7,-6.38,4,2
18812.781,0.064,0.552,0.82,-5.65,-4.61,-5.68,4,2
18812.796,0.067,0.549,0.815,-5.98,-4.61,-5.13,4,2
18812.796,0.077,0.544,0.815,-6.56,-4.49,-4.82,4,2
18812.812,0.083,0.535,0.816,-7.54,-3.88,-5.04,4,2
18812.828,0.087,0.528,0.827,-8.39,-3.42,-5.74,4,2
18812.828,0.091,0.515,0.819,-9.06,-3.2,-6.56,4,2
18812.843,0.104,0.516,0.841,-11.02,-2.23,-7.72,4,2
18812.859,0.101,0.523,0.864,-12.02,-0.89,-9.19,4,2
18812.859,0.087,0.527,0.893,-14.53,-0.73,-10.35,4,2
18812.875,0.081,0.513,0.899,-21.21,-2.5,-10.74,4,2
18812.875,0.102,0.494,0.92,-33.27,-4.94,-10.77,4,2
18812.89,0.122,0.485,0.958,-53.29,-10.71,-7.63,4,2
18812.906,0.11,0.464,0.95,-57.53,-13.61,-5.77,4,2
18812.906,0.094,0.438,0.916,-58.87,-15.17,-6.78,4,2
18812.921,0.1,0.433,0.872,-52.89,-15.78,-9.61,4,2
18812.937,0.111,0.443,0.866,-39.34,-14.5,-11.96,4,2
18812.953,0.115,0.463,0.863,-23.29,-11.14,-11.93,4,2
18812.953,0.107,0.48,0.879,-10.83,-6.38,-10.44,4,2
18812.968,0.089,0.491,0.897,-4.3,-2.84,-9.09,4,2
18812.968,0.065,0.496,0.895,-4.09,-1.83,-8.12,4,2
18812.984,0.062,0.49,0.879,-6.81,-2.23,-6.93,4,2
18812.984,0.062,0.484,0.866,-8.67,-1.37,-6.07,4,2
18813.0,0.029,0.503,0.851,-10.62,0.58,-4.49,4,2
18813.015,0.002,0.51,0.826,-14.25,0.98,-0.79,4,2
18813.015,-0.052,0.491,0.763,-21.42,0.34,1.59,4,2
18813.031,-0.073,0.464,0.763,-32.41,-2.44,4.0,4,2
18813.046,-0.098,0.399,0.761,-37.6,-5.83,6.01,4,2
18813.046,-0.114,0.346,0.788,-36.96,-10.5,4.58,4,2
18813.062,-0.067,0.319,0.877,-28.9,-15.9,3.3,4,2
18813.078,0.009,0.318,0.9,-13.06,-18.25,3.72,4,2
18813.078,0.062,0.407,0.943,1.4,-14.62,5.22,4,2
18813.093,0.13,0.444,0.933,11.44,-7.11,9.34,4,2
18813.109,0.164,0.468,0.905,8.85,5.01,12.57,4,2
18813.109,0.158,0.469,0.918,-2.26,18.37,15.2,4,2
18813.125,0.138,0.407,0.945,-14.74,27.25,15.78,4,2
18813.125,0.111,0.336,0.97,-22.95,31.25,12.97,4,2
18813.14,0.077,0.277,1.013,-21.52,30.79,7.72,4,2
18813.156,0.061,0.246,1.041,-9.16,24.2,0.43,4,2
18813.171,0.062,0.267,1.044,9.19,14.04,-7.39,4,2
18813.171,0.102,0.295,0.964,27.38,4.64,-12.79,4,2
18813.187,0.1,0.371,0.912,37.48,0.67,-17.58,4,2
18813.187,0.079,0.431,0.855,42.33,-0.31,-18.68,4,2
18813.203,0.09,0.476,0.803,38.15,-0.24,-16.66,4,2
18813.218,0.101,0.52,0.786,29.11,3.2,-13.06,4,2
18813.218,0.092,0.534,0.784,20.42,8.94,-7.63,4,2
18813.234,0.076,0.537,0.814,12.15,14.53,-1.07,4,2
18813.234,0.055,0.519,0.85,4.3,17.21,4.06,4,2
18813.25,0.05,0.478,0.899,-3.54,16.05,6.87,4,2
18813.265,0.062,0.445,0.929,-9.34,12.76,7.51,4,2
18813.265,0.067,0.422,0.948,-10.71,9.43,6.2,4,2
18813.281,0.068,0.397,0.953,-7.84,6.44,3.88,4,2
18813.296,0.063,0.38,0.947,-3.11,4.24,0.58,4,2
18813.296,0.05,0.378,0.938,2.5,2.35,-3.02,4,2
18813.312,0.041,0.377,0.916,9.0,0.73,-6.29,4,2
18813.328,0.034,0.384,0.89,14.53,-0.31,-9.52,4,2
18813.328,0.028,0.41,0.882,16.69,-1.34,-13.09,4,2
18813.343,0.025,0.436,0.878,16.21,-2.84,-16.54,4,2
18813.343,0.016,0.459,0.883,14.89,-4.52,-18.86,4,2
18813.359,0.003,0.478,0.902,14.74,-6.2,-19.35,4,2
18813.375,-0.003,0.458,0.903,12.76,-9.06,-19.01,4,2
18813.39,0.011,0.449,0.889,9.64,-12.05,-19.41,4,2
18813.39,0.022,0.462,0.882,9.74,-12.45,-19.1,4,2
18813.406,0.018,0.464,0.882,12.54,-11.51,-18.19,4,2
18813.406,0.01,0.465,0.889,13.34,-11.14,-17.98,4,2
18813.421,0.007,0.477,0.887,11.96,-11.72,-17.46,4,2
18813.437,0.011,0.475,0.887,9.4,-12.73,-17.09,4,2
18813.437,0.018,0.462,0.884,6.59,-13.21,-17.24,4,2
18813.453,0.018,0.458,0.88,5.19,-12.91,-18.01,4,2
18813.468,0.021,0.46,0.87,5.52,-12.42,-17.94,4,2
18813.484,0.018,0.466,0.868,6.01,-11.51,-17.73,4,2
18813.484,0.01,0.467,0.867,5.89,-11.05,-17.49,4,2
18813.484,0.019,0.466,0.864,3.75,-11.72,-17.06,4,2
18813.5,0.028,0.459,0.862,1.07,-11.99,-17.18,4,2
18813.515,0.036,0.456,0.852,-0.92,-11.54,-17.43,4,2
18813.515,0.038,0.454,0.847,-2.32,-10.01,-17.52,4,2
18813.531,0.04,0.451,0.848,-2.53,-7.6,-17.24,4,2
18813.546,0.042,0.456,0.852,-2.11,-5.13,-16.05,4,2
18813.546,0.043,0.468,0.86,-1.1,-2.84,-14.37,4,2
18813.562,0.038,0.479,0.866,-1.34,-1.62,-13.09,4,2
18813.578,0.035,0.484,0.872,-3.08,-1.86,-11.51,4,2
18813.578,0.04,0.48,0.874,-5.52,-2.96,-10.04,4,2
18813.593,0.052,0.471,0.881,-7.29,-3.91,-9.49,4,2
18813.593,0.053,0.463,0.884,-7.29,-3.97,-9.19,4,2
18813.609,0.055,0.462,0.884,-6.59,-4.0,-8.88,4,2
18813.625,0.059,0.465,0.886,-6.41,-4.15,-9.03,4,2
18813.625,0.062,0.459,0.881,-6.68,-4.64,-10.07,4,2
18813.64,0.058,0.455,0.881,-6.81,-5.16,-11.38,4,2
18813.656,0.059,0.46,0.876,-6.41,-5.49,-12.12,4,2
18813.656,0.066,0.46,0.87,-6.04,-5.83,-12.67,4,2
18813.671,0.065,0.463,0.873,-5.89,-5.58,-13.34,4,2
18813.687,0.063,0.461,0.87,-4.15,-4.88,-13.25,4,2
18813.687,0.06,0.472,0.872,-2.38,-4.06,-12.05,4,2
18813.703,0.053,0.477,0.875,-1.31,-3.23,-10.22,4,2
18813.718,0.049,0.473,0.874,-0.7,-2.56,-7.72,4,2
18813.718,0.043,0.471,0.876,-2.47,-2.29,-5.58,4,2
18813.734,0.043,0.461,0.883,-6.44,-2.78,-4.73,4,2
18813.734,0.042,0.452,0.891,-10.07,-4.21,-4.97,4,2
18813.75,0.043,0.436,0.886,-11.14,-5.8,-5.74,4,2
18813.765,0.046,0.419,0.877,-9.37,-6.62,-6.9,4,2
18813.765,0.049,0.415,0.872,-5.4,-6.78,-8.73,4,2
18813.781,0.04,0.42,0.867,0.09,-6.53,-10.68,4,2
18813.796,0.031,0.438,0.856,5.98,-6.1,-11.87,4,2
18813.796,0.032,0.462,0.849,11.02,-5.52,-11.78,4,2
18813.812,0.027,0.487,0.841,13.55,-4.7,-10.74,4,2
18813.828,0.015,0.501,0.834,13.34,-4.15,-9.31,4,2
18813.828,0.009,0.511,0.832,10.62,-4.33,-7.48,4,2
18813.843,0.012,0.52,0.819,6.16,-4.82,-5.25,4,2
18813.859,0.016,0.521,0.817,1.13,-4.88,-3.39,4,2
18813.859,0.013,0.515,0.821,-2.29,-4.46,-1.71,4,2
18813.875,0.014,0.52,0.83,-2.69,-4.03,2.5,4,2
18813.875,0.023,0.509,0.833,-3.48,-4.21,2.35,4,2
18813.89,0.03,0.494,0.848,-4.49,-4.76,0.73,4,2
18813.906,0.031,0.48,0.892,-3.88,-6.93,-0.7,4,2
18813.906,0.049,0.464,0.893,-4.06,-9.34,-0.85,4,2
18813.921,0.064,0.454,0.893,-4.12,-9.52,-1.04,4,2
18813.937,0.061,0.448,0.895,-3.63,-8.45,-0.46,4,2
18813.937,0.078,0.437,0.891,-3.97,-7.81,1.01,4,2
18813.953,0.08,0.427,0.89,-5.34,-6.41,1.62,4,2
18813.968,0.066,0.413,0.891,-6.71,-5.16,1.34,4,2
18813.968,0.072,0.411,0.892,-7.81,-4.88,1.07,4,2
18813.984,0.082,0.425,0.901,-7.6,-4.09,0.55,4,2
18813.984,0.073,0.432,0.911,-5.8,-2.44,-0.95,4,2
18814.0,0.063,0.442,0.918,-3.94,-1.89,-1.98,4,2
18814.015,0.053,0.448,0.92,-2.23,-2.5,-2.59,4,2
18814.015,0.038,0.447,0.924,-1.53,-3.39,-3.48,4,2
18814.031,0.042,0.458,0.918,-1.68,-4.94,-3.57,4,2
18814.046,0.049,0.46,0.889,-1.43,-6.04,-2.78,4,2
18814.046,0.053,0.461,0.88,-2.81,-5.22,-2.35,4,2
18814.062,0.039,0.468,0.874,-6.04,-4.36,-2.75,4,2
18814.078,0.034,0.478,0.844,-12.12,-5.04,-2.32,4,2
18814.078,0.048,0.471,0.811,-19.71,-4.39,-0.82,4,2
18814.093,0.057,0.461,0.803,-26.06,-0.98,0.52,4,2
18814.109,0.053,0.471,0.85,-29.36,3.69,1.43,4,2
18814.109,0.049,0.456,0.887,-27.83,6.74,1.92,4,2
18814.125,-0.002,0.448,0.94,-24.08,7.11,1.62,4,2
18814.125,0.031,0.414,0.923,-19.38,3.72,3.69,4,2
18814.14,0.093,0.403,0.925,-16.66,2.93,4.24,4,2
18814.156,0.127,0.385,0.962,-11.99,7.02,3.63,4,2
18814.171,0.14,0.367,1.025,-6.47,13.12,2.69,4,2
18814.171,0.14,0.362,1.074,-2.96,19.2,1.16,4,2
18814.187,0.152,0.353,1.104,-1.68,24.96,-1.1,4,2
18814.187,0.143,0.338,1.126,1.34,31.83,-4.76,4,2
18814.203,0.112,0.306,1.121,12.12,35.98,-8.24,4,2
18814.218,0.035,0.281,1.11,32.04,36.74,-11.14,4,2
18814.218,0.017,0.247,0.98,57.31,30.95,-12.73,4,2
18814.234,-0.049,0.249,0.926,70.19,18.07,-21.21,4,2
18814.234,-0.25,0.276,1.175,76.45,-5.55,-35.0,4,2
18814.25,-0.209,0.319,1.215,95.74,-46.85,-30.95,4,2
18814.265,-0.008,0.458,0.994,100.59,-78.71,-18.74,4,2
18814.265,0.077,0.573,0.87,84.38,-87.68,-15.32,4,2
18814.281,0.116,0.541,0.797,60.27,-87.37,-10.93,4,2
18814.296,0.151,0.515,0.731,32.14,-83.16,-6.59,4,2
18814.312,0.188,0.503,0.67,4.39,-74.71,-4.06,4,2
18814.312,0.228,0.461,0.653,-19.32,-61.83,-2.35,4,2
18814.328,0.227,0.403,0.662,-33.3,-45.78,-3.81,4,2
18814.328,0.202,0.347,0.677,-38.45,-30.85,-7.72,4,2
18814.343,0.175,0.31,0.703,-38.24,-18.86,-12.76,4,2
18814.359,0.139,0.292,0.728,-36.41,-10.65,-20.17,4,2
18814.359,0.101,0.28,0.762,-35.04,-6.07,-29.36,4,2
18814.375,0.072,0.28,0.801,-33.14,-5.28,-38.79,4,2
18814.375,0.042,0.288,0.841,-27.83,-7.63,-47.91,4,2
18814.39,0.029,0.308,0.87,-18.4,-11.72,-54.99,4,2
18814.406,0.025,0.364,0.888,-7.32,-16.36,-60.15,4,2
18814.406,0.034,0.426,0.898,3.02,-20.48,-63.69,4,2
18814.421,0.051,0.488,0.895,11.63,-22.46,-65.4,4,2
18814.437,0.064,0.553,0.886,17.06,-22.25,-65.8,4,2
18814.437,0.079,0.605,0.871,19.17,-20.91,-64.85,4,2
18814.453,0.091,0.65,0.856,18.19,-18.34,-62.72,4,2
18814.468,0.088,0.674,0.835,15.66,-14.74,-59.57,4,2
18814.484,0.086,0.67,0.818,12.02,-10.74,-54.99,4,2
18814.484,0.069,0.667,0.808,8.48,-6.81,-49.9,4,2
18814.484,0.043,0.668,0.808,6.26,-4.79,-44.77,4,2
18814.5,0.025,0.652,0.814,5.1,-5.71,-39.34,4,2
18814.515,0.013,0.64,0.82,4.7,-8.91,-34.82,4,2
18814.531,0.015,0.637,0.81,5.4,-13.55,-31.53,4,2
18814.531,0.016,0.631,0.792,6.87,-17.52,-29.6,4,2
18814.546,0.032,0.623,0.778,9.16,-19.62,-27.83,4,2
18814.546,0.046,0.623,0.759,12.05,-19.9,-26.06,4,2
18814.562,0.053,0.631,0.75,15.08,-18.01,-23.96,4,2
18814.578,0.062,0.629,0.737,17.4,-14.34,-21.09,4,2
18814.578,0.063,0.618,0.725,17.82,-10.01,-17.88,4,2
18814.593,0.061,0.599,0.719,16.72,-5.49,-14.65,4,2
18814.609,0.048,0.578,0.724,13.73,-1.28,-11.78,4,2
18814.609,0.038,0.565,0.736,7.02,1.22,-10.5,4,2
18814.625,0.032,0.544,0.755,-0.95,1.37,-11.11,4,2
18814.625,0.03,0.513,0.768,-7.23,-0.15,-12.88,4,2
18814.64,0.036,0.498,0.787,-10.77,-1.31,-14.65,4,2
18814.656,0.04,0.502,0.812,-9.58,-1.37,-15.9,4,2
18814.656,0.029,0.506,0.832,-4.46,-0.15,-17.21,4,2
18814.671,0.013,0.505,0.844,1.04,2.26,-18.28,4,2
18814.687,-0.006,0.505,0.855,7.26,4.43,-18.49,4,2
18814.687,-0.026,0.525,0.871,13.49,5.62,-17.12,4,2
18814.703,-0.031,0.538,0.871,20.17,6.44,-13.25,4,2
18814.718,-0.037,0.544,0.864,25.48,7.2,-8.61,4,2
18814.718,-0.051,0.55,0.859,26.52,7.05,-4.39,4,2
18814.734,-0.054,0.549,0.858,22.46,4.33,-0.92,4,2
18814.734,-0.046,0.551,0.866,15.2,0.52,2.26,4,2
18814.75,-0.038,0.55,0.873,6.93,-3.14,5.16,4,2
18814.765,-0.024,0.528,0.875,-2.01,-6.78,8.09,4,2
18814.765,-0.005,0.504,0.874,-9.89,-9.06,10.8,4,2
18814.781,0.007,0.477,0.871,-14.71,-9.58,12.21,4,2
18814.796,0.015,0.439,0.865,-16.21,-9.28,11.81,4,2
18814.796,0.022,0.414,0.862,-14.95,-7.51,9.61,4,2
18814.812,0.015,0.394,0.859,-11.29,-4.73,5.13,4,2
18814.828,0.008,0.382,0.852,-5.68,-2.53,0.0,4,2
18814.828,0.007,0.39,0.842,0.15,0.27,-5.95,4,2
18814.843,-0.004,0.396,0.823,6.47,3.75,-12.63,4,2
18814.859,0.0,0.404,0.796,15.38,12.7,-21.7,4,2
18814.859,0.004,0.397,0.778,15.38,18.59,-26.76,4,2
18814.875,-0.013,0.39,0.767,8.91,22.46,-32.07,4,2
18814.875,-0.1,0.443,0.84,-12.39,14.5,-33.51,4,2
18814.89,-0.083,0.652,1.005,-21.18,3.45,-25.91,4,2
18814.906,-0.182,0.58,1.007,-11.44,-4.3,-15.26,4,2
18814.906,-0.077,0.651,1.023,-10.38,-13.21,-2.59,4,2
18814.921,-0.052,0.627,1.001,3.39,-14.25,6.53,4,2
18814.937,-0.06,0.544,0.969,15.5,-14.62,10.19,4,2
18814.937,-0.039,0.534,0.953,19.62,-15.75,8.85,4,2
18814.953,-0.052,0.545,0.924,22.25,-17.27,3.81,4,2
18814.968,-0.053,0.523,0.879,28.69,-19.2,0.76,4,2
18814.968,-0.062,0.493,0.835,38.06,-19.84,0.55,4,2
18814.984,-0.071,0.513,0.791,45.5,-20.87,0.92,4,2
18815.0,-0.074,0.545,0.754,48.19,-23.68,1.4,4,2
18815.0,-0.058,0.578,0.734,43.43,-27.62,1.86,4,2
18815.015,-0.075,0.631,0.729,31.22,-32.87,2.62,4,2
18815.015,0.043,0.662,0.692,17.49,-36.23,5.62,4,2
18815.031,0.04,0.545,0.658,19.9,-28.75,10.16,4,2
18815.046,0.011,0.589,0.738,6.62,-24.45,13.18,4,2
18815.046,0.074,0.687,0.777,-8.27,-22.89,18.77,4,2
18815.062,0.08,0.578,0.759,-7.05,-19.68,22.58,4,2
18815.078,0.076,0.53,0.764,-7.51,-15.87,22.92,4,2
18815.078,0.092,0.545,0.779,-7.93,-13.82,22.28,4,2
18815.093,0.111,0.536,0.788,-5.04,-12.3,19.96,4,2
18815.109,0.117,0.519,0.789,-1.46,-10.04,16.63,4,2
18815.109,0.126,0.505,0.781,1.43,-7.23,13.21,4,2
18815.125,0.132,0.5,0.784,2.87,-3.85,9.34,4,2
18815.14,0.117,0.503,0.792,2.11,-0.15,4.76,4,2
18815.14,0.106,0.507,0.804,-0.98,1.4,0.67,4,2
18815.156,0.106,0.511,0.821,-5.04,1.34,-2.69,4,2
18815.156,0.103,0.514,0.834,-7.72,0.92,-5.49,4,2
18815.171,0.105,0.506,0.836,-8.0,0.64,-7.23,4,2
18815.187,0.113,0.501,0.838,-6.1,1.1,-8.3,4,2
18815.187,0.103,0.511,0.847,-2.81,2.35,-9.61,4,2
18815.203,0.066,0.524,0.864,1.22,2.38,-10.47,4,2
18815.218,0.045,0.55,0.887,2.93,-1.19,-9.49,4,2
18815.218,0.058,0.577,0.893,1.4,-7.05,-7.48,4,2
18815.234,0.067,0.561,0.869,0.98,-11.96,-6.04,4,2
18815.25,0.072,0.551,0.852,0.73,-14.4,-5.13,4,2
18815.25,0.076,0.546,0.837,2.44,-15.41,-4.52,4,2
18815.265,0.08,0.551,0.82,5.68,-15.59,-4.39,4,2
18815.265,0.087,0.568,0.811,7.97,-14.77,-4.58,4,2
18815.281,0.073,0.583,0.818,9.0,-13.61,-5.37,4,2
18815.296,0.052,0.592,0.825,9.92,-14.53,-5.07,4,2
18815.296,0.048,0.604,0.827,10.56,-17.15,-3.02,4,2
18815.312,0.052,0.61,0.816,10.19,-19.99,-0.79,4,2
18815.328,0.064,0.604,0.807,8.51,-22.06,1.16,4,2
18815.328,0.077,0.597,0.798,6.62,-22.89,2.04,4,2
18815.343,0.083,0.594,0.791,5.37,-22.37,2.23,4,2
18815.359,0.079,0.593,0.789,4.61,-21.27,2.32,4,2
18815.359,0.082,0.59,0.79,3.72,-21.09,2.56,4,2
18815.375,0.088,0.59,0.794,3.05,-21.12,2.32,4,2
18815.39,0.088,0.592,0.803,3.42,-21.03,2.04,4,2
18815.39,0.085,0.586,0.806,5.04,-21.61,2.44,4,2
18815.406,0.092,0.576,0.799,7.17,-22.43,3.91,4,2
18815.406,0.102,0.57,0.795,8.85,-22.4,5.58,4,2
18815.421,0.11,0.561,0.789,10.01,-21.97,6.53,4,2
18815.437,0.122,0.553,0.779,9.92,-21.09,6.5,4,2
18815.437,0.135,0.556,0.774,8.33,-19.23,5.34,4,2
18815.453,0.146,0.559,0.777,6.35,-16.63,3.33,4,2
18815.468,0.143,0.565,0.797,5.65,-13.92,1.43,4,2
18815.468,0.132,0.57,0.803,6.9,-12.24,0.7,4,2
18815.484,0.124,0.578,0.812,7.72,-11.99,0.73,4,2
18815.5,0.121,0.582,0.813,8.03,-12.97,1.62,4,2
18815.5,0.133,0.578,0.804,8.33,-14.28,3.11,4,2
18815.515,0.145,0.582,0.793,7.14,-15.2,3.57,4,2
18815.515,0.157,0.58,0.784,5.49,-15.02,2.87,4,2
18815.531,0.163,0.578,0.78,4.64,-13.67,2.23,4,2
18815.546,0.166,0.579,0.78,4.09,-11.66,1.92,4,2
18815.562,0.164,0.578,0.782,3.78,-9.83,1.53,4,2
18815.562,0.162,0.577,0.783,3.97,-8.27,0.82,4,2
18815.578,0.156,0.577,0.782,4.49,-6.93,-0.46,4,2
18815.578,0.148,0.577,0.786,5.37,-6.53,-2.14,4,2
18815.593,0.142,0.582,0.786,6.87,-6.96,-3.23,4,2
18815.609,0.144,0.59,0.777,8.18,-7.66,-3.39,4,2
18815.609,0.143,0.602,0.772,8.42,-7.9,-3.54,4,2
18815.625,0.141,0.614,0.775,7.63,-7.84,-2.81,4,2
18815.64,0.132,0.631,0.782,6.07,-7.6,-1.16,4,2
18815.64,0.129,0.637,0.781,3.33,-8.33,1.22,4,2
18815.656,0.139,0.63,0.78,0.0,-9.52,3.91,4,2
18815.656,0.144,0.624,0.773,-2.69,-10.04,5.77,4,2
18815.671,0.142,0.613,0.774,-4.64,-10.5,6.62,4,2
18815.687,0.138,0.604,0.78,-5.52,-11.2,6.96,4,2
18815.703,0.136,0.597,0.789,-5.65,-12.67,7.42,4,2
18815.703,0.134,0.597,0.789,-6.56,-14.95,7.72,4,2
18815.718,0.162,0.577,0.812,-12.54,-18.71,5.4,4,2
18815.718,0.176,0.558,0.826,-15.5,-21.12,2.35,4,2
18815.734,0.17,0.564,0.809,-7.81,-20.17,3.88,4,2
18815.75,0.187,0.582,0.798,-1.28,-18.71,6.44,4,2
18815.75,0.192,0.584,0.79,-0.21,-17.33,6.71,4,2
18815.765,0.19,0.587,0.784,-0.21,-15.9,6.74,4,2
18815.765,0.193,0.576,0.769,-1.07,-14.74,6.99,4,2
18815.781,0.194,0.562,0.758,-3.05,-13.18,6.78,4,2
18815.796,0.209,0.547,0.745,-5.22,-11.17,5.58,4,2
18815.812,0.218,0.528,0.729,-5.92,-7.97,2.72,4,2
18815.812,0.224,0.506,0.718,-4.7,-3.23,-1.13,4,2
18815.828,0.231,0.502,0.71,-2.38,2.29,-5.16,4,2
18815.828,0.233,0.49,0.698,1.95,8.79,-9.74,4,2
18815.843,0.236,0.489,0.683,5.58,24.2,-21.82,4,2
18815.859,0.214,0.464,0.661,-3.78,28.72,-29.6,4,2
18815.859,0.141,0.504,0.763,-22.64,25.54,-32.17,4,2
18815.875,0.212,0.585,0.852,-17.33,25.61,-31.43,4,2
18815.875,0.01,0.672,0.989,-11.78,26.28,-29.54,4,2
18815.89,0.065,0.895,1.092,-11.41,12.6,-11.96,4,2
18815.906,0.129,0.75,0.968,4.94,-1.31,5.07,4,2
18815.921,0.174,0.644,0.861,3.23,-7.6,9.74,4,2
18815.921,0.187,0.603,0.796,0.15,-8.21,7.32,4,2
18815.937,0.13,0.56,0.761,5.62,-5.07,4.12,4,2
18815.937,0.069,0.574,0.762,10.65,-5.89,3.91,4,2
18815.953,0.048,0.589,0.763,13.34,-11.05,6.56,4,2
18815.968,0.063,0.585,0.751,12.48,-17.18,10.22,4,2
18815.984,0.076,0.56,0.759,9.4,-22.34,12.02,4,2
18815.984,0.135,0.643,0.711,1.83,-27.07,14.34,4,2
18816.0,0.231,0.547,0.649,2.99,-20.42,16.24,4,2
18816.0,0.15,0.513,0.658,4.12,-10.28,13.12,4,2
18816.015,0.2,0.577,0.705,-3.72,-4.49,12.45,4,2
18816.015,0.197,0.548,0.752,-9.98,-0.49,7.32,4,2
18816.031,0.138,0.519,0.767,-7.6,2.08,5.65,4,2
18816.046,0.138,0.542,0.775,-0.98,1.77,7.93,4,2
18816.046,0.157,0.56,0.795,-0.52,-1.28,7.39,4,2
18816.062,0.156,0.552,0.793,-1.65,-4.7,5.52,4,2
18816.078,0.18,0.55,0.777,-1.59,-7.14,4.24,4,2
18816.078,0.197,0.551,0.771,-2.01,-7.35,2.44,4,2
18816.093,0.204,0.553,0.767,-1.56,-5.74,1.4,4,2
18816.109,0.208,0.565,0.766,0.12,-3.2,0.98,4,2
18816.109,0.207,0.571,0.77,1.34,-0.58,0.61,4,2
18816.125,0.204,0.58,0.778,1.89,1.19,-0.4,4,2
18816.125,0.195,0.588,0.785,2.17,1.8,-1.65,4,2
18816.14,0.19,0.598,0.794,2.9,1.25,-1.68,4,2
18816.156,0.192,0.611,0.793,3.33,0.0,-0.64,4,2
18816.171,0.195,0.616,0.793,3.11,-1.4,0.43,4,2
18816.171,0.198,0.616,0.789,2.69,-2.29,1.59,4,2
18816.187,0.201,0.615,0.786,1.92,-2.87,2.47,4,2
18816.187,0.2,0.612,0.786,0.98,-2.96,3.3,4,2
18816.203,0.198,0.599,0.786,0.03,-2.96,4.03,4,2
18816.218,0.198,0.588,0.786,-0.46,-2.81,4.43,4,2
18816.218,0.192,0.585,0.79,0.09,-2.62,4.33,4,2
18816.234,0.188,0.586,0.791,1.19,-3.57,4.27,4,2
18816.25,0.196,0.586,0.786,3.02,-5.07,4.85,4,2
18816.25,0.197,0.605,0.787,3.39,-5.65,5.34,4,2
18816.265,0.202,0.603,0.778,1.71,-6.59,5.25,4,2
18816.265,0.202,0.58,0.77,0.24,-6.74,5.22,4,2
18816.281,0.21,0.576,0.759,-0.85,-5.95,5.55,4,2
18816.296,0.217,0.563,0.746,-0.73,-4.09,5.46,4,2
18816.296,0.213,0.55,0.737,-0.31,-1.1,4.64,4,2
18816.312,0.218,0.537,0.735,0.21,2.56,2.56,4,2
18816.328,0.232,0.525,0.716,0.79,7.51,-1.04,4,2
18816.328,0.249,0.492,0.678,3.23,14.86,-5.74,4,2
18816.343,0.245,0.473,0.666,5.71,25.51,-12.54,4,2
18816.359,0.17,0.465,0.695,6.81,36.23,-20.6,4,2
18816.359,0.117,0.597,0.835,-14.71,36.1,-29.45,4,2
18816.375,0.222,0.646,0.881,-31.89,29.91,-31.04,4,2
18816.375,0.028,0.538,0.955,-26.8,28.72,-33.97,4,2
18816.39,0.035,0.77,1.091,-36.41,15.81,-27.1,4,2
18816.406,0.092,0.693,1.034,-14.5,1.01,-10.5,4,2
18816.421,0.091,0.595,0.924,7.11,-6.07,1.92,4,2
18816.421,0.116,0.626,0.868,14.59,-10.47,9.19,4,2
18816.437,0.087,0.58,0.822,22.25,-14.13,9.25,4,2
18816.437,0.036,0.571,0.778,22.43,-21.09,6.59,4,2
18816.453,0.019,0.599,0.781,13.92,-31.01,5.4,4,2
18816.468,0.125,0.666,0.729,3.48,-40.71,6.07,4,2
18816.468,0.176,0.536,0.656,4.82,-38.12,4.7,4,2
18816.484,0.159,0.567,0.737,-5.95,-33.45,0.52,4,2
18816.484,0.219,0.625,0.744,-10.62,-28.9,4.33,4,2
18816.5,0.216,0.545,0.688,2.47,-19.29,9.43,4,2
18816.515,0.236,0.553,0.695,5.16,-9.09,11.78,4,2
18816.531,0.242,0.566,0.712,6.5,-0.55,11.29,4,2
18816.531,0.216,0.554,0.71,11.29,6.47,8.79,4,2
18816.546,0.192,0.543,0.717,13.06,11.05,6.93,4,2
18816.546,0.165,0.556,0.735,14.04,13.03,5.31,4,2
18816.562,0.139,0.575,0.758,12.7,11.66,3.81,4,2
18816.578,0.143,0.588,0.789,6.35,6.68,2.87,4,2
18816.578,0.165,0.584,0.795,-0.79,0.89,2.2,4,2
18816.593,0.187,0.567,0.795,-4.15,-2.5,1.68,4,2
18816.609,0.201,0.562,0.795,-2.53,-3.08,1.65,4,2
18816.609,0.206,0.568,0.786,0.85,-2.62,1.74,4,2
18816.625,0.214,0.571,0.772,2.78,-1.77,0.89,4,2
18816.64,0.217,0.564,0.76,3.36,-0.37,-0.76,4,2
18816.64,0.213,0.561,0.752,3.69,1.43,-2.78,4,2
18816.656,0.208,0.564,0.745,4.03,3.23,-4.39,4,2
18816.656,0.205,0.568,0.744,3.97,4.7,-5.52,4,2
18816.671,0.205,0.575,0.75,4.18,6.32,-6.41,4,2
18816.687,0.188,0.591,0.767,4.36,7.72,-6.74,4,2
18816.687,0.169,0.604,0.79,4.21,7.54,-6.23,4,2
18816.703,0.165,0.613,0.807,3.97,5.46,-4.39,4,2
18816.718,0.167,0.619,0.814,3.3,2.78,-2.35,4,2
18816.734,0.167,0.618,0.809,2.59,0.43,-0.7,4,2
18816.734,0.166,0.613,0.801,1.74,-1.74,0.06,4,2
18816.734,0.179,0.609,0.793,0.31,-4.15,0.24,4,2
18816.75,0.193,0.599,0.779,-0.31,-5.22,-0.09,4,2
18816.765,0.202,0.585,0.761,0.34,-4.33,-0.7,4,2
18816.765,0.205,0.578,0.747,1.65,-1.98,-1.22,4,2
18816.781,0.209,0.576,0.739,2.75,1.04,-1.83,4,2
18816.796,0.21,0.573,0.739,3.42,4.49,-2.69,4,2
18816.796,0.203,0.574,0.742,4.09,8.27,-3.17,4,2
18816.812,0.194,0.577,0.745,4.61,11.81,-3.2,4,2
18816.828,0.184,0.583,0.76,3.97,15.63,-3.23,4,2
18816.828,0.156,0.591,0.78,2.26,14.04,-2.72,4,2
18816.843,0.139,0.603,0.803,0.12,10.04,-1.71,4,2
18816.859,0.141,0.602,0.814,-1.07,6.13,-1.34,4,2
18816.859,0.16,0.592,0.802,-1.59,3.75,-1.74,4,2
18816.875,0.171,0.586,0.788,-1.13,2.72,-2.32,4,2
18816.875,0.179,0.584,0.775,0.34,3.54,-2.9,4,2
18816.89,0.177,0.587,0.766,1.56,5.31,-3.72,4,2
18816.906,0.177,0.587,0.757,1.92,7.57,-4.73,4,2
18816.906,0.165,0.589,0.762,1.62,10.07,-5.86,4,2
18816.921,0.14,0.598,0.775,1.1,11.17,-6.87,4,2
18816.937,0.131,0.604,0.791,0.34,10.01,-6.35,4,2
18816.937,0.122,0.619,0.809,-0.4,8.18,-5.28,4,2
18816.953,0.112,0.629,0.821,-0.49,5.07,-3.54,4,2
18816.968,0.116,0.628,0.82,-0.37,1.16,-1.16,4,2
18816.968,0.132,0.623,0.803,0.24,-1.68,0.89,4,2
18816.984,0.146,0.613,0.78,0.55,-2.5,1.56,4,2
18817.0,0.15,0.602,0.766,0.58,-1.62,1.16,4,2
18817.0,0.144,0.599,0.762,0.4,0.03,0.52,4,2
18817.015,0.14,0.599,0.763,0.06,1.34,-0.18,4,2
18817.015,0.14,0.591,0.763,-0.06,2.44,-0.37,4,2
18817.031,0.134,0.587,0.764,0.49,3.78,-0.7,4,2
18817.046,0.125,0.585,0.771,1.34,4.43,-1.13,4,2
18817.046,0.116,0.594,0.78,1.74,3.97,-1.28,4,2
18817.062,0.112,0.603,0.789,2.08,2.69,-1.28,4,2
18817.078,0.113,0.607,0.794,2.62,1.04,-0.64,4,2
18817.093,0.112,0.615,0.794,3.3,-0.58,0.37,4,2
18817.093,0.117,0.613,0.788,3.78,-1.86,1.07,4,2
18817.093,0.122,0.613,0.783,3.97,-2.41,1.25,4,2
18817.109,0.13,0.613,0.774,4.27,-2.23,1.31,4,2
18817.125,0.129,0.604,0.767,5.19,-1.07,0.95,4,2
18817.14,0.12,0.61,0.773,6.23,0.49,0.46,4,2
18817.14,0.112,0.615,0.778,8.15,1.34,0.27,4,2
18817.156,0.104,0.614,0.776,9.74,1.43,0.34,4,2
18817.156,0.106,0.618,0.775,9.25,0.46,0.24,4,2
18817.171,0.112,0.619,0.777,7.51,-0.92,-0.31,4,2
18817.187,0.116,0.623,0.777,6.1,-1.43,-0.98,4,2
18817.187,0.11,0.625,0.778,5.31,-1.1,-0.92,4,2
18817.203,0.113,0.627,0.781,4.15,-1.19,-0.4,4,2
18817.218,0.112,0.626,0.785,3.05,-1.77,-0.24,4,2
18817.218,0.116,0.62,0.782,2.84,-2.35,-0.58,4,2
18817.234,0.122,0.613,0.778,3.81,-2.53,-1.16,4,2
18817.25,0.125,0.611,0.775,5.74,-2.08,-2.01,4,2
18817.25,0.125,0.611,0.772,8.3,-0.95,-3.27,4,2
18817.265,0.122,0.609,0.768,10.83,0.18,-4.49,4,2
18817.265,0.114,0.607,0.772,12.63,0.95,-5.8,4,2
18817.281,0.105,0.615,0.781,13.79,0.7,-6.84,4,2
18817.296,0.103,0.626,0.791,13.64,-0.92,-7.66,4,2
18817.296,0.105,0.641,0.796,12.67,-2.87,-8.0,4,2
18817.312,0.111,0.653,0.802,11.69,-4.36,-7.51,4,2
18817.328,0.114,0.667,0.814,11.08,-5.25,-6.56,4,2
18817.328,0.119,0.683,0.826,11.41,-5.92,-5.77,4,2
18817.343,0.116,0.701,0.844,12.42,-6.2,-5.83,4,2
18817.359,0.107,0.714,0.856,14.28,-6.59,-6.16,4,2
18817.359,0.1,0.731,0.862,16.88,-7.42,-6.87,4,2
18817.375,0.084,0.748,0.863,20.78,-8.55,-8.06,4,2
18817.375,0.065,0.763,0.858,25.24,-10.01,-9.64,4,2
18817.39,0.055,0.78,0.846,28.9,-11.78,-11.23,4,2
18817.406,0.053,0.799,0.824,31.34,-13.55,-12.51,4,2
18817.406,0.061,0.823,0.806,31.65,-14.19,-13.25,4,2
18817.421,0.064,0.839,0.798,30.27,-13.09,-13.7,4,2
18817.437,0.065,0.852,0.795,28.05,-11.14,-14.01,4,2
18817.453,0.065,0.862,0.794,25.73,-8.27,-14.53,4,2
18817.453,0.063,0.861,0.803,24.29,-4.76,-16.24,4,2
18817.468,0.06,0.858,0.822,24.63,-1.16,-19.2,4,2
18817.468,0.061,0.859,0.851,27.65,1.89,-23.87,4,2
18817.484,0.062,0.86,0.889,34.49,3.88,-31.04,4,2
18817.5,0.059,0.841,0.924,47.15,4.49,-41.08,4,2
18817.5,0.044,0.804,0.949,66.56,3.3,-53.04,4,2
18817.515,0.018,0.767,0.96,91.92,-0.03,-65.13,4,2
18817.515,-0.005,0.751,0.941,118.23,-5.43,-75.62,4,2
18817.531,-0.025,0.751,0.884,139.41,-13.37,-85.21,4,2
18817.546,-0.048,0.768,0.808,151.52,-23.01,-94.33,4,2
18817.546,-0.053,0.785,0.739,153.51,-32.56,-100.86,4,2
18817.562,-0.043,0.792,0.688,148.23,-39.64,-102.97,4,2
18817.578,-0.028,0.811,0.649,139.74,-42.85,-101.2,4,2
18817.578,-0.015,0.822,0.622,131.9,-43.06,-97.93,4,2
18817.593,-0.008,0.833,0.609,126.68,-40.83,-95.0,4,2
18817.609,-0.006,0.831,0.609,125.55,-36.99,-91.46,4,2
18817.609,-0.023,0.818,0.598,128.91,-33.3,-85.42,4,2
18817.625,-0.033,0.811,0.575,134.98,-31.07,-77.39,4,2
18817.64,-0.069,0.802,0.546,140.96,-30.43,-69.7,4,2
18817.64,-0.058,0.804,0.522,141.36,-33.85,-59.69,4,2
18817.656,-0.029,0.872,0.487,136.97,-36.16,-54.2,4,2
18817.671,-0.059,0.826,0.429,126.26,-37.84,-49.71,4,2
18817.671,-0.04,0.784,0.4,110.51,-40.8,-43.21,4,2
18817.687,-0.042,0.76,0.36,98.24,-40.62,-36.68,4,2
18817.687,-0.034,0.735,0.319,87.13,-39.0,-28.84,4,2
18817.703,-0.013,0.706,0.291,75.47,-35.83,-21.61,4,2
18817.718,-0.006,0.684,0.265,64.49,-31.71,-17.03,4,2
18817.718,-0.001,0.689,0.254,53.22,-27.89,-13.49,4,2
18817.734,-0.05,0.703,0.255,39.06,-24.96,-9.4,4,2
18817.75,0.009,0.693,0.311,19.75,-30.03,-6.26,4,2
18817.75,0.015,0.674,0.31,2.08,-36.59,-8.82,4,2
18817.765,-0.045,0.697,0.243,-6.5,-40.93,-13.7,4,2
18817.765,0.052,0.725,0.259,-13.09,-48.8,-15.05,4,2
18817.781,0.092,0.697,0.256,-11.66,-47.24,-18.19,4,2
18817.796,0.086,0.678,0.25,-3.66,-41.11,-22.58,4,2
18817.796,0.101,0.705,0.258,7.48,-37.29,-26.7,4,2
18817.812,0.099,0.756,0.257,28.35,-30.79,-33.3,4,2
18817.828,0.075,0.813,0.238,26.61,-31.43,-31.46,4,2
18817.843,0.071,0.89,0.214,15.99,-32.53,-25.94,4,2
18817.843,0.073,1.011,0.201,0.67,-35.13,-18.89,4,2
18817.843,0.089,1.012,0.202,-14.77,-37.81,-10.83,4,2
18817.859,0.104,1.011,0.207,-26.58,-39.34,-4.33,4,2
18817.875,0.12,1.007,0.219,-33.48,-39.83,0.49,4,2
18817.89,0.134,0.997,0.24,-34.55,-39.58,2.9,4,2
18817.89,0.138,0.987,0.253,-29.08,-39.52,3.57,4,2
18817.906,0.137,0.998,0.267,-19.84,-40.04,2.81,4,2
18817.906,0.125,1.02,0.278,-9.16,-41.47,0.4,4,2
18817.921,0.106,1.05,0.271,0.06,-44.1,-1.8,4,2
18817.937,0.086,1.076,0.275,5.8,-48.8,-3.11,4,2
18817.937,0.079,1.097,0.277,9.25,-54.96,-3.75,4,2
18817.953,0.078,1.114,0.267,11.93,-60.24,-4.12,4,2
18817.968,0.077,1.126,0.256,13.82,-64.52,-4.03,4,2
18817.968,0.079,1.13,0.245,15.02,-66.96,-3.27,4,2
18817.984,0.079,1.118,0.229,16.94,-67.32,-1.8,4,2
18818.0,0.077,1.105,0.214,19.9,-65.74,0.4,4,2
18818.0,0.076,1.089,0.2,24.78,-62.32,3.75,4,2
18818.015,0.071,1.083,0.194,30.61,-57.92,7.63,4,2
18818.015,0.069,1.064,0.187,35.86,-53.99,10.19,4,2
18818.031,0.061,1.031,0.179,39.25,-51.45,10.86,4,2
18818.046,0.059,0.992,0.183,41.47,-51.24,10.22,4,2
18818.046,0.066,0.952,0.187,45.05,-52.49,8.82,4,2
18818.062,0.077,0.926,0.188,51.91,-53.38,6.87,4,2
18818.078,0.095,0.892,0.187,62.69,-53.38,3.85,4,2
18818.078,0.11,0.86,0.182,77.12,-51.48,0.55,4,2
18818.093,0.109,0.847,0.169,94.55,-47.64,-2.35,4,2
18818.109,0.102,0.831,0.149,114.69,-43.18,-5.01,4,2
18818.109,0.094,0.837,0.124,135.47,-37.48,-7.63,4,2
18818.125,0.076,0.863,0.103,152.56,-31.77,-12.3,4,2
18818.125,0.041,0.858,0.077,163.09,-29.11,-19.41,4,2
18818.14,0.019,0.841,0.057,167.3,-29.27,-26.58,4,2
18818.156,0.009,0.842,0.031,168.61,-29.15,-32.84,4,2
18818.156,-0.007,0.849,-0.008,169.87,-26.92,-39.0,4,2
18818.171,-0.033,0.843,-0.035,173.31,-23.41,-44.56,4,2
18818.187,-0.062,0.842,-0.053,179.66,-19.68,-47.85,4,2
18818.187,-0.078,0.862,-0.072,188.02,-15.5,-48.04,4,2
18818.203,-0.092,0.895,-0.11,194.74,-10.96,-47.46,4,2
18818.218,-0.094,0.899,-0.158,195.04,-7.63,-47.21,4,2
18818.218,-0.098,0.903,-0.188,188.45,-3.57,-45.93,4,2
18818.234,-0.116,0.92,-0.207,178.35,0.06,-43.21,4,2
18818.234,-0.126,0.929,-0.231,167.21,2.01,-39.74,4,2
18818.25,-0.13,0.94,-0.25,155.37,3.42,-34.64,4,2
18818.265,-0.138,0.953,-0.269,142.31,4.0,-29.18,4,2
18818.265,-0.148,0.966,-0.294,127.87,3.23,-24.26,4,2
18818.281,-0.151,0.973,-0.318,113.16,1.46,-19.44,4,2
18818.296,-0.154,0.985,-0.333,98.73,-1.07,-15.2,4,2
18818.312,-0.157,0.991,-0.348,86.83,-4.0,-11.57,4,2
18818.312,-0.155,0.994,-0.36,78.25,-7.11,-7.87,4,2
18818.328,-0.146,0.992,-0.379,73.15,-9.49,-3.27,4,2
18818.328,-0.125,0.989,-0.403,70.35,-10.62,1.74,4,2
18818.343,-0.105,0.985,-0.431,68.03,-10.35,5.92,4,2
18818.359,-0.097,0.975,-0.448,65.25,-9.03,7.63,4,2
18818.359,-0.096,0.965,-0.459,62.35,-8.15,7.87,4,2
18818.375,-0.103,0.955,-0.469,59.54,-8.24,7.93,4,2
18818.375,-0.104,0.948,-0.478,57.47,-9.25,9.28,4,2
18818.39,-0.091,0.95,-0.494,54.84,-10.44,11.26,4,2
18818.406,-0.076,0.949,-0.511,50.29,-11.17,12.85,4,2
18818.421,-0.059,0.93,-0.516,45.5,-11.51,14.4,4,2
18818.421,-0.03,0.926,-0.531,43.34,-10.13,17.46,4,2
18818.437,0.006,0.94,-0.546,43.55,-6.65,20.94,4,2
18818.437,0.029,0.938,-0.568,44.16,-1.89,22.4,4,2
18818.453,0.033,0.942,-0.584,42.76,2.23,21.94,4,2
18818.468,0.04,0.958,-0.6,40.31,5.25,21.09,4,2
18818.468,0.045,0.976,-0.609,37.26,8.27,20.29,4,2
18818.484,0.049,0.982,-0.619,33.54,11.93,20.2,4,2
18818.5,0.049,0.99,-0.623,28.63,15.32,20.2,4,2
18818.5,0.053,0.985,-0.626,23.26,17.61,20.42,4,2
18818.515,0.058,0.974,-0.625,18.92,20.05,21.97,4,2
18818.515,0.061,0.966,-0.621,18.25,23.38,24.75,4,2
18818.531,0.068,0.973,-0.619,21.3,27.34,29.02,4,2
18818.546,0.07,0.968,-0.627,25.36,30.73,32.96,4,2
18818.546,0.064,0.951,-0.64,27.8,32.41,34.27,4,2
18818.562,0.066,0.95,-0.643,28.57,32.56,33.54,4,2
18818.578,0.072,0.947,-0.645,29.48,32.87,31.74,4,2
18818.578,0.082,0.937,-0.65,30.76,34.18,29.97,4,2
18818.593,0.086,0.927,-0.651,31.37,35.83,28.99,4,2
18818.609,0.081,0.922,-0.639,31.07,37.11,28.81,4,2
18818.609,0.073,0.912,-0.641,30.18,37.2,29.02,4,2
18818.625,0.074,0.896,-0.646,28.2,35.58,30.24,4,2
18818.625,0.078,0.886,-0.652,25.48,33.63,32.69,4,2
18818.64,0.085,0.879,-0.652,22.03,31.92,35.95,4,2
18818.656,0.096,0.873,-0.641,17.64,30.55,38.91,4,2
18818.656,0.098,0.87,-0.636,12.88,29.85,41.51,4,2
18818.671,0.091,0.871,-0.625,6.74,28.44,43.7,4,2
18818.687,0.083,0.863,-0.615,-0.24,25.45,45.72,4,2
18818.687,0.08,0.854,-0.603,-6.78,22.43,47.33,4,2
18818.703,0.088,0.847,-0.588,-11.17,20.05,48.19,4,2
18818.718,0.094,0.835,-0.566,-13.82,18.13,49.41,4,2
18818.718,0.092,0.824,-0.548,-13.76,17.06,51.82,4,2
18818.734,0.082,0.829,-0.535,-12.15,15.56,54.26,4,2
18818.75,0.071,0.835,-0.514,-12.88,10.68,56.7,4,2
18818.75,0.073,0.83,-0.494,-17.0,2.5,59.36,4,2
18818.765,0.077,0.827,-0.479,-22.74,-6.04,62.35,4,2
18818.765,0.094,0.811,-0.469,-29.21,-14.37,65.0,4,2
18818.781,0.117,0.786,-0.466,-35.62,-21.91,66.47,4,2
18818.796,0.154,0.749,-0.465,-41.66,-28.14,66.53,4,2
18818.796,0.196,0.712,-0.464,-38.82,-25.57,67.05,4,2
18818.812,0.227,0.684,-0.458,-34.18,-21.82,68.27,4,2
18818.828,0.241,0.674,-0.442,-29.88,-18.46,68.94,4,2
18818.828,0.263,0.662,-0.422,-28.81,-16.75,68.36,4,2
18818.843,0.278,0.65,-0.41,-31.28,-16.88,66.5,4,2
18818.859,0.301,0.637,-0.392,-34.88,-17.73,63.48,4,2
18818.859,0.32,0.626,-0.379,-36.99,-18.04,59.42,4,2
18818.875,0.302,0.597,-0.374,-37.17,-16.66,55.39,4,2
18818.875,0.343,0.582,-0.357,-36.04,-12.27,54.45,4,2
18818.89,0.421,0.624,-0.348,-34.3,-6.35,51.88,4,2
18818.906,0.443,0.66,-0.369,-34.42,-0.21,45.11,4,2
18818.906,0.444,0.62,-0.367,-43.31,7.39,44.01,4,2
18818.921,0.504,0.602,-0.349,-57.68,19.04,54.23,4,2
18818.937,0.557,0.629,-0.34,-70.93,37.48,65.34,4,2
18818.937,0.563,0.612,-0.354,-89.02,58.78,71.14,4,2
18818.953,0.536,0.553,-0.357,-116.98,80.11,74.25,4,2
18818.968,0.461,0.482,-0.277,-146.86,99.73,74.13,4,2
18818.968,0.336,0.399,-0.139,-161.78,112.4,66.77,4,2
18818.984,0.203,0.32,-0.039,-155.37,111.61,52.0,4,2
18819.0,0.103,0.311,0.001,-134.34,98.57,30.85,4,2
18819.0,0.07,0.356,0.011,-107.58,77.85,2.84,4,2
18819.015,0.084,0.439,0.011,-81.7,53.04,-28.99,4,2
18819.015,0.107,0.536,0.039,-60.03,29.11,-59.33,4,2
18819.031,0.136,0.639,0.02,-40.04,8.18,-84.2,4,2
18819.046,0.154,0.765,-0.007,-23.71,-6.13,-99.77,4,2
18819.046,0.145,0.87,-0.011,-8.12,-15.5,-109.68,4,2
18819.062,0.107,0.964,-0.005,8.24,-24.38,-113.74,4,2
18819.078,0.057,1.064,-0.022,24.48,-33.57,-111.67,4,2
18819.078,0.01,1.139,-0.054,38.0,-45.32,-105.2,4,2
18819.093,-0.013,1.182,-0.086,45.84,-58.69,-94.12,4,2
18819.109,-0.01,1.201,-0.131,47.49,-71.93,-80.81,4,2
18819.109,0.012,1.203,-0.195,44.59,-83.77,-68.06,4,2
18819.125,0.044,1.178,-0.261,38.79,-91.37,-56.58,4,2
18819.14,0.063,1.146,-0.31,31.1,-94.0,-46.63,4,2
18819.14,0.074,1.11,-0.345,22.03,-92.26,-37.78,4,2
18819.156,0.065,1.075,-0.384,14.19,-87.86,-29.82,4,2
18819.156,0.068,1.066,-0.422,5.13,-82.92,-21.06,4,2
18819.171,0.076,1.078,-0.443,-7.32,-77.12,-13.12,4,2
18819.187,0.089,1.09,-0.453,-22.37,-71.44,-6.01,4,2
18819.187,0.131,1.105,-0.449,-39.55,-66.26,1.74,4,2
18819.203,0.175,1.111,-0.42,-54.45,-57.89,9.03,4,2
18819.218,0.193,1.087,-0.382,-64.67,-47.09,14.89,4,2
18819.218,0.186,1.052,-0.352,-71.54,-36.47,20.72,4,2
18819.234,0.173,1.023,-0.337,-76.63,-27.47,26.4,4,2
18819.234,0.153,0.982,-0.317,-81.03,-21.27,30.64,4,2
18819.25,0.144,0.958,-0.295,-83.96,-19.41,32.65,4,2
18819.265,0.139,0.941,-0.276,-83.25,-20.91,31.56,4,2
18819.265,0.141,0.926,-0.243,-77.94,-23.74,29.54,4,2
18819.281,0.14,0.939,-0.22,-68.21,-28.11,25.54,4,2
18819.296,0.143,0.955,-0.203,-57.44,-34.64,20.29,4,2
18819.312,0.149,0.96,-0.195,-48.1,-42.09,15.81,4,2
18819.312,0.168,0.965,-0.198,-38.73,-48.16,12.79,4,2
18819.328,0.194,0.965,-0.212,-28.11,-51.33,10.8,4,2
18819.328,0.212,0.966,-0.231,-17.18,-51.18,9.74,4,2
18819.343,0.219,0.974,-0.245,-8.33,-48.77,8.39,4,2
18819.359,0.207,0.986,-0.26,-3.57,-45.41,6.84,4,2
18819.359,0.185,0.998,-0.258,-4.09,-43.0,5.37,4,2
18819.375,0.164,1.002,-0.254,-8.51,-42.51,4.06,4,2
18819.375,0.153,1.005,-0.252,-15.87,-44.22,4.18,4,2
18819.39,0.15,1.015,-0.244,-24.57,-47.43,4.64,4,2
18819.406,0.155,1.007,-0.236,-33.11,-50.81,4.67,4,2
18819.406,0.162,0.987,-0.226,-37.6,-51.67,5.34,4,2
18819.421,0.16,0.965,-0.22,-35.58,-49.44,6.71,4,2
18819.437,0.149,0.964,-0.217,-30.18,-45.69,8.39,4,2
18819.437,0.133,0.974,-0.222,-25.09,-42.73,9.52,4,2
18819.453,0.128,0.967,-0.23,-22.28,-42.27,9.64,4,2
18819.468,0.125,0.95,-0.241,-20.94,-42.15,9.06,4,2
18819.468,0.13,0.943,-0.25,-20.05,-40.8,8.67,4,2
18819.484,0.133,0.946,-0.239,-18.89,-37.57,8.85,4,2
18819.5,0.134,0.944,-0.228,-17.06,-34.06,9.67,4,2
18819.5,0.146,0.942,-0.233,-14.83,-30.49,11.6,4,2
18819.515,0.157,0.94,-0.248,-13.43,-25.76,13.49,4,2
18819.515,0.157,0.935,-0.253,-13.95,-20.48,14.77,4,2
18819.531,0.154,0.93,-0.248,-15.93,-15.41,15.96,4,2
18819.546,0.156,0.919,-0.232,-18.71,-10.9,18.1,4,2
18819.546,0.161,0.91,-0.22,-21.79,-6.44,21.7,4,2
18819.562,0.16,0.898,-0.214,-25.12,-1.89,25.48,4,2
18819.578,0.149,0.888,-0.199,-29.66,1.56,28.81,4,2
18819.578,0.139,0.877,-0.18,-34.79,3.17,31.8,4,2
18819.593,0.14,0.867,-0.159,-39.28,2.04,34.03,4,2
18819.593,0.159,0.852,-0.151,-42.73,-0.4,35.07,4,2
18819.609,0.188,0.836,-0.142,-45.2,-2.9,35.37,4,2
18819.625,0.221,0.833,-0.123,-44.62,-3.69,34.85,4,2
18819.64,0.238,0.829,-0.105,-39.83,-0.67,33.6,4,2
18819.64,0.224,0.832,-0.088,-32.99,3.54,31.77,4,2
18819.656,0.2,0.836,-0.071,-27.71,4.46,29.36,4,2
18819.656,0.181,0.84,-0.055,-24.72,2.44,26.22,4,2
18819.671,0.174,0.842,-0.053,-22.58,-1.07,22.34,4,2
18819.687,0.177,0.844,-0.061,-21.24,-4.12,17.76,4,2
18819.687,0.177,0.858,-0.072,-21.12,-5.98,12.63,4,2
18819.703,0.208,0.869,-0.07,-23.96,-6.74,7.93,4,2
18819.718,0.227,0.891,-0.043,-28.2,-4.09,5.31,4,2
18819.718,0.136,0.871,-0.041,-29.88,0.15,3.39,4,2
18819.734,0.141,0.855,-0.032,-30.92,1.16,4.91,4,2
18819.75,0.163,0.887,-0.026,-31.22,3.54,6.5,4,2
18819.75,0.166,0.893,-0.031,-32.01,7.05,5.49,4,2
18819.765,0.162,0.869,-0.024,-33.05,10.07,2.11,4,2
18819.765,0.151,0.862,-0.033,-31.37,13.06,-8.58,4,2
18819.781,0.156,0.863,-0.039,-32.5,12.63,-16.33,4,2
18819.796,0.188,0.87,-0.038,-37.05,10.65,-26.03,4,2
18819.796,0.229,0.894,-0.045,-46.54,9.13,-35.07,4,2
18819.812,0.324,0.906,0.015,-53.16,9.74,-43.12,4,2
18819.828,0.324,0.86,0.114,-41.32,11.63,-45.59,4,2
18819.828,0.319,0.949,0.202,-11.66,12.88,-41.29,4,2
18819.843,0.308,1.006,0.174,19.62,8.76,-38.0,4,2
18819.859,0.299,1.032,0.084,30.82,1.25,-36.68,4,2
18819.859,0.28,1.052,0.056,20.14,-5.43,-35.19,4,2
18819.875,0.279,1.046,0.081,4.58,-11.38,-32.07,4,2
18819.875,0.291,1.027,0.083,-2.96,-16.6,-26.86,4,2
18819.89,0.293,1.025,0.059,-5.49,-20.11,-21.36,4,2
18819.906,0.301,1.019,0.051,-7.84,-22.4,-17.27,4,2
18819.906,0.292,1.001,0.054,-8.91,-22.89,-15.32,4,2
18819.921,0.256,0.974,0.051,-7.66,-22.06,-13.43,4,2
18819.937,0.233,0.957,0.056,-6.01,-21.64,-9.8,4,2
18819.937,0.215,0.947,0.071,-5.25,-21.91,-6.13,4,2
18819.953,0.212,0.936,0.07,-6.44,-23.22,-3.72,4,2
18819.968,0.2,0.922,0.085,-9.34,-25.18,-2.72,4,2
18819.968,0.198,0.893,0.096,-10.53,-28.47,-3.51,4,2
18819.984,0.188,0.851,0.085,-7.29,-31.68,-5.8,4,2
18819.984,0.172,0.805,0.052,0.21,-34.42,-8.51,4,2
18820.0,0.166,0.774,0.002,7.2,-36.41,-10.5,4,2
18820.015,0.158,0.747,-0.034,9.09,-37.29,-11.87,4,2
18820.031,0.15,0.7,-0.06,7.08,-35.52,-12.27,4,2
18820.031,0.158,0.67,-0.088,3.05,-30.88,-9.95,4,2
18820.046,0.186,0.66,-0.11,-5.83,-25.76,-3.2,4,2
18820.046,0.264,0.689,-0.098,-19.78,-19.59,5.28,4,2
18820.062,0.301,0.73,-0.051,-36.13,-11.57,11.72,4,2
18820.078,0.318,0.791,0.043,-53.35,-5.1,17.67,4,2
18820.078,0.322,0.886,0.151,-68.58,-3.45,21.94,4,2
18820.093,0.288,0.944,0.241,-78.49,-8.73,24.05,4,2
18820.109,0.244,0.954,0.274,-80.26,-19.99,25.12,4,2
18820.109,0.199,0.964,0.241,-76.02,-34.03,24.81,4,2
18820.125,0.193,0.952,0.171,-70.19,-46.82,23.22,4,2
18820.125,0.21,0.936,0.084,-63.17,-54.84,18.83,4,2
18820.14,0.24,0.93,0.002,-54.87,-55.85,11.78,4,2
18820.156,0.288,0.953,-0.039,-47.09,-50.08,3.51,4,2
18820.171,0.325,0.99,-0.041,-38.15,-40.62,-5.68,4,2
18820.171,0.321,1.028,-0.022,-28.9,-30.34,-13.31,4,2
18820.187,0.289,1.056,0.007,-20.91,-21.82,-17.43,4,2
18820.187,0.252,1.074,0.044,-14.65,-15.81,-17.4,4,2
18820.203,0.243,1.11,0.075,-11.54,-12.54,-13.37,4,2
18820.218,0.251,1.121,0.096,-12.02,-10.8,-7.42,4,2
18820.218,0.246,1.119,0.11,-14.92,-8.85,-0.27,4,2
18820.234,0.235,1.105,0.128,-19.32,-6.68,7.97,4,2
18820.25,0.232,1.075,0.142,-24.63,-4.55,16.42,4,2
18820.25,0.239,1.035,0.151,-29.6,-2.78,23.62,4,2
18820.265,0.256,1.001,0.162,-32.99,-0.46,26.61,4,2
18820.265,0.264,0.967,0.17,-33.39,2.5,25.09,4,2
18820.281,0.262,0.965,0.185,-30.46,4.24,20.14,4,2
18820.296,0.262,0.966,0.2,-25.18,3.78,13.12,4,2
18820.312,0.275,0.983,0.205,-18.59,2.04,4.82,4,2
18820.312,0.268,1.007,0.209,-10.71,1.22,-3.51,4,2
18820.328,0.249,1.051,0.221,-3.02,-0.43,-10.22,4,2
18820.328,0.225,1.09,0.226,2.14,-3.42,-14.25,4,2
18820.343,0.213,1.105,0.216,3.23,-7.45,-14.47,4,2
18820.359,0.226,1.106,0.19,3.36,-10.59,-12.45,4,2
18820.359,0.248,1.116,0.161,2.96,-10.41,-8.67,4,2
18820.375,0.264,1.115,0.139,1.59,-6.78,-4.12,4,2
18820.375,0.263,1.1,0.129,-0.12,-1.16,0.43,4,2
18820.39,0.248,1.083,0.12,-1.71,5.37,6.13,4,2
18820.406,0.242,1.076,0.123,-4.27,11.81,12.09,4,2
18820.421,0.248,1.055,0.138,-8.15,17.12,16.36,4,2
18820.421,0.264,1.038,0.161,-11.29,20.72,18.95,4,2
18820.437,0.282,1.022,0.183,-10.8,23.59,21.15,4,2
18820.437,0.291,1.009,0.188,-7.63,25.82,22.31,4,2
18820.453,0.285,1.007,0.193,-4.79,26.8,22.0,4,2
18820.468,0.274,1.003,0.201,-4.58,25.51,21.06,4,2
18820.468,0.266,0.998,0.213,-5.89,22.83,19.9,4,2
18820.484,0.262,0.988,0.219,-7.02,19.14,18.68,4,2
18820.5,0.27,0.971,0.214,-7.11,15.17,17.3,4,2
18820.5,0.277,0.958,0.206,-5.95,12.21,15.9,4,2
18820.515,0.288,0.947,0.192,-4.03,10.77,15.02,4,2
18820.515,0.296,0.93,0.177,-1.53,11.66,13.76,4,2
18820.531,0.297,0.911,0.161,1.46,14.34,11.9,4,2
18820.546,0.285,0.906,0.156,4.82,18.04,10.1,4,2
18820.562,0.278,0.894,0.162,9.09,21.94,8.85,4,2
18820.562,0.265,0.907,0.173,13.34,26.18,8.18,4,2
18820.578,0.229,0.944,0.199,14.77,29.11,7.63,4,2
18820.578,0.18,0.968,0.238,11.23,27.83,8.27,4,2
18820.593,0.152,0.975,0.273,4.49,22.16,10.71,4,2
18820.609,0.148,0.966,0.287,-1.65,13.52,15.08,4,2
18820.609,0.169,0.947,0.271,-5.8,4.46,20.02,4,2
18820.625,0.216,0.921,0.234,-8.51,-2.35,24.54,4,2
18820.625,0.255,0.892,0.189,-10.1,-4.94,26.7,4,2
18820.64,0.276,0.867,0.158,-10.62,-3.23,27.28,4,2
18820.656,0.281,0.848,0.144,-10.19,0.43,26.34,4,2
18820.656,0.269,0.834,0.148,-8.91,4.12,24.29,4,2
18820.671,0.253,0.835,0.162,-7.69,6.26,21.36,4,2
18820.687,0.239,0.834,0.177,-7.02,5.98,17.73,4,2
18820.687,0.237,0.836,0.193,-6.74,3.81,14.62,4,2
18820.703,0.237,0.838,0.206,-5.13,1.1,11.66,4,2
18820.718,0.235,0.845,0.217,-2.38,-1.37,9.58,4,2
18820.718,0.247,0.856,0.209,0.18,-4.09,7.93,4,2
18820.734,0.261,0.852,0.191,1.62,-5.31,6.04,4,2
18820.75,0.273,0.847,0.176,2.11,-5.22,3.91,4,2
18820.75,0.268,0.846,0.16,2.38,-3.88,1.68,4,2
18820.765,0.267,0.839,0.158,2.41,-1.53,-0.46,4,2
18820.765,0.269,0.863,0.156,2.11,-0.52,-1.92,4,2
18820.781,0.265,0.868,0.165,0.12,0.21,-3.02,4,2
18820.796,0.271,0.894,0.189,-0.61,-0.21,-4.0,4,2
18820.796,0.283,0.898,0.195,0.46,-1.43,-4.21,4,2
18820.812,0.277,0.906,0.192,3.23,-1.83,-4.88,4,2
18820.828,0.271,0.912,0.187,5.65,-2.2,-4.12,4,2
18820.828,0.278,0.936,0.18,6.53,-2.66,-3.11,4,2
18820.843,0.278,0.929,0.17,5.1,-2.2,-2.11,4,2
18820.859,0.296,0.929,0.169,2.56,-1.22,-0.79,4,2
18820.859,0.302,0.93,0.167,1.74,1.13,0.24,4,2
18820.875,0.302,0.927,0.173,1.5,3.54,1.5,4,2
18820.875,0.302,0.937,0.181,1.71,5.49,2.23,4,2
18820.89,0.295,0.955,0.185,1.65,7.2,2.66,4,2
18820.906,0.282,0.945,0.191,0.34,7.72,3.36,4,2
18820.906,0.292,0.948,0.196,-0.76,7.05,4.91,4,2
18820.921,0.305,0.954,0.187,-0.55,7.17,5.89,4,2
18820.937,0.319,0.94,0.176,-1.04,8.21,6.5,4,2
18820.953,0.333,0.937,0.173,-1.92,9.86,6.5,4,2
18820.953,0.335,0.926,0.178,-1.74,12.67,6.2,4,2
18820.968,0.345,0.929,0.188,-0.46,15.38,6.04,4,2
18820.968,0.336,0.943,0.201,1.13,17.76,5.25,4,2
18820.984,0.325,0.945,0.219,1.25,18.56,5.62,4,2
18821.0,0.329,0.956,0.226,0.85,18.1,5.98,4,2
18821.0,0.322,0.949,0.23,0.73,17.82,6.56,4,2
18821.015,0.318,0.953,0.239,0.15,16.27,7.32,4,2
18821.015,0.31,0.949,0.242,-0.64,13.98,8.27,4,2
18821.031,0.317,0.936,0.237,-1.22,11.96,9.61,4,2
18821.046,0.316,0.911,0.225,-0.89,11.35,10.19,4,2
18821.062,0.319,0.891,0.213,-0.21,11.57,10.71,4,2
18821.062,0.331,0.899,0.209,-0.15,12.51,9.98,4,2
18821.078,0.318,0.888,0.211,-0.03,14.34,8.18,4,2
18821.078,0.313,0.878,0.224,0.37,15.72,6.47,4,2
18821.093,0.302,0.882,0.23,1.4,16.3,4.79,4,2
18821.109,0.298,0.887,0.24,2.14,16.02,3.57,4,2
18821.109,0.28,0.889,0.246,2.56,14.83,2.56,4,2
18821.125,0.277,0.888,0.244,1.95,12.45,2.44,4,2
18821.125,0.276,0.888,0.239,0.58,10.01,2.59,4,2
18821.14,0.291,0.893,0.237,-1.62,7.84,2.9,4,2
18821.156,0.301,0.897,0.236,-3.33,6.41,2.66,4,2
18821.171,0.3,0.89,0.236,-3.33,5.55,2.32,4,2
18821.171,0.309,0.885,0.225,-2.08,5.55,1.95,4,2
18821.187,0.305,0.877,0.205,-0.21,7.05,1.28,4,2
18821.203,0.31,0.862,0.195,1.34,9.06,0.09,4,2
18821.203,0.309,0.864,0.194,3.63,11.44,-1.5,4,2
18821.218,0.295,0.885,0.211,6.07,13.64,-3.2,4,2
18821.218,0.285,0.904,0.234,7.2,13.92,-4.18,4,2
18821.234,0.276,0.917,0.254,7.42,12.12,-4.76,4,2
18821.25,0.274,0.919,0.266,7.26,8.94,-4.15,4,2
18821.265,0.275,0.928,0.266,7.35,5.31,-3.57,4,2
18821.265,0.274,0.916,0.261,6.65,2.01,-1.98,4,2
18821.281,0.298,0.916,0.247,5.43,-0.73,-0.58,4,2
18821.296,0.304,0.916,0.238,4.12,-1.53,-0.18,4,2
18821.296,0.311,0.923,0.243,1.68,-1.8,-0.09,4,2
18821.312,0.309,0.916,0.252,-0.12,-2.01,-0.03,4,2
18821.312,0.312,0.909,0.264,-0.49,-2.84,0.24,4,2
18821.328,0.301,0.932,0.283,0.98,-4.46,-0.12,4,2
18821.328,0.288,0.939,0.285,1.43,-8.33,-0.82,4,2
18821.343,0.293,0.938,0.288,-1.13,-14.01,-1.43,4,2
18821.359,0.309,0.941,0.295,-3.42,-20.17,-2.78,4,2
18821.359,0.319,0.933,0.288,-3.66,-25.88,-5.52,4,2
18821.375,0.313,0.934,0.275,-1.71,-31.13,-9.16,4,2
18821.39,0.292,0.935,0.287,2.17,-36.74,-11.84,4,2
18821.39,0.289,0.938,0.289,7.23,-43.24,-13.89,4,2
18821.406,0.302,0.942,0.269,11.35,-49.81,-17.21,4,2
18821.406,0.302,0.936,0.245,15.69,-54.84,-20.91,4,2
18821.421,0.31,0.933,0.224,21.15,-58.5,-23.8,4,2
18821.437,0.315,0.919,0.184,26.12,-60.58,-27.01,4,2
18821.437,0.32,0.904,0.149,31.37,-60.27,-29.94,4,2
18821.453,0.317,0.912,0.119,36.74,-57.16,-32.04,4,2
18821.468,0.308,0.911,0.095,39.55,-52.77,-32.75,4,2
18821.468,0.321,0.899,0.066,39.22,-47.36,-32.47,4,2
18821.484,0.317,0.892,0.051,37.05,-40.16,-32.41,4,2
18821.5,0.306,0.889,0.034,33.57,-32.72,-31.86,4,2
18821.5,0.304,0.894,0.032,28.81,-25.03,-30.98,4,2
18821.515,0.29,0.897,0.026,23.44,-16.75,-30.18,4,2
18821.515,0.3,0.892,0.03,19.32,-9.31,-29.05,4,2
18821.531,0.31,0.876,0.023,18.59,-1.46,-28.23,4,2
18821.546,0.316,0.866,-0.014,19.5,6.78,-29.18,4,2
18821.546,0.33,0.84,-0.039,21.0,16.21,-31.37,4,2
18821.562,0.331,0.823,-0.031,20.48,26.67,-35.1,4,2
18821.578,0.315,0.8,0.001,17.98,35.68,-38.88,4,2
18821.593,0.281,0.767,0.06,16.97,42.24,-41.05,4,2
18821.593,0.257,0.774,0.115,20.2,45.81,-41.72,4,2
18821.609,0.192,0.836,0.186,17.4,45.23,-41.47,4,2
18821.609,0.169,0.868,0.23,2.47,32.53,-33.63,4,2
18821.625,0.162,0.882,0.269,-14.13,17.18,-27.47,4,2
18821.64,0.13,0.865,0.279,-23.99,3.75,-22.22,4,2
18821.64,0.095,0.845,0.247,-26.28,-9.09,-16.85,4,2
18821.656,0.094,0.842,0.202,-23.04,-20.94,-14.65,4,2
18821.656,0.101,0.845,0.135,-15.9,-30.73,-18.28,4,2
18821.671,0.106,0.855,0.068,-7.48,-38.0,-26.25,4,2
18821.687,0.097,0.881,0.028,1.77,-43.0,-36.32,4,2
18821.687,0.095,0.913,0.022,12.12,-47.15,-45.47,4,2
18821.703,0.096,0.953,0.021,21.85,-49.01,-51.76,4,2
18821.718,0.077,0.997,0.028,27.16,-48.8,-54.17,4,2
18821.718,0.049,1.043,0.044,26.12,-48.59,-51.64,4,2
18821.734,0.026,1.057,0.034,21.18,-48.4,-44.86,4,2
18821.75,0.023,1.056,0.039,8.09,-50.14,-28.41,4,2
18821.75,0.034,1.058,0.045,5.83,-49.96,-22.52,4,2
18821.765,0.047,1.044,0.018,5.07,-47.76,-19.04,4,2
18821.765,0.064,1.036,-0.021,7.02,-44.4,-16.82,4,2
18821.781,0.098,1.032,-0.03,11.81,-39.46,-13.92,4,2
18821.796,0.127,1.046,-0.044,15.59,-32.23,-11.93,4,2
18821.812,0.11,1.068,-0.012,14.13,-24.26,-8.91,4,2
18821.812,0.095,1.086,0.037,9.7,-17.98,-3.97,4,2
18821.828,0.077,1.08,0.075,5.16,-14.86,1.83,4,2
18821.828,0.074,1.07,0.099,1.83,-14.59,7.66,4,2
18821.843,0.076,1.05,0.099,-0.12,-16.21,12.63,4,2
18821.859,0.094,1.027,0.089,-0.76,-18.68,17.03,4,2
18821.859,0.125,1.005,0.076,-1.16,-20.36,18.89,4,2
18821.875,0.142,0.987,0.051,-0.76,-20.66,18.1,4,2
18821.875,0.149,0.996,0.046,-0.7,-19.81,16.27,4,2
18821.89,0.148,0.987,0.071,0.49,-19.29,13.06,4,2
18821.906,0.143,0.994,0.095,4.79,-19.2,9.09,4,2
18821.906,0.13,1.004,0.112,11.44,-19.35,7.02,4,2
18821.921,0.118,1.038,0.145,16.85,-20.69,7.97,4,2
18821.937,0.115,1.064,0.167,18.92,-23.71,11.35,4,2
18821.937,0.124,1.048,0.153,18.8,-28.11,17.0,4,2
18821.953,0.158,1.017,0.081,15.72,-31.68,25.36,4,2
18821.968,0.201,1.018,0.029,9.49,-31.04,31.71,4,2
18821.968,0.225,0.983,-0.045,3.81,-26.8,34.55,4,2
18821.984,0.229,0.959,-0.076,-4.67,-18.92,33.78,4,2
18822.0,0.221,0.957,-0.031,-9.86,-10.62,31.19,4,2
18822.0,0.219,0.928,0.012,-8.85,-4.73,28.87,4,2
18822.015,0.225,0.907,0.03,-4.46,-0.34,23.93,4,2
18822.015,0.242,0.911,0.044,1.1,2.38,20.08,4,2
18822.031,0.243,0.918,0.066,5.92,3.72,16.69,4,2
18822.046,0.233,0.903,0.082,8.67,3.45,12.57,4,2
18822.062,0.218,0.905,0.085,10.62,1.71,7.97,4,2
18822.062,0.222,0.906,0.056,13.03,-0.55,3.23,4,2
18822.078,0.231,0.901,0.032,12.73,-1.25,-2.47,4,2
18822.078,0.239,0.902,0.014,11.87,-0.24,-8.21,4,2
18822.093,0.245,0.908,-0.024,12.05,1.98,-13.12,4,2
18822.109,0.243,0.925,-0.053,9.4,6.13,-17.21,4,2
18822.109,0.239,0.928,-0.048,5.01,11.63,-20.51,4,2
18822.125,0.227,0.941,-0.016,4.88,17.09,-22.77,4,2
18822.125,0.195,0.974,0.037,9.52,20.87,-23.44,4,2
18822.14,0.163,1.008,0.081,13.0,20.05,-21.67,4,2
18822.156,0.16,1.013,0.098,10.71,15.66,-16.66,4,2
18822.156,0.162,1.018,0.106,5.77,10.86,-10.13,4,2
18822.171,0.176,1.008,0.097,2.26,6.1,-3.75,4,2
18822.187,0.197,0.987,0.066,-1.16,2.93,0.98,4,2
18822.187,0.204,0.961,0.039,-2.5,2.23,3.23,4,2
18822.203,0.202,0.94,0.008,-2.08,3.36,3.42,4,2
18822.218,0.21,0.926,0.002,-0.4,6.26,2.29,4,2
18822.218,0.209,0.931,0.014,1.83,10.04,0.0,4,2
18822.234,0.198,0.92,0.016,3.2,13.37,-3.02,4,2
18822.234,0.186,0.918,0.033,3.36,16.08,-5.98,4,2
18822.25,0.166,0.925,0.062,3.91,18.07,-9.06,4,2
18822.265,0.139,0.945,0.101,5.65,18.01,-10.77,4,2
18822.281,0.142,0.973,0.121,5.8,14.77,-9.52,4,2
18822.281,0.155,0.995,0.128,2.32,9.52,-6.59,4,2
18822.296,0.184,0.987,0.112,-1.5,3.85,-2.99,4,2
18822.296,0.203,0.975,0.085,-4.0,0.4,-0.34,4,2
18822.312,0.21,0.976,0.054,-4.21,-1.22,0.85,4,2
18822.328,0.217,0.966,0.023,-3.27,-1.43,0.89,4,2
18822.328,0.219,0.961,0.011,-1.01,0.18,0.15,4,2
18822.343,0.224,0.975,0.002,1.37,2.01,-0.58,4,2
18822.359,0.224,0.986,0.008,2.84,3.69,-1.19,4,2
18822.359,0.214,0.987,0.022,3.02,4.73,-0.79,4,2
18822.375,0.218,0.99,0.035,2.72,4.97,0.79,4,2
18822.375,0.218,0.996,0.042,2.32,4.85,2.32,4,2
18822.39,0.205,0.987,0.049,-0.12,4.36,3.11,4,2
18822.406,0.2,0.962,0.042,-3.05,3.45,3.54,4,2
18822.406,0.201,0.942,0.025,-3.6,3.14,3.23,4,2
18822.421,0.202,0.929,0.026,-2.56,3.63,1.89,4,2
18822.437,0.206,0.911,0.036,-1.56,3.69,-0.49,4,2
18822.437,0.209,0.912,0.073,0.15,2.9,-4.24,4,2
18822.453,0.183,0.922,0.11,5.13,0.79,-8.15,4,2
18822.468,0.176,0.942,0.114,8.42,-3.51,-10.1,4,2
18822.468,0.185,0.965,0.106,8.06,-8.45,-9.83,4,2
18822.484,0.184,0.967,0.086,6.38,-11.57,-7.9,4,2
18822.5,0.188,0.954,0.047,4.27,-12.12,-5.04,4,2
18822.5,0.194,0.958,-0.01,3.42,-9.34,-2.23,4,2
18822.515,0.198,0.95,-0.048,2.72,-3.48,-0.12,4,2
18822.515,0.182,0.955,-0.028,0.98,3.23,1.22,4,2
18822.531,0.161,0.952,0.022,0.95,7.78,2.38,4,2
18822.546,0.159,0.957,0.063,2.11,8.94,3.36,4,2
18822.546,0.161,0.969,0.091,2.72,7.45,4.49,4,2
18822.562,0.142,0.963,0.11,2.29,3.97,5.13,4,2
18822.578,0.146,0.941,0.104,1.62,-1.16,6.26,4,2
18822.578,0.175,0.936,0.079,1.53,-5.13,7.23,4,2
18822.593,0.189,0.929,0.05,1.43,-6.26,6.41,4,2
18822.609,0.184,0.921,0.038,0.43,-4.94,4.55,4,2
18822.609,0.167,0.932,0.042,0.12,-3.33,2.84,4,2
18822.625,0.156,0.944,0.051,0.37,-2.9,2.32,4,2
18822.64,0.14,0.953,0.067,0.64,-2.99,2.78,4,2
18822.64,0.132,0.952,0.068,1.86,-3.17,4.3,4,2
18822.656,0.115,0.962,0.061,3.02,-2.56,5.52,4,2
18822.656,0.078,0.966,0.054,3.02,-1.53,5.89,4,2
18822.671,0.035,0.96,0.052,3.39,-0.52,5.98,4,2
18822.687,0.011,0.942,0.032,5.19,-0.67,6.53,4,2
18822.687,0.042,0.934,-0.017,7.29,-1.5,7.81,4,2
18822.703,0.078,0.926,-0.041,6.56,-0.95,8.85,4,2
18822.718,0.111,0.931,-0.035,4.21,1.28,8.27,4,2
18822.718,0.121,0.95,-0.003,3.14,4.27,6.23,4,2
18822.734,0.103,0.978,0.041,7.35,6.84,1.53,4,2
18822.734,0.067,0.999,0.069,10.68,4.76,1.22,4,2
18822.75,0.051,0.996,0.077,13.89,1.83,2.78,4,2
18822.765,0.108,0.93,-0.005,15.78,-0.73,7.39,4,2
18822.781,0.173,0.935,-0.031,18.28,0.31,13.09,4,2
18822.781,0.213,0.953,-0.037,19.93,5.49,17.61,4,2
18822.796,0.239,0.944,-0.025,17.46,10.59,21.55,4,2
18822.796,0.249,0.94,0.014,12.76,14.83,24.69,4,2
18822.812,0.254,0.932,0.063,9.09,17.06,26.28,4,2
18822.828,0.261,0.923,0.092,7.75,16.45,26.64,4,2
18822.828,0.272,0.916,0.106,6.26,13.46,26.95,4,2
18822.843,0.29,0.905,0.11,4.82,9.46,26.25,4,2
18822.859,0.305,0.9,0.11,5.1,6.35,23.53,4,2
18822.859,0.307,0.897,0.116,7.66,5.25,18.74,4,2
18822.875,0.285,0.898,0.119,10.59,4.15,11.96,4,2
18822.875,0.256,0.861,0.113,14.25,1.22,5.07,4,2
18822.89,0.266,0.863,0.101,20.23,-2.32,-0.7,4,2
18822.906,0.274,0.883,0.056,25.97,-4.39,-5.95,4,2
18822.906,0.272,0.885,0.015,26.28,-5.52,-8.67,4,2
18822.921,0.292,0.909,0.019,22.43,-5.28,-8.76,4,2
18822.937,0.294,0.922,0.04,19.59,-3.91,-8.76,4,2
18822.937,0.284,0.921,0.056,19.04,-3.2,-8.21,4,2
18822.953,0.271,0.948,0.072,19.99,-3.27,-8.09,4,2
18822.968,0.228,0.953,0.083,20.33,-3.54,-9.89,4,2
18822.968,0.173,0.945,0.086,20.75,-5.74,-12.76,4,2
18822.984,0.144,0.947,0.072,23.68,-9.92,-15.78,4,2
18823.0,0.147,0.953,0.034,27.62,-14.25,-19.2,4,2
18823.0,0.162,0.948,-0.009,31.56,-17.09,-22.98,4,2
18823.015,0.172,0.95,-0.053,36.74,-16.66,-26.43,4,2
18823.031,0.191,0.97,-0.087,42.66,-12.67,-28.72,4,2
18823.031,0.197,0.986,-0.085,47.3,-6.99,-30.21,4,2
18823.046,0.175,1.019,-0.044,49.04,-0.92,-30.03,4,2
18823.046,0.144,1.029,-0.01,48.07,3.54,-28.08,4,2
18823.062,0.1,1.032,0.032,44.89,5.83,-23.16,4,2
18823.078,0.072,1.02,0.048,39.89,3.48,-14.19,4,2
18823.078,0.091,1.018,0.051,33.48,-0.37,-3.48,4,2
18823.093,0.091,1.004,0.022,27.04,-2.17,4.76,4,2
18823.109,0.086,0.975,-0.028,20.29,-3.05,8.97,4,2
18823.109,0.079,0.936,-0.057,16.3,-1.8,9.52,4,2
18823.125,0.095,0.917,-0.092,16.36,0.31,7.66,4,2
18823.14,0.096,0.938,-0.132,18.16,3.14,1.37,4,2
18823.14,0.115,0.933,-0.139,18.8,8.0,-7.54,4,2
18823.156,0.14,0.965,-0.091,20.87,15.56,-16.91,4,2
18823.156,0.073,0.961,-0.012,27.16,21.91,-25.15,4,2
18823.171,0.02,0.982,0.049,34.27,23.83,-30.67,4,2
18823.187,0.011,1.025,0.041,37.78,16.39,-26.73,4,2
18823.187,0.037,1.051,-0.048,35.65,2.84,-14.13,4,2
18823.203,0.091,1.052,-0.154,25.57,-9.52,-1.28,4,2
18823.218,0.213,1.03,-0.242,11.38,-15.53,10.07,4,2
18823.218,0.247,1.064,-0.289,-4.18,-13.15,15.87,4,2
18823.234,0.287,1.0,-0.263,-14.19,-7.63,23.01,4,2
18823.25,0.354,0.966,-0.217,-16.6,-2.01,20.54,4,2
18823.25,0.326,0.987,-0.154,-16.91,3.51,16.51,4,2
18823.265,0.223,0.91,-0.094,-17.76,3.17,11.29,4,2
18823.265,0.165,0.824,-0.077,-11.41,-4.15,4.52,4,2
18823.281,0.128,0.83,-0.106,6.01,-13.43,1.92,4,2
18823.296,0.159,0.888,-0.182,26.67,-18.89,-4.39,4,2
18823.296,0.258,0.944,-0.27,37.9,-20.08,-13.03,4,2
18823.312,0.301,0.972,-0.316,37.54,-15.63,-23.16,4,2
18823.328,0.296,0.981,-0.302,32.75,-7.72,-31.4,4,2
18823.328,0.264,1.004,-0.263,28.72,-2.87,-34.55,4,2
18823.343,0.206,1.033,-0.238,24.38,-3.02,-30.98,4,2
18823.359,0.15,1.048,-0.238,17.06,-6.81,-23.62,4,2
18823.359,0.105,1.044,-0.241,7.81,-11.93,-16.08,4,2
18823.375,0.077,1.011,-0.256,1.95,-16.17,-9.49,4,2
18823.375,0.08,1.011,-0.267,2.9,-16.42,-4.18,4,2
18823.39,0.098,1.017,-0.263,7.97,-14.1,1.1,4,2
18823.406,0.096,1.001,-0.259,11.26,-9.98,2.04,4,2
18823.406,0.098,1.007,-0.255,11.23,-6.5,2.41,4,2
18823.421,0.072,1.002,-0.267,11.41,-4.36,3.3,4,2
18823.437,0.08,0.991,-0.297,10.86,-3.6,5.37,4,2
18823.437,0.107,0.984,-0.317,8.82,-2.66,8.0,4,2
18823.453,0.143,0.98,-0.327,6.78,-0.37,9.64,4,2
18823.468,0.17,0.982,-0.316,3.48,3.33,9.52,4,2
18823.468,0.151,0.981,-0.286,-1.25,6.16,8.64,4,2
18823.484,0.116,0.967,-0.267,-4.76,6.16,9.61,4,2
18823.5,0.091,0.95,-0.257,-6.32,4.39,12.82,4,2
18823.5,0.052,0.951,-0.253,-6.1,3.51,15.32,4,2
18823.515,0.01,0.941,-0.261,-5.01,4.18,15.99,4,2
18823.515,0.02,0.925,-0.269,-3.14,6.13,15.53,4,2
18823.531,0.071,0.935,-0.263,1.92,9.95,12.97,4,2
18823.546,0.143,0.961,-0.258,9.22,14.5,8.27,4,2
18823.546,0.175,0.99,-0.243,15.08,17.98,2.93,4,2
18823.562,0.163,0.999,-0.23,19.07,17.76,0.46,4,2
18823.578,0.139,1.012,-0.234,21.7,13.73,1.59,4,2
18823.578,0.121,1.007,-0.263,23.5,9.19,3.72,4,2
18823.593,0.1,0.993,-0.289,22.22,6.68,6.9,4,2
18823.609,0.096,0.982,-0.323,18.74,7.05,10.5,4,2
18823.609,0.099,0.964,-0.344,12.15,10.71,14.68,4,2
18823.625,0.109,0.938,-0.348,5.25,14.98,19.62,4,2
18823.64,0.129,0.934,-0.35,-1.13,18.83,24.26,4,2
18823.64,0.136,0.922,-0.324,-8.73,21.09,27.8,4,2
18823.656,0.144,0.898,-0.286,-13.73,22.8,29.21,4,2
18823.656,0.156,0.883,-0.248,-13.03,25.51,28.2,4,2
18823.671,0.17,0.876,-0.211,-9.03,29.73,24.87,4,2
18823.687,0.176,0.869,-0.183,-4.46,31.59,20.05,4,2
18823.687,0.198,0.87,-0.18,-0.09,29.88,15.99,4,2
18823.703,0.268,0.876,-0.188,3.63,24.84,12.7,4,2
18823.718,0.314,0.885,-0.188,9.03,13.82,3.72,4,2
18823.718,0.335,0.9,-0.204,10.77,10.65,0.27,4,2
18823.734,0.355,0.894,-0.223,12.73,11.44,-0.76,4,2
18823.75,0.334,0.883,-0.22,14.89,13.73,-0.73,4,2
18823.75,0.261,0.866,-0.156,17.37,14.68,-0.64,4,2
18823.765,0.207,0.867,-0.088,21.36,10.8,-0.82,4,2
18823.765,0.198,0.869,-0.063,28.23,0.98,-2.29,4,2
18823.781,0.213,0.891,-0.09,36.56,-12.24,-3.08,4,2
18823.796,0.3,0.927,-0.141,44.65,-23.41,-4.82,4,2
18823.796,0.358,0.971,-0.194,47.36,-31.71,-9.43,4,2
18823.812,0.367,0.997,-0.244,45.78,-37.11,-11.32,4,2
18823.828,0.304,0.951,-0.299,42.45,-37.97,-10.56,4,2
18823.843,0.301,0.952,-0.337,38.15,-33.2,-12.42,4,2
18823.843,0.247,0.947,-0.348,33.02,-27.92,-8.18,4,2
18823.859,0.209,0.92,-0.38,25.33,-23.26,-2.81,4,2
18823.859,0.187,0.885,-0.413,15.35,-20.75,1.53,4,2
18823.875,0.181,0.867,-0.422,8.21,-18.13,4.43,4,2
18823.875,0.215,0.87,-0.408,4.73,-13.86,3.39,4,2
18823.89,0.229,0.866,-0.38,3.17,-9.28,-0.09,4,2
18823.906,0.219,0.883,-0.336,2.78,-4.55,-5.68,4,2
18823.906,0.225,0.902,-0.302,3.3,-0.43,-12.27,4,2
18823.921,0.216,0.905,-0.26,3.88,1.83,-16.51,4,2
18823.937,0.218,0.914,-0.237,5.13,1.1,-18.37,4,2
18823.953,0.236,0.911,-0.258,7.54,-2.75,-18.37,4,2
18823.953,0.215,0.927,-0.29,9.13,-6.29,-16.91,4,2
18823.968,0.194,0.953,-0.324,8.55,-9.89,-15.17,4,2
18823.968,0.191,0.96,-0.361,7.11,-11.81,-13.79,4,2
18823.984,0.16,0.965,-0.376,5.31,-11.02,-11.44,4,2
18824.0,0.155,0.962,-0.364,4.27,-8.48,-6.16,4,2
18824.0,0.149,0.964,-0.341,2.23,-4.21,0.95,4,2
18824.015,0.145,0.958,-0.316,-2.96,-0.61,8.33,4,2
18824.015,0.162,0.931,-0.281,-9.55,2.08,16.27,4,2
18824.031,0.164,0.903,-0.241,-16.08,1.59,24.57,4,2
18824.046,0.174,0.887,-0.215,-20.08,-3.48,30.61,4,2
18824.062,0.203,0.87,-0.202,-20.45,-10.47,32.32,4,2
18824.062,0.223,0.866,-0.195,-16.82,-18.43,29.39,4,2
18824.078,0.236,0.866,-0.218,-10.83,-26.15,24.26,4,2
18824.078,0.239,0.881,-0.247,-4.61,-31.28,17.0,4,2
18824.093,0.222,0.88,-0.277,0.43,-34.0,10.07,4,2
18824.109,0.197,0.877,-0.296,3.91,-34.79,5.62,4,2
18824.109,0.163,0.895,-0.313,6.26,-33.33,4.12,4,2
18824.125,0.15,0.909,-0.324,5.74,-31.04,4.33,4,2
18824.125,0.146,0.9,-0.326,3.36,-27.62,6.23,4,2
18824.14,0.167,0.897,-0.313,1.22,-23.68,8.06,4,2
18824.156,0.195,0.893,-0.291,-0.03,-19.62,8.06,4,2
18824.156,0.207,0.885,-0.247,-0.4,-16.75,5.28,4,2
18824.171,0.221,0.874,-0.216,1.07,-15.81,1.1,4,2
18824.187,0.237,0.863,-0.182,2.75,-17.27,-1.77,4,2
18824.187,0.24,0.846,-0.172,4.18,-20.39,-2.93,4,2
18824.203,0.238,0.842,-0.179,2.56,-25.33,-2.99,4,2
18824.218,0.234,0.836,-0.2,-1.37,-30.92,-2.23,4,2
18824.218,0.227,0.82,-0.228,-6.04,-35.77,-0.64,4,2
18824.234,0.223,0.815,-0.274,-8.91,-40.01,0.76,4,2
18824.234,0.242,0.813,-0.326,-9.95,-42.15,1.4,4,2
18824.25,0.252,0.812,-0.359,-10.1,-40.99,-0.27,4,2
18824.265,0.23,0.836,-0.373,-9.28,-37.69,-5.98,4,2
18824.265,0.204,0.846,-0.367,-8.61,-34.06,-14.47,4,2
18824.281,0.172,0.838,-0.345,-8.06,-31.34,-24.11,4,2
18824.296,0.148,0.846,-0.319,-6.04,-30.92,-33.02,4,2
18824.296,0.116,0.881,-0.321,-2.56,-33.23,-40.25,4,2
18824.312,0.108,0.908,-0.351,-0.21,-36.77,-43.61,4,2
18824.328,0.101,0.942,-0.391,-1.37,-38.97,-43.37,4,2
18824.328,0.081,0.985,-0.445,-4.67,-39.16,-40.71,4,2
18824.343,0.07,1.014,-0.489,-10.9,-37.08,-35.77,4,2
18824.359,0.068,1.039,-0.502,-17.85,-32.78,-30.37,4,2
18824.359,0.043,1.014,-0.49,-22.89,-26.34,-21.79,4,2
18824.375,0.049,1.027,-0.46,-26.37,-21.91,-11.02,4,2
18824.375,0.069,1.031,-0.429,-25.88,-17.37,-1.83,4,2
18824.39,0.054,1.036,-0.413,-23.47,-12.85,2.69,4,2
18824.406,0.01,1.035,-0.388,-24.6,-12.24,4.55,4,2
18824.406,0.008,1.037,-0.366,-30.37,-14.92,6.9,4,2
18824.421,0.013,1.029,-0.36,-37.51,-19.04,9.34,4,2
18824.437,0.038,1.02,-0.361,-39.09,-20.91,9.67,4,2
18824.437,0.06,1.013,-0.374,-34.52,-19.41,8.76,4,2
18824.453,0.074,1.019,-0.381,-29.54,-15.93,8.76,4,2
18824.468,0.101,1.035,-0.373,-25.3,-11.87,10.47,4,2
18824.468,0.117,1.059,-0.355,-23.13,-8.36,12.45,4,2
18824.484,0.121,1.064,-0.321,-23.65,-5.62,15.32,4,2
18824.5,0.122,1.072,-0.283,-25.85,-4.52,19.96,4,2
18824.5,0.116,1.071,-0.25,-27.95,-6.23,23.93,4,2
18824.515,0.13,1.053,-0.234,-28.17,-9.55,27.56,4,2
18824.515,0.165,1.042,-0.232,-27.13,-12.54,30.27,4,2
18824.531,0.181,1.029,-0.237,-24.6,-13.98,32.32,4,2
18824.546,0.188,1.008,-0.228,-22.28,-14.53,35.25,4,2
18824.546,0.194,0.996,-0.214,-21.61,-14.8,38.67,4,2
18824.562,0.175,0.983,-0.207,-22.95,-15.44,41.29,4,2
18824.578,0.154,0.969,-0.193,-26.58,-16.75,43.58,4,2
18824.578,0.14,0.955,-0.168,-30.18,-19.68,46.14,4,2
18824.593,0.131,0.937,-0.162,-31.53,-23.07,48.71,4,2
18824.609,0.139,0.941,-0.166,-31.4,-25.97,50.94,4,2
18824.609,0.154,0.932,-0.172,-31.71,-28.11,52.71,4,2
18824.625,0.168,0.92,-0.17,-32.93,-29.73,54.26,4,2
18824.625,0.194,0.909,-0.159,-33.88,-31.34,55.33,4,2
18824.64,0.214,0.897,-0.154,-35.0,-32.87,55.3,4,2
18824.656,0.231,0.885,-0.148,-36.1,-34.36,54.05,4,2
18824.656,0.243,0.872,-0.147,-35.89,-35.74,51.58,4,2
18824.671,0.242,0.862,-0.156,-35.34,-36.84,48.04,4,2
18824.687,0.236,0.856,-0.156,-35.8,-38.3,44.1,4,2
18824.687,0.235,0.844,-0.163,-34.39,-40.59,35.55,4,2
18824.703,0.247,0.841,-0.181,-31.59,-39.92,30.09,4,2
18824.718,0.254,0.841,-0.203,-29.76,-38.48,24.38,4,2
18824.718,0.257,0.834,-0.211,-27.74,-36.71,18.62,4,2
18824.734,0.258,0.833,-0.214,-24.75,-35.31,12.91,4,2
18824.734,0.256,0.83,-0.215,-22.13,-34.42,8.33,4,2
18824.75,0.249,0.837,-0.21,-20.69,-34.18,4.91,4,2
18824.765,0.243,0.848,-0.214,-19.01,-34.58,2.35,4,2
18824.765,0.249,0.853,-0.237,-18.59,-34.91,0.55,4,2
18824.781,0.252,0.86,-0.25,-19.17,-34.18,-0.61,4,2
18824.796,0.253,0.872,-0.261,-17.33,-32.72,-1.22,4,2
18824.796,0.26,0.888,-0.271,-14.25,-30.79,-1.5,4,2
18824.812,0.26,0.897,-0.276,-11.78,-28.02,-1.92,4,2
18824.828,0.264,0.899,-0.275,-10.8,-24.93,-2.59,4,2
18824.843,0.284,0.897,-0.266,-10.74,-21.67,-3.48,4,2
18824.843,0.312,0.908,-0.245,-10.59,-18.01,-5.4,4,2
18824.843,0.308,0.926,-0.22,-10.01,-15.11,-7.93,4,2
18824.859,0.307,0.941,-0.192,-9.46,-13.95,-9.37,4,2
18824.875,0.308,0.958,-0.172,-7.97,-14.53,-9.55,4,2
18824.89,0.307,0.968,-0.17,-5.74,-15.93,-8.27,4,2
18824.89,0.309,0.978,-0.171,-4.55,-17.27,-6.07,4,2
18824.906,0.315,0.982,-0.18,-3.39,-18.28,-3.78,4,2
18824.906,0.315,0.99,-0.192,-2.41,-18.49,-1.83,4,2
18824.921,0.307,0.99,-0.199,-0.52,-17.85,-0.09,4,2
18824.937,0.299,0.986,-0.199,1.62,-16.85,1.98,4,2
18824.953,0.295,0.983,-0.195,3.54,-15.32,4.36,4,2
18824.953,0.288,0.977,-0.188,5.16,-13.61,6.9,4,2
18824.968,0.288,0.964,-0.186,6.65,-12.24,10.25,4,2
18824.968,0.29,0.941,-0.18,7.42,-10.68,14.37,4,2
18824.984,0.296,0.915,-0.182,7.45,-9.22,18.62,4,2
18825.0,0.296,0.897,-0.175,7.11,-7.87,22.13,4,2
18825.0,0.276,0.893,-0.158,8.33,-7.78,23.77,4,2
18825.015,0.261,0.892,-0.163,8.67,-9.37,24.29,4,2
18825.015,0.258,0.899,-0.16,3.42,-12.33,22.89,4,2
18825.031,0.265,0.887,-0.169,-1.43,-15.02,19.32,4,2
18825.046,0.279,0.876,-0.195,-2.44,-15.78,15.47,4,2
18825.046,0.288,0.881,-0.218,-0.92,-14.31,11.72,4,2
18825.062,0.283,0.896,-0.236,0.67,-10.83,7.9,4,2
18825.078,0.271,0.916,-0.234,-0.12,-7.26,4.85,4,2
18825.078,0.261,0.921,-0.223,-1.31,-4.21,3.02,4,2
18825.093,0.255,0.925,-0.213,-0.92,-1.8,2.5,4,2
18825.109,0.245,0.932,-0.21,0.67,-0.03,2.69,4,2
18825.109,0.239,0.933,-0.206,0.76,1.01,3.63,4,2
18825.125,0.249,0.936,-0.192,-0.64,1.46,4.73,4,2
18825.125,0.25,0.924,-0.184,-0.82,1.83,5.01,4,2
18825.14,0.257,0.919,-0.174,-1.07,1.77,4.91,4,2
18825.156,0.271,0.918,-0.168,-1.89,1.59,3.63,4,2
18825.156,0.28,0.906,-0.158,-1.07,1.65,1.65,4,2
18825.171,0.285,0.907,-0.16,1.56,1.86,0.0,4,2
18825.187,0.292,0.918,-0.158,2.9,2.38,-0.37,4,2
18825.203,0.308,0.923,-0.158,2.32,2.84,-0.37,4,2
18825.203,0.298,0.927,-0.143,1.13,3.39,0.18,4,2
18825.218,0.287,0.918,-0.137,0.82,2.84,2.41,4,2
18825.218,0.299,0.912,-0.138,-0.03,1.16,5.68,4,2
18825.234,0.319,0.906,-0.145,-1.4,0.4,8.48,4,2
18825.25,0.322,0.903,-0.15,-2.96,0.58,9.19,4,2
18825.25,0.312,0.9,-0.143,-4.46,1.13,8.61,4,2
18825.265,0.302,0.901,-0.127,-5.13,0.73,7.2,4,2
18825.265,0.311,0.9,-0.121,-4.94,-0.7,5.55,4,2
18825.281,0.323,0.896,-0.128,-3.17,-1.89,2.96,4,2
18825.296,0.323,0.896,-0.142,-0.43,-1.92,0.18,4,2
18825.296,0.311,0.902,-0.148,1.74,-1.5,-2.01,4,2
18825.312,0.307,0.905,-0.156,2.66,-1.19,-2.87,4,2
18825.328,0.305,0.909,-0.161,2.5,-0.49,-2.9,4,2
18825.328,0.298,0.905,-0.157,2.32,0.24,-2.53,4,2
18825.343,0.296,0.907,-0.144,2.17,0.34,-1.71,4,2
18825.359,0.297,0.909,-0.136,2.66,-0.34,-1.16,4,2
18825.359,0.291,0.915,-0.136,3.17,-2.23,-1.13,4,2
18825.375,0.286,0.924,-0.146,3.45,-4.12,-1.74,4,2
18825.375,0.283,0.925,-0.167,3.69,-5.04,-2.84,4,2
18825.39,0.282,0.925,-0.181,4.49,-4.61,-3.94,4,2
18825.406,0.285,0.923,-0.185,5.65,-2.9,-5.52,4,2
18825.421,0.283,0.922,-0.181,6.38,-0.37,-7.42,4,2
18825.421,0.269,0.934,-0.167,6.74,2.11,-9.09,4,2
18825.437,0.252,0.95,-0.167,6.35,3.45,-9.55,4,2
18825.437,0.243,0.967,-0.164,4.43,3.48,-7.81,4,2
18825.453,0.245,0.976,-0.163,2.14,3.3,-4.7,4,2
18825.468,0.256,0.977,-0.169,-0.12,3.69,-1.4,4,2
18825.468,0.277,0.967,-0.173,-2.5,4.64,1.53,4,2
18825.484,0.295,0.958,-0.17,-3.57,6.44,2.81,4,2
18825.5,0.301,0.949,-0.156,-3.78,7.9,3.11,4,2
18825.5,0.303,0.94,-0.144,-3.27,8.42,2.38,4,2
18825.515,0.299,0.936,-0.129,-1.92,7.84,0.82,4,2
18825.515,0.291,0.938,-0.112,-0.03,6.56,-0.89,4,2
18825.531,0.292,0.94,-0.112,1.01,4.3,-1.1,4,2
18825.546,0.296,0.948,-0.124,0.85,2.26,-0.61,4,2
18825.546,0.297,0.946,-0.136,0.24,1.56,0.4,4,2
18825.562,0.299,0.941,-0.143,-0.67,1.98,2.04,4,2
18825.578,0.3,0.933,-0.144,-2.2,2.81,4.0,4,2
18825.578,0.308,0.927,-0.137,-3.94,3.69,4.91,4,2
18825.593,0.295,0.92,-0.124,-4.36,4.58,4.58,4,2
18825.593,0.284,0.915,-0.107,-3.85,4.21,3.63,4,2
18825.609,0.287,0.913,-0.099,-2.59,2.41,2.5,4,2
18825.625,0.3,0.913,-0.107,-0.98,0.46,0.7,4,2
18825.625,0.304,0.921,-0.115,0.21,-0.61,-1.5,4,2
18825.64,0.296,0.931,-0.124,0.67,-1.19,-3.2,4,2
18825.656,0.296,0.933,-0.136,0.58,-1.68,-3.48,4,2
18825.656,0.291,0.939,-0.138,0.37,-1.46,-3.11,4,2
18825.671,0.281,0.939,-0.139,0.89,-0.76,-2.5,4,2
18825.687,0.272,0.945,-0.137,0.37,-0.31,-0.46,4,2
18825.687,0.268,0.957,-0.129,-1.25,-1.59,0.76,4,2
18825.703,0.264,0.958,-0.13,-2.17,-2.72,2.2,4,2
18825.718,0.292,0.947,-0.14,-1.98,-2.69,3.69,4,2
18825.718,0.297,0.944,-0.145,-2.26,-2.29,4.79,4,2
18825.734,0.302,0.935,-0.144,-3.36,-1.65,4.97,4,2
18825.734,0.307,0.92,-0.136,-3.78,-0.82,4.43,4,2
18825.75,0.306,0.91,-0.13,-2.38,-0.37,3.91,4,2
18825.765,0.312,0.909,-0.137,-1.13,-0.37,3.72,4,2
18825.765,0.314,0.906,-0.139,-1.19,-0.18,3.45,4,2
18825.781,0.313,0.901,-0.14,-2.32,0.06,2.26,4,2
18825.796,0.308,0.897,-0.14,-2.69,0.34,0.55,4,2
18825.796,0.298,0.901,-0.131,-2.38,0.43,-1.25,4,2
18825.812,0.289,0.907,-0.126,-1.37,-0.4,-3.17,4,2
18825.828,0.271,0.91,-0.131,0.34,-2.01,-4.0,4,2
18825.828,0.269,0.921,-0.143,0.95,-3.94,-3.66,4,2
18825.843,0.276,0.927,-0.155,0.82,-5.22,-3.11,4,2
18825.859,0.277,0.928,-0.174,0.09,-5.34,-2.04,4,2
18825.859,0.282,0.93,-0.183,-1.19,-4.18,-0.34,4,2
18825.875,0.286,0.931,-0.186,-1.68,-2.2,0.79,4,2
18825.875,0.281,0.922,-0.183,-1.95,0.06,1.56,4,2
18825.89,0.278,0.919,-0.172,-2.44,1.71,1.5,4,2
18825.906,0.279,0.91,-0.167,-1.8,2.72,0.61,4,2
18825.906,0.292,0.904,-0.16,-1.1,3.75,-0.61,4,2
18825.921,0.301,0.905,-0.146,0.21,4.73,-2.69,4,2
18825.937,0.291,0.904,-0.14,1.89,4.94,-5.01,4,2
18825.953,0.289,0.903,-0.133,3.05,4.39,-6.1,4,2
18825.953,0.298,0.909,-0.134,3.75,3.66,-6.59,4,2
18825.953,0.293,0.919,-0.143,4.39,3.33,-6.99,4,2
18825.968,0.295,0.925,-0.151,3.33,3.39,-6.13,4,2
18825.984,0.299,0.933,-0.139,0.79,3.63,-4.88,4,2
18826.0,0.293,0.939,-0.127,-1.07,3.51,-4.12,4,2
18826.0,0.288,0.94,-0.121,-1.56,2.75,-3.81,4,2
18826.015,0.282,0.939,-0.124,-0.58,1.98,-3.91,4,2
18826.031,0.282,0.945,-0.126,0.92,1.43,-3.63,4,2
18826.031,0.291,0.951,-0.133,1.83,0.82,-3.27,4,2
18826.046,0.299,0.952,-0.142,1.77,0.82,-3.2,4,2
18826.046,0.294,0.955,-0.136,1.56,1.37,-3.11,4,2
18826.062,0.287,0.965,-0.127,2.23,1.4,-2.47,4,2
18826.078,0.282,0.969,-0.12,2.99,0.76,-1.22,4,2
18826.093,0.277,0.971,-0.119,3.39,-0.46,0.79,4,2
18826.093,0.276,0.969,-0.129,3.51,-1.8,2.81,4,2
18826.109,0.279,0.962,-0.138,3.81,-2.41,4.36,4,2
18826.109,0.282,0.957,-0.142,4.64,-2.41,5.46,4,2
18826.125,0.284,0.951,-0.143,6.26,-1.95,5.68,4,2
18826.125,0.286,0.948,-0.144,7.81,-1.22,5.8,4,2
18826.14,0.283,0.949,-0.144,7.57,-0.67,6.32,4,2
