timestamp,ax,ay,az,gx,gy,gz,orient_label,motion_label
16749.468,-0.64,0.089,0.753,-1.4,-4.3,-1.56,1,4
16749.484,-0.638,0.103,0.75,-0.49,-4.21,-1.89,1,4
16749.484,-0.625,0.105,0.746,-0.34,-4.24,-1.22,1,4
16749.5,-0.625,0.105,0.747,-0.64,-3.36,-0.4,1,4
16749.515,-0.64,0.102,0.747,-1.5,-1.74,1.59,1,4
16749.515,-0.644,0.091,0.743,-1.89,-1.28,1.53,1,4
16749.531,-0.636,0.082,0.739,-1.77,-0.46,0.76,1,4
16749.546,-0.633,0.087,0.742,-1.65,0.15,0.15,1,4
16749.546,-0.627,0.094,0.742,-1.5,0.52,-0.58,1,4
16749.562,-0.629,0.098,0.746,-0.95,1.16,-0.98,1,4
16749.578,-0.652,0.106,0.759,0.0,1.19,-1.1,1,4
16749.578,-0.658,0.107,0.76,-0.06,-0.06,-0.67,1,4
16749.593,-0.652,0.099,0.748,-0.58,-1.92,-0.18,1,4
16749.593,-0.643,0.092,0.738,-0.61,-2.23,0.09,1,4
16749.609,-0.629,0.094,0.736,-0.46,-1.46,-0.18,1,4
16749.625,-0.626,0.096,0.739,0.79,0.15,-1.28,1,4
16749.625,-0.635,0.097,0.748,2.78,1.31,-2.9,1,4
16749.656,-0.659,0.108,0.749,6.16,0.79,-5.19,1,4
16749.656,-0.664,0.108,0.73,6.07,0.61,-4.94,1,4
16749.671,-0.666,0.107,0.736,4.7,0.61,-3.81,1,4
16749.687,-0.668,0.104,0.748,3.75,0.52,-2.32,1,4
16749.687,-0.659,0.094,0.744,3.2,0.12,-0.92,1,4
16749.703,-0.645,0.082,0.742,1.92,-0.06,-0.58,1,4
16749.718,-0.642,0.071,0.741,1.34,0.4,-0.82,1,4
16749.718,-0.634,0.066,0.736,1.37,1.01,-0.85,1,4
16749.734,-0.623,0.065,0.738,0.82,1.5,-1.53,1,4
16749.75,-0.622,0.063,0.744,0.7,2.26,-2.62,1,4
16749.75,-0.629,0.07,0.75,0.61,2.87,-3.08,1,4
16749.765,-0.639,0.079,0.764,0.31,3.05,-3.08,1,4
16749.765,-0.645,0.08,0.775,-0.46,1.74,-2.9,1,4
16749.781,-0.649,0.075,0.779,-1.5,-0.09,-2.75,1,4
16749.796,-0.63,0.062,0.772,-1.98,-1.43,-2.04,1,4
16749.796,-0.608,0.059,0.767,-2.99,-2.56,-2.44,1,4
16749.812,-0.598,0.041,0.789,-4.15,-2.56,-5.95,1,4
16749.828,-0.592,0.037,0.81,-5.62,-3.6,-8.18,1,4
16749.843,-0.585,0.017,0.843,-7.69,-6.68,-11.17,1,4
16749.843,-0.548,-0.021,0.869,-7.81,-10.38,-14.56,1,4
16749.859,-0.509,-0.033,0.871,-5.52,-15.56,-20.23,1,4
16749.875,-0.48,-0.063,0.871,-2.01,-19.84,-27.56,1,4
16749.875,-0.434,-0.086,0.885,2.75,-22.83,-35.77,1,4
16749.89,-0.398,-0.086,0.898,9.92,-24.2,-45.08,1,4
16749.906,-0.374,-0.059,0.908,17.46,-24.66,-54.51,1,4
16749.921,-0.356,-0.026,0.921,22.52,-25.03,-62.38,1,4
16749.921,-0.34,-0.009,0.95,26.15,-25.7,-69.49,1,4
16749.937,-0.34,0.007,0.981,32.26,-26.09,-75.87,1,4
16749.937,-0.371,0.031,1.035,41.23,-27.34,-79.99,1,4
16749.953,-0.416,0.072,1.105,51.33,-32.99,-81.42,1,4
16749.968,-0.414,0.103,1.138,61.1,-43.09,-81.12,1,4
16749.968,-0.391,0.123,1.132,69.22,-54.14,-81.51,1,4
16750.0,-0.363,0.219,1.091,85.63,-67.2,-80.2,1,4
16750.0,-0.343,0.265,1.063,89.69,-70.38,-77.7,1,4
16750.015,-0.327,0.307,1.035,90.98,-70.65,-74.43,1,4
16750.015,-0.349,0.359,0.988,91.74,-67.42,-68.76,1,4
16750.031,-0.34,0.398,0.958,89.91,-62.53,-59.66,1,4
16750.046,-0.338,0.415,0.978,88.96,-55.97,-50.87,1,4
16750.046,-0.43,0.466,1.001,94.12,-48.89,-40.93,1,4
16750.062,-0.463,0.522,1.003,95.65,-44.92,-23.22,1,4
16750.078,-0.529,0.587,1.032,87.59,-47.36,-7.75,1,4
16750.078,-0.536,0.583,1.05,76.54,-53.93,11.66,1,4
16750.093,-0.539,0.596,1.035,65.8,-63.57,28.14,1,4
16750.093,-0.506,0.569,0.997,56.79,-71.2,43.67,1,4
16750.109,-0.464,0.558,0.962,50.11,-76.33,54.26,1,4
16750.125,-0.431,0.507,0.93,47.82,-76.75,61.37,1,4
16750.125,-0.397,0.491,0.9,49.68,-73.76,65.28,1,4
16750.14,-0.388,0.483,0.883,55.64,-66.59,67.57,1,4
16750.156,-0.399,0.495,0.878,63.91,-58.87,67.72,1,4
16750.156,-0.433,0.502,0.872,71.2,-52.16,68.36,1,4
16750.171,-0.448,0.531,0.87,71.84,-49.01,71.11,1,4
16750.187,-0.466,0.549,0.859,66.62,-48.25,74.59,1,4
16750.187,-0.471,0.536,0.844,58.26,-49.44,78.22,1,4
16750.203,-0.469,0.512,0.842,51.88,-50.51,83.13,1,4
16750.203,-0.45,0.506,0.843,50.02,-51.0,89.18,1,4
16750.218,-0.426,0.492,0.825,51.42,-51.0,94.03,1,4
16750.234,-0.407,0.474,0.792,50.72,-49.59,96.96,1,4
16750.234,-0.383,0.45,0.758,48.95,-46.11,97.78,1,4
16750.25,-0.371,0.425,0.74,49.29,-40.93,96.5,1,4
16750.265,-0.405,0.423,0.732,50.72,-36.19,94.06,1,4
16750.281,-0.46,0.431,0.754,50.08,-35.46,92.2,1,4
16750.281,-0.491,0.432,0.783,45.59,-41.05,92.65,1,4
16750.296,-0.488,0.428,0.787,38.51,-49.23,95.58,1,4
16750.296,-0.447,0.432,0.779,31.1,-56.52,100.04,1,4
16750.312,-0.396,0.414,0.756,25.24,-60.52,104.31,1,4
16750.328,-0.34,0.386,0.728,20.26,-59.21,108.46,1,4
16750.328,-0.29,0.367,0.711,17.3,-53.22,110.93,1,4
16750.343,-0.273,0.334,0.699,16.75,-45.14,110.08,1,4
16750.359,-0.286,0.29,0.696,16.36,-37.63,107.52,1,4
16750.359,-0.334,0.264,0.708,16.11,-33.45,102.82,1,4
16750.375,-0.382,0.259,0.722,15.66,-35.04,97.17,1,4
16750.39,-0.401,0.253,0.724,12.54,-41.81,90.76,1,4
16750.39,-0.371,0.254,0.724,7.97,-49.59,84.26,1,4
16750.406,-0.321,0.275,0.73,4.21,-53.35,77.76,1,4
16750.406,-0.29,0.3,0.745,2.96,-52.22,72.15,1,4
16750.421,-0.27,0.302,0.751,3.69,-47.09,68.3,1,4
16750.437,-0.257,0.3,0.748,4.12,-40.04,65.16,1,4
16750.437,-0.268,0.283,0.751,4.43,-33.45,61.83,1,4
16750.453,-0.279,0.268,0.761,6.29,-29.69,57.86,1,4
16750.453,-0.298,0.255,0.756,11.38,-28.63,53.16,1,4
16750.468,-0.314,0.246,0.74,17.03,-28.75,48.4,1,4
16750.484,-0.275,0.296,0.721,10.53,-22.1,34.97,1,4
16750.5,-0.264,0.316,0.726,2.23,-16.17,31.04,1,4
16750.515,-0.254,0.321,0.738,-4.27,-10.16,27.92,1,4
16750.531,-0.251,0.327,0.756,-7.42,-5.8,24.81,1,4
16750.531,-0.234,0.319,0.813,-5.4,-3.72,21.24,1,4
16750.546,-0.226,0.333,0.848,1.92,-3.6,16.79,1,4
16750.546,-0.213,0.357,0.861,11.84,-5.74,12.21,1,4
16750.562,-0.201,0.409,0.869,20.11,-8.82,8.76,1,4
16750.578,-0.203,0.463,0.866,25.88,-12.27,6.68,1,4
16750.578,-0.189,0.508,0.851,29.08,-15.2,6.71,1,4
16750.593,-0.174,0.551,0.834,29.05,-15.14,9.49,1,4
16750.609,-0.156,0.574,0.822,25.24,-11.78,14.5,1,4
16750.609,-0.135,0.584,0.83,17.58,-5.95,20.97,1,4
16750.625,-0.115,0.577,0.859,7.6,0.24,27.53,1,4
16750.625,-0.107,0.556,0.892,-2.75,4.43,32.56,1,4
16750.64,-0.115,0.528,0.921,-12.51,5.43,34.52,1,4
16750.656,-0.125,0.458,0.962,-27.07,-0.67,29.21,1,4
16750.671,-0.128,0.426,0.957,-30.73,-6.47,22.95,1,4
16750.687,-0.115,0.398,0.95,-32.07,-11.99,15.93,1,4
16750.687,-0.094,0.381,0.944,-30.58,-14.92,9.16,1,4
16750.703,-0.078,0.375,0.927,-27.44,-15.69,2.78,1,4
16750.718,-0.066,0.376,0.915,-22.92,-14.77,-2.81,1,4
16750.718,-0.061,0.383,0.911,-16.79,-12.7,-7.35,1,4
16750.734,-0.051,0.394,0.902,-9.98,-10.53,-11.11,1,4
16750.734,-0.042,0.415,0.894,-5.07,-7.78,-14.44,1,4
16750.75,-0.044,0.433,0.892,-3.39,-5.92,-17.73,1,4
16750.765,-0.044,0.443,0.888,-4.76,-5.98,-20.75,1,4
16750.781,-0.038,0.45,0.877,-6.71,-7.23,-22.95,1,4
16750.781,-0.027,0.454,0.868,-8.15,-8.58,-24.26,1,4
16750.796,-0.013,0.456,0.85,-8.15,-8.64,-25.09,1,4
16750.796,-0.001,0.445,0.841,-6.5,-6.53,-25.27,1,4
16750.812,-0.002,0.454,0.848,-5.71,-2.72,-24.93,1,4
16750.828,-0.013,0.52,0.868,-2.96,5.31,-18.77,1,4
16750.843,-0.012,0.541,0.884,-4.58,6.1,-15.9,1,4
16750.859,-0.006,0.555,0.901,-8.91,4.85,-13.95,1,4
16750.859,-0.006,0.561,0.922,-12.91,3.08,-13.0,1,4
16750.875,-0.012,0.559,0.942,-15.35,1.25,-12.7,1,4
16750.89,-0.017,0.558,0.957,-15.99,-1.1,-12.39,1,4
16750.89,-0.024,0.567,0.972,-14.65,-4.24,-12.24,1,4
16750.906,-0.019,0.573,0.976,-12.51,-8.85,-11.96,1,4
16750.906,-0.006,0.574,0.962,-10.19,-12.88,-11.47,1,4
16750.921,0.01,0.573,0.939,-7.72,-14.59,-10.1,1,4
16750.937,0.022,0.568,0.909,-5.52,-13.82,-8.94,1,4
16750.937,0.027,0.555,0.887,-4.64,-11.41,-8.21,1,4
16750.953,0.027,0.535,0.873,-3.97,-7.57,-6.96,1,4
16750.968,0.024,0.524,0.863,-2.23,-2.66,-5.74,1,4
16750.968,0.016,0.511,0.849,0.82,2.08,-4.27,1,4
16750.984,0.003,0.508,0.839,2.17,5.55,-3.57,1,4
16751.0,-0.011,0.486,0.841,-2.32,7.17,-6.1,1,4
16751.015,-0.009,0.476,0.848,-5.31,5.4,-8.36,1,4
16751.015,-0.013,0.467,0.858,-5.49,4.15,-9.92,1,4
16751.031,-0.024,0.495,0.868,-3.14,3.72,-9.74,1,4
16751.046,-0.026,0.516,0.883,-1.8,2.23,-8.55,1,4
16751.046,-0.02,0.526,0.892,-2.78,-0.49,-6.78,1,4
16751.062,-0.004,0.53,0.89,-5.1,-2.47,-4.3,1,4
16751.078,-0.001,0.514,0.901,-8.21,-3.3,-1.86,1,4
16751.078,-0.015,0.507,0.92,-10.77,-4.03,0.0,1,4
16751.093,-0.014,0.499,0.915,-11.2,-5.55,1.31,1,4
16751.093,-0.01,0.479,0.909,-11.23,-6.62,1.04,1,4
16751.109,0.022,0.442,0.896,-8.73,-6.13,-0.64,1,4
16751.125,-0.11,0.398,0.891,-1.19,-3.88,-5.49,1,4
16751.14,-0.118,0.581,0.947,-10.74,-11.44,-7.9,1,4
16751.14,-0.045,0.542,0.91,-12.88,-19.96,-5.25,1,4
16751.156,-0.064,0.468,0.849,-6.2,-19.23,-4.0,1,4
16751.171,-0.037,0.523,0.837,-0.24,-8.82,2.56,1,4
16751.187,-0.078,0.508,0.865,0.58,-4.64,5.25,1,4
16751.187,-0.08,0.491,0.908,-5.07,-8.0,8.39,1,4
16751.203,-0.041,0.447,0.894,-8.88,-14.53,10.07,1,4
16751.203,-0.012,0.412,0.881,-9.7,-17.61,10.22,1,4
16751.218,-0.003,0.398,0.874,-7.54,-18.1,9.49,1,4
16751.234,-0.017,0.414,0.876,-5.83,-19.14,8.67,1,4
16751.234,0.09,0.455,0.847,-7.69,-21.61,9.13,1,4
16751.25,0.097,0.337,0.771,3.05,-13.64,8.21,1,4
16751.265,0.088,0.406,0.805,1.92,-5.31,5.71,1,4
16751.265,0.101,0.442,0.823,4.24,1.31,5.89,1,4
16751.281,0.058,0.419,0.779,13.73,10.19,6.87,1,4
16751.296,0.062,0.429,0.845,0.95,11.32,2.84,1,4
16751.296,0.032,0.443,0.907,-10.47,8.0,-1.5,1,4
16751.312,0.021,0.398,0.913,-9.03,3.39,-1.65,1,4
16751.328,0.046,0.407,0.905,-6.29,-1.46,-0.73,1,4
16751.343,0.073,0.415,0.878,0.06,-2.96,-3.57,1,4
16751.343,0.074,0.42,0.879,2.59,-0.89,-6.32,1,4
16751.359,0.066,0.439,0.885,4.73,1.5,-9.03,1,4
16751.375,0.06,0.456,0.899,6.74,4.06,-10.93,1,4
16751.39,0.048,0.475,0.918,7.78,6.26,-11.78,1,4
16751.39,0.025,0.495,0.944,8.09,7.05,-11.72,1,4
16751.406,0.002,0.513,0.965,7.42,5.07,-10.56,1,4
16751.406,-0.011,0.513,0.973,6.01,-0.03,-8.79,1,4
16751.421,0.002,0.5,0.956,5.92,-6.16,-6.99,1,4
16751.437,0.015,0.489,0.921,7.51,-9.98,-5.68,1,4
16751.437,0.026,0.483,0.892,9.25,-10.59,-4.64,1,4
16751.453,0.029,0.478,0.873,10.13,-9.4,-4.24,1,4
16751.453,0.026,0.48,0.864,9.52,-7.97,-4.18,1,4
16751.468,0.023,0.48,0.858,5.74,-6.59,-3.36,1,4
16751.484,0.023,0.475,0.851,4.03,-5.65,-2.72,1,4
16751.484,0.02,0.469,0.853,2.78,-4.88,-2.14,1,4
16751.515,0.036,0.455,0.855,1.31,-2.96,-0.92,1,4
16751.531,0.028,0.448,0.866,1.98,-0.73,-0.82,1,4
16751.531,0.016,0.444,0.881,2.66,0.12,-0.46,1,4
16751.546,0.01,0.447,0.898,3.78,-0.67,0.21,1,4
16751.546,0.012,0.454,0.9,4.73,-2.78,0.73,1,4
16751.562,0.011,0.449,0.892,4.46,-5.1,0.82,1,4
16751.578,0.015,0.442,0.88,3.2,-7.32,0.09,1,4
16751.578,0.018,0.435,0.863,2.44,-8.64,-0.89,1,4
16751.593,0.018,0.426,0.853,2.26,-8.91,-2.04,1,4
16751.593,0.015,0.418,0.849,2.44,-8.7,-3.33,1,4
16751.609,0.017,0.405,0.829,3.57,-8.06,-4.18,1,4
16751.625,0.027,0.395,0.802,5.8,-6.93,-4.76,1,4
16751.625,0.035,0.39,0.802,6.96,-4.49,-6.23,1,4
16751.64,0.039,0.412,0.807,5.01,-1.92,-8.33,1,4
16751.656,0.037,0.426,0.804,5.19,1.07,-9.92,1,4
16751.656,0.082,0.432,0.785,8.3,5.55,-10.74,1,4
16751.671,-0.011,0.408,0.813,14.98,13.61,-13.15,1,4
16751.687,-0.09,0.659,0.954,2.56,13.67,-11.9,1,4
16751.687,-0.041,0.717,1.027,-9.19,3.2,-1.92,1,4
16751.703,-0.029,0.642,0.977,-11.54,-3.69,9.06,1,4
16751.718,0.022,0.605,0.952,-17.7,-6.23,18.89,1,4
16751.718,0.016,0.517,0.953,-17.03,-6.96,21.52,1,4
16751.734,-0.013,0.443,0.965,-9.77,-9.8,20.14,1,4
16751.734,0.007,0.427,0.961,-0.49,-16.05,17.46,1,4
16751.75,0.024,0.433,0.923,9.43,-21.79,13.86,1,4
16751.765,0.033,0.432,0.868,17.4,-24.14,11.26,1,4
16751.765,0.058,0.53,0.85,15.63,-24.9,10.32,1,4
16751.781,0.147,0.448,0.783,14.86,-21.88,9.89,1,4
16751.796,0.075,0.437,0.776,13.37,-12.94,6.56,1,4
16751.796,0.119,0.502,0.806,3.57,-7.48,7.51,1,4
16751.812,0.121,0.454,0.817,-0.95,-2.14,6.5,1,4
16751.828,0.103,0.444,0.84,-5.31,2.38,5.4,1,4
16751.828,0.088,0.434,0.853,-2.38,6.2,5.37,1,4
16751.843,0.061,0.436,0.878,2.32,7.51,3.85,1,4
16751.859,0.047,0.458,0.899,4.97,5.04,2.08,1,4
16751.859,0.052,0.472,0.902,5.74,0.82,0.79,1,4
16751.875,0.062,0.481,0.894,4.82,-2.81,0.31,1,4
16751.875,0.072,0.49,0.882,3.42,-4.94,0.89,1,4
16751.89,0.083,0.494,0.867,1.4,-5.34,1.74,1,4
16751.906,0.087,0.487,0.859,-0.46,-4.61,2.41,1,4
16751.906,0.091,0.485,0.857,-1.77,-2.96,2.93,1,4
16751.921,0.086,0.48,0.859,-2.62,-1.28,2.56,1,4
16751.937,0.089,0.468,0.863,-2.69,-0.52,1.53,1,4
16751.937,0.085,0.463,0.871,-1.56,0.0,0.03,1,4
16751.953,0.076,0.463,0.868,0.7,0.43,-1.28,1,4
16751.968,0.074,0.467,0.862,2.32,0.37,-2.29,1,4
16751.968,0.075,0.469,0.851,3.54,0.58,-3.23,1,4
16751.984,0.071,0.47,0.839,4.49,1.77,-4.09,1,4
16751.984,0.057,0.471,0.836,4.61,3.11,-4.91,1,4
16752.0,0.052,0.462,0.835,5.07,3.85,-4.94,1,4
16752.015,0.048,0.468,0.828,6.41,5.1,-4.33,1,4
16752.015,0.052,0.475,0.816,7.9,7.14,-3.72,1,4
16752.031,0.05,0.465,0.82,7.84,9.25,-4.18,1,4
16752.046,0.031,0.457,0.827,7.39,10.77,-5.25,1,4
16752.046,0.003,0.48,0.867,5.01,10.16,-5.92,1,4
16752.062,0.013,0.532,0.907,-0.85,6.35,-5.46,1,4
16752.078,0.015,0.541,0.92,-3.72,2.96,-4.18,1,4
16752.078,0.033,0.535,0.92,-6.2,0.37,-2.56,1,4
16752.093,0.104,0.487,0.877,-4.79,1.62,-2.2,1,4
16752.109,-0.023,0.451,0.881,3.08,8.45,-6.38,1,4
16752.109,-0.013,0.602,0.96,-1.31,6.5,-6.1,1,4
16752.125,0.011,0.518,0.921,4.64,1.13,-4.15,1,4
16752.125,-0.005,0.501,0.865,10.62,0.37,-1.95,1,4
16752.14,0.027,0.528,0.855,11.2,0.15,0.79,1,4
16752.156,0.027,0.49,0.834,12.33,0.52,1.04,1,4
16752.156,0.019,0.488,0.841,11.23,0.98,1.65,1,4
16752.171,0.004,0.509,0.869,10.65,0.27,2.32,1,4
16752.187,-0.007,0.507,0.886,9.92,-3.39,4.24,1,4
16752.187,-0.002,0.532,0.893,6.56,-8.21,7.51,1,4
16752.203,-0.027,0.548,0.918,1.62,-13.92,10.93,1,4
16752.218,0.059,0.562,0.899,-5.4,-21.03,15.53,1,4
16752.218,0.079,0.436,0.809,-2.47,-20.11,15.72,1,4
16752.234,0.041,0.467,0.824,-2.56,-15.05,13.37,1,4
16752.234,0.086,0.51,0.845,-1.98,-13.4,13.0,1,4
16752.25,0.103,0.46,0.803,3.02,-10.35,10.5,1,4
16752.265,0.101,0.449,0.799,2.96,-5.92,5.55,1,4
16752.265,0.08,0.466,0.82,5.25,-1.5,1.22,1,4
16752.281,0.064,0.469,0.837,7.72,-0.31,-1.98,1,4
16752.296,0.048,0.493,0.852,9.67,-1.01,-3.51,1,4
16752.296,0.037,0.514,0.86,10.53,-3.11,-3.08,1,4
16752.312,0.042,0.533,0.864,8.27,-6.5,-1.71,1,4
16752.328,0.051,0.531,0.859,4.73,-9.67,0.18,1,4
16752.328,0.066,0.523,0.851,1.34,-11.78,1.86,1,4
16752.343,0.085,0.512,0.844,-1.07,-12.3,2.84,1,4
16752.359,0.096,0.503,0.836,-1.46,-10.96,2.75,1,4
16752.375,0.101,0.491,0.826,1.43,-4.97,0.49,1,4
16752.375,0.1,0.493,0.827,3.63,-1.4,-1.46,1,4
16752.39,0.083,0.499,0.826,5.65,2.26,-3.42,1,4
16752.406,0.061,0.508,0.837,6.5,4.06,-4.43,1,4
16752.406,0.053,0.522,0.846,5.74,3.17,-4.39,1,4
16752.421,0.053,0.534,0.847,4.3,1.28,-3.81,1,4
16752.437,0.052,0.531,0.843,2.81,-0.18,-2.5,1,4
16752.437,0.057,0.527,0.836,1.25,-0.76,-0.27,1,4
16752.453,0.066,0.524,0.836,-0.55,-0.7,1.8,1,4
16752.453,0.06,0.522,0.845,-4.18,-0.15,4.09,1,4
16752.468,0.054,0.514,0.858,-5.25,-1.28,4.97,1,4
16752.484,0.058,0.501,0.861,-5.04,-2.2,5.49,1,4
16752.484,0.074,0.491,0.846,-4.0,-1.98,5.25,1,4
16752.5,0.078,0.486,0.837,-3.51,-0.55,4.3,1,4
16752.515,0.078,0.479,0.831,-3.6,1.25,3.36,1,4
16752.515,0.073,0.474,0.834,-3.88,3.23,2.26,1,4
16752.546,0.053,0.469,0.86,-3.88,3.85,-0.64,1,4
16752.546,0.045,0.475,0.867,-3.05,2.01,-1.5,1,4
16752.562,0.052,0.483,0.864,-2.5,-0.73,-1.74,1,4
16752.578,0.067,0.485,0.848,-2.29,-2.29,-1.53,1,4
16752.578,0.071,0.484,0.842,-2.14,-1.68,-1.5,1,4
16752.593,0.068,0.491,0.84,-2.62,-0.49,-1.37,1,4
16752.593,0.066,0.499,0.843,-4.03,0.21,-1.22,1,4
16752.609,0.063,0.501,0.856,-6.13,0.24,-1.31,1,4
16752.625,0.053,0.503,0.868,-7.35,-0.12,-1.31,1,4
16752.625,0.052,0.499,0.877,-7.14,-1.22,-1.31,1,4
16752.64,0.054,0.499,0.885,-5.95,-2.38,-1.19,1,4
16752.656,0.049,0.51,0.891,-3.69,-3.11,-1.31,1,4
16752.656,0.051,0.509,0.887,-2.2,-4.43,-1.31,1,4
16752.671,0.048,0.51,0.888,-2.14,-5.86,-1.37,1,4
16752.687,0.049,0.511,0.888,-1.68,-7.45,-1.34,1,4
16752.687,0.056,0.515,0.89,-1.22,-8.61,-1.34,1,4
16752.718,0.062,0.509,0.885,-0.52,-9.37,-1.22,1,4
16752.718,0.067,0.504,0.886,0.85,-9.09,-0.79,1,4
16752.734,0.072,0.496,0.879,2.08,-8.97,-0.76,1,4
16752.734,0.085,0.495,0.874,2.81,-8.82,-1.01,1,4
16752.75,0.092,0.5,0.881,4.03,-7.63,-1.4,1,4
16752.765,0.08,0.505,0.893,5.98,-5.98,-1.74,1,4
16752.765,0.073,0.523,0.923,7.57,-5.43,-1.53,1,4
16752.781,0.076,0.547,0.959,8.55,-6.29,-0.64,1,4
16752.796,0.079,0.565,0.991,8.15,-8.18,0.67,1,4
16752.812,0.091,0.573,1.013,6.44,-10.74,2.5,1,4
16752.812,0.104,0.588,1.054,4.76,-13.21,4.82,1,4
16752.812,0.115,0.6,1.109,4.91,-14.53,6.9,1,4
16752.828,0.108,0.621,1.169,6.68,-16.11,8.58,1,4
16752.843,0.116,0.637,1.219,9.37,-19.47,9.64,1,4
16752.859,0.135,0.66,1.267,12.45,-23.56,9.13,1,4
16752.859,0.141,0.671,1.3,17.06,-27.92,7.14,1,4
16752.875,0.141,0.689,1.323,22.16,-33.23,5.04,1,4
16752.875,0.139,0.696,1.328,27.28,-39.89,3.42,1,4
16752.89,0.147,0.694,1.31,31.25,-47.43,2.59,1,4
16752.906,0.169,0.705,1.295,33.42,-54.11,2.81,1,4
16752.921,0.192,0.728,1.289,34.61,-57.83,2.96,1,4
16752.921,0.201,0.75,1.293,34.76,-59.57,3.33,1,4
16752.937,0.198,0.765,1.309,35.1,-61.62,4.91,1,4
16752.937,0.208,0.78,1.318,36.44,-65.65,7.54,1,4
16752.953,0.235,0.781,1.305,38.12,-71.9,10.13,1,4
16752.968,0.268,0.781,1.278,39.74,-78.59,12.88,1,4
16752.968,0.304,0.754,1.249,41.14,-85.21,16.75,1,4
16752.984,0.344,0.727,1.201,40.86,-91.98,22.25,1,4
16753.0,0.395,0.723,1.162,37.6,-98.27,27.65,1,4
16753.0,0.432,0.703,1.145,34.52,-103.79,32.11,1,4
16753.015,0.452,0.681,1.134,32.11,-109.62,36.07,1,4
16753.015,0.491,0.666,1.135,30.12,-116.31,39.98,1,4
16753.031,0.537,0.666,1.142,29.6,-121.56,42.91,1,4
16753.046,0.561,0.693,1.144,27.99,-129.15,43.82,1,4
16753.062,0.541,0.688,1.148,27.41,-133.79,42.7,1,4
16753.078,0.51,0.69,1.138,29.36,-139.9,40.99,1,4
16753.078,0.474,0.709,1.115,33.54,-146.98,38.54,1,4
16753.093,0.413,0.722,1.076,39.89,-154.79,35.71,1,4
16753.109,0.357,0.729,1.023,47.58,-164.49,33.75,1,4
16753.109,0.318,0.732,0.95,53.77,-174.96,32.62,1,4
16753.125,0.28,0.724,0.856,58.72,-184.76,31.19,1,4
16753.14,0.269,0.728,0.774,63.14,-191.17,30.4,1,4
16753.14,0.24,0.725,0.697,68.09,-192.63,29.51,1,4
16753.156,0.197,0.694,0.619,74.92,-190.83,29.91,1,4
16753.171,0.166,0.664,0.54,82.92,-186.9,32.5,1,4
16753.171,0.144,0.636,0.465,90.82,-181.71,35.52,1,4
16753.187,0.13,0.616,0.396,97.51,-175.48,36.84,1,4
16753.187,0.109,0.596,0.327,103.92,-168.0,35.55,1,4
16753.203,0.112,0.544,0.262,112.0,-159.95,33.75,1,4
16753.218,0.068,0.491,0.139,132.11,-143.38,28.32,1,4
16753.234,0.112,0.477,0.085,142.92,-133.73,31.71,1,4
16753.234,0.181,0.528,0.003,150.64,-125.22,33.63,1,4
16753.25,0.229,0.553,-0.057,147.31,-111.45,36.19,1,4
16753.265,0.229,0.547,-0.075,131.57,-95.68,41.26,1,4
16753.265,0.25,0.506,-0.072,111.03,-83.44,53.62,1,4
16753.281,0.293,0.538,-0.05,92.04,-74.4,67.66,1,4
16753.296,0.336,0.54,-0.063,74.68,-67.23,80.26,1,4
16753.312,0.354,0.517,-0.067,52.22,-62.01,91.77,1,4
16753.312,0.384,0.474,-0.042,27.83,-58.9,103.43,1,4
16753.328,0.439,0.438,-0.003,7.69,-58.6,114.84,1,4
16753.328,0.504,0.409,0.026,-6.38,-58.84,122.59,1,4
16753.343,0.566,0.383,0.046,-15.35,-57.65,126.19,1,4
16753.343,0.615,0.353,0.066,-19.87,-55.21,126.74,1,4
16753.359,0.655,0.309,0.072,-20.42,-52.86,126.04,1,4
16753.375,0.705,0.285,0.078,-18.77,-50.78,123.39,1,4
16753.375,0.742,0.269,0.082,-15.38,-49.75,117.37,1,4
16753.39,0.774,0.248,0.085,-9.92,-50.97,108.13,1,4
16753.406,0.815,0.242,0.092,-2.08,-53.56,96.68,1,4
16753.421,0.844,0.251,0.098,8.27,-56.18,84.05,1,4
16753.421,0.863,0.277,0.104,19.14,-58.05,71.6,1,4
16753.437,0.872,0.298,0.113,29.3,-60.18,61.13,1,4
16753.437,0.869,0.315,0.119,43.12,-68.42,48.59,1,4
16753.453,0.868,0.347,0.123,46.6,-75.2,43.4,1,4
16753.468,0.849,0.36,0.108,48.04,-84.51,39.61,1,4
16753.468,0.803,0.357,0.086,48.07,-96.5,35.74,1,4
16753.484,0.707,0.352,-0.012,47.76,-109.71,30.67,1,4
16753.5,0.695,0.359,-0.081,47.33,-120.43,24.23,1,4
16753.5,0.693,0.37,-0.141,50.26,-125.49,15.99,1,4
16753.515,0.688,0.377,-0.201,57.83,-125.77,5.55,1,4
16753.515,0.702,0.388,-0.261,68.97,-123.42,-5.19,1,4
16753.531,0.73,0.397,-0.317,81.91,-117.4,-14.4,1,4
16753.546,0.77,0.411,-0.367,95.61,-106.69,-22.0,1,4
16753.546,0.812,0.408,-0.42,108.71,-92.17,-25.24,1,4
16753.562,0.854,0.411,-0.467,119.75,-72.24,-24.08,1,4
16753.578,0.91,0.412,-0.496,126.68,-48.86,-18.13,1,4
16753.578,0.967,0.418,-0.511,127.05,-25.24,-8.27,1,4
16753.593,1.024,0.442,-0.513,119.17,-2.96,3.14,1,4
16753.609,1.067,0.455,-0.495,103.0,16.63,15.32,1,4
16753.609,1.081,0.455,-0.454,80.39,32.2,28.11,1,4
16753.625,1.088,0.443,-0.404,53.53,40.07,41.66,1,4
16753.64,1.114,0.419,-0.36,26.7,40.83,56.76,1,4
16753.64,1.138,0.385,-0.331,3.85,38.42,73.7,1,4
16753.656,1.157,0.321,-0.302,-13.79,34.03,91.22,1,4
16753.656,1.19,0.238,-0.277,-25.42,27.86,106.45,1,4
16753.671,1.211,0.164,-0.257,-31.34,21.88,117.56,1,4
16753.687,1.208,0.106,-0.243,-33.85,14.98,123.87,1,4
16753.687,1.202,0.059,-0.255,-32.93,4.82,125.86,1,4
16753.703,1.197,0.014,-0.286,-30.67,-6.74,125.95,1,4
16753.718,1.205,-0.026,-0.376,-29.76,-24.75,124.45,1,4
16753.734,1.186,-0.034,-0.417,-30.55,-27.83,122.71,1,4
16753.75,1.172,-0.037,-0.429,-33.33,-29.3,120.24,1,4
16753.75,1.178,-0.031,-0.431,-35.46,-30.73,114.6,1,4
16753.765,1.155,-0.029,-0.433,-36.1,-30.24,106.14,1,4
16753.765,1.159,-0.023,-0.425,-35.55,-28.05,97.72,1,4
16753.781,1.153,0.001,-0.419,-32.65,-26.95,88.9,1,4
16753.796,1.141,0.003,-0.414,-29.15,-23.04,82.46,1,4
16753.796,1.107,0.02,-0.408,-28.2,-19.2,78.62,1,4
16753.812,1.084,0.023,-0.402,-30.64,-17.7,76.82,1,4
16753.828,1.047,0.014,-0.391,-35.95,-17.82,76.05,1,4
16753.828,0.989,0.007,-0.395,-41.99,-18.95,75.47,1,4
16753.843,0.967,0.004,-0.397,-48.52,-24.2,74.25,1,4
16753.859,0.976,0.001,-0.398,-54.93,-31.46,73.18,1,4
16753.859,0.96,0.002,-0.397,-59.72,-35.74,72.73,1,4
16753.875,0.951,0.002,-0.392,-65.03,-37.63,73.09,1,4
16753.875,0.951,-0.019,-0.392,-72.7,-37.54,74.25,1,4
16753.89,0.926,-0.024,-0.382,-82.13,-36.1,74.83,1,4
16753.906,0.902,-0.042,-0.363,-91.22,-35.13,74.92,1,4
16753.921,0.866,-0.064,-0.355,-97.38,-36.04,73.4,1,4
16753.921,0.843,-0.075,-0.361,-102.39,-38.15,71.29,1,4
16753.937,0.837,-0.077,-0.354,-106.72,-38.97,67.45,1,4
16753.937,0.843,-0.08,-0.341,-108.55,-37.05,61.4,1,4
16753.953,0.839,-0.073,-0.323,-107.09,-33.17,52.89,1,4
16753.968,0.809,-0.064,-0.306,-102.36,-28.11,41.9,1,4
16753.968,0.77,-0.058,-0.292,-93.48,-24.26,29.6,1,4
16753.984,0.743,-0.045,-0.3,-80.87,-23.68,17.76,1,4
16753.984,0.742,-0.014,-0.343,-64.64,-23.26,7.51,1,4
16754.0,0.753,0.042,-0.396,-48.89,-20.91,-1.74,1,4
16754.015,0.797,0.102,-0.409,-37.9,-14.31,-8.36,1,4
16754.031,0.823,0.161,-0.386,-33.6,-4.39,-11.51,1,4
16754.031,0.818,0.204,-0.337,-39.0,6.62,-12.24,1,4
16754.046,0.827,0.231,-0.287,-48.77,11.9,-9.61,1,4
16754.046,0.835,0.234,-0.215,-57.31,13.55,-2.35,1,4
16754.062,0.816,0.224,-0.146,-63.97,12.24,7.6,1,4
16754.078,0.798,0.217,-0.119,-68.48,7.14,18.43,1,4
16754.078,0.828,0.204,-0.098,-74.34,0.27,29.94,1,4
16754.093,0.845,0.184,-0.098,-80.29,-7.69,39.52,1,4
16754.109,0.862,0.167,-0.113,-82.34,-14.65,47.88,1,4
16754.109,0.877,0.152,-0.1,-82.61,-18.89,57.31,1,4
16754.125,0.864,0.134,-0.086,-83.96,-23.44,65.43,1,4
16754.125,0.859,0.098,-0.107,-85.97,-30.12,71.84,1,4
16754.14,0.874,0.052,-0.145,-85.39,-36.53,76.97,1,4
16754.156,0.897,0.026,-0.181,-82.37,-41.02,80.36,1,4
16754.171,0.902,0.017,-0.219,-80.32,-44.13,80.63,1,4
16754.171,0.904,-0.015,-0.279,-79.9,-47.64,79.32,1,4
16754.187,0.923,-0.038,-0.323,-78.43,-48.07,77.61,1,4
16754.187,0.934,-0.031,-0.331,-77.73,-45.2,74.74,1,4
16754.203,0.934,-0.029,-0.295,-79.65,-42.3,70.93,1,4
16754.218,0.868,-0.102,-0.237,-79.93,-42.24,58.87,1,4
16754.234,0.864,-0.093,-0.246,-70.5,-45.44,51.39,1,4
16754.234,0.841,-0.096,-0.308,-57.19,-49.1,43.46,1,4
16754.25,0.814,-0.107,-0.378,-45.72,-53.04,34.76,1,4
16754.265,0.801,-0.096,-0.458,-34.79,-54.9,24.87,1,4
16754.281,0.794,-0.094,-0.537,-27.31,-53.83,15.32,1,4
16754.281,0.821,-0.092,-0.594,-23.56,-49.23,8.73,1,4
16754.296,0.815,-0.078,-0.624,-23.32,-40.96,3.66,1,4
16754.296,0.816,-0.091,-0.614,-24.57,-31.31,1.13,1,4
16754.312,0.792,-0.092,-0.568,-27.19,-23.8,1.5,1,4
16754.328,0.756,-0.094,-0.514,-28.96,-19.96,2.08,1,4
16754.328,0.735,-0.123,-0.494,-26.49,-20.26,3.6,1,4
16754.343,0.73,-0.126,-0.516,-21.97,-24.17,7.26,1,4
16754.359,0.745,-0.115,-0.517,-19.35,-27.25,11.9,1,4
16754.359,0.747,-0.119,-0.532,-21.39,-29.97,17.15,1,4
16754.375,0.777,-0.119,-0.562,-29.88,-32.38,23.35,1,4
16754.375,0.771,-0.106,-0.547,-40.04,-31.71,28.14,1,4
16754.39,0.74,-0.119,-0.527,-47.94,-28.23,31.13,1,4
16754.406,0.712,-0.116,-0.504,-52.71,-25.36,30.92,1,4
16754.421,0.699,-0.112,-0.473,-53.47,-24.29,27.71,1,4
16754.421,0.693,-0.128,-0.434,-50.42,-24.11,22.49,1,4
16754.437,0.654,-0.113,-0.4,-35.92,-28.11,11.02,1,4
16754.437,0.643,-0.104,-0.391,-32.44,-34.03,6.38,1,4
16754.453,0.653,-0.07,-0.418,-31.62,-39.8,2.26,1,4
16754.468,0.708,-0.014,-0.397,-28.23,-43.06,-1.56,1,4
16754.468,0.719,-0.006,-0.408,-20.36,-46.05,-3.33,1,4
16754.484,0.699,0.026,-0.415,-13.4,-49.04,-3.69,1,4
16754.484,0.679,0.038,-0.442,-4.0,-52.83,-3.97,1,4
16754.5,0.687,0.065,-0.504,5.04,-56.31,-3.14,1,4
16754.515,0.674,0.079,-0.563,11.17,-57.5,-0.79,1,4
16754.515,0.683,0.079,-0.625,15.93,-55.91,4.09,1,4
16754.531,0.699,0.087,-0.673,18.07,-50.6,11.51,1,4
16754.546,0.667,0.083,-0.691,16.63,-42.91,20.48,1,4
16754.546,0.625,0.056,-0.678,13.21,-35.25,31.19,1,4
16754.562,0.593,0.04,-0.695,10.53,-28.81,41.44,1,4
16754.578,0.594,0.038,-0.711,6.65,-23.1,50.11,1,4
16754.578,0.618,0.039,-0.681,4.24,-16.82,56.86,1,4
16754.593,0.625,0.074,-0.633,5.62,-10.9,61.16,1,4
16754.609,0.594,0.081,-0.585,9.61,-5.95,64.27,1,4
16754.609,0.54,0.073,-0.529,17.43,-2.99,69.09,1,4
16754.625,0.482,0.103,-0.5,25.61,-2.84,76.94,1,4
16754.64,0.43,0.089,-0.508,30.4,-4.64,87.68,1,4
16754.64,0.435,0.052,-0.526,29.91,-7.02,104.28,1,4
16754.656,0.457,0.005,-0.582,24.45,-8.33,125.06,1,4
16754.656,0.468,-0.059,-0.631,12.12,-6.78,147.43,1,4
16754.671,0.48,-0.152,-0.63,-3.36,-3.14,168.83,1,4
16754.687,0.476,-0.265,-0.607,-18.83,-0.18,186.9,1,4
16754.687,0.47,-0.39,-0.579,-31.19,1.13,199.99,1,4
16754.703,0.495,-0.531,-0.566,-38.88,0.21,206.34,1,4
16754.718,0.562,-0.644,-0.569,-41.78,-3.02,203.5,1,4
16754.718,0.63,-0.749,-0.585,-41.2,-6.01,190.8,1,4
16754.734,0.702,-0.844,-0.605,-36.9,-7.63,169.96,1,4
16754.734,0.75,-0.889,-0.621,-29.18,-7.26,143.65,1,4
16754.75,0.785,-0.904,-0.628,-21.27,-6.5,114.2,1,4
16754.765,0.803,-0.893,-0.614,-14.92,-6.9,84.6,1,4
16754.765,0.799,-0.866,-0.6,-9.37,-9.92,57.1,1,4
16754.781,0.787,-0.836,-0.611,-1.98,-14.83,33.05,1,4
16754.796,0.792,-0.8,-0.651,5.37,-20.54,14.44,1,4
16754.796,0.812,-0.759,-0.714,9.61,-26.15,1.59,1,4
16754.812,0.822,-0.723,-0.782,8.91,-29.69,-6.62,1,4
16754.812,0.823,-0.705,-0.84,5.68,-31.1,-10.74,1,4
16754.828,0.832,-0.692,-0.898,1.43,-31.34,-11.81,1,4
16754.843,0.828,-0.678,-0.932,-2.32,-29.88,-12.94,1,4
16754.859,0.814,-0.658,-0.957,-2.23,-28.05,-15.08,1,4
16754.859,0.833,-0.642,-0.981,0.61,-26.49,-16.79,1,4
16754.875,0.844,-0.629,-0.979,0.73,-23.71,-16.66,1,4
16754.875,0.821,-0.632,-0.978,-0.73,-20.75,-14.22,1,4
16754.89,0.791,-0.626,-0.949,-4.06,-18.98,-9.98,1,4
16754.906,0.747,-0.625,-0.913,-8.73,-19.53,-6.59,1,4
16754.921,0.696,-0.606,-0.907,-12.51,-22.83,-4.64,1,4
16754.921,0.665,-0.57,-0.923,-14.89,-27.47,-3.85,1,4
16754.937,0.669,-0.548,-0.959,-15.5,-29.6,-3.91,1,4
16754.937,0.669,-0.515,-0.995,-15.53,-27.71,-5.37,1,4
16754.953,0.649,-0.496,-1.009,-13.92,-23.01,-9.0,1,4
16754.968,0.627,-0.48,-0.99,-11.47,-16.82,-13.12,1,4
16754.968,0.603,-0.451,-0.941,-8.79,-10.62,-17.12,1,4
16754.984,0.595,-0.423,-0.875,-5.89,-6.07,-19.38,1,4
16754.984,0.603,-0.393,-0.791,-4.64,-3.36,-18.83,1,4
16755.0,0.586,-0.372,-0.701,-4.64,-2.17,-15.99,1,4
16755.015,0.554,-0.35,-0.639,-5.58,-4.27,-11.41,1,4
16755.015,0.537,-0.342,-0.596,-7.97,-8.61,-6.99,1,4
16755.031,0.522,-0.338,-0.568,-11.2,-12.15,-3.05,1,4
16755.046,0.498,-0.329,-0.553,-13.89,-12.88,-0.18,1,4
16755.046,0.492,-0.318,-0.544,-15.41,-11.54,2.75,1,4
16755.062,0.476,-0.307,-0.54,-17.76,-9.0,6.44,1,4
16755.078,0.454,-0.306,-0.52,-21.79,-6.04,10.62,1,4
16755.078,0.436,-0.304,-0.499,-25.85,-3.88,13.95,1,4
16755.093,0.412,-0.307,-0.469,-30.24,-1.98,16.42,1,4
16755.109,0.387,-0.316,-0.454,-33.6,-0.21,18.07,1,4
16755.109,0.387,-0.312,-0.448,-35.25,1.1,18.4,1,4
16755.125,0.405,-0.308,-0.431,-36.35,2.35,17.37,1,4
16755.125,0.43,-0.313,-0.408,-36.38,3.69,15.75,1,4
16755.14,0.42,-0.308,-0.385,-36.38,4.7,13.21,1,4
16755.156,0.394,-0.312,-0.357,-34.97,4.03,9.22,1,4
16755.171,0.383,-0.314,-0.335,-30.21,1.31,4.55,1,4
16755.171,0.366,-0.281,-0.349,-25.73,-3.36,0.76,1,4
16755.187,0.357,-0.256,-0.383,-25.61,-8.61,-1.01,1,4
16755.187,0.364,-0.243,-0.448,-29.08,-12.3,-1.34,1,4
16755.203,0.386,-0.232,-0.537,-33.97,-12.88,-1.98,1,4
16755.218,0.432,-0.227,-0.629,-37.87,-10.28,-3.75,1,4
16755.218,0.48,-0.213,-0.695,-40.44,-4.43,-6.38,1,4
16755.234,0.499,-0.194,-0.734,-40.8,3.33,-10.99,1,4
16755.234,0.488,-0.183,-0.787,-39.77,10.8,-16.6,1,4
16755.25,0.456,-0.145,-0.848,-39.31,16.45,-22.06,1,4
16755.265,0.416,-0.088,-0.905,-37.35,18.16,-25.94,1,4
16755.265,0.423,-0.048,-1.001,-33.27,16.36,-24.96,1,4
16755.281,0.467,0.003,-1.123,-30.0,14.74,-19.01,1,4
16755.296,0.531,0.037,-1.215,-28.2,17.18,-8.76,1,4
16755.312,0.549,0.053,-1.279,-29.36,24.9,4.15,1,4
16755.312,0.543,0.046,-1.306,-36.32,36.26,18.68,1,4
16755.328,0.558,0.02,-1.271,-48.68,49.5,35.4,1,4
16755.328,0.583,-0.002,-1.16,-63.66,63.11,53.8,1,4
16755.343,0.592,-0.016,-0.968,-79.41,73.82,70.8,1,4
16755.359,0.577,-0.047,-0.7,-93.75,79.81,85.63,1,4
16755.359,0.564,-0.13,-0.45,-99.64,77.18,98.45,1,4
16755.375,0.565,-0.212,-0.284,-96.74,65.13,109.56,1,4
16755.39,0.564,-0.277,-0.183,-89.66,46.88,115.21,1,4
16755.39,0.588,-0.379,-0.139,-75.56,25.03,112.83,1,4
16755.406,0.654,-0.484,-0.17,-54.57,4.39,104.86,1,4
16755.406,0.692,-0.52,-0.239,-15.75,-21.0,69.95,1,4
16755.421,0.707,-0.548,-0.329,-0.85,-29.11,47.61,1,4
16755.437,0.742,-0.59,-0.419,12.24,-33.69,27.5,1,4
16755.437,0.753,-0.611,-0.584,20.51,-35.86,10.04,1,4
16755.453,0.729,-0.625,-0.64,25.15,-36.56,-5.55,1,4
16755.468,0.684,-0.614,-0.709,29.02,-37.63,-18.83,1,4
16755.468,0.653,-0.575,-0.79,30.3,-40.04,-30.09,1,4
16755.484,0.65,-0.522,-0.876,30.98,-41.87,-40.1,1,4
16755.484,0.655,-0.464,-0.984,30.82,-40.65,-48.22,1,4
16755.5,0.677,-0.409,-1.053,27.92,-34.21,-54.45,1,4
16755.515,0.689,-0.348,-1.078,24.75,-20.75,-58.96,1,4
16755.515,0.671,-0.284,-1.044,21.49,-3.88,-59.66,1,4
16755.531,0.67,-0.253,-0.949,15.44,10.99,-54.17,1,4
16755.546,0.665,-0.216,-0.81,4.3,21.0,-44.16,1,4
16755.546,0.645,-0.187,-0.663,-7.02,23.71,-31.89,1,4
16755.562,0.618,-0.168,-0.567,-16.72,18.46,-18.95,1,4
16755.578,0.608,-0.16,-0.515,-24.75,7.08,-6.47,1,4
16755.578,0.649,-0.167,-0.517,-29.42,-5.28,4.27,1,4
16755.593,0.698,-0.179,-0.549,-30.09,-14.1,11.6,1,4
16755.593,0.715,-0.203,-0.597,-27.22,-18.01,14.53,1,4
16755.609,0.719,-0.242,-0.641,-22.71,-18.98,14.22,1,4
16755.625,0.712,-0.264,-0.667,-17.06,-18.4,11.6,1,4
16755.64,0.696,-0.282,-0.685,-12.54,-17.67,7.9,1,4
16755.64,0.676,-0.295,-0.702,-11.87,-17.67,4.49,1,4
16755.656,0.667,-0.308,-0.718,-12.24,-18.56,2.38,1,4
16755.656,0.666,-0.312,-0.739,-12.79,-19.2,1.31,1,4
16755.671,0.657,-0.3,-0.756,-13.64,-19.53,0.55,1,4
16755.687,0.632,-0.292,-0.77,-14.07,-20.05,0.7,1,4
16755.687,0.615,-0.277,-0.787,-15.26,-21.0,3.23,1,4
16755.703,0.611,-0.266,-0.803,-17.58,-21.49,6.81,1,4
16755.703,0.604,-0.267,-0.821,-19.62,-21.12,9.92,1,4
16755.718,0.609,-0.271,-0.846,-21.12,-19.56,11.47,1,4
16755.734,0.62,-0.274,-0.851,-21.64,-16.57,10.56,1,4
16755.734,0.618,-0.273,-0.842,-21.27,-12.76,7.51,1,4
16755.75,0.606,-0.267,-0.826,-20.33,-9.8,3.33,1,4
16755.765,0.587,-0.258,-0.816,-18.46,-8.27,-1.4,1,4
16755.781,0.56,-0.244,-0.808,-16.48,-8.55,-5.58,1,4
16755.781,0.526,-0.218,-0.798,-14.62,-9.83,-8.88,1,4
16755.796,0.502,-0.188,-0.801,-13.34,-11.32,-9.95,1,4
16755.796,0.494,-0.158,-0.807,-13.0,-12.21,-7.84,1,4
16755.812,0.498,-0.136,-0.824,-14.25,-12.33,-2.53,1,4
16755.828,0.503,-0.121,-0.842,-18.46,-11.41,3.94,1,4
16755.828,0.51,-0.124,-0.852,-23.71,-9.92,9.77,1,4
16755.843,0.516,-0.136,-0.851,-27.38,-8.33,14.59,1,4
16755.859,0.522,-0.144,-0.853,-29.05,-7.05,18.04,1,4
16755.859,0.521,-0.159,-0.852,-28.5,-5.43,20.08,1,4
16755.875,0.511,-0.181,-0.843,-26.52,-4.15,21.58,1,4
16755.875,0.496,-0.2,-0.843,-25.27,-4.24,22.28,1,4
16755.89,0.494,-0.221,-0.856,-25.06,-4.85,22.0,1,4
16755.906,0.489,-0.236,-0.866,-24.66,-4.64,21.27,1,4
16755.906,0.498,-0.252,-0.877,-24.29,-3.36,20.6,1,4
16755.921,0.5,-0.264,-0.895,-24.38,-0.61,19.96,1,4
16755.937,0.509,-0.268,-0.914,-25.33,3.14,18.59,1,4
16755.937,0.522,-0.262,-0.931,-26.92,7.75,17.3,1,4
16755.953,0.518,-0.253,-0.957,-29.76,13.43,16.51,1,4
16755.968,0.53,-0.245,-0.977,-34.7,19.75,16.45,1,4
16755.968,0.534,-0.25,-0.981,-39.8,27.71,17.37,1,4
16755.984,0.502,-0.221,-0.975,-43.89,35.98,19.44,1,4
16755.984,0.465,-0.176,-0.924,-48.59,39.49,23.47,1,4
16756.0,0.432,-0.167,-0.826,-56.7,37.14,28.87,1,4
16756.015,0.434,-0.168,-0.734,-65.71,28.63,35.43,1,4
16756.015,0.471,-0.177,-0.704,-67.96,18.22,42.09,1,4
16756.031,0.497,-0.192,-0.722,-62.62,10.93,46.94,1,4
16756.046,0.525,-0.197,-0.76,-56.79,6.74,49.56,1,4
16756.062,0.542,-0.202,-0.796,-52.67,6.29,49.17,1,4
16756.062,0.544,-0.218,-0.818,-50.54,8.24,47.52,1,4
16756.078,0.528,-0.228,-0.824,-50.75,10.93,45.35,1,4
16756.078,0.527,-0.23,-0.819,-51.36,12.57,42.73,1,4
16756.093,0.522,-0.239,-0.816,-50.66,13.4,39.49,1,4
16756.109,0.513,-0.239,-0.809,-49.13,13.76,36.35,1,4
16756.109,0.517,-0.238,-0.793,-47.67,13.37,33.33,1,4
16756.125,0.517,-0.246,-0.782,-44.34,13.03,30.64,1,4
16756.14,0.536,-0.249,-0.782,-40.44,12.7,27.28,1,4
16756.14,0.562,-0.248,-0.781,-36.62,12.67,21.49,1,4
16756.156,0.585,-0.236,-0.776,-31.65,13.49,12.51,1,4
16756.156,0.599,-0.207,-0.763,-24.57,14.86,1.22,1,4
16756.171,0.616,-0.175,-0.743,-16.14,16.39,-9.98,1,4
16756.187,0.631,-0.137,-0.726,-8.58,17.85,-19.68,1,4
16756.187,0.639,-0.101,-0.716,-1.25,18.4,-27.41,1,4
16756.203,0.625,-0.069,-0.718,4.27,18.52,-32.41,1,4
16756.218,0.586,-0.037,-0.735,5.62,17.27,-34.27,1,4
16756.218,0.553,-0.022,-0.787,1.98,15.32,-30.49,1,4
16756.234,0.554,0.001,-0.814,-6.71,13.37,-20.91,1,4
16756.234,0.559,0.039,-0.817,-17.03,11.6,-10.41,1,4
16756.25,0.555,0.044,-0.826,-27.25,10.53,-0.46,1,4
16756.265,0.565,0.036,-0.822,-36.71,9.92,9.52,1,4
16756.281,0.593,0.018,-0.815,-42.21,10.8,18.04,1,4
16756.281,0.621,-0.011,-0.817,-43.21,14.04,24.63,1,4
16756.296,0.633,-0.024,-0.802,-41.96,17.76,29.11,1,4
16756.296,0.637,-0.042,-0.785,-40.93,20.63,31.59,1,4
16756.312,0.623,-0.06,-0.774,-41.23,21.39,32.62,1,4
16756.328,0.62,-0.075,-0.765,-42.09,19.78,33.54,1,4
16756.328,0.618,-0.083,-0.761,-43.95,17.0,34.24,1,4
16756.343,0.622,-0.099,-0.765,-45.63,14.28,34.61,1,4
16756.359,0.627,-0.111,-0.768,-46.11,12.6,35.31,1,4
16756.359,0.637,-0.118,-0.777,-45.26,12.24,34.85,1,4
16756.375,0.638,-0.124,-0.782,-44.37,12.85,32.78,1,4
16756.375,0.627,-0.13,-0.786,-43.15,14.44,29.02,1,4
16756.39,0.62,-0.132,-0.788,-37.05,18.71,17.0,1,4
16756.406,0.604,-0.122,-0.788,-33.33,20.39,9.46,1,4
16756.406,0.591,-0.101,-0.795,-30.03,21.79,2.78,1,4
16756.421,0.593,-0.075,-0.808,-28.26,23.41,-1.34,1,4
16756.437,0.633,0.006,-0.84,-28.81,25.91,-3.23,1,4
16756.437,0.644,0.03,-0.835,-30.52,29.18,-2.66,1,4
16756.453,0.644,0.042,-0.806,-34.36,31.74,0.61,1,4
16756.453,0.639,0.074,-0.784,-39.22,32.96,4.09,1,4
16756.468,0.643,0.082,-0.762,-44.13,33.14,7.08,1,4
16756.484,0.636,0.081,-0.738,-47.43,33.14,11.17,1,4
16756.484,0.622,0.089,-0.719,-49.2,32.07,16.27,1,4
16756.5,0.625,0.079,-0.705,-50.9,29.63,23.01,1,4
16756.515,0.613,0.066,-0.702,-52.95,27.28,30.37,1,4
16756.531,0.619,0.044,-0.704,-54.69,24.66,36.77,1,4
16756.531,0.645,0.019,-0.705,-55.27,22.74,41.14,1,4
16756.546,0.68,-0.004,-0.728,-54.54,23.19,43.0,1,4
16756.546,0.666,-0.051,-0.721,-54.2,25.15,40.99,1,4
16756.562,0.665,-0.063,-0.705,-48.31,24.93,38.21,1,4
16756.578,0.664,-0.057,-0.695,-41.08,24.84,35.43,1,4
16756.578,0.669,-0.065,-0.7,-38.91,23.41,31.98,1,4
16756.593,0.674,-0.07,-0.698,-38.79,22.19,30.03,1,4
16756.609,0.668,-0.071,-0.718,-38.3,21.64,29.33,1,4
16756.609,0.678,-0.073,-0.733,-40.07,21.52,29.54,1,4
16756.625,0.679,-0.086,-0.732,-41.2,23.22,29.6,1,4
16756.625,0.673,-0.107,-0.728,-39.83,25.94,29.3,1,4
16756.64,0.668,-0.125,-0.715,-36.29,29.08,28.35,1,4
16756.656,0.659,-0.154,-0.687,-30.58,31.37,26.03,1,4
16756.656,0.654,-0.176,-0.672,-24.38,31.22,22.89,1,4
16756.671,0.679,-0.176,-0.685,-20.29,29.66,19.75,1,4
16756.687,0.711,-0.148,-0.725,-21.24,29.91,17.27,1,4
16756.687,0.728,-0.11,-0.756,-28.57,33.2,15.69,1,4
16756.703,0.73,-0.096,-0.738,-38.82,37.39,15.26,1,4
16756.718,0.715,-0.079,-0.697,-46.6,41.02,16.97,1,4
16756.718,0.711,-0.056,-0.662,-51.24,42.51,20.57,1,4
16756.734,0.709,-0.038,-0.631,-54.45,42.73,24.41,1,4
16756.734,0.707,-0.028,-0.605,-56.64,41.66,28.47,1,4
16756.75,0.705,-0.03,-0.594,-58.26,39.49,32.35,1,4
16756.765,0.712,-0.029,-0.589,-59.36,36.9,36.13,1,4
16756.765,0.71,-0.016,-0.595,-61.1,35.19,39.61,1,4
16756.781,0.715,-0.011,-0.616,-65.49,34.03,43.15,1,4
16756.796,0.725,-0.012,-0.636,-71.32,35.1,46.88,1,4
16756.812,0.729,-0.023,-0.645,-76.42,38.36,50.51,1,4
16756.812,0.742,-0.035,-0.642,-81.36,42.88,54.57,1,4
16756.828,0.747,-0.046,-0.605,-85.76,47.79,57.53,1,4
16756.828,0.756,-0.067,-0.567,-87.68,51.03,58.23,1,4
16756.843,0.754,-0.083,-0.528,-87.01,52.58,56.03,1,4
16756.859,0.745,-0.101,-0.48,-82.67,52.1,50.72,1,4
16756.859,0.74,-0.11,-0.453,-75.75,50.33,43.92,1,4
16756.875,0.764,-0.109,-0.433,-67.29,47.36,35.34,1,4
16756.89,0.798,-0.094,-0.425,-58.26,45.01,24.54,1,4
16756.89,0.851,-0.091,-0.432,-47.67,43.34,12.02,1,4
16756.906,0.877,-0.079,-0.412,-35.43,44.04,-2.01,1,4
16756.906,0.888,-0.05,-0.396,-21.09,45.08,-16.39,1,4
16756.921,0.883,-0.004,-0.405,-11.08,45.14,-28.14,1,4
16756.937,0.887,0.033,-0.407,-7.05,44.1,-36.93,1,4
16756.937,0.87,0.083,-0.402,-8.06,43.73,-40.83,1,4
16756.953,0.831,0.12,-0.395,-13.52,43.18,-39.55,1,4
16756.968,0.788,0.151,-0.41,-20.66,41.08,-34.88,1,4
16756.968,0.765,0.171,-0.432,-29.24,36.84,-27.47,1,4
16756.984,0.776,0.179,-0.461,-37.08,33.39,-18.86,1,4
16756.984,0.791,0.18,-0.469,-42.09,33.02,-9.8,1,4
16757.0,0.816,0.173,-0.465,-42.97,35.0,-1.71,1,4
16757.015,0.834,0.177,-0.459,-41.66,39.37,4.85,1,4
16757.015,0.842,0.191,-0.441,-41.81,44.28,10.38,1,4
16757.031,0.824,0.188,-0.419,-45.14,48.34,15.87,1,4
16757.046,0.798,0.166,-0.408,-50.72,48.4,22.31,1,4
16757.062,0.8,0.127,-0.398,-56.76,46.33,30.0,1,4
16757.062,0.818,0.106,-0.393,-61.68,45.63,37.26,1,4
16757.078,0.831,0.093,-0.403,-65.4,46.39,40.8,1,4
16757.078,0.85,0.065,-0.406,-66.81,48.19,40.68,1,4
16757.093,0.877,0.049,-0.385,-65.86,51.64,38.7,1,4
16757.109,0.896,0.055,-0.363,-64.3,56.06,35.4,1,4
16757.109,0.898,0.063,-0.349,-62.26,60.37,31.43,1,4
16757.125,0.888,0.079,-0.338,-60.12,63.14,27.44,1,4
16757.14,0.872,0.1,-0.331,-58.17,64.21,22.58,1,4
16757.14,0.858,0.121,-0.318,-56.31,65.0,16.66,1,4
16757.156,0.846,0.136,-0.303,-55.73,65.74,12.54,1,4
16757.156,0.851,0.158,-0.29,-56.89,65.92,11.32,1,4
16757.171,0.861,0.167,-0.27,-58.17,65.8,12.51,1,4
16757.187,0.855,0.171,-0.243,-60.24,65.83,15.23,1,4
16757.187,0.844,0.162,-0.213,-63.42,64.36,16.88,1,4
16757.203,0.845,0.136,-0.2,-63.91,61.65,16.66,1,4
16757.218,0.84,0.124,-0.195,-59.42,60.15,14.74,1,4
16757.218,0.84,0.142,-0.204,-51.15,60.34,12.42,1,4
16757.234,0.833,0.17,-0.229,-44.98,62.14,11.54,1,4
16757.234,0.824,0.183,-0.243,-43.37,63.88,12.39,1,4
16757.25,0.822,0.193,-0.238,-44.95,66.41,14.95,1,4
16757.265,0.794,0.207,-0.227,-49.07,69.34,16.91,1,4
16757.265,0.787,0.207,-0.209,-54.17,69.34,18.1,1,4
16757.281,0.785,0.214,-0.188,-56.64,70.07,20.36,1,4
16757.296,0.784,0.229,-0.169,-56.79,71.17,22.98,1,4
16757.296,0.775,0.228,-0.144,-56.22,73.52,26.89,1,4
16757.312,0.731,0.202,-0.112,-52.8,76.75,30.82,1,4
16757.328,0.751,0.158,-0.095,-45.41,76.14,35.22,1,4
16757.328,0.802,0.138,-0.101,-37.93,75.56,40.47,1,4
16757.343,0.828,0.148,-0.121,-35.13,77.76,44.65,1,4
16757.359,0.838,0.149,-0.112,-39.89,81.36,46.42,1,4
16757.359,0.871,0.133,-0.058,-47.73,84.69,48.52,1,4
16757.375,0.869,0.123,0.014,-54.45,89.21,52.67,1,4
16757.375,0.859,0.091,0.098,-55.15,85.54,59.48,1,4
16757.39,0.855,0.043,0.154,-49.5,79.81,57.01,1,4
16757.406,0.833,0.024,0.151,-40.19,73.98,49.23,1,4
16757.421,0.837,0.015,0.102,-28.5,70.89,41.54,1,4
16757.421,0.841,0.055,0.07,-20.54,72.94,38.76,1,4
16757.437,0.828,0.078,0.065,-18.95,76.88,40.44,1,4
16757.437,0.803,0.073,0.087,-23.56,80.29,45.08,1,4
16757.453,0.749,0.069,0.099,-30.55,82.16,50.14,1,4
16757.468,0.723,0.031,0.099,-34.97,80.6,54.63,1,4
16757.468,0.719,0.01,0.091,-34.67,78.49,59.33,1,4
16757.484,0.704,-0.014,0.042,-34.73,78.86,66.19,1,4
16757.5,0.765,-0.012,0.072,-38.61,80.32,71.69,1,4
16757.5,0.768,-0.046,0.095,-39.28,86.95,75.14,1,4
16757.515,0.774,-0.093,0.143,-40.74,92.65,78.34,1,4
16757.515,0.782,-0.151,0.213,-39.46,97.69,78.68,1,4
16757.531,0.767,-0.201,0.264,-34.27,101.2,75.93,1,4
16757.546,0.741,-0.217,0.313,-28.05,101.14,69.31,1,4
16757.546,0.776,-0.228,0.36,-21.45,97.81,61.8,1,4
16757.562,0.807,-0.225,0.383,-17.94,95.19,58.2,1,4
16757.578,0.796,-0.218,0.381,-19.56,93.51,57.25,1,4
16757.578,0.753,-0.24,0.381,-21.94,92.78,54.26,1,4
16757.593,0.716,-0.277,0.381,-17.91,92.26,47.46,1,4
16757.609,0.73,-0.273,0.377,-8.39,93.51,40.22,1,4
16757.609,0.774,-0.237,0.369,-0.27,97.02,36.41,1,4
16757.625,0.831,-0.216,0.382,-0.4,101.26,38.51,1,4
16757.625,0.817,-0.192,0.438,-7.78,107.55,42.7,1,4
16757.64,0.755,-0.199,0.516,-15.41,110.6,44.62,1,4
16757.656,0.668,-0.202,0.627,-16.75,107.97,44.83,1,4
16757.656,0.618,-0.2,0.734,-8.3,99.58,44.83,1,4
16757.671,0.651,-0.188,0.8,3.72,85.48,47.64,1,4
16757.687,0.71,-0.182,0.816,13.15,68.73,54.26,1,4
16757.687,0.782,-0.214,0.763,16.91,53.9,62.59,1,4
16757.703,0.871,-0.268,0.691,13.03,43.89,69.95,1,4
16757.718,0.943,-0.341,0.632,8.36,42.21,72.79,1,4
16757.718,0.92,-0.395,0.578,7.93,48.37,68.58,1,4
16757.734,0.852,-0.405,0.541,9.64,57.83,58.96,1,4
16757.75,0.764,-0.391,0.555,12.33,66.13,44.43,1,4
16757.75,0.732,-0.402,0.565,18.28,70.93,31.71,1,4
16757.765,0.735,-0.385,0.575,20.66,74.68,28.9,1,4
16757.781,0.709,-0.333,0.594,18.04,79.53,33.42,1,4
16757.781,0.692,-0.334,0.614,12.09,81.82,39.22,1,4
16757.796,0.695,-0.349,0.647,4.73,82.64,43.82,1,4
16757.796,0.695,-0.343,0.682,2.04,84.72,44.34,1,4
16757.812,0.676,-0.342,0.681,2.5,86.25,42.27,1,4
16757.828,0.712,-0.344,0.68,1.4,85.85,40.83,1,4
16757.828,0.756,-0.34,0.685,1.1,87.16,41.05,1,4
16757.843,0.748,-0.337,0.699,0.15,92.26,42.21,1,4
16757.859,0.72,-0.357,0.739,-3.27,97.51,43.61,1,4
16757.859,0.667,-0.397,0.789,-7.48,99.8,45.69,1,4
16757.875,0.637,-0.423,0.857,-8.85,98.33,45.53,1,4
16757.875,0.641,-0.448,0.888,-4.24,93.17,42.6,1,4
16757.89,0.634,-0.446,0.871,0.0,87.56,41.32,1,4
16757.906,0.603,-0.404,0.861,0.18,82.52,40.31,1,4
16757.921,0.579,-0.381,0.84,0.09,78.22,37.29,1,4
16757.921,0.557,-0.381,0.807,1.77,76.85,35.16,1,4
16757.937,0.571,-0.37,0.784,4.58,77.76,34.94,1,4
16757.937,0.563,-0.358,0.774,6.13,81.21,35.22,1,4
16757.953,0.544,-0.345,0.776,4.33,84.11,36.53,1,4
16757.968,0.531,-0.304,0.801,-0.73,84.66,40.19,1,4
16757.968,0.488,-0.277,0.817,-6.16,83.86,46.27,1,4
16757.984,0.439,-0.304,0.838,-10.25,83.35,55.48,1,4
16757.984,0.411,-0.339,0.853,-11.47,82.8,63.97,1,4
16758.0,0.415,-0.402,0.846,-10.07,82.09,68.85,1,4
16758.015,0.451,-0.475,0.847,-7.69,83.1,70.41,1,4
16758.015,0.483,-0.518,0.888,-3.2,85.88,67.93,1,4
16758.031,0.506,-0.534,0.944,2.23,86.83,61.25,1,4
16758.046,0.511,-0.541,0.985,5.8,83.96,53.22,1,4
16758.062,0.512,-0.538,0.996,6.68,78.52,46.48,1,4
16758.062,0.474,-0.53,0.973,7.02,72.88,41.72,1,4
16758.078,0.396,-0.539,0.943,8.15,69.31,37.78,1,4
16758.078,0.366,-0.533,0.928,11.35,67.11,32.32,1,4
16758.093,0.338,-0.502,0.914,17.88,68.18,25.54,1,4
16758.109,0.317,-0.477,0.913,22.61,71.63,22.46,1,4
16758.109,0.313,-0.445,0.93,21.67,75.59,22.8,1,4
16758.125,0.314,-0.425,0.954,19.75,77.7,22.31,1,4
16758.14,0.307,-0.42,0.977,18.37,77.88,22.19,1,4
16758.14,0.279,-0.401,0.996,17.43,76.02,24.05,1,4
16758.156,0.222,-0.387,0.999,18.4,71.78,27.5,1,4
16758.156,0.169,-0.398,0.969,19.14,64.58,32.75,1,4
16758.171,0.154,-0.416,0.897,19.29,57.16,38.82,1,4
16758.187,0.15,-0.447,0.805,21.61,56.12,45.35,1,4
16758.187,0.182,-0.432,0.784,16.33,61.25,50.72,1,4
16758.203,0.197,-0.421,0.827,7.75,70.19,52.03,1,4
16758.218,0.172,-0.43,0.894,2.9,79.78,52.19,1,4
16758.218,0.131,-0.418,1.009,2.08,84.14,52.64,1,4
16758.234,0.092,-0.41,1.085,4.91,80.6,53.41,1,4
16758.234,0.072,-0.415,1.09,7.26,71.08,55.24,1,4
16758.25,0.085,-0.424,1.044,8.94,61.1,57.01,1,4
16758.265,0.087,-0.427,0.996,11.32,55.48,56.55,1,4
16758.265,0.077,-0.417,0.941,15.56,55.88,53.53,1,4
16758.281,0.097,-0.395,0.906,18.04,61.04,51.58,1,4
16758.296,0.107,-0.378,0.907,16.21,68.48,51.73,1,4
16758.312,0.091,-0.374,0.94,12.67,75.41,53.44,1,4
16758.312,0.076,-0.397,0.981,8.51,78.89,57.8,1,4
16758.328,0.073,-0.412,1.032,3.63,79.81,63.11,1,4
16758.328,0.055,-0.453,1.076,0.95,78.22,65.65,1,4
16758.343,0.014,-0.474,1.118,2.32,75.23,65.86,1,4
16758.359,-0.014,-0.491,1.14,7.63,69.92,63.42,1,4
16758.359,-0.005,-0.503,1.133,19.84,60.34,51.94,1,4
16758.375,-0.0,-0.491,1.101,25.61,58.35,46.85,1,4
16758.375,0.017,-0.481,1.065,26.09,58.53,45.63,1,4
16758.39,0.053,-0.469,1.067,24.23,60.67,46.21,1,4
16758.406,0.055,-0.469,1.105,21.09,62.23,47.73,1,4
16758.406,0.027,-0.47,1.138,17.55,61.01,48.4,1,4
16758.421,0.016,-0.474,1.17,16.3,56.52,47.73,1,4
16758.437,0.015,-0.478,1.17,18.49,50.97,45.47,1,4
16758.437,0.01,-0.487,1.143,21.3,45.56,43.64,1,4
16758.453,0.004,-0.479,1.1,23.1,41.26,42.57,1,4
16758.468,-0.016,-0.479,1.038,22.77,38.51,41.26,1,4
16758.468,-0.021,-0.479,0.974,18.65,37.72,38.79,1,4
16758.484,-0.021,-0.456,0.955,15.5,40.5,34.97,1,4
16758.484,-0.026,-0.413,0.962,15.72,45.69,30.85,1,4
16758.5,-0.045,-0.37,0.975,14.53,50.42,30.49,1,4
16758.515,-0.094,-0.325,1.022,11.26,53.71,32.87,1,4
16758.515,-0.144,-0.314,1.054,8.51,53.83,37.42,1,4
16758.531,-0.18,-0.304,1.066,4.76,51.18,44.34,1,4
16758.546,-0.198,-0.309,1.063,1.13,46.82,51.18,1,4
16758.546,-0.206,-0.32,1.05,-1.46,41.99,55.85,1,4
16758.562,-0.206,-0.337,1.03,-1.13,38.76,56.92,1,4
16758.578,-0.198,-0.363,1.0,1.34,37.51,56.18,1,4
16758.578,-0.188,-0.36,0.981,2.5,37.87,55.33,1,4
16758.593,-0.178,-0.364,0.967,3.11,38.88,53.13,1,4
16758.609,-0.185,-0.374,0.945,2.17,40.93,51.67,1,4
16758.609,-0.202,-0.366,0.931,0.31,43.24,51.45,1,4
16758.625,-0.223,-0.347,0.935,-0.61,44.04,50.66,1,4
16758.625,-0.252,-0.324,0.945,0.34,43.49,48.43,1,4
16758.64,-0.267,-0.3,0.959,2.26,41.93,45.93,1,4
16758.656,-0.274,-0.271,0.969,5.92,40.65,43.67,1,4
16758.656,-0.281,-0.23,0.975,10.07,39.61,42.88,1,4
16758.671,-0.303,-0.192,0.962,11.11,37.84,44.4,1,4
16758.687,-0.33,-0.173,0.945,8.85,36.1,49.59,1,4
16758.687,-0.345,-0.168,0.937,4.67,35.43,57.77,1,4
16758.703,-0.362,-0.174,0.923,-0.89,35.86,68.73,1,4
16758.718,-0.387,-0.182,0.915,-6.74,37.05,81.39,1,4
16758.718,-0.404,-0.213,0.917,-11.2,37.45,93.51,1,4
16758.734,-0.397,-0.274,0.937,-13.76,36.47,102.88,1,4
16758.75,-0.402,-0.321,0.98,-13.43,34.67,107.64,1,4
16758.75,-0.399,-0.374,0.998,-9.22,31.34,106.97,1,4
16758.765,-0.37,-0.398,0.995,-2.01,27.99,101.75,1,4
16758.765,-0.373,-0.399,0.998,5.89,25.03,93.6,1,4
16758.781,-0.388,-0.389,0.996,11.66,20.72,84.93,1,4
16758.796,-0.391,-0.379,0.963,16.14,16.72,78.25,1,4
16758.796,-0.405,-0.347,0.964,17.73,14.68,74.83,1,4
16758.812,-0.428,-0.32,0.969,18.4,12.6,73.52,1,4
16758.828,-0.438,-0.298,0.954,17.73,9.86,72.82,1,4
16758.828,-0.415,-0.282,0.946,16.91,7.42,71.17,1,4
16758.843,-0.395,-0.265,0.93,18.34,6.23,66.26,1,4
16758.859,-0.383,-0.253,0.922,20.39,7.63,60.58,1,4
16758.859,-0.381,-0.226,0.932,22.22,10.32,55.42,1,4
16758.875,-0.393,-0.194,0.945,24.32,12.3,50.97,1,4
16758.875,-0.402,-0.165,0.938,25.45,12.88,47.88,1,4
16758.89,-0.403,-0.15,0.944,25.42,13.49,46.24,1,4
16758.906,-0.42,-0.141,0.953,24.41,15.47,46.14,1,4
16758.906,-0.466,-0.135,0.944,21.76,16.94,47.4,1,4
16758.921,-0.497,-0.121,0.955,17.82,16.05,50.29,1,4
16758.937,-0.51,-0.12,0.934,15.17,13.95,54.9,1,4
16758.937,-0.492,-0.105,0.892,12.33,12.54,61.74,1,4
16758.953,-0.459,-0.099,0.878,8.24,14.19,68.51,1,4
16758.953,-0.457,-0.119,0.881,4.15,18.8,74.89,1,4
16758.968,-0.492,-0.129,0.892,-0.37,23.1,79.78,1,4
16758.984,-0.529,-0.153,0.909,-3.85,24.57,82.03,1,4
16759.0,-0.559,-0.183,0.91,-6.1,23.99,83.44,1,4
16759.0,-0.576,-0.194,0.914,-8.33,22.8,85.24,1,4
16759.015,-0.575,-0.209,0.885,-10.35,21.36,87.44,1,4
16759.015,-0.551,-0.202,0.853,-14.04,20.14,89.14,1,4
16759.031,-0.521,-0.202,0.83,-17.4,20.14,88.72,1,4
16759.046,-0.498,-0.2,0.846,-18.34,21.64,86.73,1,4
16759.046,-0.504,-0.206,0.904,-16.57,24.54,83.96,1,4
16759.062,-0.559,-0.223,0.94,-13.92,25.67,80.39,1,4
16759.078,-0.597,-0.247,0.944,-11.14,23.07,75.78,1,4
16759.078,-0.594,-0.264,0.919,-7.66,17.52,69.19,1,4
16759.093,-0.556,-0.265,0.864,-4.21,12.02,61.07,1,4
16759.093,-0.514,-0.229,0.819,-1.71,9.7,54.11,1,4
16759.109,-0.496,-0.167,0.778,-0.18,10.96,50.39,1,4
16759.125,-0.47,-0.104,0.79,-1.68,14.98,51.67,1,4
16759.125,-0.474,-0.094,0.883,-4.97,22.0,56.89,1,4
16759.14,-0.572,-0.095,0.956,-9.22,26.12,61.34,1,4
16759.156,-0.634,-0.123,0.986,-9.4,22.25,62.35,1,4
16759.156,-0.641,-0.14,0.944,-6.13,13.82,61.77,1,4
16759.171,-0.608,-0.129,0.859,-6.68,6.93,61.25,1,4
16759.187,-0.547,-0.111,0.777,-12.48,4.52,61.89,1,4
16759.187,-0.505,-0.088,0.742,-19.56,7.63,63.54,1,4
16759.203,-0.494,-0.079,0.786,-24.78,15.23,66.74,1,4
16759.218,-0.54,-0.094,0.883,-27.25,22.55,69.86,1,4
16759.218,-0.608,-0.138,0.951,-24.99,24.2,69.7,1,4
16759.234,-0.629,-0.176,0.959,-19.47,19.84,65.34,1,4
16759.234,-0.621,-0.202,0.93,-13.64,12.6,56.12,1,4
16759.25,-0.599,-0.214,0.891,-7.78,5.92,43.61,1,4
16759.265,-0.558,-0.214,0.864,-1.56,2.62,30.73,1,4
16759.265,-0.556,-0.202,0.863,5.01,3.05,18.34,1,4
16759.281,-0.579,-0.182,0.868,12.85,3.63,6.99,1,4
16759.296,-0.595,-0.159,0.871,21.88,3.02,-2.29,1,4
16759.296,-0.585,-0.123,0.845,30.61,1.5,-9.03,1,4
16759.312,-0.591,-0.099,0.833,36.04,0.06,-15.47,1,4
16759.328,-0.609,-0.094,0.847,40.41,0.49,-19.35,1,4
16759.328,-0.65,-0.06,0.837,45.14,0.55,-20.69,1,4
16759.343,-0.662,-0.028,0.817,42.09,-4.27,-17.98,1,4
16759.343,-0.649,-0.024,0.803,38.91,-5.62,-16.02,1,4
16759.359,-0.632,-0.028,0.767,33.81,-4.76,-13.4,1,4
16759.375,-0.598,-0.006,0.75,27.71,-2.69,-10.83,1,4
16759.375,-0.632,0.034,0.74,19.78,-0.61,-6.07,1,4
16759.39,-0.616,0.04,0.74,11.6,1.62,0.92,1,4
16759.406,-0.589,0.034,0.742,5.43,3.88,5.77,1,4
16759.406,-0.567,0.026,0.755,2.41,6.87,8.27,1,4
16759.421,-0.558,0.03,0.771,1.71,9.89,8.15,1,4
16759.437,-0.556,0.028,0.801,2.93,12.05,5.4,1,4
16759.437,-0.572,0.054,0.834,5.49,12.45,2.32,1,4
16759.453,-0.585,0.076,0.847,6.44,10.47,0.64,1,4
16759.468,-0.577,0.09,0.847,5.1,7.02,0.49,1,4
16759.468,-0.57,0.092,0.825,3.36,3.88,1.16,1,4
16759.484,-0.558,0.088,0.793,2.23,3.05,3.23,1,4
16759.5,-0.555,0.099,0.777,1.37,4.79,5.22,1,4
16759.5,-0.556,0.105,0.772,-0.06,7.51,6.93,1,4
16759.515,-0.548,0.105,0.791,-2.14,10.38,8.94,1,4
16759.515,-0.551,0.104,0.817,-2.78,12.45,10.62,1,4
16759.531,-0.565,0.118,0.854,-2.53,12.63,11.81,1,4
16759.546,-0.584,0.118,0.89,-1.16,9.83,12.91,1,4
16759.562,-0.584,0.117,0.889,0.85,4.49,14.98,1,4
16759.562,-0.553,0.106,0.858,1.01,-1.13,16.3,1,4
16759.578,-0.532,0.08,0.818,1.59,-3.42,15.69,1,4
16759.578,-0.518,0.073,0.791,3.39,-1.89,14.83,1,4
16759.593,-0.524,0.071,0.783,3.78,1.46,13.67,1,4
16759.609,-0.546,0.071,0.794,2.44,4.46,12.82,1,4
16759.609,-0.564,0.071,0.804,0.92,6.01,12.57,1,4
16759.625,-0.56,0.072,0.816,-0.85,6.2,13.28,1,4
16759.625,-0.569,0.076,0.836,-2.35,5.71,13.4,1,4
16759.64,-0.583,0.071,0.845,-2.56,4.15,13.28,1,4
16759.656,-0.58,0.07,0.857,-2.44,2.14,13.76,1,4
16759.671,-0.586,0.058,0.852,-2.47,0.06,13.15,1,4
