timestamp,ax,ay,az,gx,gy,gz,orient_label,motion_label
16759.671,-0.582,0.044,0.836,-2.01,-1.13,12.39,1,4
16759.687,-0.577,0.055,0.825,-2.08,-1.89,10.86,1,4
16759.687,-0.591,0.071,0.824,-2.29,-2.41,9.83,1,4
16759.703,-0.591,0.087,0.814,-2.93,-3.11,10.9,1,4
16759.718,-0.578,0.096,0.804,-4.7,-2.78,13.28,1,4
16759.718,-0.58,0.082,0.8,-7.35,-1.65,14.95,1,4
16759.734,-0.583,0.057,0.807,-10.07,-0.82,15.53,1,4
16759.734,-0.589,0.028,0.812,-11.02,-0.43,14.5,1,4
16759.75,-0.602,0.015,0.814,-10.47,-1.56,11.41,1,4
16759.765,-0.61,0.004,0.828,-8.91,-2.53,7.35,1,4
16759.765,-0.61,0.017,0.826,-6.53,-5.83,2.53,1,4
16759.781,-0.605,0.03,0.806,-3.39,-8.88,-1.59,1,4
16759.796,-0.588,0.053,0.782,-1.56,-10.65,-4.03,1,4
16759.796,-0.584,0.064,0.763,-0.82,-9.8,-4.58,1,4
16759.812,-0.58,0.075,0.754,-1.04,-7.69,-4.06,1,4
16759.828,-0.587,0.083,0.752,-1.62,-3.94,-2.44,1,4
16759.828,-0.6,0.094,0.767,-3.39,-1.25,-0.85,1,4
16759.843,-0.591,0.096,0.788,-5.22,0.03,0.67,1,4
16759.843,-0.585,0.095,0.815,-5.86,0.21,1.28,1,4
16759.859,-0.589,0.089,0.825,-5.43,-0.7,1.53,1,4
16759.875,-0.594,0.087,0.825,-6.04,-2.41,1.37,1,4
16759.875,-0.587,0.064,0.817,-7.2,-4.82,0.85,1,4
16759.89,-0.571,0.056,0.805,-7.08,-6.23,0.18,1,4
16759.906,-0.561,0.061,0.789,-6.23,-5.62,-0.34,1,4
16759.906,-0.554,0.07,0.789,-5.92,-4.39,-0.55,1,4
16759.921,-0.557,0.076,0.797,-5.13,-2.84,-1.07,1,4
16759.937,-0.565,0.084,0.81,-4.21,-1.83,-1.28,1,4
16759.937,-0.572,0.084,0.811,-3.51,-1.74,-1.28,1,4
16759.953,-0.565,0.076,0.809,-3.08,-1.68,-1.01,1,4
16759.968,-0.557,0.076,0.806,-2.29,-0.85,-0.67,1,4
16759.968,-0.558,0.08,0.812,-0.98,0.4,-0.58,1,4
16759.984,-0.564,0.093,0.825,-0.06,1.01,0.12,1,4
16759.984,-0.584,0.104,0.837,0.0,0.18,0.76,1,4
16760.0,-0.592,0.098,0.837,-1.34,-2.11,1.98,1,4
16760.015,-0.578,0.084,0.819,-2.99,-4.39,3.39,1,4
16760.015,-0.568,0.067,0.798,-2.72,-5.19,3.69,1,4
16760.031,-0.573,0.063,0.782,-1.43,-4.52,3.3,1,4
16760.046,-0.569,0.064,0.776,-1.22,-3.42,2.93,1,4
16760.046,-0.575,0.057,0.777,-1.07,-1.8,1.59,1,4
16760.062,-0.596,0.05,0.777,-0.4,-0.4,0.37,1,4
16760.078,-0.599,0.048,0.782,0.31,0.4,0.0,1,4
16760.078,-0.603,0.058,0.793,0.7,0.55,0.12,1,4
16760.093,-0.6,0.059,0.789,0.61,-0.31,-0.24,1,4
16760.093,-0.588,0.052,0.78,0.03,-0.76,-0.43,1,4
16760.109,-0.584,0.049,0.773,-0.64,-0.06,-0.55,1,4
16760.125,-0.586,0.047,0.781,-1.43,1.37,-0.79,1,4
16760.125,-0.584,0.042,0.792,-2.44,2.38,-0.37,1,4
16760.14,-0.573,0.04,0.796,-3.72,3.17,0.09,1,4
16760.156,-0.567,0.033,0.803,-4.64,4.09,-0.09,1,4
16760.171,-0.571,0.034,0.812,-5.25,5.22,-0.67,1,4
16760.171,-0.568,0.037,0.823,-5.71,5.77,-1.25,1,4
16760.187,-0.56,0.042,0.84,-6.04,5.58,-1.28,1,4
16760.187,-0.554,0.041,0.856,-6.41,4.91,-0.82,1,4
16760.203,-0.555,0.037,0.87,-6.56,3.57,-0.37,1,4
16760.218,-0.548,0.035,0.873,-6.32,1.1,0.09,1,4
16760.218,-0.535,0.023,0.863,-5.65,-1.65,0.55,1,4
16760.234,-0.509,0.016,0.852,-5.34,-3.94,0.85,1,4
16760.234,-0.488,0.003,0.84,-4.06,-4.39,1.1,1,4
16760.25,-0.469,-0.002,0.843,-2.75,-4.06,1.59,1,4
16760.265,-0.456,-0.009,0.858,-3.66,-3.54,1.86,1,4
16760.265,-0.445,-0.02,0.88,-5.8,-2.96,2.84,1,4
16760.281,-0.419,-0.02,0.909,-8.67,-2.41,3.75,1,4
16760.296,-0.396,-0.025,0.944,-11.66,-3.23,3.45,1,4
16760.312,-0.37,-0.028,0.99,-13.43,-5.43,1.83,1,4
16760.312,-0.337,-0.024,1.029,-11.81,-9.31,-1.83,1,4
16760.328,-0.302,-0.011,1.053,-7.02,-14.1,-7.17,1,4
16760.328,-0.267,0.023,1.075,5.95,-25.15,-20.63,1,4
16760.343,-0.245,0.061,1.097,12.33,-31.34,-26.92,1,4
16760.359,-0.245,0.11,1.111,19.26,-37.9,-31.59,1,4
16760.359,-0.259,0.241,1.104,25.45,-44.28,-33.45,1,4
16760.375,-0.273,0.314,1.087,29.6,-50.05,-32.2,1,4
16760.375,-0.29,0.376,1.065,30.92,-54.99,-26.8,1,4
16760.39,-0.306,0.427,1.052,29.57,-58.99,-16.79,1,4
16760.406,-0.312,0.455,1.035,26.43,-61.77,-3.17,1,4
16760.406,-0.309,0.495,1.01,21.88,-63.66,11.81,1,4
16760.421,-0.291,0.528,0.989,16.48,-64.06,27.47,1,4
16760.437,-0.279,0.543,0.972,10.83,-63.42,42.12,1,4
16760.437,-0.269,0.545,0.967,5.65,-61.92,55.33,1,4
16760.453,-0.27,0.547,0.99,3.39,-59.79,66.77,1,4
16760.468,-0.301,0.543,1.012,4.52,-58.44,77.15,1,4
16760.468,-0.325,0.532,1.024,6.23,-59.88,87.1,1,4
16760.484,-0.332,0.511,1.013,9.16,-63.3,95.61,1,4
16760.484,-0.326,0.487,0.977,12.79,-66.9,102.02,1,4
16760.5,-0.313,0.467,0.93,15.26,-69.43,105.84,1,4
16760.515,-0.299,0.442,0.885,15.72,-70.68,106.85,1,4
16760.531,-0.281,0.414,0.853,14.98,-70.5,105.56,1,4
16760.531,-0.284,0.4,0.845,14.74,-67.96,102.21,1,4
16760.546,-0.3,0.381,0.837,16.88,-64.76,98.7,1,4
16760.562,-0.323,0.383,0.862,19.78,-62.17,96.22,1,4
16760.562,-0.364,0.395,0.9,23.9,-61.25,94.76,1,4
16760.578,-0.394,0.401,0.921,26.52,-64.58,95.25,1,4
16760.578,-0.394,0.41,0.928,25.94,-71.2,97.69,1,4
16760.593,-0.389,0.41,0.922,23.38,-78.37,100.38,1,4
16760.609,-0.384,0.391,0.906,20.81,-85.51,102.05,1,4
16760.609,-0.367,0.36,0.873,19.1,-91.04,102.63,1,4
16760.625,-0.339,0.331,0.838,19.07,-92.62,102.02,1,4
16760.64,-0.304,0.312,0.818,20.81,-90.46,100.19,1,4
16760.64,-0.265,0.309,0.821,23.65,-84.41,97.2,1,4
16760.656,-0.245,0.301,0.846,26.31,-75.23,93.81,1,4
16760.671,-0.26,0.287,0.898,26.76,-64.64,90.88,1,4
16760.671,-0.305,0.272,0.969,27.8,-56.61,87.77,1,4
16760.687,-0.406,0.243,1.063,33.91,-62.65,78.19,1,4
16760.703,-0.41,0.219,1.061,37.26,-75.38,71.35,1,4
16760.718,-0.373,0.202,1.014,41.75,-88.26,63.54,1,4
16760.718,-0.314,0.2,0.945,47.24,-95.8,55.45,1,4
16760.734,-0.255,0.209,0.884,52.1,-95.95,48.04,1,4
16760.75,-0.228,0.224,0.84,55.48,-90.82,41.81,1,4
16760.75,-0.213,0.236,0.805,56.79,-82.71,37.6,1,4
16760.765,-0.196,0.253,0.789,55.57,-73.24,35.92,1,4
16760.765,-0.185,0.256,0.77,52.86,-63.33,35.31,1,4
16760.781,-0.176,0.242,0.751,49.41,-53.41,34.27,1,4
16760.796,-0.186,0.228,0.746,45.53,-42.76,32.62,1,4
16760.796,-0.208,0.22,0.769,41.41,-33.17,29.73,1,4
16760.812,-0.232,0.222,0.804,35.43,-26.98,25.36,1,4
16760.828,-0.245,0.213,0.837,24.23,-26.55,18.86,1,4
16760.828,-0.232,0.198,0.872,12.76,-30.0,11.08,1,4
16760.843,-0.203,0.186,0.881,7.69,-32.65,3.91,1,4
16760.859,-0.139,0.194,0.873,13.61,-28.75,-6.78,1,4
16760.875,-0.136,0.215,0.876,18.56,-22.98,-12.15,1,4
16760.875,-0.161,0.231,0.904,22.77,-18.1,-16.97,1,4
16760.89,-0.2,0.238,0.916,27.86,-16.94,-19.5,1,4
16760.906,-0.202,0.247,0.911,33.51,-19.23,-19.44,1,4
16760.921,-0.181,0.273,0.904,38.51,-21.88,-18.25,1,4
16760.921,-0.162,0.286,0.896,41.6,-23.01,-17.15,1,4
16760.937,-0.147,0.325,0.887,40.68,-23.59,-16.02,1,4
16760.937,-0.12,0.363,0.881,35.22,-23.41,-14.34,1,4
16760.953,-0.09,0.384,0.879,27.62,-21.94,-12.24,1,4
16760.968,-0.07,0.38,0.879,21.58,-19.32,-10.07,1,4
16760.968,-0.062,0.376,0.877,18.86,-15.63,-7.66,1,4
16760.984,-0.045,0.38,0.874,19.78,-11.51,-5.34,1,4
16761.0,-0.043,0.371,0.861,22.58,-6.78,-4.39,1,4
16761.0,-0.022,0.369,0.853,25.64,-1.25,-4.27,1,4
16761.015,-0.004,0.388,0.847,28.53,5.71,-6.2,1,4
16761.015,-0.019,0.385,0.838,29.79,12.94,-9.86,1,4
16761.031,-0.024,0.39,0.847,28.84,19.23,-13.37,1,4
16761.046,-0.032,0.407,0.859,28.41,22.95,-17.64,1,4
16761.062,-0.049,0.408,0.858,27.38,21.76,-23.96,1,4
16761.062,-0.056,0.4,0.873,25.06,18.16,-29.85,1,4
16761.078,-0.062,0.396,0.893,26.09,14.16,-34.73,1,4
16761.078,-0.071,0.431,0.896,29.94,10.62,-37.08,1,4
16761.093,-0.077,0.489,0.896,32.01,8.0,-36.19,1,4
16761.109,-0.078,0.539,0.913,31.62,5.65,-31.86,1,4
16761.109,-0.09,0.592,0.918,27.99,4.33,-24.45,1,4
16761.125,-0.094,0.646,0.925,18.52,1.37,-14.56,1,4
16761.125,-0.086,0.675,0.931,4.3,-3.57,-3.63,1,4
16761.14,-0.082,0.679,0.943,-11.75,-8.94,6.47,1,4
16761.156,-0.068,0.671,0.949,-25.21,-13.79,15.84,1,4
16761.156,-0.042,0.656,0.937,-32.75,-16.21,24.41,1,4
16761.171,-0.03,0.626,0.923,-35.95,-15.69,30.58,1,4
16761.187,-0.016,0.604,0.927,-36.19,-13.46,34.64,1,4
16761.187,0.005,0.564,0.925,-31.98,-10.25,36.04,1,4
16761.203,0.008,0.544,0.906,-23.99,-6.04,34.73,1,4
16761.218,0.017,0.549,0.903,-14.83,-1.37,32.78,1,4
16761.218,-0.002,0.557,0.925,-6.99,1.8,29.63,1,4
16761.234,-0.017,0.571,0.948,-3.02,0.98,26.76,1,4
16761.234,-0.024,0.578,0.945,-1.62,-3.08,25.09,1,4
16761.25,-0.001,0.561,0.919,-1.68,-7.93,24.17,1,4
16761.265,0.03,0.545,0.884,-3.33,-10.41,23.26,1,4
16761.265,0.056,0.535,0.869,-5.37,-10.04,22.68,1,4
16761.281,0.08,0.527,0.874,-6.71,-7.75,23.16,1,4
16761.296,0.091,0.532,0.882,-6.44,-4.88,25.39,1,4
16761.296,0.099,0.535,0.864,-2.66,-0.09,28.99,1,4
16761.312,0.111,0.517,0.844,0.95,9.16,30.85,1,4
16761.328,0.108,0.497,0.844,1.46,11.69,28.87,1,4
16761.328,0.106,0.484,0.837,1.77,13.28,25.85,1,4
16761.343,0.11,0.489,0.84,1.01,13.67,21.64,1,4
16761.343,0.11,0.473,0.862,0.55,12.97,17.49,1,4
16761.359,0.106,0.484,0.878,2.26,12.21,15.44,1,4
16761.375,0.095,0.493,0.889,6.01,12.12,15.81,1,4
16761.39,0.087,0.493,0.876,10.19,12.05,17.52,1,4
16761.39,0.089,0.502,0.858,12.76,11.75,19.44,1,4
16761.406,0.093,0.492,0.826,12.76,11.72,19.93,1,4
16761.406,0.101,0.476,0.789,10.99,12.57,18.98,1,4
16761.421,0.116,0.46,0.764,9.64,15.69,16.48,1,4
16761.437,0.134,0.435,0.746,12.09,22.03,12.24,1,4
16761.437,0.123,0.416,0.713,19.53,31.95,5.92,1,4
16761.453,0.105,0.41,0.678,27.1,42.76,-1.83,1,4
16761.468,0.006,0.431,0.69,27.77,51.85,-13.09,1,4
16761.468,-0.13,0.567,0.867,0.67,45.29,-23.68,1,4
16761.484,-0.111,0.51,0.969,-21.61,28.9,-25.82,1,4
16761.5,-0.193,0.648,0.997,-28.38,13.76,-22.1,1,4
16761.5,-0.085,0.631,0.981,-25.33,1.68,-7.66,1,4
16761.515,-0.057,0.568,0.935,-16.39,-2.53,2.38,1,4
16761.515,-0.022,0.542,0.92,-10.19,-1.92,9.52,1,4
16761.531,-0.015,0.489,0.906,-1.92,0.27,12.18,1,4
16761.546,-0.038,0.474,0.901,2.5,-0.09,10.83,1,4
16761.546,-0.038,0.464,0.905,4.76,-4.33,8.94,1,4
16761.562,-0.036,0.451,0.91,5.95,-11.38,6.99,1,4
16761.578,-0.027,0.471,0.902,5.58,-18.89,6.26,1,4
16761.578,-0.032,0.503,0.88,2.62,-25.67,6.9,1,4
16761.593,0.038,0.544,0.839,-5.07,-31.68,9.0,1,4
16761.593,0.088,0.446,0.775,-3.45,-29.48,11.54,1,4
16761.609,0.036,0.506,0.77,-1.1,-21.82,15.29,1,4
16761.625,0.123,0.549,0.786,-6.59,-16.57,20.08,1,4
16761.64,0.131,0.447,0.773,-13.76,-13.7,15.72,1,4
16761.64,0.109,0.435,0.786,-17.15,-7.57,12.88,1,4
16761.656,0.131,0.428,0.816,-14.59,-1.46,11.57,1,4
16761.656,0.109,0.42,0.825,-8.45,3.42,8.85,1,4
16761.671,0.102,0.42,0.83,-3.42,6.81,7.42,1,4
16761.687,0.091,0.429,0.853,-0.03,8.3,4.46,1,4
16761.687,0.074,0.438,0.87,2.93,7.66,1.62,1,4
16761.703,0.069,0.457,0.878,3.78,4.52,0.31,1,4
16761.718,0.073,0.472,0.878,2.56,1.19,0.4,1,4
16761.718,0.083,0.48,0.879,-0.31,-1.53,0.43,1,4
16761.734,0.098,0.48,0.876,-3.05,-3.08,0.58,1,4
16761.734,0.107,0.481,0.872,-4.3,-2.72,0.15,1,4
16761.75,0.111,0.473,0.869,-3.85,-1.13,-0.34,1,4
16761.765,0.112,0.473,0.87,-2.32,1.16,-1.07,1,4
16761.765,0.1,0.476,0.872,-0.27,3.6,-1.95,1,4
16761.781,0.084,0.479,0.873,1.5,4.82,-3.11,1,4
16761.796,0.073,0.478,0.876,2.93,4.85,-4.03,1,4
16761.796,0.059,0.478,0.882,4.03,3.81,-4.94,1,4
16761.812,0.047,0.479,0.882,5.49,2.04,-5.1,1,4
16761.828,0.033,0.472,0.879,7.81,0.06,-5.13,1,4
16761.828,0.033,0.457,0.869,10.96,-2.14,-5.25,1,4
16761.843,0.043,0.443,0.855,13.58,-4.0,-6.29,1,4
16761.843,0.052,0.427,0.848,16.45,-4.7,-8.7,1,4
16761.859,0.054,0.418,0.857,19.99,-4.61,-11.96,1,4
16761.875,0.04,0.423,0.884,21.91,-5.4,-15.47,1,4
16761.89,0.059,0.426,0.9,23.32,-7.66,-18.65,1,4
16761.89,0.089,0.368,0.853,30.82,-7.14,-21.97,1,4
16761.906,-0.052,0.454,0.881,34.06,-5.31,-26.64,1,4
16761.906,0.025,0.661,0.944,23.53,-11.6,-23.68,1,4
16761.921,0.013,0.669,0.898,25.09,-13.0,-16.54,1,4
16761.937,0.027,0.712,0.866,19.14,-11.51,-6.01,1,4
16761.937,0.057,0.728,0.844,8.24,-8.42,3.45,1,4
16761.953,0.002,0.664,0.845,-0.18,-5.28,8.27,1,4
16761.953,-0.023,0.598,0.871,-6.23,-8.12,12.18,1,4
16761.968,-0.017,0.573,0.876,-6.41,-14.19,14.65,1,4
16761.984,-0.009,0.541,0.861,-3.75,-21.09,16.27,1,4
16761.984,0.012,0.516,0.842,-4.97,-28.75,15.53,1,4
16762.0,0.049,0.586,0.813,-10.13,-35.07,15.47,1,4
16762.015,0.164,0.483,0.742,-9.4,-32.47,16.69,1,4
16762.015,0.112,0.437,0.741,-9.13,-23.5,13.12,1,4
16762.031,0.162,0.499,0.831,-20.02,-20.05,11.23,1,4
16762.046,0.166,0.446,0.786,-12.88,-14.07,12.27,1,4
16762.046,0.177,0.417,0.766,-4.15,-4.76,13.67,1,4
16762.062,0.181,0.453,0.794,-1.8,3.11,11.47,1,4
16762.078,0.148,0.439,0.803,3.54,8.79,7.05,1,4
16762.078,0.124,0.433,0.819,7.08,11.2,3.11,1,4
16762.093,0.086,0.463,0.852,9.86,10.77,0.09,1,4
16762.093,0.071,0.497,0.876,10.22,6.59,-1.31,1,4
16762.109,0.078,0.523,0.885,6.44,-0.09,-1.83,1,4
16762.125,0.103,0.523,0.87,2.04,-5.62,-1.56,1,4
16762.125,0.12,0.519,0.852,-0.37,-7.11,-0.79,1,4
16762.14,0.136,0.517,0.838,-0.49,-5.68,0.03,1,4
16762.156,0.143,0.516,0.827,0.4,-2.26,-0.27,1,4
16762.156,0.135,0.51,0.82,2.14,1.83,-1.62,1,4
16762.171,0.119,0.507,0.82,4.36,5.49,-3.45,1,4
16762.187,0.096,0.51,0.837,7.72,7.87,-5.04,1,4
16762.187,0.056,0.531,0.854,10.8,7.57,-5.98,1,4
16762.203,0.04,0.548,0.871,10.28,3.3,-5.52,1,4
16762.218,0.051,0.55,0.87,8.21,-2.56,-4.21,1,4
16762.218,0.07,0.542,0.849,7.81,-6.65,-2.87,1,4
16762.234,0.089,0.545,0.832,7.84,-7.78,-1.56,1,4
16762.234,0.096,0.544,0.823,7.6,-6.84,-0.79,1,4
16762.25,0.099,0.536,0.82,7.05,-5.46,-0.52,1,4
16762.265,0.097,0.541,0.821,5.89,-3.75,-0.46,1,4
16762.265,0.091,0.545,0.822,4.24,-2.29,-0.37,1,4
16762.281,0.093,0.549,0.829,2.14,-1.5,-0.12,1,4
16762.296,0.093,0.545,0.83,0.76,-0.85,0.34,1,4
16762.296,0.09,0.54,0.844,1.95,-1.01,0.31,1,4
16762.312,0.089,0.537,0.85,3.45,-1.59,0.09,1,4
16762.328,0.092,0.532,0.848,4.49,-2.2,-0.46,1,4
16762.328,0.097,0.529,0.843,5.31,-1.95,-1.43,1,4
16762.343,0.093,0.535,0.844,5.86,-2.14,-1.98,1,4
16762.359,0.097,0.541,0.84,5.52,-2.78,-1.83,1,4
16762.359,0.095,0.539,0.832,4.82,-2.96,-1.68,1,4
16762.375,0.095,0.538,0.827,4.52,-3.2,-1.16,1,4
16762.39,0.114,0.539,0.814,2.99,-2.26,-0.46,1,4
16762.406,0.111,0.537,0.817,1.95,-0.61,-0.61,1,4
16762.406,0.095,0.562,0.813,3.48,1.22,0.7,1,4
16762.421,0.099,0.549,0.801,6.23,3.66,3.48,1,4
16762.437,0.09,0.544,0.831,0.4,2.75,1.56,1,4
16762.437,0.086,0.543,0.844,-0.92,1.34,1.25,1,4
16762.453,0.086,0.531,0.84,1.07,0.76,2.5,1,4
16762.453,0.086,0.539,0.842,0.64,-0.4,3.57,1,4
16762.468,0.095,0.535,0.832,0.46,-1.37,4.67,1,4
16762.484,0.098,0.529,0.831,-1.34,-2.01,4.03,1,4
16762.484,0.099,0.521,0.831,-3.11,-2.62,3.17,1,4
16762.5,0.106,0.514,0.828,-3.51,-2.87,2.66,1,4
16762.515,0.112,0.508,0.824,-2.66,-2.41,1.95,1,4
16762.531,0.114,0.51,0.828,-0.89,-1.31,0.89,1,4
16762.531,0.108,0.516,0.827,0.79,-0.49,-0.24,1,4
16762.546,0.103,0.526,0.828,1.74,-0.18,-1.13,1,4
16762.562,0.086,0.537,0.838,0.4,-1.13,-1.13,1,4
16762.578,0.085,0.539,0.843,-0.27,-2.14,-0.34,1,4
16762.578,0.075,0.545,0.852,-1.22,-3.81,0.55,1,4
16762.593,0.07,0.552,0.862,-2.35,-7.11,1.86,1,4
16762.593,0.094,0.551,0.856,-4.82,-11.51,2.75,1,4
16762.609,0.125,0.538,0.844,-7.57,-14.19,2.44,1,4
16762.625,0.144,0.513,0.823,-6.96,-13.67,1.56,1,4
16762.625,0.16,0.502,0.806,-4.3,-10.68,0.89,1,4
16762.64,0.174,0.497,0.796,-0.21,-6.23,-0.09,1,4
16762.656,0.189,0.495,0.785,3.85,-1.77,-1.28,1,4
16762.671,0.209,0.508,0.789,6.26,1.53,-2.59,1,4
16762.671,0.221,0.53,0.794,8.18,4.64,-3.45,1,4
16762.687,0.227,0.529,0.793,8.51,7.35,-3.36,1,4
16762.687,0.237,0.542,0.808,4.64,7.63,-2.72,1,4
16762.703,0.249,0.565,0.823,0.61,6.99,-0.85,1,4
16762.718,0.259,0.551,0.817,-3.14,6.87,1.16,1,4
16762.734,0.285,0.527,0.831,-17.37,9.61,0.85,1,4
16762.734,0.282,0.507,0.836,-24.38,13.67,-2.5,1,4
16762.75,0.268,0.495,0.841,-27.16,18.46,-6.26,1,4
16762.765,0.241,0.492,0.842,-25.48,23.53,-9.52,1,4
16762.765,0.207,0.469,0.841,-21.97,28.32,-13.92,1,4
16762.781,0.163,0.454,0.839,-16.79,31.89,-18.98,1,4
16762.796,0.125,0.454,0.846,-9.31,34.82,-22.86,1,4
16762.796,0.084,0.472,0.849,0.49,37.75,-24.6,1,4
16762.812,0.041,0.505,0.838,10.71,39.49,-22.77,1,4
16762.828,0.011,0.531,0.809,17.21,40.22,-18.68,1,4
16762.828,-0.007,0.551,0.776,18.16,40.16,-14.19,1,4
16762.843,0.024,0.593,0.732,13.55,40.19,-11.23,1,4
16762.843,-0.06,0.549,0.693,4.43,45.5,-8.0,1,4
16762.859,-0.019,0.513,0.686,-7.11,53.41,-1.19,1,4
16762.875,-0.016,0.521,0.671,-14.59,65.68,-0.09,1,4
16762.875,-0.087,0.492,0.68,-21.33,79.96,-3.78,1,4
16762.906,-0.439,0.583,1.065,-52.86,72.33,-16.54,1,4
16762.921,-0.551,0.638,1.244,-65.68,36.59,-11.51,1,4
16762.921,-0.429,0.652,1.227,-64.36,-5.16,6.16,1,4
16762.937,-0.228,0.52,1.077,-51.79,-34.21,18.59,1,4
16762.937,-0.122,0.394,0.927,-31.56,-40.25,19.04,1,4
16762.953,-0.057,0.367,0.827,-12.51,-31.13,15.17,1,4
16762.968,-0.041,0.397,0.768,5.31,-15.44,9.58,1,4
16762.968,-0.062,0.434,0.762,13.61,-0.49,3.97,1,4
16762.984,-0.102,0.47,0.796,10.93,9.16,0.37,1,4
16762.984,-0.145,0.489,0.838,4.3,12.76,0.03,1,4
16763.0,-0.16,0.487,0.878,-0.73,11.29,3.08,1,4
16763.015,-0.186,0.492,0.925,-2.41,7.26,6.78,1,4
16763.015,-0.205,0.487,0.948,-2.01,-1.22,9.58,1,4
16763.031,-0.215,0.495,0.964,-1.59,-12.67,11.84,1,4
16763.046,-0.137,0.545,0.936,-4.3,-25.27,14.86,1,4
16763.046,-0.081,0.454,0.863,-0.21,-29.85,15.84,1,4
16763.078,-0.023,0.531,0.825,-2.81,-29.94,16.36,1,4
16763.078,-0.024,0.498,0.822,-6.81,-30.55,12.45,1,4
16763.093,-0.023,0.481,0.829,-6.59,-29.73,12.24,1,4
16763.093,-0.016,0.469,0.855,-4.82,-31.34,12.12,1,4
16763.109,-0.017,0.465,0.861,-3.36,-35.46,11.08,1,4
16763.125,-0.002,0.464,0.864,-2.59,-40.04,10.8,1,4
16763.125,0.016,0.462,0.869,-2.5,-44.5,9.92,1,4
16763.14,0.042,0.458,0.864,-3.42,-47.85,9.4,1,4
16763.156,0.066,0.46,0.858,-2.84,-48.89,9.43,1,4
16763.171,0.081,0.463,0.865,0.64,-47.36,10.93,1,4
16763.171,0.085,0.455,0.847,3.75,-46.45,12.02,1,4
16763.187,0.116,0.453,0.821,2.53,-46.66,11.84,1,4
16763.187,0.136,0.442,0.805,-0.31,-45.35,9.31,1,4
16763.203,0.151,0.423,0.793,-3.27,-43.0,5.65,1,4
16763.218,0.175,0.405,0.775,-5.98,-39.7,1.86,1,4
16763.218,0.202,0.391,0.756,-6.9,-34.55,-1.71,1,4
16763.234,0.253,0.356,0.712,-5.62,-17.94,-10.62,1,4
16763.25,0.264,0.343,0.673,-6.23,-6.47,-16.72,1,4
16763.265,0.252,0.331,0.684,-7.54,6.9,-22.71,1,4
16763.281,0.233,0.318,0.715,-5.19,20.08,-27.53,1,4
16763.281,0.141,0.373,0.81,-2.84,31.59,-26.67,1,4
16763.296,0.069,0.508,0.95,-7.9,22.06,-21.76,1,4
16763.296,0.114,0.54,0.997,-1.34,18.13,-18.68,1,4
16763.312,-0.005,0.553,1.134,-3.69,10.99,-16.24,1,4
16763.328,0.116,0.591,1.151,-0.06,-4.12,-8.79,1,4
16763.328,0.111,0.495,1.038,14.56,-10.22,-7.54,1,4
16763.343,0.135,0.53,0.98,18.19,-12.09,-7.66,1,4
16763.359,0.135,0.537,0.95,24.02,-11.05,-9.03,1,4
16763.359,0.1,0.534,0.93,30.67,-9.22,-10.65,1,4
16763.375,0.067,0.559,0.929,34.91,-9.28,-9.92,1,4
16763.375,0.034,0.564,0.931,37.93,-12.57,-7.63,1,4
16763.39,0.004,0.55,0.904,39.25,-18.8,-3.51,1,4
16763.406,0.0,0.618,0.893,30.03,-38.18,6.62,1,4
16763.421,0.189,0.534,0.806,17.18,-45.01,10.71,1,4
16763.437,0.138,0.42,0.872,-6.5,-45.26,1.25,1,4
16763.437,0.083,0.527,0.895,-6.93,-41.9,6.01,1,4
16763.453,0.17,0.506,0.827,9.98,-36.35,16.57,1,4
16763.468,0.183,0.478,0.805,8.0,-31.68,15.63,1,4
16763.468,0.16,0.472,0.825,5.98,-26.46,12.94,1,4
16763.484,0.182,0.476,0.823,8.27,-23.96,10.68,1,4
16763.484,0.175,0.478,0.815,8.27,-21.79,7.02,1,4
16763.5,0.167,0.492,0.81,7.42,-20.14,4.36,1,4
16763.515,0.19,0.492,0.804,6.56,-18.86,2.53,1,4
16763.531,0.189,0.498,0.796,5.74,-15.93,0.55,1,4
16763.531,0.173,0.504,0.784,5.4,-11.93,0.21,1,4
16763.546,0.177,0.51,0.781,2.75,-9.03,0.79,1,4
16763.546,0.185,0.506,0.777,-1.25,-6.26,1.07,1,4
16763.562,0.174,0.495,0.78,-3.33,-2.72,0.73,1,4
16763.578,0.152,0.488,0.803,-3.88,0.03,0.85,1,4
16763.593,0.157,0.489,0.803,-3.63,-0.12,-0.37,1,4
16763.609,0.158,0.502,0.802,-2.38,1.19,-1.13,1,4
16763.609,0.15,0.504,0.803,-1.53,3.17,-1.19,1,4
16763.625,0.139,0.507,0.812,-1.04,4.97,-0.67,1,4
16763.625,0.111,0.52,0.83,-0.95,5.98,-0.06,1,4
16763.64,0.092,0.528,0.85,-1.95,3.6,1.04,1,4
16763.656,0.098,0.529,0.854,-3.88,-0.89,2.5,1,4
16763.656,0.114,0.518,0.846,-5.31,-4.94,3.88,1,4
16763.671,0.128,0.507,0.833,-5.65,-7.14,5.04,1,4
16763.687,0.139,0.503,0.818,-5.58,-7.9,5.52,1,4
16763.687,0.154,0.495,0.802,-5.86,-7.26,5.01,1,4
16763.703,0.162,0.488,0.793,-6.04,-5.01,3.63,1,4
16763.718,0.164,0.486,0.796,-5.58,-1.62,1.89,1,4
16763.718,0.154,0.486,0.809,-4.15,2.08,0.18,1,4
16763.734,0.135,0.491,0.835,-1.92,4.39,-0.89,1,4
16763.75,0.116,0.516,0.862,2.41,1.98,0.09,1,4
16763.765,0.134,0.52,0.851,1.95,-1.01,0.43,1,4
16763.765,0.146,0.516,0.836,1.13,-1.74,0.67,1,4
16763.781,0.149,0.515,0.829,-0.15,-0.46,1.34,1,4
16763.796,0.15,0.511,0.826,-0.76,1.28,2.35,1,4
16763.796,0.148,0.502,0.826,-0.98,3.17,2.93,1,4
16763.812,0.139,0.495,0.834,-1.07,4.49,2.87,1,4
16763.828,0.137,0.496,0.841,0.18,5.04,2.62,1,4
16763.828,0.13,0.49,0.844,1.59,4.91,1.89,1,4
16763.843,0.132,0.498,0.848,1.98,3.97,1.13,1,4
16763.843,0.139,0.5,0.846,2.08,3.08,0.7,1,4
16763.859,0.136,0.5,0.848,1.22,2.69,0.06,1,4
16763.875,0.133,0.501,0.845,-0.03,2.08,-0.03,1,4
16763.875,0.137,0.502,0.844,-1.86,0.85,0.31,1,4
16763.89,0.148,0.501,0.84,-3.39,-0.03,0.95,1,4
16763.906,0.154,0.495,0.833,-3.81,0.58,1.77,1,4
16763.906,0.154,0.49,0.834,-3.94,2.08,2.5,1,4
16763.921,0.154,0.481,0.84,-3.78,3.54,2.59,1,4
16763.921,0.148,0.483,0.854,-3.2,4.58,1.83,1,4
16763.937,0.139,0.485,0.87,-2.26,4.97,0.85,1,4
16763.953,0.131,0.499,0.906,-0.82,4.67,0.21,1,4
16763.968,0.128,0.522,0.939,1.65,3.6,-0.18,1,4
16763.968,0.125,0.546,0.957,3.66,1.83,-0.09,1,4
16763.984,0.13,0.558,0.96,3.51,-1.01,0.37,1,4
16763.984,0.146,0.564,0.965,2.38,-3.85,1.01,1,4
16764.0,0.151,0.57,0.976,2.38,-5.37,2.38,1,4
16764.015,0.149,0.582,0.994,3.05,-5.98,4.49,1,4
16764.015,0.153,0.591,1.013,3.08,-7.17,6.87,1,4
16764.031,0.158,0.592,1.025,2.04,-9.19,8.58,1,4
16764.046,0.169,0.58,1.02,0.58,-11.6,9.34,1,4
16764.046,0.182,0.56,1.007,-0.24,-13.37,9.25,1,4
16764.062,0.195,0.539,0.993,0.09,-13.82,8.55,1,4
16764.078,0.205,0.521,0.977,1.22,-13.03,6.9,1,4
16764.078,0.2,0.511,0.983,3.42,-11.81,4.58,1,4
16764.093,0.189,0.512,0.999,7.39,-11.38,3.11,1,4
16764.109,0.181,0.537,1.033,11.32,-12.45,3.51,1,4
16764.109,0.193,0.57,1.072,13.55,-15.72,5.74,1,4
16764.125,0.237,0.614,1.132,12.73,-19.56,9.16,1,4
16764.125,0.296,0.654,1.209,10.28,-22.22,13.21,1,4
16764.14,0.355,0.699,1.318,8.0,-22.64,17.79,1,4
16764.156,0.387,0.72,1.434,7.57,-22.95,22.77,1,4
16764.156,0.396,0.715,1.539,8.7,-27.19,28.84,1,4
16764.171,0.409,0.707,1.625,11.05,-37.23,34.0,1,4
16764.187,0.453,0.701,1.698,15.41,-52.37,35.71,1,4
16764.203,0.507,0.709,1.75,22.77,-70.13,32.75,1,4
16764.203,0.561,0.734,1.779,33.69,-88.14,26.0,1,4
16764.218,0.603,0.765,1.779,49.01,-104.19,18.77,1,4
16764.218,0.625,0.813,1.746,65.55,-117.65,14.37,1,4
16764.234,0.625,0.867,1.683,79.53,-129.4,14.22,1,4
16764.25,0.635,0.91,1.605,86.73,-139.47,19.2,1,4
16764.25,0.652,0.958,1.532,85.45,-146.03,27.99,1,4
16764.265,0.624,0.985,1.466,66.13,-156.47,49.5,1,4
16764.265,0.599,0.968,1.398,54.9,-161.57,62.01,1,4
16764.281,0.581,0.96,1.335,45.81,-166.05,72.63,1,4
16764.296,0.56,0.949,1.281,41.84,-170.2,79.93,1,4
16764.296,0.494,0.925,1.178,43.55,-174.41,85.51,1,4
16764.312,0.451,0.907,1.094,47.4,-180.88,91.74,1,4
16764.328,0.435,0.9,0.999,47.98,-188.97,97.63,1,4
16764.328,0.439,0.894,0.921,46.11,-196.39,102.08,1,4
16764.343,0.454,0.873,0.849,44.13,-200.93,105.11,1,4
16764.343,0.446,0.85,0.768,42.24,-202.12,107.61,1,4
16764.359,0.423,0.809,0.691,42.33,-202.55,111.18,1,4
16764.375,0.405,0.77,0.618,43.86,-202.89,115.76,1,4
16764.375,0.388,0.728,0.545,44.77,-203.96,119.91,1,4
16764.39,0.385,0.683,0.472,44.83,-204.96,123.6,1,4
16764.406,0.406,0.637,0.395,43.89,-204.29,126.65,1,4
16764.406,0.434,0.613,0.335,41.78,-201.03,128.15,1,4
16764.437,0.483,0.566,0.239,36.99,-187.32,125.06,1,4
16764.437,0.5,0.542,0.2,35.46,-179.69,119.91,1,4
16764.453,0.501,0.503,0.163,36.74,-173.07,113.83,1,4
16764.468,0.476,0.429,0.12,39.83,-168.58,109.65,1,4
16764.468,0.451,0.349,0.07,44.16,-167.3,108.98,1,4
16764.484,0.456,0.3,0.013,48.31,-167.39,112.19,1,4
16764.484,0.479,0.292,-0.042,49.13,-167.33,115.79,1,4
16764.5,0.512,0.289,-0.084,44.89,-164.74,117.71,1,4
16764.515,0.543,0.296,-0.102,35.34,-158.12,117.1,1,4
16764.515,0.571,0.317,-0.102,22.64,-150.09,113.53,1,4
16764.531,0.592,0.337,-0.089,10.65,-141.94,106.57,1,4
16764.546,0.601,0.345,-0.088,4.06,-134.01,97.72,1,4
16764.546,0.604,0.34,-0.093,3.78,-126.47,89.79,1,4
16764.562,0.605,0.328,-0.091,9.22,-119.72,84.17,1,4
16764.578,0.602,0.311,-0.101,18.22,-112.86,81.27,1,4
16764.578,0.6,0.299,-0.129,25.67,-106.36,80.02,1,4
16764.593,0.607,0.282,-0.155,28.41,-101.47,79.62,1,4
16764.593,0.627,0.253,-0.181,26.52,-98.27,79.81,1,4
16764.609,0.656,0.23,-0.214,21.7,-96.01,80.9,1,4
16764.625,0.679,0.203,-0.258,16.02,-93.05,82.03,1,4
16764.625,0.702,0.175,-0.301,9.55,-88.63,83.29,1,4
16764.64,0.702,0.134,-0.332,3.48,-81.24,85.02,1,4
16764.656,0.694,0.091,-0.332,-4.12,-72.27,87.65,1,4
16764.671,0.676,0.061,-0.318,-14.86,-63.84,89.11,1,4
16764.671,0.639,0.025,-0.289,-25.88,-58.35,87.44,1,4
16764.687,0.593,-0.02,-0.266,-34.39,-56.86,83.13,1,4
16764.687,0.552,-0.06,-0.262,-37.66,-59.08,76.88,1,4
16764.703,0.524,-0.096,-0.281,-34.79,-62.81,70.5,1,4
16764.718,0.513,-0.127,-0.317,-29.21,-65.58,65.34,1,4
16764.718,0.526,-0.141,-0.365,-22.49,-66.16,61.83,1,4
16764.734,0.553,-0.132,-0.41,-16.82,-62.38,59.85,1,4
16764.75,0.579,-0.13,-0.445,-16.66,-56.98,59.27,1,4
16764.75,0.602,-0.14,-0.474,-22.16,-50.08,60.09,1,4
16764.765,0.632,-0.149,-0.498,-31.62,-42.45,62.72,1,4
16764.765,0.65,-0.162,-0.5,-45.01,-37.45,65.74,1,4
16764.781,0.662,-0.174,-0.48,-60.12,-36.16,67.78,1,4
16764.796,0.684,-0.195,-0.461,-72.57,-37.75,66.5,1,4
16764.796,0.702,-0.221,-0.431,-77.43,-39.55,61.28,1,4
16764.812,0.707,-0.221,-0.385,-75.69,-38.3,53.41,1,4
16764.828,0.724,-0.217,-0.35,-69.12,-33.2,43.98,1,4
16764.828,0.728,-0.204,-0.351,-58.6,-28.08,32.2,1,4
16764.843,0.737,-0.183,-0.365,-47.15,-23.87,20.33,1,4
16764.859,0.73,-0.153,-0.383,-36.26,-20.05,9.92,1,4
16764.859,0.763,-0.115,-0.409,-28.41,-15.17,1.4,1,4
16764.875,0.781,-0.07,-0.426,-29.02,-6.04,-5.07,1,4
16764.875,0.782,-0.024,-0.422,-36.9,2.78,-9.98,1,4
16764.89,0.805,0.001,-0.394,-46.45,7.17,-13.67,1,4
16764.906,0.799,0.01,-0.352,-53.87,11.35,-15.99,1,4
16764.906,0.827,0.02,-0.337,-57.74,14.16,-16.14,1,4
16764.937,0.86,0.047,-0.295,-59.91,21.12,-8.88,1,4
16764.937,0.808,0.046,-0.265,-62.04,23.71,-3.42,1,4
16764.953,0.762,0.042,-0.255,-64.06,20.6,2.5,1,4
16764.968,0.755,0.067,-0.232,-66.81,14.56,8.55,1,4
16764.968,0.788,0.087,-0.22,-68.94,8.82,13.37,1,4
16764.984,0.821,0.112,-0.202,-72.85,6.62,18.65,1,4
16764.984,0.827,0.094,-0.215,-77.7,4.36,24.38,1,4
16765.0,0.842,0.066,-0.262,-80.45,0.4,29.88,1,4
16765.015,0.82,0.072,-0.303,-81.61,-1.04,32.35,1,4
16765.015,0.756,0.031,-0.379,-80.78,-2.08,29.73,1,4
16765.031,0.752,0.008,-0.415,-77.06,-1.1,23.65,1,4
16765.046,0.842,0.021,-0.422,-69.8,5.68,17.55,1,4
16765.062,0.88,0.054,-0.41,-66.41,18.31,13.82,1,4
16765.062,0.947,0.099,-0.32,-68.39,31.43,11.66,1,4
16765.078,0.982,0.151,-0.164,-76.3,42.48,12.67,1,4
16765.078,0.94,0.178,0.024,-82.55,45.66,16.88,1,4
16765.109,0.882,0.216,0.244,-81.64,20.6,34.12,1,4
16765.109,0.84,0.203,0.251,-77.85,-0.92,42.97,1,4
16765.125,0.851,0.162,0.169,-71.2,-24.51,50.23,1,4
16765.125,0.892,0.12,0.052,-65.03,-44.31,56.64,1,4
16765.14,0.895,0.086,-0.079,-59.3,-55.39,62.47,1,4
16765.156,0.97,0.064,-0.142,-53.35,-58.38,66.93,1,4
16765.156,1.014,0.079,-0.174,-45.99,-56.46,68.39,1,4
16765.171,0.962,0.054,-0.17,-37.97,-52.89,68.3,1,4
16765.187,0.956,-0.005,-0.141,-27.83,-53.1,69.67,1,4
16765.187,0.915,-0.053,-0.14,-16.85,-56.55,72.33,1,4
16765.203,0.872,-0.124,-0.18,-8.91,-64.49,74.95,1,4
16765.218,0.846,-0.183,-0.238,-5.04,-74.59,75.11,1,4
16765.218,0.831,-0.239,-0.321,-3.54,-84.05,71.75,1,4
16765.234,0.858,-0.266,-0.391,-3.72,-87.8,65.07,1,4
16765.234,0.86,-0.266,-0.433,-2.23,-86.25,54.14,1,4
16765.25,0.845,-0.272,-0.469,10.74,-76.02,27.86,1,4
16765.265,0.818,-0.218,-0.5,24.87,-61.71,9.43,1,4
16765.281,0.835,-0.12,-0.428,28.26,-56.46,5.52,1,4
16765.296,0.814,-0.132,-0.364,34.97,-52.22,4.97,1,4
16765.296,0.796,-0.089,-0.317,39.98,-51.64,9.52,1,4
16765.312,0.771,-0.066,-0.283,41.11,-56.18,18.34,1,4
16765.328,0.739,-0.089,-0.319,39.58,-64.15,29.57,1,4
16765.328,0.746,-0.082,-0.397,33.08,-72.21,40.89,1,4
16765.343,0.789,-0.109,-0.504,23.22,-76.97,50.45,1,4
16765.359,0.772,-0.191,-0.59,12.76,-75.96,57.07,1,4
16765.359,0.753,-0.261,-0.657,7.05,-67.78,61.01,1,4
16765.375,0.755,-0.288,-0.712,3.85,-55.33,63.81,1,4
16765.375,0.75,-0.339,-0.698,-0.52,-42.24,64.7,1,4
16765.39,0.748,-0.382,-0.642,-2.81,-32.17,62.93,1,4
16765.406,0.765,-0.372,-0.602,-2.78,-27.07,59.33,1,4
16765.406,0.803,-0.362,-0.568,-3.45,-25.09,54.6,1,4
16765.421,0.831,-0.353,-0.551,-5.01,-25.09,48.71,1,4
16765.437,0.85,-0.339,-0.537,-7.05,-24.75,41.51,1,4
16765.437,0.872,-0.325,-0.488,-8.79,-23.41,33.81,1,4
16765.453,0.901,-0.325,-0.486,-7.14,-22.52,29.33,1,4
16765.468,0.899,-0.304,-0.506,-8.51,-21.49,25.36,1,4
16765.468,0.896,-0.319,-0.519,-11.29,-20.78,21.12,1,4
16765.484,0.881,-0.329,-0.551,-12.76,-20.48,16.27,1,4
16765.5,0.875,-0.331,-0.575,-14.4,-18.86,10.44,1,4
16765.5,0.864,-0.348,-0.581,-15.05,-15.72,3.75,1,4
16765.515,0.875,-0.358,-0.588,-13.4,-11.75,-3.57,1,4
16765.515,0.884,-0.344,-0.585,-12.36,-7.72,-10.65,1,4
16765.531,0.884,-0.327,-0.553,-13.4,-5.8,-16.3,1,4
16765.546,0.87,-0.312,-0.517,-13.52,-5.86,-19.99,1,4
16765.546,0.852,-0.283,-0.511,-12.24,-8.18,-22.74,1,4
16765.562,0.843,-0.264,-0.523,-12.57,-10.99,-24.38,1,4
16765.578,0.844,-0.252,-0.547,-14.71,-12.94,-24.87,1,4
16765.578,0.853,-0.231,-0.57,-16.97,-12.18,-23.62,1,4
16765.593,0.871,-0.204,-0.595,-28.05,-5.43,-17.4,1,4
16765.609,0.843,-0.201,-0.545,-34.21,-1.1,-13.21,1,4
16765.625,0.805,-0.208,-0.48,-34.97,-0.24,-9.31,1,4
16765.625,0.774,-0.217,-0.477,-31.71,-3.36,-4.58,1,4
16765.64,0.769,-0.205,-0.483,-30.24,-7.72,0.43,1,4
16765.656,0.789,-0.216,-0.49,-30.37,-12.21,4.21,1,4
16765.656,0.782,-0.231,-0.508,-30.03,-15.75,4.21,1,4
16765.671,0.784,-0.257,-0.546,-28.17,-19.2,0.49,1,4
16765.687,0.783,-0.278,-0.596,-25.57,-21.52,-5.86,1,4
16765.687,0.764,-0.289,-0.643,-21.64,-20.87,-14.53,1,4
16765.703,0.734,-0.292,-0.675,-17.49,-17.67,-24.26,1,4
16765.718,0.699,-0.284,-0.686,-13.34,-13.67,-34.21,1,4
16765.718,0.678,-0.261,-0.685,-9.13,-10.1,-43.24,1,4
16765.734,0.662,-0.229,-0.658,-5.43,-7.45,-49.9,1,4
16765.734,0.651,-0.188,-0.599,-0.7,-6.93,-53.9,1,4
16765.75,0.668,-0.15,-0.585,7.11,-8.58,-54.41,1,4
16765.781,0.677,-0.084,-0.606,10.35,-13.82,-46.85,1,4
16765.781,0.676,-0.083,-0.625,7.29,-16.11,-41.84,1,4
16765.796,0.67,-0.082,-0.656,6.29,-16.3,-36.26,1,4
16765.796,0.656,-0.08,-0.691,4.91,-13.95,-31.07,1,4
16765.812,0.649,-0.083,-0.702,2.32,-10.74,-27.16,1,4
16765.828,0.66,-0.082,-0.703,2.62,-7.35,-24.32,1,4
16765.828,0.678,-0.065,-0.706,4.64,-3.81,-21.7,1,4
16765.843,0.685,-0.048,-0.697,4.15,-0.7,-19.07,1,4
16765.843,0.685,-0.057,-0.676,2.47,1.34,-16.75,1,4
16765.859,0.676,-0.061,-0.653,2.81,3.11,-14.01,1,4
16765.875,0.656,-0.043,-0.625,3.94,3.6,-10.56,1,4
16765.875,0.648,-0.032,-0.614,3.39,1.1,-7.63,1,4
16765.89,0.664,-0.035,-0.63,2.23,-2.9,-4.67,1,4
16765.906,0.69,-0.043,-0.664,1.92,-4.82,-0.82,1,4
16765.906,0.717,-0.038,-0.693,0.92,-3.14,4.15,1,4
16765.921,0.736,-0.044,-0.696,-1.83,0.49,9.64,1,4
16765.953,0.718,-0.087,-0.653,-5.95,8.33,18.07,1,4
16765.953,0.703,-0.111,-0.627,-5.01,10.22,19.23,1,4
16765.968,0.69,-0.118,-0.614,-2.29,10.19,18.16,1,4
16765.968,0.711,-0.119,-0.614,-0.31,8.48,17.24,1,4
16765.984,0.739,-0.115,-0.62,-0.67,7.69,17.4,1,4
16765.984,0.756,-0.114,-0.611,-1.16,8.21,18.56,1,4
16766.0,0.75,-0.119,-0.599,-1.95,7.97,20.08,1,4
16766.015,0.747,-0.137,-0.593,-3.45,6.65,21.45,1,4
16766.015,0.751,-0.156,-0.604,-4.03,5.52,22.31,1,4
16766.031,0.751,-0.163,-0.609,-4.46,5.43,21.97,1,4
16766.046,0.767,-0.164,-0.603,-5.04,5.65,20.78,1,4
16766.062,0.799,-0.158,-0.593,-5.25,5.28,19.44,1,4
16766.062,0.816,-0.156,-0.59,-3.97,5.34,17.7,1,4
16766.062,0.818,-0.15,-0.587,-2.5,5.49,16.17,1,4
16766.078,0.822,-0.148,-0.574,-1.28,4.85,14.95,1,4
16766.093,0.832,-0.143,-0.576,-1.37,3.63,15.08,1,4
16766.109,0.835,-0.134,-0.59,-3.02,2.81,16.54,1,4
16766.109,0.849,-0.131,-0.602,-5.74,1.83,19.01,1,4
16766.125,0.864,-0.125,-0.621,-9.37,1.1,22.16,1,4
16766.125,0.873,-0.124,-0.644,-12.94,0.85,24.84,1,4
16766.14,0.894,-0.137,-0.664,-14.53,0.64,25.76,1,4
16766.156,0.924,-0.147,-0.684,-13.76,0.43,24.38,1,4
16766.171,0.955,-0.168,-0.718,-11.2,-0.03,20.23,1,4
16766.171,1.001,-0.18,-0.756,-7.11,-1.13,14.22,1,4
16766.187,1.03,-0.177,-0.788,-5.1,-2.29,8.0,1,4
16766.187,1.038,-0.178,-0.823,-5.86,-4.39,1.8,1,4
16766.203,1.069,-0.178,-0.85,-7.51,-7.05,-2.47,1,4
16766.218,1.084,-0.172,-0.879,-9.25,-7.72,-5.22,1,4
16766.218,1.094,-0.175,-0.899,-11.26,-6.16,-6.35,1,4
16766.234,1.099,-0.182,-0.907,-16.36,-0.03,-4.18,1,4
16766.234,1.109,-0.19,-0.891,-15.56,2.72,-3.08,1,4
16766.25,1.1,-0.207,-0.844,-10.9,4.39,-2.75,1,4
16766.265,1.071,-0.222,-0.79,-6.65,3.23,-4.39,1,4
16766.265,1.0,-0.234,-0.748,-2.17,-0.67,-7.17,1,4
16766.281,0.988,-0.233,-0.731,1.92,-4.58,-10.59,1,4
16766.296,0.954,-0.229,-0.731,5.4,-7.72,-15.05,1,4
16766.296,0.92,-0.235,-0.745,9.03,-10.38,-19.2,1,4
16766.312,0.894,-0.231,-0.761,12.48,-11.87,-22.43,1,4
16766.328,0.873,-0.214,-0.768,14.31,-10.86,-23.56,1,4
16766.328,0.873,-0.189,-0.751,14.68,-8.15,-23.16,1,4
16766.343,0.886,-0.172,-0.71,14.74,-4.09,-21.61,1,4
16766.343,0.865,-0.153,-0.642,13.73,1.04,-18.86,1,4
16766.359,0.822,-0.141,-0.56,11.23,5.16,-15.5,1,4
16766.375,0.765,-0.139,-0.477,9.37,6.56,-12.12,1,4
16766.375,0.73,-0.133,-0.399,6.2,5.1,-8.51,1,4
16766.39,0.744,-0.114,-0.329,2.5,1.68,-4.06,1,4
16766.406,0.742,-0.097,-0.277,0.58,-1.4,0.85,1,4
16766.406,0.719,-0.085,-0.235,-0.73,-4.49,6.78,1,4
16766.421,0.699,-0.092,-0.203,-2.75,-7.51,13.73,1,4
16766.437,0.677,-0.09,-0.183,-5.43,-10.53,20.54,1,4
16766.437,0.675,-0.094,-0.183,-7.75,-14.59,27.13,1,4
16766.453,0.669,-0.102,-0.191,-10.71,-17.85,33.57,1,4
16766.468,0.674,-0.112,-0.203,-15.38,-21.12,39.31,1,4
16766.468,0.698,-0.124,-0.21,-21.09,-23.35,44.74,1,4
16766.484,0.694,-0.135,-0.207,-26.89,-25.67,49.59,1,4
16766.5,0.671,-0.171,-0.213,-31.5,-29.11,52.61,1,4
16766.5,0.631,-0.21,-0.218,-32.29,-33.6,53.16,1,4
16766.515,0.602,-0.233,-0.253,-29.02,-39.06,50.81,1,4
16766.515,0.61,-0.244,-0.315,-25.09,-44.89,45.56,1,4
16766.531,0.6,-0.263,-0.377,-21.61,-48.98,36.77,1,4
16766.546,0.64,-0.274,-0.434,-16.17,-51.48,26.18,1,4
16766.546,0.662,-0.266,-0.482,-8.64,-51.52,15.5,1,4
16766.562,0.624,-0.242,-0.526,-2.47,-51.55,3.88,1,4
16766.578,0.593,-0.234,-0.559,1.89,-52.95,-8.15,1,4
16766.578,0.573,-0.23,-0.606,7.42,-54.51,-19.96,1,4
16766.593,0.547,-0.206,-0.667,13.73,-55.06,-31.83,1,4
16766.609,0.557,-0.181,-0.725,20.84,-54.14,-44.1,1,4
16766.609,0.585,-0.146,-0.762,28.66,-50.66,-54.81,1,4
16766.625,0.601,-0.104,-0.803,34.36,-45.44,-61.98,1,4
16766.625,0.613,-0.099,-0.83,37.14,-39.86,-65.1,1,4
16766.64,0.573,-0.099,-0.831,38.79,-33.33,-64.85,1,4
16766.656,0.513,-0.092,-0.796,36.38,-30.61,-62.75,1,4
16766.671,0.486,-0.086,-0.771,31.92,-31.59,-59.27,1,4
16766.671,0.455,-0.072,-0.782,27.34,-34.15,-56.37,1,4
16766.687,0.43,-0.057,-0.802,23.59,-36.62,-54.57,1,4
16766.687,0.415,-0.036,-0.84,22.77,-36.38,-52.67,1,4
16766.703,0.429,-0.006,-0.879,21.82,-34.39,-49.68,1,4
16766.718,0.453,0.024,-0.895,19.44,-29.91,-46.05,1,4
16766.718,0.472,0.031,-0.902,18.74,-22.64,-41.57,1,4
16766.734,0.487,0.04,-0.869,18.83,-15.23,-37.75,1,4
16766.75,0.503,0.083,-0.816,19.9,-10.38,-34.33,1,4
16766.75,0.527,0.129,-0.766,20.23,-9.74,-28.23,1,4
16766.765,0.591,0.146,-0.715,22.22,-14.01,-17.27,1,4
16766.765,0.637,0.151,-0.719,26.55,-19.35,-1.86,1,4
16766.781,0.656,0.129,-0.751,25.21,-22.71,17.55,1,4
16766.796,0.658,0.068,-0.77,16.85,-23.93,38.91,1,4
16766.796,0.643,-0.008,-0.777,11.87,-21.61,60.37,1,4
16766.812,0.648,-0.062,-0.816,11.87,-18.22,79.47,1,4
16766.828,0.652,-0.142,-0.832,7.72,-13.52,94.18,1,4
16766.828,0.679,-0.193,-0.814,-1.01,-9.74,102.36,1,4
16766.843,0.698,-0.268,-0.795,-6.78,-6.2,106.57,1,4
16766.843,0.687,-0.336,-0.759,-13.09,-3.97,106.72,1,4
16766.859,0.679,-0.395,-0.721,-19.9,-3.97,102.76,1,4
16766.875,0.669,-0.449,-0.687,-20.87,-5.43,93.97,1,4
16766.875,0.66,-0.483,-0.665,-16.57,-7.66,81.06,1,4
16766.89,0.662,-0.478,-0.675,-11.14,-10.28,64.21,1,4
16766.906,0.674,-0.476,-0.704,-4.88,-12.21,46.05,1,4
16766.921,0.68,-0.477,-0.722,3.85,-12.21,28.44,1,4
16766.921,0.677,-0.46,-0.755,15.26,-10.1,11.81,1,4
16766.937,0.646,-0.42,-0.77,21.0,-7.11,-3.05,1,4
16766.937,0.63,-0.398,-0.743,19.68,-6.56,-14.71,1,4
16766.953,0.611,-0.382,-0.74,20.23,-6.87,-22.89,1,4
16766.968,0.589,-0.357,-0.753,21.58,-6.29,-27.38,1,4
16766.968,0.558,-0.331,-0.745,20.05,-6.23,-28.6,1,4
16766.984,0.535,-0.304,-0.726,17.37,-8.51,-27.77,1,4
16766.984,0.55,-0.289,-0.741,14.37,-11.63,-26.22,1,4
16767.0,0.581,-0.286,-0.762,11.6,-14.1,-24.08,1,4
16767.015,0.592,-0.287,-0.785,9.95,-13.76,-22.13,1,4
16767.015,0.595,-0.277,-0.813,8.42,-10.99,-21.42,1,4
16767.031,0.58,-0.27,-0.795,6.56,-7.54,-21.64,1,4
16767.046,0.563,-0.273,-0.771,5.13,-5.01,-21.82,1,4
16767.046,0.558,-0.253,-0.738,3.54,-4.15,-21.27,1,4
16767.062,0.57,-0.253,-0.725,2.2,-5.43,-21.06,1,4
16767.078,0.599,-0.249,-0.742,2.04,-6.41,-20.94,1,4
16767.078,0.612,-0.244,-0.766,2.53,-5.22,-21.7,1,4
16767.093,0.617,-0.243,-0.799,3.36,-2.35,-22.98,1,4
16767.109,0.612,-0.228,-0.808,3.08,0.98,-24.08,1,4
16767.109,0.604,-0.227,-0.791,2.14,3.57,-25.03,1,4
16767.125,0.597,-0.227,-0.777,2.38,4.82,-25.03,1,4
16767.125,0.604,-0.217,-0.749,3.78,4.0,-23.22,1,4
16767.14,0.614,-0.211,-0.742,4.64,2.5,-20.54,1,4
16767.156,0.617,-0.193,-0.75,4.18,1.83,-16.97,1,4
16767.156,0.615,-0.174,-0.74,1.16,0.24,-13.31,1,4
16767.171,0.617,-0.18,-0.733,-3.51,-2.38,-9.61,1,4
16767.187,0.613,-0.187,-0.743,-5.86,-4.43,-4.94,1,4
16767.187,0.62,-0.189,-0.767,-8.0,-5.01,0.4,1,4
16767.203,0.627,-0.194,-0.787,-10.71,-3.42,5.49,1,4
16767.218,0.619,-0.196,-0.793,-14.59,1.25,13.89,1,4
16767.218,0.607,-0.193,-0.784,-16.63,2.96,17.79,1,4
16767.234,0.606,-0.187,-0.782,-18.52,4.52,23.04,1,4
16767.25,0.607,-0.186,-0.787,-22.22,6.35,29.24,1,4
16767.25,0.604,-0.196,-0.783,-27.19,8.82,35.0,1,4
16767.265,0.603,-0.218,-0.778,-30.92,11.17,39.92,1,4
16767.281,0.604,-0.23,-0.763,-34.0,11.96,43.18,1,4
16767.281,0.6,-0.246,-0.742,-36.1,11.08,44.8,1,4
16767.296,0.588,-0.247,-0.729,-36.1,8.21,45.93,1,4
16767.296,0.594,-0.25,-0.74,-34.94,5.55,48.04,1,4
16767.312,0.593,-0.228,-0.774,-35.25,5.01,51.33,1,4
16767.328,0.582,-0.22,-0.809,-38.15,6.2,56.37,1,4
16767.328,0.587,-0.227,-0.821,-42.18,8.51,61.34,1,4
16767.343,0.573,-0.226,-0.833,-43.7,10.83,64.79,1,4
16767.343,0.544,-0.236,-0.82,-42.79,12.73,66.68,1,4
16767.359,0.519,-0.261,-0.816,-38.18,14.25,67.45,1,4
16767.375,0.486,-0.285,-0.827,-33.78,16.08,67.32,1,4
16767.375,0.487,-0.303,-0.861,-31.22,17.06,65.83,1,4
16767.39,0.514,-0.306,-0.896,-31.98,19.5,64.06,1,4
16767.406,0.558,-0.3,-0.876,-37.48,25.12,62.99,1,4
16767.406,0.603,-0.276,-0.805,-43.89,30.95,61.04,1,4
16767.421,0.62,-0.276,-0.71,-46.94,33.17,56.28,1,4
16767.437,0.615,-0.289,-0.631,-44.89,30.67,49.59,1,4
16767.437,0.595,-0.29,-0.601,-36.04,24.75,42.6,1,4
16767.453,0.571,-0.289,-0.623,-24.93,16.85,36.71,1,4
16767.468,0.581,-0.286,-0.69,-17.55,9.4,33.33,1,4
16767.468,0.61,-0.271,-0.772,-16.36,6.26,32.01,1,4
16767.484,0.645,-0.267,-0.816,-21.12,7.72,32.9,1,4
16767.5,0.664,-0.264,-0.825,-28.2,12.57,35.86,1,4
16767.5,0.65,-0.274,-0.807,-35.19,18.16,40.07,1,4
16767.515,0.629,-0.302,-0.786,-40.77,21.94,44.19,1,4
16767.515,0.619,-0.326,-0.77,-44.37,23.29,46.51,1,4
16767.531,0.633,-0.344,-0.756,-46.72,22.22,47.36,1,4
16767.546,0.632,-0.365,-0.738,-48.68,20.84,46.94,1,4
16767.546,0.649,-0.372,-0.723,-50.45,20.05,46.39,1,4
16767.562,0.676,-0.375,-0.714,-51.18,20.05,46.6,1,4
16767.578,0.682,-0.376,-0.713,-52.61,20.78,46.51,1,4
16767.578,0.674,-0.378,-0.712,-56.0,21.27,46.6,1,4
16767.593,0.662,-0.375,-0.706,-59.02,20.23,47.15,1,4
16767.609,0.645,-0.377,-0.695,-62.29,19.44,47.24,1,4
16767.609,0.647,-0.385,-0.692,-64.03,17.94,45.84,1,4
16767.625,0.66,-0.385,-0.692,-62.47,16.51,42.76,1,4
16767.625,0.673,-0.384,-0.693,-59.6,16.63,38.0,1,4
16767.64,0.688,-0.384,-0.681,-56.58,17.15,32.17,1,4
16767.656,0.691,-0.371,-0.675,-54.02,17.43,26.31,1,4
16767.656,0.673,-0.364,-0.659,-52.31,16.97,21.03,1,4
16767.671,0.681,-0.354,-0.656,-51.0,14.22,17.06,1,4
16767.687,0.687,-0.334,-0.678,-50.29,11.14,13.67,1,4
16767.703,0.671,-0.315,-0.701,-51.33,9.55,11.84,1,4
16767.703,0.645,-0.302,-0.72,-54.69,8.64,12.36,1,4
16767.718,0.631,-0.302,-0.744,-58.78,8.97,14.31,1,4
16767.718,0.627,-0.304,-0.766,-62.81,11.35,16.66,1,4
16767.734,0.638,-0.303,-0.772,-66.65,14.28,18.52,1,4
16767.734,0.652,-0.31,-0.759,-69.28,17.61,18.59,1,4
16767.75,0.654,-0.32,-0.735,-69.46,21.0,16.69,1,4
16767.765,0.638,-0.318,-0.703,-68.64,22.89,13.52,1,4
16767.781,0.629,-0.316,-0.681,-68.09,22.4,10.07,1,4
16767.781,0.636,-0.306,-0.67,-68.09,20.39,6.78,1,4
16767.796,0.636,-0.284,-0.66,-67.9,19.01,3.66,1,4
16767.796,0.653,-0.258,-0.657,-68.45,17.37,1.16,1,4
16767.812,0.666,-0.225,-0.656,-69.77,15.5,-1.16,1,4
16767.828,0.661,-0.206,-0.665,-70.38,15.08,-3.81,1,4
16767.828,0.645,-0.19,-0.676,-69.52,15.63,-6.74,1,4
16767.843,0.625,-0.174,-0.693,-67.57,16.45,-9.25,1,4
16767.843,0.609,-0.153,-0.711,-66.84,17.49,-10.44,1,4
16767.859,0.583,-0.136,-0.715,-67.96,19.2,-10.68,1,4
16767.875,0.559,-0.114,-0.717,-70.99,20.02,-10.5,1,4
16767.875,0.549,-0.095,-0.714,-75.23,20.23,-9.77,1,4
16767.89,0.545,-0.068,-0.71,-79.17,20.81,-7.97,1,4
16767.906,0.551,-0.03,-0.706,-83.29,21.36,-5.01,1,4
16767.921,0.572,-0.01,-0.697,-87.71,22.19,-0.76,1,4
16767.921,0.563,0.004,-0.694,-90.82,24.48,4.3,1,4
16767.937,0.55,0.023,-0.699,-91.71,26.76,8.76,1,4
16767.937,0.55,0.042,-0.696,-90.58,29.05,11.08,1,4
16767.953,0.546,0.085,-0.698,-88.81,31.22,12.57,1,4
16767.968,0.558,0.118,-0.693,-88.53,32.93,16.54,1,4
16767.968,0.562,0.166,-0.692,-90.73,34.85,23.59,1,4
16767.984,0.567,0.205,-0.691,-96.71,36.44,33.05,1,4
16768.0,0.578,0.2,-0.68,-102.51,38.03,43.52,1,4
16768.0,0.589,0.19,-0.666,-103.7,39.77,52.4,1,4
16768.015,0.6,0.183,-0.66,-101.93,41.57,57.99,1,4
16768.015,0.63,0.177,-0.653,-98.36,43.43,60.64,1,4
16768.031,0.633,0.168,-0.634,-94.45,45.75,62.35,1,4
16768.046,0.642,0.156,-0.626,-92.93,46.39,64.61,1,4
16768.046,0.651,0.157,-0.626,-94.0,46.88,67.26,1,4
16768.062,0.642,0.154,-0.632,-96.32,48.07,70.62,1,4
16768.078,0.652,0.146,-0.62,-99.46,48.59,74.83,1,4
16768.078,0.677,0.131,-0.603,-101.05,48.8,77.67,1,4
16768.093,0.694,0.104,-0.58,-98.64,49.81,77.97,1,4
16768.109,0.709,0.08,-0.553,-91.8,50.75,76.05,1,4
16768.109,0.722,0.065,-0.528,-83.07,51.52,71.35,1,4
16768.125,0.741,0.045,-0.503,-75.01,52.03,64.73,1,4
16768.125,0.742,0.019,-0.48,-68.0,52.46,58.78,1,4
16768.14,0.742,-0.01,-0.46,-63.23,52.03,53.44,1,4
16768.156,0.753,-0.049,-0.457,-59.94,50.2,48.22,1,4
16768.156,0.779,-0.093,-0.47,-57.1,48.19,42.18,1,4
16768.171,0.813,-0.106,-0.508,-52.89,48.1,34.15,1,4
16768.187,0.833,-0.074,-0.533,-48.86,50.69,23.83,1,4
16768.203,0.845,-0.041,-0.503,-46.97,54.72,11.41,1,4
16768.203,0.84,-0.007,-0.448,-40.38,57.28,-11.14,1,4
16768.218,0.825,0.018,-0.405,-34.39,56.55,-18.22,1,4
16768.218,0.825,0.061,-0.385,-29.73,55.06,-22.95,1,4
16768.234,0.818,0.175,-0.378,-29.57,53.47,-24.14,1,4
16768.234,0.793,0.227,-0.392,-34.0,51.76,-22.28,1,4
16768.25,0.784,0.26,-0.409,-39.98,49.75,-17.49,1,4
16768.265,0.777,0.274,-0.422,-44.74,49.38,-10.13,1,4
16768.281,0.815,0.274,-0.438,-48.49,51.06,-1.25,1,4
16768.281,0.834,0.264,-0.432,-53.5,54.9,7.2,1,4
16768.296,0.851,0.235,-0.408,-57.41,59.21,13.4,1,4
16768.296,0.86,0.213,-0.376,-59.05,63.08,17.15,1,4
16768.312,0.847,0.193,-0.338,-57.19,66.19,16.69,1,4
16768.328,0.823,0.163,-0.315,-51.52,67.81,13.09,1,4
16768.328,0.793,0.151,-0.312,-43.67,68.09,8.45,1,4
16768.343,0.77,0.162,-0.331,-35.37,67.66,4.24,1,4
16768.359,0.77,0.173,-0.347,-29.21,67.96,2.69,1,4
16768.359,0.786,0.192,-0.375,-26.98,70.56,4.79,1,4
16768.375,0.819,0.22,-0.396,-30.34,76.05,9.67,1,4
16768.375,0.831,0.239,-0.377,-40.47,82.46,16.27,1,4
16768.39,0.791,0.232,-0.328,-55.33,89.51,22.83,1,4
16768.406,0.752,0.218,-0.264,-67.35,91.98,26.55,1,4
16768.406,0.736,0.204,-0.201,-72.21,90.3,28.72,1,4
16768.421,0.751,0.188,-0.163,-70.99,86.03,29.39,1,4
16768.437,0.8,0.186,-0.144,-65.92,81.33,29.51,1,4
16768.453,0.846,0.178,-0.128,-62.59,78.89,30.24,1,4
16768.453,0.86,0.16,-0.108,-62.38,77.97,30.58,1,4
16768.468,0.84,0.139,-0.077,-63.39,76.14,30.67,1,4
16768.468,0.803,0.125,-0.046,-64.61,72.27,28.29,1,4
16768.484,0.757,0.119,-0.036,-62.56,65.19,20.87,1,4
16768.5,0.728,0.121,-0.039,-53.99,57.13,10.8,1,4
16768.5,0.778,0.133,-0.088,-40.68,51.21,1.01,1,4
16768.515,0.871,0.162,-0.14,-34.21,50.84,-2.9,1,4
16768.531,0.941,0.177,-0.167,-37.35,58.26,0.18,1,4
16768.531,0.929,0.185,-0.14,-47.24,69.73,5.8,1,4
16768.546,0.886,0.179,-0.102,-54.11,78.83,9.37,1,4
16768.546,0.839,0.179,-0.069,-54.2,84.87,10.01,1,4
16768.562,0.783,0.203,-0.048,-49.47,88.9,8.67,1,4
16768.578,0.786,0.219,-0.052,-42.6,92.35,8.85,1,4
16768.578,0.76,0.232,-0.043,-42.09,98.27,14.07,1,4
16768.593,0.806,0.24,-0.006,-47.61,102.63,22.13,1,4
16768.609,0.819,0.223,0.053,-57.53,106.42,33.85,1,4
16768.609,0.769,0.179,0.126,-66.19,107.46,42.66,1,4
16768.625,0.768,0.126,0.182,-67.38,103.06,48.4,1,4
16768.625,0.766,0.096,0.205,-63.36,97.26,50.97,1,4
16768.64,0.781,0.067,0.197,-56.73,92.53,49.07,1,4
16768.656,0.832,0.052,0.185,-50.69,91.28,46.39,1,4
16768.656,0.857,0.063,0.187,-47.82,93.81,44.83,1,4
16768.671,0.838,0.062,0.208,-47.58,97.23,44.28,1,4
16768.687,0.801,0.041,0.233,-47.18,98.57,44.16,1,4
16768.687,0.798,0.016,0.238,-43.86,97.63,43.92,1,4
16768.703,0.79,0.018,0.241,-40.1,97.9,44.19,1,4
16768.718,0.789,0.013,0.259,-37.42,99.8,43.4,1,4
16768.718,0.803,0.021,0.292,-34.82,102.88,42.73,1,4
16768.734,0.808,0.038,0.328,-33.48,106.11,42.66,1,4
16768.734,0.814,0.028,0.368,-34.88,106.94,44.43,1,4
16768.75,0.79,0.005,0.398,-36.71,105.59,46.63,1,4
16768.765,0.805,-0.034,0.402,-36.68,101.57,47.55,1,4
16768.765,0.851,-0.059,0.404,-36.23,98.21,47.06,1,4
16768.781,0.858,-0.059,0.418,-34.94,97.9,42.7,1,4
16768.796,0.871,-0.048,0.456,-30.67,99.06,35.58,1,4
16768.796,0.881,-0.015,0.505,-26.06,100.01,30.46,1,4
16768.812,0.805,0.013,0.538,-24.38,100.16,27.89,1,4
16768.828,0.72,-0.005,0.548,-22.64,97.32,27.31,1,4
16768.828,0.667,-0.02,0.54,-18.34,93.6,28.05,1,4
16768.843,0.682,-0.029,0.505,-12.91,91.04,30.06,1,4
16768.843,0.745,-0.03,0.475,-12.39,91.92,34.46,1,4
16768.859,0.847,-0.024,0.49,-17.55,96.96,40.59,1,4
16768.875,0.907,-0.023,0.553,-26.73,104.65,48.59,1,4
16768.875,0.88,-0.038,0.643,-35.37,110.35,55.3,1,4
16768.89,0.813,-0.052,0.718,-37.35,111.15,59.27,1,4
16768.906,0.731,-0.067,0.761,-33.94,107.3,62.01,1,4
16768.906,0.664,-0.091,0.76,-29.66,100.31,63.94,1,4
16768.921,0.665,-0.133,0.726,-25.42,93.84,66.07,1,4
16768.937,0.739,-0.165,0.675,-22.8,91.37,69.12,1,4
16768.953,0.781,-0.174,0.669,-24.32,94.09,71.23,1,4
16768.953,0.751,-0.203,0.694,-26.31,100.07,69.98,1,4
16768.968,0.693,-0.233,0.74,-23.77,105.04,65.07,1,4
16768.968,0.63,-0.223,0.779,-17.09,106.72,60.09,1,4
16768.984,0.573,-0.196,0.789,-12.21,105.08,56.12,1,4
16768.984,0.546,-0.203,0.787,-10.65,101.08,54.48,1,4
16769.0,0.558,-0.197,0.754,-11.84,97.78,56.03,1,4
16769.015,0.6,-0.189,0.736,-15.17,97.81,58.66,1,4
16769.015,0.616,-0.176,0.756,-18.01,101.63,60.61,1,4
16769.031,0.562,-0.175,0.79,-19.23,106.27,62.23,1,4
16769.046,0.484,-0.178,0.812,-18.13,107.52,63.45,1,4
16769.062,0.462,-0.198,0.822,-16.66,105.11,65.03,1,4
16769.062,0.487,-0.216,0.834,-15.87,103.24,67.66,1,4
16769.078,0.502,-0.239,0.845,-16.27,104.16,70.44,1,4
16769.078,0.49,-0.253,0.859,-16.21,106.14,73.79,1,4
16769.093,0.482,-0.247,0.875,-16.91,106.78,77.43,1,4
16769.093,0.457,-0.231,0.898,-18.52,106.42,80.36,1,4
16769.109,0.437,-0.234,0.923,-19.35,105.11,83.68,1,4
16769.125,0.422,-0.252,0.949,-18.74,102.63,88.35,1,4
16769.125,0.423,-0.273,0.959,-15.87,99.43,93.51,1,4
16769.14,0.413,-0.306,0.94,-14.25,96.84,98.3,1,4
16769.156,0.397,-0.344,0.92,-15.41,94.39,100.47,1,4
16769.171,0.384,-0.383,0.927,-14.56,92.96,98.61,1,4
16769.171,0.364,-0.386,0.942,-11.14,94.12,94.82,1,4
16769.187,0.344,-0.376,0.966,-3.81,94.97,88.72,1,4
16769.187,0.354,-0.366,0.993,-4.18,92.41,89.45,1,4
16769.203,0.326,-0.357,1.008,-4.55,86.43,90.0,1,4
16769.218,0.296,-0.39,1.007,-1.89,79.56,87.8,1,4
16769.218,0.196,-0.453,0.966,5.55,74.31,81.79,1,4
16769.234,0.186,-0.45,0.955,15.75,73.34,74.16,1,4
16769.25,0.18,-0.411,0.968,23.47,76.33,66.68,1,4
16769.25,0.158,-0.382,0.986,27.13,79.93,62.93,1,4
16769.265,0.158,-0.386,1.007,26.18,81.09,64.24,1,4
16769.265,0.147,-0.396,1.004,21.88,80.94,69.8,1,4
16769.281,0.149,-0.412,1.012,14.65,79.93,76.78,1,4
16769.296,0.141,-0.437,1.01,7.66,79.13,81.67,1,4
16769.296,0.108,-0.425,1.033,3.78,78.86,83.71,1,4
16769.312,0.073,-0.411,1.066,5.77,80.63,83.13,1,4
16769.328,0.04,-0.402,1.118,11.11,83.01,81.73,1,4
16769.328,0.01,-0.401,1.148,19.47,84.57,80.94,1,4
16769.343,-0.009,-0.406,1.123,24.51,83.86,83.19,1,4
16769.359,-0.012,-0.436,1.103,22.52,81.24,86.83,1,4
16769.359,0.0,-0.49,1.088,19.07,78.74,88.44,1,4
16769.375,0.009,-0.512,1.082,17.79,77.24,86.79,1,4
16769.39,0.067,-0.526,1.089,20.05,76.78,82.31,1,4
16769.39,0.113,-0.521,1.099,22.61,78.62,79.07,1,4
16769.406,0.088,-0.498,1.108,21.15,80.66,76.97,1,4
16769.421,0.054,-0.505,1.133,16.54,79.44,76.14,1,4
16769.421,0.007,-0.542,1.144,12.79,77.21,76.27,1,4
16769.437,-0.034,-0.552,1.134,11.41,73.34,74.68,1,4
16769.437,-0.054,-0.569,1.093,12.73,69.22,67.96,1,4
16769.453,-0.066,-0.573,1.05,15.78,67.42,56.09,1,4
16769.468,-0.079,-0.538,1.045,22.34,68.64,43.55,1,4
16769.468,-0.115,-0.501,1.061,27.83,71.35,33.94,1,4
16769.484,-0.156,-0.445,1.08,27.62,72.82,29.15,1,4
16769.5,-0.148,-0.397,1.092,25.3,71.32,30.95,1,4
16769.5,-0.14,-0.36,1.095,21.7,68.94,36.32,1,4
16769.515,-0.139,-0.328,1.093,17.79,65.34,42.09,1,4
16769.515,-0.144,-0.314,1.071,16.17,60.82,47.64,1,4
16769.531,-0.144,-0.295,1.024,16.05,56.89,53.01,1,4
16769.546,-0.156,-0.266,0.973,15.02,55.6,58.9,1,4
16769.546,-0.174,-0.25,0.96,10.83,57.16,66.5,1,4
16769.562,-0.202,-0.261,0.985,4.82,60.58,75.53,1,4
16769.578,-0.251,-0.29,1.021,0.73,63.51,84.14,1,4
16769.578,-0.301,-0.323,1.058,-0.7,63.69,90.09,1,4
16769.593,-0.323,-0.344,1.073,-1.74,60.06,92.35,1,4
16769.609,-0.343,-0.363,1.071,-2.17,54.51,90.91,1,4
16769.609,-0.351,-0.374,1.058,-0.89,48.89,87.95,1,4
16769.625,-0.35,-0.364,1.031,2.23,45.2,85.06,1,4
16769.625,-0.365,-0.359,1.005,5.31,44.83,83.5,1,4
16769.64,-0.379,-0.368,0.99,6.5,45.84,83.93,1,4
16769.656,-0.403,-0.367,0.993,5.83,47.73,84.66,1,4
16769.656,-0.438,-0.368,1.005,3.81,48.34,85.24,1,4
16769.671,-0.461,-0.379,1.016,2.23,47.46,85.91,1,4
16769.687,-0.468,-0.382,1.016,2.96,46.39,85.97,1,4
16769.687,-0.468,-0.388,1.017,5.1,44.89,85.63,1,4
16769.703,-0.465,-0.406,1.013,6.26,43.37,85.18,1,4
16769.718,-0.467,-0.424,1.005,5.95,42.18,83.77,1,4
16769.718,-0.46,-0.442,1.002,5.31,40.93,80.14,1,4
16769.734,-0.435,-0.449,1.006,5.62,39.49,75.32,1,4
16769.734,-0.423,-0.422,1.019,8.03,38.67,69.83,1,4
16769.75,-0.432,-0.391,1.016,11.96,37.54,65.1,1,4
16769.765,-0.449,-0.363,1.007,13.12,35.89,64.7,1,4
16769.765,-0.486,-0.347,0.995,10.13,33.91,68.27,1,4
16769.781,-0.5,-0.362,0.97,5.28,31.28,73.95,1,4
16769.796,-0.497,-0.374,0.941,0.24,29.73,79.23,1,4
16769.812,-0.495,-0.388,0.922,-3.94,29.94,81.51,1,4
16769.812,-0.497,-0.397,0.919,-6.65,30.82,79.99,1,4
16769.828,-0.49,-0.404,0.923,-6.38,32.01,75.41,1,4
16769.828,-0.492,-0.393,0.941,-3.48,33.23,68.79,1,4
16769.843,-0.51,-0.381,0.96,0.46,33.85,62.32,1,4
16769.859,-0.529,-0.365,0.975,4.3,32.26,56.89,1,4
16769.859,-0.529,-0.355,0.971,8.03,28.66,52.64,1,4
16769.875,-0.507,-0.338,0.95,10.22,24.54,49.01,1,4
16769.875,-0.474,-0.305,0.921,11.26,21.42,44.65,1,4
16769.89,-0.46,-0.266,0.901,12.36,20.78,40.41,1,4
16769.906,-0.464,-0.223,0.895,12.48,21.06,37.32,1,4
16769.921,-0.471,-0.191,0.897,11.96,20.87,35.98,1,4
16769.921,-0.477,-0.167,0.904,11.57,20.69,37.2,1,4
16769.937,-0.491,-0.15,0.916,10.16,20.51,40.5,1,4
16769.937,-0.519,-0.138,0.937,6.1,19.14,44.31,1,4
16769.953,-0.549,-0.147,0.937,3.05,16.36,47.82,1,4
16769.968,-0.55,-0.168,0.91,2.47,13.28,51.27,1,4
16769.968,-0.526,-0.173,0.88,3.17,11.69,54.29,1,4
16769.984,-0.519,-0.17,0.852,4.21,12.15,56.52,1,4
16770.0,-0.519,-0.171,0.844,2.38,13.31,58.5,1,4
16770.0,-0.513,-0.185,0.864,-1.43,14.04,59.21,1,4
16770.015,-0.529,-0.216,0.893,-2.29,14.19,58.11,1,4
16770.015,-0.56,-0.245,0.902,0.46,13.21,54.99,1,4
16770.031,-0.572,-0.266,0.885,3.94,10.32,50.2,1,4
16770.046,-0.551,-0.285,0.868,7.29,6.56,43.82,1,4
16770.046,-0.522,-0.281,0.829,11.69,4.52,37.11,1,4
16770.062,-0.508,-0.24,0.792,17.18,5.34,31.71,1,4
16770.078,-0.504,-0.178,0.778,21.82,8.51,28.5,1,4
16770.078,-0.519,-0.136,0.791,22.13,13.06,28.02,1,4
16770.093,-0.573,-0.106,0.815,18.28,17.06,29.66,1,4
16770.109,-0.631,-0.088,0.823,11.69,17.49,33.94,1,4
16770.109,-0.637,-0.083,0.817,1.16,14.53,40.74,1,4
16770.125,-0.616,-0.078,0.798,-9.64,11.93,47.98,1,4
16770.125,-0.594,-0.065,0.785,-18.1,11.26,54.72,1,4
16770.14,-0.568,-0.064,0.807,-24.78,12.3,60.15,1,4
16770.156,-0.579,-0.067,0.847,-26.12,14.83,62.84,1,4
16770.171,-0.604,-0.068,0.879,-16.39,14.62,63.02,1,4
16770.171,-0.634,-0.065,0.889,-13.18,11.35,61.59,1,4
16770.187,-0.652,-0.071,0.892,-9.16,7.54,59.24,1,4
16770.187,-0.647,-0.083,0.87,-5.25,5.46,57.34,1,4
16770.203,-0.582,-0.053,0.802,-5.74,5.65,54.29,1,4
16770.218,-0.574,-0.068,0.808,-8.42,6.96,48.43,1,4
16770.218,-0.578,-0.079,0.82,-7.87,8.09,41.38,1,4
16770.234,-0.582,-0.068,0.826,-4.18,8.45,33.78,1,4
16770.25,-0.59,-0.047,0.83,0.0,7.05,26.0,1,4
16770.25,-0.593,-0.022,0.83,4.03,4.58,19.84,1,4
16770.265,-0.587,0.019,0.827,9.0,2.53,16.36,1,4
16770.281,-0.579,0.07,0.831,12.76,0.64,16.42,1,4
16770.281,-0.581,0.108,0.832,13.25,-0.79,19.41,1,4
16770.296,-0.593,0.11,0.823,11.44,-2.01,24.2,1,4
16770.296,-0.607,0.097,0.797,9.64,-2.84,29.45,1,4
16770.312,-0.594,0.075,0.761,6.59,-2.41,34.67,1,4
16770.328,-0.56,0.05,0.74,3.08,-0.46,36.62,1,4
16770.328,-0.55,0.03,0.722,0.98,2.72,35.83,1,4
16770.343,-0.54,0.048,0.74,-2.38,7.39,35.13,1,4
16770.343,-0.533,0.093,0.795,-4.88,10.86,34.79,1,4
16770.359,-0.531,0.115,0.852,-5.13,12.76,35.62,1,4
16770.375,-0.574,0.099,0.901,-5.95,12.39,35.46,1,4
16770.375,-0.632,0.068,0.924,-4.24,7.72,33.2,1,4
16770.39,-0.636,0.042,0.889,1.71,0.46,29.18,1,4
16770.406,-0.604,0.047,0.825,7.87,-5.01,24.17,1,4
16770.406,-0.594,0.051,0.78,11.14,-5.98,20.97,1,4
16770.421,-0.606,0.086,0.752,10.1,-3.75,22.89,1,4
16770.437,-0.588,0.072,0.761,6.96,3.3,32.23,1,4
16770.437,-0.587,-0.016,0.789,1.74,10.74,44.16,1,4
16770.453,-0.634,-0.143,0.846,-8.36,15.29,54.63,1,4
16770.468,-0.682,-0.267,0.886,-18.22,15.5,60.37,1,4
16770.468,-0.669,-0.349,0.883,-26.52,10.16,59.88,1,4
16770.484,-0.609,-0.386,0.856,-33.57,3.78,54.2,1,4
16770.484,-0.553,-0.367,0.826,-36.71,0.98,44.1,1,4
16770.5,-0.525,-0.282,0.809,-34.18,1.68,31.53,1,4
16770.515,-0.528,-0.163,0.824,-29.3,3.78,18.98,1,4
16770.531,-0.578,-0.03,0.829,-21.67,4.55,7.17,1,4
16770.531,-0.63,0.091,0.803,-14.04,1.56,-0.79,1,4
16770.546,-0.629,0.178,0.781,-13.15,-2.75,-3.57,1,4
16770.546,-0.622,0.231,0.757,-14.59,-5.4,-2.84,1,4
16770.562,-0.603,0.271,0.732,-14.13,-5.52,1.62,1,4
16770.578,-0.593,0.287,0.727,-14.16,-3.05,6.99,1,4
16770.578,-0.601,0.268,0.752,-13.31,-0.24,10.56,1,4
16770.593,-0.614,0.225,0.774,-8.0,1.04,12.27,1,4
16770.593,-0.642,0.181,0.775,-2.01,0.09,12.02,1,4
16770.609,-0.66,0.126,0.769,0.73,-2.35,10.71,1,4
16770.625,-0.638,0.055,0.756,2.01,-4.97,8.88,1,4
16770.625,-0.617,-0.018,0.744,3.6,-4.64,6.29,1,4
16770.64,-0.615,-0.059,0.741,6.41,-2.23,2.93,1,4
16770.656,-0.604,-0.075,0.765,8.42,0.31,-1.46,1,4
16770.656,-0.602,-0.078,0.799,9.0,1.77,-7.02,1,4
16770.671,-0.615,-0.05,0.811,10.28,1.53,-11.9,1,4
16770.687,-0.609,-0.001,0.809,9.83,-0.49,-14.74,1,4
16770.687,-0.591,0.046,0.812,7.87,-2.72,-15.99,1,4
16770.703,-0.591,0.083,0.799,6.44,-3.66,-15.26,1,4
16770.718,-0.589,0.113,0.781,3.39,-3.78,-12.63,1,4
16770.718,-0.575,0.129,0.779,-0.7,-2.96,-10.07,1,4
16770.734,-0.57,0.135,0.789,-2.5,-1.65,-8.42,1,4
16770.734,-0.569,0.15,0.795,-1.98,-0.64,-7.08,1,4
16770.75,-0.564,0.165,0.796,-0.76,-0.34,-5.98,1,4
16770.765,-0.575,0.171,0.805,0.34,-0.24,-4.46,1,4
16770.781,-0.584,0.159,0.798,1.86,-0.55,-2.2,1,4
16770.781,-0.599,0.141,0.787,2.44,-0.58,0.46,1,4
16770.796,-0.608,0.108,0.787,2.04,-0.73,2.99,1,4
16770.796,-0.606,0.075,0.785,0.58,-0.95,4.85,1,4
16770.812,-0.602,0.046,0.79,-0.52,-0.89,5.46,1,4
16770.828,-0.598,0.03,0.791,0.18,-0.76,5.01,1,4
16770.828,-0.601,0.033,0.786,0.27,-0.61,4.33,1,4
16770.843,-0.6,0.031,0.791,-1.8,-0.34,3.23,1,4
16770.843,-0.602,0.025,0.794,-3.75,-0.43,1.56,1,4
16770.859,-0.6,0.04,0.799,-3.17,-1.04,-0.31,1,4
16770.875,-0.6,0.061,0.793,-2.11,-1.68,-2.47,1,4
16770.875,-0.601,0.069,0.782,-2.32,-2.29,-4.09,1,4
16770.89,-0.6,0.081,0.773,-1.71,-2.5,-5.04,1,4
16770.906,-0.607,0.095,0.758,-0.61,-2.08,-5.07,1,4
16770.906,-0.604,0.096,0.75,-1.25,-1.19,-3.81,1,4
16770.921,-0.588,0.092,0.764,-3.02,0.12,-2.2,1,4
16770.937,-0.587,0.083,0.776,-3.2,1.53,-1.01,1,4
16770.937,-0.587,0.081,0.779,-2.59,2.38,-0.46,1,4
16770.953,-0.587,0.078,0.784,-2.53,2.93,-0.82,1,4
16770.968,-0.596,0.07,0.787,-2.23,3.27,-1.43,1,4
16770.968,-0.599,0.067,0.786,-2.9,3.23,-1.71,1,4
16770.984,-0.601,0.071,0.796,-4.36,2.87,-1.77,1,4
16771.0,-0.605,0.085,0.813,-5.43,1.95,-1.68,1,4
16771.0,-0.603,0.101,0.828,-6.38,0.27,-1.19,1,4
16771.015,-0.61,0.122,0.828,-6.56,-2.08,-0.18,1,4
16771.015,-0.616,0.145,0.817,-7.75,-4.76,2.53,1,4
16771.031,-0.607,0.139,0.802,-11.81,-7.26,6.16,1,4
16771.046,-0.58,0.102,0.797,-14.47,-8.33,9.34,1,4
16771.046,-0.569,0.065,0.785,-11.96,-7.11,10.99,1,4
16771.062,-0.564,0.037,0.767,-7.05,-4.27,10.68,1,4
