timestamp,ax,ay,az,gx,gy,gz,orient_label,motion_label
16706.078,0.259,-0.402,-0.889,2.87,2.2,-3.39,1,4
16706.078,0.25,-0.398,-0.881,2.35,3.48,-2.14,1,4
16706.093,0.227,-0.407,-0.879,0.67,4.33,0.4,1,4
16706.093,0.238,-0.425,-0.878,-1.43,4.27,3.2,1,4
16706.109,0.251,-0.437,-0.879,-2.17,4.18,3.54,1,4
16706.125,0.246,-0.439,-0.877,-1.56,4.27,1.83,1,4
16706.125,0.238,-0.427,-0.868,0.18,4.46,0.49,1,4
16706.14,0.243,-0.412,-0.86,1.07,3.91,0.31,1,4
16706.156,0.251,-0.401,-0.859,0.4,2.9,0.43,1,4
16706.156,0.254,-0.405,-0.863,-0.09,1.83,0.61,1,4
16706.171,0.258,-0.406,-0.863,0.64,1.59,1.1,1,4
16706.171,0.24,-0.403,-0.865,1.74,1.89,1.92,1,4
16706.187,0.237,-0.399,-0.87,1.92,1.43,3.33,1,4
16706.203,0.256,-0.391,-0.884,1.34,0.82,4.49,1,4
16706.203,0.259,-0.389,-0.889,0.61,0.95,5.01,1,4
16706.218,0.255,-0.387,-0.895,0.15,1.86,7.39,1,4
16706.234,0.249,-0.392,-0.896,-0.52,2.01,8.88,1,4
16706.25,0.239,-0.409,-0.901,-1.22,3.81,11.32,1,4
16706.265,0.245,-0.417,-0.871,-1.59,4.73,12.18,1,4
16706.265,0.253,-0.441,-0.846,-1.68,4.58,11.57,1,4
16706.281,0.256,-0.463,-0.828,-0.27,3.36,9.49,1,4
16706.296,0.239,-0.477,-0.842,2.04,1.56,5.89,1,4
16706.296,0.239,-0.477,-0.869,3.51,-0.15,1.43,1,4
16706.312,0.253,-0.469,-0.892,4.76,-0.49,-2.56,1,4
16706.328,0.26,-0.45,-0.9,5.49,1.01,-5.52,1,4
16706.328,0.249,-0.426,-0.887,5.55,2.96,-7.87,1,4
16706.343,0.242,-0.403,-0.86,5.8,3.45,-9.4,1,4
16706.343,0.244,-0.379,-0.843,6.96,2.56,-10.38,1,4
16706.359,0.247,-0.364,-0.841,8.85,0.85,-10.56,1,4
16706.375,0.248,-0.354,-0.853,10.53,-0.7,-9.19,1,4
16706.375,0.256,-0.346,-0.863,10.96,-1.74,-6.9,1,4
16706.39,0.265,-0.349,-0.864,10.44,-2.32,-4.67,1,4
16706.406,0.262,-0.351,-0.848,10.22,-2.66,-3.11,1,4
16706.421,0.253,-0.341,-0.84,12.73,-4.73,-3.39,1,4
16706.437,0.246,-0.315,-0.872,14.22,-6.68,-4.43,1,4
16706.437,0.243,-0.297,-0.882,17.0,-7.08,-3.02,1,4
16706.453,0.25,-0.271,-0.898,18.04,-6.59,-0.92,1,4
16706.453,0.233,-0.26,-0.88,17.06,-5.92,1.46,1,4
16706.468,0.223,-0.25,-0.868,18.07,-5.28,4.79,1,4
16706.484,0.196,-0.233,-0.837,21.88,-4.82,8.79,1,4
16706.484,0.189,-0.223,-0.827,25.76,-6.47,12.02,1,4
16706.5,0.168,-0.186,-0.805,31.01,-9.64,14.31,1,4
16706.515,0.14,-0.138,-0.781,37.97,-14.86,17.06,1,4
16706.515,0.129,-0.083,-0.714,45.66,-21.64,23.22,1,4
16706.531,0.129,-0.061,-0.745,54.11,-29.76,33.45,1,4
16706.546,0.162,-0.075,-0.837,58.23,-34.91,46.75,1,4
16706.546,0.186,-0.058,-0.779,61.34,-35.1,59.85,1,4
16706.562,0.218,-0.096,-0.792,63.72,-35.62,70.8,1,4
16706.578,0.221,-0.136,-0.764,61.77,-35.77,78.07,1,4
16706.578,0.218,-0.191,-0.654,63.91,-36.68,80.84,1,4
16706.593,0.128,-0.265,-0.622,70.96,-41.08,78.16,1,4
16706.609,0.049,-0.36,-0.675,74.34,-48.92,74.62,1,4
16706.609,0.081,-0.447,-0.712,76.05,-55.51,68.73,1,4
16706.625,0.099,-0.508,-0.749,80.9,-57.68,58.53,1,4
16706.625,0.119,-0.53,-0.754,83.59,-57.25,46.24,1,4
16706.64,0.109,-0.542,-0.684,87.34,-54.93,33.42,1,4
16706.656,0.052,-0.547,-0.642,92.75,-54.57,22.83,1,4
16706.656,0.016,-0.567,-0.652,92.99,-57.5,15.81,1,4
16706.671,0.041,-0.607,-0.657,90.85,-60.79,9.61,1,4
16706.687,0.009,-0.648,-0.688,92.23,-61.01,2.78,1,4
16706.687,0.006,-0.683,-0.709,92.5,-60.18,-4.06,1,4
16706.703,0.04,-0.689,-0.691,93.57,-57.47,-12.88,1,4
16706.703,0.055,-0.672,-0.66,95.86,-53.65,-22.92,1,4
16706.718,0.072,-0.649,-0.596,97.02,-50.23,-31.46,1,4
16706.734,0.074,-0.617,-0.504,98.67,-48.52,-39.37,1,4
16706.734,0.065,-0.601,-0.441,102.05,-50.23,-45.96,1,4
16706.75,0.024,-0.575,-0.425,104.43,-54.29,-49.93,1,4
16706.765,0.0,-0.594,-0.464,103.49,-60.0,-51.39,1,4
16706.765,0.055,-0.616,-0.484,103.27,-62.75,-51.3,1,4
16706.781,0.077,-0.598,-0.474,106.17,-59.42,-52.37,1,4
16706.796,0.042,-0.595,-0.474,106.11,-54.35,-53.01,1,4
16706.796,0.043,-0.615,-0.453,100.96,-50.48,-52.86,1,4
16706.812,0.102,-0.643,-0.388,99.73,-46.48,-54.17,1,4
16706.812,0.091,-0.659,-0.322,105.62,-42.54,-59.24,1,4
16706.828,0.047,-0.671,-0.274,111.79,-41.72,-66.29,1,4
16706.843,0.012,-0.686,-0.22,117.62,-43.82,-73.09,1,4
16706.843,-0.061,-0.723,-0.224,124.39,-48.28,-77.12,1,4
16706.859,-0.056,-0.741,-0.251,130.5,-53.01,-75.78,1,4
16706.875,-0.001,-0.711,-0.26,136.63,-53.68,-72.36,1,4
16706.875,0.044,-0.677,-0.261,141.85,-50.23,-70.65,1,4
16706.89,0.088,-0.654,-0.234,143.96,-44.22,-71.32,1,4
16706.906,0.093,-0.657,-0.193,146.0,-36.74,-73.27,1,4
16706.921,0.053,-0.694,-0.132,154.61,-21.76,-70.28,1,4
16706.937,-0.048,-0.745,-0.113,158.15,-18.92,-63.23,1,4
16706.937,-0.074,-0.827,-0.073,161.84,-23.19,-54.23,1,4
16706.953,-0.043,-0.892,-0.07,170.17,-28.11,-48.55,1,4
16706.953,0.003,-0.922,-0.079,181.16,-29.76,-48.28,1,4
16706.968,0.047,-0.909,-0.074,189.34,-27.38,-52.28,1,4
16706.984,0.099,-0.891,-0.048,193.21,-21.12,-58.14,1,4
16706.984,0.149,-0.87,0.007,194.01,-11.69,-64.33,1,4
16707.0,0.183,-0.839,0.061,193.79,0.67,-69.0,1,4
16707.015,0.199,-0.801,0.126,190.53,12.15,-71.99,1,4
16707.015,0.203,-0.774,0.199,186.86,19.56,-73.58,1,4
16707.031,0.179,-0.759,0.264,183.66,22.1,-73.0,1,4
16707.046,0.162,-0.763,0.316,178.41,18.49,-68.94,1,4
16707.046,0.187,-0.788,0.333,175.54,13.12,-60.46,1,4
16707.062,0.213,-0.795,0.335,175.05,10.65,-48.68,1,4
16707.062,0.25,-0.803,0.338,172.64,10.93,-36.47,1,4
16707.078,0.295,-0.815,0.348,166.08,13.92,-25.7,1,4
16707.093,0.307,-0.829,0.371,156.83,19.01,-17.76,1,4
16707.093,0.322,-0.834,0.388,147.89,24.41,-14.34,1,4
16707.109,0.308,-0.877,0.41,141.12,29.18,-15.2,1,4
16707.125,0.315,-0.912,0.472,136.85,27.22,-16.94,1,4
16707.125,0.316,-0.928,0.525,142.55,25.3,-23.56,1,4
16707.14,0.302,-0.955,0.555,156.35,21.12,-31.22,1,4
16707.156,0.314,-0.951,0.567,172.06,13.73,-37.29,1,4
16707.156,0.328,-0.926,0.561,187.35,6.96,-42.3,1,4
16707.171,0.364,-0.92,0.532,201.88,2.23,-46.27,1,4
16707.187,0.437,-0.903,0.501,213.42,0.95,-46.82,1,4
16707.187,0.504,-0.852,0.489,218.97,4.91,-45.66,1,4
16707.203,0.528,-0.835,0.48,219.24,12.73,-45.53,1,4
16707.203,0.515,-0.828,0.496,210.03,28.14,-50.6,1,4
16707.218,0.479,-0.821,0.555,206.34,26.64,-56.18,1,4
16707.234,0.446,-0.833,0.605,205.45,21.06,-63.02,1,4
16707.25,0.483,-0.82,0.692,206.98,10.9,-79.99,1,4
16707.265,0.507,-0.798,0.696,214.09,10.07,-89.54,1,4
16707.265,0.517,-0.764,0.678,223.79,11.32,-97.45,1,4
16707.281,0.532,-0.718,0.657,232.22,13.06,-104.71,1,4
16707.296,0.555,-0.683,0.647,237.46,14.13,-111.82,1,4
16707.296,0.575,-0.654,0.636,238.35,14.19,-117.86,1,4
16707.312,0.584,-0.616,0.624,233.22,15.26,-121.77,1,4
16707.328,0.638,-0.581,0.638,223.43,18.98,-124.52,1,4
16707.328,0.671,-0.535,0.68,213.6,26.89,-127.63,1,4
16707.343,0.652,-0.492,0.724,204.99,35.22,-130.19,1,4
16707.359,0.641,-0.463,0.759,197.06,38.76,-132.54,1,4
16707.359,0.643,-0.45,0.799,190.74,37.72,-135.47,1,4
16707.375,0.612,-0.388,0.853,185.92,35.0,-140.17,1,4
16707.39,0.576,-0.335,0.894,186.47,32.11,-146.92,1,4
16707.39,0.56,-0.267,0.917,189.43,27.04,-155.49,1,4
16707.406,0.563,-0.171,0.935,192.57,20.94,-163.43,1,4
16707.406,0.585,-0.074,0.937,194.95,16.45,-168.83,1,4
16707.421,0.597,0.011,0.936,195.72,13.98,-170.35,1,4
16707.437,0.617,0.064,0.916,194.04,13.86,-164.95,1,4
16707.437,0.607,0.135,0.897,185.8,15.11,-154.42,1,4
16707.453,0.558,0.175,0.866,173.65,15.38,-142.64,1,4
16707.453,0.502,0.185,0.821,160.95,13.95,-131.93,1,4
16707.468,0.498,0.206,0.782,149.94,10.68,-122.99,1,4
16707.484,0.511,0.229,0.736,143.35,8.88,-116.15,1,4
16707.484,0.546,0.258,0.712,138.58,10.01,-110.05,1,4
16707.5,0.572,0.28,0.718,134.46,15.32,-102.85,1,4
16707.515,0.588,0.299,0.748,129.0,23.87,-93.94,1,4
16707.515,0.562,0.34,0.8,119.72,34.76,-85.76,1,4
16707.531,0.485,0.343,0.85,109.71,43.79,-80.81,1,4
16707.546,0.436,0.342,0.91,101.93,47.85,-76.51,1,4
16707.546,0.4,0.367,0.966,99.31,48.31,-72.12,1,4
16707.562,0.372,0.368,0.98,100.92,45.35,-68.18,1,4
16707.578,0.379,0.36,0.96,103.0,39.22,-63.94,1,4
16707.578,0.441,0.377,0.945,104.19,35.13,-58.96,1,4
16707.593,0.528,0.411,0.948,102.05,38.51,-54.11,1,4
16707.593,0.575,0.454,0.975,93.05,49.32,-50.05,1,4
16707.609,0.549,0.49,1.037,77.24,62.93,-45.29,1,4
16707.625,0.481,0.473,1.085,58.2,73.79,-38.27,1,4
16707.625,0.424,0.449,1.133,37.75,79.17,-30.82,1,4
16707.64,0.378,0.428,1.189,20.97,78.92,-25.61,1,4
16707.656,0.347,0.374,1.232,12.67,73.43,-23.53,1,4
16707.656,0.336,0.348,1.287,13.21,65.03,-24.78,1,4
16707.671,0.308,0.315,1.322,24.41,54.11,-29.82,1,4
16707.687,0.276,0.295,1.33,41.96,40.19,-36.16,1,4
16707.687,0.281,0.319,1.301,60.21,26.46,-41.66,1,4
16707.703,0.29,0.375,1.239,73.09,17.27,-46.63,1,4
16707.703,0.285,0.448,1.165,75.26,13.76,-49.44,1,4
16707.718,0.267,0.496,1.105,65.74,14.65,-48.74,1,4
16707.734,0.253,0.514,1.06,49.07,18.28,-45.69,1,4
16707.75,0.243,0.535,1.047,14.31,32.65,-41.29,1,4
16707.765,0.131,0.554,1.149,11.02,38.33,-43.64,1,4
16707.781,0.005,0.511,1.165,26.15,34.33,-43.67,1,4
16707.781,-0.069,0.54,1.14,44.28,22.06,-38.82,1,4
16707.796,-0.085,0.61,1.088,58.11,4.67,-32.96,1,4
16707.796,-0.048,0.655,1.008,61.62,-11.2,-29.05,1,4
16707.812,-0.021,0.691,0.912,53.68,-19.65,-26.43,1,4
16707.828,-0.005,0.724,0.842,39.89,-19.2,-21.18,1,4
16707.828,0.006,0.764,0.813,24.26,-11.41,-11.66,1,4
16707.843,0.004,0.779,0.814,10.53,-0.27,-0.18,1,4
16707.859,-0.014,0.785,0.852,0.85,11.75,11.81,1,4
16707.859,-0.056,0.785,0.906,-3.91,20.87,22.46,1,4
16707.875,-0.101,0.765,0.931,-3.91,24.17,30.76,1,4
16707.875,-0.126,0.741,0.933,-1.53,22.22,36.53,1,4
16707.89,-0.135,0.735,0.903,0.24,17.4,39.86,1,4
16707.906,-0.128,0.745,0.859,1.34,12.54,42.48,1,4
16707.921,-0.101,0.714,0.768,7.69,12.88,51.67,1,4
16707.921,-0.066,0.722,0.708,6.81,18.8,58.69,1,4
16707.937,-0.051,0.715,0.685,-1.1,27.47,65.16,1,4
16707.953,-0.052,0.674,0.696,-12.42,36.16,70.62,1,4
16707.953,-0.064,0.63,0.73,-23.26,43.0,76.66,1,4
16707.968,-0.088,0.608,0.759,-34.55,45.87,82.71,1,4
16707.984,-0.103,0.585,0.818,-47.88,43.76,86.73,1,4
16708.0,-0.101,0.542,0.884,-60.12,36.93,87.68,1,4
16708.0,-0.065,0.504,0.936,-69.95,26.25,86.18,1,4
16708.015,0.008,0.473,0.97,-72.66,16.79,84.02,1,4
16708.015,0.08,0.42,0.978,-65.55,14.16,82.06,1,4
16708.031,0.14,0.364,0.959,-51.42,18.56,78.62,1,4
16708.046,0.177,0.354,0.937,-36.26,27.92,74.19,1,4
16708.046,0.18,0.368,0.918,-26.43,38.24,68.42,1,4
16708.062,0.165,0.386,0.929,-25.85,44.1,60.73,1,4
16708.078,0.134,0.411,0.979,-30.85,44.68,53.5,1,4
16708.078,0.106,0.428,1.031,-35.13,40.13,48.71,1,4
16708.093,0.117,0.446,1.071,-37.2,30.55,45.9,1,4
16708.093,0.162,0.458,1.079,-36.53,20.66,44.92,1,4
16708.109,0.204,0.452,1.046,-33.33,14.89,44.13,1,4
16708.125,0.24,0.451,0.997,-30.64,13.92,42.48,1,4
16708.125,0.269,0.437,0.946,-28.08,17.27,40.68,1,4
16708.14,0.271,0.465,0.928,-26.55,24.05,38.39,1,4
16708.156,0.259,0.469,0.911,-26.0,31.04,36.41,1,4
16708.156,0.257,0.431,0.9,-26.4,36.96,34.36,1,4
16708.171,0.231,0.432,0.876,-25.79,43.21,31.86,1,4
16708.187,0.195,0.439,0.907,-28.02,47.24,29.69,1,4
16708.187,0.177,0.426,0.946,-33.27,45.41,26.31,1,4
16708.203,0.161,0.419,0.963,-34.94,42.05,24.99,1,4
16708.203,0.161,0.396,0.977,-34.15,38.12,23.59,1,4
16708.218,0.117,0.407,1.059,-24.11,28.84,26.86,1,4
16708.234,0.175,0.45,1.109,-17.76,16.08,33.94,1,4
16708.25,0.237,0.462,1.072,-22.19,7.35,33.11,1,4
16708.25,0.244,0.44,1.039,-25.88,4.94,28.63,1,4
16708.265,0.25,0.43,1.012,-29.88,4.3,25.54,1,4
16708.281,0.234,0.429,0.998,-34.18,3.27,21.18,1,4
16708.281,0.198,0.428,0.997,-36.96,0.89,16.17,1,4
16708.296,0.167,0.428,0.984,-34.91,-3.66,12.15,1,4
16708.296,0.156,0.432,0.969,-22.95,-8.03,11.38,1,4
16708.312,0.142,0.478,0.949,-1.98,-9.03,13.28,1,4
16708.328,0.13,0.537,0.873,16.6,-9.61,14.62,1,4
16708.328,0.148,0.556,0.793,18.74,-11.6,14.5,1,4
16708.343,0.176,0.571,0.766,6.29,-10.93,15.59,1,4
16708.343,0.19,0.551,0.765,-5.68,-3.75,21.79,1,4
16708.359,0.192,0.523,0.795,-15.75,6.47,31.86,1,4
16708.375,0.175,0.511,0.855,-25.39,14.95,43.73,1,4
16708.375,0.171,0.435,0.902,-34.73,18.59,55.06,1,4
16708.39,0.185,0.351,0.941,-43.98,18.16,61.34,1,4
16708.406,0.194,0.291,0.975,-49.47,16.27,62.72,1,4
16708.406,0.211,0.206,0.997,-49.1,13.28,60.37,1,4
16708.421,0.221,0.142,1.017,-43.31,10.77,53.8,1,4
16708.421,0.226,0.108,1.031,-32.01,9.31,45.35,1,4
16708.437,0.244,0.09,1.023,-17.4,9.52,36.99,1,4
16708.453,0.254,0.128,1.011,-3.78,12.39,29.69,1,4
16708.453,0.248,0.169,1.0,6.9,16.57,25.85,1,4
16708.468,0.235,0.214,0.991,11.72,20.45,25.33,1,4
16708.484,0.211,0.249,0.978,10.74,22.83,26.03,1,4
16708.484,0.184,0.256,0.979,1.92,21.97,26.92,1,4
16708.5,0.179,0.249,0.995,-12.18,18.13,25.82,1,4
16708.515,0.174,0.225,1.0,-22.52,13.31,22.68,1,4
16708.515,0.17,0.195,0.997,-26.18,9.52,19.47,1,4
16708.531,0.179,0.185,0.987,-25.7,7.45,15.69,1,4
16708.546,0.183,0.219,0.975,-23.59,7.69,9.46,1,4
16708.546,0.136,0.216,0.965,-21.12,8.42,1.07,1,4
16708.562,0.141,0.205,0.973,-19.68,7.14,-0.76,1,4
16708.562,0.151,0.236,0.955,-14.13,9.34,-0.34,1,4
16708.578,0.143,0.228,0.941,-8.7,13.76,1.22,1,4
16708.593,0.124,0.219,0.97,-6.74,15.93,4.52,1,4
16708.609,0.106,0.239,0.997,-4.12,15.11,6.16,1,4
16708.609,0.076,0.225,1.009,-1.16,11.72,6.44,1,4
16708.625,0.048,0.215,1.019,1.28,6.29,8.3,1,4
16708.625,0.034,0.236,1.021,4.12,-0.79,9.7,1,4
16708.64,0.032,0.244,0.984,5.62,-8.58,10.32,1,4
16708.656,0.046,0.252,0.945,1.59,-14.68,10.44,1,4
16708.656,0.065,0.24,0.921,-5.77,-18.16,9.22,1,4
16708.671,0.072,0.208,0.915,-11.6,-18.98,7.45,1,4
16708.671,0.073,0.186,0.92,-13.4,-17.55,6.62,1,4
16708.687,0.097,0.176,0.918,-11.44,-14.53,6.44,1,4
16708.703,0.101,0.185,0.924,-8.33,-9.8,5.95,1,4
16708.703,0.104,0.195,0.934,-5.92,-5.4,5.71,1,4
16708.718,0.1,0.211,0.942,-5.1,-1.74,5.31,1,4
16708.734,0.095,0.218,0.952,-5.62,0.46,4.76,1,4
16708.734,0.088,0.225,0.961,-6.5,1.07,3.42,1,4
16708.75,0.082,0.245,0.967,-6.62,0.58,1.95,1,4
16708.765,0.08,0.26,0.962,-5.28,-0.31,1.5,1,4
16708.765,0.094,0.27,0.951,-3.51,-1.01,2.56,1,4
16708.781,0.101,0.279,0.969,-1.68,0.37,3.75,1,4
16708.796,0.084,0.277,0.965,1.68,3.39,5.19,1,4
16708.796,0.085,0.274,0.985,2.66,4.46,8.76,1,4
16708.812,0.09,0.253,0.99,1.62,2.01,11.17,1,4
16708.812,0.12,0.239,0.971,-0.7,-1.4,11.54,1,4
16708.828,0.141,0.221,0.961,-2.72,-2.72,10.19,1,4
16708.843,0.145,0.21,0.95,-3.02,-2.11,7.84,1,4
16708.843,0.155,0.206,0.944,-2.23,-0.64,5.8,1,4
16708.859,0.161,0.201,0.937,-1.04,1.16,3.75,1,4
16708.875,0.16,0.199,0.936,0.55,3.08,1.43,1,4
16708.875,0.16,0.197,0.94,2.47,4.06,-1.07,1,4
16708.89,0.16,0.202,0.941,4.61,5.01,-3.3,1,4
16708.906,0.155,0.213,0.94,6.47,5.25,-5.01,1,4
16708.906,0.16,0.234,0.949,8.06,5.25,-5.46,1,4
16708.921,0.148,0.271,0.953,9.7,6.13,-4.15,1,4
16708.937,0.149,0.292,0.937,8.15,5.37,0.24,1,4
16708.953,0.157,0.285,0.938,5.1,5.68,1.65,1,4
16708.953,0.144,0.278,0.957,3.14,6.01,2.41,1,4
16708.968,0.144,0.277,0.96,3.3,5.92,4.09,1,4
16708.984,0.156,0.272,0.952,3.97,6.16,5.55,1,4
16708.984,0.155,0.256,0.963,3.05,6.53,4.79,1,4
16709.0,0.155,0.246,0.976,1.89,6.07,3.08,1,4
16709.015,0.161,0.253,0.991,0.85,4.76,1.98,1,4
16709.015,0.163,0.255,0.985,0.27,3.78,1.13,1,4
16709.031,0.167,0.252,0.981,-0.61,2.9,0.34,1,4
16709.046,0.174,0.246,0.98,-0.92,2.38,-0.31,1,4
16709.046,0.165,0.233,0.968,-0.73,2.01,-1.01,1,4
16709.062,0.161,0.213,0.938,-1.56,1.65,-1.37,1,4
16709.078,0.149,0.204,0.919,-4.18,2.35,-2.26,1,4
16709.078,0.133,0.183,0.898,-5.31,3.51,-1.98,1,4
16709.093,0.106,0.169,0.85,-5.65,4.7,0.03,1,4
16709.109,0.14,0.282,0.899,-11.87,7.75,2.38,1,4
16709.125,0.113,0.335,0.964,-21.24,8.94,2.84,1,4
16709.125,0.152,0.312,1.021,-34.67,7.26,5.1,1,4
16709.14,0.227,0.287,1.081,-46.45,7.29,5.52,1,4
16709.156,0.255,0.253,1.145,-48.65,13.12,4.67,1,4
16709.156,0.266,0.186,1.219,-42.97,21.64,4.58,1,4
16709.171,0.256,0.15,1.295,-34.42,28.84,0.58,1,4
16709.187,0.195,0.094,1.339,0.61,24.32,-21.94,1,4
16709.187,0.109,0.037,1.327,23.9,7.48,-34.7,1,4
16709.203,0.028,0.082,1.236,40.01,-5.77,-41.02,1,4
16709.203,0.018,0.33,0.778,42.94,-12.45,-38.48,1,4
16709.218,-0.039,0.339,0.671,34.61,-8.88,-30.3,1,4
16709.234,-0.046,0.333,0.671,21.09,-3.33,-15.63,1,4
16709.25,-0.012,0.328,0.681,4.15,1.46,-1.53,1,4
16709.25,0.023,0.279,0.701,-15.14,6.87,8.39,1,4
16709.265,0.049,0.211,0.779,-29.45,14.01,14.37,1,4
16709.281,0.021,0.097,0.955,-28.26,22.43,14.59,1,4
16709.296,0.027,0.079,0.992,-20.05,17.85,10.62,1,4
16709.296,0.039,0.102,1.027,-8.82,12.24,6.07,1,4
16709.312,0.051,0.128,1.027,3.57,7.42,3.54,1,4
16709.312,0.063,0.162,1.0,11.02,3.05,4.03,1,4
16709.328,0.076,0.19,0.985,11.02,-0.55,5.65,1,4
16709.343,0.075,0.198,0.981,6.9,-3.6,6.56,1,4
16709.343,0.075,0.184,0.966,2.56,-5.58,6.81,1,4
16709.359,0.083,0.184,0.952,-0.82,-5.92,7.42,1,4
16709.375,0.088,0.189,0.957,-2.32,-5.37,8.0,1,4
16709.375,0.093,0.175,0.951,-1.98,-4.52,6.96,1,4
16709.39,0.099,0.185,0.957,-0.34,-2.99,4.76,1,4
16709.406,0.104,0.202,0.958,2.87,-1.25,2.53,1,4
16709.406,0.105,0.215,0.962,5.71,-0.15,0.64,1,4
16709.421,0.105,0.234,0.973,6.74,0.61,-1.01,1,4
16709.437,0.101,0.25,0.978,6.16,-0.12,-2.5,1,4
16709.437,0.094,0.256,0.98,5.01,-1.46,-3.45,1,4
16709.453,0.089,0.259,0.988,4.46,-2.72,-3.88,1,4
16709.453,0.081,0.257,0.994,4.91,-3.91,-3.45,1,4
16709.468,0.078,0.249,0.987,5.34,-5.74,-2.69,1,4
16709.484,0.083,0.244,0.974,4.85,-7.72,-2.56,1,4
16709.484,0.088,0.242,0.974,4.67,-8.73,-3.39,1,4
16709.5,0.082,0.242,0.977,6.44,-8.73,-4.03,1,4
16709.515,0.083,0.244,0.977,8.55,-9.28,-3.36,1,4
16709.515,0.084,0.245,0.98,9.25,-10.28,-2.87,1,4
16709.531,0.074,0.246,1.005,8.64,-11.38,-2.81,1,4
16709.546,0.065,0.234,1.01,8.64,-13.7,-2.23,1,4
16709.546,0.071,0.219,0.998,7.39,-17.0,-1.4,1,4
16709.562,0.082,0.208,0.981,6.04,-19.29,-1.13,1,4
16709.578,0.092,0.199,0.958,5.58,-19.32,-1.34,1,4
16709.578,0.091,0.194,0.944,5.68,-17.55,-1.89,1,4
16709.593,0.087,0.203,0.944,5.4,-14.92,-2.38,1,4
16709.609,0.091,0.211,0.94,3.72,-13.46,-2.69,1,4
16709.609,0.099,0.211,0.938,1.98,-12.3,-2.53,1,4
16709.625,0.111,0.209,0.924,0.43,-10.38,-2.53,1,4
16709.625,0.122,0.21,0.92,-0.31,-6.9,-2.93,1,4
16709.64,0.123,0.212,0.914,0.09,-2.23,-3.45,1,4
16709.656,0.119,0.219,0.931,0.85,1.71,-3.42,1,4
16709.656,0.112,0.235,0.963,2.11,3.85,-2.96,1,4
16709.671,0.112,0.24,0.971,4.03,3.6,-1.92,1,4
16709.687,0.116,0.247,0.983,4.43,2.59,-1.07,1,4
16709.703,0.104,0.253,1.01,5.04,1.16,-0.73,1,4
16709.703,0.102,0.248,1.011,5.52,-2.44,-0.24,1,4
16709.703,0.117,0.244,0.999,4.7,-6.78,0.06,1,4
16709.718,0.129,0.24,0.982,3.97,-9.61,-0.49,1,4
16709.734,0.139,0.226,0.952,3.11,-10.38,-1.4,1,4
16709.734,0.151,0.217,0.937,2.01,-9.19,-2.44,1,4
16709.75,0.158,0.214,0.928,2.14,-6.32,-3.94,1,4
16709.765,0.153,0.221,0.929,2.84,-2.72,-5.49,1,4
16709.765,0.141,0.241,0.949,3.17,0.37,-6.5,1,4
16709.781,0.124,0.258,0.959,2.96,1.62,-6.01,1,4
16709.781,0.12,0.261,0.96,1.1,0.95,-5.04,1,4
16709.796,0.127,0.253,0.958,-1.68,-0.09,-4.39,1,4
16709.812,0.133,0.238,0.953,-2.99,-0.58,-4.36,1,4
16709.812,0.138,0.226,0.948,-2.84,-0.34,-4.88,1,4
16709.828,0.146,0.217,0.943,-1.28,0.7,-5.65,1,4
16709.843,0.144,0.218,0.939,1.25,2.26,-6.53,1,4
16709.843,0.138,0.221,0.942,3.48,3.51,-7.35,1,4
16709.859,0.13,0.23,0.946,4.94,4.21,-8.27,1,4
16709.875,0.125,0.236,0.952,5.86,4.43,-8.97,1,4
16709.875,0.117,0.242,0.954,6.29,4.36,-8.88,1,4
16709.89,0.112,0.251,0.955,5.52,4.12,-8.09,1,4
16709.906,0.11,0.261,0.961,3.94,3.63,-6.96,1,4
16709.906,0.104,0.258,0.963,2.32,2.93,-5.43,1,4
16709.921,0.103,0.249,0.966,0.15,1.89,-4.12,1,4
16709.921,0.103,0.241,0.972,-1.25,0.4,-3.45,1,4
16709.937,0.107,0.224,0.972,-0.98,-1.07,-3.42,1,4
16709.953,0.114,0.217,0.974,0.24,-2.01,-4.15,1,4
16709.968,0.122,0.214,0.973,4.36,-2.2,-7.63,1,4
16709.984,0.122,0.231,0.973,6.04,-1.71,-9.0,1,4
16710.0,0.117,0.245,0.971,6.62,-1.53,-9.49,1,4
16710.0,0.114,0.249,0.971,6.2,-1.62,-9.03,1,4
16710.015,0.119,0.254,0.973,5.07,-1.98,-8.06,1,4
16710.015,0.124,0.255,0.973,3.66,-2.17,-6.96,1,4
16710.031,0.123,0.255,0.975,1.71,-2.35,-5.89,1,4
16710.046,0.117,0.257,0.977,-0.12,-2.66,-5.16,1,4
16710.046,0.116,0.254,0.976,-1.16,-3.2,-4.67,1,4
16710.062,0.108,0.256,0.974,-0.85,-3.42,-4.39,1,4
16710.062,0.099,0.259,0.969,0.43,-3.72,-4.18,1,4
16710.078,0.096,0.258,0.96,1.4,-4.03,-4.12,1,4
16710.093,0.097,0.259,0.953,2.01,-4.15,-4.36,1,4
16710.093,0.094,0.259,0.947,2.11,-4.0,-4.82,1,4
16710.109,0.089,0.255,0.945,1.92,-3.63,-5.16,1,4
16710.125,0.094,0.255,0.946,1.74,-3.2,-4.67,1,4
16710.14,0.1,0.254,0.955,1.13,-2.35,-4.0,1,4
16710.14,0.1,0.251,0.959,0.95,-2.23,-3.91,1,4
16710.156,0.104,0.25,0.957,1.53,-1.71,-3.91,1,4
16710.171,0.106,0.249,0.956,1.86,-0.92,-3.97,1,4
16710.187,0.107,0.253,0.954,1.95,-0.15,-3.94,1,4
16710.187,0.108,0.254,0.957,1.62,0.89,-3.66,1,4
16710.203,0.094,0.269,0.962,0.46,1.04,-3.11,1,4
16710.218,0.095,0.267,0.96,-1.25,0.37,-2.14,1,4
16710.218,0.097,0.263,0.955,-2.53,0.4,-0.92,1,4
16710.234,0.102,0.254,0.952,-3.3,0.73,0.12,1,4
16710.234,0.1,0.241,0.959,-3.75,1.4,0.49,1,4
16710.25,0.103,0.235,0.969,-3.94,1.4,0.43,1,4
16710.265,0.106,0.234,0.972,-3.75,0.89,-0.21,1,4
16710.265,0.102,0.234,0.973,-2.81,0.4,-1.19,1,4
16710.281,0.101,0.243,0.97,-1.56,0.15,-1.74,1,4
16710.296,0.105,0.254,0.965,-0.58,0.31,-1.8,1,4
16710.312,0.103,0.257,0.96,-0.34,1.13,-2.08,1,4
16710.312,0.099,0.254,0.955,-1.1,1.25,-2.26,1,4
16710.328,0.096,0.247,0.947,-1.83,1.04,-2.62,1,4
16710.343,0.098,0.246,0.932,-2.62,1.25,-3.48,1,4
16710.343,0.108,0.246,0.919,-3.57,3.36,-4.76,1,4
16710.359,0.118,0.237,0.931,-4.24,7.17,-5.89,1,4
16710.375,0.113,0.243,0.966,-3.81,10.13,-5.98,1,4
16710.375,0.097,0.233,0.973,-2.84,10.71,-5.86,1,4
16710.39,0.096,0.222,0.957,-3.42,9.49,-7.23,1,4
16710.406,0.093,0.243,0.914,-5.65,8.61,-9.4,1,4
16710.406,0.105,0.282,0.889,-9.22,9.09,-11.69,1,4
16710.421,0.051,0.342,0.942,-10.83,11.26,-11.84,1,4
16710.421,0.026,0.376,0.951,-11.17,9.89,-5.71,1,4
16710.437,0.049,0.404,0.935,-18.52,7.29,3.48,1,4
16710.453,0.073,0.363,0.962,-30.85,9.06,12.48,1,4
16710.453,0.087,0.268,1.02,-42.27,13.03,18.98,1,4
16710.468,0.098,0.169,1.075,-47.15,15.26,20.36,1,4
16710.484,0.087,0.052,1.125,-42.15,14.8,16.24,1,4
16710.484,0.069,-0.024,1.178,-25.36,11.14,8.15,1,4
16710.5,0.103,-0.018,1.179,3.2,5.01,-2.32,1,4
16710.515,0.143,0.045,1.084,32.17,2.78,-13.49,1,4
16710.531,0.087,0.174,1.008,40.8,3.63,-20.69,1,4
16710.531,0.068,0.271,0.981,38.0,-1.28,-23.01,1,4
16710.531,0.107,0.257,0.881,32.47,-3.75,-19.62,1,4
16710.546,0.072,0.308,0.863,19.84,-1.1,-15.81,1,4
16710.562,0.058,0.31,0.878,9.03,1.19,-9.52,1,4
16710.578,0.059,0.297,0.88,-0.7,0.85,-3.45,1,4
16710.578,0.059,0.265,0.891,-9.22,0.43,0.61,1,4
16710.593,0.062,0.228,0.911,-13.46,-0.4,2.5,1,4
16710.593,0.072,0.206,0.922,-12.27,-0.73,2.56,1,4
16710.609,0.07,0.187,0.927,-7.02,-0.31,0.61,1,4
16710.625,0.061,0.184,0.928,-0.31,-0.24,-2.59,1,4
16710.625,0.072,0.2,0.935,5.95,0.12,-5.28,1,4
16710.64,0.074,0.228,0.941,10.25,1.31,-6.93,1,4
16710.656,0.075,0.25,0.933,10.74,2.53,-6.44,1,4
16710.656,0.084,0.262,0.941,7.02,3.6,-4.49,1,4
16710.671,0.083,0.265,0.954,0.98,4.09,-2.14,1,4
16710.671,0.078,0.249,0.972,-5.55,3.85,0.0,1,4
16710.687,0.073,0.227,0.993,-10.16,2.62,1.4,1,4
16710.703,0.073,0.216,1.007,-12.18,0.37,2.04,1,4
16710.718,0.072,0.203,1.009,-11.75,-1.86,1.34,1,4
16710.718,0.074,0.199,1.003,-9.25,-3.66,1.1,1,4
16710.734,0.072,0.199,0.998,-6.35,-4.39,1.34,1,4
16710.734,0.059,0.199,0.985,-3.14,-4.61,0.67,1,4
16710.75,0.061,0.202,0.965,-0.7,-5.25,0.43,1,4
16710.765,0.069,0.212,0.949,0.21,-5.43,0.21,1,4
16710.765,0.069,0.218,0.941,0.92,-4.36,-0.21,1,4
16710.781,0.064,0.225,0.94,1.28,-2.75,-0.12,1,4
16710.796,0.06,0.231,0.942,1.19,-1.28,0.46,1,4
16710.796,0.058,0.239,0.954,-0.18,-0.34,1.25,1,4
16710.812,0.059,0.24,0.967,-1.71,0.24,2.2,1,4
16710.812,0.061,0.237,0.983,-3.39,0.31,2.99,1,4
16710.828,0.062,0.232,0.993,-4.36,0.18,3.23,1,4
16710.843,0.063,0.227,1.001,-4.58,-0.18,2.93,1,4
16710.859,0.063,0.227,1.004,-4.03,-0.67,2.04,1,4
16710.859,0.057,0.228,1.002,-2.9,-1.13,0.98,1,4
16710.875,0.057,0.226,0.988,-1.74,-1.34,0.24,1,4
16710.89,0.062,0.23,0.975,-1.62,-1.19,-0.46,1,4
16710.906,0.056,0.233,0.967,-1.43,-0.52,-1.4,1,4
16710.906,0.044,0.229,0.962,-1.01,0.21,-1.95,1,4
16710.906,0.037,0.226,0.96,-1.13,0.73,-1.86,1,4
16710.921,0.032,0.232,0.961,-1.62,0.82,-2.26,1,4
16710.937,0.023,0.23,0.965,-1.16,0.61,-2.08,1,4
16710.937,0.018,0.231,0.969,-0.7,-0.06,-1.34,1,4
16710.953,0.014,0.234,0.968,0.03,-1.1,-0.73,1,4
16710.953,0.015,0.222,0.962,1.25,-2.47,0.24,1,4
16710.968,0.026,0.22,0.949,1.43,-3.69,0.85,1,4
16710.984,0.036,0.223,0.942,1.59,-4.21,0.61,1,4
16710.984,0.04,0.213,0.939,2.59,-4.0,0.15,1,4
16711.0,0.045,0.217,0.941,3.54,-3.63,0.21,1,4
16711.015,0.049,0.222,0.947,3.75,-3.48,0.37,1,4
16711.015,0.059,0.222,0.945,3.63,-3.11,0.64,1,4
16711.031,0.071,0.219,0.952,2.78,-1.95,1.01,1,4
16711.046,0.069,0.218,0.974,1.86,-0.37,0.95,1,4
16711.046,0.066,0.214,0.989,1.5,0.34,0.09,1,4
16711.062,0.075,0.212,0.998,1.62,0.24,-0.67,1,4
16711.078,0.083,0.207,1.001,2.62,0.64,-1.53,1,4
16711.078,0.082,0.204,1.001,4.03,1.83,-2.56,1,4
16711.093,0.079,0.201,1.002,5.55,2.9,-4.36,1,4
16711.093,0.075,0.195,1.011,6.99,3.45,-6.41,1,4
16711.109,0.065,0.203,1.009,9.43,3.51,-8.51,1,4
16711.125,0.063,0.219,0.993,11.93,2.99,-9.43,1,4
16711.125,0.068,0.228,0.976,13.67,2.9,-9.77,1,4
16711.14,0.062,0.239,0.968,16.14,5.1,-8.73,1,4
16711.156,0.056,0.251,0.962,15.63,5.68,-7.23,1,4
16711.171,0.052,0.269,0.956,11.26,5.37,-4.03,1,4
16711.187,0.037,0.277,0.952,7.81,4.0,-2.2,1,4
16711.187,0.041,0.274,0.95,3.94,2.66,-0.58,1,4
16711.203,0.04,0.27,0.955,1.65,2.17,0.34,1,4
16711.218,0.04,0.256,0.951,1.04,1.89,1.13,1,4
16711.218,0.041,0.247,0.953,1.25,2.14,1.31,1,4
16711.234,0.041,0.246,0.957,2.14,2.08,0.85,1,4
16711.234,0.039,0.249,0.961,2.78,1.56,0.18,1,4
16711.25,0.045,0.254,0.96,3.08,0.85,0.31,1,4
16711.265,0.055,0.256,0.963,3.05,0.85,0.79,1,4
16711.265,0.056,0.249,0.977,3.14,1.16,1.43,1,4
16711.281,0.055,0.239,0.988,4.39,1.19,2.47,1,4
16711.296,0.054,0.233,1.004,6.87,1.04,3.66,1,4
16711.296,0.037,0.236,1.034,10.47,0.37,4.12,1,4
16711.312,0.015,0.225,1.063,17.24,-2.35,4.73,1,4
16711.312,-0.012,0.224,1.106,28.69,-7.35,6.47,1,4
16711.343,-0.005,0.264,0.994,54.41,-21.88,14.25,1,4
16711.343,-0.064,0.409,1.135,57.56,-25.42,20.08,1,4
16711.359,-0.098,0.417,1.148,58.5,-39.58,31.19,1,4
16711.375,0.004,0.457,1.049,37.26,-60.06,40.53,1,4
16711.39,0.068,0.47,0.983,6.32,-70.13,45.56,1,4
16711.39,0.095,0.385,0.946,-14.25,-71.96,49.65,1,4
16711.406,0.125,0.311,0.946,-23.26,-69.4,53.8,1,4
16711.406,0.126,0.254,0.931,-21.27,-64.27,54.84,1,4
16711.421,0.136,0.213,0.903,-14.53,-59.69,52.74,1,4
16711.437,0.162,0.187,0.892,-8.85,-55.15,47.49,1,4
16711.437,0.191,0.182,0.876,-4.91,-49.59,38.36,1,4
16711.453,0.24,0.196,0.831,-3.14,-43.43,27.53,1,4
16711.453,0.287,0.199,0.756,-4.49,-33.91,15.72,1,4
16711.468,0.301,0.194,0.72,-9.25,-20.87,3.3,1,4
16711.484,0.305,0.203,0.716,-11.99,-5.77,-8.15,1,4
16711.484,0.283,0.207,0.679,-13.86,9.61,-17.82,1,4
16711.515,0.146,0.214,0.786,-21.64,36.41,-28.72,1,4
16711.515,0.08,0.223,0.864,-17.94,40.65,-26.55,1,4
16711.531,0.049,0.268,0.92,-15.75,37.66,-20.42,1,4
16711.546,0.158,0.239,0.934,-15.63,30.85,-13.92,1,4
16711.546,0.138,0.23,0.861,-16.75,28.63,-16.27,1,4
16711.562,-0.003,0.299,1.127,-18.37,25.48,-14.1,1,4
16711.562,0.1,0.32,1.198,-7.84,6.99,2.53,1,4
16711.578,0.224,0.393,1.05,-10.77,-6.59,14.31,1,4
16711.593,0.253,0.339,1.005,-24.99,-9.31,15.63,1,4
16711.593,0.251,0.256,0.982,-34.73,-6.65,16.05,1,4
16711.609,0.222,0.209,0.998,-37.57,-3.14,15.38,1,4
16711.625,0.223,0.152,0.998,-34.49,-1.4,11.14,1,4
16711.625,0.222,0.136,1.001,-27.99,-0.06,3.39,1,4
16711.64,0.206,0.142,1.007,-17.06,1.71,-5.25,1,4
16711.656,0.184,0.184,1.003,-5.74,3.05,-10.32,1,4
16711.656,0.168,0.245,0.989,1.86,4.0,-12.05,1,4
16711.671,0.139,0.286,0.931,-2.44,3.78,-9.77,1,4
16711.687,0.134,0.277,0.918,-9.55,4.61,-7.9,1,4
16711.703,0.129,0.244,0.878,-16.14,5.89,-7.2,1,4
16711.703,0.134,0.211,0.858,-23.04,8.36,-7.9,1,4
16711.718,0.128,0.177,0.896,-26.64,11.35,-10.28,1,4
16711.734,0.1,0.155,0.93,-24.2,12.3,-12.51,1,4
16711.734,0.096,0.173,0.973,-18.19,11.02,-11.87,1,4
16711.75,0.099,0.193,1.039,-10.53,7.32,-9.77,1,4
16711.765,0.122,0.218,1.029,-3.33,1.53,-6.99,1,4
16711.765,0.157,0.232,1.001,-1.1,-2.38,-4.64,1,4
16711.781,0.165,0.228,0.99,-2.9,-3.6,-3.54,1,4
16711.781,0.176,0.206,0.979,-5.19,-4.3,-4.18,1,4
16711.796,0.187,0.188,0.96,-5.86,-3.81,-6.5,1,4
16711.812,0.187,0.182,0.955,-6.2,-2.08,-10.04,1,4
16711.812,0.179,0.172,0.954,-5.92,-0.21,-13.79,1,4
16711.828,0.164,0.164,0.963,-4.52,1.31,-16.54,1,4
16711.843,0.152,0.186,0.953,-0.95,2.5,-17.88,1,4
16711.859,0.143,0.199,0.966,-1.22,3.14,-17.85,1,4
16711.875,0.125,0.209,0.988,-1.68,2.47,-16.75,1,4
16711.875,0.116,0.215,0.968,-2.5,0.31,-14.62,1,4
16711.89,0.112,0.219,0.963,-5.07,-1.31,-12.7,1,4
16711.906,0.097,0.211,0.957,-6.53,-1.95,-11.11,1,4
16711.906,0.086,0.211,0.939,-8.64,-2.81,-9.95,1,4
16711.921,0.08,0.21,0.946,-12.02,-3.54,-9.7,1,4
16711.921,0.065,0.204,0.966,-12.12,-4.3,-9.43,1,4
16711.937,0.069,0.206,0.967,-8.55,-5.04,-7.81,1,4
16711.953,0.076,0.213,0.975,-4.15,-5.19,-6.01,1,4
16711.968,0.076,0.235,0.984,-1.01,-5.01,-4.7,1,4
16711.968,0.074,0.25,0.996,0.06,-5.31,-2.9,1,4
16711.984,0.085,0.248,0.997,-0.55,-6.04,-0.43,1,4
16711.984,0.102,0.224,0.984,-2.47,-6.93,1.59,1,4
16712.0,0.113,0.194,0.975,-4.52,-6.62,1.74,1,4
16712.015,0.111,0.166,0.967,-5.1,-3.39,-0.64,1,4
16712.031,0.107,0.166,0.962,-4.61,-1.89,-1.56,1,4
16712.046,0.106,0.17,0.954,-5.13,-0.24,-1.28,1,4
16712.046,0.101,0.167,0.958,-6.26,0.89,-0.43,1,4
16712.062,0.105,0.169,0.973,-6.99,1.34,0.34,1,4
16712.062,0.104,0.167,0.978,-6.53,1.4,0.85,1,4
16712.078,0.117,0.172,0.967,-6.74,1.01,1.04,1,4
16712.093,0.126,0.174,0.974,-7.75,1.34,0.46,1,4
16712.093,0.128,0.171,0.986,-7.2,1.98,-0.24,1,4
16712.109,0.132,0.177,0.98,-5.62,2.5,-0.55,1,4
16712.125,0.131,0.179,0.989,-4.88,2.66,-0.92,1,4
16712.125,0.126,0.175,1.005,-3.14,0.98,-1.77,1,4
16712.14,0.132,0.181,0.995,-3.85,0.31,-2.04,1,4
16712.156,0.141,0.187,0.989,-4.82,0.46,-2.04,1,4
16712.156,0.142,0.173,0.97,-5.86,0.82,-1.92,1,4
16712.171,0.137,0.167,0.967,-6.9,1.31,-1.68,1,4
16712.187,0.121,0.154,0.975,-6.07,1.98,-1.68,1,4
16712.187,0.11,0.143,0.967,-3.66,1.74,-1.86,1,4
16712.203,0.104,0.141,0.956,-1.25,1.13,-2.11,1,4
16712.203,0.1,0.149,0.97,1.16,1.28,-1.68,1,4
16712.218,0.11,0.157,0.965,3.17,1.13,-0.49,1,4
16712.234,0.125,0.169,0.964,1.83,1.46,0.7,1,4
16712.234,0.13,0.177,0.983,-1.22,2.81,1.98,1,4
16712.25,0.128,0.188,0.991,-4.67,3.42,4.03,1,4
16712.265,0.138,0.184,1.004,-8.51,3.45,5.71,1,4
16712.281,0.128,0.168,1.012,-10.41,3.57,5.71,1,4
16712.281,0.122,0.164,1.011,-9.61,3.63,5.16,1,4
16712.281,0.114,0.17,1.003,-7.45,3.63,4.15,1,4
16712.296,0.104,0.174,0.989,-5.62,3.17,3.6,1,4
16712.312,0.106,0.177,0.975,-4.58,2.81,3.3,1,4
16712.312,0.098,0.186,0.974,-4.49,2.56,3.02,1,4
16712.328,0.096,0.199,0.975,-5.19,2.08,3.39,1,4
16712.343,0.102,0.195,0.976,-5.8,1.01,4.49,1,4
16712.343,0.114,0.186,0.974,-6.62,0.18,5.46,1,4
16712.359,0.116,0.177,0.984,-7.84,0.31,5.8,1,4
16712.375,0.11,0.159,0.994,-8.39,0.03,5.89,1,4
16712.375,0.11,0.143,0.998,-7.97,-1.04,5.37,1,4
16712.39,0.124,0.134,0.986,-7.05,-2.11,4.12,1,4
16712.406,0.126,0.127,0.988,-5.34,-1.98,2.32,1,4
16712.406,0.115,0.132,0.99,-2.69,-1.86,1.25,1,4
16712.421,0.121,0.146,0.979,-1.37,-2.29,0.79,1,4
16712.421,0.126,0.149,0.984,-2.44,-2.59,0.89,1,4
16712.437,0.126,0.145,0.991,-3.63,-3.17,1.37,1,4
16712.453,0.117,0.139,0.992,-3.6,-3.81,1.56,1,4
16712.453,0.11,0.143,0.984,-3.08,-4.43,1.22,1,4
16712.468,0.101,0.156,0.982,-2.53,-4.12,0.92,1,4
16712.484,0.089,0.166,0.983,-2.32,-3.69,1.1,1,4
16712.5,0.089,0.171,0.973,-2.72,-3.27,1.77,1,4
16712.5,0.094,0.166,0.969,-3.6,-2.5,1.98,1,4
16712.515,0.097,0.15,0.971,-3.57,-1.71,1.86,1,4
16712.515,0.1,0.141,0.97,-1.68,-1.19,1.71,1,4
16712.531,0.1,0.136,0.968,0.92,-0.95,1.5,1,4
16712.531,0.113,0.134,0.963,2.38,-1.07,0.85,1,4
16712.546,0.119,0.134,0.968,2.84,-0.64,0.18,1,4
16712.562,0.118,0.14,0.98,3.3,-0.09,0.06,1,4
16712.562,0.122,0.15,0.987,3.17,-0.12,0.24,1,4
16712.578,0.131,0.153,0.99,1.65,-0.46,0.06,1,4
16712.593,0.145,0.155,0.993,0.12,-0.58,-0.52,1,4
16712.593,0.153,0.159,0.997,-0.34,0.21,-1.34,1,4
16712.609,0.15,0.156,1.0,0.09,1.1,-2.29,1,4
16712.625,0.142,0.154,1.0,1.22,1.62,-3.6,1,4
16712.625,0.131,0.157,0.99,2.96,1.53,-5.07,1,4
16712.64,0.121,0.163,0.978,4.24,1.1,-5.55,1,4
16712.64,0.114,0.16,0.961,4.27,0.49,-5.68,1,4
16712.656,0.11,0.153,0.959,3.57,0.24,-5.65,1,4
16712.671,0.112,0.15,0.968,3.45,0.31,-5.34,1,4
16712.671,0.119,0.148,0.976,3.6,0.03,-5.34,1,4
16712.687,0.124,0.15,0.984,4.09,-0.12,-5.95,1,4
16712.703,0.121,0.16,0.99,6.38,-0.46,-6.32,1,4
16712.718,0.125,0.162,0.986,6.23,-0.7,-6.16,1,4
16712.734,0.124,0.164,0.983,5.46,-0.76,-6.35,1,4
16712.734,0.117,0.165,0.98,4.85,-0.92,-5.77,1,4
16712.75,0.113,0.164,0.974,4.27,-1.22,-4.61,1,4
16712.765,0.111,0.17,0.97,2.75,-1.5,-3.54,1,4
16712.765,0.103,0.182,0.968,0.82,-1.74,-2.23,1,4
16712.781,0.094,0.186,0.964,-0.85,-2.29,-0.46,1,4
16712.796,0.09,0.183,0.954,-2.32,-2.75,1.07,1,4
16712.796,0.089,0.173,0.951,-3.39,-3.08,2.29,1,4
16712.812,0.094,0.167,0.953,-3.54,-2.99,2.81,1,4
16712.812,0.097,0.16,0.955,-1.83,-2.47,2.87,1,4
16712.828,0.106,0.157,0.963,0.03,-1.77,2.53,1,4
16712.843,0.111,0.162,0.975,0.49,-1.1,1.71,1,4
16712.843,0.12,0.146,0.986,0.85,-0.18,1.04,1,4
16712.859,0.127,0.134,0.999,1.19,0.82,0.67,1,4
16712.875,0.127,0.13,1.009,1.37,1.16,0.12,1,4
16712.875,0.132,0.125,1.01,1.1,1.04,-0.76,1,4
16712.89,0.134,0.128,1.001,0.73,0.98,-1.46,1,4
16712.906,0.122,0.139,0.994,0.09,1.04,-1.59,1,4
16712.906,0.121,0.147,0.988,-0.67,0.52,-1.34,1,4
16712.921,0.116,0.146,0.985,-1.1,-0.34,-0.98,1,4
16712.937,0.108,0.148,0.983,-0.89,-1.13,-0.49,1,4
16712.937,0.109,0.151,0.977,-0.43,-1.77,-0.49,1,4
16712.953,0.117,0.147,0.968,0.12,-1.92,-0.92,1,4
16712.953,0.116,0.144,0.967,1.56,-1.01,-1.31,1,4
16712.968,0.114,0.151,0.976,3.05,0.06,-2.08,1,4
16712.984,0.11,0.161,0.982,3.2,0.24,-2.66,1,4
16712.984,0.117,0.166,0.979,2.75,0.0,-2.72,1,4
16713.0,0.113,0.172,0.982,2.41,0.24,-2.66,1,4
16713.015,0.111,0.173,0.989,2.14,0.52,-2.5,1,4
16713.031,0.113,0.167,0.992,2.2,0.09,-2.53,1,4
16713.031,0.117,0.158,0.993,2.87,-0.34,-3.14,1,4
16713.046,0.117,0.152,0.993,4.39,-0.89,-4.21,1,4
16713.046,0.128,0.156,0.988,6.23,-1.74,-5.07,1,4
16713.062,0.129,0.168,0.985,7.17,-2.08,-5.25,1,4
16713.062,0.128,0.177,0.983,6.38,-2.23,-4.58,1,4
16713.078,0.125,0.181,0.99,4.12,-2.5,-3.14,1,4
16713.093,0.122,0.175,0.988,1.5,-3.11,-1.74,1,4
16713.093,0.123,0.168,0.982,-0.61,-3.48,-0.73,1,4
16713.109,0.115,0.162,0.981,-0.82,-3.2,0.21,1,4
16713.125,0.109,0.157,0.97,0.34,-3.23,0.15,1,4
16713.125,0.106,0.155,0.962,1.8,-3.33,-0.03,1,4
16713.14,0.104,0.156,0.956,2.96,-3.85,-0.12,1,4
16713.156,0.099,0.167,0.965,3.91,-4.79,0.09,1,4
16713.156,0.102,0.173,0.966,3.97,-5.71,0.52,1,4
16713.171,0.11,0.179,0.964,3.81,-6.1,1.25,1,4
16713.171,0.121,0.176,0.969,3.36,-5.52,1.86,1,4
16713.187,0.119,0.175,0.982,2.53,-4.33,1.74,1,4
16713.203,0.124,0.174,0.989,2.01,-3.97,1.37,1,4
16713.203,0.127,0.17,0.993,2.59,-3.69,1.01,1,4
16713.218,0.13,0.168,0.984,3.57,-3.54,0.31,1,4
16713.234,0.134,0.176,0.977,3.42,-3.11,-0.73,1,4
16713.25,0.123,0.182,0.974,2.75,-2.62,-1.43,1,4
16713.25,0.116,0.182,0.974,2.11,-2.78,-1.04,1,4
16713.265,0.114,0.181,0.969,1.8,-2.93,-0.09,1,4
16713.265,0.11,0.176,0.971,1.56,-2.69,0.4,1,4
16713.281,0.115,0.171,0.97,1.28,-2.44,0.55,1,4
16713.296,0.116,0.172,0.98,0.82,-1.95,0.46,1,4
16713.296,0.113,0.173,0.989,0.89,-1.83,0.34,1,4
16713.312,0.116,0.182,0.987,0.85,-2.14,0.31,1,4
16713.328,0.12,0.184,0.983,0.31,-2.41,0.58,1,4
16713.328,0.119,0.181,0.977,0.09,-2.14,1.13,1,4
16713.343,0.114,0.174,0.976,0.09,-1.56,1.4,1,4
16713.343,0.111,0.173,0.976,0.03,-1.31,1.56,1,4
16713.359,0.115,0.168,0.97,0.06,-1.13,1.59,1,4
16713.375,0.119,0.166,0.968,0.0,-0.4,1.28,1,4
16713.375,0.117,0.171,0.968,0.0,0.7,1.19,1,4
16713.39,0.125,0.183,0.975,-1.59,2.56,2.14,1,4
16713.406,0.129,0.191,0.981,-2.9,3.85,2.9,1,4
16713.421,0.133,0.192,0.995,-4.06,5.52,3.63,1,4
16713.437,0.135,0.185,1.026,-3.45,7.45,4.15,1,4
16713.437,0.128,0.152,1.043,0.73,9.55,3.88,1,4
16713.453,0.126,0.126,1.062,8.0,10.62,2.17,1,4
16713.468,0.109,0.09,1.066,19.78,9.61,-2.35,1,4
16713.468,0.055,0.067,1.089,36.19,5.4,-8.48,1,4
16713.484,0.083,0.052,1.03,56.06,-2.41,-13.67,1,4
16713.484,0.018,0.112,1.007,70.35,-7.57,-18.52,1,4
16713.5,-0.079,0.203,0.979,77.58,-18.98,-18.22,1,4
16713.515,-0.05,0.279,1.007,75.32,-35.65,-10.65,1,4
16713.515,0.06,0.372,1.002,65.16,-50.72,1.59,1,4
16713.531,0.167,0.472,0.89,42.42,-58.05,15.26,1,4
16713.546,0.219,0.423,0.847,14.44,-54.11,26.18,1,4
16713.546,0.267,0.358,0.847,-8.18,-44.83,33.45,1,4
16713.562,0.249,0.204,0.883,-15.38,-25.39,31.56,1,4
16713.578,0.274,0.192,0.855,-7.45,-17.43,25.33,1,4
16713.593,0.269,0.189,0.832,1.19,-6.74,17.24,1,4
16713.609,0.223,0.184,0.846,6.23,3.48,9.16,1,4
16713.609,0.175,0.203,0.911,8.03,8.45,2.04,1,4
16713.625,0.15,0.225,0.966,9.43,6.44,-3.66,1,4
16713.625,0.158,0.252,0.974,10.07,0.85,-6.44,1,4
16713.64,0.177,0.278,0.953,9.4,-3.33,-6.44,1,4
16713.656,0.179,0.291,0.933,6.68,-4.46,-4.36,1,4
16713.656,0.177,0.29,0.934,1.98,-4.82,-0.4,1,4
16713.671,0.182,0.284,0.934,-2.2,-4.85,3.72,1,4
16713.671,0.183,0.267,0.93,-4.46,-4.09,7.29,1,4
16713.687,0.188,0.26,0.925,-5.55,-2.66,10.47,1,4
16713.703,0.194,0.253,0.918,-6.04,-0.37,12.85,1,4
16713.703,0.187,0.238,0.913,-6.93,2.44,14.37,1,4
16713.718,0.173,0.22,0.927,-8.61,4.46,15.14,1,4
16713.734,0.175,0.185,0.958,-8.51,4.94,14.65,1,4
16713.75,0.176,0.182,0.967,-5.98,5.07,13.79,1,4
16713.765,0.172,0.184,0.966,-3.33,5.13,12.3,1,4
16713.765,0.173,0.191,0.961,-1.53,4.85,10.83,1,4
16713.781,0.171,0.198,0.966,-0.52,4.79,9.4,1,4
16713.796,0.161,0.201,0.972,0.18,4.64,8.12,1,4
16713.796,0.156,0.212,0.979,0.85,3.51,7.39,1,4
16713.812,0.161,0.225,0.977,1.37,1.89,6.47,1,4
16713.812,0.17,0.229,0.971,0.85,0.82,5.22,1,4
16713.828,0.175,0.233,0.967,-0.15,0.92,3.78,1,4
16713.843,0.178,0.239,0.959,0.31,2.23,3.11,1,4
16713.843,0.179,0.238,0.952,0.85,4.55,3.08,1,4
16713.859,0.183,0.247,0.945,0.46,7.48,3.33,1,4
16713.875,0.177,0.247,0.935,-0.85,10.28,3.14,1,4
16713.875,0.171,0.234,0.933,-2.78,12.79,2.38,1,4
16713.89,0.158,0.226,0.939,-3.88,15.5,1.65,1,4
16713.906,0.145,0.218,0.95,-2.81,17.58,1.1,1,4
16713.906,0.135,0.216,0.961,-0.49,18.37,0.0,1,4
16713.921,0.119,0.223,0.974,1.59,17.73,-1.59,1,4
16713.937,0.108,0.23,0.977,2.75,15.78,-3.02,1,4
16713.937,0.108,0.234,0.973,3.14,13.25,-3.69,1,4
16713.953,0.11,0.24,0.959,3.02,11.72,-4.03,1,4
16713.953,0.091,0.25,1.0,2.17,11.11,-3.14,1,4
16713.968,0.101,0.245,1.024,2.26,7.81,-0.92,1,4
16713.984,0.124,0.255,1.018,0.0,3.72,0.52,1,4
16714.0,0.135,0.239,1.007,-1.43,1.71,0.67,1,4
16714.0,0.143,0.226,0.993,-1.19,1.07,0.58,1,4
16714.015,0.148,0.218,0.981,-0.21,1.19,-0.67,1,4
16714.015,0.146,0.213,0.971,1.1,1.4,-2.87,1,4
16714.031,0.144,0.216,0.965,1.34,1.46,-4.97,1,4
16714.046,0.146,0.218,0.964,1.71,1.31,-6.59,1,4
16714.046,0.143,0.214,0.959,3.11,0.95,-7.75,1,4
16714.062,0.147,0.218,0.952,4.49,0.58,-8.51,1,4
16714.078,0.157,0.233,0.95,5.28,0.95,-9.37,1,4
16714.078,0.156,0.238,0.95,6.35,2.01,-10.1,1,4
16714.093,0.152,0.25,0.948,6.84,4.0,-9.7,1,4
16714.093,0.155,0.263,0.947,5.46,5.07,-8.97,1,4
16714.109,0.158,0.261,0.956,4.21,6.01,-8.61,1,4
16714.125,0.154,0.261,0.956,3.6,6.13,-8.33,1,4
16714.125,0.145,0.249,0.977,3.33,5.8,-8.45,1,4
16714.14,0.147,0.245,0.982,4.64,4.21,-9.09,1,4
16714.156,0.152,0.25,0.966,6.65,1.95,-9.86,1,4
16714.156,0.157,0.251,0.949,8.09,1.19,-10.83,1,4
16714.171,0.154,0.252,0.936,8.15,2.44,-11.6,1,4
16714.171,0.147,0.252,0.928,7.6,4.3,-12.45,1,4
16714.187,0.136,0.241,0.934,7.63,6.35,-13.46,1,4
16714.203,0.12,0.227,0.954,7.57,7.14,-14.01,1,4
16714.203,0.095,0.221,0.948,6.44,5.07,-14.89,1,4
16714.218,0.097,0.22,0.933,6.1,1.53,-16.75,1,4
16714.234,0.094,0.237,0.913,9.09,-0.27,-19.96,1,4
16714.234,0.08,0.279,0.894,15.84,-0.09,-24.05,1,4
16714.25,0.08,0.348,0.893,24.54,2.56,-26.61,1,4
16714.265,0.072,0.418,0.92,32.99,6.62,-26.03,1,4
16714.265,0.071,0.457,0.953,36.23,8.85,-20.08,1,4
16714.281,0.104,0.481,0.963,28.29,8.85,-11.47,1,4
16714.296,0.116,0.46,0.998,11.69,9.28,-3.05,1,4
16714.296,0.12,0.366,1.041,-5.55,8.73,5.16,1,4
16714.312,0.132,0.259,1.054,-18.13,6.81,11.26,1,4
16714.328,0.138,0.152,1.045,-21.42,5.31,12.42,1,4
16714.328,0.129,0.074,1.03,-16.6,3.08,7.75,1,4
16714.343,0.121,0.043,1.007,-4.67,1.19,0.15,1,4
16714.343,0.094,0.069,0.997,11.26,0.73,-7.69,1,4
16714.359,0.082,0.111,0.957,26.86,-0.73,-13.12,1,4
16714.375,0.105,0.21,0.9,33.97,-1.13,-17.0,1,4
16714.375,0.06,0.29,0.896,35.13,0.37,-17.49,1,4
16714.39,0.033,0.361,0.892,31.07,-0.24,-12.7,1,4
16714.406,0.03,0.427,0.866,20.57,-2.44,-4.7,1,4
16714.406,0.043,0.434,0.854,5.83,-4.18,3.88,1,4
16714.421,0.052,0.4,0.857,-8.33,-4.33,10.99,1,4
16714.437,0.066,0.356,0.867,-18.1,-3.81,15.56,1,4
16714.437,0.077,0.316,0.891,-22.89,-2.5,17.79,1,4
16714.453,0.083,0.279,0.923,-22.89,-1.37,17.88,1,4
16714.453,0.097,0.248,0.951,-18.8,-0.67,16.21,1,4
16714.468,0.114,0.23,0.968,-13.09,-0.15,13.09,1,4
16714.484,0.122,0.223,0.991,-6.53,0.46,9.19,1,4
16714.484,0.123,0.222,1.011,0.09,0.67,5.13,1,4
16714.5,0.125,0.242,1.017,3.81,-0.49,1.56,1,4
16714.515,0.135,0.266,1.002,4.79,-2.14,-0.98,1,4
16714.515,0.136,0.28,0.98,5.01,-2.59,-2.23,1,4
16714.531,0.133,0.284,0.963,5.28,-2.2,-2.78,1,4
16714.546,0.128,0.297,0.959,5.49,-1.04,-2.84,1,4
16714.546,0.125,0.311,0.951,5.34,-0.15,-2.66,1,4
16714.562,0.109,0.315,0.95,4.24,0.52,-2.47,1,4
16714.562,0.095,0.305,0.95,1.83,-0.24,-2.56,1,4
16714.578,0.096,0.309,0.956,-1.53,-2.38,-2.9,1,4
16714.593,0.094,0.311,0.952,-3.33,-4.39,-3.66,1,4
16714.593,0.092,0.301,0.94,-4.58,-5.98,-4.0,1,4
16714.609,0.097,0.295,0.941,-4.85,-6.5,-4.06,1,4
16714.625,0.1,0.284,0.942,-2.5,-6.01,-4.12,1,4
16714.625,0.101,0.276,0.939,1.13,-5.16,-4.61,1,4
16714.64,0.101,0.274,0.932,4.27,-4.58,-5.89,1,4
16714.656,0.099,0.276,0.93,5.83,-4.39,-7.6,1,4
16714.656,0.102,0.277,0.932,6.78,-4.61,-8.7,1,4
16714.671,0.106,0.284,0.932,8.33,-4.79,-9.37,1,4
16714.687,0.109,0.289,0.93,10.07,-4.46,-9.89,1,4
16714.687,0.107,0.294,0.939,11.02,-4.18,-10.38,1,4
16714.703,0.106,0.305,0.952,11.17,-4.33,-10.53,1,4
16714.703,0.113,0.309,0.963,11.08,-4.85,-10.9,1,4
16714.718,0.118,0.313,0.97,10.56,-5.43,-11.23,1,4
16714.734,0.126,0.317,0.971,9.77,-6.04,-11.08,1,4
16714.734,0.131,0.326,0.977,8.39,-6.16,-10.53,1,4
16714.75,0.127,0.322,0.979,6.96,-6.44,-9.89,1,4
16714.765,0.131,0.314,0.971,5.13,-7.17,-9.37,1,4
16714.765,0.13,0.307,0.96,2.75,-7.72,-9.09,1,4
16714.781,0.126,0.299,0.951,1.1,-7.63,-8.94,1,4
16714.796,0.118,0.291,0.947,0.18,-6.96,-8.39,1,4
16714.796,0.111,0.286,0.944,-0.12,-6.29,-7.84,1,4
16714.812,0.104,0.282,0.953,0.12,-5.71,-7.26,1,4
16714.812,0.093,0.274,0.955,1.28,-5.8,-6.81,1,4
16714.828,0.091,0.273,0.946,1.86,-6.99,-6.71,1,4
16714.843,0.095,0.279,0.933,1.92,-7.93,-6.5,1,4
16714.843,0.097,0.287,0.924,1.83,-7.51,-6.16,1,4
16714.859,0.095,0.298,0.922,0.73,-6.35,-5.52,1,4
16714.875,0.096,0.311,0.928,-0.98,-4.91,-4.36,1,4
16714.89,0.092,0.318,0.938,-2.81,-3.48,-2.75,1,4
16714.89,0.091,0.314,0.951,-5.1,-2.38,-1.31,1,4
16714.906,0.095,0.31,0.965,-7.26,-1.83,-0.43,1,4
16714.906,0.097,0.304,0.973,-7.93,-1.25,-0.46,1,4
16714.921,0.091,0.291,0.975,-7.32,-0.43,-1.37,1,4
16714.921,0.086,0.283,0.979,-6.78,-0.03,-2.78,1,4
16714.937,0.082,0.278,0.977,-5.58,0.31,-4.52,1,4
16714.953,0.073,0.274,0.966,-3.75,0.64,-5.95,1,4
16714.953,0.063,0.274,0.955,-2.11,0.73,-7.02,1,4
16714.968,0.06,0.276,0.945,-1.22,0.43,-7.72,1,4
16714.984,0.062,0.278,0.932,0.0,0.27,-8.03,1,4
16714.984,0.063,0.277,0.916,1.07,0.79,-7.81,1,4
16715.0,0.068,0.281,0.907,1.43,1.65,-7.29,1,4
16715.015,0.077,0.294,0.9,1.22,2.75,-6.56,1,4
16715.015,0.076,0.304,0.902,0.52,3.75,-5.28,1,4
16715.031,0.082,0.305,0.909,-0.43,3.63,-3.81,1,4
16715.046,0.094,0.307,0.912,-1.13,2.9,-2.66,1,4
16715.046,0.103,0.31,0.914,-1.4,2.32,-1.98,1,4
16715.062,0.111,0.314,0.922,-0.89,1.83,-1.74,1,4
16715.078,0.122,0.319,0.926,0.09,1.77,-1.56,1,4
16715.078,0.128,0.328,0.93,0.76,1.98,-0.7,1,4
16715.093,0.129,0.331,0.938,0.15,1.37,-0.27,1,4
16715.093,0.132,0.333,0.943,-0.67,0.67,0.15,1,4
16715.109,0.145,0.325,0.942,-1.04,0.31,0.21,1,4
16715.125,0.145,0.32,0.941,-1.07,0.4,-0.06,1,4
16715.125,0.144,0.318,0.947,-0.73,0.46,-0.73,1,4
16715.14,0.143,0.316,0.952,-0.27,0.31,-1.31,1,4
16715.156,0.141,0.317,0.96,-0.09,0.24,-1.98,1,4
16715.156,0.139,0.314,0.961,0.12,-0.09,-2.56,1,4
16715.171,0.136,0.313,0.963,0.27,-0.4,-3.27,1,4
16715.187,0.128,0.311,0.963,1.13,-0.49,-4.03,1,4
16715.187,0.123,0.306,0.957,2.41,-0.4,-4.58,1,4
16715.203,0.113,0.305,0.959,3.36,-0.21,-5.4,1,4
16715.203,0.101,0.3,0.957,4.55,-0.06,-6.26,1,4
16715.218,0.092,0.3,0.947,5.31,-0.43,-6.68,1,4
16715.234,0.083,0.301,0.944,5.07,-1.25,-6.9,1,4
16715.234,0.077,0.298,0.936,4.91,-2.53,-6.87,1,4
16715.25,0.074,0.295,0.922,5.34,-3.3,-6.35,1,4
16715.265,0.073,0.288,0.914,6.04,-3.17,-5.92,1,4
16715.265,0.066,0.287,0.91,7.45,-2.59,-5.83,1,4
16715.281,0.064,0.3,0.907,8.79,-2.26,-5.07,1,4
16715.296,0.063,0.312,0.912,9.09,-2.29,-4.03,1,4
16715.296,0.065,0.32,0.915,8.15,-2.62,-2.99,1,4
16715.312,0.075,0.325,0.92,6.35,-3.36,-1.98,1,4
16715.328,0.085,0.323,0.923,5.04,-3.94,-0.98,1,4
16715.328,0.092,0.325,0.934,4.09,-3.91,-0.37,1,4
16715.343,0.101,0.323,0.94,3.66,-3.97,-0.12,1,4
16715.343,0.103,0.318,0.948,3.17,-4.33,-0.24,1,4
16715.359,0.106,0.314,0.953,3.05,-4.76,-0.58,1,4
16715.375,0.112,0.31,0.952,3.17,-5.16,-0.98,1,4
16715.375,0.116,0.305,0.949,3.39,-5.1,-1.56,1,4
16715.39,0.117,0.306,0.952,3.48,-4.7,-2.29,1,4
16715.406,0.116,0.308,0.953,3.54,-4.7,-2.99,1,4
16715.406,0.115,0.309,0.953,3.3,-4.85,-3.81,1,4
16715.421,0.115,0.314,0.952,3.17,-5.22,-4.43,1,4
16715.421,0.118,0.316,0.946,3.33,-5.01,-5.04,1,4
16715.437,0.116,0.319,0.95,3.69,-4.49,-5.62,1,4
16715.453,0.113,0.324,0.95,4.15,-4.15,-5.92,1,4
16715.453,0.11,0.327,0.947,3.57,-4.15,-5.89,1,4
16715.468,0.11,0.323,0.946,2.26,-4.46,-5.86,1,4
16715.484,0.11,0.315,0.94,1.22,-4.94,-6.13,1,4
16715.484,0.11,0.313,0.942,1.56,-4.94,-6.32,1,4
16715.5,0.112,0.318,0.932,3.02,-4.64,-6.26,1,4
16715.515,0.11,0.322,0.928,3.94,-4.09,-6.38,1,4
16715.515,0.106,0.326,0.928,4.36,-3.63,-6.23,1,4
16715.531,0.105,0.329,0.93,4.46,-3.48,-5.62,1,4
16715.546,0.107,0.331,0.923,4.18,-3.57,-4.97,1,4
16715.546,0.11,0.331,0.92,3.69,-3.33,-4.36,1,4
16715.562,0.112,0.33,0.921,2.93,-2.9,-3.54,1,4
16715.562,0.116,0.33,0.928,1.86,-2.69,-2.9,1,4
16715.578,0.114,0.327,0.934,1.22,-2.81,-2.56,1,4
16715.593,0.117,0.324,0.936,0.67,-2.87,-2.35,1,4
16715.593,0.121,0.322,0.938,0.52,-2.99,-2.44,1,4
16715.609,0.12,0.321,0.942,0.85,-3.2,-2.75,1,4
16715.625,0.126,0.318,0.937,1.56,-3.42,-3.17,1,4
16715.64,0.127,0.325,0.936,1.98,-3.3,-3.85,1,4
16715.64,0.126,0.328,0.938,2.32,-3.05,-4.18,1,4
16715.656,0.126,0.329,0.939,2.59,-2.81,-4.06,1,4
16715.656,0.115,0.334,0.944,1.89,-2.75,-4.09,1,4
16715.671,0.107,0.338,0.949,-0.55,-4.0,-4.43,1,4
16715.671,0.114,0.337,0.952,-3.39,-6.07,-4.49,1,4
16715.687,0.116,0.321,0.948,-4.39,-7.42,-4.91,1,4
16715.703,0.115,0.312,0.94,-4.12,-8.15,-5.77,1,4
16715.718,0.119,0.306,0.934,-3.02,-8.03,-6.53,1,4
16715.718,0.115,0.305,0.933,-0.95,-7.51,-7.69,1,4
16715.734,0.113,0.309,0.93,1.4,-6.84,-8.55,1,4
16715.734,0.113,0.314,0.924,2.96,-6.26,-9.16,1,4
16715.75,0.106,0.329,0.933,3.2,-5.71,-9.25,1,4
16715.765,0.102,0.334,0.933,2.69,-5.62,-8.85,1,4
16715.765,0.104,0.335,0.928,1.04,-6.13,-8.42,1,4
16715.781,0.107,0.334,0.933,-0.58,-6.62,-8.61,1,4
16715.796,0.105,0.328,0.932,-1.4,-7.29,-9.13,1,4
16715.796,0.111,0.322,0.927,-1.34,-7.66,-9.7,1,4
16715.812,0.114,0.329,0.93,-0.37,-7.32,-10.16,1,4
16715.812,0.116,0.33,0.927,1.28,-6.99,-10.53,1,4
16715.828,0.118,0.339,0.925,1.92,-6.56,-10.8,1,4
16715.843,0.115,0.349,0.928,2.04,-5.86,-10.56,1,4
16715.859,0.11,0.355,0.929,1.65,-5.49,-10.04,1,4
16715.859,0.111,0.356,0.922,0.76,-5.46,-9.31,1,4
16715.875,0.112,0.353,0.918,-0.15,-5.4,-8.61,1,4
16715.875,0.112,0.348,0.915,-0.12,-5.25,-7.93,1,4
16715.89,0.109,0.344,0.913,0.43,-5.01,-7.45,1,4
16715.906,0.114,0.342,0.91,1.31,-4.61,-7.17,1,4
16715.906,0.117,0.347,0.913,2.29,-4.21,-7.2,1,4
16715.921,0.116,0.351,0.914,3.57,-4.03,-7.14,1,4
16715.921,0.12,0.355,0.911,3.97,-3.72,-6.16,1,4
16715.937,0.124,0.361,0.917,2.81,-3.36,-5.07,1,4
16715.953,0.127,0.357,0.92,1.16,-3.36,-4.06,1,4
16715.953,0.128,0.351,0.924,-0.49,-3.45,-3.3,1,4
16715.968,0.133,0.344,0.928,-1.19,-3.54,-2.69,1,4
16715.984,0.135,0.338,0.929,-0.52,-3.14,-2.26,1,4
16716.0,0.131,0.333,0.931,0.4,-2.87,-2.35,1,4
16716.0,0.133,0.334,0.935,0.61,-3.27,-2.47,1,4
16716.015,0.139,0.333,0.932,0.34,-3.69,-2.5,1,4
16716.015,0.142,0.33,0.929,-0.24,-4.0,-2.59,1,4
16716.031,0.141,0.324,0.932,0.0,-3.72,-2.62,1,4
16716.046,0.135,0.324,0.933,0.85,-3.39,-2.66,1,4
16716.046,0.133,0.33,0.933,1.56,-3.42,-2.81,1,4
16716.062,0.133,0.335,0.932,1.71,-4.18,-3.69,1,4
16716.078,0.13,0.332,0.926,1.98,-4.12,-4.09,1,4
16716.078,0.126,0.335,0.926,2.62,-4.15,-4.03,1,4
16716.093,0.126,0.338,0.924,3.2,-3.72,-3.88,1,4
16716.093,0.125,0.345,0.921,3.33,-3.33,-3.48,1,4
16716.109,0.123,0.349,0.922,2.56,-3.3,-3.02,1,4
16716.125,0.122,0.347,0.927,1.22,-3.6,-2.81,1,4
16716.125,0.123,0.342,0.927,0.37,-4.06,-2.75,1,4
16716.14,0.126,0.338,0.925,0.15,-4.46,-2.93,1,4
16716.156,0.127,0.332,0.925,0.7,-4.39,-3.48,1,4
16716.156,0.126,0.329,0.925,1.65,-4.24,-4.15,1,4
16716.171,0.122,0.334,0.925,2.47,-4.3,-5.01,1,4
16716.171,0.12,0.336,0.929,2.53,-4.76,-5.83,1,4
16716.187,0.118,0.34,0.934,2.17,-5.46,-6.44,1,4
16716.203,0.122,0.348,0.931,2.23,-6.13,-6.32,1,4
16716.203,0.126,0.357,0.928,2.01,-6.53,-6.07,1,4
16716.218,0.126,0.36,0.928,1.98,-6.41,-5.68,1,4
16716.234,0.129,0.363,0.928,2.11,-6.01,-5.04,1,4
16716.234,0.129,0.361,0.928,2.35,-5.4,-4.91,1,4
16716.25,0.124,0.355,0.926,2.62,-4.73,-5.01,1,4
16716.265,0.122,0.353,0.926,3.17,-4.27,-5.19,1,4
16716.265,0.12,0.352,0.922,3.75,-4.03,-5.46,1,4
16716.281,0.117,0.349,0.921,3.78,-3.72,-5.74,1,4
16716.296,0.119,0.345,0.921,3.36,-3.78,-5.83,1,4
16716.296,0.12,0.346,0.922,2.75,-3.88,-5.92,1,4
16716.312,0.122,0.346,0.922,2.35,-3.78,-5.71,1,4
16716.312,0.122,0.348,0.928,2.11,-3.6,-5.49,1,4
16716.328,0.121,0.355,0.925,1.68,-3.69,-5.1,1,4
16716.343,0.127,0.354,0.922,1.19,-3.75,-4.94,1,4
16716.343,0.127,0.351,0.922,1.68,-3.27,-5.07,1,4
16716.359,0.123,0.347,0.923,2.96,-2.59,-4.97,1,4
16716.375,0.124,0.353,0.921,4.06,-2.29,-5.01,1,4
16716.375,0.126,0.357,0.921,4.43,-2.17,-4.91,1,4
16716.39,0.126,0.358,0.919,4.55,-1.95,-4.94,1,4
16716.406,0.124,0.364,0.92,4.49,-1.65,-4.49,1,4
16716.406,0.121,0.366,0.919,3.94,-1.86,-3.66,1,4
16716.421,0.125,0.367,0.914,3.05,-1.86,-2.84,1,4
16716.437,0.127,0.362,0.91,2.72,-1.68,-2.01,1,4
16716.437,0.125,0.36,0.911,2.66,-1.19,-1.4,1,4
16716.453,0.126,0.362,0.911,2.62,-0.82,-1.1,1,4
16716.453,0.127,0.362,0.912,3.08,-0.85,-1.04,1,4
16716.468,0.125,0.362,0.916,3.72,-0.43,-1.16,1,4
16716.484,0.126,0.37,0.916,4.06,-0.15,-0.76,1,4
16716.484,0.127,0.375,0.918,4.18,-0.06,-0.31,1,4
16716.5,0.131,0.376,0.92,4.03,0.27,0.4,1,4
16716.515,0.133,0.379,0.928,3.85,0.7,1.22,1,4
16716.531,0.132,0.373,0.935,3.94,1.04,2.11,1,4
16716.531,0.138,0.366,0.944,4.76,1.4,3.11,1,4
16716.546,0.14,0.352,0.952,7.17,1.89,4.24,1,4
16716.546,0.132,0.344,0.968,9.8,2.2,5.04,1,4
16716.562,0.119,0.334,0.978,12.85,1.04,4.82,1,4
16716.562,0.1,0.334,0.987,16.48,-1.89,3.33,1,4
16716.578,0.078,0.352,1.009,21.09,-7.39,1.37,1,4
16716.593,0.098,0.353,1.033,25.03,-16.02,-0.52,1,4
16716.593,0.13,0.343,1.046,27.62,-25.7,-4.12,1,4
16716.609,0.179,0.375,0.976,31.04,-31.13,-5.1,1,4
16716.625,0.209,0.399,0.933,30.21,-30.52,-5.07,1,4
16716.64,0.212,0.39,0.908,29.73,-28.57,-5.19,1,4
16716.64,0.219,0.396,0.882,26.58,-26.95,-4.15,1,4
16716.656,0.217,0.392,0.869,21.67,-24.51,-4.33,1,4
16716.656,0.209,0.392,0.871,15.96,-22.25,-4.82,1,4
16716.671,0.204,0.384,0.875,11.63,-21.18,-5.04,1,4
16716.687,0.215,0.371,0.876,8.85,-21.36,-5.68,1,4
16716.687,0.225,0.37,0.87,6.93,-21.15,-7.51,1,4
16716.703,0.232,0.368,0.868,5.34,-20.51,-10.19,1,4
16716.703,0.229,0.359,0.872,4.76,-19.41,-13.12,1,4
16716.718,0.223,0.365,0.877,4.49,-18.46,-15.78,1,4
16716.734,0.225,0.373,0.88,4.67,-17.82,-18.16,1,4
16716.734,0.222,0.374,0.876,4.79,-17.52,-20.48,1,4
16716.75,0.217,0.374,0.873,4.79,-17.12,-22.46,1,4
16716.765,0.213,0.381,0.871,5.13,-16.57,-23.77,1,4
16716.765,0.21,0.386,0.868,5.37,-16.63,-24.75,1,4
16716.781,0.211,0.395,0.863,4.67,-16.85,-25.27,1,4
16716.796,0.209,0.401,0.859,3.2,-17.15,-24.99,1,4
16716.796,0.215,0.398,0.854,1.71,-17.09,-24.32,1,4
16716.812,0.224,0.396,0.852,0.27,-16.63,-23.77,1,4
16716.828,0.224,0.395,0.855,-0.49,-15.81,-23.8,1,4
16716.828,0.218,0.388,0.862,0.34,-15.02,-24.05,1,4
16716.843,0.208,0.386,0.873,1.98,-15.02,-24.57,1,4
16716.843,0.198,0.387,0.886,3.57,-16.66,-25.82,1,4
16716.859,0.199,0.391,0.901,4.82,-19.68,-27.92,1,4
16716.875,0.208,0.403,0.909,5.74,-23.16,-30.27,1,4
16716.89,0.215,0.416,0.912,6.99,-26.15,-32.78,1,4
16716.89,0.215,0.419,0.908,8.36,-28.2,-34.79,1,4
16716.906,0.222,0.43,0.908,9.89,-29.05,-36.1,1,4
16716.906,0.219,0.448,0.906,11.78,-29.21,-36.9,1,4
16716.921,0.214,0.459,0.901,12.6,-29.94,-37.32,1,4
16716.937,0.211,0.473,0.888,12.88,-30.06,-37.05,1,4
16716.937,0.209,0.477,0.871,13.4,-29.57,-35.95,1,4
16716.953,0.205,0.472,0.86,14.4,-28.26,-34.33,1,4
16716.968,0.193,0.473,0.85,15.29,-26.52,-32.72,1,4
16716.968,0.181,0.47,0.847,15.84,-25.51,-31.71,1,4
16716.984,0.176,0.463,0.843,16.51,-25.33,-31.28,1,4
16716.984,0.177,0.462,0.841,17.58,-25.33,-31.07,1,4
16717.0,0.178,0.469,0.837,19.01,-25.03,-31.83,1,4
16717.015,0.18,0.471,0.837,21.18,-24.51,-32.59,1,4
16717.015,0.174,0.476,0.839,22.71,-24.02,-33.3,1,4
16717.031,0.167,0.484,0.837,23.35,-24.23,-34.0,1,4
16717.046,0.167,0.494,0.839,24.11,-24.75,-34.39,1,4
16717.046,0.167,0.504,0.833,23.59,-25.7,-34.67,1,4
16717.062,0.171,0.516,0.823,21.15,-25.64,-34.58,1,4
16717.078,0.179,0.524,0.811,18.8,-24.48,-33.85,1,4
16717.078,0.181,0.533,0.808,16.91,-22.89,-32.69,1,4
16717.093,0.175,0.53,0.802,15.44,-21.21,-32.01,1,4
16717.093,0.168,0.525,0.802,14.86,-19.84,-31.1,1,4
16717.109,0.175,0.53,0.805,14.65,-18.43,-29.79,1,4
16717.125,0.169,0.534,0.803,14.25,-16.69,-28.99,1,4
16717.125,0.159,0.527,0.799,13.46,-16.08,-28.47,1,4
16717.14,0.165,0.525,0.801,12.3,-15.63,-28.41,1,4
16717.156,0.156,0.537,0.798,10.5,-15.26,-28.81,1,4
16717.171,0.152,0.534,0.8,8.55,-15.53,-28.84,1,4
16717.171,0.152,0.534,0.8,7.08,-15.72,-28.2,1,4
16717.187,0.152,0.536,0.792,6.9,-15.78,-27.62,1,4
16717.187,0.156,0.542,0.784,7.45,-15.11,-27.19,1,4
16717.203,0.16,0.546,0.774,8.03,-13.79,-26.43,1,4
16717.218,0.162,0.546,0.763,7.93,-11.84,-25.21,1,4
16717.218,0.165,0.541,0.758,7.2,-9.22,-23.8,1,4
16717.234,0.163,0.542,0.754,6.53,-6.07,-22.46,1,4
16717.234,0.162,0.54,0.746,6.23,-2.56,-21.06,1,4
16717.25,0.16,0.538,0.749,6.01,1.28,-19.96,1,4
16717.265,0.152,0.541,0.758,6.81,5.31,-18.52,1,4
16717.265,0.143,0.547,0.762,8.39,8.97,-17.06,1,4
16717.281,0.129,0.567,0.772,10.74,11.69,-15.63,1,4
16717.296,0.119,0.587,0.786,12.48,12.36,-13.58,1,4
16717.296,0.119,0.605,0.793,10.44,11.51,-11.51,1,4
16717.312,0.125,0.616,0.801,6.07,9.19,-9.06,1,4
16717.328,0.131,0.605,0.803,1.98,7.2,-6.41,1,4
16717.328,0.14,0.585,0.805,-1.92,5.43,-4.21,1,4
16717.343,0.15,0.565,0.8,-4.33,4.52,-2.23,1,4
16717.343,0.161,0.547,0.793,-5.1,5.01,-0.37,1,4
16717.359,0.166,0.526,0.782,-5.16,6.44,0.92,1,4
16717.375,0.165,0.512,0.789,-4.82,8.76,1.19,1,4
16717.39,0.158,0.506,0.808,-4.39,10.5,0.95,1,4
16717.39,0.155,0.497,0.816,-4.88,10.71,0.37,1,4
16717.406,0.147,0.494,0.825,-5.92,10.53,-0.31,1,4
16717.406,0.139,0.486,0.835,-6.65,9.8,-0.67,1,4
16717.421,0.131,0.469,0.842,-6.93,7.87,-1.04,1,4
16717.437,0.124,0.46,0.844,-6.32,5.46,-1.4,1,4
16717.437,0.125,0.455,0.839,-4.58,3.02,-1.8,1,4
16717.453,0.13,0.455,0.829,-3.05,1.16,-2.47,1,4
16717.453,0.14,0.462,0.832,-1.89,0.55,-3.17,1,4
16717.468,0.129,0.477,0.849,0.03,0.82,-3.88,1,4
16717.484,0.115,0.48,0.858,3.48,-0.18,-3.66,1,4
16717.484,0.113,0.501,0.858,6.99,-2.44,-2.23,1,4
16717.5,0.125,0.53,0.841,9.13,-5.16,-0.95,1,4
16717.515,0.137,0.541,0.819,10.01,-7.45,-0.55,1,4
16717.531,0.145,0.556,0.801,8.33,-8.7,-0.49,1,4
16717.531,0.147,0.572,0.792,4.58,-9.09,-1.04,1,4
16717.546,0.147,0.579,0.8,-0.64,-9.03,-2.29,1,4
16717.546,0.142,0.578,0.814,-5.07,-9.43,-3.91,1,4
16717.562,0.136,0.577,0.82,-7.72,-10.41,-5.19,1,4
16717.578,0.137,0.579,0.826,-8.79,-11.08,-5.89,1,4
16717.578,0.143,0.578,0.834,-8.39,-11.32,-6.68,1,4
16717.593,0.146,0.586,0.833,-7.69,-11.23,-7.93,1,4
16717.593,0.152,0.584,0.833,-6.78,-10.93,-9.46,1,4
16717.609,0.148,0.581,0.832,-5.98,-10.22,-11.2,1,4
16717.625,0.15,0.586,0.83,-4.7,-9.28,-12.48,1,4
16717.625,0.151,0.585,0.827,-2.81,-8.09,-13.34,1,4
16717.64,0.151,0.583,0.819,-1.1,-6.9,-13.55,1,4
16717.656,0.152,0.587,0.809,-0.03,-5.55,-13.82,1,4
16717.656,0.154,0.585,0.801,0.98,-4.12,-14.01,1,4
16717.671,0.151,0.583,0.798,1.37,-2.41,-13.73,1,4
16717.687,0.145,0.587,0.794,0.89,-0.89,-13.31,1,4
16717.687,0.145,0.577,0.786,1.31,0.49,-12.48,1,4
16717.703,0.135,0.572,0.792,1.95,2.2,-11.6,1,4
16717.703,0.123,0.577,0.797,1.65,3.3,-10.5,1,4
16717.718,0.118,0.574,0.806,-0.24,2.93,-9.58,1,4
16717.734,0.12,0.563,0.805,-3.08,1.16,-9.22,1,4
16717.734,0.123,0.553,0.809,-5.46,-0.21,-9.34,1,4
16717.75,0.126,0.539,0.81,-5.43,-0.85,-9.49,1,4
16717.765,0.127,0.531,0.805,-3.6,-1.04,-9.77,1,4
16717.781,0.136,0.527,0.798,-1.31,-0.95,-10.13,1,4
16717.781,0.141,0.525,0.789,0.7,-0.34,-11.32,1,4
16717.796,0.144,0.527,0.78,2.53,0.7,-12.51,1,4
16717.796,0.153,0.527,0.773,4.43,3.08,-13.28,1,4
16717.812,0.151,0.53,0.78,5.28,6.01,-14.34,1,4
16717.828,0.135,0.551,0.799,5.68,8.24,-14.83,1,4
16717.828,0.125,0.576,0.811,6.35,9.19,-13.73,1,4
16717.843,0.122,0.584,0.826,4.79,8.48,-12.97,1,4
16717.843,0.114,0.59,0.847,2.93,6.56,-12.3,1,4
16717.859,0.106,0.588,0.863,2.23,3.91,-11.17,1,4
16717.875,0.105,0.577,0.875,2.56,1.04,-10.56,1,4
16717.875,0.088,0.592,0.887,2.66,-1.89,-10.77,1,4
16717.89,0.105,0.618,0.856,2.41,-5.31,-10.44,1,4
16717.906,0.149,0.54,0.815,4.24,-5.01,-11.38,1,4
16717.906,0.036,0.546,0.857,5.58,-4.0,-15.05,1,4
16717.921,0.087,0.672,0.865,-1.5,-9.7,-12.97,1,4
16717.937,0.122,0.602,0.802,2.44,-12.05,-11.29,1,4
16717.937,0.109,0.594,0.783,4.73,-7.42,-8.39,1,4
16717.953,0.124,0.627,0.793,3.3,-2.5,-4.82,1,4
16717.953,0.097,0.623,0.798,3.2,2.11,-2.59,1,4
16717.968,0.059,0.608,0.813,1.68,4.06,0.03,1,4
16717.984,0.026,0.608,0.834,0.27,1.65,1.95,1,4
16717.984,-0.015,0.602,0.856,1.43,-4.03,4.12,1,4
16718.0,-0.043,0.614,0.873,3.11,-12.88,6.96,1,4
16718.015,-0.045,0.651,0.888,2.53,-24.08,11.23,1,4
16718.031,0.02,0.733,0.823,-0.15,-34.42,18.01,1,4
16718.031,0.114,0.598,0.808,-21.15,-39.03,14.89,1,4
16718.046,0.071,0.613,0.903,-8.45,-35.43,25.94,1,4
16718.046,0.105,0.677,0.811,0.37,-26.58,33.88,1,4
16718.062,0.172,0.621,0.753,-1.16,-18.59,34.09,1,4
16718.078,0.153,0.602,0.741,-1.8,-11.63,33.81,1,4
16718.078,0.166,0.57,0.719,-2.53,-6.2,32.14,1,4
16718.093,0.156,0.535,0.702,-0.76,-0.09,29.42,1,4
16718.093,0.15,0.545,0.7,6.5,7.05,27.31,1,4
16718.109,0.129,0.567,0.709,16.57,14.74,25.88,1,4
16718.125,0.083,0.595,0.722,25.97,20.51,24.81,1,4
16718.125,0.065,0.636,0.717,31.4,23.22,26.09,1,4
16718.14,0.058,0.674,0.711,32.29,24.14,29.08,1,4
16718.156,0.049,0.699,0.696,29.15,24.54,32.47,1,4
16718.156,0.04,0.725,0.683,21.79,25.03,35.86,1,4
16718.171,0.028,0.746,0.668,13.55,25.48,38.73,1,4
16718.187,0.013,0.743,0.648,7.05,26.0,41.35,1,4
16718.187,0.005,0.741,0.628,4.58,27.99,45.01,1,4
16718.203,0.004,0.748,0.605,6.53,32.44,50.36,1,4
16718.218,0.002,0.759,0.594,8.45,39.03,57.37,1,4
16718.218,0.009,0.767,0.596,6.99,46.6,65.77,1,4
16718.234,0.004,0.76,0.62,-0.03,53.99,76.08,1,4
16718.25,0.007,0.721,0.651,-10.83,59.82,88.26,1,4
16718.25,0.023,0.669,0.707,-24.78,64.73,100.96,1,4
16718.265,0.042,0.604,0.774,-37.75,67.29,112.77,1,4
16718.265,0.058,0.528,0.823,-47.18,67.66,122.96,1,4
16718.281,0.084,0.444,0.865,-53.22,66.29,130.44,1,4
16718.281,0.106,0.379,0.903,-54.75,64.18,134.4,1,4
16718.296,0.117,0.322,0.928,-52.06,61.77,134.89,1,4
16718.312,0.152,0.27,0.948,-48.22,58.38,132.27,1,4
16718.328,0.185,0.225,0.966,-43.18,55.82,126.56,1,4
16718.328,0.213,0.185,0.974,-36.44,53.74,118.05,1,4
16718.343,0.236,0.155,0.975,-28.53,52.37,108.04,1,4
16718.359,0.253,0.144,0.971,-20.66,51.7,96.5,1,4
16718.359,0.274,0.142,0.966,-13.79,50.87,84.35,1,4
16718.375,0.282,0.147,0.964,-8.39,50.87,73.06,1,4
16718.375,0.272,0.159,0.959,-4.7,50.08,62.65,1,4
16718.39,0.265,0.177,0.951,-2.53,48.25,53.65,1,4
16718.406,0.272,0.186,0.929,-1.5,46.66,46.69,1,4
16718.406,0.273,0.208,0.905,-2.23,46.11,41.35,1,4
16718.421,0.276,0.228,0.888,-4.39,47.0,37.39,1,4
16718.437,0.282,0.24,0.875,-9.43,49.07,34.67,1,4
16718.437,0.276,0.25,0.875,-16.72,51.52,32.53,1,4
16718.453,0.262,0.249,0.886,-24.54,52.86,30.34,1,4
16718.453,0.256,0.245,0.909,-32.2,52.49,27.28,1,4
16718.468,0.254,0.248,0.928,-37.69,50.75,22.58,1,4
16718.484,0.254,0.249,0.949,-38.45,48.52,16.08,1,4
16718.484,0.184,0.303,1.064,-34.58,44.68,8.73,1,4
16718.5,0.167,0.369,1.219,-17.94,33.42,8.7,1,4
16718.515,0.299,0.431,1.132,-2.17,17.15,12.54,1,4
16718.515,0.337,0.525,1.007,-0.64,9.49,10.53,1,4
16718.531,0.321,0.512,0.952,-1.71,8.51,8.42,1,4
16718.531,0.305,0.523,0.895,-4.79,9.31,9.06,1,4
16718.546,0.292,0.535,0.852,-9.8,10.38,11.08,1,4
16718.562,0.259,0.518,0.839,-13.92,11.05,12.97,1,4
16718.562,0.226,0.498,0.829,-15.29,10.28,14.5,1,4
16718.578,0.216,0.473,0.805,-14.4,8.64,14.62,1,4
16718.593,0.229,0.459,0.793,-11.84,9.43,14.13,1,4
16718.593,0.219,0.469,0.813,-7.11,13.73,15.05,1,4
16718.609,0.2,0.463,0.841,-2.41,18.56,18.1,1,4
16718.625,0.179,0.466,0.879,-1.16,22.13,22.83,1,4
16718.625,0.156,0.477,0.919,-3.39,23.56,28.05,1,4
16718.64,0.136,0.451,0.942,-9.31,21.42,32.17,1,4
16718.656,0.135,0.41,0.968,-16.97,17.0,34.03,1,4
16718.656,0.139,0.367,0.968,-20.36,12.91,34.36,1,4
16718.671,0.138,0.322,0.952,-18.25,10.77,33.33,1,4
16718.687,0.132,0.299,0.941,-13.52,10.32,30.82,1,4
16718.687,0.116,0.294,0.939,-7.54,10.1,27.77,1,4
16718.703,0.094,0.296,0.932,-2.11,9.89,25.42,1,4
16718.718,0.091,0.307,0.917,1.04,9.61,24.2,1,4
16718.718,0.08,0.322,0.92,1.16,9.19,23.41,1,4
16718.734,0.078,0.325,0.926,-1.4,8.0,22.95,1,4
16718.734,0.079,0.328,0.928,-5.46,7.26,23.16,1,4
16718.75,0.073,0.315,0.935,-8.94,6.9,23.9,1,4
16718.765,0.073,0.289,0.945,-10.93,6.41,24.9,1,4
16718.781,0.086,0.275,0.949,-10.16,5.74,25.03,1,4
16718.781,0.094,0.266,0.949,-7.51,4.7,22.83,1,4
16718.796,0.102,0.267,0.947,-3.94,3.23,18.74,1,4
16718.796,0.121,0.284,0.931,0.03,1.89,14.83,1,4
16718.812,0.138,0.309,0.924,3.23,2.14,12.02,1,4
16718.812,0.138,0.329,0.929,6.2,3.36,10.41,1,4
16718.828,0.132,0.363,0.938,7.87,4.46,10.44,1,4
16718.843,0.112,0.402,0.96,6.96,4.0,11.44,1,4
16718.843,0.092,0.421,0.973,4.94,0.73,11.96,1,4
16718.859,0.095,0.421,0.95,3.11,-3.57,13.79,1,4
16718.875,0.115,0.4,0.906,1.28,-6.13,16.08,1,4
16718.875,0.132,0.381,0.863,1.68,-4.21,18.07,1,4
16718.89,0.13,0.377,0.846,4.21,0.95,19.53,1,4
16718.89,0.12,0.371,0.848,6.35,5.55,20.26,1,4
16718.906,0.11,0.367,0.863,6.13,7.84,20.54,1,4
16718.921,0.11,0.37,0.883,4.24,7.78,20.54,1,4
16718.937,0.12,0.36,0.892,1.89,6.1,20.23,1,4
16718.937,0.143,0.359,0.894,0.85,5.77,19.68,1,4
16718.953,0.14,0.378,0.905,2.41,7.23,19.14,1,4
16718.953,0.126,0.392,0.918,4.73,7.93,18.98,1,4
16718.968,0.119,0.397,0.927,5.65,7.39,19.38,1,4
16718.984,0.121,0.397,0.93,4.85,6.53,20.33,1,4
16718.984,0.127,0.387,0.92,4.0,5.83,21.7,1,4
16719.0,0.137,0.38,0.912,2.96,6.04,23.04,1,4
16719.015,0.142,0.368,0.914,-2.44,7.08,22.1,1,4
16719.015,0.14,0.361,0.926,-4.61,6.87,20.54,1,4
16719.031,0.138,0.349,0.944,-5.95,6.2,18.34,1,4
16719.046,0.146,0.327,0.958,-5.74,6.41,16.02,1,4
16719.046,0.134,0.307,0.98,-4.82,6.84,13.18,1,4
16719.062,0.119,0.307,0.988,-4.49,6.44,10.47,1,4
16719.062,0.115,0.302,0.983,-4.33,5.1,8.3,1,4
16719.078,0.122,0.291,0.969,-2.62,3.81,6.5,1,4
16719.093,0.123,0.293,0.951,1.53,4.33,4.79,1,4
16719.093,0.122,0.297,0.938,8.15,6.2,3.36,1,4
16719.109,0.123,0.313,0.924,14.16,8.24,1.31,1,4
16719.125,0.115,0.325,0.913,18.4,9.86,-1.19,1,4
16719.14,0.111,0.342,0.905,21.45,10.68,-4.03,1,4
16719.14,0.103,0.37,0.897,23.35,11.32,-5.83,1,4
16719.156,0.085,0.399,0.903,23.62,11.84,-6.44,1,4
16719.156,0.079,0.423,0.907,21.15,10.74,-5.74,1,4
16719.171,0.093,0.443,0.912,16.6,8.12,-4.64,1,4
16719.187,0.1,0.443,0.907,11.69,5.28,-4.55,1,4
16719.187,0.11,0.428,0.901,7.2,2.96,-4.73,1,4
16719.203,0.123,0.41,0.896,4.36,1.22,-5.34,1,4
16719.203,0.129,0.394,0.89,3.6,0.52,-6.5,1,4
16719.218,0.131,0.38,0.898,4.61,0.12,-7.9,1,4
16719.234,0.138,0.367,0.91,7.84,-0.06,-8.94,1,4
16719.25,0.141,0.367,0.911,11.63,-0.24,-10.28,1,4
16719.25,0.139,0.366,0.899,14.28,-1.19,-12.18,1,4
16719.265,0.153,0.371,0.9,15.75,-2.08,-14.04,1,4
16719.265,0.151,0.383,0.89,17.15,-1.46,-15.66,1,4
16719.281,0.14,0.396,0.878,16.72,-0.43,-16.48,1,4
16719.296,0.135,0.41,0.873,13.73,1.13,-16.39,1,4
16719.296,0.122,0.427,0.871,9.58,3.42,-15.14,1,4
16719.312,0.102,0.432,0.877,3.17,4.88,-13.12,1,4
16719.328,0.098,0.416,0.927,-3.88,1.89,-11.44,1,4
16719.328,0.114,0.396,0.941,-8.03,-4.52,-8.21,1,4
16719.343,0.068,0.415,0.953,-11.69,-10.74,-3.72,1,4
16719.359,0.132,0.381,0.933,-15.69,-17.18,1.07,1,4
16719.359,0.169,0.389,0.93,-18.98,-17.88,1.1,1,4
16719.375,0.189,0.381,0.957,-16.88,-12.79,1.22,1,4
16719.375,0.176,0.357,0.97,-12.94,-4.85,1.53,1,4
16719.39,0.139,0.382,1.004,-11.54,0.92,0.58,1,4
16719.406,0.084,0.378,1.005,-7.29,1.89,-0.37,1,4
16719.406,0.021,0.41,1.023,-1.1,0.92,-0.46,1,4
16719.421,-0.027,0.482,1.032,11.41,-7.84,2.26,1,4
16719.421,0.016,0.373,0.886,23.77,-22.95,0.67,1,4
16719.437,-0.113,0.41,0.988,28.6,-32.69,-3.91,1,4
16719.453,-0.006,0.419,1.091,46.05,-46.33,3.63,1,4
16719.468,0.111,0.553,0.951,58.47,-56.4,11.84,1,4
16719.468,0.157,0.584,0.855,49.96,-56.79,18.59,1,4
16719.484,0.215,0.513,0.795,33.78,-51.82,24.51,1,4
16719.484,0.26,0.472,0.73,19.5,-42.24,26.83,1,4
16719.5,0.283,0.401,0.709,8.36,-29.08,24.48,1,4
16719.515,0.279,0.312,0.695,3.94,-14.47,18.8,1,4
16719.515,0.279,0.257,0.683,3.48,-0.52,11.11,1,4
16719.531,0.266,0.233,0.676,4.91,13.0,1.56,1,4
16719.546,0.202,0.236,0.724,7.48,25.88,-8.18,1,4
16719.546,0.121,0.255,0.798,10.41,30.88,-17.06,1,4
16719.562,0.075,0.284,0.861,10.99,26.25,-24.32,1,4
16719.562,0.077,0.321,0.907,9.52,16.45,-28.96,1,4
16719.578,0.104,0.357,0.914,7.39,7.08,-31.13,1,4
16719.593,0.123,0.388,0.888,3.97,1.19,-31.19,1,4
16719.609,0.143,0.399,0.862,-0.76,-0.67,-30.82,1,4
16719.609,0.154,0.411,0.855,-5.98,1.31,-30.3,1,4
16719.625,0.153,0.414,0.848,-10.65,5.25,-30.43,1,4
16719.625,0.156,0.407,0.842,-15.38,9.64,-31.86,1,4
16719.64,0.153,0.395,0.84,-18.77,14.8,-34.82,1,4
16719.656,0.122,0.39,0.86,-20.17,19.71,-38.42,1,4
16719.656,0.076,0.39,0.89,-18.98,22.31,-40.68,1,4
16719.671,0.025,0.406,0.93,-15.26,21.33,-40.22,1,4
16719.687,-0.011,0.41,0.951,-10.28,15.78,-37.72,1,4
16719.687,-0.108,0.47,1.009,-4.79,7.42,-33.57,1,4
16719.703,-0.041,0.554,1.107,9.89,-4.52,-17.37,1,4
16719.703,0.133,0.582,0.977,13.0,-18.34,-6.56,1,4
16719.718,0.121,0.602,0.93,-3.63,-23.47,-10.77,1,4
16719.734,0.123,0.507,0.951,-16.39,-24.57,-12.27,1,4
16719.734,0.136,0.463,0.937,-20.51,-25.39,-12.02,1,4
16719.75,0.135,0.417,0.917,-20.05,-24.78,-14.04,1,4
16719.765,0.132,0.393,0.92,-18.83,-23.93,-16.94,1,4
16719.765,0.136,0.378,0.916,-14.16,-23.19,-19.62,1,4
16719.781,0.141,0.367,0.906,-6.99,-21.55,-22.34,1,4
16719.781,0.139,0.381,0.9,0.67,-18.68,-24.05,1,4
16719.796,0.133,0.409,0.9,7.08,-15.29,-24.38,1,4
16719.812,0.126,0.442,0.883,10.77,-12.57,-23.68,1,4
16719.828,0.132,0.464,0.879,9.89,-10.93,-21.27,1,4
16719.828,0.127,0.477,0.879,6.38,-9.22,-18.13,1,4
16719.843,0.125,0.475,0.881,1.92,-8.06,-14.8,1,4
16719.843,0.12,0.461,0.897,-3.27,-8.06,-12.33,1,4
16719.859,0.126,0.441,0.911,-7.63,-9.34,-11.08,1,4
16719.875,0.134,0.41,0.917,-9.64,-10.9,-11.6,1,4
16719.875,0.142,0.38,0.923,-9.55,-11.99,-13.4,1,4
16719.89,0.144,0.368,0.931,-8.12,-12.85,-16.24,1,4
16719.906,0.135,0.357,0.935,-5.83,-14.47,-19.78,1,4
16719.906,0.126,0.353,0.924,-3.45,-16.42,-23.99,1,4
16719.921,0.131,0.356,0.905,-1.5,-17.73,-27.77,1,4
16719.921,0.125,0.37,0.893,-0.12,-18.25,-31.25,1,4
16719.937,0.124,0.38,0.879,1.28,-18.04,-33.02,1,4
16719.953,0.122,0.387,0.864,1.07,-17.06,-33.02,1,4
16719.953,0.11,0.404,0.859,-0.21,-15.96,-31.89,1,4
16719.968,0.109,0.413,0.853,-2.17,-15.59,-29.73,1,4
16719.984,0.11,0.413,0.853,-4.15,-15.56,-27.16,1,4
16719.984,0.106,0.414,0.859,-4.49,-15.53,-24.78,1,4
16720.0,0.104,0.419,0.856,-0.67,-15.87,-19.38,1,4
16720.015,0.111,0.426,0.855,0.24,-15.63,-17.64,1,4
16720.031,0.116,0.434,0.853,-0.98,-15.59,-16.97,1,4
16720.031,0.13,0.452,0.873,-2.62,-16.11,-16.66,1,4
16720.031,0.139,0.452,0.882,-3.54,-16.97,-15.93,1,4
16720.046,0.152,0.452,0.885,-3.63,-17.18,-14.8,1,4
16720.062,0.161,0.455,0.893,-3.27,-16.82,-13.92,1,4
16720.062,0.168,0.457,0.902,-2.75,-16.14,-13.34,1,4
16720.078,0.169,0.452,0.906,-1.8,-15.47,-13.15,1,4
16720.093,0.168,0.449,0.906,-1.13,-15.02,-13.43,1,4
16720.093,0.171,0.446,0.904,-1.34,-14.83,-14.47,1,4
16720.109,0.173,0.438,0.901,-2.01,-14.83,-16.39,1,4
16720.125,0.168,0.429,0.897,-2.2,-14.37,-18.49,1,4
16720.125,0.166,0.43,0.889,-0.85,-13.46,-19.68,1,4
16720.14,0.168,0.436,0.884,1.16,-11.87,-20.36,1,4
16720.156,0.162,0.442,0.883,3.81,-9.86,-20.33,1,4
16720.156,0.157,0.446,0.885,7.54,-7.54,-18.92,1,4
16720.171,0.152,0.442,0.886,12.36,-5.28,-16.36,1,4
16720.171,0.151,0.438,0.871,18.8,-2.72,-12.91,1,4
16720.187,0.154,0.443,0.849,26.52,0.58,-8.67,1,4
16720.203,0.154,0.463,0.828,33.57,5.1,-4.09,1,4
16720.203,0.146,0.498,0.826,35.83,8.61,-0.37,1,4
16720.218,0.138,0.518,0.829,29.94,9.16,1.19,1,4
16720.234,0.135,0.502,0.846,18.4,7.48,1.5,1,4
16720.234,0.138,0.471,0.864,7.72,5.04,1.65,1,4
16720.25,0.143,0.45,0.874,1.56,3.78,1.95,1,4
16720.265,0.145,0.438,0.896,0.4,3.6,2.59,1,4
16720.265,0.139,0.425,0.912,3.3,3.45,2.11,1,4
16720.281,0.128,0.418,0.917,7.35,2.78,0.85,1,4
16720.296,0.115,0.425,0.912,12.09,1.31,-0.49,1,4
16720.296,0.089,0.453,0.913,17.98,-1.07,-1.04,1,4
16720.312,0.046,0.491,0.917,24.05,-5.74,-0.34,1,4
16720.312,0.012,0.523,0.891,26.8,-14.5,1.43,1,4
16720.328,0.073,0.524,0.949,22.61,-26.0,3.54,1,4
16720.343,0.129,0.515,0.94,19.2,-36.96,3.05,1,4
16720.343,0.191,0.533,0.868,15.47,-40.96,3.94,1,4
16720.359,0.219,0.508,0.824,12.39,-37.26,4.12,1,4
16720.375,0.222,0.492,0.786,12.27,-29.39,3.33,1,4
16720.375,0.225,0.493,0.764,11.51,-20.11,2.62,1,4
16720.39,0.215,0.48,0.767,8.61,-11.66,0.0,1,4
16720.406,0.194,0.464,0.784,5.37,-5.22,-3.51,1,4
16720.406,0.166,0.453,0.804,4.27,-1.34,-6.93,1,4
16720.421,0.149,0.451,0.826,4.55,-0.12,-9.31,1,4
16720.421,0.147,0.46,0.837,5.58,-0.49,-10.93,1,4
16720.437,0.134,0.474,0.844,7.29,-1.07,-12.12,1,4
16720.453,0.12,0.484,0.862,8.15,-2.66,-11.84,1,4
16720.453,0.127,0.49,0.869,7.29,-6.23,-10.74,1,4
16720.468,0.148,0.495,0.86,5.71,-9.58,-9.43,1,4
16720.484,0.173,0.489,0.846,3.97,-10.83,-8.67,1,4
16720.484,0.184,0.48,0.833,3.14,-9.74,-8.85,1,4
16720.5,0.187,0.471,0.825,2.96,-7.69,-9.28,1,4
16720.515,0.187,0.457,0.823,3.75,-5.34,-10.13,1,4
16720.531,0.175,0.457,0.836,5.65,-3.05,-10.71,1,4
16720.531,0.156,0.466,0.851,7.23,-1.86,-10.77,1,4
16720.531,0.146,0.466,0.863,7.54,-3.39,-10.71,1,4
16720.546,0.145,0.462,0.877,6.87,-6.68,-10.99,1,4
16720.562,0.148,0.465,0.89,6.5,-10.74,-11.51,1,4
16720.578,0.159,0.467,0.89,6.93,-14.8,-11.81,1,4
16720.578,0.182,0.464,0.881,7.78,-17.43,-12.05,1,4
16720.593,0.198,0.463,0.871,8.58,-18.25,-12.63,1,4
16720.593,0.204,0.461,0.865,8.85,-17.82,-13.67,1,4
16720.609,0.202,0.462,0.864,8.7,-17.3,-15.11,1,4
16720.625,0.2,0.458,0.86,8.7,-17.18,-17.03,1,4
16720.625,0.194,0.46,0.858,8.7,-17.15,-19.07,1,4
16720.64,0.192,0.462,0.857,8.76,-17.4,-21.12,1,4
16720.656,0.196,0.462,0.858,9.43,-17.88,-23.01,1,4
16720.656,0.196,0.464,0.858,10.83,-17.98,-24.72,1,4
16720.671,0.193,0.467,0.856,12.33,-17.88,-25.97,1,4
16720.671,0.183,0.478,0.86,13.34,-17.98,-26.95,1,4
16720.687,0.172,0.491,0.868,13.46,-18.98,-27.53,1,4
16720.703,0.165,0.508,0.873,12.63,-21.36,-27.44,1,4
16720.703,0.17,0.522,0.866,10.83,-24.14,-26.92,1,4
16720.718,0.177,0.526,0.855,8.94,-26.22,-26.18,1,4
16720.734,0.175,0.525,0.847,7.48,-27.16,-25.97,1,4
16720.734,0.169,0.534,0.843,6.26,-27.59,-25.51,1,4
16720.75,0.165,0.537,0.837,5.1,-28.41,-25.33,1,4
16720.765,0.169,0.533,0.824,4.12,-29.15,-25.3,1,4
16720.765,0.177,0.529,0.814,3.75,-29.24,-25.21,1,4
16720.781,0.182,0.521,0.806,3.94,-28.02,-24.87,1,4
16720.796,0.186,0.511,0.801,4.61,-25.97,-24.54,1,4
16720.812,0.185,0.502,0.802,4.97,-23.74,-24.38,1,4
16720.812,0.181,0.494,0.807,5.01,-22.55,-25.33,1,4
16720.812,0.18,0.483,0.817,5.52,-22.58,-26.98,1,4
16720.828,0.182,0.471,0.831,7.51,-23.35,-29.08,1,4
16720.843,0.195,0.463,0.84,10.96,-24.23,-31.31,1,4
16720.843,0.204,0.454,0.841,15.59,-25.18,-34.49,1,4
16720.859,0.216,0.446,0.844,20.57,-25.67,-38.3,1,4
16720.875,0.218,0.44,0.845,25.76,-26.18,-43.21,1,4
16720.89,0.211,0.446,0.845,30.43,-27.16,-48.83,1,4
16720.89,0.199,0.47,0.846,34.06,-28.63,-53.68,1,4
16720.906,0.187,0.508,0.845,35.68,-31.19,-56.49,1,4
16720.906,0.184,0.54,0.836,34.42,-34.64,-57.13,1,4
16720.921,0.189,0.559,0.819,31.1,-37.87,-55.94,1,4
16720.937,0.191,0.573,0.804,26.76,-40.01,-54.02,1,4
16720.937,0.182,0.584,0.789,22.43,-41.81,-52.0,1,4
16720.953,0.181,0.595,0.774,18.01,-43.76,-49.62,1,4
16720.968,0.185,0.6,0.76,13.95,-45.35,-47.55,1,4
16720.968,0.183,0.61,0.743,10.71,-45.72,-45.96,1,4
16720.984,0.176,0.617,0.726,4.73,-44.77,-41.78,1,4
16720.984,0.167,0.619,0.714,1.01,-43.55,-39.12,1,4
16721.0,0.161,0.626,0.706,-3.39,-42.02,-36.68,1,4
16721.015,0.159,0.637,0.703,-7.6,-40.5,-34.64,1,4
16721.015,0.146,0.634,0.704,-10.65,-39.06,-33.11,1,4
16721.031,0.144,0.635,0.709,-11.44,-37.29,-32.32,1,4
16721.046,0.14,0.637,0.714,-10.04,-35.43,-32.69,1,4
16721.046,0.135,0.648,0.711,-7.23,-33.91,-33.39,1,4
16721.062,0.129,0.669,0.711,-4.76,-32.47,-33.57,1,4
16721.062,0.12,0.686,0.709,-3.63,-31.28,-33.08,1,4
16721.093,0.112,0.698,0.702,-3.85,-30.55,-31.86,1,4
16721.093,0.112,0.704,0.698,-4.79,-29.82,-29.73,1,4
16721.109,0.113,0.7,0.696,-6.07,-28.69,-27.31,1,4
16721.109,0.116,0.689,0.691,-7.05,-27.28,-24.87,1,4
16721.125,0.111,0.674,0.689,-6.9,-25.82,-23.04,1,4
16721.125,0.113,0.663,0.686,-5.83,-24.78,-22.06,1,4
16721.14,0.124,0.661,0.681,-4.15,-23.22,-21.64,1,4
16721.156,0.127,0.659,0.681,-1.22,-20.87,-21.79,1,4
16721.156,0.125,0.657,0.678,2.53,-18.04,-21.79,1,4
16721.171,0.13,0.665,0.676,6.2,-15.05,-21.24,1,4
16721.187,0.129,0.68,0.68,8.97,-12.36,-20.63,1,4
16721.187,0.121,0.683,0.686,10.32,-10.32,-19.75,1,4
16721.203,0.117,0.681,0.696,10.38,-9.58,-17.73,1,4
16721.203,0.128,0.687,0.694,9.95,-9.46,-15.59,1,4
16721.218,0.129,0.692,0.695,8.36,-9.4,-12.97,1,4
16721.234,0.137,0.684,0.693,5.52,-9.74,-10.44,1,4
16721.234,0.15,0.676,0.695,3.02,-9.67,-7.6,1,4
16721.25,0.162,0.658,0.691,2.04,-8.7,-5.01,1,4
16721.265,0.174,0.642,0.688,2.14,-6.59,-2.72,1,4
16721.265,0.182,0.627,0.691,2.87,-3.69,-1.34,1,4
16721.281,0.184,0.617,0.699,3.36,-1.1,-0.76,1,4
16721.296,0.185,0.62,0.713,3.36,0.67,-0.79,1,4
16721.296,0.182,0.633,0.731,2.32,1.4,-1.07,1,4
16721.312,0.188,0.71,0.785,-5.71,0.24,0.31,1,4
16721.328,0.186,0.77,0.842,-15.96,-3.02,3.33,1,4
16721.328,0.181,0.741,0.854,-21.03,-7.69,7.57,1,4
16721.343,0.203,0.706,0.847,-24.2,-12.91,13.46,1,4
16721.343,0.214,0.667,0.828,-22.89,-15.41,18.43,1,4
16721.359,0.231,0.595,0.798,-16.82,-15.99,21.33,1,4
16721.375,0.246,0.55,0.767,-9.92,-15.26,20.81,1,4
16721.375,0.249,0.528,0.747,-3.63,-13.43,16.97,1,4
16721.39,0.245,0.533,0.747,1.5,-11.47,12.33,1,4
16721.406,0.237,0.569,0.753,4.58,-10.07,8.7,1,4
16721.406,0.245,0.59,0.765,3.69,-10.01,5.95,1,4
16721.421,0.25,0.594,0.78,1.86,-10.22,3.54,1,4
16721.421,0.244,0.598,0.783,0.7,-10.25,1.77,1,4
16721.437,0.239,0.589,0.78,0.06,-10.59,0.09,1,4
16721.453,0.235,0.571,0.776,1.04,-10.86,-2.2,1,4
16721.453,0.23,0.567,0.773,3.97,-10.93,-4.58,1,4
16721.468,0.223,0.588,0.768,7.54,-11.02,-6.13,1,4
16721.484,0.21,0.6,0.768,10.62,-11.26,-6.71,1,4
16721.484,0.207,0.608,0.758,13.06,-12.27,-6.35,1,4
16721.5,0.211,0.627,0.744,14.47,-13.21,-5.49,1,4
16721.515,0.215,0.631,0.735,14.28,-13.82,-5.01,1,4
16721.531,0.216,0.626,0.726,13.61,-14.16,-4.61,1,4
16721.531,0.217,0.626,0.717,12.42,-14.01,-3.91,1,4
16721.546,0.215,0.621,0.715,10.96,-13.98,-3.6,1,4
16721.546,0.221,0.615,0.717,10.41,-14.04,-2.75,1,4
16721.562,0.223,0.627,0.715,10.35,-13.58,-1.37,1,4
16721.578,0.226,0.637,0.726,9.49,-13.31,-0.49,1,4
16721.578,0.228,0.639,0.732,8.18,-13.79,-0.76,1,4
16721.593,0.228,0.635,0.731,8.09,-15.08,-1.46,1,4
16721.593,0.23,0.637,0.729,8.09,-16.48,-2.17,1,4
16721.609,0.236,0.63,0.723,8.48,-17.88,-2.66,1,4
16721.625,0.243,0.629,0.71,9.55,-18.37,-2.47,1,4
16721.64,0.247,0.63,0.7,9.8,-17.98,-1.8,1,4
16721.64,0.246,0.643,0.71,9.37,-17.15,-1.8,1,4
16721.656,0.243,0.649,0.71,8.36,-17.06,-1.98,1,4
16721.656,0.25,0.649,0.702,7.35,-17.4,-2.41,1,4
16721.671,0.256,0.65,0.693,6.81,-16.6,-2.66,1,4
16721.687,0.258,0.651,0.688,5.62,-15.32,-3.05,1,4
16721.687,0.261,0.649,0.685,3.75,-13.82,-3.23,1,4
16721.703,0.254,0.647,0.685,1.95,-11.9,-3.33,1,4
16721.703,0.246,0.656,0.695,0.15,-10.47,-2.72,1,4
16721.718,0.242,0.662,0.706,-1.53,-9.8,-1.5,1,4
16721.734,0.24,0.659,0.711,-2.66,-9.74,-0.18,1,4
16721.734,0.235,0.654,0.717,-2.96,-9.74,1.28,1,4
16721.75,0.234,0.654,0.721,-3.17,-9.92,2.96,1,4
16721.765,0.243,0.655,0.716,-3.42,-10.04,4.67,1,4
16721.765,0.249,0.655,0.698,-3.6,-9.77,5.77,1,4
16721.781,0.25,0.66,0.685,-5.25,-8.36,6.81,1,4
16721.796,0.252,0.664,0.679,-8.42,-7.02,7.97,1,4
16721.796,0.254,0.657,0.672,-11.38,-6.07,9.03,1,4
16721.812,0.263,0.644,0.68,-14.71,-5.28,8.88,1,4
16721.828,0.267,0.636,0.695,-17.15,-5.19,7.75,1,4
16721.828,0.279,0.619,0.714,-17.85,-5.89,6.47,1,4
16721.843,0.29,0.598,0.733,-16.57,-6.5,4.52,1,4
16721.843,0.299,0.581,0.736,-13.09,-7.11,2.11,1,4
16721.859,0.305,0.581,0.737,-9.64,-7.51,-0.12,1,4
16721.875,0.303,0.582,0.744,-7.02,-7.87,-2.29,1,4
16721.89,0.298,0.587,0.741,-4.18,-8.39,-4.09,1,4
16721.89,0.291,0.6,0.73,-1.46,-8.55,-5.62,1,4
16721.906,0.283,0.612,0.719,0.0,-8.58,-6.99,1,4
16721.906,0.28,0.624,0.713,0.49,-8.18,-7.54,1,4
16721.921,0.277,0.636,0.712,0.18,-7.14,-7.26,1,4
16721.937,0.27,0.639,0.711,-0.03,-5.77,-6.35,1,4
16721.937,0.263,0.64,0.711,-0.76,-4.55,-5.16,1,4
16721.953,0.26,0.633,0.711,-1.74,-3.69,-3.81,1,4
16721.968,0.258,0.626,0.709,-3.51,-2.2,-1.22,1,4
16721.968,0.256,0.628,0.712,-4.18,-1.98,0.06,1,4
16721.984,0.26,0.627,0.715,-4.09,-1.83,0.92,1,4
16721.984,0.259,0.624,0.717,-4.49,-2.35,1.62,1,4
16722.0,0.268,0.63,0.723,-4.09,-3.33,2.29,1,4
16722.015,0.28,0.62,0.714,-3.39,-3.54,2.53,1,4
16722.015,0.288,0.617,0.704,-3.14,-2.72,2.32,1,4
16722.031,0.29,0.614,0.706,-3.78,-1.37,1.77,1,4
16722.046,0.29,0.608,0.709,-4.52,-0.03,0.82,1,4
16722.046,0.281,0.611,0.721,-4.85,0.89,0.12,1,4
16722.062,0.274,0.615,0.73,-4.67,0.79,-0.31,1,4
16722.078,0.27,0.612,0.733,-3.78,0.0,-0.58,1,4
16722.078,0.267,0.616,0.737,-3.45,-1.19,-0.61,1,4
16722.093,0.274,0.62,0.735,-3.39,-2.56,-0.4,1,4
16722.093,0.284,0.615,0.726,-2.53,-3.17,-0.37,1,4
16722.109,0.284,0.613,0.721,-1.89,-2.78,-0.64,1,4
16722.125,0.281,0.615,0.724,-1.86,-2.14,-0.92,1,4
16722.125,0.275,0.614,0.725,-1.77,-1.83,-1.1,1,4
16722.14,0.271,0.611,0.724,-1.71,-1.98,-1.34,1,4
16722.156,0.27,0.617,0.727,-1.74,-2.35,-1.4,1,4
16722.156,0.271,0.623,0.731,-2.14,-3.08,-1.71,1,4
16722.171,0.271,0.621,0.731,-2.38,-4.09,-2.35,1,4
16722.187,0.268,0.613,0.732,-2.32,-5.1,-3.17,1,4
16722.187,0.267,0.613,0.731,-2.23,-6.29,-3.88,1,4
16722.203,0.271,0.606,0.726,-2.11,-7.63,-4.67,1,4
16722.203,0.278,0.6,0.719,-1.89,-8.7,-5.55,1,4
16722.218,0.287,0.605,0.712,-1.77,-8.67,-6.13,1,4
16722.234,0.293,0.607,0.711,-1.77,-7.75,-6.53,1,4
16722.234,0.287,0.614,0.713,-1.68,-6.59,-6.53,1,4
16722.25,0.279,0.626,0.72,-2.11,-5.74,-5.95,1,4
16722.265,0.276,0.62,0.718,-1.86,-5.28,-5.16,1,4
16722.265,0.272,0.614,0.716,-1.59,-4.49,-4.27,1,4
16722.281,0.271,0.613,0.721,-1.8,-3.66,-3.33,1,4
16722.296,0.27,0.611,0.729,-1.86,-3.45,-2.47,1,4
16722.296,0.27,0.614,0.735,-1.46,-3.45,-1.34,1,4
16722.312,0.265,0.623,0.737,-1.1,-3.42,0.0,1,4
16722.312,0.269,0.617,0.732,-0.85,-4.21,0.64,1,4
16722.328,0.275,0.609,0.729,-0.4,-5.16,0.67,1,4
16722.343,0.28,0.609,0.725,0.03,-5.49,0.49,1,4
16722.343,0.29,0.609,0.72,0.37,-5.43,0.12,1,4
16722.359,0.293,0.61,0.715,0.76,-4.91,-0.06,1,4
16722.375,0.288,0.617,0.716,0.43,-3.91,-0.34,1,4
16722.375,0.283,0.617,0.719,-0.09,-3.23,-0.73,1,4
16722.39,0.277,0.614,0.717,-0.06,-2.81,-0.73,1,4
16722.406,0.272,0.614,0.723,-0.24,-2.93,-0.67,1,4
16722.421,0.271,0.616,0.724,-0.79,-3.69,-0.4,1,4
16722.421,0.274,0.615,0.718,-0.82,-4.27,0.0,1,4
16722.421,0.276,0.616,0.716,-1.01,-4.36,0.43,1,4
16722.437,0.276,0.618,0.72,-1.62,-4.39,0.89,1,4
16722.453,0.281,0.617,0.721,-2.08,-4.55,1.22,1,4
16722.453,0.288,0.609,0.72,-1.86,-4.33,1.53,1,4
16722.468,0.289,0.608,0.719,-1.62,-3.6,1.74,1,4
16722.484,0.29,0.61,0.726,-1.65,-2.81,2.11,1,4
16722.5,0.287,0.606,0.728,-1.28,-2.32,2.17,1,4
16722.5,0.283,0.607,0.733,-0.89,-2.23,2.08,1,4
16722.515,0.285,0.609,0.734,-0.4,-2.87,2.01,1,4
16722.515,0.288,0.605,0.724,0.46,-3.33,1.8,1,4
16722.531,0.289,0.608,0.719,0.73,-3.39,1.53,1,4
16722.546,0.285,0.627,0.72,-0.37,-3.39,1.5,1,4
16722.546,0.287,0.617,0.723,-0.34,-3.66,1.74,1,4
16722.562,0.291,0.601,0.715,-0.06,-3.42,1.95,1,4
16722.578,0.294,0.603,0.715,-0.15,-2.96,2.17,1,4
16722.578,0.299,0.607,0.718,-0.31,-2.32,1.77,1,4
16722.593,0.298,0.614,0.725,-0.18,-1.65,1.28,1,4
16722.593,0.291,0.615,0.729,0.4,-1.37,0.76,1,4
16722.609,0.293,0.603,0.731,1.07,-1.71,0.12,1,4
16722.625,0.294,0.6,0.726,1.65,-1.83,-0.37,1,4
16722.625,0.294,0.598,0.724,2.41,-1.62,-0.82,1,4
16722.64,0.294,0.6,0.723,2.96,-1.37,-1.28,1,4
16722.656,0.288,0.607,0.72,3.51,-1.01,-1.43,1,4
16722.656,0.284,0.619,0.722,3.36,-0.79,-1.07,1,4
16722.671,0.285,0.625,0.722,2.96,-1.16,-0.58,1,4
16722.687,0.289,0.623,0.716,2.66,-1.34,0.12,1,4
16722.687,0.292,0.615,0.709,2.23,-1.19,0.55,1,4
16722.703,0.294,0.609,0.707,1.4,-0.98,0.43,1,4
16722.718,0.293,0.609,0.709,0.4,-0.58,0.03,1,4
16722.718,0.289,0.616,0.718,-0.49,-0.58,-0.18,1,4
16722.734,0.289,0.62,0.723,-0.61,-1.25,-0.06,1,4
16722.734,0.294,0.616,0.72,-0.34,-1.74,0.03,1,4
16722.75,0.292,0.608,0.717,-0.27,-2.11,-0.09,1,4
16722.765,0.293,0.612,0.721,-0.67,-2.41,-0.24,1,4
16722.765,0.296,0.613,0.72,-0.52,-2.81,-0.31,1,4
16722.781,0.295,0.612,0.714,-0.31,-2.75,-0.55,1,4
16722.796,0.297,0.613,0.715,-0.49,-2.56,-0.89,1,4
16722.796,0.297,0.614,0.717,-0.64,-2.26,-1.5,1,4
16722.812,0.292,0.613,0.718,-0.76,-2.01,-1.89,1,4
16722.812,0.287,0.612,0.72,-0.82,-1.77,-2.14,1,4
16722.828,0.284,0.612,0.724,-0.73,-1.8,-2.08,1,4
16722.843,0.287,0.614,0.723,-0.34,-1.89,-1.65,1,4
16722.843,0.287,0.61,0.717,-0.34,-1.77,-1.5,1,4
16722.859,0.283,0.612,0.724,-0.67,-1.74,-1.31,1,4
16722.875,0.283,0.614,0.727,-0.37,-2.35,-0.98,1,4
16722.875,0.292,0.617,0.723,0.4,-2.84,-0.52,1,4
16722.89,0.299,0.616,0.714,0.7,-2.32,0.03,1,4
16722.906,0.299,0.611,0.713,0.82,-1.53,0.18,1,4
16722.906,0.297,0.609,0.715,0.49,-0.79,0.06,1,4
16722.921,0.294,0.607,0.715,0.37,-0.43,-0.37,1,4
16722.937,0.296,0.611,0.713,0.09,-0.21,-0.61,1,4
16722.937,0.293,0.614,0.715,-0.09,0.24,-0.79,1,4
16722.953,0.284,0.618,0.723,-0.7,-0.4,-0.49,1,4
16722.953,0.285,0.618,0.725,-0.4,-0.98,-0.09,1,4
16722.968,0.291,0.614,0.718,-0.27,-0.73,0.12,1,4
16722.984,0.294,0.617,0.721,-0.37,-0.46,0.03,1,4
16722.984,0.294,0.613,0.719,0.06,-0.46,-0.15,1,4
16723.0,0.294,0.61,0.718,0.27,-0.18,-0.43,1,4
16723.015,0.289,0.61,0.725,0.64,-0.03,-0.79,1,4
16723.015,0.287,0.611,0.725,0.95,-0.24,-1.1,1,4
16723.031,0.288,0.61,0.718,1.22,-0.61,-1.1,1,4
16723.046,0.288,0.611,0.713,1.4,-0.61,-1.01,1,4
16723.046,0.284,0.615,0.714,0.95,-0.4,-0.76,1,4
16723.062,0.281,0.619,0.716,0.24,-0.89,-0.24,1,4
16723.078,0.285,0.617,0.712,-0.34,-1.5,0.46,1,4
16723.078,0.292,0.618,0.708,-0.92,-1.83,1.07,1,4
16723.093,0.293,0.616,0.71,-1.59,-1.74,1.31,1,4
16723.109,0.293,0.613,0.712,-2.26,-1.4,1.28,1,4
16723.109,0.296,0.61,0.715,-2.75,-1.34,1.07,1,4
16723.125,0.297,0.612,0.72,-2.96,-1.22,0.61,1,4
16723.125,0.297,0.613,0.724,-2.66,-0.98,0.09,1,4
16723.14,0.29,0.61,0.73,-1.89,-0.76,-0.31,1,4
16723.156,0.282,0.608,0.735,-0.89,-1.19,-0.52,1,4
16723.156,0.285,0.607,0.736,-0.12,-2.35,-0.49,1,4
16723.171,0.29,0.606,0.726,0.89,-3.17,-0.37,1,4
16723.171,0.295,0.61,0.717,1.28,-3.42,-0.46,1,4
16723.187,0.297,0.613,0.709,1.19,-2.78,-0.7,1,4
16723.203,0.294,0.613,0.707,0.61,-1.95,-1.04,1,4
16723.203,0.293,0.613,0.711,-0.31,-1.56,-1.19,1,4
16723.218,0.291,0.618,0.715,-1.25,-1.34,-0.89,1,4
16723.234,0.293,0.619,0.72,-1.74,-1.28,-0.55,1,4
16723.25,0.292,0.61,0.72,-2.01,-1.37,-0.52,1,4
16723.25,0.293,0.603,0.72,-1.86,-1.59,-0.61,1,4
16723.265,0.292,0.604,0.724,-1.5,-1.68,-0.73,1,4
16723.265,0.288,0.609,0.729,-1.25,-1.71,-0.79,1,4
16723.281,0.288,0.613,0.73,-0.55,-2.04,-0.58,1,4
16723.296,0.29,0.61,0.723,0.24,-2.5,-0.4,1,4
16723.296,0.293,0.609,0.721,0.49,-2.44,-0.43,1,4
16723.312,0.293,0.611,0.725,0.55,-2.29,-0.49,1,4
16723.328,0.285,0.613,0.728,0.92,-2.53,-0.46,1,4
16723.328,0.288,0.609,0.726,1.46,-3.39,-0.31,1,4
16723.343,0.293,0.605,0.721,1.89,-3.94,-0.15,1,4
16723.343,0.294,0.614,0.719,2.26,-4.0,0.03,1,4
16723.359,0.298,0.617,0.714,2.26,-3.72,0.09,1,4
16723.375,0.298,0.615,0.708,2.17,-3.08,-0.03,1,4
16723.375,0.301,0.62,0.704,1.46,-2.32,0.43,1,4
16723.39,0.298,0.615,0.701,0.61,-1.22,0.15,1,4
16723.406,0.295,0.616,0.709,-0.85,-0.58,0.06,1,4
16723.406,0.293,0.616,0.714,-1.77,-0.37,0.12,1,4
16723.421,0.292,0.612,0.719,-1.95,-0.4,0.12,1,4
16723.421,0.292,0.611,0.722,-1.8,-0.58,0.24,1,4
16723.437,0.292,0.609,0.723,-1.65,-0.82,0.27,1,4
16723.453,0.294,0.61,0.725,-0.98,-0.82,0.21,1,4
16723.453,0.291,0.608,0.728,-0.52,-0.64,0.06,1,4
16723.468,0.296,0.608,0.727,0.15,-0.79,0.03,1,4
16723.484,0.299,0.61,0.725,0.89,-0.58,-0.15,1,4
16723.484,0.297,0.609,0.719,1.37,0.0,-0.61,1,4
16723.5,0.299,0.611,0.718,1.4,0.46,-0.82,1,4
16723.515,0.303,0.613,0.717,1.4,0.92,-1.19,1,4
16723.515,0.309,0.617,0.717,1.37,1.89,-1.68,1,4
16723.531,0.323,0.623,0.723,0.98,3.42,-2.53,1,4
16723.546,0.337,0.616,0.727,1.62,5.62,-4.58,1,4
16723.546,0.359,0.609,0.735,3.36,9.8,-7.72,1,4
16723.562,0.368,0.622,0.758,6.35,16.24,-12.94,1,4
16723.562,0.369,0.614,0.763,14.56,24.14,-20.48,1,4
16723.578,0.35,0.632,0.792,23.07,32.17,-29.63,1,4
16723.593,0.303,0.663,0.785,35.04,38.42,-38.82,1,4
16723.593,0.26,0.685,0.773,46.21,42.73,-44.83,1,4
16723.609,0.217,0.694,0.765,52.98,43.64,-48.07,1,4
16723.625,0.188,0.692,0.713,57.07,41.63,-48.4,1,4
16723.64,0.186,0.697,0.652,56.52,39.58,-45.17,1,4
16723.64,0.195,0.71,0.612,51.12,39.55,-39.22,1,4
16723.656,0.208,0.764,0.569,38.36,40.96,-30.98,1,4
16723.656,0.226,0.792,0.535,21.76,44.28,-20.54,1,4
16723.671,0.211,0.789,0.565,4.21,49.23,-8.88,1,4
16723.671,0.195,0.778,0.609,-11.54,51.7,3.08,1,4
16723.687,0.177,0.77,0.651,-23.59,51.09,14.22,1,4
16723.703,0.152,0.764,0.709,-34.94,46.57,24.75,1,4
16723.718,0.152,0.736,0.76,-44.31,36.26,34.03,1,4
16723.718,0.182,0.699,0.782,-48.98,23.22,41.14,1,4
16723.734,0.215,0.66,0.785,-49.5,12.18,45.63,1,4
16723.734,0.249,0.617,0.771,-45.59,3.97,47.52,1,4
16723.75,0.278,0.584,0.743,-37.63,0.15,47.7,1,4
16723.765,0.303,0.561,0.716,-29.39,-0.15,45.84,1,4
16723.765,0.317,0.537,0.693,-22.68,1.86,41.75,1,4
16723.781,0.32,0.516,0.682,-17.15,5.65,36.65,1,4
16723.796,0.308,0.506,0.684,-12.21,9.86,31.4,1,4
16723.796,0.283,0.508,0.696,-7.87,13.15,26.64,1,4
16723.812,0.251,0.511,0.708,-4.79,14.25,22.34,1,4
16723.812,0.223,0.511,0.718,-4.36,11.81,18.56,1,4
16723.828,0.21,0.514,0.727,-5.4,7.08,15.96,1,4
16723.843,0.213,0.511,0.714,-5.31,2.53,14.53,1,4
16723.843,0.226,0.512,0.7,-4.82,0.15,13.79,1,4
16723.859,0.227,0.512,0.691,-4.85,0.18,12.45,1,4
16723.875,0.226,0.51,0.681,-4.76,1.4,9.95,1,4
16723.875,0.228,0.506,0.68,-4.73,3.42,6.99,1,4
16723.89,0.23,0.512,0.691,-4.36,6.01,3.3,1,4
16723.906,0.222,0.523,0.704,-2.62,8.91,-0.95,1,4
16723.906,0.217,0.54,0.715,-0.73,11.75,-4.91,1,4
16723.921,0.205,0.568,0.726,0.82,14.16,-8.3,1,4
16723.937,0.195,0.596,0.733,-0.76,17.55,-12.88,1,4
16723.937,0.194,0.619,0.75,-4.88,20.14,-15.02,1,4
16723.953,0.186,0.66,0.78,-9.86,22.37,-17.85,1,4
16723.953,0.187,0.715,0.816,-14.4,23.41,-19.78,1,4
16723.968,0.145,0.768,0.881,-18.62,22.83,-20.97,1,4
16723.984,0.124,0.742,0.902,-20.14,19.41,-19.87,1,4
16723.984,0.099,0.696,0.892,-17.67,13.92,-16.72,1,4
16724.0,0.095,0.652,0.875,-12.51,8.15,-14.1,1,4
16724.015,0.09,0.617,0.844,-5.34,2.41,-11.26,1,4
16724.015,0.109,0.594,0.811,3.6,-1.25,-9.22,1,4
16724.031,0.123,0.623,0.773,8.79,-3.14,-5.92,1,4
16724.046,0.138,0.607,0.726,10.68,-2.9,-3.91,1,4
16724.046,0.147,0.584,0.697,8.55,-1.07,-2.53,1,4
16724.062,0.152,0.582,0.688,3.45,1.8,-1.59,1,4
16724.078,0.151,0.567,0.681,-1.74,5.28,-1.74,1,4
16724.078,0.156,0.54,0.688,-5.28,9.19,-1.68,1,4
16724.093,0.151,0.531,0.69,-5.4,14.19,-2.96,1,4
16724.093,0.141,0.535,0.699,-3.05,18.52,-4.76,1,4
16724.109,0.12,0.553,0.717,-0.64,21.55,-6.62,1,4
16724.125,0.105,0.572,0.744,1.01,21.24,-8.45,1,4
16724.125,0.101,0.593,0.768,1.28,18.65,-8.82,1,4
16724.14,0.11,0.605,0.776,2.38,16.08,-8.09,1,4
16724.156,0.113,0.624,0.783,2.47,14.04,-6.5,1,4
16724.156,0.12,0.64,0.794,1.07,12.15,-4.58,1,4
16724.171,0.123,0.645,0.793,-1.37,10.16,-2.84,1,4
16724.187,0.133,0.637,0.794,-4.12,8.73,-1.59,1,4
16724.187,0.133,0.627,0.792,-5.52,8.15,-0.82,1,4
16724.203,0.138,0.62,0.798,-5.86,7.75,0.09,1,4
16724.218,0.135,0.621,0.799,-4.91,7.26,0.95,1,4
16724.218,0.128,0.613,0.791,-3.75,6.38,1.5,1,4
16724.234,0.126,0.601,0.783,-2.75,5.13,1.19,1,4
16724.234,0.128,0.601,0.775,-2.87,3.81,0.85,1,4
16724.25,0.131,0.604,0.771,-2.96,3.6,0.24,1,4
16724.265,0.128,0.6,0.772,-4.03,2.99,0.18,1,4
16724.265,0.13,0.588,0.767,-4.39,3.05,-0.15,1,4
16724.281,0.128,0.579,0.763,-4.03,3.2,-0.89,1,4
16724.296,0.127,0.577,0.76,-4.06,3.78,-2.2,1,4
16724.296,0.127,0.574,0.765,-4.18,4.64,-4.03,1,4
16724.312,0.116,0.578,0.764,-4.24,5.49,-6.59,1,4
16724.312,0.103,0.587,0.767,-4.55,6.04,-8.39,1,4
16724.328,0.097,0.591,0.763,-4.85,6.9,-10.1,1,4
16724.343,0.093,0.591,0.771,-6.07,7.17,-11.35,1,4
16724.359,0.086,0.6,0.783,-7.75,7.54,-11.44,1,4
16724.359,0.084,0.595,0.777,-8.85,8.67,-11.78,1,4
16724.375,0.071,0.584,0.781,-10.74,9.89,-12.54,1,4
16724.375,0.063,0.582,0.802,-13.73,10.19,-12.97,1,4
16724.39,0.058,0.587,0.831,-16.51,8.61,-12.39,1,4
16724.406,0.065,0.59,0.838,-16.72,5.77,-11.35,1,4
16724.406,0.077,0.587,0.835,-15.41,2.66,-10.41,1,4
16724.421,0.079,0.589,0.834,-13.49,-0.15,-10.07,1,4
16724.437,0.084,0.594,0.838,-10.35,-2.56,-8.45,1,4
16724.437,0.098,0.586,0.824,-7.57,-5.13,-6.04,1,4
16724.453,0.113,0.579,0.806,-6.04,-6.59,-4.76,1,4
16724.468,0.123,0.564,0.792,-5.37,-6.62,-4.55,1,4
16724.468,0.129,0.556,0.784,-5.04,-6.16,-5.34,1,4
16724.484,0.131,0.563,0.786,-4.85,-5.16,-6.5,1,4
16724.484,0.119,0.574,0.789,-4.21,-3.94,-7.39,1,4
16724.5,0.105,0.581,0.798,-4.21,-3.42,-8.15,1,4
16724.515,0.098,0.584,0.801,-4.09,-3.51,-8.27,1,4
16724.515,0.089,0.582,0.8,-3.23,-3.23,-7.57,1,4
16724.531,0.083,0.581,0.804,-3.08,-2.9,-6.5,1,4
16724.546,0.075,0.582,0.812,-3.2,-2.81,-5.1,1,4
16724.546,0.072,0.581,0.818,-2.81,-3.48,-3.85,1,4
16724.562,0.065,0.583,0.823,-2.66,-5.37,-2.75,1,4
16724.578,0.068,0.589,0.825,-2.96,-8.58,-1.74,1,4
16724.578,0.074,0.591,0.821,-3.27,-12.27,-0.67,1,4
16724.593,0.08,0.591,0.814,-3.54,-15.56,0.15,1,4
16724.609,0.09,0.587,0.802,-3.91,-18.01,1.01,1,4
16724.609,0.099,0.583,0.803,-5.01,-19.35,1.98,1,4
16724.625,0.105,0.548,0.8,-7.08,-20.39,1.74,1,4
16724.625,0.119,0.542,0.802,-7.6,-20.81,0.15,1,4
16724.64,0.139,0.559,0.803,-5.8,-18.43,1.68,1,4
16724.656,0.13,0.554,0.81,-3.75,-16.05,1.68,1,4
16724.671,0.126,0.563,0.826,-1.86,-14.59,2.32,1,4
16724.671,0.126,0.57,0.823,0.43,-14.34,3.17,1,4
16724.687,0.129,0.572,0.812,2.44,-14.5,4.43,1,4
16724.687,0.137,0.569,0.795,3.69,-13.98,5.4,1,4
16724.703,0.141,0.574,0.782,4.0,-12.54,5.58,1,4
16724.703,0.141,0.574,0.777,3.85,-10.83,5.65,1,4
16724.718,0.134,0.579,0.798,4.12,-9.31,5.98,1,4
16724.734,0.119,0.587,0.825,5.31,-9.7,6.71,1,4
16724.734,0.1,0.584,0.827,6.38,-12.09,7.42,1,4
16724.75,0.098,0.579,0.828,5.98,-16.14,8.27,1,4
16724.765,0.107,0.578,0.825,4.27,-21.39,8.42,1,4
16724.765,0.118,0.574,0.813,1.8,-26.12,7.45,1,4
16724.781,0.138,0.566,0.793,-0.64,-29.88,6.04,1,4
16724.796,0.16,0.564,0.779,-2.84,-31.4,5.22,1,4
16724.796,0.181,0.565,0.769,-3.02,-30.64,5.25,1,4
16724.812,0.201,0.563,0.758,-2.38,-27.62,5.71,1,4
16724.828,0.207,0.56,0.753,-1.71,-23.07,5.77,1,4
16724.828,0.209,0.561,0.75,-1.86,-18.65,5.28,1,4
16724.843,0.208,0.555,0.771,-3.02,-15.53,3.88,1,4
16724.859,0.203,0.548,0.775,-4.03,-13.86,1.28,1,4
16724.859,0.195,0.546,0.783,-4.52,-12.82,-1.19,1,4
16724.875,0.188,0.546,0.795,-4.67,-12.73,-3.05,1,4
16724.875,0.186,0.555,0.8,-4.94,-13.34,-4.36,1,4
16724.89,0.188,0.56,0.796,-4.21,-13.92,-5.07,1,4
16724.906,0.188,0.557,0.788,-2.66,-13.82,-5.4,1,4
16724.906,0.194,0.563,0.779,-1.5,-12.73,-5.1,1,4
16724.921,0.198,0.569,0.773,-0.55,-9.06,-4.21,1,4
16724.937,0.197,0.568,0.773,-0.34,-7.39,-3.6,1,4
16724.937,0.198,0.573,0.772,-0.58,-6.2,-3.23,1,4
16724.953,0.202,0.576,0.772,-0.98,-5.43,-3.2,1,4
16724.953,0.208,0.573,0.768,-1.25,-3.85,-3.23,1,4
16724.968,0.205,0.571,0.769,-0.98,-1.34,-2.81,1,4
16724.984,0.197,0.573,0.77,-0.82,1.07,-2.2,1,4
16724.984,0.183,0.57,0.783,-1.68,2.41,-2.17,1,4
16725.0,0.172,0.563,0.8,-2.96,2.01,-2.29,1,4
16725.015,0.168,0.563,0.814,-3.85,0.58,-2.32,1,4
16725.015,0.165,0.564,0.822,-3.88,-1.37,-2.35,1,4
16725.031,0.168,0.56,0.814,-3.02,-3.48,-2.2,1,4
16725.046,0.182,0.556,0.802,-1.65,-4.27,-1.53,1,4
16725.046,0.188,0.561,0.786,-0.15,-3.45,-0.82,1,4
16725.062,0.19,0.563,0.782,0.64,-1.95,-0.21,1,4
16725.062,0.193,0.566,0.782,0.79,-0.7,0.15,1,4
16725.078,0.191,0.568,0.787,0.37,-0.15,0.06,1,4
16725.093,0.192,0.567,0.79,0.06,0.0,-0.18,1,4
16725.093,0.196,0.562,0.785,0.24,0.24,-0.43,1,4
16725.109,0.2,0.561,0.782,0.37,0.82,-0.85,1,4
16725.125,0.191,0.56,0.782,0.61,1.86,-1.16,1,4
16725.125,0.183,0.564,0.789,0.18,2.29,-1.28,1,4
16725.14,0.185,0.569,0.795,-0.76,2.01,-1.31,1,4
16725.156,0.185,0.568,0.791,-0.85,1.83,-1.22,1,4
16725.156,0.184,0.564,0.791,-0.79,1.98,-0.89,1,4
16725.171,0.183,0.561,0.791,-0.55,2.53,-0.7,1,4
16725.187,0.178,0.56,0.796,-0.64,2.59,-0.7,1,4
16725.187,0.169,0.559,0.809,-0.7,2.01,-0.82,1,4
16725.203,0.166,0.565,0.815,-0.85,0.21,-0.73,1,4
16725.203,0.178,0.566,0.807,-0.03,-1.46,-0.64,1,4
16725.218,0.183,0.561,0.789,1.28,-1.59,-0.49,1,4
16725.234,0.186,0.56,0.777,1.68,-0.64,-0.37,1,4
16725.234,0.188,0.564,0.774,1.13,0.46,-0.34,1,4
16725.25,0.189,0.567,0.776,0.27,1.4,-0.7,1,4
16725.265,0.192,0.567,0.776,-0.34,2.04,-0.98,1,4
16725.281,0.193,0.565,0.774,-0.7,2.99,-1.1,1,4
16725.281,0.193,0.558,0.774,-1.28,4.27,-1.59,1,4
16725.281,0.18,0.557,0.791,-1.98,5.16,-2.2,1,4
16725.296,0.172,0.567,0.807,-3.33,4.15,-2.66,1,4
16725.312,0.172,0.574,0.812,-3.91,2.47,-2.99,1,4
16725.328,0.169,0.572,0.816,-3.08,1.07,-2.93,1,4
16725.328,0.157,0.576,0.816,-1.77,-0.31,-2.11,1,4
16725.343,0.156,0.577,0.812,-1.89,-2.11,-0.82,1,4
16725.343,0.158,0.57,0.799,-2.41,-3.69,0.09,1,4
16725.359,0.169,0.564,0.789,-3.11,-4.36,1.16,1,4
16725.375,0.178,0.566,0.788,-3.54,-3.88,1.92,1,4
16725.375,0.182,0.562,0.785,-3.72,-2.93,2.29,1,4
16725.39,0.186,0.552,0.79,-4.03,-2.01,2.2,1,4
16725.406,0.188,0.548,0.791,-3.81,-1.22,1.59,1,4
16725.406,0.186,0.546,0.799,-3.48,-0.64,0.82,1,4
16725.421,0.186,0.546,0.803,-3.02,-0.37,0.06,1,4
16725.437,0.186,0.548,0.802,-2.23,-0.46,-0.7,1,4
16725.437,0.18,0.549,0.803,-1.28,-0.27,-1.43,1,4
16725.453,0.174,0.554,0.806,-1.07,-0.52,-1.89,1,4
16725.453,0.173,0.564,0.809,-1.22,-1.5,-2.08,1,4
16725.468,0.174,0.566,0.803,-1.04,-2.38,-1.95,1,4
16725.484,0.175,0.565,0.796,-1.13,-2.81,-1.62,1,4
16725.484,0.179,0.566,0.789,-1.46,-2.69,-0.82,1,4
16725.5,0.185,0.564,0.784,-1.8,-1.98,-0.06,1,4
16725.515,0.188,0.558,0.785,-2.35,-0.73,0.27,1,4
16725.515,0.183,0.554,0.792,-2.9,0.24,0.06,1,4
16725.531,0.181,0.553,0.802,-3.42,0.37,-0.31,1,4
16725.546,0.182,0.547,0.806,-3.11,0.31,-0.64,1,4
16725.546,0.177,0.545,0.807,-1.86,0.52,-0.89,1,4
16725.562,0.173,0.546,0.809,-1.01,0.46,-1.01,1,4
16725.578,0.172,0.548,0.809,-0.46,0.03,-1.04,1,4
16725.578,0.175,0.549,0.805,0.0,-0.18,-1.07,1,4
16725.593,0.178,0.551,0.803,0.67,-0.03,-1.1,1,4
16725.593,0.177,0.554,0.803,1.19,0.09,-1.01,1,4
16725.609,0.175,0.559,0.802,1.16,-0.03,-0.98,1,4
16725.625,0.173,0.559,0.799,1.34,-0.06,-0.92,1,4
16725.625,0.174,0.562,0.797,1.04,-0.27,-0.64,1,4
16725.64,0.177,0.563,0.799,0.37,-0.43,-0.64,1,4
16725.656,0.176,0.556,0.793,0.18,-0.31,-0.64,1,4
16725.656,0.178,0.555,0.794,-0.09,-0.06,-0.37,1,4
16725.671,0.181,0.557,0.798,-0.64,0.21,-0.46,1,4
16725.687,0.184,0.549,0.796,-0.89,0.52,-0.95,1,4
16725.687,0.182,0.548,0.797,-0.85,1.13,-1.4,1,4
16725.703,0.18,0.544,0.798,-0.34,1.77,-1.77,1,4
16725.718,0.18,0.548,0.8,-0.03,1.98,-1.98,1,4
16725.718,0.179,0.555,0.8,0.12,2.2,-2.26,1,4
16725.734,0.174,0.558,0.8,0.55,2.44,-2.59,1,4
16725.734,0.169,0.565,0.804,0.76,2.53,-2.56,1,4
16725.75,0.164,0.567,0.799,0.49,2.11,-2.41,1,4
16725.765,0.165,0.566,0.794,-0.15,1.74,-2.01,1,4
16725.765,0.169,0.565,0.794,-1.28,1.77,-1.56,1,4
16725.781,0.169,0.562,0.795,-2.01,2.14,-1.19,1,4
16725.796,0.169,0.556,0.797,-2.59,2.47,-0.92,1,4
16725.796,0.169,0.553,0.799,-3.36,2.59,-0.98,1,4
16725.812,0.172,0.548,0.802,-3.63,2.53,-1.16,1,4
16725.828,0.175,0.543,0.807,-3.42,2.93,-1.68,1,4
16725.828,0.17,0.547,0.808,-2.87,3.2,-2.04,1,4
16725.843,0.169,0.542,0.805,-2.14,3.27,-2.41,1,4
16725.843,0.171,0.544,0.8,-1.8,3.51,-2.81,1,4
16725.859,0.165,0.549,0.8,-1.07,4.12,-3.23,1,4
16725.875,0.164,0.553,0.803,-0.73,4.52,-3.23,1,4
16725.875,0.161,0.554,0.803,-0.89,4.79,-3.27,1,4
16725.89,0.151,0.559,0.81,-1.19,4.43,-3.39,1,4
16725.906,0.153,0.559,0.815,-1.5,3.2,-2.75,1,4
16725.906,0.148,0.557,0.813,-1.92,2.17,-2.41,1,4
16725.921,0.141,0.558,0.822,-2.23,0.4,-1.65,1,4
16725.937,0.14,0.561,0.821,-2.72,-1.4,-0.82,1,4
16725.937,0.149,0.565,0.809,-3.23,-2.93,0.27,1,4
16725.953,0.153,0.562,0.796,-4.15,-3.45,0.92,1,4
16725.968,0.167,0.535,0.8,-4.61,-3.6,0.73,1,4
16725.968,0.161,0.553,0.818,-6.29,-2.93,0.46,1,4
16725.984,0.184,0.549,0.774,-5.49,-2.53,0.09,1,4
16725.984,0.196,0.542,0.765,-6.35,0.61,-0.82,1,4
16726.0,0.208,0.55,0.751,-9.43,4.49,-2.75,1,4
16726.015,0.233,0.528,0.713,-14.47,9.25,-6.44,1,4
16726.031,0.235,0.506,0.708,-18.62,16.97,-11.08,1,4
16726.031,0.237,0.505,0.73,-21.09,25.79,-14.8,1,4
16726.046,0.211,0.514,0.774,-22.43,33.54,-19.1,1,4
16726.046,0.072,0.598,0.909,-19.75,38.09,-20.42,1,4
16726.062,0.102,0.538,0.936,-12.82,32.47,-13.46,1,4
16726.078,-0.048,0.615,1.007,-9.61,20.87,-13.95,1,4
16726.078,-0.02,0.557,0.984,-3.66,5.71,-4.06,1,4
16726.093,0.112,0.491,0.818,-4.18,-8.15,-0.67,1,4
16726.093,0.118,0.504,0.772,-4.97,-6.26,-1.04,1,4
16726.109,0.115,0.483,0.804,-2.56,-1.13,2.08,1,4
16726.125,0.115,0.491,0.834,-2.99,-0.06,3.08,1,4
16726.125,0.116,0.506,0.844,-4.24,-1.43,2.17,1,4
16726.14,0.123,0.507,0.85,-4.15,-3.66,0.43,1,4
16726.156,0.121,0.519,0.854,-2.44,-5.34,-0.73,1,4
16726.156,0.108,0.544,0.868,-0.12,-7.05,-0.79,1,4
16726.171,0.09,0.563,0.878,2.08,-10.1,0.52,1,4
16726.187,0.094,0.561,0.867,3.63,-14.47,2.96,1,4
16726.203,0.089,0.556,0.875,4.24,-17.46,5.04,1,4
16726.203,0.082,0.573,0.871,7.66,-20.02,9.86,1,4
16726.203,0.191,0.493,0.757,8.0,-21.82,12.54,1,4
16726.218,0.141,0.525,0.776,4.49,-17.49,8.09,1,4
16726.234,0.151,0.517,0.825,4.97,-14.65,9.43,1,4
16726.25,0.162,0.531,0.836,3.69,-15.47,8.91,1,4
16726.25,0.164,0.522,0.82,3.81,-16.02,6.59,1,4
16726.265,0.192,0.531,0.824,5.92,-14.62,7.02,1,4
16726.265,0.183,0.524,0.804,8.61,-12.51,6.41,1,4
16726.281,0.176,0.527,0.8,8.97,-10.9,6.01,1,4
16726.296,0.173,0.533,0.805,8.3,-9.89,5.52,1,4
16726.296,0.173,0.54,0.805,7.39,-9.49,4.3,1,4
16726.312,0.171,0.54,0.802,6.29,-9.03,3.11,1,4
16726.312,0.175,0.541,0.794,4.91,-8.48,2.2,1,4
16726.328,0.18,0.542,0.785,3.88,-6.9,1.68,1,4
16726.343,0.184,0.546,0.779,3.17,-4.33,1.68,1,4
16726.343,0.182,0.543,0.782,1.71,-1.65,1.62,1,4
16726.359,0.18,0.543,0.791,-0.18,0.43,1.37,1,4
16726.375,0.173,0.537,0.806,-1.28,1.68,0.82,1,4
16726.39,0.164,0.534,0.822,-2.08,1.71,0.34,1,4
16726.39,0.163,0.534,0.828,-2.11,0.49,0.03,1,4
16726.406,0.161,0.536,0.836,-1.65,-0.61,0.03,1,4
16726.406,0.15,0.536,0.838,-1.04,-1.98,-0.31,1,4
16726.421,0.151,0.534,0.834,-0.58,-3.88,-0.15,1,4
16726.437,0.16,0.533,0.819,0.18,-5.16,0.24,1,4
16726.437,0.165,0.531,0.805,0.89,-4.94,0.76,1,4
16726.453,0.174,0.538,0.801,0.89,-3.85,1.16,1,4
16726.468,0.181,0.541,0.797,0.12,-2.69,1.16,1,4
16726.468,0.182,0.54,0.801,-0.7,-1.34,0.79,1,4
16726.484,0.179,0.537,0.804,-1.01,-0.46,0.34,1,4
16726.484,0.179,0.537,0.805,-1.77,0.34,-0.46,1,4
16726.5,0.172,0.53,0.805,-1.62,1.19,-1.4,1,4
16726.515,0.164,0.531,0.814,-1.5,1.71,-1.89,1,4
16726.515,0.159,0.542,0.826,-1.68,1.16,-1.98,1,4
16726.531,0.16,0.544,0.83,-1.62,0.06,-1.74,1,4
16726.546,0.167,0.547,0.824,-0.79,-0.67,-0.98,1,4
16726.546,0.171,0.542,0.812,-0.27,-0.64,-0.4,1,4
16726.562,0.174,0.532,0.804,-0.49,-0.4,-0.27,1,4
16726.578,0.179,0.527,0.799,-1.22,0.34,-0.55,1,4
16726.578,0.18,0.526,0.803,-2.17,1.68,-1.16,1,4
16726.593,0.174,0.527,0.814,-2.56,2.72,-1.92,1,4
16726.593,0.164,0.525,0.818,-2.32,3.3,-2.29,1,4
16726.609,0.161,0.533,0.828,-2.72,3.14,-2.47,1,4
16726.625,0.161,0.535,0.83,-2.2,2.44,-2.69,1,4
16726.625,0.159,0.529,0.824,-0.82,2.35,-2.32,1,4
16726.64,0.157,0.532,0.824,-0.18,2.38,-2.2,1,4
16726.656,0.167,0.534,0.83,0.34,2.41,-2.32,1,4
16726.656,0.185,0.531,0.806,1.13,3.08,-3.23,1,4
16726.671,0.206,0.527,0.767,-0.31,5.92,-5.34,1,4
16726.687,0.22,0.533,0.705,-3.3,12.15,-8.27,1,4
16726.687,0.19,0.561,0.76,-7.51,22.43,-9.34,1,4
16726.703,0.147,0.54,0.892,-7.97,26.89,-8.45,1,4
16726.703,0.175,0.477,0.823,-4.64,22.58,-9.31,1,4
16726.718,0.035,0.576,0.905,-3.69,19.75,-12.73,1,4
16726.734,0.044,0.545,0.952,5.22,12.67,-3.78,1,4
16726.75,0.091,0.514,0.838,4.73,0.89,-1.04,1,4
16726.75,0.103,0.536,0.808,0.89,-2.47,-0.92,1,4
16726.765,0.112,0.522,0.822,1.74,-2.01,1.89,1,4
16726.765,0.105,0.524,0.835,1.74,-2.93,3.6,1,4
16726.781,0.092,0.533,0.863,-0.24,-5.98,4.36,1,4
16726.796,0.105,0.563,0.88,-0.85,-11.2,4.91,1,4
16726.796,0.127,0.558,0.852,1.71,-14.71,5.86,1,4
16726.812,0.145,0.545,0.834,3.94,-15.14,7.26,1,4
16726.828,0.133,0.545,0.844,6.29,-14.59,8.51,1,4
16726.828,0.13,0.534,0.826,9.37,-15.9,10.99,1,4
16726.843,0.221,0.487,0.732,8.45,-16.75,10.47,1,4
16726.843,0.187,0.535,0.765,6.26,-10.68,6.47,1,4
16726.859,0.175,0.531,0.799,8.61,-6.93,6.87,1,4
16726.875,0.177,0.576,0.793,9.22,-5.83,7.2,1,4
16726.875,0.179,0.541,0.79,1.4,-6.23,2.47,1,4
16726.89,0.174,0.529,0.803,0.67,-5.89,1.83,1,4
16726.906,0.185,0.544,0.798,1.22,-4.36,1.56,1,4
16726.906,0.177,0.54,0.801,1.53,-3.36,1.92,1,4
16726.921,0.168,0.549,0.812,0.34,-4.03,1.95,1,4
16726.937,0.17,0.54,0.812,-0.92,-4.49,1.22,1,4
16726.937,0.17,0.538,0.812,-1.13,-4.43,0.89,1,4
16726.953,0.169,0.537,0.806,-0.76,-3.69,0.79,1,4
16726.953,0.178,0.533,0.803,-1.01,-3.05,0.43,1,4
16726.968,0.173,0.531,0.804,-1.28,-1.53,-0.31,1,4
16726.984,0.165,0.535,0.809,-1.5,-0.46,-0.64,1,4
16726.984,0.164,0.537,0.818,-1.5,-0.03,-0.7,1,4
16727.0,0.16,0.543,0.822,-1.1,-0.49,-0.79,1,4
16727.015,0.16,0.545,0.823,-1.13,-1.4,-0.92,1,4
16727.015,0.161,0.543,0.819,-0.98,-1.92,-0.95,1,4
16727.031,0.156,0.545,0.817,-0.49,-2.26,-0.52,1,4
16727.046,0.16,0.55,0.819,-0.46,-2.87,0.09,1,4
16727.046,0.163,0.548,0.816,-1.04,-3.66,0.4,1,4
16727.062,0.17,0.54,0.809,-1.46,-3.85,0.49,1,4
16727.078,0.176,0.537,0.808,-1.53,-3.05,0.52,1,4
16727.078,0.168,0.534,0.809,-1.1,-1.65,0.67,1,4
16727.093,0.168,0.534,0.811,-1.1,-0.98,0.73,1,4
16727.093,0.173,0.535,0.814,-1.34,-0.82,0.43,1,4
16727.109,0.176,0.534,0.812,-1.4,-0.58,0.15,1,4
16727.125,0.178,0.531,0.808,-1.01,0.09,-0.21,1,4
16727.125,0.174,0.528,0.807,-0.7,1.1,-0.58,1,4
16727.14,0.176,0.532,0.806,-1.62,1.59,-1.19,1,4
16727.156,0.175,0.537,0.806,-2.44,2.11,-2.04,1,4
16727.156,0.171,0.54,0.81,-2.26,2.62,-2.35,1,4
16727.171,0.168,0.54,0.809,-2.41,2.69,-2.47,1,4
16727.171,0.165,0.537,0.813,-3.27,2.62,-3.05,1,4
16727.187,0.167,0.533,0.809,-3.51,2.84,-3.33,1,4
16727.203,0.165,0.536,0.81,-3.54,3.48,-3.11,1,4
16727.218,0.168,0.533,0.813,-3.27,4.43,-2.93,1,4
16727.218,0.16,0.533,0.82,-2.72,5.22,-2.72,1,4
16727.234,0.155,0.535,0.832,-2.04,4.91,-2.44,1,4
16727.25,0.15,0.532,0.839,-1.4,3.81,-2.41,1,4
16727.25,0.143,0.535,0.845,-0.46,2.04,-2.47,1,4
16727.265,0.137,0.535,0.841,0.43,-0.21,-2.11,1,4
16727.265,0.141,0.538,0.828,0.89,-2.2,-1.28,1,4
16727.281,0.149,0.543,0.82,0.49,-3.05,-0.43,1,4
16727.296,0.155,0.54,0.809,0.09,-2.81,0.12,1,4
16727.296,0.161,0.537,0.802,-0.27,-2.01,0.73,1,4
16727.312,0.164,0.533,0.806,-0.95,-1.01,0.61,1,4
16727.328,0.163,0.53,0.814,-1.71,-0.31,0.24,1,4
16727.328,0.165,0.529,0.823,-1.92,-0.34,0.0,1,4
16727.343,0.164,0.531,0.824,-1.53,-0.55,-0.24,1,4
16727.343,0.163,0.53,0.825,-0.76,-0.85,-0.55,1,4
16727.359,0.16,0.529,0.824,0.0,-1.13,-0.79,1,4
16727.375,0.159,0.534,0.824,0.06,-1.59,-0.92,1,4
16727.375,0.159,0.537,0.821,0.21,-2.04,-1.1,1,4
16727.39,0.156,0.536,0.815,0.43,-2.11,-1.1,1,4
16727.406,0.158,0.538,0.811,0.21,-2.14,-0.98,1,4
16727.406,0.158,0.539,0.807,-0.64,-1.89,-0.92,1,4
16727.421,0.157,0.54,0.811,-1.53,-1.56,-0.76,1,4
16727.437,0.161,0.539,0.815,-2.01,-1.28,-0.55,1,4
16727.437,0.162,0.537,0.819,-2.14,-0.82,-0.55,1,4
16727.453,0.161,0.532,0.822,-2.11,-0.61,-0.49,1,4
16727.468,0.159,0.528,0.824,-1.86,-0.67,-0.4,1,4
16727.468,0.16,0.524,0.824,-1.34,-0.67,-0.58,1,4
16727.484,0.162,0.523,0.822,-0.49,-0.34,-0.79,1,4
16727.484,0.164,0.525,0.816,0.15,0.31,-1.1,1,4
16727.5,0.161,0.525,0.812,0.34,1.37,-1.77,1,4
16727.515,0.158,0.526,0.815,0.34,2.17,-2.08,1,4
16727.515,0.153,0.531,0.819,0.31,2.5,-2.29,1,4
16727.531,0.153,0.539,0.825,-0.15,2.38,-2.23,1,4
16727.546,0.157,0.539,0.829,-0.18,2.11,-2.23,1,4
16727.546,0.156,0.534,0.828,0.27,1.68,-2.11,1,4
16727.562,0.15,0.534,0.823,0.43,1.34,-2.04,1,4
16727.562,0.155,0.532,0.821,0.52,0.85,-1.92,1,4
16727.578,0.154,0.532,0.813,0.49,1.07,-1.8,1,4
16727.593,0.162,0.532,0.809,0.4,1.68,-1.95,1,4
16727.593,0.16,0.527,0.806,0.43,2.96,-2.2,1,4
16727.609,0.16,0.527,0.804,-0.18,3.97,-2.87,1,4
16727.625,0.156,0.532,0.813,-1.31,4.61,-3.81,1,4
16727.625,0.15,0.534,0.825,-1.98,4.61,-4.7,1,4
16727.64,0.139,0.543,0.834,-1.8,3.97,-5.04,1,4
16727.656,0.134,0.548,0.838,-1.83,2.59,-4.55,1,4
16727.656,0.124,0.549,0.833,-2.08,0.98,-4.09,1,4
16727.671,0.127,0.549,0.825,-2.9,-0.98,-3.45,1,4
16727.687,0.129,0.553,0.816,-4.82,-2.53,-2.87,1,4
16727.687,0.13,0.558,0.798,-7.32,-3.2,-2.08,1,4
16727.703,0.147,0.558,0.79,-11.47,-2.93,-1.37,1,4
16727.703,0.156,0.548,0.794,-14.95,-1.19,-0.92,1,4
16727.718,0.15,0.532,0.808,-16.63,0.98,-0.7,1,4
16727.734,0.152,0.525,0.826,-17.73,1.98,-0.61,1,4
16727.734,0.152,0.518,0.843,-17.94,2.04,-0.92,1,4
16727.75,0.151,0.501,0.853,-15.14,1.89,-1.74,1,4
16727.765,0.15,0.499,0.854,-12.94,1.25,-1.59,1,4
16727.765,0.157,0.488,0.843,-10.25,1.31,-1.98,1,4
16727.781,0.164,0.478,0.834,-8.06,1.83,-2.2,1,4
16727.796,0.166,0.47,0.828,-5.83,3.3,-3.17,1,4
16727.796,0.177,0.474,0.835,-3.66,4.79,-4.76,1,4
16727.812,0.151,0.484,0.856,-2.14,6.78,-6.44,1,4
16727.828,0.129,0.495,0.886,0.67,6.93,-7.02,1,4
16727.828,0.117,0.507,0.891,5.4,6.01,-5.95,1,4
16727.843,0.107,0.508,0.876,9.95,4.85,-4.55,1,4
16727.843,0.105,0.504,0.857,12.21,4.09,-3.2,1,4
16727.859,0.111,0.509,0.845,13.21,3.75,-1.77,1,4
16727.875,0.116,0.516,0.825,13.03,4.33,0.52,1,4
16727.89,0.126,0.525,0.822,12.6,5.31,1.19,1,4
16727.89,0.132,0.538,0.825,12.73,5.83,1.34,1,4
16727.906,0.122,0.535,0.832,12.27,5.1,1.59,1,4
16727.906,0.124,0.529,0.831,11.63,3.66,1.46,1,4
16727.921,0.128,0.526,0.826,11.2,2.32,1.07,1,4
16727.937,0.135,0.524,0.822,10.62,1.22,0.46,1,4
16727.937,0.141,0.524,0.816,10.74,0.73,-0.24,1,4
16727.953,0.139,0.533,0.813,10.96,1.16,-0.95,1,4
16727.953,0.135,0.54,0.805,10.47,1.92,-1.37,1,4
16727.968,0.129,0.551,0.808,9.43,2.84,-1.22,1,4
16727.984,0.12,0.56,0.817,8.0,3.42,-0.21,1,4
16727.984,0.118,0.563,0.817,7.05,3.27,0.98,1,4
16728.0,0.122,0.553,0.818,5.52,3.02,2.04,1,4
16728.015,0.117,0.543,0.814,4.15,2.32,2.56,1,4
16728.015,0.117,0.543,0.819,2.69,1.25,2.66,1,4
16728.031,0.127,0.543,0.819,1.5,0.18,2.23,1,4
16728.046,0.128,0.536,0.814,1.28,-0.4,1.53,1,4
16728.046,0.125,0.535,0.815,0.95,-0.79,0.92,1,4
16728.062,0.119,0.541,0.826,0.82,-1.37,0.58,1,4
16728.078,0.114,0.546,0.83,1.16,-2.32,0.58,1,4
16728.078,0.113,0.545,0.825,1.71,-3.11,1.22,1,4
16728.093,0.113,0.543,0.826,1.74,-3.91,1.53,1,4
16728.093,0.112,0.542,0.826,1.68,-4.85,1.74,1,4
16728.109,0.117,0.546,0.821,1.5,-6.13,2.14,1,4
16728.125,0.121,0.553,0.814,1.22,-7.11,2.41,1,4
16728.125,0.129,0.555,0.809,0.24,-7.9,2.41,1,4
16728.14,0.129,0.555,0.807,-1.16,-8.12,2.35,1,4
16728.156,0.131,0.553,0.805,-3.08,-8.55,2.01,1,4
16728.171,0.133,0.551,0.807,-5.07,-9.03,1.92,1,4
16728.171,0.14,0.544,0.809,-6.5,-9.03,2.04,1,4
16728.187,0.144,0.537,0.818,-6.81,-8.27,2.29,1,4
16728.187,0.138,0.534,0.828,-6.26,-7.48,2.44,1,4
16728.203,0.136,0.534,0.832,-5.95,-7.48,2.44,1,4
16728.203,0.142,0.529,0.829,-5.37,-7.81,2.11,1,4
16728.218,0.149,0.529,0.819,-5.01,-7.6,1.65,1,4
16728.234,0.156,0.526,0.809,-5.1,-6.71,0.79,1,4
16728.234,0.161,0.524,0.808,-5.22,-5.62,-0.43,1,4
16728.25,0.164,0.52,0.811,-5.55,-4.46,-2.38,1,4
16728.265,0.167,0.516,0.82,-5.31,-3.48,-4.36,1,4
16728.265,0.162,0.52,0.82,-3.81,-2.17,-5.46,1,4
16728.281,0.157,0.524,0.817,-2.5,-0.92,-6.2,1,4
16728.296,0.149,0.528,0.813,-1.98,0.15,-6.74,1,4
16728.296,0.144,0.538,0.81,-2.17,1.16,-6.81,1,4
16728.312,0.14,0.544,0.812,-3.14,2.04,-6.65,1,4
16728.328,0.133,0.545,0.814,-4.0,2.93,-5.98,1,4
16728.328,0.121,0.542,0.82,-5.01,3.91,-5.01,1,4
16728.343,0.119,0.536,0.829,-6.13,4.27,-4.18,1,4
16728.343,0.122,0.53,0.839,-6.9,4.3,-3.69,1,4
16728.359,0.119,0.518,0.84,-5.34,5.16,-4.21,1,4
16728.375,0.114,0.512,0.831,-2.84,6.04,-5.28,1,4
16728.375,0.115,0.515,0.817,-0.15,7.05,-7.05,1,4
16728.39,0.109,0.517,0.807,2.17,8.3,-9.55,1,4
16728.406,0.096,0.528,0.821,4.0,9.28,-12.12,1,4
16728.406,0.092,0.552,0.834,5.43,8.85,-13.0,1,4
16728.421,0.085,0.556,0.83,6.68,8.09,-12.85,1,4
16728.437,0.076,0.564,0.825,7.32,6.9,-11.78,1,4
16728.437,0.089,0.581,0.815,6.59,5.34,-9.25,1,4
16728.453,0.094,0.583,0.799,4.15,4.67,-5.98,1,4
16728.468,0.095,0.573,0.807,1.31,4.94,-2.47,1,4
16728.468,0.102,0.567,0.821,-0.27,4.67,0.95,1,4
16728.484,0.105,0.563,0.824,-2.2,3.94,3.91,1,4
16728.484,0.121,0.541,0.821,-4.15,3.33,6.26,1,4
16728.5,0.134,0.526,0.823,-5.34,3.94,7.81,1,4
16728.515,0.139,0.514,0.827,-5.16,4.82,8.61,1,4
16728.531,0.141,0.504,0.841,-5.71,5.16,8.67,1,4
16728.531,0.143,0.494,0.855,-6.32,4.27,8.09,1,4
16728.546,0.149,0.487,0.863,-6.04,2.38,6.81,1,4
16728.546,0.154,0.486,0.87,-5.86,0.15,5.43,1,4
16728.562,0.161,0.487,0.879,-6.44,-2.56,4.06,1,4
16728.578,0.152,0.461,0.866,-3.72,-4.09,1.65,1,4
16728.578,0.138,0.469,0.842,2.29,-4.24,-1.8,1,4
16728.593,0.126,0.516,0.842,5.55,-4.27,-3.88,1,4
16728.609,0.119,0.546,0.84,6.96,-4.52,-4.18,1,4
16728.609,0.115,0.55,0.83,7.87,-4.58,-3.48,1,4
16728.625,0.111,0.551,0.821,9.4,-3.66,-1.83,1,4
16728.625,0.105,0.547,0.817,9.58,-2.26,-0.12,1,4
16728.64,0.105,0.534,0.813,8.21,-1.1,0.58,1,4
16728.656,0.098,0.535,0.823,6.38,-0.49,0.89,1,4
16728.656,0.094,0.542,0.839,4.97,-1.13,1.31,1,4
16728.671,0.094,0.546,0.841,4.58,-2.44,1.95,1,4
16728.687,0.099,0.549,0.832,3.66,-4.46,1.92,1,4
16728.687,0.109,0.544,0.82,2.08,-6.47,1.22,1,4
16728.703,0.12,0.541,0.812,-0.09,-8.15,-0.09,1,4
16728.718,0.131,0.536,0.813,-1.95,-9.09,-1.56,1,4
16728.718,0.139,0.534,0.814,-2.84,-9.31,-2.35,1,4
16728.734,0.147,0.519,0.803,-3.63,-9.13,-3.42,1,4
16728.734,0.151,0.521,0.814,-3.97,-8.12,-5.1,1,4
16728.75,0.157,0.524,0.811,-2.23,-5.83,-5.43,1,4
16728.765,0.152,0.526,0.802,-1.13,-3.2,-6.62,1,4
16728.765,0.139,0.527,0.806,-1.43,-0.64,-7.35,1,4
16728.781,0.133,0.527,0.815,-1.98,1.22,-8.09,1,4
16728.796,0.114,0.537,0.84,-2.01,2.35,-8.12,1,4
16728.796,0.1,0.555,0.849,-1.34,2.04,-7.05,1,4
16728.812,0.1,0.558,0.844,-1.4,0.21,-5.4,1,4
16728.828,0.108,0.55,0.831,-1.86,-1.5,-4.24,1,4
16728.828,0.122,0.548,0.814,-2.56,-1.83,-3.57,1,4
16728.843,0.13,0.533,0.804,-2.81,-0.49,-3.05,1,4
16728.843,0.128,0.526,0.805,-1.98,3.81,-2.04,1,4
16728.859,0.124,0.531,0.811,-2.08,4.85,-2.44,1,4
16728.875,0.118,0.528,0.817,-2.93,4.64,-3.66,1,4
16728.875,0.11,0.525,0.818,-4.15,4.0,-4.39,1,4
16728.89,0.117,0.542,0.813,-5.1,3.94,-5.22,1,4
16728.906,0.117,0.542,0.807,-6.84,4.15,-5.98,1,4
16728.906,0.114,0.544,0.812,-9.09,5.07,-6.1,1,4
16728.921,0.11,0.54,0.814,-10.04,6.47,-5.37,1,4
16728.937,0.104,0.536,0.833,-10.47,7.84,-4.46,1,4
16728.937,0.087,0.533,0.863,-9.92,7.84,-3.54,1,4
16728.953,0.08,0.529,0.874,-8.3,6.23,-2.08,1,4
16728.968,0.086,0.509,0.862,-6.84,4.03,-1.16,1,4
16728.968,0.09,0.505,0.849,-6.07,2.23,-1.07,1,4
16728.984,0.1,0.508,0.85,-4.94,1.31,-0.73,1,4
16728.984,0.098,0.507,0.849,-3.14,0.92,-0.46,1,4
16729.0,0.096,0.519,0.852,-1.71,0.06,-0.12,1,4
16729.015,0.094,0.529,0.845,-1.22,-0.89,0.46,1,4
16729.015,0.101,0.529,0.84,-0.67,-1.16,1.04,1,4
16729.031,0.096,0.544,0.844,-0.4,-0.85,1.68,1,4
16729.046,0.096,0.553,0.843,-0.64,-0.43,3.11,1,4
16729.046,0.095,0.551,0.846,-1.13,0.95,4.97,1,4
16729.062,0.091,0.544,0.859,-1.98,3.2,6.44,1,4
16729.062,0.092,0.547,0.889,-3.23,5.43,7.35,1,4
16729.078,0.097,0.569,0.923,-3.14,8.09,8.06,1,4
16729.093,0.085,0.589,0.945,-0.76,12.51,8.45,1,4
16729.093,0.033,0.609,0.973,1.25,18.07,8.61,1,4
16729.109,-0.045,0.633,1.015,2.62,22.68,8.27,1,4
16729.125,-0.092,0.726,1.105,0.89,23.1,11.29,1,4
16729.125,-0.057,0.813,1.184,-5.1,19.44,18.28,1,4
16729.14,-0.065,0.863,1.273,-14.13,12.48,20.69,1,4
16729.156,-0.038,0.893,1.361,-18.19,5.83,25.45,1,4
16729.171,0.004,0.912,1.411,-16.75,0.18,30.88,1,4
16729.171,0.042,0.926,1.442,-13.73,-4.24,34.33,1,4
16729.187,0.074,0.923,1.473,-10.22,-7.57,36.62,1,4
16729.187,0.114,0.931,1.507,-8.0,-10.1,37.54,1,4
16729.203,0.156,0.934,1.559,-7.54,-12.94,38.06,1,4
16729.218,0.186,0.917,1.617,-5.98,-17.67,39.03,1,4
16729.218,0.223,0.895,1.646,-2.53,-24.84,41.26,1,4
16729.234,0.255,0.871,1.662,1.04,-34.24,44.22,1,4
16729.234,0.289,0.847,1.669,2.87,-45.93,46.85,1,4
16729.25,0.342,0.848,1.681,0.98,-59.24,49.38,1,4
16729.265,0.393,0.83,1.678,-2.08,-71.99,53.1,1,4
16729.265,0.459,0.79,1.678,-5.62,-83.74,57.83,1,4
16729.281,0.518,0.758,1.686,-7.75,-92.65,63.42,1,4
16729.296,0.548,0.732,1.683,-8.91,-99.64,69.95,1,4
16729.296,0.569,0.696,1.668,-12.97,-107.64,77.36,1,4
16729.312,0.598,0.656,1.649,-19.47,-117.31,84.6,1,4
16729.328,0.616,0.62,1.624,-26.61,-127.48,91.07,1,4
16729.328,0.616,0.579,1.584,-33.39,-137.46,95.8,1,4
16729.343,0.586,0.512,1.531,-37.02,-148.38,98.24,1,4
16729.343,0.545,0.44,1.459,-35.22,-160.01,99.46,1,4
16729.359,0.527,0.397,1.369,-30.18,-171.18,100.53,1,4
16729.375,0.506,0.363,1.257,-25.67,-180.97,99.95,1,4
16729.375,0.477,0.33,1.135,-23.32,-189.06,98.15,1,4
16729.39,0.491,0.315,1.036,-22.28,-195.5,96.35,1,4
16729.406,0.495,0.319,0.946,-19.26,-199.53,93.6,1,4
16729.406,0.507,0.334,0.862,-13.61,-201.76,91.16,1,4
16729.421,0.514,0.377,0.804,-7.42,-200.81,89.27,1,4
16729.437,0.5,0.401,0.734,-1.74,-198.86,87.68,1,4
16729.437,0.516,0.429,0.649,0.67,-197.76,88.47,1,4
16729.453,0.541,0.458,0.571,-0.03,-193.33,89.72,1,4
16729.468,0.515,0.465,0.503,-1.28,-186.99,90.67,1,4
16729.468,0.489,0.485,0.45,-3.81,-181.62,94.97,1,4
16729.484,0.488,0.502,0.418,-9.22,-176.67,100.59,1,4
16729.484,0.484,0.516,0.406,-17.52,-171.97,105.59,1,4
16729.5,0.457,0.507,0.399,-27.19,-167.91,109.78,1,4
16729.515,0.454,0.478,0.391,-38.45,-165.9,112.92,1,4
16729.515,0.475,0.458,0.396,-52.1,-164.53,113.86,1,4
16729.531,0.46,0.42,0.404,-61.56,-162.45,112.19,1,4
16729.546,0.429,0.351,0.427,-63.51,-161.41,109.1,1,4
16729.546,0.411,0.286,0.441,-57.37,-161.81,104.46,1,4
16729.562,0.393,0.239,0.442,-44.62,-163.67,97.93,1,4
16729.578,0.358,0.176,0.422,-27.95,-169.41,90.61,1,4
16729.578,0.346,0.104,0.371,-10.22,-180.64,84.81,1,4
16729.593,0.391,0.057,0.3,5.52,-195.14,82.25,1,4
16729.593,0.467,0.049,0.208,17.24,-206.85,81.64,1,4
16729.609,0.534,0.049,0.095,21.67,-213.26,80.9,1,4
16729.625,0.606,0.047,-0.02,19.1,-213.81,79.9,1,4
16729.625,0.682,0.061,-0.09,11.08,-205.6,78.49,1,4
16729.64,0.728,0.09,-0.124,-1.13,-192.11,75.9,1,4
16729.656,0.771,0.117,-0.124,-15.29,-177.74,72.05,1,4
16729.656,0.805,0.14,-0.091,-28.08,-164.68,67.6,1,4
16729.671,0.815,0.162,-0.044,-36.38,-152.87,62.5,1,4
16729.687,0.795,0.175,0.001,-39.25,-143.01,57.07,1,4
16729.687,0.765,0.169,0.042,-35.95,-137.12,53.32,1,4
16729.703,0.747,0.158,0.071,-25.91,-135.26,51.42,1,4
16729.718,0.732,0.149,0.067,-11.26,-135.17,51.15,1,4
16729.718,0.724,0.133,0.033,3.27,-136.23,52.61,1,4
16729.734,0.735,0.128,-0.021,12.73,-137.21,54.41,1,4
16729.734,0.746,0.117,-0.08,15.2,-137.12,54.75,1,4
16729.75,0.754,0.099,-0.127,13.92,-135.11,54.08,1,4
16729.765,0.754,0.087,-0.162,11.08,-131.84,53.04,1,4
16729.765,0.737,0.072,-0.183,6.99,-128.57,53.19,1,4
16729.781,0.741,0.069,-0.199,1.62,-124.91,54.2,1,4
16729.796,0.712,0.055,-0.218,-4.21,-121.59,54.81,1,4
16729.796,0.678,0.027,-0.229,-10.22,-118.93,56.31,1,4
16729.812,0.654,0.025,-0.228,-17.12,-119.24,59.11,1,4
16729.828,0.639,0.013,-0.254,-21.45,-121.13,61.92,1,4
16729.828,0.622,-0.012,-0.287,-27.13,-125.71,66.87,1,4
16729.843,0.635,-0.034,-0.311,-26.03,-127.02,69.15,1,4
16729.843,0.643,-0.067,-0.358,-22.86,-125.92,71.93,1,4
16729.859,0.627,-0.096,-0.414,-22.98,-125.16,74.86,1,4
16729.875,0.64,-0.128,-0.484,-27.59,-124.61,76.48,1,4
16729.875,0.65,-0.149,-0.546,-35.62,-122.96,77.09,1,4
16729.89,0.706,-0.141,-0.59,-48.07,-119.21,78.28,1,4
16729.906,0.769,-0.134,-0.583,-60.06,-109.47,79.78,1,4
16729.906,0.77,-0.136,-0.592,-66.65,-97.51,79.9,1,4
16729.921,0.765,-0.159,-0.585,-70.62,-83.13,82.13,1,4
16729.937,0.754,-0.177,-0.548,-70.19,-68.88,84.99,1,4
16729.937,0.726,-0.209,-0.494,-64.7,-56.12,87.74,1,4
16729.953,0.676,-0.23,-0.439,-57.5,-47.88,88.81,1,4
16729.968,0.619,-0.251,-0.39,-50.69,-47.55,87.71,1,4
16729.968,0.593,-0.304,-0.37,-44.1,-54.63,84.02,1,4
16729.984,0.54,-0.334,-0.36,-37.29,-66.41,78.43,1,4
16729.984,0.566,-0.311,-0.371,-36.62,-81.27,73.21,1,4
16730.0,0.622,-0.341,-0.469,-32.9,-88.84,69.09,1,4
16730.015,0.653,-0.317,-0.529,-32.11,-87.41,65.74,1,4
16730.015,0.682,-0.314,-0.594,-34.36,-80.87,64.0,1,4
16730.031,0.754,-0.304,-0.612,-38.97,-71.17,64.64,1,4
16730.046,0.751,-0.229,-0.616,-39.34,-56.55,67.11,1,4
16730.046,0.688,-0.205,-0.627,-42.54,-43.28,71.47,1,4
16730.062,0.664,-0.226,-0.601,-54.99,-35.77,76.63,1,4
16730.078,0.64,-0.231,-0.528,-66.38,-31.59,82.67,1,4
16730.078,0.621,-0.258,-0.475,-68.09,-28.72,89.97,1,4
16730.093,0.623,-0.305,-0.469,-66.9,-25.64,98.36,1,4
16730.093,0.622,-0.313,-0.445,-67.11,-23.5,105.53,1,4
16730.109,0.63,-0.334,-0.423,-66.9,-23.83,110.26,1,4
16730.125,0.646,-0.369,-0.418,-67.32,-26.03,110.84,1,4
16730.14,0.647,-0.386,-0.414,-65.86,-28.17,106.97,1,4
16730.14,0.619,-0.389,-0.414,-61.71,-28.72,100.47,1,4
16730.156,0.615,-0.387,-0.418,-56.09,-28.38,94.15,1,4
16730.156,0.593,-0.374,-0.438,-50.08,-28.47,89.27,1,4
16730.171,0.565,-0.357,-0.441,-49.35,-31.62,85.97,1,4
16730.187,0.541,-0.355,-0.422,-52.49,-36.01,84.87,1,4
16730.187,0.511,-0.363,-0.425,-54.11,-40.8,84.26,1,4
16730.203,0.501,-0.362,-0.449,-54.48,-45.99,82.34,1,4
16730.203,0.493,-0.365,-0.471,-53.01,-50.05,79.59,1,4
16730.218,0.489,-0.387,-0.494,-47.52,-51.48,76.2,1,4
16730.234,0.485,-0.403,-0.512,-41.29,-51.7,72.6,1,4
16730.25,0.472,-0.421,-0.535,-37.17,-52.1,68.09,1,4
16730.25,0.46,-0.449,-0.535,-33.6,-51.45,62.26,1,4
16730.265,0.437,-0.475,-0.528,-27.56,-51.58,54.72,1,4
16730.265,0.411,-0.478,-0.554,-19.38,-54.81,46.57,1,4
16730.281,0.403,-0.471,-0.594,-11.6,-57.8,38.73,1,4
16730.296,0.388,-0.464,-0.638,-6.44,-59.33,30.24,1,4
16730.296,0.382,-0.449,-0.671,-2.69,-60.37,22.55,1,4
16730.312,0.37,-0.426,-0.684,0.18,-60.34,17.12,1,4
16730.328,0.34,-0.414,-0.707,0.55,-60.27,13.7,1,4
16730.328,0.307,-0.419,-0.762,0.7,-61.22,13.61,1,4
16730.343,0.297,-0.437,-0.827,0.61,-60.55,16.97,1,4
16730.343,0.28,-0.458,-0.871,-2.81,-57.83,21.18,1,4
16730.359,0.261,-0.476,-0.91,-7.78,-55.09,24.48,1,4
16730.375,0.251,-0.508,-0.947,-12.76,-53.38,26.83,1,4
16730.39,0.267,-0.531,-0.972,-15.81,-51.06,27.8,1,4
16730.39,0.279,-0.543,-0.99,-15.84,-46.45,26.55,1,4
16730.406,0.288,-0.561,-1.008,-16.79,-40.99,22.92,1,4
16730.406,0.29,-0.556,-1.02,-18.86,-35.65,17.21,1,4
16730.421,0.292,-0.54,-1.017,-20.6,-30.09,11.08,1,4
16730.437,0.288,-0.543,-1.002,-21.61,-24.26,4.3,1,4
16730.437,0.285,-0.52,-0.975,-20.6,-18.4,-3.54,1,4
16730.453,0.279,-0.492,-0.98,-16.54,-14.1,-11.81,1,4
16730.468,0.289,-0.466,-0.998,-12.88,-11.32,-19.68,1,4
16730.468,0.313,-0.44,-0.981,-8.97,-6.9,-26.46,1,4
16730.484,0.305,-0.408,-0.952,-4.46,-1.13,-31.98,1,4
16730.484,0.266,-0.388,-0.934,-2.11,2.38,-35.46,1,4
16730.5,0.23,-0.383,-0.926,-0.31,3.14,-36.99,1,4
16730.515,0.21,-0.351,-0.943,1.16,3.54,-35.46,1,4
16730.515,0.184,-0.336,-0.986,-1.71,4.88,-29.94,1,4
16730.531,0.186,-0.336,-1.022,-8.21,8.12,-21.76,1,4
16730.546,0.218,-0.334,-1.027,-15.26,14.22,-13.03,1,4
16730.546,0.236,-0.328,-0.993,-21.88,22.74,-5.68,1,4
16730.562,0.229,-0.309,-0.948,-27.44,30.4,0.06,1,4
16730.578,0.215,-0.295,-0.913,-33.54,33.85,5.43,1,4
16730.578,0.224,-0.284,-0.892,-37.72,33.88,10.19,1,4
16730.593,0.228,-0.28,-0.9,-38.64,33.97,13.86,1,4
16730.593,0.237,-0.296,-0.926,-37.66,35.31,16.72,1,4
16730.609,0.273,-0.278,-0.926,-35.22,39.28,18.65,1,4
16730.625,0.293,-0.264,-0.928,-34.85,44.65,19.35,1,4
16730.625,0.304,-0.272,-0.916,-35.25,49.47,18.62,1,4
16730.64,0.317,-0.256,-0.88,-32.59,53.74,17.82,1,4
16730.656,0.313,-0.245,-0.843,-30.18,56.7,17.52,1,4
16730.656,0.318,-0.235,-0.812,-30.06,58.44,17.94,1,4
