timestamp,ax,ay,az,gx,gy,gz,orient_label,motion_label
16771.078,-0.565,0.026,0.766,-3.14,-0.49,8.73,1,4
16771.078,-0.586,0.01,0.779,0.24,2.47,5.01,1,4
16771.093,-0.602,0.02,0.796,3.14,3.33,1.13,1,4
16771.093,-0.609,0.039,0.797,4.97,2.2,-2.35,1,4
16771.109,-0.616,0.048,0.782,5.19,0.58,-4.24,1,4
16771.125,-0.62,0.057,0.774,3.91,-0.21,-4.67,1,4
16771.14,-0.626,0.07,0.778,2.87,-0.76,-4.58,1,4
16771.14,-0.623,0.075,0.779,2.53,-1.68,-3.88,1,4
16771.156,-0.615,0.071,0.773,2.08,-1.34,-2.9,1,4
16771.156,-0.605,0.063,0.771,3.3,-0.31,-2.9,1,4
16771.171,-0.6,0.064,0.769,3.33,0.73,-3.36,1,4
16771.187,-0.595,0.062,0.783,2.96,1.31,-4.03,1,4
16771.187,-0.6,0.066,0.797,3.39,1.34,-4.85,1,4
16771.203,-0.608,0.071,0.8,4.36,0.67,-5.58,1,4
16771.218,-0.61,0.07,0.796,4.64,-0.34,-5.92,1,4
16771.218,-0.616,0.073,0.791,4.33,-1.01,-5.95,1,4
16771.234,-0.613,0.069,0.783,3.14,-1.62,-5.04,1,4
16771.25,-0.594,0.058,0.774,0.34,-0.67,-3.36,1,4
16771.265,-0.588,0.066,0.776,0.31,0.61,-2.53,1,4
16771.265,-0.587,0.072,0.784,-0.43,1.71,-1.43,1,4
16771.281,-0.596,0.077,0.788,-1.89,2.32,-0.4,1,4
16771.296,-0.606,0.075,0.788,-3.75,2.62,0.82,1,4
16771.296,-0.604,0.073,0.789,-5.68,2.62,2.29,1,4
16771.312,-0.6,0.071,0.792,-7.29,2.84,3.48,1,4
16771.328,-0.594,0.068,0.797,-7.87,2.81,4.36,1,4
16771.328,-0.59,0.063,0.805,-7.32,2.62,4.79,1,4
16771.343,-0.593,0.056,0.808,-5.62,1.98,4.24,1,4
16771.359,-0.595,0.059,0.797,-3.85,1.16,3.36,1,4
16771.359,-0.602,0.065,0.788,-3.3,0.46,2.59,1,4
16771.375,-0.609,0.058,0.785,-3.66,-0.12,2.14,1,4
16771.375,-0.609,0.046,0.773,-4.36,-0.58,1.59,1,4
16771.39,-0.598,0.042,0.768,-4.64,-0.06,0.79,1,4
16771.406,-0.596,0.049,0.777,-3.33,1.34,-0.34,1,4
16771.421,-0.615,0.078,0.786,-0.92,2.17,-0.52,1,4
16771.437,-0.609,0.071,0.797,-1.59,1.13,0.31,1,4
16771.437,-0.609,0.058,0.8,-1.34,-0.15,0.55,1,4
16771.453,-0.615,0.042,0.786,-0.76,-0.98,0.98,1,4
16771.453,-0.605,0.017,0.786,-1.22,-1.53,1.01,1,4
16771.468,-0.59,-0.008,0.795,-0.37,-1.53,0.15,1,4
16771.484,-0.585,-0.023,0.8,1.5,-1.4,-1.1,1,4
16771.484,-0.578,-0.038,0.808,2.23,-1.92,-2.56,1,4
16771.5,-0.573,-0.055,0.813,1.92,-2.93,-4.55,1,4
16771.515,-0.569,-0.078,0.808,0.43,-3.81,-6.16,1,4
16771.515,-0.539,-0.112,0.822,-2.08,-4.82,-8.76,1,4
16771.531,-0.514,-0.125,0.793,-2.87,-5.8,-13.52,1,4
16771.546,-0.491,-0.114,0.801,-7.32,-5.77,-19.14,1,4
16771.546,-0.477,-0.156,0.877,-9.49,-4.03,-26.28,1,4
16771.562,-0.48,-0.183,0.925,-1.83,-3.33,-33.6,1,4
16771.578,-0.451,-0.121,0.928,6.35,-5.62,-39.89,1,4
16771.593,-0.434,-0.101,0.983,10.59,-13.58,-56.12,1,4
16771.609,-0.407,-0.077,0.999,16.21,-17.24,-60.76,1,4
16771.609,-0.378,-0.034,1.008,22.71,-21.09,-65.83,1,4
16771.625,-0.368,-0.005,1.009,28.14,-24.63,-72.05,1,4
16771.625,-0.369,0.03,1.028,32.96,-28.29,-77.03,1,4
16771.64,-0.366,0.068,1.069,39.22,-32.26,-80.02,1,4
16771.656,-0.365,0.116,1.096,47.94,-37.2,-81.88,1,4
16771.656,-0.402,0.173,1.104,55.54,-43.43,-80.94,1,4
16771.671,-0.397,0.231,1.107,58.38,-51.55,-75.32,1,4
16771.687,-0.359,0.275,1.103,58.38,-60.37,-69.19,1,4
16771.703,-0.377,0.306,1.087,59.05,-66.1,-62.93,1,4
16771.703,-0.347,0.323,1.059,61.13,-69.06,-51.67,1,4
16771.718,-0.336,0.355,1.027,61.98,-70.35,-42.94,1,4
16771.718,-0.32,0.34,1.03,61.31,-69.83,-33.39,1,4
16771.734,-0.302,0.351,1.036,63.91,-68.18,-25.18,1,4
16771.734,-0.315,0.356,1.046,69.09,-64.97,-17.64,1,4
16771.75,-0.351,0.359,1.076,77.43,-62.65,-10.77,1,4
16771.765,-0.423,0.378,1.104,89.94,-61.56,-1.4,1,4
16771.781,-0.457,0.427,1.117,99.8,-65.61,10.53,1,4
16771.781,-0.474,0.475,1.101,100.96,-74.5,21.12,1,4
16771.796,-0.464,0.498,1.084,93.08,-87.31,29.82,1,4
16771.796,-0.443,0.499,1.062,80.57,-100.56,37.84,1,4
16771.812,-0.408,0.476,1.021,67.51,-112.13,45.2,1,4
16771.828,-0.355,0.435,0.969,58.63,-119.6,50.45,1,4
16771.828,-0.309,0.401,0.922,57.8,-120.64,53.65,1,4
16771.843,-0.288,0.377,0.88,63.63,-116.21,54.69,1,4
16771.843,-0.276,0.365,0.86,72.6,-108.46,54.38,1,4
16771.859,-0.293,0.363,0.85,82.74,-97.99,53.32,1,4
16771.875,-0.339,0.376,0.869,91.86,-86.98,53.35,1,4
16771.89,-0.388,0.408,0.904,95.98,-80.63,55.54,1,4
16771.89,-0.401,0.437,0.934,92.87,-81.09,59.72,1,4
16771.906,-0.383,0.43,0.94,85.57,-86.28,63.75,1,4
16771.906,-0.342,0.418,0.932,76.82,-91.86,67.35,1,4
16771.921,-0.297,0.4,0.914,72.57,-94.88,69.86,1,4
16771.937,-0.26,0.38,0.881,74.25,-93.66,70.28,1,4
16771.937,-0.233,0.366,0.849,80.02,-89.54,69.22,1,4
16771.953,-0.231,0.357,0.812,88.35,-82.61,67.08,1,4
16771.968,-0.254,0.371,0.793,95.95,-73.95,64.55,1,4
16771.968,-0.269,0.393,0.797,100.86,-65.0,63.33,1,4
16771.984,-0.29,0.441,0.823,101.08,-57.83,63.51,1,4
16771.984,-0.321,0.475,0.852,96.87,-55.54,65.77,1,4
16772.0,-0.329,0.479,0.859,88.05,-59.27,70.56,1,4
16772.015,-0.304,0.468,0.847,76.39,-64.58,77.03,1,4
16772.015,-0.274,0.441,0.819,65.03,-69.8,83.13,1,4
16772.031,-0.241,0.377,0.771,58.63,-72.33,87.98,1,4
16772.046,-0.206,0.322,0.712,57.37,-71.75,91.04,1,4
16772.046,-0.181,0.291,0.662,58.08,-67.9,91.89,1,4
16772.062,-0.159,0.287,0.612,57.99,-61.62,90.58,1,4
16772.078,-0.124,0.291,0.595,55.64,-53.13,88.2,1,4
16772.093,-0.073,0.341,0.62,47.82,-30.12,79.87,1,4
16772.109,-0.088,0.378,0.665,43.58,-19.17,75.59,1,4
16772.109,-0.122,0.399,0.715,39.77,-11.63,73.52,1,4
16772.125,-0.128,0.409,0.764,36.56,-9.09,74.71,1,4
16772.125,-0.14,0.431,0.797,27.77,-15.41,74.71,1,4
16772.14,-0.147,0.441,0.805,18.4,-24.14,72.91,1,4
16772.156,-0.131,0.445,0.794,9.89,-30.55,71.05,1,4
16772.171,-0.104,0.437,0.778,4.61,-32.38,69.89,1,4
16772.171,-0.055,0.403,0.756,2.69,-30.03,68.82,1,4
16772.187,-0.052,0.38,0.771,5.71,-25.88,67.2,1,4
16772.187,-0.052,0.365,0.799,12.88,-21.39,65.03,1,4
16772.203,-0.067,0.351,0.842,24.6,-18.65,61.77,1,4
16772.218,-0.1,0.357,0.866,40.47,-19.01,58.69,1,4
16772.218,-0.117,0.395,0.864,54.48,-23.29,57.47,1,4
16772.234,-0.102,0.443,0.854,58.63,-30.98,55.97,1,4
16772.234,-0.071,0.49,0.822,50.23,-40.96,51.85,1,4
16772.265,0.033,0.529,0.779,18.28,-52.22,41.72,1,4
16772.265,0.084,0.528,0.783,7.26,-48.4,37.2,1,4
16772.281,0.113,0.527,0.787,2.2,-39.12,31.86,1,4
16772.296,0.128,0.541,0.8,1.07,-27.07,26.18,1,4
16772.296,0.126,0.554,0.811,0.7,-15.75,20.42,1,4
16772.312,0.119,0.556,0.819,-0.4,-7.78,14.13,1,4
16772.328,0.114,0.551,0.832,-1.56,-2.84,7.29,1,4
16772.328,0.109,0.543,0.841,-2.44,-0.34,0.52,1,4
16772.343,0.104,0.544,0.85,-2.9,0.85,-5.58,1,4
16772.359,0.104,0.551,0.857,-1.74,1.8,-9.98,1,4
16772.359,0.103,0.56,0.855,-0.46,2.81,-12.27,1,4
16772.375,0.1,0.573,0.847,-0.67,3.81,-12.97,1,4
16772.375,0.1,0.583,0.839,-3.69,4.79,-12.85,1,4
16772.39,0.101,0.585,0.842,-8.58,5.98,-12.6,1,4
16772.406,0.111,0.575,0.847,-12.91,7.42,-12.48,1,4
16772.421,0.121,0.573,0.849,-16.63,9.37,-12.82,1,4
16772.437,0.132,0.566,0.856,-23.38,9.86,-18.28,1,4
16772.437,0.128,0.572,0.855,-24.14,9.83,-21.7,1,4
16772.453,0.122,0.571,0.865,-21.79,9.67,-24.57,1,4
16772.468,0.128,0.571,0.863,-16.88,9.13,-26.4,1,4
16772.468,0.132,0.586,0.855,-12.67,9.06,-27.86,1,4
16772.484,0.135,0.6,0.843,-10.93,9.37,-29.39,1,4
16772.484,0.136,0.601,0.827,-11.02,9.52,-30.18,1,4
16772.5,0.139,0.607,0.815,-12.18,9.61,-29.63,1,4
16772.515,0.147,0.609,0.807,-13.09,9.58,-28.53,1,4
16772.515,0.155,0.611,0.798,-13.58,9.98,-27.47,1,4
16772.531,0.155,0.615,0.798,-13.98,11.26,-26.03,1,4
16772.546,0.148,0.615,0.8,-14.13,12.54,-23.96,1,4
16772.562,0.142,0.609,0.802,-13.43,13.09,-21.27,1,4
16772.562,0.132,0.594,0.796,-11.81,13.09,-18.25,1,4
16772.578,0.135,0.58,0.783,-10.65,11.96,-15.44,1,4
16772.578,0.148,0.572,0.765,-10.22,10.41,-13.98,1,4
16772.609,0.176,0.549,0.724,-11.57,10.9,-15.08,1,4
16772.609,0.179,0.547,0.729,-12.73,12.79,-16.36,1,4
16772.625,0.167,0.556,0.746,-12.45,15.02,-17.3,1,4
16772.64,0.152,0.561,0.757,-11.51,16.79,-17.49,1,4
16772.64,0.14,0.572,0.77,-11.41,17.49,-17.37,1,4
16772.656,0.133,0.577,0.778,-11.78,17.12,-17.49,1,4
16772.656,0.13,0.578,0.78,-12.97,16.14,-18.13,1,4
16772.671,0.135,0.577,0.781,-14.37,15.53,-18.83,1,4
16772.687,0.137,0.579,0.792,-15.38,16.02,-19.53,1,4
16772.687,0.135,0.579,0.802,-14.74,17.24,-19.75,1,4
16772.703,0.125,0.589,0.819,-12.51,18.65,-19.59,1,4
16772.718,0.108,0.599,0.836,-9.34,19.04,-19.32,1,4
16772.718,0.101,0.619,0.842,-6.35,17.27,-19.44,1,4
16772.734,0.08,0.608,0.836,-4.91,15.38,-19.01,1,4
16772.734,0.086,0.609,0.829,-4.64,13.0,-17.61,1,4
16772.75,0.096,0.613,0.824,-3.45,12.45,-16.17,1,4
16772.765,0.093,0.598,0.816,-3.27,12.67,-14.92,1,4
16772.765,0.092,0.589,0.816,-5.07,11.81,-13.61,1,4
16772.781,0.078,0.588,0.824,-6.23,11.23,-12.3,1,4
16772.796,0.068,0.582,0.83,-5.31,10.13,-10.19,1,4
16772.796,0.065,0.579,0.831,-3.33,8.7,-7.78,1,4
16772.812,0.069,0.575,0.823,-1.86,7.14,-5.37,1,4
16772.828,0.073,0.571,0.816,-1.13,5.92,-3.75,1,4
16772.828,0.076,0.567,0.812,-1.01,5.46,-3.27,1,4
16772.843,0.081,0.566,0.807,-1.56,5.58,-3.23,1,4
16772.859,0.086,0.562,0.814,-2.32,6.2,-3.23,1,4
16772.859,0.08,0.563,0.824,-2.47,7.26,-2.53,1,4
16772.875,0.063,0.562,0.846,-3.63,6.87,-1.37,1,4
16772.89,0.053,0.578,0.881,-7.93,3.11,-0.21,1,4
16772.89,0.058,0.58,0.894,-11.32,-2.72,1.8,1,4
16772.906,0.076,0.551,0.886,-11.6,-7.72,4.09,1,4
16772.906,0.099,0.543,0.873,-12.36,-9.92,5.55,1,4
16772.921,0.124,0.517,0.834,-8.7,-8.91,6.07,1,4
16772.937,0.124,0.521,0.823,-5.62,0.03,3.17,1,4
16772.953,0.104,0.51,0.834,-5.92,2.59,0.58,1,4
16772.968,0.093,0.506,0.85,-6.2,3.39,-1.65,1,4
16772.968,0.085,0.505,0.856,-4.36,3.36,-3.39,1,4
16772.984,0.079,0.507,0.854,-0.7,3.63,-4.21,1,4
16772.984,0.076,0.515,0.849,2.17,4.15,-4.94,1,4
16773.0,0.069,0.521,0.845,3.78,4.73,-5.74,1,4
16773.015,0.059,0.529,0.854,3.08,4.18,-6.47,1,4
16773.015,0.059,0.545,0.863,1.07,2.35,-6.56,1,4
16773.031,0.049,0.547,0.865,-1.28,0.4,-5.77,1,4
16773.046,0.064,0.549,0.864,-3.14,-0.85,-3.66,1,4
16773.046,0.07,0.555,0.858,-4.3,-0.34,-2.14,1,4
16773.062,0.069,0.552,0.856,-5.13,1.13,-0.98,1,4
16773.078,0.078,0.542,0.847,-4.82,2.72,0.67,1,4
16773.078,0.073,0.527,0.851,-4.12,4.61,1.68,1,4
16773.093,0.06,0.528,0.855,-5.28,5.04,1.13,1,4
16773.109,0.07,0.495,0.845,-3.14,4.61,-1.19,1,4
16773.125,0.068,0.491,0.834,-2.04,6.47,-1.92,1,4
16773.125,0.062,0.481,0.835,-1.07,8.09,-2.59,1,4
16773.14,0.046,0.495,0.842,-0.61,8.15,-3.27,1,4
16773.156,0.006,0.522,0.865,-1.77,5.92,-3.17,1,4
16773.156,0.003,0.527,0.868,-2.81,2.2,-1.89,1,4
16773.171,0.015,0.527,0.857,-2.96,-1.04,-0.15,1,4
16773.187,0.034,0.524,0.835,-2.72,-2.5,1.28,1,4
16773.187,0.043,0.528,0.82,-2.87,-2.17,1.65,1,4
16773.203,0.047,0.534,0.822,-3.63,-0.82,1.25,1,4
16773.218,0.046,0.537,0.826,-4.55,0.64,1.01,1,4
16773.218,0.042,0.539,0.832,-4.67,1.83,1.22,1,4
16773.234,0.042,0.537,0.841,-4.33,2.78,1.46,1,4
16773.25,0.042,0.534,0.854,-3.81,3.2,1.53,1,4
16773.25,0.044,0.534,0.853,-3.27,3.05,1.71,1,4
16773.265,0.046,0.535,0.854,-2.62,2.69,1.65,1,4
16773.281,0.048,0.536,0.856,-2.56,2.44,1.65,1,4
16773.296,0.044,0.536,0.858,-2.87,2.14,1.98,1,4
16773.296,0.049,0.53,0.853,-2.32,1.65,2.59,1,4
16773.312,0.053,0.524,0.846,-1.56,1.77,2.75,1,4
16773.328,0.052,0.528,0.84,-1.68,2.01,2.14,1,4
16773.328,0.054,0.524,0.837,-1.07,1.68,1.53,1,4
16773.343,0.057,0.521,0.835,-0.03,1.31,1.07,1,4
16773.343,0.064,0.518,0.83,0.76,0.95,0.82,1,4
16773.359,0.067,0.516,0.83,0.92,0.85,0.67,1,4
16773.375,0.065,0.514,0.834,0.37,0.76,0.27,1,4
16773.375,0.06,0.509,0.843,-0.09,0.06,0.06,1,4
16773.39,0.053,0.509,0.848,-0.27,-1.25,0.12,1,4
16773.406,0.047,0.511,0.849,-0.24,-2.93,0.37,1,4
16773.406,0.053,0.507,0.845,-0.43,-4.82,0.76,1,4
16773.421,0.061,0.506,0.837,-0.46,-5.77,1.01,1,4
16773.437,0.066,0.505,0.828,-0.4,-5.58,0.7,1,4
16773.437,0.066,0.5,0.822,-0.09,-4.33,0.09,1,4
16773.453,0.064,0.498,0.824,0.27,-2.96,-0.61,1,4
16773.468,0.06,0.508,0.832,0.21,-2.17,-1.4,1,4
16773.468,0.054,0.513,0.844,0.37,-1.34,-1.89,1,4
16773.484,0.05,0.516,0.851,0.4,-1.19,-2.08,1,4
16773.484,0.046,0.52,0.853,0.67,-1.53,-2.23,1,4
16773.5,0.043,0.52,0.855,0.67,-1.86,-2.29,1,4
16773.515,0.038,0.522,0.863,0.03,-2.53,-2.81,1,4
16773.515,0.032,0.525,0.864,0.06,-3.42,-2.9,1,4
16773.531,0.034,0.523,0.864,0.58,-4.36,-2.2,1,4
16773.546,0.044,0.521,0.859,1.04,-5.01,-1.8,1,4
16773.562,0.046,0.518,0.855,1.5,-4.82,-2.17,1,4
16773.562,0.041,0.513,0.855,2.41,-4.67,-2.84,1,4
16773.578,0.042,0.511,0.848,3.51,-4.97,-3.27,1,4
16773.578,0.048,0.513,0.842,4.43,-5.04,-3.81,1,4
16773.593,0.053,0.51,0.833,5.8,-4.55,-4.18,1,4
16773.593,0.053,0.51,0.829,6.78,-3.42,-5.13,1,4
16773.609,0.05,0.525,0.827,6.99,-2.2,-5.8,1,4
16773.625,0.046,0.535,0.828,6.84,-1.31,-5.71,1,4
16773.64,0.044,0.543,0.826,5.92,-0.73,-4.64,1,4
16773.64,0.045,0.542,0.826,4.06,-0.49,-3.45,1,4
16773.656,0.047,0.534,0.829,1.8,-0.31,-2.17,1,4
16773.656,0.048,0.523,0.836,0.03,-0.24,-1.07,1,4
16773.671,0.048,0.514,0.843,-1.19,-0.7,-0.43,1,4
16773.687,0.055,0.501,0.843,-1.43,-1.31,-0.58,1,4
16773.687,0.062,0.497,0.841,-0.73,-1.8,-1.19,1,4
16773.703,0.063,0.502,0.838,0.85,-1.71,-1.83,1,4
16773.718,0.061,0.508,0.832,2.26,-1.16,-2.17,1,4
16773.718,0.06,0.518,0.831,1.92,-0.55,-2.23,1,4
16773.734,0.055,0.53,0.841,0.37,0.03,-1.95,1,4
16773.734,0.047,0.528,0.843,-0.67,0.31,-1.4,1,4
16773.75,0.047,0.525,0.847,-0.7,0.03,-0.52,1,4
16773.765,0.05,0.526,0.85,-0.24,-0.24,0.06,1,4
16773.765,0.054,0.526,0.846,-0.21,-0.85,0.24,1,4
16773.781,0.057,0.52,0.843,-0.52,-1.56,0.12,1,4
16773.796,0.059,0.512,0.835,-0.09,-1.89,-0.46,1,4
16773.812,0.052,0.51,0.836,0.4,-1.74,-0.55,1,4
16773.828,0.048,0.513,0.837,0.55,-1.89,-0.58,1,4
16773.828,0.05,0.517,0.838,0.06,-2.26,-0.43,1,4
16773.843,0.051,0.52,0.834,-0.76,-2.69,-0.31,1,4
16773.859,0.059,0.522,0.834,-1.46,-2.62,-0.15,1,4
16773.859,0.062,0.524,0.838,-1.59,-2.04,-0.15,1,4
16773.875,0.059,0.525,0.84,-0.89,-1.25,-0.37,1,4
16773.875,0.052,0.528,0.846,0.21,-0.27,-0.64,1,4
16773.89,0.045,0.536,0.852,1.1,-0.49,-0.64,1,4
16773.906,0.044,0.538,0.85,1.28,-1.59,-0.27,1,4
16773.906,0.049,0.536,0.842,1.04,-2.47,0.15,1,4
16773.921,0.056,0.532,0.835,0.46,-2.59,0.4,1,4
16773.937,0.06,0.531,0.833,-0.12,-2.23,0.61,1,4
16773.937,0.061,0.529,0.832,-0.43,-1.59,0.58,1,4
16773.953,0.056,0.526,0.835,-0.49,-0.95,0.21,1,4
16773.968,0.048,0.536,0.837,0.85,-1.31,0.06,1,4
16773.984,0.052,0.536,0.823,3.27,-0.64,1.25,1,4
16774.0,0.054,0.538,0.827,1.43,-0.67,0.52,1,4
16774.0,0.054,0.535,0.833,0.79,-0.46,0.21,1,4
16774.015,0.056,0.53,0.836,1.59,0.52,0.73,1,4
16774.015,0.044,0.538,0.844,1.53,0.98,0.98,1,4
16774.031,0.04,0.54,0.852,0.85,-0.15,1.46,1,4
16774.046,0.047,0.535,0.85,-0.12,-2.26,1.98,1,4
16774.046,0.057,0.526,0.842,-0.49,-3.36,2.44,1,4
16774.062,0.062,0.516,0.831,-0.49,-3.3,2.69,1,4
16774.078,0.067,0.508,0.825,0.09,-2.2,2.47,1,4
16774.078,0.066,0.503,0.824,0.89,-1.16,1.71,1,4
16774.093,0.064,0.502,0.822,1.65,-0.43,0.49,1,4
16774.109,0.057,0.507,0.828,2.99,0.64,-1.04,1,4
16774.109,0.049,0.514,0.834,3.02,-0.15,-0.82,1,4
16774.125,0.047,0.524,0.838,2.01,-0.95,-0.55,1,4
16774.125,0.05,0.527,0.839,0.55,-1.46,-0.15,1,4
16774.14,0.052,0.53,0.842,-0.7,-1.83,0.21,1,4
16774.156,0.055,0.531,0.841,-1.16,-2.04,0.43,1,4
16774.171,0.057,0.524,0.839,-0.95,-2.01,0.7,1,4
16774.171,0.06,0.518,0.835,-0.46,-1.71,0.58,1,4
16774.187,0.06,0.516,0.83,0.43,-1.25,0.12,1,4
16774.187,0.06,0.512,0.829,1.13,-0.73,-0.64,1,4
16774.203,0.06,0.513,0.827,1.83,-0.15,-1.22,1,4
16774.218,0.061,0.515,0.825,2.23,0.4,-1.34,1,4
16774.218,0.055,0.521,0.831,1.83,0.89,-1.74,1,4
16774.234,0.05,0.526,0.841,1.07,1.01,-1.89,1,4
16774.234,0.045,0.529,0.851,0.67,0.64,-1.56,1,4
16774.25,0.047,0.532,0.853,0.55,-0.34,-0.92,1,4
16774.265,0.048,0.536,0.852,0.49,-0.85,-0.58,1,4
16774.265,0.046,0.533,0.85,0.37,-1.53,-0.52,1,4
16774.281,0.051,0.528,0.842,0.18,-2.08,-0.52,1,4
16774.296,0.056,0.527,0.833,0.43,-2.11,-0.55,1,4
16774.296,0.053,0.526,0.826,0.58,-1.89,-0.43,1,4
16774.312,0.054,0.524,0.823,0.21,-1.25,-0.61,1,4
16774.328,0.056,0.527,0.827,-0.37,-0.89,-0.67,1,4
16774.328,0.05,0.529,0.828,-1.1,-0.73,-0.43,1,4
16774.343,0.051,0.526,0.83,-1.86,-0.95,-0.18,1,4
16774.343,0.055,0.524,0.832,-2.2,-1.22,0.03,1,4
16774.359,0.061,0.527,0.835,-1.92,-1.01,0.06,1,4
16774.375,0.063,0.526,0.837,-1.13,-0.52,-0.12,1,4
16774.39,0.061,0.533,0.843,-0.61,-0.09,-0.18,1,4
16774.39,0.058,0.54,0.85,-0.4,-0.27,0.06,1,4
16774.406,0.056,0.537,0.849,-0.31,-0.61,0.4,1,4
16774.406,0.055,0.534,0.843,-0.4,-1.19,0.92,1,4
16774.421,0.058,0.524,0.835,-0.37,-1.46,1.1,1,4
16774.437,0.06,0.516,0.831,-0.4,-1.16,0.79,1,4
16774.437,0.056,0.512,0.83,-0.52,-0.58,0.55,1,4
16774.453,0.052,0.509,0.832,-0.7,-0.18,-0.09,1,4
16774.468,0.049,0.511,0.836,-0.85,-0.34,-0.43,1,4
16774.468,0.05,0.509,0.834,-1.04,-0.89,-0.61,1,4
16774.484,0.049,0.508,0.833,-1.1,-1.25,-1.07,1,4
16774.484,0.051,0.508,0.832,-0.43,-1.53,-1.43,1,4
16774.5,0.052,0.514,0.828,-0.03,-1.43,-1.89,1,4
16774.515,0.05,0.518,0.83,-0.03,-1.07,-2.23,1,4
16774.515,0.048,0.521,0.836,0.06,-1.04,-2.26,1,4
16774.531,0.047,0.519,0.836,0.37,-1.07,-2.2,1,4
16774.546,0.047,0.519,0.845,-1.19,-1.53,-2.56,1,4
16774.546,0.047,0.524,0.848,-4.58,-2.69,-3.3,1,4
16774.562,0.049,0.508,0.855,-4.73,-4.15,-4.24,1,4
16774.578,0.055,0.499,0.856,-5.07,-5.37,-5.28,1,4
16774.578,0.071,0.486,0.831,-2.41,-5.8,-6.87,1,4
16774.593,0.106,0.416,0.797,5.01,-2.04,-9.86,1,4
16774.609,-0.041,0.482,0.855,9.28,1.62,-14.74,1,4
16774.609,0.011,0.651,0.928,-0.06,-6.68,-12.88,1,4
16774.625,0.025,0.586,0.879,3.17,-12.39,-9.86,1,4
16774.625,0.032,0.601,0.881,2.2,-13.06,-5.43,1,4
16774.64,0.056,0.618,0.87,3.08,-12.42,-0.21,1,4
16774.656,0.044,0.584,0.842,5.34,-11.05,2.17,1,4
16774.671,0.047,0.574,0.843,3.63,-11.08,3.2,1,4
16774.671,0.047,0.568,0.843,2.93,-11.9,2.26,1,4
16774.687,0.048,0.554,0.838,2.78,-13.06,1.46,1,4
16774.687,0.018,0.585,0.865,1.46,-14.77,1.8,1,4
16774.703,0.117,0.605,0.826,-0.15,-17.46,5.37,1,4
16774.718,0.12,0.466,0.768,4.67,-11.66,4.88,1,4
16774.718,0.08,0.528,0.798,2.35,-5.34,3.51,1,4
16774.734,0.101,0.532,0.815,0.37,-3.63,4.24,1,4
16774.734,0.072,0.512,0.821,1.65,-1.95,5.34,1,4
16774.75,0.089,0.523,0.826,-1.56,-2.32,7.97,1,4
16774.765,0.084,0.493,0.819,-1.92,-3.02,7.11,1,4
16774.765,0.073,0.495,0.831,-2.01,-3.2,6.07,1,4
16774.781,0.087,0.504,0.837,-2.08,-4.76,5.13,1,4
16774.796,0.094,0.496,0.829,-1.22,-5.43,4.0,1,4
16774.812,0.103,0.495,0.818,-0.12,-4.64,2.96,1,4
16774.812,0.109,0.494,0.81,1.22,-2.81,1.74,1,4
16774.828,0.103,0.496,0.804,3.05,2.04,-0.98,1,4
16774.843,0.094,0.503,0.806,3.51,4.52,-2.04,1,4
16774.859,0.084,0.508,0.819,4.0,6.26,-2.66,1,4
16774.859,0.069,0.519,0.833,4.97,7.26,-2.78,1,4
16774.875,0.048,0.531,0.844,5.77,6.78,-2.69,1,4
16774.875,0.042,0.542,0.85,5.16,4.18,-2.04,1,4
16774.89,0.045,0.549,0.846,3.23,1.04,-1.31,1,4
16774.906,0.049,0.552,0.841,1.5,-1.07,-0.55,1,4
16774.906,0.056,0.548,0.836,-0.03,-2.38,0.37,1,4
16774.921,0.064,0.546,0.829,-1.22,-2.38,1.34,1,4
16774.937,0.069,0.542,0.829,-1.59,-1.59,1.83,1,4
16774.937,0.066,0.542,0.831,-1.19,-0.21,1.8,1,4
16774.953,0.063,0.538,0.83,-0.92,0.61,1.56,1,4
16774.968,0.06,0.533,0.828,-0.73,0.89,1.34,1,4
16774.968,0.057,0.531,0.828,-0.15,1.13,0.89,1,4
16774.984,0.054,0.533,0.826,0.15,1.16,0.7,1,4
16775.0,0.061,0.534,0.83,-0.06,0.64,0.98,1,4
16775.015,0.058,0.531,0.835,0.12,0.61,1.22,1,4
16775.031,0.058,0.53,0.838,0.27,-0.09,1.37,1,4
16775.031,0.054,0.531,0.839,0.43,-1.01,1.16,1,4
16775.046,0.057,0.534,0.832,0.67,-2.04,1.22,1,4
16775.046,0.062,0.536,0.821,0.24,-2.93,1.56,1,4
16775.062,0.067,0.533,0.81,-0.06,-2.87,1.8,1,4
16775.078,0.072,0.525,0.798,0.0,-1.89,1.74,1,4
16775.078,0.072,0.516,0.791,1.01,1.34,0.37,1,4
16775.093,0.072,0.51,0.791,2.9,3.33,-0.67,1,4
16775.109,0.073,0.499,0.792,5.34,5.04,-2.01,1,4
16775.109,0.068,0.487,0.802,8.48,6.07,-3.94,1,4
16775.125,0.031,0.454,0.784,14.34,7.69,-7.32,1,4
16775.125,0.001,0.515,0.857,7.69,3.66,-12.82,1,4
16775.14,0.057,0.553,0.871,-1.19,-3.66,-15.93,1,4
16775.156,0.097,0.512,0.81,1.89,-4.73,-17.21,1,4
16775.171,0.133,0.456,0.79,7.45,3.54,-17.49,1,4
16775.171,-0.026,0.58,0.878,8.51,9.64,-18.98,1,4
16775.187,0.017,0.704,0.925,0.12,4.03,-12.57,1,4
16775.187,0.013,0.647,0.897,0.37,0.15,-5.83,1,4
16775.203,0.018,0.643,0.895,-3.45,-1.74,1.5,1,4
16775.218,0.046,0.622,0.879,-4.67,-3.6,7.35,1,4
16775.218,0.044,0.587,0.858,-3.11,-4.15,9.52,1,4
16775.234,0.036,0.57,0.845,-1.77,-5.1,9.37,1,4
16775.234,0.038,0.555,0.841,-0.06,-7.42,8.27,1,4
16775.25,0.047,0.546,0.835,1.07,-9.61,7.39,1,4
16775.265,0.021,0.592,0.851,-0.76,-12.67,7.05,1,4
16775.265,0.134,0.564,0.814,-3.11,-14.47,9.74,1,4
16775.281,0.085,0.464,0.776,3.02,-9.58,8.3,1,4
16775.296,0.077,0.552,0.821,-0.55,-6.59,8.42,1,4
16775.312,0.091,0.537,0.838,-1.04,-6.9,9.0,1,4
16775.312,0.068,0.528,0.838,-1.8,-7.45,9.67,1,4
16775.328,0.093,0.538,0.845,-4.52,-9.61,11.66,1,4
16775.328,0.099,0.519,0.838,-5.34,-11.66,11.54,1,4
16775.343,0.096,0.513,0.832,-5.8,-12.67,11.02,1,4
16775.359,0.114,0.517,0.831,-6.71,-13.79,9.98,1,4
16775.359,0.127,0.513,0.823,-7.39,-13.86,8.33,1,4
16775.375,0.134,0.503,0.81,-7.11,-12.36,6.53,1,4
16775.39,0.142,0.498,0.803,-6.04,-9.49,4.82,1,4
16775.39,0.141,0.495,0.797,-4.27,-5.65,2.66,1,4
16775.406,0.131,0.491,0.794,-2.14,-1.53,0.4,1,4
16775.406,0.12,0.493,0.793,-0.46,1.95,-1.98,1,4
16775.421,0.104,0.498,0.807,0.58,4.27,-3.91,1,4
16775.437,0.082,0.509,0.825,2.17,4.91,-5.43,1,4
16775.437,0.073,0.528,0.835,3.3,4.27,-5.89,1,4
16775.453,0.071,0.545,0.842,2.96,2.72,-5.71,1,4
16775.468,0.071,0.554,0.848,2.32,1.07,-4.91,1,4
16775.468,0.07,0.561,0.849,1.8,-0.27,-3.51,1,4
16775.484,0.072,0.564,0.841,1.31,-1.1,-1.74,1,4
16775.5,0.078,0.557,0.831,0.34,-1.34,-0.15,1,4
16775.5,0.079,0.546,0.825,-0.46,-1.01,0.89,1,4
16775.515,0.078,0.536,0.82,-1.01,-0.58,1.37,1,4
16775.515,0.082,0.528,0.815,-1.8,-0.4,1.46,1,4
16775.531,0.091,0.522,0.812,-2.47,-0.18,1.28,1,4
16775.546,0.096,0.517,0.814,-2.62,0.73,0.64,1,4
16775.546,0.094,0.516,0.821,-2.08,1.65,0.03,1,4
16775.562,0.088,0.519,0.829,-0.73,2.35,-0.43,1,4
16775.578,0.08,0.522,0.834,0.12,2.84,-0.67,1,4
16775.578,0.076,0.529,0.839,0.06,2.53,-0.82,1,4
16775.593,0.074,0.533,0.842,-0.73,1.8,-0.73,1,4
16775.593,0.07,0.535,0.844,-1.68,1.07,-0.43,1,4
16775.609,0.073,0.53,0.841,-2.14,0.31,0.12,1,4
16775.625,0.078,0.53,0.837,-2.59,-0.27,0.52,1,4
16775.625,0.083,0.528,0.836,-2.69,-0.21,0.34,1,4
16775.64,0.083,0.522,0.832,-2.11,0.34,-0.4,1,4
16775.656,0.078,0.521,0.828,-1.13,1.22,-0.92,1,4
16775.656,0.069,0.523,0.826,-0.4,1.71,-1.34,1,4
16775.671,0.065,0.527,0.825,-0.15,1.53,-1.53,1,4
16775.687,0.063,0.526,0.822,-0.49,1.71,-1.92,1,4
16775.703,0.063,0.523,0.825,-0.89,2.17,-1.86,1,4
16775.718,0.063,0.527,0.836,-0.79,1.71,-1.59,1,4
16775.718,0.074,0.528,0.84,-1.16,0.09,-1.28,1,4
16775.734,0.102,0.535,0.84,-2.29,-2.2,-1.16,1,4
16775.75,0.13,0.544,0.837,-1.59,-4.79,-1.28,1,4
16775.75,0.164,0.551,0.824,0.95,-6.96,-0.82,1,4
16775.765,0.224,0.573,0.806,3.42,-7.69,1.22,1,4
16775.765,0.283,0.592,0.795,5.92,-4.49,4.43,1,4
16775.781,0.306,0.598,0.8,6.78,1.92,7.6,1,4
16775.796,0.312,0.617,0.783,4.49,9.16,10.65,1,4
16775.812,0.305,0.629,0.817,1.46,17.12,15.56,1,4
16775.812,0.285,0.599,0.847,-1.34,22.25,18.92,1,4
16775.828,0.272,0.589,0.86,-6.38,24.05,20.42,1,4
16775.828,0.25,0.561,0.876,-12.3,23.99,20.2,1,4
16775.843,0.222,0.525,0.873,-18.92,22.1,17.27,1,4
16775.859,0.187,0.468,0.851,-26.31,15.87,7.84,1,4
16775.875,0.166,0.447,0.83,-26.31,14.53,1.62,1,4
16775.89,0.146,0.413,0.805,-25.67,14.92,-5.34,1,4
16775.89,0.123,0.39,0.774,-24.6,17.43,-12.6,1,4
16775.906,0.1,0.377,0.75,-20.48,23.07,-18.71,1,4
16775.906,0.141,0.436,0.744,-14.5,31.19,-24.9,1,4
16775.921,-0.038,0.417,0.742,-8.48,41.9,-31.43,1,4
16775.937,-0.067,0.404,0.804,-5.62,49.56,-26.12,1,4
16775.937,-0.088,0.496,0.835,2.96,54.69,-20.11,1,4
16775.953,-0.147,0.526,0.821,10.68,57.41,-15.69,1,4
16775.968,-0.158,0.531,0.824,6.5,56.4,-12.36,1,4
16775.968,-0.179,0.529,0.819,-1.95,55.33,-12.91,1,4
16775.984,-0.325,0.519,0.867,-14.44,52.89,-16.63,1,4
16775.984,-0.395,0.641,1.05,-45.01,33.2,-18.16,1,4
16776.0,-0.41,0.603,1.146,-60.24,6.26,-13.76,1,4
16776.015,-0.336,0.582,1.097,-59.24,-17.12,-3.2,1,4
16776.031,-0.162,0.345,0.884,-14.56,-19.38,11.17,1,4
16776.046,-0.133,0.339,0.85,4.94,-9.67,7.17,1,4
16776.046,-0.139,0.363,0.834,19.44,-1.86,-1.83,1,4
16776.062,-0.182,0.42,0.834,26.92,3.27,-8.18,1,4
16776.078,-0.215,0.485,0.856,27.13,0.52,-5.13,1,4
16776.078,-0.234,0.524,0.87,24.78,-5.07,0.55,1,4
16776.093,-0.257,0.554,0.894,18.28,-14.53,7.05,1,4
16776.093,-0.18,0.613,0.907,5.43,-25.79,14.65,1,4
16776.109,-0.168,0.49,0.861,-2.41,-31.62,14.5,1,4
16776.125,-0.142,0.521,0.887,-15.81,-36.81,11.9,1,4
16776.125,-0.07,0.497,0.898,-18.4,-41.35,13.0,1,4
16776.14,-0.044,0.455,0.854,-13.25,-41.2,13.15,1,4
16776.156,-0.031,0.437,0.83,-8.91,-41.26,11.84,1,4
16776.156,-0.009,0.438,0.826,-7.35,-43.06,9.28,1,4
16776.171,0.018,0.428,0.819,-9.4,-47.15,6.16,1,4
16776.187,0.045,0.419,0.803,-11.87,-51.24,3.08,1,4
16776.203,0.14,0.413,0.795,-11.11,-52.19,1.16,1,4
16776.218,0.177,0.415,0.773,-9.13,-47.91,0.82,1,4
16776.218,0.202,0.421,0.763,-8.94,-40.89,-0.21,1,4
16776.234,0.207,0.413,0.766,-12.88,-34.18,-2.9,1,4
16776.234,0.211,0.399,0.779,-20.23,-29.82,-8.09,1,4
16776.25,0.215,0.381,0.793,-25.61,-26.09,-14.68,1,4
16776.265,0.223,0.363,0.802,-27.56,-22.92,-21.09,1,4
16776.265,0.245,0.353,0.788,-24.84,-18.16,-26.18,1,4
16776.281,0.257,0.349,0.768,-18.71,-10.32,-29.85,1,4
16776.296,0.258,0.357,0.746,-12.7,0.03,-32.59,1,4
16776.296,0.247,0.365,0.738,-5.13,12.3,-33.81,1,4
16776.312,0.205,0.372,0.754,3.11,24.41,-34.67,1,4
16776.328,0.106,0.421,0.822,9.49,32.32,-33.2,1,4
16776.328,0.033,0.552,0.929,6.62,30.12,-27.1,1,4
16776.343,0.094,0.614,0.981,-3.51,18.43,-18.49,1,4
16776.359,0.013,0.501,1.007,-0.61,12.94,-11.78,1,4
16776.359,-0.018,0.692,1.173,-9.95,0.79,-0.27,1,4
16776.375,0.134,0.645,1.122,-7.35,-15.78,11.81,1,4
16776.375,0.136,0.567,0.997,-1.04,-18.1,12.57,1,4
16776.39,0.155,0.562,1.009,-1.16,-13.25,11.84,1,4
16776.406,0.122,0.519,1.006,8.12,-8.15,7.42,1,4
16776.421,0.067,0.5,0.98,17.3,-6.59,3.36,1,4
16776.421,0.044,0.502,0.96,23.07,-9.28,1.4,1,4
16776.437,0.013,0.486,0.931,28.75,-14.07,0.73,1,4
16776.437,0.009,0.488,0.897,32.14,-19.32,1.8,1,4
16776.453,0.01,0.525,0.883,30.95,-23.96,3.57,1,4
16776.468,0.003,0.55,0.893,25.12,-28.23,6.53,1,4
16776.468,0.046,0.599,0.848,12.15,-33.72,9.86,1,4
16776.484,0.139,0.469,0.755,5.49,-32.04,12.15,1,4
16776.484,0.072,0.451,0.838,-6.53,-24.48,9.28,1,4
16776.5,0.094,0.518,0.876,-12.45,-22.25,11.6,1,4
16776.515,0.108,0.434,0.831,-1.92,-17.91,13.46,1,4
16776.515,0.122,0.426,0.826,-0.52,-13.82,11.11,1,4
16776.531,0.106,0.429,0.84,3.27,-10.38,6.68,1,4
16776.546,0.107,0.428,0.84,7.69,-8.67,3.27,1,4
16776.546,0.11,0.44,0.836,9.13,-7.6,0.46,1,4
16776.562,0.087,0.452,0.835,10.22,-6.35,-1.37,1,4
16776.578,0.086,0.459,0.832,9.49,-7.11,-0.79,1,4
16776.578,0.102,0.463,0.828,6.13,-8.76,0.24,1,4
16776.593,0.111,0.458,0.822,2.81,-9.0,1.28,1,4
16776.593,0.121,0.45,0.816,0.27,-7.9,2.08,1,4
16776.609,0.134,0.44,0.809,-1.28,-6.26,2.08,1,4
16776.625,0.142,0.432,0.802,-1.25,-3.72,1.07,1,4
16776.625,0.148,0.433,0.802,0.09,0.34,-0.24,1,4
16776.64,0.14,0.435,0.81,2.26,4.88,-2.38,1,4
16776.656,0.115,0.444,0.822,4.27,8.27,-4.61,1,4
16776.656,0.097,0.458,0.837,5.37,9.06,-5.65,1,4
16776.671,0.1,0.468,0.839,5.46,8.33,-5.43,1,4
16776.687,0.104,0.472,0.84,4.76,7.87,-4.82,1,4
16776.687,0.09,0.477,0.845,4.03,7.9,-4.0,1,4
16776.718,0.068,0.481,0.872,-2.53,1.86,-0.98,1,4
16776.718,0.084,0.475,0.867,-6.35,-3.69,0.27,1,4
16776.734,0.102,0.469,0.864,-8.7,-6.84,1.13,1,4
16776.734,0.12,0.461,0.855,-9.25,-7.6,1.46,1,4
16776.75,0.128,0.45,0.839,-8.21,-6.2,1.1,1,4
16776.765,0.131,0.449,0.839,-6.81,-3.08,0.18,1,4
16776.765,0.129,0.451,0.845,-4.91,0.52,-1.83,1,4
16776.781,0.125,0.454,0.847,-2.62,3.54,-4.43,1,4
16776.796,0.114,0.464,0.859,-0.7,6.23,-6.44,1,4
16776.796,0.082,0.489,0.886,1.5,7.87,-7.29,1,4
16776.812,0.058,0.512,0.908,2.01,5.8,-6.16,1,4
16776.828,0.071,0.531,0.918,-0.37,0.82,-3.75,1,4
16776.828,0.089,0.526,0.906,-2.59,-2.93,-1.74,1,4
16776.843,0.105,0.51,0.893,-3.81,-3.91,0.43,1,4
16776.859,0.112,0.498,0.89,-2.2,-2.26,2.56,1,4
16776.859,0.104,0.492,0.893,1.37,-0.18,3.72,1,4
16776.875,0.101,0.48,0.882,6.74,0.7,2.93,1,4
16776.89,0.096,0.485,0.894,9.55,1.13,1.56,1,4
16776.906,0.095,0.491,0.892,10.65,0.03,0.24,1,4
16776.906,0.103,0.489,0.873,10.16,-1.28,-1.07,1,4
16776.921,0.098,0.484,0.864,9.8,-1.04,-2.2,1,4
16776.937,0.085,0.489,0.864,9.52,-1.01,-2.53,1,4
16776.953,0.092,0.503,0.863,8.0,-2.56,-2.08,1,4
16776.953,0.109,0.499,0.845,5.8,-3.6,-1.65,1,4
16776.968,0.122,0.481,0.823,3.94,-2.93,-1.59,1,4
16776.968,0.126,0.473,0.81,2.08,-0.85,-1.98,1,4
16776.984,0.129,0.458,0.794,2.01,2.04,-2.75,1,4
16776.984,0.122,0.448,0.785,2.72,5.31,-3.75,1,4
16777.0,0.123,0.45,0.785,1.98,7.81,-5.07,1,4
16777.015,0.121,0.438,0.789,1.95,10.44,-6.53,1,4
16777.015,0.111,0.431,0.784,2.14,13.4,-8.06,1,4
16777.031,0.107,0.428,0.771,1.34,16.02,-9.95,1,4
16777.046,0.114,0.419,0.761,-0.03,19.23,-12.39,1,4
16777.046,0.117,0.396,0.755,-3.6,27.41,-20.23,1,4
16777.062,0.075,0.412,0.804,-11.99,26.25,-22.22,1,4
16777.078,0.073,0.482,0.894,-15.14,22.46,-22.55,1,4
16777.078,0.076,0.431,0.949,-5.98,26.06,-21.3,1,4
16777.093,-0.09,0.664,1.142,-3.63,24.54,-17.33,1,4
16777.093,0.047,0.713,1.202,-2.56,7.75,-3.81,1,4
16777.109,0.055,0.629,1.061,4.33,-1.22,1.74,1,4
16777.125,0.084,0.61,1.009,4.33,0.21,5.55,1,4
16777.125,0.072,0.567,1.01,11.11,4.91,5.07,1,4
16777.14,0.035,0.547,0.988,21.24,7.32,2.01,1,4
16777.156,0.012,0.584,1.017,29.97,8.42,0.34,1,4
16777.156,-0.029,0.61,1.077,38.79,6.01,-0.24,1,4
16777.171,-0.068,0.685,1.169,42.36,-2.23,1.92,1,4
16777.187,0.024,0.748,1.172,41.02,-14.31,7.6,1,4
16777.187,0.064,0.706,1.277,32.2,-22.8,11.26,1,4
16777.203,0.071,0.818,1.366,17.06,-33.36,17.58,1,4
16777.218,0.143,0.826,1.4,18.77,-40.65,30.0,1,4
16777.218,0.21,0.797,1.449,24.14,-43.58,38.73,1,4
16777.234,0.257,0.808,1.525,29.94,-46.33,43.49,1,4
16777.25,0.299,0.816,1.592,42.63,-51.0,46.88,1,4
16777.25,0.333,0.818,1.618,57.62,-58.78,49.47,1,4
16777.265,0.359,0.86,1.609,68.39,-70.01,51.58,1,4
16777.265,0.415,0.92,1.593,73.03,-83.38,54.63,1,4
16777.281,0.475,0.943,1.591,70.53,-98.03,57.13,1,4
16777.296,0.492,0.952,1.573,65.1,-113.28,60.82,1,4
16777.296,0.538,0.948,1.531,62.17,-128.73,70.1,1,4
16777.312,0.593,0.964,1.505,59.72,-141.48,82.58,1,4
16777.328,0.643,1.011,1.463,53.68,-151.28,94.58,1,4
16777.343,0.663,1.035,1.409,42.05,-158.7,104.74,1,4
16777.343,0.659,1.014,1.363,27.83,-166.02,112.83,1,4
16777.359,0.634,0.98,1.314,15.84,-174.66,120.7,1,4
16777.359,0.63,0.94,1.262,8.76,-184.33,128.27,1,4
16777.375,0.612,0.924,1.201,5.86,-192.14,134.34,1,4
16777.39,0.566,0.872,1.02,0.34,-203.92,144.69,1,4
16777.406,0.536,0.851,0.948,-6.41,-205.85,147.28,1,4
16777.406,0.494,0.792,0.877,-11.08,-203.71,151.59,1,4
16777.421,0.48,0.771,0.779,-10.86,-203.5,152.29,1,4
16777.437,0.47,0.761,0.683,-11.9,-199.84,149.42,1,4
16777.437,0.441,0.714,0.612,-16.08,-191.05,147.07,1,4
16777.453,0.44,0.693,0.585,-20.14,-180.94,145.51,1,4
16777.468,0.449,0.688,0.586,-19.68,-167.15,144.99,1,4
16777.468,0.416,0.672,0.594,-15.56,-153.6,143.44,1,4
16777.484,0.408,0.646,0.606,-10.71,-143.44,140.45,1,4
16777.5,0.369,0.622,0.589,-2.75,-138.77,133.67,1,4
16777.5,0.315,0.571,0.558,3.54,-137.24,126.96,1,4
16777.515,0.281,0.508,0.534,5.86,-137.97,123.45,1,4
16777.531,0.314,0.455,0.481,10.07,-141.45,121.31,1,4
16777.531,0.319,0.398,0.374,15.78,-147.5,118.05,1,4
16777.546,0.329,0.276,0.276,18.1,-151.1,120.4,1,4
16777.562,0.389,0.224,0.187,19.47,-153.45,123.26,1,4
16777.562,0.434,0.18,0.11,18.77,-152.71,123.75,1,4
16777.578,0.45,0.106,0.038,15.75,-147.28,123.05,1,4
16777.578,0.49,0.058,-0.029,9.34,-141.03,122.23,1,4
16777.593,0.538,0.062,-0.073,0.49,-137.67,120.3,1,4
16777.609,0.592,0.054,-0.106,-11.54,-133.27,115.24,1,4
16777.609,0.627,0.018,-0.119,-24.66,-122.9,109.68,1,4
16777.625,0.667,0.01,-0.108,-34.67,-110.75,103.85,1,4
16777.625,0.711,0.024,-0.088,-38.82,-100.68,96.16,1,4
16777.64,0.717,0.007,-0.071,-38.88,-91.77,88.05,1,4
16777.656,0.725,-0.033,-0.038,-38.27,-82.13,83.16,1,4
16777.656,0.766,-0.039,0.004,-35.49,-73.31,80.05,1,4
16777.671,0.775,-0.03,0.039,-29.85,-66.01,76.75,1,4
16777.687,0.808,-0.057,0.075,-27.28,-59.21,75.32,1,4
16777.687,0.845,-0.023,0.085,-30.03,-57.44,69.28,1,4
16777.703,0.827,-0.065,0.072,-35.68,-56.61,61.89,1,4
16777.718,0.833,-0.055,0.122,-41.35,-57.1,45.66,1,4
16777.734,0.829,-0.033,0.128,-35.04,-62.87,35.19,1,4
16777.734,0.808,-0.028,0.135,-26.49,-69.77,27.16,1,4
16777.75,0.747,-0.008,0.128,-14.34,-78.83,21.18,1,4
16777.765,0.698,0.034,0.112,-0.31,-92.93,17.33,1,4
16777.781,0.7,0.099,0.092,11.63,-109.65,17.12,1,4
16777.781,0.743,0.175,0.061,15.35,-123.26,20.14,1,4
16777.796,0.771,0.234,0.032,9.83,-134.65,24.63,1,4
16777.796,0.822,0.275,-0.022,2.23,-145.45,30.24,1,4
16777.812,0.881,0.293,-0.105,-5.62,-150.3,38.97,1,4
16777.828,0.933,0.27,-0.189,-13.21,-148.11,50.87,1,4
16777.828,0.97,0.256,-0.238,-20.2,-138.71,62.29,1,4
16777.843,0.975,0.225,-0.254,-26.22,-125.19,72.24,1,4
16777.859,0.954,0.184,-0.238,-32.29,-111.94,78.55,1,4
16777.859,0.886,0.162,-0.165,-38.39,-100.8,82.34,1,4
16777.875,0.824,0.119,-0.129,-42.42,-96.41,85.06,1,4
16777.89,0.767,0.047,-0.013,-44.31,-101.93,85.82,1,4
16777.906,0.719,-0.004,-0.013,-35.22,-106.39,83.13,1,4
16777.906,0.706,-0.034,-0.099,-22.4,-113.16,79.62,1,4
16777.921,0.729,-0.04,-0.257,-11.81,-122.5,74.31,1,4
16777.937,0.78,-0.044,-0.422,-3.94,-126.47,67.05,1,4
16777.937,0.833,-0.048,-0.596,-0.27,-123.11,59.51,1,4
16777.953,0.9,-0.05,-0.698,-4.12,-109.5,54.57,1,4
16777.968,0.918,-0.035,-0.711,-10.99,-86.46,51.3,1,4
16777.968,0.863,-0.055,-0.665,-18.31,-62.93,50.72,1,4
16777.984,0.806,-0.093,-0.578,-27.86,-47.91,53.74,1,4
16778.0,0.786,-0.127,-0.51,-32.2,-40.41,57.37,1,4
16778.0,0.788,-0.142,-0.488,-31.71,-37.11,58.5,1,4
16778.015,0.812,-0.167,-0.48,-32.04,-38.48,58.14,1,4
16778.015,0.84,-0.186,-0.474,-31.53,-37.81,55.24,1,4
16778.031,0.852,-0.202,-0.491,-34.18,-37.97,46.42,1,4
16778.046,0.892,-0.223,-0.546,-38.54,-35.68,43.06,1,4
16778.046,0.93,-0.229,-0.587,-43.37,-27.89,39.0,1,4
16778.062,0.912,-0.232,-0.583,-49.01,-21.0,35.31,1,4
16778.078,0.892,-0.226,-0.484,-55.12,-16.42,32.47,1,4
16778.078,0.877,-0.233,-0.42,-57.99,-13.43,29.05,1,4
16778.093,0.839,-0.229,-0.349,-59.91,-11.69,23.38,1,4
16778.109,0.828,-0.231,-0.295,-58.93,-11.6,16.17,1,4
16778.109,0.799,-0.233,-0.298,-57.31,-14.77,8.76,1,4
16778.125,0.779,-0.226,-0.343,-55.79,-17.98,1.68,1,4
16778.125,0.791,-0.208,-0.411,-55.39,-18.77,-3.57,1,4
16778.14,0.785,-0.184,-0.466,-59.48,-15.17,-6.87,1,4
16778.156,0.79,-0.152,-0.447,-65.92,-9.34,-7.02,1,4
16778.156,0.819,-0.154,-0.376,-72.33,-3.42,-2.75,1,4
16778.171,0.841,-0.158,-0.334,-81.09,-0.09,8.0,1,4
16778.187,0.804,-0.164,-0.284,-94.73,-1.4,20.66,1,4
16778.187,0.774,-0.246,-0.272,-105.44,-7.84,31.04,1,4
16778.203,0.752,-0.293,-0.273,-110.08,-18.65,38.03,1,4
16778.218,0.829,-0.251,-0.404,-105.72,-38.06,29.42,1,4
16778.234,0.877,-0.216,-0.422,-106.88,-41.32,17.61,1,4
16778.25,0.869,-0.157,-0.36,-100.56,-39.74,2.81,1,4
16778.25,0.836,-0.103,-0.262,-79.93,-38.94,-12.54,1,4
16778.265,0.793,-0.068,-0.228,-49.41,-43.92,-24.9,1,4
16778.265,0.687,-0.064,-0.284,-18.22,-55.57,-36.07,1,4
16778.281,0.636,-0.116,-0.432,12.82,-70.1,-46.97,1,4
16778.296,0.608,-0.125,-0.631,36.68,-81.12,-55.39,1,4
16778.296,0.629,-0.112,-0.816,49.38,-83.74,-58.93,1,4
16778.312,0.634,-0.101,-0.904,51.21,-75.5,-55.54,1,4
16778.328,0.626,-0.1,-0.917,48.43,-60.0,-43.86,1,4
16778.343,0.593,-0.09,-0.876,40.71,-42.66,-23.71,1,4
16778.343,0.542,-0.096,-0.79,27.86,-29.24,0.06,1,4
16778.359,0.517,-0.13,-0.714,14.92,-23.35,23.96,1,4
16778.359,0.517,-0.174,-0.665,6.5,-24.41,45.59,1,4
16778.375,0.546,-0.204,-0.658,3.51,-28.05,62.17,1,4
16778.375,0.589,-0.24,-0.686,1.37,-31.43,73.15,1,4
16778.39,0.64,-0.295,-0.737,0.55,-33.81,78.68,1,4
16778.406,0.678,-0.354,-0.813,2.59,-33.75,78.49,1,4
16778.406,0.692,-0.41,-0.881,4.58,-31.13,74.53,1,4
16778.421,0.708,-0.449,-0.922,7.14,-26.06,68.12,1,4
16778.437,0.73,-0.461,-0.941,8.91,-18.71,61.77,1,4
16778.437,0.723,-0.457,-0.901,7.32,-10.99,55.97,1,4
16778.453,0.696,-0.467,-0.832,7.39,-5.16,50.75,1,4
16778.468,0.661,-0.457,-0.786,8.27,-3.17,47.49,1,4
16778.468,0.65,-0.447,-0.75,6.9,-4.12,46.21,1,4
16778.484,0.689,-0.466,-0.722,3.85,-5.04,46.91,1,4
16778.484,0.717,-0.479,-0.699,1.46,-4.7,47.76,1,4
16778.5,0.732,-0.491,-0.679,1.1,-3.48,46.97,1,4
16778.515,0.719,-0.504,-0.649,0.03,-2.23,43.31,1,4
16778.515,0.667,-0.511,-0.625,-0.37,-2.29,36.13,1,4
16778.531,0.659,-0.498,-0.615,1.71,-4.06,26.0,1,4
16778.546,0.687,-0.472,-0.611,5.01,-5.13,15.47,1,4
16778.546,0.689,-0.432,-0.599,7.9,-2.81,7.42,1,4
16778.562,0.688,-0.376,-0.572,9.22,1.22,3.75,1,4
16778.578,0.698,-0.325,-0.539,7.78,4.88,4.36,1,4
16778.578,0.692,-0.296,-0.488,3.66,8.36,8.7,1,4
16778.593,0.658,-0.281,-0.432,-1.56,11.72,14.98,1,4
16778.609,0.62,-0.264,-0.379,-6.44,12.3,21.49,1,4
16778.609,0.611,-0.251,-0.345,-12.36,10.41,27.56,1,4
16778.625,0.617,-0.238,-0.321,-20.08,8.82,33.85,1,4
16778.625,0.626,-0.232,-0.308,-28.5,7.39,40.38,1,4
16778.64,0.644,-0.248,-0.318,-35.8,5.92,47.12,1,4
16778.656,0.657,-0.257,-0.327,-41.11,5.95,53.56,1,4
16778.656,0.669,-0.259,-0.331,-44.25,6.93,58.17,1,4
16778.671,0.676,-0.282,-0.323,-45.75,7.48,60.73,1,4
16778.687,0.685,-0.318,-0.317,-42.7,6.13,60.76,1,4
16778.687,0.733,-0.348,-0.329,-36.23,4.15,59.57,1,4
16778.703,0.753,-0.345,-0.334,-32.69,1.22,57.68,1,4
16778.718,0.739,-0.371,-0.343,-32.17,-4.0,55.06,1,4
16778.718,0.728,-0.409,-0.37,-33.11,-10.5,51.76,1,4
16778.734,0.713,-0.421,-0.401,-35.55,-15.84,48.16,1,4
16778.75,0.672,-0.432,-0.43,-36.56,-20.36,42.42,1,4
16778.75,0.626,-0.434,-0.464,-35.13,-25.76,34.64,1,4
16778.765,0.595,-0.434,-0.519,-32.44,-31.28,25.21,1,4
16778.781,0.569,-0.421,-0.581,-26.28,-33.97,13.46,1,4
16778.781,0.567,-0.389,-0.624,-16.14,-32.87,0.82,1,4
16778.796,0.549,-0.341,-0.662,-7.87,-30.4,-11.81,1,4
16778.796,0.548,-0.308,-0.677,-2.84,-28.6,-24.96,1,4
16778.812,0.548,-0.281,-0.674,2.26,-27.16,-37.35,1,4
16778.828,0.519,-0.249,-0.674,8.06,-25.88,-48.89,1,4
16778.828,0.477,-0.227,-0.662,14.53,-25.64,-59.02,1,4
16778.843,0.444,-0.2,-0.664,22.74,-26.25,-66.99,1,4
16778.859,0.443,-0.169,-0.691,28.69,-28.08,-71.35,1,4
16778.859,0.463,-0.129,-0.735,30.85,-29.82,-72.88,1,4
16778.875,0.501,-0.094,-0.77,30.52,-30.3,-71.66,1,4
16778.875,0.526,-0.076,-0.788,28.87,-29.11,-67.81,1,4
16778.89,0.516,-0.07,-0.795,28.9,-27.01,-62.2,1,4
16778.906,0.5,-0.069,-0.804,28.9,-24.87,-55.51,1,4
16778.906,0.487,-0.089,-0.796,27.8,-24.05,-49.38,1,4
16778.921,0.469,-0.111,-0.786,26.49,-23.13,-45.2,1,4
16778.937,0.465,-0.128,-0.764,23.99,-22.8,-42.79,1,4
16778.953,0.452,-0.141,-0.739,19.1,-23.29,-43.55,1,4
16778.953,0.48,-0.175,-0.718,15.32,-26.46,-48.49,1,4
16778.968,0.545,-0.185,-0.722,16.33,-27.86,-55.06,1,4
16778.968,0.606,-0.185,-0.741,21.7,-25.24,-61.1,1,4
16778.984,0.64,-0.175,-0.741,29.15,-18.98,-66.74,1,4
16779.0,0.646,-0.173,-0.744,33.6,-11.54,-70.68,1,4
16779.0,0.628,-0.164,-0.722,33.63,-5.62,-73.21,1,4
16779.015,0.607,-0.155,-0.704,36.47,-1.28,-75.26,1,4
16779.031,0.637,-0.129,-0.72,44.56,2.56,-70.1,1,4
16779.031,0.673,-0.09,-0.747,42.39,4.97,-61.25,1,4
16779.046,0.704,-0.065,-0.768,35.68,6.62,-48.37,1,4
16779.046,0.758,-0.057,-0.742,29.3,8.12,-29.51,1,4
16779.062,0.773,-0.074,-0.724,22.37,7.84,-7.66,1,4
16779.078,0.789,-0.139,-0.704,14.16,6.41,12.7,1,4
16779.078,0.799,-0.215,-0.688,7.84,4.06,28.23,1,4
16779.093,0.819,-0.284,-0.678,5.68,2.26,39.28,1,4
16779.109,0.841,-0.345,-0.667,3.91,2.26,48.95,1,4
16779.109,0.845,-0.405,-0.652,-0.79,2.44,57.89,1,4
16779.125,0.842,-0.476,-0.63,-7.11,1.8,65.58,1,4
16779.14,0.817,-0.554,-0.605,-13.15,0.67,71.14,1,4
16779.14,0.783,-0.611,-0.602,-18.43,-1.53,72.3,1,4
16779.156,0.766,-0.627,-0.607,-23.87,-5.46,68.73,1,4
16779.156,0.758,-0.627,-0.61,-30.34,-10.56,61.53,1,4
16779.171,0.754,-0.628,-0.624,-35.58,-14.83,52.25,1,4
16779.187,0.745,-0.6,-0.65,-37.6,-17.55,43.79,1,4
16779.187,0.719,-0.569,-0.679,-37.11,-18.07,36.84,1,4
16779.203,0.696,-0.529,-0.709,-35.43,-17.33,30.64,1,4
16779.218,0.681,-0.484,-0.741,-34.12,-16.39,24.2,1,4
16779.218,0.666,-0.455,-0.751,-32.59,-15.11,17.15,1,4
16779.234,0.653,-0.425,-0.758,-30.12,-13.95,10.96,1,4
16779.25,0.637,-0.379,-0.756,-28.5,-12.36,7.66,1,4
16779.25,0.616,-0.34,-0.754,-28.93,-10.9,6.87,1,4
16779.265,0.604,-0.322,-0.761,-30.82,-10.5,7.9,1,4
16779.265,0.59,-0.298,-0.767,-33.57,-10.07,10.04,1,4
16779.281,0.579,-0.277,-0.774,-36.56,-9.92,12.57,1,4
16779.296,0.582,-0.267,-0.787,-38.33,-9.55,15.78,1,4
16779.312,0.572,-0.254,-0.796,-39.67,-8.64,20.48,1,4
16779.312,0.563,-0.254,-0.81,-40.96,-6.68,26.28,1,4
16779.328,0.559,-0.255,-0.822,-43.61,-2.9,32.23,1,4
16779.328,0.568,-0.262,-0.816,-47.91,1.22,38.09,1,4
16779.343,0.579,-0.263,-0.797,-52.67,4.58,43.58,1,4
16779.359,0.586,-0.27,-0.776,-56.49,6.65,47.76,1,4
16779.359,0.6,-0.282,-0.764,-58.17,5.77,49.44,1,4
16779.375,0.6,-0.297,-0.756,-56.43,3.36,47.7,1,4
16779.375,0.603,-0.328,-0.745,-50.69,2.2,41.72,1,4
16779.39,0.609,-0.36,-0.735,-41.6,2.81,32.29,1,4
16779.406,0.603,-0.39,-0.726,-32.29,4.36,20.48,1,4
16779.406,0.597,-0.407,-0.696,-24.66,4.64,8.67,1,4
16779.421,0.6,-0.421,-0.673,-18.4,2.62,-1.89,1,4
16779.437,0.588,-0.405,-0.673,-14.68,-1.43,-11.08,1,4
16779.437,0.61,-0.379,-0.711,-13.92,-7.08,-18.4,1,4
16779.453,0.631,-0.337,-0.756,-16.63,-10.22,-24.08,1,4
16779.468,0.648,-0.294,-0.781,-21.61,-9.7,-28.44,1,4
16779.468,0.665,-0.258,-0.791,-26.52,-6.84,-30.43,1,4
16779.484,0.646,-0.23,-0.79,-30.3,-1.4,-30.12,1,4
16779.5,0.614,-0.205,-0.787,-34.64,3.51,-28.41,1,4
16779.5,0.59,-0.192,-0.764,-38.61,6.13,-25.88,1,4
16779.515,0.573,-0.176,-0.752,-40.38,7.6,-22.03,1,4
16779.515,0.581,-0.143,-0.752,-42.54,8.39,-15.72,1,4
16779.531,0.596,-0.114,-0.733,-46.42,9.16,-7.6,1,4
16779.546,0.61,-0.099,-0.719,-50.42,9.83,1.56,1,4
16779.546,0.636,-0.107,-0.706,-53.47,10.07,9.98,1,4
16779.562,0.636,-0.113,-0.7,-55.82,9.83,15.14,1,4
16779.578,0.621,-0.132,-0.703,-57.62,8.12,17.79,1,4
16779.578,0.625,-0.146,-0.728,-57.86,5.4,19.75,1,4
16779.593,0.631,-0.159,-0.751,-57.77,4.52,22.4,1,4
16779.609,0.615,-0.162,-0.76,-58.66,5.62,24.26,1,4
16779.609,0.617,-0.166,-0.753,-60.73,5.55,25.09,1,4
16779.625,0.621,-0.168,-0.75,-63.17,5.68,26.25,1,4
16779.64,0.638,-0.161,-0.748,-64.21,5.92,27.65,1,4
16779.64,0.651,-0.146,-0.731,-63.78,5.46,28.93,1,4
16779.656,0.647,-0.131,-0.734,-63.11,4.24,31.31,1,4
16779.656,0.654,-0.123,-0.742,-64.52,3.2,34.64,1,4
16779.671,0.657,-0.131,-0.747,-67.02,3.2,36.96,1,4
16779.687,0.649,-0.157,-0.74,-68.73,4.52,37.75,1,4
16779.703,0.641,-0.175,-0.741,-69.73,6.47,36.68,1,4
16779.703,0.644,-0.177,-0.747,-70.47,7.14,33.51,1,4
16779.718,0.644,-0.173,-0.748,-70.62,7.45,28.66,1,4
16779.718,0.644,-0.17,-0.738,-69.31,8.36,23.53,1,4
16779.734,0.651,-0.149,-0.733,-66.44,9.16,19.01,1,4
16779.734,0.664,-0.135,-0.732,-63.81,9.58,15.56,1,4
16779.75,0.681,-0.128,-0.723,-62.53,10.38,12.97,1,4
16779.765,0.678,-0.12,-0.707,-61.92,10.68,11.63,1,4
16779.765,0.652,-0.111,-0.701,-61.68,9.77,11.02,1,4
16779.781,0.603,-0.132,-0.711,-61.98,8.12,10.8,1,4
16779.796,0.553,-0.16,-0.733,-62.53,6.78,9.52,1,4
16779.796,0.544,-0.17,-0.765,-61.01,5.95,5.04,1,4
16779.812,0.573,-0.18,-0.785,-57.5,7.42,-1.4,1,4
16779.828,0.619,-0.173,-0.794,-54.02,11.41,-7.66,1,4
16779.843,0.671,-0.149,-0.774,-53.25,16.08,-12.27,1,4
16779.843,0.687,-0.137,-0.723,-53.74,20.45,-16.97,1,4
16779.859,0.693,-0.131,-0.678,-54.02,22.83,-21.67,1,4
16779.859,0.69,-0.104,-0.643,-53.38,22.49,-27.22,1,4
16779.875,0.655,-0.068,-0.634,-51.12,20.08,-34.52,1,4
16779.89,0.604,-0.024,-0.65,-50.45,16.11,-40.74,1,4
16779.89,0.578,0.017,-0.687,-51.61,11.29,-44.28,1,4
16779.906,0.578,0.071,-0.716,-53.99,7.81,-43.52,1,4
16779.921,0.59,0.12,-0.74,-58.99,7.87,-37.75,1,4
16779.921,0.592,0.154,-0.755,-65.58,11.57,-27.65,1,4
16779.937,0.58,0.179,-0.738,-70.8,16.05,-15.05,1,4
16779.937,0.57,0.187,-0.732,-75.93,19.17,-1.28,1,4
16779.953,0.575,0.186,-0.718,-83.38,20.45,11.41,1,4
16779.968,0.591,0.174,-0.691,-90.43,21.79,21.27,1,4
16779.968,0.612,0.167,-0.674,-96.32,22.22,28.32,1,4
16779.984,0.627,0.159,-0.652,-101.5,22.58,33.69,1,4
16780.0,0.625,0.159,-0.635,-105.08,23.38,36.84,1,4
16780.0,0.591,0.166,-0.616,-109.71,25.21,44.89,1,4
16780.015,0.551,0.187,-0.607,-113.71,24.08,52.06,1,4
16780.015,0.527,0.207,-0.601,-120.0,22.28,60.67,1,4
16780.031,0.513,0.205,-0.615,-126.71,19.9,70.16,1,4
16780.046,0.536,0.175,-0.656,-131.57,19.53,78.89,1,4
16780.046,0.561,0.151,-0.66,-135.81,23.01,86.03,1,4
16780.062,0.609,0.125,-0.631,-139.23,28.17,91.53,1,4
16780.078,0.642,0.101,-0.596,-140.32,33.97,95.28,1,4
16780.078,0.637,0.067,-0.55,-141.58,36.99,97.23,1,4
16780.093,0.646,0.036,-0.507,-145.05,35.04,97.35,1,4
16780.093,0.641,0.0,-0.497,-146.7,33.36,94.09,1,4
16780.109,0.63,-0.018,-0.48,-146.82,33.11,87.44,1,4
16780.125,0.658,-0.036,-0.452,-142.95,33.02,78.19,1,4
16780.14,0.7,-0.03,-0.445,-134.68,34.97,66.16,1,4
16780.14,0.751,0.01,-0.468,-125.64,37.93,53.38,1,4
16780.156,0.784,0.065,-0.477,-117.83,42.91,41.29,1,4
16780.171,0.733,0.106,-0.437,-112.7,49.93,29.33,1,4
16780.171,0.704,0.145,-0.392,-104.86,53.1,20.26,1,4
16780.187,0.704,0.198,-0.358,-96.35,55.54,15.44,1,4
16780.187,0.708,0.23,-0.341,-92.17,57.07,13.25,1,4
16780.203,0.696,0.24,-0.341,-91.25,56.25,13.89,1,4
16780.218,0.688,0.245,-0.354,-92.04,53.68,16.02,1,4
16780.218,0.682,0.272,-0.368,-96.71,52.34,18.34,1,4
16780.234,0.724,0.275,-0.357,-102.24,52.22,20.05,1,4
16780.25,0.741,0.287,-0.34,-102.91,54.99,21.58,1,4
16780.25,0.726,0.294,-0.311,-100.25,58.72,22.89,1,4
16780.265,0.71,0.296,-0.278,-97.23,61.95,23.56,1,4
16780.265,0.682,0.293,-0.255,-93.75,63.36,22.46,1,4
16780.281,0.689,0.298,-0.248,-91.07,62.26,21.27,1,4
16780.296,0.732,0.32,-0.241,-89.45,61.4,20.75,1,4
16780.296,0.791,0.339,-0.232,-88.87,62.65,21.85,1,4
16780.312,0.811,0.36,-0.211,-90.82,65.83,25.27,1,4
16780.328,0.789,0.363,-0.163,-94.73,68.88,29.79,1,4
16780.328,0.756,0.337,-0.121,-98.12,69.92,34.21,1,4
16780.343,0.72,0.308,-0.102,-98.91,68.88,36.23,1,4
16780.359,0.72,0.269,-0.11,-95.22,66.44,33.97,1,4
16780.359,0.735,0.247,-0.142,-89.36,65.22,28.5,1,4
16780.375,0.766,0.247,-0.17,-84.05,66.44,21.09,1,4
16780.375,0.806,0.263,-0.171,-79.5,70.16,13.49,1,4
16780.39,0.773,0.288,-0.131,-75.17,77.39,5.92,1,4
16780.406,0.734,0.298,-0.076,-71.2,83.32,-0.85,1,4
16780.406,0.682,0.297,-0.03,-66.56,85.94,-5.92,1,4
16780.421,0.657,0.303,-0.011,-60.91,84.96,-10.32,1,4
16780.437,0.669,0.331,0.002,-57.28,82.06,-12.88,1,4
16780.453,0.701,0.364,0.006,-56.92,80.87,-10.38,1,4
16780.453,0.755,0.401,0.013,-61.92,81.06,-1.89,1,4
16780.468,0.761,0.411,0.041,-70.25,83.29,7.78,1,4
16780.468,0.794,0.373,0.084,-76.91,84.66,15.96,1,4
16780.484,0.796,0.342,0.114,-78.52,86.31,21.67,1,4
16780.5,0.771,0.329,0.12,-77.7,87.31,23.19,1,4
16780.5,0.738,0.316,0.14,-77.79,87.19,21.91,1,4
16780.515,0.675,0.327,0.151,-77.49,87.25,21.79,1,4
16780.515,0.722,0.326,0.144,-79.29,87.28,28.08,1,4
16780.531,0.742,0.363,0.17,-83.9,89.39,37.02,1,4
16780.546,0.669,0.321,0.182,-89.21,91.19,46.48,1,4
16780.546,0.633,0.264,0.194,-95.16,89.72,56.58,1,4
16780.562,0.629,0.216,0.199,-97.54,87.47,64.67,1,4
16780.578,0.673,0.173,0.209,-96.07,88.02,68.82,1,4
16780.578,0.742,0.147,0.233,-94.15,91.65,71.57,1,4
16780.593,0.746,0.123,0.284,-93.05,96.99,73.12,1,4
16780.609,0.765,0.083,0.334,-92.44,101.05,72.51,1,4
16780.609,0.797,0.062,0.373,-91.4,103.76,70.93,1,4
16780.625,0.814,0.055,0.409,-87.86,104.92,67.35,1,4
16780.64,0.842,0.071,0.436,-83.77,104.86,62.62,1,4
16780.64,0.816,0.09,0.474,-81.3,105.75,56.55,1,4
16780.656,0.768,0.073,0.495,-77.36,105.81,49.5,1,4
16780.656,0.713,0.071,0.497,-69.73,105.59,42.39,1,4
16780.671,0.699,0.084,0.498,-61.43,106.48,37.02,1,4
16780.687,0.723,0.108,0.496,-57.59,108.98,35.74,1,4
16780.687,0.737,0.116,0.514,-59.48,113.13,38.33,1,4
16780.703,0.766,0.12,0.558,-64.42,117.53,41.93,1,4
16780.718,0.763,0.131,0.612,-69.31,121.25,45.53,1,4
16780.718,0.727,0.127,0.673,-72.97,122.17,47.7,1,4
16780.734,0.697,0.11,0.722,-71.02,120.4,46.88,1,4
16780.75,0.689,0.097,0.744,-63.88,117.56,44.47,1,4
16780.75,0.711,0.094,0.748,-56.12,114.54,43.37,1,4
16780.765,0.742,0.095,0.748,-51.64,112.83,44.62,1,4
16780.765,0.748,0.09,0.749,-51.52,112.61,46.3,1,4
16780.781,0.701,0.072,0.771,-53.01,113.25,46.6,1,4
16780.796,0.704,0.06,0.803,-51.45,114.26,45.08,1,4
16780.796,0.741,0.072,0.828,-47.67,115.18,45.41,1,4
16780.812,0.74,0.099,0.85,-45.01,115.36,47.24,1,4
16780.828,0.716,0.093,0.871,-45.01,113.86,49.81,1,4
16780.828,0.646,0.063,0.881,-44.98,112.03,51.82,1,4
16780.843,0.656,0.027,0.879,-42.91,110.32,53.93,1,4
16780.859,0.676,0.014,0.877,-41.14,109.99,57.34,1,4
16780.859,0.68,0.005,0.891,-40.35,111.03,60.43,1,4
16780.875,0.664,-0.013,0.914,-40.5,111.88,62.69,1,4
16780.89,0.652,-0.023,0.924,-40.59,111.09,64.12,1,4
16780.89,0.665,-0.026,0.928,-41.38,109.32,66.19,1,4
16780.906,0.625,-0.032,0.954,-41.51,108.31,66.71,1,4
16780.906,0.552,-0.065,0.975,-38.15,106.69,65.28,1,4
16780.921,0.47,-0.104,0.98,-31.53,104.4,63.42,1,4
16780.937,0.444,-0.137,0.967,-23.32,101.78,61.8,1,4
16780.937,0.482,-0.144,0.946,-16.14,100.77,60.67,1,4
16780.953,0.499,-0.147,0.936,-14.62,102.39,60.12,1,4
16780.968,0.54,-0.17,0.953,-17.0,104.83,60.76,1,4
16780.968,0.599,-0.187,0.981,-22.0,106.2,63.84,1,4
16780.984,0.599,-0.179,1.023,-29.45,105.66,68.64,1,4
16781.0,0.574,-0.192,1.063,-30.24,100.62,70.74,1,4
16781.0,0.532,-0.219,1.089,-26.52,93.48,71.14,1,4
16781.015,0.482,-0.25,1.083,-20.81,86.83,70.59,1,4
16781.031,0.426,-0.309,0.994,-18.49,82.34,70.56,1,4
16781.031,0.42,-0.334,0.943,-19.62,80.45,70.71,1,4
16781.046,0.417,-0.353,0.903,-22.55,80.94,70.38,1,4
16781.046,0.402,-0.363,0.896,-25.97,82.83,69.0,1,4
16781.062,0.384,-0.361,0.915,-27.22,84.17,65.89,1,4
16781.078,0.327,-0.364,0.952,-25.54,84.69,59.97,1,4
16781.078,0.242,-0.36,1.006,-18.16,86.25,50.72,1,4
16781.093,0.212,-0.33,1.063,-7.23,89.05,42.15,1,4
16781.109,0.208,-0.278,1.111,0.55,89.66,36.35,1,4
16781.109,0.179,-0.252,1.126,5.65,88.56,33.75,1,4
16781.125,0.162,-0.257,1.104,7.97,87.1,36.5,1,4
16781.125,0.178,-0.242,1.059,5.62,86.52,44.25,1,4
16781.14,0.199,-0.241,1.027,-2.66,87.56,54.14,1,4
16781.156,0.214,-0.247,1.023,-12.39,90.58,62.62,1,4
16781.156,0.22,-0.258,1.049,-17.27,94.0,69.25,1,4
16781.171,0.216,-0.253,1.08,-17.24,96.9,74.28,1,4
16781.187,0.172,-0.243,1.146,-14.56,99.06,77.43,1,4
16781.203,0.102,-0.226,1.209,-10.07,99.98,79.96,1,4
16781.203,0.037,-0.223,1.241,-6.47,96.47,82.74,1,4
16781.218,0.004,-0.227,1.243,-2.75,90.3,84.32,1,4
16781.218,0.002,-0.261,1.207,2.17,84.23,87.5,1,4
16781.234,0.052,-0.285,1.134,3.57,80.57,94.27,1,4
16781.25,0.112,-0.308,1.082,1.07,80.9,100.28,1,4
16781.25,0.145,-0.344,1.064,-2.96,84.17,102.76,1,4
16781.265,0.144,-0.355,1.077,-5.31,88.23,103.21,1,4
16781.265,0.122,-0.359,1.122,-3.39,90.7,99.64,1,4
16781.281,0.085,-0.329,1.16,1.01,90.4,92.9,1,4
16781.296,0.055,-0.298,1.179,4.52,87.01,88.66,1,4
16781.296,0.021,-0.274,1.182,4.55,81.18,88.66,1,4
16781.312,-0.006,-0.271,1.152,3.17,75.62,91.62,1,4
16781.328,-0.016,-0.283,1.092,1.77,72.66,96.13,1,4
16781.328,-0.03,-0.296,1.064,-0.37,73.24,102.36,1,4
16781.343,-0.039,-0.316,1.04,-0.85,76.08,107.12,1,4
16781.359,-0.042,-0.33,1.028,-1.56,79.35,108.77,1,4
16781.359,-0.055,-0.333,1.057,-2.84,81.18,108.83,1,4
16781.375,-0.088,-0.33,1.074,-2.47,80.97,108.01,1,4
16781.375,-0.127,-0.335,1.064,-3.36,78.49,107.85,1,4
16781.39,-0.157,-0.339,1.063,-6.29,75.01,108.62,1,4
16781.406,-0.19,-0.34,1.074,-7.78,71.69,108.25,1,4
16781.421,-0.227,-0.343,1.072,-6.29,68.48,105.72,1,4
16781.421,-0.263,-0.328,1.074,-3.02,66.59,101.29,1,4
16781.437,-0.289,-0.319,1.081,1.71,65.52,97.66,1,4
16781.437,-0.319,-0.298,1.07,4.64,64.58,97.9,1,4
16781.453,-0.316,-0.27,1.047,2.2,63.81,101.54,1,4
16781.468,-0.297,-0.25,1.047,-4.03,64.3,105.78,1,4
16781.468,-0.311,-0.239,1.063,-10.65,65.55,110.54,1,4
16781.484,-0.327,-0.238,1.083,-16.14,65.03,116.09,1,4
16781.5,-0.34,-0.251,1.092,-18.04,62.62,119.33,1,4
16781.5,-0.366,-0.275,1.09,-16.45,58.93,118.05,1,4
16781.515,-0.387,-0.298,1.107,-11.75,54.84,111.97,1,4
16781.531,-0.379,-0.312,1.115,-2.56,50.9,101.54,1,4
16781.531,-0.364,-0.303,1.113,9.52,47.7,88.87,1,4
16781.546,-0.361,-0.278,1.115,21.18,45.11,77.94,1,4
16781.546,-0.382,-0.243,1.087,28.5,41.51,70.68,1,4
16781.562,-0.41,-0.226,1.043,29.11,36.68,69.73,1,4
16781.578,-0.422,-0.229,0.999,22.74,32.17,76.51,1,4
16781.578,-0.428,-0.236,0.947,12.15,30.15,87.31,1,4
16781.593,-0.449,-0.251,0.913,-0.43,30.21,98.91,1,4
16781.609,-0.444,-0.281,0.922,-9.95,30.15,106.66,1,4
16781.609,-0.413,-0.309,0.955,-11.11,30.7,107.61,1,4
16781.625,-0.405,-0.301,0.981,-5.19,31.22,101.02,1,4
16781.625,-0.405,-0.27,1.013,4.64,30.64,89.18,1,4
16781.64,-0.427,-0.219,1.023,14.28,28.69,76.94,1,4
16781.656,-0.454,-0.173,1.017,19.41,25.45,69.49,1,4
16781.656,-0.483,-0.147,1.01,18.92,22.77,70.13,1,4
16781.671,-0.524,-0.143,0.989,12.97,20.23,77.61,1,4
16781.687,-0.542,-0.161,0.945,3.88,18.01,87.31,1,4
16781.703,-0.531,-0.176,0.897,-5.28,16.72,96.01,1,4
16781.703,-0.506,-0.182,0.871,-12.15,16.42,101.14,1,4
16781.718,-0.469,-0.199,0.889,-15.08,18.8,103.0,1,4
16781.718,-0.478,-0.202,0.92,-15.23,23.5,101.75,1,4
16781.734,-0.53,-0.186,0.937,-15.05,24.9,96.47,1,4
16781.734,-0.553,-0.2,0.964,-12.94,22.95,89.88,1,4
16781.75,-0.568,-0.192,0.992,-8.42,19.38,84.69,1,4
16781.765,-0.584,-0.159,0.965,-2.72,14.22,80.6,1,4
16781.781,-0.572,-0.117,0.918,0.4,9.03,80.08,1,4
16781.781,-0.533,-0.076,0.883,-2.11,6.1,82.49,1,4
16781.796,-0.518,-0.074,0.897,-7.32,7.48,85.73,1,4
16781.796,-0.582,-0.121,0.938,-11.63,11.84,89.57,1,4
16781.812,-0.655,-0.151,0.964,-13.55,12.76,90.7,1,4
16781.828,-0.684,-0.172,0.958,-9.37,9.89,87.5,1,4
16781.828,-0.677,-0.176,0.924,-1.43,4.88,81.21,1,4
16781.843,-0.636,-0.147,0.873,5.34,0.21,75.38,1,4
16781.843,-0.593,-0.107,0.838,9.64,-1.43,71.72,1,4
16781.859,-0.577,-0.089,0.839,11.08,0.21,70.22,1,4
16781.875,-0.548,-0.098,0.796,12.67,4.91,71.96,1,4
16781.875,-0.562,-0.01,0.816,3.94,5.31,74.04,1,4
16781.89,-0.585,-0.031,0.913,0.49,12.85,81.91,1,4
16781.906,-0.579,-0.073,0.998,5.58,17.21,92.96,1,4
16781.906,-0.536,-0.264,1.078,20.11,21.67,101.35,1,4
16781.921,-0.54,-0.647,0.993,34.0,21.58,104.62,1,4
16781.937,-0.596,-0.979,0.923,11.96,11.35,102.69,1,4
16781.937,-0.599,-1.074,1.007,-25.82,5.04,98.12,1,4
16781.953,-0.586,-1.036,0.987,-42.3,2.2,85.27,1,4
16781.968,-0.559,-0.776,0.907,-45.63,-3.72,63.39,1,4
16781.968,-0.55,-0.41,0.852,-29.79,-4.94,17.46,1,4
16781.984,-0.551,-0.118,0.804,-21.61,-3.17,4.49,1,4
16781.984,-0.595,0.144,0.768,-18.56,-1.59,0.92,1,4
16782.0,-0.653,0.388,0.764,-17.55,-1.53,5.22,1,4
16782.015,-0.672,0.428,0.743,-17.3,-2.11,12.94,1,4
16782.015,-0.686,0.42,0.71,-17.67,-2.59,22.19,1,4
16782.031,-0.64,0.39,0.669,-19.44,-2.14,32.07,1,4
16782.046,-0.576,0.331,0.663,-23.35,0.15,37.93,1,4
16782.046,-0.532,0.221,0.702,-23.65,5.92,39.31,1,4
16782.062,-0.495,0.124,0.777,-16.97,11.23,36.04,1,4
16782.078,-0.481,0.044,0.835,-4.3,13.92,26.92,1,4
16782.078,-0.484,-0.033,0.857,8.18,13.86,13.98,1,4
16782.093,-0.503,-0.068,0.87,15.96,11.9,0.15,1,4
16782.109,-0.556,-0.081,0.865,19.41,8.48,-11.69,1,4
16782.109,-0.565,-0.115,0.85,18.31,4.52,-17.7,1,4
16782.125,-0.544,-0.128,0.844,13.4,2.41,-19.65,1,4
16782.125,-0.536,-0.127,0.853,8.51,3.88,-18.46,1,4
16782.14,-0.535,-0.104,0.88,3.48,6.2,-15.38,1,4
16782.156,-0.539,-0.053,0.902,-0.06,6.99,-11.72,1,4
16782.171,-0.542,0.015,0.903,-2.78,5.43,-8.64,1,4
16782.171,-0.542,0.068,0.898,-6.04,3.05,-6.53,1,4
16782.187,-0.534,0.116,0.881,-7.93,0.46,-4.85,1,4
16782.187,-0.544,0.159,0.85,-8.33,-1.25,-2.72,1,4
16782.203,-0.547,0.169,0.83,-9.06,-1.86,0.24,1,4
16782.218,-0.541,0.175,0.826,-9.98,-1.34,3.2,1,4
16782.218,-0.556,0.173,0.824,-10.01,-0.58,5.95,1,4
16782.234,-0.556,0.154,0.832,-10.35,-1.4,8.45,1,4
16782.25,-0.547,0.13,0.831,-9.7,-2.93,9.58,1,4
16782.25,-0.543,0.109,0.818,-7.48,-3.91,9.31,1,4
16782.265,-0.536,0.083,0.806,-5.95,-4.43,8.18,1,4
16782.265,-0.536,0.061,0.798,-4.52,-4.3,6.5,1,4
16782.281,-0.546,0.041,0.795,-2.14,-3.57,5.19,1,4
16782.296,-0.553,0.03,0.794,-1.22,-2.93,4.3,1,4
16782.312,-0.55,0.014,0.807,-1.71,-2.23,3.27,1,4
16782.312,-0.549,0.004,0.829,-1.13,-1.53,2.41,1,4
16782.328,-0.554,0.011,0.843,0.03,-1.37,1.98,1,4
16782.328,-0.558,0.019,0.85,-0.09,-1.71,1.77,1,4
16782.343,-0.563,0.028,0.854,-1.25,-2.44,1.31,1,4
16782.359,-0.567,0.042,0.853,-2.26,-3.54,0.49,1,4
16782.359,-0.565,0.057,0.844,-2.59,-4.73,-0.67,1,4
16782.375,-0.559,0.079,0.838,-2.26,-5.65,-1.68,1,4
16782.39,-0.556,0.104,0.822,-1.65,-6.07,-1.71,1,4
16782.39,-0.553,0.115,0.813,-2.32,-5.98,-0.34,1,4
16782.406,-0.544,0.105,0.812,-3.39,-5.74,1.4,1,4
16782.406,-0.53,0.087,0.811,-3.2,-4.79,3.72,1,4
16782.421,-0.523,0.073,0.814,-2.56,-3.33,5.52,1,4
16782.437,-0.518,0.057,0.82,-2.56,-1.95,6.26,1,4
16782.437,-0.515,0.044,0.837,-3.42,-1.07,6.26,1,4
16782.453,-0.516,0.034,0.845,-3.85,-1.43,5.58,1,4
16782.468,-0.519,0.035,0.838,-3.91,-2.23,4.58,1,4
16782.468,-0.523,0.033,0.831,-4.3,-2.72,3.69,1,4
16782.484,-0.526,0.033,0.821,-4.52,-2.44,3.14,1,4
16782.484,-0.532,0.045,0.819,-4.43,-1.43,3.45,1,4
16782.5,-0.538,0.056,0.826,-5.07,-0.18,4.3,1,4
16782.515,-0.548,0.065,0.839,-6.53,0.43,5.28,1,4
16782.515,-0.548,0.062,0.835,-6.78,0.31,6.29,1,4
16782.531,-0.546,0.068,0.837,-6.9,0.31,7.48,1,4
16782.546,-0.546,0.062,0.845,-7.29,0.06,8.48,1,4
16782.546,-0.541,0.054,0.846,-7.23,-0.82,8.82,1,4
16782.562,-0.538,0.059,0.832,-6.38,-1.4,8.88,1,4
16782.578,-0.545,0.065,0.822,-6.01,-0.95,8.42,1,4
16782.578,-0.546,0.064,0.822,-5.4,-0.43,7.29,1,4
16782.593,-0.542,0.069,0.823,-4.33,-0.46,6.32,1,4
16782.609,-0.54,0.069,0.82,-3.45,-0.67,5.28,1,4
16782.609,-0.543,0.06,0.815,-2.62,-0.37,4.55,1,4
16782.625,-0.542,0.055,0.819,-1.86,0.46,4.21,1,4
16782.625,-0.542,0.036,0.828,-0.85,0.98,3.54,1,4
16782.64,-0.54,0.033,0.828,0.27,1.01,2.75,1,4
16782.656,-0.546,0.039,0.832,0.52,0.79,1.65,1,4
16782.656,-0.553,0.042,0.831,0.34,0.31,0.61,1,4
16782.671,-0.553,0.055,0.823,-0.31,-0.46,-0.21,1,4
16782.687,-0.547,0.066,0.82,-1.07,-0.76,-0.43,1,4
16782.687,-0.534,0.073,0.822,-1.37,-0.58,0.18,1,4
16782.703,-0.542,0.084,0.826,-0.85,0.12,1.34,1,4
16782.718,-0.549,0.079,0.833,-1.13,0.34,2.69,1,4
16782.718,-0.545,0.065,0.842,-1.95,-0.24,3.42,1,4
16782.734,-0.54,0.049,0.844,-1.68,-1.07,2.9,1,4
16782.75,-0.541,0.049,0.837,-0.85,-1.77,2.01,1,4
16782.75,-0.534,0.048,0.832,-0.79,-2.29,1.25,1,4
16782.765,-0.529,0.042,0.828,-1.13,-1.98,0.55,1,4
16782.765,-0.537,0.048,0.828,-1.13,-1.1,0.0,1,4
16782.781,-0.548,0.056,0.831,-1.25,-0.27,-0.52,1,4
16782.796,-0.546,0.059,0.831,-0.98,-0.46,-0.64,1,4
16782.796,-0.543,0.063,0.825,-0.24,-0.49,-0.7,1,4
16782.812,-0.551,0.079,0.82,0.52,-0.12,-0.43,1,4
16782.828,-0.553,0.084,0.825,-0.06,-0.18,0.89,1,4
16782.828,-0.546,0.077,0.832,-0.98,-0.46,2.2,1,4
16782.843,-0.543,0.067,0.838,-1.04,-0.7,2.78,1,4
16782.843,-0.539,0.06,0.841,-0.7,-1.01,2.87,1,4
16782.859,-0.542,0.055,0.844,-0.06,-1.25,2.59,1,4
16782.875,-0.541,0.051,0.841,0.55,-1.4,1.92,1,4
16782.875,-0.537,0.043,0.834,1.74,-1.46,0.82,1,4
16782.89,-0.534,0.041,0.829,2.62,-1.5,-0.7,1,4
16782.906,-0.545,0.043,0.823,3.11,-1.22,-2.29,1,4
16782.921,-0.552,0.05,0.824,3.3,-1.16,-3.14,1,4
16782.921,-0.553,0.056,0.825,2.66,-1.22,-3.45,1,4
16782.937,-0.55,0.052,0.824,1.86,-1.34,-3.69,1,4
16782.937,-0.545,0.052,0.827,1.56,-1.13,-4.0,1,4
16782.953,-0.54,0.053,0.827,1.56,-0.76,-5.04,1,4
16782.968,-0.537,0.054,0.827,1.5,-0.43,-5.49,1,4
16782.968,-0.537,0.057,0.827,2.01,-0.31,-5.55,1,4
16782.984,-0.535,0.06,0.823,2.38,0.34,-5.16,1,4
16783.0,-0.537,0.058,0.822,2.41,1.13,-4.85,1,4
16783.0,-0.538,0.054,0.822,2.59,1.28,-4.43,1,4
16783.015,-0.546,0.056,0.832,2.08,1.4,-4.27,1,4
16783.015,-0.549,0.054,0.841,1.43,1.13,-4.76,1,4
16783.031,-0.556,0.057,0.841,1.25,0.73,-5.52,1,4
16783.046,-0.559,0.061,0.843,0.85,0.21,-6.07,1,4
16783.046,-0.553,0.064,0.841,0.49,-0.58,-6.47,1,4
16783.062,-0.55,0.068,0.831,0.82,-0.92,-6.62,1,4
16783.078,-0.548,0.069,0.823,1.37,-0.7,-6.04,1,4
16783.078,-0.542,0.069,0.821,1.4,-0.31,-5.13,1,4
16783.093,-0.544,0.062,0.828,1.8,0.0,-4.97,1,4
16783.109,-0.543,0.052,0.825,2.66,-0.12,-5.1,1,4
16783.109,-0.539,0.042,0.817,3.11,-0.46,-5.31,1,4
16783.125,-0.534,0.035,0.815,3.14,-0.49,-6.2,1,4
16783.14,-0.531,0.031,0.815,4.03,-0.15,-7.32,1,4
16783.14,-0.529,0.037,0.823,5.55,0.52,-7.84,1,4
16783.156,-0.532,0.052,0.838,6.01,0.37,-7.97,1,4
16783.156,-0.537,0.06,0.839,5.65,-0.76,-7.51,1,4
16783.171,-0.532,0.063,0.832,4.82,-1.92,-6.07,1,4
16783.187,-0.527,0.064,0.824,3.54,-1.95,-4.58,1,4
16783.187,-0.524,0.066,0.825,2.41,-1.22,-3.66,1,4
16783.203,-0.535,0.071,0.838,1.98,-0.06,-2.9,1,4
16783.218,-0.537,0.076,0.845,1.53,0.15,-1.92,1,4
16783.218,-0.531,0.079,0.848,0.61,-0.21,-0.85,1,4
16783.234,-0.534,0.07,0.843,0.27,-0.34,-0.21,1,4
