timestamp,ax,ay,az,gx,gy,gz,orient_label,motion_label
18007.078,-0.46,0.043,0.885,-2.01,0.37,3.51,3,0
18007.093,-0.463,0.033,0.885,-2.11,0.76,2.59,3,0
18007.109,-0.469,0.034,0.889,-1.74,0.85,1.86,3,0
18007.109,-0.469,0.035,0.892,-1.59,0.43,1.37,3,0
18007.125,-0.471,0.034,0.899,-1.65,-0.64,1.04,3,0
18007.125,-0.47,0.025,0.893,-1.56,-2.11,0.89,3,0
18007.14,-0.468,0.019,0.881,-1.53,-3.36,0.55,3,0
18007.156,-0.477,0.014,0.871,-0.92,-4.18,-0.12,3,0
18007.156,-0.477,0.007,0.856,-0.67,-5.1,-0.34,3,0
18007.171,-0.47,-0.007,0.847,-0.67,-5.37,-1.5,3,0
18007.187,-0.469,-0.012,0.844,0.79,-5.07,-3.88,3,0
18007.187,-0.469,-0.002,0.843,3.72,-4.21,-6.32,3,0
18007.203,-0.47,0.021,0.847,6.32,-3.27,-7.84,3,0
18007.218,-0.467,0.043,0.855,7.48,-2.53,-8.33,3,0
18007.218,-0.464,0.057,0.872,7.14,-2.23,-7.75,3,0
18007.234,-0.457,0.065,0.89,6.59,-2.29,-6.41,3,0
18007.234,-0.444,0.074,0.893,6.07,-2.38,-4.24,3,0
18007.25,-0.433,0.072,0.901,5.07,-2.2,-2.17,3,0
18007.265,-0.433,0.072,0.913,4.06,-1.65,-0.46,3,0
18007.281,-0.448,0.068,0.92,2.78,-1.16,1.59,3,0
18007.281,-0.447,0.052,0.91,0.43,-1.56,3.94,3,0
18007.296,-0.436,0.034,0.898,-2.11,-1.43,4.64,3,0
18007.296,-0.432,0.025,0.891,-3.08,-0.27,4.06,3,0
18007.312,-0.428,0.035,0.891,-3.11,1.31,3.45,3,0
18007.328,-0.431,0.047,0.899,-3.2,2.32,2.66,3,0
18007.328,-0.437,0.056,0.909,-3.3,2.08,2.23,3,0
18007.343,-0.435,0.062,0.914,-3.33,0.89,2.08,3,0
18007.359,-0.436,0.064,0.915,-2.96,-0.76,1.62,3,0
18007.359,-0.466,0.069,0.911,-1.86,-2.11,1.43,3,0
18007.375,-0.471,0.06,0.894,-1.92,-3.94,2.93,3,0
18007.375,-0.451,0.036,0.876,-3.45,-5.25,4.27,3,0
18007.39,-0.451,0.004,0.867,-4.12,-4.64,3.66,3,0
18007.406,-0.459,-0.013,0.86,-3.2,-3.54,2.53,3,0
18007.406,-0.461,-0.016,0.86,-1.98,-2.78,1.4,3,0
18007.421,-0.466,-0.01,0.859,-1.16,-2.23,0.03,3,0
18007.437,-0.468,-0.005,0.853,-0.61,-2.2,-0.76,3,0
18007.437,-0.459,0.0,0.85,0.09,-2.26,-1.37,3,0
18007.453,-0.448,0.011,0.85,1.1,-1.83,-2.59,3,0
18007.468,-0.457,0.035,0.861,2.75,-0.82,-3.78,3,0
18007.468,-0.466,0.055,0.869,3.85,-0.37,-3.11,3,0
18007.484,-0.453,0.059,0.88,3.3,-0.7,-1.5,3,0
18007.5,-0.434,0.056,0.871,2.04,-0.89,-1.04,3,0
18007.5,-0.443,0.049,0.885,1.98,0.09,-1.16,3,0
18007.515,-0.443,0.052,0.885,2.26,0.95,-0.95,3,0
18007.515,-0.442,0.052,0.891,1.8,2.01,-0.15,3,0
18007.531,-0.432,0.041,0.898,0.98,2.72,-0.15,3,0
18007.546,-0.434,0.038,0.915,0.61,3.11,-1.16,3,0
18007.546,-0.46,0.055,0.928,1.4,2.69,-2.01,3,0
18007.562,-0.47,0.073,0.93,1.19,0.7,-1.1,3,0
18007.578,-0.451,0.075,0.915,-0.7,-1.77,0.55,3,0
18007.578,-0.438,0.06,0.9,-2.14,-2.66,1.43,3,0
18007.593,-0.443,0.049,0.891,-2.29,-1.89,1.62,3,0
18007.609,-0.461,0.045,0.891,-2.01,-0.95,1.5,3,0
18007.609,-0.479,0.031,0.89,-1.89,-0.85,1.28,3,0
18007.625,-0.478,0.013,0.888,-1.8,-0.89,0.89,3,0
18007.64,-0.478,0.002,0.879,-1.1,-0.76,-0.4,3,0
18007.64,-0.482,0.003,0.876,-0.37,-0.49,-2.38,3,0
18007.656,-0.486,0.009,0.888,0.27,-0.64,-4.24,3,0
18007.656,-0.49,0.017,0.893,2.29,-1.37,-6.01,3,0
18007.671,-0.488,0.037,0.885,4.43,-2.75,-7.08,3,0
18007.687,-0.481,0.042,0.877,5.34,-4.06,-7.66,3,0
18007.687,-0.474,0.037,0.867,5.8,-4.55,-7.78,3,0
18007.703,-0.475,0.03,0.859,6.29,-3.88,-8.18,3,0
18007.718,-0.48,0.021,0.855,6.81,-2.62,-8.55,3,0
18007.718,-0.476,0.015,0.861,7.54,-1.4,-9.16,3,0
18007.734,-0.468,0.016,0.866,9.67,0.03,-11.23,3,0
18007.734,-0.463,0.022,0.871,9.95,-0.12,-11.72,3,0
18007.75,-0.455,0.029,0.878,10.38,-0.34,-11.69,3,0
18007.765,-0.449,0.034,0.878,10.28,-0.06,-11.38,3,0
18007.765,-0.443,0.039,0.873,9.89,0.7,-10.83,3,0
18007.781,-0.438,0.04,0.881,9.31,1.46,-10.01,3,0
18007.796,-0.442,0.042,0.883,8.48,1.89,-9.31,3,0
18007.796,-0.436,0.043,0.882,7.57,1.92,-8.42,3,0
18007.812,-0.429,0.045,0.879,6.87,2.04,-7.84,3,0
18007.828,-0.427,0.041,0.878,6.68,2.32,-7.72,3,0
18007.828,-0.428,0.046,0.879,7.05,2.87,-7.84,3,0
18007.843,-0.433,0.053,0.884,7.6,3.51,-7.93,3,0
18007.859,-0.438,0.049,0.898,7.84,3.88,-7.93,3,0
18007.859,-0.438,0.048,0.902,8.09,3.39,-8.03,3,0
18007.875,-0.442,0.048,0.902,8.48,2.5,-8.64,3,0
18007.875,-0.449,0.049,0.906,8.79,1.46,-9.77,3,0
18007.89,-0.458,0.052,0.902,9.19,0.31,-11.05,3,0
18007.906,-0.459,0.059,0.892,10.01,-0.85,-12.18,3,0
18007.921,-0.458,0.063,0.886,10.99,-1.65,-13.18,3,0
18007.921,-0.455,0.063,0.877,11.6,-1.68,-14.22,3,0
18007.937,-0.451,0.052,0.878,13.52,-1.74,-15.9,3,0
18007.953,-0.456,0.047,0.874,14.19,-2.11,-15.96,3,0
18007.968,-0.456,0.03,0.868,13.98,-3.02,-16.24,3,0
18007.968,-0.455,0.015,0.866,14.22,-3.69,-17.79,3,0
18007.984,-0.456,0.005,0.863,16.11,-3.88,-20.14,3,0
18008.0,-0.46,0.01,0.861,18.65,-4.03,-22.16,3,0
18008.0,-0.461,0.02,0.857,20.05,-4.55,-23.9,3,0
18008.015,-0.456,0.029,0.861,20.75,-5.46,-25.61,3,0
18008.015,-0.464,0.045,0.867,21.73,-5.77,-26.31,3,0
18008.031,-0.468,0.062,0.868,21.58,-6.78,-25.33,3,0
18008.046,-0.461,0.066,0.871,20.57,-8.24,-24.41,3,0
18008.062,-0.464,0.068,0.87,20.45,-9.0,-23.1,3,0
18008.062,-0.467,0.073,0.863,20.48,-9.31,-21.36,3,0
18008.078,-0.459,0.058,0.853,20.26,-10.04,-19.44,3,0
18008.078,-0.448,0.027,0.859,19.93,-10.19,-17.37,3,0
18008.093,-0.441,-0.011,0.866,20.48,-9.55,-15.47,3,0
18008.109,-0.435,-0.052,0.879,21.24,-9.37,-15.17,3,0
18008.109,-0.437,-0.085,0.901,22.25,-9.89,-16.97,3,0
18008.125,-0.459,-0.095,0.912,24.23,-11.81,-20.81,3,0
18008.14,-0.469,-0.084,0.911,26.37,-15.66,-26.03,3,0
18008.14,-0.456,-0.073,0.912,28.17,-19.93,-31.37,3,0
18008.156,-0.45,-0.045,0.898,29.76,-22.83,-35.43,3,0
18008.156,-0.44,-0.023,0.881,29.76,-24.81,-38.12,3,0
18008.171,-0.449,0.004,0.873,29.11,-24.96,-39.12,3,0
18008.187,-0.457,0.038,0.857,29.54,-24.08,-38.67,3,0
18008.187,-0.455,0.057,0.845,29.18,-22.46,-37.17,3,0
18008.203,-0.454,0.07,0.846,27.25,-20.2,-35.37,3,0
18008.218,-0.458,0.079,0.852,25.3,-17.55,-33.66,3,0
18008.218,-0.457,0.084,0.862,24.29,-15.41,-31.92,3,0
18008.234,-0.464,0.092,0.868,24.63,-14.13,-30.73,3,0
18008.234,-0.469,0.098,0.864,26.25,-13.89,-30.03,3,0
18008.25,-0.469,0.112,0.852,28.87,-13.98,-29.91,3,0
18008.265,-0.462,0.132,0.833,31.31,-13.95,-30.79,3,0
18008.265,-0.466,0.161,0.818,32.9,-13.52,-31.92,3,0
18008.281,-0.473,0.204,0.792,34.09,-13.21,-31.83,3,0
18008.296,-0.456,0.233,0.777,34.42,-12.85,-29.85,3,0
18008.312,-0.44,0.253,0.766,34.42,-10.59,-25.57,3,0
18008.312,-0.437,0.273,0.756,33.85,-6.23,-19.26,3,0
18008.328,-0.445,0.291,0.759,31.56,-1.25,-11.41,3,0
18008.328,-0.45,0.282,0.772,26.52,2.96,-3.39,3,0
18008.343,-0.454,0.256,0.789,21.39,6.04,3.11,3,0
18008.359,-0.46,0.225,0.795,18.37,8.39,8.03,3,0
18008.359,-0.452,0.201,0.802,16.33,10.22,10.99,3,0
18008.375,-0.45,0.181,0.819,15.72,12.45,11.99,3,0
18008.375,-0.448,0.17,0.831,15.93,14.62,13.12,3,0
18008.39,-0.431,0.172,0.844,15.14,16.79,14.31,3,0
18008.406,-0.427,0.169,0.863,13.61,19.41,14.89,3,0
18008.406,-0.43,0.169,0.888,12.85,21.7,15.81,3,0
18008.421,-0.428,0.174,0.917,11.93,23.29,17.73,3,0
18008.437,-0.442,0.158,0.974,7.26,24.2,21.88,3,0
18008.453,-0.437,0.146,0.993,5.04,22.95,22.52,3,0
18008.468,-0.438,0.128,1.002,3.3,20.94,20.63,3,0
18008.468,-0.444,0.114,1.008,2.9,18.59,17.0,3,0
18008.484,-0.441,0.11,1.007,3.72,15.99,12.45,3,0
18008.484,-0.444,0.121,1.001,4.85,13.67,7.54,3,0
18008.5,-0.45,0.131,0.991,5.22,11.29,3.11,3,0
18008.515,-0.447,0.147,0.985,4.97,8.91,-0.12,3,0
18008.515,-0.443,0.162,0.981,5.01,6.71,-2.72,3,0
18008.531,-0.445,0.182,0.979,5.01,5.22,-4.36,3,0
18008.546,-0.447,0.199,0.97,4.3,4.46,-4.58,3,0
18008.562,-0.45,0.208,0.966,2.53,3.81,-4.27,3,0
18008.562,-0.449,0.203,0.967,0.76,2.81,-4.27,3,0
18008.578,-0.446,0.201,0.962,0.27,1.74,-4.55,3,0
18008.578,-0.445,0.198,0.955,0.4,0.7,-4.97,3,0
18008.593,-0.445,0.197,0.942,0.58,-0.67,-5.89,3,0
18008.609,-0.437,0.191,0.921,1.68,-2.56,-7.84,3,0
18008.625,-0.442,0.188,0.904,2.99,-3.02,-8.42,3,0
18008.64,-0.441,0.187,0.888,2.87,-3.33,-8.3,3,0
18008.64,-0.434,0.189,0.882,1.77,-3.6,-8.42,3,0
18008.656,-0.435,0.186,0.873,0.85,-3.36,-8.09,3,0
18008.656,-0.428,0.192,0.868,0.27,-2.35,-6.65,3,0
18008.671,-0.42,0.197,0.865,-0.46,-0.61,-4.67,3,0
18008.687,-0.421,0.193,0.866,-2.32,1.65,-2.59,3,0
18008.687,-0.431,0.181,0.871,-5.01,3.57,-0.79,3,0
18008.703,-0.438,0.167,0.873,-7.45,4.52,0.85,3,0
18008.718,-0.438,0.146,0.855,-9.13,4.85,1.25,3,0
18008.718,-0.437,0.125,0.826,-13.89,8.64,0.15,3,0
18008.734,-0.439,0.121,0.817,-17.21,11.87,-0.09,3,0
18008.75,-0.428,0.131,0.783,-19.56,17.82,1.04,3,0
18008.75,-0.439,0.168,0.837,-21.52,21.76,2.11,3,0
18008.765,-0.445,0.176,0.85,-22.55,24.41,3.51,3,0
18008.765,-0.445,0.177,0.899,-23.07,24.87,6.01,3,0
18008.781,-0.436,0.172,0.915,-22.89,23.5,7.93,3,0
18008.796,-0.438,0.159,0.947,-22.31,20.81,8.91,3,0
18008.812,-0.446,0.135,0.965,-20.45,15.99,7.51,3,0
18008.812,-0.455,0.117,0.98,-16.17,9.28,3.72,3,0
18008.828,-0.458,0.099,0.975,-9.83,1.68,-1.83,3,0
18008.828,-0.464,0.1,0.945,-3.45,-4.85,-7.6,3,0
18008.843,-0.456,0.103,0.913,0.09,-10.25,-12.45,3,0
18008.859,-0.454,0.1,0.879,2.2,-13.7,-17.4,3,0
18008.859,-0.459,0.107,0.848,4.36,-15.08,-21.55,3,0
18008.875,-0.461,0.122,0.825,6.26,-14.77,-23.83,3,0
18008.875,-0.459,0.14,0.81,6.59,-13.12,-24.23,3,0
18008.89,-0.461,0.162,0.814,4.67,-10.62,-23.44,3,0
18008.906,-0.476,0.174,0.819,2.78,-8.39,-21.94,3,0
18008.921,-0.475,0.185,0.826,2.01,-7.11,-19.26,3,0
18008.921,-0.465,0.201,0.824,1.19,-6.41,-16.36,3,0
18008.937,-0.463,0.206,0.829,-0.24,-5.83,-14.19,3,0
18008.953,-0.463,0.203,0.84,-0.55,-3.11,-8.45,3,0
18008.968,-0.472,0.198,0.839,-1.01,-2.23,-5.01,3,0
18008.968,-0.47,0.181,0.845,-2.41,-2.01,-1.83,3,0
18008.984,-0.472,0.159,0.852,-2.32,-2.08,0.46,3,0
18008.984,-0.467,0.145,0.85,-0.98,-2.35,2.01,3,0
18009.0,-0.465,0.132,0.846,-0.37,-2.62,2.29,3,0
18009.015,-0.463,0.119,0.845,-0.4,-2.75,1.77,3,0
18009.015,-0.471,0.115,0.844,-0.34,-2.62,0.85,3,0
18009.031,-0.472,0.111,0.845,0.03,-2.75,0.09,3,0
18009.046,-0.476,0.109,0.839,0.61,-2.75,-0.4,3,0
18009.062,-0.476,0.107,0.839,0.55,-3.05,-1.07,3,0
18009.062,-0.474,0.103,0.841,0.82,-3.11,-1.43,3,0
18009.078,-0.466,0.108,0.848,1.5,-3.08,-1.4,3,0
18009.078,-0.469,0.113,0.855,2.59,-2.5,-1.43,3,0
18009.093,-0.482,0.124,0.858,3.17,-2.29,-0.95,3,0
18009.109,-0.493,0.127,0.851,2.35,-3.33,-0.21,3,0
18009.109,-0.489,0.117,0.841,1.01,-4.94,0.55,3,0
18009.125,-0.48,0.107,0.821,0.95,-5.52,1.22,3,0
18009.125,-0.471,0.106,0.801,1.71,-4.61,1.04,3,0
18009.14,-0.469,0.116,0.794,2.17,-2.17,0.79,3,0
18009.156,-0.473,0.132,0.795,2.08,0.79,0.89,3,0
18009.156,-0.477,0.14,0.807,1.46,3.72,2.26,3,0
18009.171,-0.473,0.14,0.822,0.64,6.04,4.0,3,0
18009.187,-0.472,0.136,0.84,0.18,7.42,5.4,3,0
18009.187,-0.481,0.122,0.857,0.09,7.32,5.31,3,0
18009.203,-0.491,0.105,0.865,1.46,5.58,3.17,3,0
18009.218,-0.497,0.099,0.869,4.94,2.11,-1.19,3,0
18009.218,-0.501,0.097,0.855,9.86,-2.17,-7.51,3,0
18009.234,-0.5,0.092,0.843,15.66,-5.46,-14.16,3,0
18009.25,-0.495,0.113,0.83,23.5,-7.6,-20.36,3,0
18009.25,-0.488,0.142,0.814,31.01,-8.09,-24.99,3,0
18009.265,-0.479,0.177,0.805,33.2,-6.2,-26.92,3,0
18009.265,-0.486,0.207,0.81,30.67,-2.93,-26.06,3,0
18009.281,-0.496,0.227,0.826,26.37,0.37,-22.28,3,0
18009.296,-0.498,0.247,0.836,21.82,3.63,-15.9,3,0
18009.296,-0.5,0.256,0.846,16.6,6.87,-7.81,3,0
18009.312,-0.497,0.251,0.854,10.96,9.61,0.15,3,0
18009.328,-0.494,0.229,0.857,4.97,11.35,6.81,3,0
18009.328,-0.492,0.202,0.865,0.64,12.85,11.66,3,0
18009.343,-0.49,0.176,0.874,-1.53,13.73,14.68,3,0
18009.359,-0.495,0.159,0.876,-2.38,14.31,16.72,3,0
18009.359,-0.497,0.138,0.88,-3.23,14.77,17.73,3,0
18009.375,-0.494,0.115,0.888,-4.33,15.44,18.71,3,0
18009.375,-0.5,0.08,0.911,-5.43,16.21,19.14,3,0
18009.39,-0.511,0.029,0.918,-7.42,16.05,18.25,3,0
18009.406,-0.509,-0.024,0.948,-10.71,14.37,15.14,3,0
18009.406,-0.52,-0.05,0.972,-10.13,12.21,9.89,3,0
18009.421,-0.524,-0.042,0.961,-5.19,9.03,4.79,3,0
18009.437,-0.51,-0.012,0.938,-1.98,5.04,-0.55,3,0
18009.437,-0.505,0.017,0.924,-1.62,1.89,-6.07,3,0
18009.453,-0.504,0.05,0.914,-1.22,-0.18,-9.55,3,0
18009.468,-0.503,0.088,0.898,0.46,-1.5,-10.68,3,0
18009.468,-0.504,0.123,0.875,0.64,-2.04,-10.22,3,0
18009.484,-0.504,0.136,0.866,-1.89,-2.04,-9.37,3,0
18009.5,-0.51,0.125,0.864,-4.15,-2.14,-8.3,3,0
18009.5,-0.508,0.113,0.86,-4.97,-2.59,-7.35,3,0
18009.515,-0.505,0.106,0.86,-3.78,-2.78,-7.26,3,0
18009.515,-0.504,0.115,0.838,-2.04,-3.6,-8.15,3,0
18009.531,-0.499,0.12,0.822,-3.33,-4.33,-9.55,3,0
18009.546,-0.499,0.122,0.819,-5.98,-4.09,-10.38,3,0
18009.546,-0.507,0.117,0.816,-6.07,-3.05,-9.86,3,0
18009.562,-0.5,0.12,0.812,-5.62,-1.68,-8.45,3,0
18009.578,-0.489,0.127,0.812,-6.1,-0.27,-8.03,3,0
18009.578,-0.486,0.123,0.82,-6.68,1.53,-8.0,3,0
18009.593,-0.495,0.127,0.835,-5.98,3.3,-7.69,3,0
18009.609,-0.501,0.14,0.838,-4.88,4.27,-7.2,3,0
18009.609,-0.503,0.152,0.844,-5.16,4.18,-6.71,3,0
18009.625,-0.511,0.157,0.853,-6.2,3.48,-5.98,3,0
18009.625,-0.505,0.156,0.857,-7.35,2.04,-4.18,3,0
18009.64,-0.495,0.151,0.853,-8.24,1.04,-2.41,3,0
18009.656,-0.5,0.143,0.849,-9.34,1.13,-0.92,3,0
18009.656,-0.497,0.134,0.855,-10.25,1.53,0.34,3,0
18009.671,-0.497,0.133,0.863,-9.95,1.43,1.01,3,0
18009.687,-0.496,0.134,0.866,-9.34,0.76,1.13,3,0
18009.687,-0.494,0.13,0.874,-9.22,-0.49,0.67,3,0
18009.703,-0.496,0.124,0.876,-5.71,-4.24,-3.08,3,0
18009.718,-0.505,0.123,0.868,-3.36,-5.77,-4.09,3,0
18009.718,-0.502,0.126,0.855,-2.53,-6.47,-4.49,3,0
18009.734,-0.499,0.135,0.847,-2.78,-6.65,-4.43,3,0
18009.75,-0.509,0.136,0.846,-3.42,-6.71,-3.57,3,0
18009.75,-0.506,0.131,0.847,-3.48,-6.93,-2.93,3,0
18009.765,-0.499,0.131,0.839,-2.59,-7.2,-3.02,3,0
18009.765,-0.493,0.139,0.831,-1.92,-7.48,-3.3,3,0
18009.781,-0.487,0.149,0.829,-2.17,-7.48,-3.14,3,0
18009.796,-0.487,0.149,0.827,-2.84,-6.84,-2.11,3,0
18009.796,-0.493,0.146,0.827,-3.72,-5.8,-0.24,3,0
18009.812,-0.493,0.138,0.825,-4.64,-5.58,1.43,3,0
18009.828,-0.493,0.126,0.821,-5.31,-5.77,2.11,3,0
18009.828,-0.481,0.111,0.821,-5.22,-6.1,1.8,3,0
18009.843,-0.471,0.111,0.822,-3.94,-5.68,0.85,3,0
18009.859,-0.478,0.117,0.826,-2.08,-4.88,-0.15,3,0
18009.859,-0.486,0.126,0.834,-0.89,-4.36,-0.4,3,0
18009.875,-0.496,0.136,0.836,-0.58,-4.67,0.12,3,0
18009.875,-0.493,0.131,0.835,-1.56,-5.62,1.34,3,0
18009.89,-0.479,0.122,0.834,-2.04,-6.2,2.08,3,0
18009.906,-0.478,0.117,0.829,-1.37,-5.92,2.23,3,0
18009.921,-0.481,0.115,0.823,-1.07,-5.07,2.35,3,0
18009.921,-0.475,0.11,0.824,-1.13,-4.3,2.17,3,0
18009.937,-0.482,0.116,0.829,-0.7,-3.17,1.71,3,0
18009.937,-0.488,0.119,0.836,-0.06,-2.26,1.77,3,0
18009.953,-0.484,0.122,0.845,0.61,-1.53,2.99,3,0
18009.968,-0.483,0.121,0.846,0.85,-1.16,3.88,3,0
18009.968,-0.488,0.107,0.845,0.46,-1.01,4.06,3,0
18009.984,-0.481,0.092,0.853,0.03,-1.43,3.78,3,0
18010.0,-0.475,0.088,0.863,0.7,-1.37,2.69,3,0
18010.0,-0.479,0.089,0.868,2.53,-1.22,1.1,3,0
18010.015,-0.481,0.095,0.873,3.51,-1.43,-0.21,3,0
18010.015,-0.484,0.102,0.879,3.57,-2.17,-1.37,3,0
18010.031,-0.489,0.106,0.882,3.57,-2.93,-2.08,3,0
18010.046,-0.485,0.108,0.879,3.66,-3.63,-1.89,3,0
18010.046,-0.483,0.11,0.873,3.72,-3.94,-1.5,3,0
18010.062,-0.49,0.116,0.87,3.54,-4.06,-1.13,3,0
18010.078,-0.489,0.111,0.865,2.84,-4.36,-0.27,3,0
18010.078,-0.483,0.105,0.859,1.95,-4.21,0.64,3,0
18010.093,-0.482,0.103,0.861,1.37,-3.33,0.79,3,0
18010.109,-0.482,0.1,0.869,1.59,-2.56,0.76,3,0
18010.109,-0.482,0.099,0.869,2.14,-2.11,1.04,3,0
18010.125,-0.483,0.096,0.863,1.92,-2.01,1.04,3,0
18010.125,-0.486,0.093,0.874,1.07,-2.44,0.73,3,0
18010.156,-0.484,0.086,0.873,1.04,-3.42,1.22,3,0
18010.156,-0.489,0.09,0.87,1.28,-3.75,0.7,3,0
18010.171,-0.498,0.089,0.874,1.37,-4.27,-0.21,3,0
18010.187,-0.501,0.092,0.868,1.56,-5.31,-0.64,3,0
18010.187,-0.496,0.095,0.852,1.65,-5.95,-0.92,3,0
18010.203,-0.48,0.095,0.845,1.71,-5.52,-1.19,3,0
18010.218,-0.474,0.102,0.839,1.74,-3.97,-1.5,3,0
18010.218,-0.481,0.109,0.844,1.46,-2.17,-1.8,3,0
18010.234,-0.485,0.11,0.859,1.19,-0.98,-1.53,3,0
18010.234,-0.486,0.11,0.865,0.98,-0.89,-0.92,3,0
18010.25,-0.478,0.108,0.869,0.85,-1.56,-0.79,3,0
18010.265,-0.487,0.099,0.871,1.13,-2.38,-1.62,3,0
18010.281,-0.507,0.094,0.865,1.59,-3.42,-2.66,3,0
18010.281,-0.503,0.101,0.851,1.98,-4.49,-2.75,3,0
18010.296,-0.49,0.106,0.843,1.74,-4.46,-2.04,3,0
18010.296,-0.482,0.108,0.839,0.92,-3.45,-1.22,3,0
18010.328,-0.474,0.112,0.848,1.01,-0.34,0.61,3,0
18010.343,-0.476,0.116,0.86,0.43,0.82,0.64,3,0
18010.343,-0.494,0.117,0.873,-0.03,1.16,0.61,3,0
18010.359,-0.504,0.115,0.871,-0.34,0.24,1.65,3,0
18010.359,-0.481,0.108,0.864,-1.5,-1.04,2.2,3,0
18010.375,-0.469,0.099,0.862,-1.62,-1.16,1.19,3,0
18010.375,-0.48,0.101,0.866,-0.43,-0.58,-0.06,3,0
18010.39,-0.486,0.112,0.871,0.7,-0.4,-0.4,3,0
18010.406,-0.487,0.119,0.872,1.25,-0.76,-0.06,3,0
18010.406,-0.48,0.122,0.866,0.7,-1.19,0.82,3,0
18010.421,-0.472,0.12,0.862,-0.67,-1.59,1.19,3,0
18010.437,-0.474,0.117,0.862,-1.53,-1.37,0.95,3,0
18010.453,-0.483,0.122,0.858,-1.13,-0.58,0.85,3,0
18010.453,-0.492,0.13,0.846,-0.67,0.4,1.83,3,0
18010.468,-0.492,0.139,0.841,-2.14,1.31,3.27,3,0
18010.468,-0.485,0.142,0.847,-4.55,2.5,5.19,3,0
18010.5,-0.479,0.144,0.855,-7.93,5.92,10.44,3,0
18010.5,-0.475,0.14,0.863,-9.03,7.26,12.63,3,0
18010.515,-0.482,0.128,0.874,-10.41,8.06,13.92,3,0
18010.515,-0.495,0.109,0.886,-11.17,7.54,14.25,3,0
18010.531,-0.499,0.095,0.888,-10.32,5.98,14.04,3,0
18010.546,-0.486,0.082,0.874,-8.76,3.97,12.51,3,0
18010.546,-0.472,0.078,0.867,-7.17,2.66,9.37,3,0
18010.562,-0.475,0.089,0.864,-4.94,2.14,6.13,3,0
18010.578,-0.478,0.105,0.868,-2.9,2.17,4.58,3,0
18010.578,-0.473,0.117,0.861,-2.41,2.26,4.7,3,0
18010.593,-0.474,0.117,0.864,-3.39,2.72,5.04,3,0
18010.593,-0.477,0.107,0.87,-4.52,2.99,5.55,3,0
18010.609,-0.475,0.094,0.877,-4.49,2.9,5.86,3,0
18010.625,-0.483,0.081,0.88,-3.17,2.23,5.07,3,0
18010.64,-0.49,0.074,0.878,-1.89,0.43,3.75,3,0
18010.64,-0.481,0.066,0.866,-1.43,-1.92,1.92,3,0
18010.656,-0.473,0.058,0.84,0.61,-2.35,-3.2,3,0
18010.671,-0.473,0.066,0.836,1.34,-0.95,-5.46,3,0
18010.687,-0.478,0.073,0.848,2.53,1.5,-9.06,3,0
18010.687,-0.484,0.089,0.856,2.87,1.77,-9.28,3,0
18010.703,-0.494,0.102,0.884,3.85,0.98,-8.09,3,0
18010.718,-0.497,0.107,0.892,4.49,-0.92,-6.62,3,0
18010.718,-0.486,0.127,0.879,2.78,-3.27,-6.04,3,0
18010.734,-0.485,0.108,0.885,1.19,-4.79,-6.47,3,0
18010.734,-0.482,0.109,0.88,2.38,-5.55,-6.44,3,0
18010.75,-0.479,0.119,0.866,4.03,-5.43,-6.04,3,0
18010.765,-0.483,0.119,0.861,3.3,-5.1,-5.86,3,0
18010.765,-0.484,0.116,0.861,1.74,-4.79,-5.65,3,0
18010.781,-0.487,0.113,0.864,1.31,-4.52,-5.37,3,0
18010.796,-0.487,0.116,0.866,1.62,-4.46,-4.94,3,0
18010.796,-0.488,0.118,0.868,1.95,-4.73,-4.58,3,0
18010.812,-0.482,0.12,0.874,2.35,-5.31,-4.49,3,0
18010.828,-0.475,0.118,0.872,3.14,-6.1,-4.33,3,0
18010.828,-0.47,0.123,0.873,4.0,-6.93,-4.76,3,0
18010.843,-0.472,0.132,0.874,4.79,-7.81,-5.31,3,0
18010.859,-0.476,0.142,0.872,5.95,-8.97,-5.58,3,0
18010.859,-0.475,0.15,0.865,7.23,-9.89,-4.97,3,0
18010.875,-0.47,0.155,0.854,7.14,-10.5,-3.91,3,0
18010.875,-0.474,0.144,0.842,6.62,-11.02,-2.84,3,0
18010.89,-0.474,0.128,0.836,7.78,-11.66,-2.81,3,0
18010.906,-0.472,0.12,0.827,9.74,-11.57,-2.66,3,0
18010.906,-0.467,0.124,0.821,10.47,-10.65,-2.75,3,0
18010.921,-0.464,0.122,0.826,10.86,-9.52,-3.51,3,0
18010.937,-0.462,0.127,0.835,11.41,-8.64,-3.75,3,0
18010.937,-0.464,0.136,0.842,12.18,-7.63,-3.78,3,0
18010.953,-0.463,0.143,0.845,12.54,-7.11,-2.93,3,0
18010.968,-0.466,0.146,0.839,11.72,-6.81,-1.28,3,0
18010.968,-0.471,0.133,0.839,9.83,-6.44,0.34,3,0
18010.984,-0.468,0.121,0.838,7.93,-6.41,1.56,3,0
18010.984,-0.468,0.111,0.831,7.08,-5.86,1.92,3,0
18011.0,-0.471,0.105,0.821,6.41,-4.36,2.14,3,0
18011.015,-0.465,0.086,0.826,4.85,-2.26,2.78,3,0
18011.015,-0.467,0.067,0.837,3.57,0.37,2.69,3,0
18011.031,-0.472,0.042,0.856,3.02,2.26,1.62,3,0
18011.046,-0.476,0.017,0.884,2.81,3.33,0.09,3,0
18011.046,-0.481,0.007,0.905,3.2,3.05,-2.62,3,0
18011.062,-0.482,0.029,0.913,5.13,1.4,-5.83,3,0
18011.078,-0.473,0.069,0.905,6.74,-0.4,-8.3,3,0
18011.078,-0.469,0.119,0.893,7.11,-1.28,-9.92,3,0
18011.093,-0.48,0.156,0.891,6.96,-1.25,-9.49,3,0
18011.109,-0.479,0.176,0.886,6.13,-0.85,-6.38,3,0
18011.109,-0.483,0.184,0.885,3.72,-0.15,-2.66,3,0
18011.125,-0.487,0.161,0.885,0.76,0.0,0.49,3,0
18011.14,-0.481,0.146,0.89,-0.85,0.15,3.02,3,0
18011.14,-0.48,0.148,0.879,-1.13,0.12,4.27,3,0
18011.156,-0.476,0.136,0.874,-1.95,-0.24,4.61,3,0
18011.156,-0.46,0.125,0.875,-2.84,-0.52,4.94,3,0
18011.171,-0.458,0.114,0.872,-2.81,0.09,4.64,3,0
18011.187,-0.472,0.117,0.877,-2.23,0.98,3.85,3,0
18011.187,-0.49,0.12,0.877,-1.56,0.79,2.72,3,0
18011.203,-0.489,0.122,0.872,-1.01,-0.4,1.86,3,0
18011.218,-0.479,0.133,0.863,-0.52,-1.28,1.07,3,0
18011.218,-0.48,0.142,0.848,-0.34,-0.98,0.76,3,0
18011.234,-0.471,0.143,0.845,-1.04,0.31,1.95,3,0
18011.234,-0.469,0.142,0.842,-1.5,2.2,3.51,3,0
18011.25,-0.466,0.135,0.845,-2.87,3.94,4.76,3,0
18011.265,-0.461,0.131,0.856,-4.73,5.4,5.52,3,0
18011.265,-0.475,0.124,0.863,-5.83,6.35,5.68,3,0
18011.281,-0.475,0.117,0.87,-6.29,5.98,5.86,3,0
18011.296,-0.473,0.116,0.875,-6.26,5.07,5.46,3,0
18011.296,-0.477,0.11,0.874,-5.49,3.88,4.12,3,0
18011.312,-0.474,0.107,0.875,-4.55,2.66,2.84,3,0
18011.328,-0.469,0.109,0.865,-3.02,1.83,0.98,3,0
18011.328,-0.479,0.118,0.861,-1.62,1.65,-1.04,3,0
18011.343,-0.487,0.132,0.864,-0.73,1.68,-2.41,3,0
18011.359,-0.489,0.146,0.861,0.15,1.59,-2.47,3,0
18011.359,-0.485,0.164,0.858,-0.61,1.86,-1.62,3,0
18011.375,-0.484,0.171,0.855,-2.69,2.38,-0.09,3,0
18011.375,-0.484,0.174,0.86,-4.85,2.87,2.38,3,0
18011.39,-0.489,0.182,0.862,-6.29,3.14,5.01,3,0
18011.406,-0.494,0.192,0.867,-8.3,2.93,8.09,3,0
18011.406,-0.499,0.192,0.872,-11.2,2.08,11.29,3,0
18011.421,-0.503,0.186,0.88,-14.4,0.37,14.37,3,0
18011.437,-0.5,0.174,0.886,-17.79,-1.68,16.82,3,0
18011.437,-0.499,0.162,0.894,-21.0,-4.03,18.01,3,0
18011.453,-0.509,0.171,0.899,-24.51,-6.74,18.71,3,0
18011.468,-0.518,0.178,0.901,-30.55,-10.68,20.08,3,0
18011.468,-0.521,0.161,0.905,-37.93,-15.66,21.49,3,0
18011.484,-0.529,0.155,0.909,-43.92,-20.72,24.72,3,0
18011.5,-0.522,0.138,0.906,-47.49,-24.9,30.37,3,0
18011.5,-0.494,0.134,0.892,-50.2,-27.77,36.96,3,0
18011.515,-0.468,0.124,0.871,-50.72,-28.29,43.0,3,0
18011.531,-0.459,0.134,0.872,-50.57,-26.46,49.01,3,0
18011.531,-0.463,0.13,0.873,-51.09,-24.29,55.6,3,0
18011.546,-0.441,0.096,0.861,-54.26,-23.16,60.88,3,0
18011.562,-0.409,0.06,0.857,-56.49,-20.87,63.45,3,0
18011.562,-0.393,0.03,0.86,-54.48,-17.27,63.02,3,0
18011.578,-0.382,0.016,0.843,-50.29,-13.0,60.4,3,0
18011.578,-0.4,0.008,0.88,-47.24,-8.91,57.8,3,0
18011.593,-0.402,0.016,0.894,-46.3,-6.74,55.36,3,0
18011.593,-0.421,-0.008,0.931,-43.06,-5.89,53.62,3,0
18011.609,-0.419,-0.03,0.933,-37.14,-6.59,52.0,3,0
18011.625,-0.396,-0.032,0.926,-32.93,-7.45,47.82,3,0
18011.625,-0.38,-0.057,0.912,-28.63,-8.39,40.25,3,0
18011.64,-0.372,-0.073,0.903,-23.13,-8.06,31.83,3,0
18011.656,-0.366,-0.066,0.909,-16.66,-7.35,23.29,3,0
18011.656,-0.356,-0.062,0.894,-10.13,-6.74,14.98,3,0
18011.671,-0.358,-0.046,0.884,-2.11,-2.59,1.71,3,0
18011.687,-0.37,-0.036,0.877,1.31,0.21,-2.2,3,0
18011.687,-0.387,-0.015,0.867,4.18,3.02,-5.19,3,0
18011.703,-0.422,0.028,0.853,7.39,5.62,-6.47,3,0
18011.718,-0.431,0.083,0.875,7.97,7.63,-5.16,3,0
18011.718,-0.436,0.118,0.903,5.86,7.45,-1.98,3,0
18011.734,-0.431,0.116,0.902,0.31,5.74,2.47,3,0
18011.734,-0.413,0.104,0.924,-5.28,3.72,6.5,3,0
18011.75,-0.396,0.077,0.917,-5.55,2.47,9.43,3,0
18011.765,-0.39,0.08,0.91,-3.91,2.56,11.47,3,0
18011.781,-0.409,0.09,0.894,-2.69,3.14,12.63,3,0
18011.781,-0.416,0.084,0.894,-4.82,2.66,14.28,3,0
18011.796,-0.41,0.081,0.913,-7.17,2.11,15.38,3,0
18011.796,-0.417,0.076,0.906,-6.78,1.74,16.57,3,0
18011.812,-0.396,0.07,0.902,-7.78,0.95,18.04,3,0
18011.828,-0.383,0.069,0.9,-8.64,0.76,17.03,3,0
18011.843,-0.393,0.058,0.896,-7.75,1.37,15.56,3,0
18011.843,-0.393,0.067,0.896,-8.24,2.01,15.35,3,0
18011.859,-0.407,0.076,0.905,-9.13,2.47,14.92,3,0
18011.859,-0.408,0.059,0.903,-9.31,2.59,15.26,3,0
18011.875,-0.394,0.059,0.915,-10.13,2.29,14.8,3,0
18011.89,-0.377,0.039,0.911,-8.82,2.14,12.02,3,0
18011.89,-0.388,0.047,0.914,-6.62,2.53,7.78,3,0
18011.906,-0.393,0.044,0.916,-4.76,2.17,4.21,3,0
18011.906,-0.407,0.065,0.913,-3.63,1.83,1.65,3,0
18011.921,-0.431,0.075,0.914,-3.23,1.53,1.16,3,0
18011.937,-0.421,0.073,0.906,-4.88,-0.18,1.89,3,0
18011.937,-0.403,0.055,0.9,-6.01,-1.22,0.85,3,0
18011.953,-0.417,0.044,0.899,-4.39,-0.98,-0.95,3,0
18011.968,-0.414,0.049,0.895,-2.84,-1.4,-1.8,3,0
18011.968,-0.403,0.035,0.887,-2.99,-2.01,-3.66,3,0
18011.984,-0.393,0.007,0.864,-2.47,-1.98,-7.63,3,0
18011.984,-0.402,0.003,0.868,-0.24,-1.19,-13.15,3,0
18012.0,-0.402,-0.009,0.827,2.17,-0.61,-19.75,3,0
18012.015,-0.415,-0.009,0.82,3.91,1.13,-27.56,3,0
18012.031,-0.435,0.005,0.818,6.5,3.48,-33.91,3,0
18012.031,-0.459,0.054,0.831,7.84,6.26,-37.6,3,0
18012.046,-0.487,0.094,0.842,7.81,8.06,-37.72,3,0
18012.046,-0.481,0.135,0.851,5.28,8.7,-33.33,3,0
18012.062,-0.47,0.176,0.877,2.62,8.94,-26.18,3,0
18012.078,-0.454,0.18,0.872,0.43,8.58,-17.24,3,0
18012.078,-0.423,0.171,0.866,-3.45,8.91,-7.9,3,0
18012.093,-0.404,0.143,0.876,-6.47,10.47,-1.68,3,0
18012.109,-0.412,0.112,0.89,-7.17,12.18,1.98,3,0
18012.109,-0.417,0.095,0.907,-6.41,12.76,4.27,3,0
18012.125,-0.427,0.077,0.924,-5.01,11.78,4.73,3,0
18012.125,-0.442,0.058,0.946,-3.54,9.37,3.51,3,0
18012.14,-0.441,0.055,0.948,-1.07,5.83,1.77,3,0
18012.156,-0.438,0.067,0.954,1.92,2.38,-0.06,3,0
18012.156,-0.443,0.084,0.951,5.04,-0.89,-1.46,3,0
18012.171,-0.447,0.105,0.939,6.38,-3.88,-1.16,3,0
18012.187,-0.44,0.103,0.925,6.2,-6.1,0.76,3,0
18012.187,-0.445,0.1,0.915,6.23,-7.26,3.02,3,0
18012.203,-0.459,0.093,0.9,6.84,-7.26,5.92,3,0
18012.218,-0.448,0.08,0.875,6.13,-6.93,8.97,3,0
18012.218,-0.432,0.068,0.873,4.55,-5.92,10.83,3,0
18012.234,-0.442,0.056,0.871,3.85,-4.15,11.47,3,0
18012.234,-0.455,0.05,0.871,3.48,-2.78,12.21,3,0
18012.25,-0.454,0.044,0.875,2.23,-2.11,13.58,3,0
18012.265,-0.441,0.03,0.885,0.64,-2.04,13.98,3,0
18012.265,-0.448,0.017,0.9,1.46,-2.04,12.79,3,0
18012.281,-0.452,0.011,0.897,3.3,-3.05,11.41,3,0
18012.296,-0.435,0.017,0.898,4.06,-4.79,9.06,3,0
18012.296,-0.436,0.026,0.898,5.1,-6.04,5.95,3,0
18012.312,-0.437,0.037,0.894,6.23,-7.02,4.58,3,0
18012.328,-0.436,0.052,0.892,6.71,-7.29,4.58,3,0
18012.328,-0.456,0.055,0.885,6.78,-7.17,4.91,3,0
18012.343,-0.47,0.045,0.875,4.76,-6.9,6.71,3,0
18012.359,-0.465,0.002,0.868,0.95,-6.1,8.24,3,0
18012.375,-0.478,-0.147,0.894,-0.49,-0.58,6.26,3,0
18012.375,-0.474,-0.146,0.901,0.46,1.34,2.26,3,0
18012.39,-0.469,-0.116,0.906,1.92,2.29,-3.42,3,0
18012.406,-0.447,-0.053,0.917,2.11,1.77,-9.28,3,0
18012.406,-0.443,-0.007,0.944,3.85,0.34,-14.95,3,0
18012.421,-0.435,0.031,0.946,6.93,-2.01,-18.31,3,0
18012.437,-0.431,0.036,0.947,8.21,-4.91,-21.21,3,0
18012.437,-0.43,0.01,0.94,9.09,-7.93,-25.39,3,0
18012.453,-0.423,0.008,0.911,11.47,-10.53,-30.64,3,0
18012.468,-0.419,0.023,0.886,13.58,-11.6,-36.87,3,0
18012.468,-0.451,0.06,0.881,14.98,-10.86,-41.38,3,0
18012.484,-0.484,0.105,0.875,15.44,-10.32,-40.83,3,0
18012.484,-0.486,0.141,0.855,13.79,-10.86,-35.86,3,0
18012.5,-0.473,0.175,0.831,10.96,-10.25,-27.92,3,0
18012.515,-0.457,0.182,0.801,6.29,-7.39,-18.43,3,0
18012.515,-0.428,0.169,0.795,0.85,-2.66,-8.82,3,0
18012.531,-0.427,0.151,0.808,-1.98,3.81,-0.98,3,0
18012.546,-0.439,0.129,0.839,-4.09,9.46,4.91,3,0
18012.546,-0.44,0.096,0.875,-6.32,12.33,8.58,3,0
18012.562,-0.435,0.064,0.899,-6.84,12.97,9.77,3,0
18012.578,-0.437,0.047,0.922,-5.25,12.27,8.94,3,0
18012.578,-0.434,0.035,0.932,-3.42,9.86,6.65,3,0
18012.593,-0.435,0.039,0.931,-1.74,6.96,2.99,3,0
18012.609,-0.441,0.045,0.926,-0.09,4.24,-0.46,3,0
18012.609,-0.434,0.053,0.914,1.19,2.23,-2.93,3,0
18012.625,-0.43,0.062,0.901,2.56,1.22,-4.46,3,0
18012.625,-0.43,0.073,0.896,3.81,1.46,-4.97,3,0
18012.64,-0.432,0.083,0.895,4.58,2.08,-4.55,3,0
18012.656,-0.437,0.088,0.893,3.57,2.96,-2.62,3,0
18012.656,-0.442,0.079,0.893,2.81,3.2,-2.01,3,0
18012.671,-0.45,0.064,0.895,2.78,3.02,-1.86,3,0
18012.687,-0.46,0.041,0.898,2.81,2.53,-2.32,3,0
18012.687,-0.433,-0.015,0.896,3.33,2.44,-4.3,3,0
18012.718,-0.466,0.004,0.928,7.26,3.11,-10.01,3,0
18012.718,-0.482,0.036,0.92,6.47,1.28,-9.8,3,0
18012.734,-0.47,0.045,0.902,3.48,-1.01,-8.64,3,0
18012.734,-0.456,0.038,0.88,2.11,-1.28,-7.32,3,0
18012.75,-0.442,0.046,0.859,2.26,0.46,-5.65,3,0
18012.765,-0.441,0.059,0.852,2.08,3.57,-4.33,3,0
18012.765,-0.444,0.053,0.862,0.85,6.5,-3.11,3,0
18012.781,-0.44,0.046,0.881,0.61,8.42,-2.01,3,0
18012.796,-0.439,0.043,0.894,1.62,9.09,-1.89,3,0
18012.812,-0.441,0.033,0.894,2.29,8.88,-2.62,3,0
18012.812,-0.436,0.018,0.896,2.72,8.45,-4.09,3,0
18012.828,-0.428,-0.001,0.897,4.06,7.97,-6.9,3,0
18012.828,-0.422,-0.021,0.895,7.51,7.9,-10.71,3,0
18012.843,-0.427,-0.024,0.893,13.06,8.82,-15.23,3,0
18012.859,-0.449,0.011,0.868,19.53,9.06,-20.08,3,0
18012.859,-0.457,0.039,0.823,21.45,8.48,-24.23,3,0
18012.875,-0.492,0.083,0.826,13.64,8.51,-24.51,3,0
18012.89,-0.517,0.112,0.843,8.97,8.06,-21.79,3,0
18012.906,-0.53,0.108,0.855,6.26,6.04,-18.04,3,0
18012.921,-0.521,0.104,0.852,6.38,3.45,-14.1,3,0
18012.921,-0.499,0.105,0.837,7.26,2.17,-10.32,3,0
18012.937,-0.486,0.11,0.84,7.05,2.81,-7.54,3,0
18012.937,-0.488,0.108,0.846,5.89,4.18,-5.01,3,0
18012.953,-0.485,0.108,0.863,3.88,5.58,-2.35,3,0
18012.968,-0.488,0.099,0.885,2.17,6.35,-0.24,3,0
18012.968,-0.475,0.08,0.907,1.77,5.25,1.59,3,0
18012.984,-0.452,0.065,0.916,1.92,2.75,2.35,3,0
18013.0,-0.451,0.056,0.915,2.9,0.12,1.28,3,0
18013.0,-0.454,0.053,0.901,3.94,-2.69,0.09,3,0
18013.015,-0.439,0.059,0.885,3.94,-5.16,-0.61,3,0
18013.015,-0.428,0.049,0.865,3.39,-5.65,-1.71,3,0
18013.031,-0.42,0.042,0.854,3.36,-3.88,-2.44,3,0
18013.062,-0.412,0.037,0.847,5.28,3.81,-2.47,3,0
18013.062,-0.417,0.042,0.854,5.86,8.88,-1.1,3,0
18013.078,-0.423,0.05,0.863,5.34,13.61,1.07,3,0
18013.078,-0.428,0.063,0.883,2.84,17.27,3.78,3,0
18013.093,-0.447,0.082,0.928,-0.58,18.77,6.62,3,0
18013.109,-0.478,0.096,0.954,-2.72,17.3,10.01,3,0
18013.109,-0.482,0.119,0.946,-5.37,12.79,14.71,3,0
18013.125,-0.463,0.12,0.918,-11.14,7.75,17.88,3,0
18013.125,-0.445,0.088,0.914,-13.52,4.39,18.22,3,0
18013.14,-0.447,0.098,0.92,-7.9,3.97,18.22,3,0
18013.156,-0.449,0.13,0.926,-1.71,4.12,18.62,3,0
18013.171,-0.461,0.157,0.935,0.27,3.75,20.02,3,0
18013.171,-0.487,0.161,0.933,-1.62,1.95,23.44,3,0
18013.187,-0.495,0.136,0.918,-5.07,-1.65,27.68,3,0
18013.187,-0.486,0.095,0.889,-6.56,-5.19,30.15,3,0
18013.203,-0.49,0.058,0.855,-5.25,-6.04,30.79,3,0
18013.218,-0.476,0.04,0.796,-0.27,-1.98,26.46,3,0
18013.234,-0.476,0.047,0.788,2.14,2.47,21.73,3,0
18013.25,-0.478,0.072,0.8,4.52,7.08,17.76,3,0
18013.25,-0.484,0.108,0.822,6.87,10.86,15.99,3,0
18013.265,-0.504,0.144,0.84,7.51,13.28,17.46,3,0
18013.281,-0.535,0.15,0.823,3.81,14.04,22.68,3,0
18013.281,-0.527,0.128,0.801,-2.78,14.07,29.73,3,0
18013.296,-0.499,0.086,0.774,-8.64,16.17,35.04,3,0
18013.296,-0.483,0.048,0.767,-13.12,21.18,36.62,3,0
18013.312,-0.478,0.024,0.787,-15.38,27.28,34.3,3,0
18013.328,-0.492,0.022,0.83,-14.25,32.84,29.6,3,0
18013.328,-0.529,0.031,0.87,-11.96,36.16,24.32,3,0
18013.343,-0.544,0.043,0.895,-10.62,35.55,19.07,3,0
18013.359,-0.54,0.06,0.908,-9.31,32.59,13.67,3,0
18013.359,-0.536,0.086,0.901,-7.78,29.11,9.0,3,0
18013.375,-0.512,0.103,0.905,-7.35,25.79,5.89,3,0
18013.39,-0.51,0.143,0.902,-6.47,23.29,2.96,3,0
18013.406,-0.52,0.149,0.895,-7.08,21.55,3.63,3,0
18013.406,-0.514,0.137,0.878,-8.73,18.83,3.88,3,0
18013.421,-0.508,0.112,0.864,-9.95,16.3,2.38,3,0
18013.437,-0.512,0.094,0.857,-8.79,14.68,-0.52,3,0
18013.437,-0.52,0.091,0.86,-5.62,13.15,-4.58,3,0
18013.453,-0.528,0.096,0.866,-1.59,10.38,-9.13,3,0
18013.468,-0.545,0.112,0.862,1.83,6.65,-13.18,3,0
18013.468,-0.559,0.119,0.863,4.58,2.17,-16.45,3,0
18013.484,-0.578,0.118,0.843,7.05,-2.5,-18.43,3,0
18013.484,-0.582,0.121,0.808,8.21,-6.13,-19.14,3,0
18013.5,-0.58,0.124,0.793,8.55,-7.84,-19.17,3,0
18013.515,-0.577,0.125,0.778,7.81,-7.9,-17.64,3,0
18013.515,-0.563,0.127,0.765,5.74,-6.84,-15.44,3,0
18013.531,-0.553,0.123,0.764,4.15,-5.28,-13.58,3,0
18013.546,-0.551,0.12,0.772,3.51,-3.85,-11.9,3,0
18013.562,-0.548,0.093,0.787,2.75,-3.94,-9.34,3,0
18013.578,-0.554,0.077,0.793,3.42,-4.46,-9.28,3,0
18013.578,-0.571,0.066,0.796,4.33,-5.31,-10.1,3,0
18013.593,-0.57,0.06,0.797,4.88,-6.99,-11.35,3,0
18013.609,-0.571,0.06,0.796,5.71,-7.97,-12.91,3,0
18013.609,-0.582,0.062,0.8,6.59,-8.24,-13.92,3,0
18013.625,-0.578,0.073,0.802,6.62,-8.51,-13.61,3,0
18013.625,-0.565,0.078,0.804,5.65,-8.64,-12.05,3,0
18013.64,-0.541,0.074,0.807,2.08,-8.0,-4.12,3,0
18013.656,-0.524,0.063,0.817,-0.7,-7.11,0.09,3,0
18013.671,-0.518,0.045,0.832,-3.11,-6.87,2.35,3,0
18013.671,-0.543,0.004,0.877,-3.42,-8.27,3.11,3,0
18013.687,-0.549,-0.008,0.888,-1.74,-10.83,3.02,3,0
18013.687,-0.547,-0.007,0.884,-0.4,-13.73,1.34,3,0
18013.703,-0.544,-0.012,0.872,-0.21,-15.84,-1.62,3,0
18013.718,-0.54,-0.015,0.866,-0.79,-16.39,-4.7,3,0
18013.734,-0.543,-0.001,0.89,-0.79,-15.14,-8.64,3,0
18013.734,-0.549,0.018,0.909,0.21,-15.47,-9.95,3,0
18013.75,-0.546,0.043,0.927,1.13,-17.58,-10.71,3,0
18013.765,-0.541,0.066,0.933,2.81,-20.66,-11.47,3,0
18013.781,-0.538,0.082,0.922,4.55,-23.96,-11.32,3,0
18013.781,-0.533,0.083,0.899,4.52,-26.7,-8.91,3,0
18013.796,-0.538,0.072,0.853,2.17,-27.53,-6.2,3,0
18013.796,-0.532,0.039,0.817,-1.8,-27.04,-4.82,3,0
18013.812,-0.527,0.018,0.819,-4.43,-24.9,-5.68,3,0
18013.828,-0.531,0.031,0.814,-4.09,-21.97,-8.39,3,0
18013.843,-0.529,0.034,0.828,-1.65,-18.65,-10.86,3,0
18013.843,-0.531,0.058,0.852,-0.49,-15.69,-12.94,3,0
18013.859,-0.537,0.083,0.87,-0.55,-13.06,-14.44,3,0
18013.859,-0.538,0.102,0.881,-0.89,-11.23,-14.07,3,0
18013.875,-0.516,0.125,0.892,-2.01,-10.1,-11.05,3,0
18013.89,-0.511,0.141,0.895,-4.06,-9.31,-6.96,3,0
18013.906,-0.469,0.095,0.871,-10.86,-10.25,1.19,3,0
18013.906,-0.441,0.073,0.861,-12.15,-9.49,3.02,3,0
18013.921,-0.42,0.061,0.856,-11.78,-8.09,2.62,3,0
18013.937,-0.411,0.059,0.86,-9.74,-6.1,0.61,3,0
18013.953,-0.401,0.052,0.874,-6.13,-4.3,-2.04,3,0
18013.953,-0.419,0.06,0.905,-1.07,-2.93,-4.03,3,0
18013.968,-0.425,0.057,0.906,4.12,-3.51,-4.97,3,0
18013.968,-0.446,0.064,0.864,9.34,-2.72,-4.61,3,0
18013.984,-0.488,0.095,0.879,10.9,-1.71,-2.75,3,0
18014.0,-0.523,0.119,0.902,8.73,-5.58,-0.18,3,0
18014.0,-0.509,0.134,0.882,3.2,-12.27,2.44,3,0
18014.015,-0.499,0.116,0.889,-2.56,-18.01,4.85,3,0
18014.015,-0.459,0.09,0.864,-6.04,-22.37,6.81,3,0
18014.031,-0.43,0.068,0.851,-5.89,-23.62,6.68,3,0
18014.046,-0.419,0.056,0.814,-2.78,-22.06,5.34,3,0
18014.046,-0.427,0.052,0.767,1.31,-18.13,3.45,3,0
18014.078,-0.435,0.057,0.728,3.42,-5.4,-0.34,3,0
18014.078,-0.471,0.064,0.753,2.23,2.08,-0.79,3,0
18014.093,-0.513,0.073,0.8,0.98,7.42,0.55,3,0
18014.109,-0.554,0.081,0.837,0.55,8.73,2.69,3,0
18014.109,-0.557,0.083,0.853,-0.95,4.24,4.46,3,0
18014.125,-0.519,0.069,0.849,-2.62,-2.81,3.42,3,0
18014.125,-0.503,0.055,0.856,-1.83,-7.57,-0.7,3,0
18014.14,-0.482,0.045,0.856,1.62,-10.19,-5.28,3,0
18014.156,-0.476,0.066,0.856,6.29,-10.35,-9.43,3,0
18014.156,-0.482,0.075,0.856,10.01,-9.28,-12.48,3,0
18014.171,-0.488,0.086,0.848,11.51,-8.94,-14.19,3,0
18014.187,-0.499,0.101,0.846,12.02,-9.58,-15.78,3,0
18014.203,-0.507,0.105,0.85,12.67,-10.28,-16.66,3,0
18014.203,-0.5,0.106,0.85,13.58,-11.14,-16.45,3,0
18014.218,-0.492,0.106,0.842,15.32,-11.14,-16.42,3,0
18014.218,-0.486,0.1,0.832,17.76,-11.17,-16.69,3,0
18014.25,-0.487,0.114,0.809,25.12,-10.65,-17.98,3,0
18014.25,-0.472,0.133,0.801,27.86,-9.28,-16.85,3,0
18014.265,-0.46,0.156,0.791,27.92,-5.37,-14.92,3,0
18014.265,-0.468,0.172,0.795,25.33,0.76,-11.99,3,0
18014.281,-0.481,0.184,0.817,22.19,7.29,-8.42,3,0
18014.296,-0.48,0.178,0.84,20.05,13.06,-3.17,3,0
18014.296,-0.473,0.183,0.844,16.57,17.76,3.33,3,0
18014.312,-0.446,0.159,0.848,12.3,20.2,8.33,3,0
18014.328,-0.432,0.137,0.856,8.97,21.88,12.09,3,0
18014.343,-0.431,0.12,0.862,7.39,22.74,14.44,3,0
18014.343,-0.455,0.113,0.869,7.9,23.1,16.17,3,0
18014.359,-0.484,0.104,0.863,8.79,22.58,18.37,3,0
18014.359,-0.49,0.106,0.852,7.17,22.1,21.36,3,0
18014.375,-0.489,0.09,0.852,3.02,22.4,22.98,3,0
18014.39,-0.497,0.063,0.854,-0.67,22.83,23.07,3,0
18014.39,-0.496,0.035,0.861,-1.95,23.5,22.34,3,0
18014.406,-0.482,0.035,0.874,-1.13,24.54,20.11,3,0
18014.406,-0.478,0.042,0.885,0.92,26.18,16.57,3,0
18014.421,-0.474,0.056,0.906,1.62,27.25,12.76,3,0
18014.437,-0.475,0.079,0.942,2.9,26.15,9.25,3,0
18014.437,-0.484,0.098,0.955,5.31,22.61,8.45,3,0
18014.453,-0.471,0.103,0.949,4.49,17.24,9.58,3,0
18014.468,-0.454,0.092,0.933,2.23,11.93,8.64,3,0
18014.468,-0.457,0.073,0.929,2.29,8.21,6.16,3,0
18014.484,-0.469,0.092,0.931,4.91,5.28,3.54,3,0
18014.5,-0.501,0.117,0.918,8.15,1.56,1.86,3,0
18014.5,-0.494,0.125,0.907,8.3,-3.94,2.38,3,0
18014.515,-0.477,0.133,0.871,6.78,-9.0,2.08,3,0
18014.515,-0.466,0.136,0.845,5.31,-12.88,0.18,3,0
18014.531,-0.453,0.142,0.821,4.46,-15.02,-1.53,3,0
18014.546,-0.455,0.15,0.798,3.97,-13.76,-1.68,3,0
18014.562,-0.465,0.159,0.806,3.57,-9.13,0.12,3,0
18014.562,-0.483,0.16,0.816,3.91,-2.96,3.3,3,0
18014.578,-0.488,0.159,0.832,4.58,3.45,7.35,3,0
18014.578,-0.496,0.177,0.86,4.82,9.16,9.86,3,0
18014.593,-0.514,0.162,0.871,6.01,12.85,11.23,3,0
18014.609,-0.509,0.156,0.876,6.47,13.09,11.44,3,0
18014.609,-0.482,0.148,0.864,8.64,12.73,9.61,3,0
18014.625,-0.466,0.15,0.836,14.95,20.05,4.09,3,0
18014.625,-0.455,0.172,0.816,16.27,25.64,1.92,3,0
18014.64,-0.48,0.183,0.829,18.77,31.07,2.96,3,0
18014.656,-0.515,0.21,0.839,19.17,35.46,8.09,3,0
18014.671,-0.573,0.244,0.859,15.47,36.84,14.31,3,0
18014.671,-0.59,0.177,0.872,13.49,36.68,19.5,3,0
18014.687,-0.598,0.135,0.885,11.2,35.37,22.71,3,0
18014.687,-0.58,0.1,0.9,8.82,32.69,23.26,3,0
18014.703,-0.534,0.061,0.884,6.07,28.93,20.05,3,0
18014.718,-0.513,0.047,0.896,5.55,27.16,16.02,3,0
18014.718,-0.491,0.047,0.894,5.92,25.61,11.63,3,0
18014.734,-0.496,0.071,0.894,6.44,25.06,7.48,3,0
18014.734,-0.496,0.109,0.887,4.73,23.56,5.16,3,0
18014.75,-0.521,0.15,0.899,0.27,21.27,5.19,3,0
18014.765,-0.526,0.176,0.867,-5.98,17.94,8.76,3,0
18014.765,-0.524,0.187,0.83,-12.24,14.95,13.09,3,0
18014.781,-0.512,0.191,0.809,-17.21,12.57,16.27,3,0
18014.796,-0.505,0.178,0.775,-21.27,11.44,19.01,3,0
18014.812,-0.485,0.165,0.736,-24.66,12.6,21.73,3,0
18014.812,-0.483,0.147,0.733,-27.25,15.9,23.19,3,0
18014.828,-0.468,0.12,0.726,-28.78,19.84,22.83,3,0
18014.828,-0.48,0.108,0.766,-28.78,25.12,19.17,3,0
18014.843,-0.516,0.113,0.807,-26.92,28.81,13.34,3,0
18014.859,-0.555,0.142,0.823,-23.35,29.36,6.26,3,0
18014.859,-0.608,0.176,0.857,-19.23,25.36,-0.15,3,0
18014.875,-0.613,0.212,0.854,-16.3,17.76,-4.21,3,0
18014.89,-0.602,0.247,0.851,-14.13,11.11,-6.13,3,0
18014.89,-0.572,0.271,0.827,-14.07,6.62,-5.8,3,0
18014.906,-0.562,0.274,0.822,-16.27,5.4,-2.08,3,0
18014.906,-0.552,0.255,0.8,-18.8,6.87,3.75,3,0
18014.921,-0.565,0.25,0.8,-21.21,10.65,8.97,3,0
18014.937,-0.586,0.209,0.799,-22.19,13.03,12.42,3,0
18014.937,-0.605,0.192,0.806,-22.37,13.55,14.01,3,0
18014.953,-0.615,0.175,0.803,-21.55,12.24,13.28,3,0
18014.968,-0.604,0.144,0.795,-20.72,9.7,11.08,3,0
18014.968,-0.584,0.124,0.791,-19.07,8.33,8.3,3,0
18014.984,-0.569,0.11,0.781,-16.82,9.03,5.8,3,0
18015.0,-0.567,0.107,0.779,-14.68,9.89,2.78,3,0
18015.0,-0.562,0.098,0.783,-10.56,10.99,-0.85,3,0
18015.015,-0.572,0.113,0.806,-3.33,12.88,-4.06,3,0
18015.015,-0.597,0.134,0.813,5.49,14.07,-6.32,3,0
18015.031,-0.623,0.168,0.815,12.48,13.79,-6.68,3,0
18015.046,-0.636,0.197,0.822,14.74,11.87,-4.73,3,0
18015.046,-0.659,0.22,0.819,13.58,9.22,-1.22,3,0
18015.062,-0.657,0.231,0.813,7.93,5.74,5.46,3,0
18015.078,-0.625,0.206,0.808,-0.09,2.29,12.97,3,0
18015.078,-0.588,0.157,0.796,-6.96,-0.49,18.49,3,0
18015.093,-0.587,0.107,0.777,-9.22,-1.19,21.18,3,0
18015.109,-0.594,0.084,0.759,-10.96,-2.01,21.73,3,0
18015.109,-0.605,0.051,0.738,-12.18,-3.23,19.71,3,0
18015.125,-0.619,0.032,0.736,-14.44,-4.49,16.3,3,0
18015.125,-0.622,0.022,0.733,-15.78,-6.2,11.84,3,0
18015.14,-0.627,0.02,0.731,-14.07,-6.62,8.09,3,0
18015.156,-0.642,0.047,0.735,-11.78,-6.59,5.52,3,0
18015.156,-0.642,0.07,0.729,-10.93,-7.2,4.46,3,0
18015.171,-0.626,0.089,0.729,-12.39,-8.15,4.88,3,0
18015.187,-0.625,0.108,0.733,-14.8,-8.79,5.13,3,0
18015.187,-0.646,0.117,0.733,-16.51,-9.09,6.13,3,0
18015.203,-0.631,0.117,0.737,-18.65,-10.04,9.4,3,0
18015.218,-0.606,0.115,0.724,-20.26,-9.89,11.38,3,0
18015.218,-0.597,0.096,0.715,-21.09,-8.33,11.11,3,0
18015.234,-0.583,0.076,0.727,-22.03,-6.1,9.49,3,0
18015.25,-0.585,0.081,0.754,-21.21,-3.72,6.01,3,0
18015.25,-0.627,0.113,0.77,-18.49,-3.42,1.83,3,0
18015.265,-0.644,0.132,0.781,-16.97,-5.65,-0.27,3,0
18015.265,-0.628,0.144,0.793,-17.27,-9.0,-1.16,3,0
18015.281,-0.592,0.147,0.782,-17.58,-11.32,-2.23,3,0
18015.296,-0.573,0.134,0.783,-15.96,-10.62,-3.36,3,0
18015.296,-0.551,0.134,0.778,-13.52,-8.7,-4.46,3,0
18015.312,-0.552,0.169,0.773,-10.59,-5.83,-5.8,3,0
18015.328,-0.586,0.194,0.779,-8.51,-4.21,-5.46,3,0
18015.328,-0.591,0.192,0.785,-9.61,-5.31,-1.71,3,0
18015.343,-0.574,0.169,0.764,-11.41,-7.26,2.62,3,0
18015.359,-0.577,0.137,0.761,-12.67,-7.54,5.34,3,0
18015.359,-0.584,0.105,0.75,-12.76,-7.32,6.44,3,0
18015.375,-0.579,0.085,0.728,-11.29,-6.16,4.79,3,0
18015.375,-0.589,0.093,0.75,-8.24,-5.01,1.8,3,0
18015.39,-0.582,0.08,0.739,-3.2,-4.85,-0.95,3,0
18015.406,-0.58,0.116,0.753,2.23,-3.72,-3.88,3,0
18015.406,-0.576,0.122,0.76,10.5,-2.87,-5.65,3,0
18015.421,-0.572,0.168,0.773,16.79,-2.04,-5.52,3,0
18015.437,-0.566,0.193,0.763,18.83,-2.17,-4.39,3,0
18015.437,-0.577,0.207,0.769,16.75,-2.66,-2.9,3,0
18015.453,-0.567,0.189,0.772,12.94,-4.21,-0.37,3,0
18015.468,-0.561,0.177,0.766,10.35,-5.1,1.5,3,0
18015.468,-0.551,0.162,0.765,8.39,-5.83,1.8,3,0
18015.484,-0.529,0.148,0.772,6.65,-6.71,0.67,3,0
18015.5,-0.519,0.14,0.784,6.13,-7.17,-1.37,3,0
18015.5,-0.532,0.139,0.796,5.83,-7.35,-3.33,3,0
18015.515,-0.547,0.152,0.811,3.88,-9.19,-4.76,3,0
18015.515,-0.566,0.148,0.818,2.56,-12.82,-6.56,3,0
18015.531,-0.573,0.128,0.807,3.69,-17.15,-7.08,3,0
18015.546,-0.568,0.128,0.782,6.04,-20.6,-5.68,3,0
18015.546,-0.547,0.119,0.749,7.35,-22.06,-4.64,3,0
18015.562,-0.55,0.121,0.74,7.26,-21.3,-5.31,3,0
18015.578,-0.58,0.122,0.743,8.15,-19.65,-6.1,3,0
18015.578,-0.58,0.118,0.736,9.31,-18.25,-5.13,3,0
18015.593,-0.57,0.115,0.729,10.53,-15.87,-4.64,3,0
18015.609,-0.572,0.107,0.736,12.88,-8.33,-5.07,3,0
18015.609,-0.577,0.106,0.747,13.7,-5.46,-6.29,3,0
18015.625,-0.571,0.108,0.749,14.47,-2.81,-8.09,3,0
18015.625,-0.593,0.14,0.782,14.95,-2.93,-7.57,3,0
18015.64,-0.608,0.17,0.828,14.25,-5.46,-3.72,3,0
18015.656,-0.578,0.171,0.812,12.63,-7.11,-0.27,3,0
18015.656,-0.571,0.163,0.81,9.22,-7.32,1.83,3,0
18015.671,-0.573,0.142,0.813,5.77,-6.71,3.42,3,0
18015.687,-0.566,0.118,0.807,5.83,-4.97,4.67,3,0
18015.687,-0.564,0.123,0.803,8.27,-2.2,4.49,3,0
18015.703,-0.578,0.136,0.811,9.89,1.01,3.27,3,0
18015.718,-0.583,0.147,0.822,9.19,2.84,2.01,3,0
18015.718,-0.6,0.16,0.847,9.13,3.81,0.52,3,0
18015.734,-0.639,0.17,0.858,10.86,3.54,0.64,3,0
18015.75,-0.65,0.185,0.866,11.23,1.19,2.99,3,0
18015.75,-0.637,0.189,0.84,11.11,-1.74,6.01,3,0
18015.765,-0.614,0.189,0.808,9.28,-3.11,9.28,3,0
18015.765,-0.59,0.19,0.79,6.47,-2.56,12.12,3,0
18015.781,-0.57,0.176,0.788,3.2,-0.46,15.35,3,0
18015.796,-0.556,0.162,0.799,0.03,2.93,18.83,3,0
18015.796,-0.559,0.145,0.815,-2.62,6.26,21.55,3,0
18015.812,-0.565,0.121,0.847,-5.25,7.97,22.8,3,0
18015.828,-0.584,0.103,0.882,-6.9,7.23,22.34,3,0
18015.828,-0.589,0.084,0.908,-8.27,3.2,20.08,3,0
18015.843,-0.58,0.068,0.912,-7.42,-2.62,15.59,3,0
18015.859,-0.572,0.067,0.899,-4.3,-7.81,9.67,3,0
18015.859,-0.572,0.076,0.888,-1.16,-11.6,3.78,3,0
18015.875,-0.576,0.084,0.861,0.55,-14.71,-1.37,3,0
18015.875,-0.589,0.1,0.851,0.76,-17.49,-6.41,3,0
18015.89,-0.608,0.114,0.841,1.77,-20.02,-9.89,3,0
18015.906,-0.608,0.124,0.843,3.02,-23.13,-11.38,3,0
18015.906,-0.607,0.147,0.837,5.01,-25.91,-11.81,3,0
18015.921,-0.611,0.167,0.828,6.84,-28.14,-10.71,3,0
18015.937,-0.593,0.176,0.823,8.51,-30.15,-7.78,3,0
18015.937,-0.573,0.189,0.791,11.47,-30.24,-3.3,3,0
18015.953,-0.556,0.209,0.763,12.63,-27.95,2.08,3,0
18015.968,-0.529,0.216,0.75,10.35,-24.57,7.54,3,0
18015.968,-0.505,0.215,0.738,6.87,-19.9,12.63,3,0
18015.984,-0.503,0.213,0.75,2.59,-14.5,17.15,3,0
18015.984,-0.511,0.196,0.771,-0.24,-9.83,21.85,3,0
18016.0,-0.502,0.191,0.796,-2.53,-7.02,26.95,3,0
18016.015,-0.478,0.174,0.815,-4.97,-6.1,30.7,3,0
18016.015,-0.435,0.131,0.808,-7.08,-6.38,31.62,3,0
18016.031,-0.402,0.102,0.807,-7.45,-5.43,28.75,3,0
18016.046,-0.39,0.077,0.802,-5.77,-2.84,23.8,3,0
18016.046,-0.393,0.062,0.815,-4.15,0.15,17.7,3,0
18016.062,-0.412,0.063,0.823,-1.71,2.78,10.99,3,0
18016.078,-0.437,0.081,0.843,-0.58,3.88,5.25,3,0
18016.078,-0.45,0.106,0.871,-1.28,2.47,-0.58,3,0
18016.093,-0.458,0.115,0.875,-2.32,0.03,-5.22,3,0
18016.109,-0.437,0.119,0.909,-3.57,-2.53,-7.93,3,0
18016.109,-0.444,0.125,0.925,-0.92,-4.33,-10.83,3,0
18016.125,-0.441,0.147,0.916,0.52,-6.35,-11.99,3,0
18016.125,-0.403,0.154,0.912,-2.78,-7.42,-14.13,3,0
18016.14,-0.399,0.14,0.908,-4.94,-6.41,-19.17,3,0
18016.156,-0.412,0.155,0.908,-5.13,-4.64,-23.9,3,0
18016.156,-0.414,0.16,0.91,-6.38,-3.2,-27.74,3,0
18016.171,-0.421,0.147,0.919,-6.93,-1.5,-31.8,3,0
18016.187,-0.434,0.143,0.941,-5.62,-1.01,-35.43,3,0
18016.187,-0.431,0.139,0.941,-3.57,-2.81,-39.49,3,0
18016.203,-0.406,0.128,0.917,-2.53,-5.8,-44.22,3,0
18016.218,-0.392,0.132,0.929,-3.69,-7.75,-50.57,3,0
18016.218,-0.443,0.15,1.005,-4.21,-10.22,-57.34,3,0
18016.234,-0.534,0.188,1.027,-1.56,-17.18,-61.56,3,0
18016.25,-0.586,0.22,0.991,3.69,-27.41,-60.55,3,0
18016.25,-0.57,0.237,0.919,6.9,-36.5,-52.46,3,0
18016.265,-0.514,0.247,0.839,5.55,-40.71,-42.63,3,0
18016.265,-0.488,0.237,0.787,1.25,-38.24,-33.27,3,0
18016.281,-0.48,0.205,0.767,-3.81,-32.14,-24.23,3,0
18016.296,-0.483,0.178,0.798,-6.81,-25.51,-17.91,3,0
18016.296,-0.501,0.144,0.83,-5.74,-21.3,-14.5,3,0
18016.312,-0.506,0.126,0.856,-3.51,-20.72,-13.52,3,0
18016.328,-0.5,0.118,0.847,-1.34,-22.58,-14.56,3,0
18016.328,-0.498,0.127,0.824,1.07,-24.6,-17.09,3,0
18016.343,-0.495,0.135,0.803,3.94,-24.78,-17.0,3,0
18016.359,-0.487,0.149,0.767,3.88,-23.41,-13.37,3,0
18016.359,-0.488,0.147,0.74,0.79,-20.63,-9.43,3,0
18016.375,-0.495,0.134,0.733,-2.32,-16.82,-4.43,3,0
18016.375,-0.476,0.127,0.737,-4.21,-13.73,1.07,3,0
18016.39,-0.471,0.129,0.751,-4.27,-9.28,3.72,3,0
18016.406,-0.492,0.122,0.771,-2.66,-4.33,5.28,3,0
18016.406,-0.498,0.128,0.792,-2.35,-0.21,9.19,3,0
18016.421,-0.485,0.128,0.81,-6.1,3.27,14.01,3,0
18016.437,-0.483,0.101,0.834,-11.41,5.43,17.61,3,0
18016.437,-0.461,0.059,0.866,-14.22,5.46,19.59,3,0
18016.453,-0.43,0.034,0.878,-13.34,4.67,18.13,3,0
18016.468,-0.432,0.031,0.907,-9.03,4.0,12.85,3,0
18016.468,-0.455,0.038,0.933,-3.33,2.81,7.35,3,0
18016.484,-0.456,0.062,0.945,0.09,0.7,3.23,3,0
18016.484,-0.446,0.073,0.944,0.76,-1.16,-1.01,3,0
18016.5,-0.433,0.066,0.947,-0.43,-2.75,-4.52,3,0
18016.515,-0.416,0.06,0.939,-1.01,-3.94,-7.72,3,0
18016.515,-0.413,0.057,0.922,-0.15,-4.36,-11.32,3,0
18016.531,-0.421,0.059,0.911,1.34,-4.79,-14.71,3,0
18016.546,-0.423,0.067,0.906,3.36,-5.77,-18.52,3,0
18016.546,-0.421,0.069,0.894,6.13,-6.2,-23.04,3,0
18016.562,-0.419,0.087,0.896,7.32,-5.58,-27.34,3,0
18016.578,-0.421,0.092,0.903,8.12,-4.76,-30.64,3,0
18016.578,-0.451,0.115,0.914,9.34,-4.58,-33.08,3,0
18016.593,-0.48,0.149,0.917,8.55,-10.19,-31.31,3,0
18016.609,-0.492,0.171,0.913,8.03,-13.18,-26.03,3,0
18016.609,-0.48,0.182,0.896,7.75,-14.37,-18.4,3,0
18016.625,-0.444,0.182,0.838,5.98,-13.34,-9.89,3,0
18016.625,-0.437,0.181,0.829,3.63,-9.83,-2.35,3,0
18016.64,-0.443,0.158,0.826,1.83,-5.92,3.85,3,0
18016.656,-0.446,0.136,0.837,-0.09,-2.78,9.46,3,0
18016.671,-0.457,0.102,0.837,-1.74,-0.85,13.18,3,0
18016.671,-0.459,0.064,0.836,-3.33,0.09,14.56,3,0
18016.687,-0.454,0.038,0.846,-3.2,0.52,13.31,3,0
18016.687,-0.47,0.025,0.845,-0.76,1.04,10.41,3,0
18016.703,-0.483,0.032,0.848,1.4,1.46,7.51,3,0
18016.718,-0.489,0.037,0.846,2.78,1.53,5.34,3,0
18016.718,-0.491,0.045,0.852,2.38,2.01,3.66,3,0
18016.734,-0.486,0.042,0.871,1.68,2.01,1.8,3,0
18016.734,-0.513,0.051,0.879,3.02,2.08,-0.46,3,0
18016.75,-0.53,0.059,0.873,5.55,1.46,-0.79,3,0
18016.765,-0.518,0.073,0.864,6.13,0.55,-0.49,3,0
18016.765,-0.492,0.066,0.856,4.97,0.15,-1.86,3,0
18016.781,-0.485,0.062,0.86,4.7,1.31,-4.52,3,0
18016.796,-0.494,0.071,0.864,6.41,3.48,-7.17,3,0
18016.796,-0.501,0.091,0.863,8.39,5.19,-9.34,3,0
18016.812,-0.507,0.115,0.871,9.25,6.07,-11.32,3,0
18016.828,-0.513,0.149,0.875,9.64,6.5,-12.45,3,0
18016.828,-0.539,0.18,0.886,10.1,7.05,-11.14,3,0
18016.843,-0.542,0.202,0.901,7.87,6.38,-5.8,3,0
18016.859,-0.517,0.198,0.895,4.3,5.13,0.46,3,0
18016.859,-0.499,0.169,0.883,2.29,4.73,5.13,3,0
18016.875,-0.483,0.139,0.867,1.95,4.73,8.76,3,0
18016.875,-0.465,0.117,0.852,2.26,4.88,9.89,3,0
18016.89,-0.449,0.089,0.843,3.33,5.16,8.67,3,0
18016.906,-0.455,0.07,0.836,5.28,5.95,6.29,3,0
18016.906,-0.472,0.068,0.838,6.96,6.59,3.72,3,0
18016.921,-0.485,0.054,0.829,8.36,6.87,0.49,3,0
18016.937,-0.499,0.051,0.839,8.51,6.5,-3.91,3,0
18016.937,-0.485,0.039,0.809,9.03,6.26,-8.79,3,0
18016.953,-0.487,0.038,0.836,10.56,8.03,-13.25,3,0
18016.968,-0.496,0.077,0.845,11.75,9.52,-16.48,3,0
18016.968,-0.494,0.109,0.844,10.13,10.28,-17.27,3,0
18016.984,-0.476,0.121,0.857,7.93,11.2,-15.23,3,0
18016.984,-0.471,0.15,0.873,5.31,13.03,-11.72,3,0
18017.0,-0.484,0.164,0.887,2.59,14.5,-6.53,3,0
18017.015,-0.476,0.166,0.906,-2.35,14.25,0.03,3,0
18017.015,-0.447,0.142,0.905,-7.35,13.37,4.61,3,0
18017.031,-0.42,0.102,0.916,-10.65,13.18,5.55,3,0
18017.046,-0.432,0.083,0.937,-10.93,14.13,3.97,3,0
18017.046,-0.462,0.078,0.958,-9.67,13.86,1.62,3,0
18017.062,-0.477,0.075,0.978,-8.82,11.02,-0.7,3,0
18017.078,-0.491,0.078,0.993,-7.6,6.68,-4.06,3,0
18017.078,-0.497,0.075,0.991,-4.7,1.31,-7.87,3,0
18017.093,-0.495,0.098,0.981,-0.67,-3.78,-10.99,3,0
18017.109,-0.482,0.116,0.943,3.36,-9.28,-12.88,3,0
18017.109,-0.46,0.133,0.895,4.58,-14.07,-13.03,3,0
18017.125,-0.463,0.151,0.861,4.61,-16.79,-12.39,3,0
18017.14,-0.473,0.159,0.823,5.28,-18.04,-9.49,3,0
18017.14,-0.47,0.169,0.781,4.82,-17.03,-3.97,3,0
18017.156,-0.468,0.162,0.751,2.04,-13.61,1.71,3,0
18017.156,-0.475,0.144,0.748,-2.32,-8.42,6.65,3,0
18017.171,-0.496,0.129,0.771,-5.8,-3.14,10.77,3,0
18017.187,-0.515,0.102,0.792,-6.59,0.06,14.1,3,0
18017.187,-0.51,0.096,0.817,-6.5,1.19,16.82,3,0
18017.203,-0.501,0.089,0.826,-5.8,1.04,17.76,3,0
18017.218,-0.476,0.071,0.823,-5.28,0.21,17.85,3,0
18017.234,-0.453,0.073,0.828,-5.25,0.73,16.85,3,0
18017.234,-0.455,0.076,0.832,-5.01,1.95,14.53,3,0
18017.234,-0.461,0.076,0.844,-5.37,3.42,12.48,3,0
18017.25,-0.468,0.073,0.851,-6.04,4.79,10.5,3,0
18017.265,-0.478,0.061,0.862,-5.83,5.34,7.93,3,0
18017.281,-0.487,0.052,0.869,-4.67,5.71,4.82,3,0
18017.281,-0.49,0.052,0.874,-2.84,5.34,1.46,3,0
18017.296,-0.499,0.057,0.88,-1.13,4.61,-1.59,3,0
18017.296,-0.507,0.07,0.892,-0.61,3.17,-3.51,3,0
18017.312,-0.51,0.078,0.906,-0.37,0.64,-4.06,3,0
18017.328,-0.498,0.069,0.902,-0.06,-2.47,-3.69,3,0
18017.328,-0.467,0.067,0.893,0.09,-5.1,-4.73,3,0
18017.343,-0.463,0.074,0.889,1.56,-6.35,-8.73,3,0
18017.359,-0.506,0.105,0.896,4.27,-7.6,-13.15,3,0
18017.359,-0.516,0.136,0.888,6.81,-10.32,-13.49,3,0
18017.375,-0.489,0.165,0.862,7.14,-12.3,-11.26,3,0
18017.375,-0.476,0.16,0.831,5.58,-11.99,-9.86,3,0
18017.39,-0.471,0.149,0.825,4.27,-9.46,-8.12,3,0
18017.406,-0.469,0.149,0.825,4.33,-6.04,-6.26,3,0
18017.421,-0.468,0.152,0.827,4.58,-3.33,-4.91,3,0
18017.421,-0.481,0.155,0.829,4.06,-1.56,-4.09,3,0
18017.437,-0.479,0.155,0.825,3.75,-0.58,-2.17,3,0
18017.437,-0.467,0.159,0.813,3.14,0.7,0.92,3,0
18017.453,-0.464,0.147,0.807,1.74,2.99,3.69,3,0
18017.468,-0.476,0.135,0.817,-0.34,5.95,5.95,3,0
18017.468,-0.49,0.127,0.84,-1.65,7.9,8.21,3,0
18017.484,-0.494,0.12,0.86,-2.2,8.06,10.19,3,0
18017.484,-0.487,0.115,0.868,-2.08,7.35,11.11,3,0
18017.5,-0.476,0.113,0.873,-1.89,6.41,11.41,3,0
18017.515,-0.47,0.108,0.877,-2.56,5.86,11.57,3,0
18017.515,-0.47,0.095,0.882,-3.57,5.16,11.17,3,0
18017.531,-0.472,0.071,0.889,-3.85,4.0,9.58,3,0
18017.546,-0.473,0.048,0.883,-2.69,2.29,6.87,3,0
18017.546,-0.466,0.033,0.873,-0.58,0.55,2.72,3,0
18017.562,-0.457,0.028,0.871,1.65,-0.92,-2.35,3,0
18017.578,-0.455,0.027,0.869,5.55,-2.81,-12.97,3,0
18017.578,-0.457,0.031,0.872,6.87,-3.81,-17.46,3,0
18017.593,-0.456,0.034,0.87,8.51,-4.85,-22.64,3,0
18017.609,-0.46,0.036,0.86,10.44,-5.13,-26.8,3,0
18017.609,-0.481,0.089,0.875,11.44,-5.71,-29.39,3,0
18017.625,-0.49,0.126,0.876,11.66,-7.02,-30.46,3,0
18017.64,-0.483,0.144,0.877,10.93,-8.7,-29.79,3,0
18017.64,-0.477,0.173,0.871,10.13,-9.8,-28.14,3,0
18017.656,-0.481,0.197,0.854,9.86,-9.83,-25.42,3,0
18017.656,-0.48,0.209,0.832,8.24,-9.13,-21.03,3,0
18017.671,-0.477,0.206,0.817,5.71,-7.02,-16.21,3,0
18017.687,-0.478,0.203,0.81,3.63,-3.94,-11.51,3,0
18017.687,-0.481,0.2,0.806,1.86,-0.46,-6.96,3,0
18017.703,-0.49,0.199,0.816,-0.06,2.99,-2.62,3,0
18017.718,-0.492,0.186,0.83,-1.53,5.98,1.95,3,0
18017.734,-0.493,0.177,0.848,-3.3,8.18,6.65,3,0
18017.734,-0.516,0.173,0.88,-4.61,9.4,10.59,3,0
18017.734,-0.524,0.161,0.9,-5.68,8.3,15.17,3,0
18017.75,-0.491,0.14,0.902,-7.23,5.74,19.17,3,0
18017.765,-0.469,0.104,0.893,-7.72,3.88,19.71,3,0
18017.765,-0.488,0.081,0.899,-6.47,3.17,17.85,3,0
18017.781,-0.503,0.07,0.905,-3.94,1.46,16.17,3,0
18017.796,-0.496,0.067,0.9,-1.89,-1.4,14.89,3,0
18017.796,-0.484,0.052,0.893,-0.7,-4.09,12.42,3,0
18017.812,-0.491,0.044,0.89,1.07,-5.89,9.06,3,0
18017.828,-0.504,0.057,0.876,2.87,-7.69,5.77,3,0
18017.828,-0.502,0.074,0.874,3.39,-9.28,3.02,3,0
18017.843,-0.512,0.086,0.861,3.91,-10.07,1.74,3,0
18017.859,-0.51,0.096,0.849,3.78,-9.83,2.59,3,0
18017.859,-0.506,0.1,0.842,2.9,-8.36,3.39,3,0
18017.875,-0.499,0.095,0.839,1.86,-6.53,3.91,3,0
18017.875,-0.486,0.093,0.844,1.04,-4.58,3.91,3,0
18017.89,-0.491,0.1,0.861,0.82,-2.75,2.38,3,0
18017.906,-0.512,0.105,0.876,2.11,-1.95,0.85,3,0
18017.906,-0.514,0.116,0.883,2.41,-2.87,0.64,3,0
18017.921,-0.502,0.111,0.881,1.62,-4.3,0.15,3,0
18017.937,-0.491,0.099,0.874,1.71,-4.97,-0.55,3,0
18017.937,-0.483,0.099,0.865,2.35,-4.76,-1.01,3,0
18017.953,-0.479,0.096,0.861,2.56,-3.97,-1.86,3,0
18017.968,-0.482,0.091,0.869,2.26,-3.48,-3.05,3,0
18017.968,-0.495,0.091,0.893,2.38,-4.27,-3.81,3,0
18017.984,-0.488,0.082,0.885,2.59,-6.38,-4.67,3,0
18018.0,-0.485,0.079,0.904,2.17,-9.09,-6.53,3,0
18018.0,-0.471,0.05,0.873,2.87,-12.51,-9.95,3,0
18018.015,-0.461,0.038,0.886,4.97,-14.4,-14.01,3,0
18018.031,-0.467,0.034,0.883,9.03,-15.9,-18.28,3,0
18018.031,-0.462,0.05,0.865,11.54,-16.45,-20.63,3,0
18018.046,-0.457,0.066,0.86,10.65,-16.42,-21.61,3,0
18018.046,-0.453,0.076,0.861,8.45,-16.45,-22.25,3,0
18018.062,-0.452,0.097,0.843,8.36,-15.66,-22.13,3,0
18018.078,-0.445,0.127,0.839,8.42,-14.28,-20.81,3,0
18018.078,-0.439,0.144,0.84,7.72,-12.05,-18.43,3,0
18018.093,-0.44,0.159,0.837,6.65,-9.22,-15.5,3,0
18018.109,-0.446,0.164,0.839,5.28,-6.68,-12.3,3,0
18018.109,-0.448,0.181,0.836,3.48,-4.39,-9.0,3,0
18018.125,-0.453,0.177,0.844,2.35,-1.92,-5.68,3,0
18018.125,-0.45,0.173,0.836,1.46,-0.34,-2.2,3,0
18018.14,-0.437,0.172,0.826,-0.58,1.5,0.12,3,0
18018.156,-0.441,0.175,0.839,-3.17,4.12,0.95,3,0
18018.171,-0.463,0.17,0.862,-3.48,6.32,1.71,3,0
18018.171,-0.468,0.175,0.872,-2.08,6.96,4.61,3,0
18018.187,-0.468,0.188,0.881,-2.01,6.99,7.81,3,0
18018.187,-0.477,0.168,0.884,-2.96,6.56,10.93,3,0
18018.203,-0.461,0.146,0.879,-5.04,5.13,14.53,3,0
18018.218,-0.433,0.123,0.867,-6.13,4.64,15.5,3,0
18018.218,-0.446,0.123,0.873,-4.76,5.46,13.82,3,0
18018.234,-0.462,0.131,0.882,-3.27,5.74,13.55,3,0
18018.234,-0.447,0.134,0.881,-3.72,4.85,14.47,3,0
18018.25,-0.426,0.115,0.869,-4.61,4.0,13.67,3,0
18018.265,-0.426,0.091,0.867,-4.27,4.3,11.02,3,0
18018.265,-0.44,0.089,0.88,-1.74,5.28,7.97,3,0
18018.281,-0.454,0.097,0.887,0.82,5.4,5.95,3,0
18018.296,-0.458,0.088,0.887,1.53,4.39,4.3,3,0
18018.296,-0.464,0.081,0.884,2.01,3.14,2.44,3,0
18018.312,-0.472,0.088,0.881,2.84,1.62,0.49,3,0
18018.328,-0.461,0.094,0.883,3.45,-0.37,-1.07,3,0
18018.328,-0.456,0.109,0.886,4.46,-1.62,-1.92,3,0
18018.343,-0.46,0.121,0.878,5.25,-2.78,-1.77,3,0
18018.359,-0.453,0.124,0.864,3.66,-3.97,-0.46,3,0
18018.359,-0.449,0.112,0.849,1.59,-4.0,0.37,3,0
18018.375,-0.445,0.098,0.84,1.07,-2.35,0.24,3,0
18018.375,-0.461,0.098,0.847,1.37,0.34,-0.31,3,0
18018.39,-0.484,0.1,0.868,1.01,1.98,-0.85,3,0
18018.406,-0.488,0.096,0.881,0.61,1.86,-1.59,3,0
18018.406,-0.483,0.091,0.886,0.79,0.7,-3.45,3,0
18018.421,-0.491,0.087,0.891,2.17,-0.61,-6.65,3,0
18018.437,-0.49,0.091,0.882,4.58,-2.11,-9.8,3,0
18018.437,-0.482,0.091,0.867,6.26,-2.87,-12.42,3,0
18018.453,-0.477,0.085,0.872,6.9,-2.81,-15.02,3,0
18018.468,-0.476,0.098,0.878,6.13,-2.5,-17.21,3,0
18018.468,-0.482,0.106,0.881,3.08,-2.23,-17.61,3,0
18018.484,-0.472,0.089,0.89,-0.06,-2.84,-17.55,3,0
18018.5,-0.466,0.081,0.892,0.34,-2.87,-18.01,3,0
18018.5,-0.47,0.098,0.891,2.41,-2.72,-18.86,3,0
18018.515,-0.469,0.111,0.884,3.69,-3.33,-18.92,3,0
18018.515,-0.462,0.117,0.874,4.24,-3.69,-18.43,3,0
18018.531,-0.45,0.112,0.865,4.64,-3.2,-17.7,3,0
18018.546,-0.451,0.12,0.867,5.49,-1.5,-17.06,3,0
18018.562,-0.477,0.136,0.869,5.37,0.58,-12.7,3,0
18018.562,-0.486,0.143,0.876,2.93,0.31,-8.58,3,0
18018.578,-0.481,0.152,0.865,1.22,0.46,-5.43,3,0
18018.578,-0.483,0.142,0.875,0.58,0.34,-2.23,3,0
18018.593,-0.474,0.133,0.869,-0.76,-0.21,0.34,3,0
18018.609,-0.471,0.125,0.868,-1.56,-0.7,1.01,3,0
18018.609,-0.473,0.12,0.87,-1.56,-0.82,1.59,3,0
18018.625,-0.473,0.119,0.863,-2.26,-0.98,2.38,3,0
18018.64,-0.471,0.105,0.853,-2.66,-0.67,1.8,3,0
18018.64,-0.474,0.097,0.851,-1.8,0.52,0.34,3,0
18018.656,-0.493,0.112,0.856,-0.34,1.86,-0.85,3,0
18018.656,-0.504,0.124,0.868,0.27,1.98,-1.13,3,0
18018.671,-0.498,0.133,0.87,-0.4,1.1,-0.06,3,0
18018.687,-0.485,0.136,0.869,-1.53,0.58,1.19,3,0
18018.687,-0.48,0.137,0.884,-1.62,0.46,2.23,3,0
18018.703,-0.478,0.139,0.884,-0.27,0.31,3.51,3,0
18018.718,-0.461,0.145,0.886,-0.21,-0.31,4.39,3,0
18018.718,-0.451,0.141,0.887,-0.67,-0.61,4.09,3,0
18018.734,-0.447,0.139,0.887,-0.27,-0.49,3.63,3,0
18018.75,-0.447,0.141,0.886,0.4,-0.27,3.23,3,0
18018.75,-0.466,0.144,0.897,1.07,-0.64,2.62,3,0
18018.765,-0.487,0.14,0.898,1.98,-1.92,2.69,3,0
18018.765,-0.48,0.137,0.896,2.99,-4.52,3.69,3,0
18018.781,-0.469,0.131,0.877,3.81,-6.62,4.21,3,0
18018.796,-0.463,0.131,0.857,3.51,-7.26,5.1,3,0
18018.796,-0.455,0.131,0.837,1.89,-6.87,6.78,3,0
18018.812,-0.447,0.127,0.827,-0.67,-5.77,8.24,3,0
18018.828,-0.449,0.116,0.827,-2.66,-4.0,9.4,3,0
18018.828,-0.457,0.118,0.837,-2.75,-1.86,10.38,3,0
18018.843,-0.468,0.124,0.844,-1.95,-0.4,11.2,3,0
18018.859,-0.462,0.123,0.85,-2.26,-0.15,12.05,3,0
18018.859,-0.452,0.108,0.847,-2.69,-0.12,11.84,3,0
18018.875,-0.451,0.094,0.84,-2.04,0.7,10.62,3,0
18018.875,-0.459,0.089,0.832,-0.82,2.08,8.67,3,0
18018.89,-0.455,0.087,0.832,-0.31,3.11,6.35,3,0
18018.906,-0.453,0.09,0.847,0.37,4.46,3.27,3,0
18018.921,-0.48,0.109,0.87,2.59,6.13,1.5,3,0
18018.921,-0.495,0.13,0.886,3.54,5.77,2.56,3,0
18018.937,-0.482,0.142,0.907,1.16,3.42,4.52,3,0
18018.937,-0.475,0.142,0.914,-1.04,0.4,4.97,3,0
18018.953,-0.484,0.141,0.909,-1.1,-1.86,5.95,3,0
18018.968,-0.461,0.139,0.889,-0.52,-3.51,8.03,3,0
18018.968,-0.44,0.133,0.858,-0.4,-3.39,8.91,3,0
18018.984,-0.442,0.115,0.843,-1.43,-1.53,8.06,3,0
18019.0,-0.449,0.097,0.851,-2.38,0.55,6.56,3,0
18019.0,-0.453,0.087,0.862,-1.65,1.98,4.39,3,0
18019.015,-0.464,0.087,0.878,0.31,2.72,1.68,3,0
18019.015,-0.485,0.096,0.895,1.98,1.98,-0.98,3,0
18019.031,-0.502,0.101,0.913,3.36,-0.58,-2.72,3,0
18019.046,-0.498,0.105,0.913,4.49,-4.15,-3.2,3,0
18019.046,-0.481,0.109,0.906,5.31,-7.75,-3.54,3,0
18019.062,-0.462,0.111,0.895,5.43,-10.83,-4.46,3,0
18019.078,-0.451,0.116,0.888,6.16,-12.51,-5.46,3,0
18019.078,-0.448,0.124,0.883,7.51,-13.18,-5.74,3,0
18019.093,-0.45,0.134,0.88,8.55,-13.34,-5.83,3,0
18019.109,-0.462,0.148,0.878,8.7,-13.49,-5.55,3,0
18019.109,-0.48,0.156,0.866,8.15,-13.76,-4.55,3,0
18019.125,-0.479,0.156,0.852,7.9,-14.34,-2.84,3,0
18019.125,-0.473,0.147,0.829,7.87,-13.79,-1.43,3,0
18019.14,-0.465,0.139,0.804,6.41,-11.57,-0.79,3,0
18019.156,-0.451,0.128,0.792,4.67,-8.03,-0.95,3,0
18019.156,-0.447,0.125,0.799,4.24,-3.45,-1.92,3,0
18019.171,-0.456,0.137,0.816,4.79,0.55,-3.17,3,0
18019.187,-0.461,0.154,0.839,5.22,3.08,-4.03,3,0
18019.203,-0.461,0.163,0.859,5.92,3.94,-4.24,3,0
18019.203,-0.462,0.175,0.872,6.41,3.85,-3.23,3,0
18019.218,-0.466,0.183,0.876,5.58,3.45,-1.43,3,0
18019.218,-0.463,0.178,0.877,4.18,2.23,0.21,3,0
18019.234,-0.455,0.167,0.871,4.24,1.59,1.25,3,0
18019.25,-0.456,0.165,0.86,5.46,2.04,1.95,3,0
18019.25,-0.463,0.159,0.849,5.46,2.9,2.75,3,0
18019.265,-0.455,0.148,0.851,3.6,3.97,3.6,3,0
18019.265,-0.444,0.131,0.85,1.77,4.79,3.57,3,0
