timestamp,ax,ay,az,gx,gy,gz,orient_label,motion_label
17951.515,0.808,-0.283,0.278,156.5,-96.26,-228.19,3,0
17951.531,0.572,-0.055,0.13,182.2,-103.98,-271.0,3,0
17951.546,0.383,0.164,0.001,214.3,-117.13,-310.98,3,0
17951.546,0.266,0.406,-0.195,248.7,-127.26,-338.33,3,0
17951.562,0.17,0.727,-0.401,261.64,-126.9,-343.85,3,0
17951.578,0.062,1.076,-0.651,252.24,-121.31,-327.43,3,0
17951.578,0.073,1.411,-0.859,219.89,-110.14,-286.48,3,0
17951.593,0.169,1.665,-0.992,166.63,-88.47,-222.24,3,0
17951.593,0.24,1.787,-1.03,102.48,-51.39,-141.82,3,0
17951.609,0.279,1.772,-0.972,38.24,-6.07,-49.84,3,0
17951.625,0.301,1.621,-0.844,-18.49,38.45,43.0,3,0
17951.625,0.336,1.393,-0.669,-64.76,74.43,123.81,3,0
17951.64,0.42,1.137,-0.451,-101.47,99.83,187.81,3,0
17951.656,0.54,0.866,-0.219,-181.68,112.46,258.83,3,0
17951.656,0.705,0.617,0.052,-230.51,89.21,264.2,3,0
17951.671,0.852,0.27,0.321,-287.33,57.47,259.25,3,0
17951.687,0.93,-0.112,0.568,-337.93,9.52,239.84,3,0
17951.687,0.981,-0.808,0.942,-356.76,-60.67,208.93,3,0
17951.703,1.165,-1.208,0.98,-334.51,-138.52,168.28,3,0
17951.718,1.447,-1.346,0.927,-269.66,-198.71,114.93,3,0
17951.718,1.666,-1.3,0.756,-174.75,-221.2,49.71,3,0
17951.734,1.709,-1.13,0.508,-78.28,-205.97,-22.16,3,0
17951.75,1.598,-0.866,0.269,2.38,-174.29,-96.65,3,0
17951.75,1.383,-0.566,0.08,64.24,-138.0,-167.27,3,0
17951.765,1.076,-0.3,-0.068,115.57,-103.15,-229.8,3,0
17951.781,0.782,-0.022,-0.222,160.92,-76.88,-285.23,3,0
17951.781,0.509,0.282,-0.341,198.58,-62.87,-330.48,3,0
17951.796,0.267,0.587,-0.455,225.9,-56.0,-350.08,3,0
17951.812,-0.016,0.958,-0.619,234.02,-50.45,-337.63,3,0
17951.812,-0.253,1.354,-0.799,213.39,-50.66,-294.66,3,0
17951.812,-0.29,1.65,-0.963,163.76,-57.95,-224.56,3,0
17951.828,-0.216,1.797,-1.063,96.84,-61.31,-138.92,3,0
17951.843,0.028,1.63,-1.055,-28.96,-19.87,41.14,3,0
17951.859,0.147,1.395,-0.971,-72.27,13.43,116.4,3,0
17951.875,0.293,1.153,-0.843,-101.84,48.74,177.53,3,0
17951.875,0.459,0.914,-0.677,-119.14,81.76,222.11,3,0
17951.89,0.633,0.696,-0.468,-125.49,110.75,252.72,3,0
17951.906,0.804,0.494,-0.217,-125.43,134.86,271.74,3,0
17951.906,0.963,0.288,0.054,-124.88,149.02,279.09,3,0
17951.921,1.129,0.046,0.298,-130.13,148.01,275.25,3,0
17951.937,1.198,-0.237,0.511,-145.3,131.26,258.43,3,0
17951.937,1.212,-0.526,0.736,-169.38,96.13,224.25,3,0
17951.953,1.277,-0.827,0.918,-188.42,39.74,174.44,3,0
17951.968,1.392,-1.111,0.949,-181.34,-23.59,111.0,3,0
17951.968,1.574,-1.304,0.878,-141.03,-71.66,42.88,3,0
17951.984,1.677,-1.241,0.72,-75.9,-96.01,-28.72,3,0
17952.0,1.616,-1.028,0.527,-4.46,-97.23,-97.05,3,0
17952.0,1.476,-0.758,0.331,51.61,-88.26,-155.67,3,0
17952.015,1.275,-0.471,0.148,87.19,-75.81,-207.4,3,0
17952.031,1.023,-0.237,-0.01,113.32,-64.03,-256.81,3,0
17952.031,0.791,-0.046,-0.168,138.65,-54.45,-305.73,3,0
17952.046,0.604,0.126,-0.316,168.95,-43.95,-351.36,3,0
17952.046,0.392,0.324,-0.463,206.21,-29.6,-387.01,3,0
17952.062,0.097,0.601,-0.621,245.46,-12.67,-405.16,3,0
17952.062,-0.219,1.013,-0.843,272.07,-1.8,-399.79,3,0
17952.078,-0.419,1.484,-1.102,264.53,1.16,-359.75,3,0
17952.093,-0.435,1.934,-1.262,215.25,3.81,-282.39,3,0
17952.109,-0.358,2.227,-1.293,138.34,16.94,-173.19,3,0
17952.109,-0.293,2.252,-1.202,50.94,39.74,-47.15,3,0
17952.125,-0.23,2.011,-1.055,-34.42,63.36,75.41,3,0
17952.125,-0.111,1.647,-0.894,-108.77,80.81,178.53,3,0
17952.14,0.074,1.264,-0.699,-164.43,93.75,253.15,3,0
17952.156,0.309,0.908,-0.481,-200.2,104.98,300.3,3,0
17952.156,0.5,0.598,-0.232,-218.27,114.44,325.85,3,0
17952.187,0.805,-0.015,0.336,-203.96,108.13,332.8,3,0
17952.187,1.007,-0.248,0.533,-187.87,85.94,320.41,3,0
17952.203,1.142,-0.471,0.7,-181.31,58.35,302.5,3,0
17952.218,1.177,-0.716,0.854,-178.75,26.58,272.9,3,0
17952.218,1.268,-1.036,0.907,-169.93,-17.79,225.5,3,0
17952.234,1.43,-1.27,0.876,-149.63,-63.72,157.14,3,0
17952.25,1.558,-1.335,0.785,-108.49,-96.32,76.2,3,0
17952.25,1.604,-1.292,0.636,-49.78,-110.51,-5.25,3,0
17952.265,1.552,-1.105,0.453,11.26,-107.3,-78.98,3,0
17952.265,1.4,-0.814,0.259,64.09,-93.11,-142.49,3,0
17952.281,1.173,-0.531,0.091,105.5,-76.66,-197.61,3,0
17952.296,0.934,-0.286,-0.021,140.57,-62.75,-245.58,3,0
17952.296,0.701,-0.079,-0.131,180.76,-56.0,-291.57,3,0
17952.312,0.538,0.067,-0.286,227.18,-54.05,-333.38,3,0
17952.328,0.374,0.291,-0.452,270.64,-47.06,-359.26,3,0
17952.328,0.128,0.663,-0.626,310.83,-32.01,-363.57,3,0
17952.343,-0.089,1.139,-0.831,333.84,-20.05,-341.65,3,0
17952.343,-0.224,1.595,-1.041,315.78,-14.89,-293.04,3,0
17952.359,-0.225,1.941,-1.161,252.72,-10.04,-217.75,3,0
17952.375,-0.132,2.151,-1.209,161.6,1.71,-120.73,3,0
17952.375,-0.013,2.141,-1.178,56.92,23.96,-11.23,3,0
17952.39,0.098,1.93,-1.046,-46.54,50.08,95.89,3,0
17952.406,0.223,1.601,-0.846,-133.0,76.27,191.41,3,0
17952.421,0.384,1.223,-0.586,-195.04,99.95,269.54,3,0
17952.421,0.543,0.837,-0.3,-228.52,119.14,328.44,3,0
17952.437,0.672,0.476,-0.069,-236.92,130.95,370.56,3,0
17952.437,0.783,0.181,0.096,-231.18,130.92,399.09,3,0
17952.453,0.88,-0.076,0.241,-220.28,127.05,418.16,3,0
17952.468,0.871,-0.274,0.428,-212.84,119.88,428.27,3,0
17952.468,0.894,-0.572,0.516,-216.38,97.17,416.76,3,0
17952.484,1.007,-0.853,0.611,-248.39,54.99,366.41,3,0
17952.5,1.175,-1.121,0.668,-276.65,-1.62,280.59,3,0
17952.515,1.463,-1.664,0.646,-208.75,-95.4,52.1,3,0
17952.531,1.478,-1.596,0.582,-111.12,-110.63,-57.01,3,0
17952.531,1.376,-1.293,0.442,-1.22,-107.24,-148.05,3,0
17952.546,1.223,-0.929,0.246,89.51,-94.67,-219.4,3,0
17952.546,1.039,-0.587,0.055,152.32,-81.33,-279.21,3,0
17952.562,0.835,-0.312,-0.094,193.18,-72.24,-331.86,3,0
17952.578,0.649,-0.095,-0.194,221.11,-70.77,-378.73,3,0
17952.578,0.39,0.05,-0.276,250.04,-74.47,-420.97,3,0
17952.593,0.084,0.168,-0.437,284.49,-81.33,-453.47,3,0
17952.593,-0.167,0.405,-0.67,308.66,-92.38,-474.59,3,0
17952.609,-0.42,0.785,-0.973,309.7,-105.41,-476.18,3,0
17952.625,-0.492,1.283,-1.312,280.25,-111.12,-444.14,3,0
17952.625,-0.348,1.74,-1.555,112.52,-76.72,-273.35,3,0
17952.64,-0.149,2.02,-1.661,14.74,-26.37,-148.93,3,0
17952.656,-0.043,2.097,-1.63,-73.89,34.36,-14.4,3,0
17952.656,-0.032,1.941,-1.502,-146.92,85.67,112.06,3,0
17952.671,0.054,1.337,-1.015,-197.18,126.77,214.73,3,0
17952.687,0.185,1.035,-0.77,-223.46,158.45,287.24,3,0
17952.687,0.372,0.775,-0.5,-235.3,178.96,332.22,3,0
17952.703,0.576,0.554,-0.207,-232.7,191.29,354.56,3,0
17952.718,0.761,0.35,0.061,-215.49,199.99,362.32,3,0
17952.718,0.873,0.138,0.295,-192.88,202.46,365.49,3,0
17952.734,0.986,-0.003,0.545,-180.82,195.96,365.79,3,0
17952.734,0.991,-0.128,0.806,-195.32,174.72,359.05,3,0
17952.75,0.968,-0.493,0.932,-239.94,126.35,326.33,3,0
17952.765,1.031,-0.84,1.063,-308.94,45.56,261.7,3,0
17952.765,1.24,-1.286,1.121,-334.88,-47.79,177.62,3,0
17952.781,1.506,-1.711,1.104,-285.41,-118.72,84.87,3,0
17952.796,1.648,-1.733,0.984,-174.08,-147.04,-7.42,3,0
17952.796,1.603,-1.434,0.772,-39.19,-141.09,-90.43,3,0
17952.812,1.413,-1.044,0.542,76.11,-122.35,-162.85,3,0
17952.828,1.155,-0.67,0.347,155.22,-107.73,-226.26,3,0
17952.843,0.598,-0.12,-0.017,253.61,-112.31,-333.26,3,0
17952.859,0.386,0.05,-0.176,296.21,-129.61,-373.76,3,0
17952.859,0.16,0.227,-0.45,338.66,-145.88,-401.32,3,0
17952.875,-0.056,0.582,-0.794,359.75,-153.02,-413.77,3,0
17952.89,-0.234,1.128,-1.2,342.11,-152.68,-396.8,3,0
17952.89,-0.235,1.702,-1.576,277.14,-143.25,-341.07,3,0
17952.906,-0.093,2.141,-1.767,167.7,-119.63,-249.61,3,0
17952.906,0.006,2.271,-1.722,48.52,-67.96,-132.18,3,0
17952.921,-0.044,2.11,-1.547,-48.62,1.8,-1.37,3,0
17952.937,-0.083,1.797,-1.361,-120.27,70.38,126.16,3,0
17952.937,-0.011,1.48,-1.151,-172.8,120.43,225.78,3,0
17952.953,0.136,1.143,-0.866,-200.51,157.44,288.77,3,0
17952.968,0.301,0.813,-0.547,-205.69,183.97,321.82,3,0
17952.968,0.458,0.499,-0.272,-192.18,198.22,333.75,3,0
17952.984,0.64,0.266,-0.028,-163.18,203.5,334.27,3,0
17953.0,0.747,0.093,0.197,-129.09,202.06,328.59,3,0
17953.0,0.83,-0.026,0.451,-107.46,192.91,318.52,3,0
17953.015,0.929,-0.212,0.652,-106.23,165.72,306.5,3,0
17953.031,0.983,-0.521,0.804,-137.24,128.91,284.16,3,0
17953.031,0.992,-0.743,0.928,-192.02,75.96,243.29,3,0
17953.046,1.115,-1.071,0.972,-227.48,6.38,187.35,3,0
17953.062,1.295,-1.442,0.961,-218.09,-55.82,119.3,3,0
17953.062,1.438,-1.584,0.874,-161.02,-93.26,43.09,3,0
17953.078,1.48,-1.469,0.718,-76.14,-106.78,-35.19,3,0
17953.078,1.408,-1.188,0.523,10.53,-102.15,-109.96,3,0
17953.093,1.229,-0.875,0.332,82.16,-89.27,-177.04,3,0
17953.109,1.004,-0.577,0.165,136.11,-81.45,-236.58,3,0
17953.109,0.797,-0.318,0.015,176.7,-80.23,-287.0,3,0
17953.125,0.612,-0.086,-0.114,209.88,-84.11,-330.67,3,0
17953.125,0.434,0.114,-0.249,242.29,-90.85,-366.22,3,0
17953.14,0.266,0.336,-0.458,270.39,-94.73,-386.46,3,0
17953.156,0.094,0.709,-0.723,275.22,-92.59,-388.99,3,0
17953.171,-0.045,1.632,-1.251,190.25,-79.41,-303.96,3,0
17953.187,0.052,1.933,-1.333,108.77,-55.09,-213.57,3,0
17953.187,0.1,2.029,-1.267,19.75,-7.6,-107.0,3,0
17953.203,0.088,1.907,-1.146,-57.92,44.77,0.03,3,0
17953.218,0.129,1.669,-1.016,-121.98,86.64,95.8,3,0
17953.218,0.219,1.43,-0.796,-168.89,118.14,167.97,3,0
17953.234,0.331,1.132,-0.569,-190.98,143.19,213.81,3,0
17953.25,0.462,0.834,-0.334,-195.26,163.64,240.73,3,0
17953.25,0.589,0.579,-0.076,-183.51,178.32,254.83,3,0
17953.265,0.665,0.344,0.157,-157.51,186.35,260.32,3,0
17953.281,0.751,0.143,0.361,-131.9,186.99,261.76,3,0
17953.281,0.888,0.022,0.588,-123.54,172.43,259.8,3,0
17953.296,0.983,-0.218,0.73,-132.79,142.52,254.28,3,0
17953.312,1.004,-0.48,0.849,-169.77,103.58,231.33,3,0
17953.312,1.078,-0.672,0.95,-217.96,46.45,192.27,3,0
17953.328,1.226,-0.987,0.98,-238.87,-15.9,140.08,3,0
17953.328,1.377,-1.281,0.963,-218.76,-62.69,79.87,3,0
17953.343,1.47,-1.347,0.886,-163.12,-86.86,15.32,3,0
17953.343,1.475,-1.219,0.757,-86.92,-92.1,-51.27,3,0
17953.359,1.37,-0.994,0.596,-11.11,-85.45,-116.03,3,0
17953.375,1.19,-0.72,0.453,47.79,-75.81,-174.5,3,0
17953.375,0.969,-0.452,0.323,92.26,-71.08,-228.52,3,0
17953.39,0.779,-0.218,0.192,128.64,-73.58,-275.98,3,0
17953.406,0.621,-0.011,0.081,160.28,-80.32,-316.39,3,0
17953.406,0.485,0.172,-0.038,191.87,-87.41,-347.54,3,0
17953.421,0.361,0.37,-0.22,220.71,-89.48,-365.12,3,0
17953.437,0.256,0.684,-0.417,231.09,-84.38,-366.22,3,0
17953.437,0.16,1.09,-0.628,215.7,-75.35,-344.19,3,0
17953.453,0.144,1.439,-0.812,171.76,-63.02,-297.74,3,0
17953.468,0.218,1.65,-0.881,99.77,-43.15,-233.95,3,0
17953.468,0.298,1.706,-0.821,15.78,-11.54,-160.62,3,0
17953.484,0.358,1.62,-0.692,-60.67,27.22,-85.45,3,0
17953.5,0.429,1.263,-0.438,-169.23,93.17,35.95,3,0
17953.515,0.507,1.089,-0.308,-203.01,117.22,73.89,3,0
17953.515,0.537,0.905,-0.18,-224.77,138.22,96.04,3,0
17953.531,0.578,0.702,-0.044,-238.23,157.48,109.5,3,0
17953.546,0.617,0.545,0.087,-245.22,172.28,114.57,3,0
17953.562,0.636,0.412,0.194,-247.32,181.65,109.93,3,0
17953.562,0.673,0.286,0.284,-248.08,184.21,95.31,3,0
17953.578,0.694,0.194,0.391,-246.83,181.86,72.15,3,0
17953.578,0.698,0.095,0.486,-235.42,176.98,45.78,3,0
17953.593,0.688,0.014,0.577,-210.12,170.42,22.22,3,0
17953.593,0.686,-0.016,0.661,-171.51,165.23,4.67,3,0
17953.609,0.687,0.007,0.721,-123.63,162.72,-9.49,3,0
17953.625,0.706,0.051,0.737,-32.35,164.22,-38.48,3,0
17953.625,0.716,0.117,0.723,-0.73,168.0,-56.09,3,0
17953.64,0.699,0.214,0.701,21.09,171.03,-73.82,3,0
17953.656,0.622,0.411,0.611,34.49,172.34,-87.83,3,0
17953.656,0.551,0.511,0.589,41.23,173.22,-95.49,3,0
17953.671,0.484,0.622,0.598,42.6,171.15,-95.61,3,0
17953.687,0.421,0.728,0.6,40.01,164.19,-90.4,3,0
17953.687,0.37,0.835,0.608,32.53,151.86,-81.76,3,0
17953.703,0.307,0.95,0.621,17.91,133.64,-71.44,3,0
17953.703,0.29,1.052,0.649,-5.95,109.47,-57.62,3,0
17953.718,0.298,1.109,0.651,-37.54,84.26,-43.79,3,0
17953.734,0.316,1.098,0.628,-75.35,58.78,-30.43,3,0
17953.734,0.339,1.035,0.598,-114.02,35.98,-18.59,3,0
17953.75,0.399,0.955,0.581,-148.41,19.59,-7.78,3,0
17953.765,0.446,0.835,0.579,-172.43,10.93,-1.65,3,0
17953.765,0.499,0.676,0.597,-181.95,10.5,1.22,3,0
17953.781,0.533,0.537,0.617,-176.18,15.53,1.28,3,0
17953.796,0.543,0.441,0.644,-155.52,22.86,-1.43,3,0
17953.812,0.564,0.373,0.663,-123.42,32.47,-5.1,3,0
17953.812,0.56,0.338,0.682,-84.84,43.15,-8.73,3,0
17953.828,0.528,0.375,0.678,-7.75,59.72,-16.63,3,0
17953.843,0.501,0.445,0.681,21.61,66.04,-19.96,3,0
17953.859,0.467,0.537,0.698,37.78,69.95,-20.26,3,0
17953.859,0.443,0.623,0.737,40.07,68.79,-17.03,3,0
17953.875,0.436,0.734,0.803,30.34,64.12,-12.82,3,0
17953.875,0.407,0.892,0.891,6.68,55.36,-3.66,3,0
17953.89,0.389,0.966,0.959,-22.37,40.16,3.08,3,0
17953.906,0.396,0.899,0.977,-46.11,20.87,8.48,3,0
17953.906,0.408,0.72,0.95,-56.46,1.53,14.77,3,0
17953.921,0.433,0.54,0.901,-49.78,-14.53,20.97,3,0
17953.937,0.462,0.401,0.816,-31.31,-22.89,24.96,3,0
17953.937,0.504,0.321,0.747,-18.62,-22.71,21.12,3,0
17953.953,0.499,0.279,0.705,-12.18,-17.09,13.55,3,0
17953.953,0.468,0.283,0.672,-2.04,-8.45,7.39,3,0
17953.968,0.459,0.342,0.641,2.96,1.98,3.85,3,0
17953.984,0.459,0.428,0.639,-4.43,14.25,-0.61,3,0
17954.0,0.4,0.462,0.713,-36.59,35.0,-14.37,3,0
17954.015,0.356,0.453,0.766,-50.02,40.56,-19.81,3,0
17954.015,0.306,0.463,0.834,-55.39,41.84,-20.05,3,0
17954.031,0.271,0.472,0.884,-55.51,38.03,-15.02,3,0
17954.046,0.241,0.488,0.966,-52.13,30.15,-7.63,3,0
17954.046,0.174,0.49,1.082,-42.94,16.69,0.49,3,0
17954.062,0.227,0.423,1.049,-30.61,-3.57,10.13,3,0
17954.078,0.285,0.421,0.941,-23.04,-16.54,13.09,3,0
17954.078,0.311,0.393,0.873,-16.75,-19.44,12.63,3,0
17954.093,0.329,0.352,0.83,-8.45,-16.57,12.7,3,0
17954.093,0.344,0.362,0.79,-1.83,-11.14,13.76,3,0
17954.109,0.344,0.391,0.778,-2.72,-5.92,13.92,3,0
17954.125,0.337,0.392,0.782,-10.71,-2.78,13.03,3,0
17954.125,0.348,0.388,0.806,-20.26,-0.49,13.31,3,0
17954.14,0.362,0.368,0.837,-26.0,0.79,12.39,3,0
17954.156,0.361,0.347,0.868,-26.58,1.62,10.32,3,0
17954.171,0.373,0.334,0.902,-17.79,2.59,7.08,3,0
17954.171,0.371,0.329,0.914,-11.84,3.85,4.79,3,0
17954.187,0.356,0.325,0.912,-5.28,5.55,3.39,3,0
17954.203,0.357,0.325,0.897,1.31,6.74,3.39,3,0
17954.203,0.348,0.328,0.886,6.74,8.48,3.08,3,0
17954.218,0.336,0.333,0.876,10.44,10.01,3.17,3,0
17954.234,0.327,0.337,0.86,12.79,11.32,3.88,3,0
17954.234,0.327,0.353,0.857,13.73,12.39,4.61,3,0
17954.25,0.318,0.367,0.865,12.18,13.15,4.33,3,0
17954.265,0.309,0.37,0.869,9.92,12.09,3.48,3,0
17954.265,0.306,0.371,0.87,6.56,10.01,2.08,3,0
17954.281,0.298,0.382,0.866,3.72,8.24,1.46,3,0
17954.296,0.297,0.388,0.863,1.53,6.41,1.95,3,0
17954.296,0.305,0.384,0.863,-0.31,5.04,2.87,3,0
17954.312,0.31,0.382,0.867,-1.8,4.49,2.93,3,0
17954.328,0.308,0.377,0.871,-3.11,4.3,2.44,3,0
17954.343,0.314,0.376,0.86,-4.15,5.77,4.94,3,0
17954.359,0.327,0.371,0.866,-3.27,7.42,6.35,3,0
17954.359,0.326,0.363,0.87,-2.2,7.97,5.71,3,0
17954.375,0.308,0.35,0.874,-3.17,6.53,3.91,3,0
17954.375,0.322,0.354,0.875,-4.67,3.54,2.53,3,0
17954.39,0.314,0.368,0.862,-5.83,1.83,1.1,3,0
17954.406,0.316,0.37,0.865,-7.84,0.49,0.67,3,0
17954.406,0.322,0.371,0.873,-8.61,0.06,0.95,3,0
17954.421,0.321,0.367,0.868,-8.27,1.01,1.5,3,0
17954.437,0.318,0.355,0.875,-7.69,2.41,2.5,3,0
17954.437,0.331,0.353,0.882,-4.82,4.03,4.12,3,0
17954.453,0.326,0.352,0.881,-1.74,5.55,4.12,3,0
17954.453,0.321,0.344,0.881,-0.18,5.74,3.51,3,0
17954.468,0.326,0.339,0.883,0.09,4.85,2.23,3,0
17954.484,0.316,0.344,0.881,0.03,3.69,0.55,3,0
17954.484,0.311,0.344,0.887,-1.59,2.04,-1.56,3,0
17954.5,0.307,0.34,0.892,-2.75,0.4,-3.75,3,0
17954.515,0.297,0.35,0.887,-1.37,-0.37,-3.85,3,0
17954.515,0.291,0.368,0.894,1.04,-1.28,-1.83,3,0
17954.531,0.283,0.38,0.904,3.6,-2.56,0.58,3,0
17954.546,0.275,0.377,0.913,5.22,-5.49,2.72,3,0
17954.546,0.275,0.357,0.909,6.1,-10.25,4.55,3,0
17954.562,0.28,0.347,0.901,7.72,-14.8,5.8,3,0
17954.578,0.276,0.379,0.909,10.01,-19.23,7.9,3,0
17954.578,0.266,0.382,0.961,10.07,-24.45,10.96,3,0
17954.593,0.264,0.353,0.98,10.04,-34.49,11.69,3,0
17954.593,0.278,0.358,0.959,13.89,-53.35,15.02,3,0
17954.609,0.296,0.355,0.923,17.91,-58.96,17.49,3,0
17954.625,0.327,0.35,0.895,21.67,-61.62,19.14,3,0
17954.625,0.349,0.357,0.869,24.11,-62.53,19.59,3,0
17954.64,0.383,0.354,0.822,24.78,-63.14,19.35,3,0
17954.656,0.405,0.365,0.809,24.02,-63.26,18.34,3,0
17954.671,0.423,0.378,0.796,22.19,-62.62,16.42,3,0
17954.671,0.433,0.382,0.787,19.44,-61.46,14.13,3,0
17954.687,0.448,0.396,0.78,16.57,-59.85,12.39,3,0
17954.687,0.452,0.39,0.772,14.25,-58.11,10.83,3,0
17954.703,0.469,0.379,0.76,12.79,-56.25,10.28,3,0
17954.718,0.489,0.389,0.743,11.72,-52.74,9.67,3,0
17954.718,0.495,0.394,0.734,10.65,-47.64,8.73,3,0
17954.734,0.515,0.404,0.729,8.45,-42.45,6.59,3,0
17954.75,0.496,0.397,0.717,5.37,-36.93,3.88,3,0
17954.75,0.516,0.395,0.72,2.01,-33.27,2.87,3,0
17954.765,0.536,0.398,0.72,-0.12,-29.33,0.82,3,0
17954.765,0.527,0.383,0.712,-2.23,-24.35,-1.37,3,0
17954.781,0.531,0.387,0.713,-5.34,-20.69,-3.36,3,0
17954.796,0.531,0.399,0.716,-8.0,-16.45,-5.13,3,0
17954.796,0.518,0.398,0.714,-9.89,-10.96,-5.49,3,0
17954.812,0.516,0.393,0.72,-11.26,-4.76,-4.64,3,0
17954.812,0.518,0.383,0.729,-12.18,1.77,-4.18,3,0
17954.828,0.506,0.376,0.748,-12.67,8.85,-4.55,3,0
17954.843,0.491,0.375,0.778,-12.63,13.98,-4.67,3,0
17954.843,0.475,0.379,0.801,-11.93,16.11,-4.82,3,0
17954.859,0.473,0.382,0.827,-10.96,16.17,-4.3,3,0
17954.875,0.464,0.369,0.833,-7.93,15.26,-3.54,3,0
17954.89,0.458,0.355,0.823,-3.45,14.53,-2.26,3,0
17954.89,0.457,0.356,0.816,1.19,14.22,-0.49,3,0
17954.906,0.461,0.36,0.815,4.55,13.25,0.46,3,0
17954.906,0.466,0.375,0.807,6.32,11.72,-0.27,3,0
17954.921,0.455,0.385,0.788,6.99,10.35,-1.53,3,0
17954.937,0.448,0.391,0.773,5.8,8.3,-1.83,3,0
17954.937,0.467,0.404,0.764,2.81,6.38,-1.95,3,0
17954.953,0.47,0.414,0.759,-0.95,6.65,-3.42,3,0
17954.953,0.477,0.399,0.746,-4.91,8.12,-4.55,3,0
17954.968,0.481,0.401,0.726,-8.94,10.74,-5.86,3,0
17954.984,0.48,0.403,0.707,-12.79,15.26,-6.2,3,0
17954.984,0.48,0.396,0.696,-17.49,21.0,-5.98,3,0
17955.0,0.486,0.39,0.69,-23.47,27.59,-5.95,3,0
17955.015,0.498,0.388,0.703,-29.73,35.1,-7.29,3,0
17955.015,0.475,0.384,0.733,-35.65,42.45,-9.4,3,0
17955.031,0.434,0.398,0.77,-40.93,46.85,-10.41,3,0
17955.046,0.408,0.404,0.808,-45.47,47.58,-8.91,3,0
17955.046,0.395,0.4,0.84,-47.4,45.63,-5.92,3,0
17955.062,0.38,0.38,0.863,-49.01,41.38,-3.11,3,0
17955.078,0.376,0.365,0.89,-51.42,35.49,-1.01,3,0
17955.078,0.357,0.335,0.943,-49.9,29.69,1.83,3,0
17955.093,0.359,0.28,0.962,-42.79,22.4,5.49,3,0
17955.093,0.398,0.256,0.935,-33.2,16.14,8.55,3,0
17955.109,0.428,0.269,0.902,-20.48,15.75,12.24,3,0
17955.125,0.447,0.268,0.886,-6.74,20.33,14.22,3,0
17955.125,0.452,0.255,0.876,4.15,27.07,13.79,3,0
17955.14,0.446,0.244,0.882,11.69,33.63,11.84,3,0
17955.156,0.427,0.244,0.886,16.6,38.12,8.58,3,0
17955.156,0.409,0.272,0.886,19.53,41.05,5.83,3,0
17955.171,0.383,0.286,0.888,22.22,42.51,4.39,3,0
17955.187,0.375,0.297,0.886,24.45,43.0,4.79,3,0
17955.187,0.355,0.322,0.876,26.58,43.49,5.95,3,0
17955.203,0.351,0.331,0.871,27.28,44.19,7.17,3,0
17955.218,0.332,0.328,0.878,27.19,45.35,8.45,3,0
17955.218,0.318,0.34,0.889,26.89,44.86,9.67,3,0
17955.234,0.29,0.337,0.883,26.4,42.7,9.74,3,0
17955.234,0.295,0.341,0.885,24.26,39.09,9.92,3,0
17955.25,0.295,0.352,0.876,21.73,35.89,8.39,3,0
17955.265,0.284,0.366,0.852,18.77,33.63,5.34,3,0
17955.265,0.276,0.371,0.825,14.5,33.54,4.36,3,0
17955.281,0.287,0.388,0.824,11.08,37.11,5.65,3,0
17955.296,0.274,0.389,0.83,8.94,42.24,7.66,3,0
17955.296,0.26,0.375,0.851,6.38,45.2,9.13,3,0
17955.312,0.254,0.374,0.876,3.05,45.11,9.46,3,0
17955.312,0.248,0.374,0.897,-0.73,42.45,8.36,3,0
17955.328,0.232,0.363,0.908,-4.61,37.63,6.81,3,0
17955.343,0.227,0.354,0.918,-7.75,31.68,6.2,3,0
17955.343,0.231,0.353,0.931,-8.85,26.73,6.26,3,0
17955.359,0.217,0.347,0.951,-7.9,22.43,6.74,3,0
17955.375,0.204,0.338,0.971,-5.65,16.88,7.66,3,0
17955.375,0.202,0.349,0.977,-2.62,9.7,9.13,3,0
17955.39,0.201,0.353,0.96,0.49,1.74,10.86,3,0
17955.406,0.225,0.355,0.933,2.11,-5.65,12.05,3,0
17955.406,0.225,0.374,0.934,2.72,-11.08,11.93,3,0
17955.421,0.19,0.375,0.973,1.98,-18.46,12.36,3,0
17955.437,0.183,0.36,1.045,0.92,-31.53,13.67,3,0
17955.437,0.214,0.337,1.04,2.66,-48.13,15.66,3,0
17955.453,0.232,0.328,0.987,5.55,-62.44,16.33,3,0
17955.468,0.239,0.314,0.949,8.91,-69.46,17.37,3,0
17955.468,0.282,0.322,0.917,13.25,-70.86,22.71,3,0
17955.484,0.314,0.314,0.883,20.33,-66.99,26.49,3,0
17955.484,0.344,0.295,0.863,24.81,-61.1,27.04,3,0
17955.5,0.356,0.299,0.859,26.86,-54.99,25.94,3,0
17955.515,0.385,0.312,0.854,28.9,-50.69,25.45,3,0
17955.515,0.409,0.334,0.823,30.34,-47.7,23.1,3,0
17955.531,0.411,0.366,0.773,30.18,-43.28,19.84,3,0
17955.546,0.412,0.383,0.745,27.44,-36.99,18.46,3,0
17955.546,0.439,0.393,0.76,22.03,-31.25,17.49,3,0
17955.562,0.473,0.381,0.77,14.98,-26.61,13.82,3,0
17955.562,0.5,0.368,0.691,9.49,-18.92,8.33,3,0
17955.578,0.523,0.333,0.669,6.81,-5.52,4.21,3,0
17955.593,0.504,0.314,0.668,-0.64,20.2,-5.92,3,0
17955.609,0.481,0.338,0.672,-7.35,30.4,-9.67,3,0
17955.609,0.475,0.352,0.718,-13.67,38.39,-14.44,3,0
17955.625,0.328,0.396,0.968,-16.39,39.19,-16.6,3,0
17955.625,0.27,0.352,1.051,-11.93,26.28,-15.35,3,0
17955.64,0.331,0.34,0.947,-6.16,12.24,-12.85,3,0
17955.656,0.336,0.339,0.9,0.27,10.38,-11.05,3,0
17955.656,0.328,0.286,0.856,7.14,12.67,-10.41,3,0
17955.671,0.328,0.307,0.835,11.02,15.38,-9.61,3,0
17955.687,0.328,0.348,0.826,11.96,17.61,-10.74,3,0
17955.687,0.32,0.377,0.829,8.51,18.13,-11.54,3,0
17955.703,0.325,0.415,0.835,4.67,17.37,-10.99,3,0
17955.703,0.334,0.442,0.837,0.73,16.36,-10.32,3,0
17955.734,0.327,0.457,0.862,-3.39,15.78,-9.43,3,0
17955.734,0.305,0.449,0.885,-5.43,14.5,-6.93,3,0
17955.75,0.3,0.421,0.889,-5.92,11.44,-3.72,3,0
17955.75,0.305,0.376,0.877,-6.2,8.18,-1.68,3,0
17955.765,0.31,0.348,0.878,-6.04,6.13,-0.85,3,0
17955.765,0.301,0.336,0.886,-4.73,5.04,0.31,3,0
17955.781,0.312,0.334,0.891,-1.98,3.54,2.32,3,0
17955.796,0.328,0.341,0.895,1.37,2.38,3.11,3,0
17955.796,0.338,0.355,0.884,4.03,1.59,1.98,3,0
17955.812,0.337,0.365,0.868,5.62,0.27,0.43,3,0
17955.828,0.343,0.37,0.86,6.59,-0.7,-0.64,3,0
17955.828,0.34,0.382,0.855,6.84,-0.67,-1.59,3,0
17955.843,0.332,0.388,0.852,5.98,-0.15,-2.2,3,0
17955.843,0.337,0.382,0.853,4.58,0.0,-2.81,3,0
17955.859,0.33,0.386,0.855,3.69,0.55,-3.91,3,0
17955.875,0.311,0.389,0.863,3.05,0.18,-4.3,3,0
17955.875,0.302,0.394,0.866,2.62,-0.73,-2.99,3,0
17955.89,0.309,0.395,0.863,2.62,-1.22,-0.79,3,0
17955.906,0.305,0.401,0.857,2.23,-1.04,0.61,3,0
17955.906,0.306,0.389,0.857,1.62,-1.4,2.23,3,0
17955.921,0.317,0.378,0.856,1.68,-1.89,3.85,3,0
17955.921,0.322,0.386,0.856,2.04,-1.46,4.79,3,0
17955.937,0.327,0.384,0.857,2.2,-1.1,5.22,3,0
17955.953,0.331,0.373,0.858,2.35,-1.01,5.4,3,0
17955.968,0.336,0.376,0.855,2.2,-0.95,4.67,3,0
17955.968,0.33,0.384,0.856,1.71,-0.79,3.78,3,0
17955.984,0.331,0.394,0.855,0.98,0.15,4.0,3,0
17955.984,0.327,0.382,0.857,0.55,1.77,4.88,3,0
17956.0,0.346,0.375,0.861,1.43,1.98,5.34,3,0
17956.015,0.361,0.368,0.849,2.56,2.93,4.24,3,0
17956.015,0.346,0.352,0.835,2.9,3.94,2.59,3,0
17956.031,0.349,0.351,0.843,2.78,3.45,1.34,3,0
17956.046,0.349,0.368,0.86,2.81,4.49,0.37,3,0
17956.062,0.326,0.39,0.863,3.39,6.01,0.06,3,0
17956.062,0.323,0.383,0.868,3.91,6.23,1.53,3,0
17956.078,0.33,0.395,0.873,4.85,7.48,3.02,3,0
17956.078,0.303,0.39,0.868,6.62,7.42,4.3,3,0
17956.093,0.304,0.394,0.865,6.99,6.5,5.34,3,0
17956.093,0.3,0.401,0.863,6.5,6.5,5.83,3,0
17956.109,0.307,0.401,0.868,5.68,7.2,4.97,3,0
17956.125,0.299,0.391,0.872,4.52,7.05,3.3,3,0
17956.125,0.287,0.381,0.862,2.99,4.36,2.35,3,0
17956.14,0.308,0.384,0.855,1.1,0.7,1.89,3,0
17956.156,0.319,0.389,0.847,-0.55,-1.19,1.07,3,0
17956.156,0.317,0.395,0.846,-2.59,-2.23,0.12,3,0
17956.171,0.322,0.397,0.843,-4.64,-2.44,0.61,3,0
17956.187,0.325,0.401,0.845,-5.92,-1.71,1.22,3,0
17956.187,0.316,0.384,0.853,-6.9,-0.95,2.11,3,0
17956.203,0.326,0.38,0.861,-7.2,-0.21,3.42,3,0
17956.218,0.324,0.369,0.868,-5.34,1.22,3.91,3,0
17956.234,0.325,0.367,0.87,-4.88,0.79,3.05,3,0
17956.234,0.322,0.37,0.868,-4.82,-0.12,1.43,3,0
17956.25,0.324,0.381,0.861,-5.1,-0.95,0.49,3,0
17956.265,0.324,0.393,0.848,-5.4,-0.46,0.58,3,0
17956.281,0.322,0.397,0.838,-6.99,0.67,0.58,3,0
17956.281,0.323,0.389,0.839,-8.97,2.2,1.19,3,0
17956.296,0.323,0.372,0.849,-10.28,3.88,2.11,3,0
17956.296,0.323,0.359,0.852,-10.68,4.97,2.29,3,0
17956.312,0.33,0.357,0.847,-11.08,6.38,1.68,3,0
17956.328,0.333,0.357,0.86,-12.6,9.28,0.52,3,0
17956.328,0.322,0.343,0.881,-13.28,11.44,-1.07,3,0
17956.343,0.316,0.332,0.891,-12.36,11.41,-2.38,3,0
17956.343,0.307,0.343,0.907,-11.08,10.41,-3.78,3,0
17956.359,0.287,0.352,0.908,-9.19,8.45,-4.94,3,0
17956.375,0.278,0.358,0.908,-7.48,5.86,-4.3,3,0
17956.39,0.293,0.374,0.901,-4.15,0.18,-0.31,3,0
17956.406,0.294,0.364,0.882,-2.69,-1.68,0.27,3,0
17956.406,0.297,0.352,0.876,-2.26,-3.08,0.76,3,0
17956.421,0.31,0.365,0.884,-1.92,-3.91,1.37,3,0
17956.437,0.301,0.37,0.883,-1.28,-4.82,0.95,3,0
17956.437,0.305,0.362,0.871,-1.89,-6.44,1.31,3,0
17956.453,0.323,0.366,0.87,-3.08,-6.44,1.5,3,0
17956.453,0.314,0.359,0.874,-3.42,-6.01,1.4,3,0
17956.468,0.317,0.359,0.887,-2.9,-5.43,1.53,3,0
17956.484,0.293,0.358,0.892,-1.71,-4.3,2.75,3,0
17956.484,0.304,0.341,0.898,0.27,-4.0,5.98,3,0
17956.5,0.329,0.333,0.897,4.55,-3.05,7.26,3,0
17956.515,0.316,0.337,0.881,9.16,-0.79,7.29,3,0
17956.515,0.305,0.344,0.878,9.98,0.06,7.2,3,0
17956.531,0.311,0.352,0.874,9.8,0.06,7.84,3,0
17956.546,0.314,0.361,0.868,9.4,-0.03,7.93,3,0
17956.546,0.308,0.37,0.861,8.15,-0.15,7.72,3,0
17956.562,0.305,0.372,0.857,6.68,-0.18,7.9,3,0
17956.562,0.313,0.377,0.853,3.39,0.95,9.19,3,0
17956.578,0.316,0.376,0.858,2.62,2.41,10.1,3,0
17956.593,0.315,0.365,0.859,1.86,3.6,10.86,3,0
17956.593,0.322,0.361,0.859,0.79,4.15,9.95,3,0
17956.609,0.321,0.365,0.86,-1.19,5.04,8.88,3,0
17956.625,0.322,0.364,0.87,-2.53,6.41,8.73,3,0
17956.625,0.326,0.347,0.876,-2.84,6.29,8.21,3,0
17956.64,0.338,0.342,0.873,-3.14,4.55,5.98,3,0
17956.656,0.343,0.345,0.873,-4.39,2.96,2.87,3,0
17956.656,0.34,0.341,0.871,-6.07,1.37,-0.31,3,0
17956.671,0.337,0.342,0.88,-7.14,0.52,-2.84,3,0
17956.687,0.322,0.354,0.877,-6.93,0.7,-3.81,3,0
17956.687,0.317,0.353,0.858,-6.93,1.56,-3.66,3,0
17956.703,0.319,0.344,0.864,-7.93,3.88,-2.99,3,0
17956.703,0.335,0.336,0.895,-7.23,7.54,-2.93,3,0
17956.718,0.319,0.34,0.881,-5.16,11.66,-4.67,3,0
17956.734,0.319,0.347,0.887,-4.82,15.17,-5.46,3,0
17956.734,0.305,0.368,0.891,-4.55,17.94,-5.86,3,0
17956.75,0.291,0.369,0.854,-4.97,19.47,-5.13,3,0
17956.765,0.287,0.387,0.885,-7.81,20.69,-3.94,3,0
17956.765,0.26,0.373,0.898,-7.32,18.95,-1.07,3,0
17956.781,0.266,0.359,0.866,-8.39,15.11,2.26,3,0
17956.796,0.269,0.336,0.88,-9.89,13.55,4.49,3,0
17956.796,0.257,0.299,0.905,-7.81,12.3,5.71,3,0
17956.812,0.257,0.276,0.924,-3.3,9.77,6.56,3,0
17956.812,0.256,0.262,0.94,1.77,5.19,5.89,3,0
17956.828,0.249,0.277,0.949,6.96,-0.58,4.15,3,0
17956.843,0.258,0.297,0.95,13.49,-6.41,2.87,3,0
17956.843,0.26,0.321,0.925,18.77,-14.16,1.53,3,0
17956.859,0.268,0.364,0.846,18.89,-21.24,0.06,3,0
17956.875,0.298,0.405,0.838,11.51,-20.91,0.34,3,0
17956.875,0.316,0.376,0.871,4.39,-14.1,-0.06,3,0
17956.89,0.282,0.371,0.91,3.33,-8.03,0.85,3,0
17956.906,0.28,0.339,0.917,6.16,-7.51,3.42,3,0
17956.906,0.288,0.301,0.913,7.75,-10.71,3.05,3,0
17956.921,0.315,0.302,0.911,9.58,-14.62,0.43,3,0
17956.937,0.323,0.318,0.902,11.02,-18.19,-4.15,3,0
17956.937,0.309,0.356,0.895,11.75,-22.43,-7.97,3,0
17956.953,0.284,0.46,0.917,14.04,-25.61,-7.45,3,0
17956.953,0.274,0.518,0.872,17.73,-27.38,1.34,3,0
17956.968,0.316,0.408,0.826,5.98,-32.04,3.88,3,0
17956.984,0.307,0.338,0.844,-7.05,-34.85,-1.19,3,0
17956.984,0.335,0.355,0.834,-10.62,-33.54,0.58,3,0
17957.0,0.373,0.337,0.819,-8.06,-29.36,1.37,3,0
17957.015,0.376,0.342,0.814,-4.36,-22.8,0.98,3,0
17957.015,0.389,0.369,0.811,-5.31,-17.46,-0.82,3,0
17957.031,0.388,0.377,0.804,-9.25,-13.28,-4.52,3,0
17957.046,0.379,0.37,0.812,-12.85,-9.13,-6.71,3,0
17957.046,0.376,0.377,0.813,-14.83,-4.76,-6.74,3,0
17957.062,0.378,0.378,0.825,-16.3,-0.09,-6.41,3,0
17957.078,0.354,0.359,0.843,-18.1,2.96,-6.93,3,0
17957.078,0.339,0.346,0.864,-20.33,3.05,-7.45,3,0
17957.093,0.337,0.351,0.88,-21.55,1.77,-7.78,3,0
17957.093,0.326,0.346,0.894,-21.58,0.82,-8.03,3,0
17957.109,0.32,0.333,0.893,-20.39,-0.21,-6.74,3,0
17957.125,0.326,0.333,0.887,-18.8,-0.43,-4.82,3,0
17957.125,0.332,0.325,0.892,-16.36,0.98,-3.3,3,0
17957.14,0.329,0.308,0.898,-13.21,2.78,-2.26,3,0
17957.156,0.323,0.305,0.904,-10.01,4.03,-1.19,3,0
17957.156,0.328,0.305,0.909,-6.56,4.21,-0.4,3,0
17957.171,0.328,0.307,0.909,-3.57,3.69,-0.4,3,0
17957.171,0.332,0.309,0.902,-1.37,2.75,-1.04,3,0
17957.187,0.344,0.31,0.904,-0.34,2.41,-1.77,3,0
17957.203,0.348,0.316,0.886,0.61,2.72,-3.48,3,0
17957.218,0.361,0.318,0.864,1.86,3.6,-5.25,3,0
17957.218,0.362,0.318,0.854,2.69,5.86,-6.84,3,0
17957.234,0.358,0.316,0.844,2.93,8.82,-8.27,3,0
17957.25,0.335,0.335,0.851,2.99,16.79,-9.4,3,0
17957.265,0.243,0.364,0.928,3.42,18.19,-8.12,3,0
17957.265,0.244,0.329,1.063,7.11,10.96,-1.95,3,0
17957.281,0.282,0.275,0.997,10.65,-2.29,-2.59,3,0
17957.296,0.29,0.275,0.937,16.05,-7.63,-4.24,3,0
17957.296,0.306,0.285,0.915,25.57,-7.78,-3.27,3,0
17957.312,0.306,0.321,0.894,32.01,-7.51,-3.42,3,0
17957.312,0.308,0.353,0.893,33.45,-8.85,-4.12,3,0
17957.328,0.316,0.374,0.903,32.5,-12.45,-6.1,3,0
17957.343,0.299,0.383,0.894,30.7,-16.82,-7.97,3,0
17957.343,0.3,0.367,0.875,28.08,-22.49,-8.64,3,0
17957.359,0.321,0.361,0.86,24.17,-27.74,-10.04,3,0
17957.375,0.329,0.357,0.852,19.9,-31.34,-12.54,3,0
17957.39,0.337,0.362,0.843,16.08,-33.94,-15.44,3,0
17957.39,0.342,0.376,0.831,12.09,-35.22,-18.34,3,0
17957.406,0.34,0.397,0.817,8.64,-34.88,-19.96,3,0
17957.421,0.356,0.424,0.788,5.49,-27.59,-14.74,3,0
17957.437,0.371,0.427,0.786,5.92,-20.91,-11.23,3,0
17957.437,0.368,0.423,0.794,6.56,-14.22,-8.67,3,0
17957.453,0.358,0.418,0.798,5.34,-10.25,-6.96,3,0
17957.453,0.368,0.424,0.808,2.66,-8.39,-6.23,3,0
17957.468,0.359,0.417,0.817,0.49,-6.16,-5.86,3,0
17957.484,0.35,0.398,0.829,-0.49,-4.36,-4.64,3,0
17957.484,0.35,0.398,0.844,-0.37,-3.54,-3.27,3,0
17957.5,0.344,0.39,0.849,0.43,-3.27,-3.17,3,0
17957.515,0.332,0.385,0.856,0.98,-3.81,-3.54,3,0
17957.515,0.323,0.398,0.861,0.76,-5.46,-2.75,3,0
17957.531,0.333,0.402,0.836,0.37,-7.08,-2.08,3,0
17957.546,0.347,0.395,0.809,-0.52,-6.23,-1.37,3,0
17957.546,0.336,0.421,0.819,-5.4,-3.88,1.56,3,0
17957.562,0.34,0.438,0.82,-10.83,-5.04,2.96,3,0
17957.578,0.354,0.411,0.825,-14.71,-5.65,2.93,3,0
17957.593,0.378,0.396,0.845,-16.02,-8.39,4.79,3,0
17957.593,0.39,0.396,0.831,-16.51,-9.22,4.0,3,0
17957.609,0.397,0.387,0.819,-16.36,-8.97,2.29,3,0
17957.625,0.389,0.375,0.81,-17.0,-7.45,0.34,3,0
17957.64,0.387,0.372,0.813,-17.21,-4.67,-0.79,3,0
17957.64,0.388,0.38,0.817,-16.02,-0.46,-1.07,3,0
17957.656,0.386,0.377,0.813,-14.89,4.0,-1.53,3,0
17957.656,0.378,0.362,0.825,-14.68,7.72,-1.92,3,0
17957.671,0.37,0.355,0.848,-15.11,10.13,-2.01,3,0
17957.687,0.359,0.349,0.865,-15.23,10.71,-2.69,3,0
17957.687,0.345,0.353,0.876,-15.47,10.19,-2.72,3,0
17957.703,0.342,0.348,0.891,-14.86,8.73,-2.08,3,0
17957.703,0.342,0.341,0.905,-13.25,6.71,-1.31,3,0
17957.718,0.337,0.338,0.912,-10.9,4.43,-1.37,3,0
17957.734,0.334,0.323,0.917,-7.75,1.28,-1.22,3,0
17957.75,0.351,0.32,0.911,-3.23,-1.89,-0.89,3,0
17957.765,0.361,0.321,0.876,6.71,-3.02,-2.04,3,0
17957.765,0.353,0.344,0.864,9.77,-1.5,-3.02,3,0
17957.781,0.353,0.347,0.859,11.38,-0.64,-2.26,3,0
17957.796,0.353,0.368,0.856,12.02,0.15,-1.92,3,0
17957.796,0.348,0.376,0.851,11.93,0.4,-1.28,3,0
17957.812,0.354,0.391,0.851,10.83,0.18,-0.98,3,0
17957.812,0.346,0.389,0.855,8.79,-0.73,-1.04,3,0
17957.828,0.346,0.388,0.853,6.47,-3.02,-1.19,3,0
17957.843,0.346,0.39,0.846,4.33,-4.91,-1.31,3,0
17957.843,0.344,0.386,0.837,2.56,-5.52,-0.92,3,0
17957.859,0.349,0.385,0.835,1.01,-5.1,0.4,3,0
17957.875,0.354,0.382,0.837,-0.4,-4.06,1.43,3,0
17957.89,0.359,0.371,0.84,-1.74,-3.48,1.86,3,0
17957.89,0.366,0.361,0.843,-2.69,-3.17,1.77,3,0
17957.906,0.372,0.35,0.846,-2.96,-2.5,1.16,3,0
17957.906,0.381,0.343,0.849,-2.2,-1.34,0.09,3,0
17957.937,0.377,0.348,0.85,0.61,1.28,-3.14,3,0
17957.937,0.373,0.354,0.844,2.14,2.72,-4.03,3,0
17957.953,0.372,0.369,0.849,3.33,4.49,-3.97,3,0
17957.953,0.37,0.377,0.857,4.0,6.01,-4.09,3,0
17957.968,0.363,0.375,0.857,4.55,6.65,-4.27,3,0
17957.984,0.359,0.371,0.857,4.64,6.65,-3.94,3,0
17957.984,0.355,0.37,0.859,4.79,6.07,-3.85,3,0
17958.0,0.366,0.368,0.858,4.79,5.4,-4.61,3,0
17958.015,0.366,0.36,0.852,5.1,5.58,-6.01,3,0
17958.015,0.365,0.356,0.847,5.34,6.62,-8.12,3,0
17958.031,0.35,0.351,0.841,5.98,8.61,-9.95,3,0
17958.046,0.342,0.357,0.84,6.74,10.96,-11.11,3,0
17958.046,0.328,0.374,0.846,6.87,14.04,-11.6,3,0
17958.062,0.308,0.384,0.857,7.14,16.14,-11.44,3,0
17958.062,0.3,0.388,0.875,7.45,16.57,-10.07,3,0
17958.078,0.299,0.406,0.885,7.78,15.59,-8.85,3,0
17958.093,0.287,0.402,0.889,8.24,13.37,-8.76,3,0
17958.093,0.274,0.39,0.888,7.54,9.61,-7.51,3,0
17958.109,0.275,0.393,0.882,6.78,4.82,-5.37,3,0
17958.125,0.28,0.407,0.877,5.65,0.49,-3.17,3,0
17958.125,0.282,0.42,0.871,3.75,-3.75,-1.19,3,0
17958.14,0.286,0.423,0.861,1.5,-7.66,0.61,3,0
17958.156,0.298,0.428,0.851,-1.01,-10.62,2.53,3,0
17958.156,0.309,0.419,0.845,-2.72,-12.54,3.69,3,0
17958.171,0.316,0.41,0.842,-4.67,-13.37,4.52,3,0
17958.187,0.324,0.403,0.836,-6.56,-13.67,5.19,3,0
17958.187,0.331,0.392,0.841,-7.93,-13.43,5.52,3,0
17958.203,0.34,0.389,0.849,-9.8,-13.18,5.77,3,0
17958.218,0.345,0.378,0.85,-10.47,-13.46,4.61,3,0
17958.218,0.349,0.37,0.854,-11.2,-13.76,3.69,3,0
17958.234,0.356,0.365,0.852,-11.26,-13.79,2.5,3,0
17958.234,0.364,0.363,0.855,-10.16,-13.64,1.16,3,0
17958.25,0.367,0.368,0.854,-9.31,-12.91,0.0,3,0
17958.265,0.369,0.354,0.851,-7.6,-11.54,-0.52,3,0
17958.265,0.379,0.349,0.853,-4.88,-9.49,-0.46,3,0
17958.281,0.384,0.344,0.854,-1.19,-6.71,-0.89,3,0
17958.296,0.384,0.339,0.852,2.08,-4.27,-2.32,3,0
17958.296,0.377,0.339,0.847,4.3,-2.23,-4.24,3,0
17958.312,0.379,0.342,0.848,6.2,-0.4,-6.2,3,0
17958.328,0.366,0.365,0.85,6.81,1.56,-7.87,3,0
17958.328,0.354,0.377,0.851,6.68,2.56,-9.09,3,0
17958.343,0.346,0.387,0.858,6.07,3.02,-9.31,3,0
17958.343,0.34,0.392,0.855,6.1,2.99,-9.22,3,0
17958.359,0.331,0.393,0.855,5.58,2.04,-8.64,3,0
17958.375,0.329,0.399,0.857,4.58,0.92,-7.93,3,0
17958.375,0.325,0.405,0.855,3.33,-0.09,-7.29,3,0
17958.39,0.329,0.402,0.846,2.29,-0.98,-6.23,3,0
17958.406,0.336,0.399,0.84,1.86,-1.01,-5.4,3,0
17958.406,0.335,0.394,0.831,1.5,-0.06,-4.79,3,0
17958.421,0.338,0.387,0.833,0.82,0.89,-4.36,3,0
17958.437,0.34,0.393,0.839,-0.24,1.86,-4.21,3,0
17958.437,0.338,0.389,0.842,-1.04,2.66,-4.27,3,0
17958.453,0.335,0.389,0.846,-1.56,3.27,-4.12,3,0
17958.453,0.333,0.398,0.853,-1.89,4.06,-3.45,3,0
17958.468,0.329,0.398,0.859,-1.56,4.52,-2.44,3,0
17958.484,0.327,0.395,0.863,-0.85,4.64,-1.4,3,0
17958.484,0.32,0.391,0.863,-0.37,4.24,-0.52,3,0
17958.5,0.32,0.385,0.863,0.06,3.51,0.49,3,0
17958.515,0.323,0.381,0.862,0.67,2.93,1.56,3,0
17958.515,0.325,0.383,0.864,1.07,2.41,2.2,3,0
17958.531,0.327,0.381,0.861,1.56,1.95,2.47,3,0
17958.546,0.327,0.381,0.859,2.75,1.71,2.84,3,0
17958.546,0.334,0.386,0.857,3.27,1.95,2.5,3,0
17958.562,0.337,0.389,0.856,3.05,2.35,1.8,3,0
17958.562,0.333,0.383,0.849,2.78,2.93,0.79,3,0
17958.578,0.332,0.389,0.848,2.38,3.2,0.24,3,0
17958.593,0.324,0.395,0.851,2.04,3.54,0.0,3,0
17958.593,0.316,0.393,0.853,1.56,3.57,0.46,3,0
17958.625,0.301,0.394,0.864,1.25,1.4,2.04,3,0
17958.64,0.322,0.401,0.872,0.7,-1.07,3.02,3,0
17958.64,0.309,0.397,0.866,0.55,-3.54,2.62,3,0
17958.656,0.323,0.395,0.857,0.06,-6.29,2.81,3,0
17958.656,0.33,0.399,0.848,-0.24,-7.78,2.78,3,0
17958.671,0.346,0.402,0.837,-0.98,-8.24,2.47,3,0
17958.687,0.346,0.398,0.827,-2.62,-7.93,1.53,3,0
17958.687,0.353,0.391,0.823,-5.04,-7.84,0.4,3,0
17958.703,0.362,0.394,0.819,-7.45,-7.14,-0.85,3,0
17958.703,0.361,0.393,0.816,-10.1,-5.74,-2.44,3,0
17958.718,0.36,0.386,0.823,-12.88,-4.06,-3.88,3,0
17958.734,0.357,0.384,0.831,-15.02,-2.81,-5.31,3,0
17958.734,0.356,0.382,0.836,-16.72,-2.04,-6.93,3,0
17958.75,0.352,0.38,0.841,-18.16,-1.4,-8.64,3,0
17958.765,0.349,0.376,0.846,-19.17,-0.49,-9.64,3,0
17958.765,0.344,0.373,0.851,-19.59,0.58,-10.01,3,0
17958.796,0.333,0.367,0.868,-16.88,3.94,-8.42,3,0
17958.796,0.33,0.363,0.879,-14.1,5.4,-6.71,3,0
17958.812,0.317,0.359,0.888,-10.9,6.16,-4.55,3,0
17958.828,0.314,0.356,0.899,-7.54,5.86,-2.66,3,0
17958.828,0.307,0.354,0.903,-4.43,4.64,-0.82,3,0
17958.843,0.31,0.351,0.904,-2.01,2.81,0.95,3,0
17958.843,0.317,0.351,0.899,0.09,1.01,1.98,3,0
17958.859,0.32,0.346,0.89,2.11,-0.37,2.35,3,0
17958.875,0.317,0.346,0.881,3.78,-0.85,2.53,3,0
17958.875,0.318,0.353,0.873,4.67,0.12,2.29,3,0
17958.89,0.309,0.353,0.863,5.01,1.53,1.95,3,0
17958.906,0.312,0.351,0.863,4.52,2.69,1.43,3,0
17958.906,0.311,0.36,0.864,3.78,3.69,0.31,3,0
17958.921,0.315,0.363,0.865,2.81,4.39,-0.67,3,0
17958.921,0.313,0.37,0.867,2.14,4.73,-1.16,3,0
17958.937,0.313,0.375,0.876,2.44,4.33,-0.76,3,0
17958.968,0.318,0.386,0.874,2.72,1.77,0.34,3,0
17958.968,0.329,0.389,0.872,2.47,0.31,1.13,3,0
17958.984,0.344,0.382,0.867,2.56,-0.15,1.19,3,0
17958.984,0.339,0.36,0.852,2.99,-0.06,0.61,3,0
17959.0,0.35,0.356,0.844,2.81,0.79,0.76,3,0
17959.015,0.351,0.367,0.843,2.66,2.87,0.18,3,0
17959.015,0.339,0.363,0.851,1.83,4.46,-1.16,3,0
17959.031,0.338,0.358,0.855,0.18,4.58,-2.93,3,0
17959.046,0.333,0.358,0.858,-0.67,4.36,-5.4,3,0
17959.046,0.32,0.363,0.863,-1.07,4.43,-7.29,3,0
17959.062,0.315,0.36,0.865,-0.67,4.49,-8.91,3,0
17959.062,0.306,0.363,0.866,-0.18,4.55,-10.25,3,0
17959.078,0.301,0.37,0.866,0.15,4.36,-11.32,3,0
17959.093,0.286,0.388,0.877,0.15,3.78,-12.27,3,0
17959.093,0.276,0.399,0.901,-0.21,1.4,-11.26,3,0
17959.109,0.286,0.39,0.898,-0.82,-2.56,-10.1,3,0
17959.125,0.295,0.378,0.898,-1.04,-5.4,-9.19,3,0
17959.125,0.301,0.367,0.886,-0.27,-6.87,-8.97,3,0
17959.14,0.301,0.358,0.876,-0.46,-7.9,-9.22,3,0
17959.156,0.295,0.351,0.872,-1.59,-9.25,-9.58,3,0
17959.156,0.3,0.367,0.872,-2.38,-10.96,-8.88,3,0
17959.171,0.301,0.38,0.873,-3.05,-12.27,-7.45,3,0
17959.187,0.299,0.376,0.879,-4.33,-14.25,-6.01,3,0
17959.187,0.307,0.368,0.885,-5.65,-17.33,-5.25,3,0
17959.203,0.316,0.352,0.892,-6.01,-20.69,-6.1,3,0
17959.218,0.322,0.333,0.901,-6.01,-24.38,-8.58,3,0
17959.218,0.329,0.338,0.899,-5.89,-28.6,-12.7,3,0
17959.234,0.328,0.353,0.895,-5.43,-31.68,-16.85,3,0
17959.234,0.328,0.36,0.877,-4.58,-33.75,-19.93,3,0
17959.25,0.329,0.376,0.858,-3.33,-34.36,-20.91,3,0
17959.265,0.333,0.382,0.841,-1.77,-33.51,-20.63,3,0
17959.265,0.341,0.396,0.826,-1.19,-30.88,-19.44,3,0
17959.281,0.348,0.413,0.807,-0.15,-26.28,-17.06,3,0
17959.296,0.354,0.421,0.795,1.16,-20.08,-13.28,3,0
17959.296,0.358,0.421,0.793,1.5,-13.52,-9.31,3,0
17959.312,0.361,0.418,0.799,1.13,-7.57,-6.07,3,0
17959.328,0.355,0.411,0.809,-0.06,-2.9,-3.63,3,0
17959.328,0.347,0.401,0.827,-1.98,0.15,-2.11,3,0
17959.343,0.339,0.381,0.848,-3.57,1.31,-1.01,3,0
17959.343,0.333,0.364,0.861,-4.55,0.95,-0.4,3,0
17959.359,0.333,0.36,0.865,-4.27,0.34,0.06,3,0
17959.375,0.336,0.361,0.866,-3.2,0.37,1.07,3,0
17959.375,0.339,0.368,0.869,-1.89,1.13,1.92,3,0
17959.39,0.339,0.37,0.866,-0.4,2.26,2.32,3,0
17959.406,0.341,0.37,0.862,1.04,3.63,3.51,3,0
17959.421,0.344,0.374,0.862,2.32,5.13,4.7,3,0
17959.421,0.341,0.368,0.855,3.72,6.41,5.37,3,0
17959.421,0.341,0.37,0.857,4.27,6.81,6.41,3,0
17959.437,0.34,0.379,0.866,3.72,6.29,6.81,3,0
17959.453,0.332,0.383,0.885,3.27,3.94,6.53,3,0
17959.453,0.316,0.385,0.897,2.26,-0.7,5.86,3,0
17959.468,0.317,0.397,0.887,2.26,-7.14,5.89,3,0
17959.484,0.337,0.391,0.878,1.98,-12.7,6.53,3,0
17959.5,0.348,0.389,0.859,1.59,-15.99,5.55,3,0
17959.5,0.356,0.382,0.836,1.92,-17.03,4.58,3,0
17959.515,0.367,0.375,0.821,1.46,-16.33,3.39,3,0
17959.515,0.37,0.382,0.811,-2.78,-11.99,0.4,3,0
17959.531,0.37,0.388,0.806,-4.73,-8.76,0.49,3,0
17959.546,0.369,0.401,0.808,-6.44,-5.49,1.43,3,0
17959.546,0.368,0.405,0.813,-8.03,-3.05,2.04,3,0
17959.562,0.36,0.375,0.844,-9.92,-2.2,2.08,3,0
17959.578,0.36,0.357,0.85,-11.17,-2.26,1.68,3,0
17959.578,0.359,0.349,0.857,-11.38,-2.29,1.43,3,0
17959.593,0.36,0.35,0.862,-11.11,-2.17,1.77,3,0
17959.593,0.362,0.356,0.869,-10.38,-1.59,2.26,3,0
17959.609,0.361,0.347,0.874,-8.58,-1.19,2.44,3,0
17959.625,0.36,0.343,0.877,-6.9,-1.28,2.84,3,0
17959.625,0.364,0.34,0.878,-5.07,-1.98,3.11,3,0
17959.64,0.369,0.338,0.877,-3.6,-2.93,2.72,3,0
17959.656,0.369,0.341,0.872,-2.11,-3.69,2.04,3,0
17959.656,0.37,0.336,0.86,0.49,-4.24,1.16,3,0
17959.671,0.373,0.354,0.849,2.32,-3.57,1.04,3,0
17959.687,0.38,0.371,0.842,3.6,-2.17,0.55,3,0
17959.687,0.373,0.366,0.836,4.36,-0.18,-0.52,3,0
17959.703,0.369,0.368,0.832,3.69,1.22,-1.04,3,0
17959.703,0.366,0.364,0.828,3.42,2.35,-2.32,3,0
17959.718,0.358,0.377,0.833,0.79,3.66,-2.47,3,0
17959.734,0.359,0.379,0.841,-1.62,4.12,-2.32,3,0
17959.734,0.352,0.369,0.848,-3.48,3.97,-2.26,3,0
17959.75,0.355,0.362,0.86,-4.55,2.56,-1.43,3,0
17959.765,0.362,0.364,0.874,-4.55,0.79,-0.79,3,0
17959.765,0.367,0.373,0.88,-4.21,-0.76,-0.67,3,0
17959.781,0.364,0.353,0.867,-2.01,-2.01,-1.77,3,0
17959.796,0.366,0.344,0.857,0.18,-3.11,-1.89,3,0
17959.796,0.37,0.359,0.851,0.82,-3.23,-2.35,3,0
17959.812,0.364,0.367,0.845,-0.37,-3.14,-2.62,3,0
17959.812,0.365,0.371,0.838,-2.01,-2.84,-2.53,3,0
17959.828,0.36,0.367,0.837,-3.3,-2.17,-2.11,3,0
17959.843,0.359,0.368,0.841,-5.07,-1.22,-1.62,3,0
17959.843,0.356,0.366,0.849,-6.87,-0.49,-1.74,3,0
17959.859,0.351,0.361,0.852,-8.18,0.06,-2.2,3,0
17959.875,0.341,0.356,0.854,-9.03,0.46,-2.75,3,0
17959.875,0.34,0.355,0.86,-8.94,0.37,-3.02,3,0
17959.89,0.339,0.364,0.868,-9.19,0.55,-2.08,3,0
17959.906,0.337,0.365,0.872,-9.43,0.24,-0.55,3,0
17959.906,0.35,0.362,0.887,-9.09,-0.34,1.34,3,0
17959.921,0.349,0.351,0.889,-7.69,-1.19,3.02,3,0
17959.921,0.353,0.336,0.887,-5.31,-2.84,5.01,3,0
17959.937,0.369,0.327,0.886,-1.89,-3.72,6.59,3,0
17959.953,0.378,0.324,0.876,1.53,-3.39,7.17,3,0
17959.953,0.384,0.31,0.865,5.31,-2.5,6.23,3,0
17959.968,0.379,0.315,0.861,8.15,-1.04,4.64,3,0
17959.984,0.375,0.327,0.851,9.67,0.24,3.08,3,0
17960.0,0.375,0.34,0.854,10.5,1.46,1.53,3,0
17960.0,0.364,0.353,0.85,10.65,2.84,0.34,3,0
17960.015,0.359,0.362,0.848,10.28,3.63,0.06,3,0
17960.015,0.353,0.373,0.848,9.25,3.69,0.27,3,0
17960.031,0.353,0.378,0.855,7.97,2.9,0.24,3,0
17960.046,0.353,0.374,0.858,6.78,1.71,-0.12,3,0
17960.046,0.353,0.37,0.851,5.74,0.15,-0.52,3,0
17960.062,0.358,0.366,0.84,4.21,-1.25,-1.07,3,0
17960.078,0.37,0.368,0.837,2.04,-1.86,-1.46,3,0
17960.078,0.375,0.371,0.83,-0.46,-1.65,-2.08,3,0
17960.093,0.378,0.36,0.829,-2.23,-0.95,-2.9,3,0
17960.093,0.374,0.368,0.838,-4.46,0.24,-3.11,3,0
17960.109,0.368,0.36,0.843,-5.86,1.04,-3.66,3,0
17960.125,0.362,0.354,0.856,-6.71,1.65,-3.66,3,0
17960.14,0.355,0.361,0.863,-6.71,1.98,-2.99,3,0
17960.14,0.35,0.353,0.867,-6.26,2.23,-2.78,3,0
17960.156,0.347,0.347,0.876,-5.46,2.44,-2.44,3,0
17960.156,0.341,0.342,0.881,-3.39,2.2,-2.2,3,0
17960.171,0.337,0.344,0.88,-1.1,1.53,-2.04,3,0
17960.187,0.335,0.35,0.88,0.67,0.95,-1.65,3,0
17960.187,0.335,0.354,0.875,2.14,0.09,-1.1,3,0
17960.203,0.339,0.362,0.871,3.42,-0.67,-0.15,3,0
17960.218,0.341,0.363,0.867,4.27,-0.89,0.55,3,0
17960.218,0.34,0.359,0.866,3.97,-1.46,1.25,3,0
17960.234,0.346,0.354,0.868,3.27,-2.56,1.74,3,0
17960.234,0.356,0.356,0.863,2.78,-3.3,1.83,3,0
17960.25,0.356,0.352,0.861,2.35,-3.54,1.19,3,0
17960.265,0.358,0.345,0.861,1.77,-3.69,0.52,3,0
17960.265,0.363,0.344,0.86,1.89,-3.57,-0.46,3,0
17960.281,0.362,0.346,0.855,2.38,-2.99,-1.4,3,0
17960.296,0.362,0.353,0.859,2.75,-2.5,-1.56,3,0
17960.296,0.359,0.365,0.86,3.42,-2.35,-1.04,3,0
17960.312,0.363,0.372,0.86,4.06,-2.47,-0.15,3,0
17960.328,0.367,0.372,0.855,5.1,-2.93,0.31,3,0
17960.328,0.365,0.373,0.849,6.04,-3.23,0.27,3,0
17960.343,0.365,0.375,0.843,6.41,-3.33,-0.24,3,0
17960.359,0.365,0.377,0.835,6.65,-2.9,-0.61,3,0
17960.359,0.359,0.382,0.825,5.98,-1.92,-0.82,3,0
17960.375,0.356,0.388,0.824,3.6,-0.95,-1.31,3,0
17960.375,0.354,0.386,0.828,-0.49,-0.52,-2.29,3,0
17960.39,0.347,0.38,0.834,-4.52,-0.52,-2.78,3,0
17960.406,0.34,0.381,0.84,-8.18,-0.7,-2.14,3,0
17960.406,0.342,0.376,0.851,-10.77,-0.89,-0.34,3,0
17960.421,0.346,0.379,0.857,-12.3,-0.61,2.41,3,0
17960.437,0.357,0.379,0.865,-12.3,-0.12,4.85,3,0
17960.437,0.362,0.363,0.864,-10.77,0.49,6.68,3,0
17960.453,0.369,0.351,0.86,-8.24,1.28,8.09,3,0
17960.453,0.377,0.341,0.862,-4.46,3.05,8.94,3,0
17960.468,0.376,0.335,0.854,-0.7,5.28,8.73,3,0
17960.484,0.374,0.336,0.852,1.86,7.66,8.51,3,0
17960.5,0.37,0.339,0.857,3.36,10.04,8.24,3,0
17960.5,0.367,0.34,0.855,4.73,11.78,7.45,3,0
17960.515,0.365,0.347,0.855,4.88,13.86,5.25,3,0
17960.515,0.36,0.348,0.853,3.14,13.98,3.36,3,0
17960.531,0.358,0.342,0.854,1.25,13.67,1.53,3,0
17960.546,0.358,0.34,0.855,0.06,14.01,-0.34,3,0
17960.562,0.355,0.334,0.857,-1.19,14.56,-2.62,3,0
17960.562,0.35,0.336,0.864,-2.5,14.86,-4.46,3,0
17960.578,0.346,0.338,0.862,-3.2,14.89,-6.13,3,0
17960.578,0.339,0.345,0.861,-3.36,15.32,-7.05,3,0
17960.593,0.333,0.359,0.866,-3.23,15.87,-6.74,3,0
17960.593,0.318,0.373,0.885,-2.84,15.53,-5.98,3,0
17960.609,0.286,0.391,0.937,-1.56,13.31,-4.43,3,0
17960.625,0.297,0.366,0.956,0.12,5.98,-2.87,3,0
17960.625,0.304,0.342,0.915,2.01,-0.55,-2.99,3,0
17960.64,0.323,0.312,0.891,5.92,-3.08,-2.78,3,0
17960.656,0.327,0.32,0.882,8.61,-4.21,-3.72,3,0
17960.656,0.325,0.342,0.861,10.53,-4.85,-5.04,3,0
17960.671,0.343,0.351,0.865,9.19,-5.37,-6.23,3,0
17960.687,0.331,0.401,0.876,3.63,-6.26,-8.55,3,0
17960.687,0.341,0.377,0.856,2.66,-7.57,-11.29,3,0
17960.703,0.331,0.327,0.845,3.57,-6.99,-13.12,3,0
17960.703,0.333,0.32,0.871,6.38,-4.91,-12.94,3,0
17960.718,0.316,0.348,0.89,9.55,-2.04,-11.84,3,0
17960.734,0.317,0.339,0.894,13.89,-1.1,-12.57,3,0
17960.75,0.302,0.411,0.926,11.99,0.15,-11.11,3,0
17960.75,0.287,0.412,0.906,12.85,-1.53,-9.8,3,0
17960.765,0.294,0.327,0.847,15.72,-4.46,-8.61,3,0
17960.765,0.318,0.313,0.843,19.26,-4.7,-6.35,3,0
17960.781,0.315,0.411,0.88,20.14,-2.11,-2.81,3,0
17960.796,0.303,0.465,0.887,17.43,-0.73,0.09,3,0
17960.796,0.306,0.393,0.848,15.81,-1.25,0.37,3,0
17960.812,0.34,0.332,0.838,16.88,0.58,0.98,3,0
17960.828,0.365,0.369,0.883,17.98,6.13,3.42,3,0
17960.828,0.378,0.39,0.927,22.03,12.15,3.88,3,0
17960.843,0.367,0.363,0.9,28.47,17.0,1.71,3,0
17960.859,0.375,0.315,0.884,34.61,20.6,-2.2,3,0
17960.859,0.35,0.295,0.922,37.51,21.45,-6.29,3,0
17960.875,0.307,0.319,0.997,36.23,14.22,-10.74,3,0
17960.875,0.305,0.342,1.052,28.38,-4.85,-18.22,3,0
17960.89,0.305,0.338,1.068,5.98,-32.56,-31.74,3,0
17960.906,0.328,0.339,1.053,-25.06,-62.2,-49.35,3,0
17960.906,0.41,0.402,0.983,-62.56,-87.59,-59.14,3,0
17960.921,0.36,0.339,1.005,-117.4,-100.22,-56.12,3,0
17960.937,0.407,0.193,0.957,-139.01,-104.46,-69.06,3,0
17960.937,0.463,0.137,0.951,-138.34,-99.58,-65.0,3,0
17960.953,0.454,0.13,0.953,-119.69,-85.85,-61.01,3,0
17960.968,0.492,0.116,0.911,-83.74,-70.77,-64.09,3,0
17960.968,0.515,0.156,0.862,-58.6,-58.14,-61.28,3,0
17960.984,0.436,0.191,0.829,-53.35,-49.13,-63.69,3,0
17960.984,0.436,0.167,0.793,-54.9,-46.94,-72.39,3,0
17961.0,0.405,0.185,0.796,-67.2,-48.34,-78.43,3,0
17961.015,0.375,0.184,0.784,-72.39,-48.55,-93.45,3,0
17961.015,0.395,0.19,0.743,-72.97,-49.9,-107.24,3,0
17961.031,0.366,0.238,0.728,-74.31,-46.17,-117.59,3,0
17961.046,0.347,0.262,0.718,-67.81,-39.64,-125.71,3,0
17961.046,0.319,0.263,0.689,-54.96,-31.77,-128.33,3,0
17961.062,0.302,0.292,0.669,-38.36,-21.45,-124.94,3,0
17961.078,0.28,0.334,0.71,-17.0,-9.31,-120.3,3,0
17961.078,0.226,0.368,0.744,8.91,-2.35,-116.82,3,0
17961.093,0.184,0.409,0.736,32.59,-4.64,-111.97,3,0
17961.093,0.147,0.454,0.699,49.17,-13.09,-106.78,3,0
17961.125,0.14,0.492,0.668,59.82,-20.72,-104.65,3,0
17961.125,0.182,0.599,0.657,64.97,-20.33,-108.58,3,0
17961.125,0.247,0.793,0.668,57.25,-3.39,-114.6,3,0
17961.14,0.272,0.977,0.712,23.8,24.51,-114.32,3,0
17961.156,0.18,1.019,0.822,-22.49,46.57,-101.17,3,0
17961.156,0.08,0.881,0.925,-45.38,51.48,-75.08,3,0
17961.171,0.04,0.711,0.941,-38.94,40.86,-45.11,3,0
17961.187,0.063,0.617,0.907,-29.54,24.2,-16.14,3,0
17961.187,0.151,0.599,0.908,-29.79,11.9,-0.49,3,0
17961.203,0.22,0.545,0.911,-34.85,7.29,2.14,3,0
17961.218,0.229,0.435,0.878,-42.12,6.9,-1.01,3,0
17961.218,0.228,0.312,0.861,-50.75,3.72,-2.66,3,0
17961.234,0.261,0.259,0.876,-58.69,0.27,-2.41,3,0
17961.25,0.315,0.235,0.892,-63.45,0.24,-1.1,3,0
17961.25,0.333,0.2,0.907,-62.87,3.57,-0.89,3,0
17961.265,0.333,0.174,0.927,-52.43,9.49,-1.1,3,0
17961.265,0.329,0.161,0.925,-32.47,17.64,-0.09,3,0
17961.281,0.33,0.171,0.936,-12.02,26.52,0.82,3,0
17961.296,0.318,0.204,0.94,5.1,34.97,-0.98,3,0
17961.312,0.286,0.234,0.926,18.13,39.28,-3.85,3,0
17961.312,0.274,0.283,0.921,23.62,39.61,-5.98,3,0
17961.328,0.265,0.323,0.93,22.0,38.09,-8.91,3,0
17961.328,0.22,0.37,0.968,13.89,33.91,-11.54,3,0
17961.343,0.184,0.419,1.003,4.27,24.69,-12.42,3,0
17961.359,0.183,0.423,0.992,2.38,13.98,-10.99,3,0
17961.359,0.192,0.423,0.948,2.69,6.65,-8.21,3,0
17961.375,0.197,0.421,0.92,1.8,3.69,-6.1,3,0
17961.375,0.187,0.403,0.908,2.62,2.99,-4.82,3,0
17961.39,0.181,0.391,0.887,3.3,2.47,-2.81,3,0
17961.406,0.181,0.381,0.874,0.67,1.59,-0.4,3,0
17961.406,0.19,0.368,0.873,-3.42,0.92,1.13,3,0
17961.421,0.204,0.359,0.879,-7.08,0.06,1.68,3,0
17961.437,0.218,0.358,0.893,-9.37,-0.49,2.62,3,0
17961.437,0.223,0.351,0.912,-8.91,-0.43,3.69,3,0
17961.453,0.228,0.336,0.919,-7.57,-0.31,4.46,3,0
17961.468,0.226,0.327,0.928,-6.26,-0.64,4.0,3,0
17961.468,0.224,0.308,0.933,-5.22,-1.46,3.6,3,0
17961.484,0.231,0.299,0.934,-2.84,-2.17,2.62,3,0
17961.5,0.237,0.304,0.926,3.91,-1.16,-0.58,3,0
17961.5,0.237,0.305,0.914,5.8,-0.18,-1.65,3,0
17961.515,0.236,0.313,0.912,7.32,0.24,-2.38,3,0
17961.515,0.24,0.324,0.917,9.64,0.46,-3.23,3,0
17961.531,0.241,0.346,0.904,10.96,0.73,-4.06,3,0
17961.546,0.238,0.355,0.896,10.53,0.64,-5.1,3,0
17961.546,0.236,0.358,0.888,9.95,0.64,-6.44,3,0
17961.562,0.232,0.367,0.887,8.64,0.61,-7.42,3,0
17961.578,0.225,0.382,0.892,5.49,0.24,-8.09,3,0
17961.578,0.216,0.384,0.898,1.95,-0.49,-8.45,3,0
17961.593,0.209,0.377,0.91,-2.35,-1.98,-8.24,3,0
17961.593,0.201,0.376,0.928,-6.26,-4.36,-7.9,3,0
17961.609,0.195,0.375,0.929,-7.2,-6.2,-6.23,3,0
17961.625,0.194,0.352,0.926,-5.55,-7.35,-3.72,3,0
17961.625,0.199,0.347,0.925,-3.3,-8.21,-1.86,3,0
17961.64,0.201,0.35,0.919,-1.71,-8.91,-0.09,3,0
17961.656,0.206,0.342,0.914,-0.52,-9.16,0.98,3,0
17961.656,0.215,0.336,0.905,1.34,-8.42,1.37,3,0
17961.671,0.227,0.335,0.893,4.27,-6.59,1.53,3,0
17961.687,0.243,0.337,0.884,7.93,-2.81,1.56,3,0
17961.687,0.264,0.328,0.882,12.15,2.38,1.22,3,0
17961.703,0.281,0.322,0.874,17.03,8.18,-0.55,3,0
17961.718,0.286,0.308,0.844,24.23,17.0,-1.77,3,0
17961.718,0.24,0.289,0.85,31.5,24.63,-4.27,3,0
17961.734,0.187,0.447,0.976,18.71,23.1,-6.81,3,0
17961.734,0.199,0.466,0.983,7.39,15.78,-5.55,3,0
17961.75,0.176,0.33,0.948,16.72,11.63,-4.64,3,0
17961.765,0.104,0.495,0.968,6.53,1.53,-2.41,3,0
17961.765,0.185,0.459,0.932,3.23,-9.0,3.63,3,0
17961.781,0.203,0.363,0.85,8.97,-13.67,5.62,3,0
17961.796,0.228,0.4,0.84,2.17,-13.0,6.84,3,0
17961.796,0.238,0.381,0.843,-1.01,-11.05,7.17,3,0
17961.812,0.224,0.341,0.84,-0.34,-8.85,7.9,3,0
17961.828,0.228,0.342,0.865,-0.64,-6.81,7.87,3,0
17961.828,0.225,0.336,0.892,2.2,-4.7,5.01,3,0
17961.843,0.211,0.339,0.916,6.32,-3.27,2.04,3,0
17961.859,0.194,0.358,0.927,9.92,-3.94,0.73,3,0
17961.859,0.199,0.361,0.916,14.83,-4.97,1.1,3,0
17961.875,0.171,0.382,0.931,18.25,-5.28,2.04,3,0
17961.875,0.189,0.453,0.92,14.65,-8.97,3.57,3,0
17961.89,0.244,0.367,0.838,22.77,-8.91,6.71,3,0
17961.906,0.211,0.387,0.813,23.53,-5.34,7.57,3,0
17961.906,0.229,0.466,0.845,12.48,-2.93,9.74,3,0
17961.921,0.232,0.449,0.85,7.26,-2.23,11.05,3,0
17961.937,0.21,0.46,0.848,3.91,-0.76,15.47,3,0
17961.937,0.23,0.482,0.868,-3.85,-0.37,20.02,3,0
17961.953,0.257,0.403,0.861,-11.38,-2.84,17.67,3,0
17961.953,0.238,0.396,0.859,-18.52,-2.59,15.2,3,0
17961.968,0.259,0.388,0.87,-20.87,-1.77,15.47,3,0
17961.984,0.265,0.349,0.88,-19.93,-1.04,14.28,3,0
17962.0,0.26,0.349,0.896,-18.65,0.55,13.31,3,0
17962.0,0.269,0.343,0.904,-15.14,1.25,12.57,3,0
17962.015,0.259,0.327,0.911,-10.71,1.53,10.86,3,0
17962.015,0.256,0.322,0.923,-5.19,1.13,9.4,3,0
17962.031,0.262,0.342,0.937,-1.46,1.59,7.75,3,0
17962.046,0.261,0.342,0.935,2.87,2.38,4.82,3,0
17962.062,0.245,0.33,0.91,7.66,3.51,2.44,3,0
17962.062,0.238,0.329,0.884,12.18,4.39,2.01,3,0
17962.078,0.238,0.34,0.871,14.95,5.68,2.75,3,0
17962.078,0.237,0.36,0.871,13.67,7.11,3.27,3,0
17962.093,0.229,0.368,0.879,9.67,7.69,2.59,3,0
17962.109,0.221,0.37,0.889,6.38,6.9,1.59,3,0
17962.109,0.218,0.381,0.901,5.65,5.19,1.01,3,0
17962.125,0.217,0.397,0.914,6.13,3.75,0.95,3,0
17962.125,0.213,0.406,0.916,7.39,2.75,1.04,3,0
17962.14,0.21,0.407,0.907,9.43,1.65,1.46,3,0
17962.156,0.21,0.404,0.887,11.2,0.37,2.38,3,0
17962.156,0.22,0.411,0.873,11.51,-0.79,2.93,3,0
17962.171,0.226,0.418,0.864,8.73,-1.07,2.9,3,0
17962.187,0.23,0.412,0.86,4.27,-1.65,2.35,3,0
17962.187,0.238,0.409,0.861,-0.46,-2.17,1.92,3,0
17962.203,0.246,0.404,0.862,-4.21,-2.53,1.68,3,0
17962.203,0.252,0.403,0.866,-6.62,-2.08,1.89,3,0
17962.218,0.253,0.401,0.871,-8.88,-0.95,2.14,3,0
17962.234,0.252,0.388,0.867,-10.13,-0.15,2.56,3,0
17962.234,0.253,0.378,0.869,-10.71,1.34,2.99,3,0
17962.25,0.247,0.371,0.877,-10.07,3.08,2.56,3,0
17962.265,0.244,0.364,0.89,-8.55,4.06,1.71,3,0
17962.265,0.237,0.355,0.895,-6.5,3.72,1.1,3,0
17962.281,0.246,0.36,0.903,-4.94,4.33,1.01,3,0
17962.296,0.245,0.374,0.92,-5.37,6.07,0.21,3,0
17962.296,0.226,0.355,0.92,-4.21,6.56,-0.82,3,0
17962.312,0.215,0.329,0.901,0.34,5.16,-1.25,3,0
17962.312,0.225,0.352,0.893,3.97,4.79,-0.98,3,0
17962.328,0.227,0.369,0.896,4.58,5.92,-1.68,3,0
17962.343,0.216,0.364,0.897,5.13,7.11,-2.62,3,0
17962.343,0.209,0.373,0.896,7.26,7.11,-2.38,3,0
17962.359,0.208,0.388,0.895,9.19,6.56,-1.25,3,0
17962.375,0.209,0.402,0.901,8.82,6.2,0.09,3,0
17962.375,0.204,0.403,0.909,7.9,5.4,0.95,3,0
17962.39,0.193,0.399,0.918,7.48,3.23,2.04,3,0
17962.406,0.192,0.394,0.912,7.35,-0.37,3.2,3,0
17962.406,0.204,0.392,0.902,7.48,-3.51,4.21,3,0
17962.421,0.218,0.405,0.908,5.62,-4.12,4.76,3,0
17962.421,0.217,0.4,0.911,4.03,-4.0,3.66,3,0
17962.437,0.206,0.38,0.901,3.94,-4.94,3.14,3,0
17962.453,0.213,0.365,0.886,5.04,-6.9,3.3,3,0
17962.453,0.229,0.374,0.876,5.1,-7.08,2.99,3,0
17962.468,0.235,0.376,0.874,2.87,-5.07,0.12,3,0
17962.484,0.239,0.372,0.879,4.12,-4.85,-0.92,3,0
17962.484,0.241,0.373,0.875,5.71,-4.12,-1.31,3,0
17962.5,0.249,0.389,0.87,6.29,-2.81,-1.83,3,0
17962.515,0.249,0.408,0.871,6.38,-1.71,-2.04,3,0
17962.515,0.243,0.423,0.875,5.46,-0.61,-1.77,3,0
17962.531,0.242,0.427,0.868,4.94,0.27,-1.8,3,0
17962.546,0.234,0.422,0.857,4.36,1.43,-1.53,3,0
17962.546,0.232,0.415,0.847,3.36,2.29,-0.61,3,0
17962.562,0.233,0.414,0.846,1.53,3.75,0.49,3,0
17962.562,0.225,0.413,0.85,-0.12,5.46,1.53,3,0
17962.578,0.221,0.409,0.859,-2.04,7.42,2.9,3,0
17962.593,0.212,0.404,0.875,-3.36,8.88,3.78,3,0
17962.593,0.2,0.389,0.889,-3.23,9.0,4.43,3,0
17962.609,0.203,0.395,0.91,-3.05,9.16,5.07,3,0
17962.625,0.196,0.399,0.925,-2.99,9.06,5.1,3,0
17962.64,0.188,0.39,0.936,-2.26,7.75,5.77,3,0
17962.64,0.183,0.375,0.933,-0.55,4.73,7.05,3,0
17962.656,0.194,0.369,0.93,1.22,1.1,8.24,3,0
17962.656,0.207,0.371,0.929,2.08,-1.95,8.39,3,0
17962.671,0.219,0.369,0.923,2.17,-4.33,7.42,3,0
17962.687,0.223,0.359,0.914,2.29,-7.02,6.13,3,0
17962.687,0.233,0.356,0.897,4.15,-9.55,5.04,3,0
17962.703,0.245,0.365,0.88,7.26,-10.5,3.91,3,0
17962.718,0.256,0.388,0.872,9.0,-8.7,2.35,3,0
17962.718,0.251,0.398,0.871,10.04,-5.98,0.21,3,0
17962.734,0.243,0.41,0.866,11.72,-3.63,-0.95,3,0
17962.734,0.235,0.415,0.854,14.65,-2.53,-1.34,3,0
17962.75,0.236,0.429,0.843,16.48,-0.73,-0.85,3,0
17962.765,0.234,0.435,0.831,15.96,1.43,-0.7,3,0
17962.781,0.227,0.433,0.828,13.61,3.39,-0.55,3,0
17962.781,0.225,0.433,0.827,10.44,4.79,-0.34,3,0
17962.796,0.225,0.448,0.836,5.58,6.59,0.0,3,0
17962.796,0.222,0.455,0.849,-0.76,8.15,-0.09,3,0
17962.812,0.209,0.443,0.866,-7.2,8.36,0.09,3,0
17962.828,0.204,0.424,0.88,-11.51,7.05,1.4,3,0
17962.828,0.205,0.415,0.891,-13.58,5.77,3.23,3,0
17962.843,0.209,0.401,0.9,-14.5,4.64,5.19,3,0
17962.843,0.213,0.39,0.915,-14.98,4.0,6.87,3,0
17962.859,0.214,0.371,0.924,-13.46,2.9,7.97,3,0
17962.875,0.214,0.353,0.924,-9.22,1.37,8.76,3,0
17962.875,0.221,0.351,0.919,-3.27,-0.37,8.85,3,0
17962.89,0.231,0.364,0.918,1.77,-0.4,8.12,3,0
17962.906,0.232,0.374,0.916,5.43,0.55,6.35,3,0
17962.906,0.227,0.383,0.907,8.79,1.25,4.36,3,0
17962.921,0.219,0.382,0.877,13.34,0.64,2.93,3,0
17962.937,0.223,0.393,0.853,16.11,0.73,2.56,3,0
17962.937,0.227,0.413,0.845,15.78,2.32,1.98,3,0
17962.953,0.218,0.425,0.853,13.25,5.01,1.5,3,0
17962.968,0.203,0.42,0.86,10.74,6.16,1.43,3,0
17962.968,0.196,0.41,0.866,10.01,5.34,2.08,3,0
17962.984,0.204,0.431,0.889,7.63,5.19,2.87,3,0
17963.0,0.197,0.432,0.906,4.33,4.52,1.56,3,0
17963.0,0.183,0.413,0.913,1.92,2.59,0.95,3,0
17963.015,0.184,0.398,0.913,1.46,-1.34,1.37,3,0
17963.015,0.2,0.397,0.909,1.04,-4.97,2.04,3,0
17963.031,0.212,0.394,0.907,-0.09,-7.75,1.53,3,0
17963.046,0.222,0.395,0.908,-0.43,-10.25,0.64,3,0
17963.046,0.229,0.395,0.892,1.34,-12.94,-0.21,3,0
17963.062,0.246,0.396,0.879,4.24,-14.83,-0.34,3,0
17963.078,0.264,0.418,0.88,4.43,-14.34,-0.7,3,0
17963.078,0.271,0.426,0.884,4.97,-12.42,-2.93,3,0
17963.093,0.256,0.413,0.865,7.45,-11.35,-4.7,3,0
17963.109,0.253,0.407,0.835,11.96,-11.51,-4.82,3,0
17963.109,0.265,0.436,0.813,13.86,-9.83,-4.64,3,0
17963.125,0.268,0.457,0.806,11.96,-6.1,-6.2,3,0
17963.125,0.254,0.464,0.804,7.78,-1.28,-7.32,3,0
17963.14,0.227,0.462,0.804,3.94,1.34,-6.78,3,0
17963.156,0.216,0.465,0.809,1.1,2.69,-4.24,3,0
17963.156,0.219,0.486,0.825,-3.91,6.07,-2.04,3,0
17963.171,0.207,0.469,0.842,-10.25,9.37,-1.22,3,0
17963.171,0.194,0.439,0.864,-15.11,10.53,0.46,3,0
17963.187,0.193,0.416,0.88,-16.85,9.34,3.02,3,0
17963.203,0.205,0.403,0.895,-17.3,7.97,5.62,3,0
17963.218,0.219,0.393,0.909,-17.67,6.71,6.44,3,0
17963.218,0.222,0.376,0.914,-17.33,5.31,5.95,3,0
17963.234,0.226,0.352,0.916,-14.62,3.27,4.88,3,0
17963.234,0.234,0.355,0.922,-10.47,2.72,3.78,3,0
17963.25,0.228,0.356,0.924,-5.58,2.81,1.71,3,0
17963.265,0.22,0.355,0.925,-0.49,2.75,0.0,3,0
17963.281,0.207,0.365,0.923,6.16,1.56,-1.19,3,0
17963.281,0.198,0.381,0.911,13.03,0.27,-1.68,3,0
17963.296,0.196,0.398,0.903,18.04,-1.1,-1.71,3,0
17963.296,0.186,0.421,0.898,20.33,-1.65,-1.65,3,0
17963.312,0.171,0.436,0.889,20.39,-3.02,-1.01,3,0
17963.328,0.16,0.444,0.887,18.34,-6.04,0.18,3,0
17963.328,0.16,0.455,0.888,13.92,-9.8,1.77,3,0
17963.343,0.162,0.454,0.886,8.55,-14.71,2.87,3,0
17963.343,0.183,0.466,0.897,1.68,-18.95,3.81,3,0
17963.359,0.191,0.477,0.898,-4.7,-22.74,4.33,3,0
17963.375,0.196,0.468,0.899,-8.94,-26.37,5.89,3,0
17963.375,0.192,0.446,0.894,-10.53,-29.51,8.94,3,0
17963.39,0.188,0.445,0.897,-10.35,-31.8,12.76,3,0
17963.406,0.166,0.444,0.9,-9.43,-34.42,17.06,3,0
17963.406,0.145,0.453,0.922,-7.81,-36.23,22.06,3,0
17963.421,0.111,0.481,0.952,-4.49,-36.5,27.62,3,0
17963.437,0.061,0.515,0.981,1.04,-35.92,34.12,3,0
17963.437,0.011,0.519,1.02,8.03,-34.0,42.76,3,0
17963.453,-0.017,0.473,1.04,18.92,-32.26,51.79,3,0
17963.468,0.002,0.483,1.072,42.6,-5.55,77.97,3,0
17963.468,0.064,0.45,1.141,53.96,26.58,89.27,3,0
17963.484,0.14,0.419,1.201,57.53,73.27,94.7,3,0
17963.484,0.049,0.423,1.34,48.22,134.65,94.12,3,0
17963.5,-0.089,0.363,1.606,37.48,191.93,76.27,3,0
17963.515,-0.098,0.327,1.848,18.59,223.3,78.52,3,0
17963.515,-0.273,0.288,1.876,4.49,240.76,73.52,3,0
17963.531,-0.364,0.276,1.975,-0.52,252.75,67.96,3,0
17963.546,-0.526,0.271,2.111,-5.1,252.94,60.73,3,0
17963.562,-0.703,0.165,2.189,-9.52,220.22,52.43,3,0
17963.562,-0.746,0.121,2.23,-7.45,154.03,45.08,3,0
17963.578,-0.706,0.163,2.209,2.04,64.58,44.1,3,0
17963.578,-0.619,0.137,2.068,14.1,-35.55,45.47,3,0
17963.593,-0.505,0.116,1.851,13.12,-139.29,45.78,3,0
17963.609,-0.336,0.146,1.561,-1.13,-241.71,40.41,3,0
17963.609,-0.206,0.12,1.192,-19.62,-334.24,27.99,3,0
17963.625,-0.099,0.071,0.787,-40.53,-409.13,13.43,3,0
17963.64,0.038,0.093,0.383,-60.24,-461.26,2.41,3,0
17963.64,0.147,0.14,0.004,-75.05,-491.99,-3.39,3,0
17963.656,0.197,0.14,-0.356,-85.91,-506.88,-4.33,3,0
17963.656,0.237,0.155,-0.742,-95.98,-507.71,1.4,3,0
17963.671,0.367,0.218,-1.143,-109.81,-490.83,20.2,3,0
17963.687,0.552,0.31,-1.437,-125.22,-449.26,47.7,3,0
17963.687,0.734,0.348,-1.504,-126.56,-384.23,70.59,3,0
17963.703,0.994,0.216,-1.332,-101.2,-296.49,85.88,3,0
17963.718,1.183,0.075,-1.172,-55.67,-186.1,78.01,3,0
17963.718,1.271,0.108,-1.045,-13.15,-69.89,48.19,3,0
17963.734,1.251,0.248,-0.86,14.22,40.47,7.14,3,0
17963.75,1.125,0.382,-0.54,26.31,138.71,-32.38,3,0
17963.75,0.967,0.519,-0.161,25.79,220.34,-56.89,3,0
17963.765,0.724,0.741,0.236,11.35,286.66,-64.76,3,0
17963.781,0.382,0.949,0.679,-14.98,328.93,-57.5,3,0
17963.781,0.091,0.985,1.104,-50.11,330.97,-38.48,3,0
17963.796,-0.049,0.818,1.437,-92.38,287.97,-16.3,3,0
17963.796,-0.045,0.564,1.653,-131.72,211.95,-5.28,3,0
17963.812,-0.001,0.341,1.736,-153.97,119.05,-9.31,3,0
17963.828,0.044,0.14,1.701,-150.21,28.41,-16.94,3,0
17963.828,0.087,-0.026,1.585,-128.51,-52.92,-22.68,3,0
17963.843,0.129,-0.128,1.397,-97.69,-123.05,-26.0,3,0
17963.843,0.167,-0.204,1.127,-59.51,-178.29,-29.51,3,0
17963.859,0.194,-0.241,0.773,-16.51,-218.27,-35.49,3,0
17963.875,0.237,-0.183,0.43,21.49,-241.98,-44.19,3,0
17963.875,0.296,-0.073,0.14,48.52,-246.62,-56.0,3,0
17963.89,0.357,0.037,-0.074,62.23,-235.42,-70.59,3,0
17963.906,0.467,0.151,-0.173,63.75,-211.04,-86.15,3,0
17963.921,0.602,0.27,-0.198,57.83,-174.05,-100.56,3,0
17963.921,0.73,0.366,-0.18,49.62,-126.71,-111.85,3,0
17963.937,0.808,0.431,-0.126,42.21,-74.4,-120.4,3,0
17963.937,0.847,0.48,-0.037,35.86,-22.03,-123.23,3,0
17963.953,0.869,0.56,0.125,31.07,27.01,-118.9,3,0
17963.968,0.836,0.661,0.32,30.67,68.51,-105.14,3,0
17963.968,0.795,0.72,0.492,32.41,99.58,-78.95,3,0
17963.984,0.777,0.775,0.662,31.4,122.5,-44.95,3,0
17963.984,0.724,0.763,0.851,24.14,134.65,-12.48,3,0
17964.0,0.705,0.704,1.064,12.82,127.84,8.97,3,0
17964.015,0.739,0.606,1.233,4.43,99.49,9.55,3,0
17964.031,0.756,0.54,1.334,-0.37,58.02,-7.23,3,0
17964.031,0.714,0.525,1.338,0.12,8.03,-23.62,3,0
17964.046,0.715,0.51,1.254,4.67,-44.95,-29.85,3,0
17964.046,0.742,0.493,1.105,9.86,-89.66,-27.31,3,0
17964.062,0.763,0.449,0.921,16.27,-121.56,-21.09,3,0
17964.078,0.797,0.394,0.708,24.81,-140.08,-15.99,3,0
17964.078,0.829,0.351,0.502,34.94,-144.6,-13.89,3,0
17964.093,0.843,0.304,0.299,45.38,-138.13,-13.58,3,0
17964.109,0.897,0.303,0.092,54.26,-122.71,-14.59,3,0
17964.109,0.915,0.341,-0.066,61.71,-97.75,-19.04,3,0
17964.125,0.944,0.41,-0.151,61.86,-64.79,-23.99,3,0
17964.125,0.976,0.479,-0.177,52.43,-22.0,-26.25,3,0
17964.14,0.977,0.51,-0.157,36.19,29.08,-26.06,3,0
17964.156,0.96,0.542,-0.064,15.72,81.36,-27.86,3,0
17964.156,0.907,0.546,0.056,-3.66,129.92,-33.48,3,0
17964.171,0.824,0.534,0.205,-21.49,172.25,-39.8,3,0
17964.187,0.743,0.601,0.407,-37.87,205.33,-43.89,3,0
17964.187,0.608,0.73,0.655,-51.97,226.72,-43.7,3,0
17964.203,0.444,0.737,0.871,-69.58,231.6,-33.3,3,0
17964.218,0.359,0.7,1.074,-84.9,216.9,-15.66,3,0
17964.218,0.307,0.632,1.251,-85.06,184.27,0.89,3,0
17964.234,0.31,0.522,1.389,-67.87,133.76,6.44,3,0
17964.234,0.378,0.508,1.458,-41.9,70.47,3.51,3,0
17964.25,0.435,0.571,1.357,-9.83,1.86,-0.24,3,0
17964.265,0.469,0.646,1.147,21.03,-64.46,-1.8,3,0
17964.265,0.527,0.687,0.91,45.32,-120.7,0.98,3,0
17964.281,0.595,0.715,0.664,64.61,-161.53,5.65,3,0
17964.296,0.631,0.725,0.403,81.76,-187.87,8.67,3,0
17964.296,0.633,0.724,0.132,98.73,-199.84,7.87,3,0
17964.312,0.647,0.77,-0.143,111.18,-195.38,4.46,3,0
17964.312,0.693,0.872,-0.369,112.34,-173.31,2.56,3,0
17964.328,0.766,0.989,-0.468,102.45,-134.28,5.04,3,0
17964.343,0.817,1.062,-0.46,89.91,-82.25,13.95,3,0
17964.343,0.81,1.034,-0.413,81.76,-22.52,28.84,3,0
17964.359,0.744,0.913,-0.365,78.1,36.01,47.61,3,0
17964.375,0.719,0.821,-0.287,77.61,92.56,69.43,3,0
17964.375,0.646,0.771,-0.176,83.5,138.1,83.65,3,0
17964.39,0.58,0.685,-0.037,95.03,171.67,92.07,3,0
17964.406,0.49,0.601,0.11,105.32,193.37,97.9,3,0
17964.421,0.425,0.567,0.259,111.06,202.09,101.69,3,0
17964.421,0.418,0.549,0.402,114.29,201.36,103.27,3,0
17964.437,0.414,0.533,0.544,116.03,196.66,101.05,3,0
17964.437,0.378,0.513,0.677,110.35,167.52,87.07,3,0
17964.453,0.348,0.485,0.781,104.86,146.18,79.44,3,0
17964.468,0.333,0.467,0.852,99.06,123.97,72.97,3,0
17964.468,0.312,0.469,0.895,92.23,102.97,69.49,3,0
17964.484,0.351,0.498,0.914,84.78,85.6,66.9,3,0
17964.484,0.38,0.48,0.895,77.7,72.7,65.4,3,0
17964.5,0.419,0.453,0.872,70.16,65.07,64.67,3,0
17964.515,0.461,0.428,0.848,64.12,62.04,62.87,3,0
17964.515,0.46,0.392,0.822,60.09,61.71,59.11,3,0
17964.531,0.509,0.371,0.812,56.58,64.06,57.16,3,0
17964.546,0.526,0.35,0.793,52.86,69.46,56.0,3,0
17964.546,0.535,0.309,0.796,47.79,73.37,53.32,3,0
17964.562,0.545,0.279,0.805,43.64,75.5,47.55,3,0
17964.578,0.551,0.281,0.812,41.6,76.91,37.78,3,0
17964.578,0.543,0.275,0.815,39.83,76.42,26.22,3,0
17964.593,0.518,0.277,0.824,37.51,74.16,15.41,3,0
17964.593,0.5,0.312,0.834,34.64,70.65,7.32,3,0
17964.609,0.472,0.347,0.84,31.34,66.35,1.04,3,0
17964.625,0.443,0.374,0.846,26.46,62.07,-3.69,3,0
17964.64,0.419,0.396,0.854,20.08,56.86,-7.05,3,0
17964.64,0.407,0.418,0.86,14.01,50.87,-10.74,3,0
17964.656,0.398,0.44,0.863,8.79,45.05,-14.92,3,0
17964.656,0.386,0.453,0.86,3.6,39.28,-19.38,3,0
17964.671,0.369,0.467,0.855,-1.68,33.72,-24.41,3,0
17964.687,0.354,0.479,0.85,-6.74,29.18,-28.87,3,0
17964.687,0.338,0.489,0.853,-12.82,26.31,-32.29,3,0
17964.703,0.323,0.492,0.859,-19.78,24.93,-35.13,3,0
17964.718,0.302,0.486,0.873,-26.31,23.96,-37.6,3,0
17964.718,0.264,0.481,0.896,-31.13,22.34,-39.09,3,0
17964.734,0.237,0.488,0.918,-34.61,19.59,-39.95,3,0
17964.75,0.201,0.49,0.931,-36.35,13.92,-42.27,3,0
17964.75,0.186,0.499,0.934,-37.14,6.56,-45.29,3,0
17964.765,0.172,0.518,0.923,-38.42,-0.82,-48.95,3,0
17964.765,0.158,0.536,0.914,-40.22,-8.15,-52.25,3,0
17964.781,0.149,0.548,0.902,-42.76,-14.4,-53.56,3,0
17964.796,0.151,0.561,0.89,-45.63,-19.75,-53.8,3,0
17964.796,0.16,0.553,0.872,-47.27,-24.81,-53.47,3,0
17964.812,0.18,0.544,0.861,-46.11,-28.47,-53.19,3,0
17964.828,0.189,0.54,0.843,-41.72,-30.37,-53.41,3,0
17964.828,0.208,0.54,0.834,-34.46,-31.28,-54.23,3,0
17964.843,0.203,0.538,0.834,-22.52,-30.61,-56.28,3,0
17964.843,0.283,0.635,0.856,-9.09,-20.57,-61.8,3,0
17964.859,0.414,0.882,0.945,-10.28,5.58,-68.79,3,0
17964.875,0.337,0.937,1.01,-27.41,32.78,-71.57,3,0
17964.875,0.139,0.731,1.04,-37.2,36.13,-65.74,3,0
17964.89,0.112,0.589,1.044,-27.31,18.19,-45.53,3,0
17964.906,0.153,0.579,0.994,-1.22,-2.41,-26.73,3,0
17964.906,0.271,0.583,0.895,19.71,-20.45,-15.93,3,0
17964.921,0.279,0.551,0.806,24.2,-30.24,-16.14,3,0
17964.937,0.293,0.549,0.73,18.98,-37.42,-21.24,3,0
17964.937,0.316,0.528,0.693,10.96,-41.35,-23.1,3,0
17964.953,0.323,0.562,0.67,4.55,-40.68,-25.12,3,0
17964.953,0.347,0.578,0.651,-2.87,-38.88,-25.57,3,0
17964.984,0.37,0.597,0.645,-10.56,-35.46,-26.31,3,0
17964.984,0.367,0.622,0.664,-17.09,-30.92,-26.0,3,0
17964.984,0.363,0.629,0.679,-20.91,-26.98,-22.8,3,0
17965.0,0.371,0.632,0.696,-23.16,-23.62,-17.52,3,0
17965.015,0.377,0.61,0.705,-23.62,-21.33,-11.87,3,0
17965.015,0.397,0.604,0.712,-22.13,-18.13,-7.93,3,0
17965.031,0.402,0.577,0.71,-19.53,-14.04,-3.66,3,0
17965.046,0.409,0.571,0.703,-16.02,-9.55,-0.95,3,0
17965.046,0.424,0.558,0.691,-12.48,-4.79,1.56,3,0
17965.062,0.433,0.54,0.683,-11.29,0.52,2.23,3,0
17965.078,0.43,0.519,0.678,-11.47,5.98,0.52,3,0
17965.078,0.417,0.506,0.683,-12.27,10.56,-2.04,3,0
17965.093,0.418,0.509,0.686,-12.73,14.47,-4.18,3,0
17965.093,0.409,0.515,0.697,-13.06,18.65,-6.9,3,0
17965.109,0.395,0.532,0.716,-13.0,22.28,-9.98,3,0
17965.125,0.377,0.555,0.747,-12.15,24.99,-11.99,3,0
17965.125,0.337,0.571,0.772,-9.98,26.09,-11.84,3,0
17965.14,0.31,0.576,0.79,-8.42,24.84,-8.03,3,0
17965.156,0.299,0.597,0.805,-6.93,22.52,-2.47,3,0
17965.171,0.277,0.59,0.798,-3.3,19.96,3.45,3,0
17965.171,0.297,0.588,0.783,0.18,18.71,9.16,3,0
17965.187,0.283,0.582,0.766,3.51,20.66,13.34,3,0
17965.187,0.259,0.559,0.746,5.68,22.58,18.19,3,0
17965.203,0.293,0.564,0.734,6.44,24.32,23.35,3,0
17965.218,0.296,0.566,0.735,5.92,27.41,26.98,3,0
17965.218,0.292,0.56,0.749,2.75,28.96,29.73,3,0
17965.234,0.298,0.554,0.768,-1.56,28.26,31.77,3,0
17965.234,0.308,0.555,0.783,-5.28,26.37,33.08,3,0
17965.25,0.311,0.554,0.796,-7.69,24.14,33.05,3,0
17965.265,0.311,0.54,0.795,-8.61,21.82,32.2,3,0
17965.265,0.316,0.523,0.8,-8.82,19.75,32.14,3,0
17965.281,0.317,0.5,0.816,-6.59,18.71,31.92,3,0
17965.296,0.318,0.49,0.81,-1.62,17.94,32.32,3,0
17965.296,0.327,0.496,0.789,4.64,18.56,34.15,3,0
17965.312,0.334,0.498,0.772,10.13,20.97,35.52,3,0
17965.328,0.343,0.497,0.774,13.15,23.32,35.92,3,0
17965.328,0.342,0.496,0.77,14.19,24.35,35.0,3,0
17965.343,0.338,0.502,0.766,12.45,24.51,33.02,3,0
17965.359,0.333,0.506,0.767,8.45,24.17,30.85,3,0
17965.359,0.331,0.509,0.774,3.72,23.93,29.39,3,0
17965.375,0.33,0.511,0.786,0.4,23.44,28.41,3,0
17965.375,0.326,0.507,0.804,-0.64,22.06,27.62,3,0
17965.39,0.315,0.5,0.82,-1.37,19.93,27.13,3,0
17965.406,0.312,0.511,0.816,-2.84,17.24,27.47,3,0
17965.406,0.322,0.52,0.813,-2.72,14.86,28.26,3,0
17965.421,0.324,0.504,0.808,-1.16,10.96,26.06,3,0
17965.437,0.319,0.495,0.803,-2.47,9.64,25.03,3,0
17965.437,0.317,0.492,0.792,-3.45,9.7,25.57,3,0
17965.453,0.325,0.497,0.79,-1.95,10.77,25.73,3,0
17965.468,0.341,0.489,0.791,1.5,11.96,25.15,3,0
17965.468,0.341,0.484,0.793,4.12,12.97,24.51,3,0
17965.484,0.339,0.481,0.798,4.94,12.73,23.71,3,0
17965.5,0.351,0.488,0.798,4.7,11.84,23.04,3,0
17965.5,0.349,0.49,0.794,3.97,11.02,21.61,3,0
17965.515,0.351,0.482,0.796,2.5,9.58,19.44,3,0
17965.515,0.348,0.468,0.794,1.68,8.12,16.97,3,0
17965.531,0.353,0.471,0.794,2.01,7.11,14.13,3,0
17965.546,0.344,0.471,0.79,2.62,6.78,10.71,3,0
17965.562,0.339,0.469,0.791,2.38,5.8,7.84,3,0
17965.562,0.335,0.482,0.793,1.5,4.79,5.52,3,0
17965.562,0.33,0.485,0.797,-0.24,3.23,3.05,3,0
17965.578,0.329,0.49,0.802,-2.69,1.77,1.16,3,0
17965.593,0.324,0.488,0.808,-4.94,0.24,-0.12,3,0
17965.593,0.32,0.488,0.812,-6.41,-1.4,-0.49,3,0
17965.609,0.321,0.497,0.817,-7.63,-2.56,0.4,3,0
17965.625,0.326,0.49,0.819,-8.42,-3.75,1.46,3,0
17965.64,0.331,0.474,0.821,-8.67,-4.91,1.83,3,0
17965.64,0.334,0.455,0.821,-9.16,-6.1,0.89,3,0
17965.656,0.338,0.45,0.816,-8.97,-7.45,-0.43,3,0
17965.656,0.353,0.452,0.81,-7.69,-8.03,-1.37,3,0
17965.671,0.355,0.449,0.81,-6.59,-8.27,-3.14,3,0
17965.687,0.355,0.437,0.81,-4.88,-8.48,-5.19,3,0
17965.687,0.36,0.445,0.806,-2.66,-8.48,-7.29,3,0
17965.703,0.359,0.454,0.801,0.37,-8.3,-8.94,3,0
17965.703,0.36,0.467,0.8,2.47,-7.57,-10.32,3,0
17965.718,0.353,0.479,0.803,4.43,-6.5,-11.44,3,0
17965.734,0.34,0.483,0.793,6.99,-5.4,-11.75,3,0
17965.734,0.328,0.495,0.786,8.94,-4.58,-10.9,3,0
17965.75,0.329,0.501,0.784,10.9,-3.75,-9.37,3,0
17965.765,0.325,0.504,0.781,11.23,-2.72,-8.55,3,0
17965.765,0.323,0.504,0.779,9.4,-2.44,-8.55,3,0
17965.781,0.322,0.502,0.786,6.23,-2.99,-8.67,3,0
17965.796,0.324,0.499,0.791,2.72,-4.09,-9.13,3,0
17965.796,0.327,0.499,0.792,-0.55,-5.25,-9.83,3,0
17965.812,0.331,0.496,0.796,-3.05,-6.78,-10.74,3,0
17965.828,0.337,0.488,0.8,-4.18,-8.24,-11.72,3,0
17965.828,0.343,0.491,0.798,-4.76,-9.43,-12.91,3,0
17965.843,0.348,0.484,0.793,-4.76,-10.07,-14.25,3,0
17965.843,0.352,0.484,0.793,-4.21,-10.04,-15.29,3,0
17965.859,0.347,0.499,0.791,-3.14,-9.46,-15.38,3,0
17965.875,0.348,0.515,0.785,-1.4,-8.42,-13.76,3,0
17965.89,0.353,0.515,0.78,0.79,-7.14,-11.84,3,0
17965.89,0.354,0.512,0.774,2.26,-5.95,-10.41,3,0
17965.906,0.355,0.508,0.768,2.38,-5.01,-9.77,3,0
17965.906,0.355,0.501,0.762,1.01,-4.0,-10.13,3,0
17965.921,0.351,0.502,0.755,-1.31,-2.2,-11.35,3,0
17965.937,0.338,0.491,0.753,-3.81,-0.67,-11.9,3,0
17965.937,0.345,0.498,0.76,-5.62,1.34,-12.18,3,0
17965.953,0.327,0.508,0.764,-6.53,3.69,-12.63,3,0
17965.953,0.317,0.516,0.774,-7.6,5.28,-11.93,3,0
17965.968,0.311,0.526,0.788,-8.18,6.47,-10.07,3,0
17965.984,0.3,0.528,0.799,-8.51,7.14,-7.63,3,0
17965.984,0.296,0.527,0.811,-8.45,7.05,-4.43,3,0
17966.0,0.299,0.527,0.82,-7.57,6.84,-0.95,3,0
17966.015,0.292,0.513,0.821,-6.62,5.74,2.04,3,0
17966.015,0.3,0.496,0.822,-5.92,4.15,4.27,3,0
17966.031,0.302,0.488,0.822,-5.58,2.56,5.01,3,0
17966.046,0.311,0.473,0.816,-4.85,1.07,4.91,3,0
17966.046,0.314,0.461,0.81,-3.91,0.09,4.0,3,0
17966.062,0.324,0.465,0.807,-3.17,0.0,2.69,3,0
17966.078,0.318,0.467,0.809,-2.47,0.43,1.46,3,0
17966.078,0.326,0.47,0.807,-1.53,0.34,0.82,3,0
17966.093,0.328,0.474,0.809,-0.34,0.09,0.43,3,0
17966.093,0.333,0.481,0.809,0.37,-0.03,-0.06,3,0
17966.109,0.34,0.492,0.804,0.82,-0.12,-0.73,3,0
17966.125,0.34,0.493,0.798,1.62,-0.18,-1.5,3,0
17966.125,0.343,0.496,0.789,2.11,-0.43,-2.47,3,0
17966.14,0.341,0.495,0.78,1.92,-0.15,-3.54,3,0
17966.156,0.341,0.496,0.775,1.22,0.76,-4.36,3,0
17966.171,0.338,0.499,0.769,0.49,2.14,-5.1,3,0
17966.171,0.334,0.499,0.766,-0.4,3.33,-5.49,3,0
17966.171,0.333,0.504,0.769,-1.28,4.85,-5.71,3,0
17966.187,0.32,0.509,0.777,-2.69,6.35,-5.68,3,0
17966.203,0.306,0.51,0.785,-4.73,7.29,-4.79,3,0
17966.203,0.3,0.509,0.796,-6.38,7.81,-2.99,3,0
17966.218,0.299,0.508,0.808,-7.39,8.15,-1.22,3,0
17966.234,0.295,0.5,0.814,-7.9,8.3,-0.21,3,0
17966.234,0.29,0.484,0.817,-8.33,7.97,-0.15,3,0
17966.25,0.289,0.475,0.821,-9.19,7.32,-0.24,3,0
17966.265,0.287,0.467,0.827,-9.92,6.62,-0.67,3,0
17966.265,0.282,0.461,0.833,-9.86,5.68,-1.19,3,0
17966.281,0.285,0.464,0.841,-8.36,4.52,-0.61,3,0
17966.296,0.292,0.474,0.852,-5.43,3.54,-0.43,3,0
17966.296,0.285,0.477,0.853,-2.29,2.01,0.03,3,0
17966.312,0.29,0.478,0.847,1.01,0.12,1.28,3,0
17966.328,0.297,0.482,0.835,4.0,-1.37,2.26,3,0
17966.328,0.302,0.479,0.822,6.01,-2.41,2.62,3,0
17966.343,0.308,0.476,0.813,7.02,-3.02,2.44,3,0
17966.343,0.31,0.478,0.806,7.35,-3.11,1.92,3,0
17966.359,0.312,0.48,0.8,6.56,-2.96,0.95,3,0
17966.375,0.315,0.484,0.796,5.16,-2.93,-0.03,3,0
17966.39,0.316,0.49,0.797,3.36,-2.72,-1.1,3,0
17966.39,0.315,0.492,0.795,1.37,-2.96,-2.26,3,0
17966.406,0.316,0.492,0.796,-0.85,-3.14,-3.2,3,0
17966.406,0.316,0.493,0.798,-5.16,-3.23,-5.1,3,0
17966.421,0.313,0.494,0.803,-6.29,-3.66,-5.62,3,0
17966.437,0.31,0.493,0.807,-6.38,-4.0,-5.62,3,0
17966.437,0.311,0.487,0.804,-6.04,-3.97,-5.58,3,0
17966.453,0.312,0.485,0.803,-5.74,-3.39,-5.68,3,0
17966.468,0.31,0.483,0.798,-5.37,-2.81,-5.74,3,0
17966.468,0.306,0.485,0.796,-4.94,-1.83,-5.65,3,0
17966.484,0.304,0.487,0.798,-4.85,-0.82,-5.37,3,0
17966.484,0.302,0.489,0.802,-4.79,0.27,-4.91,3,0
17966.5,0.298,0.49,0.805,-4.88,1.4,-4.36,3,0
17966.515,0.294,0.486,0.807,-5.19,2.14,-3.6,3,0
17966.515,0.289,0.486,0.814,-5.68,2.75,-2.72,3,0
17966.531,0.287,0.484,0.819,-6.13,2.96,-1.5,3,0
17966.546,0.287,0.483,0.826,-6.35,3.08,-0.15,3,0
17966.546,0.284,0.477,0.834,-5.86,2.87,1.04,3,0
17966.562,0.288,0.469,0.838,-5.19,2.29,2.01,3,0
17966.578,0.293,0.464,0.843,-4.0,1.65,2.56,3,0
17966.578,0.292,0.457,0.84,-2.32,1.07,2.59,3,0
17966.593,0.297,0.456,0.836,-0.52,0.31,2.62,3,0
17966.593,0.304,0.455,0.831,1.43,-0.27,2.44,3,0
17966.609,0.308,0.457,0.825,3.27,-0.43,1.92,3,0
17966.625,0.312,0.46,0.823,4.73,-0.46,1.19,3,0
17966.625,0.311,0.466,0.821,5.65,-0.27,0.43,3,0
17966.64,0.306,0.474,0.818,6.5,-0.21,-0.46,3,0
17966.656,0.304,0.482,0.819,6.47,-0.46,-1.1,3,0
17966.656,0.301,0.489,0.82,5.89,-1.19,-1.83,3,0
17966.671,0.295,0.496,0.816,5.07,-2.47,-2.41,3,0
17966.687,0.297,0.499,0.813,3.69,-3.94,-2.62,3,0
17966.703,0.301,0.504,0.806,1.95,-5.1,-2.87,3,0
17966.703,0.303,0.5,0.798,-0.03,-5.83,-3.08,3,0
17966.703,0.307,0.492,0.792,-2.32,-5.92,-3.42,3,0
17966.718,0.309,0.491,0.788,-4.49,-5.19,-3.85,3,0
17966.734,0.308,0.486,0.788,-6.1,-4.33,-4.0,3,0
17966.734,0.31,0.482,0.792,-7.51,-3.14,-4.15,3,0
17966.75,0.309,0.485,0.8,-8.51,-1.71,-4.3,3,0
17966.765,0.302,0.489,0.809,-9.28,-0.43,-4.15,3,0
17966.765,0.291,0.487,0.816,-9.25,0.21,-3.78,3,0
17966.781,0.286,0.481,0.819,-8.15,0.61,-2.69,3,0
17966.796,0.285,0.479,0.821,-7.02,1.07,-1.37,3,0
17966.796,0.282,0.474,0.827,-6.62,1.95,-0.24,3,0
17966.812,0.278,0.468,0.832,-6.23,2.69,0.67,3,0
17966.828,0.279,0.458,0.835,-5.16,2.59,1.56,3,0
17966.828,0.285,0.456,0.84,-4.09,2.23,2.41,3,0
17966.843,0.29,0.458,0.844,-3.33,1.65,2.99,3,0
17966.843,0.294,0.461,0.848,-2.59,0.85,3.3,3,0
17966.859,0.297,0.461,0.847,-1.37,-0.21,3.63,3,0
17966.875,0.302,0.458,0.839,0.43,-1.5,4.03,3,0
17966.875,0.31,0.455,0.83,2.17,-2.2,4.09,3,0
17966.89,0.316,0.456,0.823,3.72,-2.2,3.45,3,0
17966.906,0.32,0.457,0.817,5.04,-1.74,2.38,3,0
17966.921,0.317,0.456,0.81,6.41,-0.89,1.19,3,0
17966.921,0.317,0.463,0.806,7.39,-0.03,0.06,3,0
17966.937,0.316,0.471,0.804,7.45,0.82,-1.16,3,0
17966.937,0.31,0.479,0.804,6.44,1.4,-2.5,3,0
17966.953,0.302,0.487,0.802,5.01,1.59,-3.78,3,0
17966.968,0.298,0.492,0.802,3.3,1.46,-4.58,3,0
17966.968,0.298,0.495,0.8,1.37,1.53,-4.91,3,0
17966.984,0.297,0.494,0.798,-0.73,2.08,-5.16,3,0
17967.0,0.291,0.494,0.803,-2.75,2.78,-5.16,3,0
17967.0,0.288,0.491,0.807,-4.39,3.11,-4.58,3,0
17967.015,0.291,0.488,0.811,-5.83,3.36,-3.97,3,0
17967.015,0.288,0.486,0.816,-6.93,3.6,-3.51,3,0
17967.031,0.287,0.482,0.819,-7.9,3.85,-3.14,3,0
17967.046,0.284,0.476,0.824,-8.36,4.03,-2.44,3,0
17967.046,0.282,0.474,0.829,-8.09,4.21,-1.53,3,0
17967.062,0.277,0.472,0.835,-7.66,4.27,-0.49,3,0
17967.078,0.277,0.467,0.837,-6.56,4.3,0.92,3,0
17967.078,0.276,0.464,0.842,-5.01,4.36,2.17,3,0
17967.093,0.279,0.459,0.845,-2.99,4.33,3.2,3,0
17967.109,0.281,0.453,0.845,-0.85,4.36,3.97,3,0
17967.109,0.282,0.451,0.845,1.31,3.85,4.55,3,0
17967.125,0.284,0.455,0.842,2.87,3.51,4.85,3,0
17967.125,0.285,0.454,0.839,3.97,3.23,4.73,3,0
17967.14,0.288,0.454,0.836,4.91,3.05,4.12,3,0
17967.156,0.287,0.458,0.834,6.01,2.69,3.78,3,0
17967.156,0.286,0.459,0.832,6.9,2.56,3.42,3,0
17967.171,0.287,0.462,0.832,7.69,2.29,2.81,3,0
17967.171,0.287,0.467,0.831,8.18,1.98,2.04,3,0
17967.187,0.284,0.473,0.829,8.36,1.16,1.31,3,0
17967.203,0.282,0.477,0.831,8.09,0.03,0.76,3,0
17967.218,0.283,0.482,0.826,7.51,-1.31,0.0,3,0
17967.218,0.283,0.484,0.819,6.74,-2.59,-0.52,3,0
17967.234,0.287,0.489,0.814,5.4,-3.57,-1.04,3,0
17967.234,0.289,0.492,0.807,3.66,-4.21,-1.86,3,0
17967.25,0.29,0.497,0.806,1.5,-4.52,-2.53,3,0
17967.265,0.291,0.493,0.804,-0.55,-4.79,-3.08,3,0
17967.265,0.293,0.49,0.803,-2.26,-4.52,-3.51,3,0
17967.281,0.293,0.488,0.801,-3.63,-3.78,-3.94,3,0
17967.296,0.292,0.485,0.802,-5.01,-2.81,-4.0,3,0
17967.296,0.289,0.481,0.806,-6.5,-1.83,-4.06,3,0
17967.312,0.286,0.477,0.811,-7.9,-0.85,-4.03,3,0
17967.312,0.283,0.479,0.819,-9.22,-0.09,-3.6,3,0
17967.328,0.28,0.476,0.827,-10.16,0.34,-3.27,3,0
17967.343,0.277,0.471,0.834,-10.28,0.34,-2.53,3,0
17967.343,0.276,0.467,0.84,-9.49,0.18,-1.46,3,0
17967.359,0.275,0.463,0.846,-8.03,0.12,-0.34,3,0
17967.375,0.272,0.459,0.85,-6.32,0.06,0.7,3,0
17967.375,0.273,0.453,0.854,-4.06,-0.21,1.65,3,0
17967.39,0.274,0.453,0.854,1.46,-1.37,3.14,3,0
17967.406,0.278,0.453,0.849,3.81,-1.77,3.39,3,0
17967.406,0.279,0.456,0.844,5.77,-2.35,3.39,3,0
17967.421,0.283,0.459,0.837,7.35,-2.72,3.2,3,0
17967.437,0.292,0.463,0.82,8.21,-2.66,2.84,3,0
17967.437,0.296,0.474,0.819,8.45,-2.01,2.29,3,0
17967.453,0.296,0.481,0.818,8.03,-1.37,1.43,3,0
17967.468,0.292,0.482,0.815,7.14,-1.07,0.7,3,0
17967.468,0.293,0.48,0.811,6.16,-1.28,0.06,3,0
17967.484,0.294,0.482,0.808,4.43,-1.74,-0.52,3,0
17967.5,0.295,0.481,0.803,1.68,-2.01,-1.56,3,0
17967.5,0.295,0.48,0.806,-1.37,-1.8,-2.5,3,0
17967.515,0.293,0.484,0.809,-3.63,-1.5,-3.08,3,0
17967.515,0.291,0.481,0.814,-5.28,-1.34,-3.02,3,0
17967.531,0.291,0.478,0.821,-5.98,-1.25,-2.72,3,0
17967.546,0.289,0.475,0.825,-6.01,-1.22,-2.69,3,0
17967.546,0.291,0.466,0.825,-5.55,-1.1,-2.75,3,0
17967.562,0.286,0.472,0.825,-5.22,-0.55,-2.56,3,0
17967.578,0.284,0.461,0.824,-3.97,-0.55,-2.62,3,0
17967.578,0.285,0.466,0.829,-2.72,0.03,-1.95,3,0
17967.593,0.281,0.465,0.823,-1.22,0.61,-1.8,3,0
17967.593,0.283,0.464,0.825,0.06,1.43,-1.19,3,0
17967.609,0.281,0.477,0.831,0.76,2.32,-0.34,3,0
17967.625,0.274,0.473,0.835,1.25,2.35,0.0,3,0
17967.625,0.275,0.477,0.841,1.37,1.83,0.7,3,0
17967.64,0.274,0.477,0.836,1.56,0.73,1.34,3,0
17967.656,0.277,0.471,0.834,1.62,-0.09,1.92,3,0
17967.671,0.278,0.47,0.83,1.13,-0.4,2.08,3,0
17967.671,0.282,0.461,0.828,0.98,-0.89,2.04,3,0
17967.671,0.285,0.466,0.827,0.64,-0.82,2.04,3,0
17967.687,0.288,0.462,0.829,0.61,-1.13,1.74,3,0
17967.703,0.291,0.462,0.832,0.31,-1.4,1.07,3,0
17967.718,0.291,0.463,0.828,0.95,-2.01,0.24,3,0
17967.718,0.294,0.462,0.826,2.11,-2.72,-0.46,3,0
17967.734,0.296,0.478,0.827,2.59,-2.72,-1.19,3,0
17967.734,0.29,0.481,0.821,2.81,-2.5,-2.38,3,0
17967.75,0.284,0.483,0.814,3.27,-2.56,-2.75,3,0
17967.765,0.282,0.488,0.81,3.23,-2.56,-2.75,3,0
17967.765,0.282,0.487,0.805,2.14,-2.11,-3.3,3,0
17967.781,0.28,0.487,0.805,0.37,-1.5,-3.51,3,0
17967.796,0.278,0.487,0.806,-1.34,-1.19,-3.23,3,0
17967.796,0.28,0.487,0.812,-3.02,-0.98,-2.93,3,0
17967.812,0.28,0.49,0.821,-5.01,-0.61,-2.62,3,0
17967.828,0.278,0.484,0.827,-6.53,-0.52,-2.26,3,0
17967.828,0.279,0.474,0.83,-7.08,-0.76,-1.83,3,0
17967.843,0.282,0.459,0.826,-6.87,-0.89,-1.56,3,0
17967.843,0.286,0.447,0.825,-6.04,-0.49,-1.37,3,0
17967.859,0.288,0.453,0.836,-5.4,0.89,-1.16,3,0
17967.875,0.282,0.456,0.843,-4.36,1.83,-1.07,3,0
17967.89,0.272,0.456,0.851,-2.56,1.77,-0.34,3,0
17967.89,0.275,0.464,0.859,-0.24,0.82,1.13,3,0
17967.906,0.271,0.472,0.858,1.53,-0.43,2.08,3,0
17967.906,0.269,0.466,0.856,3.27,-2.17,2.72,3,0
17967.921,0.276,0.464,0.849,5.01,-3.88,3.85,3,0
17967.937,0.287,0.46,0.833,6.96,-4.91,4.06,3,0
17967.937,0.293,0.456,0.824,8.33,-5.07,3.48,3,0
17967.953,0.305,0.46,0.813,9.13,-4.33,2.75,3,0
17967.968,0.309,0.471,0.807,8.97,-2.9,1.43,3,0
17967.968,0.309,0.476,0.802,8.27,-1.46,-0.15,3,0
17967.984,0.309,0.477,0.792,7.48,-0.31,-1.68,3,0
17967.984,0.316,0.474,0.789,6.41,0.82,-2.9,3,0
17968.0,0.309,0.478,0.788,4.3,2.44,-4.58,3,0
17968.015,0.302,0.474,0.791,1.74,3.81,-6.38,3,0
17968.015,0.295,0.479,0.805,-1.13,4.46,-7.57,3,0
17968.031,0.287,0.484,0.815,-3.23,4.49,-8.73,3,0
17968.046,0.28,0.488,0.823,-4.24,4.18,-9.58,3,0
17968.046,0.269,0.492,0.826,-4.46,3.72,-9.83,3,0
17968.062,0.258,0.489,0.831,-3.91,3.23,-9.34,3,0
17968.062,0.254,0.49,0.832,-3.39,2.84,-8.15,3,0
17968.078,0.25,0.49,0.831,-2.93,2.41,-6.78,3,0
17968.093,0.247,0.489,0.828,-2.93,2.2,-5.31,3,0
17968.093,0.247,0.489,0.83,-3.51,1.71,-3.75,3,0
17968.109,0.248,0.49,0.842,-3.97,1.34,-2.08,3,0
17968.125,0.25,0.485,0.851,-3.48,0.92,-0.43,3,0
17968.125,0.249,0.472,0.852,-2.47,0.06,1.13,3,0
17968.14,0.25,0.468,0.849,-2.04,-1.13,2.38,3,0
17968.156,0.259,0.464,0.85,-1.71,-2.11,3.3,3,0
17968.156,0.264,0.462,0.849,-1.04,-2.69,3.45,3,0
17968.171,0.263,0.465,0.848,0.24,-3.36,3.63,3,0
17968.187,0.266,0.464,0.846,1.83,-4.3,4.18,3,0
17968.187,0.273,0.469,0.845,2.87,-4.85,4.43,3,0
17968.203,0.272,0.473,0.84,3.6,-5.58,4.27,3,0
17968.203,0.274,0.472,0.837,4.09,-6.44,4.09,3,0
17968.218,0.277,0.47,0.83,5.1,-7.29,4.06,3,0
17968.234,0.282,0.47,0.823,5.77,-7.78,3.94,3,0
17968.234,0.288,0.474,0.82,5.89,-7.81,3.51,3,0
17968.25,0.287,0.477,0.814,5.62,-7.81,2.38,3,0
17968.265,0.293,0.479,0.81,5.07,-7.54,1.65,3,0
17968.281,0.297,0.483,0.802,4.55,-7.42,0.67,3,0
17968.281,0.299,0.482,0.793,3.57,-7.02,-0.49,3,0
17968.296,0.302,0.492,0.795,1.92,-6.2,-1.46,3,0
17968.296,0.3,0.497,0.792,-0.06,-5.25,-2.47,3,0
17968.312,0.299,0.497,0.798,-1.83,-4.3,-2.99,3,0
17968.328,0.294,0.5,0.801,-3.66,-3.39,-2.62,3,0
17968.328,0.293,0.486,0.801,-4.58,-3.08,-2.53,3,0
17968.343,0.291,0.488,0.807,-6.1,-2.04,-1.98,3,0
17968.343,0.293,0.478,0.81,-7.26,-1.37,-1.95,3,0
17968.359,0.289,0.474,0.823,-8.42,-0.61,-2.08,3,0
17968.375,0.288,0.476,0.83,-9.16,-0.34,-1.8,3,0
17968.375,0.286,0.462,0.828,-7.63,-0.7,-1.5,3,0
17968.39,0.29,0.461,0.831,-6.47,-0.4,-1.37,3,0
17968.406,0.286,0.459,0.831,-5.34,-0.06,-1.01,3,0
17968.421,0.284,0.455,0.837,-3.54,0.31,-1.04,3,0
17968.421,0.286,0.453,0.84,-1.5,0.55,-0.98,3,0
17968.437,0.279,0.455,0.836,0.7,0.49,-1.01,3,0
17968.437,0.279,0.457,0.835,2.78,0.12,-0.92,3,0
17968.453,0.282,0.477,0.836,3.69,0.24,-0.58,3,0
17968.468,0.279,0.487,0.837,3.88,0.27,-0.79,3,0
17968.468,0.271,0.483,0.832,3.88,-0.4,-1.1,3,0
17968.484,0.271,0.48,0.824,4.12,-1.43,-0.58,3,0
17968.5,0.274,0.479,0.817,3.81,-2.01,-0.31,3,0
17968.5,0.274,0.478,0.815,2.44,-1.71,-0.43,3,0
17968.515,0.274,0.481,0.822,0.92,-1.68,-0.06,3,0
17968.515,0.278,0.481,0.83,0.09,-2.11,0.31,3,0
17968.531,0.283,0.479,0.827,-0.27,-2.72,0.4,3,0
17968.546,0.285,0.474,0.823,-0.43,-2.9,0.12,3,0
17968.546,0.289,0.473,0.823,-0.27,-2.78,-0.12,3,0
17968.562,0.289,0.474,0.821,-0.31,-2.53,-0.27,3,0
17968.578,0.289,0.467,0.818,0.03,-2.38,-0.46,3,0
17968.578,0.29,0.465,0.816,0.82,-2.26,-0.4,3,0
17968.593,0.294,0.472,0.817,1.19,-1.68,-0.4,3,0
17968.609,0.292,0.48,0.824,0.95,-0.85,-0.64,3,0
17968.609,0.288,0.479,0.827,0.98,-0.55,-0.58,3,0
17968.625,0.285,0.475,0.828,1.43,-1.13,-0.09,3,0
17968.625,0.287,0.478,0.831,1.5,-1.65,0.18,3,0
17968.64,0.287,0.479,0.829,1.01,-1.95,0.18,3,0
17968.656,0.284,0.473,0.828,0.79,-2.32,0.06,3,0
17968.656,0.283,0.467,0.827,1.25,-2.66,0.24,3,0
17968.671,0.287,0.468,0.826,1.74,-2.84,0.18,3,0
17968.687,0.287,0.47,0.823,2.01,-2.99,-0.27,3,0
17968.687,0.289,0.471,0.822,2.29,-3.11,-0.7,3,0
17968.703,0.294,0.475,0.821,2.81,-3.11,-0.92,3,0
17968.718,0.296,0.478,0.816,3.3,-2.87,-1.37,3,0
17968.718,0.295,0.477,0.811,3.39,-2.26,-1.89,3,0
17968.734,0.295,0.478,0.809,3.11,-1.89,-2.44,3,0
17968.734,0.294,0.483,0.808,2.56,-1.46,-2.66,3,0
17968.75,0.291,0.488,0.811,1.83,-0.89,-2.66,3,0
17968.765,0.288,0.487,0.811,1.04,-0.21,-2.66,3,0
17968.765,0.285,0.487,0.813,0.82,0.18,-2.29,3,0
17968.781,0.283,0.486,0.812,0.73,0.67,-1.95,3,0
17968.796,0.279,0.485,0.814,0.4,1.25,-1.62,3,0
17968.796,0.279,0.485,0.815,-0.06,1.46,-1.25,3,0
17968.812,0.278,0.484,0.819,-0.89,1.59,-0.98,3,0
17968.828,0.279,0.486,0.823,-1.77,1.46,-0.7,3,0
17968.828,0.279,0.483,0.825,-2.2,1.1,-0.27,3,0
17968.843,0.282,0.48,0.827,-2.2,0.76,0.18,3,0
17968.843,0.285,0.478,0.827,-1.77,0.55,0.64,3,0
17968.859,0.285,0.474,0.826,-0.98,0.55,0.89,3,0
17968.875,0.285,0.471,0.828,0.0,0.61,0.89,3,0
17968.875,0.282,0.472,0.826,0.89,0.67,0.79,3,0
17968.89,0.281,0.474,0.827,1.4,0.55,0.76,3,0
17968.906,0.279,0.475,0.827,1.92,0.24,0.49,3,0
17968.906,0.279,0.478,0.825,2.2,-0.09,0.49,3,0
17968.921,0.279,0.482,0.824,2.35,-0.4,0.43,3,0
17968.937,0.279,0.482,0.822,2.2,-0.76,0.4,3,0
17968.937,0.277,0.482,0.822,1.95,-1.07,0.52,3,0
17968.953,0.28,0.482,0.821,1.56,-1.46,0.46,3,0
17968.968,0.281,0.481,0.82,1.22,-1.95,0.27,3,0
17968.968,0.284,0.483,0.819,0.58,-2.17,0.18,3,0
17968.984,0.284,0.486,0.821,-0.24,-2.11,-0.15,3,0
17968.984,0.28,0.482,0.822,-0.64,-2.29,-0.61,3,0
17969.0,0.283,0.481,0.824,-0.4,-2.78,-0.58,3,0
17969.015,0.286,0.483,0.82,-0.31,-3.05,-0.46,3,0
17969.015,0.288,0.48,0.817,-0.67,-3.05,-0.82,3,0
17969.031,0.291,0.481,0.816,-0.73,-3.02,-1.1,3,0
17969.046,0.288,0.486,0.818,-0.52,-2.99,-1.07,3,0
17969.046,0.293,0.485,0.817,-0.31,-3.2,-0.76,3,0
17969.062,0.292,0.488,0.815,-0.37,-3.05,-0.58,3,0
17969.078,0.291,0.483,0.814,-0.64,-2.93,-0.46,3,0
17969.078,0.292,0.483,0.813,-0.95,-2.84,-0.37,3,0
17969.093,0.295,0.482,0.81,-1.4,-2.5,-0.37,3,0
17969.093,0.294,0.476,0.811,-1.5,-1.77,-0.7,3,0
17969.109,0.29,0.475,0.811,-1.37,-1.04,-0.98,3,0
17969.125,0.29,0.475,0.812,-1.07,-0.24,-1.04,3,0
17969.125,0.281,0.472,0.813,-0.52,0.37,-1.5,3,0
17969.14,0.283,0.479,0.819,-0.37,1.22,-1.65,3,0
17969.156,0.27,0.482,0.818,-0.21,1.77,-1.92,3,0
17969.156,0.268,0.476,0.826,0.31,1.4,-1.53,3,0
17969.171,0.272,0.495,0.83,-0.34,1.28,-0.61,3,0
17969.187,0.27,0.484,0.833,-0.89,0.67,-0.49,3,0
17969.187,0.267,0.486,0.841,-1.86,-0.09,0.27,3,0
17969.203,0.267,0.479,0.838,-1.34,-1.65,1.16,3,0
17969.218,0.276,0.471,0.838,-0.4,-3.39,2.04,3,0
17969.218,0.288,0.482,0.837,-0.03,-4.33,2.53,3,0
17969.234,0.286,0.476,0.833,0.52,-4.73,2.29,3,0
17969.25,0.291,0.465,0.827,1.92,-5.58,2.81,3,0
17969.25,0.302,0.471,0.818,2.99,-5.98,3.2,3,0
17969.265,0.308,0.47,0.81,3.14,-5.4,2.44,3,0
17969.265,0.305,0.47,0.811,2.93,-4.15,1.43,3,0
17969.281,0.301,0.472,0.807,3.11,-3.17,0.64,3,0
17969.296,0.3,0.475,0.809,3.51,-2.5,0.34,3,0
17969.296,0.297,0.487,0.813,3.51,-1.68,0.06,3,0
17969.312,0.289,0.483,0.811,3.78,-1.16,-0.37,3,0
17969.328,0.287,0.484,0.81,4.15,-0.76,-0.46,3,0
17969.328,0.285,0.491,0.809,4.21,-0.37,-0.37,3,0
17969.343,0.281,0.493,0.809,3.94,0.09,-0.43,3,0
17969.359,0.278,0.498,0.814,3.63,0.27,-0.12,3,0
17969.359,0.276,0.501,0.813,2.69,-0.18,1.65,3,0
17969.375,0.276,0.499,0.812,1.8,-0.64,2.41,3,0
17969.39,0.282,0.499,0.815,0.58,-1.19,2.99,3,0
17969.39,0.287,0.495,0.815,-0.46,-1.77,3.27,3,0
17969.406,0.297,0.481,0.817,-0.98,-2.04,3.54,3,0
17969.406,0.299,0.476,0.815,-1.07,-1.92,3.33,3,0
17969.421,0.301,0.466,0.816,-0.76,-1.53,3.02,3,0
17969.437,0.304,0.461,0.814,0.27,-1.04,2.75,3,0
17969.437,0.307,0.465,0.815,0.92,0.03,2.2,3,0
17969.453,0.302,0.469,0.817,1.53,1.04,1.31,3,0
17969.468,0.298,0.473,0.817,2.59,1.59,0.76,3,0
17969.468,0.294,0.477,0.816,4.12,1.86,0.61,3,0
17969.484,0.292,0.49,0.815,4.88,2.32,0.46,3,0
17969.484,0.287,0.493,0.814,5.16,2.69,0.37,3,0
17969.5,0.285,0.494,0.808,5.22,2.72,0.55,3,0
17969.515,0.285,0.495,0.802,5.31,2.5,1.04,3,0
17969.515,0.284,0.497,0.806,4.73,2.59,1.34,3,0
17969.531,0.282,0.501,0.807,3.69,2.78,1.19,3,0
17969.546,0.274,0.497,0.805,2.96,2.5,1.25,3,0
17969.546,0.279,0.497,0.81,2.44,1.95,1.83,3,0
17969.562,0.282,0.508,0.817,1.04,1.83,1.98,3,0
17969.578,0.278,0.504,0.822,-0.92,1.65,1.68,3,0
17969.578,0.273,0.492,0.824,-1.86,0.52,1.83,3,0
17969.593,0.277,0.483,0.822,-1.8,-1.01,2.5,3,0
17969.593,0.285,0.481,0.823,-2.2,-1.8,2.78,3,0
17969.609,0.291,0.479,0.826,-2.93,-2.08,2.53,3,0
17969.625,0.287,0.474,0.826,-2.99,-2.38,2.35,3,0
17969.625,0.294,0.47,0.83,-1.59,-3.14,2.41,3,0
17969.64,0.304,0.477,0.826,0.27,-3.57,2.29,3,0
17969.656,0.304,0.482,0.824,1.62,-3.33,1.4,3,0
17969.656,0.3,0.477,0.817,2.87,-3.11,0.7,3,0
17969.671,0.299,0.476,0.806,4.52,-3.14,0.49,3,0
17969.687,0.302,0.485,0.8,5.34,-2.81,0.21,3,0
17969.687,0.299,0.496,0.798,4.82,-1.71,-0.52,3,0
17969.703,0.292,0.498,0.798,3.97,-0.85,-1.13,3,0
17969.703,0.288,0.501,0.799,3.63,-0.4,-0.92,3,0
17969.718,0.287,0.508,0.798,2.62,-0.09,-0.43,3,0
17969.734,0.285,0.507,0.803,0.89,0.18,-0.21,3,0
17969.734,0.282,0.501,0.808,-0.7,0.24,-0.12,3,0
17969.75,0.281,0.494,0.809,-1.56,0.09,0.24,3,0
17969.765,0.285,0.489,0.814,-1.92,-0.24,0.73,3,0
17969.781,0.287,0.488,0.817,-2.2,-0.18,0.82,3,0
17969.781,0.286,0.488,0.819,-2.08,-0.27,0.95,3,0
17969.796,0.286,0.485,0.82,-1.37,-0.52,1.25,3,0
17969.796,0.289,0.485,0.822,-0.34,-0.98,1.62,3,0
17969.812,0.292,0.484,0.821,0.37,-1.34,1.86,3,0
17969.828,0.292,0.483,0.816,0.98,-1.53,2.01,3,0
17969.828,0.298,0.483,0.815,1.53,-1.62,2.17,3,0
17969.843,0.301,0.491,0.815,1.74,-1.53,2.44,3,0
17969.843,0.3,0.491,0.811,1.71,-1.25,2.41,3,0
17969.859,0.298,0.486,0.808,1.71,-1.19,2.35,3,0
17969.875,0.299,0.485,0.806,1.8,-1.1,2.29,3,0
17969.875,0.299,0.488,0.806,1.46,-0.49,2.01,3,0
17969.89,0.297,0.486,0.807,0.95,0.18,1.5,3,0
17969.906,0.292,0.484,0.808,0.89,0.64,1.13,3,0
17969.906,0.288,0.485,0.808,1.5,0.82,1.04,3,0
17969.921,0.29,0.49,0.81,1.74,1.07,0.92,3,0
17969.937,0.284,0.496,0.814,1.71,1.31,0.67,3,0
17969.937,0.281,0.498,0.815,1.89,1.25,0.76,3,0
17969.953,0.279,0.499,0.815,2.23,0.82,1.37,3,0
17969.968,0.279,0.497,0.814,2.53,0.06,1.92,3,0
17969.968,0.286,0.502,0.817,2.66,-0.67,2.44,3,0
17969.984,0.287,0.507,0.817,2.23,-1.16,2.87,3,0
17970.0,0.288,0.502,0.818,1.71,-1.92,3.27,3,0
17970.0,0.289,0.494,0.81,1.86,-2.84,3.6,3,0
17970.015,0.299,0.491,0.804,2.08,-3.27,3.69,3,0
17970.015,0.302,0.495,0.803,1.43,-2.62,3.69,3,0
17970.031,0.3,0.488,0.803,0.7,-1.8,3.45,3,0
17970.046,0.3,0.485,0.805,0.43,-1.25,3.3,3,0
17970.046,0.305,0.482,0.807,0.49,-1.1,3.02,3,0
17970.062,0.306,0.484,0.812,0.12,-0.67,2.59,3,0
17970.078,0.3,0.484,0.816,-0.43,-0.52,1.86,3,0
17970.078,0.298,0.479,0.821,-0.24,-0.98,1.62,3,0
17970.093,0.299,0.48,0.82,0.89,-1.5,1.5,3,0
17970.093,0.297,0.483,0.818,2.04,-1.77,1.22,3,0
17970.109,0.296,0.485,0.815,2.96,-1.8,0.98,3,0
17970.125,0.295,0.488,0.813,4.06,-1.92,0.7,3,0
17970.125,0.294,0.494,0.806,4.91,-1.95,0.7,3,0
17970.14,0.294,0.499,0.8,5.25,-1.86,0.76,3,0
17970.156,0.295,0.503,0.797,4.7,-1.8,0.73,3,0
17970.156,0.296,0.507,0.794,3.91,-1.65,0.82,3,0
17970.171,0.295,0.509,0.794,2.72,-1.68,1.01,3,0
17970.187,0.298,0.507,0.794,1.37,-1.8,1.16,3,0
17970.187,0.3,0.501,0.797,0.21,-1.68,1.28,3,0
17970.203,0.301,0.504,0.8,-1.28,-1.34,1.28,3,0
17970.218,0.298,0.497,0.806,-2.11,-1.25,1.19,3,0
17970.218,0.298,0.49,0.807,-2.38,-1.28,1.22,3,0
17970.234,0.303,0.488,0.813,-2.26,-1.16,1.1,3,0
17970.25,0.299,0.484,0.816,-1.98,-1.01,0.55,3,0
17970.25,0.296,0.478,0.815,-1.1,-1.43,0.4,3,0
17970.265,0.299,0.482,0.819,-0.21,-1.83,0.58,3,0
17970.265,0.302,0.486,0.815,0.67,-2.2,0.43,3,0
17970.281,0.302,0.491,0.814,1.5,-2.5,0.18,3,0
17970.296,0.303,0.493,0.807,2.56,-2.87,0.15,3,0
17970.296,0.306,0.494,0.8,3.45,-2.96,0.06,3,0
17970.312,0.307,0.5,0.794,3.57,-2.72,0.12,3,0
17970.328,0.307,0.498,0.789,3.2,-2.08,-0.12,3,0
17970.328,0.307,0.503,0.788,2.2,-1.4,-0.18,3,0
17970.343,0.304,0.506,0.79,-0.03,-0.37,-0.37,3,0
17970.359,0.302,0.505,0.794,-1.22,-0.12,-0.18,3,0
17970.359,0.303,0.505,0.799,-2.56,0.0,0.0,3,0
17970.375,0.298,0.499,0.804,-3.3,-0.21,0.12,3,0
17970.375,0.298,0.488,0.812,-3.78,-0.58,0.18,3,0
17970.39,0.297,0.479,0.814,-3.6,-0.85,-0.12,3,0
17970.406,0.298,0.48,0.817,-2.66,-1.1,-0.15,3,0
17970.406,0.302,0.486,0.817,-1.46,-1.13,-0.21,3,0
17970.421,0.302,0.484,0.815,0.24,-1.37,-0.49,3,0
17970.437,0.303,0.49,0.81,1.89,-1.5,-0.64,3,0
17970.437,0.306,0.492,0.803,3.05,-1.56,-0.95,3,0
17970.453,0.305,0.502,0.798,2.96,-1.16,-1.4,3,0
17970.468,0.3,0.5,0.789,3.05,-0.73,-1.56,3,0
17970.468,0.302,0.501,0.788,2.78,-0.12,-1.1,3,0
17970.484,0.303,0.508,0.788,1.71,0.64,-0.89,3,0
17970.5,0.3,0.506,0.796,0.09,1.25,-0.95,3,0
17970.5,0.294,0.51,0.802,-1.4,1.53,-0.92,3,0
17970.515,0.296,0.5,0.803,-2.17,1.01,-0.76,3,0
17970.531,0.298,0.494,0.81,-2.87,0.49,-0.37,3,0
17970.531,0.297,0.493,0.811,-3.42,0.49,-0.64,3,0
17970.546,0.295,0.486,0.817,-3.23,0.43,-0.7,3,0
17970.546,0.296,0.483,0.817,-2.56,0.0,-0.55,3,0
17970.562,0.299,0.481,0.815,-1.56,-0.37,-0.64,3,0
17970.578,0.299,0.481,0.81,-0.7,-0.37,-1.13,3,0
17970.578,0.301,0.486,0.81,0.0,-0.18,-1.46,3,0
17970.593,0.298,0.491,0.808,0.58,0.0,-1.8,3,0
17970.609,0.297,0.497,0.808,1.19,0.09,-1.65,3,0
17970.609,0.297,0.499,0.804,1.59,-0.18,-1.46,3,0
17970.625,0.298,0.503,0.805,1.4,-0.24,-1.37,3,0
17970.625,0.294,0.506,0.801,0.82,-0.03,-1.34,3,0
17970.64,0.292,0.501,0.8,0.43,-0.24,-0.92,3,0
17970.656,0.295,0.502,0.8,-0.34,-0.37,-0.61,3,0
17970.656,0.294,0.503,0.8,-1.1,-0.21,-0.64,3,0
17970.671,0.294,0.502,0.805,-1.68,-0.09,-0.31,3,0
17970.687,0.293,0.498,0.806,-2.11,-0.09,-0.46,3,0
17970.687,0.295,0.492,0.806,-2.41,-0.34,-0.4,3,0
17970.703,0.297,0.491,0.807,-2.75,-0.31,-0.43,3,0
17970.703,0.298,0.488,0.81,-2.99,-0.09,-0.73,3,0
17970.718,0.298,0.486,0.814,-2.93,0.09,-0.89,3,0
17970.734,0.296,0.485,0.814,-2.62,0.03,-1.01,3,0
17970.75,0.297,0.483,0.815,-2.26,0.03,-1.07,3,0
17970.75,0.296,0.484,0.816,-1.89,0.0,-1.37,3,0
17970.765,0.295,0.484,0.817,-1.46,0.03,-1.56,3,0
17970.765,0.295,0.486,0.816,-0.85,-0.15,-1.56,3,0
17970.781,0.293,0.487,0.814,-0.46,-0.37,-1.56,3,0
17970.796,0.294,0.49,0.812,0.03,-0.52,-1.46,3,0
17970.796,0.293,0.495,0.81,0.52,-0.61,-1.5,3,0
17970.812,0.293,0.495,0.807,0.92,-0.73,-1.4,3,0
17970.828,0.293,0.496,0.802,1.07,-0.76,-1.22,3,0
17970.828,0.293,0.498,0.799,0.95,-0.4,-1.22,3,0
17970.843,0.292,0.5,0.798,0.43,0.12,-1.25,3,0
17970.843,0.291,0.502,0.801,-0.24,0.46,-1.28,3,0
17970.859,0.289,0.503,0.802,-1.01,0.58,-1.1,3,0
17970.875,0.289,0.501,0.807,-1.92,0.89,-0.98,3,0
17970.875,0.287,0.5,0.811,-3.08,0.92,-0.85,3,0
17970.89,0.287,0.491,0.813,-3.75,0.73,-0.79,3,0
17970.906,0.287,0.485,0.815,-3.88,0.46,-0.79,3,0
17970.906,0.289,0.48,0.818,-3.81,0.34,-0.82,3,0
17970.921,0.287,0.482,0.822,-3.3,0.21,-1.1,3,0
17970.937,0.284,0.481,0.824,-2.69,-0.12,-1.07,3,0
17970.937,0.285,0.482,0.828,-1.62,-0.7,-0.7,3,0
17970.953,0.286,0.484,0.825,-0.52,-1.4,-0.64,3,0
17970.968,0.288,0.486,0.819,0.46,-1.92,-0.64,3,0
17970.968,0.289,0.489,0.814,1.1,-2.29,-0.58,3,0
17970.984,0.292,0.49,0.809,1.46,-2.32,-0.49,3,0
17970.984,0.295,0.495,0.802,1.31,-2.08,-0.49,3,0
17971.0,0.294,0.497,0.8,0.73,-1.56,-0.58,3,0
17971.015,0.294,0.498,0.803,-0.15,-1.07,-0.52,3,0
17971.015,0.292,0.499,0.804,-1.07,-0.85,-0.43,3,0
17971.031,0.292,0.497,0.808,-1.83,-0.7,-0.31,3,0
17971.046,0.29,0.491,0.81,-2.41,-0.52,-0.4,3,0
17971.062,0.287,0.48,0.809,-2.44,-0.52,-0.67,3,0
17971.062,0.29,0.471,0.808,-1.71,-0.46,-1.19,3,0
17971.062,0.295,0.487,0.814,-1.37,0.37,-1.68,3,0
17971.078,0.288,0.498,0.817,-1.62,1.43,-2.5,3,0
17971.093,0.271,0.49,0.815,-0.82,1.43,-2.47,3,0
17971.093,0.28,0.483,0.812,0.92,0.31,-1.19,3,0
17971.109,0.294,0.508,0.819,-0.09,0.4,-0.4,3,0
17971.125,0.286,0.509,0.826,-2.32,0.4,-0.67,3,0
17971.125,0.279,0.49,0.827,-2.78,-1.07,0.0,3,0
17971.14,0.292,0.486,0.817,-1.53,-3.08,1.28,3,0
17971.156,0.301,0.484,0.813,-1.53,-3.66,1.43,3,0
17971.156,0.301,0.484,0.817,-2.75,-3.05,0.67,3,0
17971.171,0.292,0.478,0.813,-2.87,-2.96,0.21,3,0
17971.187,0.297,0.469,0.808,-1.56,-3.08,0.46,3,0
17971.187,0.303,0.475,0.803,-0.31,-2.14,-0.06,3,0
17971.203,0.3,0.479,0.803,0.03,-0.34,-1.5,3,0
17971.218,0.289,0.481,0.807,0.18,1.4,-2.41,3,0
17971.218,0.282,0.486,0.808,0.4,2.17,-2.5,3,0
17971.234,0.281,0.491,0.815,0.12,2.11,-2.44,3,0
17971.25,0.276,0.5,0.826,-1.07,1.92,-2.32,3,0
17971.25,0.272,0.502,0.831,-2.08,1.07,-1.86,3,0
17971.265,0.269,0.5,0.833,-2.41,-0.49,-0.79,3,0
17971.281,0.276,0.491,0.831,-2.04,-2.2,0.09,3,0
17971.281,0.282,0.484,0.824,-1.62,-3.3,0.46,3,0
17971.296,0.288,0.478,0.82,-0.95,-3.75,0.55,3,0
17971.296,0.292,0.478,0.812,-0.06,-3.51,0.43,3,0
17971.312,0.296,0.478,0.806,1.01,-2.93,0.18,3,0
17971.328,0.298,0.483,0.802,1.68,-2.11,-0.15,3,0
17971.328,0.297,0.491,0.805,0.7,-0.43,-0.76,3,0
17971.343,0.294,0.497,0.808,-0.12,-0.31,-0.52,3,0
17971.359,0.293,0.495,0.805,-0.79,-0.34,-0.21,3,0
17971.359,0.292,0.489,0.812,-1.92,-0.24,-0.06,3,0
17971.375,0.29,0.486,0.819,-2.93,0.21,-0.12,3,0
17971.375,0.287,0.48,0.824,-3.23,0.12,-0.03,3,0
17971.39,0.286,0.473,0.825,-2.78,-0.46,0.0,3,0
17971.406,0.287,0.47,0.828,-1.89,-1.07,-0.09,3,0
17971.406,0.289,0.474,0.829,-1.16,-1.25,-0.46,3,0
17971.421,0.285,0.478,0.827,-0.4,-1.53,-0.7,3,0
17971.437,0.284,0.48,0.824,0.82,-1.77,-0.7,3,0
17971.437,0.289,0.485,0.818,2.04,-2.04,-0.49,3,0
17971.453,0.29,0.491,0.812,2.69,-1.83,-0.55,3,0
17971.468,0.289,0.494,0.806,2.53,-1.34,-0.49,3,0
17971.468,0.288,0.494,0.803,2.01,-1.04,-0.34,3,0
17971.484,0.286,0.494,0.799,1.25,-0.92,-0.06,3,0
17971.5,0.286,0.495,0.802,0.0,-0.49,-0.09,3,0
17971.5,0.284,0.495,0.809,-1.31,-0.06,-0.09,3,0
17971.515,0.28,0.493,0.817,-2.08,0.06,0.18,3,0
17971.515,0.281,0.487,0.821,-2.08,-0.31,0.46,3,0
17971.531,0.282,0.481,0.824,-1.92,-0.46,0.55,3,0
17971.546,0.282,0.475,0.827,-1.59,-0.79,0.55,3,0
17971.546,0.284,0.472,0.829,-0.89,-1.07,0.49,3,0
17971.562,0.287,0.474,0.828,-0.18,-1.62,0.52,3,0
17971.578,0.289,0.476,0.828,0.64,-1.95,0.49,3,0
17971.578,0.292,0.479,0.824,1.16,-2.29,0.43,3,0
17971.593,0.295,0.482,0.82,1.68,-2.59,0.34,3,0
17971.593,0.298,0.481,0.815,1.92,-2.96,0.15,3,0
17971.609,0.302,0.481,0.81,2.01,-2.78,-0.06,3,0
17971.625,0.303,0.484,0.804,2.14,-2.32,-0.27,3,0
17971.625,0.302,0.487,0.802,2.08,-1.62,-0.58,3,0
17971.64,0.299,0.488,0.8,1.89,-0.76,-1.01,3,0
17971.656,0.297,0.492,0.797,1.65,0.09,-1.37,3,0
17971.656,0.292,0.495,0.798,1.01,1.01,-1.65,3,0
17971.671,0.287,0.495,0.804,0.21,1.74,-1.59,3,0
17971.687,0.283,0.494,0.808,-0.61,2.2,-1.46,3,0
17971.687,0.278,0.494,0.814,-1.25,2.08,-1.16,3,0
17971.703,0.276,0.49,0.821,-1.77,1.71,-0.95,3,0
17971.718,0.276,0.488,0.825,-2.26,1.28,-0.7,3,0
17971.718,0.271,0.486,0.829,-2.26,0.58,-0.34,3,0
17971.734,0.273,0.485,0.831,-1.92,-0.09,0.15,3,0
17971.734,0.276,0.48,0.829,-1.31,-0.92,0.34,3,0
17971.75,0.281,0.48,0.829,-0.64,-1.68,0.61,3,0
17971.765,0.285,0.48,0.825,0.15,-2.04,0.82,3,0
17971.765,0.288,0.48,0.822,0.89,-2.41,0.76,3,0
17971.781,0.291,0.482,0.819,1.4,-2.59,0.85,3,0
17971.796,0.291,0.485,0.814,1.59,-2.5,0.64,3,0
17971.812,0.293,0.485,0.81,1.4,-2.47,0.52,3,0
17971.812,0.294,0.486,0.809,1.07,-2.38,0.31,3,0
17971.828,0.293,0.486,0.808,0.89,-2.04,0.12,3,0
17971.828,0.293,0.486,0.807,0.37,-1.4,-0.18,3,0
17971.843,0.291,0.487,0.809,0.15,-1.04,-0.27,3,0
17971.859,0.288,0.489,0.812,-0.12,-0.73,-0.34,3,0
17971.859,0.287,0.489,0.815,-0.55,-0.64,-0.4,3,0
17971.875,0.287,0.489,0.816,-0.73,-0.79,-0.43,3,0
17971.89,0.286,0.488,0.817,-0.67,-1.1,-0.21,3,0
17971.89,0.287,0.485,0.817,-0.64,-1.13,-0.34,3,0
17971.906,0.289,0.484,0.815,-0.37,-1.19,-0.37,3,0
17971.906,0.29,0.484,0.811,-0.06,-1.07,-0.34,3,0
17971.921,0.291,0.483,0.811,0.27,-0.79,-0.46,3,0
17971.937,0.29,0.485,0.813,0.31,-0.34,-0.49,3,0
17971.937,0.29,0.49,0.812,0.15,-0.03,-0.67,3,0
17971.953,0.286,0.493,0.815,-0.18,0.06,-0.58,3,0
17971.968,0.284,0.489,0.817,-0.43,-0.06,-0.34,3,0
17971.968,0.286,0.49,0.817,-0.58,-0.27,-0.18,3,0
17971.984,0.286,0.487,0.818,-0.52,-0.55,-0.03,3,0
17971.984,0.285,0.482,0.819,-0.4,-0.67,-0.09,3,0
17972.0,0.283,0.482,0.82,-0.4,-0.79,-0.31,3,0
17972.015,0.285,0.481,0.82,-0.34,-0.98,-0.34,3,0
17972.015,0.286,0.485,0.824,-0.03,-1.28,-0.18,3,0
17972.031,0.285,0.489,0.826,0.34,-1.74,-0.06,3,0
17972.046,0.287,0.488,0.82,0.64,-2.14,0.21,3,0
17972.046,0.288,0.486,0.816,0.73,-2.56,0.43,3,0
17972.062,0.292,0.484,0.813,0.64,-2.75,0.43,3,0
17972.078,0.292,0.483,0.812,0.4,-2.66,0.21,3,0
17972.078,0.294,0.484,0.81,0.21,-2.35,-0.06,3,0
17972.093,0.294,0.482,0.807,0.15,-1.8,-0.4,3,0
17972.109,0.29,0.486,0.807,0.18,-1.28,-0.61,3,0
17972.109,0.289,0.489,0.809,0.12,-0.7,-0.73,3,0
17972.125,0.286,0.488,0.81,0.15,-0.12,-0.64,3,0
17972.125,0.287,0.489,0.813,-0.03,0.15,-0.55,3,0
17972.14,0.284,0.49,0.814,-0.27,0.15,-0.52,3,0
17972.156,0.284,0.489,0.816,-0.49,0.0,-0.4,3,0
17972.156,0.285,0.49,0.819,-0.73,-0.43,-0.12,3,0
17972.171,0.286,0.492,0.819,-0.7,-0.76,0.06,3,0
17972.187,0.286,0.489,0.818,-0.55,-0.89,0.15,3,0
17972.187,0.287,0.486,0.814,-0.43,-1.04,0.18,3,0
17972.203,0.287,0.485,0.814,-0.46,-1.1,0.24,3,0
17972.218,0.287,0.484,0.815,-0.55,-0.95,0.43,3,0
17972.218,0.289,0.486,0.817,-0.76,-0.89,0.49,3,0
17972.234,0.289,0.485,0.817,-0.79,-1.04,0.52,3,0
17972.25,0.293,0.481,0.817,-1.13,-1.22,0.21,3,0
17972.25,0.295,0.48,0.815,-1.34,-1.13,-0.12,3,0
17972.265,0.292,0.48,0.816,-1.59,-0.82,-0.4,3,0
17972.265,0.288,0.482,0.82,-1.71,-0.58,-0.49,3,0
17972.281,0.286,0.48,0.824,-1.31,-0.55,-0.34,3,0
17972.296,0.285,0.479,0.823,-0.55,-0.73,-0.27,3,0
17972.296,0.285,0.475,0.823,0.09,-0.79,-0.34,3,0
17972.312,0.284,0.476,0.821,1.56,-1.13,-0.37,3,0
17972.328,0.284,0.479,0.818,2.08,-1.37,-0.43,3,0
17972.328,0.284,0.487,0.819,2.14,-1.46,-0.24,3,0
17972.343,0.282,0.496,0.818,2.01,-1.74,0.12,3,0
17972.343,0.285,0.499,0.815,1.71,-2.17,0.64,3,0
17972.359,0.286,0.493,0.811,1.22,-2.47,1.01,3,0
17972.375,0.289,0.486,0.812,0.76,-2.59,0.98,3,0
17972.375,0.289,0.481,0.814,0.06,-2.56,0.98,3,0
17972.39,0.289,0.485,0.816,-0.7,-2.66,0.89,3,0
17972.406,0.29,0.488,0.82,-1.46,-2.99,0.58,3,0
17972.406,0.292,0.486,0.822,-1.98,-3.42,0.55,3,0
17972.421,0.296,0.482,0.819,-1.62,-3.72,0.52,3,0
17972.437,0.298,0.477,0.817,-0.76,-3.66,0.46,3,0
17972.437,0.302,0.473,0.812,0.34,-3.17,0.4,3,0
17972.453,0.304,0.47,0.807,1.16,-2.38,-0.03,3,0
17972.468,0.302,0.475,0.805,1.74,-1.5,-0.76,3,0
17972.468,0.296,0.484,0.803,1.77,-0.7,-1.4,3,0
17972.484,0.294,0.492,0.804,1.56,-0.09,-1.43,3,0
17972.484,0.288,0.497,0.808,0.95,0.34,-1.4,3,0
17972.5,0.284,0.5,0.812,0.27,0.58,-0.76,3,0
17972.515,0.282,0.497,0.816,-0.15,0.4,-0.18,3,0
17972.515,0.281,0.495,0.817,-0.61,0.06,0.37,3,0
17972.531,0.281,0.492,0.82,-1.1,-0.46,0.89,3,0
17972.546,0.285,0.486,0.821,-1.43,-1.1,0.95,3,0
17972.562,0.287,0.481,0.819,-1.56,-1.59,0.98,3,0
17972.562,0.291,0.48,0.819,-1.53,-1.98,1.1,3,0
17972.562,0.292,0.478,0.818,-1.4,-1.89,1.01,3,0
17972.578,0.292,0.476,0.818,-0.67,-1.74,0.98,3,0
17972.593,0.292,0.473,0.818,0.06,-1.59,0.92,3,0
17972.609,0.295,0.474,0.819,0.61,-1.53,0.55,3,0
17972.609,0.294,0.478,0.82,0.98,-1.4,0.12,3,0
17972.625,0.292,0.483,0.817,1.16,-1.4,-0.15,3,0
17972.64,0.293,0.486,0.818,1.37,-1.62,-0.18,3,0
17972.64,0.294,0.488,0.814,1.68,-1.83,-0.21,3,0
17972.656,0.295,0.488,0.81,1.74,-1.89,-0.21,3,0
17972.656,0.294,0.49,0.809,1.5,-1.83,-0.09,3,0
17972.671,0.293,0.49,0.809,1.01,-1.95,-0.12,3,0
17972.687,0.293,0.491,0.807,0.55,-1.92,-0.12,3,0
17972.687,0.292,0.49,0.807,0.09,-1.92,-0.09,3,0
17972.703,0.293,0.491,0.81,-0.37,-1.89,-0.06,3,0
17972.718,0.295,0.488,0.813,-0.64,-1.83,0.06,3,0
17972.718,0.292,0.488,0.813,-0.82,-1.83,0.0,3,0
17972.734,0.292,0.487,0.813,-0.89,-1.92,0.0,3,0
17972.734,0.292,0.484,0.817,-0.89,-1.89,0.12,3,0
17972.75,0.295,0.482,0.817,-1.04,-1.98,0.06,3,0
17972.765,0.294,0.483,0.817,-1.04,-1.95,-0.06,3,0
17972.765,0.294,0.48,0.816,-0.79,-1.83,-0.06,3,0
17972.781,0.295,0.476,0.816,-0.15,-1.83,-0.18,3,0
17972.796,0.298,0.478,0.814,0.46,-1.59,-0.49,3,0
17972.796,0.296,0.482,0.815,0.79,-1.43,-0.85,3,0
17972.812,0.294,0.487,0.813,0.98,-1.31,-0.95,3,0
17972.828,0.295,0.489,0.812,1.13,-1.28,-1.07,3,0
17972.828,0.292,0.493,0.811,0.98,-1.22,-1.04,3,0
17972.843,0.293,0.495,0.812,0.73,-1.22,-0.79,3,0
17972.859,0.292,0.492,0.812,0.43,-1.16,-0.55,3,0
17972.859,0.291,0.49,0.811,-0.24,-1.37,-0.34,3,0
17972.875,0.293,0.49,0.81,-1.01,-1.62,-0.21,3,0
17972.875,0.296,0.487,0.812,-1.77,-1.59,-0.21,3,0
17972.89,0.298,0.485,0.812,-2.04,-1.5,-0.21,3,0
17972.906,0.299,0.481,0.815,-1.89,-1.37,-0.12,3,0
17972.906,0.301,0.478,0.816,-1.28,-1.34,-0.09,3,0
17972.921,0.302,0.477,0.814,-0.64,-1.1,-0.34,3,0
17972.937,0.302,0.478,0.814,-0.09,-0.7,-0.7,3,0
17972.937,0.301,0.479,0.811,0.43,-0.43,-1.04,3,0
17972.953,0.301,0.482,0.809,0.67,-0.06,-1.34,3,0
17972.953,0.297,0.484,0.808,0.49,0.43,-1.71,3,0
17972.968,0.294,0.485,0.808,0.12,0.85,-1.89,3,0
17972.984,0.286,0.486,0.811,-0.03,0.85,-1.86,3,0
17972.984,0.281,0.49,0.816,-0.61,0.79,-1.62,3,0
17973.0,0.279,0.494,0.824,-1.46,0.49,-1.34,3,0
17973.015,0.273,0.493,0.829,-1.68,-0.46,-0.89,3,0
17973.015,0.273,0.49,0.829,-1.28,-1.56,-0.21,3,0
17973.031,0.275,0.486,0.828,-0.76,-2.53,0.24,3,0
17973.046,0.277,0.484,0.825,-0.55,-3.17,0.61,3,0
17973.046,0.28,0.48,0.823,-0.52,-3.72,0.85,3,0
17973.062,0.284,0.478,0.823,-0.85,-4.39,0.79,3,0
17973.078,0.288,0.476,0.825,-1.01,-5.22,0.67,3,0
17973.078,0.294,0.479,0.826,-0.89,-5.98,0.49,3,0
17973.093,0.298,0.478,0.821,-0.46,-6.26,0.18,3,0
17973.093,0.302,0.477,0.815,0.43,-6.2,-0.03,3,0
17973.109,0.311,0.476,0.809,1.71,-5.83,-0.09,3,0
17973.125,0.313,0.481,0.805,2.32,-5.31,-0.09,3,0
17973.125,0.315,0.486,0.804,2.08,-4.7,-0.34,3,0
17973.14,0.318,0.487,0.802,1.34,-4.33,-0.58,3,0
17973.156,0.317,0.49,0.8,0.52,-4.09,-0.92,3,0
17973.171,0.315,0.487,0.796,0.27,-3.42,-1.28,3,0
17973.171,0.314,0.483,0.795,0.43,-2.08,-1.62,3,0
17973.187,0.31,0.486,0.795,0.52,-0.46,-1.8,3,0
17973.187,0.303,0.488,0.799,0.52,0.82,-1.62,3,0
17973.203,0.299,0.49,0.804,0.49,1.65,-1.43,3,0
17973.218,0.297,0.493,0.808,0.18,1.71,-1.28,3,0
17973.218,0.297,0.495,0.812,-0.46,1.59,-1.04,3,0
17973.234,0.294,0.493,0.814,-0.89,1.19,-0.73,3,0
17973.234,0.295,0.487,0.811,-0.98,0.98,-0.27,3,0
17973.25,0.298,0.481,0.809,-1.19,1.13,-0.03,3,0
17973.265,0.298,0.479,0.811,-1.22,1.86,-0.21,3,0
17973.265,0.292,0.477,0.813,-1.1,2.41,-0.64,3,0
17973.281,0.288,0.474,0.814,-0.55,2.56,-0.82,3,0
17973.296,0.287,0.48,0.818,0.0,2.62,-0.67,3,0
17973.296,0.284,0.487,0.82,0.43,2.32,-0.82,3,0
17973.312,0.279,0.49,0.826,0.49,1.4,-0.27,3,0
17973.328,0.279,0.494,0.827,0.58,0.21,0.46,3,0
17973.328,0.284,0.495,0.824,0.21,-0.82,1.1,3,0
17973.343,0.288,0.49,0.821,-0.37,-1.98,1.4,3,0
17973.343,0.293,0.483,0.818,-0.67,-2.84,1.5,3,0
17973.359,0.299,0.479,0.812,-0.92,-3.3,1.34,3,0
17973.375,0.303,0.476,0.811,-1.04,-3.02,0.95,3,0
17973.39,0.302,0.476,0.812,-1.07,-2.44,0.46,3,0
17973.39,0.304,0.476,0.81,-0.82,-1.92,-0.09,3,0
17973.406,0.303,0.477,0.811,-0.34,-1.5,-0.43,3,0
17973.406,0.299,0.479,0.813,0.06,-1.19,-0.95,3,0
17973.421,0.297,0.483,0.815,0.24,-0.98,-1.4,3,0
17973.437,0.294,0.487,0.816,0.21,-0.82,-1.56,3,0
17973.437,0.293,0.49,0.815,0.4,-1.13,-1.5,3,0
17973.453,0.293,0.491,0.813,0.4,-1.53,-1.28,3,0
17973.468,0.292,0.492,0.81,0.4,-1.68,-1.13,3,0
17973.468,0.287,0.486,0.805,0.27,-1.77,-1.01,3,0
17973.484,0.294,0.479,0.804,0.24,-1.74,-0.98,3,0
17973.484,0.295,0.492,0.806,-0.85,-0.76,-1.01,3,0
17973.5,0.293,0.485,0.811,-1.37,-0.06,-1.68,3,0
17973.515,0.289,0.491,0.817,-1.71,0.06,-1.59,3,0
17973.515,0.294,0.485,0.819,-1.25,-0.43,-1.1,3,0
17973.531,0.297,0.499,0.825,-1.95,-0.52,-0.52,3,0
17973.546,0.289,0.489,0.82,-2.14,-1.37,-0.58,3,0
17973.546,0.295,0.474,0.815,-1.25,-2.5,0.24,3,0
17973.562,0.307,0.481,0.809,-0.55,-2.87,0.73,3,0
17973.578,0.309,0.478,0.812,-0.73,-2.04,0.27,3,0
17973.578,0.305,0.482,0.815,-1.04,-1.22,-0.03,3,0
17973.593,0.302,0.474,0.807,-0.37,-1.34,-0.15,3,0
17973.609,0.307,0.475,0.809,0.06,-0.92,-0.06,3,0
17973.609,0.304,0.475,0.806,-0.18,0.12,-0.85,3,0
17973.625,0.294,0.472,0.81,-0.49,1.37,-1.8,3,0
17973.625,0.283,0.471,0.808,0.09,2.2,-2.44,3,0
17973.64,0.278,0.471,0.81,1.22,2.81,-2.69,3,0
17973.656,0.274,0.488,0.82,0.85,3.97,-3.08,3,0
17973.656,0.267,0.499,0.833,-0.73,4.46,-3.39,3,0
17973.671,0.258,0.502,0.848,-1.95,3.42,-2.32,3,0
17973.687,0.258,0.493,0.846,-1.46,0.31,-0.7,3,0
17973.687,0.274,0.487,0.84,-0.52,-3.08,0.95,3,0
17973.703,0.29,0.491,0.835,-0.64,-5.28,1.89,3,0
17973.718,0.3,0.493,0.831,-1.28,-6.65,2.29,3,0
17973.718,0.307,0.485,0.818,-0.79,-8.0,2.69,3,0
17973.734,0.32,0.473,0.804,0.64,-9.0,3.14,3,0
17973.734,0.332,0.475,0.795,1.74,-8.64,2.96,3,0
17973.75,0.335,0.483,0.789,1.68,-6.59,1.86,3,0
17973.765,0.328,0.481,0.785,1.71,-3.88,0.64,3,0
17973.765,0.319,0.477,0.777,2.53,-1.59,-0.43,3,0
17973.781,0.308,0.47,0.771,3.45,0.79,-1.59,3,0
17973.796,0.295,0.475,0.776,2.56,3.66,-3.02,3,0
17973.796,0.281,0.485,0.787,0.55,6.35,-4.49,3,0
17973.812,0.266,0.491,0.805,-1.74,7.6,-5.31,3,0
17973.828,0.256,0.497,0.826,-3.66,7.26,-5.01,3,0
17973.828,0.251,0.504,0.844,-5.04,5.52,-4.36,3,0
17973.843,0.252,0.507,0.858,-6.38,2.87,-3.51,3,0
17973.843,0.255,0.502,0.866,-7.29,-0.64,-2.23,3,0
17973.859,0.266,0.487,0.86,-6.96,-4.39,-0.7,3,0
17973.875,0.285,0.474,0.848,-5.01,-7.35,0.58,3,0
17973.875,0.303,0.468,0.833,-2.69,-8.79,1.28,3,0
17973.89,0.315,0.464,0.817,-0.95,-8.73,1.19,3,0
17973.906,0.325,0.463,0.803,0.49,-8.03,0.76,3,0
17973.921,0.333,0.463,0.792,1.62,-6.44,0.34,3,0
17973.921,0.335,0.47,0.782,2.29,-3.85,-0.06,3,0
17973.921,0.332,0.476,0.778,2.38,-0.7,-0.58,3,0
17973.937,0.323,0.479,0.783,1.77,2.38,-1.07,3,0
17973.953,0.31,0.48,0.789,0.92,5.07,-1.59,3,0
17973.968,0.297,0.477,0.797,-0.15,6.99,-2.08,3,0
17973.968,0.284,0.478,0.813,-1.28,8.42,-2.56,3,0
17973.984,0.273,0.479,0.825,-1.92,8.94,-2.66,3,0
17973.984,0.264,0.479,0.834,-2.04,8.67,-2.29,3,0
17974.0,0.259,0.482,0.848,-1.86,7.69,-1.53,3,0
17974.015,0.256,0.48,0.857,-1.53,5.77,-0.89,3,0
17974.015,0.261,0.484,0.859,-0.76,3.3,-0.27,3,0
17974.031,0.265,0.482,0.852,0.79,0.79,0.06,3,0
17974.046,0.269,0.481,0.841,2.38,-1.5,0.58,3,0
17974.046,0.276,0.487,0.828,3.85,-3.2,1.28,3,0
17974.062,0.283,0.49,0.819,5.01,-3.94,1.89,3,0
17974.078,0.288,0.487,0.807,5.58,-3.91,2.26,3,0
17974.078,0.293,0.484,0.803,5.92,-3.72,2.47,3,0
17974.093,0.296,0.489,0.799,5.4,-3.23,2.23,3,0
17974.093,0.294,0.495,0.802,3.81,-2.69,1.5,3,0
17974.109,0.297,0.5,0.809,1.68,-2.41,0.55,3,0
17974.125,0.269,0.49,0.81,-0.64,-2.47,-0.4,3,0
17974.125,0.292,0.487,0.821,-2.56,-3.94,0.03,3,0
17974.14,0.282,0.495,0.827,-4.09,-4.27,-0.76,3,0
17974.156,0.275,0.47,0.831,-5.55,-5.43,-1.01,3,0
17974.156,0.287,0.472,0.84,-5.89,-6.93,-0.95,3,0
17974.171,0.284,0.473,0.836,-5.04,-8.21,-1.43,3,0
17974.187,0.284,0.461,0.834,-4.64,-9.8,-1.92,3,0
17974.187,0.298,0.468,0.832,-3.75,-11.02,-1.86,3,0
17974.203,0.307,0.482,0.825,-2.81,-10.93,-2.59,3,0
17974.203,0.305,0.471,0.818,-1.98,-10.44,-3.33,3,0
17974.218,0.308,0.471,0.812,-0.12,-10.13,-2.75,3,0
17974.234,0.32,0.482,0.798,3.36,-9.16,-2.01,3,0
17974.234,0.317,0.489,0.782,5.4,-6.78,-1.86,3,0
17974.25,0.313,0.484,0.776,5.95,-4.06,-1.53,3,0
17974.265,0.31,0.49,0.776,5.86,-1.37,-1.16,3,0
17974.281,0.302,0.49,0.779,4.85,0.92,-1.13,3,0
17974.281,0.303,0.496,0.788,1.4,4.67,-1.53,3,0
17974.296,0.299,0.511,0.8,-0.52,6.13,-1.37,3,0
17974.296,0.278,0.509,0.809,-1.59,5.58,1.01,3,0
17974.312,0.267,0.49,0.82,-0.79,4.85,3.78,3,0
17974.328,0.291,0.494,0.838,-0.27,4.94,4.0,3,0
17974.328,0.288,0.451,0.846,-0.4,2.87,3.85,3,0
17974.343,0.304,0.454,0.846,1.37,1.19,4.55,3,0
17974.359,0.297,0.452,0.832,4.21,-0.27,3.97,3,0
17974.359,0.312,0.454,0.827,5.43,-1.19,3.14,3,0
17974.375,0.308,0.47,0.823,6.47,-1.07,1.4,3,0
17974.375,0.299,0.467,0.818,7.54,-0.92,0.7,3,0
17974.39,0.312,0.481,0.813,9.43,-0.7,-0.34,3,0
17974.406,0.293,0.487,0.801,10.56,0.24,-1.98,3,0
17974.406,0.288,0.498,0.794,9.58,0.67,-2.96,3,0
17974.421,0.279,0.516,0.79,8.09,0.89,-3.75,3,0
17974.437,0.273,0.521,0.784,5.4,0.64,-3.72,3,0
17974.437,0.274,0.52,0.783,2.01,0.27,-3.02,3,0
17974.453,0.277,0.523,0.788,-1.25,0.31,-1.86,3,0
17974.453,0.284,0.526,0.792,-3.57,0.73,-0.46,3,0
17974.468,0.281,0.516,0.796,-5.55,1.04,0.37,3,0
17974.484,0.283,0.5,0.803,-7.32,1.16,1.34,3,0
17974.5,0.286,0.489,0.807,-8.12,1.22,2.11,3,0
17974.5,0.293,0.48,0.813,-8.12,1.8,2.69,3,0
17974.515,0.297,0.471,0.819,-6.84,2.84,3.02,3,0
17974.515,0.297,0.464,0.823,-4.49,3.75,3.27,3,0
17974.531,0.299,0.464,0.828,-1.56,4.43,3.6,3,0
17974.546,0.302,0.474,0.827,0.98,4.91,3.45,3,0
17974.546,0.3,0.478,0.826,2.81,5.13,2.96,3,0
17974.562,0.301,0.479,0.819,3.78,4.97,2.44,3,0
17974.578,0.302,0.481,0.814,4.39,4.76,1.74,3,0
17974.578,0.302,0.485,0.805,4.76,4.88,1.22,3,0
17974.593,0.303,0.489,0.8,4.76,5.58,0.67,3,0
17974.593,0.301,0.492,0.796,4.46,6.62,-0.21,3,0
17974.609,0.293,0.491,0.797,3.75,7.45,-0.82,3,0
17974.625,0.289,0.495,0.802,2.66,8.0,-0.98,3,0
17974.625,0.285,0.5,0.81,1.4,8.42,-1.22,3,0
17974.64,0.273,0.497,0.819,0.7,8.51,-1.56,3,0
17974.656,0.265,0.491,0.828,0.31,7.84,-1.28,3,0
17974.656,0.262,0.491,0.839,0.46,6.71,-0.82,3,0
17974.671,0.255,0.491,0.844,0.46,5.13,-0.58,3,0
17974.687,0.251,0.487,0.851,0.64,2.81,-0.34,3,0
17974.687,0.262,0.495,0.855,1.01,0.06,0.0,3,0
17974.703,0.227,0.473,0.849,1.53,-2.56,-0.31,3,0
17974.718,0.281,0.479,0.851,1.98,-6.35,0.7,3,0
17974.718,0.27,0.495,0.834,4.24,-8.18,-1.28,3,0
17974.734,0.258,0.48,0.816,4.03,-9.52,-1.98,3,0
17974.734,0.285,0.472,0.816,4.43,-11.63,-2.17,3,0
17974.75,0.292,0.513,0.801,5.07,-11.05,-3.17,3,0
17974.765,0.285,0.494,0.786,4.09,-10.65,-5.43,3,0
17974.765,0.286,0.506,0.795,1.43,-10.35,-5.86,3,0
17974.781,0.292,0.51,0.785,1.01,-10.16,-6.56,3,0
17974.796,0.295,0.503,0.777,0.31,-9.25,-7.05,3,0
17974.796,0.295,0.511,0.779,-1.71,-7.2,-7.26,3,0
17974.812,0.291,0.508,0.784,-3.36,-5.28,-7.14,3,0
17974.828,0.292,0.507,0.788,-4.09,-3.42,-6.41,3,0
17974.828,0.283,0.501,0.789,-4.7,-2.11,-5.62,3,0
17974.843,0.293,0.497,0.8,-5.49,-0.85,-3.94,3,0
17974.859,0.302,0.504,0.809,-5.34,0.92,-2.93,3,0
17974.859,0.295,0.505,0.809,-4.91,3.11,-2.47,3,0
17974.875,0.294,0.504,0.811,-4.33,4.76,-1.74,3,0
17974.875,0.267,0.489,0.815,-4.15,5.46,0.4,3,0
17974.89,0.302,0.495,0.829,-4.06,5.62,3.91,3,0
17974.906,0.311,0.492,0.825,-2.32,6.56,4.18,3,0
17974.906,0.298,0.454,0.816,0.15,6.41,3.69,3,0
17974.921,0.316,0.45,0.814,3.6,6.93,4.0,3,0
17974.937,0.309,0.471,0.807,7.05,9.8,3.54,3,0
17974.937,0.288,0.466,0.806,9.28,12.39,2.2,3,0
17974.953,0.274,0.449,0.816,11.57,13.46,2.32,3,0
17974.968,0.3,0.492,0.82,14.89,14.53,1.22,3,0
17974.968,0.252,0.489,0.809,16.57,15.38,-2.9,3,0
17974.984,0.239,0.467,0.824,15.9,14.77,-4.49,3,0
17974.984,0.251,0.498,0.832,17.88,14.62,-5.65,3,0
17975.0,0.22,0.506,0.825,20.08,15.2,-7.42,3,0
17975.015,0.206,0.514,0.83,20.05,13.82,-7.11,3,0
17975.015,0.21,0.552,0.835,19.44,10.99,-7.05,3,0
17975.031,0.189,0.557,0.829,17.09,6.16,-5.95,3,0
17975.046,0.205,0.557,0.826,12.94,0.21,-2.75,3,0
17975.046,0.231,0.581,0.82,8.36,-4.33,-0.46,3,0
17975.062,0.24,0.57,0.8,5.1,-7.93,1.16,3,0
17975.078,0.277,0.569,0.786,1.34,-9.95,2.47,3,0
17975.078,0.28,0.559,0.769,-1.86,-9.77,2.14,3,0
17975.093,0.28,0.525,0.759,-5.4,-9.58,2.62,3,0
17975.109,0.305,0.512,0.761,-8.18,-8.06,3.78,3,0
17975.109,0.314,0.51,0.769,-9.43,-4.49,3.02,3,0
17975.125,0.296,0.493,0.781,-9.86,-0.27,1.5,3,0
17975.125,0.282,0.482,0.8,-8.85,2.66,1.28,3,0
17975.14,0.273,0.495,0.819,-5.92,4.55,0.52,3,0
17975.156,0.248,0.49,0.832,-3.48,5.62,0.0,3,0
17975.156,0.238,0.487,0.844,-1.37,4.94,0.15,3,0
17975.171,0.232,0.495,0.848,1.5,3.63,0.18,3,0
17975.187,0.222,0.493,0.842,4.0,1.8,-0.06,3,0
17975.187,0.231,0.498,0.836,5.71,-0.4,0.34,3,0
17975.203,0.237,0.507,0.827,7.29,-1.95,0.52,3,0
17975.203,0.242,0.516,0.817,8.42,-3.3,0.37,3,0
17975.218,0.251,0.523,0.806,9.03,-4.18,0.34,3,0
17975.234,0.256,0.532,0.797,9.22,-4.46,0.37,3,0
17975.25,0.262,0.534,0.791,8.45,-4.52,0.15,3,0
17975.25,0.264,0.536,0.79,7.05,-4.91,-0.31,3,0
17975.265,0.266,0.54,0.788,3.57,-5.68,-0.31,3,0
17975.265,0.268,0.54,0.789,1.98,-5.49,-0.06,3,0
17975.281,0.27,0.538,0.792,0.92,-5.49,0.49,3,0
17975.296,0.27,0.531,0.794,0.73,-5.31,1.22,3,0
17975.296,0.279,0.528,0.8,0.95,-4.79,1.37,3,0
17975.312,0.252,0.498,0.809,0.24,-5.19,2.29,3,0
17975.328,0.282,0.521,0.82,0.79,-5.65,3.17,3,0
17975.328,0.247,0.514,0.821,0.82,-5.8,2.5,3,0
17975.343,0.245,0.497,0.833,0.49,-8.03,3.6,3,0
17975.343,0.259,0.517,0.84,1.83,-10.71,4.03,3,0
17975.359,0.249,0.511,0.83,3.75,-12.67,3.14,3,0
17975.375,0.249,0.501,0.825,4.39,-15.05,2.11,3,0
17975.375,0.255,0.506,0.816,5.98,-17.15,1.13,3,0
17975.39,0.257,0.513,0.803,7.6,-18.98,-0.18,3,0
17975.406,0.265,0.523,0.789,8.06,-20.33,-1.5,3,0
17975.406,0.272,0.531,0.78,7.78,-21.36,-2.17,3,0
17975.421,0.287,0.553,0.769,6.99,-22.0,-3.05,3,0
17975.437,0.298,0.561,0.758,5.43,-22.43,-3.72,3,0
17975.437,0.307,0.56,0.747,3.05,-22.13,-4.24,3,0
17975.453,0.321,0.564,0.734,0.49,-21.3,-4.64,3,0
17975.468,0.337,0.575,0.72,-2.29,-18.92,-5.43,3,0
17975.468,0.31,0.588,0.707,-6.93,-14.47,-7.23,3,0
17975.484,0.281,0.544,0.713,-13.61,-12.24,-4.15,3,0
17975.5,0.329,0.587,0.729,-18.22,-9.0,-0.67,3,0
17975.5,0.308,0.576,0.732,-21.49,-6.47,-0.4,3,0
17975.515,0.32,0.527,0.753,-26.09,-4.88,1.5,3,0
17975.515,0.329,0.522,0.772,-28.08,-1.86,3.63,3,0
17975.531,0.326,0.494,0.782,-28.14,0.76,5.04,3,0
17975.546,0.332,0.472,0.797,-26.76,3.6,5.95,3,0
17975.546,0.312,0.45,0.813,-23.16,6.93,6.38,3,0
17975.562,0.298,0.418,0.832,-17.21,9.25,7.51,3,0
17975.578,0.329,0.424,0.849,-8.61,11.08,9.0,3,0
17975.578,0.316,0.471,0.847,0.89,14.74,5.86,3,0
17975.593,0.245,0.424,0.846,6.35,15.11,3.66,3,0
17975.609,0.278,0.43,0.87,11.35,12.91,5.13,3,0
17975.609,0.278,0.491,0.866,19.1,12.82,4.52,3,0
17975.625,0.247,0.479,0.857,24.05,11.99,3.3,3,0
17975.625,0.253,0.499,0.864,27.25,8.45,3.17,3,0
17975.64,0.247,0.506,0.852,30.67,3.23,4.55,3,0
17975.656,0.27,0.522,0.831,31.62,-1.59,5.92,3,0
17975.656,0.28,0.532,0.81,30.52,-5.71,5.16,3,0
17975.671,0.295,0.53,0.789,28.32,-9.06,3.57,3,0
17975.687,0.308,0.536,0.764,25.76,-10.99,1.37,3,0
17975.687,0.307,0.552,0.746,22.52,-12.18,-0.92,3,0
17975.703,0.321,0.572,0.733,17.85,-12.45,-2.44,3,0
17975.718,0.317,0.582,0.718,12.09,-12.24,-3.94,3,0
17975.718,0.324,0.574,0.714,5.89,-11.6,-4.06,3,0
17975.734,0.336,0.582,0.714,1.59,-9.28,-3.78,3,0
17975.734,0.322,0.576,0.714,-1.43,-5.68,-4.0,3,0
17975.75,0.314,0.565,0.725,-4.0,-2.59,-3.39,3,0
17975.765,0.3,0.569,0.742,-6.32,-0.61,-2.96,3,0
17975.765,0.277,0.559,0.756,-8.94,0.7,-1.56,3,0
17975.781,0.271,0.552,0.777,-11.63,0.46,0.31,3,0
17975.796,0.276,0.554,0.793,-13.0,-0.46,1.98,3,0
17975.796,0.277,0.546,0.802,-13.73,-1.5,3.17,3,0
17975.812,0.278,0.526,0.809,-13.86,-2.9,4.46,3,0
17975.828,0.292,0.511,0.813,-12.73,-4.39,5.83,3,0
17975.828,0.311,0.503,0.809,-10.71,-5.25,6.23,3,0
17975.843,0.323,0.49,0.798,-8.7,-4.94,5.43,3,0
17975.859,0.327,0.476,0.793,-6.32,-3.88,4.33,3,0
17975.859,0.337,0.476,0.788,-3.57,-2.11,3.17,3,0
17975.875,0.334,0.481,0.785,-0.21,0.15,1.98,3,0
17975.875,0.329,0.487,0.789,2.96,2.62,1.22,3,0
17975.89,0.318,0.498,0.794,6.41,4.73,0.92,3,0
17975.906,0.31,0.516,0.8,9.37,5.89,0.92,3,0
17975.906,0.308,0.538,0.796,11.72,6.07,0.73,3,0
17975.921,0.244,0.518,0.792,12.24,5.52,1.31,3,0
17975.937,0.31,0.545,0.8,13.09,3.39,3.78,3,0
17975.937,0.271,0.566,0.791,14.13,3.54,3.6,3,0
17975.953,0.249,0.526,0.793,12.63,2.17,5.43,3,0
17975.968,0.276,0.54,0.81,12.21,-0.89,8.21,3,0
17975.968,0.281,0.556,0.804,13.55,-2.87,8.85,3,0
17975.984,0.277,0.536,0.796,12.79,-5.34,8.24,3,0
17975.984,0.293,0.533,0.795,11.57,-8.09,7.63,3,0
17976.0,0.299,0.536,0.785,10.68,-10.13,6.44,3,0
17976.015,0.303,0.519,0.773,8.64,-12.09,4.79,3,0
17976.015,0.325,0.524,0.767,6.44,-13.52,2.75,3,0
17976.031,0.32,0.527,0.761,4.46,-14.34,-0.31,3,0
17976.046,0.332,0.527,0.76,2.14,-15.9,-2.32,3,0
17976.046,0.337,0.549,0.759,0.73,-16.82,-4.27,3,0
17976.062,0.341,0.547,0.755,-0.03,-17.18,-5.86,3,0
17976.078,0.347,0.548,0.748,-0.21,-16.88,-7.05,3,0
17976.078,0.344,0.558,0.736,0.12,-15.81,-7.81,3,0
17976.093,0.344,0.582,0.724,-0.37,-13.43,-8.33,3,0
17976.109,0.312,0.57,0.717,-2.75,-11.29,-7.69,3,0
17976.109,0.36,0.585,0.721,-5.22,-9.55,-5.52,3,0
17976.125,0.35,0.581,0.712,-6.2,-7.72,-4.79,3,0
17976.125,0.363,0.551,0.708,-7.57,-6.07,-3.57,3,0
17976.14,0.379,0.552,0.708,-9.31,-1.46,-2.62,3,0
17976.156,0.363,0.535,0.703,-10.65,3.69,-2.32,3,0
17976.171,0.369,0.523,0.713,-11.87,8.7,-1.65,3,0
17976.171,0.32,0.495,0.73,-12.3,13.03,-0.03,3,0
17976.187,0.393,0.524,0.766,-11.35,16.66,2.08,3,0
17976.187,0.339,0.534,0.768,-8.15,22.19,-1.16,3,0
17976.203,0.277,0.475,0.783,-7.05,24.66,-2.5,3,0
