timestamp,ax,ay,az,gx,gy,gz,orient_label,motion_label
18019.281,-0.446,0.118,0.864,1.77,5.65,2.11,3,0
18019.296,-0.456,0.111,0.876,3.75,5.92,0.37,3,0
18019.296,-0.46,0.114,0.883,5.25,5.07,-0.89,3,0
18019.312,-0.453,0.115,0.882,5.4,3.42,-2.81,3,0
18019.328,-0.464,0.113,0.897,6.47,1.83,-5.52,3,0
18019.328,-0.484,0.121,0.893,9.4,0.21,-6.78,3,0
18019.343,-0.484,0.145,0.887,9.52,-1.8,-5.89,3,0
18019.359,-0.462,0.141,0.872,7.39,-3.63,-5.49,3,0
18019.359,-0.449,0.131,0.858,6.26,-3.81,-5.89,3,0
18019.375,-0.441,0.134,0.849,6.78,-2.2,-6.23,3,0
18019.375,-0.451,0.139,0.837,7.45,0.15,-6.9,3,0
18019.39,-0.466,0.143,0.833,7.75,2.69,-7.08,3,0
18019.406,-0.467,0.158,0.848,6.84,4.58,-6.56,3,0
18019.421,-0.486,0.157,0.869,6.16,5.83,-5.62,3,0
18019.421,-0.486,0.16,0.883,5.86,5.43,-3.69,3,0
18019.437,-0.474,0.164,0.883,5.52,4.43,-2.66,3,0
18019.437,-0.467,0.161,0.882,4.27,3.23,-2.81,3,0
18019.468,-0.46,0.173,0.882,4.64,1.98,-2.78,3,0
18019.468,-0.456,0.183,0.877,4.36,1.68,-1.37,3,0
18019.484,-0.457,0.177,0.877,2.72,1.31,0.12,3,0
18019.5,-0.459,0.166,0.874,1.56,0.98,1.59,3,0
18019.5,-0.464,0.155,0.87,1.16,1.04,2.59,3,0
18019.515,-0.47,0.15,0.871,0.85,0.76,2.56,3,0
18019.515,-0.474,0.146,0.877,0.79,-0.15,2.08,3,0
18019.531,-0.481,0.144,0.874,1.56,-1.16,2.01,3,0
18019.546,-0.474,0.145,0.868,1.25,-3.08,1.98,3,0
18019.546,-0.462,0.144,0.871,2.32,-3.48,0.85,3,0
18019.562,-0.47,0.144,0.875,3.85,-4.09,1.04,3,0
18019.578,-0.47,0.167,0.872,3.88,-5.01,1.83,3,0
18019.578,-0.467,0.166,0.864,3.36,-5.37,2.69,3,0
18019.593,-0.462,0.159,0.852,2.47,-5.28,4.15,3,0
18019.609,-0.453,0.147,0.839,0.85,-4.24,5.16,3,0
18019.609,-0.456,0.13,0.833,-0.58,-2.2,5.16,3,0
18019.625,-0.468,0.116,0.849,-3.2,1.37,3.45,3,0
18019.64,-0.485,0.104,0.882,-2.14,1.83,2.23,3,0
18019.656,-0.478,0.118,0.87,-1.16,0.58,0.7,3,0
18019.656,-0.477,0.123,0.879,-1.07,-0.31,-1.34,3,0
18019.671,-0.472,0.128,0.881,-0.82,-1.25,-2.84,3,0
18019.687,-0.48,0.139,0.891,0.67,-1.86,-3.48,3,0
18019.687,-0.485,0.155,0.886,2.01,-2.75,-3.08,3,0
18019.703,-0.475,0.155,0.88,0.95,-3.6,-2.26,3,0
18019.718,-0.46,0.142,0.87,-0.4,-3.85,-2.38,3,0
18019.718,-0.466,0.141,0.874,-0.79,-3.02,-3.17,3,0
18019.734,-0.481,0.146,0.884,-0.03,-2.35,-3.72,3,0
18019.734,-0.49,0.159,0.889,0.49,-2.66,-3.08,3,0
18019.75,-0.489,0.166,0.887,-0.09,-4.12,-2.2,3,0
18019.765,-0.484,0.163,0.878,-1.01,-5.83,-1.53,3,0
18019.765,-0.48,0.16,0.871,-1.46,-6.65,-0.89,3,0
18019.781,-0.472,0.157,0.86,-1.74,-6.99,-0.27,3,0
18019.796,-0.491,0.133,0.829,-2.32,-6.74,-1.59,3,0
18019.812,-0.49,0.125,0.821,-1.43,-6.84,-3.05,3,0
18019.828,-0.489,0.127,0.814,0.27,-6.56,-4.88,3,0
18019.828,-0.49,0.137,0.811,1.46,-5.89,-5.98,3,0
18019.843,-0.486,0.145,0.809,1.62,-4.64,-6.47,3,0
18019.859,-0.482,0.146,0.818,0.52,-3.14,-6.16,3,0
18019.859,-0.479,0.146,0.837,-0.09,-1.68,-6.2,3,0
18019.875,-0.48,0.146,0.853,0.58,-0.89,-7.14,3,0
18019.875,-0.476,0.143,0.877,2.01,-1.22,-8.76,3,0
18019.89,-0.479,0.144,0.897,4.39,-2.72,-11.35,3,0
18019.906,-0.486,0.146,0.91,6.68,-5.25,-14.31,3,0
18019.906,-0.48,0.143,0.919,8.82,-8.45,-16.91,3,0
18019.921,-0.469,0.137,0.933,10.96,-11.63,-19.81,3,0
18019.937,-0.467,0.117,0.951,13.4,-14.22,-23.04,3,0
18019.937,-0.469,0.09,0.973,16.54,-17.12,-26.34,3,0
18019.953,-0.46,0.061,0.998,19.81,-21.15,-30.0,3,0
18019.968,-0.433,-0.054,1.058,28.78,-32.29,-41.72,3,0
18019.984,-0.424,-0.1,1.077,35.31,-40.5,-53.01,3,0
18019.984,-0.424,-0.137,1.141,42.48,-51.09,-68.48,3,0
18020.0,-0.418,-0.18,1.136,54.45,-63.84,-88.44,3,0
18020.015,-0.442,-0.173,1.182,69.86,-76.85,-110.78,3,0
18020.015,-0.45,-0.141,1.175,84.96,-92.2,-133.34,3,0
18020.031,-0.463,-0.122,1.187,97.75,-107.3,-154.52,3,0
18020.046,-0.476,-0.074,1.185,108.92,-122.23,-172.7,3,0
18020.046,-0.478,-0.041,1.157,119.02,-136.05,-187.11,3,0
18020.062,-0.475,-0.012,1.134,127.35,-147.74,-198.43,3,0
18020.078,-0.486,0.026,1.114,134.71,-157.87,-207.37,3,0
18020.078,-0.517,0.092,1.084,141.36,-166.88,-212.65,3,0
18020.093,-0.532,0.178,1.06,143.25,-175.94,-213.78,3,0
18020.109,-0.518,0.239,1.028,141.94,-184.79,-211.49,3,0
18020.109,-0.479,0.277,0.982,139.59,-190.37,-207.22,3,0
18020.125,-0.426,0.322,0.955,137.42,-190.65,-200.48,3,0
18020.125,-0.384,0.37,0.94,137.79,-185.74,-191.53,3,0
18020.14,-0.344,0.412,0.925,138.68,-177.43,-178.75,3,0
18020.156,-0.312,0.473,0.911,136.81,-166.69,-161.87,3,0
18020.156,-0.3,0.538,0.908,130.83,-155.28,-142.55,3,0
18020.171,-0.287,0.593,0.928,120.85,-145.02,-121.04,3,0
18020.187,-0.271,0.633,0.955,109.62,-136.36,-97.51,3,0
18020.187,-0.25,0.663,0.978,97.78,-128.94,-73.12,3,0
18020.203,-0.214,0.674,0.994,84.84,-123.2,-49.53,3,0
18020.218,-0.166,0.64,1.013,71.99,-118.02,-29.42,3,0
18020.218,-0.111,0.618,1.043,63.33,-112.46,-14.16,3,0
18020.234,-0.049,0.588,1.075,61.71,-106.05,-3.57,3,0
18020.25,-0.03,0.565,1.114,65.03,-99.64,2.26,3,0
18020.25,-0.026,0.562,1.145,69.77,-95.07,6.56,3,0
18020.265,-0.03,0.57,1.165,73.03,-92.9,10.77,3,0
18020.265,-0.033,0.564,1.172,72.97,-93.39,15.87,3,0
18020.281,-0.033,0.557,1.184,69.61,-96.19,21.91,3,0
18020.296,0.028,0.549,1.19,62.26,-105.38,32.81,3,0
18020.312,0.038,0.576,1.231,61.92,-108.28,35.49,3,0
18020.328,0.053,0.588,1.25,65.46,-112.64,38.85,3,0
18020.328,0.074,0.625,1.23,70.25,-116.43,44.04,3,0
18020.343,0.071,0.701,1.22,71.87,-119.6,49.38,3,0
18020.359,0.077,0.764,1.194,67.2,-125.19,54.84,3,0
18020.359,0.097,0.819,1.173,55.42,-133.43,59.57,3,0
18020.375,0.116,0.835,1.173,42.6,-142.7,62.87,3,0
18020.39,0.155,0.833,1.137,34.3,-152.13,66.47,3,0
18020.39,0.22,0.863,1.088,27.83,-158.7,71.75,3,0
18020.406,0.313,0.911,1.06,24.2,-160.65,77.0,3,0
18020.406,0.39,0.944,1.037,23.26,-158.85,81.45,3,0
18020.421,0.42,0.967,1.024,23.77,-154.7,85.21,3,0
18020.437,0.395,0.947,0.964,25.94,-150.98,90.24,3,0
18020.437,0.386,0.923,0.876,22.8,-149.45,98.42,3,0
18020.453,0.382,0.877,0.8,14.56,-149.72,106.57,3,0
18020.468,0.37,0.658,0.63,-7.35,-155.16,119.33,3,0
18020.484,0.365,0.502,0.54,-14.59,-159.43,122.41,3,0
18020.5,0.35,0.338,0.444,-16.21,-162.97,122.56,3,0
18020.5,0.367,0.219,0.354,-14.5,-165.87,121.16,3,0
18020.515,0.394,0.121,0.269,-10.99,-167.12,116.7,3,0
18020.531,0.432,0.039,0.202,-2.87,-158.21,99.77,3,0
18020.531,0.498,-0.021,0.146,1.95,-146.43,87.77,3,0
18020.546,0.555,-0.056,0.084,5.37,-130.99,73.85,3,0
18020.546,0.604,-0.077,0.03,6.2,-113.22,58.2,3,0
18020.562,0.663,-0.095,-0.028,6.44,-93.81,41.69,3,0
18020.578,0.709,-0.09,-0.033,5.83,-73.34,25.64,3,0
18020.578,0.754,-0.062,-0.02,7.45,-50.81,9.46,3,0
18020.593,0.765,-0.048,-0.009,13.15,-26.0,-7.17,3,0
18020.609,0.753,-0.019,0.014,20.23,-1.59,-22.64,3,0
18020.609,0.738,0.029,0.032,29.24,21.49,-37.42,3,0
18020.625,0.67,0.067,0.034,38.85,43.55,-51.97,3,0
18020.625,0.63,0.082,0.046,44.04,60.15,-58.53,3,0
18020.64,0.641,0.172,0.082,45.32,71.9,-60.76,3,0
18020.656,0.619,0.247,0.109,47.82,82.98,-63.84,3,0
18020.656,0.602,0.302,0.133,47.91,91.59,-65.31,3,0
18020.671,0.566,0.353,0.173,45.08,99.67,-64.79,3,0
18020.687,0.502,0.375,0.208,42.39,105.5,-61.46,3,0
18020.703,0.433,0.378,0.243,36.87,104.04,-53.62,3,0
18020.703,0.403,0.397,0.329,26.31,93.48,-41.54,3,0
18020.718,0.399,0.382,0.41,18.13,76.33,-30.61,3,0
18020.718,0.411,0.36,0.438,10.77,55.54,-21.7,3,0
18020.734,0.474,0.381,0.446,-1.95,38.27,-13.12,3,0
18020.75,0.544,0.409,0.445,-16.94,29.3,-8.36,3,0
18020.75,0.571,0.411,0.447,-33.2,28.72,-10.83,3,0
18020.765,0.589,0.402,0.462,-49.65,33.36,-18.34,3,0
18020.781,0.602,0.393,0.481,-63.2,43.4,-28.14,3,0
18020.781,0.578,0.365,0.498,-70.1,57.1,-38.58,3,0
18020.796,0.523,0.325,0.514,-69.31,70.13,-47.67,3,0
18020.796,0.482,0.323,0.542,-65.1,82.19,-54.66,3,0
18020.812,0.431,0.354,0.588,-61.19,92.41,-63.88,3,0
18020.828,0.382,0.36,0.61,-56.37,98.7,-74.92,3,0
18020.828,0.346,0.385,0.633,-52.98,106.3,-84.72,3,0
18020.843,0.296,0.421,0.658,-50.69,116.25,-93.48,3,0
18020.859,0.232,0.49,0.718,-47.15,127.48,-99.46,3,0
18020.859,0.138,0.53,0.771,-39.61,135.78,-99.37,3,0
18020.875,0.056,0.519,0.781,-30.88,138.34,-90.79,3,0
18020.89,0.007,0.493,0.778,-26.12,134.62,-77.09,3,0
18020.89,-0.003,0.49,0.777,-24.35,125.31,-65.98,3,0
18020.906,-0.003,0.476,0.776,-24.38,112.77,-61.07,3,0
18020.906,-0.012,0.471,0.774,-29.97,100.89,-64.52,3,0
18020.921,-0.021,0.497,0.773,-41.72,91.8,-72.66,3,0
18020.937,-0.026,0.512,0.777,-56.67,86.0,-81.45,3,0
18020.937,-0.033,0.524,0.824,-73.7,83.1,-88.08,3,0
18020.953,-0.054,0.537,0.896,-88.9,78.28,-87.8,3,0
18020.968,-0.12,0.419,0.992,-94.64,60.91,-67.29,3,0
18020.984,-0.113,0.389,1.034,-85.63,52.71,-61.28,3,0
18021.0,-0.099,0.365,1.019,-69.61,44.65,-62.75,3,0
18021.0,-0.075,0.355,1.008,-52.22,37.72,-66.59,3,0
18021.015,-0.065,0.352,0.994,-36.26,31.07,-69.31,3,0
18021.015,-0.043,0.369,0.968,-22.28,27.25,-68.54,3,0
18021.031,-0.007,0.382,0.907,-9.55,28.63,-65.71,3,0
18021.046,0.016,0.388,0.839,-0.4,34.24,-62.41,3,0
18021.046,0.021,0.412,0.817,3.11,42.21,-58.47,3,0
18021.062,0.013,0.445,0.849,4.33,48.43,-52.71,3,0
18021.078,-0.095,0.496,0.965,4.52,47.4,-42.3,3,0
18021.078,-0.183,0.654,1.112,-6.53,29.11,-22.43,3,0
18021.093,-0.188,0.688,1.192,-18.71,-3.42,-1.25,3,0
18021.109,-0.097,0.604,1.168,-26.76,-34.36,14.65,3,0
18021.109,-0.035,0.482,1.063,-31.5,-53.13,16.88,3,0
18021.125,0.05,0.38,0.949,-31.07,-58.2,11.87,3,0
18021.14,0.094,0.334,0.88,-6.56,-34.67,0.76,3,0
18021.156,0.07,0.394,0.944,6.62,-23.29,-1.07,3,0
18021.156,0.04,0.443,0.996,16.72,-20.26,1.19,3,0
18021.171,0.034,0.434,1.006,24.11,-25.82,5.55,3,0
18021.187,0.047,0.402,1.001,32.56,-36.07,9.98,3,0
18021.187,0.05,0.395,0.972,42.18,-48.1,13.09,3,0
18021.203,0.052,0.39,0.932,51.79,-61.22,15.96,3,0
18021.218,0.047,0.38,0.913,58.57,-74.74,20.05,3,0
18021.218,0.049,0.448,0.884,59.21,-90.3,25.42,3,0
18021.234,0.195,0.416,0.808,67.17,-99.03,35.1,3,0
18021.234,0.185,0.469,0.796,62.2,-95.98,39.89,3,0
18021.25,0.253,0.563,0.786,42.3,-89.45,40.86,3,0
18021.265,0.332,0.564,0.804,20.11,-74.95,35.31,3,0
18021.265,0.344,0.566,0.882,-1.1,-55.39,24.48,3,0
18021.281,0.309,0.539,0.956,-11.08,-43.12,16.82,3,0
18021.296,0.277,0.479,0.965,-8.51,-41.81,16.45,3,0
18021.312,0.276,0.433,0.898,15.2,-51.24,26.28,3,0
18021.328,0.312,0.427,0.833,26.55,-53.04,28.35,3,0
18021.328,0.327,0.431,0.773,32.62,-50.23,26.49,3,0
18021.343,0.329,0.442,0.724,32.84,-45.2,23.5,3,0
18021.359,0.337,0.458,0.674,28.66,-38.76,20.45,3,0
18021.359,0.347,0.472,0.637,19.56,-30.73,17.12,3,0
18021.375,0.354,0.464,0.625,7.29,-21.49,13.37,3,0
18021.375,0.369,0.459,0.635,-4.46,-11.6,9.43,3,0
18021.39,0.362,0.47,0.662,-12.91,-2.32,6.2,3,0
18021.406,0.363,0.47,0.689,-17.52,5.92,4.94,3,0
18021.406,0.371,0.47,0.716,-19.99,13.7,4.46,3,0
18021.421,0.361,0.46,0.741,-20.42,20.75,2.99,3,0
18021.437,0.357,0.463,0.769,-20.11,25.94,0.76,3,0
18021.453,0.351,0.48,0.807,-20.11,30.24,-2.11,3,0
18021.453,0.325,0.481,0.834,-20.05,32.53,-4.21,3,0
18021.468,0.305,0.473,0.849,-20.11,31.4,-4.46,3,0
18021.484,0.289,0.49,0.881,-21.76,24.57,-2.41,3,0
18021.5,0.284,0.484,0.878,-23.59,20.81,-1.19,3,0
18021.5,0.269,0.473,0.874,-25.85,17.37,-0.55,3,0
18021.515,0.266,0.458,0.872,-27.8,11.35,2.5,3,0
18021.515,0.268,0.447,0.869,-28.81,10.01,3.6,3,0
18021.531,0.261,0.438,0.866,-30.4,8.64,4.18,3,0
18021.546,0.259,0.407,0.858,-32.17,7.69,3.69,3,0
18021.546,0.259,0.386,0.862,-33.6,7.11,3.05,3,0
18021.562,0.265,0.377,0.867,-33.88,7.26,2.56,3,0
18021.578,0.267,0.369,0.875,-32.62,8.06,1.77,3,0
18021.578,0.268,0.357,0.88,-29.45,8.82,1.19,3,0
18021.593,0.273,0.355,0.891,-24.84,9.49,0.7,3,0
18021.609,0.272,0.361,0.905,-19.17,10.41,0.46,3,0
18021.609,0.269,0.366,0.916,-12.91,10.93,0.46,3,0
18021.625,0.257,0.374,0.926,-7.93,9.8,0.73,3,0
18021.625,0.254,0.384,0.932,-5.19,6.41,0.92,3,0
18021.656,0.266,0.378,0.924,-8.55,-2.9,0.31,3,0
18021.671,0.269,0.36,0.895,-9.61,-5.83,-1.19,3,0
18021.671,0.276,0.349,0.871,-8.7,-6.38,-2.69,3,0
18021.687,0.281,0.351,0.863,-6.32,-4.88,-3.63,3,0
18021.687,0.285,0.358,0.866,-4.3,-2.2,-3.72,3,0
18021.703,0.281,0.361,0.87,-2.59,0.64,-3.6,3,0
18021.718,0.281,0.359,0.869,0.67,3.17,-2.93,3,0
18021.718,0.284,0.365,0.871,3.75,5.65,-2.35,3,0
18021.734,0.279,0.373,0.874,6.38,8.33,-2.47,3,0
18021.75,0.28,0.37,0.868,9.8,10.5,-2.26,3,0
18021.75,0.28,0.369,0.862,12.21,12.27,-2.29,3,0
18021.765,0.275,0.376,0.861,11.63,14.01,-2.81,3,0
18021.765,0.271,0.378,0.862,11.29,15.26,-4.33,3,0
18021.781,0.269,0.385,0.86,10.74,15.66,-5.49,3,0
18021.796,0.261,0.396,0.869,8.21,15.96,-6.87,3,0
18021.796,0.264,0.396,0.873,5.4,15.63,-8.55,3,0
18021.828,0.263,0.374,0.855,2.44,16.63,-12.3,3,0
18021.828,0.282,0.36,0.832,3.88,19.81,-15.29,3,0
18021.843,0.289,0.35,0.798,5.31,25.3,-19.29,3,0
18021.859,0.258,0.355,0.808,4.76,32.5,-22.74,3,0
18021.859,0.202,0.418,0.904,-3.45,35.89,-22.98,3,0
18021.875,0.181,0.461,0.978,-11.66,33.14,-19.96,3,0
18021.89,0.191,0.458,0.949,-9.13,27.8,-15.99,3,0
18021.89,0.115,0.381,0.951,-1.1,26.0,-12.76,3,0
18021.906,0.055,0.557,1.042,-12.67,16.85,-6.93,3,0
18021.921,0.132,0.543,1.005,-8.12,3.42,3.48,3,0
18021.921,0.131,0.433,0.925,5.92,-3.94,8.42,3,0
18021.937,0.166,0.397,0.885,7.78,-6.96,13.03,3,0
18021.953,0.2,0.363,0.853,9.25,-6.65,13.31,3,0
18021.953,0.208,0.333,0.865,10.71,-4.64,9.28,3,0
18021.968,0.195,0.34,0.898,11.41,-4.88,5.01,3,0
18021.968,0.206,0.349,0.922,12.67,-7.81,1.62,3,0
18022.0,0.215,0.37,0.932,19.23,-12.18,-4.88,3,0
18022.0,0.212,0.394,0.93,21.39,-14.5,-5.95,3,0
18022.015,0.209,0.413,0.925,24.08,-16.69,-4.91,3,0
18022.015,0.215,0.433,0.913,27.28,-18.07,-1.71,3,0
18022.031,0.207,0.444,0.903,29.51,-18.28,1.07,3,0
18022.046,0.161,0.482,0.916,27.71,-20.39,3.6,3,0
18022.046,0.232,0.48,0.863,25.21,-26.22,7.45,3,0
18022.062,0.21,0.404,0.787,29.57,-25.82,7.48,3,0
18022.078,0.189,0.489,0.811,17.73,-24.38,8.03,3,0
18022.078,0.194,0.539,0.833,4.85,-27.1,9.43,3,0
18022.093,0.206,0.538,0.819,-5.25,-31.04,10.38,3,0
18022.109,0.225,0.524,0.819,-15.84,-34.42,11.57,3,0
18022.109,0.25,0.511,0.817,-23.71,-35.46,13.06,3,0
18022.125,0.273,0.486,0.805,-27.25,-34.03,15.02,3,0
18022.14,0.294,0.453,0.79,-28.57,-30.43,17.3,3,0
18022.14,0.313,0.417,0.782,-28.26,-25.3,19.26,3,0
18022.156,0.334,0.368,0.786,-22.86,-10.59,19.5,3,0
18022.171,0.333,0.352,0.802,-18.74,-3.27,17.49,3,0
18022.187,0.323,0.346,0.833,-15.38,2.93,14.34,3,0
18022.187,0.315,0.352,0.865,-13.0,6.71,10.9,3,0
18022.203,0.302,0.348,0.892,-12.02,7.6,8.03,3,0
18022.218,0.288,0.338,0.913,-11.78,6.5,5.1,3,0
18022.218,0.279,0.341,0.93,-11.44,3.72,2.08,3,0
18022.234,0.274,0.351,0.939,-10.62,0.12,-0.18,3,0
18022.25,0.267,0.354,0.933,-8.67,-3.57,-2.01,3,0
18022.25,0.265,0.36,0.918,-6.32,-6.56,-2.87,3,0
18022.265,0.267,0.367,0.903,-4.27,-8.36,-2.93,3,0
18022.265,0.27,0.374,0.889,-2.41,-9.13,-2.62,3,0
18022.281,0.277,0.372,0.872,0.18,-8.82,-1.86,3,0
18022.296,0.288,0.372,0.85,3.78,-7.14,-0.89,3,0
18022.312,0.3,0.376,0.836,6.81,-4.09,-0.15,3,0
18022.312,0.305,0.39,0.831,8.27,-0.37,-0.03,3,0
18022.328,0.296,0.406,0.831,9.19,5.58,-0.12,3,0
18022.343,0.293,0.421,0.844,7.42,7.26,-0.58,3,0
18022.359,0.283,0.429,0.855,4.85,7.81,-1.19,3,0
18022.359,0.275,0.429,0.866,2.2,7.32,-1.46,3,0
18022.375,0.27,0.427,0.873,-0.52,6.5,-1.16,3,0
18022.39,0.268,0.418,0.872,-2.72,5.4,-0.52,3,0
18022.39,0.264,0.408,0.875,-4.18,4.64,0.46,3,0
18022.406,0.259,0.397,0.876,-4.88,4.24,1.53,3,0
18022.406,0.259,0.387,0.875,-5.1,3.94,2.62,3,0
18022.421,0.265,0.38,0.872,-5.16,3.88,3.57,3,0
18022.437,0.265,0.377,0.87,-5.37,4.21,4.12,3,0
18022.437,0.27,0.375,0.871,-4.97,5.07,4.24,3,0
18022.453,0.273,0.372,0.87,-3.66,6.41,4.46,3,0
18022.468,0.273,0.376,0.872,-1.4,8.09,5.01,3,0
18022.468,0.269,0.38,0.881,1.71,9.92,5.37,3,0
18022.484,0.266,0.38,0.897,5.68,10.65,5.52,3,0
18022.484,0.261,0.385,0.921,9.37,6.16,4.27,3,0
18022.5,0.256,0.388,0.935,10.53,1.95,3.05,3,0
18022.515,0.25,0.381,0.928,10.5,-2.66,1.65,3,0
18022.531,0.254,0.384,0.915,9.22,-6.32,0.43,3,0
18022.531,0.262,0.387,0.873,8.03,-8.06,-0.24,3,0
18022.546,0.273,0.392,0.855,7.69,-8.03,0.12,3,0
18022.546,0.278,0.392,0.841,9.03,-6.5,1.31,3,0
18022.562,0.29,0.399,0.832,10.04,-3.45,3.02,3,0
18022.578,0.299,0.414,0.837,10.74,1.19,4.55,3,0
18022.593,0.286,0.41,0.833,12.6,5.95,5.95,3,0
18022.593,0.279,0.4,0.836,16.05,9.7,8.21,3,0
18022.609,0.275,0.402,0.841,20.84,13.37,10.44,3,0
18022.609,0.274,0.408,0.85,24.66,17.06,11.75,3,0
18022.625,0.263,0.408,0.858,26.34,19.81,11.84,3,0
18022.64,0.254,0.399,0.862,27.41,20.17,10.9,3,0
18022.64,0.253,0.402,0.866,27.74,18.89,9.34,3,0
18022.656,0.256,0.416,0.872,26.12,17.18,6.35,3,0
18022.656,0.253,0.428,0.875,22.1,14.8,2.96,3,0
18022.671,0.252,0.433,0.875,17.7,11.38,0.34,3,0
18022.687,0.254,0.442,0.868,14.53,7.84,-1.68,3,0
18022.687,0.264,0.45,0.854,11.72,5.58,-2.9,3,0
18022.703,0.275,0.451,0.842,8.24,4.55,-4.79,3,0
18022.718,0.278,0.449,0.828,4.76,4.55,-6.32,3,0
18022.718,0.281,0.434,0.813,2.5,5.25,-7.02,3,0
18022.734,0.289,0.429,0.789,0.15,8.18,-7.45,3,0
18022.75,0.292,0.427,0.765,-4.0,14.83,-8.42,3,0
18022.75,0.29,0.44,0.758,-9.31,25.24,-9.55,3,0
18022.765,0.245,0.466,0.781,-15.69,32.93,-8.76,3,0
18022.765,0.229,0.49,0.815,-21.61,36.19,-6.53,3,0
18022.781,0.253,0.398,0.807,-17.55,40.22,-4.06,3,0
18022.796,0.048,0.444,0.951,-23.53,40.56,-6.99,3,0
18022.796,0.08,0.649,1.114,-41.93,20.78,-2.66,3,0
18022.812,0.131,0.535,1.052,-27.62,1.04,2.93,3,0
18022.828,0.137,0.435,0.952,-17.12,-9.49,6.5,3,0
18022.828,0.206,0.39,0.886,-10.38,-12.85,10.99,3,0
18022.843,0.234,0.328,0.879,-0.82,-10.13,11.44,3,0
18022.859,0.214,0.312,0.914,4.3,-7.75,9.06,3,0
18022.859,0.214,0.303,0.951,7.97,-9.86,5.4,3,0
18022.875,0.222,0.306,0.97,14.5,-15.2,-0.06,3,0
18022.89,0.223,0.347,0.985,18.68,-21.36,-5.01,3,0
18022.89,0.215,0.383,0.984,23.59,-26.95,-7.78,3,0
18022.906,0.173,0.399,0.979,30.27,-32.11,-8.12,3,0
18022.906,0.2,0.493,0.953,31.89,-40.04,-5.65,3,0
18022.921,0.248,0.397,0.835,44.22,-42.76,-2.47,3,0
18022.937,0.167,0.443,0.82,41.38,-40.47,-2.93,3,0
18022.953,0.207,0.526,0.837,27.47,-43.76,0.37,3,0
18022.953,0.235,0.512,0.835,18.31,-47.36,0.55,3,0
18022.968,0.232,0.488,0.785,17.3,-46.54,2.2,3,0
18022.968,0.255,0.502,0.76,14.34,-45.17,4.97,3,0
18022.984,0.299,0.526,0.751,9.77,-40.8,8.15,3,0
18023.0,0.306,0.521,0.742,8.42,-34.0,11.02,3,0
18023.0,0.311,0.51,0.743,5.52,-27.89,14.71,3,0
18023.015,0.315,0.504,0.757,1.8,-22.89,18.71,3,0
18023.015,0.319,0.498,0.785,-1.04,-18.86,21.52,3,0
18023.031,0.312,0.496,0.829,-2.66,-16.48,22.8,3,0
18023.046,0.296,0.48,0.862,-2.99,-16.88,23.29,3,0
18023.046,0.285,0.467,0.888,-4.21,-20.66,23.77,3,0
18023.062,0.291,0.455,0.887,-6.2,-26.37,24.38,3,0
18023.078,0.302,0.436,0.861,-8.21,-31.46,23.65,3,0
18023.078,0.313,0.418,0.835,-9.67,-34.94,22.4,3,0
18023.093,0.333,0.42,0.83,-10.8,-35.86,21.49,3,0
18023.109,0.344,0.423,0.825,-10.35,-34.55,21.03,3,0
18023.109,0.349,0.405,0.807,-7.57,-32.11,21.73,3,0
18023.125,0.362,0.392,0.786,-2.47,-29.18,23.07,3,0
18023.14,0.381,0.396,0.771,2.44,-25.12,23.9,3,0
18023.14,0.394,0.414,0.773,4.94,-19.96,23.44,3,0
18023.156,0.383,0.43,0.794,6.65,-14.89,22.74,3,0
18023.156,0.364,0.443,0.818,8.82,-11.93,23.8,3,0
18023.171,0.348,0.468,0.843,11.84,-11.38,26.64,3,0
18023.187,0.336,0.49,0.862,14.86,-11.9,31.37,3,0
18023.187,0.324,0.492,0.861,16.39,-13.79,37.02,3,0
18023.203,0.306,0.503,0.885,17.4,-17.12,42.7,3,0
18023.218,0.271,0.528,0.939,21.0,-21.3,49.62,3,0
18023.234,0.24,0.54,0.982,27.44,-27.38,60.73,3,0
18023.234,0.187,0.585,1.016,36.13,-33.48,74.92,3,0
18023.25,0.155,0.608,1.004,46.72,-41.41,91.86,3,0
18023.25,0.123,0.635,0.982,55.24,-49.96,108.74,3,0
18023.265,0.124,0.691,0.956,62.99,-56.22,124.55,3,0
18023.265,0.143,0.766,0.902,67.9,-59.05,137.15,3,0
18023.281,0.161,0.856,0.828,65.77,-59.11,149.54,3,0
18023.296,0.177,0.91,0.745,57.13,-55.64,159.92,3,0
18023.296,0.187,0.836,0.699,46.54,-39.67,159.31,3,0
18023.312,0.148,0.85,0.657,67.51,8.64,108.46,3,0
18023.328,0.182,0.824,0.625,70.07,4.94,96.96,3,0
18023.343,0.1,0.761,0.559,62.26,23.93,101.99,3,0
18023.359,0.16,0.724,0.493,56.76,49.9,135.9,3,0
18023.359,0.16,0.601,0.446,49.53,63.08,147.65,3,0
18023.375,0.183,0.472,0.409,28.69,71.99,155.71,3,0
18023.375,0.198,0.345,0.348,5.43,77.91,156.9,3,0
18023.39,0.244,0.157,0.283,-13.0,83.1,151.77,3,0
18023.406,0.293,0.009,0.27,-22.77,91.37,140.26,3,0
18023.406,0.344,-0.107,0.295,-18.59,106.23,125.58,3,0
18023.421,0.395,-0.22,0.362,-6.96,131.9,114.99,3,0
18023.437,0.395,-0.289,0.462,3.69,167.24,112.58,3,0
18023.437,0.358,-0.332,0.563,11.9,203.13,113.8,3,0
18023.453,0.31,-0.366,0.672,15.75,228.68,111.09,3,0
18023.468,0.249,-0.409,0.759,14.86,237.16,98.09,3,0
18023.468,0.187,-0.448,0.8,6.13,201.82,44.71,3,0
18023.484,0.169,-0.481,0.797,7.66,170.2,11.44,3,0
18023.5,0.174,-0.491,0.807,21.52,142.09,-20.63,3,0
18023.5,0.186,-0.473,0.801,43.49,123.51,-46.88,3,0
18023.515,0.202,-0.097,0.794,89.54,116.76,-70.38,3,0
18023.531,0.198,0.055,0.8,96.13,126.53,-71.9,3,0
18023.546,0.173,0.141,0.815,86.4,136.75,-69.64,3,0
18023.562,0.141,0.197,0.858,62.93,140.96,-67.23,3,0
18023.562,0.091,0.181,0.907,37.23,134.62,-67.63,3,0
18023.578,0.039,0.127,0.928,15.53,118.41,-68.67,3,0
18023.578,0.01,0.072,0.921,1.1,96.56,-69.28,3,0
18023.593,0.036,0.034,0.879,-6.07,73.46,-70.47,3,0
18023.609,0.127,0.018,0.791,-10.1,57.37,-76.66,3,0
18023.609,0.242,0.013,0.733,-7.02,57.22,-89.54,3,0
18023.625,0.313,0.049,0.703,4.61,75.66,-105.62,3,0
18023.625,0.26,0.125,0.708,17.76,103.27,-122.14,3,0
18023.64,0.131,0.239,0.765,30.55,127.08,-130.95,3,0
18023.656,-0.056,0.323,0.795,36.9,137.94,-128.57,3,0
18023.656,-0.136,0.39,0.858,29.88,133.92,-112.31,3,0
18023.671,-0.103,0.47,0.864,19.41,116.58,-98.97,3,0
18023.687,-0.082,0.485,0.828,0.46,104.13,-94.21,3,0
18023.687,-0.042,0.387,0.695,-32.11,94.94,-86.7,3,0
18023.703,0.13,0.312,0.671,-60.55,97.17,-87.41,3,0
18023.718,0.236,0.285,0.739,-62.5,126.1,-96.9,3,0
18023.734,0.117,0.271,0.767,-52.77,163.4,-113.53,3,0
18023.734,-0.09,0.418,1.028,-44.8,187.05,-128.33,3,0
18023.75,-0.368,0.504,1.193,-22.98,183.39,-125.71,3,0
18023.75,-0.52,0.477,1.135,-7.63,157.14,-101.26,3,0
18023.765,-0.466,0.569,1.07,-7.08,125.8,-69.67,3,0
18023.765,-0.302,0.627,1.06,-14.31,100.01,-49.32,3,0
18023.781,-0.282,0.597,1.022,-27.65,84.48,-43.89,3,0
18023.796,-0.343,0.572,0.935,-49.01,71.96,-40.99,3,0
18023.796,-0.311,0.56,0.851,-74.95,65.61,-36.07,3,0
18023.812,-0.263,0.567,0.921,-96.16,73.82,-30.88,3,0
18023.828,-0.323,0.564,1.059,-101.14,90.49,-26.92,3,0
18023.828,-0.447,0.558,1.152,-96.04,100.28,-21.09,3,0
18023.843,-0.545,0.628,1.23,-89.24,96.07,-12.54,3,0
18023.859,-0.603,0.586,1.278,-82.03,78.07,0.49,3,0
18023.859,-0.596,0.541,1.271,-76.27,55.21,14.56,3,0
18023.875,-0.533,0.527,1.214,-75.14,32.5,23.38,3,0
18023.875,-0.481,0.504,1.147,-80.2,17.67,27.04,3,0
18023.89,-0.481,0.47,1.086,-91.74,10.25,29.33,3,0
18023.906,-0.445,0.41,1.057,-105.29,5.58,31.74,3,0
18023.906,-0.396,0.351,1.001,-112.86,9.16,32.81,3,0
18023.921,-0.371,0.304,0.988,-113.65,19.65,33.36,3,0
18023.937,-0.393,0.279,1.01,-108.28,33.75,34.94,3,0
18023.953,-0.462,0.298,1.056,-100.13,46.63,37.9,3,0
18023.953,-0.52,0.313,1.108,-93.48,52.25,44.98,3,0
18023.968,-0.554,0.329,1.141,-92.04,49.44,53.96,3,0
18023.968,-0.567,0.312,1.15,-93.66,41.08,61.68,3,0
18023.984,-0.589,0.261,1.134,-95.07,29.48,65.89,3,0
18023.984,-0.61,0.225,1.122,-94.12,15.29,66.62,3,0
18024.0,-0.619,0.171,1.1,-88.72,2.08,65.95,3,0
18024.031,-0.565,0.038,1.05,-70.59,-10.99,67.72,3,0
18024.031,-0.566,-0.002,1.044,-56.67,-8.55,69.92,3,0
18024.046,-0.566,-0.04,1.065,-47.12,-5.34,71.84,3,0
18024.046,-0.614,-0.041,1.009,-43.95,-5.8,70.1,3,0
18024.062,-0.67,-0.089,1.08,-48.95,-11.47,66.59,3,0
18024.078,-0.927,-0.323,1.493,-19.75,-0.76,75.38,3,0
18024.078,-1.063,-0.536,1.192,48.4,-11.9,104.04,3,0
18024.093,-0.672,-0.295,0.979,66.81,-49.1,119.54,3,0
18024.109,-0.46,-0.04,0.83,67.72,-51.15,101.11,3,0
18024.109,-0.631,-0.152,0.665,48.25,-33.94,66.9,3,0
18024.125,-0.645,-0.195,0.788,10.16,-29.97,41.6,3,0
18024.125,-0.707,-0.276,0.85,2.2,-25.45,22.58,3,0
18024.14,-0.619,-0.183,0.688,1.86,-26.92,12.79,3,0
18024.156,-0.478,-0.023,0.664,-13.25,-22.19,1.77,3,0
18024.156,-0.494,-0.098,0.776,-31.65,-9.61,-12.3,3,0
18024.171,-0.479,-0.077,0.768,-46.3,-2.29,-21.27,3,0
18024.203,-0.366,-0.027,0.813,-52.86,19.81,-23.87,3,0
18024.203,-0.443,0.055,0.79,-66.26,34.55,-25.91,3,0
18024.218,-0.341,0.055,0.947,-85.79,48.01,-18.13,3,0
18024.218,-0.528,-0.014,1.107,-82.13,52.06,-17.88,3,0
18024.234,-0.585,-0.176,1.117,-69.37,48.86,-4.24,3,0
18024.25,-0.502,0.012,1.144,-61.53,43.34,7.75,3,0
18024.25,-0.482,0.132,1.052,-49.23,37.14,14.04,3,0
18024.265,-0.435,0.145,0.995,-49.29,31.01,20.54,3,0
18024.265,-0.38,0.133,1.004,-58.2,23.35,18.25,3,0
18024.281,-0.387,0.088,0.949,-61.74,21.36,15.78,3,0
18024.296,-0.286,0.083,0.956,-63.39,24.54,16.51,3,0
18024.296,-0.286,0.109,0.951,-61.07,30.88,12.51,3,0
18024.312,-0.189,0.085,0.981,-58.84,35.77,4.73,3,0
18024.328,-0.383,0.014,1.017,-51.7,38.91,-6.59,3,0
18024.328,-0.3,-0.003,1.167,-43.06,25.97,-18.65,3,0
18024.343,-0.734,-0.072,1.19,-17.46,17.76,-30.88,3,0
18024.359,-0.56,-0.197,1.245,1.07,-6.16,-8.79,3,0
18024.375,-0.355,0.128,1.152,29.73,-28.53,-14.01,3,0
18024.375,-0.447,0.073,0.975,46.63,-34.42,-26.73,3,0
18024.375,-0.34,0.063,0.943,36.96,-42.09,-24.23,3,0
18024.39,-0.325,0.132,0.903,35.25,-44.22,-28.32,3,0
18024.406,-0.421,0.095,0.898,34.12,-39.95,-22.83,3,0
18024.406,-0.38,0.133,0.905,31.8,-36.99,-6.9,3,0
18024.421,-0.477,0.032,0.822,28.2,-31.5,3.54,3,0
18024.437,-0.522,-0.422,0.765,8.91,-26.49,8.36,3,0
18024.437,-0.605,-0.711,0.815,-2.99,-23.04,-16.11,3,0
18024.453,-0.767,-0.446,0.871,9.52,-15.29,-40.44,3,0
18024.468,-0.732,-0.047,0.948,25.33,-19.93,-14.34,3,0
18024.468,-0.627,0.105,0.893,13.95,-19.47,7.78,3,0
18024.484,-0.506,0.115,0.81,-2.5,-15.84,22.34,3,0
18024.5,-0.382,-0.003,0.882,-8.42,-8.12,29.02,3,0
18024.515,-0.393,-0.019,0.917,-9.55,0.46,33.27,3,0
18024.515,-0.417,-0.038,0.952,-10.56,6.74,34.09,3,0
18024.515,-0.438,-0.035,1.015,-12.24,10.25,33.39,3,0
18024.531,-0.459,-0.018,1.066,-13.28,11.2,32.81,3,0
18024.546,-0.489,-0.005,1.088,-15.69,9.09,35.25,3,0
18024.562,-0.479,0.022,1.097,-21.09,3.66,41.47,3,0
18024.562,-0.427,0.044,1.07,-28.84,-2.62,50.87,3,0
18024.578,-0.346,0.069,1.033,-37.54,-8.09,62.2,3,0
18024.578,-0.279,0.041,1.006,-45.66,-11.17,69.89,3,0
18024.593,-0.274,-0.011,0.985,-48.52,-12.51,71.05,3,0
18024.609,-0.287,-0.017,0.954,-48.04,-13.25,68.94,3,0
18024.609,-0.331,-0.026,0.941,-47.27,-14.19,63.94,3,0
18024.625,-0.381,-0.083,0.921,-45.44,-16.69,58.11,3,0
18024.64,-0.409,-0.083,0.886,-42.48,-19.81,52.74,3,0
18024.64,-0.383,-0.089,0.819,-38.54,-22.03,47.3,3,0
18024.656,-0.379,-0.083,0.766,-36.23,-20.66,41.78,3,0
18024.656,-0.39,-0.059,0.722,-34.06,-17.46,37.02,3,0
18024.671,-0.398,-0.05,0.683,-32.11,-13.0,34.49,3,0
18024.687,-0.489,0.001,0.528,-55.39,3.27,44.89,3,0
18024.703,-0.52,-0.135,0.692,-62.81,14.56,50.36,3,0
18024.718,-0.543,-0.233,0.741,-48.34,21.52,52.03,3,0
18024.718,-0.533,-0.253,0.788,-33.54,22.8,48.25,3,0
18024.734,-0.512,-0.259,0.832,-24.48,21.15,38.09,3,0
18024.75,-0.489,-0.228,0.831,-18.56,17.49,24.96,3,0
18024.75,-0.483,-0.193,0.824,-18.71,13.52,12.02,3,0
18024.765,-0.457,-0.155,0.875,-23.56,11.05,1.65,3,0
18024.765,-0.461,-0.131,0.932,-25.18,10.1,-5.28,3,0
18024.781,-0.506,-0.13,0.977,-21.24,8.03,-8.55,3,0
18024.796,-0.526,-0.107,0.976,-15.2,1.59,-8.94,3,0
18024.796,-0.516,-0.092,0.954,-10.99,-4.33,-7.51,3,0
18024.812,-0.52,-0.076,0.951,-8.7,-7.2,-6.29,3,0
18024.828,-0.55,-0.079,0.938,-5.62,-10.65,-6.32,3,0
18024.828,-0.549,-0.089,0.921,-2.23,-13.61,-5.19,3,0
18024.843,-0.516,-0.062,0.909,0.43,-16.72,-5.92,3,0
18024.859,-0.519,-0.038,0.874,6.26,-16.69,-8.39,3,0
18024.875,-0.476,-0.006,0.87,5.46,-15.23,-6.96,3,0
18024.89,-0.479,0.012,0.861,5.55,-12.48,-6.35,3,0
18024.89,-0.479,-0.001,0.86,4.61,-9.58,-3.17,3,0
18024.906,-0.46,-0.002,0.859,3.51,-7.14,0.73,3,0
18024.906,-0.458,-0.006,0.85,3.33,-3.6,3.63,3,0
18024.921,-0.436,-0.016,0.828,2.29,-0.15,6.41,3,0
18024.937,-0.409,-0.007,0.812,-1.56,3.69,7.9,3,0
18024.953,-0.389,0.01,0.844,-7.32,8.97,8.0,3,0
18024.953,-0.403,0.031,0.89,-12.24,12.79,7.42,3,0
18024.968,-0.407,0.04,0.923,-16.14,12.88,9.0,3,0
18024.968,-0.402,0.043,0.96,-18.52,10.68,12.7,3,0
18024.984,-0.401,0.03,0.983,-17.91,6.32,17.67,3,0
18025.0,-0.395,-0.001,0.959,-17.03,1.01,24.17,3,0
18025.0,-0.358,-0.029,0.925,-17.58,-4.24,28.02,3,0
18025.015,-0.32,-0.066,0.897,-17.91,-7.14,27.16,3,0
18025.031,-0.316,-0.128,0.879,-13.89,-4.7,16.75,3,0
18025.046,-0.337,-0.132,0.896,-9.19,-2.26,9.52,3,0
18025.046,-0.375,-0.126,0.914,-4.7,-1.04,1.83,3,0
18025.062,-0.42,-0.097,0.947,-0.76,-2.35,-5.46,3,0
18025.078,-0.466,-0.075,0.967,3.2,-5.92,-10.07,3,0
18025.078,-0.452,-0.059,0.967,5.22,-12.02,-11.69,3,0
18025.093,-0.424,-0.046,0.948,7.48,-17.0,-13.86,3,0
18025.109,-0.409,-0.049,0.925,10.19,-19.68,-16.54,3,0
18025.109,-0.391,-0.045,0.919,13.46,-20.33,-18.98,3,0
18025.125,-0.388,-0.036,0.912,18.01,-19.62,-20.94,3,0
18025.14,-0.384,-0.04,0.897,22.74,-18.13,-21.64,3,0
18025.14,-0.384,-0.054,0.86,28.08,-14.8,-21.58,3,0
18025.156,-0.37,-0.094,0.781,33.3,-8.76,-22.13,3,0
18025.156,-0.323,-0.149,0.691,39.06,2.93,-24.63,3,0
18025.171,-0.314,-0.164,0.644,47.27,23.32,-29.54,3,0
18025.187,-0.449,-0.097,0.645,58.26,47.58,-34.27,3,0
18025.187,-0.61,-0.007,0.674,59.97,62.11,-31.31,3,0
18025.203,-0.73,0.027,0.762,45.96,65.37,-20.51,3,0
18025.218,-0.838,-0.058,0.857,25.88,62.65,-4.33,3,0
18025.234,-0.835,-0.144,0.966,10.68,51.21,13.21,3,0
18025.234,-0.711,-0.174,0.976,7.02,31.98,21.55,3,0
18025.25,-0.573,-0.177,0.914,5.28,16.02,18.01,3,0
18025.25,-0.491,-0.172,0.861,1.59,8.7,7.81,3,0
18025.265,-0.451,-0.163,0.823,-0.61,7.23,-3.81,3,0
18025.281,-0.444,-0.128,0.8,1.04,11.35,-12.15,3,0
18025.281,-0.454,-0.089,0.789,6.38,18.34,-16.21,3,0
18025.296,-0.444,-0.069,0.832,12.51,24.38,-18.86,3,0
18025.296,-0.519,-0.008,0.94,17.55,25.51,-21.85,3,0
18025.312,-0.61,0.026,0.95,20.45,18.13,-18.22,3,0
18025.328,-0.595,0.069,0.926,14.71,5.52,-6.44,3,0
18025.328,-0.514,0.082,0.888,4.88,-5.46,3.3,3,0
18025.343,-0.436,0.021,0.837,-3.75,-10.44,6.2,3,0
18025.359,-0.415,-0.015,0.803,-8.0,-8.03,4.94,3,0
18025.359,-0.426,-0.01,0.793,-7.63,-2.93,2.62,3,0
18025.375,-0.453,-0.009,0.823,-4.43,3.27,2.14,3,0
18025.39,-0.489,0.014,0.858,-0.67,7.6,4.7,3,0
18025.39,-0.497,0.024,0.87,1.53,7.66,8.58,3,0
18025.406,-0.506,0.011,0.87,1.28,6.23,12.33,3,0
18025.406,-0.5,-0.01,0.885,-1.68,3.72,15.9,3,0
18025.421,-0.5,-0.072,0.906,-3.51,1.71,18.37,3,0
18025.437,-0.489,-0.13,0.912,-3.08,0.76,20.69,3,0
18025.453,-0.465,-0.137,0.905,3.85,5.19,18.98,3,0
18025.453,-0.472,-0.106,0.911,9.25,7.87,15.9,3,0
18025.468,-0.529,-0.051,0.913,12.3,6.93,15.81,3,0
18025.468,-0.558,-0.003,0.913,12.27,4.15,18.16,3,0
18025.484,-0.575,0.04,0.982,12.3,0.64,20.36,3,0
18025.5,-0.592,-0.002,1.013,15.72,-6.65,21.73,3,0
18025.5,-0.584,0.004,0.991,21.58,-16.36,23.71,3,0
18025.515,-0.545,0.023,0.948,24.93,-25.24,24.75,3,0
18025.515,-0.526,0.039,0.919,26.46,-31.8,23.26,3,0
18025.531,-0.498,0.057,0.848,25.15,-36.26,22.89,3,0
18025.546,-0.438,0.086,0.816,16.91,-37.6,23.1,3,0
18025.546,-0.426,0.082,0.81,8.48,-34.15,21.21,3,0
18025.562,-0.459,0.069,0.801,2.11,-28.11,21.3,3,0
18025.578,-0.504,0.083,0.822,-3.54,-23.44,23.93,3,0
18025.578,-0.537,0.084,0.823,-8.91,-21.91,27.92,3,0
18025.593,-0.521,0.068,0.829,-16.97,-23.04,33.36,3,0
18025.609,-0.477,0.033,0.854,-23.1,-24.05,37.35,3,0
18025.609,-0.445,-0.008,0.855,-24.29,-23.35,39.83,3,0
18025.625,-0.414,-0.021,0.877,-24.26,-22.1,40.25,3,0
18025.64,-0.41,-0.043,0.888,-23.01,-21.61,37.63,3,0
18025.64,-0.412,-0.055,0.901,-22.4,-22.92,33.48,3,0
18025.656,-0.438,-0.039,0.924,-20.94,-25.39,27.95,3,0
18025.671,-0.454,-0.06,0.917,-19.17,-29.42,23.32,3,0
18025.671,-0.439,-0.061,0.925,-18.52,-33.51,19.32,3,0
18025.687,-0.471,-0.062,0.923,-14.16,-35.8,14.86,3,0
18025.687,-0.462,-0.051,0.906,-8.94,-39.28,13.34,3,0
18025.703,-0.404,-0.026,0.894,-5.74,-41.96,11.6,3,0
18025.718,-0.379,-0.028,0.867,-2.44,-40.59,7.08,3,0
18025.718,-0.37,-0.021,0.844,-0.43,-36.32,3.3,3,0
18025.734,-0.355,-0.004,0.839,-0.37,-30.67,0.09,3,0
18025.75,-0.363,0.01,0.851,-0.49,-24.23,-3.27,3,0
18025.75,-0.385,0.002,0.857,0.03,-18.04,-4.82,3,0
18025.765,-0.382,-0.007,0.865,-0.7,-13.37,-5.07,3,0
18025.765,-0.38,-0.008,0.897,-0.31,-9.89,-6.78,3,0
18025.781,-0.429,0.005,0.91,3.14,-7.05,-7.84,3,0
18025.796,-0.427,0.02,0.921,3.88,-7.75,-5.65,3,0
18025.796,-0.388,0.017,0.931,2.35,-9.55,-5.31,3,0
18025.812,-0.41,0.012,0.958,4.39,-9.83,-7.26,3,0
18025.828,-0.416,0.015,0.947,8.94,-10.86,-6.96,3,0
18025.828,-0.379,0.023,0.929,11.17,-11.81,-6.01,3,0
18025.843,-0.355,-0.004,0.909,10.86,-11.35,-8.12,3,0
18025.859,-0.34,-0.037,0.895,10.5,-9.19,-12.12,3,0
18025.875,-0.363,-0.064,0.902,12.76,-1.22,-23.9,3,0
18025.89,-0.394,-0.063,0.921,14.31,1.59,-30.34,3,0
18025.89,-0.463,-0.02,0.954,17.09,2.2,-35.13,3,0
18025.906,-0.492,0.022,0.972,18.92,-2.78,-36.44,3,0
18025.906,-0.485,0.059,0.969,19.01,-9.7,-34.73,3,0
18025.921,-0.461,0.073,0.929,18.77,-14.89,-30.43,3,0
18025.937,-0.421,0.092,0.879,17.06,-16.45,-24.05,3,0
18025.937,-0.392,0.103,0.845,13.58,-14.07,-18.25,3,0
18025.953,-0.384,0.1,0.826,8.7,-9.03,-12.63,3,0
18025.968,-0.396,0.085,0.824,3.72,-2.84,-6.84,3,0
18025.968,-0.407,0.061,0.84,-0.58,2.66,-1.04,3,0
18025.984,-0.4,0.029,0.859,-2.99,6.38,2.47,3,0
18025.984,-0.411,0.015,0.895,-1.65,8.76,2.87,3,0
18026.0,-0.456,0.012,0.925,3.75,9.16,2.96,3,0
18026.015,-0.471,0.031,0.934,8.12,5.65,4.94,3,0
18026.015,-0.438,0.043,0.926,8.21,0.24,6.59,3,0
18026.046,-0.384,0.036,0.893,6.26,-4.33,4.94,3,0
18026.062,-0.357,0.043,0.875,6.53,-3.02,4.12,3,0
18026.062,-0.341,0.049,0.872,6.68,0.7,2.47,3,0
18026.078,-0.353,0.064,0.897,6.62,4.97,0.98,3,0
18026.078,-0.396,0.083,0.929,8.61,7.84,1.31,3,0
18026.093,-0.412,0.097,0.937,8.91,7.48,4.73,3,0
18026.109,-0.388,0.092,0.939,5.8,5.04,7.84,3,0
18026.109,-0.359,0.059,0.924,2.29,2.78,7.35,3,0
18026.125,-0.334,0.035,0.914,0.64,2.2,4.0,3,0
18026.14,-0.343,0.046,0.939,2.35,3.23,-0.34,3,0
18026.14,-0.373,0.056,0.95,6.74,3.45,-2.69,3,0
18026.156,-0.371,0.069,0.942,8.67,1.86,-1.53,3,0
18026.156,-0.354,0.069,0.939,7.75,0.76,-0.34,3,0
18026.171,-0.361,0.049,0.944,6.01,0.79,-0.64,3,0
18026.187,-0.381,0.041,0.958,4.97,0.55,-1.92,3,0
18026.187,-0.396,0.034,0.954,6.32,-0.24,-3.69,3,0
18026.203,-0.384,0.04,0.949,7.81,-1.28,-5.52,3,0
18026.218,-0.365,0.044,0.953,9.09,-1.5,-8.48,3,0
18026.218,-0.363,0.042,0.956,10.77,-1.19,-11.72,3,0
18026.234,-0.352,0.042,0.951,12.05,-1.13,-14.65,3,0
18026.25,-0.347,0.04,0.943,13.73,-0.73,-18.19,3,0
18026.25,-0.358,0.042,0.929,15.87,0.09,-21.64,3,0
18026.265,-0.377,0.06,0.923,18.01,0.89,-23.32,3,0
18026.265,-0.405,0.086,0.91,19.96,1.86,-22.8,3,0
18026.281,-0.426,0.117,0.901,18.89,1.59,-18.43,3,0
18026.296,-0.408,0.129,0.896,13.95,0.03,-11.99,3,0
18026.312,-0.388,0.115,0.884,7.78,-0.15,-5.65,3,0
18026.312,-0.373,0.081,0.872,2.08,0.89,-0.09,3,0
18026.328,-0.367,0.048,0.873,-1.43,3.14,3.57,3,0
18026.328,-0.379,0.031,0.879,-2.26,5.4,5.07,3,0
18026.343,-0.402,0.029,0.88,-1.68,6.81,5.8,3,0
18026.359,-0.408,0.03,0.89,-1.74,6.41,6.96,3,0
18026.359,-0.402,0.033,0.897,-1.83,5.31,8.12,3,0
18026.375,-0.39,0.031,0.892,-2.56,4.27,8.88,3,0
18026.39,-0.374,0.026,0.895,-4.06,3.81,8.94,3,0
18026.39,-0.375,0.026,0.901,-4.85,4.18,7.81,3,0
18026.406,-0.393,0.033,0.909,-4.27,4.61,6.62,3,0
18026.406,-0.413,0.044,0.93,-3.3,4.58,7.02,3,0
18026.421,-0.407,0.045,0.933,-2.32,0.64,8.64,3,0
18026.437,-0.396,0.042,0.931,-2.56,-0.92,8.45,3,0
18026.437,-0.39,0.033,0.943,-1.43,-2.32,7.75,3,0
18026.453,-0.402,0.03,0.945,-0.92,-4.12,7.84,3,0
18026.468,-0.397,0.026,0.936,-2.59,-6.26,6.84,3,0
18026.468,-0.397,0.021,0.934,-3.14,-7.78,3.08,3,0
18026.484,-0.42,0.03,0.93,-1.28,-8.64,-0.82,3,0
18026.5,-0.407,0.053,0.939,0.58,-10.41,-3.72,3,0
18026.5,-0.399,0.085,0.94,3.2,-11.51,-6.16,3,0
18026.515,-0.386,0.112,0.94,4.94,-12.09,-5.95,3,0
18026.531,-0.366,0.137,0.941,4.91,-12.24,-3.45,3,0
18026.531,-0.376,0.153,0.953,3.6,-10.93,0.12,3,0
18026.546,-0.402,0.163,0.975,1.59,-10.71,5.46,3,0
18026.546,-0.41,0.161,0.984,-1.19,-12.6,12.45,3,0
18026.562,-0.395,0.138,0.988,-4.7,-16.11,18.86,3,0
18026.578,-0.376,0.11,0.992,-6.68,-19.99,22.46,3,0
18026.578,-0.371,0.095,0.999,-5.98,-23.56,24.14,3,0
18026.593,-0.36,0.088,0.974,-3.6,-27.07,24.9,3,0
18026.609,-0.35,0.086,0.932,-2.62,-29.66,24.99,3,0
18026.609,-0.333,0.078,0.904,-3.85,-30.76,24.57,3,0
18026.625,-0.322,0.072,0.881,-5.58,-29.73,23.77,3,0
18026.64,-0.328,0.066,0.869,-6.87,-26.76,23.59,3,0
18026.64,-0.339,0.067,0.86,-7.45,-23.62,24.14,3,0
18026.656,-0.351,0.068,0.855,-7.45,-20.63,25.45,3,0
18026.656,-0.35,0.052,0.837,-7.75,-16.88,27.47,3,0
18026.671,-0.351,0.04,0.827,-8.7,-11.96,28.87,3,0
18026.687,-0.351,0.026,0.831,-8.82,-7.63,28.84,3,0
18026.687,-0.353,0.015,0.837,-8.55,-4.27,26.7,3,0
18026.703,-0.346,-0.004,0.839,-7.23,-1.92,23.13,3,0
18026.718,-0.33,-0.023,0.842,-4.91,0.67,18.43,3,0
18026.734,-0.327,-0.021,0.871,-1.04,3.97,13.0,3,0
18026.734,-0.347,-0.012,0.897,3.42,6.26,7.9,3,0
18026.734,-0.356,0.001,0.917,5.89,6.71,3.63,3,0
18026.75,-0.367,0.023,0.946,7.57,6.2,-0.92,3,0
18026.765,-0.372,0.036,0.964,9.31,3.88,-5.55,3,0
18026.765,-0.345,0.051,0.963,10.53,1.01,-9.67,3,0
18026.781,-0.313,0.061,0.95,12.18,0.55,-14.1,3,0
18026.796,-0.29,0.071,0.936,13.95,2.75,-18.31,3,0
18026.796,-0.28,0.087,0.922,16.94,6.59,-22.1,3,0
18026.812,-0.28,0.102,0.9,19.17,11.2,-24.96,3,0
18026.828,-0.289,0.108,0.881,18.04,15.17,-27.56,3,0
18026.843,-0.284,0.096,0.874,15.29,18.43,-29.97,3,0
18026.843,-0.293,0.068,0.876,14.31,21.94,-31.62,3,0
18026.859,-0.313,0.025,0.886,18.16,26.4,-32.5,3,0
18026.859,-0.344,0.028,0.92,25.67,30.98,-32.01,3,0
18026.875,-0.379,0.045,0.968,32.99,31.46,-31.65,3,0
18026.89,-0.401,0.046,1.001,36.74,25.21,-33.51,3,0
18026.89,-0.412,0.041,1.001,36.01,14.34,-36.5,3,0
18026.906,-0.395,0.039,1.0,32.69,1.4,-40.65,3,0
18026.921,-0.368,0.042,0.976,31.59,-9.8,-45.41,3,0
18026.921,-0.338,0.058,0.923,30.82,-17.15,-48.34,3,0
18026.937,-0.305,0.084,0.875,29.3,-19.29,-49.1,3,0
18026.937,-0.301,0.122,0.824,26.8,-15.69,-47.52,3,0
18026.953,-0.324,0.165,0.804,21.27,-8.21,-42.66,3,0
18026.968,-0.357,0.193,0.814,14.19,1.1,-34.3,3,0
18026.968,-0.387,0.215,0.814,5.43,10.77,-22.64,3,0
18026.984,-0.401,0.231,0.848,-6.2,19.17,-9.98,3,0
18027.0,-0.438,0.232,0.889,-16.79,26.34,1.74,3,0
18027.0,-0.462,0.223,0.911,-26.12,31.4,14.77,3,0
18027.015,-0.441,0.203,0.951,-37.45,34.18,27.68,3,0
18027.015,-0.421,0.161,0.985,-47.33,35.68,35.62,3,0
18027.031,-0.402,0.105,0.997,-52.49,36.53,39.58,3,0
18027.046,-0.372,0.061,1.021,-54.93,37.69,40.59,3,0
18027.046,-0.349,0.029,1.056,-54.08,38.64,36.13,3,0
18027.062,-0.355,0.006,1.08,-49.17,38.85,27.59,3,0
18027.078,-0.363,0.007,1.09,-43.03,37.17,17.24,3,0
18027.093,-0.383,0.026,1.092,-36.77,34.21,5.71,3,0
18027.093,-0.418,0.045,1.073,-30.24,30.27,-5.1,3,0
18027.109,-0.426,0.066,1.027,-25.27,24.99,-13.15,3,0
18027.109,-0.43,0.089,0.989,-21.49,21.06,-18.59,3,0
18027.125,-0.463,0.116,0.958,-18.4,19.5,-21.82,3,0
18027.14,-0.485,0.133,0.931,-18.83,17.12,-21.0,3,0
18027.14,-0.475,0.124,0.924,-21.97,13.82,-17.58,3,0
18027.156,-0.466,0.092,0.903,-22.34,12.09,-13.37,3,0
18027.156,-0.439,0.067,0.867,-20.78,12.27,-8.67,3,0
18027.171,-0.435,0.08,0.877,-18.56,14.1,-5.43,3,0
18027.187,-0.459,0.081,0.883,-16.3,14.01,-2.96,3,0
18027.187,-0.462,0.066,0.873,-17.06,10.9,0.98,3,0
18027.203,-0.43,0.036,0.854,-19.26,7.84,4.21,3,0
18027.218,-0.422,0.017,0.837,-20.33,7.14,5.19,3,0
18027.218,-0.428,0.005,0.84,-21.39,6.81,5.58,3,0
18027.234,-0.431,0.002,0.838,-21.73,6.29,5.95,3,0
18027.25,-0.47,0.021,0.834,-20.57,6.68,6.9,3,0
18027.25,-0.488,0.014,0.831,-20.17,5.37,10.68,3,0
18027.265,-0.462,0.001,0.806,-21.79,3.66,15.26,3,0
18027.281,-0.432,-0.025,0.791,-23.29,3.69,16.75,3,0
18027.281,-0.428,-0.054,0.803,-22.55,5.28,15.84,3,0
18027.296,-0.426,-0.068,0.827,-18.49,7.35,14.74,3,0
18027.296,-0.43,-0.074,0.85,-12.33,8.97,13.46,3,0
18027.312,-0.46,-0.07,0.864,-6.9,9.09,12.02,3,0
18027.328,-0.528,-0.106,0.845,-5.92,7.23,11.44,3,0
18027.328,-0.633,-0.152,0.784,-13.79,2.81,14.4,3,0
18027.343,-0.654,-0.164,0.772,-22.89,-1.95,20.29,3,0
18027.359,-0.63,-0.147,0.777,-25.76,-0.89,21.52,3,0
18027.359,-0.624,-0.124,0.796,-24.75,4.88,17.12,3,0
18027.375,-0.572,-0.127,0.84,-23.32,11.57,11.44,3,0
18027.39,-0.555,-0.156,0.873,-19.23,17.73,4.39,3,0
18027.39,-0.54,-0.172,0.923,-11.99,17.76,-1.65,3,0
18027.406,-0.558,-0.151,0.951,-1.34,14.53,-7.84,3,0
18027.406,-0.575,-0.118,0.95,11.66,0.31,-19.44,3,0
18027.421,-0.554,-0.088,0.925,10.96,-5.25,-25.88,3,0
18027.437,-0.532,-0.084,0.9,10.16,-8.09,-30.95,3,0
18027.437,-0.498,-0.074,0.856,11.93,-9.13,-33.94,3,0
18027.453,-0.473,-0.046,0.834,14.34,-8.94,-35.77,3,0
18027.468,-0.46,-0.017,0.818,16.24,-7.39,-36.26,3,0
18027.468,-0.447,0.023,0.804,15.96,-6.2,-34.61,3,0
18027.484,-0.444,0.042,0.814,13.7,-4.88,-30.73,3,0
18027.484,-0.447,0.056,0.817,12.63,-3.94,-24.69,3,0
18027.5,-0.447,0.067,0.803,11.87,-3.51,-17.4,3,0
18027.515,-0.457,0.077,0.805,8.76,-3.27,-10.04,3,0
18027.515,-0.447,0.055,0.81,3.97,-4.49,-3.54,3,0
18027.531,-0.428,0.028,0.808,0.34,-5.92,0.95,3,0
18027.546,-0.419,0.005,0.802,-0.46,-6.32,2.44,3,0
18027.546,-0.41,0.0,0.801,0.61,-5.77,1.83,3,0
18027.562,-0.41,0.011,0.805,3.14,-4.7,0.49,3,0
18027.578,-0.425,0.038,0.813,5.89,-3.39,-0.67,3,0
18027.578,-0.454,0.067,0.832,7.23,-2.2,-0.12,3,0
18027.593,-0.487,0.091,0.853,6.53,-1.95,2.17,3,0
18027.609,-0.511,0.096,0.863,3.85,-2.87,5.65,3,0
18027.609,-0.521,0.094,0.856,0.46,-3.88,10.1,3,0
18027.625,-0.512,0.083,0.844,-2.84,-3.81,15.02,3,0
18027.64,-0.486,0.069,0.835,-5.71,-2.2,18.68,3,0
18027.64,-0.476,0.059,0.84,-7.05,1.07,20.29,3,0
18027.656,-0.48,0.051,0.86,-7.08,4.73,21.15,3,0
18027.656,-0.505,0.04,0.869,-7.05,6.62,21.42,3,0
18027.671,-0.518,0.02,0.875,-7.51,7.08,21.18,3,0
18027.687,-0.516,0.003,0.88,-6.65,7.78,20.45,3,0
18027.687,-0.509,0.002,0.88,-4.27,6.71,19.23,3,0
18027.703,-0.498,0.011,0.88,-1.74,5.52,18.16,3,0
18027.718,-0.485,0.025,0.875,0.52,4.76,18.04,3,0
18027.718,-0.476,0.04,0.871,0.98,3.69,19.26,3,0
18027.734,-0.478,0.04,0.857,-0.67,3.66,22.03,3,0
18027.75,-0.468,0.042,0.843,-4.15,4.03,26.15,3,0
18027.75,-0.471,0.036,0.824,-8.3,5.37,30.34,3,0
18027.765,-0.467,0.023,0.817,-14.04,7.93,35.68,3,0
18027.781,-0.448,0.002,0.825,-19.47,10.62,40.62,3,0
18027.781,-0.437,-0.028,0.834,-22.43,13.46,43.79,3,0
18027.796,-0.446,-0.043,0.851,-22.83,16.02,45.14,3,0
18027.796,-0.466,-0.054,0.873,-22.37,16.75,44.89,3,0
18027.812,-0.485,-0.066,0.889,-22.03,15.63,43.09,3,0
18027.828,-0.506,-0.079,0.897,-21.79,13.28,40.19,3,0
18027.828,-0.506,-0.092,0.898,-21.21,10.35,36.47,3,0
18027.843,-0.494,-0.095,0.891,-19.5,7.9,31.28,3,0
18027.859,-0.485,-0.097,0.879,-17.03,6.84,25.3,3,0
18027.859,-0.476,-0.081,0.873,-14.83,6.74,18.89,3,0
18027.875,-0.471,-0.072,0.88,-13.25,7.42,12.33,3,0
18027.875,-0.484,-0.042,0.914,-12.33,7.87,6.16,3,0
18027.89,-0.524,-0.031,0.941,-9.7,6.84,1.71,3,0
18027.906,-0.532,-0.017,0.963,-6.01,3.17,0.98,3,0
18027.906,-0.533,0.009,0.965,-1.92,-1.13,1.92,3,0
18027.921,-0.518,0.001,0.94,-0.31,-5.95,3.17,3,0
18027.937,-0.478,-0.014,0.92,-1.34,-9.4,3.63,3,0
18027.937,-0.461,-0.03,0.898,-1.74,-10.65,1.95,3,0
18027.953,-0.458,-0.043,0.888,-1.25,-10.32,-0.67,3,0
18027.968,-0.455,-0.059,0.885,0.21,-8.94,-2.69,3,0
18027.968,-0.463,-0.074,0.881,1.53,-6.78,-4.03,3,0
18027.984,-0.465,-0.092,0.878,1.65,-5.16,-5.43,3,0
18027.984,-0.478,-0.092,0.885,1.68,-4.39,-7.75,3,0
18028.0,-0.496,-0.093,0.888,2.32,-4.52,-9.61,3,0
18028.015,-0.488,-0.079,0.881,2.5,-5.77,-10.35,3,0
18028.015,-0.481,-0.052,0.876,3.33,-6.71,-11.08,3,0
18028.031,-0.483,-0.039,0.871,3.88,-7.17,-10.74,3,0
18028.046,-0.477,-0.02,0.88,3.45,-7.39,-9.22,3,0
18028.046,-0.494,-0.005,0.891,3.91,-7.9,-7.32,3,0
18028.062,-0.504,-0.009,0.889,4.43,-9.98,-4.15,3,0
18028.078,-0.486,-0.012,0.879,3.66,-12.21,-1.37,3,0
18028.078,-0.483,-0.02,0.856,2.56,-13.31,-1.16,3,0
18028.093,-0.485,-0.03,0.845,1.83,-13.43,-2.04,3,0
18028.109,-0.477,-0.03,0.837,2.17,-12.7,-3.27,3,0
18028.109,-0.475,-0.021,0.823,3.23,-10.99,-5.74,3,0
18028.125,-0.482,-0.007,0.829,4.21,-8.33,-8.33,3,0
18028.125,-0.51,0.015,0.833,5.46,-5.07,-10.04,3,0
18028.14,-0.534,0.04,0.838,5.83,-2.14,-9.43,3,0
18028.156,-0.543,0.059,0.855,4.36,-0.58,-6.47,3,0
18028.156,-0.543,0.056,0.86,1.95,0.24,-2.5,3,0
18028.171,-0.531,0.045,0.872,-0.7,0.37,1.1,3,0
18028.187,-0.527,0.023,0.88,-1.56,0.64,3.2,3,0
18028.187,-0.525,0.007,0.887,-0.55,0.21,4.55,3,0
18028.203,-0.51,-0.0,0.887,0.58,-1.31,4.52,3,0
18028.218,-0.501,-0.011,0.879,1.62,-2.9,2.62,3,0
18028.218,-0.51,-0.025,0.881,2.78,-4.09,0.31,3,0
18028.234,-0.504,-0.037,0.873,4.43,-5.52,-1.37,3,0
18028.25,-0.497,-0.043,0.85,6.29,-6.13,-3.6,3,0
18028.25,-0.502,-0.045,0.846,7.81,-5.4,-6.26,3,0
18028.265,-0.51,-0.055,0.848,9.16,-3.91,-7.29,3,0
18028.265,-0.507,-0.059,0.851,10.07,-2.93,-6.81,3,0
18028.281,-0.49,-0.062,0.863,9.98,-2.5,-6.87,3,0
18028.296,-0.492,-0.071,0.867,10.07,-2.5,-8.0,3,0
18028.296,-0.484,-0.064,0.862,10.25,-2.66,-8.55,3,0
18028.312,-0.472,-0.05,0.848,10.07,-2.29,-9.03,3,0
18028.328,-0.479,-0.046,0.832,8.88,-0.64,-9.95,3,0
18028.328,-0.478,-0.037,0.837,7.48,1.86,-9.95,3,0
18028.343,-0.48,-0.024,0.844,7.14,4.61,-9.49,3,0
18028.359,-0.487,-0.014,0.861,7.02,6.74,-8.64,3,0
18028.359,-0.493,0.009,0.884,6.32,7.45,-7.35,3,0
18028.375,-0.499,0.026,0.889,4.7,6.59,-5.37,3,0
18028.39,-0.493,0.034,0.898,1.62,4.39,-3.11,3,0
18028.39,-0.483,0.028,0.896,-2.56,1.25,0.21,3,0
18028.406,-0.473,0.02,0.893,-2.84,1.16,0.15,3,0
18028.406,-0.476,0.016,0.891,-2.38,1.13,-1.07,3,0
18028.421,-0.491,0.009,0.89,-1.43,0.58,-2.2,3,0
18028.437,-0.519,0.008,0.882,-0.18,-0.92,-3.72,3,0
18028.437,-0.513,0.015,0.869,0.98,-2.62,-5.22,3,0
18028.453,-0.498,0.025,0.868,2.29,-3.2,-6.5,3,0
18028.468,-0.497,0.026,0.872,3.48,-3.11,-6.99,3,0
18028.468,-0.499,0.029,0.874,4.49,-3.08,-6.44,3,0
18028.484,-0.498,0.026,0.874,5.4,-3.54,-5.43,3,0
18028.484,-0.484,0.018,0.873,5.68,-4.12,-4.27,3,0
18028.5,-0.479,0.009,0.87,5.22,-4.0,-3.57,3,0
18028.515,-0.468,-0.025,0.867,4.58,-3.69,-3.48,3,0
18028.515,-0.455,-0.042,0.881,5.07,-2.87,-4.39,3,0
18028.531,-0.465,-0.042,0.886,6.71,-2.04,-6.16,3,0
18028.546,-0.48,-0.042,0.877,7.08,-1.83,-7.32,3,0
18028.546,-0.467,-0.044,0.877,5.58,-2.72,-8.27,3,0
18028.562,-0.47,-0.032,0.883,5.52,-3.14,-9.83,3,0
18028.578,-0.496,-0.008,0.879,6.32,-3.75,-9.58,3,0
18028.578,-0.478,0.005,0.866,4.64,-5.1,-6.81,3,0
18028.593,-0.459,0.018,0.853,2.23,-4.7,-4.36,3,0
18028.609,-0.464,0.022,0.855,-0.18,-2.75,-1.74,3,0
18028.609,-0.448,0.011,0.866,-2.53,-1.37,1.62,3,0
18028.625,-0.437,-0.002,0.862,-3.2,0.18,3.54,3,0
18028.625,-0.445,-0.015,0.863,-3.45,2.01,4.36,3,0
18028.64,-0.448,-0.027,0.875,-3.88,2.9,4.73,3,0
18028.656,-0.452,-0.029,0.882,-3.39,3.33,4.33,3,0
18028.656,-0.462,-0.024,0.876,-3.3,3.51,4.12,3,0
18028.671,-0.465,-0.021,0.869,-4.7,3.11,3.39,3,0
18028.687,-0.463,-0.026,0.868,-5.46,2.99,1.77,3,0
18028.703,-0.475,-0.026,0.86,-4.97,3.39,0.18,3,0
18028.703,-0.49,-0.022,0.847,-4.58,4.27,-0.67,3,0
18028.718,-0.493,-0.013,0.847,-5.34,5.62,-0.76,3,0
18028.718,-0.49,-0.019,0.853,-6.74,6.53,-0.46,3,0
18028.734,-0.476,-0.025,0.867,-7.63,7.29,-0.61,3,0
18028.75,-0.463,-0.028,0.887,-6.56,7.69,-2.11,3,0
18028.75,-0.475,-0.023,0.898,-4.36,7.54,-4.55,3,0
18028.765,-0.486,-0.007,0.904,-2.78,6.16,-6.78,3,0
18028.765,-0.488,0.004,0.904,-1.34,3.88,-8.51,3,0
18028.781,-0.486,0.016,0.902,-0.18,1.86,-9.37,3,0
18028.796,-0.496,0.041,0.902,1.04,0.67,-9.22,3,0
18028.796,-0.497,0.047,0.901,1.53,-0.76,-7.26,3,0
18028.812,-0.484,0.049,0.9,1.37,-2.5,-4.73,3,0
18028.828,-0.488,0.044,0.89,1.92,-4.36,-2.66,3,0
18028.828,-0.487,0.032,0.88,2.04,-6.04,-0.46,3,0
18028.843,-0.479,0.014,0.858,2.01,-7.42,0.98,3,0
18028.859,-0.487,-0.0,0.833,2.17,-7.48,1.37,3,0
18028.859,-0.494,-0.015,0.828,2.35,-6.1,1.74,3,0
18028.875,-0.477,-0.029,0.83,2.84,-4.39,2.44,3,0
18028.875,-0.479,-0.034,0.837,3.48,-2.08,2.38,3,0
18028.89,-0.505,-0.032,0.849,3.97,-0.09,2.35,3,0
18028.906,-0.522,-0.04,0.855,4.18,0.43,3.17,3,0
18028.921,-0.512,-0.036,0.858,3.66,-0.06,3.94,3,0
18028.921,-0.513,-0.036,0.858,2.87,-0.34,3.66,3,0
18028.937,-0.525,-0.045,0.847,1.59,-0.09,3.45,3,0
18028.937,-0.512,-0.05,0.828,0.24,0.24,3.39,3,0
18028.953,-0.482,-0.05,0.828,-0.73,1.89,2.41,3,0
18028.968,-0.476,-0.051,0.837,-0.18,5.16,0.7,3,0
18028.968,-0.479,-0.037,0.853,0.64,8.12,-0.73,3,0
18028.984,-0.492,-0.018,0.878,1.13,9.46,-1.95,3,0
18029.0,-0.51,-0.006,0.89,1.28,8.64,-2.44,3,0
18029.0,-0.519,0.009,0.897,0.92,6.1,-1.95,3,0
18029.015,-0.523,0.01,0.892,0.09,3.2,-1.37,3,0
18029.015,-0.515,0.005,0.871,-1.28,0.85,-0.67,3,0
18029.031,-0.494,-0.004,0.863,-2.53,-0.12,-0.21,3,0
18029.046,-0.485,-0.01,0.861,-2.38,0.61,-0.31,3,0
18029.046,-0.497,-0.017,0.853,-1.68,2.01,-0.61,3,0
18029.062,-0.507,-0.019,0.847,-1.59,2.9,-0.92,3,0
18029.078,-0.513,-0.024,0.844,-1.95,3.66,-0.98,3,0
18029.078,-0.505,-0.033,0.839,-2.47,5.04,-0.27,3,0
18029.093,-0.498,-0.029,0.846,-2.96,7.54,0.03,3,0
18029.093,-0.508,-0.024,0.861,-2.62,10.01,0.03,3,0
18029.109,-0.517,-0.014,0.881,-1.83,11.23,0.46,3,0
18029.125,-0.521,-0.012,0.892,-1.01,10.96,1.13,3,0
18029.14,-0.51,-0.016,0.901,-0.61,9.25,1.1,3,0
18029.14,-0.499,-0.025,0.903,0.06,6.99,-0.49,3,0
18029.156,-0.505,-0.033,0.902,1.83,4.55,-3.08,3,0
18029.156,-0.514,-0.028,0.902,3.81,1.46,-5.58,3,0
18029.171,-0.518,-0.019,0.885,5.13,-2.47,-8.18,3,0
18029.187,-0.512,-0.014,0.864,5.77,-6.16,-10.9,3,0
18029.187,-0.499,-0.011,0.851,7.11,-7.6,-12.18,3,0
18029.203,-0.49,0.003,0.828,8.85,-6.68,-12.6,3,0
18029.218,-0.485,0.019,0.815,9.16,-4.58,-12.91,3,0
18029.218,-0.488,0.033,0.823,8.82,-1.83,-12.21,3,0
18029.234,-0.493,0.033,0.832,9.0,0.49,-10.16,3,0
18029.25,-0.498,0.048,0.825,9.86,2.04,-7.54,3,0
18029.25,-0.497,0.059,0.825,8.33,2.75,-4.46,3,0
18029.265,-0.478,0.046,0.837,4.18,2.99,-1.34,3,0
18029.265,-0.47,0.031,0.842,1.43,3.6,1.25,3,0
18029.281,-0.492,0.023,0.846,0.79,4.73,2.84,3,0
18029.296,-0.499,0.016,0.854,-0.24,4.49,4.43,3,0
18029.296,-0.488,0.002,0.863,-2.01,3.48,6.26,3,0
18029.312,-0.479,-0.016,0.871,-3.02,3.17,7.11,3,0
18029.328,-0.477,-0.036,0.873,-2.9,3.14,6.47,3,0
18029.328,-0.486,-0.045,0.886,-1.56,2.53,4.58,3,0
18029.343,-0.508,-0.035,0.895,1.16,0.76,2.08,3,0
18029.359,-0.528,-0.016,0.877,3.6,-1.89,0.55,3,0
18029.359,-0.527,-0.004,0.857,3.51,-4.39,0.46,3,0
18029.375,-0.526,0.01,0.843,1.83,-4.88,0.73,3,0
18029.39,-0.521,0.006,0.847,0.37,-3.69,0.76,3,0
18029.39,-0.525,0.004,0.857,0.37,-2.29,1.53,3,0
18029.406,-0.542,0.006,0.857,0.15,-1.43,2.47,3,0
18029.421,-0.538,-0.003,0.861,-0.03,-1.07,2.41,3,0
18029.421,-0.538,-0.009,0.863,0.67,-1.65,1.16,3,0
18029.437,-0.54,-0.011,0.854,1.74,-2.93,0.0,3,0
18029.437,-0.546,-0.018,0.845,2.47,-4.0,-0.76,3,0
18029.453,-0.546,-0.026,0.842,3.17,-4.33,-0.79,3,0
18029.468,-0.537,-0.031,0.832,3.39,-4.36,-0.64,3,0
18029.468,-0.527,-0.043,0.824,3.27,-3.94,-1.68,3,0
18029.484,-0.516,-0.052,0.824,4.21,-3.33,-3.94,3,0
18029.5,-0.505,-0.043,0.826,6.65,-2.29,-6.26,3,0
18029.5,-0.504,-0.022,0.827,8.91,-0.55,-7.39,3,0
18029.515,-0.495,-0.011,0.837,8.97,0.7,-6.99,3,0
18029.515,-0.496,-0.008,0.865,8.45,1.8,-6.07,3,0
18029.531,-0.504,-0.007,0.876,8.67,1.59,-4.49,3,0
18029.546,-0.495,0.0,0.869,6.93,0.31,-2.47,3,0
18029.546,-0.476,-0.005,0.873,3.42,-0.85,-1.71,3,0
18029.562,-0.475,-0.015,0.875,1.68,-1.56,-2.81,3,0
18029.578,-0.474,-0.005,0.858,2.44,-1.65,-3.42,3,0
18029.578,-0.476,0.029,0.846,2.59,-0.67,-2.93,3,0
18029.593,-0.485,0.034,0.849,0.46,0.67,-1.74,3,0
18029.609,-0.489,0.019,0.861,-1.74,1.28,0.21,3,0
18029.609,-0.488,0.01,0.869,-2.04,1.53,1.46,3,0
18029.625,-0.494,-0.002,0.874,-1.5,1.1,1.04,3,0
18029.625,-0.505,-0.014,0.881,-1.16,-0.15,-0.89,3,0
18029.64,-0.515,-0.009,0.878,0.06,-2.08,-3.45,3,0
18029.656,-0.532,-0.003,0.863,1.83,-4.21,-5.62,3,0
18029.656,-0.533,0.008,0.841,2.66,-6.04,-6.56,3,0
18029.671,-0.525,0.014,0.833,2.69,-6.5,-6.84,3,0
18029.687,-0.518,0.001,0.834,3.54,-5.68,-7.23,3,0
18029.687,-0.516,-0.0,0.839,5.16,-4.15,-7.63,3,0
18029.703,-0.517,-0.001,0.849,7.05,-2.81,-8.21,3,0
18029.718,-0.516,-0.002,0.858,8.55,-2.08,-9.0,3,0
18029.718,-0.515,-0.008,0.866,9.03,-2.17,-9.49,3,0
18029.734,-0.509,-0.006,0.87,9.34,-2.66,-10.44,3,0
18029.75,-0.519,0.003,0.869,9.67,-2.93,-11.41,3,0
18029.75,-0.519,0.01,0.877,9.55,-3.45,-11.57,3,0
18029.765,-0.519,0.024,0.875,9.46,-3.75,-10.5,3,0
18029.765,-0.527,0.037,0.865,8.03,-3.66,-7.93,3,0
18029.781,-0.505,0.027,0.862,4.49,-4.0,-4.61,3,0
18029.796,-0.473,0.008,0.863,1.77,-3.39,-2.47,3,0
18029.796,-0.47,-0.001,0.859,1.59,-1.77,-1.68,3,0
18029.812,-0.475,0.004,0.85,1.5,-0.27,-1.34,3,0
18029.828,-0.465,0.006,0.858,0.43,0.67,-0.24,3,0
18029.828,-0.474,0.019,0.861,-0.61,1.98,1.22,3,0
18029.843,-0.485,0.021,0.864,-2.62,2.5,3.66,3,0
18029.859,-0.473,0.008,0.867,-5.43,1.89,6.68,3,0
18029.859,-0.469,-0.01,0.862,-7.14,1.86,8.33,3,0
18029.875,-0.47,-0.019,0.86,-7.9,2.17,8.7,3,0
18029.875,-0.466,-0.023,0.864,-7.84,2.08,8.03,3,0
18029.89,-0.466,-0.02,0.863,-6.96,1.62,6.35,3,0
18029.906,-0.48,-0.014,0.863,-5.74,0.85,4.18,3,0
18029.906,-0.489,-0.012,0.858,-5.16,-0.06,2.5,3,0
18029.921,-0.504,-0.012,0.855,-5.58,-0.15,1.98,3,0
18029.937,-0.52,-0.018,0.854,-6.71,-0.49,1.62,3,0
18029.937,-0.515,-0.018,0.86,-7.81,-1.34,0.7,3,0
18029.953,-0.517,-0.013,0.865,-7.32,-1.95,-1.16,3,0
18029.968,-0.517,-0.003,0.86,-5.86,-2.26,-2.84,3,0
18029.968,-0.501,0.009,0.853,-4.67,-2.01,-3.75,3,0
18029.984,-0.494,0.021,0.852,-3.85,-0.67,-4.52,3,0
18030.0,-0.502,0.02,0.865,-3.23,0.82,-5.19,3,0
18030.0,-0.509,0.021,0.881,-1.65,1.37,-5.49,3,0
18030.015,-0.522,0.031,0.885,0.98,0.67,-5.74,3,0
18030.031,-0.527,0.047,0.879,2.32,-1.53,-5.74,3,0
18030.031,-0.528,0.045,0.874,2.2,-3.91,-5.34,3,0
18030.046,-0.53,0.033,0.856,2.01,-5.19,-4.18,3,0
18030.046,-0.53,0.026,0.838,2.14,-5.25,-2.2,3,0
18030.062,-0.522,0.01,0.834,1.89,-4.46,0.09,3,0
18030.078,-0.509,-0.013,0.829,1.68,-2.78,1.71,3,0
18030.093,-0.502,-0.021,0.826,2.2,-0.67,2.5,3,0
18030.093,-0.489,-0.026,0.831,2.53,1.56,3.36,3,0
18030.109,-0.486,-0.028,0.844,1.56,3.72,4.46,3,0
18030.109,-0.501,-0.028,0.862,0.06,4.97,5.16,3,0
18030.125,-0.517,-0.033,0.879,-1.56,4.61,6.71,3,0
18030.14,-0.504,-0.039,0.877,-3.63,2.62,8.18,3,0
18030.14,-0.493,-0.046,0.866,-5.4,0.58,7.97,3,0
18030.156,-0.487,-0.053,0.859,-6.41,-0.89,6.84,3,0
18030.171,-0.477,-0.053,0.849,-5.65,-1.37,5.55,3,0
18030.171,-0.478,-0.041,0.84,-4.09,-0.43,3.6,3,0
18030.187,-0.496,-0.027,0.838,-3.08,1.16,1.74,3,0
18030.187,-0.512,-0.015,0.849,-2.84,2.23,0.27,3,0
18030.203,-0.52,-0.006,0.863,-2.44,2.17,-1.28,3,0
18030.218,-0.528,-0.0,0.868,-1.37,1.22,-3.39,3,0
18030.218,-0.536,0.01,0.873,0.24,-0.58,-5.98,3,0
18030.234,-0.55,0.019,0.868,2.72,-2.96,-8.48,3,0
18030.234,-0.557,0.026,0.855,5.25,-5.46,-9.83,3,0
18030.25,-0.548,0.028,0.837,7.63,-7.05,-10.01,3,0
18030.265,-0.539,0.021,0.82,9.83,-6.93,-10.22,3,0
18030.265,-0.539,0.007,0.815,12.05,-5.37,-10.77,3,0
18030.281,-0.541,0.008,0.815,13.79,-3.81,-11.29,3,0
18030.296,-0.542,0.008,0.828,14.25,-2.69,-11.75,3,0
18030.296,-0.539,-0.004,0.844,14.31,-2.11,-11.93,3,0
18030.312,-0.523,-0.012,0.857,14.95,-2.08,-11.72,3,0
18030.328,-0.514,-0.015,0.863,15.84,-2.14,-11.81,3,0
18030.343,-0.502,-0.015,0.869,15.96,-2.53,-11.96,3,0
18030.343,-0.496,-0.006,0.877,15.66,-3.08,-12.02,3,0
18030.359,-0.497,-0.003,0.88,14.65,-3.75,-11.23,3,0
18030.359,-0.484,-0.003,0.875,10.28,-4.73,-7.84,3,0
18030.375,-0.474,-0.002,0.867,8.15,-3.88,-5.92,3,0
18030.39,-0.463,-0.002,0.859,5.46,-2.26,-3.69,3,0
18030.39,-0.452,0.001,0.857,3.08,-0.52,-2.01,3,0
18030.406,-0.448,-0.019,0.869,1.43,0.55,-1.25,3,0
18030.406,-0.448,-0.021,0.878,0.27,1.01,-1.37,3,0
18030.421,-0.452,-0.02,0.887,-0.12,0.52,-2.32,3,0
18030.437,-0.46,-0.016,0.891,0.31,-0.21,-3.81,3,0
18030.437,-0.471,-0.009,0.894,1.46,-1.28,-5.55,3,0
18030.453,-0.492,0.006,0.89,2.9,-2.69,-7.72,3,0
18030.468,-0.506,0.023,0.891,3.85,-4.3,-9.67,3,0
18030.484,-0.523,0.042,0.883,4.94,-5.55,-10.53,3,0
18030.484,-0.528,0.056,0.89,5.19,-6.9,-9.25,3,0
18030.5,-0.52,0.059,0.885,5.62,-8.18,-6.65,3,0
18030.5,-0.509,0.055,0.868,5.1,-8.82,-3.81,3,0
18030.515,-0.497,0.037,0.862,4.43,-8.39,-1.37,3,0
18030.515,-0.494,0.016,0.866,4.49,-7.45,0.27,3,0
18030.531,-0.494,-0.005,0.861,4.43,-6.44,1.1,3,0
18030.546,-0.492,-0.019,0.856,4.06,-5.52,0.79,3,0
18030.546,-0.491,-0.028,0.852,4.21,-4.55,-1.04,3,0
18030.562,-0.496,-0.031,0.848,5.58,-3.33,-3.27,3,0
18030.578,-0.495,-0.021,0.849,7.2,-2.53,-5.37,3,0
18030.578,-0.494,-0.009,0.843,8.45,-1.65,-6.41,3,0
18030.593,-0.497,0.015,0.84,8.36,-0.52,-5.77,3,0
18030.609,-0.498,0.033,0.841,6.2,0.61,-3.3,3,0
18030.609,-0.492,0.036,0.846,2.78,1.1,-0.79,3,0
18030.625,-0.494,0.042,0.855,0.46,1.68,1.62,3,0
18030.625,-0.487,0.046,0.866,-0.76,1.92,4.3,3,0
18030.64,-0.475,0.044,0.866,-2.29,2.14,7.14,3,0
18030.656,-0.471,0.036,0.865,-4.39,2.81,9.09,3,0
18030.656,-0.467,0.024,0.873,-6.01,3.2,10.28,3,0
18030.671,-0.463,0.013,0.873,-6.44,3.08,10.32,3,0
18030.687,-0.469,0.009,0.874,-5.65,2.62,9.34,3,0
18030.703,-0.485,0.016,0.876,-4.7,2.01,7.97,3,0
18030.703,-0.503,0.025,0.873,-3.66,0.46,6.62,3,0
18030.718,-0.511,0.027,0.864,-2.56,-1.4,5.65,3,0
18030.718,-0.511,0.036,0.847,-1.8,-2.62,4.21,3,0
18030.734,-0.519,0.041,0.839,-1.34,-2.78,2.32,3,0
18030.75,-0.525,0.03,0.855,0.15,-2.93,0.4,3,0
18030.75,-0.543,0.032,0.856,4.27,-2.99,-0.73,3,0
18030.765,-0.554,0.029,0.847,7.14,-3.78,-1.65,3,0
18030.765,-0.542,-0.003,0.855,8.51,-5.31,-3.17,3,0
18030.781,-0.534,-0.026,0.854,11.51,-6.41,-5.89,3,0
18030.796,-0.532,-0.031,0.859,14.89,-7.29,-9.43,3,0
18030.796,-0.536,-0.027,0.855,17.64,-8.21,-12.73,3,0
18030.812,-0.529,-0.017,0.856,18.59,-8.82,-14.98,3,0
18030.828,-0.522,-0.01,0.87,18.43,-8.76,-15.93,3,0
18030.828,-0.514,0.001,0.873,18.49,-8.97,-16.51,3,0
18030.843,-0.507,0.037,0.879,18.01,-8.76,-16.24,3,0
18030.859,-0.506,0.057,0.887,15.78,-8.67,-14.71,3,0
18030.859,-0.492,0.067,0.882,12.09,-8.97,-11.6,3,0
18030.875,-0.475,0.08,0.877,8.0,-8.45,-7.72,3,0
18030.875,-0.456,0.067,0.875,3.78,-7.26,-4.15,3,0
18030.89,-0.429,0.052,0.876,0.09,-5.55,-1.28,3,0
18030.906,-0.412,0.046,0.879,-1.77,-2.78,0.31,3,0
18030.906,-0.411,0.046,0.887,-2.84,0.03,1.59,3,0
18030.921,-0.425,0.059,0.907,-4.21,1.86,3.69,3,0
18030.937,-0.436,0.053,0.921,-6.04,1.68,7.14,3,0
18030.953,-0.423,0.045,0.934,-9.06,0.03,11.11,3,0
18030.953,-0.423,0.042,0.935,-11.51,-1.46,13.28,3,0
18030.968,-0.437,0.032,0.925,-13.67,-3.23,14.4,3,0
18030.968,-0.441,0.029,0.909,-15.63,-4.85,14.68,3,0
18030.984,-0.45,0.024,0.895,-15.78,-6.01,13.79,3,0
18031.0,-0.464,0.024,0.877,-14.65,-6.26,12.63,3,0
18031.0,-0.484,0.021,0.861,-13.09,-6.07,11.38,3,0
18031.015,-0.501,0.01,0.85,-11.44,-5.71,10.28,3,0
18031.015,-0.512,0.006,0.835,-10.38,-5.04,9.06,3,0
18031.031,-0.52,0.002,0.826,-10.13,-4.43,6.78,3,0
18031.046,-0.524,-0.009,0.823,-9.7,-4.21,3.39,3,0
18031.046,-0.528,-0.006,0.823,-8.18,-4.39,-0.15,3,0
18031.062,-0.526,0.006,0.821,-6.56,-4.85,-3.33,3,0
18031.078,-0.527,0.013,0.825,-6.59,-5.52,-5.43,3,0
18031.078,-0.534,0.013,0.84,-6.87,-6.81,-6.53,3,0
18031.093,-0.538,0.004,0.845,-7.35,-8.36,-6.81,3,0
18031.109,-0.525,-0.013,0.846,-8.0,-10.74,-6.74,3,0
18031.109,-0.496,-0.035,0.841,-6.81,-12.18,-7.48,3,0
18031.125,-0.472,-0.035,0.829,-3.97,-11.17,-8.27,3,0
18031.125,-0.459,-0.033,0.832,-0.73,-8.64,-8.67,3,0
18031.14,-0.447,-0.032,0.838,2.38,-5.22,-8.03,3,0
18031.156,-0.443,-0.015,0.855,4.46,-1.31,-6.47,3,0
18031.156,-0.451,-0.009,0.877,5.92,1.43,-4.64,3,0
18031.171,-0.445,0.002,0.891,6.26,2.84,-1.89,3,0
18031.187,-0.434,0.011,0.896,5.04,3.66,1.1,3,0
18031.187,-0.432,0.017,0.902,2.38,4.09,3.17,3,0
18031.203,-0.433,0.021,0.91,-0.21,3.63,4.58,3,0
18031.218,-0.435,0.028,0.914,-2.66,2.66,5.8,3,0
18031.218,-0.434,0.035,0.906,-4.82,1.46,6.47,3,0
18031.234,-0.434,0.038,0.896,-6.35,0.31,6.53,3,0
18031.25,-0.433,0.037,0.903,-6.99,-0.37,5.95,3,0
18031.25,-0.438,0.032,0.906,-5.22,-1.34,4.82,3,0
18031.265,-0.448,0.037,0.911,-2.08,-2.96,3.36,3,0
18031.265,-0.457,0.043,0.901,0.64,-4.88,1.89,3,0
18031.281,-0.471,0.052,0.9,1.74,-7.17,0.52,3,0
18031.296,-0.489,0.053,0.897,2.81,-9.67,-0.73,3,0
18031.296,-0.497,0.045,0.887,3.97,-12.05,-1.19,3,0
18031.312,-0.513,0.041,0.874,5.46,-13.21,-1.22,3,0
