timestamp,ax,ay,az,gx,gy,gz,orient_label,motion_label
16438.296,0.776,0.004,0.627,-10.71,3.27,15.81,1,2
16438.296,0.786,-0.028,0.635,-10.74,2.96,16.39,1,2
16438.312,0.795,-0.051,0.645,-10.74,2.2,15.66,1,2
16438.328,0.796,-0.073,0.662,-10.1,1.01,13.86,1,2
16438.328,0.798,-0.091,0.664,-7.54,-0.52,11.38,1,2
16438.343,0.792,-0.097,0.657,-4.3,-1.56,8.12,1,2
16438.359,0.788,-0.102,0.656,-1.07,-2.44,4.36,1,2
16438.359,0.788,-0.096,0.642,2.5,-3.3,0.95,1,2
16438.375,0.787,-0.09,0.631,5.4,-3.27,-2.01,1,2
16438.39,0.778,-0.084,0.615,6.99,-2.26,-4.06,1,2
16438.39,0.778,-0.068,0.612,7.29,-0.76,-4.97,1,2
16438.406,0.776,-0.053,0.616,6.53,0.76,-4.79,1,2
16438.406,0.776,-0.044,0.622,4.91,1.86,-4.15,1,2
16438.421,0.777,-0.041,0.634,3.23,2.56,-3.05,1,2
16438.437,0.784,-0.04,0.641,1.5,2.78,-1.34,1,2
16438.437,0.79,-0.043,0.65,-0.09,2.81,0.15,1,2
16438.453,0.793,-0.044,0.656,-1.31,2.53,0.95,1,2
16438.468,0.781,-0.054,0.672,-1.37,1.31,1.95,1,2
16438.484,0.784,-0.054,0.662,0.03,0.27,2.56,1,2
16438.5,0.788,-0.059,0.653,0.15,-0.15,2.84,1,2
16438.5,0.785,-0.061,0.654,-0.82,0.09,3.14,1,2
16438.515,0.78,-0.069,0.658,-1.16,0.18,3.75,1,2
16438.531,0.782,-0.068,0.658,-1.28,-0.49,3.66,1,2
16438.531,0.776,-0.069,0.659,-0.4,-1.22,2.84,1,2
16438.546,0.768,-0.072,0.657,0.85,-2.14,2.29,1,2
16438.546,0.768,-0.067,0.652,2.35,-3.6,2.01,1,2
16438.562,0.767,-0.058,0.649,3.69,-4.94,1.68,1,2
16438.578,0.761,-0.053,0.653,4.94,-6.01,1.04,1,2
16438.578,0.765,-0.042,0.667,7.23,-6.96,-0.12,1,2
16438.593,0.767,-0.026,0.677,11.51,-8.09,-1.59,1,2
16438.609,0.759,-0.009,0.71,17.0,-9.74,-2.75,1,2
16438.609,0.768,0.01,0.732,23.13,-12.39,-3.54,1,2
16438.625,0.791,0.041,0.758,28.08,-15.87,-3.66,1,2
16438.64,0.804,0.074,0.793,51.64,-28.02,-6.56,1,2
16438.656,0.797,0.114,0.838,67.69,-32.2,-6.78,1,2
16438.656,0.796,0.118,0.863,88.02,-34.58,-6.96,1,2
16438.671,0.69,0.199,0.866,105.84,-35.83,-7.11,1,2
16438.687,0.582,0.242,0.866,121.31,-38.39,-5.49,1,2
16438.703,0.512,0.265,0.849,129.46,-44.31,0.46,1,2
16438.703,0.49,0.283,0.839,131.9,-48.16,11.26,1,2
16438.718,0.459,0.303,0.828,134.98,-44.83,26.03,1,2
16438.718,0.425,0.313,0.783,138.68,-38.0,41.57,1,2
16438.734,0.396,0.296,0.724,137.88,-28.6,55.18,1,2
16438.75,0.375,0.296,0.684,132.39,-17.18,65.19,1,2
16438.75,0.345,0.261,0.66,127.69,-4.64,70.01,1,2
16438.765,0.348,0.21,0.646,127.51,11.02,71.63,1,2
16438.781,0.352,0.189,0.652,131.78,31.22,70.01,1,2
16438.781,0.328,0.171,0.652,140.72,53.35,65.13,1,2
16438.796,0.279,0.157,0.657,149.27,73.27,60.12,1,2
16438.812,0.205,0.144,0.682,153.87,88.44,57.13,1,2
16438.812,0.198,0.122,0.715,155.74,94.7,56.46,1,2
16438.828,0.204,0.104,0.703,157.69,93.08,56.25,1,2
16438.843,0.24,0.063,0.671,159.95,90.98,57.16,1,2
16438.843,0.317,0.029,0.641,161.57,91.28,57.22,1,2
16438.859,0.383,0.003,0.621,161.5,95.19,55.15,1,2
16438.859,0.431,-0.018,0.598,156.41,100.07,51.91,1,2
16438.875,0.492,-0.016,0.574,143.1,101.9,47.27,1,2
16438.89,0.527,-0.059,0.564,123.39,103.89,43.79,1,2
16438.89,0.602,-0.031,0.526,102.79,103.43,37.42,1,2
16438.906,0.595,-0.087,0.489,82.92,105.5,32.26,1,2
16438.906,0.634,-0.104,0.487,66.19,109.96,28.11,1,2
16438.921,0.71,-0.083,0.503,58.2,121.37,19.71,1,2
16438.937,0.695,-0.119,0.507,52.98,137.61,9.0,1,2
16438.937,0.701,-0.159,0.529,42.73,154.3,1.74,1,2
16438.953,0.732,-0.13,0.598,32.07,172.25,-5.74,1,2
16438.968,0.68,-0.128,0.673,27.34,184.82,-15.02,1,2
16438.968,0.626,-0.149,0.727,28.53,183.6,-23.56,1,2
16438.984,0.6,-0.141,0.821,35.43,166.51,-32.62,1,2
16439.0,0.598,-0.146,0.877,51.06,137.61,-41.35,1,2
16439.0,0.629,-0.087,0.91,70.56,108.58,-45.84,1,2
16439.015,0.689,-0.009,0.928,86.76,86.73,-48.37,1,2
16439.015,0.72,0.015,0.94,96.41,70.25,-52.89,1,2
16439.031,0.731,0.086,0.938,99.73,58.2,-56.28,1,2
16439.046,0.746,0.177,0.932,97.45,48.62,-57.74,1,2
16439.046,0.776,0.18,0.91,92.68,35.92,-58.08,1,2
16439.062,0.788,0.198,0.887,88.32,22.4,-57.37,1,2
16439.078,0.798,0.265,0.879,84.05,12.54,-57.22,1,2
16439.093,0.808,0.321,0.892,75.93,8.42,-58.66,1,2
16439.093,0.81,0.353,0.911,63.97,8.61,-61.22,1,2
16439.109,0.798,0.393,0.928,51.12,12.05,-63.05,1,2
16439.109,0.78,0.457,0.956,37.75,16.21,-63.54,1,2
16439.125,0.751,0.459,0.978,27.25,17.18,-63.3,1,2
16439.14,0.729,0.449,0.997,22.19,14.22,-60.49,1,2
16439.14,0.703,0.491,1.013,22.22,10.25,-56.79,1,2
16439.156,0.669,0.484,1.009,24.57,4.18,-53.96,1,2
16439.156,0.646,0.459,0.994,28.08,-3.08,-50.97,1,2
16439.171,0.666,0.47,0.968,33.63,-10.59,-49.13,1,2
16439.187,0.655,0.49,0.919,41.17,-17.37,-49.38,1,2
16439.187,0.618,0.552,0.866,47.43,-22.55,-49.71,1,2
16439.203,0.592,0.619,0.813,51.61,-26.61,-49.1,1,2
16439.218,0.557,0.665,0.767,53.8,-29.73,-47.64,1,2
16439.218,0.513,0.729,0.711,54.32,-31.53,-45.2,1,2
16439.234,0.488,0.767,0.653,52.13,-31.74,-40.56,1,2
16439.25,0.475,0.778,0.617,47.12,-29.45,-34.0,1,2
16439.25,0.454,0.798,0.597,41.2,-23.68,-28.29,1,2
16439.265,0.443,0.787,0.574,34.42,-18.37,-24.35,1,2
16439.281,0.44,0.754,0.558,26.89,-15.32,-20.33,1,2
16439.281,0.439,0.722,0.545,20.42,-13.18,-14.95,1,2
16439.296,0.438,0.685,0.524,16.66,-10.74,-10.68,1,2
16439.312,0.451,0.602,0.518,11.26,3.94,-4.76,1,2
16439.328,0.461,0.589,0.563,8.3,16.6,-3.48,1,2
16439.328,0.467,0.559,0.596,6.68,28.99,-3.42,1,2
16439.343,0.452,0.559,0.623,3.2,40.41,-1.59,1,2
16439.359,0.46,0.565,0.658,-3.27,47.58,1.56,1,2
16439.359,0.446,0.521,0.674,-8.94,50.14,2.99,1,2
16439.375,0.405,0.491,0.683,-14.95,48.86,4.15,1,2
16439.39,0.396,0.509,0.713,-25.79,43.7,3.57,1,2
16439.39,0.396,0.517,0.739,-37.17,35.25,1.25,1,2
16439.406,0.402,0.517,0.751,-49.04,25.76,-2.59,1,2
16439.406,0.41,0.521,0.752,-62.5,18.46,-5.74,1,2
16439.421,0.437,0.506,0.758,-76.05,12.39,-7.97,1,2
16439.437,0.467,0.482,0.776,-87.47,8.55,-9.86,1,2
16439.453,0.488,0.434,0.789,-94.18,7.51,-11.47,1,2
16439.453,0.486,0.393,0.79,-94.82,8.76,-13.79,1,2
16439.468,0.468,0.392,0.79,-91.83,12.39,-16.14,1,2
16439.484,0.43,0.402,0.814,-81.33,20.81,-22.37,1,2
16439.5,0.375,0.381,0.832,-77.15,24.93,-21.21,1,2
16439.5,0.42,0.408,0.869,-70.47,28.35,-20.33,1,2
16439.515,0.37,0.431,0.885,-60.7,33.39,-25.51,1,2
16439.531,0.287,0.489,1.065,-55.88,33.81,-29.08,1,2
16439.531,0.096,0.557,1.353,-33.54,19.04,-23.44,1,2
16439.546,0.232,0.579,1.24,0.06,-8.76,-4.85,1,2
16439.546,0.32,0.691,1.108,6.53,-31.98,-2.56,1,2
16439.562,0.35,0.63,0.932,4.33,-40.8,-5.01,1,2
16439.578,0.398,0.596,0.837,-0.61,-36.53,-3.63,1,2
16439.593,0.393,0.594,0.781,-3.51,-29.24,-2.96,1,2
16439.593,0.374,0.594,0.732,-7.02,-21.79,1.53,1,2
16439.609,0.358,0.582,0.725,-15.08,-16.51,8.45,1,2
16439.609,0.334,0.543,0.742,-24.87,-11.63,17.3,1,2
16439.625,0.348,0.498,0.745,-36.35,7.17,37.11,1,2
16439.64,0.364,0.458,0.738,-34.0,19.17,43.21,1,2
16439.656,0.329,0.299,0.882,-18.74,24.96,43.61,1,2
16439.656,0.306,0.294,0.895,-7.69,19.84,38.27,1,2
16439.671,0.299,0.33,0.894,1.28,13.0,34.21,1,2
16439.687,0.284,0.351,0.889,8.79,9.4,33.02,1,2
16439.687,0.288,0.39,0.875,12.18,8.15,34.42,1,2
16439.703,0.296,0.436,0.871,10.68,9.16,39.09,1,2
16439.718,0.299,0.437,0.889,6.81,10.65,44.8,1,2
16439.734,0.317,0.424,0.897,2.17,10.35,49.07,1,2
16439.734,0.331,0.411,0.903,-1.65,9.22,51.79,1,2
16439.75,0.335,0.404,0.906,-3.08,8.55,54.14,1,2
16439.75,0.339,0.383,0.9,-1.56,9.13,56.61,1,2
16439.765,0.346,0.356,0.891,1.5,11.63,60.09,1,2
16439.781,0.361,0.334,0.908,6.5,16.17,62.81,1,2
16439.781,0.348,0.302,0.914,14.44,20.84,63.94,1,2
16439.796,0.337,0.285,0.936,22.64,24.93,66.74,1,2
16439.796,0.336,0.265,0.987,32.2,25.67,70.31,1,2
16439.828,0.36,0.185,1.006,49.99,16.51,69.77,1,2
16439.828,0.383,0.137,0.973,59.02,8.18,57.92,1,2
16439.843,0.374,0.179,0.922,59.54,-0.24,42.91,1,2
16439.859,0.366,0.255,0.893,46.72,-12.21,28.87,1,2
16439.859,0.352,0.307,0.877,23.26,-28.41,16.97,1,2
16439.875,0.392,0.335,0.86,-5.16,-43.92,8.82,1,2
16439.875,0.434,0.332,0.848,-31.22,-52.0,1.86,1,2
16439.89,0.446,0.298,0.841,-50.33,-53.25,-5.13,1,2
16439.906,0.458,0.262,0.846,-60.34,-52.06,-12.63,1,2
16439.906,0.455,0.261,0.84,-62.07,-50.54,-21.61,1,2
16439.921,0.446,0.263,0.821,-56.4,-48.4,-28.47,1,2
16439.937,0.438,0.28,0.802,-45.14,-44.13,-32.01,1,2
16439.953,0.424,0.357,0.736,-32.32,-36.29,-30.34,1,2
16439.953,0.424,0.431,0.684,-22.22,-23.62,-22.77,1,2
16439.968,0.422,0.441,0.662,-16.85,-9.7,-13.89,1,2
16439.968,0.426,0.438,0.636,-16.11,2.66,-7.42,1,2
16440.0,0.372,0.405,0.804,-13.82,21.58,-4.7,1,2
16440.0,0.335,0.411,0.975,0.55,15.59,-0.67,1,2
16440.015,0.384,0.449,0.948,15.44,1.92,4.39,1,2
16440.015,0.439,0.477,0.871,22.74,-5.16,5.77,1,2
16440.031,0.444,0.501,0.828,19.87,-4.82,7.57,1,2
16440.046,0.453,0.491,0.811,9.89,-1.28,10.28,1,2
16440.062,0.447,0.45,0.819,-1.92,3.23,12.73,1,2
16440.062,0.443,0.39,0.836,-11.32,6.47,15.02,1,2
16440.078,0.457,0.336,0.849,-16.79,7.93,15.38,1,2
16440.078,0.461,0.284,0.843,-18.95,7.93,12.39,1,2
16440.093,0.454,0.24,0.827,-18.25,7.29,7.11,1,2
16440.109,0.442,0.229,0.815,-14.77,7.26,2.53,1,2
16440.109,0.436,0.226,0.805,-8.91,9.0,-0.49,1,2
16440.125,0.421,0.236,0.812,-3.33,12.21,-3.3,1,2
16440.125,0.389,0.259,0.822,0.61,14.25,-5.74,1,2
16440.14,0.373,0.284,0.832,1.62,14.37,-6.29,1,2
16440.171,0.366,0.345,0.856,-4.79,12.24,-7.39,1,2
16440.171,0.366,0.398,0.841,-9.7,12.3,-8.73,1,2
16440.187,0.362,0.392,0.815,-14.5,14.74,-8.58,1,2
16440.187,0.36,0.382,0.814,-17.61,18.89,-7.9,1,2
16440.203,0.342,0.366,0.851,-19.01,21.91,-6.99,1,2
16440.218,0.316,0.35,0.92,-17.67,20.51,-6.26,1,2
16440.218,0.302,0.341,0.978,-12.27,13.64,-4.73,1,2
16440.234,0.327,0.329,0.974,-4.33,4.09,-2.93,1,2
16440.234,0.355,0.322,0.93,1.5,-1.98,-3.05,1,2
16440.25,0.37,0.312,0.885,3.36,-3.36,-4.85,1,2
16440.265,0.384,0.299,0.84,2.47,-1.77,-7.17,1,2
16440.265,0.383,0.296,0.827,0.34,2.32,-8.82,1,2
16440.281,0.37,0.292,0.836,-1.28,5.34,-9.86,1,2
16440.296,0.367,0.29,0.836,-3.08,5.49,-11.6,1,2
16440.296,0.364,0.296,0.836,-4.73,5.34,-13.18,1,2
16440.312,0.365,0.303,0.834,-6.07,6.13,-13.28,1,2
16440.343,0.381,0.306,0.824,-10.62,11.23,-14.62,1,2
16440.343,0.38,0.322,0.845,-13.86,16.02,-15.81,1,2
16440.359,0.364,0.341,0.859,-15.32,21.12,-14.89,1,2
16440.359,0.356,0.346,0.894,-14.53,24.75,-11.72,1,2
16440.375,0.321,0.358,0.95,-12.88,24.51,-9.34,1,2
16440.375,0.29,0.342,0.994,-8.91,18.86,-6.32,1,2
16440.39,0.29,0.3,1.013,-2.14,9.98,-2.01,1,2
16440.406,0.313,0.286,0.981,6.38,1.5,1.56,1,2
16440.406,0.333,0.276,0.914,11.96,-4.36,1.07,1,2
16440.421,0.344,0.26,0.844,12.73,-6.47,-1.43,1,2
16440.437,0.359,0.276,0.805,10.13,-4.73,-3.48,1,2
16440.453,0.356,0.293,0.814,6.81,-1.68,-5.95,1,2
16440.453,0.342,0.324,0.843,3.88,-0.67,-7.84,1,2
16440.468,0.334,0.348,0.861,1.16,-1.89,-8.06,1,2
16440.468,0.334,0.355,0.88,-2.35,-3.48,-7.51,1,2
16440.484,0.332,0.364,0.881,-5.04,-4.15,-6.13,1,2
16440.5,0.327,0.345,0.905,-5.89,-2.81,-1.4,1,2
16440.515,0.337,0.327,0.908,-4.3,-3.33,0.52,1,2
16440.531,0.351,0.304,0.888,-1.83,-4.7,0.85,1,2
16440.531,0.367,0.306,0.866,0.92,-5.22,0.12,1,2
16440.546,0.373,0.304,0.845,2.78,-4.64,-1.37,1,2
16440.546,0.381,0.319,0.844,2.59,-3.63,-2.56,1,2
16440.562,0.378,0.328,0.839,1.74,-2.29,-3.3,1,2
16440.578,0.376,0.329,0.85,0.24,-0.06,-3.3,1,2
16440.578,0.362,0.324,0.876,-0.7,1.65,-2.78,1,2
16440.593,0.357,0.326,0.894,-0.52,1.68,-2.38,1,2
16440.609,0.343,0.332,0.897,-1.5,-0.24,-3.02,1,2
16440.609,0.336,0.318,0.892,-2.47,-1.62,-3.42,1,2
16440.625,0.337,0.314,0.892,-3.02,-1.65,-3.75,1,2
16440.625,0.341,0.323,0.886,-3.36,-0.64,-3.85,1,2
16440.64,0.34,0.298,0.868,-3.48,0.61,-3.69,1,2
16440.656,0.339,0.295,0.854,-3.63,2.5,-3.88,1,2
16440.671,0.327,0.3,0.886,-5.52,6.41,-4.12,1,2
16440.687,0.32,0.307,0.89,-7.93,5.77,-4.0,1,2
16440.687,0.326,0.301,0.934,-10.68,3.48,-4.85,1,2
16440.703,0.339,0.309,0.926,-9.67,-0.52,-6.62,1,2
16440.718,0.363,0.315,0.894,-8.33,-1.22,-8.48,1,2
16440.718,0.357,0.316,0.879,-8.09,1.43,-10.19,1,2
16440.734,0.351,0.309,0.875,-8.0,3.02,-11.47,1,2
16440.75,0.349,0.305,0.863,-7.42,3.14,-12.82,1,2
16440.75,0.345,0.296,0.86,-5.98,4.24,-13.0,1,2
16440.765,0.338,0.281,0.866,-4.21,5.8,-11.93,1,2
16440.781,0.326,0.276,0.873,-2.99,6.32,-11.23,1,2
16440.781,0.318,0.282,0.885,-1.83,6.13,-9.86,1,2
16440.796,0.311,0.29,0.905,0.24,5.55,-8.33,1,2
16440.796,0.294,0.325,0.912,2.66,4.18,-6.47,1,2
16440.812,0.293,0.356,0.915,2.66,2.44,-4.06,1,2
16440.828,0.296,0.361,0.901,1.65,1.89,-1.86,1,2
16440.828,0.293,0.348,0.889,0.31,0.37,-0.12,1,2
16440.843,0.294,0.33,0.874,-0.92,-1.86,1.56,1,2
16440.859,0.295,0.31,0.861,-2.08,-3.94,3.69,1,2
16440.859,0.313,0.284,0.861,-3.23,-6.99,4.67,1,2
16440.875,0.333,0.278,0.863,-3.23,-9.55,3.78,1,2
16440.875,0.351,0.303,0.876,-2.78,-9.25,2.32,1,2
16440.89,0.362,0.319,0.883,-2.96,-6.47,0.79,1,2
16440.906,0.365,0.347,0.892,-5.25,-2.56,-0.09,1,2
16440.906,0.379,0.363,0.912,-9.31,1.53,-1.01,1,2
16440.921,0.357,0.337,0.96,-10.38,4.24,-2.78,1,2
16440.937,0.334,0.295,0.942,-5.92,3.23,-2.9,1,2
16440.953,0.354,0.253,0.915,-2.41,1.19,-4.12,1,2
16440.953,0.334,0.25,0.916,0.49,-0.15,-8.61,1,2
16440.968,0.32,0.284,0.903,3.02,-4.06,-10.16,1,2
16440.968,0.338,0.302,0.871,0.15,-9.0,-11.51,1,2
16440.984,0.34,0.371,0.866,-5.37,-10.01,-12.73,1,2
16441.0,0.332,0.421,0.866,-11.66,-8.15,-11.23,1,2
16441.0,0.351,0.39,0.886,-14.65,-2.81,-7.6,1,2
16441.015,0.317,0.33,0.935,-13.89,3.81,-3.33,1,2
16441.015,0.327,0.257,0.926,-10.04,7.63,1.1,1,2
16441.031,0.325,0.22,0.905,-5.19,13.15,2.87,1,2
16441.046,0.295,0.182,0.897,1.4,19.1,4.06,1,2
16441.062,0.271,0.172,0.895,11.93,21.55,6.71,1,2
16441.062,0.269,0.184,0.867,24.66,18.37,10.04,1,2
16441.078,0.275,0.248,0.856,31.04,12.05,11.26,1,2
16441.078,0.262,0.322,0.847,29.66,4.64,9.28,1,2
16441.093,0.262,0.375,0.859,24.66,-2.2,8.85,1,2
16441.109,0.303,0.402,0.849,19.47,-8.18,11.32,1,2
16441.109,0.315,0.436,0.824,10.1,-11.41,11.78,1,2
16441.125,0.327,0.446,0.804,-1.86,-8.85,12.15,1,2
16441.125,0.334,0.428,0.859,-12.6,0.09,15.32,1,2
16441.14,0.319,0.36,0.92,-17.33,5.71,17.82,1,2
16441.156,0.317,0.303,0.958,-17.67,4.36,18.13,1,2
16441.156,0.318,0.263,0.956,-14.8,0.43,16.17,1,2
16441.171,0.324,0.23,0.952,-10.56,-2.69,15.14,1,2
16441.187,0.341,0.218,0.939,-5.37,-4.55,14.8,1,2
16441.187,0.347,0.215,0.934,0.21,-5.01,13.18,1,2
16441.203,0.345,0.24,0.94,5.92,-5.28,11.32,1,2
16441.218,0.339,0.275,0.931,11.2,-6.29,9.67,1,2
16441.218,0.328,0.309,0.919,14.04,-7.97,8.51,1,2
16441.234,0.313,0.332,0.902,15.47,-10.16,9.0,1,2
16441.25,0.326,0.346,0.878,14.13,-12.51,10.77,1,2
16441.25,0.336,0.348,0.859,10.13,-13.73,10.77,1,2
16441.265,0.338,0.334,0.841,6.1,-13.86,10.32,1,2
16441.265,0.352,0.3,0.851,3.27,-12.67,10.53,1,2
16441.281,0.356,0.285,0.869,2.17,-12.05,9.16,1,2
16441.296,0.35,0.277,0.885,3.14,-12.02,7.42,1,2
16441.312,0.342,0.282,0.901,5.19,-12.45,6.26,1,2
16441.312,0.336,0.296,0.913,7.66,-13.92,6.29,1,2
16441.328,0.339,0.312,0.923,10.62,-16.08,6.96,1,2
16441.328,0.336,0.32,0.918,13.92,-18.43,7.78,1,2
16441.343,0.344,0.323,0.893,15.26,-20.36,8.79,1,2
16441.359,0.362,0.326,0.87,14.92,-20.94,9.31,1,2
16441.359,0.378,0.318,0.827,13.58,-19.81,8.33,1,2
16441.375,0.392,0.309,0.813,11.02,-15.84,7.17,1,2
16441.375,0.395,0.296,0.82,9.64,-11.05,5.71,1,2
16441.39,0.398,0.288,0.839,9.34,-7.02,4.49,1,2
16441.406,0.399,0.291,0.861,9.03,-4.09,3.69,1,2
16441.421,0.379,0.317,0.889,9.06,-2.96,3.33,1,2
16441.421,0.368,0.326,0.903,9.7,-4.33,6.13,1,2
16441.437,0.385,0.327,0.901,11.41,-6.41,9.55,1,2
16441.437,0.391,0.32,0.884,14.65,-8.18,9.61,1,2
16441.453,0.393,0.316,0.861,16.45,-9.95,8.15,1,2
16441.468,0.395,0.317,0.854,17.33,-11.17,6.53,1,2
16441.484,0.394,0.326,0.849,17.98,-12.09,4.64,1,2
16441.484,0.398,0.331,0.835,17.37,-12.12,3.17,1,2
16441.5,0.406,0.34,0.822,15.96,-10.53,2.14,1,2
16441.5,0.404,0.342,0.828,14.83,-7.32,1.13,1,2
16441.515,0.397,0.34,0.842,14.31,-4.24,1.13,1,2
16441.531,0.405,0.337,0.851,14.59,-1.74,1.83,1,2
16441.531,0.401,0.334,0.854,15.38,0.12,0.95,1,2
16441.546,0.391,0.337,0.855,15.38,0.58,-0.43,1,2
16441.546,0.388,0.353,0.85,14.68,-0.15,-1.13,1,2
16441.562,0.382,0.375,0.844,13.4,-1.56,-1.4,1,2
16441.578,0.367,0.39,0.838,11.6,-3.48,-1.07,1,2
16441.593,0.366,0.387,0.826,8.91,-5.43,0.34,1,2
16441.593,0.376,0.38,0.819,2.32,-7.23,2.17,1,2
16441.593,0.378,0.379,0.825,-0.24,-7.48,2.81,1,2
16441.609,0.374,0.38,0.842,-1.89,-7.54,4.52,1,2
16441.625,0.388,0.366,0.833,-3.2,-6.56,6.29,1,2
16441.64,0.392,0.343,0.848,-3.27,-5.49,6.74,1,2
16441.64,0.395,0.327,0.852,-1.46,-5.16,6.44,1,2
16441.656,0.401,0.329,0.846,0.58,-5.19,5.55,1,2
16441.671,0.406,0.338,0.84,1.4,-5.34,3.91,1,2
16441.671,0.409,0.356,0.831,0.27,-5.28,2.56,1,2
16441.687,0.421,0.362,0.821,-2.26,-5.52,2.08,1,2
16441.703,0.431,0.364,0.825,-9.28,-4.39,-3.17,1,2
16441.718,0.427,0.36,0.86,-11.87,-2.38,-4.61,1,2
16441.734,0.415,0.36,0.905,-12.94,-4.12,-6.13,1,2
16441.734,0.397,0.338,0.863,-13.86,-9.74,-8.21,1,2
16441.75,0.442,0.316,0.836,-18.49,-13.98,-13.09,1,2
16441.75,0.452,0.305,0.811,-22.52,-12.42,-19.99,1,2
16441.765,0.412,0.324,0.855,-22.68,-5.28,-23.35,1,2
16441.781,0.414,0.306,0.87,-14.86,-0.12,-23.22,1,2
16441.781,0.421,0.314,0.859,-5.13,7.2,-20.57,1,2
16441.796,0.375,0.3,0.862,4.21,16.63,-16.82,1,2
16441.796,0.341,0.268,0.825,11.26,24.78,-10.47,1,2
16441.812,0.34,0.279,0.798,15.75,32.62,-3.05,1,2
16441.828,0.291,0.341,0.803,17.94,35.28,3.33,1,2
16441.828,0.245,0.432,0.791,17.67,25.73,10.71,1,2
16441.843,0.225,0.46,0.745,13.55,6.26,19.41,1,2
16441.859,0.311,0.515,0.728,1.46,-11.87,23.93,1,2
16441.875,0.274,0.52,0.861,-17.58,-24.9,24.41,1,2
16441.875,0.25,0.429,1.025,-34.58,-42.82,25.64,1,2
16441.875,0.268,0.325,1.118,-35.71,-62.72,29.24,1,2
16441.89,0.401,0.274,1.127,-13.21,-73.95,37.48,1,2
16441.906,0.512,0.215,1.029,17.88,-73.46,42.18,1,2
16441.906,0.589,0.204,0.953,44.77,-64.36,38.42,1,2
16441.921,0.595,0.204,0.86,65.95,-51.79,27.77,1,2
16441.937,0.566,0.252,0.707,78.83,-38.48,18.16,1,2
16441.953,0.582,0.311,0.623,79.53,-24.75,12.21,1,2
16441.953,0.575,0.405,0.556,65.4,-9.86,7.87,1,2
16441.968,0.542,0.44,0.516,38.42,4.91,5.31,1,2
16441.968,0.523,0.407,0.558,9.19,17.43,4.64,1,2
16441.984,0.479,0.405,0.608,-11.11,26.18,4.15,1,2
16442.0,0.454,0.412,0.672,-23.65,30.34,4.85,1,2
16442.0,0.436,0.416,0.771,-33.91,28.53,5.07,1,2
16442.015,0.425,0.408,0.834,-41.96,21.06,3.66,1,2
16442.031,0.426,0.364,0.865,-47.03,12.73,2.14,1,2
16442.031,0.378,0.336,0.95,-46.94,5.92,1.65,1,2
16442.046,0.451,0.27,1.04,-35.89,-3.39,4.76,1,2
16442.062,0.497,0.247,0.924,-23.8,-7.39,1.19,1,2
16442.062,0.499,0.195,0.835,-13.43,-1.53,-4.15,1,2
16442.078,0.506,0.207,0.809,-4.64,7.87,-9.19,1,2
16442.078,0.461,0.28,0.814,-0.34,15.11,-13.28,1,2
16442.093,0.449,0.34,0.818,0.34,17.03,-15.05,1,2
16442.109,0.423,0.389,0.83,-0.43,16.45,-15.96,1,2
16442.109,0.394,0.397,0.827,-2.53,13.82,-14.83,1,2
16442.125,0.39,0.381,0.82,-5.58,9.86,-12.09,1,2
16442.14,0.396,0.365,0.819,-9.49,6.71,-9.37,1,2
16442.14,0.408,0.346,0.824,-13.25,4.82,-8.09,1,2
16442.156,0.408,0.336,0.853,-15.26,4.33,-7.87,1,2
16442.171,0.402,0.33,0.875,-14.22,3.63,-7.54,1,2
16442.171,0.4,0.323,0.882,-11.96,2.35,-6.81,1,2
16442.187,0.388,0.329,0.888,-9.77,-0.12,-6.23,1,2
16442.187,0.388,0.322,0.867,-7.51,-3.6,-4.55,1,2
16442.203,0.407,0.32,0.837,-5.8,-6.07,-2.32,1,2
16442.218,0.422,0.327,0.819,-6.1,-7.05,-1.34,1,2
16442.218,0.436,0.334,0.817,-7.42,-6.29,-1.01,1,2
16442.234,0.448,0.339,0.836,-8.61,-4.61,-1.37,1,2
16442.234,0.447,0.323,0.832,-8.39,-2.99,-2.69,1,2
16442.25,0.463,0.306,0.811,-9.06,0.18,-3.88,1,2
16442.265,0.437,0.296,0.851,-8.39,3.45,-5.52,1,2
16442.265,0.425,0.307,0.864,-5.43,4.55,-5.68,1,2
16442.281,0.415,0.308,0.877,-3.6,4.33,-5.77,1,2
16442.296,0.413,0.298,0.866,-1.62,3.14,-5.98,1,2
16442.312,0.412,0.31,0.857,-0.92,2.01,-6.5,1,2
16442.312,0.406,0.315,0.852,-0.4,1.22,-6.74,1,2
16442.328,0.404,0.327,0.845,0.37,0.61,-5.43,1,2
16442.328,0.407,0.34,0.85,-0.85,-0.4,-3.39,1,2
16442.343,0.414,0.33,0.845,-2.75,-1.89,-1.59,1,2
16442.359,0.426,0.309,0.832,-3.69,-2.08,-0.31,1,2
16442.359,0.431,0.297,0.831,-3.63,-0.76,0.0,1,2
16442.39,0.422,0.304,0.854,-0.64,3.45,-3.17,1,2
16442.39,0.403,0.323,0.863,2.93,5.74,-3.94,1,2
16442.406,0.366,0.348,0.868,6.5,7.78,-2.53,1,2
16442.406,0.347,0.354,0.822,7.93,8.24,0.95,1,2
16442.421,0.353,0.349,0.811,2.56,7.66,4.7,1,2
16442.437,0.28,0.371,0.88,-0.24,3.78,8.97,1,2
16442.437,0.221,0.423,1.056,0.31,-13.64,17.55,1,2
16442.453,0.253,0.374,1.096,7.93,-42.02,26.61,1,2
16442.468,0.354,0.257,1.055,14.95,-66.38,30.46,1,2
16442.468,0.46,0.163,1.049,29.02,-80.6,28.84,1,2
16442.484,0.505,0.195,0.967,51.82,-85.21,23.74,1,2
16442.5,0.53,0.209,0.83,69.73,-83.74,16.75,1,2
16442.5,0.56,0.218,0.745,72.73,-77.73,9.22,1,2
16442.515,0.576,0.28,0.694,64.94,-69.64,0.85,1,2
16442.515,0.566,0.316,0.658,55.27,-60.37,-5.4,1,2
16442.531,0.577,0.354,0.635,48.25,-50.39,-8.15,1,2
16442.546,0.585,0.461,0.622,34.58,-30.15,-10.16,1,2
16442.562,0.577,0.478,0.633,26.92,-19.9,-10.86,1,2
16442.578,0.549,0.479,0.636,14.86,-2.59,-10.01,1,2
16442.593,0.518,0.478,0.643,6.81,1.53,-7.63,1,2
16442.593,0.496,0.472,0.664,-1.62,2.84,-4.97,1,2
16442.609,0.486,0.449,0.688,-8.73,2.47,-2.04,1,2
16442.609,0.49,0.421,0.757,-12.94,1.1,0.98,1,2
16442.625,0.508,0.388,0.778,-13.86,-0.24,2.72,1,2
16442.64,0.51,0.369,0.795,-13.52,-1.43,2.69,1,2
16442.64,0.524,0.349,0.793,-12.27,-3.39,0.92,1,2
16442.656,0.526,0.339,0.774,-10.65,-4.46,-1.22,1,2
16442.656,0.51,0.356,0.776,-8.33,-3.63,-2.96,1,2
16442.671,0.504,0.362,0.802,-4.94,-2.99,-2.38,1,2
16442.687,0.495,0.375,0.804,-3.63,-4.27,-0.76,1,2
16442.687,0.504,0.378,0.797,-1.68,-5.71,1.1,1,2
16442.703,0.516,0.363,0.781,1.5,-6.5,2.32,1,2
16442.734,0.549,0.357,0.746,4.55,-6.35,-0.61,1,2
16442.734,0.539,0.367,0.698,5.71,-3.14,-2.9,1,2
16442.75,0.54,0.385,0.688,5.1,2.01,-3.69,1,2
16442.75,0.548,0.391,0.703,1.65,6.1,-4.97,1,2
16442.765,0.536,0.408,0.702,-3.17,9.49,-6.59,1,2
16442.765,0.527,0.413,0.705,-7.11,12.57,-7.54,1,2
16442.781,0.512,0.421,0.711,-11.35,14.5,-6.96,1,2
16442.796,0.493,0.428,0.712,-16.24,14.77,-5.49,1,2
16442.796,0.493,0.413,0.726,-21.88,13.61,-3.91,1,2
16442.812,0.503,0.401,0.737,-26.73,12.6,-2.81,1,2
16442.828,0.505,0.382,0.76,-29.3,13.03,-2.44,1,2
16442.843,0.504,0.356,0.767,-31.04,13.12,-3.11,1,2
16442.843,0.468,0.358,0.836,-32.62,12.54,-4.12,1,2
16442.859,0.45,0.327,0.939,-29.66,5.62,-4.27,1,2
16442.859,0.485,0.303,0.927,-23.74,-6.16,-7.05,1,2
16442.875,0.528,0.278,0.838,-15.44,-12.51,-11.66,1,2
16442.89,0.522,0.276,0.776,-6.41,-9.7,-21.79,1,2
16442.906,0.518,0.313,0.772,-5.46,-8.03,-25.79,1,2
16442.906,0.507,0.361,0.764,-5.77,-6.35,-28.14,1,2
16442.921,0.499,0.397,0.757,-6.01,-3.39,-27.77,1,2
16442.937,0.485,0.414,0.752,-6.56,0.06,-25.06,1,2
16442.953,0.476,0.408,0.745,-8.76,2.08,-22.1,1,2
16442.953,0.469,0.406,0.76,-12.94,2.08,-19.9,1,2
16442.968,0.458,0.405,0.784,-16.42,0.15,-18.1,1,2
16442.968,0.467,0.386,0.78,-18.65,-2.26,-16.11,1,2
16442.984,0.479,0.363,0.779,-21.52,-3.81,-15.56,1,2
16443.0,0.485,0.344,0.789,-23.38,-4.15,-16.48,1,2
16443.0,0.484,0.333,0.793,-23.35,-3.66,-16.82,1,2
16443.015,0.493,0.335,0.807,-21.7,-1.98,-16.63,1,2
16443.031,0.496,0.338,0.811,-18.56,0.09,-16.72,1,2
16443.031,0.494,0.335,0.803,-16.45,2.53,-17.58,1,2
16443.046,0.491,0.328,0.8,-15.05,5.07,-18.13,1,2
16443.062,0.477,0.342,0.798,-11.96,7.9,-20.23,1,2
16443.078,0.467,0.349,0.794,-11.96,7.63,-21.33,1,2
16443.078,0.465,0.357,0.786,-12.94,7.11,-21.73,1,2
16443.093,0.463,0.365,0.779,-14.31,7.14,-21.67,1,2
16443.109,0.458,0.369,0.781,-16.24,8.06,-20.48,1,2
16443.109,0.452,0.382,0.788,-18.13,9.13,-18.56,1,2
16443.125,0.443,0.387,0.805,-20.02,9.8,-15.96,1,2
16443.14,0.439,0.382,0.823,-20.97,9.7,-12.82,1,2
16443.14,0.43,0.367,0.833,-21.12,8.67,-10.13,1,2
16443.156,0.422,0.356,0.86,-20.51,6.99,-8.06,1,2
16443.156,0.408,0.332,0.885,-17.58,4.55,-5.16,1,2
16443.171,0.419,0.318,0.872,-13.31,1.25,-2.08,1,2
16443.187,0.433,0.31,0.857,-10.07,-1.04,-1.1,1,2
16443.187,0.44,0.31,0.847,-7.32,-2.01,-1.19,1,2
16443.203,0.445,0.32,0.838,-4.94,-1.74,-0.95,1,2
16443.218,0.451,0.33,0.827,-3.57,-1.46,-0.89,1,2
16443.234,0.461,0.335,0.814,-3.48,-0.43,-1.95,1,2
16443.25,0.462,0.332,0.809,-3.94,0.24,-2.47,1,2
16443.25,0.465,0.333,0.813,-4.85,0.95,-3.14,1,2
16443.265,0.463,0.33,0.82,-5.28,1.86,-3.42,1,2
16443.265,0.455,0.334,0.824,-4.79,2.56,-3.05,1,2
16443.281,0.452,0.332,0.82,-4.64,2.99,-2.87,1,2
16443.296,0.452,0.332,0.817,-5.19,3.27,-3.23,1,2
16443.296,0.451,0.335,0.824,-5.65,3.54,-3.36,1,2
16443.312,0.442,0.334,0.834,-5.95,3.6,-3.33,1,2
16443.328,0.43,0.337,0.845,-5.34,2.81,-2.93,1,2
16443.343,0.427,0.331,0.851,-4.0,1.25,-1.71,1,2
16443.343,0.433,0.317,0.841,-2.69,-0.18,-0.61,1,2
16443.359,0.442,0.308,0.834,-2.32,-1.1,-0.46,1,2
16443.359,0.446,0.315,0.836,-2.01,-1.46,-1.04,1,2
16443.375,0.442,0.319,0.83,-1.07,-1.22,-1.5,1,2
16443.39,0.443,0.33,0.828,-0.76,-1.01,-1.4,1,2
16443.406,0.443,0.329,0.825,-1.31,-0.7,-1.4,1,2
16443.421,0.441,0.327,0.821,-2.04,-0.85,-1.46,1,2
16443.421,0.443,0.329,0.824,-2.44,-0.76,-1.07,1,2
16443.437,0.447,0.331,0.825,-3.05,-0.76,-0.67,1,2
16443.437,0.448,0.328,0.824,-4.0,-0.89,-1.01,1,2
16443.453,0.446,0.328,0.832,-4.55,-0.58,-1.37,1,2
16443.468,0.443,0.325,0.836,-4.0,-0.43,-1.1,1,2
16443.468,0.443,0.323,0.841,-3.11,-0.7,-0.34,1,2
16443.484,0.444,0.32,0.841,-2.2,-1.01,0.18,1,2
16443.5,0.438,0.321,0.837,-1.37,-1.07,0.09,1,2
16443.5,0.434,0.32,0.833,-0.61,-0.95,0.7,1,2
16443.515,0.439,0.32,0.829,-0.06,-1.01,1.65,1,2
16443.515,0.439,0.326,0.833,-0.12,-0.82,2.04,1,2
16443.531,0.426,0.336,0.854,0.03,-1.56,2.14,1,2
16443.546,0.417,0.321,0.879,0.92,-4.27,3.33,1,2
16443.562,0.422,0.293,0.892,6.32,-12.51,3.91,1,2
16443.578,0.424,0.314,0.861,13.55,-15.47,6.9,1,2
16443.578,0.443,0.315,0.838,14.5,-14.1,8.3,1,2
16443.593,0.464,0.344,0.789,14.56,-11.54,9.16,1,2
16443.609,0.466,0.344,0.773,13.86,-7.26,10.59,1,2
16443.609,0.469,0.35,0.776,11.66,-3.66,11.81,1,2
16443.625,0.47,0.348,0.776,8.61,-1.28,12.24,1,2
16443.625,0.465,0.349,0.781,5.1,0.24,12.15,1,2
16443.64,0.465,0.345,0.796,2.23,0.85,12.54,1,2
16443.656,0.465,0.339,0.81,0.31,0.58,12.73,1,2
16443.671,0.461,0.332,0.821,-0.15,0.12,12.73,1,2
16443.671,0.462,0.33,0.827,0.4,-0.24,13.55,1,2
16443.687,0.465,0.323,0.831,1.68,-0.31,14.34,1,2
16443.687,0.464,0.308,0.833,2.62,-0.49,13.98,1,2
16443.703,0.469,0.301,0.832,3.27,-1.01,13.03,1,2
16443.718,0.475,0.303,0.825,3.42,-1.46,11.84,1,2
16443.734,0.48,0.305,0.817,3.33,-1.86,9.89,1,2
16443.734,0.486,0.307,0.81,2.84,-2.23,7.48,1,2
16443.734,0.49,0.312,0.803,1.53,-2.44,4.88,1,2
16443.75,0.489,0.317,0.795,-0.58,-2.69,1.83,1,2
16443.765,0.493,0.33,0.804,-2.5,-2.66,-0.21,1,2
16443.765,0.48,0.328,0.81,-2.26,-1.56,-0.61,1,2
16443.781,0.474,0.333,0.821,-2.93,-1.53,-0.7,1,2
16443.796,0.472,0.319,0.823,-1.83,-1.22,-0.37,1,2
16443.796,0.473,0.311,0.823,-0.95,-0.7,-0.21,1,2
16443.812,0.473,0.307,0.826,-0.46,-0.4,-1.01,1,2
16443.828,0.462,0.321,0.829,0.7,-0.15,-1.43,1,2
16443.828,0.456,0.336,0.825,1.98,-0.52,-0.55,1,2
16443.843,0.46,0.327,0.815,2.08,-1.43,0.12,1,2
16443.859,0.464,0.323,0.806,0.92,-2.32,-0.12,1,2
16443.859,0.461,0.332,0.806,-0.31,-2.72,0.15,1,2
16443.875,0.464,0.336,0.812,-1.1,-2.47,1.37,1,2
16443.89,0.466,0.324,0.818,-1.77,-2.47,2.17,1,2
16443.89,0.47,0.312,0.816,-2.72,-3.3,1.68,1,2
16443.906,0.476,0.313,0.816,-2.96,-3.63,1.46,1,2
16443.906,0.48,0.313,0.82,-2.14,-2.93,1.07,1,2
16443.921,0.479,0.308,0.819,-1.74,-2.59,0.27,1,2
16443.937,0.482,0.316,0.816,-1.89,-2.66,-0.79,1,2
16443.953,0.479,0.32,0.815,-1.77,-2.01,-1.59,1,2
16443.953,0.475,0.321,0.816,-1.62,-1.46,-1.74,1,2
16443.968,0.473,0.32,0.817,-1.5,-1.5,-1.95,1,2
16443.968,0.474,0.318,0.817,-1.8,-1.65,-2.26,1,2
16443.984,0.47,0.321,0.821,-1.74,-1.56,-2.29,1,2
16444.0,0.47,0.317,0.821,-1.04,-1.56,-2.17,1,2
16444.0,0.472,0.312,0.819,-0.64,-1.98,-2.2,1,2
16444.015,0.474,0.311,0.816,-1.04,-2.66,-2.93,1,2
16444.031,0.479,0.317,0.814,-1.43,-3.05,-3.97,1,2
16444.031,0.479,0.316,0.812,-1.59,-3.02,-4.55,1,2
16444.046,0.477,0.315,0.807,-2.2,-3.27,-5.4,1,2
16444.046,0.485,0.322,0.811,-3.63,-3.48,-6.47,1,2
16444.062,0.48,0.325,0.812,-4.21,-2.84,-7.63,1,2
16444.078,0.476,0.315,0.811,-4.49,-2.08,-8.12,1,2
16444.078,0.474,0.307,0.817,-4.82,-1.62,-8.48,1,2
16444.093,0.47,0.314,0.821,-3.72,-0.82,-8.06,1,2
16444.093,0.468,0.319,0.819,-2.53,-0.21,-7.17,1,2
16444.109,0.465,0.32,0.822,-2.32,-0.67,-7.2,1,2
16444.125,0.468,0.323,0.818,-2.56,-1.62,-7.63,1,2
16444.125,0.466,0.324,0.809,-2.9,-2.14,-7.93,1,2
16444.14,0.47,0.328,0.809,-3.23,-1.68,-7.63,1,2
16444.156,0.47,0.333,0.815,-3.02,-0.27,-6.38,1,2
16444.156,0.461,0.333,0.824,-2.47,0.98,-5.13,1,2
16444.171,0.456,0.329,0.832,-2.08,1.01,-4.03,1,2
16444.187,0.454,0.325,0.834,-1.71,0.09,-3.08,1,2
16444.187,0.452,0.317,0.829,-1.16,-0.98,-2.38,1,2
16444.203,0.453,0.314,0.826,-0.4,-1.53,-1.5,1,2
16444.218,0.456,0.318,0.822,0.03,-1.8,-0.43,1,2
16444.218,0.462,0.318,0.82,-0.03,-2.2,0.27,1,2
16444.234,0.468,0.319,0.816,-0.64,-2.47,0.31,1,2
16444.25,0.473,0.321,0.816,-1.04,-2.38,-0.15,1,2
16444.265,0.478,0.319,0.812,-2.17,-1.59,-1.34,1,2
16444.265,0.48,0.319,0.817,-2.35,-0.95,-1.59,1,2
16444.281,0.474,0.317,0.82,-2.08,-0.24,-1.92,1,2
16444.296,0.473,0.319,0.82,-2.04,0.4,-2.38,1,2
16444.296,0.47,0.319,0.824,-1.65,0.55,-2.72,1,2
16444.312,0.464,0.319,0.826,-0.76,0.52,-2.81,1,2
16444.328,0.461,0.317,0.807,-0.34,0.18,-2.59,1,2
16444.328,0.479,0.308,0.794,-2.62,0.58,-2.9,1,2
16444.343,0.462,0.318,0.828,-4.46,0.64,-4.73,1,2
16444.359,0.459,0.344,0.818,-2.81,-0.18,-3.88,1,2
16444.359,0.462,0.327,0.82,-4.06,-0.61,-3.42,1,2
16444.375,0.46,0.317,0.819,-4.73,-0.98,-3.69,1,2
16444.39,0.463,0.312,0.814,-4.73,-0.98,-3.45,1,2
16444.39,0.467,0.311,0.817,-5.62,-0.79,-3.57,1,2
16444.406,0.465,0.314,0.825,-5.68,-0.4,-3.75,1,2
16444.406,0.463,0.318,0.83,-5.22,-0.12,-3.69,1,2
16444.437,0.465,0.314,0.827,-4.0,0.09,-3.69,1,2
16444.437,0.467,0.31,0.821,-3.85,0.15,-3.97,1,2
16444.453,0.465,0.309,0.819,-3.81,0.31,-4.46,1,2
16444.468,0.467,0.313,0.824,-4.09,0.67,-4.91,1,2
16444.484,0.466,0.317,0.826,-3.94,1.22,-4.91,1,2
16444.484,0.461,0.316,0.829,-3.05,1.53,-4.7,1,2
16444.484,0.458,0.312,0.826,-2.35,1.68,-4.24,1,2
16444.5,0.453,0.314,0.826,-2.23,1.5,-4.06,1,2
16444.515,0.45,0.321,0.826,-2.41,1.43,-3.94,1,2
16444.531,0.449,0.319,0.827,-2.47,0.82,-3.39,1,2
16444.531,0.447,0.322,0.828,-2.9,0.03,-2.75,1,2
16444.546,0.451,0.323,0.825,-3.63,-0.55,-1.68,1,2
16444.546,0.455,0.316,0.823,-3.57,-0.24,-1.34,1,2
16444.562,0.451,0.314,0.832,-3.14,-0.55,-0.92,1,2
16444.578,0.458,0.312,0.831,-2.99,-1.07,-0.67,1,2
16444.578,0.463,0.305,0.825,-2.72,-1.07,-0.89,1,2
16444.609,0.465,0.312,0.827,-3.08,0.21,-1.95,1,2
16444.609,0.466,0.315,0.825,-2.87,0.95,-2.23,1,2
16444.625,0.463,0.31,0.827,-2.9,1.83,-2.47,1,2
16444.64,0.458,0.307,0.832,-2.53,2.44,-2.75,1,2
16444.64,0.456,0.306,0.837,-1.98,2.56,-2.96,1,2
16444.656,0.452,0.306,0.836,-1.68,2.2,-2.93,1,2
16444.656,0.451,0.308,0.834,-1.53,1.65,-2.84,1,2
16444.671,0.454,0.311,0.834,-1.4,1.46,-2.81,1,2
16444.687,0.45,0.307,0.833,-1.16,1.13,-2.87,1,2
16444.703,0.452,0.307,0.828,-1.37,0.46,-3.2,1,2
16444.703,0.452,0.311,0.826,-2.08,0.0,-3.6,1,2
16444.718,0.453,0.315,0.829,-2.62,-0.12,-3.91,1,2
16444.718,0.453,0.312,0.829,-2.99,0.06,-4.06,1,2
16444.734,0.452,0.313,0.833,-2.72,0.27,-3.69,1,2
16444.75,0.454,0.316,0.836,-2.38,0.46,-3.17,1,2
16444.75,0.453,0.308,0.832,-2.11,0.76,-3.02,1,2
16444.765,0.452,0.304,0.832,-2.41,1.01,-3.02,1,2
16444.781,0.451,0.301,0.833,-2.14,0.95,-3.39,1,2
16444.781,0.448,0.303,0.837,-1.83,0.7,-3.6,1,2
16444.796,0.448,0.311,0.841,-1.83,0.34,-3.51,1,2
16444.796,0.45,0.312,0.836,-1.71,-0.18,-3.54,1,2
16444.812,0.449,0.307,0.826,-1.37,-0.31,-3.66,1,2
16444.828,0.448,0.305,0.823,-1.4,0.0,-4.43,1,2
16444.828,0.446,0.315,0.828,-2.41,0.49,-5.16,1,2
16444.843,0.441,0.322,0.829,-3.08,0.98,-5.37,1,2
16444.859,0.437,0.323,0.833,-3.05,1.68,-4.7,1,2
16444.859,0.437,0.319,0.841,-2.78,2.08,-3.42,1,2
16444.875,0.43,0.309,0.84,-2.69,2.04,-2.56,1,2
16444.89,0.419,0.309,0.845,-2.53,2.04,-0.95,1,2
16444.89,0.404,0.31,0.852,-1.59,1.77,1.5,1,2
16444.906,0.367,0.337,0.888,-0.61,-1.19,5.19,1,2
16444.906,0.315,0.366,0.939,3.05,-9.22,12.73,1,2
16444.921,0.271,0.388,1.02,10.38,-21.73,24.38,1,2
16444.937,0.258,0.418,1.061,23.41,-39.09,39.43,1,2
16444.937,0.336,0.392,0.997,36.68,-54.87,54.6,1,2
16444.953,0.444,0.3,0.905,48.04,-59.91,63.94,1,2
16444.968,0.563,0.221,0.824,64.12,-52.98,69.15,1,2
16444.968,0.667,0.242,0.755,79.29,-38.42,65.55,1,2
16444.984,0.719,0.217,0.662,82.52,-20.81,50.2,1,2
16445.0,0.691,0.194,0.584,78.46,-1.68,31.92,1,2
16445.0,0.634,0.234,0.563,71.57,15.99,16.24,1,2
16445.015,0.564,0.34,0.573,58.41,27.89,5.71,1,2
16445.015,0.503,0.437,0.641,37.48,33.08,4.15,1,2
16445.031,0.472,0.451,0.71,14.53,31.19,7.45,1,2
16445.046,0.467,0.407,0.749,-4.79,24.23,10.44,1,2
16445.046,0.502,0.348,0.751,-13.82,17.76,11.05,1,2
16445.062,0.526,0.336,0.752,-17.58,15.47,8.73,1,2
16445.078,0.529,0.324,0.757,-22.06,15.35,3.33,1,2
16445.078,0.513,0.312,0.759,-27.62,15.59,-2.23,1,2
16445.093,0.496,0.322,0.769,-32.72,15.81,-5.52,1,2
16445.109,0.481,0.345,0.826,-35.19,16.36,-5.86,1,2
16445.109,0.442,0.359,0.906,-30.85,14.77,-3.85,1,2
16445.125,0.454,0.324,0.905,-23.68,9.46,-1.16,1,2
16445.14,0.496,0.271,0.856,-18.95,6.41,-1.68,1,2
16445.14,0.507,0.225,0.828,-13.64,9.03,-4.79,1,2
16445.156,0.497,0.234,0.829,-8.18,13.98,-8.15,1,2
16445.156,0.48,0.28,0.838,-4.12,17.67,-11.08,1,2
16445.171,0.466,0.322,0.84,-1.46,18.77,-13.31,1,2
16445.187,0.455,0.354,0.83,0.15,18.19,-14.22,1,2
16445.203,0.437,0.365,0.82,0.61,16.57,-13.61,1,2
16445.203,0.417,0.359,0.821,-0.34,14.13,-11.69,1,2
16445.218,0.41,0.354,0.818,-2.11,10.83,-8.27,1,2
16445.218,0.414,0.355,0.822,-4.46,7.54,-4.52,1,2
16445.234,0.415,0.346,0.829,-6.53,4.67,-1.89,1,2
16445.25,0.427,0.337,0.837,-7.51,2.72,-0.03,1,2
16445.25,0.435,0.327,0.845,-7.45,1.71,1.07,1,2
16445.265,0.438,0.311,0.843,-7.08,0.89,1.46,1,2
16445.265,0.442,0.311,0.842,-6.35,0.0,2.01,1,2
16445.281,0.46,0.311,0.831,-5.68,-0.06,2.56,1,2
16445.296,0.469,0.31,0.827,-5.19,1.46,2.04,1,2
16445.296,0.467,0.309,0.822,-4.15,3.63,1.1,1,2
16445.312,0.467,0.306,0.829,-3.3,5.43,0.15,1,2
16445.328,0.463,0.31,0.84,-2.23,7.05,-1.01,1,2
16445.343,0.44,0.318,0.85,-0.4,7.69,-1.62,1,2
16445.343,0.423,0.323,0.861,1.25,6.16,-1.04,1,2
16445.359,0.416,0.322,0.866,1.98,2.59,-0.61,1,2
16445.359,0.411,0.317,0.853,2.14,-1.95,-0.4,1,2
16445.375,0.427,0.31,0.823,2.14,-4.97,0.21,1,2
16445.375,0.436,0.322,0.811,1.8,-5.43,1.28,1,2
16445.39,0.441,0.335,0.81,1.13,-4.58,2.32,1,2
16445.406,0.443,0.33,0.82,0.89,-3.88,2.72,1,2
16445.421,0.432,0.377,0.867,-3.17,-4.33,5.31,1,2
16445.421,0.446,0.343,0.841,-4.24,-6.9,6.26,1,2
16445.437,0.451,0.289,0.812,-2.14,-6.9,5.86,1,2
16445.437,0.436,0.28,0.83,-0.4,-5.83,5.43,1,2
16445.453,0.433,0.299,0.846,1.16,-6.53,5.43,1,2
16445.468,0.43,0.363,0.875,-0.34,-8.03,7.87,1,2
16445.468,0.441,0.333,0.841,0.61,-10.86,9.22,1,2
16445.484,0.46,0.29,0.824,2.5,-11.66,10.01,1,2
16445.5,0.464,0.286,0.832,2.38,-11.11,9.83,1,2
16445.5,0.473,0.289,0.821,2.62,-10.44,8.21,1,2
16445.515,0.47,0.308,0.818,3.85,-8.0,7.35,1,2
16445.515,0.473,0.309,0.818,4.88,-4.06,5.16,1,2
16445.531,0.463,0.323,0.832,4.03,-3.94,5.25,1,2
16445.546,0.456,0.327,0.834,3.85,-4.58,5.95,1,2
16445.546,0.459,0.309,0.817,2.87,-4.79,6.68,1,2
16445.562,0.485,0.302,0.801,0.67,-4.36,6.93,1,2
16445.578,0.491,0.317,0.814,-1.43,-3.42,7.57,1,2
16445.578,0.496,0.319,0.823,-1.83,-2.69,8.21,1,2
16445.593,0.493,0.302,0.83,-0.67,-2.5,8.24,1,2
16445.609,0.494,0.293,0.83,0.76,-2.81,7.45,1,2
16445.609,0.492,0.289,0.822,2.17,-2.9,5.71,1,2
16445.625,0.484,0.3,0.806,3.42,-0.55,0.76,1,2
16445.64,0.471,0.312,0.817,3.81,1.56,-1.1,1,2
16445.656,0.45,0.327,0.834,4.15,2.53,-2.01,1,2
16445.656,0.432,0.334,0.836,4.55,1.68,-1.95,1,2
16445.671,0.433,0.328,0.824,4.55,-0.03,-0.43,1,2
16445.687,0.441,0.317,0.811,3.45,-1.56,0.37,1,2
16445.703,0.45,0.323,0.802,1.68,-2.32,1.1,1,2
16445.703,0.46,0.331,0.805,-0.37,-2.23,2.23,1,2
16445.718,0.472,0.334,0.816,-2.5,-1.95,3.08,1,2
16445.718,0.472,0.328,0.828,-3.45,-2.04,3.6,1,2
16445.734,0.48,0.311,0.834,-3.08,-2.53,4.67,1,2
16445.75,0.48,0.299,0.845,-1.62,-3.08,5.65,1,2
16445.75,0.482,0.289,0.836,0.95,-3.72,6.59,1,2
16445.765,0.491,0.29,0.836,3.39,-4.58,6.99,1,2
16445.781,0.497,0.302,0.807,4.7,-5.16,6.44,1,2
16445.781,0.51,0.286,0.8,2.32,-5.28,4.21,1,2
16445.796,0.502,0.307,0.786,-0.37,-1.89,-1.28,1,2
16445.812,0.489,0.319,0.804,-1.71,0.15,-3.17,1,2
16445.828,0.473,0.324,0.814,-2.9,0.95,-4.58,1,2
16445.828,0.464,0.312,0.821,-3.66,0.92,-5.46,1,2
16445.843,0.454,0.307,0.824,-4.06,0.03,-5.68,1,2
16445.859,0.455,0.316,0.823,-4.24,-0.76,-4.91,1,2
16445.859,0.459,0.315,0.817,-3.75,-0.64,-3.63,1,2
16445.875,0.463,0.316,0.82,-3.72,0.03,-2.35,1,2
16445.875,0.461,0.314,0.829,-3.72,0.46,-1.89,1,2
16445.89,0.463,0.315,0.84,-3.3,0.24,-1.53,1,2
16445.906,0.462,0.325,0.837,-1.92,-0.4,-0.55,1,2
16445.906,0.47,0.309,0.828,-0.95,-1.43,0.55,1,2
16445.921,0.477,0.296,0.816,-1.07,-2.2,0.37,1,2
16445.937,0.484,0.299,0.812,-1.5,-2.29,0.24,1,2
16445.937,0.487,0.307,0.821,-1.62,-1.5,0.49,1,2
16445.953,0.488,0.301,0.825,-1.31,-0.92,0.49,1,2
16445.968,0.49,0.287,0.819,-1.16,-0.92,-0.37,1,2
16445.968,0.485,0.29,0.819,-0.67,-0.49,-1.22,1,2
16445.984,0.477,0.303,0.825,0.21,0.43,-1.5,1,2
16446.0,0.47,0.31,0.826,1.22,0.85,-1.34,1,2
16446.015,0.464,0.313,0.819,2.11,1.07,-1.28,1,2
16446.015,0.454,0.318,0.817,2.32,1.37,-1.04,1,2
16446.015,0.433,0.329,0.819,2.38,1.65,0.34,1,2
16446.031,0.4,0.346,0.834,1.98,0.92,3.05,1,2
16446.046,0.353,0.365,0.859,0.79,-3.88,7.42,1,2
16446.046,0.355,0.341,0.898,-2.87,-15.23,12.91,1,2
16446.062,0.4,0.304,0.954,-2.32,-30.67,17.03,1,2
16446.078,0.45,0.287,0.881,3.75,-42.12,19.56,1,2
16446.078,0.501,0.215,0.827,7.72,-45.11,19.17,1,2
16446.093,0.599,0.194,0.816,11.66,-41.57,15.81,1,2
16446.109,0.613,0.225,0.781,17.0,-32.5,8.39,1,2
16446.109,0.611,0.238,0.766,19.96,-22.28,2.2,1,2
16446.125,0.605,0.291,0.768,21.39,-13.95,-2.5,1,2
16446.125,0.585,0.328,0.757,21.49,-8.58,-6.81,1,2
16446.14,0.563,0.331,0.743,19.29,-4.85,-9.58,1,2
16446.156,0.54,0.326,0.735,17.43,-1.4,-10.38,1,2
16446.171,0.518,0.331,0.732,16.66,1.98,-9.89,1,2
16446.171,0.491,0.363,0.735,12.51,4.43,-8.97,1,2
16446.187,0.469,0.38,0.746,7.2,4.94,-8.91,1,2
16446.187,0.459,0.401,0.765,1.4,4.0,-7.17,1,2
16446.203,0.463,0.411,0.777,-3.63,2.23,-3.48,1,2
16446.218,0.479,0.374,0.772,-6.41,1.1,0.55,1,2
16446.218,0.495,0.341,0.776,-9.52,0.24,3.85,1,2
16446.234,0.512,0.308,0.785,-11.84,-0.61,5.04,1,2
16446.25,0.528,0.294,0.792,-12.27,-1.01,4.7,1,2
16446.25,0.535,0.296,0.799,-11.38,-0.52,2.99,1,2
16446.265,0.534,0.296,0.803,-9.55,0.7,0.4,1,2
16446.281,0.525,0.3,0.807,-7.84,2.35,-2.2,1,2
16446.281,0.516,0.305,0.809,-6.07,4.06,-4.0,1,2
16446.296,0.506,0.306,0.811,-4.67,5.19,-4.94,1,2
16446.312,0.496,0.308,0.808,-4.33,5.65,-5.19,1,2
16446.312,0.49,0.314,0.81,-4.06,5.55,-4.79,1,2
16446.328,0.487,0.32,0.813,-3.78,4.67,-3.97,1,2
16446.328,0.482,0.32,0.816,-3.81,3.36,-3.39,1,2
16446.343,0.481,0.318,0.813,-3.63,1.74,-2.99,1,2
16446.359,0.485,0.323,0.813,-3.36,0.64,-2.32,1,2
16446.359,0.491,0.322,0.808,-2.47,0.55,-1.65,1,2
16446.375,0.492,0.31,0.801,-1.86,1.25,-1.62,1,2
16446.375,0.493,0.309,0.8,-2.08,2.11,-1.43,1,2
16446.39,0.501,0.315,0.802,-2.38,3.3,-1.04,1,2
16446.406,0.508,0.317,0.799,-2.01,4.58,-0.92,1,2
16446.406,0.513,0.313,0.792,-1.5,6.23,-1.01,1,2
16446.421,0.517,0.312,0.788,-1.22,8.45,-1.28,1,2
16446.437,0.524,0.314,0.787,-0.85,11.57,-1.92,1,2
16446.453,0.521,0.312,0.782,-0.64,15.53,-2.93,1,2
16446.453,0.512,0.313,0.777,-1.31,19.53,-3.97,1,2
16446.468,0.508,0.313,0.787,-2.01,23.44,-4.67,1,2
16446.468,0.499,0.312,0.8,-3.08,26.8,-6.01,1,2
16446.484,0.478,0.315,0.801,-4.55,28.29,-7.66,1,2
16446.5,0.469,0.312,0.817,-6.71,27.86,-8.58,1,2
16446.515,0.466,0.313,0.827,-10.16,23.53,-11.47,1,2
16446.515,0.454,0.314,0.819,-11.44,21.49,-12.12,1,2
16446.531,0.448,0.311,0.826,-12.6,19.44,-12.24,1,2
16446.531,0.448,0.317,0.836,-13.21,17.43,-12.42,1,2
16446.546,0.433,0.304,0.85,-13.37,14.59,-12.67,1,2
16446.546,0.396,0.316,0.881,-12.45,10.83,-12.79,1,2
16446.578,0.404,0.324,0.916,-9.92,3.42,-10.99,1,2
16446.578,0.415,0.304,0.893,-7.48,-4.58,-10.25,1,2
16446.578,0.425,0.284,0.861,-3.88,-7.93,-8.82,1,2
16446.593,0.438,0.288,0.843,-0.24,-7.51,-6.23,1,2
16446.609,0.443,0.301,0.839,1.98,-4.76,-4.18,1,2
16446.609,0.435,0.31,0.843,3.23,-2.29,-2.96,1,2
16446.625,0.428,0.322,0.846,4.12,-1.31,-1.83,1,2
16446.625,0.427,0.323,0.848,4.79,-1.65,-0.37,1,2
16446.64,0.432,0.314,0.844,4.67,-3.33,0.12,1,2
16446.656,0.435,0.317,0.831,3.91,-4.94,0.12,1,2
16446.671,0.44,0.324,0.823,2.96,-5.83,0.46,1,2
16446.671,0.45,0.325,0.819,1.92,-6.01,0.82,1,2
16446.687,0.457,0.325,0.812,0.82,-4.76,0.85,1,2
16446.687,0.46,0.329,0.82,-0.61,-2.59,0.43,1,2
16446.703,0.45,0.327,0.826,-1.59,-1.46,-0.03,1,2
16446.718,0.453,0.32,0.83,-2.81,-1.56,-0.12,1,2
16446.718,0.455,0.319,0.817,-3.91,-1.53,-0.24,1,2
16446.734,0.459,0.318,0.8,-5.4,-0.61,0.15,1,2
16446.75,0.464,0.323,0.808,-8.73,1.07,0.27,1,2
16446.75,0.461,0.332,0.828,-11.75,1.86,0.06,1,2
16446.765,0.461,0.315,0.838,-13.21,0.64,-1.01,1,2
16446.765,0.486,0.295,0.874,-15.47,-1.19,-3.54,1,2
16446.781,0.508,0.271,0.904,-13.09,-0.73,-6.99,1,2
16446.796,0.498,0.226,0.87,-5.89,1.37,-11.38,1,2
16446.812,0.496,0.247,0.827,-3.11,3.72,-16.42,1,2
16446.812,0.473,0.29,0.786,-3.27,7.11,-20.48,1,2
16446.828,0.435,0.352,0.754,-7.35,9.77,-21.82,1,2
16446.828,0.397,0.407,0.734,-15.99,10.86,-18.62,1,2
16446.843,0.381,0.419,0.729,-26.76,10.9,-13.37,1,2
16446.859,0.377,0.392,0.754,-37.29,10.8,-7.42,1,2
16446.859,0.359,0.331,0.84,-43.31,10.8,-1.59,1,2
16446.875,0.386,0.235,0.906,-42.66,9.16,3.05,1,2
16446.89,0.411,0.162,0.948,-35.92,9.77,4.21,1,2
16446.89,0.415,0.121,0.966,-22.43,13.86,3.85,1,2
16446.906,0.421,0.136,0.963,-7.02,17.21,3.42,1,2
16446.906,0.44,0.206,0.983,6.99,18.31,3.23,1,2
16446.921,0.44,0.281,0.991,17.33,16.33,2.26,1,2
16446.937,0.43,0.272,0.922,25.54,13.61,1.01,1,2
16446.937,0.414,0.258,0.85,29.39,12.15,-0.7,1,2
16446.953,0.379,0.288,0.81,29.02,10.28,-1.01,1,2
16446.968,0.349,0.344,0.797,25.33,5.83,1.46,1,2
16446.968,0.306,0.405,0.816,19.01,-1.46,6.1,1,2
16446.984,0.337,0.423,0.781,9.46,-11.87,12.42,1,2
16447.0,0.352,0.413,0.776,-2.75,-19.84,17.12,1,2
16447.0,0.385,0.358,0.787,-13.64,-24.38,20.69,1,2
16447.015,0.439,0.311,0.814,-22.89,-24.87,21.33,1,2
16447.031,0.468,0.266,0.849,-26.49,-21.0,19.62,1,2
16447.031,0.486,0.228,0.877,-25.36,-16.05,16.57,1,2
16447.046,0.501,0.206,0.908,-20.81,-11.69,12.18,1,2
16447.046,0.498,0.189,0.915,-13.55,-8.3,7.81,1,2
16447.062,0.501,0.178,0.914,-5.68,-5.83,4.52,1,2
16447.078,0.498,0.181,0.9,2.44,-3.94,0.55,1,2
16447.078,0.483,0.203,0.886,9.34,-2.38,-3.66,1,2
16447.093,0.474,0.24,0.871,14.1,-1.59,-6.56,1,2
16447.109,0.466,0.263,0.864,17.03,-0.79,-8.64,1,2
16447.109,0.451,0.279,0.855,18.37,-0.58,-10.25,1,2
16447.125,0.443,0.294,0.852,18.37,-0.73,-10.93,1,2
16447.125,0.432,0.299,0.841,17.76,-0.79,-10.74,1,2
16447.14,0.428,0.302,0.835,16.36,-1.16,-10.44,1,2
16447.156,0.416,0.306,0.828,14.13,-2.04,-10.16,1,2
16447.156,0.41,0.311,0.831,10.65,-3.51,-9.37,1,2
16447.171,0.408,0.335,0.837,7.35,-4.73,-8.0,1,2
16447.187,0.399,0.337,0.838,4.46,-6.35,-5.37,1,2
16447.187,0.415,0.308,0.825,1.74,-7.9,-3.75,1,2
16447.203,0.424,0.316,0.842,-0.03,-7.51,-2.47,1,2
16447.218,0.429,0.314,0.857,0.43,-6.47,-0.46,1,2
16447.218,0.436,0.294,0.869,1.34,-6.41,0.64,1,2
16447.234,0.441,0.267,0.875,3.02,-7.29,0.31,1,2
16447.234,0.442,0.259,0.876,5.62,-8.55,-0.76,1,2
16447.25,0.441,0.265,0.879,8.7,-10.07,-2.04,1,2
16447.265,0.436,0.277,0.865,11.6,-12.18,-3.05,1,2
16447.265,0.443,0.289,0.842,12.85,-14.1,-3.2,1,2
16447.281,0.448,0.307,0.83,12.94,-14.44,-3.23,1,2
16447.296,0.447,0.319,0.828,12.94,-14.04,-2.38,1,2
16447.296,0.453,0.331,0.817,12.12,-13.92,-1.22,1,2
16447.312,0.455,0.336,0.804,10.1,-13.76,-0.43,1,2
16447.328,0.464,0.327,0.799,6.56,-13.52,-0.46,1,2
16447.343,0.469,0.332,0.785,2.75,-12.7,-1.16,1,2
16447.343,0.472,0.344,0.78,-0.31,-10.8,-1.5,1,2
16447.359,0.474,0.337,0.787,-3.2,-8.58,-1.56,1,2
16447.359,0.469,0.33,0.799,-6.35,-7.08,-1.98,1,2
16447.375,0.463,0.322,0.809,-8.85,-6.84,-2.26,1,2
16447.375,0.462,0.312,0.827,-10.38,-7.05,-2.35,1,2
16447.39,0.46,0.303,0.842,-10.01,-7.32,-2.44,1,2
16447.406,0.458,0.293,0.848,-8.91,-8.06,-2.72,1,2
16447.406,0.463,0.285,0.845,-7.6,-8.73,-3.51,1,2
16447.421,0.466,0.285,0.843,-5.71,-8.76,-4.15,1,2
16447.437,0.465,0.285,0.837,-3.85,-8.42,-4.43,1,2
16447.437,0.468,0.291,0.835,-2.59,-7.78,-4.43,1,2
16447.453,0.465,0.294,0.835,-1.92,-7.35,-4.61,1,2
16447.468,0.47,0.293,0.826,-1.19,-7.29,-4.79,1,2
16447.484,0.473,0.305,0.826,-0.09,-6.29,-4.36,1,2
16447.484,0.467,0.307,0.825,0.73,-5.46,-4.12,1,2
16447.5,0.467,0.306,0.825,0.4,-5.1,-4.64,1,2
16447.5,0.463,0.31,0.824,0.09,-5.25,-4.64,1,2
16447.515,0.462,0.313,0.825,0.24,-5.65,-4.49,1,2
16447.515,0.454,0.309,0.826,0.27,-5.95,-3.97,1,2
16447.531,0.466,0.308,0.825,0.15,-6.41,-2.93,1,2
16447.546,0.468,0.309,0.814,0.12,-6.23,-2.38,1,2
16447.562,0.477,0.306,0.817,-0.67,-5.19,-2.29,1,2
16447.562,0.478,0.301,0.826,-0.4,-3.42,-2.32,1,2
16447.578,0.474,0.295,0.829,-0.12,-2.01,-2.84,1,2
16447.578,0.47,0.288,0.832,-0.15,-1.46,-3.48,1,2
16447.593,0.467,0.292,0.835,-0.15,-1.5,-4.27,1,2
16447.609,0.468,0.286,0.832,-0.49,-2.26,-5.22,1,2
16447.609,0.468,0.291,0.829,-0.67,-2.93,-5.89,1,2
16447.625,0.471,0.305,0.82,-0.4,-3.17,-5.77,1,2
16447.625,0.478,0.323,0.817,0.0,-1.92,-4.97,1,2
16447.64,0.482,0.337,0.819,1.4,0.06,-3.72,1,2
16447.656,0.48,0.351,0.811,4.43,1.37,-1.89,1,2
16447.656,0.481,0.369,0.793,6.93,1.8,0.4,1,2
16447.671,0.483,0.366,0.781,5.71,1.77,1.37,1,2
16447.687,0.47,0.326,0.783,1.28,1.19,0.52,1,2
16447.687,0.47,0.315,0.796,-2.17,0.92,1.04,1,2
16447.703,0.467,0.323,0.801,-3.94,0.89,2.11,1,2
16447.718,0.473,0.313,0.816,-5.98,0.21,2.41,1,2
16447.718,0.476,0.311,0.828,-7.75,-0.92,1.43,1,2
16447.734,0.47,0.304,0.831,-7.84,-1.68,0.18,1,2
16447.75,0.473,0.298,0.829,-6.96,-1.53,-0.09,1,2
16447.75,0.474,0.294,0.827,-5.86,-0.61,0.09,1,2
16447.765,0.475,0.293,0.833,-5.1,0.89,-0.12,1,2
16447.781,0.47,0.292,0.837,-3.45,2.44,-0.4,1,2
16447.781,0.483,0.297,0.828,-0.95,4.76,0.06,1,2
16447.796,0.488,0.296,0.833,1.1,7.63,0.09,1,2
16447.796,0.49,0.287,0.827,2.75,9.74,-1.07,1,2
16447.812,0.482,0.288,0.828,3.72,11.51,-2.9,1,2
16447.828,0.476,0.291,0.83,5.04,13.31,-4.3,1,2
16447.828,0.466,0.295,0.827,6.41,14.25,-5.58,1,2
16447.843,0.463,0.303,0.831,6.47,14.25,-7.17,1,2
16447.859,0.449,0.306,0.826,6.04,13.73,-8.61,1,2
16447.859,0.447,0.316,0.829,5.31,12.97,-8.61,1,2
16447.875,0.446,0.328,0.834,5.25,12.57,-8.15,1,2
16447.89,0.437,0.319,0.839,4.94,12.02,-7.97,1,2
16447.89,0.433,0.312,0.845,4.52,10.38,-8.0,1,2
16447.906,0.419,0.309,0.846,4.82,8.64,-7.66,1,2
16447.906,0.432,0.312,0.853,5.19,6.53,-6.78,1,2
16447.921,0.424,0.316,0.841,5.4,3.97,-7.51,1,2
16447.937,0.424,0.333,0.827,4.09,0.98,-8.24,1,2
16447.937,0.436,0.338,0.824,2.01,-0.7,-8.15,1,2
16447.953,0.444,0.333,0.811,-0.58,-2.32,-9.52,1,2
16447.968,0.446,0.326,0.795,-5.16,-4.12,-12.15,1,2
16447.968,0.46,0.341,0.804,-9.95,-4.91,-14.22,1,2
16447.984,0.454,0.339,0.822,-12.33,-4.64,-15.75,1,2
16448.0,0.45,0.341,0.836,-12.82,-4.76,-15.87,1,2
16448.0,0.435,0.341,0.841,-11.63,-5.07,-15.5,1,2
16448.015,0.418,0.335,0.849,-10.19,-6.32,-13.73,1,2
16448.031,0.407,0.343,0.854,-8.03,-8.55,-10.93,1,2
16448.031,0.404,0.344,0.855,-6.41,-10.32,-7.05,1,2
16448.046,0.396,0.336,0.858,-4.61,-11.6,-2.81,1,2
16448.046,0.395,0.333,0.857,-2.35,-13.12,1.65,1,2
16448.062,0.376,0.349,0.876,-0.34,-15.02,5.92,1,2
16448.078,0.366,0.341,0.88,1.86,-18.62,12.67,1,2
16448.078,0.382,0.327,0.898,4.3,-22.58,19.65,1,2
16448.093,0.377,0.301,0.892,8.0,-26.28,24.78,1,2
16448.109,0.405,0.314,0.872,13.82,-27.62,30.92,1,2
16448.109,0.443,0.327,0.845,20.97,-23.77,38.03,1,2
16448.125,0.469,0.316,0.825,25.7,-16.82,43.98,1,2
16448.125,0.498,0.286,0.805,28.6,-10.22,45.72,1,2
16448.14,0.518,0.257,0.779,28.72,-5.16,42.85,1,2
16448.156,0.54,0.259,0.769,26.15,-1.04,38.12,1,2
16448.171,0.564,0.295,0.763,24.6,4.03,33.91,1,2
16448.171,0.567,0.308,0.755,24.23,10.16,29.27,1,2
16448.187,0.56,0.308,0.767,22.77,15.38,24.54,1,2
16448.187,0.543,0.316,0.784,21.91,19.1,20.48,1,2
16448.203,0.526,0.317,0.796,21.97,21.88,17.67,1,2
16448.218,0.504,0.314,0.808,22.28,23.56,15.47,1,2
16448.218,0.488,0.314,0.812,22.13,23.41,13.46,1,2
16448.234,0.475,0.312,0.807,21.03,21.91,10.65,1,2
16448.25,0.465,0.315,0.801,18.83,19.9,7.72,1,2
16448.25,0.463,0.331,0.8,16.45,18.28,5.8,1,2
16448.265,0.463,0.352,0.809,14.95,18.62,5.65,1,2
16448.281,0.457,0.362,0.803,14.19,19.68,6.01,1,2
16448.281,0.453,0.355,0.807,12.85,20.2,5.58,1,2
16448.296,0.448,0.35,0.817,11.47,20.29,5.4,1,2
16448.296,0.448,0.348,0.814,10.62,19.5,5.46,1,2
16448.312,0.446,0.338,0.81,8.85,17.58,3.97,1,2
16448.328,0.453,0.332,0.814,6.29,15.2,2.17,1,2
16448.328,0.448,0.337,0.821,5.31,13.67,0.85,1,2
16448.343,0.439,0.348,0.825,4.36,11.47,0.06,1,2
16448.359,0.45,0.355,0.818,2.93,8.73,-1.19,1,2
16448.359,0.441,0.349,0.804,1.77,6.84,-2.11,1,2
16448.375,0.443,0.371,0.807,-0.06,5.83,-1.89,1,2
16448.375,0.437,0.376,0.807,-1.37,5.83,-0.79,1,2
16448.39,0.426,0.373,0.812,-2.84,5.89,1.01,1,2
16448.406,0.424,0.357,0.82,-4.33,4.61,2.87,1,2
16448.406,0.423,0.338,0.821,-6.04,1.77,2.99,1,2
16448.421,0.431,0.337,0.824,-8.21,-1.98,2.29,1,2
16448.437,0.444,0.338,0.82,-10.13,-5.01,1.19,1,2
16448.437,0.454,0.338,0.806,-11.87,-6.47,-0.27,1,2
16448.453,0.468,0.342,0.806,-14.16,-6.78,-2.44,1,2
16448.468,0.46,0.337,0.807,-16.24,-6.32,-4.91,1,2
16448.468,0.449,0.333,0.815,-17.33,-4.18,-5.92,1,2
16448.484,0.443,0.335,0.828,-16.24,-3.02,-4.94,1,2
16448.5,0.44,0.333,0.839,-15.23,-2.72,-4.43,1,2
16448.5,0.43,0.325,0.851,-13.61,-3.45,-3.36,1,2
16448.515,0.421,0.319,0.86,-11.29,-4.09,-1.16,1,2
16448.515,0.425,0.313,0.863,-8.79,-4.33,0.82,1,2
16448.531,0.436,0.297,0.854,-6.13,-4.58,1.89,1,2
16448.546,0.451,0.296,0.844,-4.49,-4.43,2.11,1,2
16448.562,0.456,0.305,0.842,-2.78,-3.23,1.92,1,2
16448.562,0.453,0.305,0.842,-0.92,-1.8,1.62,1,2
16448.578,0.452,0.305,0.84,0.24,-0.95,1.28,1,2
16448.578,0.451,0.304,0.838,1.07,-0.76,0.67,1,2
16448.593,0.448,0.31,0.837,1.53,-0.31,0.24,1,2
16448.609,0.448,0.314,0.835,2.23,0.12,0.15,1,2
16448.609,0.446,0.313,0.83,2.81,0.55,0.0,1,2
16448.625,0.449,0.319,0.828,2.75,0.95,-0.24,1,2
16448.625,0.447,0.327,0.836,3.08,2.11,-0.12,1,2
16448.64,0.442,0.323,0.843,4.12,3.05,0.58,1,2
16448.656,0.446,0.313,0.843,5.31,3.05,0.67,1,2
16448.656,0.449,0.313,0.838,6.5,2.53,-0.27,1,2
16448.671,0.448,0.324,0.84,7.54,2.04,-1.13,1,2
16448.687,0.449,0.331,0.837,8.73,1.46,-1.68,1,2
16448.687,0.442,0.331,0.837,9.25,0.73,-2.35,1,2
16448.703,0.432,0.333,0.841,9.64,-0.61,-2.66,1,2
16448.718,0.432,0.334,0.837,10.38,-2.11,-1.74,1,2
16448.718,0.437,0.33,0.829,10.86,-3.05,-1.22,1,2
16448.734,0.43,0.334,0.818,10.28,-3.69,-1.68,1,2
16448.75,0.421,0.355,0.815,8.67,-4.27,-0.73,1,2
16448.75,0.422,0.362,0.812,7.2,-4.88,1.43,1,2
16448.765,0.421,0.356,0.809,5.16,-6.04,3.27,1,2
16448.765,0.429,0.356,0.801,2.04,-7.84,4.85,1,2
16448.781,0.443,0.357,0.798,-1.31,-9.09,5.74,1,2
16448.796,0.444,0.361,0.814,-3.72,-8.97,6.59,1,2
16448.796,0.425,0.357,0.833,-4.39,-8.73,8.3,1,2
16448.812,0.433,0.335,0.841,-3.94,-9.86,10.96,1,2
16448.828,0.449,0.318,0.84,-2.66,-11.02,12.45,1,2
16448.843,0.46,0.306,0.83,-1.95,-11.69,12.09,1,2
16448.843,0.475,0.306,0.82,-1.01,-10.93,10.99,1,2
16448.859,0.48,0.319,0.82,0.82,-8.94,10.22,1,2
16448.859,0.486,0.318,0.814,2.04,-7.39,8.7,1,2
16448.875,0.484,0.316,0.807,1.95,-6.2,6.2,1,2
16448.89,0.48,0.321,0.804,1.74,-4.7,4.3,1,2
16448.89,0.486,0.326,0.803,1.34,-2.99,3.02,1,2
16448.906,0.485,0.324,0.805,0.79,-1.34,1.43,1,2
16448.906,0.475,0.322,0.814,0.4,0.24,0.27,1,2
16448.921,0.475,0.318,0.819,0.61,1.34,-0.46,1,2
16448.937,0.478,0.312,0.821,1.16,1.98,-1.34,1,2
16448.937,0.471,0.314,0.824,1.89,2.96,-2.29,1,2
16448.953,0.457,0.321,0.835,2.96,4.3,-2.26,1,2
16448.968,0.453,0.318,0.839,4.43,4.58,-1.43,1,2
16448.968,0.449,0.32,0.834,5.19,3.97,-0.92,1,2
16448.984,0.449,0.329,0.826,5.77,3.42,0.09,1,2
16448.984,0.454,0.332,0.817,5.77,3.39,1.34,1,2
16449.0,0.454,0.333,0.818,5.25,3.27,1.62,1,2
16449.015,0.448,0.339,0.82,4.61,2.84,1.83,1,2
16449.031,0.457,0.342,0.817,4.12,2.26,2.62,1,2
16449.031,0.461,0.333,0.808,3.63,1.86,2.35,1,2
16449.046,0.467,0.335,0.799,2.04,1.4,1.13,1,2
16449.046,0.472,0.341,0.796,-0.09,1.53,-0.27,1,2
16449.062,0.473,0.34,0.803,-1.95,2.29,-1.46,1,2
16449.078,0.469,0.342,0.813,-3.36,2.53,-2.75,1,2
16449.078,0.457,0.34,0.811,-4.06,2.11,-4.12,1,2
16449.093,0.445,0.342,0.813,-4.7,1.62,-4.15,1,2
16449.109,0.447,0.351,0.819,-4.79,1.31,-3.08,1,2
16449.109,0.441,0.34,0.818,-4.94,0.85,-2.26,1,2
16449.125,0.449,0.33,0.824,-6.35,0.06,-1.74,1,2
16449.125,0.452,0.336,0.841,-7.45,-0.37,-1.59,1,2
16449.14,0.452,0.339,0.86,-7.63,-1.53,-1.4,1,2
16449.156,0.455,0.34,0.844,-7.17,-4.21,-1.16,1,2
16449.156,0.465,0.345,0.835,-8.18,-6.87,-1.16,1,2
16449.171,0.457,0.345,0.793,-10.47,-9.8,-1.86,1,2
16449.187,0.492,0.341,0.786,-16.05,-11.2,-2.81,1,2
16449.187,0.501,0.344,0.798,-20.45,-9.58,-5.07,1,2
16449.203,0.518,0.32,0.802,-20.17,-5.74,-7.51,1,2
16449.218,0.493,0.311,0.867,-18.49,0.43,-9.55,1,2
16449.218,0.485,0.247,0.883,-11.63,4.46,-8.64,1,2
16449.234,0.476,0.19,0.872,-4.33,8.24,-8.73,1,2
16449.25,0.46,0.186,0.881,3.72,11.6,-10.59,1,2
16449.25,0.418,0.205,0.856,16.69,15.78,-11.32,1,2
16449.265,0.384,0.267,0.819,27.16,20.6,-9.64,1,2
16449.265,0.345,0.376,0.791,30.27,23.1,-5.07,1,2
16449.281,0.307,0.495,0.761,27.89,20.63,1.68,1,2
16449.296,0.281,0.575,0.777,17.43,8.33,9.89,1,2
16449.296,0.287,0.531,0.758,-0.12,-12.91,17.73,1,2
16449.312,0.38,0.414,0.704,-22.19,-29.11,21.82,1,2
16449.328,0.42,0.309,0.727,-37.48,-32.78,22.86,1,2
16449.343,0.459,0.265,0.823,-42.7,-31.01,22.06,1,2
16449.343,0.496,0.253,0.91,-40.8,-28.32,20.11,1,2
16449.359,0.53,0.221,0.975,-33.45,-27.89,16.33,1,2
16449.359,0.548,0.163,0.982,-21.94,-27.71,11.35,1,2
16449.375,0.59,0.126,0.968,-5.13,-24.29,7.66,1,2
16449.375,0.589,0.138,0.917,14.62,-17.58,2.99,1,2
16449.39,0.575,0.195,0.871,29.51,-10.25,-2.26,1,2
16449.406,0.56,0.261,0.827,38.09,-3.69,-6.9,1,2
16449.406,0.547,0.31,0.777,41.57,2.5,-10.83,1,2
16449.421,0.529,0.334,0.715,40.65,9.7,-13.7,1,2
16449.437,0.514,0.356,0.683,35.55,18.71,-14.62,1,2
16449.437,0.486,0.386,0.688,27.86,28.11,-14.16,1,2
16449.453,0.451,0.422,0.704,17.94,34.58,-12.45,1,2
16449.468,0.424,0.435,0.724,-2.53,35.4,-6.01,1,2
16449.468,0.404,0.425,0.764,-10.68,30.73,-2.99,1,2
16449.484,0.399,0.404,0.805,-16.05,25.21,-0.55,1,2
16449.484,0.408,0.333,0.838,-19.07,20.81,1.25,1,2
16449.5,0.426,0.317,0.853,-19.26,18.43,2.41,1,2
16449.515,0.439,0.308,0.865,-17.4,17.91,2.5,1,2
16449.515,0.442,0.295,0.872,-14.34,18.22,1.16,1,2
16449.531,0.431,0.284,0.872,-11.08,18.22,-0.64,1,2
16449.546,0.441,0.295,0.882,-8.88,17.0,-2.78,1,2
16449.546,0.425,0.307,0.869,-6.35,14.83,-5.4,1,2
16449.562,0.412,0.313,0.854,-5.46,11.6,-7.02,1,2
16449.578,0.423,0.318,0.846,-6.35,7.81,-7.93,1,2
16449.578,0.414,0.32,0.837,-7.84,4.79,-8.91,1,2
16449.593,0.409,0.327,0.836,-9.83,1.37,-9.61,1,2
16449.609,0.405,0.342,0.876,-11.29,-3.33,-10.07,1,2
16449.609,0.408,0.322,0.872,-13.0,-10.99,-12.12,1,2
16449.625,0.382,0.317,0.857,-15.66,-17.58,-14.44,1,2
16449.625,0.381,0.308,0.866,-15.99,-21.52,-12.7,1,2
16449.64,0.403,0.32,0.863,-13.4,-21.97,-7.75,1,2
16449.656,0.424,0.316,0.857,-10.35,-18.74,-3.72,1,2
16449.656,0.429,0.29,0.861,-8.0,-15.44,-3.02,1,2
16449.671,0.429,0.276,0.862,-6.87,-15.63,-4.15,1,2
16449.687,0.442,0.276,0.866,-6.65,-18.49,-6.53,1,2
16449.687,0.455,0.28,0.872,-6.5,-22.06,-10.74,1,2
16449.703,0.459,0.274,0.86,-5.62,-25.85,-15.17,1,2
16449.718,0.46,0.277,0.846,-5.4,-29.66,-19.99,1,2
16449.718,0.454,0.298,0.836,-6.53,-33.33,-24.84,1,2
16449.734,0.444,0.321,0.831,-7.78,-36.9,-27.5,1,2
16449.734,0.432,0.343,0.813,-9.7,-40.13,-27.83,1,2
16449.75,0.432,0.381,0.778,-14.01,-41.72,-25.76,1,2
16449.765,0.444,0.392,0.759,-20.39,-41.17,-22.37,1,2
16449.765,0.457,0.379,0.742,-27.56,-38.64,-19.29,1,2
16449.781,0.475,0.365,0.74,-34.67,-33.91,-16.63,1,2
16449.796,0.479,0.324,0.758,-41.02,-28.57,-15.5,1,2
16449.796,0.474,0.296,0.785,-44.86,-23.26,-14.68,1,2
16449.812,0.473,0.268,0.83,-45.75,-18.37,-12.82,1,2
16449.828,0.465,0.243,0.875,-43.21,-15.35,-10.9,1,2
16449.828,0.46,0.233,0.929,-36.5,-14.13,-8.27,1,2
16449.843,0.474,0.203,0.942,-26.43,-14.77,-5.89,1,2
16449.859,0.489,0.18,0.923,-16.11,-15.44,-6.5,1,2
16449.859,0.496,0.184,0.896,-5.83,-14.83,-8.12,1,2
16449.875,0.502,0.203,0.866,2.2,-13.86,-10.44,1,2
16449.89,0.514,0.24,0.841,7.17,-12.33,-13.03,1,2
16449.89,0.511,0.263,0.814,9.77,-9.52,-15.38,1,2
16449.906,0.502,0.277,0.794,9.77,-6.04,-17.0,1,2
16449.906,0.473,0.294,0.8,8.0,-2.99,-17.91,1,2
16449.921,0.422,0.319,0.831,6.59,-3.33,-15.99,1,2
16449.937,0.404,0.366,0.904,9.83,-8.91,-8.67,1,2
16449.937,0.393,0.405,0.904,17.21,-17.37,1.8,1,2
16449.953,0.411,0.383,0.869,20.48,-24.35,11.93,1,2
16449.968,0.44,0.319,0.825,24.69,-25.54,21.15,1,2
16449.968,0.466,0.287,0.775,27.74,-20.48,29.24,1,2
16449.984,0.498,0.285,0.748,25.79,-12.57,34.3,1,2
16450.0,0.506,0.304,0.738,21.7,-4.94,35.8,1,2
16450.0,0.51,0.332,0.733,15.72,-0.61,35.34,1,2
16450.015,0.533,0.356,0.729,8.7,1.53,34.06,1,2
16450.015,0.549,0.355,0.733,2.23,4.33,33.3,1,2
16450.031,0.554,0.318,0.731,-3.05,6.9,32.04,1,2
16450.046,0.571,0.278,0.73,-8.7,9.16,29.08,1,2
16450.062,0.585,0.256,0.74,-13.55,12.54,24.51,1,2
16450.062,0.58,0.229,0.756,-16.17,16.72,19.1,1,2
16450.078,0.568,0.243,0.784,-16.91,21.73,15.53,1,2
16450.078,0.553,0.262,0.824,-15.23,26.46,14.16,1,2
16450.093,0.535,0.256,0.867,-12.21,28.14,12.05,1,2
16450.109,0.509,0.225,0.886,-8.85,25.15,7.81,1,2
16450.109,0.492,0.206,0.885,-5.98,18.98,2.44,1,2
16450.125,0.488,0.206,0.888,-3.85,12.63,-2.2,1,2
16450.125,0.485,0.218,0.88,-0.31,8.67,-5.01,1,2
16450.14,0.488,0.237,0.845,4.61,8.88,-5.13,1,2
16450.156,0.499,0.267,0.823,8.51,13.64,-2.66,1,2
16450.156,0.499,0.268,0.815,10.13,19.26,-1.46,1,2
16450.171,0.496,0.256,0.814,9.16,22.89,-3.14,1,2
16450.187,0.5,0.261,0.806,7.54,26.03,-5.46,1,2
16450.187,0.484,0.268,0.797,5.46,29.05,-7.45,1,2
16450.203,0.468,0.281,0.805,2.08,30.52,-8.91,1,2
16450.218,0.462,0.284,0.825,-1.74,30.24,-9.98,1,2
16450.218,0.453,0.265,0.829,-4.79,28.66,-11.35,1,2
16450.234,0.45,0.26,0.847,-8.21,25.94,-13.03,1,2
16450.25,0.434,0.255,0.87,-9.77,22.16,-14.71,1,2
16450.25,0.39,0.271,0.939,-8.03,15.9,-15.35,1,2
16450.265,0.424,0.263,0.964,-3.57,3.57,-15.05,1,2
16450.265,0.44,0.217,0.9,-1.22,-7.93,-18.98,1,2
16450.281,0.448,0.193,0.858,-1.43,-14.74,-25.21,1,2
16450.296,0.475,0.224,0.84,-3.78,-19.1,-32.53,1,2
16450.296,0.479,0.255,0.803,-8.67,-21.24,-41.57,1,2
16450.312,0.473,0.301,0.77,-19.56,-22.49,-52.34,1,2
16450.328,0.465,0.297,0.765,-38.0,-21.85,-64.61,1,2
16450.328,0.433,0.235,0.783,-55.3,-19.87,-72.91,1,2
16450.343,0.403,0.234,0.831,-65.58,-18.19,-75.47,1,2
16450.359,0.38,0.243,0.873,-66.62,-19.47,-73.27,1,2
16450.359,0.361,0.26,0.882,-61.83,-21.67,-65.46,1,2
16450.375,0.386,0.279,0.942,-53.53,-22.34,-51.73,1,2
16450.39,0.377,0.292,0.996,-38.85,-21.24,-38.09,1,2
16450.39,0.368,0.287,0.964,-22.16,-21.91,-24.93,1,2
16450.406,0.403,0.253,0.901,-13.12,-24.57,-13.95,1,2
16450.406,0.422,0.219,0.858,-12.51,-26.64,-11.32,1,2
16450.421,0.442,0.199,0.832,-15.02,-26.89,-12.15,1,2
16450.437,0.468,0.205,0.827,-17.52,-24.29,-13.18,1,2
16450.437,0.47,0.211,0.821,-20.81,-16.17,-13.0,1,2
16450.453,0.487,0.226,0.828,-21.06,-11.78,-12.97,1,2
16450.468,0.493,0.245,0.836,-19.56,-8.27,-12.42,1,2
16450.468,0.487,0.247,0.851,-14.22,-5.55,-10.41,1,2
16450.484,0.476,0.281,0.892,-4.52,-4.06,-8.0,1,2
16450.5,0.468,0.293,0.872,4.85,-4.15,-4.94,1,2
16450.5,0.465,0.3,0.846,10.56,-4.76,-2.35,1,2
16450.515,0.456,0.314,0.856,13.92,-5.58,-0.58,1,2
16450.531,0.442,0.331,0.863,19.93,-8.51,2.84,1,2
16450.531,0.437,0.364,0.836,26.15,-13.0,7.93,1,2
16450.546,0.421,0.354,0.828,22.0,-19.59,9.74,1,2
16450.546,0.412,0.32,0.854,15.72,-27.8,11.41,1,2
16450.562,0.448,0.285,0.852,13.79,-33.88,16.3,1,2
16450.578,0.48,0.238,0.821,12.36,-35.8,18.04,1,2
16450.578,0.497,0.217,0.808,11.54,-33.3,18.28,1,2
16450.593,0.515,0.215,0.814,11.17,-29.42,17.67,1,2
16450.609,0.523,0.225,0.816,11.32,-25.36,15.96,1,2
16450.609,0.537,0.25,0.816,12.18,-21.03,14.5,1,2
16450.625,0.549,0.263,0.812,13.89,-16.48,12.63,1,2
16450.625,0.549,0.247,0.794,14.5,-11.99,10.65,1,2
16450.64,0.558,0.24,0.793,14.22,-7.54,8.61,1,2
16450.656,0.555,0.235,0.796,14.8,-2.87,6.04,1,2
16450.671,0.542,0.235,0.798,15.38,0.89,3.97,1,2
16450.671,0.533,0.247,0.812,15.75,2.5,2.08,1,2
16450.687,0.524,0.265,0.818,15.75,1.77,-0.43,1,2
16450.687,0.524,0.282,0.813,15.47,0.34,-2.2,1,2
16450.703,0.525,0.281,0.801,15.53,-0.12,-3.36,1,2
16450.718,0.527,0.279,0.783,15.08,0.67,-4.39,1,2
16450.734,0.526,0.283,0.776,13.89,3.02,-5.22,1,2
16450.734,0.525,0.298,0.778,13.06,6.87,-4.52,1,2
16450.75,0.518,0.31,0.793,12.91,11.38,-2.78,1,2
16450.75,0.51,0.305,0.8,13.06,15.2,-1.04,1,2
16450.765,0.498,0.294,0.811,12.97,17.3,-0.03,1,2
16450.781,0.479,0.275,0.826,12.6,17.03,0.24,1,2
16450.781,0.472,0.285,0.838,11.26,13.64,-0.52,1,2
16450.796,0.473,0.285,0.843,10.19,8.51,-2.11,1,2
16450.796,0.474,0.287,0.835,10.25,3.36,-3.08,1,2
16450.812,0.48,0.298,0.82,10.56,-0.52,-3.36,1,2
16450.828,0.488,0.307,0.795,9.86,-3.08,-3.69,1,2
16450.828,0.5,0.318,0.777,7.48,-3.88,-3.88,1,2
16450.843,0.507,0.328,0.767,4.33,-2.44,-3.78,1,2
16450.859,0.502,0.333,0.762,1.19,-0.34,-3.23,1,2
16450.859,0.498,0.333,0.77,-2.38,1.01,-2.5,1,2
16450.875,0.492,0.325,0.785,-6.29,0.58,-2.53,1,2
16450.89,0.487,0.311,0.793,-10.19,-1.4,-3.08,1,2
16450.89,0.492,0.311,0.796,-13.03,-3.45,-3.05,1,2
16450.906,0.494,0.308,0.806,-14.8,-4.76,-2.87,1,2
16450.906,0.496,0.296,0.812,-15.63,-5.52,-2.99,1,2
16450.921,0.494,0.292,0.813,-15.96,-5.65,-2.96,1,2
16450.937,0.499,0.296,0.822,-15.9,-5.07,-2.47,1,2
16450.937,0.5,0.28,0.828,-15.02,-4.21,-2.59,1,2
16450.953,0.493,0.259,0.832,-13.79,-3.51,-3.17,1,2
16450.968,0.491,0.255,0.843,-11.96,-2.99,-3.3,1,2
16450.968,0.491,0.264,0.851,-9.16,-2.17,-2.62,1,2
16450.984,0.487,0.261,0.856,-5.74,-1.53,-1.8,1,2
16451.0,0.481,0.248,0.86,-2.53,-1.95,-1.4,1,2
16451.0,0.48,0.246,0.859,0.37,-3.63,-0.82,1,2
16451.015,0.486,0.259,0.855,3.66,-4.79,0.15,1,2
16451.031,0.492,0.264,0.845,7.48,-4.82,1.19,1,2
16451.031,0.495,0.261,0.833,10.5,-4.36,1.59,1,2
16451.046,0.497,0.262,0.829,12.12,-4.09,1.04,1,2
16451.046,0.499,0.271,0.822,13.37,-3.97,0.46,1,2
16451.062,0.506,0.291,0.813,14.92,-3.39,0.4,1,2
16451.078,0.504,0.297,0.807,15.87,-2.08,0.34,1,2
16451.093,0.504,0.302,0.802,16.3,-0.7,0.92,1,2
16451.093,0.506,0.311,0.802,16.45,0.61,1.65,1,2
16451.109,0.506,0.31,0.799,16.6,1.59,2.32,1,2
16451.109,0.512,0.308,0.794,16.11,2.47,2.41,1,2
16451.125,0.512,0.307,0.794,15.32,3.54,1.95,1,2
16451.14,0.509,0.312,0.799,14.59,4.3,1.43,1,2
16451.14,0.507,0.314,0.8,13.89,4.33,0.79,1,2
16451.156,0.506,0.311,0.797,12.97,4.06,-0.12,1,2
16451.156,0.497,0.301,0.795,11.96,3.48,-0.98,1,2
16451.171,0.501,0.309,0.789,10.44,2.72,-1.5,1,2
16451.187,0.498,0.321,0.782,8.7,2.04,-2.08,1,2
16451.187,0.5,0.327,0.781,6.35,1.74,-2.47,1,2
16451.203,0.498,0.334,0.779,3.85,2.53,-2.35,1,2
16451.218,0.489,0.337,0.78,1.95,4.09,-1.22,1,2
16451.218,0.484,0.342,0.795,0.06,4.7,0.49,1,2
16451.234,0.475,0.337,0.809,-1.59,4.06,1.68,1,2
16451.25,0.477,0.316,0.811,-2.75,1.95,2.14,1,2
16451.25,0.482,0.309,0.806,-4.18,-1.22,1.37,1,2
16451.265,0.488,0.311,0.802,-5.62,-4.03,0.37,1,2
16451.265,0.493,0.319,0.8,-7.26,-5.98,-0.43,1,2
16451.281,0.497,0.326,0.796,-8.76,-7.23,-1.01,1,2
16451.296,0.502,0.322,0.787,-10.13,-7.51,-1.59,1,2
16451.296,0.506,0.317,0.784,-11.78,-6.81,-2.14,1,2
16451.312,0.505,0.314,0.79,-13.21,-5.34,-2.23,1,2
16451.328,0.501,0.312,0.807,-14.19,-3.94,-2.5,1,2
16451.328,0.492,0.301,0.821,-13.89,-3.11,-2.53,1,2
16451.343,0.49,0.286,0.824,-12.85,-3.11,-2.44,1,2
16451.359,0.49,0.278,0.83,-11.99,-3.78,-2.53,1,2
16451.359,0.489,0.277,0.835,-10.62,-4.76,-2.84,1,2
16451.375,0.492,0.278,0.833,-9.0,-5.37,-3.17,1,2
16451.39,0.492,0.278,0.832,-7.35,-5.92,-3.08,1,2
16451.39,0.493,0.282,0.831,-5.86,-6.29,-2.93,1,2
16451.406,0.494,0.285,0.827,-4.3,-6.71,-2.84,1,2
16451.421,0.496,0.288,0.819,-2.66,-6.65,-2.08,1,2
16451.421,0.501,0.294,0.817,0.46,-4.39,-0.31,1,2
16451.437,0.5,0.291,0.813,1.65,-3.2,0.21,1,2
16451.437,0.5,0.287,0.806,1.89,-2.35,1.01,1,2
16451.453,0.499,0.3,0.811,2.72,-1.89,1.53,1,2
16451.468,0.504,0.3,0.81,2.96,-1.71,2.17,1,2
16451.468,0.505,0.295,0.807,3.17,-1.28,2.38,1,2
16451.484,0.501,0.289,0.809,3.57,-0.73,2.47,1,2
16451.484,0.502,0.294,0.816,3.39,-0.61,2.81,1,2
16451.5,0.507,0.293,0.817,3.81,-0.76,2.87,1,2
16451.515,0.51,0.286,0.81,4.73,-0.21,2.78,1,2
16451.531,0.511,0.283,0.807,5.43,0.58,2.14,1,2
16451.531,0.509,0.287,0.808,5.92,2.14,1.59,1,2
16451.546,0.506,0.296,0.808,6.62,3.75,1.56,1,2
16451.546,0.501,0.3,0.813,7.39,4.94,1.13,1,2
16451.562,0.494,0.293,0.813,7.51,5.19,1.01,1,2
16451.578,0.493,0.306,0.814,7.75,4.58,0.61,1,2
16451.578,0.49,0.312,0.81,7.66,3.33,0.85,1,2
16451.593,0.495,0.316,0.803,7.32,1.62,0.73,1,2
16451.609,0.499,0.318,0.791,6.68,0.85,0.76,1,2
16451.609,0.503,0.323,0.783,4.94,0.7,1.04,1,2
16451.625,0.502,0.325,0.781,3.23,0.76,1.04,1,2
16451.64,0.504,0.326,0.784,1.22,0.73,0.98,1,2
16451.64,0.508,0.328,0.786,-0.82,0.73,1.1,1,2
16451.656,0.506,0.325,0.789,-2.81,0.98,1.16,1,2
16451.656,0.504,0.315,0.79,-4.39,1.19,0.92,1,2
16451.671,0.505,0.311,0.795,-5.46,1.34,0.64,1,2
16451.687,0.502,0.308,0.802,-6.84,1.37,0.27,1,2
16451.687,0.491,0.295,0.809,-7.84,0.95,-0.4,1,2
16451.703,0.486,0.301,0.815,-9.09,-0.03,-0.27,1,2
16451.718,0.486,0.304,0.817,-9.64,-1.16,-0.12,1,2
16451.718,0.489,0.293,0.819,-9.61,-1.98,-0.27,1,2
16451.734,0.493,0.291,0.815,-10.53,-2.11,-0.31,1,2
16451.75,0.498,0.285,0.815,-10.44,-1.4,-0.34,1,2
16451.75,0.499,0.278,0.823,-9.74,0.06,-0.12,1,2
16451.765,0.503,0.276,0.825,-8.48,1.25,-0.49,1,2
16451.781,0.502,0.273,0.825,-6.87,1.8,-1.19,1,2
16451.781,0.496,0.275,0.829,-5.71,2.14,-1.77,1,2
16451.796,0.496,0.279,0.829,-4.64,1.92,-2.41,1,2
16451.796,0.493,0.283,0.827,-3.14,1.65,-2.72,1,2
16451.812,0.495,0.288,0.827,-1.74,1.46,-2.93,1,2
16451.828,0.499,0.292,0.823,0.06,1.95,-2.53,1,2
16451.828,0.499,0.291,0.817,1.37,3.11,-2.08,1,2
16451.843,0.495,0.291,0.812,2.44,4.49,-1.53,1,2
16451.859,0.49,0.291,0.809,3.17,5.4,-0.98,1,2
16451.859,0.493,0.296,0.808,3.11,6.62,-0.52,1,2
16451.875,0.494,0.299,0.81,3.11,8.39,-0.15,1,2
16451.89,0.488,0.297,0.814,3.3,10.56,0.37,1,2
16451.89,0.483,0.289,0.823,3.42,12.05,1.04,1,2
16451.906,0.478,0.297,0.819,3.88,13.28,1.71,1,2
16451.921,0.475,0.301,0.819,4.61,14.53,2.84,1,2
16451.921,0.469,0.296,0.822,4.7,15.23,3.78,1,2
16451.937,0.471,0.294,0.823,4.09,15.44,4.49,1,2
16451.937,0.46,0.287,0.824,3.57,15.84,4.94,1,2
16451.953,0.472,0.289,0.828,3.54,15.9,5.77,1,2
16451.968,0.466,0.301,0.827,3.94,16.11,5.98,1,2
16451.968,0.465,0.304,0.824,3.91,15.93,6.29,1,2
16451.984,0.472,0.313,0.815,3.17,15.53,6.47,1,2
16452.0,0.47,0.315,0.814,1.56,15.47,6.13,1,2
16452.0,0.462,0.306,0.815,-0.31,15.47,6.2,1,2
16452.015,0.455,0.319,0.82,-1.8,14.44,6.9,1,2
16452.031,0.454,0.307,0.84,-2.99,12.67,7.6,1,2
16452.031,0.462,0.287,0.843,-4.06,10.13,7.29,1,2
16452.046,0.463,0.28,0.846,-4.03,8.33,6.71,1,2
16452.046,0.464,0.266,0.855,-2.9,6.5,5.62,1,2
16452.062,0.468,0.267,0.85,-1.92,4.39,3.88,1,2
16452.078,0.463,0.276,0.846,-1.65,2.41,1.92,1,2
16452.078,0.461,0.283,0.843,-1.37,0.49,0.21,1,2
16452.093,0.46,0.296,0.834,-1.19,-0.67,-1.07,1,2
16452.109,0.458,0.302,0.828,-1.83,-0.79,-1.28,1,2
16452.125,0.458,0.298,0.828,-2.9,-0.58,-1.22,1,2
16452.125,0.455,0.29,0.835,-4.0,-0.46,-1.07,1,2
16452.125,0.45,0.285,0.841,-4.91,-1.07,-1.04,1,2
16452.14,0.452,0.278,0.845,-5.07,-1.68,-1.1,1,2
16452.156,0.457,0.274,0.85,-4.88,-1.68,-1.37,1,2
16452.156,0.457,0.271,0.853,-3.85,-1.16,-1.56,1,2
16452.171,0.459,0.268,0.855,-2.32,-0.15,-1.62,1,2
16452.187,0.456,0.268,0.853,-0.73,0.7,-2.04,1,2
16452.187,0.453,0.267,0.853,0.95,1.46,-2.08,1,2
16452.203,0.453,0.271,0.855,2.84,2.32,-1.74,1,2
16452.218,0.449,0.271,0.852,4.36,2.93,-1.4,1,2
16452.218,0.449,0.275,0.85,5.71,3.91,-0.58,1,2
16452.234,0.451,0.276,0.853,7.87,5.8,0.82,1,2
16452.25,0.458,0.265,0.863,10.56,8.3,2.44,1,2
16452.25,0.467,0.256,0.868,14.44,11.32,3.78,1,2
16452.265,0.469,0.257,0.867,19.35,14.1,4.06,1,2
16452.265,0.462,0.263,0.866,24.05,16.05,3.11,1,2
16452.281,0.457,0.275,0.865,27.92,17.0,1.68,1,2
16452.296,0.451,0.287,0.855,30.95,17.52,0.46,1,2
16452.312,0.448,0.3,0.84,32.9,18.19,-0.49,1,2
16452.312,0.441,0.314,0.832,33.72,18.86,-1.25,1,2
16452.328,0.428,0.331,0.827,32.99,18.77,-2.2,1,2
16452.328,0.412,0.332,0.826,30.79,17.24,-2.93,1,2
16452.343,0.403,0.354,0.823,27.31,14.77,-3.57,1,2
16452.359,0.397,0.377,0.811,22.4,11.23,-3.69,1,2
16452.359,0.4,0.366,0.803,17.85,8.45,-2.2,1,2
16452.375,0.421,0.37,0.802,14.28,7.42,-0.89,1,2
16452.39,0.403,0.356,0.808,10.41,7.78,0.06,1,2
16452.39,0.417,0.356,0.816,6.78,6.07,0.89,1,2
16452.406,0.43,0.367,0.819,3.91,4.24,0.24,1,2
16452.421,0.42,0.361,0.823,1.25,2.32,0.12,1,2
16452.421,0.432,0.356,0.824,0.4,1.77,-0.4,1,2
16452.437,0.427,0.351,0.824,-0.7,1.13,-0.82,1,2
16452.437,0.421,0.352,0.823,-1.8,0.31,-0.85,1,2
16452.453,0.413,0.358,0.823,-2.81,-0.27,-0.76,1,2
16452.468,0.412,0.356,0.823,-4.52,-1.19,-0.4,1,2
16452.468,0.397,0.347,0.823,-6.65,-2.38,-0.09,1,2
16452.484,0.403,0.348,0.829,-9.09,-3.88,0.89,1,2
16452.5,0.404,0.348,0.832,-11.02,-5.16,1.4,1,2
16452.5,0.398,0.332,0.835,-12.48,-6.2,2.14,1,2
16452.515,0.405,0.336,0.841,-14.34,-7.57,2.47,1,2
16452.531,0.396,0.335,0.849,-15.72,-8.7,2.41,1,2
16452.531,0.39,0.338,0.852,-16.24,-10.25,3.17,1,2
16452.546,0.375,0.348,0.864,-16.48,-13.06,5.28,1,2
16452.546,0.362,0.345,0.876,-16.36,-17.52,8.88,1,2
16452.562,0.363,0.343,0.885,-16.42,-24.51,12.73,1,2
16452.578,0.365,0.342,0.898,-16.3,-33.36,15.17,1,2
16452.593,0.375,0.338,0.926,-14.44,-43.61,17.76,1,2
16452.593,0.408,0.276,0.895,-13.03,-55.06,18.8,1,2
16452.609,0.468,0.25,0.838,-11.6,-60.91,18.04,1,2
16452.609,0.545,0.252,0.81,-8.21,-56.79,16.63,1,2
16452.625,0.569,0.231,0.79,-3.48,-46.14,12.67,1,2
16452.64,0.577,0.235,0.782,0.4,-34.15,8.33,1,2
16452.64,0.574,0.259,0.783,2.81,-23.47,3.78,1,2
16452.656,0.558,0.28,0.788,4.39,-14.68,-0.4,1,2
16452.656,0.551,0.291,0.794,5.22,-8.06,-3.51,1,2
16452.671,0.525,0.285,0.802,5.68,-3.39,-6.1,1,2
16452.687,0.501,0.277,0.805,6.01,-0.49,-7.66,1,2
16452.703,0.491,0.279,0.811,6.78,1.31,-7.57,1,2
16452.703,0.484,0.296,0.815,7.66,2.87,-6.84,1,2
16452.718,0.484,0.313,0.82,8.7,4.58,-5.58,1,2
16452.718,0.49,0.325,0.821,10.25,6.62,-4.21,1,2
16452.734,0.489,0.33,0.816,12.3,9.61,-2.72,1,2
16452.75,0.485,0.32,0.816,14.47,12.36,-1.22,1,2
16452.75,0.478,0.311,0.816,16.11,13.7,-0.27,1,2
16452.765,0.478,0.312,0.815,16.66,13.58,-0.27,1,2
16452.781,0.478,0.321,0.811,16.79,12.97,-0.95,1,2
16452.781,0.474,0.327,0.81,16.69,12.18,-1.28,1,2
16452.796,0.465,0.333,0.809,16.14,11.51,-1.68,1,2
16452.812,0.459,0.336,0.815,15.41,10.86,-1.37,1,2
16452.812,0.449,0.336,0.82,14.5,9.4,-0.92,1,2
16452.828,0.446,0.332,0.818,12.73,6.29,-0.89,1,2
16452.828,0.452,0.334,0.814,10.93,2.81,-0.92,1,2
16452.843,0.454,0.337,0.809,8.88,0.09,-1.25,1,2
16452.859,0.457,0.341,0.802,6.99,-1.89,-1.43,1,2
16452.875,0.458,0.351,0.798,5.25,-3.2,-1.28,1,2
16452.875,0.465,0.354,0.793,2.99,-4.3,-0.92,1,2
16452.89,0.471,0.355,0.788,0.89,-5.04,-0.64,1,2
16452.89,0.473,0.357,0.784,-1.04,-5.58,-0.67,1,2
16452.906,0.475,0.358,0.788,-3.05,-5.98,-0.73,1,2
16452.921,0.48,0.358,0.793,-4.7,-6.26,-0.95,1,2
16452.921,0.477,0.346,0.795,-6.07,-6.29,-1.65,1,2
16452.937,0.48,0.34,0.801,-7.66,-6.38,-2.56,1,2
16452.953,0.486,0.34,0.808,-8.82,-5.86,-3.94,1,2
16452.953,0.482,0.328,0.816,-8.55,-4.91,-5.4,1,2
16452.968,0.483,0.316,0.821,-7.87,-4.09,-6.78,1,2
16452.968,0.484,0.308,0.824,-6.87,-3.23,-8.39,1,2
16452.984,0.484,0.3,0.832,-5.71,-2.26,-9.98,1,2
16453.0,0.483,0.302,0.841,-3.45,-0.89,-11.26,1,2
16453.0,0.476,0.299,0.847,-0.34,0.7,-12.45,1,2
16453.015,0.471,0.295,0.85,2.99,1.46,-13.37,1,2
16453.031,0.47,0.293,0.852,6.78,1.53,-13.98,1,2
16453.031,0.468,0.303,0.849,10.9,1.46,-14.5,1,2
16453.046,0.466,0.32,0.845,14.68,1.43,-14.53,1,2
16453.062,0.467,0.335,0.841,18.1,1.53,-14.44,1,2
16453.062,0.467,0.343,0.838,21.76,1.89,-14.34,1,2
16453.078,0.467,0.348,0.829,25.79,2.9,-13.49,1,2
16453.078,0.471,0.354,0.824,29.54,4.67,-12.33,1,2
16453.093,0.482,0.348,0.822,32.53,6.78,-12.21,1,2
16453.109,0.491,0.342,0.819,35.55,9.67,-13.28,1,2
16453.109,0.494,0.339,0.817,38.97,13.18,-15.5,1,2
16453.125,0.494,0.339,0.819,42.09,16.66,-19.01,1,2
16453.14,0.493,0.339,0.814,44.68,19.81,-23.07,1,2
16453.14,0.496,0.34,0.817,47.64,23.41,-27.01,1,2
16453.156,0.491,0.341,0.816,50.81,26.89,-32.32,1,2
16453.156,0.488,0.341,0.816,54.26,29.45,-38.27,1,2
16453.171,0.484,0.355,0.811,57.5,31.34,-44.53,1,2
16453.187,0.463,0.38,0.807,59.27,33.02,-50.33,1,2
16453.187,0.43,0.392,0.809,59.97,34.03,-54.23,1,2
16453.203,0.422,0.422,0.811,60.46,34.06,-55.33,1,2
16453.218,0.408,0.452,0.806,59.79,33.3,-54.63,1,2
16453.234,0.385,0.481,0.798,55.12,30.58,-52.16,1,2
16453.234,0.396,0.511,0.806,43.95,24.81,-45.9,1,2
16453.25,0.38,0.481,0.797,31.92,17.85,-39.77,1,2
16453.25,0.381,0.408,0.78,23.47,12.3,-37.93,1,2
16453.265,0.395,0.397,0.779,20.42,10.47,-44.56,1,2
16453.265,0.441,0.493,0.764,23.59,10.62,-52.95,1,2
16453.281,0.446,0.59,0.733,25.76,12.6,-57.25,1,2
16453.296,0.391,0.582,0.75,15.99,13.89,-54.45,1,2
16453.312,0.408,0.551,0.734,10.01,15.17,-52.61,1,2
16453.312,0.404,0.563,0.729,4.88,17.79,-46.3,1,2
16453.328,0.386,0.594,0.723,0.95,20.02,-40.59,1,2
16453.328,0.323,0.516,0.746,-3.75,19.2,-33.81,1,2
16453.343,0.332,0.508,0.767,0.24,21.58,-37.63,1,2
16453.359,0.374,0.635,0.785,2.14,20.02,-35.16,1,2
16453.359,0.28,0.59,0.774,4.03,16.94,-35.86,1,2
16453.375,0.303,0.544,0.769,6.59,13.09,-33.54,1,2
16453.39,0.26,0.505,0.744,14.89,11.23,-36.47,1,2
16453.39,0.356,0.606,0.72,14.8,6.44,-27.28,1,2
16453.406,0.233,0.662,0.72,12.6,3.17,-22.31,1,2
16453.421,0.236,0.547,0.703,11.38,1.5,-14.56,1,2
16453.421,0.266,0.5,0.715,14.31,1.86,-13.64,1,2
16453.437,0.268,0.566,0.682,14.28,4.39,-16.54,1,2
16453.437,0.25,0.586,0.703,6.38,8.61,-19.62,1,2
16453.453,0.226,0.593,0.727,-4.46,11.93,-22.46,1,2
16453.468,0.205,0.595,0.746,-14.04,13.37,-24.72,1,2
16453.468,0.186,0.583,0.754,-22.49,12.42,-27.59,1,2
16453.484,0.182,0.574,0.779,-30.85,9.67,-30.27,1,2
16453.5,0.165,0.571,0.798,-37.32,4.85,-34.79,1,2
16453.5,0.139,0.542,0.822,-40.44,-2.99,-39.16,1,2
16453.515,0.13,0.54,0.852,-40.83,-12.51,-42.21,1,2
16453.531,0.115,0.54,0.871,-39.12,-23.99,-46.36,1,2
16453.531,0.125,0.539,0.881,-37.35,-37.32,-50.48,1,2
16453.546,0.113,0.539,0.877,-36.26,-51.0,-53.07,1,2
16453.546,0.115,0.542,0.848,-33.05,-62.47,-53.1,1,2
16453.562,0.123,0.555,0.81,-30.24,-70.01,-48.77,1,2
16453.578,0.145,0.568,0.778,-30.46,-72.7,-43.43,1,2
16453.578,0.175,0.571,0.745,-32.99,-69.98,-40.07,1,2
16453.593,0.212,0.571,0.708,-37.26,-63.42,-37.35,1,2
16453.609,0.236,0.556,0.7,-43.86,-54.26,-33.81,1,2
16453.625,0.234,0.525,0.702,-48.83,-44.83,-29.94,1,2
16453.625,0.263,0.482,0.714,-47.82,-35.68,-27.8,1,2
16453.64,0.264,0.46,0.732,-42.21,-27.38,-28.99,1,2
16453.64,0.265,0.455,0.742,-33.69,-19.99,-31.68,1,2
16453.656,0.267,0.45,0.751,-24.72,-13.52,-34.21,1,2
16453.671,0.261,0.444,0.756,-15.26,-7.54,-36.41,1,2
16453.671,0.257,0.457,0.757,-7.57,-1.8,-38.51,1,2
16453.687,0.252,0.483,0.757,-3.51,3.69,-40.5,1,2
16453.687,0.245,0.511,0.759,-2.66,10.07,-41.57,1,2
16453.703,0.24,0.54,0.762,-4.15,17.09,-42.12,1,2
16453.718,0.233,0.551,0.773,-6.13,23.71,-41.47,1,2
16453.718,0.221,0.56,0.793,-6.41,30.09,-39.8,1,2
16453.734,0.197,0.563,0.82,-5.19,34.88,-38.06,1,2
16453.75,0.173,0.556,0.846,-2.11,36.62,-35.86,1,2
16453.75,0.157,0.567,0.871,1.43,35.65,-33.27,1,2
16453.765,0.147,0.578,0.878,4.0,32.59,-29.6,1,2
16453.765,0.144,0.585,0.877,4.36,27.83,-25.42,1,2
16453.781,0.141,0.583,0.88,2.56,23.35,-21.55,1,2
16453.796,0.123,0.614,0.883,-1.92,17.98,-16.82,1,2
16453.812,0.144,0.625,0.875,-6.62,12.05,-9.86,1,2
16453.812,0.149,0.573,0.858,-10.04,7.66,-3.69,1,2
16453.828,0.148,0.54,0.842,-13.98,3.54,1.43,1,2
16453.828,0.163,0.515,0.825,-15.59,1.4,4.09,1,2
16453.843,0.162,0.483,0.819,-16.14,1.04,4.52,1,2
16453.859,0.169,0.467,0.824,-16.11,1.95,3.02,1,2
16453.875,0.168,0.469,0.837,-15.59,2.62,0.52,1,2
16453.875,0.161,0.473,0.853,-13.86,2.62,-1.8,1,2
16453.89,0.159,0.481,0.859,-11.72,1.59,-3.66,1,2
16453.89,0.161,0.493,0.861,-9.92,-0.15,-4.76,1,2
16453.906,0.149,0.494,0.859,-8.51,-2.2,-4.61,1,2
16453.921,0.162,0.508,0.857,-6.71,-4.0,-4.18,1,2
16453.921,0.162,0.517,0.852,-4.49,-4.46,-3.69,1,2
16453.937,0.155,0.517,0.842,-2.93,-4.27,-2.41,1,2
16453.937,0.162,0.527,0.842,-2.35,-3.42,-1.04,1,2
16453.953,0.157,0.532,0.845,-2.01,-2.11,0.0,1,2
16453.968,0.154,0.521,0.843,-3.02,-1.19,0.67,1,2
16453.968,0.15,0.512,0.834,-4.46,-0.64,1.19,1,2
16453.984,0.175,0.511,0.806,-5.46,0.52,2.41,1,2
16454.0,0.209,0.438,0.776,-2.23,6.26,2.78,1,2
16454.0,0.079,0.507,0.834,-4.64,9.95,1.1,1,2
16454.015,0.132,0.574,0.893,-16.33,4.7,1.5,1,2
16454.031,0.117,0.49,0.864,-12.97,0.55,2.66,1,2
16454.031,0.119,0.494,0.86,-12.63,-2.87,5.25,1,2
16454.046,0.153,0.495,0.864,-11.63,-5.1,7.57,1,2
16454.062,0.141,0.477,0.868,-8.24,-6.29,7.63,1,2
16454.062,0.15,0.478,0.888,-6.23,-9.43,7.42,1,2
16454.078,0.157,0.469,0.887,-1.83,-13.61,6.99,1,2
16454.093,0.16,0.468,0.885,1.83,-16.72,6.78,1,2
16454.093,0.178,0.478,0.886,2.08,-18.98,6.53,1,2
16454.109,0.174,0.463,0.884,3.08,-19.65,6.29,1,2
16454.109,0.163,0.501,0.872,3.3,-20.42,6.9,1,2
16454.125,0.258,0.451,0.809,8.15,-18.95,8.85,1,2
16454.14,0.216,0.399,0.779,15.56,-12.05,7.72,1,2
16454.14,0.217,0.479,0.825,9.37,-7.87,6.01,1,2
16454.156,0.227,0.486,0.83,7.81,-6.56,3.66,1,2
16454.156,0.209,0.478,0.813,8.0,-4.82,2.23,1,2
16454.171,0.216,0.501,0.827,4.52,-3.88,2.32,1,2
16454.187,0.216,0.516,0.834,2.84,-3.66,1.65,1,2
16454.203,0.2,0.512,0.837,1.68,-3.6,1.74,1,2
16454.203,0.2,0.511,0.841,-0.12,-4.21,2.53,1,2
16454.218,0.196,0.503,0.839,-1.59,-4.73,2.9,1,2
16454.218,0.195,0.489,0.836,-2.59,-4.91,2.93,1,2
16454.234,0.197,0.473,0.837,-3.11,-4.73,2.69,1,2
16454.25,0.2,0.463,0.841,-2.47,-4.09,2.5,1,2
16454.25,0.203,0.461,0.84,-0.76,-2.9,2.5,1,2
16454.265,0.205,0.465,0.839,1.37,-1.71,2.35,1,2
16454.265,0.206,0.476,0.839,3.51,-0.7,1.92,1,2
16454.281,0.205,0.484,0.837,5.49,0.09,1.59,1,2
16454.296,0.204,0.488,0.833,6.74,0.67,1.16,1,2
16454.296,0.206,0.494,0.833,6.99,0.95,0.64,1,2
16454.312,0.203,0.501,0.833,6.87,0.92,0.27,1,2
16454.328,0.199,0.504,0.83,6.47,1.01,0.24,1,2
16454.328,0.195,0.512,0.832,5.19,0.82,0.18,1,2
16454.343,0.196,0.522,0.835,2.96,-0.24,0.4,1,2
16454.359,0.198,0.521,0.829,0.7,-1.59,0.76,1,2
16454.359,0.196,0.52,0.831,-1.65,-2.29,1.65,1,2
16454.375,0.202,0.516,0.831,-3.48,-3.42,2.32,1,2
16454.39,0.207,0.509,0.831,-7.14,-4.55,2.2,1,2
16454.39,0.212,0.494,0.823,-8.15,-4.27,1.59,1,2
16454.406,0.216,0.48,0.822,-8.48,-3.57,0.85,1,2
16454.406,0.217,0.469,0.828,-7.54,-2.17,0.15,1,2
16454.421,0.218,0.465,0.832,-6.41,-0.34,-0.64,1,2
16454.437,0.216,0.467,0.839,-4.85,1.34,-1.28,1,2
16454.437,0.211,0.468,0.845,-2.84,2.5,-1.62,1,2
16454.453,0.205,0.473,0.847,-1.46,3.14,-2.26,1,2
16454.468,0.198,0.48,0.851,-0.64,3.2,-2.72,1,2
16454.468,0.195,0.488,0.853,-0.24,2.53,-2.93,1,2
16454.484,0.192,0.49,0.85,-0.03,1.68,-2.84,1,2
16454.5,0.191,0.49,0.847,0.06,1.13,-2.41,1,2
16454.5,0.188,0.489,0.842,-0.12,0.89,-1.8,1,2
16454.515,0.193,0.488,0.84,-0.27,0.67,-1.1,1,2
16454.531,0.193,0.493,0.84,-1.04,0.58,-0.52,1,2
16454.531,0.196,0.488,0.841,-1.34,0.4,0.06,1,2
16454.546,0.197,0.489,0.842,-1.71,0.43,0.61,1,2
16454.546,0.2,0.49,0.843,-1.89,0.55,0.85,1,2
16454.562,0.203,0.482,0.846,-1.19,0.79,1.07,1,2
16454.578,0.202,0.482,0.853,-0.76,1.01,0.76,1,2
16454.578,0.198,0.476,0.858,0.43,0.82,0.15,1,2
16454.593,0.194,0.478,0.858,1.22,0.24,-0.46,1,2
16454.609,0.199,0.478,0.839,1.83,-0.03,-0.79,1,2
16454.609,0.2,0.479,0.822,0.89,0.76,-0.95,1,2
16454.625,0.203,0.494,0.818,-1.68,2.75,-0.52,1,2
16454.64,0.2,0.496,0.807,-2.81,5.4,0.03,1,2
16454.64,0.198,0.498,0.807,-3.75,8.0,0.0,1,2
16454.656,0.231,0.49,0.772,-5.04,10.86,0.15,1,2
16454.656,0.193,0.429,0.817,-2.75,16.36,-1.62,1,2
16454.671,0.114,0.59,0.925,-18.49,10.22,-3.63,1,2
16454.687,0.18,0.534,0.905,-18.89,1.95,-1.22,1,2
16454.687,0.162,0.481,0.862,-12.42,-2.17,0.27,1,2
16454.703,0.176,0.5,0.861,-12.21,-5.07,3.27,1,2
16454.718,0.194,0.487,0.853,-8.73,-4.94,5.8,1,2
16454.718,0.184,0.459,0.854,-5.01,-3.51,6.9,1,2
16454.734,0.187,0.44,0.862,-2.38,-3.63,6.99,1,2
16454.75,0.19,0.437,0.881,0.06,-4.52,6.5,1,2
16454.75,0.193,0.439,0.885,2.56,-5.4,5.46,1,2
16454.765,0.189,0.447,0.872,3.2,-6.87,4.09,1,2
16454.781,0.193,0.451,0.858,3.63,-7.75,3.85,1,2
16454.781,0.193,0.459,0.855,4.43,-7.57,4.09,1,2
16454.796,0.166,0.484,0.875,2.87,-8.33,4.27,1,2
16454.796,0.227,0.52,0.848,-0.76,-11.32,4.94,1,2
16454.812,0.231,0.405,0.787,9.09,-7.14,6.53,1,2
16454.828,0.203,0.477,0.815,5.77,-2.01,5.83,1,2
16454.828,0.224,0.499,0.839,3.54,0.18,5.55,1,2
16454.843,0.203,0.478,0.845,3.08,0.73,4.88,1,2
16454.859,0.188,0.49,0.862,-0.67,-0.98,5.28,1,2
16454.859,0.199,0.497,0.839,1.28,-1.8,6.71,1,2
16454.875,0.207,0.48,0.852,-1.34,-2.38,6.44,1,2
16454.89,0.207,0.466,0.853,-3.6,-3.54,4.94,1,2
16454.89,0.201,0.463,0.851,-2.23,-4.3,4.21,1,2
16454.906,0.208,0.469,0.852,-1.83,-5.04,3.78,1,2
16454.906,0.207,0.473,0.849,-1.43,-5.28,3.17,1,2
16454.921,0.212,0.47,0.844,-0.58,-5.04,3.02,1,2
16454.937,0.212,0.47,0.842,0.09,-4.3,3.05,1,2
16454.937,0.214,0.475,0.843,0.12,-3.88,3.11,1,2
16454.953,0.214,0.475,0.843,-0.95,-3.91,3.23,1,2
16454.968,0.218,0.475,0.841,-2.14,-4.15,3.08,1,2
16454.968,0.216,0.471,0.836,-2.44,-3.45,2.93,1,2
16454.984,0.226,0.473,0.833,-1.83,-2.11,3.3,1,2
16455.0,0.226,0.475,0.835,-2.66,-0.85,3.48,1,2
16455.0,0.225,0.469,0.837,-3.23,-0.09,4.06,1,2
16455.015,0.224,0.465,0.843,-3.69,0.37,4.3,1,2
16455.015,0.226,0.462,0.845,-4.3,0.76,4.0,1,2
16455.031,0.224,0.458,0.851,-5.01,0.64,3.2,1,2
16455.046,0.223,0.452,0.856,-5.04,0.52,1.83,1,2
16455.046,0.221,0.448,0.857,-4.24,0.43,0.49,1,2
16455.062,0.217,0.447,0.852,-2.41,0.92,-0.24,1,2
16455.078,0.213,0.453,0.852,0.06,1.92,-0.21,1,2
16455.078,0.21,0.459,0.849,2.62,3.27,0.34,1,2
16455.093,0.207,0.468,0.849,4.82,4.33,1.16,1,2
16455.109,0.201,0.467,0.846,5.83,5.01,1.95,1,2
16455.109,0.203,0.473,0.843,6.78,5.46,2.5,1,2
16455.125,0.201,0.481,0.844,5.1,5.43,2.44,1,2
16455.14,0.197,0.479,0.854,2.93,4.88,2.11,1,2
16455.14,0.194,0.48,0.86,1.01,3.48,1.68,1,2
16455.156,0.196,0.48,0.863,-0.67,0.92,1.77,1,2
16455.156,0.2,0.479,0.866,-1.89,-1.31,2.17,1,2
16455.171,0.208,0.48,0.862,-2.2,-2.96,2.5,1,2
16455.187,0.21,0.473,0.856,-2.2,-4.3,3.08,1,2
16455.187,0.216,0.47,0.847,-1.71,-4.46,3.39,1,2
16455.203,0.225,0.467,0.842,-1.53,-4.21,3.78,1,2
16455.218,0.229,0.457,0.832,-1.56,-3.23,3.39,1,2
16455.234,0.226,0.454,0.833,-3.11,-2.72,3.02,1,2
16455.234,0.23,0.448,0.835,-4.09,-1.56,2.14,1,2
16455.25,0.23,0.443,0.838,-4.06,-0.43,0.64,1,2
16455.25,0.224,0.446,0.846,-4.36,0.49,-0.76,1,2
16455.265,0.219,0.452,0.854,-3.78,1.34,-1.92,1,2
16455.281,0.213,0.453,0.861,-2.59,1.62,-2.5,1,2
16455.281,0.205,0.458,0.863,-1.07,1.59,-2.69,1,2
16455.296,0.2,0.464,0.868,0.24,1.46,-2.59,1,2
16455.312,0.196,0.467,0.869,1.25,0.73,-2.01,1,2
16455.312,0.194,0.472,0.868,2.04,-0.49,-1.19,1,2
16455.328,0.195,0.474,0.864,2.59,-1.59,-0.31,1,2
16455.328,0.197,0.476,0.861,2.78,-2.69,0.58,1,2
16455.343,0.203,0.477,0.856,2.53,-3.88,1.62,1,2
16455.359,0.211,0.476,0.849,1.71,-4.55,2.26,1,2
16455.359,0.216,0.474,0.845,0.31,-5.01,2.75,1,2
16455.375,0.221,0.465,0.838,-0.49,-4.43,2.66,1,2
16455.39,0.227,0.462,0.839,-1.01,-3.48,2.01,1,2
16455.39,0.226,0.451,0.84,-1.22,-2.53,1.13,1,2
16455.406,0.227,0.452,0.838,-1.4,-1.62,0.15,1,2
16455.406,0.225,0.45,0.844,-0.92,-0.55,-0.92,1,2
16455.421,0.22,0.455,0.847,-0.67,0.34,-1.89,1,2
16455.437,0.214,0.457,0.848,-0.06,1.1,-2.59,1,2
16455.437,0.209,0.46,0.847,0.61,1.59,-2.81,1,2
16455.453,0.207,0.466,0.85,1.4,1.89,-2.47,1,2
16455.468,0.205,0.469,0.85,1.92,2.38,-1.77,1,2
16455.468,0.205,0.476,0.852,2.38,2.78,-0.73,1,2
16455.484,0.206,0.473,0.852,3.45,3.39,0.43,1,2
16455.5,0.21,0.467,0.854,4.36,3.78,1.83,1,2
16455.5,0.213,0.464,0.854,4.64,3.88,2.32,1,2
16455.515,0.214,0.465,0.85,4.3,3.94,2.11,1,2
16455.531,0.213,0.461,0.85,3.75,3.91,1.65,1,2
16455.531,0.217,0.46,0.844,3.85,3.63,0.82,1,2
16455.546,0.223,0.465,0.842,3.6,3.48,0.37,1,2
16455.546,0.223,0.464,0.85,1.19,3.57,-1.01,1,2
16455.562,0.22,0.462,0.851,0.4,3.3,-2.23,1,2
16455.578,0.218,0.455,0.845,0.58,3.02,-3.05,1,2
16455.578,0.212,0.46,0.843,-0.73,3.2,-4.12,1,2
16455.593,0.208,0.458,0.842,-0.85,3.81,-5.22,1,2
16455.609,0.197,0.468,0.847,-0.49,4.7,-5.34,1,2
16455.609,0.194,0.475,0.852,0.0,5.28,-4.97,1,2
16455.625,0.181,0.483,0.859,0.61,5.28,-4.55,1,2
16455.64,0.178,0.489,0.863,0.73,4.3,-3.91,1,2
16455.64,0.18,0.491,0.859,0.67,2.84,-3.23,1,2
16455.656,0.182,0.491,0.853,0.58,1.46,-2.23,1,2
16455.656,0.189,0.492,0.848,0.09,0.46,-1.13,1,2
16455.671,0.194,0.488,0.844,-0.92,-0.12,-0.4,1,2
16455.687,0.198,0.481,0.845,-2.01,-0.34,0.34,1,2
16455.687,0.202,0.478,0.848,-3.33,-0.55,0.7,1,2
16455.703,0.206,0.473,0.851,-4.33,-0.85,0.85,1,2
16455.718,0.207,0.469,0.85,-4.64,-1.04,1.04,1,2
16455.718,0.208,0.465,0.85,-4.67,-0.79,1.16,1,2
16455.734,0.208,0.459,0.848,-4.49,-0.06,1.1,1,2
16455.75,0.206,0.455,0.848,-4.33,1.01,0.76,1,2
16455.75,0.2,0.449,0.85,-4.09,1.86,0.24,1,2
16455.765,0.196,0.45,0.858,-3.85,2.59,-0.61,1,2
16455.765,0.189,0.454,0.862,-3.02,2.84,-1.1,1,2
16455.781,0.183,0.456,0.864,-1.95,2.84,-1.34,1,2
16455.796,0.178,0.459,0.866,-0.7,2.44,-1.37,1,2
16455.796,0.175,0.464,0.869,0.34,1.43,-1.19,1,2
16455.812,0.175,0.471,0.871,1.04,0.43,-0.98,1,2
16455.828,0.178,0.476,0.866,1.74,-0.58,-0.34,1,2
16455.828,0.179,0.475,0.863,2.17,-1.5,0.67,1,2
16455.843,0.181,0.481,0.866,2.41,-2.5,1.68,1,2
16455.859,0.189,0.48,0.861,2.38,-3.69,2.41,1,2
16455.859,0.2,0.47,0.85,1.83,-4.52,2.93,1,2
16455.875,0.21,0.464,0.845,0.92,-4.64,3.05,1,2
16455.89,0.214,0.466,0.843,0.09,-4.0,2.75,1,2
16455.89,0.216,0.463,0.847,-0.52,-3.05,2.47,1,2
16455.906,0.214,0.458,0.838,-0.37,-1.83,1.86,1,2
16455.906,0.212,0.46,0.84,-0.92,-1.07,1.68,1,2
16455.921,0.208,0.464,0.853,-2.08,-0.24,1.01,1,2
16455.937,0.204,0.467,0.86,-2.84,-0.37,0.61,1,2
16455.937,0.198,0.459,0.86,-3.42,-0.92,0.06,1,2
16455.953,0.198,0.455,0.857,-2.56,-1.19,-0.31,1,2
16455.968,0.194,0.452,0.854,-1.37,-1.01,-0.76,1,2
16455.984,0.189,0.453,0.856,-0.46,-0.4,-0.7,1,2
16455.984,0.185,0.458,0.862,0.37,-0.09,-0.67,1,2
16455.984,0.183,0.461,0.864,1.22,-0.37,-0.58,1,2
16456.0,0.185,0.467,0.86,1.95,-1.01,-0.31,1,2
16456.015,0.189,0.469,0.854,2.44,-1.62,0.03,1,2
16456.031,0.193,0.475,0.852,2.08,-1.74,0.46,1,2
16456.031,0.194,0.473,0.847,1.37,-1.8,0.79,1,2
16456.046,0.197,0.474,0.85,0.49,-1.86,1.25,1,2
16456.062,0.202,0.472,0.851,-0.34,-2.26,1.43,1,2
16456.062,0.205,0.465,0.85,-0.95,-2.26,1.31,1,2
16456.078,0.205,0.461,0.854,-1.62,-2.2,1.1,1,2
16456.078,0.209,0.46,0.856,-1.62,-2.35,0.76,1,2
16456.093,0.212,0.458,0.855,-1.28,-2.23,0.37,1,2
16456.109,0.213,0.457,0.855,-0.79,-1.98,0.24,1,2
16456.109,0.212,0.457,0.853,-0.31,-1.59,-0.06,1,2
16456.125,0.213,0.458,0.853,0.34,-1.1,-0.21,1,2
16456.125,0.211,0.461,0.85,0.98,-0.7,-0.55,1,2
16456.14,0.207,0.464,0.848,1.43,-0.27,-0.98,1,2
16456.156,0.202,0.467,0.846,1.56,0.18,-1.1,1,2
16456.156,0.199,0.47,0.844,1.01,0.73,-1.4,1,2
16456.171,0.193,0.473,0.846,0.34,0.98,-1.37,1,2
16456.187,0.188,0.473,0.851,-0.06,0.85,-1.13,1,2
16456.187,0.187,0.468,0.854,-0.61,0.55,-1.04,1,2
16456.203,0.186,0.465,0.855,-1.16,0.12,-1.13,1,2
16456.218,0.185,0.466,0.859,-1.65,-0.15,-0.98,1,2
16456.218,0.187,0.465,0.865,-1.56,-0.49,-0.79,1,2
16456.234,0.189,0.463,0.869,-1.77,-1.01,-0.7,1,2
16456.25,0.191,0.459,0.856,-1.37,-1.56,-0.7,1,2
16456.25,0.194,0.461,0.853,-1.1,-1.5,-0.31,1,2
16456.265,0.201,0.464,0.847,-1.46,-1.22,0.24,1,2
16456.281,0.206,0.464,0.848,-2.66,-0.55,0.24,1,2
16456.281,0.206,0.463,0.862,-3.33,0.09,0.67,1,2
16456.296,0.203,0.468,0.873,-3.27,-0.52,0.89,1,2
16456.296,0.232,0.474,0.847,-2.99,-1.53,1.01,1,2
16456.312,0.232,0.407,0.831,2.66,1.13,0.89,1,2
16456.328,0.162,0.482,0.891,-1.89,0.95,-2.04,1,2
16456.328,0.22,0.474,0.878,-3.11,-2.9,-2.17,1,2
16456.343,0.183,0.43,0.844,-0.67,-3.51,-1.86,1,2
16456.359,0.2,0.452,0.842,-0.06,-1.95,-1.56,1,2
16456.359,0.207,0.456,0.844,0.24,-0.52,-2.11,1,2
16456.375,0.182,0.459,0.852,-0.27,-0.76,-1.5,1,2
16456.39,0.173,0.482,0.871,1.01,-1.95,-0.43,1,2
16456.39,0.17,0.483,0.878,2.87,-3.33,1.19,1,2
16456.406,0.171,0.48,0.886,3.51,-5.74,2.47,1,2
16456.421,0.181,0.475,0.894,4.46,-8.18,4.12,1,2
16456.421,0.187,0.464,0.881,6.07,-10.28,5.07,1,2
16456.437,0.191,0.452,0.865,6.93,-11.69,5.34,1,2
16456.437,0.174,0.459,0.871,6.81,-12.6,5.28,1,2
16456.453,0.241,0.476,0.843,6.38,-13.76,6.62,1,2
16456.468,0.235,0.403,0.785,13.31,-9.95,6.87,1,2
16456.468,0.221,0.475,0.828,7.02,-6.26,5.52,1,2
16456.484,0.238,0.475,0.859,5.01,-5.25,4.91,1,2
16456.5,0.208,0.474,0.854,4.7,-5.92,3.75,1,2
16456.5,0.22,0.479,0.854,4.3,-6.53,4.3,1,2
16456.515,0.214,0.482,0.854,4.46,-7.05,4.15,1,2
16456.531,0.213,0.463,0.846,5.77,-7.23,4.7,1,2
16456.531,0.213,0.463,0.83,6.16,-6.9,4.55,1,2
16456.546,0.214,0.465,0.833,6.16,-5.74,4.36,1,2
16456.546,0.206,0.482,0.839,5.71,-5.25,4.36,1,2
16456.562,0.208,0.485,0.841,5.52,-5.65,4.43,1,2
16456.578,0.212,0.497,0.849,4.76,-6.38,5.16,1,2
16456.578,0.211,0.499,0.848,3.94,-7.17,5.55,1,2
16456.593,0.214,0.493,0.844,3.51,-7.97,6.38,1,2
16456.609,0.218,0.491,0.835,2.5,-8.7,7.14,1,2
16456.609,0.229,0.479,0.82,2.14,-8.85,7.32,1,2
16456.625,0.235,0.475,0.814,1.65,-7.69,7.51,1,2
16456.64,0.241,0.479,0.811,0.24,-6.16,7.35,1,2
16456.64,0.244,0.473,0.814,-1.13,-4.39,6.78,1,2
16456.656,0.247,0.472,0.822,-1.56,-2.69,6.26,1,2
16456.656,0.25,0.474,0.824,-1.28,-1.16,6.04,1,2
16456.671,0.251,0.473,0.828,-1.68,0.06,5.55,1,2
16456.687,0.248,0.47,0.829,-2.41,1.07,4.73,1,2
16456.687,0.247,0.467,0.832,-2.44,1.77,4.3,1,2
16456.703,0.246,0.47,0.841,-2.84,2.23,3.97,1,2
16456.718,0.239,0.469,0.845,-3.2,2.14,3.54,1,2
16456.718,0.24,0.466,0.851,-3.63,1.5,3.2,1,2
16456.734,0.24,0.468,0.852,-4.15,0.67,2.72,1,2
16456.75,0.237,0.456,0.85,-4.21,-0.06,1.98,1,2
16456.75,0.23,0.453,0.855,-3.57,-0.7,1.59,1,2
16456.765,0.228,0.462,0.86,-3.05,-1.53,1.25,1,2
16456.781,0.23,0.461,0.859,-2.47,-2.81,0.92,1,2
16456.781,0.228,0.464,0.858,-1.98,-3.54,0.82,1,2
16456.796,0.231,0.466,0.855,-1.01,-4.0,1.22,1,2
16456.796,0.231,0.467,0.852,0.37,-4.27,1.68,1,2
16456.812,0.229,0.466,0.848,1.68,-4.73,2.04,1,2
16456.828,0.227,0.465,0.85,1.83,-5.52,2.14,1,2
16456.828,0.23,0.475,0.854,1.34,-6.68,1.95,1,2
16456.843,0.228,0.479,0.854,0.58,-8.06,1.74,1,2
16456.859,0.232,0.476,0.848,-0.37,-9.49,1.83,1,2
16456.875,0.239,0.471,0.84,-0.37,-10.22,2.23,1,2
16456.875,0.241,0.466,0.837,-0.24,-10.13,2.75,1,2
16456.875,0.249,0.464,0.836,-0.18,-9.55,3.45,1,2
16456.89,0.255,0.461,0.832,0.27,-8.55,4.03,1,2
16456.906,0.261,0.456,0.832,0.89,-7.35,4.0,1,2
16456.906,0.261,0.454,0.838,1.71,-6.23,3.6,1,2
16456.921,0.255,0.457,0.844,2.56,-5.74,3.3,1,2
16456.937,0.261,0.464,0.848,3.08,-5.86,2.93,1,2
16456.937,0.261,0.465,0.843,4.0,-6.04,2.11,1,2
16456.953,0.262,0.459,0.834,4.88,-6.01,1.28,1,2
16456.968,0.261,0.462,0.832,5.4,-5.49,0.92,1,2
16456.968,0.253,0.471,0.835,5.71,-5.13,0.64,1,2
16456.984,0.25,0.476,0.842,5.25,-5.65,0.61,1,2
16457.0,0.252,0.484,0.846,4.73,-6.68,0.67,1,2
16457.0,0.253,0.482,0.846,4.61,-7.48,0.79,1,2
16457.015,0.252,0.478,0.845,4.94,-7.9,1.22,1,2
16457.031,0.252,0.478,0.849,5.74,-8.7,1.95,1,2
16457.031,0.26,0.477,0.845,6.32,-10.01,2.66,1,2
16457.046,0.267,0.477,0.834,6.59,-10.83,2.87,1,2
16457.046,0.267,0.467,0.824,6.68,-10.86,2.62,1,2
16457.062,0.268,0.459,0.826,7.29,-10.22,2.75,1,2
16457.078,0.268,0.467,0.83,8.97,-9.58,3.23,1,2
16457.078,0.27,0.478,0.832,10.35,-9.06,3.36,1,2
16457.093,0.269,0.477,0.831,10.41,-8.73,2.87,1,2
16457.109,0.269,0.475,0.828,10.01,-8.85,2.2,1,2
16457.109,0.27,0.475,0.831,10.38,-9.22,1.59,1,2
16457.125,0.267,0.481,0.838,11.44,-10.1,1.77,1,2
16457.14,0.271,0.486,0.842,12.33,-11.26,2.29,1,2
16457.14,0.273,0.491,0.84,13.09,-12.42,2.38,1,2
16457.156,0.27,0.493,0.838,14.31,-13.58,2.04,1,2
16457.156,0.263,0.497,0.831,15.84,-14.56,2.14,1,2
16457.171,0.266,0.501,0.82,16.75,-15.69,2.96,1,2
16457.187,0.27,0.504,0.809,15.99,-16.6,3.54,1,2
16457.187,0.278,0.499,0.796,14.74,-17.0,3.69,1,2
16457.203,0.291,0.495,0.787,13.28,-16.54,3.36,1,2
16457.218,0.298,0.495,0.79,12.12,-15.53,3.02,1,2
16457.234,0.299,0.501,0.803,11.99,-14.83,3.2,1,2
16457.234,0.295,0.513,0.823,12.63,-15.02,3.94,1,2
16457.25,0.288,0.524,0.83,14.04,-16.48,5.28,1,2
16457.25,0.285,0.526,0.823,15.29,-18.65,6.93,1,2
16457.265,0.285,0.522,0.812,14.83,-21.06,8.03,1,2
16457.281,0.293,0.517,0.794,13.43,-23.47,8.27,1,2
16457.281,0.299,0.509,0.784,11.81,-25.06,7.54,1,2
16457.296,0.308,0.506,0.77,10.65,-25.88,6.68,1,2
16457.296,0.325,0.506,0.759,9.22,-25.64,5.46,1,2
16457.312,0.334,0.503,0.753,7.75,-24.38,3.91,1,2
16457.328,0.339,0.496,0.745,7.32,-22.25,2.69,1,2
16457.328,0.344,0.503,0.736,6.56,-16.54,0.98,1,2
16457.343,0.346,0.512,0.731,5.19,-13.28,0.58,1,2
16457.359,0.353,0.518,0.73,3.69,-10.5,0.43,1,2
16457.359,0.353,0.54,0.751,2.32,-8.73,0.55,1,2
16457.375,0.347,0.544,0.759,1.37,-7.48,0.7,1,2
16457.39,0.342,0.54,0.763,0.21,-7.26,1.13,1,2
16457.39,0.351,0.539,0.764,-1.56,-7.84,1.46,1,2
16457.406,0.351,0.526,0.759,-3.02,-7.87,1.16,1,2
16457.406,0.353,0.508,0.755,-3.91,-7.11,0.76,1,2
16457.421,0.353,0.5,0.753,-4.3,-5.68,0.34,1,2
16457.437,0.351,0.501,0.758,-4.43,-4.03,-0.7,1,2
16457.437,0.347,0.507,0.767,-4.64,-2.96,-1.89,1,2
16457.453,0.344,0.51,0.773,-4.67,-2.72,-2.72,1,2
16457.468,0.345,0.506,0.775,-4.36,-2.26,-3.23,1,2
16457.468,0.344,0.506,0.768,-3.17,-1.25,-3.39,1,2
16457.484,0.343,0.507,0.77,-1.28,0.09,-3.11,1,2
16457.5,0.343,0.51,0.773,0.31,1.34,-2.69,1,2
16457.5,0.342,0.513,0.77,0.98,2.14,-2.62,1,2
16457.515,0.336,0.516,0.779,1.04,2.41,-2.81,1,2
16457.531,0.328,0.526,0.791,1.01,1.53,-2.59,1,2
16457.531,0.329,0.536,0.794,0.4,-0.46,-2.14,1,2
16457.546,0.334,0.536,0.786,-0.52,-2.5,-1.74,1,2
16457.546,0.342,0.531,0.774,-1.37,-3.88,-1.34,1,2
16457.562,0.342,0.522,0.762,-1.92,-4.0,-1.1,1,2
16457.578,0.351,0.514,0.753,-2.23,-3.51,-0.67,1,2
16457.578,0.356,0.515,0.754,-2.81,-1.74,-0.18,1,2
16457.593,0.352,0.508,0.756,-3.17,0.06,-0.31,1,2
16457.609,0.355,0.508,0.762,-3.17,1.62,-0.49,1,2
16457.625,0.349,0.508,0.769,-2.59,2.62,-0.73,1,2
16457.625,0.354,0.514,0.775,-2.01,3.3,-0.89,1,2
16457.64,0.352,0.514,0.778,-1.34,3.78,-1.4,1,2
16457.64,0.344,0.507,0.777,-0.95,4.12,-2.01,1,2
16457.656,0.339,0.506,0.78,-0.46,4.27,-2.2,1,2
16457.656,0.333,0.512,0.782,0.4,4.18,-2.32,1,2
16457.671,0.327,0.515,0.788,0.89,4.03,-2.08,1,2
16457.687,0.324,0.518,0.789,0.92,3.51,-1.89,1,2
16457.703,0.319,0.518,0.788,0.98,2.81,-1.89,1,2
16457.703,0.318,0.522,0.786,1.07,2.2,-1.34,1,2
16457.718,0.316,0.525,0.784,0.73,1.43,-0.61,1,2
16457.718,0.317,0.525,0.784,-0.18,0.7,-0.09,1,2
16457.734,0.319,0.525,0.782,-1.01,-0.06,0.34,1,2
16457.75,0.323,0.522,0.778,-1.65,-0.58,0.61,1,2
16457.75,0.326,0.523,0.779,-2.32,-1.22,0.82,1,2
16457.765,0.331,0.521,0.775,-3.02,-1.65,0.95,1,2
16457.781,0.334,0.517,0.774,-3.45,-1.74,1.04,1,2
16457.781,0.339,0.513,0.769,-3.3,-1.31,1.04,1,2
16457.796,0.339,0.51,0.769,-3.23,-0.43,0.89,1,2
16457.796,0.334,0.511,0.775,-3.2,0.34,0.67,1,2
16457.812,0.33,0.511,0.786,-3.05,0.67,0.49,1,2
16457.828,0.323,0.515,0.802,-2.87,0.15,0.64,1,2
16457.843,0.319,0.517,0.815,-2.47,-1.62,0.98,1,2
16457.843,0.315,0.519,0.819,-2.04,-4.21,1.37,1,2
16457.859,0.315,0.519,0.816,-1.5,-6.87,1.95,1,2
16457.859,0.323,0.513,0.803,-1.31,-9.58,2.23,1,2
16457.875,0.33,0.504,0.789,-1.53,-11.32,2.23,1,2
16457.89,0.333,0.503,0.783,-1.68,-12.05,2.26,1,2
16457.89,0.34,0.511,0.778,-1.98,-12.48,2.11,1,2
16457.906,0.341,0.509,0.773,-2.47,-12.36,1.89,1,2
16457.921,0.343,0.505,0.771,-2.66,-12.12,1.92,1,2
16457.921,0.346,0.507,0.77,-2.5,-11.63,2.04,1,2
16457.937,0.352,0.516,0.769,-2.93,-11.08,2.04,1,2
16457.937,0.355,0.515,0.768,-3.02,-10.53,2.29,1,2
16457.953,0.356,0.511,0.762,-2.81,-9.8,2.5,1,2
16457.968,0.362,0.506,0.756,-2.81,-8.55,2.62,1,2
16457.984,0.361,0.504,0.755,-2.99,-6.9,2.53,1,2
16457.984,0.357,0.499,0.76,-3.17,-5.46,2.41,1,2
16458.0,0.355,0.503,0.775,-3.66,-4.39,2.38,1,2
16458.0,0.351,0.51,0.788,-3.97,-4.7,2.47,1,2
16458.015,0.347,0.508,0.797,-3.94,-5.55,2.66,1,2
16458.031,0.339,0.506,0.806,-3.45,-7.11,2.96,1,2
16458.031,0.34,0.511,0.809,-3.48,-9.8,3.45,1,2
16458.046,0.342,0.512,0.815,-4.06,-12.57,3.94,1,2
16458.046,0.35,0.502,0.808,-3.94,-15.59,4.18,1,2
16458.062,0.358,0.493,0.786,-3.36,-17.67,4.27,1,2
16458.078,0.356,0.486,0.78,-2.96,-18.43,4.0,1,2
16458.078,0.343,0.485,0.784,-3.14,-19.32,3.88,1,2
16458.093,0.348,0.504,0.813,-4.03,-21.79,4.09,1,2
16458.109,0.34,0.535,0.852,-6.59,-27.28,3.94,1,2
16458.109,0.325,0.54,0.861,-9.34,-35.68,3.66,1,2
16458.125,0.333,0.552,0.868,-13.03,-46.39,3.94,1,2
16458.14,0.363,0.565,0.89,-18.8,-58.44,5.74,1,2
16458.14,0.398,0.537,0.868,-22.74,-70.01,7.69,1,2
16458.156,0.413,0.483,0.821,-21.21,-77.73,8.76,1,2
16458.171,0.442,0.447,0.762,-15.41,-80.36,9.31,1,2
16458.171,0.463,0.448,0.704,-10.04,-78.65,7.69,1,2
16458.187,0.471,0.462,0.71,-10.41,-74.65,5.37,1,2
16458.187,0.48,0.485,0.714,-14.1,-73.61,1.98,1,2
16458.203,0.471,0.503,0.704,-20.6,-74.83,-0.43,1,2
16458.218,0.485,0.513,0.713,-29.42,-77.85,-0.82,1,2
16458.218,0.495,0.504,0.7,-36.38,-80.81,-1.71,1,2
16458.234,0.544,0.538,0.715,-42.02,-82.31,-1.43,1,2
16458.25,0.57,0.531,0.789,-48.86,-90.61,10.77,1,2
16458.25,0.595,0.524,0.75,-46.21,-94.09,18.13,1,2
16458.265,0.644,0.509,0.735,-43.21,-96.53,28.93,1,2
16458.281,0.657,0.521,0.718,-38.12,-97.51,38.24,1,2
16458.281,0.694,0.517,0.722,-36.44,-97.84,44.4,1,2
16458.296,0.723,0.507,0.723,-39.03,-97.9,47.27,1,2
16458.296,0.751,0.489,0.72,-42.7,-98.79,47.06,1,2
16458.312,0.778,0.459,0.731,-43.15,-98.48,41.32,1,2
16458.328,0.815,0.456,0.769,-33.69,-98.88,36.74,1,2
16458.328,0.793,0.442,0.766,-23.44,-100.47,33.78,1,2
16458.343,0.81,0.424,0.756,-14.34,-102.02,31.5,1,2
16458.359,0.831,0.445,0.755,-7.81,-105.44,30.15,1,2
16458.375,0.834,0.429,0.696,-3.54,-108.98,31.01,1,2
16458.375,0.862,0.443,0.657,-4.49,-112.03,33.48,1,2
16458.39,0.877,0.434,0.61,-6.41,-113.13,37.02,1,2
16458.39,0.9,0.408,0.563,-8.58,-112.19,42.12,1,2
16458.406,0.892,0.392,0.522,-11.93,-110.23,47.15,1,2
16458.421,0.91,0.358,0.484,-15.11,-106.85,52.64,1,2
16458.421,0.899,0.332,0.462,-15.56,-101.44,56.7,1,2
16458.437,0.888,0.304,0.472,-14.86,-98.15,58.78,1,2
16458.437,0.897,0.296,0.477,-13.73,-96.22,59.51,1,2
16458.453,0.903,0.282,0.456,-12.27,-95.43,57.95,1,2
16458.468,0.917,0.255,0.406,-13.21,-94.0,55.94,1,2
16458.484,0.939,0.247,0.359,-17.03,-90.09,54.29,1,2
16458.484,0.964,0.239,0.327,-21.49,-82.67,53.1,1,2
16458.5,0.949,0.211,0.313,-24.99,-72.85,52.1,1,2
16458.5,0.939,0.182,0.302,-27.99,-63.23,51.64,1,2
16458.515,0.91,0.184,0.321,-29.79,-56.22,50.02,1,2
16458.531,0.877,0.137,0.341,-31.34,-53.22,48.43,1,2
16458.531,0.885,0.136,0.349,-34.58,-53.1,45.66,1,2
16458.546,0.894,0.124,0.35,-35.92,-53.01,41.44,1,2
16458.562,0.892,0.102,0.358,-32.84,-49.99,39.67,1,2
16458.562,0.886,0.099,0.324,-29.18,-47.21,38.48,1,2
16458.578,0.927,0.141,0.289,-30.92,-45.96,34.64,1,2
16458.578,0.914,0.113,0.253,-34.27,-41.44,31.83,1,2
16458.593,0.903,0.108,0.221,-35.52,-35.31,31.25,1,2
16458.609,0.913,0.13,0.211,-36.59,-28.78,30.58,1,2
16458.609,0.919,0.115,0.237,-40.71,-20.94,30.92,1,2
16458.625,0.884,0.083,0.259,-44.92,-11.81,32.56,1,2
16458.64,0.858,0.056,0.287,-49.07,-4.76,34.3,1,2
16458.64,0.841,0.032,0.314,-53.62,-1.74,33.97,1,2
16458.656,0.834,0.011,0.335,-57.44,0.0,31.53,1,2
16458.656,0.825,0.0,0.376,-59.57,1.89,27.56,1,2
16458.671,0.815,-0.01,0.396,-60.12,3.11,22.1,1,2
16458.687,0.81,-0.01,0.38,-58.29,5.46,16.6,1,2
16458.687,0.809,0.003,0.405,-54.41,9.67,11.23,1,2
16458.703,0.805,0.014,0.429,-49.78,15.38,6.74,1,2
16458.718,0.783,0.034,0.437,-46.21,21.45,2.5,1,2
16458.718,0.761,0.045,0.454,-43.52,26.7,-0.21,1,2
16458.734,0.728,0.056,0.467,-42.6,29.42,-1.98,1,2
16458.75,0.707,0.07,0.48,-44.16,29.69,-3.02,1,2
16458.75,0.692,0.079,0.487,-45.11,29.3,-2.53,1,2
16458.765,0.672,0.099,0.505,-46.72,28.32,-1.62,1,2
16458.781,0.661,0.1,0.537,-46.57,26.25,0.7,1,2
16458.781,0.656,0.094,0.55,-42.15,23.77,5.07,1,2
16458.796,0.672,0.085,0.516,-38.91,21.64,9.37,1,2
16458.796,0.72,0.078,0.461,-40.31,22.03,12.02,1,2
16458.812,0.746,0.068,0.435,-42.42,27.38,13.55,1,2
16458.828,0.749,0.05,0.415,-43.95,36.56,13.79,1,2
16458.828,0.751,0.04,0.416,-45.47,47.0,12.63,1,2
16458.843,0.717,0.037,0.453,-46.27,56.0,10.93,1,2
16458.859,0.694,0.014,0.518,-47.06,60.76,11.17,1,2
16458.859,0.691,0.029,0.559,-49.35,59.85,12.79,1,2
16458.875,0.688,0.006,0.585,-52.19,56.43,16.05,1,2
16458.89,0.698,0.0,0.618,-55.36,52.92,21.64,1,2
16458.89,0.724,-0.002,0.626,-56.95,48.71,26.22,1,2
16458.906,0.742,-0.034,0.639,-58.05,46.02,30.43,1,2
16458.906,0.758,-0.046,0.65,-56.34,45.87,33.42,1,2
16458.921,0.77,-0.078,0.641,-53.53,46.91,33.36,1,2
16458.937,0.794,-0.098,0.656,-48.65,48.65,29.73,1,2
16458.953,0.788,-0.106,0.665,-40.5,50.14,23.35,1,2
16458.953,0.79,-0.105,0.696,-35.31,49.32,14.47,1,2
16458.968,0.779,-0.092,0.724,-30.34,45.9,4.91,1,2
16458.968,0.765,-0.099,0.732,-24.02,41.69,-2.62,1,2
16458.984,0.738,-0.071,0.717,-17.64,38.18,-8.76,1,2
16459.0,0.726,-0.056,0.696,-12.7,33.54,-14.53,1,2
16459.0,0.738,-0.036,0.676,-7.75,29.21,-18.56,1,2
16459.015,0.762,-0.01,0.654,-3.36,26.31,-19.5,1,2
16459.031,0.789,0.011,0.649,-3.69,24.84,-16.94,1,2
16459.031,0.793,0.029,0.653,-5.43,24.81,-11.81,1,2
16459.046,0.771,0.028,0.648,-7.57,26.25,-4.88,1,2
16459.046,0.773,0.034,0.652,-11.51,26.61,0.73,1,2
16459.062,0.767,0.009,0.664,-14.04,27.13,4.18,1,2
16459.078,0.779,-0.013,0.685,-14.47,25.91,5.8,1,2
16459.093,0.794,-0.046,0.708,-13.12,23.65,6.32,1,2
16459.093,0.805,-0.065,0.727,-9.06,21.24,4.39,1,2
16459.109,0.781,-0.088,0.731,-2.08,20.14,1.04,1,2
16459.109,0.729,-0.054,0.729,4.21,16.79,-4.67,1,2
16459.125,0.705,-0.036,0.722,7.66,10.25,-9.92,1,2
16459.14,0.731,-0.014,0.685,8.24,2.56,-11.44,1,2
16459.14,0.765,0.003,0.648,5.62,0.06,-7.02,1,2
16459.156,0.75,0.021,0.631,-0.15,1.22,-1.04,1,2
16459.156,0.754,-0.007,0.626,-6.81,3.48,5.46,1,2
16459.171,0.756,-0.024,0.63,-14.13,4.94,11.87,1,2
16459.187,0.75,-0.049,0.648,-21.49,6.13,17.4,1,2
16459.187,0.741,-0.088,0.68,-24.84,4.97,19.62,1,2
16459.203,0.745,-0.116,0.695,-22.55,3.91,20.26,1,2
16459.218,0.775,-0.125,0.695,-16.82,2.44,19.68,1,2
16459.218,0.794,-0.138,0.704,-12.63,1.16,18.49,1,2
16459.234,0.815,-0.132,0.706,-11.75,-0.18,16.75,1,2
16459.25,0.804,-0.158,0.715,-10.38,-1.19,14.28,1,2
16459.25,0.797,-0.149,0.725,-7.23,-2.96,10.96,1,2
16459.265,0.787,-0.148,0.722,-3.08,-5.68,6.26,1,2
16459.281,0.768,-0.146,0.707,1.46,-9.03,1.59,1,2
16459.281,0.756,-0.129,0.689,5.8,-12.05,-1.19,1,2
16459.296,0.752,-0.125,0.668,10.83,-14.68,-0.46,1,2
16459.312,0.729,-0.115,0.646,12.15,-15.2,0.46,1,2
16459.312,0.705,-0.107,0.62,12.48,-14.47,2.75,1,2
16459.328,0.717,-0.104,0.592,12.73,-13.28,4.3,1,2
16459.328,0.768,-0.113,0.567,13.12,-8.94,8.03,1,2
16459.343,0.763,-0.098,0.571,11.38,-4.61,10.53,1,2
16459.359,0.749,-0.121,0.595,7.69,-0.7,12.21,1,2
16459.359,0.729,-0.122,0.635,3.42,0.64,12.79,1,2
16459.375,0.727,-0.138,0.664,1.77,0.06,12.48,1,2
16459.39,0.741,-0.15,0.687,3.3,-2.14,11.14,1,2
16459.39,0.748,-0.142,0.691,5.68,-4.88,9.43,1,2
16459.406,0.764,-0.142,0.685,7.78,-8.12,7.35,1,2
16459.421,0.779,-0.129,0.673,10.13,-10.77,5.58,1,2
16459.421,0.77,-0.131,0.66,11.57,-11.63,4.7,1,2
16459.437,0.749,-0.123,0.641,11.6,-12.21,4.18,1,2
16459.437,0.726,-0.134,0.623,10.16,-12.36,3.42,1,2
16459.453,0.709,-0.148,0.606,8.67,-10.93,2.62,1,2
16459.468,0.713,-0.136,0.579,6.84,-9.09,1.16,1,2
16459.484,0.729,-0.138,0.565,3.78,-5.77,0.09,1,2
16459.484,0.752,-0.134,0.576,0.61,-1.25,0.34,1,2
16459.5,0.759,-0.122,0.595,-0.98,2.84,0.76,1,2
16459.5,0.768,-0.116,0.62,-1.8,5.98,2.14,1,2
16459.515,0.769,-0.102,0.643,-3.78,7.02,3.85,1,2
16459.531,0.763,-0.104,0.663,-6.68,5.98,4.97,1,2
16459.531,0.765,-0.108,0.682,-8.79,3.54,5.65,1,2
16459.546,0.775,-0.104,0.689,-7.42,0.79,5.83,1,2
16459.546,0.791,-0.098,0.677,-4.15,-1.83,5.68,1,2
16459.562,0.805,-0.094,0.656,-2.5,-4.3,4.91,1,2
16459.578,0.806,-0.102,0.65,-1.74,-5.34,4.21,1,2
16459.578,0.796,-0.094,0.648,-0.34,-5.95,3.88,1,2
16459.593,0.793,-0.093,0.638,1.04,-6.35,3.33,1,2
16459.609,0.785,-0.094,0.627,2.2,-6.78,3.14,1,2
16459.609,0.79,-0.092,0.613,3.72,-6.99,3.3,1,2
16459.625,0.793,-0.08,0.599,4.43,-7.17,3.63,1,2
16459.64,0.777,-0.081,0.591,4.49,-7.23,4.7,1,2
16459.64,0.765,-0.08,0.582,2.81,-8.42,6.78,1,2
16459.656,0.772,-0.087,0.574,0.4,-10.35,8.67,1,2
16459.656,0.769,-0.1,0.557,-1.22,-11.32,10.01,1,2
16459.671,0.779,-0.112,0.551,-2.23,-10.53,11.66,1,2
16459.687,0.786,-0.112,0.554,-3.05,-8.36,13.09,1,2
16459.687,0.781,-0.123,0.557,-3.08,-5.92,13.67,1,2
16459.703,0.779,-0.125,0.567,-3.11,-3.42,13.76,1,2
16459.718,0.783,-0.124,0.588,-2.75,-1.01,13.06,1,2
16459.718,0.774,-0.134,0.608,-2.14,-0.24,11.35,1,2
16459.734,0.758,-0.138,0.63,-0.7,-0.43,9.89,1,2
16459.75,0.748,-0.128,0.637,1.46,-2.35,8.24,1,2
16459.75,0.745,-0.135,0.635,2.96,-4.7,7.2,1,2
16459.765,0.76,-0.121,0.624,3.51,-6.62,7.11,1,2
16459.781,0.769,-0.122,0.601,4.67,-7.51,6.99,1,2
16459.781,0.778,-0.122,0.589,4.7,-6.93,7.02,1,2
16459.796,0.778,-0.117,0.592,4.79,-6.01,6.87,1,2
16459.796,0.782,-0.12,0.587,5.71,-5.13,6.71,1,2
16459.812,0.785,-0.117,0.584,5.01,-4.24,6.78,1,2
16459.828,0.779,-0.126,0.584,2.5,-3.3,6.56,1,2
16459.828,0.783,-0.128,0.588,0.0,-2.11,6.59,1,2
16459.843,0.774,-0.126,0.596,-1.92,-1.25,6.44,1,2
16459.859,0.777,-0.139,0.606,-2.72,-1.04,6.26,1,2
16459.859,0.784,-0.134,0.61,-2.56,-1.13,6.65,1,2
16459.875,0.783,-0.14,0.606,-2.32,-1.5,6.78,1,2
16459.89,0.777,-0.144,0.611,-2.04,-1.28,7.42,1,2
16459.89,0.772,-0.144,0.61,-1.01,-1.19,7.6,1,2
16459.906,0.774,-0.145,0.609,0.12,-0.73,7.75,1,2
16459.906,0.777,-0.138,0.609,0.0,-0.67,7.02,1,2
16459.921,0.778,-0.139,0.603,-0.46,-0.15,6.56,1,2
16459.937,0.777,-0.132,0.601,-1.04,0.46,6.07,1,2
16459.937,0.78,-0.136,0.608,-1.31,0.92,5.19,1,2
16459.953,0.769,-0.138,0.614,-0.85,1.1,4.15,1,2
16459.968,0.765,-0.142,0.619,0.0,0.4,2.69,1,2
16459.968,0.77,-0.141,0.617,2.81,-0.7,1.25,1,2
16459.984,0.767,-0.13,0.611,6.44,-1.22,0.03,1,2
16460.0,0.777,-0.125,0.6,8.27,-2.2,-1.62,1,2
16460.0,0.797,-0.122,0.59,8.73,-2.75,-3.17,1,2
16460.015,0.798,-0.112,0.586,8.06,-1.71,-3.17,1,2
16460.031,0.788,-0.105,0.589,6.5,-0.64,-2.93,1,2
16460.031,0.783,-0.108,0.596,5.04,-0.15,-2.11,1,2
16460.046,0.775,-0.099,0.599,3.69,0.34,-0.34,1,2
16460.046,0.77,-0.097,0.6,1.28,0.76,1.68,1,2
16460.062,0.765,-0.103,0.607,-0.85,0.67,3.57,1,2
16460.078,0.767,-0.1,0.611,-1.98,0.21,5.71,1,2
16460.078,0.778,-0.107,0.61,-2.9,-0.21,7.66,1,2
16460.093,0.784,-0.114,0.61,-3.63,-0.15,9.03,1,2
16460.109,0.785,-0.123,0.613,-3.3,0.43,9.4,1,2
16460.109,0.781,-0.134,0.612,-1.92,0.7,8.97,1,2
16460.125,0.778,-0.137,0.613,-0.34,0.49,7.93,1,2
16460.14,0.774,-0.138,0.604,0.4,0.09,6.56,1,2
16460.14,0.781,-0.143,0.599,0.55,0.09,5.4,1,2
16460.156,0.793,-0.138,0.601,0.7,0.55,4.58,1,2
16460.156,0.79,-0.141,0.608,0.64,1.59,4.46,1,2
16460.171,0.782,-0.141,0.618,0.79,2.5,5.01,1,2
16460.187,0.768,-0.137,0.627,0.34,2.56,5.4,1,2
16460.203,0.76,-0.139,0.628,-1.19,1.62,5.8,1,2
16460.203,0.762,-0.141,0.621,-2.29,0.67,6.13,1,2
16460.218,0.764,-0.143,0.616,-2.53,0.12,5.92,1,2
16460.218,0.78,-0.148,0.607,-1.53,0.24,5.13,1,2
16460.234,0.787,-0.144,0.611,-0.73,1.25,4.43,1,2
16460.25,0.778,-0.148,0.623,-0.4,2.41,3.42,1,2
16460.25,0.766,-0.153,0.638,0.79,3.05,2.2,1,2
16460.265,0.759,-0.159,0.645,2.2,2.5,0.55,1,2
16460.281,0.76,-0.162,0.646,4.06,1.5,-1.43,1,2
16460.281,0.768,-0.159,0.64,7.2,1.46,-5.37,1,2
16460.296,0.768,-0.156,0.635,7.14,1.62,-7.45,1,2
16460.296,0.769,-0.155,0.637,7.75,2.11,-9.03,1,2
16460.312,0.772,-0.146,0.643,9.0,2.53,-10.41,1,2
16460.328,0.771,-0.137,0.644,9.95,2.69,-10.99,1,2
16460.343,0.759,-0.13,0.646,10.19,2.26,-10.9,1,2
16460.343,0.759,-0.128,0.644,9.83,0.92,-10.01,1,2
16460.359,0.772,-0.125,0.635,8.82,-0.46,-7.9,1,2
16460.359,0.779,-0.115,0.626,6.5,-0.85,-5.01,1,2
16460.375,0.775,-0.12,0.624,3.94,-0.37,-2.11,1,2
16460.39,0.772,-0.129,0.624,1.95,0.43,0.52,1,2
16460.39,0.776,-0.134,0.626,0.98,1.59,2.32,1,2
16460.406,0.782,-0.14,0.632,0.0,2.93,3.39,1,2
16460.406,0.781,-0.144,0.645,-1.37,3.6,4.06,1,2
16460.421,0.785,-0.15,0.654,-1.46,3.48,4.12,1,2
16460.437,0.788,-0.152,0.656,-0.73,3.02,3.97,1,2
16460.437,0.781,-0.151,0.658,0.09,2.56,3.02,1,2
16460.453,0.78,-0.151,0.65,0.43,1.65,1.86,1,2
16460.468,0.785,-0.151,0.642,0.12,0.92,1.19,1,2
16460.468,0.79,-0.146,0.634,-0.76,1.4,0.7,1,2
16460.484,0.787,-0.141,0.632,-1.43,2.66,0.24,1,2
16460.5,0.78,-0.14,0.645,-1.19,3.81,0.03,1,2
16460.5,0.77,-0.137,0.657,-0.03,4.03,-0.52,1,2
16460.515,0.77,-0.135,0.656,1.92,3.36,-0.98,1,2
16460.531,0.773,-0.133,0.652,3.33,2.96,-1.16,1,2
16460.531,0.768,-0.13,0.646,3.6,2.72,-1.37,1,2
16460.546,0.767,-0.132,0.647,3.3,2.38,-2.01,1,2
16460.562,0.761,-0.131,0.647,3.48,1.89,-2.59,1,2
16460.562,0.752,-0.126,0.65,4.61,0.58,-2.78,1,2
16460.578,0.756,-0.123,0.644,5.28,-1.19,-2.9,1,2
16460.578,0.767,-0.124,0.634,5.46,-2.69,-2.9,1,2
16460.593,0.769,-0.12,0.627,5.31,-2.99,-2.62,1,2
16460.609,0.767,-0.116,0.626,4.91,-2.23,-2.5,1,2
16460.609,0.761,-0.113,0.632,4.52,-1.37,-2.35,1,2
16460.625,0.757,-0.113,0.637,4.06,-1.25,-1.95,1,2
16460.64,0.751,-0.112,0.639,4.21,-1.53,-1.46,1,2
16460.64,0.748,-0.111,0.631,3.81,-2.04,-0.46,1,2
16460.656,0.754,-0.109,0.621,1.83,-2.38,0.43,1,2
16460.671,0.762,-0.112,0.617,0.09,-2.14,0.89,1,2
16460.671,0.764,-0.115,0.614,-0.43,-1.01,1.65,1,2
16460.687,0.768,-0.113,0.614,-0.79,0.4,2.01,1,2
16460.703,0.771,-0.114,0.62,-1.16,1.74,2.35,1,2
16460.703,0.762,-0.115,0.632,-1.65,2.84,2.75,1,2
16460.718,0.753,-0.12,0.647,-1.68,2.78,3.45,1,2
16460.718,0.755,-0.125,0.648,-1.46,1.8,3.94,1,2
16460.734,0.762,-0.13,0.644,-1.53,1.04,4.24,1,2
16460.75,0.763,-0.131,0.647,-1.65,0.7,4.52,1,2
16460.75,0.759,-0.128,0.648,-1.4,-0.03,4.79,1,2
16460.765,0.76,-0.138,0.646,-1.5,-0.95,5.22,1,2
16460.781,0.771,-0.14,0.638,-1.04,-1.89,5.1,1,2
16460.781,0.772,-0.146,0.632,0.24,-1.71,4.76,1,2
16460.796,0.767,-0.146,0.633,0.89,-1.19,4.3,1,2
16460.796,0.761,-0.147,0.631,0.73,-0.92,3.69,1,2
16460.812,0.76,-0.152,0.631,0.24,-0.85,2.75,1,2
16460.828,0.758,-0.15,0.631,-0.03,-0.46,1.83,1,2
16460.828,0.759,-0.151,0.629,0.18,-0.24,0.76,1,2
16460.843,0.755,-0.15,0.627,0.64,0.27,-0.31,1,2
16460.859,0.747,-0.147,0.626,1.28,1.19,-1.16,1,2
16460.859,0.744,-0.142,0.627,1.86,1.56,-1.92,1,2
16460.875,0.752,-0.137,0.636,1.68,1.46,-2.04,1,2
16460.875,0.755,-0.134,0.64,1.01,1.4,-1.71,1,2
16460.89,0.759,-0.133,0.641,-0.09,1.13,-1.5,1,2
16460.906,0.769,-0.135,0.639,-0.18,0.79,-1.34,1,2
16460.921,0.776,-0.137,0.636,0.09,1.04,-1.31,1,2
16460.921,0.77,-0.132,0.64,0.15,1.8,-1.13,1,2
16460.937,0.767,-0.132,0.65,0.06,1.98,-1.04,1,2
16460.937,0.767,-0.132,0.651,0.24,1.68,-1.01,1,2
16460.953,0.764,-0.131,0.652,0.89,1.62,-0.82,1,2
16460.968,0.76,-0.125,0.658,1.31,1.01,-0.34,1,2
16460.968,0.76,-0.126,0.657,1.04,0.0,0.12,1,2
16460.984,0.766,-0.131,0.652,0.49,-0.76,0.73,1,2
16461.0,0.765,-0.133,0.643,0.06,-0.55,1.19,1,2
16461.0,0.759,-0.134,0.642,-0.4,-0.03,0.89,1,2
16461.015,0.754,-0.136,0.649,-0.61,0.34,0.52,1,2
16461.031,0.755,-0.135,0.647,-0.46,-0.03,0.06,1,2
16461.031,0.76,-0.138,0.642,-0.12,-0.21,-0.18,1,2
16461.046,0.759,-0.139,0.64,0.46,0.24,-0.46,1,2
16461.062,0.746,-0.136,0.648,1.22,0.73,-0.85,1,2
16461.062,0.743,-0.134,0.656,1.46,0.15,-1.01,1,2
16461.078,0.751,-0.136,0.65,1.83,-1.04,-1.28,1,2
16461.093,0.757,-0.137,0.64,1.98,-1.71,-1.74,1,2
16461.093,0.763,-0.137,0.633,2.08,-1.56,-2.14,1,2
16461.109,0.768,-0.135,0.631,2.23,-1.16,-2.87,1,2
16461.109,0.766,-0.134,0.631,2.47,-0.61,-3.6,1,2
16461.125,0.764,-0.132,0.634,2.72,0.21,-3.97,1,2
16461.14,0.753,-0.125,0.65,2.23,0.43,-3.85,1,2
16461.14,0.754,-0.127,0.658,1.74,-0.98,-3.33,1,2
16461.156,0.765,-0.128,0.652,1.95,-2.35,-2.59,1,2
16461.156,0.769,-0.126,0.641,2.44,-2.84,-2.04,1,2
16461.171,0.772,-0.123,0.632,2.53,-2.5,-1.65,1,2
16461.187,0.767,-0.122,0.635,1.5,-1.74,-1.4,1,2
16461.187,0.759,-0.121,0.641,-0.03,-1.31,-1.07,1,2
16461.203,0.756,-0.121,0.649,-1.37,-1.34,-0.43,1,2
16461.218,0.759,-0.122,0.651,-1.92,-1.74,0.64,1,2
16461.218,0.766,-0.121,0.647,-1.95,-2.26,1.53,1,2
16461.234,0.77,-0.12,0.641,-2.29,-2.53,1.77,1,2
16461.25,0.772,-0.127,0.641,-2.53,-2.44,1.43,1,2
16461.25,0.769,-0.129,0.64,-2.01,-1.95,0.85,1,2
16461.265,0.77,-0.126,0.64,-0.92,-1.16,-0.09,1,2
16461.281,0.77,-0.125,0.638,-1.4,-0.98,-0.46,1,2
16461.281,0.769,-0.125,0.641,-1.19,-0.76,-0.58,1,2
16461.296,0.771,-0.124,0.642,-0.37,-0.49,-0.64,1,2
16461.296,0.772,-0.117,0.644,-0.34,-0.58,-0.64,1,2
16461.312,0.77,-0.116,0.647,-0.89,-0.82,-0.64,1,2
16461.328,0.773,-0.118,0.65,-1.28,-1.28,-0.31,1,2
16461.328,0.769,-0.116,0.648,-0.92,-1.74,-0.03,1,2
16461.343,0.766,-0.116,0.645,-0.4,-2.2,0.09,1,2
16461.359,0.764,-0.113,0.639,-0.12,-2.01,-0.03,1,2
16461.359,0.769,-0.114,0.63,-0.12,-1.59,-0.4,1,2
16461.375,0.768,-0.113,0.624,-0.21,-0.24,-0.46,1,2
16461.39,0.763,-0.11,0.63,-0.85,1.04,0.0,1,2
16461.39,0.758,-0.111,0.634,-1.59,1.71,0.34,1,2
16461.406,0.757,-0.113,0.64,-1.5,1.74,0.89,1,2
16461.406,0.756,-0.113,0.642,-0.82,1.68,1.37,1,2
16461.421,0.751,-0.113,0.644,-0.64,1.43,1.86,1,2
16461.437,0.751,-0.112,0.65,-1.25,0.52,2.38,1,2
16461.437,0.752,-0.115,0.654,-2.32,-0.61,2.93,1,2
16461.453,0.76,-0.121,0.654,-2.44,-1.46,3.6,1,2
16461.468,0.767,-0.122,0.65,-1.53,-2.2,4.0,1,2
16461.468,0.768,-0.123,0.646,-0.95,-2.47,3.72,1,2
16461.484,0.765,-0.127,0.643,-0.15,-2.81,2.81,1,2
16461.5,0.759,-0.127,0.638,0.98,-2.99,1.98,1,2
16461.515,0.755,-0.127,0.631,1.56,-3.17,1.56,1,2
16461.515,0.754,-0.126,0.624,1.37,-2.84,1.53,1,2
16461.531,0.758,-0.125,0.621,0.67,-1.89,2.04,1,2
16461.546,0.758,-0.128,0.622,-0.49,-0.76,2.53,1,2
16461.562,0.753,-0.132,0.632,-1.65,0.4,2.66,1,2
16461.578,0.748,-0.137,0.647,-1.62,0.58,2.59,1,2
16461.593,0.746,-0.134,0.652,-0.34,-0.4,2.59,1,2
16461.609,0.752,-0.13,0.648,0.76,-1.13,2.99,1,2
16461.609,0.757,-0.13,0.645,0.52,-2.17,3.42,1,2
16461.625,0.76,-0.134,0.643,-0.31,-2.66,3.94,1,2
16461.625,0.759,-0.14,0.638,-0.85,-2.69,4.67,1,2
16461.64,0.758,-0.142,0.637,-1.37,-2.72,5.19,1,2
16461.64,0.762,-0.15,0.638,-1.86,-2.66,5.13,1,2
16461.64,0.755,-0.159,0.636,-1.43,-2.35,4.79,1,2
16461.656,0.75,-0.161,0.634,-0.46,-2.2,3.88,1,2
16461.656,0.75,-0.161,0.63,0.27,-2.56,2.78,1,2
16461.671,0.751,-0.163,0.624,0.85,-3.14,1.74,1,2
16461.671,0.756,-0.161,0.617,1.62,-3.36,0.95,1,2
16461.687,0.766,-0.155,0.608,1.89,-3.11,0.43,1,2
16461.687,0.772,-0.152,0.607,0.64,-1.95,0.37,1,2
16461.703,0.77,-0.151,0.615,-1.77,-0.76,0.85,1,2
16461.718,0.767,-0.154,0.629,-3.39,0.46,1.4,1,2
16461.718,0.767,-0.155,0.642,-4.0,1.16,1.65,1,2
16461.734,0.768,-0.152,0.65,-4.12,1.16,1.28,1,2
16461.75,0.769,-0.153,0.663,-3.2,0.73,-0.09,1,2
16461.75,0.767,-0.15,0.667,-1.4,0.21,-1.68,1,2
16461.765,0.763,-0.143,0.663,0.21,-0.64,-3.27,1,2
16461.781,0.761,-0.138,0.658,1.13,-1.71,-4.43,1,2
16461.781,0.764,-0.133,0.652,1.8,-2.29,-4.79,1,2
16461.796,0.759,-0.126,0.646,1.71,-2.29,-4.12,1,2
16461.812,0.762,-0.125,0.647,1.01,-2.23,-3.08,1,2
16461.812,0.764,-0.122,0.644,-0.03,-2.32,-1.34,1,2
16461.828,0.765,-0.126,0.641,-0.98,-2.08,0.15,1,2
16461.843,0.757,-0.131,0.639,-1.31,-1.98,1.28,1,2
16461.843,0.754,-0.131,0.637,-1.13,-1.98,2.17,1,2
16461.859,0.746,-0.137,0.628,-1.13,-1.86,2.47,1,2
16461.859,0.748,-0.142,0.621,-1.62,-1.59,2.08,1,2
16461.875,0.765,-0.147,0.616,-1.65,-0.85,2.01,1,2
16461.89,0.77,-0.144,0.615,-1.83,0.76,2.38,1,2
16461.89,0.767,-0.147,0.624,-2.53,2.11,2.59,1,2
16461.906,0.755,-0.148,0.635,-2.66,2.69,2.53,1,2
16461.921,0.744,-0.154,0.642,-2.14,2.32,2.75,1,2
16461.921,0.743,-0.15,0.636,-1.71,1.1,2.56,1,2
16461.937,0.752,-0.154,0.628,-1.43,0.49,2.32,1,2
16461.937,0.753,-0.15,0.622,-2.23,0.82,2.44,1,2
16461.953,0.752,-0.146,0.623,-4.12,1.37,2.44,1,2
16461.968,0.749,-0.145,0.621,-6.07,1.77,2.14,1,2
16461.968,0.754,-0.141,0.623,-6.62,2.5,2.01,1,2
16461.984,0.754,-0.132,0.622,-6.29,3.75,2.23,1,2
16462.0,0.745,-0.127,0.621,-6.65,5.25,2.66,1,2
16462.0,0.733,-0.122,0.623,-7.17,6.99,3.69,1,2
16462.015,0.722,-0.113,0.644,-7.87,8.15,5.65,1,2
16462.031,0.72,-0.107,0.659,-10.22,7.57,8.09,1,2
16462.031,0.72,-0.111,0.663,-12.02,6.47,10.9,1,2
16462.046,0.722,-0.117,0.673,-11.99,5.28,14.28,1,2
16462.046,0.738,-0.123,0.683,-13.25,3.2,17.33,1,2
16462.062,0.748,-0.144,0.679,-14.53,1.71,19.53,1,2
16462.078,0.747,-0.162,0.683,-15.02,1.19,21.12,1,2
16462.078,0.746,-0.178,0.682,-15.08,0.43,21.49,1,2
16462.093,0.755,-0.193,0.68,-14.86,-0.18,21.18,1,2
16462.109,0.765,-0.207,0.681,-14.28,-0.18,20.75,1,2
16462.109,0.769,-0.218,0.68,-13.4,0.06,19.99,1,2
16462.125,0.764,-0.234,0.682,-11.75,0.4,17.98,1,2
16462.14,0.752,-0.248,0.684,-8.85,0.43,14.8,1,2
16462.14,0.743,-0.258,0.682,-5.31,-0.52,10.35,1,2
16462.156,0.742,-0.271,0.675,-0.98,-1.95,4.61,1,2
16462.156,0.747,-0.274,0.664,4.46,-2.72,-1.77,1,2
16462.171,0.752,-0.265,0.658,9.92,-3.45,-8.33,1,2
16462.187,0.759,-0.251,0.651,14.65,-4.33,-14.34,1,2
16462.187,0.752,-0.231,0.648,17.33,-4.49,-19.23,1,2
16462.203,0.746,-0.21,0.651,18.49,-4.52,-22.16,1,2
16462.218,0.734,-0.188,0.658,19.17,-4.0,-22.8,1,2
16462.218,0.727,-0.166,0.662,18.25,-4.06,-21.73,1,2
16462.234,0.726,-0.15,0.661,15.78,-5.01,-19.5,1,2
16462.25,0.724,-0.146,0.658,9.74,-5.62,-11.96,1,2
16462.25,0.729,-0.138,0.65,7.51,-5.19,-9.19,1,2
16462.265,0.728,-0.141,0.648,6.47,-4.09,-6.9,1,2
16462.265,0.728,-0.149,0.659,7.26,-3.88,-5.31,1,2
16462.281,0.728,-0.147,0.687,8.79,-4.7,-4.61,1,2
16462.296,0.727,-0.155,0.693,11.63,-6.32,-4.88,1,2
16462.296,0.729,-0.159,0.687,15.41,-8.27,-5.65,1,2
16462.312,0.724,-0.16,0.666,18.19,-10.04,-7.48,1,2
16462.328,0.717,-0.161,0.645,19.75,-11.2,-10.01,1,2
16462.328,0.72,-0.142,0.624,20.84,-11.57,-11.99,1,2
16462.343,0.719,-0.122,0.602,20.63,-10.25,-12.15,1,2
16462.359,0.723,-0.089,0.588,17.79,-8.61,-10.28,1,2
16462.375,0.723,-0.075,0.594,13.12,-6.68,-6.35,1,2
16462.375,0.725,-0.05,0.609,7.78,-5.52,-0.58,1,2
16462.375,0.731,-0.057,0.629,2.75,-4.39,6.35,1,2
16462.39,0.731,-0.071,0.649,-1.25,-3.91,12.82,1,2
16462.406,0.74,-0.09,0.67,-3.23,-4.39,17.24,1,2
16462.406,0.742,-0.115,0.684,-2.66,-5.19,19.01,1,2
16462.421,0.749,-0.125,0.692,-1.07,-6.47,19.1,1,2
16462.437,0.752,-0.15,0.7,1.19,-8.27,17.24,1,2
16462.437,0.761,-0.177,0.698,4.64,-10.28,13.86,1,2
16462.453,0.769,-0.2,0.684,9.43,-11.99,9.7,1,2
16462.468,0.766,-0.218,0.67,14.92,-13.37,3.75,1,2
16462.484,0.772,-0.231,0.657,21.0,-14.16,-3.69,1,2
16462.484,0.757,-0.227,0.637,27.92,-13.64,-10.93,1,2
16462.5,0.745,-0.204,0.619,33.39,-13.73,-17.82,1,2
16462.5,0.76,-0.183,0.61,35.89,-14.44,-22.98,1,2
16462.515,0.761,-0.148,0.608,36.35,-13.46,-25.67,1,2
16462.515,0.755,-0.104,0.613,35.1,-13.03,-26.0,1,2
16462.531,0.751,-0.066,0.622,31.28,-13.06,-23.68,1,2
16462.546,0.736,-0.032,0.628,26.49,-13.21,-19.56,1,2
16462.562,0.726,-0.02,0.635,21.39,-13.03,-13.89,1,2
16462.562,0.731,-0.004,0.642,16.48,-13.61,-7.42,1,2
16462.578,0.756,-0.008,0.647,11.29,-13.92,0.06,1,2
16462.578,0.765,-0.019,0.66,5.37,-13.52,7.14,1,2
16462.593,0.777,-0.038,0.671,0.95,-13.43,11.93,1,2
16462.609,0.782,-0.058,0.691,0.0,-13.95,13.4,1,2
16462.609,0.779,-0.079,0.712,3.85,-14.59,12.88,1,2
16462.625,0.778,-0.076,0.709,9.89,-16.75,10.71,1,2
16462.64,0.785,-0.071,0.697,14.56,-19.75,8.33,1,2
16462.64,0.793,-0.062,0.688,15.35,-21.58,7.87,1,2
16462.656,0.786,-0.064,0.68,13.64,-22.86,8.48,1,2
16462.671,0.779,-0.077,0.675,13.09,-23.93,8.76,1,2
16462.671,0.771,-0.092,0.672,15.08,-25.15,7.17,1,2
16462.687,0.774,-0.107,0.658,18.62,-26.37,4.03,1,2
16462.687,0.778,-0.11,0.642,22.77,-26.8,0.27,1,2
16462.703,0.792,-0.101,0.626,25.15,-26.25,-2.87,1,2
16462.718,0.781,-0.088,0.618,24.48,-24.51,-4.33,1,2
16462.718,0.768,-0.074,0.614,21.33,-23.47,-4.39,1,2
16462.734,0.755,-0.064,0.611,18.62,-23.62,-2.69,1,2
16462.75,0.751,-0.052,0.594,17.0,-25.39,-0.31,1,2
16462.75,0.773,-0.054,0.567,15.66,-27.16,2.53,1,2
16462.765,0.795,-0.054,0.543,13.64,-26.52,6.68,1,2
16462.781,0.808,-0.042,0.522,9.22,-23.5,11.75,1,2
16462.781,0.814,-0.053,0.524,2.62,-19.59,16.85,1,2
16462.796,0.81,-0.066,0.54,-4.18,-15.99,21.42,1,2
16462.812,0.798,-0.088,0.567,-9.0,-13.03,24.6,1,2
16462.812,0.79,-0.107,0.586,-11.17,-12.48,25.67,1,2
16462.828,0.783,-0.123,0.585,-9.92,-13.76,25.24,1,2
16462.828,0.791,-0.133,0.573,-6.38,-16.51,23.44,1,2
16462.843,0.822,-0.142,0.552,-2.04,-18.98,19.78,1,2
16462.859,0.851,-0.145,0.531,1.53,-19.75,16.08,1,2
16462.859,0.873,-0.147,0.525,3.63,-17.85,13.31,1,2
16462.875,0.867,-0.137,0.535,3.6,-15.17,10.28,1,2
16462.89,0.856,-0.127,0.552,2.84,-14.07,6.41,1,2
16462.89,0.86,-0.121,0.57,3.94,-14.1,3.17,1,2
16462.906,0.858,-0.098,0.576,6.16,-13.28,0.92,1,2
16462.906,0.842,-0.076,0.587,7.66,-12.33,-0.24,1,2
16462.921,0.819,-0.063,0.596,8.36,-12.39,0.0,1,2
16462.937,0.811,-0.062,0.599,8.36,-14.34,1.5,1,2
16462.937,0.809,-0.064,0.591,8.76,-17.73,3.05,1,2
16462.953,0.811,-0.064,0.559,8.85,-21.73,5.37,1,2
16462.968,0.838,-0.064,0.513,8.0,-25.91,7.05,1,2
16462.968,0.873,-0.083,0.48,8.42,-27.01,7.97,1,2
16462.984,0.894,-0.09,0.455,9.95,-24.41,8.06,1,2
16463.0,0.897,-0.1,0.458,10.35,-19.04,8.45,1,2
16463.015,0.884,-0.101,0.481,8.06,-13.82,8.7,1,2
16463.015,0.858,-0.117,0.513,5.07,-11.02,7.93,1,2
16463.031,0.841,-0.127,0.538,4.85,-12.12,6.01,1,2
16463.031,0.854,-0.114,0.539,8.48,-15.26,4.76,1,2
16463.046,0.863,-0.092,0.519,12.7,-17.88,5.25,1,2
16463.062,0.882,-0.073,0.497,14.4,-19.53,6.71,1,2
