timestamp,ax,ay,az,gx,gy,gz,orient_label,motion_label
16503.14,0.987,-0.114,0.126,-1.07,0.0,0.89,1,2
16503.156,0.992,-0.098,0.141,-0.18,1.13,-0.76,1,2
16503.171,0.954,-0.09,0.153,1.8,1.59,-2.56,1,2
16503.171,0.944,-0.089,0.158,3.39,-0.18,-2.29,1,2
16503.187,0.971,-0.081,0.15,2.81,-3.14,-1.83,1,2
16503.187,0.983,-0.094,0.138,2.78,-4.3,-2.59,1,2
16503.203,0.983,-0.089,0.143,4.24,-3.72,-3.23,1,2
16503.218,0.976,-0.077,0.136,5.22,-3.14,-3.39,1,2
16503.218,0.98,-0.077,0.129,4.06,-2.56,-3.05,1,2
16503.234,0.991,-0.077,0.132,2.04,-1.5,-2.84,1,2
16503.25,0.995,-0.078,0.141,0.82,0.18,-2.99,1,2
16503.25,0.983,-0.08,0.154,0.95,1.74,-3.27,1,2
16503.265,0.98,-0.078,0.168,1.56,2.11,-2.99,1,2
16503.281,0.986,-0.066,0.173,1.98,1.53,-2.44,1,2
16503.281,0.994,-0.057,0.175,1.62,0.58,-1.95,1,2
16503.296,0.996,-0.062,0.178,0.85,0.12,-1.4,1,2
16503.312,0.993,-0.067,0.178,0.82,-0.21,-0.4,1,2
16503.312,0.989,-0.067,0.178,0.85,-0.58,0.46,1,2
16503.328,0.987,-0.072,0.172,0.31,-1.89,0.67,1,2
16503.328,0.988,-0.084,0.164,-0.15,-3.33,0.21,1,2
16503.343,0.985,-0.091,0.153,-0.09,-3.78,-0.46,1,2
16503.359,0.98,-0.095,0.151,0.03,-3.75,-1.28,1,2
16503.359,0.983,-0.096,0.154,0.24,-3.6,-2.32,1,2
16503.375,0.971,-0.087,0.152,0.24,-3.3,-3.2,1,2
16503.39,0.96,-0.079,0.15,-1.19,-3.66,-3.2,1,2
16503.406,0.955,-0.073,0.149,-3.63,-4.94,-2.53,1,2
16503.406,0.959,-0.077,0.136,-5.8,-6.53,-2.01,1,2
16503.406,0.965,-0.081,0.132,-6.29,-7.48,-2.08,1,2
16503.421,0.971,-0.077,0.122,-4.94,-7.75,-2.9,1,2
16503.437,0.968,-0.075,0.11,-3.75,-7.87,-4.7,1,2
16503.437,0.965,-0.076,0.108,-2.41,-7.78,-6.62,1,2
16503.453,0.962,-0.066,0.108,-0.18,-7.17,-7.23,1,2
16503.468,0.956,-0.055,0.106,1.34,-6.38,-7.05,1,2
16503.468,0.946,-0.054,0.109,0.61,-6.35,-5.77,1,2
16503.484,0.937,-0.066,0.108,-1.31,-6.87,-3.42,1,2
16503.5,0.944,-0.083,0.098,-3.27,-7.42,-1.1,1,2
16503.5,0.961,-0.104,0.086,-4.33,-7.29,0.06,1,2
16503.515,0.978,-0.115,0.077,-4.94,-5.95,-0.34,1,2
16503.531,0.983,-0.123,0.076,-4.76,-3.91,-2.59,1,2
16503.531,0.992,-0.122,0.084,-3.66,-1.4,-5.74,1,2
16503.546,0.989,-0.116,0.094,-1.71,0.7,-9.46,1,2
16503.562,0.975,-0.105,0.101,1.04,1.74,-13.43,1,2
16503.562,0.967,-0.091,0.098,8.33,1.16,-19.47,1,2
16503.578,0.969,-0.075,0.086,11.32,0.95,-20.69,1,2
16503.593,0.975,-0.06,0.069,13.79,2.04,-20.84,1,2
16503.593,0.984,-0.049,0.051,15.63,4.3,-20.2,1,2
16503.609,0.994,-0.03,0.023,16.24,7.69,-19.26,1,2
16503.609,1.001,-0.025,0.024,16.21,11.32,-17.85,1,2
16503.625,1.007,-0.019,0.034,16.33,14.62,-15.63,1,2
16503.64,1.021,-0.016,0.048,16.66,17.55,-13.03,1,2
16503.64,1.033,-0.019,0.06,17.46,20.02,-10.25,1,2
16503.656,1.049,-0.021,0.07,18.4,21.42,-7.05,1,2
16503.671,1.066,-0.023,0.083,19.53,21.67,-4.15,1,2
16503.671,1.064,-0.029,0.092,21.73,20.26,-2.53,1,2
16503.687,1.053,-0.034,0.087,25.15,17.15,-1.95,1,2
16503.687,1.051,-0.035,0.07,28.81,11.81,-2.35,1,2
16503.703,1.046,-0.045,0.026,34.7,6.65,-3.45,1,2
16503.718,1.039,-0.031,-0.012,39.67,2.78,-5.46,1,2
16503.718,1.029,-0.038,-0.057,44.37,0.67,-8.48,1,2
16503.734,1.021,-0.028,-0.095,47.91,0.61,-12.24,1,2
16503.75,1.005,-0.02,-0.127,52.83,3.42,-16.51,1,2
16503.75,0.997,-0.006,-0.149,58.08,8.7,-21.91,1,2
16503.765,0.975,0.004,-0.157,62.35,16.14,-28.17,1,2
16503.781,0.945,0.01,-0.154,65.1,24.69,-34.06,1,2
16503.781,0.912,0.009,-0.135,66.99,32.81,-37.93,1,2
16503.796,0.889,0.011,-0.12,68.06,39.55,-38.85,1,2
16503.812,0.874,0.022,-0.109,67.35,45.35,-36.65,1,2
16503.812,0.877,0.044,-0.08,64.94,49.04,-33.3,1,2
16503.828,0.889,0.058,-0.046,63.08,50.84,-30.27,1,2
16503.828,0.901,0.066,-0.023,64.73,52.25,-27.86,1,2
16503.843,0.912,0.083,-0.012,71.66,54.41,-26.15,1,2
16503.859,0.912,0.096,-0.016,82.0,56.64,-24.84,1,2
16503.859,0.915,0.109,-0.032,90.4,59.18,-23.5,1,2
16503.875,0.912,0.121,-0.044,95.83,62.65,-21.91,1,2
16503.89,0.909,0.13,-0.045,98.76,67.35,-19.23,1,2
16503.906,0.874,0.137,-0.021,98.88,73.03,-16.14,1,2
16503.906,0.834,0.151,0.013,94.3,77.27,-11.9,1,2
16503.921,0.821,0.171,0.049,87.86,79.96,-7.08,1,2
16503.921,0.821,0.188,0.098,80.48,80.51,-4.18,1,2
16503.937,0.845,0.196,0.132,71.87,79.26,-4.52,1,2
16503.953,0.846,0.195,0.165,66.07,78.62,-6.1,1,2
16503.953,0.855,0.178,0.2,64.94,78.46,-6.38,1,2
16503.968,0.86,0.162,0.222,68.85,79.96,-5.07,1,2
16503.968,0.87,0.164,0.236,75.5,83.74,-2.66,1,2
16504.0,0.83,0.15,0.241,84.2,91.8,0.12,1,2
16504.0,0.814,0.131,0.237,81.24,93.75,0.95,1,2
16504.015,0.803,0.147,0.254,75.08,94.91,0.58,1,2
16504.031,0.812,0.178,0.309,67.29,94.18,-1.95,1,2
16504.031,0.829,0.212,0.388,58.81,92.9,-6.78,1,2
16504.046,0.815,0.233,0.461,53.53,92.56,-12.05,1,2
16504.046,0.769,0.214,0.514,53.62,91.8,-14.5,1,2
16504.062,0.729,0.185,0.57,57.8,87.86,-13.76,1,2
16504.078,0.709,0.161,0.588,64.3,80.66,-12.18,1,2
16504.078,0.721,0.137,0.538,70.93,71.78,-10.35,1,2
16504.093,0.784,0.149,0.491,73.89,66.41,-9.55,1,2
16504.109,0.832,0.168,0.452,72.45,67.63,-11.84,1,2
16504.109,0.877,0.222,0.458,63.88,73.98,-16.39,1,2
16504.125,0.87,0.239,0.476,53.35,83.07,-22.64,1,2
16504.14,0.858,0.237,0.514,43.37,90.88,-27.22,1,2
16504.14,0.838,0.275,0.581,36.96,96.16,-30.3,1,2
16504.171,0.746,0.243,0.704,44.28,95.22,-31.13,1,2
16504.171,0.719,0.248,0.726,49.62,87.04,-27.19,1,2
16504.187,0.694,0.217,0.732,55.15,76.85,-22.03,1,2
16504.203,0.693,0.19,0.709,57.5,66.56,-16.48,1,2
16504.203,0.742,0.219,0.686,51.61,58.96,-12.7,1,2
16504.218,0.754,0.232,0.694,40.1,58.23,-13.79,1,2
16504.218,0.763,0.248,0.714,29.66,59.33,-19.35,1,2
16504.234,0.811,0.314,0.736,20.6,61.77,-28.66,1,2
16504.25,0.745,0.295,0.763,13.37,68.97,-37.63,1,2
16504.25,0.687,0.237,0.814,10.56,73.92,-41.02,1,2
16504.265,0.66,0.251,0.866,18.1,74.37,-42.85,1,2
16504.281,0.6,0.276,0.884,34.64,70.38,-46.54,1,2
16504.281,0.568,0.308,0.87,49.2,64.49,-48.8,1,2
16504.296,0.569,0.37,0.876,55.24,60.4,-49.47,1,2
16504.312,0.587,0.425,0.88,55.09,57.86,-52.64,1,2
16504.312,0.596,0.47,0.88,52.31,58.02,-57.31,1,2
16504.328,0.52,0.528,0.907,48.65,64.61,-64.91,1,2
16504.343,0.474,0.549,0.934,47.3,64.33,-64.67,1,2
16504.359,0.432,0.56,0.953,47.76,58.84,-62.01,1,2
16504.375,0.386,0.544,0.942,49.53,49.93,-56.0,1,2
16504.375,0.398,0.589,0.927,50.6,37.6,-50.36,1,2
16504.39,0.411,0.624,0.898,49.32,26.73,-47.36,1,2
16504.39,0.417,0.629,0.88,44.28,19.35,-44.65,1,2
16504.406,0.432,0.647,0.867,38.36,15.17,-40.77,1,2
16504.421,0.436,0.661,0.845,33.6,13.76,-37.05,1,2
16504.421,0.431,0.655,0.819,28.69,13.67,-32.53,1,2
16504.437,0.436,0.635,0.793,22.95,14.31,-27.8,1,2
16504.453,0.447,0.617,0.77,16.36,15.17,-24.02,1,2
16504.453,0.451,0.606,0.764,9.77,15.81,-22.43,1,2
16504.468,0.435,0.59,0.772,4.21,15.41,-22.8,1,2
16504.468,0.417,0.578,0.779,1.34,13.4,-22.74,1,2
16504.484,0.414,0.571,0.788,2.08,10.04,-22.28,1,2
16504.5,0.416,0.575,0.757,10.01,3.14,-22.61,1,2
16504.515,0.412,0.579,0.728,15.14,1.31,-23.04,1,2
16504.531,0.419,0.594,0.703,18.34,0.61,-23.13,1,2
16504.531,0.432,0.597,0.673,19.62,1.07,-23.32,1,2
16504.546,0.446,0.61,0.651,14.19,6.62,-23.1,1,2
16504.562,0.442,0.617,0.638,9.64,9.37,-21.91,1,2
16504.562,0.435,0.617,0.642,4.85,10.68,-20.23,1,2
16504.578,0.434,0.622,0.64,0.37,11.35,-19.29,1,2
16504.593,0.423,0.615,0.641,-3.33,12.21,-19.35,1,2
16504.593,0.42,0.61,0.652,-4.55,13.76,-19.78,1,2
16504.609,0.402,0.601,0.668,-3.39,14.98,-19.23,1,2
16504.609,0.397,0.583,0.68,0.4,14.83,-16.94,1,2
16504.625,0.415,0.577,0.691,5.1,12.94,-15.59,1,2
16504.64,0.435,0.59,0.698,9.92,9.43,-17.0,1,2
16504.64,0.451,0.601,0.699,15.53,5.52,-20.45,1,2
16504.656,0.467,0.637,0.695,22.71,3.3,-24.23,1,2
16504.671,0.486,0.747,0.676,38.88,7.32,-30.85,1,2
16504.687,0.463,0.786,0.668,39.8,10.38,-30.24,1,2
16504.703,0.428,0.779,0.661,34.91,12.67,-24.78,1,2
16504.703,0.4,0.737,0.643,27.74,13.31,-17.18,1,2
16504.718,0.382,0.691,0.623,20.45,10.74,-10.01,1,2
16504.734,0.377,0.658,0.612,12.73,5.46,-5.8,1,2
16504.734,0.38,0.628,0.605,5.31,-1.34,-4.06,1,2
16504.75,0.394,0.596,0.6,-0.52,-7.72,-3.17,1,2
16504.75,0.415,0.582,0.598,-4.55,-12.15,-2.5,1,2
16504.765,0.443,0.572,0.594,-5.65,-13.52,-2.23,1,2
16504.781,0.471,0.55,0.592,-3.88,-11.11,-2.2,1,2
16504.781,0.485,0.542,0.602,-1.07,-6.78,-3.14,1,2
16504.796,0.494,0.54,0.62,2.26,-2.35,-5.1,1,2
16504.796,0.499,0.536,0.637,5.74,0.95,-7.35,1,2
16504.812,0.492,0.549,0.656,7.97,2.78,-9.74,1,2
16504.828,0.492,0.582,0.673,8.82,3.27,-11.87,1,2
16504.843,0.47,0.629,0.701,8.27,1.37,-14.71,1,2
16504.859,0.458,0.634,0.695,10.19,-0.76,-14.77,1,2
16504.859,0.456,0.639,0.678,13.0,-2.72,-14.47,1,2
16504.875,0.451,0.636,0.65,15.59,-3.48,-14.19,1,2
16504.89,0.442,0.622,0.624,16.54,-3.08,-14.01,1,2
16504.89,0.436,0.612,0.605,16.57,-1.92,-13.12,1,2
16504.906,0.443,0.61,0.592,16.08,-0.43,-12.18,1,2
16504.921,0.45,0.618,0.585,14.65,1.56,-11.75,1,2
16504.921,0.449,0.631,0.585,12.48,3.54,-12.02,1,2
16504.937,0.442,0.647,0.588,9.28,4.85,-12.42,1,2
16504.937,0.424,0.672,0.604,5.77,5.43,-12.73,1,2
16504.953,0.402,0.697,0.623,3.05,5.01,-11.47,1,2
16504.968,0.388,0.713,0.636,1.01,3.08,-8.55,1,2
16504.968,0.385,0.719,0.633,-0.82,0.82,-5.04,1,2
16504.984,0.378,0.72,0.631,-3.94,-1.43,-1.8,1,2
16505.0,0.381,0.703,0.627,-7.66,-4.94,1.4,1,2
16505.015,0.419,0.667,0.597,-14.25,-11.44,7.29,1,2
16505.031,0.443,0.655,0.583,-18.07,-12.6,8.42,1,2
16505.031,0.463,0.638,0.574,-21.79,-12.24,8.21,1,2
16505.046,0.47,0.62,0.572,-25.15,-10.5,7.11,1,2
16505.062,0.48,0.608,0.576,-27.62,-7.69,5.95,1,2
16505.062,0.482,0.599,0.586,-28.99,-4.33,4.46,1,2
16505.078,0.483,0.59,0.604,-29.82,-0.98,2.81,1,2
16505.078,0.468,0.587,0.631,-29.08,1.8,0.95,1,2
16505.093,0.449,0.587,0.659,-27.22,2.96,-0.21,1,2
16505.109,0.438,0.588,0.684,-25.42,2.84,-0.7,1,2
16505.109,0.427,0.583,0.694,-23.62,1.71,-1.01,1,2
16505.125,0.414,0.577,0.7,-22.0,-0.21,-1.43,1,2
16505.14,0.415,0.57,0.704,-20.42,-2.56,-1.22,1,2
16505.14,0.419,0.571,0.701,-18.62,-4.79,-1.13,1,2
16505.156,0.425,0.569,0.697,-16.66,-6.68,-1.37,1,2
16505.171,0.436,0.569,0.692,-14.25,-8.06,-1.43,1,2
16505.187,0.454,0.56,0.679,-8.0,-8.12,-2.08,1,2
16505.203,0.456,0.55,0.672,-4.49,-6.84,-2.78,1,2
16505.203,0.463,0.543,0.668,-1.34,-5.16,-3.85,1,2
16505.218,0.47,0.539,0.669,1.34,-3.54,-5.55,1,2
16505.218,0.465,0.54,0.679,4.3,-2.35,-7.63,1,2
16505.234,0.461,0.559,0.698,7.63,-2.35,-9.58,1,2
16505.25,0.457,0.574,0.702,10.83,-4.03,-11.84,1,2
16505.265,0.44,0.581,0.688,12.79,-6.71,-14.19,1,2
16505.265,0.43,0.589,0.675,12.48,-10.35,-15.93,1,2
16505.281,0.435,0.596,0.657,10.5,-13.73,-17.52,1,2
16505.281,0.437,0.6,0.642,8.03,-14.86,-18.95,1,2
16505.296,0.439,0.607,0.633,6.53,-14.19,-19.44,1,2
16505.312,0.437,0.617,0.622,7.32,-11.81,-18.65,1,2
16505.312,0.436,0.623,0.618,8.61,-8.79,-16.94,1,2
16505.328,0.441,0.622,0.614,8.91,-6.53,-15.56,1,2
16505.328,0.444,0.62,0.617,7.72,-5.25,-15.17,1,2
16505.359,0.425,0.631,0.653,8.64,-2.35,-13.61,1,2
16505.359,0.402,0.642,0.664,10.93,-2.66,-11.57,1,2
16505.375,0.381,0.654,0.662,11.26,-4.76,-9.13,1,2
16505.39,0.374,0.658,0.657,9.31,-7.81,-6.53,1,2
16505.39,0.375,0.661,0.649,7.05,-11.2,-3.69,1,2
16505.406,0.386,0.663,0.636,5.16,-14.07,-0.61,1,2
16505.421,0.404,0.659,0.625,3.6,-15.66,2.44,1,2
16505.421,0.424,0.653,0.616,2.53,-16.05,5.34,1,2
16505.437,0.44,0.649,0.605,2.62,-15.32,7.81,1,2
16505.437,0.459,0.646,0.595,2.78,-14.01,9.64,1,2
16505.453,0.466,0.63,0.592,1.4,-12.27,10.01,1,2
16505.468,0.478,0.611,0.585,-0.09,-10.65,9.19,1,2
16505.468,0.483,0.603,0.592,-2.26,-8.88,7.14,1,2
16505.484,0.478,0.595,0.609,-4.3,-7.42,4.36,1,2
16505.5,0.468,0.59,0.618,-4.55,-6.26,1.71,1,2
16505.5,0.454,0.601,0.633,-4.33,-5.65,-0.64,1,2
16505.531,0.435,0.62,0.657,-2.87,-6.38,-2.44,1,2
16505.546,0.426,0.621,0.66,2.99,-8.03,1.65,1,2
16505.546,0.432,0.625,0.66,6.2,-9.06,3.6,1,2
16505.546,0.437,0.609,0.649,8.0,-10.35,4.61,1,2
16505.562,0.47,0.601,0.624,9.03,-11.23,3.94,1,2
16505.578,0.489,0.603,0.612,9.34,-11.57,1.98,1,2
16505.578,0.492,0.605,0.601,9.19,-10.96,-0.85,1,2
16505.593,0.493,0.607,0.592,9.22,-9.52,-3.6,1,2
16505.609,0.482,0.608,0.579,9.49,-7.23,-5.71,1,2
16505.609,0.477,0.614,0.575,8.91,-4.85,-7.11,1,2
16505.625,0.473,0.63,0.577,8.12,-1.8,-7.48,1,2
16505.64,0.464,0.643,0.584,7.57,1.5,-6.93,1,2
16505.64,0.456,0.644,0.593,7.72,4.21,-5.86,1,2
16505.656,0.445,0.643,0.601,7.78,6.16,-4.33,1,2
16505.671,0.436,0.644,0.612,7.54,6.71,-3.14,1,2
16505.671,0.43,0.647,0.621,6.78,5.52,-2.17,1,2
16505.687,0.432,0.656,0.628,4.97,2.56,-1.4,1,2
16505.687,0.438,0.657,0.623,3.2,-1.1,-1.01,1,2
16505.703,0.444,0.657,0.61,2.38,-3.75,-0.43,1,2
16505.718,0.448,0.656,0.595,2.14,-4.61,0.67,1,2
16505.718,0.453,0.652,0.581,1.83,-3.85,2.11,1,2
16505.734,0.458,0.649,0.576,0.76,-1.86,3.39,1,2
16505.75,0.459,0.648,0.575,-0.31,0.89,4.49,1,2
16505.765,0.452,0.646,0.575,-1.43,3.72,5.58,1,2
16505.765,0.445,0.653,0.569,-2.81,6.47,7.35,1,2
16505.781,0.448,0.671,0.573,-4.94,9.0,9.64,1,2
16505.781,0.447,0.679,0.572,-7.6,11.35,11.84,1,2
16505.796,0.44,0.678,0.574,-10.38,12.94,14.28,1,2
16505.812,0.441,0.682,0.583,-12.88,13.89,17.33,1,2
16505.812,0.441,0.689,0.587,-14.65,14.95,20.94,1,2
16505.828,0.443,0.684,0.592,-16.02,15.9,24.54,1,2
16505.828,0.444,0.679,0.593,-17.43,16.54,27.65,1,2
16505.843,0.441,0.686,0.591,-19.9,16.79,30.09,1,2
16505.859,0.437,0.683,0.585,-24.29,16.75,32.17,1,2
16505.859,0.446,0.682,0.586,-29.69,17.64,34.42,1,2
16505.875,0.448,0.708,0.595,-32.99,20.97,37.75,1,2
16505.89,0.468,0.751,0.598,-35.62,26.0,42.63,1,2
16505.89,0.488,0.774,0.566,-38.67,32.87,46.66,1,2
16505.906,0.503,0.786,0.528,-42.88,45.23,50.23,1,2
16505.921,0.51,0.824,0.508,-48.28,65.25,51.21,1,2
16505.921,0.456,0.82,0.503,-53.96,93.3,49.04,1,2
16505.937,0.351,0.762,0.469,-44.01,121.52,37.02,1,2
16505.937,0.35,0.786,0.476,-28.75,144.63,34.58,1,2
16505.953,0.243,0.815,0.481,-26.86,164.86,36.68,1,2
16505.968,0.15,0.753,0.476,-33.02,174.5,41.66,1,2
16505.968,0.095,0.694,0.526,-46.69,175.15,49.96,1,2
16505.984,0.082,0.618,0.615,-62.17,166.66,54.66,1,2
16506.0,0.093,0.521,0.711,-78.01,148.72,55.15,1,2
16506.0,0.126,0.435,0.772,-87.1,127.99,52.06,1,2
16506.015,0.174,0.345,0.806,-86.18,111.55,47.58,1,2
16506.031,0.225,0.251,0.917,-67.87,90.52,38.12,1,2
16506.046,0.248,0.195,0.954,-51.45,80.54,36.87,1,2
16506.062,0.273,0.159,0.95,-30.52,71.08,37.23,1,2
16506.062,0.297,0.139,0.934,-9.4,63.69,36.04,1,2
16506.078,0.339,0.156,0.925,5.58,59.18,31.62,1,2
16506.093,0.359,0.183,0.923,10.04,55.88,23.77,1,2
16506.093,0.363,0.23,0.92,5.4,52.67,13.28,1,2
16506.109,0.372,0.252,0.928,-4.76,49.71,4.61,1,2
16506.109,0.359,0.268,0.939,-16.36,46.54,-2.81,1,2
16506.125,0.356,0.264,0.954,-26.76,43.24,-7.51,1,2
16506.14,0.349,0.278,0.972,-33.57,40.41,-11.72,1,2
16506.14,0.28,0.284,1.073,-35.71,35.86,-14.77,1,2
16506.156,0.219,0.262,1.224,-31.5,21.91,-12.94,1,2
16506.171,0.252,0.26,1.227,-26.73,-0.49,-9.92,1,2
16506.171,0.311,0.293,1.136,-27.56,-19.17,-9.89,1,2
16506.187,0.321,0.241,1.037,-26.4,-26.0,-10.28,1,2
16506.203,0.365,0.225,0.936,-10.22,-19.44,-11.38,1,2
16506.218,0.344,0.266,0.906,0.4,-13.43,-12.54,1,2
16506.218,0.311,0.308,0.887,8.48,-8.85,-11.11,1,2
16506.234,0.283,0.35,0.863,13.18,-6.16,-6.44,1,2
16506.25,0.266,0.369,0.84,16.17,-3.88,-0.03,1,2
16506.25,0.257,0.37,0.814,18.46,-1.37,5.19,1,2
16506.265,0.253,0.393,0.806,18.28,1.8,8.27,1,2
16506.281,0.241,0.396,0.815,16.57,4.61,9.43,1,2
16506.281,0.218,0.397,0.843,13.18,6.87,9.77,1,2
16506.296,0.202,0.426,0.887,8.21,7.84,10.01,1,2
16506.296,0.189,0.439,0.921,2.53,6.9,10.5,1,2
16506.312,0.187,0.435,0.947,-4.12,4.97,11.08,1,2
16506.328,0.195,0.42,0.948,-9.03,3.42,12.15,1,2
16506.343,0.211,0.399,0.93,-10.71,3.6,13.95,1,2
16506.343,0.229,0.386,0.917,-9.13,5.34,15.02,1,2
16506.359,0.239,0.373,0.905,-4.76,7.39,14.34,1,2
16506.375,0.232,0.365,0.869,4.73,8.73,12.91,1,2
16506.39,0.234,0.384,0.856,5.8,8.12,12.73,1,2
16506.39,0.229,0.385,0.848,4.15,7.57,12.94,1,2
16506.406,0.224,0.385,0.854,0.67,7.9,13.58,1,2
16506.421,0.221,0.372,0.863,-3.23,8.24,13.55,1,2
16506.421,0.214,0.363,0.881,-6.26,8.55,13.49,1,2
16506.437,0.207,0.348,0.894,-6.59,8.64,13.7,1,2
16506.453,0.218,0.338,0.899,-4.12,8.33,14.31,1,2
16506.453,0.238,0.341,0.905,0.06,7.9,14.34,1,2
16506.468,0.253,0.337,0.907,4.82,7.26,13.12,1,2
16506.468,0.259,0.334,0.905,9.49,6.23,11.05,1,2
16506.484,0.258,0.339,0.905,13.12,5.95,8.55,1,2
16506.5,0.25,0.344,0.903,14.37,6.38,5.86,1,2
16506.5,0.232,0.374,0.908,10.93,6.96,2.44,1,2
16506.515,0.207,0.407,0.92,-5.65,5.13,-1.22,1,2
16506.531,0.181,0.425,0.941,-10.74,2.93,1.68,1,2
16506.531,0.169,0.423,0.941,-10.44,1.25,6.74,1,2
16506.546,0.186,0.417,0.922,-4.7,1.01,10.53,1,2
16506.562,0.223,0.381,0.878,2.84,1.07,11.02,1,2
16506.562,0.221,0.384,0.856,9.83,0.98,9.86,1,2
16506.578,0.213,0.403,0.831,14.86,1.13,9.4,1,2
16506.578,0.215,0.448,0.82,15.66,2.5,9.67,1,2
16506.593,0.203,0.482,0.823,12.33,3.81,9.4,1,2
16506.609,0.194,0.482,0.828,6.5,4.27,10.59,1,2
16506.625,0.202,0.478,0.83,0.67,4.46,13.06,1,2
16506.625,0.213,0.462,0.832,-3.69,3.94,15.41,1,2
16506.64,0.233,0.439,0.838,-6.96,3.05,16.72,1,2
16506.64,0.247,0.428,0.835,-8.48,1.37,16.69,1,2
16506.656,0.259,0.421,0.835,-8.39,0.43,17.21,1,2
16506.671,0.277,0.411,0.848,-7.2,1.13,17.76,1,2
16506.671,0.288,0.394,0.863,-5.62,2.72,17.21,1,2
16506.687,0.295,0.379,0.886,-4.61,4.61,15.84,1,2
16506.687,0.297,0.372,0.92,-5.16,6.62,14.16,1,2
16506.703,0.289,0.361,0.949,-6.59,7.93,12.05,1,2
16506.718,0.286,0.349,0.968,-7.66,8.36,10.62,1,2
16506.718,0.294,0.345,0.984,-7.2,8.67,9.92,1,2
16506.734,0.3,0.34,0.982,-5.28,8.73,8.55,1,2
16506.75,0.301,0.334,0.962,-3.11,8.67,6.04,1,2
16506.75,0.296,0.339,0.945,-0.92,9.19,3.54,1,2
16506.765,0.28,0.349,0.928,0.82,9.86,1.56,1,2
16506.781,0.262,0.361,0.909,2.17,10.99,1.25,1,2
16506.781,0.25,0.374,0.895,2.96,12.85,2.44,1,2
16506.796,0.234,0.382,0.893,3.3,15.05,3.54,1,2
16506.812,0.205,0.392,0.896,2.66,17.27,3.48,1,2
16506.812,0.185,0.407,0.899,0.43,18.56,2.59,1,2
16506.828,0.151,0.413,0.907,-2.81,19.01,1.95,1,2
16506.828,0.122,0.411,0.92,-6.35,17.73,2.56,1,2
16506.843,0.098,0.397,0.931,-8.61,14.86,4.58,1,2
16506.859,0.088,0.37,0.93,-9.61,11.75,6.65,1,2
16506.859,0.09,0.345,0.933,-9.19,10.22,7.84,1,2
16506.875,0.086,0.314,0.939,-7.2,10.13,7.63,1,2
16506.89,0.08,0.288,0.937,-4.33,10.41,6.29,1,2
16506.89,0.079,0.276,0.933,-1.28,9.77,4.43,1,2
16506.906,0.083,0.264,0.924,1.25,8.73,2.62,1,2
16506.921,0.09,0.263,0.922,3.14,7.51,0.89,1,2
16506.921,0.096,0.259,0.927,4.12,6.84,-1.13,1,2
16506.937,0.116,0.252,0.936,4.15,6.68,-3.48,1,2
16506.937,0.129,0.249,0.948,3.57,5.55,-6.81,1,2
16506.953,0.15,0.243,0.959,3.48,3.08,-10.16,1,2
16506.968,0.173,0.238,0.962,5.58,-0.31,-12.79,1,2
16506.968,0.196,0.245,0.946,9.55,-3.75,-15.5,1,2
16506.984,0.214,0.262,0.929,13.55,-7.17,-19.01,1,2
16507.0,0.225,0.292,0.912,16.05,-9.89,-22.8,1,2
16507.0,0.233,0.334,0.9,15.96,-12.05,-25.67,1,2
16507.015,0.233,0.36,0.886,14.25,-13.89,-27.19,1,2
16507.031,0.241,0.387,0.875,11.54,-15.53,-26.95,1,2
16507.031,0.256,0.414,0.868,9.28,-16.24,-26.28,1,2
16507.046,0.262,0.424,0.854,8.15,-16.27,-24.81,1,2
16507.046,0.28,0.451,0.837,8.48,-15.84,-22.95,1,2
16507.062,0.29,0.483,0.821,9.83,-14.47,-21.58,1,2
16507.078,0.29,0.519,0.809,10.83,-12.51,-20.45,1,2
16507.093,0.278,0.556,0.806,11.47,-10.19,-18.62,1,2
16507.093,0.272,0.585,0.801,11.9,-8.36,-15.75,1,2
16507.109,0.271,0.602,0.799,10.65,-7.08,-12.05,1,2
16507.109,0.262,0.599,0.803,7.39,-6.99,-9.09,1,2
16507.125,0.245,0.59,0.818,3.02,-8.36,-6.87,1,2
16507.14,0.232,0.57,0.815,-1.74,-10.99,-4.7,1,2
16507.14,0.229,0.537,0.789,-7.26,-12.88,-2.32,1,2
16507.156,0.22,0.502,0.764,-12.33,-11.6,0.61,1,2
16507.171,0.194,0.474,0.774,-14.37,-7.08,3.54,1,2
16507.171,0.164,0.468,0.797,-12.36,-1.65,6.9,1,2
16507.187,0.135,0.467,0.826,-6.93,2.99,10.9,1,2
16507.187,0.116,0.458,0.861,-1.53,6.07,14.13,1,2
16507.203,0.101,0.438,0.893,2.32,7.45,16.66,1,2
16507.218,0.096,0.415,0.913,3.88,7.14,18.34,1,2
16507.218,0.1,0.387,0.929,2.32,6.13,19.01,1,2
16507.234,0.105,0.346,0.941,-1.01,5.22,18.74,1,2
16507.25,0.113,0.299,0.953,-5.19,4.88,17.43,1,2
16507.25,0.123,0.256,0.978,-9.06,5.25,15.29,1,2
16507.265,0.127,0.218,1.003,-11.02,5.52,12.12,1,2
16507.281,0.13,0.191,1.022,-11.17,6.01,8.45,1,2
16507.281,0.136,0.185,1.038,-9.74,6.9,4.73,1,2
16507.296,0.144,0.184,1.045,-7.08,7.57,1.07,1,2
16507.312,0.155,0.196,1.037,-2.81,7.54,-2.32,1,2
16507.312,0.17,0.221,1.014,4.24,8.03,-5.07,1,2
16507.328,0.183,0.258,0.989,12.54,8.24,-7.26,1,2
16507.328,0.185,0.305,0.963,19.56,6.87,-8.79,1,2
16507.343,0.183,0.353,0.934,23.56,3.94,-9.7,1,2
16507.359,0.188,0.386,0.901,24.45,0.4,-9.74,1,2
16507.375,0.198,0.402,0.874,22.16,-2.14,-9.58,1,2
16507.375,0.201,0.404,0.858,17.98,-3.17,-9.61,1,2
16507.39,0.203,0.398,0.863,13.03,-2.69,-9.83,1,2
16507.406,0.198,0.393,0.884,6.2,-3.6,-11.63,1,2
16507.421,0.201,0.39,0.886,3.97,-5.68,-12.6,1,2
16507.421,0.202,0.374,0.889,3.08,-6.44,-13.28,1,2
16507.437,0.202,0.356,0.891,3.81,-7.69,-13.89,1,2
16507.437,0.204,0.354,0.884,5.92,-9.64,-14.65,1,2
16507.453,0.206,0.36,0.876,8.45,-10.99,-15.69,1,2
16507.468,0.207,0.365,0.864,11.66,-12.02,-15.81,1,2
16507.484,0.214,0.38,0.85,16.05,-12.27,-13.92,1,2
16507.484,0.232,0.403,0.84,21.21,-11.54,-11.9,1,2
16507.5,0.237,0.415,0.829,31.31,-9.8,-10.5,1,2
16507.5,0.232,0.441,0.827,33.51,-8.39,-9.86,1,2
16507.515,0.22,0.482,0.833,33.75,-7.05,-7.69,1,2
16507.531,0.193,0.523,0.85,33.42,-6.74,-2.04,1,2
16507.531,0.142,0.546,0.9,31.28,-9.98,5.31,1,2
16507.546,0.134,0.521,0.907,27.19,-17.67,10.59,1,2
16507.546,0.124,0.484,0.944,19.78,-29.85,11.93,1,2
16507.578,0.199,0.467,0.98,13.06,-63.39,13.64,1,2
16507.578,0.241,0.458,0.926,7.42,-73.09,11.78,1,2
16507.593,0.275,0.408,0.896,2.01,-76.24,6.9,1,2
16507.609,0.304,0.369,0.865,-0.15,-74.62,0.46,1,2
16507.625,0.308,0.374,0.841,0.0,-69.73,-7.17,1,2
16507.625,0.307,0.377,0.82,0.95,-63.14,-13.95,1,2
16507.64,0.304,0.376,0.808,2.59,-57.37,-19.01,1,2
16507.64,0.309,0.392,0.797,4.18,-53.71,-22.77,1,2
16507.656,0.321,0.425,0.784,4.36,-51.12,-26.25,1,2
16507.671,0.33,0.451,0.767,2.47,-49.53,-30.7,1,2
16507.671,0.331,0.477,0.751,-1.16,-47.82,-35.43,1,2
16507.687,0.327,0.496,0.732,-5.04,-45.2,-38.7,1,2
16507.687,0.321,0.51,0.71,-7.78,-40.19,-39.03,1,2
16507.703,0.319,0.525,0.69,-8.64,-31.28,-36.16,1,2
16507.718,0.318,0.545,0.686,-8.21,-19.5,-31.68,1,2
16507.718,0.311,0.543,0.691,-8.24,-7.48,-27.34,1,2
16507.734,0.307,0.541,0.693,-9.03,2.53,-23.32,1,2
16507.75,0.3,0.538,0.692,-10.01,10.16,-19.5,1,2
16507.75,0.293,0.532,0.701,-9.77,16.02,-16.63,1,2
16507.765,0.289,0.541,0.692,-9.34,19.23,-14.89,1,2
16507.781,0.291,0.564,0.701,-9.77,20.75,-12.82,1,2
16507.781,0.29,0.581,0.686,-8.39,23.07,-9.89,1,2
16507.796,0.232,0.63,0.763,-7.26,26.06,-5.34,1,2
16507.812,0.151,0.655,0.957,-0.67,20.69,4.88,1,2
16507.812,0.238,0.631,0.956,4.27,3.39,15.9,1,2
16507.828,0.289,0.681,0.897,-3.75,-9.06,18.68,1,2
16507.828,0.31,0.62,0.877,-10.74,-9.4,20.84,1,2
16507.843,0.342,0.555,0.847,-13.86,-5.1,22.89,1,2
16507.859,0.347,0.523,0.824,-13.95,1.59,22.71,1,2
16507.875,0.331,0.488,0.823,-10.68,8.33,22.4,1,2
16507.875,0.309,0.475,0.827,-6.96,12.91,22.83,1,2
16507.89,0.293,0.473,0.834,-4.21,14.77,24.2,1,2
16507.89,0.28,0.468,0.831,-0.98,15.35,25.24,1,2
16507.906,0.27,0.462,0.814,2.01,15.87,26.22,1,2
16507.921,0.265,0.461,0.807,3.66,16.11,27.01,1,2
16507.921,0.263,0.453,0.802,4.27,15.84,27.16,1,2
16507.937,0.261,0.447,0.8,3.57,15.41,26.61,1,2
16507.937,0.269,0.444,0.805,2.23,15.2,26.64,1,2
16507.953,0.275,0.435,0.819,0.61,15.59,26.73,1,2
16507.968,0.277,0.427,0.839,-1.04,15.66,26.12,1,2
16507.968,0.281,0.425,0.853,-2.78,14.8,25.39,1,2
16507.984,0.284,0.423,0.865,-3.39,14.19,24.2,1,2
16508.0,0.284,0.421,0.873,-2.59,13.95,22.95,1,2
16508.0,0.281,0.424,0.866,-0.52,13.92,22.49,1,2
16508.015,0.275,0.438,0.855,2.87,14.47,23.35,1,2
16508.031,0.272,0.447,0.845,6.74,15.5,24.29,1,2
16508.031,0.265,0.447,0.833,9.86,16.57,25.51,1,2
16508.046,0.267,0.445,0.823,12.18,17.91,27.5,1,2
16508.062,0.275,0.433,0.824,13.09,19.04,29.05,1,2
16508.062,0.278,0.433,0.829,11.69,19.29,28.53,1,2
16508.078,0.269,0.427,0.846,7.48,18.49,25.88,1,2
16508.078,0.268,0.401,0.87,1.77,16.17,23.16,1,2
16508.093,0.269,0.382,0.884,-2.59,13.06,20.75,1,2
16508.109,0.267,0.37,0.896,-4.3,10.41,18.07,1,2
16508.109,0.27,0.35,0.898,-3.51,8.76,16.66,1,2
16508.125,0.277,0.337,0.906,-1.56,8.7,16.05,1,2
16508.14,0.273,0.34,0.924,0.49,8.39,13.37,1,2
16508.14,0.265,0.342,0.933,0.49,5.28,8.76,1,2
16508.156,0.266,0.346,0.927,-1.77,0.31,3.81,1,2
16508.156,0.27,0.35,0.917,-4.64,-3.6,-0.46,1,2
16508.171,0.275,0.348,0.909,-6.87,-5.58,-3.6,1,2
16508.187,0.277,0.345,0.899,-7.45,-6.65,-6.35,1,2
16508.187,0.275,0.339,0.885,-4.97,-6.68,-8.61,1,2
16508.203,0.28,0.343,0.872,0.21,-5.98,-9.77,1,2
16508.218,0.282,0.348,0.858,6.62,-4.82,-11.23,1,2
16508.234,0.28,0.366,0.847,10.96,-4.27,-13.52,1,2
16508.234,0.275,0.39,0.847,11.47,-4.55,-15.78,1,2
16508.25,0.264,0.434,0.865,5.16,-6.2,-17.49,1,2
16508.265,0.251,0.439,0.885,1.53,-7.54,-16.54,1,2
16508.281,0.261,0.448,0.866,-0.98,-9.4,-14.5,1,2
16508.281,0.271,0.47,0.865,-6.23,-10.38,-14.07,1,2
16508.296,0.265,0.49,0.894,-13.12,-11.11,-15.5,1,2
16508.312,0.256,0.486,0.899,-16.17,-12.12,-15.84,1,2
16508.312,0.258,0.462,0.881,-15.17,-12.63,-14.28,1,2
16508.328,0.263,0.442,0.859,-11.51,-12.24,-12.45,1,2
16508.328,0.267,0.434,0.844,-6.41,-10.44,-11.6,1,2
16508.343,0.259,0.435,0.838,-1.89,-8.73,-12.15,1,2
16508.359,0.25,0.441,0.836,0.98,-8.27,-13.4,1,2
16508.359,0.247,0.449,0.836,2.9,-8.73,-14.19,1,2
16508.375,0.252,0.459,0.837,2.62,-9.49,-14.68,1,2
16508.39,0.251,0.452,0.843,0.37,-10.56,-16.17,1,2
16508.39,0.25,0.448,0.843,-2.08,-11.63,-18.22,1,2
16508.406,0.246,0.452,0.831,-4.06,-12.3,-18.95,1,2
16508.421,0.245,0.449,0.825,-5.07,-11.54,-16.51,1,2
16508.437,0.251,0.452,0.834,-4.39,-9.95,-12.24,1,2
16508.437,0.262,0.459,0.843,-0.92,-8.24,-9.43,1,2
16508.437,0.268,0.458,0.841,2.38,-7.45,-8.58,1,2
16508.453,0.268,0.459,0.835,3.02,-7.45,-8.48,1,2
16508.468,0.277,0.466,0.832,1.68,-7.72,-8.27,1,2
16508.468,0.283,0.469,0.83,0.27,-7.29,-8.09,1,2
16508.484,0.287,0.465,0.826,-0.55,-5.71,-6.2,1,2
16508.5,0.291,0.466,0.824,0.24,-4.61,-4.46,1,2
16508.5,0.299,0.471,0.827,1.28,-2.93,-3.3,1,2
16508.515,0.297,0.473,0.838,1.25,-1.28,-2.23,1,2
16508.531,0.294,0.46,0.849,0.89,-0.15,-1.98,1,2
16508.531,0.289,0.44,0.858,0.46,0.24,-2.72,1,2
16508.546,0.281,0.428,0.862,0.15,-0.15,-4.43,1,2
16508.562,0.268,0.422,0.86,0.46,-0.98,-6.01,1,2
16508.562,0.263,0.419,0.852,1.1,-2.01,-6.74,1,2
16508.578,0.263,0.425,0.841,1.43,-2.96,-7.02,1,2
16508.593,0.264,0.437,0.832,1.16,-3.48,-6.56,1,2
16508.609,0.262,0.451,0.835,1.28,-3.2,-5.31,1,2
16508.609,0.265,0.463,0.837,1.68,-2.53,-3.72,1,2
16508.625,0.271,0.468,0.844,1.37,-1.34,-2.69,1,2
16508.64,0.271,0.46,0.852,0.37,-0.24,-2.56,1,2
16508.64,0.269,0.444,0.862,-0.82,0.34,-2.93,1,2
16508.656,0.273,0.427,0.873,-1.43,0.92,-3.36,1,2
16508.656,0.27,0.414,0.886,-2.35,1.13,-4.79,1,2
16508.671,0.262,0.406,0.896,-3.75,0.34,-6.71,1,2
16508.687,0.259,0.398,0.903,-5.19,-0.98,-8.03,1,2
16508.687,0.258,0.392,0.904,-6.84,-2.81,-9.28,1,2
16508.703,0.259,0.378,0.901,-8.15,-5.07,-10.83,1,2
16508.718,0.265,0.367,0.892,-8.67,-7.48,-12.85,1,2
16508.718,0.271,0.363,0.882,-9.0,-9.03,-15.32,1,2
16508.734,0.274,0.366,0.88,-9.55,-10.01,-17.82,1,2
16508.75,0.28,0.37,0.878,-9.7,-10.22,-20.14,1,2
16508.765,0.283,0.385,0.878,-9.52,-9.8,-24.08,1,2
16508.781,0.287,0.388,0.87,-9.74,-10.47,-26.22,1,2
16508.781,0.293,0.401,0.857,-10.01,-11.26,-28.17,1,2
16508.796,0.301,0.416,0.845,-9.8,-11.57,-29.3,1,2
16508.796,0.311,0.425,0.827,-9.52,-11.23,-29.45,1,2
16508.812,0.31,0.448,0.821,-10.22,-10.13,-29.3,1,2
16508.828,0.298,0.468,0.829,-11.23,-8.64,-28.26,1,2
16508.828,0.285,0.48,0.833,-12.18,-6.99,-25.64,1,2
16508.843,0.278,0.484,0.837,-13.52,-5.77,-22.49,1,2
16508.859,0.275,0.483,0.839,-15.5,-5.4,-20.29,1,2
16508.875,0.269,0.478,0.835,-16.91,-5.49,-19.9,1,2
16508.875,0.262,0.473,0.829,-17.98,-5.65,-20.29,1,2
16508.89,0.253,0.48,0.826,-19.01,-6.38,-20.87,1,2
16508.89,0.242,0.496,0.824,-18.71,-6.9,-20.91,1,2
16508.906,0.241,0.497,0.818,-16.48,-6.47,-19.07,1,2
16508.906,0.238,0.5,0.819,-12.85,-4.67,-17.06,1,2
16508.937,0.22,0.534,0.83,-0.7,1.25,-12.88,1,2
16508.937,0.213,0.557,0.828,5.19,3.97,-9.7,1,2
16508.953,0.194,0.574,0.832,9.16,5.65,-6.32,1,2
16508.968,0.174,0.596,0.824,11.54,5.31,-1.89,1,2
16508.968,0.164,0.621,0.807,10.71,0.98,3.33,1,2
16508.984,0.149,0.623,0.841,4.27,-7.81,7.48,1,2
16509.0,0.128,0.623,0.922,0.7,-21.36,12.73,1,2
16509.0,0.187,0.615,0.892,4.94,-34.0,23.59,1,2
16509.015,0.248,0.603,0.855,5.28,-40.44,30.58,1,2
16509.031,0.269,0.552,0.843,8.61,-39.55,32.93,1,2
16509.031,0.3,0.508,0.82,13.7,-34.06,35.98,1,2
16509.046,0.319,0.496,0.777,16.63,-26.76,37.08,1,2
16509.062,0.324,0.466,0.757,18.25,-17.82,37.2,1,2
16509.062,0.325,0.441,0.756,16.63,-10.16,36.01,1,2
16509.078,0.324,0.424,0.763,11.96,-5.07,33.45,1,2
16509.078,0.319,0.405,0.773,6.81,-2.14,30.76,1,2
16509.109,0.315,0.359,0.771,2.62,0.95,28.57,1,2
16509.125,0.334,0.345,0.769,2.38,2.26,26.76,1,2
16509.125,0.349,0.324,0.779,4.76,5.37,24.17,1,2
16509.14,0.352,0.311,0.784,6.56,8.55,19.71,1,2
16509.14,0.359,0.3,0.771,6.78,11.81,14.62,1,2
16509.156,0.36,0.301,0.768,5.92,16.69,9.37,1,2
16509.171,0.365,0.308,0.771,2.99,21.61,3.57,1,2
16509.171,0.36,0.308,0.781,-1.28,25.48,-1.46,1,2
16509.187,0.358,0.313,0.794,-5.83,28.38,-5.07,1,2
16509.187,0.359,0.315,0.805,-10.22,30.64,-8.15,1,2
16509.203,0.335,0.31,0.812,-14.01,31.16,-12.63,1,2
16509.218,0.319,0.308,0.834,-17.3,29.79,-16.11,1,2
16509.218,0.31,0.316,0.855,-19.47,26.98,-17.76,1,2
16509.234,0.294,0.312,0.878,-19.99,23.9,-18.98,1,2
16509.25,0.217,0.409,1.051,-23.41,17.3,-19.75,1,2
16509.25,0.199,0.479,1.203,-22.25,0.49,-13.92,1,2
16509.281,0.331,0.443,0.965,-7.39,-18.89,-9.46,1,2
16509.281,0.329,0.409,0.946,-2.41,-11.57,-10.28,1,2
16509.296,0.321,0.384,0.924,1.53,-5.92,-12.09,1,2
16509.312,0.308,0.423,0.89,-0.09,-2.87,-13.46,1,2
16509.312,0.301,0.429,0.849,-6.07,-1.71,-14.53,1,2
16509.328,0.298,0.411,0.827,-13.31,-0.18,-14.98,1,2
16509.328,0.285,0.398,0.83,-17.58,1.89,-15.32,1,2
16509.343,0.262,0.386,0.846,-15.93,3.57,-14.31,1,2
16509.359,0.25,0.384,0.849,-10.32,4.24,-11.78,1,2
16509.375,0.243,0.403,0.85,-4.36,3.85,-10.19,1,2
16509.375,0.23,0.427,0.861,0.15,3.54,-9.61,1,2
16509.39,0.212,0.445,0.867,3.27,3.45,-8.09,1,2
16509.39,0.205,0.458,0.859,4.12,2.99,-5.49,1,2
16509.406,0.206,0.458,0.846,1.71,1.98,-3.75,1,2
16509.421,0.212,0.441,0.845,-1.8,1.22,-3.36,1,2
16509.421,0.215,0.44,0.857,-3.3,1.07,-3.54,1,2
16509.437,0.218,0.424,0.867,-1.71,-1.13,-1.8,1,2
16509.453,0.228,0.425,0.865,0.37,-2.17,0.06,1,2
16509.468,0.233,0.417,0.868,0.27,-3.54,1.07,1,2
16509.468,0.236,0.413,0.871,-1.22,-4.36,1.19,1,2
16509.484,0.242,0.402,0.867,-2.29,-4.27,0.58,1,2
16509.5,0.252,0.392,0.862,-2.69,-3.97,-0.55,1,2
16509.5,0.27,0.389,0.862,-2.08,-4.67,-1.98,1,2
16509.515,0.275,0.399,0.856,-1.37,-5.28,-3.39,1,2
16509.515,0.275,0.418,0.856,-0.4,-4.91,-4.43,1,2
16509.531,0.27,0.43,0.858,0.37,-4.27,-4.52,1,2
16509.546,0.265,0.441,0.867,0.31,-3.14,-3.72,1,2
16509.546,0.257,0.447,0.873,0.76,-1.83,-2.35,1,2
16509.562,0.254,0.447,0.877,0.61,-0.79,-1.1,1,2
16509.578,0.248,0.436,0.878,0.55,-0.67,-0.82,1,2
16509.593,0.247,0.434,0.873,0.98,-0.95,-1.34,1,2
16509.593,0.252,0.437,0.864,1.34,-1.07,-1.37,1,2
16509.609,0.268,0.438,0.86,-1.4,-1.8,-1.25,1,2
16509.625,0.265,0.438,0.861,-3.57,-1.95,-1.37,1,2
16509.64,0.264,0.432,0.865,-5.1,-1.74,-0.95,1,2
16509.64,0.257,0.424,0.874,-5.77,-1.1,-0.43,1,2
16509.656,0.251,0.416,0.881,-5.89,-0.21,-0.12,1,2
16509.671,0.242,0.412,0.881,-5.13,0.49,0.15,1,2
16509.671,0.24,0.406,0.882,-4.0,1.25,0.64,1,2
16509.687,0.248,0.398,0.876,-2.87,1.83,1.31,1,2
16509.687,0.255,0.389,0.872,-2.53,1.95,1.53,1,2
16509.703,0.262,0.384,0.872,-2.9,2.14,0.92,1,2
16509.718,0.263,0.392,0.871,-3.08,2.72,0.18,1,2
16509.718,0.257,0.399,0.875,-3.17,3.17,0.46,1,2
16509.734,0.253,0.402,0.876,-2.62,3.23,1.34,1,2
16509.75,0.253,0.402,0.873,-2.29,2.69,2.01,1,2
16509.75,0.25,0.402,0.871,-2.26,2.38,1.77,1,2
16509.765,0.239,0.42,0.876,-2.08,2.72,1.13,1,2
16509.781,0.216,0.442,0.892,-1.65,3.23,1.46,1,2
16509.781,0.207,0.454,0.897,-1.56,2.99,3.33,1,2
16509.796,0.205,0.453,0.894,-2.23,1.92,5.01,1,2
16509.796,0.209,0.439,0.882,-3.54,0.85,6.26,1,2
16509.812,0.22,0.425,0.87,-4.24,0.49,7.29,1,2
16509.828,0.227,0.409,0.866,-3.97,0.52,8.09,1,2
16509.828,0.239,0.394,0.854,-3.48,0.0,7.66,1,2
16509.843,0.24,0.394,0.853,-3.42,-0.03,6.26,1,2
16509.859,0.236,0.391,0.855,-2.75,0.09,6.2,1,2
16509.859,0.24,0.394,0.864,-1.89,0.06,7.26,1,2
16509.875,0.242,0.4,0.872,-0.58,-0.34,8.55,1,2
16509.89,0.253,0.4,0.867,1.16,-1.13,9.77,1,2
16509.89,0.262,0.399,0.868,1.68,-1.13,9.55,1,2
16509.906,0.26,0.4,0.873,1.89,-0.18,8.73,1,2
16509.906,0.256,0.408,0.88,1.8,0.95,7.81,1,2
16509.921,0.252,0.414,0.885,1.5,1.4,7.45,1,2
16509.937,0.249,0.414,0.883,0.79,1.43,7.6,1,2
16509.937,0.246,0.411,0.88,0.52,1.25,8.18,1,2
16509.953,0.248,0.402,0.872,1.5,0.73,9.06,1,2
16509.968,0.25,0.405,0.868,2.81,0.12,9.74,1,2
16509.968,0.25,0.406,0.867,4.15,-0.09,10.1,1,2
16509.984,0.253,0.411,0.865,4.79,-0.09,10.53,1,2
16510.0,0.261,0.418,0.867,4.06,0.52,11.14,1,2
16510.0,0.267,0.409,0.865,2.56,1.56,11.26,1,2
16510.015,0.278,0.389,0.866,0.73,2.14,11.17,1,2
16510.031,0.292,0.372,0.864,-0.95,1.59,9.61,1,2
16510.031,0.302,0.354,0.857,-1.46,0.64,6.74,1,2
16510.046,0.307,0.347,0.852,-1.46,0.12,3.88,1,2
16510.046,0.309,0.348,0.854,-1.71,0.18,1.83,1,2
16510.062,0.307,0.343,0.859,-2.75,0.34,0.43,1,2
16510.078,0.313,0.333,0.866,-3.91,-0.21,-0.73,1,2
16510.078,0.313,0.324,0.866,-4.03,-1.01,-1.37,1,2
16510.093,0.315,0.322,0.875,-2.99,-0.95,-1.16,1,2
16510.109,0.318,0.326,0.89,-0.98,-0.73,-0.98,1,2
16510.109,0.307,0.336,0.903,1.77,-1.04,-1.65,1,2
16510.14,0.287,0.371,0.9,6.01,-1.74,-2.08,1,2
16510.14,0.279,0.379,0.898,7.6,-1.34,-2.38,1,2
16510.156,0.268,0.395,0.897,9.16,-0.37,-2.32,1,2
16510.171,0.259,0.409,0.894,10.16,0.55,-1.83,1,2
16510.171,0.251,0.422,0.893,11.17,0.64,-1.19,1,2
16510.187,0.23,0.441,0.886,12.54,-0.89,-0.4,1,2
16510.187,0.207,0.447,0.873,13.31,-5.52,0.89,1,2
16510.203,0.2,0.456,0.878,11.02,-12.48,2.04,1,2
16510.218,0.232,0.448,0.945,7.08,-21.61,2.11,1,2
16510.234,0.244,0.454,0.96,1.98,-31.22,3.75,1,2
16510.234,0.253,0.458,0.937,-2.04,-37.81,6.65,1,2
16510.25,0.284,0.414,0.912,0.12,-39.64,8.88,1,2
16510.25,0.311,0.411,0.876,4.03,-37.97,9.58,1,2
16510.265,0.329,0.402,0.845,6.2,-34.82,7.11,1,2
16510.281,0.329,0.398,0.83,6.16,-30.43,3.42,1,2
16510.296,0.324,0.395,0.811,6.99,-25.64,1.68,1,2
16510.312,0.331,0.402,0.798,4.7,-17.55,1.71,1,2
16510.312,0.333,0.395,0.794,3.51,-13.73,1.59,1,2
16510.328,0.331,0.386,0.794,2.9,-9.95,0.49,1,2
16510.328,0.327,0.392,0.8,2.35,-6.53,-1.25,1,2
16510.343,0.32,0.393,0.804,2.2,-3.45,-2.23,1,2
16510.359,0.307,0.389,0.815,2.75,-0.95,-2.04,1,2
16510.359,0.302,0.394,0.822,2.78,0.09,-1.5,1,2
16510.375,0.302,0.391,0.823,2.72,0.12,-1.43,1,2
16510.39,0.304,0.385,0.827,3.08,-0.06,-1.46,1,2
16510.39,0.304,0.392,0.834,3.75,-0.58,-1.86,1,2
16510.406,0.306,0.405,0.834,3.91,-1.62,-2.14,1,2
16510.421,0.304,0.418,0.842,3.91,-2.17,-2.38,1,2
16510.421,0.299,0.433,0.855,3.66,-1.95,-2.04,1,2
16510.437,0.301,0.434,0.865,2.5,-2.99,-1.53,1,2
16510.437,0.309,0.43,0.863,2.01,-4.76,-1.16,1,2
16510.453,0.318,0.421,0.855,3.54,-5.8,-2.14,1,2
16510.468,0.314,0.431,0.846,4.12,-5.92,-3.33,1,2
16510.484,0.322,0.415,0.828,3.81,-5.25,-2.9,1,2
16510.5,0.334,0.414,0.823,3.91,-3.63,-2.99,1,2
16510.515,0.337,0.404,0.816,4.91,-1.31,-4.03,1,2
16510.515,0.334,0.397,0.82,5.68,1.04,-5.31,1,2
16510.531,0.331,0.409,0.829,6.44,2.26,-6.38,1,2
16510.531,0.314,0.422,0.839,7.78,2.75,-6.78,1,2
16510.546,0.302,0.43,0.846,8.09,1.8,-6.04,1,2
16510.562,0.302,0.441,0.85,7.02,-0.37,-4.88,1,2
16510.562,0.307,0.448,0.848,5.55,-2.29,-4.12,1,2
16510.578,0.313,0.441,0.845,4.52,-3.75,-3.48,1,2
16510.578,0.317,0.433,0.842,4.0,-4.67,-3.36,1,2
16510.593,0.318,0.426,0.845,4.06,-4.79,-3.23,1,2
16510.609,0.322,0.422,0.847,5.13,-5.01,-3.02,1,2
16510.609,0.325,0.421,0.851,6.62,-4.97,-3.2,1,2
16510.625,0.331,0.422,0.848,8.33,-4.91,-3.85,1,2
16510.64,0.335,0.417,0.843,9.52,-4.73,-4.33,1,2
16510.64,0.34,0.419,0.838,10.04,-4.27,-4.79,1,2
16510.656,0.34,0.428,0.837,9.7,-3.54,-5.4,1,2
16510.656,0.339,0.439,0.833,7.69,-3.17,-6.13,1,2
16510.671,0.336,0.44,0.827,3.66,-3.51,-6.78,1,2
16510.687,0.334,0.438,0.827,-0.85,-4.24,-7.48,1,2
16510.687,0.332,0.426,0.824,-4.03,-4.82,-7.97,1,2
16510.703,0.334,0.416,0.823,-5.86,-4.7,-8.76,1,2
16510.718,0.336,0.41,0.82,-7.05,-4.3,-10.53,1,2
16510.734,0.338,0.413,0.808,-8.58,-3.6,-13.76,1,2
16510.734,0.334,0.418,0.792,-10.83,-1.77,-17.0,1,2
16510.75,0.328,0.413,0.778,-12.6,1.07,-18.95,1,2
16510.75,0.32,0.42,0.763,-11.75,5.16,-18.98,1,2
16510.765,0.313,0.43,0.746,-7.6,10.41,-17.12,1,2
16510.781,0.305,0.447,0.731,-2.69,15.35,-14.8,1,2
16510.781,0.292,0.473,0.722,0.4,19.62,-12.27,1,2
16510.796,0.273,0.496,0.739,1.71,23.5,-9.34,1,2
16510.796,0.202,0.547,0.873,2.17,24.23,-4.73,1,2
16510.812,0.209,0.55,0.947,4.91,15.78,3.27,1,2
16510.828,0.261,0.573,0.921,1.04,4.82,9.16,1,2
16510.828,0.273,0.574,0.929,-7.45,-0.12,11.47,1,2
16510.843,0.291,0.518,0.941,-10.47,-0.7,13.25,1,2
16510.859,0.308,0.483,0.917,-10.04,1.01,14.19,1,2
16510.859,0.311,0.469,0.898,-10.13,4.15,13.79,1,2
16510.875,0.294,0.453,0.898,-9.61,7.63,13.98,1,2
16510.89,0.289,0.432,0.887,-7.6,10.13,15.2,1,2
16510.89,0.273,0.423,0.873,-4.7,11.93,16.51,1,2
16510.906,0.265,0.416,0.851,-1.19,12.18,17.61,1,2
16510.921,0.258,0.403,0.825,0.95,10.62,17.43,1,2
16510.921,0.258,0.389,0.798,1.77,7.81,16.08,1,2
16510.937,0.264,0.393,0.78,1.89,5.55,14.56,1,2
16510.937,0.269,0.399,0.777,2.35,4.46,13.0,1,2
16510.953,0.267,0.406,0.79,2.78,4.15,11.63,1,2
16510.968,0.27,0.412,0.807,3.27,3.94,10.99,1,2
16510.968,0.277,0.422,0.83,3.48,4.03,10.28,1,2
16510.984,0.278,0.431,0.851,3.36,4.12,9.13,1,2
16511.0,0.281,0.442,0.878,3.14,4.15,7.9,1,2
16511.0,0.286,0.447,0.895,3.17,4.52,6.56,1,2
16511.015,0.288,0.447,0.903,2.75,4.7,5.16,1,2
16511.031,0.283,0.44,0.909,1.13,4.33,3.48,1,2
16511.031,0.287,0.43,0.909,-1.34,3.11,1.74,1,2
16511.046,0.291,0.421,0.902,-3.39,2.26,0.21,1,2
16511.062,0.287,0.412,0.9,-4.58,2.62,-0.55,1,2
16511.062,0.285,0.403,0.897,-4.58,4.06,-0.92,1,2
16511.078,0.28,0.387,0.904,-3.57,5.98,-1.62,1,2
16511.078,0.277,0.364,0.913,-1.71,7.23,-2.41,1,2
16511.093,0.274,0.348,0.915,1.19,6.71,-3.48,1,2
16511.109,0.257,0.341,0.916,5.8,3.2,-4.73,1,2
16511.109,0.241,0.346,0.919,12.79,-2.87,-5.43,1,2
16511.125,0.2,0.393,0.936,22.98,-11.41,-3.97,1,2
16511.14,0.219,0.443,0.959,34.03,-22.37,2.23,1,2
16511.14,0.282,0.434,0.974,33.51,-35.68,3.08,1,2
16511.156,0.317,0.415,0.944,25.64,-46.3,-0.67,1,2
16511.171,0.344,0.404,0.906,18.07,-48.28,-0.27,1,2
16511.171,0.425,0.408,0.912,12.15,-46.78,-0.67,1,2
16511.187,0.43,0.373,0.878,13.31,-42.45,-4.88,1,2
16511.187,0.441,0.343,0.869,14.56,-37.42,-7.72,1,2
16511.203,0.458,0.348,0.874,17.49,-33.81,-10.68,1,2
16511.218,0.469,0.346,0.862,22.92,-31.22,-13.76,1,2
16511.234,0.488,0.347,0.852,28.26,-28.75,-16.39,1,2
16511.234,0.5,0.352,0.844,33.33,-26.06,-19.04,1,2
16511.25,0.488,0.361,0.839,38.61,-23.04,-21.21,1,2
16511.25,0.476,0.375,0.835,42.91,-19.99,-21.55,1,2
16511.265,0.48,0.393,0.836,45.38,-16.94,-20.6,1,2
16511.281,0.473,0.415,0.836,45.23,-14.04,-21.15,1,2
16511.281,0.451,0.448,0.835,41.93,-11.35,-23.26,1,2
16511.296,0.425,0.485,0.837,36.65,-9.25,-25.48,1,2
16511.312,0.396,0.527,0.836,29.79,-8.73,-26.49,1,2
16511.312,0.372,0.564,0.825,20.97,-10.01,-25.42,1,2
16511.328,0.361,0.576,0.808,10.93,-12.7,-22.77,1,2
16511.328,0.359,0.563,0.785,0.85,-15.38,-19.1,1,2
16511.343,0.367,0.528,0.759,-7.2,-17.55,-15.69,1,2
16511.359,0.381,0.478,0.734,-11.14,-18.1,-13.7,1,2
16511.359,0.394,0.424,0.704,-10.9,-17.24,-13.43,1,2
16511.375,0.405,0.396,0.679,-8.55,-14.53,-15.05,1,2
16511.39,0.407,0.383,0.663,-5.49,-9.37,-18.68,1,2
16511.406,0.393,0.366,0.65,-2.5,-3.63,-23.74,1,2
16511.406,0.378,0.363,0.646,-0.64,1.98,-28.11,1,2
16511.421,0.35,0.393,0.644,-0.58,7.87,-30.79,1,2
16511.421,0.318,0.418,0.643,-2.62,13.12,-31.28,1,2
16511.437,0.292,0.443,0.65,-13.82,17.82,-27.95,1,2
16511.453,0.259,0.47,0.663,-21.39,16.72,-24.54,1,2
16511.453,0.237,0.492,0.686,-27.89,13.7,-22.19,1,2
16511.468,0.235,0.494,0.706,-31.62,10.38,-21.61,1,2
16511.468,0.235,0.451,0.734,-31.5,7.35,-22.03,1,2
16511.484,0.244,0.43,0.734,-27.31,5.37,-24.29,1,2
16511.5,0.236,0.416,0.726,-19.93,5.62,-27.89,1,2
16511.5,0.223,0.439,0.725,-12.42,9.49,-32.5,1,2
16511.515,0.208,0.468,0.737,-6.26,15.11,-37.51,1,2
16511.531,0.179,0.499,0.753,-1.83,21.3,-41.14,1,2
16511.531,0.146,0.558,0.781,0.46,26.89,-41.81,1,2
16511.546,0.118,0.598,0.815,0.52,30.09,-40.96,1,2
16511.562,0.097,0.627,0.846,-1.01,29.85,-39.67,1,2
16511.562,0.082,0.664,0.89,-5.98,25.09,-37.26,1,2
16511.578,0.066,0.673,0.933,-12.24,16.17,-34.27,1,2
16511.593,0.071,0.661,0.96,-16.72,5.07,-30.49,1,2
16511.593,0.108,0.652,0.966,-17.94,-5.52,-27.04,1,2
16511.609,0.136,0.629,0.95,-13.4,-11.23,-26.28,1,2
16511.609,0.17,0.628,0.921,-4.91,-11.99,-25.64,1,2
16511.625,0.174,0.631,0.907,2.26,-10.56,-23.9,1,2
16511.64,0.159,0.605,0.887,8.58,-10.19,-20.91,1,2
16511.64,0.152,0.586,0.858,13.95,-11.47,-17.88,1,2
16511.656,0.169,0.588,0.825,17.0,-14.19,-16.85,1,2
16511.671,0.163,0.586,0.791,15.87,-17.12,-17.33,1,2
16511.671,0.164,0.59,0.775,11.78,-19.26,-16.6,1,2
16511.687,0.18,0.596,0.763,6.96,-20.6,-15.5,1,2
16511.703,0.181,0.598,0.752,2.17,-20.51,-15.38,1,2
16511.703,0.184,0.587,0.746,-2.53,-18.95,-14.74,1,2
16511.718,0.184,0.563,0.745,-4.76,-17.06,-12.85,1,2
16511.734,0.192,0.545,0.742,-2.81,-15.78,-10.38,1,2
16511.734,0.205,0.543,0.735,2.17,-14.37,-8.82,1,2
16511.75,0.216,0.546,0.724,6.84,-11.9,-8.48,1,2
16511.75,0.221,0.562,0.72,10.04,-8.61,-8.85,1,2
16511.765,0.215,0.585,0.723,11.87,-4.94,-9.09,1,2
16511.781,0.203,0.603,0.734,11.78,-1.98,-8.12,1,2
16511.781,0.194,0.617,0.751,9.67,-0.61,-6.13,1,2
16511.796,0.188,0.628,0.767,6.35,-0.95,-3.75,1,2
16511.812,0.189,0.633,0.784,2.08,-3.11,-1.53,1,2
16511.812,0.195,0.625,0.793,-2.29,-6.47,0.7,1,2
16511.828,0.209,0.604,0.801,-5.77,-10.16,2.62,1,2
16511.843,0.222,0.588,0.803,-7.54,-13.37,3.72,1,2
16511.843,0.24,0.579,0.8,-8.42,-15.59,4.03,1,2
16511.859,0.255,0.567,0.797,-8.55,-15.87,4.09,1,2
16511.859,0.254,0.556,0.795,-7.72,-14.68,4.39,1,2
16511.875,0.255,0.542,0.797,-5.65,-13.7,4.88,1,2
16511.89,0.256,0.531,0.792,-2.2,-13.73,5.1,1,2
16511.89,0.256,0.526,0.785,1.98,-13.76,4.88,1,2
16511.906,0.255,0.523,0.773,6.26,-14.01,4.33,1,2
16511.921,0.253,0.524,0.768,9.64,-14.47,4.06,1,2
16511.921,0.238,0.54,0.77,11.38,-15.47,3.78,1,2
16511.937,0.239,0.558,0.777,10.07,-17.7,4.43,1,2
16511.953,0.25,0.57,0.789,5.43,-19.59,5.46,1,2
16511.953,0.25,0.55,0.799,0.37,-22.03,5.19,1,2
16511.968,0.264,0.534,0.794,-2.17,-25.27,5.13,1,2
16511.968,0.295,0.547,0.794,-3.51,-26.18,5.55,1,2
16511.984,0.305,0.567,0.803,-6.68,-26.12,6.44,1,2
16512.0,0.296,0.545,0.806,-8.61,-26.09,5.52,1,2
16512.015,0.312,0.527,0.789,-8.55,-25.57,6.13,1,2
16512.015,0.33,0.537,0.788,-9.0,-23.68,6.71,1,2
16512.031,0.325,0.525,0.773,-9.25,-20.84,6.1,1,2
16512.031,0.314,0.479,0.767,-9.67,-17.46,4.79,1,2
16512.046,0.318,0.482,0.773,-6.84,-15.44,2.99,1,2
16512.062,0.311,0.499,0.764,-1.28,-14.44,2.29,1,2
16512.062,0.307,0.496,0.759,2.53,-13.4,2.38,1,2
16512.078,0.304,0.491,0.759,4.21,-12.39,2.84,1,2
16512.078,0.309,0.503,0.76,4.64,-11.26,2.62,1,2
16512.093,0.31,0.511,0.766,3.6,-9.7,1.71,1,2
16512.109,0.308,0.503,0.769,0.98,-7.87,0.49,1,2
16512.109,0.293,0.501,0.787,-2.14,-6.56,-0.55,1,2
16512.125,0.287,0.509,0.816,-4.18,-7.08,-1.43,1,2
16512.14,0.287,0.523,0.845,-3.78,-8.67,-1.92,1,2
16512.14,0.282,0.538,0.861,-0.27,-11.02,-1.59,1,2
16512.156,0.281,0.554,0.866,4.27,-14.25,-0.76,1,2
16512.171,0.281,0.568,0.861,8.48,-17.09,0.15,1,2
16512.171,0.279,0.575,0.84,10.19,-18.89,0.92,1,2
16512.187,0.279,0.572,0.816,8.94,-19.93,1.98,1,2
16512.187,0.282,0.568,0.791,6.07,-20.51,3.11,1,2
16512.203,0.287,0.564,0.78,2.14,-20.36,3.39,1,2
16512.218,0.29,0.548,0.777,-1.68,-19.47,3.3,1,2
16512.218,0.299,0.523,0.769,-2.81,-17.79,3.27,1,2
16512.234,0.311,0.519,0.766,-1.89,-15.75,3.05,1,2
16512.25,0.309,0.517,0.763,0.46,-13.37,2.41,1,2
16512.25,0.307,0.513,0.762,3.14,-11.26,2.11,1,2
16512.265,0.301,0.514,0.761,4.94,-10.41,2.11,1,2
16512.281,0.305,0.522,0.759,5.19,-10.9,2.08,1,2
16512.281,0.313,0.532,0.76,3.69,-11.78,1.92,1,2
16512.296,0.32,0.526,0.757,1.46,-12.15,1.95,1,2
16512.312,0.327,0.52,0.759,-0.7,-11.75,1.89,1,2
16512.312,0.331,0.514,0.762,-1.92,-11.26,1.46,1,2
16512.328,0.342,0.502,0.765,-1.86,-11.35,0.82,1,2
16512.328,0.352,0.495,0.759,-1.01,-11.72,-0.27,1,2
16512.343,0.366,0.488,0.749,0.12,-11.75,-1.46,1,2
16512.359,0.376,0.488,0.737,1.25,-11.32,-2.56,1,2
16512.359,0.38,0.49,0.729,1.77,-10.13,-3.57,1,2
16512.375,0.381,0.493,0.723,2.35,-8.79,-4.24,1,2
16512.39,0.383,0.49,0.722,2.93,-7.57,-4.49,1,2
16512.39,0.386,0.493,0.718,3.57,-6.74,-4.85,1,2
16512.406,0.387,0.491,0.717,4.03,-6.23,-5.31,1,2
16512.421,0.39,0.493,0.719,2.23,-5.55,-6.96,1,2
16512.421,0.392,0.506,0.716,0.92,-4.18,-7.84,1,2
16512.437,0.386,0.521,0.719,0.03,-2.69,-8.48,1,2
16512.453,0.378,0.524,0.725,0.18,-1.56,-8.48,1,2
16512.453,0.366,0.532,0.733,1.53,-0.89,-8.64,1,2
16512.468,0.356,0.535,0.735,3.42,-0.95,-8.73,1,2
16512.468,0.352,0.544,0.732,5.31,-1.56,-8.55,1,2
16512.484,0.353,0.554,0.734,6.53,-2.2,-8.03,1,2
16512.5,0.35,0.562,0.741,8.06,-2.56,-7.32,1,2
16512.515,0.348,0.573,0.744,9.37,-2.93,-6.59,1,2
16512.515,0.352,0.587,0.749,9.64,-3.42,-6.2,1,2
16512.531,0.355,0.593,0.75,9.67,-4.03,-5.74,1,2
16512.531,0.359,0.593,0.747,9.43,-4.36,-5.01,1,2
16512.546,0.366,0.589,0.745,9.13,-4.58,-4.18,1,2
16512.562,0.363,0.585,0.743,8.45,-4.58,-3.6,1,2
16512.562,0.364,0.587,0.741,7.32,-4.27,-3.05,1,2
16512.578,0.367,0.581,0.743,6.07,-3.57,-2.38,1,2
16512.593,0.365,0.571,0.747,5.65,-2.99,-1.98,1,2
16512.593,0.354,0.562,0.75,6.93,-2.93,-1.28,1,2
16512.609,0.353,0.562,0.751,8.64,-3.85,-0.64,1,2
16512.609,0.357,0.561,0.745,9.74,-4.79,-0.58,1,2
16512.625,0.354,0.554,0.734,10.38,-4.7,-0.92,1,2
16512.64,0.345,0.556,0.729,10.25,-3.69,-1.25,1,2
16512.64,0.337,0.56,0.729,9.89,-3.14,-1.19,1,2
16512.656,0.336,0.563,0.726,9.13,-2.84,-1.28,1,2
16512.671,0.339,0.563,0.723,8.18,-2.53,-1.56,1,2
16512.671,0.341,0.56,0.725,7.6,-1.71,-1.89,1,2
16512.687,0.338,0.552,0.732,7.57,-0.61,-1.8,1,2
16512.687,0.355,0.56,0.735,8.06,0.21,-2.17,1,2
16512.703,0.349,0.561,0.739,8.73,1.19,-3.14,1,2
16512.718,0.345,0.557,0.743,9.31,1.46,-3.91,1,2
16512.734,0.344,0.559,0.749,10.35,1.04,-4.15,1,2
16512.734,0.348,0.575,0.748,11.63,0.34,-4.36,1,2
16512.75,0.341,0.588,0.741,11.99,-0.31,-4.64,1,2
16512.75,0.337,0.591,0.74,11.38,-1.1,-4.58,1,2
16512.765,0.334,0.598,0.738,10.74,-2.5,-3.88,1,2
16512.781,0.336,0.609,0.732,9.89,-3.97,-3.14,1,2
16512.781,0.342,0.61,0.723,8.79,-5.13,-2.62,1,2
16512.796,0.341,0.603,0.71,7.72,-5.92,-2.11,1,2
16512.796,0.344,0.601,0.705,6.38,-6.41,-1.68,1,2
16512.812,0.346,0.599,0.697,5.13,-6.53,-1.19,1,2
16512.828,0.358,0.6,0.691,3.88,-5.86,-0.76,1,2
16512.828,0.357,0.596,0.688,2.62,-4.43,-0.37,1,2
16512.843,0.354,0.596,0.691,1.07,-2.84,-0.03,1,2
16512.859,0.356,0.599,0.699,-0.55,-1.8,0.21,1,2
16512.875,0.352,0.601,0.703,-2.11,-0.95,0.43,1,2
16512.875,0.349,0.595,0.708,-3.42,-0.43,0.7,1,2
16512.89,0.352,0.589,0.714,-4.3,-0.12,1.13,1,2
16512.89,0.351,0.588,0.72,-4.52,0.27,1.1,1,2
16512.906,0.345,0.58,0.722,-3.94,0.82,0.79,1,2
16512.921,0.342,0.575,0.721,-3.02,1.31,0.21,1,2
16512.921,0.339,0.572,0.722,-1.71,1.59,-0.46,1,2
16512.937,0.337,0.573,0.724,-0.49,1.8,-1.01,1,2
16512.937,0.332,0.568,0.721,1.01,2.17,-1.65,1,2
16512.953,0.329,0.572,0.715,2.29,2.93,-2.2,1,2
16512.968,0.323,0.574,0.72,3.54,3.94,-2.78,1,2
16512.968,0.313,0.579,0.726,4.55,4.39,-2.87,1,2
16512.984,0.315,0.585,0.729,5.04,3.97,-2.81,1,2
16513.0,0.318,0.592,0.734,5.07,3.14,-2.72,1,2
16513.0,0.314,0.594,0.735,4.82,2.17,-2.38,1,2
16513.015,0.324,0.599,0.736,4.27,0.67,-1.22,1,2
16513.031,0.336,0.608,0.736,3.63,-1.1,0.12,1,2
16513.031,0.347,0.604,0.733,3.05,-2.9,0.95,1,2
16513.046,0.358,0.599,0.731,2.01,-4.3,1.74,1,2
16513.046,0.365,0.591,0.725,1.31,-5.65,1.98,1,2
16513.062,0.377,0.582,0.715,1.01,-6.35,1.53,1,2
16513.078,0.38,0.579,0.706,0.95,-6.32,0.4,1,2
16513.093,0.375,0.576,0.702,1.43,-5.28,-0.55,1,2
16513.093,0.37,0.582,0.702,2.2,-4.18,-1.1,1,2
16513.109,0.366,0.591,0.698,2.99,-2.87,-1.62,1,2
16513.109,0.363,0.591,0.694,3.23,-1.22,-2.47,1,2
16513.125,0.353,0.583,0.695,3.11,0.76,-3.36,1,2
16513.14,0.339,0.59,0.702,2.99,2.11,-3.36,1,2
16513.14,0.334,0.6,0.712,2.47,2.69,-2.81,1,2
16513.156,0.33,0.603,0.72,1.68,2.53,-2.26,1,2
16513.171,0.324,0.604,0.726,0.76,1.68,-1.92,1,2
16513.171,0.318,0.607,0.727,-0.31,0.27,-1.4,1,2
16513.187,0.322,0.609,0.725,-1.37,-1.46,-0.43,1,2
16513.187,0.325,0.604,0.722,-2.53,-2.87,0.76,1,2
16513.203,0.333,0.597,0.723,-3.51,-3.81,1.74,1,2
16513.218,0.337,0.594,0.722,-4.18,-4.3,2.32,1,2
16513.218,0.34,0.587,0.72,-3.81,-4.49,2.2,1,2
16513.234,0.344,0.575,0.714,-3.11,-4.24,1.74,1,2
16513.25,0.348,0.569,0.708,-1.77,-3.27,1.01,1,2
16513.25,0.344,0.572,0.71,-0.21,-1.83,0.15,1,2
16513.265,0.344,0.573,0.712,1.59,-0.61,-0.61,1,2
16513.281,0.347,0.578,0.714,3.6,0.49,-1.13,1,2
16513.281,0.344,0.585,0.717,5.43,1.31,-1.65,1,2
16513.296,0.346,0.583,0.725,7.2,1.74,-1.95,1,2
16513.312,0.343,0.588,0.729,8.73,1.56,-2.04,1,2
16513.312,0.342,0.592,0.726,9.98,1.1,-2.53,1,2
16513.328,0.338,0.589,0.72,11.02,0.55,-3.23,1,2
16513.328,0.336,0.594,0.715,11.44,-0.03,-3.75,1,2
16513.343,0.336,0.603,0.709,11.2,-0.52,-3.78,1,2
16513.359,0.332,0.608,0.702,10.1,-0.79,-3.51,1,2
16513.359,0.336,0.613,0.694,8.79,-0.85,-3.05,1,2
16513.375,0.34,0.621,0.692,6.68,-0.95,-2.26,1,2
16513.39,0.345,0.623,0.689,4.3,-0.76,-1.68,1,2
16513.39,0.347,0.621,0.69,2.17,-0.46,-0.92,1,2
16513.406,0.347,0.618,0.693,-1.01,0.34,0.31,1,2
16513.421,0.35,0.612,0.694,-2.17,0.79,0.15,1,2
16513.421,0.347,0.601,0.691,-2.69,1.46,-0.46,1,2
16513.437,0.341,0.594,0.711,-2.75,1.89,-0.73,1,2
16513.437,0.337,0.598,0.72,-1.8,2.08,-0.89,1,2
16513.453,0.332,0.595,0.723,-0.21,1.86,-1.07,1,2
16513.468,0.329,0.595,0.729,1.65,1.1,-1.07,1,2
16513.468,0.328,0.6,0.724,3.45,0.09,-1.43,1,2
16513.484,0.327,0.603,0.715,4.82,-0.67,-1.62,1,2
16513.5,0.327,0.604,0.708,5.52,-1.22,-1.37,1,2
16513.5,0.33,0.609,0.704,5.55,-1.4,-1.07,1,2
16513.515,0.333,0.613,0.697,5.01,-1.5,-0.67,1,2
16513.531,0.336,0.612,0.694,3.78,-1.46,-0.37,1,2
16513.531,0.338,0.611,0.695,2.2,-1.46,-0.52,1,2
16513.546,0.338,0.612,0.695,0.79,-1.5,-0.61,1,2
16513.546,0.344,0.614,0.695,-0.12,-1.07,-0.4,1,2
16513.562,0.343,0.609,0.694,-0.58,-0.15,-0.58,1,2
16513.578,0.337,0.603,0.695,-0.67,0.89,-0.76,1,2
16513.578,0.336,0.606,0.7,-0.7,1.5,-0.73,1,2
16513.593,0.332,0.605,0.708,-0.67,1.71,-0.73,1,2
16513.609,0.325,0.605,0.711,-0.34,1.56,-0.76,1,2
16513.609,0.324,0.609,0.717,0.15,1.16,-0.43,1,2
16513.625,0.324,0.614,0.722,0.89,0.03,-0.12,1,2
16513.64,0.326,0.61,0.717,1.46,-1.1,0.09,1,2
16513.64,0.33,0.607,0.711,1.8,-2.2,0.06,1,2
16513.656,0.334,0.609,0.706,1.95,-3.05,0.18,1,2
16513.671,0.34,0.609,0.698,1.92,-3.27,0.24,1,2
16513.671,0.344,0.611,0.693,1.8,-3.02,0.0,1,2
16513.687,0.344,0.612,0.689,1.34,-2.47,-0.37,1,2
16513.687,0.343,0.611,0.689,0.31,-1.83,-0.58,1,2
16513.703,0.341,0.61,0.694,-0.7,-1.22,-0.67,1,2
16513.718,0.339,0.613,0.699,-1.46,-0.92,-0.52,1,2
16513.718,0.34,0.612,0.702,-1.95,-0.95,-0.31,1,2
16513.734,0.34,0.609,0.703,-2.26,-0.98,-0.61,1,2
16513.75,0.336,0.602,0.701,-2.2,-0.67,-0.76,1,2
16513.765,0.333,0.604,0.703,-2.32,-0.49,-0.7,1,2
16513.765,0.331,0.603,0.705,-2.08,-0.21,-1.07,1,2
16513.781,0.33,0.601,0.708,-1.71,-0.09,-1.4,1,2
16513.781,0.329,0.603,0.708,-1.28,0.0,-1.22,1,2
16513.796,0.329,0.606,0.71,-0.76,0.12,-1.04,1,2
16513.812,0.33,0.608,0.712,-0.27,-0.06,-0.7,1,2
16513.812,0.333,0.608,0.71,0.03,-0.46,-0.49,1,2
16513.828,0.337,0.61,0.705,0.27,-0.79,-0.52,1,2
16513.843,0.335,0.609,0.701,0.27,-0.64,-0.76,1,2
16513.843,0.334,0.605,0.699,0.18,-0.27,-0.82,1,2
16513.859,0.335,0.61,0.7,0.0,0.12,-0.82,1,2
16513.859,0.333,0.606,0.701,-0.09,0.58,-1.01,1,2
16513.875,0.329,0.604,0.703,-0.27,0.95,-1.1,1,2
16513.89,0.33,0.606,0.705,-0.67,0.85,-1.19,1,2
16513.89,0.33,0.609,0.706,-0.76,0.67,-1.22,1,2
16513.906,0.326,0.61,0.705,-0.55,0.82,-1.1,1,2
16513.921,0.326,0.608,0.705,-0.55,0.89,-0.98,1,2
16513.921,0.324,0.608,0.707,-0.61,0.67,-1.01,1,2
16513.937,0.323,0.607,0.707,-0.64,0.4,-0.89,1,2
16513.937,0.325,0.607,0.709,-0.55,0.21,-0.82,1,2
16513.953,0.326,0.607,0.714,-0.37,-0.06,-0.67,1,2
16513.968,0.33,0.608,0.713,0.06,-0.55,-0.52,1,2
16513.984,0.331,0.608,0.711,0.12,-1.22,-0.55,1,2
16513.984,0.332,0.604,0.709,0.21,-1.5,-0.73,1,2
16514.0,0.336,0.605,0.705,0.37,-1.43,-0.85,1,2
16514.0,0.335,0.605,0.703,0.7,-1.25,-1.19,1,2
16514.015,0.333,0.606,0.706,0.79,-0.98,-1.34,1,2
16514.031,0.332,0.608,0.705,0.98,-0.58,-1.19,1,2
16514.031,0.33,0.606,0.703,1.13,-0.24,-1.13,1,2
16514.046,0.333,0.606,0.705,1.34,0.09,-0.95,1,2
16514.062,0.329,0.607,0.709,1.56,0.31,-1.04,1,2
16514.062,0.327,0.608,0.71,1.83,0.03,-1.19,1,2
16514.078,0.331,0.612,0.71,1.89,-0.4,-1.19,1,2
16514.078,0.332,0.616,0.707,2.17,-0.85,-1.16,1,2
16514.093,0.333,0.614,0.702,2.47,-1.07,-1.04,1,2
16514.109,0.331,0.612,0.699,2.66,-0.98,-1.1,1,2
16514.109,0.331,0.611,0.694,2.93,-0.55,-1.22,1,2
16514.125,0.329,0.614,0.691,2.99,0.18,-1.56,1,2
16514.14,0.323,0.612,0.691,2.72,1.22,-2.04,1,2
16514.14,0.319,0.611,0.696,2.41,2.08,-1.98,1,2
16514.156,0.313,0.621,0.704,1.86,2.38,-1.77,1,2
16514.156,0.31,0.623,0.71,0.73,1.65,-1.34,1,2
16514.171,0.313,0.624,0.713,-0.49,0.43,-0.73,1,2
16514.187,0.315,0.624,0.716,-1.5,-0.7,0.06,1,2
16514.187,0.315,0.615,0.715,-2.11,-1.86,0.79,1,2
16514.203,0.32,0.608,0.712,-2.72,-2.75,1.16,1,2
16514.218,0.328,0.601,0.708,-3.23,-3.3,0.98,1,2
16514.218,0.335,0.597,0.702,-2.62,-2.56,0.21,1,2
16514.234,0.333,0.602,0.705,-2.11,-2.01,0.52,1,2
16514.25,0.344,0.605,0.71,-1.01,-1.1,0.43,1,2
16514.25,0.344,0.611,0.713,-0.58,-1.31,0.4,1,2
16514.265,0.347,0.609,0.71,-0.4,-2.04,0.34,1,2
16514.281,0.345,0.614,0.709,-0.49,-2.5,0.21,1,2
16514.296,0.341,0.604,0.705,-0.06,-2.47,-0.27,1,2
16514.296,0.337,0.596,0.697,0.46,-2.04,-0.82,1,2
16514.312,0.331,0.592,0.692,0.64,-0.76,-1.95,1,2
16514.312,0.322,0.595,0.693,0.49,0.85,-2.75,1,2
16514.328,0.318,0.604,0.704,0.06,2.17,-2.66,1,2
16514.343,0.313,0.613,0.72,-0.24,2.2,-2.08,1,2
16514.343,0.312,0.617,0.726,-0.18,1.13,-1.5,1,2
16514.359,0.315,0.613,0.725,0.52,-0.58,-1.28,1,2
16514.359,0.318,0.611,0.715,1.37,-1.92,-1.31,1,2
16514.375,0.318,0.606,0.702,2.04,-2.2,-1.65,1,2
16514.39,0.321,0.602,0.692,2.78,-0.43,-2.29,1,2
16514.39,0.32,0.61,0.693,2.78,0.34,-2.26,1,2
16514.406,0.319,0.618,0.696,2.59,0.64,-2.01,1,2
16514.421,0.321,0.624,0.7,2.2,0.55,-1.5,1,2
16514.421,0.323,0.627,0.705,1.77,0.18,-1.19,1,2
16514.437,0.32,0.625,0.707,1.37,-0.55,-0.64,1,2
16514.437,0.32,0.623,0.709,1.1,-1.25,-0.24,1,2
16514.453,0.323,0.616,0.705,0.95,-1.83,0.0,1,2
16514.468,0.321,0.613,0.697,0.64,-1.83,-0.09,1,2
16514.468,0.324,0.612,0.696,0.03,-1.56,-0.37,1,2
16514.484,0.326,0.614,0.698,-0.76,-1.31,-0.37,1,2
16514.5,0.331,0.616,0.7,-1.46,-1.1,-0.27,1,2
16514.515,0.333,0.615,0.702,-1.89,-0.89,-0.21,1,2
16514.515,0.332,0.611,0.705,-1.74,-0.98,-0.4,1,2
16514.531,0.333,0.61,0.704,-1.43,-1.01,-0.79,1,2
16514.531,0.329,0.608,0.699,-0.79,-0.52,-1.34,1,2
16514.546,0.328,0.605,0.697,-0.12,0.52,-1.86,1,2
16514.562,0.323,0.608,0.7,0.34,1.5,-2.14,1,2
16514.562,0.319,0.612,0.708,0.55,1.86,-2.11,1,2
16514.578,0.316,0.617,0.714,0.92,1.56,-1.65,1,2
16514.593,0.315,0.619,0.716,1.28,0.7,-1.31,1,2
16514.593,0.317,0.619,0.715,1.62,-0.06,-1.07,1,2
16514.609,0.316,0.614,0.71,2.41,-0.49,-0.95,1,2
16514.609,0.314,0.612,0.704,2.87,-0.7,-1.04,1,2
16514.625,0.314,0.61,0.703,2.9,-0.82,-1.25,1,2
16514.64,0.313,0.615,0.702,2.62,-0.92,-1.31,1,2
16514.64,0.313,0.621,0.702,2.56,-1.13,-1.01,1,2
16514.656,0.315,0.627,0.705,1.98,-1.34,-0.46,1,2
16514.671,0.316,0.629,0.707,1.43,-1.86,0.18,1,2
16514.671,0.321,0.624,0.704,1.16,-2.69,0.58,1,2
16514.687,0.327,0.62,0.697,0.76,-3.23,0.79,1,2
16514.687,0.328,0.614,0.691,0.12,-2.99,0.7,1,2
16514.703,0.331,0.613,0.693,-0.73,-2.23,0.52,1,2
16514.718,0.329,0.613,0.696,-0.98,-1.22,0.06,1,2
16514.718,0.327,0.611,0.703,-0.89,-0.89,-0.21,1,2
16514.734,0.327,0.611,0.706,-0.73,-0.85,-0.34,1,2
16514.75,0.327,0.61,0.707,-0.43,-0.89,-0.79,1,2
16514.75,0.326,0.61,0.709,-0.06,-1.07,-1.34,1,2
16514.765,0.325,0.604,0.71,0.61,-1.43,-1.62,1,2
16514.781,0.324,0.598,0.71,1.28,-1.37,-1.95,1,2
16514.781,0.323,0.602,0.71,1.83,-1.19,-2.59,1,2
16514.796,0.313,0.601,0.713,2.17,-1.25,-3.33,1,2
16514.812,0.311,0.606,0.715,2.69,-1.77,-3.66,1,2
16514.812,0.313,0.612,0.713,3.57,-2.47,-3.72,1,2
16514.828,0.315,0.617,0.711,4.21,-3.02,-3.78,1,2
16514.828,0.317,0.621,0.708,4.73,-3.63,-3.85,1,2
16514.843,0.323,0.621,0.701,5.22,-4.39,-3.88,1,2
16514.859,0.33,0.624,0.691,5.58,-4.52,-4.03,1,2
16514.859,0.338,0.627,0.681,5.8,-4.09,-4.76,1,2
16514.875,0.342,0.625,0.67,5.65,-2.81,-5.58,1,2
16514.89,0.34,0.629,0.663,5.04,-1.31,-6.41,1,2
16514.89,0.336,0.636,0.666,3.6,0.12,-6.93,1,2
16514.906,0.328,0.639,0.671,2.17,1.59,-7.39,1,2
16514.921,0.315,0.639,0.68,0.95,2.69,-7.54,1,2
16514.921,0.305,0.639,0.692,0.34,3.14,-7.05,1,2
16514.937,0.293,0.64,0.704,-0.06,3.05,-6.35,1,2
16514.953,0.284,0.638,0.712,-0.27,2.17,-5.4,1,2
16514.953,0.279,0.634,0.718,-0.34,0.49,-4.12,1,2
16514.968,0.278,0.634,0.721,-0.31,-1.28,-2.78,1,2
16514.968,0.281,0.635,0.722,-0.24,-3.3,-1.31,1,2
16514.984,0.286,0.632,0.721,0.03,-5.31,0.03,1,2
16515.0,0.296,0.627,0.715,0.7,-6.84,0.85,1,2
16515.0,0.304,0.619,0.71,1.34,-7.84,0.7,1,2
16515.015,0.313,0.613,0.704,1.92,-8.36,0.31,1,2
16515.031,0.32,0.609,0.696,3.2,-8.27,-0.06,1,2
16515.031,0.332,0.613,0.688,4.39,-7.69,-0.82,1,2
16515.046,0.337,0.614,0.684,5.46,-6.87,-1.8,1,2
16515.046,0.341,0.623,0.68,6.2,-5.95,-2.84,1,2
16515.062,0.343,0.631,0.672,6.59,-5.1,-3.75,1,2
16515.078,0.341,0.635,0.665,6.65,-3.72,-4.7,1,2
16515.078,0.331,0.639,0.662,6.44,-2.11,-5.55,1,2
16515.093,0.321,0.64,0.657,5.74,-0.43,-6.53,1,2
16515.109,0.306,0.642,0.664,4.18,1.07,-6.87,1,2
16515.125,0.298,0.648,0.675,2.29,1.86,-6.35,1,2
16515.125,0.296,0.658,0.686,0.34,1.74,-5.1,1,2
16515.14,0.296,0.659,0.694,-1.04,0.89,-3.72,1,2
16515.14,0.297,0.654,0.697,-2.17,-0.34,-2.72,1,2
16515.156,0.301,0.641,0.694,-3.11,-1.43,-2.2,1,2
16515.171,0.301,0.629,0.694,-3.63,-2.2,-2.08,1,2
16515.171,0.306,0.626,0.695,-3.72,-2.35,-1.83,1,2
16515.187,0.312,0.625,0.696,-3.23,-2.23,-1.74,1,2
16515.187,0.317,0.62,0.702,-2.41,-2.01,-2.01,1,2
16515.203,0.314,0.622,0.702,-0.73,-1.92,-2.44,1,2
16515.218,0.316,0.627,0.7,1.28,-2.08,-2.66,1,2
16515.218,0.32,0.633,0.7,3.27,-2.01,-2.72,1,2
16515.234,0.317,0.636,0.699,5.01,-2.08,-2.53,1,2
16515.25,0.318,0.639,0.698,6.32,-2.44,-2.17,1,2
16515.25,0.315,0.64,0.698,7.08,-3.23,-1.65,1,2
16515.265,0.314,0.643,0.694,7.42,-4.15,-1.34,1,2
16515.281,0.309,0.64,0.686,7.23,-4.7,-1.5,1,2
16515.281,0.307,0.63,0.679,6.87,-4.94,-1.46,1,2
16515.296,0.309,0.641,0.674,6.38,-4.82,-1.83,1,2
16515.312,0.308,0.639,0.673,5.34,-4.3,-2.41,1,2
16515.312,0.31,0.639,0.677,4.7,-3.85,-2.69,1,2
16515.328,0.315,0.642,0.678,4.64,-3.57,-2.84,1,2
16515.343,0.32,0.647,0.674,5.28,-3.23,-2.96,1,2
16515.343,0.318,0.644,0.671,5.83,-2.66,-3.3,1,2
16515.359,0.317,0.645,0.667,6.29,-1.77,-3.6,1,2
16515.359,0.312,0.647,0.665,5.62,-0.4,-3.85,1,2
16515.375,0.305,0.649,0.669,4.7,-0.15,-3.85,1,2
16515.39,0.305,0.656,0.673,4.09,-0.24,-3.6,1,2
16515.39,0.301,0.655,0.673,3.75,-0.37,-3.42,1,2
16515.406,0.298,0.659,0.679,3.75,-0.73,-3.08,1,2
16515.421,0.299,0.66,0.678,3.85,-1.1,-2.5,1,2
16515.421,0.3,0.661,0.677,3.63,-1.5,-1.77,1,2
16515.437,0.302,0.659,0.678,3.27,-2.29,-1.07,1,2
16515.437,0.312,0.661,0.678,2.72,-3.51,-0.49,1,2
16515.453,0.316,0.661,0.67,2.2,-4.03,-0.46,1,2
16515.468,0.314,0.65,0.661,2.32,-3.78,-0.82,1,2
16515.468,0.317,0.645,0.654,2.59,-2.66,-1.22,1,2
16515.484,0.314,0.645,0.652,2.47,-1.04,-2.08,1,2
16515.5,0.309,0.649,0.656,2.04,0.7,-2.84,1,2
16515.5,0.303,0.657,0.661,1.83,1.77,-3.17,1,2
16515.515,0.296,0.667,0.67,1.89,2.14,-3.02,1,2
16515.531,0.294,0.673,0.676,1.95,1.65,-2.32,1,2
16515.531,0.294,0.673,0.677,2.01,0.98,-1.37,1,2
16515.546,0.293,0.666,0.674,1.98,0.21,-0.61,1,2
16515.562,0.295,0.661,0.676,1.68,-0.58,0.03,1,2
16515.562,0.302,0.666,0.68,1.5,-1.34,0.67,1,2
16515.578,0.303,0.665,0.679,1.71,-2.08,1.31,1,2
16515.578,0.31,0.662,0.672,2.08,-2.72,1.8,1,2
16515.593,0.315,0.656,0.662,2.26,-3.08,2.08,1,2
16515.609,0.321,0.649,0.66,1.59,-2.99,1.95,1,2
16515.609,0.324,0.649,0.661,0.46,-2.35,1.37,1,2
16515.625,0.322,0.649,0.658,-0.89,-1.4,0.52,1,2
16515.64,0.318,0.642,0.665,-1.56,-0.46,-0.21,1,2
16515.64,0.318,0.643,0.673,-1.86,0.21,-0.58,1,2
16515.656,0.316,0.644,0.676,-1.86,0.73,-0.79,1,2
16515.671,0.31,0.642,0.679,-1.4,1.01,-1.13,1,2
16515.671,0.304,0.642,0.682,-0.46,1.1,-1.53,1,2
16515.687,0.302,0.645,0.684,0.82,0.89,-1.86,1,2
16515.687,0.299,0.65,0.681,2.32,0.61,-2.01,1,2
16515.703,0.293,0.66,0.682,4.0,0.46,-1.68,1,2
16515.718,0.292,0.671,0.685,5.71,-0.03,-0.79,1,2
16515.718,0.295,0.669,0.677,6.96,-1.16,-0.27,1,2
16515.734,0.298,0.666,0.666,7.51,-2.59,0.12,1,2
16515.75,0.305,0.67,0.656,7.42,-3.42,0.12,1,2
16515.75,0.308,0.669,0.648,6.84,-3.45,-0.12,1,2
16515.765,0.309,0.672,0.644,5.83,-3.11,-0.34,1,2
16515.781,0.312,0.676,0.64,4.21,-2.32,-0.55,1,2
16515.781,0.308,0.671,0.643,2.01,-1.4,-0.85,1,2
16515.796,0.306,0.671,0.646,-0.34,-0.64,-0.85,1,2
16515.796,0.304,0.672,0.654,-2.5,-0.12,-0.58,1,2
16515.812,0.3,0.666,0.665,-4.18,-0.03,-0.24,1,2
16515.828,0.3,0.661,0.674,-5.1,-0.46,-0.06,1,2
16515.828,0.299,0.657,0.68,-5.1,-0.98,0.06,1,2
16515.843,0.301,0.651,0.683,-4.49,-1.62,0.27,1,2
16515.859,0.302,0.651,0.686,-3.45,-2.14,0.55,1,2
16515.875,0.304,0.652,0.687,-1.83,-2.59,1.16,1,2
16515.875,0.309,0.654,0.685,0.27,-2.78,1.71,1,2
16515.89,0.312,0.65,0.679,2.08,-3.14,1.77,1,2
16515.89,0.314,0.649,0.672,3.78,-3.42,1.37,1,2
16515.906,0.315,0.651,0.661,4.97,-3.3,0.55,1,2
16515.921,0.315,0.65,0.653,5.92,-2.66,-0.76,1,2
16515.921,0.311,0.655,0.649,7.26,-1.43,-1.53,1,2
16515.937,0.309,0.669,0.643,8.48,-0.09,-1.77,1,2
16515.937,0.306,0.676,0.64,8.7,1.1,-2.11,1,2
16515.953,0.298,0.678,0.643,8.06,2.01,-2.29,1,2
16515.968,0.297,0.68,0.643,7.08,2.59,-2.26,1,2
16515.968,0.297,0.686,0.647,5.92,3.11,-2.2,1,2
16515.984,0.29,0.685,0.652,5.01,3.2,-1.98,1,2
16516.0,0.291,0.686,0.658,4.09,2.38,-1.01,1,2
16516.0,0.294,0.693,0.663,2.44,1.34,-0.03,1,2
16516.015,0.297,0.684,0.665,0.4,0.03,0.98,1,2
16516.031,0.307,0.678,0.666,-1.07,-1.4,2.29,1,2
16516.031,0.316,0.673,0.667,-2.29,-2.78,3.08,1,2
16516.046,0.324,0.661,0.667,-3.81,-3.69,3.08,1,2
16516.046,0.336,0.658,0.669,-5.19,-4.27,3.11,1,2
16516.062,0.341,0.653,0.668,-6.13,-4.55,2.56,1,2
16516.078,0.339,0.643,0.671,-6.78,-4.27,1.62,1,2
16516.093,0.334,0.632,0.668,-7.11,-3.51,0.34,1,2
16516.093,0.329,0.628,0.668,-6.87,-2.47,-1.01,1,2
16516.109,0.318,0.629,0.674,-6.07,-1.28,-2.59,1,2
16516.109,0.303,0.633,0.679,-4.27,-0.21,-3.63,1,2
16516.125,0.295,0.645,0.687,-1.89,0.06,-4.18,1,2
16516.14,0.283,0.655,0.684,0.98,-0.43,-4.55,1,2
16516.14,0.278,0.664,0.677,3.85,-1.04,-4.15,1,2
16516.156,0.276,0.671,0.668,5.65,-1.68,-3.45,1,2
16516.171,0.278,0.676,0.663,6.13,-2.5,-2.96,1,2
16516.171,0.284,0.688,0.658,6.23,-2.87,-2.11,1,2
16516.187,0.29,0.69,0.648,6.01,-3.17,-1.07,1,2
16516.187,0.299,0.688,0.644,5.25,-3.39,0.24,1,2
16516.203,0.309,0.689,0.643,3.88,-3.36,1.19,1,2
16516.218,0.313,0.68,0.638,2.01,-2.9,1.5,1,2
16516.218,0.32,0.669,0.64,0.43,-2.35,1.65,1,2
16516.234,0.324,0.669,0.641,-0.46,-1.22,1.43,1,2
16516.25,0.324,0.665,0.645,-1.28,0.0,1.01,1,2
16516.25,0.32,0.661,0.654,-1.92,0.95,0.31,1,2
16516.265,0.315,0.66,0.664,-2.47,1.4,-0.49,1,2
16516.281,0.31,0.662,0.669,-1.95,1.25,-0.76,1,2
16516.281,0.308,0.663,0.669,-1.13,0.89,-0.79,1,2
16516.296,0.306,0.665,0.667,-0.06,0.43,-0.7,1,2
16516.312,0.302,0.664,0.664,0.79,-0.09,-0.85,1,2
16516.312,0.304,0.667,0.658,1.16,-0.4,-0.98,1,2
16516.328,0.303,0.674,0.655,0.92,-0.27,-1.04,1,2
16516.328,0.299,0.674,0.654,0.58,-0.09,-0.95,1,2
16516.343,0.302,0.677,0.657,0.15,-0.12,-0.52,1,2
16516.359,0.301,0.676,0.654,-1.07,-0.73,0.27,1,2
16516.359,0.301,0.669,0.656,-1.65,-0.92,0.43,1,2
16516.375,0.306,0.671,0.659,-2.14,-0.7,0.18,1,2
16516.39,0.302,0.659,0.663,-2.32,-0.46,0.4,1,2
16516.406,0.305,0.66,0.667,-2.59,-0.46,0.46,1,2
16516.406,0.306,0.66,0.672,-2.78,-0.82,0.31,1,2
16516.421,0.304,0.661,0.677,-2.59,-1.5,0.15,1,2
16516.421,0.303,0.66,0.675,-1.71,-2.04,0.0,1,2
16516.437,0.3,0.657,0.671,-0.55,-2.53,-0.15,1,2
16516.453,0.3,0.659,0.666,0.24,-2.56,-0.37,1,2
16516.453,0.301,0.661,0.663,0.89,-2.41,-0.4,1,2
16516.468,0.303,0.669,0.664,1.5,-2.56,-0.06,1,2
16516.468,0.309,0.677,0.661,1.86,-2.87,0.21,1,2
16516.484,0.309,0.675,0.658,1.95,-3.23,0.58,1,2
16516.5,0.314,0.672,0.653,1.89,-3.42,0.64,1,2
16516.5,0.319,0.67,0.645,1.71,-3.14,0.37,1,2
16516.515,0.318,0.666,0.638,1.4,-2.26,-0.09,1,2
16516.531,0.315,0.667,0.639,0.79,-0.89,-0.64,1,2
16516.531,0.309,0.668,0.641,0.27,0.82,-1.1,1,2
16516.546,0.302,0.669,0.649,-0.4,1.89,-1.22,1,2
16516.562,0.296,0.67,0.66,-0.95,2.23,-1.34,1,2
16516.562,0.293,0.67,0.669,-1.25,1.86,-0.89,1,2
16516.578,0.293,0.673,0.672,-1.4,1.37,-0.06,1,2
16516.578,0.288,0.667,0.674,-0.95,0.7,0.4,1,2
16516.593,0.294,0.663,0.674,0.06,-0.15,0.79,1,2
16516.609,0.299,0.663,0.671,0.27,-0.85,1.01,1,2
16516.625,0.3,0.655,0.667,0.79,-1.22,0.64,1,2
16516.625,0.309,0.66,0.664,1.53,-1.43,0.85,1,2
16516.64,0.313,0.67,0.662,1.8,-1.4,0.85,1,2
16516.64,0.315,0.669,0.659,1.77,-1.4,0.76,1,2
16516.656,0.319,0.67,0.654,1.77,-1.53,0.89,1,2
16516.671,0.316,0.668,0.648,1.71,-1.25,0.46,1,2
16516.671,0.314,0.663,0.647,1.04,-0.79,-0.12,1,2
16516.687,0.311,0.669,0.649,0.27,-0.21,-0.61,1,2
16516.703,0.305,0.665,0.651,-0.09,0.52,-0.92,1,2
16516.703,0.303,0.667,0.655,-0.15,1.04,-1.04,1,2
16516.718,0.298,0.67,0.66,-0.12,1.13,-1.1,1,2
16516.718,0.293,0.673,0.664,-0.24,1.07,-1.16,1,2
16516.734,0.291,0.674,0.666,-0.06,0.85,-0.85,1,2
16516.75,0.289,0.669,0.667,0.58,0.24,-0.43,1,2
16516.75,0.29,0.671,0.667,1.07,-0.61,0.09,1,2
16516.765,0.291,0.672,0.663,1.53,-1.59,0.21,1,2
16516.781,0.294,0.669,0.659,2.14,-1.98,0.37,1,2
16516.781,0.298,0.67,0.652,2.78,-1.62,0.37,1,2
16516.796,0.297,0.673,0.653,2.96,-1.1,0.37,1,2
16516.796,0.3,0.681,0.656,2.87,-1.04,0.58,1,2
16516.812,0.302,0.684,0.655,3.05,-1.53,0.92,1,2
16516.828,0.308,0.68,0.65,3.2,-2.04,1.43,1,2
16516.828,0.312,0.679,0.647,2.69,-2.08,1.46,1,2
16516.843,0.311,0.673,0.643,1.53,-1.68,1.07,1,2
16516.859,0.313,0.672,0.645,-0.06,-1.37,0.98,1,2
16516.875,0.314,0.674,0.652,-1.65,-1.01,1.07,1,2
16516.875,0.313,0.667,0.662,-2.96,-0.92,1.59,1,2
16516.89,0.313,0.661,0.673,-3.97,-1.4,2.01,1,2
16516.89,0.318,0.65,0.677,-4.3,-2.35,2.23,1,2
16516.906,0.326,0.65,0.681,-4.67,-2.75,2.08,1,2
16516.921,0.321,0.642,0.683,-4.43,-2.44,1.28,1,2
16516.921,0.32,0.636,0.685,-2.69,-2.69,1.07,1,2
16516.937,0.325,0.644,0.678,-0.73,-2.93,0.67,1,2
16516.937,0.324,0.643,0.672,0.73,-2.59,-0.12,1,2
16516.953,0.323,0.648,0.663,2.59,-2.04,-0.27,1,2
16516.968,0.321,0.655,0.653,4.3,-1.53,-0.95,1,2
16516.968,0.316,0.662,0.646,4.88,-0.67,-1.95,1,2
16516.984,0.306,0.671,0.642,5.01,0.4,-2.9,1,2
16517.0,0.292,0.669,0.637,5.34,1.22,-3.45,1,2
16517.0,0.289,0.682,0.637,4.76,2.04,-3.27,1,2
16517.015,0.279,0.695,0.645,3.51,2.56,-2.99,1,2
16517.031,0.276,0.695,0.652,2.35,2.11,-2.11,1,2
16517.031,0.278,0.702,0.656,1.34,0.85,-0.55,1,2
16517.046,0.283,0.694,0.655,0.67,-0.52,0.58,1,2
16517.062,0.296,0.687,0.653,-0.15,-1.8,1.8,1,2
16517.062,0.305,0.682,0.647,-1.07,-2.72,2.35,1,2
16517.078,0.311,0.671,0.644,-1.89,-2.84,2.29,1,2
16517.093,0.318,0.665,0.642,-2.81,-2.26,1.83,1,2
16517.093,0.318,0.66,0.647,-3.81,-1.34,1.13,1,2
16517.109,0.318,0.657,0.657,-4.85,-0.7,0.52,1,2
16517.109,0.314,0.658,0.664,-5.83,-0.37,0.03,1,2
16517.125,0.312,0.658,0.672,-6.44,-0.15,-0.4,1,2
16517.14,0.304,0.653,0.678,-6.23,-0.18,-0.64,1,2
16517.156,0.299,0.648,0.684,-5.34,-0.92,-0.49,1,2
16517.156,0.303,0.65,0.684,-4.52,-2.11,-0.24,1,2
16517.156,0.305,0.653,0.683,-3.39,-2.9,-0.18,1,2
16517.171,0.306,0.657,0.678,-1.8,-3.02,-0.24,1,2
16517.187,0.303,0.651,0.668,0.27,-2.99,-0.67,1,2
16517.187,0.306,0.648,0.656,2.01,-2.62,-1.19,1,2
16517.203,0.304,0.659,0.65,2.17,-1.86,-1.83,1,2
16517.218,0.3,0.665,0.651,1.98,-0.89,-2.11,1,2
16517.218,0.301,0.676,0.655,1.8,-0.55,-1.56,1,2
16517.234,0.304,0.686,0.658,1.1,-0.55,-1.04,1,2
16517.25,0.298,0.676,0.656,0.55,-0.64,-0.64,1,2
16517.25,0.307,0.672,0.654,0.24,-0.79,-0.15,1,2
16517.265,0.314,0.674,0.655,-0.37,-0.73,0.09,1,2
16517.281,0.313,0.666,0.657,-0.67,-0.46,0.15,1,2
16517.281,0.318,0.667,0.661,-0.24,-0.46,0.85,1,2
16517.296,0.322,0.673,0.664,0.12,-0.7,1.01,1,2
16517.312,0.322,0.67,0.663,0.09,-1.01,0.58,1,2
16517.312,0.327,0.657,0.664,-0.31,-1.89,-0.27,1,2
16517.328,0.322,0.662,0.661,0.89,-2.29,0.0,1,2
16517.328,0.332,0.672,0.651,1.83,-1.07,-1.01,1,2
16517.343,0.322,0.667,0.641,0.98,-0.12,-1.56,1,2
16517.359,0.309,0.665,0.643,-0.15,0.49,-2.14,1,2
16517.375,0.309,0.672,0.647,-1.53,0.58,-2.17,1,2
16517.375,0.302,0.69,0.666,-2.84,0.06,-0.73,1,2
16517.39,0.307,0.695,0.671,-4.24,-1.13,0.85,1,2
16517.39,0.306,0.674,0.668,-5.71,-2.59,1.4,1,2
16517.406,0.309,0.65,0.665,-7.11,-3.66,1.56,1,2
16517.421,0.311,0.635,0.662,-7.54,-3.23,0.92,1,2
16517.421,0.303,0.618,0.656,-5.68,-1.43,-1.31,1,2
16517.437,0.293,0.623,0.661,-2.96,1.28,-3.51,1,2
16517.453,0.277,0.642,0.673,-0.34,3.69,-4.67,1,2
16517.453,0.264,0.657,0.687,2.5,3.94,-4.64,1,2
16517.468,0.27,0.693,0.692,5.01,1.98,-3.3,1,2
16517.468,0.274,0.716,0.687,6.74,-0.73,-1.1,1,2
16517.484,0.282,0.709,0.675,8.18,-4.18,1.8,1,2
16517.5,0.304,0.705,0.65,8.0,-7.08,3.75,1,2
16517.5,0.314,0.684,0.622,5.58,-8.09,2.93,1,2
16517.515,0.326,0.656,0.611,2.35,-7.69,1.86,1,2
16517.531,0.335,0.672,0.608,0.37,-5.13,1.16,1,2
16517.531,0.332,0.682,0.612,-1.4,-1.59,0.31,1,2
16517.546,0.316,0.671,0.628,-3.51,1.22,-0.34,1,2
16517.546,0.316,0.676,0.656,-5.28,2.32,-0.24,1,2
16517.562,0.304,0.679,0.668,-6.44,2.29,0.0,1,2
16517.578,0.3,0.657,0.678,-6.23,0.92,1.01,1,2
16517.593,0.318,0.665,0.685,-5.68,-0.18,2.32,1,2
16517.593,0.31,0.654,0.683,-5.71,-0.58,1.77,1,2
16517.609,0.305,0.629,0.687,-4.91,-0.92,1.53,1,2
16517.609,0.311,0.633,0.683,-3.36,-1.28,1.16,1,2
16517.625,0.307,0.625,0.681,-1.98,-1.04,0.24,1,2
16517.64,0.308,0.633,0.687,-0.76,-0.31,-0.58,1,2
16517.64,0.306,0.645,0.684,1.5,0.21,-1.01,1,2
16517.656,0.302,0.653,0.685,3.69,0.09,-0.89,1,2
16517.671,0.306,0.662,0.677,5.43,-0.7,-0.49,1,2
16517.671,0.313,0.668,0.663,6.53,-1.4,-0.27,1,2
16517.687,0.319,0.675,0.648,6.78,-1.59,-0.27,1,2
16517.687,0.321,0.678,0.635,6.56,-1.13,-0.31,1,2
16517.703,0.321,0.675,0.627,5.86,-0.12,-0.64,1,2
16517.718,0.315,0.68,0.628,4.15,1.16,-1.25,1,2
16517.718,0.308,0.685,0.638,1.71,1.83,-1.77,1,2
16517.734,0.297,0.685,0.645,-0.43,2.26,-1.8,1,2
16517.75,0.291,0.682,0.653,-2.2,2.11,-1.5,1,2
16517.75,0.283,0.677,0.665,-3.54,1.56,-1.07,1,2
16517.765,0.278,0.673,0.672,-4.49,0.55,-0.43,1,2
16517.781,0.28,0.667,0.677,-5.16,-0.46,0.18,1,2
16517.781,0.28,0.659,0.681,-5.16,-1.46,0.76,1,2
16517.796,0.286,0.657,0.682,-4.79,-2.56,1.31,1,2
16517.812,0.295,0.658,0.684,-4.09,-3.69,1.74,1,2
16517.812,0.303,0.657,0.682,-2.96,-4.7,1.83,1,2
16517.828,0.313,0.655,0.673,-1.71,-5.28,1.56,1,2
16517.828,0.322,0.652,0.665,-0.7,-5.4,1.04,1,2
16517.843,0.326,0.649,0.658,0.18,-5.07,0.55,1,2
16517.859,0.329,0.655,0.653,0.67,-4.09,-0.09,1,2
16517.859,0.328,0.661,0.651,0.89,-3.02,-0.85,1,2
16517.875,0.323,0.666,0.652,0.89,-2.04,-1.19,1,2
16517.89,0.318,0.669,0.653,0.52,-1.28,-1.13,1,2
16517.906,0.312,0.667,0.655,0.12,-0.73,-0.79,1,2
16517.906,0.307,0.667,0.658,-0.43,-0.21,-0.52,1,2
16517.921,0.304,0.665,0.665,-1.01,-0.06,-0.24,1,2
16517.921,0.301,0.662,0.67,-1.28,-0.06,0.03,1,2
16517.937,0.299,0.66,0.674,-1.01,-0.03,0.21,1,2
16517.953,0.296,0.652,0.676,-0.43,-0.24,0.31,1,2
16517.953,0.301,0.652,0.677,0.49,-0.82,0.67,1,2
16517.968,0.307,0.659,0.673,0.98,-1.01,0.55,1,2
16517.984,0.308,0.655,0.668,1.8,-0.76,0.24,1,2
16517.984,0.31,0.656,0.662,2.84,-0.49,0.43,1,2
16518.0,0.311,0.658,0.655,3.54,-0.12,-0.06,1,2
16518.0,0.314,0.662,0.652,3.42,0.24,-0.73,1,2
16518.015,0.315,0.669,0.649,2.93,0.79,-1.28,1,2
16518.031,0.311,0.676,0.651,2.69,1.19,-1.59,1,2
16518.031,0.306,0.682,0.653,2.32,1.43,-1.43,1,2
16518.046,0.302,0.682,0.652,1.46,1.28,-1.22,1,2
16518.062,0.3,0.682,0.653,0.46,0.89,-0.92,1,2
16518.062,0.298,0.682,0.656,-0.64,0.31,-0.4,1,2
16518.078,0.296,0.679,0.661,-1.74,-0.58,0.15,1,2
16518.078,0.297,0.674,0.664,-2.81,-1.4,0.73,1,2
16518.093,0.302,0.668,0.667,-3.63,-2.26,1.1,1,2
16518.109,0.305,0.662,0.667,-4.18,-3.08,1.31,1,2
16518.109,0.307,0.658,0.668,-4.58,-3.51,1.25,1,2
16518.125,0.309,0.653,0.667,-4.33,-3.69,0.98,1,2
16518.14,0.312,0.651,0.667,-4.24,-3.45,0.55,1,2
16518.14,0.311,0.649,0.669,-3.69,-2.96,0.15,1,2
16518.156,0.309,0.648,0.67,-3.08,-2.62,-0.09,1,2
16518.171,0.31,0.649,0.672,-2.04,-2.41,-0.43,1,2
16518.171,0.309,0.653,0.672,-0.85,-2.11,-0.61,1,2
16518.187,0.306,0.656,0.669,-0.06,-2.04,-0.89,1,2
16518.203,0.303,0.659,0.667,0.61,-1.98,-0.85,1,2
16518.203,0.302,0.662,0.667,1.4,-1.77,-0.55,1,2
16518.218,0.303,0.663,0.666,2.04,-1.65,-0.21,1,2
16518.218,0.304,0.663,0.667,2.29,-1.68,0.31,1,2
16518.234,0.304,0.664,0.665,2.29,-1.77,0.43,1,2
16518.25,0.306,0.663,0.661,2.26,-1.83,0.55,1,2
16518.25,0.31,0.662,0.659,1.92,-1.5,0.76,1,2
16518.265,0.311,0.663,0.661,1.5,-1.31,0.7,1,2
16518.281,0.315,0.661,0.66,1.1,-1.19,0.55,1,2
16518.281,0.317,0.66,0.657,0.61,-0.85,0.21,1,2
16518.296,0.316,0.661,0.657,0.4,-0.31,0.24,1,2
16518.312,0.318,0.664,0.657,0.46,0.09,0.43,1,2
16518.312,0.316,0.664,0.658,0.21,0.31,0.18,1,2
16518.328,0.313,0.663,0.657,-0.18,0.67,-0.49,1,2
16518.328,0.311,0.664,0.658,-0.24,0.79,-0.52,1,2
16518.343,0.307,0.667,0.659,-0.34,0.76,-0.49,1,2
16518.359,0.3,0.675,0.66,-0.55,0.58,-0.12,1,2
16518.359,0.296,0.677,0.663,-0.92,0.18,0.49,1,2
16518.375,0.297,0.673,0.662,-1.53,-0.18,1.04,1,2
16518.39,0.298,0.668,0.662,-2.04,-0.61,1.5,1,2
16518.39,0.302,0.664,0.663,-2.44,-1.22,1.92,1,2
16518.406,0.305,0.665,0.669,-3.11,-1.74,2.11,1,2
16518.421,0.308,0.664,0.673,-3.66,-2.08,2.17,1,2
16518.421,0.308,0.656,0.672,-3.54,-2.53,2.04,1,2
16518.437,0.311,0.649,0.671,-3.11,-3.05,2.11,1,2
16518.453,0.315,0.65,0.675,-3.05,-3.33,1.95,1,2
16518.453,0.313,0.652,0.678,-3.11,-3.6,1.46,1,2
16518.468,0.315,0.646,0.676,-2.59,-4.03,1.34,1,2
16518.468,0.317,0.65,0.674,-1.46,-4.0,1.1,1,2
16518.484,0.314,0.65,0.672,-0.09,-4.03,0.85,1,2
16518.5,0.312,0.652,0.67,0.79,-3.72,0.73,1,2
16518.5,0.311,0.652,0.669,1.71,-3.36,0.64,1,2
16518.515,0.308,0.658,0.665,2.72,-3.23,0.64,1,2
16518.531,0.305,0.662,0.667,3.11,-3.27,0.58,1,2
16518.531,0.304,0.662,0.669,3.27,-3.17,0.79,1,2
16518.546,0.303,0.666,0.669,3.36,-3.45,1.28,1,2
16518.562,0.307,0.664,0.668,3.42,-4.12,1.74,1,2
16518.562,0.308,0.665,0.668,3.2,-4.49,2.38,1,2
16518.578,0.312,0.666,0.669,3.08,-4.88,3.05,1,2
16518.578,0.313,0.66,0.669,3.42,-5.19,3.3,1,2
16518.593,0.315,0.655,0.667,4.03,-5.25,3.85,1,2
16518.609,0.319,0.651,0.668,4.85,-5.16,4.67,1,2
16518.609,0.325,0.651,0.666,5.62,-4.94,4.67,1,2
16518.625,0.329,0.648,0.669,6.74,-4.7,4.27,1,2
16518.64,0.328,0.651,0.668,8.55,-4.46,3.88,1,2
16518.656,0.324,0.651,0.664,10.28,-4.15,3.51,1,2
16518.656,0.318,0.657,0.662,11.63,-4.09,3.48,1,2
16518.671,0.314,0.666,0.66,12.73,-4.43,3.6,1,2
16518.671,0.317,0.671,0.652,13.55,-5.04,3.88,1,2
16518.687,0.317,0.68,0.65,13.86,-5.4,4.33,1,2
16518.703,0.313,0.684,0.647,13.49,-5.89,5.31,1,2
16518.703,0.324,0.683,0.641,13.12,-6.35,6.01,1,2
16518.718,0.323,0.688,0.63,11.9,-6.5,6.32,1,2
16518.718,0.334,0.68,0.635,10.5,-6.29,6.78,1,2
16518.734,0.331,0.682,0.629,9.86,-6.01,6.93,1,2
16518.75,0.334,0.685,0.623,8.82,-5.55,7.6,1,2
16518.75,0.341,0.684,0.622,7.26,-5.16,8.18,1,2
16518.765,0.342,0.679,0.624,6.07,-4.64,8.45,1,2
16518.781,0.345,0.681,0.629,5.43,-3.85,9.0,1,2
16518.781,0.348,0.678,0.629,5.58,-3.2,9.28,1,2
16518.796,0.346,0.672,0.628,5.52,-2.53,9.28,1,2
16518.812,0.349,0.666,0.627,5.95,-1.71,9.03,1,2
16518.812,0.35,0.663,0.629,6.9,-0.64,8.85,1,2
16518.828,0.348,0.664,0.627,8.24,0.64,8.67,1,2
16518.843,0.349,0.667,0.63,9.22,1.59,8.18,1,2
16518.843,0.349,0.667,0.635,10.04,2.14,7.97,1,2
16518.859,0.345,0.669,0.637,10.77,1.89,7.54,1,2
16518.859,0.347,0.672,0.637,11.63,1.65,7.48,1,2
16518.875,0.343,0.674,0.64,12.27,1.68,7.6,1,2
16518.89,0.341,0.672,0.635,13.86,1.95,8.3,1,2
16518.89,0.341,0.68,0.639,15.29,2.2,9.61,1,2
16518.906,0.339,0.684,0.641,16.72,2.35,10.9,1,2
16518.921,0.337,0.685,0.633,18.19,1.95,11.96,1,2
16518.921,0.339,0.689,0.629,18.22,0.98,13.28,1,2
16518.937,0.344,0.693,0.623,17.91,-0.03,14.19,1,2
16518.937,0.349,0.69,0.616,17.46,-1.22,14.34,1,2
16518.953,0.352,0.683,0.613,17.4,-2.11,14.13,1,2
16518.968,0.359,0.683,0.612,17.7,-2.53,13.7,1,2
16518.968,0.36,0.68,0.607,18.37,-2.87,12.76,1,2
16518.984,0.368,0.678,0.603,18.43,-3.75,11.54,1,2
16519.0,0.377,0.681,0.594,18.59,-4.39,10.35,1,2
16519.0,0.374,0.685,0.591,18.62,-4.36,9.31,1,2
16519.015,0.375,0.692,0.589,18.16,-4.46,8.55,1,2
16519.031,0.369,0.705,0.583,16.45,-5.1,7.69,1,2
16519.031,0.365,0.717,0.579,13.61,-6.35,7.35,1,2
16519.046,0.37,0.734,0.572,10.68,-7.42,8.15,1,2
16519.062,0.374,0.738,0.567,8.33,-7.97,9.49,1,2
16519.062,0.379,0.725,0.559,6.74,-7.78,10.86,1,2
16519.078,0.386,0.716,0.561,5.58,-6.87,11.63,1,2
16519.078,0.393,0.701,0.564,5.4,-4.91,12.21,1,2
16519.093,0.393,0.687,0.563,5.95,-3.08,12.27,1,2
16519.109,0.397,0.677,0.567,5.95,-1.53,11.41,1,2
16519.109,0.398,0.671,0.576,5.8,-0.24,9.52,1,2
16519.125,0.396,0.667,0.579,6.26,0.18,7.66,1,2
16519.14,0.389,0.676,0.582,6.04,0.03,6.26,1,2
16519.14,0.392,0.692,0.587,4.3,-1.5,4.36,1,2
16519.156,0.391,0.699,0.581,3.08,-3.42,2.41,1,2
16519.171,0.393,0.707,0.571,2.66,-4.88,0.92,1,2
16519.171,0.397,0.709,0.566,2.38,-5.28,0.03,1,2
16519.187,0.393,0.707,0.562,2.32,-4.61,0.27,1,2
16519.203,0.403,0.706,0.564,2.32,-4.0,0.73,1,2
16519.203,0.407,0.697,0.563,2.11,-2.9,0.7,1,2
16519.218,0.404,0.691,0.563,1.95,-1.59,0.12,1,2
16519.218,0.402,0.685,0.564,1.62,-0.55,-0.64,1,2
16519.234,0.402,0.684,0.564,0.67,0.12,-1.83,1,2
16519.25,0.399,0.691,0.565,-0.37,0.85,-3.02,1,2
16519.25,0.394,0.698,0.568,-0.82,1.74,-3.66,1,2
16519.265,0.39,0.702,0.57,-0.7,2.5,-3.88,1,2
16519.281,0.385,0.701,0.575,-0.79,3.11,-4.12,1,2
16519.281,0.382,0.7,0.584,-0.98,3.27,-3.91,1,2
16519.296,0.376,0.702,0.586,-1.16,2.9,-3.75,1,2
16519.296,0.375,0.707,0.584,-1.4,1.4,-3.05,1,2
16519.312,0.374,0.71,0.582,-0.92,1.04,-2.47,1,2
16519.328,0.375,0.714,0.582,-0.27,0.82,-1.65,1,2
16519.328,0.38,0.714,0.581,0.34,1.01,-1.25,1,2
16519.343,0.386,0.69,0.582,1.31,1.37,-1.19,1,2
16519.359,0.39,0.68,0.583,2.44,1.83,-1.83,1,2
16519.359,0.392,0.677,0.582,3.39,2.47,-2.9,1,2
16519.375,0.387,0.683,0.585,4.24,2.9,-3.81,1,2
16519.39,0.381,0.695,0.586,4.49,2.5,-4.67,1,2
16519.39,0.374,0.71,0.581,3.94,1.1,-5.68,1,2
16519.406,0.37,0.717,0.576,2.5,-0.67,-6.26,1,2
16519.421,0.367,0.722,0.575,0.67,-2.01,-6.38,1,2
16519.421,0.368,0.723,0.57,-0.79,-2.93,-5.89,1,2
16519.437,0.366,0.716,0.572,-1.74,-3.51,-5.25,1,2
16519.437,0.368,0.714,0.576,-2.14,-4.03,-4.55,1,2
16519.453,0.37,0.71,0.584,-1.86,-4.36,-4.15,1,2
16519.468,0.372,0.705,0.589,-1.13,-4.7,-4.09,1,2
16519.468,0.373,0.703,0.588,0.24,-4.97,-3.97,1,2
16519.484,0.371,0.702,0.582,1.53,-5.49,-3.78,1,2
16519.5,0.374,0.705,0.575,1.43,-6.53,-4.43,1,2
16519.5,0.372,0.708,0.567,-0.55,-8.15,-5.95,1,2
16519.515,0.374,0.713,0.562,-3.39,-9.61,-7.51,1,2
16519.531,0.376,0.712,0.564,-5.83,-10.47,-8.7,1,2
16519.531,0.377,0.712,0.564,-6.87,-10.28,-8.88,1,2
16519.546,0.376,0.715,0.568,-6.81,-9.19,-8.36,1,2
16519.562,0.377,0.719,0.576,-5.4,-7.29,-7.11,1,2
16519.562,0.377,0.722,0.581,-2.69,-5.04,-4.61,1,2
16519.578,0.371,0.716,0.581,0.21,-3.2,-2.23,1,2
16519.578,0.368,0.702,0.582,1.1,-2.84,-1.37,1,2
16519.593,0.364,0.696,0.58,-0.15,-3.91,-1.62,1,2
16519.609,0.366,0.706,0.581,-2.53,-5.68,-2.5,1,2
16519.609,0.365,0.71,0.58,-5.19,-7.78,-4.09,1,2
16519.625,0.37,0.707,0.575,-6.65,-9.31,-5.31,1,2
16519.64,0.375,0.708,0.575,-7.39,-10.04,-5.68,1,2
16519.64,0.375,0.712,0.577,-6.84,-9.58,-5.46,1,2
16519.656,0.379,0.714,0.566,-5.04,-7.87,-4.12,1,2
16519.671,0.378,0.718,0.573,-2.23,-5.34,-1.68,1,2
16519.671,0.377,0.722,0.574,0.34,-3.3,0.89,1,2
16519.687,0.378,0.712,0.574,1.74,-1.95,2.38,1,2
16519.703,0.376,0.703,0.578,1.5,-1.71,2.87,1,2
16519.703,0.376,0.7,0.576,0.67,-2.41,2.69,1,2
16519.718,0.381,0.7,0.572,-0.58,-2.96,1.86,1,2
16519.718,0.384,0.699,0.572,-1.62,-3.05,0.85,1,2
16519.734,0.383,0.698,0.571,-1.74,-2.35,0.34,1,2
16519.75,0.385,0.7,0.568,-1.74,-1.25,0.12,1,2
16519.75,0.387,0.701,0.565,-1.71,0.03,-0.27,1,2
16519.765,0.392,0.698,0.567,-0.98,1.92,-0.15,1,2
16519.781,0.389,0.694,0.574,-0.31,3.72,-0.4,1,2
16519.781,0.378,0.683,0.598,-2.14,4.06,-0.7,1,2
16519.796,0.385,0.704,0.578,-1.65,2.41,-1.59,1,2
16519.796,0.382,0.683,0.563,4.36,4.58,-1.8,1,2
16519.812,0.366,0.707,0.598,1.92,5.49,-2.9,1,2
16519.828,0.371,0.69,0.598,2.96,3.72,-3.48,1,2
16519.828,0.365,0.699,0.59,4.36,1.95,-4.27,1,2
16519.843,0.36,0.718,0.594,4.76,0.46,-4.33,1,2
16519.859,0.355,0.724,0.587,5.52,-1.16,-3.6,1,2
16519.875,0.357,0.729,0.58,5.34,-1.95,-2.17,1,2
16519.875,0.359,0.729,0.581,4.82,-2.72,-0.89,1,2
16519.89,0.359,0.719,0.578,4.49,-3.36,0.43,1,2
16519.89,0.366,0.715,0.58,4.21,-3.78,1.59,1,2
16519.906,0.371,0.706,0.583,4.43,-3.75,2.08,1,2
16519.921,0.376,0.687,0.581,5.46,-3.39,1.8,1,2
16519.921,0.384,0.68,0.579,6.87,-2.9,1.01,1,2
16519.937,0.386,0.676,0.577,8.79,-2.01,-0.37,1,2
16519.937,0.385,0.685,0.57,10.28,-1.25,-2.17,1,2
16519.953,0.383,0.7,0.564,10.62,-0.98,-4.15,1,2
16519.968,0.38,0.715,0.558,10.28,-1.04,-5.71,1,2
16519.968,0.375,0.731,0.549,10.44,-0.61,-5.86,1,2
16519.984,0.37,0.748,0.545,9.77,-0.09,-5.31,1,2
16520.0,0.364,0.753,0.541,8.12,0.09,-4.39,1,2
16520.015,0.36,0.757,0.539,5.49,-0.24,-3.08,1,2
16520.015,0.363,0.759,0.544,2.56,-0.92,-1.68,1,2
16520.031,0.361,0.748,0.547,-0.03,-1.56,-0.55,1,2
16520.031,0.365,0.734,0.549,-2.2,-2.11,0.4,1,2
16520.046,0.37,0.725,0.552,-4.0,-2.2,1.07,1,2
16520.062,0.371,0.72,0.557,-5.16,-1.83,1.25,1,2
16520.062,0.372,0.715,0.561,-5.83,-1.34,1.04,1,2
16520.078,0.371,0.711,0.567,-5.83,-0.92,0.85,1,2
16520.078,0.373,0.708,0.572,-5.4,-0.64,0.92,1,2
16520.093,0.375,0.705,0.575,-4.33,-0.27,0.79,1,2
16520.109,0.373,0.699,0.576,-2.59,0.18,0.46,1,2
16520.109,0.376,0.698,0.581,-0.76,0.64,0.24,1,2
16520.125,0.374,0.702,0.585,1.22,0.64,-0.37,1,2
16520.14,0.371,0.703,0.584,3.23,0.27,-0.89,1,2
16520.14,0.368,0.71,0.575,5.01,-0.06,-1.31,1,2
16520.156,0.365,0.718,0.563,6.1,-0.43,-1.31,1,2
16520.171,0.366,0.728,0.556,5.95,-0.82,-1.28,1,2
16520.171,0.363,0.734,0.551,5.07,-1.22,-1.07,1,2
16520.187,0.368,0.735,0.546,3.91,-1.04,-0.55,1,2
16520.203,0.368,0.736,0.544,2.75,-0.43,0.06,1,2
16520.203,0.365,0.734,0.547,1.34,0.03,0.52,1,2
16520.218,0.365,0.728,0.551,-0.27,0.12,0.98,1,2
16520.234,0.367,0.73,0.557,-1.68,0.09,1.04,1,2
16520.234,0.367,0.727,0.563,-2.5,-0.03,1.31,1,2
16520.25,0.364,0.719,0.571,-2.87,-0.49,1.65,1,2
16520.25,0.368,0.716,0.576,-2.72,-1.16,1.71,1,2
16520.265,0.372,0.71,0.577,-2.11,-1.8,1.56,1,2
16520.281,0.374,0.704,0.574,-0.89,-2.04,1.28,1,2
16520.281,0.378,0.704,0.573,1.86,-1.62,0.61,1,2
16520.296,0.379,0.708,0.57,2.72,-1.5,0.24,1,2
16520.312,0.374,0.712,0.563,2.96,-1.65,-0.03,1,2
16520.312,0.375,0.72,0.558,2.78,-1.53,-0.15,1,2
16520.328,0.373,0.728,0.551,2.23,-1.16,-0.09,1,2
16520.328,0.371,0.726,0.55,1.83,-0.73,0.0,1,2
16520.343,0.369,0.723,0.551,1.5,-0.31,-0.09,1,2
16520.359,0.371,0.721,0.553,1.04,0.21,-0.31,1,2
16520.359,0.366,0.719,0.558,0.64,0.55,-0.43,1,2
16520.375,0.366,0.723,0.564,0.49,0.52,-0.34,1,2
16520.39,0.368,0.724,0.568,0.4,0.06,-0.09,1,2
16520.39,0.368,0.725,0.566,0.46,-0.34,0.27,1,2
16520.406,0.37,0.727,0.565,0.24,-0.79,0.76,1,2
16520.421,0.375,0.722,0.563,0.0,-1.31,0.85,1,2
16520.421,0.375,0.716,0.56,-0.09,-1.53,0.89,1,2
16520.437,0.375,0.716,0.56,-0.27,-1.25,0.55,1,2
16520.453,0.376,0.711,0.558,-0.12,-1.13,0.0,1,2
16520.453,0.378,0.71,0.561,0.06,-0.79,-0.61,1,2
16520.468,0.371,0.714,0.562,0.61,-0.03,-1.13,1,2
16520.468,0.369,0.721,0.562,0.98,0.4,-1.22,1,2
16520.484,0.366,0.721,0.564,1.37,0.55,-1.1,1,2
16520.5,0.367,0.722,0.565,1.89,0.15,-0.73,1,2
16520.5,0.367,0.724,0.568,2.38,-0.12,-0.34,1,2
16520.515,0.365,0.723,0.567,2.93,-0.55,-0.06,1,2
16520.531,0.368,0.725,0.562,3.27,-1.25,0.15,1,2
16520.546,0.368,0.728,0.555,3.3,-1.74,0.18,1,2
16520.546,0.367,0.729,0.55,3.02,-1.86,0.31,1,2
16520.562,0.37,0.73,0.547,2.04,-1.83,0.34,1,2
16520.562,0.371,0.732,0.545,0.58,-1.71,0.37,1,2
16520.578,0.372,0.73,0.547,-0.52,-1.28,0.61,1,2
16520.578,0.373,0.722,0.553,-1.37,-0.82,0.61,1,2
16520.593,0.373,0.718,0.559,-1.98,-0.7,0.4,1,2
16520.609,0.374,0.715,0.565,-2.29,-0.64,0.12,1,2
16520.609,0.375,0.709,0.57,-1.83,-0.58,-0.34,1,2
16520.625,0.375,0.708,0.572,-0.61,-0.7,-0.67,1,2
16520.64,0.376,0.71,0.569,0.61,-0.85,-1.1,1,2
16520.64,0.375,0.713,0.566,1.59,-0.85,-1.4,1,2
16520.656,0.375,0.716,0.564,2.69,-0.92,-1.74,1,2
16520.671,0.374,0.719,0.557,3.78,-0.85,-1.92,1,2
16520.671,0.372,0.721,0.554,4.64,-0.52,-2.01,1,2
16520.687,0.371,0.722,0.552,4.91,-0.18,-2.08,1,2
16520.703,0.365,0.731,0.55,4.67,0.0,-2.17,1,2
16520.703,0.365,0.737,0.546,3.75,-0.03,-2.23,1,2
16520.718,0.362,0.738,0.547,3.02,0.0,-1.62,1,2
16520.718,0.363,0.739,0.547,2.26,-0.06,-0.92,1,2
16520.734,0.363,0.739,0.548,1.22,-0.12,-0.49,1,2
16520.75,0.363,0.734,0.55,0.09,0.09,-0.15,1,2
16520.765,0.363,0.732,0.553,-1.07,-0.06,0.34,1,2
16520.765,0.368,0.73,0.553,-2.14,-0.27,0.58,1,2
16520.781,0.367,0.728,0.556,-2.9,-0.43,0.79,1,2
16520.781,0.37,0.724,0.562,-2.96,-0.31,0.95,1,2
16520.796,0.37,0.718,0.564,-2.47,-0.37,0.76,1,2
16520.812,0.371,0.71,0.565,-1.95,-0.58,0.43,1,2
16520.812,0.374,0.706,0.566,-0.89,-0.55,-0.27,1,2
16520.828,0.374,0.71,0.563,0.46,-0.43,-1.01,1,2
16520.843,0.372,0.713,0.561,1.37,-0.12,-1.92,1,2
16520.843,0.368,0.719,0.561,2.32,0.21,-2.59,1,2
16520.859,0.365,0.725,0.558,3.02,0.34,-2.84,1,2
16520.859,0.362,0.73,0.556,3.42,0.31,-2.66,1,2
16520.875,0.357,0.735,0.557,3.42,0.0,-2.14,1,2
16520.89,0.356,0.74,0.555,2.93,-0.7,-1.5,1,2
16520.89,0.357,0.741,0.554,2.14,-1.34,-0.76,1,2
16520.906,0.363,0.74,0.55,1.22,-1.98,-0.18,1,2
16520.921,0.369,0.736,0.549,0.34,-2.26,0.34,1,2
16520.921,0.371,0.728,0.547,-0.4,-1.95,0.27,1,2
16520.937,0.374,0.722,0.55,-0.98,-1.4,0.06,1,2
16520.953,0.374,0.719,0.549,-1.04,-0.7,-0.34,1,2
16520.953,0.373,0.719,0.553,-1.04,-0.06,-1.01,1,2
16520.968,0.371,0.721,0.557,-0.89,0.27,-1.37,1,2
16520.984,0.368,0.725,0.559,-0.73,0.4,-1.74,1,2
16520.984,0.362,0.726,0.557,-0.43,0.37,-1.83,1,2
16521.0,0.358,0.728,0.56,-0.06,0.34,-1.53,1,2
16521.0,0.359,0.733,0.563,0.24,0.0,-1.07,1,2
16521.015,0.356,0.733,0.56,0.49,-0.55,-0.76,1,2
16521.031,0.357,0.732,0.557,0.67,-1.22,-0.4,1,2
16521.031,0.362,0.731,0.554,0.58,-1.65,-0.03,1,2
16521.046,0.365,0.73,0.552,0.49,-1.71,0.15,1,2
16521.062,0.364,0.727,0.549,0.03,-1.59,0.03,1,2
16521.062,0.367,0.727,0.549,-0.43,-1.68,-0.24,1,2
16521.078,0.368,0.726,0.549,-1.01,-1.5,-0.43,1,2
16521.078,0.368,0.726,0.551,-1.53,-1.04,-0.79,1,2
16521.093,0.367,0.723,0.554,-1.83,-0.4,-1.25,1,2
16521.109,0.365,0.722,0.559,-1.68,0.03,-1.37,1,2
16521.109,0.366,0.718,0.563,-1.16,0.24,-1.4,1,2
16521.125,0.364,0.717,0.565,-0.43,0.37,-1.65,1,2
16521.14,0.362,0.721,0.566,0.27,0.18,-1.74,1,2
16521.14,0.362,0.728,0.566,1.07,0.03,-1.71,1,2
16521.156,0.361,0.731,0.561,1.86,-0.21,-1.43,1,2
16521.171,0.36,0.733,0.557,2.38,-0.34,-1.04,1,2
16521.187,0.363,0.734,0.553,2.5,-0.31,-0.64,1,2
16521.187,0.365,0.731,0.549,2.23,-0.18,-0.43,1,2
16521.203,0.366,0.729,0.546,1.89,-0.03,-0.4,1,2
16521.203,0.368,0.73,0.546,1.43,0.27,-0.37,1,2
16521.218,0.365,0.728,0.55,0.95,0.73,-0.64,1,2
16521.218,0.361,0.728,0.554,0.67,1.04,-0.73,1,2
16521.234,0.361,0.73,0.555,0.46,1.25,-0.64,1,2
16521.25,0.359,0.727,0.559,0.61,1.25,-0.67,1,2
16521.25,0.356,0.726,0.559,0.79,1.19,-0.52,1,2
16521.265,0.355,0.728,0.559,0.58,0.73,-0.46,1,2
16521.281,0.355,0.727,0.558,-1.01,-0.92,-0.67,1,2
16521.281,0.354,0.731,0.56,-1.31,-1.56,-0.58,1,2
16521.296,0.353,0.735,0.564,-0.95,-2.01,-0.21,1,2
16521.296,0.356,0.732,0.558,-0.49,-2.72,0.15,1,2
16521.312,0.36,0.725,0.556,-0.43,-3.23,-0.09,1,2
16521.328,0.362,0.72,0.55,-0.18,-3.36,-0.55,1,2
16521.328,0.369,0.723,0.547,-0.06,-2.81,-0.85,1,2
16521.343,0.369,0.73,0.55,-0.03,-1.83,-1.19,1,2
16521.359,0.365,0.73,0.553,0.12,-1.1,-1.46,1,2
16521.359,0.365,0.73,0.554,0.4,-0.67,-1.56,1,2
16521.375,0.365,0.731,0.553,0.55,-0.43,-1.5,1,2
16521.39,0.365,0.732,0.552,0.06,0.06,-1.13,1,2
16521.39,0.365,0.734,0.553,-0.73,0.61,-1.13,1,2
16521.406,0.363,0.729,0.555,-1.1,1.25,-0.89,1,2
16521.421,0.363,0.726,0.559,-1.16,1.71,-0.55,1,2
16521.421,0.36,0.727,0.564,-1.07,1.77,-0.27,1,2
16521.437,0.359,0.724,0.564,-0.85,1.43,-0.31,1,2
16521.453,0.356,0.72,0.563,-0.15,1.13,-0.49,1,2
16521.453,0.355,0.722,0.562,0.82,0.82,-0.79,1,2
16521.468,0.355,0.726,0.558,1.71,0.64,-1.04,1,2
16521.468,0.35,0.728,0.557,1.86,0.34,-1.4,1,2
16521.484,0.352,0.731,0.558,2.04,-0.06,-1.77,1,2
16521.5,0.351,0.735,0.556,2.08,-0.82,-1.89,1,2
16521.515,0.354,0.738,0.555,1.95,-1.46,-1.95,1,2
16521.515,0.356,0.744,0.55,1.4,-1.95,-1.95,1,2
16521.531,0.36,0.744,0.544,0.4,-2.35,-1.95,1,2
16521.531,0.362,0.74,0.542,-1.16,-2.59,-2.01,1,2
16521.546,0.363,0.738,0.54,-2.9,-2.44,-2.08,1,2
16521.562,0.364,0.736,0.543,-4.33,-1.65,-2.29,1,2
16521.562,0.362,0.728,0.551,-5.4,-0.52,-2.23,1,2
16521.578,0.356,0.725,0.559,-5.68,0.64,-1.68,1,2
16521.593,0.354,0.722,0.569,-5.37,1.43,-1.28,1,2
16521.593,0.348,0.719,0.578,-4.39,1.95,-1.1,1,2
16521.609,0.349,0.721,0.587,-2.72,1.77,-0.7,1,2
16521.609,0.344,0.724,0.59,-0.12,1.37,-0.12,1,2
16521.625,0.337,0.723,0.59,2.26,0.43,0.79,1,2
16521.64,0.342,0.726,0.583,4.15,-1.04,1.86,1,2
16521.64,0.347,0.733,0.57,5.25,-2.38,2.5,1,2
16521.656,0.354,0.736,0.558,5.92,-3.36,2.93,1,2
16521.671,0.357,0.739,0.544,5.74,-3.72,2.99,1,2
16521.671,0.363,0.74,0.538,4.7,-3.63,2.84,1,2
16521.687,0.366,0.736,0.536,3.45,-3.23,2.38,1,2
16521.687,0.368,0.732,0.533,1.89,-2.72,1.71,1,2
16521.703,0.369,0.728,0.538,0.31,-2.26,0.76,1,2
16521.718,0.366,0.726,0.54,-1.1,-1.83,-0.24,1,2
16521.718,0.366,0.726,0.546,-2.26,-1.68,-1.25,1,2
16521.734,0.363,0.729,0.552,-2.9,-1.4,-2.29,1,2
16521.75,0.36,0.73,0.555,-3.42,-1.16,-3.17,1,2
16521.75,0.36,0.726,0.557,-3.39,-0.73,-3.45,1,2
16521.765,0.355,0.723,0.559,-3.05,-0.27,-3.66,1,2
16521.781,0.354,0.723,0.561,-3.11,0.09,-3.63,1,2
16521.781,0.352,0.724,0.566,-2.99,0.43,-3.36,1,2
16521.796,0.349,0.726,0.572,-2.53,0.76,-2.84,1,2
16521.812,0.349,0.732,0.574,-1.43,0.92,-1.83,1,2
16521.812,0.347,0.735,0.576,0.06,0.82,-0.76,1,2
16521.828,0.347,0.732,0.571,1.53,0.61,0.43,1,2
16521.828,0.348,0.731,0.568,2.59,0.34,1.28,1,2
16521.843,0.351,0.728,0.563,3.48,0.0,1.98,1,2
16521.859,0.353,0.729,0.561,4.18,-0.03,2.5,1,2
16521.859,0.355,0.73,0.559,4.76,-0.06,2.78,1,2
16521.875,0.357,0.734,0.557,5.07,-0.24,2.62,1,2
16521.89,0.353,0.735,0.554,4.88,-0.73,2.47,1,2
16521.89,0.355,0.735,0.551,4.15,-1.46,2.04,1,2
16521.906,0.361,0.733,0.546,3.17,-2.14,1.59,1,2
16521.921,0.365,0.731,0.542,2.11,-2.38,0.95,1,2
16521.921,0.367,0.731,0.541,0.89,-2.47,0.27,1,2
16521.937,0.365,0.733,0.541,-0.09,-2.41,-0.49,1,2
16521.953,0.364,0.734,0.543,-0.98,-2.41,-1.34,1,2
16521.953,0.365,0.735,0.544,-1.71,-2.17,-2.35,1,2
16521.968,0.361,0.731,0.545,-2.14,-1.53,-3.11,1,2
16521.968,0.352,0.726,0.549,-2.08,-0.89,-3.23,1,2
16521.984,0.353,0.727,0.555,-2.01,-0.24,-3.36,1,2
16522.0,0.346,0.728,0.562,-1.92,0.21,-3.23,1,2
16522.0,0.342,0.734,0.567,-1.71,0.18,-3.02,1,2
16522.015,0.34,0.736,0.57,-0.95,-0.12,-2.38,1,2
16522.031,0.337,0.736,0.572,-0.03,-0.52,-1.37,1,2
16522.031,0.34,0.735,0.57,0.79,-1.13,-0.27,1,2
16522.046,0.345,0.739,0.567,1.37,-1.62,0.79,1,2
16522.046,0.349,0.735,0.565,1.8,-1.95,1.74,1,2
16522.062,0.353,0.733,0.56,2.44,-2.14,2.47,1,2
16522.078,0.359,0.728,0.559,2.99,-2.23,3.02,1,2
16522.078,0.364,0.723,0.557,3.51,-2.14,3.02,1,2
16522.093,0.369,0.723,0.552,4.0,-2.04,2.47,1,2
16522.109,0.371,0.724,0.552,4.36,-1.86,1.56,1,2
16522.125,0.371,0.728,0.546,4.43,-1.53,0.37,1,2
16522.125,0.368,0.73,0.541,4.27,-1.19,-0.76,1,2
16522.14,0.363,0.735,0.539,3.63,-0.98,-1.56,1,2
16522.14,0.359,0.74,0.535,2.75,-0.89,-2.04,1,2
16522.156,0.355,0.746,0.538,1.53,-0.58,-2.11,1,2
16522.171,0.352,0.748,0.538,0.18,-0.34,-2.2,1,2
16522.171,0.348,0.75,0.541,-0.98,-0.24,-2.04,1,2
16522.187,0.343,0.746,0.546,-2.08,-0.34,-1.65,1,2
16522.203,0.343,0.74,0.553,-2.87,-0.49,-0.85,1,2
16522.203,0.343,0.739,0.56,-3.42,-0.79,-0.09,1,2
16522.218,0.344,0.737,0.568,-3.39,-1.19,0.58,1,2
16522.218,0.347,0.73,0.574,-2.62,-1.5,1.22,1,2
16522.234,0.351,0.725,0.572,-1.04,-1.83,1.83,1,2
16522.25,0.356,0.72,0.57,0.61,-2.26,1.83,1,2
16522.25,0.361,0.717,0.567,3.81,-2.26,1.37,1,2
16522.265,0.362,0.719,0.56,5.01,-2.23,0.85,1,2
16522.281,0.365,0.727,0.552,5.46,-1.95,0.37,1,2
16522.281,0.365,0.733,0.546,5.34,-1.8,0.0,1,2
16522.296,0.363,0.742,0.534,4.58,-1.53,-0.31,1,2
16522.312,0.361,0.745,0.532,3.75,-1.1,-0.52,1,2
16522.312,0.358,0.748,0.53,2.69,-0.55,-0.73,1,2
16522.328,0.355,0.746,0.531,1.34,-0.18,-0.92,1,2
16522.343,0.351,0.745,0.536,0.03,0.12,-0.82,1,2
16522.343,0.351,0.747,0.542,-1.13,0.15,-0.37,1,2
16522.359,0.35,0.745,0.55,-2.11,-0.21,-0.06,1,2
16522.359,0.35,0.738,0.555,-2.41,-0.55,0.24,1,2
16522.375,0.356,0.737,0.557,-2.44,-1.07,0.61,1,2
16522.39,0.357,0.736,0.557,-2.32,-1.43,0.52,1,2
16522.39,0.355,0.726,0.555,-1.68,-1.74,0.52,1,2
16522.406,0.36,0.722,0.553,-0.55,-1.77,0.52,1,2
16522.421,0.364,0.728,0.554,0.06,-1.31,0.06,1,2
16522.421,0.36,0.728,0.557,0.46,-0.76,-0.49,1,2
16522.437,0.358,0.73,0.555,1.56,-0.43,-0.58,1,2
16522.437,0.356,0.732,0.551,2.72,-0.21,-0.67,1,2
16522.453,0.354,0.736,0.551,2.96,-0.06,-0.76,1,2
16522.468,0.351,0.738,0.546,2.62,-0.06,-0.76,1,2
16522.484,0.349,0.743,0.541,1.83,-0.31,-0.52,1,2
16522.484,0.35,0.747,0.543,0.89,-0.55,-0.03,1,2
16522.5,0.352,0.749,0.542,0.0,-0.58,0.34,1,2
16522.5,0.353,0.746,0.546,-0.7,-0.89,0.95,1,2
16522.515,0.355,0.742,0.549,-1.34,-1.28,1.5,1,2
16522.531,0.357,0.737,0.551,-1.59,-1.77,1.56,1,2
16522.531,0.361,0.732,0.552,-1.4,-2.26,1.5,1,2
16522.546,0.366,0.729,0.55,-0.95,-2.38,1.13,1,2
16522.562,0.367,0.727,0.547,-0.31,-1.98,0.55,1,2
16522.578,0.367,0.726,0.545,0.27,-1.56,-0.15,1,2
16522.578,0.365,0.728,0.544,0.7,-0.98,-0.76,1,2
16522.578,0.358,0.733,0.545,0.89,-0.49,-1.31,1,2
16522.593,0.355,0.737,0.548,0.55,-0.15,-1.65,1,2
16522.609,0.352,0.741,0.55,0.18,-0.15,-1.59,1,2
16522.609,0.349,0.744,0.548,-0.37,-0.34,-1.31,1,2
16522.625,0.348,0.744,0.551,-0.85,-0.61,-0.76,1,2
16522.64,0.348,0.741,0.551,-1.31,-0.89,-0.12,1,2
16522.64,0.352,0.741,0.554,-1.65,-1.19,0.49,1,2
16522.656,0.354,0.738,0.554,-1.65,-1.46,0.82,1,2
16522.671,0.359,0.732,0.553,-1.22,-1.4,1.1,1,2
16522.671,0.361,0.728,0.553,-0.52,-1.22,1.01,1,2
16522.687,0.361,0.724,0.553,0.18,-0.92,0.73,1,2
16522.703,0.364,0.723,0.552,0.73,-0.61,0.34,1,2
16522.703,0.364,0.725,0.551,1.43,-0.27,-0.21,1,2
16522.718,0.362,0.729,0.551,2.38,-0.03,-0.76,1,2
16522.718,0.358,0.733,0.549,3.05,0.18,-1.01,1,2
16522.734,0.354,0.74,0.548,3.2,0.18,-1.1,1,2
16522.75,0.352,0.745,0.545,2.9,-0.06,-1.16,1,2
16522.75,0.35,0.751,0.542,2.04,-0.37,-0.67,1,2
16522.765,0.35,0.754,0.541,1.16,-0.85,-0.06,1,2
16522.781,0.351,0.752,0.539,0.21,-1.34,0.49,1,2
16522.781,0.352,0.746,0.541,-1.01,-1.83,0.89,1,2
16522.796,0.354,0.743,0.541,-1.92,-2.23,1.13,1,2
16522.812,0.357,0.738,0.542,-2.93,-2.29,1.04,1,2
16522.812,0.362,0.732,0.544,-3.54,-1.95,0.76,1,2
16522.828,0.363,0.728,0.547,-3.45,-1.4,0.31,1,2
16522.843,0.363,0.725,0.551,-3.23,-1.07,-0.34,1,2
16522.843,0.363,0.723,0.556,-2.75,-0.73,-0.89,1,2
16522.859,0.361,0.724,0.555,-2.01,-0.27,-1.37,1,2
16522.875,0.359,0.727,0.557,-1.13,-0.15,-1.71,1,2
16522.875,0.357,0.73,0.557,-0.34,0.06,-1.83,1,2
16522.89,0.354,0.734,0.556,0.34,0.15,-1.62,1,2
16522.89,0.355,0.735,0.553,1.01,0.24,-1.4,1,2
16522.906,0.354,0.736,0.551,1.46,0.31,-1.04,1,2
16522.921,0.354,0.737,0.549,1.53,0.37,-0.79,1,2
16522.921,0.352,0.739,0.545,1.31,0.52,-0.58,1,2
16522.937,0.354,0.743,0.545,0.95,0.7,-0.43,1,2
16522.953,0.354,0.744,0.547,0.73,1.04,-0.15,1,2
16522.953,0.351,0.742,0.548,0.55,0.98,0.31,1,2
16522.968,0.349,0.739,0.553,0.34,0.67,0.61,1,2
16522.968,0.353,0.739,0.554,-0.12,0.24,0.89,1,2
16522.984,0.355,0.736,0.555,-0.46,-0.37,0.67,1,2
16523.0,0.354,0.731,0.558,-0.24,-0.85,0.46,1,2
16523.0,0.354,0.726,0.557,0.27,-1.37,0.18,1,2
16523.015,0.356,0.728,0.555,0.89,-1.83,-0.31,1,2
16523.031,0.357,0.73,0.553,1.13,-2.01,-1.01,1,2
16523.031,0.356,0.735,0.547,1.56,-1.83,-1.4,1,2
16523.046,0.353,0.739,0.543,1.86,-1.68,-1.56,1,2
16523.062,0.349,0.747,0.544,1.4,-1.68,-1.4,1,2
16523.062,0.347,0.75,0.543,0.49,-1.83,-1.04,1,2
16523.078,0.35,0.749,0.544,-0.34,-1.71,-0.31,1,2
16523.078,0.351,0.747,0.546,-0.82,-1.53,0.49,1,2
16523.093,0.354,0.739,0.548,-1.19,-1.46,1.16,1,2
16523.109,0.356,0.73,0.552,-1.46,-1.28,1.43,1,2
16523.109,0.359,0.724,0.553,-1.25,-1.25,1.31,1,2
16523.125,0.362,0.722,0.556,-0.92,-1.07,0.92,1,2
16523.14,0.362,0.724,0.559,-0.24,-0.76,0.34,1,2
16523.14,0.361,0.727,0.558,0.76,-0.61,-0.09,1,2
16523.156,0.358,0.728,0.554,1.86,-0.52,-0.55,1,2
16523.171,0.359,0.732,0.551,2.56,-0.58,-1.07,1,2
16523.171,0.36,0.734,0.546,2.96,-0.55,-1.46,1,2
16523.187,0.358,0.737,0.537,3.05,-0.37,-1.89,1,2
16523.203,0.355,0.744,0.535,2.62,0.09,-2.17,1,2
16523.203,0.352,0.751,0.536,1.71,0.55,-2.17,1,2
16523.218,0.348,0.756,0.538,0.37,0.67,-1.86,1,2
16523.234,0.345,0.757,0.541,-0.67,0.46,-1.31,1,2
16523.234,0.345,0.751,0.546,-2.01,-0.06,0.15,1,2
16523.25,0.346,0.748,0.549,-2.26,-0.15,0.58,1,2
16523.25,0.347,0.739,0.556,-2.14,-0.31,1.07,1,2
16523.265,0.348,0.729,0.557,-1.34,-0.27,1.37,1,2
16523.281,0.353,0.726,0.565,-0.34,-0.27,1.28,1,2
16523.281,0.354,0.727,0.568,0.73,-0.64,1.07,1,2
16523.296,0.353,0.728,0.564,2.14,-1.37,0.95,1,2
16523.312,0.354,0.73,0.557,3.23,-2.29,0.7,1,2
16523.312,0.354,0.737,0.549,3.51,-3.02,0.43,1,2
16523.328,0.354,0.741,0.539,2.96,-3.36,0.15,1,2
16523.328,0.356,0.748,0.528,1.77,-3.6,0.09,1,2
16523.343,0.361,0.746,0.542,0.95,-3.57,-0.24,1,2
16523.359,0.349,0.748,0.525,0.73,-3.42,-0.49,1,2
16523.359,0.357,0.752,0.523,-1.4,-3.17,-0.06,1,2
16523.375,0.36,0.747,0.526,-3.69,-2.59,-0.67,1,2
16523.39,0.357,0.74,0.533,-4.43,-1.83,-0.98,1,2
16523.406,0.357,0.743,0.54,-5.07,-0.64,-0.49,1,2
16523.406,0.356,0.738,0.547,-5.8,0.0,-0.46,1,2
16523.421,0.357,0.729,0.556,-6.01,0.31,-0.34,1,2
16523.421,0.358,0.725,0.566,-5.58,0.61,-0.37,1,2
16523.437,0.358,0.72,0.567,-4.21,0.98,-0.34,1,2
16523.453,0.358,0.717,0.571,-2.47,1.22,-0.09,1,2
16523.453,0.36,0.717,0.574,-0.61,1.4,-0.27,1,2
16523.468,0.357,0.721,0.57,1.25,1.28,-0.34,1,2
16523.468,0.357,0.726,0.564,3.08,0.98,-0.4,1,2
16523.484,0.354,0.732,0.561,4.67,0.79,-0.52,1,2
16523.5,0.352,0.738,0.556,5.83,0.76,-0.43,1,2
16523.5,0.35,0.745,0.545,6.2,0.49,-0.37,1,2
16523.515,0.35,0.749,0.536,5.34,-0.03,-0.34,1,2
16523.531,0.351,0.754,0.53,3.78,-0.55,-0.49,1,2
16523.531,0.348,0.757,0.525,1.92,-0.79,-0.31,1,2
16523.546,0.35,0.757,0.53,-0.31,-0.92,-0.09,1,2
16523.562,0.349,0.751,0.536,-2.47,-1.04,-0.21,1,2
16523.562,0.35,0.743,0.542,-4.3,-1.46,-0.31,1,2
16523.578,0.352,0.735,0.55,-5.58,-1.68,-0.34,1,2
16523.578,0.35,0.732,0.557,-6.16,-1.77,-0.58,1,2
16523.593,0.351,0.729,0.562,-5.95,-1.95,-0.76,1,2
16523.609,0.354,0.727,0.566,-5.28,-2.23,-0.95,1,2
16523.625,0.354,0.724,0.566,-4.21,-2.47,-0.85,1,2
16523.625,0.357,0.723,0.564,-2.78,-2.35,-0.98,1,2
16523.64,0.357,0.723,0.562,-1.25,-1.86,-1.22,1,2
16523.64,0.356,0.723,0.557,0.4,-1.25,-1.25,1,2
16523.656,0.357,0.729,0.553,1.53,-0.52,-1.25,1,2
16523.671,0.356,0.735,0.551,1.92,0.06,-1.25,1,2
16523.671,0.355,0.738,0.549,2.29,0.89,-0.95,1,2
16523.687,0.354,0.74,0.55,2.53,1.59,-0.7,1,2
16523.703,0.35,0.741,0.55,2.41,1.74,-0.46,1,2
16523.703,0.349,0.74,0.552,2.04,1.59,-0.24,1,2
16523.718,0.348,0.742,0.551,1.68,1.16,0.06,1,2
16523.718,0.35,0.741,0.549,1.25,0.82,0.24,1,2
16523.734,0.351,0.74,0.549,1.01,0.89,0.24,1,2
16523.75,0.351,0.737,0.546,0.95,0.73,0.21,1,2
16523.75,0.352,0.737,0.548,0.79,0.73,0.18,1,2
16523.765,0.351,0.739,0.549,0.49,0.73,-0.15,1,2
16523.781,0.348,0.739,0.551,0.18,0.34,-0.31,1,2
16523.781,0.348,0.74,0.552,-0.27,-0.12,-0.55,1,2
16523.796,0.346,0.74,0.553,-0.76,-0.4,-0.67,1,2
16523.796,0.344,0.738,0.555,-1.13,-0.64,-0.7,1,2
16523.812,0.345,0.735,0.558,-1.19,-0.92,-0.46,1,2
16523.828,0.345,0.733,0.558,-1.4,-1.1,-0.43,1,2
16523.828,0.345,0.735,0.559,-1.56,-1.34,-0.34,1,2
16523.843,0.347,0.732,0.561,-1.4,-1.46,-0.37,1,2
16523.859,0.348,0.733,0.563,-0.76,-1.46,-0.15,1,2
16523.859,0.349,0.734,0.559,-0.06,-1.34,0.15,1,2
16523.875,0.351,0.732,0.558,0.49,-1.31,0.37,1,2
16523.89,0.354,0.734,0.555,1.04,-1.37,0.55,1,2
16523.89,0.356,0.735,0.552,1.62,-1.19,0.7,1,2
16523.906,0.357,0.734,0.548,2.08,-0.79,0.67,1,2
16523.921,0.358,0.734,0.545,2.35,-0.4,0.49,1,2
16523.921,0.356,0.734,0.542,2.38,0.12,0.15,1,2
16523.937,0.354,0.738,0.544,2.17,0.61,-0.15,1,2
16523.937,0.353,0.74,0.544,1.68,0.79,-0.46,1,2
16523.953,0.351,0.741,0.544,1.16,0.85,-0.76,1,2
16523.968,0.349,0.741,0.545,0.49,0.95,-0.85,1,2
16523.968,0.347,0.744,0.547,-0.34,1.01,-0.95,1,2
16523.984,0.345,0.743,0.55,-0.95,0.76,-0.82,1,2
16524.0,0.342,0.74,0.55,-1.59,0.46,-0.61,1,2
16524.0,0.346,0.741,0.552,-2.35,0.06,-0.58,1,2
16524.015,0.348,0.74,0.557,-2.96,-0.24,-0.64,1,2
16524.031,0.349,0.734,0.561,-3.02,-0.21,-0.55,1,2
16524.031,0.35,0.728,0.563,-2.26,-0.15,-0.46,1,2
16524.046,0.348,0.725,0.564,-1.16,-0.06,-0.61,1,2
16524.062,0.35,0.725,0.564,-0.12,0.0,-0.73,1,2
16524.062,0.35,0.73,0.561,1.22,0.12,-0.76,1,2
16524.078,0.351,0.735,0.556,2.41,0.18,-0.95,1,2
16524.078,0.35,0.741,0.549,3.05,0.58,-1.01,1,2
16524.093,0.347,0.744,0.546,3.02,0.79,-1.04,1,2
16524.109,0.346,0.745,0.544,2.47,1.16,-0.7,1,2
16524.109,0.343,0.746,0.545,1.53,1.56,-0.37,1,2
16524.125,0.341,0.748,0.549,0.49,1.56,0.21,1,2
16524.14,0.339,0.747,0.552,-0.43,1.31,0.79,1,2
16524.156,0.343,0.743,0.553,-1.34,0.95,1.19,1,2
16524.156,0.343,0.737,0.557,-1.98,0.34,1.22,1,2
16524.171,0.345,0.732,0.56,-2.17,-0.18,0.85,1,2
16524.171,0.347,0.729,0.562,-1.86,-0.82,0.64,1,2
16524.187,0.346,0.728,0.563,-1.28,-1.34,0.18,1,2
16524.187,0.347,0.729,0.562,-0.52,-1.89,-0.37,1,2
16524.203,0.346,0.732,0.557,0.18,-2.17,-0.85,1,2
16524.218,0.346,0.735,0.551,0.73,-2.38,-1.16,1,2
16524.234,0.348,0.738,0.543,-0.18,-1.62,-1.62,1,2
16524.234,0.347,0.741,0.542,-0.98,-0.95,-1.59,1,2
16524.25,0.347,0.745,0.541,-1.65,-0.27,-1.43,1,2
16524.25,0.344,0.744,0.55,-2.53,0.27,-1.1,1,2
16524.265,0.344,0.74,0.554,-3.6,0.55,-0.73,1,2
16524.281,0.346,0.735,0.556,-4.24,0.55,-0.37,1,2
16524.281,0.347,0.728,0.565,-4.21,0.67,-0.12,1,2
16524.296,0.344,0.724,0.57,-3.42,1.16,0.06,1,2
16524.312,0.348,0.721,0.572,-2.01,1.37,0.12,1,2
16524.312,0.349,0.719,0.571,-0.49,1.43,-0.09,1,2
16524.328,0.348,0.722,0.57,1.34,1.53,-0.46,1,2
16524.328,0.347,0.728,0.564,3.08,1.65,-0.92,1,2
16524.343,0.345,0.736,0.555,4.15,1.65,-1.25,1,2
16524.359,0.342,0.74,0.548,4.55,1.77,-1.43,1,2
16524.359,0.34,0.749,0.542,4.21,1.77,-1.46,1,2
16524.375,0.339,0.755,0.539,2.9,1.43,-1.43,1,2
16524.39,0.337,0.758,0.541,0.95,1.37,-1.22,1,2
16524.39,0.332,0.756,0.542,-1.01,1.13,-0.79,1,2
16524.406,0.332,0.752,0.55,-3.08,0.73,-0.24,1,2
16524.421,0.335,0.746,0.556,-4.7,0.12,0.34,1,2
16524.421,0.339,0.739,0.563,-5.74,-0.64,0.58,1,2
16524.437,0.341,0.73,0.569,-6.38,-1.07,0.7,1,2
16524.453,0.342,0.722,0.575,-5.92,-1.37,0.52,1,2
16524.453,0.345,0.716,0.579,-4.82,-1.56,0.4,1,2
16524.468,0.343,0.716,0.581,-3.27,-1.68,0.15,1,2
16524.468,0.34,0.719,0.58,-1.4,-1.92,-0.18,1,2
16524.484,0.341,0.722,0.576,0.92,-2.04,-0.27,1,2
16524.5,0.339,0.726,0.57,2.81,-2.11,-0.4,1,2
16524.5,0.342,0.732,0.562,3.78,-1.98,-0.61,1,2
16524.515,0.342,0.74,0.553,4.24,-1.86,-0.73,1,2
16524.531,0.342,0.744,0.544,3.88,-1.43,-0.73,1,2
16524.531,0.343,0.749,0.541,2.87,-0.98,-0.52,1,2
16524.546,0.344,0.75,0.54,1.56,-0.55,-0.18,1,2
16524.546,0.346,0.747,0.542,-0.27,-0.15,0.09,1,2
16524.562,0.346,0.743,0.547,-2.2,0.15,-0.03,1,2
16524.578,0.347,0.737,0.555,-3.45,0.49,-0.15,1,2
16524.593,0.344,0.732,0.562,-3.72,0.76,-0.12,1,2
16524.593,0.342,0.729,0.57,-3.51,0.89,-0.34,1,2
16524.609,0.339,0.725,0.576,-2.72,0.64,-0.37,1,2
16524.609,0.338,0.72,0.578,-1.56,0.12,-0.46,1,2
16524.625,0.335,0.725,0.579,-0.4,-0.52,-0.58,1,2
16524.64,0.334,0.731,0.576,0.89,-1.28,-0.55,1,2
16524.64,0.335,0.735,0.568,2.17,-2.14,-0.46,1,2
16524.656,0.336,0.739,0.559,2.81,-2.66,-0.15,1,2
16524.671,0.34,0.744,0.553,2.47,-2.75,-0.15,1,2
16524.671,0.337,0.746,0.547,1.68,-2.69,0.06,1,2
16524.687,0.336,0.743,0.546,0.73,-2.56,0.31,1,2
16524.687,0.338,0.738,0.549,-0.4,-2.2,0.46,1,2
16524.703,0.339,0.738,0.555,-1.59,-1.89,0.49,1,2
16524.718,0.339,0.737,0.561,-2.56,-1.83,0.52,1,2
16524.718,0.339,0.733,0.566,-2.59,-1.86,0.76,1,2
16524.734,0.342,0.729,0.57,-2.35,-2.2,0.76,1,2
16524.75,0.347,0.726,0.57,-1.92,-2.41,0.67,1,2
16524.75,0.349,0.724,0.569,-1.07,-2.47,0.55,1,2
16524.765,0.349,0.723,0.563,0.12,-2.23,0.31,1,2
16524.781,0.351,0.724,0.559,1.28,-1.71,0.12,1,2
16524.781,0.352,0.728,0.558,1.98,-1.1,-0.27,1,2
16524.796,0.349,0.734,0.554,2.41,-0.64,-0.7,1,2
16524.812,0.348,0.736,0.55,2.56,-0.12,-1.07,1,2
16524.812,0.344,0.743,0.547,2.35,0.43,-1.04,1,2
16524.828,0.34,0.746,0.546,1.4,0.64,-1.01,1,2
16524.843,0.338,0.747,0.55,0.21,0.76,-1.01,1,2
16524.843,0.334,0.744,0.554,-0.64,0.82,-0.61,1,2
16524.859,0.333,0.741,0.561,-1.37,0.73,-0.06,1,2
16524.859,0.331,0.737,0.569,-1.77,0.34,0.34,1,2
16524.875,0.331,0.731,0.575,-1.83,-0.52,0.61,1,2
16524.89,0.333,0.731,0.575,-1.53,-1.62,0.89,1,2
16524.89,0.337,0.732,0.574,-0.95,-2.38,1.07,1,2
16524.906,0.342,0.729,0.57,-0.18,-2.99,1.19,1,2
16524.906,0.344,0.726,0.566,0.46,-3.14,1.16,1,2
16524.921,0.346,0.726,0.563,1.25,-3.17,1.19,1,2
16524.937,0.348,0.731,0.558,1.62,-2.96,0.95,1,2
16524.937,0.348,0.734,0.558,1.74,-2.87,0.49,1,2
16524.953,0.35,0.735,0.555,1.92,-2.56,0.18,1,2
16524.968,0.35,0.735,0.55,2.14,-2.17,-0.06,1,2
16524.984,0.346,0.735,0.548,2.29,-1.83,-0.34,1,2
16524.984,0.345,0.739,0.546,1.62,-1.46,-0.52,1,2
16525.0,0.341,0.744,0.549,0.61,-1.01,-0.43,1,2
16525.0,0.341,0.747,0.552,-0.03,-0.7,-0.18,1,2
16525.015,0.339,0.746,0.555,-0.46,-0.67,0.21,1,2
16525.031,0.339,0.739,0.559,-1.01,-0.95,0.7,1,2
16525.031,0.343,0.734,0.561,-1.68,-1.4,0.95,1,2
16525.046,0.345,0.731,0.562,-1.74,-1.5,0.85,1,2
16525.062,0.349,0.723,0.565,-1.04,-1.25,0.92,1,2
16525.062,0.353,0.718,0.565,-0.12,-0.95,0.52,1,2
16525.078,0.352,0.72,0.565,0.67,-0.92,-0.09,1,2
16525.078,0.351,0.725,0.564,1.5,-0.7,-0.82,1,2
16525.093,0.347,0.732,0.562,2.53,-0.52,-1.13,1,2
16525.109,0.342,0.739,0.559,3.3,-0.49,-1.07,1,2
16525.109,0.339,0.743,0.555,3.02,-0.79,-0.95,1,2
16525.125,0.339,0.747,0.551,2.01,-1.25,-0.85,1,2
16525.14,0.339,0.748,0.545,1.13,-1.5,-0.4,1,2
16525.14,0.341,0.749,0.545,0.09,-1.37,0.21,1,2
16525.156,0.341,0.747,0.549,-0.95,-1.34,0.55,1,2
16525.171,0.342,0.741,0.553,-1.56,-1.25,0.89,1,2
16525.171,0.344,0.734,0.559,-1.89,-1.4,0.95,1,2
16525.187,0.344,0.729,0.564,-1.5,-1.37,0.92,1,2
16525.203,0.347,0.724,0.568,-0.55,-1.28,0.79,1,2
16525.203,0.345,0.722,0.569,1.31,-1.74,0.49,1,2
16525.218,0.344,0.728,0.567,1.65,-2.2,0.15,1,2
16525.218,0.346,0.735,0.56,1.77,-2.59,0.12,1,2
16525.234,0.347,0.741,0.554,1.46,-2.62,0.24,1,2
16525.25,0.352,0.736,0.544,0.89,-2.11,0.27,1,2
16525.25,0.352,0.735,0.541,-0.06,-1.46,0.06,1,2
16525.265,0.35,0.736,0.548,-0.95,-0.89,-0.12,1,2
16525.281,0.346,0.737,0.556,-1.31,-0.61,-0.31,1,2
16525.281,0.343,0.738,0.562,-1.07,-0.37,-0.12,1,2
16525.296,0.343,0.734,0.564,-0.55,-0.37,0.0,1,2
16525.312,0.343,0.73,0.565,0.15,-0.7,-0.03,1,2
16525.312,0.344,0.726,0.563,0.92,-1.25,-0.09,1,2
16525.328,0.347,0.73,0.56,1.53,-1.28,-0.27,1,2
16525.343,0.348,0.736,0.555,1.98,-1.1,-0.27,1,2
16525.343,0.345,0.74,0.552,1.89,-0.89,-0.31,1,2
16525.359,0.344,0.741,0.549,1.37,-0.92,-0.34,1,2
16525.359,0.348,0.746,0.548,0.52,-0.89,-0.34,1,2
16525.375,0.347,0.742,0.55,-0.18,-0.76,-0.12,1,2
16525.39,0.347,0.738,0.553,-0.61,-0.58,0.06,1,2
16525.39,0.347,0.732,0.557,-0.95,-0.64,0.03,1,2
16525.406,0.347,0.73,0.561,-1.04,-0.67,-0.09,1,2
16525.421,0.347,0.731,0.563,-0.85,-0.85,-0.09,1,2
16525.421,0.347,0.732,0.563,0.0,-1.04,-0.21,1,2
16525.437,0.348,0.732,0.559,0.61,-1.04,-0.37,1,2
16525.437,0.347,0.734,0.556,0.89,-1.28,-0.46,1,2
16525.453,0.347,0.736,0.552,1.04,-1.43,-0.7,1,2
16525.468,0.348,0.74,0.549,0.82,-1.19,-0.79,1,2
16525.468,0.344,0.74,0.548,0.34,-0.82,-0.79,1,2
16525.484,0.342,0.739,0.552,-0.06,-0.43,-0.73,1,2
16525.5,0.343,0.739,0.556,-0.18,-0.24,-0.43,1,2
16525.515,0.341,0.739,0.557,-0.31,-0.34,-0.31,1,2
16525.515,0.341,0.739,0.56,-0.43,-0.7,-0.24,1,2
16525.531,0.341,0.74,0.56,-0.37,-0.98,0.18,1,2
16525.531,0.342,0.738,0.558,-0.24,-1.34,0.31,1,2
16525.546,0.343,0.737,0.555,-0.37,-1.65,0.49,1,2
16525.562,0.346,0.736,0.553,-0.76,-1.71,0.43,1,2
16525.562,0.349,0.735,0.554,-0.79,-1.56,0.43,1,2
16525.578,0.35,0.733,0.555,-0.79,-1.22,0.34,1,2
16525.578,0.35,0.731,0.555,-0.73,-0.92,0.06,1,2
16525.593,0.35,0.729,0.558,-0.46,-0.7,-0.12,1,2
16525.609,0.348,0.731,0.558,-0.12,-0.49,-0.34,1,2
16525.609,0.346,0.734,0.558,0.09,-0.49,-0.58,1,2
16525.625,0.346,0.736,0.555,0.03,-0.52,-0.7,1,2
16525.64,0.345,0.738,0.552,0.0,-0.49,-0.67,1,2
16525.64,0.344,0.738,0.556,-0.06,-0.37,-0.52,1,2
16525.656,0.343,0.739,0.556,-0.27,-0.34,-0.37,1,2
16525.671,0.343,0.737,0.56,-0.34,-0.4,-0.24,1,2
16525.671,0.342,0.734,0.561,-0.46,-0.37,-0.18,1,2
16525.687,0.345,0.731,0.56,-0.18,-0.64,-0.06,1,2
16525.703,0.347,0.73,0.563,0.18,-0.85,-0.12,1,2
16525.703,0.346,0.731,0.561,0.76,-0.82,-0.27,1,2
16525.718,0.346,0.734,0.557,1.1,-1.04,-0.43,1,2
16525.734,0.348,0.74,0.554,1.16,-1.19,-0.55,1,2
16525.734,0.347,0.741,0.549,0.89,-1.04,-0.67,1,2
16525.75,0.348,0.739,0.547,0.49,-0.73,-0.7,1,2
16525.75,0.345,0.739,0.548,-0.09,-0.34,-0.58,1,2
16525.765,0.344,0.74,0.552,-0.92,-0.09,-0.46,1,2
16525.781,0.342,0.742,0.556,-1.46,-0.15,-0.49,1,2
16525.781,0.342,0.74,0.559,-1.53,-0.27,-0.27,1,2
16525.796,0.341,0.736,0.562,-1.1,-0.52,0.0,1,2
16525.812,0.343,0.731,0.561,-0.58,-0.61,0.21,1,2
16525.812,0.344,0.725,0.563,-0.03,-0.89,0.09,1,2
16525.828,0.344,0.729,0.565,0.37,-1.19,-0.12,1,2
16525.828,0.347,0.733,0.564,0.95,-1.19,-0.43,1,2
16525.843,0.344,0.735,0.561,1.65,-1.34,-0.43,1,2
16525.859,0.342,0.741,0.554,1.86,-1.71,-0.31,1,2
16525.859,0.343,0.745,0.548,1.22,-1.95,-0.4,1,2
16525.875,0.345,0.744,0.544,0.21,-1.71,-0.4,1,2
16525.89,0.347,0.742,0.547,-0.55,-1.22,-0.12,1,2
16525.89,0.346,0.741,0.55,-1.1,-0.76,-0.06,1,2
16525.906,0.346,0.736,0.553,-1.8,-0.76,-0.15,1,2
16525.921,0.346,0.731,0.559,-2.2,-0.89,-0.34,1,2
16525.921,0.348,0.73,0.563,-1.98,-0.85,-0.61,1,2
16525.937,0.347,0.728,0.563,-1.22,-0.76,-0.92,1,2
16525.953,0.344,0.726,0.562,-0.46,-0.55,-0.89,1,2
16525.953,0.342,0.729,0.563,0.27,-0.43,-0.82,1,2
16525.968,0.339,0.732,0.562,0.73,-0.43,-0.7,1,2
16525.968,0.339,0.738,0.56,0.95,-0.46,-0.58,1,2
16525.984,0.34,0.742,0.558,0.98,-0.52,-0.27,1,2
16526.0,0.344,0.742,0.557,0.82,-0.67,-0.06,1,2
16526.0,0.347,0.737,0.556,0.73,-0.79,0.12,1,2
16526.015,0.347,0.732,0.555,0.7,-0.73,0.09,1,2
16526.031,0.348,0.732,0.556,0.58,-0.58,-0.06,1,2
16526.031,0.348,0.735,0.555,0.49,-0.55,-0.43,1,2
16526.046,0.346,0.736,0.554,0.34,-0.4,-0.73,1,2
16526.046,0.342,0.74,0.554,0.0,-0.34,-0.85,1,2
16526.062,0.338,0.745,0.554,-0.15,-0.43,-0.64,1,2
16526.078,0.34,0.744,0.555,-0.52,-0.64,-0.46,1,2
16526.078,0.341,0.74,0.554,-1.04,-0.7,-0.34,1,2
16526.093,0.341,0.738,0.557,-1.31,-0.76,0.0,1,2
16526.109,0.341,0.737,0.562,-1.4,-0.89,0.27,1,2
16526.109,0.341,0.734,0.564,-1.34,-1.07,0.34,1,2
16526.125,0.34,0.732,0.568,-0.92,-1.37,0.52,1,2
16526.14,0.34,0.731,0.572,-0.24,-1.71,0.7,1,2
16526.14,0.339,0.728,0.571,0.7,-2.11,0.64,1,2
16526.156,0.338,0.726,0.568,1.83,-2.5,0.7,1,2
16526.171,0.341,0.73,0.565,2.69,-2.93,0.79,1,2
16526.171,0.344,0.738,0.558,3.23,-3.17,0.7,1,2
16526.187,0.347,0.743,0.55,3.11,-3.54,0.67,1,2
16526.187,0.352,0.744,0.543,1.74,-3.08,0.46,1,2
16526.203,0.353,0.74,0.54,0.89,-2.29,0.09,1,2
16526.218,0.355,0.737,0.539,0.12,-1.34,-0.12,1,2
16526.218,0.352,0.736,0.545,-0.49,-0.95,-0.4,1,2
16526.234,0.35,0.736,0.55,-0.92,-0.52,-0.7,1,2
16526.25,0.347,0.735,0.556,-0.89,-0.06,-0.85,1,2
16526.265,0.344,0.734,0.556,-0.64,0.27,-0.95,1,2
16526.265,0.344,0.733,0.555,-0.52,0.46,-0.92,1,2
16526.281,0.343,0.735,0.553,-0.61,0.52,-0.98,1,2
16526.281,0.342,0.738,0.552,-0.79,0.58,-0.98,1,2
16526.296,0.343,0.739,0.552,-0.98,0.89,-0.82,1,2
16526.312,0.344,0.738,0.554,-1.13,1.28,-0.58,1,2
16526.312,0.341,0.738,0.557,-1.25,1.5,-0.43,1,2
16526.328,0.341,0.735,0.561,-1.37,1.25,-0.31,1,2
16526.328,0.339,0.732,0.566,-1.25,1.07,-0.43,1,2
16526.343,0.341,0.733,0.567,-0.7,0.76,-0.37,1,2
16526.359,0.34,0.736,0.568,-0.09,0.34,-0.37,1,2
16526.359,0.341,0.734,0.565,0.46,-0.24,-0.18,1,2
16526.375,0.342,0.735,0.563,0.79,-0.85,-0.18,1,2
16526.39,0.342,0.739,0.558,0.95,-1.19,-0.18,1,2
16526.39,0.344,0.742,0.552,0.89,-1.53,-0.03,1,2
16526.406,0.342,0.745,0.552,0.52,-1.86,0.0,1,2
16526.421,0.343,0.745,0.549,-0.15,-2.14,0.03,1,2
16526.421,0.341,0.743,0.55,-0.89,-2.17,0.12,1,2
16526.437,0.341,0.741,0.553,-1.56,-2.29,0.24,1,2
16526.437,0.341,0.739,0.556,-2.14,-2.44,0.21,1,2
16526.453,0.339,0.735,0.559,-2.38,-2.56,0.34,1,2
16526.468,0.338,0.733,0.56,-2.14,-2.72,0.43,1,2
16526.484,0.34,0.73,0.562,-1.95,-3.08,0.43,1,2
16526.484,0.344,0.732,0.564,-1.74,-3.23,0.4,1,2
16526.5,0.346,0.732,0.563,-1.4,-3.27,0.24,1,2
16526.5,0.349,0.731,0.558,-1.04,-3.11,0.27,1,2
16526.515,0.348,0.731,0.555,-1.1,-2.99,0.18,1,2
16526.531,0.351,0.731,0.554,-1.19,-2.66,0.09,1,2
16526.531,0.353,0.73,0.553,-1.22,-1.92,-0.06,1,2
16526.546,0.355,0.729,0.556,-1.01,-0.98,-0.09,1,2
16526.562,0.354,0.731,0.558,-0.61,-0.18,-0.21,1,2
16526.562,0.352,0.729,0.561,-0.09,0.31,-0.58,1,2
16526.578,0.351,0.725,0.561,0.27,0.61,-0.92,1,2
16526.578,0.347,0.729,0.56,0.76,0.89,-1.04,1,2
16526.593,0.346,0.734,0.561,1.13,0.98,-1.13,1,2
16526.609,0.343,0.739,0.56,1.1,0.98,-1.16,1,2
16526.609,0.341,0.74,0.56,1.1,0.79,-0.95,1,2
16526.625,0.338,0.743,0.555,0.79,0.43,-0.64,1,2
16526.64,0.337,0.742,0.558,0.43,0.12,-0.24,1,2
16526.64,0.337,0.74,0.558,-0.06,-0.31,0.12,1,2
16526.656,0.338,0.738,0.558,-0.27,-0.76,0.31,1,2
16526.671,0.34,0.735,0.558,-0.31,-0.92,0.4,1,2
16526.671,0.344,0.732,0.56,-0.24,-1.01,0.37,1,2
16526.687,0.343,0.729,0.561,0.0,-1.13,0.18,1,2
16526.703,0.343,0.732,0.562,0.21,-1.13,-0.06,1,2
16526.703,0.342,0.738,0.564,0.34,-1.16,-0.21,1,2
16526.718,0.337,0.737,0.562,0.67,-1.37,-0.21,1,2
16526.718,0.337,0.735,0.56,0.82,-1.98,0.12,1,2
16526.734,0.342,0.741,0.559,0.55,-2.59,0.27,1,2
16526.75,0.342,0.744,0.557,0.03,-2.81,0.4,1,2
16526.75,0.345,0.738,0.554,-0.15,-2.96,0.49,1,2
16526.765,0.348,0.73,0.552,0.0,-2.81,0.49,1,2
16526.781,0.354,0.73,0.55,-0.37,-2.41,0.18,1,2
16526.796,0.355,0.732,0.55,-0.89,-1.83,-0.43,1,2
16526.796,0.353,0.73,0.55,-1.13,-1.1,-0.95,1,2
16526.796,0.352,0.732,0.554,-1.1,-0.31,-1.25,1,2
16526.812,0.348,0.734,0.559,-1.07,0.24,-1.34,1,2
16526.828,0.343,0.732,0.561,-1.04,0.7,-1.25,1,2
16526.843,0.338,0.733,0.565,-0.73,0.67,-1.07,1,2
16526.843,0.337,0.735,0.567,-0.15,0.61,-0.55,1,2
16526.859,0.335,0.731,0.566,0.34,0.18,-0.15,1,2
16526.859,0.338,0.731,0.568,0.85,-0.06,0.12,1,2
16526.875,0.343,0.731,0.566,1.56,-0.43,0.43,1,2
16526.89,0.349,0.728,0.562,2.41,-0.7,0.24,1,2
16526.89,0.352,0.728,0.557,3.11,-0.73,-0.15,1,2
16526.906,0.353,0.73,0.552,3.45,-0.52,-0.82,1,2
16526.921,0.353,0.735,0.549,3.36,-0.18,-1.5,1,2
16526.921,0.348,0.736,0.551,3.14,0.31,-2.01,1,2
16526.937,0.34,0.735,0.558,2.5,0.31,-2.32,1,2
16526.937,0.336,0.733,0.565,1.98,-0.34,-2.41,1,2
16526.953,0.33,0.733,0.57,1.56,-1.65,-2.41,1,2
16526.968,0.332,0.737,0.571,0.85,-3.33,-2.29,1,2
16526.968,0.331,0.745,0.57,-0.15,-5.65,-2.62,1,2
16526.984,0.326,0.757,0.564,-1.56,-8.21,-3.23,1,2
16527.0,0.328,0.753,0.554,-1.62,-9.46,-2.44,1,2
16527.015,0.333,0.753,0.544,-1.28,-9.19,-1.31,1,2
16527.015,0.342,0.752,0.539,-1.19,-8.39,-0.21,1,2
16527.031,0.351,0.745,0.535,-1.31,-7.17,0.37,1,2
16527.031,0.355,0.738,0.537,-1.8,-5.43,0.76,1,2
16527.046,0.368,0.728,0.542,-2.2,-3.63,0.7,1,2
16527.062,0.372,0.714,0.548,-1.65,-1.5,-0.06,1,2
16527.062,0.372,0.71,0.551,-0.85,0.15,-1.56,1,2
16527.078,0.369,0.709,0.552,0.12,1.77,-3.33,1,2
16527.093,0.362,0.714,0.552,1.04,3.05,-5.28,1,2
16527.093,0.354,0.723,0.552,1.62,4.21,-6.78,1,2
16527.109,0.342,0.731,0.553,2.26,5.22,-7.78,1,2
16527.109,0.332,0.742,0.557,2.59,5.89,-7.69,1,2
16527.125,0.325,0.751,0.561,2.53,5.55,-7.23,1,2
16527.14,0.316,0.761,0.559,2.35,4.79,-6.41,1,2
16527.14,0.312,0.766,0.558,1.71,3.72,-4.94,1,2
16527.156,0.31,0.771,0.554,0.73,2.53,-3.2,1,2
16527.171,0.313,0.768,0.552,-0.46,1.59,-1.56,1,2
16527.171,0.316,0.761,0.55,-2.9,0.21,1.25,1,2
16527.187,0.321,0.758,0.55,-4.24,-0.43,2.23,1,2
16527.187,0.324,0.754,0.554,-5.19,-0.85,2.78,1,2
16527.203,0.33,0.749,0.554,-5.55,-0.98,3.36,1,2
16527.218,0.333,0.74,0.562,-5.37,-1.07,3.81,1,2
16527.218,0.334,0.734,0.565,-5.07,-1.07,3.97,1,2
16527.234,0.337,0.73,0.568,-4.46,-1.31,3.72,1,2
16527.25,0.339,0.726,0.57,-4.15,-1.62,3.27,1,2
16527.25,0.338,0.725,0.572,-3.48,-2.04,2.87,1,2
16527.265,0.341,0.726,0.569,-2.75,-2.38,2.5,1,2
16527.281,0.342,0.727,0.567,-2.26,-2.59,2.04,1,2
16527.281,0.344,0.729,0.567,-1.95,-2.81,1.74,1,2
16527.296,0.345,0.731,0.562,-1.43,-2.93,1.43,1,2
16527.312,0.347,0.73,0.56,-1.16,-2.78,1.19,1,2
16527.312,0.346,0.731,0.556,-1.1,-2.66,0.7,1,2
16527.328,0.348,0.73,0.552,-1.28,-2.38,0.24,1,2
16527.328,0.351,0.73,0.552,-1.89,-1.86,-0.27,1,2
16527.343,0.351,0.733,0.555,-2.69,-1.28,-0.82,1,2
16527.359,0.349,0.73,0.551,-3.08,-0.7,-1.16,1,2
16527.359,0.347,0.728,0.555,-3.27,0.03,-1.43,1,2
16527.375,0.346,0.727,0.561,-3.33,0.7,-1.83,1,2
16527.39,0.344,0.729,0.561,-3.17,1.31,-2.17,1,2
16527.39,0.34,0.728,0.567,-2.99,1.8,-2.35,1,2
16527.406,0.337,0.727,0.568,-2.35,2.2,-2.53,1,2
16527.421,0.337,0.725,0.571,-1.62,2.5,-2.72,1,2
16527.421,0.336,0.725,0.571,-0.76,2.75,-2.9,1,2
16527.437,0.335,0.727,0.574,0.15,3.14,-2.99,1,2
16527.437,0.332,0.724,0.574,1.16,3.33,-3.05,1,2
16527.453,0.329,0.729,0.572,1.77,3.39,-2.99,1,2
16527.468,0.327,0.741,0.571,1.53,3.02,-3.02,1,2
16527.468,0.325,0.747,0.568,0.98,2.5,-2.56,1,2
16527.484,0.323,0.749,0.566,0.58,2.01,-1.8,1,2
16527.5,0.325,0.747,0.566,0.24,1.53,-0.89,1,2
16527.5,0.325,0.744,0.566,-0.31,1.22,0.09,1,2
16527.515,0.33,0.738,0.569,-0.67,1.04,0.95,1,2
16527.531,0.331,0.736,0.568,-0.61,1.01,1.43,1,2
16527.546,0.334,0.733,0.572,-0.31,0.85,1.71,1,2
16527.546,0.335,0.729,0.572,0.18,0.58,1.68,1,2
16527.546,0.337,0.725,0.571,0.82,0.67,1.43,1,2
16527.562,0.337,0.725,0.565,1.59,0.67,0.95,1,2
16527.578,0.338,0.727,0.565,1.89,0.82,0.34,1,2
16527.593,0.334,0.733,0.563,1.86,1.04,-0.24,1,2
16527.593,0.332,0.738,0.564,1.53,0.98,-0.46,1,2
16527.609,0.328,0.744,0.562,0.7,0.67,-0.55,1,2
16527.609,0.325,0.746,0.562,-0.37,0.03,-0.18,1,2
16527.625,0.325,0.745,0.566,-1.34,-0.34,0.24,1,2
16527.64,0.323,0.739,0.567,-2.11,-0.7,0.79,1,2
16527.64,0.327,0.738,0.569,-2.72,-1.19,1.22,1,2
16527.656,0.328,0.736,0.573,-3.36,-1.53,1.43,1,2
16527.671,0.328,0.733,0.576,-3.57,-2.08,1.62,1,2
16527.671,0.33,0.73,0.578,-3.17,-2.53,1.74,1,2
16527.687,0.332,0.729,0.579,-2.44,-2.99,1.74,1,2
16527.687,0.332,0.726,0.576,-1.5,-3.45,1.83,1,2
16527.703,0.335,0.727,0.571,-1.04,-3.72,1.62,1,2
16527.718,0.338,0.728,0.57,-1.04,-3.91,1.31,1,2
16527.718,0.339,0.727,0.565,-1.01,-4.09,0.73,1,2
16527.734,0.341,0.726,0.564,-0.95,-4.21,0.43,1,2
16527.75,0.343,0.73,0.563,-0.89,-3.66,0.03,1,2
16527.765,0.343,0.732,0.563,-0.89,-2.84,-0.27,1,2
16527.765,0.339,0.731,0.564,-0.79,-2.23,-0.31,1,2
16527.781,0.337,0.729,0.565,-0.85,-1.86,-0.31,1,2
16527.781,0.335,0.732,0.568,-1.19,-1.74,-0.24,1,2
16527.796,0.334,0.735,0.571,-1.83,-1.8,-0.15,1,2
16527.812,0.332,0.737,0.571,-2.32,-1.92,0.06,1,2
16527.812,0.334,0.732,0.573,-2.41,-2.23,0.46,1,2
16527.828,0.333,0.729,0.575,-2.35,-2.29,0.82,1,2
16527.843,0.334,0.728,0.578,-2.26,-2.29,1.07,1,2
16527.843,0.336,0.724,0.58,-1.5,-2.41,1.22,1,2
16527.859,0.336,0.719,0.582,-0.27,-2.59,1.22,1,2
16527.859,0.335,0.717,0.581,0.79,-2.5,1.07,1,2
16527.875,0.335,0.718,0.579,1.62,-2.87,0.61,1,2
16527.89,0.337,0.724,0.577,2.11,-3.27,0.4,1,2
16527.89,0.337,0.728,0.574,2.11,-3.81,0.03,1,2
16527.906,0.337,0.73,0.572,1.98,-4.55,-0.27,1,2
16527.921,0.341,0.738,0.565,2.17,-4.97,0.0,1,2
16527.921,0.343,0.742,0.559,2.08,-5.01,0.24,1,2
16527.937,0.344,0.74,0.553,1.62,-4.73,0.58,1,2
16527.937,0.345,0.74,0.552,0.79,-4.33,0.95,1,2
16527.953,0.344,0.736,0.55,-0.49,-3.6,0.98,1,2
16527.968,0.345,0.732,0.551,-1.65,-2.66,0.89,1,2
16527.968,0.344,0.734,0.556,-2.44,-1.77,0.82,1,2
16527.984,0.344,0.727,0.562,-2.69,-1.04,0.73,1,2
16528.0,0.344,0.717,0.573,-2.69,-0.52,0.76,1,2
16528.0,0.343,0.708,0.581,-2.17,-0.67,0.34,1,2
16528.015,0.358,0.699,0.582,-0.92,-1.65,-0.21,1,2
16528.031,0.382,0.701,0.568,0.43,-2.35,-1.74,1,2
16528.031,0.384,0.706,0.578,0.61,-2.93,-4.67,1,2
16528.046,0.377,0.708,0.539,-0.09,-5.16,-8.58,1,2
16528.062,0.373,0.732,0.525,-3.2,-5.1,-11.38,1,2
16528.062,0.362,0.738,0.578,-8.82,-4.7,-12.7,1,2
16528.078,0.364,0.75,0.557,-15.23,-8.27,-15.17,1,2
16528.078,0.377,0.703,0.515,-11.51,-6.47,-18.37,1,2
16528.093,0.361,0.734,0.562,-15.5,-4.18,-21.27,1,2
16528.109,0.344,0.731,0.574,-16.57,-3.6,-23.35,1,2
16528.109,0.313,0.741,0.591,-16.63,-3.3,-24.48,1,2
16528.125,0.291,0.767,0.638,-15.87,-4.76,-24.23,1,2
16528.14,0.287,0.787,0.662,-11.78,-8.39,-22.4,1,2
16528.14,0.301,0.796,0.662,-6.23,-13.4,-19.07,1,2
16528.156,0.359,0.776,0.649,-0.55,-25.15,-15.08,1,2
