timestamp,ax,ay,az,gx,gy,gz,orient_label,motion_label
16489.171,0.951,-0.139,0.303,-1.25,5.34,1.86,1,2
16489.171,0.951,-0.14,0.305,-0.92,4.91,2.26,1,2
16489.187,0.944,-0.143,0.304,-1.46,3.91,2.59,1,2
16489.187,0.944,-0.147,0.303,-2.87,2.17,2.32,1,2
16489.203,0.941,-0.155,0.298,-3.02,0.85,1.59,1,2
16489.218,0.947,-0.167,0.293,-1.59,0.55,0.95,1,2
16489.218,0.952,-0.163,0.289,0.67,1.8,0.15,1,2
16489.234,0.953,-0.157,0.294,2.41,3.72,-0.58,1,2
16489.25,0.942,-0.148,0.306,2.59,4.97,-1.04,1,2
16489.25,0.926,-0.146,0.321,2.29,4.88,-1.04,1,2
16489.265,0.921,-0.147,0.329,1.86,3.17,0.03,1,2
16489.281,0.928,-0.146,0.325,1.5,0.95,1.13,1,2
16489.281,0.941,-0.149,0.32,0.18,-0.98,1.68,1,2
16489.296,0.956,-0.151,0.317,-0.7,-1.65,1.22,1,2
16489.312,0.959,-0.152,0.322,-0.09,-1.1,0.4,1,2
16489.312,0.95,-0.144,0.326,0.76,-0.95,0.15,1,2
16489.328,0.943,-0.143,0.324,0.67,-2.04,0.24,1,2
16489.343,0.942,-0.156,0.302,-0.06,-4.21,-0.46,1,2
16489.359,0.929,-0.165,0.293,0.27,-3.91,-0.61,1,2
16489.359,0.928,-0.17,0.286,0.49,-3.66,-0.27,1,2
16489.375,0.945,-0.164,0.281,-0.06,-2.87,-0.58,1,2
16489.39,0.947,-0.16,0.277,-1.25,-1.01,-1.43,1,2
16489.39,0.938,-0.157,0.28,-2.11,0.95,-1.8,1,2
16489.406,0.929,-0.137,0.295,-2.56,1.59,-1.46,1,2
16489.421,0.924,-0.132,0.302,-2.81,0.67,-1.4,1,2
16489.421,0.921,-0.14,0.306,-2.32,-0.98,-0.76,1,2
16489.437,0.939,-0.137,0.3,-0.73,-2.32,-0.06,1,2
16489.437,0.962,-0.142,0.289,0.49,-2.41,0.0,1,2
16489.453,0.967,-0.156,0.288,1.1,-0.67,-0.73,1,2
16489.468,0.953,-0.162,0.288,2.5,1.59,-1.04,1,2
16489.484,0.932,-0.154,0.298,3.42,2.62,-0.73,1,2
16489.484,0.924,-0.14,0.305,2.53,1.62,-0.18,1,2
16489.5,0.929,-0.138,0.306,0.21,-0.95,0.4,1,2
16489.515,0.954,-0.154,0.288,-0.46,-3.45,1.77,1,2
16489.531,0.962,-0.153,0.287,0.06,-2.99,1.28,1,2
16489.531,0.963,-0.154,0.287,0.82,-2.26,0.12,1,2
16489.546,0.95,-0.151,0.288,2.23,-1.28,-1.07,1,2
16489.562,0.937,-0.149,0.287,3.72,-1.19,-1.68,1,2
16489.562,0.929,-0.142,0.28,4.61,-1.92,-1.65,1,2
16489.578,0.923,-0.139,0.271,4.52,-2.84,-1.43,1,2
16489.578,0.922,-0.141,0.262,4.24,-3.63,-0.98,1,2
16489.593,0.92,-0.141,0.266,4.49,-4.0,-0.03,1,2
16489.609,0.927,-0.145,0.237,5.22,-4.36,0.64,1,2
16489.609,0.938,-0.152,0.235,5.58,-4.15,1.22,1,2
16489.625,0.948,-0.161,0.217,5.71,-5.16,1.43,1,2
16489.64,0.958,-0.16,0.199,6.35,-6.68,1.53,1,2
16489.64,0.969,-0.156,0.191,7.97,-9.34,1.16,1,2
16489.656,0.963,-0.154,0.178,11.93,-13.03,0.31,1,2
16489.671,0.979,-0.142,0.154,17.7,-17.61,-0.61,1,2
16489.687,0.982,-0.129,0.087,33.97,-26.43,-5.4,1,2
16489.687,0.974,-0.123,0.042,43.55,-31.37,-9.4,1,2
16489.703,0.954,-0.122,-0.001,55.67,-35.28,-14.19,1,2
16489.718,0.925,-0.115,-0.044,70.19,-38.36,-19.59,1,2
16489.734,0.903,-0.099,-0.097,85.79,-40.65,-24.6,1,2
16489.734,0.868,-0.087,-0.154,99.52,-40.19,-29.36,1,2
16489.75,0.865,-0.066,-0.198,109.78,-36.04,-32.38,1,2
16489.75,0.886,-0.029,-0.226,114.47,-27.44,-33.17,1,2
16489.765,0.904,-0.04,-0.256,115.45,-14.25,-31.74,1,2
16489.781,0.932,-0.025,-0.224,109.9,3.23,-26.12,1,2
16489.781,0.941,-0.022,-0.173,100.19,21.18,-18.52,1,2
16489.796,0.936,-0.045,-0.118,77.12,47.58,-5.46,1,2
16489.812,0.937,-0.056,-0.047,70.62,56.95,-3.6,1,2
16489.812,0.933,-0.062,0.028,70.01,63.54,-5.16,1,2
16489.828,0.917,-0.083,0.143,74.95,68.06,-8.67,1,2
16489.828,0.924,-0.08,0.174,83.25,71.72,-13.21,1,2
16489.859,0.961,-0.062,0.229,96.9,81.73,-17.37,1,2
16489.859,0.962,-0.054,0.239,99.55,86.83,-16.33,1,2
16489.875,0.962,-0.052,0.242,97.26,90.85,-14.28,1,2
16489.89,0.96,-0.047,0.247,90.73,94.03,-12.82,1,2
16489.89,0.948,-0.042,0.259,82.61,97.17,-12.85,1,2
16489.906,0.926,-0.04,0.283,75.66,99.06,-15.14,1,2
16489.921,0.908,-0.026,0.317,69.77,99.77,-19.38,1,2
16489.921,0.899,-0.005,0.364,66.9,98.39,-26.28,1,2
16489.937,0.884,-0.006,0.408,68.45,95.83,-33.97,1,2
16489.937,0.887,0.004,0.431,72.21,93.08,-39.03,1,2
16489.953,0.893,0.028,0.445,78.37,91.4,-40.8,1,2
16489.968,0.892,0.039,0.449,85.48,90.95,-38.85,1,2
16489.968,0.897,0.058,0.448,90.37,90.33,-34.15,1,2
16489.984,0.908,0.106,0.441,90.85,89.66,-29.15,1,2
16490.0,0.906,0.145,0.429,86.12,88.93,-26.03,1,2
16490.015,0.901,0.14,0.419,76.48,87.71,-22.83,1,2
16490.015,0.91,0.173,0.438,61.89,86.0,-21.0,1,2
16490.031,0.897,0.198,0.475,46.63,84.35,-22.37,1,2
16490.031,0.883,0.188,0.508,35.74,81.67,-24.93,1,2
16490.046,0.857,0.164,0.548,28.96,78.01,-26.64,1,2
16490.062,0.829,0.132,0.547,26.73,73.49,-26.55,1,2
16490.062,0.818,0.107,0.495,28.35,70.44,-23.32,1,2
16490.078,0.822,0.123,0.462,29.39,71.66,-18.01,1,2
16490.093,0.803,0.123,0.452,27.89,74.68,-13.73,1,2
16490.093,0.792,0.109,0.448,24.69,77.7,-9.06,1,2
16490.109,0.792,0.141,0.455,19.5,83.44,-4.91,1,2
16490.109,0.779,0.17,0.466,11.6,90.52,-4.27,1,2
16490.125,0.736,0.155,0.485,0.37,94.94,-6.87,1,2
16490.14,0.707,0.134,0.506,-14.8,96.13,-11.08,1,2
16490.14,0.684,0.106,0.531,-29.11,96.07,-16.17,1,2
16490.156,0.639,0.068,0.556,-38.33,95.19,-21.12,1,2
16490.171,0.616,0.02,0.577,-39.95,93.02,-22.98,1,2
16490.171,0.617,-0.01,0.596,-34.7,94.24,-23.16,1,2
16490.187,0.619,-0.03,0.626,-23.19,101.57,-26.73,1,2
16490.187,0.597,-0.034,0.661,-8.18,111.64,-36.23,1,2
16490.203,0.553,-0.009,0.709,8.45,122.14,-49.04,1,2
16490.218,0.502,0.026,0.777,26.09,131.05,-62.65,1,2
16490.218,0.453,0.06,0.821,45.81,136.69,-74.68,1,2
16490.234,0.439,0.13,0.82,62.78,142.74,-84.23,1,2
16490.25,0.329,0.205,0.833,69.37,150.06,-93.63,1,2
16490.25,0.316,0.322,0.887,67.6,154.55,-99.46,1,2
16490.265,0.226,0.433,0.943,68.3,161.32,-106.45,1,2
16490.281,0.059,0.405,0.978,67.54,164.83,-104.65,1,2
16490.281,-0.001,0.421,1.038,62.01,159.43,-93.42,1,2
16490.296,-0.014,0.559,1.114,62.04,147.53,-88.35,1,2
16490.312,-0.082,0.574,1.155,69.06,128.48,-88.84,1,2
16490.312,-0.12,0.654,1.203,71.6,105.87,-86.7,1,2
16490.328,-0.181,0.768,1.246,71.57,81.64,-79.23,1,2
16490.328,-0.197,0.817,1.25,69.12,56.34,-64.27,1,2
16490.359,-0.159,0.972,1.235,39.52,20.42,-28.23,1,2
16490.359,-0.12,0.891,1.217,15.56,3.23,-14.04,1,2
16490.375,-0.062,0.806,1.199,-7.26,-13.49,-2.17,1,2
16490.39,0.009,0.713,1.179,-22.28,-27.62,5.62,1,2
16490.39,0.078,0.59,1.153,-27.38,-37.69,9.28,1,2
16490.406,0.145,0.472,1.113,-25.24,-44.43,10.01,1,2
16490.406,0.199,0.388,1.078,-15.59,-48.16,7.66,1,2
16490.421,0.248,0.339,1.025,1.65,-47.24,2.5,1,2
16490.437,0.274,0.331,0.981,21.49,-41.81,-4.15,1,2
16490.453,0.29,0.342,0.95,39.7,-35.74,-10.56,1,2
16490.453,0.302,0.374,0.91,53.8,-29.27,-15.23,1,2
16490.468,0.303,0.412,0.87,60.06,-22.89,-18.71,1,2
16490.468,0.285,0.44,0.845,57.37,-16.51,-21.21,1,2
16490.484,0.274,0.474,0.829,48.25,-12.12,-22.95,1,2
16490.5,0.269,0.507,0.824,33.42,-8.88,-25.09,1,2
16490.5,0.245,0.517,0.83,14.62,-6.47,-25.51,1,2
16490.531,0.242,0.495,0.846,-17.33,-7.6,-23.77,1,2
16490.546,0.25,0.463,0.849,-25.57,-8.88,-22.49,1,2
16490.546,0.258,0.437,0.854,-28.2,-9.49,-21.21,1,2
16490.562,0.275,0.415,0.85,-24.99,-9.89,-20.72,1,2
16490.562,0.299,0.415,0.838,-18.25,-8.24,-21.24,1,2
16490.578,0.308,0.436,0.823,-10.9,-3.48,-23.47,1,2
16490.593,0.309,0.456,0.809,-6.56,4.03,-26.15,1,2
16490.593,0.309,0.466,0.79,-5.58,12.76,-28.81,1,2
16490.609,0.302,0.472,0.801,-7.63,21.06,-30.92,1,2
16490.609,0.295,0.495,0.818,-12.18,27.53,-32.04,1,2
16490.625,0.28,0.492,0.824,-15.99,31.65,-32.53,1,2
16490.64,0.263,0.482,0.832,-20.72,33.6,-32.56,1,2
16490.64,0.261,0.495,0.829,-27.04,33.97,-32.32,1,2
16490.656,0.258,0.491,0.827,-32.53,33.69,-32.65,1,2
16490.671,0.262,0.461,0.828,-37.69,32.99,-33.3,1,2
16490.671,0.257,0.446,0.839,-41.32,32.14,-33.91,1,2
16490.703,0.235,0.419,0.851,-33.17,32.65,-28.75,1,2
16490.703,0.234,0.402,0.854,-25.12,33.57,-25.09,1,2
16490.718,0.251,0.394,0.842,-17.88,34.3,-24.51,1,2
16490.718,0.262,0.365,0.792,-10.44,37.81,-27.28,1,2
16490.734,0.253,0.361,0.766,-6.96,42.85,-31.86,1,2
16490.75,0.234,0.377,0.805,-4.97,48.65,-35.37,1,2
16490.765,0.097,0.465,0.968,-4.43,45.93,-35.04,1,2
16490.765,0.109,0.615,1.051,-12.09,27.77,-26.55,1,2
16490.781,0.064,0.599,1.121,-28.32,-14.31,-8.51,1,2
16490.781,0.128,0.655,1.074,-21.64,-18.98,-0.49,1,2
16490.796,0.249,0.469,0.965,-9.98,-13.4,1.37,1,2
16490.812,0.24,0.399,0.872,-1.46,-4.36,0.31,1,2
16490.812,0.241,0.433,0.854,3.78,3.63,-4.46,1,2
16490.828,0.202,0.438,0.877,3.51,7.17,-6.87,1,2
16490.828,0.19,0.46,0.894,0.67,6.59,-5.43,1,2
16490.843,0.187,0.479,0.889,0.18,3.88,-1.4,1,2
16490.859,0.177,0.45,0.906,4.06,-3.39,7.39,1,2
16490.875,0.182,0.443,0.902,9.46,-9.49,10.62,1,2
16490.89,0.188,0.431,0.892,13.4,-15.41,13.49,1,2
16490.89,0.198,0.44,0.9,13.7,-20.14,14.83,1,2
16490.906,0.182,0.496,0.894,8.85,-26.25,14.56,1,2
16490.921,0.296,0.445,0.801,4.52,-26.76,15.63,1,2
16490.921,0.249,0.325,0.835,3.14,-18.25,13.4,1,2
16490.937,0.219,0.472,0.902,-11.23,-18.37,12.73,1,2
16490.937,0.269,0.431,0.857,-10.83,-18.04,14.44,1,2
16490.953,0.252,0.356,0.834,-12.12,-15.9,11.38,1,2
16490.968,0.264,0.384,0.842,-17.12,-13.82,8.55,1,2
16490.968,0.263,0.383,0.847,-16.79,-9.8,4.85,1,2
16490.984,0.254,0.359,0.858,-14.8,-4.88,1.71,1,2
16491.0,0.24,0.37,0.877,-13.03,-0.85,-0.55,1,2
16491.0,0.224,0.375,0.897,-11.02,0.27,-2.11,1,2
16491.015,0.225,0.374,0.913,-8.73,-1.77,-3.11,1,2
16491.031,0.227,0.381,0.9,-3.36,-8.7,-4.06,1,2
16491.046,0.234,0.387,0.891,-2.75,-11.32,-4.27,1,2
16491.062,0.24,0.388,0.88,-3.94,-12.91,-4.61,1,2
16491.062,0.252,0.387,0.873,-7.17,-13.73,-5.04,1,2
16491.078,0.26,0.378,0.872,-10.1,-13.43,-5.52,1,2
16491.078,0.267,0.374,0.875,-10.71,-11.66,-6.04,1,2
16491.093,0.274,0.37,0.87,-8.51,-8.97,-6.62,1,2
16491.109,0.275,0.363,0.864,-4.39,-6.1,-7.39,1,2
16491.109,0.273,0.368,0.86,-0.03,-3.36,-7.69,1,2
16491.125,0.266,0.38,0.864,3.11,-1.19,-7.63,1,2
16491.14,0.261,0.391,0.867,4.97,-0.15,-7.35,1,2
16491.14,0.256,0.402,0.865,4.82,-0.37,-7.05,1,2
16491.156,0.25,0.407,0.87,1.89,-1.53,-7.42,1,2
16491.156,0.244,0.413,0.88,-2.99,-3.69,-8.39,1,2
16491.171,0.244,0.413,0.886,-7.51,-6.71,-9.28,1,2
16491.187,0.249,0.409,0.886,-9.86,-9.4,-9.25,1,2
16491.203,0.255,0.393,0.874,-9.49,-10.07,-8.24,1,2
16491.218,0.259,0.384,0.872,-7.17,-9.09,-8.55,1,2
16491.218,0.263,0.389,0.867,-3.81,-7.39,-8.61,1,2
16491.234,0.259,0.389,0.862,-1.01,-5.31,-8.0,1,2
16491.25,0.252,0.39,0.859,1.04,-3.14,-6.9,1,2
16491.25,0.255,0.39,0.856,1.56,-1.46,-5.89,1,2
16491.265,0.253,0.39,0.853,1.13,-0.15,-5.58,1,2
16491.281,0.252,0.392,0.853,0.52,0.55,-5.58,1,2
16491.281,0.246,0.395,0.856,-0.27,0.64,-5.4,1,2
16491.296,0.249,0.394,0.858,-1.31,0.18,-5.1,1,2
16491.312,0.253,0.394,0.854,-2.41,0.0,-5.19,1,2
16491.312,0.255,0.391,0.855,-3.27,0.55,-5.68,1,2
16491.328,0.259,0.387,0.856,-3.48,1.62,-5.86,1,2
16491.328,0.261,0.384,0.859,-3.42,3.11,-5.8,1,2
16491.343,0.264,0.387,0.865,-3.54,4.7,-6.62,1,2
16491.359,0.255,0.389,0.875,-4.12,5.62,-8.24,1,2
16491.375,0.241,0.389,0.896,-5.19,6.32,-9.77,1,2
16491.39,0.237,0.39,0.906,-4.36,6.2,-9.25,1,2
16491.39,0.239,0.385,0.901,-2.04,6.04,-9.06,1,2
16491.406,0.242,0.374,0.887,0.15,5.98,-9.8,1,2
16491.421,0.235,0.374,0.892,0.55,6.62,-11.38,1,2
16491.421,0.218,0.388,0.916,-0.67,6.81,-12.42,1,2
16491.437,0.218,0.396,0.931,-2.78,5.55,-12.82,1,2
16491.437,0.213,0.414,0.93,-4.06,3.91,-12.94,1,2
16491.453,0.215,0.428,0.925,-5.16,1.56,-12.42,1,2
16491.468,0.233,0.407,0.905,-3.23,0.09,-11.69,1,2
16491.468,0.233,0.392,0.87,-0.37,0.52,-11.41,1,2
16491.484,0.235,0.4,0.842,0.21,2.2,-11.23,1,2
16491.5,0.239,0.408,0.807,0.52,5.46,-10.93,1,2
16491.5,0.266,0.33,0.779,6.16,13.76,-9.0,1,2
16491.515,0.116,0.411,0.89,4.73,15.66,-7.69,1,2
16491.531,0.18,0.542,0.964,-5.62,5.77,-0.12,1,2
16491.531,0.193,0.414,0.927,-2.66,-0.58,5.01,1,2
16491.546,0.214,0.393,0.898,-5.07,-4.09,6.81,1,2
16491.562,0.241,0.4,0.891,-2.62,-2.35,7.9,1,2
16491.562,0.227,0.382,0.882,3.3,1.04,7.26,1,2
16491.578,0.22,0.389,0.912,5.31,2.32,7.14,1,2
16491.578,0.196,0.408,0.942,7.9,-0.4,7.69,1,2
16491.593,0.189,0.416,0.958,11.08,-6.68,10.41,1,2
16491.609,0.182,0.429,0.973,11.11,-14.34,13.76,1,2
16491.625,0.192,0.475,0.968,7.54,-22.43,15.23,1,2
16491.625,0.285,0.401,0.884,9.8,-25.91,16.94,1,2
16491.64,0.225,0.343,0.825,15.2,-22.37,15.08,1,2
16491.64,0.251,0.43,0.851,4.88,-21.39,13.67,1,2
16491.656,0.267,0.398,0.848,1.19,-20.94,11.81,1,2
16491.671,0.255,0.366,0.825,0.85,-18.92,10.59,1,2
16491.671,0.274,0.39,0.824,-1.98,-16.24,10.32,1,2
16491.687,0.285,0.379,0.827,-4.39,-13.34,8.21,1,2
16491.687,0.284,0.365,0.841,-5.46,-9.95,5.95,1,2
16491.703,0.287,0.364,0.857,-4.55,-7.29,4.21,1,2
16491.718,0.289,0.37,0.862,-2.99,-5.1,2.59,1,2
16491.718,0.285,0.381,0.874,-1.71,-3.3,0.95,1,2
16491.734,0.275,0.389,0.886,0.06,-1.71,-0.31,1,2
16491.75,0.258,0.393,0.891,2.81,-1.43,-0.61,1,2
16491.75,0.254,0.405,0.899,4.43,-2.9,0.76,1,2
16491.765,0.259,0.416,0.893,4.82,-5.55,1.83,1,2
16491.781,0.266,0.402,0.875,4.0,-5.52,1.07,1,2
16491.781,0.271,0.393,0.857,2.78,-4.33,0.7,1,2
16491.796,0.272,0.392,0.849,1.62,-2.9,0.43,1,2
16491.796,0.274,0.391,0.846,0.95,-1.53,0.09,1,2
16491.812,0.269,0.391,0.849,0.34,-0.18,-0.09,1,2
16491.828,0.269,0.398,0.86,-0.43,0.92,-0.4,1,2
16491.828,0.267,0.405,0.873,-1.19,1.37,-0.82,1,2
16491.843,0.263,0.409,0.877,-1.68,1.16,-1.22,1,2
16491.859,0.256,0.407,0.883,-1.71,0.79,-1.22,1,2
16491.859,0.254,0.407,0.89,-1.95,-0.21,-0.85,1,2
16491.875,0.251,0.408,0.893,-1.74,-1.19,-0.43,1,2
16491.89,0.25,0.399,0.891,-1.46,-2.26,0.12,1,2
16491.89,0.253,0.391,0.888,-0.55,-3.05,0.85,1,2
16491.906,0.253,0.387,0.885,0.55,-3.33,1.53,1,2
16491.921,0.258,0.384,0.884,1.4,-3.51,1.74,1,2
16491.921,0.262,0.381,0.88,2.17,-3.75,1.5,1,2
16491.937,0.26,0.379,0.866,3.51,-3.36,1.07,1,2
16491.953,0.263,0.388,0.858,4.03,-3.17,0.67,1,2
16491.953,0.268,0.398,0.853,3.42,-2.38,0.27,1,2
16491.968,0.271,0.405,0.85,1.89,-1.19,-0.34,1,2
16491.968,0.268,0.408,0.852,0.09,-0.31,-0.64,1,2
16491.984,0.27,0.412,0.858,-1.01,0.55,-0.15,1,2
16492.0,0.273,0.416,0.862,-0.98,0.92,0.89,1,2
16492.0,0.275,0.409,0.866,-0.55,1.04,1.89,1,2
16492.015,0.271,0.409,0.876,-1.07,0.46,2.35,1,2
16492.031,0.27,0.406,0.879,-1.65,-0.61,1.92,1,2
16492.031,0.269,0.399,0.876,-1.98,-1.53,1.01,1,2
16492.046,0.263,0.397,0.872,-2.56,-1.83,0.21,1,2
16492.062,0.262,0.402,0.865,-3.02,-1.92,0.12,1,2
16492.078,0.263,0.406,0.863,-3.66,-1.8,0.4,1,2
16492.078,0.264,0.411,0.867,-4.33,-1.59,1.19,1,2
16492.093,0.263,0.411,0.869,-4.46,-0.76,2.32,1,2
16492.109,0.262,0.398,0.869,-4.06,0.43,3.45,1,2
16492.109,0.26,0.385,0.874,-3.6,1.28,4.15,1,2
16492.125,0.268,0.377,0.879,-3.08,1.98,3.63,1,2
16492.14,0.272,0.367,0.883,-2.69,2.14,2.29,1,2
16492.14,0.279,0.356,0.888,-2.26,2.32,0.67,1,2
16492.156,0.286,0.356,0.891,-1.1,1.62,-0.58,1,2
16492.171,0.287,0.356,0.883,1.22,1.83,-2.99,1,2
16492.171,0.293,0.36,0.881,3.6,2.29,-5.19,1,2
16492.187,0.287,0.37,0.879,5.19,3.08,-7.05,1,2
16492.187,0.285,0.376,0.879,8.0,4.06,-8.0,1,2
16492.203,0.275,0.387,0.877,10.93,5.31,-8.58,1,2
16492.218,0.261,0.394,0.873,12.94,6.32,-8.82,1,2
16492.234,0.243,0.402,0.87,13.49,6.87,-9.16,1,2
16492.25,0.239,0.405,0.871,13.03,6.74,-8.85,1,2
16492.25,0.245,0.411,0.873,12.57,6.71,-8.64,1,2
16492.265,0.247,0.411,0.87,12.42,6.68,-8.73,1,2
16492.281,0.244,0.407,0.87,12.36,6.68,-8.85,1,2
16492.281,0.243,0.414,0.876,11.9,6.23,-8.85,1,2
16492.296,0.242,0.419,0.875,11.93,5.62,-9.0,1,2
16492.312,0.234,0.42,0.871,12.42,5.04,-8.76,1,2
16492.312,0.231,0.427,0.869,12.51,4.58,-8.3,1,2
16492.328,0.227,0.44,0.869,11.78,3.78,-8.15,1,2
16492.328,0.219,0.449,0.87,9.86,2.66,-7.87,1,2
16492.343,0.22,0.452,0.871,7.84,1.01,-7.14,1,2
16492.359,0.227,0.456,0.875,6.71,-0.55,-6.04,1,2
16492.359,0.235,0.455,0.871,6.41,-1.83,-4.15,1,2
16492.375,0.241,0.447,0.859,6.62,-2.29,-2.53,1,2
16492.39,0.246,0.434,0.852,6.62,-2.2,-1.98,1,2
16492.406,0.253,0.428,0.848,6.16,-0.85,-2.84,1,2
16492.421,0.252,0.431,0.85,5.77,-0.09,-3.72,1,2
16492.421,0.248,0.438,0.851,5.8,0.58,-4.55,1,2
16492.437,0.248,0.446,0.846,5.31,1.19,-5.25,1,2
16492.437,0.242,0.451,0.84,4.46,1.83,-6.01,1,2
16492.453,0.24,0.451,0.834,3.45,2.72,-6.2,1,2
16492.468,0.235,0.453,0.834,1.65,4.06,-6.04,1,2
16492.468,0.226,0.456,0.842,-0.49,5.16,-5.62,1,2
16492.484,0.22,0.454,0.852,-2.29,5.68,-4.85,1,2
16492.5,0.214,0.457,0.861,-3.69,5.52,-3.97,1,2
16492.5,0.207,0.453,0.869,-4.61,4.91,-2.87,1,2
16492.515,0.206,0.441,0.877,-4.76,3.81,-1.31,1,2
16492.531,0.209,0.437,0.88,-4.61,2.47,-0.09,1,2
16492.531,0.209,0.428,0.881,-4.18,1.19,0.43,1,2
16492.546,0.209,0.424,0.886,-3.75,-0.34,0.76,1,2
16492.546,0.221,0.429,0.885,-3.23,-2.26,0.82,1,2
16492.562,0.227,0.428,0.873,-1.98,-3.42,0.4,1,2
16492.578,0.229,0.43,0.862,-1.04,-3.57,-0.03,1,2
16492.593,0.231,0.429,0.857,-0.24,-2.9,-0.24,1,2
16492.593,0.229,0.429,0.859,0.37,-1.8,-0.34,1,2
16492.609,0.228,0.426,0.864,0.82,-1.01,-0.34,1,2
16492.609,0.226,0.425,0.87,1.31,-0.64,-0.49,1,2
16492.625,0.228,0.425,0.873,2.17,-0.55,-0.61,1,2
16492.64,0.234,0.416,0.87,3.6,-0.37,-0.85,1,2
16492.64,0.233,0.414,0.87,4.76,0.21,-1.25,1,2
16492.656,0.236,0.408,0.875,6.41,0.52,-1.53,1,2
16492.671,0.229,0.418,0.877,7.54,0.85,-2.2,1,2
16492.671,0.221,0.428,0.875,8.58,0.4,-2.75,1,2
16492.687,0.217,0.437,0.871,9.06,-0.58,-2.72,1,2
16492.687,0.219,0.45,0.863,9.19,-1.59,-2.59,1,2
16492.703,0.219,0.457,0.857,9.09,-1.68,-2.47,1,2
16492.718,0.22,0.464,0.855,8.94,-1.53,-1.89,1,2
16492.718,0.221,0.47,0.849,8.48,-1.62,-1.25,1,2
16492.734,0.215,0.473,0.842,7.9,-1.86,-0.85,1,2
16492.75,0.211,0.475,0.842,5.13,-2.29,1.31,1,2
16492.75,0.221,0.476,0.844,3.3,-2.29,2.08,1,2
16492.765,0.219,0.471,0.845,2.23,-2.53,2.69,1,2
16492.781,0.224,0.455,0.851,1.19,-2.9,2.93,1,2
16492.781,0.23,0.442,0.862,1.04,-3.66,2.32,1,2
16492.796,0.23,0.437,0.865,1.28,-4.3,1.8,1,2
16492.812,0.23,0.438,0.864,1.98,-4.73,1.25,1,2
16492.812,0.23,0.439,0.862,2.96,-5.13,0.52,1,2
16492.828,0.226,0.448,0.864,3.23,-5.68,-0.27,1,2
16492.828,0.224,0.46,0.866,3.05,-6.62,-0.76,1,2
16492.843,0.228,0.462,0.859,2.96,-7.6,-0.61,1,2
16492.859,0.23,0.462,0.849,2.5,-8.42,-0.12,1,2
16492.859,0.233,0.459,0.846,1.71,-8.58,0.24,1,2
16492.875,0.233,0.46,0.85,0.82,-8.64,0.52,1,2
16492.89,0.234,0.465,0.853,-0.09,-9.4,0.55,1,2
16492.89,0.232,0.473,0.844,-1.8,-10.68,-0.18,1,2
16492.906,0.24,0.454,0.855,-5.55,-12.7,-2.23,1,2
16492.921,0.232,0.463,0.849,-5.04,-15.26,-1.25,1,2
16492.937,0.242,0.47,0.839,-4.39,-14.62,0.46,1,2
16492.953,0.247,0.458,0.84,-4.24,-13.28,1.37,1,2
16492.953,0.244,0.454,0.841,-3.51,-11.9,2.47,1,2
16492.968,0.247,0.452,0.843,-4.3,-10.96,3.57,1,2
16492.968,0.251,0.446,0.846,-5.31,-10.38,4.09,1,2
16492.984,0.255,0.436,0.851,-5.4,-9.74,4.58,1,2
16493.0,0.263,0.43,0.854,-5.43,-9.25,4.67,1,2
16493.0,0.27,0.426,0.852,-5.13,-9.16,3.88,1,2
16493.015,0.28,0.418,0.846,-3.85,-8.76,2.62,1,2
16493.031,0.295,0.409,0.839,-1.74,-7.45,1.07,1,2
16493.031,0.321,0.403,0.808,0.4,-3.57,-0.55,1,2
16493.046,0.344,0.402,0.773,3.48,3.54,-3.39,1,2
16493.046,0.334,0.379,0.755,6.44,13.28,-7.26,1,2
16493.062,0.273,0.395,0.816,4.61,21.52,-11.17,1,2
16493.078,0.24,0.473,0.936,-4.67,20.72,-13.95,1,2
16493.093,0.269,0.414,0.831,6.13,13.18,-15.5,1,2
16493.109,0.181,0.431,0.893,8.58,14.37,-14.47,1,2
16493.109,0.177,0.56,0.928,4.21,8.94,-12.24,1,2
16493.125,0.18,0.475,0.891,10.9,4.0,-7.51,1,2
16493.14,0.168,0.471,0.861,11.38,0.12,-3.94,1,2
16493.14,0.203,0.477,0.854,9.58,-3.02,-1.65,1,2
16493.156,0.213,0.463,0.848,9.4,-4.3,-1.13,1,2
16493.171,0.208,0.489,0.861,7.14,-5.25,-0.7,1,2
16493.171,0.214,0.482,0.859,7.66,-7.69,-0.31,1,2
16493.187,0.221,0.454,0.863,8.45,-10.59,0.52,1,2
16493.203,0.226,0.479,0.87,7.05,-12.36,1.92,1,2
16493.203,0.222,0.476,0.873,7.66,-13.03,3.57,1,2
16493.218,0.203,0.452,0.898,9.52,-14.4,5.89,1,2
16493.218,0.203,0.513,0.889,8.45,-18.49,8.09,1,2
16493.234,0.289,0.43,0.819,15.72,-18.77,11.54,1,2
16493.25,0.227,0.407,0.793,19.53,-13.49,11.75,1,2
16493.265,0.267,0.464,0.823,14.22,-10.41,10.38,1,2
16493.281,0.252,0.465,0.815,11.93,-9.77,8.51,1,2
16493.281,0.265,0.49,0.824,8.15,-10.16,7.63,1,2
16493.296,0.271,0.492,0.827,5.95,-10.8,6.65,1,2
16493.312,0.277,0.487,0.822,4.0,-11.35,6.23,1,2
16493.312,0.284,0.482,0.809,2.75,-11.35,5.52,1,2
16493.328,0.286,0.483,0.803,1.31,-10.65,4.67,1,2
16493.328,0.287,0.485,0.802,-0.06,-9.86,3.75,1,2
16493.343,0.291,0.48,0.801,-1.25,-8.91,2.81,1,2
16493.359,0.295,0.481,0.795,-2.69,-7.51,1.65,1,2
16493.359,0.293,0.477,0.789,-3.54,-5.37,0.82,1,2
16493.375,0.287,0.477,0.791,-3.85,-3.02,0.55,1,2
16493.39,0.288,0.487,0.8,-4.7,-1.01,0.58,1,2
16493.39,0.285,0.486,0.804,-6.38,0.34,0.24,1,2
16493.406,0.278,0.483,0.812,-8.36,1.04,-0.27,1,2
16493.421,0.271,0.486,0.829,-9.92,1.19,-0.31,1,2
16493.437,0.26,0.481,0.845,-12.05,-1.19,0.31,1,2
16493.437,0.264,0.468,0.841,-12.36,-2.23,1.07,1,2
16493.453,0.267,0.46,0.84,-12.45,-2.75,1.62,1,2
16493.468,0.269,0.454,0.843,-12.27,-2.96,1.98,1,2
16493.468,0.271,0.447,0.846,-11.93,-2.87,2.01,1,2
16493.484,0.273,0.444,0.85,-11.23,-3.2,1.89,1,2
16493.5,0.274,0.438,0.85,-10.16,-3.54,1.62,1,2
16493.5,0.278,0.434,0.847,-8.97,-3.36,1.16,1,2
16493.515,0.279,0.435,0.845,-7.63,-2.93,0.73,1,2
16493.531,0.279,0.435,0.842,-6.13,-2.53,0.27,1,2
16493.531,0.281,0.438,0.842,-4.91,-1.92,0.15,1,2
16493.546,0.285,0.445,0.841,-3.94,-1.04,0.18,1,2
16493.562,0.285,0.443,0.844,-3.11,-0.18,0.18,1,2
16493.562,0.281,0.446,0.85,-2.26,-0.09,0.46,1,2
16493.578,0.282,0.442,0.85,-1.16,-0.27,0.7,1,2
16493.578,0.284,0.44,0.852,0.09,-0.43,0.61,1,2
16493.593,0.281,0.445,0.849,0.73,-0.73,0.37,1,2
16493.609,0.28,0.446,0.844,1.4,-1.01,0.06,1,2
16493.609,0.275,0.446,0.838,2.72,-0.92,-0.06,1,2
16493.625,0.273,0.451,0.84,3.2,-0.64,-0.31,1,2
16493.64,0.27,0.453,0.837,2.72,-0.46,-0.76,1,2
16493.64,0.267,0.454,0.836,2.53,-0.52,-0.95,1,2
16493.656,0.265,0.458,0.838,1.95,-0.82,-0.7,1,2
16493.671,0.268,0.466,0.842,1.25,-1.46,-0.46,1,2
16493.671,0.265,0.466,0.849,0.7,-2.23,0.0,1,2
16493.687,0.265,0.463,0.852,0.31,-3.14,1.07,1,2
16493.703,0.266,0.468,0.857,0.31,-4.33,1.8,1,2
16493.703,0.264,0.466,0.863,0.49,-5.68,2.72,1,2
16493.718,0.262,0.46,0.867,1.25,-7.08,3.72,1,2
16493.718,0.267,0.457,0.867,3.88,-10.47,5.58,1,2
16493.734,0.27,0.455,0.864,4.76,-11.87,6.32,1,2
16493.75,0.276,0.451,0.865,6.84,-12.97,7.29,1,2
16493.75,0.281,0.448,0.87,9.64,-13.92,8.12,1,2
16493.765,0.303,0.442,0.872,12.21,-14.89,8.73,1,2
16493.781,0.303,0.437,0.89,15.44,-15.75,9.43,1,2
16493.781,0.304,0.428,0.904,20.33,-16.75,10.25,1,2
16493.796,0.301,0.425,0.923,27.28,-17.91,11.75,1,2
16493.812,0.298,0.434,0.937,35.62,-19.14,12.79,1,2
16493.812,0.288,0.452,0.946,43.95,-21.24,13.37,1,2
16493.828,0.288,0.482,0.943,51.06,-24.54,13.86,1,2
16493.828,0.283,0.531,0.938,54.45,-28.32,14.04,1,2
16493.843,0.272,0.598,0.946,52.43,-31.62,14.37,1,2
16493.859,0.266,0.66,0.962,46.6,-34.58,15.59,1,2
16493.859,0.27,0.734,0.995,37.2,-35.65,19.59,1,2
16493.875,0.278,0.799,1.021,26.18,-37.54,25.09,1,2
16493.89,0.319,0.824,1.035,10.99,-39.31,33.14,1,2
16493.89,0.31,0.806,1.096,-11.6,-41.66,39.28,1,2
16493.906,0.342,0.694,1.102,-19.96,-50.36,44.47,1,2
16493.921,0.383,0.658,1.119,-20.6,-59.18,49.29,1,2
16493.921,0.437,0.616,1.086,-13.25,-67.02,52.06,1,2
16493.937,0.486,0.571,1.065,-3.45,-71.96,52.06,1,2
16493.937,0.522,0.549,1.044,6.9,-75.08,50.94,1,2
16493.953,0.539,0.542,0.998,16.39,-77.91,48.77,1,2
16493.968,0.565,0.546,0.958,21.42,-81.36,47.27,1,2
16493.984,0.59,0.551,0.917,21.39,-84.72,45.66,1,2
16493.984,0.595,0.56,0.87,16.72,-88.11,44.56,1,2
16494.0,0.599,0.546,0.837,9.13,-91.62,46.05,1,2
16494.0,0.624,0.538,0.814,-0.24,-94.67,49.71,1,2
16494.015,0.635,0.538,0.79,-9.95,-97.38,52.64,1,2
16494.031,0.635,0.525,0.763,-18.86,-100.44,55.02,1,2
16494.031,0.643,0.52,0.748,-28.2,-103.18,57.5,1,2
16494.046,0.661,0.505,0.735,-35.43,-105.08,58.93,1,2
16494.062,0.65,0.467,0.723,-39.09,-107.61,59.45,1,2
16494.062,0.653,0.446,0.709,-40.16,-111.45,60.61,1,2
16494.078,0.659,0.433,0.709,-38.54,-116.58,61.56,1,2
16494.093,0.685,0.404,0.68,-34.42,-122.29,61.74,1,2
16494.093,0.691,0.397,0.65,-31.31,-126.29,60.0,1,2
16494.109,0.707,0.343,0.562,-23.5,-132.73,56.34,1,2
16494.125,0.721,0.326,0.507,-19.35,-132.21,54.57,1,2
16494.14,0.707,0.3,0.48,-14.59,-130.22,52.1,1,2
16494.14,0.702,0.282,0.448,-8.21,-128.88,50.6,1,2
16494.156,0.709,0.266,0.405,-1.04,-126.44,49.78,1,2
16494.171,0.704,0.257,0.38,4.3,-122.26,47.94,1,2
16494.171,0.701,0.244,0.364,8.94,-118.56,44.65,1,2
16494.187,0.706,0.228,0.356,13.25,-115.6,40.41,1,2
16494.203,0.72,0.221,0.35,16.54,-113.01,34.7,1,2
16494.203,0.739,0.224,0.33,20.39,-110.9,27.19,1,2
16494.218,0.748,0.222,0.309,23.19,-107.06,19.99,1,2
16494.234,0.76,0.247,0.287,23.22,-102.39,14.68,1,2
16494.234,0.765,0.289,0.254,20.33,-98.73,10.07,1,2
16494.25,0.775,0.297,0.229,14.71,-94.49,7.9,1,2
16494.25,0.797,0.318,0.214,7.6,-89.54,7.51,1,2
16494.265,0.805,0.322,0.207,1.31,-82.98,8.48,1,2
16494.281,0.812,0.312,0.194,-4.39,-66.77,13.4,1,2
16494.296,0.82,0.318,0.196,-3.69,-58.35,16.36,1,2
16494.296,0.812,0.332,0.186,-2.9,-53.35,16.6,1,2
16494.312,0.796,0.304,0.174,-4.58,-50.6,17.82,1,2
16494.328,0.813,0.316,0.173,-7.81,-51.73,18.77,1,2
16494.328,0.828,0.319,0.165,-6.81,-56.31,17.3,1,2
16494.343,0.839,0.287,0.14,-4.7,-59.97,17.33,1,2
16494.359,0.856,0.283,0.105,-5.13,-61.98,18.62,1,2
16494.359,0.862,0.267,0.058,-6.23,-63.08,19.29,1,2
16494.375,0.863,0.251,-0.003,-8.73,-63.08,19.71,1,2
16494.39,0.862,0.243,-0.047,-13.25,-62.99,19.84,1,2
16494.39,0.86,0.221,-0.075,-17.06,-61.13,20.29,1,2
16494.406,0.857,0.202,-0.093,-17.55,-57.47,21.0,1,2
16494.421,0.854,0.179,-0.106,-13.95,-49.5,23.01,1,2
16494.421,0.829,0.171,-0.131,-9.8,-40.68,24.02,1,2
16494.437,0.798,0.159,-0.152,-8.67,-34.18,24.11,1,2
16494.453,0.785,0.151,-0.184,-9.25,-25.21,21.49,1,2
16494.468,0.794,0.15,-0.204,-6.32,-18.16,21.97,1,2
16494.468,0.79,0.141,-0.189,-4.73,-4.7,26.0,1,2
16494.484,0.775,0.123,-0.145,-7.87,13.67,32.62,1,2
16494.5,0.746,0.107,-0.076,-16.39,31.25,40.22,1,2
16494.515,0.705,0.083,0.018,-27.83,44.37,48.13,1,2
16494.515,0.654,0.029,0.119,-38.85,50.51,56.25,1,2
16494.531,0.646,-0.016,0.209,-45.32,51.73,63.17,1,2
16494.531,0.643,-0.05,0.298,-45.17,48.68,66.38,1,2
16494.546,0.661,-0.078,0.388,-38.94,44.77,67.87,1,2
16494.546,0.708,-0.058,0.397,-30.15,38.94,65.55,1,2
16494.562,0.8,-0.013,0.383,-25.88,36.74,59.42,1,2
16494.578,0.83,0.014,0.384,-28.23,41.17,50.69,1,2
16494.593,0.863,0.045,0.407,-33.54,46.3,39.92,1,2
16494.593,0.871,0.054,0.434,-37.35,51.09,29.66,1,2
16494.609,0.864,0.067,0.465,-39.55,55.88,23.19,1,2
16494.609,0.85,0.087,0.489,-41.29,58.66,21.82,1,2
16494.625,0.852,0.11,0.505,-45.01,58.17,24.23,1,2
16494.64,0.857,0.123,0.518,-50.26,54.23,27.07,1,2
16494.64,0.87,0.088,0.536,-56.25,51.18,32.5,1,2
16494.656,0.898,0.06,0.544,-62.75,49.81,39.22,1,2
16494.671,0.927,0.022,0.553,-70.13,49.68,44.43,1,2
16494.671,0.936,-0.028,0.545,-76.08,50.11,45.08,1,2
16494.687,0.954,-0.073,0.516,-78.16,50.11,41.26,1,2
16494.687,0.966,-0.087,0.489,-76.14,50.51,33.66,1,2
16494.703,0.961,-0.085,0.48,-71.35,52.8,25.21,1,2
16494.718,0.962,-0.063,0.48,-62.44,65.37,9.86,1,2
16494.718,0.94,-0.045,0.496,-62.69,72.12,5.22,1,2
16494.734,0.911,-0.012,0.544,-64.76,74.65,2.81,1,2
16494.75,0.866,0.016,0.585,-68.79,73.61,3.48,1,2
16494.765,0.868,0.035,0.579,-74.68,70.65,4.64,1,2
16494.765,0.887,0.055,0.55,-78.89,67.93,5.34,1,2
16494.781,0.931,0.065,0.558,-82.4,69.7,9.06,1,2
16494.781,0.944,0.071,0.611,-87.34,77.12,15.38,1,2
16494.796,0.897,0.055,0.694,-95.92,84.23,21.97,1,2
16494.796,0.84,-0.005,0.813,-104.77,86.86,26.58,1,2
16494.812,0.752,-0.092,0.905,-105.81,81.58,25.54,1,2
16494.828,0.683,-0.152,0.921,-95.55,66.23,17.58,1,2
16494.843,0.702,-0.173,0.88,-73.55,46.69,5.62,1,2
16494.843,0.746,-0.161,0.801,-45.81,31.28,-7.72,1,2
16494.859,0.784,-0.131,0.723,-21.88,21.97,-19.32,1,2
16494.859,0.813,-0.103,0.669,-6.74,17.52,-27.22,1,2
16494.875,0.824,-0.062,0.643,0.03,17.43,-29.15,1,2
16494.89,0.806,-0.022,0.641,-2.53,17.82,-26.37,1,2
16494.89,0.791,0.02,0.663,-13.92,16.14,-19.2,1,2
16494.906,0.772,0.039,0.694,-28.17,12.18,-8.76,1,2
16494.906,0.77,0.021,0.73,-39.46,6.38,2.62,1,2
16494.921,0.787,-0.014,0.746,-42.76,-1.4,11.38,1,2
16494.937,0.823,-0.049,0.73,-38.94,-7.48,17.67,1,2
16494.937,0.861,-0.079,0.71,-33.45,-11.41,19.93,1,2
16494.953,0.868,-0.108,0.704,-27.28,-13.86,17.4,1,2
16494.968,0.873,-0.155,0.704,-18.07,-16.27,11.84,1,2
16494.984,0.874,-0.15,0.695,-6.99,-19.17,4.58,1,2
16494.984,0.852,-0.138,0.667,4.03,-22.25,-4.61,1,2
16495.0,0.84,-0.129,0.636,12.76,-24.93,-12.85,1,2
16495.0,0.84,-0.079,0.592,19.47,-25.94,-17.7,1,2
16495.015,0.81,-0.066,0.551,22.64,-23.83,-18.77,1,2
16495.031,0.784,-0.056,0.51,21.7,-21.33,-15.93,1,2
16495.031,0.802,-0.039,0.461,17.82,-17.67,-9.52,1,2
16495.046,0.806,-0.038,0.446,10.9,-10.38,-0.18,1,2
16495.046,0.792,-0.055,0.445,2.69,-1.83,9.37,1,2
16495.062,0.804,-0.083,0.448,-4.94,5.07,17.52,1,2
16495.078,0.815,-0.099,0.466,-11.23,12.54,24.11,1,2
16495.078,0.817,-0.118,0.502,-16.14,18.86,28.29,1,2
16495.093,0.822,-0.141,0.553,-20.81,22.34,31.68,1,2
16495.109,0.817,-0.156,0.617,-23.5,23.96,35.49,1,2
16495.125,0.829,-0.188,0.705,-29.79,17.79,35.52,1,2
16495.14,0.817,-0.218,0.743,-25.48,13.67,32.47,1,2
16495.14,0.804,-0.245,0.729,-16.36,8.91,25.42,1,2
16495.156,0.801,-0.235,0.684,-7.97,5.04,14.16,1,2
16495.156,0.795,-0.205,0.64,0.03,1.77,1.86,1,2
16495.171,0.825,-0.195,0.589,5.46,1.89,-7.84,1,2
16495.187,0.79,-0.155,0.56,8.15,6.13,-14.25,1,2
16495.187,0.725,-0.12,0.542,9.03,10.13,-18.43,1,2
16495.203,0.674,-0.111,0.546,9.61,11.08,-20.39,1,2
16495.218,0.649,-0.099,0.528,11.11,9.28,-19.04,1,2
16495.218,0.671,-0.098,0.499,8.82,7.08,-14.28,1,2
16495.234,0.706,-0.099,0.496,1.4,6.99,-6.96,1,2
16495.25,0.695,-0.142,0.499,-5.98,8.79,0.64,1,2
16495.25,0.748,-0.137,0.504,-11.72,10.22,6.99,1,2
16495.265,0.789,-0.147,0.502,-14.65,12.39,9.13,1,2
16495.281,0.763,-0.187,0.547,-17.27,16.51,10.93,1,2
16495.296,0.69,-0.228,0.617,-14.53,16.24,7.69,1,2
16495.312,0.685,-0.237,0.618,-10.04,13.0,3.45,1,2
16495.312,0.717,-0.225,0.607,-6.04,9.64,-1.77,1,2
16495.328,0.727,-0.233,0.6,-3.54,8.24,-6.93,1,2
16495.328,0.758,-0.22,0.598,-0.95,8.09,-11.9,1,2
16495.343,0.775,-0.208,0.596,1.8,9.52,-16.17,1,2
16495.359,0.777,-0.19,0.604,2.44,11.29,-19.53,1,2
16495.375,0.778,-0.167,0.618,0.73,12.18,-22.06,1,2
16495.375,0.784,-0.152,0.633,-0.58,12.36,-24.29,1,2
16495.39,0.785,-0.126,0.658,-0.58,12.57,-24.78,1,2
16495.39,0.772,-0.097,0.683,-0.79,12.12,-23.59,1,2
16495.406,0.746,-0.099,0.706,0.18,9.95,-20.39,1,2
16495.421,0.74,-0.098,0.709,3.2,7.23,-15.2,1,2
16495.421,0.753,-0.089,0.685,4.58,3.91,-10.35,1,2
16495.437,0.756,-0.098,0.653,2.81,1.92,-6.44,1,2
16495.437,0.767,-0.113,0.635,0.18,1.71,-3.33,1,2
16495.468,0.797,-0.144,0.619,-4.73,4.88,0.73,1,2
16495.468,0.806,-0.144,0.618,-6.62,7.42,1.16,1,2
16495.484,0.814,-0.144,0.63,-8.36,9.7,1.34,1,2
16495.5,0.811,-0.14,0.652,-10.44,11.29,1.77,1,2
16495.5,0.792,-0.142,0.675,-11.11,11.41,2.14,1,2
16495.515,0.779,-0.149,0.687,-9.89,9.7,2.17,1,2
16495.531,0.767,-0.158,0.686,-7.48,7.51,2.66,1,2
16495.531,0.777,-0.159,0.678,-5.04,5.25,3.3,1,2
16495.546,0.791,-0.158,0.661,-3.63,4.12,3.3,1,2
16495.562,0.792,-0.16,0.652,-3.72,4.18,2.2,1,2
16495.562,0.786,-0.171,0.659,-3.23,4.58,0.7,1,2
16495.578,0.774,-0.176,0.652,-0.67,4.82,-0.67,1,2
16495.578,0.775,-0.174,0.641,1.56,4.36,-2.23,1,2
16495.593,0.769,-0.178,0.634,2.26,3.88,-3.72,1,2
16495.609,0.768,-0.182,0.62,1.53,3.75,-4.24,1,2
16495.609,0.776,-0.179,0.609,-0.4,4.67,-4.06,1,2
16495.64,0.756,-0.159,0.638,-6.23,6.71,-4.55,1,2
16495.64,0.762,-0.159,0.668,-7.57,5.65,-4.7,1,2
16495.656,0.776,-0.155,0.688,-6.04,3.75,-4.3,1,2
16495.671,0.77,-0.144,0.686,-2.62,1.92,-4.06,1,2
16495.671,0.767,-0.139,0.675,-0.03,-0.61,-4.64,1,2
16495.687,0.765,-0.138,0.658,1.43,-2.66,-5.77,1,2
16495.703,0.759,-0.142,0.638,4.06,-2.84,-8.06,1,2
16495.703,0.749,-0.144,0.622,5.77,-1.19,-9.28,1,2
16495.718,0.739,-0.144,0.609,6.41,0.7,-10.65,1,2
16495.718,0.739,-0.133,0.596,6.01,2.47,-11.41,1,2
16495.734,0.757,-0.11,0.603,4.76,4.61,-11.14,1,2
16495.75,0.769,-0.098,0.613,2.72,5.98,-10.13,1,2
16495.75,0.776,-0.09,0.64,0.24,7.02,-7.97,1,2
16495.765,0.761,-0.085,0.671,-2.38,6.78,-4.76,1,2
16495.781,0.755,-0.091,0.692,-4.52,4.7,-1.86,1,2
16495.781,0.757,-0.101,0.698,-4.67,1.89,0.12,1,2
16495.796,0.768,-0.108,0.686,-2.5,-0.79,0.82,1,2
16495.812,0.782,-0.111,0.667,0.52,-2.38,0.27,1,2
16495.812,0.782,-0.113,0.65,2.59,-2.47,-0.82,1,2
16495.828,0.787,-0.123,0.639,3.88,-1.89,-1.5,1,2
16495.828,0.78,-0.117,0.639,4.39,-0.27,-1.56,1,2
16495.843,0.75,-0.113,0.648,3.42,0.52,-2.17,1,2
16495.859,0.736,-0.125,0.656,2.53,-0.31,-2.93,1,2
16495.859,0.724,-0.122,0.656,3.14,-1.65,-3.6,1,2
16495.875,0.729,-0.125,0.647,4.64,-2.93,-3.97,1,2
16495.89,0.759,-0.107,0.63,5.8,-3.81,-4.12,1,2
16495.89,0.756,-0.106,0.612,5.86,-3.48,-4.49,1,2
16495.906,0.755,-0.111,0.616,4.49,-2.14,-3.94,1,2
16495.921,0.767,-0.094,0.63,4.12,-1.16,-3.36,1,2
16495.921,0.758,-0.096,0.639,4.58,-1.01,-2.62,1,2
16495.937,0.745,-0.102,0.644,4.39,-1.46,-2.11,1,2
16495.937,0.748,-0.101,0.643,4.76,-2.44,-1.77,1,2
16495.953,0.758,-0.105,0.634,5.49,-3.08,-1.92,1,2
16495.968,0.766,-0.111,0.633,5.28,-2.96,-1.5,1,2
16495.968,0.768,-0.113,0.631,4.55,-2.41,-1.01,1,2
16495.984,0.775,-0.117,0.629,4.39,-1.53,-0.82,1,2
16496.0,0.786,-0.118,0.627,4.27,-0.64,-0.61,1,2
16496.0,0.787,-0.122,0.633,3.54,0.37,-1.01,1,2
16496.015,0.777,-0.128,0.643,3.48,1.46,-1.77,1,2
16496.031,0.767,-0.127,0.649,4.43,1.92,-2.53,1,2
16496.031,0.763,-0.125,0.657,4.97,1.56,-3.2,1,2
16496.046,0.762,-0.119,0.673,4.49,0.85,-3.17,1,2
16496.062,0.767,-0.116,0.684,4.15,-0.46,-2.84,1,2
16496.062,0.776,-0.12,0.681,4.91,-2.01,-2.72,1,2
16496.078,0.779,-0.115,0.675,6.93,-3.17,-3.02,1,2
16496.078,0.78,-0.111,0.668,8.55,-4.15,-3.85,1,2
16496.093,0.782,-0.107,0.653,9.49,-5.07,-5.07,1,2
16496.109,0.778,-0.105,0.636,10.35,-4.85,-5.65,1,2
16496.109,0.779,-0.099,0.62,10.1,-4.06,-5.65,1,2
16496.125,0.775,-0.1,0.609,8.73,-2.41,-5.07,1,2
16496.14,0.773,-0.101,0.606,6.9,-0.12,-3.88,1,2
16496.14,0.776,-0.093,0.613,5.52,1.04,-2.59,1,2
16496.156,0.773,-0.1,0.623,4.0,1.4,-1.19,1,2
16496.171,0.783,-0.104,0.628,2.29,1.04,0.31,1,2
16496.171,0.78,-0.117,0.628,0.64,0.49,0.76,1,2
16496.187,0.777,-0.126,0.634,-0.7,0.21,0.73,1,2
16496.187,0.769,-0.123,0.643,-0.76,0.03,-0.49,1,2
16496.203,0.754,-0.137,0.646,0.27,-0.18,-2.81,1,2
16496.218,0.762,-0.128,0.64,2.87,-1.1,-6.41,1,2
16496.218,0.755,-0.131,0.632,6.62,-0.85,-10.07,1,2
16496.234,0.751,-0.126,0.621,9.8,1.13,-12.91,1,2
16496.25,0.743,-0.113,0.622,11.32,3.85,-14.62,1,2
16496.25,0.737,-0.097,0.615,11.87,5.68,-16.57,1,2
16496.265,0.735,-0.096,0.617,11.29,8.0,-17.82,1,2
16496.281,0.744,-0.075,0.627,9.95,10.07,-18.49,1,2
16496.281,0.741,-0.064,0.639,8.91,12.12,-18.8,1,2
16496.296,0.732,-0.054,0.654,8.15,13.43,-19.04,1,2
16496.312,0.722,-0.037,0.67,7.69,13.64,-18.59,1,2
16496.312,0.715,-0.033,0.7,6.2,13.21,-16.48,1,2
16496.328,0.722,-0.016,0.715,4.46,10.68,-14.25,1,2
16496.328,0.725,-0.018,0.715,3.2,7.39,-12.45,1,2
16496.343,0.72,-0.023,0.714,2.62,5.1,-10.5,1,2
16496.359,0.733,-0.017,0.704,3.02,3.27,-8.12,1,2
16496.359,0.747,-0.017,0.688,3.27,1.8,-6.29,1,2
16496.375,0.74,-0.026,0.675,2.96,2.62,-4.43,1,2
16496.39,0.728,-0.026,0.678,2.2,3.63,-2.29,1,2
16496.39,0.729,-0.028,0.674,1.53,3.42,-0.64,1,2
16496.406,0.737,-0.032,0.672,0.27,3.48,0.67,1,2
16496.421,0.746,-0.033,0.672,-1.71,3.85,2.23,1,2
16496.421,0.754,-0.036,0.67,-3.66,3.69,3.3,1,2
16496.437,0.757,-0.042,0.674,-5.43,3.51,4.36,1,2
16496.453,0.753,-0.046,0.683,-7.02,3.39,5.71,1,2
16496.453,0.748,-0.058,0.696,-8.61,3.11,6.74,1,2
16496.468,0.751,-0.061,0.697,-8.73,1.77,6.74,1,2
16496.468,0.748,-0.071,0.694,-7.57,0.64,5.74,1,2
16496.5,0.771,-0.068,0.686,-5.46,-0.7,3.57,1,2
16496.5,0.772,-0.069,0.681,-4.91,-0.76,1.83,1,2
16496.515,0.764,-0.075,0.686,-3.97,-0.43,0.67,1,2
16496.531,0.762,-0.07,0.695,-2.23,-0.49,0.46,1,2
16496.531,0.759,-0.064,0.685,-0.34,-1.56,-0.61,1,2
16496.546,0.753,-0.07,0.673,0.55,-2.56,-2.35,1,2
16496.562,0.752,-0.068,0.669,0.7,-2.78,-3.42,1,2
16496.562,0.754,-0.052,0.665,0.89,-3.27,-4.0,1,2
16496.578,0.751,-0.053,0.667,1.37,-4.09,-4.15,1,2
16496.593,0.748,-0.044,0.668,2.38,-4.61,-3.85,1,2
16496.593,0.744,-0.037,0.658,4.06,-5.43,-3.88,1,2
16496.609,0.736,-0.041,0.645,5.46,-5.92,-4.39,1,2
16496.609,0.735,-0.037,0.633,5.89,-6.1,-4.55,1,2
16496.625,0.733,-0.035,0.629,5.28,-5.52,-4.18,1,2
16496.64,0.738,-0.035,0.631,4.0,-3.75,-2.59,1,2
16496.64,0.743,-0.023,0.637,2.5,-1.68,-0.58,1,2
16496.656,0.731,-0.03,0.649,-0.18,0.55,1.5,1,2
16496.671,0.731,-0.034,0.672,-3.66,1.37,3.42,1,2
16496.671,0.731,-0.042,0.697,-6.59,-1.92,5.89,1,2
16496.687,0.725,-0.057,0.713,-6.41,-4.15,7.35,1,2
16496.687,0.738,-0.068,0.715,-4.7,-6.23,7.69,1,2
16496.703,0.758,-0.062,0.701,-3.94,-6.9,6.9,1,2
16496.718,0.757,-0.081,0.673,-3.94,-6.62,6.65,1,2
16496.718,0.753,-0.078,0.669,-3.05,-5.77,7.17,1,2
16496.734,0.744,-0.076,0.66,-2.69,-5.83,7.39,1,2
16496.75,0.736,-0.084,0.658,-4.0,-6.38,8.18,1,2
16496.765,0.742,-0.093,0.645,-5.65,-7.02,9.31,1,2
16496.765,0.755,-0.097,0.633,-6.9,-7.87,9.95,1,2
16496.781,0.759,-0.105,0.621,-7.9,-7.78,10.35,1,2
16496.781,0.761,-0.106,0.611,-9.49,-7.51,10.5,1,2
16496.796,0.773,-0.116,0.615,-11.51,-7.78,10.93,1,2
16496.812,0.788,-0.115,0.615,-13.37,-7.29,11.69,1,2
16496.812,0.791,-0.122,0.605,-14.01,-7.05,11.2,1,2
16496.828,0.786,-0.136,0.597,-13.37,-5.98,9.95,1,2
16496.828,0.779,-0.138,0.601,-12.36,-4.21,7.75,1,2
16496.843,0.768,-0.139,0.606,-10.22,-2.84,4.06,1,2
16496.859,0.778,-0.132,0.613,-7.05,-2.59,-0.24,1,2
16496.875,0.781,-0.116,0.621,-4.58,-1.74,-4.27,1,2
16496.875,0.775,-0.113,0.64,-2.11,-0.67,-7.23,1,2
16496.89,0.779,-0.087,0.658,0.95,-0.49,-8.79,1,2
16496.89,0.763,-0.071,0.662,2.53,-1.71,-10.68,1,2
16496.906,0.752,-0.072,0.667,3.23,-4.21,-12.48,1,2
16496.921,0.745,-0.064,0.668,5.49,-7.11,-13.0,1,2
16496.921,0.755,-0.047,0.652,8.3,-10.25,-12.85,1,2
16496.937,0.768,-0.043,0.633,9.34,-12.48,-12.33,1,2
16496.937,0.773,-0.035,0.622,8.24,-12.27,-10.16,1,2
16496.953,0.774,-0.03,0.619,5.71,-10.44,-6.96,1,2
16496.968,0.766,-0.037,0.616,2.35,-8.79,-3.75,1,2
16496.968,0.771,-0.055,0.607,-0.18,-7.66,-1.62,1,2
16496.984,0.77,-0.078,0.615,-0.67,-6.07,-0.64,1,2
16497.0,0.779,-0.106,0.626,1.16,-3.91,0.15,1,2
16497.0,0.797,-0.11,0.631,4.39,-2.96,-0.21,1,2
16497.015,0.782,-0.151,0.646,6.23,-1.13,-0.4,1,2
16497.031,0.78,-0.183,0.671,6.29,0.31,-0.61,1,2
16497.031,0.767,-0.219,0.662,8.79,-0.55,-3.33,1,2
16497.046,0.775,-0.253,0.636,9.58,-1.37,-7.63,1,2
16497.062,0.826,-0.234,0.639,8.45,-0.76,-12.97,1,2
16497.062,0.839,-0.214,0.649,8.67,1.1,-19.99,1,2
16497.078,0.821,-0.184,0.675,10.38,3.6,-26.89,1,2
16497.078,0.776,-0.128,0.695,13.31,4.67,-31.46,1,2
16497.093,0.729,-0.089,0.706,15.26,3.36,-33.11,1,2
16497.109,0.706,-0.043,0.7,14.62,-1.34,-33.51,1,2
16497.125,0.697,-0.021,0.68,12.67,-6.78,-33.6,1,2
16497.125,0.69,-0.007,0.653,11.35,-9.98,-32.17,1,2
16497.14,0.72,0.026,0.626,11.26,-10.71,-28.78,1,2
16497.14,0.752,0.067,0.596,10.07,-9.19,-25.03,1,2
16497.156,0.743,0.078,0.592,5.25,-5.58,-20.48,1,2
16497.171,0.724,0.081,0.614,-0.95,-2.23,-14.95,1,2
16497.171,0.714,0.083,0.638,-5.49,-0.82,-8.27,1,2
16497.187,0.722,0.081,0.652,-8.73,-2.01,-1.46,1,2
16497.187,0.729,0.066,0.658,-11.81,-4.36,4.67,1,2
16497.203,0.74,0.046,0.672,-15.2,-6.32,9.89,1,2
16497.218,0.749,0.041,0.672,-16.63,-9.61,12.76,1,2
16497.218,0.744,0.012,0.675,-17.98,-13.18,14.71,1,2
16497.234,0.763,0.003,0.675,-18.56,-16.11,15.87,1,2
16497.25,0.762,-0.014,0.646,-16.24,-18.59,15.81,1,2
16497.265,0.769,-0.029,0.619,-13.92,-19.78,14.56,1,2
16497.265,0.777,-0.035,0.605,-11.84,-19.07,12.76,1,2
16497.281,0.785,-0.041,0.595,-9.4,-17.33,11.05,1,2
16497.281,0.78,-0.04,0.592,-7.63,-15.78,8.33,1,2
16497.296,0.767,-0.046,0.593,-6.13,-14.74,5.58,1,2
16497.312,0.765,-0.051,0.591,-3.88,-13.95,3.45,1,2
16497.312,0.759,-0.042,0.593,-1.1,-12.73,2.23,1,2
16497.328,0.771,-0.032,0.58,1.1,-11.38,1.07,1,2
16497.343,0.777,-0.025,0.568,1.04,-9.25,0.18,1,2
16497.343,0.786,-0.029,0.566,-1.01,-7.26,0.37,1,2
16497.359,0.79,-0.031,0.579,-4.03,-5.25,0.43,1,2
16497.359,0.786,-0.039,0.579,-5.19,-3.33,0.67,1,2
16497.375,0.784,-0.048,0.576,-5.22,-1.74,0.79,1,2
16497.39,0.784,-0.048,0.584,-4.43,-0.55,0.92,1,2
16497.39,0.793,-0.048,0.583,-3.08,0.55,1.56,1,2
16497.406,0.809,-0.055,0.576,-3.45,1.8,1.98,1,2
16497.406,0.814,-0.055,0.583,-4.76,4.12,1.92,1,2
16497.421,0.809,-0.062,0.6,-4.46,6.81,1.77,1,2
16497.437,0.799,-0.07,0.605,-2.69,8.42,0.89,1,2
16497.437,0.791,-0.068,0.622,-0.24,9.13,-0.31,1,2
16497.453,0.786,-0.061,0.633,1.59,8.7,-1.19,1,2
16497.468,0.782,-0.058,0.634,1.68,7.35,-2.32,1,2
16497.468,0.783,-0.06,0.633,1.25,5.65,-3.05,1,2
16497.484,0.786,-0.06,0.63,1.16,4.24,-3.02,1,2
16497.5,0.799,-0.054,0.622,1.37,3.54,-2.44,1,2
16497.5,0.808,-0.048,0.611,1.83,4.24,-2.29,1,2
16497.515,0.802,-0.05,0.609,1.86,5.4,-2.56,1,2
16497.531,0.793,-0.048,0.616,1.86,6.68,-2.5,1,2
16497.531,0.786,-0.044,0.631,1.71,7.17,-1.98,1,2
16497.546,0.783,-0.043,0.639,0.7,6.35,-0.82,1,2
16497.546,0.782,-0.046,0.644,-0.27,5.01,0.67,1,2
16497.562,0.781,-0.052,0.644,-0.67,4.27,2.01,1,2
16497.578,0.785,-0.052,0.64,-1.25,3.42,2.56,1,2
16497.578,0.782,-0.054,0.637,-1.31,2.96,2.69,1,2
16497.593,0.777,-0.056,0.643,-1.1,2.53,2.93,1,2
16497.609,0.775,-0.055,0.649,-1.1,1.53,3.39,1,2
16497.609,0.78,-0.059,0.647,-1.43,0.12,3.54,1,2
16497.625,0.782,-0.06,0.649,-1.43,-1.25,3.42,1,2
16497.64,0.788,-0.067,0.648,-0.67,-2.29,3.36,1,2
16497.64,0.788,-0.072,0.639,0.52,-2.56,3.23,1,2
16497.656,0.788,-0.067,0.629,1.19,-2.56,2.53,1,2
16497.671,0.787,-0.067,0.63,1.22,-2.35,0.98,1,2
16497.671,0.785,-0.068,0.636,1.71,-2.35,0.4,1,2
16497.687,0.791,-0.066,0.635,1.56,-2.32,0.15,1,2
16497.687,0.783,-0.056,0.632,0.4,-2.41,0.4,1,2
16497.703,0.783,-0.058,0.638,-0.92,-2.81,0.73,1,2
16497.718,0.778,-0.062,0.636,-0.73,-2.87,1.13,1,2
16497.718,0.778,-0.058,0.63,0.31,-3.14,1.25,1,2
16497.734,0.785,-0.055,0.628,0.95,-3.33,1.13,1,2
16497.75,0.787,-0.056,0.629,1.31,-3.33,1.37,1,2
16497.765,0.798,-0.059,0.625,1.62,-3.11,2.01,1,2
16497.765,0.804,-0.061,0.626,0.79,-1.92,2.56,1,2
16497.781,0.792,-0.065,0.633,-1.22,-0.73,2.84,1,2
16497.781,0.781,-0.077,0.641,-2.32,-1.01,1.92,1,2
16497.796,0.774,-0.08,0.647,-0.82,-1.77,0.43,1,2
16497.812,0.771,-0.067,0.643,2.2,-2.62,-1.04,1,2
16497.812,0.776,-0.056,0.632,4.09,-3.33,-1.95,1,2
16497.828,0.783,-0.049,0.619,4.06,-3.08,-1.83,1,2
16497.843,0.785,-0.051,0.606,2.56,-1.92,-0.95,1,2
16497.843,0.771,-0.052,0.616,0.89,-0.18,0.09,1,2
16497.859,0.758,-0.058,0.637,-0.55,-0.09,1.16,1,2
16497.859,0.772,-0.064,0.642,-1.25,-1.89,1.37,1,2
16497.875,0.784,-0.065,0.631,-0.34,-2.62,1.22,1,2
16497.89,0.785,-0.058,0.619,0.4,-2.38,1.01,1,2
16497.89,0.786,-0.055,0.617,-0.31,-2.41,0.49,1,2
16497.906,0.79,-0.061,0.612,-0.92,-2.32,0.64,1,2
16497.921,0.791,-0.066,0.605,-0.64,-1.13,0.7,1,2
16497.921,0.774,-0.067,0.609,-0.12,0.34,0.4,1,2
16497.937,0.762,-0.067,0.621,0.0,0.24,0.12,1,2
16497.937,0.765,-0.064,0.627,-0.12,-0.64,0.03,1,2
16497.953,0.771,-0.062,0.624,-0.21,-1.22,0.12,1,2
16497.968,0.775,-0.061,0.619,0.24,-1.1,0.52,1,2
16497.968,0.78,-0.057,0.615,0.06,-0.92,0.98,1,2
16497.984,0.79,-0.06,0.609,-0.64,-0.64,1.22,1,2
16498.0,0.795,-0.062,0.612,-1.31,0.43,1.4,1,2
16498.0,0.781,-0.064,0.62,-1.5,2.04,1.46,1,2
16498.015,0.765,-0.068,0.635,-1.37,2.04,1.28,1,2
16498.031,0.765,-0.062,0.644,-1.19,0.46,1.13,1,2
16498.031,0.772,-0.065,0.634,-0.89,-0.95,0.79,1,2
16498.046,0.789,-0.063,0.626,-0.37,-1.74,0.58,1,2
16498.062,0.795,-0.056,0.622,-0.37,-1.37,0.0,1,2
16498.062,0.786,-0.058,0.625,-0.79,-0.79,-0.61,1,2
16498.078,0.772,-0.06,0.631,0.03,-0.61,-1.04,1,2
16498.078,0.767,-0.058,0.628,1.71,-1.04,-1.16,1,2
16498.093,0.772,-0.055,0.617,2.32,-1.5,-0.92,1,2
16498.109,0.78,-0.052,0.616,1.4,-1.46,-0.52,1,2
16498.109,0.782,-0.052,0.623,0.06,-1.07,0.27,1,2
16498.125,0.781,-0.052,0.632,-0.67,-0.85,1.5,1,2
16498.14,0.782,-0.054,0.644,-1.62,-1.1,2.14,1,2
16498.156,0.783,-0.059,0.643,-2.14,-1.98,2.04,1,2
16498.156,0.775,-0.066,0.632,-0.37,-2.5,1.19,1,2
16498.171,0.773,-0.062,0.619,1.22,-2.93,-0.15,1,2
16498.187,0.782,-0.061,0.608,1.92,-2.87,-1.34,1,2
16498.187,0.786,-0.054,0.598,2.41,-1.83,-1.43,1,2
16498.203,0.796,-0.043,0.597,1.46,-0.98,-0.4,1,2
16498.203,0.802,-0.043,0.604,-0.89,-0.58,1.19,1,2
16498.218,0.805,-0.05,0.614,-2.99,0.0,3.14,1,2
16498.218,0.802,-0.058,0.629,-4.09,0.85,4.73,1,2
16498.234,0.799,-0.066,0.644,-4.27,1.5,4.97,1,2
16498.25,0.799,-0.073,0.654,-3.94,1.04,4.15,1,2
16498.25,0.798,-0.076,0.652,-2.53,-0.52,2.5,1,2
16498.265,0.813,-0.072,0.637,0.4,-2.96,0.15,1,2
16498.281,0.821,-0.057,0.622,3.63,-3.72,-2.84,1,2
16498.281,0.826,-0.038,0.621,5.86,-2.53,-5.58,1,2
16498.296,0.802,-0.02,0.64,6.93,-0.15,-7.05,1,2
16498.296,0.766,-0.009,0.66,8.42,0.92,-8.39,1,2
16498.312,0.766,-0.006,0.679,11.35,0.7,-8.3,1,2
16498.328,0.781,0.009,0.681,13.52,-0.61,-5.98,1,2
16498.328,0.804,0.015,0.673,12.36,-2.69,-1.77,1,2
16498.343,0.817,0.012,0.669,7.23,-4.46,4.61,1,2
16498.359,0.81,-0.006,0.666,-0.12,-5.4,11.81,1,2
16498.359,0.795,-0.037,0.655,-6.99,-6.53,17.3,1,2
16498.375,0.792,-0.065,0.643,-10.13,-8.0,20.33,1,2
16498.39,0.786,-0.086,0.635,-10.47,-8.06,21.0,1,2
16498.39,0.769,-0.103,0.626,-9.98,-7.54,19.47,1,2
16498.406,0.742,-0.121,0.627,-8.58,-7.45,16.21,1,2
16498.421,0.731,-0.141,0.634,-5.83,-7.66,12.82,1,2
16498.421,0.746,-0.126,0.623,-1.56,-9.77,8.79,1,2
16498.437,0.739,-0.15,0.599,2.47,-10.86,4.67,1,2
16498.453,0.762,-0.128,0.574,5.52,-11.08,0.52,1,2
16498.453,0.758,-0.131,0.545,8.45,-10.83,-3.91,1,2
16498.468,0.762,-0.122,0.532,9.22,-9.61,-6.5,1,2
16498.468,0.765,-0.104,0.516,10.22,-7.57,-7.11,1,2
16498.484,0.78,-0.09,0.506,9.58,-5.49,-6.35,1,2
16498.5,0.787,-0.074,0.51,6.07,-2.29,-4.39,1,2
16498.5,0.773,-0.073,0.537,0.82,1.28,-1.43,1,2
16498.515,0.769,-0.077,0.568,-3.97,3.51,2.2,1,2
16498.531,0.774,-0.078,0.592,-6.01,4.18,4.55,1,2
16498.531,0.783,-0.086,0.611,-6.44,3.85,5.31,1,2
16498.546,0.787,-0.092,0.623,-6.04,3.75,4.91,1,2
16498.562,0.791,-0.097,0.632,-3.91,3.57,3.33,1,2
16498.562,0.794,-0.096,0.633,-1.28,3.39,1.01,1,2
16498.578,0.793,-0.095,0.63,1.13,3.05,-1.74,1,2
16498.578,0.788,-0.089,0.624,3.39,3.05,-3.97,1,2
16498.593,0.788,-0.072,0.624,4.27,2.93,-5.22,1,2
16498.609,0.788,-0.06,0.633,4.03,2.29,-5.13,1,2
16498.625,0.777,-0.052,0.641,2.93,1.4,-4.09,1,2
16498.625,0.769,-0.049,0.639,1.86,-0.03,-2.66,1,2
16498.64,0.774,-0.05,0.638,1.37,-1.62,-1.22,1,2
16498.64,0.779,-0.05,0.634,1.13,-1.62,0.24,1,2
16498.656,0.8,-0.05,0.634,1.1,-0.37,1.65,1,2
16498.671,0.821,-0.05,0.649,0.03,0.85,3.97,1,2
16498.671,0.813,-0.055,0.662,-2.23,-0.15,6.93,1,2
16498.687,0.799,-0.091,0.673,-4.03,-2.78,9.4,1,2
16498.687,0.779,-0.106,0.664,-5.34,-5.07,10.62,1,2
16498.703,0.765,-0.126,0.645,-6.13,-7.08,9.89,1,2
16498.718,0.781,-0.136,0.627,-5.28,-7.9,8.09,1,2
16498.718,0.787,-0.13,0.616,-3.3,-6.41,5.68,1,2
16498.734,0.79,-0.128,0.612,-1.19,-3.88,2.72,1,2
16498.75,0.798,-0.125,0.623,1.1,-1.83,0.24,1,2
16498.75,0.797,-0.118,0.638,2.44,-0.79,-0.58,1,2
16498.765,0.783,-0.124,0.638,1.86,-2.08,-0.43,1,2
16498.781,0.787,-0.125,0.635,0.09,-4.76,0.09,1,2
16498.781,0.78,-0.12,0.632,-2.66,-6.78,0.92,1,2
16498.796,0.779,-0.116,0.622,-5.46,-8.36,0.82,1,2
16498.812,0.782,-0.113,0.613,-6.44,-8.61,-0.15,1,2
16498.812,0.784,-0.103,0.605,-5.4,-7.45,-2.32,1,2
16498.828,0.788,-0.087,0.608,-2.08,-5.62,-5.34,1,2
16498.843,0.779,-0.069,0.618,1.43,-3.69,-8.27,1,2
16498.843,0.774,-0.065,0.628,4.67,-2.99,-10.16,1,2
16498.859,0.782,-0.061,0.628,8.3,-3.63,-10.44,1,2
16498.859,0.783,-0.048,0.62,9.7,-4.7,-9.34,1,2
16498.875,0.768,-0.051,0.603,7.29,-5.83,-7.87,1,2
16498.89,0.763,-0.057,0.597,4.49,-7.02,-6.07,1,2
16498.89,0.76,-0.056,0.589,2.62,-6.84,-3.72,1,2
16498.906,0.769,-0.058,0.584,0.37,-5.65,-1.46,1,2
16498.921,0.783,-0.061,0.594,-1.01,-4.33,0.43,1,2
16498.921,0.8,-0.064,0.613,-1.01,-3.2,2.01,1,2
16498.937,0.803,-0.067,0.636,-0.52,-2.69,3.08,1,2
16498.937,0.8,-0.064,0.662,0.55,-3.42,4.03,1,2
16498.953,0.795,-0.061,0.687,2.17,-4.97,4.64,1,2
16498.968,0.783,-0.064,0.69,3.81,-6.96,4.73,1,2
16498.968,0.788,-0.062,0.677,4.46,-9.55,4.64,1,2
16498.984,0.792,-0.058,0.663,4.76,-11.23,4.64,1,2
16499.0,0.775,-0.065,0.646,4.76,-11.81,4.55,1,2
16499.0,0.764,-0.073,0.628,5.37,-12.33,4.61,1,2
16499.015,0.775,-0.072,0.621,7.63,-12.82,4.09,1,2
16499.031,0.787,-0.066,0.621,10.8,-11.99,3.23,1,2
16499.031,0.789,-0.059,0.625,12.33,-10.9,2.72,1,2
16499.046,0.794,-0.052,0.656,12.63,-10.5,2.78,1,2
16499.046,0.782,-0.047,0.681,13.79,-11.32,3.2,1,2
16499.062,0.771,-0.054,0.685,15.84,-13.61,2.96,1,2
16499.078,0.777,-0.054,0.676,18.89,-16.97,2.01,1,2
16499.093,0.793,-0.05,0.664,23.16,-19.44,0.7,1,2
16499.093,0.814,-0.038,0.646,27.41,-20.57,-1.13,1,2
16499.109,0.819,-0.026,0.642,30.0,-20.63,-3.11,1,2
16499.109,0.803,-0.015,0.655,31.95,-20.75,-4.09,1,2
16499.125,0.771,-0.015,0.665,34.06,-21.39,-4.12,1,2
16499.14,0.746,-0.007,0.652,36.26,-23.77,-4.7,1,2
16499.14,0.739,-0.007,0.604,38.94,-26.95,-6.04,1,2
16499.156,0.779,0.014,0.558,41.29,-28.96,-6.2,1,2
16499.171,0.813,0.042,0.522,41.75,-26.89,-4.61,1,2
16499.171,0.821,0.061,0.514,39.49,-21.88,-2.41,1,2
16499.187,0.806,0.065,0.549,36.13,-16.75,1.25,1,2
16499.187,0.795,0.066,0.594,32.01,-13.73,7.05,1,2
16499.203,0.784,0.056,0.621,28.11,-14.16,13.31,1,2
16499.218,0.765,0.025,0.625,24.84,-16.54,18.98,1,2
16499.234,0.789,-0.002,0.609,21.24,-20.91,23.93,1,2
16499.234,0.811,-0.016,0.582,17.58,-23.62,27.07,1,2
16499.25,0.827,-0.038,0.562,14.47,-23.5,27.44,1,2
16499.25,0.844,-0.048,0.56,13.58,-21.64,25.76,1,2
16499.265,0.848,-0.068,0.573,15.14,-17.76,22.58,1,2
16499.281,0.845,-0.083,0.598,18.65,-14.37,16.97,1,2
16499.281,0.816,-0.104,0.612,24.2,-11.9,9.8,1,2
16499.296,0.804,-0.126,0.605,30.46,-11.78,1.01,1,2
16499.312,0.814,-0.137,0.573,37.05,-13.28,-7.66,1,2
16499.312,0.818,-0.123,0.537,43.46,-14.19,-15.59,1,2
16499.328,0.827,-0.078,0.492,47.88,-15.14,-23.41,1,2
16499.328,0.854,-0.019,0.475,48.62,-14.95,-28.44,1,2
16499.343,0.878,0.017,0.477,47.24,-11.26,-29.39,1,2
16499.359,0.88,0.053,0.489,45.05,-4.91,-26.09,1,2
16499.359,0.861,0.069,0.522,41.84,1.43,-19.44,1,2
16499.375,0.824,0.077,0.556,36.29,5.55,-10.9,1,2
16499.39,0.789,0.09,0.574,27.25,4.49,-2.11,1,2
16499.39,0.753,0.067,0.555,15.02,-1.98,5.01,1,2
16499.406,0.76,0.032,0.537,2.99,-10.93,10.38,1,2
16499.406,0.784,0.032,0.508,-2.75,-18.92,14.19,1,2
16499.421,0.826,0.03,0.469,-3.27,-23.22,16.51,1,2
16499.437,0.873,0.042,0.454,-2.01,-21.85,18.28,1,2
16499.453,0.895,0.046,0.455,0.79,-16.14,19.1,1,2
16499.453,0.892,0.045,0.482,2.53,-8.64,20.45,1,2
16499.468,0.873,0.052,0.525,2.56,-1.95,21.97,1,2
16499.468,0.857,0.043,0.54,1.56,1.31,23.41,1,2
16499.484,0.856,0.033,0.552,-1.19,0.4,24.81,1,2
16499.5,0.862,0.018,0.581,-4.67,-1.5,26.25,1,2
16499.5,0.853,-0.014,0.603,-6.74,-5.04,27.04,1,2
16499.515,0.84,-0.057,0.614,-5.68,-10.07,27.07,1,2
16499.531,0.847,-0.087,0.596,-1.22,-14.89,26.22,1,2
16499.531,0.841,-0.095,0.548,5.49,-20.69,22.19,1,2
16499.546,0.88,-0.078,0.481,12.39,-23.74,18.19,1,2
16499.562,0.896,-0.038,0.446,15.32,-21.88,15.35,1,2
16499.562,0.892,0.001,0.448,12.82,-15.93,14.04,1,2
16499.578,0.853,0.016,0.493,6.13,-9.52,13.82,1,2
16499.593,0.833,-0.003,0.549,-1.04,-4.24,14.77,1,2
16499.593,0.792,-0.052,0.596,-4.09,-1.5,14.86,1,2
16499.609,0.771,-0.093,0.61,-2.01,-4.43,13.37,1,2
16499.609,0.794,-0.086,0.579,4.76,-13.4,8.18,1,2
16499.625,0.815,-0.063,0.527,19.93,-25.21,-5.07,1,2
16499.64,0.853,-0.023,0.491,23.19,-22.74,-9.37,1,2
16499.656,0.864,0.014,0.492,24.26,-16.08,-8.94,1,2
16499.656,0.85,0.026,0.496,22.61,-10.38,-6.5,1,2
16499.656,0.819,0.005,0.483,18.92,-7.6,-3.05,1,2
16499.671,0.827,0.009,0.452,15.63,-8.67,1.13,1,2
16499.687,0.841,0.016,0.438,14.56,-9.77,5.65,1,2
16499.703,0.846,0.013,0.457,13.61,-8.94,10.32,1,2
16499.703,0.849,0.001,0.479,10.96,-7.93,14.62,1,2
16499.718,0.853,-0.036,0.51,6.23,-7.9,17.0,1,2
16499.718,0.863,-0.074,0.529,2.93,-10.07,16.27,1,2
16499.734,0.863,-0.085,0.511,4.27,-14.65,12.45,1,2
16499.75,0.858,-0.089,0.469,8.76,-20.33,8.79,1,2
16499.765,0.895,-0.063,0.432,14.28,-25.64,6.1,1,2
16499.765,0.899,-0.036,0.402,19.32,-26.43,4.06,1,2
16499.781,0.891,-0.026,0.382,19.47,-24.78,3.51,1,2
16499.781,0.9,-0.035,0.39,15.05,-20.81,4.03,1,2
16499.796,0.895,-0.051,0.425,10.47,-15.9,4.06,1,2
16499.796,0.893,-0.058,0.442,9.28,-15.47,1.8,1,2
16499.812,0.899,-0.065,0.435,13.09,-19.62,-0.95,1,2
16499.828,0.936,-0.031,0.421,19.84,-24.84,-2.11,1,2
16499.828,0.95,0.034,0.388,24.32,-26.58,-2.66,1,2
16499.843,0.945,0.067,0.379,21.73,-25.45,-2.26,1,2
16499.859,0.931,0.071,0.384,13.43,-23.07,0.95,1,2
16499.859,0.908,0.062,0.4,3.94,-20.39,6.81,1,2
16499.875,0.888,0.037,0.42,-4.55,-18.01,13.64,1,2
16499.89,0.868,0.009,0.425,-10.86,-17.91,18.95,1,2
16499.906,0.904,-0.002,0.416,-13.25,-21.49,20.87,1,2
16499.906,0.93,-0.019,0.384,-9.43,-24.93,19.17,1,2
16499.921,0.96,-0.025,0.361,-2.47,-23.22,18.07,1,2
16499.921,0.978,0.005,0.359,5.28,-17.27,17.37,1,2
16499.937,0.943,0.02,0.37,9.19,-7.87,17.43,1,2
16499.953,0.914,0.016,0.407,4.3,0.55,19.14,1,2
16499.953,0.879,0.005,0.464,-4.7,6.71,21.24,1,2
16499.968,0.794,-0.05,0.497,-13.06,9.31,22.43,1,2
16499.968,0.758,-0.108,0.516,-19.75,2.84,23.29,1,2
16499.984,0.76,-0.119,0.464,-18.83,-12.02,21.97,1,2
16500.0,0.799,-0.12,0.395,-8.61,-27.86,18.34,1,2
16500.0,0.85,-0.123,0.329,3.63,-35.92,16.24,1,2
16500.015,0.908,-0.091,0.264,10.71,-33.57,15.53,1,2
16500.031,0.905,-0.072,0.245,9.95,-23.68,14.74,1,2
16500.031,0.866,-0.089,0.238,3.27,-14.77,15.38,1,2
16500.046,0.85,-0.109,0.243,-7.02,-10.53,19.01,1,2
16500.062,0.851,-0.13,0.253,-17.18,-9.34,22.03,1,2
16500.062,0.879,-0.163,0.254,-23.04,-11.54,21.18,1,2
16500.078,0.927,-0.169,0.264,-23.01,-13.03,16.91,1,2
16500.093,0.962,-0.168,0.286,-19.65,-10.41,11.02,1,2
16500.093,0.977,-0.164,0.31,-14.37,-6.44,3.75,1,2
16500.109,0.986,-0.155,0.341,-6.71,-1.83,-1.83,1,2
16500.109,0.967,-0.12,0.344,1.04,3.6,-6.38,1,2
16500.125,0.907,-0.151,0.327,4.15,8.15,-8.82,1,2
16500.14,0.884,-0.156,0.326,3.36,9.31,-8.48,1,2
16500.156,0.882,-0.114,0.323,1.56,9.25,-7.69,1,2
16500.156,0.859,-0.121,0.316,-3.05,8.12,-9.58,1,2
16500.156,0.878,-0.138,0.342,-10.65,6.38,-11.6,1,2
16500.171,0.893,-0.113,0.39,-15.41,5.74,-15.5,1,2
16500.187,0.883,-0.132,0.394,-12.18,3.27,-20.26,1,2
16500.203,0.907,-0.118,0.389,-4.36,-0.12,-23.16,1,2
16500.203,0.919,-0.087,0.367,6.1,-1.77,-24.72,1,2
16500.218,0.928,-0.06,0.32,15.84,-2.56,-24.78,1,2
16500.218,0.947,-0.002,0.284,19.84,-1.53,-24.87,1,2
16500.234,0.955,0.034,0.27,19.71,2.53,-24.75,1,2
16500.25,0.945,0.063,0.27,16.21,9.8,-21.76,1,2
16500.25,0.951,0.084,0.291,7.45,17.82,-16.57,1,2
16500.265,0.939,0.082,0.335,-3.81,25.94,-11.02,1,2
16500.281,0.932,0.059,0.398,-13.76,31.68,-6.35,1,2
16500.281,0.932,0.042,0.467,-20.2,33.42,-3.88,1,2
16500.296,0.904,0.003,0.516,-20.63,30.03,-3.88,1,2
16500.312,0.914,-0.042,0.562,-14.74,22.28,-3.39,1,2
16500.312,0.921,-0.058,0.572,-3.17,13.06,-1.8,1,2
16500.328,0.961,-0.072,0.543,7.93,2.47,-0.15,1,2
16500.328,1.0,-0.067,0.514,14.59,-4.88,0.61,1,2
16500.343,1.016,-0.046,0.486,14.98,-7.51,0.37,1,2
16500.359,1.015,-0.034,0.47,9.37,-7.84,-0.55,1,2
16500.359,1.001,-0.033,0.47,1.4,-6.65,-0.49,1,2
16500.375,0.982,-0.034,0.481,-5.25,-5.83,0.46,1,2
16500.39,0.962,-0.052,0.486,-7.81,-5.8,1.34,1,2
16500.39,0.958,-0.072,0.488,-6.47,-6.78,2.01,1,2
16500.406,0.965,-0.063,0.489,-3.91,-8.06,0.95,1,2
16500.421,0.96,-0.059,0.489,-1.28,-9.49,-1.65,1,2
16500.421,0.946,-0.043,0.507,2.81,-10.41,-2.72,1,2
16500.437,0.933,-0.011,0.507,7.57,-12.18,-1.4,1,2
16500.437,0.927,0.01,0.486,9.67,-15.56,2.32,1,2
16500.453,0.929,0.017,0.465,8.12,-19.53,7.72,1,2
16500.468,0.93,0.014,0.441,4.73,-23.56,13.28,1,2
16500.468,0.941,-0.013,0.41,1.07,-27.13,18.52,1,2
16500.484,0.957,-0.031,0.38,-3.91,-28.66,22.58,1,2
16500.5,0.962,-0.057,0.362,-8.33,-27.86,24.54,1,2
16500.5,0.945,-0.099,0.337,-11.44,-25.97,25.15,1,2
16500.515,0.965,-0.119,0.318,-13.58,-23.9,24.23,1,2
16500.531,0.979,-0.142,0.316,-11.87,-18.71,20.51,1,2
16500.531,0.97,-0.146,0.343,-9.98,-13.15,14.95,1,2
16500.546,0.962,-0.146,0.36,-6.78,-9.92,9.06,1,2
16500.562,0.945,-0.138,0.372,-1.92,-7.6,3.97,1,2
16500.562,0.915,-0.119,0.377,3.23,-6.99,0.85,1,2
16500.578,0.899,-0.093,0.377,7.78,-8.79,-0.27,1,2
16500.593,0.895,-0.067,0.363,9.8,-11.96,-0.64,1,2
16500.593,0.892,-0.06,0.344,7.93,-15.5,-0.4,1,2
16500.609,0.895,-0.067,0.331,5.04,-18.28,0.98,1,2
16500.609,0.917,-0.07,0.306,-0.03,-17.98,3.17,1,2
16500.625,0.949,-0.072,0.293,-1.25,-14.65,2.32,1,2
16500.64,0.956,-0.076,0.292,-1.59,-12.18,0.58,1,2
16500.64,0.934,-0.062,0.305,-0.95,-11.38,-0.76,1,2
16500.656,0.929,-0.055,0.303,1.5,-11.2,-1.16,1,2
16500.671,0.93,-0.05,0.302,4.91,-9.95,0.24,1,2
16500.671,0.941,-0.037,0.308,6.99,-7.84,2.69,1,2
16500.687,0.936,-0.038,0.309,7.63,-6.2,5.1,1,2
16500.687,0.948,-0.048,0.319,5.8,-5.55,8.06,1,2
16500.703,0.94,-0.047,0.321,3.69,-4.79,10.16,1,2
16500.718,0.941,-0.056,0.317,1.71,-4.27,11.17,1,2
16500.718,0.94,-0.068,0.318,0.18,-3.69,10.99,1,2
16500.734,0.934,-0.076,0.314,0.24,-2.81,10.38,1,2
16500.75,0.933,-0.076,0.311,0.18,-1.59,10.5,1,2
16500.75,0.943,-0.063,0.308,-0.98,0.58,10.62,1,2
16500.765,0.921,-0.081,0.303,-2.56,2.56,9.49,1,2
16500.781,0.93,-0.106,0.327,-4.39,4.43,10.25,1,2
16500.781,0.924,-0.088,0.34,-2.53,4.64,9.28,1,2
16500.796,0.899,-0.117,0.339,-0.67,3.11,8.39,1,2
16500.796,0.927,-0.118,0.342,0.37,-0.24,8.15,1,2
16500.812,0.937,-0.091,0.333,3.81,-1.98,6.62,1,2
16500.828,0.943,-0.116,0.335,5.52,-1.65,5.86,1,2
16500.828,0.952,-0.072,0.332,6.2,-1.59,4.06,1,2
16500.843,0.928,-0.11,0.329,5.46,-0.79,3.88,1,2
16500.859,0.961,-0.09,0.338,3.27,-0.61,4.03,1,2
16500.859,0.929,-0.104,0.341,2.38,0.95,3.63,1,2
16500.875,0.94,-0.128,0.366,0.03,1.25,3.88,1,2
16500.89,0.914,-0.116,0.372,1.22,-0.09,2.23,1,2
16500.89,0.904,-0.131,0.371,2.78,-3.05,1.19,1,2
16500.906,0.914,-0.118,0.371,3.51,-6.13,0.76,1,2
16500.921,0.905,-0.105,0.348,5.89,-8.09,0.79,1,2
16500.921,0.905,-0.115,0.322,6.01,-10.28,0.92,1,2
16500.937,0.929,-0.125,0.317,4.03,-10.74,1.31,1,2
16500.937,0.931,-0.131,0.302,2.56,-9.4,1.04,1,2
16500.953,0.949,-0.148,0.304,1.43,-6.71,-0.46,1,2
16500.968,0.948,-0.141,0.324,1.83,-2.93,-2.99,1,2
16500.968,0.928,-0.148,0.329,3.72,-0.64,-5.13,1,2
16500.984,0.935,-0.137,0.337,4.85,-0.15,-6.35,1,2
16501.0,0.928,-0.121,0.339,4.49,-0.95,-7.84,1,2
16501.0,0.927,-0.123,0.348,2.32,-2.62,-8.51,1,2
16501.015,0.929,-0.12,0.357,-0.49,-5.13,-9.19,1,2
16501.031,0.924,-0.129,0.361,-1.56,-7.75,-9.89,1,2
16501.031,0.935,-0.13,0.359,-1.25,-10.16,-10.77,1,2
16501.046,0.931,-0.117,0.348,0.18,-11.05,-12.21,1,2
16501.062,0.923,-0.116,0.332,2.11,-11.78,-13.73,1,2
16501.062,0.933,-0.099,0.319,4.18,-12.21,-15.59,1,2
16501.078,0.936,-0.083,0.305,6.32,-11.23,-17.24,1,2
16501.078,0.941,-0.071,0.301,5.98,-9.67,-17.46,1,2
16501.093,0.941,-0.058,0.308,2.62,-8.03,-16.82,1,2
16501.109,0.937,-0.065,0.315,-2.32,-7.51,-15.5,1,2
16501.109,0.943,-0.076,0.326,-7.2,-8.24,-14.04,1,2
16501.125,0.948,-0.081,0.336,-9.4,-9.22,-13.12,1,2
16501.14,0.963,-0.085,0.335,-8.79,-10.83,-13.25,1,2
16501.14,0.989,-0.085,0.324,-6.41,-11.6,-14.19,1,2
16501.156,0.998,-0.077,0.304,-2.66,-11.02,-15.47,1,2
16501.171,1.003,-0.056,0.289,0.49,-9.03,-16.97,1,2
16501.171,0.994,-0.033,0.282,2.75,-5.83,-19.01,1,2
16501.187,0.972,-0.015,0.285,4.61,-2.5,-19.99,1,2
16501.187,0.953,0.015,0.292,5.49,0.34,-19.35,1,2
16501.203,0.939,0.034,0.295,4.58,1.86,-17.18,1,2
16501.218,0.945,0.047,0.301,1.01,1.16,-13.79,1,2
16501.218,0.959,0.051,0.312,-3.42,0.55,-10.25,1,2
16501.234,0.962,0.041,0.322,-7.51,0.73,-6.68,1,2
16501.25,0.965,0.033,0.333,-10.99,1.13,-3.57,1,2
16501.25,0.967,0.012,0.346,-13.28,1.37,-1.98,1,2
16501.265,0.966,-0.004,0.369,-13.61,1.16,-1.19,1,2
16501.281,0.959,-0.011,0.382,-12.12,0.27,-1.31,1,2
16501.281,0.955,-0.018,0.386,-10.32,-0.92,-1.98,1,2
16501.296,0.947,-0.02,0.382,-8.55,-1.46,-2.72,1,2
16501.312,0.947,-0.017,0.375,-7.39,-2.14,-3.3,1,2
16501.312,0.946,-0.021,0.368,-6.68,-2.23,-4.09,1,2
16501.328,0.948,-0.019,0.369,-7.11,-1.31,-4.3,1,2
16501.328,0.941,-0.027,0.368,-8.58,-0.79,-3.94,1,2
16501.343,0.948,-0.047,0.368,-10.93,-1.92,-3.08,1,2
16501.359,0.97,-0.06,0.369,-13.55,-3.6,-2.99,1,2
16501.359,0.979,-0.073,0.367,-14.4,-4.94,-4.67,1,2
16501.375,0.973,-0.086,0.358,-12.57,-6.56,-8.67,1,2
16501.39,0.952,-0.079,0.353,-7.66,-7.9,-13.58,1,2
16501.39,0.944,-0.06,0.325,0.52,-9.46,-17.49,1,2
16501.406,0.938,-0.031,0.304,10.59,-9.77,-19.56,1,2
16501.421,0.939,-0.003,0.282,19.04,-8.82,-17.4,1,2
16501.421,0.946,0.028,0.251,21.33,-8.55,-13.15,1,2
16501.437,0.951,0.039,0.247,15.9,-8.36,-6.93,1,2
16501.437,0.948,0.036,0.241,5.28,-9.67,0.4,1,2
16501.453,0.946,0.017,0.251,-5.46,-11.93,7.54,1,2
16501.468,0.959,-0.007,0.262,-14.56,-15.08,14.07,1,2
16501.468,0.967,-0.037,0.261,-18.95,-17.73,18.13,1,2
16501.484,0.971,-0.06,0.269,-18.52,-18.86,19.01,1,2
16501.5,0.963,-0.078,0.284,-14.22,-19.38,17.94,1,2
16501.5,0.948,-0.086,0.286,-6.71,-18.98,17.43,1,2
16501.515,0.934,-0.076,0.292,-3.39,-20.2,17.76,1,2
16501.531,0.924,-0.077,0.288,-3.63,-24.32,17.7,1,2
16501.531,0.908,-0.082,0.262,-5.55,-29.97,16.6,1,2
16501.546,0.891,-0.097,0.221,-7.72,-35.46,14.92,1,2
16501.562,0.879,-0.117,0.186,-6.78,-38.88,12.88,1,2
16501.562,0.894,-0.125,0.147,-2.23,-39.22,11.93,1,2
16501.578,0.933,-0.121,0.115,2.32,-35.89,12.12,1,2
16501.578,0.976,-0.109,0.096,3.17,-29.11,11.66,1,2
16501.593,0.999,-0.095,0.123,-6.5,-14.5,6.78,1,2
16501.609,0.987,-0.074,0.174,-12.09,-11.6,3.3,1,2
16501.609,0.954,-0.059,0.229,-14.53,-12.21,0.85,1,2
16501.625,0.935,-0.039,0.258,-11.84,-14.01,-1.83,1,2
16501.64,0.945,-0.014,0.271,-6.68,-16.24,-3.42,1,2
16501.64,0.981,0.0,0.251,-3.88,-16.42,-2.84,1,2
16501.656,1.002,0.005,0.233,-3.78,-13.61,-1.43,1,2
16501.671,1.018,-0.007,0.225,-6.32,-9.43,0.49,1,2
16501.671,1.01,-0.026,0.226,-10.59,-5.1,2.26,1,2
16501.687,0.998,-0.056,0.233,-14.04,-2.2,3.48,1,2
16501.703,0.994,-0.078,0.242,-15.38,-0.95,3.81,1,2
16501.703,0.986,-0.098,0.239,-14.37,-0.55,2.62,1,2
16501.718,0.979,-0.111,0.238,-11.96,-0.55,0.76,1,2
16501.718,0.977,-0.112,0.242,-10.28,-1.25,-0.52,1,2
16501.734,0.975,-0.114,0.244,-9.34,-2.59,-1.13,1,2
16501.75,0.962,-0.12,0.241,-8.33,-3.88,-1.16,1,2
16501.75,0.941,-0.114,0.23,-7.39,-5.19,-0.79,1,2
16501.765,0.948,-0.102,0.225,-6.96,-6.47,0.06,1,2
16501.781,0.943,-0.095,0.207,-5.89,-5.98,0.98,1,2
16501.781,0.943,-0.104,0.196,-6.23,-4.55,2.69,1,2
16501.796,0.956,-0.104,0.192,-9.46,-2.96,5.58,1,2
16501.796,0.967,-0.11,0.186,-14.47,-1.53,8.64,1,2
16501.812,0.988,-0.122,0.184,-20.51,-0.4,9.89,1,2
16501.828,1.005,-0.131,0.189,-25.06,1.4,8.36,1,2
16501.843,1.016,-0.141,0.206,-25.79,3.39,4.58,1,2
16501.843,1.031,-0.15,0.218,-20.97,6.56,-0.76,1,2
16501.859,1.05,-0.134,0.238,-12.91,11.51,-6.13,1,2
16501.859,1.047,-0.102,0.258,-5.01,17.4,-10.1,1,2
16501.875,1.015,-0.068,0.268,-1.77,21.03,-12.21,1,2
16501.89,0.979,-0.045,0.271,-5.28,20.97,-12.45,1,2
16501.89,0.938,-0.028,0.278,-12.91,17.94,-10.8,1,2
16501.906,0.93,-0.022,0.287,-20.33,13.09,-7.9,1,2
16501.921,0.92,-0.025,0.279,-23.32,8.88,-4.67,1,2
16501.921,0.918,-0.028,0.272,-23.56,6.01,-1.43,1,2
16501.937,0.923,-0.025,0.267,-23.19,4.3,1.4,1,2
16501.937,0.916,-0.022,0.261,-23.38,3.57,3.57,1,2
16501.953,0.923,-0.037,0.261,-25.09,2.78,5.98,1,2
16501.968,0.943,-0.049,0.255,-26.98,2.75,8.3,1,2
16501.968,0.951,-0.061,0.249,-28.41,2.81,9.16,1,2
16501.984,0.956,-0.082,0.247,-29.88,2.14,8.45,1,2
16502.0,0.964,-0.097,0.248,-30.3,1.1,7.23,1,2
16502.0,0.983,-0.101,0.249,-29.36,-0.55,4.88,1,2
16502.015,0.986,-0.1,0.246,-27.59,-1.8,2.14,1,2
16502.031,0.996,-0.093,0.245,-25.67,-2.81,0.27,1,2
16502.031,0.999,-0.085,0.239,-23.65,-2.87,-0.64,1,2
16502.046,1.002,-0.079,0.235,-23.16,-2.81,-0.95,1,2
16502.062,0.992,-0.075,0.231,-22.77,-2.72,-1.07,1,2
16502.062,0.984,-0.08,0.221,-20.66,-3.36,-0.85,1,2
16502.078,0.99,-0.091,0.207,-17.49,-4.52,-0.34,1,2
16502.078,1.0,-0.1,0.195,-13.21,-5.95,0.31,1,2
16502.093,0.99,-0.108,0.194,-8.03,-8.15,-0.73,1,2
16502.109,0.978,-0.124,0.2,-2.23,-12.05,-4.0,1,2
16502.125,0.971,-0.128,0.201,3.14,-17.03,-9.8,1,2
16502.125,0.959,-0.114,0.182,7.35,-21.18,-17.09,1,2
16502.14,0.933,-0.076,0.158,7.72,-23.5,-22.98,1,2
16502.14,0.923,-0.03,0.148,4.09,-25.3,-25.73,1,2
16502.156,0.916,0.003,0.138,-0.85,-26.49,-25.51,1,2
16502.171,0.928,0.014,0.121,-6.2,-26.09,-21.97,1,2
16502.171,0.943,0.011,0.112,-10.9,-23.74,-16.54,1,2
16502.187,0.954,0.001,0.114,-12.85,-19.93,-10.99,1,2
16502.203,0.959,-0.011,0.114,-12.57,-15.87,-6.04,1,2
16502.203,0.965,-0.031,0.115,-12.21,-12.45,-1.65,1,2
16502.218,0.981,-0.043,0.126,-11.75,-9.0,2.81,1,2
16502.218,0.99,-0.045,0.137,-11.51,-4.91,6.96,1,2
16502.234,0.997,-0.063,0.153,-12.79,-1.19,10.8,1,2
16502.25,1.0,-0.081,0.172,-14.86,1.5,13.67,1,2
16502.265,0.996,-0.101,0.195,-16.33,3.23,15.29,1,2
16502.265,0.988,-0.12,0.213,-16.79,3.11,15.9,1,2
16502.281,0.993,-0.136,0.226,-16.91,1.83,16.24,1,2
16502.281,1.001,-0.147,0.235,-15.59,0.31,15.59,1,2
16502.296,1.003,-0.155,0.237,-12.57,-1.25,14.31,1,2
16502.312,1.011,-0.158,0.239,-9.28,-2.62,11.69,1,2
16502.312,1.006,-0.155,0.225,-5.71,-3.57,8.09,1,2
16502.328,1.001,-0.142,0.211,-3.6,-4.12,4.58,1,2
16502.328,0.991,-0.133,0.202,-3.33,-4.24,1.31,1,2
16502.343,0.984,-0.123,0.196,-5.37,-4.21,-0.49,1,2
16502.359,0.961,-0.124,0.197,-8.55,-4.12,-1.13,1,2
16502.359,0.951,-0.123,0.2,-11.11,-4.55,-0.55,1,2
16502.375,0.948,-0.117,0.21,-13.25,-5.43,0.27,1,2
16502.39,0.942,-0.122,0.214,-14.4,-6.71,0.7,1,2
16502.39,0.95,-0.127,0.213,-14.07,-8.36,0.85,1,2
16502.406,0.957,-0.128,0.204,-11.78,-9.22,0.31,1,2
16502.421,0.963,-0.122,0.191,-9.25,-9.43,-0.67,1,2
16502.421,0.97,-0.114,0.177,-7.9,-8.85,-1.74,1,2
16502.437,0.974,-0.108,0.17,-7.6,-7.42,-2.35,1,2
16502.453,0.973,-0.108,0.168,-6.59,-5.65,-2.62,1,2
16502.453,0.975,-0.098,0.171,-4.73,-4.09,-2.75,1,2
16502.468,0.979,-0.09,0.167,-3.51,-3.39,-3.57,1,2
16502.468,0.989,-0.094,0.178,-3.33,-2.87,-4.06,1,2
16502.484,0.982,-0.094,0.19,-2.53,-2.78,-3.78,1,2
16502.5,0.982,-0.092,0.196,-1.89,-3.91,-3.27,1,2
16502.5,0.982,-0.095,0.2,-0.95,-5.55,-3.17,1,2
16502.515,0.965,-0.093,0.193,0.37,-6.9,-3.54,1,2
16502.531,0.954,-0.091,0.181,0.06,-8.27,-4.58,1,2
16502.531,0.94,-0.085,0.168,-1.04,-9.52,-6.23,1,2
16502.546,0.932,-0.088,0.162,-2.41,-10.5,-7.02,1,2
16502.562,0.934,-0.099,0.161,-2.93,-10.38,-7.54,1,2
16502.562,0.942,-0.109,0.159,-2.08,-9.22,-7.48,1,2
16502.578,0.949,-0.112,0.164,-0.76,-7.87,-7.02,1,2
16502.593,0.947,-0.105,0.163,-0.37,-5.4,-4.36,1,2
16502.593,0.949,-0.1,0.169,-1.01,-5.01,-2.87,1,2
16502.609,0.956,-0.102,0.171,-1.59,-4.91,-1.77,1,2
16502.609,0.984,-0.087,0.156,-3.2,-4.43,-2.08,1,2
16502.625,0.986,-0.094,0.158,-5.34,-3.14,-2.29,1,2
16502.64,0.991,-0.095,0.165,-6.78,-1.68,-1.83,1,2
16502.64,0.993,-0.096,0.171,-7.02,-0.12,-1.19,1,2
16502.656,0.995,-0.104,0.174,-6.93,1.04,-1.68,1,2
16502.671,0.991,-0.112,0.18,-6.35,1.92,-2.75,1,2
16502.671,0.986,-0.114,0.185,-5.31,2.96,-3.88,1,2
16502.687,0.971,-0.112,0.192,-4.49,3.23,-4.55,1,2
16502.687,0.971,-0.112,0.203,-4.12,1.98,-4.79,1,2
16502.703,0.967,-0.103,0.195,-4.0,0.09,-4.46,1,2
16502.718,0.976,-0.093,0.185,-6.74,-2.38,-3.6,1,2
16502.718,0.996,-0.099,0.18,-10.68,-5.1,-3.6,1,2
16502.734,1.007,-0.105,0.173,-11.84,-6.04,-3.27,1,2
16502.75,1.018,-0.09,0.173,-11.14,-5.46,-2.75,1,2
16502.75,1.018,-0.084,0.165,-10.22,-4.64,-3.36,1,2
16502.765,1.005,-0.075,0.161,-10.41,-4.49,-4.61,1,2
16502.781,0.991,-0.07,0.166,-10.68,-4.94,-5.22,1,2
16502.781,0.974,-0.056,0.167,-9.8,-6.16,-5.01,1,2
16502.796,0.968,-0.048,0.153,-9.74,-8.58,-4.33,1,2
16502.812,0.965,-0.054,0.143,-9.61,-10.32,-3.63,1,2
16502.812,0.967,-0.061,0.134,-8.61,-10.56,-2.32,1,2
16502.828,0.979,-0.067,0.124,-7.54,-9.83,-0.79,1,2
16502.828,0.98,-0.074,0.119,-6.74,-8.03,0.34,1,2
16502.843,0.979,-0.082,0.119,-5.86,-6.1,1.59,1,2
16502.859,0.981,-0.088,0.119,-5.55,-4.76,2.78,1,2
16502.875,0.989,-0.094,0.121,-5.71,-3.85,3.17,1,2
16502.875,0.992,-0.103,0.114,-5.13,-3.08,2.41,1,2
16502.89,1.004,-0.1,0.121,-4.3,-1.77,1.46,1,2
16502.89,0.988,-0.099,0.119,-2.87,-1.25,-0.73,1,2
16502.906,0.979,-0.101,0.127,-3.33,-1.65,-1.98,1,2
16502.921,0.98,-0.091,0.131,-4.61,-3.3,-3.23,1,2
16502.921,0.979,-0.115,0.138,-5.46,-3.72,-3.48,1,2
16502.937,0.988,-0.103,0.139,-4.58,-4.55,-3.3,1,2
16502.937,0.984,-0.102,0.125,-3.88,-4.97,-2.84,1,2
16502.953,0.994,-0.1,0.116,-4.58,-4.97,-2.69,1,2
16502.968,0.996,-0.099,0.101,-4.82,-4.46,-2.47,1,2
16502.968,1.004,-0.105,0.099,-5.4,-2.66,-1.86,1,2
16502.984,1.008,-0.102,0.1,-4.79,-0.15,-1.83,1,2
16503.0,1.008,-0.1,0.114,-3.45,2.26,-2.26,1,2
16503.0,0.995,-0.084,0.13,-1.8,3.66,-2.87,1,2
16503.015,0.985,-0.074,0.148,-1.34,2.87,-3.11,1,2
16503.031,0.994,-0.073,0.158,-1.98,0.58,-2.96,1,2
16503.031,0.993,-0.074,0.161,-1.31,-1.07,-2.56,1,2
16503.046,0.983,-0.068,0.156,0.4,-2.26,-1.31,1,2
16503.046,0.995,-0.063,0.145,1.13,-3.66,0.21,1,2
16503.062,1.006,-0.064,0.132,0.7,-4.09,0.64,1,2
16503.078,1.001,-0.074,0.129,0.55,-3.23,0.7,1,2
16503.093,0.993,-0.08,0.134,1.16,-2.08,1.16,1,2
16503.093,0.988,-0.081,0.14,1.71,-1.37,1.65,1,2
16503.109,0.984,-0.089,0.135,1.4,-1.19,2.23,1,2
16503.109,0.987,-0.095,0.13,0.12,-1.46,2.66,1,2
16503.125,0.988,-0.098,0.129,-1.31,-1.46,2.5,1,2
16503.14,0.984,-0.107,0.13,-1.74,-1.04,1.59,1,2
