timestamp,ax,ay,az,gx,gy,gz,orient_label,motion_label
18961.859,0.151,0.966,-0.042,-0.4,-1.25,-1.13,4,4
18961.859,0.15,0.964,-0.04,-0.46,-2.75,-1.37,4,4
18961.875,0.158,0.964,-0.038,-0.46,-4.12,-1.43,4,4
18961.89,0.158,0.965,-0.042,0.24,-4.49,-1.37,4,4
18961.89,0.161,0.96,-0.051,0.21,-5.01,-1.16,4,4
18961.906,0.172,0.957,-0.059,-0.34,-5.04,-1.5,4,4
18961.921,0.178,0.956,-0.069,-0.89,-3.94,-2.2,4,4
18961.921,0.176,0.954,-0.07,-0.7,-2.32,-2.9,4,4
18961.937,0.167,0.951,-0.063,0.49,-0.49,-3.42,4,4
18961.953,0.156,0.951,-0.06,2.38,0.58,-3.81,4,4
18961.953,0.156,0.956,-0.058,4.39,1.19,-4.18,4,4
18961.968,0.164,0.972,-0.049,5.77,1.83,-4.39,4,4
18961.968,0.156,0.981,-0.041,6.84,2.53,-3.81,4,4
18961.984,0.152,0.985,-0.036,5.98,1.74,-2.08,4,4
18962.0,0.152,0.987,-0.037,3.08,-0.03,-0.4,4,4
18962.0,0.157,0.981,-0.044,-0.37,-2.11,0.34,4,4
18962.015,0.173,0.973,-0.044,-3.45,-3.85,0.27,4,4
18962.031,0.171,0.953,-0.05,-2.96,-3.23,-0.58,4,4
18962.046,0.162,0.951,-0.056,-0.64,-2.78,-1.16,4,4
18962.062,0.163,0.958,-0.056,0.82,-2.62,-1.68,4,4
18962.062,0.156,0.963,-0.056,1.37,-2.2,-2.41,4,4
18962.078,0.148,0.961,-0.062,1.59,-2.26,-2.75,4,4
18962.078,0.156,0.968,-0.066,1.59,-3.02,-2.93,4,4
18962.093,0.163,0.98,-0.068,2.04,-2.69,-3.27,4,4
18962.109,0.156,0.987,-0.075,3.08,-1.43,-3.3,4,4
18962.109,0.149,0.99,-0.084,3.66,0.03,-2.5,4,4
18962.125,0.14,0.993,-0.089,3.75,1.28,-1.46,4,4
18962.14,0.125,0.994,-0.097,3.42,2.35,-0.34,4,4
18962.156,0.116,0.994,-0.106,2.38,2.32,1.07,4,4
18962.156,0.105,0.997,-0.118,1.74,1.56,2.04,4,4
18962.156,0.105,1.002,-0.134,2.11,0.76,2.59,4,4
18962.171,0.106,1.013,-0.148,4.18,1.13,3.72,4,4
18962.187,0.096,1.034,-0.169,8.06,3.14,5.31,4,4
18962.203,0.077,1.066,-0.216,14.77,9.06,8.97,4,4
18962.218,0.085,1.082,-0.231,15.66,13.09,11.41,4,4
18962.218,0.087,1.096,-0.233,15.99,18.62,13.34,4,4
18962.234,0.074,1.1,-0.238,17.52,24.69,15.14,4,4
18962.25,0.066,1.108,-0.239,20.05,30.0,17.67,4,4
18962.265,0.05,1.12,-0.234,23.22,35.4,20.63,4,4
18962.265,0.024,1.119,-0.242,26.73,40.31,23.65,4,4
18962.281,0.011,1.117,-0.251,29.36,44.1,27.19,4,4
18962.281,0.008,1.113,-0.263,31.59,48.19,30.55,4,4
18962.296,-0.0,1.104,-0.278,34.12,53.74,33.42,4,4
18962.312,-0.017,1.088,-0.289,37.63,60.95,35.52,4,4
18962.312,-0.021,1.055,-0.3,43.18,68.88,37.14,4,4
18962.328,-0.012,1.034,-0.302,48.43,78.34,39.06,4,4
18962.343,-0.018,1.022,-0.312,52.55,90.21,42.02,4,4
18962.343,-0.046,1.015,-0.319,53.53,102.82,46.91,4,4
18962.359,-0.073,1.028,-0.293,49.41,113.56,53.62,4,4
18962.375,-0.146,1.052,-0.18,38.15,126.65,70.35,4,4
18962.39,-0.164,1.036,-0.141,32.93,129.03,82.43,4,4
18962.39,-0.162,1.029,-0.105,25.88,130.5,96.22,4,4
18962.406,-0.159,1.011,-0.081,18.34,130.62,109.78,4,4
18962.421,-0.155,0.984,-0.066,10.07,129.98,122.29,4,4
18962.421,-0.138,0.947,-0.063,0.67,129.52,133.79,4,4
18962.437,-0.13,0.905,-0.069,-8.06,132.48,144.29,4,4
18962.453,-0.12,0.847,-0.083,-14.65,138.52,153.63,4,4
18962.453,-0.106,0.782,-0.087,-18.98,146.61,161.38,4,4
18962.468,-0.098,0.72,-0.083,-18.25,167.09,170.35,4,4
18962.468,-0.098,0.68,-0.072,-14.95,177.37,171.09,4,4
18962.484,-0.093,0.633,-0.054,-9.89,187.54,166.94,4,4
18962.5,-0.101,0.594,-0.016,-2.66,194.68,158.82,4,4
18962.5,-0.094,0.536,0.026,3.36,200.6,157.75,4,4
18962.515,-0.065,0.537,0.017,8.64,208.72,150.21,4,4
18962.531,-0.009,0.525,0.016,10.96,216.25,140.39,4,4
18962.546,0.043,0.509,0.03,12.51,228.46,129.25,4,4
18962.546,0.073,0.51,0.063,15.84,242.71,116.25,4,4
18962.562,0.096,0.507,0.107,22.8,255.78,102.73,4,4
18962.562,0.111,0.52,0.157,34.55,268.5,89.63,4,4
18962.578,0.12,0.528,0.187,51.61,279.85,78.28,4,4
18962.578,0.151,0.535,0.194,70.13,288.89,71.63,4,4
18962.593,0.159,0.577,0.234,85.51,298.1,68.61,4,4
18962.609,0.142,0.602,0.242,98.51,307.14,66.41,4,4
18962.609,0.121,0.628,0.24,102.42,312.94,64.33,4,4
18962.625,0.079,0.645,0.268,97.17,316.26,59.48,4,4
18962.64,0.061,0.641,0.305,86.34,312.88,51.7,4,4
18962.64,0.077,0.636,0.34,72.15,303.96,43.64,4,4
18962.656,0.074,0.635,0.379,57.59,294.29,36.44,4,4
18962.671,0.076,0.616,0.397,47.52,284.49,29.79,4,4
18962.671,0.107,0.592,0.403,41.66,274.67,24.48,4,4
18962.687,0.135,0.567,0.409,39.74,268.62,20.51,4,4
18962.703,0.219,0.523,0.432,46.02,265.54,16.97,4,4
18962.718,0.18,0.515,0.45,52.13,268.5,16.27,4,4
18962.734,0.141,0.484,0.452,59.63,269.14,13.58,4,4
18962.734,0.15,0.473,0.463,65.16,266.79,9.77,4,4
18962.75,0.129,0.474,0.479,69.46,266.34,4.49,4,4
18962.75,0.104,0.483,0.513,73.95,265.85,-3.39,4,4
18962.765,0.126,0.5,0.557,80.45,263.41,-14.1,4,4
18962.781,0.171,0.493,0.61,91.04,260.14,-26.83,4,4
18962.781,0.17,0.469,0.665,107.85,258.16,-39.0,4,4
18962.796,0.077,0.463,0.691,129.18,254.92,-50.2,4,4
18962.812,-0.027,0.468,0.692,150.49,244.82,-62.47,4,4
18962.812,-0.066,0.45,0.672,167.97,226.51,-76.69,4,4
18962.828,-0.066,0.436,0.626,180.73,205.54,-91.74,4,4
18962.843,-0.044,0.475,0.594,187.75,186.99,-103.89,4,4
18962.843,-0.016,0.535,0.569,189.4,172.15,-111.88,4,4
18962.859,0.022,0.603,0.553,185.52,159.37,-117.28,4,4
18962.875,-0.065,0.821,0.567,173.47,138.43,-128.7,4,4
18962.89,-0.188,0.952,0.566,172.19,122.1,-135.07,4,4
18962.89,-0.276,1.062,0.525,172.06,101.26,-139.13,4,4
18962.906,-0.287,1.145,0.468,166.63,78.31,-137.91,4,4
18962.921,-0.261,1.241,0.41,155.55,59.66,-132.88,4,4
18962.921,-0.211,1.357,0.353,137.03,47.27,-124.58,4,4
18962.937,-0.152,1.457,0.303,107.73,42.27,-112.49,4,4
18962.953,-0.123,1.536,0.286,69.12,43.95,-100.59,4,4
18962.953,-0.119,1.562,0.291,25.61,51.94,-86.34,4,4
18962.968,-0.12,1.58,0.315,-20.69,64.91,-66.23,4,4
18962.984,-0.126,1.557,0.363,-66.23,77.33,-43.15,4,4
18962.984,-0.145,1.491,0.426,-107.64,88.26,-19.32,4,4
18963.0,-0.158,1.422,0.498,-141.58,97.48,2.2,4,4
18963.0,-0.136,1.319,0.558,-163.55,101.54,19.38,4,4
18963.015,-0.114,1.209,0.627,-173.13,102.51,34.39,4,4
18963.031,-0.11,1.16,0.711,-171.51,103.24,46.05,4,4
18963.031,-0.122,1.123,0.784,-160.07,100.62,53.07,4,4
18963.046,-0.159,1.089,0.841,-145.6,94.67,57.56,4,4
18963.062,-0.201,1.05,0.872,-135.07,85.48,60.82,4,4
18963.062,-0.222,0.997,0.892,-132.97,72.36,65.03,4,4
18963.078,-0.209,0.952,0.889,-140.02,57.59,70.38,4,4
18963.093,-0.173,0.928,0.879,-156.32,42.73,72.91,4,4
18963.093,-0.126,0.905,0.897,-174.05,29.48,70.47,4,4
18963.109,-0.093,0.859,0.929,-183.17,20.2,66.1,4,4
18963.109,-0.097,0.82,0.965,-178.84,13.7,63.91,4,4
18963.125,-0.126,0.789,1.003,-161.11,10.44,64.82,4,4
18963.14,-0.173,0.769,1.019,-137.97,7.57,67.32,4,4
18963.14,-0.208,0.776,0.994,-122.2,1.59,68.79,4,4
18963.156,-0.213,0.803,0.937,-120.67,-6.68,69.46,4,4
18963.171,-0.194,0.795,0.869,-128.94,-12.94,72.73,4,4
18963.171,-0.147,0.785,0.827,-139.87,-13.82,80.17,4,4
18963.187,-0.103,0.784,0.835,-146.0,-8.21,89.21,4,4
18963.203,-0.148,0.734,1.015,-129.09,7.69,102.42,4,4
18963.218,-0.179,0.696,1.098,-108.98,8.58,105.44,4,4
18963.234,-0.206,0.664,1.143,-92.44,3.94,104.04,4,4
18963.234,-0.228,0.633,1.167,-82.89,-6.44,98.51,4,4
18963.25,-0.22,0.618,1.155,-77.76,-19.53,92.17,4,4
18963.25,-0.19,0.595,1.11,-72.21,-30.92,87.95,4,4
18963.265,-0.155,0.581,1.068,-63.91,-36.04,86.83,4,4
18963.281,-0.125,0.592,1.06,-52.95,-34.24,87.22,4,4
18963.281,-0.129,0.593,1.047,-40.47,-27.8,86.76,4,4
18963.296,-0.152,0.575,1.026,-30.06,-20.63,84.87,4,4
18963.312,-0.176,0.547,1.021,-20.94,-15.02,81.79,4,4
18963.312,-0.192,0.512,0.993,-10.22,-12.36,77.3,4,4
18963.328,-0.203,0.504,0.956,-0.37,-12.73,71.26,4,4
18963.328,-0.18,0.492,0.913,6.32,-15.87,63.45,4,4
18963.343,-0.123,0.487,0.872,9.31,-19.35,54.63,4,4
18963.359,-0.067,0.491,0.826,11.99,-19.62,45.66,4,4
18963.375,-0.027,0.514,0.835,17.4,-16.3,37.54,4,4
18963.375,-0.012,0.54,0.874,30.3,-12.42,30.64,4,4
18963.39,0.011,0.574,0.875,47.06,-10.68,26.61,4,4
18963.39,0.036,0.648,0.86,58.78,-9.89,25.21,4,4
18963.406,0.047,0.718,0.845,62.23,-9.46,24.69,4,4
18963.421,0.073,0.767,0.827,51.09,-10.96,23.07,4,4
18963.421,0.11,0.782,0.823,28.14,-13.25,19.04,4,4
18963.437,0.146,0.75,0.818,4.82,-14.44,14.28,4,4
18963.453,0.162,0.711,0.826,-13.46,-12.12,12.42,4,4
18963.453,0.161,0.68,0.832,-9.89,-11.2,14.53,4,4
18963.468,0.172,0.66,0.819,-5.77,-9.22,15.59,4,4
18963.468,0.183,0.641,0.797,-4.06,-6.07,14.04,4,4
18963.484,0.192,0.609,0.746,-5.13,-2.87,9.98,4,4
18963.5,0.197,0.593,0.744,-6.81,0.82,4.39,4,4
18963.515,0.189,0.581,0.759,-7.14,4.91,-1.34,4,4
18963.515,0.158,0.591,0.792,-5.62,7.66,-5.98,4,4
18963.531,0.102,0.649,0.864,-5.62,5.58,-7.42,4,4
18963.531,0.11,0.688,0.903,-6.65,-1.77,-3.97,4,4
18963.546,0.14,0.671,0.865,-5.16,-9.89,1.34,4,4
18963.562,0.187,0.651,0.807,-4.27,-14.56,6.32,4,4
18963.562,0.239,0.644,0.759,-4.21,-14.5,8.82,4,4
18963.578,0.243,0.639,0.736,-5.4,-10.65,7.23,4,4
18963.578,0.221,0.643,0.743,-7.97,-7.2,4.36,4,4
18963.593,0.214,0.648,0.753,-9.43,-5.89,3.39,4,4
18963.609,0.216,0.655,0.76,-8.94,-5.34,3.54,4,4
18963.609,0.21,0.656,0.754,-6.74,-4.61,4.3,4,4
18963.625,0.214,0.641,0.746,-4.06,-3.88,4.67,4,4
18963.64,0.216,0.618,0.736,-0.89,-2.87,3.72,4,4
18963.656,0.209,0.596,0.734,1.34,-0.31,1.62,4,4
18963.656,0.186,0.595,0.757,1.65,2.38,-0.7,4,4
18963.671,0.194,0.592,0.768,1.43,3.2,-2.32,4,4
18963.671,0.211,0.52,0.75,3.39,4.94,-6.53,4,4
18963.687,0.057,0.671,0.826,-2.87,3.14,-10.47,4,4
18963.703,0.164,0.753,0.887,-9.06,-6.41,0.09,4,4
18963.718,0.194,0.631,0.744,-0.58,-9.4,5.4,4,4
18963.718,0.154,0.649,0.774,3.88,-6.56,6.32,4,4
18963.734,0.093,0.615,0.769,11.99,-6.9,9.0,4,4
18963.75,0.072,0.601,0.781,13.58,-12.45,13.55,4,4
18963.75,0.08,0.589,0.792,14.31,-20.63,18.25,4,4
18963.765,0.112,0.575,0.785,15.08,-29.66,22.16,4,4
18963.781,0.145,0.652,0.789,9.98,-37.39,24.54,4,4
18963.781,0.256,0.736,0.705,2.11,-41.57,28.81,4,4
18963.796,0.369,0.55,0.69,-0.92,-36.71,26.64,4,4
18963.812,0.287,0.631,0.758,-11.78,-29.45,16.3,4,4
18963.812,0.29,0.624,0.733,0.64,-23.74,17.88,4,4
18963.828,0.292,0.555,0.697,14.98,-18.77,18.56,4,4
18963.843,0.307,0.595,0.674,17.79,-11.87,17.49,4,4
18963.843,0.302,0.584,0.65,23.77,-4.18,16.45,4,4
18963.859,0.276,0.566,0.64,26.34,2.81,14.4,4,4
18963.859,0.252,0.601,0.664,22.03,6.78,11.87,4,4
18963.89,0.255,0.652,0.752,5.31,5.01,5.71,4,4
18963.89,0.255,0.644,0.759,-1.83,1.92,1.68,4,4
18963.906,0.25,0.636,0.76,-5.31,-0.64,-0.55,4,4
18963.921,0.249,0.633,0.759,-3.51,-2.32,-0.79,4,4
18963.921,0.241,0.627,0.736,-0.09,-3.33,0.49,4,4
18963.937,0.241,0.625,0.724,1.46,-3.36,2.47,4,4
18963.937,0.24,0.624,0.721,2.38,-2.87,4.09,4,4
18963.953,0.248,0.623,0.71,2.17,-2.87,4.61,4,4
18963.968,0.251,0.623,0.703,0.12,-2.59,3.48,4,4
18963.968,0.249,0.619,0.708,-2.2,-2.47,1.86,4,4
18963.984,0.251,0.619,0.718,-3.72,-2.78,0.46,4,4
18964.0,0.268,0.618,0.72,-4.0,-3.33,-0.24,4,4
18964.0,0.28,0.609,0.71,-3.63,-2.75,-1.16,4,4
18964.015,0.272,0.593,0.698,-3.14,-0.98,-2.9,4,4
18964.031,0.283,0.583,0.698,-4.06,0.64,-5.07,4,4
18964.031,0.294,0.559,0.692,-3.78,3.27,-9.06,4,4
18964.062,0.32,0.535,0.668,-1.98,12.54,-19.96,4,4
18964.062,0.327,0.496,0.619,-1.5,21.55,-28.38,4,4
18964.078,0.252,0.536,0.657,-7.23,29.76,-37.23,4,4
18964.078,0.238,0.666,0.729,-21.3,31.62,-40.99,4,4
18964.093,0.175,0.617,0.806,-18.98,31.83,-40.53,4,4
18964.109,-0.013,0.904,0.975,-23.19,21.42,-34.85,4,4
18964.109,0.067,0.957,0.96,-15.38,3.39,-12.02,4,4
18964.125,0.135,0.713,0.783,1.8,-7.75,4.91,4,4
18964.14,0.177,0.585,0.71,1.34,-9.46,9.95,4,4
18964.14,0.171,0.546,0.684,4.21,-6.47,10.1,4,4
18964.156,0.172,0.565,0.726,5.68,-5.07,10.65,4,4
18964.171,0.192,0.603,0.793,3.91,-6.96,10.93,4,4
18964.171,0.195,0.619,0.843,5.4,-10.93,10.35,4,4
18964.187,0.191,0.626,0.868,11.32,-16.79,10.32,4,4
18964.203,0.174,0.643,0.86,15.59,-24.35,10.71,4,4
18964.203,0.15,0.654,0.855,17.24,-32.96,12.15,4,4
18964.218,0.233,0.544,0.655,21.39,-39.03,16.14,4,4
18964.234,0.207,0.619,0.674,10.38,-36.53,13.31,4,4
18964.25,0.272,0.597,0.699,1.04,-37.05,11.32,4,4
18964.25,0.29,0.566,0.648,6.59,-33.14,10.74,4,4
18964.265,0.323,0.587,0.628,8.33,-26.64,9.25,4,4
18964.281,0.329,0.611,0.641,9.06,-18.49,6.84,4,4
18964.281,0.313,0.598,0.648,11.66,-12.21,4.82,4,4
18964.296,0.32,0.618,0.647,11.38,-8.45,3.88,4,4
18964.312,0.323,0.622,0.638,9.95,-4.73,2.32,4,4
18964.312,0.325,0.601,0.638,7.48,-1.1,-1.1,4,4
18964.328,0.326,0.589,0.631,4.7,2.99,-6.16,4,4
18964.328,0.345,0.57,0.616,3.23,7.97,-12.36,4,4
18964.343,0.354,0.553,0.607,3.66,15.32,-19.87,4,4
18964.359,0.357,0.53,0.586,4.49,24.54,-28.14,4,4
18964.359,0.364,0.516,0.565,5.65,36.16,-36.38,4,4
18964.375,0.249,0.574,0.655,1.62,47.03,-44.95,4,4
18964.39,0.103,0.725,0.898,-19.35,36.44,-44.8,4,4
18964.406,-0.054,0.942,1.005,-22.06,17.67,-35.49,4,4
18964.421,0.11,0.886,0.919,-10.68,-4.33,-10.65,4,4
18964.421,0.16,0.649,0.696,2.5,-10.83,1.5,4,4
18964.437,0.167,0.601,0.654,0.43,-2.78,5.62,4,4
18964.453,0.148,0.593,0.679,0.37,-2.11,8.21,4,4
18964.453,0.135,0.638,0.757,-0.03,-6.29,12.76,4,4
18964.468,0.189,0.641,0.823,6.44,-11.38,16.63,4,4
18964.468,0.185,0.647,0.806,12.7,-16.14,17.55,4,4
18964.484,0.193,0.656,0.789,14.68,-21.79,17.52,4,4
18964.5,0.194,0.651,0.76,13.95,-27.19,17.64,4,4
18964.515,0.222,0.695,0.706,8.3,-32.2,19.14,4,4
18964.515,0.314,0.555,0.592,10.74,-29.79,20.23,4,4
18964.531,0.269,0.589,0.607,8.76,-20.72,16.14,4,4
18964.531,0.287,0.654,0.664,0.7,-16.02,14.37,4,4
18964.546,0.295,0.596,0.676,-0.12,-13.18,11.51,4,4
18964.562,0.299,0.642,0.694,6.5,-7.97,9.86,4,4
18964.578,0.275,0.645,0.698,7.26,-6.29,8.55,4,4
18964.593,0.269,0.635,0.693,4.97,-6.93,7.42,4,4
18964.593,0.276,0.629,0.676,1.98,-7.6,5.16,4,4
18964.609,0.282,0.626,0.677,0.18,-6.74,2.62,4,4
18964.625,0.284,0.622,0.676,-0.34,-5.37,0.89,4,4
18964.625,0.291,0.617,0.655,0.15,-3.36,-0.61,4,4
18964.64,0.299,0.603,0.638,0.89,0.21,-2.41,4,4
18964.64,0.297,0.607,0.641,1.13,4.76,-5.07,4,4
18964.656,0.285,0.63,0.667,0.37,8.7,-7.66,4,4
18964.671,0.268,0.649,0.71,-0.92,10.47,-9.19,4,4
18964.671,0.233,0.678,0.776,-0.31,9.67,-9.0,4,4
18964.687,0.201,0.694,0.804,2.44,4.55,-6.71,4,4
18964.703,0.187,0.71,0.812,2.44,-3.33,-3.02,4,4
18964.703,0.198,0.695,0.784,1.28,-11.14,0.34,4,4
18964.718,0.22,0.667,0.739,0.06,-16.54,3.33,4,4
18964.734,0.262,0.622,0.656,-2.93,-17.52,7.14,4,4
18964.75,0.286,0.596,0.628,-2.87,-13.61,6.1,4,4
18964.75,0.312,0.583,0.606,-2.04,-8.09,3.91,4,4
18964.765,0.332,0.595,0.616,-2.41,-1.1,1.34,4,4
18964.781,0.329,0.604,0.638,-2.53,5.58,-2.2,4,4
18964.781,0.321,0.61,0.67,-1.62,10.16,-6.04,4,4
18964.796,0.29,0.628,0.716,1.4,12.42,-8.97,4,4
18964.812,0.255,0.644,0.746,4.52,11.14,-10.35,4,4
18964.812,0.233,0.663,0.765,4.88,7.02,-10.8,4,4
18964.828,0.216,0.671,0.762,3.33,1.89,-11.47,4,4
18964.828,0.214,0.668,0.747,1.53,-3.2,-11.08,4,4
18964.843,0.23,0.662,0.717,0.31,-6.44,-8.97,4,4
18964.859,0.25,0.65,0.686,-0.49,-6.84,-6.74,4,4
18964.859,0.259,0.637,0.657,-1.1,-4.61,-5.52,4,4
18964.875,0.272,0.627,0.636,-1.46,-0.82,-5.34,4,4
18964.89,0.289,0.623,0.635,-2.26,3.42,-5.98,4,4
18964.89,0.287,0.636,0.64,-3.85,8.33,-7.39,4,4
18964.906,0.266,0.65,0.666,-5.68,12.6,-8.39,4,4
18964.921,0.24,0.667,0.724,-6.68,14.04,-8.58,4,4
18964.921,0.217,0.679,0.769,-6.59,11.9,-8.3,4,4
18964.937,0.192,0.688,0.784,-6.53,7.29,-7.45,4,4
18964.953,0.186,0.68,0.776,-5.95,1.56,-5.77,4,4
18964.953,0.199,0.664,0.754,-4.58,-3.72,-3.51,4,4
18964.968,0.217,0.654,0.728,-2.99,-6.5,-1.37,4,4
18964.968,0.231,0.655,0.714,-1.77,-6.78,0.21,4,4
18964.984,0.236,0.657,0.714,-0.43,-5.65,1.46,4,4
18965.0,0.243,0.669,0.73,0.58,-4.12,2.72,4,4
18965.0,0.245,0.675,0.751,1.68,-3.05,3.63,4,4
18965.015,0.243,0.684,0.771,4.61,-2.66,4.7,4,4
18965.031,0.232,0.701,0.803,9.43,-2.62,6.65,4,4
18965.031,0.219,0.713,0.835,14.5,-4.09,8.82,4,4
18965.046,0.234,0.73,0.857,18.89,-6.81,11.6,4,4
18965.062,0.252,0.746,0.865,22.1,-9.28,12.73,4,4
18965.062,0.258,0.747,0.864,24.51,-10.5,10.83,4,4
18965.078,0.261,0.742,0.852,26.46,-10.9,7.78,4,4
18965.078,0.271,0.735,0.844,27.77,-9.55,1.34,4,4
18965.093,0.24,0.787,0.896,31.77,-7.35,-12.54,4,4
18965.109,0.186,0.775,0.898,41.47,-7.75,-22.61,4,4
18965.125,0.152,0.786,0.891,52.64,-10.32,-24.99,4,4
18965.125,0.158,0.839,0.883,61.04,-14.68,-22.25,4,4
18965.14,0.173,0.853,0.847,65.61,-18.34,-19.1,4,4
18965.14,0.203,0.862,0.822,65.16,-19.99,-16.36,4,4
18965.156,0.216,0.869,0.805,61.98,-19.1,-15.93,4,4
18965.156,0.213,0.864,0.799,57.53,-17.49,-17.24,4,4
18965.171,0.205,0.845,0.794,52.89,-16.82,-19.53,4,4
18965.187,0.201,0.816,0.784,50.87,-17.09,-22.8,4,4
18965.203,0.205,0.79,0.768,53.01,-17.46,-27.1,4,4
18965.203,0.201,0.767,0.749,58.81,-17.21,-32.87,4,4
18965.218,0.195,0.749,0.725,66.68,-16.66,-39.28,4,4
18965.218,0.19,0.752,0.706,75.14,-16.05,-46.21,4,4
18965.234,0.174,0.76,0.698,84.08,-15.32,-53.59,4,4
18965.25,0.146,0.759,0.689,93.23,-15.9,-60.18,4,4
18965.25,0.125,0.758,0.668,102.69,-18.43,-64.82,4,4
18965.265,0.104,0.791,0.645,110.87,-21.64,-67.51,4,4
18965.281,0.094,0.827,0.605,114.17,-26.31,-68.51,4,4
18965.281,0.101,0.854,0.561,110.9,-31.71,-68.3,4,4
18965.296,0.105,0.871,0.532,103.98,-35.83,-68.3,4,4
18965.312,0.117,0.87,0.499,96.16,-39.61,-68.36,4,4
18965.312,0.132,0.861,0.463,90.03,-41.44,-68.54,4,4
18965.328,0.132,0.842,0.428,87.19,-41.2,-69.73,4,4
18965.343,0.125,0.81,0.394,87.47,-39.49,-71.47,4,4
18965.343,0.111,0.783,0.369,90.09,-37.11,-73.43,4,4
18965.359,0.101,0.763,0.349,95.19,-34.73,-76.36,4,4
18965.359,0.092,0.772,0.324,101.57,-32.44,-79.5,4,4
18965.375,0.071,0.806,0.304,105.78,-29.54,-81.39,4,4
18965.39,0.06,0.821,0.308,107.27,-27.86,-80.87,4,4
18965.39,0.057,0.864,0.309,109.81,-28.17,-79.47,4,4
18965.421,0.029,0.954,0.259,92.65,-33.36,-59.63,4,4
18965.421,0.032,0.99,0.239,77.36,-36.5,-51.85,4,4
18965.437,0.035,0.987,0.21,60.82,-38.39,-44.31,4,4
18965.453,0.048,0.975,0.188,46.05,-38.0,-37.63,4,4
18965.453,0.092,0.94,0.158,35.13,-34.73,-32.69,4,4
18965.468,0.103,0.912,0.157,28.93,-29.85,-29.54,4,4
18965.484,0.107,0.886,0.163,27.74,-23.96,-27.41,4,4
18965.484,0.099,0.871,0.174,30.82,-18.07,-26.8,4,4
18965.5,0.091,0.849,0.177,36.16,-13.95,-27.77,4,4
18965.515,0.077,0.841,0.181,41.23,-12.09,-29.73,4,4
18965.515,0.058,0.857,0.181,45.87,-11.84,-32.07,4,4
18965.531,0.039,0.871,0.172,49.53,-13.55,-33.39,4,4
18965.531,0.033,0.886,0.153,50.66,-17.24,-32.69,4,4
18965.546,0.039,0.92,0.13,49.29,-20.57,-31.4,4,4
18965.562,0.044,0.932,0.102,46.36,-22.16,-29.94,4,4
18965.562,0.045,0.928,0.085,41.38,-22.46,-27.86,4,4
18965.578,0.05,0.931,0.069,36.32,-21.52,-24.87,4,4
18965.593,0.055,0.929,0.052,32.23,-19.23,-21.7,4,4
18965.593,0.055,0.913,0.044,28.63,-15.63,-18.13,4,4
18965.609,0.054,0.901,0.033,24.96,-11.44,-14.74,4,4
18965.609,0.054,0.897,0.027,21.15,-7.51,-11.66,4,4
18965.625,0.051,0.885,0.028,17.64,-3.81,-9.31,4,4
18965.64,0.043,0.875,0.033,14.98,-0.73,-7.45,4,4
18965.64,0.03,0.871,0.04,13.37,1.1,-5.77,4,4
18965.656,0.017,0.871,0.051,12.21,0.7,-3.54,4,4
18965.671,0.018,0.883,0.062,10.44,-1.19,-1.28,4,4
18965.671,0.012,0.899,0.072,8.82,-3.54,-0.55,4,4
18965.687,0.005,0.906,0.073,7.08,-7.02,-0.61,4,4
18965.703,0.012,0.918,0.071,4.12,-11.57,0.37,4,4
18965.703,0.028,0.933,0.066,1.8,-15.08,1.43,4,4
18965.718,0.04,0.926,0.052,0.98,-17.27,2.23,4,4
18965.734,0.043,0.926,0.044,1.04,-18.22,2.56,4,4
18965.734,0.04,0.931,0.044,1.95,-18.74,2.17,4,4
18965.75,0.034,0.93,0.038,3.23,-19.71,1.68,4,4
18965.75,0.023,0.935,0.042,3.36,-21.73,1.68,4,4
18965.765,0.012,0.946,0.056,2.66,-25.7,2.08,4,4
18965.781,0.004,0.958,0.059,2.01,-31.62,2.26,4,4
18965.781,0.013,0.965,0.049,1.1,-38.73,2.99,4,4
18965.796,0.034,0.974,0.048,-0.64,-45.17,4.39,4,4
18965.812,0.064,0.971,0.045,-1.13,-48.83,5.52,4,4
18965.812,0.096,0.964,0.017,-0.06,-49.47,5.37,4,4
18965.828,0.116,0.956,-0.007,1.01,-45.9,4.76,4,4
18965.843,0.127,0.945,-0.015,3.11,-39.52,3.36,4,4
18965.843,0.137,0.936,-0.015,6.78,-31.34,0.89,4,4
18965.859,0.131,0.939,-0.015,11.6,-21.3,-2.32,4,4
18965.875,0.099,0.949,-0.011,16.08,-11.63,-5.65,4,4
18965.875,0.061,0.96,0.01,18.92,-5.22,-7.97,4,4
18965.89,0.029,0.981,0.031,19.99,-1.95,-8.94,4,4
18965.89,-0.005,1.001,0.048,20.48,-1.8,-8.58,4,4
18965.906,-0.024,1.01,0.051,19.93,-4.24,-6.84,4,4
18965.921,-0.022,1.024,0.04,15.26,-10.44,-0.79,4,4
18965.937,-0.013,1.022,0.026,12.48,-11.57,2.26,4,4
18965.953,0.001,1.017,0.013,9.8,-11.02,4.91,4,4
18965.953,0.007,1.003,0.007,7.84,-8.55,6.53,4,4
18965.968,0.008,0.982,0.002,6.96,-5.04,7.72,4,4
18965.984,0.009,0.967,-0.001,6.78,-1.4,8.85,4,4
18965.984,0.011,0.956,0.0,7.45,2.59,8.97,4,4
18966.0,0.006,0.944,-0.001,8.27,6.59,8.12,4,4
18966.0,0.001,0.933,-0.001,8.7,10.25,7.23,4,4
18966.015,-0.002,0.933,0.009,8.0,13.25,6.53,4,4
18966.031,-0.021,0.946,0.032,7.84,15.41,5.68,4,4
18966.031,-0.043,0.957,0.052,7.93,15.41,5.4,4,4
18966.046,-0.041,0.963,0.053,6.23,12.6,6.35,4,4
18966.062,-0.029,0.968,0.052,3.88,10.25,7.72,4,4
18966.062,-0.015,0.958,0.051,2.56,9.55,8.15,4,4
18966.078,-0.003,0.945,0.043,2.17,10.19,8.61,4,4
18966.093,0.015,0.928,0.037,0.52,15.14,9.67,4,4
18966.109,0.02,0.922,0.042,-1.07,18.07,9.16,4,4
18966.109,0.016,0.91,0.045,-2.44,20.66,8.15,4,4
18966.125,0.015,0.9,0.053,-3.66,22.25,7.45,4,4
18966.14,0.017,0.899,0.061,-4.61,23.07,6.68,4,4
18966.14,0.019,0.904,0.07,-5.04,23.56,4.7,4,4
18966.156,0.01,0.902,0.081,-4.64,23.77,2.23,4,4
18966.171,0.0,0.902,0.09,-4.09,22.77,0.52,4,4
18966.171,-0.0,0.914,0.095,-3.23,20.69,-0.89,4,4
18966.187,0.003,0.937,0.101,-2.04,18.46,-3.05,4,4
18966.203,-0.002,0.95,0.104,-0.64,16.27,-5.1,4,4
18966.203,-0.002,0.96,0.1,0.61,13.64,-5.71,4,4
18966.218,0.005,0.981,0.098,2.01,11.41,-5.77,4,4
18966.218,0.012,0.994,0.089,3.45,9.98,-5.65,4,4
18966.234,0.02,0.998,0.08,4.39,9.64,-5.37,4,4
18966.25,0.02,1.008,0.072,4.46,9.67,-4.82,4,4
18966.265,0.022,1.013,0.058,1.95,9.4,-2.38,4,4
18966.281,0.021,1.008,0.056,0.64,9.34,-0.79,4,4
18966.281,0.023,1.001,0.052,-0.34,8.94,0.18,4,4
18966.296,0.028,0.999,0.047,-0.85,8.06,1.07,4,4
18966.296,0.035,0.998,0.042,-0.34,7.2,1.65,4,4
18966.312,0.036,0.999,0.036,1.31,7.08,1.59,4,4
18966.328,0.037,1.001,0.029,3.48,6.65,1.31,4,4
18966.328,0.038,1.011,0.021,5.22,6.13,0.92,4,4
18966.343,0.034,1.021,0.014,7.23,6.13,0.21,4,4
18966.359,0.035,1.021,0.008,9.31,5.74,0.09,4,4
18966.375,0.037,1.029,0.002,11.69,5.1,-0.21,4,4
18966.375,0.036,1.045,-0.01,13.86,5.34,-0.37,4,4
18966.39,0.031,1.052,-0.015,15.08,5.89,0.31,4,4
18966.39,0.026,1.058,-0.016,15.56,6.13,1.89,4,4
18966.406,0.029,1.06,-0.021,15.72,6.29,7.11,4,4
18966.421,0.036,1.057,-0.027,15.26,7.48,10.04,4,4
18966.421,0.044,1.051,-0.032,14.13,9.37,12.45,4,4
18966.437,0.043,1.029,-0.032,12.82,11.6,14.04,4,4
18966.453,0.033,1.012,-0.027,12.18,13.37,14.4,4,4
18966.453,0.028,1.0,-0.02,12.3,14.28,13.95,4,4
18966.468,0.017,1.001,-0.006,14.16,14.31,12.82,4,4
18966.468,0.011,0.996,-0.005,18.34,13.46,11.44,4,4
18966.484,0.014,0.993,-0.009,23.44,12.73,9.8,4,4
18966.5,0.011,0.996,-0.018,28.75,13.09,8.42,4,4
18966.515,0.005,0.997,-0.031,34.18,14.28,7.45,4,4
18966.515,0.001,0.998,-0.043,38.48,16.14,7.26,4,4
18966.531,-0.005,0.997,-0.048,41.05,18.59,7.78,4,4
18966.531,-0.011,0.988,-0.053,41.81,21.09,8.18,4,4
18966.546,-0.015,0.987,-0.061,41.29,23.56,9.16,4,4
18966.562,-0.016,0.992,-0.069,39.22,26.15,10.07,4,4
18966.562,-0.016,0.988,-0.07,35.62,28.81,10.13,4,4
18966.578,-0.018,0.978,-0.066,31.74,31.31,9.89,4,4
18966.593,-0.02,0.97,-0.06,29.08,33.39,9.74,4,4
18966.609,-0.018,0.962,-0.049,27.62,35.22,9.43,4,4
18966.609,-0.018,0.96,-0.043,27.28,34.94,8.82,4,4
18966.625,-0.013,0.958,-0.035,26.06,32.78,7.97,4,4
18966.64,0.0,0.96,-0.036,23.93,29.15,6.96,4,4
18966.656,0.012,0.964,-0.046,22.25,26.31,5.74,4,4
18966.656,0.027,0.969,-0.053,21.15,24.57,5.04,4,4
18966.671,0.039,0.982,-0.065,20.97,23.99,4.76,4,4
18966.671,0.05,0.994,-0.074,20.81,24.75,4.67,4,4
18966.687,0.055,1.003,-0.082,19.65,26.12,4.39,4,4
18966.703,0.056,1.007,-0.082,18.16,27.92,4.49,4,4
18966.703,0.055,1.013,-0.082,16.82,29.3,5.16,4,4
18966.718,0.057,1.023,-0.078,16.05,29.79,6.35,4,4
18966.718,0.066,1.031,-0.074,15.69,29.66,7.75,4,4
18966.734,0.066,1.036,-0.069,14.71,29.11,9.0,4,4
18966.75,0.075,1.037,-0.065,13.09,27.62,9.98,4,4
18966.75,0.086,1.03,-0.067,11.41,25.51,10.9,4,4
18966.781,0.099,1.012,-0.074,11.11,23.16,11.66,4,4
18966.796,0.1,1.003,-0.075,12.36,22.37,11.05,4,4
18966.796,0.099,0.999,-0.076,14.62,21.88,9.98,4,4
18966.812,0.095,0.996,-0.08,17.03,21.67,9.09,4,4
18966.812,0.092,0.99,-0.085,18.95,21.76,8.82,4,4
18966.828,0.084,0.992,-0.093,19.71,22.1,9.4,4,4
18966.843,0.083,0.998,-0.1,18.52,22.55,11.44,4,4
18966.843,0.081,0.995,-0.104,15.38,22.98,14.28,4,4
18966.859,0.079,0.988,-0.104,10.74,23.26,17.24,4,4
18966.875,0.075,0.982,-0.095,5.25,23.26,20.51,4,4
18966.875,0.077,0.965,-0.086,-0.52,22.1,24.05,4,4
18966.89,0.088,0.945,-0.083,-5.58,20.08,27.38,4,4
18966.89,0.104,0.919,-0.083,-8.91,17.94,29.33,4,4
18966.906,0.121,0.896,-0.089,-10.77,15.66,30.06,4,4
18966.921,0.138,0.881,-0.092,-11.11,13.43,28.93,4,4
18966.921,0.157,0.866,-0.101,-10.1,10.77,26.52,4,4
18966.937,0.167,0.878,-0.112,-4.49,5.55,19.44,4,4
18966.953,0.166,0.897,-0.119,-0.95,2.29,15.47,4,4
18966.968,0.161,0.923,-0.124,2.44,-0.55,12.02,4,4
18966.968,0.148,0.947,-0.127,5.74,-4.3,9.46,4,4
18966.984,0.139,0.975,-0.132,8.0,-10.38,7.93,4,4
18967.0,0.147,0.991,-0.15,8.64,-16.72,7.08,4,4
18967.0,0.158,1.004,-0.177,8.51,-21.64,6.81,4,4
18967.015,0.169,1.015,-0.197,7.75,-24.87,7.02,4,4
18967.031,0.175,1.019,-0.216,6.84,-26.12,7.63,4,4
18967.031,0.175,1.017,-0.232,6.41,-25.33,8.91,4,4
18967.046,0.165,1.018,-0.219,6.35,-23.35,10.77,4,4
18967.062,0.16,1.009,-0.218,8.36,-22.43,12.76,4,4
18967.062,0.167,1.007,-0.229,10.22,-21.82,15.69,4,4
18967.078,0.181,0.999,-0.232,11.2,-19.93,18.31,4,4
18967.078,0.19,0.989,-0.235,11.6,-16.85,19.84,4,4
18967.093,0.203,0.989,-0.239,10.96,-12.88,21.64,4,4
18967.125,0.219,0.99,-0.234,6.53,-4.18,25.21,4,4
18967.125,0.213,0.976,-0.224,3.33,-1.92,27.99,4,4
18967.14,0.216,0.974,-0.219,0.15,-2.35,30.49,4,4
18967.14,0.214,0.97,-0.214,-1.74,-3.14,30.92,4,4
18967.156,0.214,0.959,-0.217,-1.43,-4.09,28.96,4,4
18967.171,0.217,0.955,-0.224,1.65,-5.46,26.15,4,4
18967.171,0.225,0.958,-0.231,8.39,-5.95,23.01,4,4
18967.187,0.237,0.961,-0.249,18.04,-5.01,19.56,4,4
18967.187,0.247,0.972,-0.282,28.08,-3.42,16.82,4,4
18967.203,0.257,0.998,-0.313,34.7,-2.17,15.69,4,4
18967.218,0.25,1.034,-0.338,37.23,-1.5,15.23,4,4
18967.234,0.235,1.061,-0.372,35.62,-3.33,15.41,4,4
18967.234,0.229,1.086,-0.397,29.57,-7.42,16.6,4,4
18967.25,0.233,1.1,-0.427,23.96,-10.13,18.25,4,4
18967.25,0.231,1.111,-0.456,22.58,-9.09,19.47,4,4
18967.265,0.232,1.115,-0.476,25.97,-3.17,19.38,4,4
18967.281,0.205,1.113,-0.471,42.76,18.95,13.03,4,4
18967.296,0.185,1.095,-0.454,52.58,31.31,9.64,4,4
18967.312,0.156,1.087,-0.425,60.09,44.04,7.9,4,4
18967.312,0.128,1.065,-0.395,64.91,55.54,8.0,4,4
18967.328,0.103,1.05,-0.371,64.3,63.2,9.52,4,4
18967.343,0.083,1.057,-0.352,57.44,66.41,12.24,4,4
18967.343,0.063,1.051,-0.328,46.57,65.83,14.98,4,4
18967.359,0.048,1.014,-0.288,35.58,62.56,17.15,4,4
18967.375,0.067,0.98,-0.242,27.5,58.57,18.1,4,4
18967.375,0.101,0.96,-0.2,22.0,55.73,18.07,4,4
18967.39,0.145,0.923,-0.164,19.29,51.73,18.01,4,4
18967.406,0.179,0.885,-0.136,23.01,51.79,18.98,4,4
18967.406,0.211,0.866,-0.115,25.97,53.53,20.94,4,4
18967.421,0.25,0.865,-0.088,24.23,54.96,23.38,4,4
18967.421,0.298,0.845,-0.017,16.85,53.5,26.34,4,4
18967.437,0.305,0.821,0.017,6.59,47.18,30.03,4,4
18967.453,0.313,0.756,0.057,-9.77,20.36,36.5,4,4
18967.468,0.354,0.722,0.047,-11.35,4.52,38.39,4,4
18967.468,0.421,0.691,0.003,-7.81,-8.15,39.25,4,4
18967.484,0.476,0.66,-0.062,-0.49,-17.15,38.85,4,4
18967.5,0.497,0.641,-0.132,9.0,-23.99,37.17,4,4
18967.5,0.508,0.655,-0.187,16.94,-29.51,34.52,4,4
18967.515,0.508,0.647,-0.246,21.67,-35.89,29.82,4,4
18967.531,0.498,0.646,-0.301,22.64,-41.08,23.26,4,4
18967.546,0.463,0.657,-0.366,24.84,-46.17,14.62,4,4
18967.546,0.421,0.685,-0.445,30.12,-52.4,4.12,4,4
18967.562,0.377,0.743,-0.517,33.57,-57.37,-6.29,4,4
18967.562,0.369,0.769,-0.586,32.38,-61.74,-14.22,4,4
18967.578,0.373,0.777,-0.64,29.05,-61.74,-18.52,4,4
18967.593,0.381,0.754,-0.669,26.92,-55.67,-20.05,4,4
18967.593,0.4,0.718,-0.68,26.43,-43.67,-20.72,4,4
18967.609,0.375,0.684,-0.661,25.24,-28.63,-22.77,4,4
18967.625,0.314,0.643,-0.594,23.74,-14.04,-26.25,4,4
18967.625,0.248,0.637,-0.496,21.15,-3.36,-27.95,4,4
18967.64,0.232,0.696,-0.389,12.82,1.5,-27.65,4,4
18967.64,0.22,0.69,-0.359,-1.83,-1.13,-24.81,4,4
18967.656,0.228,0.612,-0.332,-22.22,-6.5,-21.09,4,4
18967.671,0.301,0.518,-0.328,-36.07,-9.8,-22.13,4,4
18967.671,0.371,0.459,-0.354,-42.94,-13.06,-35.86,4,4
18967.687,0.393,0.354,-0.382,-48.28,-14.07,-57.74,4,4
18967.703,0.424,0.298,-0.377,-49.99,-13.7,-88.72,4,4
18967.703,0.377,0.359,-0.36,-44.4,-12.39,-125.28,4,4
18967.718,0.272,0.464,-0.347,-39.83,-13.49,-156.68,4,4
18967.734,0.196,0.644,-0.338,-43.49,-17.88,-180.09,4,4
18967.734,0.158,0.864,-0.29,-53.99,-22.77,-195.75,4,4
18967.75,0.105,1.05,-0.239,-68.51,-30.27,-204.44,4,4
18967.75,0.003,1.172,-0.217,-79.29,-36.01,-203.62,4,4
18967.765,-0.002,1.281,-0.21,-88.99,-39.61,-193.95,4,4
18967.781,-0.046,1.345,-0.242,-96.22,-41.6,-181.46,4,4
18967.781,-0.103,1.343,-0.265,-97.93,-37.84,-164.59,4,4
18967.796,-0.141,1.347,-0.277,-99.12,-32.84,-144.32,4,4
18967.812,-0.177,1.356,-0.29,-103.24,-24.87,-120.18,4,4
18967.812,-0.244,1.375,-0.263,-107.97,-12.88,-94.94,4,4
18967.828,-0.306,1.374,-0.209,-109.93,-1.43,-70.56,4,4
18967.843,-0.369,1.416,-0.079,-111.09,7.39,-48.89,4,4
18967.843,-0.452,1.36,0.083,-101.99,13.52,-29.45,4,4
18967.859,-0.446,1.262,0.073,-91.25,12.05,-9.98,4,4
18967.859,-0.436,1.238,0.087,-80.97,11.23,8.36,4,4
18967.875,-0.343,1.081,0.057,-67.63,13.46,24.72,4,4
18967.89,-0.247,1.034,0.025,-60.79,18.92,33.81,4,4
18967.89,-0.174,0.981,0.006,-57.16,28.72,35.0,4,4
18967.906,-0.134,0.89,0.006,-59.66,43.09,28.81,4,4
18967.921,-0.15,0.845,0.065,-66.81,58.63,16.94,4,4
18967.937,-0.22,0.797,0.15,-70.53,72.12,4.09,4,4
18967.937,-0.347,0.812,0.276,-70.74,80.87,-7.14,4,4
18967.953,-0.642,0.877,0.621,-65.8,59.36,4.49,4,4
18967.968,-0.559,0.84,0.569,-67.29,29.54,28.53,4,4
18967.984,-0.344,0.879,0.41,-69.28,7.87,51.18,4,4
18967.984,-0.143,0.869,0.237,-70.04,1.86,65.13,4,4
18968.0,0.006,0.851,0.124,-73.64,6.78,70.65,4,4
18968.0,0.112,0.866,0.095,-74.95,18.13,71.11,4,4
18968.015,0.168,0.845,0.156,-68.03,31.53,67.45,4,4
18968.031,0.17,0.819,0.257,-54.81,40.59,60.43,4,4
18968.031,0.134,0.835,0.325,-44.4,40.56,52.1,4,4
18968.046,0.109,0.845,0.357,-41.66,31.71,45.38,4,4
18968.062,0.11,0.86,0.324,-43.55,18.22,41.05,4,4
18968.062,0.161,0.902,0.258,-46.88,4.64,40.13,4,4
18968.078,0.208,0.959,0.197,-48.37,-4.46,40.74,4,4
18968.093,0.222,0.974,0.157,-46.85,-9.13,42.97,4,4
18968.093,0.239,0.977,0.134,-42.94,-10.07,46.72,4,4
18968.109,0.231,0.99,0.15,-38.03,-7.93,49.26,4,4
18968.125,0.197,0.952,0.244,-22.52,-8.79,46.78,4,4
18968.14,0.178,0.932,0.263,-14.31,-14.34,42.42,4,4
18968.156,0.144,0.915,0.268,-6.53,-20.94,38.73,4,4
18968.156,0.137,0.907,0.248,-0.76,-26.34,36.29,4,4
18968.171,0.14,0.879,0.22,3.51,-28.23,33.6,4,4
18968.171,0.135,0.854,0.2,6.81,-26.61,30.24,4,4
18968.187,0.13,0.853,0.196,7.81,-22.71,27.31,4,4
18968.203,0.124,0.834,0.208,6.41,-18.25,24.81,4,4
18968.203,0.089,0.834,0.22,4.09,-14.01,22.61,4,4
18968.218,0.063,0.836,0.233,1.56,-11.26,21.61,4,4
18968.218,0.055,0.857,0.25,-1.43,-10.41,20.81,4,4
18968.234,0.054,0.882,0.265,-4.7,-11.14,19.65,4,4
18968.25,0.059,0.904,0.275,-5.83,-12.36,17.85,4,4
18968.25,0.079,0.937,0.276,-5.95,-13.58,15.69,4,4
18968.265,0.09,0.96,0.279,-7.08,-14.62,13.64,4,4
18968.281,0.104,0.971,0.281,-7.66,-15.17,12.76,4,4
18968.296,0.12,0.976,0.278,-7.26,-15.05,12.79,4,4
18968.296,0.145,0.97,0.28,-5.71,-14.65,13.28,4,4
18968.312,0.167,0.953,0.284,-2.01,-13.86,13.79,4,4
18968.312,0.168,0.957,0.275,2.01,-13.0,14.59,4,4
18968.328,0.177,0.941,0.255,3.3,-12.18,16.27,4,4
18968.343,0.17,0.923,0.243,2.41,-11.96,18.07,4,4
18968.343,0.172,0.92,0.24,-0.09,-12.48,17.85,4,4
18968.359,0.192,0.902,0.226,-1.34,-12.57,14.22,4,4
18968.375,0.183,0.897,0.218,5.74,-12.7,2.66,4,4
18968.375,0.179,0.899,0.202,11.66,-13.46,-2.59,4,4
18968.39,0.173,0.913,0.171,15.5,-14.5,-6.84,4,4
18968.39,0.166,0.93,0.134,19.99,-15.78,-11.81,4,4
18968.406,0.2,0.996,0.097,26.76,-16.72,-18.86,4,4
18968.421,0.179,1.037,0.06,31.31,-17.12,-26.34,4,4
18968.437,0.164,1.069,0.049,32.9,-16.17,-32.11,4,4
18968.437,0.137,1.092,0.053,34.21,-14.22,-35.34,4,4
18968.453,0.092,1.107,0.026,36.35,-13.0,-33.85,4,4
18968.453,0.087,1.112,-0.003,36.01,-11.63,-29.11,4,4
18968.468,0.089,1.108,-0.029,32.29,-7.97,-24.66,4,4
18968.468,0.058,1.113,-0.027,26.7,-3.11,-20.42,4,4
18968.484,0.02,1.12,-0.001,21.82,1.31,-16.75,4,4
18968.5,-0.025,1.132,0.032,18.56,4.24,-12.73,4,4
18968.5,-0.069,1.149,0.048,14.28,4.36,-6.53,4,4
18968.515,-0.054,1.141,0.043,6.59,2.32,1.16,4,4
18968.531,-0.052,1.127,0.042,-1.5,1.16,7.69,4,4
18968.531,-0.059,1.094,0.038,-6.96,0.89,12.57,4,4
18968.546,-0.04,1.059,0.036,-6.44,2.78,15.56,4,4
18968.562,-0.04,1.045,0.021,-1.5,7.17,16.45,4,4
18968.562,-0.056,1.041,0.025,4.06,12.57,16.36,4,4
18968.578,-0.061,1.035,0.029,6.87,17.09,16.05,4,4
18968.578,-0.047,1.049,0.041,5.49,19.71,16.27,4,4
18968.593,0.002,1.029,0.055,5.55,21.91,16.63,4,4
18968.609,0.063,1.013,0.058,9.09,23.9,17.85,4,4
18968.609,0.102,1.024,0.032,13.58,26.15,20.51,4,4
18968.625,0.123,1.044,0.025,13.06,29.15,23.65,4,4
18968.64,0.171,1.024,0.044,7.6,32.2,26.89,4,4
18968.64,0.217,0.986,0.063,4.36,34.52,28.6,4,4
18968.656,0.24,0.94,0.079,4.88,36.01,29.18,4,4
18968.671,0.244,0.885,0.115,6.56,38.51,31.34,4,4
18968.671,0.399,0.904,0.144,11.05,39.03,27.74,4,4
18968.687,0.314,0.876,0.121,20.66,41.47,11.9,4,4
18968.703,0.252,0.783,0.188,26.73,44.07,2.47,4,4
18968.703,0.309,0.782,0.266,37.14,43.52,-1.62,4,4
18968.718,0.325,0.878,0.231,52.19,41.9,-9.77,4,4
18968.718,0.198,0.929,0.235,54.05,39.4,-17.46,4,4
18968.734,0.155,0.882,0.295,44.47,31.86,-13.31,4,4
18968.75,0.209,0.899,0.315,36.9,20.45,-6.62,4,4
18968.765,0.225,0.901,0.29,33.66,12.27,0.98,4,4
18968.765,0.26,0.856,0.282,29.33,8.36,11.81,4,4
18968.781,0.291,0.848,0.279,22.0,5.83,21.61,4,4
18968.781,0.272,0.826,0.272,10.28,2.56,30.0,4,4
18968.796,0.245,0.776,0.284,-1.37,-1.71,36.87,4,4
18968.812,0.227,0.734,0.27,-8.48,-6.96,39.52,4,4
18968.812,0.234,0.719,0.25,-11.26,-11.38,39.25,4,4
18968.828,0.273,0.691,0.217,-12.73,-14.77,37.48,4,4
18968.843,0.301,0.684,0.192,-15.35,-18.13,33.51,4,4
18968.843,0.309,0.704,0.191,-16.72,-19.47,28.57,4,4
18968.859,0.295,0.727,0.198,-17.91,-20.84,23.01,4,4
18968.859,0.305,0.742,0.202,-19.04,-24.02,17.55,4,4
18968.875,0.317,0.755,0.18,-17.55,-27.04,12.27,4,4
18968.89,0.326,0.776,0.154,-13.98,-29.02,6.01,4,4
18968.89,0.312,0.798,0.144,-11.9,-30.06,-1.5,4,4
18968.906,0.284,0.817,0.154,-8.64,-30.24,-9.77,4,4
18968.921,0.253,0.851,0.168,-2.87,-30.7,-17.12,4,4
18968.921,0.229,0.882,0.176,1.19,-32.5,-21.36,4,4
18968.937,0.228,0.93,0.162,2.11,-35.31,-22.89,4,4
18968.953,0.26,0.954,0.134,0.24,-37.72,-21.91,4,4
18968.953,0.26,0.973,0.112,-2.81,-38.18,-20.6,4,4
18968.968,0.24,1.0,0.115,-6.13,-37.93,-19.47,4,4
18968.968,0.231,1.007,0.111,-9.25,-38.3,-19.01,4,4
18968.984,0.229,0.993,0.099,-9.34,-37.78,-19.14,4,4
18969.0,0.197,0.996,0.1,-5.58,-36.07,-19.07,4,4
18969.0,0.159,0.995,0.091,-0.76,-35.74,-18.16,4,4
18969.015,0.144,1.022,0.063,2.23,-37.72,-17.12,4,4
18969.031,0.158,1.062,0.04,3.14,-39.22,-17.82,4,4
18969.046,0.193,1.07,0.027,2.62,-38.27,-18.8,4,4
18969.046,0.188,1.087,0.023,2.81,-34.52,-17.91,4,4
18969.062,0.18,1.095,0.039,1.98,-29.51,-13.21,4,4
18969.062,0.157,1.08,0.055,-1.56,-25.36,-5.31,4,4
18969.078,0.149,1.065,0.07,-6.81,-23.74,3.97,4,4
18969.093,0.179,1.04,0.085,-10.35,-22.83,11.87,4,4
18969.093,0.185,1.016,0.103,-10.53,-22.28,16.88,4,4
18969.109,0.2,0.973,0.112,-6.93,-22.86,19.14,4,4
18969.109,0.222,0.951,0.104,-1.95,-23.96,19.44,4,4
18969.125,0.223,0.934,0.097,1.65,-25.18,18.62,4,4
18969.14,0.253,0.9,0.086,3.81,-26.8,17.61,4,4
18969.14,0.273,0.901,0.091,3.97,-26.86,15.59,4,4
18969.156,0.275,0.886,0.107,2.78,-26.73,12.54,4,4
18969.171,0.293,0.873,0.134,-0.79,-27.25,9.37,4,4
18969.171,0.293,0.867,0.166,-3.3,-28.75,5.25,4,4
18969.187,0.295,0.847,0.18,-1.77,-30.82,1.07,4,4
18969.187,0.309,0.853,0.183,1.68,-33.14,-3.42,4,4
18969.203,0.314,0.863,0.178,5.31,-34.76,-8.64,4,4
18969.218,0.323,0.879,0.197,7.39,-35.83,-13.58,4,4
18969.218,0.307,0.917,0.225,8.61,-37.42,-18.19,4,4
18969.234,0.273,0.937,0.23,9.92,-41.35,-21.45,4,4
18969.25,0.269,0.963,0.232,10.28,-46.75,-21.79,4,4
18969.25,0.272,0.976,0.213,9.89,-51.67,-20.05,4,4
18969.265,0.279,0.971,0.167,7.05,-55.79,-17.18,4,4
18969.281,0.29,0.976,0.131,1.37,-58.14,-13.12,4,4
18969.281,0.287,0.975,0.112,-4.3,-57.99,-9.19,4,4
18969.296,0.284,0.968,0.1,-8.27,-56.43,-5.19,4,4
18969.312,0.295,0.972,0.098,-9.03,-54.17,-2.08,4,4
18969.312,0.298,0.982,0.102,-7.9,-51.18,-0.34,4,4
18969.328,0.292,0.978,0.132,-8.45,-48.68,0.49,4,4
18969.343,0.281,0.988,0.16,-9.16,-47.06,-0.64,4,4
18969.343,0.225,0.975,0.198,-9.8,-46.72,-0.82,4,4
18969.359,0.203,0.958,0.206,-7.69,-54.41,3.6,4,4
18969.359,0.217,0.956,0.182,-5.8,-56.46,6.5,4,4
18969.375,0.247,0.956,0.135,-8.76,-57.28,7.42,4,4
18969.39,0.304,0.955,0.081,-13.89,-55.73,7.78,4,4
18969.39,0.326,0.978,0.106,-17.49,-52.0,8.03,4,4
18969.406,0.288,0.996,0.17,-17.27,-47.76,7.57,4,4
18969.421,0.236,0.974,0.215,-14.44,-47.03,7.87,4,4
18969.421,0.213,0.953,0.226,-10.74,-49.81,8.97,4,4
18969.437,0.189,0.948,0.218,-7.75,-54.54,9.31,4,4
18969.437,0.189,0.93,0.191,-6.93,-60.85,8.91,4,4
18969.453,0.227,0.92,0.154,-7.63,-65.46,7.97,4,4
18969.468,0.256,0.928,0.13,-7.93,-66.44,5.55,4,4
18969.468,0.266,0.93,0.121,-6.23,-64.67,2.26,4,4
18969.484,0.263,0.928,0.128,-3.39,-62.38,-1.04,4,4
18969.5,0.253,0.934,0.136,-0.12,-61.01,-3.6,4,4
18969.5,0.247,0.947,0.144,0.76,-60.95,-5.62,4,4
18969.515,0.219,0.949,0.135,-0.79,-62.72,-8.85,4,4
18969.531,0.201,0.948,0.138,-2.59,-65.43,-11.78,4,4
18969.531,0.186,0.948,0.129,-0.85,-67.9,-13.67,4,4
18969.546,0.184,0.95,0.105,1.86,-69.64,-13.76,4,4
18969.546,0.189,0.959,0.078,3.63,-70.04,-12.57,4,4
18969.562,0.196,0.969,0.063,5.07,-68.88,-11.38,4,4
18969.578,0.197,0.979,0.07,5.25,-66.93,-10.59,4,4
18969.593,0.173,0.984,0.086,4.85,-65.65,-9.89,4,4
18969.593,0.156,0.987,0.093,3.63,-65.55,-8.06,4,4
18969.609,0.156,0.993,0.095,1.37,-66.1,-5.55,4,4
18969.609,0.156,0.983,0.094,-0.49,-67.02,-4.09,4,4
18969.625,0.166,0.965,0.092,-1.37,-67.81,-2.75,4,4
18969.64,0.17,0.961,0.077,-0.85,-68.18,-1.43,4,4
18969.64,0.165,0.97,0.081,0.49,-67.93,-0.37,4,4
18969.656,0.15,0.971,0.088,1.5,-68.42,0.15,4,4
18969.671,0.15,0.962,0.09,0.98,-70.04,0.49,4,4
18969.671,0.16,0.946,0.068,1.59,-72.05,0.46,4,4
18969.687,0.197,0.946,0.044,3.02,-72.82,-0.46,4,4
18969.703,0.205,0.952,0.035,3.54,-70.93,-3.45,4,4
18969.703,0.169,0.957,0.038,3.66,-68.94,-6.5,4,4
18969.718,0.162,0.98,0.059,3.6,-68.39,-7.14,4,4
18969.718,0.151,0.99,0.063,2.96,-68.15,-6.04,4,4
18969.734,0.152,0.998,0.063,1.1,-69.43,-4.03,4,4
18969.75,0.152,1.001,0.078,-0.46,-70.47,-1.31,4,4
18969.75,0.145,1.015,0.092,-1.62,-71.93,1.65,4,4
18969.765,0.136,1.011,0.088,-2.44,-74.95,4.46,4,4
18969.781,0.138,0.981,0.068,-4.21,-78.13,7.11,4,4
18969.781,0.158,0.954,0.031,-4.09,-79.44,8.39,4,4
18969.796,0.167,0.947,-0.001,-2.47,-77.91,7.9,4,4
18969.812,0.157,0.947,-0.004,-2.23,-74.89,5.83,4,4
18969.812,0.135,0.954,0.015,-2.84,-71.6,4.15,4,4
18969.828,0.108,0.969,0.029,-3.11,-70.22,3.48,4,4
18969.843,0.103,0.975,0.03,-3.2,-71.23,4.55,4,4
18969.843,0.12,0.959,0.024,-3.23,-72.7,6.16,4,4
18969.859,0.127,0.957,0.018,-2.59,-73.31,7.17,4,4
18969.859,0.116,0.948,0.016,-3.63,-73.85,7.48,4,4
18969.875,0.13,0.934,0.014,-6.5,-74.4,7.97,4,4
18969.89,0.136,0.924,0.009,-8.12,-73.85,8.18,4,4
18969.906,0.143,0.924,0.006,-8.21,-72.66,7.72,4,4
18969.906,0.137,0.932,0.007,-8.67,-71.32,6.23,4,4
18969.921,0.122,0.936,0.013,-8.79,-70.56,4.52,4,4
18969.921,0.103,0.942,0.017,-7.97,-70.16,3.36,4,4
18969.937,0.084,0.945,0.009,-6.96,-70.62,3.39,4,4
18969.953,0.102,0.944,0.0,-6.65,-71.9,4.55,4,4
18969.953,0.118,0.951,-0.009,-6.47,-72.12,5.4,4,4
18969.968,0.122,0.964,-0.015,-6.74,-71.72,6.04,4,4
18969.968,0.127,0.977,-0.011,-7.81,-71.14,6.59,4,4
18969.984,0.117,0.98,-0.01,-8.42,-70.41,7.17,4,4
18970.0,0.118,0.981,-0.011,-8.42,-69.61,8.39,4,4
18970.015,0.117,0.982,-0.012,-9.92,-68.79,9.52,4,4
18970.015,0.111,0.967,-0.018,-12.18,-68.51,10.04,4,4
18970.031,0.114,0.96,-0.01,-13.43,-68.76,9.4,4,4
18970.031,0.111,0.957,-0.012,-12.7,-69.52,7.32,4,4
18970.046,0.122,0.959,-0.02,-11.41,-70.38,4.43,4,4
18970.062,0.114,0.965,-0.018,-9.31,-70.22,1.37,4,4
18970.062,0.103,0.977,-0.019,-7.63,-70.83,-1.01,4,4
18970.078,0.119,0.988,-0.026,-7.35,-72.05,-1.95,4,4
18970.078,0.136,0.994,-0.04,-6.74,-71.87,-2.47,4,4
18970.093,0.149,0.997,-0.051,-5.52,-70.71,-2.35,4,4
18970.109,0.162,1.009,-0.044,-4.79,-68.73,-1.1,4,4
18970.125,0.159,1.022,-0.022,-5.49,-66.71,0.37,4,4
18970.125,0.139,1.021,-0.008,-6.53,-66.01,2.17,4,4
18970.14,0.137,1.017,0.002,-6.84,-66.62,4.82,4,4
18970.14,0.141,1.008,0.002,-6.1,-67.69,6.16,4,4
18970.156,0.131,0.992,-0.001,-5.07,-68.82,6.26,4,4
18970.171,0.123,0.983,-0.01,-4.39,-70.44,5.43,4,4
18970.171,0.127,0.98,-0.03,-4.27,-72.05,4.7,4,4
18970.187,0.145,0.975,-0.052,-3.88,-72.57,4.39,4,4
18970.187,0.164,0.981,-0.061,-3.36,-71.29,3.75,4,4
18970.203,0.172,0.988,-0.055,-2.69,-68.76,2.93,4,4
18970.218,0.171,0.996,-0.04,-2.35,-66.1,2.66,4,4
18970.234,0.165,1.0,-0.02,-2.5,-65.0,2.72,4,4
18970.234,0.154,1.005,-0.007,-3.08,-65.52,2.96,4,4
18970.25,0.147,1.0,-0.0,-4.33,-66.9,3.94,4,4
18970.25,0.134,0.994,-0.0,-5.07,-68.88,5.83,4,4
18970.265,0.146,0.979,-0.004,-5.28,-71.17,8.79,4,4
18970.281,0.163,0.981,-0.01,-5.19,-73.06,12.27,4,4
18970.296,0.183,0.983,-0.02,-4.82,-73.76,14.31,4,4
18970.296,0.191,0.974,-0.027,-5.55,-72.85,15.02,4,4
18970.312,0.166,0.967,-0.028,-6.96,-70.89,15.81,4,4
18970.312,0.155,0.959,-0.032,-7.2,-69.64,17.76,4,4
18970.328,0.153,0.965,-0.046,-7.23,-68.51,18.34,4,4
18970.343,0.148,0.951,-0.055,-9.58,-67.26,15.2,4,4
18970.343,0.158,0.927,-0.055,-7.51,-66.41,12.57,4,4
18970.359,0.145,0.924,-0.045,-5.34,-65.86,10.56,4,4
18970.359,0.133,0.929,-0.026,-6.01,-67.17,10.41,4,4
18970.375,0.095,0.942,-0.0,-7.93,-71.02,11.32,4,4
18970.39,0.094,0.93,-0.009,-10.07,-75.41,12.73,4,4
18970.39,0.114,0.916,-0.04,-10.86,-78.65,14.4,4,4
18970.406,0.126,0.916,-0.075,-10.32,-78.62,15.32,4,4
18970.421,0.126,0.911,-0.097,-10.22,-75.81,15.2,4,4
18970.421,0.112,0.913,-0.115,-12.02,-72.45,14.22,4,4
18970.437,0.094,0.91,-0.1,-14.71,-70.07,12.63,4,4
18970.453,0.091,0.898,-0.083,-15.44,-68.97,10.07,4,4
18970.453,0.097,0.898,-0.063,-13.46,-68.97,6.26,4,4
18970.468,0.105,0.904,-0.05,-8.82,-69.55,0.82,4,4
18970.468,0.112,0.916,-0.058,-4.33,-70.38,-4.61,4,4
18970.484,0.121,0.939,-0.067,-2.53,-70.83,-8.18,4,4
18970.5,0.128,0.952,-0.078,-3.3,-71.05,-10.01,4,4
18970.5,0.13,0.963,-0.087,-4.88,-70.5,-9.95,4,4
18970.515,0.117,0.978,-0.084,-5.25,-69.52,-9.13,4,4
18970.531,0.116,0.986,-0.098,-4.55,-69.31,-7.87,4,4
18970.531,0.143,0.997,-0.105,-4.88,-69.37,-6.44,4,4
18970.546,0.153,1.001,-0.114,-4.0,-67.93,-5.77,4,4
18970.562,0.159,0.997,-0.118,-2.69,-65.65,-5.22,4,4
18970.562,0.158,1.008,-0.112,-1.04,-63.51,-4.33,4,4
18970.578,0.152,1.017,-0.104,-0.43,-62.07,-2.96,4,4
18970.578,0.145,1.019,-0.09,-1.59,-61.28,-0.98,4,4
18970.593,0.149,1.018,-0.081,-4.12,-61.28,2.11,4,4
18970.609,0.16,1.014,-0.074,-6.68,-61.8,5.34,4,4
18970.609,0.171,1.004,-0.07,-8.18,-62.47,8.03,4,4
18970.625,0.175,1.0,-0.064,-9.74,-63.2,10.44,4,4
18970.64,0.162,0.992,-0.06,-10.5,-64.0,11.72,4,4
18970.64,0.148,0.982,-0.056,-10.47,-65.74,12.73,4,4
18970.656,0.141,0.975,-0.067,-10.38,-67.45,13.34,4,4
18970.671,0.148,0.971,-0.088,-10.41,-68.33,13.76,4,4
18970.671,0.15,0.961,-0.105,-9.89,-67.96,13.09,4,4
18970.687,0.16,0.966,-0.119,-9.28,-66.38,11.9,4,4
18970.703,0.152,0.969,-0.13,-9.28,-63.78,10.65,4,4
18970.703,0.155,0.96,-0.118,-9.89,-61.19,10.35,4,4
18970.718,0.153,0.962,-0.103,-10.16,-58.75,10.56,4,4
18970.734,0.153,0.957,-0.093,-10.44,-57.31,11.08,4,4
18970.734,0.148,0.954,-0.081,-10.9,-56.61,10.47,4,4
18970.75,0.13,0.945,-0.074,-11.87,-56.37,9.4,4,4
18970.765,0.121,0.945,-0.056,-12.94,-57.28,8.42,4,4
18970.765,0.099,0.944,-0.047,-11.38,-59.57,7.11,4,4
18970.781,0.107,0.949,-0.049,-9.55,-63.63,6.01,4,4
18970.781,0.132,0.96,-0.069,-7.51,-67.23,4.43,4,4
18970.796,0.146,0.961,-0.099,-5.22,-68.73,2.81,4,4
18970.812,0.165,0.975,-0.126,-4.24,-68.0,2.53,4,4
18970.828,0.165,1.001,-0.134,-4.85,-65.25,2.99,4,4
18970.828,0.149,1.004,-0.132,-6.23,-61.8,4.27,4,4
18970.828,0.143,1.009,-0.131,-7.87,-59.02,6.07,4,4
18970.843,0.131,0.998,-0.12,-9.46,-56.06,8.45,4,4
18970.859,0.11,0.996,-0.113,-10.28,-54.17,11.14,4,4
18970.875,0.102,1.0,-0.107,-11.08,-53.9,13.0,4,4
18970.875,0.102,0.993,-0.095,-12.3,-54.14,13.64,4,4
18970.89,0.087,0.994,-0.094,-12.39,-54.38,14.59,4,4
18970.89,0.082,0.995,-0.101,-13.46,-55.64,16.3,4,4
18970.906,0.112,0.989,-0.106,-15.14,-56.67,18.01,4,4
18970.921,0.114,0.984,-0.117,-14.71,-55.64,18.43,4,4
18970.921,0.118,0.969,-0.133,-13.0,-54.11,17.52,4,4
18970.937,0.127,0.969,-0.149,-10.99,-51.82,15.96,4,4
18970.953,0.111,0.981,-0.149,-9.09,-48.31,14.07,4,4
18970.953,0.094,0.975,-0.134,-9.06,-45.84,12.39,4,4
18970.968,0.079,0.971,-0.117,-9.37,-44.71,11.08,4,4
18970.968,0.054,0.975,-0.107,-7.54,-45.44,10.04,4,4
18970.984,0.062,0.973,-0.111,-4.58,-48.16,9.19,4,4
18971.0,0.082,0.984,-0.128,-1.53,-50.23,7.48,4,4
18971.0,0.084,0.99,-0.147,0.55,-51.15,5.62,4,4
18971.015,0.105,0.99,-0.161,2.17,-51.61,4.64,4,4
18971.031,0.135,1.004,-0.178,4.15,-50.51,3.36,4,4
18971.031,0.139,1.022,-0.193,4.58,-47.36,1.65,4,4
18971.046,0.125,1.027,-0.192,2.84,-44.25,0.03,4,4
18971.062,0.106,1.02,-0.188,0.4,-42.27,-0.27,4,4
18971.062,0.108,1.011,-0.175,-1.86,-40.99,1.86,4,4
18971.078,0.114,1.018,-0.176,-2.99,-39.46,4.76,4,4
18971.093,0.113,1.017,-0.179,-4.76,-37.93,7.11,4,4
18971.093,0.123,1.008,-0.176,-7.11,-36.62,8.61,4,4
18971.109,0.124,1.01,-0.153,-8.03,-35.13,9.67,4,4
18971.125,0.095,1.012,-0.129,-6.44,-35.04,11.35,4,4
18971.125,0.086,1.009,-0.117,-6.07,-37.48,14.56,4,4
18971.14,0.115,1.006,-0.108,-7.57,-41.17,18.19,4,4
18971.14,0.138,0.99,-0.119,-9.03,-44.13,20.2,4,4
18971.156,0.144,0.948,-0.129,-9.8,-45.29,20.97,4,4
18971.171,0.169,0.942,-0.146,-8.12,-44.86,20.57,4,4
18971.171,0.151,0.954,-0.165,-6.71,-42.6,18.25,4,4
18971.187,0.144,0.941,-0.174,-6.81,-40.99,16.27,4,4
18971.203,0.145,0.945,-0.184,-7.72,-39.86,13.92,4,4
18971.203,0.149,0.94,-0.181,-9.06,-37.81,12.21,4,4
18971.218,0.16,0.924,-0.177,-9.8,-36.23,9.86,4,4
18971.218,0.154,0.906,-0.165,-10.32,-34.52,7.14,4,4
18971.234,0.16,0.902,-0.155,-10.32,-33.69,4.49,4,4
18971.25,0.194,0.925,-0.161,-9.37,-33.05,0.98,4,4
18971.25,0.181,0.952,-0.165,-9.89,-31.56,-3.54,4,4
18971.265,0.139,0.955,-0.144,-10.07,-30.06,-6.53,4,4
18971.281,0.092,0.952,-0.125,-7.32,-29.11,-4.88,4,4
18971.281,0.088,0.954,-0.112,-2.96,-29.94,1.74,4,4
18971.296,0.146,0.965,-0.129,0.37,-32.87,7.14,4,4
18971.312,0.175,0.947,-0.151,-1.25,-34.27,8.36,4,4
18971.312,0.189,0.931,-0.148,-7.11,-33.78,9.0,4,4
18971.328,0.185,0.945,-0.133,-10.83,-33.02,10.47,4,4
18971.328,0.162,0.939,-0.126,-8.24,-32.81,10.93,4,4
18971.343,0.171,0.93,-0.122,-3.23,-33.72,8.45,4,4
18971.359,0.174,0.902,-0.18,0.21,-33.02,5.83,4,4
18971.375,0.186,0.902,-0.189,1.46,-30.58,4.21,4,4
18971.375,0.193,0.924,-0.193,2.17,-28.2,2.08,4,4
18971.39,0.199,0.934,-0.182,0.06,-26.09,0.49,4,4
18971.39,0.196,0.96,-0.17,-1.53,-24.17,-0.55,4,4
18971.406,0.189,0.967,-0.161,-1.71,-22.8,-0.12,4,4
18971.421,0.183,0.956,-0.156,-1.4,-21.61,1.68,4,4
18971.437,0.175,0.961,-0.154,-0.67,-20.72,2.96,4,4
18971.437,0.163,0.958,-0.141,-1.04,-20.72,3.81,4,4
18971.437,0.167,0.935,-0.134,-1.86,-22.49,4.73,4,4
18971.453,0.173,0.917,-0.129,-1.65,-24.2,5.49,4,4
18971.468,0.186,0.912,-0.131,-0.24,-25.39,6.07,4,4
18971.484,0.207,0.908,-0.145,0.61,-25.85,5.92,4,4
18971.484,0.216,0.892,-0.151,0.24,-25.54,4.46,4,4
18971.5,0.213,0.866,-0.145,-0.12,-23.83,2.96,4,4
18971.5,0.224,0.849,-0.144,-0.21,-21.39,1.56,4,4
18971.515,0.23,0.859,-0.141,-0.76,-19.01,-1.13,4,4
18971.531,0.192,0.891,-0.121,-1.95,-17.79,-4.91,4,4
18971.531,0.153,0.913,-0.09,-2.84,-20.6,-8.97,4,4
18971.546,0.135,0.928,-0.077,-1.56,-27.01,-11.66,4,4
18971.562,0.141,0.948,-0.091,1.37,-33.48,-11.9,4,4
18971.562,0.151,0.961,-0.123,2.72,-37.23,-10.22,4,4
18971.578,0.155,0.972,-0.156,-0.4,-38.82,-7.02,4,4
18971.593,0.152,0.986,-0.184,-6.41,-39.43,-3.27,4,4
18971.593,0.145,0.991,-0.202,-10.25,-38.73,0.49,4,4
18971.609,0.135,0.987,-0.218,-10.83,-36.35,4.43,4,4
18971.609,0.13,0.983,-0.234,-9.52,-33.57,7.6,4,4
18971.625,0.143,0.971,-0.239,-9.03,-31.07,10.13,4,4
18971.64,0.148,0.962,-0.229,-10.01,-28.35,11.93,4,4
18971.656,0.144,0.944,-0.209,-11.84,-26.0,12.7,4,4
18971.656,0.162,0.92,-0.188,-14.22,-25.24,12.94,4,4
18971.671,0.162,0.913,-0.172,-14.68,-24.17,11.99,4,4
18971.671,0.152,0.91,-0.161,-12.42,-24.38,9.55,4,4
18971.687,0.162,0.91,-0.153,-9.03,-26.25,6.5,4,4
18971.703,0.168,0.908,-0.152,-4.73,-27.31,2.56,4,4
18971.703,0.152,0.916,-0.159,-0.37,-28.02,-4.09,4,4
18971.718,0.119,0.84,-0.143,3.11,-28.5,-6.93,4,4
18971.734,0.144,0.845,-0.142,9.34,-31.07,-9.74,4,4
18971.734,0.16,0.835,-0.156,18.37,-34.33,-14.31,4,4
18971.75,0.21,0.881,-0.205,25.91,-39.46,-30.0,4,4
18971.75,0.17,0.843,-0.22,27.95,-30.7,-39.22,4,4
18971.765,0.183,0.882,-0.196,28.78,-26.15,-42.12,4,4
18971.781,0.227,0.996,-0.194,32.26,-21.97,-45.9,4,4
18971.781,0.131,1.008,-0.215,30.4,-22.71,-51.58,4,4
18971.796,0.072,0.997,-0.206,21.91,-27.1,-50.78,4,4
18971.812,0.035,1.017,-0.213,18.01,-23.62,-41.63,4,4
18971.828,0.013,1.033,-0.244,17.21,-21.3,-29.94,4,4
18971.828,0.01,1.041,-0.272,15.96,-19.1,-18.49,4,4
18971.828,0.018,1.055,-0.293,13.7,-16.91,-8.3,4,4
18971.843,0.032,1.066,-0.31,9.0,-16.05,0.55,4,4
18971.859,0.052,1.047,-0.307,1.22,-15.84,8.06,4,4
18971.875,0.062,1.019,-0.292,-7.39,-17.15,12.02,4,4
18971.875,0.059,1.003,-0.275,-15.75,-17.88,13.92,4,4
18971.89,0.047,0.971,-0.256,-22.13,-16.69,16.51,4,4
18971.89,0.061,0.953,-0.246,-23.93,-17.43,17.98,4,4
18971.906,0.07,0.937,-0.243,-21.97,-18.34,17.67,4,4
18971.921,0.058,0.913,-0.243,-18.04,-17.61,16.72,4,4
18971.921,0.062,0.909,-0.241,-13.28,-17.46,16.79,4,4
18971.937,0.07,0.925,-0.241,-8.82,-17.88,16.27,4,4
18971.953,0.085,0.93,-0.237,-4.88,-15.84,15.66,4,4
18971.953,0.09,0.936,-0.239,-1.46,-15.32,12.91,4,4
18971.968,0.092,0.939,-0.239,0.49,-15.17,10.1,4,4
18971.968,0.087,0.936,-0.241,0.49,-15.08,8.12,4,4
18971.984,0.092,0.935,-0.245,-0.4,-15.38,6.93,4,4
18972.0,0.115,0.928,-0.251,-0.18,-14.71,6.23,4,4
18972.015,0.13,0.928,-0.256,1.37,-13.0,4.09,4,4
18972.015,0.128,0.932,-0.264,2.14,-10.83,0.92,4,4
18972.031,0.115,0.927,-0.267,1.07,-8.21,-1.89,4,4
18972.031,0.102,0.92,-0.259,-1.59,-6.13,-3.36,4,4
18972.046,0.087,0.921,-0.24,-3.6,-5.04,-4.09,4,4
18972.062,0.089,0.923,-0.226,-3.36,-5.16,-4.06,4,4
18972.062,0.092,0.935,-0.216,-0.76,-5.25,-4.3,4,4
18972.078,0.101,0.935,-0.223,2.32,-5.31,-4.18,4,4
18972.093,0.125,0.946,-0.221,4.0,-5.65,-3.85,4,4
18972.093,0.122,0.954,-0.227,5.52,-4.61,-4.55,4,4
18972.109,0.107,0.95,-0.238,5.8,-3.85,-5.55,4,4
18972.109,0.102,0.946,-0.244,4.39,-4.06,-5.86,4,4
18972.125,0.11,0.946,-0.251,2.56,-3.6,-5.62,4,4
18972.14,0.122,0.947,-0.253,0.43,-2.62,-5.25,4,4
18972.14,0.124,0.942,-0.245,-0.4,-0.73,-5.22,4,4
18972.156,0.116,0.936,-0.233,0.37,1.56,-4.88,4,4
18972.171,0.101,0.941,-0.219,1.95,2.96,-4.67,4,4
18972.171,0.086,0.946,-0.205,3.54,2.81,-4.82,4,4
18972.187,0.094,0.958,-0.198,3.69,0.43,-4.64,4,4
18972.203,0.112,0.978,-0.196,2.29,-3.11,-4.06,4,4
18972.203,0.135,0.979,-0.206,-0.09,-5.65,-3.14,4,4
18972.218,0.151,0.973,-0.22,-2.2,-5.95,-1.86,4,4
18972.234,0.151,0.969,-0.229,-2.66,-4.43,-0.4,4,4
18972.234,0.138,0.964,-0.233,-2.32,-2.01,0.43,4,4
18972.25,0.137,0.952,-0.236,-2.53,-0.52,0.06,4,4
18972.25,0.138,0.95,-0.231,-1.89,0.09,-1.19,4,4
18972.265,0.134,0.958,-0.226,-0.89,0.7,-2.38,4,4
18972.281,0.129,0.965,-0.214,-0.34,0.92,-3.27,4,4
18972.281,0.111,0.977,-0.209,0.4,1.22,-3.63,4,4
18972.296,0.104,1.0,-0.201,0.21,-0.21,-2.62,4,4
18972.312,0.114,1.011,-0.203,-3.33,-4.36,2.56,4,4
18972.312,0.125,1.002,-0.211,-5.1,-4.52,6.1,4,4
18972.328,0.143,0.975,-0.218,-6.01,-2.08,8.7,4,4
18972.343,0.152,0.96,-0.226,-6.68,0.79,9.4,4,4
18972.343,0.151,0.952,-0.222,-8.15,2.59,9.16,4,4
18972.359,0.162,0.944,-0.21,-7.05,3.45,7.29,4,4
18972.375,0.161,0.943,-0.187,-3.72,4.43,5.07,4,4
18972.375,0.145,0.95,-0.163,0.18,3.81,2.62,4,4
18972.39,0.123,0.953,-0.16,2.75,1.13,0.73,4,4
18972.39,0.108,0.962,-0.162,2.47,-2.08,0.79,4,4
18972.406,0.109,0.966,-0.176,-0.46,-5.8,1.95,4,4
18972.421,0.127,0.962,-0.192,-3.85,-9.03,3.08,4,4
18972.421,0.155,0.958,-0.21,-5.37,-9.64,3.88,4,4
18972.437,0.165,0.961,-0.227,-5.01,-7.23,4.39,4,4
18972.453,0.167,0.953,-0.238,-3.91,-4.03,4.88,4,4
18972.453,0.171,0.944,-0.234,-2.66,-0.24,5.04,4,4
18972.468,0.16,0.943,-0.225,-1.53,3.48,4.18,4,4
18972.468,0.147,0.939,-0.204,-1.4,4.97,2.66,4,4
18972.484,0.142,0.949,-0.185,-1.43,4.24,1.13,4,4
18972.5,0.135,0.962,-0.177,-0.7,2.9,0.09,4,4
18972.5,0.136,0.978,-0.179,-0.55,0.85,-0.27,4,4
18972.515,0.136,0.992,-0.182,-1.8,-0.64,0.58,4,4
18972.531,0.147,0.985,-0.192,-3.88,-1.4,2.32,4,4
18972.531,0.169,0.976,-0.191,-5.31,-1.46,4.39,4,4
18972.546,0.181,0.965,-0.191,-5.52,-0.09,6.16,4,4
18972.562,0.184,0.961,-0.189,-5.89,1.89,7.39,4,4
18972.562,0.178,0.968,-0.18,-6.32,2.99,7.57,4,4
18972.578,0.171,0.968,-0.172,-5.55,3.08,7.81,4,4
18972.593,0.173,0.96,-0.168,-4.18,2.84,8.42,4,4
18972.593,0.178,0.955,-0.168,-3.14,2.11,8.33,4,4
18972.609,0.179,0.952,-0.161,-2.66,2.11,8.27,4,4
18972.609,0.177,0.951,-0.156,-3.14,1.13,7.66,4,4
18972.625,0.171,0.949,-0.148,-3.39,-0.49,6.71,4,4
18972.64,0.167,0.942,-0.151,-2.56,-2.2,5.98,4,4
18972.64,0.162,0.945,-0.163,-1.25,-3.3,5.25,4,4
18972.656,0.158,0.939,-0.176,-0.03,-3.88,5.1,4,4
18972.671,0.155,0.94,-0.191,0.0,-4.3,5.25,4,4
18972.687,0.164,0.933,-0.196,-1.22,-3.94,5.19,4,4
18972.687,0.17,0.927,-0.196,-2.59,-2.99,4.76,4,4
18972.687,0.164,0.922,-0.196,-2.99,-1.5,4.39,4,4
18972.703,0.163,0.92,-0.193,-2.35,-0.52,3.69,4,4
18972.718,0.167,0.92,-0.191,-1.13,0.7,2.47,4,4
18972.718,0.158,0.922,-0.187,0.4,1.83,0.85,4,4
18972.734,0.148,0.922,-0.182,2.08,1.95,-0.31,4,4
18972.75,0.134,0.931,-0.181,2.66,1.22,-0.52,4,4
18972.765,0.141,0.935,-0.192,0.98,-0.24,-0.37,4,4
18972.765,0.165,0.931,-0.191,-1.77,-1.31,-0.64,4,4
18972.781,0.169,0.927,-0.189,-2.59,0.0,-1.31,4,4
18972.781,0.155,0.929,-0.188,-1.77,1.56,-1.98,4,4
18972.796,0.152,0.93,-0.192,-0.85,2.14,-2.23,4,4
18972.812,0.161,0.932,-0.194,-0.27,3.05,-2.29,4,4
18972.812,0.153,0.938,-0.188,0.15,4.09,-2.23,4,4
18972.828,0.151,0.929,-0.177,0.52,4.12,-1.25,4,4
18972.828,0.163,0.93,-0.167,0.52,3.39,-0.55,4,4
18972.843,0.164,0.936,-0.158,1.01,2.75,-0.98,4,4
18972.859,0.147,0.942,-0.153,1.4,1.59,-1.98,4,4
18972.859,0.141,0.948,-0.155,1.01,-1.13,-2.62,4,4
18972.875,0.154,0.956,-0.161,0.34,-4.33,-2.93,4,4
18972.89,0.159,0.962,-0.179,-0.03,-6.16,-3.3,4,4
18972.89,0.172,0.97,-0.195,-0.79,-6.29,-3.05,4,4
18972.906,0.186,0.964,-0.204,-1.13,-4.64,-1.8,4,4
18972.921,0.187,0.984,-0.215,-1.43,-4.46,-2.29,4,4
18972.921,0.183,0.953,-0.205,-1.5,1.37,-0.98,4,4
18972.937,0.165,0.957,-0.206,-0.27,5.19,-0.49,4,4
18972.953,0.161,0.97,-0.187,1.19,4.43,-0.06,4,4
18972.953,0.151,0.977,-0.176,2.56,4.09,-0.4,4,4
18972.968,0.134,0.978,-0.17,2.29,3.78,-0.24,4,4
18972.984,0.132,0.982,-0.164,0.0,1.22,2.11,4,4
18972.984,0.145,0.986,-0.162,-2.53,-3.39,4.94,4,4
18973.0,0.165,0.988,-0.172,-4.73,-7.87,6.26,4,4
18973.0,0.181,0.974,-0.186,-5.86,-7.9,7.02,4,4
18973.015,0.188,0.957,-0.203,-5.34,-5.52,7.81,4,4
18973.031,0.2,0.948,-0.215,-4.21,-2.78,8.64,4,4
18973.031,0.199,0.946,-0.214,-4.82,1.04,9.06,4,4
18973.046,0.179,0.936,-0.204,-6.5,4.36,8.0,4,4
18973.062,0.163,0.927,-0.191,-7.42,5.22,6.53,4,4
18973.062,0.157,0.928,-0.17,-5.34,4.49,4.46,4,4
18973.078,0.153,0.938,-0.162,-1.28,2.81,2.41,4,4
18973.078,0.157,0.955,-0.158,1.68,0.67,1.19,4,4
18973.093,0.164,0.974,-0.158,2.14,-1.56,1.37,4,4
18973.109,0.175,0.983,-0.164,-0.7,-3.81,2.32,4,4
18973.125,0.187,0.977,-0.167,-4.21,-5.04,3.75,4,4
18973.125,0.199,0.968,-0.173,-6.13,-4.43,5.65,4,4
18973.14,0.205,0.976,-0.177,-6.96,-2.44,7.17,4,4
18973.14,0.199,0.982,-0.175,-7.72,-0.03,8.09,4,4
18973.156,0.186,0.98,-0.164,-8.58,1.56,9.0,4,4
18973.171,0.18,0.979,-0.154,-9.06,1.62,10.28,4,4
18973.171,0.179,0.979,-0.147,-9.58,0.64,11.66,4,4
18973.187,0.183,0.98,-0.14,-10.65,-0.98,13.12,4,4
18973.203,0.188,0.976,-0.138,-11.78,-3.05,14.56,4,4
18973.203,0.198,0.97,-0.146,-13.28,-5.46,15.47,4,4
18973.218,0.221,0.961,-0.152,-14.62,-7.08,15.35,4,4
18973.218,0.23,0.959,-0.153,-13.46,-7.05,14.56,4,4
18973.234,0.222,0.954,-0.157,-9.64,-6.07,13.43,4,4
18973.25,0.214,0.948,-0.167,-5.8,-5.07,12.18,4,4
18973.25,0.211,0.947,-0.173,-3.63,-4.21,10.5,4,4
