timestamp,ax,ay,az,gx,gy,gz,orient_label,motion_label
18973.265,0.205,0.948,-0.169,-2.11,-3.57,8.48,4,4
18973.281,0.198,0.944,-0.175,-1.01,-3.36,7.05,4,4
18973.281,0.195,0.942,-0.168,-0.24,-4.7,5.98,4,4
18973.296,0.189,0.941,-0.157,0.09,-5.77,6.2,4,4
18973.312,0.189,0.938,-0.146,-0.49,-7.05,6.5,4,4
18973.312,0.192,0.932,-0.148,-1.46,-7.84,6.65,4,4
18973.328,0.211,0.911,-0.161,-1.74,-7.69,6.5,4,4
18973.328,0.216,0.898,-0.167,-0.52,-6.2,5.04,4,4
18973.343,0.214,0.892,-0.162,1.22,-4.24,2.69,4,4
18973.359,0.204,0.892,-0.15,3.2,-2.84,0.4,4,4
18973.359,0.193,0.894,-0.13,4.76,-3.23,-1.83,4,4
18973.375,0.199,0.893,-0.122,4.67,-5.37,-3.88,4,4
18973.39,0.21,0.899,-0.127,4.55,-7.2,-5.55,4,4
18973.39,0.208,0.905,-0.142,5.43,-8.24,-6.65,4,4
18973.406,0.21,0.915,-0.161,5.43,-8.67,-7.32,4,4
18973.421,0.207,0.923,-0.176,5.13,-8.18,-7.66,4,4
18973.421,0.201,0.925,-0.185,4.79,-6.9,-7.45,4,4
18973.437,0.211,0.93,-0.187,4.43,-5.52,-6.65,4,4
18973.453,0.226,0.93,-0.187,4.73,-2.9,-5.83,4,4
18973.453,0.22,0.928,-0.181,5.52,0.76,-5.1,4,4
18973.468,0.204,0.934,-0.165,5.89,3.3,-4.27,4,4
18973.468,0.189,0.943,-0.147,5.58,2.87,-3.91,4,4
18973.484,0.187,0.944,-0.141,4.85,0.24,-4.03,4,4
18973.5,0.187,0.95,-0.143,4.06,-2.69,-4.33,4,4
18973.5,0.18,0.954,-0.155,3.3,-4.94,-4.39,4,4
18973.515,0.182,0.948,-0.171,2.04,-7.11,-4.12,4,4
18973.531,0.187,0.941,-0.188,1.28,-7.9,-3.91,4,4
18973.546,0.207,0.936,-0.202,1.53,-6.71,-4.0,4,4
18973.546,0.217,0.932,-0.202,3.42,-4.46,-4.61,4,4
18973.562,0.211,0.931,-0.202,6.44,-1.07,-5.16,4,4
18973.562,0.196,0.933,-0.198,8.09,1.86,-5.68,4,4
18973.578,0.184,0.938,-0.193,8.3,3.02,-6.32,4,4
18973.593,0.181,0.941,-0.189,8.27,3.11,-6.71,4,4
18973.593,0.175,0.951,-0.188,8.76,3.08,-6.81,4,4
18973.609,0.173,0.961,-0.183,8.42,3.05,-6.26,4,4
18973.625,0.177,0.97,-0.177,6.71,2.14,-5.1,4,4
18973.625,0.174,0.967,-0.177,4.7,1.8,-3.36,4,4
18973.64,0.166,0.959,-0.178,3.08,1.53,-1.07,4,4
18973.64,0.169,0.947,-0.184,1.31,0.58,1.13,4,4
18973.656,0.183,0.935,-0.188,-0.46,-0.27,1.98,4,4
18973.671,0.196,0.925,-0.188,-1.56,0.0,2.14,4,4
18973.671,0.195,0.918,-0.183,-1.68,1.1,1.74,4,4
18973.687,0.192,0.915,-0.169,-0.95,2.04,1.07,4,4
18973.703,0.185,0.916,-0.162,0.95,2.14,-0.09,4,4
18973.703,0.17,0.923,-0.161,3.36,1.31,-1.07,4,4
18973.718,0.173,0.929,-0.173,4.43,-1.19,-1.95,4,4
18973.718,0.18,0.935,-0.192,4.03,-3.14,-3.23,4,4
18973.734,0.188,0.938,-0.209,3.48,-3.2,-4.61,4,4
18973.75,0.197,0.944,-0.221,3.48,-1.59,-5.46,4,4
18973.75,0.194,0.952,-0.224,4.39,1.5,-5.74,4,4
18973.765,0.182,0.951,-0.224,5.86,4.61,-5.43,4,4
18973.781,0.188,0.95,-0.225,6.32,6.44,-4.03,4,4
18973.781,0.19,0.95,-0.225,6.44,8.42,-2.78,4,4
18973.796,0.179,0.945,-0.22,6.35,11.05,-2.14,4,4
18973.812,0.165,0.945,-0.205,5.58,12.21,-1.98,4,4
18973.812,0.156,0.95,-0.2,4.76,11.75,-1.95,4,4
18973.828,0.156,0.964,-0.19,3.39,9.7,-2.59,4,4
18973.843,0.158,0.972,-0.179,2.5,6.68,-3.11,4,4
18973.843,0.174,0.969,-0.18,1.53,3.78,-2.17,4,4
18973.859,0.2,0.965,-0.184,0.43,2.81,0.0,4,4
18973.859,0.206,0.968,-0.187,-0.95,4.61,2.41,4,4
18973.875,0.203,0.957,-0.183,-3.08,6.38,4.49,4,4
18973.89,0.211,0.951,-0.174,-5.52,7.42,6.26,4,4
18973.89,0.206,0.948,-0.171,-7.05,8.58,7.6,4,4
18973.906,0.211,0.94,-0.169,-7.6,8.94,8.39,4,4
18973.921,0.227,0.936,-0.163,-7.05,10.01,8.58,4,4
18973.921,0.223,0.93,-0.158,-3.97,11.99,7.48,4,4
18973.937,0.217,0.921,-0.165,-0.52,13.61,6.1,4,4
18973.953,0.207,0.935,-0.167,5.07,15.26,2.44,4,4
18973.968,0.197,0.956,-0.164,5.34,14.92,0.89,4,4
18973.984,0.191,0.981,-0.158,4.64,12.67,-0.46,4,4
18973.984,0.187,0.999,-0.157,3.48,10.04,-1.16,4,4
18974.0,0.193,1.014,-0.16,1.74,7.84,-1.07,4,4
18974.0,0.205,1.017,-0.168,0.79,6.13,0.03,4,4
18974.015,0.202,1.025,-0.183,0.4,5.83,2.53,4,4
18974.031,0.193,1.03,-0.187,-0.55,6.23,6.74,4,4
18974.046,0.204,1.012,-0.182,-2.56,6.32,11.23,4,4
18974.046,0.211,1.0,-0.182,-4.88,7.48,14.68,4,4
18974.062,0.211,0.978,-0.183,-6.16,9.0,16.36,4,4
18974.062,0.2,0.957,-0.184,-6.16,9.95,16.69,4,4
18974.078,0.187,0.953,-0.192,-6.01,10.77,16.82,4,4
18974.093,0.162,0.951,-0.193,-7.26,10.16,16.57,4,4
18974.093,0.146,0.945,-0.191,-9.46,7.17,15.78,4,4
18974.109,0.147,0.939,-0.186,-11.78,1.83,14.8,4,4
18974.125,0.182,0.927,-0.201,-11.9,-7.08,11.57,4,4
18974.14,0.212,0.922,-0.21,-10.68,-8.24,10.44,4,4
18974.14,0.205,0.919,-0.22,-8.24,-5.89,8.85,4,4
18974.156,0.195,0.915,-0.225,-6.56,-3.63,7.23,4,4
18974.171,0.195,0.918,-0.228,-6.13,-2.35,6.13,4,4
18974.171,0.2,0.917,-0.232,-6.01,-0.46,4.88,4,4
18974.187,0.202,0.911,-0.241,-5.34,2.26,4.0,4,4
18974.203,0.208,0.908,-0.246,-2.72,5.95,3.85,4,4
18974.203,0.206,0.92,-0.238,-1.1,9.55,3.88,4,4
18974.218,0.2,0.929,-0.232,-0.67,13.03,3.75,4,4
18974.218,0.208,0.932,-0.217,-1.74,15.26,3.63,4,4
18974.234,0.22,0.938,-0.194,-4.36,16.85,4.09,4,4
18974.25,0.219,0.925,-0.179,-5.95,18.56,4.64,4,4
18974.25,0.227,0.911,-0.16,-6.56,18.95,5.77,4,4
18974.265,0.223,0.908,-0.15,-5.19,18.89,6.74,4,4
18974.281,0.224,0.913,-0.153,-3.88,17.73,6.53,4,4
18974.296,0.213,0.918,-0.149,-2.81,13.61,3.2,4,4
18974.312,0.188,0.931,-0.169,-0.92,9.4,1.86,4,4
18974.312,0.196,0.944,-0.196,0.37,5.74,0.89,4,4
18974.328,0.199,0.957,-0.222,0.85,3.27,-0.37,4,4
18974.343,0.205,0.944,-0.248,1.62,3.02,-1.53,4,4
18974.343,0.222,0.939,-0.272,4.49,5.62,-1.5,4,4
18974.359,0.231,0.951,-0.281,9.28,11.78,-0.98,4,4
18974.375,0.221,0.962,-0.274,14.34,19.56,-1.13,4,4
18974.375,0.188,0.966,-0.261,19.29,26.86,-1.07,4,4
18974.39,0.154,0.975,-0.246,23.65,31.46,-0.12,4,4
18974.39,0.134,0.978,-0.241,26.7,32.96,2.17,4,4
18974.406,0.134,0.973,-0.252,27.47,33.51,4.94,4,4
18974.421,0.145,0.966,-0.27,24.93,34.33,8.3,4,4
18974.421,0.161,0.953,-0.279,20.63,35.98,11.38,4,4
18974.437,0.18,0.93,-0.275,17.52,38.82,13.31,4,4
18974.453,0.198,0.898,-0.262,18.74,42.6,14.53,4,4
18974.468,0.244,0.875,-0.261,39.19,60.52,20.57,4,4
18974.484,0.244,0.871,-0.261,51.85,73.58,23.38,4,4
18974.484,0.25,0.854,-0.264,59.48,85.27,25.09,4,4
18974.5,0.231,0.842,-0.278,62.59,95.86,25.85,4,4
18974.5,0.212,0.826,-0.304,61.77,105.9,27.16,4,4
18974.515,0.199,0.81,-0.33,57.44,115.3,28.26,4,4
18974.531,0.179,0.814,-0.337,51.12,124.55,28.14,4,4
18974.531,0.148,0.822,-0.318,44.65,132.54,26.73,4,4
18974.546,0.109,0.834,-0.278,39.06,138.49,25.57,4,4
18974.562,0.073,0.843,-0.235,36.32,143.25,26.52,4,4
18974.562,0.04,0.864,-0.193,34.18,145.15,29.18,4,4
18974.578,0.011,0.89,-0.139,31.56,143.22,32.93,4,4
18974.593,-0.019,0.904,-0.099,29.45,138.49,36.71,4,4
18974.593,-0.031,0.914,-0.077,27.62,130.16,40.35,4,4
18974.609,-0.023,0.915,-0.063,25.03,118.44,44.37,4,4
18974.625,-0.003,0.896,-0.07,20.2,107.85,49.07,4,4
18974.64,0.054,0.843,-0.096,10.65,97.2,59.02,4,4
18974.64,0.042,0.834,-0.103,10.28,96.87,64.03,4,4
18974.656,0.013,0.837,-0.107,10.47,96.56,69.28,4,4
18974.671,0.002,0.83,-0.12,9.28,96.35,76.08,4,4
18974.671,-0.017,0.83,-0.144,6.1,98.64,84.2,4,4
18974.687,-0.044,0.842,-0.164,0.92,102.54,92.56,4,4
18974.703,-0.05,0.847,-0.158,-6.1,105.62,101.02,4,4
18974.703,-0.054,0.844,-0.135,-11.99,107.97,109.96,4,4
18974.718,-0.08,0.865,-0.126,-15.75,111.18,118.99,4,4
18974.734,-0.072,0.86,-0.161,-22.16,113.22,127.9,4,4
18974.734,-0.025,0.807,-0.202,-33.3,114.75,134.83,4,4
18974.75,0.034,0.751,-0.228,-45.56,120.37,139.13,4,4
18974.765,0.065,0.694,-0.216,-53.29,131.53,140.9,4,4
18974.765,0.046,0.644,-0.178,-51.7,146.09,140.87,4,4
18974.781,0.025,0.633,-0.147,-41.2,162.76,142.37,4,4
18974.781,0.008,0.668,-0.108,-26.4,178.72,143.71,4,4
18974.796,0.012,0.691,-0.052,-12.45,193.7,144.54,4,4
18974.812,0.018,0.708,-0.007,-2.41,205.08,144.44,4,4
18974.812,0.058,0.711,0.028,-0.58,211.92,144.44,4,4
18974.828,0.125,0.697,0.071,-5.37,216.62,143.62,4,4
18974.828,0.183,0.64,0.106,-11.6,221.63,141.12,4,4
18974.843,0.217,0.565,0.127,-13.21,227.85,137.15,4,4
18974.859,0.268,0.486,0.14,-8.42,235.45,131.63,4,4
18974.859,0.308,0.418,0.168,2.38,244.85,124.0,4,4
18974.875,0.292,0.395,0.195,17.18,256.45,116.7,4,4
18974.89,0.284,0.392,0.201,28.26,266.98,112.09,4,4
18974.89,0.309,0.384,0.241,31.25,274.73,109.78,4,4
18974.906,0.294,0.376,0.298,31.74,281.11,107.46,4,4
18974.921,0.279,0.361,0.335,30.95,283.94,106.23,4,4
18974.921,0.28,0.36,0.393,27.1,282.57,105.72,4,4
18974.937,0.257,0.34,0.446,23.19,278.51,105.26,4,4
18974.953,0.249,0.318,0.485,19.23,272.59,104.71,4,4
18974.968,0.328,0.269,0.553,18.13,261.24,98.88,4,4
18974.984,0.368,0.256,0.574,24.57,259.8,93.57,4,4
18974.984,0.416,0.252,0.606,32.96,260.2,86.92,4,4
18975.0,0.476,0.259,0.661,43.76,261.64,78.65,4,4
18975.0,0.5,0.289,0.746,57.07,262.89,69.06,4,4
18975.015,0.478,0.327,0.83,70.38,260.96,60.15,4,4
18975.031,0.421,0.346,0.908,81.27,252.94,52.64,4,4
18975.031,0.37,0.365,0.987,88.84,236.34,46.17,4,4
18975.046,0.367,0.403,1.047,93.45,213.42,38.45,4,4
18975.062,0.449,0.434,1.086,98.21,190.07,25.33,4,4
18975.062,0.512,0.441,1.11,108.83,173.41,8.85,4,4
18975.078,0.526,0.455,1.134,126.22,163.95,-4.85,4,4
18975.093,0.558,0.517,1.147,146.12,156.65,-15.08,4,4
18975.093,0.589,0.577,1.116,163.49,151.92,-25.24,4,4
18975.109,0.595,0.63,1.063,173.5,154.88,-35.16,4,4
18975.125,0.526,0.722,1.05,175.97,168.49,-44.01,4,4
18975.14,0.197,0.896,1.201,163.15,190.4,-60.0,4,4
18975.156,-0.01,0.962,1.287,153.42,181.59,-57.5,4,4
18975.156,-0.106,0.983,1.284,142.31,154.85,-47.76,4,4
18975.171,-0.063,0.973,1.276,126.1,127.54,-30.09,4,4
18975.187,0.019,0.969,1.266,109.53,102.6,-14.1,4,4
18975.187,0.126,0.977,1.235,95.95,82.34,-3.66,4,4
18975.203,0.149,0.967,1.179,84.57,72.36,1.28,4,4
18975.203,0.15,0.937,1.125,71.47,70.93,6.47,4,4
18975.218,0.161,0.928,1.083,57.5,77.67,12.7,4,4
18975.234,0.13,0.909,1.063,41.63,90.15,17.67,4,4
18975.234,0.049,0.899,1.116,24.05,102.36,22.68,4,4
18975.25,-0.071,0.859,1.162,12.27,106.45,30.73,4,4
18975.265,-0.136,0.823,1.172,-9.83,80.51,59.3,4,4
18975.265,-0.114,0.805,1.204,-24.78,61.16,69.4,4,4
18975.281,-0.045,0.772,1.211,-40.1,45.78,73.0,4,4
18975.281,0.01,0.747,1.212,-50.97,37.93,70.41,4,4
18975.296,0.063,0.648,1.213,-55.54,34.12,64.0,4,4
18975.312,0.085,0.605,1.183,-54.75,31.95,54.66,4,4
18975.312,0.099,0.586,1.159,-51.64,30.95,42.6,4,4
18975.328,0.079,0.579,1.157,-46.27,28.53,28.72,4,4
18975.343,0.034,0.57,1.169,-38.03,20.87,15.93,4,4
18975.343,-0.012,0.579,1.175,-28.26,7.14,6.84,4,4
18975.359,-0.019,0.578,1.117,-19.81,-10.5,1.56,4,4
18975.359,0.021,0.602,1.046,-16.66,-27.04,-1.31,4,4
18975.375,0.095,0.647,0.975,-17.55,-37.66,-3.27,4,4
18975.39,0.169,0.692,0.909,-22.83,-39.52,-3.85,4,4
18975.39,0.194,0.73,0.866,-30.92,-32.93,-3.69,4,4
18975.406,0.185,0.751,0.873,-39.52,-22.98,-2.2,4,4
18975.421,0.142,0.752,0.902,-43.73,-15.02,0.4,4,4
18975.421,0.08,0.749,0.931,-42.66,-11.69,4.55,4,4
18975.437,0.032,0.734,0.95,-36.56,-14.37,9.89,4,4
18975.437,0.026,0.714,0.946,-28.69,-23.01,14.71,4,4
18975.453,0.057,0.705,0.91,-23.83,-33.78,16.85,4,4
18975.468,0.103,0.694,0.859,-23.32,-42.09,15.87,4,4
18975.484,0.13,0.665,0.81,-24.87,-45.47,12.57,4,4
18975.484,0.148,0.632,0.776,-24.72,-44.34,9.0,4,4
18975.5,0.154,0.607,0.752,-20.69,-39.89,5.83,4,4
18975.5,0.145,0.596,0.728,-14.16,-33.6,3.05,4,4
18975.515,0.123,0.601,0.714,-7.51,-27.38,0.95,4,4
18975.531,0.105,0.605,0.721,0.03,-22.77,-0.46,4,4
18975.531,0.101,0.634,0.735,6.2,-20.81,-0.89,4,4
18975.546,0.087,0.667,0.752,7.63,-21.49,-0.73,4,4
18975.562,0.088,0.674,0.767,4.18,-25.51,1.01,4,4
18975.562,0.121,0.672,0.758,-0.89,-31.56,4.03,4,4
18975.578,0.158,0.67,0.747,-5.28,-35.28,6.71,4,4
18975.578,0.181,0.669,0.748,-6.81,-35.74,8.51,4,4
18975.593,0.194,0.665,0.743,-5.22,-34.55,10.38,4,4
18975.609,0.207,0.661,0.726,-2.87,-32.53,12.82,4,4
18975.609,0.225,0.655,0.711,-1.59,-29.85,14.98,4,4
18975.625,0.24,0.642,0.694,-1.13,-25.79,15.93,4,4
18975.64,0.262,0.636,0.692,-0.52,-20.69,15.47,4,4
18975.64,0.279,0.633,0.708,2.35,-14.56,14.5,4,4
18975.656,0.275,0.643,0.765,8.7,-8.88,13.03,4,4
18975.671,0.328,0.695,0.848,19.07,-7.48,12.73,4,4
18975.687,0.565,0.939,0.989,27.8,-11.35,13.15,4,4
18975.687,0.777,1.204,1.089,28.69,-7.26,3.91,4,4
18975.687,0.407,1.098,1.038,25.64,5.62,-13.89,4,4
18975.703,-0.051,0.76,0.92,24.23,0.79,-16.27,4,4
18975.718,-0.03,0.634,0.779,20.08,-28.99,4.88,4,4
18975.734,0.138,0.629,0.596,19.35,-48.89,18.92,4,4
18975.734,0.24,0.592,0.456,13.4,-48.34,20.57,4,4
18975.75,0.318,0.564,0.426,-0.18,-36.5,17.49,4,4
18975.75,0.376,0.569,0.463,-8.48,-19.78,14.47,4,4
18975.765,0.391,0.579,0.488,-8.12,-1.01,11.84,4,4
18975.781,0.4,0.598,0.508,-5.46,16.72,8.42,4,4
18975.781,0.386,0.649,0.588,-5.52,31.1,3.17,4,4
18975.796,0.333,0.699,0.689,-6.47,39.31,-1.37,4,4
18975.812,0.29,0.716,0.746,-7.35,37.9,-1.31,4,4
18975.812,0.285,0.732,0.787,-11.11,29.66,2.72,4,4
18975.828,0.301,0.711,0.794,-15.23,19.04,6.65,4,4
18975.828,0.302,0.646,0.762,-18.65,10.38,7.54,4,4
18975.843,0.3,0.571,0.707,-19.84,5.89,4.88,4,4
18975.859,0.321,0.52,0.656,-18.52,5.22,0.61,4,4
18975.875,0.346,0.509,0.62,-16.48,9.46,-4.88,4,4
18975.875,0.352,0.511,0.614,-15.11,18.04,-11.72,4,4
18975.89,0.303,0.56,0.701,-13.89,25.91,-17.82,4,4
18975.89,0.234,0.639,0.823,-10.16,26.83,-19.56,4,4
18975.906,0.196,0.679,0.891,-6.38,19.9,-16.14,4,4
18975.921,0.187,0.681,0.886,-2.44,9.61,-11.51,4,4
18975.921,0.21,0.633,0.82,4.21,0.4,-7.57,4,4
18975.937,0.226,0.614,0.738,10.65,-3.78,-5.28,4,4
18975.953,0.227,0.617,0.669,12.67,-3.08,-4.61,4,4
18975.953,0.234,0.626,0.649,8.88,-0.89,-5.1,4,4
18975.968,0.24,0.663,0.669,3.45,1.59,-5.34,4,4
18975.984,0.231,0.697,0.69,0.03,3.17,-3.78,4,4
18975.984,0.229,0.714,0.711,-2.87,3.14,-0.27,4,4
18976.0,0.236,0.709,0.723,-4.58,1.71,3.57,4,4
18976.0,0.243,0.7,0.71,-5.37,0.03,7.05,4,4
18976.015,0.254,0.68,0.686,-6.65,-0.55,10.01,4,4
18976.031,0.284,0.635,0.665,-6.44,0.67,12.67,4,4
18976.031,0.268,0.621,0.719,-9.37,3.11,11.87,4,4
18976.046,0.257,0.634,0.725,-8.82,3.2,11.93,4,4
18976.062,0.262,0.617,0.72,-5.55,2.5,13.18,4,4
18976.062,0.265,0.633,0.738,-7.75,2.04,13.09,4,4
18976.078,0.256,0.617,0.742,-10.22,0.58,11.6,4,4
18976.078,0.268,0.601,0.735,-12.15,-1.31,10.83,4,4
18976.093,0.282,0.598,0.729,-12.02,-1.8,10.5,4,4
18976.109,0.295,0.586,0.711,-8.45,-0.61,10.38,4,4
18976.109,0.305,0.58,0.693,-4.49,2.56,9.67,4,4
18976.125,0.307,0.574,0.689,-2.11,7.05,7.69,4,4
18976.14,0.31,0.566,0.69,-1.83,11.11,4.12,4,4
18976.14,0.295,0.548,0.706,-2.35,13.98,-0.98,4,4
18976.156,0.271,0.593,0.773,-9.52,13.49,-7.23,4,4
18976.171,0.253,0.579,0.784,-12.48,10.01,-11.84,4,4
18976.171,0.245,0.548,0.762,-12.7,5.01,-16.17,4,4
18976.187,0.318,0.553,0.671,-11.17,2.96,-19.29,4,4
18976.203,0.297,0.458,0.629,-2.08,11.02,-24.29,4,4
18976.203,0.19,0.679,0.735,-13.79,14.77,-28.99,4,4
18976.218,0.217,0.716,0.814,-19.26,11.02,-24.54,4,4
18976.234,0.167,0.717,0.852,-8.0,6.35,-18.25,4,4
18976.234,0.174,0.763,0.831,0.37,-0.37,-7.14,4,4
18976.25,0.189,0.699,0.75,3.14,-6.04,5.01,4,4
18976.25,0.188,0.629,0.724,-0.82,-8.39,6.84,4,4
18976.265,0.187,0.637,0.751,-3.66,-11.78,9.98,4,4
18976.281,0.228,0.633,0.794,-5.04,-14.4,12.82,4,4
18976.281,0.219,0.62,0.807,-4.55,-17.09,14.77,4,4
18976.296,0.194,0.644,0.808,-4.15,-21.12,17.43,4,4
18976.312,0.293,0.592,0.723,-2.32,-23.99,21.97,4,4
18976.312,0.266,0.504,0.668,4.61,-19.59,20.63,4,4
18976.328,0.278,0.604,0.708,-1.25,-15.66,19.32,4,4
18976.328,0.299,0.564,0.736,-1.59,-13.73,18.19,4,4
18976.343,0.299,0.549,0.713,1.92,-11.63,17.09,4,4
18976.359,0.316,0.573,0.701,4.82,-9.19,15.99,4,4
18976.375,0.314,0.586,0.714,5.65,-5.98,12.85,4,4
18976.375,0.295,0.594,0.739,4.94,-4.97,9.64,4,4
18976.39,0.278,0.615,0.758,3.78,-6.44,8.45,4,4
18976.39,0.273,0.616,0.752,3.81,-9.0,8.97,4,4
18976.406,0.277,0.617,0.732,4.15,-11.32,9.74,4,4
18976.421,0.301,0.624,0.716,1.95,-12.73,10.68,4,4
18976.421,0.3,0.599,0.682,-0.52,-11.72,9.89,4,4
18976.437,0.321,0.575,0.639,-2.93,-8.55,9.13,4,4
18976.453,0.343,0.558,0.615,-5.43,-2.66,7.08,4,4
18976.453,0.377,0.545,0.606,-6.84,5.65,3.81,4,4
18976.468,0.391,0.523,0.603,-6.26,16.11,-0.37,4,4
18976.484,0.396,0.499,0.604,-4.12,27.44,-5.89,4,4
18976.484,0.415,0.47,0.576,1.71,39.52,-13.46,4,4
18976.5,0.421,0.442,0.529,6.56,54.78,-23.68,4,4
18976.5,0.325,0.48,0.6,3.2,70.74,-35.86,4,4
18976.515,0.155,0.697,0.906,-28.29,69.15,-45.93,4,4
18976.531,0.027,0.825,1.178,-52.0,46.51,-44.71,4,4
18976.546,0.019,0.888,1.233,-40.16,12.18,-28.96,4,4
18976.546,0.115,0.759,1.003,-9.89,-13.46,-5.25,4,4
18976.562,0.201,0.574,0.76,4.21,-22.95,5.31,4,4
18976.562,0.188,0.51,0.643,9.22,-18.46,5.89,4,4
18976.578,0.18,0.522,0.633,9.37,-11.63,6.59,4,4
18976.593,0.203,0.597,0.695,0.24,-8.45,7.66,4,4
18976.593,0.215,0.649,0.784,-6.65,-6.9,9.89,4,4
18976.609,0.211,0.648,0.848,-3.85,-8.12,13.76,4,4
18976.609,0.214,0.637,0.858,2.47,-12.39,16.72,4,4
18976.625,0.201,0.622,0.835,5.13,-17.94,18.98,4,4
18976.64,0.184,0.616,0.836,1.68,-25.21,21.12,4,4
18976.656,0.267,0.599,0.738,-0.64,-32.11,24.75,4,4
18976.656,0.317,0.447,0.652,7.87,-29.08,25.61,4,4
18976.671,0.29,0.567,0.72,0.15,-25.24,21.61,4,4
18976.671,0.338,0.517,0.685,-0.12,-22.06,19.1,4,4
18976.687,0.336,0.48,0.654,3.81,-17.0,13.55,4,4
18976.703,0.354,0.555,0.68,-1.01,-12.15,8.24,4,4
18976.703,0.36,0.544,0.685,-0.18,-7.75,3.57,4,4
18976.718,0.347,0.558,0.7,-0.61,-3.72,-0.21,4,4
18976.734,0.329,0.579,0.706,-0.12,-0.67,-2.35,4,4
18976.734,0.324,0.583,0.705,-1.28,1.1,-3.63,4,4
18976.75,0.325,0.568,0.699,-3.23,2.99,-5.58,4,4
18976.75,0.328,0.552,0.69,-3.6,6.56,-7.69,4,4
18976.765,0.34,0.543,0.679,-2.44,12.05,-9.86,4,4
18976.781,0.348,0.521,0.643,0.82,19.38,-12.3,4,4
18976.781,0.365,0.495,0.611,2.5,28.47,-16.33,4,4
18976.796,0.384,0.469,0.594,3.2,40.41,-22.77,4,4
18976.812,0.338,0.434,0.629,5.25,55.06,-31.56,4,4
18976.812,0.234,0.581,0.832,-15.17,58.32,-40.89,4,4
18976.828,0.111,0.634,1.069,-29.21,49.96,-43.37,4,4
18976.843,-0.031,0.81,1.202,-28.9,23.83,-38.85,4,4
18976.843,0.09,0.76,1.105,-8.3,-6.84,-19.29,4,4
18976.859,0.19,0.558,0.856,18.68,-22.8,-7.97,4,4
18976.875,0.211,0.521,0.688,25.45,-23.62,-8.73,4,4
18976.875,0.181,0.532,0.636,29.57,-17.58,-11.14,4,4
18976.89,0.183,0.599,0.687,27.01,-13.64,-9.92,4,4
18976.89,0.197,0.707,0.761,22.34,-12.7,-6.35,4,4
18976.906,0.195,0.726,0.789,22.46,-13.52,-0.76,4,4
18976.921,0.208,0.689,0.782,22.16,-17.0,4.73,4,4
18976.921,0.22,0.656,0.767,18.89,-21.03,6.74,4,4
18976.937,0.223,0.62,0.758,15.87,-24.6,6.68,4,4
18976.953,0.224,0.606,0.756,13.34,-27.74,6.87,4,4
18976.953,0.236,0.599,0.763,11.75,-30.24,6.93,4,4
18976.968,0.213,0.6,0.816,14.01,-32.41,7.69,4,4
18976.984,0.258,0.621,0.767,16.79,-36.81,10.53,4,4
18976.984,0.266,0.515,0.7,24.32,-34.91,9.74,4,4
18977.0,0.218,0.574,0.722,23.8,-33.57,6.9,4,4
18977.0,0.26,0.598,0.778,12.21,-38.91,2.47,4,4
18977.015,0.265,0.582,0.752,13.55,-43.0,-0.46,4,4
18977.031,0.312,0.595,0.678,17.4,-45.2,0.34,4,4
18977.031,0.338,0.613,0.642,13.37,-42.51,-2.66,4,4
18977.046,0.342,0.598,0.622,12.39,-36.62,-5.71,4,4
18977.062,0.358,0.588,0.605,12.42,-30.79,-8.3,4,4
18977.062,0.361,0.619,0.596,13.49,-23.22,-10.47,4,4
18977.078,0.361,0.632,0.604,15.08,-15.69,-11.66,4,4
18977.093,0.337,0.67,0.625,14.8,-9.55,-12.09,4,4
18977.093,0.313,0.712,0.669,11.44,-6.44,-11.41,4,4
18977.109,0.288,0.724,0.696,6.01,-6.87,-10.28,4,4
18977.109,0.27,0.724,0.687,-0.15,-9.4,-7.87,4,4
18977.125,0.278,0.707,0.68,-7.75,-12.42,-4.88,4,4
18977.14,0.293,0.678,0.663,-13.09,-13.92,-3.08,4,4
18977.156,0.306,0.647,0.639,-14.16,-12.82,-1.92,4,4
18977.156,0.315,0.624,0.619,-12.6,-8.48,-1.16,4,4
18977.171,0.32,0.627,0.62,-10.16,-2.32,-0.82,4,4
18977.171,0.32,0.637,0.632,-9.19,3.54,0.18,4,4
18977.187,0.316,0.644,0.668,-11.02,8.03,1.25,4,4
18977.203,0.297,0.651,0.701,-12.24,10.35,1.65,4,4
18977.203,0.289,0.647,0.714,-13.15,9.74,2.53,4,4
18977.218,0.291,0.641,0.717,-13.92,8.51,3.48,4,4
18977.218,0.28,0.644,0.727,-11.29,7.29,6.99,4,4
18977.234,0.266,0.649,0.728,-11.51,5.4,10.32,4,4
18977.25,0.268,0.649,0.729,-12.24,3.72,12.21,4,4
18977.265,0.275,0.633,0.716,-12.67,2.96,13.03,4,4
18977.265,0.307,0.6,0.683,-13.67,3.3,12.6,4,4
18977.281,0.324,0.587,0.663,-14.16,5.83,11.29,4,4
18977.281,0.324,0.592,0.643,-14.4,9.74,9.61,4,4
18977.296,0.338,0.592,0.628,-16.45,13.82,8.09,4,4
18977.312,0.363,0.58,0.6,-20.54,18.98,5.8,4,4
18977.312,0.379,0.549,0.567,-25.3,26.67,1.4,4,4
18977.328,0.404,0.518,0.565,-30.24,37.02,-5.8,4,4
18977.343,0.439,0.475,0.558,-30.67,50.02,-15.11,4,4
18977.343,0.443,0.458,0.558,-26.4,66.81,-25.85,4,4
18977.359,0.33,0.486,0.683,-22.37,83.71,-36.19,4,4
18977.359,0.15,0.678,1.036,-42.27,80.17,-42.36,4,4
18977.375,-0.035,0.828,1.319,-55.57,54.29,-39.83,4,4
18977.39,-0.058,0.836,1.277,-35.68,12.79,-22.1,4,4
18977.39,0.096,0.594,1.024,-11.84,-20.63,-1.22,4,4
18977.406,0.211,0.48,0.783,-0.64,-31.89,1.59,4,4
18977.421,0.196,0.46,0.664,15.44,-25.09,0.43,4,4
18977.421,0.157,0.535,0.682,20.57,-17.03,2.9,4,4
18977.437,0.163,0.635,0.77,13.79,-15.41,7.26,4,4
18977.453,0.18,0.682,0.866,9.77,-18.16,12.67,4,4
18977.453,0.165,0.718,0.917,11.54,-24.32,18.16,4,4
18977.468,0.11,0.737,0.954,11.66,-34.52,24.87,4,4
18977.484,0.221,0.691,0.867,10.28,-47.36,34.06,4,4
18977.484,0.251,0.589,0.914,7.11,-54.63,34.52,4,4
18977.5,0.316,0.695,0.85,10.32,-56.09,37.08,4,4
18977.5,0.448,0.621,0.789,21.03,-52.52,37.26,4,4
18977.515,0.494,0.682,0.812,23.62,-39.7,27.01,4,4
18977.531,0.517,0.695,0.848,29.6,-26.86,15.2,4,4
18977.531,0.497,0.702,0.863,38.15,-16.14,0.55,4,4
18977.546,0.417,0.76,0.92,53.87,-9.67,-22.77,4,4
18977.562,0.296,0.824,0.976,71.87,-12.7,-41.32,4,4
18977.578,0.209,0.897,0.975,81.64,-23.13,-49.65,4,4
18977.578,0.187,0.975,0.979,83.5,-40.99,-49.87,4,4
18977.593,0.185,0.991,0.929,79.84,-60.09,-45.29,4,4
18977.593,0.247,0.965,0.855,69.86,-76.66,-36.59,4,4
18977.609,0.328,0.912,0.772,59.72,-85.33,-28.72,4,4
18977.625,0.412,0.852,0.703,53.5,-85.88,-24.14,4,4
18977.625,0.46,0.8,0.667,52.89,-80.6,-24.2,4,4
18977.64,0.449,0.756,0.648,57.68,-72.91,-28.32,4,4
18977.656,0.422,0.71,0.628,63.23,-67.54,-33.75,4,4
18977.656,0.416,0.683,0.652,67.9,-65.61,-39.31,4,4
18977.671,0.423,0.675,0.703,76.24,-67.05,-45.08,4,4
18977.671,0.425,0.681,0.742,90.0,-71.57,-51.09,4,4
18977.687,0.449,0.691,0.786,107.61,-79.87,-56.09,4,4
18977.703,0.491,0.716,0.822,127.6,-90.7,-60.95,4,4
18977.703,0.565,0.795,0.843,148.81,-100.59,-67.17,4,4
18977.718,0.61,0.919,0.84,167.97,-108.1,-75.93,4,4
18977.734,0.601,1.007,0.819,182.84,-113.93,-84.78,4,4
18977.734,0.582,1.067,0.795,196.3,-119.63,-90.64,4,4
18977.75,0.519,1.125,0.729,214.27,-125.86,-93.51,4,4
18977.75,0.464,1.145,0.613,233.5,-134.1,-90.37,4,4
18977.765,0.464,1.15,0.482,250.22,-142.67,-85.33,4,4
18977.781,0.466,1.172,0.312,266.79,-146.7,-83.74,4,4
18977.781,0.448,1.27,0.114,276.28,-142.95,-78.92,4,4
18977.796,0.441,1.345,-0.075,270.46,-132.08,-66.35,4,4
18977.812,0.469,1.408,-0.25,251.41,-114.51,-48.4,4,4
18977.812,0.497,1.453,-0.348,226.2,-88.69,-27.86,4,4
18977.828,0.471,1.407,-0.41,202.31,-58.23,-9.52,4,4
18977.843,0.388,1.086,-0.501,175.02,0.95,9.67,4,4
18977.859,0.341,0.901,-0.505,186.77,23.04,-0.27,4,4
18977.859,0.28,0.773,-0.547,215.52,40.62,-17.82,4,4
18977.875,0.24,0.711,-0.602,243.17,53.65,-34.52,4,4
18977.89,0.235,0.676,-0.664,259.8,64.39,-49.29,4,4
18977.89,0.229,0.624,-0.752,265.97,76.54,-63.66,4,4
18977.906,0.181,0.552,-0.852,262.79,90.95,-79.71,4,4
18977.921,0.132,0.475,-0.919,253.49,102.76,-94.79,4,4
18977.921,0.11,0.38,-0.929,244.33,110.35,-103.12,4,4
18977.937,0.087,0.311,-0.923,244.42,119.39,-108.55,4,4
18977.953,0.061,0.254,-0.937,252.94,129.49,-107.49,4,4
18977.953,0.093,0.215,-0.944,261.06,143.65,-98.82,4,4
18977.968,0.112,0.219,-0.903,260.93,161.05,-84.54,4,4
18977.984,0.064,0.235,-0.848,252.48,176.37,-74.19,4,4
18977.984,-0.052,0.22,-0.757,230.87,179.91,-72.54,4,4
18978.0,-0.189,0.234,-0.644,201.06,167.09,-78.37,4,4
18978.015,-0.287,0.299,-0.545,170.32,137.61,-86.06,4,4
18978.015,-0.356,0.411,-0.458,138.4,97.96,-93.81,4,4
18978.031,-0.429,0.503,-0.407,113.5,52.86,-102.18,4,4
18978.046,-0.394,0.523,-0.409,99.83,7.48,-105.66,4,4
18978.046,-0.294,0.587,-0.445,96.07,-24.72,-107.18,4,4
18978.062,-0.175,0.529,-0.594,100.53,-49.9,-97.35,4,4
18978.062,0.002,0.66,-0.667,104.53,-42.88,-100.92,4,4
18978.078,0.026,0.656,-0.724,96.74,-18.92,-99.64,4,4
18978.093,0.002,0.649,-0.736,75.56,-4.76,-97.99,4,4
18978.093,-0.084,0.639,-0.695,44.34,5.71,-93.94,4,4
18978.109,-0.198,0.647,-0.637,11.26,13.67,-85.36,4,4
18978.125,-0.366,0.657,-0.588,-14.95,15.93,-76.27,4,4
18978.125,-0.435,0.643,-0.559,-35.1,11.66,-64.0,4,4
18978.14,-0.383,0.645,-0.554,-51.82,10.62,-50.23,4,4
18978.14,-0.349,0.663,-0.596,-61.92,18.98,-37.66,4,4
18978.156,-0.306,0.643,-0.631,-70.44,34.76,-25.33,4,4
18978.171,-0.289,0.606,-0.637,-78.65,56.12,-13.31,4,4
18978.171,-0.312,0.588,-0.65,-84.69,73.27,-1.92,4,4
18978.187,-0.318,0.603,-0.64,-92.84,85.7,10.07,4,4
18978.203,-0.356,0.621,-0.63,-103.85,95.0,18.95,4,4
18978.203,-0.346,0.62,-0.625,-124.21,96.1,17.76,4,4
18978.218,-0.237,0.614,-0.633,-126.13,93.05,7.14,4,4
18978.234,-0.1,0.63,-0.653,-116.55,92.35,-9.09,4,4
18978.234,0.042,0.664,-0.648,-97.32,94.45,-30.21,4,4
18978.25,0.293,0.811,-0.61,-75.01,96.47,-53.5,4,4
18978.25,0.319,0.947,-0.6,-57.44,99.03,-73.95,4,4
18978.265,0.346,1.054,-0.548,-52.0,100.25,-88.38,4,4
18978.281,0.366,1.106,-0.478,-55.48,97.75,-96.44,4,4
18978.281,0.389,1.17,-0.396,-57.56,94.52,-98.03,4,4
18978.296,0.447,1.222,-0.343,-55.36,91.1,-93.42,4,4
18978.312,0.522,1.252,-0.314,-54.14,88.08,-83.01,4,4
18978.312,0.57,1.294,-0.278,-55.33,86.37,-69.25,4,4
18978.328,0.56,1.334,-0.237,-56.12,84.11,-52.71,4,4
18978.343,0.531,1.362,-0.191,-58.47,79.13,-33.75,4,4
18978.343,0.482,1.375,-0.099,-64.18,70.68,-14.89,4,4
18978.359,0.448,1.367,-0.026,-65.52,56.34,1.92,4,4
18978.359,0.445,1.375,-0.002,-59.69,39.19,14.74,4,4
18978.375,0.435,1.364,-0.029,-49.2,23.56,24.05,4,4
18978.39,0.427,1.341,-0.104,-38.45,11.99,30.24,4,4
18978.406,0.431,1.291,-0.198,-32.04,4.61,34.3,4,4
18978.406,0.445,1.199,-0.251,-29.63,0.76,35.16,4,4
18978.421,0.469,1.137,-0.262,-26.03,1.53,32.29,4,4
18978.421,0.484,1.061,-0.262,-24.05,5.04,28.72,4,4
18978.437,0.432,0.959,-0.254,-28.69,7.87,28.11,4,4
18978.453,0.35,0.861,-0.199,-37.39,7.17,34.39,4,4
18978.453,0.3,0.734,-0.178,-46.42,0.37,46.36,4,4
18978.468,0.292,0.615,-0.204,-56.4,-11.75,57.47,4,4
18978.484,0.294,0.548,-0.177,-65.46,-24.72,63.45,4,4
18978.484,0.303,0.509,-0.188,-70.04,-38.18,64.49,4,4
18978.5,0.35,0.531,-0.228,-73.43,-49.01,62.75,4,4
18978.5,0.326,0.553,-0.225,-72.51,-55.42,59.18,4,4
18978.515,0.293,0.571,-0.235,-65.65,-57.95,48.62,4,4
18978.531,0.254,0.638,-0.257,-58.69,-58.99,39.58,4,4
18978.531,0.221,0.662,-0.264,-57.89,-58.41,30.58,4,4
18978.546,0.213,0.659,-0.254,-60.37,-56.15,19.62,4,4
18978.562,0.188,0.691,-0.224,-65.49,-53.1,10.71,4,4
18978.562,0.155,0.708,-0.155,-71.69,-51.24,8.3,4,4
18978.578,0.147,0.694,-0.098,-79.74,-52.28,15.05,4,4
18978.593,0.14,0.678,-0.011,-90.91,-55.94,26.64,4,4
18978.593,0.124,0.675,0.074,-99.73,-57.99,37.05,4,4
18978.609,0.069,0.684,0.174,-108.07,-59.57,40.19,4,4
18978.609,-0.024,0.659,0.223,-113.13,-63.05,33.17,4,4
18978.625,-0.058,0.6,0.255,-111.12,-67.51,20.66,4,4
18978.64,-0.086,0.622,0.255,-97.51,-69.34,2.72,4,4
18978.656,-0.136,0.658,0.19,-80.39,-67.57,-16.79,4,4
18978.656,-0.163,0.692,0.123,-70.44,-63.94,-32.53,4,4
18978.671,-0.135,0.759,0.087,-65.65,-60.61,-44.31,4,4
18978.671,-0.073,0.835,0.115,-59.76,-55.88,-50.66,4,4
18978.687,-0.05,0.892,0.159,-52.4,-51.82,-50.84,4,4
18978.703,-0.045,0.939,0.191,-47.09,-48.55,-42.6,4,4
18978.703,-0.003,0.985,0.207,-46.33,-46.27,-26.43,4,4
18978.718,0.046,1.028,0.233,-50.42,-45.69,-6.71,4,4
18978.734,0.09,1.045,0.267,-53.25,-45.63,14.04,4,4
18978.734,0.148,1.076,0.273,-55.24,-47.4,36.62,4,4
18978.75,0.177,1.071,0.211,-56.7,-50.23,57.41,4,4
18978.75,0.194,1.024,0.142,-59.14,-48.43,72.33,4,4
18978.765,0.156,0.992,0.122,-57.68,-40.71,82.25,4,4
18978.781,0.076,0.943,0.063,-50.05,-31.5,87.53,4,4
18978.781,0.065,0.922,0.011,-43.55,-23.44,90.64,4,4
18978.796,0.067,0.944,-0.014,-35.86,-16.91,87.74,4,4
18978.812,0.078,0.898,-0.078,-26.4,-11.05,79.68,4,4
18978.812,0.124,0.903,-0.036,-18.92,-3.33,71.75,4,4
18978.828,0.191,0.921,-0.015,-9.58,1.95,64.61,4,4
18978.843,0.247,0.928,0.006,-7.87,4.39,57.65,4,4
18978.843,0.32,0.898,0.019,-5.65,6.93,51.85,4,4
18978.859,0.365,0.868,-0.024,0.31,9.89,44.34,4,4
18978.859,0.381,0.841,-0.048,4.64,15.84,34.85,4,4
18978.875,0.396,0.833,-0.056,4.49,23.53,25.88,4,4
18978.89,0.365,0.843,0.024,-1.59,30.79,14.77,4,4
18978.89,0.347,0.817,0.107,-3.72,33.48,6.44,4,4
18978.906,0.357,0.844,0.174,-3.05,31.59,0.85,4,4
18978.921,0.375,0.877,0.171,-0.34,25.12,-5.16,4,4
18978.921,0.451,0.884,0.133,1.04,17.61,-11.11,4,4
18978.937,0.481,0.894,0.113,2.47,14.89,-17.43,4,4
18978.953,0.46,0.906,0.103,4.97,14.68,-21.88,4,4
18978.953,0.448,0.925,0.107,5.68,14.28,-23.19,4,4
18978.968,0.437,0.94,0.114,4.3,14.37,-23.1,4,4
18978.968,0.438,0.953,0.144,2.66,13.18,-21.82,4,4
18978.984,0.436,0.953,0.143,2.5,10.04,-20.57,4,4
18979.0,0.445,0.953,0.116,3.81,6.2,-20.45,4,4
18979.015,0.461,0.943,0.076,5.49,5.13,-20.48,4,4
18979.015,0.473,0.949,0.064,5.92,6.99,-18.98,4,4
18979.031,0.489,0.966,0.097,5.22,9.67,-13.79,4,4
18979.031,0.517,0.977,0.113,3.17,9.7,-5.34,4,4
18979.046,0.545,0.991,0.114,-0.61,8.79,3.72,4,4
18979.062,0.552,0.966,0.124,-6.62,8.06,12.76,4,4
18979.062,0.538,0.928,0.156,-12.54,6.29,21.61,4,4
18979.078,0.53,0.879,0.149,-15.23,4.0,28.69,4,4
18979.093,0.533,0.852,0.154,-18.22,2.01,32.2,4,4
18979.093,0.535,0.821,0.152,-19.47,0.67,32.32,4,4
18979.109,0.541,0.788,0.157,-20.23,-0.73,29.54,4,4
18979.125,0.519,0.786,0.18,-18.43,-1.43,23.99,4,4
18979.125,0.493,0.793,0.186,-14.62,-3.85,17.73,4,4
18979.14,0.482,0.804,0.203,-10.65,-8.39,12.09,4,4
18979.14,0.463,0.8,0.188,-5.77,-13.79,7.17,4,4
18979.156,0.469,0.807,0.161,-2.93,-18.46,3.91,4,4
18979.171,0.462,0.829,0.125,-2.9,-22.25,0.92,4,4
18979.171,0.462,0.837,0.096,-5.01,-26.09,-3.08,4,4
18979.187,0.448,0.844,0.082,-4.21,-27.13,-7.93,4,4
18979.203,0.396,0.859,0.052,1.56,-22.68,-15.26,4,4
18979.203,0.326,0.871,0.009,0.49,-19.26,-17.18,4,4
18979.218,0.279,0.883,-0.006,1.13,-15.41,-20.63,4,4
18979.218,0.229,0.921,-0.032,5.25,-11.93,-25.57,4,4
18979.234,0.223,0.962,-0.044,11.93,-8.48,-30.88,4,4
18979.25,0.224,1.013,-0.029,18.37,-4.67,-33.6,4,4
18979.25,0.265,1.042,-0.021,20.36,-2.08,-30.73,4,4
18979.265,0.322,1.057,0.016,16.33,-0.61,-21.55,4,4
18979.281,0.33,1.067,0.052,9.92,-1.04,-9.67,4,4
18979.281,0.333,1.04,0.068,1.8,-4.49,4.39,4,4
18979.296,0.336,0.997,0.061,-6.35,-9.37,17.61,4,4
18979.312,0.341,0.953,0.046,-12.27,-13.28,26.92,4,4
18979.312,0.345,0.903,0.012,-15.41,-15.38,32.14,4,4
18979.328,0.354,0.87,-0.016,-17.21,-15.44,33.63,4,4
18979.328,0.36,0.856,-0.023,-17.0,-13.98,31.4,4,4
18979.343,0.38,0.832,-0.01,-14.37,-11.99,27.22,4,4
18979.359,0.41,0.82,0.017,-9.95,-9.13,22.19,4,4
18979.375,0.428,0.829,0.049,-6.16,-6.71,16.27,4,4
18979.375,0.439,0.825,0.091,-4.55,-5.92,11.84,4,4
18979.39,0.465,0.834,0.135,-4.49,-7.02,9.19,4,4
18979.39,0.464,0.845,0.158,-5.49,-9.4,7.14,4,4
18979.406,0.459,0.841,0.173,-8.55,-13.86,6.2,4,4
18979.421,0.465,0.828,0.177,-11.14,-18.56,6.23,4,4
18979.421,0.472,0.829,0.158,-11.96,-22.31,6.1,4,4
18979.437,0.492,0.835,0.141,-11.75,-24.78,4.91,4,4
18979.453,0.493,0.839,0.136,-11.38,-25.94,2.32,4,4
18979.453,0.493,0.846,0.136,-10.77,-26.95,0.15,4,4
18979.468,0.494,0.856,0.145,-10.16,-28.72,-0.95,4,4
18979.484,0.487,0.858,0.147,-10.13,-30.7,-1.62,4,4
18979.484,0.485,0.858,0.14,-10.28,-32.99,-1.74,4,4
18979.5,0.486,0.862,0.142,-10.16,-34.79,-1.31,4,4
18979.5,0.477,0.859,0.137,-10.53,-35.98,-0.79,4,4
18979.515,0.459,0.856,0.136,-11.47,-37.17,-0.55,4,4
18979.531,0.445,0.854,0.131,-13.52,-38.97,-0.43,4,4
18979.531,0.433,0.853,0.129,-15.84,-40.77,-0.18,4,4
18979.546,0.424,0.854,0.116,-17.33,-42.18,0.15,4,4
18979.562,0.418,0.86,0.109,-18.1,-42.91,0.06,4,4
18979.562,0.402,0.86,0.103,-18.43,-42.94,0.03,4,4
18979.578,0.39,0.856,0.096,-18.92,-43.4,0.09,4,4
18979.578,0.393,0.852,0.091,-18.77,-43.89,-0.34,4,4
18979.593,0.4,0.85,0.089,-18.4,-43.98,-1.53,4,4
18979.609,0.412,0.848,0.093,-18.4,-43.98,-3.08,4,4
18979.625,0.412,0.842,0.107,-18.37,-43.86,-4.97,4,4
18979.625,0.414,0.839,0.116,-17.85,-44.43,-7.23,4,4
18979.64,0.408,0.837,0.121,-17.73,-45.35,-9.43,4,4
18979.64,0.406,0.839,0.117,-17.91,-46.91,-11.57,4,4
18979.656,0.398,0.838,0.115,-18.49,-49.2,-13.98,4,4
18979.671,0.406,0.838,0.113,-18.71,-51.27,-16.36,4,4
18979.671,0.405,0.845,0.106,-17.55,-52.86,-19.01,4,4
18979.687,0.408,0.859,0.106,-14.53,-53.47,-21.27,4,4
18979.703,0.411,0.876,0.1,-11.54,-53.41,-22.8,4,4
18979.703,0.409,0.881,0.104,-10.96,-53.16,-22.52,4,4
18979.718,0.407,0.88,0.121,-10.71,-52.74,-21.39,4,4
18979.718,0.394,0.889,0.118,-10.44,-52.03,-19.78,4,4
18979.734,0.405,0.886,0.129,-11.78,-53.04,-18.43,4,4
18979.75,0.427,0.885,0.137,-12.85,-54.38,-18.1,4,4
18979.75,0.425,0.894,0.132,-13.28,-55.33,-18.52,4,4
18979.765,0.422,0.888,0.146,-13.03,-56.49,-17.61,4,4
18979.781,0.421,0.888,0.148,-13.49,-58.05,-15.53,4,4
18979.781,0.428,0.897,0.139,-15.87,-59.88,-13.52,4,4
18979.796,0.418,0.89,0.141,-18.52,-61.13,-12.45,4,4
18979.812,0.407,0.876,0.144,-19.47,-62.96,-12.36,4,4
18979.812,0.41,0.88,0.145,-18.49,-64.61,-13.52,4,4
18979.828,0.401,0.893,0.144,-16.21,-65.19,-15.35,4,4
18979.843,0.383,0.911,0.139,-14.89,-65.77,-16.21,4,4
18979.843,0.376,0.92,0.133,-15.32,-66.53,-15.9,4,4
18979.859,0.369,0.933,0.134,-17.06,-67.05,-14.98,4,4
18979.859,0.349,0.934,0.143,-19.5,-68.06,-13.46,4,4
18979.875,0.346,0.93,0.142,-21.7,-70.47,-11.26,4,4
18979.89,0.355,0.933,0.134,-23.13,-72.05,-9.19,4,4
18979.906,0.351,0.933,0.128,-23.26,-72.24,-8.15,4,4
18979.906,0.347,0.934,0.127,-23.04,-71.32,-7.17,4,4
18979.921,0.33,0.931,0.132,-22.49,-69.92,-5.95,4,4
18979.921,0.322,0.925,0.126,-21.88,-69.98,-4.73,4,4
18979.937,0.332,0.925,0.115,-22.31,-70.22,-3.88,4,4
18979.953,0.328,0.93,0.114,-22.61,-69.52,-4.03,4,4
18979.953,0.318,0.941,0.131,-22.83,-69.67,-4.85,4,4
18979.968,0.319,0.948,0.157,-22.83,-71.29,-4.73,4,4
18979.968,0.313,0.953,0.156,-23.16,-73.31,-3.69,4,4
18979.984,0.309,0.955,0.152,-24.75,-74.8,-1.8,4,4
18980.0,0.299,0.942,0.146,-27.38,-75.87,0.24,4,4
18980.0,0.297,0.931,0.142,-29.33,-76.88,1.59,4,4
18980.015,0.29,0.941,0.144,-29.24,-77.39,0.76,4,4
18980.031,0.27,0.933,0.129,-27.56,-78.55,-1.77,4,4
18980.031,0.279,0.937,0.103,-25.57,-79.78,-4.3,4,4
18980.046,0.281,0.944,0.09,-23.8,-79.41,-6.9,4,4
18980.062,0.287,0.945,0.09,-22.77,-77.55,-8.48,4,4
18980.062,0.282,0.959,0.118,-21.52,-75.84,-10.32,4,4
18980.078,0.261,0.965,0.137,-18.92,-75.11,-12.36,4,4
18980.093,0.252,0.982,0.131,-17.27,-76.45,-13.61,4,4
18980.093,0.265,1.003,0.125,-16.33,-78.55,-13.79,4,4
18980.109,0.27,1.008,0.116,-15.32,-79.47,-13.28,4,4
18980.109,0.271,1.017,0.112,-14.4,-79.53,-12.24,4,4
18980.125,0.273,1.033,0.122,-13.58,-78.4,-10.04,4,4
18980.14,0.257,1.047,0.139,-14.5,-77.46,-7.45,4,4
18980.14,0.24,1.053,0.158,-16.27,-77.76,-4.79,4,4
18980.156,0.227,1.051,0.146,-17.79,-78.71,-2.08,4,4
18980.171,0.221,1.045,0.119,-19.62,-79.74,1.37,4,4
18980.187,0.227,1.036,0.097,-21.61,-80.11,10.8,4,4
18980.187,0.253,1.024,0.071,-22.52,-77.94,13.95,4,4
18980.203,0.281,1.016,0.061,-22.43,-73.95,15.32,4,4
18980.203,0.275,1.001,0.071,-23.19,-70.25,16.75,4,4
18980.218,0.247,0.965,0.129,-24.26,-68.91,17.58,4,4
18980.234,0.227,0.95,0.142,-24.38,-69.64,17.33,4,4
18980.234,0.22,0.925,0.133,-25.73,-72.88,16.42,4,4
18980.25,0.23,0.917,0.104,-27.16,-76.14,14.59,4,4
18980.265,0.22,0.91,0.094,-28.23,-77.18,12.02,4,4
18980.265,0.226,0.9,0.095,-28.44,-77.55,9.7,4,4
18980.281,0.245,0.902,0.095,-26.95,-77.21,7.2,4,4
18980.281,0.256,0.928,0.095,-24.29,-77.55,3.66,4,4
18980.296,0.246,0.948,0.083,-21.45,-77.73,0.49,4,4
18980.312,0.247,0.968,0.067,-21.45,-77.18,-1.13,4,4
18980.312,0.241,0.978,0.068,-23.99,-75.99,-1.92,4,4
18980.328,0.235,0.967,0.068,-25.39,-75.84,-1.34,4,4
18980.343,0.237,0.969,0.046,-23.93,-76.51,0.24,4,4
18980.343,0.236,0.976,0.03,-22.34,-76.39,1.86,4,4
18980.359,0.233,0.978,0.026,-22.46,-75.81,3.11,4,4
18980.359,0.24,0.978,0.039,-23.74,-75.23,4.61,4,4
18980.375,0.241,0.966,0.038,-24.14,-74.65,5.37,4,4
18980.39,0.235,0.954,0.021,-24.63,-73.92,5.07,4,4
18980.406,0.241,0.945,0.014,-26.22,-73.0,5.1,4,4
18980.406,0.232,0.928,0.006,-27.8,-72.18,5.13,4,4
18980.421,0.263,0.923,0.014,-27.83,-71.47,5.34,4,4
18980.421,0.283,0.936,0.028,-25.21,-69.8,4.33,4,4
18980.437,0.287,0.941,0.041,-22.58,-68.06,3.17,4,4
18980.453,0.291,0.94,0.073,-21.18,-67.29,2.9,4,4
18980.453,0.268,0.947,0.082,-18.92,-67.29,2.2,4,4
18980.468,0.258,0.947,0.064,-18.37,-68.91,2.01,4,4
18980.484,0.261,0.934,0.035,-19.68,-70.59,2.5,4,4
18980.484,0.277,0.927,0.013,-21.21,-70.83,2.9,4,4
18980.5,0.286,0.93,0.007,-21.97,-69.58,3.17,4,4
18980.5,0.3,0.929,0.015,-22.16,-68.12,3.72,4,4
18980.515,0.318,0.929,0.019,-22.68,-66.53,4.24,4,4
18980.531,0.335,0.934,0.044,-23.5,-64.85,4.43,4,4
18980.546,0.314,0.927,0.071,-22.98,-63.42,3.51,4,4
18980.546,0.286,0.919,0.076,-22.64,-63.81,3.3,4,4
18980.562,0.265,0.905,0.076,-22.55,-66.5,3.39,4,4
18980.562,0.269,0.895,0.054,-20.78,-69.83,2.35,4,4
18980.578,0.286,0.904,0.029,-19.17,-71.6,0.06,4,4
18980.593,0.292,0.909,0.023,-18.43,-71.35,-1.74,4,4
18980.593,0.301,0.907,0.018,-18.43,-70.38,-1.89,4,4
18980.609,0.308,0.907,0.01,-18.43,-68.54,-1.22,4,4
18980.609,0.302,0.906,0.028,-18.89,-65.68,-0.27,4,4
18980.625,0.269,0.899,0.047,-19.38,-63.39,-0.31,4,4
18980.64,0.245,0.886,0.06,-19.75,-63.42,-0.95,4,4
18980.64,0.245,0.874,0.053,-20.17,-65.03,-1.8,4,4
18980.656,0.259,0.872,0.042,-19.99,-67.81,-4.67,4,4
18980.671,0.287,0.873,0.023,-17.46,-70.28,-9.77,4,4
18980.687,0.312,0.891,0.008,-13.95,-70.86,-16.57,4,4
18980.687,0.304,0.905,-0.007,-10.86,-69.4,-22.86,4,4
18980.703,0.307,0.926,-0.001,-9.55,-67.72,-26.25,4,4
18980.703,0.309,0.945,0.017,-8.7,-65.86,-27.77,4,4
18980.718,0.29,0.958,0.031,-8.55,-64.39,-27.95,4,4
18980.734,0.272,0.975,0.036,-9.03,-64.64,-26.28,4,4
18980.734,0.258,0.992,0.041,-9.43,-65.83,-23.35,4,4
18980.75,0.239,1.014,0.035,-10.65,-67.42,-20.57,4,4
18980.75,0.217,1.004,0.025,-12.82,-68.7,-16.36,4,4
18980.765,0.218,1.015,0.005,-14.92,-70.77,-12.45,4,4
18980.781,0.204,0.976,-0.004,-16.27,-69.25,-6.81,4,4
18980.781,0.234,0.996,-0.008,-16.48,-68.51,-1.37,4,4
18980.796,0.227,1.009,-0.026,-15.99,-66.62,0.09,4,4
18980.812,0.197,0.973,-0.022,-18.1,-63.02,1.59,4,4
18980.812,0.204,0.981,0.009,-19.68,-61.65,2.93,4,4
18980.828,0.192,0.971,0.006,-18.92,-60.82,4.03,4,4
18980.843,0.206,0.967,0.001,-18.46,-60.79,5.52,4,4
18980.843,0.217,0.964,-0.009,-16.82,-60.43,5.95,4,4
18980.859,0.209,0.959,-0.021,-16.94,-60.0,7.32,4,4
18980.859,0.22,0.956,-0.021,-19.5,-59.33,10.1,4,4
18980.875,0.223,0.955,-0.017,-21.94,-57.68,12.39,4,4
18980.89,0.23,0.939,-0.009,-23.5,-55.97,13.73,4,4
18980.906,0.233,0.938,-0.001,-23.9,-55.18,13.64,4,4
18980.906,0.23,0.931,0.004,-23.01,-54.69,12.97,4,4
18980.921,0.245,0.938,-0.0,-21.94,-55.21,11.14,4,4
18980.921,0.25,0.932,-0.0,-21.61,-55.3,8.61,4,4
18980.937,0.26,0.924,0.01,-19.93,-55.39,5.68,4,4
18980.953,0.258,0.938,0.007,-16.54,-54.2,2.9,4,4
18980.953,0.243,0.969,0.01,-15.17,-53.22,0.79,4,4
18980.968,0.242,0.979,0.019,-16.85,-53.59,-0.24,4,4
18980.968,0.247,0.979,0.013,-18.59,-54.38,-1.1,4,4
18980.984,0.251,0.963,0.006,-17.27,-54.6,-1.56,4,4
18981.0,0.256,0.962,-0.005,-14.47,-54.29,-2.11,4,4
18981.0,0.257,0.966,-0.015,-13.15,-54.08,-3.36,4,4
18981.015,0.254,0.965,-0.019,-12.85,-53.8,-4.52,4,4
18981.031,0.254,0.969,-0.018,-12.63,-53.77,-5.8,4,4
18981.046,0.261,0.974,-0.017,-11.38,-54.29,-7.66,4,4
18981.046,0.27,0.985,-0.02,-8.33,-54.6,-10.68,4,4
18981.062,0.267,0.991,-0.023,-4.58,-54.11,-13.82,4,4
18981.062,0.27,1.001,-0.03,-2.5,-53.41,-15.87,4,4
18981.078,0.272,1.003,-0.037,-1.8,-52.52,-16.66,4,4
18981.093,0.27,1.004,-0.034,-1.95,-50.75,-14.68,4,4
18981.093,0.266,1.018,-0.035,-2.99,-49.13,-10.19,4,4
18981.109,0.25,1.021,-0.029,-5.65,-47.49,-3.48,4,4
18981.109,0.248,1.025,-0.009,-9.74,-47.27,4.76,4,4
18981.125,0.249,1.011,-0.004,-13.76,-48.19,12.67,4,4
18981.14,0.265,0.978,-0.005,-17.76,-48.8,19.53,4,4
18981.14,0.292,0.954,-0.007,-19.26,-48.8,23.38,4,4
18981.156,0.293,0.935,-0.018,-19.2,-47.7,23.83,4,4
18981.171,0.301,0.906,-0.019,-16.45,-45.96,18.37,4,4
18981.187,0.32,0.893,-0.02,-13.55,-44.74,12.36,4,4
18981.187,0.312,0.888,-0.023,-12.73,-43.92,7.54,4,4
18981.203,0.305,0.913,0.009,-12.82,-43.34,4.3,4,4
18981.203,0.303,0.931,0.021,-13.76,-43.37,3.63,4,4
18981.218,0.292,0.931,0.037,-15.81,-44.8,5.34,4,4
18981.234,0.3,0.946,0.035,-17.06,-47.43,7.75,4,4
18981.234,0.296,0.952,0.025,-17.33,-49.53,9.77,4,4
18981.25,0.278,0.936,0.002,-17.88,-51.03,11.6,4,4
18981.25,0.285,0.915,-0.022,-17.98,-51.91,12.7,4,4
18981.265,0.289,0.899,-0.04,-16.33,-50.08,12.36,4,4
18981.281,0.278,0.884,-0.051,-14.56,-46.94,10.9,4,4
18981.281,0.292,0.876,-0.054,-13.73,-44.71,9.49,4,4
18981.296,0.318,0.898,-0.046,-14.07,-43.4,7.23,4,4
18981.312,0.338,0.916,-0.03,-14.62,-42.73,3.36,4,4
18981.312,0.34,0.923,-0.007,-13.86,-42.15,0.03,4,4
18981.328,0.332,0.956,0.02,-12.88,-41.93,-1.4,4,4
18981.343,0.31,0.967,0.033,-12.39,-42.97,-1.31,4,4
18981.343,0.302,0.955,0.039,-12.33,-45.87,-0.79,4,4
18981.359,0.292,0.944,0.031,-11.54,-48.49,-0.76,4,4
18981.375,0.285,0.926,0.011,-11.51,-50.33,-0.4,4,4
18981.375,0.302,0.925,-0.012,-11.54,-51.09,-0.46,4,4
18981.39,0.316,0.929,-0.04,-11.14,-50.42,-1.98,4,4
18981.406,0.314,0.928,-0.067,-11.63,-47.55,-4.39,4,4
18981.406,0.321,0.924,-0.085,-12.73,-43.18,-7.2,4,4
18981.421,0.319,0.921,-0.069,-12.51,-38.03,-10.83,4,4
18981.421,0.281,0.909,-0.037,-9.19,-33.14,-14.86,4,4
18981.437,0.251,0.909,-0.003,-2.5,-31.5,-17.76,4,4
18981.453,0.238,0.941,0.008,4.3,-33.08,-19.65,4,4
18981.453,0.215,0.984,0.004,6.2,-36.35,-19.96,4,4
18981.468,0.223,1.0,-0.003,3.17,-40.86,-17.52,4,4
18981.468,0.251,1.001,-0.01,-0.64,-43.76,-13.18,4,4
18981.484,0.265,0.995,-0.019,-3.2,-43.76,-8.3,4,4
18981.5,0.26,0.98,-0.035,-5.62,-42.39,-3.08,4,4
18981.5,0.258,0.944,-0.047,-7.97,-41.02,0.55,4,4
18981.515,0.275,0.909,-0.06,-8.76,-39.74,0.52,4,4
18981.531,0.271,0.923,-0.077,-8.82,-36.9,-2.72,4,4
18981.531,0.233,0.945,-0.069,-8.39,-33.66,-7.02,4,4
18981.546,0.189,0.956,-0.054,-6.07,-31.95,-9.03,4,4
18981.562,0.177,0.956,-0.078,-3.97,-31.89,-7.29,4,4
18981.562,0.189,0.939,-0.075,-4.85,-32.5,-4.61,4,4
18981.578,0.207,0.904,-0.067,-6.26,-32.56,-3.2,4,4
18981.593,0.243,0.881,-0.065,-8.36,-32.23,-4.15,4,4
18981.593,0.238,0.901,-0.059,-13.03,-30.52,-6.74,4,4
18981.609,0.223,0.898,-0.053,-19.17,-31.1,-10.47,4,4
18981.609,0.236,0.891,-0.039,-23.96,-33.27,-15.66,4,4
18981.625,0.223,0.886,-0.008,-24.26,-35.07,-22.06,4,4
18981.64,0.203,0.856,0.017,-18.52,-37.97,-27.28,4,4
18981.656,0.202,0.821,0.024,-6.96,-41.84,-30.58,4,4
18981.656,0.241,0.807,0.001,5.55,-45.63,-33.85,4,4
18981.671,0.278,0.825,-0.017,12.15,-46.6,-39.0,4,4
18981.671,0.272,0.835,-0.008,13.21,-46.3,-46.78,4,4
18981.687,0.216,0.864,-0.002,11.54,-45.38,-53.13,4,4
18981.703,0.165,0.903,-0.004,6.96,-46.63,-55.82,4,4
18981.703,0.146,0.908,-0.028,3.23,-49.26,-54.96,4,4
18981.718,0.146,0.934,-0.072,0.18,-50.57,-51.39,4,4
18981.718,0.129,1.003,-0.096,-3.23,-51.45,-46.91,4,4
18981.734,0.111,1.022,-0.106,-3.69,-52.19,-41.78,4,4
18981.75,0.138,1.018,-0.119,-1.43,-51.85,-35.22,4,4
18981.75,0.163,1.02,-0.136,3.27,-48.77,-29.39,4,4
18981.765,0.175,1.036,-0.143,6.5,-43.49,-24.69,4,4
18981.781,0.166,1.048,-0.129,6.41,-38.42,-21.15,4,4
18981.796,0.144,1.075,-0.114,4.55,-34.7,-17.24,4,4
18981.796,0.082,1.129,-0.12,-0.61,-33.05,-10.41,4,4
18981.812,0.08,1.151,-0.111,-8.97,-34.46,0.98,4,4
18981.812,0.12,1.145,-0.103,-15.26,-34.61,13.43,4,4
18981.828,0.154,1.118,-0.106,-17.85,-34.36,23.93,4,4
18981.843,0.177,1.065,-0.108,-20.26,-32.26,33.57,4,4
18981.843,0.205,1.025,-0.09,-23.04,-28.78,40.38,4,4
18981.859,0.202,0.972,-0.071,-23.44,-25.61,42.27,4,4
18981.859,0.198,0.928,-0.057,-23.56,-23.8,41.47,4,4
18981.875,0.21,0.939,-0.042,-23.87,-24.02,36.47,4,4
18981.89,0.223,0.927,-0.031,-22.06,-25.97,27.25,4,4
18981.89,0.221,0.908,-0.015,-18.13,-26.92,17.67,4,4
18981.906,0.209,0.916,0.01,-11.32,-28.05,10.07,4,4
18981.921,0.217,0.91,0.013,-2.93,-30.43,5.01,4,4
18981.921,0.223,0.912,0.004,2.93,-32.44,0.73,4,4
18981.937,0.218,0.923,-0.019,5.58,-34.15,-3.45,4,4
18981.953,0.205,0.928,-0.038,4.73,-35.4,-7.42,4,4
18981.953,0.2,0.942,-0.041,2.17,-36.47,-10.04,4,4
18981.968,0.203,0.952,-0.053,-0.31,-36.84,-11.2,4,4
18981.968,0.201,0.942,-0.061,-1.62,-35.31,-11.38,4,4
18981.984,0.189,0.93,-0.069,-1.19,-32.65,-10.96,4,4
18982.0,0.165,0.922,-0.074,-0.7,-29.54,-9.49,4,4
18982.0,0.142,0.927,-0.079,-2.29,-27.65,-6.93,4,4
18982.015,0.12,0.941,-0.068,-5.55,-27.8,-4.76,4,4
18982.031,0.124,0.93,-0.06,-6.78,-29.91,-3.6,4,4
18982.031,0.132,0.934,-0.068,-6.62,-32.07,-2.81,4,4
18982.046,0.145,0.928,-0.075,-6.07,-33.23,-1.53,4,4
18982.062,0.163,0.913,-0.082,-5.8,-32.44,0.27,4,4
18982.062,0.169,0.921,-0.088,-6.99,-30.4,1.86,4,4
18982.078,0.172,0.927,-0.088,-9.58,-29.54,2.93,4,4
18982.093,0.175,0.924,-0.075,-10.71,-28.57,2.44,4,4
18982.093,0.187,0.932,-0.076,-9.8,-27.41,1.22,4,4
18982.109,0.203,0.933,-0.078,-8.55,-26.4,0.95,4,4
18982.109,0.215,0.924,-0.062,-7.72,-25.03,1.34,4,4
18982.125,0.227,0.909,-0.05,-6.65,-23.83,1.68,4,4
18982.14,0.213,0.917,-0.042,-7.17,-23.22,1.46,4,4
18982.14,0.2,0.925,-0.035,-9.86,-26.09,-3.27,4,4
18982.156,0.189,0.93,-0.038,-9.61,-27.44,-6.44,4,4
18982.171,0.179,0.949,-0.043,-8.24,-28.41,-8.12,4,4
18982.171,0.185,0.968,-0.055,-7.48,-28.26,-7.63,4,4
18982.187,0.175,1.008,-0.062,-7.29,-27.77,-5.1,4,4
18982.203,0.181,1.006,-0.062,-8.55,-26.86,-1.31,4,4
18982.203,0.168,1.015,-0.063,-11.32,-25.3,2.96,4,4
18982.218,0.16,1.012,-0.058,-14.13,-24.81,6.53,4,4
18982.234,0.179,1.006,-0.057,-16.48,-25.27,8.79,4,4
18982.234,0.184,1.011,-0.063,-17.46,-25.39,9.86,4,4
18982.25,0.187,0.996,-0.052,-16.21,-25.3,10.28,4,4
18982.25,0.188,0.979,-0.047,-12.94,-25.06,10.47,4,4
18982.265,0.18,0.971,-0.055,-10.16,-24.9,10.35,4,4
18982.281,0.176,0.98,-0.061,-10.8,-26.25,9.13,4,4
18982.296,0.15,0.981,-0.076,-12.09,-28.23,5.46,4,4
18982.296,0.095,0.94,-0.086,-12.12,-29.18,2.87,4,4
18982.312,0.103,0.973,-0.096,-9.16,-30.03,1.83,4,4
18982.312,0.169,0.967,-0.121,-2.84,-26.46,2.87,4,4
18982.328,0.194,1.056,-0.174,2.53,-24.48,-4.09,4,4
18982.343,0.124,1.005,-0.178,-0.73,-18.68,-8.21,4,4
18982.343,0.141,1.0,-0.114,-5.74,-15.44,-3.54,4,4
18982.359,0.135,1.054,-0.116,0.67,-11.87,-1.16,4,4
18982.359,0.077,1.022,-0.126,4.15,-8.03,1.83,4,4
18982.375,0.066,1.03,-0.126,0.95,-10.01,3.78,4,4
18982.39,0.048,1.017,-0.137,-3.48,-13.55,4.97,4,4
18982.406,0.094,1.008,-0.133,-7.26,-15.29,8.27,4,4
18982.406,0.11,1.011,-0.137,-6.07,-14.44,6.74,4,4
18982.421,0.102,0.982,-0.143,-3.23,-11.08,5.83,4,4
18982.421,0.134,0.986,-0.147,-0.7,-8.3,6.71,4,4
18982.437,0.158,0.992,-0.147,0.18,-4.52,7.29,4,4
18982.453,0.192,0.972,-0.124,-2.66,-0.7,8.7,4,4
18982.453,0.19,0.954,-0.084,-5.52,3.2,10.04,4,4
18982.468,0.17,0.956,-0.047,-6.26,6.71,9.09,4,4
18982.468,0.117,0.919,-0.028,-6.62,5.43,7.32,4,4
18982.484,0.108,0.905,-0.014,-6.71,-0.73,6.59,4,4
18982.5,0.132,0.918,-0.023,-4.06,-6.01,5.49,4,4
18982.5,0.154,0.927,-0.041,-2.29,-9.92,3.69,4,4
18982.515,0.179,0.919,-0.059,-1.77,-12.39,1.86,4,4
18982.531,0.206,0.929,-0.078,-1.46,-12.73,0.0,4,4
18982.531,0.207,0.94,-0.095,-1.13,-10.77,-2.01,4,4
18982.546,0.191,0.942,-0.1,-1.04,-7.81,-3.17,4,4
18982.562,0.178,0.942,-0.104,-1.19,-5.55,-3.02,4,4
18982.562,0.174,0.94,-0.104,-1.43,-3.36,-2.26,4,4
18982.578,0.177,0.944,-0.09,-1.83,-1.53,-1.59,4,4
18982.593,0.178,0.945,-0.078,-1.01,-0.76,-1.25,4,4
18982.593,0.182,0.957,-0.067,-0.85,-1.19,0.0,4,4
18982.609,0.177,0.964,-0.053,-1.1,-2.38,0.79,4,4
18982.609,0.172,0.956,-0.055,-0.82,-4.12,1.34,4,4
18982.625,0.19,0.955,-0.07,-1.77,-4.91,2.62,4,4
18982.64,0.206,0.948,-0.082,-3.27,-4.0,3.27,4,4
18982.64,0.212,0.937,-0.083,-3.78,-2.08,3.27,4,4
18982.656,0.229,0.939,-0.078,-3.33,0.15,3.11,4,4
18982.671,0.228,0.949,-0.067,-2.96,2.2,3.14,4,4
18982.687,0.216,0.948,-0.063,-2.84,3.14,2.53,4,4
18982.687,0.207,0.939,-0.055,-3.05,3.23,1.71,4,4
18982.703,0.19,0.935,-0.042,-1.8,2.96,1.13,4,4
18982.703,0.172,0.935,-0.049,-0.31,2.08,1.22,4,4
18982.718,0.182,0.943,-0.057,-1.07,0.34,1.04,4,4
18982.718,0.2,0.953,-0.05,-2.9,-1.28,0.06,4,4
18982.734,0.196,0.953,-0.041,-3.48,-1.77,-0.95,4,4
18982.75,0.199,0.955,-0.045,-2.78,-2.32,-0.82,4,4
18982.765,0.208,0.964,-0.056,-2.26,-2.5,-0.03,4,4
18982.765,0.214,0.961,-0.07,-3.3,-1.77,0.82,4,4
18982.781,0.226,0.949,-0.075,-4.61,-0.46,1.56,4,4
18982.781,0.232,0.945,-0.07,-5.46,1.16,1.25,4,4
18982.796,0.216,0.934,-0.06,-4.58,3.05,-0.06,4,4
18982.812,0.216,0.936,-0.059,-2.56,4.06,-1.65,4,4
18982.812,0.212,0.953,-0.052,-0.64,5.13,-3.42,4,4
18982.828,0.189,0.965,-0.037,1.25,5.89,-4.88,4,4
18982.843,0.175,0.98,-0.034,2.04,4.55,-4.33,4,4
18982.843,0.198,0.992,-0.035,0.52,2.62,-1.92,4,4
18982.859,0.224,0.995,-0.029,-2.87,2.04,1.56,4,4
18982.859,0.231,0.981,-0.03,-6.1,1.92,4.61,4,4
18982.875,0.234,0.966,-0.025,-8.21,1.62,6.32,4,4
18982.89,0.227,0.949,-0.03,-8.24,1.92,6.2,4,4
18982.89,0.226,0.946,-0.038,-7.32,2.59,5.52,4,4
18982.906,0.222,0.941,-0.041,-6.29,3.45,4.88,4,4
18982.921,0.229,0.936,-0.03,-5.77,4.09,4.7,4,4
18982.921,0.225,0.936,-0.013,-4.43,4.24,3.81,4,4
18982.937,0.218,0.938,-0.01,-2.53,3.05,2.44,4,4
18982.953,0.231,0.944,-0.012,-1.8,1.4,0.43,4,4
18982.953,0.235,0.949,-0.017,-1.37,0.58,-1.95,4,4
18982.968,0.247,0.95,-0.027,0.0,-0.03,-3.63,4,4
18982.984,0.251,0.96,-0.038,1.5,0.24,-4.46,4,4
18982.984,0.255,0.963,-0.049,2.32,1.98,-4.55,4,4
18983.0,0.269,0.969,-0.052,2.14,4.15,-4.27,4,4
18983.0,0.274,0.982,-0.043,1.56,6.78,-3.69,4,4
18983.015,0.266,0.987,-0.022,1.1,8.55,-3.14,4,4
18983.031,0.266,0.982,0.001,1.68,8.91,-2.59,4,4
18983.031,0.259,0.986,0.015,2.81,8.3,-1.04,4,4
18983.046,0.246,0.988,0.028,2.69,6.53,0.82,4,4
18983.062,0.251,0.984,0.027,0.49,4.12,3.3,4,4
18983.062,0.245,0.971,0.026,-2.81,1.98,5.8,4,4
18983.078,0.247,0.952,0.02,-5.22,-0.03,7.48,4,4
18983.078,0.262,0.941,0.024,-6.59,-1.71,7.84,4,4
18983.093,0.259,0.935,0.03,-6.01,-2.5,6.74,4,4
18983.109,0.247,0.93,0.023,-4.27,-3.57,5.49,4,4
18983.109,0.247,0.934,0.005,-3.17,-5.19,5.04,4,4
