timestamp,ax,ay,az,gx,gy,gz,orient_label,motion_label
18921.375,0.487,0.884,-0.09,15.02,14.98,-22.8,4,4
18921.39,0.489,0.893,-0.089,16.39,14.13,-19.65,4,4
18921.39,0.48,0.919,-0.101,17.27,13.43,-15.08,4,4
18921.406,0.48,0.934,-0.107,15.26,12.02,-8.64,4,4
18921.421,0.496,0.928,-0.11,10.74,10.01,-2.17,4,4
18921.421,0.505,0.911,-0.122,7.17,8.76,2.93,4,4
18921.437,0.502,0.891,-0.131,6.01,9.0,6.71,4,4
18921.453,0.496,0.876,-0.128,6.1,9.83,9.37,4,4
18921.453,0.484,0.862,-0.119,6.44,10.13,10.41,4,4
18921.468,0.475,0.844,-0.112,7.02,9.67,10.41,4,4
18921.468,0.465,0.839,-0.108,6.74,8.42,9.61,4,4
18921.484,0.451,0.832,-0.1,6.16,6.23,7.75,4,4
18921.5,0.45,0.824,-0.097,5.58,3.02,4.67,4,4
18921.515,0.456,0.812,-0.109,5.92,-0.06,0.58,4,4
18921.515,0.461,0.81,-0.12,7.14,-1.77,-4.21,4,4
18921.515,0.463,0.808,-0.13,8.88,-2.11,-9.25,4,4
18921.531,0.455,0.816,-0.133,10.28,-1.8,-14.34,4,4
18921.546,0.422,0.847,-0.125,12.18,0.34,-21.03,4,4
18921.562,0.413,0.864,-0.121,11.84,1.25,-22.13,4,4
18921.578,0.409,0.875,-0.121,11.11,2.35,-22.77,4,4
18921.578,0.406,0.888,-0.114,9.95,3.45,-22.55,4,4
18921.593,0.413,0.897,-0.108,8.15,4.43,-20.94,4,4
18921.609,0.42,0.902,-0.108,6.5,5.86,-18.22,4,4
18921.625,0.426,0.909,-0.11,6.23,7.97,-14.53,4,4
18921.625,0.434,0.914,-0.109,5.89,10.8,-10.25,4,4
18921.64,0.433,0.914,-0.09,4.46,14.13,-6.56,4,4
18921.64,0.42,0.914,-0.068,3.39,16.33,-3.42,4,4
18921.656,0.415,0.913,-0.05,3.39,17.58,-0.58,4,4
18921.671,0.415,0.915,-0.037,3.97,18.65,1.92,4,4
18921.671,0.414,0.917,-0.03,4.7,19.65,3.78,4,4
18921.687,0.413,0.912,-0.021,5.8,20.66,5.07,4,4
18921.687,0.41,0.904,-0.006,6.62,21.97,5.31,4,4
18921.703,0.397,0.895,0.019,8.18,23.47,4.52,4,4
18921.734,0.372,0.902,0.116,16.91,24.17,-0.89,4,4
18921.734,0.348,0.913,0.171,24.41,21.82,-4.49,4,4
18921.75,0.342,0.943,0.214,31.92,17.06,-6.16,4,4
18921.75,0.32,0.992,0.239,36.84,10.38,-5.01,4,4
18921.765,0.281,1.022,0.253,38.27,1.77,0.03,4,4
18921.781,0.254,1.021,0.233,36.23,-7.66,9.4,4,4
18921.796,0.241,1.004,0.193,30.76,-15.14,20.87,4,4
18921.796,0.241,0.952,0.153,24.72,-19.5,32.53,4,4
18921.812,0.253,0.871,0.103,19.65,-18.77,42.05,4,4
18921.812,0.247,0.8,0.077,15.99,-12.6,48.13,4,4
18921.828,0.228,0.743,0.07,13.43,-3.57,51.76,4,4
18921.843,0.203,0.693,0.076,10.13,6.38,53.83,4,4
18921.843,0.193,0.654,0.075,4.97,15.72,55.39,4,4
18921.859,0.197,0.642,0.064,-4.52,21.61,57.34,4,4
18921.875,0.205,0.631,0.088,-17.46,25.18,58.08,4,4
18921.875,0.203,0.594,0.115,-28.72,27.89,56.55,4,4
18921.89,0.219,0.523,0.119,-45.59,30.21,48.04,4,4
18921.906,0.224,0.486,0.115,-52.61,32.78,41.96,4,4
18921.921,0.233,0.456,0.106,-60.49,35.92,35.62,4,4
18921.921,0.261,0.434,0.087,-70.65,37.81,30.73,4,4
18921.937,0.317,0.415,0.053,-83.13,37.84,27.28,4,4
18921.953,0.383,0.41,0.033,-96.41,38.97,22.68,4,4
18921.953,0.468,0.391,0.048,-106.66,43.0,15.05,4,4
18921.968,0.535,0.375,0.081,-111.21,49.68,3.54,4,4
18921.968,0.554,0.37,0.111,-110.51,57.95,-11.11,4,4
18921.984,0.531,0.356,0.162,-106.75,66.71,-27.47,4,4
18922.0,0.46,0.348,0.233,-100.77,72.91,-43.52,4,4
18922.0,0.387,0.359,0.281,-94.55,71.23,-56.46,4,4
18922.015,0.38,0.449,0.282,-94.12,62.99,-62.84,4,4
18922.031,0.393,0.566,0.286,-103.24,51.39,-65.65,4,4
18922.031,0.4,0.644,0.316,-117.37,39.34,-69.46,4,4
18922.046,0.399,0.689,0.33,-133.61,27.38,-73.12,4,4
18922.062,0.405,0.71,0.329,-150.73,16.85,-76.63,4,4
18922.062,0.411,0.686,0.317,-164.04,10.62,-82.86,4,4
18922.078,0.407,0.636,0.316,-170.54,8.73,-93.14,4,4
18922.078,0.451,0.605,0.319,-168.03,9.64,-107.46,4,4
18922.093,0.384,0.56,0.305,-159.22,12.67,-122.93,4,4
18922.109,0.391,0.579,0.304,-151.28,11.63,-132.6,4,4
18922.109,0.384,0.667,0.315,-142.52,13.64,-146.34,4,4
18922.125,0.335,0.763,0.345,-147.04,13.55,-148.05,4,4
18922.14,0.3,0.883,0.358,-156.65,11.08,-146.55,4,4
18922.14,0.282,0.994,0.39,-165.44,7.45,-142.06,4,4
18922.156,0.271,1.113,0.476,-169.74,4.12,-134.68,4,4
18922.171,0.256,1.124,0.467,-172.19,-0.46,-124.24,4,4
18922.171,0.29,1.112,0.425,-174.99,-6.62,-111.79,4,4
18922.187,0.348,1.094,0.373,-178.9,-9.43,-100.96,4,4
18922.187,0.385,1.095,0.361,-182.53,-5.37,-92.93,4,4
18922.203,0.393,1.109,0.366,-183.94,4.58,-84.63,4,4
18922.234,0.371,1.108,0.405,-185.09,30.12,-61.77,4,4
18922.234,0.33,1.093,0.516,-178.08,41.9,-49.01,4,4
18922.25,0.286,1.084,0.576,-161.66,48.19,-34.36,4,4
18922.265,0.24,1.104,0.585,-145.57,48.13,-17.94,4,4
18922.265,0.24,1.099,0.566,-137.27,44.53,-2.32,4,4
18922.281,0.215,1.062,0.537,-139.59,41.14,12.85,4,4
18922.281,0.286,1.042,0.536,-150.43,39.06,28.87,4,4
18922.296,0.358,1.007,0.563,-158.39,44.19,40.44,4,4
18922.312,0.388,0.954,0.638,-158.85,56.18,49.01,4,4
18922.312,0.387,0.915,0.749,-150.21,69.58,57.13,4,4
18922.328,0.355,0.888,0.86,-132.27,78.59,65.0,4,4
18922.343,0.301,0.858,0.959,-110.02,82.16,70.56,4,4
18922.343,0.249,0.823,1.04,-89.24,79.68,72.88,4,4
18922.359,0.213,0.813,1.076,-74.1,70.77,72.33,4,4
18922.375,0.21,0.831,1.086,-66.35,57.99,69.09,4,4
18922.375,0.159,0.771,1.088,-65.58,45.29,65.13,4,4
18922.39,0.196,0.821,1.152,-59.54,26.18,62.47,4,4
18922.406,0.182,0.794,1.14,-47.18,21.85,66.87,4,4
18922.421,0.175,0.77,1.102,-38.06,17.73,71.44,4,4
18922.421,0.175,0.764,1.067,-38.06,14.19,72.15,4,4
18922.437,0.175,0.735,1.038,-40.25,11.47,70.13,4,4
18922.437,0.174,0.687,1.017,-40.74,9.13,67.38,4,4
18922.453,0.171,0.647,0.994,-39.49,6.47,61.56,4,4
18922.468,0.17,0.622,0.981,-35.49,4.79,54.08,4,4
18922.468,0.157,0.613,0.962,-27.1,5.31,47.98,4,4
18922.484,0.138,0.624,0.947,-17.73,5.89,44.98,4,4
18922.5,0.117,0.65,0.934,-11.29,5.8,44.31,4,4
18922.5,0.107,0.658,0.916,-10.59,4.52,46.11,4,4
18922.515,0.109,0.65,0.906,-14.77,3.08,49.75,4,4
18922.531,0.13,0.63,0.896,-16.63,2.69,54.02,4,4
18922.531,0.157,0.613,0.884,-16.27,3.97,58.29,4,4
18922.546,0.177,0.583,0.868,-16.05,6.35,60.76,4,4
18922.562,0.172,0.523,0.921,-18.52,14.68,59.48,4,4
18922.578,0.038,0.534,1.106,-13.67,9.37,58.75,4,4
18922.593,0.159,0.489,1.131,-7.14,-11.96,63.48,4,4
18922.593,0.234,0.478,1.067,-3.27,-27.22,59.05,4,4
18922.609,0.263,0.459,1.005,1.83,-32.62,51.91,4,4
18922.609,0.319,0.46,0.955,5.49,-31.92,49.04,4,4
18922.625,0.343,0.477,0.924,8.55,-25.79,47.67,4,4
18922.64,0.307,0.492,0.918,6.26,-17.67,47.24,4,4
18922.64,0.295,0.49,0.925,-3.45,-13.58,48.92,4,4
18922.656,0.313,0.456,0.904,-13.06,-10.86,50.81,4,4
18922.671,0.31,0.417,0.891,-19.01,-6.07,51.18,4,4
18922.671,0.298,0.387,0.885,-18.83,-1.8,49.68,4,4
18922.687,0.296,0.367,0.876,-14.07,0.92,47.3,4,4
18922.687,0.279,0.351,0.878,-8.0,3.42,44.19,4,4
18922.703,0.258,0.341,0.894,-2.72,4.46,40.19,4,4
18922.718,0.25,0.332,0.9,1.86,3.6,36.81,4,4
18922.734,0.236,0.361,0.902,8.33,3.2,36.38,4,4
18922.75,0.238,0.379,0.885,11.29,3.85,40.04,4,4
18922.75,0.231,0.398,0.914,9.34,4.79,43.92,4,4
18922.765,0.187,0.366,0.857,4.76,4.03,46.91,4,4
18922.781,0.243,0.338,0.846,-9.22,2.2,48.22,4,4
18922.781,0.225,0.335,0.924,-14.89,1.31,43.43,4,4
18922.796,0.202,0.269,0.922,-3.72,-2.66,38.03,4,4
18922.812,0.226,0.292,0.9,7.72,-6.59,33.6,4,4
18922.812,0.246,0.353,0.921,14.4,-7.45,29.11,4,4
18922.828,0.236,0.394,0.95,15.44,-6.74,26.37,4,4
18922.843,0.234,0.416,0.945,16.97,-5.77,28.53,4,4
18922.843,0.245,0.425,0.919,22.28,-2.93,32.69,4,4
18922.859,0.254,0.447,0.896,26.92,1.13,35.89,4,4
18922.859,0.263,0.444,0.868,24.57,5.77,36.99,4,4
18922.875,0.24,0.419,0.888,16.14,10.83,34.76,4,4
18922.89,0.218,0.379,0.902,8.61,12.76,30.64,4,4
18922.906,0.198,0.325,0.941,3.39,7.84,19.96,4,4
18922.921,0.199,0.323,0.919,3.81,2.5,14.47,4,4
18922.921,0.222,0.334,0.898,0.52,-1.31,10.16,4,4
18922.937,0.254,0.346,0.91,-3.05,-2.93,6.53,4,4
18922.953,0.266,0.384,0.92,-4.64,-3.51,4.24,4,4
18922.953,0.266,0.39,0.911,-7.11,-3.97,4.21,4,4
18922.968,0.282,0.375,0.868,-7.35,-2.84,6.78,4,4
18922.968,0.304,0.363,0.83,-3.3,2.41,10.53,4,4
18922.984,0.314,0.322,0.836,0.31,9.77,12.63,4,4
18923.0,0.293,0.298,0.873,3.14,16.51,11.84,4,4
18923.0,0.258,0.286,0.912,5.71,18.71,9.55,4,4
18923.015,0.244,0.297,0.915,7.51,16.48,6.1,4,4
18923.015,0.255,0.319,0.902,7.9,12.97,2.47,4,4
18923.031,0.257,0.341,0.89,7.9,10.62,-0.4,4,4
18923.046,0.258,0.358,0.879,8.67,9.43,-1.01,4,4
18923.046,0.273,0.375,0.869,7.93,8.97,-0.4,4,4
18923.078,0.25,0.397,0.889,5.49,9.49,0.49,4,4
18923.078,0.24,0.4,0.902,2.75,7.81,0.67,4,4
18923.093,0.231,0.398,0.892,-2.56,3.42,3.97,4,4
18923.109,0.25,0.385,0.873,-2.56,4.58,5.98,4,4
18923.109,0.245,0.36,0.882,-0.98,5.55,8.51,4,4
18923.125,0.231,0.351,0.885,0.98,6.23,11.66,4,4
18923.14,0.244,0.356,0.887,2.14,7.48,13.67,4,4
18923.14,0.246,0.353,0.906,1.56,7.72,13.58,4,4
18923.156,0.248,0.345,0.919,0.76,6.65,11.41,4,4
18923.156,0.249,0.351,0.923,0.73,5.28,8.58,4,4
18923.171,0.247,0.364,0.923,0.15,3.81,5.74,4,4
18923.187,0.238,0.374,0.922,-0.82,2.56,4.03,4,4
18923.187,0.222,0.392,0.918,-1.43,1.28,4.46,4,4
18923.203,0.212,0.384,0.893,-2.84,-0.61,6.65,4,4
18923.218,0.228,0.357,0.867,-5.49,-1.65,9.0,4,4
18923.218,0.263,0.341,0.864,-7.66,-0.67,10.35,4,4
18923.234,0.289,0.326,0.884,-7.6,2.08,9.61,4,4
18923.25,0.28,0.316,0.909,-5.83,4.91,7.17,4,4
18923.25,0.261,0.311,0.915,-4.0,6.04,4.82,4,4
18923.265,0.257,0.319,0.916,-2.59,5.77,2.59,4,4
18923.281,0.236,0.349,0.932,-1.53,5.25,0.15,4,4
18923.281,0.216,0.379,0.927,-1.86,3.54,-0.73,4,4
18923.296,0.22,0.38,0.896,-4.52,1.16,0.12,4,4
18923.296,0.224,0.379,0.891,-7.02,0.18,1.37,4,4
18923.312,0.228,0.366,0.888,-8.82,-0.37,2.93,4,4
18923.328,0.274,0.336,0.916,-12.15,-1.4,2.84,4,4
18923.328,0.311,0.314,0.965,-12.05,-1.77,-1.1,4,4
18923.343,0.29,0.309,0.965,-6.59,-1.46,-6.1,4,4
18923.359,0.269,0.319,0.938,-1.83,-1.77,-9.34,4,4
18923.359,0.258,0.36,0.901,1.71,-1.77,-9.37,4,4
18923.375,0.199,0.401,0.896,2.56,0.31,-7.87,4,4
18923.39,0.198,0.422,0.875,0.03,2.56,-3.14,4,4
18923.39,0.178,0.448,0.85,-6.41,3.97,2.62,4,4
18923.406,0.139,0.436,0.83,-12.85,3.94,10.1,4,4
18923.421,0.122,0.39,0.832,-19.17,1.8,18.34,4,4
18923.421,0.127,0.315,0.87,-25.12,-4.46,23.32,4,4
18923.437,0.18,0.247,0.901,-29.57,-14.92,25.67,4,4
18923.437,0.315,0.189,0.914,-29.85,-21.36,23.44,4,4
18923.453,0.348,0.194,0.977,-22.98,-19.35,16.42,4,4
18923.468,0.35,0.205,1.033,-11.51,-16.97,9.34,4,4
18923.468,0.303,0.223,1.022,-2.69,-16.72,0.76,4,4
18923.484,0.229,0.247,1.004,2.11,-20.29,-8.09,4,4
18923.5,0.179,0.238,0.979,3.17,-28.47,-14.59,4,4
18923.5,0.211,0.193,0.968,-1.56,-40.77,-22.37,4,4
18923.515,0.256,0.242,0.906,-2.99,-49.23,-29.08,4,4
18923.531,0.299,0.274,0.851,-5.37,-49.93,-32.32,4,4
18923.531,0.283,0.305,0.826,-7.66,-43.95,-34.39,4,4
18923.546,0.309,0.395,0.84,-7.42,-34.91,-30.67,4,4
18923.562,0.368,0.433,0.844,-5.71,-26.76,-24.99,4,4
18923.562,0.393,0.42,0.75,-8.0,-16.94,-23.53,4,4
18923.578,0.381,0.427,0.734,-11.35,-3.08,-22.06,4,4
18923.578,0.387,0.391,0.767,-11.26,8.7,-16.45,4,4
18923.593,0.393,0.333,0.784,-8.94,18.59,-11.78,4,4
18923.609,0.388,0.311,0.811,-5.28,27.83,-9.03,4,4
18923.609,0.329,0.301,0.888,-1.4,35.19,-7.81,4,4
18923.625,0.111,0.356,1.163,1.59,32.32,-5.8,4,4
18923.64,0.197,0.215,1.266,11.47,6.71,2.56,4,4
18923.64,0.282,0.175,0.982,11.2,-16.48,-5.92,4,4
18923.656,0.247,0.309,0.891,8.24,-17.88,-15.93,4,4
18923.671,0.244,0.347,0.86,14.01,-15.59,-13.31,4,4
18923.671,0.2,0.364,0.847,15.17,-12.45,-8.27,4,4
18923.687,0.186,0.44,0.859,11.47,-10.9,-0.98,4,4
18923.703,0.209,0.444,0.868,4.43,-10.19,6.9,4,4
18923.703,0.235,0.434,0.907,-3.57,-9.89,13.28,4,4
18923.718,0.255,0.399,0.914,-6.78,-10.47,18.49,4,4
18923.718,0.274,0.343,0.901,-8.18,-11.02,21.76,4,4
18923.734,0.297,0.305,0.901,-8.79,-10.38,22.8,4,4
18923.75,0.307,0.281,0.913,-7.39,-9.34,22.28,4,4
18923.75,0.309,0.271,0.942,-4.27,-9.22,20.94,4,4
18923.765,0.292,0.28,0.959,-0.73,-11.57,18.95,4,4
18923.781,0.296,0.296,0.924,1.8,-16.02,18.07,4,4
18923.781,0.312,0.311,0.867,2.35,-18.04,17.4,4,4
18923.796,0.334,0.328,0.824,0.4,-16.02,16.51,4,4
18923.812,0.35,0.325,0.814,-3.57,-11.41,15.11,4,4
18923.812,0.365,0.3,0.829,-6.9,-5.92,12.88,4,4
18923.828,0.373,0.271,0.84,-7.54,-0.89,9.52,4,4
18923.828,0.365,0.26,0.873,-6.68,3.42,4.91,4,4
18923.843,0.33,0.257,0.931,-3.78,5.74,-0.06,4,4
18923.859,0.304,0.258,0.945,-0.06,4.18,-2.9,4,4
18923.859,0.291,0.276,0.936,2.23,0.98,-4.24,4,4
18923.875,0.289,0.288,0.906,4.21,-1.59,-4.46,4,4
18923.89,0.288,0.311,0.889,4.43,-2.66,-3.85,4,4
18923.89,0.283,0.334,0.891,3.27,-3.08,-2.5,4,4
18923.906,0.287,0.344,0.878,1.25,-3.6,-0.34,4,4
18923.921,0.298,0.349,0.873,-2.26,-3.36,1.62,4,4
18923.921,0.312,0.336,0.875,-5.92,-2.38,2.08,4,4
18923.937,0.322,0.323,0.883,-8.82,-1.28,1.65,4,4
18923.937,0.332,0.304,0.892,-10.25,-0.18,0.7,4,4
18923.953,0.334,0.287,0.894,-10.8,0.73,-1.1,4,4
18923.968,0.333,0.274,0.894,-9.49,1.89,-2.96,4,4
18923.968,0.323,0.266,0.928,-6.81,2.9,-4.73,4,4
18923.984,0.299,0.267,0.956,-2.2,1.86,-5.65,4,4
18924.0,0.307,0.271,0.921,1.28,-1.22,-4.88,4,4
18924.0,0.303,0.286,0.899,2.66,-2.5,-4.76,4,4
18924.015,0.304,0.291,0.889,3.81,-3.11,-4.33,4,4
18924.031,0.304,0.304,0.896,4.06,-3.72,-3.48,4,4
18924.031,0.311,0.32,0.9,3.72,-4.73,-3.14,4,4
18924.046,0.312,0.331,0.899,2.56,-5.43,-3.33,4,4
18924.046,0.31,0.333,0.917,1.22,-5.43,-3.11,4,4
18924.062,0.307,0.325,0.921,0.7,-6.2,-3.14,4,4
18924.078,0.314,0.298,0.922,-0.06,-7.66,-4.12,4,4
18924.078,0.335,0.27,0.944,1.25,-11.23,-9.83,4,4
18924.093,0.347,0.25,0.926,4.06,-11.6,-13.98,4,4
18924.109,0.366,0.236,0.909,8.64,-9.25,-18.68,4,4
18924.109,0.344,0.281,0.881,13.12,-6.1,-22.06,4,4
18924.125,0.297,0.329,0.883,14.68,-2.35,-23.41,4,4
18924.14,0.283,0.36,0.865,14.98,-0.24,-21.39,4,4
18924.14,0.261,0.409,0.824,12.12,2.47,-18.01,4,4
18924.156,0.222,0.455,0.813,6.29,5.83,-11.81,4,4
18924.156,0.199,0.464,0.823,-0.52,7.23,-2.35,4,4
18924.171,0.217,0.435,0.835,-8.76,4.7,7.84,4,4
18924.187,0.246,0.401,0.864,-15.47,0.27,16.66,4,4
18924.187,0.264,0.355,0.882,-17.98,-2.81,23.1,4,4
18924.203,0.264,0.299,0.939,-18.74,-7.35,25.82,4,4
18924.218,0.319,0.223,0.899,-16.39,-15.29,26.34,4,4
18924.218,0.332,0.208,0.865,-18.22,-18.25,21.61,4,4
18924.234,0.308,0.232,0.912,-18.74,-18.19,16.42,4,4
18924.25,0.282,0.304,0.958,-18.01,-21.42,14.86,4,4
18924.25,0.234,0.356,0.983,-21.76,-29.24,16.6,4,4
18924.265,0.278,0.291,1.031,-28.47,-41.57,19.04,4,4
18924.281,0.363,0.263,0.987,-25.73,-51.94,18.52,4,4
18924.281,0.416,0.251,0.873,-21.03,-52.22,16.75,4,4
18924.296,0.444,0.199,0.845,-17.46,-43.64,13.06,4,4
18924.296,0.472,0.2,0.817,-10.5,-32.96,8.36,4,4
18924.312,0.474,0.229,0.778,-4.52,-21.45,3.6,4,4
18924.328,0.479,0.254,0.754,-1.25,-9.49,0.7,4,4
18924.343,0.469,0.28,0.79,1.25,3.27,-0.18,4,4
18924.343,0.441,0.291,0.825,2.17,11.75,-0.61,4,4
18924.359,0.405,0.294,0.838,1.25,16.3,-1.56,4,4
18924.359,0.369,0.292,0.867,-0.7,17.91,-2.41,4,4
18924.375,0.357,0.271,0.916,-2.47,16.72,-2.53,4,4
18924.39,0.362,0.239,0.915,-2.56,14.07,-3.36,4,4
18924.39,0.38,0.226,0.892,-0.64,13.12,-4.97,4,4
18924.406,0.329,0.237,0.95,1.83,13.76,-6.9,4,4
18924.406,0.3,0.208,1.02,5.83,8.3,-7.23,4,4
18924.421,0.308,0.209,0.949,9.0,0.03,-9.7,4,4
18924.437,0.338,0.269,0.856,9.03,-1.77,-12.54,4,4
18924.437,0.354,0.297,0.828,9.49,2.75,-12.05,4,4
18924.468,0.375,0.303,0.856,8.64,9.03,-9.92,4,4
18924.468,0.346,0.318,0.896,8.0,12.76,-8.82,4,4
18924.468,0.326,0.319,0.896,6.13,11.78,-8.24,4,4
18924.484,0.315,0.316,0.887,2.11,9.43,-7.69,4,4
18924.5,0.325,0.301,0.888,-0.64,7.39,-6.07,4,4
18924.5,0.327,0.287,0.91,-0.98,5.8,-4.49,4,4
18924.515,0.332,0.274,0.91,0.12,3.81,-2.96,4,4
18924.531,0.348,0.259,0.903,-0.27,2.38,-2.14,4,4
18924.531,0.353,0.252,0.903,0.43,2.29,-3.63,4,4
18924.546,0.348,0.26,0.903,3.33,2.35,-6.23,4,4
18924.546,0.344,0.271,0.895,5.92,2.44,-8.27,4,4
18924.562,0.344,0.284,0.888,7.02,3.2,-9.31,4,4
18924.578,0.342,0.296,0.885,8.39,4.61,-9.67,4,4
18924.578,0.342,0.302,0.885,8.76,6.01,-9.8,4,4
18924.593,0.333,0.307,0.899,8.58,6.84,-9.77,4,4
18924.609,0.298,0.332,0.907,8.67,4.67,-7.29,4,4
18924.625,0.289,0.341,0.89,7.08,1.89,-5.13,4,4
18924.64,0.294,0.339,0.882,4.36,-0.21,-2.41,4,4
18924.64,0.303,0.336,0.89,1.89,-1.4,-0.43,4,4
18924.656,0.312,0.323,0.892,0.24,-2.5,1.22,4,4
18924.671,0.318,0.306,0.903,-0.85,-3.2,2.29,4,4
18924.671,0.32,0.281,0.918,-0.55,-3.75,2.78,4,4
18924.687,0.308,0.259,0.95,2.29,-4.79,2.99,4,4
18924.687,0.279,0.277,0.98,7.75,-7.26,3.81,4,4
18924.703,0.243,0.306,0.945,12.18,-13.09,6.65,4,4
18924.718,0.214,0.353,1.007,11.63,-20.42,11.44,4,4
18924.718,0.172,0.353,1.116,15.23,-35.1,18.98,4,4
18924.734,0.256,0.314,1.09,18.43,-54.96,26.03,4,4
18924.75,0.348,0.317,0.946,21.18,-67.57,27.04,4,4
18924.75,0.428,0.27,0.811,19.41,-69.09,23.8,4,4
18924.765,0.463,0.215,0.758,15.53,-60.67,17.18,4,4
18924.781,0.478,0.275,0.748,27.31,-35.89,7.29,4,4
18924.796,0.486,0.327,0.758,30.76,-25.91,6.1,4,4
18924.812,0.487,0.358,0.751,32.41,-16.91,5.43,4,4
18924.828,0.465,0.35,0.735,31.46,-7.66,4.82,4,4
18924.828,0.447,0.383,0.765,27.07,0.18,4.67,4,4
18924.828,0.406,0.398,0.82,23.44,4.64,4.85,4,4
18924.843,0.382,0.384,0.836,21.64,4.64,7.23,4,4
18924.859,0.408,0.374,0.818,21.0,3.66,10.86,4,4
18924.859,0.446,0.355,0.8,21.76,5.65,12.6,4,4
18924.875,0.45,0.324,0.772,22.55,10.65,11.08,4,4
18924.89,0.45,0.317,0.75,21.06,17.73,8.88,4,4
18924.89,0.45,0.319,0.751,18.07,24.08,5.89,4,4
18924.906,0.444,0.306,0.753,12.73,30.0,2.56,4,4
18924.921,0.448,0.311,0.764,7.63,35.46,-0.31,4,4
18924.921,0.445,0.312,0.801,5.83,41.26,-3.45,4,4
18924.937,0.363,0.342,0.856,5.31,45.38,-7.57,4,4
18924.953,0.257,0.398,0.985,-3.45,33.2,-5.4,4,4
18924.968,0.227,0.385,1.012,-9.58,15.14,-5.49,4,4
18924.984,0.299,0.349,0.962,-14.1,-2.5,-5.28,4,4
18924.984,0.351,0.327,0.893,-13.25,-10.5,-8.0,4,4
18925.0,0.386,0.32,0.825,-10.8,-10.96,-10.8,4,4
18925.0,0.404,0.319,0.796,-10.13,-6.23,-12.18,4,4
18925.015,0.395,0.305,0.821,-11.02,-0.55,-15.53,4,4
18925.031,0.385,0.319,0.847,-10.32,2.5,-18.92,4,4
18925.031,0.369,0.318,0.86,-9.4,2.9,-22.06,4,4
18925.046,0.357,0.315,0.872,-9.09,0.58,-25.48,4,4
18925.046,0.353,0.316,0.871,-9.49,-2.62,-28.72,4,4
18925.062,0.351,0.319,0.875,-10.86,-8.7,-32.75,4,4
18925.093,0.353,0.327,0.888,-9.06,-10.01,-32.53,4,4
18925.109,0.352,0.365,0.887,-8.12,-10.65,-31.43,4,4
18925.109,0.346,0.391,0.879,-9.13,-11.32,-29.94,4,4
18925.109,0.321,0.406,0.846,-12.09,-11.51,-27.5,4,4
18925.125,0.325,0.388,0.853,-19.68,-12.15,-22.37,4,4
18925.14,0.338,0.374,0.852,-19.65,-11.47,-18.77,4,4
18925.14,0.351,0.363,0.85,-17.3,-9.61,-15.08,4,4
18925.156,0.358,0.355,0.847,-14.71,-6.99,-12.33,4,4
18925.171,0.354,0.341,0.856,-13.61,-4.43,-10.93,4,4
18925.171,0.345,0.322,0.866,-13.34,-3.05,-10.9,4,4
18925.187,0.356,0.318,0.879,-13.43,-2.96,-11.2,4,4
18925.187,0.376,0.307,0.883,-11.57,-3.36,-12.33,4,4
18925.203,0.377,0.309,0.884,-8.33,-2.38,-13.98,4,4
18925.218,0.363,0.314,0.894,-4.7,-1.19,-15.59,4,4
18925.218,0.353,0.318,0.9,-1.43,-1.4,-16.72,4,4
18925.234,0.345,0.333,0.885,1.34,-2.08,-17.09,4,4
18925.25,0.339,0.346,0.87,2.72,-2.23,-16.21,4,4
18925.25,0.32,0.356,0.87,2.01,-2.08,-15.41,4,4
18925.265,0.318,0.372,0.871,0.46,-2.53,-13.34,4,4
18925.281,0.325,0.377,0.869,-0.79,-3.11,-10.56,4,4
18925.296,0.339,0.366,0.855,-1.8,-2.08,-5.58,4,4
18925.296,0.344,0.355,0.854,-3.33,-1.19,-4.43,4,4
18925.312,0.352,0.34,0.858,-5.65,-0.52,-4.7,4,4
18925.328,0.36,0.319,0.864,-6.96,-0.24,-6.41,4,4
18925.328,0.368,0.315,0.872,-6.04,-0.03,-8.39,4,4
18925.343,0.363,0.32,0.873,-3.78,0.4,-10.25,4,4
18925.359,0.358,0.324,0.883,-1.95,0.82,-12.02,4,4
18925.359,0.348,0.324,0.885,0.76,0.92,-13.37,4,4
18925.375,0.337,0.332,0.895,4.09,0.79,-13.58,4,4
18925.39,0.324,0.348,0.894,7.11,0.27,-12.73,4,4
18925.39,0.318,0.365,0.876,8.7,-0.49,-10.9,4,4
18925.406,0.315,0.37,0.864,7.84,-1.43,-9.25,4,4
18925.406,0.317,0.374,0.857,5.01,-1.83,-7.84,4,4
18925.421,0.324,0.381,0.851,2.81,-1.65,-5.74,4,4
18925.437,0.333,0.376,0.854,0.85,-1.16,-3.78,4,4
18925.437,0.335,0.362,0.855,-0.98,-0.37,-2.81,4,4
18925.468,0.338,0.344,0.87,-3.11,0.31,-2.81,4,4
18925.484,0.344,0.338,0.88,-3.39,0.12,-3.81,4,4
18925.484,0.337,0.342,0.891,-1.62,-0.09,-4.76,4,4
18925.5,0.331,0.345,0.893,1.19,-0.67,-4.33,4,4
18925.5,0.332,0.343,0.887,3.02,-1.68,-4.12,4,4
18925.515,0.335,0.343,0.869,3.88,-2.38,-4.52,4,4
18925.531,0.337,0.353,0.861,4.39,-2.2,-4.64,4,4
18925.531,0.332,0.363,0.856,4.27,-1.65,-4.55,4,4
18925.546,0.332,0.372,0.857,3.54,-1.37,-3.94,4,4
18925.562,0.333,0.371,0.86,2.41,-1.34,-3.14,4,4
18925.562,0.328,0.37,0.861,1.25,-1.19,-2.69,4,4
18925.578,0.327,0.37,0.861,0.79,-0.79,-1.59,4,4
18925.578,0.327,0.363,0.869,0.09,-0.7,-0.46,4,4
18925.593,0.326,0.359,0.876,-0.27,-0.82,0.31,4,4
18925.609,0.322,0.347,0.874,0.61,-1.22,0.55,4,4
18925.609,0.331,0.347,0.866,0.79,-1.92,0.34,4,4
18925.64,0.339,0.356,0.869,0.82,-1.1,-0.27,4,4
18925.64,0.331,0.354,0.866,1.5,-0.61,-0.49,4,4
18925.656,0.332,0.357,0.865,1.5,-0.52,-0.37,4,4
18925.656,0.333,0.367,0.868,0.64,-0.43,0.06,4,4
18925.671,0.331,0.367,0.867,0.06,-0.46,0.73,4,4
18925.687,0.326,0.367,0.871,0.09,-0.24,1.25,4,4
18925.687,0.322,0.363,0.878,0.34,-0.89,2.14,4,4
18925.703,0.327,0.36,0.882,0.31,-2.17,3.08,4,4
18925.718,0.335,0.357,0.881,0.82,-3.17,3.78,4,4
18925.718,0.338,0.351,0.876,2.26,-3.6,4.12,4,4
18925.734,0.339,0.349,0.878,3.66,-3.85,3.63,4,4
18925.75,0.335,0.353,0.879,4.85,-4.21,3.11,4,4
18925.75,0.335,0.356,0.88,5.37,-5.07,2.47,4,4
18925.765,0.334,0.36,0.872,6.1,-5.92,2.11,4,4
18925.781,0.333,0.36,0.859,6.84,-6.04,2.11,4,4
18925.781,0.332,0.363,0.846,6.68,-5.58,2.66,4,4
18925.796,0.337,0.365,0.84,4.88,-4.82,3.27,4,4
18925.796,0.344,0.364,0.845,2.66,-3.91,3.45,4,4
18925.812,0.346,0.361,0.852,1.83,-2.72,3.69,4,4
18925.828,0.345,0.36,0.865,1.71,-1.95,3.88,4,4
18925.828,0.335,0.366,0.889,2.44,-2.29,4.12,4,4
18925.843,0.325,0.371,0.902,3.78,-4.3,4.79,4,4
18925.859,0.321,0.371,0.894,5.46,-7.42,5.95,4,4
18925.859,0.329,0.372,0.87,6.29,-10.44,6.87,4,4
18925.89,0.349,0.371,0.844,5.49,-11.6,7.63,4,4
18925.89,0.367,0.37,0.823,4.06,-10.99,7.9,4,4
18925.89,0.377,0.359,0.818,2.32,-8.79,7.48,4,4
18925.906,0.39,0.348,0.831,0.61,-6.26,6.13,4,4
18925.921,0.393,0.332,0.831,-0.61,-4.33,2.93,4,4
18925.921,0.386,0.322,0.85,-0.43,-2.69,-0.82,4,4
18925.937,0.379,0.331,0.886,0.89,-2.11,-4.03,4,4
18925.937,0.361,0.34,0.877,3.88,-3.11,-6.87,4,4
18925.953,0.346,0.354,0.873,7.08,-4.03,-7.35,4,4
18925.968,0.337,0.38,0.871,8.58,-5.04,-6.59,4,4
18925.968,0.339,0.383,0.846,8.03,-6.2,-5.68,4,4
18925.984,0.344,0.377,0.825,6.53,-6.32,-4.61,4,4
18926.0,0.353,0.39,0.813,4.36,-5.01,-3.11,4,4
18926.0,0.358,0.399,0.817,1.68,-3.23,-1.77,4,4
18926.015,0.357,0.394,0.825,-1.77,-1.98,-0.95,4,4
18926.031,0.362,0.382,0.832,-5.04,-1.5,-0.4,4,4
18926.031,0.365,0.37,0.845,-7.48,-0.85,-0.24,4,4
18926.046,0.365,0.348,0.852,-8.0,-0.06,-0.43,4,4
18926.062,0.362,0.343,0.862,-5.43,0.7,-1.86,4,4
18926.062,0.362,0.342,0.861,-3.97,0.61,-3.11,4,4
18926.078,0.357,0.351,0.859,-3.14,0.09,-4.36,4,4
18926.078,0.347,0.372,0.851,-2.84,-0.21,-4.76,4,4
18926.093,0.35,0.384,0.847,-3.39,-0.21,-4.12,4,4
18926.109,0.348,0.385,0.842,-3.66,0.21,-3.11,4,4
18926.109,0.353,0.388,0.841,-4.36,0.76,-1.56,4,4
18926.125,0.359,0.383,0.845,-5.74,1.37,-0.37,4,4
18926.14,0.355,0.363,0.857,-7.02,1.77,-0.24,4,4
18926.156,0.359,0.354,0.876,-5.86,1.04,-0.18,4,4
18926.171,0.36,0.347,0.872,-5.01,0.55,-0.49,4,4
18926.171,0.354,0.336,0.872,-3.85,0.43,-0.98,4,4
18926.187,0.352,0.336,0.873,-3.17,-0.24,-1.4,4,4
18926.187,0.362,0.338,0.871,-2.84,-0.92,-1.68,4,4
18926.203,0.361,0.35,0.866,-1.56,-0.61,-2.04,4,4
18926.218,0.356,0.349,0.856,-0.24,-0.18,-2.72,4,4
18926.234,0.35,0.353,0.853,-0.09,0.12,-3.45,4,4
18926.234,0.347,0.364,0.853,-0.06,0.31,-3.81,4,4
18926.25,0.341,0.37,0.855,0.27,0.61,-3.81,4,4
18926.25,0.336,0.37,0.852,0.58,0.43,-3.48,4,4
18926.265,0.341,0.385,0.864,0.21,0.03,-2.78,4,4
18926.281,0.342,0.391,0.865,0.24,-0.03,-1.5,4,4
18926.281,0.34,0.376,0.85,0.09,-0.06,-0.24,4,4
18926.296,0.342,0.36,0.847,-0.55,0.12,0.64,4,4
18926.296,0.35,0.362,0.861,-1.95,0.06,1.65,4,4
18926.328,0.36,0.337,0.859,-2.62,0.18,2.26,4,4
18926.328,0.358,0.331,0.864,-2.62,0.18,1.46,4,4
18926.343,0.364,0.341,0.874,-2.81,-0.15,0.85,4,4
18926.359,0.368,0.343,0.869,-1.86,-0.24,0.12,4,4
18926.359,0.358,0.339,0.862,-0.21,0.43,-1.1,4,4
18926.375,0.342,0.342,0.864,1.19,0.61,-2.26,4,4
18926.39,0.338,0.354,0.867,2.14,0.24,-2.47,4,4
18926.39,0.341,0.368,0.862,3.17,0.12,-1.92,4,4
18926.406,0.335,0.36,0.85,4.55,0.55,-1.65,4,4
18926.421,0.339,0.37,0.852,5.46,0.92,-1.13,4,4
18926.421,0.347,0.389,0.861,5.13,1.1,-0.03,4,4
18926.437,0.345,0.382,0.858,4.49,1.62,0.49,4,4
18926.453,0.328,0.369,0.853,4.0,2.14,1.16,4,4
18926.453,0.323,0.368,0.866,2.69,1.95,2.72,4,4
18926.468,0.323,0.382,0.888,1.37,1.59,5.43,4,4
18926.468,0.299,0.402,0.916,2.23,0.82,8.94,4,4
18926.5,0.202,0.413,0.975,2.99,-15.44,20.23,4,4
18926.5,0.25,0.383,1.089,2.56,-30.64,29.11,4,4
18926.515,0.329,0.336,0.985,11.35,-45.96,34.36,4,4
18926.531,0.38,0.296,0.818,14.98,-52.25,32.56,4,4
18926.531,0.443,0.263,0.718,14.5,-48.55,27.99,4,4
18926.546,0.504,0.275,0.673,11.29,-37.9,21.82,4,4
18926.562,0.536,0.282,0.678,10.19,-22.95,13.21,4,4
18926.562,0.527,0.32,0.688,11.69,-8.51,4.58,4,4
18926.578,0.518,0.337,0.692,13.43,3.51,-2.66,4,4
18926.578,0.522,0.379,0.709,13.49,14.31,-8.09,4,4
18926.593,0.48,0.412,0.738,10.59,25.15,-10.9,4,4
18926.609,0.404,0.396,0.778,7.93,33.57,-12.48,4,4
18926.609,0.354,0.419,0.83,2.56,35.16,-11.75,4,4
18926.625,0.329,0.423,0.874,-5.22,31.74,-8.67,4,4
18926.64,0.333,0.395,0.902,-11.29,26.37,-5.19,4,4
18926.64,0.344,0.349,0.897,-12.36,21.64,-2.75,4,4
18926.656,0.395,0.3,0.857,-8.09,19.5,-3.23,4,4
18926.671,0.399,0.295,0.844,-7.39,23.07,-7.48,4,4
18926.687,0.384,0.295,0.85,-5.43,26.86,-13.37,4,4
18926.703,0.362,0.31,0.867,-2.04,28.72,-18.77,4,4
18926.703,0.344,0.345,0.893,1.59,28.69,-22.98,4,4
18926.718,0.305,0.394,0.928,4.33,26.06,-25.42,4,4
18926.718,0.212,0.448,0.99,8.21,19.14,-24.41,4,4
18926.734,0.209,0.453,0.971,11.47,5.19,-18.13,4,4
18926.75,0.256,0.44,0.87,8.09,-6.71,-13.89,4,4
18926.75,0.281,0.445,0.807,0.12,-10.44,-11.44,4,4
18926.765,0.31,0.423,0.802,-7.69,-10.01,-8.48,4,4
18926.781,0.322,0.411,0.845,-11.35,-7.72,-5.19,4,4
18926.781,0.308,0.416,0.895,-10.1,-6.26,-1.22,4,4
18926.796,0.306,0.394,0.922,-8.55,-8.12,2.84,4,4
18926.812,0.315,0.338,0.919,-8.24,-12.24,3.27,4,4
18926.812,0.325,0.312,0.92,-6.5,-16.08,2.69,4,4
18926.828,0.317,0.292,0.931,2.32,-22.89,0.79,4,4
18926.843,0.326,0.304,0.928,6.87,-26.83,-0.52,4,4
18926.859,0.331,0.321,0.905,11.2,-30.46,-1.71,4,4
18926.875,0.349,0.347,0.87,13.86,-33.11,-2.62,4,4
18926.875,0.369,0.367,0.832,15.47,-33.48,-3.69,4,4
18926.89,0.383,0.383,0.791,15.87,-32.04,-5.07,4,4
18926.89,0.392,0.401,0.774,14.95,-28.63,-6.16,4,4
18926.906,0.394,0.429,0.776,13.55,-24.54,-6.1,4,4
18926.906,0.385,0.445,0.774,11.41,-20.81,-4.49,4,4
18926.921,0.373,0.428,0.771,7.9,-17.94,-2.44,4,4
18926.937,0.381,0.416,0.765,3.63,-15.2,-0.15,4,4
18926.937,0.402,0.415,0.761,-0.7,-11.23,2.01,4,4
18926.953,0.416,0.384,0.77,-4.33,-5.8,3.05,4,4
18926.968,0.4,0.361,0.794,-5.86,0.03,2.17,4,4
18926.968,0.374,0.367,0.846,-5.46,3.94,1.53,4,4
18926.984,0.339,0.382,0.899,-3.05,3.81,1.65,4,4
18927.0,0.326,0.412,0.889,2.23,-6.74,5.74,4,4
18927.015,0.327,0.416,0.882,2.66,-11.9,8.55,4,4
18927.031,0.343,0.397,0.855,1.37,-16.85,10.62,4,4
18927.031,0.393,0.392,0.838,3.75,-19.01,13.34,4,4
18927.046,0.407,0.377,0.793,2.66,-16.42,12.33,4,4
18927.046,0.433,0.373,0.777,0.4,-12.67,10.1,4,4
18927.062,0.46,0.373,0.784,-0.61,-8.21,6.78,4,4
18927.078,0.446,0.364,0.796,0.18,-4.12,4.33,4,4
18927.078,0.441,0.385,0.834,0.85,-0.67,3.3,4,4
18927.109,0.417,0.387,0.839,1.62,1.34,2.69,4,4
18927.109,0.395,0.374,0.834,-0.76,2.04,2.35,4,4
18927.125,0.385,0.343,0.834,-2.17,1.19,2.2,4,4
18927.125,0.41,0.333,0.83,-1.83,0.37,2.01,4,4
18927.14,0.437,0.349,0.821,-1.59,2.04,0.92,4,4
18927.156,0.444,0.337,0.803,-0.4,5.46,-2.08,4,4
18927.156,0.439,0.328,0.777,1.46,9.61,-6.84,4,4
18927.171,0.445,0.349,0.758,2.75,14.1,-10.65,4,4
18927.171,0.447,0.377,0.775,2.2,19.56,-14.28,4,4
18927.187,0.385,0.386,0.866,3.51,22.43,-16.85,4,4
18927.187,0.366,0.369,0.856,7.63,18.22,-17.0,4,4
18927.203,0.428,0.394,0.8,8.61,16.82,-17.33,4,4
18927.218,0.383,0.386,0.776,7.42,21.94,-20.08,4,4
18927.218,0.368,0.388,0.782,4.97,25.97,-19.38,4,4
18927.234,0.341,0.402,0.83,4.52,30.3,-16.75,4,4
18927.25,0.308,0.425,0.859,5.34,32.69,-13.09,4,4
18927.25,0.295,0.422,0.874,3.91,31.46,-8.85,4,4
18927.265,0.305,0.415,0.866,2.23,29.15,-5.13,4,4
18927.281,0.303,0.414,0.861,0.7,27.68,-2.87,4,4
18927.281,0.308,0.396,0.866,-1.07,26.0,-1.07,4,4
18927.296,0.321,0.394,0.87,-2.11,24.17,0.0,4,4
18927.296,0.333,0.396,0.856,-1.28,22.92,0.98,4,4
18927.312,0.349,0.39,0.836,-0.61,22.74,1.16,4,4
18927.328,0.352,0.391,0.839,-0.49,23.56,-0.43,4,4
18927.328,0.341,0.396,0.834,0.64,24.26,-1.95,4,4
18927.343,0.343,0.406,0.831,1.4,24.99,-2.59,4,4
18927.359,0.336,0.416,0.842,2.08,26.7,-3.17,4,4
18927.359,0.307,0.42,0.847,2.9,27.31,-3.75,4,4
18927.375,0.291,0.422,0.86,1.22,25.27,-3.91,4,4
18927.39,0.272,0.415,0.886,-1.77,21.64,-4.76,4,4
18927.39,0.252,0.41,0.896,-3.57,16.6,-4.91,4,4
18927.406,0.258,0.395,0.879,-5.52,11.38,-4.18,4,4
18927.421,0.271,0.381,0.889,-6.93,8.97,-3.6,4,4
18927.421,0.27,0.388,0.905,-3.75,9.16,-1.86,4,4
18927.437,0.263,0.377,0.887,-0.37,9.52,0.49,4,4
18927.453,0.279,0.36,0.884,0.0,9.37,1.1,4,4
18927.453,0.279,0.369,0.888,1.53,9.8,0.61,4,4
18927.468,0.287,0.374,0.891,3.69,9.4,0.09,4,4
18927.468,0.301,0.379,0.882,4.85,7.97,-1.19,4,4
18927.484,0.303,0.412,0.864,5.04,7.29,-2.14,4,4
18927.5,0.307,0.424,0.848,4.58,7.32,-2.41,4,4
18927.5,0.291,0.433,0.841,2.87,7.81,-2.11,4,4
18927.515,0.285,0.434,0.856,0.15,7.54,-0.73,4,4
18927.531,0.279,0.418,0.867,-1.31,6.59,0.92,4,4
18927.531,0.278,0.398,0.861,-1.31,5.83,2.2,4,4
18927.546,0.284,0.385,0.871,-0.92,5.31,2.2,4,4
18927.546,0.269,0.388,0.888,-0.4,4.94,0.98,4,4
18927.562,0.26,0.388,0.881,0.21,3.75,0.06,4,4
18927.578,0.264,0.39,0.855,0.82,2.87,-0.46,4,4
18927.578,0.265,0.393,0.828,0.58,3.66,-0.92,4,4
18927.593,0.27,0.404,0.828,-1.34,5.74,-0.73,4,4
18927.609,0.269,0.417,0.859,-4.46,8.18,-0.27,4,4
18927.609,0.257,0.433,0.905,-7.66,8.7,-0.49,4,4
18927.625,0.243,0.44,0.896,-11.11,6.01,-1.25,4,4
18927.64,0.269,0.434,0.886,-16.21,2.17,-1.98,4,4
18927.64,0.274,0.425,0.934,-19.78,-1.74,-4.3,4,4
18927.656,0.241,0.414,0.954,-19.99,-8.33,-6.84,4,4
18927.656,0.264,0.389,0.895,-17.88,-16.05,-6.04,4,4
18927.671,0.329,0.341,0.878,-15.11,-17.37,-5.22,4,4
18927.687,0.313,0.265,0.934,8.24,-7.6,-10.16,4,4
18927.703,0.291,0.248,0.893,20.08,-1.46,-10.86,4,4
18927.718,0.249,0.282,0.871,29.3,6.1,-10.77,4,4
18927.718,0.207,0.381,0.837,38.21,12.82,-7.26,4,4
18927.734,0.186,0.49,0.8,40.65,15.69,-0.79,4,4
18927.75,0.217,0.549,0.777,31.62,12.45,5.55,4,4
18927.75,0.245,0.564,0.776,13.37,8.33,9.58,4,4
18927.765,0.252,0.519,0.775,-2.75,7.93,11.96,4,4
18927.781,0.255,0.451,0.834,-14.53,7.81,12.45,4,4
18927.781,0.251,0.373,0.885,-18.4,6.56,13.37,4,4
18927.796,0.287,0.309,0.919,-16.39,1.86,13.09,4,4
18927.812,0.305,0.27,0.937,-9.28,-1.56,9.77,4,4
18927.812,0.312,0.266,0.921,-1.16,-4.09,5.37,4,4
18927.828,0.323,0.299,0.9,6.13,-4.88,0.98,4,4
18927.828,0.315,0.366,0.863,12.67,-3.6,-3.42,4,4
18927.843,0.287,0.449,0.838,14.34,-2.08,-6.62,4,4
18927.859,0.222,0.541,0.812,2.01,-3.11,-4.73,4,4
18927.875,0.219,0.515,0.812,-9.77,-5.49,-0.21,4,4
18927.89,0.226,0.464,0.844,-19.2,-7.14,4.21,4,4
18927.89,0.24,0.407,0.892,-23.9,-8.58,7.93,4,4
18927.906,0.254,0.365,0.938,-24.2,-10.28,10.41,4,4
18927.921,0.263,0.325,0.943,-19.14,-11.99,11.44,4,4
18927.921,0.287,0.294,0.926,-13.21,-13.89,10.44,4,4
18927.937,0.319,0.299,0.928,-8.09,-14.71,7.2,4,4
18927.937,0.323,0.316,0.928,-0.61,-14.28,3.08,4,4
18927.953,0.303,0.338,0.906,7.63,-13.95,-0.49,4,4
18927.968,0.285,0.372,0.891,13.12,-14.5,-2.87,4,4
18927.984,0.261,0.413,0.91,15.05,-16.27,-4.15,4,4
18927.984,0.227,0.444,0.92,15.11,-20.42,-3.2,4,4
18928.0,0.213,0.46,0.927,12.82,-27.07,-0.03,4,4
18928.0,0.209,0.464,0.941,10.04,-34.97,4.21,4,4
18928.015,0.22,0.437,0.911,7.17,-43.09,8.15,4,4
18928.031,0.313,0.401,0.852,0.49,-51.58,10.68,4,4
18928.046,0.347,0.379,0.828,0.43,-48.49,8.82,4,4
18928.062,0.395,0.335,0.8,2.5,-43.46,6.47,4,4
18928.062,0.403,0.363,0.782,5.49,-36.9,4.33,4,4
18928.078,0.419,0.376,0.781,6.13,-31.04,3.57,4,4
18928.093,0.416,0.351,0.771,7.02,-26.22,1.5,4,4
18928.093,0.413,0.351,0.774,8.09,-21.85,-1.28,4,4
18928.109,0.411,0.366,0.793,9.67,-18.19,-4.03,4,4
18928.109,0.401,0.384,0.808,11.87,-14.13,-6.5,4,4
18928.125,0.38,0.39,0.813,14.31,-11.02,-7.75,4,4
18928.14,0.331,0.421,0.846,15.26,-10.5,-7.51,4,4
18928.14,0.321,0.455,0.928,15.05,-14.68,-3.75,4,4
18928.156,0.355,0.443,0.925,17.52,-22.43,0.98,4,4
18928.171,0.372,0.404,0.846,18.16,-27.01,1.89,4,4
18928.171,0.391,0.381,0.777,18.37,-25.85,0.89,4,4
18928.187,0.422,0.367,0.733,19.44,-21.06,-0.34,4,4
18928.203,0.48,0.384,0.689,19.53,-2.23,-5.62,4,4
18928.218,0.49,0.394,0.684,22.13,10.41,-9.25,4,4
18928.234,0.483,0.431,0.679,25.39,24.48,-11.44,4,4
18928.234,0.459,0.453,0.7,26.64,39.28,-12.02,4,4
18928.25,0.416,0.452,0.72,25.88,51.06,-13.21,4,4
18928.25,0.369,0.464,0.765,22.95,58.87,-14.22,4,4
18928.265,0.331,0.491,0.822,19.23,62.23,-13.55,4,4
18928.281,0.288,0.498,0.853,15.35,60.4,-12.79,4,4
18928.281,0.26,0.484,0.884,10.93,53.68,-12.27,4,4
18928.296,0.236,0.487,0.942,6.71,42.63,-12.6,4,4
18928.312,0.176,0.495,1.011,4.12,25.91,-12.79,4,4
18928.312,0.192,0.456,0.996,4.15,4.27,-10.83,4,4
18928.328,0.26,0.457,0.892,4.43,-12.48,-9.89,4,4
18928.328,0.3,0.49,0.809,2.41,-18.95,-10.01,4,4
18928.343,0.321,0.492,0.766,-2.17,-19.71,-9.77,4,4
18928.359,0.324,0.497,0.753,-8.91,-18.1,-10.13,4,4
18928.375,0.292,0.525,0.823,-26.34,-20.05,-11.47,4,4
18928.39,0.288,0.522,0.875,-30.27,-25.48,-9.61,4,4
18928.39,0.278,0.492,0.878,-30.82,-31.86,-6.74,4,4
18928.406,0.287,0.435,0.861,-30.34,-37.45,-3.48,4,4
18928.421,0.315,0.373,0.847,-28.32,-40.74,-2.08,4,4
18928.421,0.354,0.34,0.828,-21.18,-39.86,-1.8,4,4
18928.437,0.389,0.364,0.807,-11.29,-34.27,-1.16,4,4
18928.437,0.407,0.381,0.792,-2.59,-26.03,-1.37,4,4
18928.453,0.411,0.383,0.781,2.96,-18.25,-3.48,4,4
18928.468,0.41,0.405,0.772,6.13,-11.69,-6.26,4,4
18928.468,0.405,0.431,0.777,8.12,-5.68,-8.51,4,4
18928.484,0.381,0.443,0.79,9.22,-0.92,-10.01,4,4
18928.5,0.355,0.457,0.804,9.22,1.43,-9.61,4,4
18928.5,0.347,0.462,0.815,8.15,2.14,-8.48,4,4
18928.515,0.343,0.46,0.82,6.84,2.2,-6.93,4,4
18928.531,0.342,0.445,0.813,6.9,2.26,-4.91,4,4
18928.546,0.349,0.452,0.806,7.35,4.24,-1.56,4,4
18928.546,0.359,0.449,0.791,6.2,5.65,-1.07,4,4
18928.562,0.374,0.453,0.774,5.04,8.55,-0.79,4,4
18928.578,0.382,0.438,0.76,5.19,13.09,-1.01,4,4
18928.578,0.39,0.415,0.794,6.07,17.82,-2.62,4,4
18928.593,0.373,0.415,0.824,9.74,22.37,-5.07,4,4
18928.609,0.359,0.421,0.84,13.64,25.06,-7.11,4,4
18928.609,0.37,0.435,0.899,16.17,24.99,-10.59,4,4
18928.625,0.337,0.452,0.916,20.2,22.55,-15.93,4,4
18928.64,0.316,0.453,0.866,24.63,18.01,-19.59,4,4
18928.64,0.315,0.454,0.833,26.89,14.56,-21.45,4,4
18928.656,0.308,0.47,0.836,27.19,12.15,-22.83,4,4
18928.671,0.294,0.462,0.83,28.05,10.65,-22.68,4,4
18928.671,0.301,0.452,0.827,30.3,10.19,-20.78,4,4
18928.687,0.308,0.446,0.831,33.72,10.96,-20.17,4,4
18928.703,0.311,0.458,0.839,37.05,12.91,-21.09,4,4
18928.718,0.272,0.499,0.839,40.86,16.11,-26.7,4,4
18928.734,0.247,0.515,0.821,39.98,13.09,-28.84,4,4
18928.734,0.274,0.485,0.794,37.08,8.03,-30.64,4,4
18928.75,0.284,0.519,0.827,37.9,4.94,-40.22,4,4
18928.75,0.292,0.524,0.787,45.32,1.31,-35.13,4,4
18928.765,0.26,0.54,0.787,51.94,1.4,-26.95,4,4
18928.781,0.155,0.595,0.833,58.02,-1.59,-21.97,4,4
18928.781,0.146,0.582,0.885,51.15,-15.78,-17.24,4,4
18928.796,0.199,0.598,0.917,34.55,-35.95,-16.75,4,4
18928.812,0.31,0.612,0.872,23.04,-51.97,-15.63,4,4
18928.812,0.321,0.547,0.844,15.23,-58.02,-18.65,4,4
18928.828,0.327,0.511,0.808,9.67,-62.53,-22.46,4,4
18928.828,0.355,0.514,0.757,2.2,-66.44,-26.8,4,4
18928.843,0.402,0.545,0.723,-9.4,-67.6,-31.1,4,4
18928.859,0.431,0.568,0.728,-31.4,-66.35,-32.59,4,4
18928.859,0.434,0.486,0.733,-54.05,-62.62,-39.06,4,4
18928.875,0.436,0.42,0.742,-64.36,-60.73,-45.78,4,4
18928.89,0.431,0.407,0.737,-64.79,-58.75,-53.41,4,4
18928.906,0.436,0.414,0.727,-60.95,-56.4,-63.42,4,4
18928.906,0.418,0.436,0.712,-61.95,-54.14,-74.13,4,4
18928.921,0.389,0.447,0.719,-72.3,-51.3,-84.57,4,4
18928.921,0.353,0.422,0.731,-79.5,-49.65,-94.58,4,4
18928.937,0.322,0.395,0.755,-76.91,-48.25,-99.95,4,4
18928.937,0.298,0.417,0.771,-62.2,-46.75,-101.08,4,4
18928.953,0.269,0.451,0.774,-41.35,-47.06,-98.97,4,4
18928.968,0.257,0.465,0.755,-17.82,-47.33,-95.28,4,4
18928.984,0.252,0.526,0.746,2.87,-46.36,-89.85,4,4
18928.984,0.231,0.619,0.744,16.69,-45.11,-83.19,4,4
18929.0,0.217,0.671,0.741,19.9,-45.26,-75.26,4,4
18929.0,0.232,0.701,0.736,-0.7,-44.98,-61.62,4,4
18929.015,0.251,0.721,0.731,-14.74,-43.12,-58.87,4,4
18929.031,0.256,0.713,0.727,-27.74,-41.23,-57.83,4,4
18929.031,0.244,0.664,0.723,-38.09,-39.92,-58.2,4,4
18929.046,0.221,0.581,0.724,-41.9,-38.94,-57.44,4,4
18929.062,0.226,0.539,0.748,-36.59,-38.0,-55.27,4,4
18929.062,0.222,0.539,0.762,-21.64,-36.32,-53.74,4,4
18929.078,0.209,0.566,0.745,-3.78,-35.31,-52.98,4,4
18929.078,0.212,0.598,0.72,5.28,-35.19,-53.38,4,4
18929.093,0.218,0.617,0.706,5.71,-34.24,-54.78,4,4
18929.109,0.213,0.638,0.708,1.68,-32.07,-55.67,4,4
18929.109,0.193,0.663,0.729,-3.85,-29.51,-55.09,4,4
18929.125,0.178,0.662,0.754,-8.39,-27.86,-52.19,4,4
18929.14,0.169,0.657,0.764,-12.88,-27.13,-46.48,4,4
18929.14,0.169,0.652,0.769,-18.86,-25.61,-39.55,4,4
18929.156,0.186,0.636,0.774,-26.64,-23.13,-33.91,4,4
18929.171,0.201,0.601,0.786,-32.35,-20.17,-29.45,4,4
18929.171,0.204,0.567,0.799,-33.23,-17.21,-24.38,4,4
18929.187,0.216,0.56,0.81,-29.42,-14.53,-18.46,4,4
18929.187,0.234,0.556,0.807,-26.0,-12.91,-14.01,4,4
18929.203,0.246,0.542,0.805,-26.28,-12.88,-13.09,4,4
18929.218,0.262,0.519,0.798,-26.76,-13.46,-14.13,4,4
18929.234,0.282,0.513,0.792,-25.91,-13.49,-15.29,4,4
18929.234,0.304,0.5,0.778,-23.04,-12.3,-16.21,4,4
18929.25,0.324,0.487,0.755,-18.8,-9.06,-17.0,4,4
18929.25,0.332,0.487,0.741,-14.25,-4.15,-18.07,4,4
18929.265,0.326,0.491,0.727,-8.94,1.89,-19.26,4,4
18929.281,0.32,0.509,0.731,-5.89,7.81,-20.48,4,4
18929.281,0.305,0.512,0.751,-5.34,12.27,-22.06,4,4
18929.296,0.281,0.522,0.783,-6.68,14.83,-24.14,4,4
18929.312,0.26,0.539,0.822,-8.82,14.8,-26.8,4,4
18929.312,0.256,0.538,0.851,-10.35,11.47,-28.02,4,4
18929.328,0.25,0.549,0.857,-9.0,8.06,-27.62,4,4
18929.328,0.239,0.556,0.842,-5.46,5.22,-26.34,4,4
18929.343,0.231,0.556,0.821,-3.17,3.02,-24.32,4,4
18929.359,0.214,0.58,0.82,-2.59,1.28,-20.66,4,4
18929.359,0.214,0.596,0.82,-2.81,0.24,-15.41,4,4
18929.375,0.211,0.578,0.811,-1.65,-0.12,-9.46,4,4
18929.39,0.199,0.58,0.808,0.4,0.61,-4.55,4,4
18929.39,0.198,0.581,0.793,2.32,0.7,-0.4,4,4
18929.406,0.198,0.569,0.778,1.74,0.64,2.75,4,4
18929.421,0.205,0.55,0.779,-1.31,0.7,4.55,4,4
18929.421,0.215,0.542,0.787,-4.06,0.73,5.62,4,4
18929.437,0.221,0.537,0.798,-4.64,0.73,6.65,4,4
18929.453,0.232,0.535,0.811,-4.03,0.27,7.57,4,4
18929.453,0.234,0.531,0.814,-2.99,-0.15,7.93,4,4
18929.468,0.241,0.521,0.812,-1.31,-0.95,7.84,4,4
18929.468,0.238,0.522,0.804,0.18,-1.43,7.6,4,4
18929.484,0.242,0.52,0.797,0.82,-1.89,6.71,4,4
18929.5,0.256,0.525,0.799,0.18,-1.98,5.58,4,4
18929.5,0.25,0.526,0.802,0.73,-1.68,4.61,4,4
18929.515,0.241,0.53,0.802,1.95,-1.62,4.46,4,4
18929.531,0.236,0.534,0.809,0.89,-3.17,4.52,4,4
18929.531,0.251,0.534,0.81,-1.71,-4.85,3.54,4,4
18929.546,0.252,0.533,0.812,-2.9,-6.1,2.01,4,4
18929.562,0.252,0.526,0.812,-1.77,-6.81,1.5,4,4
18929.562,0.261,0.518,0.797,-0.09,-6.93,1.59,4,4
18929.578,0.262,0.516,0.79,0.64,-5.95,0.85,4,4
18929.578,0.257,0.524,0.78,1.59,-4.55,0.06,4,4
18929.593,0.245,0.52,0.774,1.56,-3.08,0.15,4,4
18929.609,0.217,0.497,0.758,1.28,-2.53,-0.18,4,4
18929.609,0.334,0.547,0.785,0.73,-2.14,1.07,4,4
18929.625,0.291,0.594,0.827,-1.13,4.3,-1.71,4,4
18929.64,0.166,0.527,0.826,-0.18,4.76,-3.36,4,4
18929.64,0.178,0.511,0.819,0.49,-2.75,1.71,4,4
18929.656,0.279,0.552,0.82,0.49,-8.03,5.04,4,4
18929.671,0.291,0.585,0.824,-3.3,-6.53,3.05,4,4
18929.671,0.188,0.511,0.81,-3.42,-5.34,0.09,4,4
18929.687,0.212,0.502,0.81,-0.27,-9.74,2.53,4,4
18929.687,0.263,0.56,0.805,0.55,-11.35,4.94,4,4
18929.703,0.258,0.547,0.785,-1.01,-10.13,3.94,4,4
18929.718,0.252,0.526,0.781,-2.81,-8.94,3.91,4,4
18929.718,0.24,0.513,0.773,-1.28,-8.48,4.43,4,4
18929.734,0.283,0.533,0.772,-1.46,-8.45,5.43,4,4
18929.75,0.279,0.537,0.777,-3.39,-6.04,4.24,4,4
18929.75,0.267,0.525,0.797,-4.97,-4.58,2.47,4,4
18929.765,0.244,0.533,0.828,-6.16,-4.94,1.89,4,4
18929.781,0.241,0.533,0.842,-5.77,-7.81,2.72,4,4
18929.781,0.254,0.552,0.848,-7.63,-11.32,4.43,4,4
18929.796,0.25,0.536,0.843,-10.41,-15.23,6.16,4,4
18929.812,0.266,0.507,0.829,-11.75,-17.88,7.97,4,4
18929.812,0.279,0.486,0.803,-9.16,-18.31,8.73,4,4
18929.828,0.299,0.473,0.765,-3.78,-16.42,8.51,4,4
18929.828,0.325,0.453,0.735,0.7,-11.02,6.44,4,4
18929.843,0.353,0.456,0.694,2.87,-3.05,3.45,4,4
18929.859,0.397,0.446,0.648,3.36,8.33,0.31,4,4
18929.859,0.403,0.426,0.596,3.39,24.17,-5.4,4,4
18929.875,0.392,0.432,0.587,2.14,41.9,-12.33,4,4
18929.89,0.386,0.464,0.666,-2.69,58.57,-22.55,4,4
18929.89,0.205,0.598,0.822,-26.95,67.6,-40.13,4,4
18929.906,0.142,0.55,0.973,-54.35,55.67,-39.67,4,4
18929.921,0.054,0.639,1.131,-59.45,30.06,-34.85,4,4
18929.921,0.134,0.706,1.134,-40.47,4.91,-16.54,4,4
18929.937,0.159,0.588,0.975,-8.91,-9.74,0.34,4,4
18929.953,0.177,0.532,0.858,2.84,-15.53,9.86,4,4
18929.953,0.188,0.451,0.767,6.99,-16.88,10.01,4,4
18929.968,0.186,0.427,0.715,7.08,-15.08,6.41,4,4
18929.968,0.187,0.478,0.737,2.5,-12.36,3.97,4,4
18929.984,0.197,0.516,0.808,-5.31,-11.72,5.34,4,4
18930.0,0.198,0.554,0.885,-3.39,-15.35,9.55,4,4
18930.0,0.194,0.554,0.934,-1.71,-20.94,13.73,4,4
18930.015,0.192,0.55,0.949,-1.65,-28.81,18.71,4,4
18930.031,0.262,0.468,0.82,5.58,-33.78,25.3,4,4
18930.031,0.239,0.415,0.767,14.47,-31.65,26.58,4,4
18930.046,0.282,0.518,0.785,9.55,-30.21,28.99,4,4
18930.062,0.338,0.444,0.716,10.71,-26.12,29.08,4,4
18930.062,0.348,0.406,0.673,12.09,-17.09,25.45,4,4
18930.078,0.377,0.446,0.681,10.25,-6.5,22.03,4,4
18930.093,0.377,0.438,0.684,12.36,3.88,17.7,4,4
18930.093,0.354,0.453,0.714,12.97,12.73,13.21,4,4
18930.109,0.325,0.49,0.789,11.93,17.3,9.06,4,4
18930.109,0.287,0.531,0.881,8.73,15.69,5.43,4,4
18930.125,0.256,0.546,0.947,1.77,8.06,3.66,4,4
18930.14,0.247,0.528,0.947,-3.14,-2.35,2.66,4,4
18930.14,0.257,0.491,0.903,-2.47,-11.81,1.65,4,4
18930.156,0.271,0.468,0.843,1.34,-17.27,1.59,4,4
18930.171,0.288,0.469,0.778,5.8,-17.79,2.66,4,4
18930.171,0.302,0.464,0.727,9.06,-13.73,3.08,4,4
18930.187,0.314,0.46,0.698,9.4,-7.14,2.2,4,4
18930.187,0.332,0.464,0.689,7.66,0.73,0.4,4,4
18930.203,0.34,0.472,0.699,6.35,8.97,-1.4,4,4
18930.218,0.335,0.482,0.738,7.02,17.33,-2.41,4,4
18930.218,0.306,0.502,0.797,11.05,23.29,-2.5,4,4
18930.234,0.274,0.532,0.86,15.63,24.14,-1.4,4,4
18930.25,0.236,0.556,0.896,18.68,20.36,0.18,4,4
18930.25,0.207,0.567,0.913,17.85,12.24,1.28,4,4
18930.265,0.215,0.561,0.909,11.99,1.92,1.56,4,4
18930.281,0.226,0.531,0.86,7.11,-7.05,0.21,4,4
18930.281,0.256,0.505,0.809,5.04,-12.09,-0.15,4,4
18930.296,0.271,0.491,0.773,4.94,-12.79,-0.31,4,4
18930.296,0.303,0.496,0.748,6.13,-10.65,-0.27,4,4
18930.312,0.308,0.502,0.74,7.87,-6.2,-0.79,4,4
18930.328,0.313,0.508,0.751,8.88,-1.92,-1.46,4,4
18930.328,0.302,0.527,0.777,9.13,1.28,-2.35,4,4
18930.343,0.283,0.536,0.797,9.55,1.86,-3.23,4,4
18930.359,0.277,0.55,0.805,7.63,0.21,-3.48,4,4
18930.359,0.271,0.549,0.799,4.43,-2.26,-4.27,4,4
18930.375,0.276,0.538,0.783,1.04,-4.18,-5.49,4,4
18930.39,0.279,0.525,0.768,-2.26,-4.85,-6.68,4,4
18930.39,0.289,0.515,0.758,-5.13,-4.27,-7.75,4,4
18930.406,0.297,0.507,0.755,-7.08,-2.29,-8.91,4,4
18930.421,0.301,0.492,0.756,-6.5,0.55,-10.32,4,4
18930.421,0.312,0.489,0.761,-4.36,3.97,-11.2,4,4
18930.437,0.311,0.476,0.748,-0.46,8.36,-12.82,4,4
18930.437,0.321,0.465,0.732,2.2,13.58,-14.74,4,4
18930.453,0.318,0.453,0.722,3.72,19.75,-18.92,4,4
18930.468,0.283,0.478,0.76,1.43,24.11,-24.29,4,4
18930.484,0.259,0.542,0.817,-6.04,24.48,-28.66,4,4
18930.484,0.25,0.555,0.848,-9.98,20.91,-31.25,4,4
18930.5,0.265,0.548,0.861,-7.23,19.23,-30.7,4,4
18930.5,0.089,0.647,0.964,-2.04,16.3,-27.65,4,4
18930.515,0.124,0.769,1.021,-5.98,1.43,-15.11,4,4
18930.531,0.177,0.591,0.879,2.26,-12.51,-5.25,4,4
18930.531,0.198,0.52,0.781,2.56,-15.26,-1.5,4,4
18930.546,0.215,0.505,0.754,5.34,-12.91,1.1,4,4
18930.562,0.212,0.528,0.763,8.61,-9.09,3.42,4,4
18930.562,0.207,0.564,0.798,7.08,-7.81,5.19,4,4
18930.578,0.202,0.564,0.837,4.88,-10.01,6.93,4,4
18930.593,0.207,0.573,0.872,5.1,-14.74,8.82,4,4
18930.593,0.198,0.584,0.892,5.25,-21.0,11.17,4,4
18930.609,0.182,0.591,0.898,0.92,-29.33,12.6,4,4
18930.609,0.222,0.595,0.82,-2.72,-36.99,16.57,4,4
18930.625,0.27,0.41,0.714,-2.11,-37.72,17.33,4,4
18930.64,0.269,0.458,0.83,-18.43,-38.94,9.61,4,4
18930.64,0.31,0.471,0.76,-7.93,-38.03,10.38,4,4
18930.656,0.363,0.411,0.681,9.61,-31.25,11.14,4,4
18930.671,0.379,0.48,0.668,11.54,-20.26,7.54,4,4
18930.671,0.374,0.474,0.653,17.06,-8.55,4.33,4,4
18930.687,0.377,0.486,0.651,18.62,1.86,1.65,4,4
18930.687,0.365,0.531,0.679,17.98,11.02,-0.67,4,4
18930.703,0.338,0.569,0.732,18.04,17.88,-2.59,4,4
18930.718,0.272,0.621,0.799,16.79,19.44,-3.54,4,4
18930.718,0.243,0.655,0.867,7.45,13.15,-2.26,4,4
18930.734,0.236,0.634,0.864,-2.23,3.78,-1.74,4,4
18930.75,0.244,0.574,0.812,-6.41,-4.09,-1.31,4,4
18930.75,0.261,0.552,0.775,-7.6,-7.32,0.82,4,4
18930.765,0.275,0.532,0.739,-6.56,-6.35,3.14,4,4
18930.781,0.287,0.521,0.722,-5.89,-2.84,4.85,4,4
18930.781,0.301,0.526,0.719,-6.23,1.74,5.77,4,4
18930.796,0.309,0.522,0.726,-6.9,6.2,5.55,4,4
18930.812,0.302,0.518,0.747,-7.23,10.13,4.03,4,4
18930.812,0.285,0.536,0.785,-6.81,12.79,2.9,4,4
18930.828,0.267,0.555,0.83,-6.56,12.45,3.14,4,4
18930.828,0.248,0.567,0.868,-6.23,9.0,4.09,4,4
18930.843,0.225,0.567,0.883,-5.58,3.39,5.58,4,4
18930.859,0.225,0.553,0.879,-6.32,-4.18,7.51,4,4
18930.859,0.249,0.525,0.847,-6.65,-10.68,8.55,4,4
18930.875,0.271,0.497,0.799,-4.76,-13.76,8.67,4,4
18930.89,0.289,0.483,0.76,-2.41,-13.4,8.06,4,4
18930.89,0.312,0.487,0.736,-1.28,-10.8,6.59,4,4
18930.906,0.324,0.496,0.728,-1.59,-7.11,4.43,4,4
18930.921,0.334,0.5,0.729,-2.41,-2.93,1.92,4,4
18930.921,0.338,0.507,0.735,-2.84,0.89,-0.76,4,4
18930.937,0.329,0.517,0.754,-2.59,4.79,-2.78,4,4
18930.953,0.31,0.528,0.775,-1.68,7.45,-3.75,4,4
18930.953,0.291,0.541,0.801,-0.98,8.12,-3.45,4,4
18930.968,0.267,0.558,0.839,-0.85,6.68,-2.87,4,4
18930.968,0.24,0.569,0.864,-2.87,-2.75,0.46,4,4
18930.984,0.222,0.573,0.872,-5.22,-9.49,2.78,4,4
18931.0,0.235,0.563,0.856,-6.35,-14.62,4.58,4,4
18931.0,0.276,0.515,0.78,-6.07,-16.42,6.04,4,4
18931.015,0.298,0.502,0.752,-5.46,-15.02,6.96,4,4
18931.031,0.313,0.491,0.741,-4.61,-11.57,6.81,4,4
18931.031,0.324,0.488,0.744,-3.48,-7.6,5.77,4,4
18931.046,0.327,0.496,0.765,-2.29,-3.97,4.33,4,4
18931.046,0.318,0.503,0.796,-0.34,-1.5,2.99,4,4
18931.062,0.295,0.522,0.836,2.53,-1.19,2.66,4,4
18931.078,0.277,0.539,0.863,5.19,-3.72,3.57,4,4
18931.093,0.265,0.546,0.865,7.39,-8.0,4.91,4,4
18931.093,0.263,0.547,0.842,7.97,-13.12,6.59,4,4
18931.109,0.28,0.542,0.81,6.1,-17.49,8.33,4,4
18931.109,0.297,0.531,0.773,3.91,-19.56,9.46,4,4
18931.125,0.317,0.515,0.737,2.23,-19.2,9.61,4,4
18931.14,0.332,0.505,0.711,0.55,-16.45,9.16,4,4
18931.156,0.348,0.504,0.702,-1.1,-12.21,8.12,4,4
18931.156,0.364,0.5,0.703,-3.08,-7.35,6.59,4,4
18931.171,0.368,0.497,0.715,-4.3,-1.92,4.76,4,4
18931.171,0.356,0.503,0.748,-3.78,2.59,2.87,4,4
18931.187,0.333,0.513,0.779,-2.04,5.28,1.95,4,4
18931.187,0.316,0.533,0.823,-0.55,5.19,1.98,4,4
18931.203,0.291,0.548,0.857,1.62,2.5,2.56,4,4
18931.218,0.271,0.551,0.858,3.69,-2.29,4.49,4,4
18931.218,0.271,0.545,0.841,3.42,-7.97,6.78,4,4
18931.234,0.292,0.531,0.816,1.89,-12.76,8.61,4,4
18931.25,0.31,0.513,0.779,0.49,-15.05,8.91,4,4
18931.25,0.326,0.494,0.742,-1.07,-14.62,8.24,4,4
18931.265,0.348,0.482,0.725,-2.32,-11.87,6.99,4,4
18931.281,0.361,0.478,0.721,-2.72,-8.09,5.34,4,4
18931.296,0.368,0.485,0.735,-2.47,-3.91,3.6,4,4
18931.296,0.363,0.493,0.75,-1.68,-0.55,2.01,4,4
18931.296,0.353,0.497,0.762,-0.82,1.83,0.85,4,4
18931.312,0.345,0.511,0.789,-0.06,2.93,-0.18,4,4
18931.328,0.329,0.528,0.811,1.46,2.5,-0.92,4,4
18931.328,0.317,0.531,0.807,2.32,0.67,-0.09,4,4
18931.343,0.318,0.522,0.79,1.92,-1.68,0.67,4,4
18931.359,0.329,0.51,0.767,1.28,-3.17,0.24,4,4
18931.359,0.335,0.508,0.754,-0.18,-2.62,-0.58,4,4
18931.375,0.343,0.5,0.743,-1.46,-1.22,-1.46,4,4
18931.39,0.353,0.503,0.74,-2.5,1.1,-2.14,4,4
18931.39,0.353,0.498,0.738,-2.62,4.06,-3.3,4,4
18931.406,0.35,0.508,0.757,-2.84,6.84,-4.24,4,4
18931.421,0.332,0.517,0.779,-2.2,8.88,-4.82,4,4
18931.421,0.322,0.523,0.8,-1.59,9.13,-4.15,4,4
18931.437,0.312,0.525,0.813,-1.19,7.97,-3.11,4,4
18931.453,0.302,0.529,0.826,-0.79,5.86,-2.38,4,4
18931.453,0.288,0.534,0.832,-0.55,2.93,-1.56,4,4
18931.468,0.293,0.52,0.822,-0.82,-0.76,-0.46,4,4
18931.468,0.307,0.509,0.799,-0.95,-3.27,-0.03,4,4
18931.484,0.316,0.497,0.777,-0.55,-4.03,-0.46,4,4
18931.5,0.332,0.495,0.759,-0.82,-3.39,-1.1,4,4
18931.515,0.339,0.497,0.747,-1.13,-1.5,-1.89,4,4
18931.515,0.349,0.498,0.745,-1.46,0.76,-2.96,4,4
18931.531,0.355,0.506,0.755,-1.71,3.33,-4.0,4,4
18931.531,0.342,0.518,0.773,-1.34,5.74,-5.04,4,4
18931.546,0.323,0.529,0.797,-0.73,6.93,-4.94,4,4
18931.562,0.304,0.54,0.816,0.12,6.16,-3.69,4,4
18931.562,0.293,0.541,0.821,0.31,3.97,-2.04,4,4
18931.578,0.29,0.535,0.82,-0.61,1.1,-0.67,4,4
18931.593,0.294,0.525,0.81,-2.04,-1.71,0.06,4,4
18931.593,0.302,0.511,0.792,-3.05,-3.75,0.46,4,4
18931.609,0.318,0.498,0.773,-3.2,-4.15,0.49,4,4
18931.609,0.331,0.489,0.765,-2.29,-2.56,-0.12,4,4
18931.625,0.341,0.489,0.77,-1.56,0.24,-1.1,4,4
18931.64,0.353,0.484,0.757,0.61,3.51,-2.44,4,4
18931.64,0.372,0.464,0.747,3.88,8.0,-4.73,4,4
18931.656,0.383,0.444,0.697,5.31,14.16,-9.25,4,4
18931.671,0.393,0.428,0.641,4.09,22.98,-15.44,4,4
18931.671,0.418,0.401,0.598,2.99,35.19,-22.13,4,4
18931.687,0.397,0.373,0.589,5.86,50.84,-29.88,4,4
18931.687,0.273,0.496,0.733,-1.98,59.45,-37.32,4,4
18931.703,0.223,0.631,0.981,-23.19,53.62,-39.67,4,4
18931.718,0.06,0.788,1.162,-34.15,32.69,-38.33,4,4
18931.718,0.092,0.838,1.158,-29.57,7.45,-24.2,4,4
18931.734,0.152,0.507,0.908,-1.16,-9.98,-2.53,4,4
18931.75,0.264,0.439,0.748,8.09,-14.71,6.5,4,4
18931.765,0.244,0.447,0.688,11.08,-8.09,2.99,4,4
18931.765,0.215,0.47,0.728,6.35,-2.78,0.18,4,4
18931.781,0.227,0.538,0.808,-1.13,-2.62,1.04,4,4
18931.781,0.242,0.564,0.856,1.22,-4.0,4.15,4,4
18931.796,0.229,0.566,0.889,6.07,-6.59,7.2,4,4
18931.812,0.214,0.567,0.898,8.03,-12.39,9.55,4,4
18931.812,0.22,0.553,0.89,4.0,-20.17,11.14,4,4
18931.828,0.205,0.556,0.859,0.82,-26.86,13.61,4,4
18931.828,0.295,0.513,0.779,-0.37,-31.16,17.64,4,4
18931.843,0.297,0.414,0.713,3.23,-28.47,16.21,4,4
18931.859,0.311,0.481,0.761,-7.87,-24.6,10.93,4,4
18931.875,0.348,0.445,0.771,-11.93,-24.29,5.25,4,4
18931.875,0.365,0.419,0.714,1.56,-17.67,4.79,4,4
18931.89,0.393,0.46,0.708,7.17,-9.7,2.59,4,4
18931.89,0.385,0.487,0.69,11.05,0.06,-0.73,4,4
18931.906,0.362,0.487,0.709,11.78,7.69,-3.51,4,4
18931.921,0.332,0.541,0.752,9.86,12.33,-5.77,4,4
18931.921,0.294,0.575,0.801,7.08,13.55,-6.2,4,4
18931.937,0.259,0.601,0.86,2.08,9.74,-5.52,4,4
18931.937,0.231,0.608,0.892,-2.2,2.9,-4.52,4,4
18931.953,0.219,0.585,0.881,-8.79,-13.18,1.95,4,4
18931.968,0.236,0.56,0.848,-11.11,-17.82,5.4,4,4
18931.968,0.259,0.53,0.81,-10.22,-18.25,6.68,4,4
18931.984,0.282,0.494,0.767,-8.61,-15.5,7.32,4,4
18932.0,0.329,0.467,0.725,-6.59,-9.98,7.02,4,4
18932.0,0.342,0.465,0.724,-4.67,-3.75,5.71,4,4
18932.015,0.343,0.467,0.742,-3.54,2.11,3.66,4,4
18932.031,0.337,0.474,0.761,-2.5,6.44,1.07,4,4
18932.031,0.325,0.498,0.8,-1.53,8.76,-1.25,4,4
18932.046,0.302,0.521,0.846,0.18,8.73,-2.2,4,4
18932.062,0.279,0.532,0.862,2.01,5.98,-1.25,4,4
18932.062,0.265,0.536,0.866,2.9,1.04,0.0,4,4
18932.078,0.268,0.529,0.849,2.56,-4.46,0.34,4,4
18932.078,0.281,0.51,0.813,1.89,-8.33,0.43,4,4
18932.093,0.296,0.495,0.783,1.65,-9.52,0.67,4,4
18932.109,0.313,0.488,0.757,2.11,-8.36,0.58,4,4
18932.109,0.328,0.488,0.738,2.62,-5.25,0.0,4,4
18932.125,0.334,0.495,0.736,2.04,-1.4,-1.13,4,4
18932.14,0.331,0.505,0.752,0.43,2.23,-2.59,4,4
18932.14,0.315,0.522,0.79,-0.67,4.49,-3.88,4,4
18932.156,0.297,0.537,0.825,-0.76,4.55,-3.81,4,4
18932.171,0.279,0.54,0.84,-0.24,2.53,-2.5,4,4
18932.171,0.27,0.527,0.833,0.06,-0.64,-1.04,4,4
18932.187,0.278,0.514,0.819,-0.34,-3.75,-0.15,4,4
18932.203,0.29,0.501,0.801,-0.73,-5.13,0.0,4,4
18932.203,0.291,0.485,0.788,0.4,-4.82,-0.18,4,4
18932.218,0.308,0.476,0.786,3.48,-3.78,0.64,4,4
18932.218,0.325,0.481,0.776,9.16,-1.07,1.8,4,4
18932.234,0.321,0.499,0.764,14.22,2.81,2.5,4,4
18932.25,0.313,0.494,0.767,16.63,5.74,2.01,4,4
18932.25,0.304,0.507,0.781,17.76,7.29,1.22,4,4
18932.265,0.298,0.539,0.809,17.73,7.26,1.04,4,4
18932.281,0.287,0.548,0.829,17.7,5.95,1.28,4,4
18932.281,0.269,0.546,0.835,17.76,3.54,1.95,4,4
18932.296,0.264,0.547,0.829,17.18,-0.46,3.02,4,4
18932.312,0.276,0.537,0.815,15.59,-4.52,3.94,4,4
18932.312,0.286,0.53,0.794,14.5,-7.14,4.12,4,4
18932.328,0.299,0.531,0.77,13.55,-8.24,4.06,4,4
18932.343,0.313,0.528,0.753,12.57,-7.87,3.57,4,4
18932.343,0.322,0.524,0.742,11.72,-6.29,2.53,4,4
18932.359,0.327,0.532,0.729,11.11,-4.12,1.83,4,4
18932.359,0.33,0.542,0.726,10.19,-1.25,0.98,4,4
18932.375,0.323,0.548,0.744,8.88,1.53,-0.34,4,4
18932.39,0.309,0.561,0.76,8.36,2.99,-1.4,4,4
18932.406,0.291,0.58,0.783,7.05,2.81,-0.73,4,4
18932.406,0.277,0.59,0.807,4.15,0.61,0.4,4,4
18932.421,0.271,0.581,0.809,1.22,-3.36,1.34,4,4
18932.421,0.276,0.566,0.797,-0.82,-7.29,2.44,4,4
18932.437,0.289,0.548,0.786,-1.71,-9.83,3.66,4,4
18932.453,0.301,0.532,0.762,-1.1,-10.38,4.49,4,4
18932.453,0.313,0.525,0.744,-0.18,-9.34,5.1,4,4
18932.468,0.33,0.517,0.73,0.15,-7.23,4.36,4,4
18932.468,0.339,0.516,0.724,-0.64,-4.61,2.47,4,4
18932.484,0.345,0.518,0.737,-1.98,-2.04,-0.06,4,4
18932.5,0.343,0.521,0.758,-1.98,0.31,-2.47,4,4
18932.5,0.325,0.534,0.784,-0.58,1.53,-3.97,4,4
18932.515,0.305,0.542,0.809,1.1,0.82,-4.64,4,4
18932.531,0.289,0.547,0.816,2.17,-1.89,-4.79,4,4
18932.531,0.284,0.548,0.814,1.8,-5.65,-4.88,4,4
18932.546,0.291,0.536,0.793,1.59,-9.03,-4.79,4,4
18932.562,0.3,0.528,0.766,2.01,-10.5,-4.76,4,4
18932.562,0.308,0.526,0.743,2.5,-10.01,-4.55,4,4
18932.578,0.316,0.529,0.728,3.05,-8.03,-4.88,4,4
18932.578,0.324,0.537,0.724,2.53,-5.58,-5.74,4,4
18932.593,0.334,0.531,0.727,1.8,-2.81,-6.96,4,4
18932.609,0.335,0.539,0.741,1.95,0.31,-7.81,4,4
18932.625,0.319,0.562,0.779,3.63,2.41,-8.21,4,4
18932.625,0.296,0.574,0.804,5.25,1.86,-7.54,4,4
18932.64,0.281,0.586,0.811,5.04,-1.31,-5.62,4,4
18932.64,0.281,0.583,0.794,4.12,-5.1,-3.91,4,4
18932.656,0.283,0.577,0.777,2.78,-7.69,-2.75,4,4
18932.671,0.291,0.568,0.765,0.49,-9.28,-1.4,4,4
18932.671,0.303,0.554,0.751,-0.92,-9.64,-0.15,4,4
18932.687,0.315,0.546,0.738,-0.92,-8.51,0.64,4,4
18932.687,0.328,0.54,0.73,-0.21,-6.32,1.01,4,4
18932.703,0.335,0.537,0.725,0.4,-3.42,0.82,4,4
18932.718,0.333,0.54,0.735,0.06,-0.46,-0.24,4,4
18932.718,0.324,0.555,0.765,-0.49,1.19,-1.59,4,4
18932.734,0.307,0.567,0.789,-0.12,1.07,-1.8,4,4
18932.75,0.301,0.562,0.795,0.52,-0.64,-1.07,4,4
18932.75,0.306,0.546,0.787,1.86,-2.96,-1.22,4,4
18932.765,0.311,0.528,0.774,2.38,-4.52,-2.17,4,4
18932.781,0.318,0.519,0.758,1.98,-5.16,-3.85,4,4
18932.781,0.328,0.516,0.743,1.01,-4.82,-6.01,4,4
18932.796,0.339,0.522,0.724,-0.21,-2.96,-8.09,4,4
18932.812,0.353,0.522,0.709,-1.65,-0.21,-10.13,4,4
18932.812,0.356,0.511,0.702,-1.56,4.46,-12.67,4,4
18932.828,0.344,0.53,0.7,0.89,10.07,-13.79,4,4
18932.843,0.339,0.549,0.702,3.14,15.26,-13.49,4,4
18932.843,0.323,0.564,0.719,4.06,20.08,-13.49,4,4
18932.859,0.288,0.584,0.742,3.39,23.35,-13.4,4,4
18932.859,0.271,0.596,0.771,-0.79,23.29,-12.79,4,4
18932.875,0.257,0.601,0.793,-4.7,21.09,-12.21,4,4
18932.89,0.234,0.61,0.802,-7.45,17.49,-11.23,4,4
18932.89,0.231,0.616,0.798,-11.87,12.51,-9.06,4,4
18932.906,0.248,0.597,0.781,-16.54,7.9,-7.11,4,4
18932.921,0.267,0.577,0.758,-19.17,5.62,-5.95,4,4
18932.921,0.284,0.557,0.748,-18.92,6.5,-4.3,4,4
18932.937,0.292,0.545,0.739,-15.29,9.4,-2.32,4,4
18932.937,0.297,0.553,0.739,-8.06,17.49,1.37,4,4
18932.953,0.292,0.555,0.747,-8.33,19.96,1.07,4,4
18932.968,0.283,0.542,0.758,-10.62,20.45,-0.03,4,4
18932.968,0.248,0.543,0.82,-12.48,19.38,-1.62,4,4
18932.984,0.227,0.549,0.849,-12.6,16.45,-2.08,4,4
18933.0,0.214,0.547,0.874,-11.66,11.32,-0.98,4,4
18933.0,0.22,0.538,0.884,-10.25,4.88,0.58,4,4
18933.015,0.232,0.509,0.856,-5.98,-0.52,1.77,4,4
18933.031,0.242,0.494,0.818,-1.86,-3.66,1.89,4,4
18933.031,0.259,0.49,0.797,0.49,-4.7,0.64,4,4
18933.046,0.264,0.484,0.784,1.98,-4.21,-2.47,4,4
18933.062,0.254,0.506,0.781,0.76,-4.3,-6.44,4,4
18933.062,0.269,0.518,0.785,-2.29,-5.92,-10.1,4,4
18933.078,0.284,0.519,0.778,-4.97,-6.9,-13.31,4,4
18933.078,0.289,0.51,0.762,-5.65,-6.01,-16.48,4,4
18933.093,0.286,0.501,0.752,-3.81,-3.72,-19.14,4,4
18933.109,0.281,0.514,0.775,-1.98,-0.55,-20.81,4,4
18933.109,0.264,0.53,0.804,0.61,1.59,-21.36,4,4
18933.125,0.249,0.547,0.827,4.55,1.92,-19.29,4,4
18933.14,0.232,0.574,0.842,9.06,1.04,-15.56,4,4
18933.14,0.224,0.576,0.824,11.54,-0.52,-12.48,4,4
18933.156,0.219,0.563,0.788,10.8,-1.62,-10.32,4,4
18933.171,0.227,0.556,0.77,8.82,-1.68,-8.48,4,4
18933.171,0.224,0.572,0.776,7.54,-0.12,-6.56,4,4
18933.187,0.219,0.588,0.791,6.44,0.58,-3.81,4,4
18933.187,0.224,0.584,0.791,4.97,-0.18,-1.28,4,4
18933.203,0.238,0.569,0.777,3.27,-1.16,-0.15,4,4
18933.218,0.256,0.555,0.774,2.01,-0.89,-0.21,4,4
18933.218,0.257,0.54,0.781,1.65,0.92,-1.04,4,4
18933.234,0.249,0.531,0.79,1.8,2.72,-2.5,4,4
18933.25,0.257,0.537,0.806,2.41,2.56,-3.02,4,4
18933.25,0.282,0.526,0.762,3.72,3.05,-3.97,4,4
18933.265,0.309,0.435,0.719,8.09,7.63,-7.84,4,4
18933.281,0.164,0.572,0.84,5.49,10.99,-12.42,4,4
18933.281,0.195,0.669,0.906,1.68,3.91,-7.17,4,4
18933.296,0.194,0.575,0.825,9.86,-3.81,-3.91,4,4
18933.312,0.196,0.591,0.791,10.38,-7.02,-1.13,4,4
18933.312,0.2,0.606,0.761,11.26,-8.94,2.26,4,4
18933.328,0.202,0.63,0.762,6.96,-9.83,6.2,4,4
18933.328,0.204,0.659,0.785,-0.34,-11.47,10.13,4,4
18933.343,0.197,0.65,0.82,-6.16,-14.62,13.73,4,4
18933.359,0.217,0.664,0.792,-10.74,-19.71,19.01,4,4
18933.359,0.313,0.491,0.687,-9.16,-18.46,22.19,4,4
18933.375,0.294,0.417,0.758,-14.1,-12.63,14.62,4,4
18933.39,0.267,0.512,0.865,-16.36,-10.07,9.98,4,4
18933.406,0.263,0.449,0.796,5.68,-10.1,12.63,4,4
18933.406,0.302,0.471,0.8,12.42,-9.8,10.71,4,4
18933.421,0.294,0.53,0.838,15.41,-8.36,6.47,4,4
18933.421,0.262,0.535,0.839,23.99,-7.87,5.49,4,4
18933.437,0.237,0.566,0.835,27.22,-9.8,6.9,4,4
18933.437,0.243,0.595,0.835,24.87,-14.34,8.33,4,4
18933.453,0.262,0.615,0.818,18.8,-19.81,8.42,4,4
18933.468,0.292,0.594,0.789,11.87,-23.87,7.42,4,4
18933.468,0.309,0.552,0.746,8.15,-24.66,5.8,4,4
18933.484,0.322,0.516,0.711,8.73,-21.64,4.03,4,4
18933.5,0.323,0.492,0.672,11.93,-16.33,1.04,4,4
18933.515,0.313,0.479,0.646,14.77,-11.14,-3.2,4,4
18933.515,0.297,0.478,0.633,16.85,-5.43,-7.51,4,4
18933.531,0.282,0.493,0.635,17.43,-0.67,-10.65,4,4
18933.531,0.268,0.528,0.669,16.6,2.47,-12.09,4,4
18933.546,0.25,0.578,0.713,15.5,3.17,-12.39,4,4
18933.562,0.269,0.622,0.748,12.6,0.21,-10.19,4,4
18933.562,0.298,0.66,0.786,9.4,-3.3,-8.09,4,4
18933.578,0.315,0.686,0.8,7.63,-5.65,-6.47,4,4
18933.578,0.314,0.683,0.793,5.74,-6.68,-5.1,4,4
18933.593,0.293,0.652,0.768,4.27,-6.81,-3.57,4,4
18933.609,0.267,0.621,0.757,2.41,-6.38,-1.56,4,4
18933.609,0.249,0.582,0.735,2.44,-5.86,0.34,4,4
18933.625,0.252,0.562,0.714,3.02,-4.7,1.5,4,4
18933.64,0.262,0.561,0.703,3.39,-2.01,0.58,4,4
18933.64,0.271,0.584,0.719,2.32,0.89,-0.98,4,4
18933.656,0.266,0.618,0.751,0.43,3.02,-1.31,4,4
18933.671,0.259,0.629,0.776,-0.24,3.02,-0.46,4,4
18933.671,0.267,0.624,0.77,-1.04,0.79,0.95,4,4
18933.687,0.294,0.603,0.744,-2.5,-1.59,0.98,4,4
18933.703,0.312,0.584,0.729,-3.72,-2.32,-0.43,4,4
18933.703,0.313,0.567,0.718,-3.05,-0.67,-2.38,4,4
18933.718,0.316,0.55,0.718,-1.77,1.4,-3.94,4,4
18933.718,0.314,0.555,0.72,-1.31,3.36,-6.13,4,4
18933.734,0.314,0.559,0.709,-2.08,5.28,-8.7,4,4
18933.75,0.311,0.559,0.709,-3.91,7.17,-11.05,4,4
18933.75,0.291,0.565,0.728,-3.97,8.88,-13.12,4,4
18933.765,0.274,0.57,0.744,-2.2,9.06,-13.15,4,4
18933.781,0.26,0.581,0.759,-0.61,7.84,-11.96,4,4
18933.781,0.252,0.588,0.773,0.24,5.49,-10.83,4,4
18933.796,0.243,0.598,0.793,0.82,2.81,-10.07,4,4
18933.812,0.229,0.605,0.806,1.62,-0.31,-8.97,4,4
18933.812,0.234,0.608,0.808,1.28,-4.12,-7.57,4,4
18933.828,0.242,0.601,0.788,0.46,-7.08,-7.35,4,4
18933.843,0.244,0.591,0.76,-0.82,-8.67,-8.06,4,4
18933.843,0.249,0.574,0.745,-1.77,-8.97,-8.51,4,4
18933.859,0.25,0.57,0.74,-0.15,-8.42,-8.42,4,4
18933.859,0.257,0.571,0.731,2.84,-7.84,-6.9,4,4
18933.875,0.271,0.574,0.732,4.76,-7.08,-4.3,4,4
18933.89,0.277,0.575,0.728,5.49,-6.53,-3.85,4,4
18933.89,0.289,0.563,0.729,5.31,-6.53,-6.9,4,4
18933.906,0.296,0.552,0.745,5.92,-6.01,-12.18,4,4
18933.921,0.28,0.553,0.758,8.55,-4.67,-17.21,4,4
18933.921,0.271,0.555,0.764,13.37,-3.97,-21.82,4,4
18933.937,0.268,0.564,0.764,16.24,-3.81,-23.35,4,4
18933.953,0.261,0.579,0.758,17.88,-4.12,-24.02,4,4
18933.953,0.251,0.609,0.748,17.3,-4.88,-23.35,4,4
18933.968,0.252,0.656,0.708,16.05,-4.94,-22.13,4,4
18933.968,0.224,0.691,0.711,16.11,-3.72,-19.62,4,4
18933.984,0.194,0.734,0.71,14.98,-3.66,-14.22,4,4
18934.0,0.202,0.737,0.704,9.16,-5.19,-7.57,4,4
18934.0,0.22,0.709,0.689,3.42,-5.83,-1.95,4,4
18934.015,0.236,0.69,0.681,-0.73,-4.43,2.99,4,4
18934.031,0.24,0.683,0.7,-4.91,-2.14,6.96,4,4
18934.031,0.241,0.655,0.73,-8.73,-1.65,9.74,4,4
18934.046,0.241,0.631,0.746,-10.53,-2.72,11.23,4,4
18934.046,0.251,0.607,0.759,-10.16,-4.21,11.51,4,4
18934.062,0.263,0.586,0.761,-6.1,-5.16,11.47,4,4
18934.078,0.267,0.581,0.742,-1.07,-5.07,11.35,4,4
18934.078,0.275,0.565,0.728,2.08,-3.85,9.67,4,4
18934.093,0.271,0.568,0.733,4.27,-2.32,7.42,4,4
18934.109,0.274,0.577,0.733,6.56,-1.98,5.4,4,4
18934.109,0.286,0.586,0.734,7.32,-2.35,3.54,4,4
18934.125,0.282,0.594,0.732,7.6,-2.44,1.04,4,4
18934.14,0.266,0.605,0.733,7.57,-3.02,-1.28,4,4
18934.156,0.26,0.619,0.738,6.01,-4.82,-2.93,4,4
18934.156,0.255,0.625,0.738,5.31,-6.29,-3.88,4,4
18934.171,0.255,0.632,0.737,5.43,-6.9,-3.17,4,4
18934.171,0.262,0.63,0.727,6.35,-6.87,-1.62,4,4
18934.187,0.266,0.621,0.706,7.54,-6.16,-0.31,4,4
18934.203,0.268,0.622,0.699,8.06,-4.94,0.55,4,4
18934.203,0.269,0.628,0.698,8.03,-3.3,1.04,4,4
18934.218,0.275,0.628,0.7,7.11,-2.32,1.53,4,4
18934.218,0.28,0.623,0.703,5.89,-1.77,1.04,4,4
18934.234,0.274,0.627,0.707,5.95,-0.79,0.24,4,4
18934.25,0.262,0.638,0.721,6.59,-0.4,-0.06,4,4
18934.25,0.258,0.64,0.726,6.74,-1.04,0.64,4,4
18934.265,0.265,0.636,0.728,7.32,-1.74,1.5,4,4
18934.281,0.261,0.636,0.729,8.82,-2.01,1.95,4,4
18934.281,0.26,0.637,0.727,9.86,-2.29,2.93,4,4
18934.296,0.265,0.634,0.72,10.93,-2.93,3.69,4,4
18934.312,0.269,0.637,0.717,12.12,-3.54,3.97,4,4
18934.312,0.273,0.635,0.723,13.06,-3.54,4.15,4,4
18934.328,0.276,0.635,0.737,14.37,-3.45,4.09,4,4
18934.343,0.271,0.634,0.76,17.61,-3.02,4.09,4,4
18934.343,0.265,0.647,0.781,22.68,-2.99,4.73,4,4
18934.359,0.251,0.669,0.802,27.77,-3.69,6.71,4,4
18934.359,0.269,0.701,0.817,31.5,-7.32,9.7,4,4
18934.375,0.292,0.738,0.821,34.15,-9.77,10.47,4,4
18934.39,0.3,0.751,0.819,33.94,-12.54,9.86,4,4
18934.39,0.283,0.745,0.808,32.01,-13.7,3.02,4,4
18934.406,0.246,0.721,0.816,27.89,-14.68,-9.92,4,4
18934.421,0.252,0.714,0.854,27.28,-16.63,-22.31,4,4
18934.421,0.208,0.756,0.927,34.15,-18.1,-33.69,4,4
18934.437,0.194,0.782,0.945,48.37,-24.72,-39.52,4,4
18934.453,0.183,0.818,0.957,61.92,-33.36,-42.12,4,4
18934.453,0.2,0.851,0.931,71.08,-43.12,-43.95,4,4
18934.468,0.217,0.856,0.893,74.04,-52.43,-46.42,4,4
18934.468,0.272,0.859,0.875,73.67,-60.98,-50.54,4,4
18934.484,0.295,0.857,0.856,76.02,-65.07,-59.42,4,4
18934.5,0.302,0.861,0.847,79.13,-68.85,-69.4,4,4
18934.5,0.31,0.882,0.845,84.11,-74.1,-79.93,4,4
18934.515,0.335,0.915,0.835,91.4,-80.2,-91.95,4,4
18934.531,0.359,0.959,0.83,101.08,-85.6,-105.44,4,4
18934.531,0.371,1.004,0.83,113.65,-90.49,-120.7,4,4
18934.546,0.397,1.07,0.85,128.15,-96.5,-137.46,4,4
18934.562,0.406,1.137,0.874,148.05,-101.78,-156.47,4,4
18934.562,0.357,1.195,0.881,174.69,-105.75,-174.96,4,4
18934.578,0.239,1.259,0.879,203.07,-112.06,-188.85,4,4
18934.593,0.093,1.343,0.846,227.64,-126.59,-194.37,4,4
18934.593,-0.004,1.406,0.742,244.06,-149.82,-192.11,4,4
18934.609,-0.063,1.453,0.617,250.01,-176.12,-183.32,4,4
18934.609,-0.086,1.484,0.449,247.11,-199.65,-168.55,4,4
18934.625,-0.114,1.482,0.286,235.42,-219.55,-152.04,4,4
18934.64,-0.172,1.429,0.15,221.35,-236.92,-135.26,4,4
18934.656,-0.227,1.355,0.019,209.97,-252.54,-116.67,4,4
18934.656,-0.284,1.278,-0.141,203.19,-265.94,-97.6,4,4
18934.671,-0.324,1.203,-0.306,200.54,-277.05,-76.69,4,4
18934.671,-0.349,1.14,-0.461,200.9,-283.82,-55.64,4,4
18934.687,-0.334,1.049,-0.605,203.13,-284.25,-33.66,4,4
18934.703,-0.275,0.963,-0.754,205.57,-277.72,-10.07,4,4
18934.703,-0.172,0.892,-0.907,204.14,-263.68,15.5,4,4
18934.718,-0.008,0.824,-1.046,197.27,-239.3,41.63,4,4
18934.734,0.17,0.776,-1.169,186.99,-201.57,61.04,4,4
18934.734,0.332,0.71,-1.239,176.52,-150.18,73.79,4,4
18934.75,0.408,0.667,-1.255,165.44,-95.49,79.87,4,4
18934.765,0.434,0.66,-1.173,153.81,-40.5,79.62,4,4
18934.765,0.388,0.655,-1.011,143.44,6.41,75.44,4,4
18934.781,0.314,0.598,-0.825,134.16,36.41,76.6,4,4
18934.781,0.251,0.517,-0.693,126.22,48.01,89.88,4,4
18934.796,0.217,0.483,-0.614,114.81,46.94,111.42,4,4
18934.812,0.217,0.458,-0.618,97.87,42.51,132.33,4,4
18934.812,0.241,0.388,-0.668,73.58,43.86,147.1,4,4
18934.828,0.242,0.303,-0.704,45.29,51.79,153.39,4,4
18934.843,0.217,0.256,-0.656,21.12,65.49,151.8,4,4
18934.843,0.225,0.207,-0.532,7.42,79.26,142.25,4,4
18934.859,0.266,0.184,-0.418,8.94,89.3,122.29,4,4
18934.875,0.262,0.237,-0.342,21.12,97.05,92.75,4,4
18934.875,0.274,0.337,-0.257,32.14,99.64,59.76,4,4
18934.89,0.238,0.394,-0.191,40.01,94.49,23.68,4,4
18934.89,0.231,0.472,-0.167,37.32,84.05,-11.35,4,4
18934.906,0.311,0.609,-0.079,20.39,72.24,-42.24,4,4
18934.921,0.284,0.657,-0.081,4.76,55.27,-106.05,4,4
18934.921,0.283,0.67,-0.09,2.01,50.78,-131.84,4,4
18934.937,0.293,0.689,-0.088,9.4,48.65,-156.71,4,4
18934.953,0.223,0.753,-0.101,23.53,49.13,-174.17,4,4
18934.953,0.106,0.834,-0.104,31.77,52.19,-182.04,4,4
18934.968,0.007,1.001,-0.048,27.62,49.81,-180.21,4,4
18934.984,-0.105,1.157,-0.024,13.03,37.54,-169.16,4,4
18934.984,-0.116,1.204,-0.088,-13.73,21.42,-155.43,4,4
18935.0,-0.034,1.155,-0.155,-44.25,10.59,-143.77,4,4
18935.0,-0.069,1.099,-0.21,-58.84,13.73,-136.48,4,4
18935.015,-0.12,1.1,-0.229,-57.89,20.72,-129.89,4,4
18935.031,-0.129,1.12,-0.211,-50.97,24.2,-121.71,4,4
18935.031,-0.155,1.136,-0.219,-41.84,27.34,-110.84,4,4
18935.046,-0.158,1.179,-0.26,-35.4,30.18,-96.01,4,4
18935.062,-0.128,1.252,-0.293,-34.85,33.75,-79.56,4,4
18935.062,-0.12,1.264,-0.324,-41.44,35.86,-64.46,4,4
18935.078,-0.118,1.206,-0.319,-49.84,38.18,-50.63,4,4
18935.093,-0.135,1.161,-0.248,-48.16,41.9,-37.97,4,4
18935.093,-0.171,1.12,-0.198,-35.46,41.99,-24.29,4,4
18935.109,-0.152,1.074,-0.193,-22.68,38.58,-9.98,4,4
18935.109,-0.122,1.014,-0.203,-13.82,37.48,2.56,4,4
18935.125,-0.154,0.978,-0.18,-7.26,38.97,12.85,4,4
18935.14,-0.189,0.926,-0.161,-3.42,38.54,23.68,4,4
18935.14,-0.156,0.863,-0.163,-3.57,36.29,32.78,4,4
18935.156,-0.133,0.815,-0.161,-4.46,35.86,37.17,4,4
18935.171,-0.107,0.761,-0.14,-4.36,36.07,38.76,4,4
18935.171,-0.126,0.732,-0.058,-2.53,35.52,39.52,4,4
18935.187,-0.135,0.674,-0.048,2.66,30.92,41.69,4,4
18935.203,-0.087,0.664,-0.062,2.84,23.87,44.86,4,4
18935.203,-0.019,0.646,-0.07,-1.22,15.9,44.59,4,4
18935.218,0.053,0.627,-0.067,-5.52,8.33,40.35,4,4
18935.218,0.105,0.626,-0.051,-6.07,1.25,34.36,4,4
18935.234,0.153,0.643,-0.061,-2.56,-5.52,29.45,4,4
18935.25,0.198,0.697,-0.083,0.92,-11.51,26.03,4,4
18935.25,0.229,0.749,-0.109,0.73,-16.85,25.61,4,4
18935.265,0.254,0.784,-0.106,-4.09,-22.64,28.44,4,4
18935.281,0.267,0.801,-0.124,-8.73,-27.89,34.12,4,4
18935.296,0.303,0.799,-0.141,-14.83,-32.2,41.81,4,4
18935.296,0.318,0.798,-0.145,-22.22,-34.33,48.52,4,4
18935.312,0.276,0.791,-0.119,-29.48,-34.82,52.89,4,4
18935.312,0.243,0.772,-0.078,-36.74,-36.16,55.06,4,4
18935.328,0.213,0.781,-0.052,-45.47,-39.61,54.05,4,4
18935.343,0.185,0.79,-0.019,-55.45,-45.23,50.42,4,4
18935.343,0.177,0.787,0.004,-60.95,-52.25,44.65,4,4
18935.359,0.198,0.807,-0.006,-59.39,-59.08,36.84,4,4
18935.375,0.201,0.852,-0.027,-54.57,-63.69,27.38,4,4
18935.375,0.192,0.875,-0.055,-49.07,-66.01,19.23,4,4
18935.39,0.189,0.894,-0.083,-45.23,-66.01,12.57,4,4
18935.39,0.152,0.935,-0.093,-41.9,-63.26,8.09,4,4
18935.406,0.11,0.982,-0.075,-41.81,-60.55,6.78,4,4
18935.421,0.078,1.01,-0.073,-44.47,-59.21,7.78,4,4
18935.421,0.062,1.018,-0.103,-48.19,-57.68,10.04,4,4
18935.437,0.051,1.03,-0.108,-52.77,-54.2,12.73,4,4
18935.453,0.034,1.027,-0.11,-56.22,-51.15,15.5,4,4
18935.453,0.03,1.007,-0.131,-56.55,-48.59,18.59,4,4
18935.468,0.038,0.994,-0.137,-53.83,-44.83,20.63,4,4
18935.468,0.029,0.985,-0.16,-47.06,-39.8,20.81,4,4
18935.484,0.035,0.985,-0.198,-40.22,-33.75,19.68,4,4
18935.5,0.016,1.004,-0.195,-36.29,-26.28,17.49,4,4
18935.5,-0.019,0.996,-0.174,-33.94,-21.15,17.03,4,4
18935.515,0.015,0.977,-0.165,-33.36,-20.6,18.01,4,4
18935.531,0.07,0.972,-0.185,-31.01,-20.78,17.64,4,4
18935.531,0.099,0.966,-0.205,-25.15,-18.13,14.98,4,4
18935.546,0.112,0.957,-0.222,-18.43,-14.25,10.59,4,4
18935.562,0.131,0.954,-0.206,-11.17,-9.95,4.61,4,4
18935.562,0.108,0.967,-0.172,-2.75,-6.1,-2.56,4,4
18935.578,0.082,0.957,-0.159,2.81,-6.26,-7.2,4,4
18935.593,0.101,0.951,-0.176,3.78,-8.45,-6.71,4,4
18935.593,0.127,0.945,-0.192,1.13,-9.83,-3.6,4,4
18935.609,0.15,0.923,-0.174,-0.21,-9.03,-1.74,4,4
18935.609,0.163,0.896,-0.14,4.61,-6.78,-3.45,4,4
18935.625,0.168,0.855,-0.125,11.84,-4.3,-7.32,4,4
18935.64,0.161,0.804,-0.095,16.72,-3.48,-13.31,4,4
18935.656,0.18,0.734,-0.081,21.85,-5.77,-25.12,4,4
18935.656,0.172,0.692,-0.069,26.18,-9.25,-42.63,4,4
18935.671,0.166,0.71,-0.082,29.05,-12.91,-61.98,4,4
18935.671,0.197,0.777,-0.078,27.77,-15.53,-77.64,4,4
18935.687,0.233,0.817,-0.041,20.6,-16.85,-87.25,4,4
18935.703,0.251,0.858,0.025,10.8,-20.51,-93.78,4,4
18935.703,0.197,0.941,0.081,5.68,-25.03,-96.44,4,4
18935.718,0.099,1.044,0.102,2.9,-33.63,-90.12,4,4
18935.734,0.113,1.08,0.104,0.58,-44.34,-75.11,4,4
18935.734,0.111,1.165,0.069,-5.4,-51.79,-57.25,4,4
18935.75,0.096,1.186,-0.012,-11.87,-54.26,-37.9,4,4
18935.75,0.082,1.155,-0.056,-16.88,-51.36,-19.44,4,4
18935.765,0.05,1.153,-0.092,-22.0,-46.11,-2.29,4,4
18935.781,0.029,1.152,-0.11,-26.86,-40.25,12.67,4,4
18935.781,0.029,1.135,-0.094,-29.27,-35.28,24.38,4,4
18935.796,0.039,1.128,-0.11,-29.94,-32.23,33.42,4,4
18935.812,0.063,1.093,-0.112,-31.8,-29.91,39.22,4,4
18935.812,0.062,1.038,-0.114,-30.7,-28.14,40.35,4,4
18935.828,0.045,1.005,-0.12,-26.03,-27.1,38.21,4,4
18935.828,0.039,0.982,-0.104,-19.07,-25.06,33.88,4,4
18935.843,0.012,0.962,-0.11,-13.25,-21.67,31.92,4,4
18935.859,0.011,0.94,-0.116,-12.88,-19.29,33.27,4,4
18935.859,0.031,0.937,-0.123,-16.72,-18.28,34.61,4,4
18935.875,0.062,0.927,-0.127,-19.04,-18.86,31.98,4,4
18935.89,0.073,0.914,-0.144,-15.93,-19.71,25.57,4,4
18935.906,0.071,0.921,-0.158,-2.35,-15.14,14.4,4,4
18935.906,0.031,0.95,-0.169,-0.98,-12.54,13.95,4,4
18935.906,-0.005,0.966,-0.172,-4.03,-12.45,14.22,4,4
18935.921,-0.014,0.96,-0.173,-3.66,-11.29,13.03,4,4
18935.937,-0.001,0.964,-0.191,-0.18,-8.61,12.33,4,4
18935.953,0.006,0.986,-0.215,1.37,-5.46,13.98,4,4
18935.953,0.005,1.016,-0.231,-0.73,-2.01,17.03,4,4
18935.968,0.012,1.005,-0.231,-3.69,0.82,19.56,4,4
18935.968,0.019,0.99,-0.233,-3.14,3.85,20.51,4,4
18935.984,0.021,0.986,-0.24,-0.43,7.51,20.36,4,4
18936.0,0.012,0.981,-0.261,0.52,11.32,20.54,4,4
18936.0,0.037,0.978,-0.289,-1.8,15.2,21.58,4,4
18936.015,0.071,0.953,-0.287,-4.06,20.91,21.15,4,4
18936.031,0.077,0.91,-0.252,-2.69,27.86,18.19,4,4
18936.031,0.064,0.902,-0.216,2.78,34.46,13.92,4,4
18936.046,0.065,0.906,-0.203,6.9,39.55,11.38,4,4
18936.062,0.083,0.918,-0.179,5.8,42.73,9.55,4,4
18936.062,0.095,0.914,-0.127,3.51,44.01,5.68,4,4
18936.078,0.112,0.914,-0.086,5.19,43.28,0.79,4,4
18936.078,0.134,0.933,-0.07,7.54,41.47,-1.56,4,4
18936.093,0.147,0.953,-0.058,7.35,39.34,-1.56,4,4
18936.109,0.162,0.956,-0.067,4.3,36.44,0.27,4,4
18936.109,0.176,0.956,-0.081,1.53,34.0,2.14,4,4
18936.125,0.183,0.948,-0.106,0.58,33.02,2.93,4,4
18936.14,0.181,0.942,-0.114,0.67,34.03,3.23,4,4
18936.14,0.169,0.939,-0.103,1.74,36.5,3.33,4,4
18936.156,0.138,0.955,-0.083,1.53,38.21,3.66,4,4
18936.171,0.12,0.966,-0.058,-0.27,38.3,4.52,4,4
18936.171,0.129,0.965,-0.054,-1.74,37.17,5.58,4,4
18936.187,0.152,0.96,-0.052,-2.56,37.02,6.96,4,4
18936.203,0.157,0.961,-0.051,-2.2,37.87,8.03,4,4
18936.203,0.176,0.962,-0.043,-2.41,38.15,9.61,4,4
18936.218,0.181,0.959,-0.033,-3.3,38.09,10.1,4,4
18936.218,0.175,0.945,-0.02,-3.97,37.66,9.46,4,4
18936.234,0.188,0.919,-0.011,-3.02,36.87,8.3,4,4
18936.25,0.197,0.923,-0.003,-0.67,35.98,6.59,4,4
18936.25,0.2,0.945,0.008,0.85,34.73,4.0,4,4
18936.265,0.202,0.959,0.018,-0.27,32.2,1.28,4,4
18936.281,0.211,0.967,0.015,-1.28,29.08,-1.19,4,4
18936.281,0.212,0.984,-0.002,-1.19,26.73,-2.62,4,4
18936.296,0.215,1.02,-0.02,-1.53,24.23,-3.23,4,4
18936.296,0.223,1.059,-0.04,-1.83,21.21,-5.13,4,4
18936.312,0.231,1.089,-0.067,-0.18,17.79,-9.43,4,4
18936.328,0.233,1.134,-0.103,5.55,15.05,-17.06,4,4
18936.343,0.216,1.177,-0.137,14.5,13.18,-25.97,4,4
18936.343,0.179,1.248,-0.167,21.36,12.3,-32.38,4,4
18936.359,0.166,1.313,-0.2,22.28,11.05,-34.3,4,4
18936.359,0.194,1.373,-0.217,18.92,11.02,-32.62,4,4
18936.375,0.215,1.414,-0.227,15.84,13.64,-28.75,4,4
18936.39,0.231,1.447,-0.216,14.71,17.46,-22.89,4,4
18936.39,0.216,1.453,-0.196,16.39,22.37,-15.11,4,4
18936.406,0.181,1.444,-0.196,17.88,26.09,-4.46,4,4
18936.421,0.186,1.422,-0.21,16.36,27.38,8.15,4,4
18936.421,0.231,1.374,-0.204,14.28,29.51,18.19,4,4
18936.437,0.251,1.299,-0.178,15.05,33.75,25.73,4,4
18936.453,0.222,1.223,-0.137,18.34,38.79,31.92,4,4
18936.453,0.221,1.146,-0.099,20.91,42.85,34.09,4,4
18936.468,0.259,1.055,-0.065,23.59,44.25,37.17,4,4
18936.468,0.287,0.974,-0.018,25.67,45.29,37.81,4,4
18936.484,0.3,0.902,0.033,25.27,44.59,35.8,4,4
18936.5,0.313,0.838,0.082,23.68,41.87,31.92,4,4
18936.5,0.312,0.773,0.113,24.17,37.02,27.1,4,4
18936.515,0.308,0.729,0.115,24.96,31.28,23.53,4,4
18936.531,0.298,0.72,0.087,23.16,24.02,21.42,4,4
18936.546,0.308,0.722,0.043,19.04,15.5,18.89,4,4
18936.546,0.308,0.715,0.007,15.66,9.61,13.86,4,4
18936.546,0.276,0.713,-0.026,16.45,7.57,7.93,4,4
18936.562,0.227,0.727,-0.066,19.26,8.7,5.07,4,4
18936.578,0.198,0.761,-0.088,16.33,11.29,7.02,4,4
18936.593,0.187,0.76,-0.106,8.97,14.59,10.77,4,4
18936.593,0.186,0.749,-0.114,2.08,17.98,13.12,4,4
18936.609,0.189,0.769,-0.081,-1.22,20.78,12.73,4,4
18936.609,0.177,0.774,-0.049,0.89,21.45,10.13,4,4
18936.625,0.176,0.803,-0.042,4.55,19.78,6.65,4,4
18936.64,0.178,0.827,-0.047,6.23,17.15,3.08,4,4
18936.64,0.171,0.844,-0.064,5.92,15.47,0.82,4,4
18936.656,0.154,0.856,-0.094,4.27,14.83,0.43,4,4
18936.671,0.169,0.874,-0.103,2.87,16.17,1.16,4,4
18936.671,0.166,0.884,-0.122,1.8,19.1,2.93,4,4
18936.687,0.183,0.896,-0.107,-0.15,22.31,5.22,4,4
18936.703,0.198,0.892,-0.088,0.18,25.3,6.2,4,4
18936.703,0.199,0.875,-0.059,2.66,27.71,6.1,4,4
18936.718,0.191,0.873,-0.025,6.68,28.69,5.89,4,4
18936.718,0.202,0.898,-0.016,8.88,26.92,6.53,4,4
18936.734,0.238,0.919,-0.014,6.53,23.47,7.54,4,4
18936.75,0.244,0.933,-0.019,3.27,21.67,8.67,4,4
18936.765,0.249,0.933,-0.03,0.7,21.33,12.15,4,4
18936.765,0.269,0.912,-0.044,-0.82,21.76,17.33,4,4
18936.781,0.289,0.884,-0.05,-1.04,24.51,21.12,4,4
18936.781,0.267,0.877,-0.025,-2.38,27.28,23.1,4,4
18936.796,0.244,0.879,0.017,-4.97,25.82,23.96,4,4
18936.812,0.253,0.869,0.021,-5.37,20.72,24.54,4,4
18936.812,0.27,0.876,-0.014,-5.52,15.29,25.79,4,4
18936.828,0.302,0.868,-0.048,-7.29,10.35,26.25,4,4
18936.828,0.327,0.844,-0.075,-7.75,7.84,24.05,4,4
18936.843,0.344,0.813,-0.075,-4.49,8.55,19.59,4,4
18936.859,0.304,0.805,-0.07,-0.37,10.96,14.34,4,4
18936.875,0.256,0.818,-0.036,0.85,10.04,9.13,4,4
18936.875,0.245,0.821,-0.038,0.58,3.2,1.56,4,4
18936.89,0.266,0.822,-0.065,-1.07,1.8,-0.76,4,4
18936.906,0.292,0.828,-0.083,-1.95,1.53,-2.93,4,4
18936.921,0.292,0.829,-0.094,-1.86,0.89,-5.83,4,4
18936.937,0.243,0.837,-0.088,-1.5,-0.76,-8.24,4,4
18936.953,0.228,0.839,-0.102,-3.48,-2.99,-7.54,4,4
18936.953,0.243,0.848,-0.12,-9.06,-6.35,-5.01,4,4
18936.968,0.241,0.853,-0.135,-15.5,-10.07,-3.6,4,4
18936.984,0.235,0.855,-0.139,-19.5,-14.65,-5.19,4,4
18936.984,0.24,0.857,-0.167,-18.95,-19.38,-10.74,4,4
18937.0,0.25,0.861,-0.215,-14.62,-22.37,-19.29,4,4
18937.015,0.249,0.898,-0.245,-8.18,-23.29,-29.11,4,4
18937.015,0.238,0.938,-0.265,-1.68,-23.13,-39.25,4,4
18937.031,0.208,0.968,-0.275,1.5,-21.24,-47.7,4,4
18937.046,0.166,1.0,-0.243,2.66,-17.24,-52.83,4,4
18937.046,0.108,1.012,-0.2,4.24,-13.89,-53.53,4,4
18937.046,0.079,1.03,-0.178,6.26,-11.54,-49.5,4,4
18937.062,0.073,1.07,-0.167,4.55,-9.83,-42.57,4,4
18937.062,0.077,1.074,-0.15,-0.43,-8.88,-36.87,4,4
18937.062,0.074,1.02,-0.133,-2.78,-7.72,-34.39,4,4
18937.078,0.067,0.979,-0.127,3.11,-4.3,-35.46,4,4
18937.093,0.029,0.98,-0.129,11.57,-0.98,-38.06,4,4
18937.093,0.015,0.986,-0.13,14.77,0.37,-41.41,4,4
18937.109,0.005,0.97,-0.152,14.53,2.69,-44.47,4,4
18937.125,0.028,0.973,-0.158,15.75,6.29,-45.75,4,4
18937.125,0.052,1.061,-0.164,19.35,11.44,-46.78,4,4
18937.14,0.037,1.111,-0.172,18.31,15.66,-45.75,4,4
18937.14,0.04,1.116,-0.169,14.71,17.82,-43.12,4,4
18937.156,0.053,1.098,-0.182,17.0,20.54,-40.19,4,4
18937.171,0.037,1.089,-0.193,25.21,25.24,-37.93,4,4
18937.171,0.005,1.056,-0.203,32.04,31.71,-34.64,4,4
18937.187,-0.046,1.0,-0.182,29.42,38.85,-26.43,4,4
18937.203,-0.081,0.938,-0.113,23.04,44.95,-11.51,4,4
18937.203,-0.097,0.936,-0.105,15.69,46.3,8.94,4,4
18937.218,-0.028,0.927,-0.171,1.34,38.54,27.07,4,4
18937.218,0.07,0.84,-0.201,-6.74,31.43,34.36,4,4
18937.234,0.064,0.76,-0.236,-0.61,32.41,33.14,4,4
18937.25,0.01,0.715,-0.263,7.32,36.56,27.5,4,4
18937.25,-0.041,0.685,-0.257,12.18,42.09,17.61,4,4
18937.265,-0.081,0.689,-0.248,13.73,45.01,4.09,4,4
18937.281,-0.095,0.713,-0.192,15.66,44.04,-11.35,4,4
18937.281,-0.126,0.798,-0.18,21.79,40.01,-25.82,4,4
18937.296,-0.114,0.895,-0.196,26.18,34.46,-36.38,4,4
18937.296,-0.111,0.985,-0.22,28.26,31.92,-42.42,4,4
18937.312,-0.16,1.007,-0.246,28.99,32.47,-44.25,4,4
18937.328,-0.188,1.01,-0.273,30.34,34.61,-41.93,4,4
18937.328,-0.19,1.052,-0.295,30.55,39.64,-37.66,4,4
18937.343,-0.181,1.042,-0.329,26.46,46.63,-30.3,4,4
18937.359,-0.102,1.054,-0.365,17.06,50.08,-23.77,4,4
18937.375,0.023,1.057,-0.326,11.75,54.63,-23.13,4,4
18937.375,0.031,1.046,-0.25,16.27,61.89,-27.25,4,4
18937.39,0.001,1.043,-0.185,21.7,64.73,-30.82,4,4
18937.39,0.042,1.049,-0.14,22.77,63.78,-31.86,4,4
18937.406,0.09,1.064,-0.113,23.38,62.84,-33.48,4,4
18937.421,0.11,1.071,-0.085,23.77,62.44,-35.1,4,4
18937.421,0.128,1.039,-0.054,22.71,61.19,-35.52,4,4
18937.437,0.158,1.005,-0.033,21.85,59.57,-34.21,4,4
18937.453,0.189,1.006,-0.011,21.24,57.86,-32.5,4,4
18937.453,0.216,1.003,0.007,17.52,55.48,-31.07,4,4
18937.468,0.248,0.991,0.001,10.62,51.0,-30.82,4,4
18937.468,0.269,0.991,-0.013,6.65,47.21,-30.95,4,4
18937.484,0.268,1.02,-0.023,4.24,43.28,-29.85,4,4
18937.5,0.255,0.993,-0.034,-1.19,35.92,-22.43,4,4
18937.5,0.291,0.996,-0.041,-6.26,32.32,-23.29,4,4
18937.515,0.285,1.028,-0.034,-7.08,29.45,-19.96,4,4
18937.531,0.276,1.021,-0.054,-8.82,27.1,-14.86,4,4
18937.531,0.31,0.978,-0.031,-9.25,24.63,-7.97,4,4
18937.546,0.344,0.972,-0.016,-3.51,24.75,-8.15,4,4
18937.562,0.349,0.999,-0.016,4.97,24.41,-8.85,4,4
18937.562,0.321,0.987,-0.015,9.83,23.44,-10.01,4,4
18937.578,0.288,0.979,-0.022,8.61,20.97,-10.77,4,4
18937.578,0.268,0.971,-0.049,5.37,16.17,-9.61,4,4
18937.593,0.292,0.966,-0.066,4.18,11.69,-8.79,4,4
18937.609,0.284,0.977,-0.078,5.37,10.68,-9.67,4,4
18937.609,0.266,0.982,-0.08,8.12,11.78,-9.37,4,4
18937.625,0.229,1.004,-0.075,9.8,12.6,-6.07,4,4
18937.64,0.211,1.008,-0.087,8.18,10.25,-1.65,4,4
18937.64,0.241,1.004,-0.096,5.58,8.18,2.87,4,4
18937.656,0.225,0.99,-0.093,3.02,8.15,6.01,4,4
18937.671,0.199,0.974,-0.053,0.85,9.0,10.65,4,4
18937.671,0.155,0.968,-0.071,-2.72,6.81,15.78,4,4
18937.687,0.203,0.938,-0.094,-9.22,2.04,18.89,4,4
18937.703,0.242,0.89,-0.085,-9.16,0.76,17.94,4,4
18937.703,0.204,0.873,-0.086,-3.39,1.77,13.15,4,4
18937.718,0.201,0.859,-0.078,0.95,2.53,9.61,4,4
18937.718,0.195,0.865,-0.06,0.58,1.59,7.23,4,4
18937.734,0.206,0.865,-0.02,-3.39,-1.1,5.74,4,4
18937.75,0.199,0.868,-0.018,-6.87,-4.91,5.13,4,4
18937.75,0.189,0.885,-0.05,-8.21,-10.04,4.33,4,4
18937.765,0.195,0.912,-0.058,-9.52,-13.46,3.2,4,4
18937.781,0.148,0.92,-0.09,-11.93,-15.41,1.65,4,4
18937.781,0.139,0.914,-0.113,-13.4,-16.79,1.5,4,4
18937.796,0.141,0.922,-0.117,-11.51,-16.21,1.31,4,4
18937.812,0.138,0.944,-0.114,-8.42,-14.68,1.19,4,4
18937.812,0.128,0.974,-0.096,-9.03,-13.92,2.47,4,4
18937.828,0.146,0.97,-0.094,-11.75,-15.32,5.65,4,4
18937.843,0.181,0.95,-0.091,-13.28,-15.72,9.43,4,4
18937.843,0.182,0.951,-0.07,-13.21,-15.05,10.99,4,4
18937.859,0.168,0.938,-0.062,-14.31,-16.27,10.99,4,4
18937.859,0.169,0.925,-0.07,-17.15,-21.36,5.98,4,4
18937.875,0.18,0.93,-0.078,-15.75,-22.89,1.25,4,4
18937.89,0.174,0.944,-0.094,-14.28,-23.01,-2.14,4,4
18937.89,0.178,0.974,-0.089,-13.64,-21.88,-3.33,4,4
18937.906,0.177,0.979,-0.069,-13.52,-21.15,-2.78,4,4
18937.921,0.184,0.974,-0.061,-13.95,-21.79,-2.26,4,4
18937.921,0.198,0.964,-0.068,-13.61,-23.62,-3.88,4,4
18937.937,0.211,0.951,-0.083,-10.68,-24.9,-8.18,4,4
18937.953,0.197,0.945,-0.103,-7.66,-24.14,-13.46,4,4
18937.953,0.197,0.916,-0.114,-7.66,-23.19,-19.14,4,4
18937.968,0.2,0.922,-0.075,-7.84,-22.06,-26.31,4,4
18937.968,0.17,0.947,0.014,-5.1,-23.19,-32.81,4,4
18937.984,0.15,0.972,0.06,0.34,-28.32,-35.04,4,4
18938.0,0.146,1.021,0.048,2.26,-34.97,-33.11,4,4
18938.0,0.149,1.047,0.003,-0.73,-41.17,-27.92,4,4
18938.015,0.159,1.068,-0.035,-5.89,-44.77,-21.45,4,4
18938.031,0.143,1.07,-0.063,-8.91,-44.89,-15.72,4,4
18938.031,0.111,1.074,-0.09,-9.92,-43.61,-10.62,4,4
18938.046,0.093,1.091,-0.115,-9.43,-41.9,-5.77,4,4
18938.062,0.075,1.101,-0.117,-9.13,-39.89,-1.19,4,4
18938.062,0.073,1.095,-0.099,-8.67,-37.97,4.3,4,4
18938.078,0.087,1.087,-0.078,-9.58,-37.29,10.96,4,4
18938.093,0.103,1.079,-0.055,-11.54,-37.42,17.88,4,4
18938.093,0.113,1.052,-0.049,-14.22,-38.42,23.96,4,4
18938.109,0.118,1.023,-0.03,-16.6,-39.92,28.35,4,4
18938.125,0.119,0.988,-0.012,-16.48,-41.35,30.3,4,4
18938.125,0.11,0.962,-0.016,-16.39,-43.21,30.12,4,4
18938.14,0.117,0.937,-0.008,-16.94,-45.11,27.92,4,4
18938.14,0.11,0.918,-0.008,-15.2,-46.75,22.89,4,4
18938.156,0.099,0.905,-0.012,-12.7,-49.04,16.36,4,4
18938.171,0.109,0.905,-0.006,-9.86,-51.36,9.67,4,4
18938.171,0.101,0.914,-0.01,-7.42,-53.29,2.84,4,4
18938.187,0.102,0.917,-0.001,-6.26,-55.24,-2.99,4,4
18938.203,0.108,0.945,0.013,-4.73,-57.28,-7.78,4,4
18938.203,0.104,0.97,0.018,-3.45,-59.85,-11.29,4,4
18938.218,0.094,0.997,0.022,-3.05,-62.01,-12.97,4,4
18938.218,0.065,1.022,0.007,-2.44,-64.06,-13.31,4,4
18938.234,0.057,1.026,-0.016,-2.47,-65.83,-10.83,4,4
18938.25,0.064,1.017,-0.036,-3.48,-65.83,-7.72,4,4
18938.265,0.057,1.004,-0.049,-4.27,-64.39,-6.13,4,4
18938.265,0.06,0.98,-0.054,-3.51,-63.11,-5.89,4,4
18938.281,0.067,0.971,-0.048,-2.47,-61.74,-7.87,4,4
18938.281,0.063,0.954,-0.043,-2.01,-60.64,-11.78,4,4
18938.296,0.06,0.943,-0.025,-1.22,-60.06,-15.9,4,4
18938.312,0.038,0.94,0.007,0.09,-60.4,-20.51,4,4
18938.312,0.041,0.949,0.039,1.13,-63.17,-25.09,4,4
18938.328,0.044,0.975,0.045,3.05,-67.38,-30.21,4,4
18938.328,0.041,1.005,0.016,5.28,-72.42,-34.58,4,4
18938.343,0.056,1.027,-0.014,7.05,-76.17,-37.26,4,4
18938.359,0.047,1.049,-0.049,9.98,-76.48,-37.69,4,4
18938.359,0.029,1.064,-0.062,12.27,-73.89,-33.57,4,4
18938.375,0.005,1.075,-0.056,10.96,-70.13,-26.12,4,4
18938.39,-0.014,1.081,-0.051,5.89,-66.53,-17.24,4,4
18938.39,-0.034,1.069,-0.036,-0.37,-63.91,-7.66,4,4
18938.406,-0.043,1.058,-0.023,-4.0,-62.99,1.28,4,4
18938.421,-0.045,1.042,-0.016,-5.1,-62.9,8.24,4,4
18938.421,-0.058,1.037,-0.004,-3.94,-63.39,14.1,4,4
18938.437,-0.064,1.039,-0.013,-4.03,-65.83,19.01,4,4
18938.453,-0.033,1.032,-0.02,-6.59,-68.76,23.29,4,4
18938.453,-0.008,1.012,-0.025,-7.48,-69.7,24.45,4,4
18938.468,-0.018,1.001,-0.027,-6.71,-69.19,22.13,4,4
18938.468,-0.043,0.992,-0.018,-5.22,-68.79,18.31,4,4
18938.484,-0.062,0.981,-0.028,-2.84,-69.12,14.92,4,4
18938.5,-0.071,0.982,-0.037,-1.04,-69.77,12.51,4,4
18938.5,-0.071,0.986,-0.042,0.18,-70.5,10.41,4,4
18938.515,-0.065,0.987,-0.051,1.13,-71.72,8.76,4,4
18938.531,-0.053,0.986,-0.054,2.44,-72.7,7.14,4,4
18938.531,-0.042,0.987,-0.061,3.3,-72.79,4.82,4,4
18938.546,-0.04,0.99,-0.057,4.33,-72.42,2.11,4,4
18938.562,-0.057,0.995,-0.051,5.92,-72.12,-0.52,4,4
18938.562,-0.071,0.993,-0.054,7.26,-72.42,-2.29,4,4
18938.578,-0.08,1.001,-0.064,8.79,-72.94,-3.51,4,4
18938.578,-0.086,1.005,-0.079,10.41,-74.34,-4.91,4,4
18938.593,-0.075,1.01,-0.093,11.78,-76.17,-6.53,4,4
18938.609,-0.058,1.02,-0.11,13.25,-76.54,-8.51,4,4
18938.609,-0.04,1.037,-0.102,14.56,-74.68,-9.25,4,4
18938.625,-0.039,1.056,-0.07,14.92,-71.81,-9.03,4,4
18938.64,-0.068,1.078,-0.032,15.17,-69.31,-8.55,4,4
18938.64,-0.123,1.085,-0.02,15.14,-68.97,-6.62,4,4
18938.656,-0.168,1.075,-0.038,13.46,-71.26,-2.87,4,4
18938.671,-0.162,1.07,-0.084,11.11,-74.65,2.44,4,4
18938.671,-0.132,1.063,-0.122,9.03,-75.78,7.57,4,4
18938.687,-0.099,1.061,-0.139,8.45,-73.61,11.35,4,4
18938.703,-0.079,1.067,-0.136,8.82,-69.43,14.25,4,4
18938.703,-0.089,1.07,-0.126,8.79,-65.55,16.82,4,4
18938.718,-0.081,1.075,-0.103,7.32,-63.26,20.48,4,4
18938.718,-0.097,1.071,-0.079,5.25,-61.59,24.23,4,4
18938.734,-0.119,1.054,-0.056,2.78,-61.65,27.16,4,4
18938.75,-0.133,1.032,-0.057,0.82,-63.72,29.27,4,4
18938.765,-0.127,1.009,-0.075,-0.27,-66.53,31.07,4,4
18938.765,-0.097,0.984,-0.082,1.19,-68.12,32.35,4,4
18938.781,-0.076,0.977,-0.103,4.7,-67.72,32.14,4,4
18938.781,-0.047,0.982,-0.114,6.59,-65.8,31.92,4,4
18938.796,-0.028,0.975,-0.11,6.13,-62.47,31.28,4,4
18938.812,-0.025,0.969,-0.086,4.03,-58.78,29.91,4,4
18938.812,-0.04,0.961,-0.037,3.42,-55.67,28.35,4,4
18938.828,-0.071,0.947,-0.02,4.12,-54.96,27.19,4,4
18938.843,-0.076,0.947,-0.027,2.01,-57.47,26.58,4,4
18938.843,-0.064,0.944,-0.024,-2.14,-64.15,25.33,4,4
18938.859,-0.043,0.921,-0.026,-0.92,-66.84,23.9,4,4
18938.859,-0.007,0.901,-0.042,2.66,-66.84,21.67,4,4
18938.875,0.021,0.918,-0.055,4.39,-65.58,18.89,4,4
18938.89,0.006,0.933,-0.046,3.2,-65.19,16.39,4,4
18938.906,0.003,0.947,-0.023,2.26,-65.55,13.95,4,4
18938.906,-0.019,0.963,-0.015,3.27,-66.5,11.26,4,4
18938.921,-0.042,0.975,-0.011,5.43,-68.03,9.83,4,4
18938.921,-0.064,0.994,-0.031,6.74,-69.8,10.71,4,4
18938.937,-0.065,1.004,-0.066,4.88,-71.81,13.82,4,4
18938.953,-0.034,1.001,-0.086,1.25,-72.36,17.12,4,4
18938.953,-0.017,0.996,-0.099,-1.37,-70.62,19.17,4,4
18938.968,-0.013,0.989,-0.101,-2.75,-67.81,20.97,4,4
18938.968,-0.012,0.983,-0.078,-2.96,-65.1,21.82,4,4
18938.984,-0.032,0.973,-0.066,-2.08,-63.6,21.67,4,4
18939.0,-0.029,0.956,-0.046,-1.13,-64.52,21.27,4,4
18939.0,-0.018,0.951,-0.046,1.16,-65.86,19.56,4,4
18939.015,-0.007,0.957,-0.055,2.38,-66.96,17.7,4,4
18939.031,-0.006,0.96,-0.052,1.95,-67.35,16.63,4,4
18939.046,-0.007,0.965,-0.06,1.95,-67.17,15.93,4,4
18939.046,-0.016,0.973,-0.066,1.77,-66.38,15.63,4,4
18939.062,-0.032,0.962,-0.063,1.53,-66.01,15.81,4,4
18939.062,-0.035,0.952,-0.069,1.62,-65.95,16.66,4,4
18939.078,-0.029,0.945,-0.082,1.43,-65.68,17.61,4,4
18939.093,-0.021,0.938,-0.074,0.61,-65.0,17.46,4,4
18939.093,-0.018,0.942,-0.066,0.89,-64.82,16.63,4,4
18939.109,-0.019,0.951,-0.069,1.71,-65.34,15.38,4,4
18939.109,-0.008,0.948,-0.069,1.8,-66.1,14.71,4,4
18939.125,0.001,0.955,-0.072,1.62,-66.87,14.34,4,4
18939.14,-0.004,0.944,-0.088,0.34,-67.17,14.44,4,4
18939.14,0.0,0.928,-0.093,-1.77,-66.99,14.56,4,4
18939.156,-0.014,0.934,-0.099,-2.9,-66.19,13.49,4,4
18939.171,-0.021,0.924,-0.105,-3.66,-65.8,10.74,4,4
18939.171,-0.026,0.918,-0.089,-1.89,-65.34,7.26,4,4
18939.187,-0.04,0.934,-0.097,3.45,-64.42,3.63,4,4
18939.203,-0.03,0.941,-0.113,6.07,-63.94,1.86,4,4
18939.203,-0.022,0.948,-0.117,4.91,-63.11,1.4,4,4
18939.218,-0.02,0.956,-0.11,4.18,-61.83,1.74,4,4
18939.218,-0.041,0.961,-0.102,4.43,-60.67,3.33,4,4
18939.234,-0.07,0.958,-0.094,4.88,-60.98,5.55,4,4
18939.25,-0.068,0.967,-0.096,3.48,-63.3,8.18,4,4
18939.25,-0.052,0.964,-0.121,1.34,-65.19,9.86,4,4
18939.265,-0.027,0.949,-0.145,-0.46,-65.25,10.22,4,4
18939.281,-0.02,0.946,-0.153,-1.86,-63.75,9.28,4,4
18939.281,-0.02,0.948,-0.154,-1.89,-61.89,7.78,4,4
18939.296,-0.025,0.958,-0.16,-0.55,-59.51,5.55,4,4
18939.312,-0.043,0.965,-0.16,-0.4,-57.28,2.81,4,4
18939.312,-0.049,0.971,-0.149,-0.49,-56.25,1.22,4,4
18939.328,-0.048,0.979,-0.143,1.1,-55.48,1.56,4,4
18939.328,-0.028,0.986,-0.146,1.34,-55.27,3.6,4,4
18939.343,-0.011,0.986,-0.15,-0.27,-54.75,6.1,4,4
18939.359,-0.01,0.979,-0.152,-2.26,-53.59,8.3,4,4
18939.359,-0.013,0.977,-0.146,-4.46,-52.4,10.16,4,4
18939.375,-0.026,0.973,-0.139,-5.46,-51.94,11.02,4,4
18939.39,-0.032,0.954,-0.14,-4.94,-52.31,11.05,4,4
18939.39,-0.012,0.941,-0.143,-3.72,-52.95,10.13,4,4
18939.406,0.006,0.934,-0.152,-0.85,-52.37,6.99,4,4
18939.421,0.008,0.942,-0.157,2.01,-50.81,2.41,4,4
18939.421,-0.016,0.964,-0.144,3.45,-50.33,-2.26,4,4
18939.437,-0.026,0.974,-0.133,3.51,-51.58,-5.68,4,4
18939.453,-0.023,0.978,-0.141,4.09,-53.29,-8.51,4,4
18939.453,-0.025,0.987,-0.143,5.31,-53.44,-10.32,4,4
18939.468,-0.04,0.997,-0.134,6.59,-52.89,-10.16,4,4
18939.468,-0.051,1.005,-0.136,6.71,-52.86,-7.17,4,4
18939.484,-0.056,1.019,-0.137,5.74,-53.59,-2.81,4,4
18939.5,-0.052,1.022,-0.144,3.27,-54.66,1.31,4,4
18939.5,-0.049,1.013,-0.158,1.04,-55.39,5.16,4,4
18939.515,-0.032,1.004,-0.176,0.21,-55.21,8.27,4,4
18939.531,-0.03,0.991,-0.184,0.12,-53.22,9.46,4,4
18939.531,-0.038,0.976,-0.178,0.0,-50.42,9.22,4,4
18939.546,-0.044,0.96,-0.165,-0.34,-48.59,8.64,4,4
18939.562,-0.041,0.952,-0.152,-0.49,-47.64,7.75,4,4
18939.562,-0.038,0.952,-0.145,-0.4,-47.06,6.38,4,4
18939.578,-0.037,0.95,-0.143,-0.64,-47.03,5.68,4,4
18939.593,-0.024,0.951,-0.139,-1.34,-46.78,5.65,4,4
18939.593,-0.022,0.95,-0.141,-2.01,-46.27,5.98,4,4
18939.609,-0.021,0.95,-0.142,-3.39,-46.27,6.62,4,4
18939.609,-0.022,0.942,-0.145,-5.34,-45.84,6.93,4,4
18939.625,-0.028,0.927,-0.151,-8.03,-45.14,7.35,4,4
18939.64,-0.034,0.932,-0.139,-10.1,-43.92,8.48,4,4
18939.64,-0.042,0.942,-0.118,-10.74,-43.34,10.19,4,4
18939.656,-0.034,0.934,-0.113,-11.29,-45.23,10.83,4,4
18939.671,-0.016,0.939,-0.123,-10.44,-48.19,8.7,4,4
18939.671,-0.0,0.92,-0.143,-6.38,-50.08,3.72,4,4
18939.687,0.013,0.898,-0.173,-0.03,-49.84,-2.62,4,4
18939.687,0.003,0.903,-0.193,4.97,-47.55,-9.8,4,4
18939.703,-0.002,0.904,-0.205,6.44,-44.92,-16.17,4,4
18939.718,-0.0,0.914,-0.191,6.74,-42.12,-22.25,4,4
18939.734,-0.02,0.944,-0.162,9.19,-39.49,-27.59,4,4
18939.734,-0.059,0.968,-0.136,13.18,-38.91,-29.91,4,4
18939.75,-0.067,0.973,-0.162,15.99,-38.51,-29.27,4,4
18939.75,-0.083,1.031,-0.161,14.22,-37.23,-26.64,4,4
18939.765,-0.088,1.049,-0.141,11.99,-37.78,-20.36,4,4
18939.781,-0.095,1.054,-0.154,7.72,-39.61,-13.03,4,4
18939.781,-0.087,1.073,-0.176,2.99,-39.89,-3.42,4,4
18939.796,-0.083,1.081,-0.186,-1.13,-38.45,7.26,4,4
18939.812,-0.08,1.063,-0.2,-6.01,-36.81,17.73,4,4
18939.812,-0.053,1.061,-0.219,-12.18,-34.67,27.56,4,4
18939.828,-0.047,1.043,-0.226,-17.4,-31.19,35.65,4,4
18939.828,-0.024,1.017,-0.221,-20.14,-22.8,44.92,4,4
18939.843,-0.021,1.002,-0.216,-19.38,-18.34,45.9,4,4
18939.859,-0.033,0.989,-0.191,-17.61,-16.11,45.75,4,4
18939.859,-0.048,0.979,-0.115,-15.81,-17.09,45.72,4,4
18939.875,-0.042,0.982,-0.1,-14.89,-20.11,45.26,4,4
18939.89,-0.017,0.982,-0.1,-14.77,-22.92,45.08,4,4
18939.906,0.015,0.99,-0.108,-16.48,-24.41,44.77,4,4
18939.906,0.039,0.982,-0.122,-19.07,-24.2,45.96,4,4
18939.921,0.056,0.977,-0.119,-22.0,-22.92,48.19,4,4
18939.921,0.057,0.971,-0.103,-26.0,-21.42,50.11,4,4
18939.937,0.053,0.949,-0.085,-29.79,-21.33,50.63,4,4
18939.937,0.053,0.927,-0.074,-30.55,-22.92,49.29,4,4
18939.953,0.059,0.917,-0.076,-28.23,-25.7,45.41,4,4
18939.968,0.071,0.91,-0.086,-24.57,-28.44,40.1,4,4
18939.984,0.096,0.926,-0.085,-19.93,-30.37,32.93,4,4
18939.984,0.106,0.925,-0.091,-12.79,-30.73,25.57,4,4
18940.0,0.113,0.915,-0.103,-5.28,-29.6,19.9,4,4
18940.0,0.127,0.917,-0.12,2.04,-27.19,16.3,4,4
18940.015,0.139,0.94,-0.128,6.99,-23.74,14.28,4,4
18940.031,0.128,0.965,-0.114,6.04,-20.69,12.48,4,4
18940.031,0.105,0.97,-0.098,-0.09,-19.81,9.98,4,4
18940.046,0.095,0.985,-0.072,-6.29,-21.12,7.87,4,4
18940.062,0.082,1.0,-0.043,-8.12,-24.11,6.35,4,4
18940.062,0.061,1.003,-0.034,-7.87,-28.78,6.2,4,4
18940.078,0.068,0.996,-0.048,-8.24,-33.72,7.87,4,4
18940.078,0.096,0.986,-0.076,-9.13,-36.65,10.35,4,4
18940.093,0.119,0.967,-0.099,-10.16,-36.87,12.33,4,4
18940.109,0.142,0.948,-0.121,-10.25,-35.0,12.57,4,4
18940.109,0.146,0.937,-0.14,-8.7,-31.01,10.99,4,4
18940.125,0.137,0.938,-0.156,-6.44,-25.57,7.87,4,4
18940.14,0.141,0.93,-0.167,-5.83,-19.53,3.81,4,4
18940.14,0.144,0.927,-0.172,-5.58,-12.73,-1.62,4,4
18940.156,0.121,0.931,-0.117,-3.17,-5.65,-6.68,4,4
18940.171,0.089,0.933,-0.045,3.42,-2.41,-9.43,4,4
18940.171,0.065,0.962,-0.026,10.99,-3.57,-11.11,4,4
18940.187,0.013,0.976,-0.023,11.75,-8.82,-8.55,4,4
18940.203,0.046,0.997,-0.014,7.14,-18.59,-4.06,4,4
18940.203,0.055,1.003,-0.037,4.85,-25.64,-2.72,4,4
18940.218,0.076,0.973,-0.075,3.45,-30.12,-1.62,4,4
18940.218,0.103,0.946,-0.117,4.61,-30.24,-1.04,4,4
18940.234,0.105,0.94,-0.148,8.18,-25.94,-1.5,4,4
18940.25,0.089,0.936,-0.147,9.25,-21.67,-2.14,4,4
18940.25,0.082,0.936,-0.124,7.2,-19.53,-3.02,4,4
18940.265,0.06,0.956,-0.089,5.49,-18.89,-4.43,4,4
18940.281,0.032,0.964,-0.07,5.16,-21.15,-4.94,4,4
18940.281,0.027,0.973,-0.055,4.43,-26.67,-4.46,4,4
18940.296,0.025,0.982,-0.05,3.48,-33.05,-3.27,4,4
18940.312,0.03,0.986,-0.064,2.47,-38.18,-1.04,4,4
18940.312,0.036,0.972,-0.073,-0.49,-43.79,1.4,4,4
18940.328,0.085,0.957,-0.091,-5.55,-47.98,3.75,4,4
18940.328,0.093,0.96,-0.123,-9.0,-47.64,5.28,4,4
18940.343,0.096,0.944,-0.145,-10.32,-45.78,5.55,4,4
18940.359,0.093,0.946,-0.153,-10.13,-42.73,5.13,4,4
18940.359,0.074,0.955,-0.146,-9.13,-39.06,4.82,4,4
18940.375,0.059,0.95,-0.13,-7.97,-35.95,5.52,4,4
18940.39,0.055,0.944,-0.128,-6.35,-34.0,6.53,4,4
18940.39,0.065,0.94,-0.121,-5.37,-33.02,7.14,4,4
18940.406,0.074,0.939,-0.111,-4.49,-32.14,6.71,4,4
18940.421,0.08,0.933,-0.111,-2.87,-31.83,5.28,4,4
18940.421,0.087,0.941,-0.115,-1.04,-32.44,3.97,4,4
18940.437,0.092,0.958,-0.12,0.34,-32.04,3.17,4,4
18940.453,0.103,0.95,-0.128,0.7,-29.36,3.2,4,4
18940.453,0.114,0.956,-0.135,0.0,-27.53,2.93,4,4
18940.468,0.116,0.952,-0.139,-1.37,-25.33,2.08,4,4
18940.468,0.113,0.94,-0.128,-4.55,-22.06,0.4,4,4
18940.484,0.113,0.931,-0.106,-7.26,-20.08,-2.01,4,4
18940.5,0.103,0.933,-0.091,-7.48,-20.81,-5.22,4,4
18940.5,0.096,0.939,-0.082,-6.35,-21.12,-7.66,4,4
18940.515,0.111,0.944,-0.127,-3.85,-18.16,-9.89,4,4
18940.531,0.111,0.963,-0.182,0.09,-14.19,-10.59,4,4
18940.531,0.099,0.984,-0.208,1.07,-12.09,-10.38,4,4
18940.546,0.115,0.995,-0.217,-4.49,-7.63,-10.47,4,4
18940.562,0.078,0.98,-0.181,-11.78,-1.01,-12.02,4,4
18940.562,0.018,1.031,-0.126,-14.56,1.37,-20.02,4,4
18940.578,0.03,0.981,-0.05,-14.37,-1.65,-3.42,4,4
18940.593,0.008,1.042,-0.035,-7.78,-6.35,2.53,4,4
18940.593,0.002,1.037,-0.039,-4.09,-13.34,4.64,4,4
18940.609,0.001,1.026,-0.026,-6.41,-19.9,9.43,4,4
18940.609,0.016,1.015,-0.022,-8.33,-25.24,13.86,4,4
18940.625,0.045,1.014,-0.044,-10.62,-30.82,17.21,4,4
18940.64,0.093,1.005,-0.068,-14.47,-37.05,18.34,4,4
18940.64,0.104,0.977,-0.087,-17.03,-38.24,18.01,4,4
18940.656,0.116,0.952,-0.103,-16.66,-36.81,17.12,4,4
18940.671,0.122,0.96,-0.103,-13.21,-34.94,14.86,4,4
18940.687,0.097,0.971,-0.111,-8.88,-32.5,11.51,4,4
18940.687,0.072,0.967,-0.11,-7.93,-32.47,8.85,4,4
18940.703,0.07,0.97,-0.096,-8.15,-33.57,6.38,4,4
18940.703,0.08,0.975,-0.097,-5.58,-33.66,5.04,4,4
18940.718,0.089,0.99,-0.107,-1.92,-32.93,6.01,4,4
18940.734,0.094,1.003,-0.11,-0.12,-31.5,8.0,4,4
18940.734,0.079,1.011,-0.105,-1.07,-29.88,8.73,4,4
18940.75,0.064,1.002,-0.092,-5.62,-29.24,9.34,4,4
18940.75,0.056,0.977,-0.081,-10.65,-31.1,10.19,4,4
18940.765,0.059,0.942,-0.077,-12.15,-31.83,11.57,4,4
18940.781,0.072,0.916,-0.084,-10.1,-31.28,12.54,4,4
18940.781,0.083,0.905,-0.099,-7.72,-31.28,11.84,4,4
18940.796,0.084,0.899,-0.103,-6.2,-31.53,8.39,4,4
18940.812,0.085,0.891,-0.1,-4.94,-30.4,3.11,4,4
18940.812,0.087,0.886,-0.097,-2.08,-27.47,-6.32,4,4
18940.828,0.086,0.882,-0.092,0.21,-27.77,-9.13,4,4
18940.843,0.084,0.883,-0.087,2.04,-28.78,-11.23,4,4
18940.843,0.084,0.9,-0.074,3.81,-30.55,-14.07,4,4
18940.859,0.056,0.947,-0.068,6.65,-32.75,-16.54,4,4
18940.859,0.063,0.981,-0.069,10.07,-34.33,-17.88,4,4
18940.875,0.071,1.001,-0.098,12.27,-34.79,-18.52,4,4
18940.89,0.078,1.027,-0.133,12.15,-33.54,-16.57,4,4
18940.89,0.072,1.023,-0.151,12.51,-31.59,-12.36,4,4
18940.906,0.062,1.02,-0.167,9.28,-30.76,-8.3,4,4
18940.921,0.068,1.039,-0.169,5.25,-29.24,-4.61,4,4
18940.921,0.049,1.031,-0.16,3.2,-26.22,-1.89,4,4
18940.937,0.045,1.038,-0.154,1.8,-24.45,0.0,4,4
18940.937,-0.017,1.011,-0.139,-0.49,-24.35,2.23,4,4
18940.953,0.037,0.938,-0.107,-1.34,-24.93,15.5,4,4
18940.968,0.093,1.032,-0.117,3.11,-29.85,20.02,4,4
18940.984,0.106,1.094,-0.17,5.46,-34.18,12.42,4,4
18940.984,0.115,1.06,-0.161,-4.85,-28.02,1.83,4,4
18941.0,0.031,0.975,-0.129,-18.1,-15.63,3.39,4,4
18941.0,0.062,1.012,-0.11,-21.49,-20.94,7.08,4,4
18941.015,0.065,1.036,-0.14,-16.6,-28.84,5.04,4,4
18941.031,0.054,0.978,-0.146,-16.39,-25.67,6.26,4,4
18941.031,0.061,0.981,-0.138,-17.09,-17.76,11.08,4,4
18941.046,0.058,0.996,-0.139,-13.98,-15.75,14.28,4,4
18941.062,0.089,0.981,-0.13,-9.46,-14.25,15.56,4,4
18941.062,0.068,0.975,-0.127,-3.94,-9.28,15.5,4,4
18941.078,0.041,0.96,-0.119,0.0,-8.79,16.82,4,4
18941.078,0.058,0.966,-0.106,1.8,-12.88,18.34,4,4
18941.093,0.079,0.992,-0.102,1.16,-16.36,16.54,4,4
18941.109,0.084,0.999,-0.112,-2.96,-17.82,11.47,4,4
18941.125,0.066,0.974,-0.124,-9.43,-18.4,6.16,4,4
18941.125,0.063,0.96,-0.129,-15.99,-20.14,3.6,4,4
18941.14,0.08,0.963,-0.141,-19.04,-21.36,2.78,4,4
18941.14,0.086,0.959,-0.158,-19.26,-20.26,2.47,4,4
18941.156,0.078,0.95,-0.154,-17.82,-17.18,2.81,4,4
18941.171,0.063,0.948,-0.144,-13.55,-13.92,4.06,4,4
18941.171,0.061,0.961,-0.148,-7.39,-11.38,5.98,4,4
18941.187,0.059,0.981,-0.152,-2.87,-9.55,7.23,4,4
18941.187,0.046,0.976,-0.158,-1.25,-8.3,7.6,4,4
18941.203,0.048,0.973,-0.163,-2.44,-7.6,9.06,4,4
18941.218,0.055,0.986,-0.149,-4.49,-6.96,10.04,4,4
18941.218,0.058,0.98,-0.142,-6.38,-5.95,9.64,4,4
18941.234,0.062,0.968,-0.141,-8.61,-5.13,9.03,4,4
18941.25,0.063,0.963,-0.143,-10.56,-4.52,8.61,4,4
18941.25,0.063,0.958,-0.143,-12.18,-3.85,7.69,4,4
18941.265,0.068,0.94,-0.135,-12.82,-2.38,6.68,4,4
18941.281,0.077,0.93,-0.117,-10.77,-1.07,6.32,4,4
18941.281,0.088,0.936,-0.106,-6.2,-0.52,5.58,4,4
18941.296,0.091,0.942,-0.113,-1.74,-0.4,3.57,4,4
18941.296,0.09,0.954,-0.107,-0.95,-0.98,1.19,4,4
18941.312,0.091,0.966,-0.095,-1.71,-1.77,-1.4,4,4
18941.328,0.094,0.984,-0.088,-2.66,-3.3,-3.27,4,4
18941.328,0.107,0.997,-0.088,-3.54,-4.97,-3.97,4,4
18941.343,0.119,0.998,-0.09,-3.33,-6.01,-4.15,4,4
18941.359,0.116,0.996,-0.097,-2.11,-5.89,-3.39,4,4
18941.359,0.111,0.995,-0.114,-1.37,-5.07,-1.19,4,4
18941.375,0.12,0.993,-0.122,-1.98,-4.3,1.28,4,4
18941.39,0.125,0.993,-0.116,-2.84,-2.69,2.11,4,4
18941.39,0.116,0.989,-0.103,-2.11,-0.7,1.25,4,4
18941.406,0.114,0.981,-0.096,-0.64,0.24,1.07,4,4
18941.421,0.125,0.985,-0.093,0.27,0.73,1.5,4,4
18941.421,0.136,0.984,-0.09,0.46,1.5,0.98,4,4
18941.437,0.124,0.979,-0.076,0.49,2.44,0.06,4,4
18941.453,0.107,0.984,-0.069,0.89,2.26,0.55,4,4
18941.453,0.114,0.996,-0.066,-0.06,0.06,2.35,4,4
18941.468,0.123,0.992,-0.068,-1.13,-2.35,2.99,4,4
18941.468,0.128,0.98,-0.075,-2.47,-3.39,3.33,4,4
18941.484,0.14,0.971,-0.076,-3.33,-3.72,3.45,4,4
18941.5,0.149,0.961,-0.082,-2.87,-2.87,2.87,4,4
18941.5,0.157,0.955,-0.087,-2.23,-0.37,1.74,4,4
18941.515,0.156,0.952,-0.076,-1.28,2.69,0.03,4,4
18941.531,0.146,0.958,-0.064,0.61,4.61,-1.86,4,4
18941.531,0.132,0.966,-0.053,2.44,4.73,-3.39,4,4
18941.546,0.13,0.98,-0.043,3.57,3.17,-4.21,4,4
18941.562,0.138,0.995,-0.037,4.09,0.34,-4.15,4,4
18941.562,0.144,1.005,-0.047,4.15,-1.95,-3.17,4,4
18941.578,0.155,1.012,-0.054,2.29,-3.63,-1.37,4,4
18941.578,0.166,1.007,-0.062,-0.85,-4.15,0.27,4,4
18941.593,0.163,0.993,-0.069,-3.33,-3.08,1.71,4,4
18941.609,0.161,0.977,-0.069,-4.7,-1.74,2.84,4,4
18941.609,0.16,0.965,-0.07,-5.25,-0.85,3.33,4,4
18941.625,0.161,0.958,-0.07,-4.61,-0.27,2.81,4,4
18941.64,0.159,0.947,-0.068,-2.93,0.09,1.53,4,4
18941.64,0.147,0.946,-0.054,0.49,0.43,0.06,4,4
18941.656,0.137,0.96,-0.054,4.61,0.21,-0.58,4,4
18941.671,0.131,0.971,-0.057,6.29,-1.13,-0.79,4,4
18941.671,0.129,0.979,-0.057,4.76,-2.17,-0.55,4,4
18941.687,0.132,0.988,-0.06,1.62,-3.48,-0.15,4,4
18941.687,0.128,0.987,-0.065,-1.13,-4.64,1.16,4,4
18941.703,0.128,0.982,-0.07,-2.99,-5.01,2.96,4,4
18941.718,0.136,0.974,-0.081,-4.03,-4.94,4.49,4,4
18941.734,0.148,0.958,-0.088,-4.18,-3.75,5.13,4,4
18941.734,0.151,0.952,-0.09,-3.69,-1.71,4.79,4,4
18941.75,0.15,0.944,-0.095,-2.75,0.49,4.15,4,4
18941.75,0.147,0.944,-0.085,-2.23,1.89,3.27,4,4
18941.765,0.137,0.949,-0.07,-1.46,2.96,1.92,4,4
18941.781,0.124,0.949,-0.05,-0.09,3.2,0.31,4,4
18941.781,0.11,0.949,-0.041,2.04,1.95,-0.55,4,4
18941.796,0.116,0.962,-0.041,2.47,-3.45,-1.34,4,4
18941.812,0.126,0.975,-0.046,1.77,-5.4,-1.74,4,4
18941.812,0.134,0.971,-0.057,0.64,-6.35,-1.59,4,4
18941.828,0.15,0.978,-0.058,0.52,-5.89,-1.56,4,4
18941.828,0.143,0.98,-0.08,1.07,-4.15,-1.01,4,4
