timestamp,ax,ay,az,gx,gy,gz,orient_label,motion_label
15891.984,0.155,0.003,1.023,3.08,-4.91,1.28,0,5
15891.984,0.16,-0.008,0.998,4.09,-6.13,1.68,0,5
15892.0,0.186,-0.003,0.963,2.84,-4.52,1.13,0,5
15892.015,0.182,-0.0,0.959,0.24,-2.2,-0.03,0,5
15892.015,0.179,0.008,0.975,-2.38,-0.58,-0.4,0,5
15892.031,0.173,0.008,0.996,-3.85,0.79,0.12,0,5
15892.046,0.168,-0.013,1.006,-3.3,0.61,0.76,0,5
15892.046,0.167,-0.027,1.007,-0.85,-0.85,1.28,0,5
15892.062,0.173,-0.024,0.996,1.65,-2.5,0.82,0,5
15892.062,0.173,-0.015,0.974,3.3,-3.66,-0.34,0,5
15892.078,0.173,0.01,0.952,2.69,-4.18,-1.19,0,5
15892.093,0.176,0.021,0.943,0.15,-3.51,-0.95,0,5
15892.093,0.176,0.02,0.953,-2.96,-1.43,0.12,0,5
15892.109,0.178,0.013,0.967,-4.55,0.46,0.82,0,5
15892.125,0.17,-0.009,0.982,-3.78,1.5,1.16,0,5
15892.14,0.171,-0.021,0.988,-1.37,1.25,1.5,0,5
15892.14,0.175,-0.02,0.986,1.22,0.61,1.28,0,5
15892.156,0.166,-0.004,0.972,1.37,-0.73,-0.31,0,5
15892.171,0.169,0.007,0.971,0.31,-1.31,-0.24,0,5
15892.171,0.171,0.01,0.968,-0.55,-1.25,0.34,0,5
15892.187,0.182,0.001,0.97,-1.28,-0.64,1.4,0,5
15892.203,0.179,-0.008,0.979,-1.68,0.37,1.77,0,5
15892.203,0.173,-0.019,0.985,-1.19,0.92,1.65,0,5
15892.218,0.17,-0.021,0.997,-0.61,1.16,1.16,0,5
15892.234,0.168,-0.018,1.0,-0.24,1.07,0.27,0,5
15892.25,0.166,-0.017,0.998,0.27,0.58,-0.09,0,5
15892.25,0.169,-0.013,0.991,0.67,-0.82,-0.18,0,5
15892.265,0.175,-0.014,0.988,1.04,-1.16,-0.18,0,5
15892.265,0.17,-0.014,0.98,1.4,-0.46,-0.18,0,5
15892.281,0.172,-0.012,0.975,1.37,-0.09,-0.4,0,5
15892.281,0.174,-0.006,0.981,1.01,0.76,-0.52,0,5
15892.296,0.172,-0.0,0.985,0.46,1.71,-0.52,0,5
15892.312,0.17,0.004,0.997,-0.43,2.2,-0.18,0,5
15892.312,0.166,0.006,1.008,-2.01,1.83,0.12,0,5
15892.328,0.166,-0.01,1.013,-2.56,1.19,0.31,0,5
15892.343,0.163,-0.021,1.011,-1.77,0.31,0.64,0,5
15892.343,0.167,-0.023,1.005,-0.76,-1.16,0.4,0,5
15892.359,0.167,-0.023,0.994,0.18,-2.17,-0.15,0,5
15892.375,0.17,-0.022,0.981,0.49,-2.35,-0.89,0,5
15892.375,0.18,-0.014,0.973,0.55,-1.71,-1.19,0,5
15892.39,0.175,-0.005,0.984,-0.03,0.67,-1.16,0,5
15892.406,0.167,0.0,0.994,-1.25,2.32,-1.1,0,5
15892.406,0.159,-0.009,1.008,-1.46,1.98,-1.07,0,5
15892.421,0.161,-0.007,1.012,-1.04,0.52,-0.73,0,5
15892.437,0.164,-0.015,1.003,0.24,-0.92,-0.34,0,5
15892.437,0.167,-0.015,0.988,2.08,-2.14,-0.18,0,5
15892.453,0.167,-0.012,0.973,3.17,-2.66,-0.18,0,5
15892.453,0.17,-0.01,0.969,3.11,-2.41,0.0,0,5
15892.468,0.171,-0.006,0.97,2.69,-1.19,0.37,0,5
15892.484,0.167,-0.003,0.97,2.04,-0.61,0.34,0,5
15892.484,0.161,-0.006,0.974,1.43,-0.92,0.49,0,5
15892.5,0.16,-0.013,0.971,1.8,-1.95,1.13,0,5
15892.515,0.167,-0.021,0.959,3.81,-2.99,1.5,0,5
15892.515,0.168,-0.019,0.944,6.32,-3.3,1.5,0,5
15892.531,0.166,-0.015,0.933,7.84,-2.99,1.77,0,5
15892.546,0.166,-0.014,0.927,8.18,-2.26,2.38,0,5
15892.546,0.167,-0.013,0.928,7.97,-1.43,2.72,0,5
15892.562,0.165,-0.01,0.921,8.61,-0.73,2.38,0,5
15892.562,0.153,-0.003,0.929,10.47,-0.27,2.44,0,5
15892.578,0.146,-0.001,0.929,14.37,-0.46,3.08,0,5
15892.593,0.135,0.013,0.921,20.26,-0.64,4.49,0,5
15892.593,0.123,0.031,0.912,26.46,-1.07,6.04,0,5
15892.609,0.09,0.035,0.92,33.33,-2.47,7.69,0,5
15892.625,0.05,0.042,0.9,41.17,-6.07,9.4,0,5
15892.64,0.019,0.068,0.879,51.12,-9.83,12.39,0,5
15892.64,-0.027,0.079,0.855,64.06,-14.04,15.47,0,5
15892.656,-0.058,0.094,0.831,79.53,-19.81,18.52,0,5
15892.656,-0.07,0.097,0.79,100.01,-26.22,22.0,0,5
15892.671,-0.084,0.114,0.74,121.98,-30.52,27.8,0,5
15892.687,-0.089,0.156,0.693,139.71,-30.18,35.62,0,5
15892.687,-0.11,0.22,0.638,145.91,-25.57,44.71,0,5
15892.703,-0.144,0.278,0.594,136.36,-22.16,54.29,0,5
15892.703,-0.166,0.277,0.581,119.75,-18.71,63.26,0,5
15892.718,-0.21,0.243,0.583,104.62,-14.47,71.69,0,5
15892.734,-0.247,0.208,0.589,94.09,-10.59,78.46,0,5
15892.734,-0.261,0.169,0.595,89.42,-8.0,83.74,0,5
15892.75,-0.251,0.128,0.589,90.37,-6.81,87.41,0,5
15892.765,-0.221,0.08,0.586,93.33,-5.22,90.18,0,5
15892.781,-0.193,0.056,0.6,97.84,-0.15,90.33,0,5
15892.781,-0.179,0.041,0.607,104.95,8.12,87.86,0,5
15892.796,-0.171,0.018,0.606,109.81,16.11,82.52,0,5
15892.796,-0.157,0.012,0.606,110.6,22.1,74.43,0,5
15892.812,-0.131,0.021,0.599,109.23,25.24,63.75,0,5
15892.828,-0.088,0.039,0.581,105.53,24.32,52.55,0,5
15892.828,-0.025,0.073,0.55,99.73,21.61,42.18,0,5
15892.843,0.018,0.121,0.523,91.74,21.58,32.72,0,5
15892.859,0.022,0.134,0.521,82.49,25.76,23.32,0,5
15892.859,0.03,0.122,0.543,76.6,33.81,14.07,0,5
15892.875,0.037,0.126,0.583,76.6,44.71,5.58,0,5
15892.875,0.077,0.124,0.618,82.19,54.99,-2.44,0,5
15892.89,0.125,0.136,0.62,89.91,60.67,-11.08,0,5
15892.906,0.108,0.164,0.604,96.32,63.69,-20.54,0,5
15892.921,0.12,0.175,0.606,98.7,64.79,-30.85,0,5
15892.921,0.111,0.216,0.613,95.89,66.23,-42.7,0,5
15892.937,0.068,0.262,0.647,89.14,70.01,-55.88,0,5
15892.937,0.017,0.304,0.701,79.65,75.29,-67.72,0,5
15892.953,0.0,0.327,0.757,64.33,75.53,-86.55,0,5
15892.968,0.016,0.348,0.797,65.25,65.37,-96.07,0,5
15892.968,0.021,0.422,0.783,70.86,53.5,-104.4,0,5
15892.984,-0.014,0.513,0.742,76.51,45.2,-110.6,0,5
15892.984,-0.083,0.642,0.675,80.78,43.89,-116.12,0,5
15893.0,-0.106,0.718,0.683,82.16,54.63,-120.82,0,5
15893.015,-0.115,0.772,0.754,80.69,77.18,-121.95,0,5
15893.015,-0.176,0.766,0.827,78.55,101.44,-123.33,0,5
15893.031,-0.246,0.769,0.888,75.78,117.22,-126.26,0,5
15893.046,-0.269,0.778,0.95,75.59,121.34,-128.39,0,5
15893.046,-0.312,0.81,0.984,77.49,113.04,-130.38,0,5
15893.062,-0.335,0.848,0.987,78.19,95.37,-131.57,0,5
15893.078,-0.352,0.882,0.956,78.52,74.47,-133.46,0,5
15893.078,-0.349,0.948,0.918,79.47,59.72,-135.38,0,5
15893.093,-0.328,1.017,0.904,76.75,57.5,-135.04,0,5
15893.093,-0.348,1.068,0.922,69.8,64.91,-133.82,0,5
15893.109,-0.396,1.092,0.984,64.55,76.24,-130.99,0,5
15893.125,-0.446,1.089,1.056,63.97,84.84,-126.65,0,5
15893.125,-0.443,1.096,1.11,66.13,86.03,-120.91,0,5
15893.14,-0.433,1.102,1.13,69.31,79.17,-114.29,0,5
15893.156,-0.438,1.101,1.103,72.54,65.83,-108.25,0,5
15893.156,-0.392,1.108,1.033,72.63,48.16,-103.79,0,5
15893.187,-0.353,1.124,0.882,62.41,23.22,-99.28,0,5
15893.187,-0.327,1.125,0.832,54.78,22.43,-95.25,0,5
15893.203,-0.301,1.12,0.836,46.78,31.83,-88.35,0,5
15893.203,-0.304,1.092,0.886,39.19,44.53,-80.32,0,5
15893.218,-0.303,1.041,0.934,34.49,52.98,-73.03,0,5
15893.234,-0.287,1.0,0.97,33.23,55.09,-67.05,0,5
15893.25,-0.266,0.985,0.985,33.97,50.02,-62.96,0,5
15893.25,-0.249,0.984,0.98,34.15,39.55,-60.98,0,5
15893.265,-0.228,0.988,0.954,33.02,27.44,-59.69,0,5
15893.265,-0.209,1.003,0.914,30.3,17.46,-56.92,0,5
15893.281,-0.193,1.011,0.888,25.73,12.6,-52.98,0,5
15893.296,-0.185,1.014,0.879,19.04,12.73,-48.19,0,5
15893.296,-0.197,1.017,0.873,11.84,15.02,-43.34,0,5
15893.312,-0.214,1.015,0.868,4.55,16.11,-38.54,0,5
15893.312,-0.235,1.003,0.866,-2.56,14.44,-34.24,0,5
15893.328,-0.25,0.996,0.858,-9.16,10.22,-29.94,0,5
15893.343,-0.269,0.962,0.823,-17.73,-0.67,-20.51,0,5
15893.359,-0.276,0.936,0.796,-19.1,-5.4,-16.54,0,5
15893.375,-0.285,0.9,0.761,-18.13,-8.61,-13.4,0,5
15893.375,-0.295,0.877,0.727,-16.27,-9.95,-10.41,0,5
15893.39,-0.303,0.868,0.708,-15.29,-9.09,-5.98,0,5
15893.406,-0.302,0.852,0.694,-15.96,-7.2,-0.06,0,5
15893.406,-0.305,0.826,0.668,-19.44,-3.91,6.26,0,5
15893.421,-0.311,0.804,0.649,-27.28,-0.03,11.78,0,5
15893.421,-0.326,0.795,0.64,-37.32,3.14,16.36,0,5
15893.437,-0.335,0.769,0.635,-49.17,4.18,19.93,0,5
15893.453,-0.339,0.731,0.638,-61.53,2.35,21.33,0,5
15893.453,-0.35,0.693,0.636,-70.35,-1.1,22.06,0,5
15893.468,-0.352,0.654,0.629,-74.31,-5.07,22.74,0,5
15893.484,-0.35,0.618,0.623,-73.31,-8.42,22.71,0,5
15893.484,-0.351,0.592,0.612,-68.27,-10.62,22.58,0,5
15893.5,-0.354,0.573,0.596,-61.77,-11.51,22.74,0,5
15893.515,-0.356,0.541,0.566,-51.39,-9.16,22.86,0,5
15893.531,-0.365,0.526,0.556,-49.23,-7.39,22.71,0,5
15893.531,-0.372,0.513,0.544,-49.01,-5.86,22.25,0,5
15893.546,-0.389,0.494,0.541,-49.59,-5.22,20.87,0,5
15893.562,-0.415,0.483,0.538,-49.81,-5.31,19.47,0,5
15893.562,-0.435,0.481,0.537,-50.48,-6.23,17.73,0,5
15893.578,-0.45,0.487,0.534,-52.61,-7.29,15.32,0,5
15893.593,-0.46,0.493,0.537,-55.64,-7.45,13.06,0,5
15893.593,-0.473,0.496,0.548,-58.14,-6.29,11.63,0,5
15893.609,-0.485,0.496,0.565,-59.57,-4.27,11.57,0,5
15893.625,-0.497,0.488,0.585,-59.05,-2.01,12.51,0,5
15893.64,-0.502,0.472,0.609,-56.55,-0.18,14.13,0,5
15893.64,-0.504,0.453,0.622,-51.55,0.73,16.08,0,5
15893.656,-0.513,0.435,0.637,-44.31,1.13,17.61,0,5
15893.656,-0.533,0.431,0.648,-35.71,0.24,19.53,0,5
15893.671,-0.549,0.435,0.661,-28.08,-1.68,21.94,0,5
15893.687,-0.563,0.45,0.682,-22.22,-4.33,24.29,0,5
15893.687,-0.589,0.46,0.71,-17.03,-8.09,26.49,0,5
15893.703,-0.636,0.468,0.713,-13.58,-15.35,28.93,0,5
15893.703,-0.662,0.471,0.744,-10.04,-24.26,33.78,0,5
15893.718,-0.67,0.484,0.753,-2.99,-33.02,40.04,0,5
15893.734,-0.686,0.529,0.755,3.81,-41.69,45.05,0,5
15893.75,-0.705,0.566,0.74,10.93,-50.81,48.68,0,5
15893.75,-0.687,0.547,0.688,20.33,-56.92,52.25,0,5
15893.765,-0.66,0.553,0.637,28.84,-56.43,54.9,0,5
15893.765,-0.63,0.579,0.606,34.36,-49.07,56.76,0,5
15893.781,-0.603,0.592,0.565,33.57,-36.62,57.56,0,5
15893.796,-0.598,0.597,0.528,25.12,-20.78,57.19,0,5
15893.796,-0.613,0.586,0.532,10.28,-5.4,56.95,0,5
15893.812,-0.611,0.565,0.56,-6.99,7.87,58.14,0,5
15893.812,-0.593,0.527,0.618,-23.26,19.84,61.16,0,5
15893.828,-0.591,0.486,0.699,-38.42,29.24,65.0,0,5
15893.843,-0.594,0.429,0.766,-51.0,32.04,66.5,0,5
15893.843,-0.571,0.372,0.817,-58.32,28.53,64.09,0,5
15893.859,-0.529,0.339,0.844,-60.09,21.64,56.52,0,5
15893.875,-0.49,0.319,0.834,-59.02,14.01,44.16,0,5
15893.875,-0.443,0.297,0.806,-55.54,8.91,29.69,0,5
15893.89,-0.42,0.294,0.787,-49.75,8.79,14.04,0,5
15893.906,-0.424,0.307,0.764,-41.69,11.84,-0.95,0,5
15893.906,-0.443,0.315,0.745,-33.14,15.81,-13.55,0,5
15893.921,-0.479,0.341,0.763,-24.54,19.14,-23.22,0,5
15893.921,-0.514,0.368,0.788,-5.86,16.88,-31.56,0,5
15893.937,-0.543,0.409,0.799,0.46,12.36,-31.01,0,5
15893.953,-0.563,0.468,0.794,0.15,5.13,-28.78,0,5
15893.953,-0.569,0.512,0.793,-5.22,-3.63,-26.89,0,5
15893.968,-0.527,0.536,0.77,-12.45,-10.59,-25.79,0,5
15893.984,-0.508,0.529,0.751,-17.24,-14.47,-25.09,0,5
15893.984,-0.49,0.506,0.751,-18.19,-15.81,-24.2,0,5
15894.0,-0.473,0.493,0.754,-15.72,-15.26,-23.07,0,5
15894.015,-0.466,0.494,0.751,-8.7,-13.21,-21.15,0,5
15894.015,-0.458,0.494,0.749,1.37,-10.53,-18.74,0,5
15894.031,-0.451,0.5,0.756,11.84,-7.75,-16.72,0,5
15894.046,-0.449,0.514,0.765,21.45,-5.83,-15.05,0,5
15894.046,-0.441,0.529,0.762,28.38,-4.91,-12.97,0,5
15894.062,-0.43,0.541,0.752,32.32,-4.03,-11.08,0,5
15894.062,-0.42,0.551,0.738,33.97,-2.23,-9.37,0,5
15894.078,-0.415,0.559,0.728,33.97,0.46,-7.93,0,5
15894.093,-0.428,0.567,0.728,32.17,2.87,-6.59,0,5
15894.093,-0.442,0.568,0.729,29.51,3.91,-4.85,0,5
15894.109,-0.447,0.567,0.734,26.58,3.2,-2.69,0,5
15894.125,-0.445,0.569,0.739,22.49,1.56,-0.7,0,5
15894.14,-0.438,0.571,0.749,17.27,-1.1,0.46,0,5
15894.14,-0.437,0.574,0.755,11.72,-4.55,0.73,0,5
15894.156,-0.43,0.564,0.752,6.96,-8.27,1.04,0,5
15894.156,-0.419,0.555,0.753,3.94,-10.53,1.65,0,5
15894.171,-0.415,0.553,0.75,2.75,-11.57,1.95,0,5
15894.187,-0.413,0.552,0.741,1.89,-12.09,1.86,0,5
15894.187,-0.405,0.548,0.724,0.67,-12.05,1.89,0,5
15894.203,-0.394,0.544,0.708,-1.04,-10.86,2.08,0,5
15894.203,-0.38,0.531,0.696,-2.66,-8.18,1.8,0,5
15894.218,-0.372,0.525,0.688,-4.0,-4.91,1.19,0,5
15894.234,-0.364,0.518,0.682,-5.16,-1.43,0.15,0,5
15894.234,-0.37,0.511,0.686,-5.49,2.47,-1.28,0,5
15894.25,-0.389,0.508,0.698,-4.49,5.28,-2.53,0,5
15894.265,-0.4,0.512,0.709,-2.29,6.44,-2.66,0,5
15894.265,-0.41,0.522,0.72,0.06,6.84,-1.37,0,5
15894.281,-0.416,0.53,0.727,1.56,6.23,0.31,0,5
15894.296,-0.417,0.539,0.733,0.52,4.73,1.65,0,5
15894.296,-0.423,0.547,0.742,-3.88,2.66,2.59,0,5
15894.312,-0.428,0.555,0.753,-10.13,0.03,3.69,0,5
15894.328,-0.442,0.553,0.765,-16.75,-3.11,4.85,0,5
15894.328,-0.448,0.551,0.781,-23.19,-6.99,6.2,0,5
15894.343,-0.449,0.552,0.801,-27.47,-11.2,7.2,0,5
15894.343,-0.443,0.535,0.809,-28.84,-15.35,7.97,0,5
15894.359,-0.435,0.52,0.812,-29.08,-19.44,7.2,0,5
15894.375,-0.423,0.506,0.817,-27.28,-22.98,5.68,0,5
15894.39,-0.414,0.489,0.808,-22.16,-24.6,4.09,0,5
15894.39,-0.407,0.479,0.797,-15.75,-24.45,3.08,0,5
15894.406,-0.413,0.479,0.79,-10.5,-24.11,1.46,0,5
15894.406,-0.408,0.479,0.783,-6.87,-25.21,-0.79,0,5
15894.421,-0.395,0.477,0.781,-3.94,-25.73,-2.35,0,5
15894.437,-0.394,0.479,0.773,-1.04,-24.75,-2.62,0,5
15894.437,-0.377,0.477,0.756,1.34,-22.68,-1.89,0,5
15894.453,-0.368,0.478,0.754,1.56,-19.56,-1.28,0,5
15894.453,-0.362,0.478,0.767,-1.77,-17.33,-2.04,0,5
15894.468,-0.354,0.464,0.769,-4.76,-15.78,-4.06,0,5
15894.484,-0.352,0.451,0.757,-4.52,-13.15,-6.23,0,5
15894.484,-0.354,0.448,0.762,-3.54,-10.56,-8.79,0,5
15894.5,-0.359,0.457,0.773,-2.72,-8.73,-11.54,0,5
15894.515,-0.366,0.456,0.772,0.03,-7.35,-12.79,0,5
15894.515,-0.37,0.456,0.76,3.33,-5.68,-12.7,0,5
15894.531,-0.373,0.465,0.749,5.74,-3.54,-11.6,0,5
15894.531,-0.379,0.471,0.739,7.42,-1.28,-9.98,0,5
15894.546,-0.391,0.478,0.742,7.39,0.64,-8.33,0,5
15894.562,-0.399,0.492,0.749,5.46,0.55,-7.08,0,5
15894.562,-0.402,0.486,0.757,2.11,-0.73,-6.16,0,5
15894.578,-0.399,0.495,0.765,-1.77,-2.04,-5.04,0,5
15894.593,-0.372,0.496,0.747,-3.72,-2.11,-3.51,0,5
15894.593,-0.292,0.446,0.698,-2.5,2.47,-3.51,0,5
15894.609,-0.431,0.418,0.738,1.65,10.83,-6.62,0,5
15894.625,-0.448,0.602,0.852,-6.47,9.43,-5.49,0,5
15894.625,-0.415,0.613,0.874,-9.0,2.99,-2.35,0,5
15894.64,-0.444,0.55,0.85,-5.49,0.58,1.83,0,5
15894.656,-0.391,0.549,0.841,-5.92,-1.86,6.78,0,5
15894.656,-0.379,0.502,0.826,-1.01,-1.01,7.63,0,5
15894.671,-0.405,0.475,0.822,4.79,0.4,6.2,0,5
15894.671,-0.419,0.484,0.818,8.91,-1.19,4.79,0,5
15894.687,-0.434,0.486,0.814,10.65,-5.43,4.43,0,5
15894.718,-0.448,0.528,0.792,0.24,-18.16,4.0,0,5
15894.718,-0.321,0.523,0.758,-7.78,-22.61,6.5,0,5
15894.734,-0.336,0.418,0.694,-4.52,-16.85,6.93,0,5
15894.734,-0.35,0.476,0.731,-7.39,-10.25,8.21,0,5
15894.75,-0.293,0.508,0.769,-15.05,-8.03,9.7,0,5
15894.765,-0.296,0.425,0.743,-14.53,-4.67,8.03,0,5
15894.765,-0.302,0.411,0.744,-12.73,0.76,6.53,0,5
15894.781,-0.302,0.428,0.761,-9.46,5.19,5.22,0,5
15894.796,-0.324,0.431,0.772,-5.28,8.24,3.54,0,5
15894.796,-0.341,0.44,0.785,-2.99,8.85,2.59,0,5
15894.812,-0.344,0.456,0.8,-2.62,7.45,2.17,0,5
15894.812,-0.351,0.479,0.814,-3.91,5.1,2.35,0,5
15894.828,-0.357,0.488,0.825,-6.01,2.01,3.57,0,5
15894.843,-0.346,0.49,0.829,-8.24,-1.4,5.19,0,5
15894.843,-0.334,0.482,0.816,-8.27,-2.93,6.44,0,5
15894.859,-0.322,0.474,0.802,-6.5,-2.59,6.5,0,5
15894.875,-0.325,0.479,0.799,-1.68,1.13,4.15,0,5
15894.89,-0.325,0.489,0.798,0.95,2.59,3.2,0,5
15894.906,-0.33,0.502,0.795,3.23,3.54,2.72,0,5
15894.906,-0.336,0.519,0.799,4.15,3.3,2.66,0,5
15894.921,-0.336,0.538,0.797,2.53,-0.09,4.7,0,5
15894.937,-0.328,0.549,0.792,0.06,-0.79,6.84,0,5
15894.937,-0.323,0.553,0.79,-1.4,-0.4,9.64,0,5
15894.953,-0.318,0.55,0.78,-1.83,0.89,12.42,0,5
15894.953,-0.317,0.544,0.776,-2.2,2.72,14.68,0,5
15894.968,-0.32,0.533,0.775,-2.35,4.79,16.45,0,5
15894.984,-0.326,0.528,0.773,-1.92,6.53,18.01,0,5
15895.0,-0.329,0.521,0.776,-1.92,8.18,19.38,0,5
15895.0,-0.337,0.512,0.778,-2.62,9.28,20.45,0,5
15895.015,-0.336,0.505,0.761,-3.05,10.16,22.25,0,5
15895.015,-0.327,0.51,0.735,-3.3,12.05,23.93,0,5
15895.031,-0.325,0.499,0.723,-4.24,15.14,24.63,0,5
15895.046,-0.329,0.474,0.713,-8.67,20.51,21.91,0,5
15895.062,-0.331,0.458,0.708,-9.46,24.32,19.99,0,5
15895.062,-0.342,0.455,0.716,-9.61,28.99,17.91,0,5
15895.078,-0.351,0.45,0.723,-8.51,33.69,16.54,0,5
15895.093,-0.364,0.441,0.713,-5.55,38.33,15.72,0,5
15895.093,-0.388,0.437,0.711,-3.42,42.45,14.92,0,5
15895.109,-0.426,0.439,0.729,-3.78,43.82,13.34,0,5
15895.125,-0.459,0.441,0.758,-5.68,40.71,11.32,0,5
15895.125,-0.474,0.442,0.776,-7.78,33.97,9.8,0,5
15895.14,-0.476,0.443,0.78,-10.35,26.25,8.76,0,5
15895.156,-0.471,0.449,0.783,-13.4,19.5,8.33,0,5
15895.156,-0.468,0.445,0.789,-16.17,13.73,8.48,0,5
15895.171,-0.463,0.433,0.794,-17.91,8.97,8.76,0,5
15895.187,-0.451,0.426,0.79,-18.31,5.25,8.73,0,5
15895.187,-0.433,0.421,0.787,-17.88,2.96,7.93,0,5
15895.203,-0.418,0.412,0.781,-15.9,1.98,5.89,0,5
15895.218,-0.399,0.429,0.773,-9.34,3.88,-0.06,0,5
15895.234,-0.392,0.434,0.773,-4.91,5.89,-2.93,0,5
15895.234,-0.394,0.446,0.775,-0.55,8.21,-5.07,0,5
15895.25,-0.399,0.468,0.779,2.81,9.67,-5.95,0,5
15895.265,-0.399,0.487,0.78,4.73,10.07,-5.34,0,5
15895.265,-0.398,0.499,0.779,5.07,10.28,-3.36,0,5
15895.281,-0.399,0.513,0.779,2.78,10.25,-1.22,0,5
15895.281,-0.396,0.524,0.782,-1.34,9.92,1.1,0,5
15895.296,-0.398,0.516,0.78,-5.04,9.64,2.53,0,5
15895.312,-0.396,0.505,0.784,-8.06,9.06,3.27,0,5
15895.312,-0.391,0.493,0.784,-10.07,8.58,3.05,0,5
15895.328,-0.391,0.484,0.783,-10.28,8.73,1.98,0,5
15895.343,-0.391,0.477,0.783,-9.25,8.97,0.64,0,5
15895.359,-0.392,0.472,0.785,-7.57,9.09,-0.58,0,5
15895.359,-0.395,0.472,0.788,-5.92,9.28,-1.13,0,5
15895.375,-0.402,0.474,0.787,-4.7,9.25,-0.55,0,5
15895.375,-0.403,0.47,0.784,-4.33,8.85,0.52,0,5
15895.39,-0.401,0.471,0.784,-5.07,8.24,1.59,0,5
15895.406,-0.399,0.464,0.785,-6.13,7.6,2.08,0,5
15895.406,-0.405,0.458,0.789,-7.39,6.93,2.38,0,5
15895.421,-0.403,0.455,0.793,-8.06,5.8,2.99,0,5
15895.437,-0.402,0.449,0.793,-7.51,5.22,3.48,0,5
15895.437,-0.404,0.445,0.794,-6.62,4.88,3.69,0,5
15895.453,-0.408,0.44,0.797,-5.71,4.18,3.72,0,5
15895.453,-0.408,0.427,0.796,-4.82,3.54,4.3,0,5
15895.468,-0.414,0.442,0.79,-3.78,2.96,3.6,0,5
15895.484,-0.414,0.43,0.788,-4.76,1.31,2.38,0,5
15895.484,-0.413,0.412,0.787,-5.19,0.73,2.44,0,5
15895.5,-0.411,0.431,0.781,-3.72,0.43,1.4,0,5
15895.515,-0.414,0.421,0.774,-3.48,0.06,0.67,0,5
15895.515,-0.416,0.421,0.77,-4.0,0.34,0.21,0,5
15895.531,-0.424,0.424,0.769,-3.85,0.55,-0.15,0,5
15895.546,-0.429,0.418,0.772,-4.27,-0.09,-0.37,0,5
15895.546,-0.426,0.42,0.773,-4.85,-0.67,-0.73,0,5
15895.562,-0.426,0.419,0.774,-4.82,-0.76,-1.01,0,5
15895.562,-0.427,0.419,0.775,-4.39,-0.82,-1.13,0,5
15895.578,-0.425,0.423,0.771,-4.3,-0.95,-1.28,0,5
15895.593,-0.42,0.417,0.767,-4.91,-1.37,-1.8,0,5
15895.593,-0.414,0.415,0.76,-5.49,-1.86,-2.84,0,5
15895.609,-0.408,0.414,0.76,-5.46,-1.56,-3.97,0,5
15895.625,-0.406,0.418,0.765,-5.25,-0.7,-5.13,0,5
15895.625,-0.408,0.424,0.768,-5.4,0.12,-5.68,0,5
15895.64,-0.408,0.427,0.771,-6.01,0.49,-5.98,0,5
15895.656,-0.411,0.433,0.786,-6.81,0.67,-6.07,0,5
15895.656,-0.411,0.439,0.795,-6.87,0.49,-5.77,0,5
15895.671,-0.405,0.446,0.789,-6.1,0.24,-4.85,0,5
15895.687,-0.402,0.451,0.787,-5.13,0.79,-3.54,0,5
15895.687,-0.399,0.449,0.789,-4.61,1.34,-2.87,0,5
15895.703,-0.395,0.445,0.791,-4.7,1.89,-2.9,0,5
15895.703,-0.394,0.444,0.789,-4.3,2.41,-3.27,0,5
15895.718,-0.399,0.45,0.794,-4.03,3.08,-4.3,0,5
15895.734,-0.405,0.452,0.8,-4.21,3.14,-5.22,0,5
15895.734,-0.402,0.451,0.803,-4.15,2.87,-5.28,0,5
15895.75,-0.4,0.455,0.8,-3.36,2.75,-5.22,0,5
15895.765,-0.396,0.456,0.793,-2.35,2.84,-4.64,0,5
15895.781,-0.391,0.456,0.786,-1.31,3.45,-3.94,0,5
15895.781,-0.394,0.448,0.789,-0.52,4.21,-3.69,0,5
15895.781,-0.402,0.454,0.796,-0.34,5.1,-2.69,0,5
15895.796,-0.403,0.468,0.802,-0.27,5.28,-0.61,0,5
15895.812,-0.407,0.461,0.799,-1.28,4.7,0.95,0,5
15895.812,-0.405,0.457,0.801,-2.99,4.06,2.26,0,5
15895.828,-0.404,0.459,0.796,-4.33,2.87,3.05,0,5
15895.843,-0.403,0.459,0.792,-5.19,1.77,3.94,0,5
15895.843,-0.399,0.46,0.787,-4.82,0.92,4.46,0,5
15895.859,-0.393,0.444,0.796,-3.63,-0.27,4.49,0,5
15895.875,-0.395,0.432,0.799,-0.61,-1.34,3.14,0,5
15895.89,-0.399,0.439,0.787,2.38,-2.47,1.43,0,5
15895.89,-0.396,0.45,0.782,2.84,-3.88,-0.12,0,5
15895.906,-0.4,0.44,0.772,-2.29,-6.71,-6.16,0,5
15895.921,-0.404,0.431,0.774,-3.2,-6.44,-8.06,0,5
15895.937,-0.406,0.438,0.759,-3.33,-5.89,-8.55,0,5
15895.937,-0.404,0.438,0.756,-3.78,-5.07,-8.42,0,5
15895.953,-0.411,0.429,0.758,-4.7,-4.03,-8.45,0,5
15895.953,-0.417,0.427,0.753,-5.37,-2.9,-7.87,0,5
15895.968,-0.419,0.435,0.754,-4.61,-1.22,-5.86,0,5
15895.984,-0.432,0.434,0.751,-3.48,0.64,-3.75,0,5
15896.0,-0.441,0.432,0.756,-3.27,1.59,-2.23,0,5
15896.0,-0.444,0.43,0.765,-3.54,1.92,-1.25,0,5
15896.015,-0.447,0.427,0.769,-3.88,1.56,-1.19,0,5
15896.015,-0.445,0.422,0.763,-4.49,0.64,-1.25,0,5
15896.031,-0.442,0.413,0.755,-5.68,-0.37,-1.92,0,5
15896.046,-0.433,0.403,0.747,-7.11,-1.31,-2.81,0,5
15896.046,-0.424,0.393,0.738,-8.91,-1.13,-4.0,0,5
15896.062,-0.423,0.385,0.729,-10.56,0.27,-5.43,0,5
15896.078,-0.43,0.37,0.73,-13.98,4.91,-8.15,0,5
15896.093,-0.439,0.37,0.737,-14.44,7.9,-9.09,0,5
15896.093,-0.44,0.367,0.731,-12.73,11.47,-9.46,0,5
15896.109,-0.442,0.366,0.725,-10.59,16.42,-10.56,0,5
15896.125,-0.447,0.362,0.713,-9.74,21.03,-12.82,0,5
15896.125,-0.45,0.358,0.698,-10.56,25.33,-16.24,0,5
15896.14,-0.457,0.345,0.685,-13.25,29.73,-20.94,0,5
15896.156,-0.524,0.377,0.706,-17.61,34.27,-25.33,0,5
15896.156,-0.614,0.449,0.837,-19.71,33.81,-21.85,0,5
15896.171,-0.543,0.389,0.837,-20.57,23.04,-15.44,0,5
15896.187,-0.716,0.563,0.965,-26.34,14.53,-10.93,0,5
15896.187,-0.67,0.467,0.997,-20.97,-1.77,3.45,0,5
15896.203,-0.554,0.374,0.889,-23.53,-19.01,7.26,0,5
15896.203,-0.488,0.342,0.835,-26.18,-20.6,3.51,0,5
15896.218,-0.469,0.293,0.828,-17.76,-11.81,-0.15,0,5
15896.234,-0.49,0.276,0.811,-4.46,-1.4,-3.02,0,5
15896.25,-0.56,0.305,0.847,14.47,8.21,-6.1,0,5
15896.265,-0.592,0.332,0.857,18.83,3.54,-7.17,0,5
15896.265,-0.626,0.356,0.867,22.58,-5.01,-5.8,0,5
15896.281,-0.67,0.398,0.884,26.25,-15.78,-1.19,0,5
15896.296,-0.526,0.304,0.806,25.24,-29.08,3.02,0,5
15896.296,-0.549,0.31,0.711,12.51,-36.26,-6.56,0,5
15896.312,-0.588,0.334,0.752,6.29,-34.33,-11.11,0,5
15896.328,-0.524,0.286,0.768,8.39,-33.36,-8.06,0,5
15896.328,-0.505,0.267,0.727,7.72,-33.27,-10.25,0,5
15896.343,-0.498,0.253,0.717,6.1,-29.97,-15.08,0,5
15896.343,-0.498,0.257,0.729,8.15,-26.49,-19.78,0,5
15896.359,-0.489,0.249,0.736,12.51,-25.39,-25.57,0,5
15896.375,-0.475,0.257,0.74,13.46,-26.28,-33.33,0,5
15896.39,-0.463,0.28,0.741,11.93,-26.95,-40.8,0,5
15896.39,-0.447,0.301,0.737,9.0,-26.4,-47.61,0,5
15896.406,-0.443,0.318,0.733,5.01,-23.93,-52.98,0,5
15896.421,-0.445,0.334,0.767,0.49,-20.33,-58.81,0,5
15896.437,-0.461,0.344,0.789,1.8,-20.54,-59.76,0,5
15896.437,-0.453,0.389,0.807,4.36,-23.62,-58.26,0,5
15896.453,-0.437,0.409,0.809,8.73,-26.61,-53.8,0,5
15896.453,-0.414,0.402,0.794,12.54,-28.72,-49.56,0,5
15896.468,-0.381,0.407,0.782,13.28,-28.93,-47.12,0,5
15896.484,-0.365,0.439,0.773,11.05,-26.03,-44.74,0,5
15896.484,-0.354,0.442,0.759,7.32,-21.3,-41.78,0,5
15896.5,-0.352,0.429,0.753,3.33,-15.41,-38.09,0,5
15896.515,-0.36,0.425,0.759,0.98,-9.58,-33.3,0,5
15896.515,-0.366,0.421,0.77,0.06,-5.37,-28.81,0,5
15896.531,-0.361,0.407,0.772,-0.82,-2.17,-25.18,0,5
15896.546,-0.357,0.394,0.763,-2.78,1.31,-22.34,0,5
15896.546,-0.358,0.372,0.761,-5.49,5.28,-20.54,0,5
15896.562,-0.364,0.356,0.764,-7.2,9.61,-18.98,0,5
15896.562,-0.381,0.345,0.78,-5.77,14.22,-17.03,0,5
15896.593,-0.449,0.425,0.876,-4.67,15.14,-9.55,0,5
15896.593,-0.453,0.396,0.89,-5.13,10.35,-3.97,0,5
15896.609,-0.455,0.373,0.897,-5.58,4.88,-0.55,0,5
15896.625,-0.45,0.383,0.903,-5.89,0.34,0.85,0,5
15896.64,-0.439,0.377,0.899,-4.97,-2.2,1.5,0,5
15896.64,-0.442,0.366,0.888,-3.14,-2.5,2.26,0,5
15896.656,-0.442,0.363,0.875,-2.04,-2.14,2.96,0,5
15896.656,-0.444,0.351,0.867,-1.71,-1.83,3.39,0,5
15896.671,-0.445,0.334,0.855,-1.53,-1.56,3.39,0,5
15896.671,-0.442,0.316,0.846,-1.28,-1.25,2.5,0,5
15896.687,-0.441,0.304,0.848,0.27,-0.61,1.04,0,5
15896.703,-0.446,0.291,0.853,4.82,0.64,-0.31,0,5
15896.703,-0.459,0.3,0.851,12.18,2.35,-0.7,0,5
15896.718,-0.466,0.332,0.845,18.8,3.17,-0.79,0,5
15896.734,-0.466,0.345,0.828,21.3,3.08,-1.68,0,5
15896.734,-0.441,0.355,0.803,18.77,3.97,-2.62,0,5
15896.765,-0.514,0.363,0.781,11.2,10.77,-2.47,0,5
15896.765,-0.494,0.423,0.806,-4.0,7.57,-0.64,0,5
15896.781,-0.501,0.359,0.807,-11.78,4.85,2.04,0,5
15896.796,-0.496,0.325,0.787,-17.64,3.72,5.25,0,5
15896.796,-0.471,0.305,0.796,-20.51,4.06,6.13,0,5
15896.812,-0.487,0.27,0.815,-16.94,5.37,4.39,0,5
15896.812,-0.498,0.247,0.828,-8.33,5.68,2.32,0,5
15896.828,-0.493,0.254,0.831,1.25,4.52,-0.34,0,5
15896.843,-0.499,0.289,0.83,7.81,3.54,-2.72,0,5
15896.843,-0.509,0.315,0.829,10.22,2.87,-3.78,0,5
15896.859,-0.532,0.334,0.846,7.42,0.58,-3.75,0,5
15896.875,-0.501,0.359,0.844,-1.31,-3.23,-2.01,0,5
15896.875,-0.474,0.305,0.808,2.99,-0.18,4.64,0,5
15896.89,-0.495,0.304,0.811,3.27,-0.12,11.05,0,5
15896.906,-0.5,0.403,0.792,1.31,1.59,15.41,0,5
15896.906,-0.483,0.36,0.79,-3.97,0.98,12.63,0,5
15896.937,-0.454,0.269,0.789,-4.94,1.95,-0.09,0,5
15896.937,-0.454,0.274,0.794,0.89,4.06,-1.28,0,5
15896.953,-0.448,0.276,0.801,4.85,5.49,-2.2,0,5
15896.953,-0.457,0.279,0.808,7.35,5.55,-3.88,0,5
15896.968,-0.464,0.297,0.8,8.88,5.01,-3.85,0,5
15896.984,-0.456,0.303,0.789,7.78,4.0,-3.02,0,5
15897.0,-0.455,0.297,0.785,5.13,3.02,-3.33,0,5
15897.0,-0.453,0.293,0.777,3.17,3.14,-3.75,0,5
15897.015,-0.452,0.296,0.774,2.75,4.7,-4.18,0,5
15897.015,-0.463,0.298,0.776,2.72,6.59,-5.16,0,5
15897.031,-0.47,0.303,0.781,2.69,7.9,-6.13,0,5
15897.046,-0.468,0.312,0.783,2.38,8.67,-6.81,0,5
15897.046,-0.474,0.32,0.785,2.01,9.98,-7.42,0,5
15897.062,-0.492,0.324,0.798,1.59,10.41,-7.45,0,5
15897.062,-0.512,0.33,0.817,1.8,8.45,-6.68,0,5
15897.078,-0.515,0.339,0.826,0.76,3.72,-5.1,0,5
15897.093,-0.505,0.35,0.818,-2.01,-1.4,-3.33,0,5
15897.109,-0.496,0.348,0.808,-4.85,-4.67,-1.46,0,5
15897.109,-0.487,0.339,0.796,-7.48,-5.8,0.4,0,5
15897.125,-0.477,0.336,0.789,-9.67,-5.34,1.37,0,5
15897.125,-0.475,0.327,0.787,-10.38,-3.81,1.46,0,5
15897.14,-0.477,0.317,0.784,-9.77,-1.89,1.22,0,5
15897.156,-0.479,0.314,0.78,-8.09,0.09,0.95,0,5
15897.156,-0.481,0.317,0.779,-6.29,1.8,0.7,0,5
15897.171,-0.486,0.323,0.786,-4.55,2.99,0.98,0,5
15897.171,-0.492,0.33,0.792,-2.62,3.66,2.47,0,5
15897.187,-0.495,0.335,0.801,-0.98,3.91,4.12,0,5
15897.203,-0.5,0.334,0.81,-0.24,3.08,5.22,0,5
15897.203,-0.497,0.336,0.81,-0.92,1.77,5.71,0,5
15897.218,-0.497,0.336,0.809,-1.92,0.67,5.65,0,5
15897.234,-0.496,0.333,0.806,-3.05,-0.03,5.01,0,5
15897.234,-0.494,0.326,0.803,-3.81,-0.37,4.12,0,5
15897.25,-0.491,0.319,0.8,-3.42,0.0,2.99,0,5
15897.265,-0.492,0.319,0.799,-2.17,0.7,1.89,0,5
15897.265,-0.497,0.325,0.801,-1.04,1.71,0.92,0,5
15897.281,-0.497,0.328,0.806,-0.03,2.17,0.15,0,5
15897.296,-0.502,0.326,0.807,0.82,2.01,-0.46,0,5
15897.296,-0.505,0.33,0.808,1.28,1.4,-0.73,0,5
15897.312,-0.508,0.33,0.804,1.74,0.64,-0.61,0,5
15897.312,-0.505,0.328,0.797,2.04,-0.18,-0.4,0,5
15897.328,-0.502,0.328,0.795,1.77,-0.67,-0.24,0,5
15897.343,-0.5,0.323,0.794,1.07,-0.95,-0.34,0,5
15897.343,-0.498,0.317,0.793,0.85,-1.1,-0.49,0,5
15897.359,-0.496,0.314,0.792,1.28,-0.98,-0.76,0,5
15897.375,-0.495,0.313,0.793,1.77,-1.04,-1.19,0,5
15897.375,-0.497,0.314,0.789,2.23,-1.01,-1.95,0,5
15897.39,-0.49,0.292,0.783,2.23,-0.76,-3.2,0,5
15897.406,-0.487,0.287,0.789,2.99,-0.55,-5.95,0,5
15897.406,-0.503,0.326,0.788,5.31,0.27,-6.16,0,5
15897.421,-0.5,0.322,0.781,6.74,0.92,-4.09,0,5
15897.421,-0.493,0.312,0.781,4.58,0.58,-4.43,0,5
15897.453,-0.503,0.321,0.781,1.56,0.06,-4.82,0,5
15897.453,-0.497,0.312,0.783,0.49,-0.03,-5.01,0,5
15897.468,-0.499,0.319,0.789,0.95,0.61,-5.71,0,5
15897.484,-0.496,0.319,0.795,3.27,1.74,-5.46,0,5
15897.484,-0.497,0.324,0.798,5.92,2.32,-5.4,0,5
15897.5,-0.507,0.336,0.798,7.39,2.04,-4.91,0,5
15897.515,-0.505,0.338,0.795,7.14,0.49,-4.21,0,5
15897.531,-0.503,0.347,0.788,5.37,-0.92,-3.97,0,5
15897.531,-0.501,0.35,0.778,2.53,-1.89,-3.17,0,5
15897.531,-0.488,0.344,0.775,-0.49,-2.11,-2.14,0,5
15897.546,-0.489,0.341,0.774,-2.75,-1.22,-1.4,0,5
15897.562,-0.488,0.328,0.779,-4.15,-0.37,-0.79,0,5
15897.562,-0.484,0.321,0.785,-3.85,0.49,-1.04,0,5
15897.578,-0.483,0.311,0.79,-1.92,1.28,-2.23,0,5
15897.593,-0.483,0.311,0.796,1.68,2.66,-4.09,0,5
15897.593,-0.492,0.327,0.805,6.1,4.0,-5.34,0,5
15897.625,-0.502,0.359,0.8,9.34,4.18,-4.21,0,5
15897.625,-0.502,0.363,0.797,7.2,3.14,-3.02,0,5
15897.64,-0.499,0.361,0.796,3.72,2.29,-1.68,0,5
15897.656,-0.499,0.354,0.796,0.43,1.59,-0.49,0,5
15897.656,-0.499,0.338,0.8,-1.95,0.85,0.21,0,5
15897.671,-0.5,0.326,0.801,-2.35,0.34,0.34,0,5
15897.671,-0.498,0.317,0.799,-0.67,0.15,0.15,0,5
15897.687,-0.499,0.312,0.798,1.77,0.31,-0.18,0,5
15897.703,-0.498,0.312,0.794,3.85,0.24,-0.82,0,5
15897.703,-0.5,0.316,0.788,4.7,0.27,-1.34,0,5
15897.718,-0.498,0.318,0.786,4.3,0.46,-1.62,0,5
15897.734,-0.498,0.317,0.784,2.93,0.4,-1.98,0,5
15897.734,-0.501,0.318,0.785,1.71,0.55,-1.8,0,5
15897.75,-0.506,0.315,0.788,0.89,0.55,-1.4,0,5
15897.765,-0.508,0.312,0.791,-0.12,0.0,-1.07,0,5
15897.765,-0.507,0.307,0.791,-0.92,-0.92,-0.85,0,5
15897.781,-0.504,0.3,0.792,-0.82,-1.34,-0.79,0,5
15897.796,-0.504,0.299,0.792,-0.12,-1.56,-1.13,0,5
15897.796,-0.503,0.3,0.787,0.67,-1.31,-1.68,0,5
15897.812,-0.498,0.299,0.786,1.83,-0.15,-2.32,0,5
15897.812,-0.494,0.297,0.781,2.78,1.25,-2.9,0,5
15897.828,-0.492,0.3,0.783,3.45,3.02,-3.72,0,5
15897.843,-0.501,0.304,0.791,3.48,4.24,-4.52,0,5
15897.843,-0.508,0.307,0.793,2.72,3.97,-5.13,0,5
15897.859,-0.512,0.313,0.796,-0.27,1.31,-5.71,0,5
15897.875,-0.514,0.319,0.796,-2.26,-0.27,-5.34,0,5
15897.875,-0.514,0.319,0.795,-3.23,-1.43,-4.82,0,5
15897.89,-0.515,0.316,0.793,-2.99,-2.35,-4.15,0,5
15897.906,-0.508,0.31,0.783,-1.92,-2.69,-3.85,0,5
15897.906,-0.506,0.309,0.774,-0.34,-2.35,-3.94,0,5
15897.921,-0.504,0.305,0.768,0.82,-1.98,-4.27,0,5
15897.937,-0.502,0.31,0.762,1.04,-1.59,-4.88,0,5
15897.937,-0.498,0.316,0.759,0.82,-0.92,-5.34,0,5
15897.953,-0.504,0.321,0.758,0.27,0.03,-5.22,0,5
15897.953,-0.509,0.33,0.762,-1.37,0.46,-5.01,0,5
15897.968,-0.511,0.33,0.767,-3.17,0.46,-4.39,0,5
15897.984,-0.516,0.329,0.772,-4.18,0.27,-3.54,0,5
15897.984,-0.518,0.329,0.774,-4.94,-0.09,-2.62,0,5
15898.0,-0.517,0.328,0.778,-5.25,-0.58,-1.98,0,5
15898.015,-0.518,0.323,0.778,-4.64,-0.76,-1.53,0,5
15898.015,-0.519,0.323,0.774,-4.18,-0.95,-1.31,0,5
15898.031,-0.518,0.321,0.771,-4.43,-0.89,-1.28,0,5
15898.046,-0.512,0.319,0.769,-4.82,-0.31,-1.46,0,5
15898.046,-0.51,0.319,0.77,-4.91,0.61,-1.8,0,5
15898.062,-0.515,0.317,0.771,-4.36,1.5,-2.29,0,5
15898.062,-0.521,0.323,0.777,-3.78,2.26,-2.41,0,5
15898.078,-0.528,0.334,0.782,-3.48,2.5,-1.98,0,5
15898.093,-0.536,0.34,0.781,-4.0,1.86,-1.01,0,5
15898.093,-0.536,0.347,0.776,-6.04,0.64,0.46,0,5
15898.109,-0.526,0.343,0.767,-10.01,-1.04,2.04,0,5
15898.125,-0.518,0.329,0.762,-14.19,-2.01,3.85,0,5
15898.125,-0.514,0.308,0.759,-17.4,-2.38,5.55,0,5
15898.14,-0.512,0.285,0.748,-19.59,-2.99,6.35,0,5
15898.156,-0.507,0.274,0.744,-21.33,-3.11,7.29,0,5
15898.156,-0.504,0.264,0.752,-21.49,-1.8,9.09,0,5
15898.171,-0.5,0.252,0.762,-19.47,0.15,10.99,0,5
15898.171,-0.499,0.253,0.777,-16.05,2.32,10.74,0,5
15898.187,-0.503,0.257,0.776,-12.88,4.49,9.4,0,5
15898.203,-0.511,0.284,0.775,-12.79,5.07,7.78,0,5
15898.218,-0.524,0.311,0.78,-16.6,5.07,7.29,0,5
15898.218,-0.489,0.284,0.762,-22.06,5.89,7.51,0,5
15898.234,-0.474,0.308,0.736,-26.03,12.7,5.77,0,5
15898.234,-0.592,0.374,0.873,-30.61,16.94,4.36,0,5
15898.25,-0.614,0.348,0.918,-36.99,11.05,4.85,0,5
15898.265,-0.577,0.32,0.931,-37.05,4.33,5.98,0,5
15898.265,-0.551,0.267,0.91,-28.05,1.65,5.92,0,5
15898.281,-0.529,0.223,0.898,-14.56,1.43,3.27,0,5
15898.296,-0.523,0.211,0.866,-0.92,1.5,-0.85,0,5
15898.296,-0.522,0.231,0.851,8.18,1.1,-4.3,0,5
15898.312,-0.53,0.251,0.837,12.88,-0.24,-6.56,0,5
15898.312,-0.538,0.268,0.81,12.88,-3.17,-7.23,0,5
15898.328,-0.535,0.288,0.797,9.8,-6.04,-6.35,0,5
15898.343,-0.557,0.304,0.824,5.55,-9.92,-4.82,0,5
15898.343,-0.497,0.26,0.766,1.1,-12.57,-3.48,0,5
15898.359,-0.468,0.262,0.739,0.0,-8.39,-3.88,0,5
15898.375,-0.505,0.266,0.75,0.64,-2.9,-4.43,0,5
15898.375,-0.511,0.272,0.768,-1.1,-1.53,-4.76,0,5
15898.39,-0.494,0.252,0.78,-3.05,-1.77,-5.68,0,5
15898.39,-0.513,0.241,0.78,-3.23,-2.44,-7.72,0,5
15898.406,-0.511,0.263,0.778,-3.78,-3.72,-8.15,0,5
15898.421,-0.499,0.259,0.773,-3.6,-4.15,-7.63,0,5
15898.421,-0.507,0.257,0.782,-2.93,-3.63,-7.35,0,5
15898.437,-0.508,0.271,0.787,-3.33,-3.48,-6.5,0,5
15898.453,-0.504,0.27,0.784,-3.63,-3.42,-5.49,0,5
15898.453,-0.502,0.264,0.78,-3.51,-2.32,-4.61,0,5
15898.484,-0.502,0.262,0.781,-2.81,0.76,-4.03,0,5
15898.484,-0.5,0.255,0.777,-2.75,2.23,-4.12,0,5
15898.5,-0.505,0.251,0.777,-2.78,3.66,-4.3,0,5
15898.515,-0.514,0.253,0.788,-3.17,4.67,-4.43,0,5
15898.515,-0.519,0.251,0.798,-4.0,4.49,-4.58,0,5
15898.531,-0.523,0.256,0.802,-5.19,3.05,-4.79,0,5
15898.546,-0.521,0.256,0.802,-6.56,1.04,-4.58,0,5
15898.546,-0.516,0.253,0.801,-8.06,-0.55,-3.94,0,5
15898.562,-0.514,0.252,0.8,-9.58,-1.65,-3.08,0,5
15898.578,-0.514,0.246,0.804,-9.92,-2.14,-1.98,0,5
15898.578,-0.515,0.242,0.8,-9.19,-2.32,-1.22,0,5
15898.593,-0.515,0.241,0.794,-9.16,-2.38,-1.19,0,5
15898.593,-0.515,0.24,0.789,-9.8,-1.86,-1.62,0,5
15898.609,-0.519,0.24,0.789,-10.77,-1.25,-1.8,0,5
15898.625,-0.521,0.24,0.79,-11.57,-0.76,-1.8,0,5
15898.625,-0.521,0.238,0.797,-12.09,0.03,-1.46,0,5
15898.656,-0.525,0.241,0.812,-10.9,0.18,0.67,0,5
15898.656,-0.53,0.244,0.824,-10.13,-0.43,2.08,0,5
15898.671,-0.535,0.235,0.83,-9.83,-1.34,2.96,0,5
15898.671,-0.538,0.228,0.83,-10.28,-2.78,3.08,0,5
15898.687,-0.537,0.226,0.824,-11.87,-4.46,2.81,0,5
15898.703,-0.532,0.217,0.82,-13.12,-5.49,2.17,0,5
15898.703,-0.533,0.213,0.816,-13.09,-5.58,1.43,0,5
15898.718,-0.533,0.214,0.816,-12.7,-5.43,0.34,0,5
15898.734,-0.535,0.219,0.816,-12.57,-5.46,-0.82,0,5
15898.75,-0.545,0.23,0.822,-13.12,-5.16,-1.56,0,5
15898.75,-0.552,0.236,0.827,-13.92,-5.22,-1.92,0,5
15898.765,-0.557,0.23,0.826,-14.31,-5.71,-1.77,0,5
15898.765,-0.55,0.219,0.821,-13.43,-5.43,-1.01,0,5
15898.781,-0.552,0.212,0.812,-11.81,-4.46,-0.76,0,5
15898.796,-0.556,0.211,0.812,-10.19,-3.17,-1.13,0,5
15898.796,-0.563,0.223,0.813,-8.58,-2.04,-1.56,0,5
15898.828,-0.594,0.237,0.822,-9.0,-1.34,-1.31,0,5
15898.828,-0.618,0.243,0.836,-10.68,-2.75,-0.43,0,5
15898.843,-0.633,0.236,0.833,-12.21,-4.73,0.64,0,5
15898.843,-0.648,0.229,0.84,-9.37,-6.74,4.43,0,5
15898.859,-0.666,0.24,0.84,-9.13,-7.6,5.86,0,5
15898.875,-0.67,0.243,0.827,-7.17,-6.78,6.56,0,5
15898.875,-0.722,0.225,0.845,-3.6,-6.13,7.84,0,5
15898.89,-0.737,0.234,0.846,0.31,-6.68,9.95,0,5
15898.906,-0.747,0.24,0.84,3.63,-7.93,12.57,0,5
15898.906,-0.759,0.239,0.836,5.49,-9.25,14.83,0,5
15898.921,-0.778,0.234,0.836,6.62,-9.92,16.54,0,5
15898.937,-0.797,0.225,0.832,8.15,-11.41,18.74,0,5
15898.937,-0.802,0.221,0.81,11.2,-13.61,21.15,0,5
15898.953,-0.809,0.235,0.801,14.1,-15.9,23.04,0,5
15898.953,-0.82,0.246,0.808,19.35,-19.41,26.0,0,5
15898.968,-0.814,0.245,0.767,26.73,-23.35,30.67,0,5
15898.984,-0.771,0.288,0.706,35.37,-25.24,39.89,0,5
15899.0,-0.765,0.295,0.671,37.69,-23.65,45.84,0,5
15899.015,-0.75,0.311,0.689,39.16,-20.94,53.65,0,5
15899.031,-0.758,0.321,0.698,42.76,-19.47,61.77,0,5
15899.031,-0.743,0.324,0.675,44.56,-20.33,70.44,0,5
15899.046,-0.74,0.363,0.687,41.96,-22.98,77.55,0,5
15899.046,-0.728,0.37,0.627,39.55,-26.86,82.46,0,5
15899.062,-0.673,0.362,0.559,35.07,-27.44,88.11,0,5
15899.078,-0.602,0.367,0.524,30.12,-21.97,93.36,0,5
15899.078,-0.538,0.361,0.47,26.67,-9.61,95.77,0,5
15899.093,-0.478,0.343,0.424,20.02,7.72,95.86,0,5
15899.093,-0.427,0.321,0.428,10.1,28.02,93.42,0,5
15899.109,-0.401,0.293,0.431,3.36,50.2,88.41,0,5
15899.125,-0.381,0.262,0.427,0.12,72.18,81.51,0,5
15899.125,-0.355,0.225,0.416,-1.22,94.0,73.27,0,5
15899.14,-0.328,0.171,0.402,0.06,116.49,63.51,0,5
15899.156,-0.308,0.135,0.408,3.85,166.69,37.54,0,5
15899.171,-0.339,0.113,0.425,7.02,192.91,23.04,0,5
15899.187,-0.378,0.082,0.45,9.92,217.54,10.13,0,5
15899.187,-0.409,0.043,0.466,13.64,240.12,-1.92,0,5
15899.203,-0.42,0.003,0.454,18.92,261.3,-16.97,0,5
15899.218,-0.444,-0.023,0.443,25.97,282.3,-37.29,0,5
15899.218,-0.518,-0.059,0.439,34.58,300.3,-60.09,0,5
15899.234,-0.595,-0.074,0.458,47.88,310.46,-83.86,0,5
15899.234,-0.674,-0.065,0.488,67.51,309.09,-107.88,0,5
15899.25,-0.738,-0.042,0.517,91.59,303.72,-126.77,0,5
15899.265,-0.817,-0.004,0.532,116.7,289.74,-135.44,0,5
15899.265,-0.885,0.072,0.549,141.76,264.5,-134.19,0,5
15899.281,-0.924,0.14,0.569,166.02,229.71,-122.9,0,5
15899.296,-0.948,0.203,0.581,187.75,187.51,-104.13,0,5
15899.296,-0.955,0.282,0.573,202.25,140.54,-83.16,0,5
15899.312,-0.947,0.324,0.545,205.6,89.39,-63.66,0,5
15899.328,-0.944,0.305,0.494,201.61,38.94,-49.44,0,5
15899.328,-0.961,0.289,0.423,191.96,-4.12,-43.31,0,5
15899.343,-0.958,0.317,0.35,173.41,-37.08,-46.05,0,5
15899.343,-0.961,0.325,0.296,148.93,-60.43,-56.43,0,5
15899.359,-0.995,0.32,0.244,124.45,-74.65,-71.44,0,5
15899.375,-1.021,0.331,0.206,103.43,-81.67,-87.41,0,5
15899.375,-1.031,0.348,0.188,88.69,-83.29,-102.79,0,5
15899.39,-1.046,0.351,0.176,83.62,-80.29,-115.7,0,5
15899.406,-1.056,0.357,0.162,87.77,-74.07,-124.39,0,5
15899.406,-1.056,0.364,0.135,99.0,-65.65,-128.51,0,5
15899.421,-1.039,0.375,0.131,115.42,-54.9,-127.84,0,5
15899.437,-1.018,0.378,0.143,136.69,-41.05,-123.42,0,5
15899.437,-1.016,0.379,0.143,162.08,-25.61,-116.58,0,5
15899.453,-1.028,0.376,0.118,187.72,-10.1,-107.27,0,5
15899.453,-1.032,0.372,0.09,207.92,4.82,-96.62,0,5
15899.468,-1.027,0.37,0.068,220.65,19.01,-87.16,0,5
15899.484,-1.028,0.371,0.052,224.19,32.59,-81.12,0,5
15899.484,-1.03,0.378,0.048,217.47,45.59,-78.71,0,5
15899.5,-1.028,0.389,0.047,201.42,57.31,-78.49,0,5
15899.515,-1.029,0.402,0.05,177.07,67.75,-79.35,0,5
15899.515,-1.043,0.413,0.069,146.73,75.78,-80.11,0,5
15899.531,-1.06,0.413,0.107,114.78,79.78,-79.71,0,5
15899.546,-1.074,0.401,0.134,85.57,79.13,-78.04,0,5
15899.546,-1.08,0.403,0.135,58.66,74.13,-74.89,0,5
15899.562,-1.083,0.435,0.113,29.82,66.1,-70.5,0,5
15899.578,-1.074,0.477,0.091,-5.1,55.85,-65.8,0,5
15899.578,-1.061,0.479,0.052,-47.15,44.77,-61.4,0,5
15899.593,-1.056,0.438,0.044,-93.05,33.85,-57.04,0,5
15899.609,-1.045,0.365,0.05,-131.35,24.84,-52.31,0,5
15899.609,-1.04,0.295,0.063,-157.23,18.46,-47.7,0,5
15899.625,-1.046,0.225,0.077,-168.49,14.89,-43.06,0,5
15899.625,-1.061,0.147,0.112,-165.35,13.95,-38.06,0,5
15899.64,-1.089,0.085,0.151,-147.74,14.34,-33.48,0,5
15899.656,-1.103,0.051,0.164,-119.79,16.02,-28.75,0,5
15899.656,-1.098,0.042,0.154,-88.78,19.29,-24.38,0,5
15899.671,-1.101,0.039,0.127,-59.54,24.54,-20.84,0,5
15899.687,-1.099,0.036,0.108,-35.89,30.03,-18.25,0,5
15899.687,-1.085,0.044,0.093,-16.36,35.62,-16.66,0,5
15899.703,-1.067,0.053,0.076,-0.95,41.72,-16.3,0,5
15899.718,-1.049,0.059,0.065,10.65,47.0,-17.15,0,5
15899.718,-1.036,0.065,0.059,19.62,51.73,-18.49,0,5
15899.734,-1.026,0.077,0.065,26.25,55.64,-19.87,0,5
15899.75,-1.019,0.081,0.068,31.22,58.53,-21.06,0,5
15899.75,-1.014,0.081,0.063,34.21,59.97,-21.55,0,5
15899.765,-1.006,0.086,0.062,34.82,60.15,-20.87,0,5
15899.765,-1.006,0.094,0.06,33.39,58.87,-19.47,0,5
15899.781,-1.015,0.096,0.057,29.08,55.91,-17.79,0,5
15899.796,-1.028,0.083,0.051,21.76,51.64,-16.14,0,5
15899.796,-1.029,0.072,0.046,11.99,46.36,-14.53,0,5
15899.812,-1.001,0.07,0.055,0.21,40.65,-13.61,0,5
15899.812,-0.964,0.062,0.067,-12.12,35.86,-13.95,0,5
15899.828,-0.942,0.048,0.075,-34.52,27.74,-17.03,0,5
15899.843,-0.925,0.036,0.083,-42.85,23.16,-19.2,0,5
15899.843,-0.913,0.025,0.09,-47.82,17.58,-21.36,0,5
15899.859,-0.908,0.017,0.092,-49.53,11.02,-22.8,0,5
15899.875,-0.886,0.033,0.071,-48.22,4.55,-23.9,0,5
15899.875,-0.887,0.05,0.046,-45.41,-0.67,-24.45,0,5
15899.89,-0.905,0.061,0.027,-42.6,-4.36,-23.87,0,5
15899.906,-0.938,0.065,0.015,-39.49,-6.71,-21.45,0,5
15899.906,-0.968,0.059,0.008,-35.58,-7.75,-17.03,0,5
15899.921,-0.993,0.048,0.006,-30.79,-7.48,-11.75,0,5
15899.937,-1.011,0.037,0.01,-25.39,-6.26,-6.16,0,5
15899.937,-1.018,0.019,0.018,-18.8,-4.49,-0.89,0,5
15899.953,-1.014,0.0,0.02,-10.71,-2.26,3.23,0,5
15899.953,-1.002,-0.015,0.012,-1.89,0.37,6.13,0,5
15899.968,-0.995,-0.025,0.007,6.68,3.3,7.69,0,5
15899.984,-0.992,-0.032,0.006,14.89,5.68,8.12,0,5
15899.984,-0.979,-0.039,0.003,22.37,7.26,7.72,0,5
15900.0,-0.963,-0.035,0.002,29.39,8.97,6.41,0,5
15900.015,-0.943,-0.024,-0.005,34.76,11.17,4.18,0,5
15900.015,-0.916,-0.007,-0.014,37.81,13.7,1.37,0,5
15900.031,-0.889,0.013,-0.019,37.87,16.3,-1.31,0,5
15900.046,-0.869,0.036,-0.02,35.43,17.88,-3.75,0,5
15900.046,-0.863,0.05,-0.022,31.77,18.65,-5.68,0,5
15900.062,-0.871,0.054,-0.021,27.99,17.82,-6.78,0,5
15900.078,-0.879,0.05,-0.017,24.78,15.9,-6.84,0,5
15900.078,-0.886,0.042,-0.015,23.29,12.91,-5.89,0,5
15900.093,-0.891,0.028,-0.02,24.02,9.0,-4.94,0,5
15900.093,-0.898,0.01,-0.028,26.7,4.85,-4.3,0,5
15900.109,-0.915,-0.005,-0.037,30.64,0.98,-3.63,0,5
15900.125,-0.937,-0.022,-0.049,35.58,-2.2,-3.33,0,5
15900.125,-0.961,-0.035,-0.061,40.77,-5.31,-3.69,0,5
15900.14,-0.984,-0.041,-0.074,45.66,-8.3,-4.58,0,5
15900.156,-1.011,-0.043,-0.09,49.71,-11.05,-6.1,0,5
15900.171,-1.037,-0.038,-0.114,53.01,-13.95,-8.33,0,5
15900.171,-1.059,-0.013,-0.145,53.19,-17.33,-10.56,0,5
15900.171,-1.071,0.047,-0.186,46.66,-21.24,-12.63,0,5
15900.187,-1.075,0.118,-0.228,29.18,-26.22,-14.68,0,5
15900.203,-1.078,0.185,-0.284,-1.59,-31.62,-16.54,0,5
15900.218,-1.068,0.226,-0.316,-45.23,-35.98,-17.73,0,5
15900.218,-1.053,0.219,-0.311,-93.14,-38.7,-18.34,0,5
15900.234,-1.036,0.183,-0.286,-135.62,-38.3,-17.55,0,5
15900.234,-1.019,0.131,-0.236,-166.91,-34.67,-14.53,0,5
15900.25,-1.007,0.066,-0.171,-182.65,-28.5,-9.64,0,5
15900.265,-1.0,-0.005,-0.111,-181.65,-21.03,-3.85,0,5
15900.265,-0.998,-0.063,-0.053,-166.54,-13.55,2.29,0,5
15900.281,-0.997,-0.102,-0.003,-139.81,-7.26,7.93,0,5
15900.296,-0.998,-0.128,0.031,-105.47,-2.26,12.05,0,5
15900.296,-1.003,-0.142,0.041,-68.27,0.92,14.77,0,5
15900.312,-1.007,-0.14,0.032,-32.65,2.35,16.6,0,5
15900.312,-1.014,-0.119,0.012,-2.9,2.23,17.58,0,5
15900.328,-1.022,-0.093,-0.015,18.65,0.76,17.58,0,5
15900.343,-1.027,-0.072,-0.041,30.52,-1.56,17.27,0,5
15900.343,-1.026,-0.057,-0.062,34.36,-4.18,16.39,0,5
15900.359,-1.026,-0.046,-0.081,32.93,-6.41,14.56,0,5
15900.375,-1.021,-0.043,-0.095,28.11,-8.0,12.02,0,5
15900.375,-1.019,-0.037,-0.103,21.64,-8.82,9.16,0,5
15900.39,-1.017,-0.031,-0.106,15.44,-8.94,6.44,0,5
15900.406,-1.017,-0.026,-0.107,10.25,-8.51,4.18,0,5
15900.406,-1.019,-0.022,-0.108,6.41,-7.63,2.93,0,5
15900.421,-1.016,-0.02,-0.105,4.12,-6.53,3.05,0,5
15900.437,-1.014,-0.022,-0.1,3.2,-5.4,4.24,0,5
15900.437,-1.007,-0.025,-0.097,3.75,-4.33,6.47,0,5
15900.453,-1.0,-0.028,-0.093,4.61,-3.36,8.79,0,5
15900.453,-0.992,-0.037,-0.094,5.98,-2.08,10.62,0,5
15900.468,-0.984,-0.044,-0.089,7.02,-0.95,12.21,0,5
15900.484,-0.973,-0.048,-0.083,7.84,-0.18,13.0,0,5
15900.484,-0.967,-0.056,-0.081,8.39,0.58,13.21,0,5
15900.5,-0.964,-0.063,-0.079,8.39,1.19,13.09,0,5
15900.515,-0.96,-0.068,-0.073,8.09,1.4,12.85,0,5
15900.531,-0.958,-0.075,-0.068,7.97,1.56,12.39,0,5
15900.531,-0.958,-0.084,-0.066,8.15,1.22,11.78,0,5
15900.546,-0.955,-0.091,-0.065,8.61,0.79,10.93,0,5
15900.546,-0.954,-0.092,-0.062,9.19,0.4,9.64,0,5
15900.562,-0.955,-0.086,-0.066,9.25,-0.21,7.87,0,5
15900.562,-0.956,-0.079,-0.069,8.0,-1.22,5.83,0,5
15900.578,-0.957,-0.081,-0.073,5.98,-2.2,3.75,0,5
15900.593,-0.956,-0.077,-0.079,3.72,-3.23,1.74,0,5
15900.593,-0.96,-0.072,-0.08,1.86,-3.91,-0.37,0,5
15900.609,-0.964,-0.07,-0.083,0.95,-3.94,-2.53,0,5
15900.625,-0.966,-0.063,-0.087,0.73,-3.3,-4.09,0,5
15900.625,-0.97,-0.052,-0.085,0.82,-1.86,-5.52,0,5
15900.64,-0.976,-0.045,-0.08,1.28,-0.03,-6.78,0,5
15900.656,-0.981,-0.04,-0.076,2.04,1.65,-7.54,0,5
15900.656,-0.985,-0.033,-0.073,2.66,2.81,-7.63,0,5
15900.671,-0.987,-0.026,-0.067,2.96,3.36,-7.54,0,5
15900.687,-0.988,-0.021,-0.06,3.33,3.27,-7.39,0,5
15900.687,-0.992,-0.018,-0.06,4.0,2.56,-7.11,0,5
15900.703,-0.994,-0.016,-0.057,4.64,1.59,-6.44,0,5
15900.703,-0.993,-0.013,-0.054,5.25,0.46,-5.95,0,5
15900.718,-0.994,-0.016,-0.057,6.1,-0.61,-5.4,0,5
15900.734,-0.993,-0.019,-0.058,7.42,-1.31,-4.79,0,5
15900.734,-0.992,-0.017,-0.056,8.88,-1.56,-4.33,0,5
15900.75,-0.992,-0.019,-0.061,10.28,-1.46,-4.0,0,5
15900.765,-0.99,-0.021,-0.063,11.78,-1.31,-3.57,0,5
15900.765,-0.99,-0.014,-0.07,12.7,-1.25,-3.54,0,5
15900.781,-0.99,-0.005,-0.075,11.96,-1.62,-3.45,0,5
15900.796,-0.993,-0.004,-0.077,9.58,-2.2,-3.39,0,5
15900.796,-0.989,0.001,-0.082,5.98,-2.93,-3.11,0,5
15900.812,-0.985,0.004,-0.08,-1.92,-4.55,-2.78,0,5
15900.828,-0.983,-0.003,-0.079,-4.79,-5.1,-2.84,0,5
15900.828,-0.983,-0.01,-0.075,-6.01,-5.37,-2.84,0,5
15900.843,-0.977,-0.016,-0.069,-5.62,-5.19,-2.87,0,5
15900.843,-0.967,-0.022,-0.062,-4.09,-4.36,-2.93,0,5
15900.859,-0.963,-0.022,-0.06,-1.71,-3.51,-3.23,0,5
15900.875,-0.964,-0.021,-0.059,0.79,-2.62,-3.33,0,5
15900.875,-0.969,-0.02,-0.058,3.2,-1.92,-2.87,0,5
15900.89,-0.972,-0.022,-0.061,5.62,-1.68,-2.5,0,5
15900.906,-0.969,-0.021,-0.065,7.63,-1.5,-2.32,0,5
15900.906,-0.972,-0.02,-0.068,8.88,-1.22,-2.29,0,5
15900.921,-0.976,-0.023,-0.07,9.55,-0.7,-2.35,0,5
15900.937,-0.973,-0.02,-0.072,9.34,0.03,-2.11,0,5
15900.937,-0.967,-0.021,-0.072,9.13,0.64,-1.83,0,5
15900.953,-0.968,-0.028,-0.074,9.52,1.4,-2.38,0,5
15900.953,-0.976,-0.031,-0.069,10.53,2.01,-2.78,0,5
15900.968,-0.977,-0.031,-0.064,12.05,2.62,-2.62,0,5
15900.984,-0.982,-0.036,-0.071,14.01,4.0,-1.92,0,5
15900.984,-0.985,-0.021,-0.09,14.25,5.74,-1.53,0,5
15901.0,-0.978,-0.019,-0.078,13.06,7.63,-1.77,0,5
15901.015,-0.987,-0.038,-0.062,14.28,9.55,-3.08,0,5
15901.015,-0.993,-0.047,-0.068,16.69,11.38,-3.91,0,5
15901.031,-0.984,-0.037,-0.067,19.07,12.48,-4.97,0,5
15901.046,-0.988,-0.041,-0.056,23.04,12.97,-6.35,0,5
15901.046,-0.991,-0.047,-0.056,27.68,12.88,-7.2,0,5
15901.062,-0.989,-0.042,-0.055,32.32,12.18,-7.35,0,5
15901.078,-0.994,-0.036,-0.057,36.9,11.26,-6.81,0,5
15901.078,-0.995,-0.029,-0.065,40.38,10.19,-5.49,0,5
15901.093,-0.995,-0.019,-0.07,41.75,9.0,-3.78,0,5
15901.093,-0.996,-0.016,-0.074,41.17,7.75,-1.86,0,5
15901.109,-0.996,-0.017,-0.075,39.37,6.56,-0.18,0,5
15901.125,-0.992,-0.022,-0.078,37.08,5.43,0.76,0,5
15901.125,-0.99,-0.027,-0.082,34.42,4.64,1.04,0,5
15901.14,-0.991,-0.029,-0.083,31.34,4.03,0.58,0,5
15901.156,-0.991,-0.03,-0.083,28.32,3.54,-0.49,0,5
15901.156,-0.991,-0.03,-0.083,25.7,3.02,-1.28,0,5
15901.171,-0.991,-0.027,-0.084,23.41,2.56,-1.77,0,5
15901.171,-0.992,-0.023,-0.086,21.12,2.38,-2.01,0,5
15901.187,-0.989,-0.022,-0.088,18.83,2.72,-1.8,0,5
15901.203,-0.987,-0.026,-0.088,16.91,3.45,-1.5,0,5
15901.218,-0.983,-0.022,-0.085,14.44,3.91,-1.31,0,5
15901.218,-0.98,-0.021,-0.084,11.9,4.09,-1.25,0,5
15901.234,-0.981,-0.027,-0.078,9.34,3.97,-1.28,0,5
15901.234,-0.98,-0.028,-0.075,6.65,3.39,-1.1,0,5
15901.25,-0.984,-0.03,-0.076,4.15,2.5,-1.01,0,5
15901.265,-0.987,-0.035,-0.075,2.35,1.53,-0.98,0,5
15901.265,-0.985,-0.036,-0.074,0.76,0.24,-0.7,0,5
15901.281,-0.984,-0.036,-0.074,-0.09,-0.98,-0.61,0,5
15901.296,-0.983,-0.036,-0.074,-1.04,-1.92,-0.7,0,5
15901.296,-0.982,-0.037,-0.082,-2.66,-2.81,-0.85,0,5
15901.312,-0.976,-0.039,-0.083,-4.52,-3.14,-0.79,0,5
15901.312,-0.97,-0.038,-0.083,-6.01,-3.08,-1.1,0,5
15901.328,-0.968,-0.036,-0.085,-7.69,-2.99,-1.77,0,5
15901.343,-0.969,-0.033,-0.086,-9.7,-2.9,-2.5,0,5
15901.343,-0.974,-0.029,-0.087,-11.69,-2.84,-3.2,0,5
15901.359,-0.984,-0.029,-0.085,-14.01,-2.9,-3.6,0,5
15901.375,-0.993,-0.029,-0.085,-16.17,-3.36,-3.85,0,5
15901.375,-0.993,-0.03,-0.096,-18.07,-4.18,-4.21,0,5
15901.39,-0.992,-0.029,-0.104,-19.93,-5.07,-4.88,0,5
15901.406,-0.993,-0.029,-0.111,-21.09,-5.62,-5.62,0,5
15901.406,-0.996,-0.033,-0.119,-21.21,-5.37,-5.98,0,5
15901.421,-1.009,-0.036,-0.132,-20.91,-4.49,-6.2,0,5
15901.437,-1.024,-0.039,-0.142,-21.21,-2.87,-6.59,0,5
15901.437,-1.031,-0.037,-0.139,-22.83,-0.7,-6.81,0,5
15901.453,-1.035,-0.033,-0.123,-25.45,2.17,-7.2,0,5
15901.453,-1.043,-0.034,-0.1,-28.6,5.68,-7.72,0,5
15901.468,-1.051,-0.042,-0.071,-31.34,8.51,-7.51,0,5
15901.484,-1.057,-0.051,-0.041,-32.17,9.89,-7.02,0,5
15901.484,-1.054,-0.06,-0.012,-30.73,9.37,-6.32,0,5
15901.5,-1.049,-0.062,0.01,-27.01,7.35,-5.71,0,5
15901.515,-1.048,-0.062,0.031,-21.94,3.36,-4.64,0,5
15901.515,-1.041,-0.068,0.036,-15.35,-2.66,-2.5,0,5
15901.531,-1.024,-0.067,0.028,-7.48,-9.77,0.52,0,5
15901.546,-1.003,-0.064,0.005,1.28,-16.48,4.27,0,5
15901.546,-0.98,-0.064,-0.021,9.98,-22.34,8.15,0,5
15901.562,-0.955,-0.073,-0.049,17.85,-26.98,11.9,0,5
15901.562,-0.943,-0.081,-0.075,24.75,-29.79,15.14,0,5
15901.578,-0.933,-0.102,-0.101,30.79,-31.53,17.91,0,5
15901.593,-0.915,-0.122,-0.126,35.77,-31.62,19.96,0,5
15901.609,-0.898,-0.126,-0.153,39.43,-29.45,20.94,0,5
15901.609,-0.886,-0.128,-0.176,40.68,-25.06,20.33,0,5
15901.625,-0.879,-0.131,-0.186,39.03,-18.98,18.22,0,5
15901.625,-0.88,-0.129,-0.181,35.19,-11.84,14.95,0,5
15901.64,-0.882,-0.125,-0.177,29.45,-4.97,10.56,0,5
15901.656,-0.891,-0.109,-0.162,21.94,1.74,5.28,0,5
15901.656,-0.904,-0.1,-0.145,14.01,6.56,0.18,0,5
15901.671,-0.919,-0.089,-0.136,5.65,9.49,-4.43,0,5
15901.671,-0.934,-0.074,-0.122,-2.75,11.02,-8.18,0,5
15901.687,-0.948,-0.063,-0.107,-10.35,11.29,-10.99,0,5
15901.703,-0.963,-0.053,-0.092,-17.0,10.8,-13.18,0,5
15901.718,-0.973,-0.05,-0.078,-22.0,10.01,-14.77,0,5
15901.718,-0.983,-0.046,-0.059,-24.75,9.4,-15.59,0,5
15901.734,-0.989,-0.044,-0.043,-24.84,8.79,-16.02,0,5
15901.734,-0.992,-0.043,-0.03,-22.55,7.84,-15.66,0,5
15901.75,-0.992,-0.042,-0.026,-18.01,6.68,-14.34,0,5
15901.765,-0.996,-0.041,-0.027,-11.99,5.01,-12.6,0,5
15901.781,-0.992,-0.037,-0.028,-5.22,2.75,-10.44,0,5
15901.781,-0.99,-0.033,-0.034,1.46,0.18,-8.27,0,5
15901.796,-0.981,-0.027,-0.05,7.14,-2.01,-6.07,0,5
15901.796,-0.974,-0.024,-0.064,14.5,-3.69,-1.95,0,5
15901.812,-0.972,-0.026,-0.078,15.9,-3.42,-0.52,0,5
15901.828,-0.972,-0.028,-0.087,16.39,-2.23,0.37,0,5
15901.828,-0.966,-0.037,-0.102,15.84,-0.85,0.37,0,5
15901.843,-0.967,-0.039,-0.105,14.95,0.79,-0.55,0,5
15901.843,-0.971,-0.036,-0.105,13.28,2.75,-1.74,0,5
15901.859,-0.97,-0.031,-0.102,10.93,4.3,-3.08,0,5
15901.875,-0.97,-0.021,-0.094,7.9,5.55,-4.39,0,5
15901.875,-0.976,-0.014,-0.086,4.12,6.74,-5.46,0,5
15901.89,-0.98,-0.01,-0.078,0.21,7.66,-5.86,0,5
15901.906,-0.981,-0.007,-0.066,-3.48,8.0,-6.07,0,5
15901.906,-0.986,-0.01,-0.059,-6.41,7.57,-6.01,0,5
15901.921,-0.994,-0.016,-0.046,-8.3,6.41,-5.62,0,5
15901.937,-0.996,-0.02,-0.037,-8.91,4.7,-5.04,0,5
15901.937,-0.997,-0.025,-0.039,-8.24,2.66,-4.46,0,5
15901.953,-1.001,-0.027,-0.049,-7.42,0.76,-3.91,0,5
15901.968,-1.002,-0.025,-0.056,-7.02,-1.19,-3.48,0,5
15901.968,-1.001,-0.029,-0.064,-6.9,-2.5,-2.75,0,5
15901.984,-1.003,-0.037,-0.076,-6.78,-3.14,-1.43,0,5
15901.984,-1.006,-0.037,-0.091,-7.02,-3.11,-0.37,0,5
15902.0,-1.006,-0.041,-0.102,-8.36,-2.75,0.09,0,5
15902.015,-1.006,-0.046,-0.112,-10.59,-2.11,0.15,0,5
15902.015,-1.006,-0.045,-0.118,-13.09,-1.37,0.18,0,5
15902.031,-1.005,-0.047,-0.122,-15.78,-0.64,0.43,0,5
15902.046,-1.007,-0.05,-0.123,-18.37,-0.15,0.95,0,5
15902.046,-1.003,-0.055,-0.118,-19.99,0.43,1.98,0,5
15902.062,-0.993,-0.065,-0.112,-20.36,1.07,3.2,0,5
15902.062,-0.985,-0.079,-0.105,-19.07,1.86,4.46,0,5
15902.078,-0.981,-0.092,-0.094,-16.08,2.84,5.89,0,5
15902.093,-0.975,-0.102,-0.086,-11.99,3.27,6.93,0,5
15902.093,-0.967,-0.107,-0.081,-7.45,3.14,7.32,0,5
15902.109,-0.964,-0.104,-0.079,-3.51,2.96,6.93,0,5
15902.125,-0.961,-0.102,-0.08,-1.22,2.96,6.32,0,5
15902.14,-0.962,-0.095,-0.082,-0.43,2.96,5.55,0,5
15902.14,-0.961,-0.094,-0.082,-0.92,2.93,4.94,0,5
15902.156,-0.964,-0.094,-0.084,-2.47,2.72,4.24,0,5
15902.156,-0.965,-0.092,-0.085,-4.82,2.2,3.27,0,5
15902.171,-0.966,-0.091,-0.084,-7.02,1.68,1.98,0,5
15902.171,-0.97,-0.091,-0.084,-8.39,1.25,1.07,0,5
15902.187,-0.972,-0.091,-0.085,-9.22,0.82,0.18,0,5
15902.203,-0.97,-0.09,-0.088,-9.34,0.67,-0.43,0,5
15902.203,-0.971,-0.087,-0.091,-9.16,0.95,-1.13,0,5
15902.218,-0.966,-0.081,-0.093,-8.36,1.62,-1.53,0,5
15902.234,-0.964,-0.076,-0.092,-7.45,2.53,-1.77,0,5
15902.25,-0.97,-0.074,-0.087,-6.2,3.57,-1.65,0,5
15902.25,-0.976,-0.073,-0.083,-5.01,4.33,-1.65,0,5
15902.265,-0.975,-0.069,-0.083,-4.64,4.49,-2.01,0,5
15902.281,-0.974,-0.06,-0.084,-5.13,4.39,-2.62,0,5
15902.281,-0.978,-0.051,-0.083,-6.44,4.06,-3.27,0,5
15902.296,-0.977,-0.046,-0.081,-8.48,3.63,-3.63,0,5
15902.312,-0.978,-0.042,-0.079,-10.99,3.08,-3.6,0,5
15902.328,-0.976,-0.043,-0.075,-13.12,2.44,-3.72,0,5
15902.328,-0.977,-0.045,-0.072,-14.28,1.77,-3.75,0,5
15902.343,-0.982,-0.051,-0.065,-14.37,0.89,-3.69,0,5
15902.343,-0.985,-0.056,-0.065,-13.67,0.03,-3.75,0,5
15902.359,-0.988,-0.054,-0.06,-12.27,-0.58,-3.91,0,5
15902.359,-0.992,-0.052,-0.059,-10.28,-1.19,-4.3,0,5
15902.375,-0.996,-0.048,-0.058,-8.76,-1.46,-4.88,0,5
15902.375,-1.003,-0.04,-0.058,-7.48,-1.65,-5.43,0,5
15902.39,-1.01,-0.032,-0.054,-6.38,-2.2,-6.1,0,5
15902.406,-1.019,-0.024,-0.051,-5.49,-3.23,-6.2,0,5
15902.406,-1.027,-0.012,-0.047,-5.19,-4.94,-5.89,0,5
15902.421,-1.028,0.004,-0.046,-5.68,-7.11,-5.43,0,5
15902.437,-1.035,0.016,-0.044,-7.26,-9.09,-4.76,0,5
15902.437,-1.041,0.026,-0.042,-10.25,-11.2,-3.54,0,5
15902.453,-1.04,0.039,-0.019,-14.68,-14.37,-1.83,0,5
15902.453,-1.032,0.036,-0.015,-18.4,-18.01,-0.09,0,5
15902.468,-1.023,0.034,-0.015,-22.34,-20.66,1.53,0,5
15902.484,-1.014,0.013,-0.015,-25.73,-22.43,3.23,0,5
15902.5,-1.013,0.012,-0.013,-29.02,-24.69,4.46,0,5
15902.515,-1.001,0.018,-0.01,-32.44,-28.57,5.04,0,5
15902.515,-0.985,0.021,-0.014,-36.84,-32.96,4.73,0,5
15902.515,-0.978,0.022,-0.015,-41.75,-35.46,4.06,0,5
15902.531,-0.973,0.015,-0.01,-45.53,-36.99,3.66,0,5
15902.546,-0.971,0.007,-0.001,-47.27,-38.39,3.36,0,5
15902.546,-0.97,0.005,0.004,-46.82,-39.49,3.6,0,5
15902.562,-0.972,0.002,0.01,-45.01,-40.89,4.7,0,5
15902.562,-0.979,0.001,0.013,-43.4,-43.18,5.83,0,5
15902.578,-0.981,0.001,0.02,-42.45,-45.59,6.71,0,5
15902.593,-0.983,0.0,0.029,-41.11,-46.75,7.2,0,5
15902.609,-0.992,-0.01,0.035,-38.64,-45.81,7.6,0,5
15902.609,-1.006,-0.023,0.044,-34.27,-43.24,8.0,0,5
15902.625,-1.012,-0.032,0.061,-27.68,-39.92,8.21,0,5
15902.625,-1.014,-0.047,0.077,-17.37,-36.65,7.9,0,5
15902.64,-1.024,-0.07,0.078,-3.6,-34.82,7.42,0,5
15902.656,-1.024,-0.079,0.071,12.3,-34.06,6.71,0,5
15902.656,-1.013,-0.071,0.051,28.96,-33.08,5.83,0,5
15902.671,-1.016,-0.057,0.019,43.76,-31.28,5.16,0,5
15902.671,-1.016,-0.048,-0.006,54.32,-29.57,5.16,0,5
15902.687,-1.011,-0.035,-0.031,60.43,-26.92,6.01,0,5
15902.703,-1.004,-0.016,-0.053,60.34,-22.71,7.26,0,5
15902.703,-0.993,-0.02,-0.061,54.69,-17.76,8.55,0,5
15902.718,-0.987,-0.044,-0.06,46.39,-12.09,9.98,0,5
15902.734,-0.969,-0.069,-0.051,36.56,-6.71,10.93,0,5
15902.734,-0.954,-0.093,-0.037,27.07,-2.2,10.38,0,5
15902.75,-0.956,-0.108,-0.033,19.75,1.4,7.84,0,5
15902.765,-0.95,-0.115,-0.027,14.68,3.08,3.3,0,5
15902.765,-0.942,-0.109,-0.013,13.0,3.81,-2.9,0,5
15902.781,-0.95,-0.097,0.024,26.46,8.06,-14.5,0,5
15902.796,-0.957,-0.097,0.067,43.89,11.72,-17.0,0,5
15902.796,-0.978,-0.072,0.071,61.31,13.98,-15.32,0,5
15902.812,-0.99,-0.033,0.039,70.68,15.32,-10.68,0,5
15902.828,-0.983,-0.014,0.011,72.27,17.4,-4.97,0,5
15902.828,-0.973,-0.018,0.021,68.27,19.47,-0.34,0,5
15902.843,-0.962,-0.012,0.044,61.1,21.09,0.92,0,5
15902.843,-0.962,0.0,0.068,53.8,23.26,-0.92,0,5
15902.859,-0.971,0.028,0.1,45.32,24.9,-3.3,0,5
15902.875,-0.982,0.046,0.127,35.74,23.44,-5.07,0,5
15902.875,-0.992,0.06,0.14,26.25,19.23,-5.98,0,5
15902.89,-0.999,0.067,0.142,17.64,12.85,-5.83,0,5
15902.906,-1.021,0.078,0.12,9.37,4.52,-5.01,0,5
15902.906,-1.023,0.092,0.092,0.61,-4.58,-2.35,0,5
15902.921,-1.024,0.091,0.07,-8.97,-11.72,1.13,0,5
15902.937,-1.031,0.087,0.052,-18.31,-17.18,4.33,0,5
15902.937,-1.028,0.076,0.032,-27.25,-21.39,7.14,0,5
15902.953,-1.023,0.047,0.022,-37.9,-24.17,9.74,0,5
15902.968,-1.012,0.01,0.026,-47.21,-26.31,10.96,0,5
15902.968,-0.993,-0.019,0.035,-53.19,-27.38,10.68,0,5
15902.984,-0.981,-0.027,0.035,-56.86,-27.53,8.39,0,5
15902.984,-0.974,-0.028,0.036,-59.36,-26.67,4.49,0,5
15903.0,-0.964,-0.022,0.042,-61.01,-24.41,0.21,0,5
15903.015,-0.962,-0.02,0.054,-62.72,-21.12,-3.02,0,5
15903.031,-0.985,-0.027,0.076,-62.75,-17.88,-5.49,0,5
15903.031,-0.99,-0.043,0.1,-59.85,-15.96,-6.74,0,5
15903.046,-1.014,-0.061,0.12,-53.32,-13.76,-7.39,0,5
15903.046,-1.035,-0.081,0.125,-43.79,-12.73,-7.72,0,5
15903.062,-1.036,-0.08,0.122,-33.78,-12.67,-8.24,0,5
15903.062,-1.03,-0.081,0.126,-24.66,-12.91,-9.16,0,5
15903.078,-1.027,-0.097,0.143,-15.75,-12.02,-9.92,0,5
15903.093,-1.018,-0.1,0.156,-6.23,-9.49,-10.13,0,5
15903.093,-1.007,-0.105,0.158,4.39,-6.93,-10.38,0,5
15903.109,-1.002,-0.105,0.155,16.63,-6.35,-11.29,0,5
15903.125,-1.005,-0.091,0.14,30.76,-8.48,-12.7,0,5
15903.125,-1.01,-0.069,0.126,45.81,-12.45,-13.09,0,5
15903.14,-1.015,-0.052,0.107,60.12,-16.91,-11.35,0,5
15903.156,-1.021,-0.018,0.075,69.8,-20.17,-7.05,0,5
15903.156,-1.02,0.042,0.021,68.36,-22.68,-0.79,0,5
15903.171,-1.022,0.064,-0.011,53.35,-26.92,5.22,0,5
15903.187,-1.011,0.038,-0.007,30.92,-31.95,10.5,0,5
15903.187,-0.995,-0.004,0.002,8.58,-36.01,13.98,0,5
15903.203,-0.971,-0.027,-0.003,-10.16,-39.46,14.31,0,5
15903.203,-0.954,-0.029,-0.005,-25.73,-41.69,11.87,0,5
15903.218,-0.951,-0.021,0.002,-38.91,-42.21,8.36,0,5
15903.234,-0.962,-0.001,0.021,-49.59,-41.99,4.76,0,5
15903.234,-0.984,0.017,0.041,-57.8,-41.78,2.93,0,5
15903.25,-1.008,0.024,0.066,-63.72,-41.63,3.57,0,5
15903.265,-1.018,0.015,0.098,-65.49,-41.23,6.23,0,5
15903.265,-1.026,-0.005,0.127,-62.04,-40.35,10.1,0,5
15903.281,-1.029,-0.013,0.147,-55.02,-39.61,13.82,0,5
15903.296,-1.021,-0.014,0.162,-47.15,-38.97,16.42,0,5
15903.296,-1.003,-0.002,0.167,-40.38,-38.48,17.12,0,5
15903.312,-0.994,0.023,0.163,-35.43,-37.93,16.48,0,5
15903.328,-0.999,0.044,0.166,-33.54,-37.17,15.69,0,5
15903.328,-1.021,0.046,0.176,-33.72,-36.04,16.05,0,5
15903.343,-1.029,0.032,0.194,-34.79,-35.28,18.04,0,5
15903.343,-1.02,0.019,0.216,-35.55,-34.55,20.26,0,5
15903.359,-0.999,0.001,0.24,-35.4,-33.08,21.61,0,5
15903.375,-0.976,-0.002,0.269,-35.13,-30.85,21.97,0,5
15903.375,-0.961,0.005,0.292,-34.94,-28.75,20.51,0,5
15903.39,-0.962,-0.012,0.31,-33.88,-27.1,18.8,0,5
15903.406,-0.972,-0.016,0.335,-31.92,-26.55,17.55,0,5
15903.406,-0.982,-0.014,0.345,-28.08,-27.99,16.54,0,5
15903.421,-1.006,-0.013,0.346,-22.74,-30.4,15.99,0,5
15903.437,-1.034,-0.004,0.344,-17.82,-33.57,16.66,0,5
15903.437,-1.043,0.011,0.34,-14.31,-37.72,18.04,0,5
15903.453,-1.034,0.031,0.336,-13.49,-41.72,19.71,0,5
15903.453,-1.021,0.038,0.336,-15.56,-44.89,22.1,0,5
15903.468,-1.006,0.026,0.338,-18.89,-47.09,24.75,0,5
15903.484,-1.003,-0.001,0.35,-22.06,-48.37,27.47,0,5
15903.5,-1.002,-0.03,0.363,-23.71,-49.04,29.45,0,5
15903.5,-0.995,-0.047,0.37,-23.29,-50.29,29.66,0,5
15903.515,-0.983,-0.058,0.377,-20.91,-51.67,28.35,0,5
15903.515,-0.973,-0.063,0.387,-16.75,-52.28,26.52,0,5
15903.531,-0.973,-0.059,0.393,-11.66,-51.73,24.99,0,5
15903.546,-0.972,-0.052,0.397,-6.78,-50.78,24.02,0,5
15903.546,-0.975,-0.038,0.399,-2.59,-49.56,22.83,0,5
15903.562,-0.993,-0.025,0.398,0.67,-48.59,21.91,0,5
15903.562,-1.004,-0.015,0.394,2.56,-48.98,21.67,0,5
15903.578,-1.008,-0.009,0.39,3.57,-50.42,21.76,0,5
15903.593,-0.999,-0.013,0.388,3.72,-51.82,22.43,0,5
15903.593,-0.973,-0.008,0.38,3.78,-51.94,22.92,0,5
15903.609,-0.956,-0.002,0.38,2.93,-50.84,22.37,0,5
15903.625,-0.939,-0.004,0.386,0.92,-49.1,21.52,0,5
15903.625,-0.918,-0.007,0.396,-1.8,-47.03,20.72,0,5
15903.64,-0.911,-0.011,0.405,-4.03,-45.11,19.5,0,5
15903.656,-0.91,-0.018,0.419,-5.83,-44.22,17.94,0,5
15903.656,-0.905,-0.022,0.436,-6.84,-44.34,16.48,0,5
15903.671,-0.9,-0.015,0.449,-6.59,-45.14,14.47,0,5
15903.671,-0.905,-0.001,0.461,-5.65,-46.05,11.9,0,5
15903.687,-0.919,0.004,0.475,-4.97,-47.18,9.7,0,5
15903.703,-0.916,0.016,0.493,-5.04,-49.84,8.03,0,5
15903.718,-0.914,0.028,0.5,-4.15,-53.32,5.95,0,5
15903.718,-0.917,0.035,0.49,-2.04,-56.92,4.03,0,5
15903.734,-0.909,0.047,0.481,0.03,-59.88,3.54,0,5
15903.734,-0.903,0.062,0.468,2.29,-61.62,4.09,0,5
15903.75,-0.902,0.073,0.453,3.94,-62.04,5.49,0,5
15903.765,-0.886,0.08,0.439,3.63,-61.65,7.87,0,5
15903.765,-0.872,0.086,0.433,3.36,-59.69,9.06,0,5
15903.781,-0.868,0.083,0.433,3.23,-57.25,10.77,0,5
15903.796,-0.854,0.076,0.433,4.18,-54.48,12.12,0,5
15903.796,-0.846,0.087,0.45,5.92,-51.27,13.0,0,5
15903.812,-0.844,0.103,0.458,6.38,-48.31,13.52,0,5
15903.812,-0.843,0.118,0.47,6.23,-46.24,13.64,0,5
15903.828,-0.845,0.125,0.482,6.29,-44.77,14.01,0,5
15903.843,-0.833,0.124,0.498,6.53,-43.82,14.74,0,5
15903.859,-0.815,0.111,0.506,7.75,-42.88,16.08,0,5
15903.859,-0.803,0.11,0.512,9.83,-40.86,17.64,0,5
15903.875,-0.8,0.11,0.524,11.23,-38.64,18.68,0,5
15903.875,-0.802,0.108,0.537,11.29,-36.96,18.8,0,5
15903.89,-0.809,0.123,0.55,10.22,-35.86,18.25,0,5
15903.906,-0.813,0.133,0.565,8.94,-35.86,17.55,0,5
15903.906,-0.809,0.146,0.578,7.51,-36.9,17.4,0,5
15903.921,-0.803,0.154,0.59,6.26,-38.61,17.94,0,5
15903.937,-0.808,0.157,0.596,5.65,-40.13,18.8,0,5
15903.937,-0.806,0.167,0.601,4.82,-42.18,19.62,0,5
15903.953,-0.797,0.172,0.6,3.81,-44.04,20.17,0,5
15903.953,-0.796,0.172,0.597,2.17,-44.83,21.03,0,5
15903.968,-0.786,0.175,0.595,-0.46,-45.01,21.64,0,5
15903.984,-0.774,0.169,0.594,-2.87,-44.65,21.97,0,5
15903.984,-0.764,0.169,0.597,-5.68,-43.0,22.31,0,5
15904.0,-0.753,0.168,0.606,-9.19,-40.35,22.31,0,5
15904.015,-0.751,0.156,0.623,-12.76,-37.29,22.22,0,5
15904.015,-0.757,0.144,0.635,-15.59,-34.88,22.37,0,5
15904.031,-0.755,0.138,0.651,-17.82,-34.09,22.71,0,5
15904.046,-0.748,0.134,0.67,-19.41,-34.33,22.68,0,5
15904.046,-0.754,0.127,0.682,-21.0,-35.43,21.55,0,5
15904.062,-0.761,0.128,0.691,-23.41,-37.9,19.71,0,5
15904.078,-0.756,0.136,0.691,-26.25,-41.26,17.7,0,5
15904.078,-0.756,0.141,0.689,-29.11,-44.19,15.84,0,5
15904.093,-0.75,0.144,0.685,-32.17,-46.6,14.37,0,5
15904.093,-0.734,0.146,0.678,-34.42,-48.71,13.46,0,5
15904.109,-0.716,0.149,0.668,-35.43,-49.5,13.21,0,5
15904.125,-0.705,0.139,0.671,-34.7,-48.46,13.64,0,5
15904.125,-0.693,0.129,0.679,-32.96,-46.21,14.04,0,5
15904.14,-0.687,0.129,0.683,-30.0,-43.7,13.67,0,5
15904.156,-0.69,0.119,0.695,-26.43,-41.14,12.94,0,5
15904.156,-0.692,0.109,0.708,-22.89,-40.1,12.05,0,5
15904.171,-0.697,0.102,0.71,-18.16,-41.08,10.9,0,5
15904.187,-0.689,0.1,0.709,-13.09,-43.21,9.58,0,5
15904.187,-0.675,0.112,0.711,-10.1,-46.21,7.72,0,5
15904.203,-0.664,0.121,0.707,-9.95,-49.5,5.62,0,5
15904.218,-0.658,0.126,0.702,-11.66,-51.61,4.88,0,5
15904.218,-0.656,0.124,0.704,-13.79,-52.19,5.49,0,5
15904.234,-0.645,0.115,0.709,-15.29,-52.03,6.84,0,5
15904.234,-0.632,0.119,0.717,-14.71,-50.97,8.24,0,5
15904.25,-0.627,0.119,0.72,-12.18,-49.87,9.09,0,5
15904.265,-0.621,0.118,0.723,-9.55,-49.13,9.89,0,5
15904.281,-0.609,0.124,0.725,-8.03,-48.28,10.9,0,5
15904.281,-0.601,0.124,0.723,-7.35,-46.72,11.14,0,5
15904.296,-0.602,0.119,0.723,-6.9,-44.71,11.51,0,5
15904.296,-0.591,0.118,0.724,-6.56,-42.88,12.21,0,5
15904.312,-0.573,0.131,0.729,-5.98,-40.56,13.03,0,5
15904.328,-0.562,0.135,0.736,-4.91,-36.16,13.86,0,5
15904.328,-0.558,0.141,0.753,-4.24,-30.79,14.68,0,5
15904.343,-0.556,0.137,0.769,-3.51,-26.25,15.69,0,5
15904.343,-0.557,0.13,0.786,-1.74,-23.07,16.79,0,5
15904.359,-0.566,0.124,0.805,0.85,-21.39,17.85,0,5
15904.375,-0.567,0.122,0.816,2.75,-22.22,18.62,0,5
15904.375,-0.563,0.125,0.825,3.85,-24.51,19.17,0,5
15904.39,-0.564,0.126,0.828,4.09,-27.1,19.47,0,5
15904.406,-0.551,0.126,0.829,2.38,-30.03,19.53,0,5
15904.406,-0.535,0.129,0.829,-0.27,-31.86,19.14,0,5
15904.421,-0.528,0.128,0.828,-2.5,-32.53,18.22,0,5
15904.437,-0.529,0.118,0.828,-4.03,-32.62,17.4,0,5
15904.437,-0.523,0.115,0.829,-4.12,-32.53,16.94,0,5
15904.453,-0.52,0.118,0.831,-3.2,-31.31,16.45,0,5
15904.453,-0.523,0.115,0.834,-1.95,-29.63,16.14,0,5
15904.468,-0.522,0.117,0.844,-1.07,-28.57,15.96,0,5
15904.484,-0.515,0.125,0.848,-0.46,-27.92,15.5,0,5
15904.484,-0.507,0.137,0.855,-1.28,-27.1,15.05,0,5
15904.5,-0.506,0.145,0.862,-3.45,-26.83,14.53,0,5
15904.515,-0.502,0.15,0.87,-6.13,-27.89,14.56,0,5
15904.515,-0.5,0.151,0.879,-8.36,-29.45,15.2,0,5
15904.531,-0.499,0.147,0.882,-10.59,-31.1,15.93,0,5
15904.546,-0.493,0.142,0.884,-13.09,-32.53,16.3,0,5
15904.546,-0.491,0.131,0.886,-15.11,-34.0,16.3,0,5
15904.562,-0.478,0.117,0.885,-16.02,-35.46,16.51,0,5
15904.578,-0.462,0.12,0.881,-16.97,-36.65,16.63,0,5
15904.578,-0.452,0.118,0.878,-18.31,-36.84,16.17,0,5
15904.593,-0.445,0.115,0.883,-20.6,-36.13,15.32,0,5
15904.609,-0.453,0.115,0.891,-23.38,-35.4,13.92,0,5
15904.609,-0.457,0.104,0.897,-25.21,-35.92,12.33,0,5
15904.625,-0.449,0.105,0.901,-24.87,-37.11,11.32,0,5
15904.625,-0.444,0.109,0.902,-22.34,-38.18,10.96,0,5
15904.64,-0.443,0.106,0.906,-19.07,-38.24,11.41,0,5
15904.656,-0.442,0.099,0.907,-16.17,-37.78,12.33,0,5
15904.656,-0.442,0.089,0.912,-13.21,-37.35,13.03,0,5
15904.671,-0.436,0.087,0.912,-10.22,-37.14,12.67,0,5
15904.687,-0.428,0.091,0.91,-7.26,-37.54,11.57,0,5
15904.687,-0.425,0.096,0.91,-4.46,-37.75,10.83,0,5
15904.703,-0.405,0.107,0.907,-2.11,-38.15,10.71,0,5
15904.703,-0.4,0.115,0.909,-0.55,-37.05,10.99,0,5
15904.718,-0.398,0.107,0.913,-0.34,-35.34,11.11,0,5
15904.734,-0.393,0.101,0.916,-0.06,-34.42,11.05,0,5
15904.734,-0.392,0.096,0.917,2.26,-34.67,10.59,0,5
15904.75,-0.375,0.098,0.917,3.11,-34.58,10.01,0,5
15904.765,-0.365,0.101,0.917,3.02,-33.75,9.52,0,5
15904.765,-0.361,0.106,0.922,1.56,-33.75,8.97,0,5
15904.781,-0.362,0.112,0.932,0.03,-34.67,8.36,0,5
15904.796,-0.362,0.108,0.934,-0.85,-35.8,8.12,0,5
15904.796,-0.36,0.106,0.93,-1.01,-37.26,7.81,0,5
15904.812,-0.353,0.108,0.923,-0.18,-38.54,7.54,0,5
15904.828,-0.334,0.11,0.91,1.01,-39.34,7.51,0,5
15904.828,-0.324,0.116,0.905,2.08,-38.79,7.6,0,5
15904.843,-0.317,0.122,0.901,1.71,-37.78,7.29,0,5
15904.843,-0.308,0.122,0.899,0.49,-37.23,7.08,0,5
15904.859,-0.296,0.123,0.902,0.0,-35.83,7.39,0,5
15904.875,-0.283,0.13,0.908,0.34,-33.51,7.45,0,5
15904.875,-0.28,0.118,0.912,0.15,-31.89,6.38,0,5
15904.89,-0.282,0.088,0.929,0.06,-30.52,7.78,0,5
15904.906,-0.282,0.097,0.941,2.9,-29.69,7.63,0,5
15904.921,-0.281,0.09,0.936,5.25,-30.27,5.95,0,5
15904.921,-0.274,0.097,0.928,6.07,-32.14,3.66,0,5
15904.921,-0.263,0.105,0.913,7.54,-33.94,2.17,0,5
15904.937,-0.241,0.127,0.901,8.88,-34.64,1.71,0,5
15904.953,-0.238,0.139,0.893,8.48,-32.87,1.77,0,5
15904.953,-0.242,0.126,0.885,7.17,-31.4,1.71,0,5
15904.968,-0.231,0.132,0.886,6.38,-29.94,1.62,0,5
15904.984,-0.226,0.148,0.891,5.43,-27.56,1.07,0,5
15904.984,-0.233,0.152,0.893,3.81,-25.48,0.0,0,5
15905.0,-0.236,0.157,0.902,2.66,-24.63,-0.27,0,5
15905.015,-0.236,0.158,0.915,2.87,-25.36,0.92,0,5
15905.015,-0.235,0.153,0.917,4.97,-26.7,3.27,0,5
15905.031,-0.215,0.161,0.913,7.9,-27.62,4.43,0,5
15905.046,-0.218,0.145,0.908,10.53,-27.25,4.15,0,5
15905.046,-0.214,0.136,0.903,12.7,-26.31,4.97,0,5
15905.062,-0.202,0.153,0.891,15.11,-25.15,4.97,0,5
15905.062,-0.197,0.148,0.876,15.14,-24.11,4.82,0,5
15905.078,-0.186,0.171,0.868,12.7,-22.8,4.21,0,5
15905.093,-0.182,0.173,0.873,8.0,-21.45,4.18,0,5
15905.093,-0.18,0.178,0.889,2.23,-20.2,4.15,0,5
15905.109,-0.18,0.182,0.908,-3.3,-19.47,3.94,0,5
15905.125,-0.182,0.169,0.931,-7.54,-19.93,3.69,0,5
15905.125,-0.17,0.16,0.95,-8.79,-21.15,3.81,0,5
15905.14,-0.164,0.16,0.964,-7.11,-21.85,3.97,0,5
15905.156,-0.159,0.146,0.965,-3.69,-22.64,4.18,0,5
15905.156,-0.154,0.147,0.967,0.76,-22.71,4.58,0,5
15905.171,-0.148,0.143,0.965,5.68,-22.19,5.1,0,5
15905.187,-0.145,0.146,0.959,10.07,-21.09,5.58,0,5
15905.187,-0.15,0.148,0.953,12.39,-20.14,5.4,0,5
15905.203,-0.151,0.145,0.948,13.4,-19.9,4.76,0,5
15905.203,-0.145,0.148,0.937,13.52,-20.05,4.24,0,5
15905.218,-0.138,0.15,0.928,12.97,-19.65,3.85,0,5
15905.234,-0.14,0.152,0.92,11.54,-18.59,3.51,0,5
15905.234,-0.14,0.146,0.918,10.56,-18.49,3.11,0,5
15905.25,-0.125,0.144,0.925,10.32,-18.49,3.2,0,5
15905.265,-0.12,0.152,0.929,10.01,-17.73,3.27,0,5
15905.265,-0.121,0.161,0.929,7.51,-16.79,2.81,0,5
15905.281,-0.118,0.166,0.935,2.62,-16.05,1.59,0,5
15905.296,-0.125,0.168,0.943,-2.87,-15.81,0.79,0,5
15905.296,-0.128,0.173,0.95,-7.51,-16.72,0.12,0,5
15905.312,-0.121,0.179,0.959,-10.9,-17.43,-0.27,0,5
15905.328,-0.117,0.176,0.974,-12.15,-17.79,-0.49,0,5
15905.328,-0.12,0.17,0.986,-10.71,-17.15,-0.15,0,5
15905.343,-0.12,0.156,0.99,-6.71,-16.6,0.09,0,5
15905.343,-0.112,0.155,0.985,-0.64,-16.69,0.03,0,5
15905.359,-0.111,0.171,0.972,5.77,-16.36,-0.52,0,5
15905.375,-0.11,0.188,0.953,10.07,-15.99,-0.82,0,5
15905.39,-0.102,0.207,0.938,10.62,-15.5,-0.73,0,5
15905.39,-0.094,0.218,0.929,9.31,-15.29,-0.27,0,5
15905.406,-0.09,0.227,0.923,6.68,-14.74,0.61,0,5
15905.406,-0.084,0.233,0.93,2.47,-13.52,1.37,0,5
15905.421,-0.082,0.222,0.946,-1.74,-12.18,1.62,0,5
15905.437,-0.089,0.22,0.963,-4.76,-10.77,1.8,0,5
15905.437,-0.088,0.213,0.976,-6.1,-10.62,2.2,0,5
15905.453,-0.082,0.205,0.986,-5.19,-11.23,2.87,0,5
15905.468,-0.085,0.207,0.992,-2.93,-11.51,3.91,0,5
15905.468,-0.077,0.204,0.987,-1.19,-12.6,4.49,0,5
15905.484,-0.074,0.209,0.992,-0.55,-12.82,4.76,0,5
15905.484,-0.079,0.202,0.987,-0.67,-13.43,5.07,0,5
15905.5,-0.072,0.198,0.982,-1.19,-14.59,5.19,0,5
15905.515,-0.069,0.194,0.979,-0.73,-15.59,5.49,0,5
15905.515,-0.054,0.188,0.977,0.43,-15.99,5.86,0,5
15905.531,-0.049,0.188,0.972,1.56,-14.89,6.1,0,5
15905.546,-0.052,0.191,0.972,1.74,-13.09,5.89,0,5
15905.546,-0.054,0.192,0.98,0.95,-11.47,5.13,0,5
15905.562,-0.06,0.189,0.986,0.61,-11.14,4.61,0,5
15905.562,-0.063,0.188,0.983,1.1,-12.09,4.73,0,5
15905.578,-0.045,0.192,0.975,2.2,-13.55,5.4,0,5
15905.593,-0.033,0.211,0.975,2.01,-13.06,5.58,0,5
15905.593,-0.035,0.22,0.977,-0.82,-11.84,5.22,0,5
15905.609,-0.048,0.217,0.987,-5.04,-11.32,5.43,0,5
15905.625,-0.048,0.213,0.994,-8.42,-12.48,5.77,0,5
15905.625,-0.055,0.195,0.999,-9.28,-14.47,6.53,0,5
15905.64,-0.046,0.18,0.991,-7.97,-16.69,8.15,0,5
15905.656,-0.034,0.183,0.978,-5.49,-18.28,8.88,0,5
15905.656,-0.028,0.173,0.964,-3.42,-18.46,8.94,0,5
15905.671,-0.024,0.173,0.956,-3.48,-17.24,8.64,0,5
15905.687,-0.016,0.168,0.952,-3.66,-15.87,7.9,0,5
15905.687,-0.011,0.168,0.951,-3.39,-14.4,7.11,0,5
15905.703,-0.019,0.16,0.959,-2.62,-12.36,6.84,0,5
15905.703,-0.022,0.154,0.954,-0.98,-11.69,6.41,0,5
15905.718,-0.017,0.163,0.959,0.24,-11.17,6.13,0,5
15905.734,-0.015,0.172,0.957,0.58,-10.59,4.91,0,5
15905.734,-0.015,0.177,0.958,0.21,-10.13,5.01,0,5
15905.75,-0.016,0.182,0.968,0.4,-10.56,5.43,0,5
15905.765,-0.017,0.177,0.97,1.04,-11.23,6.16,0,5
15905.765,-0.008,0.176,0.963,1.31,-12.09,6.9,0,5
15905.781,-0.008,0.177,0.961,0.85,-12.09,7.26,0,5
15905.796,-0.011,0.171,0.95,-0.43,-12.48,6.56,0,5
15905.796,-0.001,0.172,0.94,-1.5,-13.09,5.8,0,5
15905.812,0.004,0.178,0.934,-1.89,-13.06,5.55,0,5
15905.812,0.008,0.176,0.927,-2.04,-12.39,5.83,0,5
15905.828,0.016,0.174,0.926,-2.01,-11.29,6.32,0,5
15905.843,0.013,0.179,0.94,-2.04,-8.76,6.62,0,5
15905.843,0.005,0.172,0.949,-2.41,-7.2,6.44,0,5
15905.859,0.006,0.171,0.957,-2.38,-6.81,6.2,0,5
15905.875,0.009,0.177,0.959,-1.83,-6.65,5.65,0,5
15905.875,0.009,0.179,0.965,-1.53,-6.93,5.65,0,5
15905.89,0.015,0.183,0.965,-1.22,-7.32,6.23,0,5
15905.906,0.019,0.186,0.965,-1.83,-7.39,6.68,0,5
15905.906,0.016,0.183,0.974,-3.23,-7.17,6.65,0,5
15905.921,0.012,0.181,0.982,-4.76,-7.35,6.47,0,5
15905.937,0.016,0.17,0.978,-5.1,-8.48,6.47,0,5
15905.937,0.024,0.168,0.981,-3.88,-9.13,6.59,0,5
15905.953,0.028,0.169,0.98,-2.35,-9.19,6.71,0,5
15905.953,0.033,0.169,0.971,-0.7,-9.06,6.71,0,5
15905.968,0.026,0.174,0.968,0.03,-8.15,6.53,0,5
15905.984,0.023,0.172,0.966,-0.06,-7.35,6.41,0,5
15905.984,0.035,0.164,0.962,-0.4,-6.99,6.53,0,5
15906.0,0.034,0.162,0.958,-0.85,-6.5,6.32,0,5
15906.015,0.031,0.152,0.946,-0.64,-7.26,5.77,0,5
15906.015,0.044,0.152,0.933,0.09,-8.3,5.65,0,5
15906.031,0.05,0.172,0.937,-0.4,-6.74,5.58,0,5
15906.046,0.042,0.17,0.94,-2.62,-4.7,5.1,0,5
15906.046,0.038,0.166,0.937,-5.31,-4.33,4.73,0,5
15906.062,0.039,0.164,0.943,-6.71,-4.94,5.13,0,5
15906.062,0.038,0.157,0.941,-7.05,-5.74,5.8,0,5
15906.078,0.046,0.151,0.934,-6.16,-6.47,6.04,0,5
15906.093,0.047,0.151,0.934,-4.55,-5.95,6.04,0,5
15906.093,0.047,0.146,0.929,-2.78,-4.97,6.01,0,5
15906.109,0.05,0.153,0.921,-1.95,-4.0,6.16,0,5
15906.125,0.046,0.154,0.927,-2.93,-2.38,6.04,0,5
15906.125,0.04,0.14,0.938,-4.52,-0.98,5.71,0,5
15906.14,0.037,0.13,0.941,-4.76,-0.58,5.34,0,5
15906.156,0.041,0.135,0.942,-3.85,-0.12,4.58,0,5
15906.156,0.042,0.134,0.94,-2.14,0.12,3.51,0,5
15906.171,0.044,0.143,0.932,-0.64,0.34,2.84,0,5
15906.171,0.052,0.156,0.935,0.03,1.37,2.69,0,5
15906.187,0.045,0.159,0.941,-0.67,3.05,2.87,0,5
15906.203,0.042,0.154,0.944,-1.8,3.63,2.93,0,5
15906.203,0.04,0.157,0.949,-2.78,3.6,3.14,0,5
15906.218,0.043,0.157,0.958,-3.3,3.14,3.2,0,5
15906.234,0.04,0.156,0.965,-3.27,3.48,3.51,0,5
15906.234,0.036,0.151,0.965,-3.17,3.42,3.85,0,5
15906.25,0.039,0.143,0.969,-2.62,3.33,4.06,0,5
15906.265,0.037,0.142,0.968,-1.74,3.66,3.94,0,5
15906.265,0.041,0.141,0.965,-0.92,3.57,3.51,0,5
15906.281,0.04,0.144,0.968,-0.43,4.18,3.23,0,5
15906.296,0.039,0.146,0.966,-0.79,4.58,2.84,0,5
15906.296,0.037,0.15,0.97,-1.43,4.64,2.47,0,5
15906.312,0.033,0.154,0.972,-2.08,4.3,2.04,0,5
15906.312,0.025,0.155,0.976,-2.44,4.21,1.92,0,5
15906.328,0.026,0.154,0.979,-2.53,4.3,2.32,0,5
15906.343,0.036,0.161,0.986,-2.62,4.73,2.53,0,5
15906.343,0.029,0.16,0.994,-3.08,5.62,2.69,0,5
15906.359,0.027,0.154,1.0,-3.75,5.43,2.53,0,5
15906.375,0.026,0.157,1.006,-4.06,4.97,2.53,0,5
15906.375,0.017,0.151,1.006,-3.66,3.91,2.23,0,5
15906.39,0.016,0.147,1.002,-2.56,2.69,2.38,0,5
15906.406,0.027,0.148,0.997,-1.07,1.83,2.84,0,5
15906.406,0.029,0.148,0.992,0.37,1.53,2.93,0,5
15906.421,0.031,0.147,0.989,1.37,1.77,2.99,0,5
15906.437,0.031,0.144,0.983,1.77,2.44,2.84,0,5
15906.437,0.033,0.146,0.981,1.31,3.51,2.66,0,5
15906.453,0.028,0.145,0.982,0.61,4.39,2.32,0,5
15906.453,0.029,0.148,0.989,-0.24,4.88,2.14,0,5
15906.468,0.024,0.149,0.999,-1.16,5.52,2.32,0,5
15906.484,0.014,0.145,1.002,-2.17,5.49,2.38,0,5
15906.484,0.013,0.14,1.011,-2.2,4.55,2.38,0,5
15906.5,0.013,0.141,1.011,-1.74,3.14,2.41,0,5
15906.515,0.015,0.138,1.001,-1.22,1.25,2.2,0,5
15906.515,0.02,0.135,0.999,-0.92,0.43,2.01,0,5
15906.531,0.022,0.14,0.995,-0.73,0.76,1.83,0,5
15906.546,0.017,0.136,0.985,-0.76,0.95,1.43,0,5
15906.546,0.022,0.139,0.981,-1.31,0.76,1.04,0,5
15906.562,0.021,0.147,0.983,-1.83,1.28,0.58,0,5
15906.578,0.013,0.146,0.989,-2.53,2.29,0.46,0,5
15906.578,0.009,0.143,0.994,-2.87,2.93,0.7,0,5
15906.593,0.013,0.138,0.999,-2.41,2.72,1.07,0,5
15906.593,0.016,0.133,0.994,-0.61,1.71,1.16,0,5
15906.609,0.009,0.137,0.986,1.59,0.85,1.07,0,5
15906.625,0.017,0.144,0.979,2.32,0.24,0.76,0,5
15906.625,0.014,0.152,0.972,1.46,0.37,0.7,0,5
15906.64,0.017,0.154,0.966,-0.12,0.21,0.79,0,5
15906.656,0.015,0.148,0.964,-1.62,0.31,1.31,0,5
15906.656,0.019,0.139,0.963,-2.87,0.46,1.77,0,5
15906.671,0.026,0.134,0.967,-3.23,1.01,1.59,0,5
15906.687,0.017,0.14,0.97,-3.36,2.2,0.89,0,5
15906.687,0.014,0.143,0.976,-3.78,3.3,0.09,0,5
15906.703,0.012,0.149,0.99,-3.81,4.3,0.12,0,5
15906.703,0.006,0.15,1.002,-3.69,4.33,1.04,0,5
15906.718,0.002,0.142,1.01,-2.29,3.42,1.13,0,5
15906.734,-0.002,0.128,1.018,0.15,2.17,1.1,0,5
15906.734,-0.006,0.129,1.017,2.14,0.7,0.46,0,5
15906.75,-0.004,0.147,1.004,2.99,0.03,-0.27,0,5
15906.765,-0.005,0.154,0.999,2.72,-0.15,-0.7,0,5
15906.765,-0.005,0.159,0.997,1.8,-0.4,-0.64,0,5
15906.781,-0.005,0.162,0.997,0.82,-0.43,-0.31,0,5
15906.796,-0.004,0.16,0.995,-0.15,0.18,0.12,0,5
15906.796,-0.008,0.16,0.989,-0.52,0.76,0.03,0,5
15906.812,-0.012,0.17,0.985,-1.37,0.85,-0.06,0,5
15906.812,-0.007,0.184,0.988,-3.2,0.85,0.4,0,5
15906.828,-0.005,0.186,0.998,-5.34,1.04,1.53,0,5
15906.843,-0.009,0.172,1.007,-7.26,0.95,2.9,0,5
15906.843,-0.006,0.152,1.019,-8.67,0.21,4.15,0,5
15906.859,-0.004,0.132,1.02,-8.27,-0.85,4.61,0,5
15906.875,0.0,0.12,1.012,-6.93,-1.86,4.3,0,5
15906.875,0.007,0.115,1.005,-5.77,-2.56,3.72,0,5
15906.89,0.013,0.118,0.998,-5.52,-2.72,2.87,0,5
15906.906,0.013,0.117,0.995,-5.49,-2.26,2.23,0,5
15906.906,0.016,0.116,1.0,-5.58,-1.71,1.74,0,5
15906.921,0.016,0.108,1.001,-4.52,-1.28,1.71,0,5
15906.921,0.017,0.099,1.0,-2.08,-0.98,1.43,0,5
15906.937,0.02,0.1,0.996,0.79,-0.55,0.76,0,5
15906.953,0.018,0.105,0.991,2.9,0.31,0.0,0,5
15906.953,0.016,0.115,0.99,3.63,1.16,-0.73,0,5
15906.968,0.008,0.13,0.988,2.87,1.62,-1.1,0,5
15906.984,0.002,0.137,0.998,0.92,1.5,-1.07,0,5
15906.984,-0.001,0.136,1.009,-0.52,0.7,-0.85,0,5
15907.0,-0.002,0.131,1.011,0.0,-0.67,-0.55,0,5
15907.015,0.001,0.127,1.002,2.26,-2.04,-0.24,0,5
15907.015,0.008,0.136,0.989,4.3,-2.62,-0.03,0,5
15907.031,0.007,0.141,0.976,4.97,-2.01,-0.15,0,5
15907.031,0.006,0.14,0.969,3.88,-1.13,-0.21,0,5
15907.046,0.002,0.142,0.97,2.01,-0.06,-0.09,0,5
15907.062,-0.001,0.137,0.974,0.55,0.64,0.18,0,5
15907.078,0.0,0.136,0.978,-0.52,1.16,0.21,0,5
15907.078,0.003,0.138,0.983,-1.16,1.59,-0.15,0,5
15907.093,0.001,0.141,0.987,-1.77,1.92,-0.18,0,5
15907.093,0.001,0.14,0.991,-2.29,1.86,0.21,0,5
15907.109,0.001,0.136,0.997,-2.29,1.31,0.92,0,5
15907.125,0.001,0.134,0.999,-1.77,0.18,1.31,0,5
15907.125,0.006,0.131,0.996,-1.34,-1.1,1.34,0,5
15907.14,0.013,0.126,0.987,-0.95,-2.01,1.56,0,5
15907.156,0.015,0.131,0.984,-1.31,-2.11,1.46,0,5
15907.156,0.011,0.129,0.985,-2.35,-1.5,0.98,0,5
15907.171,0.01,0.126,0.993,-3.39,-0.52,0.73,0,5
15907.187,0.016,0.123,1.01,-3.85,0.73,0.73,0,5
15907.187,0.014,0.114,1.021,-2.96,1.46,0.58,0,5
15907.203,0.012,0.109,1.023,-0.46,0.85,0.15,0,5
15907.203,0.01,0.119,1.017,2.23,-0.4,-0.49,0,5
15907.218,0.007,0.127,1.006,3.91,-1.86,-1.01,0,5
15907.234,0.004,0.132,0.994,4.39,-2.87,-1.07,0,5
15907.234,0.007,0.141,0.983,4.15,-3.36,-0.67,0,5
