timestamp,ax,ay,az,gx,gy,gz,orient_label,motion_label
15879.781,0.115,-0.008,1.001,3.6,-5.55,3.05,0,5
15879.796,0.12,-0.014,1.002,4.27,-4.79,2.47,0,5
15879.796,0.112,-0.018,0.995,5.37,-3.3,1.68,0,5
15879.812,0.105,-0.014,0.997,5.86,-2.08,1.1,0,5
15879.812,0.096,-0.013,0.995,5.68,-1.68,0.67,0,5
15879.828,0.096,-0.013,0.992,4.76,-2.44,0.67,0,5
15879.843,0.105,-0.012,0.992,3.23,-3.36,0.79,0,5
15879.843,0.113,-0.011,0.985,0.67,-3.54,0.61,0,5
15879.859,0.122,-0.017,0.983,-2.75,-3.05,0.15,0,5
15879.875,0.116,-0.016,0.996,-5.58,-1.65,-0.82,0,5
15879.875,0.107,-0.017,1.005,-6.53,-1.07,-2.04,0,5
15879.89,0.098,-0.015,1.013,-4.94,-1.19,-2.9,0,5
15879.906,0.097,-0.009,1.011,-1.4,-2.2,-3.02,0,5
15879.906,0.105,-0.002,1.005,1.83,-2.66,-2.69,0,5
15879.921,0.109,0.007,1.003,3.36,-2.35,-2.2,0,5
15879.921,0.105,0.012,0.999,2.59,-1.89,-1.77,0,5
15879.937,0.102,0.017,1.002,-0.49,-2.01,-1.89,0,5
15879.953,0.092,0.0,0.996,-4.06,-4.85,-2.38,0,5
15879.968,0.104,0.005,0.977,-2.5,-6.16,-2.38,0,5
15879.984,0.112,0.004,0.964,-0.06,-5.95,-1.98,0,5
15879.984,0.122,0.007,0.96,1.46,-4.03,-1.31,0,5
15880.0,0.122,0.007,0.959,1.4,-1.22,-1.07,0,5
15880.015,0.115,0.01,0.966,-0.24,0.76,-1.34,0,5
15880.015,0.11,0.007,0.981,-2.93,1.34,-2.04,0,5
15880.031,0.105,-0.003,0.99,-4.12,1.04,-2.23,0,5
15880.031,0.104,-0.002,0.991,-3.72,-0.06,-1.98,0,5
15880.046,0.11,0.001,0.982,-2.87,-1.25,-1.86,0,5
15880.062,0.101,0.007,0.972,-1.89,-2.04,-2.38,0,5
15880.062,0.099,0.006,0.965,-1.65,-2.78,-2.23,0,5
15880.078,0.11,0.007,0.954,-1.74,-3.33,-2.01,0,5
15880.093,0.12,0.013,0.936,-1.34,-3.39,-1.95,0,5
15880.093,0.123,0.013,0.932,-2.01,-2.2,-1.43,0,5
15880.109,0.121,0.013,0.936,-3.45,-0.18,-1.28,0,5
15880.125,0.101,0.01,0.955,-3.88,2.75,-0.98,0,5
15880.14,0.098,0.009,0.964,-2.47,2.66,-0.21,0,5
15880.14,0.098,0.0,0.97,-0.55,2.14,0.73,0,5
15880.156,0.098,-0.006,0.967,1.68,1.13,1.37,0,5
15880.171,0.096,-0.012,0.964,5.4,-0.67,1.65,0,5
15880.171,0.092,-0.015,0.958,8.79,-0.98,1.28,0,5
15880.187,0.076,-0.016,0.956,14.83,-0.31,1.34,0,5
15880.203,0.058,-0.011,0.964,25.42,1.28,1.22,0,5
15880.203,0.013,-0.015,1.007,41.44,1.56,1.59,0,5
15880.218,-0.024,-0.004,1.015,64.42,0.89,2.29,0,5
15880.234,-0.055,0.031,1.017,90.91,-1.22,3.42,0,5
15880.234,-0.05,0.077,0.954,113.8,-8.0,5.1,0,5
15880.25,-0.015,0.158,0.885,129.22,-15.66,8.67,0,5
15880.265,0.002,0.196,0.822,139.84,-21.79,12.85,0,5
15880.265,-0.016,0.228,0.76,145.76,-25.61,17.91,0,5
15880.281,-0.025,0.252,0.714,146.09,-26.03,25.24,0,5
15880.296,-0.071,0.241,0.69,139.53,-15.99,41.47,0,5
15880.312,-0.11,0.217,0.676,139.74,-10.01,47.85,0,5
15880.312,-0.122,0.203,0.651,142.09,-5.22,52.74,0,5
15880.328,-0.138,0.204,0.624,144.75,-0.98,56.28,0,5
15880.343,-0.141,0.205,0.58,146.58,2.75,58.69,0,5
15880.359,-0.13,0.224,0.542,143.71,7.45,61.98,0,5
15880.359,-0.137,0.212,0.504,134.53,12.45,64.27,0,5
15880.375,-0.147,0.222,0.501,120.21,16.57,65.83,0,5
15880.375,-0.131,0.189,0.496,108.22,20.66,68.54,0,5
15880.39,-0.133,0.181,0.499,95.8,24.78,68.27,0,5
15880.406,-0.131,0.168,0.513,83.74,28.29,64.88,0,5
15880.406,-0.093,0.121,0.513,76.17,30.06,60.15,0,5
15880.421,-0.07,0.105,0.509,74.43,32.99,54.72,0,5
15880.437,-0.033,0.106,0.495,75.2,35.37,48.65,0,5
15880.437,0.004,0.114,0.467,73.85,38.27,43.12,0,5
15880.453,0.014,0.116,0.451,68.7,42.97,37.23,0,5
15880.468,0.027,0.083,0.488,58.57,57.16,19.07,0,5
15880.484,0.048,0.076,0.51,59.27,65.0,6.99,0,5
15880.5,0.106,0.096,0.52,61.22,70.86,-3.78,0,5
15880.5,0.137,0.132,0.531,61.04,76.08,-12.57,0,5
15880.515,0.136,0.156,0.545,58.32,80.42,-20.48,0,5
15880.515,0.125,0.17,0.556,54.05,83.93,-28.47,0,5
15880.531,0.105,0.184,0.595,49.13,87.98,-37.81,0,5
15880.546,0.078,0.203,0.649,45.78,92.23,-49.62,0,5
15880.546,0.064,0.235,0.692,46.48,95.8,-62.96,0,5
15880.562,0.074,0.285,0.717,50.66,98.42,-74.56,0,5
15880.578,0.066,0.359,0.735,56.09,101.29,-82.98,0,5
15880.578,0.044,0.418,0.757,60.03,103.89,-88.11,0,5
15880.593,0.009,0.46,0.788,62.32,105.26,-91.22,0,5
15880.593,-0.031,0.516,0.811,64.42,106.14,-94.21,0,5
15880.609,-0.062,0.598,0.83,67.48,106.75,-97.45,0,5
15880.625,-0.085,0.652,0.861,71.29,108.65,-100.22,0,5
15880.64,-0.121,0.781,0.889,70.07,107.43,-104.07,0,5
15880.656,-0.125,0.835,0.889,63.97,102.69,-103.85,0,5
15880.656,-0.139,0.87,0.89,57.74,98.97,-102.3,0,5
15880.671,-0.164,0.912,0.9,50.72,97.45,-99.06,0,5
15880.687,-0.198,0.954,0.929,43.61,98.7,-95.37,0,5
15880.687,-0.245,0.984,0.968,35.86,101.72,-91.43,0,5
15880.703,-0.277,0.993,1.018,27.83,103.76,-87.71,0,5
15880.703,-0.286,1.002,1.046,21.94,101.57,-84.41,0,5
15880.718,-0.304,1.024,1.051,17.88,96.01,-81.21,0,5
15880.734,-0.357,1.026,1.059,14.56,88.56,-77.76,0,5
15880.75,-0.398,1.036,1.071,11.75,80.02,-72.91,0,5
15880.75,-0.429,1.064,1.069,9.22,72.6,-68.15,0,5
15880.765,-0.458,1.074,1.059,5.37,66.81,-63.57,0,5
15880.765,-0.479,1.067,1.052,0.82,62.26,-57.56,0,5
15880.781,-0.498,1.041,1.038,-4.06,57.83,-49.75,0,5
15880.796,-0.511,0.997,1.016,-8.85,52.13,-41.11,0,5
15880.796,-0.521,0.94,0.98,-12.94,45.05,-33.2,0,5
15880.812,-0.528,0.877,0.937,-15.08,37.42,-27.56,0,5
15880.812,-0.52,0.81,0.891,-15.59,30.27,-23.87,0,5
15880.828,-0.507,0.747,0.846,-16.14,24.29,-21.45,0,5
15880.843,-0.49,0.704,0.801,-17.15,19.44,-19.87,0,5
15880.859,-0.492,0.674,0.767,-19.01,16.6,-18.86,0,5
15880.859,-0.505,0.641,0.754,-21.94,15.81,-17.85,0,5
15880.875,-0.519,0.614,0.751,-26.25,15.5,-16.42,0,5
15880.875,-0.535,0.604,0.75,-31.83,14.44,-14.98,0,5
15880.89,-0.547,0.584,0.752,-38.36,12.33,-14.04,0,5
15880.906,-0.554,0.555,0.758,-43.89,10.07,-13.67,0,5
15880.906,-0.564,0.529,0.768,-45.32,8.67,-13.82,0,5
15880.921,-0.578,0.502,0.772,-40.86,8.36,-14.01,0,5
15880.921,-0.595,0.492,0.771,-31.59,9.16,-14.4,0,5
15880.937,-0.614,0.51,0.764,-20.51,10.53,-14.16,0,5
15880.953,-0.63,0.524,0.752,-11.35,11.87,-12.85,0,5
15880.953,-0.643,0.536,0.743,-6.62,12.57,-11.11,0,5
15880.968,-0.653,0.553,0.737,-7.23,12.27,-8.88,0,5
15880.984,-0.659,0.558,0.747,-12.51,10.16,-7.14,0,5
15880.984,-0.665,0.554,0.759,-18.77,6.62,-6.35,0,5
15881.0,-0.671,0.546,0.769,-22.37,3.85,-5.68,0,5
15881.015,-0.667,0.527,0.777,-21.88,2.38,-5.22,0,5
15881.015,-0.665,0.512,0.786,-16.36,1.65,-5.07,0,5
15881.031,-0.658,0.508,0.777,-6.78,1.68,-5.01,0,5
15881.031,-0.656,0.516,0.771,1.25,2.23,-4.49,0,5
15881.046,-0.653,0.532,0.769,5.65,2.11,-4.33,0,5
15881.062,-0.651,0.546,0.756,9.16,1.89,-4.49,0,5
15881.062,-0.659,0.567,0.737,11.84,1.77,-4.12,0,5
15881.078,-0.663,0.586,0.706,10.13,1.46,-2.84,0,5
15881.093,-0.666,0.591,0.683,1.92,1.01,-1.16,0,5
15881.109,-0.664,0.583,0.681,-7.45,1.43,0.49,0,5
15881.109,-0.658,0.577,0.693,-12.33,3.72,2.47,0,5
15881.125,-0.659,0.575,0.709,-11.29,6.93,5.37,0,5
15881.125,-0.65,0.562,0.716,-7.14,9.55,8.91,0,5
15881.14,-0.642,0.552,0.718,-2.81,11.38,11.63,0,5
15881.156,-0.64,0.542,0.727,0.18,11.57,13.18,0,5
15881.156,-0.632,0.533,0.73,-1.8,6.13,13.79,0,5
15881.171,-0.613,0.522,0.719,-5.74,3.11,12.88,0,5
15881.187,-0.599,0.504,0.71,-9.49,1.13,11.2,0,5
15881.187,-0.568,0.488,0.715,-11.69,-0.49,9.46,0,5
15881.203,-0.557,0.478,0.709,-11.41,-2.01,7.39,0,5
15881.203,-0.555,0.477,0.708,-10.25,-2.44,5.25,0,5
15881.218,-0.553,0.481,0.71,-8.61,-2.17,3.33,0,5
15881.234,-0.557,0.486,0.71,-6.87,-1.95,2.04,0,5
15881.234,-0.563,0.493,0.711,-6.13,-2.62,0.85,0,5
15881.25,-0.568,0.497,0.712,-7.26,-3.97,0.64,0,5
15881.265,-0.563,0.494,0.711,-9.61,-6.07,0.67,0,5
15881.265,-0.553,0.483,0.709,-10.77,-8.36,0.49,0,5
15881.281,-0.538,0.462,0.71,-9.43,-10.13,0.09,0,5
15881.281,-0.528,0.445,0.7,-5.86,-10.93,-1.04,0,5
15881.296,-0.521,0.439,0.686,-1.68,-11.38,-2.47,0,5
15881.312,-0.511,0.433,0.675,2.99,-10.99,-4.12,0,5
15881.312,-0.509,0.441,0.667,7.29,-9.34,-6.47,0,5
15881.328,-0.513,0.452,0.655,11.17,-6.99,-8.85,0,5
15881.343,-0.519,0.461,0.644,12.85,-4.64,-10.68,0,5
15881.343,-0.526,0.465,0.641,12.39,-3.05,-11.72,0,5
15881.359,-0.529,0.465,0.641,11.23,-2.29,-12.42,0,5
15881.375,-0.534,0.466,0.641,10.07,-1.65,-12.73,0,5
15881.375,-0.533,0.463,0.641,9.7,-1.25,-12.88,0,5
15881.39,-0.532,0.461,0.637,9.55,-0.55,-13.28,0,5
15881.406,-0.535,0.456,0.643,10.22,0.73,-13.92,0,5
15881.406,-0.552,0.46,0.652,12.27,2.41,-14.86,0,5
15881.421,-0.558,0.485,0.652,14.5,2.72,-13.95,0,5
15881.421,-0.55,0.486,0.644,16.45,2.62,-12.85,0,5
15881.437,-0.557,0.496,0.643,16.36,2.78,-12.67,0,5
15881.453,-0.555,0.498,0.643,15.41,2.44,-11.84,0,5
15881.468,-0.552,0.488,0.642,14.44,2.11,-10.8,0,5
15881.468,-0.55,0.488,0.643,13.31,1.31,-9.67,0,5
15881.484,-0.55,0.495,0.642,11.84,0.34,-9.0,0,5
15881.484,-0.548,0.5,0.638,9.19,-0.64,-8.79,0,5
15881.5,-0.547,0.501,0.64,5.16,-1.46,-9.34,0,5
15881.515,-0.55,0.495,0.644,2.04,-1.77,-9.86,0,5
15881.515,-0.553,0.488,0.645,0.85,-1.43,-9.52,0,5
15881.531,-0.552,0.485,0.646,0.95,-0.52,-8.64,0,5
15881.546,-0.555,0.485,0.657,1.34,0.09,-7.69,0,5
15881.546,-0.561,0.49,0.668,1.86,0.09,-6.65,0,5
15881.562,-0.573,0.496,0.671,2.9,-0.4,-5.49,0,5
15881.562,-0.579,0.497,0.669,3.3,-1.13,-4.49,0,5
15881.578,-0.585,0.499,0.666,2.93,-2.2,-3.78,0,5
15881.593,-0.587,0.498,0.665,2.08,-3.78,-2.78,0,5
15881.593,-0.579,0.494,0.658,-0.27,-6.13,-1.86,0,5
15881.609,-0.566,0.48,0.651,-3.57,-8.12,-1.62,0,5
15881.625,-0.555,0.457,0.648,-6.04,-9.09,-1.71,0,5
15881.625,-0.55,0.445,0.645,-7.42,-8.76,-2.29,0,5
15881.64,-0.553,0.443,0.649,-7.87,-8.55,-3.54,0,5
15881.656,-0.571,0.457,0.668,-6.99,-9.89,-5.22,0,5
15881.671,-0.576,0.464,0.679,-6.99,-11.99,-4.82,0,5
15881.687,-0.575,0.464,0.688,-6.68,-14.59,-4.3,0,5
15881.687,-0.583,0.473,0.694,-6.2,-17.27,-4.03,0,5
15881.703,-0.584,0.487,0.705,-7.45,-20.78,-3.51,0,5
15881.703,-0.579,0.487,0.719,-8.3,-24.14,-2.23,0,5
15881.718,-0.538,0.45,0.701,-4.94,-25.51,1.8,0,5
15881.734,-0.517,0.422,0.674,0.18,-22.83,5.22,0,5
15881.75,-0.585,0.468,0.692,1.62,-19.87,6.01,0,5
15881.75,-0.554,0.525,0.739,-5.37,-22.06,7.45,0,5
15881.765,-0.54,0.49,0.75,-9.19,-25.15,7.66,0,5
15881.765,-0.548,0.469,0.741,-11.87,-27.22,6.5,0,5
15881.781,-0.526,0.484,0.731,-14.71,-27.89,4.67,0,5
15881.796,-0.524,0.49,0.709,-14.07,-25.61,2.23,0,5
15881.796,-0.541,0.493,0.716,-11.14,-21.76,1.22,0,5
15881.812,-0.546,0.477,0.722,-6.41,-19.62,1.01,0,5
15881.828,-0.538,0.443,0.698,7.39,-17.49,0.06,0,5
15881.843,-0.525,0.432,0.685,12.51,-17.18,-1.16,0,5
15881.843,-0.523,0.443,0.677,14.65,-16.66,-2.53,0,5
15881.859,-0.513,0.453,0.67,13.92,-15.99,-3.45,0,5
15881.875,-0.512,0.462,0.665,11.57,-14.44,-3.94,0,5
15881.875,-0.508,0.465,0.663,8.24,-12.91,-4.03,0,5
15881.89,-0.509,0.466,0.67,4.21,-11.78,-4.03,0,5
15881.906,-0.548,0.491,0.698,-0.73,-11.63,-4.24,0,5
15881.906,-0.482,0.514,0.686,-6.59,-13.79,-2.53,0,5
15881.921,-0.444,0.428,0.634,-5.01,-11.32,-3.54,0,5
15881.937,-0.497,0.431,0.645,-2.26,-4.88,-6.16,0,5
15881.937,-0.485,0.479,0.673,-1.13,-2.14,-5.95,0,5
15881.953,-0.499,0.476,0.673,2.29,-0.82,-4.58,0,5
15881.953,-0.501,0.47,0.672,2.59,0.0,-2.2,0,5
15881.968,-0.485,0.476,0.674,0.0,0.67,-0.79,0,5
15881.984,-0.487,0.469,0.68,-2.81,2.23,-0.89,0,5
15882.0,-0.502,0.46,0.708,-6.71,4.15,-1.74,0,5
15882.015,-0.51,0.465,0.719,-6.62,4.3,-1.83,0,5
15882.015,-0.519,0.469,0.737,-6.01,3.66,-1.46,0,5
15882.031,-0.516,0.467,0.743,-5.8,1.59,-1.13,0,5
15882.046,-0.507,0.458,0.734,-5.4,0.15,-0.7,0,5
15882.046,-0.506,0.449,0.731,-4.94,-0.27,-0.67,0,5
15882.062,-0.509,0.443,0.728,-4.3,-0.58,-1.25,0,5
15882.062,-0.504,0.44,0.719,-2.62,-0.46,-2.01,0,5
15882.078,-0.498,0.443,0.705,-0.76,0.34,-2.62,0,5
15882.093,-0.504,0.454,0.704,-0.21,1.71,-2.96,0,5
15882.093,-0.513,0.46,0.708,-0.61,2.75,-2.53,0,5
15882.109,-0.521,0.459,0.713,-1.65,2.72,-1.77,0,5
15882.125,-0.521,0.458,0.714,-2.66,1.98,-1.16,0,5
15882.125,-0.521,0.452,0.718,-2.78,1.16,-0.52,0,5
15882.14,-0.523,0.452,0.723,-2.87,-0.92,0.34,0,5
15882.156,-0.52,0.453,0.725,-3.48,-2.2,0.55,0,5
15882.171,-0.506,0.448,0.716,-4.06,-3.57,-0.03,0,5
15882.171,-0.493,0.425,0.705,-4.03,-3.14,-1.01,0,5
15882.187,-0.496,0.404,0.745,-8.03,-3.97,-4.52,0,5
15882.203,-0.505,0.429,0.762,-9.95,-6.01,-5.8,0,5
15882.203,-0.505,0.401,0.736,-1.95,-5.25,-2.93,0,5
15882.218,-0.498,0.409,0.719,4.3,-3.85,-0.34,0,5
15882.234,-0.487,0.423,0.719,7.32,-2.99,-0.24,0,5
15882.234,-0.496,0.429,0.719,9.09,-2.62,-1.95,0,5
15882.25,-0.501,0.439,0.709,9.7,-3.14,-2.81,0,5
15882.265,-0.5,0.455,0.704,8.88,-3.39,-2.93,0,5
15882.281,-0.503,0.47,0.699,6.56,-3.17,-2.84,0,5
15882.281,-0.504,0.472,0.701,3.33,-2.87,-2.44,0,5
15882.281,-0.508,0.473,0.702,0.46,-2.53,-1.86,0,5
15882.296,-0.507,0.471,0.703,-1.1,-2.2,-0.85,0,5
15882.312,-0.506,0.464,0.703,-1.92,-1.74,-0.4,0,5
15882.312,-0.506,0.461,0.707,-2.29,-1.46,-0.7,0,5
15882.328,-0.511,0.462,0.714,-1.86,-0.98,-1.19,0,5
15882.343,-0.515,0.466,0.719,-1.22,-0.89,-1.5,0,5
15882.343,-0.511,0.467,0.72,-0.89,-1.04,-1.28,0,5
15882.359,-0.509,0.467,0.721,-0.52,-1.01,-0.7,0,5
15882.375,-0.515,0.464,0.723,-0.12,-1.07,-0.24,0,5
15882.39,-0.514,0.461,0.722,0.37,-1.59,0.21,0,5
15882.39,-0.512,0.459,0.718,1.01,-2.26,0.67,0,5
15882.406,-0.507,0.456,0.71,1.28,-3.11,0.58,0,5
15882.406,-0.504,0.45,0.705,0.82,-3.66,-0.06,0,5
15882.421,-0.501,0.45,0.699,0.31,-3.72,-0.67,0,5
15882.421,-0.496,0.448,0.693,-0.15,-3.14,-1.1,0,5
15882.437,-0.495,0.442,0.689,-0.55,-2.14,-1.31,0,5
15882.453,-0.495,0.439,0.687,-0.55,-0.73,-1.53,0,5
15882.453,-0.495,0.44,0.691,0.15,0.92,-2.04,0,5
15882.468,-0.498,0.443,0.696,0.95,2.2,-2.47,0,5
15882.484,-0.501,0.449,0.699,1.92,2.9,-2.5,0,5
15882.484,-0.509,0.459,0.705,2.59,3.3,-2.2,0,5
15882.5,-0.52,0.467,0.713,2.44,2.59,-1.65,0,5
15882.515,-0.518,0.469,0.709,1.62,1.22,-1.16,0,5
15882.515,-0.512,0.47,0.705,0.55,0.06,-0.98,0,5
15882.531,-0.511,0.465,0.699,-0.09,-0.61,-0.76,0,5
15882.531,-0.507,0.461,0.7,-0.49,-0.79,-0.49,0,5
15882.546,-0.508,0.462,0.703,-0.73,-0.49,-0.21,0,5
15882.562,-0.508,0.46,0.705,-0.82,0.0,-0.09,0,5
15882.562,-0.506,0.456,0.705,-0.95,0.52,0.15,0,5
15882.578,-0.503,0.451,0.704,-1.01,1.28,0.18,0,5
15882.593,-0.502,0.445,0.705,-0.67,2.26,0.0,0,5
15882.593,-0.506,0.444,0.707,-0.03,3.54,-0.43,0,5
15882.609,-0.51,0.445,0.708,0.7,4.36,-0.7,0,5
15882.625,-0.516,0.442,0.71,1.46,4.39,-0.85,0,5
15882.625,-0.521,0.444,0.714,1.77,4.0,-1.04,0,5
15882.64,-0.524,0.449,0.72,2.08,2.78,-1.07,0,5
15882.656,-0.524,0.454,0.719,2.17,1.31,-1.07,0,5
15882.656,-0.521,0.457,0.717,1.22,0.12,-0.95,0,5
15882.671,-0.517,0.455,0.718,-0.34,-0.73,-0.64,0,5
15882.671,-0.514,0.453,0.718,-1.5,-1.07,-0.49,0,5
15882.687,-0.512,0.448,0.718,-2.17,-1.4,-0.15,0,5
15882.703,-0.509,0.442,0.716,-2.38,-1.53,0.03,0,5
15882.703,-0.505,0.441,0.717,-1.86,-1.13,0.06,0,5
15882.718,-0.501,0.436,0.721,-0.46,-0.49,0.18,0,5
15882.734,-0.501,0.435,0.726,0.95,-0.06,0.24,0,5
15882.734,-0.5,0.448,0.709,3.48,0.4,0.7,0,5
15882.75,-0.505,0.419,0.709,6.59,2.11,0.89,0,5
15882.765,-0.499,0.456,0.725,3.48,0.95,-0.79,0,5
15882.765,-0.503,0.445,0.712,3.88,0.64,-1.31,0,5
15882.781,-0.511,0.453,0.705,2.81,0.76,-0.76,0,5
15882.796,-0.504,0.469,0.715,0.67,1.01,0.0,0,5
15882.796,-0.511,0.458,0.718,-0.58,1.4,0.12,0,5
15882.812,-0.516,0.448,0.725,-1.34,1.28,0.18,0,5
15882.828,-0.516,0.442,0.73,-1.13,0.31,0.31,0,5
15882.828,-0.514,0.433,0.73,-0.21,-0.92,-0.03,0,5
15882.843,-0.511,0.43,0.726,1.43,-2.01,-0.79,0,5
15882.859,-0.512,0.447,0.709,4.73,-2.14,-1.77,0,5
15882.875,-0.51,0.455,0.703,4.85,-2.08,-1.71,0,5
15882.875,-0.508,0.46,0.698,3.78,-1.8,-1.22,0,5
15882.89,-0.507,0.461,0.694,2.08,-1.1,-0.85,0,5
15882.906,-0.508,0.462,0.694,0.24,-0.27,-0.55,0,5
15882.906,-0.509,0.46,0.7,-1.19,0.49,-0.15,0,5
15882.921,-0.513,0.461,0.707,-1.62,1.22,0.0,0,5
15882.921,-0.521,0.464,0.717,-1.62,1.13,-0.06,0,5
15882.937,-0.528,0.464,0.723,-1.19,0.31,0.03,0,5
15882.953,-0.521,0.458,0.721,-0.31,-0.92,0.4,0,5
15882.953,-0.52,0.455,0.714,0.46,-1.65,0.27,0,5
15882.968,-0.519,0.454,0.704,0.82,-1.95,-0.03,0,5
15882.984,-0.518,0.452,0.699,0.37,-2.08,0.15,0,5
15882.984,-0.519,0.455,0.7,-0.67,-1.95,0.15,0,5
15883.0,-0.516,0.453,0.7,-1.5,-2.35,0.15,0,5
15883.015,-0.514,0.451,0.7,-1.83,-2.56,0.15,0,5
15883.031,-0.509,0.436,0.712,-1.22,-2.84,-0.92,0,5
15883.031,-0.508,0.438,0.707,-0.12,-3.45,-1.98,0,5
15883.046,-0.497,0.451,0.701,1.5,-2.59,-1.31,0,5
15883.062,-0.502,0.448,0.704,2.53,-1.22,-1.56,0,5
15883.062,-0.512,0.461,0.705,2.04,-0.64,-1.86,0,5
15883.078,-0.515,0.472,0.706,0.89,-0.76,-1.4,0,5
15883.093,-0.514,0.465,0.705,-0.31,-0.95,-0.61,0,5
15883.093,-0.515,0.457,0.704,-1.04,-0.85,-0.21,0,5
15883.109,-0.519,0.454,0.707,-1.28,-1.16,-0.27,0,5
15883.125,-0.517,0.45,0.707,-0.55,-3.02,-0.67,0,5
15883.125,-0.513,0.445,0.704,0.0,-3.23,-0.92,0,5
15883.14,-0.507,0.443,0.701,0.31,-2.66,-1.4,0,5
15883.14,-0.506,0.45,0.702,-0.03,-2.11,-1.77,0,5
15883.156,-0.513,0.459,0.716,-0.58,-2.29,-1.95,0,5
15883.171,-0.511,0.466,0.717,-0.79,-2.2,-1.25,0,5
15883.171,-0.509,0.46,0.719,-0.7,-1.77,-0.7,0,5
15883.187,-0.509,0.452,0.721,-0.46,-1.5,-0.7,0,5
15883.203,-0.512,0.451,0.72,0.21,-1.07,-0.85,0,5
15883.203,-0.509,0.45,0.72,0.58,-1.28,-0.92,0,5
15883.218,-0.509,0.444,0.718,1.16,-1.89,-1.1,0,5
15883.234,-0.512,0.443,0.712,2.08,-2.2,-1.22,0,5
15883.234,-0.517,0.45,0.723,2.5,-2.38,-1.34,0,5
15883.25,-0.52,0.445,0.724,1.98,-3.97,-1.59,0,5
15883.265,-0.513,0.454,0.714,0.79,-5.65,-1.77,0,5
15883.265,-0.511,0.447,0.709,0.15,-5.4,-1.5,0,5
15883.281,-0.518,0.44,0.731,-2.56,-6.41,-2.26,0,5
15883.296,-0.501,0.459,0.745,-7.02,-9.28,-2.72,0,5
15883.296,-0.503,0.414,0.716,-5.13,-10.04,-3.17,0,5
15883.312,-0.499,0.408,0.704,-2.99,-9.43,-3.48,0,5
15883.312,-0.488,0.42,0.704,-0.31,-8.18,-3.91,0,5
15883.328,-0.489,0.409,0.693,3.72,-6.41,-5.04,0,5
15883.343,-0.489,0.408,0.68,6.38,-4.36,-5.71,0,5
15883.343,-0.488,0.414,0.666,8.0,-2.01,-6.01,0,5
15883.359,-0.486,0.414,0.655,8.88,0.67,-5.95,0,5
15883.375,-0.489,0.411,0.649,9.43,3.48,-6.16,0,5
15883.375,-0.51,0.421,0.658,10.74,6.07,-6.47,0,5
15883.39,-0.536,0.467,0.68,10.93,7.35,-4.18,0,5
15883.406,-0.524,0.492,0.686,7.57,5.62,-1.1,0,5
15883.406,-0.524,0.491,0.696,1.37,3.72,-0.64,0,5
15883.421,-0.536,0.508,0.71,-5.4,2.93,-0.31,0,5
15883.437,-0.535,0.512,0.72,-10.65,2.29,1.31,0,5
15883.437,-0.511,0.492,0.711,-13.79,2.26,2.44,0,5
15883.453,-0.441,0.424,0.66,-14.65,5.19,0.85,0,5
15883.453,-0.555,0.462,0.725,-10.44,12.82,-2.84,0,5
15883.468,-0.606,0.517,0.804,-5.43,11.35,2.2,0,5
15883.484,-0.533,0.522,0.779,-8.48,1.22,4.76,0,5
15883.484,-0.528,0.474,0.736,-12.91,-3.36,2.9,0,5
15883.5,-0.51,0.444,0.726,-14.77,-3.2,2.14,0,5
15883.515,-0.503,0.429,0.719,-12.05,-1.43,1.71,0,5
15883.515,-0.512,0.426,0.725,-8.09,0.7,0.95,0,5
15883.531,-0.523,0.437,0.732,-4.27,1.5,0.4,0,5
15883.546,-0.528,0.449,0.737,-1.95,0.49,0.0,0,5
15883.546,-0.535,0.458,0.737,-1.8,-1.53,-0.15,0,5
15883.562,-0.531,0.462,0.73,-2.32,-3.42,0.03,0,5
15883.562,-0.531,0.457,0.724,-2.35,-4.61,0.15,0,5
15883.578,-0.529,0.448,0.72,-1.89,-5.65,0.06,0,5
15883.593,-0.535,0.45,0.723,-0.73,-6.38,-0.09,0,5
15883.593,-0.54,0.454,0.729,0.61,-7.93,0.09,0,5
15883.609,-0.577,0.484,0.75,1.04,-11.02,0.64,0,5
15883.625,-0.497,0.449,0.697,-1.74,-15.81,1.8,0,5
15883.625,-0.46,0.414,0.659,-3.45,-13.76,-1.56,0,5
15883.64,-0.505,0.4,0.669,0.09,-7.08,-3.14,0,5
15883.656,-0.487,0.42,0.678,2.44,-4.09,-2.47,0,5
15883.656,-0.49,0.421,0.678,3.23,-1.95,-2.87,0,5
15883.671,-0.501,0.423,0.687,1.31,-0.95,-3.08,0,5
15883.687,-0.5,0.422,0.7,-0.85,-1.22,-3.2,0,5
15883.687,-0.504,0.427,0.706,-1.98,-1.62,-2.84,0,5
15883.703,-0.504,0.425,0.714,-2.11,-1.62,-2.11,0,5
15883.718,-0.517,0.432,0.735,-0.85,-2.08,-3.57,0,5
15883.734,-0.515,0.44,0.736,0.27,-2.17,-3.42,0,5
15883.734,-0.514,0.439,0.736,0.95,-2.17,-2.96,0,5
15883.75,-0.514,0.442,0.733,0.73,-1.95,-2.53,0,5
15883.765,-0.509,0.443,0.729,-0.03,-1.86,-2.32,0,5
15883.765,-0.505,0.435,0.726,-0.82,-1.43,-2.26,0,5
15883.781,-0.502,0.423,0.724,-1.04,-0.58,-2.26,0,5
15883.796,-0.499,0.417,0.723,-0.4,0.7,-2.23,0,5
15883.796,-0.5,0.413,0.723,0.89,1.77,-2.66,0,5
15883.812,-0.503,0.413,0.725,1.68,2.35,-3.05,0,5
15883.812,-0.512,0.422,0.732,2.2,2.23,-3.3,0,5
15883.828,-0.515,0.427,0.734,2.23,1.28,-3.3,0,5
15883.843,-0.51,0.432,0.728,1.74,0.37,-2.72,0,5
15883.843,-0.509,0.438,0.725,0.55,0.52,-2.17,0,5
15883.859,-0.516,0.442,0.728,-1.04,0.89,-1.59,0,5
15883.875,-0.52,0.439,0.729,-2.47,0.76,-0.92,0,5
15883.89,-0.512,0.432,0.723,-3.36,-0.15,-0.61,0,5
15883.906,-0.514,0.429,0.72,-2.69,0.61,-0.98,0,5
15883.906,-0.519,0.424,0.719,-1.65,1.19,-1.04,0,5
15883.921,-0.516,0.421,0.72,-0.58,1.31,-1.01,0,5
15883.921,-0.517,0.424,0.723,0.03,1.5,-1.19,0,5
15883.937,-0.523,0.428,0.723,0.12,1.4,-1.37,0,5
15883.953,-0.521,0.424,0.722,0.24,0.89,-1.19,0,5
15883.953,-0.518,0.424,0.721,0.34,0.61,-0.92,0,5
15883.968,-0.519,0.426,0.718,0.49,0.61,-0.92,0,5
15883.984,-0.522,0.427,0.716,0.61,0.7,-1.16,0,5
15883.984,-0.523,0.426,0.711,0.98,0.52,-1.31,0,5
15884.0,-0.523,0.431,0.711,1.5,0.55,-1.4,0,5
15884.015,-0.525,0.443,0.713,1.98,0.37,-1.8,0,5
15884.031,-0.525,0.45,0.708,1.68,-0.37,-1.74,0,5
15884.031,-0.521,0.453,0.702,0.61,-0.76,-1.56,0,5
15884.031,-0.521,0.452,0.702,-0.73,-0.73,-1.19,0,5
15884.046,-0.517,0.448,0.704,-1.98,-0.43,-0.85,0,5
15884.062,-0.517,0.439,0.711,-2.56,-0.21,-0.82,0,5
15884.062,-0.518,0.434,0.714,-2.17,0.15,-1.07,0,5
15884.078,-0.52,0.428,0.72,-1.07,0.82,-1.34,0,5
15884.093,-0.526,0.423,0.725,0.49,0.73,-1.34,0,5
15884.093,-0.522,0.42,0.721,3.27,-0.24,-1.5,0,5
15884.109,-0.518,0.415,0.718,5.28,-0.12,-1.28,0,5
15884.125,-0.516,0.431,0.695,7.72,1.68,-1.16,0,5
15884.125,-0.527,0.402,0.7,3.91,0.79,-1.46,0,5
15884.14,-0.518,0.447,0.714,2.62,1.65,0.0,0,5
15884.156,-0.531,0.412,0.7,0.43,0.37,-0.82,0,5
15884.156,-0.519,0.441,0.717,-4.24,-0.49,-0.43,0,5
15884.171,-0.518,0.429,0.713,-4.79,-1.28,-0.24,0,5
15884.171,-0.516,0.417,0.711,-2.84,-0.06,0.98,0,5
15884.187,-0.521,0.409,0.725,-1.25,0.49,0.85,0,5
15884.203,-0.52,0.412,0.725,-0.43,-0.46,-0.55,0,5
15884.218,-0.519,0.425,0.731,-0.21,-0.98,-0.79,0,5
15884.218,-0.523,0.423,0.73,-0.09,-1.43,-0.52,0,5
15884.234,-0.525,0.422,0.726,-0.98,-1.8,-0.34,0,5
15884.25,-0.526,0.429,0.725,-2.01,-2.11,-0.46,0,5
15884.25,-0.525,0.428,0.726,-2.41,-2.47,-0.31,0,5
15884.265,-0.52,0.428,0.721,-2.5,-2.47,-0.27,0,5
15884.265,-0.518,0.425,0.72,-2.08,-2.01,-0.12,0,5
15884.281,-0.52,0.424,0.72,-1.13,-1.5,-0.24,0,5
15884.296,-0.52,0.425,0.722,-0.15,-0.98,-0.31,0,5
15884.296,-0.516,0.422,0.72,0.46,-0.73,-0.18,0,5
15884.312,-0.517,0.419,0.724,0.64,-0.61,0.06,0,5
15884.328,-0.515,0.42,0.729,0.55,-0.64,0.27,0,5
15884.328,-0.513,0.425,0.73,-0.12,-0.7,0.15,0,5
15884.343,-0.517,0.43,0.731,-0.89,-0.55,0.18,0,5
15884.343,-0.517,0.432,0.733,-1.37,-0.55,0.37,0,5
15884.359,-0.519,0.434,0.734,-1.43,-0.61,0.4,0,5
15884.375,-0.524,0.435,0.73,-1.04,-0.73,0.34,0,5
15884.375,-0.52,0.431,0.725,-0.15,-1.01,0.34,0,5
15884.39,-0.518,0.428,0.721,0.82,-0.76,-0.03,0,5
15884.406,-0.52,0.429,0.72,1.59,-0.52,-0.37,0,5
15884.406,-0.52,0.428,0.716,1.92,-0.34,-0.49,0,5
15884.421,-0.519,0.427,0.71,1.71,-0.15,-0.27,0,5
15884.437,-0.519,0.426,0.71,1.16,0.4,-0.24,0,5
15884.437,-0.525,0.424,0.712,0.55,0.85,-0.24,0,5
15884.453,-0.525,0.429,0.714,0.09,1.01,0.0,0,5
15884.453,-0.527,0.435,0.716,-0.09,0.79,0.4,0,5
15884.468,-0.527,0.433,0.714,-0.15,0.37,0.64,0,5
15884.484,-0.524,0.43,0.712,0.03,-0.4,0.76,0,5
15884.484,-0.523,0.431,0.708,0.31,-0.64,0.79,0,5
15884.5,-0.525,0.432,0.702,0.46,-0.73,0.55,0,5
15884.515,-0.522,0.431,0.697,0.24,-0.79,0.52,0,5
15884.515,-0.524,0.43,0.697,-0.34,-0.76,0.67,0,5
15884.531,-0.522,0.427,0.701,-1.1,-0.67,0.73,0,5
15884.546,-0.52,0.426,0.701,-1.68,-0.85,0.82,0,5
15884.546,-0.52,0.422,0.704,-1.89,-0.95,0.73,0,5
15884.562,-0.52,0.42,0.708,-1.68,-1.1,0.92,0,5
15884.578,-0.522,0.425,0.711,-0.85,-1.13,0.61,0,5
15884.593,-0.523,0.427,0.714,-0.52,-0.98,0.58,0,5
15884.593,-0.525,0.429,0.722,-0.21,-0.89,0.7,0,5
15884.609,-0.523,0.433,0.729,0.18,-0.98,0.61,0,5
15884.625,-0.526,0.434,0.731,0.46,-1.31,0.46,0,5
15884.625,-0.526,0.436,0.732,0.61,-1.92,0.24,0,5
15884.64,-0.525,0.439,0.732,0.61,-2.62,0.31,0,5
15884.656,-0.525,0.442,0.731,0.64,-3.08,0.24,0,5
15884.656,-0.522,0.438,0.723,0.98,-3.36,0.12,0,5
15884.671,-0.518,0.436,0.715,1.22,-3.3,0.21,0,5
15884.671,-0.514,0.434,0.714,1.31,-3.02,0.27,0,5
15884.687,-0.512,0.428,0.709,1.53,-2.53,0.37,0,5
15884.703,-0.508,0.422,0.706,1.83,-1.86,0.4,0,5
15884.703,-0.51,0.421,0.71,1.83,-1.04,0.31,0,5
15884.718,-0.515,0.424,0.717,1.71,-0.61,0.15,0,5
15884.734,-0.522,0.431,0.723,1.43,-0.95,0.18,0,5
15884.75,-0.52,0.436,0.724,0.27,-2.01,0.4,0,5
15884.765,-0.521,0.433,0.721,0.15,-2.41,0.43,0,5
15884.781,-0.521,0.43,0.716,0.4,-2.72,0.58,0,5
15884.781,-0.522,0.428,0.715,0.64,-3.17,0.43,0,5
15884.781,-0.517,0.425,0.709,0.79,-3.51,0.49,0,5
15884.796,-0.51,0.421,0.704,0.61,-3.45,0.55,0,5
15884.812,-0.506,0.417,0.7,0.27,-2.69,0.46,0,5
15884.812,-0.498,0.408,0.698,0.21,-1.4,0.55,0,5
15884.828,-0.488,0.373,0.717,0.0,-0.79,0.61,0,5
15884.843,-0.476,0.302,0.724,0.4,-3.3,0.98,0,5
15884.843,-0.447,0.275,0.701,1.01,-9.67,0.89,0,5
15884.859,-0.411,0.249,0.67,2.47,-13.95,-1.1,0,5
15884.875,-0.445,0.307,0.675,5.98,-11.66,-3.51,0,5
15884.875,-0.666,0.496,0.857,10.01,-10.28,2.17,0,5
15884.89,-0.673,0.59,0.901,0.27,-27.83,12.94,0,5
15884.906,-0.565,0.601,0.841,-19.17,-44.83,17.76,0,5
15884.906,-0.518,0.54,0.77,-31.98,-45.93,15.78,0,5
15884.921,-0.484,0.516,0.73,-36.26,-36.59,13.09,0,5
15884.921,-0.48,0.497,0.711,-29.42,-21.0,12.6,0,5
15884.937,-0.512,0.483,0.716,-18.71,-6.16,12.18,0,5
15884.953,-0.528,0.482,0.723,-10.47,1.98,10.62,0,5
15884.953,-0.532,0.497,0.703,-5.49,5.13,9.06,0,5
15884.968,-0.542,0.516,0.685,-5.1,5.98,8.58,0,5
15884.984,-0.551,0.522,0.679,-10.96,4.46,9.16,0,5
15885.0,-0.547,0.515,0.686,-21.52,1.1,10.83,0,5
15885.0,-0.555,0.521,0.704,-33.3,-2.59,13.61,0,5
15885.015,-0.522,0.485,0.694,-44.43,-7.05,18.04,0,5
15885.015,-0.42,0.391,0.661,-53.99,-7.9,18.4,0,5
15885.031,-0.48,0.358,0.706,-53.19,-0.95,16.94,0,5
15885.046,-0.507,0.379,0.762,-44.16,2.2,20.45,0,5
15885.046,-0.459,0.391,0.797,-36.44,0.7,25.24,0,5
15885.062,-0.44,0.346,0.775,-29.05,-0.85,21.61,0,5
15885.062,-0.444,0.318,0.771,-19.68,0.55,15.9,0,5
15885.078,-0.425,0.326,0.788,-10.8,1.98,10.44,0,5
15885.093,-0.423,0.34,0.784,5.83,5.31,1.62,0,5
15885.093,-0.425,0.343,0.769,11.72,7.11,-0.67,0,5
15885.109,-0.428,0.347,0.765,15.5,8.73,-2.53,0,5
15885.125,-0.442,0.374,0.765,17.0,9.4,-3.91,0,5
15885.125,-0.455,0.381,0.767,16.82,8.76,-4.76,0,5
15885.14,-0.46,0.389,0.768,15.38,6.96,-5.07,0,5
15885.156,-0.462,0.402,0.769,13.09,5.16,-5.46,0,5
15885.156,-0.469,0.409,0.768,10.22,3.51,-5.86,0,5
15885.171,-0.476,0.406,0.767,7.6,2.04,-5.86,0,5
15885.187,-0.481,0.408,0.77,5.77,0.82,-5.58,0,5
15885.187,-0.484,0.411,0.771,5.01,-0.31,-5.22,0,5
15885.203,-0.483,0.405,0.771,5.1,-1.07,-4.88,0,5
15885.203,-0.483,0.402,0.772,5.98,-1.04,-4.85,0,5
15885.218,-0.487,0.408,0.77,7.2,-0.73,-4.79,0,5
15885.234,-0.487,0.409,0.763,8.15,-0.46,-4.67,0,5
15885.234,-0.487,0.41,0.761,8.45,0.15,-4.49,0,5
15885.25,-0.49,0.415,0.76,8.3,0.89,-4.3,0,5
15885.265,-0.492,0.416,0.759,7.6,1.46,-3.85,0,5
15885.265,-0.493,0.416,0.758,6.16,1.95,-3.27,0,5
15885.281,-0.497,0.419,0.759,4.39,1.95,-2.56,0,5
15885.296,-0.497,0.419,0.763,2.26,1.34,-1.71,0,5
15885.296,-0.496,0.417,0.76,-0.24,0.61,-0.76,0,5
15885.312,-0.492,0.415,0.761,-2.5,-0.03,-0.09,0,5
15885.312,-0.491,0.412,0.76,-4.09,-0.15,0.4,0,5
15885.328,-0.491,0.409,0.759,-4.85,-0.12,0.64,0,5
15885.343,-0.489,0.406,0.759,-4.91,0.27,0.89,0,5
15885.343,-0.484,0.401,0.757,-4.49,0.82,1.01,0,5
15885.359,-0.482,0.399,0.753,-4.36,1.43,1.04,0,5
15885.375,-0.481,0.395,0.752,-4.0,2.5,0.79,0,5
15885.375,-0.482,0.395,0.755,-3.85,3.54,0.52,0,5
15885.39,-0.485,0.396,0.756,-3.48,3.91,0.37,0,5
15885.406,-0.488,0.39,0.76,-3.05,3.63,0.18,0,5
15885.406,-0.487,0.389,0.761,-3.05,2.9,0.06,0,5
15885.421,-0.487,0.391,0.763,-3.14,2.26,-0.55,0,5
15885.437,-0.489,0.387,0.753,-2.9,1.37,-1.68,0,5
15885.453,-0.489,0.388,0.752,-2.81,1.22,-2.14,0,5
15885.453,-0.49,0.387,0.753,-2.5,1.34,-2.62,0,5
15885.468,-0.497,0.391,0.759,-1.92,1.31,-3.02,0,5
15885.484,-0.502,0.391,0.764,-1.25,0.31,-3.23,0,5
15885.484,-0.503,0.395,0.763,-1.1,-0.95,-3.23,0,5
15885.5,-0.503,0.4,0.763,-1.19,-2.2,-3.27,0,5
15885.515,-0.501,0.398,0.758,-1.56,-3.39,-3.23,0,5
15885.515,-0.496,0.396,0.753,-1.71,-4.09,-3.14,0,5
15885.531,-0.493,0.392,0.748,-1.22,-4.24,-3.23,0,5
15885.531,-0.485,0.386,0.742,-0.34,-3.97,-3.54,0,5
15885.546,-0.482,0.386,0.743,0.64,-3.02,-3.81,0,5
15885.562,-0.486,0.388,0.744,1.34,-2.23,-4.12,0,5
15885.562,-0.483,0.389,0.741,1.53,-2.11,-4.49,0,5
15885.578,-0.479,0.386,0.737,1.65,-1.95,-5.01,0,5
15885.593,-0.477,0.381,0.73,1.65,-1.34,-5.19,0,5
15885.609,-0.474,0.363,0.713,2.69,1.22,-6.01,0,5
15885.625,-0.467,0.349,0.702,4.09,3.11,-6.81,0,5
15885.625,-0.46,0.342,0.688,6.2,5.92,-8.12,0,5
15885.64,-0.457,0.325,0.673,9.28,9.37,-10.56,0,5
15885.656,-0.474,0.332,0.668,12.82,13.89,-13.46,0,5
15885.656,-0.534,0.429,0.689,14.62,17.76,-12.85,0,5
15885.671,-0.551,0.521,0.709,8.94,17.88,-5.65,0,5
15885.687,-0.559,0.555,0.737,-7.2,14.44,-0.12,0,5
15885.687,-0.528,0.522,0.741,-27.38,10.07,2.66,0,5
15885.703,-0.512,0.495,0.741,-43.03,10.93,1.92,0,5
15885.703,-0.635,0.506,0.877,-46.11,13.67,5.65,0,5
15885.718,-0.578,0.451,0.907,-43.79,4.67,10.41,0,5
15885.734,-0.531,0.382,0.873,-35.83,-1.86,8.73,0,5
15885.734,-0.513,0.324,0.862,-21.12,-2.01,5.34,0,5
15885.75,-0.506,0.321,0.859,-2.84,-0.21,1.56,0,5
15885.765,-0.511,0.326,0.835,14.34,1.13,-1.16,0,5
15885.781,-0.519,0.379,0.798,25.82,-0.43,-3.02,0,5
15885.781,-0.566,0.415,0.814,22.83,-4.49,-2.96,0,5
15885.796,-0.512,0.394,0.768,16.17,-11.99,0.0,0,5
15885.812,-0.47,0.393,0.7,8.15,-13.98,-1.1,0,5
15885.812,-0.516,0.373,0.704,5.62,-9.89,-1.89,0,5
15885.828,-0.508,0.378,0.701,4.85,-8.24,-1.43,0,5
15885.843,-0.524,0.413,0.728,2.35,-7.93,-1.1,0,5
15885.843,-0.51,0.407,0.744,-0.73,-9.55,-0.24,0,5
15885.859,-0.505,0.375,0.726,-2.08,-10.96,0.0,0,5
15885.875,-0.504,0.388,0.734,-3.14,-10.44,0.64,0,5
15885.875,-0.503,0.383,0.744,-1.8,-10.28,1.01,0,5
15885.89,-0.492,0.377,0.733,0.15,-10.1,0.89,0,5
15885.906,-0.483,0.38,0.727,1.68,-8.58,0.52,0,5
15885.906,-0.48,0.379,0.725,2.87,-7.02,0.09,0,5
15885.921,-0.477,0.378,0.718,3.66,-5.13,-0.18,0,5
15885.937,-0.48,0.383,0.716,3.69,-3.05,-0.24,0,5
15885.953,-0.487,0.389,0.725,2.23,-1.46,-0.61,0,5
15885.953,-0.489,0.386,0.731,1.34,-1.46,-0.89,0,5
15885.968,-0.49,0.384,0.735,1.04,-1.71,-1.25,0,5
15885.984,-0.489,0.385,0.739,1.16,-1.56,-1.43,0,5
15885.984,-0.496,0.388,0.747,1.4,-1.31,-1.68,0,5
15886.0,-0.504,0.399,0.75,0.73,-1.46,-1.86,0,5
15886.015,-0.507,0.405,0.751,-0.67,-1.92,-1.74,0,5
15886.015,-0.508,0.4,0.75,-1.8,-2.08,-1.46,0,5
15886.031,-0.51,0.395,0.747,-2.23,-1.89,-1.13,0,5
15886.046,-0.512,0.388,0.741,-1.62,-1.62,-0.64,0,5
15886.046,-0.512,0.389,0.739,-0.82,-0.67,-0.24,0,5
15886.062,-0.524,0.396,0.739,-0.67,0.37,-0.31,0,5
15886.062,-0.55,0.406,0.754,-3.17,-0.12,0.89,0,5
15886.078,-0.606,0.428,0.781,-5.68,-1.37,2.41,0,5
15886.093,-0.685,0.421,0.802,-8.06,-2.08,3.48,0,5
15886.093,-0.793,0.4,0.818,-8.91,-2.81,2.78,0,5
15886.109,-1.02,0.384,0.824,-6.56,-5.86,-1.04,0,5
15886.125,-1.07,0.384,0.778,2.38,-10.8,-6.71,0,5
15886.14,-1.091,0.383,0.724,16.91,-14.4,-10.28,0,5
15886.14,-1.101,0.388,0.654,33.75,-15.9,-11.11,0,5
15886.156,-1.103,0.381,0.565,50.26,-16.63,-9.86,0,5
15886.156,-1.091,0.363,0.479,62.87,-16.17,-6.04,0,5
15886.171,-1.058,0.332,0.371,68.7,-13.61,0.27,0,5
15886.187,-0.989,0.312,0.295,66.5,-8.58,8.0,0,5
15886.187,-0.914,0.282,0.238,61.4,-0.7,15.78,0,5
15886.203,-0.841,0.253,0.191,52.58,9.13,22.28,0,5
15886.203,-0.757,0.218,0.163,40.41,19.93,26.61,0,5
15886.218,-0.683,0.175,0.153,28.02,31.71,28.47,0,5
15886.234,-0.617,0.138,0.152,16.54,44.04,27.65,0,5
15886.25,-0.552,0.108,0.156,6.9,56.98,24.35,0,5
15886.25,-0.51,0.088,0.186,-0.61,70.89,19.41,0,5
15886.265,-0.48,0.063,0.215,-5.07,85.33,14.47,0,5
15886.265,-0.445,0.048,0.247,-7.6,100.71,9.4,0,5
15886.296,-0.411,0.035,0.326,-4.03,135.17,-0.52,0,5
15886.296,-0.398,0.025,0.348,2.69,153.69,-6.07,0,5
15886.312,-0.403,0.029,0.376,11.69,173.16,-12.82,0,5
15886.312,-0.46,0.081,0.413,23.62,191.81,-19.78,0,5
15886.328,-0.431,0.146,0.486,33.05,207.22,-26.22,0,5
15886.343,-0.494,0.166,0.478,46.3,220.98,-40.07,0,5
15886.343,-0.621,0.224,0.525,51.0,230.84,-50.6,0,5
15886.359,-0.657,0.309,0.616,34.88,223.46,-58.6,0,5
15886.375,-0.719,0.369,0.682,7.54,200.23,-64.76,0,5
15886.39,-0.764,0.378,0.709,-26.37,161.53,-68.0,0,5
15886.39,-0.736,0.367,0.733,-64.55,114.2,-70.77,0,5
15886.406,-0.675,0.348,0.737,-101.26,68.61,-76.42,0,5
15886.406,-0.594,0.301,0.69,-128.7,32.44,-85.48,0,5
15886.421,-0.529,0.239,0.639,-142.67,14.86,-96.41,0,5
15886.437,-0.527,0.171,0.632,-139.81,14.47,-104.31,0,5
15886.437,-0.559,0.12,0.601,-116.03,24.45,-109.41,0,5
15886.468,-0.659,0.155,0.5,-53.93,60.0,-116.31,0,5
15886.468,-0.74,0.221,0.454,-32.14,78.1,-120.76,0,5
15886.484,-0.841,0.299,0.415,-24.87,90.73,-126.38,0,5
15886.484,-0.949,0.348,0.431,-28.9,97.84,-130.83,0,5
15886.5,-1.042,0.345,0.446,-34.97,101.78,-131.2,0,5
15886.515,-1.106,0.333,0.473,-38.45,106.85,-126.62,0,5
15886.515,-0.992,0.176,0.884,-28.75,117.16,-122.71,0,5
15886.531,-0.911,-0.15,1.369,49.44,135.9,-138.0,0,5
15886.546,-1.249,0.047,1.113,178.35,153.36,-150.4,0,5
15886.546,-1.347,0.466,0.823,233.68,149.14,-139.59,0,5
15886.562,-1.25,0.7,0.75,219.95,132.73,-131.78,0,5
15886.562,-1.336,0.811,0.621,177.56,119.42,-131.2,0,5
15886.578,-1.335,0.814,0.6,110.26,96.13,-124.15,0,5
15886.593,-1.269,0.75,0.618,50.75,70.5,-113.9,0,5
15886.609,-1.208,0.646,0.582,16.48,52.58,-98.45,0,5
15886.609,-1.178,0.579,0.518,3.17,41.87,-80.94,0,5
15886.625,-1.157,0.531,0.451,2.81,36.32,-63.81,0,5
15886.625,-1.149,0.475,0.364,7.72,34.06,-46.54,0,5
15886.64,-1.109,0.438,0.262,10.32,35.25,-25.39,0,5
15886.656,-1.083,0.44,0.179,4.88,40.25,-2.93,0,5
15886.656,-1.089,0.428,0.11,-10.13,47.06,18.01,0,5
15886.671,-1.077,0.332,0.085,-35.04,51.15,35.46,0,5
15886.687,-1.046,0.187,0.107,-60.79,52.92,47.27,0,5
15886.687,-1.017,0.059,0.149,-79.29,53.25,52.58,0,5
15886.703,-0.994,-0.043,0.186,-88.2,51.58,51.91,0,5
15886.703,-0.985,-0.133,0.2,-88.2,47.33,46.05,0,5
15886.718,-0.968,-0.201,0.201,-82.77,41.08,37.05,0,5
15886.734,-0.943,-0.239,0.213,-72.39,35.0,25.45,0,5
15886.734,-0.943,-0.244,0.21,-56.67,29.85,12.09,0,5
15886.75,-0.951,-0.236,0.195,-40.13,23.99,-0.06,0,5
15886.765,-0.946,-0.211,0.184,-24.57,18.19,-9.67,0,5
15886.765,-0.943,-0.167,0.184,-7.57,14.65,-17.67,0,5
15886.781,-0.959,-0.131,0.155,8.36,13.0,-23.5,0,5
15886.796,-0.982,-0.111,0.121,17.73,10.47,-26.67,0,5
15886.796,-0.993,-0.098,0.089,21.58,8.0,-27.1,0,5
15886.812,-0.973,-0.068,0.079,21.3,7.45,-26.73,0,5
15886.828,-0.962,-0.065,0.071,19.35,9.46,-27.19,0,5
15886.828,-0.968,-0.073,0.06,14.74,12.67,-28.05,0,5
15886.843,-0.97,-0.062,0.063,6.9,16.05,-29.11,0,5
15886.843,-0.976,-0.07,0.079,-0.67,18.43,-30.73,0,5
15886.859,-0.992,-0.074,0.088,-5.74,20.45,-32.35,0,5
15886.875,-1.028,-0.04,0.087,-11.41,20.48,-32.65,0,5
15886.875,-1.054,-0.029,0.097,-19.65,16.17,-30.21,0,5
15886.89,-1.045,-0.043,0.119,-27.86,10.56,-25.24,0,5
15886.906,-1.028,-0.051,0.13,-31.89,7.32,-19.26,0,5
15886.906,-1.017,-0.064,0.13,-31.98,5.74,-14.44,0,5
15886.921,-1.006,-0.079,0.125,-29.66,4.61,-12.12,0,5
15886.921,-0.991,-0.083,0.123,-25.3,4.15,-11.57,0,5
15886.937,-0.988,-0.076,0.116,-18.4,4.64,-12.15,0,5
15886.953,-0.997,-0.014,0.083,-9.06,5.62,-13.7,0,5
15886.968,-1.014,0.014,0.081,-10.25,5.58,-13.25,0,5
15886.984,-1.02,0.032,0.087,-14.37,5.16,-11.41,0,5
15886.984,-1.024,0.03,0.101,-18.16,4.27,-9.06,0,5
15887.0,-1.026,0.012,0.117,-18.34,2.62,-6.59,0,5
15887.015,-1.02,-0.016,0.132,-13.7,0.31,-3.91,0,5
15887.015,-1.005,-0.045,0.14,-4.46,-1.68,-1.28,0,5
15887.031,-0.994,-0.055,0.136,6.35,-2.47,0.73,0,5
15887.046,-0.987,-0.054,0.118,15.26,-2.9,1.4,0,5
15887.046,-0.987,-0.048,0.096,19.71,-3.75,-0.21,0,5
15887.062,-1.001,-0.026,0.074,13.95,-5.77,0.06,0,5
15887.062,-1.011,-0.005,0.056,4.36,-8.82,0.89,0,5
15887.078,-1.017,0.004,0.05,-5.95,-11.84,2.01,0,5
15887.093,-0.989,-0.027,0.063,-13.82,-12.79,2.32,0,5
15887.093,-0.982,-0.044,0.079,-16.82,-11.54,2.11,0,5
15887.109,-0.977,-0.053,0.105,-15.29,-9.31,1.56,0,5
15887.125,-0.972,-0.059,0.13,-9.28,-7.14,0.43,0,5
15887.125,-0.978,-0.06,0.14,-0.31,-5.62,-1.16,0,5
15887.14,-0.987,-0.048,0.132,8.03,-5.43,-2.11,0,5
15887.156,-0.99,-0.024,0.11,12.6,-6.65,-2.17,0,5
15887.156,-0.98,-0.009,0.089,11.87,-8.42,-1.4,0,5
15887.171,-0.964,0.01,0.074,6.47,-9.95,-0.49,0,5
15887.171,-0.957,0.012,0.064,-1.19,-10.44,0.43,0,5
15887.187,-0.95,-0.013,0.066,-8.85,-10.47,1.1,0,5
15887.203,-0.944,-0.03,0.081,-13.52,-10.04,1.53,0,5
15887.218,-0.946,-0.046,0.092,-13.43,-8.85,1.74,0,5
15887.218,-0.958,-0.053,0.102,-10.04,-7.26,1.04,0,5
15887.234,-0.969,-0.04,0.108,-5.01,-5.52,0.06,0,5
15887.234,-0.998,-0.033,0.105,0.49,-4.15,-0.43,0,5
15887.25,-1.005,-0.019,0.11,4.0,-3.97,0.58,0,5
15887.265,-1.004,0.009,0.115,6.29,-4.21,2.08,0,5
15887.265,-1.015,0.015,0.113,6.16,-4.97,3.39,0,5
15887.281,-1.005,0.011,0.118,2.87,-7.05,4.82,0,5
15887.296,-0.995,0.017,0.129,-1.28,-9.28,5.49,0,5
15887.296,-0.997,0.011,0.138,-4.67,-11.84,5.55,0,5
15887.312,-0.997,-0.006,0.151,-7.11,-15.05,6.23,0,5
15887.312,-0.997,-0.032,0.161,-6.59,-18.22,7.57,0,5
15887.328,-0.998,-0.057,0.152,-3.81,-21.0,9.22,0,5
15887.343,-0.98,-0.064,0.14,-1.34,-22.8,9.98,0,5
15887.343,-0.972,-0.057,0.128,-0.46,-22.86,9.4,0,5
15887.359,-0.982,-0.045,0.113,-2.04,-21.82,8.09,0,5
15887.375,-0.99,-0.038,0.108,-6.01,-20.94,6.74,0,5
15887.39,-0.991,-0.034,0.118,-9.74,-20.66,5.4,0,5
15887.39,-1.003,-0.031,0.125,-11.44,-20.63,4.33,0,5
15887.406,-1.012,-0.03,0.127,-12.12,-21.06,4.39,0,5
15887.406,-1.01,-0.021,0.134,-13.0,-21.76,4.58,0,5
15887.421,-1.013,-0.021,0.132,-12.88,-22.83,4.67,0,5
15887.437,-1.013,-0.024,0.123,-13.0,-23.99,4.97,0,5
15887.437,-0.999,-0.022,0.125,-13.95,-25.18,5.01,0,5
15887.453,-0.993,-0.021,0.122,-13.15,-25.03,4.55,0,5
15887.453,-0.992,-0.014,0.108,-11.99,-23.71,4.55,0,5
15887.468,-0.987,-0.003,0.102,-11.9,-22.19,4.36,0,5
15887.484,-0.985,-0.004,0.101,-11.93,-20.6,3.78,0,5
15887.484,-0.988,-0.013,0.097,-11.57,-19.17,3.42,0,5
15887.5,-0.991,-0.015,0.095,-11.63,-17.82,3.48,0,5
15887.515,-0.988,-0.01,0.092,-12.33,-16.88,3.88,0,5
15887.515,-0.983,-0.016,0.092,-12.91,-16.3,4.33,0,5
15887.531,-0.979,-0.029,0.094,-13.52,-15.96,4.61,0,5
15887.546,-0.973,-0.054,0.095,-12.45,-15.56,4.06,0,5
15887.546,-0.963,-0.069,0.092,-10.04,-15.23,2.5,0,5
15887.562,-0.959,-0.073,0.085,-7.17,-15.02,-0.15,0,5
15887.562,-0.956,-0.074,0.077,-4.24,-14.74,-3.39,0,5
15887.578,-0.952,-0.053,0.064,-2.38,-14.07,-5.34,0,5
15887.593,-0.95,-0.037,0.059,-2.53,-13.7,-6.71,0,5
15887.593,-0.944,-0.045,0.077,-2.17,-13.34,-7.66,0,5
15887.609,-0.951,-0.051,0.108,0.34,-12.45,-7.6,0,5
15887.625,-0.964,-0.051,0.139,5.13,-12.57,-6.59,0,5
15887.64,-0.958,-0.067,0.168,11.23,-14.53,-4.52,0,5
15887.64,-0.942,-0.08,0.189,17.88,-16.02,-2.62,0,5
15887.656,-0.937,-0.083,0.213,24.87,-16.63,-2.17,0,5
15887.656,-0.939,-0.092,0.229,31.86,-16.94,-2.56,0,5
15887.671,-0.938,-0.1,0.243,38.18,-16.82,-2.53,0,5
15887.687,-0.939,-0.1,0.261,44.31,-15.87,-2.87,0,5
15887.687,-0.942,-0.089,0.264,49.56,-14.44,-4.09,0,5
15887.703,-0.941,-0.045,0.254,50.33,-12.45,-5.49,0,5
15887.703,-0.952,-0.01,0.254,45.14,-10.16,-6.32,0,5
15887.718,-0.967,0.011,0.28,35.49,-7.84,-5.83,0,5
15887.734,-0.984,0.025,0.321,24.81,-6.59,-3.75,0,5
15887.734,-0.993,0.005,0.355,15.93,-7.32,0.21,0,5
15887.75,-0.987,0.0,0.364,8.06,-9.25,4.43,0,5
15887.765,-0.975,0.013,0.358,-1.31,-11.69,6.71,0,5
15887.765,-0.976,0.018,0.343,-13.28,-14.22,6.62,0,5
15887.781,-0.985,0.02,0.337,-27.71,-16.91,5.83,0,5
15887.796,-0.989,0.015,0.347,-41.72,-20.81,5.25,0,5
15887.796,-0.99,0.003,0.349,-51.55,-24.66,4.76,0,5
15887.812,-1.003,-0.001,0.349,-56.55,-26.76,4.88,0,5
15887.828,-1.025,-0.022,0.353,-57.01,-28.57,5.74,0,5
15887.828,-1.043,-0.044,0.345,-53.29,-30.4,6.78,0,5
15887.843,-1.059,-0.046,0.338,-47.55,-31.25,6.53,0,5
15887.843,-1.081,-0.051,0.336,-39.83,-31.8,4.55,0,5
15887.859,-1.107,-0.055,0.335,-30.61,-32.78,2.04,0,5
15887.875,-1.116,-0.054,0.324,-20.14,-35.28,0.46,0,5
15887.89,-1.096,-0.042,0.309,-8.67,-38.82,-0.31,0,5
15887.89,-1.062,-0.027,0.285,3.42,-41.66,-0.85,0,5
15887.906,-1.023,-0.01,0.255,13.82,-42.63,-0.46,0,5
15887.906,-0.997,-0.007,0.244,20.14,-41.2,1.34,0,5
15887.921,-0.972,-0.027,0.241,22.28,-37.87,3.94,0,5
15887.937,-0.942,-0.03,0.262,20.48,-34.09,5.65,0,5
15887.937,-0.934,-0.044,0.306,18.95,-31.1,5.16,0,5
15887.953,-0.928,-0.063,0.355,20.11,-30.4,4.27,0,5
15887.953,-0.917,-0.051,0.388,23.9,-31.68,4.39,0,5
15887.968,-0.921,-0.044,0.395,28.72,-34.15,5.52,0,5
15887.984,-0.922,-0.068,0.378,31.59,-36.19,9.37,0,5
15887.984,-0.896,-0.065,0.349,30.21,-36.35,15.29,0,5
15888.0,-0.872,-0.066,0.311,24.9,-35.25,19.71,0,5
15888.015,-0.848,-0.074,0.295,14.62,-32.69,21.76,0,5
15888.015,-0.833,-0.077,0.293,2.29,-28.63,21.09,0,5
15888.031,-0.829,-0.081,0.306,-7.66,-24.48,18.52,0,5
15888.046,-0.831,-0.082,0.337,-9.92,-16.88,12.88,0,5
15888.046,-0.84,-0.081,0.373,-2.2,-13.12,11.75,0,5
15888.062,-0.846,-0.079,0.402,6.32,-10.38,11.08,0,5
15888.062,-0.85,-0.063,0.424,11.23,-9.7,9.8,0,5
15888.078,-0.84,-0.042,0.421,10.9,-10.71,8.0,0,5
15888.093,-0.835,0.0,0.413,5.25,-12.21,5.89,0,5
15888.093,-0.838,0.03,0.406,-3.75,-13.92,3.85,0,5
15888.109,-0.844,0.037,0.41,-13.89,-15.84,3.11,0,5
15888.125,-0.839,0.042,0.412,-22.0,-17.15,3.72,0,5
15888.125,-0.855,0.031,0.417,-25.24,-17.4,4.97,0,5
15888.14,-0.863,0.022,0.43,-24.54,-17.27,7.51,0,5
15888.156,-0.886,0.004,0.442,-20.84,-16.08,10.38,0,5
15888.156,-0.905,-0.016,0.454,-17.27,-14.5,12.85,0,5
15888.171,-0.913,-0.023,0.463,-14.28,-13.28,14.01,0,5
15888.187,-0.93,-0.025,0.459,-11.75,-12.33,13.98,0,5
15888.187,-0.954,-0.011,0.458,-12.63,-11.96,13.34,0,5
15888.203,-0.975,0.001,0.465,-16.88,-12.79,11.69,0,5
15888.203,-0.986,-0.001,0.476,-21.88,-14.25,10.01,0,5
15888.218,-0.982,-0.002,0.49,-25.82,-16.82,9.06,0,5
15888.234,-0.956,-0.003,0.51,-26.58,-20.91,8.67,0,5
15888.234,-0.921,-0.007,0.514,-22.98,-25.67,8.33,0,5
15888.25,-0.875,-0.005,0.507,-16.14,-29.57,7.97,0,5
15888.265,-0.831,0.002,0.504,-6.93,-31.98,7.72,0,5
15888.265,-0.806,0.005,0.495,3.66,-32.65,7.87,0,5
15888.281,-0.793,0.018,0.482,12.67,-31.77,8.64,0,5
15888.296,-0.791,0.045,0.46,16.48,-29.97,9.61,0,5
15888.296,-0.808,0.071,0.452,13.46,-28.23,9.7,0,5
15888.312,-0.839,0.077,0.459,5.13,-28.08,9.31,0,5
15888.312,-0.87,0.057,0.478,-3.75,-29.36,9.43,0,5
15888.328,-0.885,0.042,0.503,-10.22,-31.34,10.01,0,5
15888.343,-0.898,0.032,0.529,-12.91,-31.98,9.74,0,5
15888.343,-0.913,0.029,0.553,-12.12,-31.37,8.36,0,5
15888.359,-0.923,0.051,0.576,-9.34,-31.01,6.35,0,5
15888.375,-0.942,0.079,0.597,-5.65,-30.85,4.85,0,5
15888.375,-0.962,0.094,0.624,-1.92,-31.92,4.94,0,5
15888.39,-0.967,0.077,0.648,4.3,-34.55,6.87,0,5
15888.406,-0.958,0.066,0.657,12.67,-37.14,10.44,0,5
15888.406,-0.925,0.067,0.641,20.26,-39.43,13.76,0,5
15888.421,-0.888,0.081,0.625,23.01,-40.56,15.44,0,5
15888.437,-0.857,0.098,0.619,18.65,-40.44,15.69,0,5
15888.437,-0.835,0.103,0.628,9.16,-40.19,15.78,0,5
15888.453,-0.82,0.097,0.647,-1.31,-40.22,16.42,0,5
15888.453,-0.816,0.09,0.668,-9.31,-41.9,16.6,0,5
15888.468,-0.826,0.069,0.687,-12.7,-44.95,16.85,0,5
15888.484,-0.833,0.052,0.694,-11.72,-48.19,17.52,0,5
15888.484,-0.828,0.053,0.697,-8.79,-51.61,17.06,0,5
15888.5,-0.836,0.057,0.686,-4.97,-54.23,14.68,0,5
15888.515,-0.854,0.066,0.667,-2.11,-55.3,12.51,0,5
15888.515,-0.854,0.076,0.657,-0.73,-55.76,11.44,0,5
15888.531,-0.843,0.091,0.643,1.16,-54.32,11.05,0,5
15888.546,-0.856,0.108,0.629,2.5,-51.12,10.9,0,5
15888.546,-0.861,0.114,0.631,1.25,-48.98,11.44,0,5
15888.562,-0.858,0.116,0.636,-1.01,-47.98,12.76,0,5
15888.578,-0.859,0.108,0.645,-2.81,-48.16,14.4,0,5
15888.578,-0.854,0.094,0.646,-3.51,-48.8,16.48,0,5
15888.593,-0.844,0.075,0.645,-3.57,-49.71,18.52,0,5
15888.609,-0.822,0.055,0.643,-3.54,-50.6,19.78,0,5
15888.609,-0.812,0.042,0.644,-4.61,-51.06,19.96,0,5
15888.625,-0.805,0.035,0.643,-5.98,-51.79,18.71,0,5
15888.625,-0.798,0.031,0.635,-7.2,-53.04,16.42,0,5
15888.64,-0.8,0.036,0.633,-8.51,-54.14,13.98,0,5
15888.656,-0.794,0.054,0.626,-10.35,-55.48,11.47,0,5
15888.656,-0.792,0.068,0.623,-12.12,-55.82,9.55,0,5
15888.671,-0.788,0.088,0.628,-13.82,-55.36,8.61,0,5
15888.687,-0.78,0.102,0.641,-14.98,-55.02,8.82,0,5
15888.687,-0.774,0.098,0.658,-14.37,-54.75,10.01,0,5
15888.703,-0.766,0.079,0.668,-11.93,-55.06,11.72,0,5
15888.703,-0.755,0.064,0.671,-8.48,-56.12,13.12,0,5
15888.718,-0.742,0.067,0.668,-5.04,-56.98,13.86,0,5
15888.734,-0.726,0.07,0.666,-3.51,-57.01,13.4,0,5
15888.734,-0.72,0.08,0.669,-5.1,-56.37,12.18,0,5
15888.75,-0.72,0.092,0.677,-9.31,-55.76,11.54,0,5
15888.765,-0.714,0.088,0.68,-13.34,-55.06,11.69,0,5
15888.765,-0.707,0.08,0.677,-15.72,-54.87,12.6,0,5
15888.781,-0.694,0.075,0.687,-18.04,-54.02,13.4,0,5
15888.796,-0.681,0.074,0.7,-20.08,-52.49,12.54,0,5
15888.796,-0.683,0.073,0.705,-20.78,-50.23,10.99,0,5
15888.812,-0.691,0.082,0.711,-21.03,-48.07,9.61,0,5
15888.828,-0.688,0.088,0.714,-20.48,-47.24,8.79,0,5
15888.828,-0.681,0.094,0.711,-19.38,-46.88,8.61,0,5
15888.843,-0.678,0.094,0.709,-18.49,-46.51,9.34,0,5
15888.843,-0.665,0.089,0.706,-18.13,-46.57,10.28,0,5
15888.859,-0.65,0.088,0.709,-18.86,-46.21,11.05,0,5
15888.875,-0.649,0.083,0.715,-20.75,-45.41,10.9,0,5
15888.875,-0.651,0.063,0.731,-22.19,-44.92,10.65,0,5
15888.89,-0.656,0.05,0.74,-21.67,-45.14,10.56,0,5
15888.906,-0.649,0.037,0.741,-19.41,-46.42,10.28,0,5
15888.906,-0.631,0.027,0.739,-16.05,-48.19,9.55,0,5
15888.921,-0.614,0.035,0.724,-12.36,-49.56,8.85,0,5
15888.937,-0.597,0.047,0.718,-9.31,-48.71,8.88,0,5
15888.937,-0.587,0.049,0.72,-8.58,-46.78,8.21,0,5
15888.953,-0.584,0.054,0.728,-8.73,-44.07,7.17,0,5
15888.953,-0.583,0.053,0.731,-8.7,-41.44,6.35,0,5
15888.968,-0.587,0.049,0.74,-8.88,-39.03,5.92,0,5
15888.984,-0.583,0.038,0.752,-8.79,-36.87,5.8,0,5
15888.984,-0.565,0.036,0.763,-7.9,-35.55,5.71,0,5
15889.0,-0.562,0.046,0.774,-6.96,-33.97,5.04,0,5
15889.015,-0.561,0.057,0.784,-7.45,-32.93,4.15,0,5
15889.015,-0.558,0.061,0.809,-10.07,-33.23,3.17,0,5
15889.031,-0.567,0.054,0.821,-11.17,-34.61,3.45,0,5
15889.031,-0.564,0.055,0.829,-11.14,-36.9,3.48,0,5
15889.046,-0.544,0.037,0.832,-10.35,-38.24,3.66,0,5
15889.062,-0.519,0.033,0.824,-9.55,-39.0,3.81,0,5
15889.062,-0.514,0.039,0.828,-9.19,-37.14,4.0,0,5
15889.078,-0.515,0.038,0.833,-9.89,-34.97,3.85,0,5
15889.093,-0.518,0.033,0.845,-10.83,-33.14,3.88,0,5
15889.093,-0.526,0.028,0.852,-10.41,-32.14,4.15,0,5
15889.109,-0.529,0.021,0.858,-9.13,-32.47,4.03,0,5
15889.125,-0.518,0.021,0.861,-7.39,-34.06,3.36,0,5
15889.125,-0.5,0.024,0.856,-4.94,-35.58,2.62,0,5
15889.14,-0.478,0.03,0.86,-3.08,-35.37,2.96,0,5
15889.156,-0.463,0.032,0.871,-3.02,-33.14,3.88,0,5
15889.156,-0.462,0.026,0.891,-4.33,-30.18,4.12,0,5
15889.171,-0.476,0.017,0.917,-4.7,-28.5,3.85,0,5
15889.171,-0.489,0.01,0.932,-2.99,-29.02,2.93,0,5
15889.187,-0.489,0.01,0.93,0.89,-32.47,1.95,0,5
15889.203,-0.474,0.031,0.917,4.24,-36.04,1.31,0,5
15889.203,-0.466,0.05,0.9,4.82,-37.84,1.37,0,5
15889.218,-0.454,0.055,0.884,2.47,-38.7,1.86,0,5
15889.234,-0.433,0.061,0.881,-1.01,-38.18,2.66,0,5
15889.234,-0.43,0.058,0.879,-4.03,-36.71,3.45,0,5
15889.25,-0.423,0.053,0.885,-7.17,-35.71,4.21,0,5
15889.265,-0.415,0.045,0.893,-9.86,-34.91,4.82,0,5
15889.265,-0.415,0.038,0.908,-11.44,-34.24,4.88,0,5
15889.281,-0.417,0.017,0.918,-11.32,-34.15,4.7,0,5
15889.296,-0.415,0.01,0.923,-9.31,-34.61,4.21,0,5
15889.296,-0.403,0.007,0.916,-5.19,-35.55,3.45,0,5
15889.312,-0.386,0.021,0.902,-1.37,-36.13,2.72,0,5
15889.312,-0.376,0.047,0.897,-0.49,-35.4,2.26,0,5
15889.328,-0.369,0.062,0.899,-2.62,-33.85,2.29,0,5
15889.343,-0.373,0.075,0.907,-6.59,-32.01,2.53,0,5
15889.343,-0.372,0.069,0.922,-10.35,-31.46,3.23,0,5
15889.359,-0.371,0.057,0.943,-12.51,-31.28,4.52,0,5
15889.375,-0.375,0.048,0.953,-12.15,-32.44,5.49,0,5
15889.375,-0.367,0.036,0.949,-9.64,-33.81,6.68,0,5
15889.39,-0.355,0.04,0.941,-6.35,-34.91,7.08,0,5
15889.406,-0.343,0.043,0.936,-3.08,-35.77,6.59,0,5
15889.406,-0.338,0.049,0.92,0.24,-35.52,5.98,0,5
15889.421,-0.335,0.063,0.899,1.62,-35.34,6.29,0,5
15889.437,-0.323,0.066,0.893,0.52,-35.13,7.29,0,5
15889.437,-0.313,0.067,0.895,-1.92,-33.88,8.48,0,5
15889.453,-0.311,0.055,0.901,-4.55,-32.72,9.4,0,5
15889.453,-0.305,0.03,0.919,-6.26,-31.74,10.25,0,5
15889.468,-0.306,0.005,0.931,-5.8,-31.07,10.22,0,5
15889.484,-0.297,-0.006,0.937,-3.27,-31.5,9.09,0,5
15889.484,-0.295,-0.008,0.929,0.09,-32.72,7.32,0,5
15889.5,-0.28,0.005,0.918,2.14,-34.06,5.77,0,5
15889.515,-0.269,0.026,0.906,2.04,-34.09,4.94,0,5
15889.515,-0.266,0.035,0.906,-0.03,-33.23,4.76,0,5
15889.531,-0.263,0.03,0.918,-1.59,-32.07,5.4,0,5
15889.546,-0.265,0.023,0.934,-1.25,-31.07,6.44,0,5
15889.546,-0.248,0.004,0.945,2.2,-30.88,7.26,0,5
15889.562,-0.236,0.0,0.942,7.66,-30.46,7.29,0,5
15889.578,-0.235,-0.005,0.944,10.32,-29.73,7.23,0,5
15889.578,-0.232,-0.014,0.946,11.26,-28.78,7.66,0,5
15889.593,-0.221,-0.003,0.945,10.44,-27.8,7.39,0,5
15889.593,-0.231,0.01,0.939,7.29,-26.98,5.95,0,5
15889.609,-0.239,0.01,0.94,2.11,-26.64,4.24,0,5
15889.625,-0.236,0.008,0.943,-2.84,-26.95,4.39,0,5
15889.625,-0.228,0.01,0.94,-4.88,-26.92,4.52,0,5
15889.64,-0.219,0.011,0.937,-6.1,-26.34,3.78,0,5
15889.656,-0.213,0.011,0.942,-6.07,-25.24,2.84,0,5
15889.656,-0.217,0.01,0.946,-3.57,-24.26,1.56,0,5
15889.671,-0.216,0.002,0.946,0.52,-24.05,0.82,0,5
15889.671,-0.208,0.012,0.944,4.36,-24.11,0.73,0,5
15889.687,-0.196,0.034,0.933,6.96,-24.11,0.46,0,5
15889.703,-0.204,0.044,0.921,6.2,-23.68,0.55,0,5
15889.703,-0.205,0.04,0.921,2.62,-23.53,0.89,0,5
15889.718,-0.195,0.046,0.921,-1.4,-23.47,1.34,0,5
15889.734,-0.189,0.062,0.918,-6.35,-23.13,1.07,0,5
15889.734,-0.182,0.057,0.923,-11.72,-22.31,1.34,0,5
15889.75,-0.169,0.051,0.944,-15.72,-21.18,2.62,0,5
15889.765,-0.172,0.045,0.962,-17.61,-19.78,3.27,0,5
15889.765,-0.179,0.024,0.971,-16.94,-18.74,3.14,0,5
15889.781,-0.185,0.017,0.979,-13.86,-18.83,2.9,0,5
15889.796,-0.18,0.019,0.978,-9.55,-20.63,2.23,0,5
15889.796,-0.181,0.016,0.974,-4.3,-22.06,1.62,0,5
15889.812,-0.167,0.027,0.954,0.21,-23.35,1.25,0,5
15889.812,-0.153,0.037,0.954,1.74,-22.61,1.83,0,5
15889.828,-0.16,0.038,0.954,0.21,-20.29,1.89,0,5
15889.843,-0.162,0.025,0.959,-1.71,-19.1,1.59,0,5
15889.843,-0.165,0.03,0.968,-2.35,-19.01,1.16,0,5
15889.859,-0.162,0.034,0.968,-1.95,-19.5,0.82,0,5
15889.875,-0.156,0.039,0.962,-1.1,-19.99,0.92,0,5
15889.875,-0.134,0.042,0.96,-0.55,-20.39,1.86,0,5
15889.89,-0.124,0.037,0.97,-0.12,-18.71,2.96,0,5
15889.906,-0.122,0.036,0.971,0.37,-16.6,3.17,0,5
15889.906,-0.122,0.047,0.98,0.34,-15.5,2.35,0,5
15889.921,-0.14,0.035,0.993,-0.46,-15.72,2.04,0,5
15889.937,-0.14,0.034,0.998,-0.37,-17.03,2.84,0,5
15889.937,-0.119,0.029,0.988,0.82,-18.52,3.6,0,5
15889.953,-0.114,0.031,0.986,0.06,-18.62,3.88,0,5
15889.953,-0.107,0.035,0.989,-2.62,-18.52,3.48,0,5
15889.968,-0.102,0.033,0.997,-4.7,-18.65,2.66,0,5
15889.984,-0.104,0.029,1.01,-4.49,-18.34,2.01,0,5
15889.984,-0.106,0.022,1.017,-1.71,-17.79,2.08,0,5
15890.0,-0.107,0.022,1.022,8.45,-18.16,2.01,0,5
15890.015,-0.109,0.022,1.016,11.26,-18.56,2.38,0,5
15890.015,-0.096,0.043,0.995,8.67,-18.31,2.5,0,5
15890.031,-0.087,0.066,0.982,2.96,-18.04,2.5,0,5
15890.046,-0.091,0.071,0.988,-3.6,-18.13,2.87,0,5
15890.046,-0.095,0.052,0.999,-7.75,-19.2,3.42,0,5
15890.062,-0.092,0.034,1.005,-6.96,-20.78,4.39,0,5
15890.062,-0.085,0.029,0.999,-3.97,-22.22,5.52,0,5
15890.078,-0.078,0.024,0.984,-1.16,-23.22,5.71,0,5
15890.093,-0.065,0.017,0.966,1.37,-23.83,5.62,0,5
15890.093,-0.056,0.023,0.958,2.56,-23.22,5.65,0,5
15890.109,-0.049,0.017,0.948,3.14,-22.34,5.25,0,5
15890.125,-0.047,0.011,0.939,4.03,-21.33,4.82,0,5
15890.125,-0.047,0.001,0.946,5.49,-20.02,4.52,0,5
15890.14,-0.047,-0.007,0.939,8.64,-19.01,3.91,0,5
15890.156,-0.031,0.005,0.939,10.77,-17.76,3.63,0,5
15890.156,-0.035,0.028,0.947,10.59,-15.53,3.57,0,5
15890.171,-0.047,0.039,0.951,8.15,-14.62,3.42,0,5
15890.171,-0.046,0.03,0.954,4.64,-15.63,4.18,0,5
15890.187,-0.032,0.019,0.956,1.53,-17.24,5.92,0,5
15890.203,-0.022,0.009,0.948,-0.98,-18.56,6.74,0,5
15890.203,-0.017,0.0,0.941,-3.45,-19.01,6.47,0,5
15890.218,-0.016,0.005,0.94,-6.38,-17.61,4.94,0,5
15890.234,-0.021,0.007,0.946,-9.19,-15.29,2.93,0,5
15890.234,-0.028,0.004,0.955,-9.74,-13.67,1.13,0,5
15890.25,-0.02,0.004,0.964,-7.45,-12.21,0.61,0,5
15890.265,-0.018,0.008,0.972,-3.75,-9.64,0.61,0,5
15890.265,-0.007,0.01,0.974,-0.79,-7.87,0.58,0,5
15890.281,0.001,0.025,0.984,0.34,-6.53,0.37,0,5
15890.296,-0.012,0.043,0.994,-0.64,-5.55,-0.12,0,5
15890.296,-0.021,0.052,1.001,-4.15,-6.44,-0.34,0,5
15890.312,-0.029,0.052,1.009,-7.08,-8.33,-0.18,0,5
15890.312,-0.039,0.052,1.012,-8.03,-10.53,0.61,0,5
15890.328,-0.018,0.04,1.011,-8.21,-12.27,2.38,0,5
15890.343,0.0,0.033,1.011,-7.51,-12.67,3.54,0,5
15890.343,0.006,0.027,1.006,-6.29,-12.79,3.39,0,5
15890.359,-0.002,0.026,1.018,-4.79,-12.42,2.96,0,5
15890.375,-0.005,0.031,1.027,-3.69,-12.36,2.62,0,5
15890.375,-0.005,0.027,1.031,-2.53,-12.67,2.23,0,5
15890.39,-0.012,0.023,1.033,-0.43,-13.52,1.86,0,5
15890.406,-0.0,0.019,1.028,2.69,-15.11,1.8,0,5
15890.406,0.012,0.01,1.018,7.02,-16.17,1.74,0,5
15890.421,0.031,0.011,1.006,10.86,-15.84,2.66,0,5
15890.421,0.038,0.033,1.002,11.69,-13.98,2.69,0,5
15890.437,0.029,0.051,1.0,8.27,-12.36,2.04,0,5
15890.453,0.019,0.061,1.009,0.89,-11.66,1.53,0,5
15890.453,0.009,0.05,1.029,-5.65,-12.27,1.53,0,5
15890.468,0.011,0.03,1.033,-8.15,-13.43,2.26,0,5
15890.484,0.023,0.023,1.031,-6.87,-14.65,3.17,0,5
15890.484,0.027,0.012,1.027,-3.6,-15.02,3.69,0,5
15890.5,0.036,0.01,1.014,-0.67,-15.63,3.3,0,5
15890.515,0.042,0.023,1.011,1.13,-15.59,2.2,0,5
15890.515,0.028,0.029,1.012,1.43,-14.59,1.98,0,5
15890.531,0.025,0.027,1.01,-0.09,-14.77,2.53,0,5
15890.546,0.03,0.016,1.008,-0.98,-16.14,3.36,0,5
15890.546,0.043,0.003,1.007,-0.58,-17.24,4.24,0,5
15890.562,0.051,-0.001,0.998,-0.09,-17.06,4.58,0,5
15890.562,0.056,0.002,0.993,-0.7,-15.9,4.21,0,5
15890.578,0.059,0.011,1.004,-3.02,-14.31,3.27,0,5
15890.593,0.05,0.014,1.022,-5.16,-12.82,2.44,0,5
15890.593,0.039,0.007,1.03,-5.55,-13.98,2.32,0,5
15890.609,0.055,-0.004,1.04,-3.23,-16.14,3.11,0,5
15890.625,0.058,0.0,1.028,-0.18,-17.03,3.75,0,5
15890.625,0.069,0.007,1.011,0.06,-17.55,3.51,0,5
15890.64,0.07,0.018,1.012,-2.26,-17.43,2.44,0,5
15890.656,0.063,0.025,1.022,-5.49,-16.85,1.53,0,5
15890.656,0.06,0.02,1.032,-8.06,-17.09,1.43,0,5
15890.671,0.059,0.005,1.046,-6.62,-17.88,1.74,0,5
15890.687,0.054,-0.01,1.038,-0.82,-18.8,2.04,0,5
15890.687,0.074,-0.013,1.019,6.35,-20.69,2.14,0,5
15890.703,0.08,-0.004,1.004,13.76,-21.06,2.14,0,5
15890.703,0.084,0.014,0.985,18.52,-19.99,1.71,0,5
15890.718,0.077,0.032,0.974,19.04,-18.68,1.28,0,5
15890.734,0.08,0.052,0.981,16.36,-18.49,1.34,0,5
15890.734,0.076,0.048,1.001,12.7,-17.88,2.41,0,5
15890.75,0.07,0.031,1.006,10.13,-18.56,3.36,0,5
15890.765,0.073,0.009,0.999,10.38,-21.18,3.57,0,5
15890.765,0.089,0.0,0.975,11.75,-23.96,3.14,0,5
15890.781,0.112,0.011,0.943,11.23,-24.87,2.14,0,5
15890.796,0.132,0.027,0.928,7.66,-23.32,0.67,0,5
15890.796,0.131,0.034,0.923,2.56,-19.84,-0.7,0,5
15890.812,0.121,0.042,0.931,-1.34,-16.24,-1.4,0,5
15890.828,0.107,0.041,0.942,-2.2,-14.19,-1.65,0,5
15890.828,0.118,0.047,0.94,-0.61,-13.7,-1.4,0,5
15890.843,0.113,0.056,0.942,1.71,-12.42,-0.46,0,5
15890.843,0.112,0.057,0.946,1.56,-11.57,0.98,0,5
15890.859,0.114,0.05,0.947,-0.79,-11.63,2.38,0,5
15890.875,0.122,0.035,0.945,-3.81,-13.15,3.02,0,5
15890.875,0.125,0.015,0.947,-6.32,-14.19,2.72,0,5
15890.89,0.136,0.003,0.937,-6.78,-14.77,1.62,0,5
15890.906,0.138,0.015,0.926,-5.77,-13.92,-0.18,0,5
15890.906,0.134,0.031,0.905,-4.61,-12.76,-2.17,0,5
15890.921,0.152,0.055,0.898,-4.85,-11.11,-2.53,0,5
15890.921,0.162,0.072,0.911,-6.78,-7.23,-1.74,0,5
15890.937,0.154,0.067,0.937,-9.19,-2.93,-0.7,0,5
15890.953,0.146,0.045,0.977,-9.8,-0.67,1.25,0,5
15890.953,0.138,0.028,1.012,-7.87,-0.95,3.11,0,5
15890.968,0.141,0.016,1.015,-5.34,-3.81,3.42,0,5
15890.984,0.15,0.012,1.005,-3.72,-10.77,1.34,0,5
15891.0,0.169,0.027,0.988,-6.29,-11.05,0.55,0,5
15891.0,0.185,0.037,0.983,-8.3,-9.8,-0.03,0,5
15891.015,0.166,0.028,0.985,-6.99,-9.55,-0.12,0,5
15891.015,0.153,0.021,0.99,-3.39,-9.7,0.18,0,5
15891.031,0.168,0.012,0.99,1.19,-9.0,0.85,0,5
15891.046,0.164,0.018,0.985,4.58,-6.84,1.16,0,5
15891.046,0.16,0.023,0.976,4.27,-5.31,0.12,0,5
15891.062,0.146,0.031,0.974,1.07,-5.43,-1.68,0,5
15891.062,0.137,0.038,0.971,-1.62,-7.45,-2.87,0,5
15891.078,0.14,0.054,0.957,-2.56,-9.61,-2.78,0,5
15891.093,0.159,0.059,0.933,-2.66,-11.44,-1.83,0,5
15891.093,0.168,0.056,0.923,-1.8,-10.32,0.15,0,5
15891.109,0.172,0.054,0.916,-2.72,-7.2,1.83,0,5
15891.125,0.18,0.05,0.928,-5.89,-3.72,2.87,0,5
15891.125,0.164,0.038,0.946,-9.64,-0.95,2.78,0,5
15891.14,0.153,0.021,0.962,-11.81,-0.7,2.41,0,5
15891.156,0.143,0.01,0.967,-10.5,-2.72,1.89,0,5
15891.156,0.149,-0.008,0.96,-6.56,-5.43,2.35,0,5
15891.171,0.16,-0.007,0.938,-1.98,-6.9,2.75,0,5
15891.187,0.171,-0.013,0.923,0.58,-6.93,2.59,0,5
15891.187,0.164,-0.005,0.913,1.13,-5.77,1.62,0,5
15891.203,0.154,0.001,0.901,0.46,-4.94,0.15,0,5
15891.203,0.162,0.012,0.892,-0.43,-4.55,-1.19,0,5
15891.218,0.172,0.036,0.896,-1.1,-2.53,-1.56,0,5
15891.234,0.168,0.046,0.895,-2.04,0.24,-1.13,0,5
15891.234,0.165,0.043,0.909,-3.6,2.5,0.61,0,5
15891.25,0.164,0.032,0.928,-5.68,3.36,2.93,0,5
15891.265,0.18,0.012,0.936,-7.14,3.08,4.21,0,5
15891.265,0.179,-0.001,0.952,-8.33,3.39,4.33,0,5
15891.281,0.171,-0.012,0.959,-9.4,3.42,3.08,0,5
15891.281,0.16,-0.014,0.965,-8.94,2.75,1.5,0,5
15891.296,0.162,-0.007,0.965,-6.13,1.62,0.15,0,5
15891.312,0.167,0.002,0.963,-0.85,1.4,-0.55,0,5
15891.312,0.171,0.013,0.965,5.62,2.53,-0.09,0,5
15891.328,0.172,0.024,0.972,10.32,4.85,1.13,0,5
15891.343,0.177,0.03,0.98,11.9,7.08,2.23,0,5
15891.343,0.174,0.039,0.999,9.7,9.0,3.14,0,5
15891.359,0.154,0.045,1.015,3.69,9.31,3.17,0,5
15891.375,0.146,0.035,1.027,-3.57,6.84,3.11,0,5
15891.39,0.153,0.025,1.04,-8.64,2.9,3.08,0,5
15891.39,0.168,0.014,1.038,-8.73,0.15,2.84,0,5
15891.406,0.176,0.007,1.034,-4.94,-0.09,3.39,0,5
15891.406,0.183,0.011,1.039,-0.55,1.59,4.09,0,5
15891.421,0.174,0.009,1.047,3.02,3.23,3.6,0,5
15891.421,0.163,0.008,1.053,5.46,3.14,2.84,0,5
15891.437,0.159,0.016,1.056,6.87,1.83,2.72,0,5
15891.453,0.161,0.021,1.049,7.02,0.24,3.2,0,5
15891.453,0.167,0.028,1.047,5.25,-0.49,3.88,0,5
15891.468,0.164,0.023,1.053,2.72,-0.82,4.39,0,5
15891.484,0.156,0.011,1.053,0.95,-1.62,4.64,0,5
15891.5,0.155,-0.001,1.053,0.12,-3.14,4.85,0,5
15891.5,0.159,-0.004,1.043,0.43,-4.7,4.88,0,5
15891.515,0.167,-0.009,1.028,0.31,-5.46,4.39,0,5
15891.515,0.168,-0.009,1.027,-1.04,-5.25,3.66,0,5
15891.531,0.172,-0.004,1.022,-2.38,-4.76,2.69,0,5
15891.546,0.173,-0.0,1.027,-3.57,-3.91,2.26,0,5
15891.546,0.167,-0.01,1.032,-4.09,-3.05,2.26,0,5
15891.562,0.17,-0.019,1.037,-3.36,-3.27,2.47,0,5
15891.562,0.162,-0.02,1.035,-1.19,-4.03,2.32,0,5
15891.578,0.157,-0.016,1.015,0.43,-6.01,1.8,0,5
15891.593,0.161,-0.005,1.003,0.64,-7.6,1.59,0,5
15891.609,0.157,0.004,0.988,-0.12,-8.15,1.16,0,5
15891.609,0.159,-0.004,0.976,-1.43,-8.21,1.4,0,5
15891.625,0.169,-0.008,0.971,-2.41,-7.81,2.14,0,5
15891.625,0.176,-0.015,0.962,-2.29,-7.42,1.92,0,5
15891.64,0.176,-0.022,0.955,-1.65,-6.44,1.34,0,5
15891.656,0.171,-0.01,0.95,-1.5,-5.28,0.7,0,5
15891.656,0.165,-0.009,0.943,-2.35,-4.21,0.18,0,5
15891.671,0.174,-0.004,0.949,-4.15,-2.72,0.18,0,5
15891.687,0.167,-0.002,0.961,-5.4,-1.19,-0.49,0,5
15891.687,0.158,-0.019,0.975,-5.19,-0.64,-0.24,0,5
15891.703,0.159,-0.009,0.98,-2.84,-1.74,-0.03,0,5
15891.703,0.166,-0.014,0.976,-0.21,-2.99,0.37,0,5
15891.718,0.166,0.004,0.969,0.76,-3.23,0.55,0,5
15891.734,0.161,0.005,0.961,-0.58,-3.42,0.34,0,5
15891.734,0.163,0.004,0.957,-3.27,-3.91,0.21,0,5
15891.75,0.167,0.007,0.956,-5.28,-3.63,0.37,0,5
15891.765,0.167,-0.008,0.958,-6.26,-2.93,0.67,0,5
15891.765,0.176,-0.02,0.962,-5.28,-2.35,0.89,0,5
15891.781,0.183,-0.021,0.966,-2.9,-1.65,0.52,0,5
15891.796,0.184,-0.016,0.969,-0.12,-0.55,-0.43,0,5
15891.796,0.178,-0.009,0.976,1.89,0.89,-0.82,0,5
15891.812,0.169,0.003,0.976,2.29,1.59,-0.64,0,5
15891.812,0.168,0.013,0.976,1.28,0.92,-0.46,0,5
15891.828,0.165,0.013,0.98,-0.89,0.03,0.09,0,5
15891.843,0.165,0.004,0.981,-3.33,-0.73,1.04,0,5
15891.843,0.174,-0.012,0.988,-4.64,-1.77,1.59,0,5
15891.859,0.178,-0.023,0.989,-4.3,-2.11,1.5,0,5
15891.875,0.176,-0.025,0.982,-2.53,-2.01,0.55,0,5
15891.875,0.181,-0.02,0.977,-0.79,-2.41,-0.31,0,5
15891.89,0.182,-0.002,0.975,0.12,-1.68,-0.64,0,5
15891.906,0.177,0.002,0.974,-0.89,-0.31,-0.79,0,5
15891.906,0.168,0.001,0.975,-1.95,0.12,-0.82,0,5
15891.921,0.164,-0.008,0.979,-1.65,-0.09,-0.49,0,5
15891.921,0.176,-0.007,0.979,-1.16,-0.27,-0.27,0,5
15891.937,0.187,-0.006,0.989,-0.61,0.21,-0.4,0,5
15891.953,0.176,0.007,1.009,-0.82,2.14,-0.43,0,5
15891.953,0.167,0.012,1.02,-1.68,2.44,-0.58,0,5
15891.968,0.157,0.006,1.026,0.79,-1.98,0.37,0,5
