timestamp,ax,ay,az,gx,gy,gz,orient_label,motion_label
15867.046,0.017,-0.026,1.006,-3.42,-1.43,1.65,0,5
15867.046,0.01,-0.04,1.017,-4.73,-1.56,1.68,0,5
15867.062,0.008,-0.059,1.025,-4.64,-2.38,1.56,0,5
15867.062,0.014,-0.062,1.023,-2.41,-3.36,0.92,0,5
15867.078,0.015,-0.068,1.013,0.64,-4.3,0.06,0,5
15867.093,0.022,-0.062,0.998,3.72,-4.79,-0.89,0,5
15867.093,0.026,-0.057,0.981,6.78,-4.55,-1.74,0,5
15867.109,0.036,-0.03,0.967,7.26,-3.36,-2.17,0,5
15867.125,0.033,-0.019,0.972,4.91,-1.04,-2.35,0,5
15867.125,0.02,-0.02,0.986,1.74,0.79,-2.01,0,5
15867.14,0.012,-0.021,1.007,0.43,0.95,-1.28,0,5
15867.156,0.008,-0.031,1.016,1.28,-0.18,-0.18,0,5
15867.156,0.015,-0.036,1.01,3.33,-2.04,0.85,0,5
15867.171,0.024,-0.036,0.995,4.52,-3.69,1.28,0,5
15867.171,0.035,-0.027,0.984,2.38,-4.21,1.1,0,5
15867.187,0.029,-0.029,0.979,-1.62,-3.51,0.89,0,5
15867.203,0.033,-0.04,0.989,-5.55,-2.78,0.82,0,5
15867.218,0.025,-0.049,1.011,-5.22,-1.16,0.34,0,5
15867.234,0.026,-0.055,1.022,-3.02,-1.53,0.27,0,5
15867.234,0.023,-0.06,1.021,-0.31,-2.01,0.12,0,5
15867.25,0.03,-0.059,1.019,2.04,-2.41,-0.4,0,5
15867.25,0.026,-0.054,1.017,3.94,-2.5,-1.22,0,5
15867.265,0.022,-0.05,1.006,5.34,-2.87,-1.89,0,5
15867.281,0.02,-0.037,1.003,5.95,-3.36,-2.2,0,5
15867.281,0.029,-0.025,0.996,5.43,-3.6,-2.23,0,5
15867.296,0.032,-0.02,0.993,3.54,-3.36,-1.77,0,5
15867.312,0.03,-0.02,0.994,1.19,-2.62,-1.43,0,5
15867.312,0.024,-0.026,0.989,-0.58,-2.66,-1.43,0,5
15867.328,0.021,-0.033,0.986,-0.61,-3.3,-1.19,0,5
15867.343,0.026,-0.03,0.981,0.31,-3.2,-0.76,0,5
15867.343,0.029,-0.023,0.976,-0.12,-2.08,-0.82,0,5
15867.359,0.028,-0.022,0.982,-1.83,-0.79,-1.07,0,5
15867.375,0.021,-0.027,0.987,-2.72,-0.7,-0.79,0,5
15867.39,0.027,-0.024,0.995,-1.31,-2.14,0.24,0,5
15867.39,0.022,-0.033,0.991,0.06,-2.23,0.34,0,5
15867.406,0.024,-0.036,0.988,0.03,-2.81,0.34,0,5
15867.421,0.031,-0.034,0.984,-0.31,-3.02,0.0,0,5
15867.437,0.035,-0.038,0.973,-1.07,-2.38,-0.06,0,5
15867.437,0.037,-0.038,0.974,-1.28,-1.59,-0.12,0,5
15867.453,0.03,-0.036,0.974,-0.4,-1.13,-0.37,0,5
15867.453,0.026,-0.03,0.979,0.4,-1.07,-0.06,0,5
15867.468,0.024,-0.027,0.976,1.43,-1.25,0.43,0,5
15867.484,0.023,-0.023,0.97,2.93,-2.11,0.82,0,5
15867.484,0.02,-0.019,0.963,4.21,-2.53,1.31,0,5
15867.5,0.019,-0.023,0.954,5.65,-2.66,2.11,0,5
15867.515,0.018,-0.018,0.948,6.84,-2.47,3.27,0,5
15867.515,0.011,-0.015,0.94,7.54,-2.41,3.72,0,5
15867.531,0.003,-0.009,0.934,9.06,-3.2,4.24,0,5
15867.531,-0.006,0.009,0.911,12.33,-4.39,5.4,0,5
15867.546,-0.019,0.029,0.892,16.85,-5.16,6.84,0,5
15867.562,-0.031,0.034,0.898,22.06,-6.16,8.48,0,5
15867.562,-0.026,0.045,0.893,27.65,-7.69,10.93,0,5
15867.578,-0.007,0.058,0.883,35.55,-7.97,16.08,0,5
15867.593,-0.003,0.061,0.867,46.63,-8.03,21.94,0,5
15867.593,-0.001,0.059,0.855,58.38,-7.02,28.08,0,5
15867.609,-0.013,0.06,0.853,69.37,-4.21,33.94,0,5
15867.625,-0.037,0.045,0.844,80.14,-1.89,38.97,0,5
15867.625,-0.053,0.038,0.828,89.91,-0.06,43.09,0,5
15867.64,-0.078,0.039,0.802,98.12,1.98,46.36,0,5
15867.656,-0.103,0.033,0.769,106.3,4.15,48.59,0,5
15867.656,-0.11,0.027,0.734,114.41,6.62,50.78,0,5
15867.671,-0.126,0.029,0.7,121.98,9.43,52.31,0,5
15867.687,-0.151,0.037,0.655,128.45,12.54,52.89,0,5
15867.687,-0.164,0.052,0.615,131.44,16.63,53.35,0,5
15867.703,-0.173,0.066,0.593,130.86,22.19,54.63,0,5
15867.718,-0.201,0.085,0.58,127.57,27.77,55.67,0,5
15867.718,-0.231,0.09,0.57,121.89,30.88,55.73,0,5
15867.734,-0.231,0.096,0.555,116.31,31.56,55.7,0,5
15867.734,-0.215,0.102,0.539,109.81,29.69,55.54,0,5
15867.75,-0.188,0.105,0.523,102.3,26.86,54.63,0,5
15867.765,-0.147,0.111,0.507,93.14,24.66,53.29,0,5
15867.765,-0.123,0.13,0.488,82.16,24.99,50.17,0,5
15867.781,-0.129,0.139,0.479,69.77,28.47,44.04,0,5
15867.796,-0.147,0.135,0.485,57.92,33.94,36.96,0,5
15867.796,-0.143,0.122,0.497,48.98,39.12,30.67,0,5
15867.812,-0.115,0.117,0.506,44.16,42.97,25.45,0,5
15867.812,-0.125,0.128,0.51,43.4,48.52,20.39,0,5
15867.828,-0.111,0.136,0.506,44.37,54.29,15.2,0,5
15867.843,-0.079,0.149,0.502,44.47,59.48,10.38,0,5
15867.859,-0.071,0.166,0.503,43.55,65.89,5.19,0,5
15867.859,-0.087,0.182,0.524,41.23,74.4,-0.92,0,5
15867.875,-0.095,0.198,0.56,36.99,84.44,-7.78,0,5
15867.875,-0.088,0.214,0.602,31.04,94.58,-15.17,0,5
15867.906,-0.075,0.237,0.68,20.97,110.14,-28.38,0,5
15867.906,-0.063,0.248,0.705,18.04,114.72,-33.36,0,5
15867.921,-0.08,0.265,0.724,17.0,118.17,-38.88,0,5
15867.937,-0.123,0.276,0.746,18.25,121.77,-44.98,0,5
15867.937,-0.172,0.289,0.775,22.13,126.53,-51.97,0,5
15867.953,-0.2,0.317,0.814,27.65,133.12,-59.27,0,5
15867.953,-0.202,0.358,0.848,33.2,140.57,-65.46,0,5
15867.968,-0.194,0.411,0.871,37.75,147.16,-69.58,0,5
15867.984,-0.22,0.464,0.895,41.29,152.96,-71.08,0,5
15867.984,-0.266,0.496,0.928,43.15,156.35,-70.04,0,5
15868.0,-0.312,0.523,0.98,42.94,156.38,-68.18,0,5
15868.015,-0.374,0.562,1.041,41.51,152.2,-67.2,0,5
15868.015,-0.427,0.588,1.091,39.09,144.9,-66.38,0,5
15868.031,-0.461,0.595,1.142,34.49,136.91,-65.65,0,5
15868.046,-0.474,0.608,1.18,27.31,126.74,-64.82,0,5
15868.046,-0.454,0.638,1.192,17.98,114.93,-63.75,0,5
15868.062,-0.506,0.682,1.194,-3.45,95.74,-62.53,0,5
15868.078,-0.542,0.697,1.206,-12.88,87.71,-60.79,0,5
15868.093,-0.569,0.712,1.226,-17.79,80.17,-57.1,0,5
15868.093,-0.588,0.716,1.247,-17.79,73.0,-51.09,0,5
15868.109,-0.6,0.697,1.263,-12.36,65.98,-42.57,0,5
15868.125,-0.6,0.667,1.269,-1.89,58.2,-32.81,0,5
15868.125,-0.599,0.662,1.254,10.96,49.04,-23.44,0,5
15868.14,-0.615,0.667,1.216,22.61,39.28,-14.86,0,5
15868.156,-0.644,0.672,1.164,31.16,30.24,-7.2,0,5
15868.156,-0.681,0.694,1.119,35.68,22.71,1.56,0,5
15868.171,-0.699,0.709,1.095,36.68,14.8,12.09,0,5
15868.171,-0.697,0.692,1.072,36.81,6.29,22.64,0,5
15868.187,-0.686,0.664,1.059,38.18,-2.62,32.29,0,5
15868.203,-0.682,0.641,1.039,41.57,-11.96,40.31,0,5
15868.218,-0.686,0.619,1.012,46.88,-22.16,47.21,0,5
15868.218,-0.686,0.594,0.987,53.29,-34.03,52.64,0,5
15868.234,-0.682,0.571,0.954,59.57,-47.12,56.25,0,5
15868.234,-0.669,0.556,0.904,63.6,-59.82,57.25,0,5
15868.25,-0.648,0.553,0.843,62.96,-69.73,54.11,0,5
15868.265,-0.627,0.556,0.775,55.57,-74.89,47.15,0,5
15868.265,-0.601,0.569,0.726,40.77,-75.01,38.24,0,5
15868.281,-0.568,0.573,0.703,22.86,-70.77,29.33,0,5
15868.281,-0.545,0.572,0.691,8.06,-61.68,22.61,0,5
15868.296,-0.541,0.58,0.696,0.15,-49.81,19.04,0,5
15868.312,-0.531,0.593,0.723,-2.62,-40.28,17.82,0,5
15868.312,-0.524,0.592,0.756,-0.89,-34.0,17.64,0,5
15868.328,-0.52,0.58,0.779,3.97,-31.53,17.18,0,5
15868.343,-0.51,0.582,0.786,9.55,-32.14,16.21,0,5
15868.343,-0.498,0.6,0.769,11.84,-33.63,15.02,0,5
15868.359,-0.476,0.604,0.75,7.93,-34.21,13.86,0,5
15868.375,-0.449,0.598,0.728,-1.43,-32.56,12.02,0,5
15868.375,-0.423,0.592,0.715,-25.85,-20.81,8.15,0,5
15868.39,-0.408,0.572,0.709,-36.62,-13.28,4.55,0,5
15868.39,-0.385,0.544,0.716,-42.39,-4.39,-0.27,0,5
15868.406,-0.383,0.487,0.783,-42.54,4.3,-6.04,0,5
15868.421,-0.409,0.476,0.82,-36.87,10.68,-10.8,0,5
15868.437,-0.438,0.475,0.842,-27.5,13.89,-13.61,0,5
15868.437,-0.459,0.483,0.862,-17.46,13.92,-15.14,0,5
15868.453,-0.472,0.49,0.856,-8.94,10.93,-16.51,0,5
15868.453,-0.474,0.498,0.837,-2.78,7.05,-17.76,0,5
15868.468,-0.479,0.502,0.812,2.38,3.33,-19.44,0,5
15868.484,-0.484,0.506,0.785,7.66,-0.4,-21.52,0,5
15868.5,-0.501,0.527,0.773,13.86,-4.18,-23.68,0,5
15868.5,-0.526,0.556,0.774,22.0,-7.93,-24.02,0,5
15868.515,-0.568,0.591,0.811,32.35,-12.91,-20.84,0,5
15868.515,-0.592,0.597,0.83,42.63,-20.91,-12.94,0,5
15868.531,-0.611,0.623,0.845,50.9,-31.31,-1.89,0,5
15868.546,-0.578,0.612,0.811,58.44,-41.66,11.41,0,5
15868.546,-0.522,0.602,0.768,57.31,-48.31,22.46,0,5
15868.562,-0.467,0.595,0.744,46.36,-51.03,27.19,0,5
15868.562,-0.414,0.567,0.728,30.85,-50.17,25.82,0,5
15868.578,-0.397,0.529,0.727,14.83,-47.18,20.05,0,5
15868.593,-0.393,0.487,0.744,2.29,-44.28,12.79,0,5
15868.593,-0.384,0.449,0.764,-3.88,-42.09,5.28,0,5
15868.609,-0.378,0.43,0.767,-2.62,-40.1,-2.81,0,5
15868.625,-0.373,0.424,0.753,3.42,-37.66,-10.83,0,5
15868.625,-0.361,0.421,0.737,10.96,-34.27,-17.91,0,5
15868.64,-0.352,0.427,0.718,19.26,-29.48,-24.32,0,5
15868.656,-0.347,0.445,0.699,26.89,-22.71,-29.48,0,5
15868.656,-0.349,0.468,0.673,30.58,-14.8,-32.96,0,5
15868.671,-0.358,0.51,0.657,27.95,-7.93,-35.31,0,5
15868.671,-0.375,0.542,0.645,20.57,-2.99,-36.84,0,5
15868.687,-0.398,0.561,0.639,9.86,-0.43,-37.26,0,5
15868.703,-0.412,0.566,0.643,-1.13,0.64,-35.16,0,5
15868.718,-0.423,0.567,0.65,-9.06,1.34,-30.46,0,5
15868.718,-0.418,0.565,0.653,-13.31,2.08,-24.54,0,5
15868.734,-0.405,0.559,0.66,-13.98,3.91,-18.49,0,5
15868.734,-0.395,0.551,0.665,-12.42,7.39,-12.94,0,5
15868.75,-0.388,0.541,0.669,-10.53,11.57,-8.79,0,5
15868.765,-0.389,0.536,0.679,-8.85,15.78,-6.26,0,5
15868.781,-0.406,0.537,0.701,-7.17,18.37,-4.97,0,5
15868.781,-0.428,0.534,0.729,-6.53,17.73,-4.3,0,5
15868.781,-0.44,0.534,0.758,-6.65,13.67,-3.66,0,5
15868.796,-0.448,0.543,0.777,-6.13,8.03,-2.53,0,5
15868.812,-0.441,0.544,0.779,-5.22,2.35,-0.79,0,5
15868.812,-0.427,0.54,0.777,-5.77,-2.41,0.24,0,5
15868.828,-0.417,0.53,0.768,-6.44,-6.13,-0.12,0,5
15868.843,-0.412,0.523,0.759,-6.29,-7.84,-1.59,0,5
15868.843,-0.417,0.518,0.763,-5.89,-7.75,-3.57,0,5
15868.859,-0.426,0.516,0.778,-5.19,-7.69,-5.31,0,5
15868.875,-0.441,0.515,0.786,-2.81,-8.3,-5.46,0,5
15868.875,-0.449,0.523,0.788,-0.61,-9.77,-3.81,0,5
15868.89,-0.451,0.533,0.783,0.61,-12.33,-1.74,0,5
15868.89,-0.438,0.527,0.77,0.4,-15.41,-0.18,0,5
15868.906,-0.426,0.521,0.754,-1.31,-17.58,0.06,0,5
15868.921,-0.417,0.51,0.735,-3.27,-17.88,-0.67,0,5
15868.921,-0.413,0.496,0.72,-4.79,-16.36,-1.8,0,5
15868.937,-0.409,0.491,0.712,-5.83,-13.7,-3.39,0,5
15868.953,-0.41,0.493,0.714,-6.74,-10.44,-4.97,0,5
15868.953,-0.422,0.5,0.727,-7.78,-7.29,-6.29,0,5
15868.968,-0.445,0.51,0.742,-8.7,-5.55,-6.84,0,5
15868.984,-0.472,0.516,0.763,-9.09,-5.86,-5.43,0,5
15868.984,-0.47,0.521,0.78,-10.59,-9.37,-3.2,0,5
15869.0,-0.448,0.504,0.776,-12.15,-13.7,-2.17,0,5
15869.015,-0.432,0.491,0.766,-14.89,-17.55,-2.87,0,5
15869.015,-0.415,0.485,0.754,-16.39,-19.99,-3.94,0,5
15869.031,-0.412,0.484,0.747,-15.9,-19.99,-4.27,0,5
15869.031,-0.418,0.502,0.749,-15.63,-18.52,-3.66,0,5
15869.046,-0.414,0.502,0.756,-17.0,-17.85,-2.96,0,5
15869.062,-0.405,0.496,0.764,-19.99,-17.98,-3.33,0,5
15869.062,-0.394,0.483,0.763,-22.4,-17.46,-4.12,0,5
15869.078,-0.38,0.463,0.776,-25.61,-16.97,-5.04,0,5
15869.093,-0.375,0.448,0.785,-27.01,-16.82,-6.74,0,5
15869.093,-0.376,0.425,0.782,-23.74,-15.72,-8.36,0,5
15869.109,-0.374,0.416,0.783,-18.01,-13.92,-9.8,0,5
15869.125,-0.377,0.418,0.783,-9.98,-11.75,-10.77,0,5
15869.125,-0.377,0.42,0.774,-2.32,-9.92,-11.57,0,5
15869.14,-0.373,0.433,0.761,2.62,-8.09,-12.76,0,5
15869.156,-0.376,0.445,0.748,4.61,-5.77,-13.98,0,5
15869.156,-0.378,0.459,0.739,4.21,-3.45,-14.5,0,5
15869.171,-0.375,0.461,0.708,2.93,-0.73,-13.64,0,5
15869.171,-0.364,0.465,0.67,-0.64,3.17,-12.54,0,5
15869.187,-0.366,0.485,0.678,-5.37,9.37,-11.44,0,5
15869.203,-0.408,0.502,0.702,-7.45,15.72,-8.15,0,5
15869.218,-0.381,0.485,0.69,-10.68,18.59,-3.33,0,5
15869.218,-0.391,0.454,0.706,-15.14,23.16,-2.96,0,5
15869.234,-0.591,0.565,0.873,-18.62,24.14,-0.4,0,5
15869.234,-0.535,0.603,0.95,-26.46,7.84,8.18,0,5
15869.25,-0.444,0.498,0.881,-30.37,-7.72,10.96,0,5
15869.265,-0.39,0.433,0.833,-30.24,-10.07,10.38,0,5
15869.265,-0.374,0.402,0.847,-22.19,-5.58,7.45,0,5
15869.281,-0.395,0.376,0.866,-8.18,-1.5,3.66,0,5
15869.296,-0.412,0.401,0.881,3.78,-1.71,1.19,0,5
15869.296,-0.411,0.431,0.869,11.75,-5.37,0.09,0,5
15869.312,-0.398,0.44,0.844,14.86,-9.83,0.15,0,5
15869.328,-0.383,0.453,0.827,13.4,-13.64,0.12,0,5
15869.328,-0.379,0.475,0.814,9.4,-15.96,0.18,0,5
15869.343,-0.41,0.489,0.826,4.06,-17.43,1.53,0,5
15869.359,-0.418,0.486,0.827,-4.52,-22.03,3.6,0,5
15869.359,-0.331,0.485,0.765,-6.47,-16.63,10.1,0,5
15869.375,-0.345,0.44,0.716,-9.7,-11.41,10.83,0,5
15869.375,-0.374,0.445,0.772,-16.79,-12.6,8.76,0,5
15869.39,-0.329,0.452,0.787,-15.69,-9.58,6.23,0,5
15869.406,-0.33,0.392,0.755,-14.25,-4.7,3.36,0,5
15869.406,-0.339,0.383,0.774,-9.31,-0.64,0.61,0,5
15869.421,-0.348,0.386,0.778,-1.71,1.89,-1.19,0,5
15869.437,-0.349,0.402,0.783,5.52,3.45,-1.98,0,5
15869.437,-0.362,0.419,0.776,10.9,4.36,-2.17,0,5
15869.453,-0.37,0.432,0.769,12.36,4.06,-1.74,0,5
15869.453,-0.377,0.448,0.772,10.01,3.05,-1.19,0,5
15869.468,-0.386,0.464,0.775,5.22,1.31,-0.49,0,5
15869.484,-0.395,0.476,0.781,-0.98,-0.46,0.46,0,5
15869.484,-0.399,0.469,0.787,-6.99,-2.23,1.92,0,5
15869.5,-0.396,0.455,0.794,-11.35,-3.66,3.42,0,5
15869.515,-0.392,0.45,0.795,-12.73,-4.03,4.39,0,5
15869.515,-0.386,0.444,0.792,-12.09,-3.45,4.61,0,5
15869.531,-0.387,0.438,0.795,-10.41,-2.41,3.81,0,5
15869.531,-0.386,0.435,0.798,-7.87,-1.19,2.84,0,5
15869.546,-0.383,0.434,0.802,-4.67,0.46,2.26,0,5
15869.562,-0.394,0.437,0.804,-1.34,2.14,2.26,0,5
15869.562,-0.4,0.439,0.806,1.4,2.72,3.08,0,5
15869.578,-0.398,0.443,0.811,2.66,2.26,4.12,0,5
15869.593,-0.398,0.453,0.818,2.44,1.22,4.94,0,5
15869.593,-0.399,0.459,0.825,0.46,-1.19,5.77,0,5
15869.609,-0.386,0.46,0.829,-3.11,-4.52,6.41,0,5
15869.625,-0.373,0.451,0.825,-6.16,-7.08,6.2,0,5
15869.625,-0.363,0.436,0.821,-7.39,-7.69,5.31,0,5
15869.64,-0.356,0.43,0.815,-6.2,-6.84,4.46,0,5
15869.656,-0.351,0.427,0.809,-2.93,-5.19,3.33,0,5
15869.656,-0.346,0.429,0.803,1.22,-3.08,2.17,0,5
15869.671,-0.342,0.441,0.796,4.7,-0.85,1.16,0,5
15869.687,-0.342,0.459,0.794,6.71,0.79,0.46,0,5
15869.687,-0.338,0.475,0.795,7.11,1.34,0.79,0,5
15869.703,-0.328,0.489,0.8,6.68,1.92,2.23,0,5
15869.703,-0.327,0.494,0.801,6.35,3.36,4.33,0,5
15869.718,-0.328,0.493,0.805,5.01,4.46,6.93,0,5
15869.734,-0.326,0.486,0.808,2.5,4.82,8.82,0,5
15869.734,-0.322,0.478,0.811,-0.58,4.24,9.74,0,5
15869.75,-0.312,0.463,0.815,-3.51,3.97,9.95,0,5
15869.765,-0.31,0.44,0.813,-5.37,5.49,9.89,0,5
15869.781,-0.315,0.437,0.809,-5.77,6.5,9.64,0,5
15869.781,-0.32,0.439,0.805,-6.56,7.81,9.16,0,5
15869.796,-0.326,0.438,0.81,-7.51,9.03,8.58,0,5
15869.812,-0.342,0.439,0.825,-7.66,9.43,8.09,0,5
15869.828,-0.347,0.438,0.824,-6.2,9.03,8.33,0,5
15869.828,-0.344,0.434,0.825,-4.39,9.09,9.09,0,5
15869.843,-0.349,0.421,0.838,-2.69,9.22,9.31,0,5
15869.843,-0.355,0.428,0.832,-1.34,8.51,9.22,0,5
15869.859,-0.35,0.442,0.826,1.4,8.21,10.56,0,5
15869.875,-0.357,0.438,0.824,3.27,8.67,11.02,0,5
15869.875,-0.36,0.441,0.818,2.72,8.45,10.9,0,5
15869.89,-0.347,0.453,0.797,2.11,8.55,11.54,0,5
15869.906,-0.335,0.458,0.775,1.34,10.53,12.09,0,5
15869.906,-0.337,0.452,0.769,-0.98,13.64,11.81,0,5
15869.921,-0.342,0.447,0.769,-3.75,16.17,11.29,0,5
15869.937,-0.344,0.437,0.772,-10.04,20.05,8.73,0,5
15869.953,-0.352,0.429,0.775,-13.37,21.39,6.93,0,5
15869.968,-0.363,0.425,0.781,-17.18,21.85,4.88,0,5
15869.968,-0.374,0.422,0.793,-20.29,21.15,3.02,0,5
15869.984,-0.383,0.42,0.803,-22.0,19.07,1.86,0,5
15869.984,-0.385,0.416,0.8,-21.94,17.09,1.5,0,5
15870.0,-0.388,0.414,0.8,-20.33,15.78,2.01,0,5
15870.015,-0.388,0.415,0.804,-17.67,15.32,2.96,0,5
15870.031,-0.39,0.411,0.801,-15.02,15.93,3.85,0,5
15870.031,-0.396,0.408,0.794,-13.82,16.51,4.24,0,5
15870.031,-0.396,0.407,0.781,-14.83,16.39,4.06,0,5
15870.046,-0.393,0.407,0.773,-17.49,16.27,3.14,0,5
15870.062,-0.399,0.404,0.776,-20.39,15.9,1.65,0,5
15870.062,-0.413,0.41,0.783,-23.1,15.78,1.07,0,5
15870.078,-0.423,0.439,0.776,-23.65,16.57,3.39,0,5
15870.093,-0.426,0.439,0.774,-22.52,17.91,7.93,0,5
15870.109,-0.425,0.41,0.789,-23.62,15.17,11.2,0,5
15870.125,-0.445,0.376,0.774,-19.14,15.84,12.39,0,5
15870.14,-0.437,0.387,0.766,-19.93,15.08,12.76,0,5
15870.14,-0.443,0.395,0.779,-19.87,17.27,12.91,0,5
15870.156,-0.468,0.443,0.79,-23.01,18.46,15.41,0,5
15870.156,-0.467,0.434,0.783,-26.18,17.64,16.69,0,5
15870.171,-0.479,0.374,0.755,-27.71,17.21,17.43,0,5
15870.187,-0.484,0.355,0.759,-29.33,16.75,18.86,0,5
15870.187,-0.501,0.365,0.767,-30.58,14.1,16.42,0,5
15870.203,-0.489,0.363,0.754,-31.68,10.5,16.02,0,5
15870.203,-0.445,0.362,0.728,-34.27,8.7,16.45,0,5
15870.218,-0.439,0.356,0.714,-37.39,11.05,14.56,0,5
15870.234,-0.448,0.347,0.716,-39.95,14.68,13.92,0,5
15870.234,-0.456,0.328,0.723,-43.46,16.36,12.6,0,5
15870.25,-0.457,0.296,0.768,-50.54,16.11,8.39,0,5
15870.265,-0.479,0.284,0.825,-60.09,13.82,0.82,0,5
15870.281,-0.644,0.41,1.029,-64.3,10.9,-4.43,0,5
15870.281,-0.579,0.309,1.075,-55.45,-3.11,4.3,0,5
15870.296,-0.516,0.312,0.999,-54.54,-16.24,4.7,0,5
15870.312,-0.496,0.305,0.966,-54.26,-18.46,2.56,0,5
15870.312,-0.483,0.233,0.951,-44.86,-14.37,1.04,0,5
15870.328,-0.492,0.181,0.915,-29.36,-8.39,-0.21,0,5
15870.343,-0.503,0.176,0.889,1.22,-2.56,-6.5,0,5
15870.359,-0.53,0.165,0.883,14.25,-4.79,-8.03,0,5
15870.359,-0.546,0.182,0.855,23.13,-10.01,-9.31,0,5
15870.375,-0.582,0.225,0.859,28.63,-17.4,-7.9,0,5
15870.375,-0.609,0.295,0.872,26.12,-25.67,-5.4,0,5
15870.39,-0.5,0.157,0.76,19.84,-37.87,-10.77,0,5
15870.406,-0.565,0.221,0.724,1.4,-43.64,-25.97,0,5
15870.406,-0.529,0.164,0.807,-7.08,-47.12,-35.74,0,5
15870.421,-0.49,0.132,0.806,-7.26,-53.9,-44.71,0,5
15870.421,-0.45,0.148,0.776,-5.34,-57.86,-52.67,0,5
15870.453,-0.409,0.113,0.782,6.65,-52.64,-66.38,0,5
15870.468,-0.387,0.166,0.789,14.95,-44.71,-68.24,0,5
15870.468,-0.344,0.235,0.775,24.11,-36.56,-66.84,0,5
15870.484,-0.336,0.269,0.767,29.05,-29.6,-64.73,0,5
15870.484,-0.332,0.294,0.766,27.38,-24.66,-63.6,0,5
15870.5,-0.318,0.334,0.769,21.3,-19.99,-62.01,0,5
15870.515,-0.314,0.369,0.784,14.53,-15.35,-58.63,0,5
15870.515,-0.322,0.372,0.8,8.55,-12.3,-53.38,0,5
15870.531,-0.324,0.361,0.812,3.94,-10.68,-47.3,0,5
15870.531,-0.312,0.347,0.829,1.59,-9.64,-41.38,0,5
15870.546,-0.302,0.335,0.833,3.14,-7.97,-35.37,0,5
15870.562,-0.298,0.334,0.826,8.45,-5.16,-29.36,0,5
15870.578,-0.291,0.35,0.829,13.21,-1.4,-24.38,0,5
15870.578,-0.321,0.38,0.868,18.22,3.17,-18.95,0,5
15870.593,-0.369,0.492,0.951,18.59,3.57,-9.0,0,5
15870.593,-0.345,0.529,0.966,8.33,-1.68,4.88,0,5
15870.609,-0.333,0.46,0.959,-4.21,-7.23,11.93,0,5
15870.625,-0.337,0.441,0.972,-15.32,-10.35,16.54,0,5
15870.625,-0.315,0.385,0.964,-20.97,-12.27,18.46,0,5
15870.64,-0.324,0.328,0.963,-21.06,-11.66,16.63,0,5
15870.656,-0.333,0.291,0.973,-16.36,-10.74,13.73,0,5
15870.656,-0.345,0.261,0.975,-6.53,-11.35,10.71,0,5
15870.671,-0.354,0.243,0.97,6.32,-11.93,9.95,0,5
15870.671,-0.362,0.238,0.948,20.75,-11.54,12.39,0,5
15870.687,-0.361,0.193,0.923,36.77,-10.32,16.21,0,5
15870.703,-0.422,0.26,0.945,44.65,-12.48,13.86,0,5
15870.703,-0.382,0.325,0.933,39.28,-17.33,11.69,0,5
15870.718,-0.347,0.29,0.9,32.04,-19.04,6.9,0,5
15870.734,-0.365,0.296,0.893,22.34,-17.27,2.26,0,5
15870.75,-0.37,0.33,0.861,17.06,-13.34,0.43,0,5
15870.75,-0.357,0.347,0.841,15.02,-6.96,2.62,0,5
15870.765,-0.375,0.313,0.838,15.44,-0.98,4.06,0,5
15870.765,-0.393,0.276,0.85,16.02,0.61,2.84,0,5
15870.781,-0.404,0.285,0.871,19.47,-0.79,1.01,0,5
15870.796,-0.419,0.312,0.877,25.88,-4.27,-0.79,0,5
15870.796,-0.419,0.345,0.873,29.54,-9.28,-1.53,0,5
15870.812,-0.42,0.407,0.841,26.34,-14.34,-1.37,0,5
15870.812,-0.303,0.37,0.793,12.02,-15.69,1.5,0,5
15870.828,-0.307,0.239,0.85,-1.04,-11.26,-5.4,0,5
15870.843,-0.355,0.341,0.86,-7.63,-12.05,-10.71,0,5
15870.843,-0.347,0.371,0.863,-3.75,-10.56,-2.35,0,5
15870.859,-0.325,0.318,0.843,-1.4,-7.05,2.04,0,5
15870.875,-0.336,0.319,0.855,-3.2,-5.04,1.34,0,5
15870.875,-0.339,0.307,0.855,-0.73,-3.51,0.34,0,5
15870.89,-0.341,0.302,0.841,3.14,-2.44,-2.41,0,5
15870.906,-0.342,0.314,0.828,5.95,-1.16,-5.25,0,5
15870.906,-0.342,0.317,0.819,7.66,0.18,-8.27,0,5
15870.921,-0.346,0.314,0.82,7.48,0.82,-11.29,0,5
15870.921,-0.349,0.33,0.823,5.49,1.04,-12.85,0,5
15870.937,-0.347,0.34,0.829,2.35,1.1,-12.88,0,5
15870.953,-0.353,0.336,0.836,-0.43,1.13,-11.51,0,5
15870.953,-0.355,0.342,0.843,-3.6,0.85,-9.28,0,5
15870.968,-0.351,0.339,0.848,-6.78,0.61,-6.59,0,5
15870.984,-0.347,0.326,0.85,-9.55,0.46,-4.33,0,5
15870.984,-0.345,0.315,0.855,-11.08,0.58,-3.02,0,5
15871.0,-0.34,0.303,0.856,-10.53,1.04,-2.32,0,5
15871.015,-0.333,0.294,0.854,-8.94,2.38,-2.14,0,5
15871.015,-0.334,0.295,0.861,-6.1,4.82,-2.29,0,5
15871.031,-0.343,0.295,0.867,-2.35,7.08,-2.66,0,5
15871.031,-0.347,0.298,0.867,0.49,8.18,-3.05,0,5
15871.046,-0.359,0.304,0.874,1.86,8.33,-3.78,0,5
15871.062,-0.375,0.309,0.893,2.96,7.02,-4.64,0,5
15871.062,-0.386,0.33,0.904,2.81,3.42,-4.43,0,5
15871.078,-0.375,0.341,0.907,1.07,-1.16,-3.2,0,5
15871.093,-0.369,0.33,0.895,-0.85,-4.52,-1.95,0,5
15871.093,-0.361,0.329,0.88,-2.26,-6.04,-0.98,0,5
15871.109,-0.355,0.326,0.878,-3.94,-6.26,-0.82,0,5
15871.125,-0.353,0.311,0.868,-2.96,-4.12,-1.07,0,5
15871.14,-0.352,0.312,0.864,-1.37,-2.35,-2.04,0,5
15871.14,-0.362,0.313,0.865,0.18,-0.55,-3.2,0,5
15871.156,-0.369,0.324,0.859,2.08,0.92,-3.81,0,5
15871.171,-0.371,0.335,0.855,2.93,2.35,-3.81,0,5
15871.171,-0.379,0.34,0.863,2.62,3.14,-3.81,0,5
15871.187,-0.396,0.342,0.874,2.47,2.78,-3.3,0,5
15871.203,-0.397,0.347,0.885,2.01,1.13,-2.14,0,5
15871.203,-0.392,0.344,0.884,1.95,-1.04,-0.7,0,5
15871.218,-0.387,0.334,0.873,2.44,-2.75,0.82,0,5
15871.234,-0.38,0.326,0.868,2.84,-3.48,2.2,0,5
15871.234,-0.369,0.322,0.864,3.17,-4.27,2.69,0,5
15871.25,-0.357,0.318,0.848,2.01,-4.73,2.14,0,5
15871.265,-0.348,0.314,0.84,-0.24,-4.24,1.22,0,5
15871.265,-0.343,0.307,0.835,-1.59,-2.84,0.61,0,5
15871.281,-0.341,0.304,0.835,-2.08,-0.49,0.37,0,5
15871.296,-0.351,0.308,0.849,-3.54,3.75,-0.24,0,5
15871.312,-0.356,0.305,0.862,-4.15,4.49,-0.49,0,5
15871.312,-0.361,0.303,0.874,-4.33,4.49,-0.95,0,5
15871.328,-0.37,0.294,0.885,-1.01,2.08,-1.07,0,5
15871.343,-0.378,0.288,0.892,1.46,-0.49,-1.37,0,5
15871.343,-0.378,0.284,0.895,5.68,-2.75,-1.25,0,5
15871.359,-0.371,0.285,0.883,12.54,-2.96,0.98,0,5
15871.375,-0.364,0.294,0.878,19.65,-1.89,4.06,0,5
15871.375,-0.364,0.284,0.87,24.9,-0.95,6.96,0,5
15871.39,-0.343,0.309,0.842,23.53,-0.82,7.97,0,5
15871.406,-0.339,0.281,0.829,24.72,1.65,5.68,0,5
15871.406,-0.414,0.372,0.891,19.53,1.1,1.74,0,5
15871.421,-0.394,0.424,0.917,5.49,-6.38,1.34,0,5
15871.437,-0.37,0.378,0.888,-3.2,-12.02,1.77,0,5
15871.437,-0.358,0.403,0.866,-10.41,-11.26,4.33,0,5
15871.453,-0.37,0.395,0.895,-11.35,-8.27,7.29,0,5
15871.468,-0.435,0.343,0.949,6.74,-11.57,13.82,0,5
15871.484,-0.417,0.321,0.919,18.98,-18.71,18.1,0,5
15871.484,-0.383,0.328,0.9,25.79,-24.75,20.54,0,5
15871.5,-0.341,0.368,0.846,23.53,-27.89,19.2,0,5
15871.515,-0.315,0.352,0.81,13.7,-28.05,15.84,0,5
15871.515,-0.326,0.359,0.819,-1.68,-27.62,11.35,0,5
15871.531,-0.23,0.378,0.768,-15.2,-23.29,10.19,0,5
15871.531,-0.248,0.288,0.755,-13.0,-9.28,9.55,0,5
15871.546,-0.304,0.356,0.821,-14.25,0.82,10.65,0,5
15871.562,-0.288,0.367,0.852,-18.92,5.07,10.9,0,5
15871.578,-0.305,0.28,0.876,-16.24,6.38,6.93,0,5
15871.578,-0.335,0.3,0.889,-9.49,6.99,5.28,0,5
15871.593,-0.327,0.33,0.889,-1.4,6.38,4.49,0,5
15871.593,-0.325,0.336,0.891,2.26,4.03,2.44,0,5
15871.609,-0.321,0.349,0.884,1.19,1.31,-0.09,0,5
15871.625,-0.312,0.357,0.876,-2.14,-0.52,-2.23,0,5
15871.625,-0.305,0.354,0.874,-5.13,-1.07,-2.81,0,5
15871.64,-0.301,0.343,0.869,-6.44,-0.61,-2.17,0,5
15871.656,-0.3,0.334,0.866,-6.41,0.34,-1.65,0,5
15871.656,-0.3,0.328,0.862,-5.58,1.53,-1.53,0,5
15871.671,-0.299,0.324,0.853,-4.46,2.69,-1.77,0,5
15871.687,-0.304,0.325,0.853,-4.03,4.03,-2.56,0,5
15871.687,-0.316,0.327,0.862,-4.43,4.33,-3.69,0,5
15871.703,-0.326,0.33,0.866,-5.28,3.3,-4.43,0,5
15871.703,-0.326,0.329,0.871,-6.26,1.89,-4.36,0,5
15871.718,-0.323,0.328,0.87,-7.26,0.79,-4.09,0,5
15871.734,-0.324,0.325,0.868,-7.84,0.21,-3.81,0,5
15871.734,-0.329,0.32,0.868,-8.18,0.15,-3.81,0,5
15871.75,-0.33,0.32,0.866,-8.36,0.09,-3.91,0,5
15871.765,-0.328,0.316,0.864,-8.15,0.46,-4.3,0,5
15871.765,-0.33,0.31,0.863,-6.99,1.22,-4.61,0,5
15871.781,-0.332,0.312,0.87,-5.31,1.8,-4.58,0,5
15871.796,-0.331,0.318,0.875,-3.97,1.89,-4.3,0,5
15871.796,-0.325,0.315,0.877,-4.15,1.43,-3.69,0,5
15871.812,-0.33,0.314,0.882,-6.29,1.04,-3.2,0,5
15871.812,-0.337,0.313,0.888,-9.09,0.18,-3.08,0,5
15871.828,-0.338,0.308,0.887,-11.29,-1.16,-3.23,0,5
15871.843,-0.337,0.301,0.884,-12.24,-1.83,-4.0,0,5
15871.843,-0.338,0.3,0.882,-11.78,-1.62,-4.91,0,5
15871.859,-0.344,0.299,0.884,-9.89,-0.92,-5.77,0,5
15871.875,-0.348,0.304,0.883,-7.08,-0.34,-6.29,0,5
15871.89,-0.354,0.315,0.88,-4.46,0.31,-6.29,0,5
15871.89,-0.356,0.323,0.879,-3.11,0.52,-6.1,0,5
15871.89,-0.356,0.329,0.875,-2.84,0.73,-5.52,0,5
15871.906,-0.358,0.334,0.867,-3.6,0.7,-4.52,0,5
15871.921,-0.358,0.332,0.863,-5.13,0.49,-3.14,0,5
15871.921,-0.359,0.329,0.863,-6.81,0.15,-1.89,0,5
15871.937,-0.354,0.323,0.866,-8.67,-0.61,-0.73,0,5
15871.953,-0.346,0.32,0.872,-10.1,-1.1,0.46,0,5
15871.953,-0.345,0.313,0.877,-10.53,-1.07,1.31,0,5
15871.968,-0.341,0.306,0.879,-10.62,-1.19,2.08,0,5
15871.984,-0.335,0.301,0.882,-10.38,-0.95,2.41,0,5
15871.984,-0.336,0.293,0.884,-9.25,-0.37,2.29,0,5
15872.0,-0.336,0.285,0.882,-8.09,0.21,1.83,0,5
15872.015,-0.332,0.281,0.88,-7.29,0.67,1.71,0,5
15872.015,-0.33,0.276,0.879,-6.78,1.25,1.65,0,5
15872.031,-0.333,0.272,0.882,-6.74,1.62,1.31,0,5
15872.046,-0.34,0.273,0.889,-6.99,1.59,0.95,0,5
15872.046,-0.349,0.28,0.896,-7.39,1.19,0.7,0,5
15872.062,-0.357,0.287,0.908,-7.63,0.24,0.76,0,5
15872.062,-0.358,0.292,0.911,-8.0,-1.07,0.7,0,5
15872.078,-0.355,0.292,0.905,-8.33,-2.14,0.85,0,5
15872.093,-0.352,0.288,0.898,-8.24,-2.44,0.76,0,5
15872.093,-0.35,0.278,0.894,-7.42,-2.08,0.49,0,5
15872.109,-0.347,0.271,0.893,-5.86,-1.59,0.27,0,5
15872.125,-0.347,0.266,0.889,-4.12,-1.07,-0.27,0,5
15872.125,-0.342,0.258,0.886,-2.11,-0.61,-1.37,0,5
15872.14,-0.336,0.259,0.88,-0.4,-0.43,-2.53,0,5
15872.156,-0.343,0.285,0.881,-0.24,-0.06,-3.85,0,5
15872.171,-0.348,0.285,0.884,-1.01,-0.67,-3.72,0,5
15872.187,-0.355,0.286,0.884,-1.04,-1.25,-3.11,0,5
15872.187,-0.354,0.284,0.876,-0.12,-2.08,-2.29,0,5
15872.203,-0.347,0.284,0.858,0.79,-2.41,-1.89,0,5
15872.203,-0.337,0.28,0.841,1.53,-1.46,-1.92,0,5
15872.218,-0.339,0.271,0.846,2.9,0.15,-2.2,0,5
15872.234,-0.339,0.256,0.831,7.05,2.62,-1.22,0,5
15872.234,-0.338,0.253,0.808,13.28,6.07,1.19,0,5
15872.25,-0.343,0.248,0.803,18.59,9.55,3.11,0,5
15872.265,-0.367,0.268,0.834,18.71,10.53,3.54,0,5
15872.265,-0.367,0.293,0.873,15.5,7.66,3.45,0,5
15872.281,-0.331,0.311,0.851,11.78,5.95,4.27,0,5
15872.281,-0.383,0.287,0.856,9.77,6.93,4.39,0,5
15872.296,-0.424,0.422,0.953,-7.11,1.43,4.55,0,5
15872.312,-0.372,0.412,0.975,-25.21,-9.4,9.61,0,5
15872.328,-0.36,0.348,0.965,-24.66,-7.05,10.99,0,5
15872.343,-0.356,0.308,0.981,-15.56,-4.73,7.63,0,5
15872.359,-0.375,0.266,0.98,-3.66,-3.75,4.0,0,5
15872.359,-0.379,0.275,0.952,10.07,-2.99,1.83,0,5
15872.375,-0.372,0.28,0.922,20.26,-2.11,1.46,0,5
15872.375,-0.372,0.288,0.898,25.36,-2.35,0.12,0,5
15872.39,-0.369,0.292,0.872,26.58,-2.84,0.21,0,5
15872.406,-0.371,0.311,0.849,23.41,-3.78,1.19,0,5
15872.406,-0.366,0.328,0.86,14.07,-6.16,1.92,0,5
15872.421,-0.298,0.314,0.808,5.68,-7.51,2.96,0,5
15872.437,-0.311,0.241,0.797,5.62,-2.11,4.49,0,5
15872.437,-0.337,0.322,0.819,1.83,1.04,5.22,0,5
15872.453,-0.327,0.384,0.834,-1.59,1.86,9.89,0,5
15872.453,-0.315,0.29,0.831,-2.99,5.16,12.57,0,5
15872.468,-0.314,0.259,0.85,-7.84,4.82,8.94,0,5
15872.484,-0.331,0.284,0.872,-9.37,3.78,5.46,0,5
15872.5,-0.321,0.275,0.887,-6.41,2.01,3.05,0,5
15872.515,-0.312,0.272,0.886,-6.84,0.95,0.24,0,5
15872.515,-0.312,0.28,0.888,-6.44,0.73,-1.71,0,5
15872.531,-0.309,0.275,0.892,-5.37,1.1,-2.01,0,5
15872.531,-0.309,0.272,0.895,-4.09,1.59,-1.74,0,5
15872.546,-0.313,0.279,0.892,-2.9,2.11,-1.53,0,5
15872.562,-0.313,0.279,0.892,-2.35,2.5,-1.65,0,5
15872.562,-0.322,0.277,0.903,-2.14,2.41,-2.2,0,5
15872.578,-0.337,0.281,0.907,-0.92,1.92,-2.41,0,5
15872.593,-0.342,0.292,0.905,0.55,0.7,-1.83,0,5
15872.593,-0.342,0.299,0.902,0.92,-0.7,-1.59,0,5
15872.609,-0.344,0.302,0.897,0.21,-1.89,-1.68,0,5
15872.625,-0.345,0.305,0.888,-1.13,-2.59,-1.53,0,5
15872.625,-0.347,0.303,0.88,-2.29,-2.59,-1.46,0,5
15872.64,-0.348,0.299,0.878,-3.14,-2.04,-1.5,0,5
15872.656,-0.345,0.295,0.877,-3.42,-1.37,-1.5,0,5
15872.656,-0.344,0.291,0.88,-2.84,-0.67,-1.37,0,5
15872.671,-0.35,0.294,0.885,-1.37,0.03,-0.92,0,5
15872.687,-0.357,0.304,0.891,0.09,0.24,-0.06,0,5
15872.687,-0.358,0.306,0.891,-0.12,-1.22,0.58,0,5
15872.703,-0.354,0.307,0.889,-2.04,-3.11,0.82,0,5
15872.703,-0.353,0.306,0.883,-4.15,-4.15,0.98,0,5
15872.718,-0.351,0.298,0.878,-5.89,-4.24,1.34,0,5
15872.734,-0.351,0.291,0.872,-6.5,-3.66,1.68,0,5
15872.75,-0.356,0.286,0.87,-6.04,-2.41,1.65,0,5
15872.75,-0.368,0.286,0.873,-5.22,-1.07,1.22,0,5
15872.75,-0.375,0.289,0.877,-4.39,-0.61,0.73,0,5
15872.765,-0.376,0.292,0.877,-3.51,-0.61,0.55,0,5
15872.781,-0.378,0.295,0.88,-2.5,-0.03,0.7,0,5
15872.781,-0.393,0.301,0.888,-1.71,1.28,0.85,0,5
15872.796,-0.418,0.306,0.901,-1.4,2.26,1.16,0,5
15872.812,-0.443,0.31,0.916,-1.28,2.53,1.86,0,5
15872.828,-0.47,0.313,0.937,-1.5,2.23,2.17,0,5
15872.828,-0.502,0.307,0.951,-0.67,1.4,2.11,0,5
15872.843,-0.525,0.297,0.948,1.53,-0.52,1.68,0,5
15872.859,-0.536,0.295,0.933,4.82,-2.93,0.85,0,5
15872.859,-0.544,0.296,0.909,8.79,-4.55,-0.12,0,5
15872.875,-0.553,0.299,0.888,12.73,-5.01,-1.07,0,5
15872.875,-0.577,0.303,0.869,16.85,-5.16,-1.5,0,5
15872.89,-0.597,0.311,0.849,21.12,-5.52,-0.67,0,5
15872.906,-0.61,0.331,0.824,24.17,-5.71,0.58,0,5
15872.906,-0.626,0.345,0.798,25.54,-5.16,1.92,0,5
15872.921,-0.643,0.348,0.782,25.36,-3.33,3.39,0,5
15872.937,-0.68,0.358,0.788,24.26,-0.76,4.88,0,5
15872.937,-0.721,0.362,0.804,24.72,0.18,7.29,0,5
15872.953,-0.74,0.354,0.793,27.92,-1.4,11.29,0,5
15872.953,-0.725,0.356,0.759,31.59,-3.57,15.75,0,5
15872.968,-0.695,0.365,0.724,33.78,-3.85,18.98,0,5
15872.984,-0.678,0.365,0.698,34.03,-2.35,20.97,0,5
15873.0,-0.668,0.351,0.666,32.99,-0.24,22.98,0,5
15873.0,-0.653,0.346,0.643,30.7,3.45,26.12,0,5
15873.015,-0.64,0.34,0.622,28.14,8.45,28.99,0,5
15873.015,-0.607,0.323,0.592,24.45,14.13,30.79,0,5
15873.031,-0.57,0.305,0.569,19.26,20.48,30.92,0,5
15873.046,-0.523,0.279,0.564,13.89,27.1,29.6,0,5
15873.046,-0.445,0.244,0.568,7.78,34.3,28.81,0,5
15873.062,-0.356,0.216,0.578,1.22,42.82,29.27,0,5
15873.062,-0.268,0.196,0.615,-5.92,49.26,28.84,0,5
15873.078,-0.155,0.188,0.666,-14.71,50.48,26.49,0,5
15873.093,-0.07,0.193,0.734,-22.95,49.87,20.97,0,5
15873.109,0.0,0.234,0.803,-30.55,48.28,14.56,0,5
15873.109,0.09,0.254,0.877,-38.27,45.41,9.19,0,5
15873.125,0.167,0.275,0.974,-45.29,44.83,3.57,0,5
15873.125,0.226,0.288,1.083,-49.04,47.55,-1.37,0,5
15873.14,0.251,0.296,1.202,-49.04,51.82,-5.37,0,5
15873.156,0.214,0.299,1.32,-43.92,52.98,-9.77,0,5
15873.156,0.14,0.289,1.402,-33.81,47.06,-13.28,0,5
15873.171,0.077,0.288,1.437,-21.7,32.96,-14.8,0,5
15873.187,0.052,0.3,1.426,-10.62,14.25,-16.36,0,5
15873.187,0.035,0.311,1.373,-3.2,-4.27,-19.2,0,5
15873.203,0.008,0.316,1.293,-1.56,-18.74,-22.74,0,5
15873.218,-0.026,0.304,1.221,-3.63,-27.8,-26.12,0,5
15873.218,-0.079,0.294,1.159,-5.19,-32.59,-29.63,0,5
15873.234,-0.129,0.277,1.097,-3.14,-35.62,-33.72,0,5
15873.234,-0.172,0.275,1.044,2.72,-36.77,-37.97,0,5
15873.25,-0.216,0.287,0.984,12.24,-35.77,-42.27,0,5
15873.265,-0.26,0.286,0.914,22.49,-33.39,-45.32,0,5
15873.265,-0.306,0.294,0.853,30.3,-30.37,-46.78,0,5
15873.281,-0.353,0.3,0.799,35.89,-27.07,-46.14,0,5
15873.296,-0.388,0.303,0.758,39.28,-18.52,-39.86,0,5
15873.296,-0.415,0.311,0.732,35.77,-13.25,-36.38,0,5
15873.312,-0.449,0.315,0.724,30.64,-8.21,-33.51,0,5
15873.312,-0.503,0.352,0.725,22.89,-5.31,-29.3,0,5
15873.328,-0.621,0.384,0.726,13.49,-6.04,-24.38,0,5
15873.343,-0.638,0.376,0.714,6.2,-7.69,-18.34,0,5
15873.343,-0.659,0.367,0.698,3.72,-8.27,-12.42,0,5
15873.359,-0.667,0.353,0.672,5.74,-7.6,-6.47,0,5
15873.375,-0.662,0.331,0.636,10.56,-4.7,-0.92,0,5
15873.39,-0.657,0.313,0.596,16.08,1.13,2.75,0,5
15873.39,-0.653,0.308,0.559,20.14,9.52,4.79,0,5
15873.39,-0.664,0.306,0.538,20.87,18.19,5.37,0,5
15873.406,-0.675,0.296,0.534,19.71,25.67,5.52,0,5
15873.421,-0.687,0.288,0.544,18.1,31.31,5.58,0,5
15873.437,-0.684,0.282,0.546,16.66,35.28,5.68,0,5
15873.437,-0.691,0.277,0.539,15.47,39.22,5.95,0,5
15873.453,-0.715,0.289,0.524,11.17,41.72,5.19,0,5
15873.453,-0.724,0.291,0.525,3.78,41.57,2.62,0,5
15873.468,-0.73,0.281,0.516,-3.02,40.83,0.15,0,5
15873.484,-0.733,0.277,0.494,-8.21,41.54,-1.31,0,5
15873.484,-0.711,0.271,0.485,-12.45,44.65,-1.43,0,5
15873.5,-0.686,0.25,0.481,-14.98,49.78,-1.34,0,5
15873.515,-0.663,0.221,0.455,-16.91,55.85,-1.25,0,5
15873.515,-0.633,0.18,0.417,-18.56,63.57,-1.16,0,5
15873.531,-0.615,0.148,0.387,-20.11,73.73,-2.53,0,5
15873.546,-0.59,0.116,0.381,-20.48,85.09,-5.98,0,5
15873.546,-0.548,0.077,0.384,-19.04,98.03,-11.17,0,5
15873.562,-0.516,0.041,0.391,-14.31,113.56,-17.67,0,5
15873.562,-0.531,0.034,0.43,-8.0,131.05,-24.66,0,5
15873.578,-0.559,0.039,0.48,-2.14,147.31,-30.73,0,5
15873.593,-0.573,0.076,0.527,-0.89,162.51,-34.49,0,5
15873.593,-0.617,0.127,0.589,-5.49,175.21,-37.84,0,5
15873.609,-0.681,0.16,0.652,-12.57,180.85,-41.14,0,5
15873.625,-0.717,0.178,0.717,-20.39,179.02,-41.87,0,5
15873.625,-0.745,0.187,0.777,-25.91,173.22,-40.83,0,5
15873.64,-0.764,0.183,0.794,-29.85,164.46,-40.96,0,5
15873.656,-0.764,0.175,0.817,-34.88,152.71,-43.76,0,5
15873.656,-0.767,0.159,0.834,-37.35,140.78,-48.74,0,5
15873.671,-0.777,0.148,0.832,-35.92,131.5,-53.83,0,5
15873.687,-0.823,0.165,0.807,-30.06,123.66,-59.3,0,5
15873.703,-0.843,0.173,0.847,-26.34,120.85,-61.65,0,5
15873.703,-0.87,0.196,0.886,-19.84,119.94,-62.29,0,5
15873.718,-0.898,0.249,0.911,-15.56,119.14,-60.76,0,5
15873.734,-0.921,0.265,0.939,-14.56,113.44,-60.09,0,5
15873.734,-0.921,0.25,0.954,-13.58,103.34,-61.95,0,5
15873.75,-0.918,0.236,0.978,-8.51,91.83,-66.29,0,5
15873.765,-0.815,0.133,1.154,8.06,79.01,-74.47,0,5
15873.765,-0.772,-0.013,1.298,57.01,66.04,-93.57,0,5
15873.781,-0.943,0.012,1.157,124.49,55.54,-106.69,0,5
15873.796,-0.866,0.142,1.086,172.67,36.81,-113.28,0,5
15873.796,-0.897,0.197,0.922,212.41,23.22,-127.38,0,5
15873.812,-0.945,0.299,0.704,227.12,13.58,-131.11,0,5
15873.828,-0.931,0.378,0.582,217.11,4.3,-128.61,0,5
15873.828,-0.95,0.355,0.469,201.64,0.89,-123.78,0,5
15873.843,-0.925,0.349,0.378,179.82,2.01,-111.94,0,5
15873.859,-0.92,0.332,0.266,133.43,14.95,-88.96,0,5
15873.875,-0.948,0.392,0.187,106.3,23.77,-73.98,0,5
15873.875,-0.949,0.388,0.151,68.61,29.88,-56.73,0,5
15873.89,-0.929,0.341,0.17,28.05,34.85,-41.29,0,5
15873.906,-0.934,0.289,0.193,-8.7,39.03,-27.59,0,5
15873.906,-0.945,0.239,0.193,-42.51,40.83,-14.92,0,5
15873.921,-0.944,0.176,0.21,-73.73,39.86,-5.62,0,5
15873.921,-0.932,0.115,0.249,-97.63,37.63,-0.67,0,5
15873.937,-0.924,0.058,0.279,-111.76,35.07,1.31,0,5
15873.953,-0.924,-0.002,0.303,-115.7,32.38,0.79,0,5
15873.953,-0.916,-0.041,0.31,-110.14,30.49,-1.04,0,5
15873.968,-0.93,-0.039,0.277,-100.16,29.08,-2.9,0,5
15873.984,-0.941,-0.039,0.256,-92.62,26.95,-5.43,0,5
15874.0,-0.923,-0.036,0.24,-87.01,26.03,-8.3,0,5
15874.0,-0.941,0.032,0.183,-85.79,27.83,-8.58,0,5
15874.015,-0.958,0.075,0.157,-95.25,28.11,-6.16,0,5
15874.015,-0.934,0.052,0.181,-108.83,27.89,-2.96,0,5
15874.031,-0.914,0.013,0.213,-117.74,29.88,0.18,0,5
15874.046,-0.904,-0.046,0.252,-118.84,32.07,1.89,0,5
15874.046,-0.894,-0.105,0.307,-110.81,33.94,0.95,0,5
15874.062,-0.897,-0.125,0.344,-93.51,35.34,-1.74,0,5
15874.062,-0.894,-0.113,0.348,-72.79,35.31,-5.71,0,5
15874.078,-0.892,-0.076,0.338,-53.87,34.91,-11.26,0,5
15874.093,-0.926,-0.009,0.317,-39.67,34.18,-17.03,0,5
15874.109,-0.946,0.023,0.308,-31.77,31.83,-21.18,0,5
15874.109,-0.975,0.063,0.292,-29.45,30.49,-21.61,0,5
15874.125,-1.015,0.127,0.263,-35.62,28.08,-17.52,0,5
15874.125,-1.026,0.123,0.263,-47.49,22.46,-11.87,0,5
15874.14,-1.032,0.071,0.284,-56.64,17.46,-5.16,0,5
15874.156,-1.041,0.02,0.295,-58.69,14.16,2.2,0,5
15874.156,-1.036,-0.005,0.292,-54.41,12.24,8.24,0,5
15874.171,-1.027,-0.012,0.293,-47.64,12.3,11.57,0,5
15874.171,-1.008,-0.012,0.294,-41.47,13.21,12.91,0,5
15874.187,-0.999,0.015,0.269,-40.99,13.67,12.85,0,5
15874.203,-0.982,0.037,0.253,-49.23,12.48,12.63,0,5
15874.203,-0.962,0.02,0.258,-60.58,11.57,12.73,0,5
15874.218,-0.952,-0.001,0.271,-69.46,11.9,13.92,0,5
15874.234,-0.945,-0.024,0.292,-72.85,11.63,15.69,0,5
15874.25,-0.943,-0.055,0.31,-68.21,10.74,16.66,0,5
15874.25,-0.951,-0.083,0.318,-57.37,9.25,16.79,0,5
15874.265,-0.953,-0.096,0.327,-43.18,7.08,16.24,0,5
15874.265,-0.954,-0.106,0.324,-25.76,5.19,14.62,0,5
15874.281,-0.963,-0.088,0.288,1.25,-0.12,9.46,0,5
15874.296,-0.974,-0.037,0.239,0.49,-3.02,6.2,0,5
15874.296,-0.975,-0.0,0.215,-4.0,-3.97,4.3,0,5
15874.312,-0.997,-0.001,0.203,-6.1,-4.0,4.85,0,5
15874.328,-0.991,-0.011,0.199,-2.56,-3.45,6.65,0,5
15874.328,-0.98,-0.039,0.191,6.44,-2.32,8.51,0,5
15874.343,-0.97,-0.083,0.186,17.4,-0.64,9.86,0,5
15874.343,-0.947,-0.114,0.189,28.29,1.19,9.09,0,5
15874.359,-0.923,-0.125,0.193,39.49,3.97,4.82,0,5
15874.375,-0.914,-0.128,0.197,49.62,8.12,-1.5,0,5
15874.375,-0.927,-0.086,0.189,55.18,12.57,-8.12,0,5
15874.39,-0.948,-0.004,0.182,51.06,15.35,-13.18,0,5
15874.406,-0.959,0.036,0.196,38.94,16.17,-15.53,0,5
15874.406,-0.971,0.059,0.217,25.06,17.33,-14.68,0,5
15874.421,-0.99,0.067,0.238,13.21,17.79,-11.54,0,5
15874.421,-0.988,0.06,0.261,4.52,16.91,-7.48,0,5
15874.437,-0.985,0.056,0.278,-1.13,16.02,-3.85,0,5
15874.453,-0.995,0.064,0.287,-5.8,14.86,-0.82,0,5
15874.453,-0.996,0.053,0.314,-10.22,13.31,2.62,0,5
15874.468,-1.003,0.038,0.333,-12.48,12.36,6.32,0,5
15874.484,-1.026,0.036,0.323,-15.93,10.41,10.1,0,5
15874.484,-1.023,0.025,0.318,-24.84,6.29,13.79,0,5
15874.5,-1.004,-0.012,0.328,-34.7,2.23,16.39,0,5
15874.515,-0.991,-0.06,0.323,-41.35,-1.31,17.18,0,5
15874.515,-0.972,-0.118,0.314,-45.08,-4.91,16.27,0,5
15874.531,-0.957,-0.159,0.299,-44.5,-7.66,13.95,0,5
15874.546,-0.934,-0.182,0.289,-39.25,-8.55,11.23,0,5
15874.546,-0.924,-0.206,0.277,-28.44,-7.02,8.12,0,5
15874.562,-0.931,-0.205,0.233,-14.44,-3.63,6.23,0,5
15874.562,-0.905,-0.182,0.212,-3.81,-0.03,4.55,0,5
15874.578,-0.881,-0.171,0.22,6.26,4.97,0.15,0,5
15874.593,-0.897,-0.123,0.214,14.71,10.16,-5.62,0,5
15874.593,-0.917,-0.077,0.204,18.31,12.76,-10.47,0,5
15874.609,-0.933,-0.042,0.203,18.37,12.97,-13.28,0,5
15874.625,-0.946,-0.025,0.202,17.46,12.27,-13.82,0,5
15874.64,-0.957,-0.03,0.199,16.88,11.17,-13.15,0,5
15874.64,-0.958,-0.044,0.191,17.06,9.31,-12.54,0,5
15874.656,-0.948,-0.041,0.18,17.58,7.45,-12.67,0,5
15874.656,-0.939,-0.03,0.167,18.98,7.14,-13.49,0,5
15874.671,-0.938,-0.006,0.159,20.75,8.73,-14.07,0,5
15874.687,-0.941,0.005,0.156,21.12,10.96,-14.19,0,5
15874.703,-0.982,0.033,0.157,14.34,15.63,-11.05,0,5
15874.703,-0.997,0.028,0.158,8.24,15.2,-6.78,0,5
15874.718,-0.995,0.014,0.156,1.31,13.31,-2.78,0,5
15874.734,-0.982,-0.001,0.16,-5.55,11.11,-0.24,0,5
15874.734,-0.973,-0.021,0.162,-10.44,9.64,0.31,0,5
15874.75,-0.973,-0.029,0.159,-13.12,8.79,0.21,0,5
15874.765,-0.981,-0.024,0.146,-14.92,8.58,-0.18,0,5
15874.765,-0.99,-0.021,0.135,-17.52,8.91,0.0,0,5
15874.781,-0.988,-0.015,0.133,-21.97,9.86,0.95,0,5
15874.781,-0.987,-0.016,0.137,-26.73,11.51,2.11,0,5
15874.796,-0.982,-0.028,0.146,-31.28,12.79,3.2,0,5
15874.812,-0.978,-0.047,0.158,-34.39,14.01,3.91,0,5
15874.828,-0.976,-0.066,0.172,-35.31,15.17,4.18,0,5
15874.828,-0.969,-0.08,0.186,-33.69,15.99,3.63,0,5
15874.843,-0.957,-0.085,0.194,-29.02,16.3,2.01,0,5
15874.843,-0.954,-0.086,0.201,-22.46,15.9,0.03,0,5
15874.859,-0.953,-0.08,0.206,-14.77,14.89,-1.74,0,5
15874.875,-0.96,-0.068,0.207,-5.49,13.4,-2.87,0,5
15874.89,-0.978,-0.047,0.19,3.39,10.8,-3.02,0,5
15874.89,-0.99,-0.028,0.181,8.76,6.93,-1.98,0,5
15874.89,-0.99,-0.019,0.179,10.35,2.62,-0.21,0,5
15874.906,-0.991,-0.01,0.171,9.77,-0.79,1.71,0,5
15874.921,-1.0,-0.015,0.169,8.18,-3.14,3.3,0,5
15874.921,-1.005,-0.026,0.174,7.39,-5.62,4.49,0,5
15874.937,-1.009,-0.035,0.169,9.89,-7.63,5.58,0,5
15874.953,-1.004,-0.034,0.155,14.59,-9.06,6.5,0,5
15874.953,-0.998,-0.03,0.132,19.07,-9.8,6.41,0,5
15874.968,-0.993,-0.029,0.115,20.48,-10.07,5.52,0,5
15874.984,-0.995,-0.016,0.107,18.49,-9.64,4.3,0,5
15874.984,-1.008,-0.005,0.109,13.82,-9.98,3.54,0,5
15875.0,-1.009,-0.008,0.117,6.59,-11.96,2.81,0,5
15875.015,-1.007,-0.013,0.121,-0.95,-14.1,1.95,0,5
15875.015,-1.012,-0.015,0.115,-6.68,-15.5,0.76,0,5
15875.031,-1.012,-0.011,0.121,-10.83,-16.79,-0.55,0,5
15875.046,-1.008,-0.004,0.123,-12.63,-17.4,-1.5,0,5
15875.046,-1.011,0.012,0.115,-13.67,-17.27,-2.35,0,5
15875.062,-1.012,0.02,0.112,-15.63,-16.6,-2.5,0,5
15875.062,-1.015,0.02,0.113,-18.13,-15.26,-1.8,0,5
15875.078,-1.017,0.019,0.115,-20.94,-13.98,-0.03,0,5
15875.093,-1.018,0.007,0.127,-22.61,-12.91,1.83,0,5
15875.093,-1.009,-0.017,0.153,-22.0,-12.12,3.75,0,5
15875.109,-1.003,-0.045,0.191,-18.28,-12.24,4.39,0,5
15875.125,-1.016,-0.063,0.204,-12.76,-13.46,3.54,0,5
15875.125,-1.016,-0.082,0.206,-8.67,-16.27,2.78,0,5
15875.14,-1.008,-0.098,0.212,-5.49,-19.23,1.34,0,5
15875.156,-1.01,-0.131,0.221,-1.74,-21.24,-1.16,0,5
15875.156,-1.01,-0.185,0.228,4.94,-22.22,-3.75,0,5
15875.171,-1.0,-0.205,0.214,16.02,-22.19,-6.2,0,5
15875.171,-0.981,-0.183,0.17,28.66,-21.79,-9.98,0,5
15875.187,-0.973,-0.137,0.132,35.77,-20.87,-15.63,0,5
15875.203,-0.975,-0.113,0.125,37.35,-18.4,-20.45,0,5
15875.218,-0.972,-0.094,0.123,39.22,-13.79,-22.1,0,5
15875.218,-0.968,-0.044,0.098,41.78,-8.82,-21.76,0,5
15875.234,-0.967,-0.01,0.082,41.93,-5.07,-21.52,0,5
15875.234,-0.971,-0.007,0.085,39.19,-2.53,-21.67,0,5
15875.25,-0.97,-0.013,0.087,36.65,-0.89,-21.06,0,5
15875.265,-0.966,-0.011,0.077,31.95,1.89,-19.78,0,5
15875.265,-0.976,-0.008,0.047,25.61,5.25,-17.98,0,5
15875.281,-0.975,-0.005,0.023,18.07,9.77,-16.3,0,5
15875.296,-0.981,-0.018,0.011,11.96,15.14,-15.72,0,5
15875.296,-1.0,-0.047,0.022,7.51,19.1,-15.14,0,5
15875.312,-1.005,-0.079,0.07,5.07,19.84,-14.5,0,5
15875.312,-0.994,-0.105,0.132,6.01,16.79,-14.65,0,5
15875.328,-0.975,-0.125,0.172,9.8,11.75,-16.39,0,5
15875.343,-0.956,-0.147,0.2,15.93,6.93,-19.01,0,5
15875.343,-0.944,-0.174,0.218,25.33,3.11,-21.91,0,5
15875.359,-0.937,-0.181,0.229,37.42,-0.15,-24.45,0,5
15875.375,-0.932,-0.155,0.218,48.68,-3.6,-27.19,0,5
15875.375,-0.944,-0.09,0.188,53.5,-7.32,-29.73,0,5
15875.39,-0.94,-0.05,0.192,48.1,-11.72,-31.43,0,5
15875.406,-0.917,-0.063,0.229,38.73,-13.52,-32.41,0,5
15875.406,-0.92,-0.069,0.262,32.44,-10.56,-31.5,0,5
15875.421,-0.944,-0.069,0.263,28.87,-6.41,-27.44,0,5
15875.437,-0.94,-0.077,0.263,24.54,-3.27,-20.2,0,5
15875.437,-0.928,-0.095,0.277,20.11,0.31,-12.51,0,5
15875.453,-0.929,-0.13,0.293,16.66,4.33,-6.38,0,5
15875.453,-0.942,-0.164,0.301,14.04,7.11,-3.63,0,5
15875.468,-0.952,-0.17,0.288,10.28,7.35,-3.54,0,5
15875.484,-0.958,-0.153,0.271,3.2,4.88,-4.94,0,5
15875.484,-0.959,-0.138,0.263,-6.44,1.74,-7.2,0,5
15875.5,-0.965,-0.129,0.252,-15.66,-1.71,-9.34,0,5
15875.515,-0.97,-0.121,0.238,-22.61,-5.01,-9.74,0,5
15875.515,-0.973,-0.122,0.223,-26.37,-7.81,-8.39,0,5
15875.531,-0.975,-0.13,0.202,-26.31,-9.67,-5.25,0,5
15875.531,-0.961,-0.135,0.173,-23.8,-10.04,-1.59,0,5
15875.546,-0.946,-0.129,0.148,-20.91,-9.03,0.49,0,5
15875.562,-0.931,-0.135,0.134,-18.37,-6.62,0.82,0,5
15875.562,-0.921,-0.154,0.131,-15.38,-3.36,0.15,0,5
15875.578,-0.913,-0.162,0.132,-10.68,0.98,-1.46,0,5
15875.593,-0.914,-0.156,0.135,-5.01,5.49,-4.46,0,5
15875.593,-0.93,-0.144,0.138,0.67,9.25,-7.72,0,5
15875.609,-0.946,-0.127,0.151,4.82,10.74,-9.98,0,5
15875.625,-0.954,-0.111,0.17,7.81,9.95,-10.65,0,5
15875.625,-0.955,-0.095,0.183,9.77,8.0,-10.44,0,5
15875.64,-0.957,-0.089,0.199,10.77,5.49,-10.01,0,5
15875.656,-0.962,-0.083,0.216,12.05,3.02,-9.28,0,5
15875.656,-0.963,-0.082,0.229,15.23,0.7,-8.0,0,5
15875.671,-0.964,-0.075,0.241,19.47,-1.25,-6.56,0,5
15875.671,-0.964,-0.067,0.245,24.41,-2.66,-4.79,0,5
15875.687,-0.968,-0.074,0.244,29.18,-3.6,-2.44,0,5
15875.703,-0.956,-0.078,0.237,32.84,-3.88,0.06,0,5
15875.703,-0.949,-0.074,0.235,34.36,-3.75,1.31,0,5
15875.718,-0.95,-0.074,0.229,33.36,-4.0,1.4,0,5
15875.734,-0.952,-0.067,0.224,29.82,-4.64,1.1,0,5
15875.75,-0.957,-0.053,0.226,24.51,-6.13,0.95,0,5
15875.75,-0.965,-0.05,0.222,18.62,-8.88,1.46,0,5
15875.765,-0.964,-0.053,0.221,12.18,-12.33,3.2,0,5
15875.765,-0.957,-0.069,0.216,6.87,-14.68,6.07,0,5
15875.781,-0.944,-0.076,0.209,2.17,-15.84,9.06,0,5
15875.796,-0.93,-0.079,0.203,-1.77,-15.66,10.68,0,5
15875.796,-0.928,-0.092,0.198,-4.76,-14.37,10.9,0,5
15875.812,-0.934,-0.099,0.203,-7.45,-13.37,10.01,0,5
15875.812,-0.944,-0.112,0.211,-8.24,-13.06,8.79,0,5
15875.828,-0.957,-0.112,0.207,-7.11,-12.88,8.3,0,5
15875.843,-0.963,-0.108,0.201,-7.14,-13.52,8.27,0,5
15875.843,-0.959,-0.111,0.201,-9.22,-14.34,8.67,0,5
15875.859,-0.961,-0.123,0.202,-11.93,-14.44,8.85,0,5
15875.875,-0.964,-0.137,0.212,-13.89,-14.83,8.58,0,5
15875.875,-0.967,-0.15,0.227,-13.7,-16.11,7.87,0,5
15875.89,-0.965,-0.152,0.239,-11.26,-17.85,7.35,0,5
15875.906,-0.965,-0.144,0.241,-9.19,-19.53,6.93,0,5
15875.906,-0.963,-0.137,0.255,-8.82,-22.1,7.02,0,5
15875.921,-0.954,-0.12,0.252,-11.54,-24.87,6.93,0,5
15875.937,-0.946,-0.104,0.271,-17.58,-27.86,6.16,0,5
15875.937,-0.949,-0.115,0.298,-22.16,-30.95,4.49,0,5
15875.953,-0.946,-0.127,0.314,-23.77,-34.18,3.02,0,5
15875.953,-0.934,-0.122,0.329,-22.37,-36.74,1.83,0,5
15875.968,-0.928,-0.121,0.33,-17.64,-37.51,0.37,0,5
15875.984,-0.925,-0.123,0.325,-11.32,-36.56,-0.18,0,5
15875.984,-0.913,-0.108,0.321,-4.49,-33.94,-0.21,0,5
15876.0,-0.912,-0.085,0.313,2.04,-30.15,0.03,0,5
15876.015,-0.924,-0.07,0.313,6.1,-26.09,1.31,0,5
15876.015,-0.937,-0.072,0.322,7.9,-22.55,3.75,0,5
15876.031,-0.939,-0.077,0.335,8.12,-19.47,6.74,0,5
15876.046,-0.941,-0.086,0.34,7.05,-17.09,9.19,0,5
15876.046,-0.938,-0.092,0.343,4.73,-15.38,10.68,0,5
15876.062,-0.934,-0.096,0.355,2.17,-14.4,11.29,0,5
15876.078,-0.926,-0.105,0.368,0.64,-14.4,10.9,0,5
15876.078,-0.926,-0.11,0.379,0.58,-14.74,9.8,0,5
15876.093,-0.929,-0.113,0.394,2.44,-15.78,8.61,0,5
15876.093,-0.931,-0.105,0.4,5.58,-16.94,7.6,0,5
15876.109,-0.93,-0.087,0.395,8.48,-17.15,6.9,0,5
15876.125,-0.943,-0.082,0.397,9.77,-17.37,6.56,0,5
15876.125,-0.949,-0.078,0.401,10.04,-17.98,6.59,0,5
15876.14,-0.947,-0.059,0.403,9.37,-18.71,6.99,0,5
15876.156,-0.95,-0.049,0.403,7.51,-19.81,7.57,0,5
15876.156,-0.948,-0.063,0.404,5.43,-21.33,8.97,0,5
15876.171,-0.937,-0.069,0.41,4.52,-23.04,10.28,0,5
15876.187,-0.931,-0.069,0.413,4.76,-24.23,10.83,0,5
15876.187,-0.938,-0.067,0.413,4.27,-25.15,10.86,0,5
15876.203,-0.948,-0.073,0.411,2.38,-25.76,11.08,0,5
15876.203,-0.95,-0.074,0.422,-0.49,-27.13,11.08,0,5
15876.218,-0.958,-0.078,0.433,-3.57,-29.54,10.32,0,5
15876.234,-0.949,-0.084,0.44,-6.99,-32.84,9.58,0,5
15876.234,-0.927,-0.088,0.451,-12.39,-38.0,7.72,0,5
15876.25,-0.915,-0.088,0.465,-12.79,-39.61,6.74,0,5
15876.265,-0.91,-0.085,0.476,-11.23,-40.1,6.29,0,5
15876.265,-0.908,-0.077,0.488,-8.55,-40.41,6.13,0,5
15876.281,-0.928,-0.05,0.497,-5.65,-41.02,6.1,0,5
15876.296,-0.943,-0.047,0.502,-3.08,-41.69,6.99,0,5
15876.296,-0.94,-0.045,0.503,-0.95,-43.12,8.82,0,5
15876.312,-0.928,-0.031,0.501,-0.7,-44.71,10.41,0,5
15876.312,-0.924,-0.036,0.497,-1.22,-45.9,11.41,0,5
15876.328,-0.914,-0.034,0.502,-2.78,-46.85,12.21,0,5
15876.343,-0.906,-0.036,0.511,-4.21,-47.18,12.51,0,5
15876.343,-0.906,-0.044,0.522,-5.37,-47.24,13.15,0,5
15876.359,-0.908,-0.053,0.531,-5.8,-47.7,13.79,0,5
15876.375,-0.905,-0.067,0.537,-4.43,-48.65,13.98,0,5
15876.375,-0.901,-0.075,0.539,-1.22,-49.68,13.79,0,5
15876.39,-0.903,-0.063,0.537,2.29,-50.94,13.28,0,5
15876.406,-0.914,-0.057,0.535,4.24,-52.98,13.28,0,5
15876.406,-0.914,-0.054,0.522,3.39,-55.82,13.82,0,5
15876.421,-0.906,-0.052,0.503,0.89,-58.32,14.22,0,5
15876.421,-0.897,-0.054,0.488,-2.84,-59.6,14.07,0,5
15876.437,-0.883,-0.059,0.481,-6.29,-59.54,13.43,0,5
15876.453,-0.87,-0.063,0.477,-8.06,-57.86,12.51,0,5
15876.453,-0.863,-0.069,0.481,-7.2,-54.96,11.75,0,5
15876.468,-0.849,-0.07,0.487,-4.21,-51.82,11.44,0,5
15876.484,-0.844,-0.072,0.491,-0.55,-48.28,11.44,0,5
15876.484,-0.837,-0.068,0.49,1.89,-44.86,11.87,0,5
15876.5,-0.837,-0.055,0.484,1.92,-41.93,11.84,0,5
15876.515,-0.842,-0.052,0.489,-1.25,-39.98,11.81,0,5
15876.515,-0.844,-0.045,0.498,-6.62,-39.0,11.54,0,5
15876.531,-0.846,-0.037,0.507,-12.48,-39.09,11.41,0,5
15876.531,-0.842,-0.051,0.512,-16.88,-40.53,11.66,0,5
15876.546,-0.832,-0.064,0.526,-18.89,-41.41,12.09,0,5
15876.562,-0.824,-0.078,0.536,-17.49,-41.51,12.54,0,5
15876.562,-0.817,-0.09,0.537,-14.07,-40.68,12.45,0,5
15876.578,-0.808,-0.078,0.541,-10.65,-39.37,11.05,0,5
15876.593,-0.811,-0.061,0.544,-8.55,-38.15,9.22,0,5
15876.593,-0.814,-0.042,0.548,-8.94,-37.08,8.06,0,5
15876.609,-0.821,-0.03,0.562,-11.6,-36.62,7.78,0,5
15876.625,-0.816,-0.035,0.573,-14.04,-36.9,8.48,0,5
15876.625,-0.812,-0.038,0.587,-14.71,-36.84,9.67,0,5
15876.64,-0.814,-0.043,0.597,-13.55,-37.39,10.35,0,5
15876.656,-0.805,-0.051,0.598,-11.11,-38.73,10.96,0,5
15876.656,-0.799,-0.048,0.6,-8.03,-39.43,11.32,0,5
15876.671,-0.794,-0.041,0.6,-5.62,-40.01,11.54,0,5
15876.671,-0.798,-0.037,0.604,-4.58,-41.17,11.63,0,5
15876.687,-0.794,-0.036,0.607,-4.52,-42.45,12.39,0,5
15876.703,-0.784,-0.032,0.619,-4.82,-43.64,13.55,0,5
15876.703,-0.783,-0.024,0.628,-5.43,-44.92,14.65,0,5
15876.718,-0.78,-0.023,0.637,-7.05,-46.88,15.59,0,5
15876.734,-0.766,-0.023,0.654,-9.25,-49.87,15.87,0,5
15876.734,-0.761,-0.022,0.678,-10.62,-52.77,15.69,0,5
15876.75,-0.764,-0.034,0.694,-10.77,-56.28,15.47,0,5
15876.765,-0.74,-0.034,0.704,-10.19,-59.3,15.38,0,5
15876.765,-0.732,-0.028,0.716,-8.27,-60.73,14.56,0,5
15876.781,-0.73,-0.027,0.712,-5.8,-61.59,13.37,0,5
15876.781,-0.711,-0.016,0.705,-4.46,-61.62,12.76,0,5
15876.796,-0.689,-0.002,0.696,-3.39,-59.72,12.33,0,5
15876.812,-0.676,0.007,0.696,-3.6,-56.03,11.72,0,5
15876.812,-0.67,0.013,0.698,-4.94,-51.15,11.2,0,5
15876.828,-0.67,0.016,0.707,-5.95,-45.56,10.93,0,5
15876.843,-0.667,0.021,0.723,-6.9,-40.25,11.57,0,5
15876.843,-0.658,0.022,0.735,-8.03,-35.58,12.33,0,5
15876.859,-0.655,0.01,0.749,-8.45,-31.04,13.18,0,5
15876.875,-0.653,0.003,0.764,-8.61,-27.5,13.67,0,5
15876.875,-0.652,-0.006,0.783,-8.24,-25.61,13.52,0,5
15876.89,-0.653,-0.007,0.801,-7.57,-24.96,12.85,0,5
15876.906,-0.66,0.001,0.82,-7.6,-25.15,11.66,0,5
15876.906,-0.662,0.006,0.839,-8.67,-26.8,10.68,0,5
15876.921,-0.657,0.003,0.854,-9.25,-29.27,9.8,0,5
15876.921,-0.653,-0.001,0.854,-9.03,-31.95,9.09,0,5
15876.937,-0.646,-0.0,0.847,-8.03,-34.82,8.48,0,5
15876.953,-0.646,-0.004,0.837,-6.44,-36.68,7.97,0,5
15876.968,-0.64,-0.002,0.826,-4.61,-37.63,7.75,0,5
15876.968,-0.637,0.002,0.814,-2.9,-38.09,7.54,0,5
15876.984,-0.637,0.005,0.802,-2.75,-38.06,7.78,0,5
15876.984,-0.63,0.001,0.794,-3.45,-37.97,8.27,0,5
15877.0,-0.62,-0.004,0.789,-4.3,-37.2,8.76,0,5
15877.015,-0.613,-0.007,0.791,-4.88,-36.1,8.67,0,5
15877.015,-0.62,-0.013,0.798,-4.49,-35.31,8.15,0,5
15877.031,-0.618,-0.01,0.797,-3.6,-35.31,7.87,0,5
15877.046,-0.61,-0.007,0.794,-2.75,-35.34,7.69,0,5
15877.046,-0.609,-0.002,0.789,-2.84,-35.16,7.69,0,5
15877.062,-0.601,-0.004,0.785,-4.15,-35.13,8.21,0,5
15877.062,-0.589,-0.006,0.783,-6.2,-34.85,8.67,0,5
15877.078,-0.583,-0.015,0.786,-7.57,-33.97,8.88,0,5
15877.093,-0.584,-0.026,0.789,-7.72,-33.39,8.91,0,5
15877.093,-0.579,-0.026,0.79,-6.9,-33.33,8.88,0,5
15877.109,-0.573,-0.029,0.785,-5.77,-32.96,8.97,0,5
15877.125,-0.57,-0.028,0.779,-5.83,-32.35,8.97,0,5
15877.125,-0.57,-0.03,0.778,-7.75,-31.83,8.76,0,5
15877.14,-0.561,-0.039,0.786,-10.04,-31.62,8.42,0,5
15877.156,-0.558,-0.046,0.795,-11.23,-31.25,8.21,0,5
15877.156,-0.556,-0.06,0.806,-10.53,-31.25,7.9,0,5
15877.171,-0.548,-0.072,0.811,-8.33,-31.89,7.35,0,5
15877.187,-0.544,-0.078,0.804,-5.22,-32.04,6.2,0,5
15877.187,-0.545,-0.082,0.799,-2.5,-32.2,4.85,0,5
15877.203,-0.534,-0.071,0.795,-1.53,-32.29,3.36,0,5
15877.203,-0.523,-0.062,0.79,-2.66,-31.56,1.86,0,5
15877.218,-0.517,-0.057,0.794,-7.6,-29.21,-0.06,0,5
15877.234,-0.512,-0.06,0.799,-8.82,-27.8,-0.76,0,5
15877.234,-0.508,-0.06,0.801,-8.85,-25.91,-1.8,0,5
15877.25,-0.51,-0.045,0.804,-8.15,-24.48,-3.08,0,5
15877.265,-0.499,-0.02,0.823,-6.68,-23.32,-2.96,0,5
15877.265,-0.493,0.006,0.833,-5.68,-21.39,-1.77,0,5
15877.281,-0.493,0.014,0.846,-5.83,-20.29,-0.43,0,5
15877.281,-0.497,0.01,0.866,-6.9,-20.05,1.68,0,5
15877.296,-0.507,0.006,0.88,-8.82,-20.54,3.94,0,5
15877.312,-0.515,-0.01,0.881,-11.66,-22.71,5.31,0,5
15877.328,-0.508,-0.03,0.881,-14.37,-26.25,5.86,0,5
15877.328,-0.488,-0.038,0.875,-15.87,-29.3,5.25,0,5
15877.343,-0.475,-0.048,0.865,-15.05,-30.46,3.78,0,5
15877.343,-0.459,-0.054,0.861,-12.15,-30.06,2.29,0,5
15877.359,-0.452,-0.052,0.863,-7.93,-27.41,1.68,0,5
15877.375,-0.452,-0.048,0.861,-4.73,-24.45,1.16,0,5
15877.375,-0.456,-0.043,0.869,-3.78,-22.06,0.12,0,5
15877.39,-0.462,-0.028,0.881,-4.88,-21.03,-1.22,0,5
15877.406,-0.464,-0.021,0.892,-5.89,-21.42,-2.38,0,5
15877.406,-0.463,-0.011,0.907,-5.95,-22.58,-2.14,0,5
15877.421,-0.454,-0.005,0.912,-4.3,-24.69,-1.07,0,5
15877.421,-0.446,-0.008,0.913,-1.8,-26.4,0.55,0,5
15877.437,-0.439,-0.01,0.91,0.12,-27.44,1.56,0,5
15877.453,-0.435,-0.016,0.905,1.25,-28.17,1.8,0,5
15877.468,-0.432,-0.013,0.903,1.83,-28.17,1.4,0,5
15877.468,-0.436,-0.01,0.897,1.53,-28.08,1.25,0,5
15877.484,-0.437,-0.013,0.894,0.85,-28.17,1.95,0,5
15877.484,-0.424,-0.02,0.895,-0.18,-29.15,3.08,0,5
15877.5,-0.397,-0.028,0.898,-0.85,-29.48,4.12,0,5
15877.515,-0.385,-0.033,0.902,-0.67,-28.08,4.7,0,5
15877.515,-0.383,-0.034,0.909,-0.73,-26.12,4.79,0,5
15877.531,-0.386,-0.036,0.921,-0.49,-24.84,4.58,0,5
15877.546,-0.395,-0.033,0.933,0.76,-24.32,4.36,0,5
15877.546,-0.396,-0.033,0.938,1.98,-24.99,4.43,0,5
15877.562,-0.391,-0.045,0.942,3.14,-26.0,5.16,0,5
15877.562,-0.371,-0.053,0.943,4.09,-27.16,5.65,0,5
15877.578,-0.364,-0.055,0.937,4.39,-27.59,5.1,0,5
15877.593,-0.356,-0.053,0.926,3.42,-27.71,3.45,0,5
15877.593,-0.359,-0.044,0.923,1.5,-27.1,1.68,0,5
15877.609,-0.36,-0.03,0.924,-0.43,-26.03,0.58,0,5
15877.625,-0.356,-0.024,0.934,-2.08,-24.9,0.82,0,5
15877.625,-0.352,-0.029,0.942,-3.39,-23.56,2.17,0,5
15877.64,-0.344,-0.043,0.95,-4.27,-22.98,3.45,0,5
15877.656,-0.344,-0.054,0.961,-4.18,-23.16,3.17,0,5
15877.656,-0.336,-0.048,0.966,-2.59,-23.68,2.11,0,5
15877.671,-0.344,-0.033,0.962,-0.31,-24.05,0.06,0,5
15877.687,-0.35,-0.047,0.957,0.64,-25.64,0.0,0,5
15877.687,-0.336,-0.023,0.952,1.5,-26.34,0.55,0,5
15877.703,-0.328,-0.021,0.938,1.37,-25.67,0.58,0,5
15877.703,-0.324,-0.026,0.93,0.46,-24.99,0.27,0,5
15877.718,-0.311,-0.023,0.938,-0.09,-24.17,0.06,0,5
15877.734,-0.308,-0.027,0.941,0.15,-22.61,0.27,0,5
15877.734,-0.302,-0.014,0.946,1.04,-21.09,0.09,0,5
15877.75,-0.301,-0.015,0.954,1.13,-19.44,-0.15,0,5
15877.765,-0.309,-0.018,0.966,0.18,-18.31,-0.12,0,5
15877.765,-0.314,-0.015,0.977,0.03,-18.56,-0.09,0,5
15877.781,-0.321,-0.017,0.976,0.27,-20.14,-0.21,0,5
15877.781,-0.317,-0.01,0.974,0.03,-22.61,-0.46,0,5
15877.796,-0.308,-0.011,0.969,0.21,-25.09,-0.37,0,5
15877.812,-0.304,-0.014,0.962,1.4,-26.06,0.4,0,5
15877.812,-0.3,-0.006,0.957,2.17,-26.55,0.95,0,5
15877.828,-0.291,-0.006,0.946,1.92,-27.28,1.43,0,5
15877.843,-0.28,-0.01,0.945,0.15,-26.73,2.66,0,5
15877.843,-0.274,-0.018,0.955,-1.65,-25.61,3.45,0,5
15877.859,-0.279,-0.03,0.962,-2.81,-24.6,3.42,0,5
15877.875,-0.283,-0.036,0.969,-3.11,-24.29,2.9,0,5
15877.875,-0.264,-0.041,0.977,-2.23,-24.51,2.72,0,5
15877.89,-0.253,-0.036,0.982,-0.79,-23.83,2.44,0,5
15877.906,-0.249,-0.039,0.984,0.49,-23.04,1.95,0,5
15877.921,-0.247,-0.039,0.988,1.65,-22.55,1.86,0,5
15877.921,-0.249,-0.036,0.99,2.2,-22.52,1.71,0,5
15877.921,-0.25,-0.04,0.992,2.26,-23.16,1.37,0,5
15877.937,-0.247,-0.039,0.987,2.72,-24.23,1.01,0,5
15877.953,-0.24,-0.029,0.984,2.84,-24.81,0.58,0,5
15877.953,-0.239,-0.022,0.983,1.89,-24.72,-0.12,0,5
15877.968,-0.239,-0.017,0.982,0.58,-24.69,-0.15,0,5
15877.984,-0.243,-0.006,0.985,-0.92,-24.41,0.24,0,5
15877.984,-0.239,-0.011,0.991,-1.5,-24.66,0.92,0,5
15878.0,-0.242,-0.017,0.994,-0.89,-25.33,1.98,0,5
15878.015,-0.235,-0.018,0.986,-0.06,-26.52,2.59,0,5
15878.015,-0.222,-0.021,0.98,0.67,-27.19,2.84,0,5
15878.031,-0.217,-0.019,0.969,0.85,-27.59,2.5,0,5
15878.046,-0.209,-0.018,0.964,0.34,-27.59,2.2,0,5
15878.046,-0.206,-0.018,0.962,-0.34,-26.95,2.04,0,5
15878.062,-0.203,-0.02,0.967,-0.58,-26.0,2.26,0,5
15878.078,-0.205,-0.02,0.964,-0.06,-25.33,2.2,0,5
15878.078,-0.195,-0.015,0.959,0.4,-25.88,2.11,0,5
15878.093,-0.193,-0.004,0.956,0.27,-25.73,2.41,0,5
15878.093,-0.194,-0.004,0.954,-0.73,-24.93,2.69,0,5
15878.109,-0.191,-0.01,0.953,-1.46,-24.81,3.14,0,5
15878.125,-0.182,-0.01,0.954,-1.43,-24.57,3.88,0,5
15878.125,-0.176,-0.018,0.962,-0.98,-23.93,4.21,0,5
15878.14,-0.167,-0.022,0.964,0.09,-23.53,4.36,0,5
15878.156,-0.164,-0.019,0.964,1.37,-23.1,4.58,0,5
15878.156,-0.164,-0.018,0.959,1.37,-23.16,4.61,0,5
15878.171,-0.16,-0.021,0.961,0.27,-23.35,4.97,0,5
15878.171,-0.155,-0.027,0.958,-0.7,-23.22,4.76,0,5
15878.187,-0.142,-0.025,0.958,-1.43,-22.58,4.52,0,5
15878.203,-0.138,-0.025,0.965,-1.77,-21.03,4.67,0,5
15878.203,-0.136,-0.033,0.973,0.58,-17.64,5.28,0,5
15878.218,-0.134,-0.036,0.977,2.59,-16.66,5.13,0,5
15878.234,-0.136,-0.036,0.979,3.6,-16.42,4.49,0,5
15878.234,-0.138,-0.038,0.985,3.51,-15.99,4.43,0,5
15878.25,-0.127,-0.029,0.986,3.2,-16.21,4.3,0,5
15878.265,-0.119,-0.027,0.992,2.93,-16.36,3.81,0,5
15878.265,-0.121,-0.026,0.999,2.66,-15.99,3.66,0,5
15878.281,-0.117,-0.026,0.995,2.81,-16.3,3.66,0,5
15878.296,-0.113,-0.024,0.993,2.84,-16.54,3.6,0,5
15878.296,-0.121,-0.017,0.994,2.32,-16.36,3.05,0,5
15878.312,-0.13,-0.012,0.984,1.74,-17.03,2.38,0,5
15878.312,-0.136,-0.009,0.975,1.22,-18.56,2.14,0,5
15878.328,-0.126,-0.006,0.959,1.34,-20.33,2.26,0,5
15878.343,-0.101,0.002,0.932,1.71,-21.3,2.56,0,5
15878.343,-0.085,0.012,0.916,-0.31,-19.59,3.42,0,5
15878.359,-0.075,0.01,0.925,-4.61,-15.75,4.52,0,5
15878.375,-0.085,-0.009,0.945,-8.45,-11.81,5.49,0,5
15878.375,-0.094,-0.034,0.965,-10.01,-9.0,5.77,0,5
15878.39,-0.1,-0.044,0.981,-9.49,-7.54,4.97,0,5
15878.406,-0.101,-0.049,0.979,-7.54,-7.54,3.36,0,5
15878.406,-0.093,-0.04,0.97,-6.07,-8.67,1.56,0,5
15878.421,-0.086,-0.025,0.969,-6.53,-9.52,0.24,0,5
15878.421,-0.087,-0.024,0.976,-7.08,-9.92,0.58,0,5
15878.437,-0.093,-0.03,0.995,-6.41,-9.61,2.5,0,5
15878.453,-0.091,-0.037,1.008,-3.66,-10.16,4.18,0,5
15878.468,-0.077,-0.037,1.012,-0.55,-11.69,4.61,0,5
15878.468,-0.078,-0.046,1.012,1.4,-12.6,4.85,0,5
15878.484,-0.069,-0.046,1.005,2.11,-13.82,5.34,0,5
15878.484,-0.062,-0.029,0.985,1.1,-14.65,4.55,0,5
15878.5,-0.068,-0.026,0.975,-3.11,-15.2,3.2,0,5
15878.515,-0.069,-0.027,0.98,-7.69,-15.59,2.72,0,5
15878.515,-0.068,-0.031,0.984,-9.49,-15.72,3.11,0,5
15878.531,-0.057,-0.044,0.991,-9.49,-15.2,4.15,0,5
15878.546,-0.047,-0.051,1.0,-8.3,-13.67,4.85,0,5
15878.546,-0.047,-0.057,1.005,-6.2,-12.05,4.43,0,5
15878.562,-0.052,-0.052,1.011,-4.3,-10.96,3.57,0,5
15878.562,-0.059,-0.044,1.018,-3.02,-10.83,2.81,0,5
15878.578,-0.064,-0.036,1.02,-2.26,-11.69,2.32,0,5
15878.593,-0.063,-0.032,1.017,-2.56,-13.46,2.35,0,5
15878.593,-0.06,-0.038,1.016,-3.23,-15.2,3.08,0,5
15878.609,-0.051,-0.052,1.009,-2.62,-16.94,4.0,0,5
15878.625,-0.039,-0.059,0.991,-1.65,-18.07,4.39,0,5
15878.625,-0.034,-0.052,0.98,-1.62,-18.25,3.75,0,5
15878.64,-0.034,-0.053,0.974,-2.47,-17.61,2.9,0,5
15878.656,-0.04,-0.049,0.976,-3.88,-16.17,2.44,0,5
15878.656,-0.041,-0.051,0.978,-5.1,-14.98,2.04,0,5
15878.671,-0.038,-0.052,0.988,-5.13,-14.5,1.46,0,5
15878.687,-0.035,-0.061,0.995,-2.84,-13.92,1.04,0,5
15878.687,-0.023,-0.065,0.998,1.01,-13.89,1.31,0,5
15878.703,-0.012,-0.058,0.998,4.0,-13.25,1.8,0,5
15878.703,-0.029,-0.049,1.001,4.09,-12.57,1.86,0,5
15878.718,-0.045,-0.045,1.005,1.95,-13.15,1.01,0,5
15878.734,-0.055,-0.051,1.003,1.19,-15.08,-0.37,0,5
15878.734,-0.053,-0.049,0.995,3.6,-17.27,-1.59,0,5
15878.75,-0.046,-0.028,0.969,8.09,-18.92,-2.35,0,5
15878.765,-0.028,-0.013,0.94,12.3,-19.68,-2.75,0,5
15878.765,-0.015,0.008,0.923,14.5,-17.79,-2.38,0,5
15878.781,-0.012,0.022,0.914,14.01,-14.37,-1.56,0,5
15878.781,-0.007,0.019,0.922,12.63,-11.9,-0.61,0,5
15878.796,0.005,0.021,0.943,11.57,-9.74,0.76,0,5
15878.812,0.005,0.017,0.954,9.46,-7.39,3.05,0,5
15878.828,0.004,0.012,0.96,4.82,-6.74,4.73,0,5
15878.828,0.005,0.002,0.974,-1.59,-7.35,6.01,0,5
15878.843,0.005,-0.021,0.995,-7.66,-8.58,6.62,0,5
15878.843,0.015,-0.039,1.009,-10.38,-10.13,6.47,0,5
15878.859,0.024,-0.046,1.018,-9.49,-11.17,5.77,0,5
15878.875,0.037,-0.037,1.03,-7.45,-10.77,4.73,0,5
15878.875,0.027,-0.031,1.035,-5.37,-9.58,3.78,0,5
15878.89,0.022,-0.03,1.04,-3.94,-9.92,3.72,0,5
15878.906,0.022,-0.032,1.042,-2.99,-10.99,4.97,0,5
15878.906,0.041,-0.033,1.034,-2.59,-12.42,6.23,0,5
15878.921,0.041,-0.042,1.041,-4.24,-12.36,6.84,0,5
15878.921,0.045,-0.054,1.042,-6.68,-12.73,6.68,0,5
15878.937,0.052,-0.052,1.052,-9.06,-12.63,6.32,0,5
15878.953,0.034,-0.057,1.064,-10.74,-12.09,5.55,0,5
15878.953,0.037,-0.074,1.066,-10.83,-13.49,4.88,0,5
15878.968,0.042,-0.077,1.063,-8.24,-15.56,4.0,0,5
15878.984,0.044,-0.077,1.057,-4.55,-17.12,3.05,0,5
15878.984,0.041,-0.077,1.029,-0.89,-18.13,2.2,0,5
15879.0,0.048,-0.062,1.003,1.34,-19.35,1.4,0,5
15879.015,0.045,-0.047,0.991,0.98,-19.23,0.92,0,5
15879.015,0.051,-0.045,0.976,-0.52,-19.23,0.64,0,5
15879.031,0.06,-0.043,0.97,-2.29,-18.49,1.04,0,5
15879.046,0.063,-0.051,0.971,-2.29,-17.09,1.43,0,5
15879.046,0.082,-0.061,0.978,-0.79,-15.63,2.01,0,5
15879.062,0.075,-0.06,0.988,1.25,-13.31,2.41,0,5
15879.062,0.073,-0.077,0.996,3.66,-12.12,2.23,0,5
15879.078,0.061,-0.084,1.004,6.93,-12.24,1.59,0,5
15879.093,0.063,-0.085,0.995,10.77,-13.64,0.7,0,5
15879.109,0.073,-0.082,0.983,14.07,-15.41,-0.52,0,5
15879.109,0.077,-0.077,0.967,16.94,-16.05,-1.59,0,5
15879.125,0.079,-0.057,0.955,17.61,-15.5,-1.92,0,5
15879.125,0.076,-0.041,0.942,14.98,-14.53,-2.41,0,5
15879.14,0.069,-0.031,0.936,10.19,-13.06,-2.96,0,5
15879.14,0.066,-0.021,0.941,4.85,-12.18,-3.48,0,5
15879.156,0.063,-0.021,0.946,1.16,-12.82,-3.66,0,5
15879.171,0.076,-0.028,0.947,0.58,-13.25,-2.62,0,5
15879.187,0.094,-0.029,0.946,1.74,-13.0,-1.07,0,5
15879.187,0.097,-0.033,0.944,3.11,-11.08,-0.06,0,5
15879.203,0.102,-0.04,0.936,2.84,-10.35,-0.49,0,5
15879.203,0.105,-0.034,0.942,1.13,-9.03,-1.22,0,5
15879.218,0.089,-0.026,0.948,-0.61,-8.73,-1.95,0,5
15879.234,0.084,-0.026,0.954,-0.85,-9.43,-2.08,0,5
15879.234,0.097,-0.02,0.955,-0.21,-9.74,-1.68,0,5
15879.25,0.106,-0.021,0.952,0.12,-8.64,-1.28,0,5
15879.265,0.114,-0.024,0.947,0.27,-7.57,-1.56,0,5
15879.265,0.117,-0.018,0.953,0.18,-6.26,-2.26,0,5
15879.281,0.105,-0.013,0.954,0.31,-5.04,-2.81,0,5
15879.296,0.102,-0.002,0.958,0.61,-4.76,-3.05,0,5
15879.296,0.099,0.005,0.966,0.4,-3.85,-2.32,0,5
15879.312,0.102,0.002,0.967,-0.18,-3.54,-1.5,0,5
15879.312,0.102,-0.001,0.969,-0.06,-3.42,-0.98,0,5
15879.328,0.1,-0.006,0.968,0.76,-4.03,-0.55,0,5
15879.343,0.116,-0.004,0.964,1.31,-5.49,0.09,0,5
15879.343,0.125,0.008,0.971,0.21,-5.31,0.7,0,5
15879.359,0.112,0.006,0.982,-2.14,-3.57,0.98,0,5
15879.375,0.091,-0.007,1.004,-5.04,-2.41,1.37,0,5
15879.375,0.077,-0.027,1.019,-6.35,-3.54,1.31,0,5
15879.39,0.082,-0.037,1.01,-4.79,-6.78,0.76,0,5
15879.406,0.111,-0.044,0.995,-1.4,-10.01,0.09,0,5
15879.406,0.124,-0.036,0.985,2.72,-9.92,-0.09,0,5
15879.421,0.111,-0.035,0.955,6.81,-9.22,-0.64,0,5
15879.421,0.113,-0.032,0.928,9.52,-9.61,-1.01,0,5
15879.437,0.118,-0.029,0.909,11.26,-8.85,-0.64,0,5
15879.453,0.115,-0.024,0.891,10.93,-6.81,-0.15,0,5
15879.453,0.11,-0.024,0.882,7.51,-4.21,0.55,0,5
15879.468,0.11,-0.037,0.884,3.11,-2.17,1.28,0,5
15879.484,0.108,-0.044,0.89,0.0,-1.1,1.77,0,5
15879.5,0.123,-0.053,0.897,-2.93,-0.09,2.01,0,5
15879.5,0.129,-0.056,0.918,-5.19,1.95,1.34,0,5
15879.515,0.126,-0.064,0.942,-6.32,4.39,0.4,0,5
15879.515,0.122,-0.064,0.969,-5.83,6.35,-0.67,0,5
15879.531,0.109,-0.069,0.992,-3.42,6.78,-1.77,0,5
15879.531,0.109,-0.07,1.003,0.21,5.49,-2.99,0,5
15879.546,0.116,-0.052,0.999,3.88,3.81,-4.24,0,5
15879.562,0.113,-0.033,0.992,5.92,2.66,-5.16,0,5
15879.562,0.106,-0.014,0.986,5.16,2.2,-5.58,0,5
15879.578,0.109,0.004,0.992,2.62,2.23,-5.31,0,5
15879.593,0.098,0.011,0.999,0.52,2.69,-4.61,0,5
15879.609,0.094,0.008,1.006,-0.43,2.2,-3.72,0,5
15879.609,0.104,0.003,1.011,0.46,1.28,-2.56,0,5
15879.625,0.11,-0.005,1.012,2.69,1.34,-1.22,0,5
15879.625,0.113,-0.006,1.006,3.78,1.8,-0.24,0,5
15879.64,0.117,-0.01,1.007,2.75,2.35,-0.31,0,5
15879.656,0.113,-0.013,1.018,1.53,3.02,-1.13,0,5
15879.656,0.111,-0.011,1.03,2.53,2.93,-2.17,0,5
15879.671,0.107,-0.003,1.041,5.62,2.44,-2.56,0,5
15879.671,0.104,0.001,1.051,10.56,2.35,-2.11,0,5
15879.687,0.104,0.005,1.054,15.66,2.08,-1.01,0,5
15879.703,0.102,0.011,1.052,19.93,1.46,-0.12,0,5
15879.703,0.1,0.017,1.044,21.52,0.79,0.4,0,5
15879.718,0.099,0.022,1.037,20.2,-0.37,0.49,0,5
15879.734,0.096,0.025,1.028,16.85,-1.46,0.43,0,5
15879.734,0.099,0.028,1.022,12.82,-2.75,0.43,0,5
15879.75,0.099,0.029,1.016,9.13,-3.42,0.98,0,5
15879.765,0.094,0.018,1.015,5.92,-4.06,2.08,0,5
15879.765,0.1,0.004,1.008,3.91,-4.88,3.02,0,5
