timestamp,ax,ay,az,gx,gy,gz,orient_label,motion_label
15802.656,0.968,-0.145,-0.233,-7.72,-3.63,-0.37,0,5
15802.671,0.968,-0.145,-0.214,-6.9,-1.5,0.64,0,5
15802.671,0.976,-0.155,-0.196,-5.16,0.52,1.28,0,5
15802.687,0.964,-0.159,-0.176,-3.23,1.95,1.83,0,5
15802.703,0.943,-0.164,-0.166,-1.37,1.83,2.17,0,5
15802.703,0.953,-0.175,-0.161,-0.43,0.49,2.93,0,5
15802.718,0.973,-0.177,-0.151,0.09,-0.15,3.36,0,5
15802.734,0.983,-0.199,-0.144,0.31,0.37,3.45,0,5
15802.734,0.988,-0.212,-0.146,-0.03,0.49,2.96,0,5
15802.75,0.977,-0.214,-0.147,-0.85,-0.15,1.86,0,5
15802.75,0.971,-0.217,-0.147,-2.44,-0.89,0.98,0,5
15802.765,0.972,-0.22,-0.145,-3.75,-1.92,0.46,0,5
15802.781,0.973,-0.224,-0.141,-2.56,-2.66,0.31,0,5
15802.781,0.976,-0.212,-0.146,0.92,-2.41,-0.03,0,5
15802.796,0.983,-0.2,-0.151,4.85,-1.4,-0.03,0,5
15802.812,0.981,-0.202,-0.152,7.63,-0.52,0.7,0,5
15802.828,0.977,-0.208,-0.151,7.97,-0.37,1.13,0,5
15802.843,0.965,-0.204,-0.148,2.84,-0.15,-0.55,0,5
15802.843,0.966,-0.204,-0.147,-1.25,-0.67,-1.19,0,5
15802.859,0.97,-0.214,-0.135,-4.33,-1.04,-1.8,0,5
15802.859,0.971,-0.212,-0.129,-4.85,-1.07,-2.35,0,5
15802.875,0.969,-0.218,-0.13,-2.96,-1.28,-2.78,0,5
15802.89,0.963,-0.212,-0.13,-0.34,-1.37,-2.9,0,5
15802.89,0.962,-0.199,-0.139,2.01,-1.8,-2.81,0,5
15802.906,0.963,-0.191,-0.147,3.51,-2.44,-2.59,0,5
15802.921,0.972,-0.185,-0.157,3.94,-2.32,-2.38,0,5
15802.937,0.977,-0.172,-0.163,3.39,-1.28,-2.59,0,5
15802.937,0.976,-0.169,-0.161,1.65,0.09,-3.02,0,5
15802.953,0.98,-0.177,-0.15,-0.21,0.89,-3.14,0,5
15802.953,0.98,-0.171,-0.148,-1.74,1.04,-2.99,0,5
15802.968,0.968,-0.161,-0.144,-3.91,0.58,-3.23,0,5
15802.968,0.963,-0.161,-0.151,-5.83,-0.73,-3.33,0,5
15802.984,0.965,-0.164,-0.157,-6.07,-2.44,-2.29,0,5
15803.0,0.98,-0.159,-0.171,-1.8,-1.95,-0.61,0,5
15803.015,0.98,-0.158,-0.174,0.0,-0.46,-0.12,0,5
15803.031,0.981,-0.159,-0.18,0.89,0.43,-0.12,0,5
15803.046,0.984,-0.157,-0.179,0.67,0.82,0.03,0,5
15803.046,0.986,-0.156,-0.18,-0.15,1.37,0.15,0,5
15803.062,0.981,-0.158,-0.179,-0.92,1.95,-0.03,0,5
15803.062,0.974,-0.156,-0.178,-1.8,2.44,0.09,0,5
15803.078,0.97,-0.163,-0.175,-2.75,2.66,0.58,0,5
15803.093,0.965,-0.176,-0.17,-2.75,3.14,0.95,0,5
15803.093,0.971,-0.182,-0.164,-1.74,3.75,0.85,0,5
15803.109,0.974,-0.178,-0.162,-0.61,4.3,0.46,0,5
15803.125,0.969,-0.17,-0.153,-0.21,5.13,0.34,0,5
15803.125,0.967,-0.163,-0.145,-0.55,5.4,0.4,0,5
15803.14,0.965,-0.171,-0.137,-1.65,4.79,1.19,0,5
15803.14,0.972,-0.178,-0.134,-2.69,3.57,1.95,0,5
15803.156,0.977,-0.183,-0.134,-2.87,3.05,1.65,0,5
15803.171,0.967,-0.174,-0.136,-2.26,3.97,1.01,0,5
15803.187,0.966,-0.183,-0.13,-2.04,4.27,1.5,0,5
15803.203,0.97,-0.195,-0.131,-1.5,3.6,1.92,0,5
15803.203,0.968,-0.205,-0.133,0.09,2.62,2.2,0,5
15803.218,0.975,-0.206,-0.141,2.44,2.04,1.95,0,5
15803.234,0.976,-0.193,-0.157,4.27,1.95,1.56,0,5
15803.234,0.976,-0.183,-0.178,5.04,2.59,1.28,0,5
15803.25,0.973,-0.177,-0.192,4.82,3.33,1.22,0,5
15803.265,0.971,-0.17,-0.199,3.94,4.39,1.31,0,5
15803.265,0.974,-0.165,-0.206,2.81,5.98,1.8,0,5
15803.281,0.977,-0.159,-0.205,1.13,7.39,1.95,0,5
15803.281,0.979,-0.157,-0.207,-0.58,8.58,1.71,0,5
15803.296,0.972,-0.158,-0.21,-0.61,9.31,1.71,0,5
15803.312,0.968,-0.16,-0.219,1.92,9.4,2.35,0,5
15803.312,0.969,-0.171,-0.228,6.29,9.58,4.21,0,5
15803.328,0.978,-0.18,-0.235,10.16,10.8,6.26,0,5
15803.343,0.977,-0.177,-0.253,11.69,12.24,6.9,0,5
15803.343,0.986,-0.182,-0.273,9.64,12.48,6.1,0,5
15803.359,0.99,-0.183,-0.293,5.71,11.51,5.07,0,5
15803.359,0.984,-0.175,-0.308,1.89,11.51,4.3,0,5
15803.375,0.982,-0.176,-0.313,-0.52,13.43,3.94,0,5
15803.39,0.982,-0.185,-0.311,-0.31,16.63,4.06,0,5
15803.39,0.978,-0.186,-0.306,2.5,20.42,4.36,0,5
15803.406,0.972,-0.185,-0.284,6.44,24.81,4.61,0,5
15803.421,0.966,-0.175,-0.255,10.32,29.24,4.52,0,5
15803.421,0.96,-0.189,-0.203,14.1,33.11,4.46,0,5
15803.437,0.954,-0.195,-0.163,19.1,35.65,4.67,0,5
15803.453,0.942,-0.183,-0.138,24.2,35.68,4.33,0,5
15803.453,0.924,-0.17,-0.126,27.47,32.96,4.46,0,5
15803.468,0.92,-0.15,-0.138,26.8,28.44,5.92,0,5
15803.484,0.926,-0.141,-0.158,21.88,24.35,7.35,0,5
15803.484,0.931,-0.156,-0.172,15.93,21.33,8.0,0,5
15803.5,0.937,-0.174,-0.184,13.06,19.44,8.58,0,5
15803.515,0.938,-0.188,-0.198,18.13,19.68,10.25,0,5
15803.515,0.946,-0.19,-0.219,23.26,22.89,10.16,0,5
15803.531,0.953,-0.179,-0.233,27.07,28.29,9.98,0,5
15803.531,0.946,-0.151,-0.216,26.43,35.58,10.1,0,5
15803.546,0.952,-0.146,-0.193,22.71,41.35,9.58,0,5
15803.562,0.935,-0.141,-0.162,17.94,45.14,9.03,0,5
15803.562,0.915,-0.153,-0.126,14.47,45.9,9.43,0,5
15803.578,0.913,-0.174,-0.114,13.58,44.07,10.99,0,5
15803.593,0.906,-0.18,-0.114,15.17,41.47,12.63,0,5
15803.593,0.891,-0.19,-0.113,18.77,39.49,14.01,0,5
15803.609,0.885,-0.198,-0.113,23.65,38.33,15.26,0,5
15803.625,0.895,-0.197,-0.121,29.02,37.54,16.14,0,5
15803.625,0.902,-0.196,-0.133,33.94,37.32,16.97,0,5
15803.64,0.885,-0.183,-0.137,36.47,37.66,17.46,0,5
15803.64,0.885,-0.191,-0.151,36.47,37.63,18.56,0,5
15803.656,0.893,-0.199,-0.163,35.07,38.73,18.98,0,5
15803.671,0.886,-0.186,-0.16,32.59,41.78,18.89,0,5
15803.687,0.877,-0.178,-0.153,30.03,46.63,18.74,0,5
15803.687,0.867,-0.172,-0.138,27.77,52.28,18.77,0,5
15803.703,0.844,-0.16,-0.11,26.31,58.2,19.38,0,5
15803.703,0.812,-0.159,-0.07,26.12,62.75,20.66,0,5
15803.718,0.785,-0.223,-0.055,29.36,62.69,24.08,0,5
15803.734,0.795,-0.266,-0.052,34.21,58.93,28.14,0,5
15803.734,0.802,-0.261,-0.051,38.36,56.03,28.66,0,5
15803.75,0.807,-0.265,-0.045,39.4,55.97,26.22,0,5
15803.75,0.819,-0.257,-0.027,37.17,58.14,22.43,0,5
15803.765,0.803,-0.237,-0.004,35.95,61.8,18.89,0,5
15803.781,0.777,-0.205,0.025,37.2,64.55,15.72,0,5
15803.781,0.752,-0.158,0.05,40.44,66.26,13.76,0,5
15803.796,0.712,-0.102,0.073,43.98,68.33,13.55,0,5
15803.812,0.677,-0.071,0.1,45.81,70.07,15.2,0,5
15803.828,0.639,-0.064,0.123,46.51,71.17,20.39,0,5
15803.828,0.633,-0.053,0.145,47.18,70.44,29.42,0,5
15803.843,0.631,-0.067,0.16,49.9,69.37,40.38,0,5
15803.859,0.594,-0.177,0.187,60.27,67.69,63.72,0,5
15803.875,0.584,-0.185,0.192,66.35,67.35,68.36,0,5
15803.875,0.561,-0.188,0.198,70.13,67.81,67.32,0,5
15803.89,0.559,-0.178,0.206,70.93,67.96,63.97,0,5
15803.89,0.563,-0.148,0.217,69.58,70.13,60.98,0,5
15803.906,0.544,-0.121,0.244,66.74,75.01,58.99,0,5
15803.921,0.519,-0.136,0.283,64.82,79.35,58.63,0,5
15803.921,0.481,-0.168,0.306,63.17,81.76,61.16,0,5
15803.937,0.44,-0.208,0.341,62.26,82.95,67.14,0,5
15803.953,0.424,-0.249,0.381,64.88,81.7,72.73,0,5
15803.953,0.42,-0.269,0.416,71.41,78.65,76.3,0,5
15803.968,0.438,-0.275,0.431,79.84,73.58,77.3,0,5
15803.984,0.431,-0.27,0.443,86.89,69.19,76.11,0,5
15803.984,0.396,-0.262,0.458,93.08,66.68,72.21,0,5
15804.0,0.358,-0.254,0.484,99.43,65.31,67.45,0,5
15804.015,0.284,-0.244,0.524,106.39,65.31,63.3,0,5
15804.031,0.344,-0.249,0.546,126.68,57.5,57.37,0,5
15804.031,0.372,-0.214,0.512,135.56,53.04,57.83,0,5
15804.046,0.348,-0.196,0.493,141.0,53.59,58.44,0,5
15804.062,0.374,-0.196,0.493,139.87,55.6,57.1,0,5
15804.062,0.42,-0.193,0.508,134.07,59.79,54.14,0,5
15804.078,0.447,-0.202,0.531,127.41,66.9,50.14,0,5
15804.093,0.484,-0.212,0.565,119.63,73.82,44.92,0,5
15804.093,0.491,-0.214,0.6,113.74,80.26,38.0,0,5
15804.109,0.458,-0.223,0.641,111.88,85.88,30.27,0,5
15804.125,0.43,-0.232,0.692,113.8,88.9,22.8,0,5
15804.125,0.433,-0.227,0.741,117.56,87.74,17.27,0,5
15804.14,0.464,-0.205,0.764,121.86,84.05,13.28,0,5
15804.14,0.508,-0.174,0.773,124.88,79.68,10.62,0,5
15804.156,0.534,-0.14,0.786,124.61,76.39,8.82,0,5
15804.171,0.547,-0.133,0.8,121.4,74.53,7.17,0,5
15804.171,0.521,-0.15,0.831,117.25,75.78,4.73,0,5
15804.203,0.553,-0.18,0.905,110.87,78.16,-6.65,0,5
15804.203,0.57,-0.159,0.911,110.08,77.52,-14.53,0,5
15804.218,0.554,-0.137,0.918,109.68,78.46,-22.34,0,5
15804.234,0.543,-0.12,0.94,107.73,79.07,-29.08,0,5
15804.234,0.503,-0.107,0.972,106.23,78.65,-34.64,0,5
15804.25,0.462,-0.096,0.995,106.85,77.55,-39.89,0,5
15804.265,0.444,-0.071,1.018,108.89,75.05,-45.81,0,5
15804.265,0.46,-0.03,1.022,111.91,70.96,-52.25,0,5
15804.281,0.462,0.046,1.013,114.69,68.24,-58.44,0,5
15804.281,0.413,0.113,1.013,115.63,68.64,-62.81,0,5
15804.296,0.341,0.144,1.033,114.38,70.44,-65.83,0,5
15804.312,0.269,0.196,1.078,112.7,71.99,-69.06,0,5
15804.312,0.227,0.237,1.132,112.22,71.72,-72.27,0,5
15804.328,0.255,0.274,1.175,112.98,68.91,-75.84,0,5
15804.343,0.299,0.372,1.192,115.05,65.16,-79.13,0,5
15804.343,0.271,0.461,1.205,118.59,63.26,-80.84,0,5
15804.359,0.219,0.515,1.222,120.58,62.87,-80.36,0,5
15804.375,0.168,0.589,1.253,118.56,60.43,-78.16,0,5
15804.375,0.113,0.65,1.273,115.97,54.75,-76.14,0,5
15804.39,0.078,0.681,1.288,113.68,46.85,-72.42,0,5
15804.39,0.036,0.759,1.308,113.35,40.07,-69.37,0,5
15804.406,0.057,0.793,1.307,112.13,33.57,-65.71,0,5
15804.421,0.11,0.803,1.295,106.85,26.09,-60.15,0,5
15804.421,0.123,0.806,1.274,103.43,19.56,-54.6,0,5
15804.437,0.159,0.788,1.259,100.71,12.42,-49.17,0,5
15804.453,0.169,0.793,1.253,99.0,6.26,-44.65,0,5
15804.468,0.153,0.815,1.237,99.34,0.67,-41.44,0,5
15804.468,0.175,0.844,1.224,97.9,-5.25,-38.39,0,5
15804.484,0.226,0.849,1.201,93.48,-9.83,-34.67,0,5
15804.484,0.286,0.85,1.184,79.68,-12.85,-23.13,0,5
15804.5,0.288,0.847,1.182,71.9,-14.01,-16.21,0,5
15804.515,0.273,0.85,1.193,63.05,-18.19,-11.2,0,5
15804.515,0.3,0.791,1.159,54.57,-23.71,-8.51,0,5
15804.531,0.32,0.738,1.122,48.04,-30.12,-6.56,0,5
15804.531,0.363,0.698,1.074,43.79,-36.23,-4.88,0,5
15804.546,0.407,0.639,1.032,40.74,-37.14,-2.47,0,5
15804.562,0.464,0.565,1.01,36.35,-30.64,-0.09,0,5
15804.578,0.471,0.517,1.006,30.64,-20.29,-1.16,0,5
15804.578,0.456,0.447,1.012,26.64,-11.78,-4.27,0,5
15804.593,0.445,0.381,1.008,26.06,-7.93,-9.16,0,5
15804.593,0.45,0.345,0.961,31.04,-7.97,-15.53,0,5
15804.609,0.462,0.333,0.923,41.38,-7.17,-22.8,0,5
15804.625,0.475,0.357,0.922,49.38,-1.07,-27.19,0,5
15804.625,0.467,0.376,0.936,51.3,7.69,-27.92,0,5
15804.64,0.46,0.39,0.954,48.31,15.53,-27.19,0,5
15804.64,0.455,0.399,0.964,42.79,20.72,-28.6,0,5
15804.656,0.446,0.371,0.962,37.32,22.28,-32.81,0,5
15804.671,0.434,0.362,0.954,33.88,20.17,-39.4,0,5
15804.687,0.418,0.371,0.923,33.48,14.95,-48.13,0,5
15804.687,0.398,0.388,0.867,35.25,7.48,-57.65,0,5
15804.703,0.383,0.431,0.793,38.15,-1.1,-66.1,0,5
15804.703,0.403,0.477,0.724,40.44,-7.11,-71.29,0,5
15804.718,0.441,0.517,0.679,38.79,-5.65,-72.18,0,5
15804.734,0.461,0.545,0.649,32.87,5.37,-70.16,0,5
15804.734,0.457,0.552,0.66,23.96,21.0,-67.02,0,5
15804.75,0.447,0.545,0.682,15.29,35.8,-64.55,0,5
15804.765,0.416,0.537,0.709,9.09,46.63,-62.93,0,5
15804.765,0.396,0.541,0.741,4.46,52.46,-61.28,0,5
15804.781,0.377,0.537,0.763,2.41,54.51,-60.49,0,5
15804.796,0.354,0.521,0.776,3.88,52.43,-60.18,0,5
15804.796,0.332,0.516,0.775,8.36,46.75,-60.58,0,5
15804.812,0.318,0.517,0.744,14.56,39.8,-62.26,0,5
15804.812,0.303,0.56,0.727,19.07,36.19,-64.46,0,5
15804.828,0.273,0.627,0.732,19.78,37.23,-66.38,0,5
15804.843,0.232,0.71,0.739,14.16,40.07,-67.57,0,5
15804.843,0.19,0.791,0.744,3.66,43.43,-68.3,0,5
15804.859,0.15,0.844,0.749,-9.4,45.99,-68.51,0,5
15804.875,0.117,0.86,0.753,-22.34,47.15,-67.38,0,5
15804.875,0.098,0.876,0.757,-32.23,47.33,-65.03,0,5
15804.89,0.081,0.878,0.755,-38.76,46.75,-62.26,0,5
15804.89,0.069,0.851,0.755,-41.14,44.71,-59.05,0,5
15804.906,0.054,0.835,0.766,-39.22,42.57,-54.41,0,5
15804.921,0.053,0.822,0.781,-33.51,41.05,-49.35,0,5
15804.921,0.047,0.793,0.789,-23.53,39.95,-44.8,0,5
15804.937,0.032,0.784,0.8,-10.35,38.18,-40.74,0,5
15804.953,0.005,0.85,0.815,2.14,36.32,-36.93,0,5
15804.953,-0.015,0.881,0.809,9.92,33.08,-32.23,0,5
15804.968,-0.016,0.866,0.801,13.73,28.72,-26.12,0,5
15804.984,-0.009,0.849,0.797,15.99,23.9,-20.51,0,5
15804.984,0.001,0.836,0.786,17.37,18.8,-17.12,0,5
15805.0,0.003,0.822,0.773,17.67,14.92,-15.08,0,5
15805.0,0.006,0.805,0.758,17.52,12.3,-12.51,0,5
15805.015,0.037,0.794,0.742,16.94,10.83,-9.77,0,5
15805.031,0.003,0.783,0.715,16.33,12.21,-10.25,0,5
15805.046,-0.01,0.7,0.73,11.69,12.02,-4.58,0,5
15805.046,0.08,0.786,0.731,11.69,11.14,-3.81,0,5
15805.062,0.028,0.778,0.698,14.74,15.23,-8.18,0,5
15805.062,-0.006,0.706,0.691,9.52,16.08,-7.32,0,5
15805.078,-0.001,0.719,0.713,4.73,14.37,-2.17,0,5
15805.093,0.018,0.729,0.706,7.02,13.03,2.84,0,5
15805.093,0.002,0.723,0.695,9.25,13.15,4.46,0,5
15805.109,0.005,0.701,0.694,8.94,14.34,7.05,0,5
15805.125,0.01,0.703,0.698,9.19,16.63,8.03,0,5
15805.125,-0.0,0.687,0.693,10.22,18.89,8.39,0,5
15805.14,-0.003,0.678,0.681,10.25,20.91,8.51,0,5
15805.14,-0.01,0.692,0.674,9.34,24.17,7.57,0,5
15805.156,-0.02,0.692,0.66,7.14,27.68,5.71,0,5
15805.171,-0.021,0.706,0.65,3.72,32.53,4.43,0,5
15805.187,-0.06,0.729,0.65,0.76,39.12,3.33,0,5
15805.187,-0.083,0.73,0.672,-4.09,44.31,4.39,0,5
15805.203,-0.101,0.738,0.699,-8.0,46.45,7.35,0,5
15805.203,-0.124,0.726,0.714,-9.0,45.41,10.07,0,5
15805.218,-0.12,0.715,0.732,-9.64,43.0,12.76,0,5
15805.234,-0.127,0.71,0.743,-9.06,40.16,14.22,0,5
15805.234,-0.138,0.698,0.747,-8.24,36.77,14.8,0,5
15805.25,-0.139,0.685,0.751,-8.64,33.2,15.56,0,5
15805.25,-0.135,0.674,0.753,-9.0,29.57,15.44,0,5
15805.265,-0.134,0.665,0.749,-9.0,26.12,14.86,0,5
15805.281,-0.138,0.666,0.747,-9.03,22.98,14.13,0,5
15805.281,-0.141,0.664,0.741,-8.55,20.78,13.67,0,5
15805.296,-0.144,0.658,0.735,-7.29,19.32,13.15,0,5
15805.312,-0.147,0.655,0.728,-5.65,18.34,12.67,0,5
15805.312,-0.146,0.652,0.73,-3.63,18.77,12.39,0,5
15805.328,-0.142,0.635,0.73,-1.86,20.02,12.24,0,5
15805.343,-0.137,0.622,0.729,-0.49,21.36,11.08,0,5
15805.343,-0.138,0.616,0.727,0.31,22.71,9.31,0,5
15805.359,-0.14,0.606,0.723,0.61,23.38,7.17,0,5
15805.359,-0.14,0.602,0.714,1.1,23.47,4.88,0,5
15805.375,-0.143,0.602,0.706,1.53,23.13,2.84,0,5
15805.39,-0.147,0.606,0.698,1.4,22.55,0.76,0,5
15805.39,-0.152,0.606,0.687,1.13,22.0,-1.37,0,5
15805.406,-0.165,0.615,0.677,1.04,22.06,-3.08,0,5
15805.421,-0.178,0.632,0.676,1.19,22.49,-4.27,0,5
15805.421,-0.189,0.646,0.676,1.4,22.95,-4.21,0,5
15805.437,-0.2,0.656,0.682,0.64,24.17,-3.14,0,5
15805.453,-0.206,0.652,0.688,-0.82,26.12,-1.56,0,5
15805.453,-0.205,0.637,0.693,-2.14,27.83,-0.64,0,5
15805.468,-0.205,0.628,0.703,-3.78,28.87,-2.5,0,5
15805.484,-0.227,0.632,0.73,-12.51,23.44,-4.21,0,5
15805.484,-0.288,0.662,0.826,-24.05,8.42,-5.01,0,5
15805.5,-0.307,0.653,0.951,-29.82,-10.22,-5.83,0,5
15805.515,-0.262,0.608,0.94,-33.48,-24.35,-6.56,0,5
15805.515,-0.223,0.57,0.926,-30.55,-31.92,-7.26,0,5
15805.531,-0.191,0.521,0.893,-21.3,-33.72,-8.15,0,5
15805.531,-0.165,0.495,0.86,-8.73,-31.04,-9.16,0,5
15805.546,-0.15,0.498,0.827,5.86,-25.64,-10.93,0,5
15805.562,-0.146,0.52,0.796,18.34,-19.38,-12.57,0,5
15805.578,-0.149,0.555,0.78,26.25,-14.37,-13.64,0,5
15805.578,-0.153,0.584,0.779,30.21,-11.78,-13.89,0,5
15805.593,-0.154,0.619,0.766,31.07,-11.02,-13.49,0,5
15805.593,-0.152,0.646,0.735,29.85,-10.38,-13.0,0,5
15805.609,-0.156,0.665,0.722,26.98,-9.28,-12.05,0,5
15805.609,-0.151,0.682,0.718,23.04,-8.39,-10.99,0,5
15805.625,-0.148,0.693,0.702,19.56,-7.11,-10.16,0,5
15805.64,-0.153,0.704,0.696,15.53,-5.25,-9.52,0,5
15805.64,-0.154,0.711,0.701,10.77,-3.54,-8.58,0,5
15805.656,-0.154,0.711,0.705,5.46,-1.62,-6.81,0,5
15805.671,-0.154,0.701,0.716,-0.61,0.09,-4.76,0,5
15805.671,-0.152,0.682,0.729,-6.23,1.01,-3.11,0,5
15805.687,-0.147,0.664,0.739,-10.1,1.31,-2.2,0,5
15805.703,-0.143,0.645,0.746,-11.78,0.95,-2.01,0,5
15805.703,-0.139,0.628,0.749,-11.17,0.61,-2.14,0,5
15805.718,-0.136,0.623,0.75,-8.76,0.34,-2.47,0,5
15805.734,-0.135,0.619,0.749,-5.62,0.61,-2.62,0,5
15805.734,-0.134,0.617,0.752,-3.27,1.16,-2.69,0,5
15805.75,-0.138,0.621,0.757,-1.77,1.8,-2.93,0,5
15805.765,-0.144,0.622,0.764,-0.61,1.71,-2.9,0,5
15805.765,-0.146,0.62,0.762,0.37,0.34,-2.32,0,5
15805.781,-0.144,0.621,0.761,0.76,-1.8,-1.89,0,5
15805.796,-0.139,0.625,0.753,0.85,-3.97,-2.17,0,5
15805.796,-0.137,0.627,0.744,1.71,-5.89,-2.93,0,5
15805.812,-0.126,0.633,0.724,3.75,-6.44,-2.56,0,5
15805.812,-0.135,0.622,0.709,8.61,-4.39,-2.14,0,5
15805.828,-0.132,0.644,0.712,9.06,-4.09,-3.14,0,5
15805.843,-0.13,0.665,0.719,8.48,-3.33,-3.72,0,5
15805.843,-0.145,0.67,0.711,9.13,-1.71,-3.08,0,5
15805.859,-0.146,0.684,0.716,6.78,-0.98,-2.2,0,5
15805.875,-0.152,0.698,0.725,3.11,-0.24,-1.53,0,5
15805.875,-0.158,0.694,0.728,-0.64,-0.31,-0.67,0,5
15805.89,-0.158,0.685,0.733,-4.03,-0.55,0.4,0,5
15805.906,-0.156,0.678,0.735,-5.98,-0.64,1.07,0,5
15805.906,-0.155,0.661,0.731,-6.71,-0.67,1.1,0,5
15805.921,-0.156,0.648,0.728,-6.44,-0.95,0.82,0,5
15805.921,-0.153,0.642,0.724,-5.13,-0.76,0.64,0,5
15805.937,-0.153,0.639,0.718,-3.75,-0.15,0.4,0,5
15805.953,-0.153,0.636,0.715,-2.62,0.52,0.09,0,5
15805.953,-0.153,0.641,0.711,-1.74,1.43,0.06,0,5
15805.968,-0.154,0.641,0.708,-1.62,2.75,0.12,0,5
15805.984,-0.154,0.637,0.714,-2.01,3.57,-0.03,0,5
15805.984,-0.157,0.64,0.71,-1.86,4.0,-0.43,0,5
15806.0,-0.163,0.646,0.709,-1.59,4.7,-0.64,0,5
15806.0,-0.163,0.646,0.716,-1.25,5.28,-0.4,0,5
15806.015,-0.165,0.645,0.723,-1.34,5.34,-0.21,0,5
15806.031,-0.165,0.644,0.725,-1.95,5.13,0.12,0,5
15806.031,-0.162,0.64,0.728,-2.93,4.82,0.06,0,5
15806.046,-0.159,0.636,0.734,-3.78,4.09,-0.27,0,5
15806.062,-0.156,0.628,0.738,-4.18,2.9,-0.31,0,5
15806.078,-0.154,0.627,0.74,-3.94,2.41,-0.52,0,5
15806.093,-0.152,0.624,0.74,-3.39,2.14,-0.73,0,5
15806.093,-0.149,0.619,0.74,-2.78,1.86,-0.85,0,5
15806.109,-0.15,0.618,0.739,-2.08,1.71,-0.92,0,5
15806.125,-0.148,0.623,0.738,-1.56,1.28,-1.28,0,5
15806.125,-0.149,0.624,0.738,-1.56,1.25,-1.89,0,5
15806.14,-0.154,0.625,0.742,-1.95,1.43,-2.41,0,5
15806.14,-0.16,0.632,0.746,-2.41,1.4,-2.26,0,5
15806.156,-0.155,0.63,0.745,-2.75,1.1,-2.04,0,5
15806.171,-0.153,0.625,0.744,-2.87,1.07,-2.14,0,5
15806.171,-0.154,0.629,0.742,-2.11,1.16,-2.41,0,5
15806.187,-0.158,0.63,0.747,-1.37,1.1,-2.66,0,5
15806.203,-0.16,0.631,0.746,-1.31,0.92,-2.66,0,5
15806.203,-0.158,0.631,0.746,-1.8,0.27,-2.66,0,5
15806.218,-0.16,0.629,0.743,-2.26,-0.24,-2.72,0,5
15806.234,-0.156,0.628,0.737,-3.11,-1.31,-2.44,0,5
15806.25,-0.155,0.619,0.736,-3.2,-1.59,-2.41,0,5
15806.25,-0.154,0.616,0.736,-3.02,-2.08,-2.44,0,5
15806.265,-0.15,0.616,0.736,-2.26,-2.5,-2.35,0,5
15806.281,-0.15,0.62,0.735,-1.4,-2.69,-2.29,0,5
15806.281,-0.151,0.624,0.736,-1.16,-2.17,-2.5,0,5
15806.296,-0.154,0.63,0.739,-1.31,-1.22,-2.75,0,5
15806.312,-0.162,0.639,0.746,-1.5,-0.52,-2.72,0,5
15806.328,-0.168,0.641,0.751,-1.68,-0.52,-1.98,0,5
15806.328,-0.166,0.635,0.752,-1.98,-0.79,-1.46,0,5
15806.343,-0.166,0.629,0.753,-2.04,-1.31,-1.53,0,5
15806.343,-0.165,0.624,0.75,-1.53,-1.59,-1.71,0,5
15806.359,-0.166,0.625,0.744,-0.76,-1.71,-1.68,0,5
15806.375,-0.169,0.63,0.738,-0.31,-1.43,-1.65,0,5
15806.375,-0.17,0.624,0.737,-0.49,-1.04,-1.62,0,5
15806.39,-0.168,0.621,0.737,-0.61,-1.19,-1.43,0,5
15806.406,-0.17,0.619,0.734,-0.43,-1.68,-1.31,0,5
15806.421,-0.168,0.613,0.734,-0.21,-1.77,-1.25,0,5
15806.437,-0.167,0.613,0.733,0.4,-1.98,-1.25,0,5
15806.437,-0.165,0.616,0.733,1.56,-2.11,-1.31,0,5
15806.453,-0.168,0.621,0.73,3.57,-1.22,-1.37,0,5
15806.453,-0.169,0.624,0.73,3.45,-1.46,-1.43,0,5
15806.468,-0.168,0.623,0.735,3.81,-1.65,-1.34,0,5
15806.484,-0.167,0.627,0.731,3.51,-1.86,-1.56,0,5
15806.484,-0.167,0.64,0.733,2.93,-1.92,-1.53,0,5
15806.5,-0.164,0.635,0.732,2.41,-2.29,-0.89,0,5
15806.515,-0.159,0.635,0.732,2.08,-2.41,-0.73,0,5
15806.515,-0.159,0.635,0.731,2.26,-2.29,-0.89,0,5
15806.531,-0.157,0.631,0.729,2.47,-2.01,-0.92,0,5
15806.546,-0.159,0.631,0.727,2.5,-1.83,-1.07,0,5
15806.546,-0.162,0.637,0.732,2.44,-1.46,-1.13,0,5
15806.562,-0.166,0.643,0.737,2.01,-1.31,-1.07,0,5
15806.562,-0.163,0.641,0.739,1.19,-1.59,-0.76,0,5
15806.578,-0.162,0.64,0.742,0.15,-1.8,-0.4,0,5
15806.593,-0.163,0.641,0.749,-0.61,-1.74,-0.24,0,5
15806.593,-0.159,0.639,0.752,-0.95,-2.08,-0.18,0,5
15806.609,-0.154,0.63,0.754,-0.52,-2.17,-0.12,0,5
15806.625,-0.151,0.629,0.75,0.34,-2.08,-0.31,0,5
15806.625,-0.152,0.631,0.752,1.16,-1.92,-0.52,0,5
15806.64,-0.155,0.637,0.751,1.68,-1.56,-0.67,0,5
15806.64,-0.153,0.638,0.743,1.74,-1.04,-0.76,0,5
15806.656,-0.156,0.637,0.741,1.59,-0.21,-0.64,0,5
15806.671,-0.164,0.642,0.746,1.01,0.21,-0.7,0,5
15806.671,-0.165,0.643,0.745,0.4,0.0,-0.58,0,5
15806.687,-0.166,0.641,0.744,-0.06,-0.52,-0.43,0,5
15806.703,-0.166,0.642,0.747,-0.73,-0.98,-0.37,0,5
15806.703,-0.165,0.64,0.745,-1.34,-1.19,-0.09,0,5
15806.718,-0.164,0.63,0.742,-1.83,-1.46,0.12,0,5
15806.734,-0.157,0.623,0.742,-1.98,-1.86,0.12,0,5
15806.734,-0.156,0.619,0.738,-1.34,-2.14,-0.06,0,5
15806.75,-0.158,0.62,0.733,-0.31,-1.98,-0.4,0,5
15806.75,-0.16,0.628,0.736,0.43,-1.62,-0.49,0,5
15806.765,-0.164,0.634,0.736,0.64,-1.01,-0.73,0,5
15806.781,-0.166,0.636,0.737,0.49,-0.64,-0.67,0,5
15806.781,-0.167,0.642,0.742,0.06,-0.58,-0.46,0,5
15806.796,-0.166,0.641,0.742,-0.58,-0.89,-0.49,0,5
15806.812,-0.165,0.634,0.739,-0.92,-1.34,-0.34,0,5
15806.812,-0.159,0.629,0.735,-0.7,-1.59,-0.4,0,5
15806.828,-0.158,0.626,0.731,0.06,-1.4,-0.58,0,5
15806.843,-0.163,0.629,0.731,0.49,-0.95,-0.58,0,5
15806.843,-0.167,0.635,0.734,0.12,-0.52,-0.4,0,5
15806.859,-0.166,0.637,0.739,-0.55,-0.61,-0.34,0,5
15806.875,-0.165,0.635,0.743,-1.19,-0.64,-0.15,0,5
15806.875,-0.165,0.633,0.745,-1.68,-0.85,-0.15,0,5
15806.89,-0.163,0.626,0.743,-1.37,-1.22,-0.46,0,5
15806.89,-0.161,0.623,0.739,-0.58,-1.53,-0.52,0,5
15806.906,-0.161,0.624,0.737,0.52,-1.56,-0.52,0,5
15806.921,-0.163,0.627,0.736,1.28,-1.25,-0.55,0,5
15806.921,-0.164,0.63,0.735,1.1,-1.16,-0.58,0,5
15806.937,-0.162,0.629,0.735,0.61,-1.19,-0.52,0,5
15806.953,-0.162,0.633,0.734,0.34,-1.16,-0.64,0,5
15806.968,-0.165,0.637,0.735,-0.18,-0.7,-0.61,0,5
15806.968,-0.165,0.635,0.739,-0.55,-0.24,-0.55,0,5
15806.984,-0.165,0.634,0.742,-0.43,-0.21,-0.49,0,5
15806.984,-0.165,0.633,0.742,-0.27,-0.52,-0.34,0,5
15807.0,-0.164,0.633,0.742,-0.09,-0.61,-0.52,0,5
15807.015,-0.162,0.627,0.739,0.37,-0.76,-0.27,0,5
15807.015,-0.159,0.625,0.735,0.7,-0.82,-0.15,0,5
15807.031,-0.159,0.627,0.732,1.07,-0.76,-0.21,0,5
15807.031,-0.16,0.629,0.731,1.1,-0.49,-0.21,0,5
15807.046,-0.163,0.629,0.734,0.73,-0.55,-0.21,0,5
15807.062,-0.163,0.63,0.738,0.24,-0.73,-0.18,0,5
15807.078,-0.164,0.633,0.738,-0.03,-0.85,-0.4,0,5
15807.078,-0.165,0.635,0.741,-0.21,-1.01,-0.4,0,5
15807.093,-0.162,0.631,0.741,0.34,-0.89,-0.03,0,5
15807.109,-0.163,0.631,0.741,0.67,-0.85,-0.09,0,5
15807.125,-0.163,0.633,0.74,0.92,-0.73,-0.18,0,5
15807.125,-0.164,0.628,0.74,0.82,-0.76,-0.18,0,5
15807.14,-0.161,0.626,0.739,0.55,-0.82,-0.18,0,5
15807.14,-0.162,0.627,0.739,0.52,-0.85,-0.24,0,5
15807.156,-0.162,0.634,0.738,0.73,-0.67,-0.46,0,5
15807.171,-0.167,0.634,0.74,0.98,-0.21,-0.49,0,5
15807.187,-0.169,0.632,0.74,1.22,-0.18,-0.37,0,5
15807.187,-0.166,0.637,0.738,1.5,-0.58,-0.43,0,5
15807.203,-0.16,0.645,0.733,1.77,-1.01,-0.73,0,5
15807.203,-0.174,0.641,0.725,1.37,-1.25,-1.62,0,5
15807.218,-0.171,0.619,0.731,0.06,-1.46,-0.27,0,5
15807.234,-0.154,0.629,0.729,0.76,-1.56,0.76,0,5
15807.234,-0.16,0.636,0.722,2.04,-1.53,-0.73,0,5
15807.25,-0.171,0.639,0.727,1.25,-1.34,-1.43,0,5
15807.265,-0.167,0.632,0.736,-1.37,-1.25,-0.43,0,5
15807.281,-0.165,0.632,0.738,-1.98,-1.28,-0.18,0,5
15807.281,-0.161,0.626,0.741,-1.37,-1.04,0.24,0,5
15807.296,-0.159,0.618,0.743,0.31,-0.58,0.18,0,5
15807.312,-0.162,0.621,0.742,2.32,-0.34,-0.31,0,5
15807.312,-0.162,0.628,0.74,3.57,-0.67,-0.4,0,5
15807.328,-0.163,0.638,0.737,3.72,-0.67,-0.52,0,5
15807.343,-0.165,0.643,0.734,2.56,-0.61,-0.7,0,5
15807.343,-0.163,0.643,0.735,0.98,-0.7,-0.58,0,5
15807.359,-0.164,0.643,0.738,-0.18,-0.67,-0.46,0,5
15807.375,-0.167,0.641,0.739,-0.79,-0.79,-0.12,0,5
15807.375,-0.164,0.636,0.741,-0.7,-1.16,0.12,0,5
15807.39,-0.161,0.634,0.736,0.34,-1.37,0.12,0,5
15807.39,-0.162,0.635,0.733,1.07,-1.25,-0.34,0,5
15807.406,-0.161,0.63,0.73,1.25,-0.95,-0.4,0,5
15807.421,-0.163,0.627,0.729,1.04,-0.79,-0.15,0,5
15807.437,-0.16,0.633,0.728,0.15,-1.62,-0.06,0,5
15807.453,-0.161,0.632,0.732,-0.37,-1.43,-0.18,0,5
15807.453,-0.161,0.633,0.734,-0.92,-0.98,-0.27,0,5
15807.468,-0.168,0.639,0.748,-1.37,-0.79,-0.15,0,5
15807.484,-0.167,0.634,0.749,-1.37,-0.79,0.06,0,5
15807.484,-0.168,0.633,0.747,-0.7,-0.82,-0.09,0,5
15807.5,-0.17,0.631,0.744,0.24,-0.92,-0.31,0,5
15807.515,-0.169,0.627,0.738,1.13,-1.01,-0.24,0,5
15807.515,-0.168,0.625,0.732,1.92,-1.28,0.15,0,5
15807.531,-0.162,0.627,0.725,2.5,-1.74,0.0,0,5
15807.531,-0.162,0.63,0.721,2.29,-1.62,-0.7,0,5
15807.546,-0.167,0.632,0.721,1.53,-1.59,-0.76,0,5
15807.562,-0.166,0.637,0.724,0.95,-1.62,-0.21,0,5
15807.562,-0.168,0.637,0.729,0.61,-1.71,0.18,0,5
15807.578,-0.17,0.636,0.734,0.52,-2.01,0.55,0,5
15807.593,-0.167,0.632,0.733,0.85,-2.14,0.46,0,5
15807.609,-0.165,0.629,0.733,1.5,-2.14,0.37,0,5
15807.609,-0.163,0.634,0.732,2.29,-1.92,0.06,0,5
15807.609,-0.164,0.642,0.734,2.53,-1.56,-0.37,0,5
15807.625,-0.166,0.643,0.736,2.29,-1.25,-0.64,0,5
15807.64,-0.165,0.646,0.738,1.89,-1.25,-0.37,0,5
15807.64,-0.164,0.644,0.739,1.1,-1.43,-0.43,0,5
15807.656,-0.165,0.644,0.736,1.01,-1.71,-0.4,0,5
15807.671,-0.163,0.643,0.734,1.07,-1.98,-0.27,0,5
15807.671,-0.16,0.641,0.734,1.28,-1.95,-0.24,0,5
15807.687,-0.159,0.644,0.73,1.34,-1.71,-0.31,0,5
15807.703,-0.162,0.65,0.728,0.92,-1.46,-0.34,0,5
15807.718,-0.161,0.647,0.732,-0.09,-1.25,-0.21,0,5
15807.718,-0.16,0.644,0.731,-1.22,-1.16,0.0,0,5
15807.734,-0.162,0.641,0.735,-2.04,-0.89,-0.03,0,5
15807.734,-0.163,0.64,0.738,-2.2,-0.82,0.03,0,5
15807.75,-0.162,0.636,0.738,-1.77,-0.67,0.06,0,5
15807.765,-0.164,0.632,0.738,-1.01,-0.24,0.12,0,5
15807.765,-0.165,0.633,0.738,-0.4,-0.18,0.15,0,5
15807.781,-0.165,0.633,0.735,-0.12,-0.34,0.03,0,5
15807.781,-0.167,0.632,0.733,-0.09,-0.64,-0.09,0,5
15807.796,-0.165,0.629,0.728,-0.27,-0.95,0.0,0,5
15807.812,-0.164,0.63,0.724,-0.31,-1.04,0.0,0,5
15807.828,-0.165,0.631,0.726,-0.27,-0.79,0.06,0,5
15807.828,-0.163,0.631,0.728,-0.18,-0.61,0.0,0,5
15807.843,-0.164,0.633,0.73,0.03,-0.76,-0.15,0,5
15807.843,-0.167,0.641,0.731,0.24,-1.07,-0.31,0,5
15807.859,-0.167,0.641,0.731,0.24,-1.19,-0.18,0,5
15807.859,-0.164,0.639,0.729,0.18,-1.31,0.06,0,5
15807.875,-0.161,0.637,0.728,0.09,-1.62,-0.06,0,5
15807.89,-0.16,0.636,0.726,0.18,-1.77,-0.21,0,5
15807.89,-0.161,0.639,0.726,0.37,-1.65,-0.24,0,5
15807.906,-0.161,0.644,0.727,0.18,-1.31,-0.27,0,5
15807.921,-0.162,0.645,0.733,-0.46,-1.07,-0.18,0,5
15807.921,-0.162,0.64,0.738,-0.7,-1.07,-0.31,0,5
15807.937,-0.162,0.64,0.739,-0.89,-1.13,-0.27,0,5
15807.953,-0.162,0.636,0.74,-0.46,-1.1,-0.21,0,5
15807.968,-0.162,0.634,0.737,-0.06,-1.37,-0.09,0,5
15807.984,-0.163,0.633,0.737,0.24,-1.62,-0.21,0,5
15807.984,-0.163,0.633,0.732,0.4,-1.59,-0.18,0,5
15808.0,-0.163,0.632,0.731,0.31,-1.53,-0.12,0,5
15808.0,-0.164,0.631,0.731,0.27,-1.53,-0.18,0,5
15808.015,-0.162,0.636,0.731,0.15,-1.56,-0.15,0,5
15808.031,-0.162,0.639,0.732,0.37,-1.34,-0.34,0,5
15808.031,-0.163,0.637,0.734,0.7,-1.16,-0.34,0,5
15808.046,-0.162,0.637,0.732,0.98,-1.28,-0.18,0,5
15808.062,-0.162,0.64,0.731,1.04,-1.56,-0.31,0,5
15808.062,-0.163,0.642,0.73,0.7,-1.4,-0.31,0,5
15808.078,-0.161,0.639,0.731,0.18,-1.25,-0.27,0,5
15808.093,-0.162,0.637,0.733,-0.34,-1.31,-0.12,0,5
15808.093,-0.164,0.636,0.733,-0.64,-1.22,-0.18,0,5
15808.109,-0.163,0.636,0.738,-0.55,-1.04,-0.24,0,5
15808.125,-0.161,0.63,0.735,0.4,-0.76,-0.24,0,5
15808.14,-0.161,0.635,0.735,0.76,-0.61,-0.27,0,5
15808.14,-0.163,0.64,0.735,0.67,-0.61,-0.4,0,5
15808.156,-0.161,0.636,0.734,0.34,-0.73,-0.27,0,5
15808.171,-0.16,0.635,0.732,-0.06,-0.85,-0.18,0,5
15808.171,-0.159,0.638,0.732,-0.27,-0.92,-0.21,0,5
15808.187,-0.16,0.638,0.733,-0.27,-0.79,-0.24,0,5
15808.203,-0.161,0.638,0.732,-0.46,-0.76,-0.21,0,5
15808.203,-0.16,0.637,0.732,-0.49,-0.95,-0.09,0,5
15808.218,-0.16,0.64,0.735,-0.4,-1.01,-0.24,0,5
15808.234,-0.162,0.643,0.736,-0.58,-0.67,-0.21,0,5
15808.234,-0.163,0.639,0.739,-0.76,-0.52,-0.15,0,5
15808.25,-0.163,0.634,0.737,-0.76,-0.73,-0.06,0,5
15808.25,-0.16,0.633,0.732,-0.52,-1.07,-0.12,0,5
15808.265,-0.16,0.632,0.732,-0.18,-0.95,-0.24,0,5
15808.281,-0.163,0.635,0.732,-0.06,-0.76,-0.34,0,5
15808.296,-0.163,0.631,0.73,0.03,-0.92,-0.18,0,5
15808.312,-0.164,0.631,0.729,0.09,-0.98,-0.31,0,5
15808.312,-0.165,0.636,0.73,0.09,-0.95,-0.52,0,5
15808.328,-0.167,0.639,0.734,-0.06,-0.85,-0.4,0,5
15808.343,-0.165,0.636,0.734,-0.12,-0.89,-0.27,0,5
15808.343,-0.163,0.637,0.734,-0.12,-1.01,-0.27,0,5
15808.359,-0.165,0.642,0.732,-0.09,-0.98,-0.37,0,5
15808.359,-0.16,0.648,0.73,0.0,-1.01,-0.7,0,5
15808.375,-0.167,0.63,0.732,-0.49,-1.22,-0.4,0,5
15808.39,-0.157,0.632,0.736,-0.79,-1.16,0.06,0,5
15808.39,-0.16,0.637,0.733,0.21,-0.7,0.0,0,5
15808.406,-0.166,0.633,0.732,0.52,-0.92,-0.37,0,5
15808.421,-0.163,0.64,0.734,0.09,-1.37,-0.49,0,5
15808.421,-0.164,0.637,0.734,-0.55,-0.98,-0.55,0,5
15808.437,-0.168,0.637,0.734,-0.89,-0.95,-0.46,0,5
15808.453,-0.166,0.64,0.737,-0.73,-1.16,-0.21,0,5
15808.468,-0.162,0.625,0.735,0.12,-1.25,-0.03,0,5
15808.468,-0.162,0.631,0.731,1.53,-1.25,-0.27,0,5
15808.484,-0.161,0.641,0.729,2.59,-0.79,-0.67,0,5
15808.484,-0.168,0.647,0.728,2.38,-0.43,-0.46,0,5
15808.5,-0.168,0.648,0.73,0.89,-0.61,-0.24,0,5
15808.515,-0.167,0.643,0.729,-0.76,-0.98,-0.03,0,5
15808.515,-0.162,0.63,0.732,-1.65,-1.34,0.09,0,5
15808.531,-0.158,0.624,0.733,-1.56,-1.59,0.12,0,5
15808.531,-0.158,0.627,0.734,-0.73,-1.53,-0.34,0,5
15808.546,-0.16,0.631,0.737,0.24,-1.28,-0.61,0,5
15808.562,-0.163,0.635,0.741,0.67,-0.92,-0.7,0,5
15808.562,-0.163,0.638,0.743,0.67,-0.89,-0.58,0,5
15808.578,-0.163,0.641,0.745,0.43,-1.1,-0.46,0,5
15808.593,-0.164,0.639,0.742,0.46,-1.19,-0.12,0,5
15808.593,-0.161,0.635,0.74,0.64,-1.22,-0.21,0,5
15808.609,-0.162,0.638,0.735,0.95,-1.25,-0.37,0,5
15808.625,-0.162,0.64,0.732,1.04,-1.1,-0.34,0,5
15808.625,-0.16,0.638,0.73,0.52,-0.92,-0.12,0,5
15808.64,-0.161,0.638,0.73,-0.4,-0.73,0.06,0,5
15808.64,-0.16,0.634,0.732,-1.28,-0.58,0.09,0,5
15808.656,-0.161,0.632,0.735,-1.43,-0.61,0.34,0,5
15808.671,-0.16,0.63,0.737,-1.16,-0.61,0.34,0,5
15808.671,-0.163,0.634,0.737,-0.55,-0.37,0.06,0,5
15808.687,-0.169,0.636,0.737,0.09,-0.27,-0.06,0,5
15808.703,-0.168,0.634,0.736,0.61,-0.55,0.27,0,5
15808.703,-0.167,0.634,0.731,0.67,-0.85,0.24,0,5
15808.718,-0.166,0.636,0.729,0.52,-1.04,0.03,0,5
15808.734,-0.167,0.634,0.727,0.46,-1.16,0.15,0,5
15808.734,-0.165,0.632,0.724,0.24,-1.4,0.24,0,5
15808.75,-0.163,0.632,0.723,0.12,-1.5,0.09,0,5
15808.765,-0.166,0.636,0.725,0.12,-1.34,-0.15,0,5
15808.765,-0.166,0.641,0.73,0.03,-1.25,-0.24,0,5
15808.781,-0.167,0.638,0.732,-0.12,-1.34,0.18,0,5
15808.781,-0.164,0.635,0.734,-0.18,-1.53,0.4,0,5
15808.796,-0.161,0.63,0.733,0.21,-1.65,0.27,0,5
15808.812,-0.162,0.634,0.735,0.82,-1.59,0.03,0,5
15808.812,-0.161,0.637,0.736,1.13,-1.19,-0.03,0,5
15808.828,-0.162,0.636,0.736,1.28,-1.13,-0.09,0,5
15808.843,-0.161,0.636,0.736,1.04,-1.34,-0.12,0,5
15808.843,-0.162,0.64,0.737,0.73,-1.28,-0.12,0,5
15808.859,-0.162,0.644,0.738,0.58,-1.07,-0.09,0,5
15808.875,-0.161,0.64,0.739,0.61,-1.13,-0.03,0,5
15808.875,-0.159,0.64,0.739,0.79,-1.07,-0.15,0,5
15808.89,-0.162,0.644,0.735,1.01,-1.01,-0.24,0,5
15808.89,-0.162,0.641,0.735,1.04,-1.01,-0.24,0,5
15808.906,-0.161,0.639,0.731,0.7,-1.22,-0.09,0,5
15808.921,-0.159,0.637,0.728,0.31,-1.25,-0.06,0,5
15808.921,-0.161,0.636,0.729,0.03,-1.25,-0.15,0,5
15808.937,-0.16,0.638,0.731,-0.37,-1.1,-0.27,0,5
15808.953,-0.159,0.634,0.731,-0.31,-1.16,-0.18,0,5
15808.953,-0.161,0.634,0.733,0.0,-1.25,-0.18,0,5
15808.968,-0.161,0.639,0.733,0.24,-1.1,-0.27,0,5
15808.984,-0.163,0.638,0.734,0.37,-1.28,-0.15,0,5
15809.0,-0.164,0.638,0.732,0.24,-1.37,-0.24,0,5
15809.0,-0.165,0.638,0.731,0.37,-1.4,-0.12,0,5
15809.015,-0.165,0.635,0.733,0.52,-1.37,-0.09,0,5
15809.031,-0.166,0.633,0.73,0.82,-1.25,-0.18,0,5
15809.031,-0.164,0.634,0.727,1.16,-1.25,-0.31,0,5
15809.046,-0.162,0.636,0.726,1.34,-1.34,-0.49,0,5
15809.062,-0.164,0.641,0.724,1.22,-1.28,-0.52,0,5
15809.062,-0.163,0.643,0.724,0.92,-1.31,-0.49,0,5
15809.078,-0.162,0.644,0.725,0.46,-1.43,-0.37,0,5
15809.093,-0.162,0.645,0.726,0.12,-1.37,-0.34,0,5
15809.109,-0.162,0.642,0.728,-0.06,-1.28,-0.21,0,5
15809.109,-0.16,0.639,0.732,-0.12,-1.34,-0.03,0,5
15809.109,-0.159,0.636,0.731,0.03,-1.34,-0.15,0,5
15809.125,-0.159,0.635,0.733,0.4,-1.37,-0.21,0,5
15809.14,-0.159,0.635,0.734,0.73,-1.31,-0.18,0,5
15809.156,-0.16,0.637,0.736,0.98,-1.37,-0.21,0,5
15809.171,-0.158,0.636,0.734,0.98,-1.74,-0.31,0,5
15809.171,-0.16,0.639,0.734,0.82,-1.71,-0.4,0,5
15809.187,-0.161,0.64,0.735,0.64,-1.56,-0.34,0,5
15809.203,-0.159,0.637,0.734,0.58,-1.46,-0.21,0,5
15809.203,-0.159,0.637,0.733,0.64,-1.5,-0.18,0,5
15809.218,-0.158,0.641,0.734,0.52,-1.4,-0.27,0,5
15809.218,-0.159,0.639,0.734,0.55,-1.22,-0.15,0,5
15809.234,-0.159,0.636,0.734,0.46,-1.43,0.06,0,5
15809.25,-0.159,0.637,0.732,0.49,-1.34,-0.09,0,5
15809.25,-0.159,0.639,0.732,0.4,-1.07,-0.27,0,5
15809.265,-0.16,0.636,0.732,0.43,-0.95,-0.12,0,5
15809.281,-0.157,0.635,0.733,0.58,-0.85,0.03,0,5
15809.281,-0.159,0.636,0.733,0.73,-0.98,0.0,0,5
15809.296,-0.16,0.638,0.732,0.82,-0.85,0.09,0,5
15809.312,-0.163,0.64,0.734,0.7,-0.76,0.09,0,5
15809.328,-0.161,0.641,0.732,0.43,-0.92,0.18,0,5
15809.343,-0.16,0.637,0.731,0.49,-0.95,0.09,0,5
15809.343,-0.159,0.634,0.729,0.79,-1.01,0.12,0,5
15809.359,-0.162,0.638,0.729,1.1,-0.95,-0.06,0,5
15809.375,-0.162,0.639,0.728,1.37,-0.98,-0.21,0,5
15809.375,-0.159,0.641,0.722,1.34,-1.28,-0.09,0,5
15809.39,-0.159,0.645,0.724,0.98,-1.37,0.0,0,5
15809.39,-0.16,0.649,0.725,0.21,-1.01,-0.06,0,5
15809.406,-0.159,0.649,0.728,-0.12,-0.7,0.0,0,5
15809.421,-0.16,0.649,0.733,-0.31,-0.67,0.03,0,5
15809.421,-0.163,0.648,0.733,-0.67,-0.52,0.15,0,5
15809.437,-0.164,0.645,0.735,-0.61,-0.46,0.24,0,5
15809.453,-0.166,0.631,0.732,-0.4,-0.73,0.27,0,5
15809.453,-0.158,0.629,0.73,0.09,-1.07,0.21,0,5
15809.468,-0.157,0.631,0.724,1.07,-1.01,-0.09,0,5
15809.484,-0.159,0.633,0.722,1.68,-1.1,-0.31,0,5
15809.484,-0.157,0.641,0.722,1.68,-1.16,-0.46,0,5
15809.5,-0.161,0.644,0.724,1.37,-0.98,-0.4,0,5
15809.515,-0.162,0.65,0.73,0.64,-0.82,-0.37,0,5
15809.515,-0.162,0.649,0.732,0.09,-0.85,-0.4,0,5
15809.531,-0.161,0.644,0.735,-0.06,-1.1,-0.37,0,5
15809.531,-0.16,0.643,0.734,0.55,-1.22,-0.31,0,5
15809.546,-0.16,0.641,0.728,1.43,-1.31,-0.24,0,5
15809.562,-0.157,0.642,0.726,1.59,-1.13,-0.24,0,5
15809.562,-0.155,0.642,0.728,1.37,-1.07,-0.09,0,5
15809.578,-0.157,0.641,0.726,0.76,-1.13,-0.09,0,5
15809.593,-0.157,0.644,0.726,0.24,-1.1,-0.15,0,5
15809.593,-0.159,0.646,0.73,-0.27,-0.95,-0.21,0,5
15809.609,-0.162,0.644,0.733,-0.34,-0.98,-0.06,0,5
15809.625,-0.158,0.641,0.734,0.0,-1.13,0.09,0,5
15809.625,-0.16,0.639,0.732,0.4,-1.07,0.18,0,5
15809.64,-0.162,0.636,0.729,0.7,-0.85,0.09,0,5
15809.64,-0.16,0.635,0.729,0.92,-0.92,0.03,0,5
15809.656,-0.158,0.64,0.728,0.95,-0.98,0.03,0,5
15809.671,-0.162,0.649,0.728,0.67,-0.79,-0.24,0,5
15809.671,-0.163,0.647,0.727,0.27,-0.85,-0.31,0,5
15809.687,-0.161,0.649,0.728,-0.21,-0.76,-0.18,0,5
15809.703,-0.161,0.654,0.73,-0.52,-0.52,-0.24,0,5
15809.703,-0.163,0.651,0.73,-0.61,-0.37,-0.21,0,5
15809.718,-0.163,0.644,0.73,-0.76,-0.34,0.12,0,5
15809.734,-0.161,0.639,0.729,-0.7,-0.55,0.27,0,5
15809.734,-0.16,0.634,0.727,-0.24,-0.89,0.31,0,5
15809.75,-0.158,0.633,0.725,0.09,-0.82,0.21,0,5
15809.75,-0.159,0.632,0.723,0.27,-0.64,0.06,0,5
15809.765,-0.159,0.636,0.727,0.12,-0.64,0.12,0,5
15809.781,-0.16,0.638,0.73,-0.12,-0.67,0.06,0,5
15809.781,-0.16,0.638,0.733,-0.24,-0.76,0.18,0,5
15809.796,-0.16,0.637,0.736,0.0,-1.01,0.18,0,5
15809.812,-0.162,0.637,0.738,0.46,-1.04,0.09,0,5
15809.812,-0.162,0.638,0.737,1.07,-1.19,-0.06,0,5
15809.828,-0.162,0.639,0.734,1.92,-1.16,-0.09,0,5
15809.843,-0.16,0.643,0.73,2.04,-1.31,-0.18,0,5
15809.859,-0.161,0.642,0.726,1.68,-1.46,-0.27,0,5
15809.875,-0.157,0.638,0.727,1.56,-1.4,-0.15,0,5
15809.875,-0.156,0.637,0.726,1.65,-1.31,-0.21,0,5
15809.89,-0.16,0.644,0.727,1.92,-1.28,-0.37,0,5
15809.89,-0.16,0.643,0.728,2.32,-1.43,-0.27,0,5
15809.906,-0.157,0.643,0.727,2.69,-1.5,-0.12,0,5
15809.921,-0.157,0.648,0.724,2.87,-1.4,-0.37,0,5
15809.921,-0.16,0.65,0.725,2.9,-0.98,-0.58,0,5
15809.937,-0.161,0.657,0.722,2.78,-0.92,-0.61,0,5
15809.953,-0.161,0.662,0.719,2.23,-0.82,-0.61,0,5
15809.953,-0.16,0.662,0.719,1.31,-0.7,-0.55,0,5
15809.968,-0.162,0.665,0.719,0.46,-0.55,-0.46,0,5
15809.984,-0.161,0.666,0.721,-0.31,-0.55,-0.31,0,5
15809.984,-0.16,0.66,0.72,-0.79,-0.67,-0.09,0,5
15810.0,-0.157,0.652,0.72,-1.25,-0.92,0.06,0,5
15810.015,-0.159,0.644,0.72,-1.37,-1.01,-0.03,0,5
15810.031,-0.16,0.641,0.724,-1.43,-0.95,-0.12,0,5
15810.046,-0.158,0.639,0.726,-1.22,-1.07,-0.06,0,5
15810.046,-0.159,0.637,0.728,-1.13,-0.95,-0.03,0,5
15810.062,-0.16,0.637,0.729,-0.7,-0.89,0.15,0,5
15810.062,-0.158,0.637,0.732,-0.24,-0.82,0.12,0,5
15810.078,-0.161,0.64,0.734,0.21,-0.76,-0.09,0,5
15810.093,-0.161,0.641,0.732,0.58,-0.67,-0.12,0,5
15810.093,-0.161,0.641,0.73,0.85,-0.73,0.12,0,5
15810.109,-0.159,0.641,0.729,0.85,-0.95,0.21,0,5
15810.125,-0.16,0.642,0.729,0.82,-0.92,0.0,0,5
15810.125,-0.16,0.641,0.727,0.92,-0.82,0.12,0,5
15810.14,-0.159,0.638,0.728,1.19,-0.89,0.18,0,5
15810.14,-0.159,0.634,0.729,1.34,-1.04,0.31,0,5
15810.156,-0.155,0.635,0.727,1.62,-1.22,0.37,0,5
15810.171,-0.158,0.636,0.726,2.08,-1.37,0.12,0,5
15810.171,-0.159,0.64,0.723,2.35,-1.28,-0.09,0,5
15810.187,-0.158,0.646,0.722,2.5,-1.19,-0.09,0,5
15810.203,-0.157,0.649,0.724,2.5,-1.22,0.03,0,5
15810.203,-0.158,0.648,0.727,2.41,-0.89,0.15,0,5
15810.218,-0.159,0.644,0.736,2.29,-0.95,0.46,0,5
15810.234,-0.158,0.644,0.74,2.38,-0.95,0.34,0,5
15810.234,-0.159,0.644,0.74,2.69,-0.92,0.15,0,5
15810.25,-0.16,0.642,0.739,3.17,-1.01,0.31,0,5
15810.265,-0.162,0.639,0.737,3.63,-1.04,0.43,0,5
15810.265,-0.169,0.636,0.743,4.12,-1.1,0.92,0,5
15810.281,-0.173,0.631,0.756,4.3,-0.58,2.11,0,5
15810.281,-0.183,0.619,0.771,3.97,0.0,3.57,0,5
15810.296,-0.186,0.595,0.784,4.21,-0.58,5.46,0,5
15810.312,-0.18,0.563,0.793,5.46,-1.74,7.2,0,5
15810.312,-0.171,0.53,0.797,7.23,-2.59,8.09,0,5
15810.328,-0.156,0.505,0.785,9.55,-3.17,6.68,0,5
15810.343,-0.117,0.449,0.769,9.25,-4.09,1.83,0,5
15810.343,-0.117,0.384,0.78,1.43,-7.9,-12.02,0,5
15810.359,-0.156,0.362,0.777,-7.26,-12.94,-28.35,0,5
15810.375,-0.177,0.344,0.76,-11.84,-16.57,-37.32,0,5
15810.375,-0.186,0.32,0.741,-12.79,-18.4,-42.42,0,5
15810.39,-0.209,0.32,0.729,-4.3,-20.45,-46.17,0,5
15810.39,-0.21,0.326,0.713,5.31,-21.79,-45.2,0,5
15810.406,-0.19,0.285,0.684,16.63,-22.61,-47.0,0,5
15810.421,-0.147,0.205,0.583,26.76,-22.25,-51.39,0,5
15810.421,-0.133,0.163,0.56,37.81,-20.17,-59.48,0,5
15810.437,-0.137,0.127,0.516,54.75,-15.05,-68.85,0,5
15810.453,-0.158,0.11,0.459,74.56,-6.93,-77.46,0,5
15810.453,-0.181,0.11,0.421,93.36,2.56,-86.4,0,5
15810.468,-0.208,0.097,0.386,110.45,11.44,-95.34,0,5
15810.484,-0.24,0.096,0.341,125.0,20.05,-104.59,0,5
15810.484,-0.275,0.128,0.282,136.05,29.15,-114.32,0,5
15810.5,-0.324,0.156,0.242,140.84,38.39,-122.59,0,5
15810.5,-0.375,0.192,0.224,139.07,46.94,-130.44,0,5
15810.515,-0.444,0.231,0.193,132.11,53.13,-138.31,0,5
15810.531,-0.511,0.25,0.138,117.71,56.25,-143.47,0,5
15810.546,-0.542,0.318,0.176,96.93,59.66,-149.17,0,5
15810.546,-0.585,0.34,0.283,88.44,61.4,-159.31,0,5
15810.562,-0.694,0.336,0.081,86.52,58.02,-169.59,0,5
15810.562,-0.696,0.396,-0.097,54.45,58.2,-174.66,0,5
15810.578,-0.698,0.412,-0.053,4.36,61.28,-180.85,0,5
15810.593,-0.734,0.297,0.066,-28.66,68.45,-187.41,0,5
15810.593,-0.807,0.22,0.097,-35.43,78.07,-191.41,0,5
15810.609,-0.863,0.258,0.067,-29.57,87.59,-192.45,0,5
15810.625,-0.918,0.337,0.037,-23.68,98.91,-193.58,0,5
15810.625,-0.999,0.396,0.044,-22.43,109.87,-195.1,0,5
15810.64,-1.079,0.45,0.072,-23.1,117.1,-196.14,0,5
15810.656,-1.151,0.474,0.087,-23.04,120.64,-195.72,0,5
15810.656,-1.201,0.507,0.102,-24.02,120.03,-193.85,0,5
15810.671,-1.239,0.549,0.102,-29.24,116.86,-191.81,0,5
15810.671,-1.26,0.603,0.084,-46.48,112.8,-189.31,0,5
15810.687,-1.274,0.632,0.061,-77.85,109.68,-187.57,0,5
15810.703,-1.28,0.618,0.063,-119.48,108.62,-185.67,0,5
15810.703,-1.283,0.576,0.085,-162.21,111.51,-184.48,0,5
15810.718,-1.294,0.509,0.115,-197.79,119.36,-181.86,0,5
15810.734,-1.323,0.439,0.17,-221.5,131.81,-178.26,0,5
15810.734,-1.352,0.366,0.242,-230.35,146.03,-174.17,0,5
15810.75,-1.395,0.303,0.312,-225.53,159.95,-169.19,0,5
15810.75,-1.441,0.265,0.385,-210.67,173.35,-164.46,0,5
15810.765,-1.488,0.246,0.469,-190.44,184.51,-160.37,0,5
15810.781,-1.515,0.266,0.549,-168.4,192.94,-156.68,0,5
15810.781,-1.546,0.267,0.67,-148.47,199.01,-152.23,0,5
15810.796,-1.381,-0.108,1.87,-81.09,212.68,-143.41,0,5
15810.812,-1.522,-0.274,2.372,149.17,188.48,-153.02,0,5
15810.812,-1.828,-0.027,1.583,408.0,157.26,-144.23,0,5
15810.828,-1.688,0.771,0.889,531.33,112.49,-111.73,0,5
15810.843,-1.531,1.35,0.447,518.08,63.48,-87.74,0,5
15810.859,-1.456,1.415,0.28,410.63,16.36,-61.53,0,5
15810.859,-1.302,1.249,0.271,285.74,-28.35,-42.42,0,5
15810.875,-1.142,1.055,0.309,184.12,-52.25,-29.91,0,5
15810.875,-0.992,0.888,0.495,108.86,-39.0,-22.77,0,5
15810.89,-0.839,0.972,0.694,66.26,9.8,-15.63,0,5
15810.89,-1.074,1.166,0.665,29.18,47.79,-7.84,0,5
15810.906,-1.296,0.873,0.627,-27.89,41.72,14.53,0,5
15810.921,-1.278,0.553,0.695,-92.41,0.43,42.05,0,5
15810.921,-1.095,0.379,0.759,-140.84,-42.36,58.02,0,5
15810.937,-1.038,0.249,0.688,-169.96,-71.9,50.72,0,5
15810.953,-1.122,0.232,0.505,-194.77,-87.83,36.41,0,5
15810.953,-1.338,0.276,0.385,-216.41,-89.75,36.74,0,5
15810.968,-0.867,0.205,0.407,-217.72,-89.57,56.67,0,5
15810.984,-0.945,0.4,0.33,-207.37,-101.11,42.97,0,5
15810.984,-1.015,0.34,0.321,-181.04,-71.44,60.27,0,5
15811.0,-0.958,0.25,0.366,-171.24,-60.43,71.32,0,5
15811.015,-0.993,0.247,0.542,-152.75,-54.78,71.93,0,5
15811.015,-1.065,0.117,0.557,-110.32,-49.87,73.06,0,5
15811.031,-1.091,0.167,0.527,-80.42,-52.64,75.08,0,5
15811.031,-1.09,0.258,0.528,-64.64,-56.34,75.05,0,5
15811.046,-1.124,0.241,0.536,-59.33,-60.06,75.14,0,5
15811.062,-1.149,0.266,0.559,-60.43,-65.8,77.39,0,5
15811.062,-1.158,0.286,0.557,-62.75,-71.93,82.55,0,5
15811.078,-1.161,0.263,0.566,-66.41,-79.13,87.89,0,5
15811.093,-1.159,0.225,0.556,-65.86,-84.57,92.56,0,5
15811.093,-1.17,0.213,0.571,-63.23,-88.35,95.58,0,5
15811.109,-1.175,0.182,0.626,-54.05,-90.67,97.51,0,5
15811.125,-1.205,0.173,0.667,-36.04,-90.95,99.19,0,5
15811.125,-1.259,0.214,0.652,-17.09,-93.08,101.9,0,5
15811.14,-1.281,0.249,0.607,-5.74,-99.67,107.24,0,5
15811.156,-1.275,0.277,0.576,-4.46,-105.87,114.72,0,5
15811.156,-1.267,0.314,0.545,-11.81,-110.54,120.18,0,5
15811.171,-1.273,0.335,0.535,-24.93,-113.77,122.84,0,5
15811.171,-1.287,0.327,0.544,-39.83,-113.9,126.1,0,5
15811.187,-1.304,0.334,0.556,-54.66,-114.29,129.61,0,5
15811.203,-1.299,0.336,0.581,-67.72,-115.24,131.26,0,5
15811.203,-1.31,0.332,0.617,-77.64,-112.22,132.08,0,5
15811.218,-1.342,0.329,0.636,-84.51,-110.11,132.82,0,5
15811.234,-1.345,0.324,0.653,-89.02,-112.8,133.06,0,5
15811.234,-1.343,0.332,0.678,-90.79,-114.78,133.73,0,5
15811.25,-1.356,0.318,0.691,-89.48,-116.98,134.74,0,5
15811.265,-1.349,0.299,0.706,-87.1,-120.27,135.53,0,5
15811.265,-1.343,0.292,0.705,-83.35,-124.09,135.32,0,5
15811.281,-1.314,0.288,0.679,-78.74,-127.96,133.64,0,5
15811.296,-1.269,0.278,0.654,-74.98,-130.99,131.11,0,5
15811.296,-1.223,0.282,0.653,-70.83,-132.6,129.95,0,5
15811.312,-1.179,0.287,0.661,-67.38,-131.32,131.72,0,5
15811.312,-1.13,0.275,0.687,-65.13,-131.02,133.98,0,5
15811.328,-1.093,0.264,0.696,-63.17,-133.06,134.22,0,5
15811.343,-1.028,0.256,0.676,-64.03,-138.83,132.24,0,5
15811.343,-0.943,0.254,0.673,-67.35,-145.02,128.39,0,5
15811.359,-0.869,0.269,0.67,-72.48,-150.36,122.78,0,5
15811.375,-0.79,0.272,0.647,-85.63,-150.7,113.01,0,5
15811.375,-0.727,0.301,0.657,-89.36,-147.01,107.3,0,5
15811.39,-0.656,0.289,0.684,-84.81,-142.52,104.22,0,5
15811.406,-0.576,0.248,0.72,-75.08,-137.73,103.58,0,5
15811.406,-0.448,0.25,0.753,-62.14,-134.53,101.5,0,5
15811.421,-0.374,0.256,0.755,-49.38,-129.76,97.54,0,5
15811.437,-0.337,0.303,0.764,-40.77,-123.81,90.98,0,5
15811.437,-0.307,0.293,0.79,-35.83,-119.3,85.42,0,5
15811.453,-0.269,0.229,0.81,-33.42,-115.57,84.72,0,5
15811.453,-0.244,0.285,0.866,-36.07,-109.62,85.12,0,5
15811.468,-0.227,0.322,0.92,-44.19,-106.88,79.84,0,5
15811.484,-0.2,0.239,0.943,-53.53,-108.52,73.37,0,5
15811.484,-0.186,0.25,0.996,-64.52,-111.45,69.46,0,5
15811.5,-0.173,0.231,1.037,-72.27,-119.27,64.67,0,5
15811.515,-0.173,0.165,1.058,-74.8,-131.81,60.34,0,5
15811.515,-0.186,0.176,1.067,-74.86,-146.49,57.74,0,5
15811.531,-0.201,0.19,1.056,-75.44,-162.69,54.66,0,5
15811.531,-0.214,0.211,1.051,-80.36,-180.15,50.11,0,5
15811.546,-0.222,0.233,1.007,-87.68,-201.51,43.61,0,5
15811.562,-0.228,0.247,0.93,-94.97,-222.69,36.87,0,5
15811.562,-0.228,0.291,0.872,-103.18,-239.78,31.01,0,5
15811.578,-0.223,0.311,0.81,-110.42,-255.84,25.51,0,5
15811.593,-0.218,0.301,0.718,-114.69,-271.68,21.24,0,5
15811.593,-0.197,0.284,0.63,-113.74,-285.38,20.42,0,5
15811.609,-0.156,0.25,0.551,-105.38,-295.57,23.13,0,5
15811.625,-0.104,0.202,0.463,-89.27,-302.87,27.13,0,5
15811.625,-0.045,0.182,0.372,-68.91,-305.52,30.52,0,5
15811.64,0.021,0.157,0.276,-48.62,-303.29,32.01,0,5
15811.64,0.077,0.112,0.175,-30.0,-298.99,32.17,0,5
15811.656,0.141,0.083,0.075,-14.13,-291.6,31.83,0,5
15811.671,0.202,0.082,-0.023,-2.72,-279.58,30.27,0,5
15811.671,0.268,0.08,-0.124,0.73,-263.92,28.41,0,5
15811.687,0.326,0.061,-0.202,-4.36,-244.94,27.86,0,5
15811.703,0.385,0.035,-0.259,-13.43,-221.72,29.08,0,5
15811.718,0.439,0.012,-0.289,-22.31,-194.16,31.16,0,5
15811.718,0.484,-0.026,-0.296,-28.66,-163.55,33.3,0,5
15811.734,0.519,-0.068,-0.287,-31.56,-131.44,34.3,0,5
15811.734,0.559,-0.106,-0.269,-30.0,-100.25,33.91,0,5
15811.75,0.586,-0.137,-0.24,-23.93,-71.32,31.62,0,5
15811.75,0.602,-0.161,-0.199,-14.07,-45.32,27.22,0,5
15811.765,0.601,-0.178,-0.147,-1.46,-23.41,21.73,0,5
15811.781,0.598,-0.198,-0.101,12.79,-5.92,17.0,0,5
15811.781,0.599,-0.204,-0.059,27.8,7.63,12.97,0,5
15811.796,0.603,-0.204,-0.02,43.79,19.17,9.03,0,5
15811.812,0.603,-0.203,0.006,60.34,29.69,4.52,0,5
15811.812,0.607,-0.193,0.028,75.84,39.74,-0.06,0,5
15811.828,0.611,-0.18,0.055,88.32,50.17,-4.7,0,5
15811.843,0.619,-0.166,0.089,96.77,62.17,-9.25,0,5
15811.843,0.624,-0.15,0.129,100.38,75.56,-14.28,0,5
15811.859,0.62,-0.125,0.173,102.02,88.14,-21.09,0,5
15811.875,0.605,-0.092,0.216,104.74,98.51,-29.21,0,5
15811.875,0.581,-0.052,0.251,109.41,105.72,-37.35,0,5
15811.89,0.57,-0.004,0.284,114.47,111.3,-44.04,0,5
15811.906,0.559,0.061,0.324,115.82,118.78,-47.98,0,5
15811.906,0.538,0.122,0.364,112.7,126.87,-50.66,0,5
15811.921,0.519,0.186,0.419,106.42,135.2,-52.77,0,5
15811.937,0.498,0.266,0.489,94.45,144.81,-53.74,0,5
15811.937,0.46,0.307,0.56,79.68,151.37,-54.41,0,5
15811.953,0.431,0.328,0.625,68.48,152.13,-53.87,0,5
15811.953,0.412,0.366,0.686,62.93,147.74,-52.43,0,5
15811.968,0.402,0.391,0.738,61.92,138.13,-50.84,0,5
15811.984,0.388,0.432,0.775,64.82,126.83,-49.38,0,5
15811.984,0.379,0.487,0.797,68.58,119.17,-47.3,0,5
15812.0,0.387,0.549,0.834,66.71,120.03,-44.16,0,5
15812.015,0.375,0.587,0.889,58.2,125.16,-41.32,0,5
15812.015,0.346,0.584,0.94,50.2,128.61,-39.16,0,5
15812.031,0.331,0.586,0.998,45.84,129.95,-35.16,0,5
15812.031,0.339,0.574,1.052,45.38,128.82,-29.3,0,5
15812.046,0.339,0.578,1.094,49.53,124.36,-23.29,0,5
15812.062,0.337,0.601,1.13,56.43,118.38,-16.91,0,5
15812.062,0.333,0.627,1.169,62.23,113.16,-10.65,0,5
15812.078,0.333,0.632,1.206,65.22,107.91,-4.79,0,5
15812.093,0.336,0.622,1.234,65.31,102.24,0.95,0,5
15812.093,0.339,0.628,1.248,63.26,96.38,5.65,0,5
15812.109,0.344,0.65,1.265,58.32,91.89,9.06,0,5
15812.125,0.342,0.651,1.291,49.32,90.0,11.84,0,5
15812.125,0.32,0.634,1.323,36.93,87.86,14.31,0,5
15812.14,0.296,0.608,1.36,23.26,82.43,17.88,0,5
15812.14,0.298,0.566,1.387,12.09,72.36,23.13,0,5
15812.156,0.299,0.509,1.392,6.56,58.93,27.44,0,5
15812.171,0.288,0.443,1.384,5.16,43.79,31.1,0,5
15812.171,0.304,0.396,1.365,7.57,27.41,34.36,0,5
15812.187,0.324,0.355,1.317,14.4,12.48,36.01,0,5
15812.203,0.339,0.327,1.257,23.35,2.23,37.29,0,5
15812.203,0.35,0.309,1.199,31.37,-3.54,38.48,0,5
15812.218,0.358,0.299,1.148,37.35,-5.95,38.3,0,5
15812.234,0.364,0.315,1.1,40.35,-5.98,36.68,0,5
15812.234,0.352,0.332,1.061,38.48,-5.01,35.19,0,5
15812.25,0.342,0.338,1.035,31.95,-4.76,34.46,0,5
15812.25,0.337,0.344,1.015,23.38,-6.65,33.75,0,5
15812.265,0.33,0.352,0.992,14.74,-10.8,32.56,0,5
15812.281,0.325,0.349,0.966,7.11,-16.75,31.28,0,5
15812.281,0.317,0.359,0.939,1.25,-23.68,30.24,0,5
15812.296,0.31,0.373,0.905,-2.53,-30.12,28.93,0,5
15812.312,0.301,0.382,0.879,-4.7,-34.18,28.38,0,5
15812.312,0.297,0.389,0.862,-5.52,-35.55,28.53,0,5
15812.328,0.287,0.391,0.851,-5.1,-34.82,28.93,0,5
15812.343,0.263,0.373,0.836,-2.75,-33.14,29.3,0,5
15812.343,0.238,0.351,0.83,8.24,-28.35,29.27,0,5
15812.359,0.206,0.342,0.826,15.38,-25.24,27.92,0,5
15812.375,0.148,0.336,0.815,21.27,-22.86,25.09,0,5
15812.39,0.082,0.324,0.806,24.99,-20.6,22.22,0,5
15812.39,0.018,0.316,0.809,25.85,-16.42,20.17,0,5
15812.39,-0.011,0.333,0.832,24.54,-10.38,17.7,0,5
15812.406,-0.055,0.4,0.882,20.05,-5.74,14.22,0,5
15812.421,-0.119,0.444,0.938,14.92,-7.57,11.32,0,5
15812.421,-0.195,0.476,0.956,11.17,-16.45,12.05,0,5
15812.437,-0.227,0.516,0.987,8.42,-29.3,17.21,0,5
15812.453,-0.219,0.52,1.014,9.8,-42.7,24.45,0,5
15812.453,-0.223,0.55,1.013,16.11,-56.22,30.24,0,5
15812.468,-0.187,0.522,0.953,23.62,-69.25,34.0,0,5
15812.484,-0.116,0.473,0.867,32.81,-78.43,32.81,0,5
15812.484,-0.032,0.436,0.778,45.5,-81.0,27.89,0,5
15812.5,0.027,0.414,0.693,61.22,-77.27,18.46,0,5
15812.5,0.071,0.373,0.606,78.89,-69.34,7.2,0,5
15812.515,0.132,0.321,0.529,97.57,-57.71,-2.81,0,5
15812.531,0.204,0.294,0.416,118.11,-40.47,-12.94,0,5
15812.531,0.272,0.263,0.309,139.26,-16.54,-24.99,0,5
15812.546,0.291,0.247,0.261,155.49,10.04,-39.77,0,5
15812.562,0.298,0.258,0.213,165.59,35.89,-55.7,0,5
15812.562,0.335,0.269,0.194,165.47,65.43,-69.34,0,5
15812.578,0.356,0.25,0.232,148.63,96.22,-81.94,0,5
15812.593,0.37,0.185,0.242,120.55,123.26,-98.67,0,5
15812.609,0.366,0.142,0.274,86.06,148.38,-119.97,0,5
15812.609,0.299,0.125,0.356,50.36,171.7,-141.79,0,5
15812.625,0.19,0.105,0.45,17.24,188.21,-158.02,0,5
15812.625,0.088,0.08,0.534,-11.08,194.68,-167.61,0,5
15812.64,0.034,0.02,0.608,-30.85,190.19,-174.29,0,5
15812.64,0.012,-0.072,0.656,-38.82,175.7,-183.02,0,5
15812.656,-0.017,-0.102,0.678,-34.7,155.98,-196.02,0,5
15812.671,-0.06,-0.084,0.671,-20.05,134.07,-209.66,0,5
15812.671,-0.133,-0.033,0.667,1.19,111.06,-219.7,0,5
15812.687,-0.227,0.048,0.683,25.54,86.73,-220.07,0,5
15812.703,-0.256,0.071,0.68,47.64,61.59,-210.58,0,5
15812.718,-0.245,0.103,0.651,67.63,39.19,-203.38,0,5
15812.718,-0.25,0.154,0.591,87.16,20.57,-204.75,0,5
15812.734,-0.268,0.208,0.51,100.74,7.26,-212.71,0,5
15812.734,-0.285,0.287,0.429,105.62,0.79,-226.69,0,5
15812.75,-0.336,0.369,0.343,103.46,1.07,-243.96,0,5
15812.765,-0.432,0.492,0.266,94.94,8.61,-258.4,0,5
15812.765,-0.504,0.652,0.213,76.39,22.77,-270.39,0,5
15812.781,-0.588,0.775,0.171,51.76,40.31,-283.7,0,5
15812.796,-0.705,0.866,0.157,27.86,58.69,-289.71,0,5
15812.796,-0.832,0.967,0.171,7.11,76.75,-278.3,0,5
15812.812,-0.897,0.934,0.176,-11.69,89.82,-252.39,0,5
15812.812,-0.881,0.839,0.178,-24.72,98.97,-228.25,0,5
15812.828,-0.859,0.807,0.178,-26.67,108.62,-216.25,0,5
15812.843,-0.883,0.743,0.158,-17.43,116.98,-214.79,0,5
15812.843,-0.971,0.76,0.133,-7.39,128.12,-218.48,0,5
15812.859,-1.076,0.827,0.133,0.09,136.88,-222.54,0,5
15812.875,-1.184,0.895,0.151,5.25,142.09,-217.84,0,5
15812.875,-1.3,1.05,0.208,1.8,148.17,-203.22,0,5
15812.89,-1.359,1.087,0.282,-12.15,149.75,-184.88,0,5
15812.906,-1.367,0.983,0.357,-26.15,145.42,-164.98,0,5
15812.906,-1.362,0.87,0.4,-31.71,139.53,-142.86,0,5
15812.921,-1.333,0.745,0.432,-27.89,131.47,-121.43,0,5
15812.921,-1.285,0.595,0.457,-15.23,123.26,-105.32,0,5
15812.937,-1.245,0.474,0.47,2.47,117.89,-97.23,0,5
15812.953,-1.214,0.385,0.475,20.81,117.47,-96.01,0,5
15812.953,-1.208,0.318,0.457,35.46,120.91,-100.92,0,5
15812.968,-1.25,0.304,0.41,41.51,126.32,-110.97,0,5
15812.984,-1.292,0.359,0.384,34.61,130.68,-120.85,0,5
15812.984,-1.338,0.378,0.374,18.59,136.11,-130.47,0,5
15813.0,-1.439,0.404,0.335,-12.15,136.88,-133.64,0,5
15813.015,-1.419,0.516,0.305,-60.24,132.02,-132.42,0,5
15813.015,-1.388,0.602,0.342,-117.5,125.61,-146.18,0,5
15813.031,-1.46,0.422,0.389,-169.56,124.33,-149.48,0,5
15813.046,-1.45,0.335,0.467,-208.41,119.42,-139.5,0,5
15813.046,-1.382,0.34,0.543,-220.13,110.78,-131.6,0,5
15813.062,-1.391,0.256,0.605,-209.05,103.09,-121.43,0,5
15813.078,-1.365,0.161,0.676,-179.82,92.41,-106.42,0,5
15813.078,-1.32,0.195,0.65,-135.5,79.56,-91.4,0,5
15813.093,-1.285,0.296,0.535,-97.69,69.77,-75.99,0,5
15813.093,-1.253,0.302,0.458,-81.7,59.76,-62.59,0,5
15813.109,-1.19,0.275,0.436,-80.11,51.03,-51.79,0,5
15813.125,-1.129,0.263,0.426,-83.68,43.79,-43.24,0,5
15813.125,-1.1,0.192,0.409,-86.58,38.21,-35.07,0,5
15813.14,-1.075,0.103,0.428,-84.11,33.78,-24.26,0,5
15813.14,-1.025,0.064,0.445,-70.89,28.35,-14.22,0,5
15813.156,-0.999,0.062,0.402,-53.04,23.04,-6.71,0,5
15813.171,-1.0,0.093,0.332,-44.53,17.4,-2.11,0,5
15813.171,-0.988,0.117,0.271,-50.05,11.47,-0.03,0,5
15813.187,-0.994,0.097,0.226,-66.68,7.66,2.44,0,5
15813.203,-0.997,0.036,0.205,-89.51,4.12,5.62,0,5
15813.203,-0.982,-0.041,0.214,-108.65,1.77,7.9,0,5
15813.218,-0.98,-0.119,0.217,-117.04,1.68,8.55,0,5
15813.234,-0.988,-0.18,0.197,-118.38,1.95,8.45,0,5
15813.234,-0.99,-0.208,0.147,-119.21,-0.61,7.51,0,5
15813.25,-0.975,-0.209,0.159,-121.34,-3.05,5.25,0,5
15813.265,-0.962,-0.236,0.196,-115.76,-0.76,2.26,0,5
15813.265,-0.983,-0.24,0.208,-101.17,4.7,0.55,0,5
15813.281,-0.972,-0.247,0.221,-80.29,9.55,1.83,0,5
15813.296,-0.914,-0.383,0.214,-58.81,7.97,-1.86,0,5
15813.296,-0.934,-0.496,0.167,-44.19,2.96,-20.42,0,5
15813.312,-1.005,-0.389,0.108,-36.99,6.04,-33.91,0,5
15813.312,-1.059,-0.255,0.106,-34.76,8.67,-28.35,0,5
15813.328,-1.043,-0.231,0.115,-38.09,1.13,-6.47,0,5
15813.343,-1.022,-0.255,0.126,-30.64,-0.03,2.08,0,5
15813.343,-1.044,-0.246,0.192,-15.44,-6.32,9.98,0,5
15813.359,-1.038,-0.247,0.241,3.33,-12.24,13.95,0,5
15813.375,-1.056,-0.208,0.222,19.26,-16.14,13.37,0,5
15813.375,-1.069,-0.115,0.208,28.81,-20.78,12.73,0,5
15813.39,-1.058,-0.089,0.207,31.59,-24.63,16.45,0,5
15813.406,-1.02,-0.073,0.213,29.85,-25.97,20.66,0,5
15813.406,-0.984,-0.042,0.231,25.76,-24.96,21.24,0,5
15813.421,-0.981,-0.064,0.239,22.19,-23.68,18.68,0,5
15813.421,-0.987,-0.063,0.271,18.37,-22.19,15.75,0,5
15813.437,-0.961,-0.027,0.292,14.47,-20.84,12.57,0,5
15813.453,-0.94,0.009,0.299,11.08,-16.39,7.78,0,5
15813.453,-0.97,0.069,0.318,8.67,-11.14,4.67,0,5
15813.468,-0.969,0.121,0.363,6.9,-9.67,6.81,0,5
15813.484,-0.946,0.128,0.407,8.06,-12.09,11.38,0,5
15813.484,-0.92,0.119,0.428,12.05,-15.23,14.56,0,5
15813.5,-0.887,0.147,0.441,15.44,-17.58,15.59,0,5
15813.515,-0.869,0.149,0.448,17.12,-18.68,15.69,0,5
15813.515,-0.871,0.125,0.433,16.21,-18.43,13.67,0,5
15813.531,-0.874,0.095,0.414,11.75,-16.72,9.83,0,5
15813.531,-0.898,0.054,0.418,7.29,-11.87,6.41,0,5
15813.546,-0.915,0.02,0.445,5.1,-5.62,5.52,0,5
15813.562,-0.904,-0.038,0.471,4.12,-1.31,6.26,0,5
15813.562,-0.924,-0.089,0.506,3.14,2.38,6.44,0,5
15813.578,-0.982,-0.07,0.57,3.45,5.16,7.51,0,5
15813.593,-1.017,-0.029,0.609,5.83,2.62,12.42,0,5
15813.593,-1.022,0.017,0.627,7.23,-3.27,18.71,0,5
15813.609,-1.001,0.026,0.663,6.84,-11.6,23.77,0,5
15813.609,-0.943,-0.004,0.672,6.23,-20.75,23.62,0,5
15813.625,-0.936,-0.045,0.646,3.97,-29.33,14.16,0,5
15813.64,-0.93,-0.061,0.643,0.92,-34.61,2.35,0,5
15813.656,-0.934,-0.031,0.651,0.49,-35.98,-6.35,0,5
15813.656,-0.983,0.008,0.65,1.74,-35.16,-10.74,0,5
15813.671,-1.02,0.045,0.643,0.67,-35.46,-11.69,0,5
15813.671,-1.043,0.068,0.639,-1.74,-36.9,-9.06,0,5
15813.687,-1.062,0.069,0.651,-5.37,-39.98,-3.6,0,5
15813.703,-1.057,0.043,0.66,-9.61,-45.11,1.95,0,5
15813.703,-1.046,0.001,0.669,-13.55,-50.57,4.85,0,5
15813.718,-1.055,-0.038,0.667,-16.54,-56.0,4.09,0,5
15813.734,-1.056,-0.041,0.654,-19.07,-60.91,1.25,0,5
15813.734,-1.055,-0.032,0.64,-20.97,-64.18,-1.01,0,5
15813.75,-1.045,-0.046,0.638,-24.11,-67.35,-2.29,0,5
15813.765,-1.032,-0.061,0.656,-25.54,-69.4,-3.75,0,5
15813.765,-1.052,-0.075,0.676,-22.31,-70.01,-5.22,0,5
15813.781,-1.077,-0.085,0.689,-16.75,-70.04,-5.92,0,5
15813.781,-1.049,-0.082,0.694,-10.9,-72.6,-7.23,0,5
15813.796,-1.099,-0.07,0.703,-6.65,-75.81,-10.53,0,5
15813.812,-1.126,-0.092,0.721,-2.11,-78.16,-11.41,0,5
15813.812,-1.126,-0.07,0.732,4.85,-81.7,-11.14,0,5
15813.828,-1.119,-0.028,0.729,12.3,-84.69,-10.65,0,5
15813.843,-1.114,-0.001,0.714,14.1,-87.59,-10.86,0,5
15813.843,-1.133,0.022,0.697,9.03,-90.61,-10.99,0,5
15813.859,-1.136,0.017,0.693,1.71,-94.64,-9.83,0,5
15813.875,-1.14,0.017,0.705,-3.02,-97.42,-8.33,0,5
15813.875,-1.129,0.004,0.722,-2.38,-96.16,-5.07,0,5
15813.89,-1.156,0.039,0.687,-1.22,-94.49,-1.92,0,5
15813.89,-1.177,0.061,0.699,-3.45,-90.85,4.97,0,5
15813.906,-1.138,-0.005,0.78,0.7,-87.83,11.87,0,5
15813.921,-1.156,0.018,0.789,12.42,-89.97,13.64,0,5
15813.921,-1.164,0.044,0.812,22.37,-92.59,15.29,0,5
15813.937,-1.192,0.045,0.829,26.34,-97.57,15.78,0,5
15813.953,-1.217,0.049,0.827,24.38,-107.64,16.79,0,5
15813.953,-1.202,0.056,0.814,19.9,-120.03,18.86,0,5
15813.968,-1.194,0.068,0.796,15.38,-129.34,21.3,0,5
15813.984,-1.185,0.086,0.769,11.32,-136.66,23.62,0,5
15813.984,-1.173,0.1,0.732,7.23,-142.86,26.46,0,5
15814.0,-1.135,0.087,0.713,4.73,-145.63,29.82,0,5
15814.015,-1.097,0.068,0.705,4.76,-145.02,31.98,0,5
15814.015,-1.082,0.062,0.7,6.81,-141.39,32.38,0,5
15814.031,-1.055,0.067,0.736,7.66,-135.17,30.58,0,5
15814.046,-1.032,0.055,0.781,8.58,-129.83,27.01,0,5
15814.046,-1.024,0.07,0.814,9.74,-126.83,23.93,0,5
15814.062,-1.044,0.089,0.821,9.74,-128.79,22.68,0,5
15814.062,-1.043,0.083,0.793,8.0,-136.85,22.77,0,5
15814.078,-1.035,0.113,0.749,4.09,-145.21,23.56,0,5
15814.093,-1.028,0.131,0.69,-2.11,-152.01,21.94,0,5
15814.093,-0.991,0.153,0.636,-8.79,-156.13,17.88,0,5
15814.109,-0.941,0.208,0.597,-13.73,-153.36,13.34,0,5
15814.125,-0.854,0.252,0.596,-15.63,-144.75,11.6,0,5
15814.125,-0.762,0.266,0.641,-10.53,-127.54,15.29,0,5
15814.14,-0.756,0.294,0.734,0.15,-104.25,21.64,0,5
15814.14,-0.789,0.275,0.803,11.75,-87.1,29.08,0,5
15814.156,-0.844,0.274,0.851,16.82,-80.75,35.8,0,5
15814.171,-0.868,0.273,0.855,11.69,-88.9,42.42,0,5
15814.187,-0.868,0.23,0.815,-4.15,-107.0,49.32,0,5
15814.187,-0.828,0.135,0.783,-26.67,-124.27,56.37,0,5
15814.203,-0.754,0.065,0.775,-47.52,-138.74,59.48,0,5
15814.203,-0.652,-0.026,0.747,-55.94,-149.54,58.47,0,5
15814.218,-0.554,-0.087,0.746,-53.44,-148.69,55.76,0,5
15814.234,-0.472,-0.123,0.782,-43.4,-136.69,51.15,0,5
15814.234,-0.451,-0.167,0.9,-32.62,-117.4,44.95,0,5
15814.25,-0.487,-0.197,0.984,-25.57,-102.45,36.5,0,5
15814.265,-0.526,-0.174,1.009,-22.06,-98.67,26.25,0,5
15814.265,-0.558,-0.148,1.025,-19.53,-104.92,17.15,0,5
15814.281,-0.573,-0.105,1.007,-18.07,-118.44,11.63,0,5
15814.296,-0.557,-0.04,0.923,-17.06,-135.93,10.01,0,5
15814.296,-0.5,0.009,0.847,-19.1,-150.0,12.36,0,5
15814.312,-0.486,0.021,0.787,-23.77,-155.86,14.89,0,5
15814.312,-0.452,0.012,0.684,-27.04,-161.81,19.5,0,5
15814.328,-0.396,0.001,0.582,-23.32,-160.41,22.43,0,5
15814.343,-0.34,-0.035,0.506,-21.58,-155.03,24.84,0,5
15814.343,-0.23,-0.108,0.411,-21.58,-145.63,25.3,0,5
15814.359,-0.188,-0.125,0.379,-24.35,-133.92,23.13,0,5
15814.375,-0.156,-0.118,0.356,-32.11,-123.2,17.73,0,5
15814.375,-0.119,-0.132,0.348,-42.21,-115.15,11.02,0,5
15814.39,-0.096,-0.141,0.358,-48.71,-106.72,5.77,0,5
15814.39,-0.076,-0.146,0.352,-48.46,-98.76,2.66,0,5
15814.406,-0.037,-0.146,0.343,-43.12,-91.53,0.67,0,5
15814.421,-0.01,-0.133,0.339,-33.57,-83.41,-0.98,0,5
15814.421,-0.004,-0.119,0.326,-22.43,-75.62,-2.32,0,5
15814.437,0.009,-0.104,0.303,-12.27,-69.86,-2.84,0,5
15814.453,0.037,-0.08,0.281,-3.57,-65.25,-1.8,0,5
15814.453,0.062,-0.059,0.258,1.98,-60.06,0.31,0,5
15814.468,0.096,-0.041,0.239,0.34,-53.19,2.17,0,5
15814.484,0.154,-0.043,0.258,-8.21,-44.07,2.47,0,5
15814.484,0.166,-0.061,0.324,-18.22,-31.46,1.1,0,5
15814.5,0.159,-0.086,0.383,-25.7,-20.57,-1.22,0,5
15814.5,0.149,-0.105,0.429,-27.28,-13.64,-3.11,0,5
15814.515,0.153,-0.106,0.49,-23.56,-9.28,-2.87,0,5
15814.531,0.158,-0.112,0.537,-16.6,-5.28,-0.52,0,5
15814.531,0.153,-0.122,0.577,-9.0,-1.46,2.11,0,5
15814.546,0.153,-0.131,0.607,-2.14,0.55,3.63,0,5
15814.562,0.163,-0.129,0.637,2.62,1.98,4.52,0,5
15814.562,0.167,-0.117,0.664,4.79,3.51,3.97,0,5
15814.578,0.188,-0.101,0.713,3.02,7.08,2.93,0,5
15814.593,0.161,-0.106,0.765,-1.5,14.28,1.92,0,5
15814.593,0.134,-0.137,0.816,-5.13,17.94,0.58,0,5
15814.609,0.121,-0.152,0.855,-3.97,17.03,-0.82,0,5
15814.625,0.11,-0.15,0.878,1.4,15.08,-1.25,0,5
15814.625,0.121,-0.132,0.894,7.72,12.67,-1.22,0,5
15814.64,0.13,-0.115,0.902,12.57,11.72,-0.98,0,5
15814.64,0.135,-0.1,0.928,14.53,13.4,-0.82,0,5
15814.656,0.122,-0.093,0.94,13.34,15.69,-2.04,0,5
15814.671,0.123,-0.088,0.95,9.98,15.29,-4.21,0,5
15814.671,0.115,-0.068,0.967,5.58,14.47,-5.52,0,5
15814.687,0.115,-0.06,0.987,0.79,14.28,-5.4,0,5
15814.703,0.104,-0.067,1.006,-3.27,14.28,-4.52,0,5
15814.703,0.105,-0.077,1.024,-5.92,13.37,-3.33,0,5
15814.718,0.103,-0.09,1.033,-6.81,11.87,-3.57,0,5
15814.734,0.102,-0.099,1.026,-6.13,9.74,-5.22,0,5
15814.734,0.103,-0.092,1.027,-4.67,9.28,-6.84,0,5
15814.75,0.105,-0.072,1.023,-2.53,10.41,-8.09,0,5
15814.75,0.103,-0.043,1.036,-1.13,12.94,-8.06,0,5
15814.765,0.078,-0.042,1.045,1.04,14.65,-7.72,0,5
15814.781,0.064,-0.062,1.06,3.42,12.67,-4.58,0,5
15814.781,0.059,-0.049,1.051,8.36,8.91,-2.53,0,5
15814.796,0.069,-0.05,1.029,13.03,4.73,-1.07,0,5
15814.812,0.07,-0.058,1.008,15.02,2.01,-0.31,0,5
15814.828,0.076,-0.067,0.973,16.36,0.18,-0.06,0,5
15814.828,0.083,-0.066,0.938,17.46,-1.13,0.18,0,5
15814.843,0.087,-0.072,0.923,17.27,-0.55,1.1,0,5
15814.843,0.086,-0.087,0.904,15.93,0.24,1.62,0,5
15814.859,0.078,-0.103,0.882,15.38,0.06,1.13,0,5
15814.875,0.073,-0.105,0.86,17.27,-0.43,0.34,0,5
15814.875,0.065,-0.103,0.829,20.48,-1.43,0.0,0,5
15814.89,0.056,-0.109,0.791,24.6,-2.93,0.15,0,5
15814.89,0.055,-0.114,0.754,29.79,-4.85,0.82,0,5
15814.906,0.054,-0.126,0.712,35.07,-6.2,1.68,0,5
15814.921,0.055,-0.144,0.674,40.01,-6.41,1.89,0,5
15814.921,0.064,-0.167,0.637,45.26,-5.28,1.34,0,5
15814.937,0.075,-0.187,0.599,51.67,-3.57,-0.24,0,5
15814.953,0.08,-0.197,0.556,59.88,-1.31,-2.72,0,5
15814.953,0.069,-0.193,0.522,68.76,2.38,-5.43,0,5
15814.968,0.062,-0.181,0.493,77.46,5.89,-8.03,0,5
15814.984,0.074,-0.157,0.474,84.05,9.98,-10.01,0,5
15814.984,0.061,-0.127,0.461,85.67,15.9,-11.93,0,5
15815.0,0.03,-0.1,0.456,80.39,20.17,-14.13,0,5
15815.015,0.002,-0.084,0.463,70.28,21.73,-16.45,0,5
15815.015,-0.047,-0.078,0.476,60.09,21.79,-18.31,0,5
15815.031,-0.114,-0.083,0.475,54.99,20.2,-19.47,0,5
15815.031,-0.162,-0.085,0.454,55.97,16.72,-20.14,0,5
15815.046,-0.165,-0.07,0.406,62.53,14.13,-20.26,0,5
15815.062,-0.107,-0.035,0.335,72.27,15.99,-21.09,0,5
15815.078,-0.076,0.044,0.296,77.3,28.72,-22.61,0,5
15815.078,-0.068,0.12,0.313,74.22,50.51,-24.81,0,5
15815.093,-0.104,0.168,0.341,68.0,74.77,-27.59,0,5
15815.093,-0.189,0.2,0.401,59.33,96.53,-27.92,0,5
15815.109,-0.29,0.225,0.463,51.3,110.39,-26.31,0,5
15815.125,-0.385,0.241,0.528,45.59,114.75,-23.5,0,5
15815.125,-0.406,0.231,0.601,40.96,112.28,-19.65,0,5
15815.14,-0.401,0.241,0.654,36.84,108.71,-16.17,0,5
15815.156,-0.393,0.257,0.675,33.05,107.52,-14.98,0,5
15815.156,-0.413,0.279,0.691,28.81,108.92,-15.9,0,5
15815.171,-0.462,0.292,0.71,26.92,110.6,-17.3,0,5
15815.171,-0.504,0.287,0.708,30.61,109.35,-16.88,0,5
15815.187,-0.542,0.28,0.696,38.88,106.57,-14.86,0,5
15815.203,-0.577,0.281,0.69,47.21,106.85,-13.92,0,5
15815.203,-0.579,0.304,0.653,52.74,108.34,-17.09,0,5
15815.218,-0.56,0.342,0.634,54.11,113.56,-22.25,0,5
15815.234,-0.53,0.37,0.654,51.67,123.94,-25.76,0,5
15815.234,-0.518,0.393,0.685,45.5,136.05,-26.18,0,5
15815.25,-0.572,0.425,0.733,34.46,149.82,-26.73,0,5
15815.265,-0.648,0.417,0.774,22.1,158.76,-28.93,0,5
15815.265,-0.719,0.385,0.832,12.54,162.3,-30.67,0,5
15815.281,-0.788,0.354,0.892,9.98,162.88,-32.59,0,5
15815.281,-0.826,0.321,0.93,15.08,158.73,-35.68,0,5
15815.296,-0.796,0.319,0.952,38.15,147.62,-41.08,0,5
15815.312,-0.728,0.328,0.975,46.11,149.14,-40.19,0,5
15815.312,-0.718,0.331,0.997,47.76,150.61,-41.66,0,5
15815.328,-0.766,0.329,0.988,45.66,150.52,-47.24,0,5
15815.343,-0.892,0.362,1.0,45.66,148.69,-55.48,0,5
15815.359,-0.959,0.365,0.979,47.58,140.93,-61.65,0,5
15815.359,-0.957,0.397,0.972,52.77,130.77,-63.88,0,5
15815.375,-0.931,0.419,0.982,60.46,125.46,-62.62,0,5
15815.375,-0.911,0.403,0.998,66.5,127.08,-60.79,0,5
15815.39,-0.908,0.382,1.008,70.35,130.59,-60.67,0,5
15815.406,-0.952,0.38,0.98,73.49,129.67,-63.75,0,5
15815.406,-0.98,0.384,0.952,75.84,121.37,-69.31,0,5
15815.421,-0.995,0.416,0.917,79.2,111.0,-74.34,0,5
15815.437,-0.991,0.462,0.864,83.01,103.4,-76.54,0,5
15815.437,-1.0,0.5,0.835,82.83,102.42,-76.39,0,5
15815.453,-0.999,0.542,0.812,77.03,104.1,-76.82,0,5
15815.453,-0.999,0.571,0.795,66.07,105.41,-77.27,0,5
15815.468,-1.035,0.563,0.814,51.79,107.12,-76.2,0,5
15815.484,-1.063,0.534,0.826,36.56,105.04,-74.31,0,5
15815.484,-1.068,0.482,0.828,26.37,97.93,-73.34,0,5
15815.5,-1.08,0.423,0.82,25.61,89.45,-72.76,0,5
15815.515,-1.066,0.393,0.777,32.11,80.57,-72.82,0,5
15815.515,-1.018,0.396,0.712,41.05,72.6,-73.31,0,5
15815.531,-1.007,0.425,0.664,48.07,70.86,-73.24,0,5
15815.531,-1.001,0.45,0.635,49.1,74.28,-72.15,0,5
15815.546,-0.975,0.467,0.621,42.94,78.89,-70.53,0,5
15815.562,-0.986,0.467,0.641,32.17,84.48,-68.7,0,5
15815.578,-1.012,0.442,0.675,19.41,89.11,-67.38,0,5
15815.578,-1.037,0.417,0.706,7.23,88.99,-67.38,0,5
15815.593,-1.05,0.393,0.728,-0.49,83.38,-66.84,0,5
15815.593,-1.051,0.368,0.736,-2.38,73.67,-64.67,0,5
15815.609,-1.041,0.336,0.733,1.07,63.23,-60.55,0,5
15815.625,-0.996,0.309,0.7,10.8,51.39,-56.46,0,5
15815.625,-0.953,0.3,0.646,25.15,40.99,-53.01,0,5
15815.64,-0.948,0.301,0.607,41.11,36.38,-49.07,0,5
15815.656,-0.93,0.308,0.562,54.32,36.65,-45.29,0,5
15815.656,-0.917,0.323,0.518,62.07,40.04,-42.48,0,5
15815.671,-0.935,0.325,0.494,64.97,44.56,-40.74,0,5
15815.687,-0.956,0.325,0.475,64.06,47.88,-39.49,0,5
15815.687,-0.966,0.327,0.457,59.39,48.95,-38.48,0,5
15815.703,-0.979,0.322,0.447,52.67,47.91,-37.45,0,5
15815.703,-0.987,0.319,0.437,45.47,44.56,-35.46,0,5
15815.718,-0.976,0.314,0.424,38.94,39.77,-32.72,0,5
15815.734,-0.956,0.307,0.408,33.85,34.79,-29.45,0,5
15815.734,-0.947,0.308,0.39,28.69,31.74,-26.12,0,5
15815.75,-0.945,0.302,0.39,21.97,31.95,-23.32,0,5
15815.765,-0.945,0.285,0.407,15.81,33.45,-22.61,0,5
15815.765,-0.954,0.27,0.414,12.51,33.94,-23.13,0,5
15815.781,-0.968,0.268,0.406,10.35,32.9,-22.74,0,5
15815.781,-0.975,0.26,0.4,8.45,30.98,-21.27,0,5
15815.796,-0.976,0.237,0.422,8.15,28.69,-19.35,0,5
15815.812,-0.948,0.188,0.677,17.43,27.92,-19.62,0,5
15815.812,-0.987,0.217,0.991,58.11,29.91,-22.74,0,5
15815.828,-1.086,0.329,1.149,122.35,25.57,-22.61,0,5
15815.843,-1.122,0.381,1.135,183.26,10.71,-14.47,0,5
15815.843,-1.147,0.39,0.893,225.26,-11.81,-2.44,0,5
15815.859,-1.099,0.335,0.614,236.0,-36.41,12.27,0,5
15815.859,-0.998,0.279,0.425,222.82,-58.57,21.45,0,5
15815.875,-0.925,0.24,0.226,196.39,-67.42,21.82,0,5
15815.89,-0.871,0.277,0.035,154.76,-62.93,17.33,0,5
15815.906,-0.801,0.328,-0.085,104.5,-47.52,11.08,0,5
15815.906,-0.784,0.342,-0.088,56.43,-24.26,2.9,0,5
15815.921,-0.799,0.315,-0.043,19.78,-0.73,-3.39,0,5
15815.921,-0.832,0.295,-0.005,-5.49,17.15,-6.93,0,5
15815.937,-0.887,0.25,0.048,-23.96,28.5,-7.93,0,5
15815.953,-0.901,0.209,0.114,-38.09,32.29,-6.65,0,5
15815.968,-0.92,0.194,0.15,-47.67,30.58,-5.74,0,5
15815.968,-0.919,0.187,0.162,-55.73,25.82,-5.89,0,5
15815.984,-0.918,0.169,0.192,-62.72,19.96,-7.45,0,5
15815.984,-0.927,0.129,0.228,-63.94,13.37,-10.04,0,5
15816.0,-0.933,0.112,0.228,-56.73,6.13,-12.82,0,5
15816.015,-0.936,0.126,0.207,-44.77,0.82,-14.4,0,5
15816.015,-0.935,0.145,0.191,-31.5,-1.37,-14.37,0,5
15816.031,-0.937,0.159,0.172,-17.4,-0.06,-13.4,0,5
15816.031,-0.938,0.18,0.152,-3.85,3.48,-11.84,0,5
15816.046,-0.943,0.195,0.136,6.5,7.66,-10.28,0,5
15816.062,-0.943,0.201,0.131,11.54,11.6,-9.0,0,5
15816.062,-0.944,0.202,0.136,11.72,15.11,-8.12,0,5
15816.078,-0.95,0.203,0.151,8.7,18.04,-8.15,0,5
15816.093,-0.958,0.199,0.172,3.69,20.17,-8.67,0,5
15816.093,-0.969,0.191,0.194,-1.92,21.12,-9.22,0,5
15816.109,-0.971,0.18,0.215,-7.35,21.06,-9.06,0,5
15816.125,-0.979,0.163,0.235,-11.51,19.99,-8.58,0,5
15816.125,-0.985,0.142,0.242,-13.73,18.01,-8.0,0,5
15816.14,-0.981,0.126,0.249,-14.86,15.81,-7.45,0,5
15816.14,-0.981,0.119,0.248,-14.62,13.31,-7.11,0,5
15816.156,-0.977,0.114,0.236,-13.03,11.2,-6.78,0,5
15816.171,-0.975,0.111,0.224,-11.14,9.34,-6.53,0,5
15816.171,-0.977,0.114,0.211,-8.88,8.21,-6.59,0,5
15816.187,-0.969,0.112,0.192,-7.11,6.99,-6.16,0,5
15816.203,-0.973,0.132,0.173,-7.81,5.62,-6.04,0,5
15816.203,-0.968,0.134,0.17,-10.41,4.94,-5.62,0,5
15816.218,-0.974,0.139,0.169,-14.53,4.88,-5.49,0,5
15816.234,-0.978,0.134,0.169,-19.5,5.31,-4.91,0,5
15816.234,-0.974,0.127,0.178,-24.26,5.37,-4.33,0,5
15816.25,-0.978,0.123,0.194,-26.55,5.13,-4.0,0,5
15816.25,-0.978,0.111,0.2,-26.55,3.97,-3.11,0,5
15816.265,-0.972,0.112,0.196,-25.24,1.98,-1.62,0,5
15816.281,-0.967,0.107,0.192,-21.97,-1.43,0.12,0,5
15816.296,-0.965,0.091,0.187,-19.9,-2.5,0.06,0,5
15816.296,-0.963,0.088,0.181,-17.33,-2.69,-0.4,0,5
15816.312,-0.962,0.089,0.174,-15.11,-2.26,-1.19,0,5
15816.312,-0.955,0.099,0.157,-13.98,-1.34,-2.14,0,5
15816.328,-0.951,0.109,0.156,-14.04,0.09,-3.14,0,5
15816.343,-0.949,0.113,0.16,-15.08,1.04,-4.18,0,5
15816.343,-0.95,0.111,0.166,-16.21,1.92,-4.85,0,5
15816.359,-0.951,0.109,0.173,-16.54,2.62,-5.25,0,5
15816.375,-0.954,0.104,0.178,-15.84,2.75,-5.43,0,5
15816.375,-0.961,0.106,0.184,-14.53,2.29,-5.07,0,5
15816.39,-0.959,0.108,0.186,-13.4,0.98,-4.46,0,5
15816.39,-0.961,0.108,0.183,-12.39,-0.21,-3.94,0,5
15816.406,-0.96,0.106,0.18,-11.54,-1.01,-3.72,0,5
15816.421,-0.959,0.105,0.177,-10.62,-1.34,-3.69,0,5
15816.421,-0.957,0.109,0.171,-9.43,-1.34,-3.54,0,5
15816.437,-0.955,0.113,0.167,-8.48,-1.43,-3.48,0,5
15816.453,-0.956,0.116,0.161,-8.12,-1.43,-3.48,0,5
15816.468,-0.956,0.119,0.158,-8.39,-1.16,-3.3,0,5
15816.468,-0.958,0.124,0.16,-9.7,-0.03,-2.87,0,5
15816.484,-0.96,0.13,0.161,-11.9,1.16,-2.69,0,5
15816.484,-0.962,0.124,0.171,-14.37,2.11,-2.26,0,5
15816.5,-0.966,0.108,0.183,-15.66,2.56,-1.65,0,5
15816.515,-0.971,0.102,0.189,-15.56,2.47,-1.4,0,5
15816.515,-0.97,0.109,0.191,-14.8,2.23,-1.46,0,5
15816.531,-0.968,0.101,0.191,-13.82,1.8,-1.19,0,5
15816.546,-0.966,0.088,0.194,-12.3,1.4,-0.73,0,5
15816.546,-0.961,0.086,0.196,-9.4,0.95,-0.37,0,5
15816.562,-0.958,0.088,0.193,-5.86,0.46,-0.12,0,5
15816.562,-0.954,0.101,0.182,-2.93,0.21,0.0,0,5
15816.578,-0.955,0.112,0.173,-1.37,0.03,-0.24,0,5
15816.593,-0.96,0.117,0.163,-1.43,0.06,-0.21,0,5
15816.593,-0.962,0.125,0.154,-2.81,0.09,0.09,0,5
15816.609,-0.96,0.13,0.147,-5.62,0.46,0.61,0,5
15816.625,-0.961,0.126,0.149,-9.13,0.89,0.92,0,5
15816.625,-0.957,0.126,0.152,-11.75,1.56,1.22,0,5
15816.64,-0.956,0.124,0.161,-13.46,2.35,1.83,0,5
15816.64,-0.954,0.109,0.171,-14.13,2.81,2.35,0,5
15816.656,-0.954,0.108,0.179,-13.89,2.53,3.11,0,5
15816.671,-0.953,0.102,0.195,-12.57,1.8,3.75,0,5
15816.671,-0.953,0.088,0.196,-10.32,0.76,4.52,0,5
15816.687,-0.952,0.081,0.202,-8.94,-0.34,5.01,0,5
15816.703,-0.952,0.074,0.197,-6.87,-1.37,4.55,0,5
15816.703,-0.954,0.083,0.189,-4.79,-2.29,4.15,0,5
15816.718,-0.951,0.083,0.182,-3.17,-2.9,4.03,0,5
15816.734,-0.952,0.078,0.176,-2.62,-3.23,3.88,0,5
15816.734,-0.952,0.082,0.169,-3.08,-3.36,3.51,0,5
15816.75,-0.951,0.081,0.165,-5.04,-2.93,2.5,0,5
15816.75,-0.955,0.09,0.16,-7.84,-2.72,1.46,0,5
15816.765,-0.956,0.073,0.169,-11.81,-2.38,0.58,0,5
15816.781,-0.96,0.057,0.178,-14.31,-1.56,-0.18,0,5
15816.781,-0.966,0.073,0.176,-14.89,-1.5,-0.85,0,5
15816.796,-0.966,0.077,0.18,-15.41,-1.62,-1.31,0,5
15816.812,-0.974,0.065,0.183,-15.72,-1.37,-1.62,0,5
15816.812,-0.974,0.064,0.189,-15.53,-1.74,-1.28,0,5
15816.828,-0.965,0.052,0.189,-14.16,-2.01,-1.01,0,5
15816.843,-0.963,0.052,0.184,-12.45,-2.23,-1.19,0,5
15816.843,-0.961,0.045,0.185,-11.05,-2.04,-1.62,0,5
15816.859,-0.965,0.053,0.183,-9.52,-1.22,-2.5,0,5
15816.875,-0.976,0.063,0.173,-8.61,-0.73,-2.96,0,5
15816.875,-0.976,0.056,0.165,-9.67,-0.03,-3.17,0,5
15816.89,-0.976,0.051,0.165,-11.96,1.16,-3.72,0,5
15816.89,-0.971,0.055,0.165,-13.7,2.35,-4.7,0,5
15816.906,-0.967,0.06,0.17,-13.82,3.85,-5.49,0,5
15816.921,-0.97,0.071,0.177,-13.18,5.01,-5.83,0,5
15816.921,-0.973,0.078,0.185,-11.75,5.46,-5.65,0,5
15816.937,-0.974,0.087,0.195,-10.28,5.46,-5.04,0,5
15816.953,-0.976,0.088,0.197,-9.77,4.79,-4.82,0,5
15816.953,-0.976,0.083,0.194,-9.95,3.72,-4.76,0,5
15816.968,-0.975,0.083,0.187,-10.35,2.5,-4.43,0,5
15816.984,-0.971,0.083,0.178,-10.5,1.37,-4.43,0,5
15816.984,-0.97,0.082,0.169,-10.96,0.61,-4.61,0,5
15817.0,-0.966,0.082,0.168,-11.81,0.37,-4.61,0,5
15817.0,-0.965,0.078,0.165,-12.51,0.67,-4.36,0,5
15817.015,-0.96,0.076,0.165,-12.91,1.1,-4.0,0,5
15817.031,-0.953,0.076,0.168,-12.91,0.98,-3.97,0,5
15817.031,-0.954,0.074,0.17,-13.09,0.89,-4.36,0,5
15817.046,-0.956,0.079,0.173,-13.67,0.79,-4.39,0,5
15817.062,-0.956,0.081,0.171,-13.82,1.07,-4.09,0,5
15817.062,-0.964,0.077,0.172,-13.89,1.28,-3.75,0,5
15817.078,-0.969,0.069,0.174,-13.7,0.73,-3.42,0,5
15817.093,-0.971,0.063,0.174,-13.03,0.27,-3.14,0,5
15817.093,-0.972,0.057,0.173,-12.12,-0.46,-3.05,0,5
15817.109,-0.971,0.049,0.172,-11.26,-1.34,-2.84,0,5
15817.125,-0.967,0.042,0.175,-10.28,-1.77,-2.26,0,5
15817.125,-0.963,0.036,0.177,-8.79,-1.62,-1.92,0,5
15817.14,-0.963,0.028,0.181,-7.05,-1.22,-2.17,0,5
15817.14,-0.968,0.032,0.188,-5.34,-0.92,-2.69,0,5
15817.156,-0.971,0.039,0.192,-3.3,-0.92,-3.05,0,5
15817.171,-0.975,0.044,0.191,-1.34,-1.22,-3.02,0,5
15817.171,-0.978,0.055,0.189,-0.03,-1.89,-2.72,0,5
15817.187,-0.977,0.062,0.186,0.37,-2.59,-2.44,0,5
15817.203,-0.976,0.067,0.181,0.21,-3.17,-2.17,0,5
15817.203,-0.977,0.071,0.182,-0.73,-3.72,-1.89,0,5
15817.218,-0.972,0.065,0.18,-1.71,-3.97,-1.43,0,5
15817.234,-0.97,0.062,0.178,-2.01,-3.81,-0.85,0,5
15817.234,-0.967,0.061,0.176,-1.86,-3.63,-0.49,0,5
15817.25,-0.96,0.055,0.178,-1.68,-3.08,-0.15,0,5
15817.25,-0.96,0.045,0.178,-1.4,-2.47,-0.03,0,5
15817.265,-0.959,0.036,0.179,-0.15,-2.2,-0.7,0,5
15817.281,-0.957,0.041,0.181,0.12,-2.04,-1.65,0,5
15817.281,-0.958,0.046,0.177,0.31,-1.71,-2.26,0,5
15817.296,-0.967,0.059,0.178,-0.03,-1.68,-2.38,0,5
15817.312,-0.964,0.059,0.177,-0.31,-1.83,-1.92,0,5
15817.312,-0.959,0.062,0.175,-0.92,-1.86,-1.83,0,5
15817.328,-0.957,0.067,0.177,-2.01,-1.65,-2.26,0,5
15817.343,-0.959,0.067,0.176,-3.36,-1.04,-2.44,0,5
15817.343,-0.963,0.067,0.179,-4.64,-0.61,-2.17,0,5
15817.359,-0.962,0.065,0.18,-5.62,-0.34,-1.59,0,5
15817.375,-0.962,0.059,0.18,-6.26,-0.12,-1.16,0,5
15817.375,-0.962,0.055,0.182,-6.87,-0.06,-1.22,0,5
15817.39,-0.962,0.049,0.182,-7.54,-0.09,-1.92,0,5
15817.39,-0.966,0.043,0.183,-7.63,-0.12,-2.17,0,5
15817.406,-0.966,0.041,0.183,-7.29,-0.09,-2.14,0,5
15817.421,-0.965,0.042,0.181,-6.59,0.06,-2.47,0,5
15817.421,-0.965,0.045,0.178,-5.98,0.21,-2.96,0,5
15817.437,-0.964,0.053,0.177,-5.65,0.64,-3.08,0,5
15817.453,-0.961,0.055,0.175,-5.4,1.01,-2.72,0,5
15817.453,-0.958,0.054,0.173,-5.52,1.25,-2.41,0,5
15817.468,-0.96,0.045,0.175,-5.77,1.5,-2.01,0,5
15817.484,-0.965,0.039,0.176,-6.01,1.62,-1.95,0,5
15817.484,-0.969,0.036,0.176,-5.95,1.31,-2.2,0,5
15817.5,-0.97,0.038,0.176,-5.74,0.98,-2.32,0,5
15817.515,-0.97,0.046,0.177,-5.77,0.82,-2.41,0,5
15817.515,-0.971,0.049,0.18,-6.16,0.67,-2.5,0,5
15817.531,-0.969,0.047,0.181,-6.62,0.4,-2.32,0,5
15817.546,-0.967,0.046,0.18,-6.93,-0.12,-2.17,0,5
15817.546,-0.962,0.042,0.18,-6.87,-0.55,-2.04,0,5
15817.562,-0.958,0.038,0.176,-6.5,-0.4,-2.08,0,5
15817.562,-0.959,0.034,0.174,-5.49,0.52,-2.01,0,5
15817.578,-0.961,0.036,0.175,-4.94,1.22,-2.2,0,5
15817.593,-0.958,0.033,0.174,-4.52,2.2,-2.38,0,5
15817.593,-0.965,0.034,0.172,-4.12,3.02,-2.66,0,5
15817.609,-0.969,0.043,0.174,-4.46,3.36,-2.84,0,5
15817.625,-0.97,0.047,0.176,-5.52,3.27,-3.17,0,5
15817.625,-0.969,0.041,0.178,-6.38,2.93,-3.23,0,5
15817.64,-0.968,0.038,0.176,-6.59,2.72,-3.08,0,5
15817.64,-0.964,0.038,0.172,-6.53,2.47,-3.02,0,5
15817.656,-0.962,0.041,0.167,-7.23,2.78,-3.36,0,5
15817.671,-0.965,0.04,0.166,-8.21,3.2,-3.57,0,5
15817.671,-0.967,0.043,0.162,-9.43,3.85,-3.45,0,5
15817.687,-0.967,0.045,0.159,-11.08,4.18,-3.42,0,5
15817.703,-0.968,0.043,0.156,-13.09,3.97,-3.57,0,5
15817.703,-0.969,0.043,0.156,-15.63,3.94,-4.03,0,5
15817.718,-0.969,0.039,0.156,-18.56,3.97,-4.43,0,5
15817.734,-0.964,0.042,0.159,-21.33,4.12,-4.46,0,5
15817.75,-0.959,0.051,0.16,-23.8,4.55,-4.73,0,5
15817.75,-0.961,0.051,0.163,-26.25,5.43,-5.19,0,5
15817.765,-0.963,0.048,0.166,-28.69,6.44,-5.28,0,5
15817.765,-0.959,0.044,0.169,-30.55,7.32,-5.28,0,5
15817.781,-0.959,0.037,0.169,-31.62,8.27,-5.43,0,5
15817.781,-0.958,0.035,0.17,-32.78,9.37,-6.1,0,5
15817.796,-0.956,0.035,0.174,-33.75,10.74,-7.23,0,5
15817.812,-0.959,0.039,0.18,-34.7,12.48,-8.73,0,5
15817.812,-0.962,0.047,0.193,-35.16,14.71,-10.38,0,5
15817.828,-0.962,0.062,0.216,-34.46,17.49,-11.78,0,5
15817.843,-0.969,0.073,0.242,-30.18,20.36,-12.48,0,5
15817.843,-0.976,0.096,0.26,-21.45,23.13,-11.32,0,5
15817.859,-0.991,0.135,0.272,-11.6,25.79,-9.09,0,5
15817.875,-1.008,0.17,0.297,-2.59,27.44,-5.55,0,5
15817.875,-1.033,0.201,0.368,7.57,26.37,-0.7,0,5
15817.89,-1.071,0.253,0.438,15.26,20.63,5.68,0,5
15817.89,-1.083,0.27,0.518,18.22,9.98,14.4,0,5
15817.906,-1.09,0.246,0.561,20.42,-4.18,22.49,0,5
15817.921,-1.092,0.25,0.574,20.91,-20.48,27.71,0,5
15817.921,-1.061,0.275,0.56,17.55,-35.95,29.51,0,5
15817.937,-1.053,0.31,0.528,8.09,-47.4,27.1,0,5
15817.953,-1.056,0.335,0.483,-9.95,-54.29,24.11,0,5
15817.953,-1.054,0.34,0.474,-34.39,-55.57,22.55,0,5
15817.968,-1.047,0.33,0.504,-59.14,-54.51,21.7,0,5
15817.984,-1.056,0.295,0.537,-75.38,-53.01,20.63,0,5
15817.984,-1.086,0.258,0.57,-81.21,-51.0,20.94,0,5
15818.0,-1.104,0.239,0.606,-78.55,-48.13,23.13,0,5
15818.015,-1.112,0.223,0.647,-69.22,-45.23,26.64,0,5
15818.015,-1.113,0.207,0.678,-54.63,-43.18,30.79,0,5
15818.031,-1.126,0.204,0.697,-37.42,-41.6,34.15,0,5
15818.031,-1.14,0.207,0.706,-21.52,-42.36,36.38,0,5
15818.046,-1.146,0.222,0.705,-8.82,-45.72,37.75,0,5
15818.062,-1.172,0.237,0.696,0.31,-50.08,38.91,0,5
15818.078,-1.2,0.259,0.681,4.09,-55.76,40.35,0,5
15818.078,-1.202,0.275,0.672,2.41,-62.81,41.96,0,5
15818.093,-1.211,0.289,0.671,-2.56,-69.43,43.43,0,5
15818.093,-1.231,0.291,0.68,-8.39,-75.47,44.95,0,5
15818.109,-1.248,0.273,0.701,-12.42,-81.88,47.18,0,5
15818.125,-1.271,0.253,0.705,-13.15,-89.91,50.48,0,5
15818.125,-1.278,0.244,0.687,-12.12,-99.19,53.74,0,5
15818.14,-1.261,0.247,0.665,-10.96,-107.76,56.25,0,5
15818.14,-1.257,0.264,0.648,-10.5,-113.07,57.47,0,5
15818.156,-1.252,0.275,0.638,-13.67,-116.12,58.05,0,5
15818.171,-1.25,0.272,0.636,-19.32,-118.29,58.53,0,5
15818.171,-1.255,0.267,0.652,-24.05,-119.36,59.39,0,5
15818.187,-1.268,0.252,0.679,-25.73,-119.48,60.76,0,5
15818.203,-1.287,0.234,0.695,-24.81,-120.61,61.68,0,5
15818.218,-1.294,0.234,0.715,-23.74,-124.0,62.26,0,5
15818.218,-1.304,0.23,0.743,-22.37,-126.01,62.87,0,5
15818.234,-1.307,0.24,0.763,-22.4,-126.83,62.07,0,5
15818.234,-1.291,0.262,0.781,-25.39,-128.82,59.39,0,5
15818.25,-1.301,0.272,0.79,-28.6,-140.26,53.41,0,5
15818.265,-1.332,0.266,0.782,-25.82,-150.0,52.74,0,5
15818.265,-1.368,0.249,0.769,-17.67,-158.64,53.22,0,5
15818.281,-1.403,0.228,0.751,-6.81,-164.49,52.89,0,5
15818.296,-1.277,0.278,0.699,1.68,-166.6,50.72,0,5
15818.296,-1.173,0.343,0.69,6.23,-162.33,47.58,0,5
15818.312,-1.122,0.394,0.662,7.08,-155.92,45.5,0,5
15818.312,-1.136,0.444,0.651,0.92,-151.83,45.53,0,5
15818.328,-1.148,0.467,0.679,-9.98,-149.91,46.85,0,5
15818.343,-1.111,0.512,0.682,-23.74,-151.62,48.62,0,5
15818.343,-1.102,0.56,0.675,-40.8,-155.83,50.29,0,5
15818.359,-1.121,0.546,0.675,-58.44,-162.6,53.8,0,5
15818.375,-1.113,0.489,0.669,-73.21,-173.1,60.91,0,5
15818.375,-1.066,0.402,0.652,-80.78,-184.7,69.7,0,5
15818.39,-1.026,0.329,0.638,-82.16,-190.86,77.12,0,5
15818.39,-0.955,0.266,0.62,-80.69,-192.82,80.39,0,5
15818.406,-0.865,0.227,0.609,-78.62,-189.61,80.08,0,5
15818.421,-0.814,0.195,0.598,-75.84,-182.84,77.73,0,5
15818.421,-0.764,0.176,0.587,-73.89,-176.24,75.41,0,5
15818.437,-0.734,0.161,0.585,-73.46,-170.38,73.46,0,5
15818.453,-0.725,0.133,0.583,-74.07,-166.26,71.14,0,5
15818.468,-0.708,0.104,0.582,-74.74,-166.72,68.18,0,5
15818.468,-0.652,0.068,0.563,-71.38,-170.81,65.74,0,5
15818.484,-0.61,0.057,0.549,-66.07,-172.8,64.49,0,5
15818.484,-0.551,0.033,0.518,-60.49,-176.85,63.11,0,5
15818.5,-0.474,0.011,0.482,-56.0,-179.48,62.35,0,5
15818.515,-0.419,0.006,0.453,-54.78,-176.73,61.59,0,5
15818.515,-0.366,-0.034,0.423,-54.29,-171.18,60.0,0,5
15818.531,-0.309,-0.062,0.401,-54.11,-164.07,57.28,0,5
15818.546,-0.268,-0.086,0.398,-52.86,-155.49,53.71,0,5
15818.546,-0.252,-0.133,0.394,-48.59,-147.07,49.38,0,5
15818.562,-0.205,-0.155,0.377,-42.09,-142.09,44.68,0,5
15818.562,-0.148,-0.151,0.353,-33.36,-137.61,39.8,0,5
15818.578,-0.119,-0.153,0.326,-24.75,-130.68,34.79,0,5
15818.593,-0.094,-0.157,0.308,-17.61,-122.99,29.76,0,5
15818.593,-0.06,-0.15,0.284,-10.41,-116.31,24.38,0,5
15818.609,-0.034,-0.134,0.259,-1.71,-108.74,18.86,0,5
15818.625,-0.001,-0.1,0.219,7.32,-100.68,14.71,0,5
15818.625,0.048,-0.068,0.187,15.17,-91.04,12.67,0,5
15818.64,0.093,-0.056,0.161,21.0,-78.71,11.72,0,5
15818.64,0.149,-0.033,0.16,22.46,-62.87,11.2,0,5
15818.656,0.173,-0.008,0.196,19.47,-43.58,10.86,0,5
15818.671,0.16,-0.011,0.247,13.7,-25.79,10.32,0,5
15818.671,0.169,0.001,0.303,5.34,-14.04,9.61,0,5
15818.687,0.164,0.017,0.362,-4.15,-6.04,9.7,0,5
15818.703,0.147,0.009,0.43,-13.64,-0.73,10.16,0,5
15818.703,0.16,0.005,0.489,-21.7,-0.34,11.6,0,5
15818.718,0.179,0.022,0.549,-28.26,-0.98,13.98,0,5
15818.734,0.161,0.006,0.626,-33.27,-0.49,17.0,0,5
15818.734,0.16,-0.032,0.689,-36.44,-2.96,19.5,0,5
15818.75,0.167,-0.045,0.723,-36.26,-7.69,20.69,0,5
15818.765,0.177,-0.054,0.747,-33.27,-12.12,20.29,0,5
15818.765,0.189,-0.06,0.775,-30.79,-14.47,19.1,0,5
15818.781,0.199,-0.072,0.779,-29.24,-15.41,16.88,0,5
15818.796,0.196,-0.073,0.775,-27.56,-14.1,13.92,0,5
15818.796,0.229,-0.069,0.784,-25.54,-9.95,11.32,0,5
15818.812,0.228,-0.066,0.804,-24.6,-3.2,7.97,0,5
15818.812,0.218,-0.069,0.841,-23.71,4.36,5.31,0,5
15818.828,0.208,-0.057,0.879,-22.4,8.0,2.47,0,5
15818.843,0.2,-0.035,0.921,-21.58,9.25,0.49,0,5
15818.859,0.189,-0.018,0.979,-22.0,8.51,-0.79,0,5
15818.859,0.188,-0.016,1.019,-22.58,5.13,-1.31,0,5
15818.859,0.189,-0.032,1.044,-22.77,2.17,-1.01,0,5
15818.875,0.18,-0.041,1.049,-21.88,-2.72,-2.44,0,5
15818.89,0.164,-0.036,1.032,-17.3,-9.7,-3.78,0,5
15818.89,0.177,-0.027,0.995,-8.67,-17.24,-3.36,0,5
15818.906,0.222,-0.007,0.94,-0.76,-21.76,-3.08,0,5
15818.921,0.252,0.013,0.9,2.17,-18.83,-4.15,0,5
15818.921,0.261,0.025,0.879,-0.03,-10.32,-6.16,0,5
15818.937,0.265,0.027,0.875,-5.28,0.18,-8.55,0,5
15818.953,0.258,0.023,0.884,-9.89,10.44,-10.62,0,5
15818.953,0.248,0.029,0.915,-12.27,19.29,-11.6,0,5
15818.968,0.219,0.034,0.956,-13.92,25.36,-11.29,0,5
15818.984,0.197,0.039,0.997,-15.87,28.32,-9.67,0,5
15818.984,0.182,0.029,1.044,-17.64,28.35,-7.42,0,5
15819.0,0.17,0.018,1.068,-18.68,25.51,-5.74,0,5
15819.015,0.156,0.017,1.083,-19.87,19.87,-4.79,0,5
15819.015,0.146,-0.005,1.086,-19.56,12.54,-3.85,0,5
15819.031,0.162,-0.021,1.07,-17.03,5.46,-2.81,0,5
15819.031,0.179,-0.01,1.04,-12.79,0.82,-2.44,0,5
15819.046,0.178,-0.01,1.014,-8.85,0.0,-2.56,0,5
15819.062,0.177,-0.026,0.984,-5.07,0.27,-1.68,0,5
15819.062,0.182,-0.037,0.952,0.15,1.01,0.15,0,5
15819.078,0.188,-0.045,0.923,6.41,2.14,0.92,0,5
15819.093,0.188,-0.057,0.886,13.49,3.57,0.46,0,5
15819.093,0.175,-0.071,0.845,21.85,5.1,-0.49,0,5
15819.109,0.158,-0.072,0.798,31.5,5.95,-1.65,0,5
15819.125,0.132,-0.081,0.734,42.12,4.49,-3.66,0,5
15819.125,0.105,-0.083,0.654,53.59,0.18,-4.03,0,5
15819.14,0.078,-0.073,0.53,66.13,-7.26,-4.49,0,5
15819.14,0.118,-0.043,0.418,71.11,-13.67,-2.44,0,5
15819.156,0.136,-0.01,0.325,65.31,-11.08,-1.13,0,5
15819.171,0.108,-0.016,0.246,49.13,-1.89,-1.34,0,5
15819.171,0.092,-0.024,0.216,25.76,9.92,-0.7,0,5
15819.187,0.085,-0.059,0.218,4.58,21.58,-0.24,0,5
15819.203,0.084,-0.119,0.225,-7.75,31.62,-0.37,0,5
15819.203,0.072,-0.157,0.224,-10.01,40.77,-0.79,0,5
15819.218,0.05,-0.184,0.207,-4.09,48.65,-2.29,0,5
15819.234,0.047,-0.185,0.2,8.36,69.34,-7.32,0,5
15819.234,0.035,-0.167,0.218,8.7,83.04,-12.57,0,5
15819.25,-0.009,-0.142,0.249,7.63,93.81,-17.67,0,5
15819.265,-0.058,-0.124,0.285,7.39,100.83,-20.45,0,5
15819.265,-0.109,-0.107,0.366,10.01,105.38,-22.55,0,5
15819.281,-0.14,-0.089,0.39,15.53,108.98,-24.69,0,5
15819.296,-0.168,-0.054,0.407,20.2,113.19,-26.89,0,5
15819.296,-0.209,-0.022,0.43,20.72,119.79,-29.88,0,5
15819.312,-0.277,-0.024,0.454,18.04,127.26,-33.08,0,5
15819.312,-0.351,-0.001,0.485,15.14,133.82,-36.71,0,5
15819.328,-0.433,-0.02,0.514,13.03,137.03,-36.04,0,5
15819.343,-0.448,-0.017,0.56,13.82,135.9,-35.04,0,5
15819.359,-0.444,0.009,0.567,20.48,136.75,-38.39,0,5
15819.359,-0.448,0.036,0.592,25.15,142.06,-42.54,0,5
15819.375,-0.508,0.071,0.639,22.34,154.18,-45.41,0,5
15819.375,-0.592,0.088,0.68,16.05,164.95,-49.13,0,5
15819.39,-0.689,0.107,0.734,9.4,171.12,-51.64,0,5
15819.39,-0.766,0.118,0.793,4.55,173.01,-52.64,0,5
15819.406,-0.797,0.123,0.836,2.56,168.31,-53.07,0,5
15819.421,-0.775,0.147,0.872,1.98,162.76,-51.3,0,5
15819.437,-0.792,0.157,0.902,1.5,162.6,-48.65,0,5
15819.437,-0.817,0.157,0.906,-0.43,161.96,-45.93,0,5
15819.453,-0.848,0.183,0.928,-7.51,163.67,-43.55,0,5
15819.453,-0.92,0.161,0.932,-16.48,165.56,-44.4,0,5
15819.468,-0.988,0.092,0.944,-23.53,162.11,-45.96,0,5
15819.484,-1.01,0.052,0.957,-22.86,153.81,-46.63,0,5
15819.484,-0.969,0.045,0.935,-9.61,146.52,-47.18,0,5
15819.5,-0.936,0.062,0.921,8.97,148.05,-47.3,0,5
15819.515,-0.915,0.099,0.88,23.47,152.65,-48.07,0,5
15819.515,-0.922,0.134,0.902,26.83,160.59,-46.69,0,5
15819.531,-0.992,0.187,0.932,18.52,172.83,-45.72,0,5
15819.531,-1.052,0.208,0.947,5.31,177.04,-46.51,0,5
15819.546,-1.114,0.183,0.989,-5.1,172.7,-45.53,0,5
15819.562,-1.164,0.149,1.022,-7.39,162.79,-40.99,0,5
15819.562,-1.188,0.087,1.02,-0.82,149.97,-32.62,0,5
15819.578,-1.146,0.051,0.996,12.51,138.37,-25.76,0,5
15819.593,-1.111,0.024,0.967,24.23,132.94,-24.08,0,5
15819.593,-1.065,0.042,0.915,29.36,132.57,-27.62,0,5
15819.609,-1.075,0.079,0.901,27.5,137.03,-34.42,0,5
15819.625,-1.108,0.106,0.897,18.98,141.21,-41.29,0,5
15819.625,-1.132,0.136,0.906,9.4,140.32,-43.89,0,5
15819.64,-1.15,0.155,0.921,5.25,136.97,-41.87,0,5
15819.656,-1.141,0.154,0.928,8.24,129.18,-37.97,0,5
15819.656,-1.126,0.099,0.931,19.62,120.61,-31.8,0,5
15819.671,-1.132,0.059,0.912,34.97,115.02,-25.12,0,5
15819.671,-1.112,0.063,0.872,49.5,109.29,-21.79,0,5
15819.687,-1.115,0.081,0.836,57.01,108.58,-22.49,0,5
15819.703,-1.135,0.084,0.81,54.57,110.97,-25.73,0,5
15819.703,-1.127,0.118,0.782,45.72,111.94,-30.24,0,5
15819.718,-1.112,0.163,0.761,32.53,109.62,-35.07,0,5
15819.734,-1.1,0.172,0.768,18.65,105.2,-37.78,0,5
15819.734,-1.061,0.156,0.783,8.88,99.37,-36.74,0,5
15819.75,-1.053,0.126,0.819,5.22,99.0,-32.96,0,5
15819.765,-1.074,0.107,0.845,6.35,101.11,-31.46,0,5
15819.765,-1.091,0.11,0.846,11.05,98.39,-31.98,0,5
15819.781,-1.108,0.114,0.847,18.4,92.41,-32.26,0,5
15819.796,-1.108,0.126,0.82,27.68,83.38,-30.92,0,5
15819.796,-1.097,0.15,0.759,37.48,73.09,-27.92,0,5
15819.812,-1.061,0.181,0.694,45.5,63.72,-25.12,0,5
15819.812,-1.011,0.222,0.623,49.35,54.78,-21.79,0,5
15819.828,-0.995,0.247,0.584,45.96,52.34,-17.27,0,5
15819.843,-1.004,0.253,0.577,34.39,56.98,-12.57,0,5
15819.843,-1.018,0.238,0.58,18.83,60.95,-8.51,0,5
15819.859,-1.037,0.199,0.602,5.49,61.65,-5.25,0,5
15819.875,-1.048,0.153,0.625,-2.2,58.84,-2.32,0,5
15819.875,-1.041,0.117,0.637,-2.87,53.93,0.76,0,5
15819.89,-1.029,0.087,0.636,3.45,48.04,3.45,0,5
15819.89,-1.017,0.062,0.613,15.81,41.9,5.46,0,5
15819.906,-0.994,0.057,0.571,31.16,36.41,6.87,0,5
15819.921,-0.969,0.079,0.52,44.04,32.81,7.17,0,5
15819.921,-0.961,0.101,0.471,50.9,30.7,5.95,0,5
15819.937,-0.956,0.125,0.43,50.42,30.18,4.7,0,5
15819.953,-0.953,0.15,0.4,43.06,30.15,3.66,0,5
15819.953,-0.952,0.151,0.389,31.28,29.6,2.81,0,5
15819.968,-0.952,0.137,0.384,18.62,28.96,2.32,0,5
15819.984,-0.947,0.127,0.403,7.05,28.6,2.2,0,5
15819.984,-0.932,0.11,0.617,0.03,28.11,0.98,0,5
15820.0,-0.981,0.082,0.928,3.75,27.74,-1.65,0,5
15820.015,-1.044,0.079,1.294,9.09,15.99,-4.61,0,5
15820.015,-1.132,0.055,1.375,18.71,-6.99,-6.26,0,5
15820.031,-1.145,0.0,1.144,20.29,-37.42,-1.46,0,5
15820.031,-1.098,-0.046,0.77,8.58,-70.1,2.08,0,5
15820.046,-0.986,-0.086,0.515,-3.66,-92.32,1.53,0,5
15820.062,-0.9,-0.079,0.311,-5.19,-95.95,-2.29,0,5
15820.062,-0.822,-0.043,0.172,-3.63,-81.67,-5.28,0,5
15820.078,-0.778,0.01,0.118,1.65,-52.55,-5.68,0,5
15820.093,-0.797,0.063,0.103,12.27,-15.56,-3.08,0,5
15820.093,-0.841,0.065,0.132,19.5,18.62,-0.31,0,5
15820.109,-0.887,0.067,0.156,18.68,40.5,0.85,0,5
15820.125,-0.925,0.092,0.183,13.25,51.18,0.73,0,5
15820.125,-0.96,0.091,0.221,5.04,52.89,0.82,0,5
15820.14,-0.972,0.089,0.282,-5.92,46.36,0.95,0,5
15820.156,-0.976,0.079,0.3,-17.27,35.16,1.07,0,5
15820.156,-0.97,0.059,0.31,-27.92,21.0,0.06,0,5
15820.171,-0.966,0.035,0.305,-33.08,6.74,-2.26,0,5
15820.171,-0.953,0.029,0.28,-32.99,-6.1,-3.81,0,5
15820.187,-0.937,0.043,0.236,-30.67,-15.2,-4.3,0,5
15820.203,-0.92,0.042,0.209,-28.41,-18.22,-3.33,0,5
15820.218,-0.914,0.039,0.2,-26.34,-17.79,-2.69,0,5
15820.218,-0.914,0.036,0.209,-15.11,-6.47,1.89,0,5
15820.234,-0.928,0.024,0.246,-5.04,2.44,6.1,0,5
15820.234,-0.965,0.009,0.297,5.46,9.09,10.41,0,5
15820.25,-0.975,-0.011,0.383,14.44,12.57,12.85,0,5
15820.265,-0.981,-0.009,0.42,21.67,14.65,13.82,0,5
15820.265,-1.003,-0.02,0.451,27.22,14.8,14.34,0,5
15820.281,-1.016,-0.028,0.465,31.25,11.84,14.74,0,5
15820.281,-1.026,-0.03,0.467,33.27,6.5,15.05,0,5
15820.296,-1.032,-0.025,0.465,33.36,-0.31,15.23,0,5
15820.312,-1.037,-0.02,0.452,32.59,-7.84,14.53,0,5
15820.312,-1.033,-0.018,0.431,31.34,-15.66,13.06,0,5
15820.328,-1.013,-0.026,0.391,30.18,-22.61,11.87,0,5
15820.343,-0.978,-0.014,0.344,27.62,-27.59,10.9,0,5
15820.343,-0.941,0.014,0.301,22.13,-29.79,8.58,0,5
15820.359,-0.917,0.033,0.265,14.1,-28.96,5.52,0,5
15820.375,-0.907,0.048,0.245,4.39,-25.97,2.99,0,5
15820.375,-0.902,0.05,0.236,-4.3,-22.31,1.22,0,5
15820.39,-0.902,0.046,0.236,-10.13,-18.77,0.67,0,5
15820.39,-0.906,0.042,0.239,-12.36,-15.96,0.95,0,5
15820.406,-0.908,0.028,0.236,-11.17,-14.47,1.98,0,5
15820.421,-0.915,0.019,0.224,-8.27,-13.76,3.27,0,5
15820.421,-0.917,0.019,0.217,-5.92,-13.76,3.97,0,5
15820.437,-0.923,0.027,0.214,-4.94,-15.17,4.12,0,5
15820.453,-0.929,0.033,0.206,-4.94,-17.09,4.46,0,5
15820.453,-0.932,0.031,0.19,-5.13,-18.62,4.85,0,5
15820.468,-0.93,0.037,0.173,-5.37,-19.5,4.91,0,5
15820.484,-0.934,0.047,0.159,-6.1,-19.62,4.21,0,5
15820.484,-0.927,0.054,0.148,-6.81,-19.56,3.08,0,5
15820.5,-0.933,0.061,0.135,-6.84,-18.25,1.04,0,5
15820.5,-0.942,0.039,0.13,-6.96,-16.69,1.59,0,5
15820.515,-0.942,0.052,0.127,-4.03,-15.44,2.84,0,5
15820.531,-0.933,0.08,0.112,2.14,-13.15,1.98,0,5
15820.531,-0.933,0.078,0.1,5.07,-9.7,2.99,0,5
15820.546,-0.928,0.095,0.104,4.43,-6.29,5.49,0,5
15820.562,-0.924,0.096,0.108,3.6,-2.47,7.69,0,5
15820.562,-0.924,0.088,0.115,1.46,0.76,9.86,0,5
15820.578,-0.92,0.078,0.125,-1.28,2.69,11.32,0,5
15820.593,-0.921,0.066,0.141,-3.63,3.94,12.33,0,5
15820.593,-0.921,0.051,0.157,-5.19,5.4,13.34,0,5
15820.609,-0.928,0.039,0.17,-5.4,6.65,13.89,0,5
15820.625,-0.927,0.041,0.183,-5.58,6.99,13.52,0,5
15820.625,-0.92,0.036,0.191,-6.1,7.81,12.51,0,5
15820.64,-0.923,0.024,0.198,-6.53,9.09,11.41,0,5
15820.64,-0.919,0.026,0.203,-6.44,10.07,10.38,0,5
15820.656,-0.923,0.034,0.203,-6.23,11.2,9.43,0,5
15820.671,-0.933,0.034,0.203,-6.65,11.93,8.67,0,5
15820.671,-0.941,0.033,0.201,-7.08,12.82,8.03,0,5
15820.687,-0.942,0.037,0.206,-7.02,14.25,7.54,0,5
15820.703,-0.934,0.039,0.214,-6.2,15.56,7.69,0,5
15820.703,-0.926,0.036,0.218,-5.16,17.37,8.12,0,5
15820.718,-0.917,0.036,0.225,-5.22,19.68,8.39,0,5
15820.734,-0.908,0.03,0.244,-6.41,21.97,8.21,0,5
15820.734,-0.907,0.022,0.269,-7.54,24.66,7.35,0,5
15820.75,-0.913,0.012,0.29,-8.15,27.56,6.71,0,5
15820.765,-0.916,0.003,0.311,-9.13,29.63,6.74,0,5
15820.765,-0.911,-0.002,0.336,-10.5,30.88,7.08,0,5
15820.781,-0.905,-0.012,0.366,-11.26,31.65,6.93,0,5
15820.781,-0.908,-0.026,0.395,-10.62,31.53,5.74,0,5
15820.796,-0.933,-0.019,0.45,-9.52,30.64,4.24,0,5
15820.812,-1.049,-0.017,0.66,-9.03,22.46,2.62,0,5
15820.812,-1.095,-0.003,0.746,-11.99,-5.22,1.83,0,5
15820.828,-0.933,0.053,0.688,-21.67,-34.36,3.3,0,5
15820.843,-0.898,-0.057,0.538,-13.28,-37.97,1.19,0,5
15820.843,-0.923,-0.112,0.456,0.52,-29.94,-0.4,0,5
15820.859,-0.908,-0.07,0.426,15.84,-21.24,-0.79,0,5
15820.875,-0.94,-0.033,0.374,33.66,-10.65,-1.07,0,5
15820.875,-0.968,0.019,0.339,41.08,-2.81,-0.58,0,5
15820.89,-0.978,0.072,0.32,38.18,1.31,-0.27,0,5
15820.89,-0.984,0.09,0.298,30.67,3.14,-0.24,0,5
15820.906,-0.976,0.094,0.277,22.49,4.18,0.09,0,5
15820.921,-0.967,0.103,0.261,15.99,4.97,0.03,0,5
15820.921,-0.961,0.105,0.246,12.63,5.28,-0.55,0,5
15820.937,-0.956,0.1,0.237,10.8,4.76,-1.71,0,5
15820.953,-0.963,0.102,0.227,8.91,3.3,-2.78,0,5
15820.953,-0.961,0.112,0.22,6.41,1.86,-2.66,0,5
15820.968,-0.953,0.126,0.209,4.24,0.46,-1.5,0,5
15820.984,-0.941,0.138,0.2,2.17,-0.82,0.0,0,5
15820.984,-0.937,0.14,0.193,0.31,-1.56,1.68,0,5
15821.0,-0.93,0.157,0.185,-1.59,-1.86,3.48,0,5
15821.015,-0.93,0.138,0.186,-3.27,-2.14,2.96,0,5
15821.015,-0.937,0.099,0.207,-5.8,-2.69,4.97,0,5
15821.031,-0.94,0.113,0.23,-5.13,-4.18,5.68,0,5
15821.046,-0.947,0.106,0.244,-2.93,-7.72,2.47,0,5
15821.046,-0.956,0.092,0.267,-5.04,-11.17,0.09,0,5
15821.062,-0.954,0.102,0.265,-8.12,-14.07,-0.34,0,5
15821.078,-0.955,0.116,0.291,-9.49,-15.75,-2.11,0,5
15821.078,-0.98,0.099,0.305,-8.79,-17.37,-2.72,0,5
15821.093,-0.966,0.094,0.307,-8.91,-20.6,-1.8,0,5
15821.093,-0.945,0.09,0.3,-8.06,-22.22,-2.17,0,5
15821.109,-0.944,0.074,0.296,-6.1,-21.06,-2.99,0,5
15821.125,-0.942,0.061,0.302,-4.33,-19.38,-3.05,0,5
15821.125,-0.93,0.054,0.308,-2.32,-16.63,-2.9,0,5
15821.14,-0.931,0.052,0.32,-0.37,-13.28,-3.33,0,5
15821.156,-0.933,0.043,0.33,1.62,-10.04,-3.6,0,5
15821.156,-0.933,0.035,0.339,3.17,-8.15,-3.6,0,5
15821.171,-0.933,0.027,0.344,4.33,-7.02,-3.14,0,5
15821.171,-0.935,0.029,0.34,4.91,-6.1,-2.87,0,5
15821.187,-0.935,0.037,0.33,4.03,-5.31,-2.78,0,5
15821.203,-0.937,0.04,0.321,-1.28,-3.85,-1.74,0,5
15821.203,-0.94,0.042,0.312,-3.57,-3.11,-1.28,0,5
15821.218,-0.938,0.047,0.306,-4.33,-1.95,-1.25,0,5
15821.234,-0.944,0.055,0.3,-4.03,-0.7,-0.98,0,5
15821.234,-0.947,0.058,0.304,-3.02,-0.21,-0.79,0,5
15821.25,-0.945,0.064,0.302,-1.43,0.18,-0.55,0,5
15821.25,-0.94,0.075,0.297,-0.55,0.61,-0.46,0,5
15821.265,-0.939,0.077,0.292,-0.34,0.82,-0.55,0,5
15821.281,-0.935,0.074,0.292,0.09,1.01,-0.46,0,5
15821.281,-0.927,0.073,0.287,1.34,1.25,-0.34,0,5
15821.296,-0.919,0.09,0.283,1.83,1.68,-0.24,0,5
15821.312,-0.917,0.106,0.286,1.04,1.98,-0.46,0,5
15821.312,-0.92,0.113,0.282,0.03,3.17,-0.52,0,5
15821.328,-0.924,0.102,0.281,0.55,5.58,-0.43,0,5
15821.343,-0.951,0.132,0.3,-2.5,5.16,0.03,0,5
15821.343,-0.925,0.122,0.299,-6.32,3.54,0.55,0,5
15821.359,-0.894,0.047,0.19,-7.93,4.61,-1.1,0,5
15821.375,-0.847,0.044,0.198,-14.68,11.84,-5.49,0,5
15821.375,-0.929,0.006,0.295,-14.22,17.15,-9.8,0,5
15821.39,-0.961,0.021,0.263,-10.41,16.57,-11.75,0,5
15821.39,-0.959,0.075,0.285,-11.72,15.75,-9.58,0,5
15821.406,-0.968,0.065,0.299,-11.99,13.82,-8.12,0,5
15821.421,-0.976,0.066,0.314,-13.46,10.74,-7.02,0,5
15821.421,-0.977,0.065,0.329,-13.55,7.32,-5.31,0,5
15821.437,-0.973,0.05,0.33,-11.17,3.91,-3.6,0,5
15821.453,-0.957,0.052,0.329,-8.67,0.85,-2.75,0,5
15821.453,-0.948,0.054,0.317,-6.1,-1.19,-3.81,0,5
15821.468,-0.947,0.039,0.305,-4.24,-1.74,-4.33,0,5
15821.484,-0.945,0.042,0.293,-2.56,-1.83,-4.3,0,5
15821.484,-0.947,0.038,0.283,-1.31,-1.68,-4.58,0,5
15821.5,-0.952,0.034,0.274,-0.76,-0.61,-4.64,0,5
15821.515,-0.97,0.042,0.268,-0.95,0.76,-4.7,0,5
15821.515,-0.971,0.04,0.266,-2.35,2.08,-4.61,0,5
15821.531,-0.952,0.03,0.254,-4.67,3.69,-4.43,0,5
15821.531,-0.921,0.012,0.263,-9.58,5.83,-6.93,0,5
15821.546,-0.937,0.002,0.272,-13.98,6.99,-12.3,0,5
15821.562,-0.934,0.013,0.258,-17.15,8.88,-13.49,0,5
15821.562,-0.926,0.013,0.256,-19.01,11.51,-13.76,0,5
15821.578,-0.925,0.008,0.256,-19.65,12.6,-15.2,0,5
15821.593,-0.923,0.003,0.249,-19.68,13.37,-16.08,0,5
15821.593,-0.924,-0.001,0.245,-19.29,14.01,-16.85,0,5
15821.609,-0.928,-0.007,0.246,-18.07,14.5,-17.46,0,5
15821.625,-0.929,-0.013,0.253,-15.87,14.71,-17.18,0,5
15821.625,-0.934,-0.019,0.249,-11.75,15.23,-16.66,0,5
15821.64,-0.94,-0.013,0.243,-7.32,15.38,-16.51,0,5
15821.64,-0.943,-0.002,0.236,-4.12,15.17,-16.3,0,5
15821.656,-0.947,0.013,0.23,-3.3,14.25,-16.11,0,5
15821.671,-0.949,0.024,0.228,-4.61,13.25,-15.53,0,5
15821.687,-0.949,0.024,0.23,-6.59,12.3,-14.47,0,5
15821.687,-0.951,0.021,0.233,-8.12,11.47,-12.97,0,5
15821.703,-0.956,0.012,0.235,-8.61,10.47,-11.41,0,5
15821.703,-0.963,0.007,0.25,-7.48,8.97,-9.49,0,5
15821.718,-0.966,0.002,0.268,-5.4,6.78,-7.78,0,5
15821.734,-0.965,0.002,0.271,-2.62,5.37,-6.68,0,5
15821.734,-0.968,0.005,0.275,0.18,5.34,-5.65,0,5
15821.75,-0.968,0.007,0.288,2.78,5.01,-4.64,0,5
15821.765,-0.966,0.01,0.298,5.01,4.06,-3.72,0,5
15821.765,-0.964,0.016,0.302,6.71,3.3,-2.72,0,5
15821.781,-0.961,0.018,0.301,7.39,2.38,-1.65,0,5
15821.781,-0.957,0.014,0.293,6.71,1.46,-1.28,0,5
15821.796,-0.952,0.016,0.285,4.73,0.89,-1.34,0,5
15821.812,-0.952,0.015,0.277,1.92,0.49,-1.46,0,5
15821.812,-0.95,0.011,0.272,-1.43,0.27,-1.37,0,5
15821.828,-0.944,0.004,0.269,-4.24,0.46,-1.01,0,5
15821.843,-0.94,0.003,0.271,-6.23,0.37,-0.31,0,5
15821.843,-0.939,0.004,0.273,-7.54,0.15,0.7,0,5
15821.859,-0.946,-0.001,0.279,-8.76,-0.06,1.74,0,5
15821.875,-0.956,-0.012,0.284,-9.58,-0.73,2.56,0,5
15821.875,-0.96,-0.021,0.284,-9.58,-2.35,2.9,0,5
15821.89,-0.958,-0.025,0.276,-8.42,-3.66,2.59,0,5
15821.89,-0.964,-0.016,0.273,-6.59,-4.33,2.04,0,5
15821.906,-0.974,0.011,0.292,-3.72,-5.55,3.27,0,5
15821.921,-0.953,0.026,0.271,-0.7,-7.84,5.34,0,5
15821.921,-0.944,0.035,0.269,-0.58,-8.67,6.1,0,5
15821.937,-0.948,0.03,0.282,-1.43,-9.58,6.04,0,5
15821.953,-0.951,0.034,0.284,-2.23,-10.1,6.44,0,5
15821.953,-0.951,0.041,0.286,-3.75,-10.35,7.48,0,5
15821.968,-0.951,0.034,0.293,-5.71,-9.34,8.39,0,5
15821.984,-0.962,0.031,0.298,-7.69,-8.33,9.22,0,5
15821.984,-0.952,0.038,0.304,-9.61,-8.27,9.77,0,5
15822.0,-0.941,0.035,0.317,-11.02,-8.09,10.07,0,5
15822.0,-0.942,0.033,0.338,-12.3,-6.96,10.07,0,5
15822.015,-0.941,0.032,0.354,-13.4,-6.41,10.13,0,5
15822.031,-0.945,0.022,0.377,-14.31,-6.93,11.78,0,5
15822.046,-0.96,0.018,0.397,-13.15,-7.9,12.88,0,5
15822.046,-0.964,0.013,0.405,-10.86,-10.22,12.88,0,5
15822.062,-0.962,0.003,0.424,-9.06,-13.12,13.55,0,5
15822.062,-0.96,0.005,0.435,-7.42,-15.81,13.95,0,5
15822.078,-0.954,-0.002,0.439,-6.62,-17.67,13.52,0,5
15822.093,-0.938,-0.0,0.453,-6.99,-18.77,12.12,0,5
15822.109,-0.924,-0.0,0.465,-6.38,-18.65,9.52,0,5
15822.109,-0.933,0.013,0.476,-6.07,-17.21,5.89,0,5
15822.125,-0.94,0.048,0.483,-8.55,-16.36,1.86,0,5
15822.125,-0.951,0.099,0.491,-16.82,-15.72,-1.25,0,5
15822.14,-0.974,0.112,0.521,-31.1,-16.24,-4.18,0,5
15822.156,-0.985,0.094,0.57,-47.18,-19.53,-6.96,0,5
15822.156,-0.995,0.074,0.618,-60.82,-24.99,-8.51,0,5
15822.171,-1.004,0.048,0.659,-69.12,-31.19,-8.88,0,5
15822.171,-0.999,0.018,0.699,-70.74,-40.41,-8.39,0,5
15822.187,-1.006,-0.003,0.745,-64.91,-43.61,-7.63,0,5
15822.203,-1.016,-0.003,0.781,-58.96,-48.55,-5.19,0,5
15822.203,-1.033,0.002,0.8,-52.67,-55.12,-2.81,0,5
15822.218,-1.053,-0.018,0.826,-45.72,-62.32,-1.37,0,5
15822.234,-1.053,-0.023,0.83,-37.45,-68.3,-0.82,0,5
15822.234,-1.075,-0.018,0.824,-27.95,-72.51,-0.4,0,5
15822.25,-1.08,0.0,0.813,-20.57,-77.33,0.06,0,5
15822.25,-1.082,0.012,0.791,-15.32,-82.16,0.34,0,5
15822.265,-1.096,0.026,0.776,-11.72,-85.79,0.64,0,5
15822.281,-1.091,0.042,0.778,-9.09,-88.32,0.98,0,5
15822.281,-1.09,0.054,0.799,-5.83,-89.57,1.5,0,5
15822.296,-1.109,0.068,0.814,-0.98,-90.76,3.2,0,5
15822.312,-1.119,0.084,0.816,5.31,-94.06,5.8,0,5
15822.312,-1.129,0.114,0.809,11.44,-98.67,8.91,0,5
15822.328,-1.151,0.144,0.79,14.59,-103.82,12.97,0,5
15822.343,-1.157,0.164,0.782,13.03,-108.77,17.98,0,5
15822.343,-1.148,0.166,0.783,8.15,-113.01,23.38,0,5
15822.359,-1.13,0.151,0.789,3.23,-115.18,28.32,0,5
15822.375,-1.118,0.12,0.812,0.03,-114.6,32.53,0,5
15822.375,-1.104,0.089,0.834,-0.15,-113.56,35.86,0,5
15822.39,-1.1,0.068,0.847,3.39,-113.9,37.54,0,5
15822.39,-1.094,0.063,0.857,9.25,-115.09,37.87,0,5
15822.406,-1.085,0.071,0.871,13.64,-116.09,37.48,0,5
15822.421,-1.081,0.074,0.887,14.56,-116.58,36.84,0,5
15822.437,-1.075,0.083,0.898,12.18,-117.47,36.47,0,5
15822.437,-1.068,0.085,0.906,7.48,-119.6,35.77,0,5
15822.453,-1.07,0.081,0.92,1.8,-123.57,34.82,0,5
15822.453,-1.062,0.077,0.918,-3.48,-130.28,33.48,0,5
15822.468,-1.043,0.08,0.91,-8.18,-137.73,32.44,0,5
15822.484,-1.045,0.078,0.91,-12.6,-142.16,32.11,0,5
15822.484,-1.048,0.063,0.914,-17.03,-143.5,31.74,0,5
15822.5,-1.03,0.051,0.919,-20.26,-143.77,30.4,0,5
15822.515,-1.018,0.051,0.918,-19.81,-144.08,27.74,0,5
15822.515,-1.003,0.054,0.907,-16.39,-146.03,24.87,0,5
15822.531,-0.994,0.068,0.89,-11.54,-149.6,23.5,0,5
15822.531,-1.01,0.093,0.863,-6.78,-151.25,24.81,0,5
15822.546,-1.007,0.122,0.831,-4.97,-153.23,27.19,0,5
15822.562,-0.98,0.134,0.791,-5.89,-155.77,29.51,0,5
15822.562,-0.937,0.134,0.756,-8.61,-157.75,31.98,0,5
15822.578,-0.88,0.125,0.729,-12.57,-158.85,34.39,0,5
15822.593,-0.847,0.123,0.72,-17.0,-156.44,36.07,0,5
15822.593,-0.808,0.108,0.71,-21.52,-154.39,36.23,0,5
15822.609,-0.767,0.093,0.709,-24.66,-150.49,36.56,0,5
15822.625,-0.738,0.077,0.716,-26.43,-145.7,36.93,0,5
15822.625,-0.695,0.053,0.727,-28.11,-141.06,37.63,0,5
15822.64,-0.671,0.037,0.747,-29.54,-135.93,37.87,0,5
15822.64,-0.65,0.018,0.767,-29.91,-131.96,36.71,0,5
15822.656,-0.607,0.004,0.767,-29.18,-130.44,34.94,0,5
15822.671,-0.564,-0.001,0.773,-28.11,-128.39,33.48,0,5
15822.687,-0.519,-0.007,0.788,-27.01,-124.24,31.43,0,5
15822.687,-0.475,-0.004,0.809,-27.41,-118.5,28.44,0,5
15822.703,-0.437,-0.006,0.829,-28.84,-110.23,25.18,0,5
15822.703,-0.395,-0.012,0.858,-31.5,-99.46,22.43,0,5
15822.718,-0.387,-0.018,0.915,-35.1,-84.84,20.08,0,5
15822.734,-0.395,-0.028,0.958,-37.14,-71.81,16.85,0,5
15822.734,-0.424,-0.041,0.991,-36.32,-61.95,14.62,0,5
15822.75,-0.458,-0.063,1.02,-31.4,-57.5,13.31,0,5
15822.765,-0.462,-0.066,1.042,-22.34,-61.56,11.66,0,5
15822.765,-0.47,-0.059,1.06,-10.5,-70.53,10.19,0,5
15822.781,-0.474,-0.039,1.04,0.09,-84.05,8.48,0,5
15822.781,-0.466,-0.006,0.991,6.26,-101.38,6.56,0,5
15822.796,-0.425,0.04,0.906,6.26,-120.12,4.97,0,5
15822.812,-0.385,0.08,0.819,-1.04,-135.01,4.64,0,5
15822.812,-0.339,0.086,0.747,-12.88,-144.41,4.39,0,5
15822.828,-0.286,0.085,0.695,-26.52,-149.08,3.42,0,5
15822.843,-0.241,0.064,0.647,-37.35,-147.98,2.93,0,5
15822.843,-0.195,0.031,0.618,-44.28,-141.27,3.75,0,5
15822.859,-0.159,-0.006,0.611,-45.59,-131.02,5.43,0,5
15822.875,-0.137,-0.052,0.616,-40.65,-120.21,7.02,0,5
15822.875,-0.118,-0.093,0.611,-30.09,-113.01,7.42,0,5
15822.89,-0.09,-0.108,0.585,-16.3,-110.11,6.38,0,5
15822.89,-0.064,-0.116,0.544,-1.43,-109.04,4.76,0,5
15822.906,-0.031,-0.113,0.502,12.3,-108.46,4.18,0,5
15822.921,-0.001,-0.101,0.464,25.03,-106.36,4.03,0,5
15822.937,0.057,-0.092,0.409,35.37,-104.65,3.11,0,5
15822.937,0.111,-0.051,0.368,39.31,-98.3,3.11,0,5
15822.953,0.12,-0.02,0.347,35.65,-87.07,4.43,0,5
15822.953,0.143,-0.02,0.345,25.57,-77.27,5.43,0,5
15822.968,0.152,-0.038,0.359,16.6,-68.79,6.13,0,5
15822.984,0.158,-0.073,0.368,15.53,-62.9,6.35,0,5
15822.984,0.19,-0.098,0.366,21.24,-60.12,7.02,0,5
15823.0,0.231,-0.111,0.368,31.1,-56.37,9.37,0,5
15823.015,0.248,-0.125,0.375,41.51,-49.17,12.63,0,5
15823.015,0.279,-0.134,0.373,49.68,-40.56,14.25,0,5
15823.031,0.315,-0.108,0.357,53.56,-31.56,12.73,0,5
15823.046,0.328,-0.054,0.349,48.71,-22.22,9.16,0,5
15823.046,0.313,0.005,0.367,33.33,-11.75,4.52,0,5
15823.062,0.306,0.037,0.409,11.41,-1.83,0.15,0,5
15823.062,0.294,0.046,0.47,-10.28,6.41,-1.71,0,5
15823.078,0.292,0.033,0.531,-26.7,11.9,-0.21,0,5
15823.093,0.288,0.008,0.601,-37.23,16.82,4.09,0,5
15823.109,0.276,-0.016,0.681,-41.78,20.54,9.09,0,5
15823.109,0.268,-0.042,0.738,-41.17,21.18,13.67,0,5
15823.125,0.277,-0.064,0.773,-36.74,19.07,16.3,0,5
15823.125,0.282,-0.084,0.799,-31.16,17.33,16.69,0,5
15823.14,0.287,-0.093,0.82,-26.37,15.72,14.28,0,5
15823.156,0.306,-0.096,0.832,-23.41,13.92,9.77,0,5
15823.156,0.306,-0.092,0.845,-20.87,15.75,0.46,0,5
15823.171,0.292,-0.087,0.864,-19.81,17.18,-2.59,0,5
15823.171,0.281,-0.08,0.881,-17.33,17.91,-4.46,0,5
15823.187,0.283,-0.073,0.897,-14.07,18.37,-5.22,0,5
15823.203,0.28,-0.049,0.926,-11.38,18.59,-5.52,0,5
15823.218,0.265,-0.036,0.942,-9.58,18.8,-5.74,0,5
15823.218,0.258,-0.034,0.958,-9.0,17.88,-5.49,0,5
15823.234,0.253,-0.036,0.969,-8.51,15.78,-5.28,0,5
15823.234,0.249,-0.037,0.97,-6.99,12.73,-5.07,0,5
15823.25,0.259,-0.036,0.964,-4.73,9.28,-5.22,0,5
15823.265,0.263,-0.03,0.959,-3.05,7.29,-5.07,0,5
15823.265,0.254,-0.026,0.958,-2.35,7.11,-4.79,0,5
15823.281,0.251,-0.024,0.952,-2.78,7.29,-4.91,0,5
15823.296,0.247,-0.028,0.948,-3.08,7.35,-5.16,0,5
15823.296,0.252,-0.022,0.946,-2.75,7.66,-5.31,0,5
15823.312,0.243,-0.013,0.94,-2.75,7.93,-5.89,0,5
15823.312,0.237,-0.011,0.933,-3.78,8.24,-5.95,0,5
15823.328,0.237,-0.003,0.94,-4.33,8.36,-4.55,0,5
15823.343,0.235,0.01,0.946,-4.33,9.19,-2.93,0,5
15823.343,0.232,-0.001,0.961,-5.49,10.74,-1.98,0,5
15823.359,0.224,-0.023,0.984,-7.26,12.24,-1.04,0,5
15823.375,0.221,-0.026,0.997,-7.57,11.99,-0.37,0,5
15823.375,0.219,-0.032,1.008,-6.68,11.05,-0.06,0,5
15823.39,0.226,-0.035,1.018,-5.55,10.32,-0.24,0,5
15823.39,0.209,-0.047,1.02,-4.43,10.25,-2.17,0,5
15823.406,0.21,-0.059,1.023,-4.61,8.42,-3.23,0,5
15823.421,0.206,-0.043,1.022,-4.06,6.93,-3.94,0,5
15823.421,0.203,-0.042,1.015,-3.81,5.46,-4.0,0,5
15823.437,0.198,-0.043,1.007,-4.15,4.06,-4.33,0,5
15823.453,0.203,-0.048,1.004,-4.09,3.3,-3.27,0,5
15823.453,0.203,-0.029,0.997,-2.56,3.42,-2.72,0,5
15823.468,0.197,-0.03,0.993,-1.5,4.36,-2.44,0,5
15823.484,0.197,-0.035,0.992,-2.2,5.07,-1.53,0,5
15823.484,0.191,-0.036,0.994,-2.9,5.71,-0.82,0,5
15823.5,0.193,-0.032,0.995,-3.42,5.62,-0.98,0,5
15823.5,0.192,-0.03,0.992,-4.06,5.22,-1.01,0,5
15823.515,0.188,-0.036,0.998,-4.79,5.34,-0.7,0,5
15823.531,0.19,-0.035,1.003,-5.4,5.34,-0.24,0,5
15823.546,0.184,-0.036,1.015,-6.07,6.04,0.27,0,5
15823.546,0.178,-0.041,1.021,-6.74,6.16,0.52,0,5
15823.562,0.18,-0.044,1.025,-7.02,4.7,0.49,0,5
15823.562,0.173,-0.056,1.025,-5.55,3.08,0.73,0,5
15823.578,0.176,-0.059,1.02,-2.99,1.16,1.53,0,5
15823.593,0.183,-0.058,1.012,-0.43,-0.37,2.35,0,5
15823.593,0.186,-0.058,1.005,0.76,-0.55,2.9,0,5
15823.609,0.187,-0.058,1.002,1.07,0.15,3.11,0,5
15823.609,0.189,-0.059,0.997,0.61,0.49,2.78,0,5
15823.625,0.19,-0.061,0.997,0.03,0.34,2.23,0,5
15823.64,0.193,-0.069,0.993,0.58,-0.03,1.86,0,5
15823.64,0.193,-0.067,0.986,1.59,0.15,1.34,0,5
15823.656,0.193,-0.061,0.979,2.17,1.01,0.64,0,5
15823.671,0.192,-0.057,0.977,1.89,2.04,0.21,0,5
15823.671,0.19,-0.06,0.977,1.34,2.96,-0.06,0,5
15823.687,0.188,-0.052,0.982,0.7,3.33,-0.24,0,5
15823.703,0.184,-0.046,0.984,-0.37,2.87,-0.24,0,5
15823.703,0.184,-0.053,0.988,-1.13,2.2,-0.15,0,5
15823.718,0.186,-0.052,0.988,-0.98,1.59,0.06,0,5
15823.734,0.184,-0.045,0.987,-0.58,1.43,0.06,0,5
15823.734,0.182,-0.042,0.983,-0.76,1.31,0.43,0,5
15823.75,0.181,-0.044,0.985,-0.82,1.16,0.95,0,5
15823.765,0.18,-0.044,0.99,-0.27,1.1,1.5,0,5
15823.765,0.182,-0.039,0.985,0.49,0.79,1.65,0,5
15823.781,0.182,-0.042,0.977,1.25,0.55,1.65,0,5
15823.796,0.185,-0.046,0.966,1.59,0.18,1.89,0,5
15823.796,0.189,-0.042,0.957,1.89,0.55,1.95,0,5
15823.812,0.187,-0.037,0.956,0.98,1.62,1.77,0,5
15823.812,0.185,-0.038,0.956,-1.34,2.59,1.34,0,5
15823.828,0.181,-0.043,0.964,-3.27,3.66,1.16,0,5
15823.843,0.175,-0.047,0.968,-3.88,3.94,1.34,0,5
15823.843,0.18,-0.054,0.97,-3.14,3.36,1.86,0,5
15823.859,0.184,-0.059,0.971,-1.86,2.72,2.29,0,5
15823.875,0.182,-0.058,0.969,-1.71,2.99,2.29,0,5
15823.875,0.181,-0.062,0.97,-2.69,3.85,1.89,0,5
15823.89,0.177,-0.072,0.971,-2.96,3.63,1.46,0,5
15823.89,0.171,-0.069,0.969,-2.29,2.47,1.28,0,5
15823.906,0.17,-0.065,0.959,-1.53,1.4,1.19,0,5
15823.921,0.175,-0.066,0.947,-1.07,1.07,0.92,0,5
15823.921,0.173,-0.073,0.934,-0.24,1.5,0.85,0,5
15823.937,0.174,-0.075,0.916,0.46,1.74,0.85,0,5
15823.953,0.175,-0.067,0.89,1.56,1.71,0.37,0,5
15823.953,0.168,-0.061,0.865,2.08,1.77,-0.03,0,5
15823.968,0.16,-0.06,0.84,2.2,1.74,0.0,0,5
15823.984,0.15,-0.062,0.813,3.54,1.16,0.03,0,5
15823.984,0.148,-0.073,0.775,7.45,-0.89,-0.03,0,5
15824.0,0.153,-0.067,0.727,12.85,-4.27,-0.31,0,5
15824.015,0.176,-0.059,0.676,18.65,-7.87,-0.09,0,5
15824.015,0.234,-0.042,0.634,22.68,-10.01,0.89,0,5
15824.031,0.254,-0.02,0.626,22.46,-3.94,2.69,0,5
15824.031,0.254,-0.007,0.654,14.74,10.44,4.58,0,5
15824.046,0.24,-0.01,0.744,-0.09,27.25,5.22,0,5
15824.062,0.213,-0.039,0.855,-15.29,41.66,3.88,0,5
15824.078,0.188,-0.061,0.968,-26.49,51.33,1.83,0,5
15824.078,0.16,-0.066,1.096,-32.5,57.53,0.73,0,5
15824.093,0.11,-0.058,1.243,-35.34,59.24,1.07,0,5
15824.093,0.063,-0.053,1.432,-38.45,54.6,3.3,0,5
15824.109,0.021,-0.077,1.606,-42.79,42.88,6.13,0,5
15824.125,-0.008,-0.091,1.756,-47.0,29.08,8.36,0,5
15824.125,-0.028,-0.12,1.882,-48.34,17.73,9.28,0,5
15824.14,-0.028,-0.151,1.997,-48.59,8.82,9.19,0,5
15824.14,-0.04,-0.176,2.105,-44.16,-2.11,9.7,0,5
15824.156,-0.078,-0.21,2.211,-40.25,-5.16,10.22,0,5
15824.171,-0.089,-0.256,2.311,-38.45,-9.19,9.7,0,5
15824.171,-0.182,-0.304,2.516,-38.21,-15.66,8.18,0,5
15824.187,-0.218,-0.353,2.597,-38.45,-29.3,5.22,0,5
15824.203,-0.254,-0.394,2.661,-36.93,-46.14,2.41,0,5
15824.203,-0.301,-0.438,2.705,-31.98,-64.42,-0.85,0,5
15824.218,-0.336,-0.463,2.698,-25.03,-87.56,-6.04,0,5
15824.234,-0.369,-0.466,2.633,-15.81,-114.02,-12.24,0,5
15824.234,-0.422,-0.448,2.521,-4.82,-140.69,-17.82,0,5
15824.25,-0.448,-0.421,2.388,6.87,-165.35,-21.79,0,5
15824.265,-0.441,-0.396,2.235,19.84,-186.38,-23.87,0,5
15824.265,-0.433,-0.36,2.085,33.45,-202.19,-24.93,0,5
15824.281,-0.433,-0.328,1.926,46.82,-214.3,-25.85,0,5
15824.296,-0.414,-0.271,1.76,58.32,-226.78,-27.16,0,5
15824.296,-0.413,-0.21,1.563,67.63,-238.69,-28.84,0,5
15824.312,-0.414,-0.141,1.376,71.63,-248.42,-30.43,0,5
15824.312,-0.377,-0.067,1.202,68.42,-256.6,-31.65,0,5
15824.328,-0.336,0.016,1.036,57.71,-259.87,-32.11,0,5
15824.343,-0.306,0.083,0.898,40.47,-257.64,-32.23,0,5
15824.343,-0.253,0.127,0.799,19.04,-252.97,-32.81,0,5
15824.359,-0.224,0.159,0.724,-1.86,-247.2,-34.42,0,5
15824.375,-0.184,0.169,0.665,-20.2,-242.1,-36.41,0,5
15824.375,-0.145,0.182,0.61,-35.43,-236.92,-38.33,0,5
15824.39,-0.124,0.2,0.547,-47.61,-231.82,-41.2,0,5
15824.39,-0.096,0.205,0.497,-56.58,-227.94,-44.92,0,5
15824.406,-0.087,0.213,0.448,-62.87,-224.13,-48.74,0,5
15824.421,-0.095,0.223,0.4,-68.12,-221.69,-51.33,0,5
15824.421,-0.046,0.246,0.342,-69.73,-221.96,-54.29,0,5
15824.437,-0.023,0.257,0.265,-65.68,-221.93,-57.5,0,5
15824.453,0.013,0.247,0.181,-61.65,-221.93,-58.41,0,5
15824.453,0.062,0.252,0.105,-58.26,-221.08,-56.89,0,5
15824.468,0.094,0.252,0.024,-54.78,-216.07,-55.3,0,5
15824.484,0.138,0.254,-0.06,-55.36,-209.63,-53.56,0,5
15824.484,0.168,0.258,-0.131,-60.52,-202.09,-51.55,0,5
15824.5,0.187,0.257,-0.188,-67.45,-191.6,-50.9,0,5
15824.5,0.214,0.242,-0.239,-74.68,-182.16,-51.48,0,5
15824.515,0.27,0.231,-0.319,-82.43,-174.78,-51.33,0,5
15824.531,0.334,0.243,-0.405,-93.75,-170.48,-51.79,0,5
15824.546,0.408,0.227,-0.447,-104.83,-167.36,-52.67,0,5
15824.546,0.469,0.222,-0.468,-112.58,-160.71,-52.86,0,5
15824.562,0.503,0.207,-0.439,-115.39,-148.5,-52.95,0,5
15824.578,0.543,0.14,-0.394,-108.34,-136.75,-53.59,0,5
15824.578,0.554,0.088,-0.371,-88.63,-128.18,-53.01,0,5
15824.593,0.588,0.065,-0.382,-57.8,-123.75,-48.74,0,5
15824.609,0.655,0.115,-0.409,-23.1,-121.19,-44.59,0,5
15824.609,0.684,0.135,-0.454,7.6,-117.4,-38.0,0,5
15824.625,0.711,0.165,-0.511,28.72,-113.8,-29.79,0,5
15824.625,0.744,0.225,-0.566,38.73,-108.49,-22.37,0,5
15824.64,0.768,0.26,-0.614,36.16,-100.28,-15.75,0,5
15824.656,0.823,0.288,-0.638,18.28,-91.01,-9.89,0,5
15824.656,0.867,0.303,-0.634,-9.92,-81.64,-6.2,0,5
15824.671,0.879,0.281,-0.602,-39.98,-73.89,-4.76,0,5
15824.671,0.887,0.239,-0.579,-64.94,-70.13,-4.94,0,5
15824.687,0.891,0.186,-0.563,-81.61,-70.44,-4.18,0,5
15824.703,0.903,0.144,-0.548,-90.3,-73.09,-1.4,0,5
15824.718,0.91,0.118,-0.522,-93.51,-75.38,3.08,0,5
15824.718,0.914,0.079,-0.516,-91.37,-76.82,6.71,0,5
15824.734,0.894,0.027,-0.515,-86.49,-76.82,8.33,0,5
15824.734,0.962,0.009,-0.473,-79.74,-77.03,9.92,0,5
15824.75,0.988,0.008,-0.476,-61.25,-71.05,6.04,0,5
15824.765,0.888,-0.057,-0.502,-41.6,-64.7,3.08,0,5
15824.765,0.959,-0.066,-0.493,-26.67,-64.49,3.33,0,5
15824.781,0.92,-0.011,-0.514,-6.59,-60.0,2.9,0,5
15824.796,0.945,0.0,-0.542,10.35,-59.21,0.4,0,5
15824.796,0.997,0.02,-0.567,22.34,-55.94,-0.52,0,5
15824.812,0.987,0.076,-0.597,33.33,-45.05,-2.08,0,5
15824.812,0.989,0.108,-0.599,34.76,-35.89,-3.81,0,5
15824.828,0.966,0.122,-0.579,28.11,-30.09,-3.91,0,5
15824.843,0.937,0.13,-0.543,20.72,-25.91,-1.98,0,5
15824.843,0.941,0.123,-0.485,15.63,-27.13,0.85,0,5
15824.859,0.933,0.085,-0.427,17.82,-31.83,4.0,0,5
15824.875,0.932,0.07,-0.388,26.34,-39.09,8.06,0,5
15824.875,0.908,0.084,-0.389,36.9,-49.75,11.17,0,5
15824.89,0.886,0.081,-0.41,42.33,-61.62,15.2,0,5
15824.89,0.89,0.072,-0.432,38.73,-72.76,20.23,0,5
15824.906,0.929,0.073,-0.466,29.73,-80.42,23.62,0,5
15824.921,0.945,0.05,-0.558,19.5,-81.58,25.73,0,5
15824.937,0.989,0.034,-0.589,6.9,-73.61,28.38,0,5
15824.937,1.012,0.006,-0.572,2.08,-57.77,30.49,0,5
15824.953,1.002,-0.041,-0.583,3.2,-40.77,32.56,0,5
15824.953,1.01,-0.072,-0.587,4.64,-24.6,34.15,0,5
15824.968,1.011,-0.105,-0.564,5.71,-9.16,33.78,0,5
15824.984,1.011,-0.155,-0.519,6.5,4.43,30.15,0,5
15824.984,1.015,-0.19,-0.464,7.57,15.72,23.87,0,5
15825.0,1.008,-0.2,-0.417,10.25,24.51,15.87,0,5
15825.015,0.996,-0.19,-0.378,12.88,29.66,6.87,0,5
15825.015,0.983,-0.164,-0.342,15.41,31.74,-1.68,0,5
15825.031,0.97,-0.136,-0.298,17.98,32.26,-7.39,0,5
15825.031,0.968,-0.094,-0.267,19.04,32.87,-10.65,0,5
15825.046,0.968,-0.067,-0.237,17.49,34.52,-12.21,0,5
15825.062,0.959,-0.064,-0.202,13.28,35.0,-12.67,0,5
15825.062,0.954,-0.063,-0.169,8.12,32.84,-12.02,0,5
15825.078,0.947,-0.066,-0.146,4.61,28.78,-10.62,0,5
15825.093,0.943,-0.065,-0.13,2.96,23.53,-9.13,0,5
15825.093,0.935,-0.06,-0.125,2.53,17.91,-8.03,0,5
15825.109,0.939,-0.049,-0.128,3.42,13.25,-7.54,0,5
15825.125,0.954,-0.043,-0.137,3.94,10.93,-7.23,0,5
15825.125,0.982,-0.05,-0.143,4.03,11.57,-5.71,0,5
15825.14,0.981,-0.057,-0.146,4.55,11.41,-4.58,0,5
15825.14,0.977,-0.063,-0.143,4.61,11.51,-3.88,0,5
15825.156,0.973,-0.062,-0.136,3.57,11.63,-3.97,0,5
15825.171,0.977,-0.068,-0.119,1.8,11.02,-4.73,0,5
15825.187,0.98,-0.07,-0.108,0.85,10.35,-5.8,0,5
15825.187,0.981,-0.066,-0.098,1.46,9.34,-6.99,0,5
15825.203,0.981,-0.057,-0.103,2.44,7.87,-8.33,0,5
15825.203,0.985,-0.041,-0.112,2.56,6.01,-9.58,0,5
15825.218,0.983,-0.028,-0.116,2.62,4.49,-10.74,0,5
15825.234,0.975,-0.029,-0.124,2.99,2.96,-11.47,0,5
15825.234,0.987,-0.023,-0.121,4.55,1.5,-11.57,0,5
15825.25,0.987,-0.02,-0.119,8.76,2.11,-11.44,0,5
15825.265,0.98,-0.023,-0.116,14.31,3.36,-10.44,0,5
15825.265,0.976,-0.02,-0.112,21.09,3.6,-9.46,0,5
15825.281,0.97,-0.006,-0.12,27.59,2.9,-8.12,0,5
15825.281,0.975,0.017,-0.13,30.64,2.08,-6.71,0,5
15825.296,0.982,0.037,-0.143,28.87,1.56,-5.62,0,5
15825.312,0.981,0.041,-0.154,22.49,0.64,-5.1,0,5
15825.312,0.975,0.037,-0.16,14.07,-0.92,-5.1,0,5
15825.328,0.978,0.034,-0.168,5.49,-3.17,-5.04,0,5
15825.343,0.983,0.021,-0.17,-1.13,-5.19,-4.94,0,5
15825.343,0.985,0.01,-0.17,-4.36,-6.2,-4.91,0,5
15825.359,0.99,0.005,-0.179,-4.15,-5.46,-5.13,0,5
15825.375,0.992,0.002,-0.189,-1.83,-3.23,-5.25,0,5
15825.375,0.989,-0.002,-0.2,0.7,-0.06,-5.25,0,5
15825.39,0.987,-0.004,-0.209,2.66,1.95,-5.52,0,5
15825.39,0.99,-0.003,-0.213,3.88,3.3,-5.86,0,5
15825.406,0.989,0.005,-0.211,4.55,4.12,-6.26,0,5
15825.421,0.986,0.015,-0.213,5.74,3.94,-6.41,0,5
15825.421,0.983,0.026,-0.214,6.65,4.06,-6.26,0,5
15825.437,0.981,0.034,-0.218,7.48,4.39,-5.34,0,5
15825.453,0.975,0.038,-0.229,7.66,5.28,-3.45,0,5
15825.453,0.98,0.036,-0.231,5.74,6.26,-1.43,0,5
15825.468,0.987,0.029,-0.232,2.23,7.17,-0.15,0,5
15825.484,0.998,0.018,-0.224,-2.32,8.39,0.03,0,5
15825.484,0.998,0.002,-0.224,-6.78,8.79,-0.06,0,5
15825.5,0.993,-0.017,-0.22,-10.99,7.9,0.09,0,5
15825.515,0.984,-0.019,-0.227,-14.8,6.13,-0.24,0,5
15825.515,0.969,-0.031,-0.239,-17.7,3.75,-1.53,0,5
15825.531,0.962,-0.042,-0.242,-18.98,2.29,-2.56,0,5
15825.546,0.968,-0.043,-0.254,-17.4,2.23,-3.33,0,5
15825.546,0.978,-0.045,-0.259,-14.31,3.75,-3.85,0,5
15825.562,0.984,-0.042,-0.247,-10.5,6.93,-4.49,0,5
15825.562,0.99,-0.027,-0.244,-6.13,11.26,-5.55,0,5
15825.578,0.985,-0.011,-0.236,-2.5,15.9,-6.53,0,5
15825.593,0.978,0.005,-0.223,-1.13,18.92,-6.74,0,5
15825.593,0.968,0.002,-0.21,-0.98,20.14,-6.71,0,5
15825.609,0.964,-0.001,-0.196,-1.83,20.26,-6.62,0,5
15825.625,0.98,0.012,-0.182,-3.88,19.9,-7.2,0,5
15825.625,0.985,0.012,-0.164,-5.8,20.2,-8.18,0,5
15825.64,0.977,0.017,-0.149,-6.99,20.51,-9.09,0,5
15825.64,0.971,0.024,-0.139,-7.23,20.11,-9.86,0,5
15825.656,0.968,0.024,-0.14,-5.92,19.38,-9.98,0,5
15825.671,0.968,0.036,-0.139,-3.05,18.83,-9.4,0,5
15825.671,0.966,0.05,-0.144,0.58,18.71,-8.03,0,5
15825.687,0.97,0.061,-0.156,3.88,19.04,-6.26,0,5
15825.703,0.965,0.06,-0.16,6.74,19.17,-4.3,0,5
15825.703,0.965,0.048,-0.161,9.25,18.92,-1.86,0,5
15825.718,0.968,0.037,-0.164,11.63,18.89,0.31,0,5
15825.734,0.98,0.022,-0.166,12.91,18.8,1.04,0,5
15825.734,0.979,0.028,-0.17,12.63,19.2,0.61,0,5
15825.75,0.977,0.03,-0.166,10.25,19.93,-0.37,0,5
15825.75,0.978,0.036,-0.162,6.56,20.69,-1.16,0,5
15825.765,0.971,0.036,-0.159,3.48,20.97,-0.92,0,5
15825.781,0.964,0.029,-0.158,1.83,20.45,-0.03,0,5
15825.781,0.965,0.026,-0.158,1.74,19.62,0.92,0,5
15825.796,0.961,0.02,-0.161,2.84,19.56,1.77,0,5
15825.812,0.96,0.017,-0.165,4.73,19.75,2.04,0,5
15825.812,0.955,0.023,-0.177,6.81,20.11,1.71,0,5
15825.828,0.956,0.041,-0.199,7.57,20.29,0.95,0,5
15825.843,0.953,0.062,-0.214,7.35,20.69,0.73,0,5
15825.843,0.944,0.074,-0.227,6.87,22.13,1.25,0,5
15825.859,0.939,0.091,-0.234,6.96,24.48,1.86,0,5
15825.875,0.932,0.116,-0.233,7.17,26.8,2.47,0,5
15825.875,0.933,0.135,-0.228,7.69,30.43,4.27,0,5
15825.89,0.944,0.152,-0.219,8.94,34.3,7.32,0,5
15825.906,0.928,0.173,-0.213,11.11,37.84,11.23,0,5
15825.906,0.897,0.184,-0.204,14.16,40.28,15.9,0,5
15825.921,0.858,0.187,-0.206,18.52,40.68,21.33,0,5
15825.921,0.82,0.19,-0.223,22.43,38.61,28.41,0,5
15825.937,0.793,0.188,-0.248,24.41,34.76,36.71,0,5
15825.953,0.795,0.18,-0.268,24.14,30.98,45.2,0,5
15825.953,0.814,0.172,-0.287,22.03,29.33,52.19,0,5
15825.968,0.822,0.165,-0.302,19.23,30.15,57.19,0,5
15825.984,0.827,0.162,-0.3,16.48,32.23,60.67,0,5
15825.984,0.81,0.154,-0.297,15.5,34.79,64.06,0,5
15826.0,0.759,0.14,-0.293,17.52,37.2,68.42,0,5
15826.015,0.709,0.138,-0.274,21.79,39.7,74.01,0,5
15826.015,0.66,0.098,-0.24,28.66,42.79,80.87,0,5
15826.031,0.627,-0.009,-0.236,39.86,44.43,92.1,0,5
15826.046,0.613,-0.071,-0.227,53.19,46.6,105.59,0,5
15826.046,0.617,-0.095,-0.218,65.98,51.06,114.41,0,5
15826.062,0.632,-0.126,-0.208,73.73,58.14,116.98,0,5
15826.062,0.621,-0.143,-0.195,76.85,68.82,114.78,0,5
15826.078,0.584,-0.141,-0.158,77.52,80.32,109.81,0,5
15826.093,0.525,-0.129,-0.113,77.24,89.42,103.85,0,5
15826.093,0.465,-0.122,-0.077,76.85,96.35,99.49,0,5
15826.109,0.412,-0.123,-0.045,76.39,103.79,99.34,0,5
15826.125,0.354,-0.15,-0.004,77.88,101.6,101.5,0,5
15826.125,0.353,-0.193,0.051,83.13,96.77,104.8,0,5
15826.14,0.385,-0.255,0.07,91.65,95.28,107.67,0,5
15826.156,0.405,-0.326,0.098,101.81,94.33,105.41,0,5
15826.156,0.404,-0.324,0.105,111.88,95.37,98.45,0,5
15826.171,0.389,-0.299,0.117,119.48,99.98,88.56,0,5
15826.171,0.362,-0.272,0.125,126.22,105.44,77.24,0,5
15826.187,0.338,-0.25,0.127,131.96,109.53,66.77,0,5
15826.203,0.317,-0.217,0.136,136.51,114.29,58.05,0,5
15826.203,0.297,-0.181,0.157,139.44,121.19,51.03,0,5
15826.218,0.285,-0.167,0.188,141.12,128.27,45.44,0,5
15826.234,0.292,-0.178,0.224,140.54,133.88,42.63,0,5
15826.234,0.336,-0.183,0.233,137.88,135.87,42.51,0,5
15826.25,0.368,-0.143,0.229,132.39,135.62,43.18,0,5
15826.265,0.314,-0.124,0.252,123.69,137.21,43.79,0,5
15826.265,0.265,-0.155,0.287,112.31,140.05,42.09,0,5
15826.281,0.224,-0.187,0.358,102.88,144.08,38.7,0,5
15826.281,0.241,-0.207,0.424,99.43,147.25,33.33,0,5
15826.296,0.322,-0.193,0.466,98.88,148.81,26.0,0,5
15826.312,0.379,-0.164,0.484,98.79,151.07,18.49,0,5
15826.312,0.345,-0.153,0.502,98.3,153.81,11.29,0,5
15826.328,0.267,-0.179,0.546,98.7,155.49,6.47,0,5
15826.343,0.222,-0.223,0.597,101.05,153.81,3.36,0,5
15826.343,0.246,-0.251,0.614,106.78,148.08,-2.17,0,5
15826.359,0.334,-0.202,0.603,111.45,140.93,-10.59,0,5
15826.375,0.358,-0.155,0.579,111.85,137.21,-19.81,0,5
15826.39,0.306,-0.181,0.577,107.94,137.46,-29.02,0,5
15826.39,0.264,-0.215,0.603,103.24,137.73,-37.75,0,5
15826.39,0.216,-0.266,0.601,107.33,136.57,-47.79,0,5
15826.406,0.149,-0.314,0.599,121.13,135.81,-60.34,0,5
15826.421,0.126,-0.301,0.614,139.59,138.92,-75.38,0,5
15826.421,0.145,-0.219,0.613,156.35,147.01,-92.75,0,5
15826.437,0.105,-0.13,0.63,165.53,161.5,-109.2,0,5
15826.453,-0.006,-0.097,0.674,170.66,176.21,-122.71,0,5
15826.453,-0.108,-0.069,0.715,177.62,181.86,-133.09,0,5
15826.468,-0.187,0.001,0.729,191.78,178.56,-141.76,0,5
15826.484,-0.315,0.119,0.687,207.22,169.19,-151.8,0,5
15826.484,-0.41,0.339,0.665,209.02,161.08,-165.07,0,5
15826.5,-0.463,0.61,0.664,189.09,159.86,-180.18,0,5
15826.515,-0.534,0.779,0.69,147.34,166.11,-190.31,0,5
