timestamp,ax,ay,az,gx,gy,gz,orient_label,motion_label
17095.593,-0.312,-0.232,-0.922,-0.98,-0.76,1.13,2,0
17095.593,-0.309,-0.235,-0.927,0.0,-0.67,1.56,2,0
17095.609,-0.306,-0.232,-0.933,0.34,-0.46,1.56,2,0
17095.625,-0.304,-0.229,-0.932,-0.37,-0.34,0.85,2,0
17095.625,-0.308,-0.231,-0.927,-1.16,-0.34,-0.15,2,0
17095.64,-0.303,-0.233,-0.922,-1.16,-0.24,-0.61,2,0
17095.656,-0.305,-0.232,-0.919,-0.58,0.03,-0.61,2,0
17095.656,-0.31,-0.233,-0.912,0.06,-0.03,-0.34,2,0
17095.671,-0.311,-0.232,-0.913,0.58,-0.64,-0.03,2,0
17095.671,-0.308,-0.231,-0.92,0.58,-1.34,-0.21,2,0
17095.687,-0.306,-0.229,-0.924,0.09,-1.86,-0.82,2,0
17095.703,-0.301,-0.23,-0.927,-0.43,-2.04,-1.4,2,0
17095.703,-0.296,-0.233,-0.928,-0.46,-2.01,-1.68,2,0
17095.718,-0.297,-0.235,-0.926,0.34,-1.68,-1.74,2,0
17095.734,-0.297,-0.234,-0.927,1.25,-1.01,-1.65,2,0
17095.734,-0.299,-0.234,-0.923,1.98,-0.52,-1.4,2,0
17095.75,-0.302,-0.237,-0.922,1.89,-0.82,-1.86,2,0
17095.765,-0.299,-0.233,-0.923,1.37,-1.28,-3.23,2,0
17095.765,-0.301,-0.228,-0.922,0.34,-2.01,-4.82,2,0
17095.781,-0.309,-0.23,-0.924,-0.76,-2.84,-5.86,2,0
17095.796,-0.305,-0.229,-0.932,-1.5,-3.23,-5.31,2,0
17095.796,-0.296,-0.238,-0.936,-1.25,-2.93,-3.75,2,0
17095.812,-0.294,-0.231,-0.941,0.24,-1.46,-2.47,2,0
17095.812,-0.293,-0.223,-0.942,1.34,0.03,-1.95,2,0
17095.828,-0.294,-0.219,-0.933,0.98,0.92,-1.92,2,0
17095.843,-0.298,-0.219,-0.914,0.18,1.5,-1.98,2,0
17095.843,-0.308,-0.222,-0.901,-0.03,1.16,-2.08,2,0
17095.859,-0.312,-0.22,-0.902,-0.12,-0.58,-1.74,2,0
17095.875,-0.313,-0.215,-0.912,-0.76,-2.78,-1.13,2,0
17095.89,-0.304,-0.225,-0.922,-1.43,-4.33,-0.18,2,0
17095.89,-0.295,-0.241,-0.934,-1.31,-4.64,0.82,2,0
17095.89,-0.292,-0.244,-0.947,0.06,-3.57,1.07,2,0
17095.906,-0.293,-0.243,-0.944,0.61,-1.56,0.79,2,0
17095.921,-0.295,-0.239,-0.931,1.04,0.49,0.03,2,0
17095.937,-0.301,-0.235,-0.915,1.07,1.53,-0.64,2,0
17095.937,-0.307,-0.228,-0.903,0.7,0.76,-1.22,2,0
17095.953,-0.313,-0.226,-0.904,0.46,-1.16,-1.31,2,0
17095.968,-0.313,-0.223,-0.916,0.0,-3.14,-1.01,2,0
17095.968,-0.309,-0.226,-0.924,-0.34,-3.91,-0.89,2,0
17095.984,-0.306,-0.23,-0.927,-0.31,-3.69,-1.07,2,0
17095.984,-0.307,-0.231,-0.923,-0.12,-3.05,-1.28,2,0
17096.0,-0.312,-0.231,-0.912,0.0,-2.84,-1.31,2,0
17096.015,-0.318,-0.231,-0.903,0.37,-3.2,-1.19,2,0
17096.015,-0.326,-0.235,-0.904,0.92,-4.09,-0.43,2,0
17096.031,-0.329,-0.238,-0.907,1.89,-4.67,0.7,2,0
17096.031,-0.326,-0.242,-0.911,3.14,-4.64,1.65,2,0
17096.046,-0.317,-0.241,-0.923,3.94,-4.67,1.62,2,0
17096.062,-0.313,-0.233,-0.923,3.63,-4.06,0.27,2,0
17096.062,-0.32,-0.235,-0.911,2.44,-3.33,-1.89,2,0
17096.078,-0.327,-0.242,-0.894,1.4,-3.57,-4.18,2,0
17096.093,-0.336,-0.243,-0.88,0.43,-4.7,-6.32,2,0
17096.093,-0.347,-0.243,-0.875,0.18,-6.44,-7.97,2,0
17096.109,-0.353,-0.235,-0.874,-0.12,-8.33,-8.79,2,0
17096.125,-0.354,-0.231,-0.872,-0.82,-10.28,-9.55,2,0
17096.125,-0.355,-0.227,-0.874,-1.31,-12.6,-10.13,2,0
17096.14,-0.353,-0.224,-0.878,-1.77,-14.56,-10.07,2,0
17096.156,-0.356,-0.229,-0.898,-2.11,-16.14,-9.34,2,0
17096.156,-0.35,-0.225,-0.917,-2.87,-16.75,-8.82,2,0
17096.171,-0.344,-0.226,-0.929,-3.57,-15.96,-8.82,2,0
17096.171,-0.331,-0.229,-0.934,-3.72,-14.47,-8.88,2,0
17096.187,-0.319,-0.235,-0.933,-3.54,-13.43,-8.88,2,0
17096.203,-0.317,-0.239,-0.937,-2.9,-12.39,-8.64,2,0
17096.203,-0.316,-0.24,-0.937,-2.59,-10.8,-7.84,2,0
17096.218,-0.307,-0.25,-0.931,-2.78,-8.7,-7.05,2,0
17096.234,-0.296,-0.25,-0.92,-1.95,-6.23,-6.84,2,0
17096.234,-0.288,-0.247,-0.91,-0.58,-3.3,-6.93,2,0
17096.25,-0.276,-0.246,-0.893,-0.49,-0.46,-7.05,2,0
17096.265,-0.268,-0.246,-0.875,-0.34,2.11,-7.6,2,0
17096.265,-0.265,-0.238,-0.861,-0.82,4.27,-8.21,2,0
17096.281,-0.263,-0.246,-0.842,-1.62,6.5,-8.45,2,0
17096.296,-0.265,-0.26,-0.827,-1.01,8.51,-8.42,2,0
17096.296,-0.259,-0.25,-0.827,0.37,10.04,-8.76,2,0
17096.312,-0.242,-0.235,-0.83,0.92,11.11,-10.32,2,0
17096.312,-0.233,-0.235,-0.828,-0.73,11.66,-13.61,2,0
17096.328,-0.222,-0.236,-0.821,-2.75,12.12,-17.91,2,0
17096.343,-0.212,-0.233,-0.807,-4.36,12.97,-22.46,2,0
17096.359,-0.218,-0.226,-0.787,-5.52,14.34,-26.58,2,0
17096.359,-0.215,-0.228,-0.764,-6.1,15.78,-29.39,2,0
17096.375,-0.21,-0.233,-0.735,-5.71,16.39,-31.86,2,0
17096.375,-0.217,-0.221,-0.728,-5.1,15.81,-33.66,2,0
17096.39,-0.209,-0.216,-0.718,-4.79,13.82,-34.58,2,0
17096.406,-0.202,-0.227,-0.741,-5.04,10.01,-34.58,2,0
17096.406,-0.206,-0.23,-0.754,-5.52,6.38,-33.36,2,0
17096.421,-0.215,-0.234,-0.796,-4.33,3.81,-31.53,2,0
17096.437,-0.216,-0.244,-0.854,-2.2,4.46,-26.73,2,0
17096.453,-0.233,-0.255,-0.876,0.89,7.08,-25.09,2,0
17096.453,-0.24,-0.256,-0.886,3.72,9.7,-23.35,2,0
17096.468,-0.233,-0.252,-0.896,6.23,11.57,-21.67,2,0
17096.484,-0.209,-0.241,-0.905,8.97,13.09,-19.59,2,0
17096.484,-0.179,-0.227,-0.912,10.35,14.25,-17.15,2,0
17096.5,-0.17,-0.219,-0.92,10.65,14.92,-14.37,2,0
17096.515,-0.191,-0.209,-0.933,10.47,15.14,-12.09,2,0
17096.515,-0.233,-0.212,-0.942,9.06,14.62,-11.02,2,0
17096.531,-0.282,-0.238,-0.948,7.84,14.01,-10.56,2,0
17096.546,-0.307,-0.247,-0.963,8.24,13.37,-10.41,2,0
17096.546,-0.284,-0.239,-0.976,8.18,12.82,-10.13,2,0
17096.562,-0.243,-0.237,-0.986,7.42,12.21,-9.03,2,0
17096.562,-0.209,-0.242,-1.002,7.42,12.05,-6.44,2,0
17096.578,-0.177,-0.242,-1.015,7.9,12.94,-3.17,2,0
17096.593,-0.157,-0.26,-1.02,9.03,14.86,-0.03,2,0
17096.609,-0.179,-0.27,-1.014,12.05,18.86,3.05,2,0
17096.625,-0.226,-0.263,-1.007,10.68,18.4,1.4,2,0
17096.625,-0.265,-0.261,-0.997,6.68,15.81,-1.37,2,0
17096.64,-0.277,-0.263,-1.001,3.14,12.48,-3.63,2,0
17096.656,-0.26,-0.257,-1.016,0.98,9.95,-3.85,2,0
17096.656,-0.235,-0.257,-1.026,0.79,9.4,-2.17,2,0
17096.671,-0.226,-0.258,-1.029,2.29,11.02,0.89,2,0
17096.671,-0.23,-0.253,-1.019,4.0,13.82,4.55,2,0
17096.687,-0.228,-0.255,-0.991,5.83,16.94,8.64,2,0
17096.703,-0.22,-0.263,-0.958,8.82,19.47,13.58,2,0
17096.718,-0.224,-0.259,-0.932,12.94,20.78,18.98,2,0
17096.718,-0.242,-0.247,-0.923,16.02,19.99,25.03,2,0
17096.734,-0.246,-0.241,-0.929,18.62,12.88,37.23,2,0
17096.734,-0.245,-0.246,-0.953,20.42,9.7,42.27,2,0
17096.75,-0.219,-0.247,-0.989,21.79,8.94,45.99,2,0
17096.765,-0.169,-0.245,-1.059,21.3,10.56,46.51,2,0
17096.781,-0.2,-0.271,-1.034,13.03,16.63,39.0,2,0
17096.796,-0.24,-0.292,-1.001,9.86,18.31,34.61,2,0
17096.796,-0.267,-0.312,-0.981,7.66,16.57,31.95,2,0
17096.812,-0.249,-0.309,-0.986,5.92,11.6,31.56,2,0
17096.812,-0.227,-0.308,-1.007,5.31,6.53,33.48,2,0
17096.828,-0.202,-0.311,-1.035,6.62,3.2,37.11,2,0
17096.843,-0.173,-0.305,-1.068,8.97,2.75,40.5,2,0
17096.859,-0.148,-0.297,-1.094,10.56,5.31,41.11,2,0
17096.859,-0.162,-0.28,-1.106,9.61,9.8,37.42,2,0
17096.875,-0.189,-0.28,-1.087,5.1,14.16,31.77,2,0
17096.875,-0.207,-0.297,-1.052,0.24,16.91,26.34,2,0
17096.89,-0.228,-0.324,-1.009,-2.01,17.55,22.0,2,0
17096.906,-0.238,-0.325,-0.99,-3.45,15.35,19.56,2,0
17096.906,-0.229,-0.332,-0.977,-3.69,12.57,19.41,2,0
17096.921,-0.227,-0.337,-0.978,-3.05,10.56,19.99,2,0
17096.937,-0.227,-0.335,-0.986,-2.35,9.74,19.93,2,0
17096.937,-0.24,-0.331,-0.982,-1.46,10.35,18.86,2,0
17096.953,-0.256,-0.324,-0.987,-0.85,10.83,16.63,2,0
17096.953,-0.256,-0.315,-0.973,-2.75,10.74,14.31,2,0
17096.968,-0.249,-0.334,-0.954,-4.27,9.77,12.15,2,0
17096.984,-0.245,-0.336,-0.949,-4.18,8.09,9.95,2,0
17096.984,-0.243,-0.316,-0.944,-3.78,6.07,8.27,2,0
17097.0,-0.242,-0.311,-0.959,-4.43,3.85,6.9,2,0
17097.015,-0.237,-0.315,-0.952,-4.88,2.87,6.32,2,0
17097.015,-0.235,-0.306,-0.949,-4.7,1.68,6.47,2,0
17097.031,-0.241,-0.297,-0.955,-3.6,1.19,6.99,2,0
17097.046,-0.243,-0.299,-0.967,-2.72,0.76,7.51,2,0
17097.046,-0.236,-0.301,-0.972,-2.53,0.98,7.39,2,0
17097.062,-0.234,-0.298,-0.972,-1.8,1.77,6.65,2,0
17097.078,-0.227,-0.286,-0.969,-1.95,2.2,5.83,2,0
17097.078,-0.223,-0.281,-0.963,-2.96,1.98,5.04,2,0
17097.093,-0.221,-0.28,-0.948,-3.72,1.25,5.01,2,0
17097.093,-0.227,-0.278,-0.95,-3.69,-0.03,5.31,2,0
17097.109,-0.224,-0.271,-0.946,-3.33,-0.79,6.26,2,0
17097.125,-0.225,-0.274,-0.949,-2.38,-1.34,8.12,2,0
17097.125,-0.223,-0.284,-0.953,-1.83,-1.89,10.19,2,0
17097.14,-0.217,-0.282,-0.952,-1.01,-1.86,11.78,2,0
17097.156,-0.216,-0.287,-0.96,-0.12,-1.53,13.15,2,0
17097.156,-0.221,-0.289,-0.949,-0.06,-0.49,14.16,2,0
17097.171,-0.219,-0.281,-0.938,0.21,-0.21,14.62,2,0
17097.187,-0.216,-0.279,-0.931,-0.37,-0.27,14.68,2,0
17097.187,-0.218,-0.285,-0.919,-0.92,-0.73,14.83,2,0
17097.203,-0.221,-0.291,-0.91,-0.58,-1.77,16.11,2,0
17097.218,-0.221,-0.297,-0.908,0.58,-3.14,18.01,2,0
17097.218,-0.224,-0.3,-0.913,1.74,-4.36,19.5,2,0
17097.234,-0.228,-0.296,-0.925,2.04,-5.83,20.14,2,0
17097.234,-0.224,-0.296,-0.941,1.22,-6.96,20.02,2,0
17097.25,-0.216,-0.302,-0.952,0.15,-7.11,19.17,2,0
17097.265,-0.209,-0.304,-0.958,-0.34,-6.35,17.73,2,0
17097.265,-0.206,-0.313,-0.955,-0.49,-4.73,16.79,2,0
17097.281,-0.202,-0.324,-0.953,0.12,-2.5,16.94,2,0
17097.296,-0.201,-0.329,-0.944,1.68,-0.12,17.37,2,0
17097.296,-0.201,-0.333,-0.939,3.88,1.77,18.49,2,0
17097.312,-0.198,-0.331,-0.928,6.2,3.6,20.2,2,0
17097.328,-0.199,-0.323,-0.916,8.12,4.55,20.72,2,0
17097.328,-0.203,-0.318,-0.912,8.79,4.67,20.11,2,0
17097.343,-0.208,-0.309,-0.91,8.21,4.0,18.71,2,0
17097.343,-0.211,-0.304,-0.907,6.29,2.93,16.66,2,0
17097.359,-0.212,-0.315,-0.897,4.46,1.95,14.44,2,0
17097.375,-0.216,-0.319,-0.892,3.75,1.37,12.33,2,0
17097.39,-0.219,-0.311,-0.892,3.75,0.52,10.9,2,0
17097.39,-0.216,-0.307,-0.89,3.39,-0.37,9.83,2,0
17097.39,-0.214,-0.308,-0.898,3.2,-1.25,8.3,2,0
17097.406,-0.218,-0.298,-0.908,2.87,-2.01,6.81,2,0
17097.421,-0.221,-0.288,-0.918,1.8,-2.38,5.52,2,0
17097.437,-0.226,-0.289,-0.923,1.01,-2.23,4.36,2,0
17097.437,-0.232,-0.288,-0.927,0.61,-2.32,3.85,2,0
17097.453,-0.236,-0.283,-0.932,0.79,-2.35,3.75,2,0
17097.453,-0.242,-0.273,-0.937,1.43,-2.53,4.61,2,0
17097.468,-0.24,-0.273,-0.94,1.46,-3.05,5.43,2,0
17097.484,-0.237,-0.274,-0.945,1.8,-3.78,6.32,2,0
17097.484,-0.237,-0.271,-0.958,2.47,-4.21,7.29,2,0
17097.5,-0.232,-0.273,-0.962,2.59,-3.57,7.97,2,0
17097.515,-0.227,-0.278,-0.956,3.08,-1.77,8.39,2,0
17097.515,-0.219,-0.281,-0.955,3.72,0.34,8.42,2,0
17097.531,-0.211,-0.272,-0.943,4.24,2.2,8.33,2,0
17097.546,-0.201,-0.263,-0.93,3.75,2.87,7.97,2,0
17097.546,-0.191,-0.266,-0.92,2.69,2.78,7.05,2,0
17097.562,-0.179,-0.273,-0.911,1.62,2.38,5.74,2,0
17097.578,-0.175,-0.282,-0.907,1.01,1.92,4.79,2,0
17097.578,-0.173,-0.291,-0.912,1.13,1.83,3.75,2,0
17097.593,-0.177,-0.294,-0.914,1.04,1.92,2.35,2,0
17097.609,-0.193,-0.303,-0.923,0.92,2.01,0.43,2,0
17097.609,-0.206,-0.301,-0.924,0.24,2.01,-2.23,2,0
17097.625,-0.222,-0.302,-0.926,-0.12,2.26,-6.16,2,0
17097.625,-0.234,-0.29,-0.93,-1.19,1.65,-10.44,2,0
17097.64,-0.244,-0.275,-0.926,-3.81,0.46,-14.8,2,0
17097.656,-0.252,-0.272,-0.925,-5.65,-1.07,-18.49,2,0
17097.656,-0.252,-0.264,-0.93,-6.71,-2.72,-20.36,2,0
17097.671,-0.251,-0.26,-0.931,-6.71,-4.18,-20.78,2,0
17097.687,-0.253,-0.254,-0.939,-5.07,-5.4,-19.78,2,0
17097.687,-0.251,-0.238,-0.955,-3.69,-6.26,-17.98,2,0
17097.703,-0.251,-0.235,-0.967,-3.45,-6.99,-16.63,2,0
17097.703,-0.257,-0.225,-0.982,-4.58,-7.57,-14.62,2,0
17097.718,-0.248,-0.221,-0.986,-4.52,-7.39,-13.52,2,0
17097.734,-0.24,-0.224,-1.003,-4.27,-6.41,-12.05,2,0
17097.734,-0.231,-0.216,-1.006,-3.75,-4.85,-9.64,2,0
17097.75,-0.213,-0.222,-1.008,-2.9,-3.05,-6.65,2,0
17097.765,-0.206,-0.228,-1.001,-1.65,-0.95,-3.42,2,0
17097.765,-0.204,-0.236,-0.99,0.06,1.37,-0.03,2,0
17097.781,-0.201,-0.244,-0.978,1.19,3.23,2.56,2,0
17097.796,-0.207,-0.254,-0.965,1.71,4.46,3.91,2,0
17097.796,-0.211,-0.266,-0.956,1.89,4.97,4.18,2,0
17097.812,-0.208,-0.27,-0.951,1.74,5.46,3.85,2,0
17097.812,-0.201,-0.273,-0.948,1.16,5.98,2.75,2,0
17097.828,-0.201,-0.28,-0.943,0.37,6.62,1.25,2,0
17097.843,-0.204,-0.281,-0.941,-0.55,7.26,-0.46,2,0
17097.843,-0.203,-0.285,-0.931,-2.23,7.23,-2.66,2,0
17097.859,-0.208,-0.29,-0.925,-3.75,6.5,-5.37,2,0
17097.875,-0.204,-0.285,-0.921,-5.16,5.55,-7.9,2,0
17097.875,-0.197,-0.295,-0.918,-6.35,4.52,-9.49,2,0
17097.89,-0.194,-0.301,-0.918,-6.23,3.48,-10.59,2,0
17097.906,-0.194,-0.292,-0.917,-5.49,2.62,-11.02,2,0
17097.906,-0.199,-0.282,-0.92,-4.91,1.68,-10.96,2,0
17097.921,-0.201,-0.277,-0.924,-4.36,0.79,-10.56,2,0
17097.937,-0.198,-0.271,-0.93,-3.85,0.24,-9.83,2,0
17097.937,-0.199,-0.261,-0.938,-3.36,-0.18,-9.06,2,0
17097.953,-0.197,-0.253,-0.943,-3.17,-0.76,-8.0,2,0
17097.953,-0.196,-0.253,-0.949,-3.36,-0.89,-7.2,2,0
17097.968,-0.201,-0.257,-0.955,-3.17,-0.61,-6.26,2,0
17097.984,-0.2,-0.256,-0.954,-2.9,-0.12,-4.73,2,0
17097.984,-0.205,-0.254,-0.95,-2.93,0.37,-3.48,2,0
17098.0,-0.203,-0.258,-0.944,-2.72,0.76,-2.08,2,0
17098.015,-0.199,-0.261,-0.945,-1.92,0.95,-0.4,2,0
17098.015,-0.2,-0.259,-0.941,-0.95,1.19,0.7,2,0
17098.031,-0.197,-0.254,-0.942,-0.89,1.16,1.71,2,0
17098.031,-0.19,-0.267,-0.938,-1.16,1.37,2.78,2,0
17098.046,-0.192,-0.279,-0.936,-0.34,1.62,3.33,2,0
17098.062,-0.197,-0.274,-0.938,0.49,1.68,3.54,2,0
17098.062,-0.196,-0.275,-0.937,0.46,1.71,3.85,2,0
17098.078,-0.198,-0.284,-0.935,0.34,1.59,3.45,2,0
17098.093,-0.203,-0.284,-0.934,0.4,1.22,2.62,2,0
17098.093,-0.206,-0.277,-0.936,0.4,0.76,1.65,2,0
17098.109,-0.209,-0.271,-0.936,-0.18,0.18,1.04,2,0
17098.125,-0.215,-0.274,-0.932,-0.7,-0.82,0.61,2,0
17098.125,-0.22,-0.275,-0.935,-0.24,-1.74,0.4,2,0
17098.14,-0.223,-0.258,-0.943,0.24,-2.41,0.79,2,0
17098.156,-0.229,-0.248,-0.947,-0.15,-2.99,1.5,2,0
17098.156,-0.225,-0.255,-0.947,-0.67,-3.6,2.81,2,0
17098.171,-0.214,-0.261,-0.952,0.21,-3.81,4.79,2,0
17098.171,-0.206,-0.258,-0.956,1.92,-3.23,6.71,2,0
17098.187,-0.204,-0.261,-0.96,3.08,-2.38,8.7,2,0
17098.203,-0.197,-0.273,-0.964,4.18,-0.95,10.07,2,0
17098.203,-0.193,-0.27,-0.963,4.73,0.64,10.74,2,0
17098.218,-0.192,-0.267,-0.954,4.18,1.62,10.74,2,0
17098.234,-0.193,-0.279,-0.947,2.96,1.89,9.8,2,0
17098.234,-0.188,-0.28,-0.939,1.43,1.28,8.39,2,0
17098.25,-0.189,-0.276,-0.935,0.46,0.46,6.93,2,0
17098.265,-0.184,-0.286,-0.934,0.09,0.09,6.07,2,0
17098.265,-0.177,-0.284,-0.936,0.15,0.09,5.22,2,0
17098.281,-0.176,-0.284,-0.929,-0.12,0.4,4.67,2,0
17098.296,-0.173,-0.288,-0.923,-0.18,0.89,4.27,2,0
17098.296,-0.177,-0.289,-0.921,0.24,1.07,3.72,2,0
17098.312,-0.184,-0.287,-0.923,0.24,0.82,2.87,2,0
17098.312,-0.182,-0.287,-0.924,-0.06,0.31,2.41,2,0
17098.328,-0.177,-0.288,-0.93,0.49,0.18,2.2,2,0
17098.343,-0.175,-0.281,-0.939,1.16,0.31,1.92,2,0
17098.343,-0.173,-0.27,-0.943,1.04,0.55,1.98,2,0
17098.359,-0.173,-0.266,-0.944,1.04,1.16,1.92,2,0
17098.375,-0.173,-0.261,-0.943,0.98,1.5,1.74,2,0
17098.39,-0.172,-0.262,-0.947,0.82,1.92,1.56,2,0
17098.39,-0.167,-0.261,-0.947,0.58,2.5,1.71,2,0
17098.406,-0.164,-0.256,-0.947,0.73,2.99,2.01,2,0
17098.406,-0.164,-0.258,-0.947,0.64,3.36,2.62,2,0
17098.421,-0.164,-0.26,-0.946,0.64,3.6,3.66,2,0
17098.421,-0.166,-0.261,-0.949,1.59,4.03,4.52,2,0
17098.437,-0.174,-0.258,-0.95,1.95,4.55,4.67,2,0
17098.453,-0.184,-0.256,-0.948,1.13,4.36,4.61,2,0
17098.468,-0.185,-0.264,-0.948,0.24,4.0,4.3,2,0
17098.468,-0.182,-0.27,-0.943,0.43,3.54,4.39,2,0
17098.484,-0.175,-0.271,-0.946,1.65,3.39,4.88,2,0
17098.484,-0.169,-0.266,-0.948,2.72,3.27,5.68,2,0
17098.5,-0.164,-0.262,-0.953,3.3,3.14,6.32,2,0
17098.515,-0.162,-0.259,-0.955,3.17,3.08,6.32,2,0
17098.515,-0.165,-0.258,-0.963,2.75,2.78,5.74,2,0
17098.531,-0.162,-0.255,-0.97,1.31,2.75,4.64,2,0
17098.546,-0.156,-0.258,-0.971,-0.24,3.08,3.72,2,0
17098.546,-0.157,-0.262,-0.972,-0.21,4.0,2.99,2,0
17098.562,-0.165,-0.272,-0.973,0.49,5.46,2.38,2,0
17098.562,-0.171,-0.275,-0.967,1.46,6.9,2.38,2,0
17098.578,-0.18,-0.265,-0.964,2.62,7.63,1.95,2,0
17098.593,-0.191,-0.257,-0.964,2.53,7.45,1.07,2,0
17098.593,-0.196,-0.252,-0.962,0.79,6.44,-0.31,2,0
17098.609,-0.199,-0.25,-0.959,-0.95,5.19,-1.8,2,0
17098.625,-0.206,-0.239,-0.957,-1.95,4.24,-3.08,2,0
17098.625,-0.21,-0.234,-0.961,-2.84,3.54,-3.51,2,0
17098.64,-0.212,-0.236,-0.959,-3.48,3.2,-3.2,2,0
17098.656,-0.214,-0.235,-0.954,-2.96,3.3,-2.41,2,0
17098.656,-0.219,-0.231,-0.951,-1.98,3.45,-1.07,2,0
17098.671,-0.215,-0.234,-0.95,-1.16,3.51,0.95,2,0
17098.687,-0.208,-0.236,-0.947,-0.24,3.51,3.3,2,0
17098.687,-0.208,-0.239,-0.946,1.98,3.33,7.29,2,0
17098.703,-0.203,-0.246,-0.948,2.44,3.48,8.7,2,0
17098.703,-0.192,-0.247,-0.954,1.68,3.54,8.88,2,0
17098.718,-0.187,-0.254,-0.958,0.61,3.48,7.87,2,0
17098.734,-0.188,-0.276,-0.952,-0.09,3.33,6.2,2,0
17098.734,-0.187,-0.272,-0.949,-1.07,3.23,4.03,2,0
17098.75,-0.191,-0.279,-0.943,-2.44,2.96,1.65,2,0
17098.765,-0.192,-0.284,-0.934,-3.6,2.75,-0.49,2,0
17098.765,-0.189,-0.282,-0.924,-4.21,2.5,-2.35,2,0
17098.781,-0.194,-0.275,-0.916,-4.21,1.8,-3.6,2,0
17098.796,-0.194,-0.267,-0.917,-4.24,0.49,-3.81,2,0
17098.796,-0.191,-0.264,-0.921,-4.61,-1.1,-3.05,2,0
17098.812,-0.186,-0.263,-0.93,-4.43,-2.26,-1.95,2,0
17098.812,-0.184,-0.266,-0.942,-3.33,-2.9,-0.89,2,0
17098.828,-0.18,-0.269,-0.956,-2.5,-2.81,-0.09,2,0
17098.843,-0.179,-0.268,-0.966,-2.11,-1.86,0.61,2,0
17098.843,-0.18,-0.276,-0.973,-2.26,-0.67,0.64,2,0
17098.859,-0.185,-0.288,-0.961,-2.72,0.55,-0.03,2,0
17098.875,-0.189,-0.289,-0.952,-1.98,1.25,-1.04,2,0
17098.875,-0.194,-0.275,-0.947,-1.31,1.37,-1.92,2,0
17098.89,-0.199,-0.27,-0.938,-2.23,0.7,-2.84,2,0
17098.906,-0.2,-0.278,-0.924,-3.23,-1.01,-3.63,2,0
17098.921,-0.199,-0.277,-0.929,-2.84,-3.17,-3.6,2,0
17098.921,-0.197,-0.274,-0.941,-1.86,-3.81,-2.72,2,0
17098.921,-0.189,-0.281,-0.935,-0.98,-4.3,-0.95,2,0
17098.937,-0.183,-0.289,-0.944,-0.06,-4.52,0.15,2,0
17098.953,-0.181,-0.293,-0.953,2.32,-3.66,0.58,2,0
17098.953,-0.177,-0.273,-0.96,2.59,-3.2,0.24,2,0
17098.968,-0.174,-0.278,-0.959,2.08,-2.72,-0.82,2,0
17098.984,-0.168,-0.276,-0.961,1.31,-2.23,-2.08,2,0
17098.984,-0.169,-0.273,-0.955,0.49,-2.32,-3.02,2,0
17099.0,-0.167,-0.276,-0.954,0.55,-2.44,-3.11,2,0
17099.015,-0.163,-0.271,-0.951,0.82,-2.56,-2.59,2,0
17099.015,-0.167,-0.275,-0.948,1.16,-2.72,-1.98,2,0
17099.031,-0.17,-0.285,-0.946,1.98,-2.9,-1.28,2,0
17099.046,-0.164,-0.281,-0.946,3.08,-2.81,-0.95,2,0
17099.046,-0.163,-0.273,-0.946,3.48,-2.62,-1.4,2,0
17099.062,-0.165,-0.266,-0.949,2.84,-2.59,-2.29,2,0
17099.078,-0.162,-0.263,-0.945,1.56,-2.59,-3.2,2,0
17099.078,-0.159,-0.266,-0.942,0.49,-2.72,-4.21,2,0
17099.093,-0.163,-0.262,-0.94,-0.15,-2.9,-5.1,2,0
17099.093,-0.16,-0.26,-0.936,-0.31,-3.05,-5.28,2,0
17099.109,-0.155,-0.269,-0.938,0.24,-3.02,-4.49,2,0
17099.125,-0.151,-0.271,-0.941,1.43,-2.84,-3.42,2,0
17099.14,-0.152,-0.272,-0.944,2.44,-2.78,-2.72,2,0
17099.14,-0.154,-0.272,-0.947,2.87,-2.75,-1.98,2,0
17099.14,-0.152,-0.268,-0.951,3.14,-2.66,-1.68,2,0
17099.156,-0.158,-0.271,-0.956,2.53,-2.41,-2.41,2,0
17099.171,-0.158,-0.27,-0.959,1.53,-2.5,-3.45,2,0
17099.187,-0.154,-0.262,-0.966,1.01,-2.5,-4.46,2,0
17099.187,-0.155,-0.258,-0.972,0.64,-1.95,-5.37,2,0
17099.203,-0.156,-0.259,-0.968,0.18,-1.25,-6.1,2,0
17099.218,-0.16,-0.263,-0.961,0.12,-1.01,-6.23,2,0
17099.218,-0.163,-0.259,-0.962,0.61,-1.07,-5.65,2,0
17099.234,-0.163,-0.257,-0.964,1.13,-1.25,-4.88,2,0
17099.234,-0.162,-0.261,-0.966,1.53,-1.34,-4.21,2,0
17099.25,-0.16,-0.257,-0.972,1.92,-1.1,-3.78,2,0
17099.265,-0.159,-0.252,-0.977,2.17,-0.58,-3.72,2,0
17099.265,-0.157,-0.249,-0.974,1.68,0.15,-3.85,2,0
17099.281,-0.159,-0.251,-0.965,0.92,0.46,-4.12,2,0
17099.296,-0.161,-0.251,-0.96,0.64,0.61,-4.24,2,0
17099.296,-0.158,-0.253,-0.957,0.43,0.18,-4.12,2,0
17099.312,-0.157,-0.255,-0.957,0.06,-0.31,-3.88,2,0
17099.312,-0.158,-0.255,-0.961,-0.34,-0.43,-3.66,2,0
17099.328,-0.161,-0.254,-0.961,-0.52,-0.15,-3.63,2,0
17099.343,-0.164,-0.255,-0.961,-0.82,0.31,-3.66,2,0
17099.343,-0.165,-0.253,-0.96,-1.01,0.52,-3.88,2,0
17099.359,-0.162,-0.255,-0.959,-1.4,0.79,-4.09,2,0
17099.375,-0.162,-0.258,-0.958,-1.59,1.19,-4.3,2,0
17099.375,-0.164,-0.26,-0.955,-1.4,1.4,-4.24,2,0
17099.39,-0.167,-0.259,-0.955,-1.4,1.5,-4.18,2,0
17099.406,-0.164,-0.262,-0.955,-1.22,1.56,-4.15,2,0
17099.406,-0.162,-0.257,-0.959,-1.25,1.62,-3.97,2,0
17099.421,-0.156,-0.264,-0.959,-1.86,1.74,-4.09,2,0
17099.437,-0.156,-0.27,-0.957,-1.71,2.11,-4.09,2,0
17099.437,-0.154,-0.271,-0.957,-0.79,2.59,-4.09,2,0
17099.453,-0.156,-0.262,-0.96,-0.46,2.62,-4.39,2,0
17099.453,-0.151,-0.262,-0.96,-1.43,2.01,-5.28,2,0
17099.468,-0.147,-0.27,-0.964,-2.62,1.46,-6.71,2,0
17099.484,-0.143,-0.272,-0.97,-3.23,1.34,-8.45,2,0
17099.484,-0.145,-0.271,-0.973,-3.42,1.92,-10.28,2,0
17099.5,-0.148,-0.275,-0.976,-3.33,3.2,-11.87,2,0
17099.515,-0.146,-0.28,-0.978,-2.69,4.88,-13.55,2,0
17099.515,-0.145,-0.285,-0.975,-2.08,6.9,-15.41,2,0
17099.531,-0.142,-0.294,-0.965,-1.37,8.61,-17.03,2,0
17099.546,-0.138,-0.302,-0.962,-0.46,9.86,-18.89,2,0
17099.546,-0.133,-0.312,-0.954,0.7,10.59,-21.64,2,0
17099.562,-0.138,-0.316,-0.952,2.08,10.53,-25.03,2,0
17099.578,-0.147,-0.294,-0.955,1.65,9.8,-27.83,2,0
17099.578,-0.142,-0.269,-0.935,-1.1,8.79,-28.69,2,0
17099.593,-0.149,-0.284,-0.948,-2.26,7.2,-29.27,2,0
17099.593,-0.136,-0.274,-0.957,-4.55,5.74,-28.6,2,0
17099.609,-0.131,-0.286,-0.95,-6.96,5.46,-28.84,2,0
17099.625,-0.136,-0.293,-0.946,-6.84,5.8,-29.08,2,0
17099.625,-0.133,-0.28,-0.961,-5.65,6.53,-28.17,2,0
17099.64,-0.127,-0.271,-0.965,-4.73,7.57,-27.16,2,0
17099.656,-0.132,-0.27,-0.957,-4.24,8.36,-26.46,2,0
17099.656,-0.123,-0.273,-0.967,-3.51,8.97,-25.42,2,0
17099.671,-0.125,-0.254,-0.961,-3.2,9.31,-24.84,2,0
17099.671,-0.113,-0.245,-0.957,-5.55,8.12,-21.79,2,0
17099.687,-0.125,-0.253,-0.958,-5.55,7.11,-19.17,2,0
17099.703,-0.108,-0.267,-0.945,-4.3,5.74,-17.43,2,0
17099.703,-0.115,-0.263,-0.948,-3.39,4.43,-14.65,2,0
17099.718,-0.125,-0.253,-0.957,-3.36,3.3,-13.43,2,0
17099.734,-0.112,-0.266,-0.956,-3.78,2.69,-11.41,2,0
17099.734,-0.107,-0.261,-0.966,-3.02,2.11,-11.08,2,0
17099.75,-0.098,-0.276,-0.971,-2.32,2.9,-9.67,2,0
17099.765,-0.079,-0.277,-0.972,-1.92,3.48,-9.34,2,0
17099.765,-0.088,-0.282,-0.975,-1.16,4.46,-9.25,2,0
17099.781,-0.072,-0.281,-0.971,-0.73,5.19,-8.51,2,0
17099.796,-0.083,-0.27,-0.967,-0.82,5.58,-8.45,2,0
17099.796,-0.069,-0.282,-0.959,-0.92,5.71,-7.6,2,0
17099.812,-0.085,-0.259,-0.966,-1.19,4.79,-8.97,2,0
17099.812,-0.094,-0.278,-0.962,-2.66,4.33,-9.61,2,0
17099.828,-0.089,-0.254,-0.963,-3.75,3.17,-11.78,2,0
17099.843,-0.104,-0.26,-0.961,-5.04,2.44,-13.49,2,0
17099.843,-0.091,-0.256,-0.965,-6.65,0.89,-15.29,2,0
17099.859,-0.101,-0.256,-0.963,-8.45,-0.49,-16.94,2,0
17099.875,-0.098,-0.249,-0.96,-10.07,-2.38,-18.22,2,0
17099.875,-0.097,-0.254,-0.96,-10.93,-3.97,-18.98,2,0
17099.89,-0.113,-0.252,-0.963,-11.41,-5.62,-19.84,2,0
17099.906,-0.1,-0.245,-0.968,-11.69,-7.14,-19.68,2,0
17099.906,-0.119,-0.242,-0.976,-11.26,-8.0,-20.26,2,0
17099.921,-0.114,-0.239,-0.981,-11.02,-8.48,-20.08,2,0
17099.921,-0.107,-0.22,-0.99,-11.23,-8.64,-20.51,2,0
17099.937,-0.115,-0.219,-0.989,-13.09,-8.91,-21.58,2,0
17099.953,-0.107,-0.212,-0.987,-15.11,-9.86,-22.83,2,0
17099.968,-0.108,-0.203,-0.98,-17.21,-11.14,-24.54,2,0
17099.968,-0.112,-0.223,-0.971,-18.68,-12.3,-25.27,2,0
17099.984,-0.112,-0.236,-0.965,-17.91,-13.0,-24.63,2,0
17100.0,-0.112,-0.244,-0.972,-10.93,-12.6,-18.59,2,0
17100.015,-0.116,-0.229,-0.982,-8.06,-11.35,-15.56,2,0
17100.015,-0.107,-0.22,-0.995,-6.1,-9.58,-12.6,2,0
17100.031,-0.105,-0.214,-0.994,-6.59,-7.93,-11.32,2,0
17100.046,-0.101,-0.231,-0.977,-7.87,-7.05,-11.6,2,0
17100.046,-0.083,-0.251,-0.968,-7.29,-6.59,-12.94,2,0
17100.062,-0.098,-0.23,-0.964,-6.59,-6.53,-15.23,2,0
17100.062,-0.101,-0.243,-0.95,-7.23,-6.93,-16.02,2,0
17100.078,-0.103,-0.246,-0.94,-7.11,-8.06,-16.97,2,0
17100.093,-0.115,-0.23,-0.945,-6.71,-9.58,-17.7,2,0
17100.093,-0.117,-0.237,-0.945,-7.75,-11.47,-17.94,2,0
17100.109,-0.121,-0.245,-0.943,-8.61,-13.09,-17.76,2,0
17100.125,-0.123,-0.236,-0.939,-7.97,-13.64,-16.57,2,0
17100.125,-0.12,-0.236,-0.938,-5.86,-13.79,-15.23,2,0
17100.14,-0.113,-0.223,-0.974,-5.4,-13.21,-13.98,2,0
17100.156,-0.109,-0.23,-0.99,-5.19,-10.07,-13.67,2,0
17100.156,-0.117,-0.24,-0.986,-4.79,-6.13,-14.53,2,0
17100.171,-0.118,-0.236,-0.981,-3.63,-2.87,-15.87,2,0
17100.171,-0.123,-0.212,-0.978,-1.89,-0.46,-16.69,2,0
17100.187,-0.126,-0.185,-0.97,-1.89,1.1,-15.93,2,0
17100.203,-0.121,-0.185,-0.961,-3.33,0.85,-14.16,2,0
17100.203,-0.112,-0.199,-0.953,-4.06,-0.06,-11.72,2,0
17100.218,-0.12,-0.209,-0.966,-2.5,0.27,-9.7,2,0
17100.234,-0.12,-0.194,-0.964,-1.65,1.56,-7.35,2,0
17100.234,-0.126,-0.198,-0.966,-0.64,2.47,-5.1,2,0
17100.25,-0.13,-0.208,-0.97,-0.21,2.78,-3.45,2,0
17100.265,-0.121,-0.22,-0.961,1.8,3.14,-2.29,2,0
17100.265,-0.119,-0.225,-0.97,4.49,3.48,-1.77,2,0
17100.281,-0.12,-0.228,-0.987,5.86,3.94,-1.92,2,0
17100.296,-0.12,-0.233,-0.995,6.78,5.22,-3.08,2,0
17100.296,-0.126,-0.241,-1.0,7.45,6.13,-5.07,2,0
17100.312,-0.131,-0.24,-1.032,7.63,7.11,-7.63,2,0
17100.312,-0.143,-0.229,-1.06,5.65,8.67,-9.89,2,0
17100.328,-0.147,-0.234,-1.036,3.36,9.8,-10.93,2,0
17100.343,-0.167,-0.249,-1.004,3.66,7.63,-10.5,2,0
17100.343,-0.188,-0.239,-0.998,4.7,1.86,-8.48,2,0
17100.359,-0.207,-0.231,-1.002,4.85,-6.5,-5.95,2,0
17100.375,-0.231,-0.227,-1.034,3.48,-16.72,-3.72,2,0
17100.375,-0.242,-0.22,-1.086,0.64,-26.8,-2.04,2,0
17100.39,-0.243,-0.215,-1.14,-3.57,-35.43,-1.16,2,0
17100.406,-0.233,-0.213,-1.18,-7.9,-41.6,-0.95,2,0
17100.406,-0.219,-0.234,-1.225,-9.92,-45.14,-0.82,2,0
17100.421,-0.203,-0.245,-1.266,-8.94,-45.08,-0.03,2,0
17100.437,-0.192,-0.238,-1.282,-6.9,-41.66,1.77,2,0
17100.437,-0.174,-0.261,-1.276,-4.55,-34.64,5.62,2,0
17100.453,-0.183,-0.236,-1.251,-1.65,-28.29,6.9,2,0
17100.453,-0.19,-0.25,-1.201,0.34,-21.73,9.06,2,0
17100.468,-0.203,-0.255,-1.137,1.19,-18.04,9.43,2,0
17100.484,-0.214,-0.252,-1.076,2.17,-16.45,9.25,2,0
17100.484,-0.234,-0.24,-1.03,1.53,-17.24,8.36,2,0
17100.5,-0.247,-0.235,-0.986,-0.61,-20.29,6.84,2,0
17100.515,-0.25,-0.251,-0.959,-1.8,-24.75,5.49,2,0
17100.515,-0.24,-0.249,-0.938,-2.11,-28.87,3.97,2,0
17100.531,-0.232,-0.254,-0.915,-1.62,-32.29,2.84,2,0
17100.546,-0.214,-0.286,-0.915,0.82,-34.67,4.0,2,0
17100.546,-0.219,-0.293,-0.922,6.93,-33.94,6.35,2,0
17100.562,-0.207,-0.303,-0.912,13.7,-30.95,12.3,2,0
17100.562,-0.192,-0.303,-0.895,19.47,-27.71,17.3,2,0
17100.578,-0.195,-0.314,-0.88,25.76,-24.51,19.71,2,0
17100.593,-0.22,-0.284,-0.854,31.43,-22.74,21.0,2,0
17100.593,-0.214,-0.255,-0.844,35.77,-22.13,22.71,2,0
17100.609,-0.232,-0.264,-0.825,36.68,-22.1,24.05,2,0
17100.625,-0.207,-0.267,-0.79,36.96,-22.8,25.24,2,0
17100.625,-0.211,-0.252,-0.778,39.8,-23.68,26.4,2,0
17100.64,-0.17,-0.224,-0.778,40.99,-24.72,29.63,2,0
17100.656,-0.156,-0.186,-0.781,38.51,-25.42,30.18,2,0
17100.656,-0.15,-0.187,-0.769,28.26,-26.43,25.91,2,0
17100.671,-0.174,-0.173,-0.755,25.24,-26.76,24.38,2,0
17100.671,-0.202,-0.168,-0.751,21.52,-27.28,25.42,2,0
17100.687,-0.224,-0.164,-0.753,17.49,-27.5,28.78,2,0
17100.703,-0.212,-0.195,-0.765,16.42,-27.53,32.56,2,0
17100.703,-0.207,-0.206,-0.778,18.34,-27.34,37.11,2,0
17100.718,-0.212,-0.185,-0.812,20.84,-26.52,41.44,2,0
17100.734,-0.227,-0.198,-0.857,18.86,-26.06,44.53,2,0
17100.75,-0.226,-0.235,-0.874,14.37,-25.57,45.44,2,0
17100.75,-0.25,-0.253,-0.894,12.21,-23.68,44.07,2,0
17100.765,-0.245,-0.256,-0.914,10.93,-21.24,43.64,2,0
17100.765,-0.243,-0.257,-0.922,8.27,-18.95,42.24,2,0
17100.781,-0.251,-0.286,-0.907,4.67,-17.58,40.04,2,0
17100.796,-0.265,-0.303,-0.902,4.18,-16.88,37.45,2,0
17100.796,-0.294,-0.312,-0.905,5.71,-15.84,36.53,2,0
17100.812,-0.308,-0.32,-0.904,7.75,-14.53,36.99,2,0
17100.812,-0.325,-0.315,-0.894,9.95,-12.88,37.75,2,0
17100.843,-0.294,-0.292,-0.876,9.8,-11.6,34.73,2,0
17100.843,-0.265,-0.302,-0.897,13.15,-11.05,33.51,2,0
17100.859,-0.237,-0.264,-0.897,10.41,-11.29,30.52,2,0
17100.875,-0.222,-0.278,-0.894,6.2,-11.84,27.28,2,0
17100.875,-0.222,-0.303,-0.892,3.91,-11.6,24.45,2,0
17100.89,-0.231,-0.307,-0.882,3.05,-10.56,21.52,2,0
17100.906,-0.249,-0.295,-0.872,1.28,-10.28,18.13,2,0
17100.906,-0.266,-0.296,-0.869,-1.31,-10.99,14.86,2,0
17100.921,-0.268,-0.328,-0.863,-2.5,-12.15,13.52,2,0
17100.921,-0.258,-0.334,-0.868,-1.13,-12.39,12.6,2,0
17100.937,-0.26,-0.325,-0.878,1.34,-11.41,10.71,2,0
17100.953,-0.272,-0.319,-0.883,2.11,-9.89,8.21,2,0
17100.953,-0.286,-0.317,-0.879,1.13,-9.06,5.43,2,0
17100.968,-0.297,-0.326,-0.874,0.15,-9.06,2.2,2,0
17100.984,-0.308,-0.328,-0.872,-0.4,-9.95,-1.22,2,0
17100.984,-0.315,-0.311,-0.883,-1.22,-11.99,-4.73,2,0
17101.015,-0.316,-0.289,-0.914,-3.94,-15.84,-9.16,2,0
17101.015,-0.329,-0.288,-0.924,-5.25,-16.51,-10.77,2,0
17101.031,-0.342,-0.298,-0.932,-5.55,-15.96,-12.12,2,0
17101.046,-0.357,-0.291,-0.94,-4.03,-14.13,-12.97,2,0
17101.046,-0.361,-0.271,-0.948,-2.96,-12.15,-13.7,2,0
17101.062,-0.358,-0.26,-0.936,-3.48,-10.53,-14.5,2,0
17101.062,-0.354,-0.252,-0.931,-4.36,-9.95,-14.86,2,0
17101.078,-0.345,-0.236,-0.921,-5.55,-9.8,-14.31,2,0
17101.093,-0.347,-0.226,-0.914,-6.32,-9.49,-13.61,2,0
17101.093,-0.355,-0.233,-0.902,-6.78,-8.97,-12.42,2,0
17101.109,-0.363,-0.234,-0.891,-6.41,-8.18,-10.65,2,0
17101.125,-0.372,-0.239,-0.889,-5.37,-7.23,-8.0,2,0
17101.125,-0.366,-0.243,-0.883,-4.3,-6.65,-3.94,2,0
17101.14,-0.351,-0.237,-0.883,-2.23,-5.92,0.67,2,0
17101.156,-0.34,-0.233,-0.886,0.21,-4.79,5.1,2,0
17101.156,-0.334,-0.234,-0.889,1.71,-3.75,8.82,2,0
17101.171,-0.335,-0.236,-0.892,2.5,-2.93,10.86,2,0
17101.187,-0.343,-0.241,-0.894,2.56,-2.41,11.41,2,0
17101.187,-0.351,-0.249,-0.892,1.89,-2.53,10.83,2,0
17101.203,-0.36,-0.253,-0.896,0.61,-3.17,9.64,2,0
17101.203,-0.368,-0.265,-0.897,-0.64,-3.97,8.55,2,0
17101.218,-0.374,-0.275,-0.898,-1.37,-4.91,8.36,2,0
17101.234,-0.373,-0.287,-0.898,-1.4,-5.49,8.79,2,0
17101.234,-0.371,-0.307,-0.905,-0.18,-4.76,9.28,2,0
17101.25,-0.369,-0.307,-0.908,1.8,-2.14,9.16,2,0
17101.265,-0.364,-0.297,-0.894,2.69,1.16,7.78,2,0
17101.265,-0.361,-0.291,-0.877,1.65,3.75,5.19,2,0
17101.281,-0.356,-0.289,-0.859,0.21,4.43,2.59,2,0
17101.296,-0.347,-0.282,-0.846,-1.28,3.23,0.82,2,0
17101.296,-0.338,-0.271,-0.84,-2.84,1.43,-0.34,2,0
17101.312,-0.339,-0.265,-0.841,-3.63,-0.43,-0.67,2,0
17101.312,-0.339,-0.262,-0.843,-3.91,-1.56,-0.31,2,0
17101.328,-0.343,-0.265,-0.843,-3.91,-1.77,0.52,2,0
17101.343,-0.35,-0.273,-0.847,-2.59,-1.28,1.86,2,0
17101.343,-0.357,-0.279,-0.852,-0.61,-0.49,3.02,2,0
17101.359,-0.362,-0.278,-0.859,0.37,-0.37,3.27,2,0
17101.375,-0.378,-0.267,-0.87,-0.03,-0.85,2.23,2,0
17101.375,-0.393,-0.266,-0.885,-1.46,-2.23,0.73,2,0
17101.39,-0.391,-0.272,-0.891,-2.66,-3.66,0.09,2,0
17101.406,-0.392,-0.275,-0.895,-2.5,-4.58,-0.18,2,0
17101.406,-0.395,-0.275,-0.897,-1.22,-4.97,-0.06,2,0
17101.421,-0.4,-0.262,-0.898,1.07,-5.01,0.52,2,0
17101.437,-0.398,-0.247,-0.903,2.66,-4.61,0.03,2,0
17101.437,-0.395,-0.24,-0.905,2.04,-4.24,-2.72,2,0
17101.453,-0.399,-0.221,-0.905,-1.56,-4.12,-8.18,2,0
17101.453,-0.41,-0.207,-0.895,-7.72,-5.22,-15.32,2,0
17101.468,-0.417,-0.194,-0.879,-14.53,-7.75,-22.19,2,0
17101.484,-0.41,-0.189,-0.863,-20.45,-11.66,-27.13,2,0
17101.484,-0.409,-0.187,-0.862,-24.9,-16.11,-31.01,2,0
17101.5,-0.421,-0.184,-0.876,-27.86,-20.17,-33.45,2,0
17101.515,-0.435,-0.175,-0.888,-30.4,-23.32,-34.21,2,0
17101.515,-0.438,-0.181,-0.903,-32.2,-24.78,-33.3,2,0
17101.531,-0.434,-0.192,-0.9,-31.8,-24.02,-30.21,2,0
17101.546,-0.417,-0.192,-0.896,-28.69,-21.61,-24.6,2,0
17101.546,-0.397,-0.193,-0.897,-23.41,-18.56,-17.12,2,0
17101.562,-0.378,-0.189,-0.906,-17.58,-15.63,-8.76,2,0
17101.578,-0.375,-0.176,-0.92,-13.46,-13.06,-0.55,2,0
17101.578,-0.385,-0.169,-0.924,-11.9,-11.17,5.95,2,0
17101.593,-0.389,-0.176,-0.923,-10.96,-9.43,11.41,2,0
17101.593,-0.396,-0.183,-0.915,-9.46,-7.54,16.24,2,0
17101.609,-0.41,-0.197,-0.907,-7.05,-5.71,21.12,2,0
17101.625,-0.415,-0.22,-0.904,-3.36,-4.21,26.73,2,0
17101.64,-0.414,-0.232,-0.906,1.01,-2.17,31.74,2,0
17101.64,-0.413,-0.249,-0.909,2.66,0.92,35.62,2,0
17101.656,-0.406,-0.269,-0.904,2.14,1.89,34.79,2,0
17101.656,-0.4,-0.305,-0.886,3.88,2.9,32.87,2,0
17101.671,-0.392,-0.289,-0.872,5.04,3.36,24.35,2,0
17101.687,-0.396,-0.286,-0.867,3.69,1.89,19.1,2,0
17101.703,-0.393,-0.282,-0.879,3.42,-0.43,13.43,2,0
17101.703,-0.397,-0.268,-0.896,2.17,-2.32,6.81,2,0
17101.718,-0.404,-0.247,-0.894,-1.19,-3.48,-1.07,2,0
17101.734,-0.416,-0.241,-0.895,-4.21,-3.42,-8.85,2,0
17101.734,-0.432,-0.207,-0.884,-7.66,-3.63,-17.79,2,0
17101.75,-0.451,-0.197,-0.877,-11.96,-4.52,-26.25,2,0
17101.765,-0.465,-0.178,-0.862,-17.55,-7.11,-33.3,2,0
17101.765,-0.467,-0.18,-0.848,-21.39,-9.86,-36.29,2,0
17101.781,-0.463,-0.168,-0.852,-21.97,-12.33,-35.49,2,0
17101.796,-0.454,-0.157,-0.861,-20.94,-13.58,-30.76,2,0
17101.796,-0.436,-0.166,-0.874,-18.65,-13.58,-23.38,2,0
17101.812,-0.417,-0.18,-0.893,-13.67,-11.63,-14.62,2,0
17101.812,-0.41,-0.173,-0.915,-7.32,-7.39,-5.07,2,0
17101.828,-0.404,-0.172,-0.923,-2.81,-2.53,4.79,2,0
17101.859,-0.393,-0.2,-0.911,4.15,5.37,20.66,2,0
17101.859,-0.386,-0.208,-0.908,7.35,7.69,26.55,2,0
17101.875,-0.375,-0.207,-0.905,9.13,9.46,31.22,2,0
17101.875,-0.367,-0.219,-0.907,9.77,10.86,35.49,2,0
17101.89,-0.359,-0.236,-0.914,11.44,12.54,39.58,2,0
17101.906,-0.366,-0.259,-0.915,15.2,15.26,43.76,2,0
17101.906,-0.376,-0.267,-0.91,19.32,19.53,47.55,2,0
17101.921,-0.391,-0.27,-0.892,22.71,24.14,49.59,2,0
17101.921,-0.408,-0.283,-0.867,25.42,27.28,50.26,2,0
17101.937,-0.414,-0.279,-0.852,27.59,28.2,50.17,2,0
17101.953,-0.414,-0.253,-0.855,28.26,26.83,48.28,2,0
17101.953,-0.413,-0.242,-0.859,26.06,23.99,44.56,2,0
17101.968,-0.415,-0.239,-0.859,22.49,20.48,39.49,2,0
17101.984,-0.418,-0.236,-0.866,19.2,17.06,33.57,2,0
17101.984,-0.419,-0.24,-0.884,16.45,14.34,27.31,2,0
17102.0,-0.416,-0.247,-0.892,13.67,12.82,21.06,2,0
17102.015,-0.417,-0.246,-0.908,10.22,12.18,14.22,2,0
17102.015,-0.418,-0.241,-0.909,7.32,12.42,7.26,2,0
17102.031,-0.404,-0.228,-0.906,4.27,11.41,1.19,2,0
17102.046,-0.403,-0.208,-0.911,-0.76,8.88,-4.46,2,0
17102.046,-0.407,-0.196,-0.91,-4.7,6.56,-8.33,2,0
17102.062,-0.403,-0.187,-0.914,-6.38,4.79,-9.95,2,0
17102.078,-0.398,-0.185,-0.916,-7.14,3.97,-10.04,2,0
17102.078,-0.397,-0.187,-0.916,-6.62,4.46,-8.91,2,0
17102.093,-0.403,-0.191,-0.913,-4.18,6.13,-6.01,2,0
17102.093,-0.405,-0.18,-0.913,-0.43,9.34,-2.29,2,0
17102.109,-0.417,-0.169,-0.905,1.19,12.05,0.43,2,0
17102.125,-0.427,-0.176,-0.882,0.18,13.21,1.62,2,0
17102.125,-0.43,-0.18,-0.864,-0.95,13.18,2.14,2,0
17102.14,-0.441,-0.177,-0.853,-2.35,12.51,2.2,2,0
17102.156,-0.461,-0.184,-0.84,-3.75,10.83,2.66,2,0
17102.156,-0.48,-0.183,-0.831,-3.48,8.94,4.88,2,0
17102.171,-0.491,-0.195,-0.828,-0.58,7.78,9.25,2,0
17102.187,-0.487,-0.219,-0.841,5.07,7.72,14.01,2,0
17102.187,-0.487,-0.207,-0.866,11.54,9.37,15.99,2,0
17102.203,-0.496,-0.201,-0.871,13.61,11.2,15.32,2,0
17102.218,-0.497,-0.222,-0.861,12.67,11.72,14.65,2,0
17102.218,-0.479,-0.24,-0.847,11.93,10.53,14.01,2,0
17102.234,-0.459,-0.266,-0.842,11.96,7.42,13.52,2,0
17102.234,-0.443,-0.271,-0.845,11.84,4.0,13.67,2,0
17102.25,-0.43,-0.274,-0.845,12.85,1.71,14.59,2,0
17102.265,-0.427,-0.288,-0.889,15.05,1.01,14.68,2,0
17102.265,-0.431,-0.266,-0.914,16.79,1.5,11.72,2,0
17102.281,-0.445,-0.236,-0.937,15.17,2.41,6.29,2,0
17102.296,-0.443,-0.225,-0.942,10.19,2.99,-0.34,2,0
17102.296,-0.446,-0.238,-0.931,5.16,1.92,-7.42,2,0
17102.312,-0.429,-0.246,-0.92,1.31,-1.34,-12.57,2,0
17102.312,-0.394,-0.24,-0.922,-0.31,-4.76,-15.23,2,0
17102.328,-0.363,-0.234,-0.931,-0.43,-6.9,-15.5,2,0
17102.343,-0.345,-0.235,-0.929,-0.09,-7.45,-14.07,2,0
17102.343,-0.337,-0.246,-0.922,2.11,-6.07,-12.42,2,0
17102.359,-0.349,-0.229,-0.92,5.1,-3.57,-11.99,2,0
17102.375,-0.378,-0.216,-0.911,5.43,-1.8,-12.82,2,0
17102.375,-0.393,-0.207,-0.891,3.69,-1.68,-14.62,2,0
17102.39,-0.399,-0.209,-0.879,1.34,-3.45,-16.02,2,0
17102.406,-0.382,-0.224,-0.875,-0.4,-7.02,-15.87,2,0
17102.406,-0.349,-0.234,-0.885,0.21,-10.68,-13.89,2,0
17102.421,-0.325,-0.236,-0.908,2.56,-12.09,-10.86,2,0
17102.421,-0.324,-0.23,-0.928,4.3,-11.44,-8.27,2,0
17102.437,-0.34,-0.228,-0.937,5.01,-9.43,-6.87,2,0
17102.453,-0.357,-0.217,-0.936,4.97,-7.05,-6.29,2,0
17102.453,-0.377,-0.203,-0.926,4.21,-5.22,-5.74,2,0
17102.468,-0.391,-0.201,-0.908,4.21,-4.39,-3.45,2,0
17102.484,-0.393,-0.196,-0.894,6.35,-4.58,1.37,2,0
17102.5,-0.398,-0.184,-0.89,9.37,-5.86,7.72,2,0
17102.5,-0.383,-0.206,-0.896,12.85,-7.54,14.89,2,0
17102.515,-0.362,-0.19,-0.914,18.13,-8.3,18.59,2,0
17102.515,-0.384,-0.153,-0.917,20.33,-8.33,16.75,2,0
17102.531,-0.404,-0.146,-0.909,14.47,-10.74,12.36,2,0
17102.546,-0.396,-0.18,-0.897,7.02,-14.07,8.42,2,0
17102.546,-0.396,-0.215,-0.871,1.53,-16.33,6.32,2,0
17102.562,-0.386,-0.275,-0.845,2.01,-16.94,8.45,2,0
17102.562,-0.348,-0.3,-0.838,7.05,-16.75,14.04,2,0
17102.578,-0.333,-0.286,-0.896,12.39,-14.62,17.06,2,0
17102.593,-0.33,-0.277,-0.928,14.65,-10.01,15.32,2,0
17102.593,-0.32,-0.254,-0.926,12.79,-6.13,10.44,2,0
17102.609,-0.321,-0.233,-0.916,8.06,-3.78,2.81,2,0
17102.625,-0.331,-0.238,-0.898,1.77,-3.36,-6.2,2,0
17102.625,-0.338,-0.256,-0.877,-6.5,-7.35,-18.68,2,0
17102.64,-0.341,-0.261,-0.863,-6.99,-9.37,-20.87,2,0
17102.656,-0.343,-0.264,-0.859,-5.8,-11.02,-20.94,2,0
17102.656,-0.353,-0.243,-0.867,-4.12,-11.99,-19.53,2,0
17102.671,-0.356,-0.237,-0.879,-2.9,-12.54,-17.73,2,0
17102.687,-0.359,-0.228,-0.889,-2.93,-12.45,-16.45,2,0
17102.687,-0.358,-0.216,-0.897,-2.93,-11.72,-16.57,2,0
17102.703,-0.36,-0.204,-0.902,-3.63,-10.35,-17.46,2,0
17102.703,-0.36,-0.212,-0.894,-5.62,-9.13,-18.25,2,0
17102.718,-0.366,-0.224,-0.884,-6.32,-7.93,-18.74,2,0
17102.734,-0.374,-0.222,-0.881,-5.49,-7.39,-18.98,2,0
17102.75,-0.384,-0.217,-0.884,-4.85,-7.54,-18.56,2,0
17102.75,-0.387,-0.209,-0.887,-5.07,-8.55,-17.37,2,0
17102.765,-0.388,-0.202,-0.9,-6.2,-9.74,-16.08,2,0
17102.765,-0.389,-0.218,-0.907,-7.42,-10.65,-14.1,2,0
17102.781,-0.376,-0.225,-0.917,-6.71,-10.59,-11.57,2,0
17102.796,-0.361,-0.228,-0.932,-4.3,-8.91,-8.79,2,0
17102.796,-0.352,-0.232,-0.935,-2.59,-6.2,-6.47,2,0
17102.812,-0.35,-0.23,-0.931,-1.31,-3.36,-4.61,2,0
17102.812,-0.352,-0.229,-0.922,-1.62,-1.16,-2.93,2,0
17102.828,-0.356,-0.241,-0.901,-2.69,-0.09,-1.71,2,0
17102.843,-0.364,-0.24,-0.893,-2.99,-0.43,-0.82,2,0
17102.843,-0.365,-0.244,-0.892,-3.2,-1.74,-0.37,2,0
17102.859,-0.368,-0.25,-0.893,-2.99,-3.14,-0.15,2,0
17102.875,-0.362,-0.247,-0.903,-3.57,-3.97,-0.12,2,0
17102.89,-0.358,-0.263,-0.917,-4.73,-3.88,-1.16,2,0
17102.89,-0.364,-0.288,-0.917,-4.43,-1.95,-1.74,2,0
17102.89,-0.359,-0.279,-0.908,-3.57,0.52,-1.28,2,0
17102.906,-0.355,-0.271,-0.899,-3.08,3.08,-1.5,2,0
17102.921,-0.356,-0.276,-0.91,-1.77,5.49,-2.23,2,0
17102.937,-0.347,-0.266,-0.911,-1.43,7.32,-3.36,2,0
17102.937,-0.35,-0.254,-0.9,-2.41,8.67,-4.82,2,0
17102.953,-0.36,-0.26,-0.883,-3.91,8.42,-5.68,2,0
17102.968,-0.367,-0.275,-0.868,-4.82,6.99,-5.49,2,0
17102.968,-0.375,-0.285,-0.876,-3.75,5.43,-5.22,2,0
17102.984,-0.379,-0.269,-0.889,-3.39,3.66,-5.83,2,0
17102.984,-0.379,-0.269,-0.9,-4.03,2.66,-6.56,2,0
17103.0,-0.375,-0.278,-0.902,-5.13,2.38,-7.51,2,0
17103.015,-0.381,-0.282,-0.897,-5.71,2.62,-9.22,2,0
17103.015,-0.394,-0.279,-0.89,-6.26,2.75,-10.83,2,0
17103.031,-0.401,-0.267,-0.882,-7.17,2.23,-12.24,2,0
17103.046,-0.404,-0.264,-0.877,-8.36,1.31,-13.55,2,0
17103.046,-0.405,-0.272,-0.879,-8.48,0.92,-14.16,2,0
17103.062,-0.401,-0.267,-0.881,-7.51,1.65,-14.04,2,0
17103.062,-0.395,-0.267,-0.886,-5.77,3.42,-13.31,2,0
17103.078,-0.391,-0.252,-0.886,-4.61,5.4,-12.3,2,0
17103.093,-0.393,-0.244,-0.88,-3.36,7.48,-10.5,2,0
17103.093,-0.397,-0.239,-0.865,-2.72,8.24,-8.39,2,0
17103.109,-0.399,-0.247,-0.848,-1.83,7.57,-5.52,2,0
17103.125,-0.401,-0.268,-0.837,0.21,6.13,-1.68,2,0
17103.125,-0.403,-0.264,-0.835,2.78,4.49,1.16,2,0
17103.14,-0.408,-0.252,-0.846,3.2,1.59,2.08,2,0
17103.156,-0.4,-0.251,-0.86,0.76,-1.86,1.43,2,0
17103.156,-0.391,-0.264,-0.876,-1.83,-4.49,-0.18,2,0
17103.171,-0.386,-0.274,-0.892,-3.11,-5.4,-2.23,2,0
17103.171,-0.385,-0.277,-0.901,-3.54,-5.1,-3.72,2,0
17103.187,-0.382,-0.278,-0.902,-3.27,-3.75,-4.49,2,0
17103.203,-0.386,-0.27,-0.906,-2.47,-2.44,-5.01,2,0
17103.203,-0.386,-0.258,-0.906,-1.98,-1.13,-5.4,2,0
17103.218,-0.388,-0.248,-0.9,-2.23,-0.27,-6.01,2,0
17103.234,-0.391,-0.242,-0.891,-2.11,-0.06,-6.35,2,0
17103.25,-0.393,-0.231,-0.887,-2.41,-0.49,-5.89,2,0
17103.25,-0.392,-0.242,-0.878,-2.93,-1.19,-3.85,2,0
17103.265,-0.39,-0.255,-0.871,-1.8,-1.28,-1.34,2,0
17103.265,-0.389,-0.25,-0.873,0.12,-1.16,-0.09,2,0
17103.281,-0.39,-0.245,-0.874,0.79,-1.1,0.58,2,0
17103.296,-0.39,-0.25,-0.87,0.89,-0.82,1.1,2,0
17103.296,-0.389,-0.259,-0.87,0.89,-1.04,1.25,2,0
17103.312,-0.39,-0.254,-0.873,0.61,-1.77,0.73,2,0
17103.312,-0.388,-0.244,-0.876,-0.24,-2.66,-0.03,2,0
17103.328,-0.385,-0.246,-0.879,-1.59,-3.48,-0.52,2,0
17103.343,-0.387,-0.249,-0.878,-2.11,-4.03,-1.04,2,0
17103.343,-0.388,-0.253,-0.88,-1.56,-4.36,-1.5,2,0
17103.359,-0.388,-0.245,-0.88,-0.92,-4.12,-1.65,2,0
17103.375,-0.393,-0.241,-0.882,-0.61,-3.81,-1.68,2,0
17103.375,-0.395,-0.242,-0.882,-0.34,-3.88,-1.46,2,0
17103.39,-0.391,-0.242,-0.883,-0.21,-4.24,-0.64,2,0
17103.406,-0.386,-0.244,-0.882,0.67,-4.61,0.31,2,0
17103.406,-0.384,-0.243,-0.889,2.04,-4.7,1.53,2,0
17103.421,-0.38,-0.241,-0.899,2.99,-4.43,2.47,2,0
17103.421,-0.373,-0.242,-0.912,3.17,-3.57,2.53,2,0
17103.437,-0.368,-0.243,-0.923,2.78,-2.26,1.56,2,0
17103.453,-0.362,-0.246,-0.922,1.77,-0.64,-0.09,2,0
17103.468,-0.359,-0.25,-0.918,0.76,0.64,-1.65,2,0
17103.468,-0.36,-0.257,-0.917,0.37,1.5,-2.17,2,0
17103.484,-0.361,-0.263,-0.918,0.95,2.04,-1.53,2,0
17103.484,-0.365,-0.263,-0.917,1.95,2.32,-0.43,2,0
17103.5,-0.367,-0.26,-0.917,2.96,2.35,0.18,2,0
17103.515,-0.372,-0.256,-0.921,2.69,2.29,-0.52,2,0
17103.515,-0.376,-0.251,-0.915,0.79,2.41,-2.56,2,0
17103.531,-0.386,-0.252,-0.903,-1.53,2.47,-5.01,2,0
17103.546,-0.398,-0.262,-0.887,-2.62,2.04,-6.47,2,0
17103.546,-0.405,-0.265,-0.875,-2.14,0.95,-6.93,2,0
17103.562,-0.403,-0.265,-0.865,-0.89,-0.4,-6.96,2,0
17103.562,-0.416,-0.254,-0.878,0.64,-1.59,-6.68,2,0
17103.578,-0.404,-0.234,-0.874,0.92,-2.08,-5.58,2,0
17103.593,-0.405,-0.238,-0.89,0.7,-2.17,-5.04,2,0
17103.593,-0.398,-0.221,-0.882,-0.09,-1.37,-4.21,2,0
17103.609,-0.401,-0.208,-0.877,0.15,1.62,-1.77,2,0
17103.625,-0.405,-0.214,-0.872,0.46,2.14,0.95,2,0
17103.625,-0.4,-0.22,-0.855,2.11,2.11,2.69,2,0
17103.64,-0.403,-0.23,-0.846,2.9,1.31,3.54,2,0
17103.656,-0.405,-0.227,-0.85,2.08,-0.46,4.03,2,0
17103.656,-0.4,-0.233,-0.853,0.79,-2.35,4.85,2,0
17103.671,-0.39,-0.238,-0.864,0.18,-3.94,5.58,2,0
17103.687,-0.387,-0.254,-0.867,0.18,-4.36,6.23,2,0
17103.687,-0.384,-0.253,-0.869,0.76,-4.21,5.83,2,0
17103.703,-0.386,-0.244,-0.877,0.43,-4.18,4.91,2,0
17103.703,-0.386,-0.243,-0.881,-0.95,-4.33,3.39,2,0
17103.718,-0.392,-0.242,-0.879,-2.17,-4.67,1.31,2,0
17103.734,-0.398,-0.238,-0.881,-3.42,-5.8,-0.27,2,0
17103.734,-0.396,-0.233,-0.89,-4.39,-7.08,-0.76,2,0
17103.75,-0.388,-0.227,-0.897,-5.19,-7.75,0.09,2,0
17103.765,-0.381,-0.232,-0.897,-4.67,-7.32,1.65,2,0
17103.765,-0.38,-0.24,-0.905,-3.33,-6.29,3.66,2,0
17103.781,-0.377,-0.235,-0.902,-1.86,-5.19,5.16,2,0
17103.781,-0.383,-0.235,-0.905,-0.85,-4.3,5.77,2,0
17103.796,-0.378,-0.244,-0.906,-0.98,-4.0,6.1,2,0
17103.812,-0.376,-0.25,-0.904,-1.8,-3.75,5.65,2,0
17103.812,-0.372,-0.251,-0.905,-2.2,-3.45,4.7,2,0
17103.828,-0.37,-0.253,-0.9,-2.69,-3.23,3.88,2,0
17103.843,-0.37,-0.255,-0.897,-2.62,-3.17,3.63,2,0
17103.843,-0.371,-0.25,-0.895,-1.68,-2.81,3.69,2,0
17103.859,-0.374,-0.25,-0.895,-1.5,-2.87,3.27,2,0
17103.875,-0.379,-0.252,-0.898,-2.29,-3.45,2.08,2,0
17103.875,-0.382,-0.248,-0.901,-3.33,-3.85,0.31,2,0
17103.89,-0.382,-0.247,-0.904,-4.97,-3.72,-1.31,2,0
17103.906,-0.383,-0.248,-0.897,-6.13,-3.45,-2.44,2,0
17103.906,-0.387,-0.254,-0.888,-6.23,-3.27,-2.78,2,0
17103.921,-0.393,-0.26,-0.88,-5.13,-3.3,-2.38,2,0
17103.921,-0.397,-0.259,-0.88,-3.2,-3.11,-1.19,2,0
17103.937,-0.398,-0.256,-0.886,-2.32,-3.42,-0.52,2,0
17103.953,-0.395,-0.261,-0.886,-2.84,-3.91,-0.98,2,0
17103.953,-0.398,-0.264,-0.887,-3.39,-4.09,-2.38,2,0
17103.968,-0.395,-0.254,-0.89,-4.12,-4.06,-4.09,2,0
17103.984,-0.397,-0.25,-0.885,-5.52,-4.09,-5.71,2,0
17104.0,-0.405,-0.256,-0.878,-6.2,-4.49,-6.56,2,0
17104.0,-0.408,-0.252,-0.874,-5.58,-4.94,-6.01,2,0
17104.015,-0.409,-0.25,-0.87,-4.12,-5.46,-4.36,2,0
17104.015,-0.416,-0.246,-0.874,-2.41,-5.98,-2.62,2,0
17104.031,-0.417,-0.24,-0.882,-1.53,-6.56,-0.85,2,0
17104.046,-0.416,-0.238,-0.89,-1.19,-6.87,0.18,2,0
17104.046,-0.414,-0.237,-0.896,-1.46,-6.53,-0.09,2,0
17104.062,-0.416,-0.242,-0.903,-2.2,-6.04,-0.82,2,0
17104.078,-0.413,-0.247,-0.909,-2.96,-5.46,-1.74,2,0
17104.078,-0.407,-0.257,-0.903,-4.0,-4.46,-2.75,2,0
17104.093,-0.409,-0.27,-0.898,-3.75,-3.63,-3.51,2,0
17104.093,-0.404,-0.264,-0.895,-2.17,-2.78,-2.96,2,0
17104.109,-0.398,-0.252,-0.892,-1.01,-1.95,-1.95,2,0
17104.125,-0.395,-0.251,-0.885,-0.27,-1.4,-0.58,2,0
17104.125,-0.393,-0.248,-0.881,1.34,-0.82,1.28,2,0
17104.14,-0.384,-0.234,-0.883,2.75,-0.46,2.78,2,0
17104.156,-0.386,-0.227,-0.883,2.93,-0.31,3.3,2,0
17104.156,-0.373,-0.23,-0.88,2.53,-0.37,3.51,2,0
17104.171,-0.382,-0.223,-0.881,2.2,-0.27,2.66,2,0
17104.171,-0.385,-0.227,-0.88,1.22,-0.24,2.41,2,0
17104.187,-0.39,-0.239,-0.88,0.79,-0.52,3.02,2,0
17104.203,-0.39,-0.251,-0.882,1.65,-0.89,4.27,2,0
17104.203,-0.381,-0.253,-0.891,3.33,-1.01,5.28,2,0
17104.218,-0.372,-0.249,-0.908,4.43,-0.34,5.19,2,0
17104.234,-0.372,-0.243,-0.915,4.27,1.34,4.12,2,0
17104.234,-0.37,-0.238,-0.918,3.88,3.54,2.11,2,0
17104.25,-0.375,-0.23,-0.919,2.9,6.13,-1.13,2,0
17104.265,-0.38,-0.224,-0.907,1.25,8.27,-3.78,2,0
17104.265,-0.379,-0.221,-0.883,0.46,9.31,-5.13,2,0
17104.281,-0.384,-0.219,-0.87,0.55,8.85,-4.67,2,0
17104.296,-0.385,-0.222,-0.864,0.89,7.23,-3.33,2,0
17104.296,-0.386,-0.224,-0.866,1.16,5.07,-2.17,2,0
17104.312,-0.386,-0.22,-0.877,0.98,3.3,-1.34,2,0
17104.312,-0.384,-0.22,-0.886,-0.03,2.04,-1.13,2,0
17104.328,-0.384,-0.227,-0.891,-1.4,1.31,-1.71,2,0
17104.343,-0.384,-0.231,-0.895,-2.2,1.16,-2.96,2,0
17104.343,-0.388,-0.227,-0.895,-2.35,1.56,-4.06,2,0
17104.359,-0.393,-0.228,-0.891,-2.87,2.26,-4.06,2,0
17104.375,-0.392,-0.226,-0.881,-2.87,2.69,-3.6,2,0
17104.375,-0.401,-0.223,-0.876,-2.04,2.5,-3.02,2,0
17104.39,-0.406,-0.216,-0.875,-1.46,1.68,-2.08,2,0
17104.406,-0.408,-0.212,-0.872,-1.83,0.61,-1.56,2,0
17104.406,-0.407,-0.218,-0.871,-2.56,-0.82,-1.13,2,0
17104.421,-0.408,-0.224,-0.874,-2.53,-1.77,-0.52,2,0
17104.437,-0.405,-0.226,-0.88,-2.01,-2.41,0.37,2,0
17104.437,-0.4,-0.227,-0.891,-1.28,-2.53,1.53,2,0
17104.453,-0.395,-0.23,-0.903,-0.4,-1.8,2.38,2,0
17104.453,-0.396,-0.233,-0.905,0.0,-0.58,2.72,2,0
17104.468,-0.397,-0.233,-0.903,-0.15,0.27,2.11,2,0
17104.484,-0.397,-0.23,-0.901,-0.61,0.49,0.89,2,0
17104.484,-0.397,-0.229,-0.897,-1.62,0.06,-0.64,2,0
17104.5,-0.396,-0.228,-0.896,-2.53,-0.58,-2.14,2,0
17104.515,-0.395,-0.218,-0.9,-3.3,-1.46,-3.14,2,0
17104.531,-0.39,-0.22,-0.906,-4.03,-1.8,-3.27,2,0
17104.531,-0.39,-0.231,-0.906,-3.91,-0.82,-1.83,2,0
17104.531,-0.387,-0.24,-0.901,-2.41,0.98,0.67,2,0
17104.546,-0.387,-0.246,-0.901,0.15,2.87,3.02,2,0
17104.562,-0.388,-0.245,-0.905,1.8,4.0,4.46,2,0
17104.562,-0.38,-0.247,-0.903,1.83,4.09,4.82,2,0
17104.578,-0.375,-0.252,-0.902,1.4,3.57,4.0,2,0
17104.593,-0.374,-0.252,-0.906,0.64,3.17,2.53,2,0
17104.593,-0.37,-0.251,-0.906,-0.7,2.9,0.46,2,0
17104.609,-0.368,-0.249,-0.895,-1.13,2.81,-0.24,2,0
17104.625,-0.371,-0.252,-0.887,-0.79,2.56,-0.58,2,0
17104.625,-0.375,-0.25,-0.87,-0.7,2.17,-0.85,2,0
17104.64,-0.376,-0.254,-0.865,-0.34,1.5,-1.16,2,0
17104.656,-0.377,-0.256,-0.865,0.24,1.31,-1.59,2,0
17104.656,-0.38,-0.247,-0.859,0.43,1.16,-2.66,2,0
17104.671,-0.385,-0.237,-0.853,-0.21,0.31,-4.24,2,0
17104.671,-0.393,-0.235,-0.854,-1.22,-1.1,-5.62,2,0
17104.687,-0.392,-0.23,-0.859,-2.2,-2.69,-7.05,2,0
17104.703,-0.399,-0.226,-0.867,-3.11,-4.0,-8.51,2,0
17104.703,-0.405,-0.23,-0.869,-4.09,-4.7,-9.52,2,0
17104.718,-0.407,-0.228,-0.872,-4.24,-5.07,-9.8,2,0
17104.734,-0.413,-0.224,-0.873,-3.54,-4.97,-9.7,2,0
17104.75,-0.42,-0.22,-0.869,-3.08,-4.7,-8.61,2,0
17104.75,-0.422,-0.216,-0.865,-2.32,-4.85,-6.44,2,0
17104.765,-0.423,-0.21,-0.869,-1.16,-5.28,-4.21,2,0
17104.765,-0.426,-0.206,-0.878,-0.61,-6.13,-2.29,2,0
17104.781,-0.421,-0.208,-0.887,-0.46,-7.2,-0.34,2,0
17104.796,-0.41,-0.208,-0.904,0.37,-7.84,1.74,2,0
17104.796,-0.399,-0.207,-0.918,0.98,-7.26,3.36,2,0
17104.812,-0.391,-0.206,-0.925,0.79,-5.92,4.79,2,0
17104.828,-0.383,-0.203,-0.923,0.24,-4.3,5.74,2,0
17104.828,-0.382,-0.208,-0.916,-0.55,-2.59,6.38,2,0
17104.843,-0.384,-0.221,-0.899,-0.85,-1.31,6.93,2,0
17104.843,-0.389,-0.228,-0.891,-0.64,-1.37,7.54,2,0
17104.859,-0.391,-0.239,-0.892,-0.18,-2.01,8.7,2,0
17104.875,-0.386,-0.25,-0.896,0.58,-2.99,9.86,2,0
17104.875,-0.382,-0.253,-0.904,1.34,-3.69,10.41,2,0
17104.89,-0.378,-0.261,-0.916,2.2,-3.75,10.28,2,0
17104.906,-0.367,-0.258,-0.929,3.14,-2.81,9.64,2,0
17104.906,-0.355,-0.243,-0.943,3.11,-1.16,7.05,2,0
17104.921,-0.359,-0.238,-0.941,0.95,0.89,3.05,2,0
17104.921,-0.365,-0.245,-0.919,-1.83,2.84,-0.89,2,0
17104.937,-0.379,-0.248,-0.9,-2.75,3.81,-3.63,2,0
17104.953,-0.384,-0.248,-0.884,-2.44,3.63,-4.52,2,0
17104.968,-0.384,-0.25,-0.88,-1.68,2.72,-3.97,2,0
17104.968,-0.378,-0.25,-0.885,-0.46,1.83,-3.14,2,0
17104.984,-0.374,-0.241,-0.898,0.03,1.16,-2.81,2,0
17104.984,-0.371,-0.234,-0.903,-0.49,1.01,-3.48,2,0
17105.0,-0.371,-0.236,-0.9,-1.43,1.16,-5.01,2,0
17105.015,-0.378,-0.236,-0.897,-2.56,1.25,-6.93,2,0
17105.015,-0.384,-0.233,-0.893,-3.6,1.37,-8.21,2,0
17105.031,-0.39,-0.236,-0.881,-4.09,1.31,-8.82,2,0
17105.046,-0.403,-0.248,-0.87,-3.33,1.1,-8.58,2,0
17105.046,-0.402,-0.24,-0.87,-2.01,0.67,-8.0,2,0
17105.062,-0.4,-0.225,-0.867,-1.89,0.12,-8.15,2,0
17105.062,-0.405,-0.229,-0.862,-2.69,-0.58,-8.7,2,0
17105.078,-0.408,-0.22,-0.858,-3.3,-1.92,-9.16,2,0
17105.093,-0.408,-0.211,-0.861,-4.03,-3.66,-8.91,2,0
17105.093,-0.404,-0.223,-0.864,-3.91,-5.13,-7.29,2,0
17105.109,-0.394,-0.226,-0.875,-2.35,-5.71,-5.34,2,0
17105.125,-0.387,-0.215,-0.894,-0.82,-5.52,-3.78,2,0
17105.125,-0.38,-0.214,-0.905,-0.89,-4.46,-2.84,2,0
17105.14,-0.375,-0.215,-0.903,-1.53,-3.2,-2.26,2,0
17105.156,-0.374,-0.214,-0.892,-2.01,-2.5,-2.35,2,0
17105.156,-0.374,-0.213,-0.889,-2.14,-2.72,-2.2,2,0
17105.171,-0.373,-0.217,-0.893,-2.26,-3.39,-1.13,2,0
17105.187,-0.365,-0.223,-0.901,-2.08,-3.78,-0.03,2,0
17105.187,-0.364,-0.229,-0.904,-1.5,-3.66,0.7,2,0
17105.203,-0.36,-0.238,-0.908,-0.79,-2.9,1.46,2,0
17105.203,-0.356,-0.233,-0.912,0.0,-1.59,1.59,2,0
17105.218,-0.362,-0.227,-0.903,-0.27,-0.37,0.79,2,0
17105.234,-0.37,-0.225,-0.887,-1.28,0.15,-0.4,2,0
17105.234,-0.374,-0.22,-0.88,-1.8,-0.31,-1.46,2,0
17105.25,-0.38,-0.214,-0.886,-1.77,-1.25,-2.35,2,0
17105.265,-0.382,-0.212,-0.89,-2.26,-2.11,-2.47,2,0
17105.265,-0.384,-0.22,-0.892,-2.53,-2.96,-1.89,2,0
17105.281,-0.384,-0.218,-0.906,-1.86,-3.27,-1.5,2,0
17105.281,-0.379,-0.207,-0.922,-1.68,-2.9,-1.37,2,0
17105.296,-0.378,-0.21,-0.928,-2.56,-1.77,-1.31,2,0
17105.312,-0.376,-0.215,-0.924,-2.69,-0.49,-1.68,2,0
17105.328,-0.376,-0.215,-0.923,-2.04,0.73,-2.11,2,0
17105.328,-0.384,-0.21,-0.92,-2.23,1.43,-2.47,2,0
17105.343,-0.386,-0.207,-0.912,-3.23,1.53,-2.75,2,0
17105.343,-0.387,-0.214,-0.899,-4.46,1.07,-2.81,2,0
17105.359,-0.385,-0.218,-0.893,-4.49,0.21,-2.69,2,0
17105.375,-0.387,-0.214,-0.897,-3.97,-0.73,-2.32,2,0
17105.375,-0.381,-0.217,-0.903,-3.85,-1.16,-1.71,2,0
17105.39,-0.377,-0.222,-0.904,-3.57,-0.79,-1.28,2,0
17105.406,-0.377,-0.225,-0.906,-3.23,0.24,-1.43,2,0
17105.406,-0.378,-0.225,-0.903,-3.2,1.19,-1.86,2,0
17105.421,-0.375,-0.221,-0.901,-3.81,1.62,-2.59,2,0
17105.437,-0.381,-0.221,-0.899,-4.82,2.11,-4.03,2,0
17105.437,-0.387,-0.229,-0.894,-5.46,2.47,-4.61,2,0
17105.453,-0.387,-0.231,-0.889,-4.97,2.84,-4.06,2,0
17105.453,-0.388,-0.225,-0.892,-3.75,3.2,-3.69,2,0
17105.468,-0.394,-0.229,-0.897,-2.72,3.63,-2.69,2,0
17105.484,-0.393,-0.224,-0.891,-2.14,3.85,-1.59,2,0
17105.5,-0.391,-0.223,-0.886,-1.71,3.97,-1.22,2,0
17105.5,-0.395,-0.216,-0.885,-1.74,3.51,-1.4,2,0
17105.515,-0.396,-0.21,-0.885,-2.29,2.81,-1.37,2,0
17105.515,-0.397,-0.209,-0.884,-3.14,1.68,-1.37,2,0
17105.531,-0.392,-0.219,-0.89,-3.42,0.58,-1.68,2,0
17105.546,-0.397,-0.222,-0.896,-3.51,-0.09,-2.01,2,0
17105.546,-0.393,-0.235,-0.891,-3.14,0.0,-1.34,2,0
17105.562,-0.402,-0.24,-0.89,-1.98,0.37,-0.85,2,0
17105.578,-0.397,-0.238,-0.891,-0.79,0.85,-0.43,2,0
17105.578,-0.394,-0.218,-0.893,-2.08,0.21,-1.71,2,0
17105.593,-0.392,-0.217,-0.884,-2.29,-0.34,-2.29,2,0
17105.593,-0.394,-0.221,-0.882,-1.62,-0.98,-2.23,2,0
17105.609,-0.396,-0.213,-0.892,-1.5,-1.37,-1.62,2,0
17105.625,-0.392,-0.22,-0.895,-1.04,-1.65,-0.61,2,0
17105.625,-0.389,-0.221,-0.9,0.18,-1.62,0.7,2,0
17105.64,-0.384,-0.217,-0.904,0.95,-1.22,1.74,2,0
17105.656,-0.38,-0.22,-0.905,0.98,-1.1,1.86,2,0
17105.656,-0.377,-0.218,-0.908,0.64,-0.95,1.46,2,0
17105.671,-0.375,-0.213,-0.907,-0.06,-0.73,0.7,2,0
17105.671,-0.377,-0.212,-0.9,-0.58,-0.7,0.18,2,0
17105.687,-0.377,-0.213,-0.893,-0.61,-1.04,0.49,2,0
17105.703,-0.38,-0.217,-0.89,0.03,-1.28,1.62,2,0
17105.703,-0.378,-0.227,-0.89,0.95,-1.4,3.02,2,0
17105.718,-0.376,-0.227,-0.893,1.74,-1.43,3.69,2,0
17105.734,-0.377,-0.221,-0.896,1.53,-1.68,3.08,2,0
17105.734,-0.377,-0.216,-0.9,0.34,-2.08,1.56,2,0
17105.75,-0.376,-0.216,-0.901,-0.79,-2.56,-0.09,2,0
17105.765,-0.378,-0.22,-0.902,-1.22,-2.81,-1.01,2,0
17105.781,-0.381,-0.216,-0.909,-0.85,-2.47,-1.04,2,0
17105.781,-0.379,-0.22,-0.908,-0.49,-1.53,-0.92,2,0
17105.796,-0.383,-0.221,-0.911,0.64,-0.21,-0.98,2,0
17105.796,-0.38,-0.208,-0.914,1.56,0.67,-1.04,2,0
17105.812,-0.38,-0.197,-0.91,0.73,1.13,-1.34,2,0
17105.812,-0.379,-0.199,-0.899,-0.58,1.22,-1.8,2,0
17105.828,-0.381,-0.201,-0.894,-0.79,0.79,-1.56,2,0
17105.843,-0.383,-0.2,-0.886,-0.55,-0.03,-0.89,2,0
17105.843,-0.385,-0.204,-0.887,-0.21,-0.98,-0.03,2,0
17105.859,-0.383,-0.207,-0.894,-0.09,-1.8,0.55,2,0
17105.875,-0.38,-0.208,-0.897,-0.31,-2.35,0.49,2,0
17105.875,-0.379,-0.213,-0.9,-0.79,-2.62,0.0,2,0
17105.89,-0.376,-0.217,-0.902,-1.19,-2.53,-0.58,2,0
17105.906,-0.375,-0.216,-0.904,-1.65,-2.32,-1.25,2,0
17105.906,-0.375,-0.213,-0.901,-2.04,-2.11,-1.59,2,0
17105.921,-0.376,-0.215,-0.897,-1.83,-1.92,-1.65,2,0
17105.937,-0.375,-0.214,-0.896,-1.25,-2.04,-1.53,2,0
17105.937,-0.376,-0.208,-0.9,-0.89,-2.47,-1.4,2,0
17105.953,-0.376,-0.21,-0.899,-1.19,-2.72,-1.16,2,0
17105.953,-0.377,-0.214,-0.899,-1.34,-2.99,-0.7,2,0
17105.968,-0.376,-0.211,-0.905,-1.22,-3.14,-0.37,2,0
17105.984,-0.375,-0.21,-0.907,-1.19,-2.78,0.03,2,0
17105.984,-0.376,-0.219,-0.906,-1.22,-2.17,-0.18,2,0
17106.0,-0.379,-0.217,-0.902,-1.04,-1.86,-0.73,2,0
17106.015,-0.384,-0.213,-0.901,-1.19,-1.95,-1.01,2,0
17106.031,-0.384,-0.215,-0.9,-1.71,-2.38,-1.04,2,0
17106.031,-0.381,-0.214,-0.898,-1.74,-2.93,-0.82,2,0
17106.031,-0.381,-0.214,-0.902,-1.59,-3.2,-0.67,2,0
17106.046,-0.38,-0.217,-0.905,-1.34,-2.9,-0.46,2,0
17106.062,-0.38,-0.214,-0.904,-1.01,-2.53,-0.24,2,0
17106.062,-0.381,-0.216,-0.897,-0.64,-2.01,-0.06,2,0
17106.078,-0.383,-0.219,-0.89,-0.24,-1.95,0.21,2,0
17106.093,-0.385,-0.215,-0.891,0.09,-2.47,0.37,2,0
17106.093,-0.385,-0.213,-0.897,0.27,-3.42,0.09,2,0
17106.109,-0.384,-0.219,-0.906,-0.49,-4.24,-0.34,2,0
17106.125,-0.379,-0.22,-0.914,-1.07,-4.21,-0.49,2,0
17106.125,-0.375,-0.214,-0.919,-0.89,-3.27,-1.01,2,0
17106.14,-0.378,-0.216,-0.909,-0.85,-2.08,-1.53,2,0
17106.156,-0.387,-0.219,-0.896,-0.7,-1.1,-1.43,2,0
17106.156,-0.391,-0.21,-0.891,-0.18,-1.04,-1.37,2,0
17106.171,-0.391,-0.207,-0.897,-0.24,-1.74,-1.37,2,0
17106.171,-0.391,-0.215,-0.901,-0.52,-1.98,-0.79,2,0
17106.187,-0.385,-0.224,-0.902,0.18,-1.86,-0.03,2,0
17106.203,-0.384,-0.218,-0.903,1.25,-1.53,0.18,2,0
17106.203,-0.387,-0.212,-0.902,1.53,-1.46,-0.15,2,0
17106.218,-0.39,-0.216,-0.896,0.98,-1.8,-0.92,2,0
17106.234,-0.392,-0.215,-0.891,0.18,-2.5,-1.86,2,0
17106.25,-0.392,-0.217,-0.892,-0.4,-3.51,-2.62,2,0
17106.25,-0.39,-0.216,-0.897,-0.58,-4.0,-2.78,2,0
17106.265,-0.388,-0.217,-0.904,-0.4,-3.81,-2.47,2,0
17106.265,-0.388,-0.218,-0.904,0.61,-2.96,-1.95,2,0
17106.281,-0.388,-0.213,-0.912,1.89,-1.46,-1.28,2,0
17106.296,-0.39,-0.21,-0.908,2.59,0.15,-0.46,2,0
17106.296,-0.389,-0.209,-0.902,2.99,1.16,0.37,2,0
17106.312,-0.389,-0.205,-0.9,3.05,1.65,0.82,2,0
17106.328,-0.39,-0.201,-0.901,2.96,1.43,0.43,2,0
17106.328,-0.389,-0.197,-0.9,2.29,1.04,0.06,2,0
17106.343,-0.385,-0.2,-0.897,1.31,0.58,0.03,2,0
17106.343,-0.38,-0.207,-0.895,0.34,-0.15,0.46,2,0
17106.359,-0.38,-0.204,-0.888,0.46,-0.7,0.85,2,0
17106.375,-0.382,-0.207,-0.888,1.28,-0.95,1.37,2,0
17106.39,-0.38,-0.214,-0.885,1.43,-1.68,2.2,2,0
17106.39,-0.38,-0.217,-0.887,1.71,-2.35,2.44,2,0
17106.406,-0.38,-0.217,-0.893,1.8,-2.81,1.95,2,0
17106.406,-0.378,-0.215,-0.9,0.89,-3.3,0.61,2,0
17106.421,-0.379,-0.216,-0.901,-0.64,-3.57,-1.28,2,0
17106.437,-0.381,-0.221,-0.899,-1.65,-3.75,-2.78,2,0
17106.437,-0.379,-0.22,-0.897,-1.83,-3.88,-3.23,2,0
17106.453,-0.379,-0.221,-0.897,-1.53,-3.45,-2.78,2,0
17106.453,-0.38,-0.23,-0.896,-0.37,-2.66,-1.92,2,0
17106.468,-0.376,-0.222,-0.901,1.28,-1.83,-1.34,2,0
17106.484,-0.377,-0.207,-0.898,1.8,-0.95,-1.62,2,0
17106.484,-0.382,-0.199,-0.892,0.64,-0.85,-2.53,2,0
17106.5,-0.383,-0.198,-0.887,-1.16,-1.8,-2.69,2,0
17106.515,-0.386,-0.202,-0.883,-1.92,-2.9,-2.32,2,0
17106.515,-0.388,-0.205,-0.888,-1.43,-3.69,-1.43,2,0
17106.531,-0.386,-0.206,-0.891,-0.89,-3.97,-0.21,2,0
17106.546,-0.383,-0.216,-0.898,-0.43,-3.75,0.82,2,0
17106.546,-0.381,-0.221,-0.908,0.49,-2.84,1.13,2,0
17106.562,-0.382,-0.219,-0.909,0.03,-0.37,-0.15,2,0
17106.562,-0.381,-0.221,-0.903,-0.15,0.03,-1.62,2,0
17106.578,-0.383,-0.219,-0.897,-0.64,-0.31,-2.87,2,0
17106.593,-0.385,-0.22,-0.893,-0.89,-0.95,-3.3,2,0
17106.593,-0.388,-0.214,-0.894,-0.67,-1.37,-3.14,2,0
17106.609,-0.389,-0.214,-0.895,-0.37,-1.46,-2.59,2,0
17106.625,-0.39,-0.213,-0.897,-0.12,-1.43,-2.32,2,0
17106.625,-0.393,-0.21,-0.9,0.06,-1.43,-2.04,2,0
17106.64,-0.391,-0.209,-0.903,-0.09,-1.25,-1.59,2,0
17106.64,-0.388,-0.208,-0.902,-0.27,-0.76,-1.28,2,0
17106.656,-0.387,-0.207,-0.901,-0.03,-0.24,-1.22,2,0
17106.671,-0.389,-0.207,-0.896,0.0,0.12,-0.98,2,0
17106.687,-0.391,-0.211,-0.887,0.06,0.46,-0.49,2,0
17106.687,-0.393,-0.216,-0.884,0.31,0.52,-0.06,2,0
17106.703,-0.394,-0.215,-0.881,0.34,0.15,0.06,2,0
17106.703,-0.393,-0.217,-0.88,0.24,-0.79,-0.12,2,0
17106.718,-0.393,-0.215,-0.886,0.12,-1.59,-0.49,2,0
17106.734,-0.391,-0.219,-0.894,-0.18,-2.01,-1.13,2,0
17106.734,-0.388,-0.222,-0.9,-0.27,-2.01,-1.83,2,0
17106.75,-0.385,-0.221,-0.907,0.18,-1.56,-2.47,2,0
17106.765,-0.386,-0.223,-0.909,0.4,-0.49,-3.14,2,0
17106.765,-0.384,-0.224,-0.903,0.55,0.7,-3.57,2,0
17106.781,-0.385,-0.212,-0.894,0.27,1.46,-3.69,2,0
17106.781,-0.389,-0.208,-0.887,-0.09,1.62,-3.66,2,0
17106.796,-0.394,-0.212,-0.884,-0.34,1.1,-3.45,2,0
17106.812,-0.399,-0.21,-0.885,-0.27,-0.06,-2.78,2,0
17106.812,-0.393,-0.212,-0.89,-0.18,-1.16,-1.86,2,0
17106.828,-0.389,-0.22,-0.896,-0.37,-1.98,-1.37,2,0
17106.843,-0.389,-0.216,-0.898,-0.58,-2.08,-1.74,2,0
17106.859,-0.391,-0.207,-0.901,-0.64,-1.68,-2.35,2,0
17106.859,-0.391,-0.202,-0.901,-1.46,-1.22,-3.05,2,0
17106.875,-0.39,-0.204,-0.899,-2.56,-0.82,-3.85,2,0
17106.875,-0.398,-0.202,-0.888,-3.17,-0.49,-4.33,2,0
17106.89,-0.401,-0.205,-0.882,-3.39,-0.73,-3.88,2,0
