timestamp,ax,ay,az,gx,gy,gz,orient_label,motion_label
16938.703,-0.576,0.148,0.791,1.77,-0.18,-2.08,2,0
16938.703,-0.585,0.153,0.797,1.68,-0.46,-2.01,2,0
16938.718,-0.584,0.157,0.801,0.61,-1.77,-1.22,2,0
16938.718,-0.574,0.151,0.797,-0.52,-3.02,-0.82,2,0
16938.734,-0.568,0.144,0.794,-1.01,-3.51,-0.76,2,0
16938.75,-0.563,0.147,0.793,-0.55,-3.51,-0.98,2,0
16938.75,-0.565,0.15,0.789,0.55,-3.08,-1.56,2,0
16938.765,-0.564,0.152,0.785,1.83,-2.41,-1.95,2,0
16938.781,-0.568,0.157,0.785,2.5,-1.25,-1.92,2,0
16938.796,-0.581,0.163,0.791,3.08,-0.49,-1.86,2,0
16938.796,-0.585,0.166,0.793,3.39,-0.58,-1.4,2,0
16938.796,-0.582,0.168,0.797,1.98,-1.34,-0.46,2,0
16938.812,-0.582,0.157,0.799,0.64,-2.47,0.0,2,0
16938.828,-0.579,0.149,0.795,0.37,-3.45,0.37,2,0
16938.828,-0.575,0.143,0.785,0.73,-3.88,0.49,2,0
16938.843,-0.574,0.135,0.779,0.7,-3.48,0.24,2,0
16938.859,-0.576,0.13,0.779,1.31,-2.69,-0.18,2,0
16938.875,-0.573,0.138,0.78,2.38,-1.04,-1.28,2,0
16938.89,-0.578,0.143,0.786,2.56,-0.31,-2.17,2,0
16938.89,-0.584,0.147,0.795,3.17,-0.09,-2.56,2,0
16938.906,-0.585,0.154,0.795,3.3,-0.49,-2.44,2,0
16938.921,-0.586,0.162,0.798,2.72,-1.1,-2.14,2,0
16938.921,-0.593,0.163,0.797,1.59,-1.77,-1.92,2,0
16938.937,-0.583,0.159,0.796,0.27,-2.62,-1.25,2,0
16938.937,-0.568,0.148,0.78,-0.15,-2.72,-1.04,2,0
16938.953,-0.565,0.142,0.772,0.49,-1.34,-1.1,2,0
16938.968,-0.574,0.142,0.773,1.8,0.55,-1.19,2,0
16938.968,-0.579,0.144,0.771,2.35,2.14,-1.04,2,0
16938.984,-0.585,0.144,0.789,1.8,2.99,-0.95,2,0
16939.0,-0.588,0.145,0.801,1.5,2.75,-0.89,2,0
16939.015,-0.589,0.148,0.808,1.22,1.74,-0.95,2,0
16939.015,-0.585,0.146,0.806,1.13,0.43,-1.4,2,0
16939.031,-0.584,0.149,0.795,1.01,-0.58,-1.68,2,0
16939.046,-0.577,0.147,0.779,-0.49,-0.43,-1.31,2,0
16939.062,-0.571,0.148,0.779,-0.12,0.67,-1.25,2,0
16939.062,-0.576,0.151,0.785,0.82,1.86,-1.19,2,0
16939.078,-0.583,0.15,0.787,1.56,2.56,-1.31,2,0
16939.093,-0.583,0.147,0.792,1.8,2.66,-1.37,2,0
16939.093,-0.582,0.146,0.795,1.71,2.38,-1.16,2,0
16939.109,-0.583,0.142,0.798,1.4,1.95,-1.07,2,0
16939.109,-0.579,0.135,0.8,1.34,1.13,-1.19,2,0
16939.125,-0.569,0.127,0.801,1.71,0.79,-1.8,2,0
16939.14,-0.561,0.121,0.802,2.72,0.79,-2.9,2,0
16939.14,-0.554,0.113,0.809,4.76,1.43,-4.18,2,0
16939.156,-0.544,0.112,0.82,7.29,2.32,-5.31,2,0
16939.171,-0.543,0.113,0.827,9.95,2.41,-6.29,2,0
16939.171,-0.531,0.106,0.839,11.57,1.62,-6.07,2,0
16939.187,-0.5,0.09,0.86,12.88,0.43,-4.82,2,0
16939.203,-0.469,0.079,0.879,13.64,-1.34,-3.57,2,0
16939.218,-0.406,0.046,0.958,17.15,-8.12,-7.9,2,0
16939.218,-0.388,0.05,0.995,23.26,-14.07,-15.63,2,0
16939.234,-0.361,0.06,1.03,30.67,-20.29,-25.12,2,0
16939.25,-0.348,0.108,1.047,38.39,-28.26,-37.02,2,0
16939.265,-0.357,0.158,1.045,45.23,-37.39,-51.15,2,0
16939.265,-0.36,0.189,1.029,51.52,-43.82,-61.68,2,0
16939.281,-0.362,0.254,1.015,57.44,-48.52,-68.67,2,0
16939.281,-0.383,0.297,0.997,62.62,-50.51,-71.57,2,0
16939.296,-0.383,0.341,0.988,65.98,-50.75,-70.5,2,0
16939.312,-0.378,0.38,0.965,70.44,-49.26,-66.81,2,0
16939.312,-0.387,0.422,0.935,72.7,-46.51,-62.23,2,0
16939.328,-0.416,0.462,0.934,70.19,-43.52,-56.03,2,0
16939.343,-0.418,0.485,0.952,65.95,-42.6,-47.46,2,0
16939.343,-0.429,0.494,0.946,59.02,-43.79,-30.15,2,0
16939.359,-0.439,0.503,0.947,58.26,-44.53,-21.39,2,0
16939.359,-0.44,0.511,0.95,60.43,-44.34,-10.19,2,0
16939.39,-0.464,0.536,0.868,59.21,-47.15,14.59,2,0
16939.39,-0.436,0.531,0.855,54.2,-47.94,25.94,2,0
16939.406,-0.44,0.529,0.822,51.88,-47.33,35.0,2,0
16939.421,-0.408,0.526,0.79,49.44,-45.44,44.65,2,0
16939.437,-0.396,0.517,0.773,46.88,-41.54,51.64,2,0
16939.437,-0.393,0.496,0.785,45.44,-36.53,57.53,2,0
16939.453,-0.404,0.504,0.802,46.14,-32.62,61.95,2,0
16939.453,-0.407,0.511,0.8,47.98,-30.58,65.74,2,0
16939.468,-0.412,0.5,0.798,49.07,-30.79,67.54,2,0
16939.468,-0.408,0.491,0.791,51.27,-31.77,68.58,2,0
16939.484,-0.406,0.5,0.772,55.51,-32.32,69.77,2,0
16939.5,-0.393,0.506,0.732,59.63,-32.26,70.83,2,0
16939.515,-0.379,0.514,0.697,62.11,-30.95,72.08,2,0
16939.515,-0.374,0.532,0.682,62.17,-27.53,74.25,2,0
16939.531,-0.386,0.563,0.669,60.09,-23.53,77.94,2,0
16939.531,-0.398,0.585,0.656,55.67,-20.84,84.08,2,0
16939.546,-0.408,0.587,0.642,49.38,-20.05,92.29,2,0
16939.562,-0.416,0.595,0.648,42.45,-20.51,102.18,2,0
16939.562,-0.434,0.6,0.642,35.46,-22.37,112.25,2,0
16939.578,-0.454,0.595,0.618,26.73,-26.55,122.35,2,0
16939.593,-0.445,0.587,0.599,15.23,-31.95,133.52,2,0
16939.593,-0.418,0.565,0.591,2.72,-36.35,144.41,2,0
16939.609,-0.379,0.55,0.58,-7.72,-36.99,154.58,2,0
16939.625,-0.359,0.548,0.576,-16.11,-32.23,164.19,2,0
16939.625,-0.363,0.532,0.592,-23.5,-25.76,172.89,2,0
16939.64,-0.38,0.49,0.615,-28.72,-21.06,181.1,2,0
16939.656,-0.386,0.447,0.619,-32.75,-20.26,188.73,2,0
16939.656,-0.379,0.416,0.605,-38.06,-24.35,194.19,2,0
16939.671,-0.346,0.384,0.582,-44.92,-28.93,197.27,2,0
16939.671,-0.309,0.361,0.582,-52.28,-30.21,197.64,2,0
16939.687,-0.283,0.334,0.588,-58.47,-26.61,196.39,2,0
16939.703,-0.246,0.324,0.633,-66.29,-21.15,194.16,2,0
16939.703,-0.218,0.331,0.664,-73.67,-14.4,190.07,2,0
16939.718,-0.241,0.352,0.73,-81.91,-6.96,186.86,2,0
16939.718,-0.253,0.284,0.812,-87.68,-7.6,180.97,2,0
16939.734,-0.252,0.26,0.861,-88.08,-12.73,172.43,2,0
16939.75,-0.251,0.233,0.898,-81.67,-18.65,165.65,2,0
16939.765,-0.223,0.204,0.912,-72.15,-23.9,158.6,2,0
16939.765,-0.193,0.207,0.91,-64.94,-25.54,151.95,2,0
16939.781,-0.173,0.186,0.904,-60.55,-25.18,143.74,2,0
16939.781,-0.153,0.173,0.898,-59.33,-23.32,133.88,2,0
16939.796,-0.134,0.178,0.89,-59.21,-19.68,123.6,2,0
16939.812,-0.12,0.197,0.911,-58.38,-14.95,113.56,2,0
16939.812,-0.116,0.221,0.962,-58.99,-11.26,104.86,2,0
16939.828,-0.128,0.216,0.977,-54.11,-7.69,97.84,2,0
16939.828,-0.153,0.237,1.02,-49.35,-4.94,92.35,2,0
16939.843,-0.152,0.285,1.052,-48.59,-6.04,88.56,2,0
16939.859,-0.15,0.296,1.037,-49.78,-8.48,86.18,2,0
16939.859,-0.132,0.291,1.026,-53.93,-11.14,83.25,2,0
16939.89,-0.065,0.259,0.987,-51.82,-12.63,73.79,2,0
16939.89,-0.039,0.248,0.973,-42.85,-7.87,68.15,2,0
16939.906,-0.015,0.242,0.941,-32.26,-0.7,63.54,2,0
16939.921,-0.008,0.256,0.915,-26.98,7.84,59.02,2,0
16939.921,-0.009,0.272,0.913,-29.05,16.24,54.57,2,0
16939.937,-0.044,0.266,0.983,-35.71,22.22,50.39,2,0
16939.937,-0.193,0.332,1.272,-40.1,17.91,45.9,2,0
16939.953,-0.145,0.385,1.396,-35.74,-5.25,50.87,2,0
16939.968,0.012,0.385,1.322,-37.02,-32.62,54.99,2,0
16939.968,0.138,0.391,1.181,-36.13,-46.3,52.28,2,0
16939.984,0.199,0.375,1.088,-32.72,-44.04,49.96,2,0
16940.0,0.237,0.37,1.056,-29.11,-35.22,45.38,2,0
16940.0,0.202,0.362,1.053,-22.64,-25.91,38.36,2,0
16940.015,0.147,0.375,1.083,-14.65,-20.2,32.5,2,0
16940.031,0.112,0.395,1.099,-7.14,-20.29,28.78,2,0
16940.031,0.114,0.393,1.069,-1.07,-23.83,28.66,2,0
16940.046,0.155,0.393,1.005,2.47,-26.8,30.49,2,0
16940.062,0.19,0.382,0.931,3.85,-25.97,32.07,2,0
16940.062,0.208,0.351,0.88,1.68,-20.97,32.9,2,0
16940.078,0.221,0.307,0.852,-1.68,-14.22,32.23,2,0
16940.093,0.217,0.276,0.853,-2.75,-7.2,29.97,2,0
16940.093,0.207,0.271,0.848,-1.13,-1.16,26.86,2,0
16940.109,0.206,0.307,0.897,1.5,4.82,24.23,2,0
16940.109,0.193,0.295,0.927,6.59,8.18,20.91,2,0
16940.125,0.173,0.295,0.945,9.19,8.03,18.16,2,0
16940.14,0.159,0.31,0.956,11.6,6.47,17.15,2,0
16940.156,0.155,0.313,0.95,12.82,3.88,16.82,2,0
16940.156,0.167,0.31,0.942,14.25,1.89,17.7,2,0
16940.171,0.193,0.304,0.925,17.52,2.17,20.33,2,0
16940.171,0.208,0.301,0.903,19.17,4.09,23.04,2,0
16940.187,0.213,0.289,0.892,17.43,6.59,25.03,2,0
16940.203,0.208,0.278,0.902,12.12,9.22,26.4,2,0
16940.203,0.203,0.249,0.933,5.8,10.74,26.7,2,0
16940.218,0.229,0.169,0.963,1.83,10.71,22.22,2,0
16940.234,0.231,0.16,0.982,3.6,11.32,16.97,2,0
16940.25,0.214,0.16,1.0,6.68,11.51,11.02,2,0
16940.25,0.191,0.178,1.015,10.25,9.55,6.44,2,0
16940.265,0.171,0.201,1.007,13.46,5.8,4.03,2,0
16940.281,0.16,0.225,0.988,15.78,1.95,4.52,2,0
16940.281,0.155,0.248,0.971,16.51,-1.07,6.47,2,0
16940.296,0.152,0.266,0.942,15.66,-3.51,8.85,2,0
16940.312,0.161,0.277,0.918,12.18,-4.27,12.15,2,0
16940.312,0.168,0.28,0.915,6.04,-4.18,14.89,2,0
16940.328,0.174,0.256,0.92,-0.21,-1.98,17.98,2,0
16940.343,0.174,0.223,0.939,2.26,-1.07,18.74,2,0
16940.343,0.165,0.215,0.954,5.28,-1.83,18.92,2,0
16940.359,0.165,0.226,0.978,7.66,-4.46,18.07,2,0
16940.359,0.178,0.226,0.965,8.45,-7.45,17.67,2,0
16940.375,0.201,0.235,0.939,7.93,-8.64,16.82,2,0
16940.39,0.214,0.218,0.93,3.48,-6.53,12.33,2,0
16940.406,0.203,0.217,0.945,1.65,-5.52,10.5,2,0
16940.421,0.19,0.226,0.957,1.04,-5.49,9.61,2,0
16940.421,0.196,0.241,0.948,1.8,-6.1,10.28,2,0
16940.437,0.21,0.257,0.937,1.59,-6.07,11.57,2,0
16940.437,0.212,0.263,0.927,0.27,-5.1,12.27,2,0
16940.453,0.219,0.252,0.93,-0.49,-3.81,12.73,2,0
16940.468,0.228,0.247,0.935,0.49,-2.29,12.18,2,0
16940.484,0.228,0.262,0.932,1.92,-1.59,9.64,2,0
16940.484,0.232,0.298,0.934,3.23,-0.92,6.47,2,0
16940.5,0.227,0.325,0.951,4.61,0.4,3.94,2,0
16940.5,0.213,0.338,0.949,5.4,0.49,3.2,2,0
16940.515,0.206,0.329,0.953,5.16,-0.03,4.09,2,0
16940.531,0.193,0.31,0.95,6.32,0.21,6.2,2,0
16940.531,0.19,0.294,0.934,7.66,0.06,10.01,2,0
16940.546,0.212,0.276,0.914,5.89,-0.76,12.54,2,0
16940.562,0.217,0.238,0.913,3.54,1.1,11.02,2,0
16940.578,0.225,0.24,0.916,3.72,1.37,8.61,2,0
16940.578,0.232,0.269,0.913,3.2,1.46,5.89,2,0
16940.593,0.239,0.288,0.915,1.8,2.35,5.28,2,0
16940.609,0.251,0.277,0.925,1.07,4.27,5.77,2,0
16940.609,0.252,0.261,0.93,1.77,6.74,5.31,2,0
16940.625,0.245,0.251,0.933,2.99,8.82,3.75,2,0
16940.64,0.233,0.25,0.949,3.23,9.77,1.56,2,0
16940.64,0.206,0.277,0.985,3.6,9.67,0.03,2,0
16940.656,0.173,0.289,0.984,5.19,6.9,0.61,2,0
16940.671,0.171,0.303,0.957,4.76,2.14,3.94,2,0
16940.671,0.182,0.299,0.928,2.75,-1.16,7.35,2,0
16940.687,0.193,0.276,0.909,0.73,-2.38,9.31,2,0
16940.687,0.208,0.261,0.911,-0.82,-2.08,9.64,2,0
16940.703,0.218,0.255,0.928,-0.82,-1.62,8.64,2,0
16940.718,0.223,0.254,0.942,-0.85,-1.65,7.05,2,0
16940.718,0.223,0.252,0.945,-2.01,-2.11,5.13,2,0
16940.734,0.225,0.26,0.936,-2.66,-2.59,3.88,2,0
16940.75,0.235,0.276,0.927,-2.29,-2.32,3.51,2,0
16940.765,0.23,0.291,0.93,-2.11,-1.31,3.11,2,0
16940.765,0.222,0.286,0.928,-2.17,-1.07,3.54,2,0
16940.781,0.218,0.272,0.946,-3.17,-1.71,3.85,2,0
16940.781,0.217,0.269,0.956,-4.06,-3.6,2.96,2,0
16940.796,0.219,0.265,0.941,-3.78,-6.16,1.74,2,0
16940.812,0.229,0.269,0.931,-2.75,-7.32,1.16,2,0
16940.812,0.24,0.265,0.916,-2.53,-7.6,0.12,2,0
16940.828,0.256,0.246,0.907,-4.49,-7.45,-2.23,2,0
16940.843,0.269,0.23,0.913,-6.53,-5.62,-4.94,2,0
16940.843,0.26,0.2,0.935,-6.38,-3.6,-7.29,2,0
16940.859,0.264,0.188,0.987,-5.62,-5.01,-10.1,2,0
16940.859,0.254,0.231,1.05,-3.23,-9.98,-13.95,2,0
16940.875,0.225,0.288,1.038,1.95,-18.16,-18.37,2,0
16940.89,0.239,0.378,0.996,1.13,-25.88,-20.36,2,0
16940.906,0.268,0.462,0.977,-1.25,-29.42,-18.07,2,0
16940.906,0.305,0.453,0.927,-2.99,-27.07,-8.91,2,0
16940.921,0.339,0.39,0.962,-8.91,-18.8,6.01,2,0
16940.921,0.338,0.282,0.932,-18.43,-9.46,18.89,2,0
16940.937,0.327,0.189,0.934,-37.9,-1.98,26.76,2,0
16940.953,0.302,0.059,0.982,-49.56,5.49,26.67,2,0
16940.953,0.259,-0.003,0.99,-43.49,12.91,20.81,2,0
16940.968,0.198,-0.021,0.983,-24.2,16.85,10.32,2,0
16940.968,0.115,0.06,0.842,-5.25,12.15,-3.23,2,0
16940.984,0.059,0.156,0.758,7.66,8.36,-11.54,2,0
16941.0,0.013,0.282,0.744,16.3,8.73,-12.48,2,0
16941.0,0.019,0.372,0.731,18.25,8.36,-4.61,2,0
16941.015,0.099,0.402,0.792,10.01,8.7,6.29,2,0
16941.031,0.155,0.359,0.894,0.61,10.04,14.86,2,0
16941.031,0.221,0.292,0.948,-4.24,10.25,21.67,2,0
16941.046,0.281,0.248,0.981,-7.08,11.63,25.82,2,0
16941.062,0.294,0.209,1.003,-9.49,13.18,25.82,2,0
16941.062,0.289,0.171,1.034,-11.44,13.73,23.59,2,0
16941.078,0.273,0.159,1.05,-10.35,12.24,20.78,2,0
16941.093,0.254,0.157,1.036,-6.81,8.55,17.94,2,0
16941.093,0.239,0.186,1.016,-3.48,4.12,14.89,2,0
16941.109,0.229,0.231,0.989,-1.95,-1.13,11.69,2,0
16941.109,0.218,0.278,0.962,-2.26,-6.62,9.55,2,0
16941.125,0.208,0.314,0.947,-2.99,-11.2,9.74,2,0
16941.14,0.213,0.325,0.93,-3.91,-14.89,11.99,2,0
16941.14,0.215,0.315,0.912,-6.53,-18.16,14.8,2,0
16941.156,0.236,0.284,0.897,-9.67,-19.26,16.3,2,0
16941.171,0.238,0.257,0.918,-10.93,-17.88,16.91,2,0
16941.171,0.237,0.22,0.935,-9.74,-16.39,17.24,2,0
16941.187,0.232,0.2,0.956,-8.21,-16.24,17.52,2,0
16941.203,0.234,0.19,0.953,-6.2,-17.18,17.4,2,0
16941.203,0.253,0.186,0.928,-5.37,-17.49,16.88,2,0
16941.218,0.277,0.179,0.903,-5.62,-16.14,14.74,2,0
16941.218,0.294,0.166,0.894,-5.8,-12.91,11.2,2,0
16941.234,0.304,0.16,0.91,-4.85,-8.73,7.05,2,0
16941.25,0.295,0.168,0.951,-1.98,-5.1,2.87,2,0
16941.25,0.266,0.193,0.999,2.01,-4.09,-0.21,2,0
16941.265,0.251,0.216,0.999,5.55,-6.68,-0.82,2,0
16941.281,0.26,0.237,0.977,5.49,-9.98,0.7,2,0
16941.281,0.25,0.25,0.983,2.84,-12.73,2.96,2,0
16941.296,0.24,0.253,0.937,2.11,-14.95,8.21,2,0
16941.312,0.267,0.24,0.903,-1.22,-14.44,14.62,2,0
16941.312,0.266,0.216,0.9,-8.36,-11.23,17.76,2,0
16941.328,0.269,0.19,0.93,-8.39,-10.96,17.15,2,0
16941.328,0.276,0.163,0.931,-8.58,-11.14,14.77,2,0
16941.343,0.32,0.147,0.91,-9.22,-9.25,11.54,2,0
16941.359,0.334,0.132,0.919,-8.55,-6.07,7.69,2,0
16941.359,0.336,0.129,0.944,-5.92,-2.78,3.78,2,0
16941.375,0.323,0.138,0.961,-1.62,-0.64,0.43,2,0
16941.39,0.326,0.162,0.952,2.11,0.12,-1.5,2,0
16941.39,0.319,0.193,0.943,3.97,1.4,-2.5,2,0
16941.406,0.29,0.216,0.947,5.25,2.9,-2.66,2,0
16941.421,0.26,0.231,0.943,5.8,2.59,-1.53,2,0
16941.421,0.255,0.247,0.932,3.66,0.58,0.98,2,0
16941.437,0.259,0.25,0.927,0.92,-0.92,3.91,2,0
16941.437,0.258,0.231,0.922,-1.13,-1.95,6.84,2,0
16941.453,0.255,0.215,0.932,-3.45,-2.78,9.28,2,0
16941.468,0.267,0.186,0.94,-4.94,-3.78,10.38,2,0
16941.484,0.285,0.181,0.951,-6.53,-4.61,10.13,2,0
16941.484,0.286,0.163,0.976,-5.95,-4.97,8.82,2,0
16941.5,0.261,0.177,0.966,-2.32,-5.95,8.36,2,0
16941.515,0.289,0.196,0.93,-0.98,-6.59,9.89,2,0
16941.515,0.277,0.194,0.915,-2.93,-5.46,9.34,2,0
16941.531,0.267,0.2,0.937,-5.74,-4.91,9.89,2,0
16941.531,0.255,0.204,0.949,-6.38,-5.31,11.75,2,0
16941.546,0.251,0.227,0.93,-7.17,-6.78,15.14,2,0
16941.562,0.259,0.241,0.895,-10.19,-8.0,19.29,2,0
16941.562,0.268,0.234,0.872,-15.41,-7.2,23.16,2,0
16941.578,0.283,0.201,0.873,-21.0,-5.62,26.31,2,0
16941.578,0.297,0.143,0.903,-25.36,-3.54,26.64,2,0
16941.593,0.32,0.078,0.941,-26.0,-2.56,23.83,2,0
16941.609,0.329,0.059,0.999,-21.94,-2.23,18.28,2,0
16941.625,0.314,0.06,1.021,-13.06,-3.2,13.0,2,0
16941.625,0.319,0.093,0.98,-6.26,-5.34,10.16,2,0
16941.64,0.333,0.142,0.961,-4.58,-6.1,8.39,2,0
16941.64,0.323,0.156,0.948,-3.97,-4.73,8.48,2,0
16941.656,0.314,0.164,0.929,-5.22,-3.6,10.1,2,0
16941.671,0.316,0.155,0.928,-8.27,-3.05,10.77,2,0
16941.671,0.307,0.137,0.931,-9.46,-1.92,10.32,2,0
16941.687,0.3,0.138,0.942,-9.31,-1.95,9.67,2,0
16941.687,0.295,0.142,0.967,-8.27,-3.36,8.64,2,0
16941.703,0.287,0.13,0.964,-6.1,-5.25,8.33,2,0
16941.718,0.315,0.135,0.935,-5.16,-7.08,8.67,2,0
16941.718,0.331,0.129,0.934,-4.27,-6.71,7.66,2,0
16941.734,0.34,0.125,0.93,-2.01,-4.46,7.08,2,0
16941.75,0.339,0.116,0.932,-1.83,-2.69,5.86,2,0
16941.765,0.327,0.129,0.968,0.31,-2.08,2.96,2,0
16941.781,0.327,0.142,0.937,1.25,-2.96,3.3,2,0
16941.781,0.334,0.146,0.923,-0.4,-3.54,2.96,2,0
16941.796,0.326,0.134,0.919,-1.19,-2.59,2.84,2,0
16941.812,0.323,0.142,0.929,-1.89,-2.04,2.47,2,0
16941.812,0.318,0.141,0.938,-2.2,-2.17,2.01,2,0
16941.828,0.327,0.133,0.93,-2.26,-2.66,2.38,2,0
16941.828,0.337,0.125,0.928,-2.62,-2.29,1.98,2,0
16941.843,0.337,0.115,0.934,-1.98,-0.85,1.25,2,0
16941.859,0.328,0.119,0.958,-0.79,0.34,0.58,2,0
16941.859,0.303,0.137,0.97,1.16,0.37,0.24,2,0
16941.875,0.3,0.142,0.948,1.89,-1.25,1.16,2,0
16941.89,0.3,0.144,0.949,0.92,-2.35,1.74,2,0
16941.906,0.306,0.138,0.937,1.16,-3.45,2.66,2,0
16941.906,0.308,0.139,0.925,-0.31,-4.06,3.33,2,0
16941.921,0.31,0.132,0.934,-1.71,-3.91,3.69,2,0
16941.937,0.339,0.127,0.942,-2.9,-2.75,3.45,2,0
16941.937,0.337,0.115,0.938,-2.11,-1.71,2.69,2,0
16941.953,0.34,0.11,0.938,-0.89,-0.58,1.77,2,0
16941.968,0.319,0.119,0.952,0.18,0.67,0.67,2,0
16941.984,0.313,0.112,0.944,1.01,0.49,0.49,2,0
16941.984,0.319,0.112,0.939,0.98,-0.06,0.03,2,0
16942.0,0.323,0.121,0.949,1.83,-0.06,-0.73,2,0
16942.0,0.321,0.128,0.945,3.17,0.06,-1.13,2,0
16942.015,0.321,0.134,0.932,3.27,0.06,-1.13,2,0
16942.031,0.322,0.136,0.933,3.11,0.43,-1.22,2,0
16942.031,0.317,0.138,0.937,3.81,0.85,-1.43,2,0
16942.046,0.321,0.146,0.927,2.78,0.31,-1.46,2,0
16942.062,0.314,0.148,0.93,0.64,0.43,-1.43,2,0
16942.062,0.316,0.141,0.931,-0.12,0.52,-0.85,2,0
16942.078,0.325,0.132,0.932,-0.27,1.13,-0.37,2,0
16942.078,0.314,0.133,0.956,-0.31,1.95,-0.27,2,0
16942.093,0.297,0.133,0.959,0.03,1.28,0.27,2,0
16942.109,0.305,0.128,0.932,-0.24,-0.46,1.19,2,0
16942.125,0.314,0.129,0.928,-1.28,-0.76,1.4,2,0
16942.125,0.315,0.13,0.94,-1.56,-0.55,1.43,2,0
16942.14,0.315,0.128,0.948,-1.25,-0.67,1.5,2,0
16942.14,0.315,0.128,0.946,-0.92,-1.16,1.28,2,0
16942.156,0.32,0.124,0.941,-1.1,-1.62,1.01,2,0
16942.171,0.327,0.119,0.951,-0.92,-1.71,0.4,2,0
16942.171,0.328,0.126,0.955,-0.34,-2.01,-0.85,2,0
16942.187,0.332,0.137,0.942,-0.18,-2.53,-2.32,2,0
16942.203,0.337,0.14,0.931,-0.7,-2.38,-3.6,2,0
16942.203,0.343,0.139,0.926,-0.49,-1.8,-4.36,2,0
16942.218,0.348,0.14,0.914,0.27,-0.31,-4.85,2,0
16942.218,0.344,0.132,0.915,0.52,1.92,-5.68,2,0
16942.234,0.328,0.132,0.945,1.04,3.66,-6.59,2,0
16942.25,0.295,0.145,0.955,2.56,3.57,-7.08,2,0
16942.25,0.287,0.15,0.931,1.89,1.4,-5.74,2,0
16942.265,0.286,0.157,0.92,-0.95,-0.24,-4.18,2,0
16942.281,0.286,0.144,0.927,-2.29,-0.92,-2.69,2,0
16942.281,0.292,0.133,0.939,-2.59,-1.46,-1.62,2,0
16942.296,0.301,0.14,0.958,-2.01,-4.21,-1.16,2,0
16942.312,0.296,0.144,0.948,-4.18,-5.4,1.1,2,0
16942.312,0.317,0.132,0.934,-7.69,-5.34,2.29,2,0
16942.328,0.306,0.124,0.972,-6.59,-7.14,4.24,2,0
16942.328,0.347,0.073,0.957,-2.59,-7.42,3.63,2,0
16942.343,0.334,0.086,0.949,0.34,-5.58,1.25,2,0
16942.359,0.317,0.107,0.943,1.89,-3.97,-0.43,2,0
16942.359,0.304,0.129,0.925,2.69,-2.87,-0.79,2,0
16942.375,0.296,0.147,0.912,1.86,-1.95,-0.21,2,0
16942.39,0.303,0.157,0.91,0.0,-1.68,0.98,2,0
16942.39,0.322,0.153,0.916,-2.01,-1.53,2.11,2,0
16942.406,0.335,0.146,0.939,-3.42,-0.67,2.62,2,0
16942.421,0.34,0.127,0.951,-3.2,0.49,2.26,2,0
16942.421,0.34,0.105,0.942,-1.92,2.17,1.5,2,0
16942.437,0.356,0.099,0.938,-0.34,4.12,0.21,2,0
16942.437,0.349,0.094,0.935,1.8,6.29,-2.08,2,0
16942.453,0.337,0.102,0.926,2.9,7.87,-4.33,2,0
16942.468,0.327,0.116,0.901,3.6,9.06,-6.07,2,0
16942.468,0.306,0.135,0.884,1.86,11.17,-6.78,2,0
16942.484,0.277,0.165,0.941,-1.83,12.73,-5.58,2,0
16942.5,0.273,0.146,0.975,-2.9,9.74,-2.56,2,0
16942.5,0.247,0.152,0.972,-3.11,5.34,-1.01,2,0
16942.515,0.249,0.14,0.961,-2.53,0.89,1.8,2,0
16942.531,0.267,0.116,0.942,-3.23,-2.72,3.39,2,0
16942.531,0.284,0.108,0.936,-3.97,-4.97,2.99,2,0
16942.546,0.294,0.101,0.944,-3.05,-6.38,1.74,2,0
16942.562,0.299,0.11,0.949,-1.56,-7.11,0.37,2,0
16942.562,0.297,0.131,0.964,-1.04,-8.42,-0.49,2,0
16942.578,0.324,0.155,0.981,0.46,-9.95,-0.67,2,0
16942.593,0.378,0.152,1.042,2.87,-11.99,1.43,2,0
16942.593,0.37,0.094,0.979,-0.27,-16.54,-2.78,2,0
16942.609,0.384,0.07,0.961,-2.14,-17.64,-8.09,2,0
16942.625,0.366,0.066,0.931,10.01,-12.73,-16.3,2,0
16942.64,0.355,0.12,0.936,13.52,-10.35,-18.16,2,0
16942.64,0.324,0.148,0.926,14.98,-8.7,-17.55,2,0
16942.656,0.304,0.165,0.904,14.37,-7.48,-14.07,2,0
16942.671,0.298,0.187,0.902,12.79,-6.1,-9.31,2,0
16942.687,0.292,0.197,0.915,10.16,-4.85,-5.19,2,0
16942.687,0.297,0.199,0.926,6.78,-4.73,-1.77,2,0
16942.703,0.305,0.191,0.936,3.94,-5.19,0.73,2,0
16942.703,0.316,0.172,0.937,2.04,-5.55,2.38,2,0
16942.718,0.326,0.159,0.936,1.04,-5.19,3.51,2,0
16942.718,0.333,0.14,0.95,0.76,-4.73,4.18,2,0
16942.734,0.342,0.138,0.966,3.45,-5.34,3.94,2,0
16942.75,0.342,0.145,0.954,7.17,-5.83,3.72,2,0
16942.75,0.34,0.14,0.932,8.76,-5.92,3.88,2,0
16942.765,0.339,0.145,0.928,8.55,-5.92,4.12,2,0
16942.781,0.332,0.141,0.925,8.7,-5.86,4.49,2,0
16942.796,0.317,0.159,0.919,8.73,-5.71,7.51,2,0
16942.812,0.33,0.167,0.9,7.48,-5.58,9.77,2,0
16942.812,0.351,0.167,0.887,5.13,-4.27,10.68,2,0
16942.828,0.361,0.172,0.893,2.41,-2.01,10.13,2,0
16942.828,0.373,0.172,0.901,0.27,-0.15,9.16,2,0
16942.843,0.375,0.158,0.891,-0.73,2.14,8.03,2,0
16942.859,0.375,0.142,0.884,-1.74,5.34,6.87,2,0
16942.859,0.373,0.128,0.884,-2.38,9.25,5.74,2,0
16942.875,0.354,0.112,0.906,-3.45,12.79,4.18,2,0
16942.89,0.326,0.119,0.957,-3.88,13.82,2.56,2,0
16942.906,0.292,0.109,1.055,-2.23,10.71,1.83,2,0
16942.906,0.319,0.051,1.03,1.19,1.56,0.12,2,0
16942.921,0.364,0.092,0.927,3.23,-3.05,-4.7,2,0
16942.921,0.36,0.135,0.897,5.31,-0.67,-8.61,2,0
16942.937,0.339,0.154,0.916,6.81,3.2,-9.25,2,0
16942.953,0.313,0.181,0.944,7.57,5.58,-8.09,2,0
16942.968,0.325,0.174,0.916,5.43,2.29,-6.71,2,0
16942.968,0.347,0.17,0.892,2.99,3.78,-7.48,2,0
16942.984,0.346,0.164,0.914,1.83,7.26,-8.15,2,0
16943.0,0.345,0.141,0.921,2.26,9.64,-8.27,2,0
16943.0,0.344,0.117,0.922,1.59,10.65,-9.86,2,0
16943.015,0.328,0.114,0.958,1.25,10.93,-12.91,2,0
16943.031,0.3,0.105,0.98,4.49,8.94,-15.72,2,0
16943.031,0.295,0.121,0.968,8.39,5.28,-16.27,2,0
16943.046,0.294,0.16,0.944,10.62,1.89,-15.11,2,0
16943.062,0.3,0.191,0.914,10.93,-0.06,-14.04,2,0
16943.062,0.303,0.215,0.905,9.49,-0.67,-12.7,2,0
16943.078,0.302,0.224,0.902,7.26,-0.76,-10.56,2,0
16943.078,0.305,0.229,0.904,4.27,-0.89,-7.66,2,0
16943.093,0.303,0.224,0.916,0.85,-1.04,-4.76,2,0
16943.109,0.303,0.204,0.921,-1.31,-1.5,-2.2,2,0
16943.109,0.306,0.189,0.929,-2.93,-2.29,-0.67,2,0
16943.125,0.295,0.185,0.951,-3.14,-3.2,-0.43,2,0
16943.14,0.29,0.18,0.944,-1.95,-4.21,0.4,2,0
16943.156,0.296,0.179,0.932,-2.66,-4.82,1.68,2,0
16943.156,0.307,0.171,0.937,-4.0,-4.76,2.14,2,0
16943.156,0.317,0.154,0.935,-4.21,-4.15,1.98,2,0
16943.171,0.335,0.148,0.932,-4.64,-2.96,1.22,2,0
16943.187,0.344,0.143,0.942,-4.76,-1.28,-0.43,2,0
16943.187,0.341,0.136,0.944,-3.36,0.21,-2.41,2,0
16943.203,0.332,0.14,0.942,-1.59,1.59,-4.39,2,0
16943.218,0.315,0.153,0.95,-0.4,2.04,-5.98,2,0
16943.234,0.305,0.162,0.947,1.01,1.34,-6.59,2,0
16943.234,0.303,0.179,0.942,1.65,0.61,-6.38,2,0
16943.25,0.306,0.189,0.93,1.37,-0.15,-5.8,2,0
16943.25,0.306,0.197,0.924,0.15,-0.43,-4.82,2,0
16943.265,0.304,0.198,0.93,-0.85,-0.03,-3.39,2,0
16943.281,0.299,0.181,0.926,-1.1,0.58,-2.04,2,0
16943.281,0.299,0.175,0.934,-1.31,1.46,-0.79,2,0
16943.296,0.293,0.154,0.961,1.5,0.73,-0.34,2,0
16943.296,0.272,0.154,0.994,5.01,-2.72,-0.82,2,0
16943.312,0.3,0.036,1.089,7.32,-6.53,-7.35,2,0
16943.328,0.236,0.028,1.242,31.62,-15.72,-13.46,2,0
16943.328,0.293,0.096,1.14,62.04,-29.79,-10.28,2,0
16943.343,0.337,0.208,0.918,67.81,-39.16,-8.79,2,0
16943.359,0.39,0.247,0.888,56.52,-38.03,-7.54,2,0
16943.359,0.384,0.16,0.949,56.0,-28.47,-5.25,2,0
16943.375,0.336,0.221,0.907,67.42,-21.09,1.71,2,0
16943.39,0.327,0.31,0.831,67.84,-17.85,10.07,2,0
16943.406,0.357,0.319,0.791,58.32,-11.66,12.85,2,0
16943.406,0.322,0.281,0.789,53.53,-1.92,16.27,2,0
16943.421,0.355,0.306,0.799,52.19,6.29,22.37,2,0
16943.421,0.37,0.34,0.781,50.9,15.11,25.64,2,0
16943.437,0.366,0.339,0.774,48.95,24.99,29.05,2,0
16943.453,0.342,0.337,0.775,43.03,33.33,31.65,2,0
16943.453,0.338,0.324,0.798,36.04,40.19,32.41,2,0
16943.468,0.328,0.293,0.816,31.04,45.63,31.46,2,0
16943.484,0.308,0.287,0.833,25.91,48.68,28.53,2,0
16943.484,0.264,0.331,0.897,18.52,47.88,25.03,2,0
16943.5,0.186,0.303,1.184,13.06,38.91,24.57,2,0
16943.5,0.304,0.14,1.217,17.67,13.03,22.55,2,0
16943.515,0.421,0.17,1.05,19.59,-6.29,10.53,2,0
16943.531,0.411,0.154,0.932,25.06,-11.11,-3.17,2,0
16943.531,0.399,0.205,0.864,29.02,-10.47,-10.1,2,0
16943.546,0.394,0.293,0.852,23.38,-10.5,-15.56,2,0
16943.562,0.384,0.342,0.851,12.54,-12.05,-21.7,2,0
16943.562,0.352,0.391,0.85,1.07,-12.42,-24.93,2,0
16943.578,0.337,0.392,0.827,-6.93,-11.2,-23.32,2,0
16943.593,0.323,0.4,0.802,-14.25,-7.02,-18.92,2,0
16943.593,0.297,0.368,0.803,-17.61,-1.62,-13.92,2,0
16943.609,0.288,0.323,0.829,-17.46,2.72,-9.03,2,0
16943.625,0.266,0.297,0.855,-14.01,6.13,-5.43,2,0
16943.625,0.246,0.303,0.874,-9.49,7.78,-1.65,2,0
16943.64,0.243,0.286,0.835,-7.11,8.42,2.26,2,0
16943.64,0.273,0.281,0.808,-11.44,10.41,6.07,2,0
16943.656,0.26,0.258,0.842,-18.56,11.78,6.87,2,0
16943.671,0.252,0.25,0.88,-23.13,10.38,6.59,2,0
16943.671,0.272,0.241,0.908,-26.18,6.93,5.49,2,0
16943.687,0.282,0.243,0.944,-28.17,2.99,1.83,2,0
16943.703,0.307,0.266,0.975,-25.21,-1.1,-2.04,2,0
16943.703,0.337,0.282,0.974,-18.86,-4.03,-4.49,2,0
16943.718,0.353,0.302,0.967,-11.44,-5.16,-6.26,2,0
16943.734,0.365,0.329,0.937,-3.85,-4.97,-7.08,2,0
16943.734,0.357,0.34,0.887,-0.12,-4.03,-8.18,2,0
16943.75,0.333,0.333,0.852,-3.78,-3.33,-10.86,2,0
16943.75,0.309,0.313,0.855,-12.3,-3.6,-13.58,2,0
16943.765,0.295,0.277,0.859,-19.99,-4.0,-15.63,2,0
16943.781,0.303,0.252,0.879,-24.23,-4.27,-17.76,2,0
16943.796,0.304,0.254,0.896,-24.9,-4.06,-19.07,2,0
16943.796,0.316,0.256,0.916,-24.72,-4.0,-18.8,2,0
16943.812,0.325,0.253,0.945,-23.87,-4.49,-19.2,2,0
16943.812,0.325,0.241,0.941,-21.85,-5.49,-20.6,2,0
16943.828,0.327,0.218,0.942,-19.17,-6.07,-22.43,2,0
16943.828,0.314,0.238,0.944,-14.37,-5.77,-23.68,2,0
16943.843,0.287,0.268,0.929,-8.94,-5.34,-22.71,2,0
16943.859,0.274,0.277,0.907,-7.97,-5.58,-19.5,2,0
16943.859,0.274,0.273,0.888,-10.44,-5.68,-16.48,2,0
16943.875,0.279,0.252,0.879,-12.73,-4.91,-14.65,2,0
16943.89,0.286,0.244,0.874,-14.65,-3.39,-13.61,2,0
16943.89,0.295,0.244,0.886,-17.61,-1.77,-13.58,2,0
16943.906,0.301,0.232,0.928,-20.51,-0.79,-14.04,2,0
16943.921,0.306,0.22,0.959,-19.47,-0.49,-14.28,2,0
16943.921,0.313,0.215,0.95,-15.5,-0.67,-14.22,2,0
16943.937,0.318,0.212,0.954,-11.75,-0.89,-15.05,2,0
16943.937,0.294,0.229,0.95,-8.24,-0.89,-16.45,2,0
16943.953,0.289,0.249,0.925,-7.2,-1.62,-15.96,2,0
16943.968,0.294,0.256,0.909,-8.73,-2.26,-15.63,2,0
16943.968,0.286,0.264,0.9,-9.8,-1.71,-14.56,2,0
16943.984,0.287,0.269,0.9,-11.41,-0.95,-12.63,2,0
16944.0,0.287,0.261,0.916,-13.92,-0.7,-10.74,2,0
16944.0,0.286,0.246,0.937,-15.17,-0.92,-9.31,2,0
16944.015,0.294,0.233,0.931,-14.89,-1.43,-8.61,2,0
16944.031,0.312,0.215,0.923,-15.11,-2.01,-9.43,2,0
16944.031,0.319,0.203,0.914,-15.35,-1.31,-11.66,2,0
16944.046,0.323,0.198,0.916,-15.59,0.09,-14.22,2,0
16944.046,0.309,0.194,0.95,-14.74,1.59,-16.69,2,0
16944.062,0.288,0.204,0.959,-10.99,1.92,-17.46,2,0
16944.078,0.285,0.221,0.94,-7.93,1.53,-16.51,2,0
16944.093,0.275,0.229,0.935,-7.05,1.77,-15.44,2,0
16944.093,0.261,0.23,0.934,-6.26,2.04,-13.37,2,0
16944.109,0.264,0.231,0.939,-5.55,1.53,-10.5,2,0
16944.109,0.267,0.232,0.945,-4.76,0.92,-8.39,2,0
16944.125,0.277,0.235,0.933,-3.66,0.95,-6.56,2,0
16944.14,0.298,0.232,0.923,-4.61,1.04,-5.92,2,0
16944.14,0.3,0.227,0.941,-5.95,1.74,-6.44,2,0
16944.156,0.292,0.212,0.946,-5.1,2.47,-6.68,2,0
16944.171,0.293,0.204,0.93,-4.12,2.72,-6.99,2,0
16944.171,0.284,0.21,0.937,-3.78,2.96,-7.48,2,0
16944.187,0.277,0.198,0.942,-2.35,3.2,-7.48,2,0
16944.203,0.278,0.205,0.932,-1.4,2.59,-7.29,2,0
16944.203,0.273,0.219,0.925,-1.19,2.23,-7.45,2,0
16944.218,0.277,0.229,0.919,-1.46,1.98,-6.62,2,0
16944.234,0.29,0.231,0.919,-2.72,2.11,-6.2,2,0
16944.234,0.291,0.221,0.931,-3.85,2.78,-6.87,2,0
16944.25,0.288,0.211,0.937,-3.72,3.57,-7.51,2,0
16944.25,0.289,0.201,0.949,-2.75,4.18,-8.48,2,0
16944.265,0.269,0.202,0.957,0.95,4.24,-8.55,2,0
16944.281,0.258,0.212,0.954,2.75,3.3,-7.05,2,0
16944.281,0.254,0.224,0.952,3.2,2.2,-5.49,2,0
16944.296,0.251,0.236,0.945,2.26,0.89,-3.78,2,0
16944.312,0.247,0.258,0.935,0.4,-0.43,-1.56,2,0
16944.312,0.269,0.245,0.917,-2.01,-1.13,0.46,2,0
16944.328,0.284,0.218,0.926,-4.03,-0.92,0.95,2,0
16944.328,0.284,0.188,0.941,-3.45,-0.43,0.21,2,0
16944.343,0.284,0.181,0.95,-1.16,-0.21,-0.89,2,0
16944.359,0.281,0.189,0.947,0.64,-0.7,-2.53,2,0
16944.359,0.281,0.205,0.944,2.23,-0.92,-3.6,2,0
16944.375,0.282,0.219,0.934,3.51,-0.21,-3.91,2,0
16944.39,0.278,0.229,0.936,3.17,0.55,-4.3,2,0
16944.39,0.267,0.234,0.933,2.47,1.22,-4.61,2,0
16944.406,0.263,0.233,0.934,1.5,1.77,-4.43,2,0
16944.421,0.26,0.234,0.943,0.67,2.14,-3.63,2,0
16944.421,0.263,0.22,0.915,0.46,1.95,-2.26,2,0
16944.437,0.272,0.214,0.938,-0.82,2.41,-1.59,2,0
16944.437,0.264,0.201,0.964,0.64,1.5,-1.8,2,0
16944.453,0.274,0.208,0.943,2.53,-0.24,-2.23,2,0
16944.468,0.294,0.208,0.928,3.54,-0.09,-3.33,2,0
16944.468,0.301,0.202,0.937,4.49,1.28,-5.34,2,0
16944.484,0.29,0.204,0.944,6.23,2.99,-7.69,2,0
16944.5,0.29,0.206,0.858,7.35,4.46,-9.4,2,0
16944.5,0.31,0.235,0.892,1.4,9.8,-10.71,2,0
16944.515,0.237,0.217,0.988,3.51,12.15,-11.72,2,0
16944.531,0.217,0.26,0.955,4.79,8.09,-9.77,2,0
16944.531,0.236,0.261,0.921,3.27,5.43,-7.51,2,0
16944.546,0.239,0.258,0.931,0.49,4.91,-5.58,2,0
16944.562,0.232,0.25,0.974,-0.4,4.82,-3.2,2,0
16944.562,0.23,0.232,0.971,0.43,2.62,-1.4,2,0
16944.578,0.229,0.228,0.951,0.67,0.46,-0.06,2,0
16944.593,0.239,0.232,0.928,0.73,-0.61,1.28,2,0
16944.593,0.246,0.233,0.926,-0.12,-0.89,2.14,2,0
16944.609,0.256,0.237,0.933,-0.89,-1.43,2.72,2,0
16944.609,0.264,0.241,0.934,-1.62,-2.14,2.41,2,0
16944.625,0.266,0.232,0.941,-2.26,-2.32,1.68,2,0
16944.64,0.27,0.22,0.942,-2.08,-2.26,0.85,2,0
16944.64,0.27,0.213,0.943,-1.46,-2.11,-0.27,2,0
16944.656,0.266,0.213,0.939,-0.37,-1.83,-1.25,2,0
16944.671,0.261,0.233,0.938,0.67,-1.07,-2.38,2,0
16944.687,0.255,0.233,0.938,0.95,-1.01,-2.75,2,0
16944.687,0.258,0.23,0.931,0.79,-0.92,-2.53,2,0
16944.703,0.262,0.228,0.936,0.49,-0.61,-2.5,2,0
16944.718,0.261,0.229,0.947,0.61,-0.37,-3.02,2,0
16944.718,0.252,0.238,0.942,1.16,0.0,-2.72,2,0
16944.734,0.244,0.233,0.932,1.1,0.18,-1.62,2,0
16944.75,0.247,0.223,0.934,0.27,-0.31,-0.98,2,0
16944.75,0.253,0.226,0.933,0.21,-0.61,-0.15,2,0
16944.765,0.255,0.229,0.933,-0.03,-0.73,0.21,2,0
16944.781,0.263,0.231,0.933,-0.55,-1.19,-0.12,2,0
16944.781,0.268,0.228,0.938,-0.46,-1.04,-0.79,2,0
16944.796,0.265,0.222,0.943,-0.15,-0.79,-1.71,2,0
16944.812,0.264,0.224,0.943,0.06,-0.7,-2.75,2,0
16944.812,0.256,0.228,0.949,0.76,-0.31,-3.14,2,0
16944.828,0.251,0.238,0.944,1.92,0.06,-2.75,2,0
16944.843,0.244,0.242,0.926,0.7,0.03,-0.89,2,0
16944.859,0.245,0.22,0.937,-0.34,0.09,0.0,2,0
16944.859,0.247,0.216,0.944,0.49,0.4,1.13,2,0
16944.875,0.232,0.205,0.961,2.32,1.01,2.17,2,0
16944.89,0.227,0.185,0.989,7.63,1.86,4.52,2,0
16944.906,0.23,0.178,0.997,18.1,1.77,8.0,2,0
16944.906,0.188,0.202,0.965,27.47,1.4,10.32,2,0
16944.921,0.156,0.247,0.946,30.85,-0.46,13.09,2,0
16944.921,0.123,0.336,0.981,29.85,-5.19,18.43,2,0
16944.937,0.176,0.396,0.873,21.85,-13.31,25.73,2,0
16944.953,0.206,0.381,0.851,7.45,-19.75,29.91,2,0
16944.953,0.276,0.292,0.888,-4.43,-22.86,33.2,2,0
16944.968,0.32,0.196,1.024,-14.07,-25.09,30.73,2,0
16944.968,0.34,0.197,1.061,-2.75,-28.35,26.67,2,0
16944.984,0.393,0.183,0.938,10.96,-27.41,26.58,2,0
16945.0,0.408,0.119,0.829,14.19,-21.73,19.5,2,0
16945.015,0.419,0.156,0.834,10.8,-3.3,1.4,2,0
16945.031,0.379,0.198,0.858,13.18,5.71,-5.04,2,0
16945.031,0.332,0.282,0.858,14.92,12.67,-7.45,2,0
16945.046,0.249,0.348,0.899,11.57,16.75,-7.42,2,0
16945.062,0.197,0.361,0.959,3.08,12.21,-6.04,2,0
16945.062,0.191,0.355,0.981,-5.1,1.56,-4.12,2,0
16945.078,0.215,0.332,0.959,-9.09,-8.39,-1.1,2,0
16945.078,0.255,0.299,0.906,-12.12,-13.43,3.3,2,0
16945.093,0.306,0.249,0.85,-15.29,-12.7,6.16,2,0
16945.109,0.344,0.211,0.853,-16.88,-6.26,7.29,2,0
16945.109,0.359,0.18,0.871,-14.62,1.95,6.44,2,0
16945.125,0.351,0.178,0.876,-12.27,8.97,3.42,2,0
16945.14,0.33,0.192,0.906,-11.41,14.71,-0.49,2,0
16945.156,0.3,0.204,0.943,-9.89,18.01,-3.97,2,0
16945.156,0.27,0.233,0.967,-8.39,18.22,-5.98,2,0
16945.171,0.256,0.256,0.977,-7.97,14.98,-6.9,2,0
16945.187,0.261,0.243,0.951,-8.73,7.29,-7.23,2,0
16945.203,0.264,0.239,0.929,-8.18,5.52,-6.16,2,0
16945.203,0.269,0.249,0.917,-8.64,4.91,-4.94,2,0
16945.218,0.271,0.261,0.917,-10.16,4.39,-4.18,2,0
16945.218,0.272,0.266,0.902,-12.79,3.54,-3.88,2,0
16945.234,0.276,0.276,0.894,-16.42,3.2,-3.27,2,0
16945.25,0.283,0.249,0.907,-19.71,5.25,-3.3,2,0
16945.25,0.265,0.215,0.917,-19.04,7.08,-1.1,2,0
16945.265,0.212,0.239,0.975,-14.31,3.57,5.34,2,0
16945.281,0.259,0.212,1.067,-9.86,-2.75,4.49,2,0
16945.281,0.264,0.18,1.002,-6.5,-7.9,3.39,2,0
16945.296,0.298,0.188,0.969,0.89,-10.1,3.85,2,0
16945.312,0.292,0.184,0.938,6.13,-9.55,1.43,2,0
16945.312,0.28,0.189,0.956,7.9,-9.52,-1.34,2,0
16945.328,0.283,0.192,0.955,9.86,-11.41,-3.75,2,0
16945.343,0.293,0.202,0.907,10.13,-12.76,-5.68,2,0
16945.343,0.297,0.237,0.871,8.06,-10.96,-6.29,2,0
16945.359,0.298,0.243,0.894,5.92,-6.93,-5.68,2,0
16945.359,0.294,0.231,0.907,4.7,-3.91,-5.4,2,0
16945.375,0.287,0.245,0.925,2.87,-2.01,-5.1,2,0
16945.39,0.274,0.247,0.929,2.14,-0.52,-4.33,2,0
16945.39,0.278,0.216,0.941,1.16,-0.15,-4.06,2,0
16945.406,0.26,0.182,0.952,0.67,-1.04,-5.77,2,0
16945.421,0.249,0.18,0.955,2.01,-1.95,-6.1,2,0
16945.437,0.259,0.185,0.941,2.66,-3.08,-6.59,2,0
16945.437,0.253,0.194,0.936,2.32,-3.33,-7.81,2,0
16945.437,0.251,0.202,0.949,1.43,-3.23,-8.91,2,0
16945.453,0.252,0.202,0.968,0.31,-4.67,-10.8,2,0
16945.468,0.23,0.211,0.949,-1.13,-5.77,-12.45,2,0
16945.484,0.249,0.229,0.943,-2.59,-5.68,-10.22,2,0
16945.484,0.262,0.245,0.923,-2.11,-4.3,-6.93,2,0
16945.5,0.265,0.246,0.923,-2.62,-1.77,-4.55,2,0
16945.5,0.266,0.239,0.94,-4.49,-0.49,-3.54,2,0
16945.515,0.276,0.22,0.956,-6.2,-1.19,-3.97,2,0
16945.531,0.277,0.192,0.968,-5.83,-2.66,-5.37,2,0
16945.531,0.294,0.182,0.984,-3.17,-4.67,-6.99,2,0
16945.546,0.297,0.166,1.035,2.17,-6.62,-9.83,2,0
16945.562,0.267,0.158,0.979,10.19,-10.35,-13.49,2,0
16945.562,0.295,0.199,0.892,11.32,-13.86,-16.63,2,0
16945.578,0.296,0.283,0.919,7.42,-13.31,-20.63,2,0
16945.593,0.238,0.298,0.929,7.48,-13.09,-21.7,2,0
16945.593,0.241,0.325,0.866,4.97,-15.81,-16.08,2,0
16945.609,0.284,0.36,0.837,-1.07,-14.07,-8.18,2,0
16945.609,0.304,0.32,0.83,-6.65,-6.38,-1.13,2,0
16945.625,0.304,0.235,0.891,-12.33,2.04,4.91,2,0
16945.64,0.289,0.125,0.974,-11.99,9.06,7.9,2,0
16945.656,0.297,0.087,0.967,-7.08,14.04,7.6,2,0
16945.656,0.289,0.138,0.956,0.82,19.26,6.32,2,0
16945.671,0.263,0.18,0.945,8.97,22.71,5.46,2,0
16945.671,0.268,0.207,0.913,13.67,23.68,5.28,2,0
16945.687,0.281,0.252,0.862,12.3,25.33,4.39,2,0
16945.703,0.253,0.273,0.941,6.47,27.99,2.87,2,0
16945.703,0.23,0.253,0.919,6.53,25.48,3.23,2,0
16945.718,0.235,0.277,0.901,2.38,22.8,4.79,2,0
16945.718,0.248,0.258,0.951,-1.16,21.76,5.19,2,0
16945.734,0.225,0.245,1.002,0.64,18.95,5.01,2,0
16945.75,0.217,0.235,0.978,3.94,13.43,6.07,2,0
16945.765,0.22,0.243,0.928,3.54,6.56,6.01,2,0
16945.765,0.255,0.272,0.878,1.34,1.37,4.76,2,0
16945.781,0.27,0.313,0.862,-3.51,0.06,3.72,2,0
16945.781,0.274,0.323,0.873,-10.19,0.15,4.12,2,0
16945.796,0.274,0.304,0.872,-16.75,0.49,6.35,2,0
16945.812,0.28,0.232,0.871,-22.68,0.76,7.48,2,0
16945.812,0.294,0.169,0.899,-26.8,2.17,5.37,2,0
16945.828,0.297,0.154,0.948,-26.37,4.06,2.53,2,0
16945.843,0.291,0.135,0.984,-21.21,5.68,0.34,2,0
16945.843,0.277,0.12,1.006,-13.49,6.38,-2.17,2,0
16945.859,0.26,0.141,1.037,-4.03,5.77,-4.43,2,0
16945.859,0.234,0.176,1.057,5.55,2.59,-6.44,2,0
16945.875,0.228,0.204,1.027,12.21,-3.63,-7.14,2,0
16945.89,0.235,0.259,0.969,14.44,-7.87,-5.95,2,0
16945.89,0.236,0.286,0.92,14.47,-8.76,-4.85,2,0
16945.906,0.219,0.298,0.892,11.87,-8.03,-2.53,2,0
16945.921,0.218,0.287,0.883,6.29,-7.57,0.31,2,0
16945.921,0.226,0.277,0.9,-1.25,-7.42,2.69,2,0
16945.937,0.232,0.259,0.921,-6.41,-6.87,4.67,2,0
16945.953,0.243,0.226,0.942,-8.24,-5.89,6.9,2,0
16945.968,0.243,0.199,0.97,-8.3,-5.52,8.03,2,0
16945.968,0.23,0.176,1.003,-5.89,-6.23,7.97,2,0
16945.968,0.23,0.155,1.01,-1.92,-8.64,7.08,2,0
16945.984,0.242,0.161,0.988,2.35,-11.05,6.13,2,0
16946.0,0.248,0.17,0.961,5.49,-11.93,4.49,2,0
16946.0,0.249,0.176,0.936,6.74,-11.29,2.84,2,0
16946.015,0.243,0.189,0.93,6.13,-9.43,1.71,2,0
16946.031,0.25,0.21,0.94,5.49,-7.75,2.75,2,0
16946.046,0.268,0.233,0.924,5.71,-5.01,6.56,2,0
16946.062,0.277,0.228,0.911,4.03,-3.48,6.81,2,0
16946.062,0.29,0.217,0.905,1.92,-1.92,6.23,2,0
16946.078,0.288,0.215,0.916,0.46,0.15,5.19,2,0
16946.093,0.284,0.212,0.93,0.49,2.44,4.36,2,0
16946.093,0.275,0.21,0.95,1.5,4.09,3.72,2,0
16946.109,0.265,0.209,0.96,3.33,4.85,3.36,2,0
16946.109,0.26,0.212,0.951,5.37,5.01,3.81,2,0
16946.125,0.26,0.213,0.939,6.74,5.22,4.3,2,0
16946.14,0.258,0.215,0.926,7.6,5.71,4.88,2,0
16946.14,0.252,0.225,0.913,7.42,6.2,5.4,2,0
16946.156,0.253,0.235,0.91,6.26,6.16,6.13,2,0
16946.171,0.248,0.249,0.924,4.49,5.86,6.68,2,0
16946.171,0.239,0.255,0.935,3.23,4.85,7.84,2,0
16946.187,0.243,0.247,0.936,1.95,3.57,9.95,2,0
16946.203,0.248,0.241,0.943,1.01,3.3,11.9,2,0
16946.218,0.256,0.21,0.963,1.89,4.7,14.98,2,0
16946.218,0.257,0.202,0.97,3.91,6.32,16.17,2,0
16946.234,0.256,0.196,0.979,10.35,7.17,15.66,2,0
16946.25,0.253,0.198,0.971,13.25,7.11,15.44,2,0
16946.25,0.25,0.213,0.96,14.83,7.02,15.63,2,0
16946.265,0.224,0.243,0.961,16.05,5.95,16.45,2,0
16946.281,0.224,0.261,0.951,15.96,4.36,18.56,2,0
16946.296,0.228,0.268,0.941,15.69,3.23,20.81,2,0
16946.296,0.232,0.273,0.919,14.53,2.47,22.74,2,0
16946.312,0.234,0.272,0.905,10.99,1.62,23.71,2,0
16946.312,0.246,0.256,0.895,6.44,0.58,23.59,2,0
16946.328,0.262,0.229,0.889,2.2,0.06,23.01,2,0
16946.343,0.279,0.201,0.893,-0.31,0.12,21.36,2,0
16946.343,0.288,0.182,0.914,-1.1,0.31,18.62,2,0
16946.359,0.29,0.175,0.945,-0.46,-0.73,15.32,2,0
16946.359,0.29,0.174,0.97,1.71,-2.87,11.81,2,0
16946.375,0.289,0.189,0.967,4.79,-5.89,8.58,2,0
16946.39,0.286,0.209,0.949,8.06,-8.33,5.19,2,0
16946.406,0.277,0.226,0.93,10.01,-9.8,2.32,2,0
16946.406,0.266,0.252,0.924,8.85,-10.83,0.58,2,0
16946.406,0.264,0.269,0.905,6.07,-11.72,0.06,2,0
16946.421,0.265,0.283,0.905,2.38,-11.35,1.19,2,0
16946.437,0.263,0.28,0.899,-1.43,-10.71,2.62,2,0
16946.453,0.268,0.265,0.899,-5.19,-9.86,3.85,2,0
16946.453,0.278,0.246,0.91,-8.21,-9.34,4.73,2,0
16946.468,0.28,0.22,0.921,-9.98,-8.88,4.46,2,0
16946.468,0.286,0.206,0.934,-10.8,-8.91,3.05,2,0
16946.484,0.29,0.202,0.948,-10.1,-9.4,0.67,2,0
16946.5,0.293,0.204,0.952,-8.45,-10.32,-1.53,2,0
16946.5,0.297,0.207,0.95,-6.62,-11.08,-3.66,2,0
16946.515,0.298,0.211,0.942,-5.34,-11.54,-5.95,2,0
16946.531,0.294,0.216,0.933,-4.76,-11.75,-7.97,2,0
16946.531,0.289,0.219,0.928,-4.36,-11.78,-9.22,2,0
16946.546,0.288,0.226,0.924,-4.24,-11.51,-9.46,2,0
16946.562,0.288,0.235,0.922,-4.33,-10.77,-9.06,2,0
16946.562,0.288,0.237,0.92,-4.79,-9.67,-8.48,2,0
16946.578,0.288,0.236,0.92,-5.71,-8.48,-8.06,2,0
16946.593,0.28,0.244,0.943,-6.65,-7.66,-7.69,2,0
16946.593,0.268,0.237,0.954,-6.2,-8.21,-7.02,2,0
16946.609,0.27,0.226,0.942,-5.98,-10.01,-5.4,2,0
16946.609,0.279,0.222,0.94,-6.29,-11.35,-4.39,2,0
16946.625,0.285,0.216,0.933,-5.74,-12.24,-3.97,2,0
16946.64,0.292,0.211,0.931,-5.4,-12.57,-3.48,2,0
16946.656,0.301,0.211,0.93,-5.19,-12.6,-3.17,2,0
16946.656,0.311,0.209,0.923,-4.43,-12.05,-2.81,2,0
16946.671,0.314,0.201,0.923,-3.14,-10.83,-2.66,2,0
16946.671,0.312,0.203,0.929,-1.8,-9.22,-2.5,2,0
16946.687,0.311,0.204,0.933,-0.73,-8.09,-2.59,2,0
16946.703,0.312,0.205,0.93,0.12,-7.51,-3.17,2,0
16946.703,0.314,0.209,0.926,0.98,-6.56,-3.88,2,0
16946.718,0.313,0.212,0.929,1.95,-5.37,-4.7,2,0
16946.718,0.309,0.217,0.935,2.62,-4.88,-5.46,2,0
16946.734,0.308,0.216,0.931,3.17,-5.07,-5.71,2,0
16946.75,0.304,0.212,0.926,3.63,-5.4,-5.92,2,0
16946.75,0.306,0.216,0.923,3.51,-5.83,-6.26,2,0
16946.765,0.313,0.225,0.915,3.42,-6.26,-6.47,2,0
16946.781,0.312,0.227,0.911,3.14,-5.95,-6.78,2,0
16946.781,0.312,0.237,0.91,2.59,-5.65,-6.65,2,0
16946.796,0.312,0.244,0.904,2.17,-5.04,-6.29,2,0
16946.812,0.313,0.245,0.897,1.37,-3.88,-5.55,2,0
16946.812,0.316,0.243,0.903,-0.24,-2.75,-5.04,2,0
16946.828,0.313,0.241,0.916,-1.74,-1.56,-4.49,2,0
16946.828,0.307,0.235,0.933,-1.53,-0.37,-3.6,2,0
16946.843,0.297,0.218,0.947,-0.34,0.31,-2.69,2,0
16946.859,0.288,0.207,0.957,0.76,-0.06,-1.83,2,0
16946.875,0.292,0.209,0.956,1.98,-1.16,-0.98,2,0
16946.875,0.303,0.204,0.951,4.85,-1.86,-0.37,2,0
16946.89,0.3,0.211,0.958,9.03,-1.01,0.7,2,0
16946.89,0.279,0.23,0.959,12.54,-0.34,2.11,2,0
16946.906,0.256,0.231,0.971,15.05,-2.04,4.0,2,0
16946.921,0.245,0.248,0.972,15.44,-7.23,6.16,2,0
16946.921,0.247,0.278,0.972,15.26,-13.76,8.82,2,0
16946.937,0.252,0.292,0.984,15.93,-19.99,12.54,2,0
16946.937,0.3,0.26,0.969,17.15,-25.06,16.54,2,0
16946.953,0.334,0.241,0.955,17.09,-28.5,16.91,2,0
16946.968,0.371,0.222,0.875,17.27,-28.72,14.31,2,0
16946.968,0.399,0.21,0.836,17.73,-23.9,11.66,2,0
16946.984,0.411,0.213,0.824,17.12,-16.85,8.64,2,0
16947.0,0.419,0.234,0.824,15.2,-9.52,5.13,2,0
16947.0,0.416,0.248,0.832,13.89,-2.35,2.08,2,0
16947.015,0.395,0.254,0.846,12.88,3.78,-0.85,2,0
16947.031,0.363,0.269,0.878,11.05,7.63,-3.27,2,0
16947.031,0.335,0.28,0.908,8.79,8.27,-4.61,2,0
16947.046,0.309,0.278,0.926,5.74,6.35,-5.07,2,0
16947.062,0.298,0.27,0.955,2.44,1.74,-5.25,2,0
16947.062,0.313,0.257,0.961,1.04,-4.27,-5.46,2,0
16947.078,0.334,0.245,0.953,1.4,-9.03,-6.99,2,0
16947.093,0.356,0.24,0.943,3.05,-11.57,-9.67,2,0
16947.093,0.385,0.25,0.936,5.22,-11.99,-13.12,2,0
16947.109,0.395,0.266,0.934,7.78,-10.65,-18.04,2,0
16947.109,0.386,0.281,0.938,11.81,-9.16,-23.22,2,0
16947.125,0.368,0.3,0.945,16.79,-8.39,-26.67,2,0
16947.14,0.351,0.318,0.94,21.09,-9.34,-28.17,2,0
16947.14,0.339,0.33,0.942,24.66,-11.47,-28.81,2,0
16947.156,0.332,0.35,0.95,27.28,-14.28,-28.47,2,0
16947.171,0.332,0.384,0.955,27.16,-18.52,-26.83,2,0
16947.171,0.35,0.409,0.962,23.01,-23.9,-25.85,2,0
16947.187,0.37,0.429,0.969,15.99,-29.33,-26.92,2,0
16947.187,0.372,0.448,0.977,7.84,-34.0,-30.12,2,0
16947.203,0.373,0.445,0.98,4.03,-38.27,-36.19,2,0
16947.218,0.374,0.45,0.987,14.65,-42.94,-48.28,2,0
16947.234,0.367,0.473,0.979,23.77,-43.58,-52.13,2,0
16947.234,0.357,0.487,0.957,31.68,-43.09,-54.14,2,0
16947.25,0.337,0.506,0.938,38.15,-42.33,-53.96,2,0
16947.265,0.289,0.543,0.909,40.89,-43.64,-52.28,2,0
16947.265,0.279,0.571,0.893,39.28,-45.93,-50.05,2,0
16947.281,0.27,0.573,0.891,33.42,-50.29,-48.4,2,0
16947.281,0.286,0.562,0.896,26.7,-56.31,-48.4,2,0
16947.296,0.3,0.531,0.889,25.03,-61.22,-50.17,2,0
16947.312,0.304,0.506,0.876,28.41,-64.82,-54.48,2,0
16947.312,0.304,0.489,0.846,35.28,-67.87,-60.79,2,0
16947.328,0.305,0.485,0.81,43.64,-70.56,-68.03,2,0
16947.343,0.303,0.49,0.774,50.84,-72.45,-76.33,2,0
16947.343,0.296,0.495,0.748,57.13,-74.22,-84.99,2,0
16947.359,0.293,0.513,0.724,63.78,-75.53,-92.23,2,0
16947.359,0.286,0.541,0.703,70.86,-75.75,-97.54,2,0
16947.375,0.281,0.567,0.676,77.73,-75.66,-100.86,2,0
16947.39,0.281,0.596,0.649,82.28,-75.17,-102.82,2,0
16947.39,0.276,0.621,0.627,84.41,-74.01,-104.16,2,0
16947.406,0.263,0.622,0.601,85.76,-73.0,-104.34,2,0
16947.421,0.252,0.613,0.571,87.1,-71.66,-103.67,2,0
16947.421,0.25,0.613,0.539,88.84,-69.55,-102.85,2,0
16947.437,0.257,0.614,0.509,91.25,-66.38,-103.0,2,0
16947.453,0.26,0.613,0.484,93.63,-61.8,-103.89,2,0
16947.453,0.248,0.616,0.469,95.1,-56.18,-105.5,2,0
16947.468,0.234,0.614,0.46,96.32,-50.11,-106.94,2,0
16947.468,0.208,0.618,0.461,96.38,-44.25,-107.52,2,0
16947.484,0.172,0.615,0.467,94.64,-40.16,-106.94,2,0
16947.5,0.146,0.604,0.475,89.91,-38.7,-105.56,2,0
16947.5,0.126,0.582,0.485,83.9,-39.09,-104.43,2,0
16947.515,0.104,0.536,0.473,79.41,-40.28,-104.28,2,0
16947.531,0.092,0.482,0.445,76.63,-40.99,-105.2,2,0
16947.531,0.09,0.443,0.415,75.72,-39.64,-108.13,2,0
16947.546,0.102,0.428,0.387,75.96,-36.53,-112.92,2,0
16947.562,0.108,0.422,0.362,75.62,-31.74,-118.59,2,0
16947.562,0.099,0.42,0.349,74.34,-25.82,-124.09,2,0
16947.578,0.08,0.421,0.337,72.54,-20.54,-128.76,2,0
16947.593,0.072,0.434,0.326,70.47,-16.21,-132.05,2,0
16947.593,0.067,0.476,0.32,68.15,-12.42,-134.53,2,0
16947.609,0.056,0.509,0.317,64.61,-10.71,-136.51,2,0
16947.609,0.066,0.541,0.324,59.88,-11.08,-135.87,2,0
16947.625,0.084,0.563,0.32,55.91,-11.57,-133.09,2,0
16947.64,0.104,0.565,0.301,52.77,-11.14,-128.88,2,0
16947.64,0.133,0.57,0.288,49.13,-8.76,-122.96,2,0
16947.656,0.167,0.588,0.297,44.95,-4.55,-116.67,2,0
16947.671,0.182,0.567,0.284,41.2,-0.15,-111.61,2,0
16947.671,0.179,0.592,0.263,34.15,3.57,-106.39,2,0
16947.687,0.196,0.63,0.261,26.49,8.21,-101.29,2,0
16947.703,0.201,0.63,0.275,20.2,13.18,-97.17,2,0
16947.703,0.206,0.636,0.293,16.39,17.98,-93.42,2,0
16947.718,0.217,0.664,0.322,15.78,22.46,-90.4,2,0
16947.734,0.229,0.708,0.355,18.19,27.13,-87.86,2,0
16947.734,0.262,0.758,0.398,23.04,33.05,-84.05,2,0
16947.75,0.3,0.84,0.443,30.95,41.84,-78.62,2,0
16947.75,0.292,0.969,0.458,37.72,52.71,-71.5,2,0
16947.765,0.263,1.082,0.477,37.48,62.56,-62.29,2,0
16947.781,0.228,1.093,0.508,33.08,69.67,-52.55,2,0
16947.781,0.175,1.085,0.501,26.28,72.88,-45.11,2,0
16947.796,0.118,1.094,0.535,17.76,72.39,-40.31,2,0
16947.812,0.055,1.079,0.609,14.92,67.48,-38.36,2,0
16947.812,-0.024,1.031,0.646,19.87,55.64,-37.2,2,0
16947.828,-0.056,0.989,0.603,27.34,36.84,-37.39,2,0
16947.843,-0.069,1.021,0.534,35.55,18.83,-36.93,2,0
16947.843,-0.074,1.007,0.485,42.15,3.75,-35.86,2,0
16947.859,-0.049,0.955,0.41,46.88,-9.8,-37.14,2,0
16947.875,0.021,0.98,0.32,50.11,-16.82,-39.52,2,0
16947.875,-0.012,1.052,0.287,48.19,-16.54,-47.33,2,0
16947.89,-0.031,1.01,0.322,44.62,-11.72,-44.53,2,0
16947.89,-0.04,1.038,0.361,48.83,-7.81,-40.71,2,0
16947.906,-0.042,1.131,0.334,58.08,-4.97,-40.86,2,0
16947.921,-0.049,1.228,0.285,60.55,1.74,-37.48,2,0
16947.921,-0.062,1.316,0.289,51.76,10.99,-34.3,2,0
16947.937,-0.078,1.295,0.339,41.63,19.14,-34.15,2,0
16947.953,-0.087,1.282,0.388,40.41,25.12,-36.13,2,0
16947.953,-0.102,1.356,0.426,47.61,28.75,-38.88,2,0
16947.968,-0.161,1.423,0.435,56.43,30.7,-37.05,2,0
16947.968,-0.246,1.473,0.421,59.54,28.57,-28.44,2,0
16947.984,-0.286,1.487,0.378,52.86,20.75,-10.96,2,0
16948.0,-0.253,1.498,0.323,35.83,8.06,7.26,2,0
16948.0,-0.191,1.465,0.286,13.46,-3.85,22.25,2,0
16948.015,-0.131,1.362,0.263,-5.22,-10.71,32.5,2,0
16948.031,-0.108,1.266,0.26,-14.59,-11.32,39.0,2,0
16948.046,-0.125,1.175,0.258,-12.6,-7.69,46.17,2,0
16948.046,-0.143,1.157,0.228,-4.73,-4.73,53.9,2,0
16948.062,-0.21,1.1,0.183,-1.56,-4.15,63.33,2,0
16948.062,-0.278,1.005,0.134,-8.27,-8.76,78.22,2,0
16948.078,-0.257,0.939,0.083,-22.8,-17.85,95.28,2,0
16948.093,-0.195,0.851,0.05,-40.28,-25.57,105.23,2,0
16948.093,-0.121,0.781,0.056,-57.16,-30.12,105.2,2,0
16948.109,-0.042,0.711,0.104,-65.16,-30.92,97.72,2,0
16948.125,0.003,0.706,0.159,-59.24,-27.71,82.13,2,0
16948.125,0.02,0.725,0.224,-41.51,-21.73,64.82,2,0
16948.14,0.021,0.828,0.282,-15.84,-15.75,48.49,2,0
16948.14,-0.014,0.962,0.309,8.82,-10.04,37.69,2,0
16948.156,-0.047,1.088,0.319,24.23,-5.8,37.57,2,0
16948.171,-0.066,1.198,0.324,29.63,-4.55,45.66,2,0
16948.171,-0.089,1.254,0.292,23.13,-5.8,60.0,2,0
16948.187,-0.077,1.241,0.26,5.46,-8.3,78.34,2,0
16948.203,-0.007,1.192,0.266,-15.69,-9.98,97.17,2,0
16948.203,0.04,1.121,0.283,-36.44,-5.65,117.37,2,0
16948.218,0.069,1.031,0.313,-35.0,-1.83,123.48,2,0
16948.218,0.084,0.961,0.339,-29.27,0.55,127.32,2,0
16948.234,0.15,0.83,0.337,-24.14,1.62,127.84,2,0
16948.25,0.173,0.788,0.349,-17.88,2.66,123.91,2,0
16948.265,0.165,0.77,0.37,-9.06,2.69,116.18,2,0
16948.265,0.126,0.814,0.397,1.59,-1.25,105.87,2,0
16948.281,0.083,0.87,0.428,12.36,-10.32,96.32,2,0
16948.281,0.056,0.927,0.445,22.06,-23.04,87.56,2,0
16948.296,-0.001,1.022,0.442,33.14,-39.12,73.67,2,0
16948.312,-0.026,1.078,0.403,48.59,-58.02,57.31,2,0
16948.312,0.218,1.213,0.382,55.94,-67.32,53.83,2,0
16948.328,0.407,1.47,0.385,48.59,-52.71,59.02,2,0
16948.343,0.366,1.622,0.359,35.65,-27.04,64.82,2,0
16948.343,0.326,1.617,0.368,12.05,-4.46,80.57,2,0
16948.359,0.278,1.547,0.401,-16.6,12.67,102.73,2,0
16948.359,0.242,1.401,0.437,-38.18,20.69,120.73,2,0
16948.375,0.224,1.245,0.452,-52.43,19.96,128.82,2,0
16948.39,0.169,1.149,0.479,-64.0,14.4,125.68,2,0
16948.39,0.166,1.14,0.519,-72.48,5.4,112.58,2,0
16948.406,0.12,1.158,0.54,-76.11,-4.06,87.31,2,0
16948.421,0.103,1.184,0.563,-81.7,-14.92,57.31,2,0
16948.421,0.079,1.096,0.587,-86.43,-23.35,33.54,2,0
16948.437,0.125,1.082,0.595,-82.03,-30.61,17.3,2,0
16948.453,0.142,0.952,0.593,-65.13,-33.45,9.7,2,0
16948.453,0.231,0.871,0.577,-41.02,-34.21,8.73,2,0
16948.468,0.267,0.813,0.536,-13.21,-32.2,10.47,2,0
16948.468,0.289,0.759,0.482,11.47,-30.82,11.17,2,0
16948.484,0.245,0.681,0.428,30.0,-32.99,10.13,2,0
16948.5,0.234,0.589,0.394,44.13,-38.36,9.95,2,0
16948.5,0.25,0.518,0.347,56.55,-44.62,8.64,2,0
16948.515,0.295,0.491,0.304,66.04,-47.98,6.96,2,0
16948.531,0.337,0.5,0.263,69.89,-48.62,4.39,2,0
16948.531,0.362,0.504,0.231,66.04,-47.46,3.08,2,0
16948.546,0.369,0.525,0.232,57.53,-44.28,2.99,2,0
16948.562,0.367,0.541,0.238,49.23,-41.05,4.06,2,0
16948.562,0.356,0.555,0.236,41.87,-38.88,6.5,2,0
16948.578,0.332,0.575,0.228,34.27,-37.9,10.32,2,0
16948.593,0.313,0.611,0.209,24.14,-38.09,15.14,2,0
16948.593,0.303,0.631,0.192,10.53,-39.61,19.71,2,0
16948.609,0.3,0.625,0.18,-6.04,-42.79,23.32,2,0
16948.609,0.322,0.623,0.18,-23.07,-46.82,24.02,2,0
16948.625,0.36,0.614,0.187,-37.02,-50.48,21.58,2,0
16948.64,0.396,0.607,0.199,-47.03,-52.89,16.21,2,0
16948.64,0.427,0.6,0.222,-51.12,-54.51,7.97,2,0
16948.656,0.451,0.591,0.242,-47.43,-56.03,-2.35,2,0
16948.671,0.472,0.593,0.248,-36.9,-58.53,-14.37,2,0
16948.687,0.493,0.595,0.247,-21.36,-61.34,-26.34,2,0
16948.687,0.527,0.632,0.227,-3.81,-63.81,-37.48,2,0
16948.703,0.553,0.69,0.204,11.6,-64.82,-46.91,2,0
16948.703,0.57,0.749,0.184,22.19,-64.55,-53.87,2,0
16948.718,0.586,0.799,0.16,28.5,-62.65,-57.13,2,0
16948.734,0.598,0.853,0.135,31.68,-60.0,-56.31,2,0
16948.734,0.618,0.897,0.128,32.11,-56.64,-51.67,2,0
16948.75,0.641,0.933,0.111,30.12,-52.83,-45.14,2,0
16948.765,0.653,0.95,0.104,25.15,-47.67,-36.96,2,0
16948.765,0.647,0.977,0.104,18.56,-42.54,-29.24,2,0
16948.781,0.626,0.968,0.11,11.69,-38.33,-22.0,2,0
16948.781,0.61,0.972,0.113,4.88,-35.49,-15.2,2,0
16948.796,0.591,0.963,0.113,-0.79,-33.75,-8.55,2,0
16948.812,0.571,0.942,0.109,-5.92,-33.17,-2.04,2,0
16948.812,0.55,0.913,0.098,-11.05,-34.0,4.39,2,0
16948.828,0.534,0.876,0.079,-15.75,-35.55,10.99,2,0
16948.843,0.524,0.861,0.049,-19.93,-36.9,16.88,2,0
16948.843,0.523,0.842,0.02,-23.93,-37.63,20.66,2,0
16948.859,0.519,0.809,-0.006,-27.19,-37.75,21.67,2,0
16948.859,0.509,0.782,-0.026,-28.78,-38.27,21.39,2,0
16948.875,0.502,0.765,-0.042,-27.95,-39.7,19.59,2,0
16948.89,0.502,0.754,-0.065,-25.51,-41.11,17.33,2,0
16948.89,0.497,0.742,-0.081,-22.4,-42.12,14.95,2,0
16948.906,0.489,0.736,-0.101,-18.16,-43.06,11.78,2,0
16948.921,0.485,0.726,-0.123,-12.51,-44.4,7.66,2,0
16948.937,0.487,0.725,-0.14,-5.46,-45.38,2.99,2,0
16948.937,0.489,0.739,-0.16,2.59,-45.11,-1.83,2,0
16948.953,0.497,0.745,-0.188,11.57,-43.64,-5.86,2,0
16948.953,0.511,0.758,-0.209,19.9,-40.31,-8.76,2,0
16948.968,0.519,0.773,-0.231,27.5,-35.0,-11.26,2,0
16948.984,0.53,0.786,-0.249,33.85,-28.35,-13.46,2,0
16948.984,0.532,0.807,-0.263,38.85,-20.63,-15.99,2,0
16949.0,0.529,0.824,-0.276,41.72,-12.05,-18.49,2,0
16949.0,0.521,0.837,-0.277,41.72,-3.63,-19.9,2,0
16949.015,0.519,0.836,-0.263,40.28,5.34,-19.14,2,0
16949.031,0.519,0.839,-0.245,39.98,14.1,-16.45,2,0
16949.031,0.519,0.839,-0.24,40.86,21.52,-14.19,2,0
16949.046,0.521,0.853,-0.231,40.1,28.08,-13.34,2,0
16949.062,0.529,0.848,-0.211,36.96,35.28,-11.72,2,0
16949.062,0.527,0.842,-0.193,32.69,41.87,-10.32,2,0
16949.078,0.532,0.839,-0.17,28.02,47.98,-7.66,2,0
16949.093,0.547,0.841,-0.138,23.68,54.11,-3.66,2,0
16949.093,0.555,0.842,-0.107,19.59,59.79,0.06,2,0
16949.109,0.562,0.834,-0.075,15.38,65.1,3.88,2,0
16949.125,0.564,0.828,-0.038,10.83,69.37,7.54,2,0
16949.125,0.562,0.815,-0.003,7.29,72.08,10.71,2,0
16949.14,0.555,0.8,0.031,5.1,73.46,13.86,2,0
16949.156,0.558,0.796,0.06,4.46,73.92,16.05,2,0
16949.156,0.549,0.785,0.08,4.27,73.92,16.54,2,0
16949.171,0.541,0.784,0.1,3.57,73.37,16.54,2,0
16949.171,0.538,0.792,0.115,1.98,72.15,15.75,2,0
16949.187,0.521,0.786,0.129,-4.49,69.09,15.11,2,0
16949.203,0.509,0.775,0.148,-7.84,66.74,15.9,2,0
16949.203,0.502,0.78,0.168,-9.98,63.78,15.93,2,0
16949.218,0.486,0.779,0.182,-11.32,60.3,16.24,2,0
16949.218,0.47,0.777,0.207,-11.29,56.25,16.02,2,0
16949.234,0.468,0.779,0.214,-9.98,52.22,15.05,2,0
16949.25,0.451,0.783,0.218,-7.97,48.55,12.21,2,0
16949.25,0.436,0.777,0.222,-5.98,44.83,8.88,2,0
16949.265,0.416,0.782,0.228,-3.17,40.71,5.52,2,0
16949.281,0.389,0.779,0.232,1.31,36.38,3.2,2,0
16949.281,0.382,0.786,0.231,7.54,31.34,1.31,2,0
16949.296,0.363,0.785,0.22,15.81,27.16,-0.67,2,0
16949.312,0.35,0.798,0.202,24.29,23.5,-2.53,2,0
16949.312,0.338,0.802,0.178,31.68,20.81,-4.24,2,0
16949.328,0.335,0.815,0.157,37.05,19.2,-6.01,2,0
16949.343,0.328,0.831,0.137,40.86,18.8,-9.22,2,0
16949.343,0.319,0.839,0.116,42.54,19.41,-12.94,2,0
16949.359,0.312,0.855,0.107,42.21,20.91,-15.75,2,0
16949.359,0.301,0.875,0.102,41.14,23.22,-16.91,2,0
16949.375,0.301,0.892,0.099,40.22,26.06,-16.75,2,0
16949.39,0.306,0.91,0.098,37.87,29.42,-15.38,2,0
16949.39,0.312,0.931,0.103,33.33,32.81,-13.92,2,0
16949.406,0.319,0.939,0.114,26.64,35.8,-12.7,2,0
16949.421,0.322,0.941,0.126,18.1,37.63,-12.05,2,0
16949.437,0.322,0.934,0.151,8.42,38.27,-11.75,2,0
16949.437,0.332,0.922,0.178,0.34,37.51,-12.05,2,0
16949.453,0.339,0.925,0.196,-4.21,35.74,-13.18,2,0
16949.453,0.339,0.926,0.21,-6.16,32.96,-14.68,2,0
16949.468,0.336,0.933,0.225,-6.07,28.96,-16.57,2,0
16949.484,0.335,0.951,0.238,-3.48,24.66,-18.92,2,0
16949.484,0.344,0.971,0.256,1.31,20.63,-20.57,2,0
16949.5,0.359,0.998,0.267,6.81,18.25,-21.21,2,0
16949.5,0.364,1.018,0.276,11.6,17.09,-20.91,2,0
16949.515,0.367,1.034,0.28,14.83,15.5,-20.39,2,0
16949.531,0.374,1.043,0.278,16.36,12.45,-19.41,2,0
16949.531,0.38,1.052,0.27,16.05,7.87,-18.25,2,0
16949.546,0.382,1.042,0.261,14.04,2.04,-16.82,2,0
16949.562,0.391,1.027,0.245,11.08,-4.79,-14.31,2,0
16949.562,0.411,1.013,0.226,8.61,-11.66,-11.72,2,0
16949.578,0.44,0.995,0.209,6.56,-17.09,-9.52,2,0
16949.578,0.464,0.969,0.194,5.22,-20.66,-7.78,2,0
16949.593,0.477,0.946,0.188,5.52,-22.55,-7.23,2,0
16949.609,0.482,0.935,0.186,8.0,-24.05,-7.54,2,0
16949.625,0.479,0.933,0.179,11.02,-26.98,-6.65,2,0
16949.625,0.485,0.944,0.172,13.67,-31.59,-5.65,2,0
16949.64,0.491,0.946,0.148,16.24,-36.29,-5.16,2,0
16949.64,0.491,0.938,0.122,17.33,-40.47,-4.06,2,0
16949.656,0.499,0.944,0.099,18.28,-44.19,-3.45,2,0
16949.671,0.504,0.94,0.072,19.93,-46.51,-3.17,2,0
16949.671,0.51,0.942,0.051,21.21,-46.97,-2.84,2,0
16949.687,0.51,0.963,0.029,22.1,-45.99,-3.33,2,0
16949.703,0.495,0.942,0.018,22.71,-43.89,-1.83,2,0
16949.703,0.5,0.954,0.01,24.93,-41.81,1.01,2,0
16949.718,0.502,0.961,-0.009,29.51,-39.03,3.66,2,0
16949.718,0.506,0.955,-0.035,34.0,-35.1,6.13,2,0
16949.734,0.51,0.96,-0.058,36.47,-30.82,7.08,2,0
16949.75,0.511,0.958,-0.067,36.71,-25.85,7.97,2,0
16949.765,0.503,0.961,-0.069,36.07,-20.69,9.13,2,0
16949.765,0.5,0.97,-0.059,35.43,-15.47,11.11,2,0
16949.781,0.481,0.98,-0.059,35.22,-10.86,13.15,2,0
16949.781,0.457,0.986,-0.044,33.94,-7.51,15.69,2,0
16949.796,0.41,1.044,-0.012,30.49,-7.02,19.62,2,0
16949.812,0.432,1.037,-0.032,30.21,-8.06,25.39,2,0
16949.812,0.409,0.982,-0.039,27.01,-8.3,26.76,2,0
16949.828,0.37,0.994,-0.016,19.35,-9.89,29.63,2,0
16949.843,0.387,0.998,-0.008,14.47,-12.94,33.78,2,0
16949.843,0.387,0.942,-0.031,11.2,-14.37,35.25,2,0
16949.859,0.396,0.913,-0.042,6.2,-13.58,35.89,2,0
16949.859,0.409,0.9,-0.047,3.78,-9.86,35.71,2,0
16949.875,0.405,0.871,-0.051,3.11,-3.72,33.81,2,0
16949.89,0.389,0.859,-0.04,2.9,3.36,31.83,2,0
16949.906,0.376,0.844,-0.022,4.64,9.64,30.49,2,0
16949.906,0.348,0.82,-0.022,7.72,14.25,27.83,2,0
16949.921,0.35,0.81,-0.016,10.28,17.15,25.24,2,0
16949.921,0.338,0.795,-0.019,14.37,18.98,21.33,2,0
16949.937,0.321,0.77,-0.024,18.71,19.96,17.21,2,0
16949.953,0.336,0.789,-0.009,20.6,19.71,12.42,2,0
16949.953,0.333,0.79,0.002,23.22,19.38,7.84,2,0
16949.968,0.335,0.799,0.008,26.46,19.1,4.7,2,0
16949.968,0.343,0.816,0.017,29.24,18.74,3.2,2,0
16949.984,0.348,0.833,0.025,31.07,18.16,1.22,2,0
16950.0,0.35,0.85,0.036,32.32,17.33,-1.53,2,0
16950.0,0.348,0.86,0.045,32.9,15.78,-4.24,2,0
16950.015,0.344,0.88,0.053,32.62,14.13,-6.74,2,0
16950.031,0.339,0.905,0.062,32.9,12.48,-8.76,2,0
16950.046,0.342,0.922,0.063,34.12,11.44,-10.22,2,0
16950.046,0.348,0.939,0.064,34.42,10.93,-10.59,2,0
16950.062,0.357,0.95,0.064,33.3,11.08,-10.13,2,0
16950.062,0.36,0.94,0.054,32.59,11.72,-8.61,2,0
16950.078,0.365,0.934,0.049,29.66,11.99,-6.01,2,0
16950.093,0.377,0.925,0.047,24.23,10.9,-3.11,2,0
16950.093,0.381,0.895,0.041,17.52,8.51,-0.49,2,0
16950.109,0.387,0.866,0.032,10.13,4.88,1.56,2,0
16950.125,0.397,0.846,0.021,3.66,0.76,2.47,2,0
16950.125,0.412,0.83,0.01,-1.43,-2.87,2.5,2,0
16950.14,0.427,0.822,-0.001,-5.13,-4.46,1.95,2,0
16950.14,0.437,0.821,-0.008,-6.9,-3.3,0.52,2,0
16950.156,0.44,0.809,-0.012,-6.65,-1.25,-1.16,2,0
16950.171,0.434,0.81,-0.011,-0.43,2.93,-3.2,2,0
16950.171,0.42,0.809,-0.005,5.98,3.33,-4.0,2,0
16950.187,0.422,0.806,-0.01,13.12,3.02,-6.38,2,0
16950.203,0.398,0.801,-0.029,18.8,0.46,-5.55,2,0
16950.203,0.415,0.782,-0.064,25.21,-2.96,-7.32,2,0
16950.218,0.432,0.777,-0.1,31.04,-5.58,-9.74,2,0
16950.218,0.451,0.78,-0.121,33.72,-7.02,-13.34,2,0
16950.234,0.463,0.782,-0.142,34.85,-6.84,-17.3,2,0
16950.25,0.477,0.789,-0.154,35.86,-5.52,-20.81,2,0
16950.265,0.472,0.791,-0.161,37.32,-3.36,-23.59,2,0
16950.265,0.482,0.799,-0.168,39.83,-1.74,-24.96,2,0
16950.281,0.484,0.807,-0.179,42.88,-0.15,-26.58,2,0
16950.281,0.477,0.806,-0.191,45.29,1.01,-27.31,2,0
16950.296,0.477,0.819,-0.201,47.0,1.5,-28.44,2,0
16950.312,0.466,0.82,-0.213,48.68,1.74,-29.88,2,0
16950.312,0.462,0.824,-0.225,50.39,1.43,-30.85,2,0
16950.328,0.464,0.826,-0.235,52.83,1.25,-30.61,2,0
16950.328,0.465,0.835,-0.245,56.15,1.28,-29.82,2,0
16950.343,0.463,0.845,-0.26,59.54,1.92,-29.24,2,0
16950.359,0.467,0.84,-0.281,62.17,3.08,-28.53,2,0
16950.359,0.471,0.846,-0.291,62.69,4.64,-29.02,2,0
16950.375,0.46,0.86,-0.297,62.29,6.81,-30.88,2,0
16950.39,0.436,0.87,-0.295,61.56,8.24,-32.56,2,0
16950.406,0.41,0.892,-0.287,60.46,8.24,-32.35,2,0
16950.406,0.387,0.913,-0.287,59.3,7.14,-31.13,2,0
16950.421,0.372,0.915,-0.293,57.8,5.49,-30.12,2,0
16950.421,0.36,0.918,-0.302,54.96,4.3,-29.33,2,0
16950.437,0.355,0.906,-0.316,51.36,3.91,-27.56,2,0
16950.453,0.346,0.897,-0.317,46.78,3.94,-25.15,2,0
16950.453,0.341,0.901,-0.316,42.76,4.52,-22.43,2,0
16950.468,0.343,0.908,-0.322,40.13,5.8,-20.02,2,0
16950.484,0.337,0.896,-0.33,36.99,7.48,-17.49,2,0
16950.484,0.336,0.875,-0.336,33.48,8.97,-15.2,2,0
16950.5,0.341,0.853,-0.342,30.61,11.14,-13.4,2,0
16950.5,0.336,0.84,-0.344,28.14,13.46,-13.06,2,0
16950.515,0.328,0.826,-0.344,26.4,15.56,-13.58,2,0
16950.531,0.327,0.816,-0.34,25.45,16.79,-13.89,2,0
16950.546,0.33,0.818,-0.338,25.42,17.88,-14.34,2,0
16950.546,0.328,0.809,-0.338,26.22,18.8,-14.53,2,0
16950.562,0.328,0.806,-0.332,26.83,19.26,-14.19,2,0
16950.562,0.335,0.815,-0.328,27.65,19.35,-14.59,2,0
16950.578,0.34,0.825,-0.333,28.66,19.41,-16.27,2,0
16950.578,0.339,0.825,-0.337,27.59,19.47,-17.88,2,0
16950.593,0.337,0.809,-0.338,26.64,19.38,-18.31,2,0
16950.609,0.349,0.809,-0.339,26.89,19.29,-18.49,2,0
16950.625,0.349,0.807,-0.348,29.18,19.53,-19.62,2,0
16950.625,0.354,0.813,-0.345,30.79,19.84,-21.52,2,0
16950.64,0.345,0.818,-0.351,33.17,20.2,-25.33,2,0
16950.64,0.329,0.779,-0.35,36.32,20.87,-26.37,2,0
16950.656,0.371,0.834,-0.35,41.23,20.66,-27.74,2,0
16950.671,0.353,0.848,-0.374,47.36,22.28,-32.41,2,0
16950.671,0.341,0.807,-0.374,49.41,23.87,-33.27,2,0
16950.687,0.361,0.842,-0.363,52.67,25.67,-32.62,2,0
16950.703,0.346,0.855,-0.375,59.57,26.73,-34.52,2,0
16950.703,0.328,0.834,-0.382,64.09,27.34,-35.74,2,0
16950.718,0.323,0.85,-0.383,67.08,26.76,-36.87,2,0
16950.718,0.315,0.856,-0.397,70.74,25.73,-38.76,2,0
16950.734,0.306,0.854,-0.414,74.1,26.0,-39.46,2,0
16950.75,0.31,0.874,-0.421,76.42,27.16,-38.58,2,0
16950.75,0.307,0.884,-0.437,78.71,29.08,-37.57,2,0
16950.765,0.29,0.894,-0.458,79.38,31.92,-35.49,2,0
16950.781,0.287,0.912,-0.468,76.54,34.33,-32.53,2,0
16950.781,0.266,0.911,-0.477,71.41,36.26,-30.24,2,0
16950.796,0.253,0.909,-0.481,63.57,36.74,-27.77,2,0
16950.812,0.239,0.903,-0.482,53.47,34.85,-24.99,2,0
16950.812,0.235,0.902,-0.484,42.97,33.05,-21.33,2,0
16950.828,0.229,0.902,-0.487,31.89,31.1,-17.46,2,0
16950.828,0.219,0.89,-0.481,19.96,28.05,-13.7,2,0
16950.843,0.221,0.885,-0.474,8.06,24.66,-9.8,2,0
16950.859,0.22,0.877,-0.467,-3.33,21.21,-5.62,2,0
16950.859,0.228,0.867,-0.458,-14.56,18.46,-1.71,2,0
16950.875,0.231,0.857,-0.447,-24.51,16.42,1.31,2,0
16950.89,0.241,0.853,-0.438,-33.75,14.44,4.33,2,0
16950.89,0.258,0.849,-0.427,-42.45,13.06,8.33,2,0
16950.906,0.264,0.858,-0.418,-50.54,12.36,12.97,2,0
16950.921,0.257,0.882,-0.422,-59.97,11.29,18.28,2,0
16950.921,0.253,0.903,-0.425,-74.04,8.97,24.51,2,0
16950.937,0.256,0.924,-0.425,-93.23,5.37,31.07,2,0
16950.953,0.258,0.939,-0.422,-115.21,1.46,37.69,2,0
16950.953,0.267,0.946,-0.412,-139.16,-3.17,45.29,2,0
16950.968,0.288,0.945,-0.39,-162.82,-7.66,53.01,2,0
16950.984,0.302,0.929,-0.363,-183.78,-11.32,59.27,2,0
16950.984,0.315,0.904,-0.332,-201.7,-14.53,64.06,2,0
16951.0,0.325,0.888,-0.298,-215.95,-17.7,67.08,2,0
16951.0,0.329,0.864,-0.263,-225.81,-20.84,68.58,2,0
16951.015,0.342,0.844,-0.229,-231.6,-23.22,70.16,2,0
16951.031,0.358,0.849,-0.196,-233.44,-24.57,71.35,2,0
16951.031,0.365,0.857,-0.173,-232.92,-24.69,71.32,2,0
16951.046,0.372,0.873,-0.154,-232.76,-23.77,71.63,2,0
16951.062,0.376,0.885,-0.131,-234.53,-22.74,72.6,2,0
16951.062,0.42,0.923,-0.107,-236.76,-20.45,72.51,2,0
16951.078,0.394,0.906,-0.09,-240.03,-15.96,73.18,2,0
16951.093,0.413,0.889,-0.052,-245.55,-12.51,76.51,2,0
16951.093,0.431,0.874,-0.006,-248.54,-9.98,78.31,2,0
16951.109,0.44,0.832,0.033,-247.05,-7.2,79.47,2,0
16951.109,0.469,0.813,0.076,-243.48,-4.85,80.05,2,0
16951.125,0.503,0.804,0.117,-237.04,-2.17,78.04,2,0
16951.14,0.499,0.752,0.155,-228.74,1.92,74.04,2,0
16951.14,0.527,0.712,0.197,-219.18,5.8,70.89,2,0
16951.156,0.537,0.694,0.231,-193.79,14.34,61.19,2,0
16951.171,0.54,0.643,0.267,-179.72,17.91,54.81,2,0
16951.171,0.548,0.62,0.304,-165.72,20.42,47.46,2,0
16951.187,0.54,0.596,0.378,-151.86,21.33,39.83,2,0
16951.203,0.54,0.61,0.411,-138.58,20.6,31.71,2,0
16951.203,0.516,0.62,0.442,-128.51,18.49,23.99,2,0
16951.218,0.512,0.628,0.483,-121.56,14.25,18.16,2,0
16951.234,0.515,0.652,0.517,-114.29,9.22,12.7,2,0
16951.234,0.497,0.664,0.53,-106.54,4.76,8.18,2,0
16951.25,0.485,0.656,0.547,-100.01,0.46,5.86,2,0
16951.25,0.488,0.65,0.564,-92.5,-3.36,5.37,2,0
16951.265,0.491,0.649,0.574,-82.71,-5.74,5.19,2,0
16951.281,0.497,0.643,0.576,-72.3,-6.87,4.61,2,0
16951.281,0.511,0.641,0.577,-63.02,-7.05,4.33,2,0
16951.296,0.514,0.634,0.576,-55.36,-6.38,4.52,2,0
16951.312,0.514,0.62,0.57,-49.04,-5.83,4.64,2,0
16951.312,0.521,0.61,0.561,-43.82,-5.22,4.91,2,0
16951.328,0.531,0.61,0.553,-39.58,-4.58,4.3,2,0
16951.343,0.535,0.6,0.545,-36.5,-3.51,2.84,2,0
16951.343,0.54,0.583,0.541,-33.75,-2.01,1.34,2,0
16951.359,0.541,0.571,0.54,-29.39,0.27,-0.15,2,0
16951.359,0.543,0.557,0.538,-23.8,2.96,-1.34,2,0
16951.375,0.545,0.554,0.537,-18.19,5.92,-2.59,2,0
16951.39,0.554,0.559,0.544,-12.79,9.0,-4.03,2,0
16951.39,0.55,0.57,0.551,-8.33,12.3,-5.62,2,0
16951.406,0.547,0.592,0.563,-5.28,15.66,-7.9,2,0
16951.421,0.535,0.617,0.58,-3.27,18.37,-10.28,2,0
16951.421,0.519,0.644,0.601,-1.92,19.81,-11.99,2,0
16951.437,0.501,0.666,0.618,-1.19,19.35,-12.39,2,0
16951.453,0.495,0.674,0.625,-0.61,17.18,-11.23,2,0
16951.453,0.493,0.678,0.622,0.21,14.28,-9.37,2,0
16951.468,0.5,0.678,0.625,0.89,12.48,-7.26,2,0
16951.468,0.5,0.727,0.642,-0.89,13.37,-5.98,2,0
16951.484,0.496,0.761,0.66,-2.26,15.08,-8.88,2,0
16951.5,0.501,0.758,0.671,-0.12,16.63,-14.19,2,0
16951.5,0.481,0.765,0.679,4.55,17.73,-16.57,2,0
16951.515,0.48,0.774,0.671,11.2,17.73,-15.81,2,0
16951.531,0.444,0.783,0.647,16.17,16.75,-13.64,2,0
16951.531,0.395,0.711,0.624,16.6,14.07,-6.35,2,0
16951.546,0.414,0.696,0.599,16.21,8.03,4.33,2,0
16951.562,0.42,0.668,0.558,17.49,3.48,10.62,2,0
16951.562,0.435,0.652,0.528,13.82,0.21,14.22,2,0
16951.578,0.442,0.636,0.509,7.97,-0.37,14.28,2,0
16951.578,0.443,0.602,0.498,2.41,1.1,13.43,2,0
16951.593,0.451,0.596,0.496,-2.29,4.33,10.96,2,0
16951.609,0.458,0.582,0.502,-6.16,8.12,9.28,2,0
16951.625,0.471,0.58,0.526,-9.37,12.88,8.7,2,0
16951.625,0.483,0.576,0.558,-11.69,18.01,9.25,2,0
16951.64,0.493,0.571,0.603,-14.13,23.26,10.86,2,0
16951.64,0.493,0.568,0.65,-16.05,27.53,11.96,2,0
16951.656,0.522,0.582,0.694,-15.32,28.69,10.32,2,0
16951.671,0.449,0.555,0.71,-11.75,27.07,7.17,2,0
16951.671,0.477,0.525,0.74,-7.75,20.97,8.27,2,0
16951.687,0.495,0.554,0.752,-0.49,14.01,6.99,2,0
16951.703,0.497,0.562,0.732,8.45,7.32,4.15,2,0
16951.703,0.506,0.573,0.704,14.01,1.04,1.19,2,0
16951.718,0.508,0.582,0.676,16.72,-4.24,-1.37,2,0
16951.718,0.516,0.574,0.649,18.83,-7.97,-3.3,2,0
16951.734,0.524,0.565,0.613,21.85,-9.77,-5.07,2,0
16951.75,0.533,0.564,0.585,24.51,-9.58,-6.74,2,0
16951.75,0.533,0.565,0.57,26.61,-7.9,-8.7,2,0
16951.765,0.537,0.577,0.562,28.08,-5.34,-10.68,2,0
16951.781,0.531,0.591,0.554,28.41,-2.41,-13.03,2,0
16951.781,0.524,0.606,0.551,27.56,0.12,-14.95,2,0
16951.796,0.512,0.625,0.553,26.4,1.89,-16.48,2,0
16951.812,0.501,0.646,0.556,24.69,2.9,-17.58,2,0
16951.812,0.484,0.676,0.558,22.19,3.81,-18.22,2,0
16951.828,0.462,0.691,0.556,18.98,3.39,-17.09,2,0
16951.828,0.451,0.709,0.556,15.26,1.89,-14.37,2,0
16951.843,0.439,0.725,0.552,11.44,-0.12,-10.8,2,0
16951.859,0.436,0.729,0.547,7.02,-2.56,-6.32,2,0
16951.859,0.434,0.735,0.546,2.2,-5.01,-1.43,2,0
16951.875,0.429,0.733,0.547,-2.56,-7.45,3.78,2,0
16951.89,0.434,0.725,0.552,-7.78,-10.04,9.19,2,0
16951.89,0.44,0.708,0.561,-12.57,-12.97,14.01,2,0
16951.906,0.457,0.694,0.566,-16.17,-15.69,18.04,2,0
16951.921,0.462,0.663,0.564,-19.41,-17.85,21.45,2,0
16951.921,0.483,0.639,0.564,-21.82,-19.2,24.17,2,0
16951.937,0.505,0.63,0.558,-23.29,-19.5,25.21,2,0
16951.937,0.519,0.608,0.555,-24.35,-18.13,25.45,2,0
16951.953,0.532,0.592,0.564,-24.9,-15.99,25.21,2,0
16951.968,0.544,0.578,0.57,-23.87,-13.21,24.38,2,0
16951.968,0.556,0.573,0.575,-21.55,-9.8,22.98,2,0
16951.984,0.561,0.559,0.585,-18.59,-6.01,21.27,2,0
16952.0,0.565,0.542,0.593,-14.95,-2.41,19.35,2,0
16952.015,0.569,0.537,0.601,-10.47,0.37,16.69,2,0
16952.015,0.567,0.542,0.605,-6.32,2.29,13.15,2,0
16952.031,0.56,0.542,0.61,-3.69,2.84,9.37,2,0
16952.031,0.556,0.548,0.613,-1.77,2.44,5.71,2,0
16952.046,0.554,0.563,0.608,0.12,1.46,2.66,2,0
16952.062,0.55,0.574,0.6,1.62,0.85,0.09,2,0
16952.062,0.544,0.577,0.591,2.87,0.7,-2.14,2,0
16952.078,0.544,0.582,0.581,3.85,1.19,-3.48,2,0
16952.093,0.538,0.586,0.575,4.36,2.29,-4.24,2,0
16952.093,0.536,0.59,0.573,4.18,3.85,-4.52,2,0
16952.109,0.533,0.593,0.575,4.0,5.71,-4.82,2,0
16952.109,0.526,0.595,0.581,3.72,7.08,-4.82,2,0
16952.125,0.519,0.595,0.589,3.2,7.66,-4.58,2,0
16952.14,0.519,0.598,0.591,3.05,7.35,-3.88,2,0
16952.14,0.516,0.6,0.594,2.9,7.14,-3.33,2,0
16952.156,0.511,0.604,0.597,3.11,6.44,-2.56,2,0
16952.171,0.507,0.607,0.6,3.39,5.4,-1.77,2,0
16952.171,0.506,0.614,0.599,3.45,4.27,-0.89,2,0
16952.187,0.505,0.615,0.601,3.51,3.2,0.06,2,0
16952.203,0.503,0.616,0.6,3.48,2.04,1.13,2,0
16952.203,0.508,0.611,0.597,3.63,0.89,2.23,2,0
16952.218,0.509,0.609,0.592,3.69,-0.24,2.9,2,0
16952.234,0.513,0.608,0.587,3.14,-1.13,3.39,2,0
16952.234,0.518,0.608,0.584,2.69,-1.62,3.72,2,0
16952.25,0.522,0.607,0.582,2.44,-1.56,3.91,2,0
16952.25,0.525,0.603,0.579,2.29,-1.04,4.03,2,0
16952.265,0.526,0.602,0.577,1.86,-0.67,3.91,2,0
16952.281,0.525,0.598,0.577,1.22,-0.34,3.69,2,0
16952.281,0.529,0.598,0.578,0.49,0.24,3.42,2,0
16952.296,0.529,0.598,0.578,-0.34,0.85,3.17,2,0
16952.312,0.527,0.601,0.579,-0.92,1.46,2.81,2,0
16952.312,0.526,0.6,0.581,-1.28,2.08,2.5,2,0
16952.328,0.528,0.599,0.583,-1.62,2.62,2.41,2,0
16952.328,0.539,0.615,0.582,-2.04,3.27,1.13,2,0
16952.343,0.499,0.579,0.583,-3.14,3.14,0.52,2,0
16952.359,0.527,0.588,0.597,-3.85,1.83,1.89,2,0
16952.359,0.526,0.607,0.592,-2.93,1.74,1.65,2,0
16952.375,0.524,0.601,0.594,-3.27,1.53,1.22,2,0
16952.39,0.519,0.594,0.598,-3.42,1.1,0.98,2,0
16952.39,0.522,0.593,0.598,-2.5,0.7,1.1,2,0
16952.406,0.52,0.591,0.598,-1.92,0.49,0.89,2,0
16952.421,0.521,0.591,0.599,-2.01,0.12,0.58,2,0
16952.421,0.517,0.59,0.6,-1.92,-0.46,0.52,2,0
16952.437,0.521,0.592,0.599,-1.62,-0.95,0.64,2,0
16952.453,0.521,0.595,0.599,-1.19,-1.25,0.58,2,0
16952.453,0.521,0.59,0.598,-0.76,-1.16,0.79,2,0
16952.468,0.521,0.59,0.599,-0.24,-1.01,0.89,2,0
16952.468,0.52,0.589,0.599,0.18,-1.1,0.95,2,0
16952.484,0.524,0.589,0.597,0.58,-1.28,0.89,2,0
16952.5,0.523,0.591,0.595,0.76,-1.31,0.67,2,0
16952.5,0.523,0.591,0.596,0.73,-1.46,0.58,2,0
16952.515,0.522,0.593,0.594,0.76,-1.62,0.4,2,0
16952.531,0.521,0.595,0.592,0.95,-1.74,0.37,2,0
16952.531,0.521,0.597,0.591,0.85,-1.71,0.46,2,0
16952.546,0.519,0.596,0.591,0.7,-1.74,0.55,2,0
16952.562,0.519,0.6,0.592,0.46,-1.95,0.89,2,0
16952.562,0.522,0.598,0.591,0.15,-2.04,0.95,2,0
16952.578,0.522,0.595,0.589,0.12,-2.14,1.04,2,0
16952.593,0.524,0.598,0.589,0.06,-2.2,1.16,2,0
16952.593,0.527,0.599,0.588,-0.18,-1.98,1.34,2,0
16952.609,0.526,0.595,0.586,-0.55,-1.8,1.28,2,0
16952.609,0.526,0.592,0.584,-0.92,-1.5,1.1,2,0
16952.625,0.527,0.592,0.588,-1.37,-1.5,0.95,2,0
16952.64,0.527,0.593,0.59,-2.01,-1.46,0.82,2,0
16952.64,0.528,0.593,0.591,-2.26,-1.43,0.55,2,0
16952.656,0.524,0.593,0.592,-2.59,-1.31,0.4,2,0
16952.671,0.526,0.592,0.592,-2.84,-1.01,0.46,2,0
16952.687,0.526,0.592,0.593,-2.81,-1.01,0.7,2,0
16952.687,0.524,0.59,0.595,-2.9,-1.01,0.79,2,0
16952.687,0.527,0.589,0.594,-2.96,-0.92,0.73,2,0
16952.703,0.528,0.587,0.594,-2.81,-0.79,0.76,2,0
16952.718,0.528,0.589,0.594,-2.56,-0.46,0.79,2,0
16952.718,0.527,0.588,0.597,-2.29,-0.06,0.82,2,0
16952.734,0.527,0.584,0.595,-1.74,0.15,0.73,2,0
16952.75,0.527,0.585,0.597,-1.4,0.24,0.64,2,0
16952.765,0.529,0.585,0.598,-1.07,0.37,0.55,2,0
16952.765,0.525,0.584,0.599,-0.7,0.43,0.24,2,0
16952.781,0.524,0.587,0.601,-0.34,0.4,0.12,2,0
16952.781,0.524,0.589,0.6,0.0,0.37,0.15,2,0
16952.796,0.524,0.59,0.599,0.24,0.21,0.34,2,0
16952.812,0.523,0.591,0.598,0.21,-0.06,0.37,2,0
16952.812,0.522,0.589,0.597,0.15,-0.27,0.18,2,0
16952.828,0.524,0.587,0.595,0.0,-0.4,0.24,2,0
16952.843,0.526,0.587,0.595,-0.18,-0.43,0.34,2,0
16952.843,0.525,0.589,0.594,-0.43,-0.34,0.24,2,0
16952.859,0.524,0.59,0.595,-0.58,-0.12,0.21,2,0
16952.859,0.522,0.589,0.595,-0.73,-0.24,0.0,2,0
16952.875,0.526,0.591,0.597,-0.95,-0.49,-0.24,2,0
16952.89,0.525,0.597,0.597,-1.8,-0.67,0.03,2,0
16952.89,0.523,0.591,0.595,-2.01,-0.89,0.34,2,0
16952.906,0.526,0.585,0.594,-1.46,-1.16,0.52,2,0
16952.921,0.531,0.587,0.593,-1.43,-1.22,0.55,2,0
16952.921,0.531,0.593,0.595,-1.98,-1.16,0.31,2,0
16952.937,0.529,0.589,0.592,-2.08,-0.95,0.0,2,0
16952.953,0.528,0.583,0.589,-1.89,-0.76,-0.31,2,0
16952.953,0.53,0.585,0.591,-2.32,-0.43,-0.55,2,0
16952.968,0.527,0.591,0.592,-3.27,0.06,-0.79,2,0
16952.984,0.525,0.589,0.592,-4.21,0.4,-0.85,2,0
16952.984,0.523,0.586,0.594,-4.76,0.7,-0.82,2,0
16953.0,0.52,0.584,0.597,-5.1,0.73,-0.95,2,0
16953.0,0.521,0.586,0.6,-5.68,0.95,-0.85,2,0
16953.015,0.519,0.588,0.602,-6.35,1.19,-0.64,2,0
16953.031,0.517,0.584,0.606,-6.62,1.16,-0.43,2,0
16953.031,0.517,0.583,0.61,-6.32,1.01,-0.15,2,0
16953.046,0.519,0.581,0.613,-5.8,0.79,0.15,2,0
16953.062,0.519,0.582,0.615,-5.52,0.61,0.55,2,0
16953.062,0.521,0.581,0.614,-4.94,0.31,0.92,2,0
16953.078,0.522,0.578,0.614,-4.09,0.03,1.28,2,0
16953.078,0.525,0.576,0.611,-3.3,-0.43,1.25,2,0
16953.093,0.526,0.577,0.609,-2.87,-0.58,0.95,2,0
16953.109,0.526,0.577,0.607,-2.72,-0.55,0.76,2,0
16953.109,0.525,0.575,0.606,-2.41,-0.27,0.34,2,0
16953.125,0.526,0.575,0.609,-2.47,-0.21,0.12,2,0
16953.14,0.528,0.578,0.608,-2.72,0.0,-0.18,2,0
16953.14,0.527,0.579,0.605,-2.93,0.27,-0.49,2,0
16953.156,0.523,0.574,0.609,-3.02,0.58,-0.7,2,0
16953.171,0.521,0.576,0.61,-3.2,0.76,-0.82,2,0
16953.171,0.52,0.577,0.614,-3.42,0.76,-0.7,2,0
16953.187,0.519,0.576,0.617,-3.48,0.73,-0.61,2,0
16953.203,0.517,0.576,0.621,-3.27,0.52,-0.61,2,0
16953.203,0.518,0.577,0.622,-2.78,0.03,-0.4,2,0
16953.218,0.518,0.575,0.621,-2.29,-0.43,-0.37,2,0
16953.218,0.52,0.575,0.619,-1.8,-0.85,-0.24,2,0
16953.234,0.519,0.576,0.616,-1.31,-1.19,-0.24,2,0
16953.25,0.522,0.574,0.612,-0.92,-1.37,-0.24,2,0
16953.25,0.523,0.575,0.607,-0.98,-1.34,-0.37,2,0
16953.265,0.522,0.576,0.606,-1.34,-1.25,-0.46,2,0
16953.281,0.521,0.579,0.606,-1.92,-0.95,-0.61,2,0
16953.296,0.519,0.577,0.609,-2.38,-0.58,-0.58,2,0
16953.296,0.518,0.576,0.613,-2.69,-0.46,-0.34,2,0
16953.312,0.517,0.577,0.619,-3.2,-0.64,-0.12,2,0
16953.312,0.518,0.577,0.62,-3.45,-1.1,0.21,2,0
16953.328,0.518,0.574,0.619,-3.45,-1.4,0.49,2,0
16953.343,0.518,0.574,0.62,-3.27,-1.65,0.58,2,0
16953.343,0.521,0.573,0.62,-3.27,-1.89,0.64,2,0
16953.359,0.522,0.572,0.623,-3.14,-2.01,0.73,2,0
16953.359,0.52,0.571,0.623,-2.81,-1.98,0.79,2,0
16953.375,0.52,0.569,0.622,-2.35,-2.11,0.89,2,0
16953.39,0.521,0.566,0.621,-1.77,-2.32,0.95,2,0
16953.39,0.522,0.568,0.62,-1.5,-2.62,0.89,2,0
16953.406,0.525,0.569,0.618,-1.25,-2.93,0.58,2,0
16953.421,0.529,0.571,0.615,-0.92,-2.75,0.37,2,0
16953.421,0.528,0.57,0.608,-0.67,-2.56,0.12,2,0
16953.437,0.526,0.569,0.607,-0.82,-2.2,-0.12,2,0
16953.453,0.527,0.569,0.607,-1.37,-1.83,-0.34,2,0
16953.453,0.525,0.57,0.608,-2.01,-1.37,-0.52,2,0
16953.468,0.526,0.573,0.612,-2.66,-0.98,-0.61,2,0
16953.468,0.522,0.575,0.615,-3.11,-0.85,-0.49,2,0
16953.484,0.521,0.573,0.618,-3.39,-0.98,-0.24,2,0
16953.5,0.52,0.572,0.622,-3.6,-1.4,-0.03,2,0
16953.515,0.52,0.57,0.621,-3.81,-1.95,0.18,2,0
16953.515,0.521,0.567,0.624,-3.88,-2.47,0.21,2,0
16953.531,0.523,0.564,0.625,-3.54,-2.62,0.34,2,0
16953.531,0.524,0.565,0.623,-2.75,-2.59,0.49,2,0
16953.546,0.523,0.566,0.626,-2.08,-2.53,0.46,2,0
16953.562,0.525,0.566,0.628,-1.59,-2.72,0.61,2,0
16953.562,0.526,0.565,0.626,-1.16,-3.02,0.49,2,0
16953.578,0.528,0.565,0.621,-0.43,-3.11,0.37,2,0
16953.593,0.528,0.565,0.62,0.27,-3.11,0.4,2,0
16953.593,0.529,0.564,0.622,0.82,-2.93,0.18,2,0
16953.609,0.53,0.559,0.613,1.37,-2.53,-0.27,2,0
16953.609,0.529,0.56,0.614,1.07,-2.01,-0.52,2,0
16953.625,0.535,0.559,0.621,1.28,-1.71,-1.07,2,0
16953.64,0.533,0.561,0.622,2.23,-1.19,-1.68,2,0
16953.64,0.529,0.559,0.624,2.93,-0.82,-1.98,2,0
16953.656,0.527,0.558,0.629,3.66,-0.61,-2.26,2,0
16953.671,0.527,0.56,0.634,5.01,-0.34,-2.41,2,0
16953.671,0.521,0.567,0.636,7.05,-0.49,-2.23,2,0
16953.687,0.518,0.573,0.64,9.09,-0.89,-1.98,2,0
16953.703,0.517,0.577,0.644,11.14,-1.74,-1.5,2,0
16953.703,0.518,0.582,0.646,13.4,-2.78,-0.76,2,0
16953.718,0.52,0.583,0.645,16.08,-4.3,0.0,2,0
16953.734,0.524,0.582,0.64,18.62,-5.83,0.34,2,0
16953.734,0.527,0.579,0.63,20.69,-7.2,0.4,2,0
16953.75,0.532,0.574,0.62,21.73,-8.24,-0.09,2,0
16953.75,0.54,0.576,0.611,22.74,-8.55,-0.82,2,0
16953.765,0.546,0.586,0.602,23.96,-7.78,-1.71,2,0
16953.781,0.556,0.598,0.596,25.3,-6.23,-2.62,2,0
16953.796,0.55,0.607,0.598,27.34,-3.85,-3.27,2,0
16953.796,0.537,0.618,0.601,32.38,-1.65,-3.27,2,0
16953.812,0.533,0.64,0.6,38.18,0.06,-1.92,2,0
16953.812,0.527,0.664,0.598,43.28,2.35,-0.64,2,0
16953.828,0.516,0.685,0.601,46.63,4.7,0.52,2,0
16953.843,0.486,0.645,0.63,53.35,4.67,0.95,2,0
16953.843,0.477,0.628,0.593,82.28,0.21,1.25,2,0
16953.859,0.525,0.698,0.567,106.11,-2.2,4.91,2,0
16953.859,0.517,0.716,0.488,127.02,-2.26,0.7,2,0
16953.875,0.519,0.721,0.457,140.81,-2.01,-5.98,2,0
16953.89,0.517,0.765,0.432,148.96,-1.13,-12.6,2,0
16953.89,0.499,0.817,0.396,152.29,-0.46,-17.64,2,0
16953.906,0.498,0.863,0.372,150.33,-1.34,-20.39,2,0
16953.921,0.503,0.896,0.365,144.29,-2.56,-19.96,2,0
16953.937,0.508,0.924,0.37,134.43,-4.36,-17.24,2,0
16953.937,0.503,0.929,0.377,125.19,-6.47,-13.58,2,0
16953.953,0.501,0.923,0.385,117.59,-9.31,-8.76,2,0
16953.953,0.494,0.922,0.409,110.81,-13.98,-3.72,2,0
16953.968,0.434,0.942,0.598,108.13,-22.37,1.5,2,0
16953.968,0.376,0.823,0.622,113.13,-42.88,8.7,2,0
16953.984,0.507,0.825,0.368,103.85,-68.12,6.93,2,0
16954.0,0.607,0.855,0.371,93.2,-67.48,11.44,2,0
16954.015,0.639,0.737,0.377,95.83,-60.09,11.29,2,0
16954.015,0.629,0.716,0.289,95.28,-54.78,6.35,2,0
16954.031,0.662,0.726,0.232,99.19,-41.29,8.36,2,0
16954.031,0.623,0.698,0.275,106.54,-27.01,9.13,2,0
16954.046,0.601,0.651,0.26,104.46,-24.08,4.46,2,0
16954.062,0.652,0.625,0.176,100.13,-21.88,0.27,2,0
16954.062,0.64,0.632,0.203,98.3,-15.44,-4.0,2,0
16954.078,0.587,0.599,0.212,101.81,-11.99,-7.32,2,0
16954.093,0.585,0.613,0.158,106.88,-11.32,-6.07,2,0
16954.093,0.621,0.631,0.113,107.18,-9.77,-7.14,2,0
16954.109,0.609,0.613,0.109,102.63,-2.75,-14.95,2,0
16954.109,0.583,0.628,0.11,100.71,-1.19,-15.84,2,0
16954.125,0.58,0.664,0.1,100.25,2.11,-15.53,2,0
16954.14,0.589,0.687,0.04,98.94,6.87,-17.85,2,0
16954.14,0.585,0.688,0.013,96.5,10.96,-20.54,2,0
16954.156,0.585,0.694,-0.015,91.56,14.8,-24.51,2,0
16954.171,0.57,0.712,-0.036,83.83,18.62,-29.45,2,0
16954.187,0.548,0.708,-0.048,75.84,22.19,-33.97,2,0
16954.187,0.523,0.71,-0.053,69.19,25.24,-36.65,2,0
16954.203,0.506,0.734,-0.053,64.67,27.68,-39.37,2,0
16954.203,0.492,0.732,-0.05,62.9,30.0,-42.02,2,0
16954.218,0.475,0.737,-0.043,63.36,31.77,-43.79,2,0
16954.234,0.46,0.746,-0.038,66.19,32.99,-44.98,2,0
16954.234,0.461,0.757,-0.038,70.74,34.09,-45.56,2,0
16954.25,0.458,0.775,-0.041,74.47,35.62,-45.59,2,0
16954.265,0.444,0.796,-0.048,75.9,36.77,-45.87,2,0
16954.265,0.425,0.809,-0.047,74.25,36.32,-46.75,2,0
16954.281,0.414,0.821,-0.035,71.96,34.67,-46.51,2,0
16954.281,0.403,0.834,-0.046,72.42,32.5,-44.65,2,0
16954.296,0.401,0.861,-0.057,72.45,30.3,-42.6,2,0
16954.312,0.409,0.866,-0.055,71.6,28.5,-41.05,2,0
16954.312,0.408,0.879,-0.062,72.18,28.05,-39.25,2,0
16954.328,0.408,0.899,-0.069,73.27,28.05,-36.47,2,0
16954.343,0.417,0.907,-0.075,75.9,28.35,-33.69,2,0
16954.343,0.415,0.913,-0.096,79.81,29.51,-31.25,2,0
16954.359,0.413,0.913,-0.116,81.0,30.34,-29.79,2,0
16954.359,0.411,0.907,-0.119,78.65,30.85,-29.36,2,0
16954.375,0.408,0.899,-0.137,74.43,31.13,-29.54,2,0
16954.39,0.4,0.896,-0.146,68.39,31.59,-29.66,2,0
16954.39,0.408,0.891,-0.147,62.5,32.41,-29.3,2,0
16954.406,0.395,0.907,-0.162,58.38,34.79,-28.93,2,0
16954.421,0.378,0.909,-0.161,53.96,36.59,-27.65,2,0
16954.421,0.363,0.908,-0.155,49.35,37.35,-26.61,2,0
16954.437,0.344,0.912,-0.158,45.11,36.99,-24.87,2,0
16954.453,0.33,0.927,-0.159,39.89,35.71,-22.25,2,0
16954.453,0.328,0.942,-0.16,32.81,33.97,-20.17,2,0
16954.468,0.323,0.943,-0.163,22.83,31.68,-18.52,2,0
16954.468,0.314,0.944,-0.165,9.55,28.78,-16.3,2,0
16954.484,0.312,0.943,-0.161,-5.68,25.18,-13.46,2,0
16954.5,0.315,0.929,-0.15,-21.58,20.17,-10.71,2,0
16954.515,0.312,0.915,-0.141,-37.11,13.92,-8.51,2,0
16954.515,0.314,0.911,-0.138,-52.77,6.65,-6.2,2,0
16954.531,0.322,0.918,-0.141,-69.0,-1.86,-3.45,2,0
16954.531,0.326,0.938,-0.147,-86.92,-11.35,-0.4,2,0
16954.546,0.335,0.964,-0.15,-108.22,-20.94,3.17,2,0
16954.562,0.337,0.988,-0.155,-132.66,-30.49,6.99,2,0
16954.562,0.338,1.007,-0.158,-158.33,-39.22,11.72,2,0
16954.578,0.341,1.011,-0.156,-183.66,-46.24,18.01,2,0
16954.593,0.347,0.996,-0.142,-206.4,-51.94,24.41,2,0
16954.593,0.356,0.972,-0.122,-224.68,-56.12,30.15,2,0
16954.609,0.369,0.96,-0.111,-237.65,-57.22,35.0,2,0
16954.609,0.392,0.936,-0.092,-247.14,-55.48,39.46,2,0
16954.625,0.408,0.92,-0.065,-252.94,-52.25,41.87,2,0
16954.64,0.428,0.893,-0.033,-254.8,-47.27,43.31,2,0
16954.64,0.446,0.862,0.003,-252.85,-40.44,44.01,2,0
16954.656,0.455,0.844,0.047,-247.69,-32.29,43.58,2,0
16954.671,0.454,0.823,0.094,-239.88,-23.59,42.6,2,0
16954.671,0.454,0.797,0.144,-228.8,-15.66,41.44,2,0
16954.687,0.454,0.775,0.194,-214.18,-8.36,40.53,2,0
16954.703,0.463,0.76,0.239,-197.61,-1.77,40.01,2,0
16954.703,0.465,0.731,0.276,-179.72,3.75,38.64,2,0
16954.718,0.473,0.71,0.309,-161.41,8.48,36.19,2,0
16954.734,0.483,0.698,0.338,-142.86,13.43,32.87,2,0
16954.734,0.48,0.685,0.366,-125.16,18.56,29.02,2,0
16954.75,0.484,0.68,0.388,-108.58,23.35,25.15,2,0
16954.75,0.482,0.681,0.407,-93.02,28.05,21.03,2,0
16954.765,0.476,0.67,0.423,-79.56,31.68,17.76,2,0
16954.781,0.479,0.664,0.442,-67.54,34.55,15.38,2,0
16954.781,0.488,0.667,0.48,-54.14,37.45,12.39,2,0
16954.796,0.514,0.733,0.516,-37.9,41.11,9.55,2,0
16954.812,0.532,0.829,0.537,-25.88,46.02,7.26,2,0
16954.812,0.519,0.893,0.563,-21.94,52.31,5.13,2,0
16954.828,0.49,0.911,0.606,-24.54,56.49,5.89,2,0
16954.828,0.446,0.874,0.632,-27.8,55.36,9.4,2,0
16954.843,0.423,0.809,0.643,-28.38,48.65,15.14,2,0
16954.859,0.418,0.743,0.637,-27.28,38.54,20.63,2,0
16954.859,0.431,0.677,0.622,-26.03,27.56,22.37,2,0
16954.875,0.441,0.622,0.608,-25.64,18.01,20.02,2,0
16954.89,0.443,0.595,0.589,-26.61,10.41,15.75,2,0
16954.906,0.453,0.587,0.576,-28.11,5.01,11.11,2,0
16954.906,0.455,0.589,0.571,-28.99,2.66,6.29,2,0
16954.921,0.456,0.602,0.573,-28.78,2.93,2.53,2,0
16954.921,0.458,0.625,0.588,-26.61,4.94,0.09,2,0
16954.937,0.459,0.645,0.609,-22.19,7.75,-1.43,2,0
16954.953,0.454,0.659,0.623,-16.05,10.07,-1.89,2,0
16954.953,0.446,0.674,0.631,-9.46,11.32,-1.71,2,0
16954.968,0.433,0.665,0.634,-3.75,11.23,-0.61,2,0
16954.984,0.44,0.66,0.631,0.82,9.52,0.82,2,0
16954.984,0.443,0.656,0.624,4.06,7.39,0.95,2,0
16955.0,0.446,0.647,0.612,4.97,5.01,-0.12,2,0
16955.0,0.447,0.639,0.602,4.64,2.69,-1.8,2,0
16955.015,0.452,0.634,0.594,4.58,0.79,-3.69,2,0
16955.031,0.454,0.638,0.587,5.4,-0.12,-5.65,2,0
16955.031,0.459,0.642,0.581,7.02,0.24,-7.17,2,0
16955.046,0.461,0.656,0.577,8.91,1.98,-7.87,2,0
16955.062,0.453,0.663,0.576,11.11,4.7,-7.69,2,0
16955.062,0.451,0.668,0.577,13.73,7.48,-6.84,2,0
16955.078,0.446,0.671,0.576,16.6,9.34,-6.04,2,0
16955.093,0.439,0.668,0.576,19.59,10.77,-6.29,2,0
16955.093,0.437,0.667,0.576,19.56,10.62,-7.26,2,0
16955.109,0.433,0.674,0.575,19.23,10.22,-8.39,2,0
16955.109,0.425,0.681,0.572,18.46,9.31,-9.4,2,0
16955.125,0.411,0.692,0.573,17.61,7.81,-9.92,2,0
16955.14,0.407,0.701,0.569,16.97,6.04,-10.13,2,0
16955.14,0.403,0.712,0.563,16.3,4.64,-10.01,2,0
16955.156,0.402,0.719,0.559,14.95,3.11,-9.28,2,0
16955.171,0.399,0.725,0.557,13.58,1.86,-8.18,2,0
16955.171,0.397,0.731,0.552,12.48,1.1,-6.59,2,0
16955.187,0.4,0.735,0.547,11.69,0.61,-4.36,2,0
16955.203,0.403,0.731,0.544,11.05,0.58,-2.47,2,0
16955.203,0.404,0.723,0.541,9.92,0.27,-1.01,2,0
16955.218,0.407,0.72,0.538,8.12,-0.52,-0.24,2,0
16955.218,0.412,0.719,0.537,5.83,-1.22,0.06,2,0
16955.234,0.416,0.716,0.536,3.72,-1.83,0.0,2,0
16955.25,0.415,0.714,0.535,1.71,-2.32,-0.27,2,0
16955.25,0.418,0.715,0.533,-0.21,-2.62,-0.61,2,0
16955.265,0.42,0.719,0.535,-2.01,-2.59,-0.82,2,0
16955.281,0.417,0.717,0.534,-3.66,-2.35,-0.92,2,0
16955.281,0.418,0.714,0.538,-5.07,-1.95,-0.85,2,0
16955.296,0.415,0.721,0.541,-6.35,-1.37,-0.37,2,0
16955.312,0.411,0.721,0.549,-7.14,-0.73,0.55,2,0
16955.312,0.412,0.715,0.555,-7.11,-0.34,1.56,2,0
16955.328,0.412,0.699,0.558,-6.44,-0.55,2.08,2,0
16955.343,0.413,0.692,0.563,-6.07,-1.13,2.17,2,0
16955.343,0.413,0.689,0.561,-6.26,-1.92,1.8,2,0
16955.359,0.417,0.69,0.557,-6.9,-2.75,1.13,2,0
16955.359,0.42,0.693,0.558,-7.11,-3.2,0.46,2,0
16955.375,0.418,0.692,0.558,-6.38,-3.2,-0.06,2,0
16955.39,0.42,0.691,0.558,-5.71,-2.81,-0.61,2,0
16955.39,0.421,0.69,0.559,-5.13,-2.32,-0.95,2,0
16955.406,0.417,0.694,0.559,-4.3,-1.62,-1.01,2,0
16955.421,0.417,0.698,0.561,-3.75,-0.98,-0.55,2,0
16955.421,0.417,0.7,0.561,-3.3,-0.37,0.03,2,0
16955.437,0.415,0.698,0.565,-2.84,-0.03,0.37,2,0
16955.453,0.412,0.694,0.565,-2.35,-0.15,0.43,2,0
16955.453,0.415,0.691,0.562,-2.23,-0.49,0.4,2,0
16955.468,0.416,0.695,0.564,-2.81,-0.67,0.43,2,0
16955.468,0.416,0.695,0.566,-3.42,-1.01,0.52,2,0
16955.484,0.418,0.693,0.569,-3.36,-1.53,0.46,2,0
16955.5,0.418,0.694,0.568,-2.78,-1.59,0.49,2,0
16955.5,0.419,0.695,0.567,-2.26,-1.43,0.82,2,0
16955.515,0.42,0.692,0.565,-1.65,-1.46,1.16,2,0
16955.531,0.42,0.688,0.563,-0.95,-1.34,1.16,2,0
16955.531,0.42,0.688,0.564,-0.82,-1.37,0.98,2,0
16955.546,0.421,0.688,0.562,-1.07,-1.37,0.61,2,0
16955.562,0.424,0.686,0.562,-0.95,-1.31,-0.12,2,0
16955.562,0.424,0.687,0.561,-0.52,-0.95,-0.67,2,0
16955.578,0.423,0.69,0.56,-0.06,-0.34,-0.95,2,0
16955.593,0.422,0.69,0.561,0.34,0.34,-1.1,2,0
16955.593,0.42,0.693,0.562,0.43,0.98,-1.1,2,0
16955.609,0.417,0.696,0.563,0.37,1.22,-1.07,2,0
16955.609,0.414,0.695,0.565,0.06,1.01,-0.95,2,0
16955.625,0.412,0.693,0.564,-0.37,0.52,-0.82,2,0
16955.64,0.414,0.697,0.564,-0.76,0.12,-0.73,2,0
16955.64,0.413,0.698,0.567,-1.1,-0.15,-0.58,2,0
16955.656,0.414,0.698,0.568,-1.4,-0.43,-0.24,2,0
16955.671,0.415,0.696,0.569,-1.68,-0.73,0.09,2,0
16955.671,0.417,0.694,0.566,-1.8,-1.07,0.24,2,0
16955.687,0.418,0.69,0.565,-1.8,-1.34,0.24,2,0
16955.703,0.419,0.689,0.567,-1.77,-1.31,0.21,2,0
16955.703,0.422,0.689,0.566,-1.46,-1.22,0.12,2,0
16955.718,0.421,0.686,0.566,-1.22,-1.01,-0.09,2,0
16955.734,0.419,0.687,0.565,-0.89,-0.85,-0.27,2,0
16955.734,0.42,0.689,0.563,-0.43,-0.58,-0.55,2,0
16955.75,0.417,0.691,0.565,-0.24,-0.31,-0.92,2,0
16955.75,0.416,0.691,0.564,-0.18,-0.18,-1.25,2,0
16955.765,0.415,0.692,0.564,-0.15,-0.09,-1.53,2,0
16955.781,0.415,0.692,0.565,-0.34,-0.15,-1.56,2,0
16955.796,0.414,0.694,0.567,-0.82,-0.12,-1.4,2,0
16955.796,0.412,0.698,0.568,-1.19,-0.09,-1.13,2,0
16955.812,0.414,0.705,0.569,-1.43,-0.09,-0.61,2,0
16955.812,0.411,0.702,0.572,-1.46,-0.37,-0.03,2,0
16955.828,0.407,0.693,0.572,-1.28,-0.73,0.37,2,0
16955.828,0.411,0.678,0.568,-1.01,-1.46,0.61,2,0
16955.843,0.42,0.684,0.568,-1.16,-1.86,0.34,2,0
16955.859,0.42,0.697,0.57,-2.01,-1.59,-0.09,2,0
16955.875,0.416,0.695,0.571,-2.29,-1.19,-0.52,2,0
16955.875,0.414,0.683,0.567,-1.4,-1.28,-0.31,2,0
16955.89,0.417,0.686,0.567,-0.37,-1.16,0.18,2,0
16955.89,0.42,0.695,0.568,-0.46,-0.92,0.0,2,0
16955.906,0.414,0.693,0.569,-1.1,-0.82,-0.49,2,0
16955.921,0.412,0.685,0.568,-0.82,-1.01,-0.49,2,0
16955.921,0.416,0.684,0.566,-0.24,-1.19,-0.43,2,0
16955.937,0.417,0.693,0.569,-0.49,-1.13,-0.55,2,0
16955.937,0.414,0.697,0.569,-1.16,-1.04,-0.85,2,0
16955.953,0.414,0.692,0.57,-1.22,-1.22,-0.82,2,0
16955.968,0.412,0.689,0.57,-1.01,-1.68,-0.37,2,0
16955.968,0.416,0.694,0.57,-1.1,-1.98,-0.06,2,0
16955.984,0.416,0.697,0.57,-1.53,-2.08,-0.06,2,0
16956.0,0.415,0.691,0.567,-2.11,-2.17,-0.24,2,0
16956.0,0.416,0.684,0.567,-2.2,-2.35,-0.34,2,0
16956.015,0.418,0.687,0.564,-2.17,-2.38,-0.31,2,0
16956.031,0.42,0.692,0.565,-2.38,-2.08,-0.31,2,0
16956.031,0.42,0.691,0.567,-2.75,-1.56,-0.46,2,0
16956.046,0.418,0.689,0.565,-2.66,-1.16,-0.49,2,0
16956.062,0.417,0.686,0.568,-2.44,-1.01,-0.49,2,0
16956.062,0.418,0.688,0.57,-2.59,-0.31,-0.73,2,0
16956.078,0.416,0.69,0.572,-2.5,-0.06,-0.61,2,0
16956.093,0.415,0.688,0.573,-2.14,-0.21,-0.52,2,0
16956.093,0.414,0.685,0.574,-1.89,-0.37,-0.43,2,0
16956.109,0.414,0.69,0.578,-1.98,-0.61,-0.43,2,0
16956.109,0.414,0.686,0.575,-1.89,-0.82,-0.37,2,0
16956.125,0.414,0.683,0.574,-1.65,-0.89,-0.31,2,0
16956.14,0.416,0.684,0.575,-1.53,-0.82,-0.06,2,0
16956.14,0.417,0.686,0.577,-1.37,-0.58,-0.09,2,0
16956.156,0.415,0.684,0.578,-1.31,-0.52,-0.15,2,0
16956.171,0.414,0.682,0.578,-1.04,-0.49,-0.24,2,0
16956.171,0.415,0.682,0.579,-0.64,-0.67,-0.27,2,0
16956.187,0.416,0.683,0.576,-0.4,-0.89,-0.49,2,0
16956.203,0.414,0.688,0.575,-0.34,-0.92,-0.61,2,0
16956.203,0.414,0.688,0.576,-0.46,-0.76,-0.67,2,0
16956.218,0.412,0.685,0.576,-0.27,-0.89,-0.4,2,0
16956.218,0.413,0.687,0.575,-0.21,-1.01,-0.27,2,0
16956.234,0.416,0.689,0.574,-0.4,-1.1,-0.27,2,0
16956.25,0.418,0.689,0.573,-0.61,-1.25,-0.31,2,0
16956.25,0.418,0.686,0.572,-0.61,-1.1,-0.61,2,0
16956.265,0.417,0.688,0.572,-0.52,-0.92,-0.49,2,0
16956.281,0.416,0.688,0.569,-0.34,-0.67,-0.37,2,0
16956.281,0.415,0.687,0.572,-0.43,-0.27,-0.21,2,0
16956.296,0.414,0.686,0.574,-0.7,0.06,-0.15,2,0
16956.312,0.415,0.686,0.577,-0.95,0.06,-0.37,2,0
16956.312,0.415,0.685,0.58,-0.95,-0.34,-0.34,2,0
16956.328,0.415,0.684,0.579,-0.82,-0.52,-0.43,2,0
16956.328,0.415,0.684,0.58,-0.64,-0.61,-0.37,2,0
16956.343,0.416,0.684,0.576,-0.24,-0.67,-0.4,2,0
16956.359,0.415,0.683,0.575,0.09,-0.7,-0.49,2,0
16956.359,0.415,0.684,0.576,0.09,-0.58,-0.49,2,0
16956.375,0.415,0.687,0.575,0.15,-0.58,-0.67,2,0
16956.39,0.415,0.687,0.575,0.18,-0.58,-0.67,2,0
16956.406,0.414,0.686,0.573,0.21,-0.55,-0.55,2,0
16956.406,0.413,0.685,0.575,0.21,-0.58,-0.58,2,0
16956.421,0.411,0.688,0.575,0.03,-0.61,-0.55,2,0
16956.421,0.409,0.691,0.574,-0.24,-0.58,-0.46,2,0
16956.437,0.411,0.692,0.577,-0.43,-0.61,-0.34,2,0
16956.453,0.41,0.689,0.577,-0.52,-0.7,-0.24,2,0
16956.453,0.41,0.688,0.577,-0.67,-0.95,-0.03,2,0
16956.468,0.411,0.687,0.577,-0.82,-1.25,0.12,2,0
16956.468,0.411,0.684,0.577,-0.92,-1.34,0.34,2,0
16956.484,0.412,0.685,0.579,-0.82,-1.4,0.52,2,0
16956.5,0.412,0.687,0.58,-0.76,-1.37,0.43,2,0
16956.5,0.415,0.686,0.579,-0.58,-1.43,0.61,2,0
16956.515,0.416,0.683,0.579,-0.27,-1.53,0.55,2,0
16956.531,0.415,0.683,0.577,-0.12,-1.71,0.43,2,0
16956.531,0.417,0.681,0.575,-0.09,-1.77,0.24,2,0
16956.546,0.416,0.683,0.575,-0.21,-1.68,0.03,2,0
16956.562,0.415,0.686,0.574,-0.52,-1.43,-0.18,2,0
16956.562,0.416,0.687,0.573,-0.58,-1.19,-0.15,2,0
16956.578,0.416,0.684,0.575,-0.46,-0.98,-0.15,2,0
16956.593,0.416,0.685,0.579,-0.34,-0.98,-0.21,2,0
16956.593,0.414,0.685,0.578,-0.15,-0.89,-0.15,2,0
16956.609,0.411,0.684,0.578,-0.09,-0.95,-0.15,2,0
16956.625,0.412,0.684,0.579,0.0,-1.19,0.06,2,0
16956.625,0.414,0.686,0.579,0.12,-1.13,0.06,2,0
16956.64,0.412,0.686,0.579,0.34,-1.22,0.18,2,0
16956.64,0.414,0.685,0.578,0.46,-1.22,0.34,2,0
16956.656,0.414,0.684,0.578,0.52,-1.5,0.31,2,0
16956.671,0.415,0.682,0.575,0.64,-1.5,0.27,2,0
16956.671,0.416,0.683,0.573,0.55,-1.43,0.12,2,0
16956.687,0.418,0.685,0.573,0.49,-1.22,0.0,2,0
16956.703,0.417,0.684,0.573,0.46,-1.04,-0.12,2,0
16956.703,0.417,0.685,0.574,0.43,-0.92,-0.18,2,0
16956.718,0.417,0.687,0.575,0.46,-0.85,-0.15,2,0
16956.718,0.415,0.687,0.574,0.49,-0.7,-0.12,2,0
16956.734,0.414,0.686,0.575,0.31,-0.58,-0.12,2,0
16956.75,0.413,0.686,0.577,0.06,-0.52,-0.15,2,0
16956.75,0.414,0.686,0.577,0.03,-0.61,-0.09,2,0
16956.765,0.414,0.686,0.575,0.0,-0.64,-0.03,2,0
16956.781,0.415,0.686,0.576,0.12,-0.64,0.0,2,0
16956.781,0.414,0.686,0.577,0.31,-0.64,0.06,2,0
16956.796,0.415,0.686,0.577,0.24,-0.79,0.12,2,0
16956.812,0.415,0.686,0.576,0.24,-0.92,0.09,2,0
16956.812,0.416,0.686,0.576,0.24,-1.04,0.03,2,0
16956.828,0.415,0.685,0.574,0.24,-0.95,0.0,2,0
16956.843,0.415,0.684,0.574,0.15,-0.89,0.03,2,0
16956.843,0.415,0.685,0.575,0.03,-0.82,0.12,2,0
16956.859,0.415,0.687,0.575,0.03,-0.73,0.09,2,0
16956.859,0.414,0.687,0.575,-0.06,-0.76,0.03,2,0
16956.875,0.415,0.685,0.576,-0.18,-0.89,0.0,2,0
16956.89,0.414,0.687,0.576,-0.27,-1.01,0.03,2,0
16956.89,0.415,0.688,0.577,-0.21,-1.19,0.09,2,0
16956.906,0.415,0.687,0.575,-0.24,-1.28,0.15,2,0
16956.921,0.417,0.684,0.575,-0.15,-1.25,0.24,2,0
16956.921,0.417,0.683,0.575,-0.12,-1.25,0.18,2,0
16956.937,0.417,0.683,0.574,-0.18,-1.25,0.21,2,0
16956.953,0.417,0.682,0.573,-0.27,-0.98,0.06,2,0
16956.953,0.418,0.684,0.577,-0.37,-0.79,-0.15,2,0
16956.968,0.415,0.685,0.578,-0.31,-0.7,-0.27,2,0
16956.968,0.413,0.685,0.58,-0.09,-0.7,-0.24,2,0
16956.984,0.415,0.685,0.579,0.12,-0.85,-0.12,2,0
16957.0,0.414,0.685,0.578,0.21,-1.04,-0.27,2,0
16957.0,0.411,0.684,0.576,0.15,-1.04,-0.21,2,0
16957.015,0.411,0.686,0.574,0.31,-1.19,-0.03,2,0
16957.031,0.412,0.687,0.577,0.34,-1.19,0.24,2,0
16957.031,0.415,0.684,0.577,0.09,-1.25,0.49,2,0
16957.046,0.415,0.685,0.576,0.09,-1.5,0.52,2,0
16957.062,0.418,0.685,0.574,0.09,-1.25,0.21,2,0
16957.078,0.417,0.685,0.572,0.15,-1.04,0.06,2,0
16957.078,0.419,0.682,0.571,0.09,-0.92,-0.03,2,0
16957.093,0.416,0.684,0.573,-0.06,-0.64,-0.06,2,0
16957.093,0.416,0.687,0.576,-0.15,-0.43,-0.24,2,0
16957.109,0.416,0.684,0.579,0.09,-0.31,-0.21,2,0
16957.109,0.418,0.687,0.579,0.43,-0.4,-0.03,2,0
16957.125,0.415,0.683,0.577,0.61,-0.52,-0.12,2,0
16957.14,0.417,0.683,0.575,0.73,-0.67,-0.21,2,0
16957.156,0.414,0.687,0.574,0.7,-0.73,-0.43,2,0
16957.156,0.414,0.685,0.573,0.52,-0.76,-0.34,2,0
16957.171,0.417,0.689,0.574,0.46,-0.73,-0.18,2,0
16957.171,0.416,0.688,0.572,0.27,-0.67,-0.24,2,0
16957.187,0.415,0.685,0.572,0.09,-0.61,-0.21,2,0
16957.203,0.415,0.685,0.572,-0.18,-0.61,-0.24,2,0
16957.203,0.415,0.687,0.574,-0.37,-0.55,-0.34,2,0
16957.218,0.415,0.689,0.574,-0.58,-0.52,-0.4,2,0
16957.218,0.414,0.688,0.575,-0.67,-0.46,-0.27,2,0
16957.234,0.416,0.687,0.576,-0.52,-0.55,-0.24,2,0
16957.25,0.415,0.686,0.578,-0.52,-0.61,-0.18,2,0
16957.25,0.414,0.688,0.578,-0.46,-0.85,-0.12,2,0
16957.265,0.413,0.688,0.577,-0.58,-0.92,0.0,2,0
16957.281,0.412,0.686,0.581,-0.52,-1.04,0.24,2,0
16957.281,0.413,0.684,0.578,-0.4,-1.22,0.37,2,0
16957.296,0.415,0.684,0.575,-0.27,-1.43,0.55,2,0
16957.312,0.417,0.684,0.576,-0.31,-1.43,0.52,2,0
16957.312,0.42,0.681,0.574,-0.31,-1.43,0.37,2,0
16957.328,0.419,0.683,0.572,-0.34,-1.37,0.24,2,0
16957.328,0.419,0.684,0.573,-0.49,-1.16,0.0,2,0
16957.343,0.417,0.683,0.575,-0.67,-0.85,-0.24,2,0
16957.359,0.418,0.684,0.577,-0.76,-0.67,-0.34,2,0
16957.375,0.417,0.682,0.575,-0.64,-0.55,-0.37,2,0
16957.375,0.415,0.682,0.578,-0.4,-0.31,-0.43,2,0
16957.39,0.414,0.684,0.578,-0.24,-0.24,-0.43,2,0
16957.39,0.411,0.685,0.579,-0.09,-0.4,-0.37,2,0
16957.406,0.412,0.685,0.581,0.03,-0.49,-0.21,2,0
16957.421,0.412,0.686,0.58,0.34,-0.73,-0.06,2,0
16957.421,0.411,0.687,0.578,0.46,-1.01,0.15,2,0
16957.437,0.413,0.686,0.576,0.52,-1.19,0.24,2,0
16957.453,0.417,0.683,0.574,0.55,-1.31,0.18,2,0
16957.453,0.416,0.684,0.572,0.55,-1.31,0.18,2,0
16957.468,0.417,0.685,0.573,0.24,-1.07,-0.06,2,0
16957.468,0.417,0.685,0.573,-0.06,-0.89,-0.18,2,0
16957.484,0.417,0.684,0.573,-0.31,-0.79,-0.31,2,0
16957.5,0.416,0.686,0.575,-0.52,-0.76,-0.24,2,0
16957.5,0.416,0.687,0.576,-0.73,-0.55,-0.46,2,0
16957.515,0.416,0.684,0.575,-0.85,-0.55,-0.46,2,0
16957.531,0.414,0.684,0.577,-0.98,-0.58,-0.43,2,0
16957.531,0.414,0.685,0.578,-0.85,-0.64,-0.31,2,0
16957.546,0.413,0.684,0.579,-0.67,-0.73,-0.18,2,0
16957.562,0.413,0.683,0.579,-0.58,-0.82,-0.06,2,0
16957.562,0.414,0.681,0.578,-0.31,-1.01,-0.06,2,0
16957.578,0.416,0.683,0.579,-0.18,-0.95,-0.06,2,0
16957.593,0.415,0.683,0.578,-0.21,-0.92,-0.12,2,0
16957.593,0.416,0.684,0.577,-0.18,-0.95,-0.21,2,0
16957.609,0.415,0.684,0.579,-0.12,-0.92,-0.21,2,0
16957.609,0.413,0.686,0.578,-0.06,-0.98,-0.12,2,0
16957.625,0.414,0.685,0.576,-0.18,-0.92,-0.06,2,0
16957.64,0.415,0.684,0.578,-0.12,-1.07,-0.06,2,0
16957.64,0.414,0.684,0.579,-0.12,-1.07,0.0,2,0
16957.656,0.415,0.682,0.578,-0.27,-1.19,-0.03,2,0
16957.671,0.416,0.683,0.579,-0.18,-1.16,0.03,2,0
16957.687,0.415,0.682,0.578,-0.09,-1.19,0.09,2,0
16957.687,0.417,0.682,0.576,0.06,-1.25,0.0,2,0
16957.703,0.417,0.683,0.577,0.06,-1.19,-0.09,2,0
16957.703,0.417,0.684,0.576,0.09,-1.01,-0.21,2,0
16957.718,0.417,0.685,0.577,0.03,-0.95,-0.09,2,0
16957.718,0.416,0.684,0.577,0.03,-1.01,-0.12,2,0
16957.734,0.413,0.683,0.577,0.03,-1.01,-0.18,2,0
16957.75,0.415,0.685,0.577,-0.06,-0.82,-0.21,2,0
16957.75,0.411,0.681,0.575,-0.06,-0.58,-0.18,2,0
16957.765,0.417,0.674,0.577,0.79,-0.67,-0.34,2,0
16957.781,0.417,0.697,0.577,0.55,-0.18,-0.21,2,0
16957.781,0.41,0.687,0.577,0.27,-0.27,-0.4,2,0
16957.796,0.415,0.684,0.58,0.76,-0.61,0.43,2,0
16957.812,0.414,0.691,0.576,0.0,-1.04,0.7,2,0
16957.812,0.417,0.681,0.581,-1.01,-1.71,0.73,2,0
16957.828,0.416,0.689,0.583,-1.5,-1.77,0.98,2,0
16957.828,0.416,0.674,0.576,-0.67,-1.74,0.43,2,0
16957.843,0.421,0.671,0.574,0.52,-1.13,-0.15,2,0
16957.859,0.415,0.676,0.571,1.22,-0.15,-0.89,2,0
16957.859,0.416,0.681,0.579,1.1,0.46,-0.85,2,0
16957.875,0.411,0.697,0.581,0.76,0.37,-0.58,2,0
16957.89,0.411,0.691,0.58,0.67,-0.43,-0.37,2,0
16957.906,0.414,0.692,0.581,0.98,-1.19,0.31,2,0
16957.906,0.414,0.689,0.578,0.95,-1.56,0.43,2,0
16957.921,0.416,0.683,0.575,0.82,-1.65,0.4,2,0
16957.921,0.416,0.683,0.569,1.01,-1.4,0.21,2,0
16957.937,0.417,0.679,0.57,1.01,-1.19,0.15,2,0
16957.953,0.417,0.685,0.574,0.61,-0.73,0.03,2,0
16957.953,0.417,0.69,0.578,-0.03,-0.61,0.12,2,0
16957.968,0.417,0.689,0.58,-0.46,-0.92,0.31,2,0
16957.984,0.416,0.685,0.58,-0.37,-1.56,0.58,2,0
16957.984,0.419,0.68,0.58,-0.34,-1.95,0.55,2,0
16958.0,0.419,0.679,0.578,-0.24,-1.92,0.52,2,0
16958.0,0.418,0.676,0.576,-0.03,-1.59,0.12,2,0
16958.015,0.416,0.676,0.577,0.52,-1.28,-0.06,2,0
16958.031,0.415,0.68,0.577,1.13,-0.85,-0.21,2,0
16958.031,0.415,0.685,0.579,1.5,-1.13,-0.12,2,0
16958.046,0.41,0.69,0.581,1.77,-1.59,0.0,2,0
16958.062,0.408,0.691,0.578,1.89,-2.2,0.46,2,0
16958.062,0.41,0.691,0.576,1.62,-2.72,0.67,2,0
16958.078,0.416,0.688,0.572,1.01,-2.93,0.64,2,0
16958.078,0.417,0.689,0.566,0.67,-2.84,0.73,2,0
16958.093,0.421,0.689,0.565,0.55,-2.47,0.7,2,0
16958.109,0.422,0.688,0.567,0.31,-2.08,1.07,2,0
16958.109,0.425,0.686,0.567,-0.09,-1.62,1.19,2,0
16958.125,0.426,0.684,0.565,-0.34,-1.16,0.95,2,0
16958.14,0.424,0.68,0.566,-0.76,-0.73,0.43,2,0
16958.14,0.422,0.679,0.57,-1.01,-0.31,0.24,2,0
16958.156,0.422,0.681,0.574,-1.1,0.03,-0.03,2,0
16958.171,0.418,0.682,0.579,-1.1,0.37,-0.31,2,0
16958.171,0.416,0.681,0.582,-0.76,0.49,-0.27,2,0
16958.187,0.414,0.681,0.582,-0.21,0.27,-0.18,2,0
16958.203,0.414,0.681,0.583,0.37,-0.09,-0.12,2,0
16958.203,0.413,0.682,0.583,0.61,-0.49,0.0,2,0
16958.218,0.415,0.684,0.579,1.07,-0.89,0.21,2,0
16958.218,0.417,0.685,0.579,1.65,-0.95,0.27,2,0
16958.234,0.418,0.685,0.575,1.92,-1.07,0.4,2,0
16958.25,0.419,0.684,0.571,2.11,-1.1,0.21,2,0
16958.25,0.419,0.686,0.569,1.89,-1.04,0.27,2,0
16958.265,0.42,0.684,0.567,1.56,-0.98,-0.03,2,0
16958.281,0.421,0.688,0.566,1.22,-0.79,-0.21,2,0
16958.281,0.42,0.691,0.567,0.55,-0.61,-0.4,2,0
16958.296,0.418,0.69,0.567,0.0,-0.52,-0.4,2,0
16958.312,0.417,0.691,0.569,-0.43,-0.46,-0.43,2,0
16958.312,0.417,0.689,0.571,-0.73,-0.46,-0.31,2,0
16958.328,0.416,0.686,0.574,-0.95,-0.52,-0.4,2,0
16958.343,0.416,0.685,0.575,-1.01,-0.61,-0.31,2,0
16958.343,0.416,0.685,0.576,-1.1,-0.67,-0.21,2,0
16958.359,0.416,0.685,0.578,-0.95,-1.01,-0.12,2,0
16958.359,0.415,0.686,0.578,-0.95,-1.25,-0.06,2,0
16958.375,0.418,0.685,0.576,-0.76,-1.53,0.03,2,0
16958.39,0.421,0.683,0.575,-0.67,-1.56,-0.06,2,0
16958.39,0.421,0.683,0.572,-0.61,-1.53,-0.12,2,0
16958.406,0.421,0.684,0.571,-0.55,-1.25,-0.24,2,0
16958.421,0.42,0.683,0.571,-0.64,-0.95,-0.43,2,0
16958.437,0.419,0.685,0.57,-0.82,-0.67,-0.64,2,0
16958.437,0.418,0.686,0.572,-1.01,-0.52,-0.7,2,0
16958.453,0.416,0.685,0.574,-1.16,-0.46,-0.76,2,0
16958.453,0.416,0.684,0.574,-1.34,-0.46,-0.76,2,0
16958.468,0.415,0.683,0.576,-1.46,-0.37,-0.79,2,0
16958.468,0.418,0.681,0.576,-1.34,-0.34,-0.82,2,0
16958.484,0.417,0.684,0.578,-1.19,-0.4,-0.85,2,0
16958.515,0.415,0.687,0.578,-1.19,-0.34,-0.7,2,0
16958.515,0.416,0.686,0.579,-1.07,-0.49,-0.7,2,0
16958.531,0.416,0.685,0.579,-0.79,-0.52,-0.46,2,0
16958.531,0.417,0.684,0.577,-0.79,-0.64,-0.27,2,0
16958.531,0.417,0.683,0.577,-0.79,-0.92,-0.27,2,0
16958.546,0.418,0.684,0.572,-0.92,-0.89,-0.37,2,0
16958.562,0.421,0.684,0.573,-0.98,-0.73,-0.43,2,0
16958.562,0.422,0.683,0.571,-1.04,-0.46,-0.58,2,0
16958.578,0.422,0.685,0.57,-1.16,-0.15,-0.89,2,0
16958.578,0.42,0.684,0.571,-1.37,0.18,-1.16,2,0
16958.593,0.418,0.684,0.572,-1.77,0.61,-1.28,2,0
16958.609,0.416,0.683,0.573,-2.2,1.01,-1.19,2,0
16958.609,0.417,0.683,0.575,-2.38,1.19,-1.04,2,0
16958.625,0.415,0.684,0.578,-2.56,1.16,-1.07,2,0
16958.64,0.415,0.685,0.58,-2.62,1.19,-1.16,2,0
16958.656,0.414,0.683,0.58,-2.62,1.16,-1.22,2,0
16958.656,0.411,0.679,0.581,-2.56,1.28,-1.34,2,0
16958.671,0.41,0.679,0.584,-2.41,1.4,-1.28,2,0
16958.671,0.409,0.679,0.586,-2.2,1.34,-1.19,2,0
16958.687,0.408,0.678,0.589,-1.92,1.28,-1.07,2,0
16958.703,0.406,0.678,0.595,-1.37,0.89,-0.89,2,0
16958.703,0.406,0.678,0.6,-0.7,0.37,-0.67,2,0
16958.718,0.406,0.679,0.598,0.18,-0.4,-0.43,2,0
16958.734,0.405,0.678,0.596,0.98,-1.16,-0.21,2,0
16958.734,0.407,0.68,0.589,1.68,-1.77,-0.18,2,0
16958.75,0.41,0.684,0.587,2.17,-2.26,0.03,2,0
16958.75,0.411,0.686,0.583,2.23,-2.69,0.21,2,0
16958.765,0.413,0.686,0.575,2.04,-2.99,0.18,2,0
16958.781,0.416,0.688,0.57,1.53,-3.05,0.21,2,0
16958.781,0.419,0.687,0.565,0.79,-2.87,-0.06,2,0
16958.796,0.418,0.689,0.564,0.0,-2.44,-0.18,2,0
16958.812,0.42,0.688,0.562,-1.01,-1.83,-0.43,2,0
16958.812,0.422,0.689,0.562,-2.01,-1.1,-0.43,2,0
16958.828,0.421,0.688,0.566,-2.78,-0.34,-0.55,2,0
16958.843,0.416,0.684,0.571,-3.39,0.31,-0.79,2,0
16958.843,0.415,0.682,0.577,-3.78,0.7,-0.95,2,0
16958.859,0.411,0.68,0.583,-4.18,0.92,-1.07,2,0
16958.859,0.408,0.681,0.589,-4.18,1.07,-0.73,2,0
16958.875,0.405,0.679,0.594,-3.81,0.92,-0.4,2,0
16958.89,0.405,0.679,0.597,-3.17,0.61,-0.09,2,0
16958.89,0.404,0.675,0.599,-2.66,0.18,0.27,2,0
16958.906,0.407,0.675,0.6,-2.04,-0.55,0.55,2,0
16958.921,0.409,0.674,0.599,-1.37,-1.19,0.64,2,0
16958.921,0.41,0.673,0.595,-0.82,-1.8,0.61,2,0
16958.937,0.412,0.674,0.591,-0.18,-2.01,0.49,2,0
16958.953,0.414,0.674,0.589,0.55,-1.83,0.49,2,0
16958.953,0.417,0.675,0.584,1.19,-1.74,0.4,2,0
16958.968,0.414,0.674,0.584,1.56,-1.46,0.03,2,0
16958.968,0.414,0.678,0.584,1.68,-1.34,-0.06,2,0
16958.984,0.414,0.68,0.58,1.71,-1.4,-0.15,2,0
16959.0,0.414,0.682,0.58,1.74,-1.31,-0.24,2,0
16959.0,0.413,0.685,0.579,1.59,-1.25,-0.24,2,0
16959.015,0.413,0.687,0.577,1.19,-1.25,-0.09,2,0
16959.031,0.413,0.688,0.578,0.43,-1.28,0.15,2,0
16959.031,0.413,0.685,0.579,0.0,-1.46,0.18,2,0
16959.046,0.414,0.684,0.578,-0.34,-1.31,0.21,2,0
16959.062,0.414,0.681,0.583,-0.61,-1.34,0.18,2,0
16959.062,0.414,0.679,0.581,-0.98,-1.31,-0.03,2,0
16959.078,0.413,0.678,0.582,-1.19,-1.28,0.03,2,0
16959.093,0.414,0.68,0.585,-1.25,-1.28,0.09,2,0
16959.093,0.415,0.679,0.588,-1.07,-1.16,0.15,2,0
16959.109,0.413,0.677,0.588,-0.64,-1.28,0.21,2,0
16959.125,0.415,0.678,0.588,-0.31,-1.43,0.24,2,0
16959.125,0.416,0.674,0.586,0.21,-1.53,0.15,2,0
16959.14,0.415,0.677,0.585,0.49,-1.43,0.21,2,0
16959.14,0.412,0.679,0.584,0.61,-1.37,0.09,2,0
16959.156,0.413,0.68,0.583,0.67,-1.1,0.09,2,0
16959.171,0.414,0.682,0.582,0.98,-0.95,0.27,2,0
16959.187,0.415,0.681,0.582,0.95,-1.07,0.43,2,0
16959.187,0.414,0.681,0.58,0.73,-1.01,0.37,2,0
16959.203,0.415,0.681,0.58,0.55,-0.79,0.4,2,0
16959.203,0.415,0.679,0.58,0.34,-0.61,0.46,2,0
16959.218,0.415,0.678,0.583,0.15,-0.4,0.4,2,0
16959.218,0.414,0.68,0.585,0.09,-0.49,0.31,2,0
16959.234,0.415,0.679,0.586,0.15,-0.52,0.34,2,0
16959.25,0.415,0.678,0.587,0.34,-0.52,0.21,2,0
16959.265,0.415,0.677,0.586,0.55,-0.73,0.21,2,0
16959.265,0.415,0.679,0.584,0.52,-0.76,0.18,2,0
16959.281,0.414,0.68,0.583,0.61,-0.76,0.15,2,0
16959.281,0.414,0.679,0.583,0.79,-0.85,0.09,2,0
16959.296,0.415,0.681,0.582,0.82,-0.73,0.09,2,0
16959.312,0.413,0.68,0.583,0.85,-0.58,0.03,2,0
16959.312,0.415,0.679,0.581,0.82,-0.58,-0.06,2,0
16959.328,0.417,0.679,0.579,0.79,-0.46,-0.15,2,0
16959.343,0.417,0.68,0.58,0.67,-0.37,-0.31,2,0
16959.343,0.416,0.682,0.58,0.58,-0.24,-0.37,2,0
16959.359,0.413,0.682,0.579,0.4,-0.06,-0.49,2,0
16959.359,0.411,0.684,0.579,0.06,0.03,-0.4,2,0
16959.375,0.411,0.683,0.581,-0.18,0.03,-0.06,2,0
16959.39,0.41,0.681,0.584,-0.27,-0.06,0.09,2,0
16959.39,0.413,0.678,0.585,-0.34,-0.09,0.21,2,0
16959.406,0.415,0.677,0.585,-0.15,-0.15,0.18,2,0
16959.421,0.415,0.678,0.583,0.0,-0.15,-0.03,2,0
16959.421,0.415,0.678,0.582,0.09,-0.12,-0.15,2,0
16959.437,0.414,0.679,0.583,0.24,-0.03,-0.21,2,0
16959.453,0.416,0.68,0.584,0.34,0.27,-0.34,2,0
16959.453,0.413,0.678,0.584,0.43,0.4,-0.4,2,0
16959.468,0.414,0.679,0.583,0.55,0.18,-0.49,2,0
16959.484,0.414,0.681,0.583,0.76,0.03,-0.55,2,0
16959.484,0.415,0.681,0.583,0.67,-0.21,-0.76,2,0
16959.5,0.414,0.682,0.58,0.52,-0.03,-0.89,2,0
16959.5,0.415,0.683,0.578,0.43,0.09,-0.85,2,0
16959.515,0.413,0.683,0.579,0.21,0.34,-0.7,2,0
16959.531,0.413,0.684,0.579,0.09,0.37,-0.73,2,0
16959.531,0.411,0.683,0.58,-0.15,0.52,-0.64,2,0
16959.546,0.41,0.683,0.581,-0.49,0.55,-0.7,2,0
16959.562,0.409,0.681,0.583,-0.64,0.49,-0.61,2,0
16959.562,0.409,0.683,0.586,-0.85,0.49,-0.58,2,0
16959.578,0.407,0.684,0.586,-0.85,0.21,-0.43,2,0
16959.593,0.409,0.682,0.585,-0.82,0.09,-0.43,2,0
16959.593,0.408,0.68,0.586,-0.89,0.06,-0.55,2,0
16959.609,0.409,0.681,0.587,-0.73,-0.06,-0.34,2,0
16959.609,0.409,0.682,0.587,-0.52,-0.18,-0.24,2,0
16959.625,0.408,0.683,0.588,-0.4,-0.31,-0.15,2,0
16959.64,0.407,0.681,0.586,-0.27,-0.43,0.03,2,0
16959.64,0.41,0.68,0.588,-0.24,-0.61,0.18,2,0
16959.656,0.412,0.68,0.585,-0.34,-0.73,0.15,2,0
16959.671,0.413,0.681,0.583,-0.24,-0.85,0.06,2,0
16959.671,0.414,0.679,0.582,-0.34,-0.82,0.0,2,0
16959.687,0.414,0.679,0.579,-0.49,-0.55,-0.15,2,0
16959.703,0.413,0.681,0.58,-0.85,-0.34,-0.27,2,0
16959.703,0.412,0.682,0.583,-1.1,-0.09,-0.4,2,0
16959.718,0.411,0.68,0.584,-1.19,0.09,-0.46,2,0
16959.718,0.412,0.677,0.587,-0.89,0.18,-0.43,2,0
16959.734,0.409,0.677,0.588,-0.73,0.31,-0.52,2,0
16959.75,0.408,0.678,0.588,-0.7,0.37,-0.46,2,0
16959.75,0.408,0.679,0.589,-0.64,0.37,-0.37,2,0
16959.765,0.405,0.68,0.59,-0.49,0.31,-0.27,2,0
16959.781,0.408,0.683,0.591,-0.31,0.09,-0.18,2,0
16959.781,0.408,0.683,0.589,-0.06,-0.15,-0.09,2,0
16959.796,0.409,0.682,0.586,0.09,-0.4,-0.03,2,0
16959.812,0.41,0.68,0.584,0.06,-0.58,0.12,2,0
16959.812,0.411,0.679,0.583,0.0,-0.61,0.0,2,0
16959.828,0.411,0.681,0.583,-0.18,-0.49,-0.27,2,0
16959.843,0.41,0.683,0.585,-0.4,-0.15,-0.18,2,0
16959.843,0.41,0.682,0.584,-0.46,0.06,-0.27,2,0
16959.859,0.409,0.681,0.583,-0.64,0.18,-0.43,2,0
16959.859,0.407,0.68,0.584,-0.79,0.18,-0.37,2,0
16959.875,0.406,0.681,0.585,-1.16,0.12,-0.24,2,0
16959.89,0.408,0.68,0.587,-1.31,0.09,-0.31,2,0
16959.89,0.406,0.68,0.59,-1.37,0.0,-0.24,2,0
16959.906,0.406,0.679,0.589,-1.28,-0.09,-0.21,2,0
16959.921,0.407,0.681,0.59,-1.16,-0.09,-0.09,2,0
16959.921,0.404,0.677,0.59,-0.89,-0.18,0.12,2,0
16959.937,0.405,0.676,0.591,-0.73,-0.34,0.06,2,0
16959.953,0.406,0.679,0.592,-0.64,-0.46,0.06,2,0
16959.953,0.407,0.679,0.591,-0.43,-0.55,0.21,2,0
16959.968,0.407,0.68,0.592,-0.27,-0.73,0.24,2,0
16959.984,0.406,0.679,0.59,-0.15,-0.82,0.34,2,0
16959.984,0.404,0.68,0.59,0.0,-0.98,0.31,2,0
16960.0,0.407,0.676,0.588,0.18,-1.16,0.52,2,0
16960.015,0.408,0.676,0.587,0.03,-0.98,0.31,2,0
16960.015,0.408,0.678,0.586,-0.03,-0.79,0.09,2,0
16960.031,0.409,0.678,0.587,0.09,-0.64,0.21,2,0
16960.031,0.409,0.68,0.59,0.09,-0.73,0.21,2,0
16960.046,0.408,0.679,0.591,0.12,-0.98,0.21,2,0
16960.062,0.407,0.679,0.59,0.12,-1.28,0.21,2,0
16960.062,0.407,0.678,0.587,0.03,-1.53,0.09,2,0
16960.078,0.405,0.68,0.586,-0.21,-1.74,0.15,2,0
16960.093,0.403,0.683,0.587,-0.49,-1.8,0.34,2,0
16960.093,0.404,0.682,0.588,-0.73,-1.86,0.82,2,0
16960.109,0.408,0.681,0.59,-0.85,-1.86,1.1,2,0
16960.109,0.414,0.679,0.591,-0.82,-2.11,1.16,2,0
16960.125,0.414,0.674,0.589,-0.64,-2.38,1.1,2,0
16960.14,0.415,0.671,0.587,-0.43,-2.44,0.64,2,0
16960.14,0.417,0.669,0.585,-0.4,-2.2,0.21,2,0
16960.156,0.417,0.67,0.585,-0.24,-1.71,-0.24,2,0
16960.171,0.415,0.673,0.589,0.0,-1.1,-0.64,2,0
16960.171,0.411,0.676,0.592,0.09,-0.89,-0.79,2,0
16960.187,0.408,0.678,0.591,0.46,-0.89,-0.92,2,0
16960.203,0.407,0.68,0.594,0.85,-1.28,-0.95,2,0
16960.203,0.406,0.682,0.59,0.95,-1.83,-0.73,2,0
16960.218,0.407,0.681,0.586,0.7,-2.04,-0.64,2,0
16960.234,0.407,0.68,0.586,0.49,-2.04,-0.52,2,0
16960.234,0.406,0.681,0.585,0.27,-2.01,-0.34,2,0
16960.25,0.407,0.683,0.584,-0.03,-2.11,-0.18,2,0
16960.25,0.407,0.684,0.587,-0.46,-2.29,-0.06,2,0
16960.265,0.406,0.682,0.588,-0.73,-2.44,0.12,2,0
16960.281,0.407,0.679,0.586,-0.92,-2.75,0.46,2,0
16960.281,0.407,0.679,0.589,-1.13,-2.93,0.49,2,0
16960.296,0.407,0.677,0.59,-1.19,-3.02,0.52,2,0
16960.312,0.408,0.675,0.592,-1.16,-3.2,0.61,2,0
16960.312,0.409,0.673,0.594,-1.04,-3.45,0.4,2,0
16960.328,0.408,0.674,0.593,-0.89,-3.81,0.15,2,0
16960.328,0.408,0.678,0.595,-0.49,-4.24,0.27,2,0
16960.343,0.409,0.678,0.594,-0.15,-4.49,0.55,2,0
16960.359,0.412,0.676,0.59,0.18,-4.7,0.64,2,0
16960.359,0.413,0.678,0.587,0.55,-4.97,0.76,2,0
16960.375,0.416,0.677,0.584,0.55,-5.1,0.64,2,0
16960.39,0.418,0.676,0.582,0.27,-4.94,0.4,2,0
16960.39,0.42,0.677,0.579,0.06,-4.76,0.27,2,0
16960.406,0.423,0.68,0.576,-0.09,-4.46,0.09,2,0
16960.421,0.423,0.68,0.572,-0.55,-3.85,-0.15,2,0
16960.421,0.422,0.677,0.572,-1.07,-3.2,-0.27,2,0
16960.437,0.424,0.678,0.573,-1.4,-2.53,-0.37,2,0
16960.453,0.421,0.678,0.576,-2.01,-1.74,-0.34,2,0
16960.453,0.419,0.676,0.58,-2.53,-1.1,-0.43,2,0
16960.468,0.418,0.676,0.584,-2.62,-0.76,-0.4,2,0
16960.468,0.415,0.675,0.588,-2.47,-0.58,-0.18,2,0
16960.484,0.412,0.674,0.593,-2.38,-0.79,-0.18,2,0
16960.5,0.412,0.673,0.595,-1.98,-0.82,-0.21,2,0
16960.5,0.413,0.669,0.595,-1.4,-0.98,-0.15,2,0
16960.515,0.414,0.67,0.593,-0.64,-1.25,-0.03,2,0
16960.531,0.416,0.669,0.592,-0.18,-1.22,-0.06,2,0
16960.546,0.417,0.669,0.591,0.06,-1.37,-0.43,2,0
16960.546,0.416,0.668,0.588,0.34,-1.43,-0.79,2,0
16960.562,0.417,0.672,0.586,0.46,-1.46,-1.25,2,0
16960.562,0.418,0.676,0.584,0.58,-1.4,-1.37,2,0
16960.578,0.42,0.679,0.582,0.73,-1.1,-1.25,2,0
16960.578,0.42,0.68,0.58,0.49,-0.98,-1.34,2,0
16960.593,0.42,0.682,0.578,0.0,-0.92,-1.28,2,0
16960.609,0.42,0.682,0.576,-0.58,-0.92,-1.19,2,0
16960.609,0.42,0.68,0.575,-1.4,-0.73,-1.46,2,0
16960.625,0.418,0.679,0.577,-2.26,-0.58,-1.71,2,0
16960.64,0.415,0.679,0.579,-3.3,-0.37,-1.89,2,0
16960.64,0.415,0.679,0.583,-4.09,-0.24,-1.95,2,0
16960.656,0.415,0.677,0.586,-4.55,-0.21,-2.01,2,0
16960.671,0.412,0.676,0.589,-5.04,-0.27,-2.17,2,0
16960.671,0.411,0.674,0.591,-5.25,-0.43,-2.29,2,0
16960.687,0.411,0.673,0.594,-5.13,-0.73,-2.29,2,0
16960.703,0.41,0.672,0.595,-5.25,-0.92,-2.44,2,0
16960.703,0.409,0.67,0.597,-5.19,-1.25,-2.75,2,0
16960.718,0.411,0.668,0.601,-4.85,-1.62,-2.84,2,0
16960.718,0.412,0.671,0.601,-4.55,-1.95,-2.96,2,0
16960.734,0.41,0.672,0.604,-4.18,-2.44,-3.08,2,0
16960.75,0.411,0.674,0.606,-3.6,-3.08,-2.9,2,0
16960.765,0.411,0.676,0.606,-2.87,-3.97,-2.78,2,0
16960.765,0.413,0.673,0.607,-2.14,-4.64,-2.69,2,0
16960.781,0.416,0.679,0.607,-1.1,-5.22,-2.5,2,0
16960.781,0.42,0.684,0.604,0.03,-6.26,-2.47,2,0
16960.796,0.431,0.691,0.599,0.92,-7.48,-2.44,2,0
16960.812,0.434,0.69,0.594,1.28,-8.58,-3.02,2,0
16960.812,0.434,0.689,0.591,1.68,-9.31,-3.42,2,0
16960.828,0.441,0.703,0.576,1.59,-10.1,-3.78,2,0
16960.843,0.458,0.723,0.572,0.7,-10.83,-4.58,2,0
16960.843,0.459,0.757,0.564,-0.03,-11.72,-6.04,2,0
16960.859,0.451,0.817,0.547,0.0,-12.57,-7.2,2,0
16960.875,0.458,0.885,0.536,-2.44,-13.06,-7.87,2,0
16960.875,0.461,0.945,0.539,-8.51,-11.32,-7.97,2,0
16960.89,0.427,0.988,0.554,-14.31,-9.03,-4.88,2,0
16960.89,0.387,1.031,0.553,-15.14,-7.97,3.69,2,0
16960.906,0.342,0.916,0.659,-9.34,-9.52,13.18,2,0
16960.921,0.312,0.846,0.561,51.42,-23.38,12.57,2,0
16960.921,0.52,0.97,0.538,96.68,-26.25,26.95,2,0
16960.937,0.496,0.972,0.42,117.74,-19.59,24.38,2,0
16960.953,0.473,0.823,0.376,135.44,-13.61,20.17,2,0
16960.953,0.525,0.822,0.384,145.48,-9.64,20.54,2,0
16960.968,0.522,0.823,0.312,155.03,-5.58,21.24,2,0
16960.984,0.526,0.803,0.276,156.29,-2.2,22.13,2,0
16960.984,0.56,0.791,0.297,142.37,9.95,24.6,2,0
16961.0,0.559,0.751,0.297,133.0,17.73,25.82,2,0
16961.015,0.549,0.692,0.31,126.44,25.85,27.47,2,0
16961.015,0.543,0.639,0.338,124.88,33.33,28.14,2,0
16961.031,0.523,0.544,0.395,126.41,40.13,26.22,2,0
16961.031,0.414,0.515,0.612,126.62,41.57,19.71,2,0
16961.046,0.254,0.72,0.771,113.32,19.38,12.24,2,0
16961.062,0.553,0.531,0.432,128.33,8.18,18.13,2,0
16961.062,0.403,0.47,0.514,124.88,14.4,3.48,2,0
16961.078,0.402,0.632,0.64,101.41,3.88,-6.93,2,0
16961.093,0.421,0.577,0.531,105.23,-1.56,-10.16,2,0
16961.093,0.363,0.589,0.5,99.31,-6.74,-14.71,2,0
16961.109,0.395,0.606,0.481,87.37,-14.53,-18.34,2,0
16961.125,0.361,0.617,0.417,84.93,-17.15,-24.14,2,0
16961.125,0.358,0.617,0.369,85.24,-17.58,-27.53,2,0
16961.14,0.37,0.651,0.321,85.27,-16.21,-30.85,2,0
16961.14,0.367,0.676,0.262,87.41,-10.86,-33.94,2,0
16961.156,0.372,0.712,0.22,86.79,-2.26,-36.38,2,0
16961.171,0.38,0.761,0.206,83.86,8.55,-37.93,2,0
16961.171,0.363,0.811,0.196,79.01,19.35,-39.61,2,0
16961.187,0.352,0.85,0.191,70.62,28.66,-39.25,2,0
16961.203,0.321,0.917,0.23,55.51,35.1,-37.93,2,0
16961.203,0.266,0.993,0.26,39.16,35.62,-34.12,2,0
16961.218,0.254,0.995,0.256,25.48,31.95,-27.77,2,0
16961.218,0.231,0.985,0.269,6.29,24.75,-21.88,2,0
16961.234,0.216,0.986,0.278,-16.45,14.68,-15.29,2,0
16961.25,0.233,0.949,0.264,-38.64,3.45,-8.64,2,0
16961.265,0.244,0.902,0.251,-61.04,-6.62,-4.27,2,0
16961.265,0.257,0.883,0.244,-84.17,-15.38,-1.13,2,0
16961.281,0.281,0.868,0.233,-108.1,-22.86,0.4,2,0
16961.281,0.294,0.844,0.223,-132.51,-28.6,0.43,2,0
16961.296,0.312,0.831,0.223,-155.61,-32.29,0.18,2,0
16961.312,0.339,0.824,0.231,-176.46,-33.72,0.27,2,0
16961.312,0.358,0.822,0.242,-195.01,-32.65,0.73,2,0
16961.328,0.378,0.827,0.262,-211.55,-30.06,1.98,2,0
16961.343,0.388,0.831,0.283,-225.71,-26.58,3.57,2,0
16961.343,0.382,0.816,0.305,-237.5,-22.68,5.77,2,0
16961.359,0.439,0.831,0.32,-246.8,-19.56,8.3,2,0
16961.359,0.398,0.815,0.326,-254.49,-13.25,9.19,2,0
16961.375,0.405,0.769,0.367,-262.0,-7.97,13.82,2,0
16961.39,0.434,0.784,0.411,-262.03,-3.36,14.19,2,0
16961.39,0.426,0.751,0.436,-255.1,3.39,12.97,2,0
16961.406,0.444,0.728,0.481,-246.35,11.23,12.12,2,0
16961.421,0.469,0.704,0.549,-232.37,21.91,10.28,2,0
16961.421,0.472,0.651,0.615,-208.35,35.77,7.63,2,0
16961.437,0.505,0.64,0.705,-174.87,48.25,-0.09,2,0
16961.453,0.506,0.692,0.772,-132.79,58.78,-9.25,2,0
16961.453,0.448,0.759,0.828,-92.38,65.52,-12.82,2,0
16961.468,0.432,0.829,0.878,-58.05,64.82,-11.35,2,0
16961.468,0.417,0.825,0.85,-26.49,58.81,-7.39,2,0
16961.484,0.358,0.794,0.799,-5.62,50.42,2.32,2,0
16961.5,0.37,0.767,0.756,6.38,39.8,11.81,2,0
16961.515,0.382,0.697,0.683,11.32,26.95,18.1,2,0
16961.515,0.391,0.68,0.617,7.48,15.87,21.7,2,0
16961.531,0.409,0.654,0.549,-0.7,8.51,23.47,2,0
16961.531,0.406,0.622,0.505,-11.26,5.77,24.99,2,0
16961.546,0.43,0.59,0.5,-20.66,8.33,28.57,2,0
16961.562,0.438,0.56,0.519,-26.06,15.56,32.65,2,0
16961.562,0.457,0.55,0.545,-28.53,25.76,36.44,2,0
16961.578,0.455,0.553,0.574,-30.98,36.65,37.75,2,0
16961.593,0.434,0.533,0.631,-35.74,45.9,36.29,2,0
16961.593,0.438,0.539,0.694,-42.02,52.03,31.74,2,0
16961.609,0.382,0.553,0.741,-49.99,56.49,27.16,2,0
16961.609,0.363,0.543,0.811,-57.83,58.2,25.45,2,0
16961.625,0.342,0.52,0.856,-58.99,57.47,24.17,2,0
16961.64,0.332,0.503,0.873,-54.93,54.87,23.8,2,0
16961.64,0.329,0.481,0.886,-48.16,52.92,23.47,2,0
16961.656,0.285,0.422,0.869,-40.19,51.12,23.5,2,0
16961.671,0.302,0.412,0.871,-32.41,48.77,24.81,2,0
16961.671,0.305,0.413,0.866,-23.16,48.28,24.23,2,0
16961.687,0.278,0.392,0.844,-16.51,47.18,22.83,2,0
16961.703,0.295,0.415,0.864,-13.4,44.53,20.87,2,0
16961.703,0.227,0.449,0.976,-10.22,38.27,18.07,2,0
16961.718,0.242,0.423,0.974,-6.32,22.68,17.94,2,0
16961.718,0.281,0.443,0.915,-9.16,7.93,14.16,2,0
16961.734,0.28,0.433,0.885,-10.35,-1.1,8.58,2,0
16961.75,0.305,0.414,0.828,-7.11,-5.89,5.13,2,0
16961.75,0.31,0.427,0.785,-5.58,-5.16,2.62,2,0
16961.765,0.303,0.433,0.784,-6.29,-1.83,1.07,2,0
16961.781,0.303,0.443,0.811,-7.87,1.89,1.1,2,0
16961.781,0.302,0.458,0.848,-7.48,5.04,1.59,2,0
16961.796,0.297,0.462,0.878,-3.91,6.81,3.14,2,0
16961.812,0.302,0.451,0.874,-0.37,6.56,4.24,2,0
16961.812,0.308,0.432,0.86,0.49,4.06,2.59,2,0
16961.828,0.309,0.424,0.846,0.24,0.06,-0.95,2,0
16961.843,0.313,0.429,0.829,-0.18,-4.36,-5.04,2,0
16961.843,0.318,0.437,0.817,-2.14,-7.87,-9.55,2,0
16961.859,0.31,0.441,0.816,-6.13,-11.14,-15.23,2,0
16961.859,0.305,0.451,0.813,-12.54,-14.65,-21.03,2,0
16961.875,0.3,0.46,0.819,-19.5,-17.24,-25.42,2,0
16961.906,0.294,0.462,0.836,-24.6,-17.82,-27.01,2,0
16961.906,0.289,0.467,0.864,-25.91,-16.66,-25.73,2,0
16961.906,0.283,0.485,0.871,-19.44,-14.07,-20.72,2,0
16961.921,0.278,0.486,0.864,-9.83,-10.32,-13.21,2,0
16961.921,0.282,0.48,0.854,-0.21,-7.23,-5.83,2,0
16961.937,0.286,0.484,0.839,7.29,-4.61,-0.58,2,0
16961.953,0.282,0.467,0.826,8.97,-3.88,1.59,2,0
16961.953,0.281,0.44,0.815,6.44,-4.94,1.53,2,0
16961.968,0.288,0.43,0.81,3.27,-6.78,0.64,2,0
16961.968,0.294,0.439,0.812,-3.48,-10.47,-3.23,2,0
16961.984,0.289,0.445,0.824,-5.83,-11.75,-3.81,2,0
16962.0,0.289,0.457,0.832,-7.93,-11.93,-4.06,2,0
16962.015,0.294,0.437,0.85,-9.28,-11.11,-4.46,2,0
16962.015,0.294,0.406,0.865,-9.16,-10.53,-5.19,2,0
16962.031,0.29,0.399,0.872,-6.59,-10.56,-5.62,2,0
16962.031,0.309,0.419,0.86,-1.83,-10.47,-4.64,2,0
16962.046,0.313,0.416,0.847,3.2,-9.92,-3.57,2,0
16962.062,0.324,0.428,0.829,6.74,-9.52,-3.45,2,0
16962.062,0.332,0.443,0.823,8.58,-9.4,-4.39,2,0
16962.078,0.332,0.45,0.819,8.94,-9.7,-5.74,2,0
16962.078,0.336,0.463,0.812,9.0,-9.86,-6.2,2,0
16962.093,0.341,0.486,0.804,9.86,-9.4,-5.46,2,0
16962.109,0.346,0.492,0.792,10.59,-8.18,-4.09,2,0
16962.109,0.352,0.509,0.79,12.79,-6.16,-1.43,2,0
16962.125,0.345,0.529,0.788,16.33,-3.33,2.69,2,0
16962.14,0.34,0.53,0.786,19.07,0.58,7.78,2,0
16962.14,0.339,0.516,0.798,20.17,4.46,10.86,2,0
16962.156,0.318,0.49,0.815,21.58,7.23,12.24,2,0
16962.171,0.311,0.442,0.831,21.24,5.65,13.49,2,0
16962.171,0.316,0.451,0.832,19.2,1.43,12.73,2,0
16962.187,0.309,0.472,0.816,16.42,-2.29,11.02,2,0
16962.203,0.306,0.496,0.785,12.36,-4.64,10.41,2,0
16962.203,0.303,0.518,0.768,8.91,-4.79,11.9,2,0
16962.218,0.309,0.53,0.768,6.84,-2.5,15.44,2,0
16962.218,0.312,0.542,0.777,5.92,0.55,19.96,2,0
16962.234,0.312,0.532,0.775,5.95,4.15,24.6,2,0
16962.25,0.316,0.527,0.782,5.71,7.23,28.84,2,0
16962.25,0.32,0.514,0.788,5.58,9.52,32.07,2,0
16962.265,0.324,0.495,0.787,5.22,11.26,34.52,2,0
16962.281,0.325,0.478,0.785,5.31,12.94,36.23,2,0
16962.281,0.334,0.472,0.788,4.82,13.95,37.26,2,0
16962.296,0.345,0.464,0.798,2.44,13.55,36.32,2,0
16962.312,0.345,0.455,0.804,-1.43,10.99,32.81,2,0
16962.312,0.352,0.449,0.814,-6.41,7.29,29.3,2,0
16962.328,0.364,0.437,0.81,-10.01,4.15,25.88,2,0
16962.343,0.38,0.441,0.807,-11.17,3.39,22.77,2,0
16962.343,0.39,0.438,0.82,-10.59,4.7,19.84,2,0
16962.359,0.411,0.441,0.815,-8.12,7.42,16.88,2,0
16962.359,0.418,0.443,0.771,-4.3,11.93,13.76,2,0
16962.375,0.407,0.426,0.746,-2.44,18.74,10.65,2,0
16962.39,0.394,0.43,0.751,-3.23,24.51,7.42,2,0
16962.406,0.38,0.445,0.746,-6.96,26.58,3.69,2,0
16962.406,0.366,0.435,0.746,-15.53,25.51,-1.65,2,0
16962.421,0.355,0.417,0.766,-28.02,21.82,-8.36,2,0
16962.421,0.332,0.407,0.827,-39.58,17.37,-15.32,2,0
16962.437,0.256,0.431,0.997,-41.23,10.32,-19.1,2,0
16962.453,0.25,0.402,1.051,-32.01,-3.39,-16.51,2,0
16962.453,0.268,0.378,0.947,-22.74,-13.89,-15.17,2,0
16962.468,0.271,0.372,0.894,-12.97,-13.64,-12.21,2,0
16962.468,0.287,0.34,0.904,-1.83,-8.61,-7.51,2,0
16962.484,0.294,0.338,0.892,9.46,-4.21,-4.3,2,0
16962.5,0.302,0.368,0.875,17.37,-2.56,-3.05,2,0
16962.5,0.31,0.406,0.866,20.05,-4.06,-4.24,2,0
16962.515,0.317,0.425,0.854,17.88,-8.91,-7.72,2,0
16962.531,0.319,0.424,0.842,11.84,-16.6,-13.92,2,0
16962.546,0.326,0.43,0.83,4.91,-24.75,-20.57,2,0
16962.546,0.336,0.434,0.815,-2.04,-32.32,-27.04,2,0
16962.562,0.336,0.438,0.793,-8.67,-37.14,-32.07,2,0
16962.562,0.34,0.457,0.777,-13.67,-37.6,-33.3,2,0
16962.578,0.354,0.487,0.788,-13.89,-33.6,-29.97,2,0
16962.593,0.363,0.507,0.795,-6.81,-24.99,-23.68,2,0
16962.593,0.361,0.51,0.784,2.11,-14.89,-16.33,2,0
16962.609,0.357,0.494,0.778,7.57,-6.29,-10.59,2,0
16962.609,0.353,0.462,0.789,8.18,-1.04,-8.0,2,0
16962.625,0.343,0.446,0.807,7.05,1.07,-7.81,2,0
16962.64,0.332,0.446,0.814,6.01,1.07,-8.24,2,0
16962.656,0.326,0.459,0.819,3.88,-0.7,-8.82,2,0
16962.656,0.324,0.46,0.823,1.1,-3.2,-9.7,2,0
16962.671,0.322,0.465,0.825,-1.22,-5.62,-10.28,2,0
16962.671,0.32,0.463,0.821,-2.2,-7.08,-10.16,2,0
16962.687,0.318,0.458,0.814,-2.72,-7.51,-9.46,2,0
16962.703,0.32,0.455,0.812,-2.69,-6.41,-8.33,2,0
16962.703,0.317,0.457,0.819,-1.5,-4.24,-6.71,2,0
16962.718,0.32,0.46,0.819,0.98,-1.5,-4.58,2,0
16962.718,0.314,0.45,0.824,2.99,0.79,-3.11,2,0
16962.734,0.312,0.453,0.835,3.69,1.31,-1.34,2,0
16962.75,0.32,0.453,0.826,4.0,0.4,-0.21,2,0
16962.75,0.326,0.455,0.825,3.69,-0.64,0.79,2,0
16962.765,0.329,0.464,0.829,3.05,-2.11,1.98,2,0
16962.781,0.333,0.452,0.812,2.04,-4.18,2.32,2,0
16962.796,0.343,0.471,0.804,0.49,-5.28,3.02,2,0
16962.796,0.346,0.472,0.795,-0.52,-4.79,3.69,2,0
16962.812,0.345,0.457,0.795,-0.92,-3.3,3.72,2,0
16962.812,0.344,0.453,0.809,-1.71,-1.8,3.2,2,0
16962.828,0.343,0.431,0.814,-1.19,-1.4,1.83,2,0
16962.828,0.34,0.433,0.824,-0.98,-1.1,0.7,2,0
16962.843,0.34,0.446,0.828,-0.15,-1.25,0.09,2,0
16962.859,0.337,0.452,0.834,1.25,-2.44,-0.52,2,0
16962.875,0.331,0.455,0.835,1.65,-4.15,-0.61,2,0
16962.875,0.337,0.451,0.832,1.98,-6.23,-1.16,2,0
16962.89,0.341,0.446,0.827,1.74,-8.03,-2.72,2,0
16962.89,0.341,0.444,0.815,1.43,-9.52,-4.88,2,0
16962.906,0.34,0.444,0.805,1.53,-9.98,-7.29,2,0
16962.921,0.338,0.453,0.797,1.1,-9.64,-9.28,2,0
16962.921,0.336,0.469,0.793,-0.12,-9.19,-9.98,2,0
16962.937,0.336,0.487,0.793,-1.59,-8.0,-9.25,2,0
16962.953,0.335,0.49,0.789,-2.84,-6.2,-7.45,2,0
16962.953,0.341,0.491,0.797,-5.52,-3.54,-2.78,2,0
16962.968,0.342,0.484,0.803,-6.96,-3.88,-2.17,2,0
16962.968,0.34,0.464,0.808,-8.61,-4.7,-1.98,2,0
16962.984,0.34,0.453,0.811,-10.1,-5.86,-2.01,2,0
16963.0,0.35,0.455,0.815,-11.23,-6.93,-2.53,2,0
16963.015,0.35,0.449,0.812,-11.96,-7.66,-3.11,2,0
16963.015,0.351,0.445,0.809,-12.63,-8.21,-3.45,2,0
16963.031,0.353,0.446,0.815,-13.21,-8.48,-3.94,2,0
16963.031,0.353,0.452,0.819,-13.82,-8.73,-4.15,2,0
16963.046,0.352,0.447,0.818,-13.92,-8.7,-4.27,2,0
16963.062,0.363,0.457,0.816,-13.76,-7.39,-3.66,2,0
16963.062,0.35,0.431,0.815,-11.84,-5.49,-3.97,2,0
16963.078,0.355,0.412,0.821,-10.16,-4.0,-3.45,2,0
16963.078,0.358,0.417,0.819,-8.12,-2.5,-3.45,2,0
16963.093,0.352,0.416,0.824,-6.44,-0.85,-4.27,2,0
16963.109,0.341,0.42,0.826,-5.8,0.76,-4.3,2,0
16963.109,0.348,0.438,0.832,-3.63,2.11,-3.27,2,0
16963.125,0.345,0.444,0.836,-2.17,2.72,-2.87,2,0
16963.14,0.336,0.424,0.832,-0.79,2.29,-3.39,2,0
16963.14,0.337,0.43,0.832,0.06,1.71,-3.36,2,0
16963.156,0.332,0.434,0.827,0.46,0.82,-3.6,2,0
16963.171,0.332,0.44,0.825,0.76,0.43,-3.14,2,0
16963.171,0.331,0.452,0.826,0.58,0.55,-2.17,2,0
16963.187,0.329,0.447,0.827,0.58,0.49,-1.22,2,0
16963.203,0.33,0.442,0.832,0.76,0.37,-0.34,2,0
16963.203,0.328,0.435,0.83,1.25,0.15,0.31,2,0
16963.218,0.328,0.435,0.831,1.5,0.09,0.73,2,0
16963.218,0.331,0.443,0.833,1.68,-0.09,1.56,2,0
16963.234,0.332,0.441,0.84,2.17,-0.67,2.44,2,0
16963.25,0.334,0.439,0.84,2.47,-1.95,3.3,2,0
16963.25,0.339,0.44,0.84,2.72,-4.03,4.09,2,0
16963.265,0.347,0.441,0.835,2.75,-5.8,5.04,2,0
16963.281,0.356,0.437,0.828,3.05,-6.9,5.4,2,0
