timestamp,ax,ay,az,gx,gy,gz,orient_label,motion_label
17060.89,-0.422,-0.268,-0.878,-3.11,-4.55,-1.4,2,0
17060.906,-0.418,-0.292,-0.877,-3.51,-2.56,-1.68,2,0
17060.906,-0.422,-0.299,-0.876,-1.22,0.31,-1.5,2,0
17060.921,-0.424,-0.291,-0.875,1.37,2.99,-1.22,2,0
17060.921,-0.433,-0.278,-0.869,2.2,4.97,-1.1,2,0
17060.937,-0.436,-0.274,-0.862,1.5,5.92,-1.16,2,0
17060.953,-0.433,-0.273,-0.847,0.4,5.55,-1.83,2,0
17060.953,-0.438,-0.269,-0.839,0.34,4.73,-2.66,2,0
17060.968,-0.443,-0.269,-0.843,-0.12,3.17,-2.5,2,0
17060.984,-0.44,-0.271,-0.853,-0.27,1.53,-1.71,2,0
17060.984,-0.433,-0.269,-0.864,0.18,1.13,-0.85,2,0
17061.0,-0.431,-0.265,-0.874,0.18,1.68,-0.61,2,0
17061.015,-0.431,-0.26,-0.875,-0.64,2.35,-1.1,2,0
17061.015,-0.431,-0.259,-0.879,-1.65,3.36,-1.34,2,0
17061.031,-0.43,-0.254,-0.874,-2.93,4.3,-1.98,2,0
17061.046,-0.431,-0.255,-0.868,-3.85,5.13,-2.56,2,0
17061.046,-0.428,-0.255,-0.861,-4.52,5.77,-2.66,2,0
17061.062,-0.432,-0.265,-0.847,-5.68,4.64,-1.89,2,0
17061.078,-0.43,-0.28,-0.842,-5.71,3.51,-0.18,2,0
17061.093,-0.427,-0.282,-0.847,-4.33,2.59,1.19,2,0
17061.093,-0.43,-0.276,-0.855,-3.42,2.14,1.68,2,0
17061.109,-0.426,-0.272,-0.855,-3.97,1.46,1.65,2,0
17061.125,-0.418,-0.283,-0.858,-4.46,0.61,1.31,2,0
17061.125,-0.418,-0.285,-0.864,-4.33,0.21,0.27,2,0
17061.14,-0.421,-0.291,-0.864,-4.79,0.15,-1.19,2,0
17061.14,-0.422,-0.295,-0.858,-4.49,0.46,-2.17,2,0
17061.156,-0.423,-0.285,-0.86,-3.36,0.73,-3.05,2,0
17061.171,-0.427,-0.274,-0.863,-3.23,0.73,-4.39,2,0
17061.171,-0.432,-0.267,-0.861,-4.09,0.46,-5.62,2,0
17061.187,-0.435,-0.266,-0.854,-4.55,0.06,-5.58,2,0
17061.203,-0.436,-0.267,-0.852,-4.0,-0.46,-4.64,2,0
17061.203,-0.432,-0.263,-0.855,-2.72,-0.73,-3.36,2,0
17061.218,-0.43,-0.255,-0.858,-1.46,-0.67,-2.23,2,0
17061.234,-0.431,-0.246,-0.855,-0.79,-0.76,-1.07,2,0
17061.234,-0.429,-0.242,-0.859,-1.01,-1.65,0.24,2,0
17061.25,-0.425,-0.25,-0.863,-1.98,-2.72,1.37,2,0
17061.265,-0.421,-0.268,-0.869,-1.89,-2.93,2.59,2,0
17061.265,-0.418,-0.274,-0.872,-0.7,-2.32,3.48,2,0
17061.281,-0.418,-0.276,-0.874,-0.09,-1.43,2.96,2,0
17061.281,-0.419,-0.279,-0.875,-0.61,-0.82,1.46,2,0
17061.296,-0.421,-0.279,-0.866,-1.43,0.0,0.12,2,0
17061.312,-0.418,-0.281,-0.855,-1.98,-0.12,-0.98,2,0
17061.312,-0.42,-0.287,-0.85,-1.98,-2.72,-3.14,2,0
17061.328,-0.42,-0.273,-0.856,-2.84,-3.75,-3.88,2,0
17061.343,-0.419,-0.269,-0.86,-3.23,-4.06,-4.24,2,0
17061.359,-0.42,-0.269,-0.859,-3.48,-4.67,-4.27,2,0
17061.359,-0.422,-0.268,-0.866,-3.63,-5.34,-3.75,2,0
17061.375,-0.418,-0.265,-0.873,-3.11,-5.4,-2.75,2,0
17061.375,-0.418,-0.266,-0.874,-2.66,-4.52,-1.86,2,0
17061.39,-0.421,-0.267,-0.87,-1.95,-3.66,-1.62,2,0
17061.39,-0.423,-0.26,-0.862,-1.62,-3.17,-1.68,2,0
17061.406,-0.429,-0.258,-0.857,-2.2,-3.57,-1.77,2,0
17061.421,-0.43,-0.265,-0.849,-2.9,-4.76,-1.37,2,0
17061.421,-0.433,-0.268,-0.845,-2.53,-6.47,-0.73,2,0
17061.437,-0.429,-0.272,-0.855,-1.71,-8.15,0.52,2,0
17061.453,-0.427,-0.267,-0.863,-1.28,-9.09,1.8,2,0
17061.453,-0.428,-0.265,-0.871,-1.07,-9.09,2.26,2,0
17061.468,-0.426,-0.264,-0.878,-1.77,-8.82,1.92,2,0
17061.484,-0.425,-0.261,-0.879,-2.72,-7.97,0.49,2,0
17061.484,-0.43,-0.26,-0.874,-3.51,-6.81,-1.19,2,0
17061.5,-0.43,-0.264,-0.866,-4.39,-6.1,-2.44,2,0
17061.515,-0.436,-0.268,-0.858,-4.76,-6.01,-3.3,2,0
17061.515,-0.439,-0.27,-0.845,-4.36,-6.35,-3.97,2,0
17061.531,-0.433,-0.268,-0.836,-4.52,-8.33,-4.73,2,0
17061.546,-0.433,-0.267,-0.843,-6.35,-10.68,-5.77,2,0
17061.546,-0.431,-0.268,-0.868,-7.78,-11.35,-6.04,2,0
17061.562,-0.424,-0.275,-0.887,-8.67,-10.44,-5.86,2,0
17061.562,-0.418,-0.283,-0.887,-8.58,-7.93,-5.4,2,0
17061.578,-0.414,-0.28,-0.892,-7.14,-4.97,-5.07,2,0
17061.593,-0.405,-0.271,-0.885,-6.78,-2.44,-5.28,2,0
17061.593,-0.406,-0.271,-0.875,-6.9,-0.55,-6.16,2,0
17061.609,-0.402,-0.266,-0.87,-7.23,0.18,-6.78,2,0
17061.625,-0.39,-0.26,-0.869,-7.51,0.55,-7.14,2,0
17061.625,-0.385,-0.263,-0.866,-7.42,1.01,-7.05,2,0
17061.64,-0.38,-0.266,-0.865,-6.78,1.43,-6.1,2,0
17061.64,-0.376,-0.261,-0.871,-5.22,1.83,-4.55,2,0
17061.656,-0.369,-0.26,-0.877,-3.78,2.75,-2.75,2,0
17061.671,-0.357,-0.259,-0.886,-3.2,3.85,-1.59,2,0
17061.687,-0.346,-0.257,-0.891,-3.3,5.65,-1.74,2,0
17061.687,-0.339,-0.259,-0.891,-3.45,8.12,-3.11,2,0
17061.703,-0.335,-0.257,-0.889,-4.24,10.62,-4.97,2,0
17061.718,-0.323,-0.257,-0.874,-6.68,12.67,-7.45,2,0
17061.718,-0.316,-0.27,-0.858,-8.27,14.25,-10.86,2,0
17061.734,-0.32,-0.271,-0.849,-8.06,15.47,-13.64,2,0
17061.734,-0.327,-0.254,-0.845,-6.93,16.11,-15.5,2,0
17061.75,-0.334,-0.247,-0.853,-6.68,15.5,-17.0,2,0
17061.765,-0.349,-0.25,-0.864,-7.48,14.77,-18.25,2,0
17061.765,-0.363,-0.255,-0.874,-8.06,14.8,-18.74,2,0
17061.781,-0.37,-0.262,-0.885,-8.0,15.32,-19.38,2,0
17061.781,-0.378,-0.268,-0.899,-6.84,16.3,-20.26,2,0
17061.796,-0.387,-0.258,-0.91,-6.16,18.22,-21.49,2,0
17061.812,-0.39,-0.252,-0.903,-6.9,20.33,-23.07,2,0
17061.812,-0.393,-0.264,-0.886,-7.63,21.39,-25.57,2,0
17061.828,-0.396,-0.255,-0.878,-8.18,21.73,-28.26,2,0
17061.843,-0.393,-0.239,-0.861,-9.52,22.22,-30.0,2,0
17061.843,-0.39,-0.24,-0.84,-10.44,22.22,-31.01,2,0
17061.859,-0.395,-0.245,-0.828,-9.37,21.24,-30.52,2,0
17061.875,-0.405,-0.239,-0.831,-7.63,19.1,-28.6,2,0
17061.875,-0.405,-0.238,-0.845,-6.59,16.85,-25.42,2,0
17061.89,-0.395,-0.259,-0.862,-5.62,14.98,-21.91,2,0
17061.906,-0.385,-0.273,-0.893,-0.98,16.11,-18.19,2,0
17061.921,-0.381,-0.278,-0.891,0.49,18.07,-18.56,2,0
17061.921,-0.381,-0.263,-0.889,0.82,19.44,-20.6,2,0
17061.937,-0.377,-0.238,-0.874,-1.19,19.75,-22.52,2,0
17061.953,-0.374,-0.231,-0.86,-2.93,18.8,-23.29,2,0
17061.953,-0.365,-0.245,-0.855,-3.2,16.63,-22.61,2,0
17061.968,-0.37,-0.251,-0.86,-2.62,13.73,-21.33,2,0
17061.984,-0.383,-0.247,-0.873,-1.83,10.47,-19.93,2,0
17061.984,-0.396,-0.248,-0.893,-1.86,7.81,-18.46,2,0
17062.0,-0.398,-0.25,-0.914,-2.66,6.07,-17.15,2,0
17062.015,-0.393,-0.239,-0.93,-2.9,5.71,-15.69,2,0
17062.015,-0.377,-0.229,-0.935,-2.2,6.41,-13.89,2,0
17062.031,-0.36,-0.226,-0.943,-0.73,7.35,-12.15,2,0
17062.046,-0.347,-0.212,-0.943,-0.06,8.51,-11.08,2,0
17062.046,-0.343,-0.21,-0.927,-0.12,9.49,-9.86,2,0
17062.062,-0.343,-0.222,-0.909,0.43,9.37,-7.39,2,0
17062.078,-0.361,-0.217,-0.922,1.56,5.8,-1.1,2,0
17062.093,-0.364,-0.22,-0.932,1.43,3.48,1.43,2,0
17062.093,-0.366,-0.222,-0.943,0.95,1.56,2.5,2,0
17062.109,-0.364,-0.224,-0.946,-0.12,0.37,2.56,2,0
17062.125,-0.358,-0.228,-0.947,-0.85,-0.06,2.78,2,0
17062.125,-0.35,-0.231,-0.94,-1.4,0.03,3.27,2,0
17062.14,-0.352,-0.236,-0.925,-2.41,-0.09,4.0,2,0
17062.14,-0.357,-0.25,-0.909,-2.08,-0.95,5.25,2,0
17062.156,-0.359,-0.249,-0.907,-0.43,-2.2,7.23,2,0
17062.171,-0.362,-0.244,-0.91,0.24,-3.78,9.0,2,0
17062.171,-0.366,-0.26,-0.915,0.61,-5.4,10.41,2,0
17062.187,-0.358,-0.264,-0.93,1.19,-7.57,11.14,2,0
17062.203,-0.359,-0.254,-0.949,0.85,-9.55,10.74,2,0
17062.203,-0.361,-0.252,-0.963,-1.22,-10.71,9.43,2,0
17062.218,-0.345,-0.249,-0.973,-3.97,-11.02,8.18,2,0
17062.234,-0.324,-0.251,-0.972,-5.98,-9.86,7.17,2,0
17062.25,-0.31,-0.24,-0.943,-3.69,-4.7,7.51,2,0
17062.265,-0.313,-0.224,-0.924,-2.29,-2.32,9.49,2,0
17062.265,-0.314,-0.234,-0.897,-1.8,-1.04,12.09,2,0
17062.281,-0.319,-0.247,-0.876,-0.09,-0.55,14.37,2,0
17062.281,-0.329,-0.238,-0.87,1.46,-0.82,15.56,2,0
17062.296,-0.335,-0.234,-0.876,1.1,-2.04,16.54,2,0
17062.312,-0.318,-0.247,-0.882,-0.85,-4.73,15.78,2,0
17062.312,-0.305,-0.257,-0.892,-1.31,-5.01,14.56,2,0
17062.328,-0.299,-0.258,-0.901,-2.2,-4.52,13.64,2,0
17062.343,-0.297,-0.266,-0.912,-3.2,-3.51,12.42,2,0
17062.343,-0.303,-0.271,-0.905,-3.72,-2.11,11.38,2,0
17062.359,-0.309,-0.264,-0.897,-3.3,-0.95,10.99,2,0
17062.375,-0.31,-0.25,-0.896,-2.2,-0.37,10.96,2,0
17062.375,-0.31,-0.241,-0.896,-1.71,-0.58,11.29,2,0
17062.39,-0.311,-0.234,-0.899,-1.89,-1.4,11.66,2,0
17062.39,-0.318,-0.232,-0.908,-1.95,-2.38,12.33,2,0
17062.421,-0.315,-0.247,-0.932,-1.46,-3.08,13.92,2,0
17062.421,-0.316,-0.251,-0.94,-1.25,-2.26,13.89,2,0
17062.437,-0.32,-0.254,-0.946,-1.28,-1.19,13.28,2,0
17062.453,-0.316,-0.256,-0.947,-1.46,0.15,12.42,2,0
17062.453,-0.307,-0.258,-0.943,-1.13,1.62,12.09,2,0
17062.468,-0.302,-0.258,-0.938,-0.24,2.93,11.63,2,0
17062.484,-0.303,-0.256,-0.94,0.24,3.75,11.38,2,0
17062.484,-0.303,-0.257,-0.936,-0.21,4.39,11.23,2,0
17062.5,-0.308,-0.264,-0.929,-0.98,4.91,10.53,2,0
17062.515,-0.313,-0.27,-0.916,-1.25,5.34,9.13,2,0
17062.515,-0.321,-0.269,-0.912,-0.82,5.49,7.14,2,0
17062.531,-0.327,-0.266,-0.911,-1.37,4.91,5.16,2,0
17062.531,-0.324,-0.268,-0.91,-2.75,4.12,3.51,2,0
17062.546,-0.315,-0.275,-0.908,-3.23,3.14,2.69,2,0
17062.562,-0.304,-0.277,-0.918,-2.35,2.62,2.17,2,0
17062.578,-0.296,-0.266,-0.929,-2.01,2.62,1.8,2,0
17062.593,-0.3,-0.27,-0.929,-2.23,4.91,0.46,2,0
17062.593,-0.311,-0.272,-0.925,-1.1,6.07,-0.49,2,0
17062.609,-0.316,-0.266,-0.926,-0.52,6.2,-1.59,2,0
17062.625,-0.315,-0.263,-0.927,-0.4,5.77,-2.01,2,0
17062.625,-0.306,-0.261,-0.929,-0.27,5.52,-1.95,2,0
17062.64,-0.303,-0.254,-0.935,-0.12,5.71,-2.26,2,0
17062.656,-0.302,-0.25,-0.943,-0.85,6.44,-2.96,2,0
17062.656,-0.3,-0.253,-0.934,-1.31,7.93,-3.91,2,0
17062.671,-0.3,-0.256,-0.923,-1.71,9.13,-4.91,2,0
17062.671,-0.307,-0.258,-0.911,-1.37,10.13,-5.58,2,0
17062.687,-0.311,-0.252,-0.901,-0.31,10.35,-5.52,2,0
17062.703,-0.309,-0.247,-0.898,0.58,9.55,-5.07,2,0
17062.703,-0.311,-0.253,-0.9,1.25,8.42,-4.67,2,0
17062.718,-0.313,-0.252,-0.912,1.8,7.08,-4.64,2,0
17062.734,-0.313,-0.243,-0.923,1.01,6.35,-5.31,2,0
17062.734,-0.313,-0.242,-0.926,-0.67,6.47,-6.01,2,0
17062.765,-0.313,-0.247,-0.914,-0.49,8.55,-6.68,2,0
17062.765,-0.327,-0.233,-0.906,1.07,9.28,-6.35,2,0
17062.781,-0.337,-0.222,-0.895,1.5,8.76,-4.85,2,0
17062.796,-0.343,-0.232,-0.884,1.56,7.81,-3.02,2,0
17062.796,-0.359,-0.245,-0.879,2.84,6.9,-1.46,2,0
17062.812,-0.363,-0.244,-0.875,4.15,6.13,0.4,2,0
17062.812,-0.355,-0.25,-0.874,5.07,5.25,1.65,2,0
17062.828,-0.342,-0.261,-0.872,5.37,4.64,2.23,2,0
17062.843,-0.328,-0.263,-0.874,5.65,4.27,2.2,2,0
17062.843,-0.308,-0.261,-0.874,6.04,4.0,2.5,2,0
17062.859,-0.29,-0.263,-0.873,6.35,4.12,3.23,2,0
17062.875,-0.282,-0.274,-0.87,7.11,4.64,4.21,2,0
17062.875,-0.276,-0.282,-0.868,9.03,5.4,5.19,2,0
17062.89,-0.278,-0.287,-0.873,11.08,6.2,5.55,2,0
17062.906,-0.289,-0.286,-0.874,11.69,6.5,4.64,2,0
17062.906,-0.302,-0.291,-0.873,11.05,5.86,2.81,2,0
17062.937,-0.306,-0.288,-0.902,9.06,2.62,-2.93,2,0
17062.937,-0.299,-0.281,-0.923,7.72,0.79,-6.47,2,0
17062.953,-0.291,-0.271,-0.943,6.1,-0.55,-9.31,2,0
17062.953,-0.276,-0.265,-0.961,4.64,-0.98,-11.11,2,0
17062.968,-0.256,-0.26,-0.966,4.0,0.27,-11.81,2,0
17062.984,-0.237,-0.258,-0.964,5.19,2.84,-12.91,2,0
17062.984,-0.24,-0.247,-0.961,6.59,5.74,-14.22,2,0
17063.0,-0.257,-0.233,-0.946,6.65,7.48,-15.5,2,0
17063.015,-0.274,-0.232,-0.931,4.61,7.26,-18.04,2,0
17063.015,-0.291,-0.243,-0.92,0.85,5.71,-22.4,2,0
17063.031,-0.305,-0.245,-0.915,-3.94,2.84,-28.38,2,0
17063.031,-0.312,-0.237,-0.913,-9.49,-0.37,-35.07,2,0
17063.046,-0.312,-0.242,-0.913,-15.11,-2.93,-39.92,2,0
17063.062,-0.306,-0.252,-0.914,-17.4,-4.33,-41.87,2,0
17063.062,-0.303,-0.242,-0.922,-15.75,-4.18,-41.66,2,0
17063.078,-0.303,-0.218,-0.935,-12.63,-2.87,-39.89,2,0
17063.109,-0.286,-0.192,-0.945,-9.46,0.31,-33.57,2,0
17063.109,-0.287,-0.185,-0.943,-8.12,1.86,-30.7,2,0
17063.125,-0.298,-0.173,-0.942,-7.48,2.56,-27.68,2,0
17063.125,-0.306,-0.166,-0.934,-8.03,2.78,-24.35,2,0
17063.14,-0.315,-0.172,-0.922,-8.09,2.32,-21.0,2,0
17063.156,-0.317,-0.183,-0.915,-6.78,1.62,-16.51,2,0
17063.156,-0.309,-0.188,-0.916,-3.97,0.82,-10.8,2,0
17063.171,-0.301,-0.196,-0.926,-1.04,0.15,-4.43,2,0
17063.171,-0.292,-0.214,-0.939,1.13,-0.06,1.4,2,0
17063.187,-0.287,-0.233,-0.951,3.54,0.18,5.68,2,0
17063.203,-0.283,-0.239,-0.961,4.94,0.85,8.09,2,0
17063.203,-0.28,-0.245,-0.963,5.07,1.89,8.97,2,0
17063.218,-0.28,-0.249,-0.964,5.1,2.99,8.55,2,0
17063.234,-0.278,-0.241,-0.959,3.94,3.39,7.02,2,0
17063.234,-0.266,-0.24,-0.946,1.74,3.2,5.49,2,0
17063.25,-0.249,-0.256,-0.932,0.21,3.02,4.12,2,0
17063.265,-0.237,-0.261,-0.922,-0.27,2.72,3.2,2,0
17063.265,-0.23,-0.262,-0.913,-0.31,2.41,2.59,2,0
17063.281,-0.221,-0.269,-0.907,-0.06,2.29,2.75,2,0
17063.281,-0.209,-0.282,-0.902,1.68,2.96,2.84,2,0
17063.296,-0.199,-0.283,-0.904,2.69,3.51,1.71,2,0
17063.312,-0.193,-0.282,-0.908,2.5,4.27,-0.18,2,0
17063.312,-0.185,-0.277,-0.911,0.67,5.19,-3.11,2,0
17063.328,-0.179,-0.282,-0.904,-1.56,6.38,-7.08,2,0
17063.343,-0.181,-0.283,-0.895,-3.3,7.26,-11.87,2,0
17063.343,-0.191,-0.276,-0.889,-5.4,7.78,-16.75,2,0
17063.359,-0.198,-0.268,-0.878,-8.18,7.66,-20.91,2,0
17063.375,-0.212,-0.268,-0.87,-10.38,7.02,-24.48,2,0
17063.375,-0.225,-0.267,-0.87,-11.08,6.1,-26.49,2,0
17063.39,-0.232,-0.254,-0.875,-10.41,5.16,-26.4,2,0
17063.406,-0.236,-0.248,-0.889,-8.97,4.36,-25.67,2,0
17063.406,-0.245,-0.244,-0.908,-8.0,3.69,-24.96,2,0
17063.421,-0.249,-0.234,-0.925,-7.26,2.78,-23.93,2,0
17063.421,-0.246,-0.226,-0.951,-7.26,2.41,-23.38,2,0
17063.437,-0.243,-0.223,-0.97,-8.48,2.56,-23.19,2,0
17063.453,-0.241,-0.227,-0.979,-9.43,3.17,-22.64,2,0
17063.453,-0.246,-0.236,-0.986,-9.22,4.03,-21.85,2,0
17063.468,-0.256,-0.242,-0.992,-8.3,4.55,-21.03,2,0
17063.484,-0.266,-0.242,-0.993,-7.72,4.94,-20.17,2,0
17063.484,-0.273,-0.24,-0.99,-7.6,5.07,-18.92,2,0
17063.5,-0.273,-0.244,-0.989,-7.2,4.49,-17.24,2,0
17063.515,-0.268,-0.252,-0.989,-6.23,3.75,-15.02,2,0
17063.515,-0.263,-0.256,-0.995,-4.49,3.05,-12.73,2,0
17063.531,-0.257,-0.257,-1.006,-3.45,2.56,-11.05,2,0
17063.546,-0.255,-0.263,-1.012,-3.78,2.08,-10.96,2,0
17063.546,-0.259,-0.269,-1.015,-4.85,1.74,-12.51,2,0
17063.562,-0.262,-0.265,-1.016,-6.32,1.8,-14.07,2,0
17063.562,-0.263,-0.264,-1.012,-7.45,1.8,-15.2,2,0
17063.578,-0.269,-0.259,-1.003,-7.9,1.43,-15.69,2,0
17063.593,-0.271,-0.25,-0.995,-7.51,0.98,-15.08,2,0
17063.609,-0.269,-0.246,-0.988,-6.32,0.73,-13.06,2,0
17063.609,-0.267,-0.24,-0.979,-4.94,0.58,-10.44,2,0
17063.625,-0.268,-0.244,-0.973,-3.48,0.43,-8.27,2,0
17063.625,-0.264,-0.242,-0.966,-2.32,0.15,-6.68,2,0
17063.64,-0.261,-0.238,-0.965,-1.65,0.06,-5.55,2,0
17063.656,-0.254,-0.246,-0.957,-2.2,-0.06,-4.67,2,0
17063.656,-0.248,-0.254,-0.943,-1.95,-0.49,-4.12,2,0
17063.671,-0.246,-0.252,-0.939,-1.28,-1.31,-3.78,2,0
17063.671,-0.243,-0.252,-0.938,-1.59,-2.75,-3.6,2,0
17063.687,-0.24,-0.258,-0.939,-2.04,-4.03,-3.54,2,0
17063.703,-0.238,-0.259,-0.939,-2.04,-4.94,-3.63,2,0
17063.703,-0.231,-0.259,-0.943,-1.77,-5.46,-3.94,2,0
17063.718,-0.226,-0.257,-0.953,-1.34,-5.74,-4.33,2,0
17063.734,-0.222,-0.248,-0.955,-2.01,-5.74,-5.1,2,0
17063.75,-0.22,-0.248,-0.948,-3.36,-5.62,-5.77,2,0
17063.75,-0.215,-0.259,-0.943,-3.48,-5.74,-5.58,2,0
17063.765,-0.208,-0.26,-0.944,-2.44,-6.1,-5.25,2,0
17063.765,-0.204,-0.248,-0.951,-1.62,-6.44,-5.4,2,0
17063.781,-0.203,-0.237,-0.955,-2.47,-6.87,-5.34,2,0
17063.781,-0.2,-0.238,-0.954,-3.81,-7.02,-5.43,2,0
17063.796,-0.202,-0.24,-0.95,-4.27,-6.65,-5.55,2,0
17063.812,-0.206,-0.236,-0.942,-4.12,-5.98,-5.55,2,0
17063.828,-0.207,-0.238,-0.933,-3.6,-5.65,-5.16,2,0
17063.828,-0.209,-0.237,-0.928,-3.05,-6.32,-4.46,2,0
17063.843,-0.208,-0.231,-0.928,-2.99,-7.45,-3.54,2,0
17063.843,-0.206,-0.235,-0.936,-2.56,-8.3,-2.01,2,0
17063.859,-0.202,-0.233,-0.951,-1.53,-8.61,-0.52,2,0
17063.875,-0.205,-0.225,-0.964,-0.95,-8.15,0.7,2,0
17063.875,-0.203,-0.225,-0.973,-1.22,-7.26,1.62,2,0
17063.89,-0.202,-0.232,-0.976,-1.22,-6.16,2.26,2,0
17063.89,-0.205,-0.232,-0.977,-0.49,-4.94,2.96,2,0
17063.906,-0.203,-0.235,-0.977,-0.15,-3.78,3.88,2,0
17063.921,-0.198,-0.24,-0.971,0.64,-2.99,4.73,2,0
17063.921,-0.204,-0.237,-0.97,1.16,-2.11,5.07,2,0
17063.937,-0.207,-0.242,-0.967,0.52,-1.68,5.43,2,0
17063.953,-0.202,-0.25,-0.961,0.55,-1.19,5.65,2,0
17063.953,-0.209,-0.253,-0.954,1.43,-0.34,5.58,2,0
17063.968,-0.215,-0.257,-0.949,1.77,0.09,5.4,2,0
17063.984,-0.217,-0.252,-0.941,1.74,0.15,5.13,2,0
17063.984,-0.22,-0.249,-0.937,1.89,0.03,5.19,2,0
17064.0,-0.216,-0.25,-0.934,2.56,-0.37,5.74,2,0
17064.015,-0.208,-0.242,-0.94,3.33,-0.79,6.1,2,0
17064.015,-0.215,-0.233,-0.95,2.93,-1.19,6.07,2,0
17064.031,-0.217,-0.228,-0.955,1.83,-1.07,6.01,2,0
17064.046,-0.22,-0.228,-0.957,1.25,-0.46,6.29,2,0
17064.046,-0.22,-0.227,-0.963,1.46,0.7,7.23,2,0
17064.062,-0.218,-0.223,-0.967,1.95,2.5,8.7,2,0
17064.062,-0.218,-0.228,-0.963,3.45,4.94,10.77,2,0
17064.078,-0.224,-0.232,-0.955,5.71,7.08,13.37,2,0
17064.093,-0.226,-0.235,-0.942,8.0,8.51,15.47,2,0
17064.093,-0.222,-0.238,-0.933,9.09,8.82,16.66,2,0
17064.109,-0.217,-0.241,-0.922,8.7,7.57,16.88,2,0
17064.125,-0.212,-0.245,-0.925,6.93,5.07,15.93,2,0
17064.125,-0.211,-0.254,-0.923,5.31,3.05,14.8,2,0
17064.14,-0.205,-0.253,-0.925,3.81,0.64,13.89,2,0
17064.156,-0.196,-0.246,-0.945,2.5,-0.85,13.21,2,0
17064.156,-0.189,-0.266,-0.944,2.87,-0.61,12.18,2,0
17064.171,-0.186,-0.25,-0.965,1.95,-0.12,11.14,2,0
17064.187,-0.194,-0.248,-0.972,1.43,1.59,9.74,2,0
17064.187,-0.201,-0.258,-0.966,1.53,3.45,8.76,2,0
17064.203,-0.207,-0.243,-0.957,0.58,4.3,8.21,2,0
17064.203,-0.219,-0.245,-0.952,0.7,4.7,7.84,2,0
17064.218,-0.216,-0.231,-0.952,0.55,4.3,8.36,2,0
17064.234,-0.214,-0.224,-0.949,0.18,3.63,9.52,2,0
17064.234,-0.21,-0.233,-0.95,0.27,2.99,11.11,2,0
17064.25,-0.203,-0.238,-0.949,1.13,2.72,13.06,2,0
17064.265,-0.208,-0.245,-0.947,2.17,2.32,14.71,2,0
17064.265,-0.209,-0.254,-0.945,3.02,2.14,16.33,2,0
17064.281,-0.211,-0.262,-0.942,3.6,1.98,16.39,2,0
17064.296,-0.212,-0.264,-0.94,3.42,1.77,15.53,2,0
17064.296,-0.214,-0.266,-0.943,2.47,1.1,14.16,2,0
17064.312,-0.209,-0.278,-0.949,1.86,0.55,12.05,2,0
17064.312,-0.216,-0.272,-0.951,0.95,0.18,9.43,2,0
17064.328,-0.229,-0.266,-0.957,-1.13,0.18,6.56,2,0
17064.343,-0.24,-0.272,-0.95,-2.5,0.76,3.69,2,0
17064.343,-0.247,-0.263,-0.951,-2.81,1.04,1.4,2,0
17064.359,-0.247,-0.244,-0.949,-2.66,1.34,0.31,2,0
17064.375,-0.24,-0.234,-0.948,-2.87,1.19,0.34,2,0
17064.375,-0.231,-0.23,-0.947,-2.78,0.67,1.37,2,0
17064.39,-0.23,-0.228,-0.952,-2.2,0.0,2.96,2,0
17064.39,-0.225,-0.224,-0.954,-1.4,-0.12,5.43,2,0
17064.406,-0.219,-0.229,-0.956,-0.06,0.7,7.9,2,0
17064.421,-0.218,-0.233,-0.963,1.1,1.83,9.16,2,0
17064.421,-0.22,-0.231,-0.962,1.22,3.2,9.16,2,0
17064.437,-0.229,-0.236,-0.953,0.64,4.21,8.64,2,0
17064.453,-0.233,-0.245,-0.943,-0.24,4.3,7.57,2,0
17064.453,-0.233,-0.251,-0.934,-1.31,3.81,6.26,2,0
17064.468,-0.234,-0.255,-0.926,-1.95,2.78,4.73,2,0
17064.484,-0.237,-0.259,-0.93,-2.2,1.62,3.45,2,0
17064.484,-0.238,-0.261,-0.935,-2.69,0.52,2.62,2,0
17064.5,-0.233,-0.258,-0.94,-2.96,0.18,1.86,2,0
17064.515,-0.236,-0.259,-0.943,-3.08,0.64,0.67,2,0
17064.515,-0.24,-0.256,-0.938,-2.93,1.25,-0.82,2,0
17064.531,-0.242,-0.239,-0.937,-2.66,1.53,-2.11,2,0
17064.531,-0.242,-0.231,-0.934,-2.9,1.46,-2.84,2,0
17064.546,-0.239,-0.231,-0.933,-3.02,1.04,-2.75,2,0
17064.562,-0.235,-0.231,-0.936,-2.87,0.52,-1.89,2,0
17064.562,-0.233,-0.229,-0.937,-2.41,0.52,-0.55,2,0
17064.578,-0.236,-0.234,-0.938,-1.1,0.98,0.92,2,0
17064.593,-0.237,-0.239,-0.937,0.49,1.4,2.35,2,0
17064.593,-0.235,-0.242,-0.933,1.74,1.53,3.14,2,0
17064.609,-0.237,-0.241,-0.935,2.29,1.28,2.53,2,0
17064.625,-0.236,-0.238,-0.94,1.74,0.95,1.46,2,0
17064.625,-0.233,-0.235,-0.942,0.37,0.64,0.03,2,0
17064.64,-0.228,-0.239,-0.944,-0.79,0.49,-1.71,2,0
17064.656,-0.228,-0.236,-0.947,-1.04,0.34,-2.84,2,0
17064.656,-0.228,-0.229,-0.953,-1.68,0.15,-3.6,2,0
17064.671,-0.228,-0.231,-0.952,-2.78,-0.24,-4.21,2,0
17064.671,-0.23,-0.235,-0.951,-3.3,-0.76,-4.61,2,0
17064.687,-0.229,-0.235,-0.955,-2.84,-1.01,-4.55,2,0
17064.703,-0.23,-0.229,-0.958,-2.44,-0.89,-4.03,2,0
17064.703,-0.234,-0.226,-0.96,-2.56,-0.52,-3.94,2,0
17064.718,-0.232,-0.232,-0.958,-2.53,-0.18,-3.81,2,0
17064.734,-0.229,-0.231,-0.952,-2.26,0.27,-3.6,2,0
17064.75,-0.229,-0.231,-0.95,-2.04,0.46,-3.39,2,0
17064.75,-0.229,-0.236,-0.946,-2.26,0.24,-2.99,2,0
17064.765,-0.229,-0.24,-0.944,-2.38,-0.12,-2.69,2,0
17064.765,-0.226,-0.242,-0.946,-2.04,-0.34,-2.47,2,0
17064.781,-0.229,-0.246,-0.95,-1.68,-0.12,-2.87,2,0
17064.796,-0.232,-0.242,-0.949,-1.74,-0.15,-3.51,2,0
17064.796,-0.229,-0.24,-0.948,-1.95,-0.21,-4.0,2,0
17064.812,-0.228,-0.244,-0.948,-1.92,-0.31,-4.52,2,0
17064.828,-0.224,-0.243,-0.95,-2.04,-0.58,-4.85,2,0
17064.828,-0.22,-0.236,-0.95,-1.89,-0.82,-4.61,2,0
17064.843,-0.215,-0.236,-0.951,-1.53,-0.92,-4.3,2,0
17064.843,-0.208,-0.238,-0.951,-1.28,-0.98,-4.0,2,0
17064.859,-0.205,-0.238,-0.951,-0.79,-0.85,-4.0,2,0
17064.875,-0.204,-0.236,-0.953,-0.31,-0.7,-4.0,2,0
17064.875,-0.202,-0.231,-0.952,-0.4,-0.64,-4.12,2,0
17064.89,-0.203,-0.232,-0.953,-1.31,-0.7,-4.21,2,0
17064.906,-0.208,-0.241,-0.949,-1.25,-0.49,-4.39,2,0
17064.906,-0.209,-0.235,-0.944,-0.27,-0.34,-4.21,2,0
17064.921,-0.203,-0.235,-0.941,0.31,-0.34,-3.63,2,0
17064.921,-0.206,-0.24,-0.937,1.19,-0.55,-3.05,2,0
17064.937,-0.206,-0.23,-0.945,2.23,-0.85,-2.41,2,0
17064.953,-0.202,-0.224,-0.951,2.14,-1.01,-1.98,2,0
17064.953,-0.199,-0.224,-0.956,1.43,-0.82,-1.89,2,0
17064.968,-0.194,-0.228,-0.959,0.98,-0.24,-2.41,2,0
17064.984,-0.194,-0.232,-0.953,0.82,0.37,-2.72,2,0
17064.984,-0.196,-0.233,-0.951,1.31,0.67,-2.75,2,0
17065.0,-0.195,-0.239,-0.951,1.77,1.04,-2.38,2,0
17065.015,-0.191,-0.243,-0.949,2.14,1.19,-2.26,2,0
17065.015,-0.183,-0.245,-0.951,2.87,1.01,-2.62,2,0
17065.031,-0.182,-0.24,-0.954,3.27,0.82,-2.96,2,0
17065.046,-0.188,-0.237,-0.96,2.59,0.67,-3.42,2,0
17065.046,-0.191,-0.234,-0.963,1.04,0.34,-3.88,2,0
17065.062,-0.196,-0.238,-0.959,0.4,0.55,-4.36,2,0
17065.062,-0.202,-0.236,-0.959,0.92,0.58,-4.39,2,0
17065.078,-0.203,-0.233,-0.962,1.4,0.27,-4.36,2,0
17065.093,-0.206,-0.226,-0.966,1.43,0.27,-4.64,2,0
17065.093,-0.209,-0.221,-0.971,1.13,0.55,-4.61,2,0
17065.109,-0.205,-0.22,-0.969,0.64,0.85,-4.27,2,0
17065.125,-0.205,-0.217,-0.967,0.92,1.1,-3.66,2,0
17065.125,-0.207,-0.213,-0.968,1.34,1.37,-2.78,2,0
17065.14,-0.208,-0.211,-0.964,1.71,1.62,-1.19,2,0
17065.156,-0.208,-0.214,-0.959,2.41,1.43,0.52,2,0
17065.156,-0.209,-0.215,-0.96,2.78,1.04,1.89,2,0
17065.171,-0.207,-0.215,-0.957,2.72,0.64,2.66,2,0
17065.171,-0.207,-0.223,-0.958,2.26,0.27,2.9,2,0
17065.187,-0.205,-0.228,-0.957,1.74,0.03,2.84,2,0
17065.203,-0.202,-0.233,-0.954,1.4,0.03,2.38,2,0
17065.203,-0.201,-0.236,-0.952,1.4,0.06,1.95,2,0
17065.218,-0.197,-0.236,-0.953,1.31,-0.03,1.46,2,0
17065.234,-0.195,-0.231,-0.951,0.79,-0.15,0.85,2,0
17065.234,-0.194,-0.23,-0.947,-0.03,-0.24,-0.03,2,0
17065.25,-0.195,-0.228,-0.947,-0.43,-0.34,-1.37,2,0
17065.265,-0.195,-0.222,-0.945,-2.38,-0.82,-3.63,2,0
17065.265,-0.201,-0.224,-0.937,-2.66,-1.37,-3.17,2,0
17065.281,-0.203,-0.236,-0.934,-1.04,-1.89,-1.77,2,0
17065.296,-0.198,-0.221,-0.945,0.67,-1.83,-0.73,2,0
17065.296,-0.201,-0.216,-0.948,1.01,-1.53,0.18,2,0
17065.312,-0.202,-0.213,-0.955,0.89,-1.34,0.73,2,0
17065.312,-0.202,-0.213,-0.955,-0.09,-1.19,0.82,2,0
17065.328,-0.204,-0.218,-0.953,-0.64,-0.76,0.82,2,0
17065.343,-0.204,-0.227,-0.949,-0.52,-0.24,0.89,2,0
17065.359,-0.204,-0.231,-0.949,0.03,-0.21,0.92,2,0
17065.359,-0.205,-0.225,-0.948,0.18,-0.52,0.58,2,0
17065.375,-0.209,-0.222,-0.951,-0.43,-0.92,0.0,2,0
17065.375,-0.202,-0.225,-0.955,-1.53,-1.25,-0.15,2,0
17065.39,-0.195,-0.228,-0.957,-2.44,-1.28,-0.46,2,0
17065.406,-0.198,-0.225,-0.958,-2.56,-1.01,-0.89,2,0
17065.406,-0.202,-0.229,-0.955,-2.59,-0.61,-1.34,2,0
17065.421,-0.21,-0.231,-0.953,-2.5,-0.58,-1.68,2,0
17065.421,-0.216,-0.227,-0.948,-2.59,-0.85,-1.95,2,0
17065.437,-0.218,-0.231,-0.946,-2.5,-1.31,-1.89,2,0
17065.453,-0.21,-0.23,-0.949,-1.98,-1.74,-1.31,2,0
17065.453,-0.208,-0.224,-0.952,-1.43,-2.08,-1.01,2,0
17065.468,-0.21,-0.217,-0.957,-1.62,-2.41,-0.98,2,0
17065.484,-0.21,-0.215,-0.96,-2.66,-2.47,-0.76,2,0
17065.484,-0.208,-0.223,-0.959,-3.23,-2.23,-0.15,2,0
17065.5,-0.209,-0.228,-0.955,-2.62,-1.86,0.55,2,0
17065.515,-0.209,-0.229,-0.955,-1.5,-1.65,1.22,2,0
17065.515,-0.206,-0.231,-0.957,-0.79,-1.8,1.77,2,0
17065.531,-0.201,-0.234,-0.956,-0.58,-1.71,2.41,2,0
17065.531,-0.201,-0.237,-0.954,-0.55,-1.56,2.69,2,0
17065.546,-0.202,-0.241,-0.956,-0.31,-1.43,2.5,2,0
17065.562,-0.205,-0.234,-0.958,-0.52,-1.19,2.08,2,0
17065.578,-0.203,-0.233,-0.956,-1.28,-1.01,1.53,2,0
17065.578,-0.202,-0.24,-0.948,-1.92,-0.98,0.7,2,0
17065.593,-0.203,-0.248,-0.945,-1.53,-1.19,0.18,2,0
17065.593,-0.202,-0.241,-0.949,-0.82,-1.5,0.09,2,0
17065.609,-0.2,-0.235,-0.952,-0.79,-1.86,0.0,2,0
17065.625,-0.201,-0.244,-0.949,-1.22,-2.04,0.12,2,0
17065.625,-0.2,-0.25,-0.947,-1.13,-2.32,-0.31,2,0
17065.64,-0.202,-0.242,-0.952,-0.95,-2.44,-0.95,2,0
17065.656,-0.202,-0.234,-0.957,-1.31,-2.56,-1.16,2,0
17065.656,-0.199,-0.237,-0.956,-1.89,-2.56,-1.25,2,0
17065.671,-0.195,-0.242,-0.955,-1.43,-2.35,-1.13,2,0
17065.671,-0.193,-0.237,-0.96,-0.03,-1.98,-0.58,2,0
17065.687,-0.192,-0.237,-0.961,0.79,-1.56,0.06,2,0
17065.703,-0.192,-0.242,-0.956,1.13,-0.95,0.49,2,0
17065.703,-0.197,-0.243,-0.951,1.71,-0.18,0.58,2,0
17065.718,-0.201,-0.243,-0.946,2.56,0.12,0.52,2,0
17065.734,-0.201,-0.244,-0.943,3.17,-0.06,0.7,2,0
17065.734,-0.195,-0.241,-0.942,4.06,-0.34,1.04,2,0
17065.75,-0.193,-0.236,-0.949,4.18,-0.85,0.73,2,0
17065.765,-0.193,-0.236,-0.956,2.93,-1.5,0.24,2,0
17065.765,-0.19,-0.239,-0.959,1.71,-1.77,-0.21,2,0
17065.781,-0.189,-0.243,-0.964,1.13,-1.37,-1.25,2,0
17065.796,-0.19,-0.239,-0.967,0.98,-0.52,-1.95,2,0
17065.796,-0.192,-0.23,-0.965,1.28,0.61,-2.01,2,0
17065.812,-0.194,-0.227,-0.962,1.56,1.37,-1.95,2,0
17065.812,-0.199,-0.223,-0.959,1.62,1.68,-1.95,2,0
17065.828,-0.203,-0.219,-0.957,1.5,1.43,-1.86,2,0
17065.843,-0.207,-0.214,-0.96,1.19,0.98,-1.4,2,0
17065.843,-0.208,-0.21,-0.964,0.79,0.67,-0.76,2,0
17065.859,-0.206,-0.211,-0.965,0.89,0.64,0.12,2,0
17065.875,-0.205,-0.212,-0.967,1.22,1.01,0.76,2,0
17065.875,-0.206,-0.215,-0.964,1.68,1.25,1.37,2,0
17065.89,-0.207,-0.218,-0.961,1.62,1.16,1.65,2,0
17065.89,-0.207,-0.22,-0.963,1.46,1.07,1.53,2,0
17065.906,-0.205,-0.226,-0.965,0.67,0.73,1.13,2,0
17065.921,-0.197,-0.223,-0.965,-0.15,0.85,0.58,2,0
17065.921,-0.198,-0.223,-0.963,-0.31,1.16,-0.37,2,0
17065.937,-0.197,-0.219,-0.96,-1.07,1.4,-1.13,2,0
17065.953,-0.192,-0.214,-0.953,-1.89,1.16,-1.71,2,0
17065.953,-0.191,-0.217,-0.951,-2.69,0.49,-2.62,2,0
17065.968,-0.189,-0.211,-0.952,-4.24,-1.04,-4.49,2,0
17065.984,-0.19,-0.213,-0.954,-7.14,-3.14,-6.59,2,0
17065.984,-0.19,-0.221,-0.959,-10.22,-4.79,-8.76,2,0
17066.0,-0.195,-0.23,-0.971,-12.39,-5.4,-11.32,2,0
17066.015,-0.202,-0.232,-0.971,-14.44,-5.49,-12.91,2,0
17066.015,-0.2,-0.227,-0.98,-15.11,-4.82,-13.49,2,0
17066.031,-0.205,-0.223,-0.988,-14.19,-2.75,-13.82,2,0
17066.046,-0.201,-0.214,-0.983,-12.73,-0.55,-12.94,2,0
17066.046,-0.205,-0.209,-0.99,-9.8,1.22,-11.26,2,0
17066.062,-0.206,-0.196,-0.991,-7.97,2.08,-9.13,2,0
17066.062,-0.209,-0.192,-0.992,-7.63,2.01,-7.39,2,0
17066.078,-0.223,-0.203,-0.993,-7.84,0.7,-6.59,2,0
17066.093,-0.241,-0.209,-0.991,-8.06,-1.71,-6.23,2,0
17066.093,-0.251,-0.201,-0.998,-8.0,-4.33,-6.07,2,0
17066.109,-0.256,-0.204,-1.008,-8.33,-6.87,-5.74,2,0
17066.125,-0.256,-0.213,-1.019,-8.21,-8.88,-5.55,2,0
17066.125,-0.249,-0.214,-1.026,-7.2,-10.04,-4.94,2,0
17066.156,-0.229,-0.214,-1.033,-3.94,-9.09,-1.01,2,0
17066.156,-0.226,-0.214,-1.026,-1.74,-7.17,1.74,2,0
17066.171,-0.227,-0.221,-1.013,0.98,-4.85,4.39,2,0
17066.171,-0.227,-0.224,-0.995,3.94,-2.66,6.87,2,0
17066.187,-0.227,-0.226,-0.976,6.16,-1.56,8.82,2,0
17066.203,-0.228,-0.225,-0.959,7.32,-1.62,9.89,2,0
17066.218,-0.227,-0.224,-0.941,7.2,-2.41,10.5,2,0
17066.218,-0.219,-0.232,-0.925,6.59,-3.75,10.65,2,0
17066.234,-0.218,-0.235,-0.912,6.87,-5.04,10.32,2,0
17066.234,-0.212,-0.232,-0.906,6.53,-6.84,9.25,2,0
17066.25,-0.203,-0.232,-0.902,6.04,-7.11,8.58,2,0
17066.265,-0.201,-0.234,-0.9,6.07,-7.17,7.93,2,0
17066.265,-0.197,-0.23,-0.896,6.04,-7.23,7.42,2,0
17066.281,-0.197,-0.218,-0.896,5.86,-7.57,7.57,2,0
17066.281,-0.2,-0.215,-0.898,6.07,-8.21,7.93,2,0
17066.296,-0.202,-0.214,-0.897,6.44,-8.73,8.39,2,0
17066.312,-0.203,-0.211,-0.912,5.52,-9.58,7.35,2,0
17066.328,-0.213,-0.22,-0.911,3.78,-9.7,5.52,2,0
17066.343,-0.217,-0.227,-0.912,2.44,-9.89,4.39,2,0
17066.359,-0.213,-0.228,-0.912,2.32,-9.95,3.81,2,0
17066.359,-0.217,-0.229,-0.91,2.87,-9.46,3.69,2,0
17066.375,-0.221,-0.228,-0.91,3.51,-8.91,3.78,2,0
17066.375,-0.218,-0.217,-0.911,3.91,-8.3,4.18,2,0
17066.39,-0.21,-0.21,-0.908,3.72,-7.78,4.52,2,0
17066.39,-0.209,-0.216,-0.906,4.0,-7.14,5.19,2,0
17066.406,-0.205,-0.211,-0.905,5.07,-6.47,6.41,2,0
17066.421,-0.203,-0.215,-0.904,5.89,-5.95,7.75,2,0
17066.421,-0.208,-0.231,-0.899,6.84,-5.34,8.73,2,0
17066.437,-0.215,-0.232,-0.9,8.15,-4.88,9.09,2,0
17066.453,-0.217,-0.23,-0.905,8.24,-4.58,8.61,2,0
17066.453,-0.217,-0.242,-0.908,7.32,-4.64,7.26,2,0
17066.468,-0.22,-0.245,-0.913,6.59,-5.16,5.34,2,0
17066.484,-0.222,-0.23,-0.933,2.81,-6.32,0.46,2,0
17066.5,-0.214,-0.235,-0.938,0.55,-6.71,-1.4,2,0
17066.515,-0.208,-0.239,-0.941,-0.49,-6.5,-3.14,2,0
17066.515,-0.212,-0.233,-0.947,-0.21,-5.74,-4.33,2,0
17066.531,-0.217,-0.232,-0.952,0.21,-4.76,-4.82,2,0
17066.531,-0.222,-0.232,-0.958,0.15,-3.72,-4.91,2,0
17066.546,-0.23,-0.226,-0.962,-0.12,-2.87,-5.07,2,0
17066.562,-0.238,-0.226,-0.963,-0.55,-2.38,-5.04,2,0
17066.562,-0.251,-0.232,-0.969,-0.92,-2.26,-4.73,2,0
17066.578,-0.268,-0.234,-0.971,-0.95,-2.53,-4.58,2,0
17066.593,-0.284,-0.233,-0.977,-0.64,-3.23,-3.94,2,0
17066.593,-0.296,-0.23,-0.99,-0.76,-3.81,-3.33,2,0
17066.609,-0.303,-0.224,-1.004,-1.13,-4.76,-2.66,2,0
17066.625,-0.3,-0.222,-1.015,-1.86,-5.77,-1.98,2,0
17066.625,-0.296,-0.227,-1.03,-2.47,-6.71,-1.31,2,0
17066.64,-0.292,-0.234,-1.036,-2.44,-7.11,0.31,2,0
17066.656,-0.284,-0.237,-1.048,0.46,-5.07,4.24,2,0
17066.671,-0.283,-0.233,-1.038,0.24,-3.14,5.1,2,0
17066.687,-0.287,-0.236,-1.011,-0.67,-0.95,4.52,2,0
17066.687,-0.302,-0.232,-0.98,-1.5,0.64,3.02,2,0
17066.703,-0.316,-0.217,-0.944,-3.14,0.43,1.56,2,0
17066.703,-0.327,-0.213,-0.91,-4.94,-1.31,1.1,2,0
17066.718,-0.329,-0.214,-0.893,-5.58,-4.76,1.74,2,0
17066.734,-0.313,-0.21,-0.885,-5.71,-8.91,3.33,2,0
17066.734,-0.297,-0.211,-0.9,-5.34,-12.79,5.8,2,0
17066.75,-0.277,-0.213,-0.919,-4.61,-15.78,8.64,2,0
17066.765,-0.255,-0.221,-0.942,-4.09,-17.37,11.47,2,0
17066.765,-0.235,-0.235,-0.956,-3.3,-16.91,13.12,2,0
17066.781,-0.231,-0.252,-0.968,-1.46,-14.92,13.31,2,0
17066.781,-0.244,-0.252,-0.967,-0.7,-12.48,11.47,2,0
17066.796,-0.262,-0.25,-0.955,-1.8,-10.59,8.12,2,0
17066.812,-0.278,-0.256,-0.94,-3.11,-9.64,4.09,2,0
17066.828,-0.31,-0.234,-0.924,-5.95,-11.84,-3.51,2,0
17066.843,-0.311,-0.226,-0.927,-7.2,-14.47,-5.8,2,0
17066.843,-0.32,-0.213,-0.943,-8.18,-17.43,-7.69,2,0
17066.859,-0.337,-0.211,-0.957,-9.34,-19.96,-8.33,2,0
17066.875,-0.344,-0.213,-0.975,-9.03,-21.12,-7.75,2,0
17066.875,-0.353,-0.212,-0.99,-7.32,-20.66,-6.59,2,0
17066.89,-0.346,-0.213,-0.997,-5.49,-19.01,-4.46,2,0
17066.906,-0.327,-0.213,-0.995,-3.11,-16.57,-2.26,2,0
17066.906,-0.305,-0.21,-0.984,-1.19,-13.86,-0.37,2,0
17066.921,-0.274,-0.205,-0.957,-0.27,-11.51,2.01,2,0
17066.921,-0.247,-0.214,-0.925,1.07,-9.77,4.06,2,0
17066.937,-0.238,-0.228,-0.897,2.62,-9.13,5.52,2,0
17066.953,-0.233,-0.241,-0.87,3.27,-9.74,7.05,2,0
17066.968,-0.227,-0.255,-0.85,4.3,-10.35,8.03,2,0
17066.968,-0.226,-0.264,-0.84,6.04,-10.41,7.97,2,0
17066.984,-0.223,-0.256,-0.833,7.14,-10.22,6.62,2,0
17067.0,-0.217,-0.23,-0.82,6.32,-9.92,2.99,2,0
17067.015,-0.217,-0.221,-0.811,5.77,-9.77,2.29,2,0
17067.015,-0.219,-0.202,-0.804,5.62,-9.37,1.95,2,0
17067.031,-0.226,-0.188,-0.801,5.77,-8.73,2.23,2,0
17067.046,-0.234,-0.181,-0.798,6.56,-8.3,3.54,2,0
17067.046,-0.246,-0.172,-0.803,7.26,-8.45,5.77,2,0
17067.062,-0.258,-0.165,-0.809,7.6,-9.09,8.3,2,0
17067.062,-0.277,-0.173,-0.82,8.18,-9.86,11.38,2,0
17067.078,-0.291,-0.192,-0.839,9.58,-10.77,14.65,2,0
17067.093,-0.296,-0.199,-0.867,11.32,-11.69,17.15,2,0
17067.093,-0.293,-0.193,-0.898,11.99,-11.78,18.8,2,0
17067.109,-0.278,-0.195,-0.926,11.6,-10.62,19.87,2,0
17067.125,-0.26,-0.209,-0.945,11.29,-8.03,20.17,2,0
17067.125,-0.256,-0.214,-0.953,11.78,-4.3,19.78,2,0
17067.14,-0.268,-0.211,-0.952,12.12,-0.7,19.2,2,0
17067.156,-0.285,-0.218,-0.941,11.44,2.2,17.76,2,0
17067.171,-0.348,-0.215,-0.909,7.23,3.27,11.72,2,0
17067.171,-0.383,-0.212,-0.895,3.6,1.4,8.27,2,0
17067.187,-0.406,-0.22,-0.893,0.43,-2.04,5.46,2,0
17067.203,-0.405,-0.221,-0.911,-1.25,-6.04,3.91,2,0
17067.203,-0.387,-0.217,-0.94,-1.92,-9.43,3.63,2,0
17067.218,-0.359,-0.213,-0.973,-1.62,-9.4,5.65,2,0
17067.234,-0.339,-0.206,-0.993,-1.46,-6.44,7.05,2,0
17067.234,-0.326,-0.21,-0.994,-0.61,-3.45,8.48,2,0
17067.25,-0.32,-0.217,-0.985,1.56,-1.19,10.77,2,0
17067.265,-0.307,-0.201,-0.97,3.51,0.03,13.89,2,0
17067.265,-0.312,-0.205,-0.969,5.1,0.34,17.49,2,0
17067.281,-0.32,-0.208,-0.972,6.74,-0.03,21.49,2,0
17067.281,-0.323,-0.211,-0.981,8.18,0.06,24.66,2,0
17067.296,-0.329,-0.222,-0.986,8.79,0.82,26.37,2,0
17067.312,-0.333,-0.228,-0.982,9.28,1.83,26.61,2,0
17067.328,-0.339,-0.228,-0.985,9.22,2.81,25.67,2,0
17067.343,-0.345,-0.22,-0.977,5.58,3.36,21.24,2,0
17067.343,-0.339,-0.217,-0.975,3.57,3.36,19.32,2,0
17067.359,-0.318,-0.213,-0.97,2.29,3.33,18.1,2,0
17067.375,-0.304,-0.207,-0.966,1.68,3.2,17.03,2,0
17067.375,-0.304,-0.203,-0.958,1.1,3.2,17.0,2,0
17067.39,-0.305,-0.209,-0.944,0.76,3.51,18.31,2,0
17067.39,-0.31,-0.216,-0.932,1.8,4.58,19.68,2,0
17067.406,-0.321,-0.213,-0.923,4.09,5.77,21.09,2,0
17067.421,-0.331,-0.202,-0.919,5.77,6.59,22.37,2,0
17067.421,-0.341,-0.196,-0.919,6.13,6.47,23.13,2,0
17067.437,-0.348,-0.196,-0.915,5.71,5.77,23.56,2,0
17067.453,-0.354,-0.2,-0.913,4.91,5.01,23.01,2,0
17067.453,-0.355,-0.205,-0.912,4.46,4.18,22.25,2,0
17067.468,-0.35,-0.203,-0.913,4.03,3.39,21.61,2,0
17067.484,-0.351,-0.202,-0.916,3.05,2.66,20.54,2,0
17067.484,-0.35,-0.208,-0.915,1.65,1.95,19.68,2,0
17067.515,-0.355,-0.222,-0.918,1.46,2.47,17.76,2,0
17067.515,-0.368,-0.217,-0.919,1.22,3.08,16.39,2,0
17067.531,-0.373,-0.211,-0.916,0.55,3.66,14.95,2,0
17067.531,-0.379,-0.209,-0.912,-0.21,3.97,13.31,2,0
17067.546,-0.386,-0.206,-0.908,-1.34,3.94,11.11,2,0
17067.562,-0.393,-0.206,-0.901,-2.29,3.54,9.06,2,0
17067.562,-0.397,-0.208,-0.893,-3.17,2.5,7.9,2,0
17067.578,-0.401,-0.211,-0.889,-3.39,1.13,7.51,2,0
17067.593,-0.4,-0.221,-0.886,-3.3,-0.18,7.35,2,0
17067.593,-0.393,-0.226,-0.889,-2.81,-1.04,7.26,2,0
17067.609,-0.384,-0.219,-0.896,-2.11,-1.28,6.84,2,0
17067.625,-0.381,-0.21,-0.901,-2.5,-1.16,5.92,2,0
17067.625,-0.382,-0.207,-0.9,-3.51,-0.95,4.55,2,0
17067.64,-0.386,-0.209,-0.894,-4.43,-0.49,3.14,2,0
17067.64,-0.389,-0.209,-0.887,-4.49,-0.58,2.5,2,0
17067.656,-0.387,-0.21,-0.884,-3.69,-1.31,3.05,2,0
17067.671,-0.38,-0.209,-0.889,-2.47,-2.32,4.43,2,0
17067.671,-0.374,-0.206,-0.894,-1.83,-3.17,5.07,2,0
17067.687,-0.371,-0.202,-0.897,-2.35,-3.88,5.01,2,0
17067.703,-0.369,-0.206,-0.901,-2.99,-4.06,4.79,2,0
17067.703,-0.368,-0.213,-0.905,-3.2,-3.72,4.55,2,0
17067.718,-0.368,-0.216,-0.904,-2.66,-3.11,4.52,2,0
17067.734,-0.366,-0.216,-0.901,-1.53,-2.56,4.73,2,0
17067.734,-0.363,-0.221,-0.902,-0.49,-2.29,5.04,2,0
17067.75,-0.361,-0.229,-0.906,0.15,-2.5,4.64,2,0
17067.765,-0.371,-0.229,-0.915,0.06,-3.11,3.23,2,0
17067.765,-0.382,-0.233,-0.919,-1.25,-4.3,0.98,2,0
17067.781,-0.391,-0.24,-0.926,-3.2,-5.62,-1.86,2,0
17067.781,-0.397,-0.241,-0.937,-4.88,-6.47,-4.73,2,0
17067.796,-0.398,-0.232,-0.943,-5.89,-6.47,-7.32,2,0
17067.812,-0.4,-0.219,-0.946,-6.13,-6.2,-9.06,2,0
17067.812,-0.399,-0.217,-0.942,-6.38,-6.04,-9.8,2,0
17067.828,-0.397,-0.217,-0.936,-5.92,-6.07,-9.46,2,0
17067.843,-0.392,-0.207,-0.93,-4.49,-6.35,-8.42,2,0
17067.859,-0.388,-0.202,-0.931,-3.63,-6.74,-7.32,2,0
17067.859,-0.386,-0.197,-0.934,-3.33,-7.45,-6.65,2,0
17067.875,-0.381,-0.194,-0.938,-3.69,-7.9,-6.13,2,0
17067.875,-0.372,-0.191,-0.938,-4.27,-8.03,-6.04,2,0
17067.89,-0.371,-0.187,-0.936,-4.64,-7.84,-6.35,2,0
17067.89,-0.374,-0.181,-0.934,-5.22,-7.9,-6.53,2,0
17067.906,-0.369,-0.173,-0.936,-5.98,-8.18,-6.32,2,0
17067.921,-0.369,-0.171,-0.938,-6.93,-8.24,-6.1,2,0
17067.937,-0.371,-0.176,-0.938,-7.29,-8.45,-5.86,2,0
17067.937,-0.368,-0.182,-0.945,-6.71,-8.55,-5.34,2,0
17067.953,-0.364,-0.184,-0.95,-6.47,-8.27,-5.25,2,0
17067.953,-0.361,-0.189,-0.959,-6.71,-8.21,-5.86,2,0
17067.968,-0.351,-0.191,-0.968,-6.78,-7.84,-7.23,2,0
17067.984,-0.344,-0.185,-0.975,-8.03,-7.2,-9.55,2,0
17067.984,-0.342,-0.175,-0.978,-10.96,-6.84,-12.79,2,0
17068.0,-0.342,-0.178,-0.976,-13.46,-6.29,-16.69,2,0
17068.015,-0.34,-0.169,-0.97,-16.24,-6.13,-20.2,2,0
17068.015,-0.339,-0.163,-0.953,-18.62,-5.58,-22.22,2,0
17068.031,-0.341,-0.171,-0.93,-18.68,-4.79,-22.34,2,0
17068.046,-0.332,-0.163,-0.918,-17.46,-4.39,-21.3,2,0
17068.046,-0.317,-0.166,-0.906,-15.41,-4.49,-19.01,2,0
17068.062,-0.32,-0.166,-0.904,-13.15,-4.79,-16.21,2,0
17068.062,-0.329,-0.168,-0.905,-11.66,-5.22,-12.94,2,0
17068.078,-0.344,-0.175,-0.91,-9.89,-4.97,-9.67,2,0
17068.093,-0.374,-0.183,-0.924,-6.9,-4.27,-7.32,2,0
17068.109,-0.399,-0.177,-0.932,-4.94,-3.2,-6.04,2,0
17068.109,-0.412,-0.177,-0.934,-4.39,-2.38,-5.52,2,0
17068.125,-0.422,-0.177,-0.932,-4.06,-2.08,-5.1,2,0
17068.125,-0.43,-0.179,-0.929,-3.69,-2.29,-4.73,2,0
17068.14,-0.441,-0.182,-0.924,-3.14,-2.87,-4.67,2,0
17068.14,-0.452,-0.183,-0.922,-2.9,-4.0,-4.61,2,0
17068.156,-0.441,-0.188,-0.916,-2.26,-5.68,-4.09,2,0
17068.171,-0.425,-0.189,-0.92,-1.01,-6.96,-3.42,2,0
17068.187,-0.416,-0.19,-0.926,0.52,-7.57,-2.53,2,0
17068.187,-0.411,-0.182,-0.928,1.71,-7.35,-2.01,2,0
17068.203,-0.421,-0.188,-0.918,2.72,-6.87,-1.8,2,0
17068.203,-0.441,-0.199,-0.905,3.78,-8.51,-2.29,2,0
17068.218,-0.474,-0.2,-0.889,4.79,-11.66,-2.01,2,0
17068.234,-0.497,-0.203,-0.883,6.04,-15.78,-1.43,2,0
17068.234,-0.494,-0.192,-0.902,7.05,-19.68,-0.58,2,0
17068.25,-0.458,-0.193,-0.906,8.94,-22.49,1.31,2,0
17068.265,-0.413,-0.189,-0.914,12.3,-23.59,3.57,2,0
17068.265,-0.382,-0.175,-0.919,15.35,-22.16,6.53,2,0
17068.281,-0.353,-0.17,-0.917,17.3,-18.28,10.53,2,0
17068.296,-0.331,-0.168,-0.901,19.68,-13.0,13.46,2,0
17068.296,-0.339,-0.168,-0.867,20.78,-8.12,14.16,2,0
17068.312,-0.346,-0.18,-0.833,21.64,-5.77,13.64,2,0
17068.312,-0.341,-0.175,-0.811,22.06,-5.74,12.6,2,0
17068.328,-0.327,-0.176,-0.806,22.22,-6.93,11.72,2,0
17068.343,-0.309,-0.177,-0.809,20.84,-8.61,11.35,2,0
17068.343,-0.295,-0.177,-0.826,18.86,-10.35,11.54,2,0
17068.359,-0.287,-0.197,-0.853,17.4,-11.05,11.66,2,0
17068.375,-0.286,-0.205,-0.873,17.0,-10.32,10.96,2,0
17068.39,-0.296,-0.213,-0.893,17.06,-8.27,10.07,2,0
17068.39,-0.304,-0.232,-0.902,16.24,-6.16,9.4,2,0
17068.406,-0.309,-0.238,-0.915,16.48,-3.81,8.73,2,0
17068.406,-0.323,-0.231,-0.921,17.33,-1.4,7.54,2,0
17068.421,-0.338,-0.219,-0.916,16.69,0.46,6.44,2,0
17068.421,-0.349,-0.208,-0.906,15.47,1.86,5.43,2,0
17068.437,-0.365,-0.195,-0.891,14.1,2.47,4.18,2,0
17068.453,-0.39,-0.184,-0.877,12.54,1.8,3.54,2,0
17068.453,-0.398,-0.179,-0.871,11.38,-0.21,4.06,2,0
17068.468,-0.391,-0.182,-0.877,11.41,-2.75,5.37,2,0
17068.484,-0.385,-0.178,-0.896,11.51,-4.73,6.62,2,0
17068.5,-0.375,-0.177,-0.917,10.53,-5.68,7.02,2,0
17068.5,-0.367,-0.187,-0.934,9.16,-4.73,7.14,2,0
17068.515,-0.37,-0.199,-0.936,8.42,-1.8,7.2,2,0
17068.515,-0.376,-0.21,-0.926,9.43,1.74,7.54,2,0
17068.531,-0.371,-0.213,-0.911,12.36,4.91,9.06,2,0
17068.546,-0.372,-0.198,-0.899,15.32,7.17,11.2,2,0
17068.546,-0.372,-0.183,-0.893,16.88,8.06,13.03,2,0
17068.562,-0.368,-0.172,-0.885,16.63,7.9,14.04,2,0
17068.562,-0.372,-0.171,-0.876,15.66,7.26,14.8,2,0
17068.578,-0.371,-0.184,-0.873,15.47,6.1,16.05,2,0
17068.593,-0.367,-0.196,-0.886,17.12,5.34,17.85,2,0
17068.609,-0.367,-0.199,-0.903,17.94,5.4,18.89,2,0
17068.609,-0.364,-0.203,-0.911,16.79,6.01,18.92,2,0
17068.625,-0.359,-0.221,-0.919,15.53,7.17,17.79,2,0
17068.625,-0.359,-0.232,-0.91,15.5,9.13,15.66,2,0
17068.64,-0.36,-0.224,-0.906,15.17,10.19,13.15,2,0
17068.656,-0.36,-0.224,-0.894,13.55,10.9,10.65,2,0
17068.656,-0.356,-0.226,-0.878,11.96,10.68,8.55,2,0
17068.671,-0.355,-0.229,-0.867,10.47,9.89,6.87,2,0
17068.671,-0.367,-0.233,-0.859,9.46,9.28,5.58,2,0
17068.687,-0.376,-0.23,-0.851,8.45,8.18,4.61,2,0
17068.703,-0.39,-0.232,-0.848,8.0,7.05,3.17,2,0
17068.718,-0.397,-0.236,-0.846,7.11,5.83,1.4,2,0
17068.718,-0.398,-0.236,-0.844,5.43,4.55,-0.27,2,0
17068.734,-0.399,-0.234,-0.848,3.42,2.75,-2.14,2,0
17068.734,-0.395,-0.231,-0.857,1.31,0.95,-3.54,2,0
17068.75,-0.391,-0.234,-0.867,-0.49,-0.21,-5.01,2,0
17068.765,-0.392,-0.246,-0.881,-1.71,-1.04,-6.07,2,0
17068.765,-0.397,-0.248,-0.885,-1.95,-0.89,-6.32,2,0
17068.781,-0.403,-0.25,-0.895,-0.58,0.73,-6.01,2,0
17068.796,-0.41,-0.24,-0.891,-0.18,3.14,-5.92,2,0
17068.796,-0.423,-0.239,-0.881,-0.46,4.73,-5.74,2,0
17068.812,-0.425,-0.222,-0.867,-1.04,5.07,-4.67,2,0
17068.812,-0.421,-0.208,-0.864,-0.98,4.3,-2.38,2,0
17068.828,-0.419,-0.21,-0.863,-0.67,3.14,0.98,2,0
17068.843,-0.419,-0.222,-0.863,0.67,2.29,5.25,2,0
17068.843,-0.42,-0.248,-0.871,3.72,2.11,9.92,2,0
17068.859,-0.425,-0.262,-0.877,7.17,3.11,13.7,2,0
17068.875,-0.429,-0.283,-0.876,9.89,4.85,16.54,2,0
17068.875,-0.421,-0.294,-0.871,11.66,6.5,18.16,2,0
17068.89,-0.413,-0.293,-0.87,13.06,7.87,18.19,2,0
17068.906,-0.405,-0.29,-0.867,13.34,9.13,16.79,2,0
17068.906,-0.402,-0.286,-0.864,12.02,9.92,13.55,2,0
17068.921,-0.408,-0.278,-0.856,8.94,10.13,8.94,2,0
17068.921,-0.411,-0.275,-0.84,4.79,9.03,3.94,2,0
17068.937,-0.417,-0.283,-0.826,1.16,7.14,-0.24,2,0
17068.953,-0.426,-0.292,-0.823,-0.37,4.67,-2.87,2,0
17068.953,-0.425,-0.281,-0.831,-0.43,2.59,-3.81,2,0
17068.968,-0.415,-0.279,-0.845,0.09,1.16,-3.36,2,0
17068.984,-0.404,-0.284,-0.856,1.74,0.61,-2.08,2,0
17068.984,-0.399,-0.277,-0.867,3.33,0.73,-1.25,2,0
17069.0,-0.402,-0.272,-0.874,3.63,0.67,-1.31,2,0
17069.015,-0.407,-0.267,-0.877,2.78,0.43,-2.01,2,0
17069.015,-0.41,-0.258,-0.879,1.1,-0.34,-3.3,2,0
17069.031,-0.409,-0.26,-0.882,-0.79,-1.43,-4.27,2,0
17069.046,-0.4,-0.259,-0.882,-1.95,-2.69,-4.39,2,0
17069.046,-0.391,-0.267,-0.881,-1.68,-3.39,-3.85,2,0
17069.062,-0.392,-0.272,-0.885,-0.98,-3.88,-3.27,2,0
17069.062,-0.393,-0.268,-0.887,-1.07,-4.67,-3.08,2,0
17069.078,-0.389,-0.268,-0.886,-1.83,-5.28,-3.57,2,0
17069.093,-0.386,-0.281,-0.885,-2.29,-6.01,-4.06,2,0
17069.093,-0.38,-0.285,-0.887,-2.35,-7.26,-4.12,2,0
17069.109,-0.374,-0.282,-0.895,-2.56,-8.39,-4.09,2,0
17069.125,-0.368,-0.285,-0.9,-3.33,-9.0,-4.43,2,0
17069.14,-0.365,-0.288,-0.907,-4.12,-8.94,-5.8,2,0
17069.14,-0.368,-0.285,-0.911,-4.67,-8.06,-7.97,2,0
17069.14,-0.367,-0.287,-0.9,-5.43,-6.62,-9.86,2,0
17069.156,-0.368,-0.29,-0.886,-5.25,-5.04,-11.35,2,0
17069.171,-0.372,-0.29,-0.873,-5.28,-4.27,-12.15,2,0
17069.171,-0.376,-0.285,-0.863,-5.04,-4.49,-12.48,2,0
17069.187,-0.376,-0.277,-0.86,-3.88,-6.29,-12.91,2,0
17069.203,-0.381,-0.266,-0.857,-4.39,-7.97,-13.28,2,0
17069.203,-0.386,-0.262,-0.867,-4.49,-9.25,-13.12,2,0
17069.218,-0.382,-0.262,-0.872,-3.75,-9.28,-12.7,2,0
17069.234,-0.378,-0.264,-0.897,-2.9,-8.33,-11.96,2,0
17069.234,-0.384,-0.262,-0.9,-1.4,-6.5,-10.83,2,0
17069.25,-0.392,-0.249,-0.899,0.09,-4.06,-9.46,2,0
17069.265,-0.394,-0.237,-0.892,1.1,-1.98,-7.45,2,0
17069.265,-0.395,-0.234,-0.879,2.41,-0.31,-4.76,2,0
17069.281,-0.393,-0.238,-0.872,4.49,0.24,-1.74,2,0
17069.281,-0.396,-0.236,-0.871,5.4,0.0,0.92,2,0
17069.296,-0.397,-0.241,-0.873,5.68,-1.25,2.78,2,0
17069.312,-0.39,-0.251,-0.875,5.74,-2.35,4.0,2,0
17069.312,-0.385,-0.261,-0.882,5.86,-3.05,4.43,2,0
17069.328,-0.381,-0.254,-0.893,5.28,-3.81,3.57,2,0
17069.343,-0.375,-0.245,-0.903,3.11,-4.03,1.98,2,0
17069.343,-0.376,-0.262,-0.898,0.73,-3.57,0.46,2,0
17069.359,-0.38,-0.275,-0.889,0.27,-2.87,-0.52,2,0
17069.375,-0.373,-0.272,-0.886,2.04,-2.11,-0.89,2,0
17069.375,-0.368,-0.263,-0.893,3.27,-1.19,-1.04,2,0
17069.39,-0.368,-0.258,-0.897,2.93,-0.52,-1.4,2,0
17069.406,-0.368,-0.257,-0.895,1.77,-0.18,-2.38,2,0
17069.406,-0.374,-0.26,-0.886,0.49,-0.15,-3.54,2,0
17069.421,-0.392,-0.254,-0.883,0.0,-0.43,-4.85,2,0
17069.421,-0.403,-0.239,-0.878,-0.98,-0.82,-5.92,2,0
17069.437,-0.409,-0.238,-0.878,-2.11,-1.8,-6.16,2,0
17069.453,-0.404,-0.236,-0.876,-2.66,-3.2,-5.04,2,0
17069.453,-0.4,-0.234,-0.89,-2.38,-4.46,-3.11,2,0
17069.468,-0.394,-0.233,-0.907,-2.14,-4.97,-0.79,2,0
17069.484,-0.383,-0.236,-0.908,-1.83,-3.85,1.56,2,0
17069.484,-0.383,-0.245,-0.904,-0.76,-1.68,2.93,2,0
17069.5,-0.385,-0.245,-0.897,0.09,-0.49,3.27,2,0
17069.515,-0.388,-0.241,-0.886,-0.37,-0.46,3.36,2,0
17069.515,-0.39,-0.252,-0.875,-0.85,-0.95,4.09,2,0
17069.531,-0.386,-0.267,-0.881,-0.55,-2.2,5.37,2,0
17069.546,-0.379,-0.265,-0.888,0.55,-3.33,6.5,2,0
17069.546,-0.375,-0.264,-0.905,0.52,-3.78,6.2,2,0
17069.562,-0.366,-0.275,-0.913,-1.65,-3.08,4.7,2,0
17069.562,-0.365,-0.282,-0.897,-3.91,-1.46,2.01,2,0
17069.578,-0.372,-0.29,-0.888,-4.33,0.43,-0.67,2,0
17069.593,-0.369,-0.286,-0.881,-4.18,1.83,-1.62,2,0
17069.593,-0.364,-0.284,-0.874,-3.54,2.9,-1.89,2,0
17069.609,-0.375,-0.292,-0.868,-2.78,3.69,-2.72,2,0
17069.625,-0.382,-0.294,-0.864,-2.41,3.88,-3.72,2,0
17069.64,-0.388,-0.287,-0.86,-2.59,3.54,-5.22,2,0
17069.64,-0.394,-0.284,-0.856,-3.2,2.87,-6.84,2,0
17069.64,-0.401,-0.278,-0.857,-3.63,1.77,-8.03,2,0
17069.656,-0.4,-0.262,-0.872,-3.97,0.82,-8.94,2,0
17069.671,-0.402,-0.247,-0.883,-4.46,0.55,-9.77,2,0
17069.671,-0.407,-0.242,-0.889,-5.16,1.28,-10.07,2,0
17069.687,-0.414,-0.253,-0.879,-5.16,2.08,-10.01,2,0
17069.703,-0.417,-0.261,-0.874,-3.75,2.14,-8.88,2,0
17069.703,-0.416,-0.25,-0.876,-1.98,1.53,-6.74,2,0
17069.718,-0.412,-0.247,-0.881,-1.19,0.64,-4.79,2,0
17069.734,-0.408,-0.244,-0.886,-0.82,0.06,-3.2,2,0
17069.734,-0.4,-0.24,-0.89,-0.27,-0.12,-1.86,2,0
17069.75,-0.395,-0.246,-0.891,0.27,0.31,-0.4,2,0
17069.765,-0.386,-0.251,-0.89,0.89,0.79,0.58,2,0
17069.781,-0.385,-0.256,-0.885,0.89,1.22,0.7,2,0
17069.781,-0.387,-0.264,-0.874,0.89,1.5,1.07,2,0
17069.781,-0.383,-0.267,-0.869,1.37,1.28,0.89,2,0
17069.796,-0.38,-0.268,-0.87,1.34,0.61,0.18,2,0
17069.812,-0.375,-0.268,-0.872,0.92,-0.21,-0.27,2,0
17069.812,-0.367,-0.26,-0.878,0.24,-0.85,-0.61,2,0
17069.828,-0.366,-0.26,-0.884,-0.92,-1.43,-1.25,2,0
17069.843,-0.368,-0.272,-0.889,-1.74,-1.74,-1.65,2,0
17069.859,-0.373,-0.274,-0.889,-1.34,-1.31,-1.5,2,0
17069.859,-0.378,-0.27,-0.893,-0.61,-0.92,-1.62,2,0
17069.875,-0.383,-0.271,-0.894,-0.76,-0.76,-2.17,2,0
17069.875,-0.385,-0.268,-0.894,-1.19,-0.79,-2.75,2,0
17069.89,-0.38,-0.267,-0.895,-1.1,-0.82,-2.99,2,0
17069.906,-0.372,-0.258,-0.895,-0.73,-0.52,-2.84,2,0
17069.906,-0.372,-0.244,-0.89,-0.46,-0.12,-2.2,2,0
17069.921,-0.379,-0.243,-0.889,-0.43,-0.18,-1.62,2,0
17069.921,-0.38,-0.249,-0.889,-0.46,-0.37,-0.98,2,0
17069.937,-0.38,-0.259,-0.892,0.0,-0.24,0.7,2,0
17069.953,-0.375,-0.268,-0.895,0.43,0.31,2.59,2,0
17069.953,-0.373,-0.282,-0.893,1.25,1.53,3.36,2,0
17069.968,-0.374,-0.299,-0.888,2.59,2.93,2.93,2,0
17069.984,-0.375,-0.3,-0.886,3.94,4.18,1.71,2,0
17069.984,-0.376,-0.291,-0.886,3.94,4.73,-0.46,2,0
17070.0,-0.372,-0.282,-0.883,2.87,4.46,-3.05,2,0
17070.015,-0.367,-0.272,-0.882,1.31,4.0,-5.46,2,0
17070.015,-0.367,-0.262,-0.881,-0.03,3.36,-7.29,2,0
17070.031,-0.373,-0.258,-0.877,-0.55,2.9,-8.12,2,0
17070.046,-0.381,-0.255,-0.873,-0.21,2.29,-7.54,2,0
17070.046,-0.388,-0.256,-0.867,0.34,1.53,-5.8,2,0
17070.062,-0.386,-0.27,-0.864,1.77,0.34,-3.08,2,0
17070.078,-0.38,-0.28,-0.87,4.64,-0.92,0.27,2,0
17070.078,-0.375,-0.281,-0.88,7.48,-1.71,2.99,2,0
17070.093,-0.374,-0.282,-0.895,8.73,-2.11,4.0,2,0
17070.093,-0.374,-0.287,-0.909,8.42,-1.83,2.84,2,0
17070.109,-0.374,-0.287,-0.913,6.65,-0.79,-0.46,2,0
17070.125,-0.377,-0.285,-0.905,3.85,0.27,-4.55,2,0
17070.125,-0.38,-0.285,-0.892,1.31,0.46,-7.75,2,0
17070.14,-0.381,-0.275,-0.887,-0.12,-0.27,-9.55,2,0
17070.156,-0.383,-0.255,-0.888,-1.43,-1.59,-10.25,2,0
17070.156,-0.389,-0.238,-0.888,-3.05,-2.72,-10.19,2,0
17070.171,-0.389,-0.23,-0.884,-4.03,-3.91,-6.65,2,0
17070.171,-0.389,-0.23,-0.88,-2.44,-4.12,-3.08,2,0
17070.187,-0.388,-0.232,-0.879,0.12,-4.12,1.1,2,0
17070.203,-0.384,-0.237,-0.882,2.62,-3.75,4.76,2,0
17070.203,-0.372,-0.249,-0.903,3.72,-2.87,7.35,2,0
17070.218,-0.371,-0.253,-0.909,3.78,-1.5,8.48,2,0
17070.234,-0.37,-0.262,-0.905,3.33,0.12,8.48,2,0
17070.234,-0.372,-0.278,-0.896,3.2,1.46,8.15,2,0
17070.25,-0.373,-0.286,-0.884,3.48,1.89,7.26,2,0
17070.265,-0.376,-0.284,-0.877,3.08,1.56,5.71,2,0
17070.265,-0.382,-0.291,-0.869,1.89,0.73,3.94,2,0
17070.281,-0.386,-0.298,-0.869,1.28,-0.46,2.14,2,0
17070.296,-0.386,-0.287,-0.876,1.25,-1.5,0.18,2,0
17070.296,-0.383,-0.269,-0.886,0.27,-1.83,-1.77,2,0
17070.312,-0.386,-0.266,-0.885,-1.19,-1.95,-3.14,2,0
17070.312,-0.381,-0.267,-0.882,-1.68,-2.08,-3.63,2,0
17070.328,-0.38,-0.265,-0.875,-1.16,-1.8,-3.33,2,0
17070.343,-0.381,-0.265,-0.868,-0.31,-1.77,-2.11,2,0
17070.343,-0.378,-0.261,-0.869,0.98,-2.53,-0.31,2,0
17070.359,-0.375,-0.259,-0.877,1.65,-3.39,1.16,2,0
17070.375,-0.374,-0.258,-0.88,1.34,-4.03,1.62,2,0
17070.375,-0.377,-0.269,-0.88,0.55,-4.39,1.65,2,0
17070.39,-0.378,-0.29,-0.881,0.46,-4.36,2.23,2,0
17070.406,-0.373,-0.293,-0.883,1.8,-4.03,3.02,2,0
17070.406,-0.364,-0.288,-0.897,3.17,-3.08,3.23,2,0
17070.421,-0.36,-0.283,-0.908,2.96,-1.8,2.47,2,0
17070.437,-0.357,-0.291,-0.906,2.08,-0.52,1.59,2,0
17070.437,-0.353,-0.292,-0.899,1.65,0.79,0.34,2,0
17070.453,-0.358,-0.291,-0.893,1.4,2.04,-1.46,2,0
17070.453,-0.362,-0.293,-0.881,1.16,2.69,-2.84,2,0
17070.468,-0.363,-0.294,-0.873,0.98,2.44,-3.72,2,0
17070.484,-0.366,-0.306,-0.868,0.92,1.59,-4.0,2,0
17070.484,-0.365,-0.316,-0.865,1.86,0.89,-4.39,2,0
17070.5,-0.364,-0.326,-0.867,3.14,0.18,-5.1,2,0
17070.515,-0.364,-0.335,-0.874,3.81,-0.27,-6.44,2,0
17070.515,-0.368,-0.338,-0.885,3.88,-0.55,-8.61,2,0
17070.531,-0.37,-0.333,-0.897,3.33,-0.67,-11.11,2,0
17070.531,-0.369,-0.321,-0.901,2.08,-0.4,-13.82,2,0
17070.546,-0.368,-0.319,-0.901,0.92,0.24,-15.81,2,0
17070.562,-0.367,-0.309,-0.897,0.67,1.01,-17.27,2,0
17070.562,-0.373,-0.292,-0.893,0.7,1.62,-18.1,2,0
17070.578,-0.378,-0.282,-0.886,0.21,1.59,-17.73,2,0
17070.593,-0.381,-0.267,-0.881,0.03,0.98,-16.36,2,0
17070.593,-0.384,-0.249,-0.883,-0.09,0.03,-14.71,2,0
17070.609,-0.388,-0.24,-0.881,-0.79,-0.61,-12.73,2,0
17070.625,-0.388,-0.238,-0.877,-1.28,-1.01,-10.19,2,0
17070.625,-0.391,-0.241,-0.877,-1.53,-1.13,-7.54,2,0
17070.64,-0.387,-0.249,-0.871,-1.56,-1.22,-4.55,2,0
17070.656,-0.382,-0.282,-0.871,0.37,-0.95,-0.24,2,0
17070.656,-0.373,-0.293,-0.876,4.3,-0.18,4.46,2,0
17070.671,-0.366,-0.286,-0.884,7.26,0.79,7.26,2,0
17070.671,-0.371,-0.292,-0.885,7.6,1.74,8.42,2,0
17070.687,-0.364,-0.298,-0.878,7.05,2.75,8.36,2,0
17070.703,-0.356,-0.292,-0.871,6.47,3.14,6.41,2,0
17070.703,-0.359,-0.284,-0.862,4.61,2.59,3.05,2,0
17070.718,-0.366,-0.282,-0.852,1.98,1.22,-0.46,2,0
17070.734,-0.37,-0.289,-0.853,0.03,-0.92,-2.62,2,0
17070.734,-0.371,-0.284,-0.861,-0.76,-2.47,-3.39,2,0
17070.75,-0.372,-0.272,-0.873,-0.79,-3.27,-4.06,2,0
17070.765,-0.376,-0.281,-0.881,-0.95,-3.51,-4.43,2,0
17070.765,-0.377,-0.281,-0.89,-0.58,-3.45,-4.27,2,0
17070.781,-0.38,-0.276,-0.897,-0.21,-3.17,-4.0,2,0
17070.796,-0.386,-0.276,-0.899,-0.27,-2.81,-3.94,2,0
17070.796,-0.387,-0.269,-0.9,-0.49,-2.75,-3.88,2,0
17070.812,-0.388,-0.26,-0.903,-1.19,-2.81,-3.75,2,0
17070.812,-0.386,-0.254,-0.902,-1.98,-2.66,-3.08,2,0
17070.828,-0.383,-0.249,-0.898,-2.26,-2.26,-1.56,2,0
17070.843,-0.381,-0.258,-0.886,-2.01,-1.89,0.55,2,0
17070.843,-0.379,-0.266,-0.876,-0.61,-2.08,3.39,2,0
17070.859,-0.371,-0.265,-0.873,1.62,-2.53,6.65,2,0
17070.875,-0.364,-0.271,-0.87,2.9,-3.14,9.64,2,0
17070.875,-0.357,-0.282,-0.873,3.88,-3.63,11.84,2,0
17070.89,-0.355,-0.284,-0.882,4.36,-3.63,12.91,2,0
17070.906,-0.354,-0.291,-0.887,4.3,-2.75,13.21,2,0
17070.906,-0.352,-0.305,-0.884,4.18,-1.28,12.67,2,0
17070.921,-0.354,-0.325,-0.872,4.09,-0.46,11.26,2,0
17070.937,-0.351,-0.334,-0.866,4.73,-0.92,9.67,2,0
17070.937,-0.353,-0.333,-0.867,4.67,-2.01,7.93,2,0
17070.953,-0.356,-0.335,-0.872,4.15,-3.2,5.92,2,0
17070.953,-0.357,-0.327,-0.876,3.23,-3.97,3.33,2,0
17070.968,-0.357,-0.323,-0.879,2.32,-4.36,0.73,2,0
17070.984,-0.36,-0.319,-0.877,1.98,-4.55,-1.4,2,0
17070.984,-0.358,-0.31,-0.881,2.47,-4.61,-2.29,2,0
17071.0,-0.358,-0.297,-0.893,2.62,-4.36,-2.56,2,0
17071.015,-0.361,-0.286,-0.896,1.95,-4.0,-2.72,2,0
17071.015,-0.366,-0.286,-0.9,0.92,-3.72,-2.08,2,0
17071.031,-0.36,-0.281,-0.899,0.79,-3.33,-0.58,2,0
17071.031,-0.36,-0.278,-0.898,1.62,-2.69,1.19,2,0
17071.046,-0.364,-0.278,-0.895,2.17,-1.92,2.75,2,0
17071.062,-0.366,-0.277,-0.889,2.26,-1.01,4.33,2,0
17071.062,-0.371,-0.288,-0.883,2.14,-0.31,5.55,2,0
17071.078,-0.376,-0.299,-0.881,1.89,-0.09,6.44,2,0
17071.093,-0.373,-0.304,-0.876,2.23,-0.24,7.17,2,0
17071.093,-0.371,-0.31,-0.876,2.62,-0.52,7.45,2,0
17071.109,-0.366,-0.308,-0.889,2.44,-0.89,6.81,2,0
17071.125,-0.361,-0.308,-0.893,1.28,-0.95,5.65,2,0
17071.125,-0.36,-0.32,-0.889,0.58,-0.27,4.49,2,0
17071.14,-0.365,-0.326,-0.888,0.76,0.67,3.48,2,0
17071.156,-0.367,-0.322,-0.882,0.98,1.25,2.69,2,0
17071.156,-0.367,-0.314,-0.876,1.25,0.79,0.37,2,0
17071.171,-0.369,-0.306,-0.877,-0.12,0.06,-1.16,2,0
17071.171,-0.369,-0.293,-0.877,-1.4,-0.64,-2.81,2,0
17071.187,-0.369,-0.282,-0.872,-2.44,-1.04,-3.45,2,0
17071.203,-0.372,-0.279,-0.872,-3.17,-1.53,-3.91,2,0
17071.203,-0.374,-0.281,-0.872,-3.39,-2.17,-3.66,2,0
17071.218,-0.378,-0.282,-0.875,-2.72,-2.5,-2.41,2,0
17071.234,-0.382,-0.275,-0.882,-2.17,-2.96,-1.4,2,0
17071.234,-0.382,-0.278,-0.885,-2.53,-3.33,-0.89,2,0
17071.25,-0.38,-0.285,-0.89,-2.62,-3.39,-0.67,2,0
17071.265,-0.378,-0.282,-0.897,-2.56,-2.99,-0.73,2,0
17071.265,-0.378,-0.285,-0.897,-3.11,-2.59,-1.25,2,0
17071.281,-0.376,-0.296,-0.892,-3.91,-2.2,-1.77,2,0
17071.296,-0.379,-0.299,-0.882,-3.78,-1.65,-1.92,2,0
17071.296,-0.382,-0.297,-0.882,-3.36,-1.37,-2.38,2,0
17071.312,-0.38,-0.289,-0.876,-4.03,-1.65,-3.51,2,0
17071.312,-0.379,-0.284,-0.869,-5.8,-2.62,-5.68,2,0
17071.328,-0.375,-0.28,-0.865,-8.91,-4.55,-9.13,2,0
17071.343,-0.377,-0.286,-0.866,-13.31,-7.75,-13.55,2,0
17071.343,-0.377,-0.303,-0.86,-18.4,-10.99,-17.67,2,0
17071.359,-0.388,-0.326,-0.855,-20.39,-13.46,-20.94,2,0
17071.375,-0.396,-0.327,-0.875,-19.96,-14.95,-22.06,2,0
17071.375,-0.385,-0.305,-0.896,-19.1,-14.59,-22.71,2,0
17071.39,-0.387,-0.292,-0.916,-18.16,-12.27,-23.62,2,0
17071.406,-0.378,-0.286,-0.92,-17.82,-9.06,-24.38,2,0
17071.406,-0.367,-0.269,-0.915,-17.64,-6.26,-25.36,2,0
17071.421,-0.375,-0.268,-0.9,-18.01,-4.15,-26.09,2,0
17071.421,-0.386,-0.274,-0.878,-18.8,-3.27,-26.15,2,0
17071.437,-0.393,-0.287,-0.858,-18.43,-3.3,-25.3,2,0
17071.453,-0.406,-0.284,-0.849,-16.69,-3.91,-23.87,2,0
17071.453,-0.411,-0.271,-0.849,-14.95,-4.67,-22.19,2,0
17071.468,-0.407,-0.263,-0.859,-14.28,-5.74,-20.2,2,0
17071.484,-0.401,-0.265,-0.865,-14.22,-6.53,-18.07,2,0
17071.484,-0.398,-0.276,-0.867,-13.7,-6.78,-15.99,2,0
17071.5,-0.394,-0.282,-0.869,-11.78,-6.35,-14.19,2,0
17071.515,-0.395,-0.28,-0.873,-9.22,-5.49,-12.42,2,0
17071.515,-0.395,-0.27,-0.881,-7.42,-4.24,-9.89,2,0
17071.531,-0.39,-0.259,-0.884,-5.92,-2.69,-6.78,2,0
17071.546,-0.387,-0.256,-0.881,-3.75,-1.07,-3.66,2,0
17071.546,-0.384,-0.251,-0.876,-1.1,0.24,-0.58,2,0
17071.562,-0.386,-0.248,-0.876,1.71,0.64,2.93,2,0
17071.562,-0.381,-0.247,-0.877,3.88,0.61,6.5,2,0
17071.578,-0.376,-0.252,-0.881,4.91,0.31,9.03,2,0
17071.593,-0.375,-0.263,-0.881,4.97,0.09,10.93,2,0
17071.593,-0.374,-0.27,-0.878,5.8,0.37,12.33,2,0
17071.609,-0.379,-0.272,-0.879,7.42,1.04,13.12,2,0
17071.625,-0.383,-0.271,-0.88,8.55,1.22,13.92,2,0
17071.64,-0.384,-0.267,-0.887,8.76,1.1,13.89,2,0
17071.64,-0.386,-0.269,-0.891,7.54,0.76,12.91,2,0
17071.656,-0.381,-0.28,-0.89,5.89,0.61,11.38,2,0
17071.656,-0.379,-0.284,-0.889,4.18,0.76,8.39,2,0
17071.671,-0.382,-0.284,-0.884,1.68,0.58,4.43,2,0
17071.671,-0.378,-0.283,-0.872,-1.31,-0.03,0.49,2,0
17071.687,-0.375,-0.283,-0.869,-3.48,-1.56,-2.75,2,0
17071.703,-0.37,-0.283,-0.871,-4.55,-3.3,-4.49,2,0
17071.703,-0.358,-0.267,-0.882,-4.33,-4.27,-4.46,2,0
17071.718,-0.35,-0.251,-0.892,-4.03,-4.49,-3.42,2,0
17071.734,-0.352,-0.253,-0.9,-3.97,-3.72,-2.29,2,0
17071.734,-0.355,-0.253,-0.902,-3.88,-2.29,-0.89,2,0
17071.75,-0.358,-0.249,-0.898,-2.75,-0.18,0.67,2,0
17071.765,-0.361,-0.248,-0.897,-1.4,1.46,2.59,2,0
17071.765,-0.364,-0.25,-0.895,-0.43,2.35,5.34,2,0
17071.781,-0.36,-0.252,-0.892,1.53,3.3,8.36,2,0
17071.781,-0.356,-0.253,-0.891,3.75,4.06,10.8,2,0
17071.796,-0.36,-0.254,-0.889,5.04,4.73,12.27,2,0
17071.812,-0.367,-0.257,-0.889,5.25,5.16,13.12,2,0
17071.812,-0.372,-0.257,-0.89,4.91,4.94,13.52,2,0
17071.828,-0.376,-0.254,-0.897,4.27,4.39,13.03,2,0
17071.843,-0.385,-0.26,-0.898,3.05,3.91,12.09,2,0
17071.843,-0.394,-0.271,-0.899,2.59,3.54,11.32,2,0
17071.859,-0.391,-0.274,-0.902,3.11,3.42,10.71,2,0
17071.875,-0.385,-0.277,-0.906,3.33,3.36,9.25,2,0
17071.875,-0.388,-0.275,-0.905,2.04,3.02,5.89,2,0
17071.89,-0.388,-0.272,-0.901,-0.89,2.5,2.41,2,0
17071.906,-0.388,-0.271,-0.889,-3.33,1.95,-0.34,2,0
17071.906,-0.39,-0.285,-0.878,-3.6,1.71,-1.65,2,0
17071.921,-0.392,-0.276,-0.874,-2.59,1.25,-1.62,2,0
17071.921,-0.399,-0.257,-0.875,-1.68,0.82,-1.43,2,0
17071.937,-0.401,-0.25,-0.879,-1.86,0.43,-1.37,2,0
17071.953,-0.401,-0.246,-0.88,-2.9,-0.4,-1.95,2,0
17071.953,-0.406,-0.243,-0.876,-4.15,-1.13,-2.44,2,0
17071.968,-0.407,-0.253,-0.87,-4.64,-2.23,-1.5,2,0
17071.984,-0.404,-0.258,-0.871,-3.51,-2.87,0.4,2,0
17071.984,-0.401,-0.255,-0.885,-2.01,-3.27,2.11,2,0
17072.0,-0.401,-0.253,-0.891,-1.83,-3.2,3.17,2,0
17072.0,-0.405,-0.259,-0.89,-2.17,-2.84,3.6,2,0
17072.015,-0.405,-0.269,-0.882,-2.44,-2.53,3.97,2,0
17072.031,-0.405,-0.277,-0.871,-2.04,-2.32,4.09,2,0
17072.046,-0.406,-0.278,-0.858,-1.07,-2.44,4.3,2,0
17072.046,-0.403,-0.274,-0.852,-0.34,-3.17,4.73,2,0
17072.062,-0.4,-0.273,-0.85,-0.24,-4.39,5.65,2,0
17072.062,-0.39,-0.272,-0.848,-0.09,-5.92,6.65,2,0
17072.078,-0.387,-0.279,-0.848,0.31,-7.69,7.11,2,0
17072.093,-0.386,-0.281,-0.848,0.12,-9.37,7.35,2,0
17072.093,-0.384,-0.278,-0.855,-0.06,-11.29,7.72,2,0
17072.109,-0.383,-0.283,-0.867,-1.16,-12.91,7.6,2,0
17072.125,-0.385,-0.279,-0.88,-3.27,-14.07,6.32,2,0
17072.125,-0.383,-0.282,-0.889,-6.1,-14.4,4.55,2,0
17072.14,-0.383,-0.287,-0.895,-7.93,-12.3,0.64,2,0
17072.14,-0.381,-0.284,-0.903,-6.99,-10.28,-0.37,2,0
17072.156,-0.381,-0.276,-0.91,-4.91,-7.81,-0.49,2,0
17072.171,-0.381,-0.275,-0.912,-2.26,-5.22,0.09,2,0
17072.187,-0.38,-0.249,-0.909,-0.79,-2.9,0.92,2,0
17072.187,-0.386,-0.255,-0.898,0.67,-1.01,2.41,2,0
17072.203,-0.389,-0.249,-0.888,2.35,-0.12,4.06,2,0
17072.203,-0.396,-0.243,-0.88,3.05,-0.43,4.58,2,0
17072.218,-0.401,-0.251,-0.875,3.2,-1.31,5.58,2,0
17072.234,-0.395,-0.255,-0.876,3.6,-2.38,6.78,2,0
17072.234,-0.391,-0.253,-0.885,3.72,-2.81,6.68,2,0
17072.25,-0.39,-0.251,-0.89,3.11,-2.5,5.22,2,0
17072.265,-0.39,-0.256,-0.888,1.98,-2.11,3.36,2,0
17072.265,-0.39,-0.263,-0.887,1.04,-1.95,1.71,2,0
17072.281,-0.401,-0.264,-0.885,1.37,-0.85,0.43,2,0
17072.281,-0.402,-0.259,-0.872,2.38,-0.09,0.03,2,0
17072.296,-0.403,-0.241,-0.867,2.44,-0.85,0.15,2,0
17072.312,-0.405,-0.239,-0.863,2.66,-1.71,0.21,2,0
17072.312,-0.411,-0.229,-0.862,2.62,-2.96,0.67,2,0
17072.328,-0.412,-0.222,-0.862,2.29,-4.39,1.53,2,0
17072.343,-0.411,-0.224,-0.87,2.08,-5.31,2.99,2,0
17072.343,-0.406,-0.219,-0.879,2.08,-5.34,5.43,2,0
17072.359,-0.399,-0.221,-0.883,2.47,-4.33,7.87,2,0
17072.375,-0.398,-0.235,-0.887,4.21,-2.29,9.92,2,0
17072.375,-0.398,-0.24,-0.893,6.44,-0.4,11.63,2,0
17072.39,-0.391,-0.237,-0.891,7.14,1.16,12.51,2,0
17072.406,-0.384,-0.259,-0.888,6.99,1.98,11.66,2,0
17072.406,-0.382,-0.262,-0.894,6.99,2.08,9.34,2,0
17072.421,-0.379,-0.255,-0.905,5.25,1.83,6.53,2,0
17072.421,-0.379,-0.256,-0.907,2.38,1.5,3.17,2,0
17072.437,-0.382,-0.262,-0.908,0.03,0.98,-0.15,2,0
17072.453,-0.382,-0.261,-0.909,-2.11,0.58,-2.9,2,0
17072.453,-0.382,-0.256,-0.905,-3.81,0.03,-5.46,2,0
17072.468,-0.39,-0.249,-0.904,-5.01,-0.49,-7.63,2,0
17072.484,-0.398,-0.243,-0.904,-6.41,-0.92,-8.76,2,0
17072.484,-0.403,-0.239,-0.896,-7.54,-0.95,-8.7,2,0
17072.5,-0.407,-0.237,-0.887,-7.02,-0.55,-7.72,2,0
17072.515,-0.413,-0.24,-0.883,-5.07,0.09,-6.1,2,0
17072.515,-0.414,-0.232,-0.873,-2.87,0.76,-3.88,2,0
17072.531,-0.418,-0.224,-0.858,-1.22,1.34,-1.59,2,0
17072.546,-0.427,-0.226,-0.846,-0.24,1.01,0.92,2,0
17072.546,-0.424,-0.224,-0.842,0.31,-0.12,2.78,2,0
17072.562,-0.427,-0.226,-0.842,0.12,-1.62,3.94,2,0
17072.562,-0.43,-0.234,-0.846,-0.73,-3.48,4.85,2,0
17072.578,-0.426,-0.235,-0.851,-1.89,-5.22,5.55,2,0
17072.593,-0.425,-0.239,-0.857,-2.14,-6.2,5.83,2,0
17072.593,-0.428,-0.243,-0.861,-1.89,-6.41,6.56,2,0
17072.609,-0.421,-0.238,-0.861,-1.34,-6.68,7.66,2,0
17072.625,-0.42,-0.237,-0.865,-0.43,-7.2,8.94,2,0
17072.625,-0.419,-0.232,-0.862,0.67,-7.48,10.19,2,0
