timestamp,ax,ay,az,gx,gy,gz,orient_label,motion_label
17085.234,-0.268,-0.25,-0.928,5.52,-2.17,3.36,2,0
17085.234,-0.271,-0.248,-0.922,5.89,-2.2,3.17,2,0
17085.25,-0.273,-0.243,-0.924,5.92,-3.17,2.81,2,0
17085.265,-0.274,-0.23,-0.934,5.98,-4.18,2.2,2,0
17085.265,-0.267,-0.219,-0.943,5.43,-4.58,1.77,2,0
17085.281,-0.262,-0.22,-0.955,4.46,-4.43,1.04,2,0
17085.281,-0.257,-0.214,-0.962,3.3,-3.48,0.03,2,0
17085.296,-0.264,-0.211,-0.955,2.59,-1.92,-0.21,2,0
17085.312,-0.271,-0.215,-0.945,2.56,-0.4,0.06,2,0
17085.312,-0.277,-0.211,-0.938,2.75,0.46,1.07,2,0
17085.328,-0.276,-0.204,-0.932,2.66,0.55,2.53,2,0
17085.343,-0.273,-0.206,-0.933,2.72,0.31,4.03,2,0
17085.359,-0.27,-0.214,-0.932,2.9,0.21,5.52,2,0
17085.359,-0.266,-0.217,-0.935,3.85,0.58,6.41,2,0
17085.375,-0.271,-0.217,-0.934,4.67,1.28,7.14,2,0
17085.375,-0.271,-0.224,-0.931,4.52,1.74,7.87,2,0
17085.39,-0.272,-0.232,-0.929,4.85,1.89,8.58,2,0
17085.406,-0.264,-0.232,-0.94,5.65,2.69,8.55,2,0
17085.421,-0.262,-0.235,-0.94,4.46,3.08,7.42,2,0
17085.437,-0.263,-0.236,-0.938,3.42,3.51,5.43,2,0
17085.437,-0.265,-0.236,-0.935,1.95,3.39,3.42,2,0
17085.453,-0.271,-0.251,-0.926,0.79,2.96,2.5,2,0
17085.453,-0.271,-0.253,-0.921,1.25,2.44,2.35,2,0
17085.468,-0.274,-0.238,-0.926,1.5,1.59,1.37,2,0
17085.484,-0.274,-0.231,-0.928,-0.18,0.37,-0.03,2,0
17085.484,-0.275,-0.232,-0.925,-2.08,-0.58,-1.43,2,0
17085.5,-0.274,-0.234,-0.93,-2.62,-1.31,-2.62,2,0
17085.515,-0.273,-0.225,-0.939,-2.81,-1.22,-3.17,2,0
17085.515,-0.276,-0.227,-0.937,-3.23,-0.52,-2.75,2,0
17085.531,-0.281,-0.236,-0.928,-2.72,0.49,-1.31,2,0
17085.531,-0.282,-0.235,-0.921,-0.92,1.01,0.49,2,0
17085.546,-0.282,-0.241,-0.925,0.67,0.79,2.01,2,0
17085.562,-0.281,-0.241,-0.933,1.71,0.64,3.45,2,0
17085.578,-0.275,-0.237,-0.926,1.04,1.28,3.6,2,0
17085.593,-0.283,-0.244,-0.919,0.7,0.82,2.38,2,0
17085.593,-0.289,-0.243,-0.921,0.49,-0.27,2.01,2,0
17085.609,-0.286,-0.244,-0.925,-0.18,-1.4,2.08,2,0
17085.625,-0.286,-0.253,-0.924,-0.58,-2.11,1.86,2,0
17085.625,-0.286,-0.252,-0.93,-0.21,-2.35,1.77,2,0
17085.64,-0.283,-0.246,-0.94,0.31,-2.38,1.5,2,0
17085.656,-0.285,-0.245,-0.941,0.09,-2.04,0.89,2,0
17085.656,-0.288,-0.248,-0.93,-0.27,-1.34,0.52,2,0
17085.671,-0.288,-0.244,-0.919,0.27,-1.1,0.98,2,0
17085.671,-0.29,-0.247,-0.909,1.56,-1.43,1.68,2,0
17085.687,-0.296,-0.244,-0.89,2.84,-2.41,2.62,2,0
17085.703,-0.297,-0.246,-0.913,3.66,-4.36,3.72,2,0
17085.703,-0.299,-0.25,-0.902,4.21,-5.28,4.33,2,0
17085.718,-0.295,-0.241,-0.928,3.48,-7.02,4.12,2,0
17085.734,-0.297,-0.251,-0.95,2.29,-6.41,3.17,2,0
17085.75,-0.3,-0.252,-0.923,1.28,-4.15,2.14,2,0
17085.765,-0.323,-0.277,-0.913,1.89,-2.2,2.59,2,0
17085.765,-0.335,-0.276,-0.892,2.59,-0.46,6.32,2,0
17085.781,-0.336,-0.271,-0.871,3.54,0.61,10.68,2,0
17085.796,-0.345,-0.303,-0.846,5.8,1.16,15.02,2,0
17085.796,-0.346,-0.311,-0.829,9.61,0.55,17.94,2,0
17085.812,-0.353,-0.294,-0.838,12.36,-0.37,18.77,2,0
17085.812,-0.362,-0.288,-0.831,12.48,-1.31,18.16,2,0
17085.828,-0.359,-0.298,-0.826,11.44,-2.47,17.06,2,0
17085.843,-0.361,-0.31,-0.83,11.78,-3.54,14.37,2,0
17085.859,-0.352,-0.299,-0.837,11.96,-5.22,11.72,2,0
17085.859,-0.332,-0.287,-0.84,10.44,-6.81,9.52,2,0
17085.875,-0.321,-0.301,-0.85,9.52,-7.72,7.45,2,0
17085.875,-0.306,-0.292,-0.867,9.31,-8.58,5.01,2,0
17085.89,-0.283,-0.275,-0.88,8.61,-8.45,2.41,2,0
17085.906,-0.261,-0.273,-0.885,7.54,-6.47,0.55,2,0
17085.921,-0.23,-0.258,-0.839,9.13,4.58,-3.69,2,0
17085.921,-0.232,-0.241,-0.806,9.09,6.56,-4.27,2,0
17085.937,-0.24,-0.219,-0.774,8.06,6.81,-4.27,2,0
17085.953,-0.264,-0.2,-0.714,7.32,6.04,-3.75,2,0
17085.953,-0.277,-0.178,-0.699,6.81,5.28,-2.69,2,0
17085.968,-0.29,-0.162,-0.681,5.55,4.43,-1.4,2,0
17085.984,-0.301,-0.161,-0.694,4.64,3.54,-0.4,2,0
17086.0,-0.304,-0.14,-0.731,4.27,2.14,0.4,2,0
17086.0,-0.264,-0.148,-0.792,3.57,0.98,2.35,2,0
17086.015,-0.202,-0.176,-0.843,4.79,2.99,7.17,2,0
17086.015,-0.168,-0.183,-0.885,10.1,8.73,12.91,2,0
17086.031,-0.154,-0.201,-0.907,14.77,15.69,16.39,2,0
17086.046,-0.176,-0.219,-0.893,15.99,21.79,16.24,2,0
17086.046,-0.211,-0.247,-0.869,15.81,25.27,13.79,2,0
17086.062,-0.228,-0.269,-0.846,14.37,25.51,9.22,2,0
17086.062,-0.215,-0.283,-0.84,11.32,22.4,3.42,2,0
17086.093,-0.161,-0.293,-0.884,6.59,13.86,-8.03,2,0
17086.093,-0.167,-0.283,-0.928,4.58,10.56,-13.31,2,0
17086.109,-0.196,-0.285,-0.978,1.5,8.42,-19.14,2,0
17086.125,-0.222,-0.292,-1.009,-1.83,8.09,-25.73,2,0
17086.125,-0.239,-0.283,-1.03,-3.94,8.45,-32.32,2,0
17086.14,-0.228,-0.267,-1.038,-5.58,8.39,-37.02,2,0
17086.156,-0.195,-0.249,-1.055,-7.29,7.35,-39.58,2,0
17086.156,-0.172,-0.231,-1.068,-9.4,6.99,-40.62,2,0
17086.171,-0.148,-0.23,-1.07,-11.51,7.6,-40.01,2,0
17086.171,-0.135,-0.237,-1.07,-11.29,9.0,-38.15,2,0
17086.187,-0.132,-0.231,-1.069,-8.48,11.02,-34.67,2,0
17086.203,-0.14,-0.22,-1.068,-6.5,12.82,-30.37,2,0
17086.203,-0.147,-0.215,-1.061,-5.71,13.98,-26.06,2,0
17086.218,-0.15,-0.219,-1.055,-6.13,14.98,-23.04,2,0
17086.234,-0.13,-0.247,-1.042,-7.05,16.08,-21.91,2,0
17086.25,-0.114,-0.27,-1.039,-7.69,16.91,-24.57,2,0
17086.25,-0.108,-0.274,-1.035,-11.87,16.66,-29.69,2,0
17086.265,-0.082,-0.298,-1.011,-17.91,15.87,-34.0,2,0
17086.265,-0.07,-0.323,-0.993,-20.42,15.44,-36.44,2,0
17086.281,-0.091,-0.326,-0.986,-19.07,15.2,-37.54,2,0
17086.296,-0.139,-0.306,-0.995,-17.58,13.67,-37.23,2,0
17086.296,-0.178,-0.295,-0.995,-18.56,11.14,-36.04,2,0
17086.312,-0.199,-0.302,-0.995,-19.84,9.34,-34.55,2,0
17086.328,-0.202,-0.297,-0.995,-18.71,9.22,-32.93,2,0
17086.328,-0.205,-0.275,-0.992,-15.96,10.56,-30.34,2,0
17086.343,-0.197,-0.254,-0.986,-13.86,12.27,-25.67,2,0
17086.343,-0.19,-0.245,-0.979,-11.69,13.7,-19.81,2,0
17086.359,-0.2,-0.238,-0.981,-9.0,14.53,-12.6,2,0
17086.375,-0.202,-0.238,-0.986,-6.38,14.59,-3.97,2,0
17086.375,-0.189,-0.255,-0.999,-3.02,14.56,4.7,2,0
17086.39,-0.17,-0.271,-1.017,0.95,15.32,12.79,2,0
17086.406,-0.152,-0.282,-1.029,4.39,17.15,19.9,2,0
17086.406,-0.139,-0.291,-1.039,7.42,19.99,24.84,2,0
17086.421,-0.136,-0.302,-1.047,9.8,23.07,27.28,2,0
17086.437,-0.138,-0.31,-1.047,10.62,24.93,26.76,2,0
17086.437,-0.151,-0.313,-1.042,8.85,25.15,23.22,2,0
17086.453,-0.16,-0.334,-1.043,5.8,23.87,18.59,2,0
17086.453,-0.155,-0.353,-1.05,3.81,22.03,14.01,2,0
17086.468,-0.143,-0.353,-1.054,3.14,20.54,9.19,2,0
17086.484,-0.128,-0.346,-1.057,1.8,19.23,4.09,2,0
17086.484,-0.121,-0.338,-1.055,-0.06,18.4,-0.61,2,0
17086.5,-0.123,-0.327,-1.049,-1.71,17.82,-5.22,2,0
17086.515,-0.139,-0.318,-1.028,-3.39,17.3,-9.06,2,0
17086.531,-0.163,-0.316,-1.009,-4.0,16.42,-10.86,2,0
17086.531,-0.186,-0.303,-1.008,-3.05,14.74,-10.38,2,0
17086.531,-0.183,-0.283,-1.016,-1.95,12.45,-8.18,2,0
17086.546,-0.179,-0.266,-1.023,-1.01,10.19,-5.55,2,0
17086.562,-0.18,-0.253,-1.034,-0.37,8.12,-2.99,2,0
17086.562,-0.178,-0.25,-1.036,-0.24,6.68,0.58,2,0
17086.593,-0.091,-0.257,-1.072,4.0,9.37,8.21,2,0
17086.593,-0.083,-0.252,-1.08,7.17,14.1,10.74,2,0
17086.609,-0.093,-0.253,-1.068,7.02,18.01,12.18,2,0
17086.625,-0.114,-0.272,-1.031,5.89,21.18,12.85,2,0
17086.625,-0.142,-0.292,-0.987,5.25,22.0,13.0,2,0
17086.64,-0.154,-0.305,-0.963,6.16,20.57,13.15,2,0
17086.656,-0.155,-0.309,-0.952,7.66,18.07,13.58,2,0
17086.656,-0.143,-0.306,-0.953,8.18,15.96,14.22,2,0
17086.671,-0.13,-0.313,-0.955,9.06,15.23,14.92,2,0
17086.687,-0.124,-0.308,-0.955,10.86,15.29,15.14,2,0
17086.687,-0.123,-0.293,-0.952,12.12,15.53,14.1,2,0
17086.703,-0.126,-0.276,-0.949,11.63,15.69,12.15,2,0
17086.703,-0.127,-0.276,-0.94,9.61,15.02,8.97,2,0
17086.718,-0.132,-0.279,-0.926,7.08,13.28,4.46,2,0
17086.734,-0.131,-0.269,-0.925,4.06,10.68,-0.15,2,0
17086.734,-0.129,-0.255,-0.923,0.98,7.78,-4.39,2,0
17086.765,-0.113,-0.261,-0.931,-2.23,4.12,-9.09,2,0
17086.765,-0.111,-0.243,-0.941,-1.62,4.0,-9.7,2,0
17086.781,-0.125,-0.229,-0.943,-1.83,4.52,-9.22,2,0
17086.796,-0.127,-0.233,-0.936,-2.59,4.64,-7.57,2,0
17086.796,-0.122,-0.238,-0.925,-1.83,4.52,-5.46,2,0
17086.812,-0.12,-0.232,-0.92,0.24,4.39,-3.11,2,0
17086.812,-0.12,-0.226,-0.921,1.56,4.15,-0.89,2,0
17086.828,-0.115,-0.234,-0.92,2.35,3.27,1.53,2,0
17086.843,-0.114,-0.237,-0.922,2.69,2.23,3.63,2,0
17086.843,-0.119,-0.24,-0.929,2.81,0.7,5.04,2,0
17086.859,-0.12,-0.241,-0.946,2.81,-1.07,5.77,2,0
17086.875,-0.112,-0.239,-0.963,1.95,-1.86,5.55,2,0
17086.875,-0.105,-0.247,-0.976,0.82,-1.16,5.01,2,0
17086.89,-0.102,-0.251,-0.979,-0.61,2.78,3.02,2,0
17086.89,-0.098,-0.245,-0.974,-1.74,4.09,1.95,2,0
17086.906,-0.099,-0.247,-0.962,-2.5,4.24,1.31,2,0
17086.921,-0.108,-0.246,-0.93,-3.05,1.8,1.98,2,0
17086.937,-0.105,-0.248,-0.934,-2.96,-0.24,3.05,2,0
17086.953,-0.101,-0.246,-0.945,-3.08,-1.62,4.09,2,0
17086.953,-0.101,-0.247,-0.952,-3.51,-2.38,5.1,2,0
17086.968,-0.093,-0.252,-0.954,-4.09,-2.75,6.38,2,0
17086.984,-0.091,-0.262,-0.957,-3.33,-2.17,7.97,2,0
17086.984,-0.093,-0.264,-0.96,-1.95,-1.65,9.58,2,0
17087.0,-0.092,-0.257,-0.966,-1.59,-1.31,10.8,2,0
17087.015,-0.081,-0.267,-0.966,-1.46,-0.55,12.15,2,0
17087.031,-0.072,-0.275,-0.963,-0.67,0.7,13.06,2,0
17087.031,-0.077,-0.273,-0.961,0.06,1.68,13.15,2,0
17087.031,-0.082,-0.275,-0.95,0.18,1.92,13.06,2,0
17087.046,-0.08,-0.278,-0.958,-0.24,1.56,12.57,2,0
17087.062,-0.084,-0.28,-0.946,-1.01,1.28,11.84,2,0
17087.062,-0.085,-0.285,-0.948,-2.32,-0.18,11.02,2,0
17087.078,-0.083,-0.301,-0.951,-2.47,-1.43,10.32,2,0
17087.093,-0.076,-0.289,-0.975,-2.11,-2.23,9.49,2,0
17087.109,-0.067,-0.298,-0.973,-2.44,-1.74,9.13,2,0
17087.125,-0.061,-0.303,-0.972,-1.83,-0.79,8.76,2,0
17087.125,-0.06,-0.299,-0.968,-0.76,0.03,8.33,2,0
17087.14,-0.06,-0.293,-0.965,-0.03,0.55,8.27,2,0
17087.156,-0.064,-0.292,-0.964,0.34,0.89,8.36,2,0
17087.156,-0.064,-0.297,-0.96,0.67,1.28,8.33,2,0
17087.171,-0.067,-0.294,-0.959,1.16,1.22,8.12,2,0
17087.171,-0.072,-0.282,-0.961,1.31,0.49,7.32,2,0
17087.187,-0.078,-0.275,-0.961,0.61,-0.52,6.81,2,0
17087.203,-0.079,-0.278,-0.954,-0.7,-2.04,6.16,2,0
17087.203,-0.083,-0.296,-0.953,-1.22,-3.72,5.65,2,0
17087.218,-0.085,-0.296,-0.961,-0.21,-4.94,5.83,2,0
17087.234,-0.089,-0.284,-0.973,0.7,-5.52,6.16,2,0
17087.234,-0.09,-0.288,-0.979,0.55,-5.77,6.74,2,0
17087.25,-0.088,-0.293,-0.979,0.49,-5.62,7.29,2,0
17087.265,-0.087,-0.284,-0.995,2.47,-4.09,8.03,2,0
17087.281,-0.082,-0.277,-0.991,2.29,-3.2,8.33,2,0
17087.281,-0.081,-0.281,-0.987,1.92,-2.26,8.24,2,0
17087.296,-0.081,-0.279,-0.985,2.32,-1.34,8.39,2,0
17087.312,-0.082,-0.275,-0.976,2.2,-0.73,8.67,2,0
17087.312,-0.089,-0.278,-0.964,1.98,-0.43,8.85,2,0
17087.328,-0.088,-0.279,-0.956,1.8,-0.89,8.79,2,0
17087.343,-0.088,-0.282,-0.949,1.65,-1.56,9.03,2,0
17087.343,-0.09,-0.29,-0.944,1.92,-1.98,9.95,2,0
17087.359,-0.09,-0.292,-0.946,2.78,-2.11,10.56,2,0
17087.375,-0.091,-0.299,-0.948,3.05,-1.71,10.86,2,0
17087.375,-0.086,-0.301,-0.947,3.42,-0.73,10.8,2,0
17087.39,-0.086,-0.303,-0.946,4.3,0.49,9.8,2,0
17087.406,-0.092,-0.298,-0.943,4.24,1.34,8.03,2,0
17087.406,-0.096,-0.291,-0.935,3.2,1.4,5.8,2,0
17087.421,-0.096,-0.286,-0.931,1.8,0.64,3.6,2,0
17087.437,-0.1,-0.283,-0.929,-0.73,-2.11,0.0,2,0
17087.453,-0.103,-0.28,-0.935,-0.89,-3.42,-0.37,2,0
17087.453,-0.103,-0.272,-0.943,-0.43,-3.97,0.06,2,0
17087.468,-0.106,-0.272,-0.948,0.0,-3.72,0.98,2,0
17087.484,-0.108,-0.272,-0.952,0.55,-3.48,2.04,2,0
17087.484,-0.105,-0.263,-0.954,0.92,-2.87,3.48,2,0
17087.5,-0.1,-0.268,-0.957,1.65,-2.14,4.12,2,0
17087.515,-0.099,-0.265,-0.962,2.2,-1.53,4.43,2,0
17087.531,-0.098,-0.257,-0.957,2.84,-0.92,5.04,2,0
17087.531,-0.096,-0.256,-0.963,2.53,-1.07,5.83,2,0
17087.531,-0.1,-0.253,-0.96,1.13,-1.56,5.95,2,0
17087.546,-0.102,-0.257,-0.96,0.34,-2.26,6.1,2,0
17087.562,-0.104,-0.266,-0.963,0.12,-2.96,6.13,2,0
17087.562,-0.108,-0.266,-0.969,0.21,-3.36,6.41,2,0
17087.578,-0.107,-0.267,-0.975,0.21,-3.51,7.14,2,0
17087.593,-0.106,-0.278,-0.978,0.7,-3.17,8.48,2,0
17087.609,-0.102,-0.28,-0.979,2.11,-1.22,10.1,2,0
17087.625,-0.11,-0.282,-0.977,2.81,-0.31,9.95,2,0
17087.625,-0.108,-0.281,-0.969,2.84,0.27,9.61,2,0
17087.64,-0.106,-0.276,-0.964,2.41,0.4,8.61,2,0
17087.656,-0.103,-0.274,-0.963,1.62,-0.06,6.99,2,0
17087.656,-0.096,-0.275,-0.96,-0.09,-0.82,5.71,2,0
17087.671,-0.087,-0.284,-0.962,-1.16,-1.46,5.13,2,0
17087.687,-0.077,-0.294,-0.964,-1.28,-1.77,5.1,2,0
17087.687,-0.077,-0.297,-0.962,-0.61,-1.13,5.52,2,0
17087.703,-0.08,-0.302,-0.967,0.76,-0.03,5.55,2,0
17087.703,-0.08,-0.302,-0.966,1.71,1.13,4.58,2,0
17087.718,-0.086,-0.293,-0.961,1.22,1.98,2.75,2,0
17087.734,-0.094,-0.284,-0.952,-0.12,2.38,0.73,2,0
17087.75,-0.097,-0.284,-0.942,-0.95,2.32,-1.25,2,0
17087.75,-0.101,-0.281,-0.938,-1.68,2.01,-3.48,2,0
17087.765,-0.109,-0.282,-0.927,-2.96,1.07,-5.43,2,0
17087.781,-0.115,-0.279,-0.922,-2.62,-1.31,-7.17,2,0
17087.796,-0.12,-0.271,-0.925,-2.01,-2.56,-7.48,2,0
17087.796,-0.125,-0.26,-0.931,-1.86,-3.69,-7.6,2,0
17087.812,-0.125,-0.252,-0.939,-2.26,-4.61,-7.11,2,0
17087.828,-0.122,-0.252,-0.948,-2.53,-5.31,-7.02,2,0
17087.828,-0.119,-0.251,-0.956,-2.35,-5.55,-6.9,2,0
17087.843,-0.115,-0.245,-0.962,-1.95,-5.37,-6.41,2,0
17087.843,-0.118,-0.243,-0.966,-1.25,-5.22,-5.58,2,0
17087.859,-0.118,-0.254,-0.967,-0.7,-5.52,-4.15,2,0
17087.875,-0.115,-0.257,-0.966,0.31,-5.83,-2.14,2,0
17087.875,-0.111,-0.256,-0.975,3.14,-5.16,2.38,2,0
17087.89,-0.106,-0.254,-1.001,2.96,-3.75,3.51,2,0
17087.906,-0.104,-0.251,-1.004,2.78,-1.65,3.78,2,0
17087.906,-0.103,-0.255,-1.002,2.26,0.21,3.51,2,0
17087.921,-0.106,-0.26,-0.991,2.14,1.89,3.17,2,0
17087.921,-0.106,-0.256,-0.973,1.86,2.29,3.02,2,0
17087.953,-0.106,-0.267,-0.963,0.64,0.43,3.02,2,0
17087.953,-0.105,-0.27,-0.965,0.79,-0.4,3.63,2,0
17087.968,-0.107,-0.274,-0.969,1.07,-0.46,4.21,2,0
17087.984,-0.105,-0.278,-0.971,1.25,0.37,4.82,2,0
17087.984,-0.108,-0.279,-0.97,1.71,1.8,5.13,2,0
17088.0,-0.106,-0.276,-0.962,1.83,3.05,5.16,2,0
17088.015,-0.104,-0.274,-0.95,1.65,4.0,5.07,2,0
17088.015,-0.108,-0.279,-0.937,1.43,4.18,4.52,2,0
17088.031,-0.116,-0.285,-0.927,1.68,3.42,4.27,2,0
17088.046,-0.117,-0.284,-0.926,1.89,2.17,4.33,2,0
17088.046,-0.118,-0.284,-0.93,1.77,0.98,4.06,2,0
17088.062,-0.118,-0.29,-0.939,1.19,-0.15,3.3,2,0
17088.062,-0.119,-0.291,-0.948,0.06,-0.73,2.38,2,0
17088.078,-0.119,-0.289,-0.949,-1.4,-0.98,1.07,2,0
17088.093,-0.125,-0.288,-0.946,-2.66,-1.25,-0.67,2,0
17088.093,-0.13,-0.287,-0.943,-3.33,-1.71,-1.89,2,0
17088.125,-0.128,-0.291,-0.945,-2.32,-3.51,-0.79,2,0
17088.125,-0.121,-0.29,-0.953,-0.95,-4.03,0.67,2,0
17088.14,-0.114,-0.29,-0.959,0.09,-4.21,2.08,2,0
17088.14,-0.109,-0.29,-0.965,0.52,-4.12,3.27,2,0
17088.156,-0.103,-0.287,-0.97,0.49,-3.91,4.03,2,0
17088.171,-0.102,-0.287,-0.969,0.18,-3.08,4.15,2,0
17088.171,-0.1,-0.289,-0.96,-0.31,-2.17,3.78,2,0
17088.187,-0.101,-0.286,-0.949,-0.73,-1.83,3.05,2,0
17088.203,-0.104,-0.287,-0.944,-1.04,-2.26,2.26,2,0
17088.203,-0.103,-0.287,-0.94,-1.22,-2.96,1.68,2,0
17088.218,-0.098,-0.287,-0.941,-1.25,-3.66,1.5,2,0
17088.234,-0.092,-0.29,-0.946,-1.25,-4.06,1.68,2,0
17088.234,-0.083,-0.294,-0.95,-1.01,-3.72,2.38,2,0
17088.25,-0.078,-0.297,-0.952,-0.21,-2.93,2.75,2,0
17088.265,-0.082,-0.298,-0.952,0.4,-1.95,2.56,2,0
17088.265,-0.085,-0.294,-0.952,0.24,-1.31,2.62,2,0
17088.281,-0.099,-0.296,-0.947,0.79,-1.92,1.28,2,0
17088.296,-0.098,-0.29,-0.949,0.79,-2.84,0.55,2,0
17088.312,-0.1,-0.287,-0.953,0.7,-4.03,-0.03,2,0
17088.312,-0.098,-0.284,-0.96,0.89,-4.94,-0.52,2,0
17088.328,-0.095,-0.282,-0.968,0.98,-5.8,-0.98,2,0
17088.343,-0.1,-0.279,-0.975,0.73,-5.86,-1.4,2,0
17088.359,-0.106,-0.274,-0.983,0.85,-5.16,-1.25,2,0
17088.359,-0.112,-0.278,-0.989,0.98,-4.0,-0.52,2,0
17088.375,-0.115,-0.278,-0.986,1.34,-2.69,0.61,2,0
17088.375,-0.114,-0.272,-0.984,2.84,-1.31,2.01,2,0
17088.39,-0.112,-0.263,-0.98,4.06,-0.34,3.6,2,0
17088.406,-0.111,-0.254,-0.974,4.67,0.0,5.01,2,0
17088.406,-0.113,-0.251,-0.973,5.16,-0.34,6.16,2,0
17088.421,-0.113,-0.25,-0.974,5.07,-0.76,7.42,2,0
17088.437,-0.117,-0.253,-0.975,4.82,-1.13,8.51,2,0
17088.437,-0.114,-0.259,-0.978,4.39,-1.25,9.92,2,0
17088.453,-0.104,-0.275,-0.976,4.43,0.03,11.66,2,0
17088.468,-0.097,-0.276,-0.972,4.7,1.4,12.15,2,0
17088.484,-0.096,-0.276,-0.962,5.07,2.62,11.75,2,0
17088.5,-0.106,-0.276,-0.952,4.46,3.11,10.83,2,0
17088.5,-0.113,-0.277,-0.939,3.14,2.69,9.98,2,0
17088.515,-0.114,-0.278,-0.935,2.2,1.92,9.06,2,0
17088.515,-0.112,-0.277,-0.932,1.01,0.92,8.09,2,0
17088.531,-0.111,-0.281,-0.932,-0.34,-0.12,7.42,2,0
17088.546,-0.108,-0.279,-0.934,-0.7,-0.49,7.39,2,0
17088.546,-0.106,-0.279,-0.935,-0.21,-0.49,7.78,2,0
17088.562,-0.106,-0.278,-0.939,0.0,-0.18,8.09,2,0
17088.562,-0.103,-0.28,-0.942,0.27,0.15,8.85,2,0
17088.578,-0.1,-0.288,-0.945,0.89,0.61,9.77,2,0
17088.593,-0.1,-0.288,-0.946,1.83,1.5,9.95,2,0
17088.593,-0.102,-0.283,-0.95,2.26,2.11,9.61,2,0
17088.609,-0.105,-0.284,-0.952,1.59,2.29,8.85,2,0
17088.625,-0.107,-0.289,-0.954,0.89,2.2,7.63,2,0
17088.625,-0.107,-0.284,-0.958,0.24,1.98,6.59,2,0
17088.64,-0.106,-0.284,-0.961,0.03,2.2,6.16,2,0
17088.64,-0.104,-0.288,-0.963,0.0,2.35,5.43,2,0
17088.656,-0.11,-0.288,-0.96,-0.09,2.81,4.46,2,0
17088.671,-0.115,-0.283,-0.961,-0.09,3.08,3.66,2,0
17088.687,-0.117,-0.283,-0.961,-0.09,3.23,2.96,2,0
17088.687,-0.117,-0.28,-0.96,-0.09,2.99,2.2,2,0
17088.703,-0.119,-0.27,-0.959,-0.27,2.66,1.62,2,0
17088.718,-0.119,-0.265,-0.961,-0.82,2.17,1.34,2,0
17088.718,-0.116,-0.265,-0.963,-1.34,1.83,1.28,2,0
17088.734,-0.116,-0.263,-0.962,-1.5,1.74,1.65,2,0
17088.734,-0.118,-0.264,-0.963,-1.25,1.68,1.92,2,0
17088.75,-0.116,-0.266,-0.967,-0.82,1.92,2.66,2,0
17088.765,-0.114,-0.266,-0.97,-0.52,2.38,3.36,2,0
17088.765,-0.115,-0.27,-0.974,-0.46,3.11,3.63,2,0
17088.781,-0.118,-0.27,-0.974,-0.43,3.88,3.75,2,0
17088.796,-0.12,-0.266,-0.971,-0.64,4.39,3.75,2,0
17088.796,-0.126,-0.27,-0.964,-1.04,4.43,3.14,2,0
17088.812,-0.129,-0.269,-0.958,-1.56,4.09,2.47,2,0
17088.812,-0.129,-0.267,-0.954,-1.92,3.57,1.86,2,0
17088.828,-0.133,-0.268,-0.95,-2.69,2.78,1.37,2,0
17088.843,-0.133,-0.272,-0.944,-2.87,2.04,1.13,2,0
17088.843,-0.134,-0.275,-0.945,-2.5,1.68,1.5,2,0
17088.859,-0.133,-0.278,-0.947,-1.34,1.56,3.42,2,0
17088.875,-0.129,-0.279,-0.95,-0.67,1.65,4.03,2,0
17088.875,-0.123,-0.278,-0.948,0.12,2.23,4.21,2,0
17088.89,-0.125,-0.278,-0.947,0.18,2.14,3.88,2,0
17088.906,-0.127,-0.28,-0.952,-0.61,1.53,3.36,2,0
17088.906,-0.124,-0.28,-0.952,-1.4,0.89,2.66,2,0
17088.921,-0.125,-0.287,-0.953,-1.98,0.43,2.01,2,0
17088.937,-0.127,-0.297,-0.955,-1.86,0.0,1.5,2,0
17088.937,-0.125,-0.295,-0.96,-1.59,-0.18,1.28,2,0
17088.953,-0.118,-0.292,-0.962,-1.22,0.06,1.34,2,0
17088.953,-0.116,-0.301,-0.96,-0.85,0.46,1.1,2,0
17088.968,-0.113,-0.304,-0.96,-0.24,0.67,0.52,2,0
17088.984,-0.108,-0.29,-0.962,0.03,1.07,-0.12,2,0
17088.984,-0.106,-0.284,-0.96,-0.67,1.37,-0.21,2,0
17089.0,-0.104,-0.295,-0.954,-1.01,1.68,-0.27,2,0
17089.015,-0.107,-0.297,-0.951,-0.95,1.43,-1.22,2,0
17089.015,-0.114,-0.291,-0.948,-1.1,0.73,-2.29,2,0
17089.031,-0.118,-0.294,-0.944,-1.22,-0.21,-3.14,2,0
17089.031,-0.12,-0.301,-0.941,-0.98,-0.98,-3.66,2,0
17089.046,-0.123,-0.298,-0.939,-0.18,-1.95,-3.78,2,0
17089.062,-0.124,-0.289,-0.948,0.37,-2.93,-3.88,2,0
17089.062,-0.119,-0.281,-0.956,0.31,-3.02,-3.91,2,0
17089.078,-0.117,-0.284,-0.962,-0.09,-2.41,-3.97,2,0
17089.093,-0.114,-0.286,-0.962,-0.52,-1.56,-4.15,2,0
17089.093,-0.107,-0.284,-0.959,0.03,-0.76,-4.15,2,0
17089.109,-0.104,-0.279,-0.956,1.01,-0.21,-4.12,2,0
17089.125,-0.107,-0.275,-0.951,1.13,-0.34,-3.97,2,0
17089.125,-0.108,-0.275,-0.95,0.64,-1.37,-3.36,2,0
17089.14,-0.103,-0.277,-0.953,0.49,-2.62,-2.47,2,0
17089.156,-0.101,-0.282,-0.959,0.55,-3.05,-1.83,2,0
17089.156,-0.105,-0.284,-0.966,0.79,-2.84,-1.56,2,0
17089.171,-0.106,-0.288,-0.966,1.1,-2.23,-1.43,2,0
17089.171,-0.103,-0.29,-0.958,1.53,-0.85,-1.65,2,0
17089.187,-0.104,-0.289,-0.955,2.11,0.24,-2.04,2,0
17089.203,-0.108,-0.287,-0.948,2.35,0.31,-2.32,2,0
17089.203,-0.106,-0.285,-0.939,2.56,-0.27,-1.22,2,0
17089.218,-0.101,-0.285,-0.943,3.45,-1.01,0.0,2,0
17089.234,-0.102,-0.284,-0.947,3.78,-1.86,0.27,2,0
17089.25,-0.099,-0.285,-0.948,3.81,-2.75,0.49,2,0
17089.25,-0.097,-0.282,-0.956,3.75,-3.02,0.15,2,0
17089.265,-0.097,-0.279,-0.963,2.66,-3.08,-0.61,2,0
17089.265,-0.093,-0.286,-0.963,1.65,-3.2,-1.56,2,0
17089.281,-0.094,-0.29,-0.964,1.56,-2.69,-2.66,2,0
17089.296,-0.098,-0.283,-0.965,1.62,-1.8,-3.54,2,0
17089.296,-0.099,-0.274,-0.965,1.19,-1.04,-4.06,2,0
17089.312,-0.096,-0.274,-0.958,0.61,-0.49,-3.97,2,0
17089.312,-0.101,-0.273,-0.954,0.79,-0.61,-3.63,2,0
17089.328,-0.105,-0.263,-0.951,1.01,-1.25,-2.9,2,0
17089.343,-0.103,-0.26,-0.952,1.04,-2.11,-1.74,2,0
17089.343,-0.103,-0.266,-0.955,1.07,-2.93,-0.73,2,0
17089.359,-0.101,-0.267,-0.96,1.34,-3.3,0.31,2,0
17089.375,-0.1,-0.268,-0.965,1.68,-2.99,0.85,2,0
17089.375,-0.096,-0.269,-0.969,1.92,-2.5,1.28,2,0
17089.39,-0.092,-0.27,-0.969,1.43,-1.83,1.34,2,0
17089.406,-0.088,-0.272,-0.97,1.04,-1.07,1.53,2,0
17089.406,-0.085,-0.274,-0.964,0.82,-0.58,1.59,2,0
17089.421,-0.088,-0.273,-0.961,0.67,-0.46,1.5,2,0
17089.437,-0.091,-0.275,-0.958,0.58,-0.55,1.25,2,0
17089.437,-0.089,-0.277,-0.954,0.52,-0.98,1.5,2,0
17089.453,-0.094,-0.278,-0.952,0.7,-1.56,1.56,2,0
17089.468,-0.096,-0.282,-0.959,0.73,-2.01,1.22,2,0
17089.468,-0.089,-0.275,-0.966,0.58,-2.23,0.67,2,0
17089.484,-0.087,-0.275,-0.972,-0.21,-1.86,-0.03,2,0
17089.484,-0.085,-0.28,-0.974,-1.19,-1.01,-0.7,2,0
17089.5,-0.082,-0.274,-0.97,-1.53,0.0,-1.01,2,0
17089.515,-0.084,-0.273,-0.966,-1.43,1.04,-1.16,2,0
17089.515,-0.091,-0.276,-0.962,-1.46,1.31,-1.13,2,0
17089.531,-0.093,-0.275,-0.956,-1.5,1.13,-0.67,2,0
17089.546,-0.094,-0.274,-0.958,-1.22,0.92,-0.24,2,0
17089.546,-0.094,-0.277,-0.959,-1.04,0.67,0.09,2,0
17089.562,-0.095,-0.273,-0.961,-0.92,0.61,0.37,2,0
17089.562,-0.095,-0.269,-0.964,-1.25,0.7,0.49,2,0
17089.578,-0.098,-0.276,-0.965,-1.68,0.95,0.21,2,0
17089.593,-0.097,-0.276,-0.962,-2.08,1.16,0.03,2,0
17089.593,-0.096,-0.277,-0.961,-1.86,1.43,-0.15,2,0
17089.609,-0.096,-0.278,-0.961,-1.13,1.71,0.03,2,0
17089.625,-0.097,-0.276,-0.961,-1.13,1.77,0.18,2,0
17089.625,-0.093,-0.279,-0.961,-1.53,1.65,0.21,2,0
17089.64,-0.099,-0.284,-0.965,-1.31,1.8,0.03,2,0
17089.656,-0.099,-0.283,-0.969,-0.92,2.44,-0.31,2,0
17089.656,-0.101,-0.28,-0.968,-0.79,3.42,-0.92,2,0
17089.671,-0.102,-0.282,-0.968,-0.89,4.52,-1.92,2,0
17089.687,-0.103,-0.284,-0.963,-1.22,5.13,-3.02,2,0
17089.687,-0.099,-0.281,-0.959,-1.53,5.58,-3.72,2,0
17089.703,-0.097,-0.282,-0.954,-1.22,5.83,-4.21,2,0
17089.703,-0.086,-0.285,-0.952,-1.01,5.37,-4.91,2,0
17089.718,-0.079,-0.282,-0.954,-1.43,4.33,-6.56,2,0
17089.734,-0.076,-0.286,-0.961,-3.33,2.62,-9.25,2,0
17089.734,-0.076,-0.306,-0.97,-6.87,0.85,-13.06,2,0
17089.75,-0.075,-0.323,-0.989,-9.8,0.4,-18.46,2,0
17089.765,-0.076,-0.322,-0.998,-12.94,1.37,-23.99,2,0
17089.765,-0.072,-0.325,-0.992,-16.54,2.9,-29.39,2,0
17089.781,-0.077,-0.321,-0.988,-18.25,4.7,-34.36,2,0
17089.796,-0.071,-0.312,-0.98,-18.95,6.41,-37.63,2,0
17089.796,-0.071,-0.308,-0.969,-19.44,7.81,-39.77,2,0
17089.812,-0.072,-0.273,-0.949,-17.46,9.46,-39.52,2,0
17089.828,-0.073,-0.275,-0.95,-17.18,9.22,-38.0,2,0
17089.843,-0.074,-0.279,-0.952,-13.98,8.61,-34.55,2,0
17089.859,-0.082,-0.257,-0.951,-11.14,8.12,-32.2,2,0
17089.859,-0.077,-0.241,-0.947,-9.67,7.17,-29.79,2,0
17089.875,-0.075,-0.235,-0.959,-8.45,6.74,-27.19,2,0
17089.875,-0.073,-0.243,-0.965,-6.41,6.65,-23.93,2,0
17089.89,-0.077,-0.237,-0.966,-4.24,6.99,-20.36,2,0
17089.906,-0.076,-0.243,-0.982,-1.98,7.45,-16.85,2,0
17089.906,-0.068,-0.25,-0.998,0.31,8.79,-14.34,2,0
17089.921,-0.064,-0.258,-1.011,2.26,12.3,-12.73,2,0
17089.921,-0.062,-0.264,-1.018,2.56,16.94,-12.09,2,0
17089.937,-0.053,-0.276,-1.011,3.05,21.76,-11.69,2,0
17089.953,-0.043,-0.268,-0.992,5.13,25.85,-11.32,2,0
17089.968,-0.043,-0.255,-0.953,7.54,27.34,-10.96,2,0
17089.968,-0.053,-0.243,-0.928,7.57,24.41,-10.38,2,0
17089.984,-0.051,-0.238,-0.9,3.88,10.83,-7.05,2,0
17090.0,-0.05,-0.239,-0.907,2.01,2.78,-5.37,2,0
17090.015,-0.045,-0.255,-0.93,1.01,-4.52,-4.39,2,0
17090.031,-0.039,-0.261,-0.957,0.52,-9.31,-4.12,2,0
17090.031,-0.038,-0.253,-0.988,-0.89,-11.81,-5.16,2,0
17090.046,-0.032,-0.256,-1.014,-2.72,-11.69,-7.08,2,0
17090.046,-0.03,-0.258,-1.015,-4.43,-9.61,-9.25,2,0
17090.062,-0.031,-0.254,-1.005,-4.7,-7.54,-10.99,2,0
17090.078,-0.029,-0.248,-0.992,-3.39,-6.29,-11.66,2,0
17090.078,-0.031,-0.231,-0.984,-2.56,-6.16,-11.26,2,0
17090.093,-0.034,-0.221,-0.973,-3.05,-7.39,-10.32,2,0
17090.093,-0.039,-0.213,-0.964,-3.57,-9.43,-8.97,2,0
17090.109,-0.044,-0.211,-0.966,-3.57,-11.75,-7.08,2,0
17090.125,-0.037,-0.215,-0.974,-3.2,-13.52,-4.91,2,0
17090.125,-0.037,-0.215,-0.984,-2.99,-14.04,-3.45,2,0
17090.14,-0.036,-0.217,-0.988,-2.96,-13.31,-2.2,2,0
17090.156,-0.022,-0.224,-0.994,-1.1,-9.83,0.37,2,0
17090.171,-0.022,-0.222,-0.986,-0.43,-7.54,1.65,2,0
17090.171,-0.035,-0.224,-0.968,-0.52,-6.07,2.72,2,0
17090.187,-0.041,-0.227,-0.95,-0.55,-6.1,3.97,2,0
17090.203,-0.043,-0.227,-0.943,-0.55,-7.29,5.25,2,0
17090.218,-0.04,-0.225,-0.947,-0.82,-9.25,6.29,2,0
17090.218,-0.034,-0.226,-0.955,-1.13,-11.38,7.17,2,0
17090.234,-0.028,-0.239,-0.963,-1.71,-12.33,7.6,2,0
17090.234,-0.025,-0.253,-0.972,-1.4,-11.69,7.39,2,0
17090.25,-0.027,-0.251,-0.974,-0.79,-10.1,6.81,2,0
17090.265,-0.034,-0.247,-0.968,-0.98,-8.15,5.49,2,0
17090.281,-0.043,-0.245,-0.963,-1.46,-6.62,4.3,2,0
17090.281,-0.041,-0.245,-0.958,-2.35,-5.83,3.05,2,0
17090.281,-0.036,-0.248,-0.948,-3.14,-5.52,2.14,2,0
17090.296,-0.04,-0.244,-0.94,-3.23,-5.52,1.31,2,0
17090.312,-0.048,-0.247,-0.938,-3.14,-6.2,0.79,2,0
17090.312,-0.051,-0.251,-0.935,-2.99,-6.93,0.92,2,0
17090.328,-0.055,-0.256,-0.928,-2.5,-7.17,1.25,2,0
17090.343,-0.057,-0.261,-0.923,-1.77,-7.6,1.46,2,0
17090.359,-0.055,-0.257,-0.925,-0.76,-8.33,1.56,2,0
17090.359,-0.052,-0.247,-0.935,-0.73,-8.94,1.5,2,0
17090.375,-0.049,-0.246,-0.943,-1.53,-9.37,0.64,2,0
17090.375,-0.056,-0.247,-0.946,-2.59,-9.43,-0.58,2,0
17090.39,-0.06,-0.249,-0.95,-3.48,-9.22,-1.89,2,0
17090.406,-0.063,-0.251,-0.954,-3.57,-8.51,-3.02,2,0
17090.406,-0.071,-0.25,-0.955,-3.69,-7.35,-4.55,2,0
17090.421,-0.084,-0.251,-0.951,-4.0,-6.44,-5.62,2,0
17090.437,-0.083,-0.249,-0.949,-3.78,-6.13,-6.1,2,0
17090.437,-0.088,-0.246,-0.952,-3.17,-5.95,-6.16,2,0
17090.453,-0.096,-0.239,-0.953,-2.75,-5.68,-5.95,2,0
17090.453,-0.094,-0.233,-0.954,-2.62,-6.07,-5.8,2,0
17090.468,-0.094,-0.233,-0.955,-2.5,-6.84,-5.46,2,0
17090.484,-0.095,-0.234,-0.961,-2.41,-7.66,-4.85,2,0
17090.484,-0.096,-0.233,-0.963,-2.56,-8.18,-4.58,2,0
17090.5,-0.096,-0.239,-0.967,-2.78,-8.73,-4.33,2,0
17090.515,-0.09,-0.243,-0.971,-2.14,-8.79,-3.78,2,0
17090.515,-0.092,-0.238,-0.975,-1.25,-8.42,-3.08,2,0
17090.531,-0.092,-0.237,-0.974,-0.82,-8.3,-2.11,2,0
17090.546,-0.093,-0.236,-0.967,-0.64,-8.91,-1.25,2,0
17090.546,-0.091,-0.233,-0.963,-0.7,-9.95,-0.98,2,0
17090.562,-0.094,-0.23,-0.956,-1.43,-11.72,-1.16,2,0
17090.578,-0.098,-0.23,-0.952,-3.36,-14.44,-1.83,2,0
17090.578,-0.099,-0.23,-0.953,-6.44,-17.98,-2.59,2,0
17090.593,-0.103,-0.244,-0.96,-8.18,-21.52,-3.51,2,0
17090.593,-0.097,-0.246,-0.971,-9.28,-24.29,-4.18,2,0
17090.609,-0.09,-0.248,-0.983,-10.01,-25.36,-4.33,2,0
17090.625,-0.081,-0.261,-0.999,-9.19,-24.6,-4.18,2,0
17090.625,-0.079,-0.262,-1.015,-7.14,-21.97,-3.78,2,0
17090.64,-0.076,-0.254,-1.021,-5.25,-18.37,-2.93,2,0
17090.64,-0.073,-0.251,-1.017,-3.72,-14.31,-2.04,2,0
17090.656,-0.074,-0.247,-1.013,-2.08,-10.65,-1.71,2,0
17090.671,-0.073,-0.238,-1.007,-0.95,-7.81,-1.77,2,0
17090.687,-0.079,-0.232,-0.997,-0.82,-6.29,-1.92,2,0
17090.687,-0.093,-0.23,-0.989,-0.73,-6.01,-2.5,2,0
17090.703,-0.11,-0.223,-0.983,-1.8,-6.68,-3.2,2,0
17090.703,-0.121,-0.216,-0.978,-3.69,-8.03,-3.69,2,0
17090.718,-0.132,-0.222,-0.981,-5.25,-9.83,-3.6,2,0
17090.734,-0.134,-0.239,-0.997,-4.91,-10.28,-2.81,2,0
17090.734,-0.141,-0.251,-0.994,-1.16,-8.45,-1.1,2,0
17090.75,-0.135,-0.233,-1.003,2.75,-7.14,1.19,2,0
17090.765,-0.144,-0.218,-1.011,4.06,-5.92,2.29,2,0
17090.765,-0.155,-0.227,-1.011,4.55,-5.65,3.05,2,0
17090.781,-0.157,-0.215,-1.013,4.3,-6.78,3.14,2,0
17090.796,-0.165,-0.21,-1.026,3.69,-8.36,2.69,2,0
17090.796,-0.169,-0.209,-1.041,2.17,-9.98,2.5,2,0
17090.812,-0.172,-0.206,-1.049,0.7,-10.93,1.92,2,0
17090.828,-0.182,-0.209,-1.054,-0.34,-11.2,1.16,2,0
17090.828,-0.191,-0.205,-1.056,-1.8,-12.09,1.16,2,0
17090.843,-0.206,-0.199,-1.058,-2.62,-13.58,2.14,2,0
17090.843,-0.217,-0.195,-1.06,-3.33,-15.75,3.11,2,0
17090.859,-0.241,-0.196,-1.089,-3.88,-18.4,3.66,2,0
17090.875,-0.25,-0.191,-1.113,-4.82,-21.3,3.94,2,0
17090.875,-0.249,-0.175,-1.136,-7.29,-24.45,3.48,2,0
17090.89,-0.244,-0.175,-1.146,-10.38,-27.28,2.72,2,0
17090.906,-0.244,-0.174,-1.133,-13.52,-30.85,2.08,2,0
17090.906,-0.241,-0.172,-1.126,-15.87,-35.28,2.62,2,0
17090.921,-0.24,-0.145,-1.129,-17.61,-40.47,3.39,2,0
17090.937,-0.237,-0.157,-1.168,-20.11,-45.05,5.22,2,0
17090.937,-0.189,-0.2,-1.129,-19.41,-45.53,8.42,2,0
17090.953,-0.193,-0.219,-1.114,-14.98,-42.97,10.28,2,0
17090.953,-0.198,-0.251,-1.134,-8.48,-36.81,12.09,2,0
17090.968,-0.208,-0.231,-1.152,-1.62,-27.01,12.79,2,0
17090.984,-0.201,-0.235,-1.111,0.82,-17.15,13.12,2,0
17090.984,-0.19,-0.244,-1.009,1.04,-10.68,10.28,2,0
17091.0,-0.223,-0.268,-0.962,4.67,-8.09,7.05,2,0
17091.015,-0.226,-0.245,-0.956,8.48,-9.25,6.71,2,0
17091.015,-0.225,-0.201,-0.949,9.09,-11.26,7.17,2,0
17091.031,-0.237,-0.231,-0.926,8.39,-12.51,9.16,2,0
17091.046,-0.24,-0.271,-0.909,10.35,-14.01,11.75,2,0
17091.046,-0.213,-0.284,-0.92,16.66,-13.55,16.27,2,0
17091.062,-0.193,-0.293,-0.922,24.26,-10.32,21.55,2,0
17091.078,-0.183,-0.349,-0.884,32.69,-4.91,27.95,2,0
17091.078,-0.157,-0.387,-0.87,44.56,0.82,35.65,2,0
17091.093,-0.142,-0.381,-0.889,55.48,7.45,42.05,2,0
17091.093,-0.164,-0.333,-0.934,58.63,12.97,42.42,2,0
17091.109,-0.146,-0.382,-0.907,53.62,20.23,42.48,2,0
17091.125,-0.134,-0.364,-0.857,51.15,24.78,36.47,2,0
17091.125,-0.154,-0.326,-0.859,48.4,25.97,28.44,2,0
17091.14,-0.2,-0.293,-0.868,39.19,24.69,19.1,2,0
17091.156,-0.104,-0.415,-0.797,32.81,25.48,14.98,2,0
17091.156,-0.185,-0.305,-0.815,32.99,21.09,1.86,2,0
17091.171,-0.233,-0.267,-0.844,28.08,16.17,-8.24,2,0
17091.171,-0.143,-0.279,-0.861,14.13,12.18,-10.8,2,0
17091.187,-0.135,-0.264,-0.865,3.48,8.94,-27.65,2,0
17091.203,-0.233,-0.321,-0.851,-0.67,7.11,-38.82,2,0
17091.203,-0.167,-0.217,-0.885,0.15,3.57,-42.3,2,0
17091.218,-0.23,-0.174,-0.936,-0.98,3.81,-46.24,2,0
17091.234,-0.226,-0.237,-0.927,-6.44,4.64,-42.33,2,0
17091.234,-0.191,-0.24,-0.911,-9.46,4.46,-42.73,2,0
17091.25,-0.237,-0.271,-0.881,-8.39,4.36,-47.09,2,0
17091.265,-0.257,-0.228,-0.922,-4.24,3.66,-47.33,2,0
17091.281,-0.278,-0.148,-0.947,-5.01,3.57,-47.79,2,0
17091.281,-0.287,-0.162,-0.916,-12.09,1.74,-46.66,2,0
17091.296,-0.262,-0.164,-0.877,-16.6,-1.77,-44.98,2,0
17091.296,-0.25,-0.154,-0.879,-14.86,-5.62,-42.12,2,0
17091.312,-0.218,-0.121,-0.912,-12.97,-8.82,-35.4,2,0
17091.328,-0.201,-0.122,-0.921,-13.7,-9.25,-27.77,2,0
17091.328,-0.202,-0.162,-0.885,-14.01,-7.84,-19.56,2,0
17091.343,-0.214,-0.18,-0.851,-10.16,-6.5,-11.23,2,0
17091.343,-0.221,-0.21,-0.844,-4.15,-5.71,-1.13,2,0
17091.359,-0.208,-0.22,-0.841,0.46,-5.43,8.55,2,0
17091.375,-0.208,-0.229,-0.844,4.06,-5.71,15.23,2,0
17091.39,-0.196,-0.219,-0.857,5.4,-7.02,19.9,2,0
17091.39,-0.181,-0.22,-0.865,4.79,-8.61,21.88,2,0
17091.406,-0.177,-0.237,-0.878,3.48,-10.16,21.18,2,0
17091.406,-0.179,-0.245,-0.872,2.04,-11.47,19.26,2,0
17091.421,-0.183,-0.251,-0.874,1.01,-13.0,17.33,2,0
17091.437,-0.188,-0.245,-0.886,-0.12,-14.22,15.66,2,0
17091.437,-0.194,-0.249,-0.886,-1.98,-15.23,13.89,2,0
17091.453,-0.2,-0.278,-0.882,-2.23,-16.6,12.45,2,0
17091.453,-0.2,-0.294,-0.893,0.79,-17.37,12.94,2,0
17091.468,-0.19,-0.275,-0.909,4.58,-17.24,14.37,2,0
17091.484,-0.182,-0.265,-0.923,6.53,-17.15,15.2,2,0
17091.484,-0.177,-0.255,-0.948,7.2,-16.69,15.32,2,0
17091.5,-0.168,-0.239,-0.958,7.2,-15.23,14.31,2,0
17091.515,-0.179,-0.233,-0.957,5.52,-14.5,12.27,2,0
17091.531,-0.181,-0.229,-0.959,3.66,-14.37,10.38,2,0
17091.531,-0.179,-0.235,-0.96,2.87,-14.16,9.58,2,0
17091.546,-0.168,-0.237,-0.964,2.41,-14.1,9.7,2,0
17091.546,-0.163,-0.233,-0.965,2.99,-13.0,10.9,2,0
17091.562,-0.161,-0.228,-0.955,3.63,-11.78,13.28,2,0
17091.562,-0.17,-0.239,-0.934,4.52,-10.9,16.08,2,0
17091.578,-0.182,-0.245,-0.913,7.39,-10.62,18.74,2,0
17091.593,-0.199,-0.219,-0.912,9.31,-11.44,21.09,2,0
17091.593,-0.195,-0.212,-0.926,7.05,-13.82,22.06,2,0
17091.609,-0.179,-0.228,-0.941,3.39,-16.54,21.24,2,0
17091.625,-0.159,-0.23,-0.955,0.89,-18.13,20.23,2,0
17091.625,-0.142,-0.231,-0.968,-0.85,-18.16,19.59,2,0
17091.64,-0.135,-0.237,-0.974,-2.78,-16.82,18.86,2,0
17091.656,-0.146,-0.254,-0.964,-4.85,-14.86,17.7,2,0
17091.656,-0.167,-0.267,-0.953,-6.1,-12.76,15.87,2,0
17091.671,-0.186,-0.277,-0.947,-6.38,-10.71,13.7,2,0
17091.671,-0.198,-0.297,-0.941,-6.53,-9.4,11.99,2,0
17091.687,-0.196,-0.309,-0.943,-5.22,-8.03,11.75,2,0
17091.703,-0.185,-0.3,-0.947,-3.08,-5.89,12.73,2,0
17091.703,-0.184,-0.314,-0.941,-1.34,-3.33,14.53,2,0
17091.718,-0.196,-0.321,-0.941,2.01,0.0,16.51,2,0
17091.734,-0.207,-0.303,-0.939,6.47,3.85,17.88,2,0
17091.734,-0.231,-0.282,-0.93,7.05,5.71,16.94,2,0
17091.75,-0.24,-0.275,-0.912,4.24,4.27,14.83,2,0
17091.765,-0.233,-0.278,-0.898,1.16,0.85,12.79,2,0
17091.765,-0.23,-0.287,-0.893,-1.53,-3.66,10.99,2,0
17091.781,-0.216,-0.298,-0.905,-2.53,-8.03,9.74,2,0
17091.796,-0.212,-0.288,-0.931,-3.39,-10.5,8.58,2,0
17091.796,-0.217,-0.295,-0.947,-4.7,-10.38,8.18,2,0
17091.812,-0.222,-0.304,-0.954,-4.3,-6.04,5.86,2,0
17091.812,-0.227,-0.31,-0.961,-2.47,-3.02,5.28,2,0
17091.828,-0.231,-0.3,-0.96,-1.19,-0.06,5.74,2,0
17091.843,-0.231,-0.282,-0.954,-0.64,1.89,6.68,2,0
17091.843,-0.243,-0.28,-0.914,-0.15,2.01,7.14,2,0
17091.859,-0.256,-0.271,-0.904,0.03,0.64,7.39,2,0
17091.875,-0.265,-0.268,-0.907,-0.92,-1.19,7.42,2,0
17091.875,-0.274,-0.281,-0.915,-2.29,-2.66,6.87,2,0
17091.89,-0.28,-0.288,-0.919,-2.44,-3.02,6.41,2,0
17091.906,-0.276,-0.283,-0.924,-1.89,-2.9,6.93,2,0
17091.906,-0.269,-0.279,-0.927,-1.22,-2.56,7.66,2,0
17091.921,-0.266,-0.279,-0.926,-0.7,-2.29,7.81,2,0
17091.937,-0.256,-0.285,-0.935,0.27,-1.95,7.87,2,0
17091.937,-0.254,-0.283,-0.922,0.49,-0.15,7.48,2,0
17091.953,-0.264,-0.274,-0.913,1.16,1.43,7.23,2,0
17091.953,-0.27,-0.257,-0.913,2.14,2.17,7.54,2,0
17091.968,-0.273,-0.265,-0.921,2.75,1.28,8.88,2,0
17091.984,-0.267,-0.28,-0.933,3.6,-0.64,10.62,2,0
17091.984,-0.259,-0.287,-0.964,5.55,-2.2,11.66,2,0
17092.0,-0.246,-0.295,-0.994,7.08,-1.37,12.12,2,0
17092.015,-0.239,-0.299,-0.999,8.67,2.66,10.44,2,0
17092.015,-0.249,-0.283,-0.986,8.79,7.63,6.07,2,0
17092.031,-0.265,-0.268,-0.958,7.08,10.71,0.12,2,0
17092.046,-0.274,-0.264,-0.922,4.27,10.83,-5.74,2,0
17092.046,-0.283,-0.265,-0.895,1.77,8.48,-9.89,2,0
17092.062,-0.291,-0.265,-0.886,0.06,5.28,-12.36,2,0
17092.062,-0.296,-0.259,-0.883,-1.19,3.11,-13.0,2,0
17092.078,-0.299,-0.253,-0.874,-1.77,1.59,-12.57,2,0
17092.093,-0.3,-0.245,-0.875,-1.37,0.06,-11.14,2,0
17092.093,-0.29,-0.224,-0.888,-0.61,-1.65,-9.49,2,0
17092.109,-0.285,-0.204,-0.907,-1.22,-3.54,-7.87,2,0
17092.125,-0.284,-0.197,-0.925,-3.11,-5.46,-6.47,2,0
17092.14,-0.281,-0.199,-0.94,-4.91,-6.68,-4.94,2,0
17092.14,-0.283,-0.205,-0.949,-6.23,-7.02,-3.51,2,0
17092.156,-0.283,-0.225,-0.951,-6.2,-6.16,-1.01,2,0
17092.156,-0.282,-0.245,-0.956,-3.81,-3.81,2.93,2,0
17092.171,-0.281,-0.251,-0.949,-0.03,-1.01,7.93,2,0
17092.187,-0.278,-0.27,-0.937,3.36,0.98,12.76,2,0
17092.187,-0.27,-0.287,-0.925,6.56,2.17,16.24,2,0
17092.203,-0.266,-0.283,-0.92,8.73,2.11,17.33,2,0
17092.203,-0.27,-0.278,-0.919,8.45,1.13,15.66,2,0
17092.218,-0.276,-0.275,-0.925,6.65,-0.64,12.21,2,0
17092.234,-0.276,-0.268,-0.933,4.12,-2.53,7.9,2,0
17092.234,-0.273,-0.257,-0.93,1.43,-3.69,4.24,2,0
17092.25,-0.282,-0.26,-0.929,0.27,-3.91,1.68,2,0
17092.265,-0.283,-0.251,-0.928,0.7,-3.33,0.18,2,0
17092.281,-0.282,-0.239,-0.931,0.76,-2.81,-0.89,2,0
17092.281,-0.285,-0.241,-0.92,0.12,-2.14,-1.19,2,0
17092.281,-0.282,-0.244,-0.913,0.34,-1.86,-1.22,2,0
17092.296,-0.281,-0.237,-0.91,0.15,-2.08,-1.31,2,0
17092.312,-0.281,-0.23,-0.914,-0.73,-2.72,-1.34,2,0
17092.312,-0.272,-0.228,-0.917,-1.5,-3.63,-1.07,2,0
17092.328,-0.266,-0.231,-0.927,-1.83,-3.85,-0.52,2,0
17092.343,-0.259,-0.232,-0.931,-2.04,-3.54,0.34,2,0
17092.343,-0.257,-0.237,-0.934,-1.98,-2.87,0.95,2,0
17092.359,-0.264,-0.249,-0.934,-1.4,-2.17,2.01,2,0
17092.375,-0.265,-0.26,-0.933,-0.7,-1.71,3.39,2,0
17092.375,-0.261,-0.265,-0.939,0.31,-1.22,4.12,2,0
17092.39,-0.26,-0.267,-0.94,1.07,-0.55,3.97,2,0
17092.406,-0.258,-0.272,-0.935,1.01,-0.7,3.45,2,0
17092.406,-0.255,-0.265,-0.933,0.49,-1.28,2.44,2,0
17092.421,-0.251,-0.262,-0.928,-1.01,-1.92,1.04,2,0
17092.437,-0.249,-0.267,-0.923,-2.47,-2.75,-0.49,2,0
17092.437,-0.248,-0.263,-0.928,-3.11,-3.48,-1.43,2,0
17092.453,-0.249,-0.253,-0.937,-3.63,-3.97,-1.95,2,0
17092.453,-0.252,-0.256,-0.941,-4.39,-4.03,-1.71,2,0
17092.468,-0.259,-0.264,-0.951,-3.78,-3.27,-1.13,2,0
17092.484,-0.265,-0.267,-0.96,-2.35,-1.59,-0.12,2,0
17092.5,-0.267,-0.273,-0.965,-1.19,0.67,1.07,2,0
17092.5,-0.27,-0.275,-0.965,0.09,2.93,1.8,2,0
17092.515,-0.266,-0.266,-0.959,0.76,4.76,2.14,2,0
17092.515,-0.26,-0.258,-0.949,0.43,5.74,1.86,2,0
17092.531,-0.263,-0.258,-0.94,-0.55,5.98,1.34,2,0
17092.546,-0.265,-0.262,-0.932,-1.28,5.71,1.28,2,0
17092.546,-0.271,-0.263,-0.926,-1.68,5.49,1.53,2,0
17092.562,-0.273,-0.269,-0.929,-2.35,5.13,1.65,2,0
17092.578,-0.271,-0.281,-0.924,-2.96,5.1,1.95,2,0
17092.578,-0.268,-0.286,-0.92,-2.59,5.74,2.32,2,0
17092.593,-0.268,-0.284,-0.915,-2.2,6.65,1.43,2,0
17092.593,-0.275,-0.281,-0.91,-2.26,7.23,-0.7,2,0
17092.609,-0.289,-0.275,-0.9,-3.2,6.47,-3.78,2,0
17092.625,-0.3,-0.272,-0.889,-4.49,4.49,-7.02,2,0
17092.625,-0.304,-0.271,-0.884,-5.46,1.46,-9.28,2,0
17092.64,-0.305,-0.264,-0.895,-5.4,-1.83,-10.35,2,0
17092.656,-0.297,-0.255,-0.912,-4.73,-4.79,-10.38,2,0
17092.656,-0.277,-0.245,-0.932,-4.12,-6.71,-9.61,2,0
17092.671,-0.265,-0.236,-0.944,-3.23,-7.26,-8.91,2,0
17092.671,-0.26,-0.219,-0.957,-2.29,-6.81,-8.82,2,0
17092.687,-0.263,-0.204,-0.964,-2.78,-6.1,-8.85,2,0
17092.703,-0.268,-0.198,-0.964,-4.15,-5.04,-8.97,2,0
17092.718,-0.27,-0.203,-0.954,-4.97,-3.66,-8.39,2,0
17092.718,-0.276,-0.215,-0.94,-4.3,-2.2,-6.44,2,0
17092.734,-0.275,-0.219,-0.928,-2.23,-1.19,-3.36,2,0
17092.734,-0.277,-0.217,-0.924,0.15,-0.79,0.18,2,0
17092.75,-0.274,-0.221,-0.924,2.04,-1.07,2.96,2,0
17092.765,-0.266,-0.222,-0.934,3.02,-1.95,4.85,2,0
17092.765,-0.265,-0.22,-0.943,2.2,-2.87,5.13,2,0
17092.781,-0.263,-0.231,-0.945,0.31,-3.42,4.52,2,0
17092.796,-0.26,-0.25,-0.937,0.64,-2.96,3.57,2,0
17092.796,-0.261,-0.25,-0.934,0.73,-3.08,2.75,2,0
17092.812,-0.261,-0.246,-0.93,-0.09,-3.45,1.95,2,0
17092.812,-0.259,-0.244,-0.924,-0.82,-4.12,1.19,2,0
17092.828,-0.256,-0.245,-0.922,-1.56,-4.82,0.76,2,0
17092.843,-0.258,-0.245,-0.921,-1.62,-5.01,1.19,2,0
17092.843,-0.259,-0.247,-0.922,-0.76,-4.7,1.98,2,0
17092.859,-0.26,-0.247,-0.926,0.31,-4.3,2.96,2,0
17092.875,-0.26,-0.25,-0.933,1.01,-3.94,3.91,2,0
17092.875,-0.257,-0.252,-0.939,1.74,-3.51,4.82,2,0
17092.89,-0.251,-0.254,-0.937,2.56,-2.69,5.83,2,0
17092.906,-0.257,-0.261,-0.934,4.06,-1.07,6.32,2,0
17092.906,-0.26,-0.26,-0.926,5.34,0.15,6.35,2,0
17092.921,-0.267,-0.26,-0.924,5.52,0.49,5.46,2,0
17092.921,-0.278,-0.267,-0.921,4.36,0.31,3.88,2,0
17092.937,-0.279,-0.272,-0.925,3.14,-0.82,2.38,2,0
17092.953,-0.275,-0.268,-0.934,2.44,-2.04,1.04,2,0
17092.953,-0.278,-0.261,-0.946,1.71,-3.36,-0.06,2,0
17092.968,-0.269,-0.262,-0.955,1.01,-4.27,-0.58,2,0
17092.984,-0.259,-0.268,-0.958,1.07,-3.85,-0.85,2,0
17092.984,-0.259,-0.267,-0.959,1.8,-2.78,-1.07,2,0
17093.0,-0.261,-0.264,-0.952,2.11,-1.16,-1.25,2,0
17093.015,-0.266,-0.259,-0.938,1.37,0.03,-1.56,2,0
17093.015,-0.269,-0.257,-0.921,0.31,0.34,-2.01,2,0
17093.031,-0.273,-0.252,-0.912,-0.37,-0.43,-2.5,2,0
17093.031,-0.278,-0.246,-0.909,-0.73,-1.77,-2.35,2,0
17093.046,-0.28,-0.248,-0.914,-1.07,-3.27,-1.13,2,0
17093.062,-0.275,-0.254,-0.916,-0.98,-3.91,0.7,2,0
17093.062,-0.271,-0.252,-0.922,-0.52,-3.94,2.04,2,0
17093.078,-0.271,-0.259,-0.929,0.24,-3.66,3.75,2,0
17093.093,-0.267,-0.262,-0.93,1.5,-3.27,5.34,2,0
17093.093,-0.267,-0.255,-0.939,2.81,-3.02,6.23,2,0
17093.109,-0.263,-0.252,-0.948,2.81,-3.3,6.62,2,0
17093.125,-0.257,-0.251,-0.95,2.23,-3.27,6.41,2,0
17093.125,-0.257,-0.247,-0.948,1.98,-2.9,5.58,2,0
17093.14,-0.262,-0.25,-0.933,1.83,-2.5,5.19,2,0
17093.156,-0.269,-0.263,-0.934,2.44,-1.86,5.92,2,0
17093.156,-0.266,-0.264,-0.918,4.12,-0.7,7.17,2,0
17093.171,-0.263,-0.256,-0.92,5.58,-0.37,7.9,2,0
17093.171,-0.267,-0.253,-0.921,6.23,0.0,8.21,2,0
17093.187,-0.261,-0.245,-0.925,5.86,-0.15,7.81,2,0
17093.203,-0.26,-0.237,-0.93,4.73,-0.43,6.41,2,0
17093.203,-0.262,-0.234,-0.934,3.05,-0.98,4.7,2,0
17093.218,-0.265,-0.239,-0.937,1.83,-1.4,3.6,2,0
17093.234,-0.268,-0.24,-0.94,1.83,-1.28,2.87,2,0
17093.25,-0.271,-0.239,-0.945,1.65,-0.82,2.32,2,0
17093.25,-0.28,-0.241,-0.938,1.1,-0.31,1.74,2,0
17093.265,-0.287,-0.24,-0.928,1.16,-0.18,1.16,2,0
17093.265,-0.293,-0.237,-0.928,1.1,-0.67,1.01,2,0
17093.281,-0.291,-0.233,-0.93,0.4,-1.71,1.37,2,0
17093.296,-0.286,-0.229,-0.941,0.27,-2.26,1.98,2,0
17093.296,-0.284,-0.235,-0.945,0.34,-1.89,2.41,2,0
17093.312,-0.278,-0.24,-0.943,0.4,-1.07,3.17,2,0
17093.312,-0.29,-0.248,-0.932,1.28,-0.09,3.36,2,0
17093.328,-0.301,-0.248,-0.929,2.17,0.24,3.2,2,0
17093.343,-0.299,-0.248,-0.923,2.17,-0.06,3.36,2,0
17093.343,-0.299,-0.254,-0.918,2.26,-0.46,3.97,2,0
17093.359,-0.293,-0.26,-0.919,2.75,-0.79,4.67,2,0
17093.375,-0.285,-0.26,-0.92,3.3,-1.07,5.07,2,0
17093.375,-0.284,-0.264,-0.92,3.39,-0.92,5.04,2,0
17093.39,-0.282,-0.262,-0.921,3.2,-0.7,4.06,2,0
17093.406,-0.283,-0.263,-0.919,2.62,-0.61,2.41,2,0
17093.406,-0.285,-0.268,-0.917,1.89,-0.79,0.82,2,0
17093.421,-0.289,-0.271,-0.914,1.28,-1.04,-0.46,2,0
17093.421,-0.292,-0.264,-0.912,0.67,-1.4,-1.65,2,0
17093.437,-0.293,-0.258,-0.911,-0.06,-2.01,-2.44,2,0
17093.453,-0.294,-0.261,-0.917,-0.55,-2.75,-2.59,2,0
17093.468,-0.292,-0.262,-0.92,-0.12,-2.99,-2.44,2,0
17093.468,-0.29,-0.258,-0.923,0.43,-2.59,-1.8,2,0
17093.484,-0.289,-0.259,-0.921,0.76,-1.77,-1.34,2,0
17093.484,-0.293,-0.256,-0.92,1.19,-1.37,-1.16,2,0
17093.5,-0.294,-0.249,-0.92,1.01,-1.77,-1.1,2,0
17093.515,-0.293,-0.249,-0.922,0.31,-2.56,-1.13,2,0
17093.515,-0.291,-0.247,-0.923,-0.15,-3.57,-0.85,2,0
17093.531,-0.292,-0.253,-0.926,-0.67,-4.55,-0.06,2,0
17093.546,-0.291,-0.27,-0.928,-0.06,-4.94,1.74,2,0
17093.546,-0.285,-0.268,-0.932,2.26,-4.3,3.72,2,0
17093.562,-0.283,-0.263,-0.939,3.85,-3.14,4.7,2,0
17093.562,-0.276,-0.261,-0.94,3.75,-2.32,4.91,2,0
17093.578,-0.27,-0.257,-0.934,3.39,-1.31,4.12,2,0
17093.593,-0.273,-0.259,-0.927,2.93,-0.31,2.99,2,0
17093.593,-0.277,-0.263,-0.917,2.56,-0.18,2.08,2,0
17093.609,-0.273,-0.265,-0.916,2.78,-0.61,1.5,2,0
17093.625,-0.266,-0.259,-0.917,2.96,-0.82,1.43,2,0
17093.625,-0.259,-0.258,-0.919,2.84,-0.98,1.68,2,0
17093.64,-0.257,-0.259,-0.922,2.87,-0.73,1.98,2,0
17093.656,-0.256,-0.25,-0.929,2.99,-0.24,2.08,2,0
17093.656,-0.253,-0.245,-0.951,2.66,1.5,2.01,2,0
17093.671,-0.252,-0.257,-0.939,3.05,4.09,2.04,2,0
17093.687,-0.254,-0.262,-0.935,3.63,5.58,2.53,2,0
17093.687,-0.251,-0.27,-0.945,5.52,7.02,3.02,2,0
17093.703,-0.254,-0.264,-0.942,6.38,8.18,3.02,2,0
17093.703,-0.265,-0.258,-0.934,5.37,8.42,1.68,2,0
17093.718,-0.271,-0.261,-0.928,3.78,7.81,-0.52,2,0
17093.734,-0.275,-0.252,-0.919,2.08,6.74,-3.3,2,0
17093.734,-0.283,-0.237,-0.912,0.18,5.34,-5.92,2,0
17093.75,-0.287,-0.231,-0.902,-2.32,3.48,-7.35,2,0
17093.765,-0.287,-0.231,-0.894,-3.85,1.53,-7.02,2,0
17093.781,-0.293,-0.228,-0.897,-3.39,-0.06,-5.37,2,0
17093.781,-0.299,-0.224,-0.909,-1.83,-1.92,1.34,2,0
17093.796,-0.297,-0.229,-0.922,-0.55,-1.53,4.52,2,0
17093.796,-0.293,-0.237,-0.932,0.76,-0.21,6.74,2,0
17093.812,-0.28,-0.242,-0.935,1.8,1.59,7.93,2,0
17093.812,-0.282,-0.243,-0.925,1.89,2.99,8.24,2,0
17093.828,-0.284,-0.243,-0.92,1.25,3.14,8.36,2,0
17093.843,-0.282,-0.248,-0.911,0.46,2.32,8.33,2,0
17093.843,-0.285,-0.26,-0.909,0.37,1.07,8.73,2,0
17093.859,-0.282,-0.261,-0.91,0.73,-0.43,9.4,2,0
17093.875,-0.285,-0.263,-0.916,0.58,-1.95,9.34,2,0
17093.875,-0.289,-0.268,-0.931,0.0,-3.05,8.82,2,0
17093.89,-0.283,-0.271,-0.941,-0.49,-3.23,8.15,2,0
17093.906,-0.279,-0.267,-0.943,-0.67,-2.75,6.5,2,0
17093.906,-0.28,-0.255,-0.938,-1.53,-2.26,4.82,2,0
17093.921,-0.286,-0.248,-0.932,-3.08,-2.08,3.27,2,0
17093.921,-0.292,-0.248,-0.921,-3.97,-2.08,2.38,2,0
17093.937,-0.297,-0.259,-0.906,-3.91,-2.29,3.3,2,0
17093.953,-0.302,-0.27,-0.901,-2.5,-2.66,5.04,2,0
17093.953,-0.3,-0.27,-0.913,-0.79,-2.99,6.81,2,0
17093.968,-0.293,-0.269,-0.923,-0.03,-3.2,7.69,2,0
17093.984,-0.282,-0.272,-0.925,-0.52,-3.27,7.69,2,0
17094.0,-0.276,-0.275,-0.926,-0.64,-2.96,6.53,2,0
17094.0,-0.277,-0.27,-0.925,-0.98,-2.47,5.04,2,0
17094.015,-0.279,-0.273,-0.912,-1.65,-2.38,4.09,2,0
17094.015,-0.284,-0.274,-0.907,-1.68,-2.69,3.54,2,0
17094.031,-0.288,-0.268,-0.91,-1.74,-3.6,3.54,2,0
17094.046,-0.288,-0.269,-0.915,-1.71,-4.33,4.09,2,0
17094.046,-0.283,-0.273,-0.926,-0.58,-4.27,4.85,2,0
17094.062,-0.278,-0.271,-0.935,0.34,-3.48,6.01,2,0
17094.078,-0.277,-0.268,-0.939,0.85,-2.62,6.68,2,0
17094.078,-0.274,-0.267,-0.944,1.28,-1.86,6.23,2,0
17094.093,-0.276,-0.265,-0.943,1.04,-1.37,5.4,2,0
17094.093,-0.279,-0.265,-0.933,0.09,-1.34,4.15,2,0
17094.109,-0.282,-0.265,-0.925,-0.49,-1.68,3.02,2,0
17094.125,-0.287,-0.265,-0.931,-0.37,-1.95,2.32,2,0
17094.125,-0.291,-0.269,-0.928,-0.24,-1.56,2.29,2,0
17094.14,-0.292,-0.272,-0.923,0.09,-0.76,2.72,2,0
17094.156,-0.293,-0.279,-0.916,0.43,-0.15,2.99,2,0
17094.156,-0.296,-0.285,-0.907,0.85,-0.15,2.84,2,0
17094.171,-0.302,-0.284,-0.905,1.19,-1.04,2.32,2,0
17094.187,-0.31,-0.283,-0.907,0.98,-2.41,1.46,2,0
17094.187,-0.316,-0.282,-0.91,0.27,-3.97,0.06,2,0
17094.203,-0.319,-0.275,-0.917,-0.79,-5.52,-1.34,2,0
17094.203,-0.313,-0.267,-0.92,-2.35,-6.74,-2.69,2,0
17094.218,-0.314,-0.261,-0.92,-3.3,-7.81,-4.21,2,0
17094.234,-0.315,-0.24,-0.921,-4.85,-9.06,-5.58,2,0
17094.234,-0.318,-0.235,-0.92,-6.5,-10.19,-6.53,2,0
17094.25,-0.319,-0.229,-0.924,-7.02,-10.86,-6.99,2,0
17094.265,-0.315,-0.221,-0.929,-6.68,-9.98,-6.32,2,0
17094.265,-0.317,-0.233,-0.926,-5.37,-7.9,-4.67,2,0
17094.281,-0.313,-0.232,-0.918,-4.0,-6.04,-2.41,2,0
17094.296,-0.309,-0.235,-0.914,-2.29,-4.49,-0.15,2,0
17094.296,-0.307,-0.242,-0.908,-0.82,-3.42,1.8,2,0
17094.312,-0.306,-0.245,-0.907,0.31,-2.96,3.08,2,0
17094.312,-0.303,-0.248,-0.911,0.98,-3.17,3.75,2,0
17094.328,-0.29,-0.248,-0.918,1.01,-3.63,3.97,2,0
17094.343,-0.278,-0.254,-0.92,0.15,-3.45,3.3,2,0
17094.343,-0.271,-0.26,-0.922,-0.03,-2.75,2.08,2,0
17094.359,-0.269,-0.254,-0.925,0.09,-1.77,0.4,2,0
17094.375,-0.275,-0.249,-0.927,-0.7,-1.31,-1.68,2,0
17094.375,-0.279,-0.252,-0.919,-2.23,-1.31,-3.54,2,0
17094.39,-0.285,-0.257,-0.915,-2.62,-1.83,-4.73,2,0
17094.406,-0.287,-0.256,-0.914,-1.59,-2.32,-4.85,2,0
17094.406,-0.287,-0.242,-0.921,-0.37,-2.93,-4.58,2,0
17094.421,-0.289,-0.231,-0.934,-0.7,-3.51,-4.21,2,0
17094.421,-0.282,-0.231,-0.937,-1.86,-3.88,-3.78,2,0
17094.437,-0.277,-0.232,-0.94,-2.11,-3.63,-3.66,2,0
17094.453,-0.275,-0.225,-0.943,-1.92,-2.96,-3.48,2,0
17094.453,-0.274,-0.215,-0.939,-2.14,-2.14,-3.11,2,0
17094.468,-0.278,-0.21,-0.936,-2.59,-1.65,-2.62,2,0
17094.484,-0.285,-0.218,-0.927,-3.14,-1.56,-2.14,2,0
17094.484,-0.301,-0.227,-0.921,-3.05,-1.86,-1.31,2,0
17094.5,-0.315,-0.233,-0.926,-2.62,-2.69,-0.21,2,0
17094.515,-0.329,-0.244,-0.936,-2.53,-4.0,-0.06,2,0
17094.515,-0.342,-0.254,-0.95,-3.3,-4.73,-1.4,2,0
17094.531,-0.354,-0.26,-0.953,-4.67,-4.79,-3.97,2,0
17094.531,-0.36,-0.27,-0.936,-5.49,-4.18,-7.11,2,0
17094.546,-0.37,-0.27,-0.915,-5.22,-3.6,-10.04,2,0
17094.562,-0.371,-0.252,-0.894,-5.95,-4.24,-12.79,2,0
17094.578,-0.37,-0.235,-0.886,-7.05,-5.77,-15.23,2,0
17094.578,-0.362,-0.218,-0.871,-8.21,-7.54,-16.3,2,0
17094.593,-0.349,-0.218,-0.866,-8.79,-9.58,-15.84,2,0
17094.593,-0.332,-0.212,-0.872,-9.25,-11.9,-14.68,2,0
17094.609,-0.324,-0.219,-0.876,-10.07,-13.61,-12.27,2,0
17094.625,-0.321,-0.234,-0.882,-9.0,-14.59,-8.73,2,0
17094.625,-0.309,-0.241,-0.901,-6.16,-14.53,-4.55,2,0
17094.64,-0.3,-0.247,-0.917,-4.21,-13.46,-0.27,2,0
17094.656,-0.284,-0.257,-0.926,-2.66,-12.33,3.11,2,0
17094.656,-0.265,-0.264,-0.935,-0.95,-11.32,5.31,2,0
17094.671,-0.25,-0.271,-0.945,0.24,-10.19,6.1,2,0
17094.687,-0.229,-0.267,-0.949,0.46,-9.28,5.89,2,0
17094.687,-0.213,-0.271,-0.947,1.01,-7.54,4.24,2,0
17094.703,-0.212,-0.268,-0.946,0.12,-5.55,1.53,2,0
17094.703,-0.223,-0.269,-0.924,-1.62,-3.88,-2.56,2,0
17094.718,-0.237,-0.265,-0.915,-2.53,-2.99,-6.74,2,0
17094.734,-0.259,-0.242,-0.909,-3.75,-2.9,-10.5,2,0
17094.734,-0.268,-0.222,-0.904,-6.13,-4.43,-12.85,2,0
17094.75,-0.261,-0.227,-0.907,-8.0,-6.44,-13.61,2,0
17094.765,-0.257,-0.229,-0.927,-6.56,-8.24,-10.47,2,0
17094.765,-0.256,-0.226,-0.956,-5.25,-7.6,-7.57,2,0
17094.781,-0.253,-0.232,-0.981,-3.81,-5.19,-5.13,2,0
17094.781,-0.256,-0.245,-0.997,-2.26,-1.56,-4.43,2,0
17094.796,-0.28,-0.249,-0.996,-1.13,2.69,-6.13,2,0
17094.812,-0.307,-0.235,-0.971,-1.65,6.32,-8.33,2,0
17094.812,-0.333,-0.236,-0.934,-2.75,8.15,-9.74,2,0
17094.828,-0.359,-0.226,-0.908,-2.66,7.84,-10.01,2,0
17094.843,-0.377,-0.212,-0.896,-1.95,5.65,-8.88,2,0
17094.843,-0.381,-0.211,-0.897,-1.95,2.5,-6.9,2,0
17094.859,-0.377,-0.211,-0.918,-1.53,0.31,-5.34,2,0
17094.875,-0.374,-0.199,-0.936,-1.65,-0.21,-4.61,2,0
17094.875,-0.372,-0.204,-0.931,-2.81,0.79,-4.67,2,0
17094.89,-0.372,-0.213,-0.92,-3.05,2.14,-4.91,2,0
17094.906,-0.372,-0.205,-0.905,-2.26,2.69,-4.33,2,0
17094.906,-0.378,-0.201,-0.898,-2.01,1.71,-3.02,2,0
17094.921,-0.379,-0.197,-0.897,-2.11,-0.27,-0.52,2,0
17094.921,-0.367,-0.201,-0.906,-2.32,-2.44,2.53,2,0
17094.937,-0.352,-0.217,-0.917,-1.83,-3.57,4.91,2,0
17094.953,-0.343,-0.228,-0.928,-0.7,-3.08,6.26,2,0
17094.953,-0.341,-0.233,-0.928,-0.15,-1.59,6.47,2,0
17094.968,-0.337,-0.242,-0.92,-0.18,-0.34,6.13,2,0
17094.984,-0.33,-0.251,-0.906,-0.34,-0.24,5.34,2,0
17094.984,-0.33,-0.252,-0.902,-0.27,-1.4,4.15,2,0
17095.0,-0.326,-0.248,-0.905,-0.7,-3.3,3.14,2,0
17095.015,-0.319,-0.251,-0.91,-1.62,-4.91,2.29,2,0
17095.015,-0.312,-0.252,-0.919,-2.01,-5.89,1.5,2,0
17095.031,-0.304,-0.256,-0.931,-1.95,-5.89,0.73,2,0
17095.046,-0.294,-0.258,-0.935,-1.19,-4.64,0.43,2,0
17095.046,-0.29,-0.255,-0.932,0.15,-2.17,0.03,2,0
17095.062,-0.295,-0.252,-0.921,1.25,-0.12,-0.61,2,0
17095.062,-0.302,-0.243,-0.913,1.34,0.52,-1.71,2,0
17095.078,-0.302,-0.235,-0.91,0.61,-0.24,-2.66,2,0
17095.093,-0.3,-0.234,-0.907,-0.43,-1.8,-3.08,2,0
17095.093,-0.299,-0.23,-0.911,-0.98,-3.2,-2.66,2,0
17095.109,-0.302,-0.228,-0.917,-0.89,-3.78,-1.4,2,0
17095.125,-0.304,-0.233,-0.924,-0.15,-3.33,-0.21,2,0
17095.14,-0.305,-0.236,-0.933,0.95,-2.23,0.58,2,0
17095.14,-0.304,-0.237,-0.938,1.62,-0.92,0.89,2,0
17095.156,-0.307,-0.239,-0.938,1.92,0.21,0.76,2,0
17095.156,-0.307,-0.236,-0.935,2.23,0.79,0.27,2,0
17095.171,-0.308,-0.229,-0.937,2.26,0.95,-0.06,2,0
17095.187,-0.314,-0.224,-0.936,2.04,1.04,-0.15,2,0
17095.187,-0.316,-0.226,-0.928,2.2,0.95,0.34,2,0
17095.203,-0.315,-0.231,-0.924,2.96,0.89,1.22,2,0
17095.203,-0.315,-0.224,-0.927,3.91,1.16,1.98,2,0
17095.218,-0.314,-0.228,-0.922,4.09,1.71,2.59,2,0
17095.234,-0.316,-0.235,-0.918,3.69,2.38,2.2,2,0
17095.234,-0.323,-0.231,-0.916,3.39,2.69,0.82,2,0
17095.25,-0.325,-0.223,-0.912,2.08,2.5,-0.85,2,0
17095.265,-0.323,-0.225,-0.908,0.37,1.83,-2.08,2,0
17095.265,-0.32,-0.225,-0.904,-0.7,0.76,-2.75,2,0
17095.281,-0.322,-0.234,-0.903,-1.01,-0.12,-2.44,2,0
17095.296,-0.324,-0.238,-0.913,-0.37,-0.21,-1.74,2,0
17095.296,-0.321,-0.232,-0.919,0.37,0.15,-1.46,2,0
17095.312,-0.321,-0.233,-0.921,-0.03,0.61,-1.86,2,0
17095.312,-0.317,-0.231,-0.922,-0.67,1.01,-2.78,2,0
17095.328,-0.311,-0.223,-0.928,-1.04,1.1,-4.03,2,0
17095.343,-0.313,-0.216,-0.93,-2.11,0.82,-4.91,2,0
17095.343,-0.315,-0.217,-0.931,-3.11,0.24,-4.85,2,0
17095.359,-0.308,-0.22,-0.932,-2.75,0.15,-3.48,2,0
17095.375,-0.303,-0.224,-0.934,-1.71,0.49,-1.37,2,0
17095.375,-0.301,-0.235,-0.93,-0.18,1.46,0.64,2,0
17095.39,-0.301,-0.233,-0.928,1.31,2.81,1.71,2,0
17095.406,-0.299,-0.226,-0.925,1.31,3.3,1.46,2,0
17095.406,-0.302,-0.224,-0.916,-0.15,3.11,0.24,2,0
17095.421,-0.307,-0.223,-0.916,-1.22,2.69,-0.89,2,0
17095.437,-0.311,-0.225,-0.917,-1.95,2.23,-1.28,2,0
17095.437,-0.311,-0.232,-0.92,-1.89,1.83,-1.22,2,0
17095.453,-0.309,-0.232,-0.93,-0.98,2.04,-0.92,2,0
17095.453,-0.31,-0.228,-0.936,-0.89,3.02,-0.76,2,0
17095.468,-0.311,-0.227,-0.926,-1.16,4.03,-0.92,2,0
17095.484,-0.316,-0.226,-0.918,-1.04,4.39,-1.68,2,0
17095.484,-0.322,-0.217,-0.913,-1.22,3.75,-2.38,2,0
17095.5,-0.326,-0.214,-0.904,-1.86,2.32,-2.69,2,0
17095.515,-0.329,-0.22,-0.907,-2.29,0.82,-2.32,2,0
17095.515,-0.326,-0.223,-0.912,-2.14,-0.43,-0.92,2,0
17095.531,-0.324,-0.224,-0.917,-0.85,-0.49,0.73,2,0
17095.546,-0.32,-0.222,-0.919,0.58,0.15,1.92,2,0
17095.546,-0.315,-0.219,-0.921,0.95,0.7,2.44,2,0
17095.562,-0.316,-0.219,-0.922,0.46,0.92,1.74,2,0
17095.562,-0.318,-0.219,-0.92,-0.61,0.43,0.95,2,0
17095.578,-0.316,-0.226,-0.92,-1.28,-0.27,0.67,2,0
