timestamp,ax,ay,az,gx,gy,gz,orient_label,motion_label
17072.64,-0.422,-0.237,-0.881,1.77,-7.84,11.84,2,0
17072.656,-0.415,-0.238,-0.881,1.86,-8.09,13.58,2,0
17072.656,-0.42,-0.249,-0.905,2.23,-7.57,13.31,2,0
17072.671,-0.409,-0.254,-0.906,0.52,-6.38,11.66,2,0
17072.687,-0.4,-0.268,-0.903,-1.68,-4.49,7.75,2,0
17072.687,-0.401,-0.277,-0.895,-2.9,-2.23,2.84,2,0
17072.703,-0.395,-0.271,-0.884,-4.61,-1.1,-1.34,2,0
17072.703,-0.396,-0.266,-0.875,-6.81,-1.19,-5.28,2,0
17072.718,-0.399,-0.27,-0.865,-9.28,-2.17,-8.36,2,0
17072.734,-0.404,-0.27,-0.861,-10.53,-3.3,-10.16,2,0
17072.734,-0.404,-0.264,-0.865,-10.01,-4.12,-10.68,2,0
17072.75,-0.404,-0.252,-0.877,-8.42,-4.03,-10.38,2,0
17072.765,-0.404,-0.245,-0.88,-6.71,-3.27,-9.67,2,0
17072.765,-0.404,-0.249,-0.883,-5.07,-2.53,-8.18,2,0
17072.781,-0.403,-0.241,-0.89,-2.96,-1.62,-6.26,2,0
17072.796,-0.403,-0.232,-0.9,-0.85,-0.52,-4.73,2,0
17072.796,-0.405,-0.231,-0.902,-0.37,0.49,-4.27,2,0
17072.812,-0.402,-0.238,-0.905,-0.79,0.7,-4.58,2,0
17072.828,-0.401,-0.236,-0.906,-1.74,0.46,-5.1,2,0
17072.828,-0.405,-0.235,-0.905,-3.14,0.73,-5.58,2,0
17072.843,-0.411,-0.243,-0.897,-3.85,1.53,-6.2,2,0
17072.843,-0.413,-0.25,-0.885,-3.2,2.01,-6.65,2,0
17072.859,-0.414,-0.244,-0.882,-2.17,2.08,-6.81,2,0
17072.875,-0.415,-0.231,-0.881,-1.1,2.11,-6.71,2,0
17072.875,-0.414,-0.223,-0.879,-1.19,1.53,-6.38,2,0
17072.89,-0.42,-0.228,-0.88,-2.08,0.43,-6.38,2,0
17072.89,-0.416,-0.235,-0.888,-2.32,-0.76,-5.92,2,0
17072.906,-0.406,-0.23,-0.894,-1.71,-0.43,-4.39,2,0
17072.921,-0.398,-0.233,-0.895,-0.43,0.82,-3.05,2,0
17072.921,-0.402,-0.244,-0.884,0.64,1.83,-2.5,2,0
17072.937,-0.41,-0.244,-0.875,1.22,2.08,-2.32,2,0
17072.953,-0.411,-0.237,-0.875,1.13,1.37,-2.81,2,0
17072.953,-0.409,-0.238,-0.882,-0.12,0.55,-3.6,2,0
17072.968,-0.406,-0.245,-0.884,-1.43,0.12,-4.61,2,0
17072.984,-0.406,-0.242,-0.882,-2.08,-0.03,-5.98,2,0
17072.984,-0.412,-0.238,-0.882,-2.41,0.0,-6.84,2,0
17073.0,-0.414,-0.237,-0.872,-2.5,-0.06,-6.81,2,0
17073.015,-0.421,-0.24,-0.861,-2.29,-0.58,-6.44,2,0
17073.015,-0.427,-0.242,-0.858,-1.65,-1.65,-5.34,2,0
17073.031,-0.426,-0.232,-0.869,-0.58,-2.72,-3.69,2,0
17073.046,-0.421,-0.227,-0.881,0.0,-3.23,-2.32,2,0
17073.046,-0.419,-0.231,-0.89,-0.18,-3.23,-1.43,2,0
17073.062,-0.413,-0.233,-0.889,-0.06,-2.53,-0.76,2,0
17073.062,-0.412,-0.237,-0.884,1.04,-1.56,-0.09,2,0
17073.078,-0.411,-0.245,-0.876,2.08,-0.95,0.82,2,0
17073.093,-0.409,-0.253,-0.863,3.08,-1.07,1.8,2,0
17073.093,-0.412,-0.255,-0.864,3.78,-1.74,2.01,2,0
17073.109,-0.412,-0.252,-0.866,3.42,-2.72,1.53,2,0
17073.125,-0.408,-0.248,-0.865,0.92,-4.52,-0.76,2,0
17073.125,-0.404,-0.252,-0.859,0.34,-5.71,-2.17,2,0
17073.14,-0.406,-0.252,-0.85,0.09,-7.17,-2.84,2,0
17073.14,-0.411,-0.246,-0.84,0.27,-8.79,-2.53,2,0
17073.156,-0.417,-0.241,-0.819,1.16,-10.5,-2.01,2,0
17073.171,-0.424,-0.237,-0.8,2.9,-12.73,-1.22,2,0
17073.171,-0.428,-0.232,-0.778,5.25,-16.39,-0.49,2,0
17073.187,-0.437,-0.23,-0.751,7.54,-21.73,-0.21,2,0
17073.203,-0.453,-0.226,-0.727,9.67,-28.84,-0.15,2,0
17073.203,-0.469,-0.212,-0.696,11.17,-37.29,-0.43,2,0
17073.218,-0.49,-0.213,-0.681,13.25,-46.82,-0.79,2,0
17073.234,-0.512,-0.204,-0.682,14.04,-57.31,-0.34,2,0
17073.25,-0.527,-0.204,-0.686,16.11,-66.47,0.92,2,0
17073.25,-0.548,-0.208,-0.715,18.74,-73.89,2.56,2,0
17073.265,-0.551,-0.194,-0.79,19.78,-80.42,4.18,2,0
17073.265,-0.546,-0.179,-0.922,15.72,-81.82,3.94,2,0
17073.281,-0.538,-0.156,-0.968,4.79,-75.96,2.04,2,0
17073.296,-0.516,-0.166,-1.016,-5.62,-64.64,-0.58,2,0
17073.296,-0.496,-0.181,-1.026,-16.97,-49.78,-4.27,2,0
17073.312,-0.465,-0.215,-1.0,-25.51,-33.6,-8.48,2,0
17073.312,-0.449,-0.266,-0.954,-26.49,-17.49,-13.28,2,0
17073.328,-0.441,-0.279,-0.909,-21.91,-3.08,-17.15,2,0
17073.343,-0.439,-0.26,-0.858,-16.97,8.36,-19.29,2,0
17073.343,-0.438,-0.238,-0.8,-13.79,15.66,-19.38,2,0
17073.359,-0.436,-0.229,-0.752,-12.18,18.68,-17.64,2,0
17073.375,-0.441,-0.236,-0.707,-10.25,18.4,-15.14,2,0
17073.375,-0.428,-0.262,-0.695,-7.05,14.62,-13.0,2,0
17073.39,-0.396,-0.25,-0.72,-3.11,8.97,-13.55,2,0
17073.406,-0.372,-0.226,-0.79,-3.2,3.88,-15.78,2,0
17073.406,-0.339,-0.206,-0.836,-10.96,1.98,-18.56,2,0
17073.421,-0.312,-0.226,-0.866,-20.36,4.64,-22.34,2,0
17073.437,-0.298,-0.263,-0.868,-28.57,10.16,-26.52,2,0
17073.437,-0.287,-0.309,-0.838,-31.62,16.42,-30.37,2,0
17073.453,-0.301,-0.333,-0.827,-27.25,22.19,-32.32,2,0
17073.453,-0.313,-0.322,-0.823,-20.94,26.46,-31.71,2,0
17073.468,-0.32,-0.303,-0.826,-15.38,28.32,-30.27,2,0
17073.484,-0.34,-0.27,-0.869,-11.81,27.86,-29.3,2,0
17073.5,-0.357,-0.256,-0.883,-14.37,27.86,-30.79,2,0
17073.515,-0.378,-0.251,-0.898,-19.04,28.99,-33.81,2,0
17073.515,-0.374,-0.254,-0.891,-24.78,31.68,-36.93,2,0
17073.531,-0.365,-0.259,-0.872,-28.72,35.58,-39.64,2,0
17073.546,-0.376,-0.268,-0.851,-30.12,39.25,-41.32,2,0
17073.546,-0.375,-0.268,-0.838,-29.63,40.65,-40.74,2,0
17073.562,-0.395,-0.26,-0.836,-26.67,38.91,-39.95,2,0
17073.562,-0.428,-0.257,-0.841,-22.86,35.4,-38.85,2,0
17073.578,-0.459,-0.24,-0.868,-20.14,30.92,-38.64,2,0
17073.593,-0.465,-0.25,-0.9,-21.33,27.01,-39.22,2,0
17073.593,-0.44,-0.247,-0.921,-24.93,24.81,-42.91,2,0
17073.609,-0.435,-0.25,-0.928,-30.82,24.57,-49.47,2,0
17073.625,-0.418,-0.261,-0.917,-39.12,24.35,-56.34,2,0
17073.64,-0.379,-0.264,-0.888,-46.14,23.68,-61.1,2,0
17073.64,-0.35,-0.263,-0.859,-49.07,23.44,-62.53,2,0
17073.656,-0.342,-0.268,-0.834,-47.09,22.64,-60.0,2,0
17073.656,-0.358,-0.273,-0.831,-39.12,20.39,-53.9,2,0
17073.671,-0.386,-0.246,-0.86,-28.38,16.82,-45.93,2,0
17073.687,-0.401,-0.217,-0.907,-20.39,12.63,-36.59,2,0
17073.687,-0.401,-0.198,-0.956,-16.48,9.64,-26.98,2,0
17073.703,-0.392,-0.189,-0.982,-14.62,8.76,-19.47,2,0
17073.718,-0.386,-0.198,-0.999,-12.67,9.77,-14.53,2,0
17073.718,-0.37,-0.201,-0.996,-9.98,12.36,-11.96,2,0
17073.734,-0.357,-0.179,-0.983,-6.9,15.78,-10.19,2,0
17073.734,-0.359,-0.153,-0.958,-5.77,19.47,-7.26,2,0
17073.75,-0.352,-0.149,-0.923,-5.37,22.13,-2.17,2,0
17073.765,-0.332,-0.154,-0.885,-2.2,23.32,3.81,2,0
17073.765,-0.326,-0.148,-0.862,3.63,23.41,9.52,2,0
17073.781,-0.317,-0.147,-0.864,9.55,21.76,15.69,2,0
17073.796,-0.309,-0.153,-0.884,13.34,19.2,21.36,2,0
17073.796,-0.319,-0.165,-0.901,13.73,16.66,24.93,2,0
17073.812,-0.331,-0.184,-0.912,11.38,13.95,25.82,2,0
17073.812,-0.335,-0.204,-0.922,8.12,11.9,23.93,2,0
17073.828,-0.337,-0.213,-0.934,4.39,10.53,19.9,2,0
17073.843,-0.332,-0.208,-0.939,-0.12,9.77,15.38,2,0
17073.843,-0.319,-0.201,-0.938,-3.88,9.64,11.32,2,0
17073.859,-0.305,-0.206,-0.942,-4.91,9.8,8.85,2,0
17073.875,-0.303,-0.201,-0.942,-3.33,9.89,8.33,2,0
17073.875,-0.312,-0.193,-0.952,-0.49,9.28,9.7,2,0
17073.89,-0.323,-0.189,-0.972,2.01,8.73,12.51,2,0
17073.906,-0.332,-0.185,-0.992,3.88,8.64,15.26,2,0
17073.906,-0.338,-0.188,-1.01,4.85,8.91,17.06,2,0
17073.921,-0.322,-0.195,-1.018,5.68,9.83,17.55,2,0
17073.921,-0.315,-0.194,-1.026,6.84,11.81,16.63,2,0
17073.937,-0.311,-0.182,-1.029,7.17,13.76,14.37,2,0
17073.953,-0.316,-0.169,-1.03,5.77,15.2,11.57,2,0
17073.953,-0.335,-0.158,-1.02,2.2,15.5,8.97,2,0
17073.968,-0.351,-0.151,-0.999,-2.23,14.62,7.02,2,0
17073.984,-0.372,-0.173,-0.967,-6.44,10.99,6.87,2,0
17074.0,-0.377,-0.179,-0.955,-5.19,8.55,8.06,2,0
17074.015,-0.382,-0.181,-0.958,-3.02,6.13,9.77,2,0
17074.015,-0.388,-0.186,-0.966,-1.13,3.97,11.78,2,0
17074.031,-0.397,-0.193,-0.981,-0.03,2.2,13.86,2,0
17074.046,-0.387,-0.196,-0.997,-0.43,0.89,15.69,2,0
17074.046,-0.369,-0.204,-1.008,-0.85,0.7,16.54,2,0
17074.062,-0.353,-0.212,-1.01,-0.79,1.83,16.05,2,0
17074.062,-0.35,-0.213,-1.005,-1.01,3.39,15.23,2,0
17074.078,-0.349,-0.211,-0.995,-1.53,4.33,14.56,2,0
17074.093,-0.352,-0.203,-0.984,-2.38,4.7,13.82,2,0
17074.109,-0.353,-0.214,-0.968,-3.23,3.94,13.82,2,0
17074.109,-0.342,-0.225,-0.958,-1.19,0.55,16.08,2,0
17074.125,-0.332,-0.226,-0.957,1.53,-0.7,17.15,2,0
17074.125,-0.327,-0.222,-0.963,3.11,-1.28,18.31,2,0
17074.14,-0.333,-0.218,-0.975,2.69,-1.4,19.04,2,0
17074.156,-0.328,-0.226,-0.964,-0.34,0.0,18.43,2,0
17074.171,-0.313,-0.234,-0.953,-1.43,1.46,17.82,2,0
17074.171,-0.298,-0.235,-0.938,-1.74,2.69,16.97,2,0
17074.187,-0.284,-0.242,-0.925,-1.71,3.17,16.42,2,0
17074.203,-0.266,-0.255,-0.912,-0.98,3.02,16.14,2,0
17074.218,-0.263,-0.258,-0.906,0.43,2.26,15.35,2,0
17074.218,-0.266,-0.264,-0.902,1.37,1.07,14.01,2,0
17074.234,-0.265,-0.266,-0.906,1.56,-0.21,12.39,2,0
17074.234,-0.26,-0.263,-0.913,1.31,-1.16,10.35,2,0
17074.25,-0.262,-0.271,-0.914,0.92,-1.07,7.97,2,0
17074.265,-0.268,-0.266,-0.917,1.1,-0.12,5.28,2,0
17074.265,-0.276,-0.248,-0.922,0.43,0.85,2.11,2,0
17074.281,-0.289,-0.236,-0.924,-1.53,1.86,-1.31,2,0
17074.281,-0.291,-0.223,-0.923,-3.72,2.17,-4.61,2,0
17074.296,-0.292,-0.209,-0.92,-5.55,1.83,-7.57,2,0
17074.312,-0.296,-0.205,-0.919,-6.35,0.92,-8.94,2,0
17074.328,-0.3,-0.192,-0.931,-4.15,-1.74,-7.32,2,0
17074.343,-0.305,-0.187,-0.94,-2.87,-2.47,-6.1,2,0
17074.359,-0.305,-0.188,-0.951,-2.14,-2.62,-4.88,2,0
17074.359,-0.305,-0.188,-0.957,-1.53,-2.11,-4.36,2,0
17074.375,-0.309,-0.182,-0.96,-1.01,-1.31,-4.12,2,0
17074.375,-0.317,-0.176,-0.955,-0.73,-0.06,-3.54,2,0
17074.39,-0.315,-0.185,-0.949,-0.06,0.95,-2.32,2,0
17074.406,-0.312,-0.186,-0.946,0.92,1.59,-0.85,2,0
17074.406,-0.312,-0.181,-0.944,1.8,1.8,0.12,2,0
17074.421,-0.307,-0.18,-0.944,2.26,1.56,1.1,2,0
17074.437,-0.307,-0.188,-0.941,2.53,1.43,2.23,2,0
17074.437,-0.301,-0.194,-0.943,2.81,1.59,2.72,2,0
17074.453,-0.297,-0.193,-0.942,3.02,2.08,2.41,2,0
17074.453,-0.293,-0.196,-0.942,3.14,2.78,2.01,2,0
17074.468,-0.283,-0.201,-0.939,3.3,3.14,1.86,2,0
17074.484,-0.277,-0.198,-0.94,3.27,3.05,1.19,2,0
17074.5,-0.271,-0.191,-0.943,1.13,2.53,-1.13,2,0
17074.515,-0.269,-0.197,-0.942,-0.06,2.17,-2.72,2,0
17074.515,-0.265,-0.196,-0.944,-0.55,1.74,-4.49,2,0
17074.531,-0.257,-0.188,-0.95,-1.1,1.65,-5.92,2,0
17074.531,-0.25,-0.18,-0.955,-1.95,1.95,-6.71,2,0
17074.546,-0.248,-0.179,-0.955,-2.87,2.56,-7.48,2,0
17074.562,-0.247,-0.182,-0.948,-2.9,3.08,-8.0,2,0
17074.578,-0.251,-0.183,-0.944,-2.29,3.6,-7.72,2,0
17074.578,-0.257,-0.175,-0.941,-1.5,4.09,-6.99,2,0
17074.593,-0.266,-0.175,-0.935,-0.98,4.52,-6.44,2,0
17074.593,-0.281,-0.174,-0.928,-0.34,4.58,-6.16,2,0
17074.609,-0.29,-0.164,-0.924,0.4,4.52,-6.16,2,0
17074.625,-0.301,-0.156,-0.923,0.34,4.12,-5.92,2,0
17074.625,-0.315,-0.153,-0.92,0.03,3.33,-5.34,2,0
17074.64,-0.322,-0.157,-0.919,0.15,2.29,-4.27,2,0
17074.656,-0.32,-0.164,-0.924,1.22,1.28,-2.5,2,0
17074.671,-0.318,-0.168,-0.945,4.64,-0.4,0.61,2,0
17074.671,-0.311,-0.17,-0.957,5.28,-1.07,1.53,2,0
17074.687,-0.3,-0.171,-0.969,5.22,-1.31,1.98,2,0
17074.703,-0.294,-0.173,-0.98,4.7,-0.58,1.8,2,0
17074.703,-0.289,-0.178,-0.978,3.75,0.61,1.59,2,0
17074.718,-0.28,-0.183,-0.976,3.39,1.53,1.25,2,0
17074.734,-0.274,-0.18,-0.972,2.9,2.5,0.31,2,0
17074.734,-0.274,-0.179,-0.964,1.95,2.9,-0.7,2,0
17074.75,-0.274,-0.174,-0.954,0.15,2.56,-1.83,2,0
17074.765,-0.273,-0.175,-0.947,-1.71,1.83,-2.99,2,0
17074.765,-0.268,-0.175,-0.94,-3.11,0.82,-3.48,2,0
17074.781,-0.267,-0.183,-0.929,-3.42,0.18,-3.08,2,0
17074.781,-0.273,-0.191,-0.922,-2.32,-0.55,-2.04,2,0
17074.796,-0.273,-0.191,-0.926,-0.55,-1.1,-0.82,2,0
17074.812,-0.272,-0.186,-0.929,0.85,-1.25,-0.12,2,0
17074.812,-0.272,-0.18,-0.936,1.1,-0.64,0.34,2,0
17074.843,-0.258,-0.175,-0.935,-0.43,0.95,0.37,2,0
17074.843,-0.257,-0.177,-0.932,-0.95,1.62,0.09,2,0
17074.859,-0.258,-0.184,-0.925,-0.98,1.65,0.67,2,0
17074.875,-0.259,-0.186,-0.922,-0.31,1.01,1.74,2,0
17074.89,-0.257,-0.189,-0.926,0.85,0.27,2.59,2,0
17074.89,-0.257,-0.189,-0.933,1.98,-0.34,3.27,2,0
17074.89,-0.255,-0.189,-0.945,2.44,-0.58,3.91,2,0
17074.906,-0.256,-0.19,-0.952,2.01,-0.15,4.61,2,0
17074.921,-0.256,-0.192,-0.957,1.46,0.55,4.97,2,0
17074.921,-0.26,-0.192,-0.958,1.59,1.62,4.33,2,0
17074.937,-0.267,-0.191,-0.96,1.37,2.62,3.08,2,0
17074.953,-0.274,-0.19,-0.954,0.06,2.84,1.46,2,0
17074.968,-0.282,-0.198,-0.95,-1.43,2.2,-0.31,2,0
17074.968,-0.286,-0.2,-0.947,-2.14,1.56,-1.71,2,0
17074.984,-0.289,-0.207,-0.945,-2.26,0.58,-2.47,2,0
17074.984,-0.294,-0.205,-0.945,-2.26,-0.31,-3.54,2,0
17075.015,-0.305,-0.183,-0.948,-4.18,-1.68,-7.2,2,0
17075.015,-0.303,-0.179,-0.945,-5.62,-2.35,-8.3,2,0
17075.031,-0.3,-0.178,-0.946,-6.62,-3.11,-8.82,2,0
17075.046,-0.297,-0.172,-0.944,-6.78,-3.66,-8.55,2,0
17075.046,-0.294,-0.171,-0.945,-6.35,-3.75,-7.48,2,0
17075.062,-0.284,-0.173,-0.944,-5.52,-3.66,-5.68,2,0
17075.062,-0.279,-0.17,-0.95,-4.06,-3.45,-3.54,2,0
17075.078,-0.272,-0.166,-0.954,-2.78,-2.87,-1.95,2,0
17075.093,-0.269,-0.167,-0.956,-1.74,-1.22,1.37,2,0
17075.093,-0.267,-0.174,-0.952,-1.31,-0.61,2.81,2,0
17075.109,-0.273,-0.18,-0.947,-0.49,0.03,3.81,2,0
17075.125,-0.272,-0.193,-0.94,1.07,0.98,4.91,2,0
17075.125,-0.259,-0.209,-0.938,2.53,1.8,5.04,2,0
17075.14,-0.258,-0.204,-0.933,2.32,2.32,3.6,2,0
17075.156,-0.255,-0.204,-0.931,0.49,2.38,1.56,2,0
17075.156,-0.248,-0.204,-0.923,-1.5,1.95,-0.73,2,0
17075.187,-0.253,-0.208,-0.916,-5.49,-0.61,-6.74,2,0
17075.187,-0.257,-0.212,-0.914,-6.38,-1.74,-8.79,2,0
17075.203,-0.26,-0.209,-0.918,-6.44,-2.62,-9.7,2,0
17075.203,-0.267,-0.204,-0.925,-5.8,-3.27,-10.1,2,0
17075.218,-0.273,-0.195,-0.932,-4.97,-3.51,-10.25,2,0
17075.234,-0.272,-0.184,-0.939,-4.49,-3.27,-10.32,2,0
17075.234,-0.273,-0.174,-0.942,-4.21,-2.78,-10.25,2,0
17075.25,-0.276,-0.17,-0.944,-4.0,-2.69,-10.04,2,0
17075.265,-0.278,-0.168,-0.949,-3.6,-2.72,-9.4,2,0
17075.265,-0.277,-0.168,-0.953,-2.75,-2.59,-8.36,2,0
17075.281,-0.279,-0.17,-0.956,-1.95,-2.47,-7.69,2,0
17075.296,-0.282,-0.168,-0.957,-1.83,-2.41,-7.11,2,0
17075.296,-0.285,-0.17,-0.962,-1.89,-2.38,-6.74,2,0
17075.312,-0.287,-0.169,-0.962,-2.23,-2.53,-6.68,2,0
17075.328,-0.288,-0.168,-0.957,-2.81,-2.81,-6.56,2,0
17075.328,-0.285,-0.172,-0.954,-2.9,-3.42,-6.74,2,0
17075.343,-0.288,-0.171,-0.956,-3.66,-5.68,-7.11,2,0
17075.359,-0.289,-0.176,-0.959,-4.27,-6.78,-6.62,2,0
17075.375,-0.279,-0.184,-0.961,-4.27,-7.17,-5.8,2,0
17075.375,-0.261,-0.197,-0.963,-2.93,-7.14,-4.73,2,0
17075.39,-0.246,-0.192,-0.978,-0.61,-6.07,-3.94,2,0
17075.406,-0.24,-0.182,-0.984,0.85,-4.21,-3.08,2,0
17075.406,-0.239,-0.179,-0.981,0.43,-2.17,-2.75,2,0
17075.421,-0.239,-0.182,-0.973,-0.12,-0.24,-2.87,2,0
17075.421,-0.24,-0.184,-0.96,-0.67,0.89,-3.36,2,0
17075.437,-0.24,-0.184,-0.95,-1.31,1.13,-4.06,2,0
17075.453,-0.242,-0.18,-0.944,-1.89,0.55,-4.58,2,0
17075.453,-0.25,-0.181,-0.938,-2.5,-0.52,-4.88,2,0
17075.468,-0.253,-0.188,-0.935,-2.75,-1.59,-4.73,2,0
17075.484,-0.252,-0.199,-0.935,-1.74,-2.47,-4.12,2,0
17075.484,-0.256,-0.198,-0.938,0.06,-2.62,-3.85,2,0
17075.5,-0.267,-0.196,-0.951,1.92,-2.32,-3.85,2,0
17075.515,-0.263,-0.182,-0.964,2.01,-1.16,-3.78,2,0
17075.531,-0.267,-0.178,-0.966,1.16,-0.31,-4.49,2,0
17075.546,-0.268,-0.173,-0.963,-0.24,0.03,-5.43,2,0
17075.546,-0.266,-0.163,-0.958,-1.4,-0.4,-6.07,2,0
17075.562,-0.27,-0.158,-0.954,-2.14,-1.25,-6.35,2,0
17075.562,-0.274,-0.154,-0.952,-2.62,-2.08,-5.8,2,0
17075.578,-0.276,-0.158,-0.947,-2.59,-2.93,-4.3,2,0
17075.593,-0.273,-0.172,-0.944,-1.07,-3.51,-1.98,2,0
17075.593,-0.267,-0.174,-0.949,1.62,-3.3,-0.03,2,0
17075.609,-0.269,-0.17,-0.957,3.72,-2.5,1.31,2,0
17075.625,-0.268,-0.167,-0.959,4.21,-1.43,2.11,2,0
17075.625,-0.263,-0.167,-0.956,3.91,-0.21,2.75,2,0
17075.64,-0.261,-0.173,-0.948,3.23,1.1,2.72,2,0
17075.656,-0.256,-0.177,-0.939,2.69,1.74,2.23,2,0
17075.656,-0.253,-0.174,-0.931,2.38,1.65,1.53,2,0
17075.671,-0.255,-0.171,-0.926,1.83,0.76,0.82,2,0
17075.687,-0.253,-0.174,-0.93,1.37,-1.95,0.27,2,0
17075.703,-0.257,-0.171,-0.935,1.19,-2.81,0.37,2,0
17075.703,-0.259,-0.172,-0.942,1.04,-3.14,0.61,2,0
17075.718,-0.253,-0.169,-0.953,1.07,-3.08,0.79,2,0
17075.734,-0.25,-0.165,-0.962,1.19,-2.2,0.67,2,0
17075.734,-0.251,-0.16,-0.967,0.76,-0.92,0.73,2,0
17075.75,-0.248,-0.16,-0.959,-0.31,0.24,0.73,2,0
17075.765,-0.256,-0.164,-0.949,-0.61,1.25,0.46,2,0
17075.781,-0.264,-0.163,-0.942,-0.52,1.5,0.61,2,0
17075.781,-0.265,-0.158,-0.933,0.06,1.04,1.43,2,0
17075.781,-0.264,-0.158,-0.93,0.98,0.27,2.5,2,0
17075.796,-0.259,-0.158,-0.934,1.62,-0.67,3.66,2,0
17075.812,-0.253,-0.158,-0.94,2.04,-1.43,4.61,2,0
17075.812,-0.25,-0.159,-0.951,2.2,-1.68,5.1,2,0
17075.828,-0.246,-0.165,-0.96,1.92,-1.13,5.31,2,0
17075.843,-0.245,-0.172,-0.964,1.74,0.06,4.88,2,0
17075.859,-0.251,-0.165,-0.965,0.34,2.04,2.56,2,0
17075.875,-0.255,-0.166,-0.96,-1.8,2.14,1.13,2,0
17075.875,-0.257,-0.172,-0.952,-3.72,1.43,-0.24,2,0
17075.89,-0.259,-0.176,-0.947,-4.76,0.58,-1.5,2,0
17075.906,-0.257,-0.18,-0.946,-4.58,-0.34,-1.98,2,0
17075.906,-0.255,-0.175,-0.949,-4.18,-0.95,-1.77,2,0
17075.921,-0.254,-0.171,-0.954,-3.94,-1.1,-1.77,2,0
17075.921,-0.257,-0.173,-0.96,-3.72,-0.95,-1.95,2,0
17075.937,-0.257,-0.166,-0.965,-3.36,-0.4,-2.14,2,0
17075.953,-0.255,-0.163,-0.965,-3.39,0.89,-2.32,2,0
17075.953,-0.254,-0.164,-0.963,-3.3,2.38,-2.01,2,0
17075.968,-0.259,-0.156,-0.956,-3.08,3.17,-1.53,2,0
17075.984,-0.268,-0.151,-0.953,-3.23,3.17,-0.67,2,0
17075.984,-0.28,-0.157,-0.944,-3.42,2.75,0.55,2,0
17076.0,-0.291,-0.159,-0.939,-2.69,2.11,2.14,2,0
17076.015,-0.301,-0.158,-0.936,-1.53,1.07,3.91,2,0
17076.031,-0.307,-0.159,-0.941,1.56,-1.31,8.06,2,0
17076.031,-0.309,-0.162,-0.95,3.05,-1.68,9.95,2,0
17076.046,-0.313,-0.17,-0.955,4.36,-1.37,11.6,2,0
17076.062,-0.32,-0.174,-0.952,5.52,-0.58,13.4,2,0
17076.078,-0.325,-0.184,-0.948,6.84,-0.06,15.23,2,0
17076.078,-0.314,-0.191,-0.95,9.06,-1.46,18.22,2,0
17076.093,-0.298,-0.19,-0.952,9.46,-2.47,18.8,2,0
17076.093,-0.282,-0.194,-0.962,8.79,-3.11,18.8,2,0
17076.109,-0.238,-0.211,-0.99,7.35,-2.99,17.67,2,0
17076.125,-0.228,-0.219,-0.991,5.13,-1.95,14.83,2,0
17076.125,-0.229,-0.228,-0.986,2.04,-0.61,11.6,2,0
17076.14,-0.23,-0.237,-0.972,-1.04,0.95,8.58,2,0
17076.14,-0.229,-0.244,-0.955,-3.63,2.26,5.62,2,0
17076.156,-0.23,-0.246,-0.934,-4.91,3.08,3.36,2,0
17076.171,-0.235,-0.239,-0.916,-4.64,3.3,2.29,2,0
17076.187,-0.242,-0.23,-0.904,-3.17,2.96,2.08,2,0
17076.203,-0.251,-0.214,-0.903,0.67,1.43,3.72,2,0
17076.203,-0.252,-0.205,-0.907,2.44,0.55,4.55,2,0
17076.218,-0.25,-0.196,-0.918,3.6,-0.21,4.91,2,0
17076.234,-0.246,-0.191,-0.934,4.12,-0.55,4.85,2,0
17076.234,-0.245,-0.186,-0.948,3.91,-0.55,4.58,2,0
17076.25,-0.248,-0.182,-0.955,3.23,0.15,4.36,2,0
17076.265,-0.25,-0.178,-0.957,2.69,1.04,4.21,2,0
17076.265,-0.255,-0.181,-0.957,2.44,1.56,4.46,2,0
17076.281,-0.257,-0.175,-0.955,3.05,1.86,5.22,2,0
17076.281,-0.263,-0.173,-0.957,4.39,2.32,6.38,2,0
17076.296,-0.265,-0.172,-0.955,5.65,2.78,7.84,2,0
17076.312,-0.263,-0.175,-0.956,7.2,3.42,9.22,2,0
17076.312,-0.265,-0.173,-0.963,8.61,3.97,9.74,2,0
17076.328,-0.267,-0.165,-0.967,8.85,4.64,9.92,2,0
17076.343,-0.27,-0.162,-0.968,7.32,5.28,9.37,2,0
17076.359,-0.271,-0.167,-0.959,4.79,5.65,8.3,2,0
17076.375,-0.266,-0.175,-0.942,1.28,4.55,5.58,2,0
17076.375,-0.265,-0.172,-0.937,0.89,3.48,5.13,2,0
17076.39,-0.262,-0.169,-0.938,0.67,2.26,5.07,2,0
17076.406,-0.266,-0.168,-0.94,0.52,1.22,5.25,2,0
17076.406,-0.271,-0.172,-0.944,0.46,0.34,5.46,2,0
17076.421,-0.273,-0.174,-0.954,0.92,0.15,5.52,2,0
17076.421,-0.273,-0.169,-0.965,0.98,0.67,5.71,2,0
17076.437,-0.264,-0.173,-0.964,0.31,2.17,5.89,2,0
17076.453,-0.261,-0.182,-0.959,-0.18,4.15,5.86,2,0
17076.453,-0.256,-0.184,-0.946,-0.03,5.46,5.68,2,0
17076.468,-0.256,-0.181,-0.935,0.52,5.55,5.49,2,0
17076.484,-0.263,-0.18,-0.927,0.85,4.76,5.4,2,0
17076.484,-0.266,-0.178,-0.925,0.7,3.45,5.04,2,0
17076.5,-0.261,-0.176,-0.929,0.49,1.8,4.79,2,0
17076.515,-0.256,-0.177,-0.936,0.09,0.4,4.12,2,0
17076.515,-0.251,-0.178,-0.949,-0.49,-0.15,3.3,2,0
17076.531,-0.247,-0.174,-0.966,-2.75,1.01,1.95,2,0
17076.546,-0.252,-0.184,-0.961,-4.0,2.26,1.16,2,0
17076.562,-0.258,-0.19,-0.953,-4.33,3.57,0.43,2,0
17076.578,-0.268,-0.191,-0.942,-3.97,4.36,0.0,2,0
17076.578,-0.273,-0.191,-0.934,-2.78,4.52,-0.18,2,0
17076.593,-0.278,-0.185,-0.928,-1.8,4.06,-0.09,2,0
17076.593,-0.281,-0.184,-0.925,-1.28,2.96,-0.27,2,0
17076.609,-0.28,-0.182,-0.93,-1.04,1.62,-0.61,2,0
17076.625,-0.283,-0.178,-0.936,-1.62,0.24,-0.98,2,0
17076.625,-0.284,-0.179,-0.938,-2.62,-0.7,-1.5,2,0
17076.64,-0.28,-0.186,-0.943,-3.27,-1.19,-1.71,2,0
17076.656,-0.277,-0.188,-0.946,-3.23,-1.07,-1.74,2,0
17076.656,-0.281,-0.186,-0.944,-2.69,-0.79,-1.71,2,0
17076.671,-0.286,-0.179,-0.95,-1.98,-0.73,-1.68,2,0
17076.671,-0.284,-0.171,-0.95,-1.89,-1.07,-1.37,2,0
17076.687,-0.283,-0.167,-0.95,-2.14,-1.74,-1.1,2,0
17076.703,-0.271,-0.166,-0.959,-1.53,-3.02,0.18,2,0
17076.718,-0.265,-0.173,-0.961,-1.04,-2.75,1.34,2,0
17076.734,-0.261,-0.183,-0.96,-0.15,-2.29,2.59,2,0
17076.734,-0.253,-0.193,-0.956,0.85,-1.65,3.66,2,0
17076.75,-0.245,-0.203,-0.957,2.11,-1.13,4.39,2,0
17076.765,-0.236,-0.201,-0.963,2.81,-0.89,4.24,2,0
17076.765,-0.23,-0.189,-0.966,1.37,-0.58,2.99,2,0
17076.781,-0.232,-0.193,-0.961,-1.31,-0.52,1.07,2,0
17076.796,-0.234,-0.2,-0.955,-3.85,-0.89,-1.28,2,0
17076.796,-0.233,-0.203,-0.945,-5.74,-1.77,-3.72,2,0
17076.812,-0.228,-0.213,-0.941,-6.13,-2.66,-5.74,2,0
17076.812,-0.225,-0.219,-0.94,-4.49,-3.14,-6.62,2,0
17076.828,-0.225,-0.216,-0.949,-1.98,-2.75,-6.81,2,0
17076.843,-0.227,-0.203,-0.962,-0.27,-1.92,-7.02,2,0
17076.843,-0.231,-0.187,-0.967,-0.46,-0.31,-7.57,2,0
17076.859,-0.237,-0.181,-0.965,-1.71,1.28,-8.55,2,0
17076.875,-0.24,-0.166,-0.953,-4.88,1.8,-11.44,2,0
17076.89,-0.243,-0.162,-0.946,-5.95,0.55,-12.21,2,0
17076.906,-0.247,-0.163,-0.941,-5.98,-1.13,-12.12,2,0
17076.906,-0.249,-0.166,-0.943,-4.94,-2.69,-11.14,2,0
17076.921,-0.247,-0.17,-0.951,-3.02,-3.54,-9.52,2,0
17076.937,-0.244,-0.172,-0.961,-0.49,-3.39,-7.35,2,0
17076.937,-0.241,-0.173,-0.973,1.5,-2.44,-5.37,2,0
17076.953,-0.242,-0.172,-0.976,2.75,-0.58,-4.36,2,0
17076.953,-0.24,-0.169,-0.97,3.11,1.56,-4.27,2,0
17076.968,-0.243,-0.17,-0.962,3.14,2.75,-4.85,2,0
17076.984,-0.238,-0.169,-0.958,2.9,2.62,-5.31,2,0
17076.984,-0.237,-0.165,-0.956,2.29,1.5,-5.89,2,0
17077.0,-0.234,-0.162,-0.959,1.65,-0.24,-6.84,2,0
17077.015,-0.237,-0.157,-0.965,1.19,-1.98,-7.66,2,0
17077.015,-0.239,-0.149,-0.978,0.18,-3.05,-7.84,2,0
17077.031,-0.237,-0.144,-0.99,-1.31,-2.99,-7.66,2,0
17077.046,-0.23,-0.152,-0.988,-2.72,0.27,-7.17,2,0
17077.062,-0.229,-0.156,-0.98,0.34,3.81,-5.46,2,0
17077.062,-0.228,-0.151,-0.97,1.83,4.7,-4.18,2,0
17077.078,-0.227,-0.146,-0.957,2.93,4.46,-2.69,2,0
17077.093,-0.222,-0.152,-0.946,3.51,3.36,-1.62,2,0
17077.093,-0.221,-0.148,-0.949,4.15,1.92,-1.4,2,0
17077.109,-0.222,-0.142,-0.959,3.72,0.4,-1.56,2,0
17077.125,-0.222,-0.141,-0.974,2.29,-0.61,-1.68,2,0
17077.125,-0.217,-0.139,-0.982,0.06,-0.82,-2.26,2,0
17077.14,-0.216,-0.143,-0.987,-1.59,-0.15,-3.2,2,0
17077.156,-0.214,-0.151,-0.988,-2.26,1.01,-3.45,2,0
17077.156,-0.211,-0.15,-0.988,-1.83,1.89,-2.75,2,0
17077.171,-0.205,-0.143,-0.99,-0.79,2.5,-1.5,2,0
17077.171,-0.201,-0.149,-0.988,0.18,2.78,0.18,2,0
17077.187,-0.201,-0.153,-0.989,1.16,3.23,2.29,2,0
17077.203,-0.197,-0.153,-0.995,2.35,3.97,3.88,2,0
17077.218,-0.211,-0.165,-0.983,2.32,6.65,4.58,2,0
17077.234,-0.218,-0.171,-0.969,1.34,7.87,3.78,2,0
17077.234,-0.225,-0.171,-0.956,0.34,8.36,2.35,2,0
17077.25,-0.234,-0.17,-0.942,-0.89,8.27,1.01,2,0
17077.265,-0.245,-0.169,-0.928,-1.74,7.42,0.34,2,0
17077.265,-0.25,-0.166,-0.915,-2.23,6.07,0.24,2,0
17077.281,-0.254,-0.169,-0.91,-2.04,4.52,0.49,2,0
17077.296,-0.255,-0.173,-0.91,-1.13,2.9,1.37,2,0
17077.296,-0.257,-0.171,-0.917,0.09,1.5,2.32,2,0
17077.312,-0.259,-0.166,-0.929,0.79,0.34,3.05,2,0
17077.312,-0.257,-0.167,-0.943,0.89,-0.15,3.27,2,0
17077.328,-0.256,-0.168,-0.951,0.67,0.21,3.11,2,0
17077.343,-0.253,-0.168,-0.954,0.0,1.13,2.78,2,0
17077.343,-0.254,-0.17,-0.949,-0.64,2.2,2.56,2,0
17077.359,-0.252,-0.165,-0.945,-0.67,2.56,2.84,2,0
17077.375,-0.25,-0.16,-0.941,-0.7,2.41,3.51,2,0
17077.39,-0.246,-0.168,-0.932,-0.21,1.34,4.33,2,0
17077.406,-0.25,-0.17,-0.928,0.64,0.34,5.01,2,0
17077.406,-0.255,-0.171,-0.928,1.4,-0.73,5.74,2,0
17077.421,-0.255,-0.169,-0.93,1.62,-1.59,6.13,2,0
17077.421,-0.254,-0.172,-0.935,1.19,-2.11,5.92,2,0
17077.437,-0.248,-0.174,-0.939,1.01,-2.35,5.65,2,0
17077.453,-0.24,-0.168,-0.945,1.04,-2.53,5.62,2,0
17077.468,-0.234,-0.161,-0.952,0.61,-2.47,5.43,2,0
17077.468,-0.226,-0.164,-0.954,-0.27,-2.32,5.43,2,0
17077.484,-0.221,-0.171,-0.958,-0.76,-2.01,5.37,2,0
17077.484,-0.223,-0.175,-0.957,-0.92,-1.71,5.01,2,0
17077.5,-0.23,-0.178,-0.953,-1.07,-1.71,4.67,2,0
17077.515,-0.232,-0.184,-0.954,-1.07,-1.74,4.46,2,0
17077.515,-0.229,-0.182,-0.953,-1.22,-1.86,4.03,2,0
17077.531,-0.235,-0.18,-0.95,-1.62,-1.95,3.02,2,0
17077.546,-0.238,-0.181,-0.95,-2.04,-2.32,2.2,2,0
17077.562,-0.239,-0.169,-0.95,-3.08,-3.2,0.58,2,0
17077.562,-0.243,-0.168,-0.948,-3.91,-3.75,0.37,2,0
17077.578,-0.238,-0.171,-0.95,-3.88,-4.39,0.61,2,0
17077.593,-0.233,-0.17,-0.954,-3.02,-4.76,1.25,2,0
17077.593,-0.232,-0.166,-0.958,-2.29,-4.88,2.14,2,0
17077.609,-0.231,-0.165,-0.967,-1.86,-4.94,3.08,2,0
17077.625,-0.223,-0.171,-0.976,-1.22,-4.52,3.94,2,0
17077.625,-0.22,-0.171,-0.983,-0.52,-3.48,4.24,2,0
17077.64,-0.223,-0.172,-0.98,-0.37,-2.11,4.03,2,0
17077.656,-0.223,-0.177,-0.974,-0.43,-1.1,3.78,2,0
17077.656,-0.217,-0.179,-0.968,-0.76,-0.46,3.36,2,0
17077.671,-0.218,-0.181,-0.964,-1.25,-0.4,2.84,2,0
17077.687,-0.216,-0.187,-0.95,-1.43,-1.31,2.14,2,0
17077.687,-0.227,-0.19,-0.965,-1.53,-2.87,1.46,2,0
17077.703,-0.221,-0.173,-0.959,-2.26,-3.6,1.37,2,0
17077.703,-0.218,-0.185,-0.97,-2.17,-3.33,1.1,2,0
17077.734,-0.223,-0.185,-0.972,-1.56,-2.41,0.4,2,0
17077.734,-0.222,-0.18,-0.977,-0.61,-1.4,-0.12,2,0
17077.75,-0.227,-0.181,-0.972,-0.79,-0.58,-0.46,2,0
17077.765,-0.235,-0.178,-0.969,-1.04,-0.43,-0.82,2,0
17077.765,-0.233,-0.175,-0.966,-1.34,-0.7,-1.19,2,0
17077.781,-0.228,-0.173,-0.969,-1.68,-1.07,-1.4,2,0
17077.781,-0.232,-0.171,-0.967,-2.04,-1.28,-1.28,2,0
17077.796,-0.234,-0.171,-0.968,-2.01,-1.37,-0.98,2,0
17077.812,-0.231,-0.177,-0.969,-1.13,-1.16,-0.55,2,0
17077.812,-0.231,-0.181,-0.966,-0.21,-0.82,-0.31,2,0
17077.828,-0.24,-0.18,-0.961,0.52,-0.46,-0.12,2,0
17077.843,-0.245,-0.181,-0.96,1.16,-0.34,-0.15,2,0
17077.843,-0.239,-0.183,-0.966,1.43,-0.61,-0.52,2,0
17077.859,-0.233,-0.174,-0.972,1.04,-0.79,-1.07,2,0
17077.875,-0.228,-0.168,-0.975,-0.27,-0.43,-1.62,2,0
17077.875,-0.223,-0.17,-0.974,-1.8,0.09,-2.35,2,0
17077.906,-0.221,-0.181,-0.958,-2.78,1.16,-2.99,2,0
17077.906,-0.217,-0.188,-0.951,-1.43,1.1,-2.75,2,0
17077.921,-0.213,-0.188,-0.953,0.34,0.92,-2.32,2,0
17077.921,-0.216,-0.181,-0.958,1.28,0.92,-2.2,2,0
17077.937,-0.222,-0.179,-0.958,1.22,0.92,-2.69,2,0
17077.953,-0.226,-0.174,-0.958,0.4,0.95,-3.81,2,0
17077.953,-0.233,-0.17,-0.952,-0.82,0.79,-5.19,2,0
17077.968,-0.24,-0.165,-0.948,-1.92,0.4,-6.29,2,0
17077.984,-0.241,-0.155,-0.951,-2.56,-0.31,-6.93,2,0
17078.0,-0.239,-0.153,-0.951,-3.39,-1.25,-7.11,2,0
17078.0,-0.235,-0.157,-0.955,-3.48,-2.04,-6.53,2,0
17078.015,-0.23,-0.154,-0.96,-2.2,-2.01,-5.52,2,0
17078.015,-0.229,-0.153,-0.968,-0.82,-1.43,-4.33,2,0
17078.031,-0.23,-0.151,-0.973,0.27,-0.49,-2.99,2,0
17078.046,-0.227,-0.146,-0.975,1.68,1.98,-0.46,2,0
17078.046,-0.231,-0.144,-0.975,1.28,2.66,-0.24,2,0
17078.078,-0.234,-0.144,-0.967,-1.07,2.69,-1.19,2,0
17078.078,-0.234,-0.143,-0.968,-3.11,2.35,-1.92,2,0
17078.093,-0.229,-0.155,-0.968,-4.15,2.41,-2.38,2,0
17078.093,-0.224,-0.154,-0.975,-3.88,2.72,-2.75,2,0
17078.109,-0.227,-0.153,-0.996,-2.53,4.12,-2.87,2,0
17078.125,-0.228,-0.161,-0.991,-1.16,7.02,-2.66,2,0
17078.125,-0.22,-0.154,-0.991,-2.41,8.55,-2.29,2,0
17078.14,-0.218,-0.155,-1.05,-2.47,12.3,-2.69,2,0
17078.156,-0.211,-0.177,-1.08,-0.24,20.6,-3.69,2,0
17078.156,-0.184,-0.169,-1.105,2.62,30.67,-4.94,2,0
17078.171,-0.163,-0.169,-1.143,6.1,44.1,-7.05,2,0
17078.171,-0.151,-0.16,-1.108,6.1,59.91,-10.16,2,0
17078.187,-0.13,-0.168,-1.044,4.88,70.77,-12.88,2,0
17078.203,-0.137,-0.174,-0.995,2.93,74.86,-16.08,2,0
17078.203,-0.146,-0.167,-0.965,0.85,73.67,-18.8,2,0
17078.218,-0.157,-0.162,-0.94,-1.92,69.09,-20.6,2,0
17078.25,-0.141,-0.15,-0.908,-8.79,49.53,-22.13,2,0
17078.25,-0.137,-0.16,-0.924,-9.58,42.21,-22.89,2,0
17078.265,-0.129,-0.17,-0.964,-9.34,37.48,-22.98,2,0
17078.265,-0.102,-0.154,-0.995,-9.4,36.19,-22.8,2,0
17078.281,-0.088,-0.146,-1.018,-10.25,37.78,-22.92,2,0
17078.296,-0.074,-0.147,-1.004,-12.21,39.95,-22.92,2,0
17078.296,-0.071,-0.147,-0.982,-12.57,41.05,-22.37,2,0
17078.312,-0.072,-0.148,-0.971,-11.44,40.68,-20.33,2,0
17078.312,-0.066,-0.144,-0.964,-8.61,39.31,-17.61,2,0
17078.328,-0.066,-0.133,-0.959,-5.25,37.2,-14.1,2,0
17078.343,-0.065,-0.129,-0.947,-2.59,34.3,-10.04,2,0
17078.343,-0.061,-0.127,-0.949,-0.61,30.3,-6.56,2,0
17078.359,-0.06,-0.123,-0.946,1.01,26.67,-3.48,2,0
17078.375,-0.065,-0.127,-0.937,1.37,22.55,-0.85,2,0
17078.39,-0.064,-0.141,-0.938,1.28,17.91,0.58,2,0
17078.39,-0.063,-0.154,-0.95,2.29,13.82,0.58,2,0
17078.406,-0.064,-0.15,-0.963,1.56,10.93,-0.31,2,0
17078.406,-0.056,-0.147,-0.982,-1.01,8.48,-1.5,2,0
17078.421,-0.048,-0.155,-0.986,-3.78,7.05,-2.72,2,0
17078.437,-0.042,-0.157,-0.982,-5.28,6.59,-3.33,2,0
17078.437,-0.037,-0.154,-0.965,-4.94,6.26,-2.53,2,0
17078.453,-0.035,-0.158,-0.962,-2.75,5.1,-1.25,2,0
17078.453,-0.041,-0.153,-0.965,-0.34,3.66,0.7,2,0
17078.468,-0.042,-0.155,-0.979,1.86,2.44,2.9,2,0
17078.484,-0.04,-0.149,-0.989,2.96,2.32,3.88,2,0
17078.484,-0.046,-0.154,-0.994,2.87,3.08,4.21,2,0
17078.5,-0.044,-0.167,-0.99,2.56,4.09,3.75,2,0
17078.515,-0.038,-0.17,-0.987,2.66,4.91,1.89,2,0
17078.515,-0.036,-0.167,-0.985,2.53,5.49,-0.18,2,0
17078.531,-0.037,-0.166,-0.992,1.34,5.71,-1.53,2,0
17078.531,-0.025,-0.175,-0.991,0.12,6.01,-2.17,2,0
17078.546,-0.023,-0.18,-0.99,0.09,6.99,-2.59,2,0
17078.562,-0.024,-0.178,-0.987,1.1,8.58,-2.47,2,0
17078.578,-0.032,-0.162,-0.983,4.46,11.51,-0.67,2,0
17078.593,-0.03,-0.162,-0.977,6.32,11.96,1.34,2,0
17078.593,-0.022,-0.164,-0.978,8.24,11.57,3.97,2,0
17078.609,-0.01,-0.169,-0.976,10.68,11.23,5.8,2,0
17078.625,-0.005,-0.179,-0.982,12.39,10.01,5.68,2,0
17078.625,-0.002,-0.186,-0.984,11.9,7.93,3.78,2,0
17078.64,-0.004,-0.19,-0.977,10.41,5.92,1.37,2,0
17078.656,-0.005,-0.191,-0.971,8.12,3.51,-1.43,2,0
17078.656,-0.012,-0.19,-0.954,5.22,0.46,-3.81,2,0
17078.671,-0.024,-0.18,-0.932,3.75,-3.2,-4.49,2,0
17078.671,-0.04,-0.162,-0.908,3.97,-8.15,-2.62,2,0
17078.687,-0.044,-0.155,-0.89,5.89,-14.28,1.77,2,0
17078.703,-0.045,-0.155,-0.903,8.67,-21.94,7.69,2,0
17078.718,-0.039,-0.167,-0.943,10.96,-29.11,13.37,2,0
17078.718,-0.027,-0.174,-1.011,12.36,-32.5,17.46,2,0
17078.734,-0.006,-0.171,-1.057,13.79,-30.18,18.28,2,0
17078.734,-0.003,-0.182,-1.102,13.67,-23.77,16.27,2,0
17078.75,0.013,-0.198,-1.105,11.81,-14.86,12.3,2,0
17078.765,0.009,-0.216,-1.077,11.51,-5.8,6.99,2,0
17078.765,-0.004,-0.225,-1.033,11.47,0.43,2.01,2,0
17078.781,-0.019,-0.212,-1.003,12.12,3.14,-1.37,2,0
17078.796,-0.04,-0.182,-0.978,11.17,2.44,-2.08,2,0
17078.796,-0.044,-0.176,-0.965,9.77,-0.43,-0.52,2,0
17078.812,-0.048,-0.181,-0.971,9.0,-3.75,1.28,2,0
17078.812,-0.047,-0.185,-0.981,9.37,-5.98,2.5,2,0
17078.828,-0.053,-0.183,-1.003,9.7,-6.62,2.81,2,0
17078.843,-0.05,-0.187,-1.018,9.16,-5.62,2.47,2,0
17078.843,-0.053,-0.194,-1.026,8.0,-3.75,1.43,2,0
17078.859,-0.051,-0.211,-1.015,6.04,-2.38,-0.09,2,0
17078.875,-0.047,-0.214,-1.011,4.18,-2.04,-2.08,2,0
17078.875,-0.044,-0.219,-1.01,2.53,-2.56,-3.69,2,0
17078.89,-0.037,-0.233,-1.006,2.59,-2.78,-3.97,2,0
17078.89,-0.036,-0.236,-1.009,4.36,-2.11,-2.66,2,0
17078.906,-0.033,-0.239,-1.004,5.95,-0.95,-0.34,2,0
17078.921,-0.037,-0.253,-0.994,9.09,0.37,1.77,2,0
17078.921,-0.056,-0.25,-0.991,13.0,1.31,3.14,2,0
17078.937,-0.071,-0.231,-0.996,13.49,1.28,3.36,2,0
17078.953,-0.07,-0.227,-0.986,11.17,0.7,2.62,2,0
17078.953,-0.071,-0.235,-0.975,8.36,-0.76,0.24,2,0
17078.968,-0.077,-0.23,-0.963,5.4,-2.38,-3.45,2,0
17078.984,-0.088,-0.219,-0.947,2.56,-4.12,-7.08,2,0
17078.984,-0.099,-0.209,-0.931,0.06,-6.32,-9.77,2,0
17079.0,-0.103,-0.199,-0.919,-1.71,-9.13,-11.26,2,0
17079.015,-0.112,-0.185,-0.922,-2.47,-12.09,-11.02,2,0
17079.015,-0.106,-0.173,-0.938,-3.54,-14.47,-8.97,2,0
17079.031,-0.092,-0.168,-0.946,-4.27,-17.0,-1.19,2,0
17079.046,-0.085,-0.172,-0.951,-2.84,-18.95,4.55,2,0
17079.046,-0.067,-0.2,-0.97,0.73,-21.06,10.41,2,0
17079.062,-0.04,-0.253,-1.074,4.27,-21.97,15.53,2,0
17079.078,-0.024,-0.269,-1.121,5.95,-20.94,19.44,2,0
17079.078,-0.012,-0.277,-1.151,6.29,-18.52,21.27,2,0
17079.093,-0.014,-0.285,-1.168,6.23,-15.05,21.33,2,0
17079.093,-0.039,-0.281,-1.165,6.01,-10.86,20.2,2,0
17079.109,-0.07,-0.276,-1.138,5.31,-7.35,18.59,2,0
17079.125,-0.103,-0.271,-1.104,5.1,-5.43,16.3,2,0
17079.125,-0.132,-0.255,-1.073,4.24,-5.86,13.67,2,0
17079.14,-0.146,-0.246,-1.049,2.5,-8.09,11.54,2,0
17079.156,-0.151,-0.246,-1.026,1.13,-10.71,10.16,2,0
17079.156,-0.162,-0.234,-1.005,0.49,-13.28,9.64,2,0
17079.171,-0.169,-0.229,-0.988,-0.24,-16.08,10.01,2,0
17079.187,-0.176,-0.233,-0.973,-0.06,-18.56,11.47,2,0
17079.187,-0.189,-0.229,-0.971,1.68,-20.26,13.64,2,0
17079.203,-0.194,-0.224,-0.966,3.57,-21.03,15.96,2,0
17079.203,-0.191,-0.22,-0.963,5.65,-21.39,17.73,2,0
17079.218,-0.186,-0.22,-0.968,7.66,-21.39,19.29,2,0
17079.234,-0.18,-0.213,-0.96,8.85,-21.0,20.81,2,0
17079.234,-0.169,-0.211,-0.945,10.41,-20.66,22.06,2,0
17079.25,-0.172,-0.217,-0.939,12.05,-20.87,22.16,2,0
17079.265,-0.191,-0.211,-0.934,11.99,-22.58,21.24,2,0
17079.265,-0.207,-0.213,-0.927,10.22,-25.27,19.26,2,0
17079.281,-0.225,-0.215,-0.927,8.15,-28.72,15.84,2,0
17079.296,-0.249,-0.211,-0.929,5.86,-32.41,12.18,2,0
17079.296,-0.262,-0.206,-0.928,3.81,-35.86,9.8,2,0
17079.312,-0.266,-0.208,-0.929,2.93,-38.54,8.39,2,0
17079.328,-0.267,-0.207,-0.939,3.33,-41.05,7.05,2,0
17079.328,-0.263,-0.209,-0.961,3.11,-43.73,5.28,2,0
17079.343,-0.251,-0.209,-0.998,1.74,-45.05,1.71,2,0
17079.343,-0.231,-0.222,-1.009,-1.28,-43.79,-3.05,2,0
17079.359,-0.217,-0.238,-0.999,-4.3,-40.83,-9.31,2,0
17079.375,-0.228,-0.223,-0.993,-7.05,-37.6,-16.88,2,0
17079.375,-0.238,-0.223,-0.959,-10.38,-35.8,-22.74,2,0
17079.39,-0.233,-0.227,-0.921,-11.17,-35.4,-25.64,2,0
17079.406,-0.237,-0.214,-0.894,-8.73,-36.04,-26.83,2,0
17079.421,-0.226,-0.198,-0.871,-3.17,-39.55,-20.51,2,0
17079.437,-0.205,-0.19,-0.881,1.77,-39.86,-14.68,2,0
17079.437,-0.18,-0.174,-0.895,6.38,-38.7,-8.36,2,0
17079.453,-0.163,-0.165,-0.901,10.25,-35.83,-1.71,2,0
17079.468,-0.16,-0.147,-0.903,13.79,-32.04,4.55,2,0
17079.468,-0.159,-0.139,-0.899,16.17,-28.63,10.25,2,0
17079.484,-0.159,-0.144,-0.897,17.52,-26.4,13.98,2,0
17079.484,-0.154,-0.138,-0.894,16.94,-25.85,16.54,2,0
17079.5,-0.141,-0.138,-0.884,14.83,-26.15,18.92,2,0
17079.515,-0.124,-0.154,-0.87,12.76,-27.04,20.81,2,0
17079.515,-0.116,-0.171,-0.87,10.86,-28.47,21.73,2,0
17079.531,-0.114,-0.184,-0.862,8.76,-29.18,22.95,2,0
17079.546,-0.12,-0.198,-0.861,7.78,-28.84,24.51,2,0
17079.546,-0.127,-0.216,-0.879,8.61,-28.08,26.09,2,0
17079.562,-0.126,-0.226,-0.904,10.59,-26.7,28.02,2,0
17079.562,-0.121,-0.23,-0.936,13.31,-23.87,30.79,2,0
17079.578,-0.11,-0.235,-0.962,16.42,-19.38,33.81,2,0
17079.593,-0.097,-0.263,-0.98,20.17,-13.82,36.53,2,0
17079.593,-0.1,-0.274,-0.994,24.51,-7.9,37.39,2,0
17079.609,-0.113,-0.257,-1.006,26.46,-2.59,35.8,2,0
17079.625,-0.132,-0.248,-1.007,24.57,0.92,31.8,2,0
17079.64,-0.151,-0.251,-1.002,21.15,2.93,27.13,2,0
17079.64,-0.143,-0.249,-0.989,18.34,4.39,23.16,2,0
17079.656,-0.128,-0.263,-0.982,17.61,5.68,19.29,2,0
17079.656,-0.123,-0.277,-0.985,16.97,6.13,14.13,2,0
17079.671,-0.132,-0.269,-0.994,13.76,5.77,7.14,2,0
17079.687,-0.151,-0.265,-0.99,8.03,5.16,-0.89,2,0
17079.687,-0.173,-0.277,-0.991,2.2,4.7,-9.13,2,0
17079.703,-0.19,-0.268,-0.985,-2.56,4.76,-16.17,2,0
17079.703,-0.205,-0.252,-0.973,-6.29,5.34,-21.52,2,0
17079.718,-0.211,-0.258,-0.955,-8.12,6.59,-24.11,2,0
17079.734,-0.212,-0.264,-0.942,-6.35,7.69,-23.44,2,0
17079.734,-0.213,-0.237,-0.935,-4.18,8.76,-20.81,2,0
17079.75,-0.221,-0.228,-0.93,-3.23,9.92,-17.15,2,0
17079.765,-0.23,-0.224,-0.927,-2.26,11.11,-13.09,2,0
17079.765,-0.236,-0.215,-0.917,-2.11,12.54,-9.61,2,0
17079.781,-0.248,-0.212,-0.904,-2.2,13.95,-6.93,2,0
17079.796,-0.254,-0.196,-0.902,-3.2,15.17,-4.85,2,0
17079.796,-0.265,-0.18,-0.89,-6.81,15.87,-3.2,2,0
17079.812,-0.272,-0.183,-0.874,-11.32,16.54,-1.37,2,0
17079.812,-0.286,-0.193,-0.882,-15.87,17.7,0.46,2,0
17079.828,-0.294,-0.198,-0.868,-20.36,20.51,2.14,2,0
17079.843,-0.307,-0.219,-0.841,-23.04,23.93,3.72,2,0
17079.859,-0.317,-0.247,-0.806,-24.51,26.31,5.92,2,0
17079.859,-0.328,-0.298,-0.786,-22.74,25.97,8.64,2,0
17079.875,-0.313,-0.331,-0.792,-16.48,23.68,12.21,2,0
17079.875,-0.247,-0.303,-0.815,-9.92,20.75,15.87,2,0
17079.89,-0.19,-0.271,-0.851,-5.25,18.43,18.22,2,0
17079.906,-0.152,-0.26,-0.885,-3.88,16.75,19.44,2,0
17079.906,-0.137,-0.261,-0.905,-4.76,16.17,18.52,2,0
17079.921,-0.157,-0.264,-0.916,-5.86,16.3,14.37,2,0
17079.937,-0.183,-0.274,-0.914,-7.17,16.57,9.8,2,0
17079.937,-0.213,-0.28,-0.901,-7.57,16.82,6.07,2,0
17079.953,-0.245,-0.27,-0.905,-6.71,15.14,3.85,2,0
17079.953,-0.25,-0.255,-0.916,-5.95,11.11,4.12,2,0
17079.968,-0.236,-0.233,-0.936,-4.24,5.8,5.77,2,0
17079.984,-0.227,-0.207,-0.975,-2.2,0.67,8.15,2,0
17079.984,-0.227,-0.188,-1.01,-0.98,-1.98,10.74,2,0
17080.0,-0.237,-0.185,-1.027,0.67,-1.56,14.19,2,0
17080.015,-0.256,-0.194,-1.031,5.86,4.49,21.21,2,0
17080.015,-0.29,-0.194,-1.024,8.76,6.53,24.48,2,0
17080.031,-0.306,-0.178,-1.021,9.83,7.08,27.38,2,0
17080.046,-0.305,-0.162,-1.024,8.85,6.47,30.21,2,0
17080.046,-0.284,-0.165,-1.001,8.91,5.77,33.45,2,0
17080.062,-0.279,-0.179,-0.985,11.47,5.8,38.12,2,0
17080.078,-0.278,-0.181,-0.98,14.28,6.29,43.21,2,0
17080.093,-0.288,-0.226,-0.949,15.69,6.93,48.31,2,0
17080.093,-0.3,-0.232,-0.945,16.36,6.29,47.61,2,0
17080.109,-0.317,-0.228,-0.95,14.59,3.91,44.8,2,0
17080.125,-0.314,-0.233,-0.952,10.83,0.37,41.57,2,0
17080.125,-0.289,-0.24,-0.958,8.27,-3.05,38.82,2,0
17080.14,-0.263,-0.234,-0.97,7.35,-5.25,36.74,2,0
17080.156,-0.253,-0.238,-0.976,7.78,-5.34,36.16,2,0
17080.156,-0.245,-0.244,-0.984,9.43,-3.81,37.14,2,0
17080.171,-0.242,-0.247,-0.982,11.38,-1.28,38.06,2,0
17080.187,-0.249,-0.248,-0.977,13.58,1.53,38.06,2,0
17080.187,-0.259,-0.233,-0.983,14.65,3.91,36.93,2,0
17080.203,-0.259,-0.228,-0.975,13.15,4.61,34.7,2,0
17080.203,-0.248,-0.235,-0.969,10.62,3.78,31.59,2,0
17080.218,-0.244,-0.241,-0.961,8.3,2.01,27.86,2,0
17080.234,-0.242,-0.237,-0.972,5.98,0.0,24.87,2,0
17080.234,-0.236,-0.24,-0.956,4.67,-1.16,22.89,2,0
17080.265,-0.239,-0.251,-0.944,3.14,-3.88,19.38,2,0
17080.281,-0.246,-0.253,-0.962,1.89,-4.61,17.18,2,0
17080.281,-0.249,-0.258,-0.958,-0.37,-4.27,14.98,2,0
17080.296,-0.248,-0.268,-0.945,-1.71,-3.33,12.97,2,0
17080.296,-0.239,-0.272,-0.935,-1.83,-2.53,11.47,2,0
17080.312,-0.243,-0.274,-0.928,-0.61,-1.68,10.01,2,0
17080.328,-0.257,-0.267,-0.924,0.52,-1.46,8.88,2,0
17080.328,-0.274,-0.261,-0.918,0.27,-1.74,7.6,2,0
17080.343,-0.287,-0.275,-0.908,-0.7,-3.42,5.1,2,0
17080.343,-0.3,-0.283,-0.908,-1.98,-6.81,0.82,2,0
17080.359,-0.317,-0.271,-0.916,-4.97,-11.29,-4.3,2,0
17080.375,-0.325,-0.261,-0.917,-9.77,-15.84,-9.55,2,0
17080.375,-0.328,-0.27,-0.921,-13.25,-19.68,-13.95,2,0
17080.39,-0.33,-0.269,-0.922,-13.7,-22.61,-17.49,2,0
17080.406,-0.338,-0.242,-0.935,-12.76,-24.78,-18.92,2,0
17080.406,-0.336,-0.224,-0.954,-12.54,-26.98,-18.71,2,0
17080.421,-0.324,-0.217,-0.981,-12.91,-28.96,-18.13,2,0
17080.437,-0.313,-0.198,-1.008,-13.58,-30.09,-18.04,2,0
17080.437,-0.3,-0.188,-1.032,-15.29,-29.76,-17.79,2,0
17080.453,-0.287,-0.183,-1.049,-16.51,-27.34,-17.61,2,0
17080.468,-0.289,-0.171,-1.047,-16.79,-22.55,-17.79,2,0
17080.468,-0.295,-0.157,-1.021,-17.24,-16.33,-17.3,2,0
17080.484,-0.295,-0.15,-0.991,-18.04,-11.17,-16.24,2,0
17080.484,-0.293,-0.143,-0.969,-18.98,-8.27,-15.05,2,0
17080.5,-0.291,-0.145,-0.949,-20.39,-7.02,-13.28,2,0
17080.515,-0.295,-0.165,-0.942,-21.49,-6.84,-9.77,2,0
17080.531,-0.293,-0.189,-0.943,-20.87,-6.44,-3.91,2,0
17080.531,-0.285,-0.208,-0.935,-18.31,-5.62,3.54,2,0
17080.546,-0.286,-0.219,-0.933,-13.98,-4.27,10.65,2,0
17080.546,-0.295,-0.239,-0.92,-8.58,-2.08,17.52,2,0
17080.562,-0.292,-0.249,-0.912,-2.84,0.43,23.8,2,0
17080.562,-0.296,-0.239,-0.907,1.98,2.84,28.29,2,0
17080.578,-0.308,-0.238,-0.891,5.22,5.1,31.16,2,0
17080.593,-0.303,-0.235,-0.883,7.54,6.59,32.62,2,0
17080.593,-0.302,-0.228,-0.881,10.07,7.75,32.84,2,0
17080.609,-0.302,-0.229,-0.885,12.18,8.36,32.87,2,0
17080.625,-0.288,-0.235,-0.887,14.28,8.88,34.24,2,0
17080.64,-0.275,-0.251,-0.887,17.58,9.64,36.65,2,0
17080.64,-0.275,-0.269,-0.889,21.94,10.47,38.94,2,0
17080.656,-0.277,-0.265,-0.899,25.57,11.14,39.55,2,0
17080.656,-0.286,-0.259,-0.908,26.12,11.51,37.02,2,0
17080.671,-0.304,-0.256,-0.902,23.83,11.44,31.22,2,0
17080.687,-0.321,-0.248,-0.889,19.99,9.8,23.19,2,0
17080.687,-0.324,-0.234,-0.881,15.75,6.29,13.06,2,0
17080.703,-0.335,-0.212,-0.885,10.44,1.31,2.72,2,0
17080.703,-0.327,-0.189,-0.888,2.72,-5.28,-6.62,2,0
17080.718,-0.303,-0.186,-0.897,-4.03,-11.99,-13.86,2,0
17080.734,-0.283,-0.178,-0.912,-7.54,-17.06,-17.76,2,0
17080.734,-0.277,-0.171,-0.936,-8.64,-20.11,-17.94,2,0
17080.75,-0.266,-0.183,-0.961,-7.42,-20.57,-15.26,2,0
17080.765,-0.257,-0.19,-0.981,-3.54,-17.0,-10.74,2,0
17080.765,-0.265,-0.189,-0.983,2.53,-10.35,-5.01,2,0
17080.781,-0.273,-0.191,-0.978,9.22,-3.23,0.76,2,0
17080.796,-0.277,-0.176,-0.965,14.04,2.17,4.88,2,0
17080.796,-0.282,-0.16,-0.953,15.53,5.1,6.93,2,0
17080.812,-0.282,-0.151,-0.93,14.59,6.32,7.93,2,0
17080.812,-0.285,-0.161,-0.907,13.67,6.2,8.45,2,0
17080.828,-0.293,-0.166,-0.894,13.67,4.36,9.31,2,0
17080.843,-0.303,-0.163,-0.887,13.15,1.04,10.35,2,0
17080.843,-0.325,-0.166,-0.889,10.65,-3.36,10.56,2,0
17080.859,-0.338,-0.175,-0.898,6.5,-8.45,9.55,2,0
17080.875,-0.33,-0.179,-0.913,2.59,-12.73,7.39,2,0
17080.89,-0.318,-0.181,-0.941,0.37,-14.95,3.39,2,0
17080.89,-0.31,-0.168,-0.95,-2.53,-15.35,-1.95,2,0
17080.89,-0.309,-0.148,-0.95,-8.42,-16.48,-9.03,2,0
17080.906,-0.322,-0.14,-0.955,-14.95,-18.25,-17.73,2,0
17080.921,-0.348,-0.138,-0.957,-21.21,-20.2,-25.76,2,0
17080.937,-0.361,-0.13,-0.958,-27.31,-22.49,-29.69,2,0
17080.937,-0.343,-0.152,-0.956,-31.13,-24.17,-27.28,2,0
17080.953,-0.315,-0.21,-0.956,-29.57,-23.32,-18.65,2,0
17080.953,-0.294,-0.244,-0.967,-18.68,-17.61,-6.87,2,0
17080.968,-0.294,-0.241,-0.987,-3.69,-8.7,4.09,2,0
17080.984,-0.298,-0.221,-0.991,6.68,0.67,12.33,2,0
17080.984,-0.312,-0.214,-0.974,15.5,13.55,21.0,2,0
17081.0,-0.321,-0.236,-0.954,17.91,15.26,22.95,2,0
17081.015,-0.316,-0.244,-0.938,19.84,14.62,23.8,2,0
17081.015,-0.294,-0.234,-0.938,19.35,12.67,22.83,2,0
17081.031,-0.253,-0.24,-0.942,17.33,10.25,20.87,2,0
17081.031,-0.242,-0.249,-0.941,15.08,8.21,17.43,2,0
17081.046,-0.238,-0.268,-0.935,13.37,7.29,13.92,2,0
17081.062,-0.246,-0.279,-0.933,11.75,7.2,9.77,2,0
17081.078,-0.254,-0.288,-0.931,10.68,7.66,5.07,2,0
17081.078,-0.253,-0.28,-0.932,9.64,8.36,1.37,2,0
17081.093,-0.239,-0.273,-0.931,8.61,8.67,-2.5,2,0
17081.093,-0.231,-0.284,-0.927,7.63,8.76,-5.92,2,0
17081.109,-0.219,-0.276,-0.929,7.93,9.09,-8.18,2,0
17081.125,-0.214,-0.255,-0.931,8.36,9.31,-10.19,2,0
17081.14,-0.218,-0.24,-0.932,6.2,8.79,-12.36,2,0
17081.14,-0.234,-0.232,-0.924,2.38,7.69,-15.5,2,0
17081.156,-0.257,-0.22,-0.923,-1.59,5.71,-19.41,2,0
17081.156,-0.278,-0.204,-0.926,-6.56,3.3,-23.59,2,0
17081.171,-0.292,-0.187,-0.924,-12.12,0.21,-27.22,2,0
17081.187,-0.295,-0.174,-0.928,-16.66,-3.2,-29.88,2,0
17081.187,-0.299,-0.169,-0.936,-20.72,-6.53,-31.31,2,0
17081.203,-0.298,-0.179,-0.935,-23.8,-8.97,-30.4,2,0
17081.203,-0.298,-0.206,-0.922,-23.93,-10.04,-26.52,2,0
17081.218,-0.299,-0.229,-0.923,-20.54,-9.77,-19.81,2,0
17081.234,-0.302,-0.254,-0.929,-14.53,-6.5,-10.35,2,0
17081.234,-0.301,-0.265,-0.93,-6.5,-1.13,-1.5,2,0
17081.25,-0.302,-0.249,-0.927,0.82,4.55,4.18,2,0
17081.265,-0.317,-0.228,-0.92,5.34,8.97,6.38,2,0
17081.265,-0.322,-0.216,-0.906,6.5,10.93,6.1,2,0
17081.281,-0.314,-0.206,-0.896,5.52,10.74,4.33,2,0
17081.296,-0.31,-0.21,-0.887,3.75,9.06,2.5,2,0
17081.296,-0.302,-0.219,-0.874,2.32,6.41,1.71,2,0
17081.312,-0.306,-0.227,-0.874,2.5,3.39,2.2,2,0
17081.312,-0.307,-0.242,-0.884,3.6,0.43,3.78,2,0
17081.328,-0.303,-0.239,-0.897,5.68,-1.31,5.46,2,0
17081.343,-0.301,-0.236,-0.911,7.2,-2.17,6.07,2,0
17081.343,-0.297,-0.228,-0.912,7.6,-2.41,6.23,2,0
17081.359,-0.298,-0.223,-0.914,8.21,-2.38,5.71,2,0
17081.375,-0.301,-0.212,-0.912,8.09,-2.47,4.76,2,0
17081.39,-0.305,-0.205,-0.907,7.6,-3.11,3.66,2,0
17081.39,-0.308,-0.207,-0.907,6.5,-4.64,2.69,2,0
17081.406,-0.309,-0.202,-0.915,5.52,-6.78,2.41,2,0
17081.406,-0.304,-0.207,-0.926,4.43,-8.58,3.08,2,0
17081.421,-0.301,-0.221,-0.924,3.91,-9.55,4.12,2,0
17081.437,-0.306,-0.228,-0.919,5.28,-9.67,5.22,2,0
17081.437,-0.311,-0.224,-0.908,7.45,-9.52,6.44,2,0
17081.453,-0.318,-0.222,-0.901,9.34,-10.13,7.26,2,0
17081.453,-0.321,-0.211,-0.896,9.98,-11.78,7.6,2,0
17081.468,-0.326,-0.203,-0.893,9.64,-14.74,7.35,2,0
17081.484,-0.329,-0.2,-0.907,8.61,-18.28,6.56,2,0
17081.484,-0.326,-0.191,-0.926,6.35,-21.36,5.16,2,0
17081.5,-0.329,-0.196,-0.952,3.27,-22.89,3.11,2,0
17081.515,-0.332,-0.2,-0.976,-0.03,-22.52,0.92,2,0
17081.515,-0.328,-0.206,-0.977,-2.26,-20.26,-1.07,2,0
17081.531,-0.328,-0.228,-0.966,-3.48,-16.75,-1.77,2,0
17081.531,-0.324,-0.246,-0.953,-2.35,-12.73,-1.34,2,0
17081.546,-0.326,-0.236,-0.938,0.46,-8.97,-0.27,2,0
17081.562,-0.327,-0.219,-0.923,2.47,-6.47,1.13,2,0
17081.578,-0.326,-0.213,-0.905,2.87,-5.46,2.44,2,0
17081.578,-0.328,-0.212,-0.891,2.56,-6.26,3.54,2,0
17081.593,-0.327,-0.224,-0.893,2.5,-8.39,4.3,2,0
17081.593,-0.318,-0.235,-0.904,2.69,-10.68,4.94,2,0
17081.609,-0.31,-0.23,-0.919,3.14,-11.96,5.22,2,0
17081.625,-0.303,-0.235,-0.934,2.38,-12.27,4.3,2,0
17081.625,-0.298,-0.239,-0.95,0.73,-11.72,2.44,2,0
17081.64,-0.292,-0.232,-0.953,-0.61,-10.32,-0.03,2,0
17081.656,-0.288,-0.223,-0.945,-2.5,-8.67,-2.41,2,0
17081.656,-0.285,-0.216,-0.937,-3.97,-7.26,-4.21,2,0
17081.671,-0.292,-0.215,-0.932,-4.7,-6.41,-5.83,2,0
17081.671,-0.302,-0.23,-0.921,-5.13,-6.29,-6.1,2,0
17081.687,-0.297,-0.233,-0.916,-4.3,-6.68,-5.19,2,0
17081.703,-0.294,-0.223,-0.919,-2.99,-6.62,-4.24,2,0
17081.718,-0.302,-0.224,-0.914,-2.11,-6.32,-3.48,2,0
17081.718,-0.304,-0.227,-0.914,-1.77,-6.32,-2.93,2,0
17081.734,-0.308,-0.224,-0.912,-2.04,-6.44,-3.57,2,0
17081.734,-0.32,-0.227,-0.911,-2.59,-6.74,-5.43,2,0
17081.75,-0.332,-0.23,-0.91,-3.75,-7.2,-7.32,2,0
17081.765,-0.347,-0.234,-0.905,-4.79,-8.0,-9.03,2,0
17081.765,-0.35,-0.251,-0.906,-4.85,-9.34,-10.1,2,0
17081.781,-0.343,-0.245,-0.911,-3.72,-10.35,-10.41,2,0
17081.796,-0.339,-0.234,-0.916,-2.44,-10.56,-10.19,2,0
17081.796,-0.339,-0.231,-0.926,-1.4,-9.74,-9.46,2,0
17081.812,-0.344,-0.23,-0.927,-0.06,-8.03,-9.28,2,0
17081.812,-0.354,-0.217,-0.933,0.67,-6.07,-9.37,2,0
17081.828,-0.359,-0.206,-0.934,0.06,-4.46,-9.06,2,0
17081.843,-0.358,-0.207,-0.922,-1.31,-3.3,-8.58,2,0
17081.843,-0.359,-0.213,-0.905,-2.26,-3.2,-8.18,2,0
17081.859,-0.363,-0.221,-0.894,-1.71,-3.75,-7.08,2,0
17081.875,-0.366,-0.219,-0.889,-0.61,-5.1,-4.67,2,0
17081.875,-0.365,-0.217,-0.886,-0.03,-7.05,-2.38,2,0
17081.89,-0.36,-0.219,-0.892,0.06,-9.13,-0.76,2,0
17081.906,-0.352,-0.215,-0.907,-0.73,-10.83,-0.21,2,0
17081.906,-0.343,-0.207,-0.916,-2.38,-11.72,-0.79,2,0
17081.921,-0.34,-0.21,-0.926,-4.36,-11.69,-2.35,2,0
17081.921,-0.341,-0.222,-0.93,-5.22,-10.68,-4.15,2,0
17081.937,-0.341,-0.23,-0.93,-5.04,-9.06,-5.01,2,0
17081.953,-0.338,-0.24,-0.924,-4.06,-7.2,-4.55,2,0
17081.953,-0.336,-0.242,-0.914,-2.26,-5.46,-2.93,2,0
17081.968,-0.342,-0.236,-0.905,-0.55,-4.58,-1.43,2,0
17081.984,-0.349,-0.227,-0.898,0.12,-5.52,-0.64,2,0
17081.984,-0.354,-0.222,-0.897,-1.19,-6.74,-2.11,2,0
17082.0,-0.362,-0.22,-0.906,-3.33,-8.45,-4.24,2,0
17082.015,-0.362,-0.222,-0.924,-5.28,-10.07,-5.8,2,0
17082.015,-0.353,-0.235,-0.923,-6.68,-11.54,-6.53,2,0
17082.031,-0.349,-0.24,-0.918,-6.9,-12.7,-7.05,2,0
17082.046,-0.348,-0.24,-0.93,-6.84,-12.73,-7.29,2,0
17082.046,-0.349,-0.248,-0.943,-5.43,-10.74,-7.48,2,0
17082.062,-0.35,-0.239,-0.938,-4.33,-7.35,-7.72,2,0
17082.062,-0.351,-0.233,-0.92,-3.14,-3.54,-8.15,2,0
17082.078,-0.356,-0.221,-0.9,-2.17,-0.95,-8.79,2,0
17082.093,-0.365,-0.213,-0.892,-2.11,-0.4,-9.22,2,0
17082.093,-0.366,-0.215,-0.883,-2.69,-1.46,-9.09,2,0
17082.109,-0.364,-0.23,-0.885,-2.66,-2.75,-8.33,2,0
17082.125,-0.358,-0.234,-0.896,-1.71,-3.23,-7.48,2,0
17082.125,-0.351,-0.235,-0.903,-1.4,-2.72,-7.23,2,0
17082.14,-0.345,-0.24,-0.904,-1.74,-1.34,-7.72,2,0
17082.14,-0.353,-0.242,-0.899,-2.08,-0.12,-8.33,2,0
17082.156,-0.358,-0.242,-0.895,-2.11,0.49,-8.55,2,0
17082.171,-0.359,-0.241,-0.901,-1.22,0.95,-7.87,2,0
17082.171,-0.363,-0.249,-0.902,0.58,1.98,-5.71,2,0
17082.187,-0.362,-0.245,-0.904,3.3,3.42,-2.72,2,0
17082.203,-0.362,-0.239,-0.906,5.71,4.64,-0.34,2,0
17082.203,-0.364,-0.242,-0.9,6.59,5.49,1.13,2,0
17082.218,-0.365,-0.241,-0.896,7.32,5.89,1.86,2,0
17082.234,-0.367,-0.235,-0.894,7.39,6.1,1.98,2,0
17082.234,-0.372,-0.238,-0.896,6.5,5.92,1.77,2,0
17082.25,-0.371,-0.248,-0.887,5.19,5.58,1.43,2,0
17082.265,-0.378,-0.267,-0.886,5.1,4.91,0.61,2,0
17082.281,-0.387,-0.274,-0.891,5.58,3.75,-0.61,2,0
17082.281,-0.385,-0.268,-0.902,5.22,2.59,-1.56,2,0
17082.281,-0.384,-0.271,-0.911,3.88,1.37,-3.42,2,0
17082.296,-0.38,-0.273,-0.919,2.75,0.4,-5.92,2,0
17082.312,-0.371,-0.262,-0.926,1.19,-0.4,-8.7,2,0
17082.312,-0.353,-0.249,-0.932,-0.27,-0.76,-11.08,2,0
17082.328,-0.347,-0.245,-0.933,-1.13,-0.49,-12.85,2,0
17082.343,-0.345,-0.241,-0.922,-1.86,0.21,-13.34,2,0
17082.343,-0.35,-0.228,-0.911,-2.08,0.98,-13.55,2,0
17082.359,-0.36,-0.216,-0.895,-2.84,1.34,-13.12,2,0
17082.375,-0.361,-0.231,-0.873,-3.42,1.28,-11.35,2,0
17082.375,-0.364,-0.233,-0.863,-2.66,0.34,-9.09,2,0
17082.39,-0.364,-0.23,-0.874,-1.31,-1.19,-6.5,2,0
17082.406,-0.356,-0.234,-0.893,-1.19,-2.66,-3.57,2,0
17082.406,-0.34,-0.241,-0.909,-1.71,-3.2,-1.16,2,0
17082.421,-0.333,-0.252,-0.924,-1.31,-2.23,0.4,2,0
17082.421,-0.33,-0.264,-0.925,-0.06,-0.06,1.1,2,0
17082.437,-0.339,-0.273,-0.918,1.22,2.5,1.37,2,0
17082.453,-0.349,-0.267,-0.908,1.98,4.55,1.01,2,0
17082.453,-0.356,-0.258,-0.895,1.98,5.49,0.18,2,0
17082.468,-0.355,-0.25,-0.881,1.1,5.34,-1.01,2,0
17082.484,-0.353,-0.247,-0.869,0.46,4.18,-2.17,2,0
17082.484,-0.357,-0.249,-0.866,0.15,2.62,-2.84,2,0
17082.5,-0.354,-0.254,-0.865,0.34,0.73,-2.59,2,0
17082.515,-0.349,-0.27,-0.869,1.31,-1.01,-1.8,2,0
17082.515,-0.348,-0.275,-0.876,2.96,-2.08,-0.85,2,0
17082.531,-0.349,-0.268,-0.883,4.36,-2.47,-0.82,2,0
17082.546,-0.349,-0.262,-0.896,4.27,-2.78,-2.01,2,0
17082.546,-0.349,-0.261,-0.901,3.17,-3.05,-3.63,2,0
17082.562,-0.353,-0.268,-0.903,2.23,-3.05,-4.94,2,0
17082.562,-0.351,-0.277,-0.906,2.47,-2.78,-5.52,2,0
17082.578,-0.348,-0.281,-0.913,4.03,-1.92,-4.94,2,0
17082.593,-0.35,-0.274,-0.918,6.68,-0.43,-3.51,2,0
17082.593,-0.352,-0.261,-0.931,9.22,1.53,-1.56,2,0
17082.609,-0.345,-0.238,-0.939,7.23,3.08,0.21,2,0
17082.625,-0.343,-0.258,-0.904,4.39,4.46,-0.09,2,0
17082.625,-0.352,-0.262,-0.898,5.25,4.82,-1.25,2,0
17082.64,-0.35,-0.221,-0.895,4.73,4.12,-2.35,2,0
17082.64,-0.348,-0.217,-0.888,1.43,2.47,-2.96,2,0
17082.656,-0.345,-0.237,-0.885,-1.53,0.4,-2.93,2,0
17082.671,-0.341,-0.249,-0.888,-1.8,-1.13,-1.62,2,0
17082.671,-0.344,-0.26,-0.901,0.06,-1.31,0.7,2,0
17082.687,-0.342,-0.264,-0.918,1.71,-0.43,3.45,2,0
17082.703,-0.333,-0.278,-0.923,2.32,1.53,6.01,2,0
17082.703,-0.329,-0.295,-0.916,3.85,4.24,7.78,2,0
17082.718,-0.327,-0.294,-0.908,6.16,7.08,7.97,2,0
17082.734,-0.331,-0.275,-0.9,6.74,8.76,6.62,2,0
17082.734,-0.335,-0.258,-0.888,5.04,8.97,4.24,2,0
17082.75,-0.338,-0.252,-0.876,2.47,7.81,1.4,2,0
17082.765,-0.342,-0.258,-0.873,-0.31,5.01,-1.8,2,0
17082.765,-0.346,-0.262,-0.878,-2.23,1.59,-3.88,2,0
17082.781,-0.346,-0.257,-0.897,-3.02,-0.61,-4.76,2,0
17082.781,-0.346,-0.266,-0.915,-3.57,-0.89,-4.88,2,0
17082.796,-0.343,-0.276,-0.915,-4.12,0.43,-4.64,2,0
17082.812,-0.335,-0.267,-0.91,-2.72,2.56,-4.67,2,0
17082.812,-0.333,-0.249,-0.903,-1.16,4.46,-5.01,2,0
17082.828,-0.338,-0.242,-0.898,-1.01,5.43,-4.58,2,0
17082.843,-0.338,-0.244,-0.888,-1.86,5.07,-3.2,2,0
17082.843,-0.343,-0.253,-0.884,-1.46,4.21,-1.98,2,0
17082.859,-0.347,-0.255,-0.886,-0.03,3.33,-1.1,2,0
17082.875,-0.346,-0.242,-0.894,0.4,2.5,-0.79,2,0
17082.875,-0.343,-0.237,-0.898,-0.61,1.83,-1.4,2,0
17082.89,-0.341,-0.234,-0.902,-1.92,1.28,-2.47,2,0
17082.906,-0.34,-0.234,-0.901,-3.23,1.07,-2.93,2,0
17082.906,-0.338,-0.247,-0.893,-4.24,1.16,-2.62,2,0
17082.921,-0.345,-0.258,-0.889,-3.66,1.19,-1.62,2,0
17082.937,-0.355,-0.257,-0.89,-1.98,1.46,-0.31,2,0
17082.937,-0.358,-0.255,-0.888,-0.4,1.62,0.46,2,0
17082.953,-0.359,-0.252,-0.891,0.43,1.01,0.7,2,0
17082.953,-0.354,-0.246,-0.896,-0.73,-1.43,1.22,2,0
17082.968,-0.347,-0.24,-0.901,-1.92,-2.9,1.19,2,0
17082.984,-0.343,-0.244,-0.909,-2.62,-3.66,1.22,2,0
17082.984,-0.341,-0.252,-0.915,-2.66,-3.88,1.56,2,0
17083.0,-0.341,-0.253,-0.922,-2.32,-3.63,2.01,2,0
17083.015,-0.338,-0.255,-0.929,-1.98,-3.11,2.35,2,0
17083.015,-0.334,-0.257,-0.927,-2.01,-2.32,2.62,2,0
17083.031,-0.328,-0.26,-0.922,-2.2,-1.34,3.08,2,0
17083.046,-0.322,-0.268,-0.916,-1.56,-0.4,3.54,2,0
17083.046,-0.319,-0.272,-0.912,-0.67,0.4,3.91,2,0
17083.062,-0.316,-0.272,-0.906,-0.46,0.73,3.88,2,0
17083.062,-0.318,-0.272,-0.903,-0.67,0.61,3.08,2,0
17083.078,-0.319,-0.277,-0.897,-1.16,0.21,2.2,2,0
17083.093,-0.315,-0.282,-0.896,-1.04,-0.55,1.4,2,0
17083.093,-0.311,-0.276,-0.9,-0.12,-1.07,0.61,2,0
17083.109,-0.307,-0.268,-0.911,0.37,-1.4,0.03,2,0
17083.125,-0.302,-0.261,-0.92,-0.12,-1.46,-0.49,2,0
17083.125,-0.296,-0.256,-0.924,-0.67,-1.43,-1.13,2,0
17083.14,-0.295,-0.249,-0.925,-1.22,-1.28,-1.95,2,0
17083.156,-0.297,-0.246,-0.927,-1.68,-1.01,-2.26,2,0
17083.156,-0.298,-0.249,-0.925,-1.86,-1.1,-1.98,2,0
17083.171,-0.301,-0.243,-0.925,-1.4,-0.92,-1.43,2,0
17083.171,-0.302,-0.243,-0.925,-1.04,-0.46,-0.7,2,0
17083.187,-0.301,-0.247,-0.928,-0.15,0.21,0.12,2,0
17083.203,-0.298,-0.244,-0.935,0.43,1.31,0.82,2,0
17083.203,-0.298,-0.243,-0.934,0.4,2.59,1.13,2,0
17083.218,-0.301,-0.247,-0.929,0.79,4.09,1.1,2,0
17083.234,-0.301,-0.244,-0.925,1.31,5.01,0.37,2,0
17083.234,-0.306,-0.231,-0.924,1.07,5.4,-1.07,2,0
17083.25,-0.309,-0.22,-0.919,-0.55,4.91,-2.72,2,0
17083.265,-0.313,-0.22,-0.919,-2.26,4.06,-4.12,2,0
17083.265,-0.313,-0.22,-0.919,-3.48,3.33,-4.91,2,0
17083.281,-0.315,-0.214,-0.927,-3.66,3.05,-5.04,2,0
17083.296,-0.314,-0.205,-0.932,-3.42,3.39,-4.52,2,0
17083.296,-0.313,-0.211,-0.933,-3.45,4.15,-3.97,2,0
17083.312,-0.319,-0.22,-0.928,-2.81,5.22,-3.51,2,0
17083.312,-0.324,-0.213,-0.928,-1.8,6.04,-3.23,2,0
17083.328,-0.33,-0.203,-0.924,-1.83,6.26,-3.08,2,0
17083.343,-0.333,-0.2,-0.92,-2.75,5.86,-3.05,2,0
17083.343,-0.33,-0.199,-0.921,-3.66,5.1,-3.14,2,0
17083.359,-0.331,-0.203,-0.928,-4.46,4.15,-2.99,2,0
17083.375,-0.332,-0.209,-0.933,-4.76,4.03,-2.5,2,0
17083.375,-0.335,-0.214,-0.929,-4.73,4.7,-1.98,2,0
17083.39,-0.343,-0.22,-0.928,-4.55,5.4,-1.56,2,0
17083.406,-0.348,-0.213,-0.929,-4.49,6.1,-1.1,2,0
17083.406,-0.346,-0.209,-0.924,-5.28,6.29,-0.46,2,0
17083.421,-0.337,-0.22,-0.94,-6.35,6.29,-0.06,2,0
17083.421,-0.329,-0.226,-0.932,-5.95,7.26,0.09,2,0
17083.437,-0.321,-0.216,-0.939,-5.52,7.97,0.43,2,0
17083.453,-0.316,-0.219,-0.94,-5.58,9.09,0.73,2,0
17083.468,-0.309,-0.226,-0.931,-6.53,10.01,0.64,2,0
17083.468,-0.306,-0.233,-0.912,-7.2,10.8,0.0,2,0
17083.484,-0.312,-0.236,-0.903,-6.71,10.96,-1.07,2,0
17083.484,-0.317,-0.232,-0.899,-6.56,9.86,-1.86,2,0
17083.5,-0.315,-0.236,-0.901,-7.26,7.84,-2.2,2,0
17083.515,-0.308,-0.239,-0.91,-8.21,6.04,-2.38,2,0
17083.515,-0.298,-0.238,-0.927,-8.55,4.97,-2.81,2,0
17083.531,-0.287,-0.232,-0.942,-8.97,5.28,-3.66,2,0
17083.531,-0.28,-0.232,-0.941,-9.92,6.87,-5.13,2,0
17083.546,-0.282,-0.245,-0.932,-9.4,8.73,-6.5,2,0
17083.562,-0.29,-0.241,-0.916,-8.27,9.77,-7.72,2,0
17083.562,-0.3,-0.233,-0.904,-7.35,9.19,-8.15,2,0
17083.578,-0.304,-0.227,-0.889,-7.14,7.23,-7.84,2,0
17083.593,-0.309,-0.223,-0.887,-6.96,3.81,-7.51,2,0
17083.609,-0.306,-0.217,-0.895,-6.62,-0.21,-6.71,2,0
17083.609,-0.299,-0.211,-0.913,-6.29,-3.63,-5.46,2,0
17083.625,-0.295,-0.209,-0.934,-5.98,-5.92,-4.33,2,0
17083.625,-0.29,-0.218,-0.953,-5.28,-6.47,-3.2,2,0
17083.64,-0.281,-0.218,-0.972,-4.43,-5.37,-1.95,2,0
17083.656,-0.278,-0.218,-0.979,-2.99,-2.87,-0.7,2,0
17083.656,-0.278,-0.218,-0.972,-1.56,0.46,0.27,2,0
17083.671,-0.279,-0.22,-0.961,-0.67,3.27,1.04,2,0
17083.671,-0.276,-0.229,-0.939,0.37,4.97,1.74,2,0
17083.687,-0.276,-0.23,-0.923,1.59,5.86,1.83,2,0
17083.703,-0.277,-0.23,-0.906,1.5,5.65,1.37,2,0
17083.703,-0.279,-0.23,-0.89,0.85,4.3,0.76,2,0
17083.718,-0.279,-0.225,-0.887,0.27,2.01,-0.24,2,0
17083.734,-0.281,-0.224,-0.893,-0.82,-0.55,-1.59,2,0
17083.734,-0.28,-0.228,-0.901,-1.62,-2.69,-2.9,2,0
17083.75,-0.282,-0.228,-0.911,-2.11,-4.09,-4.21,2,0
17083.765,-0.282,-0.236,-0.921,-2.26,-4.52,-5.52,2,0
17083.765,-0.286,-0.23,-0.925,-2.2,-4.15,-6.87,2,0
17083.781,-0.302,-0.217,-0.929,-2.26,-3.69,-8.21,2,0
17083.781,-0.31,-0.209,-0.925,-2.78,-3.85,-9.16,2,0
17083.796,-0.318,-0.202,-0.915,-3.45,-4.85,-9.22,2,0
17083.812,-0.324,-0.196,-0.917,-3.2,-6.65,-8.18,2,0
17083.828,-0.321,-0.191,-0.928,-2.78,-8.91,-6.62,2,0
17083.828,-0.309,-0.199,-0.942,-2.41,-10.65,-4.27,2,0
17083.843,-0.297,-0.198,-0.962,-1.77,-11.14,-1.53,2,0
17083.843,-0.287,-0.196,-0.979,-0.98,-10.5,0.98,2,0
17083.859,-0.291,-0.202,-0.989,-0.95,-8.82,2.59,2,0
17083.875,-0.302,-0.211,-0.984,-0.55,-6.65,3.69,2,0
17083.875,-0.31,-0.212,-0.969,-0.4,-4.46,3.72,2,0
17083.89,-0.313,-0.214,-0.954,-0.92,-2.93,3.11,2,0
17083.906,-0.304,-0.218,-0.932,-1.71,-2.66,2.72,2,0
17083.906,-0.287,-0.217,-0.919,-1.74,-3.48,3.02,2,0
17083.921,-0.274,-0.217,-0.92,-1.46,-4.7,4.33,2,0
17083.921,-0.253,-0.223,-0.926,-1.46,-5.74,6.87,2,0
17083.937,-0.23,-0.236,-0.932,1.37,-3.78,9.98,2,0
17083.953,-0.22,-0.248,-0.945,2.29,-0.79,9.7,2,0
17083.953,-0.218,-0.248,-0.948,2.84,2.84,7.9,2,0
17083.968,-0.229,-0.25,-0.934,3.08,5.22,5.31,2,0
17083.984,-0.256,-0.252,-0.898,3.02,5.58,2.35,2,0
17084.0,-0.27,-0.254,-0.892,2.81,4.09,-0.52,2,0
17084.0,-0.278,-0.253,-0.899,2.11,1.68,-3.78,2,0
17084.015,-0.275,-0.249,-0.92,0.85,-1.25,-7.66,2,0
17084.015,-0.271,-0.25,-0.942,-0.64,-3.66,-11.72,2,0
17084.031,-0.267,-0.238,-0.974,-2.29,-4.3,-16.66,2,0
17084.046,-0.271,-0.224,-0.992,-4.58,-3.11,-21.94,2,0
17084.046,-0.282,-0.212,-0.989,-7.39,-1.37,-26.67,2,0
17084.062,-0.296,-0.204,-0.973,-9.19,0.24,-29.6,2,0
17084.062,-0.311,-0.2,-0.956,-9.64,1.04,-30.18,2,0
17084.078,-0.318,-0.191,-0.945,-8.7,0.64,-28.6,2,0
17084.093,-0.32,-0.182,-0.94,-7.2,0.09,-25.24,2,0
17084.093,-0.318,-0.178,-0.939,-5.62,-0.61,-20.97,2,0
17084.109,-0.313,-0.173,-0.942,-3.94,-0.61,-16.27,2,0
17084.125,-0.31,-0.168,-0.946,-2.17,-0.12,-11.57,2,0
17084.125,-0.306,-0.168,-0.944,-0.82,1.1,-6.87,2,0
17084.14,-0.301,-0.171,-0.944,0.7,2.44,-2.99,2,0
17084.156,-0.302,-0.173,-0.941,2.11,3.48,0.27,2,0
17084.156,-0.301,-0.171,-0.939,2.78,3.91,3.05,2,0
17084.171,-0.295,-0.178,-0.933,2.53,3.54,4.55,2,0
17084.171,-0.291,-0.192,-0.932,1.62,2.59,4.46,2,0
17084.187,-0.291,-0.215,-0.937,0.43,1.34,3.17,2,0
17084.203,-0.29,-0.23,-0.947,-0.58,0.46,0.55,2,0
17084.203,-0.294,-0.237,-0.955,-1.83,0.21,-2.62,2,0
17084.218,-0.294,-0.236,-0.955,-3.69,0.52,-4.73,2,0
17084.234,-0.289,-0.227,-0.946,-4.64,1.28,-6.44,2,0
17084.25,-0.293,-0.224,-0.942,-4.7,2.23,-7.63,2,0
17084.25,-0.283,-0.227,-0.921,-4.76,2.44,-7.51,2,0
17084.25,-0.285,-0.226,-0.929,-3.02,2.2,-6.9,2,0
17084.265,-0.289,-0.2,-0.922,-1.56,2.32,-6.26,2,0
17084.281,-0.297,-0.196,-0.928,-0.95,2.29,-5.92,2,0
17084.281,-0.297,-0.191,-0.925,-1.98,1.74,-5.55,2,0
17084.296,-0.301,-0.191,-0.915,-3.51,0.76,-5.68,2,0
17084.312,-0.306,-0.191,-0.916,-4.12,-0.27,-5.37,2,0
17084.312,-0.3,-0.194,-0.924,-3.88,-1.01,-2.96,2,0
17084.328,-0.29,-0.198,-0.927,-2.41,-0.85,0.4,2,0
17084.343,-0.288,-0.202,-0.931,0.27,0.4,3.97,2,0
17084.343,-0.288,-0.203,-0.936,2.41,1.59,7.45,2,0
17084.359,-0.29,-0.203,-0.929,3.36,2.17,9.67,2,0
17084.375,-0.292,-0.205,-0.932,3.66,2.29,10.71,2,0
17084.375,-0.288,-0.204,-0.935,2.87,1.86,10.68,2,0
17084.39,-0.284,-0.212,-0.933,2.11,1.16,10.07,2,0
17084.39,-0.282,-0.213,-0.934,2.04,0.52,9.7,2,0
17084.406,-0.276,-0.22,-0.93,2.26,0.0,9.8,2,0
17084.421,-0.278,-0.23,-0.933,2.78,-0.52,9.98,2,0
17084.421,-0.275,-0.226,-0.937,3.08,-0.67,10.38,2,0
17084.437,-0.274,-0.222,-0.942,3.48,-0.12,10.07,2,0
17084.453,-0.275,-0.226,-0.943,3.63,0.55,9.09,2,0
17084.453,-0.274,-0.225,-0.937,3.27,0.7,8.03,2,0
17084.468,-0.274,-0.219,-0.933,2.78,0.37,6.84,2,0
17084.484,-0.272,-0.224,-0.936,2.11,-0.73,5.98,2,0
17084.484,-0.266,-0.234,-0.941,1.46,-1.46,6.01,2,0
17084.5,-0.261,-0.235,-0.95,1.92,-1.56,6.04,2,0
17084.515,-0.259,-0.236,-0.956,2.62,-0.58,5.4,2,0
17084.515,-0.268,-0.229,-0.958,2.78,0.98,4.18,2,0
17084.531,-0.273,-0.228,-0.945,2.56,2.32,2.93,2,0
17084.531,-0.274,-0.232,-0.933,1.98,2.2,1.46,2,0
17084.546,-0.271,-0.235,-0.932,1.71,1.22,0.58,2,0
17084.562,-0.27,-0.232,-0.935,1.74,0.46,0.46,2,0
17084.562,-0.268,-0.231,-0.939,1.92,0.09,0.27,2,0
17084.578,-0.267,-0.231,-0.939,1.71,0.06,-0.52,2,0
17084.593,-0.27,-0.231,-0.934,1.5,0.0,-1.59,2,0
17084.609,-0.274,-0.22,-0.941,1.62,0.09,-2.26,2,0
17084.609,-0.27,-0.211,-0.942,0.4,0.06,-2.81,2,0
17084.625,-0.271,-0.221,-0.937,-0.92,0.06,-3.02,2,0
17084.625,-0.272,-0.225,-0.93,-0.15,0.18,-2.23,2,0
17084.64,-0.27,-0.224,-0.932,2.04,0.24,-0.76,2,0
17084.656,-0.27,-0.221,-0.939,3.08,0.24,0.55,2,0
17084.656,-0.266,-0.216,-0.94,3.2,0.27,1.31,2,0
17084.671,-0.264,-0.219,-0.94,3.08,0.55,1.01,2,0
17084.671,-0.268,-0.219,-0.937,2.78,0.46,-0.03,2,0
17084.687,-0.277,-0.206,-0.934,2.14,-0.18,-0.92,2,0
17084.703,-0.281,-0.199,-0.934,1.19,-1.28,-1.34,2,0
17084.703,-0.284,-0.21,-0.928,0.37,-2.38,-0.95,2,0
17084.718,-0.287,-0.219,-0.924,1.56,-3.14,0.61,2,0
17084.734,-0.285,-0.215,-0.934,4.12,-3.48,2.99,2,0
17084.734,-0.281,-0.202,-0.955,5.58,-3.17,5.86,2,0
17084.75,-0.276,-0.201,-0.969,5.22,-1.53,7.69,2,0
17084.765,-0.271,-0.212,-0.974,4.52,1.4,8.24,2,0
17084.765,-0.265,-0.217,-0.963,4.36,4.88,8.0,2,0
17084.781,-0.265,-0.216,-0.949,5.01,7.63,7.29,2,0
17084.781,-0.268,-0.217,-0.935,5.43,8.88,6.81,2,0
17084.796,-0.268,-0.217,-0.92,5.1,8.76,6.78,2,0
17084.812,-0.269,-0.225,-0.908,5.71,7.81,6.81,2,0
17084.828,-0.271,-0.229,-0.91,6.53,5.95,6.47,2,0
17084.828,-0.269,-0.222,-0.915,5.98,3.78,5.4,2,0
17084.843,-0.271,-0.224,-0.923,4.3,1.83,3.66,2,0
17084.843,-0.267,-0.225,-0.931,1.98,0.12,1.74,2,0
17084.859,-0.261,-0.226,-0.931,-0.61,-0.76,-0.18,2,0
17084.875,-0.266,-0.237,-0.929,-1.74,-1.16,-2.14,2,0
17084.875,-0.269,-0.239,-0.934,-1.37,-1.1,-3.36,2,0
17084.89,-0.271,-0.229,-0.937,-0.61,-0.61,-3.57,2,0
17084.906,-0.272,-0.224,-0.941,-0.55,0.24,-2.99,2,0
17084.906,-0.273,-0.221,-0.937,-0.49,0.7,-2.41,2,0
17084.921,-0.278,-0.217,-0.94,-0.12,0.61,-2.01,2,0
17084.921,-0.284,-0.212,-0.943,-0.15,-0.67,-0.09,2,0
17084.937,-0.284,-0.207,-0.941,-0.73,-1.56,0.82,2,0
17084.953,-0.283,-0.213,-0.942,-0.92,-2.32,1.34,2,0
17084.953,-0.276,-0.222,-0.948,-0.73,-2.53,1.95,2,0
17084.968,-0.276,-0.229,-0.945,-0.21,-2.08,2.11,2,0
17084.984,-0.282,-0.236,-0.939,0.06,-1.31,2.26,2,0
17084.984,-0.284,-0.237,-0.931,0.46,-0.85,2.69,2,0
17085.0,-0.286,-0.234,-0.925,1.07,-1.1,3.02,2,0
17085.015,-0.285,-0.234,-0.919,0.95,-1.98,3.14,2,0
17085.015,-0.284,-0.242,-0.917,0.58,-3.39,2.96,2,0
17085.031,-0.276,-0.241,-0.926,0.61,-4.64,2.78,2,0
17085.046,-0.272,-0.233,-0.932,0.12,-5.13,2.5,2,0
17085.046,-0.274,-0.236,-0.927,-0.46,-5.28,1.83,2,0
17085.062,-0.274,-0.242,-0.924,-0.09,-5.86,1.5,2,0
17085.062,-0.273,-0.238,-0.932,0.58,-6.47,1.53,2,0
17085.078,-0.275,-0.232,-0.939,0.98,-6.59,1.86,2,0
17085.093,-0.275,-0.235,-0.939,0.76,-6.32,2.11,2,0
17085.093,-0.274,-0.24,-0.941,1.13,-6.07,2.14,2,0
17085.109,-0.272,-0.232,-0.953,1.31,-5.62,2.56,2,0
17085.125,-0.268,-0.232,-0.954,0.7,-4.7,2.81,2,0
17085.125,-0.271,-0.244,-0.951,0.73,-3.63,2.69,2,0
17085.14,-0.273,-0.241,-0.944,1.92,-2.84,2.87,2,0
17085.156,-0.274,-0.236,-0.938,2.56,-2.47,3.39,2,0
17085.156,-0.275,-0.239,-0.928,2.35,-2.99,4.03,2,0
17085.171,-0.268,-0.243,-0.929,2.66,-4.3,4.46,2,0
17085.187,-0.264,-0.24,-0.934,2.87,-5.34,4.43,2,0
17085.187,-0.259,-0.24,-0.941,3.17,-5.52,4.3,2,0
17085.203,-0.257,-0.245,-0.942,3.39,-4.88,4.39,2,0
17085.203,-0.26,-0.25,-0.938,3.75,-3.75,4.15,2,0
17085.218,-0.264,-0.252,-0.934,4.7,-2.78,3.69,2,0
