timestamp,ax,ay,az,gx,gy,gz,orient_label,motion_label
16228.484,-0.292,0.017,0.951,-2.53,0.06,2.69,1,0
16228.484,-0.286,0.005,0.955,-3.08,-0.21,2.78,1,0
16228.5,-0.28,0.001,0.951,-1.83,-0.09,2.35,1,0
16228.515,-0.277,0.005,0.951,-0.85,0.09,1.22,1,0
16228.515,-0.281,0.009,0.953,-0.46,0.03,-0.24,1,0
16228.531,-0.285,0.013,0.959,-0.46,-0.24,-1.16,1,0
16228.531,-0.287,0.017,0.956,-0.15,-0.73,-1.37,1,0
16228.546,-0.288,0.023,0.95,-0.06,-0.89,-1.37,1,0
16228.562,-0.288,0.028,0.951,-0.52,-0.61,-1.1,1,0
16228.578,-0.29,0.029,0.954,-0.37,0.03,-0.4,1,0
16228.578,-0.297,0.033,0.96,0.06,0.82,0.76,1,0
16228.593,-0.299,0.033,0.97,-0.89,0.49,1.68,1,0
16228.593,-0.295,0.026,0.977,-2.41,-0.79,1.89,1,0
16228.609,-0.289,0.015,0.973,-2.23,-1.71,1.89,1,0
16228.625,-0.286,0.011,0.969,-0.58,-1.86,1.56,1,0
16228.625,-0.29,0.011,0.965,0.61,-2.11,0.89,1,0
16228.64,-0.293,0.008,0.956,1.31,-2.2,0.31,1,0
16228.656,-0.287,0.008,0.957,0.34,-1.56,-0.24,1,0
16228.671,-0.284,0.008,0.965,0.52,-1.28,-0.58,1,0
16228.671,-0.286,0.012,0.973,1.68,-1.5,-1.37,1,0
16228.687,-0.288,0.016,0.977,3.05,-1.86,-2.23,1,0
16228.703,-0.284,0.019,0.976,4.33,-2.78,-3.05,1,0
16228.703,-0.28,0.021,0.965,5.58,-3.45,-3.3,1,0
16228.718,-0.278,0.026,0.953,6.71,-3.27,-3.14,1,0
16228.734,-0.287,0.032,0.954,7.2,-2.62,-2.81,1,0
16228.734,-0.299,0.024,0.955,7.2,-2.66,-2.08,1,0
16228.75,-0.301,0.037,0.931,5.86,-3.08,-1.22,1,0
16228.75,-0.302,0.023,0.93,4.0,-2.62,-0.03,1,0
16228.765,-0.293,0.032,0.943,0.09,-2.72,0.15,1,0
16228.781,-0.279,0.027,0.924,0.73,-1.5,0.43,1,0
16228.796,-0.283,0.021,0.934,1.46,0.24,0.34,1,0
16228.796,-0.287,0.022,0.945,1.71,1.07,-0.37,1,0
16228.812,-0.3,0.023,0.967,1.62,1.1,-0.52,1,0
16228.828,-0.293,0.032,0.968,1.65,-3.08,0.03,1,0
16228.843,-0.281,0.03,0.953,0.92,-4.36,-0.24,1,0
16228.843,-0.279,0.029,0.944,0.92,-3.81,-0.55,1,0
16228.859,-0.279,0.033,0.937,1.16,-2.32,-0.4,1,0
16228.875,-0.28,0.036,0.934,0.89,-0.55,0.03,1,0
16228.875,-0.281,0.035,0.942,-0.12,0.79,0.64,1,0
16228.89,-0.286,0.034,0.953,-1.25,1.53,1.31,1,0
16228.89,-0.286,0.028,0.963,-1.62,1.5,1.68,1,0
16228.906,-0.283,0.022,0.964,-0.79,1.01,2.01,1,0
16228.921,-0.283,0.021,0.967,0.06,0.49,1.86,1,0
16228.921,-0.288,0.019,0.965,0.24,-0.31,1.43,1,0
16228.937,-0.286,0.015,0.961,-0.18,-1.31,0.79,1,0
16228.953,-0.283,0.01,0.959,-0.09,-1.83,-0.09,1,0
16228.953,-0.284,0.014,0.95,1.01,-1.31,-0.95,1,0
16228.968,-0.296,0.019,0.95,1.46,-0.64,-1.34,1,0
16228.984,-0.304,0.022,0.955,0.95,-0.64,-1.13,1,0
16229.0,-0.285,0.024,0.945,0.18,-1.13,-0.55,1,0
16229.015,-0.286,0.026,0.945,0.85,-0.27,-0.67,1,0
16229.015,-0.292,0.032,0.953,1.53,0.61,-0.73,1,0
16229.031,-0.289,0.027,0.963,2.11,0.98,-0.76,1,0
16229.031,-0.294,0.035,0.972,2.44,0.98,-1.07,1,0
16229.046,-0.286,0.025,0.957,4.21,0.79,-1.53,1,0
16229.062,-0.272,0.023,0.944,5.62,1.34,-2.41,1,0
16229.062,-0.273,0.027,0.957,7.51,1.98,-3.88,1,0
16229.078,-0.265,0.025,0.952,10.71,3.2,-5.92,1,0
16229.093,-0.264,0.038,0.968,12.82,4.91,-8.24,1,0
16229.093,-0.262,0.042,0.97,18.19,5.46,-11.41,1,0
16229.109,-0.284,0.078,0.988,23.99,6.71,-11.75,1,0
16229.125,-0.292,0.11,0.996,24.26,6.2,-9.83,1,0
16229.125,-0.32,0.142,1.01,18.31,4.27,-7.23,1,0
16229.14,-0.343,0.146,1.074,11.05,-1.83,-2.44,1,0
16229.156,-0.322,0.135,1.081,13.52,-15.84,8.21,1,0
16229.171,-0.246,0.132,1.01,19.14,-18.01,11.32,1,0
16229.171,-0.262,0.115,1.011,20.81,-17.94,11.32,1,0
16229.187,-0.275,0.094,1.0,24.38,-18.04,11.29,1,0
16229.203,-0.276,0.086,0.992,28.08,-18.49,11.35,1,0
16229.203,-0.263,0.069,0.946,31.01,-17.55,11.26,1,0
16229.218,-0.254,0.035,0.905,34.55,-12.91,11.47,1,0
16229.234,-0.25,0.016,0.848,38.48,-4.43,11.72,1,0
16229.234,-0.27,0.018,0.828,38.45,7.48,11.81,1,0
16229.25,-0.311,-0.011,0.836,37.42,18.52,12.76,1,0
16229.265,-0.341,-0.031,0.862,32.78,23.01,11.14,1,0
16229.265,-0.339,-0.042,0.888,27.77,24.66,7.14,1,0
16229.281,-0.351,-0.07,0.893,28.5,27.13,0.67,1,0
16229.281,-0.343,-0.069,0.894,31.62,26.67,-6.32,1,0
16229.296,-0.325,-0.062,0.897,38.51,27.1,-15.17,1,0
16229.312,-0.315,-0.066,0.895,48.04,29.05,-25.61,1,0
16229.328,-0.297,-0.056,0.877,58.05,30.82,-37.02,1,0
16229.343,-0.302,-0.024,0.773,85.18,50.78,-60.27,1,0
16229.343,-0.299,0.016,0.76,95.58,61.43,-69.52,1,0
16229.359,-0.314,0.046,0.771,102.57,72.57,-79.38,1,0
16229.375,-0.355,0.093,0.787,107.79,81.36,-88.35,1,0
16229.375,-0.39,0.15,0.834,111.18,86.79,-94.36,1,0
16229.39,-0.451,0.181,0.846,117.01,89.66,-95.77,1,0
16229.39,-0.487,0.246,0.823,118.99,88.26,-92.26,1,0
16229.406,-0.506,0.337,0.8,111.91,86.73,-83.01,1,0
16229.421,-0.525,0.382,0.786,98.09,86.61,-70.5,1,0
16229.437,-0.538,0.403,0.796,81.03,85.02,-57.59,1,0
16229.437,-0.542,0.39,0.777,64.52,81.36,-45.47,1,0
16229.453,-0.523,0.378,0.753,48.1,78.71,-35.19,1,0
16229.453,-0.501,0.359,0.741,33.39,78.37,-28.96,1,0
16229.468,-0.476,0.319,0.729,23.1,82.37,-26.61,1,0
16229.484,-0.476,0.286,0.704,17.12,86.7,-28.69,1,0
16229.484,-0.466,0.242,0.695,15.44,93.05,-34.03,1,0
16229.5,-0.466,0.2,0.698,21.21,104.31,-39.98,1,0
16229.515,-0.485,0.181,0.691,30.76,113.25,-47.7,1,0
16229.515,-0.554,0.212,0.772,43.98,121.22,-55.12,1,0
16229.531,-0.662,0.218,0.812,64.88,123.81,-62.69,1,0
16229.546,-0.73,0.223,0.818,85.48,116.55,-63.02,1,0
16229.546,-0.746,0.26,0.815,103.61,104.53,-56.76,1,0
16229.562,-0.722,0.305,0.791,113.65,89.33,-51.36,1,0
16229.578,-0.686,0.353,0.759,111.82,74.28,-49.75,1,0
16229.578,-0.665,0.387,0.733,99.31,60.55,-50.75,1,0
16229.593,-0.654,0.402,0.711,80.11,49.41,-53.5,1,0
16229.593,-0.66,0.397,0.69,59.24,40.71,-56.37,1,0
16229.609,-0.651,0.372,0.656,42.42,35.46,-57.37,1,0
16229.625,-0.652,0.348,0.611,31.31,34.76,-58.02,1,0
16229.625,-0.656,0.323,0.576,25.39,37.54,-60.03,1,0
16229.64,-0.67,0.305,0.587,24.32,42.45,-63.23,1,0
16229.656,-0.741,0.319,0.638,30.15,46.57,-65.25,1,0
16229.656,-0.798,0.31,0.651,42.51,46.27,-60.34,1,0
16229.671,-0.804,0.308,0.637,55.39,43.18,-50.08,1,0
16229.671,-0.792,0.318,0.615,65.8,39.4,-41.32,1,0
16229.687,-0.78,0.331,0.583,68.97,34.27,-38.54,1,0
16229.703,-0.791,0.339,0.552,64.24,29.15,-38.91,1,0
16229.703,-0.79,0.361,0.534,53.53,23.93,-39.4,1,0
16229.718,-0.794,0.38,0.516,40.65,19.23,-38.73,1,0
16229.734,-0.781,0.371,0.495,28.5,16.82,-36.77,1,0
16229.734,-0.778,0.371,0.474,17.55,17.06,-34.49,1,0
16229.75,-0.782,0.356,0.463,8.97,18.83,-32.96,1,0
16229.765,-0.785,0.338,0.458,4.3,22.49,-31.16,1,0
16229.781,-0.797,0.325,0.469,4.43,28.05,-28.35,1,0
16229.781,-0.815,0.322,0.503,5.65,33.08,-24.35,1,0
16229.781,-0.838,0.333,0.516,7.84,36.23,-19.87,1,0
16229.796,-0.841,0.32,0.52,11.51,38.0,-14.74,1,0
16229.812,-0.851,0.314,0.544,15.38,38.79,-10.07,1,0
16229.828,-0.855,0.307,0.559,19.87,37.63,-6.23,1,0
16229.843,-0.871,0.321,0.6,28.29,30.64,0.18,1,0
16229.843,-0.871,0.331,0.619,31.16,25.7,4.15,1,0
16229.859,-0.872,0.339,0.636,31.53,19.81,7.78,1,0
16229.875,-0.88,0.327,0.658,31.28,11.99,10.25,1,0
16229.875,-0.884,0.318,0.678,32.44,2.62,11.54,1,0
16229.89,-0.883,0.309,0.68,35.83,-7.29,11.78,1,0
16229.906,-0.878,0.304,0.669,40.68,-16.97,10.65,1,0
16229.906,-0.868,0.307,0.656,46.39,-24.96,9.25,1,0
16229.921,-0.86,0.329,0.644,53.32,-29.69,8.3,1,0
16229.921,-0.859,0.357,0.628,59.51,-31.1,9.19,1,0
16229.937,-0.859,0.383,0.624,64.06,-31.04,11.14,1,0
16229.953,-0.869,0.42,0.626,65.4,-30.55,14.5,1,0
16229.968,-0.882,0.463,0.621,62.17,-31.34,18.34,1,0
16229.968,-0.889,0.498,0.609,53.35,-34.67,22.89,1,0
16229.984,-0.894,0.513,0.601,40.35,-40.59,27.5,1,0
16229.984,-0.88,0.516,0.602,26.22,-46.63,32.38,1,0
16230.015,-0.835,0.515,0.641,4.36,-51.0,39.95,1,0
16230.015,-0.833,0.526,0.685,0.49,-49.17,41.47,1,0
16230.031,-0.855,0.552,0.722,1.22,-47.36,43.12,1,0
16230.046,-0.874,0.562,0.754,7.23,-47.55,46.97,1,0
16230.046,-0.881,0.564,0.774,15.47,-50.72,53.07,1,0
16230.062,-0.86,0.573,0.783,23.38,-56.64,59.45,1,0
16230.062,-0.819,0.573,0.775,29.11,-62.47,63.81,1,0
16230.078,-0.801,0.563,0.769,32.07,-67.45,65.31,1,0
16230.093,-0.788,0.547,0.769,33.69,-72.18,65.58,1,0
16230.093,-0.775,0.536,0.756,34.76,-77.61,65.34,1,0
16230.109,-0.751,0.546,0.738,33.69,-83.04,64.18,1,0
16230.125,-0.727,0.563,0.72,29.05,-87.59,63.08,1,0
16230.125,-0.713,0.574,0.689,13.28,-94.64,62.99,1,0
16230.14,-0.699,0.589,0.671,5.58,-95.28,65.52,1,0
16230.14,-0.678,0.582,0.655,-0.61,-94.85,68.82,1,0
16230.156,-0.657,0.549,0.633,-4.46,-93.84,71.41,1,0
16230.171,-0.579,0.449,0.579,-5.28,-88.99,70.47,1,0
16230.187,-0.554,0.403,0.558,-2.2,-86.98,67.93,1,0
16230.203,-0.528,0.415,0.547,1.25,-83.9,65.71,1,0
16230.218,-0.505,0.427,0.532,3.75,-80.29,62.35,1,0
16230.218,-0.484,0.385,0.507,6.5,-77.82,58.87,1,0
16230.234,-0.456,0.352,0.479,9.58,-75.81,56.49,1,0
16230.234,-0.417,0.325,0.442,13.03,-74.22,53.13,1,0
16230.25,-0.391,0.296,0.404,15.99,-71.96,48.31,1,0
16230.265,-0.38,0.289,0.369,18.13,-68.51,42.24,1,0
16230.265,-0.371,0.302,0.341,18.86,-63.57,35.92,1,0
16230.281,-0.372,0.317,0.324,17.76,-56.98,29.66,1,0
16230.281,-0.373,0.312,0.304,16.17,-50.02,24.08,1,0
16230.296,-0.372,0.316,0.294,14.4,-42.45,19.47,1,0
16230.312,-0.364,0.323,0.297,13.09,-33.72,14.77,1,0
16230.312,-0.363,0.318,0.301,14.53,-23.65,9.77,1,0
16230.328,-0.367,0.31,0.308,17.73,-13.18,6.04,1,0
16230.343,-0.379,0.307,0.32,22.13,-3.69,3.14,1,0
16230.343,-0.395,0.297,0.332,27.71,3.57,1.53,1,0
16230.359,-0.404,0.287,0.34,33.72,8.3,0.89,1,0
16230.375,-0.405,0.284,0.341,38.94,11.32,-0.34,1,0
16230.375,-0.402,0.297,0.342,41.44,13.58,-4.39,1,0
16230.39,-0.413,0.338,0.342,40.07,16.57,-11.2,1,0
16230.406,-0.439,0.406,0.346,33.05,20.6,-17.91,1,0
16230.406,-0.468,0.474,0.366,20.66,25.76,-22.25,1,0
16230.421,-0.506,0.536,0.405,6.23,31.28,-23.53,1,0
16230.421,-0.541,0.579,0.443,-7.51,35.37,-22.37,1,0
16230.437,-0.565,0.586,0.482,-18.62,36.56,-19.2,1,0
16230.453,-0.569,0.572,0.527,-25.03,35.74,-15.44,1,0
16230.453,-0.568,0.557,0.562,-25.36,33.72,-12.94,1,0
16230.468,-0.562,0.539,0.583,-20.87,31.04,-12.24,1,0
16230.484,-0.55,0.531,0.596,-13.79,28.08,-12.6,1,0
16230.484,-0.534,0.525,0.597,-5.8,26.06,-13.79,1,0
16230.5,-0.523,0.521,0.587,1.37,25.24,-16.69,1,0
16230.515,-0.516,0.522,0.58,6.87,25.3,-20.6,1,0
16230.515,-0.515,0.529,0.576,10.59,26.06,-24.81,1,0
16230.531,-0.515,0.53,0.572,13.34,27.22,-27.77,1,0
16230.531,-0.511,0.519,0.574,15.99,28.38,-29.76,1,0
16230.546,-0.513,0.526,0.571,19.26,29.91,-31.46,1,0
16230.562,-0.519,0.543,0.572,21.33,31.37,-32.84,1,0
16230.562,-0.528,0.557,0.574,21.52,32.75,-34.36,1,0
16230.578,-0.539,0.565,0.577,20.45,33.78,-35.13,1,0
16230.593,-0.546,0.597,0.582,17.18,35.4,-35.52,1,0
16230.609,-0.57,0.636,0.59,12.18,36.99,-35.49,1,0
16230.609,-0.599,0.667,0.61,4.82,37.75,-33.54,1,0
16230.625,-0.615,0.679,0.639,-3.85,36.1,-29.79,1,0
16230.625,-0.617,0.683,0.665,-10.86,32.65,-25.64,1,0
16230.64,-0.61,0.677,0.68,-14.77,29.3,-21.49,1,0
16230.64,-0.601,0.667,0.688,-16.08,26.64,-18.49,1,0
16230.656,-0.592,0.658,0.703,-14.89,25.15,-16.27,1,0
16230.671,-0.587,0.649,0.731,-11.6,24.6,-15.5,1,0
16230.671,-0.57,0.595,0.811,-2.66,23.99,-15.99,1,0
16230.687,-0.57,0.539,0.864,17.67,22.25,-18.1,1,0
16230.703,-0.567,0.555,0.85,41.11,18.37,-20.39,1,0
16230.703,-0.549,0.584,0.815,58.11,12.45,-23.22,1,0
16230.718,-0.54,0.614,0.773,68.06,6.84,-27.22,1,0
16230.734,-0.539,0.668,0.72,70.83,2.81,-28.72,1,0
16230.734,-0.542,0.709,0.67,65.22,-0.09,-27.16,1,0
16230.75,-0.549,0.738,0.635,52.64,-2.53,-23.32,1,0
16230.765,-0.547,0.756,0.608,35.16,-5.62,-18.37,1,0
16230.765,-0.543,0.752,0.596,16.36,-8.51,-13.7,1,0
16230.781,-0.547,0.732,0.593,0.18,-10.86,-9.28,1,0
16230.781,-0.548,0.706,0.596,-11.81,-12.88,-4.85,1,0
16230.796,-0.547,0.675,0.604,-18.01,-14.01,-1.62,1,0
16230.812,-0.558,0.661,0.616,-18.74,-13.76,0.61,1,0
16230.828,-0.561,0.646,0.636,-15.78,-12.45,2.9,1,0
16230.828,-0.571,0.64,0.656,-10.01,-10.86,4.58,1,0
16230.843,-0.594,0.639,0.691,5.49,-12.05,5.8,1,0
16230.859,-0.6,0.65,0.697,12.39,-14.92,5.55,1,0
16230.875,-0.6,0.658,0.691,17.27,-19.26,5.19,1,0
16230.875,-0.591,0.667,0.686,20.63,-23.59,5.28,1,0
16230.89,-0.588,0.675,0.685,23.83,-27.01,5.04,1,0
16230.89,-0.59,0.694,0.67,26.4,-29.24,5.95,1,0
16230.906,-0.588,0.708,0.662,26.61,-30.64,8.06,1,0
16230.921,-0.587,0.722,0.658,25.21,-31.89,10.1,1,0
16230.921,-0.585,0.723,0.652,23.1,-33.39,12.15,1,0
16230.937,-0.586,0.722,0.647,20.91,-35.16,14.77,1,0
16230.953,-0.578,0.723,0.637,18.34,-37.29,17.58,1,0
16230.968,-0.569,0.711,0.632,15.44,-39.64,19.87,1,0
16230.968,-0.558,0.694,0.627,13.92,-42.18,21.45,1,0
16230.984,-0.542,0.684,0.611,13.61,-44.34,22.4,1,0
16230.984,-0.528,0.67,0.599,14.5,-45.66,22.83,1,0
16231.0,-0.511,0.662,0.588,16.27,-45.9,22.34,1,0
16231.015,-0.504,0.646,0.557,19.96,-43.15,22.58,1,0
16231.031,-0.49,0.638,0.536,21.33,-41.29,23.07,1,0
16231.046,-0.477,0.62,0.511,22.1,-38.7,23.29,1,0
16231.046,-0.461,0.606,0.496,22.22,-35.65,22.16,1,0
16231.062,-0.452,0.595,0.473,22.0,-32.11,20.23,1,0
16231.062,-0.445,0.576,0.455,20.81,-28.53,18.1,1,0
16231.078,-0.435,0.563,0.437,19.65,-24.6,16.39,1,0
16231.093,-0.423,0.553,0.417,18.77,-20.08,14.92,1,0
16231.093,-0.421,0.538,0.396,17.85,-14.74,13.0,1,0
16231.109,-0.422,0.526,0.376,14.1,-3.48,7.9,1,0
16231.125,-0.418,0.516,0.361,10.93,2.66,4.85,1,0
16231.125,-0.42,0.506,0.348,7.08,8.64,1.56,1,0
16231.14,-0.426,0.498,0.341,3.05,13.67,-1.22,1,0
16231.14,-0.457,0.481,0.345,-0.49,17.43,-2.59,1,0
16231.156,-0.471,0.488,0.353,-3.66,19.84,-2.84,1,0
16231.171,-0.48,0.494,0.358,-6.87,21.33,-2.96,1,0
16231.187,-0.483,0.506,0.359,-16.42,23.74,-4.85,1,0
16231.203,-0.488,0.507,0.363,-22.37,25.15,-6.62,1,0
16231.203,-0.49,0.509,0.371,-28.17,27.1,-8.33,1,0
16231.218,-0.498,0.508,0.376,-32.81,29.33,-10.77,1,0
16231.234,-0.496,0.498,0.371,-34.97,31.95,-13.52,1,0
16231.234,-0.501,0.491,0.381,-35.31,36.16,-16.57,1,0
16231.25,-0.51,0.509,0.407,-38.15,38.97,-20.26,1,0
16231.265,-0.513,0.502,0.405,-38.48,41.69,-24.02,1,0
16231.265,-0.548,0.512,0.418,-36.53,44.68,-26.8,1,0
16231.281,-0.559,0.52,0.441,-32.99,46.05,-26.09,1,0
16231.281,-0.564,0.519,0.478,-29.69,45.93,-23.96,1,0
16231.296,-0.569,0.513,0.485,-27.07,43.03,-22.89,1,0
16231.312,-0.574,0.497,0.486,-24.11,39.49,-23.01,1,0
16231.312,-0.582,0.499,0.499,-21.97,35.92,-23.8,1,0
16231.328,-0.581,0.499,0.505,-19.68,32.32,-25.06,1,0
16231.343,-0.576,0.492,0.498,-17.58,29.97,-26.34,1,0
16231.359,-0.573,0.482,0.492,-16.08,29.33,-27.5,1,0
16231.359,-0.567,0.465,0.49,-14.71,29.76,-28.96,1,0
16231.375,-0.563,0.447,0.492,-13.06,30.58,-30.46,1,0
16231.375,-0.563,0.437,0.495,-11.2,31.53,-31.92,1,0
16231.39,-0.564,0.425,0.497,-9.49,32.32,-33.54,1,0
16231.39,-0.574,0.421,0.508,-7.75,32.53,-35.37,1,0
16231.406,-0.593,0.431,0.521,-5.89,31.95,-37.14,1,0
16231.421,-0.613,0.452,0.536,-4.39,30.85,-38.61,1,0
16231.421,-0.635,0.481,0.561,-3.33,29.18,-40.01,1,0
16231.437,-0.663,0.5,0.575,-2.47,26.7,-40.41,1,0
16231.453,-0.69,0.52,0.593,-2.11,24.02,-39.58,1,0
16231.453,-0.704,0.539,0.617,-2.47,20.42,-37.97,1,0
16231.468,-0.704,0.562,0.62,-3.27,16.88,-36.84,1,0
16231.484,-0.711,0.575,0.614,-4.67,15.2,-37.35,1,0
16231.5,-0.718,0.594,0.628,-8.39,14.31,-38.36,1,0
16231.5,-0.727,0.61,0.648,-13.28,14.56,-39.55,1,0
16231.515,-0.727,0.6,0.667,-17.03,14.4,-38.42,1,0
16231.515,-0.724,0.612,0.67,-15.93,15.81,-39.46,1,0
16231.531,-0.741,0.586,0.675,-11.9,17.49,-40.13,1,0
16231.531,-0.746,0.585,0.686,-7.72,17.4,-38.88,1,0
16231.546,-0.747,0.592,0.68,-1.01,16.33,-38.42,1,0
16231.562,-0.753,0.575,0.674,6.07,14.4,-37.08,1,0
16231.578,-0.75,0.57,0.663,13.4,11.54,-35.37,1,0
16231.578,-0.739,0.571,0.632,20.78,9.06,-33.78,1,0
16231.593,-0.727,0.557,0.612,26.67,7.39,-32.2,1,0
16231.593,-0.712,0.548,0.584,31.1,6.59,-30.73,1,0
16231.609,-0.698,0.545,0.557,33.97,6.84,-30.18,1,0
16231.625,-0.692,0.536,0.534,34.85,8.36,-29.54,1,0
16231.625,-0.686,0.534,0.517,33.42,10.53,-28.5,1,0
16231.64,-0.686,0.53,0.503,30.95,12.54,-27.53,1,0
16231.656,-0.691,0.519,0.493,27.8,14.19,-26.52,1,0
16231.656,-0.694,0.518,0.487,24.05,15.47,-25.24,1,0
16231.671,-0.696,0.516,0.48,19.75,16.42,-23.99,1,0
16231.671,-0.696,0.511,0.477,15.08,16.91,-22.89,1,0
16231.687,-0.702,0.506,0.477,10.86,16.97,-21.58,1,0
16231.703,-0.703,0.499,0.476,6.96,16.54,-20.05,1,0
16231.703,-0.697,0.495,0.473,3.11,15.72,-18.74,1,0
16231.718,-0.701,0.491,0.471,-0.31,15.17,-17.82,1,0
16231.734,-0.704,0.484,0.468,-3.2,14.77,-16.94,1,0
16231.734,-0.705,0.48,0.465,-5.65,14.5,-15.93,1,0
16231.75,-0.707,0.484,0.465,-7.78,14.34,-15.47,1,0
16231.765,-0.718,0.489,0.468,-9.98,14.4,-15.44,1,0
16231.765,-0.732,0.486,0.472,-11.72,14.07,-14.92,1,0
16231.781,-0.746,0.49,0.475,-13.21,13.37,-13.28,1,0
16231.796,-0.754,0.499,0.472,-15.32,11.84,-11.05,1,0
16231.796,-0.755,0.498,0.474,-18.95,9.74,-9.37,1,0
16231.812,-0.759,0.489,0.476,-22.4,7.9,-8.15,1,0
16231.812,-0.769,0.48,0.482,-25.3,6.1,-6.62,1,0
16231.828,-0.77,0.477,0.483,-27.34,4.03,-4.49,1,0
16231.843,-0.766,0.467,0.477,-28.9,1.98,-2.72,1,0
16231.859,-0.764,0.454,0.48,-31.25,-1.01,-1.65,1,0
16231.875,-0.768,0.446,0.48,-31.19,-1.86,-1.83,1,0
16231.875,-0.779,0.439,0.482,-30.3,-2.75,-1.89,1,0
16231.89,-0.781,0.429,0.491,-28.75,-3.78,-1.4,1,0
16231.906,-0.785,0.425,0.493,-25.82,-4.85,-0.92,1,0
16231.906,-0.786,0.42,0.494,-22.19,-5.92,-0.7,1,0
16231.921,-0.79,0.42,0.496,-18.8,-7.02,-0.4,1,0
16231.921,-0.782,0.415,0.498,-15.47,-7.84,0.34,1,0
16231.937,-0.777,0.422,0.494,-13.28,-7.84,0.34,1,0
16231.953,-0.782,0.422,0.49,-13.28,-8.18,-0.76,1,0
16231.953,-0.785,0.409,0.495,-13.61,-9.13,-1.65,1,0
16231.968,-0.786,0.41,0.493,-12.88,-9.4,-1.89,1,0
16231.984,-0.788,0.407,0.484,-11.6,-9.49,-2.26,1,0
16231.984,-0.787,0.408,0.481,-10.74,-9.46,-2.44,1,0
16232.0,-0.784,0.41,0.479,-10.28,-9.13,-2.38,1,0
16232.015,-0.779,0.407,0.477,-9.31,-8.94,-2.26,1,0
16232.031,-0.771,0.405,0.476,-7.9,-7.63,-1.28,1,0
16232.031,-0.765,0.399,0.476,-7.35,-6.99,-0.89,1,0
16232.046,-0.761,0.396,0.477,-6.59,-6.47,-0.52,1,0
16232.062,-0.755,0.388,0.469,-5.89,-5.68,-0.61,1,0
16232.062,-0.749,0.385,0.468,-5.92,-4.61,-0.98,1,0
16232.078,-0.745,0.383,0.457,-6.32,-3.08,-1.71,1,0
16232.093,-0.744,0.379,0.454,-6.53,-0.43,-2.14,1,0
16232.093,-0.75,0.376,0.465,-8.15,2.9,-2.47,1,0
16232.109,-0.748,0.38,0.467,-9.13,4.09,-2.41,1,0
16232.109,-0.748,0.379,0.472,-9.61,5.13,-2.66,1,0
16232.125,-0.75,0.375,0.485,-10.1,5.98,-3.11,1,0
16232.14,-0.753,0.376,0.489,-10.65,6.5,-3.45,1,0
16232.156,-0.752,0.374,0.494,-11.11,6.65,-3.69,1,0
16232.156,-0.752,0.375,0.5,-11.35,7.17,-4.21,1,0
16232.171,-0.756,0.376,0.505,-11.02,7.57,-4.39,1,0
16232.171,-0.765,0.378,0.51,-10.47,7.51,-4.21,1,0
16232.203,-0.759,0.378,0.518,-10.86,5.77,-4.3,1,0
16232.203,-0.762,0.378,0.521,-11.05,4.88,-4.7,1,0
16232.218,-0.763,0.377,0.525,-11.2,3.57,-4.7,1,0
16232.234,-0.758,0.377,0.525,-11.02,2.32,-4.55,1,0
16232.234,-0.754,0.378,0.521,-10.35,1.77,-4.85,1,0
16232.25,-0.755,0.374,0.522,-9.34,1.89,-5.37,1,0
16232.265,-0.758,0.375,0.523,-8.18,2.35,-5.8,1,0
16232.265,-0.761,0.377,0.524,-6.87,2.26,-6.1,1,0
16232.281,-0.76,0.375,0.525,-6.13,1.98,-6.26,1,0
16232.296,-0.764,0.375,0.527,-5.4,1.68,-6.68,1,0
16232.296,-0.772,0.377,0.531,-4.3,1.34,-6.96,1,0
16232.312,-0.772,0.376,0.528,-2.81,0.55,-6.47,1,0
16232.312,-0.768,0.376,0.525,-1.22,-0.37,-5.83,1,0
16232.328,-0.765,0.375,0.52,0.0,-1.01,-5.92,1,0
16232.343,-0.763,0.371,0.514,0.92,-1.19,-6.07,1,0
16232.343,-0.764,0.369,0.51,1.71,-0.79,-5.83,1,0
16232.375,-0.761,0.37,0.506,2.53,0.18,-4.97,1,0
16232.375,-0.762,0.372,0.508,1.95,0.61,-4.82,1,0
16232.39,-0.761,0.373,0.512,1.25,0.79,-4.18,1,0
16232.39,-0.761,0.372,0.517,0.43,1.07,-3.51,1,0
16232.406,-0.759,0.371,0.522,-0.55,0.98,-3.2,1,0
16232.421,-0.76,0.37,0.529,-1.16,0.76,-2.66,1,0
16232.421,-0.762,0.37,0.534,-1.68,0.12,-2.04,1,0
16232.437,-0.761,0.37,0.54,-2.04,-0.79,-1.31,1,0
16232.453,-0.757,0.366,0.541,-2.04,-1.83,-0.85,1,0
16232.453,-0.754,0.368,0.539,-1.95,-2.5,-0.76,1,0
16232.468,-0.754,0.365,0.538,-1.83,-2.72,-0.79,1,0
16232.484,-0.757,0.36,0.537,-1.8,-2.59,-0.76,1,0
16232.484,-0.76,0.358,0.538,-1.31,-2.56,-0.61,1,0
16232.5,-0.761,0.355,0.54,-0.64,-2.56,-0.55,1,0
16232.515,-0.765,0.35,0.539,0.27,-2.87,-0.46,1,0
16232.515,-0.765,0.347,0.538,1.25,-3.69,-0.55,1,0
16232.531,-0.764,0.346,0.535,2.17,-4.58,-0.73,1,0
16232.531,-0.763,0.343,0.529,3.42,-5.43,-0.76,1,0
16232.546,-0.757,0.343,0.524,4.58,-6.04,-0.89,1,0
16232.562,-0.755,0.343,0.518,5.62,-6.23,-0.85,1,0
16232.562,-0.755,0.343,0.512,6.16,-6.29,-0.85,1,0
16232.578,-0.75,0.344,0.507,6.07,-6.47,-0.58,1,0
16232.593,-0.746,0.342,0.504,5.62,-6.44,-0.34,1,0
16232.609,-0.745,0.341,0.503,4.85,-6.16,-0.34,1,0
16232.609,-0.744,0.34,0.503,4.43,-6.16,-0.37,1,0
16232.625,-0.742,0.335,0.501,4.55,-6.26,-0.27,1,0
16232.625,-0.741,0.331,0.495,5.22,-6.23,-0.43,1,0
16232.64,-0.743,0.329,0.486,6.1,-6.01,-0.95,1,0
16232.64,-0.74,0.326,0.481,7.08,-5.4,-1.4,1,0
16232.656,-0.743,0.33,0.479,7.97,-4.64,-1.8,1,0
16232.671,-0.748,0.332,0.477,8.51,-3.33,-2.35,1,0
16232.671,-0.764,0.333,0.482,8.45,-2.44,-2.93,1,0
16232.687,-0.778,0.333,0.481,8.7,-2.23,-3.27,1,0
16232.703,-0.786,0.336,0.48,9.06,-2.66,-3.91,1,0
16232.703,-0.791,0.339,0.476,9.77,-3.14,-4.52,1,0
16232.718,-0.79,0.346,0.466,10.68,-2.93,-5.01,1,0
16232.734,-0.781,0.358,0.459,11.32,-1.89,-5.16,1,0
16232.734,-0.768,0.365,0.454,11.69,0.15,-4.82,1,0
16232.75,-0.759,0.372,0.454,10.93,2.72,-3.91,1,0
16232.75,-0.753,0.378,0.46,8.82,5.25,-2.66,1,0
16232.765,-0.754,0.377,0.47,5.86,7.26,-1.5,1,0
16232.781,-0.756,0.367,0.48,2.75,8.36,-0.31,1,0
16232.781,-0.75,0.358,0.489,0.4,8.39,0.92,1,0
16232.796,-0.743,0.347,0.489,-1.16,7.75,1.56,1,0
16232.812,-0.734,0.339,0.487,-2.23,6.84,1.89,1,0
16232.812,-0.728,0.335,0.484,-3.36,6.35,1.68,1,0
16232.828,-0.728,0.33,0.488,-4.82,6.62,1.04,1,0
16232.843,-0.733,0.328,0.495,-6.9,7.75,0.12,1,0
16232.843,-0.741,0.327,0.509,-9.31,9.09,-1.07,1,0
16232.859,-0.754,0.326,0.528,-11.11,10.01,-2.81,1,0
16232.875,-0.77,0.33,0.55,-11.41,9.95,-4.7,1,0
16232.875,-0.79,0.334,0.568,-10.22,8.55,-5.86,1,0
16232.89,-0.798,0.34,0.581,-7.84,5.62,-6.65,1,0
16232.89,-0.802,0.346,0.587,-4.67,1.95,-7.54,1,0
16232.906,-0.804,0.35,0.579,-0.95,-1.8,-8.64,1,0
16232.921,-0.805,0.359,0.568,2.69,-5.34,-9.34,1,0
16232.921,-0.804,0.361,0.555,6.23,-8.27,-9.4,1,0
16232.937,-0.8,0.367,0.536,9.52,-10.19,-9.34,1,0
16232.953,-0.799,0.373,0.517,11.9,-11.26,-9.31,1,0
16232.953,-0.798,0.378,0.498,12.76,-11.66,-9.03,1,0
16232.968,-0.796,0.377,0.489,13.0,-11.75,-8.55,1,0
16232.984,-0.794,0.37,0.478,14.25,-11.47,-8.36,1,0
16232.984,-0.796,0.386,0.467,15.72,-10.68,-7.66,1,0
16233.0,-0.79,0.38,0.464,16.21,-10.01,-6.84,1,0
16233.015,-0.791,0.385,0.46,16.05,-9.19,-5.92,1,0
16233.015,-0.79,0.386,0.454,15.41,-8.48,-5.19,1,0
16233.031,-0.793,0.384,0.454,14.07,-7.9,-4.03,1,0
16233.046,-0.797,0.387,0.453,12.24,-7.51,-2.75,1,0
16233.046,-0.798,0.38,0.454,10.1,-7.54,-1.53,1,0
16233.062,-0.794,0.378,0.449,7.72,-7.42,-0.58,1,0
16233.062,-0.787,0.372,0.443,4.94,-7.05,0.03,1,0
16233.078,-0.782,0.362,0.444,2.17,-4.97,0.46,1,0
16233.093,-0.776,0.355,0.445,1.92,-3.42,0.43,1,0
16233.093,-0.769,0.352,0.445,1.71,-1.53,0.34,1,0
16233.109,-0.766,0.355,0.449,1.01,0.34,0.37,1,0
16233.125,-0.772,0.354,0.47,-0.03,1.5,0.7,1,0
16233.125,-0.773,0.351,0.484,-1.01,1.77,1.31,1,0
16233.14,-0.77,0.345,0.493,-1.59,1.37,1.59,1,0
16233.14,-0.766,0.338,0.502,-1.62,0.55,1.62,1,0
16233.156,-0.759,0.332,0.506,-0.64,-0.37,1.1,1,0
16233.171,-0.749,0.329,0.501,0.58,-1.01,0.49,1,0
16233.171,-0.745,0.329,0.502,1.77,-0.82,-0.09,1,0
16233.187,-0.741,0.329,0.498,2.78,-0.4,-0.76,1,0
16233.203,-0.739,0.333,0.495,3.08,0.34,-1.43,1,0
16233.203,-0.739,0.338,0.494,2.66,1.37,-2.04,1,0
16233.218,-0.743,0.343,0.499,1.65,2.44,-2.62,1,0
16233.234,-0.749,0.349,0.507,0.15,3.27,-2.81,1,0
16233.234,-0.753,0.351,0.517,-1.16,3.85,-3.08,1,0
16233.25,-0.758,0.355,0.523,-2.35,3.66,-3.23,1,0
16233.265,-0.76,0.358,0.529,-3.17,2.93,-3.48,1,0
16233.265,-0.759,0.356,0.529,-3.11,1.95,-3.66,1,0
16233.281,-0.762,0.359,0.528,-2.69,1.16,-3.78,1,0
16233.281,-0.76,0.362,0.525,-1.92,0.55,-3.91,1,0
16233.296,-0.762,0.362,0.518,-1.22,0.21,-4.24,1,0
16233.312,-0.767,0.361,0.514,-0.49,0.03,-4.58,1,0
16233.312,-0.768,0.349,0.515,1.25,-0.34,-5.07,1,0
16233.328,-0.772,0.357,0.504,4.15,-0.12,-5.46,1,0
16233.343,-0.771,0.364,0.499,6.44,0.06,-5.71,1,0
16233.359,-0.775,0.367,0.492,7.78,0.24,-5.89,1,0
16233.359,-0.778,0.372,0.486,8.06,0.55,-5.55,1,0
16233.375,-0.784,0.375,0.486,6.99,0.67,-4.94,1,0
16233.375,-0.791,0.381,0.487,5.19,0.76,-4.06,1,0
16233.406,-0.794,0.375,0.49,0.73,0.06,-1.83,1,0
16233.406,-0.793,0.375,0.49,-1.22,-0.31,-0.82,1,0
16233.421,-0.793,0.367,0.491,-2.72,-0.58,0.06,1,0
16233.421,-0.794,0.36,0.494,-3.36,-0.58,0.46,1,0
16233.437,-0.794,0.356,0.495,-2.96,-0.55,0.52,1,0
16233.453,-0.798,0.358,0.501,-1.92,-0.58,0.64,1,0
16233.453,-0.798,0.359,0.505,-0.61,-0.73,1.01,1,0
16233.468,-0.797,0.359,0.501,0.55,-1.31,1.34,1,0
16233.484,-0.794,0.359,0.501,1.28,-1.86,1.56,1,0
16233.484,-0.792,0.361,0.501,1.92,-2.41,1.83,1,0
16233.5,-0.792,0.359,0.5,2.47,-2.99,2.38,1,0
16233.515,-0.789,0.358,0.501,2.9,-3.54,2.9,1,0
16233.515,-0.784,0.356,0.501,2.93,-4.21,3.17,1,0
16233.531,-0.783,0.355,0.502,2.87,-4.79,3.36,1,0
16233.531,-0.779,0.353,0.502,2.96,-5.65,3.51,1,0
16233.546,-0.774,0.349,0.499,3.48,-6.32,3.69,1,0
16233.578,-0.769,0.343,0.484,5.68,-7.05,3.05,1,0
16233.578,-0.766,0.344,0.476,7.14,-6.87,2.72,1,0
16233.593,-0.767,0.347,0.469,8.12,-6.26,2.56,1,0
16233.593,-0.763,0.349,0.463,8.24,-5.52,2.78,1,0
16233.609,-0.76,0.349,0.459,7.51,-4.3,2.87,1,0
16233.625,-0.759,0.349,0.458,6.32,-3.14,2.72,1,0
16233.625,-0.759,0.349,0.458,4.85,-2.35,2.53,1,0
16233.64,-0.76,0.347,0.459,3.57,-1.83,2.84,1,0
16233.656,-0.759,0.349,0.462,2.53,-1.68,3.08,1,0
16233.656,-0.758,0.348,0.462,1.53,-1.43,3.33,1,0
16233.671,-0.758,0.348,0.462,0.31,-1.01,3.48,1,0
16233.671,-0.757,0.342,0.464,-0.52,-0.43,3.36,1,0
16233.687,-0.76,0.343,0.464,-0.55,0.15,3.02,1,0
16233.703,-0.758,0.344,0.467,-0.64,0.67,2.93,1,0
16233.703,-0.757,0.342,0.469,-0.64,0.95,2.69,1,0
16233.718,-0.755,0.349,0.469,-0.7,1.56,2.56,1,0
16233.734,-0.755,0.344,0.474,-1.8,3.02,1.98,1,0
16233.75,-0.753,0.343,0.477,-1.71,3.6,1.59,1,0
16233.765,-0.755,0.344,0.479,-1.22,4.03,1.1,1,0
16233.765,-0.758,0.346,0.482,-0.67,4.46,0.58,1,0
16233.781,-0.758,0.348,0.483,-0.31,4.94,0.06,1,0
16233.781,-0.762,0.353,0.486,-0.27,5.37,-0.49,1,0
16233.796,-0.765,0.361,0.492,-0.61,5.55,-0.76,1,0
16233.812,-0.769,0.365,0.496,-1.13,5.28,-0.7,1,0
16233.812,-0.774,0.366,0.499,-1.98,4.91,-0.55,1,0
16233.828,-0.776,0.37,0.501,-2.53,4.39,-0.58,1,0
16233.843,-0.778,0.368,0.507,-2.47,3.66,-0.73,1,0
16233.843,-0.777,0.369,0.511,-1.86,2.9,-0.67,1,0
16233.859,-0.778,0.37,0.508,-0.85,2.2,-0.64,1,0
16233.875,-0.782,0.367,0.504,0.24,1.62,-0.89,1,0
16233.875,-0.786,0.368,0.502,0.98,0.98,-1.4,1,0
16233.89,-0.791,0.368,0.501,1.5,0.67,-2.26,1,0
16233.89,-0.794,0.37,0.499,2.26,0.58,-2.96,1,0
16233.906,-0.797,0.374,0.496,3.27,0.64,-3.48,1,0
16233.921,-0.803,0.377,0.493,4.21,0.61,-3.48,1,0
16233.921,-0.801,0.382,0.488,4.88,0.0,-3.42,1,0
16233.937,-0.789,0.389,0.482,4.91,-0.34,-3.23,1,0
16233.953,-0.775,0.396,0.483,3.94,-0.06,-2.69,1,0
16233.953,-0.762,0.406,0.484,2.2,0.67,-1.77,1,0
16233.968,-0.752,0.409,0.485,-0.06,1.43,-0.43,1,0
16233.984,-0.745,0.404,0.49,-2.08,1.92,1.07,1,0
16233.984,-0.743,0.398,0.496,-3.02,2.26,2.53,1,0
16234.0,-0.747,0.395,0.501,-2.75,2.35,4.03,1,0
16234.015,-0.754,0.39,0.503,-2.23,2.2,5.22,1,0
16234.015,-0.762,0.383,0.502,-2.29,1.8,6.07,1,0
16234.031,-0.771,0.375,0.502,-2.81,1.16,6.41,1,0
16234.031,-0.771,0.369,0.499,-3.3,0.12,6.81,1,0
16234.046,-0.769,0.361,0.498,-3.66,-0.82,7.17,1,0
16234.062,-0.76,0.346,0.5,0.15,-2.59,6.41,1,0
16234.062,-0.76,0.335,0.504,4.15,-4.61,5.01,1,0
16234.078,-0.769,0.33,0.5,8.64,-6.87,3.17,1,0
16234.093,-0.779,0.318,0.48,12.12,-8.21,1.28,1,0
16234.109,-0.797,0.32,0.448,13.92,-8.61,-0.73,1,0
16234.109,-0.792,0.325,0.433,13.21,-7.32,-2.32,1,0
16234.125,-0.79,0.333,0.428,9.92,-5.13,-3.69,1,0
16234.125,-0.786,0.325,0.43,5.1,-3.17,-5.16,1,0
16234.14,-0.782,0.318,0.442,0.12,-1.31,-6.68,1,0
16234.156,-0.782,0.318,0.449,-3.54,0.21,-8.82,1,0
16234.156,-0.778,0.322,0.455,-6.13,1.65,-11.51,1,0
16234.171,-0.776,0.327,0.462,-8.94,3.72,-14.44,1,0
16234.171,-0.778,0.336,0.461,-11.87,5.46,-17.3,1,0
16234.187,-0.78,0.339,0.453,-14.68,6.53,-19.62,1,0
16234.203,-0.773,0.348,0.443,-18.31,7.6,-21.61,1,0
16234.218,-0.755,0.354,0.424,-22.86,9.19,-23.71,1,0
16234.218,-0.744,0.351,0.403,-27.83,11.44,-26.7,1,0
16234.234,-0.726,0.37,0.39,-34.09,14.59,-30.61,1,0
16234.234,-0.728,0.38,0.379,-40.41,20.91,-33.2,1,0
16234.25,-0.721,0.393,0.37,-46.78,29.3,-33.11,1,0
16234.265,-0.723,0.406,0.371,-54.08,39.64,-32.23,1,0
16234.265,-0.745,0.418,0.381,-62.99,49.93,-31.53,1,0
16234.281,-0.778,0.433,0.416,-73.24,58.53,-29.85,1,0
16234.296,-0.828,0.442,0.466,-83.93,63.57,-26.73,1,0
16234.296,-0.866,0.446,0.52,-94.36,64.3,-21.33,1,0
16234.312,-0.888,0.442,0.557,-103.98,60.64,-14.8,1,0
16234.312,-0.908,0.428,0.592,-113.1,53.9,-8.79,1,0
16234.328,-0.923,0.403,0.612,-120.12,44.56,-4.12,1,0
16234.343,-0.941,0.362,0.619,-123.08,34.15,-0.09,1,0
16234.343,-0.941,0.323,0.623,-122.23,22.92,2.38,1,0
16234.359,-0.945,0.265,0.612,-116.4,12.12,3.05,1,0
16234.375,-0.942,0.217,0.599,-105.62,3.14,1.71,1,0
16234.375,-0.931,0.188,0.575,-90.43,-3.48,-1.59,1,0
16234.39,-0.917,0.169,0.538,-72.15,-8.48,-5.58,1,0
16234.39,-0.886,0.168,0.496,-52.95,-12.18,-8.91,1,0
16234.421,-0.848,0.179,0.429,-16.85,-15.05,-14.68,1,0
16234.421,-0.859,0.191,0.419,-1.31,-16.88,-16.57,1,0
16234.437,-0.872,0.203,0.407,12.3,-19.59,-15.81,1,0
16234.453,-0.875,0.235,0.391,20.66,-22.8,-11.72,1,0
16234.453,-0.875,0.263,0.375,21.67,-26.09,-5.95,1,0
16234.468,-0.877,0.278,0.376,15.23,-28.96,-0.03,1,0
16234.484,-0.879,0.272,0.365,6.35,-31.13,6.04,1,0
16234.484,-0.885,0.271,0.354,-4.88,-31.68,12.3,1,0
16234.5,-0.879,0.252,0.362,-16.63,-31.16,18.4,1,0
16234.515,-0.878,0.229,0.396,-24.93,-30.21,23.47,1,0
16234.515,-0.864,0.206,0.391,-29.21,-30.03,26.92,1,0
16234.531,-0.847,0.19,0.385,-31.77,-28.75,29.11,1,0
16234.531,-0.834,0.169,0.391,-32.99,-26.67,30.4,1,0
16234.546,-0.826,0.152,0.401,-33.02,-24.14,31.53,1,0
16234.562,-0.818,0.146,0.408,-32.87,-21.06,33.39,1,0
16234.562,-0.808,0.136,0.415,-32.93,-18.43,34.97,1,0
16234.593,-0.803,0.114,0.446,-36.01,-14.53,34.7,1,0
16234.593,-0.795,0.096,0.496,-37.2,-13.61,32.93,1,0
16234.609,-0.792,0.038,0.562,-32.65,-14.8,28.9,1,0
16234.625,-0.802,-0.022,0.608,-21.09,-15.81,24.08,1,0
16234.625,-0.792,-0.066,0.652,-8.03,-18.07,18.56,1,0
16234.64,-0.798,-0.107,0.662,3.75,-20.45,12.45,1,0
16234.64,-0.796,-0.105,0.692,10.47,-23.96,6.65,1,0
16234.656,-0.78,-0.155,0.711,16.21,-25.91,1.71,1,0
16234.671,-0.775,-0.197,0.695,20.26,-24.69,-1.04,1,0
16234.687,-0.764,-0.209,0.685,19.26,-21.94,-2.59,1,0
16234.687,-0.78,-0.171,0.658,14.77,-22.64,-7.66,1,0
16234.703,-0.787,-0.114,0.627,10.83,-26.12,-16.24,1,0
16234.703,-0.801,-0.064,0.588,12.45,-27.99,-23.35,1,0
16234.718,-0.784,0.0,0.551,16.21,-28.63,-28.5,1,0
16234.734,-0.755,0.066,0.535,19.47,-27.44,-35.55,1,0
16234.734,-0.773,0.12,0.527,22.55,-24.05,-42.3,1,0
16234.75,-0.779,0.169,0.507,26.22,-15.2,-42.6,1,0
16234.765,-0.8,0.234,0.488,24.45,-8.3,-40.07,1,0
16234.765,-0.799,0.258,0.482,16.69,-2.44,-34.58,1,0
16234.781,-0.761,0.274,0.489,6.16,2.44,-27.99,1,0
16234.781,-0.752,0.302,0.498,-5.74,2.99,-24.99,1,0
16234.796,-0.793,0.294,0.514,-14.8,5.52,-20.87,1,0
16234.812,-0.754,0.28,0.524,-21.0,7.72,-12.42,1,0
16234.828,-0.735,0.29,0.548,-26.09,5.34,-8.79,1,0
16234.828,-0.755,0.251,0.547,-27.19,4.61,-5.86,1,0
16234.843,-0.727,0.235,0.547,-27.1,5.01,-1.4,1,0
16234.843,-0.715,0.247,0.536,-25.33,6.1,0.12,1,0
16234.859,-0.71,0.227,0.529,-25.03,8.97,1.19,1,0
16234.875,-0.701,0.232,0.541,-26.58,12.57,1.95,1,0
16234.875,-0.719,0.224,0.545,-27.62,16.14,2.66,1,0
16234.89,-0.72,0.216,0.58,-29.33,18.4,3.69,1,0
16234.89,-0.743,0.221,0.601,-28.05,19.35,3.66,1,0
16234.906,-0.752,0.196,0.623,-25.76,18.77,4.39,1,0
16234.921,-0.753,0.204,0.65,-21.27,17.58,3.94,1,0
16234.921,-0.772,0.19,0.656,-14.5,15.84,2.9,1,0
16234.937,-0.759,0.199,0.658,-7.78,13.06,1.68,1,0
16234.953,-0.791,0.197,0.646,-2.87,10.71,-0.46,1,0
16234.953,-0.767,0.192,0.651,-0.27,8.7,-0.49,1,0
16234.968,-0.804,0.203,0.643,3.39,6.32,-1.34,1,0
16234.984,-0.799,0.191,0.637,6.35,4.61,0.43,1,0
16234.984,-0.796,0.198,0.629,9.49,2.84,1.01,1,0
16235.0,-0.798,0.19,0.612,13.0,1.53,0.61,1,0
16235.015,-0.801,0.173,0.595,16.33,0.79,0.12,1,0
16235.015,-0.8,0.172,0.58,20.08,0.89,0.34,1,0
16235.031,-0.798,0.165,0.562,23.26,1.5,1.43,1,0
16235.046,-0.78,0.164,0.55,24.69,2.87,2.72,1,0
16235.046,-0.779,0.167,0.538,21.58,5.55,4.18,1,0
16235.062,-0.772,0.16,0.546,18.95,6.81,5.89,1,0
16235.062,-0.768,0.158,0.554,16.24,8.03,8.06,1,0
16235.078,-0.777,0.142,0.58,13.18,8.24,9.52,1,0
16235.093,-0.783,0.129,0.594,10.65,7.14,9.89,1,0
16235.109,-0.791,0.121,0.602,9.64,5.25,9.46,1,0
16235.109,-0.788,0.118,0.6,10.07,2.66,8.67,1,0
16235.125,-0.78,0.118,0.59,11.6,0.31,7.14,1,0
16235.125,-0.79,0.127,0.579,13.95,-1.4,4.61,1,0
16235.14,-0.802,0.126,0.572,17.21,-0.61,3.72,1,0
16235.156,-0.799,0.147,0.563,19.96,0.09,3.63,1,0
16235.156,-0.788,0.156,0.555,21.64,0.52,2.87,1,0
16235.171,-0.769,0.171,0.544,20.14,-0.76,-0.85,1,0
16235.171,-0.844,0.145,0.549,18.86,1.62,-3.75,1,0
16235.187,-0.814,0.149,0.564,18.52,3.69,-0.61,1,0
16235.203,-0.802,0.173,0.565,21.12,3.91,1.16,1,0
16235.203,-0.809,0.178,0.545,21.94,3.75,1.13,1,0
16235.218,-0.806,0.162,0.552,20.72,4.06,1.59,1,0
16235.234,-0.814,0.182,0.556,20.66,2.96,1.62,1,0
16235.234,-0.814,0.177,0.546,21.52,1.83,2.93,1,0
16235.25,-0.796,0.185,0.537,20.48,-0.31,3.85,1,0
16235.265,-0.799,0.169,0.521,17.52,-1.43,4.58,1,0
16235.281,-0.807,0.177,0.514,16.54,-1.74,4.12,1,0
16235.281,-0.798,0.162,0.511,15.81,-0.98,4.52,1,0
16235.296,-0.797,0.174,0.513,14.8,-0.46,3.23,1,0
16235.312,-0.808,0.155,0.51,15.35,1.28,2.23,1,0
16235.312,-0.793,0.171,0.516,15.99,1.86,1.04,1,0
16235.328,-0.805,0.17,0.514,18.25,2.87,0.18,1,0
16235.343,-0.789,0.176,0.528,19.41,3.6,0.37,1,0
16235.343,-0.804,0.183,0.537,21.45,4.0,-0.67,1,0
16235.359,-0.817,0.182,0.546,23.32,4.12,-1.37,1,0
16235.375,-0.823,0.185,0.545,25.24,3.23,-2.93,1,0
16235.375,-0.803,0.198,0.545,26.67,2.29,-3.6,1,0
16235.39,-0.792,0.222,0.536,26.49,1.77,-3.75,1,0
16235.39,-0.787,0.222,0.531,24.2,1.89,-3.51,1,0
16235.406,-0.781,0.259,0.558,19.96,2.14,-3.6,1,0
16235.421,-0.765,0.311,0.572,17.33,1.5,-2.75,1,0
16235.437,-0.756,0.297,0.567,20.63,-1.34,0.18,1,0
16235.453,-0.751,0.304,0.555,24.51,-2.78,1.22,1,0
16235.453,-0.748,0.292,0.533,28.53,-2.66,1.86,1,0
16235.468,-0.751,0.289,0.516,29.36,-1.53,1.19,1,0
16235.484,-0.744,0.287,0.506,29.6,0.67,0.46,1,0
16235.484,-0.741,0.318,0.495,28.2,2.66,0.06,1,0
16235.5,-0.756,0.309,0.511,22.16,3.85,1.68,1,0
16235.515,-0.755,0.298,0.524,16.94,4.58,4.12,1,0
16235.515,-0.751,0.298,0.527,14.37,3.6,5.62,1,0
16235.531,-0.759,0.28,0.528,13.89,1.98,6.38,1,0
16235.531,-0.76,0.267,0.531,15.35,0.95,5.95,1,0
16235.546,-0.764,0.262,0.536,18.4,0.82,4.58,1,0
16235.562,-0.781,0.277,0.539,21.88,1.19,2.93,1,0
16235.578,-0.793,0.285,0.537,24.93,1.34,1.65,1,0
16235.578,-0.801,0.29,0.538,27.83,1.31,1.25,1,0
16235.593,-0.805,0.303,0.535,29.82,1.25,1.04,1,0
16235.609,-0.825,0.311,0.522,30.85,-0.43,2.14,1,0
16235.625,-0.833,0.32,0.526,30.82,-0.79,3.69,1,0
16235.625,-0.843,0.316,0.523,30.92,-0.95,5.1,1,0
16235.64,-0.854,0.316,0.518,31.01,-1.62,7.23,1,0
16235.64,-0.852,0.318,0.515,30.27,-3.2,9.13,1,0
16235.656,-0.844,0.32,0.509,28.02,-5.01,10.59,1,0
16235.671,-0.835,0.32,0.499,24.17,-6.32,12.05,1,0
16235.687,-0.828,0.318,0.496,19.84,-7.35,13.0,1,0
16235.687,-0.82,0.321,0.496,15.56,-8.21,13.7,1,0
16235.703,-0.815,0.317,0.494,12.05,-8.67,14.19,1,0
16235.703,-0.816,0.31,0.495,10.13,-8.61,14.04,1,0
16235.718,-0.822,0.297,0.494,11.41,-8.39,12.18,1,0
16235.734,-0.832,0.293,0.493,16.45,-8.03,8.61,1,0
16235.734,-0.833,0.31,0.483,23.56,-6.32,3.94,1,0
16235.75,-0.856,0.356,0.459,29.11,-3.91,-2.44,1,0
16235.75,-0.87,0.394,0.429,30.24,-1.13,-7.84,1,0
16235.765,-0.871,0.439,0.407,25.36,3.11,-10.68,1,0
16235.781,-0.878,0.462,0.391,17.43,9.03,-11.99,1,0
16235.781,-0.904,0.456,0.395,8.61,14.74,-11.08,1,0
16235.796,-0.947,0.446,0.42,1.34,18.46,-6.59,1,0
16235.812,-0.972,0.431,0.45,-1.4,19.41,1.25,1,0
16235.812,-0.985,0.406,0.469,0.43,17.3,10.74,1,0
16235.828,-0.996,0.379,0.483,3.02,12.57,19.47,1,0
16235.843,-0.982,0.349,0.5,5.49,6.13,25.51,1,0
16235.843,-0.937,0.328,0.508,8.21,-1.31,27.25,1,0
16235.859,-0.889,0.323,0.507,10.44,-8.03,24.81,1,0
16235.875,-0.86,0.308,0.496,12.57,-13.15,20.75,1,0
16235.875,-0.828,0.307,0.495,14.71,-16.88,17.4,1,0
16235.89,-0.805,0.307,0.486,18.34,-18.86,15.23,1,0
16235.89,-0.793,0.307,0.47,22.98,-20.02,14.22,1,0
16235.906,-0.78,0.313,0.45,27.01,-20.75,13.46,1,0
16235.921,-0.769,0.323,0.427,29.08,-21.03,12.48,1,0
16235.921,-0.752,0.342,0.403,27.34,-20.91,11.84,1,0
16235.937,-0.731,0.354,0.386,22.13,-20.17,11.69,1,0
16235.953,-0.715,0.353,0.376,14.89,-18.16,12.15,1,0
16235.968,-0.71,0.35,0.374,6.87,-15.53,12.97,1,0
16235.968,-0.709,0.343,0.379,-1.13,-12.97,13.7,1,0
16235.984,-0.709,0.332,0.388,-8.58,-11.44,13.89,1,0
16235.984,-0.706,0.326,0.4,-15.41,-10.59,13.79,1,0
16236.0,-0.708,0.33,0.411,-21.64,-10.07,13.15,1,0
16236.015,-0.718,0.334,0.417,-28.32,-9.83,12.51,1,0
16236.015,-0.727,0.35,0.425,-37.02,-9.31,12.48,1,0
16236.031,-0.733,0.369,0.428,-62.87,-7.35,13.4,1,0
16236.046,-0.738,0.375,0.435,-77.82,-6.16,14.4,1,0
16236.046,-0.757,0.373,0.444,-91.98,-5.04,14.8,1,0
16236.062,-0.768,0.362,0.457,-103.4,-3.66,14.95,1,0
16236.062,-0.777,0.343,0.502,-111.0,-1.77,14.68,1,0
16236.078,-0.786,0.332,0.534,-113.96,0.46,14.5,1,0
16236.093,-0.797,0.318,0.558,-112.28,2.01,15.56,1,0
16236.093,-0.799,0.305,0.579,-107.49,2.69,17.21,1,0
16236.109,-0.792,0.288,0.589,-100.56,2.35,17.33,1,0
16236.125,-0.774,0.267,0.596,-92.14,0.98,15.47,1,0
16236.125,-0.761,0.255,0.597,-82.46,-0.43,11.96,1,0
16236.14,-0.746,0.248,0.593,-72.42,-1.56,8.12,1,0
16236.14,-0.734,0.249,0.593,-62.75,-1.65,4.67,1,0
16236.156,-0.722,0.254,0.586,-53.44,-0.73,2.56,1,0
16236.171,-0.723,0.255,0.582,-45.72,0.67,1.95,1,0
16236.171,-0.714,0.248,0.584,-40.07,1.89,1.65,1,0
16236.187,-0.714,0.241,0.58,-35.34,1.98,1.04,1,0
16236.203,-0.719,0.23,0.579,-31.92,0.92,0.67,1,0
16236.203,-0.715,0.22,0.575,-29.3,-0.73,0.27,1,0
16236.218,-0.715,0.209,0.568,-26.61,-2.17,-0.7,1,0
16236.234,-0.714,0.2,0.563,-24.23,-2.87,-2.14,1,0
16236.234,-0.711,0.199,0.556,-22.1,-2.23,-3.94,1,0
16236.25,-0.715,0.207,0.558,-19.99,-0.49,-6.38,1,0
16236.25,-0.729,0.214,0.565,-18.07,1.71,-8.7,1,0
16236.265,-0.746,0.219,0.574,-15.75,3.3,-10.04,1,0
16236.281,-0.762,0.217,0.589,-12.36,3.85,-10.62,1,0
16236.281,-0.775,0.219,0.594,-7.26,3.39,-11.32,1,0
16236.296,-0.787,0.221,0.596,-1.77,1.53,-11.69,1,0
16236.312,-0.792,0.226,0.59,3.42,-1.46,-11.69,1,0
16236.312,-0.795,0.234,0.572,7.29,-4.24,-11.84,1,0
16236.328,-0.791,0.232,0.554,9.28,-6.01,-11.72,1,0
16236.343,-0.783,0.229,0.54,10.04,-6.29,-11.81,1,0
16236.343,-0.772,0.227,0.527,10.86,-4.67,-12.12,1,0
16236.359,-0.768,0.219,0.518,11.9,-1.8,-12.67,1,0
16236.375,-0.767,0.219,0.518,13.06,1.22,-13.15,1,0
16236.375,-0.77,0.22,0.523,13.92,3.88,-13.58,1,0
16236.39,-0.771,0.222,0.527,14.4,5.65,-13.76,1,0
16236.406,-0.771,0.231,0.532,13.79,6.41,-13.67,1,0
16236.406,-0.774,0.236,0.539,12.54,6.26,-13.49,1,0
16236.421,-0.771,0.242,0.541,10.8,5.01,-12.73,1,0
16236.421,-0.761,0.246,0.54,8.45,3.75,-11.84,1,0
16236.437,-0.759,0.245,0.54,6.29,2.84,-11.35,1,0
16236.453,-0.755,0.245,0.538,4.49,2.08,-10.53,1,0
16236.468,-0.754,0.247,0.538,2.81,1.83,-9.31,1,0
16236.468,-0.755,0.254,0.53,0.98,1.98,-8.03,1,0
16236.484,-0.755,0.246,0.524,-1.22,2.75,-6.74,1,0
16236.484,-0.767,0.261,0.545,-8.88,2.35,-5.95,1,0
16236.5,-0.767,0.262,0.531,-14.68,1.65,-4.33,1,0
16236.515,-0.785,0.265,0.534,-21.27,1.31,-2.81,1,0
16236.515,-0.792,0.306,0.539,-31.83,-0.4,-0.06,1,0
16236.531,-0.806,0.33,0.527,-45.66,-2.35,3.45,1,0
16236.546,-0.823,0.348,0.525,-64.52,-4.79,8.27,1,0
16236.546,-0.828,0.357,0.526,-86.21,-8.36,14.16,1,0
16236.562,-0.834,0.34,0.528,-109.65,-12.67,19.93,1,0
16236.578,-0.841,0.321,0.562,-131.99,-17.49,26.09,1,0
16236.578,-0.84,0.267,0.613,-148.78,-24.72,31.16,1,0
16236.593,-0.83,0.227,0.63,-158.73,-32.56,35.16,1,0
16236.593,-0.809,0.18,0.649,-159.34,-39.09,38.24,1,0
16236.609,-0.792,0.146,0.669,-150.67,-43.18,39.16,1,0
16236.625,-0.766,0.143,0.683,-138.28,-45.59,39.22,1,0
16236.625,-0.743,0.125,0.7,-127.54,-46.97,38.09,1,0
16236.64,-0.718,0.098,0.718,-116.25,-46.57,36.35,1,0
16236.64,-0.692,0.068,0.709,-101.26,-43.49,34.21,1,0
16236.656,-0.686,0.047,0.712,-85.3,-38.58,31.04,1,0
16236.671,-0.679,0.051,0.726,-70.28,-33.02,27.62,1,0
16236.687,-0.675,0.045,0.734,-55.45,-27.95,24.26,1,0
16236.687,-0.677,0.05,0.722,-44.65,-25.06,20.29,1,0
16236.703,-0.68,0.066,0.723,-38.12,-23.9,16.11,1,0
16236.703,-0.686,0.065,0.723,-34.18,-25.15,12.27,1,0
16236.718,-0.681,0.065,0.709,-33.57,-27.89,9.25,1,0
16236.734,-0.671,0.061,0.71,-33.94,-30.03,7.45,1,0
16236.734,-0.658,0.051,0.707,-33.81,-31.07,6.23,1,0
16236.75,-0.651,0.047,0.695,-33.2,-30.64,4.76,1,0
16236.765,-0.643,0.028,0.691,-31.4,-28.63,4.0,1,0
16236.765,-0.639,0.018,0.694,-27.25,-25.15,3.63,1,0
16236.781,-0.635,0.016,0.692,-21.0,-20.78,2.75,1,0
16236.781,-0.637,0.019,0.694,-16.11,-15.63,1.89,1,0
16236.796,-0.641,0.023,0.699,-12.3,-10.77,1.01,1,0
16236.812,-0.649,0.022,0.702,-10.01,-6.59,-0.73,1,0
16236.828,-0.658,0.019,0.705,-8.79,-2.72,-1.68,1,0
16236.828,-0.668,0.037,0.705,-8.18,0.46,-2.81,1,0
16236.843,-0.678,0.041,0.709,-8.45,2.41,-3.69,1,0
16236.843,-0.689,0.036,0.714,-8.64,4.18,-3.3,1,0
16236.859,-0.705,0.043,0.718,-7.84,5.13,-2.66,1,0
16236.875,-0.713,0.048,0.72,-7.84,4.49,-1.89,1,0
16236.875,-0.713,0.05,0.725,-8.64,3.02,-1.13,1,0
16236.89,-0.713,0.047,0.72,-9.83,1.86,-0.79,1,0
16236.906,-0.707,0.048,0.709,-10.77,1.34,-0.4,1,0
16236.906,-0.698,0.053,0.689,-11.6,2.29,-0.18,1,0
16236.921,-0.694,0.067,0.675,-13.12,4.7,-0.52,1,0
16236.921,-0.697,0.076,0.662,-16.27,8.15,-0.98,1,0
16236.937,-0.7,0.081,0.658,-20.05,12.15,-0.37,1,0
16236.953,-0.706,0.075,0.663,-22.49,16.14,1.16,1,0
16236.953,-0.715,0.069,0.673,-25.3,18.83,2.93,1,0
16236.968,-0.718,0.061,0.677,-27.56,20.17,4.79,1,0
16236.984,-0.721,0.047,0.678,-28.5,20.66,6.35,1,0
16236.984,-0.719,0.034,0.685,-28.99,20.33,7.45,1,0
16237.0,-0.717,0.017,0.7,-28.35,18.98,8.06,1,0
16237.015,-0.709,-0.0,0.699,-24.84,15.59,6.93,1,0
16237.015,-0.698,-0.009,0.693,-21.7,15.44,4.67,1,0
16237.031,-0.69,-0.022,0.685,-18.86,15.59,2.66,1,0
16237.046,-0.707,-0.042,0.681,-16.36,14.92,1.83,1,0
16237.046,-0.702,-0.053,0.682,-11.75,14.5,-0.03,1,0
16237.062,-0.708,-0.065,0.676,-7.78,13.64,-2.01,1,0
16237.062,-0.706,-0.078,0.674,-5.71,12.3,-3.3,1,0
16237.078,-0.699,-0.078,0.666,-4.39,11.69,-4.85,1,0
16237.093,-0.706,-0.09,0.658,-2.93,12.3,-6.68,1,0
16237.109,-0.706,-0.098,0.66,-2.14,12.91,-7.93,1,0
16237.109,-0.705,-0.096,0.661,-0.67,13.43,-9.58,1,0
16237.125,-0.71,-0.089,0.653,1.43,14.13,-11.44,1,0
16237.125,-0.711,-0.075,0.649,2.78,14.95,-13.58,1,0
16237.14,-0.724,-0.062,0.65,4.09,16.02,-15.81,1,0
16237.156,-0.738,-0.046,0.654,5.16,16.36,-16.91,1,0
16237.156,-0.743,-0.028,0.655,6.26,16.08,-17.21,1,0
16237.171,-0.749,-0.014,0.66,7.05,15.41,-16.72,1,0
16237.171,-0.748,-0.002,0.664,7.17,14.22,-15.23,1,0
16237.187,-0.751,0.005,0.668,6.62,13.03,-13.15,1,0
16237.203,-0.756,0.005,0.674,5.8,11.26,-10.59,1,0
16237.203,-0.754,0.005,0.673,5.04,9.52,-8.21,1,0
16237.218,-0.751,-0.002,0.669,4.21,7.84,-6.56,1,0
16237.234,-0.746,-0.01,0.663,3.39,6.2,-5.62,1,0
16237.234,-0.738,-0.01,0.659,2.81,5.19,-5.1,1,0
16237.25,-0.732,-0.013,0.66,2.69,4.91,-4.52,1,0
16237.265,-0.731,-0.015,0.662,2.84,4.85,-3.72,1,0
16237.281,-0.728,-0.019,0.667,2.81,4.79,-2.87,1,0
16237.281,-0.722,-0.021,0.673,2.17,4.12,-2.62,1,0
16237.296,-0.724,-0.032,0.678,1.59,3.08,-2.81,1,0
16237.296,-0.717,-0.041,0.683,2.01,2.32,-2.84,1,0
16237.312,-0.72,-0.039,0.689,3.42,1.65,-3.45,1,0
16237.312,-0.724,-0.039,0.694,4.88,0.37,-4.03,1,0
16237.328,-0.717,-0.026,0.695,5.4,-2.38,-5.28,1,0
16237.343,-0.745,-0.03,0.705,6.32,-4.97,-6.04,1,0
16237.343,-0.75,-0.006,0.732,7.6,-8.67,-5.16,1,0
16237.359,-0.769,0.014,0.732,9.06,-14.83,-3.78,1,0
16237.375,-0.764,0.013,0.734,7.81,-21.88,-1.13,1,0
16237.375,-0.777,0.029,0.747,5.8,-30.06,1.37,1,0
16237.39,-0.772,0.024,0.748,4.43,-39.22,4.3,1,0
16237.406,-0.758,0.042,0.755,3.17,-47.85,6.81,1,0
16237.406,-0.74,0.053,0.753,2.56,-54.05,9.06,1,0
16237.421,-0.726,0.046,0.738,1.92,-57.86,10.86,1,0
16237.421,-0.726,0.052,0.73,0.95,-59.02,13.03,1,0
16237.437,-0.712,0.056,0.737,0.73,-58.44,16.33,1,0
16237.453,-0.705,0.051,0.74,1.4,-58.05,19.23,1,0
16237.453,-0.692,0.046,0.738,1.04,-57.71,21.49,1,0
16237.468,-0.672,0.041,0.746,-1.31,-56.64,22.8,1,0
16237.484,-0.653,0.043,0.738,-2.41,-53.19,23.41,1,0
16237.484,-0.648,0.033,0.711,-3.14,-48.16,23.44,1,0
16237.5,-0.653,0.054,0.711,-5.4,-43.06,23.29,1,0
16237.515,-0.647,0.065,0.711,-7.57,-39.06,24.66,1,0
16237.515,-0.628,0.059,0.71,-11.54,-35.62,25.36,1,0
16237.531,-0.627,0.041,0.694,-15.63,-31.65,24.69,1,0
16237.546,-0.636,0.028,0.689,-19.41,-28.05,23.35,1,0
16237.546,-0.631,0.022,0.711,-22.46,-25.67,22.64,1,0
16237.562,-0.631,0.018,0.72,-24.32,-23.83,22.0,1,0
16237.562,-0.647,0.01,0.705,-24.84,-23.13,21.55,1,0
16237.578,-0.651,0.014,0.721,-24.11,-22.61,22.77,1,0
16237.593,-0.661,0.019,0.764,-23.26,-24.32,24.93,1,0
16237.593,-0.665,0.014,0.783,-24.08,-29.82,25.51,1,0
16237.609,-0.663,-0.005,0.787,-26.43,-37.42,25.42,1,0
16237.625,-0.623,-0.007,0.798,-29.48,-43.89,25.42,1,0
16237.625,-0.61,-0.016,0.79,-31.04,-47.85,23.5,1,0
16237.64,-0.597,-0.035,0.771,-30.79,-48.77,21.06,1,0
16237.64,-0.583,-0.03,0.77,-27.71,-47.49,19.07,1,0
16237.656,-0.575,-0.027,0.763,-24.14,-45.93,16.57,1,0
16237.671,-0.565,-0.026,0.757,-22.71,-43.43,12.39,1,0
16237.671,-0.57,-0.026,0.763,-22.58,-41.29,8.42,1,0
16237.687,-0.576,-0.024,0.787,-24.14,-40.41,4.67,1,0
16237.703,-0.575,-0.025,0.807,-26.12,-41.32,1.1,1,0
16237.718,-0.573,-0.051,0.816,-25.79,-43.58,-1.46,1,0
16237.718,-0.569,-0.065,0.81,-22.49,-44.4,-2.35,1,0
16237.734,-0.54,-0.061,0.811,-18.28,-42.82,-0.98,1,0
16237.734,-0.54,-0.063,0.814,-12.91,-39.55,1.68,1,0
16237.75,-0.545,-0.058,0.826,-6.53,-36.26,4.7,1,0
16237.765,-0.54,-0.042,0.825,-2.47,-34.18,6.99,1,0
16237.765,-0.538,-0.041,0.816,-1.31,-33.36,8.0,1,0
16237.781,-0.533,-0.038,0.824,-5.25,-34.24,6.62,1,0
16237.781,-0.527,-0.044,0.85,-9.0,-35.37,4.55,1,0
16237.796,-0.525,-0.048,0.845,-8.82,-36.44,3.36,1,0
16237.812,-0.513,-0.045,0.837,-9.22,-36.32,1.59,1,0
16237.828,-0.505,-0.05,0.844,-6.99,-34.55,0.15,1,0
16237.828,-0.501,-0.043,0.842,-2.23,-32.9,-0.31,1,0
16237.843,-0.486,-0.043,0.842,0.92,-31.34,-1.31,1,0
16237.843,-0.485,-0.037,0.832,4.67,-28.6,-1.95,1,0
16237.859,-0.484,-0.018,0.816,7.32,-25.67,-2.08,1,0
16237.875,-0.484,-0.011,0.814,5.52,-23.32,-2.14,1,0
16237.875,-0.48,-0.017,0.82,2.35,-21.27,-2.23,1,0
16237.89,-0.474,-0.018,0.811,0.95,-18.62,-1.77,1,0
16237.906,-0.476,-0.015,0.809,-0.52,-14.92,-0.89,1,0
16237.906,-0.478,-0.016,0.822,-2.44,-11.96,-0.82,1,0
16237.921,-0.473,-0.02,0.825,-3.88,-9.92,-0.82,1,0
16237.921,-0.463,-0.022,0.826,-3.69,-7.26,-0.43,1,0
16237.937,-0.457,-0.024,0.817,-0.37,-2.38,0.49,1,0
16237.953,-0.453,-0.02,0.799,4.73,4.82,1.43,1,0
16237.953,-0.456,-0.013,0.794,8.3,12.48,1.56,1,0
16237.968,-0.476,0.0,0.803,8.03,18.56,0.55,1,0
16237.984,-0.515,0.011,0.826,3.36,21.27,-0.73,1,0
16237.984,-0.54,0.009,0.865,-3.39,19.35,-1.07,1,0
16238.0,-0.54,-0.002,0.884,-10.28,10.44,1.13,1,0
16238.015,-0.529,-0.008,0.893,-9.43,7.66,2.17,1,0
16238.015,-0.522,-0.019,0.904,-7.32,5.28,2.01,1,0
16238.031,-0.495,-0.03,0.895,-5.92,4.12,0.46,1,0
16238.031,-0.477,-0.03,0.882,-4.0,4.97,-2.26,1,0
16238.046,-0.468,-0.025,0.87,-0.46,7.9,-5.1,1,0
16238.062,-0.48,-0.012,0.87,2.66,11.96,-7.48,1,0
16238.078,-0.504,0.002,0.876,3.91,15.08,-9.09,1,0
16238.078,-0.516,0.01,0.89,3.2,15.63,-9.61,1,0
16238.093,-0.534,0.011,0.907,3.39,14.68,-8.73,1,0
16238.093,-0.538,0.019,0.908,4.43,12.12,-6.56,1,0
16238.109,-0.538,0.021,0.901,4.73,8.82,-4.33,1,0
16238.125,-0.538,0.013,0.888,5.52,5.98,-2.14,1,0
16238.125,-0.526,0.012,0.869,6.84,4.06,0.03,1,0
16238.14,-0.514,0.011,0.848,7.17,3.27,1.4,1,0
16238.14,-0.504,0.01,0.841,5.52,3.45,1.98,1,0
16238.156,-0.502,0.007,0.842,4.46,4.73,2.47,1,0
16238.171,-0.506,0.01,0.846,3.72,6.2,3.54,1,0
16238.171,-0.511,0.007,0.862,2.53,6.29,4.55,1,0
16238.187,-0.513,-0.008,0.864,1.77,5.04,5.04,1,0
16238.203,-0.507,-0.01,0.863,1.43,3.81,5.43,1,0
16238.218,-0.506,-0.012,0.865,1.31,3.05,5.31,1,0
16238.218,-0.509,-0.016,0.866,0.89,2.41,4.46,1,0
16238.234,-0.514,-0.016,0.875,1.4,1.62,3.78,1,0
16238.234,-0.52,-0.015,0.867,3.05,0.37,3.42,1,0
16238.25,-0.503,-0.003,0.866,4.03,-0.7,3.23,1,0
16238.265,-0.5,-0.002,0.865,5.43,-0.67,2.72,1,0
16238.265,-0.507,0.008,0.86,6.23,-0.27,2.26,1,0
16238.281,-0.516,0.018,0.857,5.01,-0.82,1.56,1,0
16238.281,-0.529,0.016,0.865,1.65,-2.87,0.61,1,0
16238.296,-0.541,0.007,0.871,-1.4,-6.04,0.24,1,0
16238.312,-0.544,0.008,0.868,-3.36,-10.07,0.89,1,0
16238.312,-0.537,0.001,0.87,-5.28,-13.67,1.31,1,0
16238.328,-0.53,-0.008,0.875,-4.79,-15.59,2.35,1,0
16238.343,-0.524,-0.013,0.867,-2.44,-16.75,3.57,1,0
16238.343,-0.516,-0.016,0.847,-1.56,-18.19,3.91,1,0
16238.359,-0.492,-0.025,0.839,-2.41,-18.52,2.81,1,0
16238.375,-0.474,-0.029,0.84,-2.44,-16.24,1.13,1,0
16238.39,-0.478,-0.034,0.844,0.03,-12.54,0.15,1,0
16238.406,-0.49,-0.026,0.857,2.96,-9.19,-0.12,1,0
16238.421,-0.504,-0.022,0.872,3.91,-8.24,-0.27,1,0
16238.437,-0.509,-0.026,0.891,2.26,-10.35,-0.61,1,0
16238.453,-0.51,-0.035,0.904,0.92,-13.7,-0.67,1,0
16238.453,-0.502,-0.041,0.904,0.98,-17.18,-0.31,1,0
16238.468,-0.483,-0.049,0.892,2.38,-19.53,-0.34,1,0
16238.468,-0.464,-0.05,0.879,5.4,-19.38,-0.73,1,0
16238.468,-0.453,-0.047,0.868,8.94,-17.33,-1.37,1,0
16238.468,-0.447,-0.037,0.865,9.95,-14.53,-2.11,1,0
16238.484,-0.457,-0.034,0.876,9.77,-11.78,-2.81,1,0
16238.484,-0.473,-0.027,0.888,10.68,-10.41,-3.11,1,0
16238.5,-0.487,-0.019,0.897,10.8,-11.17,-2.99,1,0
16238.515,-0.487,-0.02,0.898,10.22,-13.43,-2.78,1,0
16238.515,-0.475,-0.015,0.891,11.47,-14.98,-2.2,1,0
16238.531,-0.465,-0.002,0.886,13.28,-14.77,-1.34,1,0
16238.531,-0.461,0.009,0.885,14.31,-13.92,-0.49,1,0
16238.546,-0.456,0.024,0.884,14.59,-12.54,0.76,1,0
16238.562,-0.438,0.036,0.887,14.53,-10.44,1.8,1,0
16238.562,-0.425,0.03,0.897,15.78,-7.35,1.62,1,0
16238.578,-0.422,0.043,0.916,17.3,-3.6,0.34,1,0
16238.593,-0.445,0.05,0.966,17.73,-1.43,-1.5,1,0
16238.593,-0.498,0.037,1.006,17.61,-3.97,-3.91,1,0
16238.609,-0.52,0.056,0.987,18.28,-10.74,-3.2,1,0
16238.625,-0.523,0.06,0.943,19.56,-18.01,0.06,1,0
16238.625,-0.509,0.072,0.888,18.07,-23.9,4.88,1,0
16238.64,-0.475,0.062,0.814,12.7,-26.15,9.46,1,0
16238.64,-0.458,0.047,0.787,6.99,-23.35,13.58,1,0
16238.656,-0.455,0.045,0.785,4.43,-18.31,17.76,1,0
16238.671,-0.443,0.044,0.778,2.14,-13.49,20.45,1,0
16238.671,-0.44,0.038,0.811,-2.11,-9.89,20.51,1,0
16238.687,-0.451,0.029,0.853,-5.65,-8.76,19.71,1,0
16238.703,-0.454,0.022,0.869,-8.88,-10.28,18.31,1,0
16238.703,-0.453,0.005,0.88,-9.92,-11.96,16.63,1,0
16238.718,-0.462,-0.015,0.865,-7.05,-12.6,15.17,1,0
16238.734,-0.449,-0.013,0.827,-5.13,-12.42,13.0,1,0
16238.734,-0.446,-0.016,0.827,-4.36,-10.25,9.89,1,0
16238.75,-0.458,-0.007,0.855,-3.69,-9.28,7.23,1,0
16238.765,-0.445,-0.001,0.834,-3.48,-9.4,4.46,1,0
16238.765,-0.448,0.007,0.86,-1.43,-8.48,3.2,1,0
16238.781,-0.445,0.03,0.869,-0.06,-8.7,2.23,1,0
16238.781,-0.454,0.046,0.858,-0.7,-9.31,1.34,1,0
16238.796,-0.467,0.057,0.876,-3.48,-10.9,0.95,1,0
16238.812,-0.468,0.063,0.893,-6.56,-13.43,1.62,1,0
16238.812,-0.456,0.065,0.899,-8.21,-15.02,4.03,1,0
16238.828,-0.461,0.059,0.904,-10.25,-15.72,6.35,1,0
16238.843,-0.449,0.053,0.922,-14.07,-16.85,7.66,1,0
16238.843,-0.44,0.042,0.946,-16.11,-16.54,8.09,1,0
16238.859,-0.458,0.046,0.982,-17.27,-16.05,7.45,1,0
16238.875,-0.451,0.044,1.004,-19.38,-17.98,6.23,1,0
16238.875,-0.437,0.033,1.02,-18.95,-19.01,5.43,1,0
16238.89,-0.431,0.037,1.019,-16.91,-18.43,5.49,1,0
16238.906,-0.416,0.034,1.021,-15.78,-17.06,4.97,1,0
16238.906,-0.401,0.028,1.011,-13.46,-14.1,4.82,1,0
16238.921,-0.412,0.028,1.002,-9.31,-9.28,5.37,1,0
16238.921,-0.401,0.031,0.986,-4.79,-5.46,6.84,1,0
16238.937,-0.402,0.041,0.973,-1.22,-2.44,7.84,1,0
16238.953,-0.451,0.028,0.97,1.46,-1.77,9.09,1,0
16238.953,-0.449,0.025,0.952,-1.74,-6.84,10.8,1,0
16238.968,-0.412,0.007,0.918,-7.39,-12.42,11.9,1,0
16238.984,-0.386,-0.021,0.873,-10.59,-11.51,13.37,1,0
16238.984,-0.351,-0.023,0.832,-14.5,-7.6,11.38,1,0
16239.0,-0.338,-0.037,0.825,-17.4,-2.75,9.49,1,0
16239.0,-0.35,-0.043,0.851,-17.76,0.7,9.13,1,0
16239.015,-0.336,-0.034,0.863,-18.16,3.57,8.33,1,0
16239.031,-0.34,-0.033,0.873,-18.83,7.81,6.99,1,0
16239.046,-0.367,-0.033,0.899,-19.81,11.6,5.46,1,0
16239.046,-0.41,-0.019,0.936,-22.83,12.33,3.78,1,0
16239.062,-0.446,-0.013,0.969,-25.12,9.61,2.2,1,0
16239.062,-0.454,-0.008,0.969,-24.99,5.49,2.14,1,0
16239.078,-0.434,-0.006,0.944,-25.73,2.44,3.2,1,0
16239.093,-0.409,-0.023,0.915,-29.24,2.04,4.12,1,0
16239.093,-0.39,-0.049,0.897,-32.72,4.12,4.64,1,0
16239.109,-0.375,-0.073,0.888,-34.94,6.47,3.66,1,0
16239.125,-0.375,-0.097,0.901,-34.52,7.75,-0.12,1,0
16239.125,-0.386,-0.116,0.927,-29.21,6.35,-5.8,1,0
16239.14,-0.381,-0.127,0.937,-20.11,1.65,-12.79,1,0
16239.156,-0.37,-0.13,0.924,-9.13,-4.39,-20.97,1,0
16239.156,-0.364,-0.102,0.894,2.5,-9.86,-28.81,1,0
16239.171,-0.356,-0.055,0.85,12.63,-13.31,-35.25,1,0
16239.171,-0.36,-0.021,0.814,19.81,-13.76,-39.46,1,0
16239.187,-0.385,0.018,0.791,25.09,-11.44,-40.1,1,0
16239.203,-0.419,0.059,0.779,25.39,-9.4,-37.08,1,0
16239.203,-0.428,0.064,0.779,20.05,-8.7,-31.65,1,0
16239.218,-0.432,0.06,0.777,14.74,-7.39,-24.26,1,0
16239.234,-0.429,0.057,0.777,10.1,-5.13,-16.63,1,0
16239.234,-0.424,0.041,0.797,4.15,-2.32,-10.93,1,0
16239.25,-0.421,0.021,0.825,-0.7,0.0,-6.74,1,0
16239.265,-0.407,0.01,0.842,-3.75,1.89,-3.23,1,0
16239.265,-0.386,-0.009,0.854,-5.86,3.88,-0.58,1,0
16239.281,-0.374,-0.026,0.884,-6.1,6.99,1.53,1,0
16239.281,-0.321,-0.024,0.966,-4.39,10.04,3.45,1,0
16239.296,-0.285,-0.02,1.053,-1.5,11.47,3.27,1,0
16239.312,-0.28,-0.025,1.134,1.74,10.5,1.59,1,0
16239.312,-0.283,-0.017,1.18,5.19,6.5,0.76,1,0
16239.328,-0.314,-0.006,1.15,7.48,0.67,2.11,1,0
16239.343,-0.35,-0.006,1.075,5.89,-5.37,4.94,1,0
16239.343,-0.368,-0.026,1.006,3.42,-9.49,7.69,1,0
16239.359,-0.377,-0.034,0.95,3.45,-10.19,9.64,1,0
16239.375,-0.384,-0.039,0.91,4.49,-8.85,10.04,1,0
16239.375,-0.388,-0.038,0.879,4.82,-6.78,9.13,1,0
16239.39,-0.409,-0.029,0.868,4.58,-4.49,8.18,1,0
16239.406,-0.415,-0.022,0.845,3.66,-3.39,8.91,1,0
16239.406,-0.404,-0.02,0.819,-0.92,-2.56,11.47,1,0
16239.421,-0.399,-0.03,0.821,-5.92,-0.03,13.67,1,0
16239.421,-0.414,-0.038,0.839,-8.12,2.9,14.77,1,0
16239.437,-0.43,-0.048,0.868,-9.25,3.97,15.02,1,0
16239.453,-0.435,-0.058,0.895,-7.9,3.23,15.08,1,0
16239.468,-0.428,-0.058,0.904,-5.25,1.25,15.05,1,0
16239.468,-0.412,-0.054,0.903,-3.63,-1.62,13.95,1,0
16239.484,-0.4,-0.056,0.891,-2.29,-3.63,11.81,1,0
16239.484,-0.401,-0.048,0.88,-0.15,-4.06,9.46,1,0
16239.5,-0.407,-0.034,0.875,1.19,-3.78,7.26,1,0
16239.515,-0.412,-0.029,0.862,1.95,-3.2,6.16,1,0
16239.515,-0.397,-0.022,0.838,1.71,-1.22,5.92,1,0
16239.531,-0.389,-0.021,0.84,0.67,2.72,6.04,1,0
16239.531,-0.401,-0.02,0.875,-0.43,6.68,6.26,1,0
16239.546,-0.399,-0.025,0.917,-1.16,7.93,6.29,1,0
16239.562,-0.385,-0.024,0.954,-1.71,7.08,5.31,1,0
16239.562,-0.373,-0.024,0.975,-1.74,5.07,3.94,1,0
16239.578,-0.353,-0.026,0.977,-0.92,2.93,2.29,1,0
16239.593,-0.345,-0.02,0.974,1.25,2.72,0.58,1,0
16239.609,-0.368,-0.009,0.976,3.69,3.51,-0.31,1,0
16239.609,-0.399,0.002,0.972,4.12,3.17,-0.09,1,0
16239.625,-0.412,0.004,0.971,2.32,1.16,0.85,1,0
16239.625,-0.419,0.004,0.964,0.92,-1.07,2.47,1,0
16239.64,-0.431,0.001,0.951,-0.06,-3.05,4.21,1,0
16239.656,-0.432,-0.014,0.939,-1.83,-5.22,5.8,1,0
16239.656,-0.411,-0.028,0.916,-3.36,-6.74,6.74,1,0
16239.671,-0.392,-0.039,0.902,-4.18,-5.98,5.8,1,0
16239.671,-0.391,-0.043,0.903,-3.69,-3.36,4.18,1,0
16239.687,-0.405,-0.04,0.914,-1.53,-0.79,2.26,1,0
16239.703,-0.427,-0.032,0.921,0.64,0.0,0.37,1,0
16239.703,-0.437,-0.019,0.925,0.95,-1.37,-1.01,1,0
16239.718,-0.432,-0.011,0.915,0.64,-3.14,-1.04,1,0
16239.734,-0.431,-0.002,0.911,0.24,-4.06,0.03,1,0
16239.734,-0.422,-0.003,0.898,-0.52,-4.55,1.86,1,0
16239.75,-0.404,-0.007,0.884,-2.93,-4.33,3.94,1,0
16239.765,-0.387,-0.02,0.877,-5.58,-2.84,5.04,1,0
16239.765,-0.391,-0.031,0.887,-6.13,0.49,5.58,1,0
16239.781,-0.406,-0.034,0.907,-4.73,3.42,5.86,1,0
16239.781,-0.406,-0.036,0.92,-3.54,4.18,5.37,1,0
16239.796,-0.413,-0.042,0.928,-2.2,4.24,4.55,1,0
16239.812,-0.419,-0.033,0.936,-1.62,3.42,3.94,1,0
16239.828,-0.415,-0.031,0.936,-2.04,1.25,3.23,1,0
16239.828,-0.404,-0.034,0.924,-2.32,-0.67,2.75,1,0
16239.843,-0.392,-0.027,0.912,-2.32,-1.71,2.53,1,0
16239.843,-0.39,-0.025,0.905,-2.59,-1.68,2.17,1,0
16239.859,-0.389,-0.021,0.898,-3.17,-1.07,2.62,1,0
16239.875,-0.395,-0.021,0.892,-3.91,0.37,3.23,1,0
16239.875,-0.4,-0.021,0.895,-4.97,1.92,3.94,1,0
16239.89,-0.41,-0.024,0.903,-6.01,3.02,4.52,1,0
16239.906,-0.419,-0.031,0.905,-7.51,2.99,5.16,1,0
16239.906,-0.416,-0.042,0.904,-9.74,2.32,5.52,1,0
16239.921,-0.403,-0.055,0.896,-11.51,1.8,4.7,1,0
16239.921,-0.396,-0.062,0.899,-11.75,2.44,2.99,1,0
16239.937,-0.396,-0.06,0.908,-10.1,3.33,1.1,1,0
16239.953,-0.396,-0.052,0.909,-8.27,4.15,-1.13,1,0
16239.953,-0.411,-0.049,0.907,-6.9,5.31,-3.14,1,0
16239.968,-0.424,-0.052,0.9,-9.61,4.94,-3.08,1,0
16239.984,-0.416,-0.053,0.888,-13.18,5.55,-3.14,1,0
16239.984,-0.411,-0.063,0.888,-15.81,6.65,-2.87,1,0
16240.0,-0.419,-0.067,0.914,-18.74,6.13,-3.11,1,0
16240.015,-0.422,-0.068,0.923,-22.46,3.81,-3.88,1,0
16240.015,-0.412,-0.078,0.913,-25.61,1.53,-4.0,1,0
16240.031,-0.419,-0.073,0.924,-25.67,1.31,-3.23,1,0
16240.046,-0.419,-0.089,0.939,-20.69,1.16,-2.29,1,0
16240.046,-0.407,-0.076,0.943,-14.1,0.89,-1.56,1,0
16240.062,-0.403,-0.075,0.945,-7.14,0.89,-1.62,1,0
16240.062,-0.4,-0.068,0.94,-2.62,1.1,-1.56,1,0
16240.078,-0.41,-0.06,0.94,-1.13,0.76,-1.8,1,0
16240.093,-0.429,-0.054,0.939,-1.65,-0.98,-1.74,1,0
16240.093,-0.426,-0.046,0.935,-3.2,-3.42,-1.34,1,0
16240.109,-0.425,-0.048,0.921,-4.3,-5.31,-0.82,1,0
16240.125,-0.426,-0.046,0.911,-4.73,-6.13,-0.27,1,0
16240.125,-0.427,-0.043,0.907,-3.66,-6.01,0.61,1,0
16240.14,-0.432,-0.037,0.897,-2.26,-6.07,1.68,1,0
16240.156,-0.412,-0.041,0.884,-2.84,-7.08,2.81,1,0
16240.156,-0.391,-0.049,0.873,-3.02,-6.41,3.69,1,0
16240.171,-0.385,-0.054,0.869,-1.07,-3.48,4.27,1,0
16240.171,-0.393,-0.051,0.881,0.85,-0.55,4.09,1,0
16240.187,-0.404,-0.047,0.895,1.74,0.67,3.08,1,0
16240.203,-0.406,-0.052,0.892,1.4,0.43,1.68,1,0
16240.203,-0.408,-0.052,0.901,1.1,0.24,0.49,1,0
16240.218,-0.42,-0.046,0.903,1.83,-0.18,-0.55,1,0
16240.234,-0.412,-0.043,0.89,1.43,-1.19,-1.28,1,0
16240.234,-0.393,-0.043,0.874,0.79,-0.85,-2.11,1,0
16240.25,-0.39,-0.044,0.873,1.37,2.08,-3.08,1,0
16240.265,-0.399,-0.038,0.888,2.59,5.68,-3.57,1,0
16240.265,-0.404,-0.031,0.904,3.78,8.0,-3.94,1,0
16240.281,-0.418,-0.023,0.926,3.11,8.58,-4.55,1,0
16240.281,-0.433,-0.027,0.946,1.56,6.56,-4.85,1,0
16240.296,-0.439,-0.035,0.954,-0.06,2.78,-4.73,1,0
16240.312,-0.446,-0.046,0.956,-1.07,-1.37,-4.15,1,0
16240.328,-0.439,-0.062,0.947,-0.98,-5.16,-3.02,1,0
16240.328,-0.421,-0.063,0.928,0.18,-7.17,-2.01,1,0
16240.343,-0.414,-0.068,0.91,2.93,-6.44,-1.22,1,0
16240.343,-0.416,-0.069,0.896,6.35,-4.24,0.21,1,0
16240.359,-0.422,-0.067,0.882,7.63,-1.86,1.68,1,0
16240.375,-0.425,-0.078,0.879,6.07,-0.61,3.27,1,0
16240.375,-0.425,-0.092,0.888,3.91,-0.24,4.33,1,0
16240.39,-0.423,-0.1,0.891,2.2,-0.43,4.76,1,0
16240.39,-0.417,-0.104,0.899,0.12,-0.52,4.15,1,0
16240.406,-0.415,-0.111,0.91,-0.79,-0.37,3.14,1,0
16240.421,-0.422,-0.11,0.917,-0.58,-0.82,2.35,1,0
16240.421,-0.429,-0.111,0.914,-1.01,-2.26,1.13,1,0
16240.437,-0.432,-0.118,0.908,-1.04,-4.03,-0.34,1,0
16240.453,-0.433,-0.12,0.897,0.67,-5.01,-1.31,1,0
16240.453,-0.421,-0.11,0.88,3.94,-4.52,-1.16,1,0
16240.468,-0.416,-0.093,0.856,5.89,-2.26,-0.15,1,0
16240.484,-0.411,-0.091,0.849,3.85,0.64,1.13,1,0
16240.484,-0.41,-0.095,0.859,-0.92,2.96,2.35,1,0
16240.5,-0.408,-0.103,0.87,-5.1,4.27,3.2,1,0
16240.515,-0.418,-0.114,0.894,-6.35,5.19,2.96,1,0
16240.515,-0.433,-0.118,0.92,-4.91,4.7,1.83,1,0
16240.531,-0.43,-0.115,0.924,-3.85,1.95,-0.03,1,0
16240.546,-0.413,-0.107,0.917,-2.44,-0.21,-1.95,1,0
16240.546,-0.404,-0.096,0.912,0.64,-0.09,-3.36,1,0
16240.562,-0.401,-0.074,0.903,2.2,0.61,-4.52,1,0
16240.562,-0.4,-0.067,0.899,1.89,1.22,-5.19,1,0
16240.578,-0.396,-0.057,0.891,1.4,2.17,-4.94,1,0
16240.593,-0.402,-0.05,0.888,0.06,3.78,-4.49,1,0
16240.593,-0.423,-0.051,0.906,-1.98,4.76,-3.94,1,0
16240.609,-0.437,-0.053,0.922,-3.94,3.63,-3.17,1,0
16240.625,-0.429,-0.055,0.921,-4.94,1.4,-2.38,1,0
16240.625,-0.422,-0.059,0.918,-3.78,0.21,-2.14,1,0
16240.64,-0.422,-0.058,0.92,-1.04,-0.18,-2.38,1,0
16240.64,-0.413,-0.049,0.912,0.52,-0.92,-3.05,1,0
16240.656,-0.411,-0.046,0.907,1.43,-1.1,-4.0,1,0
16240.671,-0.421,-0.037,0.908,2.5,-0.46,-4.24,1,0
16240.671,-0.423,-0.027,0.905,2.04,-0.55,-3.39,1,0
16240.687,-0.414,-0.028,0.898,0.15,-1.07,-2.29,1,0
16240.703,-0.403,-0.036,0.882,-1.68,-0.67,-1.19,1,0
16240.703,-0.396,-0.042,0.877,-2.78,1.34,-0.64,1,0
16240.718,-0.408,-0.05,0.882,-3.11,4.03,-0.61,1,0
16240.734,-0.417,-0.056,0.892,-3.51,5.77,-0.79,1,0
16240.734,-0.419,-0.062,0.901,-4.46,6.26,-0.95,1,0
16240.75,-0.422,-0.075,0.901,-5.01,5.95,-1.59,1,0
16240.765,-0.425,-0.076,0.901,-4.91,5.62,-2.53,1,0
16240.765,-0.429,-0.077,0.901,-4.82,4.82,-3.72,1,0
16240.781,-0.43,-0.077,0.899,-6.26,3.3,-4.76,1,0
16240.781,-0.432,-0.081,0.904,-8.36,1.98,-5.01,1,0
16240.796,-0.433,-0.084,0.906,-8.7,1.13,-4.15,1,0
16240.812,-0.433,-0.091,0.915,-7.57,0.89,-2.81,1,0
16240.812,-0.431,-0.086,0.924,-4.97,0.85,-0.92,1,0
16240.828,-0.42,-0.077,0.921,-2.72,0.31,0.82,1,0
16240.843,-0.405,-0.084,0.91,-2.75,-0.24,1.5,1,0
16240.859,-0.404,-0.083,0.907,-3.78,0.15,1.77,1,0
16240.859,-0.413,-0.088,0.905,-3.33,1.34,2.08,1,0
16240.875,-0.421,-0.089,0.894,-2.23,2.26,2.38,1,0
16240.875,-0.429,-0.092,0.89,-1.98,2.99,2.35,1,0
16240.89,-0.448,-0.105,0.894,-2.04,3.27,2.17,1,0
16240.89,-0.44,-0.109,0.897,-2.17,2.44,2.04,1,0
16240.906,-0.428,-0.105,0.891,-2.08,1.62,1.19,1,0
16240.921,-0.43,-0.101,0.896,-1.19,1.86,-0.31,1,0
16240.921,-0.44,-0.091,0.898,0.82,2.08,-1.43,1,0
16240.937,-0.442,-0.07,0.894,1.98,1.53,-1.95,1,0
16240.953,-0.434,-0.057,0.884,-0.18,1.86,-0.89,1,0
16240.953,-0.43,-0.052,0.875,-1.19,3.36,0.52,1,0
16240.968,-0.433,-0.052,0.872,-2.69,4.82,2.32,1,0
16240.984,-0.426,-0.068,0.871,-4.73,6.2,3.42,1,0
16240.984,-0.431,-0.08,0.872,-6.23,7.57,3.91,1,0
16241.0,-0.433,-0.088,0.872,-7.42,8.36,3.75,1,0
16241.015,-0.425,-0.092,0.874,-8.21,9.34,2.99,1,0
16241.015,-0.431,-0.093,0.887,-7.84,10.53,2.04,1,0
16241.031,-0.438,-0.091,0.891,-7.08,10.5,1.28,1,0
16241.031,-0.44,-0.086,0.893,-7.78,9.86,0.4,1,0
16241.046,-0.447,-0.088,0.899,-8.97,8.79,-0.79,1,0
16241.062,-0.458,-0.085,0.9,-9.77,7.51,-1.59,1,0
16241.078,-0.462,-0.084,0.896,-9.86,6.29,-1.19,1,0
16241.078,-0.459,-0.086,0.897,-9.4,5.83,0.0,1,0
16241.093,-0.452,-0.089,0.904,-9.43,5.71,1.5,1,0
16241.093,-0.449,-0.096,0.905,-9.13,5.22,2.9,1,0
16241.109,-0.449,-0.101,0.903,-8.45,4.46,4.0,1,0
16241.125,-0.448,-0.103,0.898,-7.6,3.48,4.36,1,0
16241.125,-0.457,-0.11,0.903,-6.56,2.5,4.0,1,0
16241.14,-0.464,-0.11,0.9,-5.31,1.19,3.45,1,0
16241.14,-0.468,-0.114,0.894,-4.09,0.37,3.23,1,0
16241.156,-0.464,-0.114,0.886,-3.39,-0.09,3.72,1,0
16241.171,-0.463,-0.117,0.882,-3.39,-0.37,4.09,1,0
16241.171,-0.452,-0.121,0.877,-3.51,-0.58,3.97,1,0
16241.187,-0.447,-0.121,0.875,-3.51,-0.43,3.36,1,0
16241.203,-0.449,-0.121,0.878,-2.62,0.15,2.38,1,0
16241.203,-0.454,-0.119,0.887,-1.8,0.37,1.71,1,0
16241.218,-0.461,-0.113,0.895,-1.46,0.21,1.13,1,0
16241.234,-0.47,-0.111,0.902,-0.49,-0.21,0.79,1,0
16241.234,-0.465,-0.104,0.902,-0.15,-1.28,0.98,1,0
16241.25,-0.461,-0.103,0.905,-0.89,-2.32,1.16,1,0
16241.265,-0.459,-0.107,0.9,-2.11,-3.48,1.53,1,0
16241.265,-0.458,-0.113,0.893,-2.66,-4.3,1.89,1,0
16241.281,-0.452,-0.118,0.883,-2.99,-4.76,1.92,1,0
16241.296,-0.446,-0.121,0.88,-3.27,-4.7,1.19,1,0
16241.296,-0.451,-0.123,0.889,-2.84,-4.18,0.21,1,0
16241.312,-0.446,-0.117,0.889,-2.62,-4.67,-0.67,1,0
16241.312,-0.437,-0.112,0.885,-2.59,-4.88,-1.28,1,0
16241.328,-0.438,-0.112,0.878,-2.96,-4.24,-1.4,1,0
16241.343,-0.441,-0.111,0.884,-3.72,-3.45,-0.7,1,0
16241.343,-0.451,-0.107,0.888,-4.0,-3.11,0.46,1,0
16241.359,-0.464,-0.11,0.904,-5.43,-4.39,1.34,1,0
16241.375,-0.463,-0.116,0.919,-6.59,-7.72,1.89,1,0
16241.375,-0.455,-0.121,0.923,-6.26,-11.38,2.35,1,0
16241.39,-0.443,-0.124,0.911,-4.7,-14.62,1.95,1,0
16241.39,-0.433,-0.122,0.897,-2.99,-16.48,0.82,1,0
16241.406,-0.432,-0.117,0.881,-1.68,-16.88,-0.58,1,0
16241.421,-0.432,-0.112,0.868,-1.07,-16.02,-1.71,1,0
16241.437,-0.425,-0.111,0.857,-1.13,-14.47,-2.5,1,0
16241.437,-0.426,-0.106,0.855,-1.16,-12.21,-3.27,1,0
16241.453,-0.44,-0.102,0.861,-0.55,-9.8,-3.69,1,0
16241.453,-0.455,-0.097,0.874,-0.89,-8.91,-3.45,1,0
16241.468,-0.455,-0.096,0.883,-2.14,-10.1,-3.02,1,0
16241.484,-0.448,-0.095,0.889,-2.99,-11.99,-2.44,1,0
16241.5,-0.441,-0.094,0.891,-2.29,-13.25,-1.95,1,0
16241.5,-0.439,-0.087,0.892,-0.7,-13.73,-1.62,1,0
16241.515,-0.444,-0.083,0.897,0.82,-13.92,-1.4,1,0
16241.515,-0.445,-0.077,0.907,1.01,-14.98,-0.61,1,0
16241.531,-0.44,-0.075,0.914,-0.55,-16.72,0.73,1,0
16241.531,-0.427,-0.082,0.918,-2.01,-18.74,2.14,1,0
16241.546,-0.409,-0.09,0.899,-1.68,-19.75,3.42,1,0
16241.562,-0.4,-0.095,0.878,-0.21,-19.01,3.97,1,0
16241.562,-0.406,-0.1,0.881,0.37,-17.3,3.54,1,0
16241.578,-0.416,-0.11,0.889,0.52,-16.75,3.2,1,0
16241.593,-0.408,-0.111,0.883,0.52,-16.66,3.14,1,0
16241.593,-0.404,-0.11,0.882,-0.92,-15.84,2.53,1,0
16241.609,-0.393,-0.12,0.871,-2.11,-14.98,1.71,1,0
16241.625,-0.366,-0.12,0.865,-3.3,-13.0,0.49,1,0
16241.625,-0.355,-0.122,0.869,-3.23,-8.97,-0.58,1,0
16241.64,-0.367,-0.117,0.882,-1.56,-3.88,-1.1,1,0
16241.64,-0.381,-0.114,0.904,-0.12,-0.12,-1.13,1,0
16241.656,-0.405,-0.109,0.932,0.61,1.34,-0.98,1,0
16241.671,-0.42,-0.114,0.95,0.24,-0.15,-0.31,1,0
16241.687,-0.41,-0.117,0.955,-1.62,-3.02,0.55,1,0
16241.687,-0.4,-0.125,0.945,-3.57,-5.52,0.95,1,0
16241.703,-0.392,-0.133,0.937,-4.67,-7.08,0.98,1,0
16241.703,-0.384,-0.139,0.926,-4.73,-8.67,0.7,1,0
16241.718,-0.363,-0.143,0.906,-4.18,-8.7,0.31,1,0
16241.734,-0.354,-0.147,0.893,-2.17,-5.89,-0.03,1,0
16241.734,-0.364,-0.142,0.896,0.7,-1.83,0.09,1,0
16241.75,-0.383,-0.132,0.913,2.23,0.76,0.0,1,0
16241.765,-0.402,-0.134,0.933,2.35,1.31,-0.24,1,0
16241.765,-0.416,-0.136,0.94,1.89,0.18,0.21,1,0
16241.781,-0.41,-0.134,0.935,0.67,-2.01,0.79,1,0
16241.796,-0.402,-0.137,0.923,0.15,-3.57,0.4,1,0
16241.796,-0.395,-0.136,0.914,0.4,-3.91,-0.43,1,0
16241.812,-0.391,-0.132,0.908,0.7,-3.72,-1.07,1,0
16241.812,-0.391,-0.13,0.902,1.68,-2.78,-1.56,1,0
16241.828,-0.394,-0.127,0.893,2.56,-1.74,-2.01,1,0
16241.843,-0.402,-0.122,0.893,2.62,-0.58,-2.29,1,0
16241.843,-0.413,-0.12,0.9,2.11,0.0,-2.53,1,0
16241.859,-0.416,-0.12,0.904,0.79,-0.31,-2.26,1,0
16241.875,-0.399,-0.119,0.893,0.0,-0.61,-1.4,1,0
16241.875,-0.391,-0.122,0.888,0.03,0.49,-0.85,1,0
16241.89,-0.403,-0.124,0.891,0.61,1.86,-0.58,1,0
16241.906,-0.409,-0.123,0.896,0.49,2.04,-0.52,1,0
16241.906,-0.414,-0.124,0.897,0.09,1.43,-0.24,1,0
16241.921,-0.419,-0.123,0.902,-0.58,0.67,0.24,1,0
16241.921,-0.42,-0.127,0.894,-2.69,0.0,1.16,1,0
16241.937,-0.406,-0.125,0.884,-3.14,1.59,1.01,1,0
16241.953,-0.394,-0.123,0.881,-2.75,4.03,0.43,1,0
16241.953,-0.389,-0.117,0.884,-1.98,6.16,-0.37,1,0
16241.968,-0.377,-0.104,0.905,-1.43,7.72,-0.98,1,0
16241.984,-0.375,-0.103,0.912,-1.1,8.82,-1.4,1,0
16241.984,-0.377,-0.098,0.927,-0.92,8.97,-1.22,1,0
16242.0,-0.386,-0.099,0.955,-1.65,7.78,-0.76,1,0
16242.015,-0.381,-0.101,0.97,-2.04,4.76,-0.34,1,0
16242.015,-0.365,-0.099,0.965,-2.35,1.62,-0.15,1,0
16242.031,-0.352,-0.101,0.954,-2.62,-0.21,-0.34,1,0
16242.031,-0.355,-0.104,0.94,-2.84,-0.82,-1.1,1,0
16242.046,-0.364,-0.103,0.926,-2.41,-0.73,-2.14,1,0
16242.062,-0.375,-0.102,0.913,-1.43,0.09,-2.81,1,0
16242.062,-0.393,-0.102,0.902,-0.21,1.46,-3.05,1,0
16242.078,-0.414,-0.109,0.898,1.01,3.02,-3.02,1,0
16242.093,-0.433,-0.112,0.901,2.56,3.91,-2.81,1,0
16242.093,-0.442,-0.115,0.895,3.51,3.36,-3.05,1,0
16242.109,-0.444,-0.117,0.888,3.02,1.71,-3.48,1,0
16242.125,-0.448,-0.114,0.881,2.66,0.4,-3.94,1,0
16242.125,-0.457,-0.109,0.884,2.75,-0.76,-4.09,1,0
16242.14,-0.455,-0.101,0.883,2.93,-2.26,-3.3,1,0
16242.14,-0.434,-0.096,0.868,2.72,-3.02,-1.34,1,0
16242.156,-0.421,-0.094,0.859,2.2,-2.04,1.01,1,0
16242.171,-0.413,-0.099,0.859,0.37,-0.55,2.87,1,0
16242.171,-0.405,-0.106,0.861,-2.38,0.21,4.09,1,0
16242.187,-0.395,-0.115,0.866,-3.69,0.82,5.04,1,0
16242.203,-0.393,-0.122,0.874,-2.72,1.86,5.68,1,0
16242.203,-0.395,-0.122,0.886,-1.37,2.47,6.07,1,0
16242.218,-0.388,-0.122,0.895,-1.13,1.92,5.98,1,0
16242.234,-0.379,-0.126,0.903,-1.5,1.25,5.55,1,0
16242.234,-0.38,-0.127,0.91,-0.61,1.68,5.46,1,0
16242.25,-0.381,-0.125,0.916,0.73,2.29,5.74,1,0
16242.265,-0.376,-0.12,0.931,0.85,2.69,6.35,1,0
16242.265,-0.374,-0.12,0.944,-0.34,2.96,7.57,1,0
16242.281,-0.38,-0.119,0.962,-2.44,2.04,9.06,1,0
16242.281,-0.384,-0.12,0.974,-4.76,-0.52,10.38,1,0
16242.296,-0.386,-0.126,0.973,-5.62,-3.88,10.83,1,0
16242.312,-0.384,-0.122,0.949,-3.42,-6.35,10.9,1,0
16242.312,-0.385,-0.116,0.922,-1.77,-7.26,10.62,1,0
16242.328,-0.392,-0.104,0.9,-1.65,-6.81,9.64,1,0
16242.343,-0.404,-0.106,0.875,-1.68,-5.07,9.28,1,0
16242.343,-0.409,-0.1,0.856,-2.01,-2.44,9.74,1,0
16242.359,-0.412,-0.104,0.85,-2.96,0.92,10.41,1,0
16242.375,-0.426,-0.114,0.863,-4.64,4.09,11.35,1,0
16242.375,-0.445,-0.12,0.887,-7.29,5.31,12.15,1,0
16242.39,-0.45,-0.129,0.911,-8.73,4.24,12.88,1,0
16242.406,-0.447,-0.13,0.931,-9.77,1.68,13.55,1,0
16242.406,-0.438,-0.134,0.935,-10.44,-1.53,13.4,1,0
16242.421,-0.427,-0.139,0.934,-9.95,-4.06,12.54,1,0
16242.421,-0.422,-0.148,0.931,-8.88,-6.23,10.99,1,0
16242.437,-0.416,-0.145,0.914,-6.93,-7.57,9.22,1,0
16242.453,-0.416,-0.143,0.899,-5.13,-7.35,7.17,1,0
16242.453,-0.417,-0.147,0.889,-4.61,-6.56,5.22,1,0
16242.468,-0.414,-0.15,0.876,-4.52,-5.01,4.03,1,0
16242.484,-0.408,-0.156,0.871,-4.82,-2.62,3.17,1,0
16242.484,-0.409,-0.163,0.876,-5.13,-0.15,2.11,1,0
16242.5,-0.41,-0.168,0.881,-5.34,0.98,0.34,1,0
16242.515,-0.403,-0.174,0.884,-4.88,1.65,-2.23,1,0
16242.515,-0.394,-0.169,0.883,-2.38,3.08,-4.97,1,0
16242.531,-0.4,-0.151,0.887,1.13,5.4,-7.72,1,0
16242.546,-0.424,-0.134,0.908,4.61,6.99,-9.86,1,0
16242.546,-0.43,-0.115,0.929,6.68,5.49,-10.62,1,0
16242.562,-0.428,-0.102,0.939,7.05,2.5,-10.25,1,0
16242.562,-0.429,-0.095,0.949,6.41,-0.43,-9.49,1,0
16242.578,-0.412,-0.09,0.94,4.91,-3.63,-8.61,1,0
16242.593,-0.402,-0.089,0.915,4.21,-5.13,-7.9,1,0
16242.593,-0.403,-0.086,0.899,4.21,-4.67,-6.81,1,0
16242.609,-0.411,-0.084,0.892,3.23,-3.91,-5.74,1,0
16242.625,-0.407,-0.085,0.886,1.1,-3.39,-4.46,1,0
16242.625,-0.409,-0.092,0.884,-0.55,-2.23,-3.14,1,0
16242.64,-0.408,-0.095,0.884,-1.22,-0.7,-1.95,1,0
16242.656,-0.413,-0.097,0.894,-1.86,0.79,-1.25,1,0
16242.656,-0.424,-0.106,0.912,-2.84,1.13,-0.67,1,0
16242.671,-0.419,-0.113,0.914,-4.36,-0.03,-0.03,1,0
16242.671,-0.402,-0.124,0.908,-5.04,-0.85,0.4,1,0
16242.687,-0.399,-0.131,0.909,-4.43,-0.43,0.27,1,0
16242.703,-0.414,-0.133,0.922,-3.08,-0.43,0.06,1,0
16242.703,-0.408,-0.134,0.913,-2.32,-1.92,0.03,1,0
16242.718,-0.397,-0.137,0.9,-2.01,-2.66,0.03,1,0
16242.734,-0.41,-0.141,0.901,-1.65,-2.2,-0.06,1,0
16242.734,-0.41,-0.136,0.9,-1.83,-2.66,0.0,1,0
16242.75,-0.403,-0.139,0.888,-2.11,-2.78,0.18,1,0
16242.765,-0.403,-0.142,0.875,-1.98,-1.5,0.52,1,0
16242.765,-0.407,-0.141,0.883,-2.29,0.43,0.79,1,0
16242.781,-0.411,-0.139,0.905,-3.11,1.22,0.55,1,0
16242.781,-0.408,-0.135,0.914,-3.42,0.64,0.24,1,0
16242.796,-0.407,-0.133,0.923,-2.59,0.09,0.06,1,0
16242.812,-0.411,-0.126,0.932,-1.68,-1.22,-0.24,1,0
16242.812,-0.412,-0.119,0.931,-1.68,-3.42,-0.34,1,0
16242.828,-0.398,-0.117,0.918,-1.5,-5.25,0.09,1,0
16242.843,-0.395,-0.114,0.898,-0.7,-5.31,0.46,1,0
16242.843,-0.4,-0.113,0.881,-0.31,-4.18,1.04,1,0
16242.859,-0.405,-0.116,0.872,-0.82,-2.41,1.59,1,0
16242.875,-0.407,-0.123,0.866,-1.62,-0.37,2.29,1,0
16242.875,-0.418,-0.125,0.882,-2.38,1.98,2.84,1,0
16242.89,-0.436,-0.13,0.911,-2.93,2.56,3.17,1,0
16242.906,-0.425,-0.131,0.922,-3.81,0.49,3.11,1,0
16242.906,-0.418,-0.14,0.929,-3.42,-1.34,2.59,1,0
16242.921,-0.425,-0.142,0.925,-0.73,-4.46,1.01,1,0
16242.921,-0.417,-0.136,0.913,-0.43,-5.43,0.18,1,0
16242.937,-0.412,-0.139,0.903,0.37,-4.94,0.09,1,0
16242.953,-0.411,-0.14,0.89,1.16,-3.91,0.49,1,0
16242.953,-0.404,-0.141,0.894,1.62,-2.78,0.76,1,0
16242.968,-0.401,-0.144,0.905,1.74,-1.77,0.98,1,0
16242.984,-0.407,-0.15,0.92,3.23,-0.89,1.1,1,0
16242.984,-0.41,-0.14,0.921,5.46,-1.16,1.22,1,0
16243.0,-0.404,-0.136,0.923,6.26,-2.23,1.25,1,0
16243.0,-0.408,-0.136,0.937,6.35,-3.78,1.25,1,0
16243.015,-0.402,-0.128,0.927,7.26,-5.8,1.59,1,0
16243.031,-0.389,-0.115,0.907,6.81,-7.6,2.01,1,0
16243.031,-0.391,-0.123,0.902,6.13,-8.03,2.35,1,0
16243.046,-0.398,-0.114,0.887,8.03,-6.68,3.2,1,0
16243.062,-0.397,-0.108,0.876,7.87,-5.4,3.42,1,0
16243.062,-0.4,-0.114,0.881,5.4,-4.27,2.75,1,0
16243.078,-0.395,-0.118,0.888,4.15,-2.99,2.32,1,0
16243.093,-0.39,-0.112,0.887,3.54,-1.65,1.77,1,0
16243.093,-0.384,-0.112,0.89,1.95,-0.58,0.52,1,0
16243.109,-0.379,-0.113,0.892,0.79,0.34,-1.07,1,0
16243.125,-0.384,-0.109,0.893,1.19,1.77,-2.26,1,0
16243.125,-0.397,-0.103,0.904,1.71,2.59,-2.56,1,0
16243.14,-0.407,-0.099,0.914,1.46,2.56,-2.01,1,0
16243.14,-0.413,-0.099,0.923,0.37,1.34,-0.95,1,0
16243.156,-0.413,-0.111,0.926,-0.37,-0.46,-0.09,1,0
16243.171,-0.399,-0.113,0.92,-0.49,-2.04,0.37,1,0
16243.171,-0.387,-0.11,0.908,-0.43,-2.32,0.06,1,0
16243.187,-0.386,-0.111,0.896,-0.24,-1.4,-0.31,1,0
16243.203,-0.385,-0.111,0.888,-0.43,0.4,-0.55,1,0
16243.218,-0.391,-0.113,0.883,-1.16,2.11,-0.21,1,0
16243.218,-0.397,-0.118,0.886,-1.86,3.94,0.24,1,0
16243.234,-0.409,-0.124,0.901,-2.35,4.94,0.64,1,0
16243.234,-0.431,-0.129,0.924,-2.23,4.73,0.95,1,0
16243.25,-0.433,-0.13,0.939,-2.32,1.8,0.95,1,0
16243.265,-0.418,-0.132,0.94,-1.59,-1.71,0.55,1,0
16243.265,-0.412,-0.128,0.934,0.34,-3.78,-0.12,1,0
16243.281,-0.4,-0.123,0.919,1.65,-4.82,-0.98,1,0
16243.296,-0.393,-0.116,0.903,2.96,-4.55,-1.65,1,0
16243.296,-0.397,-0.113,0.892,4.03,-2.99,-1.65,1,0
16243.312,-0.402,-0.113,0.891,4.58,-1.34,-1.07,1,0
16243.312,-0.4,-0.111,0.881,4.43,-0.12,-0.61,1,0
16243.328,-0.41,-0.116,0.891,2.14,1.16,0.06,1,0
