timestamp,ax,ay,az,gx,gy,gz,orient_label,motion_label
16200.765,-0.303,0.014,0.948,2.93,-1.22,-1.28,1,0
16200.781,-0.294,0.014,0.944,2.44,-0.82,-0.67,1,0
16200.781,-0.295,0.013,0.948,2.23,-0.21,-0.4,1,0
16200.796,-0.295,0.016,0.95,1.71,-0.06,0.09,1,0
16200.812,-0.286,0.009,0.95,1.25,-0.34,0.31,1,0
16200.828,-0.294,0.011,0.942,0.79,-0.15,0.43,1,0
16200.828,-0.287,0.009,0.942,-0.24,-0.43,0.37,1,0
16200.843,-0.279,0.003,0.938,-0.89,-0.37,-0.61,1,0
16200.843,-0.283,0.003,0.936,-0.43,0.4,-1.83,1,0
16200.859,-0.294,0.012,0.939,0.15,1.4,-2.44,1,0
16200.875,-0.296,0.018,0.951,-0.52,1.71,-2.62,1,0
16200.875,-0.291,0.014,0.955,-1.46,1.89,-2.78,1,0
16200.89,-0.286,0.022,0.96,-1.28,2.56,-2.5,1,0
16200.89,-0.283,0.024,0.966,-1.56,3.11,-2.53,1,0
16200.906,-0.286,0.027,0.975,-2.11,3.39,-2.84,1,0
16200.921,-0.287,0.031,0.977,-1.46,3.14,-2.87,1,0
16200.921,-0.285,0.037,0.975,-1.19,2.59,-2.08,1,0
16200.953,-0.287,0.025,0.975,-2.04,1.31,-1.13,1,0
16200.953,-0.285,0.022,0.975,-1.25,1.1,-1.1,1,0
16200.968,-0.283,0.019,0.969,-0.85,0.55,-1.46,1,0
16200.984,-0.277,0.014,0.964,-1.37,-0.21,-2.23,1,0
16200.984,-0.275,0.015,0.962,-1.56,-0.58,-3.11,1,0
16201.0,-0.275,0.018,0.951,-1.4,-0.52,-3.78,1,0
16201.0,-0.269,0.022,0.944,-1.62,-0.09,-4.49,1,0
16201.015,-0.271,0.027,0.951,-2.08,0.61,-5.31,1,0
16201.031,-0.279,0.03,0.956,-2.17,0.92,-5.37,1,0
16201.046,-0.281,0.032,0.968,-2.08,0.61,-5.25,1,0
16201.046,-0.284,0.035,0.972,-1.16,-0.4,-5.19,1,0
16201.062,-0.278,0.037,0.968,-0.18,-1.98,-5.04,1,0
16201.062,-0.275,0.035,0.957,-0.15,-3.2,-5.46,1,0
16201.078,-0.28,0.033,0.948,0.46,-3.05,-6.13,1,0
16201.093,-0.284,0.042,0.941,1.59,-1.83,-6.32,1,0
16201.093,-0.282,0.046,0.939,1.34,-0.73,-6.35,1,0
16201.125,-0.287,0.052,0.956,-0.12,1.04,-5.04,1,0
16201.125,-0.288,0.057,0.963,-0.03,0.92,-4.15,1,0
16201.14,-0.297,0.06,0.973,0.46,0.18,-3.39,1,0
16201.14,-0.296,0.057,0.974,0.4,-1.31,-2.41,1,0
16201.156,-0.296,0.057,0.967,0.49,-2.66,-1.19,1,0
16201.171,-0.292,0.053,0.955,0.03,-3.51,0.24,1,0
16201.171,-0.288,0.043,0.942,-0.76,-3.48,1.01,1,0
16201.187,-0.287,0.038,0.945,-1.5,-2.84,1.83,1,0
16201.203,-0.29,0.031,0.951,-1.31,-2.23,2.53,1,0
16201.203,-0.286,0.028,0.949,-1.13,-2.11,2.99,1,0
16201.218,-0.278,0.021,0.954,-1.46,-2.08,2.53,1,0
16201.234,-0.283,0.017,0.962,-1.07,-1.98,1.68,1,0
16201.234,-0.283,0.023,0.968,-0.34,-2.44,1.19,1,0
16201.25,-0.283,0.023,0.969,0.03,-3.45,0.61,1,0
16201.265,-0.289,0.025,0.969,0.49,-4.55,0.15,1,0
16201.265,-0.285,0.027,0.964,0.52,-5.55,0.31,1,0
16201.281,-0.29,0.032,0.969,-1.4,-7.32,0.55,1,0
16201.296,-0.292,0.037,0.984,-2.62,-9.25,1.25,1,0
16201.312,-0.286,0.032,0.985,-3.75,-11.84,1.92,1,0
16201.312,-0.277,0.032,0.982,-2.81,-13.61,2.9,1,0
16201.328,-0.267,0.028,0.975,-1.5,-14.95,3.33,1,0
16201.343,-0.267,0.027,0.974,-1.71,-15.56,3.42,1,0
16201.343,-0.274,0.016,0.966,-0.64,-15.66,4.21,1,0
16201.359,-0.262,0.014,0.946,0.03,-15.32,5.13,1,0
16201.359,-0.257,0.009,0.943,-0.21,-14.1,5.25,1,0
16201.375,-0.248,-0.0,0.937,0.03,-12.39,4.64,1,0
16201.39,-0.246,0.002,0.941,0.98,-10.25,3.63,1,0
16201.39,-0.25,0.008,0.944,2.41,-8.09,2.66,1,0
16201.406,-0.252,0.015,0.951,3.23,-6.41,1.8,1,0
16201.421,-0.26,0.02,0.95,3.51,-5.55,1.53,1,0
16201.421,-0.269,0.02,0.959,2.14,-5.28,1.77,1,0
16201.437,-0.266,0.01,0.967,0.82,-5.74,1.89,1,0
16201.453,-0.252,-0.004,0.951,3.54,-4.85,1.04,1,0
16201.468,-0.253,-0.0,0.945,4.09,-3.45,-0.06,1,0
16201.484,-0.259,0.001,0.952,2.29,-2.32,-1.01,1,0
16201.484,-0.261,0.0,0.96,1.28,-1.46,-1.43,1,0
16201.5,-0.259,-0.0,0.951,2.23,-0.76,-1.8,1,0
16201.5,-0.254,0.009,0.944,2.75,0.52,-2.14,1,0
16201.515,-0.26,0.011,0.949,1.71,1.83,-2.41,1,0
16201.531,-0.276,0.013,0.961,0.73,2.81,-2.35,1,0
16201.546,-0.285,0.022,0.975,0.0,2.9,-1.25,1,0
16201.546,-0.276,0.017,0.973,-1.25,1.86,-0.37,1,0
16201.562,-0.26,0.006,0.962,-1.62,1.25,-0.64,1,0
16201.562,-0.251,0.003,0.953,-0.73,1.92,-1.74,1,0
16201.578,-0.249,0.009,0.945,0.18,3.45,-3.05,1,0
16201.593,-0.255,0.012,0.947,0.49,4.79,-4.27,1,0
16201.593,-0.256,0.014,0.948,0.34,5.58,-5.22,1,0
16201.609,-0.252,0.012,0.946,0.15,6.04,-6.16,1,0
16201.625,-0.272,0.019,0.944,-2.93,6.65,-7.39,1,0
16201.625,-0.295,0.027,0.961,-4.82,4.97,-7.66,1,0
16201.64,-0.279,0.016,0.965,-3.17,4.67,-7.9,1,0
16201.64,-0.26,0.019,0.95,-1.62,5.34,-8.21,1,0
16201.656,-0.268,0.022,0.965,-1.13,5.95,-8.91,1,0
16201.671,-0.272,0.027,0.972,-1.22,5.22,-9.25,1,0
16201.671,-0.265,0.029,0.969,-0.82,4.03,-9.31,1,0
16201.687,-0.267,0.035,0.966,0.03,3.54,-9.58,1,0
16201.703,-0.272,0.039,0.964,0.61,3.27,-9.43,1,0
16201.703,-0.275,0.041,0.963,-0.12,2.93,-8.64,1,0
16201.718,-0.278,0.037,0.965,-0.61,2.81,-7.05,1,0
16201.734,-0.282,0.036,0.97,-0.76,2.72,-5.19,1,0
16201.734,-0.271,0.034,0.973,-1.53,1.74,-3.27,1,0
16201.75,-0.256,0.022,0.965,-2.23,0.52,-2.69,1,0
16201.765,-0.245,0.012,0.959,-1.62,-0.03,-3.27,1,0
16201.765,-0.262,0.018,0.963,0.37,0.12,-4.97,1,0
16201.781,-0.291,0.024,0.981,2.78,-0.52,-6.07,1,0
16201.781,-0.291,0.036,0.975,4.39,-2.78,-6.2,1,0
16201.796,-0.275,0.044,0.953,5.31,-3.97,-6.01,1,0
16201.812,-0.276,0.047,0.943,5.46,-2.99,-5.52,1,0
16201.812,-0.287,0.052,0.945,5.07,-1.43,-4.15,1,0
16201.828,-0.298,0.056,0.961,3.81,-0.76,-1.68,1,0
16201.843,-0.297,0.051,0.966,1.95,-1.59,1.22,1,0
16201.859,-0.286,0.044,0.955,0.73,-2.38,3.42,1,0
16201.859,-0.277,0.039,0.947,0.24,-2.29,4.79,1,0
16201.875,-0.277,0.035,0.94,0.12,-1.53,5.4,1,0
16201.875,-0.28,0.028,0.936,0.06,0.06,5.92,1,0
16201.89,-0.28,0.026,0.943,-0.06,1.83,6.53,1,0
16201.89,-0.293,0.022,0.954,-0.61,3.57,7.51,1,0
16201.906,-0.304,0.016,0.978,-2.53,3.81,8.97,1,0
16201.921,-0.289,0.004,0.991,-4.7,2.23,10.25,1,0
16201.921,-0.263,-0.015,0.981,-4.55,1.01,10.38,1,0
16201.937,-0.247,-0.019,0.973,-2.99,1.25,8.82,1,0
16201.953,-0.252,-0.016,0.972,-1.5,2.14,5.95,1,0
16201.953,-0.267,-0.014,0.98,-0.31,2.59,3.27,1,0
16201.968,-0.281,-0.007,0.983,1.04,2.5,1.77,1,0
16201.984,-0.289,0.003,0.988,1.62,1.95,0.76,1,0
16201.984,-0.294,-0.001,0.99,0.89,0.37,0.12,1,0
16202.0,-0.286,-0.002,0.97,0.85,-1.16,-0.03,1,0
16202.015,-0.281,-0.002,0.96,1.8,-1.59,-0.09,1,0
16202.015,-0.281,0.006,0.956,1.13,-1.86,-0.61,1,0
16202.031,-0.271,0.006,0.949,0.03,-2.17,-1.37,1,0
16202.031,-0.278,0.008,0.948,0.58,-1.53,-2.04,1,0
16202.046,-0.29,0.021,0.949,1.43,-1.04,-2.44,1,0
16202.062,-0.284,0.025,0.953,0.49,-1.56,-2.26,1,0
16202.078,-0.272,0.02,0.946,-0.64,-1.83,-2.17,1,0
16202.078,-0.27,0.016,0.941,-0.4,-1.1,-2.81,1,0
16202.093,-0.276,0.019,0.941,0.79,0.06,-3.78,1,0
16202.093,-0.284,0.026,0.943,1.95,1.01,-4.82,1,0
16202.109,-0.3,0.03,0.957,2.2,1.01,-5.34,1,0
16202.125,-0.302,0.031,0.97,2.01,-0.09,-5.31,1,0
16202.125,-0.299,0.037,0.967,2.29,-1.68,-4.76,1,0
16202.14,-0.282,0.037,0.95,2.81,-2.69,-4.43,1,0
16202.14,-0.28,0.037,0.947,2.84,-2.47,-4.36,1,0
16202.156,-0.283,0.044,0.946,2.38,-2.11,-4.43,1,0
16202.171,-0.284,0.044,0.948,2.9,-1.13,-3.81,1,0
16202.171,-0.283,0.046,0.945,2.9,0.0,-2.66,1,0
16202.187,-0.282,0.038,0.949,2.29,0.76,-1.74,1,0
16202.203,-0.284,0.032,0.958,1.8,1.25,-0.82,1,0
16202.203,-0.287,0.025,0.964,2.14,1.4,-0.37,1,0
16202.218,-0.29,0.019,0.961,2.08,0.7,-0.15,1,0
16202.234,-0.281,0.012,0.958,1.4,-0.18,-0.31,1,0
16202.234,-0.277,0.002,0.952,1.56,-0.34,-0.92,1,0
16202.25,-0.277,0.006,0.945,1.74,0.27,-1.53,1,0
16202.25,-0.277,0.009,0.949,1.46,0.89,-2.04,1,0
16202.265,-0.273,0.007,0.954,1.71,1.59,-2.32,1,0
16202.281,-0.271,0.014,0.953,1.92,2.2,-2.41,1,0
16202.296,-0.273,0.012,0.959,1.8,2.72,-2.44,1,0
16202.296,-0.279,0.013,0.967,2.01,3.08,-2.08,1,0
16202.312,-0.274,0.01,0.963,1.31,2.5,-0.64,1,0
16202.328,-0.281,0.006,0.962,0.31,2.26,-1.04,1,0
16202.343,-0.276,0.005,0.967,-0.21,1.53,-1.59,1,0
16202.343,-0.268,0.006,0.963,0.24,1.43,-2.38,1,0
16202.359,-0.27,0.017,0.963,1.19,1.86,-3.51,1,0
16202.375,-0.276,0.025,0.964,1.92,2.38,-4.43,1,0
16202.375,-0.287,0.035,0.97,2.32,2.2,-4.49,1,0
16202.39,-0.299,0.044,0.979,1.95,1.07,-3.94,1,0
16202.39,-0.293,0.045,0.968,1.56,-1.04,-3.23,1,0
16202.406,-0.295,0.033,0.954,2.32,-2.17,-2.29,1,0
16202.421,-0.296,0.04,0.955,2.5,-2.59,-1.43,1,0
16202.421,-0.294,0.033,0.915,2.59,-1.86,-0.98,1,0
16202.437,-0.298,0.042,0.93,0.89,-0.21,-0.89,1,0
16202.453,-0.299,0.031,0.925,0.4,1.13,-0.85,1,0
16202.453,-0.299,0.041,0.94,0.06,2.84,-0.15,1,0
16202.468,-0.297,0.036,0.949,-0.06,3.2,0.06,1,0
16202.484,-0.293,0.027,0.96,0.31,2.9,-0.31,1,0
16202.5,-0.295,0.026,0.961,1.65,2.41,-1.07,1,0
16202.515,-0.3,0.025,0.959,2.93,1.83,-2.11,1,0
16202.515,-0.298,0.024,0.953,4.67,1.4,-3.2,1,0
16202.531,-0.3,0.03,0.947,5.58,1.28,-3.97,1,0
16202.531,-0.311,0.032,0.951,5.43,0.79,-4.49,1,0
16202.546,-0.318,0.033,0.947,5.58,0.24,-4.21,1,0
16202.562,-0.308,0.04,0.935,5.28,-0.12,-3.23,1,0
16202.562,-0.297,0.037,0.928,4.18,0.15,-2.69,1,0
16202.578,-0.298,0.033,0.932,3.51,1.5,-2.44,1,0
16202.593,-0.298,0.034,0.946,3.39,2.93,-2.08,1,0
16202.593,-0.285,0.035,0.971,2.75,2.62,-2.01,1,0
16202.609,-0.266,0.033,0.997,3.85,0.89,-2.56,1,0
16202.609,-0.249,0.031,1.014,5.89,-1.13,-3.33,1,0
16202.625,-0.252,0.031,1.014,7.29,-3.33,-3.78,1,0
16202.64,-0.275,0.021,0.963,7.72,-5.1,-3.97,1,0
16202.64,-0.271,0.024,0.946,8.09,-4.82,-4.36,1,0
16202.656,-0.268,0.013,0.94,9.28,-2.99,-5.92,1,0
16202.671,-0.265,0.021,0.957,11.84,-0.98,-8.85,1,0
16202.671,-0.262,0.03,0.968,17.12,0.31,-12.94,1,0
16202.687,-0.265,0.042,0.978,20.23,0.31,-16.97,1,0
16202.703,-0.256,0.048,0.993,22.55,-0.52,-20.51,1,0
16202.703,-0.268,0.052,1.011,26.18,-1.31,-24.29,1,0
16202.718,-0.265,0.071,1.014,29.63,-3.85,-28.17,1,0
16202.734,-0.265,0.067,1.026,32.17,-7.26,-32.59,1,0
16202.734,-0.265,0.057,1.031,37.35,-10.53,-36.84,1,0
16202.75,-0.253,0.074,1.009,44.53,-13.15,-40.19,1,0
16202.765,-0.24,0.078,0.983,49.65,-14.74,-44.19,1,0
16202.765,-0.241,0.078,0.985,52.74,-15.47,-49.1,1,0
16202.781,-0.238,0.076,0.956,55.79,-15.87,-54.02,1,0
16202.781,-0.287,0.095,0.954,57.56,-14.01,-57.74,1,0
16202.796,-0.355,0.117,0.938,52.77,-13.64,-57.1,1,0
16202.812,-0.406,0.127,0.914,40.93,-15.23,-50.17,1,0
16202.828,-0.409,0.106,0.882,12.02,-18.43,-20.51,1,0
16202.843,-0.381,0.084,0.849,-0.92,-17.82,-7.29,1,0
16202.843,-0.355,0.052,0.846,-13.15,-16.08,0.49,1,0
16202.859,-0.332,0.013,0.859,-20.29,-14.01,2.99,1,0
16202.875,-0.307,-0.01,0.868,-20.51,-11.08,1.86,1,0
16202.875,-0.283,-0.014,0.89,-15.2,-7.11,-2.96,1,0
16202.89,-0.278,-0.014,0.907,-7.02,-2.99,-11.17,1,0
16202.89,-0.286,-0.011,0.92,2.81,0.7,-19.56,1,0
16202.906,-0.28,0.003,0.904,13.58,4.24,-25.7,1,0
16202.921,-0.275,0.03,0.897,19.96,7.6,-30.79,1,0
16202.921,-0.295,0.034,0.912,23.32,10.68,-35.07,1,0
16202.937,-0.319,0.069,0.945,25.57,11.9,-36.77,1,0
16202.953,-0.315,0.086,0.942,26.12,10.8,-36.81,1,0
16202.953,-0.319,0.111,0.953,23.53,8.88,-36.56,1,0
16202.968,-0.32,0.122,0.943,20.05,6.5,-35.43,1,0
16202.984,-0.298,0.131,0.931,17.18,4.85,-33.36,1,0
16203.0,-0.225,0.16,0.921,16.75,8.27,-29.66,1,0
16203.015,-0.175,0.179,0.951,15.5,12.39,-26.43,1,0
16203.015,-0.142,0.203,1.002,13.98,17.43,-23.13,1,0
16203.031,-0.173,0.215,1.073,13.92,19.59,-21.42,1,0
16203.031,-0.236,0.194,1.087,16.17,16.6,-20.72,1,0
16203.046,-0.293,0.174,1.078,18.62,10.32,-19.32,1,0
16203.062,-0.313,0.138,1.036,20.91,2.38,-17.85,1,0
16203.078,-0.291,0.099,0.974,22.4,-3.45,-17.64,1,0
16203.078,-0.271,0.065,0.923,24.96,-4.85,-20.69,1,0
16203.093,-0.269,0.04,0.876,30.03,-1.98,-26.4,1,0
16203.093,-0.281,0.029,0.86,36.16,3.6,-33.27,1,0
16203.109,-0.291,0.041,0.859,43.09,9.61,-40.53,1,0
16203.125,-0.327,0.065,0.854,48.95,14.92,-45.84,1,0
16203.125,-0.354,0.093,0.855,49.62,18.49,-47.12,1,0
16203.14,-0.389,0.131,0.866,44.77,20.2,-45.05,1,0
16203.14,-0.411,0.165,0.879,35.31,18.98,-39.7,1,0
16203.156,-0.408,0.172,0.884,23.99,16.3,-31.65,1,0
16203.171,-0.348,0.187,0.926,14.74,12.57,-25.64,1,0
16203.171,-0.289,0.194,0.939,13.67,10.41,-24.75,1,0
16203.187,-0.268,0.209,0.953,16.79,11.32,-25.61,1,0
16203.203,-0.281,0.227,0.963,20.26,12.6,-25.76,1,0
16203.203,-0.318,0.228,0.96,22.61,12.85,-24.66,1,0
16203.218,-0.353,0.219,0.941,21.67,10.96,-22.64,1,0
16203.234,-0.369,0.206,0.923,19.71,8.18,-20.42,1,0
16203.234,-0.376,0.192,0.919,17.67,5.62,-18.65,1,0
16203.25,-0.385,0.181,0.906,17.09,4.61,-16.48,1,0
16203.25,-0.375,0.187,0.903,16.11,4.15,-13.28,1,0
16203.265,-0.364,0.194,0.887,14.01,4.36,-10.38,1,0
16203.281,-0.361,0.189,0.887,11.2,5.04,-8.51,1,0
16203.296,-0.357,0.185,0.895,8.51,5.86,-7.75,1,0
16203.296,-0.366,0.181,0.905,8.97,6.78,-7.35,1,0
16203.312,-0.365,0.18,0.907,10.1,6.59,-7.14,1,0
16203.312,-0.366,0.183,0.913,11.11,6.32,-7.08,1,0
16203.328,-0.373,0.188,0.915,11.54,5.65,-7.11,1,0
16203.343,-0.372,0.19,0.914,10.96,4.24,-6.56,1,0
16203.359,-0.363,0.187,0.906,10.47,3.39,-6.2,1,0
16203.359,-0.362,0.182,0.904,10.8,3.91,-5.65,1,0
16203.375,-0.37,0.186,0.904,11.26,4.82,-5.13,1,0
16203.375,-0.373,0.188,0.904,10.19,5.04,-4.76,1,0
16203.39,-0.373,0.182,0.906,8.51,4.91,-4.36,1,0
16203.39,-0.369,0.179,0.905,7.97,5.22,-4.15,1,0
16203.406,-0.373,0.18,0.906,7.93,6.07,-4.3,1,0
16203.421,-0.379,0.179,0.912,7.93,6.44,-4.67,1,0
16203.421,-0.377,0.176,0.91,7.78,6.35,-5.16,1,0
16203.437,-0.381,0.175,0.911,7.9,6.93,-5.74,1,0
16203.453,-0.378,0.171,0.912,8.0,6.87,-7.17,1,0
16203.453,-0.383,0.166,0.918,8.76,6.84,-8.73,1,0
16203.468,-0.388,0.161,0.922,9.74,6.53,-10.38,1,0
16203.484,-0.394,0.162,0.925,11.05,5.98,-12.05,1,0
16203.484,-0.388,0.158,0.922,11.84,4.97,-14.34,1,0
16203.5,-0.391,0.154,0.922,13.06,4.43,-16.82,1,0
16203.5,-0.399,0.162,0.928,15.38,4.06,-18.8,1,0
16203.515,-0.404,0.179,0.92,17.33,3.42,-20.26,1,0
16203.531,-0.406,0.198,0.915,17.24,2.11,-20.75,1,0
16203.546,-0.413,0.222,0.913,15.2,0.12,-20.45,1,0
16203.546,-0.408,0.231,0.904,12.48,-2.29,-19.23,1,0
16203.562,-0.392,0.228,0.893,11.35,-3.51,-17.24,1,0
16203.562,-0.387,0.233,0.874,12.12,-2.99,-15.26,1,0
16203.578,-0.392,0.241,0.864,11.11,-0.24,-11.81,1,0
16203.593,-0.4,0.242,0.861,8.91,0.46,-9.16,1,0
16203.593,-0.412,0.251,0.853,5.98,0.76,-6.13,1,0
16203.609,-0.421,0.248,0.863,4.46,0.52,-1.98,1,0
16203.625,-0.405,0.278,0.874,2.44,-0.46,1.89,1,0
16203.625,-0.403,0.287,0.878,-0.64,-0.27,5.46,1,0
16203.64,-0.424,0.298,0.875,-3.51,0.03,9.7,1,0
16203.656,-0.421,0.307,0.857,-6.5,-0.31,15.02,1,0
16203.656,-0.411,0.313,0.845,-10.59,0.12,20.6,1,0
16203.671,-0.406,0.306,0.845,-14.62,1.46,25.73,1,0
16203.671,-0.406,0.298,0.842,-17.3,3.81,30.73,1,0
16203.687,-0.416,0.299,0.844,-20.02,6.07,35.71,1,0
16203.703,-0.421,0.286,0.852,-24.14,7.29,40.22,1,0
16203.703,-0.423,0.271,0.862,-28.17,7.66,44.5,1,0
16203.718,-0.42,0.255,0.869,-31.04,7.63,48.01,1,0
16203.734,-0.412,0.238,0.872,-33.02,7.29,50.78,1,0
16203.734,-0.407,0.219,0.885,-34.79,7.11,52.77,1,0
16203.75,-0.398,0.202,0.875,-35.83,6.62,54.17,1,0
16203.765,-0.384,0.183,0.879,-34.82,7.05,54.99,1,0
16203.765,-0.377,0.168,0.882,-34.09,7.72,54.35,1,0
16203.781,-0.371,0.148,0.879,-33.23,8.64,52.8,1,0
16203.796,-0.367,0.132,0.885,-32.17,9.64,50.78,1,0
16203.796,-0.359,0.12,0.893,-30.3,10.62,47.7,1,0
16203.812,-0.362,0.11,0.907,-27.92,11.38,44.01,1,0
16203.812,-0.378,0.107,0.932,-24.75,11.05,40.71,1,0
16203.828,-0.383,0.115,0.945,-21.76,8.82,38.18,1,0
16203.843,-0.362,0.116,0.941,-20.2,4.94,35.04,1,0
16203.843,-0.349,0.104,0.937,-18.13,2.17,30.61,1,0
16203.859,-0.347,0.098,0.926,-14.98,0.98,25.76,1,0
16203.875,-0.348,0.094,0.927,-10.9,0.95,21.27,1,0
16203.875,-0.354,0.102,0.92,-6.41,1.1,16.79,1,0
16203.89,-0.359,0.108,0.911,-3.14,0.85,12.33,1,0
16203.89,-0.369,0.112,0.91,-1.28,0.67,8.48,1,0
16203.906,-0.374,0.125,0.912,0.18,0.24,5.16,1,0
16203.921,-0.377,0.138,0.911,1.77,-0.58,2.2,1,0
16203.921,-0.376,0.144,0.899,2.96,-1.25,-0.52,1,0
16203.937,-0.379,0.157,0.893,3.54,-1.01,-2.62,1,0
16203.953,-0.381,0.171,0.889,3.91,-0.52,-4.39,1,0
16203.968,-0.381,0.187,0.885,3.63,-0.06,-5.92,1,0
16203.968,-0.385,0.192,0.884,3.02,0.98,-6.68,1,0
16203.984,-0.393,0.202,0.896,2.84,2.14,-6.1,1,0
16203.984,-0.4,0.213,0.903,3.05,2.72,-4.91,1,0
16204.0,-0.401,0.221,0.905,2.11,2.38,-3.23,1,0
16204.015,-0.402,0.223,0.905,0.52,1.8,-1.56,1,0
16204.015,-0.412,0.222,0.912,-1.16,0.85,0.03,1,0
16204.031,-0.409,0.221,0.914,-2.41,-0.7,1.77,1,0
16204.031,-0.401,0.22,0.904,-2.47,-1.92,3.45,1,0
16204.046,-0.391,0.214,0.884,-2.93,-2.04,4.39,1,0
16204.062,-0.39,0.207,0.876,-4.61,-1.34,4.91,1,0
16204.062,-0.394,0.198,0.877,-5.92,-0.15,5.4,1,0
16204.078,-0.393,0.187,0.88,-6.35,1.01,6.13,1,0
16204.093,-0.393,0.177,0.885,-6.38,2.23,6.56,1,0
16204.093,-0.396,0.168,0.892,-6.38,2.81,6.47,1,0
16204.109,-0.397,0.162,0.909,-6.56,2.5,6.01,1,0
16204.125,-0.387,0.158,0.923,-6.35,1.28,5.22,1,0
16204.125,-0.386,0.152,0.93,-4.94,-0.06,4.09,1,0
16204.14,-0.385,0.154,0.92,-3.39,-1.19,3.17,1,0
16204.14,-0.377,0.153,0.92,-1.77,-1.89,2.47,1,0
16204.156,-0.375,0.151,0.91,-1.01,-2.23,1.1,1,0
16204.171,-0.378,0.152,0.904,-0.24,-2.26,-0.82,1,0
16204.187,-0.391,0.169,0.908,1.92,-2.41,-2.87,1,0
16204.203,-0.385,0.171,0.906,2.26,-2.99,-3.45,1,0
16204.203,-0.382,0.175,0.908,2.96,-3.17,-4.33,1,0
16204.218,-0.389,0.178,0.904,3.51,-3.17,-4.64,1,0
16204.234,-0.39,0.177,0.903,3.72,-3.63,-4.73,1,0
16204.234,-0.391,0.178,0.898,4.27,-3.88,-4.85,1,0
16204.25,-0.39,0.178,0.9,4.3,-4.12,-5.4,1,0
16204.265,-0.387,0.172,0.9,4.52,-4.12,-6.38,1,0
16204.265,-0.385,0.167,0.897,5.46,-3.75,-7.26,1,0
16204.281,-0.378,0.162,0.894,6.62,-3.39,-8.58,1,0
16204.281,-0.365,0.156,0.9,7.84,-3.08,-10.44,1,0
16204.296,-0.372,0.153,0.901,9.83,-2.2,-12.36,1,0
16204.312,-0.372,0.155,0.902,10.68,-2.41,-14.28,1,0
16204.328,-0.382,0.16,0.908,11.26,-2.87,-15.5,1,0
16204.328,-0.38,0.17,0.901,10.62,-4.0,-16.36,1,0
16204.343,-0.376,0.179,0.904,9.64,-5.07,-16.6,1,0
16204.359,-0.367,0.195,0.884,9.98,-4.43,-14.77,1,0
16204.375,-0.372,0.204,0.879,9.95,-3.36,-13.86,1,0
16204.375,-0.379,0.214,0.875,9.46,-2.32,-13.28,1,0
16204.39,-0.387,0.22,0.873,8.61,-1.53,-12.15,1,0
16204.39,-0.386,0.223,0.873,7.6,-0.46,-10.19,1,0
16204.406,-0.393,0.231,0.878,7.05,1.28,-7.97,1,0
16204.421,-0.406,0.236,0.883,5.07,1.8,-5.52,1,0
16204.421,-0.406,0.228,0.892,2.2,1.04,-3.51,1,0
16204.437,-0.405,0.222,0.894,0.73,0.18,-1.98,1,0
16204.453,-0.405,0.214,0.893,-0.03,-0.34,-0.98,1,0
16204.453,-0.402,0.214,0.893,-0.95,-1.1,-0.43,1,0
16204.468,-0.391,0.208,0.887,-1.77,-2.01,-0.24,1,0
16204.484,-0.394,0.199,0.89,-2.41,-1.95,-0.06,1,0
16204.484,-0.398,0.195,0.895,-2.35,-1.77,0.49,1,0
16204.5,-0.395,0.192,0.896,-2.08,-2.04,1.07,1,0
16204.515,-0.386,0.188,0.892,-2.08,-2.26,1.53,1,0
16204.531,-0.382,0.176,0.896,-1.5,-1.16,0.79,1,0
16204.531,-0.391,0.176,0.904,-0.55,-0.58,0.27,1,0
16204.546,-0.396,0.177,0.909,0.18,-1.07,0.24,1,0
16204.562,-0.388,0.177,0.905,0.55,-2.44,0.46,1,0
16204.562,-0.377,0.173,0.901,1.07,-3.2,0.0,1,0
16204.578,-0.38,0.169,0.901,1.98,-3.23,-0.03,1,0
16204.593,-0.38,0.176,0.907,2.72,-3.94,-0.55,1,0
16204.593,-0.374,0.174,0.895,3.54,-4.0,-1.31,1,0
16204.609,-0.381,0.182,0.9,3.33,-4.15,-2.29,1,0
16204.609,-0.376,0.176,0.893,4.61,-4.67,-2.99,1,0
16204.625,-0.376,0.189,0.887,5.19,-4.18,-3.48,1,0
16204.64,-0.382,0.19,0.888,5.34,-4.09,-4.06,1,0
16204.64,-0.38,0.2,0.876,5.92,-3.33,-4.0,1,0
16204.656,-0.379,0.21,0.892,5.07,-2.59,-3.42,1,0
16204.671,-0.384,0.206,0.889,4.39,-2.04,-2.75,1,0
16204.671,-0.384,0.211,0.892,4.24,-1.68,-1.4,1,0
16204.703,-0.379,0.21,0.881,3.27,-1.5,-0.09,1,0
16204.703,-0.379,0.206,0.879,2.53,-1.07,0.12,1,0
16204.718,-0.377,0.206,0.883,1.83,-0.58,0.64,1,0
16204.734,-0.379,0.207,0.885,1.83,0.12,1.25,1,0
16204.734,-0.381,0.207,0.886,1.46,0.37,1.59,1,0
16204.75,-0.384,0.202,0.892,0.27,0.27,1.77,1,0
16204.75,-0.383,0.2,0.893,-0.12,0.21,1.95,1,0
16204.765,-0.378,0.199,0.885,0.18,0.27,1.83,1,0
16204.781,-0.378,0.201,0.883,-0.18,0.89,1.4,1,0
16204.781,-0.385,0.2,0.886,-0.85,1.62,1.31,1,0
16204.796,-0.385,0.201,0.892,-1.37,1.86,1.56,1,0
16204.812,-0.381,0.199,0.896,-1.31,2.08,2.14,1,0
16204.828,-0.381,0.197,0.896,-1.13,2.35,2.44,1,0
16204.828,-0.385,0.191,0.897,-0.98,2.32,2.62,1,0
16204.843,-0.386,0.189,0.9,-1.16,1.92,2.72,1,0
16204.843,-0.382,0.189,0.897,-0.85,1.71,2.26,1,0
16204.859,-0.386,0.19,0.896,-0.27,1.86,1.5,1,0
16204.875,-0.392,0.191,0.896,-0.09,2.04,0.92,1,0
16204.875,-0.394,0.194,0.904,-0.49,1.74,0.73,1,0
16204.89,-0.389,0.196,0.909,-0.4,0.98,0.52,1,0
16204.89,-0.391,0.201,0.905,0.37,0.12,0.34,1,0
16204.906,-0.389,0.203,0.902,0.31,-0.61,0.31,1,0
16204.921,-0.391,0.206,0.907,-0.03,-1.37,0.15,1,0
16204.921,-0.391,0.199,0.884,0.61,-1.77,-0.12,1,0
16204.937,-0.394,0.205,0.89,0.43,-0.89,0.15,1,0
16204.953,-0.39,0.205,0.887,-0.24,-0.67,0.09,1,0
16204.953,-0.385,0.202,0.89,-0.89,-0.18,0.12,1,0
16204.968,-0.387,0.201,0.895,-1.01,0.55,0.12,1,0
16204.984,-0.387,0.2,0.894,-0.95,0.67,0.0,1,0
16204.984,-0.393,0.197,0.906,-1.07,0.7,-0.12,1,0
16205.0,-0.394,0.193,0.904,-1.22,-0.12,-0.34,1,0
16205.0,-0.391,0.192,0.905,-0.85,-0.55,-0.37,1,0
16205.015,-0.391,0.178,0.904,-0.21,-1.62,-0.61,1,0
16205.031,-0.387,0.188,0.899,-0.12,-1.86,-1.01,1,0
16205.046,-0.383,0.18,0.894,-0.37,-2.44,-1.98,1,0
16205.046,-0.379,0.18,0.894,0.49,-2.23,-2.93,1,0
16205.062,-0.384,0.188,0.893,1.8,-1.74,-3.63,1,0
16205.062,-0.386,0.195,0.892,2.35,-1.68,-3.78,1,0
16205.078,-0.381,0.197,0.887,1.98,-1.8,-4.0,1,0
16205.093,-0.384,0.196,0.889,1.4,-1.59,-4.27,1,0
16205.093,-0.39,0.198,0.893,1.56,-1.46,-4.12,1,0
16205.109,-0.387,0.201,0.889,1.86,-1.8,-3.54,1,0
16205.125,-0.383,0.204,0.886,1.65,-1.77,-3.2,1,0
16205.125,-0.386,0.2,0.888,1.34,-1.28,-3.42,1,0
16205.14,-0.391,0.197,0.894,1.56,-0.85,-3.23,1,0
16205.14,-0.392,0.2,0.897,1.71,-0.89,-2.78,1,0
16205.156,-0.391,0.203,0.896,1.62,-1.46,-2.59,1,0
16205.171,-0.394,0.198,0.895,1.59,-1.98,-2.59,1,0
16205.171,-0.402,0.198,0.897,1.71,-2.5,-2.59,1,0
16205.187,-0.402,0.204,0.895,2.08,-3.27,-1.86,1,0
16205.203,-0.389,0.213,0.882,2.23,-3.48,-0.76,1,0
16205.203,-0.384,0.216,0.882,1.65,-2.66,0.61,1,0
16205.218,-0.384,0.213,0.879,0.95,-1.59,1.98,1,0
16205.234,-0.382,0.209,0.882,0.49,-0.31,3.27,1,0
16205.234,-0.386,0.21,0.882,0.49,0.7,4.09,1,0
16205.25,-0.389,0.209,0.879,0.0,1.01,4.15,1,0
16205.265,-0.382,0.208,0.875,-1.01,1.07,4.09,1,0
16205.265,-0.375,0.211,0.871,-1.68,1.62,4.18,1,0
16205.281,-0.375,0.212,0.871,-2.11,2.9,4.36,1,0
16205.281,-0.374,0.212,0.873,-2.72,4.33,4.79,1,0
16205.296,-0.376,0.211,0.869,-3.45,5.71,5.28,1,0
16205.312,-0.379,0.209,0.872,-4.52,6.62,5.65,1,0
16205.312,-0.381,0.203,0.88,-4.91,7.57,5.71,1,0
16205.328,-0.381,0.2,0.885,-4.7,8.24,5.95,1,0
16205.343,-0.399,0.193,0.889,-5.49,8.7,7.9,1,0
16205.343,-0.392,0.188,0.895,-7.17,8.27,9.4,1,0
16205.359,-0.379,0.175,0.913,-7.29,6.5,8.39,1,0
16205.375,-0.391,0.177,0.915,-5.34,4.0,6.07,1,0
16205.39,-0.402,0.176,0.909,-2.53,2.41,0.64,1,0
16205.406,-0.403,0.185,0.912,-2.26,1.34,-0.58,1,0
16205.406,-0.408,0.177,0.904,-2.01,0.06,-1.59,1,0
16205.421,-0.403,0.188,0.895,-1.25,-0.31,-2.96,1,0
16205.421,-0.41,0.178,0.892,-0.61,-0.12,-4.7,1,0
16205.437,-0.422,0.187,0.895,-0.09,0.49,-6.01,1,0
16205.453,-0.432,0.194,0.905,-0.15,0.43,-6.41,1,0
16205.453,-0.429,0.205,0.916,-1.28,-0.64,-5.92,1,0
16205.468,-0.419,0.208,0.92,-2.04,-2.2,-4.88,1,0
16205.484,-0.409,0.203,0.916,-1.77,-3.81,-4.18,1,0
16205.5,-0.4,0.197,0.905,-1.01,-4.7,-4.03,1,0
16205.5,-0.4,0.192,0.9,-0.49,-4.79,-4.58,1,0
16205.5,-0.397,0.187,0.893,0.09,-4.85,-5.71,1,0
16205.515,-0.403,0.18,0.889,0.73,-4.64,-6.38,1,0
16205.531,-0.402,0.179,0.884,1.62,-4.27,-6.96,1,0
16205.531,-0.4,0.176,0.881,1.98,-3.85,-7.42,1,0
16205.562,-0.398,0.167,0.883,3.81,-2.47,-8.79,1,0
16205.578,-0.391,0.164,0.897,5.4,-1.74,-8.61,1,0
16205.578,-0.402,0.182,0.892,4.09,-2.81,-8.33,1,0
16205.593,-0.396,0.183,0.901,1.74,-4.18,-7.87,1,0
16205.593,-0.378,0.182,0.896,1.28,-4.64,-7.17,1,0
16205.609,-0.377,0.18,0.898,3.14,-3.85,-7.29,1,0
16205.625,-0.377,0.19,0.891,3.75,-3.69,-7.81,1,0
16205.625,-0.373,0.18,0.876,5.71,-3.36,-8.79,1,0
16205.64,-0.373,0.197,0.886,4.12,-3.27,-9.7,1,0
16205.64,-0.384,0.18,0.883,5.34,-2.9,-10.1,1,0
16205.656,-0.39,0.19,0.871,6.87,-1.8,-9.61,1,0
16205.671,-0.397,0.205,0.878,5.89,-1.25,-9.61,1,0
16205.671,-0.408,0.199,0.88,5.01,-0.95,-9.31,1,0
16205.687,-0.41,0.211,0.888,4.15,-0.85,-7.81,1,0
16205.703,-0.405,0.213,0.885,3.54,-1.07,-6.13,1,0
16205.703,-0.401,0.214,0.884,3.08,-0.95,-4.67,1,0
16205.734,-0.394,0.213,0.879,1.28,-0.82,-2.04,1,0
16205.734,-0.393,0.212,0.875,0.34,-0.64,-0.85,1,0
16205.75,-0.393,0.207,0.874,-0.4,-0.15,0.21,1,0
16205.75,-0.399,0.203,0.871,-0.98,0.18,1.16,1,0
16205.765,-0.396,0.199,0.868,-1.62,0.49,1.98,1,0
16205.781,-0.39,0.196,0.868,-2.17,1.16,2.44,1,0
16205.796,-0.394,0.193,0.873,-2.75,1.95,2.69,1,0
16205.796,-0.394,0.19,0.88,-3.08,2.32,3.2,1,0
16205.812,-0.385,0.189,0.879,-2.99,2.72,3.63,1,0
16205.812,-0.382,0.187,0.884,-3.11,3.66,3.57,1,0
16205.828,-0.394,0.184,0.897,-2.69,4.27,3.33,1,0
16205.843,-0.4,0.181,0.897,-2.2,3.69,3.36,1,0
16205.843,-0.392,0.177,0.893,-2.23,2.81,2.93,1,0
16205.859,-0.389,0.172,0.889,-1.74,2.44,1.86,1,0
16205.875,-0.398,0.171,0.892,-1.16,2.72,0.7,1,0
16205.875,-0.407,0.174,0.893,-0.82,2.78,-0.09,1,0
16205.89,-0.413,0.186,0.901,0.52,3.17,-1.34,1,0
16205.906,-0.419,0.187,0.902,0.67,2.35,-2.01,1,0
16205.921,-0.415,0.187,0.908,1.07,1.37,-2.04,1,0
16205.921,-0.414,0.196,0.898,1.86,0.85,-1.98,1,0
16205.937,-0.415,0.191,0.896,1.56,0.12,-2.26,1,0
16205.953,-0.412,0.19,0.896,1.19,-0.31,-2.04,1,0
16205.953,-0.408,0.187,0.896,1.5,-0.12,-1.8,1,0
16205.968,-0.409,0.184,0.895,2.26,-0.24,-1.89,1,0
16205.984,-0.406,0.18,0.899,2.69,-0.4,-2.23,1,0
16205.984,-0.409,0.18,0.9,3.33,-0.49,-2.9,1,0
16206.0,-0.414,0.177,0.901,3.97,-1.07,-3.66,1,0
16206.015,-0.413,0.176,0.907,5.04,-1.86,-4.0,1,0
16206.015,-0.411,0.183,0.897,6.07,-2.44,-4.24,1,0
16206.031,-0.41,0.182,0.9,5.95,-3.08,-4.85,1,0
16206.031,-0.414,0.185,0.909,5.89,-3.63,-5.22,1,0
16206.046,-0.409,0.173,0.889,6.81,-4.88,-5.4,1,0
16206.062,-0.399,0.196,0.89,6.68,-4.76,-5.86,1,0
16206.062,-0.412,0.172,0.894,8.0,-4.97,-6.5,1,0
16206.078,-0.401,0.198,0.859,7.69,-4.85,-6.84,1,0
16206.093,-0.402,0.189,0.889,7.78,-4.0,-6.44,1,0
16206.093,-0.397,0.192,0.87,8.06,-4.33,-6.71,1,0
16206.109,-0.397,0.203,0.878,7.54,-4.0,-6.59,1,0
16206.109,-0.404,0.193,0.88,7.97,-4.12,-6.9,1,0
16206.125,-0.4,0.205,0.875,8.24,-4.36,-6.5,1,0
16206.14,-0.393,0.207,0.875,8.18,-4.61,-6.35,1,0
16206.14,-0.395,0.208,0.873,7.87,-4.58,-6.2,1,0
16206.156,-0.397,0.215,0.871,7.78,-4.18,-5.43,1,0
16206.171,-0.395,0.215,0.87,7.39,-3.69,-4.52,1,0
16206.171,-0.389,0.219,0.869,6.74,-3.2,-3.57,1,0
16206.187,-0.392,0.215,0.866,6.35,-2.41,-2.84,1,0
16206.203,-0.388,0.216,0.862,5.89,-1.65,-2.14,1,0
16206.203,-0.387,0.214,0.859,5.37,-0.64,-1.8,1,0
16206.218,-0.389,0.213,0.864,4.85,0.12,-1.31,1,0
16206.234,-0.395,0.214,0.867,4.82,0.67,-0.89,1,0
16206.234,-0.395,0.214,0.868,4.76,1.04,-0.43,1,0
16206.25,-0.396,0.217,0.868,4.39,1.37,0.06,1,0
16206.25,-0.395,0.219,0.868,3.63,1.83,0.55,1,0
16206.265,-0.397,0.221,0.87,2.99,2.32,1.07,1,0
16206.281,-0.4,0.223,0.871,2.41,2.9,2.04,1,0
16206.281,-0.399,0.222,0.875,1.77,3.75,3.23,1,0
16206.296,-0.397,0.219,0.881,1.31,4.12,4.24,1,0
16206.312,-0.394,0.218,0.886,1.19,4.39,4.97,1,0
16206.328,-0.397,0.214,0.889,0.43,4.39,5.43,1,0
16206.328,-0.399,0.21,0.889,-0.4,3.75,5.52,1,0
16206.343,-0.406,0.208,0.887,-0.67,2.96,4.7,1,0
16206.343,-0.409,0.204,0.884,-0.37,2.38,3.81,1,0
16206.359,-0.418,0.205,0.88,0.15,2.2,3.27,1,0
16206.375,-0.429,0.212,0.89,0.67,1.4,3.08,1,0
16206.375,-0.436,0.245,0.877,1.46,-0.58,3.02,1,0
16206.39,-0.413,0.242,0.871,-0.18,-2.2,3.63,1,0
16206.39,-0.415,0.253,0.861,-2.35,-1.89,4.64,1,0
16206.421,-0.438,0.268,0.866,-4.82,-0.15,8.45,1,0
16206.421,-0.439,0.278,0.866,-7.05,-0.43,11.26,1,0
16206.437,-0.429,0.284,0.869,-10.13,-0.34,14.68,1,0
16206.453,-0.437,0.286,0.885,-13.79,-0.34,18.31,1,0
16206.453,-0.442,0.291,0.9,-18.1,-1.98,22.22,1,0
16206.468,-0.43,0.28,0.914,-23.04,-5.28,25.61,1,0
16206.484,-0.42,0.27,0.913,-26.8,-9.06,28.57,1,0
16206.484,-0.413,0.257,0.914,-29.18,-11.87,31.07,1,0
16206.5,-0.416,0.247,0.917,-31.34,-14.92,33.27,1,0
16206.5,-0.431,0.236,0.921,-33.45,-19.17,35.0,1,0
16206.515,-0.447,0.228,0.889,-37.78,-25.64,36.47,1,0
16206.531,-0.428,0.234,1.042,-41.05,-47.12,37.9,1,0
16206.546,-0.392,0.217,1.021,-40.56,-54.41,36.84,1,0
16206.546,-0.335,0.196,0.961,-36.01,-54.75,35.16,1,0
16206.562,-0.289,0.163,0.933,-29.51,-49.9,32.01,1,0
16206.562,-0.259,0.135,0.852,-21.88,-41.17,28.57,1,0
16206.578,-0.276,0.133,0.847,-14.56,-32.26,24.57,1,0
16206.593,-0.294,0.14,0.865,-11.02,-25.51,19.65,1,0
16206.593,-0.319,0.141,0.881,-10.1,-20.84,16.6,1,0
16206.609,-0.339,0.133,0.903,-12.7,-17.94,17.33,1,0
16206.625,-0.337,0.14,0.918,-17.7,-16.79,19.53,1,0
16206.625,-0.328,0.122,0.898,-22.83,-15.47,21.3,1,0
16206.64,-0.31,0.101,0.884,-27.62,-12.73,22.77,1,0
16206.64,-0.283,0.079,0.87,-28.35,-7.42,22.89,1,0
16206.656,-0.272,0.064,0.864,-25.94,-0.27,20.72,1,0
16206.671,-0.276,0.046,0.871,-19.35,6.71,16.6,1,0
16206.671,-0.299,0.057,0.894,-12.42,12.67,11.11,1,0
16206.687,-0.311,0.069,0.923,-8.24,15.75,4.3,1,0
16206.703,-0.35,0.068,0.953,-1.25,17.27,-1.16,1,0
16206.718,-0.388,0.106,0.98,5.34,16.36,-3.48,1,0
16206.718,-0.4,0.141,0.993,8.3,11.87,-3.75,1,0
16206.734,-0.39,0.155,0.981,6.71,5.07,-2.93,1,0
16206.734,-0.35,0.16,0.949,4.21,0.18,-1.68,1,0
16206.75,-0.331,0.168,0.922,3.42,-0.73,-0.95,1,0
16206.75,-0.321,0.18,0.912,2.96,0.0,-1.01,1,0
16206.765,-0.325,0.185,0.909,1.95,1.04,-1.22,1,0
16206.781,-0.329,0.193,0.916,0.52,1.68,-0.95,1,0
16206.781,-0.329,0.193,0.916,-0.09,2.04,-0.31,1,0
16206.796,-0.317,0.191,0.911,-0.61,2.56,0.18,1,0
16206.812,-0.314,0.187,0.908,-0.67,3.45,0.61,1,0
16206.812,-0.321,0.189,0.923,-0.61,4.06,1.46,1,0
16206.828,-0.318,0.188,0.94,-1.04,3.85,2.01,1,0
16206.843,-0.313,0.176,0.946,-1.62,3.42,2.2,1,0
16206.843,-0.313,0.163,0.947,-1.46,3.36,2.78,1,0
16206.859,-0.312,0.165,0.947,-1.86,2.81,3.02,1,0
16206.875,-0.311,0.162,0.942,-1.92,2.01,2.69,1,0
16206.875,-0.31,0.152,0.951,-0.89,0.95,2.35,1,0
16206.89,-0.302,0.151,0.943,-0.31,0.15,1.8,1,0
16206.89,-0.3,0.149,0.932,0.73,0.37,1.28,1,0
16206.906,-0.308,0.15,0.925,2.9,1.28,1.34,1,0
16206.921,-0.323,0.152,0.929,5.92,2.41,2.08,1,0
16206.937,-0.327,0.157,0.928,7.63,2.62,2.87,1,0
16206.937,-0.321,0.156,0.916,8.64,2.66,3.3,1,0
16206.953,-0.323,0.16,0.911,9.7,3.51,3.66,1,0
16206.953,-0.324,0.167,0.906,10.19,4.46,4.15,1,0
16206.968,-0.327,0.169,0.905,9.92,5.49,4.33,1,0
16206.984,-0.335,0.172,0.908,8.79,6.01,4.46,1,0
16206.984,-0.335,0.177,0.912,7.57,6.13,4.24,1,0
16207.0,-0.337,0.179,0.915,6.74,6.29,4.15,1,0
16207.015,-0.341,0.181,0.911,6.32,6.78,3.75,1,0
16207.015,-0.34,0.189,0.914,5.37,6.74,4.06,1,0
16207.031,-0.336,0.186,0.914,4.55,6.59,4.06,1,0
16207.031,-0.338,0.192,0.911,3.81,6.78,4.18,1,0
16207.046,-0.33,0.186,0.888,3.39,7.42,4.3,1,0
16207.062,-0.328,0.198,0.903,1.89,9.25,4.43,1,0
16207.062,-0.34,0.194,0.907,0.85,9.83,4.24,1,0
16207.078,-0.345,0.188,0.902,1.28,10.68,4.82,1,0
16207.093,-0.354,0.195,0.904,-0.31,11.2,6.32,1,0
16207.109,-0.356,0.199,0.904,-2.69,11.05,7.17,1,0
16207.125,-0.353,0.195,0.917,-5.98,10.04,7.63,1,0
16207.125,-0.353,0.184,0.915,-7.6,9.0,7.84,1,0
16207.14,-0.349,0.185,0.911,-7.45,8.55,8.18,1,0
16207.14,-0.36,0.192,0.918,-6.59,8.51,9.03,1,0
16207.156,-0.365,0.199,0.922,-7.72,7.14,10.38,1,0
16207.171,-0.354,0.194,0.923,-10.41,5.16,11.9,1,0
16207.171,-0.348,0.181,0.923,-12.15,3.88,12.73,1,0
16207.187,-0.354,0.173,0.922,-11.35,3.81,13.18,1,0
16207.203,-0.354,0.176,0.917,-10.41,3.57,13.4,1,0
16207.203,-0.344,0.17,0.923,-10.41,3.54,12.82,1,0
16207.218,-0.344,0.173,0.918,-9.22,3.88,12.02,1,0
16207.234,-0.349,0.176,0.912,-9.06,3.94,11.32,1,0
16207.234,-0.344,0.177,0.915,-11.11,3.11,10.68,1,0
16207.25,-0.344,0.174,0.907,-14.47,1.53,9.92,1,0
16207.265,-0.345,0.158,0.922,-22.0,-3.2,8.03,1,0
16207.281,-0.323,0.143,0.883,-24.17,-4.09,7.02,1,0
16207.281,-0.318,0.144,0.896,-24.81,-2.38,6.13,1,0
16207.296,-0.32,0.147,0.915,-24.66,-0.43,3.97,1,0
16207.312,-0.341,0.144,0.933,-21.33,1.34,2.66,1,0
16207.312,-0.358,0.136,0.948,-16.24,1.56,3.54,1,0
16207.328,-0.364,0.157,0.947,-14.98,0.09,4.43,1,0
16207.343,-0.366,0.16,0.95,-17.85,-3.14,5.46,1,0
16207.343,-0.361,0.14,0.967,-21.73,-7.81,6.1,1,0
16207.359,-0.348,0.125,0.975,-23.41,-11.75,6.47,1,0
16207.375,-0.336,0.115,0.971,-20.33,-13.46,6.9,1,0
16207.375,-0.33,0.117,0.954,-16.85,-14.22,6.78,1,0
16207.39,-0.323,0.129,0.932,-15.81,-13.7,5.71,1,0
16207.406,-0.337,0.136,0.931,-17.18,-13.28,4.3,1,0
16207.406,-0.339,0.129,0.953,-21.33,-14.59,3.14,1,0
16207.421,-0.329,0.111,0.963,-22.0,-15.72,2.62,1,0
16207.437,-0.321,0.112,0.922,-10.1,-12.85,4.09,1,0
16207.453,-0.337,0.109,0.939,-6.68,-11.47,3.85,1,0
16207.468,-0.336,0.106,0.947,-4.85,-11.54,3.72,1,0
16207.468,-0.331,0.11,0.933,-3.54,-11.32,3.88,1,0
16207.484,-0.325,0.107,0.935,-1.16,-10.5,4.39,1,0
16207.484,-0.325,0.112,0.934,2.56,-8.85,4.55,1,0
16207.5,-0.338,0.123,0.922,4.52,-7.66,4.46,1,0
16207.5,-0.346,0.125,0.925,2.96,-7.75,4.46,1,0
16207.515,-0.343,0.119,0.936,1.01,-9.83,4.39,1,0
16207.531,-0.345,0.118,0.939,2.01,-10.56,5.01,1,0
16207.531,-0.352,0.12,0.938,1.71,-12.21,5.58,1,0
16207.546,-0.326,0.107,0.921,1.56,-13.67,5.49,1,0
16207.562,-0.304,0.103,0.891,2.26,-12.63,4.73,1,0
16207.562,-0.295,0.099,0.874,3.3,-9.06,3.54,1,0
16207.578,-0.296,0.108,0.865,3.45,-4.3,1.74,1,0
16207.593,-0.307,0.104,0.871,2.53,0.34,-0.4,1,0
16207.609,-0.368,0.124,0.941,4.0,5.07,-0.4,1,0
16207.609,-0.375,0.137,0.952,3.33,2.66,1.68,1,0
16207.625,-0.367,0.13,0.953,0.03,-0.76,3.57,1,0
16207.64,-0.357,0.123,0.949,-2.23,-3.91,4.97,1,0
16207.64,-0.339,0.12,0.935,-2.59,-6.07,5.55,1,0
16207.656,-0.324,0.109,0.913,-1.71,-6.41,5.07,1,0
16207.671,-0.311,0.108,0.891,-0.15,-4.85,3.94,1,0
16207.671,-0.307,0.105,0.887,1.4,-1.62,2.32,1,0
16207.687,-0.312,0.107,0.881,1.16,2.14,0.49,1,0
16207.703,-0.328,0.111,0.899,-1.1,4.88,-1.16,1,0
16207.703,-0.346,0.11,0.926,-2.56,5.62,-2.14,1,0
16207.718,-0.353,0.106,0.951,-2.23,4.39,-2.26,1,0
16207.734,-0.346,0.102,0.956,-1.01,2.59,-2.47,1,0
16207.734,-0.348,0.109,0.949,0.95,0.95,-3.36,1,0
16207.75,-0.349,0.112,0.943,2.59,-1.28,-4.36,1,0
16207.75,-0.335,0.113,0.941,3.45,-2.75,-5.92,1,0
16207.781,-0.326,0.126,0.905,6.04,-0.49,-9.22,1,0
16207.781,-0.327,0.139,0.898,6.23,2.44,-8.88,1,0
16207.796,-0.332,0.146,0.911,4.21,4.88,-8.58,1,0
16207.812,-0.352,0.145,0.929,2.08,6.29,-7.66,1,0
16207.828,-0.36,0.147,0.938,1.13,5.83,-4.61,1,0
16207.828,-0.345,0.144,0.945,-1.19,3.63,-1.89,1,0
16207.843,-0.334,0.131,0.94,-3.6,1.07,-0.61,1,0
16207.843,-0.328,0.121,0.933,-3.85,-0.46,0.27,1,0
16207.859,-0.316,0.12,0.935,-3.11,-1.1,0.21,1,0
16207.875,-0.312,0.113,0.937,-1.68,-1.43,-1.07,1,0
16207.875,-0.317,0.117,0.933,0.18,-1.31,-2.47,1,0
16207.89,-0.313,0.125,0.92,1.46,-1.01,-3.48,1,0
16207.89,-0.313,0.128,0.917,2.38,-0.31,-3.97,1,0
16207.906,-0.317,0.133,0.922,2.99,0.49,-4.49,1,0
16207.921,-0.324,0.14,0.927,3.94,1.13,-4.49,1,0
16207.921,-0.322,0.141,0.93,3.54,1.07,-4.3,1,0
16207.953,-0.315,0.141,0.929,1.56,1.43,-2.87,1,0
16207.953,-0.314,0.138,0.94,-0.09,1.22,-2.23,1,0
16207.968,-0.304,0.131,0.931,-1.43,0.73,-2.47,1,0
16207.984,-0.308,0.124,0.948,-1.56,0.98,-3.2,1,0
16207.984,-0.306,0.129,0.935,0.4,1.13,-4.12,1,0
16208.0,-0.318,0.136,0.939,2.29,2.2,-4.94,1,0
16208.0,-0.327,0.142,0.949,3.39,2.35,-5.28,1,0
16208.015,-0.335,0.144,0.946,4.7,2.26,-4.55,1,0
16208.031,-0.331,0.148,0.944,4.49,1.5,-2.99,1,0
16208.046,-0.319,0.146,0.941,2.87,0.52,-1.92,1,0
16208.046,-0.312,0.137,0.939,1.68,0.34,-1.4,1,0
16208.062,-0.311,0.136,0.938,1.16,0.61,-0.82,1,0
16208.062,-0.304,0.137,0.935,1.07,0.52,-0.67,1,0
16208.078,-0.301,0.132,0.932,0.85,0.89,-0.85,1,0
16208.093,-0.301,0.131,0.935,0.89,1.5,-1.31,1,0
16208.093,-0.303,0.13,0.941,1.8,2.14,-1.34,1,0
16208.109,-0.312,0.133,0.948,3.05,2.62,-1.22,1,0
16208.125,-0.319,0.13,0.945,3.51,2.59,-0.64,1,0
16208.125,-0.317,0.132,0.947,2.38,1.95,-0.03,1,0
16208.14,-0.318,0.133,0.941,1.98,1.5,0.06,1,0
16208.14,-0.326,0.131,0.947,1.19,0.49,0.24,1,0
16208.156,-0.32,0.129,0.948,0.27,-0.92,0.31,1,0
16208.171,-0.313,0.129,0.944,0.15,-1.5,0.55,1,0
16208.171,-0.317,0.128,0.94,0.58,-1.5,1.1,1,0
16208.187,-0.321,0.132,0.94,0.03,-1.53,1.77,1,0
16208.203,-0.32,0.13,0.942,-1.37,-1.98,2.08,1,0
16208.203,-0.318,0.127,0.948,-2.38,-2.59,1.89,1,0
16208.218,-0.321,0.118,0.936,-1.92,-2.78,1.56,1,0
16208.234,-0.324,0.125,0.94,-1.19,-2.2,1.4,1,0
16208.234,-0.33,0.128,0.942,-0.67,-2.69,1.31,1,0
16208.25,-0.327,0.128,0.939,-0.82,-3.6,1.19,1,0
16208.265,-0.326,0.126,0.936,-0.58,-3.81,1.34,1,0
16208.265,-0.324,0.13,0.932,0.03,-3.63,1.53,1,0
16208.281,-0.331,0.132,0.931,0.15,-3.39,1.4,1,0
16208.281,-0.338,0.13,0.932,-0.49,-3.42,1.43,1,0
16208.296,-0.342,0.129,0.937,-0.95,-3.78,1.65,1,0
16208.312,-0.346,0.127,0.944,-0.67,-4.79,2.08,1,0
16208.312,-0.331,0.123,0.925,-0.24,-6.2,2.17,1,0
16208.328,-0.327,0.119,0.918,-0.03,-6.07,1.65,1,0
16208.343,-0.326,0.118,0.917,0.09,-5.74,0.58,1,0
16208.359,-0.332,0.119,0.916,0.92,-5.1,0.06,1,0
16208.359,-0.331,0.127,0.915,1.46,-4.67,-0.34,1,0
16208.359,-0.333,0.129,0.912,1.22,-4.49,-0.58,1,0
16208.375,-0.332,0.132,0.908,0.24,-4.27,-0.43,1,0
16208.39,-0.33,0.132,0.907,-0.34,-3.63,-0.09,1,0
16208.39,-0.333,0.136,0.908,-0.92,-2.69,0.24,1,0
16208.406,-0.34,0.136,0.91,-2.04,-2.2,0.61,1,0
16208.421,-0.335,0.13,0.913,-3.48,-2.11,1.04,1,0
16208.421,-0.332,0.127,0.916,-3.97,-1.43,1.04,1,0
16208.437,-0.331,0.127,0.923,-3.57,-0.67,0.52,1,0
16208.453,-0.337,0.131,0.939,-2.78,-0.34,0.06,1,0
16208.453,-0.348,0.13,0.951,-1.62,-1.16,0.06,1,0
16208.468,-0.341,0.135,0.947,-0.67,-3.27,0.95,1,0
16208.484,-0.336,0.137,0.943,-0.61,-4.76,1.92,1,0
16208.484,-0.337,0.133,0.941,-1.19,-6.2,2.78,1,0
16208.5,-0.328,0.128,0.935,-1.68,-7.72,4.21,1,0
16208.515,-0.329,0.14,0.935,-3.75,-9.16,3.94,1,0
16208.515,-0.337,0.132,0.942,-5.28,-11.11,4.03,1,0
16208.531,-0.343,0.121,0.957,-5.25,-13.31,4.64,1,0
16208.531,-0.328,0.12,0.954,-6.5,-15.96,4.94,1,0
16208.546,-0.317,0.107,0.962,-8.03,-18.19,3.78,1,0
16208.562,-0.303,0.094,0.935,-6.65,-18.98,2.2,1,0
16208.562,-0.29,0.104,0.931,-2.78,-17.58,1.43,1,0
16208.578,-0.291,0.119,0.933,-0.82,-15.81,-0.18,1,0
16208.593,-0.296,0.125,0.927,-2.41,-14.8,-1.65,1,0
16208.593,-0.298,0.119,0.929,-4.3,-13.92,-1.74,1,0
16208.609,-0.299,0.119,0.946,-5.4,-13.21,-0.92,1,0
16208.625,-0.293,0.115,0.961,-5.46,-13.03,-0.49,1,0
16208.625,-0.287,0.11,0.954,-3.33,-12.3,-0.24,1,0
16208.64,-0.281,0.113,0.938,0.52,-10.71,0.0,1,0
16208.64,-0.272,0.119,0.924,3.57,-8.58,0.34,1,0
16208.656,-0.27,0.12,0.918,4.55,-5.95,0.46,1,0
16208.671,-0.271,0.124,0.92,2.99,-3.48,0.12,1,0
16208.687,-0.279,0.116,0.934,1.83,-1.56,-0.06,1,0
16208.687,-0.287,0.124,0.945,2.11,-0.21,0.24,1,0
16208.703,-0.291,0.123,0.944,2.14,-0.4,0.98,1,0
16208.703,-0.284,0.125,0.947,0.89,-0.76,1.62,1,0
16208.718,-0.275,0.114,0.944,0.18,-1.13,1.98,1,0
16208.734,-0.268,0.11,0.931,0.52,-0.49,1.83,1,0
16208.734,-0.273,0.109,0.931,1.65,0.95,0.76,1,0
16208.75,-0.283,0.113,0.934,1.95,2.17,-0.55,1,0
16208.765,-0.288,0.115,0.94,0.46,2.32,-1.71,1,0
16208.765,-0.288,0.113,0.943,-1.13,2.01,-2.5,1,0
16208.781,-0.292,0.111,0.946,-0.89,1.92,-2.84,1,0
16208.781,-0.288,0.115,0.937,0.0,2.08,-2.75,1,0
16208.796,-0.285,0.118,0.937,0.03,2.72,-2.62,1,0
16208.812,-0.287,0.118,0.944,-0.49,3.27,-2.44,1,0
16208.812,-0.285,0.121,0.951,-0.95,3.27,-1.98,1,0
16208.828,-0.284,0.128,0.951,-0.98,3.05,-1.5,1,0
16208.843,-0.28,0.128,0.95,-1.53,3.02,-1.22,1,0
16208.843,-0.282,0.122,0.95,-1.46,3.27,-1.4,1,0
16208.859,-0.298,0.127,0.952,-0.37,3.72,-1.31,1,0
16208.859,-0.306,0.129,0.952,-0.52,3.11,-0.79,1,0
16208.875,-0.307,0.122,0.954,-1.59,1.62,-0.61,1,0
16208.89,-0.303,0.119,0.955,-1.8,0.27,-0.43,1,0
16208.89,-0.291,0.117,0.95,-1.71,-0.92,-0.21,1,0
16208.906,-0.281,0.116,0.941,-1.1,-1.16,-0.7,1,0
16208.921,-0.284,0.12,0.939,-0.37,-0.76,-1.1,1,0
16208.921,-0.29,0.122,0.942,-0.43,-0.82,-1.22,1,0
16208.937,-0.297,0.124,0.943,-0.15,-0.92,-1.37,1,0
16208.953,-0.304,0.129,0.937,0.43,-0.31,-1.4,1,0
16208.953,-0.306,0.136,0.941,-0.43,0.76,-1.04,1,0
16208.968,-0.3,0.137,0.957,-2.2,1.92,-0.06,1,0
16208.984,-0.29,0.132,0.975,-3.94,2.41,1.04,1,0
16208.984,-0.286,0.123,0.993,-4.36,2.04,1.34,1,0
16209.0,-0.282,0.12,1.009,-3.51,0.18,1.13,1,0
16209.015,-0.283,0.121,1.01,-1.16,-3.17,0.03,1,0
16209.015,-0.276,0.126,0.996,1.98,-6.99,-1.86,1,0
16209.031,-0.267,0.137,0.974,4.97,-10.13,-2.84,1,0
16209.031,-0.273,0.152,0.946,6.84,-12.36,-2.41,1,0
16209.046,-0.285,0.155,0.92,6.16,-13.95,-0.82,1,0
16209.062,-0.289,0.154,0.902,4.33,-14.65,2.11,1,0
16209.062,-0.294,0.15,0.899,2.5,-14.13,5.68,1,0
16209.078,-0.298,0.137,0.9,1.16,-13.12,9.55,1,0
16209.093,-0.297,0.13,0.9,0.12,-12.12,12.57,1,0
16209.093,-0.304,0.12,0.907,-0.52,-10.86,14.56,1,0
16209.109,-0.309,0.119,0.916,-2.81,-10.53,15.41,1,0
16209.125,-0.32,0.108,0.945,-5.46,-11.26,14.95,1,0
16209.125,-0.323,0.109,0.959,-6.99,-13.18,14.37,1,0
16209.14,-0.3,0.105,0.961,-7.9,-15.26,13.28,1,0
16209.156,-0.282,0.101,0.951,-7.05,-15.81,11.26,1,0
16209.156,-0.278,0.109,0.94,-4.91,-14.4,8.76,1,0
16209.171,-0.27,0.121,0.943,-3.85,-12.97,6.35,1,0
16209.171,-0.278,0.126,0.975,-3.23,-12.15,3.85,1,0
16209.187,-0.289,0.139,0.992,-0.18,-12.54,2.87,1,0
16209.203,-0.283,0.168,0.981,1.71,-13.95,3.63,1,0
16209.203,-0.275,0.172,0.966,1.13,-15.23,5.62,1,0
16209.218,-0.265,0.165,0.942,-0.7,-15.66,8.36,1,0
16209.234,-0.248,0.159,0.926,-3.45,-14.74,10.83,1,0
16209.234,-0.246,0.148,0.937,-5.58,-12.85,12.54,1,0
16209.25,-0.236,0.129,0.932,-6.2,-12.02,14.34,1,0
16209.265,-0.218,0.107,0.934,-6.65,-10.83,14.89,1,0
16209.265,-0.205,0.089,0.933,-5.04,-8.7,13.4,1,0
16209.281,-0.204,0.087,0.931,-2.53,-6.16,11.35,1,0
16209.281,-0.217,0.089,0.94,-2.35,-4.52,8.76,1,0
16209.296,-0.219,0.083,0.952,-3.57,-4.18,6.07,1,0
16209.312,-0.217,0.076,0.959,-2.93,-4.03,3.78,1,0
16209.312,-0.216,0.082,0.946,-1.89,-2.35,1.28,1,0
16209.328,-0.232,0.085,0.962,-0.92,-1.22,-0.7,1,0
16209.343,-0.234,0.098,0.962,0.12,-0.58,-1.95,1,0
16209.343,-0.23,0.1,0.964,0.73,-0.03,-3.02,1,0
16209.359,-0.231,0.106,0.959,1.83,1.01,-3.91,1,0
16209.375,-0.242,0.118,0.97,2.47,2.04,-4.15,1,0
16209.375,-0.25,0.124,0.972,1.74,1.71,-4.15,1,0
16209.39,-0.253,0.12,0.972,0.4,0.85,-3.81,1,0
16209.406,-0.254,0.12,0.969,-0.06,0.06,-2.78,1,0
16209.406,-0.243,0.12,0.96,-0.98,-0.4,-1.86,1,0
16209.421,-0.237,0.111,0.957,-1.53,0.34,-1.71,1,0
16209.421,-0.246,0.114,0.964,-1.43,1.31,-1.71,1,0
16209.437,-0.25,0.113,0.978,-2.5,0.76,-1.74,1,0
16209.453,-0.25,0.113,0.984,-2.53,-0.58,-1.68,1,0
16209.453,-0.247,0.115,0.969,-1.4,-1.8,-1.4,1,0
16209.468,-0.24,0.114,0.953,-0.98,-2.17,-1.19,1,0
16209.484,-0.235,0.113,0.938,-0.89,0.43,-0.95,1,0
16209.484,-0.239,0.11,0.943,-0.49,1.59,-0.34,1,0
16209.5,-0.254,0.116,0.961,-2.5,0.82,0.43,1,0
16209.5,-0.251,0.113,0.971,-3.6,-0.7,0.52,1,0
16209.515,-0.24,0.099,0.967,-2.04,-1.53,0.31,1,0
16209.531,-0.239,0.101,0.953,-1.04,-1.59,-0.34,1,0
16209.531,-0.241,0.096,0.951,-1.5,-1.19,-1.62,1,0
16209.546,-0.243,0.094,0.952,-1.1,-0.61,-2.62,1,0
16209.562,-0.239,0.104,0.948,0.03,0.43,-3.23,1,0
16209.562,-0.241,0.117,0.956,-0.06,1.22,-3.78,1,0
16209.578,-0.245,0.119,0.965,-0.79,1.37,-3.85,1,0
16209.593,-0.248,0.127,0.973,-0.64,1.37,-3.45,1,0
16209.593,-0.246,0.134,0.963,-0.52,0.79,-2.93,1,0
16209.609,-0.251,0.129,0.96,-1.22,0.46,-2.29,1,0
16209.625,-0.253,0.125,0.956,-1.86,0.73,-0.98,1,0
16209.625,-0.252,0.12,0.954,-2.5,1.04,-0.55,1,0
16209.64,-0.249,0.112,0.953,-3.17,1.16,0.03,1,0
16209.64,-0.24,0.107,0.955,-3.57,1.34,-0.06,1,0
16209.656,-0.239,0.104,0.964,-2.75,1.5,-1.31,1,0
16209.671,-0.246,0.112,0.971,-0.52,1.46,-2.56,1,0
16209.671,-0.249,0.12,0.968,0.49,0.58,-3.11,1,0
16209.687,-0.252,0.118,0.973,0.64,-0.4,-3.23,1,0
16209.703,-0.255,0.125,0.967,1.1,-1.07,-2.69,1,0
16209.703,-0.256,0.128,0.962,0.76,-1.95,-2.2,1,0
16209.718,-0.259,0.128,0.959,-0.27,-2.59,-1.5,1,0
16209.734,-0.25,0.123,0.953,-1.37,-2.93,-0.61,1,0
16209.734,-0.242,0.117,0.947,-1.31,-2.44,-0.09,1,0
16209.75,-0.247,0.117,0.944,-0.31,-1.1,-0.15,1,0
16209.75,-0.253,0.118,0.945,0.0,0.18,-0.15,1,0
16209.765,-0.251,0.116,0.95,-0.7,1.01,-0.24,1,0
16209.781,-0.261,0.112,0.957,-0.34,1.43,-0.43,1,0
16209.781,-0.264,0.117,0.953,0.18,1.13,-0.27,1,0
16209.796,-0.259,0.112,0.951,0.31,0.85,-0.4,1,0
16209.812,-0.266,0.112,0.956,1.07,0.7,-0.49,1,0
16209.812,-0.27,0.119,0.959,1.01,0.0,-0.37,1,0
16209.828,-0.254,0.113,0.951,-0.12,-1.04,-0.49,1,0
16209.843,-0.245,0.111,0.94,0.46,-0.64,-0.92,1,0
16209.843,-0.257,0.12,0.942,1.4,0.67,-1.4,1,0
16209.859,-0.269,0.124,0.945,1.19,1.34,-0.85,1,0
16209.875,-0.261,0.12,0.946,-0.49,1.19,-0.03,1,0
16209.875,-0.256,0.112,0.951,-0.95,1.56,0.4,1,0
16209.89,-0.257,0.11,0.952,0.0,2.38,0.73,1,0
16209.89,-0.256,0.112,0.952,0.64,2.72,0.58,1,0
16209.906,-0.258,0.11,0.956,0.61,3.02,0.31,1,0
16209.921,-0.263,0.109,0.958,0.52,2.78,0.49,1,0
16209.937,-0.254,0.108,0.955,0.06,2.47,0.7,1,0
16209.937,-0.257,0.103,0.958,0.0,2.56,0.37,1,0
16209.953,-0.261,0.1,0.962,0.58,2.38,0.03,1,0
16209.953,-0.253,0.105,0.957,0.79,1.95,-0.34,1,0
16209.968,-0.251,0.106,0.954,0.76,1.98,-0.95,1,0
16209.984,-0.256,0.111,0.955,0.98,2.75,-1.16,1,0
16209.984,-0.255,0.117,0.956,0.7,2.96,-0.52,1,0
16210.0,-0.249,0.111,0.955,-0.55,2.87,-0.12,1,0
16210.015,-0.248,0.107,0.954,-0.89,3.17,0.0,1,0
16210.015,-0.247,0.104,0.954,-0.18,4.0,-0.12,1,0
16210.031,-0.255,0.104,0.958,-0.09,4.79,-0.49,1,0
16210.031,-0.271,0.106,0.981,-0.37,4.33,-0.31,1,0
16210.046,-0.271,0.106,0.988,-0.76,2.04,0.24,1,0
16210.062,-0.253,0.1,0.975,-0.98,-0.12,0.18,1,0
16210.062,-0.244,0.097,0.965,-0.12,-0.61,-0.58,1,0
16210.078,-0.25,0.104,0.964,0.89,-0.15,-1.65,1,0
16210.093,-0.257,0.106,0.965,1.19,-0.06,-2.17,1,0
16210.093,-0.254,0.106,0.962,1.1,-0.43,-2.41,1,0
16210.109,-0.253,0.108,0.958,1.22,-0.4,-2.72,1,0
16210.125,-0.258,0.112,0.957,1.65,0.03,-2.72,1,0
16210.125,-0.258,0.118,0.959,1.53,0.09,-2.2,1,0
16210.14,-0.255,0.122,0.957,1.04,0.0,-1.59,1,0
16210.14,-0.26,0.117,0.962,0.79,0.09,-1.16,1,0
16210.156,-0.262,0.115,0.958,1.4,0.21,-0.64,1,0
16210.171,-0.26,0.111,0.951,1.62,0.37,-0.24,1,0
16210.171,-0.261,0.108,0.948,1.31,0.64,-0.18,1,0
16210.187,-0.262,0.104,0.954,0.7,0.73,-0.15,1,0
16210.203,-0.264,0.098,0.957,0.06,0.52,-0.34,1,0
16210.203,-0.26,0.1,0.955,0.21,0.49,-0.82,1,0
16210.218,-0.258,0.104,0.954,0.64,0.55,-1.59,1,0
16210.234,-0.265,0.106,0.963,0.89,0.49,-2.47,1,0
16210.234,-0.271,0.111,0.963,1.56,0.27,-2.9,1,0
16210.25,-0.27,0.117,0.961,1.31,-0.43,-2.72,1,0
16210.25,-0.259,0.115,0.956,1.22,-0.76,-2.47,1,0
16210.265,-0.263,0.118,0.951,2.11,-0.31,-2.44,1,0
16210.281,-0.269,0.115,0.948,2.47,0.37,-2.29,1,0
16210.281,-0.268,0.114,0.944,1.98,0.85,-1.89,1,0
16210.296,-0.269,0.114,0.948,1.43,1.4,-1.28,1,0
16210.312,-0.272,0.114,0.951,1.01,1.89,-0.79,1,0
16210.312,-0.276,0.114,0.955,0.43,2.14,-0.31,1,0
16210.328,-0.275,0.119,0.959,-0.24,1.77,0.58,1,0
16210.343,-0.269,0.112,0.963,-0.89,0.55,1.13,1,0
16210.343,-0.269,0.106,0.958,-0.73,-0.37,0.92,1,0
16210.359,-0.273,0.104,0.951,-0.24,-0.55,0.52,1,0
16210.375,-0.271,0.103,0.95,-0.4,-0.49,0.0,1,0
16210.375,-0.273,0.104,0.954,-0.24,-0.37,-0.43,1,0
16210.39,-0.271,0.105,0.956,-0.09,-0.18,-0.61,1,0
16210.39,-0.269,0.103,0.955,-0.06,-0.24,-0.64,1,0
16210.406,-0.269,0.106,0.958,0.15,-0.4,-1.07,1,0
16210.421,-0.272,0.11,0.958,0.58,-0.61,-1.31,1,0
16210.421,-0.269,0.113,0.957,0.55,-0.95,-1.13,1,0
16210.437,-0.267,0.114,0.957,0.46,-1.04,-1.1,1,0
16210.453,-0.271,0.117,0.952,0.67,-1.1,-0.92,1,0
16210.468,-0.272,0.116,0.942,0.43,-1.04,-0.37,1,0
16210.468,-0.264,0.112,0.938,-1.13,0.46,0.15,1,0
16210.484,-0.27,0.111,0.945,-0.76,1.22,0.37,1,0
16210.484,-0.274,0.11,0.954,-0.7,1.04,0.79,1,0
16210.5,-0.272,0.109,0.966,-1.16,-0.21,0.79,1,0
16210.5,-0.262,0.103,0.965,-1.43,-1.68,0.43,1,0
16210.515,-0.26,0.103,0.955,-0.24,-2.23,-0.21,1,0
16210.531,-0.264,0.108,0.947,1.04,-2.01,-1.07,1,0
16210.531,-0.27,0.115,0.944,1.28,-1.74,-1.43,1,0
16210.546,-0.269,0.117,0.94,0.61,-1.46,-1.68,1,0
16210.562,-0.267,0.118,0.938,0.43,-0.58,-1.46,1,0
16210.562,-0.273,0.121,0.943,0.37,0.61,-1.04,1,0
16210.578,-0.274,0.122,0.952,0.06,1.16,-0.7,1,0
16210.593,-0.274,0.122,0.956,-0.21,1.28,-0.46,1,0
16210.593,-0.273,0.117,0.96,0.06,0.89,0.03,1,0
16210.609,-0.274,0.122,0.963,0.31,0.03,0.31,1,0
16210.609,-0.278,0.122,0.963,0.12,-0.7,0.27,1,0
16210.625,-0.276,0.119,0.96,-0.27,-1.74,0.67,1,0
16210.64,-0.271,0.121,0.954,0.06,-2.01,0.95,1,0
16210.64,-0.272,0.125,0.95,0.49,-1.71,0.95,1,0
16210.656,-0.27,0.122,0.949,0.27,-1.53,1.1,1,0
16210.671,-0.271,0.114,0.954,0.55,-1.34,1.1,1,0
16210.687,-0.269,0.111,0.951,1.07,-1.1,1.31,1,0
16210.687,-0.264,0.109,0.948,0.82,-0.76,1.07,1,0
16210.703,-0.263,0.104,0.946,0.7,-0.34,0.31,1,0
16210.703,-0.269,0.102,0.948,1.22,0.12,-0.58,1,0
16210.718,-0.276,0.107,0.953,1.77,0.24,-1.46,1,0
16210.734,-0.281,0.115,0.952,1.65,-0.12,-1.74,1,0
16210.734,-0.285,0.119,0.954,1.01,-0.61,-1.28,1,0
16210.75,-0.277,0.12,0.951,0.09,-1.1,-0.49,1,0
16210.765,-0.269,0.121,0.957,-0.58,-1.07,0.24,1,0
16210.765,-0.274,0.121,0.958,0.06,-0.89,0.82,1,0
16210.781,-0.272,0.123,0.959,-0.15,-1.28,1.56,1,0
16210.781,-0.263,0.115,0.958,-1.04,-1.86,1.89,1,0
16210.796,-0.261,0.107,0.953,-0.64,-1.89,1.65,1,0
16210.812,-0.266,0.109,0.951,0.34,-1.5,0.98,1,0
16210.812,-0.271,0.108,0.952,1.01,-1.01,0.24,1,0
16210.828,-0.27,0.109,0.955,0.89,-0.82,-0.15,1,0
16210.843,-0.269,0.106,0.955,0.89,-0.89,-0.52,1,0
16210.843,-0.27,0.107,0.951,1.04,-0.85,-1.01,1,0
16210.859,-0.274,0.109,0.95,1.07,-0.55,-1.56,1,0
16210.875,-0.276,0.11,0.946,1.04,-0.31,-1.74,1,0
16210.875,-0.278,0.115,0.949,0.82,0.21,-1.4,1,0
16210.89,-0.285,0.119,0.958,0.64,0.37,-0.73,1,0
16210.906,-0.285,0.119,0.962,0.24,-0.58,0.18,1,0
16210.906,-0.276,0.116,0.956,-0.43,-1.68,1.16,1,0
16210.921,-0.261,0.111,0.945,-0.4,-2.08,1.22,1,0
16210.921,-0.258,0.11,0.941,-0.06,-1.34,0.58,1,0
16210.937,-0.265,0.113,0.943,0.27,-0.06,-0.15,1,0
16210.953,-0.271,0.115,0.945,0.18,0.95,-0.31,1,0
16210.953,-0.277,0.115,0.955,-0.31,1.43,-0.21,1,0
16210.968,-0.287,0.114,0.965,-0.49,1.07,0.31,1,0
16210.984,-0.279,0.111,0.966,-0.64,-0.18,0.82,1,0
16210.984,-0.269,0.109,0.961,-0.31,-1.07,0.85,1,0
16211.0,-0.267,0.11,0.957,0.21,-1.37,0.4,1,0
16211.0,-0.268,0.117,0.955,0.43,-1.43,0.12,1,0
16211.015,-0.271,0.118,0.952,0.58,-1.56,0.24,1,0
16211.031,-0.271,0.118,0.948,0.34,-1.22,0.79,1,0
16211.031,-0.276,0.118,0.955,-0.67,-1.19,1.19,1,0
16211.046,-0.274,0.111,0.958,-1.71,-1.86,1.4,1,0
16211.062,-0.265,0.104,0.954,-1.62,-1.98,1.13,1,0
16211.062,-0.265,0.107,0.951,-0.18,-1.46,0.24,1,0
16211.078,-0.271,0.115,0.953,0.55,-0.95,-0.43,1,0
16211.093,-0.274,0.116,0.954,0.21,-0.98,-0.49,1,0
16211.093,-0.276,0.117,0.954,-0.31,-1.65,0.18,1,0
16211.109,-0.271,0.118,0.952,-0.46,-2.23,0.76,1,0
16211.125,-0.267,0.113,0.948,-0.67,-2.38,1.25,1,0
16211.125,-0.27,0.108,0.944,-0.37,-2.01,1.56,1,0
16211.14,-0.263,0.11,0.942,-0.37,-1.5,1.59,1,0
16211.14,-0.261,0.108,0.945,-0.64,-0.89,1.22,1,0
16211.156,-0.267,0.106,0.949,-0.79,-0.58,0.46,1,0
16211.171,-0.268,0.11,0.951,-0.27,-0.55,-0.4,1,0
16211.171,-0.268,0.114,0.946,0.73,-0.58,-1.04,1,0
16211.187,-0.275,0.12,0.944,0.73,-0.12,-1.25,1,0
16211.203,-0.281,0.123,0.949,0.0,0.37,-1.01,1,0
16211.218,-0.283,0.123,0.951,-0.52,0.52,-0.43,1,0
16211.218,-0.28,0.121,0.952,-0.89,0.34,-0.15,1,0
16211.218,-0.272,0.118,0.95,-0.73,0.31,-0.18,1,0
16211.234,-0.27,0.115,0.954,0.27,0.46,-0.4,1,0
16211.25,-0.277,0.122,0.954,1.22,0.27,-0.46,1,0
16211.265,-0.285,0.128,0.954,0.61,-0.55,0.0,1,0
16211.265,-0.281,0.12,0.953,-0.43,-1.31,0.52,1,0
16211.281,-0.272,0.115,0.944,-0.49,-1.28,0.52,1,0
16211.296,-0.272,0.117,0.941,0.03,-0.37,0.18,1,0
16211.296,-0.275,0.116,0.949,0.31,0.58,-0.12,1,0
16211.312,-0.276,0.114,0.952,0.15,1.04,-0.21,1,0
16211.312,-0.282,0.112,0.965,-0.03,0.82,-0.24,1,0
16211.328,-0.278,0.118,0.959,0.4,-0.03,-0.18,1,0
16211.343,-0.277,0.115,0.967,1.46,-1.07,0.27,1,0
16211.343,-0.265,0.118,0.938,1.59,-1.5,-0.24,1,0
16211.359,-0.277,0.124,0.96,0.76,-1.04,-0.37,1,0
16211.375,-0.272,0.125,0.944,0.4,-1.19,0.09,1,0
16211.375,-0.27,0.123,0.95,0.06,-0.64,0.95,1,0
16211.39,-0.268,0.116,0.946,-0.12,-0.31,1.16,1,0
16211.39,-0.266,0.115,0.948,0.03,0.64,1.56,1,0
16211.406,-0.27,0.116,0.958,-0.37,1.13,1.59,1,0
16211.421,-0.273,0.115,0.966,-0.67,0.46,1.95,1,0
16211.421,-0.262,0.114,0.962,-0.64,-0.58,2.17,1,0
16211.437,-0.256,0.109,0.954,-0.49,-0.92,1.74,1,0
16211.453,-0.263,0.11,0.955,-0.31,-0.76,0.61,1,0
16211.453,-0.275,0.108,0.957,-0.31,-1.07,0.43,1,0
16211.468,-0.276,0.106,0.953,-0.34,-1.07,0.03,1,0
16211.484,-0.272,0.107,0.953,-0.34,-0.92,-0.55,1,0
16211.484,-0.269,0.108,0.956,0.15,-0.79,-0.89,1,0
16211.5,-0.266,0.115,0.953,0.73,-0.46,-1.1,1,0
16211.515,-0.274,0.12,0.958,0.79,-0.37,-0.85,1,0
16211.515,-0.281,0.123,0.966,0.27,-1.19,0.24,1,0
16211.531,-0.272,0.126,0.96,-0.46,-2.38,1.31,1,0
16211.531,-0.273,0.12,0.953,-0.58,-2.78,1.68,1,0
16211.546,-0.28,0.118,0.948,-0.79,-2.69,1.98,1,0
16211.562,-0.279,0.116,0.952,-1.13,-2.44,2.35,1,0
16211.562,-0.282,0.112,0.951,-0.67,-2.23,2.47,1,0
16211.578,-0.277,0.115,0.946,-0.61,-2.11,2.62,1,0
16211.593,-0.271,0.114,0.941,-1.1,-1.98,2.14,1,0
16211.593,-0.273,0.11,0.944,-0.95,-1.37,1.37,1,0
16211.609,-0.289,0.117,0.95,-0.58,-0.7,1.22,1,0
16211.609,-0.293,0.119,0.957,-1.25,-0.98,1.86,1,0
16211.625,-0.282,0.113,0.957,-2.04,-1.92,2.47,1,0
16211.64,-0.276,0.111,0.955,-1.5,-2.41,2.69,1,0
16211.64,-0.277,0.115,0.948,-0.46,-2.5,2.72,1,0
16211.656,-0.279,0.119,0.948,-0.52,-2.38,2.9,1,0
16211.671,-0.282,0.118,0.953,-1.46,-2.2,3.42,1,0
16211.671,-0.279,0.114,0.956,-1.92,-1.98,4.12,1,0
16211.687,-0.27,0.107,0.95,-2.04,-1.89,4.46,1,0
16211.703,-0.265,0.096,0.951,-1.86,-1.65,3.88,1,0
16211.703,-0.261,0.09,0.95,-1.16,-1.53,3.14,1,0
16211.718,-0.254,0.089,0.949,-0.55,-1.4,2.41,1,0
16211.734,-0.252,0.089,0.952,-0.61,-1.46,1.37,1,0
16211.734,-0.256,0.09,0.958,-0.27,-1.68,0.34,1,0
16211.75,-0.263,0.1,0.963,0.37,-2.23,-0.46,1,0
16211.75,-0.263,0.107,0.964,0.31,-3.45,-1.28,1,0
16211.765,-0.261,0.112,0.96,-0.03,-4.27,-1.98,1,0
16211.781,-0.266,0.11,0.949,0.89,-4.61,-2.17,1,0
16211.781,-0.269,0.119,0.931,0.43,-4.73,-2.14,1,0
16211.796,-0.256,0.11,0.931,-1.46,-4.33,-2.26,1,0
16211.812,-0.259,0.105,0.937,-1.07,-2.81,-2.78,1,0
16211.812,-0.269,0.116,0.956,0.06,-1.71,-3.72,1,0
16211.828,-0.283,0.123,0.977,0.49,-2.32,-5.01,1,0
16211.843,-0.285,0.127,0.983,1.22,-4.21,-5.83,1,0
16211.843,-0.28,0.135,0.977,2.5,-6.13,-6.32,1,0
16211.859,-0.276,0.146,0.964,3.33,-7.29,-6.87,1,0
16211.875,-0.28,0.144,0.949,3.94,-7.66,-7.14,1,0
16211.875,-0.278,0.143,0.934,4.64,-6.96,-6.87,1,0
16211.89,-0.276,0.15,0.919,5.13,-5.25,-5.98,1,0
16211.89,-0.278,0.151,0.918,4.49,-3.3,-4.46,1,0
16211.906,-0.278,0.149,0.921,3.81,-1.59,-2.32,1,0
16211.921,-0.276,0.144,0.926,3.17,-0.24,-0.46,1,0
16211.921,-0.274,0.139,0.934,2.47,0.61,1.13,1,0
16211.937,-0.272,0.13,0.943,1.43,0.73,2.62,1,0
16211.953,-0.266,0.117,0.955,-0.31,0.52,3.81,1,0
16211.968,-0.262,0.108,0.967,-1.28,-0.12,4.21,1,0
16211.968,-0.255,0.1,0.971,-1.22,-1.04,3.91,1,0
16211.984,-0.249,0.093,0.971,-0.4,-2.2,2.84,1,0
16211.984,-0.247,0.091,0.969,1.22,-3.08,1.04,1,0
16212.0,-0.254,0.095,0.965,3.05,-3.85,-1.16,1,0
16212.015,-0.261,0.101,0.955,4.55,-4.33,-2.66,1,0
16212.015,-0.265,0.114,0.945,4.3,-4.61,-3.2,1,0
16212.031,-0.271,0.113,0.944,2.69,-4.36,-3.11,1,0
16212.046,-0.274,0.114,0.946,1.22,-3.72,-2.17,1,0
16212.046,-0.275,0.115,0.957,-0.12,-3.36,-1.22,1,0
16212.062,-0.274,0.116,0.969,-1.46,-3.91,-0.46,1,0
16212.062,-0.259,0.114,0.974,-1.98,-4.58,0.12,1,0
16212.078,-0.252,0.112,0.972,-0.98,-4.97,-0.12,1,0
16212.093,-0.256,0.117,0.966,-0.15,-4.97,-0.95,1,0
16212.093,-0.275,0.122,0.972,-0.06,-5.25,-1.31,1,0
16212.109,-0.27,0.12,0.966,-1.01,-6.47,-0.98,1,0
16212.125,-0.269,0.116,0.947,-1.46,-6.87,-0.43,1,0
16212.125,-0.267,0.117,0.926,-1.46,-5.77,0.24,1,0
16212.14,-0.263,0.123,0.914,-2.01,-3.6,0.76,1,0
16212.14,-0.267,0.126,0.911,-2.2,-0.55,1.31,1,0
16212.156,-0.268,0.135,0.919,-3.27,2.23,2.32,1,0
16212.171,-0.266,0.135,0.934,-5.43,4.03,3.66,1,0
16212.171,-0.259,0.126,0.952,-7.2,4.79,5.16,1,0
16212.187,-0.249,0.12,0.954,-7.84,4.94,5.74,1,0
16212.203,-0.244,0.113,0.957,-8.15,4.82,5.62,1,0
16212.203,-0.242,0.106,0.962,-8.67,4.49,5.04,1,0
16212.218,-0.229,0.097,0.963,-8.76,4.27,4.03,1,0
16212.234,-0.225,0.094,0.968,-7.48,4.46,2.41,1,0
16212.234,-0.234,0.101,0.976,-5.55,4.55,0.43,1,0
16212.25,-0.24,0.101,0.98,-4.7,3.48,-1.62,1,0
16212.265,-0.245,0.096,0.977,-3.54,2.08,-3.51,1,0
16212.265,-0.254,0.105,0.974,-2.99,1.16,-4.46,1,0
16212.281,-0.257,0.111,0.97,-3.05,-0.03,-4.82,1,0
16212.281,-0.259,0.115,0.967,-2.66,-1.07,-4.85,1,0
16212.296,-0.26,0.113,0.958,-2.62,-1.77,-4.61,1,0
16212.312,-0.257,0.11,0.953,-2.96,-2.29,-4.39,1,0
16212.312,-0.261,0.113,0.95,-3.05,-2.23,-4.24,1,0
16212.328,-0.263,0.112,0.945,-3.33,-2.08,-4.12,1,0
16212.343,-0.264,0.113,0.946,-3.14,-1.77,-4.7,1,0
16212.343,-0.276,0.117,0.954,-2.11,-1.34,-5.25,1,0
16212.359,-0.277,0.12,0.951,-1.46,-1.71,-5.25,1,0
16212.375,-0.273,0.118,0.941,-1.65,-1.89,-5.13,1,0
16212.375,-0.275,0.115,0.937,-1.89,-1.5,-4.85,1,0
16212.39,-0.28,0.115,0.938,-2.14,-0.55,-4.58,1,0
16212.39,-0.284,0.115,0.941,-2.29,0.18,-3.66,1,0
16212.406,-0.278,0.112,0.946,-2.66,0.61,-2.29,1,0
16212.421,-0.269,0.105,0.947,-2.75,1.1,-1.19,1,0
16212.421,-0.261,0.099,0.946,-2.9,1.83,-1.25,1,0
16212.437,-0.261,0.093,0.951,-3.11,1.86,-1.98,1,0
16212.453,-0.262,0.087,0.966,-2.69,1.13,-2.66,1,0
16212.453,-0.262,0.084,0.973,-2.17,0.34,-3.45,1,0
16212.468,-0.263,0.075,0.965,-1.68,0.06,-4.43,1,0
16212.484,-0.264,0.077,0.961,-1.16,0.09,-5.49,1,0
16212.484,-0.268,0.078,0.965,-0.31,0.58,-6.1,1,0
16212.5,-0.274,0.088,0.974,-0.03,0.98,-6.01,1,0
16212.5,-0.276,0.094,0.977,0.15,0.58,-5.46,1,0
16212.515,-0.278,0.093,0.977,0.27,0.21,-4.24,1,0
16212.531,-0.271,0.091,0.97,-0.15,-0.06,-3.02,1,0
16212.531,-0.263,0.082,0.967,-0.43,0.09,-2.2,1,0
16212.546,-0.273,0.081,0.982,-0.37,0.67,-1.65,1,0
16212.562,-0.279,0.081,0.992,-0.64,0.0,-1.01,1,0
16212.578,-0.275,0.073,0.989,-1.01,-1.62,-0.64,1,0
16212.578,-0.273,0.067,0.982,-0.7,-2.53,-0.49,1,0
16212.593,-0.28,0.067,0.974,-0.52,-3.14,-0.4,1,0
16212.593,-0.27,0.058,0.969,-1.77,-3.94,-0.49,1,0
16212.609,-0.254,0.047,0.958,-1.74,-3.97,-1.37,1,0
16212.625,-0.255,0.05,0.954,0.03,-2.84,-2.9,1,0
16212.625,-0.267,0.065,0.964,1.07,-2.17,-4.0,1,0
16212.64,-0.271,0.073,0.967,0.61,-2.62,-4.76,1,0
16212.64,-0.268,0.073,0.961,0.37,-2.96,-5.1,1,0
16212.656,-0.262,0.079,0.948,0.7,-2.56,-4.73,1,0
16212.671,-0.269,0.087,0.952,0.15,-1.68,-4.49,1,0
16212.671,-0.283,0.092,0.969,-1.07,-1.8,-4.36,1,0
16212.687,-0.276,0.089,0.962,-1.53,-3.08,-3.63,1,0
16212.703,-0.265,0.086,0.948,-1.13,-3.75,-3.3,1,0
16212.703,-0.26,0.084,0.941,-1.04,-3.69,-3.54,1,0
16212.718,-0.265,0.085,0.944,-0.73,-3.11,-4.06,1,0
16212.734,-0.274,0.094,0.942,0.4,-2.69,-4.12,1,0
16212.734,-0.275,0.1,0.933,0.24,-2.75,-3.51,1,0
16212.75,-0.264,0.095,0.921,-0.64,-2.29,-2.72,1,0
16212.75,-0.261,0.094,0.919,-1.04,-0.95,-1.92,1,0
16212.765,-0.266,0.1,0.93,-1.68,0.27,-1.43,1,0
16212.781,-0.264,0.1,0.94,-1.95,0.76,-1.01,1,0
16212.796,-0.263,0.103,0.943,-1.25,1.1,-0.76,1,0
16212.796,-0.268,0.109,0.945,-0.76,1.31,-0.21,1,0
16212.812,-0.266,0.108,0.947,-1.65,0.95,0.24,1,0
16212.812,-0.246,0.102,0.958,-2.32,0.61,0.49,1,0
16212.828,-0.231,0.106,0.974,-0.67,0.58,0.03,1,0
16212.843,-0.221,0.119,0.98,0.89,0.27,-0.89,1,0
16212.843,-0.226,0.127,0.987,0.79,-0.61,-1.46,1,0
16212.859,-0.242,0.126,0.987,0.49,-1.56,-0.92,1,0
16212.875,-0.253,0.129,0.97,0.27,-2.38,0.85,1,0
16212.875,-0.247,0.118,0.944,-0.61,-2.59,2.53,1,0
16212.89,-0.244,0.106,0.927,-1.34,-0.95,3.66,1,0
16212.89,-0.253,0.102,0.929,-1.16,1.5,4.55,1,0
16212.906,-0.265,0.098,0.945,-1.31,3.14,5.43,1,0
16212.921,-0.273,0.09,0.967,-1.37,3.2,6.16,1,0
16212.921,-0.282,0.09,0.973,-1.43,1.86,6.44,1,0
16212.937,-0.278,0.075,0.976,-2.35,-0.58,5.34,1,0
16212.953,-0.269,0.068,0.967,-1.16,-2.44,3.69,1,0
16212.953,-0.267,0.074,0.953,1.01,-2.72,1.95,1,0
16212.968,-0.273,0.085,0.946,1.74,-2.44,0.49,1,0
16212.984,-0.277,0.091,0.942,1.71,-1.92,0.18,1,0
16212.984,-0.277,0.09,0.946,1.62,-0.98,1.13,1,0
16213.0,-0.279,0.09,0.948,2.01,-0.21,2.32,1,0
16213.015,-0.276,0.091,0.949,1.43,-0.31,2.93,1,0
16213.015,-0.273,0.089,0.957,0.27,-0.49,3.27,1,0
16213.031,-0.273,0.088,0.958,-0.09,-0.46,3.85,1,0
16213.031,-0.272,0.084,0.959,-0.4,-0.79,4.27,1,0
16213.046,-0.27,0.079,0.959,-0.61,-0.85,4.49,1,0
16213.062,-0.265,0.078,0.964,-0.85,-0.7,4.52,1,0
16213.062,-0.267,0.071,0.966,-0.03,-0.52,3.97,1,0
16213.078,-0.265,0.072,0.959,0.73,-0.7,3.54,1,0
16213.093,-0.258,0.067,0.955,0.0,-1.04,2.78,1,0
16213.093,-0.255,0.064,0.952,-0.24,-1.01,1.83,1,0
16213.109,-0.254,0.068,0.95,0.37,-0.43,1.07,1,0
16213.125,-0.26,0.073,0.957,0.4,-0.18,0.43,1,0
16213.125,-0.27,0.081,0.967,0.27,-0.24,-0.03,1,0
16213.14,-0.272,0.088,0.965,0.61,-0.52,0.27,1,0
16213.14,-0.264,0.092,0.958,0.06,-0.92,0.55,1,0
16213.156,-0.264,0.091,0.964,-0.76,-0.79,0.58,1,0
16213.171,-0.266,0.092,0.965,-0.64,-0.55,0.85,1,0
16213.171,-0.261,0.094,0.962,-0.4,-0.55,0.85,1,0
16213.187,-0.26,0.095,0.965,-0.21,-0.89,0.89,1,0
16213.203,-0.263,0.097,0.963,-0.24,-1.19,1.04,1,0
16213.203,-0.265,0.096,0.963,-0.31,-1.31,1.16,1,0
16213.218,-0.273,0.1,0.959,-0.27,-1.46,1.46,1,0
16213.234,-0.268,0.097,0.952,-0.98,-1.65,2.11,1,0
16213.234,-0.265,0.093,0.947,-1.8,-1.22,2.47,1,0
16213.25,-0.267,0.091,0.952,-1.89,-0.4,2.62,1,0
16213.25,-0.264,0.089,0.956,-1.86,-0.15,2.93,1,0
16213.265,-0.256,0.085,0.955,-1.92,-0.24,2.69,1,0
16213.281,-0.252,0.082,0.958,-1.89,-0.4,1.95,1,0
16213.281,-0.257,0.083,0.962,-1.31,-0.46,1.04,1,0
16213.296,-0.264,0.091,0.962,-0.46,-0.4,0.49,1,0
16213.312,-0.267,0.092,0.959,-0.06,-0.49,0.21,1,0
16213.328,-0.268,0.094,0.963,-0.18,-0.55,0.0,1,0
16213.328,-0.275,0.098,0.969,-0.37,-0.79,0.06,1,0
16213.343,-0.276,0.099,0.972,-0.58,-1.53,0.49,1,0
16213.343,-0.268,0.102,0.964,-0.52,-2.38,1.07,1,0
16213.359,-0.267,0.097,0.955,-0.58,-2.69,1.5,1,0
16213.375,-0.27,0.095,0.953,-0.61,-2.17,2.08,1,0
16213.375,-0.268,0.096,0.949,-1.28,-1.56,3.05,1,0
16213.39,-0.268,0.084,0.95,-2.53,-1.01,3.51,1,0
16213.406,-0.267,0.078,0.957,-2.41,-0.7,3.6,1,0
16213.406,-0.264,0.079,0.961,-1.65,-0.82,2.01,1,0
16213.421,-0.263,0.077,0.966,-1.04,-1.28,1.19,1,0
16213.421,-0.265,0.079,0.972,-0.27,-1.92,0.64,1,0
16213.437,-0.267,0.087,0.969,0.12,-2.59,0.61,1,0
16213.453,-0.267,0.091,0.957,0.4,-3.05,0.73,1,0
16213.453,-0.267,0.087,0.948,0.31,-2.84,1.19,1,0
16213.468,-0.267,0.084,0.944,-0.24,-2.2,1.62,1,0
16213.484,-0.266,0.08,0.947,-0.64,-1.34,1.83,1,0
16213.484,-0.263,0.08,0.949,-0.7,-0.58,1.65,1,0
16213.5,-0.276,0.078,0.957,-0.67,-0.18,1.46,1,0
16213.515,-0.275,0.082,0.963,-1.04,-0.64,1.83,1,0
16213.515,-0.261,0.079,0.962,-1.71,-1.59,1.71,1,0
16213.531,-0.261,0.078,0.96,-0.92,-1.68,0.85,1,0
16213.531,-0.272,0.085,0.962,0.92,-1.59,0.31,1,0
16213.546,-0.274,0.099,0.963,0.79,-2.11,0.73,1,0
16213.562,-0.266,0.097,0.961,-0.89,-3.08,1.62,1,0
16213.562,-0.263,0.091,0.951,-1.62,-3.11,2.41,1,0
16213.578,-0.262,0.088,0.942,-1.25,-2.23,3.02,1,0
16213.593,-0.257,0.086,0.94,-1.28,-1.16,3.08,1,0
16213.593,-0.255,0.079,0.943,-1.92,-0.12,2.38,1,0
16213.609,-0.26,0.073,0.948,-2.23,0.85,1.77,1,0
16213.625,-0.264,0.073,0.956,-1.98,1.37,0.95,1,0
16213.625,-0.27,0.076,0.965,-1.5,1.25,0.21,1,0
16213.64,-0.267,0.079,0.972,-1.4,0.18,-0.34,1,0
16213.64,-0.265,0.074,0.97,-0.79,-0.92,-1.04,1,0
16213.656,-0.27,0.083,0.962,0.0,-1.68,-1.22,1,0
16213.671,-0.264,0.089,0.956,-0.21,-2.17,-1.22,1,0
16213.671,-0.255,0.09,0.951,-0.67,-2.01,-1.01,1,0
16213.687,-0.259,0.092,0.95,-0.27,-1.5,-0.82,1,0
16213.703,-0.27,0.098,0.956,-0.03,-0.85,-0.49,1,0
16213.703,-0.273,0.102,0.963,-0.27,-0.85,0.06,1,0
16213.718,-0.27,0.1,0.962,-0.92,-1.25,0.95,1,0
16213.734,-0.267,0.092,0.956,-1.37,-1.4,1.53,1,0
16213.734,-0.26,0.087,0.953,-1.22,-1.16,1.77,1,0
16213.75,-0.258,0.083,0.955,-1.1,-0.85,1.62,1,0
16213.765,-0.263,0.08,0.96,-1.19,-1.01,1.31,1,0
16213.765,-0.269,0.077,0.956,-1.04,-1.34,0.92,1,0
16213.781,-0.271,0.074,0.954,-0.7,-1.68,0.31,1,0
16213.781,-0.269,0.076,0.951,0.03,-1.56,-0.18,1,0
16213.796,-0.268,0.081,0.947,0.58,-1.01,-0.46,1,0
16213.812,-0.269,0.083,0.944,0.09,-0.46,-0.89,1,0
16213.812,-0.268,0.085,0.952,-0.55,-0.06,-0.92,1,0
16213.828,-0.264,0.084,0.956,-0.4,0.27,-0.73,1,0
16213.843,-0.256,0.085,0.953,-0.27,0.49,-0.79,1,0
16213.843,-0.263,0.087,0.962,-0.09,0.89,-1.19,1,0
16213.859,-0.277,0.092,0.972,0.06,0.4,-1.5,1,0
16213.859,-0.273,0.091,0.971,0.37,-1.04,-1.1,1,0
16213.875,-0.265,0.089,0.953,0.89,-1.68,-0.61,1,0
16213.89,-0.259,0.087,0.938,0.27,-1.31,-0.31,1,0
16213.89,-0.263,0.086,0.941,-0.89,-0.24,0.0,1,0
16213.906,-0.268,0.085,0.95,-1.25,0.82,0.37,1,0
16213.921,-0.264,0.082,0.954,-1.34,0.98,0.7,1,0
16213.921,-0.259,0.079,0.955,-1.43,0.89,0.67,1,0
16213.937,-0.263,0.079,0.957,-0.98,0.98,0.37,1,0
16213.953,-0.263,0.082,0.959,-0.58,0.76,-0.03,1,0
16213.953,-0.262,0.079,0.957,-0.64,0.4,-0.37,1,0
16213.968,-0.26,0.075,0.954,-0.64,0.52,-0.73,1,0
16213.984,-0.265,0.079,0.953,-0.12,1.13,-1.37,1,0
16213.984,-0.272,0.083,0.955,0.27,1.31,-1.62,1,0
16214.0,-0.275,0.085,0.958,0.37,1.37,-1.59,1,0
16214.0,-0.277,0.097,0.958,0.27,1.43,-0.85,1,0
16214.015,-0.272,0.095,0.963,-0.73,0.98,-0.34,1,0
16214.031,-0.271,0.092,0.97,-0.92,0.73,0.27,1,0
16214.031,-0.261,0.094,0.966,-0.55,-0.09,1.07,1,0
16214.046,-0.257,0.091,0.959,-0.58,-0.61,1.04,1,0
16214.062,-0.261,0.086,0.955,-0.49,-0.58,0.49,1,0
16214.078,-0.275,0.089,0.959,0.37,-0.24,0.15,1,0
16214.078,-0.28,0.095,0.964,0.31,-0.58,0.64,1,0
16214.093,-0.272,0.093,0.96,-0.67,-1.53,1.43,1,0
16214.093,-0.267,0.081,0.959,-1.1,-1.86,1.83,1,0
16214.109,-0.267,0.075,0.952,-0.64,-1.68,1.92,1,0
16214.125,-0.256,0.073,0.947,-0.09,-1.43,1.28,1,0
16214.125,-0.254,0.07,0.946,0.31,-0.7,0.12,1,0
16214.14,-0.262,0.073,0.952,0.82,0.12,-1.1,1,0
16214.156,-0.275,0.078,0.961,1.22,0.12,-1.77,1,0
16214.156,-0.273,0.083,0.959,0.79,-0.76,-1.98,1,0
16214.171,-0.265,0.082,0.954,0.89,-1.37,-2.11,1,0
16214.171,-0.267,0.083,0.953,1.86,-1.25,-2.23,1,0
16214.187,-0.275,0.092,0.952,2.38,-0.95,-2.35,1,0
16214.203,-0.276,0.095,0.949,2.23,-0.92,-2.01,1,0
16214.203,-0.273,0.095,0.949,1.71,-0.64,-1.37,1,0
16214.218,-0.275,0.095,0.949,1.01,-0.15,-0.64,1,0
16214.234,-0.277,0.092,0.945,0.55,0.24,-0.03,1,0
16214.234,-0.272,0.088,0.945,-0.03,0.7,0.34,1,0
16214.25,-0.27,0.086,0.946,-0.18,1.34,0.49,1,0
16214.265,-0.27,0.088,0.954,-0.15,1.98,0.49,1,0
16214.265,-0.285,0.092,0.966,0.0,2.2,0.46,1,0
16214.281,-0.282,0.09,0.968,-0.27,1.16,0.73,1,0
16214.281,-0.269,0.084,0.963,-0.7,0.0,1.13,1,0
16214.296,-0.267,0.081,0.965,-0.37,-0.12,0.76,1,0
16214.312,-0.28,0.082,0.962,0.61,0.03,0.64,1,0
16214.312,-0.276,0.081,0.955,0.31,-0.4,0.95,1,0
16214.328,-0.265,0.076,0.95,-0.64,-0.52,0.61,1,0
16214.343,-0.266,0.076,0.959,-0.73,0.09,0.4,1,0
16214.343,-0.271,0.079,0.964,0.06,0.37,0.21,1,0
16214.359,-0.268,0.084,0.96,0.58,-0.09,-0.12,1,0
16214.375,-0.267,0.083,0.957,0.55,-0.31,-0.49,1,0
16214.375,-0.27,0.083,0.963,0.18,-0.49,-0.58,1,0
16214.39,-0.278,0.084,0.959,0.27,-0.64,-0.34,1,0
16214.39,-0.272,0.084,0.95,0.06,-0.46,0.37,1,0
16214.406,-0.269,0.082,0.95,-0.06,0.0,0.79,1,0
16214.421,-0.275,0.081,0.953,-0.37,0.12,1.37,1,0
16214.421,-0.274,0.083,0.962,-0.79,-0.15,1.56,1,0
16214.437,-0.27,0.08,0.963,-1.28,-0.46,1.86,1,0
16214.453,-0.271,0.078,0.963,-1.56,-0.73,1.95,1,0
16214.453,-0.275,0.074,0.964,-1.16,-0.98,1.62,1,0
16214.468,-0.272,0.075,0.96,-0.92,-1.34,1.31,1,0
16214.484,-0.266,0.074,0.962,-1.04,-1.59,0.61,1,0
16214.484,-0.268,0.076,0.96,-0.21,-1.53,-0.09,1,0
16214.5,-0.273,0.082,0.957,0.31,-1.65,-0.64,1,0
16214.515,-0.276,0.082,0.96,-0.24,-1.68,-0.76,1,0
16214.515,-0.276,0.082,0.957,-0.46,-1.8,-0.55,1,0
16214.531,-0.27,0.08,0.954,-0.06,-1.89,-0.49,1,0
16214.531,-0.265,0.079,0.95,0.24,-1.46,-0.82,1,0
16214.546,-0.269,0.083,0.95,0.31,-0.98,-0.89,1,0
16214.562,-0.274,0.085,0.951,-0.18,-0.98,-0.67,1,0
16214.562,-0.272,0.083,0.949,-0.73,-1.22,-0.55,1,0
16214.578,-0.271,0.082,0.947,-0.61,-0.89,-0.76,1,0
16214.593,-0.28,0.087,0.943,0.15,-0.37,-1.07,1,0
16214.609,-0.282,0.09,0.945,0.06,0.24,-0.92,1,0
16214.609,-0.287,0.086,0.951,-1.04,0.79,-0.49,1,0
16214.625,-0.286,0.084,0.956,-1.65,0.7,0.06,1,0
16214.625,-0.281,0.082,0.955,-1.46,0.34,0.55,1,0
16214.64,-0.271,0.08,0.956,-1.43,-0.03,0.34,1,0
16214.64,-0.267,0.081,0.955,-1.01,-0.15,-0.37,1,0
16214.656,-0.271,0.083,0.958,0.12,0.12,-1.1,1,0
16214.671,-0.278,0.089,0.954,0.85,0.21,-1.5,1,0
16214.687,-0.278,0.091,0.95,0.31,0.09,-1.25,1,0
16214.687,-0.278,0.088,0.949,-0.06,0.15,-0.95,1,0
16214.703,-0.279,0.092,0.952,-0.27,0.4,-0.43,1,0
16214.703,-0.274,0.091,0.952,-0.55,0.46,0.06,1,0
16214.718,-0.267,0.086,0.953,-0.64,0.55,0.03,1,0
16214.734,-0.266,0.086,0.958,0.0,0.82,-0.09,1,0
16214.734,-0.268,0.088,0.957,0.67,0.82,-0.24,1,0
16214.75,-0.272,0.086,0.96,0.15,0.58,-0.31,1,0
16214.765,-0.277,0.081,0.964,-0.06,0.15,-0.15,1,0
16214.765,-0.276,0.081,0.961,0.31,-0.24,0.06,1,0
16214.781,-0.275,0.081,0.96,0.31,-0.61,-0.12,1,0
16214.781,-0.276,0.078,0.963,0.21,-0.89,-0.46,1,0
16214.796,-0.276,0.078,0.965,0.55,-0.95,-0.61,1,0
16214.812,-0.275,0.083,0.964,0.98,-1.07,-0.67,1,0
16214.812,-0.272,0.084,0.965,0.55,-1.34,-0.85,1,0
16214.828,-0.274,0.08,0.963,0.43,-1.8,-0.76,1,0
16214.843,-0.271,0.078,0.956,0.95,-2.08,-0.76,1,0
16214.843,-0.272,0.079,0.949,1.34,-1.68,-1.1,1,0
16214.859,-0.28,0.082,0.947,1.37,-1.07,-1.22,1,0
16214.875,-0.285,0.085,0.951,1.04,-0.46,-1.01,1,0
16214.875,-0.28,0.084,0.95,0.37,-0.21,-0.24,1,0
16214.89,-0.274,0.079,0.952,-0.27,0.21,0.4,1,0
16214.906,-0.283,0.073,0.962,-0.61,0.27,0.76,1,0
16214.906,-0.279,0.072,0.965,-0.43,-0.24,1.04,1,0
16214.921,-0.269,0.065,0.959,-0.18,-0.79,0.73,1,0
16214.921,-0.274,0.061,0.968,-0.21,-1.01,-0.37,1,0
16214.937,-0.27,0.068,0.939,0.37,-1.19,-1.43,1,0
16214.953,-0.277,0.073,0.963,1.28,-0.4,-1.25,1,0
16214.953,-0.281,0.078,0.958,1.04,-0.85,-1.65,1,0
16214.968,-0.266,0.084,0.964,0.24,-1.68,-1.53,1,0
16214.984,-0.263,0.09,0.953,0.79,-1.71,-1.53,1,0
16214.984,-0.27,0.092,0.956,0.64,-1.37,-1.5,1,0
16215.0,-0.278,0.092,0.961,0.46,-1.34,-1.07,1,0
16215.015,-0.28,0.095,0.957,0.06,-1.56,-0.43,1,0
16215.015,-0.273,0.092,0.957,-0.34,-1.89,0.06,1,0
16215.031,-0.275,0.086,0.952,-0.37,-1.95,0.0,1,0
16215.031,-0.278,0.084,0.955,-0.06,-1.83,-0.03,1,0
16215.046,-0.27,0.088,0.949,0.34,-1.77,-0.4,1,0
16215.062,-0.268,0.088,0.947,0.09,-1.37,-0.67,1,0
16215.062,-0.269,0.086,0.949,0.03,-0.73,-0.73,1,0
16215.078,-0.273,0.088,0.953,0.21,0.03,-0.89,1,0
16215.093,-0.276,0.088,0.955,0.34,0.27,-1.16,1,0
16215.093,-0.277,0.09,0.966,0.31,-0.06,-1.07,1,0
16215.109,-0.285,0.088,0.965,0.89,-0.95,-0.89,1,0
16215.125,-0.282,0.091,0.955,1.56,-1.92,-0.49,1,0
16215.125,-0.274,0.091,0.945,1.19,-2.35,-0.09,1,0
16215.14,-0.281,0.087,0.943,0.46,-1.89,-0.12,1,0
16215.14,-0.284,0.085,0.948,0.15,-1.68,0.15,1,0
16215.156,-0.279,0.085,0.944,0.27,-1.46,0.31,1,0
16215.171,-0.278,0.086,0.945,0.37,-1.04,0.0,1,0
16215.171,-0.282,0.09,0.949,0.43,-0.73,-0.24,1,0
16215.187,-0.281,0.093,0.952,0.55,-0.7,-0.21,1,0
16215.203,-0.279,0.096,0.952,0.37,-0.61,0.12,1,0
16215.203,-0.28,0.093,0.953,-0.34,-0.46,0.61,1,0
16215.218,-0.281,0.09,0.958,-0.49,-0.4,1.34,1,0
16215.234,-0.281,0.087,0.959,-0.09,-0.46,1.8,1,0
16215.234,-0.281,0.079,0.957,0.0,-0.79,1.98,1,0
16215.25,-0.276,0.073,0.954,-0.4,-1.1,1.71,1,0
16215.265,-0.27,0.066,0.949,-0.12,-0.92,0.98,1,0
16215.265,-0.27,0.059,0.943,0.21,-0.4,-0.18,1,0
16215.281,-0.268,0.055,0.944,0.4,0.15,-1.68,1,0
16215.281,-0.272,0.06,0.95,0.92,0.76,-3.17,1,0
16215.296,-0.279,0.069,0.955,1.43,1.19,-4.15,1,0
16215.312,-0.281,0.078,0.959,1.4,1.19,-4.24,1,0
16215.312,-0.283,0.088,0.965,0.95,0.89,-3.91,1,0
16215.328,-0.285,0.088,0.961,0.43,0.34,-3.14,1,0
16215.343,-0.278,0.097,0.961,0.34,0.15,-1.83,1,0
16215.359,-0.282,0.105,0.963,-0.12,0.0,-0.58,1,0
16215.359,-0.281,0.1,0.966,-0.58,-0.49,0.7,1,0
16215.359,-0.279,0.095,0.957,-0.27,-1.16,2.04,1,0
16215.375,-0.275,0.089,0.951,-1.46,-1.22,2.53,1,0
16215.39,-0.276,0.079,0.953,-1.4,-0.73,1.95,1,0
16215.39,-0.283,0.072,0.958,-1.83,-0.85,1.34,1,0
16215.406,-0.281,0.067,0.963,-2.44,-1.46,0.52,1,0
16215.421,-0.271,0.058,0.952,-0.67,-1.37,-0.61,1,0
16215.437,-0.269,0.067,0.951,0.18,-1.43,-2.14,1,0
16215.437,-0.275,0.074,0.954,1.16,-1.34,-3.36,1,0
16215.453,-0.286,0.087,0.954,1.5,-1.34,-4.18,1,0
16215.453,-0.292,0.101,0.954,1.53,-1.53,-4.0,1,0
16215.468,-0.288,0.11,0.95,0.89,-1.43,-2.87,1,0
16215.484,-0.285,0.113,0.948,-0.09,-1.1,-1.25,1,0
16215.484,-0.287,0.109,0.956,-1.19,-0.61,0.73,1,0
16215.5,-0.283,0.096,0.96,-2.04,-0.55,2.35,1,0
16215.515,-0.281,0.083,0.963,-2.14,-0.67,2.84,1,0
16215.515,-0.278,0.076,0.969,-1.83,-1.37,2.23,1,0
16215.531,-0.275,0.067,0.972,-1.31,-2.72,0.67,1,0
16215.531,-0.269,0.063,0.966,-0.31,-3.94,-1.43,1,0
16215.546,-0.269,0.07,0.959,1.07,-4.43,-3.66,1,0
16215.562,-0.274,0.078,0.954,2.04,-4.49,-5.16,1,0
16215.562,-0.276,0.084,0.947,1.89,-4.43,-5.62,1,0
16215.578,-0.275,0.09,0.947,0.79,-4.24,-5.34,1,0
16215.593,-0.276,0.082,0.954,-0.49,-4.09,-5.04,1,0
16215.593,-0.274,0.083,0.96,-0.85,-4.15,-5.46,1,0
16215.609,-0.279,0.083,0.96,-1.07,-4.64,-5.52,1,0
16215.609,-0.271,0.086,0.962,-1.59,-5.37,-5.01,1,0
16215.625,-0.271,0.095,0.981,-1.74,-5.98,-4.55,1,0
16215.64,-0.265,0.082,0.936,-0.61,-6.53,-4.27,1,0
16215.656,-0.265,0.104,0.963,0.09,-5.1,-3.39,1,0
16215.656,-0.269,0.09,0.955,0.43,-5.13,-3.11,1,0
16215.671,-0.272,0.101,0.957,-1.04,-5.04,-1.89,1,0
16215.671,-0.267,0.09,0.966,-3.51,-5.37,-0.95,1,0
16215.687,-0.273,0.074,0.978,-4.0,-5.89,-0.03,1,0
16215.703,-0.255,0.07,0.974,-3.02,-6.47,0.61,1,0
16215.703,-0.257,0.068,0.989,-2.26,-7.51,0.03,1,0
16215.718,-0.25,0.056,0.967,-1.04,-8.18,-0.89,1,0
16215.734,-0.258,0.069,0.981,-0.15,-8.39,-1.92,1,0
16215.734,-0.263,0.052,0.972,0.58,-9.92,-3.57,1,0
16215.75,-0.256,0.061,0.96,1.34,-10.83,-4.33,1,0
16215.765,-0.253,0.064,0.95,1.98,-10.86,-5.19,1,0
16215.765,-0.259,0.071,0.929,3.14,-9.92,-5.16,1,0
16215.781,-0.264,0.086,0.934,3.57,-8.91,-4.12,1,0
16215.781,-0.263,0.082,0.933,2.93,-8.09,-3.48,1,0
16215.796,-0.261,0.083,0.93,2.29,-6.74,-2.38,1,0
16215.812,-0.261,0.085,0.932,1.68,-5.01,-1.1,1,0
16215.812,-0.269,0.087,0.945,0.98,-3.54,0.37,1,0
16215.828,-0.265,0.084,0.956,-0.15,-3.2,1.5,1,0
16215.843,-0.258,0.08,0.957,-0.64,-3.05,1.98,1,0
16215.843,-0.256,0.083,0.956,-0.67,-2.99,2.29,1,0
16215.859,-0.253,0.083,0.954,-1.07,-3.17,2.32,1,0
16215.875,-0.253,0.078,0.941,-1.19,-2.87,1.8,1,0
16215.875,-0.264,0.081,0.94,-0.64,-1.4,1.34,1,0
16215.89,-0.271,0.088,0.939,-0.21,-0.27,1.74,1,0
16215.89,-0.269,0.09,0.938,-0.79,0.76,2.44,1,0
16215.906,-0.264,0.084,0.938,-1.92,2.08,3.08,1,0
16215.921,-0.262,0.084,0.948,-2.32,3.81,3.94,1,0
16215.921,-0.259,0.084,0.963,-3.42,5.07,4.46,1,0
16215.937,-0.263,0.077,0.985,-4.18,5.31,4.36,1,0
16215.953,-0.266,0.074,0.995,-3.36,4.76,4.09,1,0
16215.953,-0.271,0.073,1.002,-2.87,3.75,3.66,1,0
16215.968,-0.259,0.068,0.997,-3.6,1.71,3.08,1,0
16215.984,-0.233,0.062,0.983,-3.69,0.73,1.83,1,0
16215.984,-0.237,0.057,0.98,-2.47,1.43,0.12,1,0
16216.0,-0.246,0.067,0.986,-0.92,1.8,-1.16,1,0
16216.015,-0.25,0.074,0.985,-0.21,1.25,-1.65,1,0
16216.015,-0.249,0.073,0.981,-0.67,0.34,-1.31,1,0
16216.031,-0.246,0.071,0.97,-1.62,-0.31,-0.64,1,0
16216.031,-0.243,0.062,0.964,-2.29,-0.82,-0.79,1,0
16216.046,-0.244,0.056,0.965,-1.95,-0.76,-1.68,1,0
16216.062,-0.243,0.057,0.955,-0.49,-0.61,-2.99,1,0
16216.062,-0.247,0.064,0.955,0.03,-0.31,-4.46,1,0
16216.078,-0.258,0.069,0.96,0.12,-0.27,-5.49,1,0
16216.093,-0.266,0.074,0.964,0.46,-0.76,-5.8,1,0
16216.109,-0.264,0.084,0.959,0.89,-1.5,-5.49,1,0
16216.109,-0.259,0.089,0.948,0.67,-1.74,-4.94,1,0
16216.125,-0.26,0.084,0.947,0.4,-1.28,-4.67,1,0
16216.125,-0.266,0.091,0.955,0.4,-0.89,-4.43,1,0
16216.14,-0.271,0.097,0.96,0.85,-1.01,-3.85,1,0
16216.14,-0.271,0.09,0.968,1.25,-1.43,-3.33,1,0
16216.156,-0.269,0.093,0.968,2.14,-2.04,-3.14,1,0
16216.171,-0.272,0.092,0.965,2.72,-2.53,-2.56,1,0
16216.187,-0.272,0.098,0.97,2.9,-3.27,-1.8,1,0
16216.187,-0.27,0.101,0.99,3.51,-4.18,-1.31,1,0
16216.203,-0.274,0.105,0.982,4.43,-5.25,-0.58,1,0
16216.203,-0.28,0.108,0.976,7.17,-5.89,0.98,1,0
16216.218,-0.291,0.112,0.992,11.93,-6.68,3.69,1,0
16216.234,-0.28,0.124,0.968,12.05,-8.58,6.62,1,0
16216.234,-0.268,0.106,0.945,9.92,-9.52,9.74,1,0
16216.25,-0.257,0.103,0.912,8.48,-8.27,12.67,1,0
16216.25,-0.257,0.099,0.913,5.16,-6.68,14.44,1,0
16216.265,-0.24,0.093,0.922,0.92,-5.46,14.71,1,0
16216.281,-0.228,0.068,0.911,-0.95,-3.17,14.22,1,0
16216.281,-0.223,0.062,0.933,-0.64,-0.73,13.03,1,0
16216.296,-0.22,0.059,0.932,-0.98,0.52,10.28,1,0
16216.312,-0.226,0.05,0.939,-2.26,1.62,7.45,1,0
16216.312,-0.231,0.04,0.948,-3.2,2.11,4.82,1,0
16216.328,-0.231,0.045,0.944,-3.2,3.05,2.26,1,0
16216.343,-0.24,0.052,0.949,-2.62,4.33,0.09,1,0
16216.343,-0.248,0.065,0.962,-2.04,5.25,-0.95,1,0
16216.359,-0.253,0.078,0.982,-1.34,4.12,-0.34,1,0
16216.375,-0.261,0.082,0.995,-0.89,2.35,0.79,1,0
16216.375,-0.247,0.086,0.985,-1.13,1.34,1.31,1,0
16216.39,-0.234,0.086,0.975,-1.83,1.13,1.28,1,0
16216.39,-0.247,0.084,0.978,-2.32,0.27,1.1,1,0
16216.406,-0.244,0.079,0.966,-2.17,-0.06,1.01,1,0
16216.421,-0.24,0.074,0.952,-2.04,0.31,0.98,1,0
16216.421,-0.243,0.072,0.95,-2.93,1.25,0.46,1,0
16216.437,-0.25,0.07,0.958,-4.27,1.98,-0.24,1,0
16216.453,-0.255,0.068,0.966,-4.97,2.26,-1.07,1,0
16216.453,-0.257,0.07,0.97,-4.49,2.11,-1.56,1,0
16216.468,-0.255,0.075,0.965,-4.03,1.62,-2.08,1,0
16216.484,-0.25,0.068,0.954,-3.66,1.13,-2.9,1,0
16216.484,-0.247,0.071,0.952,-3.05,1.5,-4.03,1,0
16216.5,-0.262,0.079,0.962,-2.5,1.92,-4.91,1,0
16216.515,-0.279,0.082,0.969,-1.95,1.5,-5.04,1,0
16216.515,-0.275,0.089,0.973,-2.14,0.4,-4.12,1,0
16216.531,-0.272,0.087,0.963,-1.83,-0.95,-3.48,1,0
16216.531,-0.267,0.087,0.954,-0.89,-1.28,-3.02,1,0
16216.546,-0.268,0.091,0.946,-0.61,-0.85,-2.59,1,0
16216.562,-0.268,0.087,0.941,-1.13,-0.4,-1.98,1,0
16216.562,-0.263,0.081,0.937,-1.89,0.21,-1.22,1,0
16216.578,-0.26,0.078,0.933,-2.56,1.25,-0.85,1,0
16216.593,-0.256,0.074,0.929,-3.36,2.32,-1.25,1,0
16216.593,-0.259,0.071,0.929,-4.64,3.48,-2.17,1,0
16216.609,-0.263,0.069,0.948,-5.37,4.43,-3.14,1,0
16216.625,-0.275,0.064,0.972,-3.97,4.7,-3.6,1,0
16216.625,-0.274,0.069,0.965,-2.47,3.91,-3.48,1,0
16216.64,-0.275,0.068,0.953,-2.01,2.93,-3.42,1,0
16216.64,-0.269,0.063,0.947,-2.29,2.04,-3.63,1,0
16216.656,-0.258,0.055,0.939,-2.59,2.2,-4.21,1,0
16216.671,-0.258,0.056,0.922,-4.03,3.05,-5.22,1,0
16216.687,-0.254,0.05,0.904,-5.37,4.91,-5.92,1,0
16216.687,-0.255,0.053,0.914,-7.05,6.93,-6.93,1,0
16216.703,-0.275,0.058,0.955,-8.33,8.24,-8.15,1,0
16216.703,-0.298,0.064,1.01,-6.81,8.06,-8.55,1,0
16216.718,-0.3,0.07,1.006,-3.57,5.92,-7.97,1,0
16216.734,-0.295,0.073,1.004,-3.39,3.11,-6.04,1,0
16216.734,-0.279,0.074,0.983,-3.39,0.98,-4.33,1,0
16216.75,-0.262,0.077,0.951,-3.57,0.76,-3.54,1,0
16216.765,-0.253,0.073,0.947,-4.3,1.59,-2.84,1,0
16216.765,-0.248,0.069,0.935,-4.3,3.69,-2.62,1,0
16216.781,-0.242,0.075,0.928,-6.01,6.78,-2.9,1,0
16216.781,-0.235,0.055,0.913,-8.33,10.07,-3.88,1,0
16216.796,-0.238,0.053,0.909,-10.25,14.16,-5.25,1,0
16216.812,-0.235,0.031,0.901,-10.9,18.49,-7.54,1,0
16216.828,-0.26,0.013,0.92,-11.93,22.71,-10.25,1,0
16216.828,-0.297,0.015,0.961,-11.11,24.96,-12.54,1,0
16216.843,-0.352,0.023,1.039,-6.93,23.65,-13.21,1,0
16216.843,-0.379,0.026,1.069,1.31,17.91,-11.17,1,0
16216.859,-0.353,0.055,1.049,8.09,10.38,-7.32,1,0
16216.875,-0.336,0.08,1.033,9.64,3.78,-4.82,1,0
16216.875,-0.323,0.079,1.003,8.97,-1.77,-3.36,1,0
16216.89,-0.301,0.086,0.976,8.76,-4.79,-1.53,1,0
16216.89,-0.292,0.086,0.942,9.67,-4.94,0.15,1,0
16216.906,-0.291,0.084,0.923,8.39,-3.39,1.71,1,0
16216.921,-0.301,0.078,0.909,5.8,-1.19,3.14,1,0
16216.937,-0.31,0.063,0.926,2.56,0.64,4.7,1,0
16216.937,-0.318,0.043,0.945,1.56,1.43,5.77,1,0
16216.953,-0.309,0.034,0.94,1.65,0.95,5.95,1,0
16216.953,-0.3,0.031,0.948,2.44,0.52,5.07,1,0
16216.968,-0.305,0.032,0.944,4.18,0.06,2.75,1,0
16216.984,-0.31,0.043,0.946,5.04,-0.79,1.04,1,0
16216.984,-0.304,0.049,0.947,5.43,-1.95,0.15,1,0
16217.0,-0.305,0.058,0.941,5.16,-2.59,-0.49,1,0
16217.015,-0.309,0.06,0.933,4.24,-2.93,-0.61,1,0
16217.015,-0.307,0.07,0.944,3.02,-3.27,-0.18,1,0
16217.031,-0.308,0.073,0.946,2.66,-3.72,0.15,1,0
16217.031,-0.304,0.079,0.948,2.44,-3.81,1.4,1,0
16217.046,-0.302,0.087,0.947,2.5,-3.69,2.78,1,0
16217.062,-0.3,0.086,0.943,1.86,-3.54,4.3,1,0
16217.062,-0.29,0.082,0.948,0.0,-3.51,5.68,1,0
16217.078,-0.291,0.07,0.946,-0.37,-2.84,6.23,1,0
16217.093,-0.289,0.067,0.939,-0.79,-1.89,6.74,1,0
16217.093,-0.283,0.06,0.942,-1.95,-1.25,6.47,1,0
16217.109,-0.283,0.051,0.951,-2.53,-0.85,5.16,1,0
16217.125,-0.288,0.049,0.959,-2.2,-0.34,3.63,1,0
16217.125,-0.293,0.047,0.964,-1.59,-0.52,2.14,1,0
16217.14,-0.303,0.053,0.977,-1.13,-1.53,1.07,1,0
16217.14,-0.313,0.06,0.982,-0.43,-3.36,0.89,1,0
16217.156,-0.289,0.06,0.968,-1.01,-5.83,1.4,1,0
16217.171,-0.269,0.052,0.951,-1.28,-6.78,0.73,1,0
16217.171,-0.274,0.048,0.937,0.15,-5.4,-0.49,1,0
16217.187,-0.288,0.06,0.926,2.01,-2.96,-1.31,1,0
16217.203,-0.296,0.07,0.923,2.04,-0.85,-1.34,1,0
16217.203,-0.306,0.076,0.935,0.12,0.76,-0.64,1,0
16217.218,-0.316,0.074,0.954,-2.08,0.95,0.98,1,0
16217.234,-0.312,0.069,0.963,-3.94,-0.03,2.62,1,0
16217.234,-0.3,0.057,0.969,-4.76,-1.5,3.14,1,0
16217.25,-0.295,0.047,0.963,-4.27,-2.78,2.56,1,0
16217.25,-0.289,0.048,0.958,-3.3,-3.42,1.5,1,0
16217.265,-0.284,0.043,0.944,-1.89,-3.54,0.12,1,0
16217.281,-0.285,0.052,0.935,-1.34,-2.47,-1.31,1,0
16217.281,-0.29,0.052,0.935,-1.34,-1.19,-2.14,1,0
16217.296,-0.295,0.061,0.938,-1.59,0.09,-2.08,1,0
16217.312,-0.301,0.06,0.956,-2.35,0.64,-1.8,1,0
16217.312,-0.317,0.057,0.968,-1.65,0.37,-1.19,1,0
16217.328,-0.314,0.062,0.977,-1.43,-1.62,-0.15,1,0
16217.343,-0.298,0.057,0.973,-2.08,-4.21,0.21,1,0
16217.343,-0.291,0.057,0.974,-1.04,-7.39,-0.49,1,0
16217.359,-0.29,0.057,0.968,-0.67,-8.3,-1.22,1,0
16217.375,-0.284,0.061,0.962,0.15,-8.58,-1.92,1,0
16217.375,-0.286,0.062,0.95,1.89,-7.9,-1.74,1,0
16217.39,-0.28,0.071,0.936,1.4,-6.99,-1.71,1,0
16217.406,-0.274,0.057,0.928,1.31,-4.73,-1.5,1,0
16217.406,-0.273,0.067,0.927,0.79,-1.8,-1.31,1,0
16217.421,-0.283,0.062,0.936,0.09,0.24,-1.1,1,0
16217.421,-0.29,0.062,0.953,-1.25,0.95,-0.7,1,0
16217.437,-0.29,0.056,0.963,-1.65,0.55,-0.27,1,0
16217.453,-0.292,0.049,0.961,-0.98,-0.06,-0.34,1,0
16217.468,-0.29,0.041,0.953,-0.09,-0.58,-0.79,1,0
16217.468,-0.286,0.043,0.944,0.27,-0.92,-1.59,1,0
16217.484,-0.279,0.039,0.935,-0.12,-0.58,-2.84,1,0
16217.484,-0.278,0.037,0.928,-0.64,0.61,-4.12,1,0
16217.5,-0.281,0.039,0.925,-1.46,2.17,-5.28,1,0
16217.515,-0.283,0.04,0.929,-2.78,3.51,-6.2,1,0
16217.515,-0.296,0.048,0.953,-3.51,4.49,-6.78,1,0
16217.531,-0.31,0.054,0.968,-1.95,4.76,-6.38,1,0
16217.546,-0.313,0.067,0.97,-0.31,3.85,-4.76,1,0
16217.546,-0.303,0.072,0.958,-0.4,2.5,-3.02,1,0
16217.562,-0.297,0.071,0.955,-1.53,1.86,-1.71,1,0
16217.562,-0.296,0.066,0.957,-2.35,1.68,-0.79,1,0
16217.578,-0.295,0.062,0.952,-2.53,1.65,-0.09,1,0
16217.593,-0.293,0.056,0.944,-2.44,2.04,0.27,1,0
16217.593,-0.295,0.05,0.944,-2.59,2.81,0.31,1,0
16217.609,-0.295,0.043,0.947,-2.62,3.51,-0.03,1,0
16217.625,-0.298,0.039,0.956,-2.17,3.91,-0.52,1,0
16217.625,-0.298,0.042,0.96,-0.89,3.81,-0.82,1,0
16217.64,-0.291,0.05,0.958,0.09,3.45,-1.1,1,0
16217.64,-0.287,0.052,0.953,0.58,3.11,-1.62,1,0
16217.656,-0.29,0.059,0.944,1.43,3.36,-1.8,1,0
16217.671,-0.3,0.069,0.945,1.19,3.36,-2.01,1,0
16217.671,-0.307,0.076,0.947,0.09,3.39,-1.65,1,0
16217.687,-0.327,0.078,0.958,0.34,3.39,-0.03,1,0
16217.703,-0.333,0.082,0.952,0.03,2.5,2.14,1,0
16217.703,-0.323,0.076,0.95,-1.68,1.1,4.46,1,0
16217.718,-0.303,0.066,0.943,-3.27,0.49,6.07,1,0
16217.734,-0.292,0.054,0.943,-3.69,0.92,6.99,1,0
16217.734,-0.29,0.052,0.947,-3.48,1.92,7.29,1,0
16217.75,-0.291,0.047,0.953,-3.42,2.81,7.35,1,0
16217.765,-0.287,0.041,0.959,-4.21,3.05,7.05,1,0
16217.765,-0.285,0.032,0.97,-4.43,3.2,6.01,1,0
16217.781,-0.294,0.029,0.978,-3.02,3.33,4.82,1,0
16217.781,-0.295,0.039,0.977,-1.37,3.02,3.54,1,0
16217.796,-0.296,0.04,0.982,-1.34,1.95,2.23,1,0
16217.812,-0.302,0.039,0.988,-1.37,0.55,1.22,1,0
16217.812,-0.298,0.039,0.982,-0.95,-0.89,0.61,1,0
16217.828,-0.295,0.036,0.972,-0.7,-2.32,-0.15,1,0
16217.843,-0.302,0.036,0.966,-0.03,-3.51,-1.28,1,0
16217.843,-0.31,0.041,0.957,1.16,-4.43,-2.29,1,0
16217.859,-0.312,0.043,0.941,1.86,-5.19,-2.53,1,0
16217.875,-0.305,0.047,0.926,1.43,-5.52,-2.56,1,0
16217.875,-0.309,0.049,0.924,0.7,-5.04,-2.62,1,0
16217.89,-0.318,0.047,0.924,-0.03,-4.33,-2.2,1,0
16217.906,-0.321,0.047,0.927,-0.21,-4.06,-1.56,1,0
16217.906,-0.327,0.054,0.927,-0.31,-4.24,-0.76,1,0
16217.921,-0.321,0.055,0.923,-1.07,-4.61,0.4,1,0
16217.921,-0.314,0.052,0.92,-2.04,-4.43,1.4,1,0
16217.937,-0.311,0.051,0.922,-1.83,-3.72,1.53,1,0
16217.953,-0.313,0.047,0.926,-0.92,-2.81,1.28,1,0
16217.953,-0.319,0.045,0.925,-0.31,-2.23,1.04,1,0
16217.968,-0.313,0.044,0.922,-0.15,-1.83,0.89,1,0
16217.984,-0.308,0.041,0.927,0.12,-1.01,0.61,1,0
16217.984,-0.302,0.039,0.927,0.27,-0.24,0.43,1,0
16218.0,-0.297,0.041,0.926,0.06,0.7,0.24,1,0
16218.0,-0.301,0.043,0.93,0.21,2.04,-0.09,1,0
16218.015,-0.317,0.052,0.949,0.4,2.84,0.09,1,0
16218.031,-0.317,0.056,0.963,-0.55,2.2,0.64,1,0
16218.031,-0.308,0.053,0.968,-1.34,0.95,1.34,1,0
16218.046,-0.299,0.053,0.966,-1.25,0.03,2.08,1,0
16218.062,-0.287,0.053,0.965,-1.71,-0.7,2.5,1,0
16218.062,-0.282,0.047,0.965,-1.46,-0.73,2.62,1,0
16218.078,-0.28,0.048,0.963,-0.73,-0.34,2.96,1,0
16218.093,-0.278,0.047,0.963,-0.92,0.34,3.23,1,0
16218.093,-0.278,0.038,0.965,-1.59,0.55,3.2,1,0
16218.109,-0.274,0.031,0.963,-1.22,0.98,2.99,1,0
16218.125,-0.272,0.03,0.955,-0.43,1.89,2.38,1,0
16218.125,-0.282,0.032,0.957,-0.27,2.84,1.53,1,0
16218.14,-0.299,0.037,0.968,-1.37,2.9,1.13,1,0
16218.14,-0.303,0.038,0.987,-2.96,1.25,1.22,1,0
16218.156,-0.304,0.034,0.991,-2.9,-1.04,1.53,1,0
16218.171,-0.295,0.04,0.987,-1.5,-3.08,1.56,1,0
16218.171,-0.29,0.044,0.977,-0.15,-4.94,0.79,1,0
16218.187,-0.293,0.046,0.97,0.67,-6.44,-0.21,1,0
16218.203,-0.293,0.05,0.956,1.31,-7.29,-0.64,1,0
16218.218,-0.29,0.054,0.937,1.74,-7.11,-0.76,1,0
16218.218,-0.294,0.055,0.924,1.83,-5.92,-0.76,1,0
16218.234,-0.303,0.056,0.925,1.28,-4.09,-0.79,1,0
16218.234,-0.31,0.052,0.932,0.76,-2.41,-0.4,1,0
16218.25,-0.321,0.05,0.94,0.37,-1.71,0.24,1,0
16218.25,-0.322,0.048,0.946,-0.61,-2.17,0.55,1,0
16218.265,-0.318,0.038,0.95,-1.16,-2.81,0.4,1,0
16218.281,-0.312,0.036,0.946,-0.37,-3.42,-0.24,1,0
16218.296,-0.314,0.042,0.944,1.13,-3.45,-1.5,1,0
16218.296,-0.321,0.049,0.938,2.56,-3.14,-2.17,1,0
16218.312,-0.322,0.058,0.938,2.32,-3.08,-2.08,1,0
16218.312,-0.319,0.059,0.94,1.56,-3.08,-1.5,1,0
16218.328,-0.316,0.057,0.94,0.7,-2.66,0.24,1,0
16218.343,-0.306,0.052,0.931,1.07,-1.65,0.43,1,0
16218.343,-0.302,0.045,0.924,1.22,0.12,0.31,1,0
16218.359,-0.308,0.046,0.928,0.31,0.89,0.4,1,0
16218.375,-0.308,0.04,0.944,-0.34,1.1,0.79,1,0
16218.375,-0.307,0.038,0.959,-0.18,0.98,0.82,1,0
16218.39,-0.303,0.04,0.968,-0.18,-0.03,0.52,1,0
16218.39,-0.293,0.036,0.966,-0.03,-1.28,-0.24,1,0
16218.406,-0.286,0.035,0.957,0.95,-1.74,-1.34,1,0
16218.421,-0.283,0.041,0.949,2.04,-1.5,-2.44,1,0
16218.421,-0.284,0.048,0.941,2.53,-0.92,-3.45,1,0
16218.437,-0.292,0.053,0.942,2.32,0.12,-3.48,1,0
16218.453,-0.304,0.058,0.943,1.68,0.89,-2.78,1,0
16218.453,-0.307,0.06,0.952,0.24,0.73,-1.56,1,0
16218.468,-0.302,0.054,0.956,-0.73,0.15,-0.46,1,0
16218.484,-0.287,0.052,0.949,-0.4,0.21,0.21,1,0
16218.484,-0.284,0.051,0.944,-0.06,1.04,0.06,1,0
16218.5,-0.291,0.052,0.953,-0.03,2.04,-0.31,1,0
16218.515,-0.298,0.055,0.963,-0.15,2.23,-0.21,1,0
16218.515,-0.303,0.056,0.97,-0.76,1.04,0.24,1,0
16218.531,-0.302,0.051,0.978,-1.19,-0.43,0.37,1,0
16218.531,-0.304,0.052,0.974,0.18,-1.74,0.67,1,0
16218.546,-0.302,0.059,0.966,0.89,-3.11,1.22,1,0
16218.562,-0.287,0.054,0.949,-0.06,-4.21,1.53,1,0
16218.562,-0.283,0.048,0.938,-0.4,-3.78,1.4,1,0
16218.578,-0.287,0.05,0.935,-0.24,-2.35,1.28,1,0
16218.593,-0.293,0.051,0.941,-0.98,-1.46,1.16,1,0
16218.593,-0.299,0.048,0.954,-1.77,-1.4,0.85,1,0
16218.609,-0.305,0.047,0.964,-1.4,-1.71,1.01,1,0
16218.625,-0.3,0.051,0.961,-0.89,-2.56,1.5,1,0
16218.625,-0.297,0.05,0.962,-1.04,-3.3,1.5,1,0
16218.64,-0.3,0.049,0.96,-0.46,-4.03,1.4,1,0
16218.656,-0.29,0.052,0.951,-0.27,-4.58,1.71,1,0
16218.656,-0.288,0.05,0.945,-0.82,-4.55,1.37,1,0
16218.671,-0.294,0.048,0.95,-1.31,-4.18,1.04,1,0
16218.671,-0.29,0.049,0.944,-1.25,-3.97,1.19,1,0
16218.687,-0.284,0.048,0.936,-0.85,-3.14,1.16,1,0
16218.703,-0.288,0.046,0.933,-0.64,-1.92,0.82,1,0
16218.703,-0.297,0.042,0.937,-1.19,-0.4,0.61,1,0
16218.718,-0.3,0.04,0.946,-1.46,0.76,0.52,1,0
16218.734,-0.302,0.043,0.958,-1.19,1.01,0.55,1,0
16218.734,-0.295,0.042,0.964,-0.95,0.31,0.31,1,0
16218.75,-0.286,0.042,0.961,-0.52,-0.55,-0.18,1,0
16218.75,-0.288,0.045,0.951,0.18,-0.98,-0.79,1,0
16218.765,-0.297,0.05,0.948,1.07,-1.07,-1.16,1,0
16218.781,-0.308,0.053,0.943,1.37,-1.04,-0.85,1,0
16218.781,-0.314,0.053,0.934,0.4,-0.98,0.12,1,0
16218.796,-0.309,0.048,0.931,-1.04,-0.24,1.1,1,0
16218.812,-0.301,0.042,0.933,-1.74,0.98,1.74,1,0
16218.828,-0.298,0.039,0.944,-2.11,2.17,1.86,1,0
16218.828,-0.3,0.037,0.957,-1.8,2.41,1.16,1,0
16218.843,-0.297,0.036,0.963,-0.98,1.68,0.34,1,0
16218.843,-0.295,0.036,0.963,-0.4,0.7,-0.73,1,0
16218.859,-0.295,0.039,0.962,0.43,-0.03,-1.71,1,0
16218.875,-0.298,0.049,0.954,1.59,-0.58,-2.26,1,0
16218.875,-0.303,0.055,0.951,1.8,-0.67,-2.26,1,0
16218.89,-0.302,0.059,0.946,0.89,-0.85,-1.8,1,0
16218.89,-0.3,0.056,0.939,0.37,-0.7,-0.92,1,0
16218.906,-0.298,0.053,0.937,0.31,0.21,-0.03,1,0
16218.921,-0.295,0.054,0.938,-0.18,1.13,0.67,1,0
16218.921,-0.298,0.051,0.94,-0.67,2.08,0.82,1,0
16218.937,-0.308,0.049,0.952,-1.13,2.35,0.64,1,0
16218.953,-0.311,0.051,0.963,-1.04,1.46,0.82,1,0
16218.953,-0.3,0.047,0.959,-0.7,0.27,0.67,1,0
16218.968,-0.294,0.041,0.949,0.21,-0.03,-0.09,1,0
16218.984,-0.31,0.05,0.955,1.04,0.37,-1.01,1,0
16218.984,-0.322,0.057,0.962,0.82,-0.27,-0.82,1,0
16219.0,-0.311,0.056,0.963,-0.03,-1.65,-0.12,1,0
16219.015,-0.303,0.053,0.957,0.34,-2.14,0.52,1,0
16219.015,-0.303,0.056,0.951,1.07,-2.29,0.95,1,0
16219.031,-0.298,0.058,0.947,0.92,-2.47,1.16,1,0
16219.046,-0.293,0.049,0.941,0.43,-2.44,1.16,1,0
16219.046,-0.295,0.044,0.936,0.24,-1.56,0.95,1,0
16219.062,-0.302,0.045,0.934,0.43,-0.12,0.79,1,0
16219.062,-0.31,0.045,0.951,-0.12,0.79,0.89,1,0
16219.078,-0.302,0.041,0.96,-1.01,0.34,1.04,1,0
16219.093,-0.29,0.036,0.958,-1.1,-0.21,0.95,1,0
16219.093,-0.28,0.032,0.952,-0.21,-0.12,0.24,1,0
16219.109,-0.289,0.037,0.96,0.64,0.64,-0.52,1,0
16219.125,-0.302,0.044,0.978,0.85,0.21,-0.67,1,0
16219.125,-0.294,0.045,0.973,0.15,-1.65,-0.46,1,0
16219.14,-0.296,0.042,0.962,0.64,-2.75,-0.37,1,0
16219.14,-0.304,0.046,0.954,1.34,-2.96,-0.24,1,0
16219.156,-0.299,0.05,0.947,0.43,-3.33,-0.06,1,0
16219.171,-0.292,0.04,0.942,-0.34,-3.23,0.0,1,0
16219.171,-0.292,0.038,0.935,0.06,-2.11,-0.31,1,0
16219.187,-0.296,0.042,0.936,0.67,-0.64,-0.92,1,0
16219.203,-0.298,0.042,0.943,0.4,0.18,-1.46,1,0
16219.203,-0.301,0.044,0.949,0.12,0.43,-1.8,1,0
16219.218,-0.305,0.05,0.95,0.37,0.31,-2.17,1,0
16219.234,-0.311,0.053,0.954,0.7,0.12,-2.14,1,0
16219.234,-0.311,0.059,0.956,0.64,-0.52,-1.89,1,0
16219.25,-0.308,0.059,0.956,0.73,-1.13,-1.37,1,0
16219.265,-0.309,0.065,0.958,1.19,-1.46,-0.49,1,0
16219.265,-0.302,0.064,0.952,0.46,-2.17,0.34,1,0
16219.281,-0.293,0.057,0.943,-0.18,-2.14,0.82,1,0
16219.281,-0.289,0.051,0.933,-0.03,-1.19,1.07,1,0
16219.296,-0.295,0.048,0.937,-0.46,0.18,0.98,1,0
16219.312,-0.307,0.045,0.958,-1.77,0.03,1.1,1,0
16219.312,-0.306,0.039,0.965,-1.04,-1.07,0.95,1,0
16219.328,-0.3,0.039,0.967,-0.34,-2.04,0.18,1,0
16219.343,-0.298,0.041,0.964,-0.15,-2.62,-0.37,1,0
16219.343,-0.289,0.042,0.943,0.37,-2.66,-0.67,1,0
16219.359,-0.29,0.044,0.931,0.98,-1.74,-0.98,1,0
16219.375,-0.293,0.047,0.928,0.73,-0.31,-1.37,1,0
16219.375,-0.302,0.048,0.937,0.4,1.07,-1.5,1,0
16219.39,-0.311,0.049,0.951,-0.06,1.43,-0.95,1,0
16219.39,-0.314,0.05,0.961,-0.73,0.55,-0.4,1,0
16219.406,-0.309,0.047,0.962,-0.55,-0.27,0.06,1,0
16219.421,-0.302,0.049,0.962,0.15,-0.73,0.06,1,0
16219.421,-0.297,0.05,0.953,0.73,-1.25,-0.52,1,0
16219.437,-0.293,0.05,0.948,1.04,-1.22,-0.92,1,0
16219.453,-0.293,0.054,0.944,1.37,-0.7,-1.07,1,0
16219.453,-0.303,0.056,0.947,1.04,-0.15,-0.82,1,0
16219.468,-0.318,0.053,0.95,0.12,-0.46,0.0,1,0
16219.484,-0.31,0.046,0.949,-0.61,-1.1,0.95,1,0
16219.484,-0.3,0.044,0.949,-0.55,-0.98,1.22,1,0
16219.5,-0.306,0.047,0.961,-0.46,-0.37,0.98,1,0
16219.515,-0.297,0.054,0.96,-1.07,-0.79,0.89,1,0
16219.515,-0.287,0.045,0.961,-0.58,-1.16,0.58,1,0
16219.531,-0.28,0.049,0.952,-0.12,-1.13,-0.12,1,0
16219.531,-0.295,0.044,0.954,0.34,-0.79,-0.76,1,0
16219.546,-0.302,0.043,0.949,0.37,-1.25,-1.07,1,0
16219.562,-0.299,0.039,0.939,0.89,-1.34,-1.37,1,0
16219.578,-0.3,0.041,0.932,1.5,-0.73,-1.89,1,0
16219.578,-0.314,0.045,0.937,1.83,0.31,-2.59,1,0
16219.593,-0.318,0.047,0.944,1.74,0.43,-2.35,1,0
16219.593,-0.305,0.046,0.95,1.16,-0.09,-1.77,1,0
16219.609,-0.293,0.044,0.948,0.55,-0.24,-1.83,1,0
16219.625,-0.296,0.049,0.953,0.98,0.21,-2.08,1,0
16219.625,-0.301,0.056,0.955,1.5,0.27,-2.04,1,0
16219.64,-0.3,0.059,0.958,1.25,-0.27,-1.68,1,0
16219.64,-0.297,0.055,0.952,0.95,-0.82,-1.07,1,0
16219.656,-0.299,0.053,0.949,0.92,-0.85,-0.64,1,0
16219.671,-0.305,0.047,0.942,1.37,-0.49,-0.49,1,0
16219.671,-0.319,0.049,0.956,1.1,-0.24,-0.15,1,0
16219.687,-0.321,0.048,0.962,0.27,-1.28,0.24,1,0
16219.703,-0.305,0.04,0.957,-0.12,-2.69,0.27,1,0
16219.703,-0.289,0.037,0.947,0.24,-2.87,-0.61,1,0
16219.718,-0.284,0.038,0.938,1.28,-1.92,-2.08,1,0
16219.734,-0.293,0.046,0.937,1.92,-0.76,-3.42,1,0
16219.734,-0.303,0.047,0.943,2.04,0.03,-3.94,1,0
16219.75,-0.305,0.048,0.947,1.89,0.46,-3.75,1,0
16219.765,-0.316,0.051,0.961,2.11,0.82,-3.33,1,0
16219.765,-0.316,0.059,0.972,2.04,0.12,-2.41,1,0
16219.781,-0.301,0.063,0.97,1.22,-1.4,-1.65,1,0
16219.796,-0.294,0.056,0.964,0.92,-2.08,-1.5,1,0
16219.796,-0.295,0.055,0.96,1.77,-1.65,-1.56,1,0
16219.812,-0.303,0.058,0.957,2.5,-1.13,-1.74,1,0
16219.812,-0.309,0.056,0.957,2.69,-1.04,-2.14,1,0
16219.828,-0.31,0.049,0.962,2.26,-0.89,-2.23,1,0
16219.843,-0.309,0.045,0.966,2.41,-0.7,-2.2,1,0
16219.843,-0.308,0.04,0.973,3.02,-0.64,-2.35,1,0
16219.859,-0.305,0.035,0.98,3.23,-1.19,-2.59,1,0
16219.875,-0.302,0.026,0.983,3.72,-2.53,-2.93,1,0
16219.875,-0.298,0.026,0.973,4.3,-4.55,-3.85,1,0
16219.89,-0.304,0.026,0.962,5.34,-6.53,-5.43,1,0
16219.89,-0.308,0.029,0.942,6.53,-7.87,-6.93,1,0
16219.906,-0.31,0.035,0.924,7.51,-7.81,-7.75,1,0
16219.921,-0.317,0.046,0.911,7.6,-6.44,-7.97,1,0
16219.921,-0.322,0.052,0.914,5.71,-4.88,-7.35,1,0
16219.937,-0.321,0.052,0.915,3.45,-3.66,-6.38,1,0
16219.953,-0.324,0.052,0.914,2.62,-2.44,-5.71,1,0
16219.953,-0.323,0.055,0.914,2.41,-1.53,-5.74,1,0
16219.968,-0.317,0.056,0.913,1.95,-1.04,-6.35,1,0
16219.984,-0.31,0.058,0.914,2.11,-0.15,-7.08,1,0
16219.984,-0.313,0.064,0.921,2.2,1.07,-7.45,1,0
16220.0,-0.305,0.071,0.961,1.37,1.56,-7.51,1,0
16220.015,-0.283,0.068,0.967,1.74,1.37,-7.54,1,0
16220.015,-0.256,0.085,1.014,1.19,0.95,-8.24,1,0
16220.031,-0.253,0.077,1.021,2.35,-0.4,-9.7,1,0
16220.031,-0.265,0.088,1.021,3.23,-2.17,-10.44,1,0
16220.046,-0.275,0.087,0.99,3.42,-3.94,-10.62,1,0
16220.062,-0.288,0.086,0.96,3.42,-4.06,-10.35,1,0
16220.062,-0.308,0.087,0.946,4.24,-2.56,-10.56,1,0
16220.078,-0.332,0.085,0.948,5.16,-0.79,-10.83,1,0
16220.093,-0.343,0.089,0.95,6.35,-0.12,-11.08,1,0
16220.093,-0.346,0.084,0.944,7.14,-0.15,-10.68,1,0
16220.109,-0.34,0.081,0.944,6.99,-0.4,-10.1,1,0
16220.125,-0.342,0.07,0.933,6.41,-0.64,-8.82,1,0
16220.125,-0.327,0.061,0.919,5.07,-1.16,-7.26,1,0
16220.14,-0.315,0.051,0.909,3.72,-1.01,-5.95,1,0
16220.156,-0.297,0.043,0.91,2.41,-0.49,-4.43,1,0
16220.156,-0.275,0.035,0.913,1.46,0.18,-2.87,1,0
16220.171,-0.26,0.026,0.925,0.85,0.73,-1.92,1,0
16220.171,-0.254,0.02,0.953,0.34,0.79,-1.31,1,0
16220.187,-0.239,0.012,0.972,0.15,-0.12,-1.07,1,0
16220.203,-0.232,0.01,0.985,0.95,-1.46,-2.23,1,0
16220.203,-0.237,0.01,0.988,3.14,-2.87,-4.39,1,0
16220.218,-0.249,0.017,0.978,6.23,-4.3,-6.71,1,0
16220.234,-0.265,0.037,0.964,8.06,-5.62,-9.46,1,0
16220.234,-0.278,0.046,0.948,8.61,-6.87,-11.29,1,0
16220.25,-0.289,0.063,0.926,9.4,-6.96,-11.66,1,0
16220.265,-0.297,0.083,0.915,8.76,-6.1,-11.23,1,0
16220.265,-0.299,0.094,0.912,7.39,-5.25,-10.38,1,0
16220.281,-0.301,0.107,0.908,6.5,-4.03,-8.88,1,0
16220.296,-0.311,0.116,0.911,5.77,-2.53,-6.87,1,0
16220.296,-0.311,0.125,0.915,3.45,-1.59,-2.26,1,0
16220.312,-0.31,0.128,0.912,2.47,-0.46,0.15,1,0
16220.312,-0.304,0.124,0.905,1.46,1.25,2.62,1,0
16220.328,-0.289,0.117,0.895,-0.4,3.27,4.79,1,0
16220.343,-0.291,0.106,0.9,-2.72,5.04,6.93,1,0
16220.343,-0.282,0.095,0.906,-4.49,6.26,8.97,1,0
16220.359,-0.277,0.09,0.914,-5.8,7.14,10.93,1,0
16220.375,-0.269,0.083,0.919,-7.17,7.81,12.57,1,0
16220.375,-0.262,0.073,0.92,-8.42,8.42,13.37,1,0
16220.39,-0.269,0.068,0.937,-9.61,8.76,13.15,1,0
16220.406,-0.276,0.071,0.951,-9.89,8.55,12.67,1,0
16220.406,-0.277,0.073,0.961,-10.1,8.09,12.33,1,0
16220.421,-0.282,0.074,0.972,-9.95,7.78,11.57,1,0
16220.421,-0.296,0.074,0.983,-9.09,7.42,10.56,1,0
16220.437,-0.305,0.071,0.996,-7.54,6.62,9.43,1,0
16220.453,-0.316,0.077,1.008,-5.16,5.4,8.06,1,0
16220.453,-0.325,0.078,1.014,-2.9,3.85,6.47,1,0
16220.468,-0.332,0.078,1.019,-0.76,2.23,4.82,1,0
16220.484,-0.335,0.077,1.016,0.89,0.4,3.81,1,0
16220.5,-0.332,0.081,1.004,1.89,-1.37,4.24,1,0
16220.5,-0.335,0.077,0.994,2.11,-3.23,5.13,1,0
16220.515,-0.337,0.076,0.981,1.53,-4.79,7.05,1,0
16220.515,-0.336,0.068,0.962,0.61,-5.92,9.37,1,0
16220.531,-0.333,0.055,0.948,-0.89,-6.23,11.47,1,0
16220.546,-0.331,0.039,0.939,-2.38,-5.71,13.34,1,0
16220.546,-0.335,0.026,0.935,-3.3,-4.61,14.68,1,0
16220.562,-0.332,0.014,0.937,-4.61,-3.94,15.5,1,0
16220.562,-0.334,-0.003,0.937,-6.07,-3.48,15.5,1,0
16220.578,-0.334,-0.022,0.938,-7.05,-3.33,14.37,1,0
16220.593,-0.322,-0.029,0.933,-7.42,-2.93,12.24,1,0
16220.593,-0.318,-0.031,0.934,-6.84,-1.56,9.06,1,0
16220.609,-0.329,-0.019,0.95,-6.1,-0.31,5.34,1,0
16220.625,-0.329,-0.006,0.96,-6.47,-0.76,1.83,1,0
16220.625,-0.321,0.004,0.962,-6.71,-1.4,-1.04,1,0
16220.64,-0.311,0.013,0.955,-6.26,-1.59,-3.39,1,0
16220.64,-0.299,0.024,0.946,-6.07,-0.52,-5.49,1,0
16220.656,-0.298,0.04,0.95,-6.71,1.1,-7.23,1,0
16220.671,-0.307,0.049,0.959,-7.14,2.38,-7.87,1,0
16220.671,-0.31,0.059,0.972,-8.27,2.56,-7.6,1,0
16220.687,-0.312,0.065,0.979,-10.35,1.4,-7.54,1,0
16220.703,-0.316,0.056,0.986,-12.63,-0.52,-7.35,1,0
16220.703,-0.302,0.052,0.982,-13.98,-3.02,-7.45,1,0
16220.718,-0.294,0.052,0.964,-17.09,-5.49,-8.88,1,0
16220.734,-0.291,0.017,0.975,-19.14,-7.51,-10.53,1,0
16220.734,-0.279,0.005,0.952,-15.63,-7.69,-11.57,1,0
16220.75,-0.266,0.016,0.918,-11.63,-6.2,-13.43,1,0
16220.765,-0.27,0.009,0.893,-9.25,-3.42,-16.17,1,0
16220.765,-0.284,0.021,0.902,-6.9,0.58,-17.76,1,0
16220.781,-0.314,0.044,0.92,-3.17,4.09,-17.98,1,0
16220.781,-0.331,0.076,0.939,-1.5,4.88,-17.21,1,0
16220.796,-0.335,0.083,0.946,-2.66,3.48,-15.87,1,0
16220.812,-0.336,0.086,0.957,-4.03,1.86,-13.09,1,0
16220.812,-0.328,0.088,0.958,-3.81,0.46,-9.74,1,0
16220.828,-0.315,0.087,0.943,-3.02,-0.34,-6.96,1,0
16220.843,-0.305,0.083,0.931,-3.27,-0.12,-5.28,1,0
16220.843,-0.3,0.076,0.932,-3.81,0.79,-4.39,1,0
16220.859,-0.306,0.075,0.939,-3.08,2.01,-3.72,1,0
16220.875,-0.313,0.076,0.947,-1.53,2.84,-2.87,1,0
16220.875,-0.32,0.076,0.949,-0.67,2.72,-1.59,1,0
16220.89,-0.328,0.067,0.954,-0.79,2.08,0.03,1,0
16220.89,-0.326,0.056,0.951,-1.25,0.79,2.04,1,0
16220.906,-0.317,0.047,0.943,-1.5,-0.21,3.6,1,0
16220.921,-0.311,0.036,0.936,-1.46,-0.43,4.43,1,0
16220.921,-0.304,0.029,0.928,-0.67,0.37,4.55,1,0
16220.937,-0.303,0.026,0.925,0.24,1.71,4.12,1,0
16220.953,-0.312,0.022,0.929,0.52,3.05,3.81,1,0
16220.953,-0.315,0.018,0.93,0.21,3.69,3.88,1,0
16220.968,-0.315,0.013,0.931,0.0,3.72,4.12,1,0
16220.984,-0.326,0.008,0.939,0.21,3.88,4.43,1,0
16220.984,-0.338,0.005,0.944,-0.06,3.27,5.22,1,0
16221.0,-0.334,0.003,0.943,-1.68,1.68,6.07,1,0
16221.015,-0.319,-0.01,0.931,-2.66,0.76,6.56,1,0
16221.015,-0.304,-0.015,0.926,-2.47,1.62,6.35,1,0
16221.031,-0.309,-0.015,0.93,-1.86,3.2,5.68,1,0
16221.031,-0.317,-0.013,0.94,-1.4,4.27,5.31,1,0
16221.046,-0.313,-0.014,0.938,-1.98,4.15,5.04,1,0
16221.062,-0.314,-0.022,0.94,-2.93,4.03,4.3,1,0
16221.062,-0.32,-0.021,0.944,-2.38,4.21,3.63,1,0
16221.078,-0.318,-0.014,0.943,-1.83,3.81,2.99,1,0
16221.093,-0.312,-0.011,0.945,-1.95,3.14,1.89,1,0
16221.109,-0.312,-0.008,0.945,-1.65,2.99,1.25,1,0
16221.109,-0.314,0.0,0.945,-1.16,3.17,0.73,1,0
16221.109,-0.317,0.007,0.948,-1.13,3.17,-0.12,1,0
16221.125,-0.311,0.012,0.95,-1.59,3.11,-0.73,1,0
16221.14,-0.309,0.014,0.952,-1.53,3.23,-1.25,1,0
16221.14,-0.309,0.016,0.953,-0.95,3.66,-2.04,1,0
16221.156,-0.309,0.019,0.953,-0.03,4.09,-3.02,1,0
16221.171,-0.313,0.021,0.953,1.07,4.33,-3.88,1,0
16221.171,-0.322,0.024,0.955,1.98,4.33,-4.64,1,0
16221.187,-0.322,0.028,0.956,1.83,3.48,-5.1,1,0
16221.203,-0.332,0.024,0.94,3.02,3.66,-5.07,1,0
16221.203,-0.355,0.041,0.956,3.11,3.66,-4.06,1,0
16221.218,-0.352,0.045,0.958,0.64,1.16,-3.14,1,0
16221.234,-0.339,0.029,0.946,-0.27,-0.37,-2.32,1,0
16221.234,-0.328,0.026,0.944,0.58,-0.43,-1.43,1,0
16221.25,-0.324,0.027,0.935,1.98,-0.03,-1.8,1,0
16221.25,-0.327,0.027,0.936,3.3,0.52,-2.5,1,0
16221.265,-0.338,0.027,0.94,4.09,0.7,-2.66,1,0
16221.281,-0.341,0.03,0.943,3.54,-0.67,-2.38,1,0
16221.281,-0.342,0.03,0.936,2.41,-1.43,-2.04,1,0
16221.296,-0.338,0.027,0.937,2.35,-1.46,-1.43,1,0
16221.312,-0.332,0.021,0.935,2.78,-0.67,-0.52,1,0
16221.328,-0.344,0.024,0.936,2.14,-0.24,0.21,1,0
16221.328,-0.34,0.017,0.94,1.16,-0.82,1.1,1,0
16221.343,-0.325,0.015,0.936,0.49,-1.19,1.65,1,0
16221.343,-0.322,0.011,0.939,0.18,-0.67,1.07,1,0
16221.359,-0.33,0.012,0.95,0.21,-0.34,0.27,1,0
16221.375,-0.329,0.017,0.955,0.52,-0.7,-0.15,1,0
16221.375,-0.324,0.019,0.954,0.89,-1.43,-0.49,1,0
16221.39,-0.329,0.02,0.956,1.31,-1.83,-0.82,1,0
16221.406,-0.338,0.023,0.957,1.86,-2.38,-0.09,1,0
16221.406,-0.334,0.028,0.95,1.68,-3.39,0.95,1,0
16221.421,-0.323,0.024,0.938,0.7,-3.97,1.43,1,0
16221.421,-0.324,0.02,0.944,-0.12,-3.54,1.74,1,0
16221.437,-0.323,0.024,0.948,0.0,-3.6,2.17,1,0
16221.453,-0.322,0.031,0.948,0.64,-3.88,2.23,1,0
16221.453,-0.321,0.034,0.95,0.31,-4.15,2.47,1,0
16221.468,-0.321,0.037,0.948,-0.64,-4.36,2.87,1,0
16221.484,-0.32,0.037,0.946,-0.85,-4.21,3.66,1,0
16221.484,-0.325,0.038,0.95,-0.73,-3.91,4.46,1,0
16221.5,-0.334,0.042,0.953,-1.31,-4.15,5.19,1,0
16221.515,-0.337,0.036,0.965,-2.66,-5.43,6.04,1,0
16221.515,-0.339,0.027,0.976,-2.53,-7.11,6.84,1,0
16221.531,-0.333,0.029,0.979,-1.53,-9.4,7.2,1,0
16221.546,-0.319,0.021,0.971,-0.21,-11.57,6.68,1,0
16221.546,-0.314,0.021,0.967,1.59,-12.63,5.55,1,0
16221.562,-0.331,0.025,0.977,4.58,-13.12,4.73,1,0
16221.562,-0.34,0.039,0.988,7.75,-14.59,5.4,1,0
16221.578,-0.343,0.047,0.983,10.86,-16.75,7.29,1,0
16221.593,-0.335,0.057,0.977,12.21,-19.23,10.5,1,0
16221.609,-0.322,0.068,0.972,11.81,-20.94,13.37,1,0
16221.609,-0.305,0.067,0.98,9.55,-22.4,15.47,1,0
16221.625,-0.287,0.051,0.911,5.19,-23.29,15.38,1,0
16221.625,-0.276,0.049,0.927,4.09,-21.97,14.92,1,0
16221.64,-0.276,0.042,0.952,5.74,-20.08,14.47,1,0
16221.64,-0.282,0.044,0.941,6.1,-18.86,13.61,1,0
16221.656,-0.273,0.042,0.929,5.43,-18.01,13.34,1,0
16221.671,-0.262,0.028,0.92,3.57,-17.21,11.51,1,0
16221.687,-0.254,0.022,0.92,1.92,-14.89,9.13,1,0
16221.687,-0.256,0.015,0.909,2.59,-11.51,6.62,1,0
16221.703,-0.256,0.02,0.911,3.02,-8.33,4.09,1,0
16221.703,-0.262,0.024,0.903,3.45,-4.85,1.98,1,0
16221.718,-0.27,0.033,0.919,2.44,-1.95,0.76,1,0
16221.734,-0.274,0.039,0.939,1.1,-0.49,-0.09,1,0
16221.734,-0.29,0.037,0.956,0.92,0.64,-0.58,1,0
16221.75,-0.308,0.04,0.978,0.76,0.21,-0.15,1,0
16221.75,-0.301,0.044,0.983,0.06,-2.17,0.46,1,0
16221.765,-0.283,0.043,0.971,-0.24,-4.36,0.46,1,0
16221.781,-0.272,0.045,0.954,0.37,-5.01,0.03,1,0
16221.781,-0.261,0.049,0.932,0.79,-4.43,-0.61,1,0
16221.796,-0.262,0.051,0.916,0.06,-2.38,-1.16,1,0
16221.812,-0.269,0.05,0.918,-1.77,0.21,-1.4,1,0
16221.812,-0.287,0.049,0.936,-3.42,2.5,-1.19,1,0
16221.828,-0.296,0.046,0.958,-4.55,3.33,-0.58,1,0
16221.843,-0.298,0.036,0.976,-4.79,2.69,0.0,1,0
16221.843,-0.299,0.033,0.985,-3.75,1.34,0.4,1,0
16221.859,-0.285,0.036,0.979,-2.56,-0.46,0.34,1,0
16221.875,-0.272,0.039,0.961,-1.83,-1.59,-0.67,1,0
16221.875,-0.268,0.039,0.948,-1.37,-1.53,-2.14,1,0
16221.89,-0.271,0.05,0.945,-0.58,-0.7,-3.23,1,0
16221.906,-0.279,0.059,0.947,-0.49,0.18,-3.39,1,0
16221.906,-0.29,0.06,0.957,-1.89,0.64,-2.47,1,0
16221.921,-0.292,0.056,0.956,-3.27,0.21,-0.76,1,0
16221.921,-0.281,0.05,0.963,-4.03,-0.37,0.34,1,0
16221.937,-0.277,0.041,0.964,-3.14,-0.76,0.67,1,0
16221.953,-0.267,0.048,0.947,-2.14,-0.73,0.49,1,0
16221.953,-0.255,0.05,0.941,-2.01,0.18,0.15,1,0
16221.968,-0.263,0.052,0.952,-2.38,1.28,-0.24,1,0
16221.984,-0.275,0.056,0.967,-3.14,1.46,-0.46,1,0
16221.984,-0.283,0.056,0.978,-3.39,0.49,-0.34,1,0
16222.0,-0.284,0.051,0.979,-2.99,-0.89,0.03,1,0
16222.015,-0.272,0.047,0.965,-2.26,-1.86,0.34,1,0
16222.015,-0.268,0.044,0.956,-1.34,-1.4,0.03,1,0
16222.031,-0.284,0.045,0.964,-0.92,-0.85,-0.34,1,0
16222.031,-0.284,0.047,0.962,-1.07,-1.37,-0.27,1,0
16222.046,-0.274,0.042,0.951,-0.95,-2.11,-0.09,1,0
16222.062,-0.275,0.039,0.939,-1.28,-1.86,-0.21,1,0
16222.078,-0.277,0.037,0.939,-2.26,-1.07,-0.61,1,0
16222.078,-0.273,0.034,0.943,-2.2,-0.09,-1.04,1,0
16222.093,-0.268,0.033,0.937,-1.04,1.13,-1.46,1,0
16222.093,-0.286,0.039,0.949,-0.27,2.81,-2.08,1,0
16222.109,-0.31,0.047,0.974,-0.49,2.84,-1.71,1,0
16222.125,-0.303,0.048,0.978,-2.01,0.37,-0.27,1,0
16222.125,-0.29,0.035,0.968,-2.99,-1.83,0.82,1,0
16222.14,-0.279,0.026,0.954,-2.26,-2.5,1.07,1,0
16222.14,-0.267,0.026,0.939,-1.22,-1.83,0.58,1,0
16222.156,-0.262,0.026,0.932,-0.37,-0.31,-0.55,1,0
16222.171,-0.27,0.029,0.932,0.24,1.89,-1.89,1,0
16222.171,-0.282,0.032,0.936,0.7,3.69,-2.66,1,0
16222.187,-0.295,0.039,0.95,0.67,4.64,-2.69,1,0
16222.203,-0.311,0.048,0.978,-0.92,4.0,-2.17,1,0
16222.203,-0.32,0.044,0.996,-2.41,1.59,-0.76,1,0
16222.218,-0.305,0.038,0.984,-2.08,-1.31,1.07,1,0
16222.234,-0.283,0.036,0.965,-1.28,-2.87,1.71,1,0
16222.234,-0.273,0.038,0.956,-0.95,-2.99,1.19,1,0
16222.25,-0.272,0.038,0.951,-0.64,-2.5,0.21,1,0
16222.265,-0.275,0.04,0.949,0.89,-0.85,-0.24,1,0
16222.265,-0.271,0.044,0.939,0.37,0.52,-0.15,1,0
16222.281,-0.274,0.044,0.94,-0.67,1.28,0.12,1,0
16222.296,-0.285,0.038,0.951,-1.16,1.5,0.64,1,0
16222.296,-0.285,0.031,0.96,-1.19,1.37,0.55,1,0
16222.312,-0.288,0.028,0.966,-1.19,0.82,0.03,1,0
16222.312,-0.283,0.03,0.963,-0.85,0.06,-0.24,1,0
16222.328,-0.27,0.032,0.952,-0.03,-0.34,-0.95,1,0
16222.343,-0.269,0.035,0.944,1.07,0.31,-2.01,1,0
16222.343,-0.281,0.04,0.94,1.43,1.68,-2.81,1,0
16222.359,-0.294,0.042,0.943,0.52,2.59,-2.47,1,0
16222.375,-0.302,0.043,0.96,-0.89,2.84,-1.1,1,0
16222.375,-0.303,0.043,0.97,-1.53,2.04,0.46,1,0
16222.39,-0.298,0.041,0.972,-1.5,0.85,1.31,1,0
16222.39,-0.291,0.042,0.973,-1.53,-0.52,1.83,1,0
16222.406,-0.28,0.042,0.966,-1.68,-1.5,1.86,1,0
16222.421,-0.276,0.037,0.959,-0.98,-1.65,1.43,1,0
16222.421,-0.281,0.038,0.949,0.27,-1.37,1.34,1,0
16222.437,-0.283,0.042,0.945,0.67,-0.92,1.28,1,0
16222.453,-0.28,0.037,0.947,-0.03,-0.27,1.13,1,0
16222.468,-0.281,0.029,0.944,-0.46,0.34,1.1,1,0
16222.468,-0.283,0.027,0.947,-0.49,1.37,1.1,1,0
16222.484,-0.291,0.03,0.959,-0.85,1.86,0.85,1,0
16222.484,-0.286,0.029,0.962,-1.5,1.19,0.31,1,0
16222.5,-0.276,0.027,0.957,-1.1,0.76,-0.52,1,0
16222.515,-0.274,0.032,0.95,0.31,1.25,-1.19,1,0
16222.515,-0.283,0.041,0.947,1.31,2.38,-1.68,1,0
16222.531,-0.305,0.05,0.965,0.82,2.69,-1.34,1,0
16222.531,-0.306,0.052,0.977,-1.16,0.98,0.0,1,0
16222.546,-0.294,0.044,0.975,-2.08,-0.95,1.28,1,0
16222.562,-0.286,0.04,0.969,-1.04,-1.59,1.89,1,0
16222.562,-0.285,0.042,0.964,-0.09,-1.62,1.83,1,0
16222.578,-0.289,0.043,0.966,-0.09,-1.71,1.46,1,0
16222.593,-0.289,0.041,0.961,0.03,-2.14,1.5,1,0
16222.593,-0.284,0.038,0.952,0.27,-2.26,1.92,1,0
16222.609,-0.284,0.032,0.943,0.18,-2.17,1.92,1,0
16222.609,-0.283,0.024,0.937,-0.03,-1.59,1.59,1,0
16222.625,-0.287,0.022,0.936,0.24,-0.55,0.95,1,0
16222.64,-0.297,0.022,0.939,0.76,0.52,0.09,1,0
16222.64,-0.307,0.029,0.954,0.7,0.98,-0.43,1,0
16222.656,-0.302,0.033,0.958,0.27,0.52,-0.67,1,0
16222.671,-0.297,0.031,0.954,0.31,-0.18,-0.82,1,0
16222.671,-0.292,0.034,0.95,0.46,-0.09,-0.64,1,0
16222.687,-0.294,0.038,0.951,0.15,0.12,-0.85,1,0
16222.703,-0.299,0.037,0.957,0.12,0.06,-0.76,1,0
16222.703,-0.302,0.036,0.954,0.61,-0.06,-0.31,1,0
16222.718,-0.299,0.036,0.949,0.55,-0.03,0.12,1,0
16222.734,-0.299,0.029,0.956,-0.58,-0.24,0.24,1,0
16222.734,-0.294,0.027,0.96,-0.98,-0.58,0.21,1,0
16222.75,-0.291,0.028,0.96,-0.12,-0.95,-0.12,1,0
16222.765,-0.289,0.031,0.958,0.4,-1.22,-0.7,1,0
16222.765,-0.279,0.035,0.956,0.46,-1.59,-1.22,1,0
16222.781,-0.28,0.033,0.956,0.76,-1.43,-1.68,1,0
16222.781,-0.289,0.039,0.954,1.59,-1.1,-1.86,1,0
16222.796,-0.295,0.044,0.953,1.59,-1.22,-1.4,1,0
16222.812,-0.288,0.039,0.95,0.67,-1.83,-0.85,1,0
16222.828,-0.278,0.031,0.949,0.24,-1.77,-0.43,1,0
16222.828,-0.281,0.026,0.956,0.7,-0.92,-0.31,1,0
16222.843,-0.293,0.026,0.968,1.37,-0.52,-0.79,1,0
16222.843,-0.309,0.025,0.98,2.14,-1.13,-1.46,1,0
16222.859,-0.315,0.027,0.983,2.78,-2.87,-1.92,1,0
16222.875,-0.311,0.03,0.969,3.51,-4.64,-2.11,1,0
16222.875,-0.299,0.033,0.953,4.12,-5.52,-2.32,1,0
16222.89,-0.308,0.043,0.942,4.76,-5.01,-2.66,1,0
16222.906,-0.321,0.048,0.936,4.91,-4.36,-2.29,1,0
16222.906,-0.323,0.053,0.922,3.48,-3.66,-0.95,1,0
16222.921,-0.32,0.051,0.91,1.4,-2.5,1.25,1,0
16222.921,-0.309,0.048,0.905,-0.79,-0.61,3.69,1,0
16222.937,-0.308,0.04,0.908,-2.9,1.46,5.74,1,0
16222.953,-0.3,0.031,0.914,-5.37,2.96,7.14,1,0
16222.953,-0.284,0.022,0.922,-7.2,4.36,7.72,1,0
16222.968,-0.271,0.017,0.936,-8.79,5.86,7.11,1,0
16222.984,-0.271,0.016,0.959,-9.31,6.59,5.68,1,0
16222.984,-0.273,0.02,0.979,-8.58,6.41,3.69,1,0
16223.0,-0.273,0.023,0.987,-7.26,5.28,1.59,1,0
16223.0,-0.264,0.031,0.986,-6.2,3.81,-0.73,1,0
16223.015,-0.261,0.031,0.977,-5.31,2.93,-2.87,1,0
16223.031,-0.25,0.02,0.968,-4.12,2.99,-4.49,1,0
16223.031,-0.265,0.05,0.952,-0.92,4.7,-4.76,1,0
16223.046,-0.266,0.059,0.951,1.01,5.22,-4.91,1,0
16223.062,-0.289,0.059,1.001,-7.08,3.3,-6.41,1,0
16223.062,-0.273,0.03,0.961,-9.92,1.34,-6.9,1,0
16223.078,-0.287,0.03,0.966,-8.06,2.11,-6.68,1,0
16223.093,-0.292,0.027,0.983,-8.58,1.25,-9.03,1,0
16223.093,-0.305,0.015,0.979,-5.46,0.52,-11.23,1,0
16223.109,-0.302,0.012,0.959,0.79,0.67,-11.57,1,0
16223.125,-0.286,0.018,0.944,8.82,2.81,-11.51,1,0
16223.125,-0.312,0.035,0.939,16.05,6.04,-11.51,1,0
16223.14,-0.329,0.057,0.929,16.17,7.97,-11.17,1,0
16223.14,-0.339,0.069,0.934,13.64,9.09,-9.43,1,0
16223.156,-0.346,0.06,0.947,11.41,9.61,-6.84,1,0
16223.171,-0.352,0.062,0.953,7.93,9.13,-3.97,1,0
16223.171,-0.346,0.058,0.959,3.23,6.78,-2.01,1,0
16223.187,-0.322,0.038,0.949,-1.4,4.36,-1.43,1,0
16223.203,-0.302,0.02,0.949,-2.9,3.69,-1.83,1,0
16223.203,-0.291,0.011,0.935,-1.34,4.58,-2.96,1,0
16223.218,-0.299,0.016,0.938,0.21,6.5,-4.64,1,0
16223.234,-0.307,0.002,0.927,1.34,8.79,-6.65,1,0
16223.234,-0.337,0.007,0.98,0.85,8.79,-7.84,1,0
16223.25,-0.348,-0.005,0.985,4.03,3.05,-7.39,1,0
16223.265,-0.342,0.01,0.971,5.52,-1.01,-6.53,1,0
16223.265,-0.327,0.009,0.98,4.88,-4.39,-6.74,1,0
16223.281,-0.291,0.001,0.927,4.3,-5.49,-7.9,1,0
16223.281,-0.299,0.006,0.918,5.25,-5.4,-8.82,1,0
16223.296,-0.297,0.004,0.898,5.49,-4.94,-10.28,1,0
16223.312,-0.294,0.011,0.891,4.73,-3.27,-12.12,1,0
16223.328,-0.308,0.022,0.894,6.29,-0.09,-13.18,1,0
16223.328,-0.329,0.04,0.896,6.9,2.35,-12.51,1,0
16223.343,-0.341,0.059,0.92,4.12,2.99,-10.71,1,0
16223.343,-0.352,0.065,0.943,1.62,2.14,-7.57,1,0
16223.359,-0.352,0.076,0.938,0.24,0.24,-3.11,1,0
16223.375,-0.337,0.081,0.93,-1.98,-2.11,1.92,1,0
16223.39,-0.319,0.073,0.919,-3.66,-3.17,6.26,1,0
16223.39,-0.315,0.066,0.912,-3.81,-2.35,9.89,1,0
16223.39,-0.318,0.062,0.904,-4.12,-0.92,12.85,1,0
16223.406,-0.316,0.055,0.91,-6.04,0.15,14.16,1,0
16223.421,-0.308,0.035,0.916,-7.39,1.31,14.53,1,0
16223.421,-0.298,0.029,0.923,-7.97,2.99,14.77,1,0
16223.437,-0.301,0.026,0.934,-8.3,4.79,14.34,1,0
16223.453,-0.313,0.02,0.957,-8.39,5.8,13.79,1,0
16223.453,-0.317,0.023,0.985,-8.51,5.22,13.4,1,0
16223.468,-0.319,0.021,0.999,-7.54,3.05,12.51,1,0
16223.484,-0.309,0.024,1.005,-5.83,0.18,11.51,1,0
16223.484,-0.313,0.031,1.009,-3.75,-2.69,10.19,1,0
16223.5,-0.322,0.031,1.003,-1.62,-5.62,8.88,1,0
16223.515,-0.312,0.031,0.987,1.37,-7.93,8.64,1,0
16223.515,-0.302,0.036,0.955,3.75,-8.36,8.7,1,0
16223.531,-0.304,0.041,0.935,3.36,-7.57,8.64,1,0
16223.546,-0.297,0.04,0.934,0.73,-6.65,8.7,1,0
16223.562,-0.299,0.035,0.939,-1.34,-5.62,8.36,1,0
16223.578,-0.304,0.03,0.95,-2.08,-4.91,8.42,1,0
16223.578,-0.31,0.03,0.971,-2.11,-4.97,8.48,1,0
16223.593,-0.327,0.03,0.989,-1.59,-6.35,8.55,1,0
16223.609,-0.317,0.028,0.99,-0.89,-9.09,8.82,1,0
16223.609,-0.312,0.033,0.989,0.06,-11.35,8.24,1,0
16223.625,-0.308,0.031,0.96,1.95,-12.3,7.81,1,0
16223.625,-0.295,0.039,0.931,1.8,-12.09,7.39,1,0
16223.625,-0.284,0.025,0.919,0.34,-10.8,6.2,1,0
16223.64,-0.28,0.016,0.902,0.31,-8.03,5.01,1,0
16223.656,-0.277,0.028,0.898,0.06,-4.76,3.94,1,0
16223.656,-0.284,0.024,0.919,-1.19,-1.95,1.95,1,0
16223.671,-0.308,0.026,0.951,-0.31,0.06,0.49,1,0
16223.687,-0.327,0.041,0.972,2.35,0.03,0.49,1,0
16223.687,-0.332,0.051,0.97,2.81,-2.01,1.19,1,0
16223.703,-0.314,0.055,0.968,1.1,-4.94,1.8,1,0
16223.703,-0.307,0.055,0.965,0.34,-7.08,1.59,1,0
16223.718,-0.298,0.05,0.948,1.13,-8.0,1.28,1,0
16223.734,-0.285,0.056,0.934,1.95,-7.17,1.22,1,0
16223.75,-0.285,0.058,0.929,2.41,-5.34,1.01,1,0
16223.75,-0.298,0.061,0.946,2.11,-3.63,1.07,1,0
16223.75,-0.31,0.049,0.963,1.98,-3.11,1.46,1,0
16223.765,-0.312,0.051,0.976,2.56,-3.69,1.98,1,0
16223.781,-0.316,0.051,0.982,3.05,-4.97,2.2,1,0
16223.796,-0.311,0.04,0.974,3.6,-6.9,2.2,1,0
16223.796,-0.303,0.043,0.962,4.36,-8.24,1.83,1,0
16223.812,-0.305,0.042,0.951,6.01,-8.67,1.01,1,0
16223.812,-0.308,0.054,0.931,8.33,-8.21,1.28,1,0
16223.828,-0.303,0.065,0.91,8.12,-7.11,1.86,1,0
16223.843,-0.311,0.06,0.907,6.62,-5.28,3.17,1,0
16223.843,-0.301,0.05,0.904,4.94,-3.05,5.04,1,0
16223.859,-0.299,0.043,0.9,2.87,-0.43,6.47,1,0
16223.875,-0.302,0.033,0.923,0.95,1.83,6.81,1,0
16223.875,-0.303,0.025,0.953,-0.34,2.59,6.23,1,0
16223.89,-0.301,0.025,0.972,-0.46,1.77,4.97,1,0
16223.89,-0.3,0.03,0.986,0.03,0.15,3.14,1,0
16223.906,-0.301,0.035,0.993,1.95,-1.89,1.1,1,0
16223.921,-0.307,0.047,0.982,3.88,-3.57,-0.03,1,0
16223.921,-0.295,0.052,0.957,4.79,-4.64,0.27,1,0
16223.937,-0.287,0.057,0.931,4.06,-4.03,1.16,1,0
16223.953,-0.291,0.05,0.916,1.28,-2.38,2.14,1,0
16223.953,-0.293,0.037,0.914,-1.5,-0.4,3.48,1,0
16223.968,-0.292,0.023,0.917,-4.12,1.56,3.91,1,0
16223.984,-0.292,0.011,0.92,-5.62,3.05,3.14,1,0
16223.984,-0.301,0.018,0.948,-6.29,3.94,2.08,1,0
16224.0,-0.304,0.017,0.958,-6.1,3.45,0.58,1,0
16224.015,-0.309,0.033,0.975,-5.19,2.75,-0.52,1,0
16224.015,-0.314,0.045,0.985,-3.51,1.43,-0.95,1,0
16224.031,-0.303,0.049,0.984,-2.66,-0.09,-1.16,1,0
16224.031,-0.292,0.052,0.975,-2.26,-0.85,-1.89,1,0
16224.046,-0.282,0.057,0.969,-1.89,-1.34,-2.99,1,0
16224.062,-0.28,0.061,0.963,-1.86,-1.43,-4.06,1,0
16224.062,-0.265,0.064,0.962,-1.95,-1.1,-3.97,1,0
16224.078,-0.269,0.076,0.96,-2.81,-0.46,-3.17,1,0
16224.093,-0.278,0.072,0.974,-3.42,-0.58,-1.77,1,0
16224.093,-0.278,0.082,0.981,-3.6,-1.8,-0.43,1,0
16224.109,-0.293,0.083,0.993,-2.96,-3.78,0.73,1,0
16224.125,-0.286,0.078,0.983,-2.04,-6.35,2.35,1,0
16224.125,-0.275,0.081,0.972,-1.53,-7.81,3.85,1,0
16224.14,-0.273,0.067,0.955,-1.74,-7.97,5.07,1,0
16224.14,-0.261,0.052,0.94,-3.36,-6.96,6.16,1,0
16224.156,-0.256,0.037,0.919,-5.58,-5.04,5.92,1,0
16224.171,-0.257,0.021,0.917,-6.68,-1.83,4.58,1,0
16224.171,-0.273,0.03,0.929,-6.23,2.2,3.48,1,0
16224.187,-0.3,0.039,0.959,-6.13,4.58,2.84,1,0
16224.203,-0.324,0.036,0.996,-5.46,4.21,3.45,1,0
16224.203,-0.326,0.04,1.005,-4.18,1.62,5.01,1,0
16224.218,-0.31,0.034,0.997,-3.39,-1.92,5.58,1,0
16224.234,-0.291,0.032,0.973,-0.43,-5.55,3.33,1,0
16224.234,-0.296,0.026,0.96,2.11,-5.65,1.46,1,0
16224.25,-0.288,0.008,0.948,4.55,-4.43,-0.92,1,0
16224.25,-0.278,0.009,0.916,5.92,-1.34,-3.02,1,0
16224.265,-0.289,0.023,0.906,5.74,2.17,-4.39,1,0
16224.281,-0.3,0.025,0.884,6.68,5.92,-4.64,1,0
16224.281,-0.326,0.057,0.904,4.58,9.09,-3.14,1,0
16224.296,-0.345,0.048,0.943,-0.7,8.94,-1.28,1,0
16224.312,-0.336,0.047,0.959,-4.55,6.38,0.79,1,0
16224.328,-0.317,0.048,0.957,-5.37,4.15,2.29,1,0
16224.328,-0.294,0.045,0.948,-5.1,3.02,1.83,1,0
16224.343,-0.289,0.039,0.945,-3.57,3.6,0.31,1,0
16224.343,-0.3,0.043,0.947,-2.26,4.12,-1.07,1,0
16224.359,-0.306,0.047,0.949,-1.77,3.72,-1.92,1,0
16224.375,-0.302,0.043,0.942,-2.14,3.39,-2.38,1,0
16224.375,-0.303,0.036,0.942,-2.01,3.85,-2.5,1,0
16224.39,-0.316,0.035,0.952,-1.37,4.55,-2.9,1,0
16224.406,-0.333,0.033,0.973,-1.13,4.21,-3.2,1,0
16224.406,-0.334,0.035,0.981,-0.49,2.72,-2.87,1,0
16224.421,-0.325,0.039,0.975,-0.09,1.01,-2.26,1,0
16224.421,-0.313,0.04,0.973,-0.09,-0.06,-1.77,1,0
16224.437,-0.308,0.042,0.973,0.18,-0.58,-1.43,1,0
16224.453,-0.302,0.052,0.961,0.37,-1.13,-0.85,1,0
16224.453,-0.299,0.049,0.961,-1.1,-1.31,0.12,1,0
16224.468,-0.295,0.034,0.964,-2.23,-1.74,1.19,1,0
16224.484,-0.286,0.02,0.968,-2.38,-2.44,1.28,1,0
16224.484,-0.288,0.016,0.965,-1.83,-3.3,0.46,1,0
16224.5,-0.299,0.017,0.985,-0.98,-4.64,-0.82,1,0
16224.515,-0.304,0.018,0.99,0.58,-7.35,-1.71,1,0
16224.515,-0.288,0.021,0.983,1.4,-10.59,-2.23,1,0
16224.531,-0.275,0.022,0.974,2.38,-12.67,-2.87,1,0
16224.546,-0.277,0.028,0.97,4.36,-13.67,-3.3,1,0
16224.546,-0.289,0.041,0.973,6.29,-15.23,-3.39,1,0
16224.562,-0.278,0.051,0.96,6.68,-17.52,-2.38,1,0
16224.562,-0.254,0.059,0.939,5.19,-18.25,-1.53,1,0
16224.578,-0.245,0.054,0.918,4.94,-16.6,-0.82,1,0
16224.593,-0.244,0.068,0.904,4.94,-12.88,0.49,1,0
16224.609,-0.25,0.072,0.898,3.66,-8.45,1.8,1,0
16224.609,-0.252,0.066,0.905,1.4,-4.52,3.36,1,0
16224.609,-0.268,0.066,0.935,-0.43,-1.25,4.79,1,0
16224.625,-0.284,0.062,0.961,-1.59,-0.24,6.47,1,0
16224.64,-0.27,0.047,0.957,-2.17,-0.7,7.26,1,0
16224.64,-0.262,0.043,0.947,-0.79,-0.03,7.02,1,0
16224.656,-0.283,0.046,0.968,0.27,0.61,6.29,1,0
16224.671,-0.293,0.046,0.975,0.76,-0.64,5.98,1,0
16224.671,-0.286,0.045,0.973,0.7,-2.38,6.13,1,0
16224.687,-0.28,0.046,0.966,0.27,-3.78,5.83,1,0
16224.703,-0.265,0.046,0.951,-0.06,-4.46,5.07,1,0
16224.703,-0.256,0.043,0.942,-0.58,-3.85,3.78,1,0
16224.718,-0.264,0.04,0.932,-0.49,-2.14,2.47,1,0
16224.734,-0.274,0.042,0.93,-0.06,0.37,1.74,1,0
16224.734,-0.281,0.046,0.934,-0.58,2.32,1.22,1,0
16224.75,-0.294,0.046,0.96,-1.89,3.05,0.73,1,0
16224.765,-0.319,0.044,0.996,-1.5,2.04,0.82,1,0
16224.765,-0.305,0.048,0.992,-0.27,-1.1,2.01,1,0
16224.781,-0.275,0.043,0.969,-0.24,-4.12,1.8,1,0
16224.781,-0.269,0.04,0.951,0.58,-4.88,0.43,1,0
16224.796,-0.288,0.049,0.94,2.17,-3.85,-0.34,1,0
16224.812,-0.298,0.061,0.934,2.17,-2.9,0.31,1,0
16224.828,-0.287,0.059,0.925,0.03,-1.95,1.46,1,0
16224.828,-0.282,0.051,0.926,-1.4,0.03,2.32,1,0
16224.843,-0.287,0.046,0.932,-1.22,2.56,2.84,1,0
16224.843,-0.307,0.046,0.964,-1.16,4.46,3.33,1,0
16224.859,-0.319,0.036,0.998,-2.41,2.66,3.94,1,0
16224.875,-0.303,0.028,0.999,-2.23,-1.22,4.27,1,0
16224.875,-0.274,0.021,0.968,-0.4,-3.85,3.2,1,0
16224.89,-0.259,0.023,0.936,1.43,-3.69,0.95,1,0
16224.906,-0.266,0.033,0.924,2.23,-1.5,-1.28,1,0
16224.906,-0.287,0.049,0.937,2.2,1.28,-1.86,1,0
16224.921,-0.295,0.051,0.948,1.86,2.56,-1.01,1,0
16224.921,-0.291,0.053,0.951,-0.52,2.59,0.43,1,0
16224.937,-0.284,0.043,0.968,-2.72,2.17,1.56,1,0
16224.953,-0.277,0.037,0.971,-2.26,1.77,2.17,1,0
16224.953,-0.275,0.04,0.976,-1.19,0.73,2.29,1,0
16224.968,-0.265,0.042,0.972,-1.22,-0.85,1.37,1,0
16224.984,-0.26,0.038,0.961,-1.04,-1.62,-0.21,1,0
16224.984,-0.267,0.042,0.951,0.09,-1.28,-1.46,1,0
16225.0,-0.279,0.05,0.942,0.89,-0.4,-1.8,1,0
16225.015,-0.292,0.054,0.945,-0.03,0.64,-1.19,1,0
16225.015,-0.295,0.049,0.953,-1.92,0.89,0.18,1,0
16225.031,-0.287,0.042,0.965,-3.08,0.7,1.46,1,0
16225.031,-0.29,0.04,0.975,-2.23,0.4,1.77,1,0
16225.046,-0.285,0.041,0.967,-1.25,-0.89,1.65,1,0
16225.062,-0.271,0.036,0.956,-1.13,-1.95,0.85,1,0
16225.062,-0.272,0.039,0.939,-0.49,-1.65,-0.43,1,0
16225.078,-0.277,0.046,0.923,0.15,-0.4,-1.28,1,0
16225.093,-0.276,0.049,0.92,-0.43,1.71,-1.28,1,0
16225.093,-0.277,0.053,0.914,-1.5,4.21,-0.58,1,0
16225.109,-0.283,0.054,0.915,-3.33,6.47,0.21,1,0
16225.125,-0.294,0.05,0.929,-5.19,8.24,1.31,1,0
16225.125,-0.291,0.05,0.941,-7.17,8.58,2.29,1,0
16225.14,-0.295,0.045,0.964,-8.73,8.03,2.41,1,0
16225.14,-0.302,0.041,0.97,-8.58,6.93,2.41,1,0
16225.156,-0.294,0.053,0.951,-8.97,5.37,2.04,1,0
16225.171,-0.275,0.049,0.947,-10.28,4.43,1.19,1,0
16225.171,-0.279,0.041,0.94,-11.32,4.76,0.0,1,0
16225.187,-0.276,0.04,0.944,-10.83,5.46,-0.79,1,0
16225.203,-0.288,0.034,0.957,-9.98,6.01,-1.01,1,0
16225.203,-0.302,0.034,0.955,-11.23,5.1,-0.82,1,0
16225.218,-0.301,0.032,0.965,-11.08,4.0,-1.04,1,0
16225.234,-0.305,0.021,0.976,-10.44,2.72,-0.76,1,0
16225.234,-0.308,0.025,0.97,-9.83,1.53,-0.85,1,0
16225.25,-0.301,0.013,0.958,-8.73,0.79,-1.46,1,0
16225.265,-0.298,0.018,0.955,-7.29,0.64,-1.53,1,0
16225.265,-0.305,0.013,0.96,-6.9,0.55,-1.68,1,0
16225.281,-0.311,0.008,0.96,-7.05,0.21,-1.5,1,0
16225.281,-0.314,0.009,0.964,-6.13,-0.15,-0.7,1,0
16225.296,-0.305,0.003,0.961,-5.22,-0.58,-0.18,1,0
16225.312,-0.303,0.0,0.955,-4.21,-0.27,-0.15,1,0
16225.312,-0.315,0.012,0.953,-3.23,0.15,0.03,1,0
16225.328,-0.317,0.011,0.96,-3.97,-0.46,0.46,1,0
16225.343,-0.311,0.005,0.96,-4.24,-1.19,1.07,1,0
16225.343,-0.302,0.004,0.951,-4.46,-1.83,1.34,1,0
16225.359,-0.302,0.002,0.948,-4.7,-1.71,1.01,1,0
16225.375,-0.303,-0.003,0.94,-4.76,-1.37,0.95,1,0
16225.375,-0.295,-0.009,0.94,-5.13,-0.67,0.64,1,0
16225.39,-0.297,-0.018,0.948,-4.12,0.4,0.09,1,0
16225.406,-0.301,-0.01,0.954,-1.65,1.5,-0.06,1,0
16225.406,-0.303,-0.003,0.957,-0.73,1.53,-0.79,1,0
