timestamp,ax,ay,az,gx,gy,gz,orient_label,motion_label
16188.562,-0.3,-0.091,0.907,-8.82,-3.78,18.74,1,0
16188.562,-0.307,-0.106,0.893,-8.67,-3.51,17.49,1,0
16188.578,-0.32,-0.123,0.888,-8.3,-3.6,15.78,1,0
16188.593,-0.313,-0.131,0.877,-7.02,-3.72,13.49,1,0
16188.593,-0.314,-0.129,0.864,-4.97,-2.84,10.1,1,0
16188.609,-0.325,-0.125,0.873,-3.91,-1.4,6.41,1,0
16188.625,-0.328,-0.116,0.89,-2.35,-0.27,2.78,1,0
16188.625,-0.324,-0.101,0.896,0.21,0.73,-0.37,1,0
16188.64,-0.328,-0.088,0.903,2.69,1.74,-3.57,1,0
16188.64,-0.341,-0.075,0.92,4.52,2.56,-6.47,1,0
16188.656,-0.349,-0.059,0.938,5.71,2.62,-8.12,1,0
16188.671,-0.349,-0.045,0.946,6.35,2.41,-8.73,1,0
16188.671,-0.35,-0.034,0.955,7.05,2.84,-8.06,1,0
16188.687,-0.356,-0.031,0.962,6.71,3.33,-5.83,1,0
16188.703,-0.356,-0.039,0.974,4.3,3.08,-2.5,1,0
16188.703,-0.35,-0.059,0.977,1.19,1.95,1.31,1,0
16188.718,-0.334,-0.087,0.976,-1.77,0.89,4.64,1,0
16188.734,-0.33,-0.145,0.978,-4.97,0.12,6.93,1,0
16188.75,-0.34,-0.158,0.998,-5.07,-0.67,6.23,1,0
16188.75,-0.358,-0.172,1.011,-3.02,-2.29,5.28,1,0
16188.765,-0.349,-0.168,0.999,-0.43,-4.67,4.39,1,0
16188.781,-0.326,-0.16,0.973,1.25,-6.78,1.83,1,0
16188.781,-0.322,-0.152,0.952,2.17,-7.35,-2.14,1,0
16188.796,-0.328,-0.137,0.949,3.39,-6.78,-5.07,1,0
16188.812,-0.342,-0.12,0.942,4.0,-6.16,-6.23,1,0
16188.812,-0.343,-0.104,0.936,2.66,-6.2,-6.41,1,0
16188.828,-0.34,-0.094,0.928,1.22,-6.01,-6.44,1,0
16188.843,-0.347,-0.085,0.931,2.01,-4.67,-6.01,1,0
16188.843,-0.358,-0.069,0.94,3.05,-4.91,-5.4,1,0
16188.859,-0.362,-0.059,0.936,3.05,-5.49,-4.12,1,0
16188.859,-0.352,-0.054,0.914,2.14,-5.43,-3.14,1,0
16188.875,-0.351,-0.062,0.905,1.34,-5.04,-2.5,1,0
16188.89,-0.352,-0.073,0.902,1.25,-4.18,-1.77,1,0
16188.906,-0.361,-0.085,0.897,2.99,-3.11,-0.06,1,0
16188.921,-0.355,-0.079,0.894,2.99,-2.47,0.06,1,0
16188.921,-0.35,-0.082,0.891,1.92,-1.22,-0.37,1,0
16188.937,-0.339,-0.075,0.898,0.89,1.13,-0.31,1,0
16188.953,-0.327,-0.073,0.915,-0.34,4.06,-0.21,1,0
16188.953,-0.33,-0.072,0.943,-1.5,6.5,-0.21,1,0
16188.968,-0.33,-0.071,0.97,-2.17,6.78,0.34,1,0
16188.984,-0.326,-0.078,0.986,-1.95,5.04,0.61,1,0
16188.984,-0.317,-0.084,0.987,-0.73,2.04,0.7,1,0
16189.0,-0.305,-0.09,0.964,0.85,-1.22,0.49,1,0
16189.0,-0.299,-0.094,0.932,1.74,-4.0,-0.46,1,0
16189.015,-0.298,-0.098,0.906,2.41,-5.1,-1.46,1,0
16189.031,-0.299,-0.101,0.88,3.11,-4.43,-1.86,1,0
16189.031,-0.295,-0.101,0.864,2.26,-2.29,-1.89,1,0
16189.046,-0.292,-0.106,0.875,0.79,0.79,-2.11,1,0
16189.062,-0.298,-0.106,0.892,-0.49,3.6,-2.47,1,0
16189.078,-0.322,-0.097,0.953,-2.5,6.62,-4.49,1,0
16189.093,-0.343,-0.094,0.977,-0.73,6.2,-4.76,1,0
16189.093,-0.349,-0.084,0.986,1.1,3.78,-4.3,1,0
16189.109,-0.344,-0.075,0.981,0.85,0.73,-4.33,1,0
16189.109,-0.338,-0.075,0.97,0.21,-1.43,-4.27,1,0
16189.125,-0.335,-0.068,0.963,1.04,-1.62,-3.6,1,0
16189.14,-0.347,-0.056,0.963,1.95,-0.7,-2.04,1,0
16189.14,-0.353,-0.05,0.961,0.4,-0.73,0.64,1,0
16189.156,-0.349,-0.06,0.959,-2.53,-1.25,3.81,1,0
16189.171,-0.343,-0.071,0.952,-4.55,-1.65,7.02,1,0
16189.171,-0.344,-0.082,0.949,-5.8,-1.95,9.31,1,0
16189.187,-0.341,-0.102,0.947,-6.71,-2.72,10.16,1,0
16189.203,-0.336,-0.118,0.942,-5.98,-3.54,9.55,1,0
16189.203,-0.338,-0.124,0.934,-4.09,-4.12,8.0,1,0
16189.218,-0.342,-0.123,0.932,-2.75,-4.21,5.86,1,0
16189.234,-0.349,-0.122,0.929,-2.56,-4.33,4.03,1,0
16189.25,-0.344,-0.118,0.925,-2.66,-5.25,2.29,1,0
16189.25,-0.334,-0.125,0.915,-2.72,-5.31,0.67,1,0
16189.265,-0.333,-0.12,0.912,-1.28,-4.15,-1.46,1,0
16189.281,-0.346,-0.106,0.914,0.85,-2.35,-3.14,1,0
16189.296,-0.355,-0.094,0.921,1.19,-1.28,-4.15,1,0
16189.296,-0.355,-0.089,0.927,-0.06,-0.58,-3.94,1,0
16189.312,-0.351,-0.09,0.926,-1.8,0.31,-3.2,1,0
16189.312,-0.346,-0.086,0.931,-3.81,1.46,-2.14,1,0
16189.328,-0.341,-0.084,0.936,-5.19,2.47,-0.98,1,0
16189.343,-0.333,-0.085,0.95,-5.74,2.99,-0.27,1,0
16189.343,-0.327,-0.079,0.97,-8.03,2.44,-0.58,1,0
16189.359,-0.331,-0.086,0.971,-6.71,1.74,-0.55,1,0
16189.375,-0.328,-0.076,0.974,-4.73,0.76,-0.58,1,0
16189.375,-0.328,-0.075,0.966,-3.54,-0.82,-1.25,1,0
16189.39,-0.328,-0.083,0.959,-2.56,-2.32,-1.07,1,0
16189.39,-0.326,-0.088,0.948,-1.16,-3.17,-0.55,1,0
16189.421,-0.327,-0.1,0.91,0.27,-3.27,-0.52,1,0
16189.421,-0.328,-0.105,0.901,-0.31,-3.02,-0.95,1,0
16189.437,-0.332,-0.114,0.9,0.12,-2.62,-1.65,1,0
16189.453,-0.34,-0.118,0.904,2.14,-2.5,-1.83,1,0
16189.453,-0.347,-0.119,0.899,3.97,-2.66,-2.35,1,0
16189.468,-0.353,-0.129,0.897,4.49,-2.72,-3.11,1,0
16189.484,-0.357,-0.13,0.898,5.31,-2.01,-3.97,1,0
16189.484,-0.372,-0.119,0.907,7.05,-0.7,-4.43,1,0
16189.5,-0.373,-0.107,0.916,8.06,-0.06,-3.94,1,0
16189.515,-0.365,-0.1,0.919,7.45,0.24,-3.23,1,0
16189.515,-0.358,-0.098,0.921,5.83,0.89,-2.47,1,0
16189.531,-0.353,-0.097,0.932,3.88,1.68,-1.62,1,0
16189.531,-0.345,-0.1,0.936,2.47,2.53,-1.16,1,0
16189.546,-0.335,-0.106,0.938,1.89,3.75,-1.37,1,0
16189.562,-0.329,-0.103,0.953,1.86,4.79,-2.26,1,0
16189.562,-0.336,-0.098,0.97,2.04,5.07,-3.33,1,0
16189.593,-0.326,-0.087,0.974,4.64,2.99,-4.12,1,0
16189.593,-0.32,-0.083,0.963,5.16,1.92,-4.73,1,0
16189.609,-0.316,-0.078,0.958,4.15,1.28,-4.94,1,0
16189.609,-0.327,-0.076,0.955,3.66,1.1,-4.49,1,0
16189.625,-0.336,-0.073,0.954,3.08,0.49,-2.96,1,0
16189.64,-0.331,-0.073,0.949,1.71,-0.82,-1.31,1,0
16189.64,-0.323,-0.082,0.934,0.37,-1.83,-0.49,1,0
16189.656,-0.319,-0.09,0.924,0.0,-1.5,-0.4,1,0
16189.671,-0.331,-0.092,0.918,0.06,-0.27,-1.1,1,0
16189.671,-0.352,-0.1,0.925,-0.12,1.01,-1.86,1,0
16189.687,-0.364,-0.106,0.925,0.27,1.86,-2.2,1,0
16189.703,-0.367,-0.111,0.915,0.03,2.41,-2.35,1,0
16189.703,-0.362,-0.12,0.914,-1.98,3.02,-2.47,1,0
16189.718,-0.353,-0.128,0.915,-3.75,3.85,-2.47,1,0
16189.734,-0.338,-0.132,0.911,-5.28,4.61,-2.87,1,0
16189.734,-0.33,-0.134,0.914,-6.26,5.49,-4.39,1,0
16189.75,-0.332,-0.126,0.916,-4.67,7.14,-7.39,1,0
16189.765,-0.331,-0.121,0.915,-4.18,7.9,-8.51,1,0
16189.781,-0.339,-0.115,0.913,-4.36,8.39,-9.77,1,0
16189.781,-0.346,-0.096,0.921,-4.64,8.64,-10.13,1,0
16189.796,-0.351,-0.077,0.92,-4.94,8.55,-8.73,1,0
16189.812,-0.348,-0.065,0.925,-6.29,8.15,-6.2,1,0
16189.812,-0.346,-0.069,0.928,-7.6,7.14,-2.14,1,0
16189.828,-0.344,-0.065,0.927,-8.79,6.74,-1.1,1,0
16189.828,-0.346,-0.072,0.934,-8.82,6.59,-0.67,1,0
16189.843,-0.356,-0.082,0.946,-8.15,6.32,-0.64,1,0
16189.859,-0.359,-0.086,0.968,-7.42,5.89,-1.53,1,0
16189.875,-0.368,-0.09,0.973,-5.1,5.19,-2.47,1,0
16189.875,-0.364,-0.085,0.976,-3.14,3.88,-2.9,1,0
16189.89,-0.365,-0.094,0.968,-1.13,2.47,-3.23,1,0
16189.89,-0.358,-0.092,0.952,-0.15,1.07,-2.96,1,0
16189.906,-0.354,-0.093,0.939,-0.85,0.24,-2.53,1,0
16189.921,-0.357,-0.105,0.929,-1.31,0.0,-1.22,1,0
16189.921,-0.353,-0.11,0.922,-1.37,0.58,0.92,1,0
16189.937,-0.348,-0.122,0.919,-2.29,1.22,2.41,1,0
16189.953,-0.36,-0.14,0.922,-3.23,1.65,2.93,1,0
16189.953,-0.369,-0.158,0.924,-3.39,1.74,2.99,1,0
16189.968,-0.366,-0.169,0.925,-2.87,1.68,2.35,1,0
16189.984,-0.365,-0.178,0.916,-1.56,1.59,0.34,1,0
16189.984,-0.372,-0.178,0.906,-0.34,1.56,-2.29,1,0
16190.0,-0.376,-0.171,0.902,0.58,1.86,-5.1,1,0
16190.0,-0.383,-0.158,0.9,1.4,2.47,-7.42,1,0
16190.015,-0.385,-0.141,0.902,2.5,3.27,-8.55,1,0
16190.031,-0.384,-0.12,0.901,3.27,3.94,-8.97,1,0
16190.046,-0.388,-0.098,0.899,2.93,4.58,-8.73,1,0
16190.046,-0.391,-0.09,0.904,1.56,4.85,-7.63,1,0
16190.062,-0.386,-0.087,0.906,0.34,4.94,-5.71,1,0
16190.062,-0.381,-0.085,0.907,-0.52,5.16,-4.06,1,0
16190.078,-0.382,-0.086,0.91,-1.28,5.07,-3.05,1,0
16190.093,-0.371,-0.093,0.909,-1.4,4.82,-2.14,1,0
16190.093,-0.366,-0.097,0.91,-1.07,5.07,-1.28,1,0
16190.109,-0.37,-0.104,0.914,-1.1,5.04,-0.95,1,0
16190.125,-0.369,-0.114,0.92,-1.92,4.61,-0.95,1,0
16190.125,-0.364,-0.122,0.921,-1.74,4.33,-0.98,1,0
16190.14,-0.37,-0.123,0.917,-0.61,4.43,-1.1,1,0
16190.14,-0.371,-0.12,0.919,-0.24,4.46,-0.76,1,0
16190.156,-0.368,-0.118,0.922,-0.89,4.03,-0.27,1,0
16190.171,-0.372,-0.123,0.924,-0.61,3.72,0.55,1,0
16190.171,-0.37,-0.126,0.921,-0.12,3.48,1.65,1,0
16190.187,-0.375,-0.131,0.925,-0.64,3.48,2.11,1,0
16190.203,-0.389,-0.146,0.94,-1.28,2.96,2.08,1,0
16190.203,-0.386,-0.153,0.939,-1.46,1.46,1.95,1,0
16190.218,-0.379,-0.156,0.936,-0.4,0.37,0.92,1,0
16190.234,-0.381,-0.155,0.929,1.13,-0.09,-0.98,1,0
16190.234,-0.384,-0.149,0.929,2.14,-0.37,-2.62,1,0
16190.25,-0.38,-0.144,0.928,2.87,-0.89,-3.88,1,0
16190.25,-0.378,-0.135,0.921,4.06,-1.25,-5.04,1,0
16190.265,-0.38,-0.126,0.913,5.22,-1.1,-6.1,1,0
16190.281,-0.382,-0.12,0.914,5.98,-0.92,-6.96,1,0
16190.281,-0.388,-0.117,0.91,6.65,-0.79,-7.2,1,0
16190.296,-0.387,-0.112,0.899,6.93,-0.76,-6.56,1,0
16190.312,-0.382,-0.106,0.894,6.26,-0.64,-5.49,1,0
16190.312,-0.379,-0.106,0.892,4.88,-0.27,-4.91,1,0
16190.328,-0.385,-0.112,0.907,4.3,0.34,-4.27,1,0
16190.343,-0.39,-0.112,0.915,4.73,0.18,-3.51,1,0
16190.343,-0.382,-0.112,0.916,4.91,-0.82,-3.6,1,0
16190.359,-0.376,-0.113,0.919,5.55,-1.92,-4.39,1,0
16190.359,-0.371,-0.109,0.914,6.65,-2.81,-5.01,1,0
16190.375,-0.362,-0.111,0.905,7.57,-3.14,-5.8,1,0
16190.39,-0.357,-0.113,0.898,8.82,-2.59,-6.9,1,0
16190.39,-0.368,-0.11,0.899,9.74,-1.65,-7.84,1,0
16190.406,-0.377,-0.109,0.908,9.77,-0.92,-8.42,1,0
16190.421,-0.383,-0.107,0.917,10.04,-0.55,-8.61,1,0
16190.421,-0.383,-0.105,0.921,10.59,-0.49,-8.03,1,0
16190.437,-0.383,-0.099,0.921,9.83,-0.76,-6.99,1,0
16190.453,-0.376,-0.102,0.914,7.42,-1.19,-5.28,1,0
16190.453,-0.367,-0.116,0.902,4.18,-1.1,-3.81,1,0
16190.468,-0.355,-0.136,0.894,2.11,0.21,-3.57,1,0
16190.484,-0.345,-0.147,0.897,1.37,2.84,-4.58,1,0
16190.484,-0.346,-0.154,0.91,0.82,5.92,-6.74,1,0
16190.5,-0.345,-0.156,0.935,0.49,8.39,-9.49,1,0
16190.5,-0.346,-0.15,0.954,0.95,9.31,-12.48,1,0
16190.515,-0.354,-0.137,0.982,1.74,9.0,-14.89,1,0
16190.531,-0.364,-0.113,0.996,3.05,6.84,-16.05,1,0
16190.531,-0.369,-0.092,1.002,3.48,3.17,-16.24,1,0
16190.546,-0.368,-0.076,0.992,3.85,-0.49,-15.59,1,0
16190.562,-0.368,-0.065,0.978,5.1,-3.2,-13.92,1,0
16190.562,-0.371,-0.053,0.964,6.35,-5.01,-12.21,1,0
16190.578,-0.385,-0.058,0.953,6.78,-6.13,-10.65,1,0
16190.593,-0.393,-0.066,0.939,6.78,-7.42,-8.97,1,0
16190.593,-0.409,-0.074,0.931,7.72,-7.23,-6.74,1,0
16190.609,-0.417,-0.08,0.916,7.63,-7.39,-4.43,1,0
16190.625,-0.411,-0.096,0.889,7.63,-6.71,-2.17,1,0
16190.625,-0.411,-0.111,0.879,6.07,-5.68,-0.46,1,0
16190.64,-0.405,-0.12,0.891,4.39,-4.88,0.55,1,0
16190.64,-0.412,-0.126,0.891,3.81,-4.09,0.73,1,0
16190.656,-0.419,-0.128,0.895,4.46,-3.3,0.49,1,0
16190.671,-0.414,-0.117,0.875,5.55,-2.66,0.15,1,0
16190.671,-0.397,-0.111,0.873,5.04,-1.74,-0.24,1,0
16190.687,-0.386,-0.111,0.881,4.52,-0.58,-0.89,1,0
16190.703,-0.38,-0.112,0.889,5.58,0.76,-1.37,1,0
16190.703,-0.387,-0.11,0.896,7.05,1.68,-1.65,1,0
16190.718,-0.389,-0.109,0.901,7.72,1.74,-1.86,1,0
16190.734,-0.385,-0.112,0.9,7.97,1.62,-2.41,1,0
16190.734,-0.391,-0.12,0.903,8.97,1.65,-3.3,1,0
16190.75,-0.391,-0.118,0.901,10.77,1.53,-4.15,1,0
16190.765,-0.383,-0.117,0.899,12.21,0.98,-5.4,1,0
16190.765,-0.38,-0.12,0.897,13.58,0.52,-7.08,1,0
16190.781,-0.383,-0.128,0.895,15.96,-0.24,-9.28,1,0
16190.781,-0.384,-0.113,0.885,18.83,-1.04,-11.75,1,0
16190.796,-0.382,-0.102,0.881,24.72,-0.67,-15.93,1,0
16190.812,-0.373,-0.091,0.875,27.01,1.31,-16.69,1,0
16190.812,-0.379,-0.073,0.873,26.95,2.66,-16.36,1,0
16190.828,-0.385,-0.062,0.879,26.12,3.78,-15.11,1,0
16190.843,-0.388,-0.064,0.9,25.06,4.79,-13.43,1,0
16190.843,-0.39,-0.074,0.9,23.16,5.55,-11.66,1,0
16190.859,-0.377,-0.082,0.9,20.42,6.62,-10.59,1,0
16190.875,-0.367,-0.085,0.901,18.59,7.97,-10.65,1,0
16190.875,-0.363,-0.083,0.904,17.12,9.34,-11.08,1,0
16190.89,-0.363,-0.076,0.902,16.27,10.38,-11.44,1,0
16190.906,-0.362,-0.07,0.903,16.51,11.78,-11.51,1,0
16190.906,-0.357,-0.054,0.896,16.45,13.61,-11.29,1,0
16190.921,-0.361,-0.047,0.9,14.77,15.14,-10.74,1,0
16190.921,-0.366,-0.038,0.908,12.73,16.45,-9.74,1,0
16190.937,-0.375,-0.033,0.925,11.17,16.91,-8.55,1,0
16190.953,-0.384,-0.028,0.937,10.47,16.14,-7.23,1,0
16190.953,-0.391,-0.017,0.936,9.64,14.34,-6.04,1,0
16190.968,-0.395,-0.011,0.94,7.97,11.93,-5.43,1,0
16190.984,-0.399,-0.014,0.938,7.81,9.74,-4.79,1,0
16190.984,-0.395,-0.005,0.921,8.64,8.06,-3.97,1,0
16191.0,-0.392,-0.002,0.913,8.51,7.35,-3.45,1,0
16191.015,-0.393,-0.005,0.91,8.48,7.6,-2.99,1,0
16191.015,-0.402,0.002,0.911,8.45,8.09,-1.8,1,0
16191.031,-0.401,0.003,0.919,6.96,8.33,-0.52,1,0
16191.031,-0.402,-0.006,0.93,5.34,8.39,0.67,1,0
16191.046,-0.409,-0.012,0.935,4.85,8.21,1.59,1,0
16191.062,-0.425,-0.014,0.941,5.1,7.45,2.66,1,0
16191.062,-0.438,-0.015,0.937,5.52,6.04,4.21,1,0
16191.078,-0.439,-0.018,0.924,5.86,4.58,5.98,1,0
16191.093,-0.433,-0.025,0.912,5.07,3.69,7.39,1,0
16191.093,-0.426,-0.035,0.906,3.63,3.72,8.42,1,0
16191.109,-0.43,-0.047,0.91,3.11,4.06,8.88,1,0
16191.109,-0.44,-0.059,0.917,3.39,4.27,8.45,1,0
16191.125,-0.448,-0.068,0.918,4.18,3.72,7.69,1,0
16191.14,-0.45,-0.077,0.91,4.64,2.78,6.23,1,0
16191.14,-0.449,-0.089,0.906,5.19,2.08,4.36,1,0
16191.156,-0.439,-0.094,0.898,6.1,1.83,1.8,1,0
16191.171,-0.426,-0.097,0.895,6.96,2.2,-1.22,1,0
16191.171,-0.42,-0.098,0.903,8.09,2.81,-5.1,1,0
16191.187,-0.421,-0.096,0.913,9.89,3.42,-9.09,1,0
16191.203,-0.423,-0.084,0.923,11.9,3.6,-12.67,1,0
16191.203,-0.429,-0.078,0.92,13.79,3.3,-16.02,1,0
16191.218,-0.426,-0.06,0.928,15.44,3.14,-18.49,1,0
16191.218,-0.438,-0.054,0.935,16.79,2.66,-21.36,1,0
16191.234,-0.452,-0.038,0.93,18.43,2.11,-22.89,1,0
16191.25,-0.454,-0.016,0.921,18.62,1.43,-23.47,1,0
16191.25,-0.461,-0.006,0.919,16.72,1.04,-23.68,1,0
16191.265,-0.466,0.005,0.933,14.71,0.37,-23.07,1,0
16191.281,-0.48,0.029,0.923,14.13,-0.64,-21.0,1,0
16191.281,-0.471,0.049,0.907,11.87,-2.66,-17.82,1,0
16191.296,-0.452,0.04,0.889,9.98,-3.51,-14.62,1,0
16191.312,-0.448,0.041,0.89,9.49,-3.27,-11.38,1,0
16191.312,-0.436,0.043,0.875,9.98,-2.9,-8.12,1,0
16191.328,-0.42,0.041,0.865,8.7,-2.29,-5.04,1,0
16191.328,-0.412,0.03,0.87,5.92,-1.83,-2.93,1,0
16191.343,-0.405,0.016,0.875,3.88,-1.37,-1.31,1,0
16191.359,-0.403,0.002,0.892,2.93,-0.92,0.0,1,0
16191.359,-0.414,-0.004,0.895,3.02,-0.55,0.85,1,0
16191.375,-0.423,-0.003,0.902,2.44,-0.92,1.5,1,0
16191.39,-0.425,-0.016,0.913,1.77,-1.77,1.98,1,0
16191.406,-0.424,-0.014,0.912,2.01,-2.75,2.2,1,0
16191.406,-0.429,-0.013,0.902,2.26,-3.3,1.83,1,0
16191.421,-0.438,-0.016,0.9,2.04,-3.2,1.5,1,0
16191.421,-0.446,-0.014,0.899,3.08,-2.53,1.31,1,0
16191.437,-0.443,-0.007,0.895,4.49,-1.59,1.5,1,0
16191.453,-0.434,-0.001,0.896,3.97,-1.07,2.29,1,0
16191.453,-0.424,-0.0,0.901,2.56,-1.28,3.2,1,0
16191.468,-0.415,-0.004,0.902,1.56,-1.62,4.21,1,0
16191.484,-0.411,-0.004,0.905,1.16,-1.92,4.82,1,0
16191.484,-0.414,-0.012,0.902,1.25,-2.72,5.28,1,0
16191.5,-0.416,-0.016,0.896,1.56,-3.39,5.25,1,0
16191.5,-0.409,-0.019,0.89,2.04,-3.57,4.64,1,0
16191.515,-0.402,-0.021,0.882,1.92,-2.99,3.51,1,0
16191.531,-0.403,-0.019,0.884,1.59,-2.11,2.53,1,0
16191.531,-0.403,-0.016,0.889,1.8,-0.98,1.8,1,0
16191.546,-0.414,-0.007,0.898,2.04,0.03,1.1,1,0
16191.562,-0.421,0.001,0.896,2.14,0.4,0.7,1,0
16191.562,-0.421,0.009,0.896,2.01,0.52,0.89,1,0
16191.578,-0.428,0.014,0.894,1.8,0.79,1.16,1,0
16191.593,-0.443,0.021,0.901,1.37,1.1,1.98,1,0
16191.593,-0.441,0.028,0.904,-0.64,0.52,3.45,1,0
16191.609,-0.443,0.016,0.913,-2.75,-0.03,4.49,1,0
16191.625,-0.435,0.013,0.911,-3.39,-0.4,5.49,1,0
16191.64,-0.435,0.0,0.897,-3.39,0.67,5.71,1,0
16191.64,-0.436,-0.008,0.895,-3.91,0.79,5.07,1,0
16191.656,-0.432,-0.016,0.899,-4.21,0.7,4.24,1,0
16191.671,-0.433,-0.003,0.907,-4.85,0.55,2.93,1,0
16191.687,-0.433,-0.022,0.913,-2.29,0.43,2.59,1,0
16191.687,-0.445,-0.005,0.915,-0.15,-0.31,2.32,1,0
16191.703,-0.436,0.002,0.914,-1.01,-1.98,1.92,1,0
16191.703,-0.428,-0.001,0.91,-1.5,-3.27,1.8,1,0
16191.718,-0.422,0.004,0.9,-0.95,-3.69,1.92,1,0
16191.734,-0.422,0.006,0.892,-0.89,-3.36,2.53,1,0
16191.734,-0.42,0.001,0.892,-1.16,-2.87,3.17,1,0
16191.75,-0.418,-0.001,0.897,-1.16,-2.17,4.0,1,0
16191.765,-0.42,-0.002,0.902,-1.4,-1.89,4.24,1,0
16191.765,-0.422,-0.007,0.906,-1.65,-2.32,3.85,1,0
16191.781,-0.418,-0.008,0.899,-1.5,-3.05,3.08,1,0
16191.781,-0.417,-0.012,0.887,-0.82,-1.98,1.86,1,0
16191.812,-0.407,-0.016,0.886,-1.95,1.1,0.15,1,0
16191.812,-0.428,-0.007,0.908,-1.74,2.23,-0.55,1,0
16191.828,-0.443,0.0,0.912,-1.1,2.5,-0.55,1,0
16191.843,-0.455,0.011,0.917,-0.58,2.04,0.03,1,0
16191.859,-0.446,0.019,0.913,-1.25,0.79,1.01,1,0
16191.859,-0.443,0.02,0.911,-2.87,-0.03,1.86,1,0
16191.859,-0.44,0.014,0.913,-3.23,-0.34,3.11,1,0
16191.875,-0.43,0.014,0.906,-2.66,-0.52,4.85,1,0
16191.89,-0.425,0.008,0.896,-2.84,-0.64,5.98,1,0
16191.89,-0.421,-0.006,0.892,-3.78,-0.61,6.2,1,0
16191.906,-0.417,-0.014,0.895,-4.33,-0.7,5.8,1,0
16191.921,-0.411,-0.019,0.893,-4.06,-0.7,4.73,1,0
16191.937,-0.414,-0.025,0.889,-2.72,-0.4,3.3,1,0
16191.937,-0.42,-0.026,0.885,-1.95,0.09,2.01,1,0
16191.953,-0.421,-0.027,0.895,-1.86,0.18,0.67,1,0
16191.953,-0.418,-0.029,0.9,-1.07,0.27,-0.67,1,0
16191.984,-0.425,-0.021,0.893,1.28,1.43,-3.42,1,0
16191.984,-0.429,-0.021,0.89,1.46,2.29,-4.43,1,0
16192.0,-0.428,-0.023,0.89,1.59,3.69,-4.94,1,0
16192.0,-0.434,-0.019,0.906,2.32,5.07,-5.62,1,0
16192.015,-0.461,-0.008,0.943,3.14,4.7,-5.92,1,0
16192.031,-0.461,-0.016,0.933,4.39,1.19,-5.58,1,0
16192.031,-0.442,0.023,0.941,3.45,-1.71,-5.25,1,0
16192.046,-0.439,-0.01,0.917,4.76,-4.18,-5.28,1,0
16192.062,-0.434,0.012,0.888,4.36,-4.79,-4.82,1,0
16192.062,-0.43,0.008,0.883,4.0,-3.75,-3.91,1,0
16192.078,-0.427,0.003,0.872,3.54,-2.11,-2.93,1,0
16192.093,-0.425,0.01,0.891,2.17,-0.27,-1.46,1,0
16192.093,-0.425,-0.009,0.901,1.59,0.46,-0.64,1,0
16192.109,-0.428,-0.002,0.931,1.77,0.52,-0.27,1,0
16192.109,-0.427,-0.013,0.907,2.69,-0.49,-0.89,1,0
16192.125,-0.433,-0.013,0.925,2.59,-1.5,-1.68,1,0
16192.156,-0.437,-0.018,0.901,4.64,-5.62,-3.88,1,0
16192.156,-0.438,-0.019,0.885,6.41,-6.35,-5.1,1,0
16192.171,-0.438,-0.017,0.864,7.75,-6.38,-6.2,1,0
16192.171,-0.431,-0.005,0.857,8.21,-5.25,-6.99,1,0
16192.187,-0.428,-0.007,0.873,9.13,-3.85,-7.63,1,0
16192.203,-0.425,-0.001,0.868,10.56,-2.84,-8.06,1,0
16192.203,-0.417,0.01,0.895,11.05,-2.14,-8.0,1,0
16192.218,-0.409,0.015,0.902,11.72,-2.2,-8.36,1,0
16192.234,-0.4,0.03,0.907,11.05,-1.83,-7.87,1,0
16192.234,-0.403,0.04,0.905,9.92,-1.28,-6.38,1,0
16192.25,-0.411,0.056,0.892,8.3,-0.49,-3.63,1,0
16192.25,-0.413,0.069,0.873,5.55,0.58,0.06,1,0
16192.265,-0.409,0.076,0.855,1.71,1.77,3.81,1,0
16192.281,-0.403,0.081,0.851,-2.04,3.45,7.26,1,0
16192.296,-0.411,0.087,0.857,-4.91,5.65,10.59,1,0
16192.296,-0.423,0.088,0.864,-7.42,7.14,13.89,1,0
16192.312,-0.435,0.085,0.871,-9.92,7.9,16.57,1,0
16192.312,-0.441,0.071,0.876,-11.69,8.09,19.23,1,0
16192.328,-0.444,0.058,0.878,-12.67,8.24,21.42,1,0
16192.343,-0.449,0.043,0.884,-13.0,8.3,23.22,1,0
16192.343,-0.454,0.028,0.897,-13.25,8.24,24.32,1,0
16192.359,-0.461,0.008,0.921,-13.34,7.97,24.72,1,0
16192.375,-0.458,-0.001,0.92,-12.51,6.56,24.66,1,0
16192.375,-0.449,-0.031,0.923,-14.19,5.89,23.71,1,0
16192.39,-0.46,-0.036,0.936,-14.77,5.49,21.91,1,0
16192.39,-0.454,-0.062,0.935,-13.0,4.3,19.84,1,0
16192.406,-0.448,-0.062,0.93,-11.72,3.27,16.94,1,0
16192.421,-0.445,-0.069,0.924,-10.59,1.83,12.57,1,0
16192.421,-0.446,-0.078,0.922,-8.42,0.58,7.9,1,0
16192.437,-0.449,-0.072,0.914,-4.58,-0.09,3.42,1,0
16192.453,-0.448,-0.062,0.905,-1.1,-0.76,-1.16,1,0
16192.453,-0.452,-0.058,0.909,0.4,-1.31,-5.19,1,0
16192.468,-0.451,-0.042,0.914,0.98,-2.41,-7.84,1,0
16192.484,-0.439,-0.014,0.92,4.61,-4.09,-11.35,1,0
16192.5,-0.441,-0.018,0.907,6.07,-5.04,-12.12,1,0
16192.515,-0.433,-0.008,0.882,7.23,-5.22,-12.09,1,0
16192.515,-0.435,0.005,0.886,6.62,-4.76,-12.27,1,0
16192.531,-0.439,-0.0,0.877,6.35,-4.33,-12.3,1,0
16192.531,-0.436,0.01,0.876,5.62,-3.36,-12.12,1,0
16192.546,-0.439,0.015,0.89,5.13,-2.62,-12.36,1,0
16192.562,-0.443,0.02,0.894,5.19,-2.62,-12.54,1,0
16192.578,-0.447,0.022,0.896,4.94,-2.87,-12.21,1,0
16192.578,-0.446,0.024,0.897,4.91,-3.2,-11.47,1,0
16192.593,-0.442,0.02,0.893,4.67,-3.11,-10.5,1,0
16192.593,-0.444,0.018,0.892,3.97,-2.56,-9.58,1,0
16192.609,-0.448,0.017,0.9,3.39,-2.47,-8.7,1,0
16192.625,-0.441,0.013,0.898,3.05,-2.78,-7.87,1,0
16192.625,-0.439,0.013,0.896,3.14,-3.05,-7.02,1,0
16192.64,-0.433,0.014,0.892,2.93,-3.23,-6.44,1,0
16192.656,-0.432,0.002,0.886,2.14,-2.66,-6.1,1,0
16192.671,-0.431,0.008,0.886,3.17,-2.11,-5.8,1,0
16192.671,-0.427,0.013,0.886,3.33,-1.86,-5.92,1,0
16192.687,-0.424,0.018,0.886,2.47,-1.34,-5.8,1,0
16192.703,-0.428,0.023,0.884,2.11,-0.34,-5.04,1,0
16192.718,-0.431,0.029,0.885,2.08,0.43,-3.69,1,0
16192.718,-0.433,0.032,0.886,1.4,0.55,-2.38,1,0
16192.718,-0.433,0.029,0.899,0.27,0.4,-0.85,1,0
16192.734,-0.425,0.023,0.877,-0.09,0.4,1.07,1,0
16192.75,-0.423,0.022,0.888,-0.82,1.1,2.66,1,0
16192.75,-0.433,0.01,0.885,-1.22,1.22,3.27,1,0
16192.765,-0.435,0.013,0.887,-1.86,1.25,3.72,1,0
16192.781,-0.432,0.003,0.887,-1.86,1.16,3.51,1,0
16192.796,-0.436,0.0,0.889,-1.31,1.46,3.33,1,0
16192.796,-0.439,-0.005,0.888,-0.98,1.65,2.81,1,0
16192.812,-0.441,-0.004,0.889,-0.89,2.01,2.01,1,0
16192.812,-0.45,-0.008,0.897,-0.21,2.29,1.83,1,0
16192.828,-0.441,-0.004,0.898,0.49,2.38,2.17,1,0
16192.843,-0.435,-0.003,0.903,0.64,2.66,2.44,1,0
16192.843,-0.447,-0.004,0.905,0.76,2.81,2.2,1,0
16192.859,-0.451,-0.001,0.907,0.43,1.74,2.04,1,0
16192.859,-0.448,-0.005,0.906,0.43,0.34,1.86,1,0
16192.875,-0.443,-0.004,0.905,0.7,-0.67,1.34,1,0
16192.89,-0.45,-0.002,0.901,1.34,-0.95,0.46,1,0
16192.89,-0.461,-0.003,0.903,1.53,-1.25,-0.21,1,0
16192.906,-0.459,0.0,0.909,1.34,-1.83,-0.43,1,0
16192.921,-0.448,0.0,0.91,1.46,-2.87,-0.67,1,0
16192.921,-0.449,-0.0,0.91,1.89,-3.72,-1.04,1,0
16192.937,-0.451,0.006,0.914,1.86,-4.76,-1.62,1,0
16192.953,-0.456,0.012,0.922,1.37,-6.2,-2.29,1,0
16192.953,-0.47,0.019,0.942,0.7,-8.15,-2.08,1,0
16192.968,-0.484,0.026,0.96,-0.46,-11.23,-1.07,1,0
16192.984,-0.491,0.036,0.953,-2.56,-15.53,0.12,1,0
16192.984,-0.505,0.054,0.981,-4.79,-20.94,2.29,1,0
16193.0,-0.489,0.042,1.015,-6.59,-30.52,3.85,1,0
16193.0,-0.464,0.043,1.029,-9.46,-40.07,5.01,1,0
16193.015,-0.445,0.045,0.943,-8.48,-47.27,8.33,1,0
16193.031,-0.406,0.067,0.908,-8.42,-52.16,14.1,1,0
16193.031,-0.367,0.055,0.862,-9.92,-53.8,17.67,1,0
16193.046,-0.346,0.048,0.808,-12.21,-50.39,20.63,1,0
16193.062,-0.345,0.037,0.814,-12.51,-44.5,24.99,1,0
16193.062,-0.344,0.034,0.837,-12.85,-39.22,27.8,1,0
16193.078,-0.346,0.036,0.866,-14.74,-35.46,29.15,1,0
16193.093,-0.346,0.037,0.904,-16.6,-33.17,29.73,1,0
16193.093,-0.368,0.038,0.954,-16.75,-31.53,29.85,1,0
16193.109,-0.376,0.042,0.975,-16.72,-32.56,31.71,1,0
16193.125,-0.363,0.042,0.962,-19.53,-34.46,35.62,1,0
16193.125,-0.343,0.024,0.92,-22.13,-34.18,38.67,1,0
16193.14,-0.316,-0.006,0.871,-23.53,-30.58,40.89,1,0
16193.14,-0.298,-0.033,0.839,-23.77,-23.38,41.63,1,0
16193.156,-0.3,-0.058,0.854,-22.0,-14.62,40.13,1,0
16193.171,-0.315,-0.07,0.893,-16.48,-6.38,37.05,1,0
16193.171,-0.345,-0.057,0.937,-9.8,-1.4,33.6,1,0
16193.187,-0.371,-0.046,0.987,-4.61,-1.31,31.01,1,0
16193.203,-0.372,-0.031,0.993,-0.49,-4.94,29.48,1,0
16193.203,-0.358,-0.033,0.965,0.37,-9.49,27.99,1,0
16193.218,-0.334,-0.046,0.921,-0.4,-11.96,26.03,1,0
16193.234,-0.309,-0.056,0.891,-0.24,-10.65,23.01,1,0
16193.234,-0.302,-0.059,0.883,0.24,-7.51,18.43,1,0
16193.25,-0.299,-0.057,0.881,0.27,-4.12,12.39,1,0
16193.25,-0.305,-0.052,0.899,1.31,-1.1,6.13,1,0
16193.265,-0.319,-0.046,0.935,3.54,0.37,0.85,1,0
16193.281,-0.329,-0.028,0.949,7.23,0.46,-2.08,1,0
16193.281,-0.334,0.008,0.974,9.46,-0.64,-2.84,1,0
16193.296,-0.339,0.023,1.003,7.9,-3.81,-3.14,1,0
16193.312,-0.329,0.027,1.001,7.32,-7.9,-1.86,1,0
16193.312,-0.316,0.036,0.96,7.66,-10.59,0.52,1,0
16193.343,-0.297,0.033,0.889,5.37,-7.81,3.54,1,0
16193.343,-0.3,0.031,0.87,3.39,-3.91,4.94,1,0
16193.359,-0.309,0.024,0.88,0.61,0.46,5.4,1,0
16193.375,-0.327,0.016,0.906,-0.27,4.06,5.68,1,0
16193.375,-0.343,0.019,0.933,-0.7,5.95,5.83,1,0
16193.39,-0.348,0.016,0.96,-1.56,5.49,5.4,1,0
16193.39,-0.338,0.011,0.972,-1.31,4.15,4.43,1,0
16193.406,-0.338,0.013,0.985,0.03,2.38,3.05,1,0
16193.421,-0.338,0.012,0.978,1.04,0.12,1.53,1,0
16193.421,-0.326,0.003,0.958,1.95,-1.31,0.73,1,0
16193.437,-0.319,-0.002,0.936,2.72,-1.07,0.0,1,0
16193.453,-0.314,-0.003,0.925,2.81,0.46,-0.4,1,0
16193.453,-0.31,-0.008,0.916,2.96,2.53,-0.73,1,0
16193.468,-0.317,-0.007,0.925,3.17,5.1,-1.31,1,0
16193.484,-0.342,-0.001,0.926,3.75,6.71,-2.08,1,0
16193.484,-0.344,0.011,0.941,3.39,6.71,-2.53,1,0
16193.5,-0.338,0.015,0.958,2.81,5.92,-3.08,1,0
16193.515,-0.345,0.02,0.973,2.56,4.49,-3.81,1,0
16193.515,-0.352,0.025,0.977,3.63,2.23,-3.91,1,0
16193.531,-0.336,0.034,0.96,3.97,-0.43,-3.88,1,0
16193.531,-0.324,0.032,0.938,3.69,-1.43,-4.0,1,0
16193.546,-0.34,0.034,0.933,3.91,-0.79,-3.54,1,0
16193.562,-0.336,0.036,0.901,4.12,0.06,-1.86,1,0
16193.562,-0.322,0.032,0.903,3.3,2.11,-0.09,1,0
16193.578,-0.317,0.03,0.905,2.04,4.06,0.61,1,0
16193.593,-0.334,0.025,0.912,1.98,6.81,0.89,1,0
16193.593,-0.324,0.031,0.925,0.82,7.93,1.31,1,0
16193.609,-0.326,0.023,0.929,0.67,8.79,1.16,1,0
16193.625,-0.352,0.03,0.951,0.61,8.94,0.73,1,0
16193.625,-0.362,0.031,0.965,0.98,6.87,0.76,1,0
16193.64,-0.351,0.031,0.963,0.64,4.0,0.55,1,0
16193.64,-0.352,0.026,0.952,0.64,2.01,-0.21,1,0
16193.656,-0.357,0.022,0.943,0.61,1.1,-0.98,1,0
16193.671,-0.354,0.023,0.938,0.58,0.49,-1.22,1,0
16193.671,-0.353,0.019,0.933,0.61,0.43,-1.4,1,0
16193.687,-0.348,0.01,0.932,0.43,0.85,-1.59,1,0
16193.703,-0.342,0.01,0.932,0.37,1.43,-1.92,1,0
16193.703,-0.341,0.012,0.939,0.76,2.2,-2.17,1,0
16193.718,-0.342,0.015,0.94,1.62,2.87,-2.23,1,0
16193.734,-0.339,0.015,0.943,2.2,3.14,-2.23,1,0
16193.734,-0.347,0.02,0.954,2.59,2.87,-2.14,1,0
16193.75,-0.352,0.016,0.95,2.75,1.1,-2.35,1,0
16193.75,-0.345,0.019,0.936,2.11,1.25,-2.99,1,0
16193.765,-0.335,0.019,0.919,1.83,2.62,-3.63,1,0
16193.781,-0.339,0.023,0.911,2.29,4.36,-3.75,1,0
16193.781,-0.354,0.035,0.92,2.44,5.65,-3.42,1,0
16193.796,-0.353,0.041,0.926,1.19,5.68,-3.3,1,0
16193.812,-0.348,0.036,0.936,0.58,5.52,-3.08,1,0
16193.828,-0.355,0.036,0.932,1.31,5.58,-2.47,1,0
16193.828,-0.357,0.04,0.937,1.13,5.16,-1.53,1,0
16193.843,-0.354,0.037,0.935,-0.15,3.91,-0.98,1,0
16193.859,-0.351,0.025,0.923,-0.37,3.6,-0.27,1,0
16193.875,-0.364,0.021,0.921,-0.37,4.06,-0.61,1,0
16193.875,-0.367,0.018,0.923,-0.67,4.18,-1.01,1,0
16193.89,-0.367,0.012,0.937,-1.04,4.06,-1.59,1,0
16193.89,-0.359,0.002,0.93,-0.03,3.88,-2.29,1,0
16193.906,-0.36,0.002,0.942,1.13,4.43,-3.39,1,0
16193.921,-0.361,-0.004,0.945,1.8,4.06,-5.07,1,0
16193.921,-0.361,-0.015,0.947,2.72,3.33,-6.68,1,0
16193.937,-0.362,-0.021,0.944,3.97,2.62,-8.7,1,0
16193.953,-0.358,-0.034,0.932,6.26,2.14,-11.44,1,0
16193.953,-0.37,-0.027,0.936,8.18,2.04,-15.23,1,0
16193.968,-0.384,-0.021,0.934,10.22,1.31,-18.95,1,0
16193.984,-0.375,0.002,0.935,12.09,0.31,-20.63,1,0
16193.984,-0.369,0.03,0.93,13.0,-0.34,-20.6,1,0
16194.0,-0.364,0.049,0.932,12.05,-0.7,-19.53,1,0
16194.015,-0.366,0.062,0.932,10.96,-0.67,-17.58,1,0
16194.031,-0.377,0.091,0.923,8.7,-0.55,-12.36,1,0
16194.031,-0.377,0.098,0.916,5.65,-0.76,-8.85,1,0
16194.046,-0.374,0.092,0.917,2.69,-0.49,-5.31,1,0
16194.062,-0.374,0.084,0.916,1.1,0.12,-2.35,1,0
16194.078,-0.378,0.076,0.915,0.24,0.67,-0.09,1,0
16194.078,-0.38,0.069,0.919,-0.49,1.07,1.59,1,0
16194.078,-0.376,0.06,0.923,-1.4,0.92,3.14,1,0
16194.093,-0.37,0.051,0.928,-2.04,0.58,4.3,1,0
16194.109,-0.368,0.038,0.935,-1.86,0.37,5.52,1,0
16194.125,-0.367,0.034,0.934,-1.43,0.21,6.56,1,0
16194.125,-0.366,0.028,0.936,-1.04,-0.06,7.05,1,0
16194.14,-0.365,0.02,0.939,-0.31,-0.55,7.42,1,0
16194.156,-0.366,0.016,0.938,0.89,-1.07,7.81,1,0
16194.156,-0.369,0.017,0.931,1.89,-1.62,8.27,1,0
16194.171,-0.364,0.019,0.924,2.35,-2.14,8.48,1,0
16194.171,-0.36,0.022,0.931,2.11,-2.44,7.84,1,0
16194.203,-0.376,0.027,0.94,3.69,-3.54,5.68,1,0
16194.203,-0.373,0.034,0.918,4.64,-3.94,5.31,1,0
16194.218,-0.369,0.037,0.917,3.42,-3.91,4.82,1,0
16194.234,-0.363,0.029,0.917,3.48,-3.39,4.12,1,0
16194.234,-0.361,0.026,0.912,3.97,-2.56,3.48,1,0
16194.25,-0.35,0.028,0.919,3.23,-1.89,1.77,1,0
16194.25,-0.36,0.013,0.903,5.04,0.46,0.64,1,0
16194.265,-0.378,0.021,0.931,5.92,2.01,-0.12,1,0
16194.281,-0.369,0.024,0.936,6.35,1.16,-0.76,1,0
16194.281,-0.368,0.032,0.926,7.48,0.92,-1.28,1,0
16194.296,-0.357,0.044,0.942,6.16,-0.4,-2.04,1,0
16194.312,-0.359,0.049,0.937,7.63,-0.95,-2.01,1,0
16194.312,-0.36,0.062,0.936,8.48,-1.1,-1.22,1,0
16194.328,-0.358,0.064,0.926,7.14,-2.2,-1.5,1,0
16194.343,-0.365,0.066,0.896,6.47,-1.4,-0.95,1,0
16194.343,-0.364,0.068,0.899,5.62,0.18,0.15,1,0
16194.375,-0.367,0.059,0.914,2.84,1.95,1.28,1,0
16194.375,-0.376,0.055,0.93,2.23,2.04,1.34,1,0
16194.39,-0.374,0.048,0.936,1.16,0.85,1.07,1,0
16194.39,-0.366,0.049,0.933,0.46,-0.43,0.24,1,0
16194.406,-0.37,0.047,0.925,0.61,-0.67,-1.07,1,0
16194.421,-0.375,0.058,0.923,0.79,0.0,-1.95,1,0
16194.421,-0.381,0.07,0.923,0.52,1.07,-1.98,1,0
16194.437,-0.388,0.078,0.928,-0.24,2.08,-1.62,1,0
16194.453,-0.391,0.08,0.93,-0.49,2.87,-0.18,1,0
16194.453,-0.391,0.081,0.932,-1.01,3.6,2.23,1,0
16194.468,-0.39,0.078,0.928,-2.47,3.88,4.39,1,0
16194.484,-0.387,0.069,0.928,-4.03,3.42,6.04,1,0
16194.484,-0.394,0.049,0.934,-3.05,2.62,6.5,1,0
16194.5,-0.371,0.069,0.911,1.53,0.34,5.1,1,0
16194.515,-0.362,0.054,0.887,0.27,-1.19,5.19,1,0
16194.515,-0.34,0.048,0.884,-2.75,-2.11,6.2,1,0
16194.531,-0.326,0.03,0.883,-3.57,-2.29,6.32,1,0
16194.531,-0.318,0.025,0.897,-3.33,-1.22,5.19,1,0
16194.546,-0.317,0.026,0.912,-1.71,0.37,3.72,1,0
16194.562,-0.336,0.028,0.924,-1.19,1.46,2.35,1,0
16194.562,-0.358,0.025,0.937,-1.4,1.37,1.4,1,0
16194.578,-0.367,0.025,0.934,-1.31,0.37,0.37,1,0
16194.593,-0.363,0.027,0.925,-1.01,-0.52,-1.4,1,0
16194.593,-0.365,0.025,0.915,-0.46,-0.18,-3.36,1,0
16194.609,-0.373,0.03,0.914,-0.24,0.92,-4.94,1,0
16194.609,-0.385,0.045,0.918,0.52,2.11,-6.13,1,0
16194.625,-0.391,0.055,0.921,1.19,2.99,-6.87,1,0
16194.64,-0.39,0.061,0.921,1.65,3.94,-6.71,1,0
16194.64,-0.389,0.065,0.922,1.62,5.07,-5.89,1,0
16194.656,-0.405,0.068,0.939,1.4,5.68,-4.85,1,0
16194.671,-0.411,0.068,0.956,0.61,4.46,-3.39,1,0
16194.687,-0.397,0.067,0.961,-0.73,1.86,-2.26,1,0
16194.687,-0.395,0.06,0.961,-0.92,-0.03,-1.59,1,0
16194.703,-0.392,0.053,0.947,-0.21,-1.5,-1.07,1,0
16194.703,-0.383,0.044,0.929,0.12,-1.95,-0.67,1,0
16194.718,-0.38,0.038,0.919,-0.06,-1.62,-0.79,1,0
16194.734,-0.377,0.031,0.912,-0.37,-1.4,-1.56,1,0
16194.734,-0.371,0.026,0.91,0.49,-0.73,-4.0,1,0
16194.75,-0.369,0.026,0.917,1.62,-0.92,-4.46,1,0
16194.75,-0.371,0.03,0.924,2.59,-1.53,-4.61,1,0
16194.765,-0.373,0.051,0.936,2.87,-3.08,-4.36,1,0
16194.781,-0.367,0.056,0.929,2.32,-4.64,-3.94,1,0
16194.781,-0.375,0.062,0.925,2.32,-4.91,-3.33,1,0
16194.796,-0.389,0.075,0.919,2.75,-5.01,-2.35,1,0
16194.812,-0.39,0.08,0.912,1.5,-5.46,-0.85,1,0
16194.812,-0.378,0.071,0.904,0.12,-5.28,0.24,1,0
16194.828,-0.372,0.067,0.895,0.12,-4.18,0.98,1,0
16194.843,-0.371,0.065,0.902,0.7,-2.59,0.95,1,0
16194.843,-0.373,0.056,0.906,1.65,-1.37,0.95,1,0
16194.859,-0.37,0.049,0.918,2.35,-0.49,1.13,1,0
16194.875,-0.376,0.037,0.939,3.33,-0.4,0.79,1,0
16194.875,-0.39,0.028,0.971,6.1,-1.34,0.67,1,0
16194.89,-0.413,0.034,1.027,11.23,-4.12,0.85,1,0
16194.906,-0.437,0.051,1.046,17.37,-9.43,1.92,1,0
16194.906,-0.425,0.075,1.046,20.75,-17.12,4.3,1,0
16194.921,-0.399,0.082,0.977,22.98,-23.19,6.5,1,0
16194.921,-0.379,0.118,0.939,20.66,-25.61,9.46,1,0
16194.937,-0.37,0.121,0.901,15.72,-26.37,12.05,1,0
16194.953,-0.331,0.108,0.858,9.49,-24.6,15.02,1,0
16194.953,-0.327,0.11,0.846,6.38,-18.77,16.57,1,0
16194.968,-0.348,0.109,0.893,4.21,-13.98,17.76,1,0
16194.984,-0.359,0.104,0.918,3.88,-11.75,18.95,1,0
16194.984,-0.361,0.112,0.947,2.2,-11.9,20.29,1,0
16195.0,-0.355,0.104,0.967,-0.03,-15.11,20.57,1,0
16195.0,-0.351,0.105,0.96,-1.62,-18.8,20.48,1,0
16195.015,-0.338,0.096,0.939,-2.62,-21.55,20.84,1,0
16195.031,-0.331,0.092,0.935,-3.94,-22.55,21.33,1,0
16195.046,-0.324,0.09,0.928,-3.54,-22.86,21.61,1,0
16195.046,-0.311,0.084,0.906,-4.58,-22.46,22.16,1,0
16195.062,-0.293,0.06,0.884,-8.48,-20.81,21.73,1,0
16195.062,-0.29,0.046,0.886,-10.77,-18.16,20.45,1,0
16195.078,-0.271,0.03,0.849,-11.17,-14.86,18.13,1,0
16195.093,-0.252,0.026,0.851,-13.98,-10.56,13.58,1,0
16195.093,-0.257,0.021,0.864,-17.24,-5.8,7.63,1,0
16195.109,-0.271,0.013,0.872,-22.77,-1.34,2.14,1,0
16195.125,-0.274,0.016,0.896,-28.23,2.26,-1.74,1,0
16195.125,-0.281,0.0,0.916,-34.46,4.91,-4.03,1,0
16195.14,-0.281,0.003,0.975,-38.79,6.78,-8.0,1,0
16195.14,-0.323,-0.013,1.052,-35.22,7.42,-12.36,1,0
16195.156,-0.338,-0.013,1.042,-25.3,5.52,-13.92,1,0
16195.171,-0.325,0.026,1.044,-16.57,2.5,-13.82,1,0
16195.171,-0.328,0.022,1.031,-11.23,-0.95,-14.89,1,0
16195.187,-0.305,0.036,0.988,-9.98,-4.12,-15.29,1,0
16195.203,-0.283,0.064,0.956,-9.55,-4.61,-14.56,1,0
16195.203,-0.286,0.051,0.934,-7.32,-2.32,-13.06,1,0
16195.218,-0.292,0.037,0.902,-3.97,1.25,-10.77,1,0
16195.234,-0.291,0.047,0.889,-2.04,5.77,-8.79,1,0
16195.234,-0.306,0.047,0.913,-3.75,9.52,-7.87,1,0
16195.25,-0.331,0.044,0.952,-6.2,10.32,-7.08,1,0
16195.25,-0.359,0.05,0.986,-6.62,7.97,-5.4,1,0
16195.265,-0.368,0.048,1.027,-6.87,2.01,-2.81,1,0
16195.281,-0.333,0.042,1.016,-6.93,-5.43,-1.65,1,0
16195.281,-0.297,0.044,0.974,-3.72,-9.52,-1.46,1,0
16195.296,-0.292,0.054,0.953,-0.09,-10.28,-2.41,1,0
16195.312,-0.296,0.066,0.942,2.11,-9.58,-3.45,1,0
16195.328,-0.307,0.069,0.942,4.64,-7.87,-3.36,1,0
16195.328,-0.32,0.08,0.93,6.65,-5.98,-2.26,1,0
16195.343,-0.333,0.086,0.928,6.68,-4.58,-0.43,1,0
16195.343,-0.342,0.081,0.946,4.12,-4.76,1.59,1,0
16195.359,-0.341,0.071,0.946,2.14,-5.89,3.6,1,0
16195.375,-0.339,0.062,0.933,1.68,-6.84,6.38,1,0
16195.375,-0.326,0.061,0.927,-0.15,-7.66,8.39,1,0
16195.39,-0.316,0.047,0.923,-2.41,-8.21,9.25,1,0
16195.39,-0.307,0.034,0.907,-2.96,-7.87,9.77,1,0
16195.406,-0.302,0.033,0.902,-2.9,-6.41,9.13,1,0
16195.421,-0.314,0.031,0.927,-3.48,-5.22,7.29,1,0
16195.421,-0.327,0.016,0.947,-2.17,-5.13,6.1,1,0
16195.437,-0.323,0.022,0.93,0.34,-5.04,6.26,1,0
16195.453,-0.32,0.035,0.923,1.62,-4.43,6.74,1,0
16195.453,-0.316,0.035,0.92,0.58,-4.03,7.45,1,0
16195.468,-0.315,0.03,0.932,-1.83,-3.6,7.97,1,0
16195.468,-0.321,0.029,0.926,-2.59,-2.81,8.51,1,0
16195.484,-0.323,0.027,0.926,-2.75,-1.92,9.25,1,0
16195.5,-0.333,0.02,0.937,-2.62,-1.34,9.37,1,0
16195.5,-0.333,0.013,0.932,-2.59,-1.77,8.97,1,0
16195.515,-0.334,0.012,0.942,-3.23,-2.2,7.63,1,0
16195.531,-0.336,-0.003,0.953,-3.3,-3.17,5.74,1,0
16195.531,-0.324,0.001,0.953,-1.98,-3.81,3.94,1,0
16195.546,-0.318,0.015,0.953,0.03,-3.78,1.71,1,0
16195.562,-0.311,0.023,0.948,1.5,-3.94,0.0,1,0
16195.562,-0.299,0.034,0.94,1.77,-3.78,-1.28,1,0
16195.578,-0.31,0.042,0.962,1.74,-3.36,-2.38,1,0
16195.593,-0.324,0.058,0.978,3.69,-3.72,-1.92,1,0
16195.593,-0.32,0.078,0.975,4.46,-5.28,-0.12,1,0
16195.609,-0.31,0.075,0.965,3.42,-6.84,1.68,1,0
16195.625,-0.301,0.071,0.967,2.04,-7.6,3.6,1,0
16195.625,-0.316,0.062,0.981,1.46,-8.42,5.25,1,0
16195.64,-0.326,0.047,0.983,1.37,-10.07,6.96,1,0
16195.64,-0.316,0.041,0.989,0.49,-12.7,8.64,1,0
16195.656,-0.299,0.03,0.991,-0.52,-16.02,8.79,1,0
16195.671,-0.29,0.021,0.981,-0.03,-18.89,7.78,1,0
16195.687,-0.279,0.029,0.992,-0.09,-22.71,6.32,1,0
16195.687,-0.265,0.021,0.986,0.24,-26.34,3.57,1,0
16195.703,-0.251,0.016,0.972,2.14,-27.65,0.73,1,0
16195.703,-0.243,0.028,0.96,5.86,-26.58,-1.37,1,0
16195.718,-0.246,0.04,0.949,11.6,-20.6,-2.81,1,0
16195.734,-0.245,0.053,0.923,12.18,-15.5,-1.65,1,0
16195.734,-0.252,0.075,0.933,12.3,-12.73,2.32,1,0
16195.75,-0.273,0.088,0.967,10.28,-12.63,7.02,1,0
16195.75,-0.25,0.076,0.948,6.47,-12.6,10.44,1,0
16195.765,-0.242,0.058,0.936,4.49,-11.26,12.3,1,0
16195.781,-0.24,0.053,0.925,3.75,-9.03,13.0,1,0
16195.796,-0.245,0.042,0.927,2.01,-6.62,12.15,1,0
16195.796,-0.25,0.044,0.943,0.21,-5.34,11.41,1,0
16195.812,-0.24,0.042,0.955,-1.53,-5.65,10.01,1,0
16195.812,-0.235,0.028,0.949,-1.37,-5.46,7.23,1,0
16195.828,-0.235,0.031,0.931,0.95,-3.11,4.97,1,0
16195.843,-0.25,0.036,0.925,1.37,-0.55,3.17,1,0
16195.859,-0.262,0.042,0.945,0.06,1.1,2.59,1,0
16195.859,-0.265,0.043,0.962,-1.71,1.4,2.23,1,0
16195.859,-0.263,0.051,0.975,-2.2,1.07,1.71,1,0
16195.875,-0.258,0.059,0.981,-1.77,-0.34,0.89,1,0
16195.89,-0.245,0.061,0.973,-0.98,-1.89,-0.06,1,0
16195.89,-0.24,0.064,0.962,1.13,-1.98,-1.4,1,0
16195.906,-0.252,0.071,0.954,3.17,-0.79,-2.26,1,0
16195.921,-0.26,0.079,0.954,2.11,0.03,-2.2,1,0
16195.937,-0.267,0.077,0.961,0.82,0.37,-1.53,1,0
16195.937,-0.258,0.076,0.951,0.31,0.21,-0.76,1,0
16195.953,-0.257,0.06,0.931,-0.12,0.64,-0.4,1,0
16195.953,-0.263,0.056,0.924,-0.67,1.62,-0.4,1,0
16195.968,-0.26,0.06,0.914,-1.77,2.72,-0.55,1,0
16195.984,-0.252,0.05,0.907,-3.2,4.27,-1.25,1,0
16195.984,-0.259,0.045,0.921,-3.02,6.78,-2.17,1,0
16196.0,-0.272,0.048,0.929,-2.29,8.91,-2.08,1,0
16196.0,-0.273,0.062,0.95,-3.94,9.67,-1.5,1,0
16196.015,-0.271,0.045,0.96,-5.55,9.19,-1.28,1,0
16196.031,-0.261,0.037,0.955,-5.49,9.13,-0.46,1,0
16196.031,-0.25,0.035,0.946,-5.4,9.67,-0.98,1,0
16196.046,-0.248,0.028,0.938,-6.78,10.56,-2.66,1,0
16196.062,-0.245,0.018,0.929,-8.82,11.87,-4.36,1,0
16196.078,-0.245,0.007,0.928,-11.14,13.49,-6.78,1,0
16196.078,-0.258,0.006,0.965,-12.36,15.26,-9.7,1,0
16196.093,-0.3,0.007,1.018,-10.07,15.81,-12.18,1,0
16196.093,-0.315,0.015,1.011,-5.74,14.13,-12.27,1,0
16196.109,-0.305,0.027,0.995,-4.27,11.14,-11.66,1,0
16196.109,-0.287,0.022,0.97,-4.55,8.33,-11.99,1,0
16196.125,-0.266,0.024,0.946,-5.22,7.2,-12.6,1,0
16196.14,-0.257,0.027,0.924,-5.01,8.21,-13.64,1,0
16196.14,-0.25,0.037,0.895,-5.31,10.71,-14.65,1,0
16196.156,-0.247,0.04,0.885,-7.66,14.65,-15.75,1,0
16196.171,-0.256,0.032,0.891,-10.8,18.62,-16.72,1,0
16196.171,-0.272,0.026,0.888,-14.53,21.85,-17.58,1,0
16196.187,-0.283,0.013,0.902,-19.5,24.2,-19.01,1,0
16196.203,-0.301,0.0,0.939,-22.34,26.15,-21.06,1,0
16196.203,-0.332,-0.0,0.963,-21.52,26.86,-21.88,1,0
16196.218,-0.347,0.007,0.993,-18.89,25.12,-21.39,1,0
16196.234,-0.362,0.011,1.007,-14.04,23.19,-19.99,1,0
16196.234,-0.364,0.03,1.004,-9.0,20.45,-17.64,1,0
16196.25,-0.359,0.051,1.009,-6.87,16.85,-14.4,1,0
16196.25,-0.365,0.05,1.0,-4.7,13.73,-10.13,1,0
16196.265,-0.344,0.055,0.98,-5.62,10.25,-5.37,1,0
16196.281,-0.33,0.044,0.975,-7.72,7.87,-1.59,1,0
16196.281,-0.329,0.026,0.971,-9.0,6.44,0.43,1,0
16196.296,-0.326,0.013,0.972,-8.76,5.52,1.59,1,0
16196.312,-0.338,-0.0,0.98,-5.34,5.07,2.53,1,0
16196.312,-0.342,0.007,0.97,-2.41,3.88,3.45,1,0
16196.328,-0.337,0.007,0.969,-2.32,1.77,3.75,1,0
16196.343,-0.335,-0.007,0.971,-2.26,-0.43,4.0,1,0
16196.343,-0.324,-0.004,0.965,-1.43,-1.71,4.73,1,0
16196.359,-0.327,-0.004,0.966,-1.46,-2.59,4.85,1,0
16196.375,-0.33,-0.011,0.969,-1.4,-3.6,4.82,1,0
16196.375,-0.337,-0.006,0.981,0.15,-4.94,5.16,1,0
16196.39,-0.349,-0.005,0.972,2.44,-7.14,5.77,1,0
16196.39,-0.338,0.003,0.956,3.39,-9.67,6.9,1,0
16196.406,-0.333,0.002,0.936,3.88,-10.93,7.81,1,0
16196.421,-0.326,0.001,0.912,2.9,-11.05,8.76,1,0
16196.421,-0.319,-0.002,0.906,0.76,-10.01,9.34,1,0
16196.437,-0.316,0.001,0.916,-0.46,-8.09,9.86,1,0
16196.453,-0.318,0.003,0.932,-0.89,-6.23,10.38,1,0
16196.453,-0.323,0.003,0.957,-1.04,-5.46,11.14,1,0
16196.468,-0.337,0.009,0.98,-0.34,-5.77,11.63,1,0
16196.484,-0.342,0.015,0.976,0.73,-7.6,12.33,1,0
16196.484,-0.339,0.021,0.988,-1.46,-10.62,12.82,1,0
16196.5,-0.338,0.01,1.013,-1.25,-14.07,13.4,1,0
16196.515,-0.337,0.015,1.018,2.26,-17.43,14.25,1,0
16196.515,-0.342,0.018,1.042,6.81,-21.61,15.38,1,0
16196.531,-0.335,0.027,1.048,12.88,-26.37,17.03,1,0
16196.531,-0.322,0.04,1.079,20.05,-30.43,18.8,1,0
16196.546,-0.324,0.049,1.095,32.5,-34.03,22.03,1,0
16196.562,-0.325,0.086,1.062,45.5,-37.72,26.86,1,0
16196.562,-0.312,0.108,1.044,47.27,-42.73,29.82,1,0
16196.578,-0.3,0.079,0.969,43.4,-46.48,32.65,1,0
16196.593,-0.276,0.078,0.886,35.89,-47.24,34.76,1,0
16196.593,-0.244,0.045,0.829,24.23,-44.01,33.72,1,0
16196.609,-0.23,0.015,0.815,16.79,-36.44,30.12,1,0
16196.625,-0.252,0.004,0.827,16.05,-26.43,25.85,1,0
16196.625,-0.274,0.023,0.875,14.4,-19.29,21.15,1,0
16196.64,-0.281,0.021,0.893,13.49,-14.74,16.94,1,0
16196.64,-0.267,0.04,0.899,12.3,-12.76,13.4,1,0
16196.656,-0.259,0.04,0.908,10.47,-11.57,9.8,1,0
16196.671,-0.253,0.057,0.919,9.06,-11.87,6.99,1,0
16196.671,-0.232,0.051,0.914,6.29,-12.57,3.72,1,0
16196.687,-0.212,0.047,0.888,5.37,-12.18,0.15,1,0
16196.703,-0.203,0.062,0.868,0.15,-6.04,-4.58,1,0
16196.703,-0.201,0.052,0.865,-3.27,-1.01,-5.98,1,0
16196.718,-0.21,0.046,0.885,-3.63,3.78,-6.32,1,0
16196.734,-0.249,0.066,0.924,-6.32,4.61,-5.28,1,0
16196.734,-0.235,0.054,0.988,-11.08,2.99,-5.01,1,0
16196.75,-0.226,0.022,0.997,-11.44,1.86,-5.95,1,0
16196.75,-0.214,0.022,0.978,-9.09,2.01,-7.84,1,0
16196.765,-0.199,0.01,0.97,-9.28,2.75,-11.29,1,0
16196.781,-0.205,-0.004,0.974,-9.19,4.39,-15.35,1,0
16196.781,-0.22,0.006,0.97,-8.79,5.83,-18.71,1,0
16196.796,-0.223,0.011,0.968,-10.83,6.04,-22.28,1,0
16196.812,-0.235,0.017,0.987,-12.79,6.13,-25.54,1,0
16196.812,-0.243,0.022,0.982,-13.89,6.35,-27.47,1,0
16196.828,-0.262,0.032,0.994,-13.55,7.45,-26.95,1,0
16196.843,-0.274,0.034,1.004,-13.0,7.54,-24.72,1,0
16196.859,-0.274,0.04,1.033,-12.51,6.71,-22.37,1,0
16196.859,-0.294,0.039,1.046,-10.19,4.15,-20.2,1,0
16196.875,-0.284,0.045,1.028,-8.33,0.64,-16.66,1,0
16196.875,-0.248,0.043,1.007,-8.21,-2.47,-15.14,1,0
16196.89,-0.241,0.033,0.986,-6.2,-4.21,-16.45,1,0
16196.906,-0.244,0.042,0.958,-4.03,-4.91,-17.79,1,0
16196.906,-0.252,0.027,0.936,-4.36,-4.36,-19.29,1,0
16196.921,-0.256,0.041,0.922,-4.27,-2.75,-19.44,1,0
16196.921,-0.26,0.038,0.897,-4.85,-0.37,-18.34,1,0
16196.937,-0.267,0.047,0.917,-7.11,2.41,-16.66,1,0
16196.953,-0.278,0.051,0.927,-6.47,4.7,-14.77,1,0
16196.968,-0.285,0.066,0.946,-6.16,5.46,-13.03,1,0
16196.968,-0.295,0.074,0.97,-5.37,4.61,-10.86,1,0
16196.968,-0.28,0.082,0.967,-5.28,2.53,-8.33,1,0
16196.984,-0.245,0.076,0.952,-6.32,1.16,-6.99,1,0
16197.0,-0.236,0.074,0.939,-6.23,2.01,-6.56,1,0
16197.0,-0.238,0.076,0.94,-5.71,3.88,-5.83,1,0
16197.015,-0.234,0.07,0.944,-5.49,5.46,-5.19,1,0
16197.031,-0.228,0.074,0.955,-5.04,7.11,-4.64,1,0
16197.031,-0.246,0.075,0.981,-3.54,7.84,-3.78,1,0
16197.046,-0.252,0.071,0.991,-2.32,6.84,-2.29,1,0
16197.062,-0.254,0.062,1.01,-2.14,4.76,-0.92,1,0
16197.062,-0.269,0.051,1.015,-0.95,2.41,0.31,1,0
16197.078,-0.264,0.043,1.005,-0.79,-0.89,1.62,1,0
16197.093,-0.246,0.023,0.984,-0.52,-3.14,1.65,1,0
16197.093,-0.244,0.016,0.959,0.55,-3.36,1.04,1,0
16197.109,-0.249,0.014,0.95,0.61,-2.29,0.52,1,0
16197.125,-0.262,0.003,0.958,-0.52,-1.19,0.24,1,0
16197.125,-0.262,-0.011,0.962,-1.77,-0.85,0.64,1,0
16197.14,-0.251,-0.021,0.963,-2.66,-0.89,0.4,1,0
16197.14,-0.254,-0.033,0.957,-2.87,-0.76,-1.16,1,0
16197.156,-0.255,-0.036,0.962,-1.62,-0.61,-3.11,1,0
16197.171,-0.268,-0.024,0.972,0.34,-0.76,-4.91,1,0
16197.187,-0.284,-0.018,0.978,1.59,-1.53,-5.95,1,0
16197.187,-0.287,-0.008,0.97,2.47,-2.78,-5.49,1,0
16197.203,-0.28,-0.006,0.957,2.35,-3.3,-4.43,1,0
16197.203,-0.281,-0.007,0.95,2.14,-2.62,-3.36,1,0
16197.218,-0.289,-0.007,0.953,2.01,-1.56,-2.08,1,0
16197.234,-0.286,-0.008,0.949,0.46,-1.01,-0.67,1,0
16197.234,-0.272,-0.013,0.946,-1.34,-0.52,0.15,1,0
16197.25,-0.28,-0.011,0.96,-1.56,0.09,0.15,1,0
16197.265,-0.28,-0.004,0.964,-1.34,-0.34,0.79,1,0
16197.265,-0.258,-0.007,0.953,-1.74,-0.92,0.92,1,0
16197.281,-0.254,-0.01,0.941,-1.65,-0.21,0.0,1,0
16197.281,-0.261,-0.005,0.949,-1.71,0.89,-1.01,1,0
16197.296,-0.259,0.001,0.956,-1.98,1.59,-1.71,1,0
16197.312,-0.259,0.006,0.968,-1.8,1.92,-2.53,1,0
16197.312,-0.276,0.02,0.99,0.18,1.83,-2.9,1,0
16197.328,-0.271,0.039,0.99,1.5,0.21,-1.92,1,0
16197.343,-0.262,0.041,0.994,0.34,-1.92,-1.34,1,0
16197.343,-0.267,0.038,0.991,1.01,-3.17,-0.34,1,0
16197.359,-0.256,0.052,0.969,2.72,-3.78,1.71,1,0
16197.359,-0.243,0.047,0.951,2.47,-3.51,2.44,1,0
16197.375,-0.247,0.031,0.935,1.89,-2.14,2.11,1,0
16197.39,-0.25,0.03,0.937,1.59,-0.27,1.56,1,0
16197.406,-0.262,0.025,0.953,1.04,1.16,0.76,1,0
16197.406,-0.278,0.026,0.967,1.01,1.19,0.82,1,0
16197.421,-0.271,0.026,0.966,0.37,0.03,1.07,1,0
16197.421,-0.265,0.02,0.97,0.09,-1.22,0.61,1,0
16197.437,-0.275,0.027,0.978,1.92,-2.38,0.34,1,0
16197.453,-0.266,0.039,0.976,2.08,-4.46,0.64,1,0
16197.453,-0.245,0.025,0.963,1.25,-6.01,0.31,1,0
16197.468,-0.243,0.022,0.952,2.9,-5.49,-0.31,1,0
16197.484,-0.245,0.032,0.947,4.24,-4.24,-0.58,1,0
16197.484,-0.249,0.028,0.952,3.51,-3.33,-1.01,1,0
16197.5,-0.265,0.023,0.957,3.57,-2.17,-0.95,1,0
16197.5,-0.261,0.03,0.952,4.0,-1.19,-0.09,1,0
16197.515,-0.265,0.026,0.96,2.87,-0.73,0.34,1,0
16197.531,-0.272,0.023,0.97,1.68,-0.95,1.1,1,0
16197.531,-0.263,0.019,0.969,0.67,-1.62,2.08,1,0
16197.546,-0.253,0.009,0.967,0.06,-2.23,1.92,1,0
16197.562,-0.264,0.006,0.97,0.89,-2.29,1.07,1,0
16197.562,-0.262,0.008,0.971,1.43,-2.84,0.43,1,0
16197.578,-0.249,0.004,0.963,1.31,-3.48,-0.85,1,0
16197.593,-0.246,-0.001,0.954,1.83,-3.05,-2.41,1,0
16197.593,-0.252,0.009,0.95,3.17,-1.8,-3.3,1,0
16197.609,-0.256,0.021,0.95,3.36,-0.82,-3.6,1,0
16197.609,-0.261,0.027,0.963,2.69,-0.06,-3.17,1,0
16197.625,-0.278,0.034,0.974,3.02,0.12,-1.8,1,0
16197.64,-0.283,0.037,0.975,2.38,-1.07,0.24,1,0
16197.64,-0.263,0.022,0.968,0.21,-2.78,1.04,1,0
16197.656,-0.25,0.014,0.953,0.06,-2.75,0.98,1,0
16197.671,-0.254,0.024,0.946,0.79,-1.62,0.58,1,0
16197.671,-0.26,0.026,0.952,-0.12,-0.82,0.03,1,0
16197.687,-0.256,0.022,0.96,0.49,-0.21,-0.43,1,0
16197.703,-0.255,0.022,0.958,1.92,0.34,-0.27,1,0
16197.718,-0.258,0.029,0.953,0.89,0.12,-0.43,1,0
16197.718,-0.268,0.026,0.973,0.52,-0.37,-0.31,1,0
16197.734,-0.26,0.029,0.965,2.23,-0.79,0.98,1,0
16197.734,-0.248,0.035,0.946,1.65,-0.64,1.31,1,0
16197.75,-0.248,0.029,0.949,-0.49,0.37,1.22,1,0
16197.75,-0.261,0.035,0.966,-0.64,1.86,1.5,1,0
16197.765,-0.283,0.044,0.983,-0.12,1.98,2.87,1,0
16197.781,-0.27,0.042,0.986,-1.8,0.03,4.3,1,0
16197.781,-0.247,0.023,0.971,-2.29,-1.28,4.76,1,0
16197.796,-0.236,0.019,0.95,-0.37,-0.4,3.88,1,0
16197.812,-0.236,0.02,0.943,1.28,1.71,2.35,1,0
16197.812,-0.247,0.027,0.945,1.53,3.88,1.13,1,0
16197.828,-0.262,0.03,0.961,0.92,5.55,1.04,1,0
16197.843,-0.277,0.037,0.983,0.24,5.58,1.8,1,0
16197.843,-0.289,0.043,1.003,-0.64,3.66,2.81,1,0
16197.859,-0.292,0.036,1.003,-0.31,0.79,4.3,1,0
16197.875,-0.269,0.031,0.982,-1.07,-1.77,5.83,1,0
16197.875,-0.248,0.012,0.963,-1.77,-2.66,5.86,1,0
16197.89,-0.242,0.006,0.951,-1.28,-1.62,5.13,1,0
16197.89,-0.249,0.008,0.954,-1.01,-0.18,3.85,1,0
16197.906,-0.254,-0.004,0.962,-0.4,0.64,2.5,1,0
16197.921,-0.256,0.003,0.953,0.95,1.07,1.01,1,0
16197.937,-0.258,0.006,0.953,0.61,1.28,-0.67,1,0
16197.937,-0.267,0.005,0.964,0.61,1.59,-2.29,1,0
16197.953,-0.289,0.024,0.969,2.04,1.83,-2.11,1,0
16197.953,-0.283,0.038,0.968,0.4,0.67,-0.52,1,0
16197.968,-0.269,0.033,0.967,-2.17,-0.21,0.95,1,0
16197.984,-0.263,0.037,0.963,-2.69,0.0,2.23,1,0
16197.984,-0.261,0.037,0.966,-3.27,0.21,3.23,1,0
16198.0,-0.26,0.031,0.97,-3.66,0.06,3.97,1,0
16198.015,-0.258,0.024,0.968,-3.17,-0.24,4.15,1,0
16198.015,-0.26,0.018,0.969,-2.62,-0.24,3.3,1,0
16198.031,-0.268,0.01,0.969,-1.68,-0.21,1.95,1,0
16198.031,-0.275,0.012,0.963,-0.64,-0.52,0.95,1,0
16198.046,-0.267,0.009,0.953,-1.37,-0.95,0.09,1,0
16198.062,-0.266,0.009,0.952,-1.92,-0.58,-0.58,1,0
16198.062,-0.274,0.016,0.959,-1.56,-0.03,-0.79,1,0
16198.078,-0.276,0.023,0.966,-1.07,-0.31,-0.85,1,0
16198.093,-0.273,0.029,0.965,-0.7,-1.22,-1.22,1,0
16198.093,-0.271,0.03,0.957,0.4,-1.86,-1.68,1,0
16198.109,-0.269,0.036,0.946,1.98,-1.37,-1.8,1,0
16198.109,-0.276,0.041,0.94,1.92,-0.55,-1.74,1,0
16198.125,-0.287,0.039,0.943,0.73,0.21,-1.28,1,0
16198.14,-0.286,0.037,0.953,-0.31,0.89,-0.55,1,0
16198.14,-0.286,0.031,0.957,-0.24,1.28,0.24,1,0
16198.156,-0.285,0.031,0.963,0.0,1.68,0.98,1,0
16198.171,-0.291,0.038,0.965,-0.06,1.28,1.71,1,0
16198.171,-0.28,0.036,0.966,-1.22,-0.24,2.26,1,0
16198.187,-0.263,0.026,0.956,-1.56,-0.95,1.98,1,0
16198.203,-0.264,0.031,0.949,-0.03,-0.4,1.46,1,0
16198.203,-0.27,0.041,0.953,1.07,0.49,1.19,1,0
16198.218,-0.283,0.037,0.964,0.85,0.98,1.68,1,0
16198.234,-0.289,0.032,0.965,0.73,0.98,3.05,1,0
16198.234,-0.276,0.025,0.962,0.09,0.27,4.3,1,0
16198.25,-0.257,0.013,0.953,-0.79,0.06,4.24,1,0
16198.25,-0.252,0.008,0.951,-0.7,0.98,3.11,1,0
16198.265,-0.262,0.01,0.96,-0.15,1.89,1.86,1,0
16198.281,-0.266,0.024,0.961,0.09,1.8,1.19,1,0
16198.281,-0.266,0.022,0.969,0.03,1.34,0.79,1,0
16198.296,-0.277,0.021,0.968,0.58,1.37,0.58,1,0
16198.312,-0.282,0.025,0.966,0.89,1.1,1.31,1,0
16198.312,-0.275,0.02,0.969,-0.06,0.15,1.83,1,0
16198.328,-0.27,0.013,0.967,-0.31,-0.49,2.47,1,0
16198.328,-0.255,0.013,0.961,-0.61,-0.98,2.53,1,0
16198.343,-0.249,0.003,0.951,-1.1,-1.13,1.31,1,0
16198.359,-0.256,0.007,0.95,-0.82,-0.46,-0.06,1,0
16198.375,-0.263,0.01,0.955,-0.4,0.34,-0.34,1,0
16198.375,-0.263,0.016,0.952,-0.43,0.95,0.06,1,0
16198.39,-0.261,0.015,0.958,-1.04,1.56,0.34,1,0
16198.39,-0.276,0.011,0.975,-1.1,2.11,0.64,1,0
16198.406,-0.28,0.017,0.985,-0.82,1.56,1.4,1,0
16198.421,-0.265,0.016,0.976,-1.62,0.09,1.65,1,0
16198.421,-0.255,0.0,0.967,-2.08,-0.7,0.85,1,0
16198.437,-0.256,-0.001,0.962,-1.01,-0.31,-0.43,1,0
16198.453,-0.261,0.005,0.964,-0.03,0.12,-1.92,1,0
16198.453,-0.264,0.005,0.963,0.15,0.03,-3.23,1,0
16198.468,-0.267,0.015,0.957,0.21,0.31,-4.24,1,0
16198.484,-0.272,0.021,0.96,0.67,0.73,-4.79,1,0
16198.484,-0.279,0.031,0.971,0.7,0.37,-4.82,1,0
16198.5,-0.273,0.028,0.951,1.59,-0.18,-4.21,1,0
16198.5,-0.273,0.038,0.953,1.8,0.89,-3.78,1,0
16198.515,-0.282,0.04,0.946,1.04,1.16,-3.88,1,0
16198.531,-0.292,0.052,0.955,0.15,1.43,-2.99,1,0
16198.546,-0.301,0.059,0.968,-0.43,0.7,-1.43,1,0
16198.546,-0.301,0.055,0.967,-0.89,-0.46,0.27,1,0
16198.562,-0.287,0.051,0.959,-1.25,-1.34,1.5,1,0
16198.562,-0.281,0.049,0.956,-0.52,-1.65,2.01,1,0
16198.578,-0.287,0.044,0.957,0.64,-1.74,1.8,1,0
16198.593,-0.289,0.048,0.957,1.65,-2.14,1.62,1,0
16198.593,-0.28,0.053,0.953,1.56,-2.47,1.71,1,0
16198.609,-0.28,0.052,0.945,2.04,-2.08,2.26,1,0
16198.625,-0.281,0.057,0.941,1.43,-1.56,3.57,1,0
16198.625,-0.282,0.048,0.941,-0.21,-1.1,4.64,1,0
16198.64,-0.277,0.033,0.945,-1.31,-0.52,5.55,1,0
16198.64,-0.266,0.029,0.938,-1.31,0.31,6.1,1,0
16198.656,-0.261,0.032,0.938,-1.34,1.77,5.77,1,0
16198.671,-0.267,0.038,0.945,-1.89,3.54,5.4,1,0
16198.671,-0.277,0.041,0.951,-1.34,3.97,6.56,1,0
16198.687,-0.28,0.039,0.96,-0.27,4.64,7.93,1,0
16198.703,-0.283,0.039,0.947,-0.03,5.68,9.09,1,0
16198.703,-0.297,0.037,0.953,-0.7,6.84,10.04,1,0
16198.718,-0.309,0.043,0.966,-2.5,6.99,11.41,1,0
16198.734,-0.301,0.029,0.984,-5.65,5.4,12.73,1,0
16198.734,-0.287,0.014,0.997,-7.17,3.54,13.58,1,0
16198.75,-0.279,-0.005,0.996,-5.71,2.2,13.58,1,0
16198.75,-0.27,-0.008,0.985,-3.91,1.13,12.73,1,0
16198.765,-0.269,-0.012,0.975,-3.08,0.4,10.8,1,0
16198.781,-0.275,-0.021,0.972,-3.05,-0.03,8.21,1,0
16198.781,-0.277,-0.027,0.972,-2.75,0.03,5.71,1,0
16198.796,-0.274,-0.025,0.968,-1.83,0.46,3.81,1,0
16198.812,-0.275,-0.024,0.973,-1.5,0.92,2.35,1,0
16198.828,-0.279,-0.026,0.978,-1.01,0.67,0.89,1,0
16198.828,-0.276,-0.015,0.981,0.06,-0.06,-0.18,1,0
16198.843,-0.277,-0.007,0.98,0.15,-1.53,-1.62,1,0
16198.843,-0.278,-0.003,0.979,0.46,-3.11,-3.08,1,0
16198.859,-0.285,0.008,0.972,1.62,-4.49,-4.15,1,0
16198.875,-0.282,0.02,0.955,1.59,-5.49,-4.58,1,0
16198.875,-0.278,0.022,0.943,0.43,-5.92,-4.58,1,0
16198.89,-0.276,0.023,0.936,-0.18,-4.88,-4.18,1,0
16198.89,-0.277,0.026,0.938,-0.73,-3.57,-3.72,1,0
16198.906,-0.275,0.033,0.947,-1.4,-2.53,-3.2,1,0
16198.921,-0.273,0.04,0.96,-2.17,-2.41,-2.87,1,0
16198.921,-0.275,0.045,0.972,-2.93,-2.99,-2.5,1,0
16198.937,-0.278,0.054,0.98,-3.08,-4.55,-1.65,1,0
16198.953,-0.274,0.058,0.979,-3.6,-6.56,-0.79,1,0
16198.953,-0.268,0.064,0.979,-4.43,-8.55,-0.03,1,0
16198.968,-0.271,0.065,0.979,-5.13,-10.07,0.95,1,0
16198.984,-0.266,0.064,0.97,-5.46,-11.05,2.53,1,0
16198.984,-0.259,0.056,0.954,-7.87,-11.84,3.97,1,0
16199.0,-0.252,0.023,0.96,-11.84,-11.72,4.43,1,0
16199.015,-0.252,-0.013,0.96,-11.05,-10.41,4.85,1,0
16199.015,-0.248,-0.021,0.94,-6.81,-7.87,5.34,1,0
16199.031,-0.256,-0.023,0.932,-3.85,-4.3,4.79,1,0
16199.031,-0.269,-0.025,0.948,-3.75,-1.8,3.54,1,0
16199.046,-0.279,-0.021,0.96,-3.85,-0.89,1.92,1,0
16199.062,-0.281,-0.018,0.976,-3.94,-0.98,0.46,1,0
16199.062,-0.285,-0.009,0.995,-3.54,-2.2,-0.89,1,0
16199.078,-0.279,-0.002,0.998,-2.72,-4.36,-2.14,1,0
16199.093,-0.268,0.004,0.987,-1.28,-6.5,-3.27,1,0
16199.109,-0.263,0.013,0.97,0.67,-7.11,-4.67,1,0
16199.109,-0.273,0.029,0.958,2.84,-6.32,-5.49,1,0
16199.109,-0.287,0.041,0.955,3.23,-5.4,-4.7,1,0
16199.125,-0.29,0.049,0.951,1.71,-4.79,-2.47,1,0
16199.14,-0.289,0.043,0.948,0.06,-4.0,-0.09,1,0
16199.14,-0.276,0.039,0.938,-0.76,-2.93,2.23,1,0
16199.156,-0.268,0.032,0.937,-1.62,-1.43,3.81,1,0
16199.171,-0.272,0.019,0.934,-2.17,0.37,4.39,1,0
16199.171,-0.285,0.018,0.957,-3.17,0.7,4.82,1,0
16199.187,-0.278,0.003,0.965,-4.12,-0.98,4.58,1,0
16199.203,-0.265,-0.009,0.965,-3.3,-2.35,3.42,1,0
16199.203,-0.273,-0.005,0.965,-0.61,-2.81,1.98,1,0
16199.218,-0.274,0.005,0.963,0.98,-3.78,0.98,1,0
16199.234,-0.271,0.005,0.959,1.89,-4.64,0.18,1,0
16199.234,-0.269,0.012,0.937,3.08,-4.76,0.09,1,0
16199.25,-0.257,0.017,0.921,2.84,-3.81,-0.21,1,0
16199.25,-0.257,0.016,0.915,2.01,-1.77,-0.67,1,0
16199.265,-0.273,0.023,0.924,0.95,0.67,-0.46,1,0
16199.281,-0.284,0.025,0.942,-0.58,1.86,0.4,1,0
16199.281,-0.279,0.02,0.951,-2.04,1.8,1.13,1,0
16199.296,-0.28,0.014,0.959,-2.26,1.59,1.22,1,0
16199.312,-0.277,0.011,0.964,-1.1,1.28,1.1,1,0
16199.328,-0.276,0.018,0.963,0.46,1.07,0.92,1,0
16199.328,-0.274,0.021,0.956,2.38,1.5,0.61,1,0
16199.343,-0.273,0.035,0.955,4.43,2.53,1.07,1,0
16199.343,-0.271,0.045,0.951,5.55,3.45,1.74,1,0
16199.359,-0.278,0.046,0.939,5.68,4.58,2.93,1,0
16199.375,-0.291,0.056,0.951,4.3,5.22,5.22,1,0
16199.375,-0.288,0.043,0.961,0.89,4.12,7.48,1,0
16199.39,-0.277,0.022,0.956,-2.17,2.53,8.91,1,0
16199.406,-0.273,0.012,0.944,-2.87,2.23,9.37,1,0
16199.406,-0.267,0.005,0.948,-3.14,2.23,8.64,1,0
16199.421,-0.262,-0.002,0.949,-3.3,2.08,6.47,1,0
16199.421,-0.255,-0.007,0.951,-2.23,2.32,3.85,1,0
16199.437,-0.257,0.001,0.959,-0.24,3.02,1.28,1,0
16199.453,-0.279,0.014,0.969,1.31,3.2,-0.24,1,0
16199.453,-0.286,0.023,0.977,1.1,1.89,-0.52,1,0
16199.468,-0.281,0.023,0.973,0.89,0.43,-0.09,1,0
16199.484,-0.273,0.027,0.965,1.31,-0.27,0.27,1,0
16199.484,-0.271,0.031,0.963,1.31,-0.18,-0.12,1,0
16199.5,-0.276,0.031,0.97,0.98,0.0,-0.21,1,0
16199.515,-0.277,0.035,0.968,1.13,0.03,0.37,1,0
16199.515,-0.276,0.035,0.967,0.73,0.18,1.74,1,0
16199.531,-0.274,0.021,0.97,-0.7,0.12,2.99,1,0
16199.531,-0.263,0.005,0.967,-1.62,-0.12,3.33,1,0
16199.546,-0.253,-0.006,0.958,-0.67,0.64,2.87,1,0
16199.562,-0.259,-0.004,0.957,0.12,1.83,1.74,1,0
16199.562,-0.287,0.003,0.982,0.18,2.14,0.7,1,0
16199.578,-0.29,0.005,0.994,0.0,0.12,0.67,1,0
16199.593,-0.274,-0.003,0.983,0.31,-2.5,0.34,1,0
16199.593,-0.267,-0.009,0.97,1.5,-3.97,-0.67,1,0
16199.609,-0.261,-0.001,0.952,3.11,-4.15,-1.83,1,0
16199.625,-0.259,0.001,0.937,3.6,-3.2,-2.66,1,0
16199.625,-0.266,0.01,0.933,3.14,-1.77,-2.96,1,0
16199.64,-0.283,0.015,0.94,1.95,-0.43,-2.26,1,0
16199.64,-0.284,0.011,0.947,-0.92,0.7,0.37,1,0
16199.656,-0.273,0.005,0.943,-1.56,1.43,0.24,1,0
16199.671,-0.269,-0.002,0.942,-1.31,2.47,-0.24,1,0
16199.671,-0.278,0.005,0.955,-1.1,2.53,-0.09,1,0
16199.687,-0.279,0.016,0.974,-1.37,1.68,0.37,1,0
16199.703,-0.276,0.009,0.97,-1.01,0.7,0.27,1,0
16199.703,-0.273,0.012,0.969,-0.15,0.06,-0.37,1,0
16199.718,-0.274,0.021,0.97,-0.46,-0.73,-0.89,1,0
16199.734,-0.277,0.019,0.97,-1.22,-1.34,-0.92,1,0
16199.734,-0.291,0.024,0.959,-0.61,-1.16,-0.12,1,0
16199.75,-0.287,0.03,0.954,-1.34,-1.28,1.22,1,0
16199.765,-0.275,0.025,0.96,-3.39,-1.5,1.8,1,0
16199.765,-0.269,0.021,0.967,-3.6,-1.25,2.08,1,0
16199.781,-0.263,0.023,0.964,-2.72,-1.01,1.77,1,0
16199.781,-0.259,0.02,0.964,-1.8,-0.85,0.98,1,0
16199.796,-0.259,0.015,0.962,-1.1,-0.61,0.03,1,0
16199.812,-0.264,0.014,0.963,0.09,-0.12,-0.73,1,0
16199.812,-0.275,0.012,0.961,1.34,0.58,-1.13,1,0
16199.828,-0.285,0.014,0.967,1.43,0.67,-1.43,1,0
16199.843,-0.279,0.014,0.974,0.49,-0.24,-1.86,1,0
16199.859,-0.274,0.014,0.975,0.85,-1.04,-2.47,1,0
16199.859,-0.276,0.026,0.966,2.11,-1.31,-2.72,1,0
16199.859,-0.275,0.034,0.958,2.23,-1.83,-2.75,1,0
16199.875,-0.271,0.029,0.949,1.28,-1.92,-2.59,1,0
16199.89,-0.28,0.029,0.94,1.59,-0.92,-1.74,1,0
16199.89,-0.291,0.036,0.941,1.31,0.43,-0.46,1,0
16199.906,-0.286,0.034,0.95,-0.61,0.92,0.79,1,0
16199.921,-0.281,0.023,0.964,-2.08,1.28,1.62,1,0
16199.937,-0.29,0.021,0.977,-1.71,1.46,2.04,1,0
16199.937,-0.285,0.019,0.985,-1.31,0.15,2.26,1,0
16199.953,-0.269,0.007,0.981,-1.28,-1.92,1.5,1,0
16199.953,-0.26,-0.0,0.965,0.31,-3.14,-0.03,1,0
16199.968,-0.27,0.009,0.949,2.44,-2.96,-1.83,1,0
16199.984,-0.285,0.016,0.944,3.23,-2.5,-2.72,1,0
16199.984,-0.281,0.019,0.936,2.5,-1.71,-2.35,1,0
16200.0,-0.279,0.014,0.936,1.25,-0.64,-1.34,1,0
16200.0,-0.278,0.008,0.936,0.34,0.4,-0.95,1,0
16200.015,-0.279,0.011,0.946,0.27,1.56,-0.76,1,0
16200.031,-0.284,0.017,0.966,0.34,1.89,-0.79,1,0
16200.031,-0.284,0.023,0.973,0.52,0.92,-0.89,1,0
16200.046,-0.281,0.029,0.972,1.56,-0.31,-0.61,1,0
16200.062,-0.284,0.036,0.968,2.26,-1.28,0.0,1,0
16200.078,-0.286,0.037,0.959,1.43,-2.17,0.79,1,0
16200.078,-0.282,0.022,0.952,0.06,-2.26,1.83,1,0
16200.093,-0.271,0.018,0.942,-0.7,-1.22,2.75,1,0
16200.093,-0.268,0.011,0.942,-1.1,0.4,2.9,1,0
16200.109,-0.27,0.007,0.952,-0.92,1.98,2.47,1,0
16200.125,-0.268,0.009,0.962,-0.09,2.78,1.89,1,0
16200.125,-0.267,0.011,0.967,0.67,2.99,0.85,1,0
16200.14,-0.264,0.013,0.963,1.43,3.11,-0.34,1,0
16200.156,-0.263,0.021,0.959,2.72,3.78,-0.61,1,0
16200.156,-0.269,0.028,0.965,3.91,4.91,-0.24,1,0
16200.171,-0.282,0.026,0.97,4.61,5.46,0.95,1,0
16200.171,-0.282,0.035,0.951,3.69,5.28,2.72,1,0
16200.187,-0.288,0.008,0.938,4.64,6.16,4.49,1,0
16200.203,-0.289,0.03,0.944,3.05,7.48,5.01,1,0
16200.203,-0.292,0.024,0.955,-0.24,7.23,4.7,1,0
16200.218,-0.293,0.018,0.944,-1.77,7.35,5.04,1,0
16200.234,-0.304,0.036,0.969,-4.43,6.9,5.8,1,0
16200.234,-0.304,0.021,0.977,-7.42,4.73,6.04,1,0
16200.25,-0.292,0.004,0.977,-7.78,2.69,6.41,1,0
16200.25,-0.286,-0.002,0.973,-5.4,2.08,6.04,1,0
16200.265,-0.285,0.0,0.972,-3.45,1.92,5.07,1,0
16200.281,-0.289,-0.007,0.974,-3.17,1.22,3.45,1,0
16200.281,-0.297,-0.007,0.981,-3.14,0.06,1.83,1,0
16200.296,-0.295,-0.01,0.971,-1.95,-1.31,0.27,1,0
16200.312,-0.283,-0.012,0.952,-0.7,-2.29,-1.16,1,0
16200.312,-0.278,-0.013,0.939,-0.49,-2.08,-2.93,1,0
16200.328,-0.296,-0.01,0.946,-0.21,-1.22,-4.55,1,0
16200.343,-0.301,0.0,0.951,0.55,-0.92,-4.79,1,0
16200.343,-0.289,0.011,0.946,0.31,-1.37,-4.73,1,0
16200.359,-0.294,0.009,0.968,0.61,-1.22,-5.25,1,0
16200.375,-0.308,0.02,0.979,3.11,-1.5,-5.04,1,0
16200.375,-0.308,0.037,0.966,3.81,-3.45,-4.58,1,0
16200.39,-0.291,0.038,0.961,1.71,-5.25,-4.09,1,0
16200.39,-0.292,0.033,0.952,1.13,-5.4,-3.81,1,0
16200.406,-0.295,0.045,0.943,0.95,-4.64,-2.75,1,0
16200.421,-0.292,0.034,0.937,-0.09,-3.69,-1.77,1,0
16200.421,-0.299,0.025,0.946,-0.64,-2.66,-1.07,1,0
16200.437,-0.299,0.028,0.954,-0.21,-2.08,-0.27,1,0
16200.453,-0.287,0.021,0.956,-0.52,-2.44,-0.61,1,0
16200.453,-0.276,0.013,0.96,0.03,-2.62,-2.11,1,0
16200.468,-0.277,0.013,0.959,2.44,-2.04,-3.97,1,0
16200.484,-0.275,0.016,0.96,4.46,-1.25,-5.95,1,0
16200.484,-0.274,0.019,0.963,5.25,-1.22,-8.06,1,0
16200.5,-0.277,0.021,0.969,6.35,-0.98,-9.77,1,0
16200.515,-0.279,0.029,0.977,7.63,-1.07,-10.8,1,0
16200.515,-0.273,0.035,0.978,7.97,-1.83,-11.26,1,0
16200.531,-0.273,0.041,0.979,7.75,-2.93,-11.44,1,0
16200.531,-0.274,0.048,0.976,7.35,-4.09,-10.9,1,0
16200.546,-0.271,0.052,0.969,5.49,-5.52,-9.8,1,0
16200.562,-0.271,0.048,0.96,3.81,-6.62,-8.51,1,0
16200.562,-0.272,0.05,0.946,3.2,-7.02,-6.96,1,0
16200.578,-0.269,0.049,0.938,2.56,-6.93,-5.4,1,0
16200.593,-0.269,0.047,0.932,2.59,-6.32,-4.43,1,0
16200.593,-0.28,0.047,0.93,3.36,-5.28,-3.94,1,0
16200.609,-0.29,0.046,0.928,3.85,-4.03,-3.05,1,0
16200.609,-0.293,0.044,0.928,3.48,-3.05,-1.19,1,0
16200.625,-0.299,0.038,0.949,1.95,-2.2,1.77,1,0
16200.64,-0.289,0.031,0.938,1.19,-1.89,2.56,1,0
16200.64,-0.291,0.036,0.951,1.4,-2.11,2.87,1,0
16200.656,-0.288,0.027,0.946,1.22,-2.01,3.05,1,0
16200.671,-0.301,0.026,0.946,1.31,-1.77,2.81,1,0
16200.671,-0.309,0.026,0.948,0.76,-1.46,2.78,1,0
16200.687,-0.308,0.02,0.949,-0.06,-1.34,2.66,1,0
16200.703,-0.308,0.017,0.958,-0.64,-0.79,2.59,1,0
16200.703,-0.312,0.013,0.964,-0.79,-0.76,2.35,1,0
16200.718,-0.302,0.008,0.966,-0.85,-1.77,1.74,1,0
16200.734,-0.292,0.004,0.963,0.64,-2.2,0.24,1,0
16200.734,-0.295,0.009,0.954,2.59,-1.89,-1.04,1,0
16200.75,-0.299,0.014,0.952,3.48,-1.59,-1.5,1,0
16200.75,-0.299,0.019,0.95,3.42,-1.5,-1.53,1,0
