timestamp,ax,ay,az,gx,gy,gz,orient_label,motion_label
16115.109,-0.028,0.472,0.817,6.13,9.37,-1.1,1,0
16115.125,-0.035,0.48,0.831,8.64,10.56,-2.59,1,0
16115.14,-0.051,0.487,0.837,10.96,10.19,-3.54,1,0
16115.14,-0.063,0.511,0.853,12.85,9.09,-4.55,1,0
16115.156,-0.073,0.536,0.861,13.76,7.42,-4.73,1,0
16115.171,-0.084,0.556,0.86,14.13,5.37,-3.42,1,0
16115.171,-0.09,0.569,0.86,13.18,2.93,-1.16,1,0
16115.187,-0.088,0.579,0.859,11.38,-0.15,0.52,1,0
16115.203,-0.085,0.597,0.854,9.43,-2.2,1.5,1,0
16115.203,-0.085,0.599,0.838,7.93,-3.17,2.69,1,0
16115.218,-0.076,0.585,0.827,7.39,-3.14,4.61,1,0
16115.218,-0.067,0.57,0.819,7.54,-1.92,6.35,1,0
16115.234,-0.065,0.56,0.811,8.67,0.4,7.35,1,0
16115.25,-0.066,0.546,0.81,10.86,2.87,7.48,1,0
16115.25,-0.065,0.528,0.798,14.53,5.49,6.47,1,0
16115.265,-0.066,0.52,0.791,17.94,7.97,4.49,1,0
16115.281,-0.063,0.523,0.785,21.0,9.8,1.74,1,0
16115.296,-0.066,0.55,0.78,21.97,11.51,-0.73,1,0
16115.296,-0.07,0.558,0.779,21.03,12.51,-1.59,1,0
16115.296,-0.07,0.552,0.788,19.01,12.33,-0.73,1,0
16115.312,-0.065,0.565,0.797,15.59,11.17,0.64,1,0
16115.328,-0.057,0.57,0.806,11.81,10.1,2.17,1,0
16115.328,-0.055,0.568,0.809,6.87,9.31,3.69,1,0
16115.343,-0.05,0.558,0.818,1.04,7.97,4.91,1,0
16115.359,-0.043,0.536,0.83,-2.99,6.99,5.55,1,0
16115.359,-0.033,0.512,0.833,-4.18,6.74,5.74,1,0
16115.375,-0.021,0.496,0.834,-2.87,6.93,5.16,1,0
16115.39,-0.015,0.488,0.837,-0.7,7.66,3.11,1,0
16115.39,-0.019,0.491,0.846,1.8,7.97,-0.15,1,0
16115.406,-0.024,0.501,0.851,5.16,8.36,-3.14,1,0
16115.421,-0.034,0.515,0.855,7.9,8.48,-4.88,1,0
16115.421,-0.04,0.53,0.855,9.22,7.35,-5.37,1,0
16115.437,-0.044,0.544,0.85,8.82,5.55,-5.22,1,0
16115.437,-0.048,0.551,0.845,6.56,3.05,-4.76,1,0
16115.453,-0.048,0.546,0.84,3.97,0.27,-4.06,1,0
16115.468,-0.045,0.547,0.831,2.59,-1.89,-3.45,1,0
16115.468,-0.039,0.554,0.823,2.2,-3.27,-3.27,1,0
16115.484,-0.041,0.551,0.814,2.5,-3.39,-3.36,1,0
16115.5,-0.045,0.55,0.809,3.6,-2.99,-3.6,1,0
16115.5,-0.042,0.556,0.803,4.55,-2.32,-3.75,1,0
16115.515,-0.042,0.568,0.804,4.09,-0.85,-4.55,1,0
16115.531,-0.053,0.565,0.815,3.3,0.49,-5.62,1,0
16115.531,-0.057,0.562,0.831,2.99,0.52,-5.86,1,0
16115.546,-0.059,0.567,0.836,3.69,0.09,-5.71,1,0
16115.562,-0.062,0.571,0.831,4.15,-0.43,-5.28,1,0
16115.562,-0.06,0.576,0.828,3.3,-1.16,-4.67,1,0
16115.578,-0.06,0.579,0.824,0.98,-1.95,-4.15,1,0
16115.578,-0.057,0.577,0.82,-1.95,-2.66,-3.72,1,0
16115.593,-0.054,0.571,0.816,-3.94,-2.78,-2.93,1,0
16115.609,-0.052,0.567,0.818,-4.43,-2.11,-2.35,1,0
16115.609,-0.052,0.555,0.821,-4.03,-1.28,-2.32,1,0
16115.64,-0.063,0.558,0.83,-3.02,-1.28,-3.75,1,0
16115.64,-0.07,0.569,0.837,-2.62,-1.68,-4.52,1,0
16115.656,-0.076,0.575,0.839,-2.44,-2.9,-4.64,1,0
16115.671,-0.074,0.579,0.832,-2.5,-4.64,-3.45,1,0
16115.687,-0.065,0.577,0.825,-2.72,-5.71,-1.68,1,0
16115.687,-0.061,0.571,0.821,-3.05,-6.16,-0.49,1,0
16115.687,-0.056,0.562,0.818,-3.75,-6.65,0.03,1,0
16115.703,-0.052,0.55,0.82,-4.21,-7.2,0.18,1,0
16115.718,-0.045,0.54,0.82,-3.94,-7.6,0.18,1,0
16115.718,-0.039,0.527,0.813,-2.69,-7.66,-0.52,1,0
16115.734,-0.032,0.52,0.803,-1.19,-7.14,-2.08,1,0
16115.75,-0.033,0.521,0.793,-0.09,-6.13,-3.39,1,0
16115.75,-0.033,0.521,0.792,0.7,-5.01,-4.85,1,0
16115.765,-0.041,0.534,0.796,0.12,-3.85,-6.2,1,0
16115.781,-0.047,0.546,0.804,-1.5,-3.3,-6.93,1,0
16115.781,-0.052,0.554,0.815,-3.14,-3.14,-6.93,1,0
16115.812,-0.058,0.567,0.827,-5.86,-3.72,-5.68,1,0
16115.812,-0.061,0.573,0.828,-7.08,-4.91,-5.1,1,0
16115.828,-0.066,0.574,0.825,-8.18,-6.35,-4.67,1,0
16115.828,-0.064,0.568,0.819,-8.73,-7.63,-4.12,1,0
16115.843,-0.062,0.563,0.814,-8.76,-8.67,-3.11,1,0
16115.859,-0.059,0.552,0.802,-8.09,-8.97,-2.29,1,0
16115.875,-0.053,0.544,0.788,-7.72,-8.82,-2.08,1,0
16115.875,-0.052,0.533,0.782,-7.29,-8.03,-2.29,1,0
16115.89,-0.053,0.521,0.772,-6.5,-6.93,-2.47,1,0
16115.89,-0.05,0.527,0.776,-5.58,-4.97,-2.81,1,0
16115.906,-0.054,0.525,0.786,-3.97,-2.69,-3.94,1,0
16115.921,-0.066,0.535,0.792,-2.32,-0.15,-4.82,1,0
16115.921,-0.087,0.554,0.806,-0.49,1.5,-5.13,1,0
16115.937,-0.098,0.573,0.813,0.73,1.8,-4.39,1,0
16115.937,-0.1,0.592,0.814,0.76,1.5,-3.2,1,0
16115.953,-0.106,0.598,0.813,-0.67,0.98,-2.32,1,0
16115.984,-0.107,0.595,0.805,-6.53,-0.67,-0.85,1,0
16115.984,-0.103,0.591,0.808,-8.45,-0.67,0.18,1,0
16116.0,-0.102,0.592,0.808,-9.61,0.27,1.19,1,0
16116.0,-0.104,0.59,0.823,-10.13,1.89,2.5,1,0
16116.015,-0.102,0.579,0.846,-8.24,3.08,4.55,1,0
16116.031,-0.114,0.546,0.855,-3.85,3.57,5.89,1,0
16116.031,-0.105,0.543,0.852,-1.25,2.38,5.65,1,0
16116.046,-0.091,0.536,0.833,2.9,1.59,5.68,1,0
16116.062,-0.092,0.529,0.817,5.1,1.4,4.76,1,0
16116.062,-0.086,0.537,0.812,3.88,0.85,3.57,1,0
16116.078,-0.091,0.543,0.805,1.16,1.16,2.87,1,0
16116.078,-0.086,0.546,0.8,-2.35,1.53,3.75,1,0
16116.093,-0.074,0.541,0.799,-8.51,3.05,5.07,1,0
16116.109,-0.072,0.532,0.802,-11.57,3.6,3.51,1,0
16116.109,-0.066,0.511,0.803,-14.31,4.73,1.28,1,0
16116.125,-0.057,0.503,0.796,-16.85,6.65,-1.89,1,0
16116.14,-0.059,0.498,0.798,-19.23,9.22,-5.07,1,0
16116.14,-0.064,0.501,0.805,-21.06,12.54,-7.42,1,0
16116.156,-0.072,0.503,0.814,-22.86,15.47,-9.77,1,0
16116.171,-0.079,0.496,0.823,-22.89,18.19,-12.09,1,0
16116.171,-0.107,0.503,0.836,-21.03,20.69,-13.46,1,0
16116.187,-0.138,0.522,0.859,-17.64,21.49,-12.6,1,0
16116.203,-0.157,0.528,0.886,-13.49,19.41,-9.89,1,0
16116.203,-0.166,0.537,0.896,-10.32,15.29,-6.59,1,0
16116.218,-0.169,0.548,0.892,-9.19,9.52,-3.91,1,0
16116.234,-0.173,0.543,0.884,-10.1,3.66,-2.35,1,0
16116.234,-0.17,0.536,0.883,-12.24,-1.62,-1.31,1,0
16116.25,-0.153,0.516,0.866,-14.65,-6.16,-0.55,1,0
16116.25,-0.08,0.458,0.799,-17.06,-8.21,-0.52,1,0
16116.265,-0.048,0.423,0.798,-20.45,-3.75,-5.46,1,0
16116.281,-0.211,0.521,0.956,-14.65,3.57,-6.9,1,0
16116.281,-0.159,0.478,0.925,-5.89,-3.63,-0.09,1,0
16116.296,-0.125,0.504,0.918,-8.33,-11.44,0.49,1,0
16116.312,-0.104,0.507,0.913,-9.98,-12.67,-1.22,1,0
16116.312,-0.113,0.489,0.915,-6.65,-9.58,-1.8,1,0
16116.328,-0.135,0.476,0.936,-0.58,-5.04,-2.08,1,0
16116.328,-0.168,0.488,0.948,7.11,-3.05,-2.41,1,0
16116.343,-0.18,0.504,0.934,14.95,-4.76,-2.5,1,0
16116.359,-0.187,0.505,0.912,21.64,-7.48,-3.23,1,0
16116.359,-0.208,0.499,0.889,27.56,-10.68,-4.49,1,0
16116.375,-0.23,0.531,0.846,32.32,-14.59,-5.07,1,0
16116.39,-0.252,0.584,0.833,34.21,-19.26,-3.51,1,0
16116.39,-0.208,0.593,0.783,33.23,-24.26,3.14,1,0
16116.406,-0.148,0.584,0.695,19.68,-27.1,4.91,1,0
16116.421,-0.204,0.578,0.746,4.18,-22.68,2.78,1,0
16116.421,-0.192,0.539,0.772,-0.21,-19.71,7.97,1,0
16116.437,-0.149,0.534,0.759,-0.34,-17.46,16.02,1,0
16116.453,-0.149,0.516,0.763,0.43,-14.34,17.03,1,0
16116.453,-0.141,0.505,0.777,3.33,-11.32,16.42,1,0
16116.468,-0.129,0.501,0.784,7.78,-8.48,16.36,1,0
16116.468,-0.134,0.496,0.784,12.76,-6.01,15.56,1,0
16116.484,-0.134,0.51,0.777,17.15,-3.85,15.2,1,0
16116.5,-0.123,0.507,0.778,20.11,-2.35,14.25,1,0
16116.515,-0.115,0.507,0.784,21.49,-0.89,12.18,1,0
16116.515,-0.115,0.536,0.796,20.94,0.85,10.71,1,0
16116.531,-0.114,0.539,0.799,19.26,2.2,10.41,1,0
16116.531,-0.112,0.533,0.808,17.06,2.84,10.19,1,0
16116.546,-0.113,0.535,0.826,15.81,3.2,10.25,1,0
16116.562,-0.113,0.55,0.814,15.41,3.2,10.9,1,0
16116.562,-0.107,0.57,0.808,14.4,2.78,12.51,1,0
16116.578,-0.109,0.571,0.812,13.25,2.11,12.88,1,0
16116.578,-0.115,0.574,0.82,12.24,1.43,12.42,1,0
16116.593,-0.122,0.586,0.828,12.57,0.24,12.05,1,0
16116.609,-0.129,0.592,0.819,14.62,-1.46,11.54,1,0
16116.625,-0.129,0.596,0.803,16.72,-3.27,11.14,1,0
16116.625,-0.126,0.608,0.8,18.8,-4.27,10.13,1,0
16116.64,-0.134,0.619,0.789,22.55,-3.94,8.15,1,0
16116.64,-0.145,0.618,0.77,27.38,-2.66,6.16,1,0
16116.656,-0.135,0.616,0.75,32.59,-0.43,4.64,1,0
16116.671,-0.11,0.613,0.733,37.35,3.42,3.69,1,0
16116.671,-0.093,0.621,0.728,40.47,9.4,2.38,1,0
16116.687,-0.096,0.642,0.738,41.41,16.42,1.59,1,0
16116.687,-0.108,0.651,0.765,38.09,21.55,1.43,1,0
16116.703,-0.115,0.66,0.795,30.88,23.32,1.8,1,0
16116.718,-0.114,0.657,0.807,22.64,22.61,3.14,1,0
16116.718,-0.097,0.615,0.819,15.72,21.21,4.82,1,0
16116.734,-0.05,0.587,0.84,9.37,20.97,6.53,1,0
16116.75,-0.014,0.552,0.859,6.23,24.75,7.87,1,0
16116.75,0.013,0.509,0.893,4.43,30.82,7.29,1,0
16116.765,0.018,0.465,0.928,3.91,36.62,4.27,1,0
16116.781,-0.012,0.426,0.973,5.8,39.03,-1.56,1,0
16116.781,-0.048,0.396,1.02,11.41,35.83,-9.37,1,0
16116.796,-0.071,0.389,1.042,18.65,25.94,-17.46,1,0
16116.812,-0.078,0.403,1.034,26.31,11.35,-25.24,1,0
16116.812,-0.075,0.428,0.98,34.91,-3.17,-32.38,1,0
16116.828,-0.074,0.46,0.916,41.9,-14.34,-38.42,1,0
16116.828,-0.069,0.507,0.869,46.63,-20.75,-42.66,1,0
16116.843,-0.084,0.568,0.808,48.25,-23.1,-45.38,1,0
16116.859,-0.095,0.598,0.762,45.84,-25.09,-47.85,1,0
16116.859,-0.109,0.644,0.735,41.54,-25.27,-49.1,1,0
16116.875,-0.136,0.672,0.702,36.74,-26.0,-49.13,1,0
16116.89,-0.146,0.682,0.677,33.94,-26.49,-47.85,1,0
16116.89,-0.167,0.702,0.657,34.49,-26.15,-45.78,1,0
16116.906,-0.185,0.703,0.637,37.84,-26.98,-43.76,1,0
16116.921,-0.21,0.72,0.622,43.55,-27.25,-41.44,1,0
16116.921,-0.248,0.746,0.59,49.38,-27.01,-38.61,1,0
16116.937,-0.264,0.766,0.553,51.76,-27.47,-35.8,1,0
16116.937,-0.269,0.794,0.505,50.9,-26.67,-33.08,1,0
16116.953,-0.282,0.812,0.479,46.57,-24.17,-30.15,1,0
16116.968,-0.282,0.817,0.454,40.38,-20.51,-26.86,1,0
16116.968,-0.279,0.799,0.435,34.21,-15.26,-22.89,1,0
16117.0,-0.289,0.715,0.419,31.83,1.83,-13.73,1,0
16117.015,-0.267,0.692,0.458,35.37,10.9,-9.34,1,0
16117.015,-0.267,0.662,0.496,40.62,18.01,-6.87,1,0
16117.031,-0.278,0.627,0.533,45.75,21.45,-3.78,1,0
16117.031,-0.26,0.631,0.54,50.63,22.4,-0.46,1,0
16117.046,-0.245,0.636,0.511,51.36,22.83,0.82,1,0
16117.062,-0.209,0.624,0.49,44.59,24.57,1.04,1,0
16117.062,-0.172,0.617,0.484,33.72,29.15,-0.49,1,0
16117.078,-0.154,0.605,0.491,15.44,43.86,-9.55,1,0
16117.078,-0.156,0.598,0.503,8.27,52.1,-12.79,1,0
16117.093,-0.167,0.611,0.518,2.44,58.35,-16.05,1,0
16117.109,-0.171,0.611,0.539,-0.61,63.23,-20.84,1,0
16117.109,-0.205,0.626,0.572,0.12,66.77,-26.61,1,0
16117.125,-0.219,0.64,0.576,2.41,69.52,-32.32,1,0
16117.14,-0.222,0.648,0.58,3.05,71.69,-38.12,1,0
16117.14,-0.222,0.644,0.584,2.38,73.15,-43.18,1,0
16117.171,-0.212,0.606,0.603,2.14,76.94,-51.27,1,0
16117.171,-0.223,0.586,0.618,5.13,77.97,-55.42,1,0
16117.187,-0.237,0.595,0.636,11.23,78.59,-60.79,1,0
16117.203,-0.276,0.608,0.635,19.29,77.61,-67.63,1,0
16117.203,-0.308,0.602,0.623,28.08,73.85,-74.13,1,0
16117.218,-0.333,0.591,0.591,38.12,69.64,-80.23,1,0
16117.234,-0.344,0.576,0.565,49.75,66.07,-86.46,1,0
16117.234,-0.332,0.577,0.557,62.38,63.91,-91.49,1,0
16117.25,-0.323,0.597,0.529,72.63,64.24,-94.45,1,0
16117.25,-0.331,0.592,0.508,78.98,65.28,-98.33,1,0
16117.265,-0.345,0.578,0.492,83.83,66.32,-102.94,1,0
16117.281,-0.362,0.58,0.464,87.47,67.02,-106.2,1,0
16117.281,-0.376,0.56,0.42,90.06,66.56,-111.18,1,0
16117.296,-0.396,0.496,0.365,91.53,66.19,-117.47,1,0
16117.312,-0.414,0.438,0.307,92.23,67.05,-123.14,1,0
16117.312,-0.402,0.413,0.262,93.54,70.19,-129.95,1,0
16117.343,-0.434,0.351,0.143,96.29,87.04,-156.04,1,0
16117.343,-0.452,0.317,0.106,92.1,99.7,-167.91,1,0
16117.359,-0.485,0.297,0.079,85.97,113.5,-180.15,1,0
16117.359,-0.528,0.26,0.043,78.22,127.29,-192.33,1,0
16117.375,-0.571,0.219,0.025,69.28,140.72,-202.73,1,0
16117.39,-0.623,0.185,0.019,61.19,153.66,-211.31,1,0
16117.39,-0.678,0.167,0.036,54.93,165.41,-217.11,1,0
16117.406,-0.736,0.162,0.053,51.7,175.82,-220.47,1,0
16117.421,-0.788,0.157,0.058,49.23,184.7,-220.92,1,0
16117.421,-0.864,0.227,0.126,45.29,192.72,-219.98,1,0
16117.437,-0.998,0.318,0.214,46.54,194.92,-216.74,1,0
16117.453,-1.095,0.337,0.229,51.52,187.72,-206.92,1,0
16117.453,-1.13,0.393,0.236,51.45,175.24,-191.72,1,0
16117.468,-1.165,0.481,0.255,44.62,159.73,-178.29,1,0
16117.468,-1.227,0.538,0.281,31.92,140.2,-170.2,1,0
16117.484,-1.277,0.551,0.26,12.05,116.43,-166.2,1,0
16117.5,-1.275,0.527,0.232,-15.5,91.16,-160.41,1,0
16117.5,-1.248,0.499,0.218,-43.28,68.15,-152.99,1,0
16117.515,-1.21,0.446,0.209,-66.1,47.4,-145.57,1,0
16117.531,-1.167,0.395,0.191,-83.44,29.05,-138.55,1,0
16117.546,-1.14,0.36,0.173,-96.41,14.1,-131.9,1,0
16117.546,-1.173,0.354,0.204,-105.38,2.38,-126.19,1,0
16117.562,-1.25,0.328,0.245,-107.58,-10.44,-115.39,1,0
16117.562,-1.298,0.297,0.285,-104.56,-26.98,-98.42,1,0
16117.578,-1.315,0.306,0.306,-97.42,-43.34,-83.68,1,0
16117.578,-1.303,0.302,0.289,-87.5,-57.22,-75.84,1,0
16117.593,-1.278,0.269,0.267,-77.46,-68.36,-74.01,1,0
16117.609,-1.247,0.238,0.248,-67.05,-74.95,-75.29,1,0
16117.625,-1.22,0.218,0.223,-54.38,-75.87,-79.5,1,0
16117.625,-1.226,0.193,0.198,-38.94,-71.75,-85.33,1,0
16117.64,-1.222,0.176,0.179,-21.73,-63.02,-90.7,1,0
16117.64,-1.22,0.168,0.155,-2.78,-51.33,-95.89,1,0
16117.656,-1.233,0.171,0.125,16.51,-38.21,-100.47,1,0
16117.671,-1.238,0.172,0.099,32.29,-25.88,-101.96,1,0
16117.671,-1.24,0.173,0.088,44.98,-15.93,-101.38,1,0
16117.687,-1.241,0.182,0.081,57.53,-9.61,-99.31,1,0
16117.687,-1.225,0.195,0.065,68.03,-6.84,-95.07,1,0
16117.703,-1.209,0.211,0.047,75.26,-4.58,-89.45,1,0
16117.718,-1.221,0.216,0.03,79.2,-1.28,-82.71,1,0
16117.718,-1.233,0.215,0.019,78.98,2.78,-74.25,1,0
16117.734,-1.233,0.225,0.01,74.43,5.92,-64.58,1,0
16117.75,-1.229,0.256,-0.005,64.15,7.66,-53.38,1,0
16117.75,-1.229,0.309,-0.02,44.34,6.16,-40.83,1,0
16117.765,-1.233,0.341,-0.021,12.3,-2.04,-27.89,1,0
16117.781,-1.228,0.323,0.017,-25.91,-18.52,-16.27,1,0
16117.781,-1.212,0.294,0.073,-62.72,-39.58,-4.61,1,0
16117.796,-1.191,0.25,0.117,-92.5,-62.07,6.5,1,0
16117.796,-1.18,0.193,0.156,-111.88,-84.08,16.11,1,0
16117.812,-1.151,0.142,0.188,-120.64,-101.93,24.87,1,0
16117.828,-1.054,0.057,0.182,-113.59,-116.61,39.67,1,0
16117.843,-0.98,0.024,0.144,-99.98,-110.81,45.56,1,0
16117.859,-0.954,-0.001,0.128,-81.12,-96.93,49.65,1,0
16117.859,-0.937,-0.023,0.14,-61.62,-81.94,52.25,1,0
16117.875,-0.911,-0.021,0.156,-43.24,-68.51,52.77,1,0
16117.89,-0.911,-0.018,0.164,-25.61,-56.09,51.94,1,0
16117.89,-0.925,-0.019,0.175,-10.83,-45.69,51.27,1,0
16117.906,-0.925,-0.019,0.186,0.98,-38.48,50.78,1,0
16117.921,-0.913,-0.021,0.186,10.41,-32.72,49.5,1,0
16117.921,-0.902,-0.021,0.181,18.07,-26.76,46.97,1,0
16117.937,-0.897,-0.016,0.18,23.93,-20.75,43.95,1,0
16117.953,-0.895,-0.013,0.184,28.26,-15.23,41.69,1,0
16117.953,-0.909,-0.01,0.199,32.07,-11.14,40.07,1,0
16117.968,-0.932,0.003,0.228,37.05,-9.09,40.13,1,0
16117.968,-0.943,0.025,0.25,44.01,-8.73,41.38,1,0
16117.984,-0.948,0.04,0.264,51.33,-10.35,42.33,1,0
16118.015,-0.92,0.045,0.269,65.92,-13.98,43.92,1,0
16118.015,-0.895,0.056,0.248,70.65,-14.19,43.28,1,0
16118.031,-0.873,0.058,0.231,75.05,-11.63,40.99,1,0
16118.031,-0.872,0.062,0.225,78.4,-7.81,37.84,1,0
16118.046,-0.874,0.08,0.227,79.41,-4.43,35.1,1,0
16118.062,-0.884,0.101,0.244,78.04,-1.37,31.98,1,0
16118.062,-0.896,0.113,0.262,75.44,-1.92,32.23,1,0
16118.078,-0.902,0.124,0.265,71.66,-2.56,33.08,1,0
16118.078,-0.899,0.135,0.254,66.96,-3.2,34.0,1,0
16118.093,-0.896,0.136,0.247,61.62,-3.75,34.91,1,0
16118.109,-0.888,0.139,0.238,54.81,-3.51,35.28,1,0
16118.125,-0.894,0.136,0.239,47.3,-2.66,35.1,1,0
16118.125,-0.899,0.124,0.243,40.5,-1.43,34.79,1,0
16118.14,-0.914,0.124,0.248,34.0,0.18,34.58,1,0
16118.14,-0.933,0.129,0.266,28.26,1.77,34.85,1,0
16118.156,-0.951,0.125,0.277,23.65,1.07,35.31,1,0
16118.187,-0.957,0.124,0.279,18.01,-1.46,38.06,1,0
16118.187,-0.952,0.128,0.279,16.3,-1.71,38.45,1,0
16118.203,-0.949,0.146,0.289,14.25,-0.82,36.87,1,0
16118.203,-0.948,0.159,0.294,12.15,0.61,33.51,1,0
16118.218,-0.961,0.17,0.308,11.14,2.75,29.94,1,0
16118.218,-0.978,0.181,0.328,12.33,4.43,27.47,1,0
16118.234,-0.986,0.193,0.342,16.42,5.01,26.61,1,0
16118.25,-0.991,0.207,0.348,23.13,4.94,26.98,1,0
16118.25,-0.991,0.218,0.343,30.88,4.76,28.11,1,0
16118.265,-0.985,0.223,0.334,38.06,4.76,29.57,1,0
16118.281,-0.978,0.233,0.332,43.89,5.68,30.46,1,0
16118.296,-0.973,0.243,0.328,47.85,7.02,30.49,1,0
16118.296,-0.971,0.255,0.32,49.44,8.42,30.0,1,0
16118.312,-0.975,0.273,0.327,49.1,9.64,28.57,1,0
16118.312,-0.983,0.287,0.336,47.98,8.94,27.44,1,0
16118.328,-0.983,0.302,0.338,46.21,6.74,27.47,1,0
16118.343,-0.983,0.332,0.326,43.03,2.38,29.6,1,0
16118.359,-0.984,0.341,0.332,42.3,0.18,31.83,1,0
16118.359,-0.982,0.358,0.329,42.36,-2.14,34.64,1,0
16118.375,-0.974,0.379,0.316,41.84,-4.21,37.57,1,0
16118.39,-0.962,0.401,0.312,39.64,-5.22,40.35,1,0
16118.39,-0.951,0.412,0.313,36.74,-5.95,43.06,1,0
16118.406,-0.941,0.42,0.302,32.84,-6.93,45.56,1,0
16118.406,-0.938,0.432,0.298,28.35,-7.69,47.88,1,0
16118.421,-0.941,0.433,0.303,24.45,-9.13,50.2,1,0
16118.437,-0.949,0.442,0.317,21.45,-11.84,53.1,1,0
16118.437,-0.948,0.444,0.309,19.65,-15.5,56.89,1,0
16118.453,-0.944,0.448,0.305,17.85,-19.35,60.85,1,0
16118.468,-0.943,0.45,0.315,16.97,-23.16,64.27,1,0
16118.468,-0.94,0.459,0.321,16.33,-27.99,67.14,1,0
16118.484,-0.946,0.507,0.325,14.13,-33.45,70.93,1,0
16118.5,-0.982,0.601,0.309,6.78,-39.98,78.01,1,0
16118.515,-0.998,0.684,0.278,-10.83,-49.81,89.57,1,0
16118.515,-1.001,0.728,0.264,-38.03,-61.68,104.22,1,0
16118.531,-0.986,0.72,0.262,-67.78,-73.31,118.78,1,0
16118.531,-0.947,0.67,0.26,-91.59,-83.41,129.89,1,0
16118.546,-0.879,0.583,0.274,-104.4,-87.34,137.03,1,0
16118.546,-0.83,0.524,0.314,-104.92,-84.96,139.19,1,0
16118.562,-0.8,0.461,0.34,-93.14,-80.54,137.24,1,0
16118.578,-0.759,0.42,0.348,-72.79,-74.53,133.61,1,0
16118.593,-0.725,0.433,0.342,-50.02,-66.32,128.82,1,0
16118.593,-0.722,0.496,0.35,-31.01,-57.62,123.17,1,0
16118.609,-0.752,0.587,0.353,-20.75,-52.31,119.17,1,0
16118.609,-0.757,0.644,0.341,-21.0,-51.7,119.08,1,0
16118.625,-0.723,0.671,0.333,-28.41,-51.88,121.59,1,0
16118.64,-0.685,0.659,0.323,-37.42,-50.81,123.36,1,0
16118.64,-0.644,0.626,0.332,-45.11,-47.58,122.71,1,0
16118.656,-0.62,0.591,0.351,-48.34,-43.12,119.88,1,0
16118.671,-0.6,0.556,0.377,-46.21,-38.91,115.85,1,0
16118.671,-0.603,0.55,0.413,-38.3,-35.71,111.67,1,0
16118.687,-0.617,0.57,0.429,-27.31,-34.97,108.77,1,0
16118.687,-0.611,0.593,0.429,-17.67,-36.99,107.18,1,0
16118.703,-0.605,0.637,0.441,-10.96,-39.58,105.78,1,0
16118.718,-0.596,0.682,0.435,-6.81,-42.73,104.37,1,0
16118.718,-0.569,0.697,0.412,-7.11,-45.32,103.85,1,0
16118.734,-0.533,0.709,0.402,-11.32,-46.14,103.7,1,0
16118.75,-0.505,0.701,0.401,-16.6,-45.59,102.54,1,0
16118.75,-0.487,0.673,0.402,-20.48,-44.8,100.47,1,0
16118.765,-0.464,0.646,0.402,-21.27,-43.86,98.51,1,0
16118.781,-0.447,0.627,0.412,-18.52,-42.54,96.44,1,0
16118.781,-0.431,0.615,0.419,-13.0,-40.99,94.3,1,0
16118.796,-0.413,0.619,0.421,-7.42,-39.25,92.01,1,0
16118.812,-0.39,0.636,0.424,-3.42,-36.81,89.51,1,0
16118.812,-0.376,0.657,0.427,-2.5,-34.49,86.4,1,0
16118.828,-0.38,0.679,0.444,-4.52,-33.75,84.05,1,0
16118.843,-0.35,0.693,0.45,-10.01,-36.41,83.71,1,0
16118.859,-0.321,0.715,0.468,-13.58,-36.87,83.1,1,0
16118.859,-0.31,0.726,0.488,-16.14,-36.9,80.75,1,0
16118.875,-0.303,0.726,0.493,-17.98,-37.11,78.25,1,0
16118.89,-0.298,0.732,0.513,-20.17,-37.51,76.6,1,0
16118.906,-0.285,0.726,0.518,-21.82,-39.09,75.14,1,0
16118.906,-0.273,0.716,0.518,-24.84,-41.44,73.43,1,0
16118.921,-0.258,0.715,0.527,-29.24,-44.8,70.89,1,0
16118.921,-0.235,0.705,0.52,-32.5,-48.19,67.57,1,0
16118.937,-0.206,0.691,0.504,-35.04,-49.81,64.0,1,0
16118.953,-0.179,0.686,0.5,-35.34,-48.8,60.85,1,0
16118.953,-0.164,0.662,0.502,-32.35,-45.59,57.31,1,0
16118.968,-0.155,0.657,0.513,-27.5,-41.14,54.23,1,0
16118.968,-0.144,0.665,0.521,-21.39,-36.16,51.58,1,0
16118.984,-0.127,0.677,0.521,-17.0,-31.25,48.43,1,0
16119.0,-0.11,0.694,0.515,-15.66,-26.18,44.59,1,0
16119.015,-0.104,0.699,0.524,-20.2,-16.14,36.29,1,0
16119.031,-0.118,0.699,0.565,-20.45,-12.7,32.93,1,0
16119.031,-0.148,0.698,0.601,-15.72,-11.2,31.31,1,0
16119.046,-0.159,0.712,0.623,-2.32,-13.25,33.85,1,0
16119.046,-0.16,0.737,0.631,0.82,-16.42,32.99,1,0
16119.062,-0.153,0.746,0.626,0.64,-19.78,30.46,1,0
16119.078,-0.141,0.755,0.597,-1.31,-22.71,27.68,1,0
16119.093,-0.123,0.737,0.581,-2.81,-24.69,24.84,1,0
16119.093,-0.1,0.719,0.557,-1.77,-24.48,22.06,1,0
16119.109,-0.082,0.704,0.537,1.25,-20.75,18.22,1,0
16119.109,-0.082,0.691,0.54,5.46,-14.77,12.97,1,0
16119.125,-0.092,0.696,0.544,9.0,-8.48,8.15,1,0
16119.14,-0.111,0.713,0.554,12.02,-2.93,4.64,1,0
16119.14,-0.141,0.725,0.575,14.92,0.49,2.84,1,0
16119.156,-0.159,0.742,0.59,17.82,1.13,2.75,1,0
16119.171,-0.163,0.761,0.592,20.2,-0.09,3.78,1,0
16119.187,-0.161,0.797,0.566,18.65,-4.0,5.52,1,0
16119.187,-0.16,0.807,0.557,13.98,-5.37,6.41,1,0
16119.203,-0.152,0.813,0.557,7.78,-5.89,8.09,1,0
16119.218,-0.149,0.809,0.552,1.83,-4.7,9.67,1,0
16119.218,-0.155,0.793,0.559,-2.17,-2.62,11.26,1,0
16119.234,-0.166,0.78,0.568,-3.66,-1.07,12.94,1,0
16119.25,-0.174,0.776,0.58,-3.36,-0.82,14.1,1,0
16119.25,-0.175,0.775,0.586,-2.93,-2.62,14.07,1,0
16119.265,-0.174,0.78,0.58,-3.27,-5.92,13.28,1,0
16119.281,-0.161,0.778,0.569,-5.13,-9.46,12.6,1,0
16119.281,-0.14,0.778,0.56,-8.0,-12.02,12.63,1,0
16119.296,-0.116,0.769,0.558,-10.62,-12.51,12.36,1,0
16119.312,-0.102,0.757,0.563,-12.88,-11.41,11.72,1,0
16119.312,-0.097,0.753,0.562,-13.92,-9.19,11.51,1,0
16119.328,-0.101,0.748,0.564,-13.67,-6.84,12.15,1,0
16119.328,-0.098,0.739,0.571,-13.28,-5.4,13.03,1,0
16119.359,-0.087,0.726,0.569,-13.21,-6.29,10.35,1,0
16119.375,-0.099,0.743,0.572,-14.83,-7.72,7.87,1,0
16119.375,-0.114,0.773,0.572,-18.68,-10.86,6.93,1,0
16119.39,-0.123,0.801,0.575,-25.42,-14.98,8.3,1,0
16119.39,-0.128,0.814,0.568,-35.16,-19.53,11.47,1,0
16119.406,-0.112,0.808,0.562,-46.45,-23.74,16.66,1,0
16119.421,-0.086,0.791,0.569,-56.18,-24.75,22.55,1,0
16119.421,-0.072,0.767,0.579,-62.5,-23.77,27.89,1,0
16119.437,-0.053,0.754,0.591,-64.58,-22.0,32.44,1,0
16119.453,-0.035,0.722,0.593,-62.07,-18.95,35.28,1,0
16119.453,-0.013,0.691,0.593,-58.81,-15.81,34.85,1,0
16119.468,0.011,0.669,0.608,-54.69,-12.48,31.62,1,0
16119.468,0.024,0.65,0.614,-48.59,-8.64,26.22,1,0
16119.484,0.033,0.633,0.617,-41.44,-3.72,19.84,1,0
16119.5,0.031,0.627,0.621,-34.09,1.56,13.09,1,0
16119.5,0.019,0.637,0.634,-27.59,6.38,7.14,1,0
16119.531,0.016,0.676,0.668,-21.58,11.99,0.55,1,0
16119.531,-0.005,0.694,0.687,-19.78,13.89,-0.76,1,0
16119.546,-0.029,0.714,0.695,-19.35,14.13,0.0,1,0
16119.546,-0.023,0.728,0.712,-21.97,11.72,2.35,1,0
16119.562,-0.011,0.732,0.719,-25.51,8.12,4.97,1,0
16119.578,0.002,0.721,0.719,-27.16,5.52,7.63,1,0
16119.578,0.015,0.705,0.714,-28.29,4.18,9.64,1,0
16119.593,0.037,0.692,0.727,-28.9,3.75,10.16,1,0
16119.609,0.045,0.685,0.742,-28.38,4.15,8.94,1,0
16119.609,0.037,0.676,0.758,-27.99,4.06,7.66,1,0
16119.625,0.044,0.66,0.762,-27.53,2.56,6.26,1,0
16119.64,0.046,0.648,0.784,-25.54,0.49,4.58,1,0
16119.64,0.035,0.643,0.793,-21.45,-2.41,3.05,1,0
16119.656,0.036,0.65,0.786,-18.19,-6.47,2.23,1,0
16119.671,0.06,0.662,0.781,-16.57,-10.35,2.04,1,0
16119.671,0.075,0.667,0.786,-15.99,-12.63,0.89,1,0
16119.703,0.092,0.663,0.787,-16.05,-14.65,-0.55,1,0
16119.703,0.089,0.65,0.784,-15.05,-13.64,-0.21,1,0
16119.718,0.052,0.648,0.789,-14.04,-13.55,0.0,1,0
16119.734,0.044,0.644,0.789,-14.86,-16.79,0.67,1,0
16119.734,0.067,0.632,0.803,-16.27,-21.76,0.67,1,0
16119.75,0.092,0.617,0.799,-16.14,-25.79,-0.7,1,0
16119.75,0.11,0.602,0.772,-13.52,-27.19,-2.87,1,0
16119.765,0.121,0.584,0.74,-9.7,-25.06,-5.28,1,0
16119.781,0.122,0.573,0.722,-4.76,-19.87,-8.03,1,0
16119.796,0.106,0.58,0.717,-0.46,-13.67,-10.93,1,0
16119.796,0.087,0.597,0.725,1.37,-8.76,-13.46,1,0
16119.796,0.065,0.608,0.732,2.01,-5.55,-15.2,1,0
16119.812,0.04,0.615,0.734,3.33,-3.75,-15.38,1,0
16119.828,0.026,0.624,0.741,3.97,-3.63,-14.65,1,0
16119.828,0.008,0.65,0.756,4.24,-4.43,-13.73,1,0
16119.843,-0.045,0.688,0.767,2.69,-7.45,-11.66,1,0
16119.875,-0.004,0.696,0.778,-12.85,-23.26,-5.04,1,0
16119.875,0.023,0.659,0.767,-17.88,-26.95,-3.88,1,0
16119.89,0.035,0.631,0.755,-17.94,-25.67,-3.36,1,0
16119.89,0.028,0.625,0.73,-14.65,-22.0,-2.87,1,0
16119.906,0.041,0.625,0.723,-11.75,-18.25,-2.47,1,0
16119.921,0.043,0.63,0.732,-10.25,-13.95,-3.6,1,0
16119.921,0.03,0.629,0.737,-8.85,-10.59,-5.37,1,0
16119.937,0.013,0.627,0.737,-7.72,-8.55,-6.01,1,0
16119.937,-0.011,0.644,0.751,-7.08,-7.87,-6.26,1,0
16119.953,-0.027,0.661,0.765,-8.67,-10.22,-5.65,1,0
16119.968,-0.013,0.67,0.774,-13.28,-14.4,-4.85,1,0
16119.968,-0.009,0.678,0.788,-17.58,-18.01,-3.2,1,0
16119.984,0.016,0.658,0.794,-19.04,-21.49,-0.92,1,0
16120.0,0.057,0.645,0.782,-20.45,-23.13,0.06,1,0
16120.0,0.093,0.634,0.767,-21.52,-21.85,-0.89,1,0
16120.015,0.104,0.61,0.752,-20.05,-17.37,-2.87,1,0
16120.031,0.105,0.594,0.73,-9.64,0.67,-9.19,1,0
16120.046,0.1,0.61,0.737,-10.07,4.52,-11.14,1,0
16120.062,0.066,0.633,0.75,-14.44,3.54,-12.3,1,0
16120.062,0.024,0.661,0.824,-19.29,-1.34,-11.41,1,0
16120.078,0.029,0.658,0.836,-21.73,-7.84,-9.03,1,0
16120.078,0.056,0.649,0.826,-22.8,-13.58,-6.44,1,0
16120.093,0.095,0.64,0.799,-22.55,-16.6,-4.79,1,0
16120.109,0.123,0.626,0.772,-20.75,-16.02,-4.24,1,0
16120.125,0.13,0.616,0.757,-17.76,-13.06,-4.15,1,0
16120.125,0.128,0.611,0.751,-14.65,-9.74,-3.78,1,0
16120.14,0.125,0.613,0.758,-13.15,-7.26,-3.36,1,0
16120.14,0.105,0.62,0.772,-13.73,-6.81,-2.9,1,0
16120.156,0.084,0.617,0.794,-15.87,-10.01,-1.71,1,0
16120.171,0.102,0.609,0.802,-20.23,-16.08,-0.46,1,0
16120.171,0.125,0.594,0.804,-24.51,-21.94,0.79,1,0
16120.187,0.139,0.557,0.801,-24.69,-25.27,2.93,1,0
16120.203,0.177,0.501,0.764,-18.49,-25.36,8.51,1,0
16120.218,0.203,0.496,0.772,-16.36,-22.86,9.0,1,0
16120.218,0.184,0.485,0.802,-14.74,-20.26,8.06,1,0
16120.234,0.165,0.476,0.849,-15.08,-22.0,7.39,1,0
16120.25,0.16,0.474,0.885,-16.57,-28.38,6.9,1,0
16120.25,0.166,0.465,0.915,-18.86,-37.9,5.95,1,0
16120.265,0.178,0.456,0.928,-19.81,-48.74,4.73,1,0
16120.281,0.207,0.438,0.907,-17.61,-57.83,4.12,1,0
16120.281,0.245,0.433,0.867,-13.09,-62.32,3.63,1,0
16120.296,0.266,0.438,0.817,-7.17,-61.68,1.86,1,0
16120.312,0.254,0.439,0.782,-1.98,-58.23,-0.95,1,0
16120.312,0.215,0.448,0.772,0.64,-54.93,-3.45,1,0
16120.328,0.187,0.454,0.76,1.8,-53.44,-5.34,1,0
16120.328,0.172,0.458,0.729,3.33,-52.58,-6.71,1,0
16120.343,0.16,0.467,0.704,3.94,-51.27,-7.6,1,0
16120.359,0.153,0.489,0.691,2.62,-49.75,-8.79,1,0
16120.375,0.161,0.506,0.667,0.7,-45.11,-10.22,1,0
16120.39,0.161,0.519,0.656,3.33,-39.7,-9.34,1,0
16120.39,0.157,0.54,0.642,5.83,-33.54,-7.02,1,0
16120.406,0.166,0.549,0.625,6.81,-27.47,-4.03,1,0
16120.421,0.168,0.55,0.611,6.93,-20.45,-0.79,1,0
16120.421,0.168,0.549,0.595,8.3,-12.33,2.44,1,0
16120.437,0.16,0.554,0.597,10.13,-3.88,5.55,1,0
16120.453,0.138,0.569,0.615,10.96,3.39,8.55,1,0
16120.453,0.12,0.581,0.635,10.53,8.76,10.96,1,0
16120.468,0.105,0.587,0.661,8.27,11.72,12.57,1,0
16120.468,0.101,0.588,0.684,6.32,13.21,13.76,1,0
16120.484,0.1,0.583,0.701,7.29,15.84,14.4,1,0
16120.5,0.08,0.582,0.707,10.22,19.9,14.04,1,0
16120.515,0.032,0.587,0.727,13.95,24.05,12.85,1,0
16120.515,-0.017,0.592,0.744,18.86,25.85,11.57,1,0
16120.531,-0.053,0.592,0.737,23.04,25.15,9.98,1,0
16120.546,-0.093,0.57,0.676,28.26,20.84,4.88,1,0
16120.562,-0.094,0.565,0.635,31.46,20.29,2.01,1,0
16120.562,-0.11,0.579,0.607,34.73,21.76,-1.68,1,0
16120.578,-0.115,0.585,0.586,37.97,22.92,-4.49,1,0
16120.578,-0.112,0.58,0.582,40.77,23.38,-5.95,1,0
16120.593,-0.116,0.574,0.58,43.76,23.59,-6.65,1,0
16120.609,-0.128,0.564,0.589,47.82,23.13,-7.63,1,0
16120.625,-0.146,0.562,0.625,54.05,20.69,-9.03,1,0
16120.625,-0.163,0.555,0.679,66.62,15.53,-10.35,1,0
16120.64,-0.148,0.584,0.683,84.54,8.94,-10.25,1,0
16120.64,-0.109,0.64,0.645,99.22,1.83,-8.73,1,0
16120.656,-0.052,0.675,0.569,104.95,-5.01,-7.87,1,0
16120.671,-0.003,0.695,0.506,100.71,-9.8,-8.79,1,0
16120.671,0.034,0.693,0.466,90.18,-11.66,-11.2,1,0
16120.687,0.069,0.68,0.449,78.1,-9.64,-15.17,1,0
16120.687,0.088,0.664,0.47,68.48,-4.0,-20.51,1,0
16120.718,0.143,0.658,0.532,64.88,13.09,-37.72,1,0
16120.734,0.165,0.696,0.571,68.24,22.68,-50.2,1,0
16120.734,0.143,0.741,0.602,71.41,30.34,-63.33,1,0
16120.75,0.127,0.787,0.621,71.23,33.91,-73.52,1,0
16120.75,0.124,0.83,0.616,68.85,34.12,-80.11,1,0
16120.765,0.146,0.848,0.601,66.1,33.3,-82.06,1,0
16120.781,0.201,0.835,0.591,61.77,33.69,-77.82,1,0
16120.781,0.179,0.877,0.54,62.41,38.36,-71.96,1,0
16120.796,0.152,0.98,0.464,61.59,45.44,-63.39,1,0
16120.812,0.243,0.974,0.472,50.54,57.01,-48.68,1,0
16120.812,0.225,1.002,0.516,38.09,76.08,-31.1,1,0
16120.828,0.203,0.983,0.604,26.31,93.54,-11.23,1,0
16120.843,0.151,0.944,0.687,15.99,105.44,8.3,1,0
16120.843,0.098,0.884,0.754,7.63,110.17,26.67,1,0
16120.859,0.1,0.805,0.816,3.14,109.47,39.92,1,0
16120.875,0.122,0.83,0.867,3.42,107.67,46.6,1,0
16120.89,0.18,0.877,0.926,-1.86,103.89,50.63,1,0
16120.89,0.199,0.872,0.979,-8.67,104.1,56.7,1,0
16120.906,0.195,0.837,1.048,-17.24,102.94,68.09,1,0
16120.921,0.187,0.785,1.119,-27.71,96.1,79.2,1,0
16120.921,0.184,0.743,1.163,-34.24,83.8,86.83,1,0
16120.937,0.209,0.735,1.165,-36.56,66.93,89.42,1,0
16120.953,0.234,0.74,1.14,-37.48,47.82,85.73,1,0
16120.953,0.239,0.752,1.098,-39.25,29.97,78.22,1,0
16120.968,0.201,0.775,1.062,-41.23,15.59,70.59,1,0
16120.968,0.152,0.807,1.036,-43.7,2.53,66.13,1,0
16120.984,0.142,0.834,0.989,-48.49,-11.41,64.39,1,0
16121.0,0.169,0.831,0.935,-53.93,-24.2,64.09,1,0
16121.015,0.204,0.819,0.88,-54.02,-37.23,58.72,1,0
16121.015,0.214,0.817,0.839,-46.75,-38.91,53.74,1,0
16121.031,0.205,0.816,0.813,-36.59,-40.62,48.19,1,0
16121.031,0.186,0.842,0.794,-27.07,-42.57,44.56,1,0
16121.062,0.089,0.906,0.738,-17.61,-51.61,45.93,1,0
16121.062,0.058,0.901,0.702,-16.24,-58.47,48.68,1,0
16121.078,0.024,0.875,0.652,-14.74,-65.65,51.82,1,0
16121.093,-0.012,0.848,0.588,-12.02,-72.57,55.48,1,0
16121.093,-0.028,0.813,0.516,-9.46,-78.71,59.88,1,0
16121.109,-0.036,0.78,0.422,-8.67,-81.67,66.5,1,0
16121.109,-0.013,0.738,0.337,-8.03,-80.02,74.83,1,0
16121.125,0.031,0.687,0.296,-8.24,-74.31,82.89,1,0
16121.14,0.082,0.664,0.285,-8.7,-64.79,89.05,1,0
16121.14,0.129,0.67,0.302,-10.13,-53.16,93.3,1,0
16121.156,0.161,0.667,0.368,-13.31,-43.37,94.76,1,0
16121.171,0.185,0.645,0.456,-13.21,-38.21,93.6,1,0
16121.171,0.22,0.613,0.543,-8.51,-37.26,90.7,1,0
16121.187,0.3,0.606,0.622,-1.31,-38.18,85.33,1,0
16121.187,0.413,0.662,0.683,8.73,-37.48,76.11,1,0
16121.203,0.498,0.738,0.738,18.46,-34.03,66.23,1,0
16121.218,0.535,0.806,0.783,25.3,-30.3,60.12,1,0
16121.234,0.521,0.889,0.831,24.81,-30.12,62.69,1,0
16121.234,0.435,0.936,0.863,16.45,-36.68,74.07,1,0
16121.25,0.365,0.895,0.84,2.08,-50.94,93.23,1,0
16121.25,0.369,0.83,0.788,-13.46,-68.06,113.65,1,0
16121.265,0.41,0.734,0.731,-22.64,-79.47,126.99,1,0
16121.281,0.419,0.638,0.69,-24.81,-82.28,131.99,1,0
16121.281,0.386,0.561,0.658,-21.7,-81.12,129.4,1,0
16121.296,0.307,0.51,0.648,-16.66,-78.68,119.02,1,0
16121.312,0.296,0.488,0.653,-11.38,-74.77,102.3,1,0
16121.312,0.401,0.584,0.676,-1.86,-64.12,84.17,1,0
16121.328,0.408,0.725,0.679,8.91,-44.07,69.34,1,0
16121.343,0.377,0.837,0.72,9.89,-21.0,67.32,1,0
16121.343,0.41,0.969,0.774,0.58,-1.16,78.86,1,0
16121.359,0.491,1.022,0.8,-20.97,13.92,98.12,1,0
16121.359,0.561,0.989,0.884,-52.89,25.91,118.96,1,0
16121.375,0.562,0.872,0.98,-86.67,35.58,132.91,1,0
16121.39,0.52,0.673,1.086,-115.09,40.77,134.95,1,0
16121.39,0.501,0.425,1.176,-127.32,39.19,120.67,1,0
16121.406,0.504,0.192,1.226,-119.39,33.51,89.51,1,0
16121.421,0.52,0.083,1.244,-94.97,23.26,42.27,1,0
16121.421,0.569,0.036,1.191,-57.62,6.78,-15.96,1,0
16121.437,0.628,0.063,1.079,-10.77,-11.47,-73.49,1,0
16121.453,0.634,0.173,0.92,41.2,-24.99,-118.78,1,0
16121.453,0.598,0.317,0.738,80.23,-31.74,-144.38,1,0
16121.468,0.594,0.458,0.563,92.62,-36.99,-152.41,1,0
16121.468,0.634,0.557,0.45,80.42,-41.05,-145.79,1,0
16121.484,0.643,0.622,0.386,56.52,-40.86,-127.14,1,0
16121.5,0.647,0.613,0.355,28.44,-39.52,-97.2,1,0
16121.5,0.658,0.605,0.334,-0.64,-40.28,-62.01,1,0
16121.515,0.639,0.541,0.306,-28.87,-40.31,-24.75,1,0
16121.531,0.624,0.421,0.293,-53.99,-40.71,10.41,1,0
16121.531,0.653,0.292,0.304,-70.41,-41.84,36.41,1,0
16121.562,0.721,0.073,0.361,-65.89,-36.23,53.13,1,0
16121.562,0.752,0.009,0.372,-51.7,-30.95,45.63,1,0
16121.578,0.746,-0.006,0.41,-35.77,-25.21,30.73,1,0
16121.578,0.7,0.006,0.45,-21.42,-20.63,13.21,1,0
16121.593,0.653,0.092,0.501,-12.63,-20.39,-4.33,1,0
16121.609,0.615,0.222,0.53,-8.55,-24.78,-18.98,1,0
16121.609,0.609,0.297,0.567,-10.53,-32.11,-27.92,1,0
16121.625,0.621,0.358,0.575,-17.7,-39.19,-32.47,1,0
16121.64,0.657,0.392,0.556,-21.42,-42.82,-33.11,1,0
16121.656,0.671,0.436,0.523,-21.94,-41.41,-31.01,1,0
16121.656,0.678,0.477,0.472,-21.06,-37.63,-27.86,1,0
16121.671,0.678,0.498,0.452,-21.3,-32.2,-23.77,1,0
16121.671,0.682,0.515,0.438,-21.97,-27.01,-22.31,1,0
16121.687,0.677,0.523,0.427,-23.83,-23.47,-23.96,1,0
16121.703,0.684,0.523,0.431,-26.25,-19.84,-26.0,1,0
16121.703,0.688,0.526,0.439,-25.24,-15.75,-28.75,1,0
16121.734,0.669,0.582,0.492,-16.3,-6.56,-27.53,1,0
16121.734,0.669,0.62,0.507,-15.72,-5.22,-22.74,1,0
16121.75,0.676,0.633,0.52,-19.07,-5.37,-16.17,1,0
16121.75,0.678,0.62,0.517,-24.08,-6.1,-8.94,1,0
16121.765,0.688,0.593,0.51,-28.63,-7.93,-1.89,1,0
16121.781,0.704,0.543,0.503,-30.64,-9.03,3.02,1,0
16121.781,0.715,0.503,0.494,-29.66,-8.73,4.97,1,0
16121.796,0.718,0.477,0.477,-27.13,-7.6,3.88,1,0
16121.812,0.722,0.442,0.473,-25.42,-6.32,0.85,1,0
16121.812,0.713,0.426,0.488,-23.8,-3.72,-3.17,1,0
16121.828,0.681,0.407,0.517,-20.29,-0.89,-6.96,1,0
16121.843,0.65,0.399,0.537,-13.61,1.4,-8.79,1,0
16121.843,0.629,0.395,0.521,-4.67,2.72,-9.19,1,0
16121.859,0.618,0.41,0.496,1.25,1.74,-10.13,1,0
16121.859,0.621,0.417,0.476,2.17,0.31,-13.09,1,0
16121.875,0.604,0.41,0.456,0.61,0.85,-16.54,1,0
16121.89,0.562,0.392,0.441,0.92,4.73,-21.06,1,0
16121.906,0.547,0.376,0.417,5.1,8.09,-24.05,1,0
16121.921,0.525,0.378,0.397,8.94,11.57,-29.05,1,0
16121.921,0.499,0.393,0.381,12.54,15.5,-33.66,1,0
16121.937,0.479,0.405,0.385,13.7,18.22,-36.9,1,0
16121.953,0.474,0.42,0.364,14.13,19.81,-39.31,1,0
16121.953,0.482,0.424,0.331,14.98,22.19,-40.07,1,0
16121.968,0.481,0.444,0.307,14.5,25.91,-39.37,1,0
16121.968,0.48,0.463,0.291,11.78,30.18,-37.26,1,0
16121.984,0.496,0.463,0.283,7.14,34.7,-33.08,1,0
16122.0,0.512,0.461,0.287,-0.43,45.66,-20.87,1,0
16122.0,0.529,0.461,0.3,-4.43,50.63,-14.68,1,0
16122.015,0.536,0.471,0.315,-8.67,54.51,-9.34,1,0
16122.031,0.535,0.465,0.381,-12.15,56.64,-4.64,1,0
16122.046,0.549,0.468,0.406,-15.14,56.49,-1.13,1,0
16122.046,0.558,0.475,0.423,-17.12,56.34,1.59,1,0
16122.062,0.574,0.446,0.455,-17.43,60.67,6.41,1,0
16122.078,0.572,0.446,0.483,-17.61,64.52,7.29,1,0
16122.093,0.551,0.434,0.519,-18.59,68.21,6.68,1,0
16122.093,0.518,0.43,0.567,-19.47,70.13,4.97,1,0
16122.109,0.498,0.434,0.607,-19.71,70.74,3.42,1,0
16122.109,0.49,0.448,0.647,-21.09,70.28,1.01,1,0
16122.125,0.475,0.442,0.688,-22.52,70.13,-2.04,1,0
16122.14,0.445,0.432,0.723,-21.52,70.28,-5.62,1,0
16122.14,0.435,0.422,0.751,-17.43,70.77,-8.67,1,0
16122.156,0.432,0.444,0.773,-12.45,72.12,-12.33,1,0
16122.171,0.404,0.439,0.787,-8.48,74.65,-16.94,1,0
16122.171,0.387,0.444,0.812,-5.52,76.66,-21.67,1,0
16122.187,0.353,0.485,0.843,-2.87,79.1,-25.57,1,0
16122.203,0.31,0.52,0.89,-2.93,80.9,-25.88,1,0
16122.203,0.266,0.552,0.956,-6.23,80.66,-24.26,1,0
16122.218,0.224,0.577,1.015,-10.16,76.14,-23.19,1,0
16122.234,0.219,0.605,1.072,-13.37,67.6,-22.98,1,0
16122.234,0.245,0.62,1.113,-15.69,58.38,-23.53,1,0
16122.25,0.277,0.61,1.136,-17.18,51.15,-25.48,1,0
16122.25,0.313,0.609,1.157,-15.44,48.8,-28.72,1,0
16122.265,0.308,0.621,1.161,-6.16,48.43,-35.07,1,0
16122.281,0.314,0.658,1.167,7.42,46.91,-43.21,1,0
16122.281,0.308,0.727,1.192,20.11,45.17,-49.32,1,0
16122.296,0.282,0.818,1.23,29.3,41.57,-51.18,1,0
16122.312,0.25,0.888,1.258,33.66,34.33,-45.32,1,0
16122.312,0.243,0.951,1.263,31.53,23.07,-33.11,1,0
16122.328,0.27,0.971,1.243,24.05,10.22,-16.08,1,0
16122.328,0.301,0.936,1.203,12.48,-1.28,3.54,1,0
16122.343,0.329,0.847,1.147,1.95,-10.16,21.64,1,0
16122.359,0.345,0.742,1.091,-4.76,-17.03,34.09,1,0
16122.375,0.355,0.633,1.039,-7.81,-22.98,39.09,1,0
16122.375,0.365,0.538,0.996,-6.35,-26.73,39.0,1,0
16122.39,0.371,0.472,0.97,-2.59,-28.23,36.59,1,0
16122.406,0.374,0.43,0.957,0.89,-28.47,34.24,1,0
16122.406,0.376,0.404,0.95,1.25,-28.87,33.14,1,0
16122.421,0.368,0.376,0.958,-3.11,-30.06,33.69,1,0
16122.421,0.349,0.345,0.971,-11.02,-32.38,35.92,1,0
16122.437,0.35,0.307,0.98,-20.02,-36.13,38.48,1,0
16122.453,0.367,0.281,0.991,-28.57,-39.64,39.19,1,0
16122.453,0.384,0.242,1.014,-34.76,-41.96,37.26,1,0
16122.468,0.418,0.204,1.029,-34.15,-43.24,35.1,1,0
16122.468,0.418,0.197,1.022,-28.9,-43.55,31.16,1,0
16122.484,0.428,0.188,1.014,-26.8,-45.72,24.9,1,0
16122.5,0.435,0.173,1.008,-27.47,-48.83,16.02,1,0
16122.5,0.434,0.173,1.016,-30.03,-50.26,7.93,1,0
16122.515,0.435,0.179,1.03,-32.59,-51.21,1.65,1,0
16122.531,0.416,0.185,1.036,-34.76,-52.4,-3.88,1,0
16122.531,0.405,0.18,1.044,-36.68,-54.02,-7.93,1,0
16122.546,0.409,0.201,1.041,-37.84,-56.18,-12.24,1,0
16122.562,0.403,0.191,1.024,-39.22,-56.76,-16.02,1,0
16122.562,0.397,0.209,1.008,-39.83,-57.44,-21.0,1,0
16122.578,0.369,0.235,0.997,-40.31,-57.68,-25.94,1,0
16122.578,0.342,0.247,0.984,-41.84,-57.68,-29.3,1,0
16122.593,0.325,0.263,0.97,-43.21,-58.02,-31.71,1,0
16122.609,0.326,0.282,0.959,-43.21,-57.5,-32.99,1,0
16122.609,0.308,0.304,0.941,-41.93,-57.07,-35.28,1,0
16122.625,0.308,0.346,0.93,-39.58,-57.44,-36.35,1,0
16122.64,0.285,0.383,0.904,-36.68,-57.83,-36.47,1,0
16122.656,0.268,0.425,0.869,-38.12,-58.66,-34.18,1,0
16122.656,0.289,0.458,0.831,-43.79,-59.02,-30.95,1,0
16122.671,0.28,0.421,0.805,-49.41,-55.09,-26.12,1,0
16122.671,0.27,0.431,0.779,-52.37,-52.8,-19.23,1,0
16122.687,0.3,0.433,0.743,-53.29,-50.42,-15.41,1,0
16122.687,0.293,0.401,0.713,-54.69,-46.17,-12.54,1,0
16122.703,0.283,0.391,0.707,-57.53,-43.34,-10.9,1,0
16122.718,0.296,0.389,0.688,-58.57,-42.42,-10.38,1,0
16122.734,0.304,0.381,0.656,-58.17,-41.75,-11.14,1,0
16122.734,0.304,0.374,0.629,-58.63,-39.43,-12.42,1,0
16122.75,0.291,0.372,0.594,-59.76,-35.55,-12.91,1,0
16122.75,0.287,0.367,0.564,-61.07,-31.25,-12.97,1,0
16122.765,0.29,0.372,0.547,-61.77,-25.73,-12.88,1,0
16122.781,0.292,0.381,0.536,-61.07,-19.35,-12.12,1,0
16122.781,0.289,0.392,0.524,-60.7,-12.63,-10.9,1,0
16122.796,0.294,0.394,0.522,-62.2,-6.07,-9.52,1,0
16122.812,0.287,0.38,0.543,-63.66,0.79,-8.12,1,0
16122.812,0.271,0.372,0.548,-63.78,6.68,-5.92,1,0
16122.828,0.28,0.371,0.55,-63.36,11.38,-2.38,1,0
16122.828,0.287,0.349,0.561,-63.33,15.5,0.18,1,0
16122.843,0.309,0.314,0.561,-64.39,18.56,1.92,1,0
16122.859,0.355,0.281,0.54,-65.65,20.33,3.54,1,0
16122.875,0.404,0.26,0.531,-66.71,24.17,4.67,1,0
16122.875,0.451,0.265,0.536,-67.17,31.1,5.28,1,0
16122.89,0.462,0.256,0.552,-66.35,41.14,5.77,1,0
16122.89,0.457,0.26,0.599,-69.0,50.69,5.25,1,0
16122.906,0.45,0.259,0.662,-72.3,59.21,6.01,1,0
16122.921,0.435,0.248,0.727,-75.08,66.71,8.27,1,0
16122.921,0.434,0.22,0.78,-78.37,71.26,10.25,1,0
16122.937,0.433,0.217,0.827,-80.66,73.46,12.05,1,0
16122.953,0.434,0.178,0.872,-78.01,74.95,13.89,1,0
16122.953,0.422,0.152,0.896,-73.49,76.75,13.49,1,0
16122.968,0.412,0.124,0.904,-69.19,78.55,10.32,1,0
16122.968,0.397,0.095,0.91,-59.11,84.32,-1.46,1,0
16122.984,0.376,0.072,0.915,-49.56,88.72,-7.87,1,0
16123.0,0.352,0.062,0.918,-38.51,93.57,-15.08,1,0
16123.0,0.331,0.056,0.918,-27.1,99.03,-23.1,1,0
16123.015,0.221,0.16,0.939,-18.37,104.43,-29.39,1,0
16123.031,0.122,0.22,0.962,-18.34,102.76,-34.73,1,0
16123.046,0.079,0.256,1.001,-26.09,91.8,-38.51,1,0
16123.046,0.029,0.262,1.011,-29.02,79.13,-40.77,1,0
16123.062,-0.011,0.274,0.995,-27.47,66.41,-41.44,1,0
16123.062,-0.002,0.295,0.968,-24.45,55.02,-42.15,1,0
16123.078,-0.0,0.297,0.898,-17.64,48.19,-45.5,1,0
16123.078,-0.001,0.304,0.827,-8.06,46.36,-50.26,1,0
16123.093,-0.017,0.335,0.76,1.89,48.1,-56.12,1,0
16123.109,-0.04,0.373,0.705,10.71,50.72,-62.17,1,0
16123.125,-0.054,0.416,0.664,18.16,53.65,-66.13,1,0
16123.125,-0.057,0.467,0.625,22.83,57.89,-65.95,1,0
16123.14,-0.066,0.516,0.61,22.89,64.46,-60.4,1,0
16123.14,-0.102,0.547,0.618,18.92,71.5,-49.38,1,0
16123.156,-0.12,0.541,0.649,10.59,76.48,-31.89,1,0
16123.171,-0.1,0.493,0.701,-0.61,79.74,-10.9,1,0
16123.171,-0.067,0.415,0.732,-12.67,82.89,7.9,1,0
16123.187,-0.028,0.302,0.76,-22.89,86.52,21.0,1,0
16123.203,0.012,0.182,0.806,-29.57,90.73,27.8,1,0
16123.203,0.037,0.065,0.858,-31.07,95.25,28.66,1,0
16123.218,0.05,-0.027,0.908,-25.54,99.31,24.08,1,0
16123.218,0.072,-0.085,0.953,-16.57,102.21,15.11,1,0
16123.234,0.083,-0.126,0.998,-7.6,105.5,2.04,1,0
16123.25,0.061,-0.147,1.059,-0.24,107.46,-13.64,1,0
16123.25,0.02,-0.163,1.11,7.93,106.27,-29.18,1,0
16123.265,-0.018,-0.151,1.146,16.91,102.82,-42.63,1,0
16123.281,-0.068,-0.098,1.156,24.6,98.03,-53.83,1,0
16123.281,-0.103,-0.052,1.136,28.02,91.07,-62.5,1,0
16123.296,-0.122,-0.017,1.11,26.18,84.14,-68.64,1,0
16123.312,-0.136,0.005,1.081,22.77,79.65,-73.37,1,0
16123.312,-0.158,0.009,1.061,21.0,78.89,-77.06,1,0
16123.328,-0.189,0.007,1.063,22.37,79.35,-79.68,1,0
16123.343,-0.211,0.015,1.066,27.28,78.52,-82.98,1,0
16123.343,-0.215,0.037,1.049,34.49,76.66,-86.21,1,0
16123.359,-0.218,0.099,1.028,37.72,76.88,-88.26,1,0
16123.359,-0.237,0.154,1.015,31.4,79.29,-87.8,1,0
16123.375,-0.248,0.17,1.025,19.38,83.9,-83.5,1,0
16123.39,-0.297,0.177,1.037,6.47,86.37,-78.34,1,0
16123.39,-0.303,0.184,1.07,-6.78,86.12,-73.15,1,0
16123.406,-0.338,0.148,1.108,-15.99,89.48,-66.56,1,0
16123.421,-0.368,0.11,1.136,-19.59,89.42,-60.82,1,0
16123.421,-0.353,0.106,1.155,-18.4,85.18,-59.27,1,0
16123.437,-0.349,0.115,1.156,-14.74,81.82,-60.95,1,0
16123.453,-0.347,0.114,1.15,-11.6,78.07,-64.79,1,0
16123.453,-0.344,0.125,1.145,-8.18,74.4,-69.06,1,0
16123.468,-0.368,0.148,1.137,-4.15,72.51,-72.18,1,0
16123.468,-0.396,0.164,1.146,-1.59,70.83,-73.27,1,0
16123.484,-0.414,0.173,1.158,0.24,68.45,-72.57,1,0
16123.5,-0.424,0.18,1.15,4.39,64.82,-71.02,1,0
16123.5,-0.423,0.195,1.133,9.77,61.28,-68.33,1,0
16123.515,-0.43,0.239,1.121,13.58,57.89,-63.63,1,0
16123.531,-0.431,0.273,1.105,13.64,53.1,-57.37,1,0
16123.531,-0.417,0.27,1.085,9.31,46.91,-51.85,1,0
16123.546,-0.396,0.252,1.064,2.78,41.44,-46.27,1,0
16123.562,-0.377,0.233,1.059,-3.48,38.79,-38.85,1,0
16123.562,-0.385,0.241,1.049,-7.63,38.15,-33.6,1,0
16123.578,-0.392,0.202,1.054,-11.75,37.72,-26.61,1,0
16123.593,-0.386,0.176,1.06,-12.54,38.82,-21.0,1,0
16123.593,-0.412,0.164,1.045,-11.14,38.67,-19.01,1,0
16123.609,-0.449,0.148,1.05,-10.96,34.7,-16.48,1,0
16123.625,-0.459,0.136,1.06,-8.76,30.0,-11.9,1,0
16123.625,-0.438,0.137,1.04,-6.13,24.35,-9.03,1,0
16123.64,-0.393,0.136,1.0,-6.44,19.47,-6.99,1,0
16123.64,-0.371,0.128,0.976,-8.94,17.73,-5.25,1,0
16123.656,-0.329,0.104,0.981,-12.12,17.7,-3.02,1,0
16123.671,-0.27,0.074,1.014,-14.16,21.73,0.4,1,0
16123.671,-0.226,0.054,1.062,-15.23,28.14,2.78,1,0
16123.687,-0.236,0.042,1.1,-16.39,32.99,2.04,1,0
16123.703,-0.272,0.016,1.141,-17.61,34.0,0.18,1,0
16123.703,-0.294,0.002,1.196,-16.94,32.11,-1.13,1,0
16123.718,-0.348,0.016,1.241,-13.7,27.47,-1.31,1,0
16123.718,-0.399,0.02,1.232,-10.07,16.63,-2.38,1,0
16123.734,-0.429,0.018,1.187,-6.35,2.29,-4.27,1,0
16123.75,-0.426,0.023,1.128,-2.01,-9.95,-5.71,1,0
16123.75,-0.453,0.016,1.06,4.06,-18.59,-7.14,1,0
16123.765,-0.466,0.02,0.995,10.28,-24.2,-8.51,1,0
16123.781,-0.486,0.034,0.931,15.2,-27.99,-11.87,1,0
16123.781,-0.498,0.041,0.886,18.25,-30.06,-14.53,1,0
16123.796,-0.525,0.051,0.862,21.45,-29.36,-16.08,1,0
16123.812,-0.556,0.07,0.847,24.66,-29.21,-16.6,1,0
16123.812,-0.582,0.095,0.83,27.25,-29.85,-15.72,1,0
16123.828,-0.607,0.103,0.822,27.68,-31.98,-13.31,1,0
16123.843,-0.585,0.098,0.819,28.87,-34.82,-8.45,1,0
16123.843,-0.559,0.119,0.797,30.46,-36.04,-3.14,1,0
16123.859,-0.545,0.117,0.769,28.57,-36.81,0.79,1,0
16123.859,-0.53,0.107,0.753,22.71,-37.08,3.88,1,0
16123.875,-0.523,0.096,0.742,15.53,-36.01,6.87,1,0
16123.89,-0.518,0.075,0.732,9.64,-33.57,10.25,1,0
16123.89,-0.502,0.056,0.735,5.25,-30.43,13.21,1,0
16123.906,-0.496,0.043,0.741,3.3,-26.28,15.02,1,0
16123.921,-0.495,0.029,0.763,2.35,-22.52,15.99,1,0
16123.921,-0.491,0.013,0.803,2.56,-19.78,16.63,1,0
16123.937,-0.489,0.011,0.839,4.21,-19.07,16.97,1,0
16123.953,-0.459,0.017,0.843,3.94,-19.47,18.19,1,0
16123.953,-0.43,0.02,0.848,-7.69,-16.79,23.1,1,0
16123.968,-0.397,0.01,0.855,-14.5,-13.0,26.46,1,0
16123.968,-0.356,-0.003,0.874,-18.89,-7.45,29.69,1,0
16123.984,-0.321,-0.018,0.903,-21.45,-1.07,31.68,1,0
16124.0,-0.256,-0.051,0.974,-22.22,5.89,31.92,1,0
16124.0,-0.252,-0.072,1.011,-20.84,12.24,30.95,1,0
16124.015,-0.267,-0.082,1.053,-17.85,16.57,29.69,1,0
16124.031,-0.284,-0.089,1.076,-15.05,16.85,27.16,1,0
16124.046,-0.323,-0.09,1.073,-15.11,13.64,23.41,1,0
16124.046,-0.364,-0.084,1.061,-16.05,8.21,18.92,1,0
16124.046,-0.389,-0.073,1.038,-15.17,1.68,14.65,1,0
16124.062,-0.399,-0.059,1.009,-11.38,-4.3,10.74,1,0
16124.078,-0.396,-0.04,0.977,-5.95,-8.7,6.68,1,0
16124.093,-0.397,-0.027,0.935,-2.04,-10.74,2.9,1,0
16124.093,-0.403,-0.014,0.905,0.64,-10.93,-0.46,1,0
16124.109,-0.415,0.018,0.879,3.05,-9.95,-2.93,1,0
16124.109,-0.429,0.033,0.858,4.15,-8.64,-4.7,1,0
16124.125,-0.44,0.043,0.846,5.25,-6.93,-5.86,1,0
16124.14,-0.449,0.057,0.839,6.71,-5.19,-6.29,1,0
16124.14,-0.449,0.061,0.829,7.6,-3.66,-6.65,1,0
16124.156,-0.451,0.062,0.824,8.15,-2.26,-6.68,1,0
16124.171,-0.446,0.062,0.831,8.73,-0.89,-6.56,1,0
16124.171,-0.436,0.066,0.838,9.22,0.76,-6.29,1,0
16124.187,-0.431,0.074,0.839,9.43,2.69,-5.49,1,0
16124.187,-0.433,0.083,0.845,8.06,4.46,-3.72,1,0
16124.203,-0.425,0.092,0.857,4.67,5.65,-0.95,1,0
16124.218,-0.407,0.094,0.865,0.06,6.32,1.77,1,0
16124.218,-0.388,0.087,0.873,-5.07,7.48,4.39,1,0
16124.234,-0.376,0.074,0.889,-8.27,9.95,6.99,1,0
16124.25,-0.367,0.072,0.909,-8.88,12.54,8.88,1,0
16124.25,-0.364,0.069,0.927,-8.48,14.44,9.49,1,0
16124.265,-0.367,0.063,0.948,-8.36,14.89,9.22,1,0
16124.281,-0.366,0.055,0.967,-7.78,13.79,8.61,1,0
16124.281,-0.363,0.058,0.982,-5.86,12.27,8.0,1,0
16124.296,-0.373,0.06,0.979,-4.03,10.32,7.97,1,0
16124.312,-0.377,0.059,0.966,-3.91,7.93,8.12,1,0
16124.312,-0.387,0.054,0.951,-4.27,5.89,8.39,1,0
16124.328,-0.393,0.043,0.939,-4.12,3.88,7.81,1,0
16124.328,-0.395,0.034,0.919,-2.9,2.53,6.41,1,0
16124.343,-0.406,0.039,0.9,-0.55,2.44,4.55,1,0
16124.359,-0.416,0.043,0.893,1.83,2.72,3.27,1,0
16124.359,-0.426,0.049,0.89,3.17,2.81,2.23,1,0
16124.375,-0.444,0.061,0.885,3.05,2.38,1.53,1,0
16124.39,-0.455,0.064,0.884,2.44,1.13,2.2,1,0
16124.39,-0.451,0.066,0.878,1.59,-0.27,3.54,1,0
16124.406,-0.44,0.071,0.867,-0.31,-0.95,4.43,1,0
16124.421,-0.44,0.07,0.867,-2.2,-0.7,5.34,1,0
16124.421,-0.446,0.072,0.871,-3.72,-0.12,7.05,1,0
16124.437,-0.444,0.07,0.882,-6.07,-0.61,8.88,1,0
16124.453,-0.431,0.058,0.891,-8.24,-1.8,9.86,1,0
16124.453,-0.411,0.04,0.896,-8.85,-2.26,10.13,1,0
16124.468,-0.399,0.026,0.902,-7.57,-1.53,9.37,1,0
16124.468,-0.391,0.019,0.906,-5.49,-0.09,7.6,1,0
16124.484,-0.393,0.018,0.912,-3.48,1.25,5.34,1,0
16124.5,-0.408,0.024,0.919,-1.83,2.38,3.85,1,0
16124.5,-0.422,0.028,0.928,-1.77,1.86,3.48,1,0
16124.515,-0.419,0.03,0.926,-2.84,0.21,3.6,1,0
16124.531,-0.418,0.03,0.926,-4.15,-1.25,3.75,1,0
16124.531,-0.411,0.032,0.921,-5.04,-2.56,4.27,1,0
16124.546,-0.412,0.037,0.915,-5.07,-3.17,4.7,1,0
16124.562,-0.428,0.032,0.918,-4.58,-3.75,4.67,1,0
16124.562,-0.424,0.031,0.916,-3.91,-5.04,4.06,1,0
16124.578,-0.41,0.031,0.9,-2.04,-5.55,2.41,1,0
16124.578,-0.407,0.037,0.884,0.12,-4.61,0.0,1,0
16124.593,-0.417,0.044,0.88,0.67,-2.78,-1.65,1,0
16124.609,-0.424,0.048,0.884,0.43,-1.22,-2.11,1,0
16124.609,-0.423,0.045,0.882,0.55,-0.15,-2.11,1,0
16124.625,-0.423,0.05,0.879,1.07,1.28,-1.71,1,0
16124.64,-0.426,0.056,0.879,0.98,2.62,-0.58,1,0
16124.64,-0.426,0.055,0.883,-0.18,3.75,0.76,1,0
16124.656,-0.428,0.052,0.903,-2.17,4.06,1.62,1,0
16124.671,-0.437,0.048,0.924,-3.11,2.93,1.83,1,0
16124.687,-0.432,0.038,0.935,-2.84,0.4,2.04,1,0
16124.687,-0.415,0.037,0.934,-1.95,-2.17,1.65,1,0
16124.687,-0.403,0.035,0.927,-0.79,-3.88,0.31,1,0
16124.703,-0.393,0.033,0.912,0.58,-4.24,-1.19,1,0
16124.718,-0.397,0.038,0.898,1.77,-3.48,-2.47,1,0
16124.734,-0.404,0.043,0.893,1.98,-2.08,-3.11,1,0
16124.734,-0.409,0.045,0.892,1.71,-0.76,-2.99,1,0
16124.75,-0.418,0.05,0.896,2.5,0.12,-2.93,1,0
16124.75,-0.435,0.052,0.902,3.14,0.34,-2.44,1,0
16124.765,-0.445,0.062,0.907,2.14,-0.55,-1.04,1,0
16124.781,-0.433,0.062,0.902,0.27,-2.26,0.15,1,0
16124.781,-0.42,0.052,0.901,-1.1,-3.17,0.4,1,0
16124.796,-0.418,0.053,0.898,-1.28,-2.9,0.55,1,0
16124.812,-0.416,0.057,0.898,-1.07,-2.35,0.64,1,0
16124.812,-0.413,0.056,0.897,-1.07,-1.86,0.64,1,0
16124.828,-0.41,0.05,0.894,-1.13,-1.13,0.4,1,0
16124.828,-0.407,0.045,0.893,-0.79,0.06,-0.27,1,0
16124.843,-0.418,0.046,0.897,0.18,1.34,-1.01,1,0
16124.859,-0.435,0.048,0.907,0.82,1.71,-1.25,1,0
16124.859,-0.434,0.052,0.912,0.46,0.67,-0.58,1,0
16124.875,-0.429,0.058,0.911,-0.27,-0.67,0.58,1,0
16124.89,-0.426,0.054,0.91,-1.1,-1.62,1.92,1,0
16124.906,-0.42,0.053,0.913,-1.77,-2.47,2.96,1,0
16124.906,-0.41,0.051,0.913,-2.41,-3.27,3.02,1,0
16124.921,-0.401,0.042,0.909,-2.53,-3.72,2.26,1,0
16124.921,-0.396,0.032,0.908,-1.37,-3.17,1.1,1,0
16124.937,-0.397,0.03,0.902,1.4,-2.17,-0.73,1,0
16124.953,-0.404,0.037,0.895,4.88,-0.12,-3.2,1,0
16124.953,-0.421,0.049,0.895,4.24,-0.15,-2.78,1,0
16124.968,-0.433,0.057,0.9,3.05,-0.92,-1.4,1,0
16124.984,-0.437,0.07,0.897,1.19,-1.8,0.18,1,0
16124.984,-0.435,0.068,0.895,-1.37,-2.62,2.04,1,0
16125.0,-0.423,0.062,0.895,-4.03,-3.14,3.81,1,0
16125.0,-0.41,0.053,0.894,-5.55,-2.87,4.79,1,0
16125.015,-0.405,0.043,0.899,-5.4,-1.83,4.58,1,0
16125.031,-0.405,0.036,0.903,-3.91,-0.55,3.72,1,0
16125.031,-0.405,0.035,0.899,-2.23,0.43,2.41,1,0
16125.046,-0.406,0.03,0.905,-0.82,1.31,0.92,1,0
16125.062,-0.412,0.027,0.909,1.4,1.71,-0.89,1,0
16125.062,-0.417,0.028,0.908,3.2,1.74,-2.2,1,0
16125.078,-0.421,0.031,0.907,4.15,1.16,-3.05,1,0
16125.078,-0.422,0.035,0.904,4.49,0.58,-3.63,1,0
16125.093,-0.422,0.034,0.904,4.24,0.06,-4.09,1,0
16125.109,-0.416,0.034,0.897,3.81,-0.4,-4.15,1,0
16125.109,-0.411,0.033,0.894,3.97,-0.15,-4.55,1,0
16125.125,-0.412,0.035,0.892,4.49,0.67,-5.22,1,0
16125.14,-0.42,0.048,0.891,4.43,1.5,-5.49,1,0
16125.14,-0.426,0.056,0.889,3.02,2.01,-4.7,1,0
16125.156,-0.426,0.057,0.893,1.04,2.23,-3.42,1,0
16125.171,-0.432,0.058,0.9,-0.4,2.38,-2.44,1,0
16125.171,-0.438,0.053,0.913,-0.4,1.89,-1.59,1,0
16125.187,-0.426,0.056,0.915,0.31,0.49,-0.89,1,0
16125.203,-0.41,0.056,0.906,0.79,-0.64,-0.85,1,0
16125.203,-0.408,0.05,0.9,0.98,-0.73,-1.34,1,0
16125.218,-0.419,0.046,0.908,0.98,-0.21,-2.08,1,0
16125.218,-0.426,0.043,0.911,1.34,-0.43,-2.78,1,0
16125.234,-0.423,0.045,0.903,2.01,-0.92,-3.27,1,0
16125.25,-0.422,0.049,0.895,2.23,-0.43,-3.57,1,0
16125.25,-0.421,0.047,0.892,1.92,0.21,-3.72,1,0
16125.265,-0.422,0.048,0.891,1.71,0.89,-4.03,1,0
16125.281,-0.428,0.047,0.895,1.28,1.34,-4.06,1,0
16125.281,-0.433,0.051,0.901,1.5,1.37,-3.27,1,0
16125.296,-0.429,0.06,0.895,1.56,1.37,-1.86,1,0
16125.312,-0.427,0.062,0.9,0.58,1.46,-0.73,1,0
16125.312,-0.424,0.057,0.907,-0.43,0.95,0.18,1,0
16125.328,-0.417,0.056,0.909,-0.85,0.49,0.49,1,0
16125.343,-0.414,0.049,0.904,-0.18,0.43,0.12,1,0
16125.343,-0.416,0.046,0.902,0.43,0.82,-0.67,1,0
16125.359,-0.427,0.054,0.908,1.04,0.92,-1.31,1,0
16125.359,-0.434,0.061,0.907,0.73,-0.03,-1.25,1,0
16125.375,-0.428,0.061,0.902,-0.12,-1.46,-0.46,1,0
16125.39,-0.42,0.058,0.894,-0.64,-1.92,0.0,1,0
16125.39,-0.421,0.051,0.892,-0.52,-1.37,0.27,1,0
16125.406,-0.424,0.049,0.89,0.4,-0.52,0.24,1,0
16125.421,-0.422,0.052,0.887,1.83,-0.06,-0.24,1,0
16125.421,-0.425,0.052,0.886,2.66,0.7,-1.01,1,0
16125.437,-0.438,0.053,0.898,2.66,1.19,-1.25,1,0
16125.437,-0.442,0.057,0.906,2.01,0.24,-1.07,1,0
16125.453,-0.432,0.058,0.898,0.37,-1.4,-0.24,1,0
16125.468,-0.423,0.056,0.896,-1.56,-1.92,0.67,1,0
16125.468,-0.423,0.051,0.9,-2.59,-1.71,1.19,1,0
16125.484,-0.425,0.047,0.905,-2.23,-1.53,1.37,1,0
16125.5,-0.428,0.047,0.903,-1.34,-1.46,1.46,1,0
16125.5,-0.424,0.049,0.9,-1.5,-1.65,1.4,1,0
16125.515,-0.423,0.047,0.903,-1.89,-1.71,1.13,1,0
16125.531,-0.425,0.044,0.906,-1.5,-1.46,1.22,1,0
16125.531,-0.424,0.046,0.903,-0.76,-1.43,1.31,1,0
16125.546,-0.417,0.046,0.898,-0.09,-1.25,1.16,1,0
16125.562,-0.417,0.041,0.895,0.43,-0.92,0.58,1,0
16125.562,-0.42,0.04,0.896,0.95,-0.4,-0.46,1,0
16125.578,-0.422,0.04,0.898,1.68,-0.06,-1.28,1,0
16125.578,-0.42,0.038,0.894,2.29,0.18,-2.23,1,0
16125.593,-0.42,0.041,0.889,2.87,0.61,-2.93,1,0
16125.609,-0.428,0.047,0.888,3.05,1.19,-3.63,1,0
16125.609,-0.443,0.052,0.896,2.14,1.22,-3.6,1,0
16125.625,-0.445,0.056,0.902,0.27,0.09,-3.05,1,0
16125.64,-0.44,0.051,0.902,-1.92,-1.46,-2.56,1,0
16125.64,-0.427,0.045,0.908,-4.24,-2.81,-2.93,1,0
16125.656,-0.415,0.035,0.911,-5.49,-3.72,-4.76,1,0
16125.671,-0.411,0.026,0.913,-4.39,-4.12,-6.84,1,0
16125.671,-0.412,0.025,0.912,-1.98,-4.18,-8.73,1,0
16125.687,-0.409,0.027,0.902,0.79,-3.91,-10.38,1,0
16125.687,-0.411,0.034,0.896,2.84,-3.02,-11.72,1,0
16125.703,-0.423,0.038,0.896,3.78,-2.01,-12.3,1,0
16125.718,-0.434,0.045,0.897,4.36,-1.34,-11.35,1,0
16125.718,-0.436,0.06,0.892,4.52,-1.07,-9.31,1,0
16125.734,-0.441,0.069,0.884,3.45,-0.79,-6.53,1,0
16125.75,-0.443,0.071,0.886,1.22,-0.76,-3.2,1,0
16125.75,-0.434,0.071,0.887,-0.85,-0.7,-0.55,1,0
16125.765,-0.431,0.067,0.89,-2.5,-0.67,0.85,1,0
16125.781,-0.433,0.059,0.896,-3.75,-0.76,1.62,1,0
16125.796,-0.425,0.049,0.901,-4.33,-1.16,1.95,1,0
16125.796,-0.424,0.043,0.905,-3.33,-1.46,1.68,1,0
16125.812,-0.42,0.042,0.907,-2.32,-1.65,1.01,1,0
16125.812,-0.416,0.039,0.906,-1.71,-2.04,-0.09,1,0
16125.828,-0.424,0.04,0.909,-0.95,-2.2,-0.79,1,0
16125.828,-0.43,0.043,0.912,-0.37,-2.59,-0.73,1,0
16125.843,-0.422,0.046,0.905,-0.67,-3.33,-0.24,1,0
16125.859,-0.416,0.044,0.9,-1.01,-3.39,0.15,1,0
16125.875,-0.413,0.041,0.898,-0.95,-2.87,0.24,1,0
16125.875,-0.415,0.04,0.896,-0.49,-1.89,0.0,1,0
16125.89,-0.423,0.041,0.896,-0.34,-1.1,-0.34,1,0
16125.89,-0.423,0.039,0.897,-0.09,-0.76,-0.7,1,0
16125.906,-0.42,0.037,0.895,0.52,-0.43,-0.92,1,0
16125.921,-0.42,0.038,0.893,1.43,-0.06,-1.04,1,0
16125.921,-0.421,0.036,0.897,1.65,-0.03,-1.89,1,0
16125.937,-0.421,0.03,0.897,2.32,0.21,-2.53,1,0
16125.937,-0.429,0.026,0.898,3.14,0.37,-3.48,1,0
16125.953,-0.432,0.025,0.901,3.75,0.27,-4.79,1,0
16125.968,-0.431,0.031,0.905,4.09,0.0,-6.1,1,0
16125.968,-0.433,0.033,0.908,3.51,-0.43,-6.9,1,0
16125.984,-0.426,0.035,0.911,2.17,-1.34,-7.32,1,0
16126.0,-0.421,0.029,0.91,1.28,-1.95,-7.6,1,0
16126.0,-0.416,0.026,0.909,1.62,-2.01,-7.97,1,0
16126.015,-0.415,0.031,0.907,2.17,-1.62,-8.33,1,0
16126.031,-0.412,0.031,0.904,2.87,-1.16,-8.58,1,0
16126.031,-0.412,0.032,0.901,3.11,-0.73,-8.45,1,0
16126.046,-0.42,0.033,0.901,3.11,-0.27,-8.3,1,0
16126.062,-0.428,0.034,0.905,3.02,-0.37,-8.06,1,0
16126.062,-0.427,0.037,0.9,3.33,-0.76,-7.54,1,0
16126.078,-0.423,0.048,0.89,3.3,-0.73,-6.9,1,0
16126.093,-0.429,0.051,0.886,2.14,-0.52,-6.13,1,0
16126.093,-0.429,0.053,0.888,0.03,-0.43,-5.37,1,0
16126.109,-0.428,0.054,0.89,-1.56,-0.49,-4.61,1,0
16126.109,-0.427,0.053,0.888,-2.2,-0.37,-3.91,1,0
16126.125,-0.427,0.05,0.888,-2.29,0.15,-3.17,1,0
16126.14,-0.427,0.045,0.891,-1.74,0.73,-2.87,1,0
16126.14,-0.427,0.043,0.897,-0.89,0.95,-2.87,1,0
16126.156,-0.42,0.04,0.896,-0.21,0.76,-3.36,1,0
16126.171,-0.418,0.039,0.899,0.85,0.67,-3.97,1,0
16126.171,-0.426,0.039,0.904,2.56,0.61,-4.24,1,0
16126.187,-0.424,0.045,0.903,4.09,0.52,-4.06,1,0
16126.187,-0.426,0.047,0.9,5.34,0.85,-3.85,1,0
16126.203,-0.433,0.05,0.899,5.37,1.31,-3.51,1,0
16126.218,-0.438,0.057,0.902,4.06,1.46,-2.93,1,0
16126.218,-0.439,0.056,0.907,2.11,1.01,-1.89,1,0
16126.234,-0.435,0.051,0.907,0.12,0.27,-0.21,1,0
16126.25,-0.428,0.047,0.912,-1.74,-0.49,1.01,1,0
16126.25,-0.419,0.037,0.914,-2.47,-1.07,1.43,1,0
16126.265,-0.413,0.031,0.911,-1.62,-1.19,1.25,1,0
16126.281,-0.409,0.028,0.907,0.0,-0.98,0.4,1,0
16126.281,-0.411,0.027,0.905,1.98,-0.34,-0.82,1,0
16126.296,-0.427,0.03,0.908,3.97,0.15,-1.77,1,0
16126.312,-0.438,0.032,0.911,5.01,-0.52,-1.95,1,0
16126.312,-0.434,0.034,0.901,5.71,-1.8,-1.98,1,0
16126.328,-0.433,0.036,0.892,6.07,-2.26,-1.83,1,0
16126.328,-0.432,0.041,0.887,5.55,-2.47,-1.62,1,0
16126.343,-0.427,0.041,0.877,4.61,-2.41,-1.25,1,0
16126.359,-0.424,0.039,0.871,4.09,-1.83,-0.98,1,0
16126.359,-0.427,0.037,0.873,4.24,-0.92,-0.64,1,0
16126.375,-0.428,0.036,0.878,4.88,-0.09,-0.31,1,0
16126.39,-0.423,0.034,0.872,5.4,0.49,-0.34,1,0
16126.406,-0.419,0.034,0.871,5.22,1.22,-0.85,1,0
16126.406,-0.426,0.034,0.876,4.97,2.32,-1.65,1,0
16126.421,-0.431,0.035,0.881,4.73,3.11,-1.89,1,0
16126.421,-0.43,0.038,0.884,4.06,3.14,-2.29,1,0
16126.437,-0.43,0.044,0.887,3.23,3.36,-2.62,1,0
16126.453,-0.438,0.055,0.888,1.83,3.33,-2.32,1,0
16126.453,-0.439,0.062,0.889,-0.24,2.9,-1.68,1,0
16126.468,-0.433,0.061,0.891,-2.11,2.32,-1.22,1,0
16126.468,-0.433,0.058,0.892,-2.84,2.26,-0.76,1,0
16126.484,-0.434,0.057,0.895,-2.38,2.69,-0.37,1,0
16126.5,-0.433,0.058,0.899,-1.43,2.87,-0.03,1,0
16126.5,-0.43,0.059,0.898,-0.67,2.69,-0.15,1,0
16126.515,-0.428,0.055,0.897,0.09,2.81,-0.82,1,0
16126.531,-0.428,0.053,0.897,0.7,3.33,-1.4,1,0
16126.531,-0.431,0.055,0.901,1.65,4.18,-1.86,1,0
16126.546,-0.44,0.058,0.902,2.81,4.91,-2.04,1,0
16126.562,-0.45,0.065,0.903,3.3,4.97,-1.71,1,0
16126.562,-0.457,0.067,0.905,2.59,4.06,-0.89,1,0
16126.578,-0.456,0.069,0.908,1.1,2.44,-0.03,1,0
16126.578,-0.456,0.067,0.906,-0.55,0.85,1.13,1,0
16126.593,-0.454,0.062,0.909,-1.59,-0.43,2.29,1,0
16126.609,-0.443,0.055,0.908,-2.01,-1.37,2.9,1,0
16126.625,-0.432,0.048,0.903,-1.77,-1.77,2.69,1,0
16126.625,-0.433,0.041,0.902,-0.67,-1.37,1.92,1,0
16126.64,-0.439,0.04,0.901,0.95,-0.64,1.13,1,0
16126.64,-0.446,0.043,0.898,2.04,-0.24,0.37,1,0
16126.656,-0.445,0.046,0.892,2.41,-0.4,-0.03,1,0
16126.671,-0.444,0.045,0.888,2.32,-0.37,-0.09,1,0
16126.671,-0.444,0.045,0.886,1.83,-0.27,0.31,1,0
16126.687,-0.444,0.045,0.885,1.01,-0.37,1.1,1,0
16126.703,-0.447,0.043,0.887,0.18,-0.27,1.71,1,0
16126.703,-0.448,0.04,0.881,-0.46,-0.09,1.77,1,0
16126.718,-0.453,0.042,0.88,-0.95,0.09,1.62,1,0
16126.718,-0.446,0.035,0.883,-0.55,0.73,1.19,1,0
16126.734,-0.443,0.037,0.881,0.06,1.86,1.01,1,0
16126.75,-0.446,0.036,0.882,0.31,2.69,0.61,1,0
16126.75,-0.447,0.037,0.888,0.18,2.72,-0.03,1,0
16126.765,-0.445,0.038,0.894,0.09,2.29,-0.43,1,0
16126.781,-0.442,0.04,0.893,-0.09,1.5,-0.4,1,0
16126.781,-0.439,0.047,0.888,-0.46,1.07,-0.09,1,0
16126.796,-0.434,0.049,0.888,-0.98,0.85,0.24,1,0
16126.812,-0.432,0.048,0.89,-1.37,0.98,0.06,1,0
16126.812,-0.432,0.047,0.891,-1.37,1.37,-0.49,1,0
16126.828,-0.441,0.051,0.897,-0.76,1.62,-0.82,1,0
16126.828,-0.45,0.057,0.896,-0.24,1.28,-0.85,1,0
16126.843,-0.453,0.061,0.896,-0.55,0.27,-0.55,1,0
16126.859,-0.449,0.06,0.896,-0.82,-0.61,-0.12,1,0
16126.859,-0.446,0.059,0.894,-0.7,-1.1,0.18,1,0
16126.875,-0.446,0.063,0.891,-0.52,-1.28,0.49,1,0
16126.89,-0.449,0.061,0.888,-0.76,-1.19,0.82,1,0
16126.89,-0.453,0.059,0.889,-1.46,-1.31,1.19,1,0
16126.906,-0.453,0.057,0.89,-2.66,-1.4,1.71,1,0
16126.921,-0.449,0.053,0.889,-2.78,-1.19,1.83,1,0
16126.921,-0.444,0.048,0.886,-2.56,-0.89,1.46,1,0
16126.937,-0.445,0.043,0.889,-2.23,-1.01,1.07,1,0
16126.953,-0.455,0.039,0.904,-1.53,-2.01,1.1,1,0
16126.953,-0.447,0.039,0.9,-1.1,-3.27,1.04,1,0
16126.968,-0.441,0.039,0.893,-1.16,-3.66,0.76,1,0
16126.968,-0.437,0.038,0.89,-1.37,-3.42,0.34,1,0
16126.984,-0.434,0.038,0.888,-1.16,-2.56,-0.09,1,0
16127.0,-0.434,0.037,0.883,-0.31,-1.4,-0.49,1,0
16127.0,-0.436,0.04,0.882,0.21,-0.58,-0.61,1,0
16127.015,-0.437,0.041,0.883,0.18,0.12,-1.01,1,0
16127.031,-0.443,0.041,0.886,0.09,0.46,-1.37,1,0
16127.031,-0.449,0.04,0.89,0.12,0.43,-1.34,1,0
16127.046,-0.45,0.041,0.89,0.37,-0.24,-1.01,1,0
16127.062,-0.445,0.044,0.89,0.82,-0.85,-0.85,1,0
16127.062,-0.446,0.045,0.888,1.07,-1.13,-0.92,1,0
16127.078,-0.447,0.046,0.89,0.85,-1.5,-0.98,1,0
16127.078,-0.442,0.045,0.889,0.92,-1.83,-0.89,1,0
16127.093,-0.438,0.046,0.884,1.31,-1.71,-0.95,1,0
16127.109,-0.442,0.054,0.885,1.01,-1.04,-1.01,1,0
16127.109,-0.442,0.054,0.884,0.03,-0.85,-0.76,1,0
16127.125,-0.44,0.052,0.882,-0.85,-0.82,-0.4,1,0
16127.14,-0.442,0.049,0.886,-0.61,-0.24,-0.18,1,0
16127.156,-0.447,0.049,0.888,-0.03,0.15,0.06,1,0
16127.156,-0.449,0.054,0.889,0.0,0.21,0.03,1,0
16127.171,-0.455,0.056,0.895,-0.37,-0.46,0.27,1,0
16127.171,-0.454,0.056,0.897,-0.95,-1.86,0.82,1,0
16127.187,-0.445,0.055,0.89,-1.77,-2.87,1.19,1,0
16127.203,-0.436,0.05,0.884,-1.86,-2.96,1.37,1,0
16127.203,-0.433,0.047,0.881,-1.53,-1.92,1.16,1,0
16127.218,-0.44,0.045,0.881,-1.04,-0.89,0.92,1,0
16127.218,-0.443,0.044,0.884,-0.73,-0.55,0.61,1,0
16127.234,-0.442,0.039,0.884,-0.64,-0.34,0.37,1,0
16127.25,-0.439,0.036,0.886,-0.43,0.0,0.27,1,0
16127.25,-0.442,0.037,0.888,0.24,0.61,-0.15,1,0
16127.265,-0.453,0.041,0.891,0.79,0.95,-0.27,1,0
16127.281,-0.454,0.042,0.898,0.37,0.06,0.03,1,0
16127.281,-0.443,0.042,0.895,-0.34,-0.95,0.31,1,0
16127.296,-0.435,0.042,0.893,-0.27,-1.01,0.09,1,0
16127.312,-0.442,0.045,0.893,0.0,-0.49,-0.27,1,0
16127.312,-0.449,0.049,0.898,-0.15,-0.52,-0.34,1,0
16127.328,-0.447,0.049,0.895,-0.24,-1.07,-0.18,1,0
16127.328,-0.438,0.046,0.888,-0.31,-1.4,0.15,1,0
16127.343,-0.44,0.043,0.885,-0.15,-0.92,0.03,1,0
16127.359,-0.447,0.043,0.886,0.27,-0.58,0.03,1,0
16127.359,-0.446,0.043,0.885,0.31,-1.01,0.18,1,0
16127.375,-0.442,0.042,0.886,0.76,-1.19,0.03,1,0
16127.39,-0.443,0.041,0.886,1.22,-1.19,-0.15,1,0
16127.39,-0.443,0.043,0.885,1.37,-1.07,-0.27,1,0
16127.406,-0.44,0.04,0.884,1.65,-0.67,-0.61,1,0
16127.421,-0.442,0.038,0.881,2.04,-0.18,-1.31,1,0
16127.421,-0.45,0.043,0.881,2.5,0.37,-1.77,1,0
16127.437,-0.458,0.049,0.886,2.17,0.18,-1.53,1,0
16127.453,-0.447,0.051,0.89,0.95,-0.49,-0.64,1,0
16127.453,-0.437,0.05,0.896,-0.21,-0.49,0.15,1,0
16127.468,-0.443,0.047,0.901,-0.37,0.15,0.18,1,0
16127.468,-0.45,0.049,0.905,-0.03,0.27,-0.21,1,0
16127.484,-0.455,0.051,0.903,0.12,-0.34,-0.73,1,0
16127.5,-0.451,0.051,0.895,0.21,-0.85,-1.1,1,0
16127.5,-0.451,0.058,0.889,0.18,-0.79,-1.01,1,0
16127.515,-0.454,0.061,0.887,-0.12,-0.76,-0.4,1,0
16127.531,-0.452,0.061,0.885,-0.89,-0.95,0.46,1,0
16127.531,-0.449,0.056,0.885,-1.53,-1.1,1.1,1,0
16127.546,-0.447,0.051,0.885,-1.83,-0.98,1.28,1,0
16127.562,-0.446,0.049,0.888,-2.11,-0.79,1.53,1,0
16127.562,-0.442,0.044,0.892,-2.11,-0.7,1.59,1,0
16127.578,-0.44,0.039,0.889,-1.77,-0.37,1.43,1,0
16127.593,-0.442,0.039,0.889,-1.25,-0.03,1.34,1,0
16127.593,-0.449,0.039,0.894,-1.25,-0.15,0.85,1,0
16127.609,-0.451,0.039,0.896,-1.34,-0.95,0.67,1,0
16127.609,-0.444,0.036,0.898,-1.31,-1.62,0.31,1,0
16127.625,-0.443,0.035,0.896,-0.61,-1.68,-0.27,1,0
16127.64,-0.442,0.036,0.893,0.18,-1.86,-0.82,1,0
16127.64,-0.447,0.041,0.891,0.89,-1.83,-1.25,1,0
16127.656,-0.451,0.044,0.889,1.13,-1.71,-1.01,1,0
16127.671,-0.449,0.045,0.885,0.95,-1.77,-0.85,1,0
16127.687,-0.447,0.047,0.884,0.82,-1.31,-0.79,1,0
16127.687,-0.448,0.046,0.883,0.76,-0.61,-0.79,1,0
16127.687,-0.449,0.047,0.889,0.76,-0.03,-0.58,1,0
16127.703,-0.451,0.05,0.899,0.7,-0.03,-0.31,1,0
16127.718,-0.446,0.047,0.902,0.61,-0.85,-0.06,1,0
16127.718,-0.444,0.048,0.891,0.58,-1.59,0.03,1,0
16127.734,-0.445,0.05,0.893,0.15,-1.92,0.09,1,0
16127.75,-0.444,0.048,0.891,-0.49,-2.32,-0.09,1,0
16127.75,-0.439,0.045,0.884,-0.34,-2.38,-0.27,1,0
16127.765,-0.441,0.047,0.881,0.7,-1.59,-0.43,1,0
16127.781,-0.447,0.049,0.878,1.31,-1.04,-0.55,1,0
16127.781,-0.453,0.051,0.879,0.67,-0.92,-0.58,1,0
16127.796,-0.448,0.047,0.876,-0.12,-1.19,-0.24,1,0
16127.812,-0.443,0.045,0.878,-0.21,-0.79,-0.09,1,0
16127.812,-0.449,0.053,0.878,0.0,-0.24,0.31,1,0
16127.828,-0.446,0.052,0.884,-1.07,-0.34,0.73,1,0
16127.828,-0.438,0.046,0.884,-2.11,-0.49,0.85,1,0
16127.843,-0.432,0.046,0.885,-2.08,-0.18,0.7,1,0
16127.859,-0.439,0.046,0.885,-1.37,0.73,0.4,1,0
16127.859,-0.448,0.049,0.89,-1.01,1.1,0.37,1,0
16127.875,-0.447,0.051,0.893,-1.4,0.49,0.52,1,0
16127.89,-0.444,0.047,0.894,-1.89,-0.27,0.61,1,0
16127.906,-0.446,0.047,0.893,-1.68,-0.46,0.76,1,0
16127.906,-0.448,0.048,0.892,-2.23,-0.7,0.98,1,0
16127.921,-0.445,0.051,0.888,-2.66,-0.31,0.79,1,0
16127.921,-0.444,0.041,0.886,-2.32,0.46,0.61,1,0
16127.937,-0.451,0.038,0.889,-1.37,1.1,0.52,1,0
16127.953,-0.455,0.039,0.891,-1.04,1.04,0.43,1,0
16127.953,-0.452,0.037,0.889,-1.19,0.64,0.24,1,0
16127.968,-0.448,0.031,0.888,-1.07,0.55,-0.15,1,0
16127.984,-0.452,0.034,0.891,-0.21,0.92,-0.37,1,0
16127.984,-0.455,0.036,0.891,0.27,0.73,-0.46,1,0
16128.0,-0.448,0.036,0.89,0.09,0.12,-0.7,1,0
16128.0,-0.442,0.033,0.888,-0.03,0.0,-1.07,1,0
16128.015,-0.441,0.032,0.884,0.46,0.61,-1.65,1,0
16128.031,-0.45,0.032,0.889,1.34,1.31,-2.23,1,0
16128.031,-0.462,0.039,0.898,1.71,1.1,-2.32,1,0
16128.046,-0.459,0.042,0.899,0.95,-0.61,-1.89,1,0
16128.062,-0.446,0.039,0.897,0.37,-1.89,-1.71,1,0
16128.062,-0.44,0.039,0.891,0.7,-1.95,-1.71,1,0
16128.078,-0.442,0.041,0.887,1.46,-1.19,-1.77,1,0
16128.078,-0.446,0.047,0.884,2.17,-0.55,-2.04,1,0
16128.093,-0.454,0.05,0.884,2.08,-0.27,-2.11,1,0
16128.109,-0.454,0.051,0.886,1.1,-0.55,-1.62,1,0
16128.109,-0.446,0.048,0.886,0.46,-0.85,-1.37,1,0
16128.125,-0.445,0.042,0.885,0.67,-0.55,-1.4,1,0
16128.14,-0.451,0.043,0.886,1.37,-0.18,-1.62,1,0
16128.14,-0.457,0.047,0.885,1.34,-0.06,-1.62,1,0
16128.156,-0.454,0.048,0.885,0.46,-0.55,-1.5,1,0
16128.171,-0.45,0.047,0.881,0.21,-0.58,-1.43,1,0
16128.171,-0.447,0.05,0.877,0.67,-0.03,-1.13,1,0
16128.187,-0.452,0.052,0.886,0.89,0.12,-0.82,1,0
16128.203,-0.456,0.054,0.888,0.06,-0.61,-0.03,1,0
16128.203,-0.448,0.048,0.884,-0.85,-1.53,0.58,1,0
16128.218,-0.443,0.04,0.88,-1.16,-1.59,0.85,1,0
16128.218,-0.45,0.037,0.883,-0.95,-0.7,0.85,1,0
16128.234,-0.455,0.039,0.89,-0.58,-0.15,0.7,1,0
16128.25,-0.452,0.038,0.895,-0.7,-0.58,0.49,1,0
16128.25,-0.442,0.036,0.896,-0.85,-1.01,0.15,1,0
16128.265,-0.439,0.037,0.893,-0.34,-0.85,-0.4,1,0
16128.281,-0.448,0.041,0.892,0.58,-0.49,-0.7,1,0
16128.281,-0.452,0.041,0.892,0.58,-0.95,-0.73,1,0
16128.296,-0.445,0.043,0.884,0.03,-1.68,-0.7,1,0
16128.312,-0.442,0.043,0.88,0.0,-1.4,-0.76,1,0
16128.312,-0.451,0.047,0.878,0.31,-0.73,-0.67,1,0
16128.328,-0.458,0.05,0.882,0.21,-0.61,-0.15,1,0
16128.343,-0.455,0.049,0.883,-0.4,-1.4,0.24,1,0
16128.343,-0.451,0.045,0.882,-0.98,-1.86,0.18,1,0
16128.359,-0.453,0.043,0.882,-0.76,-1.53,0.09,1,0
16128.359,-0.45,0.044,0.879,-0.55,-1.31,0.43,1,0
16128.375,-0.445,0.044,0.881,-0.92,-1.13,0.46,1,0
16128.39,-0.444,0.038,0.883,-1.01,-0.58,0.31,1,0
16128.39,-0.444,0.036,0.884,-0.21,0.12,-0.12,1,0
16128.406,-0.451,0.036,0.887,0.76,0.89,-0.67,1,0
16128.421,-0.462,0.039,0.893,0.98,0.79,-0.82,1,0
16128.437,-0.461,0.037,0.897,0.49,-0.21,-0.79,1,0
16128.437,-0.451,0.038,0.897,0.27,-1.16,-0.7,1,0
16128.453,-0.449,0.034,0.892,0.89,-1.59,-0.67,1,0
16128.453,-0.453,0.041,0.895,1.28,-1.62,-0.7,1,0
16128.468,-0.451,0.043,0.892,0.82,-2.04,-0.79,1,0
16128.484,-0.448,0.044,0.89,0.43,-2.41,-0.85,1,0
16128.484,-0.447,0.043,0.886,0.37,-1.98,-0.85,1,0
16128.5,-0.45,0.044,0.882,0.43,-1.34,-0.73,1,0
16128.515,-0.45,0.044,0.883,0.61,-1.01,-0.79,1,0
16128.515,-0.448,0.042,0.882,0.92,-0.61,-0.98,1,0
16128.531,-0.447,0.041,0.878,1.4,-0.4,-1.19,1,0
16128.531,-0.451,0.043,0.882,1.62,0.06,-1.28,1,0
16128.546,-0.456,0.044,0.883,1.25,-0.06,-1.1,1,0
16128.562,-0.449,0.047,0.886,0.55,-0.24,-0.73,1,0
16128.562,-0.447,0.04,0.892,0.34,-0.15,-0.76,1,0
16128.578,-0.452,0.038,0.894,0.64,-0.24,-1.28,1,0
16128.578,-0.457,0.043,0.899,1.07,-0.79,-1.28,1,0
16128.593,-0.452,0.046,0.893,0.89,-2.11,-1.43,1,0
16128.609,-0.445,0.049,0.887,0.52,-2.69,-1.53,1,0
16128.625,-0.446,0.051,0.878,0.55,-2.29,-1.37,1,0
16128.625,-0.452,0.054,0.877,0.4,-1.62,-0.82,1,0
16128.64,-0.454,0.054,0.877,0.12,-1.13,-0.27,1,0
16128.64,-0.454,0.049,0.879,-0.18,-0.64,0.06,1,0
16128.656,-0.455,0.049,0.884,-0.52,-0.31,0.4,1,0
16128.671,-0.455,0.046,0.888,-0.76,-0.4,0.73,1,0
16128.671,-0.452,0.042,0.891,-0.58,-0.61,0.79,1,0
16128.687,-0.45,0.041,0.888,-0.21,-0.61,0.55,1,0
16128.703,-0.458,0.042,0.889,-0.21,-0.67,0.49,1,0
16128.703,-0.455,0.042,0.892,-0.95,-1.4,0.55,1,0
16128.718,-0.443,0.038,0.89,-1.25,-1.95,0.37,1,0
16128.734,-0.441,0.035,0.887,-0.79,-1.59,-0.09,1,0
16128.734,-0.445,0.034,0.887,0.46,-0.89,-0.64,1,0
16128.75,-0.449,0.037,0.882,1.53,-0.46,-1.16,1,0
16128.75,-0.455,0.041,0.883,1.53,-0.49,-1.4,1,0
16128.765,-0.455,0.042,0.885,1.1,-0.64,-1.16,1,0
16128.781,-0.449,0.042,0.882,0.34,-0.92,-0.92,1,0
16128.781,-0.446,0.043,0.883,0.03,-0.73,-0.82,1,0
16128.796,-0.448,0.042,0.884,0.43,-0.18,-0.92,1,0
16128.812,-0.451,0.047,0.883,0.73,0.24,-0.82,1,0
16128.812,-0.457,0.048,0.889,0.27,0.09,-0.7,1,0
16128.828,-0.461,0.046,0.894,-0.15,-0.61,-0.49,1,0
16128.828,-0.456,0.045,0.892,-0.31,-1.59,-0.27,1,0
16128.843,-0.449,0.048,0.891,-0.43,-2.11,-0.21,1,0
16128.859,-0.446,0.05,0.891,-0.55,-2.2,0.03,1,0
16128.859,-0.446,0.051,0.89,-0.89,-2.2,0.37,1,0
16128.875,-0.446,0.047,0.889,-0.43,-1.62,0.79,1,0
16128.89,-0.454,0.042,0.886,-0.03,-1.28,0.64,1,0
16128.89,-0.458,0.039,0.881,-0.12,-1.1,0.58,1,0
16128.906,-0.452,0.038,0.877,-0.31,-0.73,0.31,1,0
16128.921,-0.448,0.034,0.88,-0.27,-0.09,-0.15,1,0
16128.921,-0.45,0.032,0.884,0.43,0.43,-0.52,1,0
16128.937,-0.457,0.035,0.894,1.04,0.18,-0.73,1,0
16128.953,-0.451,0.039,0.895,0.7,-1.16,-1.04,1,0
16128.953,-0.44,0.04,0.893,0.15,-2.17,-1.19,1,0
16128.968,-0.436,0.04,0.889,0.15,-2.04,-1.16,1,0
16128.968,-0.443,0.048,0.89,0.55,-1.13,-0.95,1,0
16128.984,-0.45,0.058,0.889,0.4,-0.61,-0.67,1,0
16129.0,-0.453,0.058,0.883,-0.4,-0.73,-0.21,1,0
16129.0,-0.453,0.057,0.883,-1.07,-0.76,0.4,1,0
16129.015,-0.457,0.055,0.887,-1.19,-0.89,1.01,1,0
16129.031,-0.455,0.053,0.884,-1.34,-1.13,1.65,1,0
16129.031,-0.447,0.049,0.879,-1.74,-1.56,1.83,1,0
16129.046,-0.447,0.044,0.881,-2.2,-1.53,1.83,1,0
16129.046,-0.451,0.04,0.887,-2.17,-1.34,1.89,1,0
16129.062,-0.449,0.037,0.886,-1.86,-1.59,1.83,1,0
16129.078,-0.444,0.034,0.88,-1.56,-1.46,1.56,1,0
16129.093,-0.443,0.032,0.878,-1.28,-0.7,0.95,1,0
16129.093,-0.447,0.029,0.88,-0.61,0.15,0.27,1,0
16129.109,-0.454,0.026,0.887,0.24,0.52,-0.09,1,0
16129.109,-0.453,0.026,0.892,0.92,0.18,-0.37,1,0
16129.125,-0.453,0.026,0.893,1.31,-0.37,-0.79,1,0
16129.14,-0.457,0.027,0.899,1.53,-0.67,-1.43,1,0
16129.14,-0.454,0.029,0.897,1.77,-1.28,-1.68,1,0
16129.156,-0.448,0.032,0.892,2.23,-1.59,-1.95,1,0
16129.171,-0.445,0.036,0.888,2.5,-1.5,-2.38,1,0
16129.187,-0.451,0.042,0.887,2.53,-0.85,-2.59,1,0
16129.187,-0.458,0.049,0.887,2.2,-0.61,-2.47,1,0
16129.187,-0.454,0.052,0.888,1.71,-1.01,-1.89,1,0
16129.203,-0.447,0.055,0.885,1.4,-1.01,-1.31,1,0
16129.218,-0.446,0.057,0.885,1.28,-0.76,-0.98,1,0
16129.218,-0.448,0.057,0.882,0.95,-0.49,-0.73,1,0
16129.234,-0.448,0.054,0.882,0.4,-0.46,-0.46,1,0
16129.25,-0.447,0.051,0.882,0.21,-0.34,-0.18,1,0
16129.265,-0.448,0.048,0.879,0.34,-0.12,-0.18,1,0
16129.265,-0.453,0.048,0.879,0.27,0.24,-0.15,1,0
16129.281,-0.461,0.047,0.886,-0.21,-0.09,0.21,1,0
16129.281,-0.455,0.042,0.888,-1.01,-1.19,0.43,1,0
16129.296,-0.446,0.04,0.887,-1.13,-1.98,0.37,1,0
16129.312,-0.446,0.039,0.887,-0.58,-1.8,0.24,1,0
16129.312,-0.445,0.04,0.885,-0.15,-1.59,-0.21,1,0
16129.328,-0.449,0.041,0.883,0.21,-1.28,-0.61,1,0
16129.343,-0.45,0.04,0.882,0.43,-0.82,-0.79,1,0
16129.343,-0.452,0.04,0.883,0.46,-0.37,-0.76,1,0
16129.359,-0.454,0.04,0.884,0.49,-0.18,-0.7,1,0
16129.375,-0.452,0.039,0.885,0.46,-0.18,-0.73,1,0
16129.375,-0.45,0.037,0.884,0.61,0.0,-0.85,1,0
16129.39,-0.449,0.037,0.885,0.98,0.58,-1.16,1,0
16129.39,-0.456,0.036,0.888,1.31,0.98,-1.53,1,0
16129.406,-0.465,0.039,0.896,1.43,0.55,-1.5,1,0
16129.421,-0.459,0.041,0.896,1.4,-0.82,-1.5,1,0
16129.421,-0.448,0.043,0.89,1.25,-1.46,-1.77,1,0
16129.437,-0.449,0.046,0.886,1.22,-1.31,-1.86,1,0
16129.453,-0.455,0.049,0.883,0.7,-0.92,-1.59,1,0
16129.453,-0.451,0.053,0.878,0.64,-0.73,-1.16,1,0
16129.468,-0.446,0.043,0.875,1.65,0.0,-0.85,1,0
16129.484,-0.457,0.055,0.892,-0.03,0.49,-1.13,1,0
16129.484,-0.449,0.044,0.885,-0.37,0.03,-0.79,1,0
16129.5,-0.46,0.039,0.885,0.76,0.27,-0.4,1,0
16129.5,-0.45,0.048,0.887,0.12,-0.18,-0.58,1,0
16129.515,-0.446,0.038,0.888,0.03,-0.49,-1.22,1,0
16129.531,-0.455,0.038,0.888,0.58,-0.21,-1.56,1,0
16129.531,-0.46,0.041,0.889,1.13,-0.34,-1.71,1,0
16129.546,-0.459,0.042,0.889,1.25,-0.82,-1.89,1,0
16129.562,-0.454,0.043,0.882,1.07,-1.25,-1.95,1,0
16129.562,-0.45,0.042,0.878,1.01,-0.98,-2.17,1,0
16129.578,-0.45,0.045,0.878,1.37,-0.21,-1.89,1,0
16129.578,-0.449,0.047,0.88,1.31,0.06,-1.34,1,0
16129.593,-0.443,0.046,0.88,0.73,0.06,-0.98,1,0
16129.609,-0.446,0.041,0.884,0.64,0.55,-1.16,1,0
16129.609,-0.458,0.039,0.888,1.13,0.95,-1.34,1,0
16129.625,-0.465,0.042,0.89,1.4,0.55,-1.56,1,0
16129.64,-0.462,0.044,0.887,1.5,-0.09,-1.59,1,0
16129.64,-0.458,0.045,0.885,1.62,-0.4,-1.5,1,0
16129.656,-0.455,0.048,0.884,1.77,-0.03,-1.4,1,0
16129.671,-0.459,0.052,0.888,1.46,0.21,-1.16,1,0
16129.671,-0.46,0.054,0.889,0.64,-0.4,-0.89,1,0
16129.687,-0.454,0.057,0.888,-0.24,-0.95,-0.58,1,0
16129.703,-0.449,0.059,0.884,-0.92,-1.04,0.06,1,0
16129.703,-0.449,0.062,0.882,-1.31,-0.52,0.82,1,0
16129.718,-0.454,0.063,0.887,-1.77,-0.21,1.59,1,0
16129.718,-0.459,0.06,0.886,-2.59,-0.46,2.01,1,0
16129.734,-0.457,0.053,0.881,-2.87,-0.73,2.44,1,0
16129.75,-0.459,0.047,0.882,-2.66,-0.61,2.75,1,0
16129.75,-0.46,0.041,0.881,-2.26,-0.52,2.81,1,0
16129.765,-0.458,0.035,0.881,-1.92,-0.64,2.44,1,0
16129.781,-0.454,0.03,0.879,-1.43,-0.52,1.86,1,0
16129.796,-0.454,0.027,0.879,-0.73,-0.21,1.37,1,0
16129.796,-0.454,0.026,0.881,-0.06,0.03,0.61,1,0
16129.812,-0.449,0.026,0.886,0.73,0.03,-0.21,1,0
16129.812,-0.452,0.029,0.887,2.38,0.09,-1.25,1,0
16129.828,-0.458,0.037,0.883,3.57,0.49,-1.95,1,0
16129.828,-0.458,0.044,0.884,3.6,0.46,-1.92,1,0
16129.843,-0.458,0.051,0.884,2.84,-0.03,-1.5,1,0
16129.859,-0.455,0.049,0.882,0.52,0.03,-0.09,1,0
16129.859,-0.456,0.044,0.879,0.24,0.46,0.15,1,0
16129.875,-0.458,0.042,0.882,0.46,0.49,0.09,1,0
16129.89,-0.462,0.041,0.885,0.61,0.21,-0.15,1,0
16129.89,-0.458,0.039,0.884,0.58,0.0,-0.49,1,0
16129.906,-0.457,0.04,0.883,0.7,-0.09,-0.95,1,0
16129.921,-0.456,0.041,0.883,0.76,-0.18,-1.19,1,0
16129.921,-0.456,0.043,0.881,0.85,-0.24,-1.37,1,0
16129.937,-0.454,0.046,0.876,1.16,-0.09,-1.68,1,0
16129.953,-0.453,0.047,0.876,1.28,0.31,-1.86,1,0
16129.953,-0.457,0.05,0.878,1.01,0.52,-1.86,1,0
16129.968,-0.459,0.054,0.88,0.67,0.37,-1.68,1,0
16129.968,-0.456,0.054,0.878,0.37,0.34,-1.28,1,0
16129.984,-0.456,0.053,0.878,0.03,0.46,-0.85,1,0
16130.0,-0.461,0.052,0.879,-0.18,0.7,-0.64,1,0
16130.015,-0.463,0.05,0.881,-0.12,0.82,-0.61,1,0
16130.015,-0.46,0.048,0.879,-0.18,0.73,-0.37,1,0
16130.031,-0.462,0.045,0.879,-0.06,0.82,-0.15,1,0
16130.031,-0.466,0.042,0.881,0.0,0.92,-0.21,1,0
16130.046,-0.465,0.043,0.886,-0.12,0.55,-0.24,1,0
16130.062,-0.46,0.041,0.885,-0.34,0.06,-0.55,1,0
16130.062,-0.46,0.038,0.884,-0.09,-0.06,-0.82,1,0
16130.078,-0.463,0.039,0.884,0.43,0.18,-0.85,1,0
16130.093,-0.463,0.044,0.881,0.64,0.12,-0.82,1,0
16130.093,-0.461,0.045,0.881,0.49,-0.06,-0.92,1,0
16130.109,-0.463,0.044,0.882,0.55,-0.12,-0.73,1,0
16130.109,-0.463,0.045,0.885,0.49,-0.18,-0.55,1,0
16130.125,-0.46,0.047,0.883,0.37,-0.37,-0.49,1,0
16130.14,-0.458,0.047,0.877,0.27,-0.43,-0.58,1,0
16130.14,-0.46,0.044,0.876,0.31,0.06,-0.64,1,0
16130.156,-0.462,0.045,0.874,0.64,0.64,-0.7,1,0
16130.171,-0.464,0.043,0.875,0.85,0.98,-0.76,1,0
16130.171,-0.461,0.042,0.873,0.89,1.1,-0.79,1,0
16130.187,-0.463,0.041,0.877,0.92,1.28,-0.95,1,0
16130.203,-0.467,0.041,0.88,1.19,1.13,-0.89,1,0
16130.203,-0.464,0.042,0.882,1.01,0.7,-1.01,1,0
16130.218,-0.461,0.041,0.886,0.64,0.37,-1.28,1,0
16130.218,-0.462,0.042,0.89,0.89,0.0,-1.53,1,0
16130.234,-0.467,0.046,0.89,1.5,-0.12,-1.71,1,0
16130.25,-0.467,0.048,0.883,1.83,-0.52,-1.86,1,0
16130.25,-0.465,0.051,0.876,1.68,-0.76,-2.11,1,0
16130.265,-0.467,0.053,0.874,1.13,-0.67,-1.86,1,0
16130.281,-0.467,0.057,0.873,0.64,-0.37,-1.07,1,0
16130.281,-0.462,0.054,0.872,0.37,-0.27,-0.31,1,0
16130.296,-0.459,0.049,0.873,-0.12,-0.15,0.21,1,0
16130.312,-0.467,0.043,0.882,-0.31,0.31,0.31,1,0
16130.312,-0.475,0.04,0.885,-0.03,0.15,0.09,1,0
16130.328,-0.472,0.039,0.882,0.18,-0.46,-0.34,1,0
16130.328,-0.468,0.037,0.879,0.37,-0.82,-0.73,1,0
16130.343,-0.465,0.039,0.88,0.52,-0.76,-1.1,1,0
16130.359,-0.461,0.041,0.879,0.89,-0.79,-1.56,1,0
16130.359,-0.459,0.043,0.875,1.19,-0.55,-1.83,1,0
16130.375,-0.458,0.045,0.872,1.43,0.03,-1.89,1,0
16130.39,-0.462,0.047,0.872,1.28,0.67,-1.92,1,0
16130.39,-0.464,0.049,0.875,0.85,0.82,-1.95,1,0
16130.406,-0.464,0.05,0.879,0.55,0.76,-1.71,1,0
16130.421,-0.464,0.048,0.878,0.4,0.95,-1.65,1,0
16130.421,-0.47,0.049,0.878,0.61,1.13,-1.56,1,0
16130.437,-0.478,0.052,0.882,0.4,0.82,-1.34,1,0
16130.453,-0.476,0.053,0.882,-0.21,-0.15,-1.07,1,0
16130.453,-0.468,0.052,0.877,-0.58,-1.07,-0.89,1,0
16130.468,-0.463,0.05,0.872,-0.27,-1.19,-0.58,1,0
16130.468,-0.464,0.047,0.872,0.06,-0.55,-0.43,1,0
16130.484,-0.468,0.047,0.874,-0.03,-0.4,-0.46,1,0
16130.5,-0.469,0.046,0.875,-0.18,-0.58,-0.18,1,0
16130.5,-0.467,0.044,0.874,-0.12,-0.58,0.09,1,0
16130.515,-0.468,0.042,0.874,0.18,-0.15,0.15,1,0
16130.531,-0.47,0.041,0.876,0.18,0.06,-0.03,1,0
16130.546,-0.469,0.038,0.879,0.09,-0.21,-0.27,1,0
16130.546,-0.464,0.038,0.882,0.31,-0.4,-0.27,1,0
16130.562,-0.462,0.038,0.882,0.55,-0.61,-0.34,1,0
16130.562,-0.465,0.04,0.882,0.46,-0.82,-0.61,1,0
16130.578,-0.467,0.04,0.88,0.34,-0.76,-1.16,1,0
16130.578,-0.472,0.045,0.876,0.7,-0.58,-1.56,1,0
16130.593,-0.474,0.047,0.873,0.95,-0.49,-1.43,1,0
16130.609,-0.471,0.051,0.873,0.64,-0.43,-1.37,1,0
16130.609,-0.47,0.051,0.873,0.31,-0.12,-1.25,1,0
16130.625,-0.472,0.046,0.875,0.34,-0.03,-1.01,1,0
16130.64,-0.47,0.048,0.875,0.4,-0.46,-0.73,1,0
16130.64,-0.46,0.048,0.876,0.27,-0.49,-0.79,1,0
16130.656,-0.464,0.046,0.874,0.37,-0.15,-1.16,1,0
16130.671,-0.468,0.045,0.877,0.4,-0.06,-1.1,1,0
16130.671,-0.467,0.047,0.876,0.24,-0.21,-0.73,1,0
16130.687,-0.466,0.046,0.877,-0.09,-0.31,-0.76,1,0
16130.703,-0.471,0.043,0.872,-0.06,-0.15,-0.67,1,0
16130.703,-0.471,0.05,0.871,0.09,0.09,-0.55,1,0
16130.718,-0.476,0.045,0.878,0.18,-0.03,-0.49,1,0
16130.718,-0.472,0.044,0.874,0.03,-0.37,-0.58,1,0
16130.734,-0.47,0.044,0.876,0.12,-0.06,-0.43,1,0
16130.75,-0.471,0.042,0.876,0.18,0.03,-0.55,1,0
16130.765,-0.471,0.043,0.878,-0.09,0.03,-0.73,1,0
16130.765,-0.47,0.042,0.879,-0.06,-0.21,-0.98,1,0
16130.781,-0.472,0.042,0.878,0.43,-0.27,-1.13,1,0
16130.781,-0.47,0.044,0.875,0.61,-0.4,-1.25,1,0
16130.796,-0.47,0.046,0.873,0.52,-0.37,-1.22,1,0
16130.812,-0.469,0.047,0.872,0.15,-0.18,-1.13,1,0
16130.812,-0.47,0.047,0.873,-0.09,0.09,-0.92,1,0
16130.828,-0.471,0.047,0.878,-0.27,0.12,-0.79,1,0
16130.843,-0.472,0.046,0.88,-0.4,-0.24,-0.79,1,0
16130.843,-0.474,0.047,0.881,-0.34,-0.7,-0.58,1,0
16130.859,-0.475,0.049,0.881,-0.46,-0.98,-0.46,1,0
16130.859,-0.471,0.049,0.876,-0.76,-0.95,-0.34,1,0
16130.875,-0.473,0.045,0.87,-0.76,-0.64,-0.06,1,0
16130.89,-0.475,0.044,0.873,-0.61,-0.4,0.37,1,0
16130.89,-0.471,0.042,0.873,-0.55,-0.58,0.64,1,0
16130.906,-0.469,0.038,0.872,-0.76,-0.4,0.46,1,0
16130.921,-0.469,0.037,0.877,-0.43,0.0,0.27,1,0
16130.921,-0.47,0.038,0.879,-0.18,0.03,0.03,1,0
16130.937,-0.47,0.036,0.876,0.0,-0.15,-0.27,1,0
16130.953,-0.472,0.035,0.875,0.09,-0.24,-0.7,1,0
16130.953,-0.475,0.035,0.877,0.43,-0.46,-0.89,1,0
16130.968,-0.474,0.037,0.876,0.85,-0.61,-1.19,1,0
16130.968,-0.474,0.04,0.873,1.19,-0.55,-1.56,1,0
16130.984,-0.472,0.042,0.871,1.59,-0.61,-1.56,1,0
16131.0,-0.469,0.046,0.867,1.74,-0.46,-1.62,1,0
16131.0,-0.467,0.049,0.87,1.31,-0.21,-1.4,1,0
16131.015,-0.465,0.048,0.871,0.76,-0.27,-1.04,1,0
16131.031,-0.467,0.047,0.872,0.52,-0.03,-0.76,1,0
16131.031,-0.474,0.046,0.872,0.7,0.21,-0.73,1,0
16131.046,-0.479,0.049,0.87,0.76,0.43,-0.89,1,0
16131.062,-0.478,0.048,0.871,0.58,0.43,-1.01,1,0
16131.062,-0.477,0.048,0.875,0.58,0.67,-0.98,1,0
16131.078,-0.476,0.048,0.877,0.64,0.92,-0.79,1,0
16131.093,-0.475,0.05,0.878,0.58,0.58,-0.64,1,0
16131.093,-0.476,0.05,0.878,0.15,0.09,-0.52,1,0
16131.109,-0.473,0.05,0.877,-0.64,-0.34,-0.27,1,0
16131.109,-0.468,0.048,0.878,-1.1,-0.73,-0.06,1,0
16131.125,-0.47,0.047,0.873,-0.92,-0.52,0.18,1,0
16131.14,-0.472,0.05,0.87,-0.64,-0.21,0.55,1,0
16131.14,-0.474,0.051,0.869,-0.89,0.12,0.79,1,0
16131.156,-0.477,0.046,0.868,-1.19,0.31,1.01,1,0
16131.171,-0.479,0.044,0.87,-1.22,0.37,1.19,1,0
16131.171,-0.479,0.042,0.87,-0.82,0.18,1.34,1,0
16131.187,-0.476,0.039,0.869,-0.49,-0.03,1.46,1,0
16131.203,-0.472,0.036,0.869,-0.4,-0.09,1.34,1,0
16131.203,-0.471,0.033,0.873,-0.18,-0.15,0.79,1,0
16131.218,-0.476,0.029,0.874,0.18,-0.18,0.27,1,0
16131.218,-0.474,0.029,0.873,0.64,-0.24,-0.31,1,0
16131.234,-0.474,0.03,0.871,1.25,0.06,-0.98,1,0
16131.25,-0.474,0.03,0.868,1.95,0.43,-1.34,1,0
16131.25,-0.472,0.032,0.868,2.66,1.07,-1.77,1,0
16131.265,-0.474,0.036,0.87,3.17,1.71,-2.17,1,0
16131.281,-0.478,0.039,0.874,3.36,1.74,-2.47,1,0
16131.296,-0.478,0.04,0.878,3.23,1.28,-2.66,1,0
16131.296,-0.484,0.044,0.879,3.57,1.01,-2.84,1,0
16131.312,-0.485,0.048,0.877,3.63,0.61,-2.62,1,0
16131.312,-0.48,0.052,0.876,3.33,0.06,-2.41,1,0
16131.328,-0.48,0.053,0.875,2.9,-0.18,-2.38,1,0
16131.343,-0.481,0.055,0.875,2.53,-0.58,-2.17,1,0
16131.343,-0.479,0.057,0.874,2.17,-0.98,-1.92,1,0
16131.359,-0.477,0.055,0.869,1.89,-1.16,-1.68,1,0
16131.375,-0.475,0.055,0.866,1.77,-1.01,-1.46,1,0
16131.375,-0.479,0.053,0.866,1.62,-0.89,-1.16,1,0
16131.39,-0.477,0.052,0.87,1.22,-0.89,-0.98,1,0
16131.39,-0.475,0.05,0.869,0.85,-1.19,-0.98,1,0
16131.406,-0.474,0.047,0.869,0.82,-1.13,-1.01,1,0
16131.421,-0.475,0.043,0.867,1.37,-0.76,-0.98,1,0
16131.421,-0.477,0.043,0.863,2.2,-0.4,-0.95,1,0
16131.437,-0.478,0.041,0.861,3.23,-0.31,-1.04,1,0
16131.453,-0.472,0.038,0.863,3.97,0.21,-1.13,1,0
16131.453,-0.468,0.033,0.862,4.88,1.46,-1.46,1,0
16131.468,-0.473,0.035,0.866,5.89,2.69,-2.08,1,0
16131.468,-0.484,0.037,0.872,6.56,3.14,-3.05,1,0
16131.484,-0.49,0.039,0.879,6.71,2.44,-4.03,1,0
16131.5,-0.487,0.043,0.878,6.68,1.16,-4.52,1,0
16131.5,-0.483,0.046,0.872,6.38,0.31,-5.07,1,0
16131.515,-0.481,0.049,0.87,5.77,-0.06,-5.77,1,0
16131.531,-0.483,0.054,0.869,5.46,0.0,-6.13,1,0
16131.531,-0.485,0.058,0.867,5.49,0.18,-5.95,1,0
16131.546,-0.484,0.064,0.866,5.46,0.4,-5.74,1,0
16131.562,-0.486,0.069,0.866,4.91,0.43,-5.13,1,0
16131.562,-0.485,0.07,0.866,4.09,0.34,-4.24,1,0
16131.578,-0.485,0.07,0.87,3.27,0.15,-3.27,1,0
16131.593,-0.485,0.07,0.874,2.56,-0.18,-2.41,1,0
16131.593,-0.479,0.072,0.874,1.68,-0.67,-1.77,1,0
16131.609,-0.481,0.071,0.869,0.92,-1.01,-1.5,1,0
16131.609,-0.485,0.069,0.87,0.31,-1.1,-1.34,1,0
16131.625,-0.481,0.067,0.865,0.21,-1.22,-1.1,1,0
16131.64,-0.48,0.065,0.862,0.06,-1.1,-0.82,1,0
16131.64,-0.483,0.063,0.86,-0.15,-0.85,-0.34,1,0
16131.656,-0.486,0.062,0.863,-0.43,-0.67,-0.03,1,0
16131.671,-0.487,0.059,0.864,-0.92,-0.61,0.06,1,0
16131.671,-0.489,0.057,0.866,-1.19,-0.76,0.15,1,0
16131.687,-0.485,0.054,0.866,-0.98,-0.89,0.37,1,0
16131.687,-0.475,0.052,0.865,-0.95,-0.95,0.43,1,0
16131.703,-0.474,0.05,0.868,-0.95,-0.67,0.43,1,0
16131.718,-0.476,0.046,0.87,-0.73,-0.46,0.55,1,0
16131.718,-0.481,0.044,0.871,-0.27,-0.49,0.58,1,0
16131.734,-0.485,0.042,0.87,-0.12,-0.55,0.31,1,0
16131.75,-0.49,0.043,0.871,0.21,-0.64,-0.27,1,0
16131.75,-0.493,0.043,0.875,0.76,-0.82,-0.61,1,0
16131.765,-0.488,0.045,0.874,1.1,-1.28,-0.76,1,0
16131.781,-0.48,0.048,0.87,1.31,-1.62,-1.28,1,0
16131.781,-0.479,0.049,0.867,1.53,-1.34,-1.74,1,0
16131.796,-0.481,0.055,0.866,1.8,-0.95,-1.71,1,0
16131.812,-0.478,0.06,0.863,1.77,-0.55,-1.65,1,0
16131.812,-0.48,0.06,0.864,1.46,-0.27,-1.4,1,0
16131.828,-0.485,0.061,0.868,1.4,-0.37,-0.64,1,0
16131.828,-0.483,0.06,0.866,1.13,-0.46,-0.49,1,0
16131.843,-0.483,0.06,0.862,0.82,-0.4,-0.67,1,0
16131.859,-0.49,0.06,0.866,0.7,-0.64,-0.76,1,0
16131.859,-0.482,0.06,0.861,0.67,-1.22,-0.95,1,0
16131.875,-0.478,0.057,0.859,0.92,-1.22,-0.98,1,0
16131.89,-0.48,0.059,0.861,1.13,-0.85,-0.89,1,0
16131.89,-0.48,0.059,0.861,0.95,-0.64,-0.92,1,0
16131.906,-0.48,0.058,0.859,0.37,-0.27,-0.7,1,0
16131.921,-0.486,0.056,0.866,0.24,0.24,-0.61,1,0
16131.921,-0.491,0.055,0.873,0.43,0.55,-0.55,1,0
16131.937,-0.488,0.056,0.875,0.55,0.24,-0.52,1,0
16131.953,-0.484,0.056,0.876,0.43,-0.4,-0.52,1,0
16131.953,-0.484,0.055,0.876,0.52,-0.76,-0.4,1,0
16131.968,-0.486,0.057,0.874,0.52,-0.85,0.06,1,0
16131.968,-0.487,0.056,0.87,0.34,-1.16,0.21,1,0
16131.984,-0.486,0.053,0.867,0.18,-1.31,0.0,1,0
16132.0,-0.485,0.052,0.865,0.21,-1.31,-0.03,1,0
16132.0,-0.485,0.049,0.864,0.37,-1.13,-0.24,1,0
16132.015,-0.481,0.047,0.861,0.95,-0.79,-0.58,1,0
16132.031,-0.48,0.051,0.858,1.4,-0.34,-0.82,1,0
16132.046,-0.481,0.05,0.859,1.56,0.09,-1.16,1,0
16132.046,-0.483,0.051,0.863,2.14,0.61,-1.46,1,0
16132.062,-0.486,0.056,0.868,2.47,0.46,-1.56,1,0
16132.062,-0.483,0.055,0.862,2.75,0.24,-1.53,1,0
16132.078,-0.49,0.06,0.87,2.23,0.06,-1.62,1,0
16132.093,-0.484,0.062,0.873,1.13,-0.95,-1.5,1,0
16132.093,-0.485,0.06,0.87,0.85,-1.28,-1.25,1,0
16132.109,-0.485,0.062,0.868,0.95,-1.31,-1.13,1,0
16132.125,-0.486,0.064,0.867,1.31,-1.28,-0.95,1,0
16132.125,-0.484,0.066,0.86,1.25,-1.31,-0.95,1,0
16132.14,-0.483,0.065,0.859,0.64,-0.98,-0.79,1,0
16132.14,-0.485,0.063,0.861,0.24,-0.34,-0.43,1,0
16132.156,-0.486,0.061,0.859,0.24,-0.12,-0.09,1,0
16132.171,-0.483,0.061,0.86,0.24,0.15,-0.09,1,0
16132.171,-0.487,0.059,0.866,0.18,0.55,-0.18,1,0
16132.187,-0.49,0.057,0.871,0.24,0.34,-0.24,1,0
16132.203,-0.49,0.058,0.869,0.37,-0.09,-0.27,1,0
16132.203,-0.486,0.058,0.869,0.24,-0.37,-0.34,1,0
16132.218,-0.486,0.059,0.867,0.27,-0.58,-0.49,1,0
16132.218,-0.485,0.058,0.864,0.09,-0.7,-0.46,1,0
16132.234,-0.484,0.057,0.861,0.09,-0.64,-0.4,1,0
16132.25,-0.487,0.057,0.861,0.06,-0.27,-0.49,1,0
16132.25,-0.488,0.057,0.865,0.03,-0.31,-0.31,1,0
16132.265,-0.489,0.056,0.867,0.18,-0.49,-0.06,1,0
16132.281,-0.485,0.056,0.866,0.21,-0.76,0.03,1,0
16132.281,-0.484,0.056,0.865,-0.03,-0.89,-0.18,1,0
16132.296,-0.488,0.056,0.865,-0.03,-0.82,-0.18,1,0
16132.312,-0.487,0.057,0.866,0.06,-0.79,-0.21,1,0
16132.312,-0.485,0.057,0.866,0.24,-0.7,-0.27,1,0
16132.328,-0.487,0.057,0.864,0.46,-0.67,-0.37,1,0
16132.328,-0.488,0.057,0.862,0.52,-0.64,-0.52,1,0
16132.343,-0.492,0.056,0.865,0.67,-0.37,-0.55,1,0
16132.359,-0.5,0.059,0.87,0.85,-0.55,-0.49,1,0
16132.359,-0.492,0.061,0.869,0.64,-1.43,-0.31,1,0
16132.375,-0.482,0.063,0.865,0.34,-1.83,-0.27,1,0
16132.39,-0.479,0.062,0.864,0.31,-1.71,-0.34,1,0
16132.39,-0.481,0.061,0.867,0.12,-1.65,-0.15,1,0
16132.406,-0.483,0.06,0.866,0.0,-1.59,0.06,1,0
16132.421,-0.488,0.057,0.862,0.15,-1.4,0.03,1,0
16132.421,-0.489,0.054,0.859,0.31,-1.04,-0.15,1,0
16132.437,-0.487,0.054,0.855,0.49,-0.61,-0.27,1,0
16132.453,-0.486,0.055,0.852,0.73,-0.12,-0.64,1,0
16132.453,-0.486,0.055,0.854,1.25,0.18,-1.1,1,0
16132.468,-0.486,0.057,0.86,1.62,0.52,-1.01,1,0
16132.468,-0.485,0.058,0.867,1.43,0.64,-0.64,1,0
16132.484,-0.48,0.058,0.874,0.49,0.49,-0.67,1,0
16132.5,-0.483,0.056,0.884,0.06,0.34,-1.01,1,0
16132.5,-0.488,0.057,0.882,0.52,-0.24,-1.4,1,0
16132.515,-0.487,0.063,0.873,1.01,-0.92,-1.5,1,0
16132.531,-0.49,0.066,0.86,1.19,-1.25,-1.68,1,0
16132.531,-0.494,0.068,0.855,0.73,-1.19,-1.43,1,0
16132.546,-0.496,0.071,0.853,0.4,-0.85,-0.73,1,0
16132.562,-0.494,0.072,0.855,0.0,-0.7,0.0,1,0
16132.562,-0.488,0.066,0.857,-0.52,-0.64,0.37,1,0
16132.578,-0.485,0.061,0.86,-0.64,-0.27,0.52,1,0
16132.578,-0.488,0.059,0.866,-0.31,0.0,0.76,1,0
16132.593,-0.487,0.053,0.866,0.0,-0.06,0.73,1,0
16132.609,-0.487,0.049,0.865,0.21,-0.27,0.52,1,0
16132.609,-0.49,0.049,0.868,0.31,-0.49,0.43,1,0
16132.625,-0.492,0.05,0.872,0.52,-0.95,0.37,1,0
16132.64,-0.485,0.052,0.87,0.64,-1.16,0.0,1,0
16132.656,-0.484,0.051,0.866,0.92,-1.1,-0.52,1,0
16132.656,-0.486,0.053,0.861,1.46,-0.79,-0.95,1,0
16132.671,-0.489,0.059,0.862,1.89,-0.55,-1.04,1,0
16132.671,-0.491,0.064,0.861,1.71,-0.76,-0.85,1,0
16132.687,-0.494,0.065,0.864,1.19,-0.85,-0.73,1,0
16132.703,-0.497,0.064,0.865,0.82,-0.98,-0.43,1,0
16132.703,-0.495,0.065,0.867,0.24,-1.59,-0.12,1,0
16132.718,-0.485,0.067,0.866,-0.09,-1.98,-0.18,1,0
16132.718,-0.483,0.064,0.862,0.0,-1.68,-0.4,1,0
16132.734,-0.486,0.064,0.861,0.31,-0.92,-0.58,1,0
16132.75,-0.49,0.066,0.861,0.37,-0.64,-0.37,1,0
16132.75,-0.487,0.065,0.859,-0.27,-0.95,-0.06,1,0
16132.765,-0.48,0.063,0.858,-0.82,-0.95,0.21,1,0
16132.781,-0.484,0.059,0.859,-0.64,-0.52,0.21,1,0
16132.781,-0.489,0.06,0.864,-0.31,-0.21,0.03,1,0
16132.796,-0.493,0.06,0.868,-0.24,-0.4,-0.03,1,0
16132.812,-0.494,0.059,0.869,-0.4,-1.74,-0.06,1,0
16132.812,-0.488,0.061,0.866,-0.67,-1.62,-0.12,1,0
16132.828,-0.483,0.06,0.861,-0.4,-0.92,-0.06,1,0
16132.828,-0.484,0.061,0.856,-0.18,-0.49,-0.09,1,0
16132.843,-0.488,0.063,0.856,-0.55,-0.49,-0.03,1,0
16132.859,-0.49,0.062,0.859,-0.98,-0.43,0.06,1,0
16132.875,-0.492,0.065,0.861,-1.07,-0.43,0.34,1,0
16132.875,-0.491,0.061,0.864,-0.64,-0.27,0.76,1,0
16132.89,-0.491,0.069,0.868,-1.1,-0.15,0.89,1,0
16132.89,-0.497,0.065,0.875,-0.64,-0.18,0.98,1,0
16132.906,-0.499,0.071,0.881,0.12,-0.61,1.62,1,0
16132.921,-0.495,0.074,0.881,0.49,-1.28,1.95,1,0
16132.921,-0.49,0.069,0.879,0.7,-2.11,2.32,1,0
16132.937,-0.488,0.07,0.871,0.79,-2.29,2.66,1,0
16132.953,-0.489,0.068,0.863,0.27,-2.35,2.93,1,0
16132.953,-0.49,0.061,0.857,-0.24,-2.26,3.08,1,0
16132.968,-0.486,0.058,0.853,-0.34,-2.01,3.08,1,0
16132.968,-0.486,0.053,0.85,-0.27,-1.43,2.75,1,0
16132.984,-0.488,0.048,0.853,-0.06,-0.64,2.29,1,0
16133.0,-0.485,0.046,0.86,0.43,-0.21,1.8,1,0
16133.0,-0.484,0.05,0.867,1.5,-0.15,0.98,1,0
16133.015,-0.484,0.049,0.866,2.59,-0.31,0.18,1,0
16133.031,-0.483,0.054,0.865,2.44,-0.49,-0.27,1,0
16133.031,-0.482,0.061,0.863,1.34,-0.85,-0.58,1,0
16133.046,-0.483,0.06,0.863,0.46,-0.79,-0.82,1,0
16133.062,-0.489,0.057,0.861,0.18,-0.4,-0.82,1,0
16133.062,-0.49,0.064,0.86,0.15,-0.31,-0.61,1,0
16133.078,-0.489,0.064,0.859,-0.34,-0.24,-0.76,1,0
16133.093,-0.492,0.061,0.861,-0.79,-0.15,-0.92,1,0
16133.093,-0.494,0.058,0.86,-0.76,-0.03,-0.89,1,0
16133.109,-0.492,0.059,0.861,-0.46,0.27,-0.85,1,0
16133.109,-0.49,0.061,0.864,-0.27,0.58,-0.79,1,0
16133.125,-0.489,0.059,0.866,-0.27,0.49,-0.92,1,0
16133.14,-0.486,0.058,0.871,-0.18,-0.15,-0.73,1,0
16133.14,-0.485,0.058,0.87,-0.18,-0.76,-0.43,1,0
16133.156,-0.486,0.057,0.866,-0.31,-1.01,-0.67,1,0
16133.171,-0.49,0.056,0.862,-0.09,-0.95,-1.19,1,0
16133.171,-0.49,0.059,0.857,0.31,-0.67,-1.4,1,0
16133.187,-0.489,0.062,0.857,0.61,-0.09,-1.31,1,0
16133.187,-0.489,0.064,0.859,0.55,0.34,-1.43,1,0
16133.203,-0.489,0.065,0.86,0.18,0.49,-1.37,1,0
16133.218,-0.486,0.063,0.865,0.03,0.43,-1.22,1,0
16133.234,-0.486,0.065,0.866,0.18,0.21,-1.1,1,0
16133.234,-0.486,0.066,0.865,0.0,-0.03,-1.1,1,0
16133.25,-0.487,0.067,0.865,-0.21,-0.09,-1.1,1,0
16133.25,-0.492,0.065,0.862,-0.03,0.03,-1.04,1,0
16133.265,-0.494,0.067,0.862,-0.24,-0.06,-0.82,1,0
16133.281,-0.498,0.065,0.86,-0.52,-0.15,-0.64,1,0
16133.281,-0.499,0.064,0.861,-0.64,-0.64,-0.46,1,0
16133.296,-0.492,0.064,0.862,-0.7,-1.07,-0.34,1,0
16133.312,-0.487,0.063,0.86,-0.52,-1.01,-0.24,1,0
16133.312,-0.486,0.061,0.856,-0.18,-0.61,-0.12,1,0
16133.328,-0.489,0.06,0.859,-0.06,-0.18,-0.06,1,0
16133.328,-0.49,0.059,0.861,-0.24,-0.06,0.0,1,0
16133.343,-0.494,0.055,0.863,-0.15,-0.15,0.0,1,0
16133.359,-0.496,0.053,0.868,0.21,-0.31,0.03,1,0
16133.375,-0.493,0.057,0.867,0.21,-0.7,0.0,1,0
16133.375,-0.49,0.056,0.866,0.37,-0.82,-0.37,1,0
16133.39,-0.493,0.055,0.866,0.61,-0.61,-0.52,1,0
16133.406,-0.494,0.056,0.862,1.1,-0.52,-0.82,1,0
16133.406,-0.489,0.061,0.859,1.16,-0.67,-0.95,1,0
16133.421,-0.49,0.061,0.858,1.07,-0.64,-1.04,1,0
16133.421,-0.493,0.062,0.861,0.95,-0.31,-1.1,1,0
16133.437,-0.497,0.063,0.861,0.73,-0.27,-0.92,1,0
16133.453,-0.499,0.065,0.864,0.76,-0.7,-0.7,1,0
16133.453,-0.492,0.064,0.864,0.61,-0.95,-0.64,1,0
16133.468,-0.489,0.064,0.863,0.49,-0.89,-0.55,1,0
16133.484,-0.492,0.065,0.864,0.43,-0.92,-0.52,1,0
16133.484,-0.491,0.065,0.864,0.18,-1.19,-0.52,1,0
16133.5,-0.486,0.065,0.859,0.06,-1.22,-0.55,1,0
16133.5,-0.485,0.067,0.853,0.21,-0.79,-0.55,1,0
16133.515,-0.487,0.064,0.851,0.24,-0.4,-0.43,1,0
16133.531,-0.487,0.065,0.853,0.03,-0.18,-0.12,1,0
16133.531,-0.487,0.064,0.856,-0.37,0.15,0.15,1,0
16133.546,-0.493,0.061,0.861,-0.58,0.67,0.21,1,0
16133.562,-0.501,0.059,0.871,-0.61,0.31,0.06,1,0
16133.562,-0.497,0.06,0.869,-0.43,-0.64,-0.09,1,0
16133.578,-0.495,0.059,0.864,-0.4,-1.1,-0.4,1,0
16133.578,-0.5,0.059,0.86,0.06,-1.01,-0.61,1,0
16133.593,-0.503,0.061,0.859,0.43,-1.07,-0.49,1,0
16133.609,-0.498,0.064,0.86,0.15,-1.5,-0.15,1,0
16133.609,-0.491,0.061,0.86,-0.24,-1.46,0.06,1,0
16133.625,-0.489,0.058,0.86,-0.31,-1.07,0.09,1,0
16133.64,-0.492,0.055,0.863,-0.15,-0.67,0.03,1,0
16133.64,-0.491,0.055,0.864,0.0,-0.52,-0.15,1,0
16133.656,-0.489,0.055,0.861,0.27,-0.61,-0.31,1,0
16133.671,-0.489,0.055,0.858,0.46,-0.27,-0.55,1,0
16133.671,-0.492,0.057,0.859,0.7,0.27,-0.76,1,0
16133.687,-0.497,0.057,0.861,0.98,0.43,-0.98,1,0
16133.703,-0.499,0.061,0.865,0.85,-0.09,-0.98,1,0
16133.703,-0.492,0.063,0.863,0.7,-0.7,-0.98,1,0
16133.718,-0.493,0.063,0.862,0.76,-0.82,-1.01,1,0
16133.718,-0.493,0.065,0.861,0.73,-0.95,-0.89,1,0
16133.734,-0.494,0.066,0.859,0.67,-1.04,-0.7,1,0
16133.75,-0.491,0.065,0.858,0.43,-0.82,-0.43,1,0
16133.75,-0.49,0.065,0.857,0.37,-0.43,-0.34,1,0
16133.765,-0.494,0.065,0.86,0.34,-0.15,-0.21,1,0
16133.781,-0.494,0.063,0.863,0.31,0.0,-0.18,1,0
16133.781,-0.491,0.061,0.862,0.18,-0.06,-0.27,1,0
16133.796,-0.491,0.058,0.861,0.27,-0.06,-0.4,1,0
16133.812,-0.497,0.058,0.861,0.37,-0.34,-0.4,1,0
16133.812,-0.498,0.057,0.862,0.31,-0.82,-0.43,1,0
16133.828,-0.493,0.058,0.859,0.49,-0.92,-0.73,1,0
16133.843,-0.495,0.057,0.859,0.82,-0.64,-0.95,1,0
16133.843,-0.494,0.06,0.857,0.98,-0.52,-1.01,1,0
16133.859,-0.493,0.061,0.857,0.85,-0.46,-1.01,1,0
16133.859,-0.492,0.06,0.858,0.85,-0.24,-0.98,1,0
16133.875,-0.493,0.06,0.86,1.01,0.27,-1.1,1,0
16133.89,-0.496,0.061,0.861,1.43,0.67,-1.19,1,0
16133.89,-0.499,0.061,0.864,1.65,0.67,-1.34,1,0
16133.906,-0.499,0.06,0.865,1.46,0.49,-1.46,1,0
16133.921,-0.5,0.06,0.865,1.13,0.15,-1.56,1,0
16133.921,-0.498,0.063,0.863,0.85,-0.49,-1.62,1,0
16133.937,-0.498,0.066,0.863,1.16,-0.82,-1.59,1,0
16133.937,-0.493,0.068,0.861,1.22,-1.25,-1.13,1,0
16133.953,-0.488,0.069,0.857,0.95,-1.5,-0.76,1,0
16133.968,-0.489,0.069,0.854,0.46,-1.19,-0.46,1,0
16133.968,-0.497,0.067,0.854,0.15,-0.7,-0.27,1,0
16133.984,-0.503,0.065,0.854,0.18,-0.37,-0.34,1,0
16134.0,-0.505,0.065,0.857,0.12,0.15,-0.21,1,0
16134.0,-0.504,0.064,0.86,0.06,0.15,-0.06,1,0
16134.015,-0.497,0.06,0.861,0.03,-0.06,0.03,1,0
16134.031,-0.493,0.059,0.865,0.0,-0.34,-0.03,1,0
16134.031,-0.497,0.059,0.867,-0.06,-0.82,-0.15,1,0
16134.046,-0.492,0.061,0.865,-0.4,-1.56,-0.21,1,0
16134.062,-0.484,0.059,0.861,-0.49,-1.71,-0.31,1,0
16134.062,-0.486,0.059,0.857,-0.27,-1.04,-0.52,1,0
16134.078,-0.496,0.06,0.855,0.15,-0.55,-0.52,1,0
16134.078,-0.498,0.062,0.854,0.4,-0.46,-0.43,1,0
16134.093,-0.501,0.065,0.854,0.24,-0.58,-0.58,1,0
16134.109,-0.499,0.065,0.851,0.21,-0.52,-0.7,1,0
16134.109,-0.498,0.064,0.853,0.43,-0.37,-0.55,1,0
16134.125,-0.499,0.066,0.856,0.43,-0.18,-0.24,1,0
16134.14,-0.497,0.066,0.859,0.03,-0.27,0.0,1,0
16134.156,-0.495,0.064,0.861,-0.12,-0.61,0.15,1,0
16134.156,-0.497,0.061,0.861,0.0,-0.64,0.27,1,0
16134.171,-0.499,0.061,0.862,0.0,-0.7,0.21,1,0
16134.171,-0.496,0.058,0.861,-0.27,-1.16,0.15,1,0
16134.187,-0.496,0.057,0.861,-0.18,-1.16,0.09,1,0
16134.203,-0.499,0.057,0.862,0.15,-0.85,-0.15,1,0
16134.203,-0.498,0.061,0.861,0.18,-0.79,-0.37,1,0
16134.218,-0.498,0.063,0.858,0.21,-1.07,-0.46,1,0
16134.234,-0.498,0.062,0.858,0.31,-1.25,-0.37,1,0
16134.234,-0.495,0.063,0.86,0.21,-1.43,-0.03,1,0
16134.25,-0.494,0.064,0.857,-0.09,-1.4,-0.12,1,0
16134.25,-0.495,0.062,0.855,-0.18,-1.16,-0.21,1,0
16134.265,-0.498,0.064,0.857,0.12,-0.76,-0.27,1,0
16134.281,-0.504,0.066,0.857,0.21,-0.7,-0.21,1,0
16134.281,-0.499,0.065,0.858,-0.12,-0.85,-0.12,1,0
16134.296,-0.496,0.06,0.857,-0.09,-0.82,0.09,1,0
16134.312,-0.493,0.06,0.857,-0.09,-0.73,0.06,1,0
16134.312,-0.49,0.061,0.856,0.0,-0.55,-0.15,1,0
16134.328,-0.492,0.06,0.855,0.12,-0.34,-0.4,1,0
16134.328,-0.494,0.061,0.856,0.37,0.12,-0.64,1,0
16134.343,-0.499,0.061,0.858,0.49,0.46,-0.61,1,0
16134.359,-0.501,0.06,0.859,0.49,0.12,-0.49,1,0
16134.359,-0.498,0.061,0.857,0.49,-0.15,-0.37,1,0
16134.375,-0.496,0.059,0.859,0.52,-0.18,-0.43,1,0
16134.39,-0.501,0.061,0.863,0.73,-0.37,-0.55,1,0
16134.39,-0.5,0.063,0.862,0.85,-0.67,-0.61,1,0
16134.406,-0.497,0.064,0.858,0.82,-0.92,-0.52,1,0
16134.421,-0.497,0.063,0.855,0.52,-0.89,-0.58,1,0
16134.421,-0.5,0.064,0.856,0.24,-0.73,-0.67,1,0
16134.437,-0.499,0.064,0.857,0.24,-0.64,-0.61,1,0
16134.453,-0.498,0.063,0.857,0.46,-0.52,-0.46,1,0
16134.453,-0.497,0.063,0.855,0.58,-0.15,-0.46,1,0
16134.468,-0.5,0.062,0.857,0.55,-0.27,-0.7,1,0
16134.468,-0.499,0.058,0.856,0.7,-0.52,-0.64,1,0
16134.484,-0.491,0.058,0.852,1.01,-0.31,-0.76,1,0
16134.5,-0.49,0.059,0.853,1.25,0.31,-1.04,1,0
16134.5,-0.501,0.059,0.858,1.1,1.04,-1.19,1,0
16134.515,-0.51,0.061,0.867,1.16,0.64,-1.28,1,0
16134.531,-0.506,0.06,0.866,1.13,-0.46,-1.37,1,0
16134.531,-0.499,0.065,0.863,1.31,-1.25,-1.5,1,0
16134.546,-0.498,0.065,0.856,1.5,-1.25,-1.53,1,0
16134.562,-0.498,0.066,0.853,1.34,-0.73,-1.34,1,0
16134.562,-0.502,0.065,0.855,1.28,-0.4,-1.25,1,0
16134.578,-0.506,0.066,0.859,1.22,-0.37,-0.98,1,0
16134.593,-0.504,0.068,0.861,1.01,-0.73,-0.67,1,0
16134.593,-0.496,0.066,0.858,0.67,-0.95,-0.67,1,0
16134.609,-0.496,0.064,0.858,0.52,-0.7,-0.67,1,0
16134.609,-0.497,0.064,0.857,0.64,-0.46,-0.64,1,0
16134.625,-0.496,0.065,0.853,0.52,-0.43,-0.64,1,0
16134.64,-0.498,0.064,0.852,0.58,-0.21,-0.61,1,0
16134.64,-0.502,0.063,0.855,0.76,-0.18,-0.73,1,0
16134.656,-0.501,0.063,0.857,0.92,-0.06,-0.73,1,0
16134.671,-0.503,0.063,0.858,1.04,-0.27,-0.7,1,0
16134.671,-0.502,0.063,0.856,1.1,-0.64,-0.67,1,0
16134.687,-0.496,0.065,0.855,1.04,-0.67,-0.7,1,0
16134.687,-0.497,0.064,0.852,0.95,-0.34,-0.73,1,0
16134.703,-0.501,0.062,0.854,1.1,0.12,-0.82,1,0
16134.718,-0.501,0.062,0.857,1.19,0.24,-0.92,1,0
16134.718,-0.498,0.061,0.854,1.19,0.34,-1.07,1,0
16134.734,-0.502,0.063,0.856,1.16,0.7,-1.28,1,0
16134.75,-0.505,0.063,0.859,1.16,0.76,-1.5,1,0
16134.765,-0.502,0.064,0.86,1.16,0.31,-1.71,1,0
16134.765,-0.503,0.067,0.857,1.37,-0.03,-1.62,1,0
16134.781,-0.505,0.07,0.856,1.01,-0.34,-1.07,1,0
16134.781,-0.507,0.071,0.853,0.61,-0.67,-0.92,1,0
16134.796,-0.505,0.073,0.85,0.31,-0.46,-0.61,1,0
16134.812,-0.502,0.073,0.852,0.09,0.0,-0.09,1,0
16134.812,-0.501,0.071,0.855,-0.15,0.12,0.61,1,0
16134.828,-0.502,0.068,0.854,-0.67,-0.4,1.01,1,0
16134.828,-0.499,0.061,0.855,-1.07,-0.58,0.85,1,0
16134.843,-0.504,0.056,0.857,-0.79,-0.31,0.49,1,0
16134.859,-0.509,0.058,0.859,-0.46,-0.09,0.12,1,0
16134.859,-0.509,0.058,0.859,0.03,-0.12,-0.24,1,0
16134.875,-0.504,0.059,0.856,0.4,-0.15,-0.52,1,0
16134.89,-0.5,0.062,0.855,0.34,-0.03,-0.85,1,0
16134.89,-0.498,0.062,0.854,0.34,-0.06,-1.01,1,0
16134.906,-0.497,0.062,0.854,0.24,-0.09,-1.07,1,0
16134.921,-0.495,0.066,0.853,0.21,0.06,-1.19,1,0
16134.921,-0.495,0.067,0.852,0.31,0.46,-1.34,1,0
16134.937,-0.503,0.068,0.856,0.37,0.7,-1.37,1,0
16134.953,-0.509,0.07,0.856,0.37,0.82,-1.1,1,0
16134.953,-0.511,0.074,0.856,-0.03,0.55,-0.55,1,0
16134.968,-0.512,0.075,0.855,-0.73,0.0,-0.09,1,0
16134.984,-0.513,0.072,0.856,-1.22,-0.52,0.49,1,0
16134.984,-0.509,0.072,0.853,-1.37,-0.95,0.92,1,0
16135.0,-0.502,0.069,0.851,-1.56,-1.22,1.31,1,0
16135.0,-0.499,0.064,0.848,-1.5,-0.98,1.4,1,0
16135.015,-0.502,0.059,0.85,-1.16,-0.49,1.28,1,0
16135.031,-0.508,0.055,0.853,-0.46,-0.24,1.22,1,0
16135.031,-0.507,0.053,0.855,-0.27,-0.52,0.95,1,0
16135.046,-0.503,0.052,0.855,-0.12,-0.61,0.52,1,0
16135.062,-0.504,0.05,0.854,0.34,-0.31,0.0,1,0
16135.062,-0.505,0.049,0.857,0.79,-0.09,-0.46,1,0
16135.078,-0.505,0.053,0.858,1.16,-0.31,-1.07,1,0
16135.078,-0.501,0.057,0.856,1.62,-0.52,-1.4,1,0
16135.093,-0.502,0.06,0.855,1.89,-0.34,-1.5,1,0
16135.109,-0.511,0.066,0.855,2.01,-0.12,-1.43,1,0
16135.109,-0.512,0.069,0.856,1.56,-0.64,-1.1,1,0
16135.125,-0.506,0.071,0.856,0.89,-1.28,-0.73,1,0
16135.14,-0.505,0.071,0.854,0.64,-1.28,-0.61,1,0
16135.14,-0.505,0.072,0.853,0.79,-1.04,-0.52,1,0
16135.156,-0.506,0.074,0.849,0.76,-0.89,-0.43,1,0
16135.171,-0.503,0.074,0.847,0.37,-0.82,-0.34,1,0
16135.171,-0.504,0.074,0.852,0.18,-0.7,-0.24,1,0
16135.187,-0.499,0.071,0.836,0.21,-0.37,-0.18,1,0
16135.203,-0.503,0.071,0.854,0.06,0.46,0.15,1,0
16135.203,-0.506,0.063,0.847,-0.09,-0.03,0.03,1,0
16135.218,-0.504,0.066,0.855,-0.43,-0.24,0.03,1,0
16135.218,-0.503,0.056,0.854,-0.03,-0.4,0.06,1,0
16135.234,-0.502,0.059,0.85,0.21,-0.46,-0.18,1,0
16135.25,-0.501,0.06,0.851,0.37,-0.37,-0.64,1,0
16135.25,-0.504,0.055,0.849,0.67,-0.15,-0.82,1,0
16135.265,-0.507,0.059,0.85,0.92,0.15,-1.16,1,0
16135.281,-0.506,0.058,0.853,1.01,0.06,-1.31,1,0
16135.281,-0.503,0.06,0.853,1.16,-0.09,-1.5,1,0
16135.296,-0.504,0.063,0.848,1.43,0.0,-1.74,1,0
16135.312,-0.507,0.063,0.851,1.8,0.64,-1.71,1,0
16135.312,-0.511,0.066,0.853,2.17,1.01,-1.77,1,0
16135.328,-0.51,0.063,0.854,2.23,0.73,-2.04,1,0
16135.343,-0.512,0.066,0.854,2.29,0.55,-2.32,1,0
16135.343,-0.514,0.07,0.857,2.47,0.31,-2.14,1,0
16135.359,-0.512,0.071,0.856,2.29,-0.06,-1.89,1,0
16135.359,-0.51,0.071,0.85,1.71,-0.31,-1.46,1,0
16135.375,-0.507,0.074,0.85,1.19,-0.21,-1.13,1,0
16135.39,-0.511,0.072,0.85,0.95,-0.12,-0.85,1,0
16135.39,-0.51,0.07,0.853,0.58,-0.24,-0.55,1,0
16135.406,-0.507,0.071,0.85,0.46,-0.61,-0.24,1,0
16135.421,-0.505,0.072,0.851,0.34,-0.55,0.0,1,0
16135.437,-0.512,0.066,0.853,0.27,-0.76,0.18,1,0
16135.437,-0.503,0.072,0.842,0.18,-0.61,0.09,1,0
16135.437,-0.506,0.066,0.851,0.31,0.0,0.06,1,0
16135.453,-0.507,0.062,0.843,0.18,0.06,-0.46,1,0
16135.468,-0.512,0.067,0.85,0.12,0.43,-0.31,1,0
16135.468,-0.51,0.066,0.847,0.24,0.18,-0.06,1,0
16135.484,-0.511,0.074,0.848,-0.24,0.37,0.09,1,0
16135.5,-0.513,0.08,0.854,-1.13,0.43,0.82,1,0
16135.515,-0.516,0.088,0.856,-2.26,0.27,1.92,1,0
16135.515,-0.513,0.089,0.855,-3.63,-0.37,2.93,1,0
16135.531,-0.512,0.087,0.857,-4.7,-0.98,3.81,1,0
16135.531,-0.512,0.081,0.857,-5.28,-1.19,4.24,1,0
16135.546,-0.513,0.073,0.853,-5.04,-1.31,4.27,1,0
16135.562,-0.515,0.067,0.85,-4.36,-1.43,4.0,1,0
16135.562,-0.511,0.059,0.846,-3.91,-1.56,3.63,1,0
16135.578,-0.503,0.048,0.845,-3.33,-1.46,3.08,1,0
16135.578,-0.505,0.044,0.846,-2.5,-1.1,2.35,1,0
16135.593,-0.504,0.036,0.85,-1.31,-1.04,1.59,1,0
16135.609,-0.502,0.031,0.848,0.12,-0.98,0.55,1,0
16135.609,-0.506,0.027,0.847,1.34,-0.52,-0.89,1,0
16135.625,-0.505,0.029,0.849,2.75,0.06,-2.32,1,0
16135.64,-0.508,0.032,0.853,4.39,0.43,-3.45,1,0
16135.64,-0.514,0.043,0.854,5.37,0.61,-4.39,1,0
16135.656,-0.514,0.054,0.856,5.58,0.4,-4.97,1,0
16135.671,-0.51,0.063,0.856,5.43,0.03,-5.1,1,0
16135.671,-0.507,0.07,0.853,5.55,-0.15,-4.88,1,0
16135.687,-0.509,0.08,0.85,5.34,0.21,-4.36,1,0
16135.703,-0.513,0.088,0.851,4.61,0.43,-3.6,1,0
16135.703,-0.513,0.093,0.847,3.2,0.37,-2.5,1,0
16135.718,-0.516,0.099,0.85,1.56,0.46,-1.34,1,0
16135.734,-0.52,0.102,0.852,0.06,0.34,-0.03,1,0
16135.734,-0.52,0.107,0.852,-1.8,0.0,1.34,1,0
16135.75,-0.519,0.105,0.849,-3.42,-0.52,2.84,1,0
16135.75,-0.517,0.1,0.849,-5.4,-1.62,4.67,1,0
16135.765,-0.511,0.093,0.85,-5.77,-1.89,5.1,1,0
16135.781,-0.509,0.083,0.847,-5.74,-1.8,5.31,1,0
16135.781,-0.508,0.065,0.842,-5.4,-1.59,5.37,1,0
16135.796,-0.51,0.059,0.84,-5.37,-1.5,5.28,1,0
16135.812,-0.508,0.055,0.84,-5.49,-1.31,4.94,1,0
16135.812,-0.511,0.05,0.845,-5.58,-0.79,4.97,1,0
16135.828,-0.51,0.05,0.85,-5.49,-0.37,4.76,1,0
16135.828,-0.509,0.048,0.855,-5.28,-0.21,4.3,1,0
16135.843,-0.507,0.047,0.858,-4.85,-0.37,3.85,1,0
16135.859,-0.508,0.047,0.861,-3.85,-0.67,3.2,1,0
16135.859,-0.508,0.049,0.86,-2.93,-1.04,2.69,1,0
16135.875,-0.51,0.051,0.854,-2.38,-1.34,2.2,1,0
16135.89,-0.511,0.051,0.851,-1.89,-1.31,1.68,1,0
16135.89,-0.512,0.051,0.848,-1.19,-1.01,1.19,1,0
16135.906,-0.513,0.054,0.844,-0.46,-0.55,0.82,1,0
16135.921,-0.512,0.054,0.845,0.27,-0.18,0.37,1,0
16135.921,-0.514,0.058,0.846,0.92,0.06,-0.06,1,0
16135.937,-0.511,0.058,0.848,1.28,-0.03,-0.31,1,0
16135.953,-0.507,0.057,0.848,1.22,-0.27,-0.4,1,0
16135.953,-0.502,0.054,0.848,1.37,-0.4,-0.61,1,0
16135.968,-0.502,0.058,0.85,1.34,-0.24,-1.19,1,0
16135.968,-0.505,0.062,0.852,1.43,-0.09,-1.53,1,0
16135.984,-0.509,0.067,0.849,1.5,-0.18,-1.46,1,0
16136.0,-0.511,0.073,0.847,1.1,-0.21,-0.95,1,0
16136.0,-0.512,0.078,0.848,0.31,-0.37,-0.46,1,0
16136.015,-0.514,0.075,0.85,-0.37,-0.61,0.0,1,0
16136.031,-0.514,0.072,0.85,-0.55,-0.58,0.24,1,0
16136.046,-0.517,0.073,0.848,-0.46,-0.73,0.64,1,0
16136.046,-0.516,0.07,0.849,-0.46,-0.76,0.82,1,0
16136.062,-0.516,0.066,0.851,-0.7,-1.1,0.92,1,0
16136.062,-0.516,0.064,0.852,-0.89,-1.5,0.85,1,0
16136.078,-0.513,0.061,0.851,-0.98,-1.89,0.82,1,0
16136.093,-0.511,0.056,0.85,-0.92,-1.86,0.55,1,0
16136.093,-0.512,0.055,0.852,-0.43,-1.4,0.46,1,0
16136.109,-0.514,0.058,0.851,-0.12,-1.1,0.37,1,0
16136.109,-0.513,0.059,0.85,-0.24,-1.19,0.24,1,0
16136.125,-0.512,0.057,0.853,-0.49,-1.46,0.09,1,0
16136.14,-0.511,0.059,0.852,-0.34,-1.74,0.03,1,0
16136.14,-0.51,0.062,0.852,-0.06,-1.62,0.0,1,0
16136.156,-0.511,0.065,0.853,0.09,-1.68,0.15,1,0
16136.171,-0.508,0.066,0.847,-0.15,-1.59,0.12,1,0
16136.171,-0.509,0.065,0.848,-0.03,-1.34,0.15,1,0
16136.187,-0.51,0.063,0.85,0.24,-1.16,0.21,1,0
16136.203,-0.509,0.061,0.847,0.58,-0.95,0.03,1,0
16136.203,-0.512,0.062,0.846,0.7,-0.76,-0.03,1,0
16136.218,-0.514,0.066,0.847,0.46,-0.82,-0.03,1,0
16136.218,-0.514,0.071,0.851,-0.12,-0.95,0.21,1,0
16136.234,-0.514,0.068,0.855,-0.7,-1.22,0.46,1,0
16136.25,-0.512,0.068,0.855,-1.01,-1.68,0.76,1,0
16136.265,-0.509,0.071,0.851,-1.28,-1.92,0.73,1,0
16136.265,-0.509,0.071,0.85,-1.56,-1.83,0.85,1,0
16136.281,-0.511,0.075,0.85,-1.74,-1.46,1.13,1,0
16136.281,-0.514,0.073,0.849,-2.17,-1.4,1.62,1,0
16136.296,-0.516,0.072,0.851,-2.56,-1.53,2.01,1,0
16136.312,-0.513,0.069,0.85,-3.02,-1.83,2.35,1,0
16136.312,-0.509,0.065,0.848,-3.3,-1.92,2.5,1,0
16136.328,-0.507,0.062,0.85,-3.23,-1.74,2.53,1,0
16136.343,-0.51,0.059,0.853,-2.96,-1.4,2.32,1,0
16136.343,-0.511,0.061,0.853,-2.93,-1.37,2.11,1,0
16136.359,-0.51,0.058,0.855,-2.75,-1.62,2.04,1,0
16136.359,-0.509,0.057,0.855,-2.66,-1.92,2.11,1,0
16136.375,-0.507,0.057,0.852,-2.56,-2.17,1.92,1,0
16136.39,-0.51,0.055,0.85,-2.5,-2.08,1.77,1,0
16136.39,-0.509,0.053,0.851,-2.14,-1.86,1.56,1,0
16136.406,-0.507,0.055,0.849,-1.59,-1.59,1.37,1,0
16136.421,-0.505,0.055,0.85,-1.16,-1.5,1.01,1,0
16136.421,-0.501,0.055,0.851,-0.95,-1.31,0.73,1,0
16136.437,-0.503,0.053,0.849,-0.52,-0.95,0.64,1,0
16136.453,-0.51,0.054,0.851,-0.27,-0.7,0.4,1,0
16136.453,-0.515,0.055,0.851,-0.12,-0.67,0.24,1,0
16136.468,-0.515,0.055,0.851,0.09,-0.7,0.18,1,0
16136.468,-0.511,0.055,0.854,0.34,-0.79,-0.18,1,0
16136.484,-0.508,0.057,0.854,0.79,-0.79,-0.4,1,0
16136.5,-0.507,0.059,0.854,1.16,-0.64,-0.7,1,0
16136.5,-0.508,0.064,0.853,0.82,-0.61,-0.7,1,0
16136.515,-0.506,0.065,0.854,0.03,-0.98,-0.49,1,0
16136.531,-0.504,0.065,0.853,-0.34,-1.19,-0.24,1,0
16136.531,-0.506,0.065,0.855,-0.24,-1.16,-0.09,1,0
16136.546,-0.508,0.066,0.853,-0.03,-0.98,0.18,1,0
16136.562,-0.511,0.067,0.852,0.0,-0.98,0.24,1,0
16136.562,-0.511,0.066,0.849,-0.24,-1.13,0.21,1,0
16136.578,-0.511,0.06,0.849,-0.52,-1.28,0.12,1,0
16136.578,-0.506,0.059,0.85,-0.4,-1.28,0.0,1,0
16136.593,-0.504,0.057,0.847,0.15,-1.1,-0.37,1,0
16136.609,-0.508,0.058,0.848,0.73,-0.55,-0.7,1,0
16136.609,-0.514,0.062,0.853,0.89,-0.55,-0.49,1,0
16136.625,-0.51,0.063,0.852,0.31,-1.22,-0.03,1,0
16136.64,-0.503,0.061,0.851,-0.21,-1.34,0.31,1,0
16136.64,-0.506,0.057,0.853,-0.06,-0.92,0.09,1,0
16136.656,-0.513,0.059,0.858,0.37,-0.7,0.03,1,0
16136.671,-0.516,0.06,0.857,0.24,-1.19,0.18,1,0
16136.671,-0.511,0.059,0.857,-0.03,-1.68,0.27,1,0
16136.687,-0.507,0.06,0.853,-0.09,-1.59,0.15,1,0
16136.703,-0.505,0.06,0.852,0.27,-1.5,0.0,1,0
16136.703,-0.504,0.06,0.849,0.64,-1.28,-0.21,1,0
16136.718,-0.506,0.06,0.846,0.92,-0.82,-0.31,1,0
16136.718,-0.511,0.062,0.847,0.67,-0.67,-0.27,1,0
16136.734,-0.509,0.061,0.852,0.06,-1.1,-0.27,1,0
16136.75,-0.505,0.061,0.852,0.58,-0.82,-0.58,1,0
16136.75,-0.507,0.059,0.85,0.79,-0.55,-0.79,1,0
16136.765,-0.511,0.062,0.852,0.52,-0.92,-0.7,1,0
16136.781,-0.503,0.063,0.85,0.24,-1.13,-0.49,1,0
16136.796,-0.502,0.063,0.849,0.34,-0.98,-0.55,1,0
16136.796,-0.506,0.066,0.848,0.46,-0.43,-0.58,1,0
16136.812,-0.51,0.065,0.851,0.12,-0.18,-0.55,1,0
16136.812,-0.509,0.064,0.851,-0.12,-0.34,-0.43,1,0
16136.828,-0.508,0.062,0.853,-0.12,-0.61,-0.46,1,0
16136.843,-0.51,0.062,0.856,0.06,-0.73,-0.43,1,0
16136.843,-0.513,0.062,0.853,0.15,-0.82,-0.27,1,0
16136.859,-0.51,0.062,0.853,0.03,-1.25,0.15,1,0
16136.859,-0.509,0.063,0.853,-0.43,-1.56,0.49,1,0
16136.875,-0.507,0.062,0.853,-0.79,-1.71,0.34,1,0
16136.89,-0.507,0.062,0.853,-0.73,-1.62,0.12,1,0
16136.89,-0.51,0.062,0.852,-0.4,-1.25,0.15,1,0
16136.906,-0.509,0.061,0.847,-0.09,-1.16,0.21,1,0
16136.921,-0.508,0.061,0.849,-0.27,-1.1,0.03,1,0
16136.921,-0.509,0.06,0.852,-0.4,-0.92,-0.18,1,0
16136.937,-0.509,0.058,0.854,-0.12,-0.92,-0.24,1,0
16136.953,-0.51,0.057,0.853,0.27,-0.82,-0.34,1,0
16136.953,-0.51,0.057,0.851,0.34,-0.7,-0.46,1,0
16136.968,-0.51,0.056,0.852,0.4,-0.73,-0.52,1,0
16136.968,-0.511,0.056,0.854,0.43,-0.85,-0.73,1,0
16136.984,-0.509,0.06,0.857,0.24,-1.13,-0.89,1,0
16137.0,-0.506,0.061,0.852,0.27,-1.37,-0.92,1,0
16137.015,-0.503,0.062,0.848,0.31,-1.16,-0.98,1,0
16137.015,-0.504,0.063,0.846,0.34,-0.61,-1.04,1,0
16137.031,-0.507,0.064,0.843,0.52,-0.31,-0.89,1,0
16137.031,-0.509,0.066,0.845,0.34,-0.03,-0.73,1,0
16137.046,-0.509,0.065,0.851,0.03,0.06,-0.55,1,0
16137.062,-0.507,0.064,0.855,0.03,-0.15,-0.43,1,0
16137.062,-0.509,0.065,0.856,0.0,-0.43,-0.52,1,0
16137.078,-0.509,0.061,0.855,0.03,-0.49,-0.49,1,0
16137.093,-0.51,0.062,0.856,0.09,-0.76,-0.21,1,0
16137.093,-0.51,0.063,0.853,-0.18,-1.04,-0.12,1,0
16137.109,-0.507,0.062,0.853,-0.61,-1.1,0.0,1,0
16137.109,-0.508,0.059,0.853,-0.55,-0.85,-0.06,1,0
16137.125,-0.514,0.06,0.851,-0.34,-0.52,-0.18,1,0
16137.14,-0.514,0.061,0.852,-0.18,-0.61,-0.03,1,0
16137.14,-0.511,0.06,0.849,-0.34,-0.85,0.09,1,0
16137.156,-0.513,0.057,0.852,-0.46,-0.79,0.24,1,0
16137.171,-0.509,0.055,0.853,-0.27,-1.07,0.0,1,0
16137.171,-0.504,0.055,0.849,0.27,-1.04,-0.34,1,0
16137.187,-0.503,0.052,0.846,0.67,-0.4,-0.52,1,0
16137.187,-0.506,0.052,0.847,1.07,0.15,-0.89,1,0
16137.203,-0.51,0.052,0.851,1.4,0.24,-1.01,1,0
16137.218,-0.508,0.055,0.853,1.46,0.03,-1.46,1,0
16137.218,-0.505,0.053,0.853,1.65,0.03,-2.08,1,0
16137.234,-0.509,0.055,0.853,2.23,0.12,-2.5,1,0
16137.25,-0.514,0.06,0.855,2.81,0.15,-2.56,1,0
16137.25,-0.514,0.062,0.854,2.84,-0.21,-2.59,1,0
16137.265,-0.515,0.067,0.85,2.41,-0.67,-2.41,1,0
16137.281,-0.516,0.074,0.85,1.83,-1.07,-1.83,1,0
16137.281,-0.51,0.078,0.85,0.7,-1.25,-1.01,1,0
16137.296,-0.506,0.077,0.847,-0.09,-0.95,-0.49,1,0
16137.312,-0.506,0.073,0.847,-0.15,-0.58,-0.06,1,0
16137.312,-0.505,0.07,0.849,-0.06,-0.43,0.31,1,0
16137.328,-0.508,0.064,0.847,0.0,-0.34,0.49,1,0
16137.328,-0.512,0.059,0.847,-0.12,-0.27,0.4,1,0
16137.343,-0.516,0.057,0.849,-0.24,-0.24,0.31,1,0
16137.359,-0.521,0.056,0.853,-0.27,-0.21,0.37,1,0
16137.359,-0.515,0.053,0.856,-0.21,-0.85,0.37,1,0
16137.375,-0.505,0.052,0.854,0.12,-1.1,-0.15,1,0
16137.39,-0.505,0.056,0.851,0.55,-1.01,-0.85,1,0
16137.39,-0.506,0.056,0.85,1.01,-0.76,-1.13,1,0
16137.406,-0.505,0.059,0.846,1.19,-0.31,-1.22,1,0
16137.421,-0.507,0.062,0.845,1.16,0.18,-1.16,1,0
16137.421,-0.51,0.061,0.85,1.13,0.52,-1.1,1,0
16137.437,-0.513,0.063,0.85,1.28,0.52,-1.01,1,0
16137.453,-0.516,0.064,0.849,1.16,0.34,-0.89,1,0
16137.453,-0.514,0.065,0.849,0.98,0.0,-0.82,1,0
16137.468,-0.515,0.068,0.849,0.76,-0.34,-0.76,1,0
16137.468,-0.512,0.069,0.853,0.67,-0.76,-0.46,1,0
16137.484,-0.509,0.068,0.851,0.85,-0.98,-0.27,1,0
16137.5,-0.511,0.068,0.85,0.7,-1.13,-0.15,1,0
16137.5,-0.511,0.068,0.847,0.4,-1.19,0.12,1,0
16137.515,-0.512,0.066,0.848,0.18,-0.95,0.34,1,0
16137.531,-0.514,0.064,0.847,-0.12,-0.89,0.49,1,0
16137.546,-0.514,0.062,0.849,-0.4,-0.95,0.46,1,0
16137.546,-0.515,0.06,0.85,-0.34,-0.89,0.31,1,0
16137.546,-0.515,0.06,0.854,-0.15,-0.92,0.21,1,0
16137.562,-0.512,0.063,0.854,-0.24,-0.92,0.09,1,0
16137.578,-0.508,0.064,0.852,-0.09,-1.1,0.09,1,0
16137.578,-0.507,0.064,0.851,0.09,-1.16,0.0,1,0
16137.593,-0.511,0.066,0.851,-0.12,-1.22,0.21,1,0
16137.609,-0.513,0.065,0.848,-0.52,-1.25,0.43,1,0
16137.625,-0.514,0.062,0.848,-0.76,-1.07,0.55,1,0
16137.625,-0.516,0.059,0.846,-0.52,-0.89,0.55,1,0
16137.64,-0.515,0.057,0.848,-0.21,-0.7,0.46,1,0
16137.64,-0.516,0.058,0.85,-0.21,-0.67,0.15,1,0
16137.656,-0.515,0.058,0.852,-0.09,-1.07,-0.09,1,0
16137.671,-0.507,0.06,0.85,0.12,-1.22,-0.24,1,0
16137.671,-0.509,0.06,0.849,0.4,-1.19,-0.55,1,0
16137.687,-0.509,0.062,0.846,0.55,-1.01,-0.49,1,0
16137.703,-0.507,0.065,0.845,0.52,-0.76,-0.46,1,0
16137.703,-0.511,0.065,0.849,0.46,-0.67,-0.43,1,0
16137.718,-0.512,0.066,0.85,0.06,-1.01,0.09,1,0
16137.718,-0.508,0.067,0.849,0.03,-0.95,0.31,1,0
16137.734,-0.508,0.066,0.848,-0.15,-0.73,0.49,1,0
16137.75,-0.511,0.065,0.849,-0.4,-0.7,0.37,1,0
16137.75,-0.514,0.065,0.851,-0.37,-0.67,0.18,1,0
16137.765,-0.516,0.064,0.849,-0.37,-0.85,0.31,1,0
16137.781,-0.513,0.065,0.847,-0.52,-1.13,0.61,1,0
16137.781,-0.509,0.064,0.845,-0.61,-1.16,0.52,1,0
16137.796,-0.511,0.062,0.845,-0.7,-0.79,0.4,1,0
16137.812,-0.512,0.06,0.846,-0.64,-0.49,0.24,1,0
16137.812,-0.507,0.058,0.846,-0.27,-0.37,0.12,1,0
16137.828,-0.509,0.057,0.848,0.06,-0.12,-0.09,1,0
16137.843,-0.515,0.058,0.852,0.46,-0.12,-0.31,1,0
16137.843,-0.516,0.059,0.854,0.46,-0.61,-0.4,1,0
16137.859,-0.51,0.059,0.85,0.27,-1.22,-0.43,1,0
16137.859,-0.508,0.06,0.849,0.49,-1.22,-0.49,1,0
16137.875,-0.514,0.06,0.85,0.73,-0.85,-0.49,1,0
16137.89,-0.514,0.064,0.852,0.7,-0.79,-0.4,1,0
16137.89,-0.514,0.066,0.853,0.43,-1.22,-0.18,1,0
16137.906,-0.512,0.065,0.85,0.18,-1.56,-0.06,1,0
16137.921,-0.506,0.065,0.848,0.06,-1.37,0.09,1,0
16137.921,-0.508,0.063,0.846,0.24,-0.95,-0.06,1,0
16137.937,-0.512,0.062,0.843,0.49,-0.37,-0.09,1,0
16137.937,-0.517,0.065,0.846,0.43,-0.18,0.12,1,0
16137.953,-0.517,0.064,0.851,0.09,-0.46,0.4,1,0
16137.968,-0.509,0.061,0.851,-0.12,-1.13,0.46,1,0
16137.984,-0.508,0.061,0.852,0.0,-1.4,0.03,1,0
16137.984,-0.51,0.062,0.852,0.24,-1.34,-0.18,1,0
16138.0,-0.512,0.065,0.852,0.37,-1.46,-0.37,1,0
16138.0,-0.513,0.066,0.848,0.37,-1.68,-0.15,1,0
16138.015,-0.509,0.065,0.849,0.18,-1.8,0.09,1,0
16138.031,-0.508,0.064,0.847,0.06,-1.37,0.09,1,0
16138.031,-0.51,0.061,0.849,0.24,-0.79,-0.31,1,0
16138.046,-0.513,0.059,0.85,0.76,-0.4,-0.61,1,0
16138.062,-0.522,0.06,0.853,1.22,-0.27,-0.64,1,0
16138.062,-0.523,0.062,0.853,1.01,-0.73,-0.55,1,0
16138.078,-0.515,0.061,0.852,0.52,-1.34,-0.73,1,0
16138.078,-0.51,0.06,0.852,0.67,-1.5,-0.92,1,0
16138.093,-0.509,0.062,0.848,1.34,-1.31,-0.7,1,0
16138.109,-0.508,0.064,0.845,1.59,-1.19,-0.58,1,0
16138.109,-0.506,0.062,0.843,1.19,-1.31,-0.7,1,0
16138.125,-0.506,0.062,0.842,0.98,-1.04,-0.98,1,0
16138.14,-0.512,0.062,0.845,1.28,-0.34,-0.89,1,0
16138.14,-0.516,0.063,0.851,1.68,-0.06,-0.92,1,0
16138.156,-0.513,0.065,0.854,1.62,-0.34,-1.22,1,0
16138.171,-0.512,0.066,0.852,1.31,-0.46,-1.71,1,0
16138.171,-0.516,0.067,0.854,1.4,-0.34,-1.8,1,0
16138.187,-0.519,0.074,0.855,1.34,-0.61,-1.37,1,0
16138.203,-0.514,0.078,0.852,0.58,-1.5,-0.85,1,0
16138.203,-0.508,0.078,0.849,-0.27,-1.98,-0.61,1,0
16138.218,-0.508,0.076,0.849,-0.76,-1.89,-0.09,1,0
16138.218,-0.512,0.076,0.846,-0.7,-1.4,0.37,1,0
16138.234,-0.515,0.075,0.846,-0.89,-1.16,0.82,1,0
16138.25,-0.515,0.069,0.846,-1.53,-1.07,1.1,1,0
16138.25,-0.515,0.062,0.847,-1.62,-1.04,1.16,1,0
16138.265,-0.513,0.059,0.849,-1.28,-1.1,1.04,1,0
16138.281,-0.508,0.058,0.846,-0.79,-1.07,0.67,1,0
16138.281,-0.509,0.057,0.847,-0.27,-0.82,0.18,1,0
16138.296,-0.513,0.053,0.851,0.12,-0.76,-0.09,1,0
16138.312,-0.511,0.055,0.85,0.27,-1.04,-0.15,1,0
16138.312,-0.507,0.055,0.848,0.43,-1.13,-0.37,1,0
16138.328,-0.507,0.055,0.848,0.73,-0.76,-0.76,1,0
16138.328,-0.513,0.056,0.849,1.25,-0.15,-1.19,1,0
16138.343,-0.517,0.059,0.85,1.92,-0.06,-1.19,1,0
16138.359,-0.52,0.062,0.853,1.92,-0.31,-1.25,1,0
16138.375,-0.514,0.066,0.854,1.43,-0.64,-1.28,1,0
16138.375,-0.509,0.069,0.851,1.22,-0.89,-1.19,1,0
16138.39,-0.515,0.069,0.854,1.4,-0.82,-0.76,1,0
16138.39,-0.513,0.072,0.853,1.22,-1.1,-0.4,1,0
16138.406,-0.51,0.073,0.848,0.82,-1.37,-0.27,1,0
16138.421,-0.512,0.071,0.846,0.52,-1.34,-0.24,1,0
16138.421,-0.516,0.071,0.847,0.34,-1.34,0.0,1,0
16138.437,-0.513,0.071,0.845,0.06,-1.34,0.09,1,0
16138.453,-0.51,0.069,0.845,-0.12,-1.07,0.0,1,0
16138.453,-0.51,0.068,0.845,-0.06,-0.95,-0.06,1,0
16138.468,-0.512,0.066,0.85,0.06,-0.85,-0.21,1,0
16138.468,-0.51,0.068,0.851,-0.12,-1.22,-0.15,1,0
16138.484,-0.505,0.068,0.848,-0.52,-1.31,-0.06,1,0
16138.5,-0.505,0.065,0.847,-0.61,-1.04,-0.12,1,0
16138.5,-0.512,0.065,0.847,-0.4,-0.7,-0.06,1,0
16138.515,-0.512,0.067,0.849,-0.21,-0.55,0.0,1,0
16138.531,-0.511,0.064,0.848,-0.4,-0.73,-0.03,1,0
16138.531,-0.512,0.06,0.851,-0.4,-0.79,0.03,1,0
16138.546,-0.515,0.057,0.852,0.03,-0.73,-0.06,1,0
16138.562,-0.515,0.058,0.85,0.46,-0.79,-0.12,1,0
16138.562,-0.514,0.059,0.847,0.85,-1.07,-0.37,1,0
16138.578,-0.51,0.059,0.845,0.79,-0.98,-0.64,1,0
16138.593,-0.511,0.06,0.847,1.07,-0.64,-0.92,1,0
16138.593,-0.511,0.062,0.848,1.34,-0.4,-0.98,1,0
16138.609,-0.509,0.062,0.85,1.37,-0.67,-0.89,1,0
16138.609,-0.508,0.064,0.851,1.25,-0.73,-1.1,1,0
16138.625,-0.512,0.064,0.851,1.28,-0.58,-1.25,1,0
16138.64,-0.513,0.069,0.853,1.5,-0.73,-1.34,1,0
16138.64,-0.51,0.071,0.85,1.5,-1.01,-1.25,1,0
16138.656,-0.513,0.075,0.844,1.25,-0.98,-1.04,1,0
16138.671,-0.517,0.078,0.845,0.64,-0.95,-0.64,1,0
16138.671,-0.518,0.078,0.849,0.06,-1.22,-0.03,1,0
16138.687,-0.515,0.073,0.848,-0.31,-1.5,0.4,1,0
16138.703,-0.512,0.072,0.846,-0.37,-1.25,0.49,1,0
16138.703,-0.514,0.069,0.848,-0.4,-1.16,0.85,1,0
16138.718,-0.513,0.068,0.85,-0.76,-1.16,0.73,1,0
16138.734,-0.509,0.064,0.847,-0.82,-1.04,0.55,1,0
16138.734,-0.509,0.057,0.847,-0.21,-0.58,0.4,1,0
16138.75,-0.513,0.06,0.85,0.24,-0.4,0.15,1,0
16138.75,-0.509,0.06,0.85,0.31,-0.7,-0.21,1,0
16138.765,-0.51,0.059,0.849,0.55,-0.55,-0.58,1,0
16138.781,-0.511,0.061,0.846,0.92,-0.34,-0.98,1,0
16138.781,-0.516,0.064,0.848,1.16,-0.21,-1.13,1,0
16138.796,-0.515,0.064,0.852,1.19,-0.37,-1.13,1,0
16138.812,-0.513,0.068,0.851,1.04,-0.55,-1.04,1,0
16138.812,-0.512,0.068,0.85,1.1,-0.67,-1.04,1,0
16138.828,-0.516,0.071,0.851,1.07,-0.67,-1.07,1,0
16138.828,-0.52,0.072,0.85,1.13,-0.92,-0.85,1,0
16138.843,-0.516,0.075,0.848,0.79,-1.22,-0.52,1,0
16138.859,-0.511,0.073,0.843,0.55,-1.37,-0.27,1,0
16138.859,-0.51,0.074,0.843,0.31,-0.82,0.06,1,0
16138.875,-0.51,0.07,0.845,0.46,-0.24,0.27,1,0
16138.89,-0.514,0.068,0.852,-0.24,-0.49,0.31,1,0
16138.906,-0.504,0.063,0.849,-0.46,-1.16,0.46,1,0
16138.906,-0.513,0.061,0.851,0.31,-0.73,0.34,1,0
16138.921,-0.516,0.063,0.851,0.27,-0.79,0.06,1,0
16138.921,-0.517,0.061,0.846,0.09,-1.13,-0.31,1,0
16138.937,-0.512,0.064,0.842,0.18,-1.46,-0.52,1,0
16138.953,-0.513,0.067,0.842,0.64,-1.16,-0.64,1,0
16138.953,-0.517,0.072,0.845,0.7,-0.7,-0.49,1,0
16138.968,-0.509,0.068,0.849,0.76,-0.18,-0.06,1,0
16138.968,-0.509,0.073,0.859,-0.37,-0.34,-0.18,1,0
16138.984,-0.512,0.064,0.862,-0.49,-0.55,-0.27,1,0
16139.0,-0.513,0.066,0.857,-0.12,-0.98,-0.21,1,0
16139.0,-0.511,0.068,0.847,0.18,-1.43,-0.49,1,0
16139.015,-0.516,0.066,0.843,0.24,-1.25,-0.58,1,0
16139.031,-0.521,0.068,0.842,0.06,-0.95,-0.52,1,0
16139.031,-0.52,0.067,0.845,0.03,-0.92,-0.34,1,0
16139.046,-0.516,0.065,0.844,0.31,-1.04,-0.24,1,0
16139.062,-0.511,0.064,0.846,0.52,-0.85,-0.34,1,0
16139.062,-0.51,0.067,0.85,0.76,-0.64,-0.52,1,0
16139.078,-0.508,0.065,0.849,0.98,-0.61,-0.52,1,0
16139.078,-0.507,0.066,0.847,0.98,-0.7,-0.31,1,0
16139.093,-0.509,0.067,0.849,0.52,-0.76,-0.12,1,0
16139.109,-0.513,0.067,0.851,0.06,-0.95,-0.09,1,0
16139.125,-0.515,0.067,0.85,0.09,-0.98,-0.06,1,0
16139.125,-0.518,0.068,0.849,0.24,-1.07,0.03,1,0
16139.14,-0.52,0.07,0.849,0.09,-1.34,0.09,1,0
16139.14,-0.516,0.071,0.849,-0.34,-1.46,0.12,1,0
16139.156,-0.515,0.069,0.849,-0.46,-1.4,0.0,1,0
16139.171,-0.513,0.07,0.849,-0.21,-1.59,0.09,1,0
16139.171,-0.508,0.071,0.845,0.09,-1.5,0.21,1,0
16139.187,-0.506,0.067,0.841,0.15,-1.34,0.12,1,0
16139.203,-0.507,0.065,0.843,0.06,-0.82,0.03,1,0
16139.203,-0.509,0.061,0.848,0.15,-0.37,-0.18,1,0
16139.218,-0.513,0.057,0.849,0.4,-0.18,-0.37,1,0
16139.218,-0.515,0.06,0.854,0.64,-0.34,-0.64,1,0
16139.234,-0.517,0.063,0.856,0.7,-0.82,-0.92,1,0
16139.25,-0.515,0.068,0.854,0.64,-1.37,-1.07,1,0
16139.25,-0.513,0.071,0.849,0.76,-1.37,-1.07,1,0
16139.265,-0.515,0.074,0.845,0.61,-1.04,-0.89,1,0
16139.281,-0.513,0.077,0.846,0.27,-0.98,-0.55,1,0
16139.281,-0.511,0.075,0.847,-0.27,-1.16,-0.31,1,0
16139.296,-0.512,0.074,0.847,-0.58,-0.98,-0.31,1,0
16139.312,-0.515,0.072,0.845,-0.31,-0.95,-0.12,1,0
16139.312,-0.514,0.071,0.844,-0.21,-1.07,0.15,1,0
16139.328,-0.512,0.07,0.843,-0.49,-1.25,0.31,1,0
16139.343,-0.51,0.067,0.843,-0.61,-1.19,0.43,1,0
16139.343,-0.51,0.065,0.844,-0.67,-0.82,0.34,1,0
16139.359,-0.51,0.061,0.846,-0.43,-0.52,0.21,1,0
16139.359,-0.512,0.061,0.85,-0.06,-0.4,-0.03,1,0
16139.375,-0.512,0.064,0.854,0.03,-0.58,-0.27,1,0
16139.39,-0.51,0.065,0.854,0.0,-0.89,-0.64,1,0
16139.39,-0.511,0.066,0.851,0.15,-0.76,-0.89,1,0
16139.406,-0.516,0.068,0.849,0.46,-0.55,-0.98,1,0
16139.421,-0.52,0.071,0.848,0.37,-0.55,-0.82,1,0
16139.421,-0.52,0.073,0.849,0.0,-0.95,-0.43,1,0
16139.437,-0.519,0.071,0.848,-0.34,-1.31,-0.09,1,0
16139.437,-0.513,0.069,0.85,-0.4,-1.4,0.06,1,0
16139.453,-0.511,0.069,0.848,-0.27,-1.34,-0.03,1,0
16139.468,-0.509,0.067,0.849,-0.12,-1.13,0.0,1,0
16139.468,-0.51,0.066,0.848,-0.12,-1.01,0.12,1,0
16139.484,-0.512,0.066,0.848,-0.24,-1.1,0.21,1,0
16139.5,-0.511,0.063,0.847,-0.43,-1.22,0.21,1,0
16139.5,-0.507,0.062,0.844,-0.18,-1.1,0.0,1,0
16139.515,-0.508,0.061,0.842,0.34,-0.58,-0.34,1,0
16139.531,-0.514,0.061,0.846,0.85,-0.15,-0.58,1,0
16139.531,-0.516,0.063,0.847,0.85,-0.21,-0.64,1,0
16139.546,-0.513,0.063,0.846,0.7,-0.52,-0.89,1,0
16139.562,-0.513,0.063,0.85,1.07,-0.52,-1.07,1,0
16139.562,-0.515,0.067,0.85,1.46,-0.55,-1.01,1,0
